participant,consent_key.keys,consent_key.rt,language_native_key.keys,language_native_key.rt,language_home_key.keys,language_home_key.rt,language_prof_oral_english_key.keys,language_prof_oral_english_key.rt,language_prof_oral_spanish_key.keys,language_prof_oral_spanish_key.rt,language_prof_oral_catalan_key.keys,language_prof_oral_catalan_key.rt,language_prof_written_english_key.keys,language_prof_written_english_key.rt,language_prof_written_spanish_key.keys,language_prof_written_spanish_key.rt,language_prof_written_catalan_key.keys,language_prof_written_catalan_key.rt,age,date,expName,psychopyVersion,OS,frameRate,demo_age_key.keys,demo_age_key.rt,demo_sex_key.keys,demo_sex_key.rt,demo_education_key.keys,demo_education_key.rt,demo_vision_key.keys,demo_vision_key.rt,demo_impairment_key.keys,demo_impairment_key.rt,setup_where_key.keys,setup_where_key.rt,setup_noise_key.keys,setup_noise_key.rt,letterTyped,typingOnset,inputText,practice_trials.thisRepN,practice_trials.thisTrialN,practice_trials.thisN,practice_trials.thisIndex,practice_trials.ran,practice_trials.order,trial_id,word,test_language,soundfile,correction,trials_catalan.thisRepN,trials_catalan.thisTrialN,trials_catalan.thisN,trials_catalan.thisIndex,trials_catalan.ran,trials_catalan.order
67126,space,0.358999968,e,1.171000004,e,0.144999981,2,1.055999994,,,2,0.134000063,2,0.119999886,,,2,0.102999926,2,2020-04-26_10h29.34.803,TranslationElicitationSpa,3.2.4,MacIntel,60,,,,,,,,,,,,,,,,,,,,,,,,,,,,,,,,,,
67126,,,,,,,,,,,,,,,,,,,22,2020-04-26_10h29.34.803,TranslationElicitationSpa,3.2.4,MacIntel,60,,,,,,,,,,,,,,,,,,,,,,,,,,,,,,,,,,
67126,,,,,,,,,,,,,,,,,,,222,2020-04-26_10h29.34.803,TranslationElicitationSpa,3.2.4,MacIntel,60,,,,,,,,,,,,,,,,,,,,,,,,,,,,,,,,,,
67126,,,,,,,,,,,,,,,,,,,,2020-04-26_10h29.34.803,TranslationElicitationSpa,3.2.4,MacIntel,60,"[""2"",""2"",""2"",""return""]","[0.13399982452392578,0.2569997310638428,0.40399980545043945,1.05299973487854]",m,1.075000048,1,1.479999781,s,6.289999723,s,0.872999907,1,1.746999979,1,0.64199996,H,4.493999958,H,1,0,5,0,1,4,109,arbre,Catalan,Sounds/cat_arbre.wav,,,,,,,
67126,,,,,,,,,,,,,,,,,,,,2020-04-26_10h29.34.803,TranslationElicitationSpa,3.2.4,MacIntel,60,,,,,,,,,,,,,,,,4.493999958,,1,0,5,0,1,4,109,arbre,Catalan,Sounds/cat_arbre.wav,,,,,,,
67126,,,,,,,,,,,,,,,,,,,,2020-04-26_10h29.34.803,TranslationElicitationSpa,3.2.4,MacIntel,60,,,,,,,,,,,,,,,,,,1,0,5,0,1,4,109,arbre,Catalan,Sounds/cat_arbre.wav,,,,,,,
67126,,,,,,,,,,,,,,,,,,,,2020-04-26_10h29.34.803,TranslationElicitationSpa,3.2.4,MacIntel,60,,,,,,,,,,,,,,,T,2.35800004,T,1,0,5,4,1,4,179,tigre,Catalan,Sounds/cat_tigre.wav,,,,,,,
67126,,,,,,,,,,,,,,,,,,,,2020-04-26_10h29.34.803,TranslationElicitationSpa,3.2.4,MacIntel,60,,,,,,,,,,,,,,,I,2.47300005,TI,1,0,5,4,1,4,179,tigre,Catalan,Sounds/cat_tigre.wav,,,,,,,
67126,,,,,,,,,,,,,,,,,,,,2020-04-26_10h29.34.803,TranslationElicitationSpa,3.2.4,MacIntel,60,,,,,,,,,,,,,,,R,2.725000143,TIR,1,0,5,4,1,4,179,tigre,Catalan,Sounds/cat_tigre.wav,,,,,,,
67126,,,,,,,,,,,,,,,,,,,,2020-04-26_10h29.34.803,TranslationElicitationSpa,3.2.4,MacIntel,60,,,,,,,,,,,,,,,,2.725000143,TI,1,0,5,4,1,4,179,tigre,Catalan,Sounds/cat_tigre.wav,yes,,,,,,
67126,,,,,,,,,,,,,,,,,,,,2020-04-26_10h29.34.803,TranslationElicitationSpa,3.2.4,MacIntel,60,,,,,,,,,,,,,,,G,3.559999943,TIG,1,0,5,4,1,4,179,tigre,Catalan,Sounds/cat_tigre.wav,,,,,,,
67126,,,,,,,,,,,,,,,,,,,,2020-04-26_10h29.34.803,TranslationElicitationSpa,3.2.4,MacIntel,60,,,,,,,,,,,,,,,R,3.728000164,TIGR,1,0,5,4,1,4,179,tigre,Catalan,Sounds/cat_tigre.wav,,,,,,,
67126,,,,,,,,,,,,,,,,,,,,2020-04-26_10h29.34.803,TranslationElicitationSpa,3.2.4,MacIntel,60,,,,,,,,,,,,,,,E,3.828999996,TIGRE,1,0,5,4,1,4,179,tigre,Catalan,Sounds/cat_tigre.wav,,,,,,,
67126,,,,,,,,,,,,,,,,,,,,2020-04-26_10h29.34.803,TranslationElicitationSpa,3.2.4,MacIntel,60,,,,,,,,,,,,,,,,3.828999996,,1,0,5,4,1,4,179,tigre,Catalan,Sounds/cat_tigre.wav,,,,,,,
67126,,,,,,,,,,,,,,,,,,,,2020-04-26_10h29.34.803,TranslationElicitationSpa,3.2.4,MacIntel,60,,,,,,,,,,,,,,,,,,1,0,5,4,1,4,179,tigre,Catalan,Sounds/cat_tigre.wav,,,,,,,
67126,,,,,,,,,,,,,,,,,,,,2020-04-26_10h29.34.803,TranslationElicitationSpa,3.2.4,MacIntel,60,,,,,,,,,,,,,,,C,1.787999868,C,1,0,5,1,1,4,147,jaqueta,Catalan,Sounds/cat_jaqueta.wav,,,,,,,
67126,,,,,,,,,,,,,,,,,,,,2020-04-26_10h29.34.803,TranslationElicitationSpa,3.2.4,MacIntel,60,,,,,,,,,,,,,,,H,1.887999773,CH,1,0,5,1,1,4,147,jaqueta,Catalan,Sounds/cat_jaqueta.wav,,,,,,,
67126,,,,,,,,,,,,,,,,,,,,2020-04-26_10h29.34.803,TranslationElicitationSpa,3.2.4,MacIntel,60,,,,,,,,,,,,,,,A,1.972999811,CHA,1,0,5,1,1,4,147,jaqueta,Catalan,Sounds/cat_jaqueta.wav,,,,,,,
67126,,,,,,,,,,,,,,,,,,,,2020-04-26_10h29.34.803,TranslationElicitationSpa,3.2.4,MacIntel,60,,,,,,,,,,,,,,,Q,2.14199996,CHAQ,1,0,5,1,1,4,147,jaqueta,Catalan,Sounds/cat_jaqueta.wav,,,,,,,
67126,,,,,,,,,,,,,,,,,,,,2020-04-26_10h29.34.803,TranslationElicitationSpa,3.2.4,MacIntel,60,,,,,,,,,,,,,,,U,2.339999914,CHAQU,1,0,5,1,1,4,147,jaqueta,Catalan,Sounds/cat_jaqueta.wav,,,,,,,
67126,,,,,,,,,,,,,,,,,,,,2020-04-26_10h29.34.803,TranslationElicitationSpa,3.2.4,MacIntel,60,,,,,,,,,,,,,,,E,2.356999874,CHAQUE,1,0,5,1,1,4,147,jaqueta,Catalan,Sounds/cat_jaqueta.wav,,,,,,,
67126,,,,,,,,,,,,,,,,,,,,2020-04-26_10h29.34.803,TranslationElicitationSpa,3.2.4,MacIntel,60,,,,,,,,,,,,,,,T,2.572999954,CHAQUET,1,0,5,1,1,4,147,jaqueta,Catalan,Sounds/cat_jaqueta.wav,,,,,,,
67126,,,,,,,,,,,,,,,,,,,,2020-04-26_10h29.34.803,TranslationElicitationSpa,3.2.4,MacIntel,60,,,,,,,,,,,,,,,A,2.790999889,CHAQUETA,1,0,5,1,1,4,147,jaqueta,Catalan,Sounds/cat_jaqueta.wav,,,,,,,
67126,,,,,,,,,,,,,,,,,,,,2020-04-26_10h29.34.803,TranslationElicitationSpa,3.2.4,MacIntel,60,,,,,,,,,,,,,,,,2.790999889,,1,0,5,1,1,4,147,jaqueta,Catalan,Sounds/cat_jaqueta.wav,,,,,,,
67126,,,,,,,,,,,,,,,,,,,,2020-04-26_10h29.34.803,TranslationElicitationSpa,3.2.4,MacIntel,60,,,,,,,,,,,,,,,,,,1,0,5,1,1,4,147,jaqueta,Catalan,Sounds/cat_jaqueta.wav,,,,,,,
67126,,,,,,,,,,,,,,,,,,,,2020-04-26_10h29.34.803,TranslationElicitationSpa,3.2.4,MacIntel,60,,,,,,,,,,,,,,,P,1.886000156,P,1,0,5,3,1,4,167,pingui,Catalan,Sounds/cat_pingui.wav,,,,,,,
67126,,,,,,,,,,,,,,,,,,,,2020-04-26_10h29.34.803,TranslationElicitationSpa,3.2.4,MacIntel,60,,,,,,,,,,,,,,,I,2.037000179,PI,1,0,5,3,1,4,167,pingui,Catalan,Sounds/cat_pingui.wav,,,,,,,
67126,,,,,,,,,,,,,,,,,,,,2020-04-26_10h29.34.803,TranslationElicitationSpa,3.2.4,MacIntel,60,,,,,,,,,,,,,,,N,2.236999989,PIN,1,0,5,3,1,4,167,pingui,Catalan,Sounds/cat_pingui.wav,,,,,,,
67126,,,,,,,,,,,,,,,,,,,,2020-04-26_10h29.34.803,TranslationElicitationSpa,3.2.4,MacIntel,60,,,,,,,,,,,,,,,G,3.123000145,PING,1,0,5,3,1,4,167,pingui,Catalan,Sounds/cat_pingui.wav,,,,,,,
67126,,,,,,,,,,,,,,,,,,,,2020-04-26_10h29.34.803,TranslationElicitationSpa,3.2.4,MacIntel,60,,,,,,,,,,,,,,,U,3.708000183,PINGU,1,0,5,3,1,4,167,pingui,Catalan,Sounds/cat_pingui.wav,,,,,,,
67126,,,,,,,,,,,,,,,,,,,,2020-04-26_10h29.34.803,TranslationElicitationSpa,3.2.4,MacIntel,60,,,,,,,,,,,,,,,I,3.842000008,PINGUI,1,0,5,3,1,4,167,pingui,Catalan,Sounds/cat_pingui.wav,,,,,,,
67126,,,,,,,,,,,,,,,,,,,,2020-04-26_10h29.34.803,TranslationElicitationSpa,3.2.4,MacIntel,60,,,,,,,,,,,,,,,M,4.142000198,PINGUIM,1,0,5,3,1,4,167,pingui,Catalan,Sounds/cat_pingui.wav,,,,,,,
67126,,,,,,,,,,,,,,,,,,,,2020-04-26_10h29.34.803,TranslationElicitationSpa,3.2.4,MacIntel,60,,,,,,,,,,,,,,,O,4.161000013,PINGUIMO,1,0,5,3,1,4,167,pingui,Catalan,Sounds/cat_pingui.wav,,,,,,,
67126,,,,,,,,,,,,,,,,,,,,2020-04-26_10h29.34.803,TranslationElicitationSpa,3.2.4,MacIntel,60,,,,,,,,,,,,,,,,4.161000013,PINGUIM,1,0,5,3,1,4,167,pingui,Catalan,Sounds/cat_pingui.wav,yes,,,,,,
67126,,,,,,,,,,,,,,,,,,,,2020-04-26_10h29.34.803,TranslationElicitationSpa,3.2.4,MacIntel,60,,,,,,,,,,,,,,,,4.161000013,PINGUI,1,0,5,3,1,4,167,pingui,Catalan,Sounds/cat_pingui.wav,yes,,,,,,
67126,,,,,,,,,,,,,,,,,,,,2020-04-26_10h29.34.803,TranslationElicitationSpa,3.2.4,MacIntel,60,,,,,,,,,,,,,,,N,5.045000076,PINGUIN,1,0,5,3,1,4,167,pingui,Catalan,Sounds/cat_pingui.wav,,,,,,,
67126,,,,,,,,,,,,,,,,,,,,2020-04-26_10h29.34.803,TranslationElicitationSpa,3.2.4,MacIntel,60,,,,,,,,,,,,,,,O,5.111000061,PINGUINO,1,0,5,3,1,4,167,pingui,Catalan,Sounds/cat_pingui.wav,,,,,,,
67126,,,,,,,,,,,,,,,,,,,,2020-04-26_10h29.34.803,TranslationElicitationSpa,3.2.4,MacIntel,60,,,,,,,,,,,,,,,,5.111000061,,1,0,5,3,1,4,167,pingui,Catalan,Sounds/cat_pingui.wav,,,,,,,
67126,,,,,,,,,,,,,,,,,,,,2020-04-26_10h29.34.803,TranslationElicitationSpa,3.2.4,MacIntel,60,,,,,,,,,,,,,,,,,,1,0,5,3,1,4,167,pingui,Catalan,Sounds/cat_pingui.wav,,,,,,,
67126,,,,,,,,,,,,,,,,,,,,2020-04-26_10h29.34.803,TranslationElicitationSpa,3.2.4,MacIntel,60,,,,,,,,,,,,,,,O,1.252000093,O,1,0,5,2,1,4,159,onada,Catalan,Sounds/cat_onada.wav,,,,,,,
67126,,,,,,,,,,,,,,,,,,,,2020-04-26_10h29.34.803,TranslationElicitationSpa,3.2.4,MacIntel,60,,,,,,,,,,,,,,,L,1.420000076,OL,1,0,5,2,1,4,159,onada,Catalan,Sounds/cat_onada.wav,,,,,,,
67126,,,,,,,,,,,,,,,,,,,,2020-04-26_10h29.34.803,TranslationElicitationSpa,3.2.4,MacIntel,60,,,,,,,,,,,,,,,A,1.569999933,OLA,1,0,5,2,1,4,159,onada,Catalan,Sounds/cat_onada.wav,,,,,,,
67126,,,,,,,,,,,,,,,,,,,,2020-04-26_10h29.34.803,TranslationElicitationSpa,3.2.4,MacIntel,60,,,,,,,,,,,,,,,,1.569999933,,1,0,5,2,1,4,159,onada,Catalan,Sounds/cat_onada.wav,,,,,,,
67126,,,,,,,,,,,,,,,,,,,,2020-04-26_10h29.34.803,TranslationElicitationSpa,3.2.4,MacIntel,60,,,,,,,,,,,,,,,,,,1,0,5,2,1,4,159,onada,Catalan,Sounds/cat_onada.wav,,,,,,,
67126,,,,,,,,,,,,,,,,,,,,2020-04-26_10h29.34.803,TranslationElicitationSpa,3.2.4,MacIntel,60,,,,,,,,,,,,,,,L,1.95600009,L,,,,,,,148,lleo,Catalan,Sounds/cat_lleo.wav,,1,0,80,42,1,79
67126,,,,,,,,,,,,,,,,,,,,2020-04-26_10h29.34.803,TranslationElicitationSpa,3.2.4,MacIntel,60,,,,,,,,,,,,,,,E,2.757000208,LE,,,,,,,148,lleo,Catalan,Sounds/cat_lleo.wav,,1,0,80,42,1,79
67126,,,,,,,,,,,,,,,,,,,,2020-04-26_10h29.34.803,TranslationElicitationSpa,3.2.4,MacIntel,60,,,,,,,,,,,,,,,O,3.144000053,LEO,,,,,,,148,lleo,Catalan,Sounds/cat_lleo.wav,,1,0,80,42,1,79
67126,,,,,,,,,,,,,,,,,,,,2020-04-26_10h29.34.803,TranslationElicitationSpa,3.2.4,MacIntel,60,,,,,,,,,,,,,,,N,3.243000031,LEON,,,,,,,148,lleo,Catalan,Sounds/cat_lleo.wav,,1,0,80,42,1,79
67126,,,,,,,,,,,,,,,,,,,,2020-04-26_10h29.34.803,TranslationElicitationSpa,3.2.4,MacIntel,60,,,,,,,,,,,,,,,,3.243000031,,,,,,,,148,lleo,Catalan,Sounds/cat_lleo.wav,,1,0,80,42,1,79
67126,,,,,,,,,,,,,,,,,,,,2020-04-26_10h29.34.803,TranslationElicitationSpa,3.2.4,MacIntel,60,,,,,,,,,,,,,,,,,,,,,,,,148,lleo,Catalan,Sounds/cat_lleo.wav,,1,0,80,42,1,79
67126,,,,,,,,,,,,,,,,,,,,2020-04-26_10h29.34.803,TranslationElicitationSpa,3.2.4,MacIntel,60,,,,,,,,,,,,,,,G,2.020999908,G,,,,,,,143,globus,Catalan,Sounds/cat_globus.wav,,1,0,80,38,1,79
67126,,,,,,,,,,,,,,,,,,,,2020-04-26_10h29.34.803,TranslationElicitationSpa,3.2.4,MacIntel,60,,,,,,,,,,,,,,,L,2.072999954,GL,,,,,,,143,globus,Catalan,Sounds/cat_globus.wav,,1,0,80,38,1,79
67126,,,,,,,,,,,,,,,,,,,,2020-04-26_10h29.34.803,TranslationElicitationSpa,3.2.4,MacIntel,60,,,,,,,,,,,,,,,O,2.204999924,GLO,,,,,,,143,globus,Catalan,Sounds/cat_globus.wav,,1,0,80,38,1,79
67126,,,,,,,,,,,,,,,,,,,,2020-04-26_10h29.34.803,TranslationElicitationSpa,3.2.4,MacIntel,60,,,,,,,,,,,,,,,B,2.322999954,GLOB,,,,,,,143,globus,Catalan,Sounds/cat_globus.wav,,1,0,80,38,1,79
67126,,,,,,,,,,,,,,,,,,,,2020-04-26_10h29.34.803,TranslationElicitationSpa,3.2.4,MacIntel,60,,,,,,,,,,,,,,,O,2.388999939,GLOBO,,,,,,,143,globus,Catalan,Sounds/cat_globus.wav,,1,0,80,38,1,79
67126,,,,,,,,,,,,,,,,,,,,2020-04-26_10h29.34.803,TranslationElicitationSpa,3.2.4,MacIntel,60,,,,,,,,,,,,,,,,2.388999939,,,,,,,,143,globus,Catalan,Sounds/cat_globus.wav,,1,0,80,38,1,79
67126,,,,,,,,,,,,,,,,,,,,2020-04-26_10h29.34.803,TranslationElicitationSpa,3.2.4,MacIntel,60,,,,,,,,,,,,,,,,,,,,,,,,143,globus,Catalan,Sounds/cat_globus.wav,,1,0,80,38,1,79
67126,,,,,,,,,,,,,,,,,,,,2020-04-26_10h29.34.803,TranslationElicitationSpa,3.2.4,MacIntel,60,,,,,,,,,,,,,,,B,2.106000185,B,,,,,,,157,mussol,Catalan,Sounds/cat_mussol.wav,,1,0,80,51,1,79
67126,,,,,,,,,,,,,,,,,,,,2020-04-26_10h29.34.803,TranslationElicitationSpa,3.2.4,MacIntel,60,,,,,,,,,,,,,,,U,2.323000193,BU,,,,,,,157,mussol,Catalan,Sounds/cat_mussol.wav,,1,0,80,51,1,79
67126,,,,,,,,,,,,,,,,,,,,2020-04-26_10h29.34.803,TranslationElicitationSpa,3.2.4,MacIntel,60,,,,,,,,,,,,,,,G,2.457000017,BUG,,,,,,,157,mussol,Catalan,Sounds/cat_mussol.wav,,1,0,80,51,1,79
67126,,,,,,,,,,,,,,,,,,,,2020-04-26_10h29.34.803,TranslationElicitationSpa,3.2.4,MacIntel,60,,,,,,,,,,,,,,,,2.457000017,BU,,,,,,,157,mussol,Catalan,Sounds/cat_mussol.wav,yes,1,0,80,51,1,79
67126,,,,,,,,,,,,,,,,,,,,2020-04-26_10h29.34.803,TranslationElicitationSpa,3.2.4,MacIntel,60,,,,,,,,,,,,,,,,2.457000017,B,,,,,,,157,mussol,Catalan,Sounds/cat_mussol.wav,yes,1,0,80,51,1,79
67126,,,,,,,,,,,,,,,,,,,,2020-04-26_10h29.34.803,TranslationElicitationSpa,3.2.4,MacIntel,60,,,,,,,,,,,,,,,U,4.078000069,BU,,,,,,,157,mussol,Catalan,Sounds/cat_mussol.wav,,1,0,80,51,1,79
67126,,,,,,,,,,,,,,,,,,,,2020-04-26_10h29.34.803,TranslationElicitationSpa,3.2.4,MacIntel,60,,,,,,,,,,,,,,,H,4.345000029,BUH,,,,,,,157,mussol,Catalan,Sounds/cat_mussol.wav,,1,0,80,51,1,79
67126,,,,,,,,,,,,,,,,,,,,2020-04-26_10h29.34.803,TranslationElicitationSpa,3.2.4,MacIntel,60,,,,,,,,,,,,,,,O,4.446000099,BUHO,,,,,,,157,mussol,Catalan,Sounds/cat_mussol.wav,,1,0,80,51,1,79
67126,,,,,,,,,,,,,,,,,,,,2020-04-26_10h29.34.803,TranslationElicitationSpa,3.2.4,MacIntel,60,,,,,,,,,,,,,,,,4.446000099,,,,,,,,157,mussol,Catalan,Sounds/cat_mussol.wav,,1,0,80,51,1,79
67126,,,,,,,,,,,,,,,,,,,,2020-04-26_10h29.34.803,TranslationElicitationSpa,3.2.4,MacIntel,60,,,,,,,,,,,,,,,,,,,,,,,,157,mussol,Catalan,Sounds/cat_mussol.wav,,1,0,80,51,1,79
67126,,,,,,,,,,,,,,,,,,,,2020-04-26_10h29.34.803,TranslationElicitationSpa,3.2.4,MacIntel,60,,,,,,,,,,,,,,,B,1.136000156,B,,,,,,,111,bibero,Catalan,Sounds/cat_bibero.wav,,1,0,80,6,1,79
67126,,,,,,,,,,,,,,,,,,,,2020-04-26_10h29.34.803,TranslationElicitationSpa,3.2.4,MacIntel,60,,,,,,,,,,,,,,,I,1.185000181,BI,,,,,,,111,bibero,Catalan,Sounds/cat_bibero.wav,,1,0,80,6,1,79
67126,,,,,,,,,,,,,,,,,,,,2020-04-26_10h29.34.803,TranslationElicitationSpa,3.2.4,MacIntel,60,,,,,,,,,,,,,,,B,1.269000053,BIB,,,,,,,111,bibero,Catalan,Sounds/cat_bibero.wav,,1,0,80,6,1,79
67126,,,,,,,,,,,,,,,,,,,,2020-04-26_10h29.34.803,TranslationElicitationSpa,3.2.4,MacIntel,60,,,,,,,,,,,,,,,E,1.419000149,BIBE,,,,,,,111,bibero,Catalan,Sounds/cat_bibero.wav,,1,0,80,6,1,79
67126,,,,,,,,,,,,,,,,,,,,2020-04-26_10h29.34.803,TranslationElicitationSpa,3.2.4,MacIntel,60,,,,,,,,,,,,,,,R,1.536000013,BIBER,,,,,,,111,bibero,Catalan,Sounds/cat_bibero.wav,,1,0,80,6,1,79
67126,,,,,,,,,,,,,,,,,,,,2020-04-26_10h29.34.803,TranslationElicitationSpa,3.2.4,MacIntel,60,,,,,,,,,,,,,,,O,1.670000076,BIBERO,,,,,,,111,bibero,Catalan,Sounds/cat_bibero.wav,,1,0,80,6,1,79
67126,,,,,,,,,,,,,,,,,,,,2020-04-26_10h29.34.803,TranslationElicitationSpa,3.2.4,MacIntel,60,,,,,,,,,,,,,,,N,1.771000147,BIBERON,,,,,,,111,bibero,Catalan,Sounds/cat_bibero.wav,,1,0,80,6,1,79
67126,,,,,,,,,,,,,,,,,,,,2020-04-26_10h29.34.803,TranslationElicitationSpa,3.2.4,MacIntel,60,,,,,,,,,,,,,,,,1.771000147,,,,,,,,111,bibero,Catalan,Sounds/cat_bibero.wav,,1,0,80,6,1,79
67126,,,,,,,,,,,,,,,,,,,,2020-04-26_10h29.34.803,TranslationElicitationSpa,3.2.4,MacIntel,60,,,,,,,,,,,,,,,,,,,,,,,,111,bibero,Catalan,Sounds/cat_bibero.wav,,1,0,80,6,1,79
67126,,,,,,,,,,,,,,,,,,,,2020-04-26_10h29.34.803,TranslationElicitationSpa,3.2.4,MacIntel,60,,,,,,,,,,,,,,,P,1.170000076,P,,,,,,,171,pollastre,Catalan,Sounds/cat_pollastre.wav,,1,0,80,63,1,79
67126,,,,,,,,,,,,,,,,,,,,2020-04-26_10h29.34.803,TranslationElicitationSpa,3.2.4,MacIntel,60,,,,,,,,,,,,,,,O,1.269999981,PO,,,,,,,171,pollastre,Catalan,Sounds/cat_pollastre.wav,,1,0,80,63,1,79
67126,,,,,,,,,,,,,,,,,,,,2020-04-26_10h29.34.803,TranslationElicitationSpa,3.2.4,MacIntel,60,,,,,,,,,,,,,,,L,1.670000076,POL,,,,,,,171,pollastre,Catalan,Sounds/cat_pollastre.wav,,1,0,80,63,1,79
67126,,,,,,,,,,,,,,,,,,,,2020-04-26_10h29.34.803,TranslationElicitationSpa,3.2.4,MacIntel,60,,,,,,,,,,,,,,,L,1.787000179,POLL,,,,,,,171,pollastre,Catalan,Sounds/cat_pollastre.wav,,1,0,80,63,1,79
67126,,,,,,,,,,,,,,,,,,,,2020-04-26_10h29.34.803,TranslationElicitationSpa,3.2.4,MacIntel,60,,,,,,,,,,,,,,,O,1.921000004,POLLO,,,,,,,171,pollastre,Catalan,Sounds/cat_pollastre.wav,,1,0,80,63,1,79
67126,,,,,,,,,,,,,,,,,,,,2020-04-26_10h29.34.803,TranslationElicitationSpa,3.2.4,MacIntel,60,,,,,,,,,,,,,,,,1.921000004,,,,,,,,171,pollastre,Catalan,Sounds/cat_pollastre.wav,,1,0,80,63,1,79
67126,,,,,,,,,,,,,,,,,,,,2020-04-26_10h29.34.803,TranslationElicitationSpa,3.2.4,MacIntel,60,,,,,,,,,,,,,,,,,,,,,,,,171,pollastre,Catalan,Sounds/cat_pollastre.wav,,1,0,80,63,1,79
67126,,,,,,,,,,,,,,,,,,,,2020-04-26_10h29.34.803,TranslationElicitationSpa,3.2.4,MacIntel,60,,,,,,,,,,,,,,,C,1.603999853,C,,,,,,,123,cavall,Catalan,Sounds/cat_cavall.wav,,1,0,80,18,1,79
67126,,,,,,,,,,,,,,,,,,,,2020-04-26_10h29.34.803,TranslationElicitationSpa,3.2.4,MacIntel,60,,,,,,,,,,,,,,,A,1.804999828,CA,,,,,,,123,cavall,Catalan,Sounds/cat_cavall.wav,,1,0,80,18,1,79
67126,,,,,,,,,,,,,,,,,,,,2020-04-26_10h29.34.803,TranslationElicitationSpa,3.2.4,MacIntel,60,,,,,,,,,,,,,,,B,2.072000027,CAB,,,,,,,123,cavall,Catalan,Sounds/cat_cavall.wav,,1,0,80,18,1,79
67126,,,,,,,,,,,,,,,,,,,,2020-04-26_10h29.34.803,TranslationElicitationSpa,3.2.4,MacIntel,60,,,,,,,,,,,,,,,A,2.174999952,CABA,,,,,,,123,cavall,Catalan,Sounds/cat_cavall.wav,,1,0,80,18,1,79
67126,,,,,,,,,,,,,,,,,,,,2020-04-26_10h29.34.803,TranslationElicitationSpa,3.2.4,MacIntel,60,,,,,,,,,,,,,,,L,2.322999954,CABAL,,,,,,,123,cavall,Catalan,Sounds/cat_cavall.wav,,1,0,80,18,1,79
67126,,,,,,,,,,,,,,,,,,,,2020-04-26_10h29.34.803,TranslationElicitationSpa,3.2.4,MacIntel,60,,,,,,,,,,,,,,,L,2.424000025,CABALL,,,,,,,123,cavall,Catalan,Sounds/cat_cavall.wav,,1,0,80,18,1,79
67126,,,,,,,,,,,,,,,,,,,,2020-04-26_10h29.34.803,TranslationElicitationSpa,3.2.4,MacIntel,60,,,,,,,,,,,,,,,O,2.556999922,CABALLO,,,,,,,123,cavall,Catalan,Sounds/cat_cavall.wav,,1,0,80,18,1,79
67126,,,,,,,,,,,,,,,,,,,,2020-04-26_10h29.34.803,TranslationElicitationSpa,3.2.4,MacIntel,60,,,,,,,,,,,,,,,,2.556999922,,,,,,,,123,cavall,Catalan,Sounds/cat_cavall.wav,,1,0,80,18,1,79
67126,,,,,,,,,,,,,,,,,,,,2020-04-26_10h29.34.803,TranslationElicitationSpa,3.2.4,MacIntel,60,,,,,,,,,,,,,,,,,,,,,,,,123,cavall,Catalan,Sounds/cat_cavall.wav,,1,0,80,18,1,79
67126,,,,,,,,,,,,,,,,,,,,2020-04-26_10h29.34.803,TranslationElicitationSpa,3.2.4,MacIntel,60,,,,,,,,,,,,,,,M,2.190000057,M,,,,,,,172,poma,Catalan,Sounds/cat_poma.wav,,1,0,80,64,1,79
67126,,,,,,,,,,,,,,,,,,,,2020-04-26_10h29.34.803,TranslationElicitationSpa,3.2.4,MacIntel,60,,,,,,,,,,,,,,,A,2.256000042,MA,,,,,,,172,poma,Catalan,Sounds/cat_poma.wav,,1,0,80,64,1,79
67126,,,,,,,,,,,,,,,,,,,,2020-04-26_10h29.34.803,TranslationElicitationSpa,3.2.4,MacIntel,60,,,,,,,,,,,,,,,N,2.342000008,MAN,,,,,,,172,poma,Catalan,Sounds/cat_poma.wav,,1,0,80,64,1,79
67126,,,,,,,,,,,,,,,,,,,,2020-04-26_10h29.34.803,TranslationElicitationSpa,3.2.4,MacIntel,60,,,,,,,,,,,,,,,Z,2.440999985,MANZ,,,,,,,172,poma,Catalan,Sounds/cat_poma.wav,,1,0,80,64,1,79
67126,,,,,,,,,,,,,,,,,,,,2020-04-26_10h29.34.803,TranslationElicitationSpa,3.2.4,MacIntel,60,,,,,,,,,,,,,,,A,2.49000001,MANZA,,,,,,,172,poma,Catalan,Sounds/cat_poma.wav,,1,0,80,64,1,79
67126,,,,,,,,,,,,,,,,,,,,2020-04-26_10h29.34.803,TranslationElicitationSpa,3.2.4,MacIntel,60,,,,,,,,,,,,,,,N,2.622999907,MANZAN,,,,,,,172,poma,Catalan,Sounds/cat_poma.wav,,1,0,80,64,1,79
67126,,,,,,,,,,,,,,,,,,,,2020-04-26_10h29.34.803,TranslationElicitationSpa,3.2.4,MacIntel,60,,,,,,,,,,,,,,,A,2.707999945,MANZANA,,,,,,,172,poma,Catalan,Sounds/cat_poma.wav,,1,0,80,64,1,79
67126,,,,,,,,,,,,,,,,,,,,2020-04-26_10h29.34.803,TranslationElicitationSpa,3.2.4,MacIntel,60,,,,,,,,,,,,,,,,2.707999945,,,,,,,,172,poma,Catalan,Sounds/cat_poma.wav,,1,0,80,64,1,79
67126,,,,,,,,,,,,,,,,,,,,2020-04-26_10h29.34.803,TranslationElicitationSpa,3.2.4,MacIntel,60,,,,,,,,,,,,,,,,,,,,,,,,172,poma,Catalan,Sounds/cat_poma.wav,,1,0,80,64,1,79
67126,,,,,,,,,,,,,,,,,,,,2020-04-26_10h29.34.803,TranslationElicitationSpa,3.2.4,MacIntel,60,,,,,,,,,,,,,,,A,2.740999937,A,,,,,,,104,abella,Catalan,Sounds/cat_abella.wav,,1,0,80,0,1,79
67126,,,,,,,,,,,,,,,,,,,,2020-04-26_10h29.34.803,TranslationElicitationSpa,3.2.4,MacIntel,60,,,,,,,,,,,,,,,B,2.825000048,AB,,,,,,,104,abella,Catalan,Sounds/cat_abella.wav,,1,0,80,0,1,79
67126,,,,,,,,,,,,,,,,,,,,2020-04-26_10h29.34.803,TranslationElicitationSpa,3.2.4,MacIntel,60,,,,,,,,,,,,,,,E,2.993000031,ABE,,,,,,,104,abella,Catalan,Sounds/cat_abella.wav,,1,0,80,0,1,79
67126,,,,,,,,,,,,,,,,,,,,2020-04-26_10h29.34.803,TranslationElicitationSpa,3.2.4,MacIntel,60,,,,,,,,,,,,,,,J,3.861999989,ABEJ,,,,,,,104,abella,Catalan,Sounds/cat_abella.wav,,1,0,80,0,1,79
67126,,,,,,,,,,,,,,,,,,,,2020-04-26_10h29.34.803,TranslationElicitationSpa,3.2.4,MacIntel,60,,,,,,,,,,,,,,,A,3.947000027,ABEJA,,,,,,,104,abella,Catalan,Sounds/cat_abella.wav,,1,0,80,0,1,79
67126,,,,,,,,,,,,,,,,,,,,2020-04-26_10h29.34.803,TranslationElicitationSpa,3.2.4,MacIntel,60,,,,,,,,,,,,,,,,3.947000027,,,,,,,,104,abella,Catalan,Sounds/cat_abella.wav,,1,0,80,0,1,79
67126,,,,,,,,,,,,,,,,,,,,2020-04-26_10h29.34.803,TranslationElicitationSpa,3.2.4,MacIntel,60,,,,,,,,,,,,,,,,,,,,,,,,104,abella,Catalan,Sounds/cat_abella.wav,,1,0,80,0,1,79
67126,,,,,,,,,,,,,,,,,,,,2020-04-26_10h29.34.803,TranslationElicitationSpa,3.2.4,MacIntel,60,,,,,,,,,,,,,,,C,2.088999987,C,,,,,,,120,cama,Catalan,Sounds/cat_cama.wav,,1,0,80,15,1,79
67126,,,,,,,,,,,,,,,,,,,,2020-04-26_10h29.34.803,TranslationElicitationSpa,3.2.4,MacIntel,60,,,,,,,,,,,,,,,A,2.307999849,CA,,,,,,,120,cama,Catalan,Sounds/cat_cama.wav,,1,0,80,15,1,79
67126,,,,,,,,,,,,,,,,,,,,2020-04-26_10h29.34.803,TranslationElicitationSpa,3.2.4,MacIntel,60,,,,,,,,,,,,,,,M,2.458999872,CAM,,,,,,,120,cama,Catalan,Sounds/cat_cama.wav,,1,0,80,15,1,79
67126,,,,,,,,,,,,,,,,,,,,2020-04-26_10h29.34.803,TranslationElicitationSpa,3.2.4,MacIntel,60,,,,,,,,,,,,,,,A,2.523000002,CAMA,,,,,,,120,cama,Catalan,Sounds/cat_cama.wav,,1,0,80,15,1,79
67126,,,,,,,,,,,,,,,,,,,,2020-04-26_10h29.34.803,TranslationElicitationSpa,3.2.4,MacIntel,60,,,,,,,,,,,,,,,,2.523000002,,,,,,,,120,cama,Catalan,Sounds/cat_cama.wav,,1,0,80,15,1,79
67126,,,,,,,,,,,,,,,,,,,,2020-04-26_10h29.34.803,TranslationElicitationSpa,3.2.4,MacIntel,60,,,,,,,,,,,,,,,,,,,,,,,,120,cama,Catalan,Sounds/cat_cama.wav,,1,0,80,15,1,79
67126,,,,,,,,,,,,,,,,,,,,2020-04-26_10h29.34.803,TranslationElicitationSpa,3.2.4,MacIntel,60,,,,,,,,,,,,,,,B,1.638000011,B,,,,,,,113,boca,Catalan,Sounds/cat_boca.wav,,1,0,80,8,1,79
67126,,,,,,,,,,,,,,,,,,,,2020-04-26_10h29.34.803,TranslationElicitationSpa,3.2.4,MacIntel,60,,,,,,,,,,,,,,,O,1.72300005,BO,,,,,,,113,boca,Catalan,Sounds/cat_boca.wav,,1,0,80,8,1,79
67126,,,,,,,,,,,,,,,,,,,,2020-04-26_10h29.34.803,TranslationElicitationSpa,3.2.4,MacIntel,60,,,,,,,,,,,,,,,C,1.855000019,BOC,,,,,,,113,boca,Catalan,Sounds/cat_boca.wav,,1,0,80,8,1,79
67126,,,,,,,,,,,,,,,,,,,,2020-04-26_10h29.34.803,TranslationElicitationSpa,3.2.4,MacIntel,60,,,,,,,,,,,,,,,A,2.371999979,BOCA,,,,,,,113,boca,Catalan,Sounds/cat_boca.wav,,1,0,80,8,1,79
67126,,,,,,,,,,,,,,,,,,,,2020-04-26_10h29.34.803,TranslationElicitationSpa,3.2.4,MacIntel,60,,,,,,,,,,,,,,,,2.371999979,,,,,,,,113,boca,Catalan,Sounds/cat_boca.wav,,1,0,80,8,1,79
67126,,,,,,,,,,,,,,,,,,,,2020-04-26_10h29.34.803,TranslationElicitationSpa,3.2.4,MacIntel,60,,,,,,,,,,,,,,,,,,,,,,,,113,boca,Catalan,Sounds/cat_boca.wav,,1,0,80,8,1,79
67126,,,,,,,,,,,,,,,,,,,,2020-04-26_10h29.34.803,TranslationElicitationSpa,3.2.4,MacIntel,60,,,,,,,,,,,,,,,P,1.437000036,P,,,,,,,163,papallona,Catalan,Sounds/cat_papallona.wav,,1,0,80,56,1,79
67126,,,,,,,,,,,,,,,,,,,,2020-04-26_10h29.34.803,TranslationElicitationSpa,3.2.4,MacIntel,60,,,,,,,,,,,,,,,A,1.521000147,PA,,,,,,,163,papallona,Catalan,Sounds/cat_papallona.wav,,1,0,80,56,1,79
67126,,,,,,,,,,,,,,,,,,,,2020-04-26_10h29.34.803,TranslationElicitationSpa,3.2.4,MacIntel,60,,,,,,,,,,,,,,,P,1.638000011,PAP,,,,,,,163,papallona,Catalan,Sounds/cat_papallona.wav,,1,0,80,56,1,79
67126,,,,,,,,,,,,,,,,,,,,2020-04-26_10h29.34.803,TranslationElicitationSpa,3.2.4,MacIntel,60,,,,,,,,,,,,,,,A,1.721000195,PAPA,,,,,,,163,papallona,Catalan,Sounds/cat_papallona.wav,,1,0,80,56,1,79
67126,,,,,,,,,,,,,,,,,,,,2020-04-26_10h29.34.803,TranslationElicitationSpa,3.2.4,MacIntel,60,,,,,,,,,,,,,,,L,1.888000011,PAPAL,,,,,,,163,papallona,Catalan,Sounds/cat_papallona.wav,,1,0,80,56,1,79
67126,,,,,,,,,,,,,,,,,,,,2020-04-26_10h29.34.803,TranslationElicitationSpa,3.2.4,MacIntel,60,,,,,,,,,,,,,,,L,2.004000187,PAPALL,,,,,,,163,papallona,Catalan,Sounds/cat_papallona.wav,,1,0,80,56,1,79
67126,,,,,,,,,,,,,,,,,,,,2020-04-26_10h29.34.803,TranslationElicitationSpa,3.2.4,MacIntel,60,,,,,,,,,,,,,,,O,2.256000042,PAPALLO,,,,,,,163,papallona,Catalan,Sounds/cat_papallona.wav,,1,0,80,56,1,79
67126,,,,,,,,,,,,,,,,,,,,2020-04-26_10h29.34.803,TranslationElicitationSpa,3.2.4,MacIntel,60,,,,,,,,,,,,,,,N,2.357000113,PAPALLON,,,,,,,163,papallona,Catalan,Sounds/cat_papallona.wav,,1,0,80,56,1,79
67126,,,,,,,,,,,,,,,,,,,,2020-04-26_10h29.34.803,TranslationElicitationSpa,3.2.4,MacIntel,60,,,,,,,,,,,,,,,A,2.507000208,PAPALLONA,,,,,,,163,papallona,Catalan,Sounds/cat_papallona.wav,,1,0,80,56,1,79
67126,,,,,,,,,,,,,,,,,,,,2020-04-26_10h29.34.803,TranslationElicitationSpa,3.2.4,MacIntel,60,,,,,,,,,,,,,,,,2.507000208,,,,,,,,163,papallona,Catalan,Sounds/cat_papallona.wav,,1,0,80,56,1,79
67126,,,,,,,,,,,,,,,,,,,,2020-04-26_10h29.34.803,TranslationElicitationSpa,3.2.4,MacIntel,60,,,,,,,,,,,,,,,,,,,,,,,,163,papallona,Catalan,Sounds/cat_papallona.wav,,1,0,80,56,1,79
67126,,,,,,,,,,,,,,,,,,,,2020-04-26_10h29.34.803,TranslationElicitationSpa,3.2.4,MacIntel,60,,,,,,,,,,,,,,,B,1.838000059,B,,,,,,,112,bici,Catalan,Sounds/cat_bici.wav,,1,0,80,7,1,79
67126,,,,,,,,,,,,,,,,,,,,2020-04-26_10h29.34.803,TranslationElicitationSpa,3.2.4,MacIntel,60,,,,,,,,,,,,,,,I,1.957000017,BI,,,,,,,112,bici,Catalan,Sounds/cat_bici.wav,,1,0,80,7,1,79
67126,,,,,,,,,,,,,,,,,,,,2020-04-26_10h29.34.803,TranslationElicitationSpa,3.2.4,MacIntel,60,,,,,,,,,,,,,,,C,2.072000027,BIC,,,,,,,112,bici,Catalan,Sounds/cat_bici.wav,,1,0,80,7,1,79
67126,,,,,,,,,,,,,,,,,,,,2020-04-26_10h29.34.803,TranslationElicitationSpa,3.2.4,MacIntel,60,,,,,,,,,,,,,,,I,2.18900013,BICI,,,,,,,112,bici,Catalan,Sounds/cat_bici.wav,,1,0,80,7,1,79
67126,,,,,,,,,,,,,,,,,,,,2020-04-26_10h29.34.803,TranslationElicitationSpa,3.2.4,MacIntel,60,,,,,,,,,,,,,,,,2.18900013,,,,,,,,112,bici,Catalan,Sounds/cat_bici.wav,,1,0,80,7,1,79
67126,,,,,,,,,,,,,,,,,,,,2020-04-26_10h29.34.803,TranslationElicitationSpa,3.2.4,MacIntel,60,,,,,,,,,,,,,,,,,,,,,,,,112,bici,Catalan,Sounds/cat_bici.wav,,1,0,80,7,1,79
67126,,,,,,,,,,,,,,,,,,,,2020-04-26_10h29.34.803,TranslationElicitationSpa,3.2.4,MacIntel,60,,,,,,,,,,,,,,,A,1.421000004,A,,,,,,,105,aigua,Catalan,Sounds/cat_aigua.wav,,1,0,80,1,1,79
67126,,,,,,,,,,,,,,,,,,,,2020-04-26_10h29.34.803,TranslationElicitationSpa,3.2.4,MacIntel,60,,,,,,,,,,,,,,,G,1.605999947,AG,,,,,,,105,aigua,Catalan,Sounds/cat_aigua.wav,,1,0,80,1,1,79
67126,,,,,,,,,,,,,,,,,,,,2020-04-26_10h29.34.803,TranslationElicitationSpa,3.2.4,MacIntel,60,,,,,,,,,,,,,,,U,1.723999977,AGU,,,,,,,105,aigua,Catalan,Sounds/cat_aigua.wav,,1,0,80,1,1,79
67126,,,,,,,,,,,,,,,,,,,,2020-04-26_10h29.34.803,TranslationElicitationSpa,3.2.4,MacIntel,60,,,,,,,,,,,,,,,A,1.822000027,AGUA,,,,,,,105,aigua,Catalan,Sounds/cat_aigua.wav,,1,0,80,1,1,79
67126,,,,,,,,,,,,,,,,,,,,2020-04-26_10h29.34.803,TranslationElicitationSpa,3.2.4,MacIntel,60,,,,,,,,,,,,,,,,1.822000027,,,,,,,,105,aigua,Catalan,Sounds/cat_aigua.wav,,1,0,80,1,1,79
67126,,,,,,,,,,,,,,,,,,,,2020-04-26_10h29.34.803,TranslationElicitationSpa,3.2.4,MacIntel,60,,,,,,,,,,,,,,,,,,,,,,,,105,aigua,Catalan,Sounds/cat_aigua.wav,,1,0,80,1,1,79
67126,,,,,,,,,,,,,,,,,,,,2020-04-26_10h29.34.803,TranslationElicitationSpa,3.2.4,MacIntel,60,,,,,,,,,,,,,,,L,1.437999964,L,,,,,,,114,bol,Catalan,Sounds/cat_bol.wav,,1,0,80,9,1,79
67126,,,,,,,,,,,,,,,,,,,,2020-04-26_10h29.34.803,TranslationElicitationSpa,3.2.4,MacIntel,60,,,,,,,,,,,,,,,,1.437999964,,,,,,,,114,bol,Catalan,Sounds/cat_bol.wav,yes,1,0,80,9,1,79
67126,,,,,,,,,,,,,,,,,,,,2020-04-26_10h29.34.803,TranslationElicitationSpa,3.2.4,MacIntel,60,,,,,,,,,,,,,,,B,2.17200017,B,,,,,,,114,bol,Catalan,Sounds/cat_bol.wav,,1,0,80,9,1,79
67126,,,,,,,,,,,,,,,,,,,,2020-04-26_10h29.34.803,TranslationElicitationSpa,3.2.4,MacIntel,60,,,,,,,,,,,,,,,O,2.291000128,BO,,,,,,,114,bol,Catalan,Sounds/cat_bol.wav,,1,0,80,9,1,79
67126,,,,,,,,,,,,,,,,,,,,2020-04-26_10h29.34.803,TranslationElicitationSpa,3.2.4,MacIntel,60,,,,,,,,,,,,,,,L,2.423000097,BOL,,,,,,,114,bol,Catalan,Sounds/cat_bol.wav,,1,0,80,9,1,79
67126,,,,,,,,,,,,,,,,,,,,2020-04-26_10h29.34.803,TranslationElicitationSpa,3.2.4,MacIntel,60,,,,,,,,,,,,,,,,2.423000097,,,,,,,,114,bol,Catalan,Sounds/cat_bol.wav,,1,0,80,9,1,79
67126,,,,,,,,,,,,,,,,,,,,2020-04-26_10h29.34.803,TranslationElicitationSpa,3.2.4,MacIntel,60,,,,,,,,,,,,,,,,,,,,,,,,114,bol,Catalan,Sounds/cat_bol.wav,,1,0,80,9,1,79
67126,,,,,,,,,,,,,,,,,,,,2020-04-26_10h29.34.803,TranslationElicitationSpa,3.2.4,MacIntel,60,,,,,,,,,,,,,,,N,1.756000042,N,,,,,,,158,nas,Catalan,Sounds/cat_nas.wav,,1,0,80,52,1,79
67126,,,,,,,,,,,,,,,,,,,,2020-04-26_10h29.34.803,TranslationElicitationSpa,3.2.4,MacIntel,60,,,,,,,,,,,,,,,A,1.872999907,NA,,,,,,,158,nas,Catalan,Sounds/cat_nas.wav,,1,0,80,52,1,79
67126,,,,,,,,,,,,,,,,,,,,2020-04-26_10h29.34.803,TranslationElicitationSpa,3.2.4,MacIntel,60,,,,,,,,,,,,,,,R,2.022000074,NAR,,,,,,,158,nas,Catalan,Sounds/cat_nas.wav,,1,0,80,52,1,79
67126,,,,,,,,,,,,,,,,,,,,2020-04-26_10h29.34.803,TranslationElicitationSpa,3.2.4,MacIntel,60,,,,,,,,,,,,,,,Z,2.339999914,NARZ,,,,,,,158,nas,Catalan,Sounds/cat_nas.wav,,1,0,80,52,1,79
67126,,,,,,,,,,,,,,,,,,,,2020-04-26_10h29.34.803,TranslationElicitationSpa,3.2.4,MacIntel,60,,,,,,,,,,,,,,,,2.339999914,NAR,,,,,,,158,nas,Catalan,Sounds/cat_nas.wav,yes,1,0,80,52,1,79
67126,,,,,,,,,,,,,,,,,,,,2020-04-26_10h29.34.803,TranslationElicitationSpa,3.2.4,MacIntel,60,,,,,,,,,,,,,,,I,2.910000086,NARI,,,,,,,158,nas,Catalan,Sounds/cat_nas.wav,,1,0,80,52,1,79
67126,,,,,,,,,,,,,,,,,,,,2020-04-26_10h29.34.803,TranslationElicitationSpa,3.2.4,MacIntel,60,,,,,,,,,,,,,,,Z,2.993000031,NARIZ,,,,,,,158,nas,Catalan,Sounds/cat_nas.wav,,1,0,80,52,1,79
67126,,,,,,,,,,,,,,,,,,,,2020-04-26_10h29.34.803,TranslationElicitationSpa,3.2.4,MacIntel,60,,,,,,,,,,,,,,,,2.993000031,,,,,,,,158,nas,Catalan,Sounds/cat_nas.wav,,1,0,80,52,1,79
67126,,,,,,,,,,,,,,,,,,,,2020-04-26_10h29.34.803,TranslationElicitationSpa,3.2.4,MacIntel,60,,,,,,,,,,,,,,,,,,,,,,,,158,nas,Catalan,Sounds/cat_nas.wav,,1,0,80,52,1,79
67126,,,,,,,,,,,,,,,,,,,,2020-04-26_10h29.34.803,TranslationElicitationSpa,3.2.4,MacIntel,60,,,,,,,,,,,,,,,T,1.220000029,T,,,,,,,180,tisores,Catalan,Sounds/cat_tisores.wav,,1,0,80,71,1,79
67126,,,,,,,,,,,,,,,,,,,,2020-04-26_10h29.34.803,TranslationElicitationSpa,3.2.4,MacIntel,60,,,,,,,,,,,,,,,I,2.039000034,TI,,,,,,,180,tisores,Catalan,Sounds/cat_tisores.wav,,1,0,80,71,1,79
67126,,,,,,,,,,,,,,,,,,,,2020-04-26_10h29.34.803,TranslationElicitationSpa,3.2.4,MacIntel,60,,,,,,,,,,,,,,,J,2.171999931,TIJ,,,,,,,180,tisores,Catalan,Sounds/cat_tisores.wav,,1,0,80,71,1,79
67126,,,,,,,,,,,,,,,,,,,,2020-04-26_10h29.34.803,TranslationElicitationSpa,3.2.4,MacIntel,60,,,,,,,,,,,,,,,E,2.256000042,TIJE,,,,,,,180,tisores,Catalan,Sounds/cat_tisores.wav,,1,0,80,71,1,79
67126,,,,,,,,,,,,,,,,,,,,2020-04-26_10h29.34.803,TranslationElicitationSpa,3.2.4,MacIntel,60,,,,,,,,,,,,,,,R,2.357000113,TIJER,,,,,,,180,tisores,Catalan,Sounds/cat_tisores.wav,,1,0,80,71,1,79
67126,,,,,,,,,,,,,,,,,,,,2020-04-26_10h29.34.803,TranslationElicitationSpa,3.2.4,MacIntel,60,,,,,,,,,,,,,,,A,2.506000042,TIJERA,,,,,,,180,tisores,Catalan,Sounds/cat_tisores.wav,,1,0,80,71,1,79
67126,,,,,,,,,,,,,,,,,,,,2020-04-26_10h29.34.803,TranslationElicitationSpa,3.2.4,MacIntel,60,,,,,,,,,,,,,,,S,2.607000113,TIJERAS,,,,,,,180,tisores,Catalan,Sounds/cat_tisores.wav,,1,0,80,71,1,79
67126,,,,,,,,,,,,,,,,,,,,2020-04-26_10h29.34.803,TranslationElicitationSpa,3.2.4,MacIntel,60,,,,,,,,,,,,,,,,2.607000113,,,,,,,,180,tisores,Catalan,Sounds/cat_tisores.wav,,1,0,80,71,1,79
67126,,,,,,,,,,,,,,,,,,,,2020-04-26_10h29.34.803,TranslationElicitationSpa,3.2.4,MacIntel,60,,,,,,,,,,,,,,,,,,,,,,,,180,tisores,Catalan,Sounds/cat_tisores.wav,,1,0,80,71,1,79
67126,,,,,,,,,,,,,,,,,,,,2020-04-26_10h29.34.803,TranslationElicitationSpa,3.2.4,MacIntel,60,,,,,,,,,,,,,,,G,1.805999994,G,,,,,,,144,gorra,Catalan,Sounds/cat_gorra.wav,,1,0,80,39,1,79
67126,,,,,,,,,,,,,,,,,,,,2020-04-26_10h29.34.803,TranslationElicitationSpa,3.2.4,MacIntel,60,,,,,,,,,,,,,,,O,1.974999905,GO,,,,,,,144,gorra,Catalan,Sounds/cat_gorra.wav,,1,0,80,39,1,79
67126,,,,,,,,,,,,,,,,,,,,2020-04-26_10h29.34.803,TranslationElicitationSpa,3.2.4,MacIntel,60,,,,,,,,,,,,,,,R,2.859999895,GOR,,,,,,,144,gorra,Catalan,Sounds/cat_gorra.wav,,1,0,80,39,1,79
67126,,,,,,,,,,,,,,,,,,,,2020-04-26_10h29.34.803,TranslationElicitationSpa,3.2.4,MacIntel,60,,,,,,,,,,,,,,,R,2.991999865,GORR,,,,,,,144,gorra,Catalan,Sounds/cat_gorra.wav,,1,0,80,39,1,79
67126,,,,,,,,,,,,,,,,,,,,2020-04-26_10h29.34.803,TranslationElicitationSpa,3.2.4,MacIntel,60,,,,,,,,,,,,,,,A,3.15899992,GORRA,,,,,,,144,gorra,Catalan,Sounds/cat_gorra.wav,,1,0,80,39,1,79
67126,,,,,,,,,,,,,,,,,,,,2020-04-26_10h29.34.803,TranslationElicitationSpa,3.2.4,MacIntel,60,,,,,,,,,,,,,,,,3.15899992,,,,,,,,144,gorra,Catalan,Sounds/cat_gorra.wav,,1,0,80,39,1,79
67126,,,,,,,,,,,,,,,,,,,,2020-04-26_10h29.34.803,TranslationElicitationSpa,3.2.4,MacIntel,60,,,,,,,,,,,,,,,,,,,,,,,,144,gorra,Catalan,Sounds/cat_gorra.wav,,1,0,80,39,1,79
67126,,,,,,,,,,,,,,,,,,,,2020-04-26_10h29.34.803,TranslationElicitationSpa,3.2.4,MacIntel,60,,,,,,,,,,,,,,,T,1.503999949,T,,,,,,,182,tomaquet,Catalan,Sounds/cat_tomaquet.wav,,1,0,80,73,1,79
67126,,,,,,,,,,,,,,,,,,,,2020-04-26_10h29.34.803,TranslationElicitationSpa,3.2.4,MacIntel,60,,,,,,,,,,,,,,,O,1.553999901,TO,,,,,,,182,tomaquet,Catalan,Sounds/cat_tomaquet.wav,,1,0,80,73,1,79
67126,,,,,,,,,,,,,,,,,,,,2020-04-26_10h29.34.803,TranslationElicitationSpa,3.2.4,MacIntel,60,,,,,,,,,,,,,,,M,1.635999918,TOM,,,,,,,182,tomaquet,Catalan,Sounds/cat_tomaquet.wav,,1,0,80,73,1,79
67126,,,,,,,,,,,,,,,,,,,,2020-04-26_10h29.34.803,TranslationElicitationSpa,3.2.4,MacIntel,60,,,,,,,,,,,,,,,A,1.736999989,TOMA,,,,,,,182,tomaquet,Catalan,Sounds/cat_tomaquet.wav,,1,0,80,73,1,79
67126,,,,,,,,,,,,,,,,,,,,2020-04-26_10h29.34.803,TranslationElicitationSpa,3.2.4,MacIntel,60,,,,,,,,,,,,,,,T,1.921999931,TOMAT,,,,,,,182,tomaquet,Catalan,Sounds/cat_tomaquet.wav,,1,0,80,73,1,79
67126,,,,,,,,,,,,,,,,,,,,2020-04-26_10h29.34.803,TranslationElicitationSpa,3.2.4,MacIntel,60,,,,,,,,,,,,,,,E,1.986999989,TOMATE,,,,,,,182,tomaquet,Catalan,Sounds/cat_tomaquet.wav,,1,0,80,73,1,79
67126,,,,,,,,,,,,,,,,,,,,2020-04-26_10h29.34.803,TranslationElicitationSpa,3.2.4,MacIntel,60,,,,,,,,,,,,,,,,1.986999989,,,,,,,,182,tomaquet,Catalan,Sounds/cat_tomaquet.wav,,1,0,80,73,1,79
67126,,,,,,,,,,,,,,,,,,,,2020-04-26_10h29.34.803,TranslationElicitationSpa,3.2.4,MacIntel,60,,,,,,,,,,,,,,,,,,,,,,,,182,tomaquet,Catalan,Sounds/cat_tomaquet.wav,,1,0,80,73,1,79
67126,,,,,,,,,,,,,,,,,,,,2020-04-26_10h29.34.803,TranslationElicitationSpa,3.2.4,MacIntel,60,,,,,,,,,,,,,,,M,2.458000183,M,,,,,,,153,mico,Catalan,Sounds/cat_mico.wav,,1,0,80,47,1,79
67126,,,,,,,,,,,,,,,,,,,,2020-04-26_10h29.34.803,TranslationElicitationSpa,3.2.4,MacIntel,60,,,,,,,,,,,,,,,O,2.558000088,MO,,,,,,,153,mico,Catalan,Sounds/cat_mico.wav,,1,0,80,47,1,79
67126,,,,,,,,,,,,,,,,,,,,2020-04-26_10h29.34.803,TranslationElicitationSpa,3.2.4,MacIntel,60,,,,,,,,,,,,,,,N,2.674000025,MON,,,,,,,153,mico,Catalan,Sounds/cat_mico.wav,,1,0,80,47,1,79
67126,,,,,,,,,,,,,,,,,,,,2020-04-26_10h29.34.803,TranslationElicitationSpa,3.2.4,MacIntel,60,,,,,,,,,,,,,,,O,2.741000175,MONO,,,,,,,153,mico,Catalan,Sounds/cat_mico.wav,,1,0,80,47,1,79
67126,,,,,,,,,,,,,,,,,,,,2020-04-26_10h29.34.803,TranslationElicitationSpa,3.2.4,MacIntel,60,,,,,,,,,,,,,,,,2.741000175,,,,,,,,153,mico,Catalan,Sounds/cat_mico.wav,,1,0,80,47,1,79
67126,,,,,,,,,,,,,,,,,,,,2020-04-26_10h29.34.803,TranslationElicitationSpa,3.2.4,MacIntel,60,,,,,,,,,,,,,,,,,,,,,,,,153,mico,Catalan,Sounds/cat_mico.wav,,1,0,80,47,1,79
67126,,,,,,,,,,,,,,,,,,,,2020-04-26_10h29.34.803,TranslationElicitationSpa,3.2.4,MacIntel,60,,,,,,,,,,,,,,,P,1.585000038,P,,,,,,,168,planta,Catalan,Sounds/cat_planta.wav,,1,0,80,60,1,79
67126,,,,,,,,,,,,,,,,,,,,2020-04-26_10h29.34.803,TranslationElicitationSpa,3.2.4,MacIntel,60,,,,,,,,,,,,,,,L,1.652000189,PL,,,,,,,168,planta,Catalan,Sounds/cat_planta.wav,,1,0,80,60,1,79
67126,,,,,,,,,,,,,,,,,,,,2020-04-26_10h29.34.803,TranslationElicitationSpa,3.2.4,MacIntel,60,,,,,,,,,,,,,,,A,1.820000172,PLA,,,,,,,168,planta,Catalan,Sounds/cat_planta.wav,,1,0,80,60,1,79
67126,,,,,,,,,,,,,,,,,,,,2020-04-26_10h29.34.803,TranslationElicitationSpa,3.2.4,MacIntel,60,,,,,,,,,,,,,,,N,1.917999983,PLAN,,,,,,,168,planta,Catalan,Sounds/cat_planta.wav,,1,0,80,60,1,79
67126,,,,,,,,,,,,,,,,,,,,2020-04-26_10h29.34.803,TranslationElicitationSpa,3.2.4,MacIntel,60,,,,,,,,,,,,,,,T,2.019000053,PLANT,,,,,,,168,planta,Catalan,Sounds/cat_planta.wav,,1,0,80,60,1,79
67126,,,,,,,,,,,,,,,,,,,,2020-04-26_10h29.34.803,TranslationElicitationSpa,3.2.4,MacIntel,60,,,,,,,,,,,,,,,A,2.203999996,PLANTA,,,,,,,168,planta,Catalan,Sounds/cat_planta.wav,,1,0,80,60,1,79
67126,,,,,,,,,,,,,,,,,,,,2020-04-26_10h29.34.803,TranslationElicitationSpa,3.2.4,MacIntel,60,,,,,,,,,,,,,,,,2.203999996,,,,,,,,168,planta,Catalan,Sounds/cat_planta.wav,,1,0,80,60,1,79
67126,,,,,,,,,,,,,,,,,,,,2020-04-26_10h29.34.803,TranslationElicitationSpa,3.2.4,MacIntel,60,,,,,,,,,,,,,,,,,,,,,,,,168,planta,Catalan,Sounds/cat_planta.wav,,1,0,80,60,1,79
67126,,,,,,,,,,,,,,,,,,,,2020-04-26_10h29.34.803,TranslationElicitationSpa,3.2.4,MacIntel,60,,,,,,,,,,,,,,,P,1.736999989,P,,,,,,,116,bolquer,Catalan,Sounds/cat_bolquer.wav,,1,0,80,11,1,79
67126,,,,,,,,,,,,,,,,,,,,2020-04-26_10h29.34.803,TranslationElicitationSpa,3.2.4,MacIntel,60,,,,,,,,,,,,,,,A,1.870999813,PA,,,,,,,116,bolquer,Catalan,Sounds/cat_bolquer.wav,,1,0,80,11,1,79
67126,,,,,,,,,,,,,,,,,,,,2020-04-26_10h29.34.803,TranslationElicitationSpa,3.2.4,MacIntel,60,,,,,,,,,,,,,,,A,2.103999853,PAA,,,,,,,116,bolquer,Catalan,Sounds/cat_bolquer.wav,,1,0,80,11,1,79
67126,,,,,,,,,,,,,,,,,,,,2020-04-26_10h29.34.803,TranslationElicitationSpa,3.2.4,MacIntel,60,,,,,,,,,,,,,,,N,2.388000011,PAAN,,,,,,,116,bolquer,Catalan,Sounds/cat_bolquer.wav,,1,0,80,11,1,79
67126,,,,,,,,,,,,,,,,,,,,2020-04-26_10h29.34.803,TranslationElicitationSpa,3.2.4,MacIntel,60,,,,,,,,,,,,,,,,2.388000011,PAA,,,,,,,116,bolquer,Catalan,Sounds/cat_bolquer.wav,yes,1,0,80,11,1,79
67126,,,,,,,,,,,,,,,,,,,,2020-04-26_10h29.34.803,TranslationElicitationSpa,3.2.4,MacIntel,60,,,,,,,,,,,,,,,,2.388000011,PA,,,,,,,116,bolquer,Catalan,Sounds/cat_bolquer.wav,yes,1,0,80,11,1,79
67126,,,,,,,,,,,,,,,,,,,,2020-04-26_10h29.34.803,TranslationElicitationSpa,3.2.4,MacIntel,60,,,,,,,,,,,,,,,A,4.411000013,PAA,,,,,,,116,bolquer,Catalan,Sounds/cat_bolquer.wav,,1,0,80,11,1,79
67126,,,,,,,,,,,,,,,,,,,,2020-04-26_10h29.34.803,TranslationElicitationSpa,3.2.4,MacIntel,60,,,,,,,,,,,,,,,L,4.54399991,PAAL,,,,,,,116,bolquer,Catalan,Sounds/cat_bolquer.wav,,1,0,80,11,1,79
67126,,,,,,,,,,,,,,,,,,,,2020-04-26_10h29.34.803,TranslationElicitationSpa,3.2.4,MacIntel,60,,,,,,,,,,,,,,,,4.54399991,,,,,,,,116,bolquer,Catalan,Sounds/cat_bolquer.wav,,1,0,80,11,1,79
67126,,,,,,,,,,,,,,,,,,,,2020-04-26_10h29.34.803,TranslationElicitationSpa,3.2.4,MacIntel,60,,,,,,,,,,,,,,,,,,,,,,,,116,bolquer,Catalan,Sounds/cat_bolquer.wav,,1,0,80,11,1,79
67126,,,,,,,,,,,,,,,,,,,,2020-04-26_10h29.34.803,TranslationElicitationSpa,3.2.4,MacIntel,60,,,,,,,,,,,,,,,P,1.40199995,P,,,,,,,164,patata,Catalan,Sounds/cat_patata.wav,,1,0,80,57,1,79
67126,,,,,,,,,,,,,,,,,,,,2020-04-26_10h29.34.803,TranslationElicitationSpa,3.2.4,MacIntel,60,,,,,,,,,,,,,,,A,1.534999847,PA,,,,,,,164,patata,Catalan,Sounds/cat_patata.wav,,1,0,80,57,1,79
67126,,,,,,,,,,,,,,,,,,,,2020-04-26_10h29.34.803,TranslationElicitationSpa,3.2.4,MacIntel,60,,,,,,,,,,,,,,,T,1.65199995,PAT,,,,,,,164,patata,Catalan,Sounds/cat_patata.wav,,1,0,80,57,1,79
67126,,,,,,,,,,,,,,,,,,,,2020-04-26_10h29.34.803,TranslationElicitationSpa,3.2.4,MacIntel,60,,,,,,,,,,,,,,,A,1.751999855,PATA,,,,,,,164,patata,Catalan,Sounds/cat_patata.wav,,1,0,80,57,1,79
67126,,,,,,,,,,,,,,,,,,,,2020-04-26_10h29.34.803,TranslationElicitationSpa,3.2.4,MacIntel,60,,,,,,,,,,,,,,,T,1.819999933,PATAT,,,,,,,164,patata,Catalan,Sounds/cat_patata.wav,,1,0,80,57,1,79
67126,,,,,,,,,,,,,,,,,,,,2020-04-26_10h29.34.803,TranslationElicitationSpa,3.2.4,MacIntel,60,,,,,,,,,,,,,,,A,1.921000004,PATATA,,,,,,,164,patata,Catalan,Sounds/cat_patata.wav,,1,0,80,57,1,79
67126,,,,,,,,,,,,,,,,,,,,2020-04-26_10h29.34.803,TranslationElicitationSpa,3.2.4,MacIntel,60,,,,,,,,,,,,,,,,1.921000004,,,,,,,,164,patata,Catalan,Sounds/cat_patata.wav,,1,0,80,57,1,79
67126,,,,,,,,,,,,,,,,,,,,2020-04-26_10h29.34.803,TranslationElicitationSpa,3.2.4,MacIntel,60,,,,,,,,,,,,,,,,,,,,,,,,164,patata,Catalan,Sounds/cat_patata.wav,,1,0,80,57,1,79
67126,,,,,,,,,,,,,,,,,,,,2020-04-26_10h29.34.803,TranslationElicitationSpa,3.2.4,MacIntel,60,,,,,,,,,,,,,,,J,1.955999851,J,,,,,,,165,pernil,Catalan,Sounds/cat_pernil.wav,,1,0,80,58,1,79
67126,,,,,,,,,,,,,,,,,,,,2020-04-26_10h29.34.803,TranslationElicitationSpa,3.2.4,MacIntel,60,,,,,,,,,,,,,,,A,2.092000008,JA,,,,,,,165,pernil,Catalan,Sounds/cat_pernil.wav,,1,0,80,58,1,79
67126,,,,,,,,,,,,,,,,,,,,2020-04-26_10h29.34.803,TranslationElicitationSpa,3.2.4,MacIntel,60,,,,,,,,,,,,,,,M,2.171999931,JAM,,,,,,,165,pernil,Catalan,Sounds/cat_pernil.wav,,1,0,80,58,1,79
67126,,,,,,,,,,,,,,,,,,,,2020-04-26_10h29.34.803,TranslationElicitationSpa,3.2.4,MacIntel,60,,,,,,,,,,,,,,,O,2.524999857,JAMO,,,,,,,165,pernil,Catalan,Sounds/cat_pernil.wav,,1,0,80,58,1,79
67126,,,,,,,,,,,,,,,,,,,,2020-04-26_10h29.34.803,TranslationElicitationSpa,3.2.4,MacIntel,60,,,,,,,,,,,,,,,N,2.606999874,JAMON,,,,,,,165,pernil,Catalan,Sounds/cat_pernil.wav,,1,0,80,58,1,79
67126,,,,,,,,,,,,,,,,,,,,2020-04-26_10h29.34.803,TranslationElicitationSpa,3.2.4,MacIntel,60,,,,,,,,,,,,,,,,2.606999874,,,,,,,,165,pernil,Catalan,Sounds/cat_pernil.wav,,1,0,80,58,1,79
67126,,,,,,,,,,,,,,,,,,,,2020-04-26_10h29.34.803,TranslationElicitationSpa,3.2.4,MacIntel,60,,,,,,,,,,,,,,,,,,,,,,,,165,pernil,Catalan,Sounds/cat_pernil.wav,,1,0,80,58,1,79
67126,,,,,,,,,,,,,,,,,,,,2020-04-26_10h29.34.803,TranslationElicitationSpa,3.2.4,MacIntel,60,,,,,,,,,,,,,,,C,2.571000099,C,,,,,,,141,gerd,Catalan,Sounds/cat_gerd.wav,,1,0,80,36,1,79
67126,,,,,,,,,,,,,,,,,,,,2020-04-26_10h29.34.803,TranslationElicitationSpa,3.2.4,MacIntel,60,,,,,,,,,,,,,,,E,2.688999891,CE,,,,,,,141,gerd,Catalan,Sounds/cat_gerd.wav,,1,0,80,36,1,79
67126,,,,,,,,,,,,,,,,,,,,2020-04-26_10h29.34.803,TranslationElicitationSpa,3.2.4,MacIntel,60,,,,,,,,,,,,,,,R,2.773999929,CER,,,,,,,141,gerd,Catalan,Sounds/cat_gerd.wav,,1,0,80,36,1,79
67126,,,,,,,,,,,,,,,,,,,,2020-04-26_10h29.34.803,TranslationElicitationSpa,3.2.4,MacIntel,60,,,,,,,,,,,,,,,P,3.040999889,CERP,,,,,,,141,gerd,Catalan,Sounds/cat_gerd.wav,,1,0,80,36,1,79
67126,,,,,,,,,,,,,,,,,,,,2020-04-26_10h29.34.803,TranslationElicitationSpa,3.2.4,MacIntel,60,,,,,,,,,,,,,,,E,3.139999866,CERPE,,,,,,,141,gerd,Catalan,Sounds/cat_gerd.wav,,1,0,80,36,1,79
67126,,,,,,,,,,,,,,,,,,,,2020-04-26_10h29.34.803,TranslationElicitationSpa,3.2.4,MacIntel,60,,,,,,,,,,,,,,,,3.139999866,CERP,,,,,,,141,gerd,Catalan,Sounds/cat_gerd.wav,yes,1,0,80,36,1,79
67126,,,,,,,,,,,,,,,,,,,,2020-04-26_10h29.34.803,TranslationElicitationSpa,3.2.4,MacIntel,60,,,,,,,,,,,,,,,,3.139999866,CER,,,,,,,141,gerd,Catalan,Sounds/cat_gerd.wav,yes,1,0,80,36,1,79
67126,,,,,,,,,,,,,,,,,,,,2020-04-26_10h29.34.803,TranslationElicitationSpa,3.2.4,MacIntel,60,,,,,,,,,,,,,,,,3.139999866,CE,,,,,,,141,gerd,Catalan,Sounds/cat_gerd.wav,yes,1,0,80,36,1,79
67126,,,,,,,,,,,,,,,,,,,,2020-04-26_10h29.34.803,TranslationElicitationSpa,3.2.4,MacIntel,60,,,,,,,,,,,,,,,S,3.976000071,CES,,,,,,,141,gerd,Catalan,Sounds/cat_gerd.wav,,1,0,80,36,1,79
67126,,,,,,,,,,,,,,,,,,,,2020-04-26_10h29.34.803,TranslationElicitationSpa,3.2.4,MacIntel,60,,,,,,,,,,,,,,,P,4.127000093,CESP,,,,,,,141,gerd,Catalan,Sounds/cat_gerd.wav,,1,0,80,36,1,79
67126,,,,,,,,,,,,,,,,,,,,2020-04-26_10h29.34.803,TranslationElicitationSpa,3.2.4,MacIntel,60,,,,,,,,,,,,,,,E,4.243999958,CESPE,,,,,,,141,gerd,Catalan,Sounds/cat_gerd.wav,,1,0,80,36,1,79
67126,,,,,,,,,,,,,,,,,,,,2020-04-26_10h29.34.803,TranslationElicitationSpa,3.2.4,MacIntel,60,,,,,,,,,,,,,,,D,4.54399991,CESPED,,,,,,,141,gerd,Catalan,Sounds/cat_gerd.wav,,1,0,80,36,1,79
67126,,,,,,,,,,,,,,,,,,,,2020-04-26_10h29.34.803,TranslationElicitationSpa,3.2.4,MacIntel,60,,,,,,,,,,,,,,,,4.54399991,,,,,,,,141,gerd,Catalan,Sounds/cat_gerd.wav,,1,0,80,36,1,79
67126,,,,,,,,,,,,,,,,,,,,2020-04-26_10h29.34.803,TranslationElicitationSpa,3.2.4,MacIntel,60,,,,,,,,,,,,,,,,,,,,,,,,141,gerd,Catalan,Sounds/cat_gerd.wav,,1,0,80,36,1,79
67126,,,,,,,,,,,,,,,,,,,,2020-04-26_10h29.34.803,TranslationElicitationSpa,3.2.4,MacIntel,60,,,,,,,,,,,,,,,O,1.470000029,O,,,,,,,161,ovella,Catalan,Sounds/cat_ovella.wav,,1,0,80,54,1,79
67126,,,,,,,,,,,,,,,,,,,,2020-04-26_10h29.34.803,TranslationElicitationSpa,3.2.4,MacIntel,60,,,,,,,,,,,,,,,V,1.569999933,OV,,,,,,,161,ovella,Catalan,Sounds/cat_ovella.wav,,1,0,80,54,1,79
67126,,,,,,,,,,,,,,,,,,,,2020-04-26_10h29.34.803,TranslationElicitationSpa,3.2.4,MacIntel,60,,,,,,,,,,,,,,,E,1.654999971,OVE,,,,,,,161,ovella,Catalan,Sounds/cat_ovella.wav,,1,0,80,54,1,79
67126,,,,,,,,,,,,,,,,,,,,2020-04-26_10h29.34.803,TranslationElicitationSpa,3.2.4,MacIntel,60,,,,,,,,,,,,,,,J,1.855999947,OVEJ,,,,,,,161,ovella,Catalan,Sounds/cat_ovella.wav,,1,0,80,54,1,79
67126,,,,,,,,,,,,,,,,,,,,2020-04-26_10h29.34.803,TranslationElicitationSpa,3.2.4,MacIntel,60,,,,,,,,,,,,,,,A,1.970999956,OVEJA,,,,,,,161,ovella,Catalan,Sounds/cat_ovella.wav,,1,0,80,54,1,79
67126,,,,,,,,,,,,,,,,,,,,2020-04-26_10h29.34.803,TranslationElicitationSpa,3.2.4,MacIntel,60,,,,,,,,,,,,,,,,1.970999956,,,,,,,,161,ovella,Catalan,Sounds/cat_ovella.wav,,1,0,80,54,1,79
67126,,,,,,,,,,,,,,,,,,,,2020-04-26_10h29.34.803,TranslationElicitationSpa,3.2.4,MacIntel,60,,,,,,,,,,,,,,,,,,,,,,,,161,ovella,Catalan,Sounds/cat_ovella.wav,,1,0,80,54,1,79
67126,,,,,,,,,,,,,,,,,,,,2020-04-26_10h29.34.803,TranslationElicitationSpa,3.2.4,MacIntel,60,,,,,,,,,,,,,,,M,1.522000074,M,,,,,,,110,berenar,Catalan,Sounds/cat_berenar.wav,,1,0,80,5,1,79
67126,,,,,,,,,,,,,,,,,,,,2020-04-26_10h29.34.803,TranslationElicitationSpa,3.2.4,MacIntel,60,,,,,,,,,,,,,,,E,1.622000217,ME,,,,,,,110,berenar,Catalan,Sounds/cat_berenar.wav,,1,0,80,5,1,79
67126,,,,,,,,,,,,,,,,,,,,2020-04-26_10h29.34.803,TranslationElicitationSpa,3.2.4,MacIntel,60,,,,,,,,,,,,,,,R,1.791000128,MER,,,,,,,110,berenar,Catalan,Sounds/cat_berenar.wav,,1,0,80,5,1,79
67126,,,,,,,,,,,,,,,,,,,,2020-04-26_10h29.34.803,TranslationElicitationSpa,3.2.4,MacIntel,60,,,,,,,,,,,,,,,I,1.855000019,MERI,,,,,,,110,berenar,Catalan,Sounds/cat_berenar.wav,,1,0,80,5,1,79
67126,,,,,,,,,,,,,,,,,,,,2020-04-26_10h29.34.803,TranslationElicitationSpa,3.2.4,MacIntel,60,,,,,,,,,,,,,,,E,2.458000183,MERIE,,,,,,,110,berenar,Catalan,Sounds/cat_berenar.wav,,1,0,80,5,1,79
67126,,,,,,,,,,,,,,,,,,,,2020-04-26_10h29.34.803,TranslationElicitationSpa,3.2.4,MacIntel,60,,,,,,,,,,,,,,,N,2.542000055,MERIEN,,,,,,,110,berenar,Catalan,Sounds/cat_berenar.wav,,1,0,80,5,1,79
67126,,,,,,,,,,,,,,,,,,,,2020-04-26_10h29.34.803,TranslationElicitationSpa,3.2.4,MacIntel,60,,,,,,,,,,,,,,,D,2.609000206,MERIEND,,,,,,,110,berenar,Catalan,Sounds/cat_berenar.wav,,1,0,80,5,1,79
67126,,,,,,,,,,,,,,,,,,,,2020-04-26_10h29.34.803,TranslationElicitationSpa,3.2.4,MacIntel,60,,,,,,,,,,,,,,,A,2.774000168,MERIENDA,,,,,,,110,berenar,Catalan,Sounds/cat_berenar.wav,,1,0,80,5,1,79
67126,,,,,,,,,,,,,,,,,,,,2020-04-26_10h29.34.803,TranslationElicitationSpa,3.2.4,MacIntel,60,,,,,,,,,,,,,,,,2.774000168,,,,,,,,110,berenar,Catalan,Sounds/cat_berenar.wav,,1,0,80,5,1,79
67126,,,,,,,,,,,,,,,,,,,,2020-04-26_10h29.34.803,TranslationElicitationSpa,3.2.4,MacIntel,60,,,,,,,,,,,,,,,,,,,,,,,,110,berenar,Catalan,Sounds/cat_berenar.wav,,1,0,80,5,1,79
67126,,,,,,,,,,,,,,,,,,,,2020-04-26_10h29.34.803,TranslationElicitationSpa,3.2.4,MacIntel,60,,,,,,,,,,,,,,,P,2.357000113,P,,,,,,,166,peu,Catalan,Sounds/cat_peu.wav,,1,0,80,59,1,79
67126,,,,,,,,,,,,,,,,,,,,2020-04-26_10h29.34.803,TranslationElicitationSpa,3.2.4,MacIntel,60,,,,,,,,,,,,,,,E,2.45600009,PE,,,,,,,166,peu,Catalan,Sounds/cat_peu.wav,,1,0,80,59,1,79
67126,,,,,,,,,,,,,,,,,,,,2020-04-26_10h29.34.803,TranslationElicitationSpa,3.2.4,MacIntel,60,,,,,,,,,,,,,,,,2.45600009,P,,,,,,,166,peu,Catalan,Sounds/cat_peu.wav,yes,1,0,80,59,1,79
67126,,,,,,,,,,,,,,,,,,,,2020-04-26_10h29.34.803,TranslationElicitationSpa,3.2.4,MacIntel,60,,,,,,,,,,,,,,,I,3.407999992,PI,,,,,,,166,peu,Catalan,Sounds/cat_peu.wav,,1,0,80,59,1,79
67126,,,,,,,,,,,,,,,,,,,,2020-04-26_10h29.34.803,TranslationElicitationSpa,3.2.4,MacIntel,60,,,,,,,,,,,,,,,E,3.492000103,PIE,,,,,,,166,peu,Catalan,Sounds/cat_peu.wav,,1,0,80,59,1,79
67126,,,,,,,,,,,,,,,,,,,,2020-04-26_10h29.34.803,TranslationElicitationSpa,3.2.4,MacIntel,60,,,,,,,,,,,,,,,,3.492000103,,,,,,,,166,peu,Catalan,Sounds/cat_peu.wav,,1,0,80,59,1,79
67126,,,,,,,,,,,,,,,,,,,,2020-04-26_10h29.34.803,TranslationElicitationSpa,3.2.4,MacIntel,60,,,,,,,,,,,,,,,,,,,,,,,,166,peu,Catalan,Sounds/cat_peu.wav,,1,0,80,59,1,79
67126,,,,,,,,,,,,,,,,,,,,2020-04-26_10h29.34.803,TranslationElicitationSpa,3.2.4,MacIntel,60,,,,,,,,,,,,,,,C,1.720999956,C,,,,,,,188,xocolata,Catalan,Sounds/cat_xocolata.wav,,1,0,80,78,1,79
67126,,,,,,,,,,,,,,,,,,,,2020-04-26_10h29.34.803,TranslationElicitationSpa,3.2.4,MacIntel,60,,,,,,,,,,,,,,,H,1.736999989,CH,,,,,,,188,xocolata,Catalan,Sounds/cat_xocolata.wav,,1,0,80,78,1,79
67126,,,,,,,,,,,,,,,,,,,,2020-04-26_10h29.34.803,TranslationElicitationSpa,3.2.4,MacIntel,60,,,,,,,,,,,,,,,O,1.821999788,CHO,,,,,,,188,xocolata,Catalan,Sounds/cat_xocolata.wav,,1,0,80,78,1,79
67126,,,,,,,,,,,,,,,,,,,,2020-04-26_10h29.34.803,TranslationElicitationSpa,3.2.4,MacIntel,60,,,,,,,,,,,,,,,C,1.954999924,CHOC,,,,,,,188,xocolata,Catalan,Sounds/cat_xocolata.wav,,1,0,80,78,1,79
67126,,,,,,,,,,,,,,,,,,,,2020-04-26_10h29.34.803,TranslationElicitationSpa,3.2.4,MacIntel,60,,,,,,,,,,,,,,,O,2.037999868,CHOCO,,,,,,,188,xocolata,Catalan,Sounds/cat_xocolata.wav,,1,0,80,78,1,79
67126,,,,,,,,,,,,,,,,,,,,2020-04-26_10h29.34.803,TranslationElicitationSpa,3.2.4,MacIntel,60,,,,,,,,,,,,,,,L,2.188999891,CHOCOL,,,,,,,188,xocolata,Catalan,Sounds/cat_xocolata.wav,,1,0,80,78,1,79
67126,,,,,,,,,,,,,,,,,,,,2020-04-26_10h29.34.803,TranslationElicitationSpa,3.2.4,MacIntel,60,,,,,,,,,,,,,,,A,2.238999844,CHOCOLA,,,,,,,188,xocolata,Catalan,Sounds/cat_xocolata.wav,,1,0,80,78,1,79
67126,,,,,,,,,,,,,,,,,,,,2020-04-26_10h29.34.803,TranslationElicitationSpa,3.2.4,MacIntel,60,,,,,,,,,,,,,,,T,2.405999899,CHOCOLAT,,,,,,,188,xocolata,Catalan,Sounds/cat_xocolata.wav,,1,0,80,78,1,79
67126,,,,,,,,,,,,,,,,,,,,2020-04-26_10h29.34.803,TranslationElicitationSpa,3.2.4,MacIntel,60,,,,,,,,,,,,,,,E,2.505999804,CHOCOLATE,,,,,,,188,xocolata,Catalan,Sounds/cat_xocolata.wav,,1,0,80,78,1,79
67126,,,,,,,,,,,,,,,,,,,,2020-04-26_10h29.34.803,TranslationElicitationSpa,3.2.4,MacIntel,60,,,,,,,,,,,,,,,,2.505999804,,,,,,,,188,xocolata,Catalan,Sounds/cat_xocolata.wav,,1,0,80,78,1,79
67126,,,,,,,,,,,,,,,,,,,,2020-04-26_10h29.34.803,TranslationElicitationSpa,3.2.4,MacIntel,60,,,,,,,,,,,,,,,,,,,,,,,,188,xocolata,Catalan,Sounds/cat_xocolata.wav,,1,0,80,78,1,79
67126,,,,,,,,,,,,,,,,,,,,2020-04-26_10h29.34.803,TranslationElicitationSpa,3.2.4,MacIntel,60,,,,,,,,,,,,,,,P,1.353000164,P,,,,,,,162,pa,Catalan,Sounds/cat_pa.wav,,1,0,80,55,1,79
67126,,,,,,,,,,,,,,,,,,,,2020-04-26_10h29.34.803,TranslationElicitationSpa,3.2.4,MacIntel,60,,,,,,,,,,,,,,,A,1.486000061,PA,,,,,,,162,pa,Catalan,Sounds/cat_pa.wav,,1,0,80,55,1,79
67126,,,,,,,,,,,,,,,,,,,,2020-04-26_10h29.34.803,TranslationElicitationSpa,3.2.4,MacIntel,60,,,,,,,,,,,,,,,N,1.569000006,PAN,,,,,,,162,pa,Catalan,Sounds/cat_pa.wav,,1,0,80,55,1,79
67126,,,,,,,,,,,,,,,,,,,,2020-04-26_10h29.34.803,TranslationElicitationSpa,3.2.4,MacIntel,60,,,,,,,,,,,,,,,,1.569000006,,,,,,,,162,pa,Catalan,Sounds/cat_pa.wav,,1,0,80,55,1,79
67126,,,,,,,,,,,,,,,,,,,,2020-04-26_10h29.34.803,TranslationElicitationSpa,3.2.4,MacIntel,60,,,,,,,,,,,,,,,,,,,,,,,,162,pa,Catalan,Sounds/cat_pa.wav,,1,0,80,55,1,79
67126,,,,,,,,,,,,,,,,,,,,2020-04-26_10h29.34.803,TranslationElicitationSpa,3.2.4,MacIntel,60,,,,,,,,,,,,,,,B,1.371000051,B,,,,,,,117,boto,Catalan,Sounds/cat_boto.wav,,1,0,80,12,1,79
67126,,,,,,,,,,,,,,,,,,,,2020-04-26_10h29.34.803,TranslationElicitationSpa,3.2.4,MacIntel,60,,,,,,,,,,,,,,,O,1.505000114,BO,,,,,,,117,boto,Catalan,Sounds/cat_boto.wav,,1,0,80,12,1,79
67126,,,,,,,,,,,,,,,,,,,,2020-04-26_10h29.34.803,TranslationElicitationSpa,3.2.4,MacIntel,60,,,,,,,,,,,,,,,T,1.607000113,BOT,,,,,,,117,boto,Catalan,Sounds/cat_boto.wav,,1,0,80,12,1,79
67126,,,,,,,,,,,,,,,,,,,,2020-04-26_10h29.34.803,TranslationElicitationSpa,3.2.4,MacIntel,60,,,,,,,,,,,,,,,O,1.890000105,BOTO,,,,,,,117,boto,Catalan,Sounds/cat_boto.wav,,1,0,80,12,1,79
67126,,,,,,,,,,,,,,,,,,,,2020-04-26_10h29.34.803,TranslationElicitationSpa,3.2.4,MacIntel,60,,,,,,,,,,,,,,,N,1.972000122,BOTON,,,,,,,117,boto,Catalan,Sounds/cat_boto.wav,,1,0,80,12,1,79
67126,,,,,,,,,,,,,,,,,,,,2020-04-26_10h29.34.803,TranslationElicitationSpa,3.2.4,MacIntel,60,,,,,,,,,,,,,,,,1.972000122,,,,,,,,117,boto,Catalan,Sounds/cat_boto.wav,,1,0,80,12,1,79
67126,,,,,,,,,,,,,,,,,,,,2020-04-26_10h29.34.803,TranslationElicitationSpa,3.2.4,MacIntel,60,,,,,,,,,,,,,,,,,,,,,,,,117,boto,Catalan,Sounds/cat_boto.wav,,1,0,80,12,1,79
67126,,,,,,,,,,,,,,,,,,,,2020-04-26_10h29.34.803,TranslationElicitationSpa,3.2.4,MacIntel,60,,,,,,,,,,,,,,,T,2.355999947,T,,,,,,,118,bou,Catalan,Sounds/cat_bou.wav,,1,0,80,13,1,79
67126,,,,,,,,,,,,,,,,,,,,2020-04-26_10h29.34.803,TranslationElicitationSpa,3.2.4,MacIntel,60,,,,,,,,,,,,,,,O,2.440000057,TO,,,,,,,118,bou,Catalan,Sounds/cat_bou.wav,,1,0,80,13,1,79
67126,,,,,,,,,,,,,,,,,,,,2020-04-26_10h29.34.803,TranslationElicitationSpa,3.2.4,MacIntel,60,,,,,,,,,,,,,,,R,2.541000128,TOR,,,,,,,118,bou,Catalan,Sounds/cat_bou.wav,,1,0,80,13,1,79
67126,,,,,,,,,,,,,,,,,,,,2020-04-26_10h29.34.803,TranslationElicitationSpa,3.2.4,MacIntel,60,,,,,,,,,,,,,,,O,2.592000008,TORO,,,,,,,118,bou,Catalan,Sounds/cat_bou.wav,,1,0,80,13,1,79
67126,,,,,,,,,,,,,,,,,,,,2020-04-26_10h29.34.803,TranslationElicitationSpa,3.2.4,MacIntel,60,,,,,,,,,,,,,,,,2.592000008,,,,,,,,118,bou,Catalan,Sounds/cat_bou.wav,,1,0,80,13,1,79
67126,,,,,,,,,,,,,,,,,,,,2020-04-26_10h29.34.803,TranslationElicitationSpa,3.2.4,MacIntel,60,,,,,,,,,,,,,,,,,,,,,,,,118,bou,Catalan,Sounds/cat_bou.wav,,1,0,80,13,1,79
67126,,,,,,,,,,,,,,,,,,,,2020-04-26_10h29.34.803,TranslationElicitationSpa,3.2.4,MacIntel,60,,,,,,,,,,,,,,,T,1.368999958,T,,,,,,,181,tobogan,Catalan,Sounds/cat_tobogan.wav,,1,0,80,72,1,79
67126,,,,,,,,,,,,,,,,,,,,2020-04-26_10h29.34.803,TranslationElicitationSpa,3.2.4,MacIntel,60,,,,,,,,,,,,,,,O,1.470000029,TO,,,,,,,181,tobogan,Catalan,Sounds/cat_tobogan.wav,,1,0,80,72,1,79
67126,,,,,,,,,,,,,,,,,,,,2020-04-26_10h29.34.803,TranslationElicitationSpa,3.2.4,MacIntel,60,,,,,,,,,,,,,,,B,1.587000132,TOB,,,,,,,181,tobogan,Catalan,Sounds/cat_tobogan.wav,,1,0,80,72,1,79
67126,,,,,,,,,,,,,,,,,,,,2020-04-26_10h29.34.803,TranslationElicitationSpa,3.2.4,MacIntel,60,,,,,,,,,,,,,,,O,1.703999996,TOBO,,,,,,,181,tobogan,Catalan,Sounds/cat_tobogan.wav,,1,0,80,72,1,79
67126,,,,,,,,,,,,,,,,,,,,2020-04-26_10h29.34.803,TranslationElicitationSpa,3.2.4,MacIntel,60,,,,,,,,,,,,,,,G,1.837000132,TOBOG,,,,,,,181,tobogan,Catalan,Sounds/cat_tobogan.wav,,1,0,80,72,1,79
67126,,,,,,,,,,,,,,,,,,,,2020-04-26_10h29.34.803,TranslationElicitationSpa,3.2.4,MacIntel,60,,,,,,,,,,,,,,,A,2.072000027,TOBOGA,,,,,,,181,tobogan,Catalan,Sounds/cat_tobogan.wav,,1,0,80,72,1,79
67126,,,,,,,,,,,,,,,,,,,,2020-04-26_10h29.34.803,TranslationElicitationSpa,3.2.4,MacIntel,60,,,,,,,,,,,,,,,N,2.187999964,TOBOGAN,,,,,,,181,tobogan,Catalan,Sounds/cat_tobogan.wav,,1,0,80,72,1,79
67126,,,,,,,,,,,,,,,,,,,,2020-04-26_10h29.34.803,TranslationElicitationSpa,3.2.4,MacIntel,60,,,,,,,,,,,,,,,,2.187999964,,,,,,,,181,tobogan,Catalan,Sounds/cat_tobogan.wav,,1,0,80,72,1,79
67126,,,,,,,,,,,,,,,,,,,,2020-04-26_10h29.34.803,TranslationElicitationSpa,3.2.4,MacIntel,60,,,,,,,,,,,,,,,,,,,,,,,,181,tobogan,Catalan,Sounds/cat_tobogan.wav,,1,0,80,72,1,79
67126,,,,,,,,,,,,,,,,,,,,2020-04-26_10h29.34.803,TranslationElicitationSpa,3.2.4,MacIntel,60,,,,,,,,,,,,,,,S,1.789000034,S,,,,,,,177,sol,Catalan,Sounds/cat_sol.wav,,1,0,80,69,1,79
67126,,,,,,,,,,,,,,,,,,,,2020-04-26_10h29.34.803,TranslationElicitationSpa,3.2.4,MacIntel,60,,,,,,,,,,,,,,,O,1.888999939,SO,,,,,,,177,sol,Catalan,Sounds/cat_sol.wav,,1,0,80,69,1,79
67126,,,,,,,,,,,,,,,,,,,,2020-04-26_10h29.34.803,TranslationElicitationSpa,3.2.4,MacIntel,60,,,,,,,,,,,,,,,L,2.039000034,SOL,,,,,,,177,sol,Catalan,Sounds/cat_sol.wav,,1,0,80,69,1,79
67126,,,,,,,,,,,,,,,,,,,,2020-04-26_10h29.34.803,TranslationElicitationSpa,3.2.4,MacIntel,60,,,,,,,,,,,,,,,,2.039000034,,,,,,,,177,sol,Catalan,Sounds/cat_sol.wav,,1,0,80,69,1,79
67126,,,,,,,,,,,,,,,,,,,,2020-04-26_10h29.34.803,TranslationElicitationSpa,3.2.4,MacIntel,60,,,,,,,,,,,,,,,,,,,,,,,,177,sol,Catalan,Sounds/cat_sol.wav,,1,0,80,69,1,79
67126,,,,,,,,,,,,,,,,,,,,2020-04-26_10h29.34.803,TranslationElicitationSpa,3.2.4,MacIntel,60,,,,,,,,,,,,,,,B,1.770999908,B,,,,,,,187,vaixell,Catalan,Sounds/cat_vaixell.wav,,1,0,80,77,1,79
67126,,,,,,,,,,,,,,,,,,,,2020-04-26_10h29.34.803,TranslationElicitationSpa,3.2.4,MacIntel,60,,,,,,,,,,,,,,,A,1.919999838,BA,,,,,,,187,vaixell,Catalan,Sounds/cat_vaixell.wav,,1,0,80,77,1,79
67126,,,,,,,,,,,,,,,,,,,,2020-04-26_10h29.34.803,TranslationElicitationSpa,3.2.4,MacIntel,60,,,,,,,,,,,,,,,R,2.054999828,BAR,,,,,,,187,vaixell,Catalan,Sounds/cat_vaixell.wav,,1,0,80,77,1,79
67126,,,,,,,,,,,,,,,,,,,,2020-04-26_10h29.34.803,TranslationElicitationSpa,3.2.4,MacIntel,60,,,,,,,,,,,,,,,C,2.220999956,BARC,,,,,,,187,vaixell,Catalan,Sounds/cat_vaixell.wav,,1,0,80,77,1,79
67126,,,,,,,,,,,,,,,,,,,,2020-04-26_10h29.34.803,TranslationElicitationSpa,3.2.4,MacIntel,60,,,,,,,,,,,,,,,O,2.304999828,BARCO,,,,,,,187,vaixell,Catalan,Sounds/cat_vaixell.wav,,1,0,80,77,1,79
67126,,,,,,,,,,,,,,,,,,,,2020-04-26_10h29.34.803,TranslationElicitationSpa,3.2.4,MacIntel,60,,,,,,,,,,,,,,,,2.304999828,,,,,,,,187,vaixell,Catalan,Sounds/cat_vaixell.wav,,1,0,80,77,1,79
67126,,,,,,,,,,,,,,,,,,,,2020-04-26_10h29.34.803,TranslationElicitationSpa,3.2.4,MacIntel,60,,,,,,,,,,,,,,,,,,,,,,,,187,vaixell,Catalan,Sounds/cat_vaixell.wav,,1,0,80,77,1,79
67126,,,,,,,,,,,,,,,,,,,,2020-04-26_10h29.34.803,TranslationElicitationSpa,3.2.4,MacIntel,60,,,,,,,,,,,,,,,C,1.235999823,C,,,,,,,126,corona,Catalan,Sounds/cat_corona.wav,,1,0,80,21,1,79
67126,,,,,,,,,,,,,,,,,,,,2020-04-26_10h29.34.803,TranslationElicitationSpa,3.2.4,MacIntel,60,,,,,,,,,,,,,,,O,1.351999998,CO,,,,,,,126,corona,Catalan,Sounds/cat_corona.wav,,1,0,80,21,1,79
67126,,,,,,,,,,,,,,,,,,,,2020-04-26_10h29.34.803,TranslationElicitationSpa,3.2.4,MacIntel,60,,,,,,,,,,,,,,,R,1.419999838,COR,,,,,,,126,corona,Catalan,Sounds/cat_corona.wav,,1,0,80,21,1,79
67126,,,,,,,,,,,,,,,,,,,,2020-04-26_10h29.34.803,TranslationElicitationSpa,3.2.4,MacIntel,60,,,,,,,,,,,,,,,O,1.519999981,CORO,,,,,,,126,corona,Catalan,Sounds/cat_corona.wav,,1,0,80,21,1,79
67126,,,,,,,,,,,,,,,,,,,,2020-04-26_10h29.34.803,TranslationElicitationSpa,3.2.4,MacIntel,60,,,,,,,,,,,,,,,N,1.636999846,CORON,,,,,,,126,corona,Catalan,Sounds/cat_corona.wav,,1,0,80,21,1,79
67126,,,,,,,,,,,,,,,,,,,,2020-04-26_10h29.34.803,TranslationElicitationSpa,3.2.4,MacIntel,60,,,,,,,,,,,,,,,A,1.770999908,CORONA,,,,,,,126,corona,Catalan,Sounds/cat_corona.wav,,1,0,80,21,1,79
67126,,,,,,,,,,,,,,,,,,,,2020-04-26_10h29.34.803,TranslationElicitationSpa,3.2.4,MacIntel,60,,,,,,,,,,,,,,,,1.770999908,,,,,,,,126,corona,Catalan,Sounds/cat_corona.wav,,1,0,80,21,1,79
67126,,,,,,,,,,,,,,,,,,,,2020-04-26_10h29.34.803,TranslationElicitationSpa,3.2.4,MacIntel,60,,,,,,,,,,,,,,,,,,,,,,,,126,corona,Catalan,Sounds/cat_corona.wav,,1,0,80,21,1,79
67126,,,,,,,,,,,,,,,,,,,,2020-04-26_10h29.34.803,TranslationElicitationSpa,3.2.4,MacIntel,60,,,,,,,,,,,,,,,E,1.301999807,E,,,,,,,132,estrella,Catalan,Sounds/cat_estrella.wav,,1,0,80,27,1,79
67126,,,,,,,,,,,,,,,,,,,,2020-04-26_10h29.34.803,TranslationElicitationSpa,3.2.4,MacIntel,60,,,,,,,,,,,,,,,S,1.45299983,ES,,,,,,,132,estrella,Catalan,Sounds/cat_estrella.wav,,1,0,80,27,1,79
67126,,,,,,,,,,,,,,,,,,,,2020-04-26_10h29.34.803,TranslationElicitationSpa,3.2.4,MacIntel,60,,,,,,,,,,,,,,,T,1.601999998,EST,,,,,,,132,estrella,Catalan,Sounds/cat_estrella.wav,,1,0,80,27,1,79
67126,,,,,,,,,,,,,,,,,,,,2020-04-26_10h29.34.803,TranslationElicitationSpa,3.2.4,MacIntel,60,,,,,,,,,,,,,,,R,1.68599987,ESTR,,,,,,,132,estrella,Catalan,Sounds/cat_estrella.wav,,1,0,80,27,1,79
67126,,,,,,,,,,,,,,,,,,,,2020-04-26_10h29.34.803,TranslationElicitationSpa,3.2.4,MacIntel,60,,,,,,,,,,,,,,,E,1.855000019,ESTRE,,,,,,,132,estrella,Catalan,Sounds/cat_estrella.wav,,1,0,80,27,1,79
67126,,,,,,,,,,,,,,,,,,,,2020-04-26_10h29.34.803,TranslationElicitationSpa,3.2.4,MacIntel,60,,,,,,,,,,,,,,,L,2.065999985,ESTREL,,,,,,,132,estrella,Catalan,Sounds/cat_estrella.wav,,1,0,80,27,1,79
67126,,,,,,,,,,,,,,,,,,,,2020-04-26_10h29.34.803,TranslationElicitationSpa,3.2.4,MacIntel,60,,,,,,,,,,,,,,,L,2.171000004,ESTRELL,,,,,,,132,estrella,Catalan,Sounds/cat_estrella.wav,,1,0,80,27,1,79
67126,,,,,,,,,,,,,,,,,,,,2020-04-26_10h29.34.803,TranslationElicitationSpa,3.2.4,MacIntel,60,,,,,,,,,,,,,,,A,2.288999796,ESTRELLA,,,,,,,132,estrella,Catalan,Sounds/cat_estrella.wav,,1,0,80,27,1,79
67126,,,,,,,,,,,,,,,,,,,,2020-04-26_10h29.34.803,TranslationElicitationSpa,3.2.4,MacIntel,60,,,,,,,,,,,,,,,,2.288999796,,,,,,,,132,estrella,Catalan,Sounds/cat_estrella.wav,,1,0,80,27,1,79
67126,,,,,,,,,,,,,,,,,,,,2020-04-26_10h29.34.803,TranslationElicitationSpa,3.2.4,MacIntel,60,,,,,,,,,,,,,,,,,,,,,,,,132,estrella,Catalan,Sounds/cat_estrella.wav,,1,0,80,27,1,79
67126,,,,,,,,,,,,,,,,,,,,2020-04-26_10h29.34.803,TranslationElicitationSpa,3.2.4,MacIntel,60,,,,,,,,,,,,,,,E,1.571000099,E,,,,,,,131,esponja,Catalan,Sounds/cat_esponja.wav,,1,0,80,26,1,79
67126,,,,,,,,,,,,,,,,,,,,2020-04-26_10h29.34.803,TranslationElicitationSpa,3.2.4,MacIntel,60,,,,,,,,,,,,,,,S,1.722000122,ES,,,,,,,131,esponja,Catalan,Sounds/cat_esponja.wav,,1,0,80,26,1,79
67126,,,,,,,,,,,,,,,,,,,,2020-04-26_10h29.34.803,TranslationElicitationSpa,3.2.4,MacIntel,60,,,,,,,,,,,,,,,P,1.821000099,ESP,,,,,,,131,esponja,Catalan,Sounds/cat_esponja.wav,,1,0,80,26,1,79
67126,,,,,,,,,,,,,,,,,,,,2020-04-26_10h29.34.803,TranslationElicitationSpa,3.2.4,MacIntel,60,,,,,,,,,,,,,,,O,1.889000177,ESPO,,,,,,,131,esponja,Catalan,Sounds/cat_esponja.wav,,1,0,80,26,1,79
67126,,,,,,,,,,,,,,,,,,,,2020-04-26_10h29.34.803,TranslationElicitationSpa,3.2.4,MacIntel,60,,,,,,,,,,,,,,,N,2.072000027,ESPON,,,,,,,131,esponja,Catalan,Sounds/cat_esponja.wav,,1,0,80,26,1,79
67126,,,,,,,,,,,,,,,,,,,,2020-04-26_10h29.34.803,TranslationElicitationSpa,3.2.4,MacIntel,60,,,,,,,,,,,,,,,K,2.676000118,ESPONK,,,,,,,131,esponja,Catalan,Sounds/cat_esponja.wav,,1,0,80,26,1,79
67126,,,,,,,,,,,,,,,,,,,,2020-04-26_10h29.34.803,TranslationElicitationSpa,3.2.4,MacIntel,60,,,,,,,,,,,,,,,A,2.757000208,ESPONKA,,,,,,,131,esponja,Catalan,Sounds/cat_esponja.wav,,1,0,80,26,1,79
67126,,,,,,,,,,,,,,,,,,,,2020-04-26_10h29.34.803,TranslationElicitationSpa,3.2.4,MacIntel,60,,,,,,,,,,,,,,,,2.757000208,,,,,,,,131,esponja,Catalan,Sounds/cat_esponja.wav,,1,0,80,26,1,79
67126,,,,,,,,,,,,,,,,,,,,2020-04-26_10h29.34.803,TranslationElicitationSpa,3.2.4,MacIntel,60,,,,,,,,,,,,,,,,,,,,,,,,131,esponja,Catalan,Sounds/cat_esponja.wav,,1,0,80,26,1,79
67126,,,,,,,,,,,,,,,,,,,,2020-04-26_10h29.34.803,TranslationElicitationSpa,3.2.4,MacIntel,60,,,,,,,,,,,,,,,C,1.736999989,C,,,,,,,173,porc,Catalan,Sounds/cat_porc.wav,,1,0,80,65,1,79
67126,,,,,,,,,,,,,,,,,,,,2020-04-26_10h29.34.803,TranslationElicitationSpa,3.2.4,MacIntel,60,,,,,,,,,,,,,,,E,1.804000139,CE,,,,,,,173,porc,Catalan,Sounds/cat_porc.wav,,1,0,80,65,1,79
67126,,,,,,,,,,,,,,,,,,,,2020-04-26_10h29.34.803,TranslationElicitationSpa,3.2.4,MacIntel,60,,,,,,,,,,,,,,,R,1.921000004,CER,,,,,,,173,porc,Catalan,Sounds/cat_porc.wav,,1,0,80,65,1,79
67126,,,,,,,,,,,,,,,,,,,,2020-04-26_10h29.34.803,TranslationElicitationSpa,3.2.4,MacIntel,60,,,,,,,,,,,,,,,D,2.088000059,CERD,,,,,,,173,porc,Catalan,Sounds/cat_porc.wav,,1,0,80,65,1,79
67126,,,,,,,,,,,,,,,,,,,,2020-04-26_10h29.34.803,TranslationElicitationSpa,3.2.4,MacIntel,60,,,,,,,,,,,,,,,O,2.17200017,CERDO,,,,,,,173,porc,Catalan,Sounds/cat_porc.wav,,1,0,80,65,1,79
67126,,,,,,,,,,,,,,,,,,,,2020-04-26_10h29.34.803,TranslationElicitationSpa,3.2.4,MacIntel,60,,,,,,,,,,,,,,,,2.17200017,,,,,,,,173,porc,Catalan,Sounds/cat_porc.wav,,1,0,80,65,1,79
67126,,,,,,,,,,,,,,,,,,,,2020-04-26_10h29.34.803,TranslationElicitationSpa,3.2.4,MacIntel,60,,,,,,,,,,,,,,,,,,,,,,,,173,porc,Catalan,Sounds/cat_porc.wav,,1,0,80,65,1,79
67126,,,,,,,,,,,,,,,,,,,,2020-04-26_10h29.34.803,TranslationElicitationSpa,3.2.4,MacIntel,60,,,,,,,,,,,,,,,T,2.141000032,T,,,,,,,136,forquilla,Catalan,Sounds/cat_forquilla.wav,,1,0,80,31,1,79
67126,,,,,,,,,,,,,,,,,,,,2020-04-26_10h29.34.803,TranslationElicitationSpa,3.2.4,MacIntel,60,,,,,,,,,,,,,,,E,2.257999897,TE,,,,,,,136,forquilla,Catalan,Sounds/cat_forquilla.wav,,1,0,80,31,1,79
67126,,,,,,,,,,,,,,,,,,,,2020-04-26_10h29.34.803,TranslationElicitationSpa,3.2.4,MacIntel,60,,,,,,,,,,,,,,,N,2.355999947,TEN,,,,,,,136,forquilla,Catalan,Sounds/cat_forquilla.wav,,1,0,80,31,1,79
67126,,,,,,,,,,,,,,,,,,,,2020-04-26_10h29.34.803,TranslationElicitationSpa,3.2.4,MacIntel,60,,,,,,,,,,,,,,,E,2.423000097,TENE,,,,,,,136,forquilla,Catalan,Sounds/cat_forquilla.wav,,1,0,80,31,1,79
67126,,,,,,,,,,,,,,,,,,,,2020-04-26_10h29.34.803,TranslationElicitationSpa,3.2.4,MacIntel,60,,,,,,,,,,,,,,,D,2.556999922,TENED,,,,,,,136,forquilla,Catalan,Sounds/cat_forquilla.wav,,1,0,80,31,1,79
67126,,,,,,,,,,,,,,,,,,,,2020-04-26_10h29.34.803,TranslationElicitationSpa,3.2.4,MacIntel,60,,,,,,,,,,,,,,,O,2.660000086,TENEDO,,,,,,,136,forquilla,Catalan,Sounds/cat_forquilla.wav,,1,0,80,31,1,79
67126,,,,,,,,,,,,,,,,,,,,2020-04-26_10h29.34.803,TranslationElicitationSpa,3.2.4,MacIntel,60,,,,,,,,,,,,,,,R,2.743000031,TENEDOR,,,,,,,136,forquilla,Catalan,Sounds/cat_forquilla.wav,,1,0,80,31,1,79
67126,,,,,,,,,,,,,,,,,,,,2020-04-26_10h29.34.803,TranslationElicitationSpa,3.2.4,MacIntel,60,,,,,,,,,,,,,,,,2.743000031,,,,,,,,136,forquilla,Catalan,Sounds/cat_forquilla.wav,,1,0,80,31,1,79
67126,,,,,,,,,,,,,,,,,,,,2020-04-26_10h29.34.803,TranslationElicitationSpa,3.2.4,MacIntel,60,,,,,,,,,,,,,,,,,,,,,,,,136,forquilla,Catalan,Sounds/cat_forquilla.wav,,1,0,80,31,1,79
67126,,,,,,,,,,,,,,,,,,,,2020-04-26_10h29.34.803,TranslationElicitationSpa,3.2.4,MacIntel,60,,,,,,,,,,,,,,,C,1.486999989,C,,,,,,,139,galleda,Catalan,Sounds/cat_galleda.wav,,1,0,80,34,1,79
67126,,,,,,,,,,,,,,,,,,,,2020-04-26_10h29.34.803,TranslationElicitationSpa,3.2.4,MacIntel,60,,,,,,,,,,,,,,,U,1.654999971,CU,,,,,,,139,galleda,Catalan,Sounds/cat_galleda.wav,,1,0,80,34,1,79
67126,,,,,,,,,,,,,,,,,,,,2020-04-26_10h29.34.803,TranslationElicitationSpa,3.2.4,MacIntel,60,,,,,,,,,,,,,,,B,1.789000034,CUB,,,,,,,139,galleda,Catalan,Sounds/cat_galleda.wav,,1,0,80,34,1,79
67126,,,,,,,,,,,,,,,,,,,,2020-04-26_10h29.34.803,TranslationElicitationSpa,3.2.4,MacIntel,60,,,,,,,,,,,,,,,O,1.996000051,CUBO,,,,,,,139,galleda,Catalan,Sounds/cat_galleda.wav,,1,0,80,34,1,79
67126,,,,,,,,,,,,,,,,,,,,2020-04-26_10h29.34.803,TranslationElicitationSpa,3.2.4,MacIntel,60,,,,,,,,,,,,,,,,1.996000051,,,,,,,,139,galleda,Catalan,Sounds/cat_galleda.wav,,1,0,80,34,1,79
67126,,,,,,,,,,,,,,,,,,,,2020-04-26_10h29.34.803,TranslationElicitationSpa,3.2.4,MacIntel,60,,,,,,,,,,,,,,,,,,,,,,,,139,galleda,Catalan,Sounds/cat_galleda.wav,,1,0,80,34,1,79
67126,,,,,,,,,,,,,,,,,,,,2020-04-26_10h29.34.803,TranslationElicitationSpa,3.2.4,MacIntel,60,,,,,,,,,,,,,,,H,1.338000059,H,,,,,,,135,formiga,Catalan,Sounds/cat_formiga.wav,,1,0,80,30,1,79
67126,,,,,,,,,,,,,,,,,,,,2020-04-26_10h29.34.803,TranslationElicitationSpa,3.2.4,MacIntel,60,,,,,,,,,,,,,,,O,1.421999931,HO,,,,,,,135,formiga,Catalan,Sounds/cat_formiga.wav,,1,0,80,30,1,79
67126,,,,,,,,,,,,,,,,,,,,2020-04-26_10h29.34.803,TranslationElicitationSpa,3.2.4,MacIntel,60,,,,,,,,,,,,,,,R,1.687999964,HOR,,,,,,,135,formiga,Catalan,Sounds/cat_formiga.wav,,1,0,80,30,1,79
67126,,,,,,,,,,,,,,,,,,,,2020-04-26_10h29.34.803,TranslationElicitationSpa,3.2.4,MacIntel,60,,,,,,,,,,,,,,,M,1.855000019,HORM,,,,,,,135,formiga,Catalan,Sounds/cat_formiga.wav,,1,0,80,30,1,79
67126,,,,,,,,,,,,,,,,,,,,2020-04-26_10h29.34.803,TranslationElicitationSpa,3.2.4,MacIntel,60,,,,,,,,,,,,,,,I,1.954999924,HORMI,,,,,,,135,formiga,Catalan,Sounds/cat_formiga.wav,,1,0,80,30,1,79
67126,,,,,,,,,,,,,,,,,,,,2020-04-26_10h29.34.803,TranslationElicitationSpa,3.2.4,MacIntel,60,,,,,,,,,,,,,,,G,2.089999914,HORMIG,,,,,,,135,formiga,Catalan,Sounds/cat_formiga.wav,,1,0,80,30,1,79
67126,,,,,,,,,,,,,,,,,,,,2020-04-26_10h29.34.803,TranslationElicitationSpa,3.2.4,MacIntel,60,,,,,,,,,,,,,,,A,2.289000034,HORMIGA,,,,,,,135,formiga,Catalan,Sounds/cat_formiga.wav,,1,0,80,30,1,79
67126,,,,,,,,,,,,,,,,,,,,2020-04-26_10h29.34.803,TranslationElicitationSpa,3.2.4,MacIntel,60,,,,,,,,,,,,,,,,2.289000034,,,,,,,,135,formiga,Catalan,Sounds/cat_formiga.wav,,1,0,80,30,1,79
67126,,,,,,,,,,,,,,,,,,,,2020-04-26_10h29.34.803,TranslationElicitationSpa,3.2.4,MacIntel,60,,,,,,,,,,,,,,,,,,,,,,,,135,formiga,Catalan,Sounds/cat_formiga.wav,,1,0,80,30,1,79
67126,,,,,,,,,,,,,,,,,,,,2020-04-26_10h29.34.803,TranslationElicitationSpa,3.2.4,MacIntel,60,,,,,,,,,,,,,,,T,1.669999838,T,,,,,,,183,tren,Catalan,Sounds/cat_tren.wav,,1,0,80,74,1,79
67126,,,,,,,,,,,,,,,,,,,,2020-04-26_10h29.34.803,TranslationElicitationSpa,3.2.4,MacIntel,60,,,,,,,,,,,,,,,R,1.753999949,TR,,,,,,,183,tren,Catalan,Sounds/cat_tren.wav,,1,0,80,74,1,79
67126,,,,,,,,,,,,,,,,,,,,2020-04-26_10h29.34.803,TranslationElicitationSpa,3.2.4,MacIntel,60,,,,,,,,,,,,,,,E,1.786999941,TRE,,,,,,,183,tren,Catalan,Sounds/cat_tren.wav,,1,0,80,74,1,79
67126,,,,,,,,,,,,,,,,,,,,2020-04-26_10h29.34.803,TranslationElicitationSpa,3.2.4,MacIntel,60,,,,,,,,,,,,,,,N,2.020999908,TREN,,,,,,,183,tren,Catalan,Sounds/cat_tren.wav,,1,0,80,74,1,79
67126,,,,,,,,,,,,,,,,,,,,2020-04-26_10h29.34.803,TranslationElicitationSpa,3.2.4,MacIntel,60,,,,,,,,,,,,,,,,2.020999908,,,,,,,,183,tren,Catalan,Sounds/cat_tren.wav,,1,0,80,74,1,79
67126,,,,,,,,,,,,,,,,,,,,2020-04-26_10h29.34.803,TranslationElicitationSpa,3.2.4,MacIntel,60,,,,,,,,,,,,,,,,,,,,,,,,183,tren,Catalan,Sounds/cat_tren.wav,,1,0,80,74,1,79
67126,,,,,,,,,,,,,,,,,,,,2020-04-26_10h29.34.803,TranslationElicitationSpa,3.2.4,MacIntel,60,,,,,,,,,,,,,,,J,1.720000029,J,,,,,,,142,girafa,Catalan,Sounds/cat_girafa.wav,,1,0,80,37,1,79
67126,,,,,,,,,,,,,,,,,,,,2020-04-26_10h29.34.803,TranslationElicitationSpa,3.2.4,MacIntel,60,,,,,,,,,,,,,,,I,1.786999941,JI,,,,,,,142,girafa,Catalan,Sounds/cat_girafa.wav,,1,0,80,37,1,79
67126,,,,,,,,,,,,,,,,,,,,2020-04-26_10h29.34.803,TranslationElicitationSpa,3.2.4,MacIntel,60,,,,,,,,,,,,,,,R,2.055999994,JIR,,,,,,,142,girafa,Catalan,Sounds/cat_girafa.wav,,1,0,80,37,1,79
67126,,,,,,,,,,,,,,,,,,,,2020-04-26_10h29.34.803,TranslationElicitationSpa,3.2.4,MacIntel,60,,,,,,,,,,,,,,,A,2.20600009,JIRA,,,,,,,142,girafa,Catalan,Sounds/cat_girafa.wav,,1,0,80,37,1,79
67126,,,,,,,,,,,,,,,,,,,,2020-04-26_10h29.34.803,TranslationElicitationSpa,3.2.4,MacIntel,60,,,,,,,,,,,,,,,F,2.338999987,JIRAF,,,,,,,142,girafa,Catalan,Sounds/cat_girafa.wav,,1,0,80,37,1,79
67126,,,,,,,,,,,,,,,,,,,,2020-04-26_10h29.34.803,TranslationElicitationSpa,3.2.4,MacIntel,60,,,,,,,,,,,,,,,A,2.43900013,JIRAFA,,,,,,,142,girafa,Catalan,Sounds/cat_girafa.wav,,1,0,80,37,1,79
67126,,,,,,,,,,,,,,,,,,,,2020-04-26_10h29.34.803,TranslationElicitationSpa,3.2.4,MacIntel,60,,,,,,,,,,,,,,,,2.43900013,,,,,,,,142,girafa,Catalan,Sounds/cat_girafa.wav,,1,0,80,37,1,79
67126,,,,,,,,,,,,,,,,,,,,2020-04-26_10h29.34.803,TranslationElicitationSpa,3.2.4,MacIntel,60,,,,,,,,,,,,,,,,,,,,,,,,142,girafa,Catalan,Sounds/cat_girafa.wav,,1,0,80,37,1,79
67126,,,,,,,,,,,,,,,,,,,,2020-04-26_10h29.34.803,TranslationElicitationSpa,3.2.4,MacIntel,60,,,,,,,,,,,,,,,E,1.601999998,E,,,,,,,115,bolet,Catalan,Sounds/cat_bolet.wav,,1,0,80,10,1,79
67126,,,,,,,,,,,,,,,,,,,,2020-04-26_10h29.34.803,TranslationElicitationSpa,3.2.4,MacIntel,60,,,,,,,,,,,,,,,T,1.753000021,ET,,,,,,,115,bolet,Catalan,Sounds/cat_bolet.wav,,1,0,80,10,1,79
67126,,,,,,,,,,,,,,,,,,,,2020-04-26_10h29.34.803,TranslationElicitationSpa,3.2.4,MacIntel,60,,,,,,,,,,,,,,,A,1.988999844,ETA,,,,,,,115,bolet,Catalan,Sounds/cat_bolet.wav,,1,0,80,10,1,79
67126,,,,,,,,,,,,,,,,,,,,2020-04-26_10h29.34.803,TranslationElicitationSpa,3.2.4,MacIntel,60,,,,,,,,,,,,,,,,1.988999844,ET,,,,,,,115,bolet,Catalan,Sounds/cat_bolet.wav,yes,1,0,80,10,1,79
67126,,,,,,,,,,,,,,,,,,,,2020-04-26_10h29.34.803,TranslationElicitationSpa,3.2.4,MacIntel,60,,,,,,,,,,,,,,,,1.988999844,E,,,,,,,115,bolet,Catalan,Sounds/cat_bolet.wav,yes,1,0,80,10,1,79
67126,,,,,,,,,,,,,,,,,,,,2020-04-26_10h29.34.803,TranslationElicitationSpa,3.2.4,MacIntel,60,,,,,,,,,,,,,,,,1.988999844,,,,,,,,115,bolet,Catalan,Sounds/cat_bolet.wav,yes,1,0,80,10,1,79
67126,,,,,,,,,,,,,,,,,,,,2020-04-26_10h29.34.803,TranslationElicitationSpa,3.2.4,MacIntel,60,,,,,,,,,,,,,,,,1.988999844,,,,,,,,115,bolet,Catalan,Sounds/cat_bolet.wav,yes,1,0,80,10,1,79
67126,,,,,,,,,,,,,,,,,,,,2020-04-26_10h29.34.803,TranslationElicitationSpa,3.2.4,MacIntel,60,,,,,,,,,,,,,,,S,2.654999971,S,,,,,,,115,bolet,Catalan,Sounds/cat_bolet.wav,,1,0,80,10,1,79
67126,,,,,,,,,,,,,,,,,,,,2020-04-26_10h29.34.803,TranslationElicitationSpa,3.2.4,MacIntel,60,,,,,,,,,,,,,,,E,2.990999937,SE,,,,,,,115,bolet,Catalan,Sounds/cat_bolet.wav,,1,0,80,10,1,79
67126,,,,,,,,,,,,,,,,,,,,2020-04-26_10h29.34.803,TranslationElicitationSpa,3.2.4,MacIntel,60,,,,,,,,,,,,,,,T,3.125,SET,,,,,,,115,bolet,Catalan,Sounds/cat_bolet.wav,,1,0,80,10,1,79
67126,,,,,,,,,,,,,,,,,,,,2020-04-26_10h29.34.803,TranslationElicitationSpa,3.2.4,MacIntel,60,,,,,,,,,,,,,,,A,3.457999945,SETA,,,,,,,115,bolet,Catalan,Sounds/cat_bolet.wav,,1,0,80,10,1,79
67126,,,,,,,,,,,,,,,,,,,,2020-04-26_10h29.34.803,TranslationElicitationSpa,3.2.4,MacIntel,60,,,,,,,,,,,,,,,,3.457999945,,,,,,,,115,bolet,Catalan,Sounds/cat_bolet.wav,,1,0,80,10,1,79
67126,,,,,,,,,,,,,,,,,,,,2020-04-26_10h29.34.803,TranslationElicitationSpa,3.2.4,MacIntel,60,,,,,,,,,,,,,,,,,,,,,,,,115,bolet,Catalan,Sounds/cat_bolet.wav,,1,0,80,10,1,79
67126,,,,,,,,,,,,,,,,,,,,2020-04-26_10h29.34.803,TranslationElicitationSpa,3.2.4,MacIntel,60,,,,,,,,,,,,,,,M,1.638000011,M,,,,,,,152,ma,Catalan,Sounds/cat_ma.wav,,1,0,80,46,1,79
67126,,,,,,,,,,,,,,,,,,,,2020-04-26_10h29.34.803,TranslationElicitationSpa,3.2.4,MacIntel,60,,,,,,,,,,,,,,,A,1.753000021,MA,,,,,,,152,ma,Catalan,Sounds/cat_ma.wav,,1,0,80,46,1,79
67126,,,,,,,,,,,,,,,,,,,,2020-04-26_10h29.34.803,TranslationElicitationSpa,3.2.4,MacIntel,60,,,,,,,,,,,,,,,N,1.855000019,MAN,,,,,,,152,ma,Catalan,Sounds/cat_ma.wav,,1,0,80,46,1,79
67126,,,,,,,,,,,,,,,,,,,,2020-04-26_10h29.34.803,TranslationElicitationSpa,3.2.4,MacIntel,60,,,,,,,,,,,,,,,O,1.93900013,MANO,,,,,,,152,ma,Catalan,Sounds/cat_ma.wav,,1,0,80,46,1,79
67126,,,,,,,,,,,,,,,,,,,,2020-04-26_10h29.34.803,TranslationElicitationSpa,3.2.4,MacIntel,60,,,,,,,,,,,,,,,,1.93900013,,,,,,,,152,ma,Catalan,Sounds/cat_ma.wav,,1,0,80,46,1,79
67126,,,,,,,,,,,,,,,,,,,,2020-04-26_10h29.34.803,TranslationElicitationSpa,3.2.4,MacIntel,60,,,,,,,,,,,,,,,,,,,,,,,,152,ma,Catalan,Sounds/cat_ma.wav,,1,0,80,46,1,79
67126,,,,,,,,,,,,,,,,,,,,2020-04-26_10h29.34.803,TranslationElicitationSpa,3.2.4,MacIntel,60,,,,,,,,,,,,,,,F,1.371000051,F,,,,,,,134,flor,Catalan,Sounds/cat_flor.wav,,1,0,80,29,1,79
67126,,,,,,,,,,,,,,,,,,,,2020-04-26_10h29.34.803,TranslationElicitationSpa,3.2.4,MacIntel,60,,,,,,,,,,,,,,,L,1.437999964,FL,,,,,,,134,flor,Catalan,Sounds/cat_flor.wav,,1,0,80,29,1,79
67126,,,,,,,,,,,,,,,,,,,,2020-04-26_10h29.34.803,TranslationElicitationSpa,3.2.4,MacIntel,60,,,,,,,,,,,,,,,O,1.552999973,FLO,,,,,,,134,flor,Catalan,Sounds/cat_flor.wav,,1,0,80,29,1,79
67126,,,,,,,,,,,,,,,,,,,,2020-04-26_10h29.34.803,TranslationElicitationSpa,3.2.4,MacIntel,60,,,,,,,,,,,,,,,R,1.687000036,FLOR,,,,,,,134,flor,Catalan,Sounds/cat_flor.wav,,1,0,80,29,1,79
67126,,,,,,,,,,,,,,,,,,,,2020-04-26_10h29.34.803,TranslationElicitationSpa,3.2.4,MacIntel,60,,,,,,,,,,,,,,,,1.687000036,,,,,,,,134,flor,Catalan,Sounds/cat_flor.wav,,1,0,80,29,1,79
67126,,,,,,,,,,,,,,,,,,,,2020-04-26_10h29.34.803,TranslationElicitationSpa,3.2.4,MacIntel,60,,,,,,,,,,,,,,,,,,,,,,,,134,flor,Catalan,Sounds/cat_flor.wav,,1,0,80,29,1,79
67126,,,,,,,,,,,,,,,,,,,,2020-04-26_10h29.34.803,TranslationElicitationSpa,3.2.4,MacIntel,60,,,,,,,,,,,,,,,M,1.201999903,M,,,,,,,155,moneda,Catalan,Sounds/cat_moneda.wav,,1,0,80,49,1,79
67126,,,,,,,,,,,,,,,,,,,,2020-04-26_10h29.34.803,TranslationElicitationSpa,3.2.4,MacIntel,60,,,,,,,,,,,,,,,O,1.267999887,MO,,,,,,,155,moneda,Catalan,Sounds/cat_moneda.wav,,1,0,80,49,1,79
67126,,,,,,,,,,,,,,,,,,,,2020-04-26_10h29.34.803,TranslationElicitationSpa,3.2.4,MacIntel,60,,,,,,,,,,,,,,,N,1.385999918,MON,,,,,,,155,moneda,Catalan,Sounds/cat_moneda.wav,,1,0,80,49,1,79
67126,,,,,,,,,,,,,,,,,,,,2020-04-26_10h29.34.803,TranslationElicitationSpa,3.2.4,MacIntel,60,,,,,,,,,,,,,,,E,1.503999949,MONE,,,,,,,155,moneda,Catalan,Sounds/cat_moneda.wav,,1,0,80,49,1,79
67126,,,,,,,,,,,,,,,,,,,,2020-04-26_10h29.34.803,TranslationElicitationSpa,3.2.4,MacIntel,60,,,,,,,,,,,,,,,D,1.66899991,MONED,,,,,,,155,moneda,Catalan,Sounds/cat_moneda.wav,,1,0,80,49,1,79
67126,,,,,,,,,,,,,,,,,,,,2020-04-26_10h29.34.803,TranslationElicitationSpa,3.2.4,MacIntel,60,,,,,,,,,,,,,,,A,1.736000061,MONEDA,,,,,,,155,moneda,Catalan,Sounds/cat_moneda.wav,,1,0,80,49,1,79
67126,,,,,,,,,,,,,,,,,,,,2020-04-26_10h29.34.803,TranslationElicitationSpa,3.2.4,MacIntel,60,,,,,,,,,,,,,,,,1.736000061,,,,,,,,155,moneda,Catalan,Sounds/cat_moneda.wav,,1,0,80,49,1,79
67126,,,,,,,,,,,,,,,,,,,,2020-04-26_10h29.34.803,TranslationElicitationSpa,3.2.4,MacIntel,60,,,,,,,,,,,,,,,,,,,,,,,,155,moneda,Catalan,Sounds/cat_moneda.wav,,1,0,80,49,1,79
67126,,,,,,,,,,,,,,,,,,,,2020-04-26_10h29.34.803,TranslationElicitationSpa,3.2.4,MacIntel,60,,,,,,,,,,,,,,,N,2.10800004,N,,,,,,,178,taronja,Catalan,Sounds/cat_taronja.wav,,1,0,80,70,1,79
67126,,,,,,,,,,,,,,,,,,,,2020-04-26_10h29.34.803,TranslationElicitationSpa,3.2.4,MacIntel,60,,,,,,,,,,,,,,,A,2.207000017,NA,,,,,,,178,taronja,Catalan,Sounds/cat_taronja.wav,,1,0,80,70,1,79
67126,,,,,,,,,,,,,,,,,,,,2020-04-26_10h29.34.803,TranslationElicitationSpa,3.2.4,MacIntel,60,,,,,,,,,,,,,,,R,2.523999929,NAR,,,,,,,178,taronja,Catalan,Sounds/cat_taronja.wav,,1,0,80,70,1,79
67126,,,,,,,,,,,,,,,,,,,,2020-04-26_10h29.34.803,TranslationElicitationSpa,3.2.4,MacIntel,60,,,,,,,,,,,,,,,A,2.710000038,NARA,,,,,,,178,taronja,Catalan,Sounds/cat_taronja.wav,,1,0,80,70,1,79
67126,,,,,,,,,,,,,,,,,,,,2020-04-26_10h29.34.803,TranslationElicitationSpa,3.2.4,MacIntel,60,,,,,,,,,,,,,,,N,2.842000008,NARAN,,,,,,,178,taronja,Catalan,Sounds/cat_taronja.wav,,1,0,80,70,1,79
67126,,,,,,,,,,,,,,,,,,,,2020-04-26_10h29.34.803,TranslationElicitationSpa,3.2.4,MacIntel,60,,,,,,,,,,,,,,,J,3.292999983,NARANJ,,,,,,,178,taronja,Catalan,Sounds/cat_taronja.wav,,1,0,80,70,1,79
67126,,,,,,,,,,,,,,,,,,,,2020-04-26_10h29.34.803,TranslationElicitationSpa,3.2.4,MacIntel,60,,,,,,,,,,,,,,,A,3.42599988,NARANJA,,,,,,,178,taronja,Catalan,Sounds/cat_taronja.wav,,1,0,80,70,1,79
67126,,,,,,,,,,,,,,,,,,,,2020-04-26_10h29.34.803,TranslationElicitationSpa,3.2.4,MacIntel,60,,,,,,,,,,,,,,,,3.42599988,,,,,,,,178,taronja,Catalan,Sounds/cat_taronja.wav,,1,0,80,70,1,79
67126,,,,,,,,,,,,,,,,,,,,2020-04-26_10h29.34.803,TranslationElicitationSpa,3.2.4,MacIntel,60,,,,,,,,,,,,,,,,,,,,,,,,178,taronja,Catalan,Sounds/cat_taronja.wav,,1,0,80,70,1,79
67126,,,,,,,,,,,,,,,,,,,,2020-04-26_10h29.34.803,TranslationElicitationSpa,3.2.4,MacIntel,60,,,,,,,,,,,,,,,G,1.621000051,G,,,,,,,146,guitarra,Catalan,Sounds/cat_guitarra.wav,,1,0,80,41,1,79
67126,,,,,,,,,,,,,,,,,,,,2020-04-26_10h29.34.803,TranslationElicitationSpa,3.2.4,MacIntel,60,,,,,,,,,,,,,,,U,1.655999899,GU,,,,,,,146,guitarra,Catalan,Sounds/cat_guitarra.wav,,1,0,80,41,1,79
67126,,,,,,,,,,,,,,,,,,,,2020-04-26_10h29.34.803,TranslationElicitationSpa,3.2.4,MacIntel,60,,,,,,,,,,,,,,,I,1.703999996,GUI,,,,,,,146,guitarra,Catalan,Sounds/cat_guitarra.wav,,1,0,80,41,1,79
67126,,,,,,,,,,,,,,,,,,,,2020-04-26_10h29.34.803,TranslationElicitationSpa,3.2.4,MacIntel,60,,,,,,,,,,,,,,,T,1.905999899,GUIT,,,,,,,146,guitarra,Catalan,Sounds/cat_guitarra.wav,,1,0,80,41,1,79
67126,,,,,,,,,,,,,,,,,,,,2020-04-26_10h29.34.803,TranslationElicitationSpa,3.2.4,MacIntel,60,,,,,,,,,,,,,,,A,2.039000034,GUITA,,,,,,,146,guitarra,Catalan,Sounds/cat_guitarra.wav,,1,0,80,41,1,79
67126,,,,,,,,,,,,,,,,,,,,2020-04-26_10h29.34.803,TranslationElicitationSpa,3.2.4,MacIntel,60,,,,,,,,,,,,,,,R,2.124000072,GUITAR,,,,,,,146,guitarra,Catalan,Sounds/cat_guitarra.wav,,1,0,80,41,1,79
67126,,,,,,,,,,,,,,,,,,,,2020-04-26_10h29.34.803,TranslationElicitationSpa,3.2.4,MacIntel,60,,,,,,,,,,,,,,,R,2.22300005,GUITARR,,,,,,,146,guitarra,Catalan,Sounds/cat_guitarra.wav,,1,0,80,41,1,79
67126,,,,,,,,,,,,,,,,,,,,2020-04-26_10h29.34.803,TranslationElicitationSpa,3.2.4,MacIntel,60,,,,,,,,,,,,,,,A,2.389999866,GUITARRA,,,,,,,146,guitarra,Catalan,Sounds/cat_guitarra.wav,,1,0,80,41,1,79
67126,,,,,,,,,,,,,,,,,,,,2020-04-26_10h29.34.803,TranslationElicitationSpa,3.2.4,MacIntel,60,,,,,,,,,,,,,,,,2.389999866,,,,,,,,146,guitarra,Catalan,Sounds/cat_guitarra.wav,,1,0,80,41,1,79
67126,,,,,,,,,,,,,,,,,,,,2020-04-26_10h29.34.803,TranslationElicitationSpa,3.2.4,MacIntel,60,,,,,,,,,,,,,,,,,,,,,,,,146,guitarra,Catalan,Sounds/cat_guitarra.wav,,1,0,80,41,1,79
67126,,,,,,,,,,,,,,,,,,,,2020-04-26_10h29.34.803,TranslationElicitationSpa,3.2.4,MacIntel,60,,,,,,,,,,,,,,,G,1.703999996,G,,,,,,,140,gat,Catalan,Sounds/cat_gat.wav,,1,0,80,35,1,79
67126,,,,,,,,,,,,,,,,,,,,2020-04-26_10h29.34.803,TranslationElicitationSpa,3.2.4,MacIntel,60,,,,,,,,,,,,,,,A,1.905999899,GA,,,,,,,140,gat,Catalan,Sounds/cat_gat.wav,,1,0,80,35,1,79
67126,,,,,,,,,,,,,,,,,,,,2020-04-26_10h29.34.803,TranslationElicitationSpa,3.2.4,MacIntel,60,,,,,,,,,,,,,,,T,2.071000099,GAT,,,,,,,140,gat,Catalan,Sounds/cat_gat.wav,,1,0,80,35,1,79
67126,,,,,,,,,,,,,,,,,,,,2020-04-26_10h29.34.803,TranslationElicitationSpa,3.2.4,MacIntel,60,,,,,,,,,,,,,,,O,2.204999924,GATO,,,,,,,140,gat,Catalan,Sounds/cat_gat.wav,,1,0,80,35,1,79
67126,,,,,,,,,,,,,,,,,,,,2020-04-26_10h29.34.803,TranslationElicitationSpa,3.2.4,MacIntel,60,,,,,,,,,,,,,,,,2.204999924,,,,,,,,140,gat,Catalan,Sounds/cat_gat.wav,,1,0,80,35,1,79
67126,,,,,,,,,,,,,,,,,,,,2020-04-26_10h29.34.803,TranslationElicitationSpa,3.2.4,MacIntel,60,,,,,,,,,,,,,,,,,,,,,,,,140,gat,Catalan,Sounds/cat_gat.wav,,1,0,80,35,1,79
67126,,,,,,,,,,,,,,,,,,,,2020-04-26_10h29.34.803,TranslationElicitationSpa,3.2.4,MacIntel,60,,,,,,,,,,,,,,,D,1.770999908,D,,,,,,,129,dit,Catalan,Sounds/cat_dit.wav,,1,0,80,24,1,79
67126,,,,,,,,,,,,,,,,,,,,2020-04-26_10h29.34.803,TranslationElicitationSpa,3.2.4,MacIntel,60,,,,,,,,,,,,,,,E,1.837999821,DE,,,,,,,129,dit,Catalan,Sounds/cat_dit.wav,,1,0,80,24,1,79
67126,,,,,,,,,,,,,,,,,,,,2020-04-26_10h29.34.803,TranslationElicitationSpa,3.2.4,MacIntel,60,,,,,,,,,,,,,,,D,2.004999876,DED,,,,,,,129,dit,Catalan,Sounds/cat_dit.wav,,1,0,80,24,1,79
67126,,,,,,,,,,,,,,,,,,,,2020-04-26_10h29.34.803,TranslationElicitationSpa,3.2.4,MacIntel,60,,,,,,,,,,,,,,,O,2.122999907,DEDO,,,,,,,129,dit,Catalan,Sounds/cat_dit.wav,,1,0,80,24,1,79
67126,,,,,,,,,,,,,,,,,,,,2020-04-26_10h29.34.803,TranslationElicitationSpa,3.2.4,MacIntel,60,,,,,,,,,,,,,,,,2.122999907,,,,,,,,129,dit,Catalan,Sounds/cat_dit.wav,,1,0,80,24,1,79
67126,,,,,,,,,,,,,,,,,,,,2020-04-26_10h29.34.803,TranslationElicitationSpa,3.2.4,MacIntel,60,,,,,,,,,,,,,,,,,,,,,,,,129,dit,Catalan,Sounds/cat_dit.wav,,1,0,80,24,1,79
67126,,,,,,,,,,,,,,,,,,,,2020-04-26_10h29.34.803,TranslationElicitationSpa,3.2.4,MacIntel,60,,,,,,,,,,,,,,,E,1.554999828,E,,,,,,,107,amanida,Catalan,Sounds/cat_amanida.wav,,1,0,80,3,1,79
67126,,,,,,,,,,,,,,,,,,,,2020-04-26_10h29.34.803,TranslationElicitationSpa,3.2.4,MacIntel,60,,,,,,,,,,,,,,,N,1.655999899,EN,,,,,,,107,amanida,Catalan,Sounds/cat_amanida.wav,,1,0,80,3,1,79
67126,,,,,,,,,,,,,,,,,,,,2020-04-26_10h29.34.803,TranslationElicitationSpa,3.2.4,MacIntel,60,,,,,,,,,,,,,,,S,1.773000002,ENS,,,,,,,107,amanida,Catalan,Sounds/cat_amanida.wav,,1,0,80,3,1,79
67126,,,,,,,,,,,,,,,,,,,,2020-04-26_10h29.34.803,TranslationElicitationSpa,3.2.4,MacIntel,60,,,,,,,,,,,,,,,A,1.855999947,ENSA,,,,,,,107,amanida,Catalan,Sounds/cat_amanida.wav,,1,0,80,3,1,79
67126,,,,,,,,,,,,,,,,,,,,2020-04-26_10h29.34.803,TranslationElicitationSpa,3.2.4,MacIntel,60,,,,,,,,,,,,,,,L,1.955999851,ENSAL,,,,,,,107,amanida,Catalan,Sounds/cat_amanida.wav,,1,0,80,3,1,79
67126,,,,,,,,,,,,,,,,,,,,2020-04-26_10h29.34.803,TranslationElicitationSpa,3.2.4,MacIntel,60,,,,,,,,,,,,,,,A,2.027999878,ENSALA,,,,,,,107,amanida,Catalan,Sounds/cat_amanida.wav,,1,0,80,3,1,79
67126,,,,,,,,,,,,,,,,,,,,2020-04-26_10h29.34.803,TranslationElicitationSpa,3.2.4,MacIntel,60,,,,,,,,,,,,,,,D,2.177999973,ENSALAD,,,,,,,107,amanida,Catalan,Sounds/cat_amanida.wav,,1,0,80,3,1,79
67126,,,,,,,,,,,,,,,,,,,,2020-04-26_10h29.34.803,TranslationElicitationSpa,3.2.4,MacIntel,60,,,,,,,,,,,,,,,A,2.292000055,ENSALADA,,,,,,,107,amanida,Catalan,Sounds/cat_amanida.wav,,1,0,80,3,1,79
67126,,,,,,,,,,,,,,,,,,,,2020-04-26_10h29.34.803,TranslationElicitationSpa,3.2.4,MacIntel,60,,,,,,,,,,,,,,,,2.292000055,,,,,,,,107,amanida,Catalan,Sounds/cat_amanida.wav,,1,0,80,3,1,79
67126,,,,,,,,,,,,,,,,,,,,2020-04-26_10h29.34.803,TranslationElicitationSpa,3.2.4,MacIntel,60,,,,,,,,,,,,,,,,,,,,,,,,107,amanida,Catalan,Sounds/cat_amanida.wav,,1,0,80,3,1,79
67126,,,,,,,,,,,,,,,,,,,,2020-04-26_10h29.34.803,TranslationElicitationSpa,3.2.4,MacIntel,60,,,,,,,,,,,,,,,G,1.685000181,G,,,,,,,128,cuc,Catalan,Sounds/cat_cuc.wav,,1,0,80,23,1,79
67126,,,,,,,,,,,,,,,,,,,,2020-04-26_10h29.34.803,TranslationElicitationSpa,3.2.4,MacIntel,60,,,,,,,,,,,,,,,U,1.769999981,GU,,,,,,,128,cuc,Catalan,Sounds/cat_cuc.wav,,1,0,80,23,1,79
67126,,,,,,,,,,,,,,,,,,,,2020-04-26_10h29.34.803,TranslationElicitationSpa,3.2.4,MacIntel,60,,,,,,,,,,,,,,,S,1.886000156,GUS,,,,,,,128,cuc,Catalan,Sounds/cat_cuc.wav,,1,0,80,23,1,79
67126,,,,,,,,,,,,,,,,,,,,2020-04-26_10h29.34.803,TranslationElicitationSpa,3.2.4,MacIntel,60,,,,,,,,,,,,,,,A,1.986000061,GUSA,,,,,,,128,cuc,Catalan,Sounds/cat_cuc.wav,,1,0,80,23,1,79
67126,,,,,,,,,,,,,,,,,,,,2020-04-26_10h29.34.803,TranslationElicitationSpa,3.2.4,MacIntel,60,,,,,,,,,,,,,,,N,2.085999966,GUSAN,,,,,,,128,cuc,Catalan,Sounds/cat_cuc.wav,,1,0,80,23,1,79
67126,,,,,,,,,,,,,,,,,,,,2020-04-26_10h29.34.803,TranslationElicitationSpa,3.2.4,MacIntel,60,,,,,,,,,,,,,,,O,2.171000004,GUSANO,,,,,,,128,cuc,Catalan,Sounds/cat_cuc.wav,,1,0,80,23,1,79
67126,,,,,,,,,,,,,,,,,,,,2020-04-26_10h29.34.803,TranslationElicitationSpa,3.2.4,MacIntel,60,,,,,,,,,,,,,,,,2.171000004,,,,,,,,128,cuc,Catalan,Sounds/cat_cuc.wav,,1,0,80,23,1,79
67126,,,,,,,,,,,,,,,,,,,,2020-04-26_10h29.34.803,TranslationElicitationSpa,3.2.4,MacIntel,60,,,,,,,,,,,,,,,,,,,,,,,,128,cuc,Catalan,Sounds/cat_cuc.wav,,1,0,80,23,1,79
67126,,,,,,,,,,,,,,,,,,,,2020-04-26_10h29.34.803,TranslationElicitationSpa,3.2.4,MacIntel,60,,,,,,,,,,,,,,,B,1.336999893,B,,,,,,,108,ampolla,Catalan,Sounds/cat_ampolla.wav,,1,0,80,4,1,79
67126,,,,,,,,,,,,,,,,,,,,2020-04-26_10h29.34.803,TranslationElicitationSpa,3.2.4,MacIntel,60,,,,,,,,,,,,,,,O,1.453999996,BO,,,,,,,108,ampolla,Catalan,Sounds/cat_ampolla.wav,,1,0,80,4,1,79
67126,,,,,,,,,,,,,,,,,,,,2020-04-26_10h29.34.803,TranslationElicitationSpa,3.2.4,MacIntel,60,,,,,,,,,,,,,,,T,1.553999901,BOT,,,,,,,108,ampolla,Catalan,Sounds/cat_ampolla.wav,,1,0,80,4,1,79
67126,,,,,,,,,,,,,,,,,,,,2020-04-26_10h29.34.803,TranslationElicitationSpa,3.2.4,MacIntel,60,,,,,,,,,,,,,,,E,1.655999899,BOTE,,,,,,,108,ampolla,Catalan,Sounds/cat_ampolla.wav,,1,0,80,4,1,79
67126,,,,,,,,,,,,,,,,,,,,2020-04-26_10h29.34.803,TranslationElicitationSpa,3.2.4,MacIntel,60,,,,,,,,,,,,,,,L,1.772000074,BOTEL,,,,,,,108,ampolla,Catalan,Sounds/cat_ampolla.wav,,1,0,80,4,1,79
67126,,,,,,,,,,,,,,,,,,,,2020-04-26_10h29.34.803,TranslationElicitationSpa,3.2.4,MacIntel,60,,,,,,,,,,,,,,,L,1.871999979,BOTELL,,,,,,,108,ampolla,Catalan,Sounds/cat_ampolla.wav,,1,0,80,4,1,79
67126,,,,,,,,,,,,,,,,,,,,2020-04-26_10h29.34.803,TranslationElicitationSpa,3.2.4,MacIntel,60,,,,,,,,,,,,,,,A,2.022000074,BOTELLA,,,,,,,108,ampolla,Catalan,Sounds/cat_ampolla.wav,,1,0,80,4,1,79
67126,,,,,,,,,,,,,,,,,,,,2020-04-26_10h29.34.803,TranslationElicitationSpa,3.2.4,MacIntel,60,,,,,,,,,,,,,,,,2.022000074,,,,,,,,108,ampolla,Catalan,Sounds/cat_ampolla.wav,,1,0,80,4,1,79
67126,,,,,,,,,,,,,,,,,,,,2020-04-26_10h29.34.803,TranslationElicitationSpa,3.2.4,MacIntel,60,,,,,,,,,,,,,,,,,,,,,,,,108,ampolla,Catalan,Sounds/cat_ampolla.wav,,1,0,80,4,1,79
67126,,,,,,,,,,,,,,,,,,,,2020-04-26_10h29.34.803,TranslationElicitationSpa,3.2.4,MacIntel,60,,,,,,,,,,,,,,,A,1.604000092,A,,,,,,,133,estruc,Catalan,Sounds/cat_estruc.wav,,1,0,80,28,1,79
67126,,,,,,,,,,,,,,,,,,,,2020-04-26_10h29.34.803,TranslationElicitationSpa,3.2.4,MacIntel,60,,,,,,,,,,,,,,,V,1.805000067,AV,,,,,,,133,estruc,Catalan,Sounds/cat_estruc.wav,,1,0,80,28,1,79
67126,,,,,,,,,,,,,,,,,,,,2020-04-26_10h29.34.803,TranslationElicitationSpa,3.2.4,MacIntel,60,,,,,,,,,,,,,,,E,1.856999874,AVE,,,,,,,133,estruc,Catalan,Sounds/cat_estruc.wav,,1,0,80,28,1,79
67126,,,,,,,,,,,,,,,,,,,,2020-04-26_10h29.34.803,TranslationElicitationSpa,3.2.4,MacIntel,60,,,,,,,,,,,,,,,S,2.006000042,AVES,,,,,,,133,estruc,Catalan,Sounds/cat_estruc.wav,,1,0,80,28,1,79
67126,,,,,,,,,,,,,,,,,,,,2020-04-26_10h29.34.803,TranslationElicitationSpa,3.2.4,MacIntel,60,,,,,,,,,,,,,,,T,2.190999985,AVEST,,,,,,,133,estruc,Catalan,Sounds/cat_estruc.wav,,1,0,80,28,1,79
67126,,,,,,,,,,,,,,,,,,,,2020-04-26_10h29.34.803,TranslationElicitationSpa,3.2.4,MacIntel,60,,,,,,,,,,,,,,,R,2.273000002,AVESTR,,,,,,,133,estruc,Catalan,Sounds/cat_estruc.wav,,1,0,80,28,1,79
67126,,,,,,,,,,,,,,,,,,,,2020-04-26_10h29.34.803,TranslationElicitationSpa,3.2.4,MacIntel,60,,,,,,,,,,,,,,,U,2.389999866,AVESTRU,,,,,,,133,estruc,Catalan,Sounds/cat_estruc.wav,,1,0,80,28,1,79
67126,,,,,,,,,,,,,,,,,,,,2020-04-26_10h29.34.803,TranslationElicitationSpa,3.2.4,MacIntel,60,,,,,,,,,,,,,,,Z,2.506999969,AVESTRUZ,,,,,,,133,estruc,Catalan,Sounds/cat_estruc.wav,,1,0,80,28,1,79
67126,,,,,,,,,,,,,,,,,,,,2020-04-26_10h29.34.803,TranslationElicitationSpa,3.2.4,MacIntel,60,,,,,,,,,,,,,,,,2.506999969,,,,,,,,133,estruc,Catalan,Sounds/cat_estruc.wav,,1,0,80,28,1,79
67126,,,,,,,,,,,,,,,,,,,,2020-04-26_10h29.34.803,TranslationElicitationSpa,3.2.4,MacIntel,60,,,,,,,,,,,,,,,,,,,,,,,,133,estruc,Catalan,Sounds/cat_estruc.wav,,1,0,80,28,1,79
67126,,,,,,,,,,,,,,,,,,,,2020-04-26_10h29.34.803,TranslationElicitationSpa,3.2.4,MacIntel,60,,,,,,,,,,,,,,,P,1.38499999,P,,,,,,,174,porta,Catalan,Sounds/cat_porta.wav,,1,0,80,66,1,79
67126,,,,,,,,,,,,,,,,,,,,2020-04-26_10h29.34.803,TranslationElicitationSpa,3.2.4,MacIntel,60,,,,,,,,,,,,,,,U,1.587000132,PU,,,,,,,174,porta,Catalan,Sounds/cat_porta.wav,,1,0,80,66,1,79
67126,,,,,,,,,,,,,,,,,,,,2020-04-26_10h29.34.803,TranslationElicitationSpa,3.2.4,MacIntel,60,,,,,,,,,,,,,,,E,1.703000069,PUE,,,,,,,174,porta,Catalan,Sounds/cat_porta.wav,,1,0,80,66,1,79
67126,,,,,,,,,,,,,,,,,,,,2020-04-26_10h29.34.803,TranslationElicitationSpa,3.2.4,MacIntel,60,,,,,,,,,,,,,,,R,1.854000092,PUER,,,,,,,174,porta,Catalan,Sounds/cat_porta.wav,,1,0,80,66,1,79
67126,,,,,,,,,,,,,,,,,,,,2020-04-26_10h29.34.803,TranslationElicitationSpa,3.2.4,MacIntel,60,,,,,,,,,,,,,,,T,2.003000021,PUERT,,,,,,,174,porta,Catalan,Sounds/cat_porta.wav,,1,0,80,66,1,79
67126,,,,,,,,,,,,,,,,,,,,2020-04-26_10h29.34.803,TranslationElicitationSpa,3.2.4,MacIntel,60,,,,,,,,,,,,,,,A,2.220999956,PUERTA,,,,,,,174,porta,Catalan,Sounds/cat_porta.wav,,1,0,80,66,1,79
67126,,,,,,,,,,,,,,,,,,,,2020-04-26_10h29.34.803,TranslationElicitationSpa,3.2.4,MacIntel,60,,,,,,,,,,,,,,,,2.220999956,,,,,,,,174,porta,Catalan,Sounds/cat_porta.wav,,1,0,80,66,1,79
67126,,,,,,,,,,,,,,,,,,,,2020-04-26_10h29.34.803,TranslationElicitationSpa,3.2.4,MacIntel,60,,,,,,,,,,,,,,,,,,,,,,,,174,porta,Catalan,Sounds/cat_porta.wav,,1,0,80,66,1,79
67126,,,,,,,,,,,,,,,,,,,,2020-04-26_10h29.34.803,TranslationElicitationSpa,3.2.4,MacIntel,60,,,,,,,,,,,,,,,G,1.638000011,G,,,,,,,185,ulleres,Catalan,Sounds/cat_ulleres.wav,,1,0,80,76,1,79
67126,,,,,,,,,,,,,,,,,,,,2020-04-26_10h29.34.803,TranslationElicitationSpa,3.2.4,MacIntel,60,,,,,,,,,,,,,,,A,1.822000027,GA,,,,,,,185,ulleres,Catalan,Sounds/cat_ulleres.wav,,1,0,80,76,1,79
67126,,,,,,,,,,,,,,,,,,,,2020-04-26_10h29.34.803,TranslationElicitationSpa,3.2.4,MacIntel,60,,,,,,,,,,,,,,,F,1.954999924,GAF,,,,,,,185,ulleres,Catalan,Sounds/cat_ulleres.wav,,1,0,80,76,1,79
67126,,,,,,,,,,,,,,,,,,,,2020-04-26_10h29.34.803,TranslationElicitationSpa,3.2.4,MacIntel,60,,,,,,,,,,,,,,,A,2.089999914,GAFA,,,,,,,185,ulleres,Catalan,Sounds/cat_ulleres.wav,,1,0,80,76,1,79
67126,,,,,,,,,,,,,,,,,,,,2020-04-26_10h29.34.803,TranslationElicitationSpa,3.2.4,MacIntel,60,,,,,,,,,,,,,,,S,2.188999891,GAFAS,,,,,,,185,ulleres,Catalan,Sounds/cat_ulleres.wav,,1,0,80,76,1,79
67126,,,,,,,,,,,,,,,,,,,,2020-04-26_10h29.34.803,TranslationElicitationSpa,3.2.4,MacIntel,60,,,,,,,,,,,,,,,,2.188999891,,,,,,,,185,ulleres,Catalan,Sounds/cat_ulleres.wav,,1,0,80,76,1,79
67126,,,,,,,,,,,,,,,,,,,,2020-04-26_10h29.34.803,TranslationElicitationSpa,3.2.4,MacIntel,60,,,,,,,,,,,,,,,,,,,,,,,,185,ulleres,Catalan,Sounds/cat_ulleres.wav,,1,0,80,76,1,79
67126,,,,,,,,,,,,,,,,,,,,2020-04-26_10h29.34.803,TranslationElicitationSpa,3.2.4,MacIntel,60,,,,,,,,,,,,,,,C,1.503999949,C,,,,,,,122,casa,Catalan,Sounds/cat_casa.wav,,1,0,80,17,1,79
67126,,,,,,,,,,,,,,,,,,,,2020-04-26_10h29.34.803,TranslationElicitationSpa,3.2.4,MacIntel,60,,,,,,,,,,,,,,,A,1.604000092,CA,,,,,,,122,casa,Catalan,Sounds/cat_casa.wav,,1,0,80,17,1,79
67126,,,,,,,,,,,,,,,,,,,,2020-04-26_10h29.34.803,TranslationElicitationSpa,3.2.4,MacIntel,60,,,,,,,,,,,,,,,S,1.687999964,CAS,,,,,,,122,casa,Catalan,Sounds/cat_casa.wav,,1,0,80,17,1,79
67126,,,,,,,,,,,,,,,,,,,,2020-04-26_10h29.34.803,TranslationElicitationSpa,3.2.4,MacIntel,60,,,,,,,,,,,,,,,A,1.788000107,CASA,,,,,,,122,casa,Catalan,Sounds/cat_casa.wav,,1,0,80,17,1,79
67126,,,,,,,,,,,,,,,,,,,,2020-04-26_10h29.34.803,TranslationElicitationSpa,3.2.4,MacIntel,60,,,,,,,,,,,,,,,,1.788000107,,,,,,,,122,casa,Catalan,Sounds/cat_casa.wav,,1,0,80,17,1,79
67126,,,,,,,,,,,,,,,,,,,,2020-04-26_10h29.34.803,TranslationElicitationSpa,3.2.4,MacIntel,60,,,,,,,,,,,,,,,,,,,,,,,,122,casa,Catalan,Sounds/cat_casa.wav,,1,0,80,17,1,79
67126,,,,,,,,,,,,,,,,,,,,2020-04-26_10h29.34.803,TranslationElicitationSpa,3.2.4,MacIntel,60,,,,,,,,,,,,,,,,0,,,,,,,,170,ploma,Catalan,Sounds/cat_ploma.wav,yes,1,0,80,62,1,79
67126,,,,,,,,,,,,,,,,,,,,2020-04-26_10h29.34.803,TranslationElicitationSpa,3.2.4,MacIntel,60,,,,,,,,,,,,,,,P,2.171000004,P,,,,,,,170,ploma,Catalan,Sounds/cat_ploma.wav,,1,0,80,62,1,79
67126,,,,,,,,,,,,,,,,,,,,2020-04-26_10h29.34.803,TranslationElicitationSpa,3.2.4,MacIntel,60,,,,,,,,,,,,,,,L,2.24000001,PL,,,,,,,170,ploma,Catalan,Sounds/cat_ploma.wav,,1,0,80,62,1,79
67126,,,,,,,,,,,,,,,,,,,,2020-04-26_10h29.34.803,TranslationElicitationSpa,3.2.4,MacIntel,60,,,,,,,,,,,,,,,U,2.506000042,PLU,,,,,,,170,ploma,Catalan,Sounds/cat_ploma.wav,,1,0,80,62,1,79
67126,,,,,,,,,,,,,,,,,,,,2020-04-26_10h29.34.803,TranslationElicitationSpa,3.2.4,MacIntel,60,,,,,,,,,,,,,,,M,2.707000017,PLUM,,,,,,,170,ploma,Catalan,Sounds/cat_ploma.wav,,1,0,80,62,1,79
67126,,,,,,,,,,,,,,,,,,,,2020-04-26_10h29.34.803,TranslationElicitationSpa,3.2.4,MacIntel,60,,,,,,,,,,,,,,,A,2.99000001,PLUMA,,,,,,,170,ploma,Catalan,Sounds/cat_ploma.wav,,1,0,80,62,1,79
67126,,,,,,,,,,,,,,,,,,,,2020-04-26_10h29.34.803,TranslationElicitationSpa,3.2.4,MacIntel,60,,,,,,,,,,,,,,,,2.99000001,,,,,,,,170,ploma,Catalan,Sounds/cat_ploma.wav,,1,0,80,62,1,79
67126,,,,,,,,,,,,,,,,,,,,2020-04-26_10h29.34.803,TranslationElicitationSpa,3.2.4,MacIntel,60,,,,,,,,,,,,,,,,,,,,,,,,170,ploma,Catalan,Sounds/cat_ploma.wav,,1,0,80,62,1,79
67126,,,,,,,,,,,,,,,,,,,,2020-04-26_10h29.34.803,TranslationElicitationSpa,3.2.4,MacIntel,60,,,,,,,,,,,,,,,G,1.504000187,G,,,,,,,138,galeta,Catalan,Sounds/cat_galeta.wav,,1,0,80,33,1,79
67126,,,,,,,,,,,,,,,,,,,,2020-04-26_10h29.34.803,TranslationElicitationSpa,3.2.4,MacIntel,60,,,,,,,,,,,,,,,A,1.703999996,GA,,,,,,,138,galeta,Catalan,Sounds/cat_galeta.wav,,1,0,80,33,1,79
67126,,,,,,,,,,,,,,,,,,,,2020-04-26_10h29.34.803,TranslationElicitationSpa,3.2.4,MacIntel,60,,,,,,,,,,,,,,,L,1.822000027,GAL,,,,,,,138,galeta,Catalan,Sounds/cat_galeta.wav,,1,0,80,33,1,79
67126,,,,,,,,,,,,,,,,,,,,2020-04-26_10h29.34.803,TranslationElicitationSpa,3.2.4,MacIntel,60,,,,,,,,,,,,,,,L,1.938000202,GALL,,,,,,,138,galeta,Catalan,Sounds/cat_galeta.wav,,1,0,80,33,1,79
67126,,,,,,,,,,,,,,,,,,,,2020-04-26_10h29.34.803,TranslationElicitationSpa,3.2.4,MacIntel,60,,,,,,,,,,,,,,,E,2.05700016,GALLE,,,,,,,138,galeta,Catalan,Sounds/cat_galeta.wav,,1,0,80,33,1,79
67126,,,,,,,,,,,,,,,,,,,,2020-04-26_10h29.34.803,TranslationElicitationSpa,3.2.4,MacIntel,60,,,,,,,,,,,,,,,T,2.218000174,GALLET,,,,,,,138,galeta,Catalan,Sounds/cat_galeta.wav,,1,0,80,33,1,79
67126,,,,,,,,,,,,,,,,,,,,2020-04-26_10h29.34.803,TranslationElicitationSpa,3.2.4,MacIntel,60,,,,,,,,,,,,,,,A,2.424000025,GALLETA,,,,,,,138,galeta,Catalan,Sounds/cat_galeta.wav,,1,0,80,33,1,79
67126,,,,,,,,,,,,,,,,,,,,2020-04-26_10h29.34.803,TranslationElicitationSpa,3.2.4,MacIntel,60,,,,,,,,,,,,,,,,2.424000025,,,,,,,,138,galeta,Catalan,Sounds/cat_galeta.wav,,1,0,80,33,1,79
67126,,,,,,,,,,,,,,,,,,,,2020-04-26_10h29.34.803,TranslationElicitationSpa,3.2.4,MacIntel,60,,,,,,,,,,,,,,,,,,,,,,,,138,galeta,Catalan,Sounds/cat_galeta.wav,,1,0,80,33,1,79
67126,,,,,,,,,,,,,,,,,,,,2020-04-26_10h29.34.803,TranslationElicitationSpa,3.2.4,MacIntel,60,,,,,,,,,,,,,,,C,1.63499999,C,,,,,,,119,caixa,Catalan,Sounds/cat_caixa.wav,,1,0,80,14,1,79
67126,,,,,,,,,,,,,,,,,,,,2020-04-26_10h29.34.803,TranslationElicitationSpa,3.2.4,MacIntel,60,,,,,,,,,,,,,,,A,1.720999956,CA,,,,,,,119,caixa,Catalan,Sounds/cat_caixa.wav,,1,0,80,14,1,79
67126,,,,,,,,,,,,,,,,,,,,2020-04-26_10h29.34.803,TranslationElicitationSpa,3.2.4,MacIntel,60,,,,,,,,,,,,,,,J,1.902999878,CAJ,,,,,,,119,caixa,Catalan,Sounds/cat_caixa.wav,,1,0,80,14,1,79
67126,,,,,,,,,,,,,,,,,,,,2020-04-26_10h29.34.803,TranslationElicitationSpa,3.2.4,MacIntel,60,,,,,,,,,,,,,,,A,1.968999863,CAJA,,,,,,,119,caixa,Catalan,Sounds/cat_caixa.wav,,1,0,80,14,1,79
67126,,,,,,,,,,,,,,,,,,,,2020-04-26_10h29.34.803,TranslationElicitationSpa,3.2.4,MacIntel,60,,,,,,,,,,,,,,,,1.968999863,,,,,,,,119,caixa,Catalan,Sounds/cat_caixa.wav,,1,0,80,14,1,79
67126,,,,,,,,,,,,,,,,,,,,2020-04-26_10h29.34.803,TranslationElicitationSpa,3.2.4,MacIntel,60,,,,,,,,,,,,,,,,,,,,,,,,119,caixa,Catalan,Sounds/cat_caixa.wav,,1,0,80,14,1,79
67126,,,,,,,,,,,,,,,,,,,,2020-04-26_10h29.34.803,TranslationElicitationSpa,3.2.4,MacIntel,60,,,,,,,,,,,,,,,C,1.539000034,C,,,,,,,124,cirera,Catalan,Sounds/cat_cirera.wav,,1,0,80,19,1,79
67126,,,,,,,,,,,,,,,,,,,,2020-04-26_10h29.34.803,TranslationElicitationSpa,3.2.4,MacIntel,60,,,,,,,,,,,,,,,I,1.654000044,CI,,,,,,,124,cirera,Catalan,Sounds/cat_cirera.wav,,1,0,80,19,1,79
67126,,,,,,,,,,,,,,,,,,,,2020-04-26_10h29.34.803,TranslationElicitationSpa,3.2.4,MacIntel,60,,,,,,,,,,,,,,,,1.654000044,C,,,,,,,124,cirera,Catalan,Sounds/cat_cirera.wav,yes,1,0,80,19,1,79
67126,,,,,,,,,,,,,,,,,,,,2020-04-26_10h29.34.803,TranslationElicitationSpa,3.2.4,MacIntel,60,,,,,,,,,,,,,,,E,2.405999899,CE,,,,,,,124,cirera,Catalan,Sounds/cat_cirera.wav,,1,0,80,19,1,79
67126,,,,,,,,,,,,,,,,,,,,2020-04-26_10h29.34.803,TranslationElicitationSpa,3.2.4,MacIntel,60,,,,,,,,,,,,,,,R,2.506999969,CER,,,,,,,124,cirera,Catalan,Sounds/cat_cirera.wav,,1,0,80,19,1,79
67126,,,,,,,,,,,,,,,,,,,,2020-04-26_10h29.34.803,TranslationElicitationSpa,3.2.4,MacIntel,60,,,,,,,,,,,,,,,E,2.60800004,CERE,,,,,,,124,cirera,Catalan,Sounds/cat_cirera.wav,,1,0,80,19,1,79
