consentKey.keys,consentKey.rt,languageL1Key.keys,languageL1Key.rt,languageL2,languageL2OralKey.keys,languageL2OralKey.rt,languageL2WrittenKey.keys,languageL2WrittenKey.rt,languageL3,languageL3OralKey.keys,languageL3OralKey.rt,languageL3WrittenKey.keys,languageL3WrittenKey.rt,languageCatalanOralKey.keys,languageCatalanOralKey.rt,languageCatalanWrittenKey.keys,languageCatalanWrittenKey.rt,languageCatalanTimeKey.keys,languageCatalanTimeKey.rt,languageSpanishOralKey.keys,languageSpanishOralKey.rt,languageSpanishWrittenKey.keys,languageSpanishWrittenKey.rt,languageSpanishTimeKey.keys,languageSpanishTimeKey.rt,age,demoSexKey.keys,demoSexKey.rt,demoEducationKey.keys,demoEducationKey.rt,city,demoVisionKey.keys,demoVisionKey.rt,demoLanguageKey.keys,demoLanguageKey.rt,setupLocationKey.keys,setupLocationKey.rt,setupNoiseKey.keys,setupNoiseKey.rt,instructionsKeys.keys,instructionsKeys.rt,keyPressed,keyPressTime,inputText,error,trialsPracticeCatalan.thisRepN,trialsPracticeCatalan.thisTrialN,trialsPracticeCatalan.thisN,trialsPracticeCatalan.thisIndex,trialsPracticeCatalan.ran,trialsPracticeCatalan.order,trial_id,word,test_language,soundfile,participant,session,date,expName,psychopyVersion,OS,frameRate,trialOffset,trialsCatalan.thisRepN,trialsCatalan.thisTrialN,trialsCatalan.thisN,trialsCatalan.thisIndex,trialsCatalan.ran,trialsCatalan.order
space,1.515000105,e,6.750999928,ITALIAN,4,6.556999922,3,11.23699999,FRENCH,3,6.542999983,3,1.982000113,1,4.267999887,1,2.708000183,1,5.14199996,2,8.940000057,1,4.637000084,3,7.940999985,21,m,2.197999954,4,5.554000139,LONDON,y,2.764999866,n,7.898999929,1,4.289000034,1,1.771999836,space,24.74099994,t,2.867000103,T,FALSE,1,0,5,4,1,4,179,tigre,Catalan,Sounds/cat_tigre.mp3,11311,001,2020-06-08_18h39.26.172,TranslationElicitation_eng-sona,3.2.4,MacIntel,60,,,,,,,
,,,,,,,,,,,,,,,,,,,,,,,,,,,,,,,,,,,,,,,,,,i,2.950000048,TI,FALSE,1,0,5,4,1,4,179,tigre,Catalan,Sounds/cat_tigre.mp3,11311,001,2020-06-08_18h39.26.172,TranslationElicitation_eng-sona,3.2.4,MacIntel,60,,,,,,,
,,,,,,,,,,,,,,,,,,,,,,,,,,,,,,,,,,,,,,,,,,g,3.034000158,TIG,FALSE,1,0,5,4,1,4,179,tigre,Catalan,Sounds/cat_tigre.mp3,11311,001,2020-06-08_18h39.26.172,TranslationElicitation_eng-sona,3.2.4,MacIntel,60,,,,,,,
,,,,,,,,,,,,,,,,,,,,,,,,,,,,,,,,,,,,,,,,,,e,3.183000088,TIGE,FALSE,1,0,5,4,1,4,179,tigre,Catalan,Sounds/cat_tigre.mp3,11311,001,2020-06-08_18h39.26.172,TranslationElicitation_eng-sona,3.2.4,MacIntel,60,,,,,,,
,,,,,,,,,,,,,,,,,,,,,,,,,,,,,,,,,,,,,,,,,,r,3.317000151,TIGER,FALSE,1,0,5,4,1,4,179,tigre,Catalan,Sounds/cat_tigre.mp3,11311,001,2020-06-08_18h39.26.172,TranslationElicitation_eng-sona,3.2.4,MacIntel,60,,,,,,,
,,,,,,,,,,,,,,,,,,,,,,,,,,,,,,,,,,,,,,,,,,space,4.082999945,TIGER ,FALSE,1,0,5,4,1,4,179,tigre,Catalan,Sounds/cat_tigre.mp3,11311,001,2020-06-08_18h39.26.172,TranslationElicitation_eng-sona,3.2.4,MacIntel,60,,,,,,,
,,,,,,,,,,,,,,,,,,,,,,,,,,,,,,,,,,,,,,,,,,return,5.251000166,TIGER ,FALSE,1,0,5,4,1,4,179,tigre,Catalan,Sounds/cat_tigre.mp3,11311,001,2020-06-08_18h39.26.172,TranslationElicitation_eng-sona,3.2.4,MacIntel,60,5.251000166,,,,,,
,,,,,,,,,,,,,,,,,,,,,,,,,,,,,,,,,,,,,,,,,,,,,,1,0,5,4,1,4,179,tigre,Catalan,Sounds/cat_tigre.mp3,11311,001,2020-06-08_18h39.26.172,TranslationElicitation_eng-sona,3.2.4,MacIntel,60,,,,,,,
,,,,,,,,,,,,,,,,,,,,,,,,,,,,,,,,,,,,,,,,,,t,2.068000078,T,FALSE,1,0,5,0,1,4,109,arbre,Catalan,Sounds/cat_arbre.mp3,11311,001,2020-06-08_18h39.26.172,TranslationElicitation_eng-sona,3.2.4,MacIntel,60,,,,,,,
,,,,,,,,,,,,,,,,,,,,,,,,,,,,,,,,,,,,,,,,,,r,2.751000166,TR,FALSE,1,0,5,0,1,4,109,arbre,Catalan,Sounds/cat_arbre.mp3,11311,001,2020-06-08_18h39.26.172,TranslationElicitation_eng-sona,3.2.4,MacIntel,60,,,,,,,
,,,,,,,,,,,,,,,,,,,,,,,,,,,,,,,,,,,,,,,,,,e,2.968000174,TRE,FALSE,1,0,5,0,1,4,109,arbre,Catalan,Sounds/cat_arbre.mp3,11311,001,2020-06-08_18h39.26.172,TranslationElicitation_eng-sona,3.2.4,MacIntel,60,,,,,,,
,,,,,,,,,,,,,,,,,,,,,,,,,,,,,,,,,,,,,,,,,,e,3.118000031,TREE,FALSE,1,0,5,0,1,4,109,arbre,Catalan,Sounds/cat_arbre.mp3,11311,001,2020-06-08_18h39.26.172,TranslationElicitation_eng-sona,3.2.4,MacIntel,60,,,,,,,
,,,,,,,,,,,,,,,,,,,,,,,,,,,,,,,,,,,,,,,,,,return,3.318000078,TREE,FALSE,1,0,5,0,1,4,109,arbre,Catalan,Sounds/cat_arbre.mp3,11311,001,2020-06-08_18h39.26.172,TranslationElicitation_eng-sona,3.2.4,MacIntel,60,3.318000078,,,,,,
,,,,,,,,,,,,,,,,,,,,,,,,,,,,,,,,,,,,,,,,,,,,,,1,0,5,0,1,4,109,arbre,Catalan,Sounds/cat_arbre.mp3,11311,001,2020-06-08_18h39.26.172,TranslationElicitation_eng-sona,3.2.4,MacIntel,60,,,,,,,
,,,,,,,,,,,,,,,,,,,,,,,,,,,,,,,,,,,,,,,,,,a,2.984999895,A,FALSE,1,0,5,3,1,4,159,onada,Catalan,Sounds/cat_onada.mp3,11311,001,2020-06-08_18h39.26.172,TranslationElicitation_eng-sona,3.2.4,MacIntel,60,,,,,,,
,,,,,,,,,,,,,,,,,,,,,,,,,,,,,,,,,,,,,,,,,,space,3.167999983,A ,FALSE,1,0,5,3,1,4,159,onada,Catalan,Sounds/cat_onada.mp3,11311,001,2020-06-08_18h39.26.172,TranslationElicitation_eng-sona,3.2.4,MacIntel,60,,,,,,,
,,,,,,,,,,,,,,,,,,,,,,,,,,,,,,,,,,,,,,,,,,b,3.30099988,A B,FALSE,1,0,5,3,1,4,159,onada,Catalan,Sounds/cat_onada.mp3,11311,001,2020-06-08_18h39.26.172,TranslationElicitation_eng-sona,3.2.4,MacIntel,60,,,,,,,
,,,,,,,,,,,,,,,,,,,,,,,,,,,,,,,,,,,,,,,,,,i,3.500999928,A BI,FALSE,1,0,5,3,1,4,159,onada,Catalan,Sounds/cat_onada.mp3,11311,001,2020-06-08_18h39.26.172,TranslationElicitation_eng-sona,3.2.4,MacIntel,60,,,,,,,
,,,,,,,,,,,,,,,,,,,,,,,,,,,,,,,,,,,,,,,,,,r,3.849999905,A BIR,FALSE,1,0,5,3,1,4,159,onada,Catalan,Sounds/cat_onada.mp3,11311,001,2020-06-08_18h39.26.172,TranslationElicitation_eng-sona,3.2.4,MacIntel,60,,,,,,,
,,,,,,,,,,,,,,,,,,,,,,,,,,,,,,,,,,,,,,,,,,d,4.066999912,A BIRD,FALSE,1,0,5,3,1,4,159,onada,Catalan,Sounds/cat_onada.mp3,11311,001,2020-06-08_18h39.26.172,TranslationElicitation_eng-sona,3.2.4,MacIntel,60,,,,,,,
,,,,,,,,,,,,,,,,,,,,,,,,,,,,,,,,,,,,,,,,,,return,4.267999887,A BIRD,FALSE,1,0,5,3,1,4,159,onada,Catalan,Sounds/cat_onada.mp3,11311,001,2020-06-08_18h39.26.172,TranslationElicitation_eng-sona,3.2.4,MacIntel,60,4.267999887,,,,,,
,,,,,,,,,,,,,,,,,,,,,,,,,,,,,,,,,,,,,,,,,,,,,,1,0,5,3,1,4,159,onada,Catalan,Sounds/cat_onada.mp3,11311,001,2020-06-08_18h39.26.172,TranslationElicitation_eng-sona,3.2.4,MacIntel,60,,,,,,,
,,,,,,,,,,,,,,,,,,,,,,,,,,,,,,,,,,,,,,,,,,j,1.549000025,J,FALSE,1,0,5,2,1,4,147,jaqueta,Catalan,Sounds/cat_jaqueta.mp3,11311,001,2020-06-08_18h39.26.172,TranslationElicitation_eng-sona,3.2.4,MacIntel,60,,,,,,,
,,,,,,,,,,,,,,,,,,,,,,,,,,,,,,,,,,,,,,,,,,a,1.633000135,JA,FALSE,1,0,5,2,1,4,147,jaqueta,Catalan,Sounds/cat_jaqueta.mp3,11311,001,2020-06-08_18h39.26.172,TranslationElicitation_eng-sona,3.2.4,MacIntel,60,,,,,,,
,,,,,,,,,,,,,,,,,,,,,,,,,,,,,,,,,,,,,,,,,,c,1.800000191,JAC,FALSE,1,0,5,2,1,4,147,jaqueta,Catalan,Sounds/cat_jaqueta.mp3,11311,001,2020-06-08_18h39.26.172,TranslationElicitation_eng-sona,3.2.4,MacIntel,60,,,,,,,
,,,,,,,,,,,,,,,,,,,,,,,,,,,,,,,,,,,,,,,,,,k,1.900000095,JACK,FALSE,1,0,5,2,1,4,147,jaqueta,Catalan,Sounds/cat_jaqueta.mp3,11311,001,2020-06-08_18h39.26.172,TranslationElicitation_eng-sona,3.2.4,MacIntel,60,,,,,,,
,,,,,,,,,,,,,,,,,,,,,,,,,,,,,,,,,,,,,,,,,,e,1.967000008,JACKE,FALSE,1,0,5,2,1,4,147,jaqueta,Catalan,Sounds/cat_jaqueta.mp3,11311,001,2020-06-08_18h39.26.172,TranslationElicitation_eng-sona,3.2.4,MacIntel,60,,,,,,,
,,,,,,,,,,,,,,,,,,,,,,,,,,,,,,,,,,,,,,,,,,t,2.117000103,JACKET,FALSE,1,0,5,2,1,4,147,jaqueta,Catalan,Sounds/cat_jaqueta.mp3,11311,001,2020-06-08_18h39.26.172,TranslationElicitation_eng-sona,3.2.4,MacIntel,60,,,,,,,
,,,,,,,,,,,,,,,,,,,,,,,,,,,,,,,,,,,,,,,,,,return,2.234000206,JACKET,FALSE,1,0,5,2,1,4,147,jaqueta,Catalan,Sounds/cat_jaqueta.mp3,11311,001,2020-06-08_18h39.26.172,TranslationElicitation_eng-sona,3.2.4,MacIntel,60,2.234000206,,,,,,
,,,,,,,,,,,,,,,,,,,,,,,,,,,,,,,,,,,,,,,,,,,,,,1,0,5,2,1,4,147,jaqueta,Catalan,Sounds/cat_jaqueta.mp3,11311,001,2020-06-08_18h39.26.172,TranslationElicitation_eng-sona,3.2.4,MacIntel,60,,,,,,,
,,,,,,,,,,,,,,,,,,,,,,,,,,,,,,,,,,,,,,,,,,c,6.368000031,C,FALSE,1,0,5,1,1,4,126,corona,Catalan,Sounds/cat_corona.mp3,11311,001,2020-06-08_18h39.26.172,TranslationElicitation_eng-sona,3.2.4,MacIntel,60,,,,,,,
,,,,,,,,,,,,,,,,,,,,,,,,,,,,,,,,,,,,,,,,,,r,6.568000078,CR,FALSE,1,0,5,1,1,4,126,corona,Catalan,Sounds/cat_corona.mp3,11311,001,2020-06-08_18h39.26.172,TranslationElicitation_eng-sona,3.2.4,MacIntel,60,,,,,,,
,,,,,,,,,,,,,,,,,,,,,,,,,,,,,,,,,,,,,,,,,,o,6.702000141,CRO,FALSE,1,0,5,1,1,4,126,corona,Catalan,Sounds/cat_corona.mp3,11311,001,2020-06-08_18h39.26.172,TranslationElicitation_eng-sona,3.2.4,MacIntel,60,,,,,,,
,,,,,,,,,,,,,,,,,,,,,,,,,,,,,,,,,,,,,,,,,,e,6.818000078,CROE,FALSE,1,0,5,1,1,4,126,corona,Catalan,Sounds/cat_corona.mp3,11311,001,2020-06-08_18h39.26.172,TranslationElicitation_eng-sona,3.2.4,MacIntel,60,,,,,,,
,,,,,,,,,,,,,,,,,,,,,,,,,,,,,,,,,,,,,,,,,,backspace,7.503999949,CR,TRUE,1,0,5,1,1,4,126,corona,Catalan,Sounds/cat_corona.mp3,11311,001,2020-06-08_18h39.26.172,TranslationElicitation_eng-sona,3.2.4,MacIntel,60,,,,,,,
,,,,,,,,,,,,,,,,,,,,,,,,,,,,,,,,,,,,,,,,,,w,7.651000023,CRW,TRUE,1,0,5,1,1,4,126,corona,Catalan,Sounds/cat_corona.mp3,11311,001,2020-06-08_18h39.26.172,TranslationElicitation_eng-sona,3.2.4,MacIntel,60,,,,,,,
,,,,,,,,,,,,,,,,,,,,,,,,,,,,,,,,,,,,,,,,,,backspace,8.351000071,C,TRUE,1,0,5,1,1,4,126,corona,Catalan,Sounds/cat_corona.mp3,11311,001,2020-06-08_18h39.26.172,TranslationElicitation_eng-sona,3.2.4,MacIntel,60,,,,,,,
,,,,,,,,,,,,,,,,,,,,,,,,,,,,,,,,,,,,,,,,,,o,8.802999973,CO,TRUE,1,0,5,1,1,4,126,corona,Catalan,Sounds/cat_corona.mp3,11311,001,2020-06-08_18h39.26.172,TranslationElicitation_eng-sona,3.2.4,MacIntel,60,,,,,,,
,,,,,,,,,,,,,,,,,,,,,,,,,,,,,,,,,,,,,,,,,,w,9.018000126,COW,TRUE,1,0,5,1,1,4,126,corona,Catalan,Sounds/cat_corona.mp3,11311,001,2020-06-08_18h39.26.172,TranslationElicitation_eng-sona,3.2.4,MacIntel,60,,,,,,,
,,,,,,,,,,,,,,,,,,,,,,,,,,,,,,,,,,,,,,,,,,n,9.134000063,COWN,TRUE,1,0,5,1,1,4,126,corona,Catalan,Sounds/cat_corona.mp3,11311,001,2020-06-08_18h39.26.172,TranslationElicitation_eng-sona,3.2.4,MacIntel,60,,,,,,,
,,,,,,,,,,,,,,,,,,,,,,,,,,,,,,,,,,,,,,,,,,return,9.618000031,COWN,TRUE,1,0,5,1,1,4,126,corona,Catalan,Sounds/cat_corona.mp3,11311,001,2020-06-08_18h39.26.172,TranslationElicitation_eng-sona,3.2.4,MacIntel,60,9.618000031,,,,,,
,,,,,,,,,,,,,,,,,,,,,,,,,,,,,,,,,,,,,,,,,,,,,,1,0,5,1,1,4,126,corona,Catalan,Sounds/cat_corona.mp3,11311,001,2020-06-08_18h39.26.172,TranslationElicitation_eng-sona,3.2.4,MacIntel,60,,,,,,,
,,,,,,,,,,,,,,,,,,,,,,,,,,,,,,,,,,,,,,,,,,h,2.600999832,H,FALSE,,,,,,,123,cavall,Catalan,Sounds/cat_cavall.mp3,11311,001,2020-06-08_18h39.26.172,TranslationElicitation_eng-sona,3.2.4,MacIntel,60,,1,0,81,18,1,80
,,,,,,,,,,,,,,,,,,,,,,,,,,,,,,,,,,,,,,,,,,o,2.733999968,HO,FALSE,,,,,,,123,cavall,Catalan,Sounds/cat_cavall.mp3,11311,001,2020-06-08_18h39.26.172,TranslationElicitation_eng-sona,3.2.4,MacIntel,60,,1,0,81,18,1,80
,,,,,,,,,,,,,,,,,,,,,,,,,,,,,,,,,,,,,,,,,,r,2.816999912,HOR,FALSE,,,,,,,123,cavall,Catalan,Sounds/cat_cavall.mp3,11311,001,2020-06-08_18h39.26.172,TranslationElicitation_eng-sona,3.2.4,MacIntel,60,,1,0,81,18,1,80
,,,,,,,,,,,,,,,,,,,,,,,,,,,,,,,,,,,,,,,,,,s,2.998999834,HORS,FALSE,,,,,,,123,cavall,Catalan,Sounds/cat_cavall.mp3,11311,001,2020-06-08_18h39.26.172,TranslationElicitation_eng-sona,3.2.4,MacIntel,60,,1,0,81,18,1,80
,,,,,,,,,,,,,,,,,,,,,,,,,,,,,,,,,,,,,,,,,,e,3.16899991,HORSE,FALSE,,,,,,,123,cavall,Catalan,Sounds/cat_cavall.mp3,11311,001,2020-06-08_18h39.26.172,TranslationElicitation_eng-sona,3.2.4,MacIntel,60,,1,0,81,18,1,80
,,,,,,,,,,,,,,,,,,,,,,,,,,,,,,,,,,,,,,,,,,return,3.282999992,HORSE,FALSE,,,,,,,123,cavall,Catalan,Sounds/cat_cavall.mp3,11311,001,2020-06-08_18h39.26.172,TranslationElicitation_eng-sona,3.2.4,MacIntel,60,3.282999992,1,0,81,18,1,80
,,,,,,,,,,,,,,,,,,,,,,,,,,,,,,,,,,,,,,,,,,,,,,,,,,,,123,cavall,Catalan,Sounds/cat_cavall.mp3,11311,001,2020-06-08_18h39.26.172,TranslationElicitation_eng-sona,3.2.4,MacIntel,60,,1,0,81,18,1,80
,,,,,,,,,,,,,,,,,,,,,,,,,,,,,,,,,,,,,,,,,,b,2.032000065,B,FALSE,,,,,,,112,bici,Catalan,Sounds/cat_bici.mp3,11311,001,2020-06-08_18h39.26.172,TranslationElicitation_eng-sona,3.2.4,MacIntel,60,,1,0,81,7,1,80
,,,,,,,,,,,,,,,,,,,,,,,,,,,,,,,,,,,,,,,,,,i,2.499000072,BI,FALSE,,,,,,,112,bici,Catalan,Sounds/cat_bici.mp3,11311,001,2020-06-08_18h39.26.172,TranslationElicitation_eng-sona,3.2.4,MacIntel,60,,1,0,81,7,1,80
,,,,,,,,,,,,,,,,,,,,,,,,,,,,,,,,,,,,,,,,,,k,2.700000048,BIK,FALSE,,,,,,,112,bici,Catalan,Sounds/cat_bici.mp3,11311,001,2020-06-08_18h39.26.172,TranslationElicitation_eng-sona,3.2.4,MacIntel,60,,1,0,81,7,1,80
,,,,,,,,,,,,,,,,,,,,,,,,,,,,,,,,,,,,,,,,,,e,2.799000025,BIKE,FALSE,,,,,,,112,bici,Catalan,Sounds/cat_bici.mp3,11311,001,2020-06-08_18h39.26.172,TranslationElicitation_eng-sona,3.2.4,MacIntel,60,,1,0,81,7,1,80
,,,,,,,,,,,,,,,,,,,,,,,,,,,,,,,,,,,,,,,,,,return,2.950000048,BIKE,FALSE,,,,,,,112,bici,Catalan,Sounds/cat_bici.mp3,11311,001,2020-06-08_18h39.26.172,TranslationElicitation_eng-sona,3.2.4,MacIntel,60,2.950000048,1,0,81,7,1,80
,,,,,,,,,,,,,,,,,,,,,,,,,,,,,,,,,,,,,,,,,,,,,,,,,,,,112,bici,Catalan,Sounds/cat_bici.mp3,11311,001,2020-06-08_18h39.26.172,TranslationElicitation_eng-sona,3.2.4,MacIntel,60,,1,0,81,7,1,80
,,,,,,,,,,,,,,,,,,,,,,,,,,,,,,,,,,,,,,,,,,o,1.565000057,O,FALSE,,,,,,,151,lluna,Catalan,Sounds/cat_lluna.mp3,11311,001,2020-06-08_18h39.26.172,TranslationElicitation_eng-sona,3.2.4,MacIntel,60,,1,0,81,44,1,80
,,,,,,,,,,,,,,,,,,,,,,,,,,,,,,,,,,,,,,,,,,m,1.883000135,OM,FALSE,,,,,,,151,lluna,Catalan,Sounds/cat_lluna.mp3,11311,001,2020-06-08_18h39.26.172,TranslationElicitation_eng-sona,3.2.4,MacIntel,60,,1,0,81,44,1,80
,,,,,,,,,,,,,,,,,,,,,,,,,,,,,,,,,,,,,,,,,,backspace,2.200000048,,TRUE,,,,,,,151,lluna,Catalan,Sounds/cat_lluna.mp3,11311,001,2020-06-08_18h39.26.172,TranslationElicitation_eng-sona,3.2.4,MacIntel,60,,1,0,81,44,1,80
,,,,,,,,,,,,,,,,,,,,,,,,,,,,,,,,,,,,,,,,,,backspace,2.416000128,,TRUE,,,,,,,151,lluna,Catalan,Sounds/cat_lluna.mp3,11311,001,2020-06-08_18h39.26.172,TranslationElicitation_eng-sona,3.2.4,MacIntel,60,,1,0,81,44,1,80
,,,,,,,,,,,,,,,,,,,,,,,,,,,,,,,,,,,,,,,,,,m,2.631999969,M,TRUE,,,,,,,151,lluna,Catalan,Sounds/cat_lluna.mp3,11311,001,2020-06-08_18h39.26.172,TranslationElicitation_eng-sona,3.2.4,MacIntel,60,,1,0,81,44,1,80
,,,,,,,,,,,,,,,,,,,,,,,,,,,,,,,,,,,,,,,,,,o,2.815999985,MO,TRUE,,,,,,,151,lluna,Catalan,Sounds/cat_lluna.mp3,11311,001,2020-06-08_18h39.26.172,TranslationElicitation_eng-sona,3.2.4,MacIntel,60,,1,0,81,44,1,80
,,,,,,,,,,,,,,,,,,,,,,,,,,,,,,,,,,,,,,,,,,o,2.94900012,MOO,TRUE,,,,,,,151,lluna,Catalan,Sounds/cat_lluna.mp3,11311,001,2020-06-08_18h39.26.172,TranslationElicitation_eng-sona,3.2.4,MacIntel,60,,1,0,81,44,1,80
,,,,,,,,,,,,,,,,,,,,,,,,,,,,,,,,,,,,,,,,,,n,3.098999977,MOON,TRUE,,,,,,,151,lluna,Catalan,Sounds/cat_lluna.mp3,11311,001,2020-06-08_18h39.26.172,TranslationElicitation_eng-sona,3.2.4,MacIntel,60,,1,0,81,44,1,80
,,,,,,,,,,,,,,,,,,,,,,,,,,,,,,,,,,,,,,,,,,return,3.265000105,MOON,TRUE,,,,,,,151,lluna,Catalan,Sounds/cat_lluna.mp3,11311,001,2020-06-08_18h39.26.172,TranslationElicitation_eng-sona,3.2.4,MacIntel,60,3.265000105,1,0,81,44,1,80
,,,,,,,,,,,,,,,,,,,,,,,,,,,,,,,,,,,,,,,,,,,,,,,,,,,,151,lluna,Catalan,Sounds/cat_lluna.mp3,11311,001,2020-06-08_18h39.26.172,TranslationElicitation_eng-sona,3.2.4,MacIntel,60,,1,0,81,44,1,80
,,,,,,,,,,,,,,,,,,,,,,,,,,,,,,,,,,,,,,,,,,return,5.650000095,,FALSE,,,,,,,144,gorra,Catalan,Sounds/cat_gorra.mp3,11311,001,2020-06-08_18h39.26.172,TranslationElicitation_eng-sona,3.2.4,MacIntel,60,5.650000095,1,0,81,38,1,80
,,,,,,,,,,,,,,,,,,,,,,,,,,,,,,,,,,,,,,,,,,,,,,,,,,,,144,gorra,Catalan,Sounds/cat_gorra.mp3,11311,001,2020-06-08_18h39.26.172,TranslationElicitation_eng-sona,3.2.4,MacIntel,60,,1,0,81,38,1,80
,,,,,,,,,,,,,,,,,,,,,,,,,,,,,,,,,,,,,,,,,,d,2.25,D,FALSE,,,,,,,166,peu,Catalan,Sounds/cat_peu.mp3,11311,001,2020-06-08_18h39.26.172,TranslationElicitation_eng-sona,3.2.4,MacIntel,60,,1,0,81,58,1,80
,,,,,,,,,,,,,,,,,,,,,,,,,,,,,,,,,,,,,,,,,,o,2.332000017,DO,FALSE,,,,,,,166,peu,Catalan,Sounds/cat_peu.mp3,11311,001,2020-06-08_18h39.26.172,TranslationElicitation_eng-sona,3.2.4,MacIntel,60,,1,0,81,58,1,80
,,,,,,,,,,,,,,,,,,,,,,,,,,,,,,,,,,,,,,,,,,g,2.416000128,DOG,FALSE,,,,,,,166,peu,Catalan,Sounds/cat_peu.mp3,11311,001,2020-06-08_18h39.26.172,TranslationElicitation_eng-sona,3.2.4,MacIntel,60,,1,0,81,58,1,80
,,,,,,,,,,,,,,,,,,,,,,,,,,,,,,,,,,,,,,,,,,backspace,3.848999977,D,TRUE,,,,,,,166,peu,Catalan,Sounds/cat_peu.mp3,11311,001,2020-06-08_18h39.26.172,TranslationElicitation_eng-sona,3.2.4,MacIntel,60,,1,0,81,58,1,80
,,,,,,,,,,,,,,,,,,,,,,,,,,,,,,,,,,,,,,,,,,backspace,4.016000032,,TRUE,,,,,,,166,peu,Catalan,Sounds/cat_peu.mp3,11311,001,2020-06-08_18h39.26.172,TranslationElicitation_eng-sona,3.2.4,MacIntel,60,,1,0,81,58,1,80
,,,,,,,,,,,,,,,,,,,,,,,,,,,,,,,,,,,,,,,,,,backspace,4.18200016,,TRUE,,,,,,,166,peu,Catalan,Sounds/cat_peu.mp3,11311,001,2020-06-08_18h39.26.172,TranslationElicitation_eng-sona,3.2.4,MacIntel,60,,1,0,81,58,1,80
,,,,,,,,,,,,,,,,,,,,,,,,,,,,,,,,,,,,,,,,,,p,4.700999975,P,TRUE,,,,,,,166,peu,Catalan,Sounds/cat_peu.mp3,11311,001,2020-06-08_18h39.26.172,TranslationElicitation_eng-sona,3.2.4,MacIntel,60,,1,0,81,58,1,80
,,,,,,,,,,,,,,,,,,,,,,,,,,,,,,,,,,,,,,,,,,i,4.851000071,PI,TRUE,,,,,,,166,peu,Catalan,Sounds/cat_peu.mp3,11311,001,2020-06-08_18h39.26.172,TranslationElicitation_eng-sona,3.2.4,MacIntel,60,,1,0,81,58,1,80
,,,,,,,,,,,,,,,,,,,,,,,,,,,,,,,,,,,,,,,,,,e,4.933000088,PIE,TRUE,,,,,,,166,peu,Catalan,Sounds/cat_peu.mp3,11311,001,2020-06-08_18h39.26.172,TranslationElicitation_eng-sona,3.2.4,MacIntel,60,,1,0,81,58,1,80
,,,,,,,,,,,,,,,,,,,,,,,,,,,,,,,,,,,,,,,,,,c,5.065999985,PIEC,TRUE,,,,,,,166,peu,Catalan,Sounds/cat_peu.mp3,11311,001,2020-06-08_18h39.26.172,TranslationElicitation_eng-sona,3.2.4,MacIntel,60,,1,0,81,58,1,80
,,,,,,,,,,,,,,,,,,,,,,,,,,,,,,,,,,,,,,,,,,e,5.21600008,PIECE,TRUE,,,,,,,166,peu,Catalan,Sounds/cat_peu.mp3,11311,001,2020-06-08_18h39.26.172,TranslationElicitation_eng-sona,3.2.4,MacIntel,60,,1,0,81,58,1,80
,,,,,,,,,,,,,,,,,,,,,,,,,,,,,,,,,,,,,,,,,,return,5.300000191,PIECE,TRUE,,,,,,,166,peu,Catalan,Sounds/cat_peu.mp3,11311,001,2020-06-08_18h39.26.172,TranslationElicitation_eng-sona,3.2.4,MacIntel,60,5.300000191,1,0,81,58,1,80
,,,,,,,,,,,,,,,,,,,,,,,,,,,,,,,,,,,,,,,,,,,,,,,,,,,,166,peu,Catalan,Sounds/cat_peu.mp3,11311,001,2020-06-08_18h39.26.172,TranslationElicitation_eng-sona,3.2.4,MacIntel,60,,1,0,81,58,1,80
,,,,,,,,,,,,,,,,,,,,,,,,,,,,,,,,,,,,,,,,,,c,2.667000055,C,FALSE,,,,,,,171,pollastre,Catalan,Sounds/cat_pollastre.mp3,11311,001,2020-06-08_18h39.26.172,TranslationElicitation_eng-sona,3.2.4,MacIntel,60,,1,0,81,63,1,80
,,,,,,,,,,,,,,,,,,,,,,,,,,,,,,,,,,,,,,,,,,h,2.766000032,CH,FALSE,,,,,,,171,pollastre,Catalan,Sounds/cat_pollastre.mp3,11311,001,2020-06-08_18h39.26.172,TranslationElicitation_eng-sona,3.2.4,MacIntel,60,,1,0,81,63,1,80
,,,,,,,,,,,,,,,,,,,,,,,,,,,,,,,,,,,,,,,,,,i,2.866999865,CHI,FALSE,,,,,,,171,pollastre,Catalan,Sounds/cat_pollastre.mp3,11311,001,2020-06-08_18h39.26.172,TranslationElicitation_eng-sona,3.2.4,MacIntel,60,,1,0,81,63,1,80
,,,,,,,,,,,,,,,,,,,,,,,,,,,,,,,,,,,,,,,,,,c,2.915999889,CHIC,FALSE,,,,,,,171,pollastre,Catalan,Sounds/cat_pollastre.mp3,11311,001,2020-06-08_18h39.26.172,TranslationElicitation_eng-sona,3.2.4,MacIntel,60,,1,0,81,63,1,80
,,,,,,,,,,,,,,,,,,,,,,,,,,,,,,,,,,,,,,,,,,k,3.065999985,CHICK,FALSE,,,,,,,171,pollastre,Catalan,Sounds/cat_pollastre.mp3,11311,001,2020-06-08_18h39.26.172,TranslationElicitation_eng-sona,3.2.4,MacIntel,60,,1,0,81,63,1,80
,,,,,,,,,,,,,,,,,,,,,,,,,,,,,,,,,,,,,,,,,,e,3.116999865,CHICKE,FALSE,,,,,,,171,pollastre,Catalan,Sounds/cat_pollastre.mp3,11311,001,2020-06-08_18h39.26.172,TranslationElicitation_eng-sona,3.2.4,MacIntel,60,,1,0,81,63,1,80
,,,,,,,,,,,,,,,,,,,,,,,,,,,,,,,,,,,,,,,,,,n,3.549000025,CHICKEN,FALSE,,,,,,,171,pollastre,Catalan,Sounds/cat_pollastre.mp3,11311,001,2020-06-08_18h39.26.172,TranslationElicitation_eng-sona,3.2.4,MacIntel,60,,1,0,81,63,1,80
,,,,,,,,,,,,,,,,,,,,,,,,,,,,,,,,,,,,,,,,,,return,3.76699996,CHICKEN,FALSE,,,,,,,171,pollastre,Catalan,Sounds/cat_pollastre.mp3,11311,001,2020-06-08_18h39.26.172,TranslationElicitation_eng-sona,3.2.4,MacIntel,60,3.76699996,1,0,81,63,1,80
,,,,,,,,,,,,,,,,,,,,,,,,,,,,,,,,,,,,,,,,,,,,,,,,,,,,171,pollastre,Catalan,Sounds/cat_pollastre.mp3,11311,001,2020-06-08_18h39.26.172,TranslationElicitation_eng-sona,3.2.4,MacIntel,60,,1,0,81,63,1,80
,,,,,,,,,,,,,,,,,,,,,,,,,,,,,,,,,,,,,,,,,,v,5.667999983,V,FALSE,,,,,,,116,bolquer,Catalan,Sounds/cat_bolquer.mp3,11311,001,2020-06-08_18h39.26.172,TranslationElicitation_eng-sona,3.2.4,MacIntel,60,,1,0,81,11,1,80
,,,,,,,,,,,,,,,,,,,,,,,,,,,,,,,,,,,,,,,,,,o,5.751999855,VO,FALSE,,,,,,,116,bolquer,Catalan,Sounds/cat_bolquer.mp3,11311,001,2020-06-08_18h39.26.172,TranslationElicitation_eng-sona,3.2.4,MacIntel,60,,1,0,81,11,1,80
,,,,,,,,,,,,,,,,,,,,,,,,,,,,,,,,,,,,,,,,,,l,5.917999983,VOL,FALSE,,,,,,,116,bolquer,Catalan,Sounds/cat_bolquer.mp3,11311,001,2020-06-08_18h39.26.172,TranslationElicitation_eng-sona,3.2.4,MacIntel,60,,1,0,81,11,1,80
,,,,,,,,,,,,,,,,,,,,,,,,,,,,,,,,,,,,,,,,,,c,5.968999863,VOLC,FALSE,,,,,,,116,bolquer,Catalan,Sounds/cat_bolquer.mp3,11311,001,2020-06-08_18h39.26.172,TranslationElicitation_eng-sona,3.2.4,MacIntel,60,,1,0,81,11,1,80
,,,,,,,,,,,,,,,,,,,,,,,,,,,,,,,,,,,,,,,,,,a,6.100999832,VOLCA,FALSE,,,,,,,116,bolquer,Catalan,Sounds/cat_bolquer.mp3,11311,001,2020-06-08_18h39.26.172,TranslationElicitation_eng-sona,3.2.4,MacIntel,60,,1,0,81,11,1,80
,,,,,,,,,,,,,,,,,,,,,,,,,,,,,,,,,,,,,,,,,,n,6.201999903,VOLCAN,FALSE,,,,,,,116,bolquer,Catalan,Sounds/cat_bolquer.mp3,11311,001,2020-06-08_18h39.26.172,TranslationElicitation_eng-sona,3.2.4,MacIntel,60,,1,0,81,11,1,80
,,,,,,,,,,,,,,,,,,,,,,,,,,,,,,,,,,,,,,,,,,o,6.363999844,VOLCANO,FALSE,,,,,,,116,bolquer,Catalan,Sounds/cat_bolquer.mp3,11311,001,2020-06-08_18h39.26.172,TranslationElicitation_eng-sona,3.2.4,MacIntel,60,,1,0,81,11,1,80
,,,,,,,,,,,,,,,,,,,,,,,,,,,,,,,,,,,,,,,,,,return,6.536000013,VOLCANO,FALSE,,,,,,,116,bolquer,Catalan,Sounds/cat_bolquer.mp3,11311,001,2020-06-08_18h39.26.172,TranslationElicitation_eng-sona,3.2.4,MacIntel,60,6.536000013,1,0,81,11,1,80
,,,,,,,,,,,,,,,,,,,,,,,,,,,,,,,,,,,,,,,,,,,,,,,,,,,,116,bolquer,Catalan,Sounds/cat_bolquer.mp3,11311,001,2020-06-08_18h39.26.172,TranslationElicitation_eng-sona,3.2.4,MacIntel,60,,1,0,81,11,1,80
,,,,,,,,,,,,,,,,,,,,,,,,,,,,,,,,,,,,,,,,,,c,5.782999992,C,FALSE,,,,,,,187,vaixell,Catalan,Sounds/cat_vaixell.mp3,11311,001,2020-06-08_18h39.26.172,TranslationElicitation_eng-sona,3.2.4,MacIntel,60,,1,0,81,78,1,80
,,,,,,,,,,,,,,,,,,,,,,,,,,,,,,,,,,,,,,,,,,o,5.915999889,CO,FALSE,,,,,,,187,vaixell,Catalan,Sounds/cat_vaixell.mp3,11311,001,2020-06-08_18h39.26.172,TranslationElicitation_eng-sona,3.2.4,MacIntel,60,,1,0,81,78,1,80
,,,,,,,,,,,,,,,,,,,,,,,,,,,,,,,,,,,,,,,,,,m,6.099999905,COM,FALSE,,,,,,,187,vaixell,Catalan,Sounds/cat_vaixell.mp3,11311,001,2020-06-08_18h39.26.172,TranslationElicitation_eng-sona,3.2.4,MacIntel,60,,1,0,81,78,1,80
,,,,,,,,,,,,,,,,,,,,,,,,,,,,,,,,,,,,,,,,,,b,6.25,COMB,FALSE,,,,,,,187,vaixell,Catalan,Sounds/cat_vaixell.mp3,11311,001,2020-06-08_18h39.26.172,TranslationElicitation_eng-sona,3.2.4,MacIntel,60,,1,0,81,78,1,80
,,,,,,,,,,,,,,,,,,,,,,,,,,,,,,,,,,,,,,,,,,return,6.549999952,COMB,FALSE,,,,,,,187,vaixell,Catalan,Sounds/cat_vaixell.mp3,11311,001,2020-06-08_18h39.26.172,TranslationElicitation_eng-sona,3.2.4,MacIntel,60,6.549999952,1,0,81,78,1,80
,,,,,,,,,,,,,,,,,,,,,,,,,,,,,,,,,,,,,,,,,,,,,,,,,,,,187,vaixell,Catalan,Sounds/cat_vaixell.mp3,11311,001,2020-06-08_18h39.26.172,TranslationElicitation_eng-sona,3.2.4,MacIntel,60,,1,0,81,78,1,80
,,,,,,,,,,,,,,,,,,,,,,,,,,,,,,,,,,,,,,,,,,z,2.167000055,Z,FALSE,,,,,,,189,zebra,Catalan,Sounds/cat_zebra.mp3,11311,001,2020-06-08_18h39.26.172,TranslationElicitation_eng-sona,3.2.4,MacIntel,60,,1,0,81,80,1,80
,,,,,,,,,,,,,,,,,,,,,,,,,,,,,,,,,,,,,,,,,,e,2.367000103,ZE,FALSE,,,,,,,189,zebra,Catalan,Sounds/cat_zebra.mp3,11311,001,2020-06-08_18h39.26.172,TranslationElicitation_eng-sona,3.2.4,MacIntel,60,,1,0,81,80,1,80
,,,,,,,,,,,,,,,,,,,,,,,,,,,,,,,,,,,,,,,,,,b,2.532999992,ZEB,FALSE,,,,,,,189,zebra,Catalan,Sounds/cat_zebra.mp3,11311,001,2020-06-08_18h39.26.172,TranslationElicitation_eng-sona,3.2.4,MacIntel,60,,1,0,81,80,1,80
,,,,,,,,,,,,,,,,,,,,,,,,,,,,,,,,,,,,,,,,,,r,2.733999968,ZEBR,FALSE,,,,,,,189,zebra,Catalan,Sounds/cat_zebra.mp3,11311,001,2020-06-08_18h39.26.172,TranslationElicitation_eng-sona,3.2.4,MacIntel,60,,1,0,81,80,1,80
,,,,,,,,,,,,,,,,,,,,,,,,,,,,,,,,,,,,,,,,,,a,2.96600008,ZEBRA,FALSE,,,,,,,189,zebra,Catalan,Sounds/cat_zebra.mp3,11311,001,2020-06-08_18h39.26.172,TranslationElicitation_eng-sona,3.2.4,MacIntel,60,,1,0,81,80,1,80
,,,,,,,,,,,,,,,,,,,,,,,,,,,,,,,,,,,,,,,,,,return,4.049999952,ZEBRA,FALSE,,,,,,,189,zebra,Catalan,Sounds/cat_zebra.mp3,11311,001,2020-06-08_18h39.26.172,TranslationElicitation_eng-sona,3.2.4,MacIntel,60,4.049999952,1,0,81,80,1,80
,,,,,,,,,,,,,,,,,,,,,,,,,,,,,,,,,,,,,,,,,,,,,,,,,,,,189,zebra,Catalan,Sounds/cat_zebra.mp3,11311,001,2020-06-08_18h39.26.172,TranslationElicitation_eng-sona,3.2.4,MacIntel,60,,1,0,81,80,1,80
,,,,,,,,,,,,,,,,,,,,,,,,,,,,,,,,,,,,,,,,,,b,3.434000015,B,FALSE,,,,,,,114,bol,Catalan,Sounds/cat_bol.mp3,11311,001,2020-06-08_18h39.26.172,TranslationElicitation_eng-sona,3.2.4,MacIntel,60,,1,0,81,9,1,80
,,,,,,,,,,,,,,,,,,,,,,,,,,,,,,,,,,,,,,,,,,a,3.518000126,BA,FALSE,,,,,,,114,bol,Catalan,Sounds/cat_bol.mp3,11311,001,2020-06-08_18h39.26.172,TranslationElicitation_eng-sona,3.2.4,MacIntel,60,,1,0,81,9,1,80
,,,,,,,,,,,,,,,,,,,,,,,,,,,,,,,,,,,,,,,,,,l,3.618000031,BAL,FALSE,,,,,,,114,bol,Catalan,Sounds/cat_bol.mp3,11311,001,2020-06-08_18h39.26.172,TranslationElicitation_eng-sona,3.2.4,MacIntel,60,,1,0,81,9,1,80
,,,,,,,,,,,,,,,,,,,,,,,,,,,,,,,,,,,,,,,,,,l,3.751000166,BALL,FALSE,,,,,,,114,bol,Catalan,Sounds/cat_bol.mp3,11311,001,2020-06-08_18h39.26.172,TranslationElicitation_eng-sona,3.2.4,MacIntel,60,,1,0,81,9,1,80
,,,,,,,,,,,,,,,,,,,,,,,,,,,,,,,,,,,,,,,,,,return,3.968000174,BALL,FALSE,,,,,,,114,bol,Catalan,Sounds/cat_bol.mp3,11311,001,2020-06-08_18h39.26.172,TranslationElicitation_eng-sona,3.2.4,MacIntel,60,3.968000174,1,0,81,9,1,80
,,,,,,,,,,,,,,,,,,,,,,,,,,,,,,,,,,,,,,,,,,,,,,,,,,,,114,bol,Catalan,Sounds/cat_bol.mp3,11311,001,2020-06-08_18h39.26.172,TranslationElicitation_eng-sona,3.2.4,MacIntel,60,,1,0,81,9,1,80
,,,,,,,,,,,,,,,,,,,,,,,,,,,,,,,,,,,,,,,,,,s,1.615999937,S,FALSE,,,,,,,121,camisa,Catalan,Sounds/cat_camisa.mp3,11311,001,2020-06-08_18h39.26.172,TranslationElicitation_eng-sona,3.2.4,MacIntel,60,,1,0,81,16,1,80
,,,,,,,,,,,,,,,,,,,,,,,,,,,,,,,,,,,,,,,,,,h,1.731999874,SH,FALSE,,,,,,,121,camisa,Catalan,Sounds/cat_camisa.mp3,11311,001,2020-06-08_18h39.26.172,TranslationElicitation_eng-sona,3.2.4,MacIntel,60,,1,0,81,16,1,80
,,,,,,,,,,,,,,,,,,,,,,,,,,,,,,,,,,,,,,,,,,o,1.86500001,SHO,FALSE,,,,,,,121,camisa,Catalan,Sounds/cat_camisa.mp3,11311,001,2020-06-08_18h39.26.172,TranslationElicitation_eng-sona,3.2.4,MacIntel,60,,1,0,81,16,1,80
,,,,,,,,,,,,,,,,,,,,,,,,,,,,,,,,,,,,,,,,,,r,1.96600008,SHOR,FALSE,,,,,,,121,camisa,Catalan,Sounds/cat_camisa.mp3,11311,001,2020-06-08_18h39.26.172,TranslationElicitation_eng-sona,3.2.4,MacIntel,60,,1,0,81,16,1,80
,,,,,,,,,,,,,,,,,,,,,,,,,,,,,,,,,,,,,,,,,,t,2.150000095,SHORT,FALSE,,,,,,,121,camisa,Catalan,Sounds/cat_camisa.mp3,11311,001,2020-06-08_18h39.26.172,TranslationElicitation_eng-sona,3.2.4,MacIntel,60,,1,0,81,16,1,80
,,,,,,,,,,,,,,,,,,,,,,,,,,,,,,,,,,,,,,,,,,return,2.231999874,SHORT,FALSE,,,,,,,121,camisa,Catalan,Sounds/cat_camisa.mp3,11311,001,2020-06-08_18h39.26.172,TranslationElicitation_eng-sona,3.2.4,MacIntel,60,2.231999874,1,0,81,16,1,80
,,,,,,,,,,,,,,,,,,,,,,,,,,,,,,,,,,,,,,,,,,,,,,,,,,,,121,camisa,Catalan,Sounds/cat_camisa.mp3,11311,001,2020-06-08_18h39.26.172,TranslationElicitation_eng-sona,3.2.4,MacIntel,60,,1,0,81,16,1,80
,,,,,,,,,,,,,,,,,,,,,,,,,,,,,,,,,,,,,,,,,,r,8.865999937,R,FALSE,,,,,,,119,caixa,Catalan,Sounds/cat_caixa.mp3,11311,001,2020-06-08_18h39.26.172,TranslationElicitation_eng-sona,3.2.4,MacIntel,60,,1,0,81,14,1,80
,,,,,,,,,,,,,,,,,,,,,,,,,,,,,,,,,,,,,,,,,,e,9,RE,FALSE,,,,,,,119,caixa,Catalan,Sounds/cat_caixa.mp3,11311,001,2020-06-08_18h39.26.172,TranslationElicitation_eng-sona,3.2.4,MacIntel,60,,1,0,81,14,1,80
,,,,,,,,,,,,,,,,,,,,,,,,,,,,,,,,,,,,,,,,,,backspace,9.51699996,,TRUE,,,,,,,119,caixa,Catalan,Sounds/cat_caixa.mp3,11311,001,2020-06-08_18h39.26.172,TranslationElicitation_eng-sona,3.2.4,MacIntel,60,,1,0,81,14,1,80
,,,,,,,,,,,,,,,,,,,,,,,,,,,,,,,,,,,,,,,,,,backspace,9.69900012,,TRUE,,,,,,,119,caixa,Catalan,Sounds/cat_caixa.mp3,11311,001,2020-06-08_18h39.26.172,TranslationElicitation_eng-sona,3.2.4,MacIntel,60,,1,0,81,14,1,80
,,,,,,,,,,,,,,,,,,,,,,,,,,,,,,,,,,,,,,,,,,c,10.20099998,C,TRUE,,,,,,,119,caixa,Catalan,Sounds/cat_caixa.mp3,11311,001,2020-06-08_18h39.26.172,TranslationElicitation_eng-sona,3.2.4,MacIntel,60,,1,0,81,14,1,80
,,,,,,,,,,,,,,,,,,,,,,,,,,,,,,,,,,,,,,,,,,a,10.81699991,CA,TRUE,,,,,,,119,caixa,Catalan,Sounds/cat_caixa.mp3,11311,001,2020-06-08_18h39.26.172,TranslationElicitation_eng-sona,3.2.4,MacIntel,60,,1,0,81,14,1,80
,,,,,,,,,,,,,,,,,,,,,,,,,,,,,,,,,,,,,,,,,,s,11.03500009,CAS,TRUE,,,,,,,119,caixa,Catalan,Sounds/cat_caixa.mp3,11311,001,2020-06-08_18h39.26.172,TranslationElicitation_eng-sona,3.2.4,MacIntel,60,,1,0,81,14,1,80
,,,,,,,,,,,,,,,,,,,,,,,,,,,,,,,,,,,,,,,,,,h,11.21799994,CASH,TRUE,,,,,,,119,caixa,Catalan,Sounds/cat_caixa.mp3,11311,001,2020-06-08_18h39.26.172,TranslationElicitation_eng-sona,3.2.4,MacIntel,60,,1,0,81,14,1,80
,,,,,,,,,,,,,,,,,,,,,,,,,,,,,,,,,,,,,,,,,,space,11.58400011,CASH ,TRUE,,,,,,,119,caixa,Catalan,Sounds/cat_caixa.mp3,11311,001,2020-06-08_18h39.26.172,TranslationElicitation_eng-sona,3.2.4,MacIntel,60,,1,0,81,14,1,80
,,,,,,,,,,,,,,,,,,,,,,,,,,,,,,,,,,,,,,,,,,r,11.71700001,CASH R,TRUE,,,,,,,119,caixa,Catalan,Sounds/cat_caixa.mp3,11311,001,2020-06-08_18h39.26.172,TranslationElicitation_eng-sona,3.2.4,MacIntel,60,,1,0,81,14,1,80
,,,,,,,,,,,,,,,,,,,,,,,,,,,,,,,,,,,,,,,,,,e,11.81800008,CASH RE,TRUE,,,,,,,119,caixa,Catalan,Sounds/cat_caixa.mp3,11311,001,2020-06-08_18h39.26.172,TranslationElicitation_eng-sona,3.2.4,MacIntel,60,,1,0,81,14,1,80
,,,,,,,,,,,,,,,,,,,,,,,,,,,,,,,,,,,,,,,,,,g,11.95099998,CASH REG,TRUE,,,,,,,119,caixa,Catalan,Sounds/cat_caixa.mp3,11311,001,2020-06-08_18h39.26.172,TranslationElicitation_eng-sona,3.2.4,MacIntel,60,,1,0,81,14,1,80
,,,,,,,,,,,,,,,,,,,,,,,,,,,,,,,,,,,,,,,,,,i,12.08400011,CASH REGI,TRUE,,,,,,,119,caixa,Catalan,Sounds/cat_caixa.mp3,11311,001,2020-06-08_18h39.26.172,TranslationElicitation_eng-sona,3.2.4,MacIntel,60,,1,0,81,14,1,80
,,,,,,,,,,,,,,,,,,,,,,,,,,,,,,,,,,,,,,,,,,s,12.13700008,CASH REGIS,TRUE,,,,,,,119,caixa,Catalan,Sounds/cat_caixa.mp3,11311,001,2020-06-08_18h39.26.172,TranslationElicitation_eng-sona,3.2.4,MacIntel,60,,1,0,81,14,1,80
,,,,,,,,,,,,,,,,,,,,,,,,,,,,,,,,,,,,,,,,,,t,12.29999995,CASH REGIST,TRUE,,,,,,,119,caixa,Catalan,Sounds/cat_caixa.mp3,11311,001,2020-06-08_18h39.26.172,TranslationElicitation_eng-sona,3.2.4,MacIntel,60,,1,0,81,14,1,80
,,,,,,,,,,,,,,,,,,,,,,,,,,,,,,,,,,,,,,,,,,e,12.41799998,CASH REGISTE,TRUE,,,,,,,119,caixa,Catalan,Sounds/cat_caixa.mp3,11311,001,2020-06-08_18h39.26.172,TranslationElicitation_eng-sona,3.2.4,MacIntel,60,,1,0,81,14,1,80
,,,,,,,,,,,,,,,,,,,,,,,,,,,,,,,,,,,,,,,,,,r,12.53299999,CASH REGISTER,TRUE,,,,,,,119,caixa,Catalan,Sounds/cat_caixa.mp3,11311,001,2020-06-08_18h39.26.172,TranslationElicitation_eng-sona,3.2.4,MacIntel,60,,1,0,81,14,1,80
,,,,,,,,,,,,,,,,,,,,,,,,,,,,,,,,,,,,,,,,,,return,12.58400011,CASH REGISTER,TRUE,,,,,,,119,caixa,Catalan,Sounds/cat_caixa.mp3,11311,001,2020-06-08_18h39.26.172,TranslationElicitation_eng-sona,3.2.4,MacIntel,60,12.58400011,1,0,81,14,1,80
,,,,,,,,,,,,,,,,,,,,,,,,,,,,,,,,,,,,,,,,,,,,,,,,,,,,119,caixa,Catalan,Sounds/cat_caixa.mp3,11311,001,2020-06-08_18h39.26.172,TranslationElicitation_eng-sona,3.2.4,MacIntel,60,,1,0,81,14,1,80
,,,,,,,,,,,,,,,,,,,,,,,,,,,,,,,,,,,,,,,,,,f,2.267999887,F,FALSE,,,,,,,153,mico,Catalan,Sounds/cat_mico.mp3,11311,001,2020-06-08_18h39.26.172,TranslationElicitation_eng-sona,3.2.4,MacIntel,60,,1,0,81,46,1,80
,,,,,,,,,,,,,,,,,,,,,,,,,,,,,,,,,,,,,,,,,,r,2.416999817,FR,FALSE,,,,,,,153,mico,Catalan,Sounds/cat_mico.mp3,11311,001,2020-06-08_18h39.26.172,TranslationElicitation_eng-sona,3.2.4,MacIntel,60,,1,0,81,46,1,80
,,,,,,,,,,,,,,,,,,,,,,,,,,,,,,,,,,,,,,,,,,e,2.534999847,FRE,FALSE,,,,,,,153,mico,Catalan,Sounds/cat_mico.mp3,11311,001,2020-06-08_18h39.26.172,TranslationElicitation_eng-sona,3.2.4,MacIntel,60,,1,0,81,46,1,80
,,,,,,,,,,,,,,,,,,,,,,,,,,,,,,,,,,,,,,,,,,i,2.549999952,FREI,FALSE,,,,,,,153,mico,Catalan,Sounds/cat_mico.mp3,11311,001,2020-06-08_18h39.26.172,TranslationElicitation_eng-sona,3.2.4,MacIntel,60,,1,0,81,46,1,80
,,,,,,,,,,,,,,,,,,,,,,,,,,,,,,,,,,,,,,,,,,n,2.765999794,FREIN,FALSE,,,,,,,153,mico,Catalan,Sounds/cat_mico.mp3,11311,001,2020-06-08_18h39.26.172,TranslationElicitation_eng-sona,3.2.4,MacIntel,60,,1,0,81,46,1,80
,,,,,,,,,,,,,,,,,,,,,,,,,,,,,,,,,,,,,,,,,,d,2.866999865,FREIND,FALSE,,,,,,,153,mico,Catalan,Sounds/cat_mico.mp3,11311,001,2020-06-08_18h39.26.172,TranslationElicitation_eng-sona,3.2.4,MacIntel,60,,1,0,81,46,1,80
,,,,,,,,,,,,,,,,,,,,,,,,,,,,,,,,,,,,,,,,,,return,3.017999887,FREIND,FALSE,,,,,,,153,mico,Catalan,Sounds/cat_mico.mp3,11311,001,2020-06-08_18h39.26.172,TranslationElicitation_eng-sona,3.2.4,MacIntel,60,3.017999887,1,0,81,46,1,80
,,,,,,,,,,,,,,,,,,,,,,,,,,,,,,,,,,,,,,,,,,,,,,,,,,,,153,mico,Catalan,Sounds/cat_mico.mp3,11311,001,2020-06-08_18h39.26.172,TranslationElicitation_eng-sona,3.2.4,MacIntel,60,,1,0,81,46,1,80
,,,,,,,,,,,,,,,,,,,,,,,,,,,,,,,,,,,,,,,,,,g,1.350000143,G,FALSE,,,,,,,142,girafa,Catalan,Sounds/cat_girafa.mp3,11311,001,2020-06-08_18h39.26.172,TranslationElicitation_eng-sona,3.2.4,MacIntel,60,,1,0,81,36,1,80
,,,,,,,,,,,,,,,,,,,,,,,,,,,,,,,,,,,,,,,,,,i,1.46600008,GI,FALSE,,,,,,,142,girafa,Catalan,Sounds/cat_girafa.mp3,11311,001,2020-06-08_18h39.26.172,TranslationElicitation_eng-sona,3.2.4,MacIntel,60,,1,0,81,36,1,80
,,,,,,,,,,,,,,,,,,,,,,,,,,,,,,,,,,,,,,,,,,r,1.565999985,GIR,FALSE,,,,,,,142,girafa,Catalan,Sounds/cat_girafa.mp3,11311,001,2020-06-08_18h39.26.172,TranslationElicitation_eng-sona,3.2.4,MacIntel,60,,1,0,81,36,1,80
,,,,,,,,,,,,,,,,,,,,,,,,,,,,,,,,,,,,,,,,,,a,1.71600008,GIRA,FALSE,,,,,,,142,girafa,Catalan,Sounds/cat_girafa.mp3,11311,001,2020-06-08_18h39.26.172,TranslationElicitation_eng-sona,3.2.4,MacIntel,60,,1,0,81,36,1,80
,,,,,,,,,,,,,,,,,,,,,,,,,,,,,,,,,,,,,,,,,,f,1.832000017,GIRAF,FALSE,,,,,,,142,girafa,Catalan,Sounds/cat_girafa.mp3,11311,001,2020-06-08_18h39.26.172,TranslationElicitation_eng-sona,3.2.4,MacIntel,60,,1,0,81,36,1,80
,,,,,,,,,,,,,,,,,,,,,,,,,,,,,,,,,,,,,,,,,,f,2.049999952,GIRAFF,FALSE,,,,,,,142,girafa,Catalan,Sounds/cat_girafa.mp3,11311,001,2020-06-08_18h39.26.172,TranslationElicitation_eng-sona,3.2.4,MacIntel,60,,1,0,81,36,1,80
,,,,,,,,,,,,,,,,,,,,,,,,,,,,,,,,,,,,,,,,,,e,2.184000015,GIRAFFE,FALSE,,,,,,,142,girafa,Catalan,Sounds/cat_girafa.mp3,11311,001,2020-06-08_18h39.26.172,TranslationElicitation_eng-sona,3.2.4,MacIntel,60,,1,0,81,36,1,80
,,,,,,,,,,,,,,,,,,,,,,,,,,,,,,,,,,,,,,,,,,return,2.334000111,GIRAFFE,FALSE,,,,,,,142,girafa,Catalan,Sounds/cat_girafa.mp3,11311,001,2020-06-08_18h39.26.172,TranslationElicitation_eng-sona,3.2.4,MacIntel,60,2.334000111,1,0,81,36,1,80
,,,,,,,,,,,,,,,,,,,,,,,,,,,,,,,,,,,,,,,,,,,,,,,,,,,,142,girafa,Catalan,Sounds/cat_girafa.mp3,11311,001,2020-06-08_18h39.26.172,TranslationElicitation_eng-sona,3.2.4,MacIntel,60,,1,0,81,36,1,80
,,,,,,,,,,,,,,,,,,,,,,,,,,,,,,,,,,,,,,,,,,m,1.5,M,FALSE,,,,,,,113,boca,Catalan,Sounds/cat_boca.mp3,11311,001,2020-06-08_18h39.26.172,TranslationElicitation_eng-sona,3.2.4,MacIntel,60,,1,0,81,8,1,80
,,,,,,,,,,,,,,,,,,,,,,,,,,,,,,,,,,,,,,,,,,p,1.667999983,MP,FALSE,,,,,,,113,boca,Catalan,Sounds/cat_boca.mp3,11311,001,2020-06-08_18h39.26.172,TranslationElicitation_eng-sona,3.2.4,MacIntel,60,,1,0,81,8,1,80
,,,,,,,,,,,,,,,,,,,,,,,,,,,,,,,,,,,,,,,,,,u,1.801000118,MPU,FALSE,,,,,,,113,boca,Catalan,Sounds/cat_boca.mp3,11311,001,2020-06-08_18h39.26.172,TranslationElicitation_eng-sona,3.2.4,MacIntel,60,,1,0,81,8,1,80
,,,,,,,,,,,,,,,,,,,,,,,,,,,,,,,,,,,,,,,,,,backspace,2.167999983,M,TRUE,,,,,,,113,boca,Catalan,Sounds/cat_boca.mp3,11311,001,2020-06-08_18h39.26.172,TranslationElicitation_eng-sona,3.2.4,MacIntel,60,,1,0,81,8,1,80
,,,,,,,,,,,,,,,,,,,,,,,,,,,,,,,,,,,,,,,,,,backspace,2.25,,TRUE,,,,,,,113,boca,Catalan,Sounds/cat_boca.mp3,11311,001,2020-06-08_18h39.26.172,TranslationElicitation_eng-sona,3.2.4,MacIntel,60,,1,0,81,8,1,80
,,,,,,,,,,,,,,,,,,,,,,,,,,,,,,,,,,,,,,,,,,o,2.483999968,O,TRUE,,,,,,,113,boca,Catalan,Sounds/cat_boca.mp3,11311,001,2020-06-08_18h39.26.172,TranslationElicitation_eng-sona,3.2.4,MacIntel,60,,1,0,81,8,1,80
,,,,,,,,,,,,,,,,,,,,,,,,,,,,,,,,,,,,,,,,,,backspace,2.950999975,,TRUE,,,,,,,113,boca,Catalan,Sounds/cat_boca.mp3,11311,001,2020-06-08_18h39.26.172,TranslationElicitation_eng-sona,3.2.4,MacIntel,60,,1,0,81,8,1,80
,,,,,,,,,,,,,,,,,,,,,,,,,,,,,,,,,,,,,,,,,,m,3.167999983,M,TRUE,,,,,,,113,boca,Catalan,Sounds/cat_boca.mp3,11311,001,2020-06-08_18h39.26.172,TranslationElicitation_eng-sona,3.2.4,MacIntel,60,,1,0,81,8,1,80
,,,,,,,,,,,,,,,,,,,,,,,,,,,,,,,,,,,,,,,,,,o,3.334000111,MO,TRUE,,,,,,,113,boca,Catalan,Sounds/cat_boca.mp3,11311,001,2020-06-08_18h39.26.172,TranslationElicitation_eng-sona,3.2.4,MacIntel,60,,1,0,81,8,1,80
,,,,,,,,,,,,,,,,,,,,,,,,,,,,,,,,,,,,,,,,,,u,3.483999968,MOU,TRUE,,,,,,,113,boca,Catalan,Sounds/cat_boca.mp3,11311,001,2020-06-08_18h39.26.172,TranslationElicitation_eng-sona,3.2.4,MacIntel,60,,1,0,81,8,1,80
,,,,,,,,,,,,,,,,,,,,,,,,,,,,,,,,,,,,,,,,,,t,3.601000071,MOUT,TRUE,,,,,,,113,boca,Catalan,Sounds/cat_boca.mp3,11311,001,2020-06-08_18h39.26.172,TranslationElicitation_eng-sona,3.2.4,MacIntel,60,,1,0,81,8,1,80
,,,,,,,,,,,,,,,,,,,,,,,,,,,,,,,,,,,,,,,,,,h,3.700999975,MOUTH,TRUE,,,,,,,113,boca,Catalan,Sounds/cat_boca.mp3,11311,001,2020-06-08_18h39.26.172,TranslationElicitation_eng-sona,3.2.4,MacIntel,60,,1,0,81,8,1,80
,,,,,,,,,,,,,,,,,,,,,,,,,,,,,,,,,,,,,,,,,,return,3.884000063,MOUTH,TRUE,,,,,,,113,boca,Catalan,Sounds/cat_boca.mp3,11311,001,2020-06-08_18h39.26.172,TranslationElicitation_eng-sona,3.2.4,MacIntel,60,3.884000063,1,0,81,8,1,80
,,,,,,,,,,,,,,,,,,,,,,,,,,,,,,,,,,,,,,,,,,,,,,,,,,,,113,boca,Catalan,Sounds/cat_boca.mp3,11311,001,2020-06-08_18h39.26.172,TranslationElicitation_eng-sona,3.2.4,MacIntel,60,,1,0,81,8,1,80
,,,,,,,,,,,,,,,,,,,,,,,,,,,,,,,,,,,,,,,,,,t,2.032999992,T,FALSE,,,,,,,180,tisores,Catalan,Sounds/cat_tisores.mp3,11311,001,2020-06-08_18h39.26.172,TranslationElicitation_eng-sona,3.2.4,MacIntel,60,,1,0,81,71,1,80
,,,,,,,,,,,,,,,,,,,,,,,,,,,,,,,,,,,,,,,,,,r,2.19900012,TR,FALSE,,,,,,,180,tisores,Catalan,Sounds/cat_tisores.mp3,11311,001,2020-06-08_18h39.26.172,TranslationElicitation_eng-sona,3.2.4,MacIntel,60,,1,0,81,71,1,80
,,,,,,,,,,,,,,,,,,,,,,,,,,,,,,,,,,,,,,,,,,e,2.315999985,TRE,FALSE,,,,,,,180,tisores,Catalan,Sounds/cat_tisores.mp3,11311,001,2020-06-08_18h39.26.172,TranslationElicitation_eng-sona,3.2.4,MacIntel,60,,1,0,81,71,1,80
,,,,,,,,,,,,,,,,,,,,,,,,,,,,,,,,,,,,,,,,,,a,2.48300004,TREA,FALSE,,,,,,,180,tisores,Catalan,Sounds/cat_tisores.mp3,11311,001,2020-06-08_18h39.26.172,TranslationElicitation_eng-sona,3.2.4,MacIntel,60,,1,0,81,71,1,80
,,,,,,,,,,,,,,,,,,,,,,,,,,,,,,,,,,,,,,,,,,s,2.700000048,TREAS,FALSE,,,,,,,180,tisores,Catalan,Sounds/cat_tisores.mp3,11311,001,2020-06-08_18h39.26.172,TranslationElicitation_eng-sona,3.2.4,MacIntel,60,,1,0,81,71,1,80
,,,,,,,,,,,,,,,,,,,,,,,,,,,,,,,,,,,,,,,,,,u,3.383000135,TREASU,FALSE,,,,,,,180,tisores,Catalan,Sounds/cat_tisores.mp3,11311,001,2020-06-08_18h39.26.172,TranslationElicitation_eng-sona,3.2.4,MacIntel,60,,1,0,81,71,1,80
,,,,,,,,,,,,,,,,,,,,,,,,,,,,,,,,,,,,,,,,,,r,3.5,TREASUR,FALSE,,,,,,,180,tisores,Catalan,Sounds/cat_tisores.mp3,11311,001,2020-06-08_18h39.26.172,TranslationElicitation_eng-sona,3.2.4,MacIntel,60,,1,0,81,71,1,80
,,,,,,,,,,,,,,,,,,,,,,,,,,,,,,,,,,,,,,,,,,e,3.586000204,TREASURE,FALSE,,,,,,,180,tisores,Catalan,Sounds/cat_tisores.mp3,11311,001,2020-06-08_18h39.26.172,TranslationElicitation_eng-sona,3.2.4,MacIntel,60,,1,0,81,71,1,80
,,,,,,,,,,,,,,,,,,,,,,,,,,,,,,,,,,,,,,,,,,return,3.75,TREASURE,FALSE,,,,,,,180,tisores,Catalan,Sounds/cat_tisores.mp3,11311,001,2020-06-08_18h39.26.172,TranslationElicitation_eng-sona,3.2.4,MacIntel,60,3.75,1,0,81,71,1,80
,,,,,,,,,,,,,,,,,,,,,,,,,,,,,,,,,,,,,,,,,,,,,,,,,,,,180,tisores,Catalan,Sounds/cat_tisores.mp3,11311,001,2020-06-08_18h39.26.172,TranslationElicitation_eng-sona,3.2.4,MacIntel,60,,1,0,81,71,1,80
,,,,,,,,,,,,,,,,,,,,,,,,,,,,,,,,,,,,,,,,,,p,3.899999857,P,FALSE,,,,,,,130,entrepa,Catalan,Sounds/cat_entrepa.mp3,11311,001,2020-06-08_18h39.26.172,TranslationElicitation_eng-sona,3.2.4,MacIntel,60,,1,0,81,24,1,80
,,,,,,,,,,,,,,,,,,,,,,,,,,,,,,,,,,,,,,,,,,e,4.03399992,PE,FALSE,,,,,,,130,entrepa,Catalan,Sounds/cat_entrepa.mp3,11311,001,2020-06-08_18h39.26.172,TranslationElicitation_eng-sona,3.2.4,MacIntel,60,,1,0,81,24,1,80
,,,,,,,,,,,,,,,,,,,,,,,,,,,,,,,,,,,,,,,,,,o,4.115999937,PEO,FALSE,,,,,,,130,entrepa,Catalan,Sounds/cat_entrepa.mp3,11311,001,2020-06-08_18h39.26.172,TranslationElicitation_eng-sona,3.2.4,MacIntel,60,,1,0,81,24,1,80
,,,,,,,,,,,,,,,,,,,,,,,,,,,,,,,,,,,,,,,,,,p,4.23300004,PEOP,FALSE,,,,,,,130,entrepa,Catalan,Sounds/cat_entrepa.mp3,11311,001,2020-06-08_18h39.26.172,TranslationElicitation_eng-sona,3.2.4,MacIntel,60,,1,0,81,24,1,80
,,,,,,,,,,,,,,,,,,,,,,,,,,,,,,,,,,,,,,,,,,l,4.349999905,PEOPL,FALSE,,,,,,,130,entrepa,Catalan,Sounds/cat_entrepa.mp3,11311,001,2020-06-08_18h39.26.172,TranslationElicitation_eng-sona,3.2.4,MacIntel,60,,1,0,81,24,1,80
,,,,,,,,,,,,,,,,,,,,,,,,,,,,,,,,,,,,,,,,,,e,4.450999975,PEOPLE,FALSE,,,,,,,130,entrepa,Catalan,Sounds/cat_entrepa.mp3,11311,001,2020-06-08_18h39.26.172,TranslationElicitation_eng-sona,3.2.4,MacIntel,60,,1,0,81,24,1,80
,,,,,,,,,,,,,,,,,,,,,,,,,,,,,,,,,,,,,,,,,,return,5,PEOPLE,FALSE,,,,,,,130,entrepa,Catalan,Sounds/cat_entrepa.mp3,11311,001,2020-06-08_18h39.26.172,TranslationElicitation_eng-sona,3.2.4,MacIntel,60,5,1,0,81,24,1,80
,,,,,,,,,,,,,,,,,,,,,,,,,,,,,,,,,,,,,,,,,,,,,,,,,,,,130,entrepa,Catalan,Sounds/cat_entrepa.mp3,11311,001,2020-06-08_18h39.26.172,TranslationElicitation_eng-sona,3.2.4,MacIntel,60,,1,0,81,24,1,80
,,,,,,,,,,,,,,,,,,,,,,,,,,,,,,,,,,,,,,,,,,p,1.434000015,P,FALSE,,,,,,,168,planta,Catalan,Sounds/cat_planta.mp3,11311,001,2020-06-08_18h39.26.172,TranslationElicitation_eng-sona,3.2.4,MacIntel,60,,1,0,81,60,1,80
,,,,,,,,,,,,,,,,,,,,,,,,,,,,,,,,,,,,,,,,,,l,1.599999905,PL,FALSE,,,,,,,168,planta,Catalan,Sounds/cat_planta.mp3,11311,001,2020-06-08_18h39.26.172,TranslationElicitation_eng-sona,3.2.4,MacIntel,60,,1,0,81,60,1,80
,,,,,,,,,,,,,,,,,,,,,,,,,,,,,,,,,,,,,,,,,,a,1.733999968,PLA,FALSE,,,,,,,168,planta,Catalan,Sounds/cat_planta.mp3,11311,001,2020-06-08_18h39.26.172,TranslationElicitation_eng-sona,3.2.4,MacIntel,60,,1,0,81,60,1,80
,,,,,,,,,,,,,,,,,,,,,,,,,,,,,,,,,,,,,,,,,,n,1.883999825,PLAN,FALSE,,,,,,,168,planta,Catalan,Sounds/cat_planta.mp3,11311,001,2020-06-08_18h39.26.172,TranslationElicitation_eng-sona,3.2.4,MacIntel,60,,1,0,81,60,1,80
,,,,,,,,,,,,,,,,,,,,,,,,,,,,,,,,,,,,,,,,,,t,2.03399992,PLANT,FALSE,,,,,,,168,planta,Catalan,Sounds/cat_planta.mp3,11311,001,2020-06-08_18h39.26.172,TranslationElicitation_eng-sona,3.2.4,MacIntel,60,,1,0,81,60,1,80
,,,,,,,,,,,,,,,,,,,,,,,,,,,,,,,,,,,,,,,,,,return,2.467000008,PLANT,FALSE,,,,,,,168,planta,Catalan,Sounds/cat_planta.mp3,11311,001,2020-06-08_18h39.26.172,TranslationElicitation_eng-sona,3.2.4,MacIntel,60,2.467000008,1,0,81,60,1,80
,,,,,,,,,,,,,,,,,,,,,,,,,,,,,,,,,,,,,,,,,,,,,,,,,,,,168,planta,Catalan,Sounds/cat_planta.mp3,11311,001,2020-06-08_18h39.26.172,TranslationElicitation_eng-sona,3.2.4,MacIntel,60,,1,0,81,60,1,80
,,,,,,,,,,,,,,,,,,,,,,,,,,,,,,,,,,,,,,,,,,b,1.500999928,B,FALSE,,,,,,,120,cama,Catalan,Sounds/cat_cama.mp3,11311,001,2020-06-08_18h39.26.172,TranslationElicitation_eng-sona,3.2.4,MacIntel,60,,1,0,81,15,1,80
,,,,,,,,,,,,,,,,,,,,,,,,,,,,,,,,,,,,,,,,,,e,1.618000031,BE,FALSE,,,,,,,120,cama,Catalan,Sounds/cat_cama.mp3,11311,001,2020-06-08_18h39.26.172,TranslationElicitation_eng-sona,3.2.4,MacIntel,60,,1,0,81,15,1,80
,,,,,,,,,,,,,,,,,,,,,,,,,,,,,,,,,,,,,,,,,,d,1.782999992,BED,FALSE,,,,,,,120,cama,Catalan,Sounds/cat_cama.mp3,11311,001,2020-06-08_18h39.26.172,TranslationElicitation_eng-sona,3.2.4,MacIntel,60,,1,0,81,15,1,80
,,,,,,,,,,,,,,,,,,,,,,,,,,,,,,,,,,,,,,,,,,return,1.883999825,BED,FALSE,,,,,,,120,cama,Catalan,Sounds/cat_cama.mp3,11311,001,2020-06-08_18h39.26.172,TranslationElicitation_eng-sona,3.2.4,MacIntel,60,1.883999825,1,0,81,15,1,80
,,,,,,,,,,,,,,,,,,,,,,,,,,,,,,,,,,,,,,,,,,,,,,,,,,,,120,cama,Catalan,Sounds/cat_cama.mp3,11311,001,2020-06-08_18h39.26.172,TranslationElicitation_eng-sona,3.2.4,MacIntel,60,,1,0,81,15,1,80
,,,,,,,,,,,,,,,,,,,,,,,,,,,,,,,,,,,,,,,,,,b,5.251000166,B,FALSE,,,,,,,128,cuc,Catalan,Sounds/cat_cuc.mp3,11311,001,2020-06-08_18h39.26.172,TranslationElicitation_eng-sona,3.2.4,MacIntel,60,,1,0,81,22,1,80
,,,,,,,,,,,,,,,,,,,,,,,,,,,,,,,,,,,,,,,,,,backspace,5.952000141,,TRUE,,,,,,,128,cuc,Catalan,Sounds/cat_cuc.mp3,11311,001,2020-06-08_18h39.26.172,TranslationElicitation_eng-sona,3.2.4,MacIntel,60,,1,0,81,22,1,80
,,,,,,,,,,,,,,,,,,,,,,,,,,,,,,,,,,,,,,,,,,r,10.0860002,R,TRUE,,,,,,,128,cuc,Catalan,Sounds/cat_cuc.mp3,11311,001,2020-06-08_18h39.26.172,TranslationElicitation_eng-sona,3.2.4,MacIntel,60,,1,0,81,22,1,80
,,,,,,,,,,,,,,,,,,,,,,,,,,,,,,,,,,,,,,,,,,o,10.20200014,RO,TRUE,,,,,,,128,cuc,Catalan,Sounds/cat_cuc.mp3,11311,001,2020-06-08_18h39.26.172,TranslationElicitation_eng-sona,3.2.4,MacIntel,60,,1,0,81,22,1,80
,,,,,,,,,,,,,,,,,,,,,,,,,,,,,,,,,,,,,,,,,,f,10.40200019,ROF,TRUE,,,,,,,128,cuc,Catalan,Sounds/cat_cuc.mp3,11311,001,2020-06-08_18h39.26.172,TranslationElicitation_eng-sona,3.2.4,MacIntel,60,,1,0,81,22,1,80
,,,,,,,,,,,,,,,,,,,,,,,,,,,,,,,,,,,,,,,,,,backspace,10.88600016,R,TRUE,,,,,,,128,cuc,Catalan,Sounds/cat_cuc.mp3,11311,001,2020-06-08_18h39.26.172,TranslationElicitation_eng-sona,3.2.4,MacIntel,60,,1,0,81,22,1,80
,,,,,,,,,,,,,,,,,,,,,,,,,,,,,,,,,,,,,,,,,,o,11.07000017,RO,TRUE,,,,,,,128,cuc,Catalan,Sounds/cat_cuc.mp3,11311,001,2020-06-08_18h39.26.172,TranslationElicitation_eng-sona,3.2.4,MacIntel,60,,1,0,81,22,1,80
,,,,,,,,,,,,,,,,,,,,,,,,,,,,,,,,,,,,,,,,,,f,11.23900008,ROF,TRUE,,,,,,,128,cuc,Catalan,Sounds/cat_cuc.mp3,11311,001,2020-06-08_18h39.26.172,TranslationElicitation_eng-sona,3.2.4,MacIntel,60,,1,0,81,22,1,80
,,,,,,,,,,,,,,,,,,,,,,,,,,,,,,,,,,,,,,,,,,return,11.35300016,ROF,TRUE,,,,,,,128,cuc,Catalan,Sounds/cat_cuc.mp3,11311,001,2020-06-08_18h39.26.172,TranslationElicitation_eng-sona,3.2.4,MacIntel,60,11.35300016,1,0,81,22,1,80
,,,,,,,,,,,,,,,,,,,,,,,,,,,,,,,,,,,,,,,,,,,,,,,,,,,,128,cuc,Catalan,Sounds/cat_cuc.mp3,11311,001,2020-06-08_18h39.26.172,TranslationElicitation_eng-sona,3.2.4,MacIntel,60,,1,0,81,22,1,80
,,,,,,,,,,,,,,,,,,,,,,,,,,,,,,,,,,,,,,,,,,l,2.199999809,L,FALSE,,,,,,,137,fulla,Catalan,Sounds/cat_fulla.mp3,11311,001,2020-06-08_18h39.26.172,TranslationElicitation_eng-sona,3.2.4,MacIntel,60,,1,0,81,31,1,80
,,,,,,,,,,,,,,,,,,,,,,,,,,,,,,,,,,,,,,,,,,e,2.25,LE,FALSE,,,,,,,137,fulla,Catalan,Sounds/cat_fulla.mp3,11311,001,2020-06-08_18h39.26.172,TranslationElicitation_eng-sona,3.2.4,MacIntel,60,,1,0,81,31,1,80
,,,,,,,,,,,,,,,,,,,,,,,,,,,,,,,,,,,,,,,,,,a,2.383999825,LEA,FALSE,,,,,,,137,fulla,Catalan,Sounds/cat_fulla.mp3,11311,001,2020-06-08_18h39.26.172,TranslationElicitation_eng-sona,3.2.4,MacIntel,60,,1,0,81,31,1,80
,,,,,,,,,,,,,,,,,,,,,,,,,,,,,,,,,,,,,,,,,,f,2.516000032,LEAF,FALSE,,,,,,,137,fulla,Catalan,Sounds/cat_fulla.mp3,11311,001,2020-06-08_18h39.26.172,TranslationElicitation_eng-sona,3.2.4,MacIntel,60,,1,0,81,31,1,80
,,,,,,,,,,,,,,,,,,,,,,,,,,,,,,,,,,,,,,,,,,return,2.616999865,LEAF,FALSE,,,,,,,137,fulla,Catalan,Sounds/cat_fulla.mp3,11311,001,2020-06-08_18h39.26.172,TranslationElicitation_eng-sona,3.2.4,MacIntel,60,2.616999865,1,0,81,31,1,80
,,,,,,,,,,,,,,,,,,,,,,,,,,,,,,,,,,,,,,,,,,,,,,,,,,,,137,fulla,Catalan,Sounds/cat_fulla.mp3,11311,001,2020-06-08_18h39.26.172,TranslationElicitation_eng-sona,3.2.4,MacIntel,60,,1,0,81,31,1,80
,,,,,,,,,,,,,,,,,,,,,,,,,,,,,,,,,,,,,,,,,,g,1.15199995,G,FALSE,,,,,,,146,guitarra,Catalan,Sounds/cat_guitarra.mp3,11311,001,2020-06-08_18h39.26.172,TranslationElicitation_eng-sona,3.2.4,MacIntel,60,,1,0,81,40,1,80
,,,,,,,,,,,,,,,,,,,,,,,,,,,,,,,,,,,,,,,,,,u,1.333999872,GU,FALSE,,,,,,,146,guitarra,Catalan,Sounds/cat_guitarra.mp3,11311,001,2020-06-08_18h39.26.172,TranslationElicitation_eng-sona,3.2.4,MacIntel,60,,1,0,81,40,1,80
,,,,,,,,,,,,,,,,,,,,,,,,,,,,,,,,,,,,,,,,,,i,1.417000055,GUI,FALSE,,,,,,,146,guitarra,Catalan,Sounds/cat_guitarra.mp3,11311,001,2020-06-08_18h39.26.172,TranslationElicitation_eng-sona,3.2.4,MacIntel,60,,1,0,81,40,1,80
,,,,,,,,,,,,,,,,,,,,,,,,,,,,,,,,,,,,,,,,,,t,1.51699996,GUIT,FALSE,,,,,,,146,guitarra,Catalan,Sounds/cat_guitarra.mp3,11311,001,2020-06-08_18h39.26.172,TranslationElicitation_eng-sona,3.2.4,MacIntel,60,,1,0,81,40,1,80
,,,,,,,,,,,,,,,,,,,,,,,,,,,,,,,,,,,,,,,,,,a,1.717000008,GUITA,FALSE,,,,,,,146,guitarra,Catalan,Sounds/cat_guitarra.mp3,11311,001,2020-06-08_18h39.26.172,TranslationElicitation_eng-sona,3.2.4,MacIntel,60,,1,0,81,40,1,80
,,,,,,,,,,,,,,,,,,,,,,,,,,,,,,,,,,,,,,,,,,r,2.48300004,GUITAR,FALSE,,,,,,,146,guitarra,Catalan,Sounds/cat_guitarra.mp3,11311,001,2020-06-08_18h39.26.172,TranslationElicitation_eng-sona,3.2.4,MacIntel,60,,1,0,81,40,1,80
,,,,,,,,,,,,,,,,,,,,,,,,,,,,,,,,,,,,,,,,,,return,2.802000046,GUITAR,FALSE,,,,,,,146,guitarra,Catalan,Sounds/cat_guitarra.mp3,11311,001,2020-06-08_18h39.26.172,TranslationElicitation_eng-sona,3.2.4,MacIntel,60,2.802000046,1,0,81,40,1,80
,,,,,,,,,,,,,,,,,,,,,,,,,,,,,,,,,,,,,,,,,,,,,,,,,,,,146,guitarra,Catalan,Sounds/cat_guitarra.mp3,11311,001,2020-06-08_18h39.26.172,TranslationElicitation_eng-sona,3.2.4,MacIntel,60,,1,0,81,40,1,80
,,,,,,,,,,,,,,,,,,,,,,,,,,,,,,,,,,,,,,,,,,t,1.767000198,T,FALSE,,,,,,,183,tren,Catalan,Sounds/cat_tren.mp3,11311,001,2020-06-08_18h39.26.172,TranslationElicitation_eng-sona,3.2.4,MacIntel,60,,1,0,81,74,1,80
,,,,,,,,,,,,,,,,,,,,,,,,,,,,,,,,,,,,,,,,,,r,1.934000015,TR,FALSE,,,,,,,183,tren,Catalan,Sounds/cat_tren.mp3,11311,001,2020-06-08_18h39.26.172,TranslationElicitation_eng-sona,3.2.4,MacIntel,60,,1,0,81,74,1,80
,,,,,,,,,,,,,,,,,,,,,,,,,,,,,,,,,,,,,,,,,,a,2.217000008,TRA,FALSE,,,,,,,183,tren,Catalan,Sounds/cat_tren.mp3,11311,001,2020-06-08_18h39.26.172,TranslationElicitation_eng-sona,3.2.4,MacIntel,60,,1,0,81,74,1,80
,,,,,,,,,,,,,,,,,,,,,,,,,,,,,,,,,,,,,,,,,,i,2.418000221,TRAI,FALSE,,,,,,,183,tren,Catalan,Sounds/cat_tren.mp3,11311,001,2020-06-08_18h39.26.172,TranslationElicitation_eng-sona,3.2.4,MacIntel,60,,1,0,81,74,1,80
,,,,,,,,,,,,,,,,,,,,,,,,,,,,,,,,,,,,,,,,,,n,2.551000118,TRAIN,FALSE,,,,,,,183,tren,Catalan,Sounds/cat_tren.mp3,11311,001,2020-06-08_18h39.26.172,TranslationElicitation_eng-sona,3.2.4,MacIntel,60,,1,0,81,74,1,80
,,,,,,,,,,,,,,,,,,,,,,,,,,,,,,,,,,,,,,,,,,return,2.768000126,TRAIN,FALSE,,,,,,,183,tren,Catalan,Sounds/cat_tren.mp3,11311,001,2020-06-08_18h39.26.172,TranslationElicitation_eng-sona,3.2.4,MacIntel,60,2.768000126,1,0,81,74,1,80
,,,,,,,,,,,,,,,,,,,,,,,,,,,,,,,,,,,,,,,,,,,,,,,,,,,,183,tren,Catalan,Sounds/cat_tren.mp3,11311,001,2020-06-08_18h39.26.172,TranslationElicitation_eng-sona,3.2.4,MacIntel,60,,1,0,81,74,1,80
,,,,,,,,,,,,,,,,,,,,,,,,,,,,,,,,,,,,,,,,,,e,2.8349998,E,FALSE,,,,,,,160,orella,Catalan,Sounds/cat_orella.mp3,11311,001,2020-06-08_18h39.26.172,TranslationElicitation_eng-sona,3.2.4,MacIntel,60,,1,0,81,52,1,80
,,,,,,,,,,,,,,,,,,,,,,,,,,,,,,,,,,,,,,,,,,a,2.967000008,EA,FALSE,,,,,,,160,orella,Catalan,Sounds/cat_orella.mp3,11311,001,2020-06-08_18h39.26.172,TranslationElicitation_eng-sona,3.2.4,MacIntel,60,,1,0,81,52,1,80
,,,,,,,,,,,,,,,,,,,,,,,,,,,,,,,,,,,,,,,,,,r,3.116999865,EAR,FALSE,,,,,,,160,orella,Catalan,Sounds/cat_orella.mp3,11311,001,2020-06-08_18h39.26.172,TranslationElicitation_eng-sona,3.2.4,MacIntel,60,,1,0,81,52,1,80
,,,,,,,,,,,,,,,,,,,,,,,,,,,,,,,,,,,,,,,,,,return,3.284999847,EAR,FALSE,,,,,,,160,orella,Catalan,Sounds/cat_orella.mp3,11311,001,2020-06-08_18h39.26.172,TranslationElicitation_eng-sona,3.2.4,MacIntel,60,3.284999847,1,0,81,52,1,80
,,,,,,,,,,,,,,,,,,,,,,,,,,,,,,,,,,,,,,,,,,,,,,,,,,,,160,orella,Catalan,Sounds/cat_orella.mp3,11311,001,2020-06-08_18h39.26.172,TranslationElicitation_eng-sona,3.2.4,MacIntel,60,,1,0,81,52,1,80
,,,,,,,,,,,,,,,,,,,,,,,,,,,,,,,,,,,,,,,,,,d,1.766000032,D,FALSE,,,,,,,174,porta,Catalan,Sounds/cat_porta.mp3,11311,001,2020-06-08_18h39.26.172,TranslationElicitation_eng-sona,3.2.4,MacIntel,60,,1,0,81,66,1,80
,,,,,,,,,,,,,,,,,,,,,,,,,,,,,,,,,,,,,,,,,,o,1.933000088,DO,FALSE,,,,,,,174,porta,Catalan,Sounds/cat_porta.mp3,11311,001,2020-06-08_18h39.26.172,TranslationElicitation_eng-sona,3.2.4,MacIntel,60,,1,0,81,66,1,80
,,,,,,,,,,,,,,,,,,,,,,,,,,,,,,,,,,,,,,,,,,o,2.051000118,DOO,FALSE,,,,,,,174,porta,Catalan,Sounds/cat_porta.mp3,11311,001,2020-06-08_18h39.26.172,TranslationElicitation_eng-sona,3.2.4,MacIntel,60,,1,0,81,66,1,80
,,,,,,,,,,,,,,,,,,,,,,,,,,,,,,,,,,,,,,,,,,r,2.21600008,DOOR,FALSE,,,,,,,174,porta,Catalan,Sounds/cat_porta.mp3,11311,001,2020-06-08_18h39.26.172,TranslationElicitation_eng-sona,3.2.4,MacIntel,60,,1,0,81,66,1,80
,,,,,,,,,,,,,,,,,,,,,,,,,,,,,,,,,,,,,,,,,,return,2.433000088,DOOR,FALSE,,,,,,,174,porta,Catalan,Sounds/cat_porta.mp3,11311,001,2020-06-08_18h39.26.172,TranslationElicitation_eng-sona,3.2.4,MacIntel,60,2.433000088,1,0,81,66,1,80
,,,,,,,,,,,,,,,,,,,,,,,,,,,,,,,,,,,,,,,,,,,,,,,,,,,,174,porta,Catalan,Sounds/cat_porta.mp3,11311,001,2020-06-08_18h39.26.172,TranslationElicitation_eng-sona,3.2.4,MacIntel,60,,1,0,81,66,1,80
,,,,,,,,,,,,,,,,,,,,,,,,,,,,,,,,,,,,,,,,,,l,2.083999872,L,FALSE,,,,,,,149,llibre,Catalan,Sounds/cat_llibre.mp3,11311,001,2020-06-08_18h39.26.172,TranslationElicitation_eng-sona,3.2.4,MacIntel,60,,1,0,81,42,1,80
,,,,,,,,,,,,,,,,,,,,,,,,,,,,,,,,,,,,,,,,,,i,2.234999895,LI,FALSE,,,,,,,149,llibre,Catalan,Sounds/cat_llibre.mp3,11311,001,2020-06-08_18h39.26.172,TranslationElicitation_eng-sona,3.2.4,MacIntel,60,,1,0,81,42,1,80
,,,,,,,,,,,,,,,,,,,,,,,,,,,,,,,,,,,,,,,,,,backspace,4.88499999,,TRUE,,,,,,,149,llibre,Catalan,Sounds/cat_llibre.mp3,11311,001,2020-06-08_18h39.26.172,TranslationElicitation_eng-sona,3.2.4,MacIntel,60,,1,0,81,42,1,80
,,,,,,,,,,,,,,,,,,,,,,,,,,,,,,,,,,,,,,,,,,b,5.934999943,B,TRUE,,,,,,,149,llibre,Catalan,Sounds/cat_llibre.mp3,11311,001,2020-06-08_18h39.26.172,TranslationElicitation_eng-sona,3.2.4,MacIntel,60,,1,0,81,42,1,80
,,,,,,,,,,,,,,,,,,,,,,,,,,,,,,,,,,,,,,,,,,o,6.052999973,BO,TRUE,,,,,,,149,llibre,Catalan,Sounds/cat_llibre.mp3,11311,001,2020-06-08_18h39.26.172,TranslationElicitation_eng-sona,3.2.4,MacIntel,60,,1,0,81,42,1,80
,,,,,,,,,,,,,,,,,,,,,,,,,,,,,,,,,,,,,,,,,,o,6.167999983,BOO,TRUE,,,,,,,149,llibre,Catalan,Sounds/cat_llibre.mp3,11311,001,2020-06-08_18h39.26.172,TranslationElicitation_eng-sona,3.2.4,MacIntel,60,,1,0,81,42,1,80
,,,,,,,,,,,,,,,,,,,,,,,,,,,,,,,,,,,,,,,,,,k,6.319000006,BOOK,TRUE,,,,,,,149,llibre,Catalan,Sounds/cat_llibre.mp3,11311,001,2020-06-08_18h39.26.172,TranslationElicitation_eng-sona,3.2.4,MacIntel,60,,1,0,81,42,1,80
,,,,,,,,,,,,,,,,,,,,,,,,,,,,,,,,,,,,,,,,,,return,6.484999895,BOOK,TRUE,,,,,,,149,llibre,Catalan,Sounds/cat_llibre.mp3,11311,001,2020-06-08_18h39.26.172,TranslationElicitation_eng-sona,3.2.4,MacIntel,60,6.484999895,1,0,81,42,1,80
,,,,,,,,,,,,,,,,,,,,,,,,,,,,,,,,,,,,,,,,,,,,,,,,,,,,149,llibre,Catalan,Sounds/cat_llibre.mp3,11311,001,2020-06-08_18h39.26.172,TranslationElicitation_eng-sona,3.2.4,MacIntel,60,,1,0,81,42,1,80
,,,,,,,,,,,,,,,,,,,,,,,,,,,,,,,,,,,,,,,,,,g,3.334000111,G,FALSE,,,,,,,143,globus,Catalan,Sounds/cat_globus.mp3,11311,001,2020-06-08_18h39.26.172,TranslationElicitation_eng-sona,3.2.4,MacIntel,60,,1,0,81,37,1,80
,,,,,,,,,,,,,,,,,,,,,,,,,,,,,,,,,,,,,,,,,,l,3.468000174,GL,FALSE,,,,,,,143,globus,Catalan,Sounds/cat_globus.mp3,11311,001,2020-06-08_18h39.26.172,TranslationElicitation_eng-sona,3.2.4,MacIntel,60,,1,0,81,37,1,80
,,,,,,,,,,,,,,,,,,,,,,,,,,,,,,,,,,,,,,,,,,o,3.633000135,GLO,FALSE,,,,,,,143,globus,Catalan,Sounds/cat_globus.mp3,11311,001,2020-06-08_18h39.26.172,TranslationElicitation_eng-sona,3.2.4,MacIntel,60,,1,0,81,37,1,80
,,,,,,,,,,,,,,,,,,,,,,,,,,,,,,,,,,,,,,,,,,v,3.717000008,GLOV,FALSE,,,,,,,143,globus,Catalan,Sounds/cat_globus.mp3,11311,001,2020-06-08_18h39.26.172,TranslationElicitation_eng-sona,3.2.4,MacIntel,60,,1,0,81,37,1,80
,,,,,,,,,,,,,,,,,,,,,,,,,,,,,,,,,,,,,,,,,,e,3.868000031,GLOVE,FALSE,,,,,,,143,globus,Catalan,Sounds/cat_globus.mp3,11311,001,2020-06-08_18h39.26.172,TranslationElicitation_eng-sona,3.2.4,MacIntel,60,,1,0,81,37,1,80
,,,,,,,,,,,,,,,,,,,,,,,,,,,,,,,,,,,,,,,,,,s,4.051000118,GLOVES,FALSE,,,,,,,143,globus,Catalan,Sounds/cat_globus.mp3,11311,001,2020-06-08_18h39.26.172,TranslationElicitation_eng-sona,3.2.4,MacIntel,60,,1,0,81,37,1,80
,,,,,,,,,,,,,,,,,,,,,,,,,,,,,,,,,,,,,,,,,,return,4.235000134,GLOVES,FALSE,,,,,,,143,globus,Catalan,Sounds/cat_globus.mp3,11311,001,2020-06-08_18h39.26.172,TranslationElicitation_eng-sona,3.2.4,MacIntel,60,4.235000134,1,0,81,37,1,80
,,,,,,,,,,,,,,,,,,,,,,,,,,,,,,,,,,,,,,,,,,,,,,,,,,,,143,globus,Catalan,Sounds/cat_globus.mp3,11311,001,2020-06-08_18h39.26.172,TranslationElicitation_eng-sona,3.2.4,MacIntel,60,,1,0,81,37,1,80
,,,,,,,,,,,,,,,,,,,,,,,,,,,,,,,,,,,,,,,,,,return,4.48300004,,FALSE,,,,,,,158,nas,Catalan,Sounds/cat_nas.mp3,11311,001,2020-06-08_18h39.26.172,TranslationElicitation_eng-sona,3.2.4,MacIntel,60,4.48300004,1,0,81,51,1,80
,,,,,,,,,,,,,,,,,,,,,,,,,,,,,,,,,,,,,,,,,,,,,,,,,,,,158,nas,Catalan,Sounds/cat_nas.mp3,11311,001,2020-06-08_18h39.26.172,TranslationElicitation_eng-sona,3.2.4,MacIntel,60,,1,0,81,51,1,80
,,,,,,,,,,,,,,,,,,,,,,,,,,,,,,,,,,,,,,,,,,p,1.184000015,P,FALSE,,,,,,,164,patata,Catalan,Sounds/cat_patata.mp3,11311,001,2020-06-08_18h39.26.172,TranslationElicitation_eng-sona,3.2.4,MacIntel,60,,1,0,81,56,1,80
,,,,,,,,,,,,,,,,,,,,,,,,,,,,,,,,,,,,,,,,,,o,1.284999847,PO,FALSE,,,,,,,164,patata,Catalan,Sounds/cat_patata.mp3,11311,001,2020-06-08_18h39.26.172,TranslationElicitation_eng-sona,3.2.4,MacIntel,60,,1,0,81,56,1,80
,,,,,,,,,,,,,,,,,,,,,,,,,,,,,,,,,,,,,,,,,,t,1.467999935,POT,FALSE,,,,,,,164,patata,Catalan,Sounds/cat_patata.mp3,11311,001,2020-06-08_18h39.26.172,TranslationElicitation_eng-sona,3.2.4,MacIntel,60,,1,0,81,56,1,80
,,,,,,,,,,,,,,,,,,,,,,,,,,,,,,,,,,,,,,,,,,a,1.632999897,POTA,FALSE,,,,,,,164,patata,Catalan,Sounds/cat_patata.mp3,11311,001,2020-06-08_18h39.26.172,TranslationElicitation_eng-sona,3.2.4,MacIntel,60,,1,0,81,56,1,80
,,,,,,,,,,,,,,,,,,,,,,,,,,,,,,,,,,,,,,,,,,t,1.782999992,POTAT,FALSE,,,,,,,164,patata,Catalan,Sounds/cat_patata.mp3,11311,001,2020-06-08_18h39.26.172,TranslationElicitation_eng-sona,3.2.4,MacIntel,60,,1,0,81,56,1,80
,,,,,,,,,,,,,,,,,,,,,,,,,,,,,,,,,,,,,,,,,,o,1.934999943,POTATO,FALSE,,,,,,,164,patata,Catalan,Sounds/cat_patata.mp3,11311,001,2020-06-08_18h39.26.172,TranslationElicitation_eng-sona,3.2.4,MacIntel,60,,1,0,81,56,1,80
,,,,,,,,,,,,,,,,,,,,,,,,,,,,,,,,,,,,,,,,,,return,2.55099988,POTATO,FALSE,,,,,,,164,patata,Catalan,Sounds/cat_patata.mp3,11311,001,2020-06-08_18h39.26.172,TranslationElicitation_eng-sona,3.2.4,MacIntel,60,2.55099988,1,0,81,56,1,80
,,,,,,,,,,,,,,,,,,,,,,,,,,,,,,,,,,,,,,,,,,,,,,,,,,,,164,patata,Catalan,Sounds/cat_patata.mp3,11311,001,2020-06-08_18h39.26.172,TranslationElicitation_eng-sona,3.2.4,MacIntel,60,,1,0,81,56,1,80
,,,,,,,,,,,,,,,,,,,,,,,,,,,,,,,,,,,,,,,,,,m,3.750999928,M,FALSE,,,,,,,124,cirera,Catalan,Sounds/cat_cirera.mp3,11311,001,2020-06-08_18h39.26.172,TranslationElicitation_eng-sona,3.2.4,MacIntel,60,,1,0,81,19,1,80
,,,,,,,,,,,,,,,,,,,,,,,,,,,,,,,,,,,,,,,,,,e,3.851000071,ME,FALSE,,,,,,,124,cirera,Catalan,Sounds/cat_cirera.mp3,11311,001,2020-06-08_18h39.26.172,TranslationElicitation_eng-sona,3.2.4,MacIntel,60,,1,0,81,19,1,80
,,,,,,,,,,,,,,,,,,,,,,,,,,,,,,,,,,,,,,,,,,r,3.98300004,MER,FALSE,,,,,,,124,cirera,Catalan,Sounds/cat_cirera.mp3,11311,001,2020-06-08_18h39.26.172,TranslationElicitation_eng-sona,3.2.4,MacIntel,60,,1,0,81,19,1,80
,,,,,,,,,,,,,,,,,,,,,,,,,,,,,,,,,,,,,,,,,,m,4.101000071,MERM,FALSE,,,,,,,124,cirera,Catalan,Sounds/cat_cirera.mp3,11311,001,2020-06-08_18h39.26.172,TranslationElicitation_eng-sona,3.2.4,MacIntel,60,,1,0,81,19,1,80
,,,,,,,,,,,,,,,,,,,,,,,,,,,,,,,,,,,,,,,,,,a,4.233999968,MERMA,FALSE,,,,,,,124,cirera,Catalan,Sounds/cat_cirera.mp3,11311,001,2020-06-08_18h39.26.172,TranslationElicitation_eng-sona,3.2.4,MacIntel,60,,1,0,81,19,1,80
,,,,,,,,,,,,,,,,,,,,,,,,,,,,,,,,,,,,,,,,,,i,4.384000063,MERMAI,FALSE,,,,,,,124,cirera,Catalan,Sounds/cat_cirera.mp3,11311,001,2020-06-08_18h39.26.172,TranslationElicitation_eng-sona,3.2.4,MacIntel,60,,1,0,81,19,1,80
,,,,,,,,,,,,,,,,,,,,,,,,,,,,,,,,,,,,,,,,,,d,4.518000126,MERMAID,FALSE,,,,,,,124,cirera,Catalan,Sounds/cat_cirera.mp3,11311,001,2020-06-08_18h39.26.172,TranslationElicitation_eng-sona,3.2.4,MacIntel,60,,1,0,81,19,1,80
,,,,,,,,,,,,,,,,,,,,,,,,,,,,,,,,,,,,,,,,,,return,4.801000118,MERMAID,FALSE,,,,,,,124,cirera,Catalan,Sounds/cat_cirera.mp3,11311,001,2020-06-08_18h39.26.172,TranslationElicitation_eng-sona,3.2.4,MacIntel,60,4.801000118,1,0,81,19,1,80
,,,,,,,,,,,,,,,,,,,,,,,,,,,,,,,,,,,,,,,,,,,,,,,,,,,,124,cirera,Catalan,Sounds/cat_cirera.mp3,11311,001,2020-06-08_18h39.26.172,TranslationElicitation_eng-sona,3.2.4,MacIntel,60,,1,0,81,19,1,80
,,,,,,,,,,,,,,,,,,,,,,,,,,,,,,,,,,,,,,,,,,c,2.750999928,C,FALSE,,,,,,,138,galeta,Catalan,Sounds/cat_galeta.mp3,11311,001,2020-06-08_18h39.26.172,TranslationElicitation_eng-sona,3.2.4,MacIntel,60,,1,0,81,32,1,80
,,,,,,,,,,,,,,,,,,,,,,,,,,,,,,,,,,,,,,,,,,o,2.849999905,CO,FALSE,,,,,,,138,galeta,Catalan,Sounds/cat_galeta.mp3,11311,001,2020-06-08_18h39.26.172,TranslationElicitation_eng-sona,3.2.4,MacIntel,60,,1,0,81,32,1,80
,,,,,,,,,,,,,,,,,,,,,,,,,,,,,,,,,,,,,,,,,,c,2.934000015,COC,FALSE,,,,,,,138,galeta,Catalan,Sounds/cat_galeta.mp3,11311,001,2020-06-08_18h39.26.172,TranslationElicitation_eng-sona,3.2.4,MacIntel,60,,1,0,81,32,1,80
,,,,,,,,,,,,,,,,,,,,,,,,,,,,,,,,,,,,,,,,,,k,3.049999952,COCK,FALSE,,,,,,,138,galeta,Catalan,Sounds/cat_galeta.mp3,11311,001,2020-06-08_18h39.26.172,TranslationElicitation_eng-sona,3.2.4,MacIntel,60,,1,0,81,32,1,80
,,,,,,,,,,,,,,,,,,,,,,,,,,,,,,,,,,,,,,,,,,return,3.967999935,COCK,FALSE,,,,,,,138,galeta,Catalan,Sounds/cat_galeta.mp3,11311,001,2020-06-08_18h39.26.172,TranslationElicitation_eng-sona,3.2.4,MacIntel,60,3.967999935,1,0,81,32,1,80
,,,,,,,,,,,,,,,,,,,,,,,,,,,,,,,,,,,,,,,,,,,,,,,,,,,,138,galeta,Catalan,Sounds/cat_galeta.mp3,11311,001,2020-06-08_18h39.26.172,TranslationElicitation_eng-sona,3.2.4,MacIntel,60,,1,0,81,32,1,80
,,,,,,,,,,,,,,,,,,,,,,,,,,,,,,,,,,,,,,,,,,c,1.71600008,C,FALSE,,,,,,,188,xocolata,Catalan,Sounds/cat_xocolata.mp3,11311,001,2020-06-08_18h39.26.172,TranslationElicitation_eng-sona,3.2.4,MacIntel,60,,1,0,81,79,1,80
,,,,,,,,,,,,,,,,,,,,,,,,,,,,,,,,,,,,,,,,,,h,1.849999905,CH,FALSE,,,,,,,188,xocolata,Catalan,Sounds/cat_xocolata.mp3,11311,001,2020-06-08_18h39.26.172,TranslationElicitation_eng-sona,3.2.4,MacIntel,60,,1,0,81,79,1,80
,,,,,,,,,,,,,,,,,,,,,,,,,,,,,,,,,,,,,,,,,,o,2.433000088,CHO,FALSE,,,,,,,188,xocolata,Catalan,Sounds/cat_xocolata.mp3,11311,001,2020-06-08_18h39.26.172,TranslationElicitation_eng-sona,3.2.4,MacIntel,60,,1,0,81,79,1,80
,,,,,,,,,,,,,,,,,,,,,,,,,,,,,,,,,,,,,,,,,,c,2.565999985,CHOC,FALSE,,,,,,,188,xocolata,Catalan,Sounds/cat_xocolata.mp3,11311,001,2020-06-08_18h39.26.172,TranslationElicitation_eng-sona,3.2.4,MacIntel,60,,1,0,81,79,1,80
,,,,,,,,,,,,,,,,,,,,,,,,,,,,,,,,,,,,,,,,,,o,2.700000048,CHOCO,FALSE,,,,,,,188,xocolata,Catalan,Sounds/cat_xocolata.mp3,11311,001,2020-06-08_18h39.26.172,TranslationElicitation_eng-sona,3.2.4,MacIntel,60,,1,0,81,79,1,80
,,,,,,,,,,,,,,,,,,,,,,,,,,,,,,,,,,,,,,,,,,l,2.882999897,CHOCOL,FALSE,,,,,,,188,xocolata,Catalan,Sounds/cat_xocolata.mp3,11311,001,2020-06-08_18h39.26.172,TranslationElicitation_eng-sona,3.2.4,MacIntel,60,,1,0,81,79,1,80
,,,,,,,,,,,,,,,,,,,,,,,,,,,,,,,,,,,,,,,,,,a,2.98300004,CHOCOLA,FALSE,,,,,,,188,xocolata,Catalan,Sounds/cat_xocolata.mp3,11311,001,2020-06-08_18h39.26.172,TranslationElicitation_eng-sona,3.2.4,MacIntel,60,,1,0,81,79,1,80
,,,,,,,,,,,,,,,,,,,,,,,,,,,,,,,,,,,,,,,,,,t,3.167000055,CHOCOLAT,FALSE,,,,,,,188,xocolata,Catalan,Sounds/cat_xocolata.mp3,11311,001,2020-06-08_18h39.26.172,TranslationElicitation_eng-sona,3.2.4,MacIntel,60,,1,0,81,79,1,80
,,,,,,,,,,,,,,,,,,,,,,,,,,,,,,,,,,,,,,,,,,e,3.332999945,CHOCOLATE,FALSE,,,,,,,188,xocolata,Catalan,Sounds/cat_xocolata.mp3,11311,001,2020-06-08_18h39.26.172,TranslationElicitation_eng-sona,3.2.4,MacIntel,60,,1,0,81,79,1,80
,,,,,,,,,,,,,,,,,,,,,,,,,,,,,,,,,,,,,,,,,,return,3.448999882,CHOCOLATE,FALSE,,,,,,,188,xocolata,Catalan,Sounds/cat_xocolata.mp3,11311,001,2020-06-08_18h39.26.172,TranslationElicitation_eng-sona,3.2.4,MacIntel,60,3.448999882,1,0,81,79,1,80
,,,,,,,,,,,,,,,,,,,,,,,,,,,,,,,,,,,,,,,,,,,,,,,,,,,,188,xocolata,Catalan,Sounds/cat_xocolata.mp3,11311,001,2020-06-08_18h39.26.172,TranslationElicitation_eng-sona,3.2.4,MacIntel,60,,1,0,81,79,1,80
,,,,,,,,,,,,,,,,,,,,,,,,,,,,,,,,,,,,,,,,,,g,5.183000088,G,FALSE,,,,,,,145,got,Catalan,Sounds/cat_got.mp3,11311,001,2020-06-08_18h39.26.172,TranslationElicitation_eng-sona,3.2.4,MacIntel,60,,1,0,81,39,1,80
,,,,,,,,,,,,,,,,,,,,,,,,,,,,,,,,,,,,,,,,,,o,5.250999928,GO,FALSE,,,,,,,145,got,Catalan,Sounds/cat_got.mp3,11311,001,2020-06-08_18h39.26.172,TranslationElicitation_eng-sona,3.2.4,MacIntel,60,,1,0,81,39,1,80
,,,,,,,,,,,,,,,,,,,,,,,,,,,,,,,,,,,,,,,,,,d,5.382999897,GOD,FALSE,,,,,,,145,got,Catalan,Sounds/cat_got.mp3,11311,001,2020-06-08_18h39.26.172,TranslationElicitation_eng-sona,3.2.4,MacIntel,60,,1,0,81,39,1,80
,,,,,,,,,,,,,,,,,,,,,,,,,,,,,,,,,,,,,,,,,,return,5.733999968,GOD,FALSE,,,,,,,145,got,Catalan,Sounds/cat_got.mp3,11311,001,2020-06-08_18h39.26.172,TranslationElicitation_eng-sona,3.2.4,MacIntel,60,5.733999968,1,0,81,39,1,80
,,,,,,,,,,,,,,,,,,,,,,,,,,,,,,,,,,,,,,,,,,,,,,,,,,,,145,got,Catalan,Sounds/cat_got.mp3,11311,001,2020-06-08_18h39.26.172,TranslationElicitation_eng-sona,3.2.4,MacIntel,60,,1,0,81,39,1,80
,,,,,,,,,,,,,,,,,,,,,,,,,,,,,,,,,,,,,,,,,,c,4.832999945,C,FALSE,,,,,,,139,galleda,Catalan,Sounds/cat_galleda.mp3,11311,001,2020-06-08_18h39.26.172,TranslationElicitation_eng-sona,3.2.4,MacIntel,60,,1,0,81,33,1,80
,,,,,,,,,,,,,,,,,,,,,,,,,,,,,,,,,,,,,,,,,,o,4.950000048,CO,FALSE,,,,,,,139,galleda,Catalan,Sounds/cat_galleda.mp3,11311,001,2020-06-08_18h39.26.172,TranslationElicitation_eng-sona,3.2.4,MacIntel,60,,1,0,81,33,1,80
,,,,,,,,,,,,,,,,,,,,,,,,,,,,,,,,,,,,,,,,,,c,5.065999985,COC,FALSE,,,,,,,139,galleda,Catalan,Sounds/cat_galleda.mp3,11311,001,2020-06-08_18h39.26.172,TranslationElicitation_eng-sona,3.2.4,MacIntel,60,,1,0,81,33,1,80
,,,,,,,,,,,,,,,,,,,,,,,,,,,,,,,,,,,,,,,,,,backspace,6.000999928,C,TRUE,,,,,,,139,galleda,Catalan,Sounds/cat_galleda.mp3,11311,001,2020-06-08_18h39.26.172,TranslationElicitation_eng-sona,3.2.4,MacIntel,60,,1,0,81,33,1,80
,,,,,,,,,,,,,,,,,,,,,,,,,,,,,,,,,,,,,,,,,,backspace,6.134000063,,TRUE,,,,,,,139,galleda,Catalan,Sounds/cat_galleda.mp3,11311,001,2020-06-08_18h39.26.172,TranslationElicitation_eng-sona,3.2.4,MacIntel,60,,1,0,81,33,1,80
,,,,,,,,,,,,,,,,,,,,,,,,,,,,,,,,,,,,,,,,,,c,6.75,C,TRUE,,,,,,,139,galleda,Catalan,Sounds/cat_galleda.mp3,11311,001,2020-06-08_18h39.26.172,TranslationElicitation_eng-sona,3.2.4,MacIntel,60,,1,0,81,33,1,80
,,,,,,,,,,,,,,,,,,,,,,,,,,,,,,,,,,,,,,,,,,o,6.901000023,CO,TRUE,,,,,,,139,galleda,Catalan,Sounds/cat_galleda.mp3,11311,001,2020-06-08_18h39.26.172,TranslationElicitation_eng-sona,3.2.4,MacIntel,60,,1,0,81,33,1,80
,,,,,,,,,,,,,,,,,,,,,,,,,,,,,,,,,,,,,,,,,,c,7.101000071,COC,TRUE,,,,,,,139,galleda,Catalan,Sounds/cat_galleda.mp3,11311,001,2020-06-08_18h39.26.172,TranslationElicitation_eng-sona,3.2.4,MacIntel,60,,1,0,81,33,1,80
,,,,,,,,,,,,,,,,,,,,,,,,,,,,,,,,,,,,,,,,,,k,7.217999935,COCK,TRUE,,,,,,,139,galleda,Catalan,Sounds/cat_galleda.mp3,11311,001,2020-06-08_18h39.26.172,TranslationElicitation_eng-sona,3.2.4,MacIntel,60,,1,0,81,33,1,80
,,,,,,,,,,,,,,,,,,,,,,,,,,,,,,,,,,,,,,,,,,backspace,11.28500009,CO,TRUE,,,,,,,139,galleda,Catalan,Sounds/cat_galleda.mp3,11311,001,2020-06-08_18h39.26.172,TranslationElicitation_eng-sona,3.2.4,MacIntel,60,,1,0,81,33,1,80
,,,,,,,,,,,,,,,,,,,,,,,,,,,,,,,,,,,,,,,,,,backspace,11.45200014,,TRUE,,,,,,,139,galleda,Catalan,Sounds/cat_galleda.mp3,11311,001,2020-06-08_18h39.26.172,TranslationElicitation_eng-sona,3.2.4,MacIntel,60,,1,0,81,33,1,80
,,,,,,,,,,,,,,,,,,,,,,,,,,,,,,,,,,,,,,,,,,backspace,11.61800003,,TRUE,,,,,,,139,galleda,Catalan,Sounds/cat_galleda.mp3,11311,001,2020-06-08_18h39.26.172,TranslationElicitation_eng-sona,3.2.4,MacIntel,60,,1,0,81,33,1,80
,,,,,,,,,,,,,,,,,,,,,,,,,,,,,,,,,,,,,,,,,,c,12.56800008,C,TRUE,,,,,,,139,galleda,Catalan,Sounds/cat_galleda.mp3,11311,001,2020-06-08_18h39.26.172,TranslationElicitation_eng-sona,3.2.4,MacIntel,60,,1,0,81,33,1,80
,,,,,,,,,,,,,,,,,,,,,,,,,,,,,,,,,,,,,,,,,,backspace,13.4690001,,TRUE,,,,,,,139,galleda,Catalan,Sounds/cat_galleda.mp3,11311,001,2020-06-08_18h39.26.172,TranslationElicitation_eng-sona,3.2.4,MacIntel,60,,1,0,81,33,1,80
,,,,,,,,,,,,,,,,,,,,,,,,,,,,,,,,,,,,,,,,,,c,13.81800008,C,TRUE,,,,,,,139,galleda,Catalan,Sounds/cat_galleda.mp3,11311,001,2020-06-08_18h39.26.172,TranslationElicitation_eng-sona,3.2.4,MacIntel,60,,1,0,81,33,1,80
,,,,,,,,,,,,,,,,,,,,,,,,,,,,,,,,,,,,,,,,,,r,14.03600001,CR,TRUE,,,,,,,139,galleda,Catalan,Sounds/cat_galleda.mp3,11311,001,2020-06-08_18h39.26.172,TranslationElicitation_eng-sona,3.2.4,MacIntel,60,,1,0,81,33,1,80
,,,,,,,,,,,,,,,,,,,,,,,,,,,,,,,,,,,,,,,,,,a,14.16900015,CRA,TRUE,,,,,,,139,galleda,Catalan,Sounds/cat_galleda.mp3,11311,001,2020-06-08_18h39.26.172,TranslationElicitation_eng-sona,3.2.4,MacIntel,60,,1,0,81,33,1,80
,,,,,,,,,,,,,,,,,,,,,,,,,,,,,,,,,,,,,,,,,,c,14.28500009,CRAC,TRUE,,,,,,,139,galleda,Catalan,Sounds/cat_galleda.mp3,11311,001,2020-06-08_18h39.26.172,TranslationElicitation_eng-sona,3.2.4,MacIntel,60,,1,0,81,33,1,80
,,,,,,,,,,,,,,,,,,,,,,,,,,,,,,,,,,,,,,,,,,e,14.45200014,CRACE,TRUE,,,,,,,139,galleda,Catalan,Sounds/cat_galleda.mp3,11311,001,2020-06-08_18h39.26.172,TranslationElicitation_eng-sona,3.2.4,MacIntel,60,,1,0,81,33,1,80
,,,,,,,,,,,,,,,,,,,,,,,,,,,,,,,,,,,,,,,,,,k,14.48600006,CRACEK,TRUE,,,,,,,139,galleda,Catalan,Sounds/cat_galleda.mp3,11311,001,2020-06-08_18h39.26.172,TranslationElicitation_eng-sona,3.2.4,MacIntel,60,,1,0,81,33,1,80
,,,,,,,,,,,,,,,,,,,,,,,,,,,,,,,,,,,,,,,,,,r,14.66799998,CRACEKR,TRUE,,,,,,,139,galleda,Catalan,Sounds/cat_galleda.mp3,11311,001,2020-06-08_18h39.26.172,TranslationElicitation_eng-sona,3.2.4,MacIntel,60,,1,0,81,33,1,80
,,,,,,,,,,,,,,,,,,,,,,,,,,,,,,,,,,,,,,,,,,backspace,15.23600006,CRACE,TRUE,,,,,,,139,galleda,Catalan,Sounds/cat_galleda.mp3,11311,001,2020-06-08_18h39.26.172,TranslationElicitation_eng-sona,3.2.4,MacIntel,60,,1,0,81,33,1,80
,,,,,,,,,,,,,,,,,,,,,,,,,,,,,,,,,,,,,,,,,,backspace,15.37000012,CRA,TRUE,,,,,,,139,galleda,Catalan,Sounds/cat_galleda.mp3,11311,001,2020-06-08_18h39.26.172,TranslationElicitation_eng-sona,3.2.4,MacIntel,60,,1,0,81,33,1,80
,,,,,,,,,,,,,,,,,,,,,,,,,,,,,,,,,,,,,,,,,,backspace,15.48600006,C,TRUE,,,,,,,139,galleda,Catalan,Sounds/cat_galleda.mp3,11311,001,2020-06-08_18h39.26.172,TranslationElicitation_eng-sona,3.2.4,MacIntel,60,,1,0,81,33,1,80
,,,,,,,,,,,,,,,,,,,,,,,,,,,,,,,,,,,,,,,,,,a,16.28500009,CA,TRUE,,,,,,,139,galleda,Catalan,Sounds/cat_galleda.mp3,11311,001,2020-06-08_18h39.26.172,TranslationElicitation_eng-sona,3.2.4,MacIntel,60,,1,0,81,33,1,80
,,,,,,,,,,,,,,,,,,,,,,,,,,,,,,,,,,,,,,,,,,backspace,16.63599992,,TRUE,,,,,,,139,galleda,Catalan,Sounds/cat_galleda.mp3,11311,001,2020-06-08_18h39.26.172,TranslationElicitation_eng-sona,3.2.4,MacIntel,60,,1,0,81,33,1,80
,,,,,,,,,,,,,,,,,,,,,,,,,,,,,,,,,,,,,,,,,,r,16.81800008,R,TRUE,,,,,,,139,galleda,Catalan,Sounds/cat_galleda.mp3,11311,001,2020-06-08_18h39.26.172,TranslationElicitation_eng-sona,3.2.4,MacIntel,60,,1,0,81,33,1,80
,,,,,,,,,,,,,,,,,,,,,,,,,,,,,,,,,,,,,,,,,,a,16.95300007,RA,TRUE,,,,,,,139,galleda,Catalan,Sounds/cat_galleda.mp3,11311,001,2020-06-08_18h39.26.172,TranslationElicitation_eng-sona,3.2.4,MacIntel,60,,1,0,81,33,1,80
,,,,,,,,,,,,,,,,,,,,,,,,,,,,,,,,,,,,,,,,,,c,17.08700013,RAC,TRUE,,,,,,,139,galleda,Catalan,Sounds/cat_galleda.mp3,11311,001,2020-06-08_18h39.26.172,TranslationElicitation_eng-sona,3.2.4,MacIntel,60,,1,0,81,33,1,80
,,,,,,,,,,,,,,,,,,,,,,,,,,,,,,,,,,,,,,,,,,k,17.26900005,RACK,TRUE,,,,,,,139,galleda,Catalan,Sounds/cat_galleda.mp3,11311,001,2020-06-08_18h39.26.172,TranslationElicitation_eng-sona,3.2.4,MacIntel,60,,1,0,81,33,1,80
,,,,,,,,,,,,,,,,,,,,,,,,,,,,,,,,,,,,,,,,,,e,17.352,RACKE,TRUE,,,,,,,139,galleda,Catalan,Sounds/cat_galleda.mp3,11311,001,2020-06-08_18h39.26.172,TranslationElicitation_eng-sona,3.2.4,MacIntel,60,,1,0,81,33,1,80
,,,,,,,,,,,,,,,,,,,,,,,,,,,,,,,,,,,,,,,,,,r,17.45300007,RACKER,TRUE,,,,,,,139,galleda,Catalan,Sounds/cat_galleda.mp3,11311,001,2020-06-08_18h39.26.172,TranslationElicitation_eng-sona,3.2.4,MacIntel,60,,1,0,81,33,1,80
,,,,,,,,,,,,,,,,,,,,,,,,,,,,,,,,,,,,,,,,,,backspace,18.53600001,RACK,TRUE,,,,,,,139,galleda,Catalan,Sounds/cat_galleda.mp3,11311,001,2020-06-08_18h39.26.172,TranslationElicitation_eng-sona,3.2.4,MacIntel,60,,1,0,81,33,1,80
,,,,,,,,,,,,,,,,,,,,,,,,,,,,,,,,,,,,,,,,,,backspace,18.65300012,RA,TRUE,,,,,,,139,galleda,Catalan,Sounds/cat_galleda.mp3,11311,001,2020-06-08_18h39.26.172,TranslationElicitation_eng-sona,3.2.4,MacIntel,60,,1,0,81,33,1,80
,,,,,,,,,,,,,,,,,,,,,,,,,,,,,,,,,,,,,,,,,,backspace,18.88599992,,TRUE,,,,,,,139,galleda,Catalan,Sounds/cat_galleda.mp3,11311,001,2020-06-08_18h39.26.172,TranslationElicitation_eng-sona,3.2.4,MacIntel,60,,1,0,81,33,1,80
,,,,,,,,,,,,,,,,,,,,,,,,,,,,,,,,,,,,,,,,,,backspace,19.01800013,,TRUE,,,,,,,139,galleda,Catalan,Sounds/cat_galleda.mp3,11311,001,2020-06-08_18h39.26.172,TranslationElicitation_eng-sona,3.2.4,MacIntel,60,,1,0,81,33,1,80
,,,,,,,,,,,,,,,,,,,,,,,,,,,,,,,,,,,,,,,,,,backspace,19.13599992,,TRUE,,,,,,,139,galleda,Catalan,Sounds/cat_galleda.mp3,11311,001,2020-06-08_18h39.26.172,TranslationElicitation_eng-sona,3.2.4,MacIntel,60,,1,0,81,33,1,80
,,,,,,,,,,,,,,,,,,,,,,,,,,,,,,,,,,,,,,,,,,c,19.48699999,C,TRUE,,,,,,,139,galleda,Catalan,Sounds/cat_galleda.mp3,11311,001,2020-06-08_18h39.26.172,TranslationElicitation_eng-sona,3.2.4,MacIntel,60,,1,0,81,33,1,80
,,,,,,,,,,,,,,,,,,,,,,,,,,,,,,,,,,,,,,,,,,r,19.70200014,CR,TRUE,,,,,,,139,galleda,Catalan,Sounds/cat_galleda.mp3,11311,001,2020-06-08_18h39.26.172,TranslationElicitation_eng-sona,3.2.4,MacIntel,60,,1,0,81,33,1,80
,,,,,,,,,,,,,,,,,,,,,,,,,,,,,,,,,,,,,,,,,,a,19.87000012,CRA,TRUE,,,,,,,139,galleda,Catalan,Sounds/cat_galleda.mp3,11311,001,2020-06-08_18h39.26.172,TranslationElicitation_eng-sona,3.2.4,MacIntel,60,,1,0,81,33,1,80
,,,,,,,,,,,,,,,,,,,,,,,,,,,,,,,,,,,,,,,,,,c,20.03699994,CRAC,TRUE,,,,,,,139,galleda,Catalan,Sounds/cat_galleda.mp3,11311,001,2020-06-08_18h39.26.172,TranslationElicitation_eng-sona,3.2.4,MacIntel,60,,1,0,81,33,1,80
,,,,,,,,,,,,,,,,,,,,,,,,,,,,,,,,,,,,,,,,,,k,20.23600006,CRACK,TRUE,,,,,,,139,galleda,Catalan,Sounds/cat_galleda.mp3,11311,001,2020-06-08_18h39.26.172,TranslationElicitation_eng-sona,3.2.4,MacIntel,60,,1,0,81,33,1,80
,,,,,,,,,,,,,,,,,,,,,,,,,,,,,,,,,,,,,,,,,,e,20.35299993,CRACKE,TRUE,,,,,,,139,galleda,Catalan,Sounds/cat_galleda.mp3,11311,001,2020-06-08_18h39.26.172,TranslationElicitation_eng-sona,3.2.4,MacIntel,60,,1,0,81,33,1,80
,,,,,,,,,,,,,,,,,,,,,,,,,,,,,,,,,,,,,,,,,,r,20.4920001,CRACKER,TRUE,,,,,,,139,galleda,Catalan,Sounds/cat_galleda.mp3,11311,001,2020-06-08_18h39.26.172,TranslationElicitation_eng-sona,3.2.4,MacIntel,60,,1,0,81,33,1,80
,,,,,,,,,,,,,,,,,,,,,,,,,,,,,,,,,,,,,,,,,,return,20.67000008,CRACKER,TRUE,,,,,,,139,galleda,Catalan,Sounds/cat_galleda.mp3,11311,001,2020-06-08_18h39.26.172,TranslationElicitation_eng-sona,3.2.4,MacIntel,60,20.67000008,1,0,81,33,1,80
,,,,,,,,,,,,,,,,,,,,,,,,,,,,,,,,,,,,,,,,,,,,,,,,,,,,139,galleda,Catalan,Sounds/cat_galleda.mp3,11311,001,2020-06-08_18h39.26.172,TranslationElicitation_eng-sona,3.2.4,MacIntel,60,,1,0,81,33,1,80
,,,,,,,,,,,,,,,,,,,,,,,,,,,,,,,,,,,,,,,,,,p,4.316999912,P,FALSE,,,,,,,165,pernil,Catalan,Sounds/cat_pernil.mp3,11311,001,2020-06-08_18h39.26.172,TranslationElicitation_eng-sona,3.2.4,MacIntel,60,,1,0,81,57,1,80
,,,,,,,,,,,,,,,,,,,,,,,,,,,,,,,,,,,,,,,,,,o,4.399999857,PO,FALSE,,,,,,,165,pernil,Catalan,Sounds/cat_pernil.mp3,11311,001,2020-06-08_18h39.26.172,TranslationElicitation_eng-sona,3.2.4,MacIntel,60,,1,0,81,57,1,80
,,,,,,,,,,,,,,,,,,,,,,,,,,,,,,,,,,,,,,,,,,r,4.53399992,POR,FALSE,,,,,,,165,pernil,Catalan,Sounds/cat_pernil.mp3,11311,001,2020-06-08_18h39.26.172,TranslationElicitation_eng-sona,3.2.4,MacIntel,60,,1,0,81,57,1,80
,,,,,,,,,,,,,,,,,,,,,,,,,,,,,,,,,,,,,,,,,,c,4.717999935,PORC,FALSE,,,,,,,165,pernil,Catalan,Sounds/cat_pernil.mp3,11311,001,2020-06-08_18h39.26.172,TranslationElicitation_eng-sona,3.2.4,MacIntel,60,,1,0,81,57,1,80
,,,,,,,,,,,,,,,,,,,,,,,,,,,,,,,,,,,,,,,,,,k,4.799999952,PORCK,FALSE,,,,,,,165,pernil,Catalan,Sounds/cat_pernil.mp3,11311,001,2020-06-08_18h39.26.172,TranslationElicitation_eng-sona,3.2.4,MacIntel,60,,1,0,81,57,1,80
,,,,,,,,,,,,,,,,,,,,,,,,,,,,,,,,,,,,,,,,,,backspace,5.333999872,POR,TRUE,,,,,,,165,pernil,Catalan,Sounds/cat_pernil.mp3,11311,001,2020-06-08_18h39.26.172,TranslationElicitation_eng-sona,3.2.4,MacIntel,60,,1,0,81,57,1,80
,,,,,,,,,,,,,,,,,,,,,,,,,,,,,,,,,,,,,,,,,,backspace,5.450000048,P,TRUE,,,,,,,165,pernil,Catalan,Sounds/cat_pernil.mp3,11311,001,2020-06-08_18h39.26.172,TranslationElicitation_eng-sona,3.2.4,MacIntel,60,,1,0,81,57,1,80
,,,,,,,,,,,,,,,,,,,,,,,,,,,,,,,,,,,,,,,,,,k,5.667999983,PK,TRUE,,,,,,,165,pernil,Catalan,Sounds/cat_pernil.mp3,11311,001,2020-06-08_18h39.26.172,TranslationElicitation_eng-sona,3.2.4,MacIntel,60,,1,0,81,57,1,80
,,,,,,,,,,,,,,,,,,,,,,,,,,,,,,,,,,,,,,,,,,backspace,6.101000071,,TRUE,,,,,,,165,pernil,Catalan,Sounds/cat_pernil.mp3,11311,001,2020-06-08_18h39.26.172,TranslationElicitation_eng-sona,3.2.4,MacIntel,60,,1,0,81,57,1,80
,,,,,,,,,,,,,,,,,,,,,,,,,,,,,,,,,,,,,,,,,,o,6.434000015,O,TRUE,,,,,,,165,pernil,Catalan,Sounds/cat_pernil.mp3,11311,001,2020-06-08_18h39.26.172,TranslationElicitation_eng-sona,3.2.4,MacIntel,60,,1,0,81,57,1,80
,,,,,,,,,,,,,,,,,,,,,,,,,,,,,,,,,,,,,,,,,,r,6.500999928,OR,TRUE,,,,,,,165,pernil,Catalan,Sounds/cat_pernil.mp3,11311,001,2020-06-08_18h39.26.172,TranslationElicitation_eng-sona,3.2.4,MacIntel,60,,1,0,81,57,1,80
,,,,,,,,,,,,,,,,,,,,,,,,,,,,,,,,,,,,,,,,,,k,6.599999905,ORK,TRUE,,,,,,,165,pernil,Catalan,Sounds/cat_pernil.mp3,11311,001,2020-06-08_18h39.26.172,TranslationElicitation_eng-sona,3.2.4,MacIntel,60,,1,0,81,57,1,80
,,,,,,,,,,,,,,,,,,,,,,,,,,,,,,,,,,,,,,,,,,return,6.851999998,ORK,TRUE,,,,,,,165,pernil,Catalan,Sounds/cat_pernil.mp3,11311,001,2020-06-08_18h39.26.172,TranslationElicitation_eng-sona,3.2.4,MacIntel,60,6.851999998,1,0,81,57,1,80
,,,,,,,,,,,,,,,,,,,,,,,,,,,,,,,,,,,,,,,,,,,,,,,,,,,,165,pernil,Catalan,Sounds/cat_pernil.mp3,11311,001,2020-06-08_18h39.26.172,TranslationElicitation_eng-sona,3.2.4,MacIntel,60,,1,0,81,57,1,80
,,,,,,,,,,,,,,,,,,,,,,,,,,,,,,,,,,,,,,,,,,return,5.833999872,,FALSE,,,,,,,115,bolet,Catalan,Sounds/cat_bolet.mp3,11311,001,2020-06-08_18h39.26.172,TranslationElicitation_eng-sona,3.2.4,MacIntel,60,5.833999872,1,0,81,10,1,80
,,,,,,,,,,,,,,,,,,,,,,,,,,,,,,,,,,,,,,,,,,,,,,,,,,,,115,bolet,Catalan,Sounds/cat_bolet.mp3,11311,001,2020-06-08_18h39.26.172,TranslationElicitation_eng-sona,3.2.4,MacIntel,60,,1,0,81,10,1,80
,,,,,,,,,,,,,,,,,,,,,,,,,,,,,,,,,,,,,,,,,,c,3.750999928,C,FALSE,,,,,,,172,poma,Catalan,Sounds/cat_poma.mp3,11311,001,2020-06-08_18h39.26.172,TranslationElicitation_eng-sona,3.2.4,MacIntel,60,,1,0,81,64,1,80
,,,,,,,,,,,,,,,,,,,,,,,,,,,,,,,,,,,,,,,,,,r,3.934999943,CR,FALSE,,,,,,,172,poma,Catalan,Sounds/cat_poma.mp3,11311,001,2020-06-08_18h39.26.172,TranslationElicitation_eng-sona,3.2.4,MacIntel,60,,1,0,81,64,1,80
,,,,,,,,,,,,,,,,,,,,,,,,,,,,,,,,,,,,,,,,,,e,4.068000078,CRE,FALSE,,,,,,,172,poma,Catalan,Sounds/cat_poma.mp3,11311,001,2020-06-08_18h39.26.172,TranslationElicitation_eng-sona,3.2.4,MacIntel,60,,1,0,81,64,1,80
,,,,,,,,,,,,,,,,,,,,,,,,,,,,,,,,,,,,,,,,,,a,4.285000086,CREA,FALSE,,,,,,,172,poma,Catalan,Sounds/cat_poma.mp3,11311,001,2020-06-08_18h39.26.172,TranslationElicitation_eng-sona,3.2.4,MacIntel,60,,1,0,81,64,1,80
,,,,,,,,,,,,,,,,,,,,,,,,,,,,,,,,,,,,,,,,,,m,4.518000126,CREAM,FALSE,,,,,,,172,poma,Catalan,Sounds/cat_poma.mp3,11311,001,2020-06-08_18h39.26.172,TranslationElicitation_eng-sona,3.2.4,MacIntel,60,,1,0,81,64,1,80
,,,,,,,,,,,,,,,,,,,,,,,,,,,,,,,,,,,,,,,,,,return,4.851000071,CREAM,FALSE,,,,,,,172,poma,Catalan,Sounds/cat_poma.mp3,11311,001,2020-06-08_18h39.26.172,TranslationElicitation_eng-sona,3.2.4,MacIntel,60,4.851000071,1,0,81,64,1,80
,,,,,,,,,,,,,,,,,,,,,,,,,,,,,,,,,,,,,,,,,,,,,,,,,,,,172,poma,Catalan,Sounds/cat_poma.mp3,11311,001,2020-06-08_18h39.26.172,TranslationElicitation_eng-sona,3.2.4,MacIntel,60,,1,0,81,64,1,80
,,,,,,,,,,,,,,,,,,,,,,,,,,,,,,,,,,,,,,,,,,return,2.131999969,,FALSE,,,,,,,152,ma,Catalan,Sounds/cat_ma.mp3,11311,001,2020-06-08_18h39.26.172,TranslationElicitation_eng-sona,3.2.4,MacIntel,60,2.131999969,1,0,81,45,1,80
,,,,,,,,,,,,,,,,,,,,,,,,,,,,,,,,,,,,,,,,,,,,,,,,,,,,152,ma,Catalan,Sounds/cat_ma.mp3,11311,001,2020-06-08_18h39.26.172,TranslationElicitation_eng-sona,3.2.4,MacIntel,60,,1,0,81,45,1,80
,,,,,,,,,,,,,,,,,,,,,,,,,,,,,,,,,,,,,,,,,,g,2.001000166,G,FALSE,,,,,,,140,gat,Catalan,Sounds/cat_gat.mp3,11311,001,2020-06-08_18h39.26.172,TranslationElicitation_eng-sona,3.2.4,MacIntel,60,,1,0,81,34,1,80
,,,,,,,,,,,,,,,,,,,,,,,,,,,,,,,,,,,,,,,,,,a,2.435000181,GA,FALSE,,,,,,,140,gat,Catalan,Sounds/cat_gat.mp3,11311,001,2020-06-08_18h39.26.172,TranslationElicitation_eng-sona,3.2.4,MacIntel,60,,1,0,81,34,1,80
,,,,,,,,,,,,,,,,,,,,,,,,,,,,,,,,,,,,,,,,,,backspace,4.217000008,,TRUE,,,,,,,140,gat,Catalan,Sounds/cat_gat.mp3,11311,001,2020-06-08_18h39.26.172,TranslationElicitation_eng-sona,3.2.4,MacIntel,60,,1,0,81,34,1,80
,,,,,,,,,,,,,,,,,,,,,,,,,,,,,,,,,,,,,,,,,,backspace,4.501000166,,TRUE,,,,,,,140,gat,Catalan,Sounds/cat_gat.mp3,11311,001,2020-06-08_18h39.26.172,TranslationElicitation_eng-sona,3.2.4,MacIntel,60,,1,0,81,34,1,80
,,,,,,,,,,,,,,,,,,,,,,,,,,,,,,,,,,,,,,,,,,c,4.735000134,C,TRUE,,,,,,,140,gat,Catalan,Sounds/cat_gat.mp3,11311,001,2020-06-08_18h39.26.172,TranslationElicitation_eng-sona,3.2.4,MacIntel,60,,1,0,81,34,1,80
,,,,,,,,,,,,,,,,,,,,,,,,,,,,,,,,,,,,,,,,,,a,4.868000031,CA,TRUE,,,,,,,140,gat,Catalan,Sounds/cat_gat.mp3,11311,001,2020-06-08_18h39.26.172,TranslationElicitation_eng-sona,3.2.4,MacIntel,60,,1,0,81,34,1,80
,,,,,,,,,,,,,,,,,,,,,,,,,,,,,,,,,,,,,,,,,,t,5.051000118,CAT,TRUE,,,,,,,140,gat,Catalan,Sounds/cat_gat.mp3,11311,001,2020-06-08_18h39.26.172,TranslationElicitation_eng-sona,3.2.4,MacIntel,60,,1,0,81,34,1,80
,,,,,,,,,,,,,,,,,,,,,,,,,,,,,,,,,,,,,,,,,,return,5.235000134,CAT,TRUE,,,,,,,140,gat,Catalan,Sounds/cat_gat.mp3,11311,001,2020-06-08_18h39.26.172,TranslationElicitation_eng-sona,3.2.4,MacIntel,60,5.235000134,1,0,81,34,1,80
,,,,,,,,,,,,,,,,,,,,,,,,,,,,,,,,,,,,,,,,,,,,,,,,,,,,140,gat,Catalan,Sounds/cat_gat.mp3,11311,001,2020-06-08_18h39.26.172,TranslationElicitation_eng-sona,3.2.4,MacIntel,60,,1,0,81,34,1,80
,,,,,,,,,,,,,,,,,,,,,,,,,,,,,,,,,,,,,,,,,,n,3.76699996,N,FALSE,,,,,,,186,ungla,Catalan,Sounds/cat_ungla.mp3,11311,001,2020-06-08_18h39.26.172,TranslationElicitation_eng-sona,3.2.4,MacIntel,60,,1,0,81,77,1,80
,,,,,,,,,,,,,,,,,,,,,,,,,,,,,,,,,,,,,,,,,,a,3.851000071,NA,FALSE,,,,,,,186,ungla,Catalan,Sounds/cat_ungla.mp3,11311,001,2020-06-08_18h39.26.172,TranslationElicitation_eng-sona,3.2.4,MacIntel,60,,1,0,81,77,1,80
,,,,,,,,,,,,,,,,,,,,,,,,,,,,,,,,,,,,,,,,,,i,3.950000048,NAI,FALSE,,,,,,,186,ungla,Catalan,Sounds/cat_ungla.mp3,11311,001,2020-06-08_18h39.26.172,TranslationElicitation_eng-sona,3.2.4,MacIntel,60,,1,0,81,77,1,80
,,,,,,,,,,,,,,,,,,,,,,,,,,,,,,,,,,,,,,,,,,l,4.118000031,NAIL,FALSE,,,,,,,186,ungla,Catalan,Sounds/cat_ungla.mp3,11311,001,2020-06-08_18h39.26.172,TranslationElicitation_eng-sona,3.2.4,MacIntel,60,,1,0,81,77,1,80
,,,,,,,,,,,,,,,,,,,,,,,,,,,,,,,,,,,,,,,,,,return,4.434000015,NAIL,FALSE,,,,,,,186,ungla,Catalan,Sounds/cat_ungla.mp3,11311,001,2020-06-08_18h39.26.172,TranslationElicitation_eng-sona,3.2.4,MacIntel,60,4.434000015,1,0,81,77,1,80
,,,,,,,,,,,,,,,,,,,,,,,,,,,,,,,,,,,,,,,,,,,,,,,,,,,,186,ungla,Catalan,Sounds/cat_ungla.mp3,11311,001,2020-06-08_18h39.26.172,TranslationElicitation_eng-sona,3.2.4,MacIntel,60,,1,0,81,77,1,80
,,,,,,,,,,,,,,,,,,,,,,,,,,,,,,,,,,,,,,,,,,a,3.148999929,A,FALSE,,,,,,,105,aigua,Catalan,Sounds/cat_aigua.mp3,11311,001,2020-06-08_18h39.26.172,TranslationElicitation_eng-sona,3.2.4,MacIntel,60,,1,0,81,1,1,80
,,,,,,,,,,,,,,,,,,,,,,,,,,,,,,,,,,,,,,,,,,i,3.383000135,AI,FALSE,,,,,,,105,aigua,Catalan,Sounds/cat_aigua.mp3,11311,001,2020-06-08_18h39.26.172,TranslationElicitation_eng-sona,3.2.4,MacIntel,60,,1,0,81,1,1,80
,,,,,,,,,,,,,,,,,,,,,,,,,,,,,,,,,,,,,,,,,,r,3.5,AIR,FALSE,,,,,,,105,aigua,Catalan,Sounds/cat_aigua.mp3,11311,001,2020-06-08_18h39.26.172,TranslationElicitation_eng-sona,3.2.4,MacIntel,60,,1,0,81,1,1,80
,,,,,,,,,,,,,,,,,,,,,,,,,,,,,,,,,,,,,,,,,,return,3.700000048,AIR,FALSE,,,,,,,105,aigua,Catalan,Sounds/cat_aigua.mp3,11311,001,2020-06-08_18h39.26.172,TranslationElicitation_eng-sona,3.2.4,MacIntel,60,3.700000048,1,0,81,1,1,80
,,,,,,,,,,,,,,,,,,,,,,,,,,,,,,,,,,,,,,,,,,,,,,,,,,,,105,aigua,Catalan,Sounds/cat_aigua.mp3,11311,001,2020-06-08_18h39.26.172,TranslationElicitation_eng-sona,3.2.4,MacIntel,60,,1,0,81,1,1,80
,,,,,,,,,,,,,,,,,,,,,,,,,,,,,,,,,,,,,,,,,,j,4.950999975,J,FALSE,,,,,,,184,ull,Catalan,Sounds/cat_ull.mp3,11311,001,2020-06-08_18h39.26.172,TranslationElicitation_eng-sona,3.2.4,MacIntel,60,,1,0,81,75,1,80
,,,,,,,,,,,,,,,,,,,,,,,,,,,,,,,,,,,,,,,,,,u,5.049999952,JU,FALSE,,,,,,,184,ull,Catalan,Sounds/cat_ull.mp3,11311,001,2020-06-08_18h39.26.172,TranslationElicitation_eng-sona,3.2.4,MacIntel,60,,1,0,81,75,1,80
,,,,,,,,,,,,,,,,,,,,,,,,,,,,,,,,,,,,,,,,,,n,5.234999895,JUN,FALSE,,,,,,,184,ull,Catalan,Sounds/cat_ull.mp3,11311,001,2020-06-08_18h39.26.172,TranslationElicitation_eng-sona,3.2.4,MacIntel,60,,1,0,81,75,1,80
,,,,,,,,,,,,,,,,,,,,,,,,,,,,,,,,,,,,,,,,,,g,5.334000111,JUNG,FALSE,,,,,,,184,ull,Catalan,Sounds/cat_ull.mp3,11311,001,2020-06-08_18h39.26.172,TranslationElicitation_eng-sona,3.2.4,MacIntel,60,,1,0,81,75,1,80
,,,,,,,,,,,,,,,,,,,,,,,,,,,,,,,,,,,,,,,,,,l,5.45600009,JUNGL,FALSE,,,,,,,184,ull,Catalan,Sounds/cat_ull.mp3,11311,001,2020-06-08_18h39.26.172,TranslationElicitation_eng-sona,3.2.4,MacIntel,60,,1,0,81,75,1,80
,,,,,,,,,,,,,,,,,,,,,,,,,,,,,,,,,,,,,,,,,,e,5.535000086,JUNGLE,FALSE,,,,,,,184,ull,Catalan,Sounds/cat_ull.mp3,11311,001,2020-06-08_18h39.26.172,TranslationElicitation_eng-sona,3.2.4,MacIntel,60,,1,0,81,75,1,80
,,,,,,,,,,,,,,,,,,,,,,,,,,,,,,,,,,,,,,,,,,return,5.634000063,JUNGLE,FALSE,,,,,,,184,ull,Catalan,Sounds/cat_ull.mp3,11311,001,2020-06-08_18h39.26.172,TranslationElicitation_eng-sona,3.2.4,MacIntel,60,5.634000063,1,0,81,75,1,80
,,,,,,,,,,,,,,,,,,,,,,,,,,,,,,,,,,,,,,,,,,,,,,,,,,,,184,ull,Catalan,Sounds/cat_ull.mp3,11311,001,2020-06-08_18h39.26.172,TranslationElicitation_eng-sona,3.2.4,MacIntel,60,,1,0,81,75,1,80
,,,,,,,,,,,,,,,,,,,,,,,,,,,,,,,,,,,,,,,,,,b,4.867000103,B,FALSE,,,,,,,111,bibero,Catalan,Sounds/cat_bibero.mp3,11311,001,2020-06-08_18h39.26.172,TranslationElicitation_eng-sona,3.2.4,MacIntel,60,,1,0,81,6,1,80
,,,,,,,,,,,,,,,,,,,,,,,,,,,,,,,,,,,,,,,,,,a,4.950999975,BA,FALSE,,,,,,,111,bibero,Catalan,Sounds/cat_bibero.mp3,11311,001,2020-06-08_18h39.26.172,TranslationElicitation_eng-sona,3.2.4,MacIntel,60,,1,0,81,6,1,80
,,,,,,,,,,,,,,,,,,,,,,,,,,,,,,,,,,,,,,,,,,b,5.051000118,BAB,FALSE,,,,,,,111,bibero,Catalan,Sounds/cat_bibero.mp3,11311,001,2020-06-08_18h39.26.172,TranslationElicitation_eng-sona,3.2.4,MacIntel,60,,1,0,81,6,1,80
,,,,,,,,,,,,,,,,,,,,,,,,,,,,,,,,,,,,,,,,,,o,5.233999968,BABO,FALSE,,,,,,,111,bibero,Catalan,Sounds/cat_bibero.mp3,11311,001,2020-06-08_18h39.26.172,TranslationElicitation_eng-sona,3.2.4,MacIntel,60,,1,0,81,6,1,80
,,,,,,,,,,,,,,,,,,,,,,,,,,,,,,,,,,,,,,,,,,e,5.299999952,BABOE,FALSE,,,,,,,111,bibero,Catalan,Sounds/cat_bibero.mp3,11311,001,2020-06-08_18h39.26.172,TranslationElicitation_eng-sona,3.2.4,MacIntel,60,,1,0,81,6,1,80
,,,,,,,,,,,,,,,,,,,,,,,,,,,,,,,,,,,,,,,,,,backspace,5.76699996,BAB,TRUE,,,,,,,111,bibero,Catalan,Sounds/cat_bibero.mp3,11311,001,2020-06-08_18h39.26.172,TranslationElicitation_eng-sona,3.2.4,MacIntel,60,,1,0,81,6,1,80
,,,,,,,,,,,,,,,,,,,,,,,,,,,,,,,,,,,,,,,,,,backspace,5.900000095,B,TRUE,,,,,,,111,bibero,Catalan,Sounds/cat_bibero.mp3,11311,001,2020-06-08_18h39.26.172,TranslationElicitation_eng-sona,3.2.4,MacIntel,60,,1,0,81,6,1,80
,,,,,,,,,,,,,,,,,,,,,,,,,,,,,,,,,,,,,,,,,,a,6.934999943,BA,TRUE,,,,,,,111,bibero,Catalan,Sounds/cat_bibero.mp3,11311,001,2020-06-08_18h39.26.172,TranslationElicitation_eng-sona,3.2.4,MacIntel,60,,1,0,81,6,1,80
,,,,,,,,,,,,,,,,,,,,,,,,,,,,,,,,,,,,,,,,,,b,7.334000111,BAB,TRUE,,,,,,,111,bibero,Catalan,Sounds/cat_bibero.mp3,11311,001,2020-06-08_18h39.26.172,TranslationElicitation_eng-sona,3.2.4,MacIntel,60,,1,0,81,6,1,80
,,,,,,,,,,,,,,,,,,,,,,,,,,,,,,,,,,,,,,,,,,i,7.651000023,BABI,TRUE,,,,,,,111,bibero,Catalan,Sounds/cat_bibero.mp3,11311,001,2020-06-08_18h39.26.172,TranslationElicitation_eng-sona,3.2.4,MacIntel,60,,1,0,81,6,1,80
,,,,,,,,,,,,,,,,,,,,,,,,,,,,,,,,,,,,,,,,,,e,7.753000021,BABIE,TRUE,,,,,,,111,bibero,Catalan,Sounds/cat_bibero.mp3,11311,001,2020-06-08_18h39.26.172,TranslationElicitation_eng-sona,3.2.4,MacIntel,60,,1,0,81,6,1,80
,,,,,,,,,,,,,,,,,,,,,,,,,,,,,,,,,,,,,,,,,,s,7.933000088,BABIES,TRUE,,,,,,,111,bibero,Catalan,Sounds/cat_bibero.mp3,11311,001,2020-06-08_18h39.26.172,TranslationElicitation_eng-sona,3.2.4,MacIntel,60,,1,0,81,6,1,80
,,,,,,,,,,,,,,,,,,,,,,,,,,,,,,,,,,,,,,,,,,space,8.049999952,BABIES ,TRUE,,,,,,,111,bibero,Catalan,Sounds/cat_bibero.mp3,11311,001,2020-06-08_18h39.26.172,TranslationElicitation_eng-sona,3.2.4,MacIntel,60,,1,0,81,6,1,80
,,,,,,,,,,,,,,,,,,,,,,,,,,,,,,,,,,,,,,,,,,backspace,9.601000071,BABIE,TRUE,,,,,,,111,bibero,Catalan,Sounds/cat_bibero.mp3,11311,001,2020-06-08_18h39.26.172,TranslationElicitation_eng-sona,3.2.4,MacIntel,60,,1,0,81,6,1,80
,,,,,,,,,,,,,,,,,,,,,,,,,,,,,,,,,,,,,,,,,,backspace,9.816999912,BAB,TRUE,,,,,,,111,bibero,Catalan,Sounds/cat_bibero.mp3,11311,001,2020-06-08_18h39.26.172,TranslationElicitation_eng-sona,3.2.4,MacIntel,60,,1,0,81,6,1,80
,,,,,,,,,,,,,,,,,,,,,,,,,,,,,,,,,,,,,,,,,,backspace,10.21799994,B,TRUE,,,,,,,111,bibero,Catalan,Sounds/cat_bibero.mp3,11311,001,2020-06-08_18h39.26.172,TranslationElicitation_eng-sona,3.2.4,MacIntel,60,,1,0,81,6,1,80
,,,,,,,,,,,,,,,,,,,,,,,,,,,,,,,,,,,,,,,,,,a,11.13400006,BA,TRUE,,,,,,,111,bibero,Catalan,Sounds/cat_bibero.mp3,11311,001,2020-06-08_18h39.26.172,TranslationElicitation_eng-sona,3.2.4,MacIntel,60,,1,0,81,6,1,80
,,,,,,,,,,,,,,,,,,,,,,,,,,,,,,,,,,,,,,,,,,b,11.25099993,BAB,TRUE,,,,,,,111,bibero,Catalan,Sounds/cat_bibero.mp3,11311,001,2020-06-08_18h39.26.172,TranslationElicitation_eng-sona,3.2.4,MacIntel,60,,1,0,81,6,1,80
,,,,,,,,,,,,,,,,,,,,,,,,,,,,,,,,,,,,,,,,,,y,11.45000005,BABY,TRUE,,,,,,,111,bibero,Catalan,Sounds/cat_bibero.mp3,11311,001,2020-06-08_18h39.26.172,TranslationElicitation_eng-sona,3.2.4,MacIntel,60,,1,0,81,6,1,80
,,,,,,,,,,,,,,,,,,,,,,,,,,,,,,,,,,,,,,,,,,space,11.65100002,BABY ,TRUE,,,,,,,111,bibero,Catalan,Sounds/cat_bibero.mp3,11311,001,2020-06-08_18h39.26.172,TranslationElicitation_eng-sona,3.2.4,MacIntel,60,,1,0,81,6,1,80
,,,,,,,,,,,,,,,,,,,,,,,,,,,,,,,,,,,,,,,,,,b,11.85100007,BABY B,TRUE,,,,,,,111,bibero,Catalan,Sounds/cat_bibero.mp3,11311,001,2020-06-08_18h39.26.172,TranslationElicitation_eng-sona,3.2.4,MacIntel,60,,1,0,81,6,1,80
,,,,,,,,,,,,,,,,,,,,,,,,,,,,,,,,,,,,,,,,,,o,12.01799989,BABY BO,TRUE,,,,,,,111,bibero,Catalan,Sounds/cat_bibero.mp3,11311,001,2020-06-08_18h39.26.172,TranslationElicitation_eng-sona,3.2.4,MacIntel,60,,1,0,81,6,1,80
,,,,,,,,,,,,,,,,,,,,,,,,,,,,,,,,,,,,,,,,,,t,12.12599993,BABY BOT,TRUE,,,,,,,111,bibero,Catalan,Sounds/cat_bibero.mp3,11311,001,2020-06-08_18h39.26.172,TranslationElicitation_eng-sona,3.2.4,MacIntel,60,,1,0,81,6,1,80
,,,,,,,,,,,,,,,,,,,,,,,,,,,,,,,,,,,,,,,,,,t,12.26799989,BABY BOTT,TRUE,,,,,,,111,bibero,Catalan,Sounds/cat_bibero.mp3,11311,001,2020-06-08_18h39.26.172,TranslationElicitation_eng-sona,3.2.4,MacIntel,60,,1,0,81,6,1,80
,,,,,,,,,,,,,,,,,,,,,,,,,,,,,,,,,,,,,,,,,,l,12.36800003,BABY BOTTL,TRUE,,,,,,,111,bibero,Catalan,Sounds/cat_bibero.mp3,11311,001,2020-06-08_18h39.26.172,TranslationElicitation_eng-sona,3.2.4,MacIntel,60,,1,0,81,6,1,80
,,,,,,,,,,,,,,,,,,,,,,,,,,,,,,,,,,,,,,,,,,e,12.46700001,BABY BOTTLE,TRUE,,,,,,,111,bibero,Catalan,Sounds/cat_bibero.mp3,11311,001,2020-06-08_18h39.26.172,TranslationElicitation_eng-sona,3.2.4,MacIntel,60,,1,0,81,6,1,80
,,,,,,,,,,,,,,,,,,,,,,,,,,,,,,,,,,,,,,,,,,return,12.58500004,BABY BOTTLE,TRUE,,,,,,,111,bibero,Catalan,Sounds/cat_bibero.mp3,11311,001,2020-06-08_18h39.26.172,TranslationElicitation_eng-sona,3.2.4,MacIntel,60,12.58500004,1,0,81,6,1,80
,,,,,,,,,,,,,,,,,,,,,,,,,,,,,,,,,,,,,,,,,,,,,,,,,,,,111,bibero,Catalan,Sounds/cat_bibero.mp3,11311,001,2020-06-08_18h39.26.172,TranslationElicitation_eng-sona,3.2.4,MacIntel,60,,1,0,81,6,1,80
,,,,,,,,,,,,,,,,,,,,,,,,,,,,,,,,,,,,,,,,,,o,2.332999945,O,FALSE,,,,,,,133,estruc,Catalan,Sounds/cat_estruc.mp3,11311,001,2020-06-08_18h39.26.172,TranslationElicitation_eng-sona,3.2.4,MacIntel,60,,1,0,81,27,1,80
,,,,,,,,,,,,,,,,,,,,,,,,,,,,,,,,,,,,,,,,,,s,2.532999992,OS,FALSE,,,,,,,133,estruc,Catalan,Sounds/cat_estruc.mp3,11311,001,2020-06-08_18h39.26.172,TranslationElicitation_eng-sona,3.2.4,MacIntel,60,,1,0,81,27,1,80
,,,,,,,,,,,,,,,,,,,,,,,,,,,,,,,,,,,,,,,,,,t,2.732000113,OST,FALSE,,,,,,,133,estruc,Catalan,Sounds/cat_estruc.mp3,11311,001,2020-06-08_18h39.26.172,TranslationElicitation_eng-sona,3.2.4,MacIntel,60,,1,0,81,27,1,80
,,,,,,,,,,,,,,,,,,,,,,,,,,,,,,,,,,,,,,,,,,r,2.898999929,OSTR,FALSE,,,,,,,133,estruc,Catalan,Sounds/cat_estruc.mp3,11311,001,2020-06-08_18h39.26.172,TranslationElicitation_eng-sona,3.2.4,MacIntel,60,,1,0,81,27,1,80
,,,,,,,,,,,,,,,,,,,,,,,,,,,,,,,,,,,,,,,,,,i,2.967000008,OSTRI,FALSE,,,,,,,133,estruc,Catalan,Sounds/cat_estruc.mp3,11311,001,2020-06-08_18h39.26.172,TranslationElicitation_eng-sona,3.2.4,MacIntel,60,,1,0,81,27,1,80
,,,,,,,,,,,,,,,,,,,,,,,,,,,,,,,,,,,,,,,,,,c,3.082999945,OSTRIC,FALSE,,,,,,,133,estruc,Catalan,Sounds/cat_estruc.mp3,11311,001,2020-06-08_18h39.26.172,TranslationElicitation_eng-sona,3.2.4,MacIntel,60,,1,0,81,27,1,80
,,,,,,,,,,,,,,,,,,,,,,,,,,,,,,,,,,,,,,,,,,h,3.19900012,OSTRICH,FALSE,,,,,,,133,estruc,Catalan,Sounds/cat_estruc.mp3,11311,001,2020-06-08_18h39.26.172,TranslationElicitation_eng-sona,3.2.4,MacIntel,60,,1,0,81,27,1,80
,,,,,,,,,,,,,,,,,,,,,,,,,,,,,,,,,,,,,,,,,,return,3.715000153,OSTRICH,FALSE,,,,,,,133,estruc,Catalan,Sounds/cat_estruc.mp3,11311,001,2020-06-08_18h39.26.172,TranslationElicitation_eng-sona,3.2.4,MacIntel,60,3.715000153,1,0,81,27,1,80
,,,,,,,,,,,,,,,,,,,,,,,,,,,,,,,,,,,,,,,,,,,,,,,,,,,,133,estruc,Catalan,Sounds/cat_estruc.mp3,11311,001,2020-06-08_18h39.26.172,TranslationElicitation_eng-sona,3.2.4,MacIntel,60,,1,0,81,27,1,80
,,,,,,,,,,,,,,,,,,,,,,,,,,,,,,,,,,,,,,,,,,u,4.582999945,U,FALSE,,,,,,,148,lleo,Catalan,Sounds/cat_lleo.mp3,11311,001,2020-06-08_18h39.26.172,TranslationElicitation_eng-sona,3.2.4,MacIntel,60,,1,0,81,41,1,80
,,,,,,,,,,,,,,,,,,,,,,,,,,,,,,,,,,,,,,,,,,n,4.684000015,UN,FALSE,,,,,,,148,lleo,Catalan,Sounds/cat_lleo.mp3,11311,001,2020-06-08_18h39.26.172,TranslationElicitation_eng-sona,3.2.4,MacIntel,60,,1,0,81,41,1,80
,,,,,,,,,,,,,,,,,,,,,,,,,,,,,,,,,,,,,,,,,,s,4.78399992,UNS,FALSE,,,,,,,148,lleo,Catalan,Sounds/cat_lleo.mp3,11311,001,2020-06-08_18h39.26.172,TranslationElicitation_eng-sona,3.2.4,MacIntel,60,,1,0,81,41,1,80
,,,,,,,,,,,,,,,,,,,,,,,,,,,,,,,,,,,,,,,,,,u,4.884000063,UNSU,FALSE,,,,,,,148,lleo,Catalan,Sounds/cat_lleo.mp3,11311,001,2020-06-08_18h39.26.172,TranslationElicitation_eng-sona,3.2.4,MacIntel,60,,1,0,81,41,1,80
,,,,,,,,,,,,,,,,,,,,,,,,,,,,,,,,,,,,,,,,,,r,4.999000072,UNSUR,FALSE,,,,,,,148,lleo,Catalan,Sounds/cat_lleo.mp3,11311,001,2020-06-08_18h39.26.172,TranslationElicitation_eng-sona,3.2.4,MacIntel,60,,1,0,81,41,1,80
,,,,,,,,,,,,,,,,,,,,,,,,,,,,,,,,,,,,,,,,,,e,5.100000143,UNSURE,FALSE,,,,,,,148,lleo,Catalan,Sounds/cat_lleo.mp3,11311,001,2020-06-08_18h39.26.172,TranslationElicitation_eng-sona,3.2.4,MacIntel,60,,1,0,81,41,1,80
,,,,,,,,,,,,,,,,,,,,,,,,,,,,,,,,,,,,,,,,,,return,5.282999992,UNSURE,FALSE,,,,,,,148,lleo,Catalan,Sounds/cat_lleo.mp3,11311,001,2020-06-08_18h39.26.172,TranslationElicitation_eng-sona,3.2.4,MacIntel,60,5.282999992,1,0,81,41,1,80
,,,,,,,,,,,,,,,,,,,,,,,,,,,,,,,,,,,,,,,,,,,,,,,,,,,,148,lleo,Catalan,Sounds/cat_lleo.mp3,11311,001,2020-06-08_18h39.26.172,TranslationElicitation_eng-sona,3.2.4,MacIntel,60,,1,0,81,41,1,80
,,,,,,,,,,,,,,,,,,,,,,,,,,,,,,,,,,,,,,,,,,p,3.052000046,P,FALSE,,,,,,,173,porc,Catalan,Sounds/cat_porc.mp3,11311,001,2020-06-08_18h39.26.172,TranslationElicitation_eng-sona,3.2.4,MacIntel,60,,1,0,81,65,1,80
,,,,,,,,,,,,,,,,,,,,,,,,,,,,,,,,,,,,,,,,,,o,3.167999983,PO,FALSE,,,,,,,173,porc,Catalan,Sounds/cat_porc.mp3,11311,001,2020-06-08_18h39.26.172,TranslationElicitation_eng-sona,3.2.4,MacIntel,60,,1,0,81,65,1,80
,,,,,,,,,,,,,,,,,,,,,,,,,,,,,,,,,,,,,,,,,,r,3.318000078,POR,FALSE,,,,,,,173,porc,Catalan,Sounds/cat_porc.mp3,11311,001,2020-06-08_18h39.26.172,TranslationElicitation_eng-sona,3.2.4,MacIntel,60,,1,0,81,65,1,80
,,,,,,,,,,,,,,,,,,,,,,,,,,,,,,,,,,,,,,,,,,k,3.40199995,PORK,FALSE,,,,,,,173,porc,Catalan,Sounds/cat_porc.mp3,11311,001,2020-06-08_18h39.26.172,TranslationElicitation_eng-sona,3.2.4,MacIntel,60,,1,0,81,65,1,80
,,,,,,,,,,,,,,,,,,,,,,,,,,,,,,,,,,,,,,,,,,return,3.786000013,PORK,FALSE,,,,,,,173,porc,Catalan,Sounds/cat_porc.mp3,11311,001,2020-06-08_18h39.26.172,TranslationElicitation_eng-sona,3.2.4,MacIntel,60,3.786000013,1,0,81,65,1,80
,,,,,,,,,,,,,,,,,,,,,,,,,,,,,,,,,,,,,,,,,,,,,,,,,,,,173,porc,Catalan,Sounds/cat_porc.mp3,11311,001,2020-06-08_18h39.26.172,TranslationElicitation_eng-sona,3.2.4,MacIntel,60,,1,0,81,65,1,80
,,,,,,,,,,,,,,,,,,,,,,,,,,,,,,,,,,,,,,,,,,d,4.185000181,D,FALSE,,,,,,,118,bou,Catalan,Sounds/cat_bou.mp3,11311,001,2020-06-08_18h39.26.172,TranslationElicitation_eng-sona,3.2.4,MacIntel,60,,1,0,81,13,1,80
,,,,,,,,,,,,,,,,,,,,,,,,,,,,,,,,,,,,,,,,,,u,4.268000126,DU,FALSE,,,,,,,118,bou,Catalan,Sounds/cat_bou.mp3,11311,001,2020-06-08_18h39.26.172,TranslationElicitation_eng-sona,3.2.4,MacIntel,60,,1,0,81,13,1,80
,,,,,,,,,,,,,,,,,,,,,,,,,,,,,,,,,,,,,,,,,,n,4.451000214,DUN,FALSE,,,,,,,118,bou,Catalan,Sounds/cat_bou.mp3,11311,001,2020-06-08_18h39.26.172,TranslationElicitation_eng-sona,3.2.4,MacIntel,60,,1,0,81,13,1,80
,,,,,,,,,,,,,,,,,,,,,,,,,,,,,,,,,,,,,,,,,,backspace,4.885000229,D,TRUE,,,,,,,118,bou,Catalan,Sounds/cat_bou.mp3,11311,001,2020-06-08_18h39.26.172,TranslationElicitation_eng-sona,3.2.4,MacIntel,60,,1,0,81,13,1,80
,,,,,,,,,,,,,,,,,,,,,,,,,,,,,,,,,,,,,,,,,,backspace,5.018000126,,TRUE,,,,,,,118,bou,Catalan,Sounds/cat_bou.mp3,11311,001,2020-06-08_18h39.26.172,TranslationElicitation_eng-sona,3.2.4,MacIntel,60,,1,0,81,13,1,80
,,,,,,,,,,,,,,,,,,,,,,,,,,,,,,,,,,,,,,,,,,backspace,5.135000229,,TRUE,,,,,,,118,bou,Catalan,Sounds/cat_bou.mp3,11311,001,2020-06-08_18h39.26.172,TranslationElicitation_eng-sona,3.2.4,MacIntel,60,,1,0,81,13,1,80
,,,,,,,,,,,,,,,,,,,,,,,,,,,,,,,,,,,,,,,,,,space,6.185000181, ,TRUE,,,,,,,118,bou,Catalan,Sounds/cat_bou.mp3,11311,001,2020-06-08_18h39.26.172,TranslationElicitation_eng-sona,3.2.4,MacIntel,60,,1,0,81,13,1,80
,,,,,,,,,,,,,,,,,,,,,,,,,,,,,,,,,,,,,,,,,,return,6.869000196, ,TRUE,,,,,,,118,bou,Catalan,Sounds/cat_bou.mp3,11311,001,2020-06-08_18h39.26.172,TranslationElicitation_eng-sona,3.2.4,MacIntel,60,6.869000196,1,0,81,13,1,80
,,,,,,,,,,,,,,,,,,,,,,,,,,,,,,,,,,,,,,,,,,,,,,,,,,,,118,bou,Catalan,Sounds/cat_bou.mp3,11311,001,2020-06-08_18h39.26.172,TranslationElicitation_eng-sona,3.2.4,MacIntel,60,,1,0,81,13,1,80
,,,,,,,,,,,,,,,,,,,,,,,,,,,,,,,,,,,,,,,,,,s,2.198999882,S,FALSE,,,,,,,177,sol,Catalan,Sounds/cat_sol.mp3,11311,001,2020-06-08_18h39.26.172,TranslationElicitation_eng-sona,3.2.4,MacIntel,60,,1,0,81,69,1,80
,,,,,,,,,,,,,,,,,,,,,,,,,,,,,,,,,,,,,,,,,,u,2.266000032,SU,FALSE,,,,,,,177,sol,Catalan,Sounds/cat_sol.mp3,11311,001,2020-06-08_18h39.26.172,TranslationElicitation_eng-sona,3.2.4,MacIntel,60,,1,0,81,69,1,80
