consentKey.keys,consentKey.rt,languageL1Key.keys,languageL1Key.rt,languageL2,languageL2OralKey.keys,languageL2OralKey.rt,languageL2WrittenKey.keys,languageL2WrittenKey.rt,languageL3,languageL3OralKey.keys,languageL3OralKey.rt,languageL3WrittenKey.keys,languageL3WrittenKey.rt,languageCatalanOralKey.keys,languageCatalanOralKey.rt,languageCatalanWrittenKey.keys,languageCatalanWrittenKey.rt,languageCatalanTimeKey.keys,languageCatalanTimeKey.rt,languageSpanishOralKey.keys,languageSpanishOralKey.rt,languageSpanishWrittenKey.keys,languageSpanishWrittenKey.rt,languageSpanishTimeKey.keys,languageSpanishTimeKey.rt,age,demoSexKey.keys,demoSexKey.rt,demoEducationKey.keys,demoEducationKey.rt,city,demoVisionKey.keys,demoVisionKey.rt,demoLanguageKey.keys,demoLanguageKey.rt,setupLocationKey.keys,setupLocationKey.rt,setupNoiseKey.keys,setupNoiseKey.rt,instructionsKeys.keys,instructionsKeys.rt,keyPressed,keyPressTime,inputText,error,trialsPracticeCatalan.thisRepN,trialsPracticeCatalan.thisTrialN,trialsPracticeCatalan.thisN,trialsPracticeCatalan.thisIndex,trialsPracticeCatalan.ran,trialsPracticeCatalan.order,trial_id,word,test_language,soundfile,participant,session,date,expName,psychopyVersion,OS,frameRate,trialOffset,trialsCatalan.thisRepN,trialsCatalan.thisTrialN,trialsCatalan.thisN,trialsCatalan.thisIndex,trialsCatalan.ran,trialsCatalan.order
space,6.39199996,e,4.011999846,LSHIFTGERMANCOMMA RUSSIANCOMMA TAJIKCOMMA PERSIAN,5,9.395999908,5,14.92799997,TAJIK,5,4.949999809,5,4.676999807,1,7.382999897,1,4.697999716,1,7.046000004,2,6.962999821,1,3.521999836,1,4.967999935,21,f,3.190999985,4,10.26699996,BEDFORD,y,4.368999958,n,3.618000031,1,5.179999828,3,11.11199999,space,14.5389998,d,11.08299994,D,FALSE,1,0,5,1,1,4,126,corona,Catalan,Sounds/cat_corona.mp3,11399,001,2020-06-25_12h00.13.786,TranslationElicitation_eng-sona,3.2.4,Win32,60,,,,,,,
,,,,,,,,,,,,,,,,,,,,,,,,,,,,,,,,,,,,,,,,,,o,11.20000005,DO,FALSE,1,0,5,1,1,4,126,corona,Catalan,Sounds/cat_corona.mp3,11399,001,2020-06-25_12h00.13.786,TranslationElicitation_eng-sona,3.2.4,Win32,60,,,,,,,
,,,,,,,,,,,,,,,,,,,,,,,,,,,,,,,,,,,,,,,,,,n,11.36599994,DON,FALSE,1,0,5,1,1,4,126,corona,Catalan,Sounds/cat_corona.mp3,11399,001,2020-06-25_12h00.13.786,TranslationElicitation_eng-sona,3.2.4,Win32,60,,,,,,,
,,,,,,,,,,,,,,,,,,,,,,,,,,,,,,,,,,,,,,,,,,k,11.54999995,DONK,FALSE,1,0,5,1,1,4,126,corona,Catalan,Sounds/cat_corona.mp3,11399,001,2020-06-25_12h00.13.786,TranslationElicitation_eng-sona,3.2.4,Win32,60,,,,,,,
,,,,,,,,,,,,,,,,,,,,,,,,,,,,,,,,,,,,,,,,,,e,11.71600008,DONKE,FALSE,1,0,5,1,1,4,126,corona,Catalan,Sounds/cat_corona.mp3,11399,001,2020-06-25_12h00.13.786,TranslationElicitation_eng-sona,3.2.4,Win32,60,,,,,,,
,,,,,,,,,,,,,,,,,,,,,,,,,,,,,,,,,,,,,,,,,,y,11.86599994,DONKEY,FALSE,1,0,5,1,1,4,126,corona,Catalan,Sounds/cat_corona.mp3,11399,001,2020-06-25_12h00.13.786,TranslationElicitation_eng-sona,3.2.4,Win32,60,,,,,,,
,,,,,,,,,,,,,,,,,,,,,,,,,,,,,,,,,,,,,,,,,,return,12.3499999,DONKEY,FALSE,1,0,5,1,1,4,126,corona,Catalan,Sounds/cat_corona.mp3,11399,001,2020-06-25_12h00.13.786,TranslationElicitation_eng-sona,3.2.4,Win32,60,12.3499999,,,,,,
,,,,,,,,,,,,,,,,,,,,,,,,,,,,,,,,,,,,,,,,,,,,,,1,0,5,1,1,4,126,corona,Catalan,Sounds/cat_corona.mp3,11399,001,2020-06-25_12h00.13.786,TranslationElicitation_eng-sona,3.2.4,Win32,60,,,,,,,
,,,,,,,,,,,,,,,,,,,,,,,,,,,,,,,,,,,,,,,,,,w,2.464999914,W,FALSE,1,0,5,0,1,4,109,arbre,Catalan,Sounds/cat_arbre.mp3,11399,001,2020-06-25_12h00.13.786,TranslationElicitation_eng-sona,3.2.4,Win32,60,,,,,,,
,,,,,,,,,,,,,,,,,,,,,,,,,,,,,,,,,,,,,,,,,,e,2.582000017,WE,FALSE,1,0,5,0,1,4,109,arbre,Catalan,Sounds/cat_arbre.mp3,11399,001,2020-06-25_12h00.13.786,TranslationElicitation_eng-sona,3.2.4,Win32,60,,,,,,,
,,,,,,,,,,,,,,,,,,,,,,,,,,,,,,,,,,,,,,,,,,l,2.748999834,WEL,FALSE,1,0,5,0,1,4,109,arbre,Catalan,Sounds/cat_arbre.mp3,11399,001,2020-06-25_12h00.13.786,TranslationElicitation_eng-sona,3.2.4,Win32,60,,,,,,,
,,,,,,,,,,,,,,,,,,,,,,,,,,,,,,,,,,,,,,,,,,l,2.881999969,WELL,FALSE,1,0,5,0,1,4,109,arbre,Catalan,Sounds/cat_arbre.mp3,11399,001,2020-06-25_12h00.13.786,TranslationElicitation_eng-sona,3.2.4,Win32,60,,,,,,,
,,,,,,,,,,,,,,,,,,,,,,,,,,,,,,,,,,,,,,,,,,space,3.014999866,WELL ,FALSE,1,0,5,0,1,4,109,arbre,Catalan,Sounds/cat_arbre.mp3,11399,001,2020-06-25_12h00.13.786,TranslationElicitation_eng-sona,3.2.4,Win32,60,,,,,,,
,,,,,,,,,,,,,,,,,,,,,,,,,,,,,,,,,,,,,,,,,,d,3.180999994,WELL D,FALSE,1,0,5,0,1,4,109,arbre,Catalan,Sounds/cat_arbre.mp3,11399,001,2020-06-25_12h00.13.786,TranslationElicitation_eng-sona,3.2.4,Win32,60,,,,,,,
,,,,,,,,,,,,,,,,,,,,,,,,,,,,,,,,,,,,,,,,,,o,3.264999866,WELL DO,FALSE,1,0,5,0,1,4,109,arbre,Catalan,Sounds/cat_arbre.mp3,11399,001,2020-06-25_12h00.13.786,TranslationElicitation_eng-sona,3.2.4,Win32,60,,,,,,,
,,,,,,,,,,,,,,,,,,,,,,,,,,,,,,,,,,,,,,,,,,n,3.447999954,WELL DON,FALSE,1,0,5,0,1,4,109,arbre,Catalan,Sounds/cat_arbre.mp3,11399,001,2020-06-25_12h00.13.786,TranslationElicitation_eng-sona,3.2.4,Win32,60,,,,,,,
,,,,,,,,,,,,,,,,,,,,,,,,,,,,,,,,,,,,,,,,,,e,3.547999859,WELL DONE,FALSE,1,0,5,0,1,4,109,arbre,Catalan,Sounds/cat_arbre.mp3,11399,001,2020-06-25_12h00.13.786,TranslationElicitation_eng-sona,3.2.4,Win32,60,,,,,,,
,,,,,,,,,,,,,,,,,,,,,,,,,,,,,,,,,,,,,,,,,,return,3.799999952,WELL DONE,FALSE,1,0,5,0,1,4,109,arbre,Catalan,Sounds/cat_arbre.mp3,11399,001,2020-06-25_12h00.13.786,TranslationElicitation_eng-sona,3.2.4,Win32,60,3.799999952,,,,,,
,,,,,,,,,,,,,,,,,,,,,,,,,,,,,,,,,,,,,,,,,,,,,,1,0,5,0,1,4,109,arbre,Catalan,Sounds/cat_arbre.mp3,11399,001,2020-06-25_12h00.13.786,TranslationElicitation_eng-sona,3.2.4,Win32,60,,,,,,,
,,,,,,,,,,,,,,,,,,,,,,,,,,,,,,,,,,,,,,,,,,o,3.199999809,O,FALSE,1,0,5,3,1,4,159,onada,Catalan,Sounds/cat_onada.mp3,11399,001,2020-06-25_12h00.13.786,TranslationElicitation_eng-sona,3.2.4,Win32,60,,,,,,,
,,,,,,,,,,,,,,,,,,,,,,,,,,,,,,,,,,,,,,,,,,h,3.415999889,OH,FALSE,1,0,5,3,1,4,159,onada,Catalan,Sounds/cat_onada.mp3,11399,001,2020-06-25_12h00.13.786,TranslationElicitation_eng-sona,3.2.4,Win32,60,,,,,,,
,,,,,,,,,,,,,,,,,,,,,,,,,,,,,,,,,,,,,,,,,,space,3.615999937,OH ,FALSE,1,0,5,3,1,4,159,onada,Catalan,Sounds/cat_onada.mp3,11399,001,2020-06-25_12h00.13.786,TranslationElicitation_eng-sona,3.2.4,Win32,60,,,,,,,
,,,,,,,,,,,,,,,,,,,,,,,,,,,,,,,,,,,,,,,,,,n,3.731999874,OH N,FALSE,1,0,5,3,1,4,159,onada,Catalan,Sounds/cat_onada.mp3,11399,001,2020-06-25_12h00.13.786,TranslationElicitation_eng-sona,3.2.4,Win32,60,,,,,,,
,,,,,,,,,,,,,,,,,,,,,,,,,,,,,,,,,,,,,,,,,,o,3.882999897,OH NO,FALSE,1,0,5,3,1,4,159,onada,Catalan,Sounds/cat_onada.mp3,11399,001,2020-06-25_12h00.13.786,TranslationElicitation_eng-sona,3.2.4,Win32,60,,,,,,,
,,,,,,,,,,,,,,,,,,,,,,,,,,,,,,,,,,,,,,,,,,return,4.332000017,OH NO,FALSE,1,0,5,3,1,4,159,onada,Catalan,Sounds/cat_onada.mp3,11399,001,2020-06-25_12h00.13.786,TranslationElicitation_eng-sona,3.2.4,Win32,60,4.332000017,,,,,,
,,,,,,,,,,,,,,,,,,,,,,,,,,,,,,,,,,,,,,,,,,,,,,1,0,5,3,1,4,159,onada,Catalan,Sounds/cat_onada.mp3,11399,001,2020-06-25_12h00.13.786,TranslationElicitation_eng-sona,3.2.4,Win32,60,,,,,,,
,,,,,,,,,,,,,,,,,,,,,,,,,,,,,,,,,,,,,,,,,,j,1.717000008,J,FALSE,1,0,5,2,1,4,147,jaqueta,Catalan,Sounds/cat_jaqueta.mp3,11399,001,2020-06-25_12h00.13.786,TranslationElicitation_eng-sona,3.2.4,Win32,60,,,,,,,
,,,,,,,,,,,,,,,,,,,,,,,,,,,,,,,,,,,,,,,,,,a,1.815999985,JA,FALSE,1,0,5,2,1,4,147,jaqueta,Catalan,Sounds/cat_jaqueta.mp3,11399,001,2020-06-25_12h00.13.786,TranslationElicitation_eng-sona,3.2.4,Win32,60,,,,,,,
,,,,,,,,,,,,,,,,,,,,,,,,,,,,,,,,,,,,,,,,,,c,1.98300004,JAC,FALSE,1,0,5,2,1,4,147,jaqueta,Catalan,Sounds/cat_jaqueta.mp3,11399,001,2020-06-25_12h00.13.786,TranslationElicitation_eng-sona,3.2.4,Win32,60,,,,,,,
,,,,,,,,,,,,,,,,,,,,,,,,,,,,,,,,,,,,,,,,,,k,2.115999937,JACK,FALSE,1,0,5,2,1,4,147,jaqueta,Catalan,Sounds/cat_jaqueta.mp3,11399,001,2020-06-25_12h00.13.786,TranslationElicitation_eng-sona,3.2.4,Win32,60,,,,,,,
,,,,,,,,,,,,,,,,,,,,,,,,,,,,,,,,,,,,,,,,,,e,2.23300004,JACKE,FALSE,1,0,5,2,1,4,147,jaqueta,Catalan,Sounds/cat_jaqueta.mp3,11399,001,2020-06-25_12h00.13.786,TranslationElicitation_eng-sona,3.2.4,Win32,60,,,,,,,
,,,,,,,,,,,,,,,,,,,,,,,,,,,,,,,,,,,,,,,,,,t,2.299999952,JACKET,FALSE,1,0,5,2,1,4,147,jaqueta,Catalan,Sounds/cat_jaqueta.mp3,11399,001,2020-06-25_12h00.13.786,TranslationElicitation_eng-sona,3.2.4,Win32,60,,,,,,,
,,,,,,,,,,,,,,,,,,,,,,,,,,,,,,,,,,,,,,,,,,return,2.48300004,JACKET,FALSE,1,0,5,2,1,4,147,jaqueta,Catalan,Sounds/cat_jaqueta.mp3,11399,001,2020-06-25_12h00.13.786,TranslationElicitation_eng-sona,3.2.4,Win32,60,2.48300004,,,,,,
,,,,,,,,,,,,,,,,,,,,,,,,,,,,,,,,,,,,,,,,,,,,,,1,0,5,2,1,4,147,jaqueta,Catalan,Sounds/cat_jaqueta.mp3,11399,001,2020-06-25_12h00.13.786,TranslationElicitation_eng-sona,3.2.4,Win32,60,,,,,,,
,,,,,,,,,,,,,,,,,,,,,,,,,,,,,,,,,,,,,,,,,,t,1.585000038,T,FALSE,1,0,5,4,1,4,179,tigre,Catalan,Sounds/cat_tigre.mp3,11399,001,2020-06-25_12h00.13.786,TranslationElicitation_eng-sona,3.2.4,Win32,60,,,,,,,
,,,,,,,,,,,,,,,,,,,,,,,,,,,,,,,,,,,,,,,,,,i,1.700000048,TI,FALSE,1,0,5,4,1,4,179,tigre,Catalan,Sounds/cat_tigre.mp3,11399,001,2020-06-25_12h00.13.786,TranslationElicitation_eng-sona,3.2.4,Win32,60,,,,,,,
,,,,,,,,,,,,,,,,,,,,,,,,,,,,,,,,,,,,,,,,,,g,1.832999945,TIG,FALSE,1,0,5,4,1,4,179,tigre,Catalan,Sounds/cat_tigre.mp3,11399,001,2020-06-25_12h00.13.786,TranslationElicitation_eng-sona,3.2.4,Win32,60,,,,,,,
,,,,,,,,,,,,,,,,,,,,,,,,,,,,,,,,,,,,,,,,,,e,2,TIGE,FALSE,1,0,5,4,1,4,179,tigre,Catalan,Sounds/cat_tigre.mp3,11399,001,2020-06-25_12h00.13.786,TranslationElicitation_eng-sona,3.2.4,Win32,60,,,,,,,
,,,,,,,,,,,,,,,,,,,,,,,,,,,,,,,,,,,,,,,,,,r,2.065999985,TIGER,FALSE,1,0,5,4,1,4,179,tigre,Catalan,Sounds/cat_tigre.mp3,11399,001,2020-06-25_12h00.13.786,TranslationElicitation_eng-sona,3.2.4,Win32,60,,,,,,,
,,,,,,,,,,,,,,,,,,,,,,,,,,,,,,,,,,,,,,,,,,return,2.251999855,TIGER,FALSE,1,0,5,4,1,4,179,tigre,Catalan,Sounds/cat_tigre.mp3,11399,001,2020-06-25_12h00.13.786,TranslationElicitation_eng-sona,3.2.4,Win32,60,2.251999855,,,,,,
,,,,,,,,,,,,,,,,,,,,,,,,,,,,,,,,,,,,,,,,,,,,,,1,0,5,4,1,4,179,tigre,Catalan,Sounds/cat_tigre.mp3,11399,001,2020-06-25_12h00.13.786,TranslationElicitation_eng-sona,3.2.4,Win32,60,,,,,,,
,,,,,,,,,,,,,,,,,,,,,,,,,,,,,,,,,,,,,,,,,,f,2.866999865,F,FALSE,,,,,,,182,tomaquet,Catalan,Sounds/cat_tomaquet.mp3,11399,001,2020-06-25_12h00.13.786,TranslationElicitation_eng-sona,3.2.4,Win32,60,,1,0,81,73,1,80
,,,,,,,,,,,,,,,,,,,,,,,,,,,,,,,,,,,,,,,,,,o,3.01699996,FO,FALSE,,,,,,,182,tomaquet,Catalan,Sounds/cat_tomaquet.mp3,11399,001,2020-06-25_12h00.13.786,TranslationElicitation_eng-sona,3.2.4,Win32,60,,1,0,81,73,1,80
,,,,,,,,,,,,,,,,,,,,,,,,,,,,,,,,,,,,,,,,,,o,3.149999857,FOO,FALSE,,,,,,,182,tomaquet,Catalan,Sounds/cat_tomaquet.mp3,11399,001,2020-06-25_12h00.13.786,TranslationElicitation_eng-sona,3.2.4,Win32,60,,1,0,81,73,1,80
,,,,,,,,,,,,,,,,,,,,,,,,,,,,,,,,,,,,,,,,,,d,3.316999912,FOOD,FALSE,,,,,,,182,tomaquet,Catalan,Sounds/cat_tomaquet.mp3,11399,001,2020-06-25_12h00.13.786,TranslationElicitation_eng-sona,3.2.4,Win32,60,,1,0,81,73,1,80
,,,,,,,,,,,,,,,,,,,,,,,,,,,,,,,,,,,,,,,,,,return,4.116999865,FOOD,FALSE,,,,,,,182,tomaquet,Catalan,Sounds/cat_tomaquet.mp3,11399,001,2020-06-25_12h00.13.786,TranslationElicitation_eng-sona,3.2.4,Win32,60,4.116999865,1,0,81,73,1,80
,,,,,,,,,,,,,,,,,,,,,,,,,,,,,,,,,,,,,,,,,,,,,,,,,,,,182,tomaquet,Catalan,Sounds/cat_tomaquet.mp3,11399,001,2020-06-25_12h00.13.786,TranslationElicitation_eng-sona,3.2.4,Win32,60,,1,0,81,73,1,80
,,,,,,,,,,,,,,,,,,,,,,,,,,,,,,,,,,,,,,,,,,e,1.75,E,FALSE,,,,,,,167,pingui,Catalan,Sounds/cat_pingui.mp3,11399,001,2020-06-25_12h00.13.786,TranslationElicitation_eng-sona,3.2.4,Win32,60,,1,0,81,59,1,80
,,,,,,,,,,,,,,,,,,,,,,,,,,,,,,,,,,,,,,,,,,n,1.900000095,EN,FALSE,,,,,,,167,pingui,Catalan,Sounds/cat_pingui.mp3,11399,001,2020-06-25_12h00.13.786,TranslationElicitation_eng-sona,3.2.4,Win32,60,,1,0,81,59,1,80
,,,,,,,,,,,,,,,,,,,,,,,,,,,,,,,,,,,,,,,,,,backspace,2.332999945,,TRUE,,,,,,,167,pingui,Catalan,Sounds/cat_pingui.mp3,11399,001,2020-06-25_12h00.13.786,TranslationElicitation_eng-sona,3.2.4,Win32,60,,1,0,81,59,1,80
,,,,,,,,,,,,,,,,,,,,,,,,,,,,,,,,,,,,,,,,,,backspace,2.48300004,,TRUE,,,,,,,167,pingui,Catalan,Sounds/cat_pingui.mp3,11399,001,2020-06-25_12h00.13.786,TranslationElicitation_eng-sona,3.2.4,Win32,60,,1,0,81,59,1,80
,,,,,,,,,,,,,,,,,,,,,,,,,,,,,,,,,,,,,,,,,,p,2.933000088,P,TRUE,,,,,,,167,pingui,Catalan,Sounds/cat_pingui.mp3,11399,001,2020-06-25_12h00.13.786,TranslationElicitation_eng-sona,3.2.4,Win32,60,,1,0,81,59,1,80
,,,,,,,,,,,,,,,,,,,,,,,,,,,,,,,,,,,,,,,,,,e,3.065999985,PE,TRUE,,,,,,,167,pingui,Catalan,Sounds/cat_pingui.mp3,11399,001,2020-06-25_12h00.13.786,TranslationElicitation_eng-sona,3.2.4,Win32,60,,1,0,81,59,1,80
,,,,,,,,,,,,,,,,,,,,,,,,,,,,,,,,,,,,,,,,,,n,3.25,PEN,TRUE,,,,,,,167,pingui,Catalan,Sounds/cat_pingui.mp3,11399,001,2020-06-25_12h00.13.786,TranslationElicitation_eng-sona,3.2.4,Win32,60,,1,0,81,59,1,80
,,,,,,,,,,,,,,,,,,,,,,,,,,,,,,,,,,,,,,,,,,g,3.383000135,PENG,TRUE,,,,,,,167,pingui,Catalan,Sounds/cat_pingui.mp3,11399,001,2020-06-25_12h00.13.786,TranslationElicitation_eng-sona,3.2.4,Win32,60,,1,0,81,59,1,80
,,,,,,,,,,,,,,,,,,,,,,,,,,,,,,,,,,,,,,,,,,u,3.5,PENGU,TRUE,,,,,,,167,pingui,Catalan,Sounds/cat_pingui.mp3,11399,001,2020-06-25_12h00.13.786,TranslationElicitation_eng-sona,3.2.4,Win32,60,,1,0,81,59,1,80
,,,,,,,,,,,,,,,,,,,,,,,,,,,,,,,,,,,,,,,,,,i,3.683000088,PENGUI,TRUE,,,,,,,167,pingui,Catalan,Sounds/cat_pingui.mp3,11399,001,2020-06-25_12h00.13.786,TranslationElicitation_eng-sona,3.2.4,Win32,60,,1,0,81,59,1,80
,,,,,,,,,,,,,,,,,,,,,,,,,,,,,,,,,,,,,,,,,,n,3.883000135,PENGUIN,TRUE,,,,,,,167,pingui,Catalan,Sounds/cat_pingui.mp3,11399,001,2020-06-25_12h00.13.786,TranslationElicitation_eng-sona,3.2.4,Win32,60,,1,0,81,59,1,80
,,,,,,,,,,,,,,,,,,,,,,,,,,,,,,,,,,,,,,,,,,return,4.315999985,PENGUIN,TRUE,,,,,,,167,pingui,Catalan,Sounds/cat_pingui.mp3,11399,001,2020-06-25_12h00.13.786,TranslationElicitation_eng-sona,3.2.4,Win32,60,4.315999985,1,0,81,59,1,80
,,,,,,,,,,,,,,,,,,,,,,,,,,,,,,,,,,,,,,,,,,,,,,,,,,,,167,pingui,Catalan,Sounds/cat_pingui.mp3,11399,001,2020-06-25_12h00.13.786,TranslationElicitation_eng-sona,3.2.4,Win32,60,,1,0,81,59,1,80
,,,,,,,,,,,,,,,,,,,,,,,,,,,,,,,,,,,,,,,,,,u,1.434000015,U,FALSE,,,,,,,160,orella,Catalan,Sounds/cat_orella.mp3,11399,001,2020-06-25_12h00.13.786,TranslationElicitation_eng-sona,3.2.4,Win32,60,,1,0,81,52,1,80
,,,,,,,,,,,,,,,,,,,,,,,,,,,,,,,,,,,,,,,,,,m,1.650000095,UM,FALSE,,,,,,,160,orella,Catalan,Sounds/cat_orella.mp3,11399,001,2020-06-25_12h00.13.786,TranslationElicitation_eng-sona,3.2.4,Win32,60,,1,0,81,52,1,80
,,,,,,,,,,,,,,,,,,,,,,,,,,,,,,,,,,,,,,,,,,b,1.884000063,UMB,FALSE,,,,,,,160,orella,Catalan,Sounds/cat_orella.mp3,11399,001,2020-06-25_12h00.13.786,TranslationElicitation_eng-sona,3.2.4,Win32,60,,1,0,81,52,1,80
,,,,,,,,,,,,,,,,,,,,,,,,,,,,,,,,,,,,,,,,,,r,2.082999945,UMBR,FALSE,,,,,,,160,orella,Catalan,Sounds/cat_orella.mp3,11399,001,2020-06-25_12h00.13.786,TranslationElicitation_eng-sona,3.2.4,Win32,60,,1,0,81,52,1,80
,,,,,,,,,,,,,,,,,,,,,,,,,,,,,,,,,,,,,,,,,,e,2.150000095,UMBRE,FALSE,,,,,,,160,orella,Catalan,Sounds/cat_orella.mp3,11399,001,2020-06-25_12h00.13.786,TranslationElicitation_eng-sona,3.2.4,Win32,60,,1,0,81,52,1,80
,,,,,,,,,,,,,,,,,,,,,,,,,,,,,,,,,,,,,,,,,,a,2.26699996,UMBREA,FALSE,,,,,,,160,orella,Catalan,Sounds/cat_orella.mp3,11399,001,2020-06-25_12h00.13.786,TranslationElicitation_eng-sona,3.2.4,Win32,60,,1,0,81,52,1,80
,,,,,,,,,,,,,,,,,,,,,,,,,,,,,,,,,,,,,,,,,,l,2.5,UMBREAL,FALSE,,,,,,,160,orella,Catalan,Sounds/cat_orella.mp3,11399,001,2020-06-25_12h00.13.786,TranslationElicitation_eng-sona,3.2.4,Win32,60,,1,0,81,52,1,80
,,,,,,,,,,,,,,,,,,,,,,,,,,,,,,,,,,,,,,,,,,l,2.633000135,UMBREALL,FALSE,,,,,,,160,orella,Catalan,Sounds/cat_orella.mp3,11399,001,2020-06-25_12h00.13.786,TranslationElicitation_eng-sona,3.2.4,Win32,60,,1,0,81,52,1,80
,,,,,,,,,,,,,,,,,,,,,,,,,,,,,,,,,,,,,,,,,,backspace,2.933000088,UMBREA,TRUE,,,,,,,160,orella,Catalan,Sounds/cat_orella.mp3,11399,001,2020-06-25_12h00.13.786,TranslationElicitation_eng-sona,3.2.4,Win32,60,,1,0,81,52,1,80
,,,,,,,,,,,,,,,,,,,,,,,,,,,,,,,,,,,,,,,,,,backspace,3.082999945,UMBR,TRUE,,,,,,,160,orella,Catalan,Sounds/cat_orella.mp3,11399,001,2020-06-25_12h00.13.786,TranslationElicitation_eng-sona,3.2.4,Win32,60,,1,0,81,52,1,80
,,,,,,,,,,,,,,,,,,,,,,,,,,,,,,,,,,,,,,,,,,e,3.893000126,UMBRE,TRUE,,,,,,,160,orella,Catalan,Sounds/cat_orella.mp3,11399,001,2020-06-25_12h00.13.786,TranslationElicitation_eng-sona,3.2.4,Win32,60,,1,0,81,52,1,80
,,,,,,,,,,,,,,,,,,,,,,,,,,,,,,,,,,,,,,,,,,l,4.084000111,UMBREL,TRUE,,,,,,,160,orella,Catalan,Sounds/cat_orella.mp3,11399,001,2020-06-25_12h00.13.786,TranslationElicitation_eng-sona,3.2.4,Win32,60,,1,0,81,52,1,80
,,,,,,,,,,,,,,,,,,,,,,,,,,,,,,,,,,,,,,,,,,l,4.200000048,UMBRELL,TRUE,,,,,,,160,orella,Catalan,Sounds/cat_orella.mp3,11399,001,2020-06-25_12h00.13.786,TranslationElicitation_eng-sona,3.2.4,Win32,60,,1,0,81,52,1,80
,,,,,,,,,,,,,,,,,,,,,,,,,,,,,,,,,,,,,,,,,,a,4.332999945,UMBRELLA,TRUE,,,,,,,160,orella,Catalan,Sounds/cat_orella.mp3,11399,001,2020-06-25_12h00.13.786,TranslationElicitation_eng-sona,3.2.4,Win32,60,,1,0,81,52,1,80
,,,,,,,,,,,,,,,,,,,,,,,,,,,,,,,,,,,,,,,,,,return,5.018000126,UMBRELLA,TRUE,,,,,,,160,orella,Catalan,Sounds/cat_orella.mp3,11399,001,2020-06-25_12h00.13.786,TranslationElicitation_eng-sona,3.2.4,Win32,60,5.018000126,1,0,81,52,1,80
,,,,,,,,,,,,,,,,,,,,,,,,,,,,,,,,,,,,,,,,,,,,,,,,,,,,160,orella,Catalan,Sounds/cat_orella.mp3,11399,001,2020-06-25_12h00.13.786,TranslationElicitation_eng-sona,3.2.4,Win32,60,,1,0,81,52,1,80
,,,,,,,,,,,,,,,,,,,,,,,,,,,,,,,,,,,,,,,,,,s,1.964999914,S,FALSE,,,,,,,124,cirera,Catalan,Sounds/cat_cirera.mp3,11399,001,2020-06-25_12h00.13.786,TranslationElicitation_eng-sona,3.2.4,Win32,60,,1,0,81,19,1,80
,,,,,,,,,,,,,,,,,,,,,,,,,,,,,,,,,,,,,,,,,,i,2.115999937,SI,FALSE,,,,,,,124,cirera,Catalan,Sounds/cat_cirera.mp3,11399,001,2020-06-25_12h00.13.786,TranslationElicitation_eng-sona,3.2.4,Win32,60,,1,0,81,19,1,80
,,,,,,,,,,,,,,,,,,,,,,,,,,,,,,,,,,,,,,,,,,s,2.215999842,SIS,FALSE,,,,,,,124,cirera,Catalan,Sounds/cat_cirera.mp3,11399,001,2020-06-25_12h00.13.786,TranslationElicitation_eng-sona,3.2.4,Win32,60,,1,0,81,19,1,80
,,,,,,,,,,,,,,,,,,,,,,,,,,,,,,,,,,,,,,,,,,t,2.36500001,SIST,FALSE,,,,,,,124,cirera,Catalan,Sounds/cat_cirera.mp3,11399,001,2020-06-25_12h00.13.786,TranslationElicitation_eng-sona,3.2.4,Win32,60,,1,0,81,19,1,80
,,,,,,,,,,,,,,,,,,,,,,,,,,,,,,,,,,,,,,,,,,e,2.448999882,SISTE,FALSE,,,,,,,124,cirera,Catalan,Sounds/cat_cirera.mp3,11399,001,2020-06-25_12h00.13.786,TranslationElicitation_eng-sona,3.2.4,Win32,60,,1,0,81,19,1,80
,,,,,,,,,,,,,,,,,,,,,,,,,,,,,,,,,,,,,,,,,,r,2.631999969,SISTER,FALSE,,,,,,,124,cirera,Catalan,Sounds/cat_cirera.mp3,11399,001,2020-06-25_12h00.13.786,TranslationElicitation_eng-sona,3.2.4,Win32,60,,1,0,81,19,1,80
,,,,,,,,,,,,,,,,,,,,,,,,,,,,,,,,,,,,,,,,,,return,3.098999977,SISTER,FALSE,,,,,,,124,cirera,Catalan,Sounds/cat_cirera.mp3,11399,001,2020-06-25_12h00.13.786,TranslationElicitation_eng-sona,3.2.4,Win32,60,3.098999977,1,0,81,19,1,80
,,,,,,,,,,,,,,,,,,,,,,,,,,,,,,,,,,,,,,,,,,,,,,,,,,,,124,cirera,Catalan,Sounds/cat_cirera.mp3,11399,001,2020-06-25_12h00.13.786,TranslationElicitation_eng-sona,3.2.4,Win32,60,,1,0,81,19,1,80
,,,,,,,,,,,,,,,,,,,,,,,,,,,,,,,,,,,,,,,,,,p,1.450000048,P,FALSE,,,,,,,170,ploma,Catalan,Sounds/cat_ploma.mp3,11399,001,2020-06-25_12h00.13.786,TranslationElicitation_eng-sona,3.2.4,Win32,60,,1,0,81,62,1,80
,,,,,,,,,,,,,,,,,,,,,,,,,,,,,,,,,,,,,,,,,,l,1.665999889,PL,FALSE,,,,,,,170,ploma,Catalan,Sounds/cat_ploma.mp3,11399,001,2020-06-25_12h00.13.786,TranslationElicitation_eng-sona,3.2.4,Win32,60,,1,0,81,62,1,80
,,,,,,,,,,,,,,,,,,,,,,,,,,,,,,,,,,,,,,,,,,u,1.849999905,PLU,FALSE,,,,,,,170,ploma,Catalan,Sounds/cat_ploma.mp3,11399,001,2020-06-25_12h00.13.786,TranslationElicitation_eng-sona,3.2.4,Win32,60,,1,0,81,62,1,80
,,,,,,,,,,,,,,,,,,,,,,,,,,,,,,,,,,,,,,,,,,m,2.032999992,PLUM,FALSE,,,,,,,170,ploma,Catalan,Sounds/cat_ploma.mp3,11399,001,2020-06-25_12h00.13.786,TranslationElicitation_eng-sona,3.2.4,Win32,60,,1,0,81,62,1,80
,,,,,,,,,,,,,,,,,,,,,,,,,,,,,,,,,,,,,,,,,,b,2.217000008,PLUMB,FALSE,,,,,,,170,ploma,Catalan,Sounds/cat_ploma.mp3,11399,001,2020-06-25_12h00.13.786,TranslationElicitation_eng-sona,3.2.4,Win32,60,,1,0,81,62,1,80
,,,,,,,,,,,,,,,,,,,,,,,,,,,,,,,,,,,,,,,,,,return,2.532999992,PLUMB,FALSE,,,,,,,170,ploma,Catalan,Sounds/cat_ploma.mp3,11399,001,2020-06-25_12h00.13.786,TranslationElicitation_eng-sona,3.2.4,Win32,60,2.532999992,1,0,81,62,1,80
,,,,,,,,,,,,,,,,,,,,,,,,,,,,,,,,,,,,,,,,,,,,,,,,,,,,170,ploma,Catalan,Sounds/cat_ploma.mp3,11399,001,2020-06-25_12h00.13.786,TranslationElicitation_eng-sona,3.2.4,Win32,60,,1,0,81,62,1,80
,,,,,,,,,,,,,,,,,,,,,,,,,,,,,,,,,,,,,,,,,,b,2.616999865,B,FALSE,,,,,,,117,boto,Catalan,Sounds/cat_boto.mp3,11399,001,2020-06-25_12h00.13.786,TranslationElicitation_eng-sona,3.2.4,Win32,60,,1,0,81,12,1,80
,,,,,,,,,,,,,,,,,,,,,,,,,,,,,,,,,,,,,,,,,,u,2.78399992,BU,FALSE,,,,,,,117,boto,Catalan,Sounds/cat_boto.mp3,11399,001,2020-06-25_12h00.13.786,TranslationElicitation_eng-sona,3.2.4,Win32,60,,1,0,81,12,1,80
,,,,,,,,,,,,,,,,,,,,,,,,,,,,,,,,,,,,,,,,,,t,2.950000048,BUT,FALSE,,,,,,,117,boto,Catalan,Sounds/cat_boto.mp3,11399,001,2020-06-25_12h00.13.786,TranslationElicitation_eng-sona,3.2.4,Win32,60,,1,0,81,12,1,80
,,,,,,,,,,,,,,,,,,,,,,,,,,,,,,,,,,,,,,,,,,t,3.167000055,BUTT,FALSE,,,,,,,117,boto,Catalan,Sounds/cat_boto.mp3,11399,001,2020-06-25_12h00.13.786,TranslationElicitation_eng-sona,3.2.4,Win32,60,,1,0,81,12,1,80
,,,,,,,,,,,,,,,,,,,,,,,,,,,,,,,,,,,,,,,,,,e,3.769000053,BUTTE,FALSE,,,,,,,117,boto,Catalan,Sounds/cat_boto.mp3,11399,001,2020-06-25_12h00.13.786,TranslationElicitation_eng-sona,3.2.4,Win32,60,,1,0,81,12,1,80
,,,,,,,,,,,,,,,,,,,,,,,,,,,,,,,,,,,,,,,,,,r,3.866999865,BUTTER,FALSE,,,,,,,117,boto,Catalan,Sounds/cat_boto.mp3,11399,001,2020-06-25_12h00.13.786,TranslationElicitation_eng-sona,3.2.4,Win32,60,,1,0,81,12,1,80
,,,,,,,,,,,,,,,,,,,,,,,,,,,,,,,,,,,,,,,,,,return,4.25,BUTTER,FALSE,,,,,,,117,boto,Catalan,Sounds/cat_boto.mp3,11399,001,2020-06-25_12h00.13.786,TranslationElicitation_eng-sona,3.2.4,Win32,60,4.25,1,0,81,12,1,80
,,,,,,,,,,,,,,,,,,,,,,,,,,,,,,,,,,,,,,,,,,,,,,,,,,,,117,boto,Catalan,Sounds/cat_boto.mp3,11399,001,2020-06-25_12h00.13.786,TranslationElicitation_eng-sona,3.2.4,Win32,60,,1,0,81,12,1,80
,,,,,,,,,,,,,,,,,,,,,,,,,,,,,,,,,,,,,,,,,,f,3.666000128,F,FALSE,,,,,,,140,gat,Catalan,Sounds/cat_gat.mp3,11399,001,2020-06-25_12h00.13.786,TranslationElicitation_eng-sona,3.2.4,Win32,60,,1,0,81,34,1,80
,,,,,,,,,,,,,,,,,,,,,,,,,,,,,,,,,,,,,,,,,,o,3.848999977,FO,FALSE,,,,,,,140,gat,Catalan,Sounds/cat_gat.mp3,11399,001,2020-06-25_12h00.13.786,TranslationElicitation_eng-sona,3.2.4,Win32,60,,1,0,81,34,1,80
,,,,,,,,,,,,,,,,,,,,,,,,,,,,,,,,,,,,,,,,,,r,3.96600008,FOR,FALSE,,,,,,,140,gat,Catalan,Sounds/cat_gat.mp3,11399,001,2020-06-25_12h00.13.786,TranslationElicitation_eng-sona,3.2.4,Win32,60,,1,0,81,34,1,80
,,,,,,,,,,,,,,,,,,,,,,,,,,,,,,,,,,,,,,,,,,m,4.098999977,FORM,FALSE,,,,,,,140,gat,Catalan,Sounds/cat_gat.mp3,11399,001,2020-06-25_12h00.13.786,TranslationElicitation_eng-sona,3.2.4,Win32,60,,1,0,81,34,1,80
,,,,,,,,,,,,,,,,,,,,,,,,,,,,,,,,,,,,,,,,,,k,4.332999945,FORMK,FALSE,,,,,,,140,gat,Catalan,Sounds/cat_gat.mp3,11399,001,2020-06-25_12h00.13.786,TranslationElicitation_eng-sona,3.2.4,Win32,60,,1,0,81,34,1,80
,,,,,,,,,,,,,,,,,,,,,,,,,,,,,,,,,,,,,,,,,,backspace,4.681999922,FOR,TRUE,,,,,,,140,gat,Catalan,Sounds/cat_gat.mp3,11399,001,2020-06-25_12h00.13.786,TranslationElicitation_eng-sona,3.2.4,Win32,60,,1,0,81,34,1,80
,,,,,,,,,,,,,,,,,,,,,,,,,,,,,,,,,,,,,,,,,,backspace,4.822999954,F,TRUE,,,,,,,140,gat,Catalan,Sounds/cat_gat.mp3,11399,001,2020-06-25_12h00.13.786,TranslationElicitation_eng-sona,3.2.4,Win32,60,,1,0,81,34,1,80
,,,,,,,,,,,,,,,,,,,,,,,,,,,,,,,,,,,,,,,,,,o,5.565999985,FO,TRUE,,,,,,,140,gat,Catalan,Sounds/cat_gat.mp3,11399,001,2020-06-25_12h00.13.786,TranslationElicitation_eng-sona,3.2.4,Win32,60,,1,0,81,34,1,80
,,,,,,,,,,,,,,,,,,,,,,,,,,,,,,,,,,,,,,,,,,r,5.73300004,FOR,TRUE,,,,,,,140,gat,Catalan,Sounds/cat_gat.mp3,11399,001,2020-06-25_12h00.13.786,TranslationElicitation_eng-sona,3.2.4,Win32,60,,1,0,81,34,1,80
,,,,,,,,,,,,,,,,,,,,,,,,,,,,,,,,,,,,,,,,,,k,5.898999929,FORK,TRUE,,,,,,,140,gat,Catalan,Sounds/cat_gat.mp3,11399,001,2020-06-25_12h00.13.786,TranslationElicitation_eng-sona,3.2.4,Win32,60,,1,0,81,34,1,80
,,,,,,,,,,,,,,,,,,,,,,,,,,,,,,,,,,,,,,,,,,return,6.266000032,FORK,TRUE,,,,,,,140,gat,Catalan,Sounds/cat_gat.mp3,11399,001,2020-06-25_12h00.13.786,TranslationElicitation_eng-sona,3.2.4,Win32,60,6.266000032,1,0,81,34,1,80
,,,,,,,,,,,,,,,,,,,,,,,,,,,,,,,,,,,,,,,,,,,,,,,,,,,,140,gat,Catalan,Sounds/cat_gat.mp3,11399,001,2020-06-25_12h00.13.786,TranslationElicitation_eng-sona,3.2.4,Win32,60,,1,0,81,34,1,80
,,,,,,,,,,,,,,,,,,,,,,,,,,,,,,,,,,,,,,,,,,g,3.282999992,G,FALSE,,,,,,,139,galleda,Catalan,Sounds/cat_galleda.mp3,11399,001,2020-06-25_12h00.13.786,TranslationElicitation_eng-sona,3.2.4,Win32,60,,1,0,81,33,1,80
,,,,,,,,,,,,,,,,,,,,,,,,,,,,,,,,,,,,,,,,,,r,3.532999992,GR,FALSE,,,,,,,139,galleda,Catalan,Sounds/cat_galleda.mp3,11399,001,2020-06-25_12h00.13.786,TranslationElicitation_eng-sona,3.2.4,Win32,60,,1,0,81,33,1,80
,,,,,,,,,,,,,,,,,,,,,,,,,,,,,,,,,,,,,,,,,,a,3.632999897,GRA,FALSE,,,,,,,139,galleda,Catalan,Sounds/cat_galleda.mp3,11399,001,2020-06-25_12h00.13.786,TranslationElicitation_eng-sona,3.2.4,Win32,60,,1,0,81,33,1,80
,,,,,,,,,,,,,,,,,,,,,,,,,,,,,,,,,,,,,,,,,,n,3.815999985,GRAN,FALSE,,,,,,,139,galleda,Catalan,Sounds/cat_galleda.mp3,11399,001,2020-06-25_12h00.13.786,TranslationElicitation_eng-sona,3.2.4,Win32,60,,1,0,81,33,1,80
,,,,,,,,,,,,,,,,,,,,,,,,,,,,,,,,,,,,,,,,,,d,4.132999897,GRAND,FALSE,,,,,,,139,galleda,Catalan,Sounds/cat_galleda.mp3,11399,001,2020-06-25_12h00.13.786,TranslationElicitation_eng-sona,3.2.4,Win32,60,,1,0,81,33,1,80
,,,,,,,,,,,,,,,,,,,,,,,,,,,,,,,,,,,,,,,,,,m,4.532999992,GRANDM,FALSE,,,,,,,139,galleda,Catalan,Sounds/cat_galleda.mp3,11399,001,2020-06-25_12h00.13.786,TranslationElicitation_eng-sona,3.2.4,Win32,60,,1,0,81,33,1,80
,,,,,,,,,,,,,,,,,,,,,,,,,,,,,,,,,,,,,,,,,,o,4.832999945,GRANDMO,FALSE,,,,,,,139,galleda,Catalan,Sounds/cat_galleda.mp3,11399,001,2020-06-25_12h00.13.786,TranslationElicitation_eng-sona,3.2.4,Win32,60,,1,0,81,33,1,80
,,,,,,,,,,,,,,,,,,,,,,,,,,,,,,,,,,,,,,,,,,t,5.23300004,GRANDMOT,FALSE,,,,,,,139,galleda,Catalan,Sounds/cat_galleda.mp3,11399,001,2020-06-25_12h00.13.786,TranslationElicitation_eng-sona,3.2.4,Win32,60,,1,0,81,33,1,80
,,,,,,,,,,,,,,,,,,,,,,,,,,,,,,,,,,,,,,,,,,h,5.367000103,GRANDMOTH,FALSE,,,,,,,139,galleda,Catalan,Sounds/cat_galleda.mp3,11399,001,2020-06-25_12h00.13.786,TranslationElicitation_eng-sona,3.2.4,Win32,60,,1,0,81,33,1,80
,,,,,,,,,,,,,,,,,,,,,,,,,,,,,,,,,,,,,,,,,,e,5.48300004,GRANDMOTHE,FALSE,,,,,,,139,galleda,Catalan,Sounds/cat_galleda.mp3,11399,001,2020-06-25_12h00.13.786,TranslationElicitation_eng-sona,3.2.4,Win32,60,,1,0,81,33,1,80
,,,,,,,,,,,,,,,,,,,,,,,,,,,,,,,,,,,,,,,,,,r,5.572000027,GRANDMOTHER,FALSE,,,,,,,139,galleda,Catalan,Sounds/cat_galleda.mp3,11399,001,2020-06-25_12h00.13.786,TranslationElicitation_eng-sona,3.2.4,Win32,60,,1,0,81,33,1,80
,,,,,,,,,,,,,,,,,,,,,,,,,,,,,,,,,,,,,,,,,,return,5.849999905,GRANDMOTHER,FALSE,,,,,,,139,galleda,Catalan,Sounds/cat_galleda.mp3,11399,001,2020-06-25_12h00.13.786,TranslationElicitation_eng-sona,3.2.4,Win32,60,5.849999905,1,0,81,33,1,80
,,,,,,,,,,,,,,,,,,,,,,,,,,,,,,,,,,,,,,,,,,,,,,,,,,,,139,galleda,Catalan,Sounds/cat_galleda.mp3,11399,001,2020-06-25_12h00.13.786,TranslationElicitation_eng-sona,3.2.4,Win32,60,,1,0,81,33,1,80
,,,,,,,,,,,,,,,,,,,,,,,,,,,,,,,,,,,,,,,,,,c,4.214999914,C,FALSE,,,,,,,130,entrepa,Catalan,Sounds/cat_entrepa.mp3,11399,001,2020-06-25_12h00.13.786,TranslationElicitation_eng-sona,3.2.4,Win32,60,,1,0,81,24,1,80
,,,,,,,,,,,,,,,,,,,,,,,,,,,,,,,,,,,,,,,,,,i,4.36500001,CI,FALSE,,,,,,,130,entrepa,Catalan,Sounds/cat_entrepa.mp3,11399,001,2020-06-25_12h00.13.786,TranslationElicitation_eng-sona,3.2.4,Win32,60,,1,0,81,24,1,80
,,,,,,,,,,,,,,,,,,,,,,,,,,,,,,,,,,,,,,,,,,r,4.514999866,CIR,FALSE,,,,,,,130,entrepa,Catalan,Sounds/cat_entrepa.mp3,11399,001,2020-06-25_12h00.13.786,TranslationElicitation_eng-sona,3.2.4,Win32,60,,1,0,81,24,1,80
,,,,,,,,,,,,,,,,,,,,,,,,,,,,,,,,,,,,,,,,,,c,4.714999914,CIRC,FALSE,,,,,,,130,entrepa,Catalan,Sounds/cat_entrepa.mp3,11399,001,2020-06-25_12h00.13.786,TranslationElicitation_eng-sona,3.2.4,Win32,60,,1,0,81,24,1,80
,,,,,,,,,,,,,,,,,,,,,,,,,,,,,,,,,,,,,,,,,,u,4.86500001,CIRCU,FALSE,,,,,,,130,entrepa,Catalan,Sounds/cat_entrepa.mp3,11399,001,2020-06-25_12h00.13.786,TranslationElicitation_eng-sona,3.2.4,Win32,60,,1,0,81,24,1,80
,,,,,,,,,,,,,,,,,,,,,,,,,,,,,,,,,,,,,,,,,,s,5.031999826,CIRCUS,FALSE,,,,,,,130,entrepa,Catalan,Sounds/cat_entrepa.mp3,11399,001,2020-06-25_12h00.13.786,TranslationElicitation_eng-sona,3.2.4,Win32,60,,1,0,81,24,1,80
,,,,,,,,,,,,,,,,,,,,,,,,,,,,,,,,,,,,,,,,,,return,5.26699996,CIRCUS,FALSE,,,,,,,130,entrepa,Catalan,Sounds/cat_entrepa.mp3,11399,001,2020-06-25_12h00.13.786,TranslationElicitation_eng-sona,3.2.4,Win32,60,5.26699996,1,0,81,24,1,80
,,,,,,,,,,,,,,,,,,,,,,,,,,,,,,,,,,,,,,,,,,,,,,,,,,,,130,entrepa,Catalan,Sounds/cat_entrepa.mp3,11399,001,2020-06-25_12h00.13.786,TranslationElicitation_eng-sona,3.2.4,Win32,60,,1,0,81,24,1,80
,,,,,,,,,,,,,,,,,,,,,,,,,,,,,,,,,,,,,,,,,,m,1.616000175,M,FALSE,,,,,,,155,moneda,Catalan,Sounds/cat_moneda.mp3,11399,001,2020-06-25_12h00.13.786,TranslationElicitation_eng-sona,3.2.4,Win32,60,,1,0,81,48,1,80
,,,,,,,,,,,,,,,,,,,,,,,,,,,,,,,,,,,,,,,,,,o,1.799999952,MO,FALSE,,,,,,,155,moneda,Catalan,Sounds/cat_moneda.mp3,11399,001,2020-06-25_12h00.13.786,TranslationElicitation_eng-sona,3.2.4,Win32,60,,1,0,81,48,1,80
,,,,,,,,,,,,,,,,,,,,,,,,,,,,,,,,,,,,,,,,,,t,1.98300004,MOT,FALSE,,,,,,,155,moneda,Catalan,Sounds/cat_moneda.mp3,11399,001,2020-06-25_12h00.13.786,TranslationElicitation_eng-sona,3.2.4,Win32,60,,1,0,81,48,1,80
,,,,,,,,,,,,,,,,,,,,,,,,,,,,,,,,,,,,,,,,,,h,2.116000175,MOTH,FALSE,,,,,,,155,moneda,Catalan,Sounds/cat_moneda.mp3,11399,001,2020-06-25_12h00.13.786,TranslationElicitation_eng-sona,3.2.4,Win32,60,,1,0,81,48,1,80
,,,,,,,,,,,,,,,,,,,,,,,,,,,,,,,,,,,,,,,,,,e,2.25,MOTHE,FALSE,,,,,,,155,moneda,Catalan,Sounds/cat_moneda.mp3,11399,001,2020-06-25_12h00.13.786,TranslationElicitation_eng-sona,3.2.4,Win32,60,,1,0,81,48,1,80
,,,,,,,,,,,,,,,,,,,,,,,,,,,,,,,,,,,,,,,,,,r,2.315999985,MOTHER,FALSE,,,,,,,155,moneda,Catalan,Sounds/cat_moneda.mp3,11399,001,2020-06-25_12h00.13.786,TranslationElicitation_eng-sona,3.2.4,Win32,60,,1,0,81,48,1,80
,,,,,,,,,,,,,,,,,,,,,,,,,,,,,,,,,,,,,,,,,,return,2.916000128,MOTHER,FALSE,,,,,,,155,moneda,Catalan,Sounds/cat_moneda.mp3,11399,001,2020-06-25_12h00.13.786,TranslationElicitation_eng-sona,3.2.4,Win32,60,2.916000128,1,0,81,48,1,80
,,,,,,,,,,,,,,,,,,,,,,,,,,,,,,,,,,,,,,,,,,,,,,,,,,,,155,moneda,Catalan,Sounds/cat_moneda.mp3,11399,001,2020-06-25_12h00.13.786,TranslationElicitation_eng-sona,3.2.4,Win32,60,,1,0,81,48,1,80
,,,,,,,,,,,,,,,,,,,,,,,,,,,,,,,,,,,,,,,,,,m,2.348999977,M,FALSE,,,,,,,151,lluna,Catalan,Sounds/cat_lluna.mp3,11399,001,2020-06-25_12h00.13.786,TranslationElicitation_eng-sona,3.2.4,Win32,60,,1,0,81,44,1,80
,,,,,,,,,,,,,,,,,,,,,,,,,,,,,,,,,,,,,,,,,,o,2.48300004,MO,FALSE,,,,,,,151,lluna,Catalan,Sounds/cat_lluna.mp3,11399,001,2020-06-25_12h00.13.786,TranslationElicitation_eng-sona,3.2.4,Win32,60,,1,0,81,44,1,80
,,,,,,,,,,,,,,,,,,,,,,,,,,,,,,,,,,,,,,,,,,o,2.665999889,MOO,FALSE,,,,,,,151,lluna,Catalan,Sounds/cat_lluna.mp3,11399,001,2020-06-25_12h00.13.786,TranslationElicitation_eng-sona,3.2.4,Win32,60,,1,0,81,44,1,80
,,,,,,,,,,,,,,,,,,,,,,,,,,,,,,,,,,,,,,,,,,n,2.799000025,MOON,FALSE,,,,,,,151,lluna,Catalan,Sounds/cat_lluna.mp3,11399,001,2020-06-25_12h00.13.786,TranslationElicitation_eng-sona,3.2.4,Win32,60,,1,0,81,44,1,80
,,,,,,,,,,,,,,,,,,,,,,,,,,,,,,,,,,,,,,,,,,return,3.165999889,MOON,FALSE,,,,,,,151,lluna,Catalan,Sounds/cat_lluna.mp3,11399,001,2020-06-25_12h00.13.786,TranslationElicitation_eng-sona,3.2.4,Win32,60,3.165999889,1,0,81,44,1,80
,,,,,,,,,,,,,,,,,,,,,,,,,,,,,,,,,,,,,,,,,,,,,,,,,,,,151,lluna,Catalan,Sounds/cat_lluna.mp3,11399,001,2020-06-25_12h00.13.786,TranslationElicitation_eng-sona,3.2.4,Win32,60,,1,0,81,44,1,80
,,,,,,,,,,,,,,,,,,,,,,,,,,,,,,,,,,,,,,,,,,s,1.48300004,S,FALSE,,,,,,,131,esponja,Catalan,Sounds/cat_esponja.mp3,11399,001,2020-06-25_12h00.13.786,TranslationElicitation_eng-sona,3.2.4,Win32,60,,1,0,81,25,1,80
,,,,,,,,,,,,,,,,,,,,,,,,,,,,,,,,,,,,,,,,,,p,1.633000135,SP,FALSE,,,,,,,131,esponja,Catalan,Sounds/cat_esponja.mp3,11399,001,2020-06-25_12h00.13.786,TranslationElicitation_eng-sona,3.2.4,Win32,60,,1,0,81,25,1,80
,,,,,,,,,,,,,,,,,,,,,,,,,,,,,,,,,,,,,,,,,,o,1.816000223,SPO,FALSE,,,,,,,131,esponja,Catalan,Sounds/cat_esponja.mp3,11399,001,2020-06-25_12h00.13.786,TranslationElicitation_eng-sona,3.2.4,Win32,60,,1,0,81,25,1,80
,,,,,,,,,,,,,,,,,,,,,,,,,,,,,,,,,,,,,,,,,,n,2.033000231,SPON,FALSE,,,,,,,131,esponja,Catalan,Sounds/cat_esponja.mp3,11399,001,2020-06-25_12h00.13.786,TranslationElicitation_eng-sona,3.2.4,Win32,60,,1,0,81,25,1,80
,,,,,,,,,,,,,,,,,,,,,,,,,,,,,,,,,,,,,,,,,,e,2.267000198,SPONE,FALSE,,,,,,,131,esponja,Catalan,Sounds/cat_esponja.mp3,11399,001,2020-06-25_12h00.13.786,TranslationElicitation_eng-sona,3.2.4,Win32,60,,1,0,81,25,1,80
,,,,,,,,,,,,,,,,,,,,,,,,,,,,,,,,,,,,,,,,,,backspace,2.800000191,SPO,TRUE,,,,,,,131,esponja,Catalan,Sounds/cat_esponja.mp3,11399,001,2020-06-25_12h00.13.786,TranslationElicitation_eng-sona,3.2.4,Win32,60,,1,0,81,25,1,80
,,,,,,,,,,,,,,,,,,,,,,,,,,,,,,,,,,,,,,,,,,g,2.98300004,SPOG,TRUE,,,,,,,131,esponja,Catalan,Sounds/cat_esponja.mp3,11399,001,2020-06-25_12h00.13.786,TranslationElicitation_eng-sona,3.2.4,Win32,60,,1,0,81,25,1,80
,,,,,,,,,,,,,,,,,,,,,,,,,,,,,,,,,,,,,,,,,,e,3.200000048,SPOGE,TRUE,,,,,,,131,esponja,Catalan,Sounds/cat_esponja.mp3,11399,001,2020-06-25_12h00.13.786,TranslationElicitation_eng-sona,3.2.4,Win32,60,,1,0,81,25,1,80
,,,,,,,,,,,,,,,,,,,,,,,,,,,,,,,,,,,,,,,,,,return,3.467000008,SPOGE,TRUE,,,,,,,131,esponja,Catalan,Sounds/cat_esponja.mp3,11399,001,2020-06-25_12h00.13.786,TranslationElicitation_eng-sona,3.2.4,Win32,60,3.467000008,1,0,81,25,1,80
,,,,,,,,,,,,,,,,,,,,,,,,,,,,,,,,,,,,,,,,,,,,,,,,,,,,131,esponja,Catalan,Sounds/cat_esponja.mp3,11399,001,2020-06-25_12h00.13.786,TranslationElicitation_eng-sona,3.2.4,Win32,60,,1,0,81,25,1,80
,,,,,,,,,,,,,,,,,,,,,,,,,,,,,,,,,,,,,,,,,,b,2.683000088,B,FALSE,,,,,,,112,bici,Catalan,Sounds/cat_bici.mp3,11399,001,2020-06-25_12h00.13.786,TranslationElicitation_eng-sona,3.2.4,Win32,60,,1,0,81,7,1,80
,,,,,,,,,,,,,,,,,,,,,,,,,,,,,,,,,,,,,,,,,,i,2.816000223,BI,FALSE,,,,,,,112,bici,Catalan,Sounds/cat_bici.mp3,11399,001,2020-06-25_12h00.13.786,TranslationElicitation_eng-sona,3.2.4,Win32,60,,1,0,81,7,1,80
,,,,,,,,,,,,,,,,,,,,,,,,,,,,,,,,,,,,,,,,,,s,3.300000191,BIS,FALSE,,,,,,,112,bici,Catalan,Sounds/cat_bici.mp3,11399,001,2020-06-25_12h00.13.786,TranslationElicitation_eng-sona,3.2.4,Win32,60,,1,0,81,7,1,80
,,,,,,,,,,,,,,,,,,,,,,,,,,,,,,,,,,,,,,,,,,c,3.46600008,BISC,FALSE,,,,,,,112,bici,Catalan,Sounds/cat_bici.mp3,11399,001,2020-06-25_12h00.13.786,TranslationElicitation_eng-sona,3.2.4,Win32,60,,1,0,81,7,1,80
,,,,,,,,,,,,,,,,,,,,,,,,,,,,,,,,,,,,,,,,,,u,3.683000088,BISCU,FALSE,,,,,,,112,bici,Catalan,Sounds/cat_bici.mp3,11399,001,2020-06-25_12h00.13.786,TranslationElicitation_eng-sona,3.2.4,Win32,60,,1,0,81,7,1,80
,,,,,,,,,,,,,,,,,,,,,,,,,,,,,,,,,,,,,,,,,,i,3.850000143,BISCUI,FALSE,,,,,,,112,bici,Catalan,Sounds/cat_bici.mp3,11399,001,2020-06-25_12h00.13.786,TranslationElicitation_eng-sona,3.2.4,Win32,60,,1,0,81,7,1,80
,,,,,,,,,,,,,,,,,,,,,,,,,,,,,,,,,,,,,,,,,,t,4.016000032,BISCUIT,FALSE,,,,,,,112,bici,Catalan,Sounds/cat_bici.mp3,11399,001,2020-06-25_12h00.13.786,TranslationElicitation_eng-sona,3.2.4,Win32,60,,1,0,81,7,1,80
,,,,,,,,,,,,,,,,,,,,,,,,,,,,,,,,,,,,,,,,,,return,4.433000088,BISCUIT,FALSE,,,,,,,112,bici,Catalan,Sounds/cat_bici.mp3,11399,001,2020-06-25_12h00.13.786,TranslationElicitation_eng-sona,3.2.4,Win32,60,4.433000088,1,0,81,7,1,80
,,,,,,,,,,,,,,,,,,,,,,,,,,,,,,,,,,,,,,,,,,,,,,,,,,,,112,bici,Catalan,Sounds/cat_bici.mp3,11399,001,2020-06-25_12h00.13.786,TranslationElicitation_eng-sona,3.2.4,Win32,60,,1,0,81,7,1,80
,,,,,,,,,,,,,,,,,,,,,,,,,,,,,,,,,,,,,,,,,,c,2.865999937,C,FALSE,,,,,,,128,cuc,Catalan,Sounds/cat_cuc.mp3,11399,001,2020-06-25_12h00.13.786,TranslationElicitation_eng-sona,3.2.4,Win32,60,,1,0,81,22,1,80
,,,,,,,,,,,,,,,,,,,,,,,,,,,,,,,,,,,,,,,,,,w,3.133000135,CW,FALSE,,,,,,,128,cuc,Catalan,Sounds/cat_cuc.mp3,11399,001,2020-06-25_12h00.13.786,TranslationElicitation_eng-sona,3.2.4,Win32,60,,1,0,81,22,1,80
,,,,,,,,,,,,,,,,,,,,,,,,,,,,,,,,,,,,,,,,,,backspace,3.566999912,,TRUE,,,,,,,128,cuc,Catalan,Sounds/cat_cuc.mp3,11399,001,2020-06-25_12h00.13.786,TranslationElicitation_eng-sona,3.2.4,Win32,60,,1,0,81,22,1,80
,,,,,,,,,,,,,,,,,,,,,,,,,,,,,,,,,,,,,,,,,,o,3.815999985,O,TRUE,,,,,,,128,cuc,Catalan,Sounds/cat_cuc.mp3,11399,001,2020-06-25_12h00.13.786,TranslationElicitation_eng-sona,3.2.4,Win32,60,,1,0,81,22,1,80
,,,,,,,,,,,,,,,,,,,,,,,,,,,,,,,,,,,,,,,,,,w,3.969000101,OW,TRUE,,,,,,,128,cuc,Catalan,Sounds/cat_cuc.mp3,11399,001,2020-06-25_12h00.13.786,TranslationElicitation_eng-sona,3.2.4,Win32,60,,1,0,81,22,1,80
,,,,,,,,,,,,,,,,,,,,,,,,,,,,,,,,,,,,,,,,,,backspace,4.5,,TRUE,,,,,,,128,cuc,Catalan,Sounds/cat_cuc.mp3,11399,001,2020-06-25_12h00.13.786,TranslationElicitation_eng-sona,3.2.4,Win32,60,,1,0,81,22,1,80
,,,,,,,,,,,,,,,,,,,,,,,,,,,,,,,,,,,,,,,,,,backspace,4.650000095,,TRUE,,,,,,,128,cuc,Catalan,Sounds/cat_cuc.mp3,11399,001,2020-06-25_12h00.13.786,TranslationElicitation_eng-sona,3.2.4,Win32,60,,1,0,81,22,1,80
,,,,,,,,,,,,,,,,,,,,,,,,,,,,,,,,,,,,,,,,,,c,4.865999937,C,TRUE,,,,,,,128,cuc,Catalan,Sounds/cat_cuc.mp3,11399,001,2020-06-25_12h00.13.786,TranslationElicitation_eng-sona,3.2.4,Win32,60,,1,0,81,22,1,80
,,,,,,,,,,,,,,,,,,,,,,,,,,,,,,,,,,,,,,,,,,o,5,CO,TRUE,,,,,,,128,cuc,Catalan,Sounds/cat_cuc.mp3,11399,001,2020-06-25_12h00.13.786,TranslationElicitation_eng-sona,3.2.4,Win32,60,,1,0,81,22,1,80
,,,,,,,,,,,,,,,,,,,,,,,,,,,,,,,,,,,,,,,,,,w,5.200000048,COW,TRUE,,,,,,,128,cuc,Catalan,Sounds/cat_cuc.mp3,11399,001,2020-06-25_12h00.13.786,TranslationElicitation_eng-sona,3.2.4,Win32,60,,1,0,81,22,1,80
,,,,,,,,,,,,,,,,,,,,,,,,,,,,,,,,,,,,,,,,,,return,5.453999996,COW,TRUE,,,,,,,128,cuc,Catalan,Sounds/cat_cuc.mp3,11399,001,2020-06-25_12h00.13.786,TranslationElicitation_eng-sona,3.2.4,Win32,60,5.453999996,1,0,81,22,1,80
,,,,,,,,,,,,,,,,,,,,,,,,,,,,,,,,,,,,,,,,,,,,,,,,,,,,128,cuc,Catalan,Sounds/cat_cuc.mp3,11399,001,2020-06-25_12h00.13.786,TranslationElicitation_eng-sona,3.2.4,Win32,60,,1,0,81,22,1,80
,,,,,,,,,,,,,,,,,,,,,,,,,,,,,,,,,,,,,,,,,,o,4.532999992,O,FALSE,,,,,,,133,estruc,Catalan,Sounds/cat_estruc.mp3,11399,001,2020-06-25_12h00.13.786,TranslationElicitation_eng-sona,3.2.4,Win32,60,,1,0,81,27,1,80
,,,,,,,,,,,,,,,,,,,,,,,,,,,,,,,,,,,,,,,,,,v,4.75,OV,FALSE,,,,,,,133,estruc,Catalan,Sounds/cat_estruc.mp3,11399,001,2020-06-25_12h00.13.786,TranslationElicitation_eng-sona,3.2.4,Win32,60,,1,0,81,27,1,80
,,,,,,,,,,,,,,,,,,,,,,,,,,,,,,,,,,,,,,,,,,e,4.915999889,OVE,FALSE,,,,,,,133,estruc,Catalan,Sounds/cat_estruc.mp3,11399,001,2020-06-25_12h00.13.786,TranslationElicitation_eng-sona,3.2.4,Win32,60,,1,0,81,27,1,80
,,,,,,,,,,,,,,,,,,,,,,,,,,,,,,,,,,,,,,,,,,n,5.066999912,OVEN,FALSE,,,,,,,133,estruc,Catalan,Sounds/cat_estruc.mp3,11399,001,2020-06-25_12h00.13.786,TranslationElicitation_eng-sona,3.2.4,Win32,60,,1,0,81,27,1,80
,,,,,,,,,,,,,,,,,,,,,,,,,,,,,,,,,,,,,,,,,,return,5.450000048,OVEN,FALSE,,,,,,,133,estruc,Catalan,Sounds/cat_estruc.mp3,11399,001,2020-06-25_12h00.13.786,TranslationElicitation_eng-sona,3.2.4,Win32,60,5.450000048,1,0,81,27,1,80
,,,,,,,,,,,,,,,,,,,,,,,,,,,,,,,,,,,,,,,,,,,,,,,,,,,,133,estruc,Catalan,Sounds/cat_estruc.mp3,11399,001,2020-06-25_12h00.13.786,TranslationElicitation_eng-sona,3.2.4,Win32,60,,1,0,81,27,1,80
,,,,,,,,,,,,,,,,,,,,,,,,,,,,,,,,,,,,,,,,,,p,4.915999889,P,FALSE,,,,,,,165,pernil,Catalan,Sounds/cat_pernil.mp3,11399,001,2020-06-25_12h00.13.786,TranslationElicitation_eng-sona,3.2.4,Win32,60,,1,0,81,57,1,80
,,,,,,,,,,,,,,,,,,,,,,,,,,,,,,,,,,,,,,,,,,a,5.032999992,PA,FALSE,,,,,,,165,pernil,Catalan,Sounds/cat_pernil.mp3,11399,001,2020-06-25_12h00.13.786,TranslationElicitation_eng-sona,3.2.4,Win32,60,,1,0,81,57,1,80
,,,,,,,,,,,,,,,,,,,,,,,,,,,,,,,,,,,,,,,,,,r,5.266000032,PAR,FALSE,,,,,,,165,pernil,Catalan,Sounds/cat_pernil.mp3,11399,001,2020-06-25_12h00.13.786,TranslationElicitation_eng-sona,3.2.4,Win32,60,,1,0,81,57,1,80
,,,,,,,,,,,,,,,,,,,,,,,,,,,,,,,,,,,,,,,,,,s,5.516000032,PARS,FALSE,,,,,,,165,pernil,Catalan,Sounds/cat_pernil.mp3,11399,001,2020-06-25_12h00.13.786,TranslationElicitation_eng-sona,3.2.4,Win32,60,,1,0,81,57,1,80
,,,,,,,,,,,,,,,,,,,,,,,,,,,,,,,,,,,,,,,,,,n,5.649999857,PARSN,FALSE,,,,,,,165,pernil,Catalan,Sounds/cat_pernil.mp3,11399,001,2020-06-25_12h00.13.786,TranslationElicitation_eng-sona,3.2.4,Win32,60,,1,0,81,57,1,80
,,,,,,,,,,,,,,,,,,,,,,,,,,,,,,,,,,,,,,,,,,i,6.266000032,PARSNI,FALSE,,,,,,,165,pernil,Catalan,Sounds/cat_pernil.mp3,11399,001,2020-06-25_12h00.13.786,TranslationElicitation_eng-sona,3.2.4,Win32,60,,1,0,81,57,1,80
,,,,,,,,,,,,,,,,,,,,,,,,,,,,,,,,,,,,,,,,,,p,6.48300004,PARSNIP,FALSE,,,,,,,165,pernil,Catalan,Sounds/cat_pernil.mp3,11399,001,2020-06-25_12h00.13.786,TranslationElicitation_eng-sona,3.2.4,Win32,60,,1,0,81,57,1,80
,,,,,,,,,,,,,,,,,,,,,,,,,,,,,,,,,,,,,,,,,,return,7.299999952,PARSNIP,FALSE,,,,,,,165,pernil,Catalan,Sounds/cat_pernil.mp3,11399,001,2020-06-25_12h00.13.786,TranslationElicitation_eng-sona,3.2.4,Win32,60,7.299999952,1,0,81,57,1,80
,,,,,,,,,,,,,,,,,,,,,,,,,,,,,,,,,,,,,,,,,,,,,,,,,,,,165,pernil,Catalan,Sounds/cat_pernil.mp3,11399,001,2020-06-25_12h00.13.786,TranslationElicitation_eng-sona,3.2.4,Win32,60,,1,0,81,57,1,80
,,,,,,,,,,,,,,,,,,,,,,,,,,,,,,,,,,,,,,,,,,s,2.582999945,S,FALSE,,,,,,,119,caixa,Catalan,Sounds/cat_caixa.mp3,11399,001,2020-06-25_12h00.13.786,TranslationElicitation_eng-sona,3.2.4,Win32,60,,1,0,81,14,1,80
,,,,,,,,,,,,,,,,,,,,,,,,,,,,,,,,,,,,,,,,,,o,2.71600008,SO,FALSE,,,,,,,119,caixa,Catalan,Sounds/cat_caixa.mp3,11399,001,2020-06-25_12h00.13.786,TranslationElicitation_eng-sona,3.2.4,Win32,60,,1,0,81,14,1,80
,,,,,,,,,,,,,,,,,,,,,,,,,,,,,,,,,,,,,,,,,,u,2.933000088,SOU,FALSE,,,,,,,119,caixa,Catalan,Sounds/cat_caixa.mp3,11399,001,2020-06-25_12h00.13.786,TranslationElicitation_eng-sona,3.2.4,Win32,60,,1,0,81,14,1,80
,,,,,,,,,,,,,,,,,,,,,,,,,,,,,,,,,,,,,,,,,,p,3.132999897,SOUP,FALSE,,,,,,,119,caixa,Catalan,Sounds/cat_caixa.mp3,11399,001,2020-06-25_12h00.13.786,TranslationElicitation_eng-sona,3.2.4,Win32,60,,1,0,81,14,1,80
,,,,,,,,,,,,,,,,,,,,,,,,,,,,,,,,,,,,,,,,,,return,3.565999985,SOUP,FALSE,,,,,,,119,caixa,Catalan,Sounds/cat_caixa.mp3,11399,001,2020-06-25_12h00.13.786,TranslationElicitation_eng-sona,3.2.4,Win32,60,3.565999985,1,0,81,14,1,80
,,,,,,,,,,,,,,,,,,,,,,,,,,,,,,,,,,,,,,,,,,,,,,,,,,,,119,caixa,Catalan,Sounds/cat_caixa.mp3,11399,001,2020-06-25_12h00.13.786,TranslationElicitation_eng-sona,3.2.4,Win32,60,,1,0,81,14,1,80
,,,,,,,,,,,,,,,,,,,,,,,,,,,,,,,,,,,,,,,,,,t,3.96600008,T,FALSE,,,,,,,185,ulleres,Catalan,Sounds/cat_ulleres.mp3,11399,001,2020-06-25_12h00.13.786,TranslationElicitation_eng-sona,3.2.4,Win32,60,,1,0,81,76,1,80
,,,,,,,,,,,,,,,,,,,,,,,,,,,,,,,,,,,,,,,,,,e,4.082999945,TE,FALSE,,,,,,,185,ulleres,Catalan,Sounds/cat_ulleres.mp3,11399,001,2020-06-25_12h00.13.786,TranslationElicitation_eng-sona,3.2.4,Win32,60,,1,0,81,76,1,80
,,,,,,,,,,,,,,,,,,,,,,,,,,,,,,,,,,,,,,,,,,a,4.21600008,TEA,FALSE,,,,,,,185,ulleres,Catalan,Sounds/cat_ulleres.mp3,11399,001,2020-06-25_12h00.13.786,TranslationElicitation_eng-sona,3.2.4,Win32,60,,1,0,81,76,1,80
,,,,,,,,,,,,,,,,,,,,,,,,,,,,,,,,,,,,,,,,,,c,4.383000135,TEAC,FALSE,,,,,,,185,ulleres,Catalan,Sounds/cat_ulleres.mp3,11399,001,2020-06-25_12h00.13.786,TranslationElicitation_eng-sona,3.2.4,Win32,60,,1,0,81,76,1,80
,,,,,,,,,,,,,,,,,,,,,,,,,,,,,,,,,,,,,,,,,,h,4.5,TEACH,FALSE,,,,,,,185,ulleres,Catalan,Sounds/cat_ulleres.mp3,11399,001,2020-06-25_12h00.13.786,TranslationElicitation_eng-sona,3.2.4,Win32,60,,1,0,81,76,1,80
,,,,,,,,,,,,,,,,,,,,,,,,,,,,,,,,,,,,,,,,,,e,4.666000128,TEACHE,FALSE,,,,,,,185,ulleres,Catalan,Sounds/cat_ulleres.mp3,11399,001,2020-06-25_12h00.13.786,TranslationElicitation_eng-sona,3.2.4,Win32,60,,1,0,81,76,1,80
,,,,,,,,,,,,,,,,,,,,,,,,,,,,,,,,,,,,,,,,,,r,4.782999992,TEACHER,FALSE,,,,,,,185,ulleres,Catalan,Sounds/cat_ulleres.mp3,11399,001,2020-06-25_12h00.13.786,TranslationElicitation_eng-sona,3.2.4,Win32,60,,1,0,81,76,1,80
,,,,,,,,,,,,,,,,,,,,,,,,,,,,,,,,,,,,,,,,,,return,4.999000072,TEACHER,FALSE,,,,,,,185,ulleres,Catalan,Sounds/cat_ulleres.mp3,11399,001,2020-06-25_12h00.13.786,TranslationElicitation_eng-sona,3.2.4,Win32,60,4.999000072,1,0,81,76,1,80
,,,,,,,,,,,,,,,,,,,,,,,,,,,,,,,,,,,,,,,,,,,,,,,,,,,,185,ulleres,Catalan,Sounds/cat_ulleres.mp3,11399,001,2020-06-25_12h00.13.786,TranslationElicitation_eng-sona,3.2.4,Win32,60,,1,0,81,76,1,80
,,,,,,,,,,,,,,,,,,,,,,,,,,,,,,,,,,,,,,,,,,b,2.184000015,B,FALSE,,,,,,,114,bol,Catalan,Sounds/cat_bol.mp3,11399,001,2020-06-25_12h00.13.786,TranslationElicitation_eng-sona,3.2.4,Win32,60,,1,0,81,9,1,80
,,,,,,,,,,,,,,,,,,,,,,,,,,,,,,,,,,,,,,,,,,a,2.417000055,BA,FALSE,,,,,,,114,bol,Catalan,Sounds/cat_bol.mp3,11399,001,2020-06-25_12h00.13.786,TranslationElicitation_eng-sona,3.2.4,Win32,60,,1,0,81,9,1,80
,,,,,,,,,,,,,,,,,,,,,,,,,,,,,,,,,,,,,,,,,,l,2.51699996,BAL,FALSE,,,,,,,114,bol,Catalan,Sounds/cat_bol.mp3,11399,001,2020-06-25_12h00.13.786,TranslationElicitation_eng-sona,3.2.4,Win32,60,,1,0,81,9,1,80
,,,,,,,,,,,,,,,,,,,,,,,,,,,,,,,,,,,,,,,,,,l,2.667000055,BALL,FALSE,,,,,,,114,bol,Catalan,Sounds/cat_bol.mp3,11399,001,2020-06-25_12h00.13.786,TranslationElicitation_eng-sona,3.2.4,Win32,60,,1,0,81,9,1,80
,,,,,,,,,,,,,,,,,,,,,,,,,,,,,,,,,,,,,,,,,,return,2.934000015,BALL,FALSE,,,,,,,114,bol,Catalan,Sounds/cat_bol.mp3,11399,001,2020-06-25_12h00.13.786,TranslationElicitation_eng-sona,3.2.4,Win32,60,2.934000015,1,0,81,9,1,80
,,,,,,,,,,,,,,,,,,,,,,,,,,,,,,,,,,,,,,,,,,,,,,,,,,,,114,bol,Catalan,Sounds/cat_bol.mp3,11399,001,2020-06-25_12h00.13.786,TranslationElicitation_eng-sona,3.2.4,Win32,60,,1,0,81,9,1,80
,,,,,,,,,,,,,,,,,,,,,,,,,,,,,,,,,,,,,,,,,,p,1.815999985,P,FALSE,,,,,,,173,porc,Catalan,Sounds/cat_porc.mp3,11399,001,2020-06-25_12h00.13.786,TranslationElicitation_eng-sona,3.2.4,Win32,60,,1,0,81,65,1,80
,,,,,,,,,,,,,,,,,,,,,,,,,,,,,,,,,,,,,,,,,,a,1.96600008,PA,FALSE,,,,,,,173,porc,Catalan,Sounds/cat_porc.mp3,11399,001,2020-06-25_12h00.13.786,TranslationElicitation_eng-sona,3.2.4,Win32,60,,1,0,81,65,1,80
,,,,,,,,,,,,,,,,,,,,,,,,,,,,,,,,,,,,,,,,,,r,2.082999945,PAR,FALSE,,,,,,,173,porc,Catalan,Sounds/cat_porc.mp3,11399,001,2020-06-25_12h00.13.786,TranslationElicitation_eng-sona,3.2.4,Win32,60,,1,0,81,65,1,80
,,,,,,,,,,,,,,,,,,,,,,,,,,,,,,,,,,,,,,,,,,k,2.183000088,PARK,FALSE,,,,,,,173,porc,Catalan,Sounds/cat_porc.mp3,11399,001,2020-06-25_12h00.13.786,TranslationElicitation_eng-sona,3.2.4,Win32,60,,1,0,81,65,1,80
,,,,,,,,,,,,,,,,,,,,,,,,,,,,,,,,,,,,,,,,,,return,2.448999882,PARK,FALSE,,,,,,,173,porc,Catalan,Sounds/cat_porc.mp3,11399,001,2020-06-25_12h00.13.786,TranslationElicitation_eng-sona,3.2.4,Win32,60,2.448999882,1,0,81,65,1,80
,,,,,,,,,,,,,,,,,,,,,,,,,,,,,,,,,,,,,,,,,,,,,,,,,,,,173,porc,Catalan,Sounds/cat_porc.mp3,11399,001,2020-06-25_12h00.13.786,TranslationElicitation_eng-sona,3.2.4,Win32,60,,1,0,81,65,1,80
,,,,,,,,,,,,,,,,,,,,,,,,,,,,,,,,,,,,,,,,,,b,3.582999945,B,FALSE,,,,,,,110,berenar,Catalan,Sounds/cat_berenar.mp3,11399,001,2020-06-25_12h00.13.786,TranslationElicitation_eng-sona,3.2.4,Win32,60,,1,0,81,5,1,80
,,,,,,,,,,,,,,,,,,,,,,,,,,,,,,,,,,,,,,,,,,r,3.815999985,BR,FALSE,,,,,,,110,berenar,Catalan,Sounds/cat_berenar.mp3,11399,001,2020-06-25_12h00.13.786,TranslationElicitation_eng-sona,3.2.4,Win32,60,,1,0,81,5,1,80
,,,,,,,,,,,,,,,,,,,,,,,,,,,,,,,,,,,,,,,,,,o,4,BRO,FALSE,,,,,,,110,berenar,Catalan,Sounds/cat_berenar.mp3,11399,001,2020-06-25_12h00.13.786,TranslationElicitation_eng-sona,3.2.4,Win32,60,,1,0,81,5,1,80
,,,,,,,,,,,,,,,,,,,,,,,,,,,,,,,,,,,,,,,,,,t,4.149999857,BROT,FALSE,,,,,,,110,berenar,Catalan,Sounds/cat_berenar.mp3,11399,001,2020-06-25_12h00.13.786,TranslationElicitation_eng-sona,3.2.4,Win32,60,,1,0,81,5,1,80
,,,,,,,,,,,,,,,,,,,,,,,,,,,,,,,,,,,,,,,,,,h,4.282999992,BROTH,FALSE,,,,,,,110,berenar,Catalan,Sounds/cat_berenar.mp3,11399,001,2020-06-25_12h00.13.786,TranslationElicitation_eng-sona,3.2.4,Win32,60,,1,0,81,5,1,80
,,,,,,,,,,,,,,,,,,,,,,,,,,,,,,,,,,,,,,,,,,e,4.415999889,BROTHE,FALSE,,,,,,,110,berenar,Catalan,Sounds/cat_berenar.mp3,11399,001,2020-06-25_12h00.13.786,TranslationElicitation_eng-sona,3.2.4,Win32,60,,1,0,81,5,1,80
,,,,,,,,,,,,,,,,,,,,,,,,,,,,,,,,,,,,,,,,,,r,4.5,BROTHER,FALSE,,,,,,,110,berenar,Catalan,Sounds/cat_berenar.mp3,11399,001,2020-06-25_12h00.13.786,TranslationElicitation_eng-sona,3.2.4,Win32,60,,1,0,81,5,1,80
,,,,,,,,,,,,,,,,,,,,,,,,,,,,,,,,,,,,,,,,,,return,4.733999968,BROTHER,FALSE,,,,,,,110,berenar,Catalan,Sounds/cat_berenar.mp3,11399,001,2020-06-25_12h00.13.786,TranslationElicitation_eng-sona,3.2.4,Win32,60,4.733999968,1,0,81,5,1,80
,,,,,,,,,,,,,,,,,,,,,,,,,,,,,,,,,,,,,,,,,,,,,,,,,,,,110,berenar,Catalan,Sounds/cat_berenar.mp3,11399,001,2020-06-25_12h00.13.786,TranslationElicitation_eng-sona,3.2.4,Win32,60,,1,0,81,5,1,80
,,,,,,,,,,,,,,,,,,,,,,,,,,,,,,,,,,,,,,,,,,f,2.532999992,F,FALSE,,,,,,,136,forquilla,Catalan,Sounds/cat_forquilla.mp3,11399,001,2020-06-25_12h00.13.786,TranslationElicitation_eng-sona,3.2.4,Win32,60,,1,0,81,30,1,80
,,,,,,,,,,,,,,,,,,,,,,,,,,,,,,,,,,,,,,,,,,backspace,4.949999809,,TRUE,,,,,,,136,forquilla,Catalan,Sounds/cat_forquilla.mp3,11399,001,2020-06-25_12h00.13.786,TranslationElicitation_eng-sona,3.2.4,Win32,60,,1,0,81,30,1,80
,,,,,,,,,,,,,,,,,,,,,,,,,,,,,,,,,,,,,,,,,,p,5.784999847,P,TRUE,,,,,,,136,forquilla,Catalan,Sounds/cat_forquilla.mp3,11399,001,2020-06-25_12h00.13.786,TranslationElicitation_eng-sona,3.2.4,Win32,60,,1,0,81,30,1,80
,,,,,,,,,,,,,,,,,,,,,,,,,,,,,,,,,,,,,,,,,,a,5.932999849,PA,TRUE,,,,,,,136,forquilla,Catalan,Sounds/cat_forquilla.mp3,11399,001,2020-06-25_12h00.13.786,TranslationElicitation_eng-sona,3.2.4,Win32,60,,1,0,81,30,1,80
,,,,,,,,,,,,,,,,,,,,,,,,,,,,,,,,,,,,,,,,,,s,6.01699996,PAS,TRUE,,,,,,,136,forquilla,Catalan,Sounds/cat_forquilla.mp3,11399,001,2020-06-25_12h00.13.786,TranslationElicitation_eng-sona,3.2.4,Win32,60,,1,0,81,30,1,80
,,,,,,,,,,,,,,,,,,,,,,,,,,,,,,,,,,,,,,,,,,t,6.149999857,PAST,TRUE,,,,,,,136,forquilla,Catalan,Sounds/cat_forquilla.mp3,11399,001,2020-06-25_12h00.13.786,TranslationElicitation_eng-sona,3.2.4,Win32,60,,1,0,81,30,1,80
,,,,,,,,,,,,,,,,,,,,,,,,,,,,,,,,,,,,,,,,,,a,6.332999945,PASTA,TRUE,,,,,,,136,forquilla,Catalan,Sounds/cat_forquilla.mp3,11399,001,2020-06-25_12h00.13.786,TranslationElicitation_eng-sona,3.2.4,Win32,60,,1,0,81,30,1,80
,,,,,,,,,,,,,,,,,,,,,,,,,,,,,,,,,,,,,,,,,,return,6.549999952,PASTA,TRUE,,,,,,,136,forquilla,Catalan,Sounds/cat_forquilla.mp3,11399,001,2020-06-25_12h00.13.786,TranslationElicitation_eng-sona,3.2.4,Win32,60,6.549999952,1,0,81,30,1,80
,,,,,,,,,,,,,,,,,,,,,,,,,,,,,,,,,,,,,,,,,,,,,,,,,,,,136,forquilla,Catalan,Sounds/cat_forquilla.mp3,11399,001,2020-06-25_12h00.13.786,TranslationElicitation_eng-sona,3.2.4,Win32,60,,1,0,81,30,1,80
,,,,,,,,,,,,,,,,,,,,,,,,,,,,,,,,,,,,,,,,,,i,1.98300004,I,FALSE,,,,,,,105,aigua,Catalan,Sounds/cat_aigua.mp3,11399,001,2020-06-25_12h00.13.786,TranslationElicitation_eng-sona,3.2.4,Win32,60,,1,0,81,1,1,80
,,,,,,,,,,,,,,,,,,,,,,,,,,,,,,,,,,,,,,,,,,g,2.115999937,IG,FALSE,,,,,,,105,aigua,Catalan,Sounds/cat_aigua.mp3,11399,001,2020-06-25_12h00.13.786,TranslationElicitation_eng-sona,3.2.4,Win32,60,,1,0,81,1,1,80
,,,,,,,,,,,,,,,,,,,,,,,,,,,,,,,,,,,,,,,,,,u,2.217000008,IGU,FALSE,,,,,,,105,aigua,Catalan,Sounds/cat_aigua.mp3,11399,001,2020-06-25_12h00.13.786,TranslationElicitation_eng-sona,3.2.4,Win32,60,,1,0,81,1,1,80
,,,,,,,,,,,,,,,,,,,,,,,,,,,,,,,,,,,,,,,,,,a,2.48300004,IGUA,FALSE,,,,,,,105,aigua,Catalan,Sounds/cat_aigua.mp3,11399,001,2020-06-25_12h00.13.786,TranslationElicitation_eng-sona,3.2.4,Win32,60,,1,0,81,1,1,80
,,,,,,,,,,,,,,,,,,,,,,,,,,,,,,,,,,,,,,,,,,n,2.632999897,IGUAN,FALSE,,,,,,,105,aigua,Catalan,Sounds/cat_aigua.mp3,11399,001,2020-06-25_12h00.13.786,TranslationElicitation_eng-sona,3.2.4,Win32,60,,1,0,81,1,1,80
,,,,,,,,,,,,,,,,,,,,,,,,,,,,,,,,,,,,,,,,,,a,2.799999952,IGUANA,FALSE,,,,,,,105,aigua,Catalan,Sounds/cat_aigua.mp3,11399,001,2020-06-25_12h00.13.786,TranslationElicitation_eng-sona,3.2.4,Win32,60,,1,0,81,1,1,80
,,,,,,,,,,,,,,,,,,,,,,,,,,,,,,,,,,,,,,,,,,return,3.059999943,IGUANA,FALSE,,,,,,,105,aigua,Catalan,Sounds/cat_aigua.mp3,11399,001,2020-06-25_12h00.13.786,TranslationElicitation_eng-sona,3.2.4,Win32,60,3.059999943,1,0,81,1,1,80
,,,,,,,,,,,,,,,,,,,,,,,,,,,,,,,,,,,,,,,,,,,,,,,,,,,,105,aigua,Catalan,Sounds/cat_aigua.mp3,11399,001,2020-06-25_12h00.13.786,TranslationElicitation_eng-sona,3.2.4,Win32,60,,1,0,81,1,1,80
,,,,,,,,,,,,,,,,,,,,,,,,,,,,,,,,,,,,,,,,,,l,3.133000135,L,FALSE,,,,,,,184,ull,Catalan,Sounds/cat_ull.mp3,11399,001,2020-06-25_12h00.13.786,TranslationElicitation_eng-sona,3.2.4,Win32,60,,1,0,81,75,1,80
,,,,,,,,,,,,,,,,,,,,,,,,,,,,,,,,,,,,,,,,,,o,3.315999985,LO,FALSE,,,,,,,184,ull,Catalan,Sounds/cat_ull.mp3,11399,001,2020-06-25_12h00.13.786,TranslationElicitation_eng-sona,3.2.4,Win32,60,,1,0,81,75,1,80
,,,,,,,,,,,,,,,,,,,,,,,,,,,,,,,,,,,,,,,,,,o,3.44900012,LOO,FALSE,,,,,,,184,ull,Catalan,Sounds/cat_ull.mp3,11399,001,2020-06-25_12h00.13.786,TranslationElicitation_eng-sona,3.2.4,Win32,60,,1,0,81,75,1,80
,,,,,,,,,,,,,,,,,,,,,,,,,,,,,,,,,,,,,,,,,,k,3.650000095,LOOK,FALSE,,,,,,,184,ull,Catalan,Sounds/cat_ull.mp3,11399,001,2020-06-25_12h00.13.786,TranslationElicitation_eng-sona,3.2.4,Win32,60,,1,0,81,75,1,80
,,,,,,,,,,,,,,,,,,,,,,,,,,,,,,,,,,,,,,,,,,return,4.016000032,LOOK,FALSE,,,,,,,184,ull,Catalan,Sounds/cat_ull.mp3,11399,001,2020-06-25_12h00.13.786,TranslationElicitation_eng-sona,3.2.4,Win32,60,4.016000032,1,0,81,75,1,80
,,,,,,,,,,,,,,,,,,,,,,,,,,,,,,,,,,,,,,,,,,,,,,,,,,,,184,ull,Catalan,Sounds/cat_ull.mp3,11399,001,2020-06-25_12h00.13.786,TranslationElicitation_eng-sona,3.2.4,Win32,60,,1,0,81,75,1,80
,,,,,,,,,,,,,,,,,,,,,,,,,,,,,,,,,,,,,,,,,,t,9.717000008,T,FALSE,,,,,,,144,gorra,Catalan,Sounds/cat_gorra.mp3,11399,001,2020-06-25_12h00.13.786,TranslationElicitation_eng-sona,3.2.4,Win32,60,,1,0,81,38,1,80
,,,,,,,,,,,,,,,,,,,,,,,,,,,,,,,,,,,,,,,,,,r,9.967000008,TR,FALSE,,,,,,,144,gorra,Catalan,Sounds/cat_gorra.mp3,11399,001,2020-06-25_12h00.13.786,TranslationElicitation_eng-sona,3.2.4,Win32,60,,1,0,81,38,1,80
,,,,,,,,,,,,,,,,,,,,,,,,,,,,,,,,,,,,,,,,,,e,10.32999992,TRE,FALSE,,,,,,,144,gorra,Catalan,Sounds/cat_gorra.mp3,11399,001,2020-06-25_12h00.13.786,TranslationElicitation_eng-sona,3.2.4,Win32,60,,1,0,81,38,1,80
,,,,,,,,,,,,,,,,,,,,,,,,,,,,,,,,,,,,,,,,,,e,10.48300004,TREE,FALSE,,,,,,,144,gorra,Catalan,Sounds/cat_gorra.mp3,11399,001,2020-06-25_12h00.13.786,TranslationElicitation_eng-sona,3.2.4,Win32,60,,1,0,81,38,1,80
,,,,,,,,,,,,,,,,,,,,,,,,,,,,,,,,,,,,,,,,,,return,10.80099988,TREE,FALSE,,,,,,,144,gorra,Catalan,Sounds/cat_gorra.mp3,11399,001,2020-06-25_12h00.13.786,TranslationElicitation_eng-sona,3.2.4,Win32,60,10.80099988,1,0,81,38,1,80
,,,,,,,,,,,,,,,,,,,,,,,,,,,,,,,,,,,,,,,,,,,,,,,,,,,,144,gorra,Catalan,Sounds/cat_gorra.mp3,11399,001,2020-06-25_12h00.13.786,TranslationElicitation_eng-sona,3.2.4,Win32,60,,1,0,81,38,1,80
,,,,,,,,,,,,,,,,,,,,,,,,,,,,,,,,,,,,,,,,,,d,2.249000072,D,FALSE,,,,,,,180,tisores,Catalan,Sounds/cat_tisores.mp3,11399,001,2020-06-25_12h00.13.786,TranslationElicitation_eng-sona,3.2.4,Win32,60,,1,0,81,71,1,80
,,,,,,,,,,,,,,,,,,,,,,,,,,,,,,,,,,,,,,,,,,e,2.44900012,DE,FALSE,,,,,,,180,tisores,Catalan,Sounds/cat_tisores.mp3,11399,001,2020-06-25_12h00.13.786,TranslationElicitation_eng-sona,3.2.4,Win32,60,,1,0,81,71,1,80
,,,,,,,,,,,,,,,,,,,,,,,,,,,,,,,,,,,,,,,,,,s,2.582000017,DES,FALSE,,,,,,,180,tisores,Catalan,Sounds/cat_tisores.mp3,11399,001,2020-06-25_12h00.13.786,TranslationElicitation_eng-sona,3.2.4,Win32,60,,1,0,81,71,1,80
,,,,,,,,,,,,,,,,,,,,,,,,,,,,,,,,,,,,,,,,,,e,2.882000208,DESE,FALSE,,,,,,,180,tisores,Catalan,Sounds/cat_tisores.mp3,11399,001,2020-06-25_12h00.13.786,TranslationElicitation_eng-sona,3.2.4,Win32,60,,1,0,81,71,1,80
,,,,,,,,,,,,,,,,,,,,,,,,,,,,,,,,,,,,,,,,,,r,3.032000065,DESER,FALSE,,,,,,,180,tisores,Catalan,Sounds/cat_tisores.mp3,11399,001,2020-06-25_12h00.13.786,TranslationElicitation_eng-sona,3.2.4,Win32,60,,1,0,81,71,1,80
,,,,,,,,,,,,,,,,,,,,,,,,,,,,,,,,,,,,,,,,,,t,3.332000017,DESERT,FALSE,,,,,,,180,tisores,Catalan,Sounds/cat_tisores.mp3,11399,001,2020-06-25_12h00.13.786,TranslationElicitation_eng-sona,3.2.4,Win32,60,,1,0,81,71,1,80
,,,,,,,,,,,,,,,,,,,,,,,,,,,,,,,,,,,,,,,,,,return,3.532000065,DESERT,FALSE,,,,,,,180,tisores,Catalan,Sounds/cat_tisores.mp3,11399,001,2020-06-25_12h00.13.786,TranslationElicitation_eng-sona,3.2.4,Win32,60,3.532000065,1,0,81,71,1,80
,,,,,,,,,,,,,,,,,,,,,,,,,,,,,,,,,,,,,,,,,,,,,,,,,,,,180,tisores,Catalan,Sounds/cat_tisores.mp3,11399,001,2020-06-25_12h00.13.786,TranslationElicitation_eng-sona,3.2.4,Win32,60,,1,0,81,71,1,80
,,,,,,,,,,,,,,,,,,,,,,,,,,,,,,,,,,,,,,,,,,g,1.549000025,G,FALSE,,,,,,,142,girafa,Catalan,Sounds/cat_girafa.mp3,11399,001,2020-06-25_12h00.13.786,TranslationElicitation_eng-sona,3.2.4,Win32,60,,1,0,81,36,1,80
,,,,,,,,,,,,,,,,,,,,,,,,,,,,,,,,,,,,,,,,,,i,1.71600008,GI,FALSE,,,,,,,142,girafa,Catalan,Sounds/cat_girafa.mp3,11399,001,2020-06-25_12h00.13.786,TranslationElicitation_eng-sona,3.2.4,Win32,60,,1,0,81,36,1,80
,,,,,,,,,,,,,,,,,,,,,,,,,,,,,,,,,,,,,,,,,,r,1.849000216,GIR,FALSE,,,,,,,142,girafa,Catalan,Sounds/cat_girafa.mp3,11399,001,2020-06-25_12h00.13.786,TranslationElicitation_eng-sona,3.2.4,Win32,60,,1,0,81,36,1,80
,,,,,,,,,,,,,,,,,,,,,,,,,,,,,,,,,,,,,,,,,,a,2.016000032,GIRA,FALSE,,,,,,,142,girafa,Catalan,Sounds/cat_girafa.mp3,11399,001,2020-06-25_12h00.13.786,TranslationElicitation_eng-sona,3.2.4,Win32,60,,1,0,81,36,1,80
,,,,,,,,,,,,,,,,,,,,,,,,,,,,,,,,,,,,,,,,,,g,2.23300004,GIRAG,FALSE,,,,,,,142,girafa,Catalan,Sounds/cat_girafa.mp3,11399,001,2020-06-25_12h00.13.786,TranslationElicitation_eng-sona,3.2.4,Win32,60,,1,0,81,36,1,80
,,,,,,,,,,,,,,,,,,,,,,,,,,,,,,,,,,,,,,,,,,g,2.416000128,GIRAGG,FALSE,,,,,,,142,girafa,Catalan,Sounds/cat_girafa.mp3,11399,001,2020-06-25_12h00.13.786,TranslationElicitation_eng-sona,3.2.4,Win32,60,,1,0,81,36,1,80
,,,,,,,,,,,,,,,,,,,,,,,,,,,,,,,,,,,,,,,,,,e,2.532000065,GIRAGGE,FALSE,,,,,,,142,girafa,Catalan,Sounds/cat_girafa.mp3,11399,001,2020-06-25_12h00.13.786,TranslationElicitation_eng-sona,3.2.4,Win32,60,,1,0,81,36,1,80
,,,,,,,,,,,,,,,,,,,,,,,,,,,,,,,,,,,,,,,,,,backspace,3.149000168,GIRAG,TRUE,,,,,,,142,girafa,Catalan,Sounds/cat_girafa.mp3,11399,001,2020-06-25_12h00.13.786,TranslationElicitation_eng-sona,3.2.4,Win32,60,,1,0,81,36,1,80
,,,,,,,,,,,,,,,,,,,,,,,,,,,,,,,,,,,,,,,,,,backspace,3.268000126,GIR,TRUE,,,,,,,142,girafa,Catalan,Sounds/cat_girafa.mp3,11399,001,2020-06-25_12h00.13.786,TranslationElicitation_eng-sona,3.2.4,Win32,60,,1,0,81,36,1,80
,,,,,,,,,,,,,,,,,,,,,,,,,,,,,,,,,,,,,,,,,,a,4.066000223,GIRA,TRUE,,,,,,,142,girafa,Catalan,Sounds/cat_girafa.mp3,11399,001,2020-06-25_12h00.13.786,TranslationElicitation_eng-sona,3.2.4,Win32,60,,1,0,81,36,1,80
,,,,,,,,,,,,,,,,,,,,,,,,,,,,,,,,,,,,,,,,,,f,4.416000128,GIRAF,TRUE,,,,,,,142,girafa,Catalan,Sounds/cat_girafa.mp3,11399,001,2020-06-25_12h00.13.786,TranslationElicitation_eng-sona,3.2.4,Win32,60,,1,0,81,36,1,80
,,,,,,,,,,,,,,,,,,,,,,,,,,,,,,,,,,,,,,,,,,f,4.566000223,GIRAFF,TRUE,,,,,,,142,girafa,Catalan,Sounds/cat_girafa.mp3,11399,001,2020-06-25_12h00.13.786,TranslationElicitation_eng-sona,3.2.4,Win32,60,,1,0,81,36,1,80
,,,,,,,,,,,,,,,,,,,,,,,,,,,,,,,,,,,,,,,,,,e,4.683000088,GIRAFFE,TRUE,,,,,,,142,girafa,Catalan,Sounds/cat_girafa.mp3,11399,001,2020-06-25_12h00.13.786,TranslationElicitation_eng-sona,3.2.4,Win32,60,,1,0,81,36,1,80
,,,,,,,,,,,,,,,,,,,,,,,,,,,,,,,,,,,,,,,,,,return,4.883000135,GIRAFFE,TRUE,,,,,,,142,girafa,Catalan,Sounds/cat_girafa.mp3,11399,001,2020-06-25_12h00.13.786,TranslationElicitation_eng-sona,3.2.4,Win32,60,4.883000135,1,0,81,36,1,80
,,,,,,,,,,,,,,,,,,,,,,,,,,,,,,,,,,,,,,,,,,,,,,,,,,,,142,girafa,Catalan,Sounds/cat_girafa.mp3,11399,001,2020-06-25_12h00.13.786,TranslationElicitation_eng-sona,3.2.4,Win32,60,,1,0,81,36,1,80
,,,,,,,,,,,,,,,,,,,,,,,,,,,,,,,,,,,,,,,,,,p,3.049999952,P,FALSE,,,,,,,104,abella,Catalan,Sounds/cat_abella.mp3,11399,001,2020-06-25_12h00.13.786,TranslationElicitation_eng-sona,3.2.4,Win32,60,,1,0,81,0,1,80
,,,,,,,,,,,,,,,,,,,,,,,,,,,,,,,,,,,,,,,,,,a,3.282999992,PA,FALSE,,,,,,,104,abella,Catalan,Sounds/cat_abella.mp3,11399,001,2020-06-25_12h00.13.786,TranslationElicitation_eng-sona,3.2.4,Win32,60,,1,0,81,0,1,80
,,,,,,,,,,,,,,,,,,,,,,,,,,,,,,,,,,,,,,,,,,r,3.398999929,PAR,FALSE,,,,,,,104,abella,Catalan,Sounds/cat_abella.mp3,11399,001,2020-06-25_12h00.13.786,TranslationElicitation_eng-sona,3.2.4,Win32,60,,1,0,81,0,1,80
,,,,,,,,,,,,,,,,,,,,,,,,,,,,,,,,,,,,,,,,,,t,3.615999937,PART,FALSE,,,,,,,104,abella,Catalan,Sounds/cat_abella.mp3,11399,001,2020-06-25_12h00.13.786,TranslationElicitation_eng-sona,3.2.4,Win32,60,,1,0,81,0,1,80
,,,,,,,,,,,,,,,,,,,,,,,,,,,,,,,,,,,,,,,,,,y,3.782999992,PARTY,FALSE,,,,,,,104,abella,Catalan,Sounds/cat_abella.mp3,11399,001,2020-06-25_12h00.13.786,TranslationElicitation_eng-sona,3.2.4,Win32,60,,1,0,81,0,1,80
,,,,,,,,,,,,,,,,,,,,,,,,,,,,,,,,,,,,,,,,,,return,4.132999897,PARTY,FALSE,,,,,,,104,abella,Catalan,Sounds/cat_abella.mp3,11399,001,2020-06-25_12h00.13.786,TranslationElicitation_eng-sona,3.2.4,Win32,60,4.132999897,1,0,81,0,1,80
,,,,,,,,,,,,,,,,,,,,,,,,,,,,,,,,,,,,,,,,,,,,,,,,,,,,104,abella,Catalan,Sounds/cat_abella.mp3,11399,001,2020-06-25_12h00.13.786,TranslationElicitation_eng-sona,3.2.4,Win32,60,,1,0,81,0,1,80
,,,,,,,,,,,,,,,,,,,,,,,,,,,,,,,,,,,,,,,,,,s,3.817000151,S,FALSE,,,,,,,161,ovella,Catalan,Sounds/cat_ovella.mp3,11399,001,2020-06-25_12h00.13.786,TranslationElicitation_eng-sona,3.2.4,Win32,60,,1,0,81,53,1,80
,,,,,,,,,,,,,,,,,,,,,,,,,,,,,,,,,,,,,,,,,,l,4.133000135,SL,FALSE,,,,,,,161,ovella,Catalan,Sounds/cat_ovella.mp3,11399,001,2020-06-25_12h00.13.786,TranslationElicitation_eng-sona,3.2.4,Win32,60,,1,0,81,53,1,80
,,,,,,,,,,,,,,,,,,,,,,,,,,,,,,,,,,,,,,,,,,e,4.400000095,SLE,FALSE,,,,,,,161,ovella,Catalan,Sounds/cat_ovella.mp3,11399,001,2020-06-25_12h00.13.786,TranslationElicitation_eng-sona,3.2.4,Win32,60,,1,0,81,53,1,80
,,,,,,,,,,,,,,,,,,,,,,,,,,,,,,,,,,,,,,,,,,backspace,5.016000032,S,TRUE,,,,,,,161,ovella,Catalan,Sounds/cat_ovella.mp3,11399,001,2020-06-25_12h00.13.786,TranslationElicitation_eng-sona,3.2.4,Win32,60,,1,0,81,53,1,80
,,,,,,,,,,,,,,,,,,,,,,,,,,,,,,,,,,,,,,,,,,backspace,5.200000048,,TRUE,,,,,,,161,ovella,Catalan,Sounds/cat_ovella.mp3,11399,001,2020-06-25_12h00.13.786,TranslationElicitation_eng-sona,3.2.4,Win32,60,,1,0,81,53,1,80
,,,,,,,,,,,,,,,,,,,,,,,,,,,,,,,,,,,,,,,,,,backspace,5.417000055,,TRUE,,,,,,,161,ovella,Catalan,Sounds/cat_ovella.mp3,11399,001,2020-06-25_12h00.13.786,TranslationElicitation_eng-sona,3.2.4,Win32,60,,1,0,81,53,1,80
,,,,,,,,,,,,,,,,,,,,,,,,,,,,,,,,,,,,,,,,,,d,7.166000128,D,TRUE,,,,,,,161,ovella,Catalan,Sounds/cat_ovella.mp3,11399,001,2020-06-25_12h00.13.786,TranslationElicitation_eng-sona,3.2.4,Win32,60,,1,0,81,53,1,80
,,,,,,,,,,,,,,,,,,,,,,,,,,,,,,,,,,,,,,,,,,a,7.383000135,DA,TRUE,,,,,,,161,ovella,Catalan,Sounds/cat_ovella.mp3,11399,001,2020-06-25_12h00.13.786,TranslationElicitation_eng-sona,3.2.4,Win32,60,,1,0,81,53,1,80
,,,,,,,,,,,,,,,,,,,,,,,,,,,,,,,,,,,,,,,,,,r,7.433000088,DAR,TRUE,,,,,,,161,ovella,Catalan,Sounds/cat_ovella.mp3,11399,001,2020-06-25_12h00.13.786,TranslationElicitation_eng-sona,3.2.4,Win32,60,,1,0,81,53,1,80
,,,,,,,,,,,,,,,,,,,,,,,,,,,,,,,,,,,,,,,,,,k,7.633000135,DARK,TRUE,,,,,,,161,ovella,Catalan,Sounds/cat_ovella.mp3,11399,001,2020-06-25_12h00.13.786,TranslationElicitation_eng-sona,3.2.4,Win32,60,,1,0,81,53,1,80
,,,,,,,,,,,,,,,,,,,,,,,,,,,,,,,,,,,,,,,,,,return,8.467000008,DARK,TRUE,,,,,,,161,ovella,Catalan,Sounds/cat_ovella.mp3,11399,001,2020-06-25_12h00.13.786,TranslationElicitation_eng-sona,3.2.4,Win32,60,8.467000008,1,0,81,53,1,80
,,,,,,,,,,,,,,,,,,,,,,,,,,,,,,,,,,,,,,,,,,,,,,,,,,,,161,ovella,Catalan,Sounds/cat_ovella.mp3,11399,001,2020-06-25_12h00.13.786,TranslationElicitation_eng-sona,3.2.4,Win32,60,,1,0,81,53,1,80
,,,,,,,,,,,,,,,,,,,,,,,,,,,,,,,,,,,,,,,,,,t,3.315999985,T,FALSE,,,,,,,174,porta,Catalan,Sounds/cat_porta.mp3,11399,001,2020-06-25_12h00.13.786,TranslationElicitation_eng-sona,3.2.4,Win32,60,,1,0,81,66,1,80
,,,,,,,,,,,,,,,,,,,,,,,,,,,,,,,,,,,,,,,,,,a,3.433000088,TA,FALSE,,,,,,,174,porta,Catalan,Sounds/cat_porta.mp3,11399,001,2020-06-25_12h00.13.786,TranslationElicitation_eng-sona,3.2.4,Win32,60,,1,0,81,66,1,80
,,,,,,,,,,,,,,,,,,,,,,,,,,,,,,,,,,,,,,,,,,b,3.683000088,TAB,FALSE,,,,,,,174,porta,Catalan,Sounds/cat_porta.mp3,11399,001,2020-06-25_12h00.13.786,TranslationElicitation_eng-sona,3.2.4,Win32,60,,1,0,81,66,1,80
,,,,,,,,,,,,,,,,,,,,,,,,,,,,,,,,,,,,,,,,,,l,4.598999977,TABL,FALSE,,,,,,,174,porta,Catalan,Sounds/cat_porta.mp3,11399,001,2020-06-25_12h00.13.786,TranslationElicitation_eng-sona,3.2.4,Win32,60,,1,0,81,66,1,80
,,,,,,,,,,,,,,,,,,,,,,,,,,,,,,,,,,,,,,,,,,return,5.884000063,TABL,FALSE,,,,,,,174,porta,Catalan,Sounds/cat_porta.mp3,11399,001,2020-06-25_12h00.13.786,TranslationElicitation_eng-sona,3.2.4,Win32,60,5.884000063,1,0,81,66,1,80
,,,,,,,,,,,,,,,,,,,,,,,,,,,,,,,,,,,,,,,,,,,,,,,,,,,,174,porta,Catalan,Sounds/cat_porta.mp3,11399,001,2020-06-25_12h00.13.786,TranslationElicitation_eng-sona,3.2.4,Win32,60,,1,0,81,66,1,80
,,,,,,,,,,,,,,,,,,,,,,,,,,,,,,,,,,,,,,,,,,p,2.799999952,P,FALSE,,,,,,,172,poma,Catalan,Sounds/cat_poma.mp3,11399,001,2020-06-25_12h00.13.786,TranslationElicitation_eng-sona,3.2.4,Win32,60,,1,0,81,64,1,80
,,,,,,,,,,,,,,,,,,,,,,,,,,,,,,,,,,,,,,,,,,o,2.98300004,PO,FALSE,,,,,,,172,poma,Catalan,Sounds/cat_poma.mp3,11399,001,2020-06-25_12h00.13.786,TranslationElicitation_eng-sona,3.2.4,Win32,60,,1,0,81,64,1,80
,,,,,,,,,,,,,,,,,,,,,,,,,,,,,,,,,,,,,,,,,,m,3.165999889,POM,FALSE,,,,,,,172,poma,Catalan,Sounds/cat_poma.mp3,11399,001,2020-06-25_12h00.13.786,TranslationElicitation_eng-sona,3.2.4,Win32,60,,1,0,81,64,1,80
,,,,,,,,,,,,,,,,,,,,,,,,,,,,,,,,,,,,,,,,,,e,3.299999952,POME,FALSE,,,,,,,172,poma,Catalan,Sounds/cat_poma.mp3,11399,001,2020-06-25_12h00.13.786,TranslationElicitation_eng-sona,3.2.4,Win32,60,,1,0,81,64,1,80
,,,,,,,,,,,,,,,,,,,,,,,,,,,,,,,,,,,,,,,,,,g,3.500999928,POMEG,FALSE,,,,,,,172,poma,Catalan,Sounds/cat_poma.mp3,11399,001,2020-06-25_12h00.13.786,TranslationElicitation_eng-sona,3.2.4,Win32,60,,1,0,81,64,1,80
,,,,,,,,,,,,,,,,,,,,,,,,,,,,,,,,,,,,,,,,,,r,3.738999844,POMEGR,FALSE,,,,,,,172,poma,Catalan,Sounds/cat_poma.mp3,11399,001,2020-06-25_12h00.13.786,TranslationElicitation_eng-sona,3.2.4,Win32,60,,1,0,81,64,1,80
,,,,,,,,,,,,,,,,,,,,,,,,,,,,,,,,,,,,,,,,,,a,3.815999985,POMEGRA,FALSE,,,,,,,172,poma,Catalan,Sounds/cat_poma.mp3,11399,001,2020-06-25_12h00.13.786,TranslationElicitation_eng-sona,3.2.4,Win32,60,,1,0,81,64,1,80
,,,,,,,,,,,,,,,,,,,,,,,,,,,,,,,,,,,,,,,,,,n,3.98300004,POMEGRAN,FALSE,,,,,,,172,poma,Catalan,Sounds/cat_poma.mp3,11399,001,2020-06-25_12h00.13.786,TranslationElicitation_eng-sona,3.2.4,Win32,60,,1,0,81,64,1,80
,,,,,,,,,,,,,,,,,,,,,,,,,,,,,,,,,,,,,,,,,,a,4.865999937,POMEGRANA,FALSE,,,,,,,172,poma,Catalan,Sounds/cat_poma.mp3,11399,001,2020-06-25_12h00.13.786,TranslationElicitation_eng-sona,3.2.4,Win32,60,,1,0,81,64,1,80
,,,,,,,,,,,,,,,,,,,,,,,,,,,,,,,,,,,,,,,,,,t,5,POMEGRANAT,FALSE,,,,,,,172,poma,Catalan,Sounds/cat_poma.mp3,11399,001,2020-06-25_12h00.13.786,TranslationElicitation_eng-sona,3.2.4,Win32,60,,1,0,81,64,1,80
,,,,,,,,,,,,,,,,,,,,,,,,,,,,,,,,,,,,,,,,,,e,5.184000015,POMEGRANATE,FALSE,,,,,,,172,poma,Catalan,Sounds/cat_poma.mp3,11399,001,2020-06-25_12h00.13.786,TranslationElicitation_eng-sona,3.2.4,Win32,60,,1,0,81,64,1,80
,,,,,,,,,,,,,,,,,,,,,,,,,,,,,,,,,,,,,,,,,,return,7.782999992,POMEGRANATE,FALSE,,,,,,,172,poma,Catalan,Sounds/cat_poma.mp3,11399,001,2020-06-25_12h00.13.786,TranslationElicitation_eng-sona,3.2.4,Win32,60,7.782999992,1,0,81,64,1,80
,,,,,,,,,,,,,,,,,,,,,,,,,,,,,,,,,,,,,,,,,,,,,,,,,,,,172,poma,Catalan,Sounds/cat_poma.mp3,11399,001,2020-06-25_12h00.13.786,TranslationElicitation_eng-sona,3.2.4,Win32,60,,1,0,81,64,1,80
,,,,,,,,,,,,,,,,,,,,,,,,,,,,,,,,,,,,,,,,,,l,7.865999937,L,FALSE,,,,,,,108,ampolla,Catalan,Sounds/cat_ampolla.mp3,11399,001,2020-06-25_12h00.13.786,TranslationElicitation_eng-sona,3.2.4,Win32,60,,1,0,81,4,1,80
,,,,,,,,,,,,,,,,,,,,,,,,,,,,,,,,,,,,,,,,,,o,8.016000032,LO,FALSE,,,,,,,108,ampolla,Catalan,Sounds/cat_ampolla.mp3,11399,001,2020-06-25_12h00.13.786,TranslationElicitation_eng-sona,3.2.4,Win32,60,,1,0,81,4,1,80
,,,,,,,,,,,,,,,,,,,,,,,,,,,,,,,,,,,,,,,,,,u,8.19900012,LOU,FALSE,,,,,,,108,ampolla,Catalan,Sounds/cat_ampolla.mp3,11399,001,2020-06-25_12h00.13.786,TranslationElicitation_eng-sona,3.2.4,Win32,60,,1,0,81,4,1,80
,,,,,,,,,,,,,,,,,,,,,,,,,,,,,,,,,,,,,,,,,,d,8.36500001,LOUD,FALSE,,,,,,,108,ampolla,Catalan,Sounds/cat_ampolla.mp3,11399,001,2020-06-25_12h00.13.786,TranslationElicitation_eng-sona,3.2.4,Win32,60,,1,0,81,4,1,80
,,,,,,,,,,,,,,,,,,,,,,,,,,,,,,,,,,,,,,,,,,return,8.56400013,LOUD,FALSE,,,,,,,108,ampolla,Catalan,Sounds/cat_ampolla.mp3,11399,001,2020-06-25_12h00.13.786,TranslationElicitation_eng-sona,3.2.4,Win32,60,8.56400013,1,0,81,4,1,80
,,,,,,,,,,,,,,,,,,,,,,,,,,,,,,,,,,,,,,,,,,,,,,,,,,,,108,ampolla,Catalan,Sounds/cat_ampolla.mp3,11399,001,2020-06-25_12h00.13.786,TranslationElicitation_eng-sona,3.2.4,Win32,60,,1,0,81,4,1,80
,,,,,,,,,,,,,,,,,,,,,,,,,,,,,,,,,,,,,,,,,,g,2.365999937,G,FALSE,,,,,,,143,globus,Catalan,Sounds/cat_globus.mp3,11399,001,2020-06-25_12h00.13.786,TranslationElicitation_eng-sona,3.2.4,Win32,60,,1,0,81,37,1,80
,,,,,,,,,,,,,,,,,,,,,,,,,,,,,,,,,,,,,,,,,,l,2.644999981,GL,FALSE,,,,,,,143,globus,Catalan,Sounds/cat_globus.mp3,11399,001,2020-06-25_12h00.13.786,TranslationElicitation_eng-sona,3.2.4,Win32,60,,1,0,81,37,1,80
,,,,,,,,,,,,,,,,,,,,,,,,,,,,,,,,,,,,,,,,,,backspace,3.401000023,,TRUE,,,,,,,143,globus,Catalan,Sounds/cat_globus.mp3,11399,001,2020-06-25_12h00.13.786,TranslationElicitation_eng-sona,3.2.4,Win32,60,,1,0,81,37,1,80
,,,,,,,,,,,,,,,,,,,,,,,,,,,,,,,,,,,,,,,,,,backspace,4.016000032,,TRUE,,,,,,,143,globus,Catalan,Sounds/cat_globus.mp3,11399,001,2020-06-25_12h00.13.786,TranslationElicitation_eng-sona,3.2.4,Win32,60,,1,0,81,37,1,80
,,,,,,,,,,,,,,,,,,,,,,,,,,,,,,,,,,,,,,,,,,d,4.150000095,D,TRUE,,,,,,,143,globus,Catalan,Sounds/cat_globus.mp3,11399,001,2020-06-25_12h00.13.786,TranslationElicitation_eng-sona,3.2.4,Win32,60,,1,0,81,37,1,80
,,,,,,,,,,,,,,,,,,,,,,,,,,,,,,,,,,,,,,,,,,r,4.367000103,DR,TRUE,,,,,,,143,globus,Catalan,Sounds/cat_globus.mp3,11399,001,2020-06-25_12h00.13.786,TranslationElicitation_eng-sona,3.2.4,Win32,60,,1,0,81,37,1,80
,,,,,,,,,,,,,,,,,,,,,,,,,,,,,,,,,,,,,,,,,,i,4.499000072,DRI,TRUE,,,,,,,143,globus,Catalan,Sounds/cat_globus.mp3,11399,001,2020-06-25_12h00.13.786,TranslationElicitation_eng-sona,3.2.4,Win32,60,,1,0,81,37,1,80
,,,,,,,,,,,,,,,,,,,,,,,,,,,,,,,,,,,,,,,,,,n,4.717000008,DRIN,TRUE,,,,,,,143,globus,Catalan,Sounds/cat_globus.mp3,11399,001,2020-06-25_12h00.13.786,TranslationElicitation_eng-sona,3.2.4,Win32,60,,1,0,81,37,1,80
,,,,,,,,,,,,,,,,,,,,,,,,,,,,,,,,,,,,,,,,,,k,5.367000103,DRINK,TRUE,,,,,,,143,globus,Catalan,Sounds/cat_globus.mp3,11399,001,2020-06-25_12h00.13.786,TranslationElicitation_eng-sona,3.2.4,Win32,60,,1,0,81,37,1,80
,,,,,,,,,,,,,,,,,,,,,,,,,,,,,,,,,,,,,,,,,,return,5.666000128,DRINK,TRUE,,,,,,,143,globus,Catalan,Sounds/cat_globus.mp3,11399,001,2020-06-25_12h00.13.786,TranslationElicitation_eng-sona,3.2.4,Win32,60,5.666000128,1,0,81,37,1,80
,,,,,,,,,,,,,,,,,,,,,,,,,,,,,,,,,,,,,,,,,,,,,,,,,,,,143,globus,Catalan,Sounds/cat_globus.mp3,11399,001,2020-06-25_12h00.13.786,TranslationElicitation_eng-sona,3.2.4,Win32,60,,1,0,81,37,1,80
,,,,,,,,,,,,,,,,,,,,,,,,,,,,,,,,,,,,,,,,,,f,2.148999929,F,FALSE,,,,,,,163,papallona,Catalan,Sounds/cat_papallona.mp3,11399,001,2020-06-25_12h00.13.786,TranslationElicitation_eng-sona,3.2.4,Win32,60,,1,0,81,55,1,80
,,,,,,,,,,,,,,,,,,,,,,,,,,,,,,,,,,,,,,,,,,a,3.352999926,FA,FALSE,,,,,,,163,papallona,Catalan,Sounds/cat_papallona.mp3,11399,001,2020-06-25_12h00.13.786,TranslationElicitation_eng-sona,3.2.4,Win32,60,,1,0,81,55,1,80
,,,,,,,,,,,,,,,,,,,,,,,,,,,,,,,,,,,,,,,,,,t,4.431999922,FAT,FALSE,,,,,,,163,papallona,Catalan,Sounds/cat_papallona.mp3,11399,001,2020-06-25_12h00.13.786,TranslationElicitation_eng-sona,3.2.4,Win32,60,,1,0,81,55,1,80
,,,,,,,,,,,,,,,,,,,,,,,,,,,,,,,,,,,,,,,,,,h,4.848999977,FATH,FALSE,,,,,,,163,papallona,Catalan,Sounds/cat_papallona.mp3,11399,001,2020-06-25_12h00.13.786,TranslationElicitation_eng-sona,3.2.4,Win32,60,,1,0,81,55,1,80
,,,,,,,,,,,,,,,,,,,,,,,,,,,,,,,,,,,,,,,,,,e,5.026000023,FATHE,FALSE,,,,,,,163,papallona,Catalan,Sounds/cat_papallona.mp3,11399,001,2020-06-25_12h00.13.786,TranslationElicitation_eng-sona,3.2.4,Win32,60,,1,0,81,55,1,80
,,,,,,,,,,,,,,,,,,,,,,,,,,,,,,,,,,,,,,,,,,r,5.082000017,FATHER,FALSE,,,,,,,163,papallona,Catalan,Sounds/cat_papallona.mp3,11399,001,2020-06-25_12h00.13.786,TranslationElicitation_eng-sona,3.2.4,Win32,60,,1,0,81,55,1,80
,,,,,,,,,,,,,,,,,,,,,,,,,,,,,,,,,,,,,,,,,,return,5.46600008,FATHER,FALSE,,,,,,,163,papallona,Catalan,Sounds/cat_papallona.mp3,11399,001,2020-06-25_12h00.13.786,TranslationElicitation_eng-sona,3.2.4,Win32,60,5.46600008,1,0,81,55,1,80
,,,,,,,,,,,,,,,,,,,,,,,,,,,,,,,,,,,,,,,,,,,,,,,,,,,,163,papallona,Catalan,Sounds/cat_papallona.mp3,11399,001,2020-06-25_12h00.13.786,TranslationElicitation_eng-sona,3.2.4,Win32,60,,1,0,81,55,1,80
,,,,,,,,,,,,,,,,,,,,,,,,,,,,,,,,,,,,,,,,,,b,6.649999857,B,FALSE,,,,,,,176,samarreta,Catalan,Sounds/cat_samarreta.mp3,11399,001,2020-06-25_12h00.13.786,TranslationElicitation_eng-sona,3.2.4,Win32,60,,1,0,81,68,1,80
,,,,,,,,,,,,,,,,,,,,,,,,,,,,,,,,,,,,,,,,,,r,6.882999897,BR,FALSE,,,,,,,176,samarreta,Catalan,Sounds/cat_samarreta.mp3,11399,001,2020-06-25_12h00.13.786,TranslationElicitation_eng-sona,3.2.4,Win32,60,,1,0,81,68,1,80
,,,,,,,,,,,,,,,,,,,,,,,,,,,,,,,,,,,,,,,,,,e,7,BRE,FALSE,,,,,,,176,samarreta,Catalan,Sounds/cat_samarreta.mp3,11399,001,2020-06-25_12h00.13.786,TranslationElicitation_eng-sona,3.2.4,Win32,60,,1,0,81,68,1,80
,,,,,,,,,,,,,,,,,,,,,,,,,,,,,,,,,,,,,,,,,,a,7.115999937,BREA,FALSE,,,,,,,176,samarreta,Catalan,Sounds/cat_samarreta.mp3,11399,001,2020-06-25_12h00.13.786,TranslationElicitation_eng-sona,3.2.4,Win32,60,,1,0,81,68,1,80
,,,,,,,,,,,,,,,,,,,,,,,,,,,,,,,,,,,,,,,,,,d,8.032999992,BREAD,FALSE,,,,,,,176,samarreta,Catalan,Sounds/cat_samarreta.mp3,11399,001,2020-06-25_12h00.13.786,TranslationElicitation_eng-sona,3.2.4,Win32,60,,1,0,81,68,1,80
,,,,,,,,,,,,,,,,,,,,,,,,,,,,,,,,,,,,,,,,,,s,9.099999905,BREADS,FALSE,,,,,,,176,samarreta,Catalan,Sounds/cat_samarreta.mp3,11399,001,2020-06-25_12h00.13.786,TranslationElicitation_eng-sona,3.2.4,Win32,60,,1,0,81,68,1,80
,,,,,,,,,,,,,,,,,,,,,,,,,,,,,,,,,,,,,,,,,,t,9.25,BREADST,FALSE,,,,,,,176,samarreta,Catalan,Sounds/cat_samarreta.mp3,11399,001,2020-06-25_12h00.13.786,TranslationElicitation_eng-sona,3.2.4,Win32,60,,1,0,81,68,1,80
,,,,,,,,,,,,,,,,,,,,,,,,,,,,,,,,,,,,,,,,,,i,9.399999857,BREADSTI,FALSE,,,,,,,176,samarreta,Catalan,Sounds/cat_samarreta.mp3,11399,001,2020-06-25_12h00.13.786,TranslationElicitation_eng-sona,3.2.4,Win32,60,,1,0,81,68,1,80
,,,,,,,,,,,,,,,,,,,,,,,,,,,,,,,,,,,,,,,,,,c,9.556999922,BREADSTIC,FALSE,,,,,,,176,samarreta,Catalan,Sounds/cat_samarreta.mp3,11399,001,2020-06-25_12h00.13.786,TranslationElicitation_eng-sona,3.2.4,Win32,60,,1,0,81,68,1,80
,,,,,,,,,,,,,,,,,,,,,,,,,,,,,,,,,,,,,,,,,,k,9.649999857,BREADSTICK,FALSE,,,,,,,176,samarreta,Catalan,Sounds/cat_samarreta.mp3,11399,001,2020-06-25_12h00.13.786,TranslationElicitation_eng-sona,3.2.4,Win32,60,,1,0,81,68,1,80
,,,,,,,,,,,,,,,,,,,,,,,,,,,,,,,,,,,,,,,,,,return,10.0849998,BREADSTICK,FALSE,,,,,,,176,samarreta,Catalan,Sounds/cat_samarreta.mp3,11399,001,2020-06-25_12h00.13.786,TranslationElicitation_eng-sona,3.2.4,Win32,60,10.0849998,1,0,81,68,1,80
,,,,,,,,,,,,,,,,,,,,,,,,,,,,,,,,,,,,,,,,,,,,,,,,,,,,176,samarreta,Catalan,Sounds/cat_samarreta.mp3,11399,001,2020-06-25_12h00.13.786,TranslationElicitation_eng-sona,3.2.4,Win32,60,,1,0,81,68,1,80
,,,,,,,,,,,,,,,,,,,,,,,,,,,,,,,,,,,,,,,,,,c,1.315999985,C,FALSE,,,,,,,188,xocolata,Catalan,Sounds/cat_xocolata.mp3,11399,001,2020-06-25_12h00.13.786,TranslationElicitation_eng-sona,3.2.4,Win32,60,,1,0,81,79,1,80
,,,,,,,,,,,,,,,,,,,,,,,,,,,,,,,,,,,,,,,,,,h,1.398999929,CH,FALSE,,,,,,,188,xocolata,Catalan,Sounds/cat_xocolata.mp3,11399,001,2020-06-25_12h00.13.786,TranslationElicitation_eng-sona,3.2.4,Win32,60,,1,0,81,79,1,80
,,,,,,,,,,,,,,,,,,,,,,,,,,,,,,,,,,,,,,,,,,o,1.648999929,CHO,FALSE,,,,,,,188,xocolata,Catalan,Sounds/cat_xocolata.mp3,11399,001,2020-06-25_12h00.13.786,TranslationElicitation_eng-sona,3.2.4,Win32,60,,1,0,81,79,1,80
,,,,,,,,,,,,,,,,,,,,,,,,,,,,,,,,,,,,,,,,,,c,1.69900012,CHOC,FALSE,,,,,,,188,xocolata,Catalan,Sounds/cat_xocolata.mp3,11399,001,2020-06-25_12h00.13.786,TranslationElicitation_eng-sona,3.2.4,Win32,60,,1,0,81,79,1,80
,,,,,,,,,,,,,,,,,,,,,,,,,,,,,,,,,,,,,,,,,,o,1.916000128,CHOCO,FALSE,,,,,,,188,xocolata,Catalan,Sounds/cat_xocolata.mp3,11399,001,2020-06-25_12h00.13.786,TranslationElicitation_eng-sona,3.2.4,Win32,60,,1,0,81,79,1,80
,,,,,,,,,,,,,,,,,,,,,,,,,,,,,,,,,,,,,,,,,,l,2.049000025,CHOCOL,FALSE,,,,,,,188,xocolata,Catalan,Sounds/cat_xocolata.mp3,11399,001,2020-06-25_12h00.13.786,TranslationElicitation_eng-sona,3.2.4,Win32,60,,1,0,81,79,1,80
,,,,,,,,,,,,,,,,,,,,,,,,,,,,,,,,,,,,,,,,,,a,2.148999929,CHOCOLA,FALSE,,,,,,,188,xocolata,Catalan,Sounds/cat_xocolata.mp3,11399,001,2020-06-25_12h00.13.786,TranslationElicitation_eng-sona,3.2.4,Win32,60,,1,0,81,79,1,80
,,,,,,,,,,,,,,,,,,,,,,,,,,,,,,,,,,,,,,,,,,t,2.265000105,CHOCOLAT,FALSE,,,,,,,188,xocolata,Catalan,Sounds/cat_xocolata.mp3,11399,001,2020-06-25_12h00.13.786,TranslationElicitation_eng-sona,3.2.4,Win32,60,,1,0,81,79,1,80
,,,,,,,,,,,,,,,,,,,,,,,,,,,,,,,,,,,,,,,,,,e,2.398999929,CHOCOLATE,FALSE,,,,,,,188,xocolata,Catalan,Sounds/cat_xocolata.mp3,11399,001,2020-06-25_12h00.13.786,TranslationElicitation_eng-sona,3.2.4,Win32,60,,1,0,81,79,1,80
,,,,,,,,,,,,,,,,,,,,,,,,,,,,,,,,,,,,,,,,,,return,3.065999985,CHOCOLATE,FALSE,,,,,,,188,xocolata,Catalan,Sounds/cat_xocolata.mp3,11399,001,2020-06-25_12h00.13.786,TranslationElicitation_eng-sona,3.2.4,Win32,60,3.065999985,1,0,81,79,1,80
,,,,,,,,,,,,,,,,,,,,,,,,,,,,,,,,,,,,,,,,,,,,,,,,,,,,188,xocolata,Catalan,Sounds/cat_xocolata.mp3,11399,001,2020-06-25_12h00.13.786,TranslationElicitation_eng-sona,3.2.4,Win32,60,,1,0,81,79,1,80
,,,,,,,,,,,,,,,,,,,,,,,,,,,,,,,,,,,,,,,,,,s,4.900000095,S,FALSE,,,,,,,132,estrella,Catalan,Sounds/cat_estrella.mp3,11399,001,2020-06-25_12h00.13.786,TranslationElicitation_eng-sona,3.2.4,Win32,60,,1,0,81,26,1,80
,,,,,,,,,,,,,,,,,,,,,,,,,,,,,,,,,,,,,,,,,,a,5.683000088,SA,FALSE,,,,,,,132,estrella,Catalan,Sounds/cat_estrella.mp3,11399,001,2020-06-25_12h00.13.786,TranslationElicitation_eng-sona,3.2.4,Win32,60,,1,0,81,26,1,80
,,,,,,,,,,,,,,,,,,,,,,,,,,,,,,,,,,,,,,,,,,u,5.832999945,SAU,FALSE,,,,,,,132,estrella,Catalan,Sounds/cat_estrella.mp3,11399,001,2020-06-25_12h00.13.786,TranslationElicitation_eng-sona,3.2.4,Win32,60,,1,0,81,26,1,80
,,,,,,,,,,,,,,,,,,,,,,,,,,,,,,,,,,,,,,,,,,s,6.016000032,SAUS,FALSE,,,,,,,132,estrella,Catalan,Sounds/cat_estrella.mp3,11399,001,2020-06-25_12h00.13.786,TranslationElicitation_eng-sona,3.2.4,Win32,60,,1,0,81,26,1,80
,,,,,,,,,,,,,,,,,,,,,,,,,,,,,,,,,,,,,,,,,,a,6.200000048,SAUSA,FALSE,,,,,,,132,estrella,Catalan,Sounds/cat_estrella.mp3,11399,001,2020-06-25_12h00.13.786,TranslationElicitation_eng-sona,3.2.4,Win32,60,,1,0,81,26,1,80
,,,,,,,,,,,,,,,,,,,,,,,,,,,,,,,,,,,,,,,,,,g,7.065999985,SAUSAG,FALSE,,,,,,,132,estrella,Catalan,Sounds/cat_estrella.mp3,11399,001,2020-06-25_12h00.13.786,TranslationElicitation_eng-sona,3.2.4,Win32,60,,1,0,81,26,1,80
,,,,,,,,,,,,,,,,,,,,,,,,,,,,,,,,,,,,,,,,,,e,8.269000053,SAUSAGE,FALSE,,,,,,,132,estrella,Catalan,Sounds/cat_estrella.mp3,11399,001,2020-06-25_12h00.13.786,TranslationElicitation_eng-sona,3.2.4,Win32,60,,1,0,81,26,1,80
,,,,,,,,,,,,,,,,,,,,,,,,,,,,,,,,,,,,,,,,,,return,9.115999937,SAUSAGE,FALSE,,,,,,,132,estrella,Catalan,Sounds/cat_estrella.mp3,11399,001,2020-06-25_12h00.13.786,TranslationElicitation_eng-sona,3.2.4,Win32,60,9.115999937,1,0,81,26,1,80
,,,,,,,,,,,,,,,,,,,,,,,,,,,,,,,,,,,,,,,,,,,,,,,,,,,,132,estrella,Catalan,Sounds/cat_estrella.mp3,11399,001,2020-06-25_12h00.13.786,TranslationElicitation_eng-sona,3.2.4,Win32,60,,1,0,81,26,1,80
,,,,,,,,,,,,,,,,,,,,,,,,,,,,,,,,,,,,,,,,,,f,2.715999842,F,FALSE,,,,,,,116,bolquer,Catalan,Sounds/cat_bolquer.mp3,11399,001,2020-06-25_12h00.13.786,TranslationElicitation_eng-sona,3.2.4,Win32,60,,1,0,81,11,1,80
,,,,,,,,,,,,,,,,,,,,,,,,,,,,,,,,,,,,,,,,,,l,2.932999849,FL,FALSE,,,,,,,116,bolquer,Catalan,Sounds/cat_bolquer.mp3,11399,001,2020-06-25_12h00.13.786,TranslationElicitation_eng-sona,3.2.4,Win32,60,,1,0,81,11,1,80
,,,,,,,,,,,,,,,,,,,,,,,,,,,,,,,,,,,,,,,,,,o,3.148999929,FLO,FALSE,,,,,,,116,bolquer,Catalan,Sounds/cat_bolquer.mp3,11399,001,2020-06-25_12h00.13.786,TranslationElicitation_eng-sona,3.2.4,Win32,60,,1,0,81,11,1,80
,,,,,,,,,,,,,,,,,,,,,,,,,,,,,,,,,,,,,,,,,,backspace,3.815999985,F,TRUE,,,,,,,116,bolquer,Catalan,Sounds/cat_bolquer.mp3,11399,001,2020-06-25_12h00.13.786,TranslationElicitation_eng-sona,3.2.4,Win32,60,,1,0,81,11,1,80
,,,,,,,,,,,,,,,,,,,,,,,,,,,,,,,,,,,,,,,,,,backspace,3.98300004,,TRUE,,,,,,,116,bolquer,Catalan,Sounds/cat_bolquer.mp3,11399,001,2020-06-25_12h00.13.786,TranslationElicitation_eng-sona,3.2.4,Win32,60,,1,0,81,11,1,80
,,,,,,,,,,,,,,,,,,,,,,,,,,,,,,,,,,,,,,,,,,backspace,4.694999933,,TRUE,,,,,,,116,bolquer,Catalan,Sounds/cat_bolquer.mp3,11399,001,2020-06-25_12h00.13.786,TranslationElicitation_eng-sona,3.2.4,Win32,60,,1,0,81,11,1,80
,,,,,,,,,,,,,,,,,,,,,,,,,,,,,,,,,,,,,,,,,,o,4.748999834,O,TRUE,,,,,,,116,bolquer,Catalan,Sounds/cat_bolquer.mp3,11399,001,2020-06-25_12h00.13.786,TranslationElicitation_eng-sona,3.2.4,Win32,60,,1,0,81,11,1,80
,,,,,,,,,,,,,,,,,,,,,,,,,,,,,,,,,,,,,,,,,,u,4.898999929,OU,TRUE,,,,,,,116,bolquer,Catalan,Sounds/cat_bolquer.mp3,11399,001,2020-06-25_12h00.13.786,TranslationElicitation_eng-sona,3.2.4,Win32,60,,1,0,81,11,1,80
,,,,,,,,,,,,,,,,,,,,,,,,,,,,,,,,,,,,,,,,,,q,5.517999887,OUQ,TRUE,,,,,,,116,bolquer,Catalan,Sounds/cat_bolquer.mp3,11399,001,2020-06-25_12h00.13.786,TranslationElicitation_eng-sona,3.2.4,Win32,60,,1,0,81,11,1,80
,,,,,,,,,,,,,,,,,,,,,,,,,,,,,,,,,,,,,,,,,,u,5.542000055,OUQU,TRUE,,,,,,,116,bolquer,Catalan,Sounds/cat_bolquer.mp3,11399,001,2020-06-25_12h00.13.786,TranslationElicitation_eng-sona,3.2.4,Win32,60,,1,0,81,11,1,80
,,,,,,,,,,,,,,,,,,,,,,,,,,,,,,,,,,,,,,,,,,e,6.133999825,OUQUE,TRUE,,,,,,,116,bolquer,Catalan,Sounds/cat_bolquer.mp3,11399,001,2020-06-25_12h00.13.786,TranslationElicitation_eng-sona,3.2.4,Win32,60,,1,0,81,11,1,80
,,,,,,,,,,,,,,,,,,,,,,,,,,,,,,,,,,,,,,,,,,backspace,7.098999977,OUQ,TRUE,,,,,,,116,bolquer,Catalan,Sounds/cat_bolquer.mp3,11399,001,2020-06-25_12h00.13.786,TranslationElicitation_eng-sona,3.2.4,Win32,60,,1,0,81,11,1,80
,,,,,,,,,,,,,,,,,,,,,,,,,,,,,,,,,,,,,,,,,,backspace,7.348999977,O,TRUE,,,,,,,116,bolquer,Catalan,Sounds/cat_bolquer.mp3,11399,001,2020-06-25_12h00.13.786,TranslationElicitation_eng-sona,3.2.4,Win32,60,,1,0,81,11,1,80
,,,,,,,,,,,,,,,,,,,,,,,,,,,,,,,,,,,,,,,,,,backspace,7.665999889,,TRUE,,,,,,,116,bolquer,Catalan,Sounds/cat_bolquer.mp3,11399,001,2020-06-25_12h00.13.786,TranslationElicitation_eng-sona,3.2.4,Win32,60,,1,0,81,11,1,80
,,,,,,,,,,,,,,,,,,,,,,,,,,,,,,,,,,,,,,,,,,b,8.23300004,B,TRUE,,,,,,,116,bolquer,Catalan,Sounds/cat_bolquer.mp3,11399,001,2020-06-25_12h00.13.786,TranslationElicitation_eng-sona,3.2.4,Win32,60,,1,0,81,11,1,80
,,,,,,,,,,,,,,,,,,,,,,,,,,,,,,,,,,,,,,,,,,o,8.431999922,BO,TRUE,,,,,,,116,bolquer,Catalan,Sounds/cat_bolquer.mp3,11399,001,2020-06-25_12h00.13.786,TranslationElicitation_eng-sona,3.2.4,Win32,60,,1,0,81,11,1,80
,,,,,,,,,,,,,,,,,,,,,,,,,,,,,,,,,,,,,,,,,,u,8.665999889,BOU,TRUE,,,,,,,116,bolquer,Catalan,Sounds/cat_bolquer.mp3,11399,001,2020-06-25_12h00.13.786,TranslationElicitation_eng-sona,3.2.4,Win32,60,,1,0,81,11,1,80
,,,,,,,,,,,,,,,,,,,,,,,,,,,,,,,,,,,,,,,,,,q,9.049000025,BOUQ,TRUE,,,,,,,116,bolquer,Catalan,Sounds/cat_bolquer.mp3,11399,001,2020-06-25_12h00.13.786,TranslationElicitation_eng-sona,3.2.4,Win32,60,,1,0,81,11,1,80
,,,,,,,,,,,,,,,,,,,,,,,,,,,,,,,,,,,,,,,,,,u,9.198999882,BOUQU,TRUE,,,,,,,116,bolquer,Catalan,Sounds/cat_bolquer.mp3,11399,001,2020-06-25_12h00.13.786,TranslationElicitation_eng-sona,3.2.4,Win32,60,,1,0,81,11,1,80
,,,,,,,,,,,,,,,,,,,,,,,,,,,,,,,,,,,,,,,,,,e,9.332000017,BOUQUE,TRUE,,,,,,,116,bolquer,Catalan,Sounds/cat_bolquer.mp3,11399,001,2020-06-25_12h00.13.786,TranslationElicitation_eng-sona,3.2.4,Win32,60,,1,0,81,11,1,80
,,,,,,,,,,,,,,,,,,,,,,,,,,,,,,,,,,,,,,,,,,t,9.799999952,BOUQUET,TRUE,,,,,,,116,bolquer,Catalan,Sounds/cat_bolquer.mp3,11399,001,2020-06-25_12h00.13.786,TranslationElicitation_eng-sona,3.2.4,Win32,60,,1,0,81,11,1,80
,,,,,,,,,,,,,,,,,,,,,,,,,,,,,,,,,,,,,,,,,,return,10.19799995,BOUQUET,TRUE,,,,,,,116,bolquer,Catalan,Sounds/cat_bolquer.mp3,11399,001,2020-06-25_12h00.13.786,TranslationElicitation_eng-sona,3.2.4,Win32,60,10.19799995,1,0,81,11,1,80
,,,,,,,,,,,,,,,,,,,,,,,,,,,,,,,,,,,,,,,,,,,,,,,,,,,,116,bolquer,Catalan,Sounds/cat_bolquer.mp3,11399,001,2020-06-25_12h00.13.786,TranslationElicitation_eng-sona,3.2.4,Win32,60,,1,0,81,11,1,80
,,,,,,,,,,,,,,,,,,,,,,,,,,,,,,,,,,,,,,,,,,r,2.898999929,R,FALSE,,,,,,,157,mussol,Catalan,Sounds/cat_mussol.mp3,11399,001,2020-06-25_12h00.13.786,TranslationElicitation_eng-sona,3.2.4,Win32,60,,1,0,81,50,1,80
,,,,,,,,,,,,,,,,,,,,,,,,,,,,,,,,,,,,,,,,,,u,3.098999977,RU,FALSE,,,,,,,157,mussol,Catalan,Sounds/cat_mussol.mp3,11399,001,2020-06-25_12h00.13.786,TranslationElicitation_eng-sona,3.2.4,Win32,60,,1,0,81,50,1,80
,,,,,,,,,,,,,,,,,,,,,,,,,,,,,,,,,,,,,,,,,,b,3.248999834,RUB,FALSE,,,,,,,157,mussol,Catalan,Sounds/cat_mussol.mp3,11399,001,2020-06-25_12h00.13.786,TranslationElicitation_eng-sona,3.2.4,Win32,60,,1,0,81,50,1,80
,,,,,,,,,,,,,,,,,,,,,,,,,,,,,,,,,,,,,,,,,,b,3.414999962,RUBB,FALSE,,,,,,,157,mussol,Catalan,Sounds/cat_mussol.mp3,11399,001,2020-06-25_12h00.13.786,TranslationElicitation_eng-sona,3.2.4,Win32,60,,1,0,81,50,1,80
,,,,,,,,,,,,,,,,,,,,,,,,,,,,,,,,,,,,,,,,,,i,3.765999794,RUBBI,FALSE,,,,,,,157,mussol,Catalan,Sounds/cat_mussol.mp3,11399,001,2020-06-25_12h00.13.786,TranslationElicitation_eng-sona,3.2.4,Win32,60,,1,0,81,50,1,80
,,,,,,,,,,,,,,,,,,,,,,,,,,,,,,,,,,,,,,,,,,s,4.231999874,RUBBIS,FALSE,,,,,,,157,mussol,Catalan,Sounds/cat_mussol.mp3,11399,001,2020-06-25_12h00.13.786,TranslationElicitation_eng-sona,3.2.4,Win32,60,,1,0,81,50,1,80
,,,,,,,,,,,,,,,,,,,,,,,,,,,,,,,,,,,,,,,,,,h,4.348999977,RUBBISH,FALSE,,,,,,,157,mussol,Catalan,Sounds/cat_mussol.mp3,11399,001,2020-06-25_12h00.13.786,TranslationElicitation_eng-sona,3.2.4,Win32,60,,1,0,81,50,1,80
,,,,,,,,,,,,,,,,,,,,,,,,,,,,,,,,,,,,,,,,,,return,4.798999786,RUBBISH,FALSE,,,,,,,157,mussol,Catalan,Sounds/cat_mussol.mp3,11399,001,2020-06-25_12h00.13.786,TranslationElicitation_eng-sona,3.2.4,Win32,60,4.798999786,1,0,81,50,1,80
,,,,,,,,,,,,,,,,,,,,,,,,,,,,,,,,,,,,,,,,,,,,,,,,,,,,157,mussol,Catalan,Sounds/cat_mussol.mp3,11399,001,2020-06-25_12h00.13.786,TranslationElicitation_eng-sona,3.2.4,Win32,60,,1,0,81,50,1,80
,,,,,,,,,,,,,,,,,,,,,,,,,,,,,,,,,,,,,,,,,,o,5.100000143,O,FALSE,,,,,,,162,pa,Catalan,Sounds/cat_pa.mp3,11399,001,2020-06-25_12h00.13.786,TranslationElicitation_eng-sona,3.2.4,Win32,60,,1,0,81,54,1,80
,,,,,,,,,,,,,,,,,,,,,,,,,,,,,,,,,,,,,,,,,,h,5.900000095,OH,FALSE,,,,,,,162,pa,Catalan,Sounds/cat_pa.mp3,11399,001,2020-06-25_12h00.13.786,TranslationElicitation_eng-sona,3.2.4,Win32,60,,1,0,81,54,1,80
,,,,,,,,,,,,,,,,,,,,,,,,,,,,,,,,,,,,,,,,,,space,6.071000099,OH ,FALSE,,,,,,,162,pa,Catalan,Sounds/cat_pa.mp3,11399,001,2020-06-25_12h00.13.786,TranslationElicitation_eng-sona,3.2.4,Win32,60,,1,0,81,54,1,80
,,,,,,,,,,,,,,,,,,,,,,,,,,,,,,,,,,,,,,,,,,d,6.134000063,OH D,FALSE,,,,,,,162,pa,Catalan,Sounds/cat_pa.mp3,11399,001,2020-06-25_12h00.13.786,TranslationElicitation_eng-sona,3.2.4,Win32,60,,1,0,81,54,1,80
,,,,,,,,,,,,,,,,,,,,,,,,,,,,,,,,,,,,,,,,,,e,6.350000143,OH DE,FALSE,,,,,,,162,pa,Catalan,Sounds/cat_pa.mp3,11399,001,2020-06-25_12h00.13.786,TranslationElicitation_eng-sona,3.2.4,Win32,60,,1,0,81,54,1,80
,,,,,,,,,,,,,,,,,,,,,,,,,,,,,,,,,,,,,,,,,,a,6.476999998,OH DEA,FALSE,,,,,,,162,pa,Catalan,Sounds/cat_pa.mp3,11399,001,2020-06-25_12h00.13.786,TranslationElicitation_eng-sona,3.2.4,Win32,60,,1,0,81,54,1,80
,,,,,,,,,,,,,,,,,,,,,,,,,,,,,,,,,,,,,,,,,,r,6.583000183,OH DEAR,FALSE,,,,,,,162,pa,Catalan,Sounds/cat_pa.mp3,11399,001,2020-06-25_12h00.13.786,TranslationElicitation_eng-sona,3.2.4,Win32,60,,1,0,81,54,1,80
,,,,,,,,,,,,,,,,,,,,,,,,,,,,,,,,,,,,,,,,,,return,6.828999996,OH DEAR,FALSE,,,,,,,162,pa,Catalan,Sounds/cat_pa.mp3,11399,001,2020-06-25_12h00.13.786,TranslationElicitation_eng-sona,3.2.4,Win32,60,6.828999996,1,0,81,54,1,80
,,,,,,,,,,,,,,,,,,,,,,,,,,,,,,,,,,,,,,,,,,,,,,,,,,,,162,pa,Catalan,Sounds/cat_pa.mp3,11399,001,2020-06-25_12h00.13.786,TranslationElicitation_eng-sona,3.2.4,Win32,60,,1,0,81,54,1,80
,,,,,,,,,,,,,,,,,,,,,,,,,,,,,,,,,,,,,,,,,,a,1.96600008,A,FALSE,,,,,,,111,bibero,Catalan,Sounds/cat_bibero.mp3,11399,001,2020-06-25_12h00.13.786,TranslationElicitation_eng-sona,3.2.4,Win32,60,,1,0,81,6,1,80
,,,,,,,,,,,,,,,,,,,,,,,,,,,,,,,,,,,,,,,,,,l,2.132999897,AL,FALSE,,,,,,,111,bibero,Catalan,Sounds/cat_bibero.mp3,11399,001,2020-06-25_12h00.13.786,TranslationElicitation_eng-sona,3.2.4,Win32,60,,1,0,81,6,1,80
,,,,,,,,,,,,,,,,,,,,,,,,,,,,,,,,,,,,,,,,,,i,2.315999985,ALI,FALSE,,,,,,,111,bibero,Catalan,Sounds/cat_bibero.mp3,11399,001,2020-06-25_12h00.13.786,TranslationElicitation_eng-sona,3.2.4,Win32,60,,1,0,81,6,1,80
,,,,,,,,,,,,,,,,,,,,,,,,,,,,,,,,,,,,,,,,,,v,2.766000032,ALIV,FALSE,,,,,,,111,bibero,Catalan,Sounds/cat_bibero.mp3,11399,001,2020-06-25_12h00.13.786,TranslationElicitation_eng-sona,3.2.4,Win32,60,,1,0,81,6,1,80
,,,,,,,,,,,,,,,,,,,,,,,,,,,,,,,,,,,,,,,,,,e,2.915999889,ALIVE,FALSE,,,,,,,111,bibero,Catalan,Sounds/cat_bibero.mp3,11399,001,2020-06-25_12h00.13.786,TranslationElicitation_eng-sona,3.2.4,Win32,60,,1,0,81,6,1,80
,,,,,,,,,,,,,,,,,,,,,,,,,,,,,,,,,,,,,,,,,,return,3.334000111,ALIVE,FALSE,,,,,,,111,bibero,Catalan,Sounds/cat_bibero.mp3,11399,001,2020-06-25_12h00.13.786,TranslationElicitation_eng-sona,3.2.4,Win32,60,3.334000111,1,0,81,6,1,80
,,,,,,,,,,,,,,,,,,,,,,,,,,,,,,,,,,,,,,,,,,,,,,,,,,,,111,bibero,Catalan,Sounds/cat_bibero.mp3,11399,001,2020-06-25_12h00.13.786,TranslationElicitation_eng-sona,3.2.4,Win32,60,,1,0,81,6,1,80
,,,,,,,,,,,,,,,,,,,,,,,,,,,,,,,,,,,,,,,,,,f,2.600000143,F,FALSE,,,,,,,134,flor,Catalan,Sounds/cat_flor.mp3,11399,001,2020-06-25_12h00.13.786,TranslationElicitation_eng-sona,3.2.4,Win32,60,,1,0,81,28,1,80
,,,,,,,,,,,,,,,,,,,,,,,,,,,,,,,,,,,,,,,,,,l,2.71600008,FL,FALSE,,,,,,,134,flor,Catalan,Sounds/cat_flor.mp3,11399,001,2020-06-25_12h00.13.786,TranslationElicitation_eng-sona,3.2.4,Win32,60,,1,0,81,28,1,80
,,,,,,,,,,,,,,,,,,,,,,,,,,,,,,,,,,,,,,,,,,y,3.200000048,FLY,FALSE,,,,,,,134,flor,Catalan,Sounds/cat_flor.mp3,11399,001,2020-06-25_12h00.13.786,TranslationElicitation_eng-sona,3.2.4,Win32,60,,1,0,81,28,1,80
,,,,,,,,,,,,,,,,,,,,,,,,,,,,,,,,,,,,,,,,,,return,3.786000013,FLY,FALSE,,,,,,,134,flor,Catalan,Sounds/cat_flor.mp3,11399,001,2020-06-25_12h00.13.786,TranslationElicitation_eng-sona,3.2.4,Win32,60,3.786000013,1,0,81,28,1,80
,,,,,,,,,,,,,,,,,,,,,,,,,,,,,,,,,,,,,,,,,,,,,,,,,,,,134,flor,Catalan,Sounds/cat_flor.mp3,11399,001,2020-06-25_12h00.13.786,TranslationElicitation_eng-sona,3.2.4,Win32,60,,1,0,81,28,1,80
,,,,,,,,,,,,,,,,,,,,,,,,,,,,,,,,,,,,,,,,,,a,4.133000135,A,FALSE,,,,,,,156,moto,Catalan,Sounds/cat_moto.mp3,11399,001,2020-06-25_12h00.13.786,TranslationElicitation_eng-sona,3.2.4,Win32,60,,1,0,81,49,1,80
,,,,,,,,,,,,,,,,,,,,,,,,,,,,,,,,,,,,,,,,,,u,4.26699996,AU,FALSE,,,,,,,156,moto,Catalan,Sounds/cat_moto.mp3,11399,001,2020-06-25_12h00.13.786,TranslationElicitation_eng-sona,3.2.4,Win32,60,,1,0,81,49,1,80
,,,,,,,,,,,,,,,,,,,,,,,,,,,,,,,,,,,,,,,,,,n,4.751000166,AUN,FALSE,,,,,,,156,moto,Catalan,Sounds/cat_moto.mp3,11399,001,2020-06-25_12h00.13.786,TranslationElicitation_eng-sona,3.2.4,Win32,60,,1,0,81,49,1,80
,,,,,,,,,,,,,,,,,,,,,,,,,,,,,,,,,,,,,,,,,,t,6.01699996,AUNT,FALSE,,,,,,,156,moto,Catalan,Sounds/cat_moto.mp3,11399,001,2020-06-25_12h00.13.786,TranslationElicitation_eng-sona,3.2.4,Win32,60,,1,0,81,49,1,80
,,,,,,,,,,,,,,,,,,,,,,,,,,,,,,,,,,,,,,,,,,return,6.73300004,AUNT,FALSE,,,,,,,156,moto,Catalan,Sounds/cat_moto.mp3,11399,001,2020-06-25_12h00.13.786,TranslationElicitation_eng-sona,3.2.4,Win32,60,6.73300004,1,0,81,49,1,80
,,,,,,,,,,,,,,,,,,,,,,,,,,,,,,,,,,,,,,,,,,,,,,,,,,,,156,moto,Catalan,Sounds/cat_moto.mp3,11399,001,2020-06-25_12h00.13.786,TranslationElicitation_eng-sona,3.2.4,Win32,60,,1,0,81,49,1,80
,,,,,,,,,,,,,,,,,,,,,,,,,,,,,,,,,,,,,,,,,,g,3.333000183,G,FALSE,,,,,,,183,tren,Catalan,Sounds/cat_tren.mp3,11399,001,2020-06-25_12h00.13.786,TranslationElicitation_eng-sona,3.2.4,Win32,60,,1,0,81,74,1,80
,,,,,,,,,,,,,,,,,,,,,,,,,,,,,,,,,,,,,,,,,,r,3.583000183,GR,FALSE,,,,,,,183,tren,Catalan,Sounds/cat_tren.mp3,11399,001,2020-06-25_12h00.13.786,TranslationElicitation_eng-sona,3.2.4,Win32,60,,1,0,81,74,1,80
,,,,,,,,,,,,,,,,,,,,,,,,,,,,,,,,,,,,,,,,,,e,3.916000128,GRE,FALSE,,,,,,,183,tren,Catalan,Sounds/cat_tren.mp3,11399,001,2020-06-25_12h00.13.786,TranslationElicitation_eng-sona,3.2.4,Win32,60,,1,0,81,74,1,80
,,,,,,,,,,,,,,,,,,,,,,,,,,,,,,,,,,,,,,,,,,e,4.363000154,GREE,FALSE,,,,,,,183,tren,Catalan,Sounds/cat_tren.mp3,11399,001,2020-06-25_12h00.13.786,TranslationElicitation_eng-sona,3.2.4,Win32,60,,1,0,81,74,1,80
,,,,,,,,,,,,,,,,,,,,,,,,,,,,,,,,,,,,,,,,,,n,4.69900012,GREEN,FALSE,,,,,,,183,tren,Catalan,Sounds/cat_tren.mp3,11399,001,2020-06-25_12h00.13.786,TranslationElicitation_eng-sona,3.2.4,Win32,60,,1,0,81,74,1,80
,,,,,,,,,,,,,,,,,,,,,,,,,,,,,,,,,,,,,,,,,,return,5.21600008,GREEN,FALSE,,,,,,,183,tren,Catalan,Sounds/cat_tren.mp3,11399,001,2020-06-25_12h00.13.786,TranslationElicitation_eng-sona,3.2.4,Win32,60,5.21600008,1,0,81,74,1,80
,,,,,,,,,,,,,,,,,,,,,,,,,,,,,,,,,,,,,,,,,,,,,,,,,,,,183,tren,Catalan,Sounds/cat_tren.mp3,11399,001,2020-06-25_12h00.13.786,TranslationElicitation_eng-sona,3.2.4,Win32,60,,1,0,81,74,1,80
,,,,,,,,,,,,,,,,,,,,,,,,,,,,,,,,,,,,,,,,,,s,3.450000048,S,FALSE,,,,,,,177,sol,Catalan,Sounds/cat_sol.mp3,11399,001,2020-06-25_12h00.13.786,TranslationElicitation_eng-sona,3.2.4,Win32,60,,1,0,81,69,1,80
,,,,,,,,,,,,,,,,,,,,,,,,,,,,,,,,,,,,,,,,,,a,3.75,SA,FALSE,,,,,,,177,sol,Catalan,Sounds/cat_sol.mp3,11399,001,2020-06-25_12h00.13.786,TranslationElicitation_eng-sona,3.2.4,Win32,60,,1,0,81,69,1,80
,,,,,,,,,,,,,,,,,,,,,,,,,,,,,,,,,,,,,,,,,,l,3.986000061,SAL,FALSE,,,,,,,177,sol,Catalan,Sounds/cat_sol.mp3,11399,001,2020-06-25_12h00.13.786,TranslationElicitation_eng-sona,3.2.4,Win32,60,,1,0,81,69,1,80
,,,,,,,,,,,,,,,,,,,,,,,,,,,,,,,,,,,,,,,,,,t,4.183000088,SALT,FALSE,,,,,,,177,sol,Catalan,Sounds/cat_sol.mp3,11399,001,2020-06-25_12h00.13.786,TranslationElicitation_eng-sona,3.2.4,Win32,60,,1,0,81,69,1,80
,,,,,,,,,,,,,,,,,,,,,,,,,,,,,,,,,,,,,,,,,,return,4.617000103,SALT,FALSE,,,,,,,177,sol,Catalan,Sounds/cat_sol.mp3,11399,001,2020-06-25_12h00.13.786,TranslationElicitation_eng-sona,3.2.4,Win32,60,4.617000103,1,0,81,69,1,80
,,,,,,,,,,,,,,,,,,,,,,,,,,,,,,,,,,,,,,,,,,,,,,,,,,,,177,sol,Catalan,Sounds/cat_sol.mp3,11399,001,2020-06-25_12h00.13.786,TranslationElicitation_eng-sona,3.2.4,Win32,60,,1,0,81,69,1,80
,,,,,,,,,,,,,,,,,,,,,,,,,,,,,,,,,,,,,,,,,,z,1.932999849,Z,FALSE,,,,,,,189,zebra,Catalan,Sounds/cat_zebra.mp3,11399,001,2020-06-25_12h00.13.786,TranslationElicitation_eng-sona,3.2.4,Win32,60,,1,0,81,80,1,80
,,,,,,,,,,,,,,,,,,,,,,,,,,,,,,,,,,,,,,,,,,e,2.248999834,ZE,FALSE,,,,,,,189,zebra,Catalan,Sounds/cat_zebra.mp3,11399,001,2020-06-25_12h00.13.786,TranslationElicitation_eng-sona,3.2.4,Win32,60,,1,0,81,80,1,80
,,,,,,,,,,,,,,,,,,,,,,,,,,,,,,,,,,,,,,,,,,b,2.532999992,ZEB,FALSE,,,,,,,189,zebra,Catalan,Sounds/cat_zebra.mp3,11399,001,2020-06-25_12h00.13.786,TranslationElicitation_eng-sona,3.2.4,Win32,60,,1,0,81,80,1,80
,,,,,,,,,,,,,,,,,,,,,,,,,,,,,,,,,,,,,,,,,,r,2.865999937,ZEBR,FALSE,,,,,,,189,zebra,Catalan,Sounds/cat_zebra.mp3,11399,001,2020-06-25_12h00.13.786,TranslationElicitation_eng-sona,3.2.4,Win32,60,,1,0,81,80,1,80
,,,,,,,,,,,,,,,,,,,,,,,,,,,,,,,,,,,,,,,,,,a,3.065999985,ZEBRA,FALSE,,,,,,,189,zebra,Catalan,Sounds/cat_zebra.mp3,11399,001,2020-06-25_12h00.13.786,TranslationElicitation_eng-sona,3.2.4,Win32,60,,1,0,81,80,1,80
,,,,,,,,,,,,,,,,,,,,,,,,,,,,,,,,,,,,,,,,,,return,3.665999889,ZEBRA,FALSE,,,,,,,189,zebra,Catalan,Sounds/cat_zebra.mp3,11399,001,2020-06-25_12h00.13.786,TranslationElicitation_eng-sona,3.2.4,Win32,60,3.665999889,1,0,81,80,1,80
,,,,,,,,,,,,,,,,,,,,,,,,,,,,,,,,,,,,,,,,,,,,,,,,,,,,189,zebra,Catalan,Sounds/cat_zebra.mp3,11399,001,2020-06-25_12h00.13.786,TranslationElicitation_eng-sona,3.2.4,Win32,60,,1,0,81,80,1,80
,,,,,,,,,,,,,,,,,,,,,,,,,,,,,,,,,,,,,,,,,,t,1.88499999,T,FALSE,,,,,,,178,taronja,Catalan,Sounds/cat_taronja.mp3,11399,001,2020-06-25_12h00.13.786,TranslationElicitation_eng-sona,3.2.4,Win32,60,,1,0,81,70,1,80
,,,,,,,,,,,,,,,,,,,,,,,,,,,,,,,,,,,,,,,,,,r,2.299999952,TR,FALSE,,,,,,,178,taronja,Catalan,Sounds/cat_taronja.mp3,11399,001,2020-06-25_12h00.13.786,TranslationElicitation_eng-sona,3.2.4,Win32,60,,1,0,81,70,1,80
,,,,,,,,,,,,,,,,,,,,,,,,,,,,,,,,,,,,,,,,,,a,2.549999952,TRA,FALSE,,,,,,,178,taronja,Catalan,Sounds/cat_taronja.mp3,11399,001,2020-06-25_12h00.13.786,TranslationElicitation_eng-sona,3.2.4,Win32,60,,1,0,81,70,1,80
,,,,,,,,,,,,,,,,,,,,,,,,,,,,,,,,,,,,,,,,,,c,2.75,TRAC,FALSE,,,,,,,178,taronja,Catalan,Sounds/cat_taronja.mp3,11399,001,2020-06-25_12h00.13.786,TranslationElicitation_eng-sona,3.2.4,Win32,60,,1,0,81,70,1,80
,,,,,,,,,,,,,,,,,,,,,,,,,,,,,,,,,,,,,,,,,,t,3.01699996,TRACT,FALSE,,,,,,,178,taronja,Catalan,Sounds/cat_taronja.mp3,11399,001,2020-06-25_12h00.13.786,TranslationElicitation_eng-sona,3.2.4,Win32,60,,1,0,81,70,1,80
,,,,,,,,,,,,,,,,,,,,,,,,,,,,,,,,,,,,,,,,,,o,3.184000015,TRACTO,FALSE,,,,,,,178,taronja,Catalan,Sounds/cat_taronja.mp3,11399,001,2020-06-25_12h00.13.786,TranslationElicitation_eng-sona,3.2.4,Win32,60,,1,0,81,70,1,80
,,,,,,,,,,,,,,,,,,,,,,,,,,,,,,,,,,,,,,,,,,r,3.384000063,TRACTOR,FALSE,,,,,,,178,taronja,Catalan,Sounds/cat_taronja.mp3,11399,001,2020-06-25_12h00.13.786,TranslationElicitation_eng-sona,3.2.4,Win32,60,,1,0,81,70,1,80
,,,,,,,,,,,,,,,,,,,,,,,,,,,,,,,,,,,,,,,,,,return,4,TRACTOR,FALSE,,,,,,,178,taronja,Catalan,Sounds/cat_taronja.mp3,11399,001,2020-06-25_12h00.13.786,TranslationElicitation_eng-sona,3.2.4,Win32,60,4,1,0,81,70,1,80
,,,,,,,,,,,,,,,,,,,,,,,,,,,,,,,,,,,,,,,,,,,,,,,,,,,,178,taronja,Catalan,Sounds/cat_taronja.mp3,11399,001,2020-06-25_12h00.13.786,TranslationElicitation_eng-sona,3.2.4,Win32,60,,1,0,81,70,1,80
,,,,,,,,,,,,,,,,,,,,,,,,,,,,,,,,,,,,,,,,,,n,2.166000128,N,FALSE,,,,,,,158,nas,Catalan,Sounds/cat_nas.mp3,11399,001,2020-06-25_12h00.13.786,TranslationElicitation_eng-sona,3.2.4,Win32,60,,1,0,81,51,1,80
,,,,,,,,,,,,,,,,,,,,,,,,,,,,,,,,,,,,,,,,,,o,2.399000168,NO,FALSE,,,,,,,158,nas,Catalan,Sounds/cat_nas.mp3,11399,001,2020-06-25_12h00.13.786,TranslationElicitation_eng-sona,3.2.4,Win32,60,,1,0,81,51,1,80
,,,,,,,,,,,,,,,,,,,,,,,,,,,,,,,,,,,,,,,,,,s,2.565999985,NOS,FALSE,,,,,,,158,nas,Catalan,Sounds/cat_nas.mp3,11399,001,2020-06-25_12h00.13.786,TranslationElicitation_eng-sona,3.2.4,Win32,60,,1,0,81,51,1,80
,,,,,,,,,,,,,,,,,,,,,,,,,,,,,,,,,,,,,,,,,,e,2.900000095,NOSE,FALSE,,,,,,,158,nas,Catalan,Sounds/cat_nas.mp3,11399,001,2020-06-25_12h00.13.786,TranslationElicitation_eng-sona,3.2.4,Win32,60,,1,0,81,51,1,80
,,,,,,,,,,,,,,,,,,,,,,,,,,,,,,,,,,,,,,,,,,return,3.416000128,NOSE,FALSE,,,,,,,158,nas,Catalan,Sounds/cat_nas.mp3,11399,001,2020-06-25_12h00.13.786,TranslationElicitation_eng-sona,3.2.4,Win32,60,3.416000128,1,0,81,51,1,80
,,,,,,,,,,,,,,,,,,,,,,,,,,,,,,,,,,,,,,,,,,,,,,,,,,,,158,nas,Catalan,Sounds/cat_nas.mp3,11399,001,2020-06-25_12h00.13.786,TranslationElicitation_eng-sona,3.2.4,Win32,60,,1,0,81,51,1,80
,,,,,,,,,,,,,,,,,,,,,,,,,,,,,,,,,,,,,,,,,,m,2.266000032,M,FALSE,,,,,,,120,cama,Catalan,Sounds/cat_cama.mp3,11399,001,2020-06-25_12h00.13.786,TranslationElicitation_eng-sona,3.2.4,Win32,60,,1,0,81,15,1,80
