consentKey.keys,consentKey.rt,languageL1Key.keys,languageL1Key.rt,languageL2,languageL2OralKey.keys,languageL2OralKey.rt,languageL2WrittenKey.keys,languageL2WrittenKey.rt,languageL3OralKey.keys,languageL3OralKey.rt,languageL3WrittenKey.keys,languageL3WrittenKey.rt,languageCatalanOralKey.keys,languageCatalanOralKey.rt,languageCatalanWrittenKey.keys,languageCatalanWrittenKey.rt,languageCatalanTimeKey.keys,languageCatalanTimeKey.rt,age,demoSexKey.keys,demoSexKey.rt,demoEducationKey.keys,demoEducationKey.rt,city,demoVisionKey.keys,demoVisionKey.rt,demoLanguageKey.keys,demoLanguageKey.rt,setupLocationKey.keys,setupLocationKey.rt,setupNoiseKey.keys,setupNoiseKey.rt,instructionsKeys.keys,instructionsKeys.rt,keyPressed,keyPressTime,inputText,error,trials_practice.thisRepN,trials_practice.thisTrialN,trials_practice.thisN,trials_practice.thisIndex,trials_practice.ran,trials_practice.order,trial_id,word,test_language,soundfile,date,expName,psychopyVersion,OS,frameRate,participant,trialOffset,trials.thisRepN,trials.thisTrialN,trials.thisN,trials.thisIndex,trials.ran,trials.order
space,2.08100009,e,5.102000237,,4,14.4380002,3,6.955000162,,,,,1,8.331000328,1,5.257000208,1,9.019000053,33,m,3.08100009,4,13.16300011,SANTANDER,n,5.846000195,n,5.988000154,1,5.96600008,2,9.974000216,space,26.38600016,u,1.609999895,U,FALSE,1,0,5,2,1,4,159,onada,Catalan,Sounds/cat_onada.mp3,2020-06-22_11h06.37.843,TranslationElicitation_spa,3.2.4,Win32,60,55334jfdklgneroijnrpo3994493,,,,,,,
,,,,,,,,,,,,,,,,,,,,,,,,,,,,,,,,,,,n,1.808000088,UN,FALSE,1,0,5,2,1,4,159,onada,Catalan,Sounds/cat_onada.mp3,2020-06-22_11h06.37.843,TranslationElicitation_spa,3.2.4,Win32,60,55334jfdklgneroijnrpo3994493,,,,,,,
,,,,,,,,,,,,,,,,,,,,,,,,,,,,,,,,,,,a,1.957999945,UNA,FALSE,1,0,5,2,1,4,159,onada,Catalan,Sounds/cat_onada.mp3,2020-06-22_11h06.37.843,TranslationElicitation_spa,3.2.4,Win32,60,55334jfdklgneroijnrpo3994493,,,,,,,
,,,,,,,,,,,,,,,,,,,,,,,,,,,,,,,,,,,return,2.690000057,,FALSE,1,0,5,2,1,4,159,onada,Catalan,Sounds/cat_onada.mp3,2020-06-22_11h06.37.843,TranslationElicitation_spa,3.2.4,Win32,60,55334jfdklgneroijnrpo3994493,2.690000057,,,,,,
,,,,,,,,,,,,,,,,,,,,,,,,,,,,,,,,,,,,,,,1,0,5,2,1,4,159,onada,Catalan,Sounds/cat_onada.mp3,2020-06-22_11h06.37.843,TranslationElicitation_spa,3.2.4,Win32,60,55334jfdklgneroijnrpo3994493,,,,,,,
,,,,,,,,,,,,,,,,,,,,,,,,,,,,,,,,,,,a,2.09800005,A,FALSE,1,0,5,0,1,4,109,arbre,Catalan,Sounds/cat_arbre.mp3,2020-06-22_11h06.37.843,TranslationElicitation_spa,3.2.4,Win32,60,55334jfdklgneroijnrpo3994493,,,,,,,
,,,,,,,,,,,,,,,,,,,,,,,,,,,,,,,,,,,r,2.730999947,AR,FALSE,1,0,5,0,1,4,109,arbre,Catalan,Sounds/cat_arbre.mp3,2020-06-22_11h06.37.843,TranslationElicitation_spa,3.2.4,Win32,60,55334jfdklgneroijnrpo3994493,,,,,,,
,,,,,,,,,,,,,,,,,,,,,,,,,,,,,,,,,,,b,2.897000074,ARB,FALSE,1,0,5,0,1,4,109,arbre,Catalan,Sounds/cat_arbre.mp3,2020-06-22_11h06.37.843,TranslationElicitation_spa,3.2.4,Win32,60,55334jfdklgneroijnrpo3994493,,,,,,,
,,,,,,,,,,,,,,,,,,,,,,,,,,,,,,,,,,,o,3.131000042,ARBO,FALSE,1,0,5,0,1,4,109,arbre,Catalan,Sounds/cat_arbre.mp3,2020-06-22_11h06.37.843,TranslationElicitation_spa,3.2.4,Win32,60,55334jfdklgneroijnrpo3994493,,,,,,,
,,,,,,,,,,,,,,,,,,,,,,,,,,,,,,,,,,,l,3.697000027,ARBOL,FALSE,1,0,5,0,1,4,109,arbre,Catalan,Sounds/cat_arbre.mp3,2020-06-22_11h06.37.843,TranslationElicitation_spa,3.2.4,Win32,60,55334jfdklgneroijnrpo3994493,,,,,,,
,,,,,,,,,,,,,,,,,,,,,,,,,,,,,,,,,,,space,4.931999922,ARBOL ,FALSE,1,0,5,0,1,4,109,arbre,Catalan,Sounds/cat_arbre.mp3,2020-06-22_11h06.37.843,TranslationElicitation_spa,3.2.4,Win32,60,55334jfdklgneroijnrpo3994493,,,,,,,
,,,,,,,,,,,,,,,,,,,,,,,,,,,,,,,,,,,return,5.664999962,,FALSE,1,0,5,0,1,4,109,arbre,Catalan,Sounds/cat_arbre.mp3,2020-06-22_11h06.37.843,TranslationElicitation_spa,3.2.4,Win32,60,55334jfdklgneroijnrpo3994493,5.664999962,,,,,,
,,,,,,,,,,,,,,,,,,,,,,,,,,,,,,,,,,,,,,,1,0,5,0,1,4,109,arbre,Catalan,Sounds/cat_arbre.mp3,2020-06-22_11h06.37.843,TranslationElicitation_spa,3.2.4,Win32,60,55334jfdklgneroijnrpo3994493,,,,,,,
,,,,,,,,,,,,,,,,,,,,,,,,,,,,,,,,,,,c,2.275000095,C,FALSE,1,0,5,1,1,4,147,jaqueta,Catalan,Sounds/cat_jaqueta.mp3,2020-06-22_11h06.37.843,TranslationElicitation_spa,3.2.4,Win32,60,55334jfdklgneroijnrpo3994493,,,,,,,
,,,,,,,,,,,,,,,,,,,,,,,,,,,,,,,,,,,h,2.440000057,CH,FALSE,1,0,5,1,1,4,147,jaqueta,Catalan,Sounds/cat_jaqueta.mp3,2020-06-22_11h06.37.843,TranslationElicitation_spa,3.2.4,Win32,60,55334jfdklgneroijnrpo3994493,,,,,,,
,,,,,,,,,,,,,,,,,,,,,,,,,,,,,,,,,,,a,2.607000113,CHA,FALSE,1,0,5,1,1,4,147,jaqueta,Catalan,Sounds/cat_jaqueta.mp3,2020-06-22_11h06.37.843,TranslationElicitation_spa,3.2.4,Win32,60,55334jfdklgneroijnrpo3994493,,,,,,,
,,,,,,,,,,,,,,,,,,,,,,,,,,,,,,,,,,,q,2.84100008,CHAQ,FALSE,1,0,5,1,1,4,147,jaqueta,Catalan,Sounds/cat_jaqueta.mp3,2020-06-22_11h06.37.843,TranslationElicitation_spa,3.2.4,Win32,60,55334jfdklgneroijnrpo3994493,,,,,,,
,,,,,,,,,,,,,,,,,,,,,,,,,,,,,,,,,,,u,2.947999954,CHAQU,FALSE,1,0,5,1,1,4,147,jaqueta,Catalan,Sounds/cat_jaqueta.mp3,2020-06-22_11h06.37.843,TranslationElicitation_spa,3.2.4,Win32,60,55334jfdklgneroijnrpo3994493,,,,,,,
,,,,,,,,,,,,,,,,,,,,,,,,,,,,,,,,,,,e,3.072999954,CHAQUE,FALSE,1,0,5,1,1,4,147,jaqueta,Catalan,Sounds/cat_jaqueta.mp3,2020-06-22_11h06.37.843,TranslationElicitation_spa,3.2.4,Win32,60,55334jfdklgneroijnrpo3994493,,,,,,,
,,,,,,,,,,,,,,,,,,,,,,,,,,,,,,,,,,,t,3.773000002,CHAQUET,FALSE,1,0,5,1,1,4,147,jaqueta,Catalan,Sounds/cat_jaqueta.mp3,2020-06-22_11h06.37.843,TranslationElicitation_spa,3.2.4,Win32,60,55334jfdklgneroijnrpo3994493,,,,,,,
,,,,,,,,,,,,,,,,,,,,,,,,,,,,,,,,,,,a,3.891000032,CHAQUETA,FALSE,1,0,5,1,1,4,147,jaqueta,Catalan,Sounds/cat_jaqueta.mp3,2020-06-22_11h06.37.843,TranslationElicitation_spa,3.2.4,Win32,60,55334jfdklgneroijnrpo3994493,,,,,,,
,,,,,,,,,,,,,,,,,,,,,,,,,,,,,,,,,,,return,4.240999937,,FALSE,1,0,5,1,1,4,147,jaqueta,Catalan,Sounds/cat_jaqueta.mp3,2020-06-22_11h06.37.843,TranslationElicitation_spa,3.2.4,Win32,60,55334jfdklgneroijnrpo3994493,4.240999937,,,,,,
,,,,,,,,,,,,,,,,,,,,,,,,,,,,,,,,,,,,,,,1,0,5,1,1,4,147,jaqueta,Catalan,Sounds/cat_jaqueta.mp3,2020-06-22_11h06.37.843,TranslationElicitation_spa,3.2.4,Win32,60,55334jfdklgneroijnrpo3994493,,,,,,,
,,,,,,,,,,,,,,,,,,,,,,,,,,,,,,,,,,,t,1.532999992,T,FALSE,1,0,5,4,1,4,179,tigre,Catalan,Sounds/cat_tigre.mp3,2020-06-22_11h06.37.843,TranslationElicitation_spa,3.2.4,Win32,60,55334jfdklgneroijnrpo3994493,,,,,,,
,,,,,,,,,,,,,,,,,,,,,,,,,,,,,,,,,,,i,1.683000088,TI,FALSE,1,0,5,4,1,4,179,tigre,Catalan,Sounds/cat_tigre.mp3,2020-06-22_11h06.37.843,TranslationElicitation_spa,3.2.4,Win32,60,55334jfdklgneroijnrpo3994493,,,,,,,
,,,,,,,,,,,,,,,,,,,,,,,,,,,,,,,,,,,g,1.950000048,TIG,FALSE,1,0,5,4,1,4,179,tigre,Catalan,Sounds/cat_tigre.mp3,2020-06-22_11h06.37.843,TranslationElicitation_spa,3.2.4,Win32,60,55334jfdklgneroijnrpo3994493,,,,,,,
,,,,,,,,,,,,,,,,,,,,,,,,,,,,,,,,,,,r,2.131000042,TIGR,FALSE,1,0,5,4,1,4,179,tigre,Catalan,Sounds/cat_tigre.mp3,2020-06-22_11h06.37.843,TranslationElicitation_spa,3.2.4,Win32,60,55334jfdklgneroijnrpo3994493,,,,,,,
,,,,,,,,,,,,,,,,,,,,,,,,,,,,,,,,,,,e,2.315000057,TIGRE,FALSE,1,0,5,4,1,4,179,tigre,Catalan,Sounds/cat_tigre.mp3,2020-06-22_11h06.37.843,TranslationElicitation_spa,3.2.4,Win32,60,55334jfdklgneroijnrpo3994493,,,,,,,
,,,,,,,,,,,,,,,,,,,,,,,,,,,,,,,,,,,return,2.71600008,,FALSE,1,0,5,4,1,4,179,tigre,Catalan,Sounds/cat_tigre.mp3,2020-06-22_11h06.37.843,TranslationElicitation_spa,3.2.4,Win32,60,55334jfdklgneroijnrpo3994493,2.71600008,,,,,,
,,,,,,,,,,,,,,,,,,,,,,,,,,,,,,,,,,,,,,,1,0,5,4,1,4,179,tigre,Catalan,Sounds/cat_tigre.mp3,2020-06-22_11h06.37.843,TranslationElicitation_spa,3.2.4,Win32,60,55334jfdklgneroijnrpo3994493,,,,,,,
,,,,,,,,,,,,,,,,,,,,,,,,,,,,,,,,,,,n,1.565999985,N,FALSE,1,0,5,3,1,4,167,pingui,Catalan,Sounds/cat_pingui.mp3,2020-06-22_11h06.37.843,TranslationElicitation_spa,3.2.4,Win32,60,55334jfdklgneroijnrpo3994493,,,,,,,
,,,,,,,,,,,,,,,,,,,,,,,,,,,,,,,,,,,g,1.982000113,NG,FALSE,1,0,5,3,1,4,167,pingui,Catalan,Sounds/cat_pingui.mp3,2020-06-22_11h06.37.843,TranslationElicitation_spa,3.2.4,Win32,60,55334jfdklgneroijnrpo3994493,,,,,,,
,,,,,,,,,,,,,,,,,,,,,,,,,,,,,,,,,,,u,2.115999937,NGU,FALSE,1,0,5,3,1,4,167,pingui,Catalan,Sounds/cat_pingui.mp3,2020-06-22_11h06.37.843,TranslationElicitation_spa,3.2.4,Win32,60,55334jfdklgneroijnrpo3994493,,,,,,,
,,,,,,,,,,,,,,,,,,,,,,,,,,,,,,,,,,,i,2.348999977,NGUI,FALSE,1,0,5,3,1,4,167,pingui,Catalan,Sounds/cat_pingui.mp3,2020-06-22_11h06.37.843,TranslationElicitation_spa,3.2.4,Win32,60,55334jfdklgneroijnrpo3994493,,,,,,,
,,,,,,,,,,,,,,,,,,,,,,,,,,,,,,,,,,,n,2.964999914,NGUIN,FALSE,1,0,5,3,1,4,167,pingui,Catalan,Sounds/cat_pingui.mp3,2020-06-22_11h06.37.843,TranslationElicitation_spa,3.2.4,Win32,60,55334jfdklgneroijnrpo3994493,,,,,,,
,,,,,,,,,,,,,,,,,,,,,,,,,,,,,,,,,,,backspace,3.349999905,NGU,TRUE,1,0,5,3,1,4,167,pingui,Catalan,Sounds/cat_pingui.mp3,2020-06-22_11h06.37.843,TranslationElicitation_spa,3.2.4,Win32,60,55334jfdklgneroijnrpo3994493,,,,,,,
,,,,,,,,,,,,,,,,,,,,,,,,,,,,,,,,,,,backspace,3.599999905,N,TRUE,1,0,5,3,1,4,167,pingui,Catalan,Sounds/cat_pingui.mp3,2020-06-22_11h06.37.843,TranslationElicitation_spa,3.2.4,Win32,60,55334jfdklgneroijnrpo3994493,,,,,,,
,,,,,,,,,,,,,,,,,,,,,,,,,,,,,,,,,,,backspace,3.631999969,,TRUE,1,0,5,3,1,4,167,pingui,Catalan,Sounds/cat_pingui.mp3,2020-06-22_11h06.37.843,TranslationElicitation_spa,3.2.4,Win32,60,55334jfdklgneroijnrpo3994493,,,,,,,
,,,,,,,,,,,,,,,,,,,,,,,,,,,,,,,,,,,backspace,3.664999962,,TRUE,1,0,5,3,1,4,167,pingui,Catalan,Sounds/cat_pingui.mp3,2020-06-22_11h06.37.843,TranslationElicitation_spa,3.2.4,Win32,60,55334jfdklgneroijnrpo3994493,,,,,,,
,,,,,,,,,,,,,,,,,,,,,,,,,,,,,,,,,,,backspace,3.815000057,,TRUE,1,0,5,3,1,4,167,pingui,Catalan,Sounds/cat_pingui.mp3,2020-06-22_11h06.37.843,TranslationElicitation_spa,3.2.4,Win32,60,55334jfdklgneroijnrpo3994493,,,,,,,
,,,,,,,,,,,,,,,,,,,,,,,,,,,,,,,,,,,p,4.249000072,P,TRUE,1,0,5,3,1,4,167,pingui,Catalan,Sounds/cat_pingui.mp3,2020-06-22_11h06.37.843,TranslationElicitation_spa,3.2.4,Win32,60,55334jfdklgneroijnrpo3994493,,,,,,,
,,,,,,,,,,,,,,,,,,,,,,,,,,,,,,,,,,,i,4.565999985,PI,TRUE,1,0,5,3,1,4,167,pingui,Catalan,Sounds/cat_pingui.mp3,2020-06-22_11h06.37.843,TranslationElicitation_spa,3.2.4,Win32,60,55334jfdklgneroijnrpo3994493,,,,,,,
,,,,,,,,,,,,,,,,,,,,,,,,,,,,,,,,,,,n,4.75,PIN,TRUE,1,0,5,3,1,4,167,pingui,Catalan,Sounds/cat_pingui.mp3,2020-06-22_11h06.37.843,TranslationElicitation_spa,3.2.4,Win32,60,55334jfdklgneroijnrpo3994493,,,,,,,
,,,,,,,,,,,,,,,,,,,,,,,,,,,,,,,,,,,g,5.236000061,PING,TRUE,1,0,5,3,1,4,167,pingui,Catalan,Sounds/cat_pingui.mp3,2020-06-22_11h06.37.843,TranslationElicitation_spa,3.2.4,Win32,60,55334jfdklgneroijnrpo3994493,,,,,,,
,,,,,,,,,,,,,,,,,,,,,,,,,,,,,,,,,,,u,5.400000095,PINGU,TRUE,1,0,5,3,1,4,167,pingui,Catalan,Sounds/cat_pingui.mp3,2020-06-22_11h06.37.843,TranslationElicitation_spa,3.2.4,Win32,60,55334jfdklgneroijnrpo3994493,,,,,,,
,,,,,,,,,,,,,,,,,,,,,,,,,,,,,,,,,,,i,5.617000103,PINGUI,TRUE,1,0,5,3,1,4,167,pingui,Catalan,Sounds/cat_pingui.mp3,2020-06-22_11h06.37.843,TranslationElicitation_spa,3.2.4,Win32,60,55334jfdklgneroijnrpo3994493,,,,,,,
,,,,,,,,,,,,,,,,,,,,,,,,,,,,,,,,,,,n,6.299000025,PINGUIN,TRUE,1,0,5,3,1,4,167,pingui,Catalan,Sounds/cat_pingui.mp3,2020-06-22_11h06.37.843,TranslationElicitation_spa,3.2.4,Win32,60,55334jfdklgneroijnrpo3994493,,,,,,,
,,,,,,,,,,,,,,,,,,,,,,,,,,,,,,,,,,,o,6.48300004,PINGUINO,TRUE,1,0,5,3,1,4,167,pingui,Catalan,Sounds/cat_pingui.mp3,2020-06-22_11h06.37.843,TranslationElicitation_spa,3.2.4,Win32,60,55334jfdklgneroijnrpo3994493,,,,,,,
,,,,,,,,,,,,,,,,,,,,,,,,,,,,,,,,,,,return,6.816999912,,TRUE,1,0,5,3,1,4,167,pingui,Catalan,Sounds/cat_pingui.mp3,2020-06-22_11h06.37.843,TranslationElicitation_spa,3.2.4,Win32,60,55334jfdklgneroijnrpo3994493,6.816999912,,,,,,
,,,,,,,,,,,,,,,,,,,,,,,,,,,,,,,,,,,,,,,1,0,5,3,1,4,167,pingui,Catalan,Sounds/cat_pingui.mp3,2020-06-22_11h06.37.843,TranslationElicitation_spa,3.2.4,Win32,60,55334jfdklgneroijnrpo3994493,,,,,,,
,,,,,,,,,,,,,,,,,,,,,,,,,,,,,,,,,,,m,3.312000036,M,FALSE,,,,,,,154,mirall,Catalan,Sounds/cat_mirall.mp3,2020-06-22_11h06.37.843,TranslationElicitation_spa,3.2.4,Win32,60,55334jfdklgneroijnrpo3994493,,1,0,80,48,1,79
,,,,,,,,,,,,,,,,,,,,,,,,,,,,,,,,,,,u,3.511000156,MU,FALSE,,,,,,,154,mirall,Catalan,Sounds/cat_mirall.mp3,2020-06-22_11h06.37.843,TranslationElicitation_spa,3.2.4,Win32,60,55334jfdklgneroijnrpo3994493,,1,0,80,48,1,79
,,,,,,,,,,,,,,,,,,,,,,,,,,,,,,,,,,,r,3.745000124,MUR,FALSE,,,,,,,154,mirall,Catalan,Sounds/cat_mirall.mp3,2020-06-22_11h06.37.843,TranslationElicitation_spa,3.2.4,Win32,60,55334jfdklgneroijnrpo3994493,,1,0,80,48,1,79
,,,,,,,,,,,,,,,,,,,,,,,,,,,,,,,,,,,a,3.996000051,MURA,FALSE,,,,,,,154,mirall,Catalan,Sounds/cat_mirall.mp3,2020-06-22_11h06.37.843,TranslationElicitation_spa,3.2.4,Win32,60,55334jfdklgneroijnrpo3994493,,1,0,80,48,1,79
,,,,,,,,,,,,,,,,,,,,,,,,,,,,,,,,,,,l,4.145000219,MURAL,FALSE,,,,,,,154,mirall,Catalan,Sounds/cat_mirall.mp3,2020-06-22_11h06.37.843,TranslationElicitation_spa,3.2.4,Win32,60,55334jfdklgneroijnrpo3994493,,1,0,80,48,1,79
,,,,,,,,,,,,,,,,,,,,,,,,,,,,,,,,,,,return,4.996000051,,FALSE,,,,,,,154,mirall,Catalan,Sounds/cat_mirall.mp3,2020-06-22_11h06.37.843,TranslationElicitation_spa,3.2.4,Win32,60,55334jfdklgneroijnrpo3994493,4.996000051,1,0,80,48,1,79
,,,,,,,,,,,,,,,,,,,,,,,,,,,,,,,,,,,,,,,,,,,,,154,mirall,Catalan,Sounds/cat_mirall.mp3,2020-06-22_11h06.37.843,TranslationElicitation_spa,3.2.4,Win32,60,55334jfdklgneroijnrpo3994493,,1,0,80,48,1,79
,,,,,,,,,,,,,,,,,,,,,,,,,,,,,,,,,,,a,1.516000032,A,FALSE,,,,,,,123,cavall,Catalan,Sounds/cat_cavall.mp3,2020-06-22_11h06.37.843,TranslationElicitation_spa,3.2.4,Win32,60,55334jfdklgneroijnrpo3994493,,1,0,80,18,1,79
,,,,,,,,,,,,,,,,,,,,,,,,,,,,,,,,,,,b,1.684000015,AB,FALSE,,,,,,,123,cavall,Catalan,Sounds/cat_cavall.mp3,2020-06-22_11h06.37.843,TranslationElicitation_spa,3.2.4,Win32,60,55334jfdklgneroijnrpo3994493,,1,0,80,18,1,79
,,,,,,,,,,,,,,,,,,,,,,,,,,,,,,,,,,,e,1.848999977,ABE,FALSE,,,,,,,123,cavall,Catalan,Sounds/cat_cavall.mp3,2020-06-22_11h06.37.843,TranslationElicitation_spa,3.2.4,Win32,60,55334jfdklgneroijnrpo3994493,,1,0,80,18,1,79
,,,,,,,,,,,,,,,,,,,,,,,,,,,,,,,,,,,backspace,2.23300004,A,TRUE,,,,,,,123,cavall,Catalan,Sounds/cat_cavall.mp3,2020-06-22_11h06.37.843,TranslationElicitation_spa,3.2.4,Win32,60,55334jfdklgneroijnrpo3994493,,1,0,80,18,1,79
,,,,,,,,,,,,,,,,,,,,,,,,,,,,,,,,,,,backspace,2.483999968,,TRUE,,,,,,,123,cavall,Catalan,Sounds/cat_cavall.mp3,2020-06-22_11h06.37.843,TranslationElicitation_spa,3.2.4,Win32,60,55334jfdklgneroijnrpo3994493,,1,0,80,18,1,79
,,,,,,,,,,,,,,,,,,,,,,,,,,,,,,,,,,,backspace,2.617000103,,TRUE,,,,,,,123,cavall,Catalan,Sounds/cat_cavall.mp3,2020-06-22_11h06.37.843,TranslationElicitation_spa,3.2.4,Win32,60,55334jfdklgneroijnrpo3994493,,1,0,80,18,1,79
,,,,,,,,,,,,,,,,,,,,,,,,,,,,,,,,,,,backspace,2.768000126,,TRUE,,,,,,,123,cavall,Catalan,Sounds/cat_cavall.mp3,2020-06-22_11h06.37.843,TranslationElicitation_spa,3.2.4,Win32,60,55334jfdklgneroijnrpo3994493,,1,0,80,18,1,79
,,,,,,,,,,,,,,,,,,,,,,,,,,,,,,,,,,,c,3.035000086,C,TRUE,,,,,,,123,cavall,Catalan,Sounds/cat_cavall.mp3,2020-06-22_11h06.37.843,TranslationElicitation_spa,3.2.4,Win32,60,55334jfdklgneroijnrpo3994493,,1,0,80,18,1,79
,,,,,,,,,,,,,,,,,,,,,,,,,,,,,,,,,,,a,3.317000151,CA,TRUE,,,,,,,123,cavall,Catalan,Sounds/cat_cavall.mp3,2020-06-22_11h06.37.843,TranslationElicitation_spa,3.2.4,Win32,60,55334jfdklgneroijnrpo3994493,,1,0,80,18,1,79
,,,,,,,,,,,,,,,,,,,,,,,,,,,,,,,,,,,b,3.433000088,CAB,TRUE,,,,,,,123,cavall,Catalan,Sounds/cat_cavall.mp3,2020-06-22_11h06.37.843,TranslationElicitation_spa,3.2.4,Win32,60,55334jfdklgneroijnrpo3994493,,1,0,80,18,1,79
,,,,,,,,,,,,,,,,,,,,,,,,,,,,,,,,,,,a,3.650000095,CABA,TRUE,,,,,,,123,cavall,Catalan,Sounds/cat_cavall.mp3,2020-06-22_11h06.37.843,TranslationElicitation_spa,3.2.4,Win32,60,55334jfdklgneroijnrpo3994493,,1,0,80,18,1,79
,,,,,,,,,,,,,,,,,,,,,,,,,,,,,,,,,,,l,3.834000111,CABAL,TRUE,,,,,,,123,cavall,Catalan,Sounds/cat_cavall.mp3,2020-06-22_11h06.37.843,TranslationElicitation_spa,3.2.4,Win32,60,55334jfdklgneroijnrpo3994493,,1,0,80,18,1,79
,,,,,,,,,,,,,,,,,,,,,,,,,,,,,,,,,,,l,4.034000158,CABALL,TRUE,,,,,,,123,cavall,Catalan,Sounds/cat_cavall.mp3,2020-06-22_11h06.37.843,TranslationElicitation_spa,3.2.4,Win32,60,55334jfdklgneroijnrpo3994493,,1,0,80,18,1,79
,,,,,,,,,,,,,,,,,,,,,,,,,,,,,,,,,,,o,4.21600008,CABALLO,TRUE,,,,,,,123,cavall,Catalan,Sounds/cat_cavall.mp3,2020-06-22_11h06.37.843,TranslationElicitation_spa,3.2.4,Win32,60,55334jfdklgneroijnrpo3994493,,1,0,80,18,1,79
,,,,,,,,,,,,,,,,,,,,,,,,,,,,,,,,,,,return,4.717000008,,TRUE,,,,,,,123,cavall,Catalan,Sounds/cat_cavall.mp3,2020-06-22_11h06.37.843,TranslationElicitation_spa,3.2.4,Win32,60,55334jfdklgneroijnrpo3994493,4.717000008,1,0,80,18,1,79
,,,,,,,,,,,,,,,,,,,,,,,,,,,,,,,,,,,,,,,,,,,,,123,cavall,Catalan,Sounds/cat_cavall.mp3,2020-06-22_11h06.37.843,TranslationElicitation_spa,3.2.4,Win32,60,55334jfdklgneroijnrpo3994493,,1,0,80,18,1,79
,,,,,,,,,,,,,,,,,,,,,,,,,,,,,,,,,,,b,2.213999987,B,FALSE,,,,,,,112,bici,Catalan,Sounds/cat_bici.mp3,2020-06-22_11h06.37.843,TranslationElicitation_spa,3.2.4,Win32,60,55334jfdklgneroijnrpo3994493,,1,0,80,7,1,79
,,,,,,,,,,,,,,,,,,,,,,,,,,,,,,,,,,,i,2.380000114,BI,FALSE,,,,,,,112,bici,Catalan,Sounds/cat_bici.mp3,2020-06-22_11h06.37.843,TranslationElicitation_spa,3.2.4,Win32,60,55334jfdklgneroijnrpo3994493,,1,0,80,7,1,79
,,,,,,,,,,,,,,,,,,,,,,,,,,,,,,,,,,,c,2.514000177,BIC,FALSE,,,,,,,112,bici,Catalan,Sounds/cat_bici.mp3,2020-06-22_11h06.37.843,TranslationElicitation_spa,3.2.4,Win32,60,55334jfdklgneroijnrpo3994493,,1,0,80,7,1,79
,,,,,,,,,,,,,,,,,,,,,,,,,,,,,,,,,,,i,2.696000099,BICI,FALSE,,,,,,,112,bici,Catalan,Sounds/cat_bici.mp3,2020-06-22_11h06.37.843,TranslationElicitation_spa,3.2.4,Win32,60,55334jfdklgneroijnrpo3994493,,1,0,80,7,1,79
,,,,,,,,,,,,,,,,,,,,,,,,,,,,,,,,,,,c,2.998000145,BICIC,FALSE,,,,,,,112,bici,Catalan,Sounds/cat_bici.mp3,2020-06-22_11h06.37.843,TranslationElicitation_spa,3.2.4,Win32,60,55334jfdklgneroijnrpo3994493,,1,0,80,7,1,79
,,,,,,,,,,,,,,,,,,,,,,,,,,,,,,,,,,,l,3.148000002,BICICL,FALSE,,,,,,,112,bici,Catalan,Sounds/cat_bici.mp3,2020-06-22_11h06.37.843,TranslationElicitation_spa,3.2.4,Win32,60,55334jfdklgneroijnrpo3994493,,1,0,80,7,1,79
,,,,,,,,,,,,,,,,,,,,,,,,,,,,,,,,,,,e,3.381000042,BICICLE,FALSE,,,,,,,112,bici,Catalan,Sounds/cat_bici.mp3,2020-06-22_11h06.37.843,TranslationElicitation_spa,3.2.4,Win32,60,55334jfdklgneroijnrpo3994493,,1,0,80,7,1,79
,,,,,,,,,,,,,,,,,,,,,,,,,,,,,,,,,,,t,3.649000168,BICICLET,FALSE,,,,,,,112,bici,Catalan,Sounds/cat_bici.mp3,2020-06-22_11h06.37.843,TranslationElicitation_spa,3.2.4,Win32,60,55334jfdklgneroijnrpo3994493,,1,0,80,7,1,79
,,,,,,,,,,,,,,,,,,,,,,,,,,,,,,,,,,,a,3.796000004,BICICLETA,FALSE,,,,,,,112,bici,Catalan,Sounds/cat_bici.mp3,2020-06-22_11h06.37.843,TranslationElicitation_spa,3.2.4,Win32,60,55334jfdklgneroijnrpo3994493,,1,0,80,7,1,79
,,,,,,,,,,,,,,,,,,,,,,,,,,,,,,,,,,,return,7.116000175,,FALSE,,,,,,,112,bici,Catalan,Sounds/cat_bici.mp3,2020-06-22_11h06.37.843,TranslationElicitation_spa,3.2.4,Win32,60,55334jfdklgneroijnrpo3994493,7.116000175,1,0,80,7,1,79
,,,,,,,,,,,,,,,,,,,,,,,,,,,,,,,,,,,,,,,,,,,,,112,bici,Catalan,Sounds/cat_bici.mp3,2020-06-22_11h06.37.843,TranslationElicitation_spa,3.2.4,Win32,60,55334jfdklgneroijnrpo3994493,,1,0,80,7,1,79
,,,,,,,,,,,,,,,,,,,,,,,,,,,,,,,,,,,b,3.977999926,B,FALSE,,,,,,,117,boto,Catalan,Sounds/cat_boto.mp3,2020-06-22_11h06.37.843,TranslationElicitation_spa,3.2.4,Win32,60,55334jfdklgneroijnrpo3994493,,1,0,80,12,1,79
,,,,,,,,,,,,,,,,,,,,,,,,,,,,,,,,,,,o,4.195999861,BO,FALSE,,,,,,,117,boto,Catalan,Sounds/cat_boto.mp3,2020-06-22_11h06.37.843,TranslationElicitation_spa,3.2.4,Win32,60,55334jfdklgneroijnrpo3994493,,1,0,80,12,1,79
,,,,,,,,,,,,,,,,,,,,,,,,,,,,,,,,,,,t,4.361999989,BOT,FALSE,,,,,,,117,boto,Catalan,Sounds/cat_boto.mp3,2020-06-22_11h06.37.843,TranslationElicitation_spa,3.2.4,Win32,60,55334jfdklgneroijnrpo3994493,,1,0,80,12,1,79
,,,,,,,,,,,,,,,,,,,,,,,,,,,,,,,,,,,o,5.111999989,BOTO,FALSE,,,,,,,117,boto,Catalan,Sounds/cat_boto.mp3,2020-06-22_11h06.37.843,TranslationElicitation_spa,3.2.4,Win32,60,55334jfdklgneroijnrpo3994493,,1,0,80,12,1,79
,,,,,,,,,,,,,,,,,,,,,,,,,,,,,,,,,,,n,5.31099987,BOTON,FALSE,,,,,,,117,boto,Catalan,Sounds/cat_boto.mp3,2020-06-22_11h06.37.843,TranslationElicitation_spa,3.2.4,Win32,60,55334jfdklgneroijnrpo3994493,,1,0,80,12,1,79
,,,,,,,,,,,,,,,,,,,,,,,,,,,,,,,,,,,return,5.930000067,,FALSE,,,,,,,117,boto,Catalan,Sounds/cat_boto.mp3,2020-06-22_11h06.37.843,TranslationElicitation_spa,3.2.4,Win32,60,55334jfdklgneroijnrpo3994493,5.930000067,1,0,80,12,1,79
,,,,,,,,,,,,,,,,,,,,,,,,,,,,,,,,,,,,,,,,,,,,,117,boto,Catalan,Sounds/cat_boto.mp3,2020-06-22_11h06.37.843,TranslationElicitation_spa,3.2.4,Win32,60,55334jfdklgneroijnrpo3994493,,1,0,80,12,1,79
,,,,,,,,,,,,,,,,,,,,,,,,,,,,,,,,,,,o,2.032000065,O,FALSE,,,,,,,177,sol,Catalan,Sounds/cat_sol.mp3,2020-06-22_11h06.37.843,TranslationElicitation_spa,3.2.4,Win32,60,55334jfdklgneroijnrpo3994493,,1,0,80,69,1,79
,,,,,,,,,,,,,,,,,,,,,,,,,,,,,,,,,,,backspace,2.514999866,,TRUE,,,,,,,177,sol,Catalan,Sounds/cat_sol.mp3,2020-06-22_11h06.37.843,TranslationElicitation_spa,3.2.4,Win32,60,55334jfdklgneroijnrpo3994493,,1,0,80,69,1,79
,,,,,,,,,,,,,,,,,,,,,,,,,,,,,,,,,,,backspace,2.698999882,,TRUE,,,,,,,177,sol,Catalan,Sounds/cat_sol.mp3,2020-06-22_11h06.37.843,TranslationElicitation_spa,3.2.4,Win32,60,55334jfdklgneroijnrpo3994493,,1,0,80,69,1,79
,,,,,,,,,,,,,,,,,,,,,,,,,,,,,,,,,,,s,2.86500001,S,TRUE,,,,,,,177,sol,Catalan,Sounds/cat_sol.mp3,2020-06-22_11h06.37.843,TranslationElicitation_spa,3.2.4,Win32,60,55334jfdklgneroijnrpo3994493,,1,0,80,69,1,79
,,,,,,,,,,,,,,,,,,,,,,,,,,,,,,,,,,,o,2.981999874,SO,TRUE,,,,,,,177,sol,Catalan,Sounds/cat_sol.mp3,2020-06-22_11h06.37.843,TranslationElicitation_spa,3.2.4,Win32,60,55334jfdklgneroijnrpo3994493,,1,0,80,69,1,79
,,,,,,,,,,,,,,,,,,,,,,,,,,,,,,,,,,,l,3.231999874,SOL,TRUE,,,,,,,177,sol,Catalan,Sounds/cat_sol.mp3,2020-06-22_11h06.37.843,TranslationElicitation_spa,3.2.4,Win32,60,55334jfdklgneroijnrpo3994493,,1,0,80,69,1,79
,,,,,,,,,,,,,,,,,,,,,,,,,,,,,,,,,,,return,3.747999907,,TRUE,,,,,,,177,sol,Catalan,Sounds/cat_sol.mp3,2020-06-22_11h06.37.843,TranslationElicitation_spa,3.2.4,Win32,60,55334jfdklgneroijnrpo3994493,3.747999907,1,0,80,69,1,79
,,,,,,,,,,,,,,,,,,,,,,,,,,,,,,,,,,,,,,,,,,,,,177,sol,Catalan,Sounds/cat_sol.mp3,2020-06-22_11h06.37.843,TranslationElicitation_spa,3.2.4,Win32,60,55334jfdklgneroijnrpo3994493,,1,0,80,69,1,79
,,,,,,,,,,,,,,,,,,,,,,,,,,,,,,,,,,,c,1.34800005,C,FALSE,,,,,,,120,cama,Catalan,Sounds/cat_cama.mp3,2020-06-22_11h06.37.843,TranslationElicitation_spa,3.2.4,Win32,60,55334jfdklgneroijnrpo3994493,,1,0,80,15,1,79
,,,,,,,,,,,,,,,,,,,,,,,,,,,,,,,,,,,a,1.61500001,CA,FALSE,,,,,,,120,cama,Catalan,Sounds/cat_cama.mp3,2020-06-22_11h06.37.843,TranslationElicitation_spa,3.2.4,Win32,60,55334jfdklgneroijnrpo3994493,,1,0,80,15,1,79
,,,,,,,,,,,,,,,,,,,,,,,,,,,,,,,,,,,m,1.766000032,CAM,FALSE,,,,,,,120,cama,Catalan,Sounds/cat_cama.mp3,2020-06-22_11h06.37.843,TranslationElicitation_spa,3.2.4,Win32,60,55334jfdklgneroijnrpo3994493,,1,0,80,15,1,79
,,,,,,,,,,,,,,,,,,,,,,,,,,,,,,,,,,,a,1.86500001,CAMA,FALSE,,,,,,,120,cama,Catalan,Sounds/cat_cama.mp3,2020-06-22_11h06.37.843,TranslationElicitation_spa,3.2.4,Win32,60,55334jfdklgneroijnrpo3994493,,1,0,80,15,1,79
,,,,,,,,,,,,,,,,,,,,,,,,,,,,,,,,,,,return,2.065999985,,FALSE,,,,,,,120,cama,Catalan,Sounds/cat_cama.mp3,2020-06-22_11h06.37.843,TranslationElicitation_spa,3.2.4,Win32,60,55334jfdklgneroijnrpo3994493,2.065000057,1,0,80,15,1,79
,,,,,,,,,,,,,,,,,,,,,,,,,,,,,,,,,,,,,,,,,,,,,120,cama,Catalan,Sounds/cat_cama.mp3,2020-06-22_11h06.37.843,TranslationElicitation_spa,3.2.4,Win32,60,55334jfdklgneroijnrpo3994493,,1,0,80,15,1,79
,,,,,,,,,,,,,,,,,,,,,,,,,,,,,,,,,,,c,1.166999817,C,FALSE,,,,,,,122,casa,Catalan,Sounds/cat_casa.mp3,2020-06-22_11h06.37.843,TranslationElicitation_spa,3.2.4,Win32,60,55334jfdklgneroijnrpo3994493,,1,0,80,17,1,79
,,,,,,,,,,,,,,,,,,,,,,,,,,,,,,,,,,,a,1.398000002,CA,FALSE,,,,,,,122,casa,Catalan,Sounds/cat_casa.mp3,2020-06-22_11h06.37.843,TranslationElicitation_spa,3.2.4,Win32,60,55334jfdklgneroijnrpo3994493,,1,0,80,17,1,79
,,,,,,,,,,,,,,,,,,,,,,,,,,,,,,,,,,,s,1.603999853,CAS,FALSE,,,,,,,122,casa,Catalan,Sounds/cat_casa.mp3,2020-06-22_11h06.37.843,TranslationElicitation_spa,3.2.4,Win32,60,55334jfdklgneroijnrpo3994493,,1,0,80,17,1,79
,,,,,,,,,,,,,,,,,,,,,,,,,,,,,,,,,,,a,1.781999826,CASA,FALSE,,,,,,,122,casa,Catalan,Sounds/cat_casa.mp3,2020-06-22_11h06.37.843,TranslationElicitation_spa,3.2.4,Win32,60,55334jfdklgneroijnrpo3994493,,1,0,80,17,1,79
,,,,,,,,,,,,,,,,,,,,,,,,,,,,,,,,,,,return,1.915999889,,FALSE,,,,,,,122,casa,Catalan,Sounds/cat_casa.mp3,2020-06-22_11h06.37.843,TranslationElicitation_spa,3.2.4,Win32,60,55334jfdklgneroijnrpo3994493,1.915999889,1,0,80,17,1,79
,,,,,,,,,,,,,,,,,,,,,,,,,,,,,,,,,,,,,,,,,,,,,122,casa,Catalan,Sounds/cat_casa.mp3,2020-06-22_11h06.37.843,TranslationElicitation_spa,3.2.4,Win32,60,55334jfdklgneroijnrpo3994493,,1,0,80,17,1,79
,,,,,,,,,,,,,,,,,,,,,,,,,,,,,,,,,,,b,1.796999931,B,FALSE,,,,,,,111,bibero,Catalan,Sounds/cat_bibero.mp3,2020-06-22_11h06.37.843,TranslationElicitation_spa,3.2.4,Win32,60,55334jfdklgneroijnrpo3994493,,1,0,80,6,1,79
,,,,,,,,,,,,,,,,,,,,,,,,,,,,,,,,,,,i,2.530999899,BI,FALSE,,,,,,,111,bibero,Catalan,Sounds/cat_bibero.mp3,2020-06-22_11h06.37.843,TranslationElicitation_spa,3.2.4,Win32,60,55334jfdklgneroijnrpo3994493,,1,0,80,6,1,79
,,,,,,,,,,,,,,,,,,,,,,,,,,,,,,,,,,,b,2.76699996,BIB,FALSE,,,,,,,111,bibero,Catalan,Sounds/cat_bibero.mp3,2020-06-22_11h06.37.843,TranslationElicitation_spa,3.2.4,Win32,60,55334jfdklgneroijnrpo3994493,,1,0,80,6,1,79
,,,,,,,,,,,,,,,,,,,,,,,,,,,,,,,,,,,e,2.898999929,BIBE,FALSE,,,,,,,111,bibero,Catalan,Sounds/cat_bibero.mp3,2020-06-22_11h06.37.843,TranslationElicitation_spa,3.2.4,Win32,60,55334jfdklgneroijnrpo3994493,,1,0,80,6,1,79
,,,,,,,,,,,,,,,,,,,,,,,,,,,,,,,,,,,r,3.082000017,BIBER,FALSE,,,,,,,111,bibero,Catalan,Sounds/cat_bibero.mp3,2020-06-22_11h06.37.843,TranslationElicitation_spa,3.2.4,Win32,60,55334jfdklgneroijnrpo3994493,,1,0,80,6,1,79
,,,,,,,,,,,,,,,,,,,,,,,,,,,,,,,,,,,o,3.247999907,BIBERO,FALSE,,,,,,,111,bibero,Catalan,Sounds/cat_bibero.mp3,2020-06-22_11h06.37.843,TranslationElicitation_spa,3.2.4,Win32,60,55334jfdklgneroijnrpo3994493,,1,0,80,6,1,79
,,,,,,,,,,,,,,,,,,,,,,,,,,,,,,,,,,,n,3.448999882,BIBERON,FALSE,,,,,,,111,bibero,Catalan,Sounds/cat_bibero.mp3,2020-06-22_11h06.37.843,TranslationElicitation_spa,3.2.4,Win32,60,55334jfdklgneroijnrpo3994493,,1,0,80,6,1,79
,,,,,,,,,,,,,,,,,,,,,,,,,,,,,,,,,,,return,3.764999866,,FALSE,,,,,,,111,bibero,Catalan,Sounds/cat_bibero.mp3,2020-06-22_11h06.37.843,TranslationElicitation_spa,3.2.4,Win32,60,55334jfdklgneroijnrpo3994493,3.764999866,1,0,80,6,1,79
,,,,,,,,,,,,,,,,,,,,,,,,,,,,,,,,,,,,,,,,,,,,,111,bibero,Catalan,Sounds/cat_bibero.mp3,2020-06-22_11h06.37.843,TranslationElicitation_spa,3.2.4,Win32,60,55334jfdklgneroijnrpo3994493,,1,0,80,6,1,79
,,,,,,,,,,,,,,,,,,,,,,,,,,,,,,,,,,,c,2.09800005,C,FALSE,,,,,,,119,caixa,Catalan,Sounds/cat_caixa.mp3,2020-06-22_11h06.37.843,TranslationElicitation_spa,3.2.4,Win32,60,55334jfdklgneroijnrpo3994493,,1,0,80,14,1,79
,,,,,,,,,,,,,,,,,,,,,,,,,,,,,,,,,,,a,2.36500001,CA,FALSE,,,,,,,119,caixa,Catalan,Sounds/cat_caixa.mp3,2020-06-22_11h06.37.843,TranslationElicitation_spa,3.2.4,Win32,60,55334jfdklgneroijnrpo3994493,,1,0,80,14,1,79
,,,,,,,,,,,,,,,,,,,,,,,,,,,,,,,,,,,l,2.600000143,CAL,FALSE,,,,,,,119,caixa,Catalan,Sounds/cat_caixa.mp3,2020-06-22_11h06.37.843,TranslationElicitation_spa,3.2.4,Win32,60,55334jfdklgneroijnrpo3994493,,1,0,80,14,1,79
,,,,,,,,,,,,,,,,,,,,,,,,,,,,,,,,,,,l,2.796999931,CALL,FALSE,,,,,,,119,caixa,Catalan,Sounds/cat_caixa.mp3,2020-06-22_11h06.37.843,TranslationElicitation_spa,3.2.4,Win32,60,55334jfdklgneroijnrpo3994493,,1,0,80,14,1,79
,,,,,,,,,,,,,,,,,,,,,,,,,,,,,,,,,,,e,2.829999924,CALLE,FALSE,,,,,,,119,caixa,Catalan,Sounds/cat_caixa.mp3,2020-06-22_11h06.37.843,TranslationElicitation_spa,3.2.4,Win32,60,55334jfdklgneroijnrpo3994493,,1,0,80,14,1,79
,,,,,,,,,,,,,,,,,,,,,,,,,,,,,,,,,,,return,3.697999954,,FALSE,,,,,,,119,caixa,Catalan,Sounds/cat_caixa.mp3,2020-06-22_11h06.37.843,TranslationElicitation_spa,3.2.4,Win32,60,55334jfdklgneroijnrpo3994493,3.697000027,1,0,80,14,1,79
,,,,,,,,,,,,,,,,,,,,,,,,,,,,,,,,,,,,,,,,,,,,,119,caixa,Catalan,Sounds/cat_caixa.mp3,2020-06-22_11h06.37.843,TranslationElicitation_spa,3.2.4,Win32,60,55334jfdklgneroijnrpo3994493,,1,0,80,14,1,79
,,,,,,,,,,,,,,,,,,,,,,,,,,,,,,,,,,,t,7.651000023,T,FALSE,,,,,,,182,tomaquet,Catalan,Sounds/cat_tomaquet.mp3,2020-06-22_11h06.37.843,TranslationElicitation_spa,3.2.4,Win32,60,55334jfdklgneroijnrpo3994493,,1,0,80,73,1,79
,,,,,,,,,,,,,,,,,,,,,,,,,,,,,,,,,,,a,7.934000015,TA,FALSE,,,,,,,182,tomaquet,Catalan,Sounds/cat_tomaquet.mp3,2020-06-22_11h06.37.843,TranslationElicitation_spa,3.2.4,Win32,60,55334jfdklgneroijnrpo3994493,,1,0,80,73,1,79
,,,,,,,,,,,,,,,,,,,,,,,,,,,,,,,,,,,b,8.099999905,TAB,FALSE,,,,,,,182,tomaquet,Catalan,Sounds/cat_tomaquet.mp3,2020-06-22_11h06.37.843,TranslationElicitation_spa,3.2.4,Win32,60,55334jfdklgneroijnrpo3994493,,1,0,80,73,1,79
,,,,,,,,,,,,,,,,,,,,,,,,,,,,,,,,,,,a,8.199999809,TABA,FALSE,,,,,,,182,tomaquet,Catalan,Sounds/cat_tomaquet.mp3,2020-06-22_11h06.37.843,TranslationElicitation_spa,3.2.4,Win32,60,55334jfdklgneroijnrpo3994493,,1,0,80,73,1,79
,,,,,,,,,,,,,,,,,,,,,,,,,,,,,,,,,,,c,8.41899991,TABAC,FALSE,,,,,,,182,tomaquet,Catalan,Sounds/cat_tomaquet.mp3,2020-06-22_11h06.37.843,TranslationElicitation_spa,3.2.4,Win32,60,55334jfdklgneroijnrpo3994493,,1,0,80,73,1,79
,,,,,,,,,,,,,,,,,,,,,,,,,,,,,,,,,,,o,8.534999847,TABACO,FALSE,,,,,,,182,tomaquet,Catalan,Sounds/cat_tomaquet.mp3,2020-06-22_11h06.37.843,TranslationElicitation_spa,3.2.4,Win32,60,55334jfdklgneroijnrpo3994493,,1,0,80,73,1,79
,,,,,,,,,,,,,,,,,,,,,,,,,,,,,,,,,,,return,9.082999945,,FALSE,,,,,,,182,tomaquet,Catalan,Sounds/cat_tomaquet.mp3,2020-06-22_11h06.37.843,TranslationElicitation_spa,3.2.4,Win32,60,55334jfdklgneroijnrpo3994493,9.082999945,1,0,80,73,1,79
,,,,,,,,,,,,,,,,,,,,,,,,,,,,,,,,,,,,,,,,,,,,,182,tomaquet,Catalan,Sounds/cat_tomaquet.mp3,2020-06-22_11h06.37.843,TranslationElicitation_spa,3.2.4,Win32,60,55334jfdklgneroijnrpo3994493,,1,0,80,73,1,79
,,,,,,,,,,,,,,,,,,,,,,,,,,,,,,,,,,,j,1.399000168,J,FALSE,,,,,,,142,girafa,Catalan,Sounds/cat_girafa.mp3,2020-06-22_11h06.37.843,TranslationElicitation_spa,3.2.4,Win32,60,55334jfdklgneroijnrpo3994493,,1,0,80,37,1,79
,,,,,,,,,,,,,,,,,,,,,,,,,,,,,,,,,,,i,1.534000158,JI,FALSE,,,,,,,142,girafa,Catalan,Sounds/cat_girafa.mp3,2020-06-22_11h06.37.843,TranslationElicitation_spa,3.2.4,Win32,60,55334jfdklgneroijnrpo3994493,,1,0,80,37,1,79
,,,,,,,,,,,,,,,,,,,,,,,,,,,,,,,,,,,r,1.666000128,JIR,FALSE,,,,,,,142,girafa,Catalan,Sounds/cat_girafa.mp3,2020-06-22_11h06.37.843,TranslationElicitation_spa,3.2.4,Win32,60,55334jfdklgneroijnrpo3994493,,1,0,80,37,1,79
,,,,,,,,,,,,,,,,,,,,,,,,,,,,,,,,,,,a,1.900000095,JIRA,FALSE,,,,,,,142,girafa,Catalan,Sounds/cat_girafa.mp3,2020-06-22_11h06.37.843,TranslationElicitation_spa,3.2.4,Win32,60,55334jfdklgneroijnrpo3994493,,1,0,80,37,1,79
,,,,,,,,,,,,,,,,,,,,,,,,,,,,,,,,,,,f,2.134000063,JIRAF,FALSE,,,,,,,142,girafa,Catalan,Sounds/cat_girafa.mp3,2020-06-22_11h06.37.843,TranslationElicitation_spa,3.2.4,Win32,60,55334jfdklgneroijnrpo3994493,,1,0,80,37,1,79
,,,,,,,,,,,,,,,,,,,,,,,,,,,,,,,,,,,a,2.383000135,JIRAFA,FALSE,,,,,,,142,girafa,Catalan,Sounds/cat_girafa.mp3,2020-06-22_11h06.37.843,TranslationElicitation_spa,3.2.4,Win32,60,55334jfdklgneroijnrpo3994493,,1,0,80,37,1,79
,,,,,,,,,,,,,,,,,,,,,,,,,,,,,,,,,,,return,2.616000175,,FALSE,,,,,,,142,girafa,Catalan,Sounds/cat_girafa.mp3,2020-06-22_11h06.37.843,TranslationElicitation_spa,3.2.4,Win32,60,55334jfdklgneroijnrpo3994493,2.616000175,1,0,80,37,1,79
,,,,,,,,,,,,,,,,,,,,,,,,,,,,,,,,,,,,,,,,,,,,,142,girafa,Catalan,Sounds/cat_girafa.mp3,2020-06-22_11h06.37.843,TranslationElicitation_spa,3.2.4,Win32,60,55334jfdklgneroijnrpo3994493,,1,0,80,37,1,79
,,,,,,,,,,,,,,,,,,,,,,,,,,,,,,,,,,,m,3.413000107,M,FALSE,,,,,,,157,mussol,Catalan,Sounds/cat_mussol.mp3,2020-06-22_11h06.37.843,TranslationElicitation_spa,3.2.4,Win32,60,55334jfdklgneroijnrpo3994493,,1,0,80,51,1,79
,,,,,,,,,,,,,,,,,,,,,,,,,,,,,,,,,,,u,3.731999874,MU,FALSE,,,,,,,157,mussol,Catalan,Sounds/cat_mussol.mp3,2020-06-22_11h06.37.843,TranslationElicitation_spa,3.2.4,Win32,60,55334jfdklgneroijnrpo3994493,,1,0,80,51,1,79
,,,,,,,,,,,,,,,,,,,,,,,,,,,,,,,,,,,backspace,4.549000025,,TRUE,,,,,,,157,mussol,Catalan,Sounds/cat_mussol.mp3,2020-06-22_11h06.37.843,TranslationElicitation_spa,3.2.4,Win32,60,55334jfdklgneroijnrpo3994493,,1,0,80,51,1,79
,,,,,,,,,,,,,,,,,,,,,,,,,,,,,,,,,,,backspace,4.798000097,,TRUE,,,,,,,157,mussol,Catalan,Sounds/cat_mussol.mp3,2020-06-22_11h06.37.843,TranslationElicitation_spa,3.2.4,Win32,60,55334jfdklgneroijnrpo3994493,,1,0,80,51,1,79
,,,,,,,,,,,,,,,,,,,,,,,,,,,,,,,,,,,m,7.464999914,M,TRUE,,,,,,,157,mussol,Catalan,Sounds/cat_mussol.mp3,2020-06-22_11h06.37.843,TranslationElicitation_spa,3.2.4,Win32,60,55334jfdklgneroijnrpo3994493,,1,0,80,51,1,79
,,,,,,,,,,,,,,,,,,,,,,,,,,,,,,,,,,,u,7.713999987,MU,TRUE,,,,,,,157,mussol,Catalan,Sounds/cat_mussol.mp3,2020-06-22_11h06.37.843,TranslationElicitation_spa,3.2.4,Win32,60,55334jfdklgneroijnrpo3994493,,1,0,80,51,1,79
,,,,,,,,,,,,,,,,,,,,,,,,,,,,,,,,,,,backspace,9.181999922,,TRUE,,,,,,,157,mussol,Catalan,Sounds/cat_mussol.mp3,2020-06-22_11h06.37.843,TranslationElicitation_spa,3.2.4,Win32,60,55334jfdklgneroijnrpo3994493,,1,0,80,51,1,79
,,,,,,,,,,,,,,,,,,,,,,,,,,,,,,,,,,,l,30.79399991,L,TRUE,,,,,,,157,mussol,Catalan,Sounds/cat_mussol.mp3,2020-06-22_11h06.37.843,TranslationElicitation_spa,3.2.4,Win32,60,55334jfdklgneroijnrpo3994493,,1,0,80,51,1,79
,,,,,,,,,,,,,,,,,,,,,,,,,,,,,,,,,,,backspace,31.51799989,,TRUE,,,,,,,157,mussol,Catalan,Sounds/cat_mussol.mp3,2020-06-22_11h06.37.843,TranslationElicitation_spa,3.2.4,Win32,60,55334jfdklgneroijnrpo3994493,,1,0,80,51,1,79
,,,,,,,,,,,,,,,,,,,,,,,,,,,,,,,,,,,b,36.06900001,B,TRUE,,,,,,,157,mussol,Catalan,Sounds/cat_mussol.mp3,2020-06-22_11h06.37.843,TranslationElicitation_spa,3.2.4,Win32,60,55334jfdklgneroijnrpo3994493,,1,0,80,51,1,79
,,,,,,,,,,,,,,,,,,,,,,,,,,,,,,,,,,,u,36.25300002,BU,TRUE,,,,,,,157,mussol,Catalan,Sounds/cat_mussol.mp3,2020-06-22_11h06.37.843,TranslationElicitation_spa,3.2.4,Win32,60,55334jfdklgneroijnrpo3994493,,1,0,80,51,1,79
,,,,,,,,,,,,,,,,,,,,,,,,,,,,,,,,,,,z,36.48600006,BUZ,TRUE,,,,,,,157,mussol,Catalan,Sounds/cat_mussol.mp3,2020-06-22_11h06.37.843,TranslationElicitation_spa,3.2.4,Win32,60,55334jfdklgneroijnrpo3994493,,1,0,80,51,1,79
,,,,,,,,,,,,,,,,,,,,,,,,,,,,,,,,,,,o,36.63700008,BUZO,TRUE,,,,,,,157,mussol,Catalan,Sounds/cat_mussol.mp3,2020-06-22_11h06.37.843,TranslationElicitation_spa,3.2.4,Win32,60,55334jfdklgneroijnrpo3994493,,1,0,80,51,1,79
,,,,,,,,,,,,,,,,,,,,,,,,,,,,,,,,,,,n,36.78600001,BUZON,TRUE,,,,,,,157,mussol,Catalan,Sounds/cat_mussol.mp3,2020-06-22_11h06.37.843,TranslationElicitation_spa,3.2.4,Win32,60,55334jfdklgneroijnrpo3994493,,1,0,80,51,1,79
,,,,,,,,,,,,,,,,,,,,,,,,,,,,,,,,,,,return,37.079,,TRUE,,,,,,,157,mussol,Catalan,Sounds/cat_mussol.mp3,2020-06-22_11h06.37.843,TranslationElicitation_spa,3.2.4,Win32,60,55334jfdklgneroijnrpo3994493,37.079,1,0,80,51,1,79
,,,,,,,,,,,,,,,,,,,,,,,,,,,,,,,,,,,,,,,,,,,,,157,mussol,Catalan,Sounds/cat_mussol.mp3,2020-06-22_11h06.37.843,TranslationElicitation_spa,3.2.4,Win32,60,55334jfdklgneroijnrpo3994493,,1,0,80,51,1,79
,,,,,,,,,,,,,,,,,,,,,,,,,,,,,,,,,,,backspace,2.594000101,,TRUE,,,,,,,153,mico,Catalan,Sounds/cat_mico.mp3,2020-06-22_11h06.37.843,TranslationElicitation_spa,3.2.4,Win32,60,55334jfdklgneroijnrpo3994493,,1,0,80,47,1,79
,,,,,,,,,,,,,,,,,,,,,,,,,,,,,,,,,,,m,3.262000084,M,TRUE,,,,,,,153,mico,Catalan,Sounds/cat_mico.mp3,2020-06-22_11h06.37.843,TranslationElicitation_spa,3.2.4,Win32,60,55334jfdklgneroijnrpo3994493,,1,0,80,47,1,79
,,,,,,,,,,,,,,,,,,,,,,,,,,,,,,,,,,,i,3.445000172,MI,TRUE,,,,,,,153,mico,Catalan,Sounds/cat_mico.mp3,2020-06-22_11h06.37.843,TranslationElicitation_spa,3.2.4,Win32,60,55334jfdklgneroijnrpo3994493,,1,0,80,47,1,79
,,,,,,,,,,,,,,,,,,,,,,,,,,,,,,,,,,,c,3.761000156,MIC,TRUE,,,,,,,153,mico,Catalan,Sounds/cat_mico.mp3,2020-06-22_11h06.37.843,TranslationElicitation_spa,3.2.4,Win32,60,55334jfdklgneroijnrpo3994493,,1,0,80,47,1,79
,,,,,,,,,,,,,,,,,,,,,,,,,,,,,,,,,,,o,3.911000013,MICO,TRUE,,,,,,,153,mico,Catalan,Sounds/cat_mico.mp3,2020-06-22_11h06.37.843,TranslationElicitation_spa,3.2.4,Win32,60,55334jfdklgneroijnrpo3994493,,1,0,80,47,1,79
,,,,,,,,,,,,,,,,,,,,,,,,,,,,,,,,,,,backspace,4.361999989,MI,TRUE,,,,,,,153,mico,Catalan,Sounds/cat_mico.mp3,2020-06-22_11h06.37.843,TranslationElicitation_spa,3.2.4,Win32,60,55334jfdklgneroijnrpo3994493,,1,0,80,47,1,79
,,,,,,,,,,,,,,,,,,,,,,,,,,,,,,,,,,,backspace,4.729000092,,TRUE,,,,,,,153,mico,Catalan,Sounds/cat_mico.mp3,2020-06-22_11h06.37.843,TranslationElicitation_spa,3.2.4,Win32,60,55334jfdklgneroijnrpo3994493,,1,0,80,47,1,79
,,,,,,,,,,,,,,,,,,,,,,,,,,,,,,,,,,,m,7.495000124,M,TRUE,,,,,,,153,mico,Catalan,Sounds/cat_mico.mp3,2020-06-22_11h06.37.843,TranslationElicitation_spa,3.2.4,Win32,60,55334jfdklgneroijnrpo3994493,,1,0,80,47,1,79
,,,,,,,,,,,,,,,,,,,,,,,,,,,,,,,,,,,i,7.677999973,MI,TRUE,,,,,,,153,mico,Catalan,Sounds/cat_mico.mp3,2020-06-22_11h06.37.843,TranslationElicitation_spa,3.2.4,Win32,60,55334jfdklgneroijnrpo3994493,,1,0,80,47,1,79
,,,,,,,,,,,,,,,,,,,,,,,,,,,,,,,,,,,c,7.863000154,MIC,TRUE,,,,,,,153,mico,Catalan,Sounds/cat_mico.mp3,2020-06-22_11h06.37.843,TranslationElicitation_spa,3.2.4,Win32,60,55334jfdklgneroijnrpo3994493,,1,0,80,47,1,79
,,,,,,,,,,,,,,,,,,,,,,,,,,,,,,,,,,,o,8.029000044,MICO,TRUE,,,,,,,153,mico,Catalan,Sounds/cat_mico.mp3,2020-06-22_11h06.37.843,TranslationElicitation_spa,3.2.4,Win32,60,55334jfdklgneroijnrpo3994493,,1,0,80,47,1,79
,,,,,,,,,,,,,,,,,,,,,,,,,,,,,,,,,,,return,8.446000099,,TRUE,,,,,,,153,mico,Catalan,Sounds/cat_mico.mp3,2020-06-22_11h06.37.843,TranslationElicitation_spa,3.2.4,Win32,60,55334jfdklgneroijnrpo3994493,8.446000099,1,0,80,47,1,79
,,,,,,,,,,,,,,,,,,,,,,,,,,,,,,,,,,,,,,,,,,,,,153,mico,Catalan,Sounds/cat_mico.mp3,2020-06-22_11h06.37.843,TranslationElicitation_spa,3.2.4,Win32,60,55334jfdklgneroijnrpo3994493,,1,0,80,47,1,79
,,,,,,,,,,,,,,,,,,,,,,,,,,,,,,,,,,,o,1.679999828,O,FALSE,,,,,,,143,globus,Catalan,Sounds/cat_globus.mp3,2020-06-22_11h06.37.843,TranslationElicitation_spa,3.2.4,Win32,60,55334jfdklgneroijnrpo3994493,,1,0,80,38,1,79
,,,,,,,,,,,,,,,,,,,,,,,,,,,,,,,,,,,b,1.914000034,OB,FALSE,,,,,,,143,globus,Catalan,Sounds/cat_globus.mp3,2020-06-22_11h06.37.843,TranslationElicitation_spa,3.2.4,Win32,60,55334jfdklgneroijnrpo3994493,,1,0,80,38,1,79
,,,,,,,,,,,,,,,,,,,,,,,,,,,,,,,,,,,o,2.079999924,OBO,FALSE,,,,,,,143,globus,Catalan,Sounds/cat_globus.mp3,2020-06-22_11h06.37.843,TranslationElicitation_spa,3.2.4,Win32,60,55334jfdklgneroijnrpo3994493,,1,0,80,38,1,79
,,,,,,,,,,,,,,,,,,,,,,,,,,,,,,,,,,,backspace,2.513999939,O,TRUE,,,,,,,143,globus,Catalan,Sounds/cat_globus.mp3,2020-06-22_11h06.37.843,TranslationElicitation_spa,3.2.4,Win32,60,55334jfdklgneroijnrpo3994493,,1,0,80,38,1,79
,,,,,,,,,,,,,,,,,,,,,,,,,,,,,,,,,,,backspace,2.679999828,,TRUE,,,,,,,143,globus,Catalan,Sounds/cat_globus.mp3,2020-06-22_11h06.37.843,TranslationElicitation_spa,3.2.4,Win32,60,55334jfdklgneroijnrpo3994493,,1,0,80,38,1,79
,,,,,,,,,,,,,,,,,,,,,,,,,,,,,,,,,,,backspace,2.84800005,,TRUE,,,,,,,143,globus,Catalan,Sounds/cat_globus.mp3,2020-06-22_11h06.37.843,TranslationElicitation_spa,3.2.4,Win32,60,55334jfdklgneroijnrpo3994493,,1,0,80,38,1,79
,,,,,,,,,,,,,,,,,,,,,,,,,,,,,,,,,,,b,3.330999851,B,TRUE,,,,,,,143,globus,Catalan,Sounds/cat_globus.mp3,2020-06-22_11h06.37.843,TranslationElicitation_spa,3.2.4,Win32,60,55334jfdklgneroijnrpo3994493,,1,0,80,38,1,79
,,,,,,,,,,,,,,,,,,,,,,,,,,,,,,,,,,,l,3.531999826,BL,TRUE,,,,,,,143,globus,Catalan,Sounds/cat_globus.mp3,2020-06-22_11h06.37.843,TranslationElicitation_spa,3.2.4,Win32,60,55334jfdklgneroijnrpo3994493,,1,0,80,38,1,79
,,,,,,,,,,,,,,,,,,,,,,,,,,,,,,,,,,,o,3.715999842,BLO,TRUE,,,,,,,143,globus,Catalan,Sounds/cat_globus.mp3,2020-06-22_11h06.37.843,TranslationElicitation_spa,3.2.4,Win32,60,55334jfdklgneroijnrpo3994493,,1,0,80,38,1,79
,,,,,,,,,,,,,,,,,,,,,,,,,,,,,,,,,,,g,3.86500001,BLOG,TRUE,,,,,,,143,globus,Catalan,Sounds/cat_globus.mp3,2020-06-22_11h06.37.843,TranslationElicitation_spa,3.2.4,Win32,60,55334jfdklgneroijnrpo3994493,,1,0,80,38,1,79
,,,,,,,,,,,,,,,,,,,,,,,,,,,,,,,,,,,backspace,4.297999859,BL,TRUE,,,,,,,143,globus,Catalan,Sounds/cat_globus.mp3,2020-06-22_11h06.37.843,TranslationElicitation_spa,3.2.4,Win32,60,55334jfdklgneroijnrpo3994493,,1,0,80,38,1,79
,,,,,,,,,,,,,,,,,,,,,,,,,,,,,,,,,,,backspace,4.463999987,,TRUE,,,,,,,143,globus,Catalan,Sounds/cat_globus.mp3,2020-06-22_11h06.37.843,TranslationElicitation_spa,3.2.4,Win32,60,55334jfdklgneroijnrpo3994493,,1,0,80,38,1,79
,,,,,,,,,,,,,,,,,,,,,,,,,,,,,,,,,,,backspace,4.631999969,,TRUE,,,,,,,143,globus,Catalan,Sounds/cat_globus.mp3,2020-06-22_11h06.37.843,TranslationElicitation_spa,3.2.4,Win32,60,55334jfdklgneroijnrpo3994493,,1,0,80,38,1,79
,,,,,,,,,,,,,,,,,,,,,,,,,,,,,,,,,,,g,5.582000017,G,TRUE,,,,,,,143,globus,Catalan,Sounds/cat_globus.mp3,2020-06-22_11h06.37.843,TranslationElicitation_spa,3.2.4,Win32,60,55334jfdklgneroijnrpo3994493,,1,0,80,38,1,79
,,,,,,,,,,,,,,,,,,,,,,,,,,,,,,,,,,,l,5.714999914,GL,TRUE,,,,,,,143,globus,Catalan,Sounds/cat_globus.mp3,2020-06-22_11h06.37.843,TranslationElicitation_spa,3.2.4,Win32,60,55334jfdklgneroijnrpo3994493,,1,0,80,38,1,79
,,,,,,,,,,,,,,,,,,,,,,,,,,,,,,,,,,,o,5.881999969,GLO,TRUE,,,,,,,143,globus,Catalan,Sounds/cat_globus.mp3,2020-06-22_11h06.37.843,TranslationElicitation_spa,3.2.4,Win32,60,55334jfdklgneroijnrpo3994493,,1,0,80,38,1,79
,,,,,,,,,,,,,,,,,,,,,,,,,,,,,,,,,,,b,6.09800005,GLOB,TRUE,,,,,,,143,globus,Catalan,Sounds/cat_globus.mp3,2020-06-22_11h06.37.843,TranslationElicitation_spa,3.2.4,Win32,60,55334jfdklgneroijnrpo3994493,,1,0,80,38,1,79
,,,,,,,,,,,,,,,,,,,,,,,,,,,,,,,,,,,o,6.302000046,GLOBO,TRUE,,,,,,,143,globus,Catalan,Sounds/cat_globus.mp3,2020-06-22_11h06.37.843,TranslationElicitation_spa,3.2.4,Win32,60,55334jfdklgneroijnrpo3994493,,1,0,80,38,1,79
,,,,,,,,,,,,,,,,,,,,,,,,,,,,,,,,,,,s,6.381000042,GLOBOS,TRUE,,,,,,,143,globus,Catalan,Sounds/cat_globus.mp3,2020-06-22_11h06.37.843,TranslationElicitation_spa,3.2.4,Win32,60,55334jfdklgneroijnrpo3994493,,1,0,80,38,1,79
,,,,,,,,,,,,,,,,,,,,,,,,,,,,,,,,,,,return,6.681999922,,TRUE,,,,,,,143,globus,Catalan,Sounds/cat_globus.mp3,2020-06-22_11h06.37.843,TranslationElicitation_spa,3.2.4,Win32,60,55334jfdklgneroijnrpo3994493,6.681999922,1,0,80,38,1,79
,,,,,,,,,,,,,,,,,,,,,,,,,,,,,,,,,,,,,,,,,,,,,143,globus,Catalan,Sounds/cat_globus.mp3,2020-06-22_11h06.37.843,TranslationElicitation_spa,3.2.4,Win32,60,55334jfdklgneroijnrpo3994493,,1,0,80,38,1,79
,,,,,,,,,,,,,,,,,,,,,,,,,,,,,,,,,,,g,1.197999954,G,FALSE,,,,,,,146,guitarra,Catalan,Sounds/cat_guitarra.mp3,2020-06-22_11h06.37.843,TranslationElicitation_spa,3.2.4,Win32,60,55334jfdklgneroijnrpo3994493,,1,0,80,41,1,79
,,,,,,,,,,,,,,,,,,,,,,,,,,,,,,,,,,,u,1.781999826,GU,FALSE,,,,,,,146,guitarra,Catalan,Sounds/cat_guitarra.mp3,2020-06-22_11h06.37.843,TranslationElicitation_spa,3.2.4,Win32,60,55334jfdklgneroijnrpo3994493,,1,0,80,41,1,79
,,,,,,,,,,,,,,,,,,,,,,,,,,,,,,,,,,,i,1.947999954,GUI,FALSE,,,,,,,146,guitarra,Catalan,Sounds/cat_guitarra.mp3,2020-06-22_11h06.37.843,TranslationElicitation_spa,3.2.4,Win32,60,55334jfdklgneroijnrpo3994493,,1,0,80,41,1,79
,,,,,,,,,,,,,,,,,,,,,,,,,,,,,,,,,,,t,2.214999914,GUIT,FALSE,,,,,,,146,guitarra,Catalan,Sounds/cat_guitarra.mp3,2020-06-22_11h06.37.843,TranslationElicitation_spa,3.2.4,Win32,60,55334jfdklgneroijnrpo3994493,,1,0,80,41,1,79
,,,,,,,,,,,,,,,,,,,,,,,,,,,,,,,,,,,a,2.346999884,GUITA,FALSE,,,,,,,146,guitarra,Catalan,Sounds/cat_guitarra.mp3,2020-06-22_11h06.37.843,TranslationElicitation_spa,3.2.4,Win32,60,55334jfdklgneroijnrpo3994493,,1,0,80,41,1,79
,,,,,,,,,,,,,,,,,,,,,,,,,,,,,,,,,,,r,2.496999979,GUITAR,FALSE,,,,,,,146,guitarra,Catalan,Sounds/cat_guitarra.mp3,2020-06-22_11h06.37.843,TranslationElicitation_spa,3.2.4,Win32,60,55334jfdklgneroijnrpo3994493,,1,0,80,41,1,79
,,,,,,,,,,,,,,,,,,,,,,,,,,,,,,,,,,,r,2.664000034,GUITARR,FALSE,,,,,,,146,guitarra,Catalan,Sounds/cat_guitarra.mp3,2020-06-22_11h06.37.843,TranslationElicitation_spa,3.2.4,Win32,60,55334jfdklgneroijnrpo3994493,,1,0,80,41,1,79
,,,,,,,,,,,,,,,,,,,,,,,,,,,,,,,,,,,a,2.748999834,GUITARRA,FALSE,,,,,,,146,guitarra,Catalan,Sounds/cat_guitarra.mp3,2020-06-22_11h06.37.843,TranslationElicitation_spa,3.2.4,Win32,60,55334jfdklgneroijnrpo3994493,,1,0,80,41,1,79
,,,,,,,,,,,,,,,,,,,,,,,,,,,,,,,,,,,return,3.097999811,,FALSE,,,,,,,146,guitarra,Catalan,Sounds/cat_guitarra.mp3,2020-06-22_11h06.37.843,TranslationElicitation_spa,3.2.4,Win32,60,55334jfdklgneroijnrpo3994493,3.097999811,1,0,80,41,1,79
,,,,,,,,,,,,,,,,,,,,,,,,,,,,,,,,,,,,,,,,,,,,,146,guitarra,Catalan,Sounds/cat_guitarra.mp3,2020-06-22_11h06.37.843,TranslationElicitation_spa,3.2.4,Win32,60,55334jfdklgneroijnrpo3994493,,1,0,80,41,1,79
,,,,,,,,,,,,,,,,,,,,,,,,,,,,,,,,,,,c,1.298000097,C,FALSE,,,,,,,126,corona,Catalan,Sounds/cat_corona.mp3,2020-06-22_11h06.37.843,TranslationElicitation_spa,3.2.4,Win32,60,55334jfdklgneroijnrpo3994493,,1,0,80,21,1,79
,,,,,,,,,,,,,,,,,,,,,,,,,,,,,,,,,,,o,1.532999992,CO,FALSE,,,,,,,126,corona,Catalan,Sounds/cat_corona.mp3,2020-06-22_11h06.37.843,TranslationElicitation_spa,3.2.4,Win32,60,55334jfdklgneroijnrpo3994493,,1,0,80,21,1,79
,,,,,,,,,,,,,,,,,,,,,,,,,,,,,,,,,,,r,1.648999929,COR,FALSE,,,,,,,126,corona,Catalan,Sounds/cat_corona.mp3,2020-06-22_11h06.37.843,TranslationElicitation_spa,3.2.4,Win32,60,55334jfdklgneroijnrpo3994493,,1,0,80,21,1,79
,,,,,,,,,,,,,,,,,,,,,,,,,,,,,,,,,,,o,1.815000057,CORO,FALSE,,,,,,,126,corona,Catalan,Sounds/cat_corona.mp3,2020-06-22_11h06.37.843,TranslationElicitation_spa,3.2.4,Win32,60,55334jfdklgneroijnrpo3994493,,1,0,80,21,1,79
,,,,,,,,,,,,,,,,,,,,,,,,,,,,,,,,,,,n,1.980999947,CORON,FALSE,,,,,,,126,corona,Catalan,Sounds/cat_corona.mp3,2020-06-22_11h06.37.843,TranslationElicitation_spa,3.2.4,Win32,60,55334jfdklgneroijnrpo3994493,,1,0,80,21,1,79
,,,,,,,,,,,,,,,,,,,,,,,,,,,,,,,,,,,a,2.181999922,CORONA,FALSE,,,,,,,126,corona,Catalan,Sounds/cat_corona.mp3,2020-06-22_11h06.37.843,TranslationElicitation_spa,3.2.4,Win32,60,55334jfdklgneroijnrpo3994493,,1,0,80,21,1,79
,,,,,,,,,,,,,,,,,,,,,,,,,,,,,,,,,,,return,2.98300004,,FALSE,,,,,,,126,corona,Catalan,Sounds/cat_corona.mp3,2020-06-22_11h06.37.843,TranslationElicitation_spa,3.2.4,Win32,60,55334jfdklgneroijnrpo3994493,2.982000113,1,0,80,21,1,79
,,,,,,,,,,,,,,,,,,,,,,,,,,,,,,,,,,,,,,,,,,,,,126,corona,Catalan,Sounds/cat_corona.mp3,2020-06-22_11h06.37.843,TranslationElicitation_spa,3.2.4,Win32,60,55334jfdklgneroijnrpo3994493,,1,0,80,21,1,79
,,,,,,,,,,,,,,,,,,,,,,,,,,,,,,,,,,,m,1.4150002,M,FALSE,,,,,,,152,ma,Catalan,Sounds/cat_ma.mp3,2020-06-22_11h06.37.843,TranslationElicitation_spa,3.2.4,Win32,60,55334jfdklgneroijnrpo3994493,,1,0,80,46,1,79
,,,,,,,,,,,,,,,,,,,,,,,,,,,,,,,,,,,a,1.549000025,MA,FALSE,,,,,,,152,ma,Catalan,Sounds/cat_ma.mp3,2020-06-22_11h06.37.843,TranslationElicitation_spa,3.2.4,Win32,60,55334jfdklgneroijnrpo3994493,,1,0,80,46,1,79
,,,,,,,,,,,,,,,,,,,,,,,,,,,,,,,,,,,r,1.815999985,MAR,FALSE,,,,,,,152,ma,Catalan,Sounds/cat_ma.mp3,2020-06-22_11h06.37.843,TranslationElicitation_spa,3.2.4,Win32,60,55334jfdklgneroijnrpo3994493,,1,0,80,46,1,79
,,,,,,,,,,,,,,,,,,,,,,,,,,,,,,,,,,,backspace,2.21600008,M,TRUE,,,,,,,152,ma,Catalan,Sounds/cat_ma.mp3,2020-06-22_11h06.37.843,TranslationElicitation_spa,3.2.4,Win32,60,55334jfdklgneroijnrpo3994493,,1,0,80,46,1,79
,,,,,,,,,,,,,,,,,,,,,,,,,,,,,,,,,,,a,3.11500001,MA,TRUE,,,,,,,152,ma,Catalan,Sounds/cat_ma.mp3,2020-06-22_11h06.37.843,TranslationElicitation_spa,3.2.4,Win32,60,55334jfdklgneroijnrpo3994493,,1,0,80,46,1,79
,,,,,,,,,,,,,,,,,,,,,,,,,,,,,,,,,,,m,3.800000191,MAM,TRUE,,,,,,,152,ma,Catalan,Sounds/cat_ma.mp3,2020-06-22_11h06.37.843,TranslationElicitation_spa,3.2.4,Win32,60,55334jfdklgneroijnrpo3994493,,1,0,80,46,1,79
,,,,,,,,,,,,,,,,,,,,,,,,,,,,,,,,,,,semicolon,4.068000078,MAMÑ,TRUE,,,,,,,152,ma,Catalan,Sounds/cat_ma.mp3,2020-06-22_11h06.37.843,TranslationElicitation_spa,3.2.4,Win32,60,55334jfdklgneroijnrpo3994493,,1,0,80,46,1,79
,,,,,,,,,,,,,,,,,,,,,,,,,,,,,,,,,,,backspace,4.549000025,MA,TRUE,,,,,,,152,ma,Catalan,Sounds/cat_ma.mp3,2020-06-22_11h06.37.843,TranslationElicitation_spa,3.2.4,Win32,60,55334jfdklgneroijnrpo3994493,,1,0,80,46,1,79
,,,,,,,,,,,,,,,,,,,,,,,,,,,,,,,,,,,a,4.765000105,MAA,TRUE,,,,,,,152,ma,Catalan,Sounds/cat_ma.mp3,2020-06-22_11h06.37.843,TranslationElicitation_spa,3.2.4,Win32,60,55334jfdklgneroijnrpo3994493,,1,0,80,46,1,79
,,,,,,,,,,,,,,,,,,,,,,,,,,,,,,,,,,,backspace,5.381999969,M,TRUE,,,,,,,152,ma,Catalan,Sounds/cat_ma.mp3,2020-06-22_11h06.37.843,TranslationElicitation_spa,3.2.4,Win32,60,55334jfdklgneroijnrpo3994493,,1,0,80,46,1,79
,,,,,,,,,,,,,,,,,,,,,,,,,,,,,,,,,,,a,6.23300004,MA,TRUE,,,,,,,152,ma,Catalan,Sounds/cat_ma.mp3,2020-06-22_11h06.37.843,TranslationElicitation_spa,3.2.4,Win32,60,55334jfdklgneroijnrpo3994493,,1,0,80,46,1,79
,,,,,,,,,,,,,,,,,,,,,,,,,,,,,,,,,,,d,6.44900012,MAD,TRUE,,,,,,,152,ma,Catalan,Sounds/cat_ma.mp3,2020-06-22_11h06.37.843,TranslationElicitation_spa,3.2.4,Win32,60,55334jfdklgneroijnrpo3994493,,1,0,80,46,1,79
,,,,,,,,,,,,,,,,,,,,,,,,,,,,,,,,,,,r,6.616000175,MADR,TRUE,,,,,,,152,ma,Catalan,Sounds/cat_ma.mp3,2020-06-22_11h06.37.843,TranslationElicitation_spa,3.2.4,Win32,60,55334jfdklgneroijnrpo3994493,,1,0,80,46,1,79
,,,,,,,,,,,,,,,,,,,,,,,,,,,,,,,,,,,e,6.800000191,MADRE,TRUE,,,,,,,152,ma,Catalan,Sounds/cat_ma.mp3,2020-06-22_11h06.37.843,TranslationElicitation_spa,3.2.4,Win32,60,55334jfdklgneroijnrpo3994493,,1,0,80,46,1,79
,,,,,,,,,,,,,,,,,,,,,,,,,,,,,,,,,,,return,7.098999977,,TRUE,,,,,,,152,ma,Catalan,Sounds/cat_ma.mp3,2020-06-22_11h06.37.843,TranslationElicitation_spa,3.2.4,Win32,60,55334jfdklgneroijnrpo3994493,7.098999977,1,0,80,46,1,79
,,,,,,,,,,,,,,,,,,,,,,,,,,,,,,,,,,,,,,,,,,,,,152,ma,Catalan,Sounds/cat_ma.mp3,2020-06-22_11h06.37.843,TranslationElicitation_spa,3.2.4,Win32,60,55334jfdklgneroijnrpo3994493,,1,0,80,46,1,79
,,,,,,,,,,,,,,,,,,,,,,,,,,,,,,,,,,,c,1.089999914,C,FALSE,,,,,,,121,camisa,Catalan,Sounds/cat_camisa.mp3,2020-06-22_11h06.37.843,TranslationElicitation_spa,3.2.4,Win32,60,55334jfdklgneroijnrpo3994493,,1,0,80,16,1,79
,,,,,,,,,,,,,,,,,,,,,,,,,,,,,,,,,,,a,1.325000048,CA,FALSE,,,,,,,121,camisa,Catalan,Sounds/cat_camisa.mp3,2020-06-22_11h06.37.843,TranslationElicitation_spa,3.2.4,Win32,60,55334jfdklgneroijnrpo3994493,,1,0,80,16,1,79
,,,,,,,,,,,,,,,,,,,,,,,,,,,,,,,,,,,m,1.47300005,CAM,FALSE,,,,,,,121,camisa,Catalan,Sounds/cat_camisa.mp3,2020-06-22_11h06.37.843,TranslationElicitation_spa,3.2.4,Win32,60,55334jfdklgneroijnrpo3994493,,1,0,80,16,1,79
,,,,,,,,,,,,,,,,,,,,,,,,,,,,,,,,,,,i,1.624000072,CAMI,FALSE,,,,,,,121,camisa,Catalan,Sounds/cat_camisa.mp3,2020-06-22_11h06.37.843,TranslationElicitation_spa,3.2.4,Win32,60,55334jfdklgneroijnrpo3994493,,1,0,80,16,1,79
,,,,,,,,,,,,,,,,,,,,,,,,,,,,,,,,,,,s,1.773000002,CAMIS,FALSE,,,,,,,121,camisa,Catalan,Sounds/cat_camisa.mp3,2020-06-22_11h06.37.843,TranslationElicitation_spa,3.2.4,Win32,60,55334jfdklgneroijnrpo3994493,,1,0,80,16,1,79
,,,,,,,,,,,,,,,,,,,,,,,,,,,,,,,,,,,a,1.957000017,CAMISA,FALSE,,,,,,,121,camisa,Catalan,Sounds/cat_camisa.mp3,2020-06-22_11h06.37.843,TranslationElicitation_spa,3.2.4,Win32,60,55334jfdklgneroijnrpo3994493,,1,0,80,16,1,79
,,,,,,,,,,,,,,,,,,,,,,,,,,,,,,,,,,,return,2.256999969,,FALSE,,,,,,,121,camisa,Catalan,Sounds/cat_camisa.mp3,2020-06-22_11h06.37.843,TranslationElicitation_spa,3.2.4,Win32,60,55334jfdklgneroijnrpo3994493,2.256999969,1,0,80,16,1,79
,,,,,,,,,,,,,,,,,,,,,,,,,,,,,,,,,,,,,,,,,,,,,121,camisa,Catalan,Sounds/cat_camisa.mp3,2020-06-22_11h06.37.843,TranslationElicitation_spa,3.2.4,Win32,60,55334jfdklgneroijnrpo3994493,,1,0,80,16,1,79
,,,,,,,,,,,,,,,,,,,,,,,,,,,,,,,,,,,e,1.415999889,E,FALSE,,,,,,,131,esponja,Catalan,Sounds/cat_esponja.mp3,2020-06-22_11h06.37.843,TranslationElicitation_spa,3.2.4,Win32,60,55334jfdklgneroijnrpo3994493,,1,0,80,26,1,79
,,,,,,,,,,,,,,,,,,,,,,,,,,,,,,,,,,,s,1.631999969,ES,FALSE,,,,,,,131,esponja,Catalan,Sounds/cat_esponja.mp3,2020-06-22_11h06.37.843,TranslationElicitation_spa,3.2.4,Win32,60,55334jfdklgneroijnrpo3994493,,1,0,80,26,1,79
,,,,,,,,,,,,,,,,,,,,,,,,,,,,,,,,,,,p,2.081999779,ESP,FALSE,,,,,,,131,esponja,Catalan,Sounds/cat_esponja.mp3,2020-06-22_11h06.37.843,TranslationElicitation_spa,3.2.4,Win32,60,55334jfdklgneroijnrpo3994493,,1,0,80,26,1,79
,,,,,,,,,,,,,,,,,,,,,,,,,,,,,,,,,,,o,2.280999899,ESPO,FALSE,,,,,,,131,esponja,Catalan,Sounds/cat_esponja.mp3,2020-06-22_11h06.37.843,TranslationElicitation_spa,3.2.4,Win32,60,55334jfdklgneroijnrpo3994493,,1,0,80,26,1,79
,,,,,,,,,,,,,,,,,,,,,,,,,,,,,,,,,,,n,2.464999914,ESPON,FALSE,,,,,,,131,esponja,Catalan,Sounds/cat_esponja.mp3,2020-06-22_11h06.37.843,TranslationElicitation_spa,3.2.4,Win32,60,55334jfdklgneroijnrpo3994493,,1,0,80,26,1,79
,,,,,,,,,,,,,,,,,,,,,,,,,,,,,,,,,,,g,2.615999937,ESPONG,FALSE,,,,,,,131,esponja,Catalan,Sounds/cat_esponja.mp3,2020-06-22_11h06.37.843,TranslationElicitation_spa,3.2.4,Win32,60,55334jfdklgneroijnrpo3994493,,1,0,80,26,1,79
,,,,,,,,,,,,,,,,,,,,,,,,,,,,,,,,,,,backspace,2.947999954,ESPO,TRUE,,,,,,,131,esponja,Catalan,Sounds/cat_esponja.mp3,2020-06-22_11h06.37.843,TranslationElicitation_spa,3.2.4,Win32,60,55334jfdklgneroijnrpo3994493,,1,0,80,26,1,79
,,,,,,,,,,,,,,,,,,,,,,,,,,,,,,,,,,,j,3.248999834,ESPOJ,TRUE,,,,,,,131,esponja,Catalan,Sounds/cat_esponja.mp3,2020-06-22_11h06.37.843,TranslationElicitation_spa,3.2.4,Win32,60,55334jfdklgneroijnrpo3994493,,1,0,80,26,1,79
,,,,,,,,,,,,,,,,,,,,,,,,,,,,,,,,,,,a,3.414999962,ESPOJA,TRUE,,,,,,,131,esponja,Catalan,Sounds/cat_esponja.mp3,2020-06-22_11h06.37.843,TranslationElicitation_spa,3.2.4,Win32,60,55334jfdklgneroijnrpo3994493,,1,0,80,26,1,79
,,,,,,,,,,,,,,,,,,,,,,,,,,,,,,,,,,,backspace,4,ESPO,TRUE,,,,,,,131,esponja,Catalan,Sounds/cat_esponja.mp3,2020-06-22_11h06.37.843,TranslationElicitation_spa,3.2.4,Win32,60,55334jfdklgneroijnrpo3994493,,1,0,80,26,1,79
,,,,,,,,,,,,,,,,,,,,,,,,,,,,,,,,,,,backspace,4.182999849,ES,TRUE,,,,,,,131,esponja,Catalan,Sounds/cat_esponja.mp3,2020-06-22_11h06.37.843,TranslationElicitation_spa,3.2.4,Win32,60,55334jfdklgneroijnrpo3994493,,1,0,80,26,1,79
,,,,,,,,,,,,,,,,,,,,,,,,,,,,,,,,,,,p,5.014999866,ESP,TRUE,,,,,,,131,esponja,Catalan,Sounds/cat_esponja.mp3,2020-06-22_11h06.37.843,TranslationElicitation_spa,3.2.4,Win32,60,55334jfdklgneroijnrpo3994493,,1,0,80,26,1,79
,,,,,,,,,,,,,,,,,,,,,,,,,,,,,,,,,,,o,5.231999874,ESPO,TRUE,,,,,,,131,esponja,Catalan,Sounds/cat_esponja.mp3,2020-06-22_11h06.37.843,TranslationElicitation_spa,3.2.4,Win32,60,55334jfdklgneroijnrpo3994493,,1,0,80,26,1,79
,,,,,,,,,,,,,,,,,,,,,,,,,,,,,,,,,,,n,5.398999929,ESPON,TRUE,,,,,,,131,esponja,Catalan,Sounds/cat_esponja.mp3,2020-06-22_11h06.37.843,TranslationElicitation_spa,3.2.4,Win32,60,55334jfdklgneroijnrpo3994493,,1,0,80,26,1,79
,,,,,,,,,,,,,,,,,,,,,,,,,,,,,,,,,,,j,5.831999779,ESPONJ,TRUE,,,,,,,131,esponja,Catalan,Sounds/cat_esponja.mp3,2020-06-22_11h06.37.843,TranslationElicitation_spa,3.2.4,Win32,60,55334jfdklgneroijnrpo3994493,,1,0,80,26,1,79
,,,,,,,,,,,,,,,,,,,,,,,,,,,,,,,,,,,a,5.965999842,ESPONJA,TRUE,,,,,,,131,esponja,Catalan,Sounds/cat_esponja.mp3,2020-06-22_11h06.37.843,TranslationElicitation_spa,3.2.4,Win32,60,55334jfdklgneroijnrpo3994493,,1,0,80,26,1,79
,,,,,,,,,,,,,,,,,,,,,,,,,,,,,,,,,,,return,6.386999846,,TRUE,,,,,,,131,esponja,Catalan,Sounds/cat_esponja.mp3,2020-06-22_11h06.37.843,TranslationElicitation_spa,3.2.4,Win32,60,55334jfdklgneroijnrpo3994493,6.386999846,1,0,80,26,1,79
,,,,,,,,,,,,,,,,,,,,,,,,,,,,,,,,,,,,,,,,,,,,,131,esponja,Catalan,Sounds/cat_esponja.mp3,2020-06-22_11h06.37.843,TranslationElicitation_spa,3.2.4,Win32,60,55334jfdklgneroijnrpo3994493,,1,0,80,26,1,79
,,,,,,,,,,,,,,,,,,,,,,,,,,,,,,,,,,,g,2.130000114,G,FALSE,,,,,,,106,aixeta,Catalan,Sounds/cat_aixeta.mp3,2020-06-22_11h06.37.843,TranslationElicitation_spa,3.2.4,Win32,60,55334jfdklgneroijnrpo3994493,,1,0,80,2,1,79
,,,,,,,,,,,,,,,,,,,,,,,,,,,,,,,,,,,a,2.211000204,GA,FALSE,,,,,,,106,aixeta,Catalan,Sounds/cat_aixeta.mp3,2020-06-22_11h06.37.843,TranslationElicitation_spa,3.2.4,Win32,60,55334jfdklgneroijnrpo3994493,,1,0,80,2,1,79
,,,,,,,,,,,,,,,,,,,,,,,,,,,,,,,,,,,l,2.411000013,GAL,FALSE,,,,,,,106,aixeta,Catalan,Sounds/cat_aixeta.mp3,2020-06-22_11h06.37.843,TranslationElicitation_spa,3.2.4,Win32,60,55334jfdklgneroijnrpo3994493,,1,0,80,2,1,79
,,,,,,,,,,,,,,,,,,,,,,,,,,,,,,,,,,,l,2.578000069,GALL,FALSE,,,,,,,106,aixeta,Catalan,Sounds/cat_aixeta.mp3,2020-06-22_11h06.37.843,TranslationElicitation_spa,3.2.4,Win32,60,55334jfdklgneroijnrpo3994493,,1,0,80,2,1,79
,,,,,,,,,,,,,,,,,,,,,,,,,,,,,,,,,,,e,2.629000187,GALLE,FALSE,,,,,,,106,aixeta,Catalan,Sounds/cat_aixeta.mp3,2020-06-22_11h06.37.843,TranslationElicitation_spa,3.2.4,Win32,60,55334jfdklgneroijnrpo3994493,,1,0,80,2,1,79
,,,,,,,,,,,,,,,,,,,,,,,,,,,,,,,,,,,t,2.849000216,GALLET,FALSE,,,,,,,106,aixeta,Catalan,Sounds/cat_aixeta.mp3,2020-06-22_11h06.37.843,TranslationElicitation_spa,3.2.4,Win32,60,55334jfdklgneroijnrpo3994493,,1,0,80,2,1,79
,,,,,,,,,,,,,,,,,,,,,,,,,,,,,,,,,,,a,3.112000227,GALLETA,FALSE,,,,,,,106,aixeta,Catalan,Sounds/cat_aixeta.mp3,2020-06-22_11h06.37.843,TranslationElicitation_spa,3.2.4,Win32,60,55334jfdklgneroijnrpo3994493,,1,0,80,2,1,79
,,,,,,,,,,,,,,,,,,,,,,,,,,,,,,,,,,,return,3.278000116,,FALSE,,,,,,,106,aixeta,Catalan,Sounds/cat_aixeta.mp3,2020-06-22_11h06.37.843,TranslationElicitation_spa,3.2.4,Win32,60,55334jfdklgneroijnrpo3994493,3.278000116,1,0,80,2,1,79
,,,,,,,,,,,,,,,,,,,,,,,,,,,,,,,,,,,,,,,,,,,,,106,aixeta,Catalan,Sounds/cat_aixeta.mp3,2020-06-22_11h06.37.843,TranslationElicitation_spa,3.2.4,Win32,60,55334jfdklgneroijnrpo3994493,,1,0,80,2,1,79
,,,,,,,,,,,,,,,,,,,,,,,,,,,,,,,,,,,p,12.00199986,P,FALSE,,,,,,,171,pollastre,Catalan,Sounds/cat_pollastre.mp3,2020-06-22_11h06.37.843,TranslationElicitation_spa,3.2.4,Win32,60,55334jfdklgneroijnrpo3994493,,1,0,80,63,1,79
,,,,,,,,,,,,,,,,,,,,,,,,,,,,,,,,,,,u,12.68400002,PU,FALSE,,,,,,,171,pollastre,Catalan,Sounds/cat_pollastre.mp3,2020-06-22_11h06.37.843,TranslationElicitation_spa,3.2.4,Win32,60,55334jfdklgneroijnrpo3994493,,1,0,80,63,1,79
,,,,,,,,,,,,,,,,,,,,,,,,,,,,,,,,,,,l,13.00199986,PUL,FALSE,,,,,,,171,pollastre,Catalan,Sounds/cat_pollastre.mp3,2020-06-22_11h06.37.843,TranslationElicitation_spa,3.2.4,Win32,60,55334jfdklgneroijnrpo3994493,,1,0,80,63,1,79
,,,,,,,,,,,,,,,,,,,,,,,,,,,,,,,,,,,i,14.18400002,PULI,FALSE,,,,,,,171,pollastre,Catalan,Sounds/cat_pollastre.mp3,2020-06-22_11h06.37.843,TranslationElicitation_spa,3.2.4,Win32,60,55334jfdklgneroijnrpo3994493,,1,0,80,63,1,79
,,,,,,,,,,,,,,,,,,,,,,,,,,,,,,,,,,,r,14.40299988,PULIR,FALSE,,,,,,,171,pollastre,Catalan,Sounds/cat_pollastre.mp3,2020-06-22_11h06.37.843,TranslationElicitation_spa,3.2.4,Win32,60,55334jfdklgneroijnrpo3994493,,1,0,80,63,1,79
,,,,,,,,,,,,,,,,,,,,,,,,,,,,,,,,,,,return,15.0849998,,FALSE,,,,,,,171,pollastre,Catalan,Sounds/cat_pollastre.mp3,2020-06-22_11h06.37.843,TranslationElicitation_spa,3.2.4,Win32,60,55334jfdklgneroijnrpo3994493,15.0849998,1,0,80,63,1,79
,,,,,,,,,,,,,,,,,,,,,,,,,,,,,,,,,,,,,,,,,,,,,171,pollastre,Catalan,Sounds/cat_pollastre.mp3,2020-06-22_11h06.37.843,TranslationElicitation_spa,3.2.4,Win32,60,55334jfdklgneroijnrpo3994493,,1,0,80,63,1,79
,,,,,,,,,,,,,,,,,,,,,,,,,,,,,,,,,,,c,12.90899992,C,FALSE,,,,,,,189,zebra,Catalan,Sounds/cat_zebra.mp3,2020-06-22_11h06.37.843,TranslationElicitation_spa,3.2.4,Win32,60,55334jfdklgneroijnrpo3994493,,1,0,80,79,1,79
,,,,,,,,,,,,,,,,,,,,,,,,,,,,,,,,,,,e,13.14400005,CE,FALSE,,,,,,,189,zebra,Catalan,Sounds/cat_zebra.mp3,2020-06-22_11h06.37.843,TranslationElicitation_spa,3.2.4,Win32,60,55334jfdklgneroijnrpo3994493,,1,0,80,79,1,79
,,,,,,,,,,,,,,,,,,,,,,,,,,,,,,,,,,,b,13.39400005,CEB,FALSE,,,,,,,189,zebra,Catalan,Sounds/cat_zebra.mp3,2020-06-22_11h06.37.843,TranslationElicitation_spa,3.2.4,Win32,60,55334jfdklgneroijnrpo3994493,,1,0,80,79,1,79
,,,,,,,,,,,,,,,,,,,,,,,,,,,,,,,,,,,r,13.52799988,CEBR,FALSE,,,,,,,189,zebra,Catalan,Sounds/cat_zebra.mp3,2020-06-22_11h06.37.843,TranslationElicitation_spa,3.2.4,Win32,60,55334jfdklgneroijnrpo3994493,,1,0,80,79,1,79
,,,,,,,,,,,,,,,,,,,,,,,,,,,,,,,,,,,a,13.77699995,CEBRA,FALSE,,,,,,,189,zebra,Catalan,Sounds/cat_zebra.mp3,2020-06-22_11h06.37.843,TranslationElicitation_spa,3.2.4,Win32,60,55334jfdklgneroijnrpo3994493,,1,0,80,79,1,79
,,,,,,,,,,,,,,,,,,,,,,,,,,,,,,,,,,,return,14.02499986,,FALSE,,,,,,,189,zebra,Catalan,Sounds/cat_zebra.mp3,2020-06-22_11h06.37.843,TranslationElicitation_spa,3.2.4,Win32,60,55334jfdklgneroijnrpo3994493,14.02499986,1,0,80,79,1,79
,,,,,,,,,,,,,,,,,,,,,,,,,,,,,,,,,,,,,,,,,,,,,189,zebra,Catalan,Sounds/cat_zebra.mp3,2020-06-22_11h06.37.843,TranslationElicitation_spa,3.2.4,Win32,60,55334jfdklgneroijnrpo3994493,,1,0,80,79,1,79
,,,,,,,,,,,,,,,,,,,,,,,,,,,,,,,,,,,s,5.690000057,S,FALSE,,,,,,,160,orella,Catalan,Sounds/cat_orella.mp3,2020-06-22_11h06.37.843,TranslationElicitation_spa,3.2.4,Win32,60,55334jfdklgneroijnrpo3994493,,1,0,80,53,1,79
,,,,,,,,,,,,,,,,,,,,,,,,,,,,,,,,,,,o,5.857000113,SO,FALSE,,,,,,,160,orella,Catalan,Sounds/cat_orella.mp3,2020-06-22_11h06.37.843,TranslationElicitation_spa,3.2.4,Win32,60,55334jfdklgneroijnrpo3994493,,1,0,80,53,1,79
,,,,,,,,,,,,,,,,,,,,,,,,,,,,,,,,,,,m,6.128999949,SOM,FALSE,,,,,,,160,orella,Catalan,Sounds/cat_orella.mp3,2020-06-22_11h06.37.843,TranslationElicitation_spa,3.2.4,Win32,60,55334jfdklgneroijnrpo3994493,,1,0,80,53,1,79
,,,,,,,,,,,,,,,,,,,,,,,,,,,,,,,,,,,b,6.640000105,SOMB,FALSE,,,,,,,160,orella,Catalan,Sounds/cat_orella.mp3,2020-06-22_11h06.37.843,TranslationElicitation_spa,3.2.4,Win32,60,55334jfdklgneroijnrpo3994493,,1,0,80,53,1,79
,,,,,,,,,,,,,,,,,,,,,,,,,,,,,,,,,,,r,6.789999962,SOMBR,FALSE,,,,,,,160,orella,Catalan,Sounds/cat_orella.mp3,2020-06-22_11h06.37.843,TranslationElicitation_spa,3.2.4,Win32,60,55334jfdklgneroijnrpo3994493,,1,0,80,53,1,79
,,,,,,,,,,,,,,,,,,,,,,,,,,,,,,,,,,,i,6.891000032,SOMBRI,FALSE,,,,,,,160,orella,Catalan,Sounds/cat_orella.mp3,2020-06-22_11h06.37.843,TranslationElicitation_spa,3.2.4,Win32,60,55334jfdklgneroijnrpo3994493,,1,0,80,53,1,79
,,,,,,,,,,,,,,,,,,,,,,,,,,,,,,,,,,,l,7.140000105,SOMBRIL,FALSE,,,,,,,160,orella,Catalan,Sounds/cat_orella.mp3,2020-06-22_11h06.37.843,TranslationElicitation_spa,3.2.4,Win32,60,55334jfdklgneroijnrpo3994493,,1,0,80,53,1,79
,,,,,,,,,,,,,,,,,,,,,,,,,,,,,,,,,,,l,7.657999992,SOMBRILL,FALSE,,,,,,,160,orella,Catalan,Sounds/cat_orella.mp3,2020-06-22_11h06.37.843,TranslationElicitation_spa,3.2.4,Win32,60,55334jfdklgneroijnrpo3994493,,1,0,80,53,1,79
,,,,,,,,,,,,,,,,,,,,,,,,,,,,,,,,,,,a,7.95600009,SOMBRILLA,FALSE,,,,,,,160,orella,Catalan,Sounds/cat_orella.mp3,2020-06-22_11h06.37.843,TranslationElicitation_spa,3.2.4,Win32,60,55334jfdklgneroijnrpo3994493,,1,0,80,53,1,79
,,,,,,,,,,,,,,,,,,,,,,,,,,,,,,,,,,,return,8.256000042,,FALSE,,,,,,,160,orella,Catalan,Sounds/cat_orella.mp3,2020-06-22_11h06.37.843,TranslationElicitation_spa,3.2.4,Win32,60,55334jfdklgneroijnrpo3994493,8.256000042,1,0,80,53,1,79
,,,,,,,,,,,,,,,,,,,,,,,,,,,,,,,,,,,,,,,,,,,,,160,orella,Catalan,Sounds/cat_orella.mp3,2020-06-22_11h06.37.843,TranslationElicitation_spa,3.2.4,Win32,60,55334jfdklgneroijnrpo3994493,,1,0,80,53,1,79
,,,,,,,,,,,,,,,,,,,,,,,,,,,,,,,,,,,p,5.722999811,P,FALSE,,,,,,,174,porta,Catalan,Sounds/cat_porta.mp3,2020-06-22_11h06.37.843,TranslationElicitation_spa,3.2.4,Win32,60,55334jfdklgneroijnrpo3994493,,1,0,80,66,1,79
,,,,,,,,,,,,,,,,,,,,,,,,,,,,,,,,,,,u,6.040999889,PU,FALSE,,,,,,,174,porta,Catalan,Sounds/cat_porta.mp3,2020-06-22_11h06.37.843,TranslationElicitation_spa,3.2.4,Win32,60,55334jfdklgneroijnrpo3994493,,1,0,80,66,1,79
,,,,,,,,,,,,,,,,,,,,,,,,,,,,,,,,,,,e,6.123999834,PUE,FALSE,,,,,,,174,porta,Catalan,Sounds/cat_porta.mp3,2020-06-22_11h06.37.843,TranslationElicitation_spa,3.2.4,Win32,60,55334jfdklgneroijnrpo3994493,,1,0,80,66,1,79
,,,,,,,,,,,,,,,,,,,,,,,,,,,,,,,,,,,r,6.322999954,PUER,FALSE,,,,,,,174,porta,Catalan,Sounds/cat_porta.mp3,2020-06-22_11h06.37.843,TranslationElicitation_spa,3.2.4,Win32,60,55334jfdklgneroijnrpo3994493,,1,0,80,66,1,79
,,,,,,,,,,,,,,,,,,,,,,,,,,,,,,,,,,,t,6.423999786,PUERT,FALSE,,,,,,,174,porta,Catalan,Sounds/cat_porta.mp3,2020-06-22_11h06.37.843,TranslationElicitation_spa,3.2.4,Win32,60,55334jfdklgneroijnrpo3994493,,1,0,80,66,1,79
,,,,,,,,,,,,,,,,,,,,,,,,,,,,,,,,,,,a,6.572999954,PUERTA,FALSE,,,,,,,174,porta,Catalan,Sounds/cat_porta.mp3,2020-06-22_11h06.37.843,TranslationElicitation_spa,3.2.4,Win32,60,55334jfdklgneroijnrpo3994493,,1,0,80,66,1,79
,,,,,,,,,,,,,,,,,,,,,,,,,,,,,,,,,,,return,6.823999882,,FALSE,,,,,,,174,porta,Catalan,Sounds/cat_porta.mp3,2020-06-22_11h06.37.843,TranslationElicitation_spa,3.2.4,Win32,60,55334jfdklgneroijnrpo3994493,6.823999882,1,0,80,66,1,79
,,,,,,,,,,,,,,,,,,,,,,,,,,,,,,,,,,,,,,,,,,,,,174,porta,Catalan,Sounds/cat_porta.mp3,2020-06-22_11h06.37.843,TranslationElicitation_spa,3.2.4,Win32,60,55334jfdklgneroijnrpo3994493,,1,0,80,66,1,79
,,,,,,,,,,,,,,,,,,,,,,,,,,,,,,,,,,,t,6.664999962,T,FALSE,,,,,,,178,taronja,Catalan,Sounds/cat_taronja.mp3,2020-06-22_11h06.37.843,TranslationElicitation_spa,3.2.4,Win32,60,55334jfdklgneroijnrpo3994493,,1,0,80,70,1,79
,,,,,,,,,,,,,,,,,,,,,,,,,,,,,,,,,,,r,6.86500001,TR,FALSE,,,,,,,178,taronja,Catalan,Sounds/cat_taronja.mp3,2020-06-22_11h06.37.843,TranslationElicitation_spa,3.2.4,Win32,60,55334jfdklgneroijnrpo3994493,,1,0,80,70,1,79
,,,,,,,,,,,,,,,,,,,,,,,,,,,,,,,,,,,a,6.949999809,TRA,FALSE,,,,,,,178,taronja,Catalan,Sounds/cat_taronja.mp3,2020-06-22_11h06.37.843,TranslationElicitation_spa,3.2.4,Win32,60,55334jfdklgneroijnrpo3994493,,1,0,80,70,1,79
,,,,,,,,,,,,,,,,,,,,,,,,,,,,,,,,,,,j,7.182999849,TRAJ,FALSE,,,,,,,178,taronja,Catalan,Sounds/cat_taronja.mp3,2020-06-22_11h06.37.843,TranslationElicitation_spa,3.2.4,Win32,60,55334jfdklgneroijnrpo3994493,,1,0,80,70,1,79
,,,,,,,,,,,,,,,,,,,,,,,,,,,,,,,,,,,e,7.282999992,TRAJE,FALSE,,,,,,,178,taronja,Catalan,Sounds/cat_taronja.mp3,2020-06-22_11h06.37.843,TranslationElicitation_spa,3.2.4,Win32,60,55334jfdklgneroijnrpo3994493,,1,0,80,70,1,79
,,,,,,,,,,,,,,,,,,,,,,,,,,,,,,,,,,,return,7.899999857,,FALSE,,,,,,,178,taronja,Catalan,Sounds/cat_taronja.mp3,2020-06-22_11h06.37.843,TranslationElicitation_spa,3.2.4,Win32,60,55334jfdklgneroijnrpo3994493,7.899999857,1,0,80,70,1,79
,,,,,,,,,,,,,,,,,,,,,,,,,,,,,,,,,,,,,,,,,,,,,178,taronja,Catalan,Sounds/cat_taronja.mp3,2020-06-22_11h06.37.843,TranslationElicitation_spa,3.2.4,Win32,60,55334jfdklgneroijnrpo3994493,,1,0,80,70,1,79
,,,,,,,,,,,,,,,,,,,,,,,,,,,,,,,,,,,h,2.817000151,H,FALSE,,,,,,,148,lleo,Catalan,Sounds/cat_lleo.mp3,2020-06-22_11h06.37.843,TranslationElicitation_spa,3.2.4,Win32,60,55334jfdklgneroijnrpo3994493,,1,0,80,42,1,79
,,,,,,,,,,,,,,,,,,,,,,,,,,,,,,,,,,,o,2.985000134,HO,FALSE,,,,,,,148,lleo,Catalan,Sounds/cat_lleo.mp3,2020-06-22_11h06.37.843,TranslationElicitation_spa,3.2.4,Win32,60,55334jfdklgneroijnrpo3994493,,1,0,80,42,1,79
,,,,,,,,,,,,,,,,,,,,,,,,,,,,,,,,,,,r,3.072999954,HOR,FALSE,,,,,,,148,lleo,Catalan,Sounds/cat_lleo.mp3,2020-06-22_11h06.37.843,TranslationElicitation_spa,3.2.4,Win32,60,55334jfdklgneroijnrpo3994493,,1,0,80,42,1,79
,,,,,,,,,,,,,,,,,,,,,,,,,,,,,,,,,,,a,3.351000071,HORA,FALSE,,,,,,,148,lleo,Catalan,Sounds/cat_lleo.mp3,2020-06-22_11h06.37.843,TranslationElicitation_spa,3.2.4,Win32,60,55334jfdklgneroijnrpo3994493,,1,0,80,42,1,79
,,,,,,,,,,,,,,,,,,,,,,,,,,,,,,,,,,,return,3.501000166,,FALSE,,,,,,,148,lleo,Catalan,Sounds/cat_lleo.mp3,2020-06-22_11h06.37.843,TranslationElicitation_spa,3.2.4,Win32,60,55334jfdklgneroijnrpo3994493,3.501000166,1,0,80,42,1,79
,,,,,,,,,,,,,,,,,,,,,,,,,,,,,,,,,,,,,,,,,,,,,148,lleo,Catalan,Sounds/cat_lleo.mp3,2020-06-22_11h06.37.843,TranslationElicitation_spa,3.2.4,Win32,60,55334jfdklgneroijnrpo3994493,,1,0,80,42,1,79
,,,,,,,,,,,,,,,,,,,,,,,,,,,,,,,,,,,h,1.416000128,H,FALSE,,,,,,,135,formiga,Catalan,Sounds/cat_formiga.mp3,2020-06-22_11h06.37.843,TranslationElicitation_spa,3.2.4,Win32,60,55334jfdklgneroijnrpo3994493,,1,0,80,30,1,79
,,,,,,,,,,,,,,,,,,,,,,,,,,,,,,,,,,,o,1.565000057,HO,FALSE,,,,,,,135,formiga,Catalan,Sounds/cat_formiga.mp3,2020-06-22_11h06.37.843,TranslationElicitation_spa,3.2.4,Win32,60,55334jfdklgneroijnrpo3994493,,1,0,80,30,1,79
,,,,,,,,,,,,,,,,,,,,,,,,,,,,,,,,,,,r,1.697999954,HOR,FALSE,,,,,,,135,formiga,Catalan,Sounds/cat_formiga.mp3,2020-06-22_11h06.37.843,TranslationElicitation_spa,3.2.4,Win32,60,55334jfdklgneroijnrpo3994493,,1,0,80,30,1,79
,,,,,,,,,,,,,,,,,,,,,,,,,,,,,,,,,,,m,1.815000057,HORM,FALSE,,,,,,,135,formiga,Catalan,Sounds/cat_formiga.mp3,2020-06-22_11h06.37.843,TranslationElicitation_spa,3.2.4,Win32,60,55334jfdklgneroijnrpo3994493,,1,0,80,30,1,79
,,,,,,,,,,,,,,,,,,,,,,,,,,,,,,,,,,,i,1.980999947,HORMI,FALSE,,,,,,,135,formiga,Catalan,Sounds/cat_formiga.mp3,2020-06-22_11h06.37.843,TranslationElicitation_spa,3.2.4,Win32,60,55334jfdklgneroijnrpo3994493,,1,0,80,30,1,79
,,,,,,,,,,,,,,,,,,,,,,,,,,,,,,,,,,,g,2.447999954,HORMIG,FALSE,,,,,,,135,formiga,Catalan,Sounds/cat_formiga.mp3,2020-06-22_11h06.37.843,TranslationElicitation_spa,3.2.4,Win32,60,55334jfdklgneroijnrpo3994493,,1,0,80,30,1,79
,,,,,,,,,,,,,,,,,,,,,,,,,,,,,,,,,,,a,2.763999939,HORMIGA,FALSE,,,,,,,135,formiga,Catalan,Sounds/cat_formiga.mp3,2020-06-22_11h06.37.843,TranslationElicitation_spa,3.2.4,Win32,60,55334jfdklgneroijnrpo3994493,,1,0,80,30,1,79
,,,,,,,,,,,,,,,,,,,,,,,,,,,,,,,,,,,return,3.480999947,,FALSE,,,,,,,135,formiga,Catalan,Sounds/cat_formiga.mp3,2020-06-22_11h06.37.843,TranslationElicitation_spa,3.2.4,Win32,60,55334jfdklgneroijnrpo3994493,3.480999947,1,0,80,30,1,79
,,,,,,,,,,,,,,,,,,,,,,,,,,,,,,,,,,,,,,,,,,,,,135,formiga,Catalan,Sounds/cat_formiga.mp3,2020-06-22_11h06.37.843,TranslationElicitation_spa,3.2.4,Win32,60,55334jfdklgneroijnrpo3994493,,1,0,80,30,1,79
,,,,,,,,,,,,,,,,,,,,,,,,,,,,,,,,,,,v,2.383000135,V,FALSE,,,,,,,116,bolquer,Catalan,Sounds/cat_bolquer.mp3,2020-06-22_11h06.37.843,TranslationElicitation_spa,3.2.4,Win32,60,55334jfdklgneroijnrpo3994493,,1,0,80,11,1,79
,,,,,,,,,,,,,,,,,,,,,,,,,,,,,,,,,,,o,2.56400013,VO,FALSE,,,,,,,116,bolquer,Catalan,Sounds/cat_bolquer.mp3,2020-06-22_11h06.37.843,TranslationElicitation_spa,3.2.4,Win32,60,55334jfdklgneroijnrpo3994493,,1,0,80,11,1,79
,,,,,,,,,,,,,,,,,,,,,,,,,,,,,,,,,,,l,2.883000135,VOL,FALSE,,,,,,,116,bolquer,Catalan,Sounds/cat_bolquer.mp3,2020-06-22_11h06.37.843,TranslationElicitation_spa,3.2.4,Win32,60,55334jfdklgneroijnrpo3994493,,1,0,80,11,1,79
,,,,,,,,,,,,,,,,,,,,,,,,,,,,,,,,,,,c,3.332000017,VOLC,FALSE,,,,,,,116,bolquer,Catalan,Sounds/cat_bolquer.mp3,2020-06-22_11h06.37.843,TranslationElicitation_spa,3.2.4,Win32,60,55334jfdklgneroijnrpo3994493,,1,0,80,11,1,79
,,,,,,,,,,,,,,,,,,,,,,,,,,,,,,,,,,,a,3.582000017,VOLCA,FALSE,,,,,,,116,bolquer,Catalan,Sounds/cat_bolquer.mp3,2020-06-22_11h06.37.843,TranslationElicitation_spa,3.2.4,Win32,60,55334jfdklgneroijnrpo3994493,,1,0,80,11,1,79
,,,,,,,,,,,,,,,,,,,,,,,,,,,,,,,,,,,n,3.713999987,VOLCAN,FALSE,,,,,,,116,bolquer,Catalan,Sounds/cat_bolquer.mp3,2020-06-22_11h06.37.843,TranslationElicitation_spa,3.2.4,Win32,60,55334jfdklgneroijnrpo3994493,,1,0,80,11,1,79
,,,,,,,,,,,,,,,,,,,,,,,,,,,,,,,,,,,return,4.400000095,,FALSE,,,,,,,116,bolquer,Catalan,Sounds/cat_bolquer.mp3,2020-06-22_11h06.37.843,TranslationElicitation_spa,3.2.4,Win32,60,55334jfdklgneroijnrpo3994493,4.399000168,1,0,80,11,1,79
,,,,,,,,,,,,,,,,,,,,,,,,,,,,,,,,,,,,,,,,,,,,,116,bolquer,Catalan,Sounds/cat_bolquer.mp3,2020-06-22_11h06.37.843,TranslationElicitation_spa,3.2.4,Win32,60,55334jfdklgneroijnrpo3994493,,1,0,80,11,1,79
,,,,,,,,,,,,,,,,,,,,,,,,,,,,,,,,,,,m,1.981999874,M,FALSE,,,,,,,156,moto,Catalan,Sounds/cat_moto.mp3,2020-06-22_11h06.37.843,TranslationElicitation_spa,3.2.4,Win32,60,55334jfdklgneroijnrpo3994493,,1,0,80,50,1,79
,,,,,,,,,,,,,,,,,,,,,,,,,,,,,,,,,,,o,2.167000055,MO,FALSE,,,,,,,156,moto,Catalan,Sounds/cat_moto.mp3,2020-06-22_11h06.37.843,TranslationElicitation_spa,3.2.4,Win32,60,55334jfdklgneroijnrpo3994493,,1,0,80,50,1,79
,,,,,,,,,,,,,,,,,,,,,,,,,,,,,,,,,,,t,2.316999912,MOT,FALSE,,,,,,,156,moto,Catalan,Sounds/cat_moto.mp3,2020-06-22_11h06.37.843,TranslationElicitation_spa,3.2.4,Win32,60,55334jfdklgneroijnrpo3994493,,1,0,80,50,1,79
,,,,,,,,,,,,,,,,,,,,,,,,,,,,,,,,,,,o,2.483999968,MOTO,FALSE,,,,,,,156,moto,Catalan,Sounds/cat_moto.mp3,2020-06-22_11h06.37.843,TranslationElicitation_spa,3.2.4,Win32,60,55334jfdklgneroijnrpo3994493,,1,0,80,50,1,79
,,,,,,,,,,,,,,,,,,,,,,,,,,,,,,,,,,,return,3,,FALSE,,,,,,,156,moto,Catalan,Sounds/cat_moto.mp3,2020-06-22_11h06.37.843,TranslationElicitation_spa,3.2.4,Win32,60,55334jfdklgneroijnrpo3994493,3,1,0,80,50,1,79
,,,,,,,,,,,,,,,,,,,,,,,,,,,,,,,,,,,,,,,,,,,,,156,moto,Catalan,Sounds/cat_moto.mp3,2020-06-22_11h06.37.843,TranslationElicitation_spa,3.2.4,Win32,60,55334jfdklgneroijnrpo3994493,,1,0,80,50,1,79
,,,,,,,,,,,,,,,,,,,,,,,,,,,,,,,,,,,c,5.514000177,C,FALSE,,,,,,,125,colom,Catalan,Sounds/cat_colom.mp3,2020-06-22_11h06.37.843,TranslationElicitation_spa,3.2.4,Win32,60,55334jfdklgneroijnrpo3994493,,1,0,80,20,1,79
,,,,,,,,,,,,,,,,,,,,,,,,,,,,,,,,,,,u,5.747000217,CU,FALSE,,,,,,,125,colom,Catalan,Sounds/cat_colom.mp3,2020-06-22_11h06.37.843,TranslationElicitation_spa,3.2.4,Win32,60,55334jfdklgneroijnrpo3994493,,1,0,80,20,1,79
,,,,,,,,,,,,,,,,,,,,,,,,,,,,,,,,,,,l,5.98300004,CUL,FALSE,,,,,,,125,colom,Catalan,Sounds/cat_colom.mp3,2020-06-22_11h06.37.843,TranslationElicitation_spa,3.2.4,Win32,60,55334jfdklgneroijnrpo3994493,,1,0,80,20,1,79
,,,,,,,,,,,,,,,,,,,,,,,,,,,,,,,,,,,o,6.164000034,CULO,FALSE,,,,,,,125,colom,Catalan,Sounds/cat_colom.mp3,2020-06-22_11h06.37.843,TranslationElicitation_spa,3.2.4,Win32,60,55334jfdklgneroijnrpo3994493,,1,0,80,20,1,79
,,,,,,,,,,,,,,,,,,,,,,,,,,,,,,,,,,,return,7.015000105,,FALSE,,,,,,,125,colom,Catalan,Sounds/cat_colom.mp3,2020-06-22_11h06.37.843,TranslationElicitation_spa,3.2.4,Win32,60,55334jfdklgneroijnrpo3994493,7.015000105,1,0,80,20,1,79
,,,,,,,,,,,,,,,,,,,,,,,,,,,,,,,,,,,,,,,,,,,,,125,colom,Catalan,Sounds/cat_colom.mp3,2020-06-22_11h06.37.843,TranslationElicitation_spa,3.2.4,Win32,60,55334jfdklgneroijnrpo3994493,,1,0,80,20,1,79
,,,,,,,,,,,,,,,,,,,,,,,,,,,,,,,,,,,p,1.21600008,P,FALSE,,,,,,,163,papallona,Catalan,Sounds/cat_papallona.mp3,2020-06-22_11h06.37.843,TranslationElicitation_spa,3.2.4,Win32,60,55334jfdklgneroijnrpo3994493,,1,0,80,56,1,79
,,,,,,,,,,,,,,,,,,,,,,,,,,,,,,,,,,,a,1.384000063,PA,FALSE,,,,,,,163,papallona,Catalan,Sounds/cat_papallona.mp3,2020-06-22_11h06.37.843,TranslationElicitation_spa,3.2.4,Win32,60,55334jfdklgneroijnrpo3994493,,1,0,80,56,1,79
,,,,,,,,,,,,,,,,,,,,,,,,,,,,,,,,,,,p,1.534000158,PAP,FALSE,,,,,,,163,papallona,Catalan,Sounds/cat_papallona.mp3,2020-06-22_11h06.37.843,TranslationElicitation_spa,3.2.4,Win32,60,55334jfdklgneroijnrpo3994493,,1,0,80,56,1,79
,,,,,,,,,,,,,,,,,,,,,,,,,,,,,,,,,,,a,1.633000135,PAPA,FALSE,,,,,,,163,papallona,Catalan,Sounds/cat_papallona.mp3,2020-06-22_11h06.37.843,TranslationElicitation_spa,3.2.4,Win32,60,55334jfdklgneroijnrpo3994493,,1,0,80,56,1,79
,,,,,,,,,,,,,,,,,,,,,,,,,,,,,,,,,,,y,1.911000013,PAPAY,FALSE,,,,,,,163,papallona,Catalan,Sounds/cat_papallona.mp3,2020-06-22_11h06.37.843,TranslationElicitation_spa,3.2.4,Win32,60,55334jfdklgneroijnrpo3994493,,1,0,80,56,1,79
,,,,,,,,,,,,,,,,,,,,,,,,,,,,,,,,,,,a,2.083000183,PAPAYA,FALSE,,,,,,,163,papallona,Catalan,Sounds/cat_papallona.mp3,2020-06-22_11h06.37.843,TranslationElicitation_spa,3.2.4,Win32,60,55334jfdklgneroijnrpo3994493,,1,0,80,56,1,79
,,,,,,,,,,,,,,,,,,,,,,,,,,,,,,,,,,,return,2.552999973,,FALSE,,,,,,,163,papallona,Catalan,Sounds/cat_papallona.mp3,2020-06-22_11h06.37.843,TranslationElicitation_spa,3.2.4,Win32,60,55334jfdklgneroijnrpo3994493,2.552999973,1,0,80,56,1,79
,,,,,,,,,,,,,,,,,,,,,,,,,,,,,,,,,,,,,,,,,,,,,163,papallona,Catalan,Sounds/cat_papallona.mp3,2020-06-22_11h06.37.843,TranslationElicitation_spa,3.2.4,Win32,60,55334jfdklgneroijnrpo3994493,,1,0,80,56,1,79
,,,,,,,,,,,,,,,,,,,,,,,,,,,,,,,,,,,a,2.484999895,A,FALSE,,,,,,,133,estruc,Catalan,Sounds/cat_estruc.mp3,2020-06-22_11h06.37.843,TranslationElicitation_spa,3.2.4,Win32,60,55334jfdklgneroijnrpo3994493,,1,0,80,28,1,79
,,,,,,,,,,,,,,,,,,,,,,,,,,,,,,,,,,,v,2.733999968,AV,FALSE,,,,,,,133,estruc,Catalan,Sounds/cat_estruc.mp3,2020-06-22_11h06.37.843,TranslationElicitation_spa,3.2.4,Win32,60,55334jfdklgneroijnrpo3994493,,1,0,80,28,1,79
,,,,,,,,,,,,,,,,,,,,,,,,,,,,,,,,,,,e,2.898999929,AVE,FALSE,,,,,,,133,estruc,Catalan,Sounds/cat_estruc.mp3,2020-06-22_11h06.37.843,TranslationElicitation_spa,3.2.4,Win32,60,55334jfdklgneroijnrpo3994493,,1,0,80,28,1,79
,,,,,,,,,,,,,,,,,,,,,,,,,,,,,,,,,,,s,3.115999937,AVES,FALSE,,,,,,,133,estruc,Catalan,Sounds/cat_estruc.mp3,2020-06-22_11h06.37.843,TranslationElicitation_spa,3.2.4,Win32,60,55334jfdklgneroijnrpo3994493,,1,0,80,28,1,79
,,,,,,,,,,,,,,,,,,,,,,,,,,,,,,,,,,,t,3.299999952,AVEST,FALSE,,,,,,,133,estruc,Catalan,Sounds/cat_estruc.mp3,2020-06-22_11h06.37.843,TranslationElicitation_spa,3.2.4,Win32,60,55334jfdklgneroijnrpo3994493,,1,0,80,28,1,79
,,,,,,,,,,,,,,,,,,,,,,,,,,,,,,,,,,,r,3.588000059,AVESTR,FALSE,,,,,,,133,estruc,Catalan,Sounds/cat_estruc.mp3,2020-06-22_11h06.37.843,TranslationElicitation_spa,3.2.4,Win32,60,55334jfdklgneroijnrpo3994493,,1,0,80,28,1,79
,,,,,,,,,,,,,,,,,,,,,,,,,,,,,,,,,,,u,3.78399992,AVESTRU,FALSE,,,,,,,133,estruc,Catalan,Sounds/cat_estruc.mp3,2020-06-22_11h06.37.843,TranslationElicitation_spa,3.2.4,Win32,60,55334jfdklgneroijnrpo3994493,,1,0,80,28,1,79
,,,,,,,,,,,,,,,,,,,,,,,,,,,,,,,,,,,z,4.065999985,AVESTRUZ,FALSE,,,,,,,133,estruc,Catalan,Sounds/cat_estruc.mp3,2020-06-22_11h06.37.843,TranslationElicitation_spa,3.2.4,Win32,60,55334jfdklgneroijnrpo3994493,,1,0,80,28,1,79
,,,,,,,,,,,,,,,,,,,,,,,,,,,,,,,,,,,return,11.62400007,,FALSE,,,,,,,133,estruc,Catalan,Sounds/cat_estruc.mp3,2020-06-22_11h06.37.843,TranslationElicitation_spa,3.2.4,Win32,60,55334jfdklgneroijnrpo3994493,11.62400007,1,0,80,28,1,79
,,,,,,,,,,,,,,,,,,,,,,,,,,,,,,,,,,,,,,,,,,,,,133,estruc,Catalan,Sounds/cat_estruc.mp3,2020-06-22_11h06.37.843,TranslationElicitation_spa,3.2.4,Win32,60,55334jfdklgneroijnrpo3994493,,1,0,80,28,1,79
,,,,,,,,,,,,,,,,,,,,,,,,,,,,,,,,,,,o,1.563000202,O,FALSE,,,,,,,150,lloro,Catalan,Sounds/cat_lloro.mp3,2020-06-22_11h06.37.843,TranslationElicitation_spa,3.2.4,Win32,60,55334jfdklgneroijnrpo3994493,,1,0,80,44,1,79
,,,,,,,,,,,,,,,,,,,,,,,,,,,,,,,,,,,r,1.680000067,OR,FALSE,,,,,,,150,lloro,Catalan,Sounds/cat_lloro.mp3,2020-06-22_11h06.37.843,TranslationElicitation_spa,3.2.4,Win32,60,55334jfdklgneroijnrpo3994493,,1,0,80,44,1,79
,,,,,,,,,,,,,,,,,,,,,,,,,,,,,,,,,,,o,1.979000092,ORO,FALSE,,,,,,,150,lloro,Catalan,Sounds/cat_lloro.mp3,2020-06-22_11h06.37.843,TranslationElicitation_spa,3.2.4,Win32,60,55334jfdklgneroijnrpo3994493,,1,0,80,44,1,79
,,,,,,,,,,,,,,,,,,,,,,,,,,,,,,,,,,,backspace,2.311000109,O,TRUE,,,,,,,150,lloro,Catalan,Sounds/cat_lloro.mp3,2020-06-22_11h06.37.843,TranslationElicitation_spa,3.2.4,Win32,60,55334jfdklgneroijnrpo3994493,,1,0,80,44,1,79
,,,,,,,,,,,,,,,,,,,,,,,,,,,,,,,,,,,backspace,2.53000021,,TRUE,,,,,,,150,lloro,Catalan,Sounds/cat_lloro.mp3,2020-06-22_11h06.37.843,TranslationElicitation_spa,3.2.4,Win32,60,55334jfdklgneroijnrpo3994493,,1,0,80,44,1,79
,,,,,,,,,,,,,,,,,,,,,,,,,,,,,,,,,,,l,2.796000004,L,TRUE,,,,,,,150,lloro,Catalan,Sounds/cat_lloro.mp3,2020-06-22_11h06.37.843,TranslationElicitation_spa,3.2.4,Win32,60,55334jfdklgneroijnrpo3994493,,1,0,80,44,1,79
,,,,,,,,,,,,,,,,,,,,,,,,,,,,,,,,,,,o,3.011000156,LO,TRUE,,,,,,,150,lloro,Catalan,Sounds/cat_lloro.mp3,2020-06-22_11h06.37.843,TranslationElicitation_spa,3.2.4,Win32,60,55334jfdklgneroijnrpo3994493,,1,0,80,44,1,79
,,,,,,,,,,,,,,,,,,,,,,,,,,,,,,,,,,,r,3.163000107,LOR,TRUE,,,,,,,150,lloro,Catalan,Sounds/cat_lloro.mp3,2020-06-22_11h06.37.843,TranslationElicitation_spa,3.2.4,Win32,60,55334jfdklgneroijnrpo3994493,,1,0,80,44,1,79
,,,,,,,,,,,,,,,,,,,,,,,,,,,,,,,,,,,o,3.462000132,LORO,TRUE,,,,,,,150,lloro,Catalan,Sounds/cat_lloro.mp3,2020-06-22_11h06.37.843,TranslationElicitation_spa,3.2.4,Win32,60,55334jfdklgneroijnrpo3994493,,1,0,80,44,1,79
,,,,,,,,,,,,,,,,,,,,,,,,,,,,,,,,,,,return,3.828000069,,TRUE,,,,,,,150,lloro,Catalan,Sounds/cat_lloro.mp3,2020-06-22_11h06.37.843,TranslationElicitation_spa,3.2.4,Win32,60,55334jfdklgneroijnrpo3994493,3.828000069,1,0,80,44,1,79
,,,,,,,,,,,,,,,,,,,,,,,,,,,,,,,,,,,,,,,,,,,,,150,lloro,Catalan,Sounds/cat_lloro.mp3,2020-06-22_11h06.37.843,TranslationElicitation_spa,3.2.4,Win32,60,55334jfdklgneroijnrpo3994493,,1,0,80,44,1,79
,,,,,,,,,,,,,,,,,,,,,,,,,,,,,,,,,,,o,1.282000065,O,FALSE,,,,,,,188,xocolata,Catalan,Sounds/cat_xocolata.mp3,2020-06-22_11h06.37.843,TranslationElicitation_spa,3.2.4,Win32,60,55334jfdklgneroijnrpo3994493,,1,0,80,78,1,79
,,,,,,,,,,,,,,,,,,,,,,,,,,,,,,,,,,,c,1.415999889,OC,FALSE,,,,,,,188,xocolata,Catalan,Sounds/cat_xocolata.mp3,2020-06-22_11h06.37.843,TranslationElicitation_spa,3.2.4,Win32,60,55334jfdklgneroijnrpo3994493,,1,0,80,78,1,79
,,,,,,,,,,,,,,,,,,,,,,,,,,,,,,,,,,,o,1.548000097,OCO,FALSE,,,,,,,188,xocolata,Catalan,Sounds/cat_xocolata.mp3,2020-06-22_11h06.37.843,TranslationElicitation_spa,3.2.4,Win32,60,55334jfdklgneroijnrpo3994493,,1,0,80,78,1,79
,,,,,,,,,,,,,,,,,,,,,,,,,,,,,,,,,,,backspace,1.914999962,O,TRUE,,,,,,,188,xocolata,Catalan,Sounds/cat_xocolata.mp3,2020-06-22_11h06.37.843,TranslationElicitation_spa,3.2.4,Win32,60,55334jfdklgneroijnrpo3994493,,1,0,80,78,1,79
,,,,,,,,,,,,,,,,,,,,,,,,,,,,,,,,,,,backspace,2.065999985,,TRUE,,,,,,,188,xocolata,Catalan,Sounds/cat_xocolata.mp3,2020-06-22_11h06.37.843,TranslationElicitation_spa,3.2.4,Win32,60,55334jfdklgneroijnrpo3994493,,1,0,80,78,1,79
,,,,,,,,,,,,,,,,,,,,,,,,,,,,,,,,,,,backspace,2.21600008,,TRUE,,,,,,,188,xocolata,Catalan,Sounds/cat_xocolata.mp3,2020-06-22_11h06.37.843,TranslationElicitation_spa,3.2.4,Win32,60,55334jfdklgneroijnrpo3994493,,1,0,80,78,1,79
,,,,,,,,,,,,,,,,,,,,,,,,,,,,,,,,,,,c,2.414999962,C,TRUE,,,,,,,188,xocolata,Catalan,Sounds/cat_xocolata.mp3,2020-06-22_11h06.37.843,TranslationElicitation_spa,3.2.4,Win32,60,55334jfdklgneroijnrpo3994493,,1,0,80,78,1,79
,,,,,,,,,,,,,,,,,,,,,,,,,,,,,,,,,,,h,2.565000057,CH,TRUE,,,,,,,188,xocolata,Catalan,Sounds/cat_xocolata.mp3,2020-06-22_11h06.37.843,TranslationElicitation_spa,3.2.4,Win32,60,55334jfdklgneroijnrpo3994493,,1,0,80,78,1,79
,,,,,,,,,,,,,,,,,,,,,,,,,,,,,,,,,,,o,2.768000126,CHO,TRUE,,,,,,,188,xocolata,Catalan,Sounds/cat_xocolata.mp3,2020-06-22_11h06.37.843,TranslationElicitation_spa,3.2.4,Win32,60,55334jfdklgneroijnrpo3994493,,1,0,80,78,1,79
,,,,,,,,,,,,,,,,,,,,,,,,,,,,,,,,,,,l,3,CHOL,TRUE,,,,,,,188,xocolata,Catalan,Sounds/cat_xocolata.mp3,2020-06-22_11h06.37.843,TranslationElicitation_spa,3.2.4,Win32,60,55334jfdklgneroijnrpo3994493,,1,0,80,78,1,79
,,,,,,,,,,,,,,,,,,,,,,,,,,,,,,,,,,,backspace,3.348999977,CH,TRUE,,,,,,,188,xocolata,Catalan,Sounds/cat_xocolata.mp3,2020-06-22_11h06.37.843,TranslationElicitation_spa,3.2.4,Win32,60,55334jfdklgneroijnrpo3994493,,1,0,80,78,1,79
,,,,,,,,,,,,,,,,,,,,,,,,,,,,,,,,,,,c,3.497999907,CHC,TRUE,,,,,,,188,xocolata,Catalan,Sounds/cat_xocolata.mp3,2020-06-22_11h06.37.843,TranslationElicitation_spa,3.2.4,Win32,60,55334jfdklgneroijnrpo3994493,,1,0,80,78,1,79
,,,,,,,,,,,,,,,,,,,,,,,,,,,,,,,,,,,o,3.598999977,CHCO,TRUE,,,,,,,188,xocolata,Catalan,Sounds/cat_xocolata.mp3,2020-06-22_11h06.37.843,TranslationElicitation_spa,3.2.4,Win32,60,55334jfdklgneroijnrpo3994493,,1,0,80,78,1,79
,,,,,,,,,,,,,,,,,,,,,,,,,,,,,,,,,,,l,3.768000126,CHCOL,TRUE,,,,,,,188,xocolata,Catalan,Sounds/cat_xocolata.mp3,2020-06-22_11h06.37.843,TranslationElicitation_spa,3.2.4,Win32,60,55334jfdklgneroijnrpo3994493,,1,0,80,78,1,79
,,,,,,,,,,,,,,,,,,,,,,,,,,,,,,,,,,,a,3.947999954,CHCOLA,TRUE,,,,,,,188,xocolata,Catalan,Sounds/cat_xocolata.mp3,2020-06-22_11h06.37.843,TranslationElicitation_spa,3.2.4,Win32,60,55334jfdklgneroijnrpo3994493,,1,0,80,78,1,79
,,,,,,,,,,,,,,,,,,,,,,,,,,,,,,,,,,,t,4.21600008,CHCOLAT,TRUE,,,,,,,188,xocolata,Catalan,Sounds/cat_xocolata.mp3,2020-06-22_11h06.37.843,TranslationElicitation_spa,3.2.4,Win32,60,55334jfdklgneroijnrpo3994493,,1,0,80,78,1,79
,,,,,,,,,,,,,,,,,,,,,,,,,,,,,,,,,,,e,4.631999969,CHCOLATE,TRUE,,,,,,,188,xocolata,Catalan,Sounds/cat_xocolata.mp3,2020-06-22_11h06.37.843,TranslationElicitation_spa,3.2.4,Win32,60,55334jfdklgneroijnrpo3994493,,1,0,80,78,1,79
,,,,,,,,,,,,,,,,,,,,,,,,,,,,,,,,,,,backspace,5.15199995,CHCOLA,TRUE,,,,,,,188,xocolata,Catalan,Sounds/cat_xocolata.mp3,2020-06-22_11h06.37.843,TranslationElicitation_spa,3.2.4,Win32,60,55334jfdklgneroijnrpo3994493,,1,0,80,78,1,79
,,,,,,,,,,,,,,,,,,,,,,,,,,,,,,,,,,,backspace,5.365999937,CHCO,TRUE,,,,,,,188,xocolata,Catalan,Sounds/cat_xocolata.mp3,2020-06-22_11h06.37.843,TranslationElicitation_spa,3.2.4,Win32,60,55334jfdklgneroijnrpo3994493,,1,0,80,78,1,79
,,,,,,,,,,,,,,,,,,,,,,,,,,,,,,,,,,,backspace,5.516000032,CH,TRUE,,,,,,,188,xocolata,Catalan,Sounds/cat_xocolata.mp3,2020-06-22_11h06.37.843,TranslationElicitation_spa,3.2.4,Win32,60,55334jfdklgneroijnrpo3994493,,1,0,80,78,1,79
,,,,,,,,,,,,,,,,,,,,,,,,,,,,,,,,,,,backspace,5.683000088,,TRUE,,,,,,,188,xocolata,Catalan,Sounds/cat_xocolata.mp3,2020-06-22_11h06.37.843,TranslationElicitation_spa,3.2.4,Win32,60,55334jfdklgneroijnrpo3994493,,1,0,80,78,1,79
,,,,,,,,,,,,,,,,,,,,,,,,,,,,,,,,,,,c,6.433000088,C,TRUE,,,,,,,188,xocolata,Catalan,Sounds/cat_xocolata.mp3,2020-06-22_11h06.37.843,TranslationElicitation_spa,3.2.4,Win32,60,55334jfdklgneroijnrpo3994493,,1,0,80,78,1,79
,,,,,,,,,,,,,,,,,,,,,,,,,,,,,,,,,,,h,6.566999912,CH,TRUE,,,,,,,188,xocolata,Catalan,Sounds/cat_xocolata.mp3,2020-06-22_11h06.37.843,TranslationElicitation_spa,3.2.4,Win32,60,55334jfdklgneroijnrpo3994493,,1,0,80,78,1,79
,,,,,,,,,,,,,,,,,,,,,,,,,,,,,,,,,,,o,6.732000113,CHO,TRUE,,,,,,,188,xocolata,Catalan,Sounds/cat_xocolata.mp3,2020-06-22_11h06.37.843,TranslationElicitation_spa,3.2.4,Win32,60,55334jfdklgneroijnrpo3994493,,1,0,80,78,1,79
,,,,,,,,,,,,,,,,,,,,,,,,,,,,,,,,,,,c,6.967999935,CHOC,TRUE,,,,,,,188,xocolata,Catalan,Sounds/cat_xocolata.mp3,2020-06-22_11h06.37.843,TranslationElicitation_spa,3.2.4,Win32,60,55334jfdklgneroijnrpo3994493,,1,0,80,78,1,79
,,,,,,,,,,,,,,,,,,,,,,,,,,,,,,,,,,,o,7.58100009,CHOCO,TRUE,,,,,,,188,xocolata,Catalan,Sounds/cat_xocolata.mp3,2020-06-22_11h06.37.843,TranslationElicitation_spa,3.2.4,Win32,60,55334jfdklgneroijnrpo3994493,,1,0,80,78,1,79
,,,,,,,,,,,,,,,,,,,,,,,,,,,,,,,,,,,l,8.286000013,CHOCOL,TRUE,,,,,,,188,xocolata,Catalan,Sounds/cat_xocolata.mp3,2020-06-22_11h06.37.843,TranslationElicitation_spa,3.2.4,Win32,60,55334jfdklgneroijnrpo3994493,,1,0,80,78,1,79
,,,,,,,,,,,,,,,,,,,,,,,,,,,,,,,,,,,a,8.431999922,CHOCOLA,TRUE,,,,,,,188,xocolata,Catalan,Sounds/cat_xocolata.mp3,2020-06-22_11h06.37.843,TranslationElicitation_spa,3.2.4,Win32,60,55334jfdklgneroijnrpo3994493,,1,0,80,78,1,79
,,,,,,,,,,,,,,,,,,,,,,,,,,,,,,,,,,,t,8.732000113,CHOCOLAT,TRUE,,,,,,,188,xocolata,Catalan,Sounds/cat_xocolata.mp3,2020-06-22_11h06.37.843,TranslationElicitation_spa,3.2.4,Win32,60,55334jfdklgneroijnrpo3994493,,1,0,80,78,1,79
,,,,,,,,,,,,,,,,,,,,,,,,,,,,,,,,,,,e,8.950999975,CHOCOLATE,TRUE,,,,,,,188,xocolata,Catalan,Sounds/cat_xocolata.mp3,2020-06-22_11h06.37.843,TranslationElicitation_spa,3.2.4,Win32,60,55334jfdklgneroijnrpo3994493,,1,0,80,78,1,79
,,,,,,,,,,,,,,,,,,,,,,,,,,,,,,,,,,,return,9.165999889,,TRUE,,,,,,,188,xocolata,Catalan,Sounds/cat_xocolata.mp3,2020-06-22_11h06.37.843,TranslationElicitation_spa,3.2.4,Win32,60,55334jfdklgneroijnrpo3994493,9.165999889,1,0,80,78,1,79
,,,,,,,,,,,,,,,,,,,,,,,,,,,,,,,,,,,,,,,,,,,,,188,xocolata,Catalan,Sounds/cat_xocolata.mp3,2020-06-22_11h06.37.843,TranslationElicitation_spa,3.2.4,Win32,60,55334jfdklgneroijnrpo3994493,,1,0,80,78,1,79
,,,,,,,,,,,,,,,,,,,,,,,,,,,,,,,,,,,a,1.513000011,A,FALSE,,,,,,,108,ampolla,Catalan,Sounds/cat_ampolla.mp3,2020-06-22_11h06.37.843,TranslationElicitation_spa,3.2.4,Win32,60,55334jfdklgneroijnrpo3994493,,1,0,80,4,1,79
,,,,,,,,,,,,,,,,,,,,,,,,,,,,,,,,,,,m,1.663000107,AM,FALSE,,,,,,,108,ampolla,Catalan,Sounds/cat_ampolla.mp3,2020-06-22_11h06.37.843,TranslationElicitation_spa,3.2.4,Win32,60,55334jfdklgneroijnrpo3994493,,1,0,80,4,1,79
,,,,,,,,,,,,,,,,,,,,,,,,,,,,,,,,,,,p,1.878999949,AMP,FALSE,,,,,,,108,ampolla,Catalan,Sounds/cat_ampolla.mp3,2020-06-22_11h06.37.843,TranslationElicitation_spa,3.2.4,Win32,60,55334jfdklgneroijnrpo3994493,,1,0,80,4,1,79
,,,,,,,,,,,,,,,,,,,,,,,,,,,,,,,,,,,o,2.062999964,AMPO,FALSE,,,,,,,108,ampolla,Catalan,Sounds/cat_ampolla.mp3,2020-06-22_11h06.37.843,TranslationElicitation_spa,3.2.4,Win32,60,55334jfdklgneroijnrpo3994493,,1,0,80,4,1,79
,,,,,,,,,,,,,,,,,,,,,,,,,,,,,,,,,,,l,2.292999983,AMPOL,FALSE,,,,,,,108,ampolla,Catalan,Sounds/cat_ampolla.mp3,2020-06-22_11h06.37.843,TranslationElicitation_spa,3.2.4,Win32,60,55334jfdklgneroijnrpo3994493,,1,0,80,4,1,79
,,,,,,,,,,,,,,,,,,,,,,,,,,,,,,,,,,,l,2.413000107,AMPOLL,FALSE,,,,,,,108,ampolla,Catalan,Sounds/cat_ampolla.mp3,2020-06-22_11h06.37.843,TranslationElicitation_spa,3.2.4,Win32,60,55334jfdklgneroijnrpo3994493,,1,0,80,4,1,79
,,,,,,,,,,,,,,,,,,,,,,,,,,,,,,,,,,,a,2.562000036,AMPOLLA,FALSE,,,,,,,108,ampolla,Catalan,Sounds/cat_ampolla.mp3,2020-06-22_11h06.37.843,TranslationElicitation_spa,3.2.4,Win32,60,55334jfdklgneroijnrpo3994493,,1,0,80,4,1,79
,,,,,,,,,,,,,,,,,,,,,,,,,,,,,,,,,,,return,3.095999956,,FALSE,,,,,,,108,ampolla,Catalan,Sounds/cat_ampolla.mp3,2020-06-22_11h06.37.843,TranslationElicitation_spa,3.2.4,Win32,60,55334jfdklgneroijnrpo3994493,3.095999956,1,0,80,4,1,79
,,,,,,,,,,,,,,,,,,,,,,,,,,,,,,,,,,,,,,,,,,,,,108,ampolla,Catalan,Sounds/cat_ampolla.mp3,2020-06-22_11h06.37.843,TranslationElicitation_spa,3.2.4,Win32,60,55334jfdklgneroijnrpo3994493,,1,0,80,4,1,79
,,,,,,,,,,,,,,,,,,,,,,,,,,,,,,,,,,,c,1.614000082,C,FALSE,,,,,,,127,cotxe,Catalan,Sounds/cat_cotxe.mp3,2020-06-22_11h06.37.843,TranslationElicitation_spa,3.2.4,Win32,60,55334jfdklgneroijnrpo3994493,,1,0,80,22,1,79
,,,,,,,,,,,,,,,,,,,,,,,,,,,,,,,,,,,o,1.730999947,CO,FALSE,,,,,,,127,cotxe,Catalan,Sounds/cat_cotxe.mp3,2020-06-22_11h06.37.843,TranslationElicitation_spa,3.2.4,Win32,60,55334jfdklgneroijnrpo3994493,,1,0,80,22,1,79
,,,,,,,,,,,,,,,,,,,,,,,,,,,,,,,,,,,c,2.032000065,COC,FALSE,,,,,,,127,cotxe,Catalan,Sounds/cat_cotxe.mp3,2020-06-22_11h06.37.843,TranslationElicitation_spa,3.2.4,Win32,60,55334jfdklgneroijnrpo3994493,,1,0,80,22,1,79
,,,,,,,,,,,,,,,,,,,,,,,,,,,,,,,,,,,h,2.213999987,COCH,FALSE,,,,,,,127,cotxe,Catalan,Sounds/cat_cotxe.mp3,2020-06-22_11h06.37.843,TranslationElicitation_spa,3.2.4,Win32,60,55334jfdklgneroijnrpo3994493,,1,0,80,22,1,79
,,,,,,,,,,,,,,,,,,,,,,,,,,,,,,,,,,,e,2.365999937,COCHE,FALSE,,,,,,,127,cotxe,Catalan,Sounds/cat_cotxe.mp3,2020-06-22_11h06.37.843,TranslationElicitation_spa,3.2.4,Win32,60,55334jfdklgneroijnrpo3994493,,1,0,80,22,1,79
,,,,,,,,,,,,,,,,,,,,,,,,,,,,,,,,,,,return,2.779999971,,FALSE,,,,,,,127,cotxe,Catalan,Sounds/cat_cotxe.mp3,2020-06-22_11h06.37.843,TranslationElicitation_spa,3.2.4,Win32,60,55334jfdklgneroijnrpo3994493,2.779999971,1,0,80,22,1,79
,,,,,,,,,,,,,,,,,,,,,,,,,,,,,,,,,,,,,,,,,,,,,127,cotxe,Catalan,Sounds/cat_cotxe.mp3,2020-06-22_11h06.37.843,TranslationElicitation_spa,3.2.4,Win32,60,55334jfdklgneroijnrpo3994493,,1,0,80,22,1,79
,,,,,,,,,,,,,,,,,,,,,,,,,,,,,,,,,,,b,4.215000153,B,FALSE,,,,,,,137,fulla,Catalan,Sounds/cat_fulla.mp3,2020-06-22_11h06.37.843,TranslationElicitation_spa,3.2.4,Win32,60,55334jfdklgneroijnrpo3994493,,1,0,80,32,1,79
,,,,,,,,,,,,,,,,,,,,,,,,,,,,,,,,,,,u,4.364000082,BU,FALSE,,,,,,,137,fulla,Catalan,Sounds/cat_fulla.mp3,2020-06-22_11h06.37.843,TranslationElicitation_spa,3.2.4,Win32,60,55334jfdklgneroijnrpo3994493,,1,0,80,32,1,79
,,,,,,,,,,,,,,,,,,,,,,,,,,,,,,,,,,,l,4.815000057,BUL,FALSE,,,,,,,137,fulla,Catalan,Sounds/cat_fulla.mp3,2020-06-22_11h06.37.843,TranslationElicitation_spa,3.2.4,Win32,60,55334jfdklgneroijnrpo3994493,,1,0,80,32,1,79
,,,,,,,,,,,,,,,,,,,,,,,,,,,,,,,,,,,l,5.050000191,BULL,FALSE,,,,,,,137,fulla,Catalan,Sounds/cat_fulla.mp3,2020-06-22_11h06.37.843,TranslationElicitation_spa,3.2.4,Win32,60,55334jfdklgneroijnrpo3994493,,1,0,80,32,1,79
,,,,,,,,,,,,,,,,,,,,,,,,,,,,,,,,,,,a,5.215000153,BULLA,FALSE,,,,,,,137,fulla,Catalan,Sounds/cat_fulla.mp3,2020-06-22_11h06.37.843,TranslationElicitation_spa,3.2.4,Win32,60,55334jfdklgneroijnrpo3994493,,1,0,80,32,1,79
,,,,,,,,,,,,,,,,,,,,,,,,,,,,,,,,,,,backspace,17.91900015,BUL,TRUE,,,,,,,137,fulla,Catalan,Sounds/cat_fulla.mp3,2020-06-22_11h06.37.843,TranslationElicitation_spa,3.2.4,Win32,60,55334jfdklgneroijnrpo3994493,,1,0,80,32,1,79
,,,,,,,,,,,,,,,,,,,,,,,,,,,,,,,,,,,backspace,18.2670002,B,TRUE,,,,,,,137,fulla,Catalan,Sounds/cat_fulla.mp3,2020-06-22_11h06.37.843,TranslationElicitation_spa,3.2.4,Win32,60,55334jfdklgneroijnrpo3994493,,1,0,80,32,1,79
,,,,,,,,,,,,,,,,,,,,,,,,,,,,,,,,,,,backspace,18.50100017,,TRUE,,,,,,,137,fulla,Catalan,Sounds/cat_fulla.mp3,2020-06-22_11h06.37.843,TranslationElicitation_spa,3.2.4,Win32,60,55334jfdklgneroijnrpo3994493,,1,0,80,32,1,79
,,,,,,,,,,,,,,,,,,,,,,,,,,,,,,,,,,,b,19.95200014,B,TRUE,,,,,,,137,fulla,Catalan,Sounds/cat_fulla.mp3,2020-06-22_11h06.37.843,TranslationElicitation_spa,3.2.4,Win32,60,55334jfdklgneroijnrpo3994493,,1,0,80,32,1,79
,,,,,,,,,,,,,,,,,,,,,,,,,,,,,,,,,,,r,20.08500004,BR,TRUE,,,,,,,137,fulla,Catalan,Sounds/cat_fulla.mp3,2020-06-22_11h06.37.843,TranslationElicitation_spa,3.2.4,Win32,60,55334jfdklgneroijnrpo3994493,,1,0,80,32,1,79
,,,,,,,,,,,,,,,,,,,,,,,,,,,,,,,,,,,i,20.20100021,BRI,TRUE,,,,,,,137,fulla,Catalan,Sounds/cat_fulla.mp3,2020-06-22_11h06.37.843,TranslationElicitation_spa,3.2.4,Win32,60,55334jfdklgneroijnrpo3994493,,1,0,80,32,1,79
,,,,,,,,,,,,,,,,,,,,,,,,,,,,,,,,,,,l,20.45100021,BRIL,TRUE,,,,,,,137,fulla,Catalan,Sounds/cat_fulla.mp3,2020-06-22_11h06.37.843,TranslationElicitation_spa,3.2.4,Win32,60,55334jfdklgneroijnrpo3994493,,1,0,80,32,1,79
,,,,,,,,,,,,,,,,,,,,,,,,,,,,,,,,,,,l,20.63400006,BRILL,TRUE,,,,,,,137,fulla,Catalan,Sounds/cat_fulla.mp3,2020-06-22_11h06.37.843,TranslationElicitation_spa,3.2.4,Win32,60,55334jfdklgneroijnrpo3994493,,1,0,80,32,1,79
,,,,,,,,,,,,,,,,,,,,,,,,,,,,,,,,,,,a,20.76800013,BRILLA,TRUE,,,,,,,137,fulla,Catalan,Sounds/cat_fulla.mp3,2020-06-22_11h06.37.843,TranslationElicitation_spa,3.2.4,Win32,60,55334jfdklgneroijnrpo3994493,,1,0,80,32,1,79
,,,,,,,,,,,,,,,,,,,,,,,,,,,,,,,,,,,return,21.01800013,,TRUE,,,,,,,137,fulla,Catalan,Sounds/cat_fulla.mp3,2020-06-22_11h06.37.843,TranslationElicitation_spa,3.2.4,Win32,60,55334jfdklgneroijnrpo3994493,21.01800013,1,0,80,32,1,79
,,,,,,,,,,,,,,,,,,,,,,,,,,,,,,,,,,,,,,,,,,,,,137,fulla,Catalan,Sounds/cat_fulla.mp3,2020-06-22_11h06.37.843,TranslationElicitation_spa,3.2.4,Win32,60,55334jfdklgneroijnrpo3994493,,1,0,80,32,1,79
,,,,,,,,,,,,,,,,,,,,,,,,,,,,,,,,,,,g,1.479000092,G,FALSE,,,,,,,144,gorra,Catalan,Sounds/cat_gorra.mp3,2020-06-22_11h06.37.843,TranslationElicitation_spa,3.2.4,Win32,60,55334jfdklgneroijnrpo3994493,,1,0,80,39,1,79
,,,,,,,,,,,,,,,,,,,,,,,,,,,,,,,,,,,o,1.662000179,GO,FALSE,,,,,,,144,gorra,Catalan,Sounds/cat_gorra.mp3,2020-06-22_11h06.37.843,TranslationElicitation_spa,3.2.4,Win32,60,55334jfdklgneroijnrpo3994493,,1,0,80,39,1,79
,,,,,,,,,,,,,,,,,,,,,,,,,,,,,,,,,,,r,1.812000036,GOR,FALSE,,,,,,,144,gorra,Catalan,Sounds/cat_gorra.mp3,2020-06-22_11h06.37.843,TranslationElicitation_spa,3.2.4,Win32,60,55334jfdklgneroijnrpo3994493,,1,0,80,39,1,79
,,,,,,,,,,,,,,,,,,,,,,,,,,,,,,,,,,,r,1.996000051,GORR,FALSE,,,,,,,144,gorra,Catalan,Sounds/cat_gorra.mp3,2020-06-22_11h06.37.843,TranslationElicitation_spa,3.2.4,Win32,60,55334jfdklgneroijnrpo3994493,,1,0,80,39,1,79
,,,,,,,,,,,,,,,,,,,,,,,,,,,,,,,,,,,a,2.279000044,GORRA,FALSE,,,,,,,144,gorra,Catalan,Sounds/cat_gorra.mp3,2020-06-22_11h06.37.843,TranslationElicitation_spa,3.2.4,Win32,60,55334jfdklgneroijnrpo3994493,,1,0,80,39,1,79
,,,,,,,,,,,,,,,,,,,,,,,,,,,,,,,,,,,return,2.450000048,,FALSE,,,,,,,144,gorra,Catalan,Sounds/cat_gorra.mp3,2020-06-22_11h06.37.843,TranslationElicitation_spa,3.2.4,Win32,60,55334jfdklgneroijnrpo3994493,2.44900012,1,0,80,39,1,79
,,,,,,,,,,,,,,,,,,,,,,,,,,,,,,,,,,,,,,,,,,,,,144,gorra,Catalan,Sounds/cat_gorra.mp3,2020-06-22_11h06.37.843,TranslationElicitation_spa,3.2.4,Win32,60,55334jfdklgneroijnrpo3994493,,1,0,80,39,1,79
,,,,,,,,,,,,,,,,,,,,,,,,,,,,,,,,,,,u,2.582000017,U,FALSE,,,,,,,184,ull,Catalan,Sounds/cat_ull.mp3,2020-06-22_11h06.37.843,TranslationElicitation_spa,3.2.4,Win32,60,55334jfdklgneroijnrpo3994493,,1,0,80,75,1,79
,,,,,,,,,,,,,,,,,,,,,,,,,,,,,,,,,,,n,2.747999907,UN,FALSE,,,,,,,184,ull,Catalan,Sounds/cat_ull.mp3,2020-06-22_11h06.37.843,TranslationElicitation_spa,3.2.4,Win32,60,55334jfdklgneroijnrpo3994493,,1,0,80,75,1,79
,,,,,,,,,,,,,,,,,,,,,,,,,,,,,,,,,,,return,3.34800005,,FALSE,,,,,,,184,ull,Catalan,Sounds/cat_ull.mp3,2020-06-22_11h06.37.843,TranslationElicitation_spa,3.2.4,Win32,60,55334jfdklgneroijnrpo3994493,3.34800005,1,0,80,75,1,79
,,,,,,,,,,,,,,,,,,,,,,,,,,,,,,,,,,,,,,,,,,,,,184,ull,Catalan,Sounds/cat_ull.mp3,2020-06-22_11h06.37.843,TranslationElicitation_spa,3.2.4,Win32,60,55334jfdklgneroijnrpo3994493,,1,0,80,75,1,79
,,,,,,,,,,,,,,,,,,,,,,,,,,,,,,,,,,,c,2.648000002,C,FALSE,,,,,,,128,cuc,Catalan,Sounds/cat_cuc.mp3,2020-06-22_11h06.37.843,TranslationElicitation_spa,3.2.4,Win32,60,55334jfdklgneroijnrpo3994493,,1,0,80,23,1,79
,,,,,,,,,,,,,,,,,,,,,,,,,,,,,,,,,,,o,2.865999937,CO,FALSE,,,,,,,128,cuc,Catalan,Sounds/cat_cuc.mp3,2020-06-22_11h06.37.843,TranslationElicitation_spa,3.2.4,Win32,60,55334jfdklgneroijnrpo3994493,,1,0,80,23,1,79
,,,,,,,,,,,,,,,,,,,,,,,,,,,,,,,,,,,c,2.996999979,COC,FALSE,,,,,,,128,cuc,Catalan,Sounds/cat_cuc.mp3,2020-06-22_11h06.37.843,TranslationElicitation_spa,3.2.4,Win32,60,55334jfdklgneroijnrpo3994493,,1,0,80,23,1,79
,,,,,,,,,,,,,,,,,,,,,,,,,,,,,,,,,,,i,3.146999836,COCI,FALSE,,,,,,,128,cuc,Catalan,Sounds/cat_cuc.mp3,2020-06-22_11h06.37.843,TranslationElicitation_spa,3.2.4,Win32,60,55334jfdklgneroijnrpo3994493,,1,0,80,23,1,79
,,,,,,,,,,,,,,,,,,,,,,,,,,,,,,,,,,,n,3.346999884,COCIN,FALSE,,,,,,,128,cuc,Catalan,Sounds/cat_cuc.mp3,2020-06-22_11h06.37.843,TranslationElicitation_spa,3.2.4,Win32,60,55334jfdklgneroijnrpo3994493,,1,0,80,23,1,79
,,,,,,,,,,,,,,,,,,,,,,,,,,,,,,,,,,,a,3.480000019,COCINA,FALSE,,,,,,,128,cuc,Catalan,Sounds/cat_cuc.mp3,2020-06-22_11h06.37.843,TranslationElicitation_spa,3.2.4,Win32,60,55334jfdklgneroijnrpo3994493,,1,0,80,23,1,79
,,,,,,,,,,,,,,,,,,,,,,,,,,,,,,,,,,,r,3.980000019,COCINAR,FALSE,,,,,,,128,cuc,Catalan,Sounds/cat_cuc.mp3,2020-06-22_11h06.37.843,TranslationElicitation_spa,3.2.4,Win32,60,55334jfdklgneroijnrpo3994493,,1,0,80,23,1,79
,,,,,,,,,,,,,,,,,,,,,,,,,,,,,,,,,,,return,4.279999971,,FALSE,,,,,,,128,cuc,Catalan,Sounds/cat_cuc.mp3,2020-06-22_11h06.37.843,TranslationElicitation_spa,3.2.4,Win32,60,55334jfdklgneroijnrpo3994493,4.279999971,1,0,80,23,1,79
,,,,,,,,,,,,,,,,,,,,,,,,,,,,,,,,,,,,,,,,,,,,,128,cuc,Catalan,Sounds/cat_cuc.mp3,2020-06-22_11h06.37.843,TranslationElicitation_spa,3.2.4,Win32,60,55334jfdklgneroijnrpo3994493,,1,0,80,23,1,79
,,,,,,,,,,,,,,,,,,,,,,,,,,,,,,,,,,,i,1.582000017,I,FALSE,,,,,,,149,llibre,Catalan,Sounds/cat_llibre.mp3,2020-06-22_11h06.37.843,TranslationElicitation_spa,3.2.4,Win32,60,55334jfdklgneroijnrpo3994493,,1,0,80,43,1,79
,,,,,,,,,,,,,,,,,,,,,,,,,,,,,,,,,,,b,1.75,IB,FALSE,,,,,,,149,llibre,Catalan,Sounds/cat_llibre.mp3,2020-06-22_11h06.37.843,TranslationElicitation_spa,3.2.4,Win32,60,55334jfdklgneroijnrpo3994493,,1,0,80,43,1,79
,,,,,,,,,,,,,,,,,,,,,,,,,,,,,,,,,,,r,1.900000095,IBR,FALSE,,,,,,,149,llibre,Catalan,Sounds/cat_llibre.mp3,2020-06-22_11h06.37.843,TranslationElicitation_spa,3.2.4,Win32,60,55334jfdklgneroijnrpo3994493,,1,0,80,43,1,79
,,,,,,,,,,,,,,,,,,,,,,,,,,,,,,,,,,,o,1.98300004,IBRO,FALSE,,,,,,,149,llibre,Catalan,Sounds/cat_llibre.mp3,2020-06-22_11h06.37.843,TranslationElicitation_spa,3.2.4,Win32,60,55334jfdklgneroijnrpo3994493,,1,0,80,43,1,79
,,,,,,,,,,,,,,,,,,,,,,,,,,,,,,,,,,,backspace,2.552000046,IB,TRUE,,,,,,,149,llibre,Catalan,Sounds/cat_llibre.mp3,2020-06-22_11h06.37.843,TranslationElicitation_spa,3.2.4,Win32,60,55334jfdklgneroijnrpo3994493,,1,0,80,43,1,79
