consentKey.keys,consentKey.rt,languageL1Key.keys,languageL1Key.rt,languageL2,languageL2OralKey.keys,languageL2OralKey.rt,languageL2WrittenKey.keys,languageL2WrittenKey.rt,languageL3OralKey.keys,languageL3OralKey.rt,languageL3WrittenKey.keys,languageL3WrittenKey.rt,languageCatalanOralKey.keys,languageCatalanOralKey.rt,languageCatalanWrittenKey.keys,languageCatalanWrittenKey.rt,languageCatalanTimeKey.keys,languageCatalanTimeKey.rt,age,demoSexKey.keys,demoSexKey.rt,demoEducationKey.keys,demoEducationKey.rt,city,demoVisionKey.keys,demoVisionKey.rt,demoLanguageKey.keys,demoLanguageKey.rt,setupLocationKey.keys,setupLocationKey.rt,setupNoiseKey.keys,setupNoiseKey.rt,instructionsKeys.keys,instructionsKeys.rt,keyPressed,keyPressTime,inputText,error,trials_practice.thisRepN,trials_practice.thisTrialN,trials_practice.thisN,trials_practice.thisIndex,trials_practice.ran,trials_practice.order,trial_id,word,test_language,soundfile,date,expName,psychopyVersion,OS,frameRate,participant,trialOffset,trials.thisRepN,trials.thisTrialN,trials.thisN,trials.thisIndex,trials.ran,trials.order
space,5.590000153,e,5.404000044,,4,12.91300011,4,8.937000036,,,,,3,8.990000248,1,4.582000256,1,10.05500007,20,h,3.404000044,3,8.601000071,OVIEDO,n,6.268000126,n,3.651000023,1,6.142000198,3,13.71700025,space,26.5400002,d,36.52699995,D,FALSE,1,0,5,2,1,4,159,onada,Catalan,Sounds/cat_onada.mp3,2020-06-22_00h11.59.816,TranslationElicitation_spa,3.2.4,Win32,60,553772niofhwifwelfbwqilfbqfhi,,,,,,,
,,,,,,,,,,,,,,,,,,,,,,,,,,,,,,,,,,,backspace,37.60800004,,TRUE,1,0,5,2,1,4,159,onada,Catalan,Sounds/cat_onada.mp3,2020-06-22_00h11.59.816,TranslationElicitation_spa,3.2.4,Win32,60,553772niofhwifwelfbwqilfbqfhi,,,,,,,
,,,,,,,,,,,,,,,,,,,,,,,,,,,,,,,,,,,space,38.39100003, ,TRUE,1,0,5,2,1,4,159,onada,Catalan,Sounds/cat_onada.mp3,2020-06-22_00h11.59.816,TranslationElicitation_spa,3.2.4,Win32,60,553772niofhwifwelfbwqilfbqfhi,,,,,,,
,,,,,,,,,,,,,,,,,,,,,,,,,,,,,,,,,,,return,38.79099989,,TRUE,1,0,5,2,1,4,159,onada,Catalan,Sounds/cat_onada.mp3,2020-06-22_00h11.59.816,TranslationElicitation_spa,3.2.4,Win32,60,553772niofhwifwelfbwqilfbqfhi,38.79099989,,,,,,
,,,,,,,,,,,,,,,,,,,,,,,,,,,,,,,,,,,,,,,1,0,5,2,1,4,159,onada,Catalan,Sounds/cat_onada.mp3,2020-06-22_00h11.59.816,TranslationElicitation_spa,3.2.4,Win32,60,553772niofhwifwelfbwqilfbqfhi,,,,,,,
,,,,,,,,,,,,,,,,,,,,,,,,,,,,,,,,,,,t,2.391000032,T,FALSE,1,0,5,4,1,4,179,tigre,Catalan,Sounds/cat_tigre.mp3,2020-06-22_00h11.59.816,TranslationElicitation_spa,3.2.4,Win32,60,553772niofhwifwelfbwqilfbqfhi,,,,,,,
,,,,,,,,,,,,,,,,,,,,,,,,,,,,,,,,,,,i,2.74000001,TI,FALSE,1,0,5,4,1,4,179,tigre,Catalan,Sounds/cat_tigre.mp3,2020-06-22_00h11.59.816,TranslationElicitation_spa,3.2.4,Win32,60,553772niofhwifwelfbwqilfbqfhi,,,,,,,
,,,,,,,,,,,,,,,,,,,,,,,,,,,,,,,,,,,g,3.055999994,TIG,FALSE,1,0,5,4,1,4,179,tigre,Catalan,Sounds/cat_tigre.mp3,2020-06-22_00h11.59.816,TranslationElicitation_spa,3.2.4,Win32,60,553772niofhwifwelfbwqilfbqfhi,,,,,,,
,,,,,,,,,,,,,,,,,,,,,,,,,,,,,,,,,,,r,3.190000057,TIGR,FALSE,1,0,5,4,1,4,179,tigre,Catalan,Sounds/cat_tigre.mp3,2020-06-22_00h11.59.816,TranslationElicitation_spa,3.2.4,Win32,60,553772niofhwifwelfbwqilfbqfhi,,,,,,,
,,,,,,,,,,,,,,,,,,,,,,,,,,,,,,,,,,,e,3.273000002,TIGRE,FALSE,1,0,5,4,1,4,179,tigre,Catalan,Sounds/cat_tigre.mp3,2020-06-22_00h11.59.816,TranslationElicitation_spa,3.2.4,Win32,60,553772niofhwifwelfbwqilfbqfhi,,,,,,,
,,,,,,,,,,,,,,,,,,,,,,,,,,,,,,,,,,,return,4.022000074,,FALSE,1,0,5,4,1,4,179,tigre,Catalan,Sounds/cat_tigre.mp3,2020-06-22_00h11.59.816,TranslationElicitation_spa,3.2.4,Win32,60,553772niofhwifwelfbwqilfbqfhi,4.022000074,,,,,,
,,,,,,,,,,,,,,,,,,,,,,,,,,,,,,,,,,,,,,,1,0,5,4,1,4,179,tigre,Catalan,Sounds/cat_tigre.mp3,2020-06-22_00h11.59.816,TranslationElicitation_spa,3.2.4,Win32,60,553772niofhwifwelfbwqilfbqfhi,,,,,,,
,,,,,,,,,,,,,,,,,,,,,,,,,,,,,,,,,,,r,1.380999804,R,FALSE,1,0,5,1,1,4,147,jaqueta,Catalan,Sounds/cat_jaqueta.mp3,2020-06-22_00h11.59.816,TranslationElicitation_spa,3.2.4,Win32,60,553772niofhwifwelfbwqilfbqfhi,,,,,,,
,,,,,,,,,,,,,,,,,,,,,,,,,,,,,,,,,,,a,1.478999853,RA,FALSE,1,0,5,1,1,4,147,jaqueta,Catalan,Sounds/cat_jaqueta.mp3,2020-06-22_00h11.59.816,TranslationElicitation_spa,3.2.4,Win32,60,553772niofhwifwelfbwqilfbqfhi,,,,,,,
,,,,,,,,,,,,,,,,,,,,,,,,,,,,,,,,,,,q,1.695999861,RAQ,FALSE,1,0,5,1,1,4,147,jaqueta,Catalan,Sounds/cat_jaqueta.mp3,2020-06-22_00h11.59.816,TranslationElicitation_spa,3.2.4,Win32,60,553772niofhwifwelfbwqilfbqfhi,,,,,,,
,,,,,,,,,,,,,,,,,,,,,,,,,,,,,,,,,,,u,2.377999783,RAQU,FALSE,1,0,5,1,1,4,147,jaqueta,Catalan,Sounds/cat_jaqueta.mp3,2020-06-22_00h11.59.816,TranslationElicitation_spa,3.2.4,Win32,60,553772niofhwifwelfbwqilfbqfhi,,,,,,,
,,,,,,,,,,,,,,,,,,,,,,,,,,,,,,,,,,,e,2.478999853,RAQUE,FALSE,1,0,5,1,1,4,147,jaqueta,Catalan,Sounds/cat_jaqueta.mp3,2020-06-22_00h11.59.816,TranslationElicitation_spa,3.2.4,Win32,60,553772niofhwifwelfbwqilfbqfhi,,,,,,,
,,,,,,,,,,,,,,,,,,,,,,,,,,,,,,,,,,,t,2.710999966,RAQUET,FALSE,1,0,5,1,1,4,147,jaqueta,Catalan,Sounds/cat_jaqueta.mp3,2020-06-22_00h11.59.816,TranslationElicitation_spa,3.2.4,Win32,60,553772niofhwifwelfbwqilfbqfhi,,,,,,,
,,,,,,,,,,,,,,,,,,,,,,,,,,,,,,,,,,,a,2.760999918,RAQUETA,FALSE,1,0,5,1,1,4,147,jaqueta,Catalan,Sounds/cat_jaqueta.mp3,2020-06-22_00h11.59.816,TranslationElicitation_spa,3.2.4,Win32,60,553772niofhwifwelfbwqilfbqfhi,,,,,,,
,,,,,,,,,,,,,,,,,,,,,,,,,,,,,,,,,,,return,3.52699995,,FALSE,1,0,5,1,1,4,147,jaqueta,Catalan,Sounds/cat_jaqueta.mp3,2020-06-22_00h11.59.816,TranslationElicitation_spa,3.2.4,Win32,60,553772niofhwifwelfbwqilfbqfhi,3.52699995,,,,,,
,,,,,,,,,,,,,,,,,,,,,,,,,,,,,,,,,,,,,,,1,0,5,1,1,4,147,jaqueta,Catalan,Sounds/cat_jaqueta.mp3,2020-06-22_00h11.59.816,TranslationElicitation_spa,3.2.4,Win32,60,553772niofhwifwelfbwqilfbqfhi,,,,,,,
,,,,,,,,,,,,,,,,,,,,,,,,,,,,,,,,,,,apostrophe,4.638000011,,FALSE,1,0,5,0,1,4,109,arbre,Catalan,Sounds/cat_arbre.mp3,2020-06-22_00h11.59.816,TranslationElicitation_spa,3.2.4,Win32,60,553772niofhwifwelfbwqilfbqfhi,,,,,,,
,,,,,,,,,,,,,,,,,,,,,,,,,,,,,,,,,,,a,4.721999884,Á,FALSE,1,0,5,0,1,4,109,arbre,Catalan,Sounds/cat_arbre.mp3,2020-06-22_00h11.59.816,TranslationElicitation_spa,3.2.4,Win32,60,553772niofhwifwelfbwqilfbqfhi,,,,,,,
,,,,,,,,,,,,,,,,,,,,,,,,,,,,,,,,,,,r,4.853999853,ÁR,FALSE,1,0,5,0,1,4,109,arbre,Catalan,Sounds/cat_arbre.mp3,2020-06-22_00h11.59.816,TranslationElicitation_spa,3.2.4,Win32,60,553772niofhwifwelfbwqilfbqfhi,,,,,,,
,,,,,,,,,,,,,,,,,,,,,,,,,,,,,,,,,,,b,5.138000011,ÁRB,FALSE,1,0,5,0,1,4,109,arbre,Catalan,Sounds/cat_arbre.mp3,2020-06-22_00h11.59.816,TranslationElicitation_spa,3.2.4,Win32,60,553772niofhwifwelfbwqilfbqfhi,,,,,,,
,,,,,,,,,,,,,,,,,,,,,,,,,,,,,,,,,,,o,5.270999908,ÁRBO,FALSE,1,0,5,0,1,4,109,arbre,Catalan,Sounds/cat_arbre.mp3,2020-06-22_00h11.59.816,TranslationElicitation_spa,3.2.4,Win32,60,553772niofhwifwelfbwqilfbqfhi,,,,,,,
,,,,,,,,,,,,,,,,,,,,,,,,,,,,,,,,,,,l,5.553999901,ÁRBOL,FALSE,1,0,5,0,1,4,109,arbre,Catalan,Sounds/cat_arbre.mp3,2020-06-22_00h11.59.816,TranslationElicitation_spa,3.2.4,Win32,60,553772niofhwifwelfbwqilfbqfhi,,,,,,,
,,,,,,,,,,,,,,,,,,,,,,,,,,,,,,,,,,,return,6.253999949,,FALSE,1,0,5,0,1,4,109,arbre,Catalan,Sounds/cat_arbre.mp3,2020-06-22_00h11.59.816,TranslationElicitation_spa,3.2.4,Win32,60,553772niofhwifwelfbwqilfbqfhi,6.253999949,,,,,,
,,,,,,,,,,,,,,,,,,,,,,,,,,,,,,,,,,,,,,,1,0,5,0,1,4,109,arbre,Catalan,Sounds/cat_arbre.mp3,2020-06-22_00h11.59.816,TranslationElicitation_spa,3.2.4,Win32,60,553772niofhwifwelfbwqilfbqfhi,,,,,,,
,,,,,,,,,,,,,,,,,,,,,,,,,,,,,,,,,,,p,1.926000118,P,FALSE,1,0,5,3,1,4,167,pingui,Catalan,Sounds/cat_pingui.mp3,2020-06-22_00h11.59.816,TranslationElicitation_spa,3.2.4,Win32,60,553772niofhwifwelfbwqilfbqfhi,,,,,,,
,,,,,,,,,,,,,,,,,,,,,,,,,,,,,,,,,,,i,2.544000149,PI,FALSE,1,0,5,3,1,4,167,pingui,Catalan,Sounds/cat_pingui.mp3,2020-06-22_00h11.59.816,TranslationElicitation_spa,3.2.4,Win32,60,553772niofhwifwelfbwqilfbqfhi,,,,,,,
,,,,,,,,,,,,,,,,,,,,,,,,,,,,,,,,,,,n,2.808000088,PIN,FALSE,1,0,5,3,1,4,167,pingui,Catalan,Sounds/cat_pingui.mp3,2020-06-22_00h11.59.816,TranslationElicitation_spa,3.2.4,Win32,60,553772niofhwifwelfbwqilfbqfhi,,,,,,,
,,,,,,,,,,,,,,,,,,,,,,,,,,,,,,,,,,,g,3.10800004,PING,FALSE,1,0,5,3,1,4,167,pingui,Catalan,Sounds/cat_pingui.mp3,2020-06-22_00h11.59.816,TranslationElicitation_spa,3.2.4,Win32,60,553772niofhwifwelfbwqilfbqfhi,,,,,,,
,,,,,,,,,,,,,,,,,,,,,,,,,,,,,,,,,,,u,3.35800004,PINGU,FALSE,1,0,5,3,1,4,167,pingui,Catalan,Sounds/cat_pingui.mp3,2020-06-22_00h11.59.816,TranslationElicitation_spa,3.2.4,Win32,60,553772niofhwifwelfbwqilfbqfhi,,,,,,,
,,,,,,,,,,,,,,,,,,,,,,,,,,,,,,,,,,,i,3.475000143,PINGUI,FALSE,1,0,5,3,1,4,167,pingui,Catalan,Sounds/cat_pingui.mp3,2020-06-22_00h11.59.816,TranslationElicitation_spa,3.2.4,Win32,60,553772niofhwifwelfbwqilfbqfhi,,,,,,,
,,,,,,,,,,,,,,,,,,,,,,,,,,,,,,,,,,,backspace,4.707000017,PING,TRUE,1,0,5,3,1,4,167,pingui,Catalan,Sounds/cat_pingui.mp3,2020-06-22_00h11.59.816,TranslationElicitation_spa,3.2.4,Win32,60,553772niofhwifwelfbwqilfbqfhi,,,,,,,
,,,,,,,,,,,,,,,,,,,,,,,,,,,,,,,,,,,backspace,4.873000145,PI,TRUE,1,0,5,3,1,4,167,pingui,Catalan,Sounds/cat_pingui.mp3,2020-06-22_00h11.59.816,TranslationElicitation_spa,3.2.4,Win32,60,553772niofhwifwelfbwqilfbqfhi,,,,,,,
,,,,,,,,,,,,,,,,,,,,,,,,,,,,,,,,,,,n,5.871999979,PIN,TRUE,1,0,5,3,1,4,167,pingui,Catalan,Sounds/cat_pingui.mp3,2020-06-22_00h11.59.816,TranslationElicitation_spa,3.2.4,Win32,60,553772niofhwifwelfbwqilfbqfhi,,,,,,,
,,,,,,,,,,,,,,,,,,,,,,,,,,,,,,,,,,,g,6.789000034,PING,TRUE,1,0,5,3,1,4,167,pingui,Catalan,Sounds/cat_pingui.mp3,2020-06-22_00h11.59.816,TranslationElicitation_spa,3.2.4,Win32,60,553772niofhwifwelfbwqilfbqfhi,,,,,,,
,,,,,,,,,,,,,,,,,,,,,,,,,,,,,,,,,,,apostrophe,8.236999989,PING,TRUE,1,0,5,3,1,4,167,pingui,Catalan,Sounds/cat_pingui.mp3,2020-06-22_00h11.59.816,TranslationElicitation_spa,3.2.4,Win32,60,553772niofhwifwelfbwqilfbqfhi,,,,,,,
,,,,,,,,,,,,,,,,,,,,,,,,,,,,,,,,,,,apostrophe,10.90199995,PING,TRUE,1,0,5,3,1,4,167,pingui,Catalan,Sounds/cat_pingui.mp3,2020-06-22_00h11.59.816,TranslationElicitation_spa,3.2.4,Win32,60,553772niofhwifwelfbwqilfbqfhi,,,,,,,
,,,,,,,,,,,,,,,,,,,,,,,,,,,,,,,,,,,apostrophe,12.59899998,PING,TRUE,1,0,5,3,1,4,167,pingui,Catalan,Sounds/cat_pingui.mp3,2020-06-22_00h11.59.816,TranslationElicitation_spa,3.2.4,Win32,60,553772niofhwifwelfbwqilfbqfhi,,,,,,,
,,,,,,,,,,,,,,,,,,,,,,,,,,,,,,,,,,,u,13.26600003,PINGÚ,TRUE,1,0,5,3,1,4,167,pingui,Catalan,Sounds/cat_pingui.mp3,2020-06-22_00h11.59.816,TranslationElicitation_spa,3.2.4,Win32,60,553772niofhwifwelfbwqilfbqfhi,,,,,,,
,,,,,,,,,,,,,,,,,,,,,,,,,,,,,,,,,,,backspace,14.23099995,PIN,TRUE,1,0,5,3,1,4,167,pingui,Catalan,Sounds/cat_pingui.mp3,2020-06-22_00h11.59.816,TranslationElicitation_spa,3.2.4,Win32,60,553772niofhwifwelfbwqilfbqfhi,,,,,,,
,,,,,,,,,,,,,,,,,,,,,,,,,,,,,,,,,,,apostrophe,14.7980001,PIN,TRUE,1,0,5,3,1,4,167,pingui,Catalan,Sounds/cat_pingui.mp3,2020-06-22_00h11.59.816,TranslationElicitation_spa,3.2.4,Win32,60,553772niofhwifwelfbwqilfbqfhi,,,,,,,
,,,,,,,,,,,,,,,,,,,,,,,,,,,,,,,,,,,u,15.23099995,PINÚ,TRUE,1,0,5,3,1,4,167,pingui,Catalan,Sounds/cat_pingui.mp3,2020-06-22_00h11.59.816,TranslationElicitation_spa,3.2.4,Win32,60,553772niofhwifwelfbwqilfbqfhi,,,,,,,
,,,,,,,,,,,,,,,,,,,,,,,,,,,,,,,,,,,i,15.33000016,PINÚI,TRUE,1,0,5,3,1,4,167,pingui,Catalan,Sounds/cat_pingui.mp3,2020-06-22_00h11.59.816,TranslationElicitation_spa,3.2.4,Win32,60,553772niofhwifwelfbwqilfbqfhi,,,,,,,
,,,,,,,,,,,,,,,,,,,,,,,,,,,,,,,,,,,n,15.66300011,PINÚIN,TRUE,1,0,5,3,1,4,167,pingui,Catalan,Sounds/cat_pingui.mp3,2020-06-22_00h11.59.816,TranslationElicitation_spa,3.2.4,Win32,60,553772niofhwifwelfbwqilfbqfhi,,,,,,,
,,,,,,,,,,,,,,,,,,,,,,,,,,,,,,,,,,,o,15.84599996,PINÚINO,TRUE,1,0,5,3,1,4,167,pingui,Catalan,Sounds/cat_pingui.mp3,2020-06-22_00h11.59.816,TranslationElicitation_spa,3.2.4,Win32,60,553772niofhwifwelfbwqilfbqfhi,,,,,,,
,,,,,,,,,,,,,,,,,,,,,,,,,,,,,,,,,,,backspace,16.37899995,PINÚI,TRUE,1,0,5,3,1,4,167,pingui,Catalan,Sounds/cat_pingui.mp3,2020-06-22_00h11.59.816,TranslationElicitation_spa,3.2.4,Win32,60,553772niofhwifwelfbwqilfbqfhi,,,,,,,
,,,,,,,,,,,,,,,,,,,,,,,,,,,,,,,,,,,backspace,16.54500008,PIN,TRUE,1,0,5,3,1,4,167,pingui,Catalan,Sounds/cat_pingui.mp3,2020-06-22_00h11.59.816,TranslationElicitation_spa,3.2.4,Win32,60,553772niofhwifwelfbwqilfbqfhi,,,,,,,
,,,,,,,,,,,,,,,,,,,,,,,,,,,,,,,,,,,backspace,16.71300006,P,TRUE,1,0,5,3,1,4,167,pingui,Catalan,Sounds/cat_pingui.mp3,2020-06-22_00h11.59.816,TranslationElicitation_spa,3.2.4,Win32,60,553772niofhwifwelfbwqilfbqfhi,,,,,,,
,,,,,,,,,,,,,,,,,,,,,,,,,,,,,,,,,,,i,17.49600005,PI,TRUE,1,0,5,3,1,4,167,pingui,Catalan,Sounds/cat_pingui.mp3,2020-06-22_00h11.59.816,TranslationElicitation_spa,3.2.4,Win32,60,553772niofhwifwelfbwqilfbqfhi,,,,,,,
,,,,,,,,,,,,,,,,,,,,,,,,,,,,,,,,,,,n,17.61199999,PIN,TRUE,1,0,5,3,1,4,167,pingui,Catalan,Sounds/cat_pingui.mp3,2020-06-22_00h11.59.816,TranslationElicitation_spa,3.2.4,Win32,60,553772niofhwifwelfbwqilfbqfhi,,,,,,,
,,,,,,,,,,,,,,,,,,,,,,,,,,,,,,,,,,,g,17.81100011,PING,TRUE,1,0,5,3,1,4,167,pingui,Catalan,Sounds/cat_pingui.mp3,2020-06-22_00h11.59.816,TranslationElicitation_spa,3.2.4,Win32,60,553772niofhwifwelfbwqilfbqfhi,,,,,,,
,,,,,,,,,,,,,,,,,,,,,,,,,,,,,,,,,,,u,17.92799997,PINGU,TRUE,1,0,5,3,1,4,167,pingui,Catalan,Sounds/cat_pingui.mp3,2020-06-22_00h11.59.816,TranslationElicitation_spa,3.2.4,Win32,60,553772niofhwifwelfbwqilfbqfhi,,,,,,,
,,,,,,,,,,,,,,,,,,,,,,,,,,,,,,,,,,,i,17.99500012,PINGUI,TRUE,1,0,5,3,1,4,167,pingui,Catalan,Sounds/cat_pingui.mp3,2020-06-22_00h11.59.816,TranslationElicitation_spa,3.2.4,Win32,60,553772niofhwifwelfbwqilfbqfhi,,,,,,,
,,,,,,,,,,,,,,,,,,,,,,,,,,,,,,,,,,,n,18.22900009,PINGUIN,TRUE,1,0,5,3,1,4,167,pingui,Catalan,Sounds/cat_pingui.mp3,2020-06-22_00h11.59.816,TranslationElicitation_spa,3.2.4,Win32,60,553772niofhwifwelfbwqilfbqfhi,,,,,,,
,,,,,,,,,,,,,,,,,,,,,,,,,,,,,,,,,,,o,18.3440001,PINGUINO,TRUE,1,0,5,3,1,4,167,pingui,Catalan,Sounds/cat_pingui.mp3,2020-06-22_00h11.59.816,TranslationElicitation_spa,3.2.4,Win32,60,553772niofhwifwelfbwqilfbqfhi,,,,,,,
,,,,,,,,,,,,,,,,,,,,,,,,,,,,,,,,,,,return,19.0940001,,TRUE,1,0,5,3,1,4,167,pingui,Catalan,Sounds/cat_pingui.mp3,2020-06-22_00h11.59.816,TranslationElicitation_spa,3.2.4,Win32,60,553772niofhwifwelfbwqilfbqfhi,19.0940001,,,,,,
,,,,,,,,,,,,,,,,,,,,,,,,,,,,,,,,,,,,,,,1,0,5,3,1,4,167,pingui,Catalan,Sounds/cat_pingui.mp3,2020-06-22_00h11.59.816,TranslationElicitation_spa,3.2.4,Win32,60,553772niofhwifwelfbwqilfbqfhi,,,,,,,
,,,,,,,,,,,,,,,,,,,,,,,,,,,,,,,,,,,c,1.593999863,C,FALSE,,,,,,,120,cama,Catalan,Sounds/cat_cama.mp3,2020-06-22_00h11.59.816,TranslationElicitation_spa,3.2.4,Win32,60,553772niofhwifwelfbwqilfbqfhi,,1,0,80,15,1,79
,,,,,,,,,,,,,,,,,,,,,,,,,,,,,,,,,,,a,1.77699995,CA,FALSE,,,,,,,120,cama,Catalan,Sounds/cat_cama.mp3,2020-06-22_00h11.59.816,TranslationElicitation_spa,3.2.4,Win32,60,553772niofhwifwelfbwqilfbqfhi,,1,0,80,15,1,79
,,,,,,,,,,,,,,,,,,,,,,,,,,,,,,,,,,,m,1.894999981,CAM,FALSE,,,,,,,120,cama,Catalan,Sounds/cat_cama.mp3,2020-06-22_00h11.59.816,TranslationElicitation_spa,3.2.4,Win32,60,553772niofhwifwelfbwqilfbqfhi,,1,0,80,15,1,79
,,,,,,,,,,,,,,,,,,,,,,,,,,,,,,,,,,,a,2.02699995,CAMA,FALSE,,,,,,,120,cama,Catalan,Sounds/cat_cama.mp3,2020-06-22_00h11.59.816,TranslationElicitation_spa,3.2.4,Win32,60,553772niofhwifwelfbwqilfbqfhi,,1,0,80,15,1,79
,,,,,,,,,,,,,,,,,,,,,,,,,,,,,,,,,,,return,2.342999935,,FALSE,,,,,,,120,cama,Catalan,Sounds/cat_cama.mp3,2020-06-22_00h11.59.816,TranslationElicitation_spa,3.2.4,Win32,60,553772niofhwifwelfbwqilfbqfhi,2.342999935,1,0,80,15,1,79
,,,,,,,,,,,,,,,,,,,,,,,,,,,,,,,,,,,,,,,,,,,,,120,cama,Catalan,Sounds/cat_cama.mp3,2020-06-22_00h11.59.816,TranslationElicitation_spa,3.2.4,Win32,60,553772niofhwifwelfbwqilfbqfhi,,1,0,80,15,1,79
,,,,,,,,,,,,,,,,,,,,,,,,,,,,,,,,,,,f,1.131999969,F,FALSE,,,,,,,134,flor,Catalan,Sounds/cat_flor.mp3,2020-06-22_00h11.59.816,TranslationElicitation_spa,3.2.4,Win32,60,553772niofhwifwelfbwqilfbqfhi,,1,0,80,29,1,79
,,,,,,,,,,,,,,,,,,,,,,,,,,,,,,,,,,,l,1.181999922,FL,FALSE,,,,,,,134,flor,Catalan,Sounds/cat_flor.mp3,2020-06-22_00h11.59.816,TranslationElicitation_spa,3.2.4,Win32,60,553772niofhwifwelfbwqilfbqfhi,,1,0,80,29,1,79
,,,,,,,,,,,,,,,,,,,,,,,,,,,,,,,,,,,o,1.697999954,FLO,FALSE,,,,,,,134,flor,Catalan,Sounds/cat_flor.mp3,2020-06-22_00h11.59.816,TranslationElicitation_spa,3.2.4,Win32,60,553772niofhwifwelfbwqilfbqfhi,,1,0,80,29,1,79
,,,,,,,,,,,,,,,,,,,,,,,,,,,,,,,,,,,r,1.84800005,FLOR,FALSE,,,,,,,134,flor,Catalan,Sounds/cat_flor.mp3,2020-06-22_00h11.59.816,TranslationElicitation_spa,3.2.4,Win32,60,553772niofhwifwelfbwqilfbqfhi,,1,0,80,29,1,79
,,,,,,,,,,,,,,,,,,,,,,,,,,,,,,,,,,,return,2.08100009,,FALSE,,,,,,,134,flor,Catalan,Sounds/cat_flor.mp3,2020-06-22_00h11.59.816,TranslationElicitation_spa,3.2.4,Win32,60,553772niofhwifwelfbwqilfbqfhi,2.08100009,1,0,80,29,1,79
,,,,,,,,,,,,,,,,,,,,,,,,,,,,,,,,,,,,,,,,,,,,,134,flor,Catalan,Sounds/cat_flor.mp3,2020-06-22_00h11.59.816,TranslationElicitation_spa,3.2.4,Win32,60,553772niofhwifwelfbwqilfbqfhi,,1,0,80,29,1,79
,,,,,,,,,,,,,,,,,,,,,,,,,,,,,,,,,,,v,3.312000036,V,FALSE,,,,,,,116,bolquer,Catalan,Sounds/cat_bolquer.mp3,2020-06-22_00h11.59.816,TranslationElicitation_spa,3.2.4,Win32,60,553772niofhwifwelfbwqilfbqfhi,,1,0,80,11,1,79
,,,,,,,,,,,,,,,,,,,,,,,,,,,,,,,,,,,o,3.445999861,VO,FALSE,,,,,,,116,bolquer,Catalan,Sounds/cat_bolquer.mp3,2020-06-22_00h11.59.816,TranslationElicitation_spa,3.2.4,Win32,60,553772niofhwifwelfbwqilfbqfhi,,1,0,80,11,1,79
,,,,,,,,,,,,,,,,,,,,,,,,,,,,,,,,,,,l,3.961999893,VOL,FALSE,,,,,,,116,bolquer,Catalan,Sounds/cat_bolquer.mp3,2020-06-22_00h11.59.816,TranslationElicitation_spa,3.2.4,Win32,60,553772niofhwifwelfbwqilfbqfhi,,1,0,80,11,1,79
,,,,,,,,,,,,,,,,,,,,,,,,,,,,,,,,,,,q,4.843999863,VOLQ,FALSE,,,,,,,116,bolquer,Catalan,Sounds/cat_bolquer.mp3,2020-06-22_00h11.59.816,TranslationElicitation_spa,3.2.4,Win32,60,553772niofhwifwelfbwqilfbqfhi,,1,0,80,11,1,79
,,,,,,,,,,,,,,,,,,,,,,,,,,,,,,,,,,,u,4.960999966,VOLQU,FALSE,,,,,,,116,bolquer,Catalan,Sounds/cat_bolquer.mp3,2020-06-22_00h11.59.816,TranslationElicitation_spa,3.2.4,Win32,60,553772niofhwifwelfbwqilfbqfhi,,1,0,80,11,1,79
,,,,,,,,,,,,,,,,,,,,,,,,,,,,,,,,,,,apostrophe,5.792999983,VOLQU,FALSE,,,,,,,116,bolquer,Catalan,Sounds/cat_bolquer.mp3,2020-06-22_00h11.59.816,TranslationElicitation_spa,3.2.4,Win32,60,553772niofhwifwelfbwqilfbqfhi,,1,0,80,11,1,79
,,,,,,,,,,,,,,,,,,,,,,,,,,,,,,,,,,,e,5.859999895,VOLQUÉ,FALSE,,,,,,,116,bolquer,Catalan,Sounds/cat_bolquer.mp3,2020-06-22_00h11.59.816,TranslationElicitation_spa,3.2.4,Win32,60,553772niofhwifwelfbwqilfbqfhi,,1,0,80,11,1,79
,,,,,,,,,,,,,,,,,,,,,,,,,,,,,,,,,,,backspace,10.55599999,VOLQ,TRUE,,,,,,,116,bolquer,Catalan,Sounds/cat_bolquer.mp3,2020-06-22_00h11.59.816,TranslationElicitation_spa,3.2.4,Win32,60,553772niofhwifwelfbwqilfbqfhi,,1,0,80,11,1,79
,,,,,,,,,,,,,,,,,,,,,,,,,,,,,,,,,,,backspace,10.68899989,VO,TRUE,,,,,,,116,bolquer,Catalan,Sounds/cat_bolquer.mp3,2020-06-22_00h11.59.816,TranslationElicitation_spa,3.2.4,Win32,60,553772niofhwifwelfbwqilfbqfhi,,1,0,80,11,1,79
,,,,,,,,,,,,,,,,,,,,,,,,,,,,,,,,,,,backspace,10.85599995,,TRUE,,,,,,,116,bolquer,Catalan,Sounds/cat_bolquer.mp3,2020-06-22_00h11.59.816,TranslationElicitation_spa,3.2.4,Win32,60,553772niofhwifwelfbwqilfbqfhi,,1,0,80,11,1,79
,,,,,,,,,,,,,,,,,,,,,,,,,,,,,,,,,,,v,12.28799987,V,TRUE,,,,,,,116,bolquer,Catalan,Sounds/cat_bolquer.mp3,2020-06-22_00h11.59.816,TranslationElicitation_spa,3.2.4,Win32,60,553772niofhwifwelfbwqilfbqfhi,,1,0,80,11,1,79
,,,,,,,,,,,,,,,,,,,,,,,,,,,,,,,,,,,o,12.454,VO,TRUE,,,,,,,116,bolquer,Catalan,Sounds/cat_bolquer.mp3,2020-06-22_00h11.59.816,TranslationElicitation_spa,3.2.4,Win32,60,553772niofhwifwelfbwqilfbqfhi,,1,0,80,11,1,79
,,,,,,,,,,,,,,,,,,,,,,,,,,,,,,,,,,,l,12.68700004,VOL,TRUE,,,,,,,116,bolquer,Catalan,Sounds/cat_bolquer.mp3,2020-06-22_00h11.59.816,TranslationElicitation_spa,3.2.4,Win32,60,553772niofhwifwelfbwqilfbqfhi,,1,0,80,11,1,79
,,,,,,,,,,,,,,,,,,,,,,,,,,,,,,,,,,,c,12.88699985,VOLC,TRUE,,,,,,,116,bolquer,Catalan,Sounds/cat_bolquer.mp3,2020-06-22_00h11.59.816,TranslationElicitation_spa,3.2.4,Win32,60,553772niofhwifwelfbwqilfbqfhi,,1,0,80,11,1,79
,,,,,,,,,,,,,,,,,,,,,,,,,,,,,,,,,,,a,12.98599982,VOLCA,TRUE,,,,,,,116,bolquer,Catalan,Sounds/cat_bolquer.mp3,2020-06-22_00h11.59.816,TranslationElicitation_spa,3.2.4,Win32,60,553772niofhwifwelfbwqilfbqfhi,,1,0,80,11,1,79
,,,,,,,,,,,,,,,,,,,,,,,,,,,,,,,,,,,backspace,13.56900001,VOL,TRUE,,,,,,,116,bolquer,Catalan,Sounds/cat_bolquer.mp3,2020-06-22_00h11.59.816,TranslationElicitation_spa,3.2.4,Win32,60,553772niofhwifwelfbwqilfbqfhi,,1,0,80,11,1,79
,,,,,,,,,,,,,,,,,,,,,,,,,,,,,,,,,,,apostrophe,14.28499985,VOL,TRUE,,,,,,,116,bolquer,Catalan,Sounds/cat_bolquer.mp3,2020-06-22_00h11.59.816,TranslationElicitation_spa,3.2.4,Win32,60,553772niofhwifwelfbwqilfbqfhi,,1,0,80,11,1,79
,,,,,,,,,,,,,,,,,,,,,,,,,,,,,,,,,,,a,14.38499999,VOLÁ,TRUE,,,,,,,116,bolquer,Catalan,Sounds/cat_bolquer.mp3,2020-06-22_00h11.59.816,TranslationElicitation_spa,3.2.4,Win32,60,553772niofhwifwelfbwqilfbqfhi,,1,0,80,11,1,79
,,,,,,,,,,,,,,,,,,,,,,,,,,,,,,,,,,,n,14.55200005,VOLÁN,TRUE,,,,,,,116,bolquer,Catalan,Sounds/cat_bolquer.mp3,2020-06-22_00h11.59.816,TranslationElicitation_spa,3.2.4,Win32,60,553772niofhwifwelfbwqilfbqfhi,,1,0,80,11,1,79
,,,,,,,,,,,,,,,,,,,,,,,,,,,,,,,,,,,backspace,15.08500004,VOL,TRUE,,,,,,,116,bolquer,Catalan,Sounds/cat_bolquer.mp3,2020-06-22_00h11.59.816,TranslationElicitation_spa,3.2.4,Win32,60,553772niofhwifwelfbwqilfbqfhi,,1,0,80,11,1,79
,,,,,,,,,,,,,,,,,,,,,,,,,,,,,,,,,,,backspace,15.25099993,V,TRUE,,,,,,,116,bolquer,Catalan,Sounds/cat_bolquer.mp3,2020-06-22_00h11.59.816,TranslationElicitation_spa,3.2.4,Win32,60,553772niofhwifwelfbwqilfbqfhi,,1,0,80,11,1,79
,,,,,,,,,,,,,,,,,,,,,,,,,,,,,,,,,,,o,16.26699996,VO,TRUE,,,,,,,116,bolquer,Catalan,Sounds/cat_bolquer.mp3,2020-06-22_00h11.59.816,TranslationElicitation_spa,3.2.4,Win32,60,553772niofhwifwelfbwqilfbqfhi,,1,0,80,11,1,79
,,,,,,,,,,,,,,,,,,,,,,,,,,,,,,,,,,,l,16.91799998,VOL,TRUE,,,,,,,116,bolquer,Catalan,Sounds/cat_bolquer.mp3,2020-06-22_00h11.59.816,TranslationElicitation_spa,3.2.4,Win32,60,553772niofhwifwelfbwqilfbqfhi,,1,0,80,11,1,79
,,,,,,,,,,,,,,,,,,,,,,,,,,,,,,,,,,,c,17.58200002,VOLC,TRUE,,,,,,,116,bolquer,Catalan,Sounds/cat_bolquer.mp3,2020-06-22_00h11.59.816,TranslationElicitation_spa,3.2.4,Win32,60,553772niofhwifwelfbwqilfbqfhi,,1,0,80,11,1,79
,,,,,,,,,,,,,,,,,,,,,,,,,,,,,,,,,,,apostrophe,17.91499996,VOLC,TRUE,,,,,,,116,bolquer,Catalan,Sounds/cat_bolquer.mp3,2020-06-22_00h11.59.816,TranslationElicitation_spa,3.2.4,Win32,60,553772niofhwifwelfbwqilfbqfhi,,1,0,80,11,1,79
,,,,,,,,,,,,,,,,,,,,,,,,,,,,,,,,,,,a,18.08200002,VOLCÁ,TRUE,,,,,,,116,bolquer,Catalan,Sounds/cat_bolquer.mp3,2020-06-22_00h11.59.816,TranslationElicitation_spa,3.2.4,Win32,60,553772niofhwifwelfbwqilfbqfhi,,1,0,80,11,1,79
,,,,,,,,,,,,,,,,,,,,,,,,,,,,,,,,,,,n,18.33099985,VOLCÁN,TRUE,,,,,,,116,bolquer,Catalan,Sounds/cat_bolquer.mp3,2020-06-22_00h11.59.816,TranslationElicitation_spa,3.2.4,Win32,60,553772niofhwifwelfbwqilfbqfhi,,1,0,80,11,1,79
,,,,,,,,,,,,,,,,,,,,,,,,,,,,,,,,,,,return,19.78499985,,TRUE,,,,,,,116,bolquer,Catalan,Sounds/cat_bolquer.mp3,2020-06-22_00h11.59.816,TranslationElicitation_spa,3.2.4,Win32,60,553772niofhwifwelfbwqilfbqfhi,19.78499985,1,0,80,11,1,79
,,,,,,,,,,,,,,,,,,,,,,,,,,,,,,,,,,,,,,,,,,,,,116,bolquer,Catalan,Sounds/cat_bolquer.mp3,2020-06-22_00h11.59.816,TranslationElicitation_spa,3.2.4,Win32,60,553772niofhwifwelfbwqilfbqfhi,,1,0,80,11,1,79
,,,,,,,,,,,,,,,,,,,,,,,,,,,,,,,,,,,c,2.092000008,C,FALSE,,,,,,,126,corona,Catalan,Sounds/cat_corona.mp3,2020-06-22_00h11.59.816,TranslationElicitation_spa,3.2.4,Win32,60,553772niofhwifwelfbwqilfbqfhi,,1,0,80,21,1,79
,,,,,,,,,,,,,,,,,,,,,,,,,,,,,,,,,,,o,2.642000198,CO,FALSE,,,,,,,126,corona,Catalan,Sounds/cat_corona.mp3,2020-06-22_00h11.59.816,TranslationElicitation_spa,3.2.4,Win32,60,553772niofhwifwelfbwqilfbqfhi,,1,0,80,21,1,79
,,,,,,,,,,,,,,,,,,,,,,,,,,,,,,,,,,,r,3.208000183,COR,FALSE,,,,,,,126,corona,Catalan,Sounds/cat_corona.mp3,2020-06-22_00h11.59.816,TranslationElicitation_spa,3.2.4,Win32,60,553772niofhwifwelfbwqilfbqfhi,,1,0,80,21,1,79
,,,,,,,,,,,,,,,,,,,,,,,,,,,,,,,,,,,o,3.60800004,CORO,FALSE,,,,,,,126,corona,Catalan,Sounds/cat_corona.mp3,2020-06-22_00h11.59.816,TranslationElicitation_spa,3.2.4,Win32,60,553772niofhwifwelfbwqilfbqfhi,,1,0,80,21,1,79
,,,,,,,,,,,,,,,,,,,,,,,,,,,,,,,,,,,n,3.907000065,CORON,FALSE,,,,,,,126,corona,Catalan,Sounds/cat_corona.mp3,2020-06-22_00h11.59.816,TranslationElicitation_spa,3.2.4,Win32,60,553772niofhwifwelfbwqilfbqfhi,,1,0,80,21,1,79
,,,,,,,,,,,,,,,,,,,,,,,,,,,,,,,,,,,a,4.374000072,CORONA,FALSE,,,,,,,126,corona,Catalan,Sounds/cat_corona.mp3,2020-06-22_00h11.59.816,TranslationElicitation_spa,3.2.4,Win32,60,553772niofhwifwelfbwqilfbqfhi,,1,0,80,21,1,79
,,,,,,,,,,,,,,,,,,,,,,,,,,,,,,,,,,,return,5.039000034,,FALSE,,,,,,,126,corona,Catalan,Sounds/cat_corona.mp3,2020-06-22_00h11.59.816,TranslationElicitation_spa,3.2.4,Win32,60,553772niofhwifwelfbwqilfbqfhi,5.039000034,1,0,80,21,1,79
,,,,,,,,,,,,,,,,,,,,,,,,,,,,,,,,,,,,,,,,,,,,,126,corona,Catalan,Sounds/cat_corona.mp3,2020-06-22_00h11.59.816,TranslationElicitation_spa,3.2.4,Win32,60,553772niofhwifwelfbwqilfbqfhi,,1,0,80,21,1,79
,,,,,,,,,,,,,,,,,,,,,,,,,,,,,,,,,,,m,1.361999989,M,FALSE,,,,,,,154,mirall,Catalan,Sounds/cat_mirall.mp3,2020-06-22_00h11.59.816,TranslationElicitation_spa,3.2.4,Win32,60,553772niofhwifwelfbwqilfbqfhi,,1,0,80,48,1,79
,,,,,,,,,,,,,,,,,,,,,,,,,,,,,,,,,,,i,1.795000076,MI,FALSE,,,,,,,154,mirall,Catalan,Sounds/cat_mirall.mp3,2020-06-22_00h11.59.816,TranslationElicitation_spa,3.2.4,Win32,60,553772niofhwifwelfbwqilfbqfhi,,1,0,80,48,1,79
,,,,,,,,,,,,,,,,,,,,,,,,,,,,,,,,,,,r,2.012000084,MIR,FALSE,,,,,,,154,mirall,Catalan,Sounds/cat_mirall.mp3,2020-06-22_00h11.59.816,TranslationElicitation_spa,3.2.4,Win32,60,553772niofhwifwelfbwqilfbqfhi,,1,0,80,48,1,79
,,,,,,,,,,,,,,,,,,,,,,,,,,,,,,,,,,,a,2.194999933,MIRA,FALSE,,,,,,,154,mirall,Catalan,Sounds/cat_mirall.mp3,2020-06-22_00h11.59.816,TranslationElicitation_spa,3.2.4,Win32,60,553772niofhwifwelfbwqilfbqfhi,,1,0,80,48,1,79
,,,,,,,,,,,,,,,,,,,,,,,,,,,,,,,,,,,d,2.993999958,MIRAD,FALSE,,,,,,,154,mirall,Catalan,Sounds/cat_mirall.mp3,2020-06-22_00h11.59.816,TranslationElicitation_spa,3.2.4,Win32,60,553772niofhwifwelfbwqilfbqfhi,,1,0,80,48,1,79
,,,,,,,,,,,,,,,,,,,,,,,,,,,,,,,,,,,o,3.094000101,MIRADO,FALSE,,,,,,,154,mirall,Catalan,Sounds/cat_mirall.mp3,2020-06-22_00h11.59.816,TranslationElicitation_spa,3.2.4,Win32,60,553772niofhwifwelfbwqilfbqfhi,,1,0,80,48,1,79
,,,,,,,,,,,,,,,,,,,,,,,,,,,,,,,,,,,r,3.210999966,MIRADOR,FALSE,,,,,,,154,mirall,Catalan,Sounds/cat_mirall.mp3,2020-06-22_00h11.59.816,TranslationElicitation_spa,3.2.4,Win32,60,553772niofhwifwelfbwqilfbqfhi,,1,0,80,48,1,79
,,,,,,,,,,,,,,,,,,,,,,,,,,,,,,,,,,,return,4.459000111,,FALSE,,,,,,,154,mirall,Catalan,Sounds/cat_mirall.mp3,2020-06-22_00h11.59.816,TranslationElicitation_spa,3.2.4,Win32,60,553772niofhwifwelfbwqilfbqfhi,4.459000111,1,0,80,48,1,79
,,,,,,,,,,,,,,,,,,,,,,,,,,,,,,,,,,,,,,,,,,,,,154,mirall,Catalan,Sounds/cat_mirall.mp3,2020-06-22_00h11.59.816,TranslationElicitation_spa,3.2.4,Win32,60,553772niofhwifwelfbwqilfbqfhi,,1,0,80,48,1,79
,,,,,,,,,,,,,,,,,,,,,,,,,,,,,,,,,,,v,2.459000111,V,FALSE,,,,,,,118,bou,Catalan,Sounds/cat_bou.mp3,2020-06-22_00h11.59.816,TranslationElicitation_spa,3.2.4,Win32,60,553772niofhwifwelfbwqilfbqfhi,,1,0,80,13,1,79
,,,,,,,,,,,,,,,,,,,,,,,,,,,,,,,,,,,o,2.542000055,VO,FALSE,,,,,,,118,bou,Catalan,Sounds/cat_bou.mp3,2020-06-22_00h11.59.816,TranslationElicitation_spa,3.2.4,Win32,60,553772niofhwifwelfbwqilfbqfhi,,1,0,80,13,1,79
,,,,,,,,,,,,,,,,,,,,,,,,,,,,,,,,,,,y,2.725000143,VOY,FALSE,,,,,,,118,bou,Catalan,Sounds/cat_bou.mp3,2020-06-22_00h11.59.816,TranslationElicitation_spa,3.2.4,Win32,60,553772niofhwifwelfbwqilfbqfhi,,1,0,80,13,1,79
,,,,,,,,,,,,,,,,,,,,,,,,,,,,,,,,,,,return,3.641000032,,FALSE,,,,,,,118,bou,Catalan,Sounds/cat_bou.mp3,2020-06-22_00h11.59.816,TranslationElicitation_spa,3.2.4,Win32,60,553772niofhwifwelfbwqilfbqfhi,3.641000032,1,0,80,13,1,79
,,,,,,,,,,,,,,,,,,,,,,,,,,,,,,,,,,,,,,,,,,,,,118,bou,Catalan,Sounds/cat_bou.mp3,2020-06-22_00h11.59.816,TranslationElicitation_spa,3.2.4,Win32,60,553772niofhwifwelfbwqilfbqfhi,,1,0,80,13,1,79
,,,,,,,,,,,,,,,,,,,,,,,,,,,,,,,,,,,a,4.860000134,A,FALSE,,,,,,,108,ampolla,Catalan,Sounds/cat_ampolla.mp3,2020-06-22_00h11.59.816,TranslationElicitation_spa,3.2.4,Win32,60,553772niofhwifwelfbwqilfbqfhi,,1,0,80,4,1,79
,,,,,,,,,,,,,,,,,,,,,,,,,,,,,,,,,,,m,5.311000109,AM,FALSE,,,,,,,108,ampolla,Catalan,Sounds/cat_ampolla.mp3,2020-06-22_00h11.59.816,TranslationElicitation_spa,3.2.4,Win32,60,553772niofhwifwelfbwqilfbqfhi,,1,0,80,4,1,79
,,,,,,,,,,,,,,,,,,,,,,,,,,,,,,,,,,,p,5.377000093,AMP,FALSE,,,,,,,108,ampolla,Catalan,Sounds/cat_ampolla.mp3,2020-06-22_00h11.59.816,TranslationElicitation_spa,3.2.4,Win32,60,553772niofhwifwelfbwqilfbqfhi,,1,0,80,4,1,79
,,,,,,,,,,,,,,,,,,,,,,,,,,,,,,,,,,,o,5.593000174,AMPO,FALSE,,,,,,,108,ampolla,Catalan,Sounds/cat_ampolla.mp3,2020-06-22_00h11.59.816,TranslationElicitation_spa,3.2.4,Win32,60,553772niofhwifwelfbwqilfbqfhi,,1,0,80,4,1,79
,,,,,,,,,,,,,,,,,,,,,,,,,,,,,,,,,,,l,5.776000023,AMPOL,FALSE,,,,,,,108,ampolla,Catalan,Sounds/cat_ampolla.mp3,2020-06-22_00h11.59.816,TranslationElicitation_spa,3.2.4,Win32,60,553772niofhwifwelfbwqilfbqfhi,,1,0,80,4,1,79
,,,,,,,,,,,,,,,,,,,,,,,,,,,,,,,,,,,l,5.926000118,AMPOLL,FALSE,,,,,,,108,ampolla,Catalan,Sounds/cat_ampolla.mp3,2020-06-22_00h11.59.816,TranslationElicitation_spa,3.2.4,Win32,60,553772niofhwifwelfbwqilfbqfhi,,1,0,80,4,1,79
,,,,,,,,,,,,,,,,,,,,,,,,,,,,,,,,,,,a,6.026000023,AMPOLLA,FALSE,,,,,,,108,ampolla,Catalan,Sounds/cat_ampolla.mp3,2020-06-22_00h11.59.816,TranslationElicitation_spa,3.2.4,Win32,60,553772niofhwifwelfbwqilfbqfhi,,1,0,80,4,1,79
,,,,,,,,,,,,,,,,,,,,,,,,,,,,,,,,,,,return,6.476000071,,FALSE,,,,,,,108,ampolla,Catalan,Sounds/cat_ampolla.mp3,2020-06-22_00h11.59.816,TranslationElicitation_spa,3.2.4,Win32,60,553772niofhwifwelfbwqilfbqfhi,6.476000071,1,0,80,4,1,79
,,,,,,,,,,,,,,,,,,,,,,,,,,,,,,,,,,,,,,,,,,,,,108,ampolla,Catalan,Sounds/cat_ampolla.mp3,2020-06-22_00h11.59.816,TranslationElicitation_spa,3.2.4,Win32,60,553772niofhwifwelfbwqilfbqfhi,,1,0,80,4,1,79
,,,,,,,,,,,,,,,,,,,,,,,,,,,,,,,,,,,v,3.99000001,V,FALSE,,,,,,,187,vaixell,Catalan,Sounds/cat_vaixell.mp3,2020-06-22_00h11.59.816,TranslationElicitation_spa,3.2.4,Win32,60,553772niofhwifwelfbwqilfbqfhi,,1,0,80,77,1,79
,,,,,,,,,,,,,,,,,,,,,,,,,,,,,,,,,,,a,4.089999914,VA,FALSE,,,,,,,187,vaixell,Catalan,Sounds/cat_vaixell.mp3,2020-06-22_00h11.59.816,TranslationElicitation_spa,3.2.4,Win32,60,553772niofhwifwelfbwqilfbqfhi,,1,0,80,77,1,79
,,,,,,,,,,,,,,,,,,,,,,,,,,,,,,,,,,,s,4.189999819,VAS,FALSE,,,,,,,187,vaixell,Catalan,Sounds/cat_vaixell.mp3,2020-06-22_00h11.59.816,TranslationElicitation_spa,3.2.4,Win32,60,553772niofhwifwelfbwqilfbqfhi,,1,0,80,77,1,79
,,,,,,,,,,,,,,,,,,,,,,,,,,,,,,,,,,,o,4.322999954,VASO,FALSE,,,,,,,187,vaixell,Catalan,Sounds/cat_vaixell.mp3,2020-06-22_00h11.59.816,TranslationElicitation_spa,3.2.4,Win32,60,553772niofhwifwelfbwqilfbqfhi,,1,0,80,77,1,79
,,,,,,,,,,,,,,,,,,,,,,,,,,,,,,,,,,,return,5.138999939,,FALSE,,,,,,,187,vaixell,Catalan,Sounds/cat_vaixell.mp3,2020-06-22_00h11.59.816,TranslationElicitation_spa,3.2.4,Win32,60,553772niofhwifwelfbwqilfbqfhi,5.138999939,1,0,80,77,1,79
,,,,,,,,,,,,,,,,,,,,,,,,,,,,,,,,,,,,,,,,,,,,,187,vaixell,Catalan,Sounds/cat_vaixell.mp3,2020-06-22_00h11.59.816,TranslationElicitation_spa,3.2.4,Win32,60,553772niofhwifwelfbwqilfbqfhi,,1,0,80,77,1,79
,,,,,,,,,,,,,,,,,,,,,,,,,,,,,,,,,,,r,3.278000116,R,FALSE,,,,,,,175,raspall,Catalan,Sounds/cat_raspall.mp3,2020-06-22_00h11.59.816,TranslationElicitation_spa,3.2.4,Win32,60,553772niofhwifwelfbwqilfbqfhi,,1,0,80,67,1,79
,,,,,,,,,,,,,,,,,,,,,,,,,,,,,,,,,,,a,3.394000053,RA,FALSE,,,,,,,175,raspall,Catalan,Sounds/cat_raspall.mp3,2020-06-22_00h11.59.816,TranslationElicitation_spa,3.2.4,Win32,60,553772niofhwifwelfbwqilfbqfhi,,1,0,80,67,1,79
,,,,,,,,,,,,,,,,,,,,,,,,,,,,,,,,,,,s,3.476999998,RAS,FALSE,,,,,,,175,raspall,Catalan,Sounds/cat_raspall.mp3,2020-06-22_00h11.59.816,TranslationElicitation_spa,3.2.4,Win32,60,553772niofhwifwelfbwqilfbqfhi,,1,0,80,67,1,79
,,,,,,,,,,,,,,,,,,,,,,,,,,,,,,,,,,,p,3.794000149,RASP,FALSE,,,,,,,175,raspall,Catalan,Sounds/cat_raspall.mp3,2020-06-22_00h11.59.816,TranslationElicitation_spa,3.2.4,Win32,60,553772niofhwifwelfbwqilfbqfhi,,1,0,80,67,1,79
,,,,,,,,,,,,,,,,,,,,,,,,,,,,,,,,,,,a,4.294000149,RASPA,FALSE,,,,,,,175,raspall,Catalan,Sounds/cat_raspall.mp3,2020-06-22_00h11.59.816,TranslationElicitation_spa,3.2.4,Win32,60,553772niofhwifwelfbwqilfbqfhi,,1,0,80,67,1,79
,,,,,,,,,,,,,,,,,,,,,,,,,,,,,,,,,,,r,4.427000046,RASPAR,FALSE,,,,,,,175,raspall,Catalan,Sounds/cat_raspall.mp3,2020-06-22_00h11.59.816,TranslationElicitation_spa,3.2.4,Win32,60,553772niofhwifwelfbwqilfbqfhi,,1,0,80,67,1,79
,,,,,,,,,,,,,,,,,,,,,,,,,,,,,,,,,,,return,5.279000044,,FALSE,,,,,,,175,raspall,Catalan,Sounds/cat_raspall.mp3,2020-06-22_00h11.59.816,TranslationElicitation_spa,3.2.4,Win32,60,553772niofhwifwelfbwqilfbqfhi,5.279000044,1,0,80,67,1,79
,,,,,,,,,,,,,,,,,,,,,,,,,,,,,,,,,,,,,,,,,,,,,175,raspall,Catalan,Sounds/cat_raspall.mp3,2020-06-22_00h11.59.816,TranslationElicitation_spa,3.2.4,Win32,60,553772niofhwifwelfbwqilfbqfhi,,1,0,80,67,1,79
,,,,,,,,,,,,,,,,,,,,,,,,,,,,,,,,,,,p,2.391000032,P,FALSE,,,,,,,172,poma,Catalan,Sounds/cat_poma.mp3,2020-06-22_00h11.59.816,TranslationElicitation_spa,3.2.4,Win32,60,553772niofhwifwelfbwqilfbqfhi,,1,0,80,64,1,79
,,,,,,,,,,,,,,,,,,,,,,,,,,,,,,,,,,,o,2.508000135,PO,FALSE,,,,,,,172,poma,Catalan,Sounds/cat_poma.mp3,2020-06-22_00h11.59.816,TranslationElicitation_spa,3.2.4,Win32,60,553772niofhwifwelfbwqilfbqfhi,,1,0,80,64,1,79
,,,,,,,,,,,,,,,,,,,,,,,,,,,,,,,,,,,m,2.756999969,POM,FALSE,,,,,,,172,poma,Catalan,Sounds/cat_poma.mp3,2020-06-22_00h11.59.816,TranslationElicitation_spa,3.2.4,Win32,60,553772niofhwifwelfbwqilfbqfhi,,1,0,80,64,1,79
,,,,,,,,,,,,,,,,,,,,,,,,,,,,,,,,,,,o,2.875,POMO,FALSE,,,,,,,172,poma,Catalan,Sounds/cat_poma.mp3,2020-06-22_00h11.59.816,TranslationElicitation_spa,3.2.4,Win32,60,553772niofhwifwelfbwqilfbqfhi,,1,0,80,64,1,79
,,,,,,,,,,,,,,,,,,,,,,,,,,,,,,,,,,,return,3.157000065,,FALSE,,,,,,,172,poma,Catalan,Sounds/cat_poma.mp3,2020-06-22_00h11.59.816,TranslationElicitation_spa,3.2.4,Win32,60,553772niofhwifwelfbwqilfbqfhi,3.157000065,1,0,80,64,1,79
,,,,,,,,,,,,,,,,,,,,,,,,,,,,,,,,,,,,,,,,,,,,,172,poma,Catalan,Sounds/cat_poma.mp3,2020-06-22_00h11.59.816,TranslationElicitation_spa,3.2.4,Win32,60,553772niofhwifwelfbwqilfbqfhi,,1,0,80,64,1,79
,,,,,,,,,,,,,,,,,,,,,,,,,,,,,,,,,,,s,3.628000021,S,FALSE,,,,,,,176,samarreta,Catalan,Sounds/cat_samarreta.mp3,2020-06-22_00h11.59.816,TranslationElicitation_spa,3.2.4,Win32,60,553772niofhwifwelfbwqilfbqfhi,,1,0,80,68,1,79
,,,,,,,,,,,,,,,,,,,,,,,,,,,,,,,,,,,a,5.77699995,SA,FALSE,,,,,,,176,samarreta,Catalan,Sounds/cat_samarreta.mp3,2020-06-22_00h11.59.816,TranslationElicitation_spa,3.2.4,Win32,60,553772niofhwifwelfbwqilfbqfhi,,1,0,80,68,1,79
,,,,,,,,,,,,,,,,,,,,,,,,,,,,,,,,,,,m,6.026000023,SAM,FALSE,,,,,,,176,samarreta,Catalan,Sounds/cat_samarreta.mp3,2020-06-22_00h11.59.816,TranslationElicitation_spa,3.2.4,Win32,60,553772niofhwifwelfbwqilfbqfhi,,1,0,80,68,1,79
,,,,,,,,,,,,,,,,,,,,,,,,,,,,,,,,,,,a,6.758000135,SAMA,FALSE,,,,,,,176,samarreta,Catalan,Sounds/cat_samarreta.mp3,2020-06-22_00h11.59.816,TranslationElicitation_spa,3.2.4,Win32,60,553772niofhwifwelfbwqilfbqfhi,,1,0,80,68,1,79
,,,,,,,,,,,,,,,,,,,,,,,,,,,,,,,,,,,n,7.207999945,SAMAN,FALSE,,,,,,,176,samarreta,Catalan,Sounds/cat_samarreta.mp3,2020-06-22_00h11.59.816,TranslationElicitation_spa,3.2.4,Win32,60,553772niofhwifwelfbwqilfbqfhi,,1,0,80,68,1,79
,,,,,,,,,,,,,,,,,,,,,,,,,,,,,,,,,,,backspace,8.85800004,SAM,TRUE,,,,,,,176,samarreta,Catalan,Sounds/cat_samarreta.mp3,2020-06-22_00h11.59.816,TranslationElicitation_spa,3.2.4,Win32,60,553772niofhwifwelfbwqilfbqfhi,,1,0,80,68,1,79
,,,,,,,,,,,,,,,,,,,,,,,,,,,,,,,,,,,backspace,12.61899996,S,TRUE,,,,,,,176,samarreta,Catalan,Sounds/cat_samarreta.mp3,2020-06-22_00h11.59.816,TranslationElicitation_spa,3.2.4,Win32,60,553772niofhwifwelfbwqilfbqfhi,,1,0,80,68,1,79
,,,,,,,,,,,,,,,,,,,,,,,,,,,,,,,,,,,a,13.55200005,SA,TRUE,,,,,,,176,samarreta,Catalan,Sounds/cat_samarreta.mp3,2020-06-22_00h11.59.816,TranslationElicitation_spa,3.2.4,Win32,60,553772niofhwifwelfbwqilfbqfhi,,1,0,80,68,1,79
,,,,,,,,,,,,,,,,,,,,,,,,,,,,,,,,,,,m,13.66900015,SAM,TRUE,,,,,,,176,samarreta,Catalan,Sounds/cat_samarreta.mp3,2020-06-22_00h11.59.816,TranslationElicitation_spa,3.2.4,Win32,60,553772niofhwifwelfbwqilfbqfhi,,1,0,80,68,1,79
,,,,,,,,,,,,,,,,,,,,,,,,,,,,,,,,,,,a,13.88499999,SAMA,TRUE,,,,,,,176,samarreta,Catalan,Sounds/cat_samarreta.mp3,2020-06-22_00h11.59.816,TranslationElicitation_spa,3.2.4,Win32,60,553772niofhwifwelfbwqilfbqfhi,,1,0,80,68,1,79
,,,,,,,,,,,,,,,,,,,,,,,,,,,,,,,,,,,return,14.85100007,,TRUE,,,,,,,176,samarreta,Catalan,Sounds/cat_samarreta.mp3,2020-06-22_00h11.59.816,TranslationElicitation_spa,3.2.4,Win32,60,553772niofhwifwelfbwqilfbqfhi,14.85100007,1,0,80,68,1,79
,,,,,,,,,,,,,,,,,,,,,,,,,,,,,,,,,,,,,,,,,,,,,176,samarreta,Catalan,Sounds/cat_samarreta.mp3,2020-06-22_00h11.59.816,TranslationElicitation_spa,3.2.4,Win32,60,553772niofhwifwelfbwqilfbqfhi,,1,0,80,68,1,79
,,,,,,,,,,,,,,,,,,,,,,,,,,,,,,,,,,,t,3.263999939,T,FALSE,,,,,,,178,taronja,Catalan,Sounds/cat_taronja.mp3,2020-06-22_00h11.59.816,TranslationElicitation_spa,3.2.4,Win32,60,553772niofhwifwelfbwqilfbqfhi,,1,0,80,70,1,79
,,,,,,,,,,,,,,,,,,,,,,,,,,,,,,,,,,,r,3.306999922,TR,FALSE,,,,,,,178,taronja,Catalan,Sounds/cat_taronja.mp3,2020-06-22_00h11.59.816,TranslationElicitation_spa,3.2.4,Win32,60,553772niofhwifwelfbwqilfbqfhi,,1,0,80,70,1,79
,,,,,,,,,,,,,,,,,,,,,,,,,,,,,,,,,,,a,3.422999859,TRA,FALSE,,,,,,,178,taronja,Catalan,Sounds/cat_taronja.mp3,2020-06-22_00h11.59.816,TranslationElicitation_spa,3.2.4,Win32,60,553772niofhwifwelfbwqilfbqfhi,,1,0,80,70,1,79
,,,,,,,,,,,,,,,,,,,,,,,,,,,,,,,,,,,n,3.622999907,TRAN,FALSE,,,,,,,178,taronja,Catalan,Sounds/cat_taronja.mp3,2020-06-22_00h11.59.816,TranslationElicitation_spa,3.2.4,Win32,60,553772niofhwifwelfbwqilfbqfhi,,1,0,80,70,1,79
,,,,,,,,,,,,,,,,,,,,,,,,,,,,,,,,,,,q,3.756000042,TRANQ,FALSE,,,,,,,178,taronja,Catalan,Sounds/cat_taronja.mp3,2020-06-22_00h11.59.816,TranslationElicitation_spa,3.2.4,Win32,60,553772niofhwifwelfbwqilfbqfhi,,1,0,80,70,1,79
,,,,,,,,,,,,,,,,,,,,,,,,,,,,,,,,,,,u,3.905999899,TRANQU,FALSE,,,,,,,178,taronja,Catalan,Sounds/cat_taronja.mp3,2020-06-22_00h11.59.816,TranslationElicitation_spa,3.2.4,Win32,60,553772niofhwifwelfbwqilfbqfhi,,1,0,80,70,1,79
,,,,,,,,,,,,,,,,,,,,,,,,,,,,,,,,,,,i,4.039999962,TRANQUI,FALSE,,,,,,,178,taronja,Catalan,Sounds/cat_taronja.mp3,2020-06-22_00h11.59.816,TranslationElicitation_spa,3.2.4,Win32,60,553772niofhwifwelfbwqilfbqfhi,,1,0,80,70,1,79
,,,,,,,,,,,,,,,,,,,,,,,,,,,,,,,,,,,l,4.304999828,TRANQUIL,FALSE,,,,,,,178,taronja,Catalan,Sounds/cat_taronja.mp3,2020-06-22_00h11.59.816,TranslationElicitation_spa,3.2.4,Win32,60,553772niofhwifwelfbwqilfbqfhi,,1,0,80,70,1,79
,,,,,,,,,,,,,,,,,,,,,,,,,,,,,,,,,,,o,4.523999929,TRANQUILO,FALSE,,,,,,,178,taronja,Catalan,Sounds/cat_taronja.mp3,2020-06-22_00h11.59.816,TranslationElicitation_spa,3.2.4,Win32,60,553772niofhwifwelfbwqilfbqfhi,,1,0,80,70,1,79
,,,,,,,,,,,,,,,,,,,,,,,,,,,,,,,,,,,return,4.804999828,,FALSE,,,,,,,178,taronja,Catalan,Sounds/cat_taronja.mp3,2020-06-22_00h11.59.816,TranslationElicitation_spa,3.2.4,Win32,60,553772niofhwifwelfbwqilfbqfhi,4.804999828,1,0,80,70,1,79
,,,,,,,,,,,,,,,,,,,,,,,,,,,,,,,,,,,,,,,,,,,,,178,taronja,Catalan,Sounds/cat_taronja.mp3,2020-06-22_00h11.59.816,TranslationElicitation_spa,3.2.4,Win32,60,553772niofhwifwelfbwqilfbqfhi,,1,0,80,70,1,79
,,,,,,,,,,,,,,,,,,,,,,,,,,,,,,,,,,,g,3.125,G,FALSE,,,,,,,140,gat,Catalan,Sounds/cat_gat.mp3,2020-06-22_00h11.59.816,TranslationElicitation_spa,3.2.4,Win32,60,553772niofhwifwelfbwqilfbqfhi,,1,0,80,35,1,79
,,,,,,,,,,,,,,,,,,,,,,,,,,,,,,,,,,,a,3.240999937,GA,FALSE,,,,,,,140,gat,Catalan,Sounds/cat_gat.mp3,2020-06-22_00h11.59.816,TranslationElicitation_spa,3.2.4,Win32,60,553772niofhwifwelfbwqilfbqfhi,,1,0,80,35,1,79
,,,,,,,,,,,,,,,,,,,,,,,,,,,,,,,,,,,t,3.407999992,GAT,FALSE,,,,,,,140,gat,Catalan,Sounds/cat_gat.mp3,2020-06-22_00h11.59.816,TranslationElicitation_spa,3.2.4,Win32,60,553772niofhwifwelfbwqilfbqfhi,,1,0,80,35,1,79
,,,,,,,,,,,,,,,,,,,,,,,,,,,,,,,,,,,o,3.506999969,GATO,FALSE,,,,,,,140,gat,Catalan,Sounds/cat_gat.mp3,2020-06-22_00h11.59.816,TranslationElicitation_spa,3.2.4,Win32,60,553772niofhwifwelfbwqilfbqfhi,,1,0,80,35,1,79
,,,,,,,,,,,,,,,,,,,,,,,,,,,,,,,,,,,return,3.773999929,,FALSE,,,,,,,140,gat,Catalan,Sounds/cat_gat.mp3,2020-06-22_00h11.59.816,TranslationElicitation_spa,3.2.4,Win32,60,553772niofhwifwelfbwqilfbqfhi,3.773999929,1,0,80,35,1,79
,,,,,,,,,,,,,,,,,,,,,,,,,,,,,,,,,,,,,,,,,,,,,140,gat,Catalan,Sounds/cat_gat.mp3,2020-06-22_00h11.59.816,TranslationElicitation_spa,3.2.4,Win32,60,553772niofhwifwelfbwqilfbqfhi,,1,0,80,35,1,79
,,,,,,,,,,,,,,,,,,,,,,,,,,,,,,,,,,,n,2.147000074,N,FALSE,,,,,,,158,nas,Catalan,Sounds/cat_nas.mp3,2020-06-22_00h11.59.816,TranslationElicitation_spa,3.2.4,Win32,60,553772niofhwifwelfbwqilfbqfhi,,1,0,80,52,1,79
,,,,,,,,,,,,,,,,,,,,,,,,,,,,,,,,,,,a,2.264000177,NA,FALSE,,,,,,,158,nas,Catalan,Sounds/cat_nas.mp3,2020-06-22_00h11.59.816,TranslationElicitation_spa,3.2.4,Win32,60,553772niofhwifwelfbwqilfbqfhi,,1,0,80,52,1,79
,,,,,,,,,,,,,,,,,,,,,,,,,,,,,,,,,,,d,2.363000154,NAD,FALSE,,,,,,,158,nas,Catalan,Sounds/cat_nas.mp3,2020-06-22_00h11.59.816,TranslationElicitation_spa,3.2.4,Win32,60,553772niofhwifwelfbwqilfbqfhi,,1,0,80,52,1,79
,,,,,,,,,,,,,,,,,,,,,,,,,,,,,,,,,,,a,2.480000019,NADA,FALSE,,,,,,,158,nas,Catalan,Sounds/cat_nas.mp3,2020-06-22_00h11.59.816,TranslationElicitation_spa,3.2.4,Win32,60,553772niofhwifwelfbwqilfbqfhi,,1,0,80,52,1,79
,,,,,,,,,,,,,,,,,,,,,,,,,,,,,,,,,,,return,2.647000074,,FALSE,,,,,,,158,nas,Catalan,Sounds/cat_nas.mp3,2020-06-22_00h11.59.816,TranslationElicitation_spa,3.2.4,Win32,60,553772niofhwifwelfbwqilfbqfhi,2.647000074,1,0,80,52,1,79
,,,,,,,,,,,,,,,,,,,,,,,,,,,,,,,,,,,,,,,,,,,,,158,nas,Catalan,Sounds/cat_nas.mp3,2020-06-22_00h11.59.816,TranslationElicitation_spa,3.2.4,Win32,60,553772niofhwifwelfbwqilfbqfhi,,1,0,80,52,1,79
,,,,,,,,,,,,,,,,,,,,,,,,,,,,,,,,,,,p,1.996000051,P,FALSE,,,,,,,162,pa,Catalan,Sounds/cat_pa.mp3,2020-06-22_00h11.59.816,TranslationElicitation_spa,3.2.4,Win32,60,553772niofhwifwelfbwqilfbqfhi,,1,0,80,55,1,79
,,,,,,,,,,,,,,,,,,,,,,,,,,,,,,,,,,,a,2.128999949,PA,FALSE,,,,,,,162,pa,Catalan,Sounds/cat_pa.mp3,2020-06-22_00h11.59.816,TranslationElicitation_spa,3.2.4,Win32,60,553772niofhwifwelfbwqilfbqfhi,,1,0,80,55,1,79
,,,,,,,,,,,,,,,,,,,,,,,,,,,,,,,,,,,s,2.861999989,PAS,FALSE,,,,,,,162,pa,Catalan,Sounds/cat_pa.mp3,2020-06-22_00h11.59.816,TranslationElicitation_spa,3.2.4,Win32,60,553772niofhwifwelfbwqilfbqfhi,,1,0,80,55,1,79
,,,,,,,,,,,,,,,,,,,,,,,,,,,,,,,,,,,a,2.995000124,PASA,FALSE,,,,,,,162,pa,Catalan,Sounds/cat_pa.mp3,2020-06-22_00h11.59.816,TranslationElicitation_spa,3.2.4,Win32,60,553772niofhwifwelfbwqilfbqfhi,,1,0,80,55,1,79
,,,,,,,,,,,,,,,,,,,,,,,,,,,,,,,,,,,backspace,3.495000124,PA,TRUE,,,,,,,162,pa,Catalan,Sounds/cat_pa.mp3,2020-06-22_00h11.59.816,TranslationElicitation_spa,3.2.4,Win32,60,553772niofhwifwelfbwqilfbqfhi,,1,0,80,55,1,79
,,,,,,,,,,,,,,,,,,,,,,,,,,,,,,,,,,,backspace,3.695000172,,TRUE,,,,,,,162,pa,Catalan,Sounds/cat_pa.mp3,2020-06-22_00h11.59.816,TranslationElicitation_spa,3.2.4,Win32,60,553772niofhwifwelfbwqilfbqfhi,,1,0,80,55,1,79
,,,,,,,,,,,,,,,,,,,,,,,,,,,,,,,,,,,p,4.660000086,P,TRUE,,,,,,,162,pa,Catalan,Sounds/cat_pa.mp3,2020-06-22_00h11.59.816,TranslationElicitation_spa,3.2.4,Win32,60,553772niofhwifwelfbwqilfbqfhi,,1,0,80,55,1,79
,,,,,,,,,,,,,,,,,,,,,,,,,,,,,,,,,,,a,4.894000053,PA,TRUE,,,,,,,162,pa,Catalan,Sounds/cat_pa.mp3,2020-06-22_00h11.59.816,TranslationElicitation_spa,3.2.4,Win32,60,553772niofhwifwelfbwqilfbqfhi,,1,0,80,55,1,79
,,,,,,,,,,,,,,,,,,,,,,,,,,,,,,,,,,,p,5.02699995,PAP,TRUE,,,,,,,162,pa,Catalan,Sounds/cat_pa.mp3,2020-06-22_00h11.59.816,TranslationElicitation_spa,3.2.4,Win32,60,553772niofhwifwelfbwqilfbqfhi,,1,0,80,55,1,79
,,,,,,,,,,,,,,,,,,,,,,,,,,,,,,,,,,,a,5.243000031,PAPA,TRUE,,,,,,,162,pa,Catalan,Sounds/cat_pa.mp3,2020-06-22_00h11.59.816,TranslationElicitation_spa,3.2.4,Win32,60,553772niofhwifwelfbwqilfbqfhi,,1,0,80,55,1,79
,,,,,,,,,,,,,,,,,,,,,,,,,,,,,,,,,,,backspace,6.075999975,PA,TRUE,,,,,,,162,pa,Catalan,Sounds/cat_pa.mp3,2020-06-22_00h11.59.816,TranslationElicitation_spa,3.2.4,Win32,60,553772niofhwifwelfbwqilfbqfhi,,1,0,80,55,1,79
,,,,,,,,,,,,,,,,,,,,,,,,,,,,,,,,,,,s,6.825000048,PAS,TRUE,,,,,,,162,pa,Catalan,Sounds/cat_pa.mp3,2020-06-22_00h11.59.816,TranslationElicitation_spa,3.2.4,Win32,60,553772niofhwifwelfbwqilfbqfhi,,1,0,80,55,1,79
,,,,,,,,,,,,,,,,,,,,,,,,,,,,,,,,,,,a,6.942000151,PASA,TRUE,,,,,,,162,pa,Catalan,Sounds/cat_pa.mp3,2020-06-22_00h11.59.816,TranslationElicitation_spa,3.2.4,Win32,60,553772niofhwifwelfbwqilfbqfhi,,1,0,80,55,1,79
,,,,,,,,,,,,,,,,,,,,,,,,,,,,,,,,,,,backspace,9.291000128,PA,TRUE,,,,,,,162,pa,Catalan,Sounds/cat_pa.mp3,2020-06-22_00h11.59.816,TranslationElicitation_spa,3.2.4,Win32,60,553772niofhwifwelfbwqilfbqfhi,,1,0,80,55,1,79
,,,,,,,,,,,,,,,,,,,,,,,,,,,,,,,,,,,backspace,9.489000082,,TRUE,,,,,,,162,pa,Catalan,Sounds/cat_pa.mp3,2020-06-22_00h11.59.816,TranslationElicitation_spa,3.2.4,Win32,60,553772niofhwifwelfbwqilfbqfhi,,1,0,80,55,1,79
,,,,,,,,,,,,,,,,,,,,,,,,,,,,,,,,,,,p,10.15600014,P,TRUE,,,,,,,162,pa,Catalan,Sounds/cat_pa.mp3,2020-06-22_00h11.59.816,TranslationElicitation_spa,3.2.4,Win32,60,553772niofhwifwelfbwqilfbqfhi,,1,0,80,55,1,79
,,,,,,,,,,,,,,,,,,,,,,,,,,,,,,,,,,,a,10.27200007,PA,TRUE,,,,,,,162,pa,Catalan,Sounds/cat_pa.mp3,2020-06-22_00h11.59.816,TranslationElicitation_spa,3.2.4,Win32,60,553772niofhwifwelfbwqilfbqfhi,,1,0,80,55,1,79
,,,,,,,,,,,,,,,,,,,,,,,,,,,,,,,,,,,p,10.37100005,PAP,TRUE,,,,,,,162,pa,Catalan,Sounds/cat_pa.mp3,2020-06-22_00h11.59.816,TranslationElicitation_spa,3.2.4,Win32,60,553772niofhwifwelfbwqilfbqfhi,,1,0,80,55,1,79
,,,,,,,,,,,,,,,,,,,,,,,,,,,,,,,,,,,a,10.47300005,PAPA,TRUE,,,,,,,162,pa,Catalan,Sounds/cat_pa.mp3,2020-06-22_00h11.59.816,TranslationElicitation_spa,3.2.4,Win32,60,553772niofhwifwelfbwqilfbqfhi,,1,0,80,55,1,79
,,,,,,,,,,,,,,,,,,,,,,,,,,,,,,,,,,,return,10.85500002,,TRUE,,,,,,,162,pa,Catalan,Sounds/cat_pa.mp3,2020-06-22_00h11.59.816,TranslationElicitation_spa,3.2.4,Win32,60,553772niofhwifwelfbwqilfbqfhi,10.85500002,1,0,80,55,1,79
,,,,,,,,,,,,,,,,,,,,,,,,,,,,,,,,,,,,,,,,,,,,,162,pa,Catalan,Sounds/cat_pa.mp3,2020-06-22_00h11.59.816,TranslationElicitation_spa,3.2.4,Win32,60,553772niofhwifwelfbwqilfbqfhi,,1,0,80,55,1,79
,,,,,,,,,,,,,,,,,,,,,,,,,,,,,,,,,,,e,1.310000181,E,FALSE,,,,,,,131,esponja,Catalan,Sounds/cat_esponja.mp3,2020-06-22_00h11.59.816,TranslationElicitation_spa,3.2.4,Win32,60,553772niofhwifwelfbwqilfbqfhi,,1,0,80,26,1,79
,,,,,,,,,,,,,,,,,,,,,,,,,,,,,,,,,,,s,1.428000212,ES,FALSE,,,,,,,131,esponja,Catalan,Sounds/cat_esponja.mp3,2020-06-22_00h11.59.816,TranslationElicitation_spa,3.2.4,Win32,60,553772niofhwifwelfbwqilfbqfhi,,1,0,80,26,1,79
,,,,,,,,,,,,,,,,,,,,,,,,,,,,,,,,,,,p,2.142000198,ESP,FALSE,,,,,,,131,esponja,Catalan,Sounds/cat_esponja.mp3,2020-06-22_00h11.59.816,TranslationElicitation_spa,3.2.4,Win32,60,553772niofhwifwelfbwqilfbqfhi,,1,0,80,26,1,79
,,,,,,,,,,,,,,,,,,,,,,,,,,,,,,,,,,,a,2.310000181,ESPA,FALSE,,,,,,,131,esponja,Catalan,Sounds/cat_esponja.mp3,2020-06-22_00h11.59.816,TranslationElicitation_spa,3.2.4,Win32,60,553772niofhwifwelfbwqilfbqfhi,,1,0,80,26,1,79
,,,,,,,,,,,,,,,,,,,,,,,,,,,,,,,,,,,semicolon,2.410000086,ESPAÑ,FALSE,,,,,,,131,esponja,Catalan,Sounds/cat_esponja.mp3,2020-06-22_00h11.59.816,TranslationElicitation_spa,3.2.4,Win32,60,553772niofhwifwelfbwqilfbqfhi,,1,0,80,26,1,79
,,,,,,,,,,,,,,,,,,,,,,,,,,,,,,,,,,,a,2.526000023,ESPAÑA,FALSE,,,,,,,131,esponja,Catalan,Sounds/cat_esponja.mp3,2020-06-22_00h11.59.816,TranslationElicitation_spa,3.2.4,Win32,60,553772niofhwifwelfbwqilfbqfhi,,1,0,80,26,1,79
,,,,,,,,,,,,,,,,,,,,,,,,,,,,,,,,,,,return,2.709000111,,FALSE,,,,,,,131,esponja,Catalan,Sounds/cat_esponja.mp3,2020-06-22_00h11.59.816,TranslationElicitation_spa,3.2.4,Win32,60,553772niofhwifwelfbwqilfbqfhi,2.709000111,1,0,80,26,1,79
,,,,,,,,,,,,,,,,,,,,,,,,,,,,,,,,,,,,,,,,,,,,,131,esponja,Catalan,Sounds/cat_esponja.mp3,2020-06-22_00h11.59.816,TranslationElicitation_spa,3.2.4,Win32,60,553772niofhwifwelfbwqilfbqfhi,,1,0,80,26,1,79
,,,,,,,,,,,,,,,,,,,,,,,,,,,,,,,,,,,n,1.561999798,N,FALSE,,,,,,,151,lluna,Catalan,Sounds/cat_lluna.mp3,2020-06-22_00h11.59.816,TranslationElicitation_spa,3.2.4,Win32,60,553772niofhwifwelfbwqilfbqfhi,,1,0,80,45,1,79
,,,,,,,,,,,,,,,,,,,,,,,,,,,,,,,,,,,backspace,2.261999846,,TRUE,,,,,,,151,lluna,Catalan,Sounds/cat_lluna.mp3,2020-06-22_00h11.59.816,TranslationElicitation_spa,3.2.4,Win32,60,553772niofhwifwelfbwqilfbqfhi,,1,0,80,45,1,79
,,,,,,,,,,,,,,,,,,,,,,,,,,,,,,,,,,,l,2.627999783,L,TRUE,,,,,,,151,lluna,Catalan,Sounds/cat_lluna.mp3,2020-06-22_00h11.59.816,TranslationElicitation_spa,3.2.4,Win32,60,553772niofhwifwelfbwqilfbqfhi,,1,0,80,45,1,79
,,,,,,,,,,,,,,,,,,,,,,,,,,,,,,,,,,,u,2.81099987,LU,TRUE,,,,,,,151,lluna,Catalan,Sounds/cat_lluna.mp3,2020-06-22_00h11.59.816,TranslationElicitation_spa,3.2.4,Win32,60,553772niofhwifwelfbwqilfbqfhi,,1,0,80,45,1,79
,,,,,,,,,,,,,,,,,,,,,,,,,,,,,,,,,,,n,3.010999918,LUN,TRUE,,,,,,,151,lluna,Catalan,Sounds/cat_lluna.mp3,2020-06-22_00h11.59.816,TranslationElicitation_spa,3.2.4,Win32,60,553772niofhwifwelfbwqilfbqfhi,,1,0,80,45,1,79
,,,,,,,,,,,,,,,,,,,,,,,,,,,,,,,,,,,a,3.127999783,LUNA,TRUE,,,,,,,151,lluna,Catalan,Sounds/cat_lluna.mp3,2020-06-22_00h11.59.816,TranslationElicitation_spa,3.2.4,Win32,60,553772niofhwifwelfbwqilfbqfhi,,1,0,80,45,1,79
,,,,,,,,,,,,,,,,,,,,,,,,,,,,,,,,,,,return,3.444000006,,TRUE,,,,,,,151,lluna,Catalan,Sounds/cat_lluna.mp3,2020-06-22_00h11.59.816,TranslationElicitation_spa,3.2.4,Win32,60,553772niofhwifwelfbwqilfbqfhi,3.444000006,1,0,80,45,1,79
,,,,,,,,,,,,,,,,,,,,,,,,,,,,,,,,,,,,,,,,,,,,,151,lluna,Catalan,Sounds/cat_lluna.mp3,2020-06-22_00h11.59.816,TranslationElicitation_spa,3.2.4,Win32,60,553772niofhwifwelfbwqilfbqfhi,,1,0,80,45,1,79
,,,,,,,,,,,,,,,,,,,,,,,,,,,,,,,,,,,a,1.496999979,A,FALSE,,,,,,,105,aigua,Catalan,Sounds/cat_aigua.mp3,2020-06-22_00h11.59.816,TranslationElicitation_spa,3.2.4,Win32,60,553772niofhwifwelfbwqilfbqfhi,,1,0,80,1,1,79
,,,,,,,,,,,,,,,,,,,,,,,,,,,,,,,,,,,g,1.628999949,AG,FALSE,,,,,,,105,aigua,Catalan,Sounds/cat_aigua.mp3,2020-06-22_00h11.59.816,TranslationElicitation_spa,3.2.4,Win32,60,553772niofhwifwelfbwqilfbqfhi,,1,0,80,1,1,79
,,,,,,,,,,,,,,,,,,,,,,,,,,,,,,,,,,,u,1.680000067,AGU,FALSE,,,,,,,105,aigua,Catalan,Sounds/cat_aigua.mp3,2020-06-22_00h11.59.816,TranslationElicitation_spa,3.2.4,Win32,60,553772niofhwifwelfbwqilfbqfhi,,1,0,80,1,1,79
,,,,,,,,,,,,,,,,,,,,,,,,,,,,,,,,,,,a,1.812999964,AGUA,FALSE,,,,,,,105,aigua,Catalan,Sounds/cat_aigua.mp3,2020-06-22_00h11.59.816,TranslationElicitation_spa,3.2.4,Win32,60,553772niofhwifwelfbwqilfbqfhi,,1,0,80,1,1,79
,,,,,,,,,,,,,,,,,,,,,,,,,,,,,,,,,,,return,1.963000059,,FALSE,,,,,,,105,aigua,Catalan,Sounds/cat_aigua.mp3,2020-06-22_00h11.59.816,TranslationElicitation_spa,3.2.4,Win32,60,553772niofhwifwelfbwqilfbqfhi,1.963000059,1,0,80,1,1,79
,,,,,,,,,,,,,,,,,,,,,,,,,,,,,,,,,,,,,,,,,,,,,105,aigua,Catalan,Sounds/cat_aigua.mp3,2020-06-22_00h11.59.816,TranslationElicitation_spa,3.2.4,Win32,60,553772niofhwifwelfbwqilfbqfhi,,1,0,80,1,1,79
,,,,,,,,,,,,,,,,,,,,,,,,,,,,,,,,,,,h,1.230000019,H,FALSE,,,,,,,161,ovella,Catalan,Sounds/cat_ovella.mp3,2020-06-22_00h11.59.816,TranslationElicitation_spa,3.2.4,Win32,60,553772niofhwifwelfbwqilfbqfhi,,1,0,80,54,1,79
,,,,,,,,,,,,,,,,,,,,,,,,,,,,,,,,,,,u,1.312999964,HU,FALSE,,,,,,,161,ovella,Catalan,Sounds/cat_ovella.mp3,2020-06-22_00h11.59.816,TranslationElicitation_spa,3.2.4,Win32,60,553772niofhwifwelfbwqilfbqfhi,,1,0,80,54,1,79
,,,,,,,,,,,,,,,,,,,,,,,,,,,,,,,,,,,e,1.430000067,HUE,FALSE,,,,,,,161,ovella,Catalan,Sounds/cat_ovella.mp3,2020-06-22_00h11.59.816,TranslationElicitation_spa,3.2.4,Win32,60,553772niofhwifwelfbwqilfbqfhi,,1,0,80,54,1,79
,,,,,,,,,,,,,,,,,,,,,,,,,,,,,,,,,,,l,1.596999884,HUEL,FALSE,,,,,,,161,ovella,Catalan,Sounds/cat_ovella.mp3,2020-06-22_00h11.59.816,TranslationElicitation_spa,3.2.4,Win32,60,553772niofhwifwelfbwqilfbqfhi,,1,0,80,54,1,79
,,,,,,,,,,,,,,,,,,,,,,,,,,,,,,,,,,,l,1.779999971,HUELL,FALSE,,,,,,,161,ovella,Catalan,Sounds/cat_ovella.mp3,2020-06-22_00h11.59.816,TranslationElicitation_spa,3.2.4,Win32,60,553772niofhwifwelfbwqilfbqfhi,,1,0,80,54,1,79
,,,,,,,,,,,,,,,,,,,,,,,,,,,,,,,,,,,a,1.829999924,HUELLA,FALSE,,,,,,,161,ovella,Catalan,Sounds/cat_ovella.mp3,2020-06-22_00h11.59.816,TranslationElicitation_spa,3.2.4,Win32,60,553772niofhwifwelfbwqilfbqfhi,,1,0,80,54,1,79
,,,,,,,,,,,,,,,,,,,,,,,,,,,,,,,,,,,return,1.979000092,,FALSE,,,,,,,161,ovella,Catalan,Sounds/cat_ovella.mp3,2020-06-22_00h11.59.816,TranslationElicitation_spa,3.2.4,Win32,60,553772niofhwifwelfbwqilfbqfhi,1.979000092,1,0,80,54,1,79
,,,,,,,,,,,,,,,,,,,,,,,,,,,,,,,,,,,,,,,,,,,,,161,ovella,Catalan,Sounds/cat_ovella.mp3,2020-06-22_00h11.59.816,TranslationElicitation_spa,3.2.4,Win32,60,553772niofhwifwelfbwqilfbqfhi,,1,0,80,54,1,79
,,,,,,,,,,,,,,,,,,,,,,,,,,,,,,,,,,,c,2.013000011,C,FALSE,,,,,,,125,colom,Catalan,Sounds/cat_colom.mp3,2020-06-22_00h11.59.816,TranslationElicitation_spa,3.2.4,Win32,60,553772niofhwifwelfbwqilfbqfhi,,1,0,80,20,1,79
,,,,,,,,,,,,,,,,,,,,,,,,,,,,,,,,,,,o,2.129999876,CO,FALSE,,,,,,,125,colom,Catalan,Sounds/cat_colom.mp3,2020-06-22_00h11.59.816,TranslationElicitation_spa,3.2.4,Win32,60,553772niofhwifwelfbwqilfbqfhi,,1,0,80,20,1,79
,,,,,,,,,,,,,,,,,,,,,,,,,,,,,,,,,,,l,2.312999964,COL,FALSE,,,,,,,125,colom,Catalan,Sounds/cat_colom.mp3,2020-06-22_00h11.59.816,TranslationElicitation_spa,3.2.4,Win32,60,553772niofhwifwelfbwqilfbqfhi,,1,0,80,20,1,79
,,,,,,,,,,,,,,,,,,,,,,,,,,,,,,,,,,,o,2.478999853,COLO,FALSE,,,,,,,125,colom,Catalan,Sounds/cat_colom.mp3,2020-06-22_00h11.59.816,TranslationElicitation_spa,3.2.4,Win32,60,553772niofhwifwelfbwqilfbqfhi,,1,0,80,20,1,79
,,,,,,,,,,,,,,,,,,,,,,,,,,,,,,,,,,,n,2.595999956,COLON,FALSE,,,,,,,125,colom,Catalan,Sounds/cat_colom.mp3,2020-06-22_00h11.59.816,TranslationElicitation_spa,3.2.4,Win32,60,553772niofhwifwelfbwqilfbqfhi,,1,0,80,20,1,79
,,,,,,,,,,,,,,,,,,,,,,,,,,,,,,,,,,,return,3.345000029,,FALSE,,,,,,,125,colom,Catalan,Sounds/cat_colom.mp3,2020-06-22_00h11.59.816,TranslationElicitation_spa,3.2.4,Win32,60,553772niofhwifwelfbwqilfbqfhi,3.345000029,1,0,80,20,1,79
,,,,,,,,,,,,,,,,,,,,,,,,,,,,,,,,,,,,,,,,,,,,,125,colom,Catalan,Sounds/cat_colom.mp3,2020-06-22_00h11.59.816,TranslationElicitation_spa,3.2.4,Win32,60,553772niofhwifwelfbwqilfbqfhi,,1,0,80,20,1,79
,,,,,,,,,,,,,,,,,,,,,,,,,,,,,,,,,,,backspace,1.796000004,,TRUE,,,,,,,152,ma,Catalan,Sounds/cat_ma.mp3,2020-06-22_00h11.59.816,TranslationElicitation_spa,3.2.4,Win32,60,553772niofhwifwelfbwqilfbqfhi,,1,0,80,46,1,79
,,,,,,,,,,,,,,,,,,,,,,,,,,,,,,,,,,,m,2.196000099,M,TRUE,,,,,,,152,ma,Catalan,Sounds/cat_ma.mp3,2020-06-22_00h11.59.816,TranslationElicitation_spa,3.2.4,Win32,60,553772niofhwifwelfbwqilfbqfhi,,1,0,80,46,1,79
,,,,,,,,,,,,,,,,,,,,,,,,,,,,,,,,,,,a,2.328999996,MA,TRUE,,,,,,,152,ma,Catalan,Sounds/cat_ma.mp3,2020-06-22_00h11.59.816,TranslationElicitation_spa,3.2.4,Win32,60,553772niofhwifwelfbwqilfbqfhi,,1,0,80,46,1,79
,,,,,,,,,,,,,,,,,,,,,,,,,,,,,,,,,,,m,2.411000013,MAM,TRUE,,,,,,,152,ma,Catalan,Sounds/cat_ma.mp3,2020-06-22_00h11.59.816,TranslationElicitation_spa,3.2.4,Win32,60,553772niofhwifwelfbwqilfbqfhi,,1,0,80,46,1,79
,,,,,,,,,,,,,,,,,,,,,,,,,,,,,,,,,,,a,2.548000097,MAMA,TRUE,,,,,,,152,ma,Catalan,Sounds/cat_ma.mp3,2020-06-22_00h11.59.816,TranslationElicitation_spa,3.2.4,Win32,60,553772niofhwifwelfbwqilfbqfhi,,1,0,80,46,1,79
,,,,,,,,,,,,,,,,,,,,,,,,,,,,,,,,,,,return,2.677999973,,TRUE,,,,,,,152,ma,Catalan,Sounds/cat_ma.mp3,2020-06-22_00h11.59.816,TranslationElicitation_spa,3.2.4,Win32,60,553772niofhwifwelfbwqilfbqfhi,2.677999973,1,0,80,46,1,79
,,,,,,,,,,,,,,,,,,,,,,,,,,,,,,,,,,,,,,,,,,,,,152,ma,Catalan,Sounds/cat_ma.mp3,2020-06-22_00h11.59.816,TranslationElicitation_spa,3.2.4,Win32,60,553772niofhwifwelfbwqilfbqfhi,,1,0,80,46,1,79
,,,,,,,,,,,,,,,,,,,,,,,,,,,,,,,,,,,u,1.712999821,U,FALSE,,,,,,,157,mussol,Catalan,Sounds/cat_mussol.mp3,2020-06-22_00h11.59.816,TranslationElicitation_spa,3.2.4,Win32,60,553772niofhwifwelfbwqilfbqfhi,,1,0,80,51,1,79
,,,,,,,,,,,,,,,,,,,,,,,,,,,,,,,,,,,backspace,2.264999866,,TRUE,,,,,,,157,mussol,Catalan,Sounds/cat_mussol.mp3,2020-06-22_00h11.59.816,TranslationElicitation_spa,3.2.4,Win32,60,553772niofhwifwelfbwqilfbqfhi,,1,0,80,51,1,79
,,,,,,,,,,,,,,,,,,,,,,,,,,,,,,,,,,,m,4.378000021,M,TRUE,,,,,,,157,mussol,Catalan,Sounds/cat_mussol.mp3,2020-06-22_00h11.59.816,TranslationElicitation_spa,3.2.4,Win32,60,553772niofhwifwelfbwqilfbqfhi,,1,0,80,51,1,79
,,,,,,,,,,,,,,,,,,,,,,,,,,,,,,,,,,,u,6.508999825,MU,TRUE,,,,,,,157,mussol,Catalan,Sounds/cat_mussol.mp3,2020-06-22_00h11.59.816,TranslationElicitation_spa,3.2.4,Win32,60,553772niofhwifwelfbwqilfbqfhi,,1,0,80,51,1,79
,,,,,,,,,,,,,,,,,,,,,,,,,,,,,,,,,,,s,7.174999952,MUS,TRUE,,,,,,,157,mussol,Catalan,Sounds/cat_mussol.mp3,2020-06-22_00h11.59.816,TranslationElicitation_spa,3.2.4,Win32,60,553772niofhwifwelfbwqilfbqfhi,,1,0,80,51,1,79
,,,,,,,,,,,,,,,,,,,,,,,,,,,,,,,,,,,o,7.307999849,MUSO,TRUE,,,,,,,157,mussol,Catalan,Sounds/cat_mussol.mp3,2020-06-22_00h11.59.816,TranslationElicitation_spa,3.2.4,Win32,60,553772niofhwifwelfbwqilfbqfhi,,1,0,80,51,1,79
,,,,,,,,,,,,,,,,,,,,,,,,,,,,,,,,,,,l,7.592000008,MUSOL,TRUE,,,,,,,157,mussol,Catalan,Sounds/cat_mussol.mp3,2020-06-22_00h11.59.816,TranslationElicitation_spa,3.2.4,Win32,60,553772niofhwifwelfbwqilfbqfhi,,1,0,80,51,1,79
,,,,,,,,,,,,,,,,,,,,,,,,,,,,,,,,,,,backspace,9.289000034,MUS,TRUE,,,,,,,157,mussol,Catalan,Sounds/cat_mussol.mp3,2020-06-22_00h11.59.816,TranslationElicitation_spa,3.2.4,Win32,60,553772niofhwifwelfbwqilfbqfhi,,1,0,80,51,1,79
,,,,,,,,,,,,,,,,,,,,,,,,,,,,,,,,,,,backspace,9.49000001,M,TRUE,,,,,,,157,mussol,Catalan,Sounds/cat_mussol.mp3,2020-06-22_00h11.59.816,TranslationElicitation_spa,3.2.4,Win32,60,553772niofhwifwelfbwqilfbqfhi,,1,0,80,51,1,79
,,,,,,,,,,,,,,,,,,,,,,,,,,,,,,,,,,,backspace,9.638999939,,TRUE,,,,,,,157,mussol,Catalan,Sounds/cat_mussol.mp3,2020-06-22_00h11.59.816,TranslationElicitation_spa,3.2.4,Win32,60,553772niofhwifwelfbwqilfbqfhi,,1,0,80,51,1,79
,,,,,,,,,,,,,,,,,,,,,,,,,,,,,,,,,,,backspace,9.805999994,,TRUE,,,,,,,157,mussol,Catalan,Sounds/cat_mussol.mp3,2020-06-22_00h11.59.816,TranslationElicitation_spa,3.2.4,Win32,60,553772niofhwifwelfbwqilfbqfhi,,1,0,80,51,1,79
,,,,,,,,,,,,,,,,,,,,,,,,,,,,,,,,,,,s,10.05599999,S,TRUE,,,,,,,157,mussol,Catalan,Sounds/cat_mussol.mp3,2020-06-22_00h11.59.816,TranslationElicitation_spa,3.2.4,Win32,60,553772niofhwifwelfbwqilfbqfhi,,1,0,80,51,1,79
,,,,,,,,,,,,,,,,,,,,,,,,,,,,,,,,,,,o,10.12199998,SO,TRUE,,,,,,,157,mussol,Catalan,Sounds/cat_mussol.mp3,2020-06-22_00h11.59.816,TranslationElicitation_spa,3.2.4,Win32,60,553772niofhwifwelfbwqilfbqfhi,,1,0,80,51,1,79
,,,,,,,,,,,,,,,,,,,,,,,,,,,,,,,,,,,l,10.33899999,SOL,TRUE,,,,,,,157,mussol,Catalan,Sounds/cat_mussol.mp3,2020-06-22_00h11.59.816,TranslationElicitation_spa,3.2.4,Win32,60,553772niofhwifwelfbwqilfbqfhi,,1,0,80,51,1,79
,,,,,,,,,,,,,,,,,,,,,,,,,,,,,,,,,,,return,10.60500002,,TRUE,,,,,,,157,mussol,Catalan,Sounds/cat_mussol.mp3,2020-06-22_00h11.59.816,TranslationElicitation_spa,3.2.4,Win32,60,553772niofhwifwelfbwqilfbqfhi,10.60500002,1,0,80,51,1,79
,,,,,,,,,,,,,,,,,,,,,,,,,,,,,,,,,,,,,,,,,,,,,157,mussol,Catalan,Sounds/cat_mussol.mp3,2020-06-22_00h11.59.816,TranslationElicitation_spa,3.2.4,Win32,60,553772niofhwifwelfbwqilfbqfhi,,1,0,80,51,1,79
,,,,,,,,,,,,,,,,,,,,,,,,,,,,,,,,,,,p,1.675000191,P,FALSE,,,,,,,168,planta,Catalan,Sounds/cat_planta.mp3,2020-06-22_00h11.59.816,TranslationElicitation_spa,3.2.4,Win32,60,553772niofhwifwelfbwqilfbqfhi,,1,0,80,60,1,79
,,,,,,,,,,,,,,,,,,,,,,,,,,,,,,,,,,,l,1.891000032,PL,FALSE,,,,,,,168,planta,Catalan,Sounds/cat_planta.mp3,2020-06-22_00h11.59.816,TranslationElicitation_spa,3.2.4,Win32,60,553772niofhwifwelfbwqilfbqfhi,,1,0,80,60,1,79
,,,,,,,,,,,,,,,,,,,,,,,,,,,,,,,,,,,a,2.008000135,PLA,FALSE,,,,,,,168,planta,Catalan,Sounds/cat_planta.mp3,2020-06-22_00h11.59.816,TranslationElicitation_spa,3.2.4,Win32,60,553772niofhwifwelfbwqilfbqfhi,,1,0,80,60,1,79
,,,,,,,,,,,,,,,,,,,,,,,,,,,,,,,,,,,n,2.157999992,PLAN,FALSE,,,,,,,168,planta,Catalan,Sounds/cat_planta.mp3,2020-06-22_00h11.59.816,TranslationElicitation_spa,3.2.4,Win32,60,553772niofhwifwelfbwqilfbqfhi,,1,0,80,60,1,79
,,,,,,,,,,,,,,,,,,,,,,,,,,,,,,,,,,,t,2.275000095,PLANT,FALSE,,,,,,,168,planta,Catalan,Sounds/cat_planta.mp3,2020-06-22_00h11.59.816,TranslationElicitation_spa,3.2.4,Win32,60,553772niofhwifwelfbwqilfbqfhi,,1,0,80,60,1,79
,,,,,,,,,,,,,,,,,,,,,,,,,,,,,,,,,,,a,2.35800004,PLANTA,FALSE,,,,,,,168,planta,Catalan,Sounds/cat_planta.mp3,2020-06-22_00h11.59.816,TranslationElicitation_spa,3.2.4,Win32,60,553772niofhwifwelfbwqilfbqfhi,,1,0,80,60,1,79
,,,,,,,,,,,,,,,,,,,,,,,,,,,,,,,,,,,return,2.509000063,,FALSE,,,,,,,168,planta,Catalan,Sounds/cat_planta.mp3,2020-06-22_00h11.59.816,TranslationElicitation_spa,3.2.4,Win32,60,553772niofhwifwelfbwqilfbqfhi,2.509000063,1,0,80,60,1,79
,,,,,,,,,,,,,,,,,,,,,,,,,,,,,,,,,,,,,,,,,,,,,168,planta,Catalan,Sounds/cat_planta.mp3,2020-06-22_00h11.59.816,TranslationElicitation_spa,3.2.4,Win32,60,553772niofhwifwelfbwqilfbqfhi,,1,0,80,60,1,79
,,,,,,,,,,,,,,,,,,,,,,,,,,,,,,,,,,,g,1.381000042,G,FALSE,,,,,,,146,guitarra,Catalan,Sounds/cat_guitarra.mp3,2020-06-22_00h11.59.816,TranslationElicitation_spa,3.2.4,Win32,60,553772niofhwifwelfbwqilfbqfhi,,1,0,80,41,1,79
,,,,,,,,,,,,,,,,,,,,,,,,,,,,,,,,,,,u,1.497999907,GU,FALSE,,,,,,,146,guitarra,Catalan,Sounds/cat_guitarra.mp3,2020-06-22_00h11.59.816,TranslationElicitation_spa,3.2.4,Win32,60,553772niofhwifwelfbwqilfbqfhi,,1,0,80,41,1,79
,,,,,,,,,,,,,,,,,,,,,,,,,,,,,,,,,,,i,1.547999859,GUI,FALSE,,,,,,,146,guitarra,Catalan,Sounds/cat_guitarra.mp3,2020-06-22_00h11.59.816,TranslationElicitation_spa,3.2.4,Win32,60,553772niofhwifwelfbwqilfbqfhi,,1,0,80,41,1,79
,,,,,,,,,,,,,,,,,,,,,,,,,,,,,,,,,,,t,1.730000019,GUIT,FALSE,,,,,,,146,guitarra,Catalan,Sounds/cat_guitarra.mp3,2020-06-22_00h11.59.816,TranslationElicitation_spa,3.2.4,Win32,60,553772niofhwifwelfbwqilfbqfhi,,1,0,80,41,1,79
,,,,,,,,,,,,,,,,,,,,,,,,,,,,,,,,,,,a,1.879999876,GUITA,FALSE,,,,,,,146,guitarra,Catalan,Sounds/cat_guitarra.mp3,2020-06-22_00h11.59.816,TranslationElicitation_spa,3.2.4,Win32,60,553772niofhwifwelfbwqilfbqfhi,,1,0,80,41,1,79
,,,,,,,,,,,,,,,,,,,,,,,,,,,,,,,,,,,r,2.016000032,GUITAR,FALSE,,,,,,,146,guitarra,Catalan,Sounds/cat_guitarra.mp3,2020-06-22_00h11.59.816,TranslationElicitation_spa,3.2.4,Win32,60,553772niofhwifwelfbwqilfbqfhi,,1,0,80,41,1,79
,,,,,,,,,,,,,,,,,,,,,,,,,,,,,,,,,,,r,2.180000067,GUITARR,FALSE,,,,,,,146,guitarra,Catalan,Sounds/cat_guitarra.mp3,2020-06-22_00h11.59.816,TranslationElicitation_spa,3.2.4,Win32,60,553772niofhwifwelfbwqilfbqfhi,,1,0,80,41,1,79
,,,,,,,,,,,,,,,,,,,,,,,,,,,,,,,,,,,a,2.263999939,GUITARRA,FALSE,,,,,,,146,guitarra,Catalan,Sounds/cat_guitarra.mp3,2020-06-22_00h11.59.816,TranslationElicitation_spa,3.2.4,Win32,60,553772niofhwifwelfbwqilfbqfhi,,1,0,80,41,1,79
,,,,,,,,,,,,,,,,,,,,,,,,,,,,,,,,,,,return,2.395999908,,FALSE,,,,,,,146,guitarra,Catalan,Sounds/cat_guitarra.mp3,2020-06-22_00h11.59.816,TranslationElicitation_spa,3.2.4,Win32,60,553772niofhwifwelfbwqilfbqfhi,2.395999908,1,0,80,41,1,79
,,,,,,,,,,,,,,,,,,,,,,,,,,,,,,,,,,,,,,,,,,,,,146,guitarra,Catalan,Sounds/cat_guitarra.mp3,2020-06-22_00h11.59.816,TranslationElicitation_spa,3.2.4,Win32,60,553772niofhwifwelfbwqilfbqfhi,,1,0,80,41,1,79
,,,,,,,,,,,,,,,,,,,,,,,,,,,,,,,,,,,b,1.663999796,B,FALSE,,,,,,,117,boto,Catalan,Sounds/cat_boto.mp3,2020-06-22_00h11.59.816,TranslationElicitation_spa,3.2.4,Win32,60,553772niofhwifwelfbwqilfbqfhi,,1,0,80,12,1,79
,,,,,,,,,,,,,,,,,,,,,,,,,,,,,,,,,,,u,1.763999939,BU,FALSE,,,,,,,117,boto,Catalan,Sounds/cat_boto.mp3,2020-06-22_00h11.59.816,TranslationElicitation_spa,3.2.4,Win32,60,553772niofhwifwelfbwqilfbqfhi,,1,0,80,12,1,79
,,,,,,,,,,,,,,,,,,,,,,,,,,,,,,,,,,,t,1.929999828,BUT,FALSE,,,,,,,117,boto,Catalan,Sounds/cat_boto.mp3,2020-06-22_00h11.59.816,TranslationElicitation_spa,3.2.4,Win32,60,553772niofhwifwelfbwqilfbqfhi,,1,0,80,12,1,79
,,,,,,,,,,,,,,,,,,,,,,,,,,,,,,,,,,,a,2.079999924,BUTA,FALSE,,,,,,,117,boto,Catalan,Sounds/cat_boto.mp3,2020-06-22_00h11.59.816,TranslationElicitation_spa,3.2.4,Win32,60,553772niofhwifwelfbwqilfbqfhi,,1,0,80,12,1,79
,,,,,,,,,,,,,,,,,,,,,,,,,,,,,,,,,,,c,2.264999866,BUTAC,FALSE,,,,,,,117,boto,Catalan,Sounds/cat_boto.mp3,2020-06-22_00h11.59.816,TranslationElicitation_spa,3.2.4,Win32,60,553772niofhwifwelfbwqilfbqfhi,,1,0,80,12,1,79
,,,,,,,,,,,,,,,,,,,,,,,,,,,,,,,,,,,a,2.396999836,BUTACA,FALSE,,,,,,,117,boto,Catalan,Sounds/cat_boto.mp3,2020-06-22_00h11.59.816,TranslationElicitation_spa,3.2.4,Win32,60,553772niofhwifwelfbwqilfbqfhi,,1,0,80,12,1,79
,,,,,,,,,,,,,,,,,,,,,,,,,,,,,,,,,,,return,2.846999884,,FALSE,,,,,,,117,boto,Catalan,Sounds/cat_boto.mp3,2020-06-22_00h11.59.816,TranslationElicitation_spa,3.2.4,Win32,60,553772niofhwifwelfbwqilfbqfhi,2.846999884,1,0,80,12,1,79
,,,,,,,,,,,,,,,,,,,,,,,,,,,,,,,,,,,,,,,,,,,,,117,boto,Catalan,Sounds/cat_boto.mp3,2020-06-22_00h11.59.816,TranslationElicitation_spa,3.2.4,Win32,60,553772niofhwifwelfbwqilfbqfhi,,1,0,80,12,1,79
,,,,,,,,,,,,,,,,,,,,,,,,,,,,,,,,,,,p,3.077000141,P,FALSE,,,,,,,165,pernil,Catalan,Sounds/cat_pernil.mp3,2020-06-22_00h11.59.816,TranslationElicitation_spa,3.2.4,Win32,60,553772niofhwifwelfbwqilfbqfhi,,1,0,80,58,1,79
,,,,,,,,,,,,,,,,,,,,,,,,,,,,,,,,,,,e,3.394000053,PE,FALSE,,,,,,,165,pernil,Catalan,Sounds/cat_pernil.mp3,2020-06-22_00h11.59.816,TranslationElicitation_spa,3.2.4,Win32,60,553772niofhwifwelfbwqilfbqfhi,,1,0,80,58,1,79
,,,,,,,,,,,,,,,,,,,,,,,,,,,,,,,,,,,r,3.50999999,PER,FALSE,,,,,,,165,pernil,Catalan,Sounds/cat_pernil.mp3,2020-06-22_00h11.59.816,TranslationElicitation_spa,3.2.4,Win32,60,553772niofhwifwelfbwqilfbqfhi,,1,0,80,58,1,79
,,,,,,,,,,,,,,,,,,,,,,,,,,,,,,,,,,,n,3.693000078,PERN,FALSE,,,,,,,165,pernil,Catalan,Sounds/cat_pernil.mp3,2020-06-22_00h11.59.816,TranslationElicitation_spa,3.2.4,Win32,60,553772niofhwifwelfbwqilfbqfhi,,1,0,80,58,1,79
,,,,,,,,,,,,,,,,,,,,,,,,,,,,,,,,,,,e,3.827000141,PERNE,FALSE,,,,,,,165,pernil,Catalan,Sounds/cat_pernil.mp3,2020-06-22_00h11.59.816,TranslationElicitation_spa,3.2.4,Win32,60,553772niofhwifwelfbwqilfbqfhi,,1,0,80,58,1,79
,,,,,,,,,,,,,,,,,,,,,,,,,,,,,,,,,,,r,3.927000046,PERNER,FALSE,,,,,,,165,pernil,Catalan,Sounds/cat_pernil.mp3,2020-06-22_00h11.59.816,TranslationElicitation_spa,3.2.4,Win32,60,553772niofhwifwelfbwqilfbqfhi,,1,0,80,58,1,79
,,,,,,,,,,,,,,,,,,,,,,,,,,,,,,,,,,,a,4.067000151,PERNERA,FALSE,,,,,,,165,pernil,Catalan,Sounds/cat_pernil.mp3,2020-06-22_00h11.59.816,TranslationElicitation_spa,3.2.4,Win32,60,553772niofhwifwelfbwqilfbqfhi,,1,0,80,58,1,79
,,,,,,,,,,,,,,,,,,,,,,,,,,,,,,,,,,,return,4.177000046,,FALSE,,,,,,,165,pernil,Catalan,Sounds/cat_pernil.mp3,2020-06-22_00h11.59.816,TranslationElicitation_spa,3.2.4,Win32,60,553772niofhwifwelfbwqilfbqfhi,4.177000046,1,0,80,58,1,79
,,,,,,,,,,,,,,,,,,,,,,,,,,,,,,,,,,,,,,,,,,,,,165,pernil,Catalan,Sounds/cat_pernil.mp3,2020-06-22_00h11.59.816,TranslationElicitation_spa,3.2.4,Win32,60,553772niofhwifwelfbwqilfbqfhi,,1,0,80,58,1,79
,,,,,,,,,,,,,,,,,,,,,,,,,,,,,,,,,,,m,1.279999971,M,FALSE,,,,,,,155,moneda,Catalan,Sounds/cat_moneda.mp3,2020-06-22_00h11.59.816,TranslationElicitation_spa,3.2.4,Win32,60,553772niofhwifwelfbwqilfbqfhi,,1,0,80,49,1,79
,,,,,,,,,,,,,,,,,,,,,,,,,,,,,,,,,,,o,1.430999994,MO,FALSE,,,,,,,155,moneda,Catalan,Sounds/cat_moneda.mp3,2020-06-22_00h11.59.816,TranslationElicitation_spa,3.2.4,Win32,60,553772niofhwifwelfbwqilfbqfhi,,1,0,80,49,1,79
,,,,,,,,,,,,,,,,,,,,,,,,,,,,,,,,,,,d,1.648000002,MOD,FALSE,,,,,,,155,moneda,Catalan,Sounds/cat_moneda.mp3,2020-06-22_00h11.59.816,TranslationElicitation_spa,3.2.4,Win32,60,553772niofhwifwelfbwqilfbqfhi,,1,0,80,49,1,79
,,,,,,,,,,,,,,,,,,,,,,,,,,,,,,,,,,,backspace,2.363000154,M,TRUE,,,,,,,155,moneda,Catalan,Sounds/cat_moneda.mp3,2020-06-22_00h11.59.816,TranslationElicitation_spa,3.2.4,Win32,60,553772niofhwifwelfbwqilfbqfhi,,1,0,80,49,1,79
,,,,,,,,,,,,,,,,,,,,,,,,,,,,,,,,,,,n,2.746000051,MN,TRUE,,,,,,,155,moneda,Catalan,Sounds/cat_moneda.mp3,2020-06-22_00h11.59.816,TranslationElicitation_spa,3.2.4,Win32,60,553772niofhwifwelfbwqilfbqfhi,,1,0,80,49,1,79
,,,,,,,,,,,,,,,,,,,,,,,,,,,,,,,,,,,backspace,3.328999996,,TRUE,,,,,,,155,moneda,Catalan,Sounds/cat_moneda.mp3,2020-06-22_00h11.59.816,TranslationElicitation_spa,3.2.4,Win32,60,553772niofhwifwelfbwqilfbqfhi,,1,0,80,49,1,79
,,,,,,,,,,,,,,,,,,,,,,,,,,,,,,,,,,,o,3.646000147,O,TRUE,,,,,,,155,moneda,Catalan,Sounds/cat_moneda.mp3,2020-06-22_00h11.59.816,TranslationElicitation_spa,3.2.4,Win32,60,553772niofhwifwelfbwqilfbqfhi,,1,0,80,49,1,79
,,,,,,,,,,,,,,,,,,,,,,,,,,,,,,,,,,,n,3.878000021,ON,TRUE,,,,,,,155,moneda,Catalan,Sounds/cat_moneda.mp3,2020-06-22_00h11.59.816,TranslationElicitation_spa,3.2.4,Win32,60,553772niofhwifwelfbwqilfbqfhi,,1,0,80,49,1,79
,,,,,,,,,,,,,,,,,,,,,,,,,,,,,,,,,,,e,4.029000044,ONE,TRUE,,,,,,,155,moneda,Catalan,Sounds/cat_moneda.mp3,2020-06-22_00h11.59.816,TranslationElicitation_spa,3.2.4,Win32,60,553772niofhwifwelfbwqilfbqfhi,,1,0,80,49,1,79
,,,,,,,,,,,,,,,,,,,,,,,,,,,,,,,,,,,backspace,4.594000101,O,TRUE,,,,,,,155,moneda,Catalan,Sounds/cat_moneda.mp3,2020-06-22_00h11.59.816,TranslationElicitation_spa,3.2.4,Win32,60,553772niofhwifwelfbwqilfbqfhi,,1,0,80,49,1,79
,,,,,,,,,,,,,,,,,,,,,,,,,,,,,,,,,,,backspace,5.27699995,,TRUE,,,,,,,155,moneda,Catalan,Sounds/cat_moneda.mp3,2020-06-22_00h11.59.816,TranslationElicitation_spa,3.2.4,Win32,60,553772niofhwifwelfbwqilfbqfhi,,1,0,80,49,1,79
,,,,,,,,,,,,,,,,,,,,,,,,,,,,,,,,,,,m,5.776000023,M,TRUE,,,,,,,155,moneda,Catalan,Sounds/cat_moneda.mp3,2020-06-22_00h11.59.816,TranslationElicitation_spa,3.2.4,Win32,60,553772niofhwifwelfbwqilfbqfhi,,1,0,80,49,1,79
,,,,,,,,,,,,,,,,,,,,,,,,,,,,,,,,,,,o,5.858999968,MO,TRUE,,,,,,,155,moneda,Catalan,Sounds/cat_moneda.mp3,2020-06-22_00h11.59.816,TranslationElicitation_spa,3.2.4,Win32,60,553772niofhwifwelfbwqilfbqfhi,,1,0,80,49,1,79
,,,,,,,,,,,,,,,,,,,,,,,,,,,,,,,,,,,n,6.026000023,MON,TRUE,,,,,,,155,moneda,Catalan,Sounds/cat_moneda.mp3,2020-06-22_00h11.59.816,TranslationElicitation_spa,3.2.4,Win32,60,553772niofhwifwelfbwqilfbqfhi,,1,0,80,49,1,79
,,,,,,,,,,,,,,,,,,,,,,,,,,,,,,,,,,,e,6.127000093,MONE,TRUE,,,,,,,155,moneda,Catalan,Sounds/cat_moneda.mp3,2020-06-22_00h11.59.816,TranslationElicitation_spa,3.2.4,Win32,60,553772niofhwifwelfbwqilfbqfhi,,1,0,80,49,1,79
,,,,,,,,,,,,,,,,,,,,,,,,,,,,,,,,,,,r,6.193000078,MONER,TRUE,,,,,,,155,moneda,Catalan,Sounds/cat_moneda.mp3,2020-06-22_00h11.59.816,TranslationElicitation_spa,3.2.4,Win32,60,553772niofhwifwelfbwqilfbqfhi,,1,0,80,49,1,79
,,,,,,,,,,,,,,,,,,,,,,,,,,,,,,,,,,,backspace,6.710000038,MON,TRUE,,,,,,,155,moneda,Catalan,Sounds/cat_moneda.mp3,2020-06-22_00h11.59.816,TranslationElicitation_spa,3.2.4,Win32,60,553772niofhwifwelfbwqilfbqfhi,,1,0,80,49,1,79
,,,,,,,,,,,,,,,,,,,,,,,,,,,,,,,,,,,d,6.842000008,MOND,TRUE,,,,,,,155,moneda,Catalan,Sounds/cat_moneda.mp3,2020-06-22_00h11.59.816,TranslationElicitation_spa,3.2.4,Win32,60,553772niofhwifwelfbwqilfbqfhi,,1,0,80,49,1,79
,,,,,,,,,,,,,,,,,,,,,,,,,,,,,,,,,,,a,6.942000151,MONDA,TRUE,,,,,,,155,moneda,Catalan,Sounds/cat_moneda.mp3,2020-06-22_00h11.59.816,TranslationElicitation_spa,3.2.4,Win32,60,553772niofhwifwelfbwqilfbqfhi,,1,0,80,49,1,79
,,,,,,,,,,,,,,,,,,,,,,,,,,,,,,,,,,,return,7.125,,TRUE,,,,,,,155,moneda,Catalan,Sounds/cat_moneda.mp3,2020-06-22_00h11.59.816,TranslationElicitation_spa,3.2.4,Win32,60,553772niofhwifwelfbwqilfbqfhi,7.125,1,0,80,49,1,79
,,,,,,,,,,,,,,,,,,,,,,,,,,,,,,,,,,,,,,,,,,,,,155,moneda,Catalan,Sounds/cat_moneda.mp3,2020-06-22_00h11.59.816,TranslationElicitation_spa,3.2.4,Win32,60,553772niofhwifwelfbwqilfbqfhi,,1,0,80,49,1,79
,,,,,,,,,,,,,,,,,,,,,,,,,,,,,,,,,,,p,1.875,P,FALSE,,,,,,,174,porta,Catalan,Sounds/cat_porta.mp3,2020-06-22_00h11.59.816,TranslationElicitation_spa,3.2.4,Win32,60,553772niofhwifwelfbwqilfbqfhi,,1,0,80,66,1,79
,,,,,,,,,,,,,,,,,,,,,,,,,,,,,,,,,,,u,2.092000008,PU,FALSE,,,,,,,174,porta,Catalan,Sounds/cat_porta.mp3,2020-06-22_00h11.59.816,TranslationElicitation_spa,3.2.4,Win32,60,553772niofhwifwelfbwqilfbqfhi,,1,0,80,66,1,79
,,,,,,,,,,,,,,,,,,,,,,,,,,,,,,,,,,,e,2.190999985,PUE,FALSE,,,,,,,174,porta,Catalan,Sounds/cat_porta.mp3,2020-06-22_00h11.59.816,TranslationElicitation_spa,3.2.4,Win32,60,553772niofhwifwelfbwqilfbqfhi,,1,0,80,66,1,79
,,,,,,,,,,,,,,,,,,,,,,,,,,,,,,,,,,,r,2.308000088,PUER,FALSE,,,,,,,174,porta,Catalan,Sounds/cat_porta.mp3,2020-06-22_00h11.59.816,TranslationElicitation_spa,3.2.4,Win32,60,553772niofhwifwelfbwqilfbqfhi,,1,0,80,66,1,79
,,,,,,,,,,,,,,,,,,,,,,,,,,,,,,,,,,,t,2.490999937,PUERT,FALSE,,,,,,,174,porta,Catalan,Sounds/cat_porta.mp3,2020-06-22_00h11.59.816,TranslationElicitation_spa,3.2.4,Win32,60,553772niofhwifwelfbwqilfbqfhi,,1,0,80,66,1,79
,,,,,,,,,,,,,,,,,,,,,,,,,,,,,,,,,,,a,2.57400012,PUERTA,FALSE,,,,,,,174,porta,Catalan,Sounds/cat_porta.mp3,2020-06-22_00h11.59.816,TranslationElicitation_spa,3.2.4,Win32,60,553772niofhwifwelfbwqilfbqfhi,,1,0,80,66,1,79
,,,,,,,,,,,,,,,,,,,,,,,,,,,,,,,,,,,return,2.723999977,,FALSE,,,,,,,174,porta,Catalan,Sounds/cat_porta.mp3,2020-06-22_00h11.59.816,TranslationElicitation_spa,3.2.4,Win32,60,553772niofhwifwelfbwqilfbqfhi,2.723999977,1,0,80,66,1,79
,,,,,,,,,,,,,,,,,,,,,,,,,,,,,,,,,,,,,,,,,,,,,174,porta,Catalan,Sounds/cat_porta.mp3,2020-06-22_00h11.59.816,TranslationElicitation_spa,3.2.4,Win32,60,553772niofhwifwelfbwqilfbqfhi,,1,0,80,66,1,79
,,,,,,,,,,,,,,,,,,,,,,,,,,,,,,,,,,,g,2.013000011,G,FALSE,,,,,,,145,got,Catalan,Sounds/cat_got.mp3,2020-06-22_00h11.59.816,TranslationElicitation_spa,3.2.4,Win32,60,553772niofhwifwelfbwqilfbqfhi,,1,0,80,40,1,79
,,,,,,,,,,,,,,,,,,,,,,,,,,,,,,,,,,,a,2.113000154,GA,FALSE,,,,,,,145,got,Catalan,Sounds/cat_got.mp3,2020-06-22_00h11.59.816,TranslationElicitation_spa,3.2.4,Win32,60,553772niofhwifwelfbwqilfbqfhi,,1,0,80,40,1,79
,,,,,,,,,,,,,,,,,,,,,,,,,,,,,,,,,,,backspace,2.596000195,,TRUE,,,,,,,145,got,Catalan,Sounds/cat_got.mp3,2020-06-22_00h11.59.816,TranslationElicitation_spa,3.2.4,Win32,60,553772niofhwifwelfbwqilfbqfhi,,1,0,80,40,1,79
,,,,,,,,,,,,,,,,,,,,,,,,,,,,,,,,,,,o,2.828999996,O,TRUE,,,,,,,145,got,Catalan,Sounds/cat_got.mp3,2020-06-22_00h11.59.816,TranslationElicitation_spa,3.2.4,Win32,60,553772niofhwifwelfbwqilfbqfhi,,1,0,80,40,1,79
,,,,,,,,,,,,,,,,,,,,,,,,,,,,,,,,,,,t,2.912000179,OT,TRUE,,,,,,,145,got,Catalan,Sounds/cat_got.mp3,2020-06-22_00h11.59.816,TranslationElicitation_spa,3.2.4,Win32,60,553772niofhwifwelfbwqilfbqfhi,,1,0,80,40,1,79
,,,,,,,,,,,,,,,,,,,,,,,,,,,,,,,,,,,a,2.996000051,OTA,TRUE,,,,,,,145,got,Catalan,Sounds/cat_got.mp3,2020-06-22_00h11.59.816,TranslationElicitation_spa,3.2.4,Win32,60,553772niofhwifwelfbwqilfbqfhi,,1,0,80,40,1,79
,,,,,,,,,,,,,,,,,,,,,,,,,,,,,,,,,,,backspace,3.512000084,O,TRUE,,,,,,,145,got,Catalan,Sounds/cat_got.mp3,2020-06-22_00h11.59.816,TranslationElicitation_spa,3.2.4,Win32,60,553772niofhwifwelfbwqilfbqfhi,,1,0,80,40,1,79
,,,,,,,,,,,,,,,,,,,,,,,,,,,,,,,,,,,backspace,3.695000172,,TRUE,,,,,,,145,got,Catalan,Sounds/cat_got.mp3,2020-06-22_00h11.59.816,TranslationElicitation_spa,3.2.4,Win32,60,553772niofhwifwelfbwqilfbqfhi,,1,0,80,40,1,79
,,,,,,,,,,,,,,,,,,,,,,,,,,,,,,,,,,,backspace,3.845000029,,TRUE,,,,,,,145,got,Catalan,Sounds/cat_got.mp3,2020-06-22_00h11.59.816,TranslationElicitation_spa,3.2.4,Win32,60,553772niofhwifwelfbwqilfbqfhi,,1,0,80,40,1,79
,,,,,,,,,,,,,,,,,,,,,,,,,,,,,,,,,,,g,4.327000141,G,TRUE,,,,,,,145,got,Catalan,Sounds/cat_got.mp3,2020-06-22_00h11.59.816,TranslationElicitation_spa,3.2.4,Win32,60,553772niofhwifwelfbwqilfbqfhi,,1,0,80,40,1,79
,,,,,,,,,,,,,,,,,,,,,,,,,,,,,,,,,,,o,4.394999981,GO,TRUE,,,,,,,145,got,Catalan,Sounds/cat_got.mp3,2020-06-22_00h11.59.816,TranslationElicitation_spa,3.2.4,Win32,60,553772niofhwifwelfbwqilfbqfhi,,1,0,80,40,1,79
,,,,,,,,,,,,,,,,,,,,,,,,,,,,,,,,,,,t,4.910000086,GOT,TRUE,,,,,,,145,got,Catalan,Sounds/cat_got.mp3,2020-06-22_00h11.59.816,TranslationElicitation_spa,3.2.4,Win32,60,553772niofhwifwelfbwqilfbqfhi,,1,0,80,40,1,79
,,,,,,,,,,,,,,,,,,,,,,,,,,,,,,,,,,,a,5.110000134,GOTA,TRUE,,,,,,,145,got,Catalan,Sounds/cat_got.mp3,2020-06-22_00h11.59.816,TranslationElicitation_spa,3.2.4,Win32,60,553772niofhwifwelfbwqilfbqfhi,,1,0,80,40,1,79
,,,,,,,,,,,,,,,,,,,,,,,,,,,,,,,,,,,return,5.826000214,,TRUE,,,,,,,145,got,Catalan,Sounds/cat_got.mp3,2020-06-22_00h11.59.816,TranslationElicitation_spa,3.2.4,Win32,60,553772niofhwifwelfbwqilfbqfhi,5.826000214,1,0,80,40,1,79
,,,,,,,,,,,,,,,,,,,,,,,,,,,,,,,,,,,,,,,,,,,,,145,got,Catalan,Sounds/cat_got.mp3,2020-06-22_00h11.59.816,TranslationElicitation_spa,3.2.4,Win32,60,553772niofhwifwelfbwqilfbqfhi,,1,0,80,40,1,79
,,,,,,,,,,,,,,,,,,,,,,,,,,,,,,,,,,,o,2.57400012,O,FALSE,,,,,,,112,bici,Catalan,Sounds/cat_bici.mp3,2020-06-22_00h11.59.816,TranslationElicitation_spa,3.2.4,Win32,60,553772niofhwifwelfbwqilfbqfhi,,1,0,80,7,1,79
,,,,,,,,,,,,,,,,,,,,,,,,,,,,,,,,,,,c,2.758000135,OC,FALSE,,,,,,,112,bici,Catalan,Sounds/cat_bici.mp3,2020-06-22_00h11.59.816,TranslationElicitation_spa,3.2.4,Win32,60,553772niofhwifwelfbwqilfbqfhi,,1,0,80,7,1,79
,,,,,,,,,,,,,,,,,,,,,,,,,,,,,,,,,,,u,2.82400012,OCU,FALSE,,,,,,,112,bici,Catalan,Sounds/cat_bici.mp3,2020-06-22_00h11.59.816,TranslationElicitation_spa,3.2.4,Win32,60,553772niofhwifwelfbwqilfbqfhi,,1,0,80,7,1,79
,,,,,,,,,,,,,,,,,,,,,,,,,,,,,,,,,,,p,3.024000168,OCUP,FALSE,,,,,,,112,bici,Catalan,Sounds/cat_bici.mp3,2020-06-22_00h11.59.816,TranslationElicitation_spa,3.2.4,Win32,60,553772niofhwifwelfbwqilfbqfhi,,1,0,80,7,1,79
,,,,,,,,,,,,,,,,,,,,,,,,,,,,,,,,,,,a,3.157000065,OCUPA,FALSE,,,,,,,112,bici,Catalan,Sounds/cat_bici.mp3,2020-06-22_00h11.59.816,TranslationElicitation_spa,3.2.4,Win32,60,553772niofhwifwelfbwqilfbqfhi,,1,0,80,7,1,79
,,,,,,,,,,,,,,,,,,,,,,,,,,,,,,,,,,,d,3.256000042,OCUPAD,FALSE,,,,,,,112,bici,Catalan,Sounds/cat_bici.mp3,2020-06-22_00h11.59.816,TranslationElicitation_spa,3.2.4,Win32,60,553772niofhwifwelfbwqilfbqfhi,,1,0,80,7,1,79
,,,,,,,,,,,,,,,,,,,,,,,,,,,,,,,,,,,o,3.356000185,OCUPADO,FALSE,,,,,,,112,bici,Catalan,Sounds/cat_bici.mp3,2020-06-22_00h11.59.816,TranslationElicitation_spa,3.2.4,Win32,60,553772niofhwifwelfbwqilfbqfhi,,1,0,80,7,1,79
,,,,,,,,,,,,,,,,,,,,,,,,,,,,,,,,,,,return,3.68900013,,FALSE,,,,,,,112,bici,Catalan,Sounds/cat_bici.mp3,2020-06-22_00h11.59.816,TranslationElicitation_spa,3.2.4,Win32,60,553772niofhwifwelfbwqilfbqfhi,3.68900013,1,0,80,7,1,79
,,,,,,,,,,,,,,,,,,,,,,,,,,,,,,,,,,,,,,,,,,,,,112,bici,Catalan,Sounds/cat_bici.mp3,2020-06-22_00h11.59.816,TranslationElicitation_spa,3.2.4,Win32,60,553772niofhwifwelfbwqilfbqfhi,,1,0,80,7,1,79
,,,,,,,,,,,,,,,,,,,,,,,,,,,,,,,,,,,g,1.946000099,G,FALSE,,,,,,,143,globus,Catalan,Sounds/cat_globus.mp3,2020-06-22_00h11.59.816,TranslationElicitation_spa,3.2.4,Win32,60,553772niofhwifwelfbwqilfbqfhi,,1,0,80,38,1,79
,,,,,,,,,,,,,,,,,,,,,,,,,,,,,,,,,,,l,2.062000036,GL,FALSE,,,,,,,143,globus,Catalan,Sounds/cat_globus.mp3,2020-06-22_00h11.59.816,TranslationElicitation_spa,3.2.4,Win32,60,553772niofhwifwelfbwqilfbqfhi,,1,0,80,38,1,79
,,,,,,,,,,,,,,,,,,,,,,,,,,,,,,,,,,,o,2.279000044,GLO,FALSE,,,,,,,143,globus,Catalan,Sounds/cat_globus.mp3,2020-06-22_00h11.59.816,TranslationElicitation_spa,3.2.4,Win32,60,553772niofhwifwelfbwqilfbqfhi,,1,0,80,38,1,79
,,,,,,,,,,,,,,,,,,,,,,,,,,,,,,,,,,,b,2.462000132,GLOB,FALSE,,,,,,,143,globus,Catalan,Sounds/cat_globus.mp3,2020-06-22_00h11.59.816,TranslationElicitation_spa,3.2.4,Win32,60,553772niofhwifwelfbwqilfbqfhi,,1,0,80,38,1,79
,,,,,,,,,,,,,,,,,,,,,,,,,,,,,,,,,,,o,2.578999996,GLOBO,FALSE,,,,,,,143,globus,Catalan,Sounds/cat_globus.mp3,2020-06-22_00h11.59.816,TranslationElicitation_spa,3.2.4,Win32,60,553772niofhwifwelfbwqilfbqfhi,,1,0,80,38,1,79
,,,,,,,,,,,,,,,,,,,,,,,,,,,,,,,,,,,s,3.128000021,GLOBOS,FALSE,,,,,,,143,globus,Catalan,Sounds/cat_globus.mp3,2020-06-22_00h11.59.816,TranslationElicitation_spa,3.2.4,Win32,60,553772niofhwifwelfbwqilfbqfhi,,1,0,80,38,1,79
,,,,,,,,,,,,,,,,,,,,,,,,,,,,,,,,,,,return,3.328000069,,FALSE,,,,,,,143,globus,Catalan,Sounds/cat_globus.mp3,2020-06-22_00h11.59.816,TranslationElicitation_spa,3.2.4,Win32,60,553772niofhwifwelfbwqilfbqfhi,3.328000069,1,0,80,38,1,79
,,,,,,,,,,,,,,,,,,,,,,,,,,,,,,,,,,,,,,,,,,,,,143,globus,Catalan,Sounds/cat_globus.mp3,2020-06-22_00h11.59.816,TranslationElicitation_spa,3.2.4,Win32,60,553772niofhwifwelfbwqilfbqfhi,,1,0,80,38,1,79
,,,,,,,,,,,,,,,,,,,,,,,,,,,,,,,,,,,f,1.713000059,F,FALSE,,,,,,,137,fulla,Catalan,Sounds/cat_fulla.mp3,2020-06-22_00h11.59.816,TranslationElicitation_spa,3.2.4,Win32,60,553772niofhwifwelfbwqilfbqfhi,,1,0,80,32,1,79
,,,,,,,,,,,,,,,,,,,,,,,,,,,,,,,,,,,u,1.861999989,FU,FALSE,,,,,,,137,fulla,Catalan,Sounds/cat_fulla.mp3,2020-06-22_00h11.59.816,TranslationElicitation_spa,3.2.4,Win32,60,553772niofhwifwelfbwqilfbqfhi,,1,0,80,32,1,79
,,,,,,,,,,,,,,,,,,,,,,,,,,,,,,,,,,,r,2.046000004,FUR,FALSE,,,,,,,137,fulla,Catalan,Sounds/cat_fulla.mp3,2020-06-22_00h11.59.816,TranslationElicitation_spa,3.2.4,Win32,60,553772niofhwifwelfbwqilfbqfhi,,1,0,80,32,1,79
,,,,,,,,,,,,,,,,,,,,,,,,,,,,,,,,,,,i,2.179000139,FURI,FALSE,,,,,,,137,fulla,Catalan,Sounds/cat_fulla.mp3,2020-06-22_00h11.59.816,TranslationElicitation_spa,3.2.4,Win32,60,553772niofhwifwelfbwqilfbqfhi,,1,0,80,32,1,79
,,,,,,,,,,,,,,,,,,,,,,,,,,,,,,,,,,,a,2.312000036,FURIA,FALSE,,,,,,,137,fulla,Catalan,Sounds/cat_fulla.mp3,2020-06-22_00h11.59.816,TranslationElicitation_spa,3.2.4,Win32,60,553772niofhwifwelfbwqilfbqfhi,,1,0,80,32,1,79
,,,,,,,,,,,,,,,,,,,,,,,,,,,,,,,,,,,return,2.462000132,,FALSE,,,,,,,137,fulla,Catalan,Sounds/cat_fulla.mp3,2020-06-22_00h11.59.816,TranslationElicitation_spa,3.2.4,Win32,60,553772niofhwifwelfbwqilfbqfhi,2.462000132,1,0,80,32,1,79
,,,,,,,,,,,,,,,,,,,,,,,,,,,,,,,,,,,,,,,,,,,,,137,fulla,Catalan,Sounds/cat_fulla.mp3,2020-06-22_00h11.59.816,TranslationElicitation_spa,3.2.4,Win32,60,553772niofhwifwelfbwqilfbqfhi,,1,0,80,32,1,79
,,,,,,,,,,,,,,,,,,,,,,,,,,,,,,,,,,,h,1.897000074,H,FALSE,,,,,,,136,forquilla,Catalan,Sounds/cat_forquilla.mp3,2020-06-22_00h11.59.816,TranslationElicitation_spa,3.2.4,Win32,60,553772niofhwifwelfbwqilfbqfhi,,1,0,80,31,1,79
,,,,,,,,,,,,,,,,,,,,,,,,,,,,,,,,,,,o,1.996999979,HO,FALSE,,,,,,,136,forquilla,Catalan,Sounds/cat_forquilla.mp3,2020-06-22_00h11.59.816,TranslationElicitation_spa,3.2.4,Win32,60,553772niofhwifwelfbwqilfbqfhi,,1,0,80,31,1,79
,,,,,,,,,,,,,,,,,,,,,,,,,,,,,,,,,,,r,2.097000122,HOR,FALSE,,,,,,,136,forquilla,Catalan,Sounds/cat_forquilla.mp3,2020-06-22_00h11.59.816,TranslationElicitation_spa,3.2.4,Win32,60,553772niofhwifwelfbwqilfbqfhi,,1,0,80,31,1,79
,,,,,,,,,,,,,,,,,,,,,,,,,,,,,,,,,,,q,2.296000004,HORQ,FALSE,,,,,,,136,forquilla,Catalan,Sounds/cat_forquilla.mp3,2020-06-22_00h11.59.816,TranslationElicitation_spa,3.2.4,Win32,60,553772niofhwifwelfbwqilfbqfhi,,1,0,80,31,1,79
,,,,,,,,,,,,,,,,,,,,,,,,,,,,,,,,,,,u,2.363000154,HORQU,FALSE,,,,,,,136,forquilla,Catalan,Sounds/cat_forquilla.mp3,2020-06-22_00h11.59.816,TranslationElicitation_spa,3.2.4,Win32,60,553772niofhwifwelfbwqilfbqfhi,,1,0,80,31,1,79
,,,,,,,,,,,,,,,,,,,,,,,,,,,,,,,,,,,i,2.411999941,HORQUI,FALSE,,,,,,,136,forquilla,Catalan,Sounds/cat_forquilla.mp3,2020-06-22_00h11.59.816,TranslationElicitation_spa,3.2.4,Win32,60,553772niofhwifwelfbwqilfbqfhi,,1,0,80,31,1,79
,,,,,,,,,,,,,,,,,,,,,,,,,,,,,,,,,,,l,2.712000132,HORQUIL,FALSE,,,,,,,136,forquilla,Catalan,Sounds/cat_forquilla.mp3,2020-06-22_00h11.59.816,TranslationElicitation_spa,3.2.4,Win32,60,553772niofhwifwelfbwqilfbqfhi,,1,0,80,31,1,79
,,,,,,,,,,,,,,,,,,,,,,,,,,,,,,,,,,,a,2.929000139,HORQUILA,FALSE,,,,,,,136,forquilla,Catalan,Sounds/cat_forquilla.mp3,2020-06-22_00h11.59.816,TranslationElicitation_spa,3.2.4,Win32,60,553772niofhwifwelfbwqilfbqfhi,,1,0,80,31,1,79
,,,,,,,,,,,,,,,,,,,,,,,,,,,,,,,,,,,l,3.029000044,HORQUILAL,FALSE,,,,,,,136,forquilla,Catalan,Sounds/cat_forquilla.mp3,2020-06-22_00h11.59.816,TranslationElicitation_spa,3.2.4,Win32,60,553772niofhwifwelfbwqilfbqfhi,,1,0,80,31,1,79
,,,,,,,,,,,,,,,,,,,,,,,,,,,,,,,,,,,backspace,3.462000132,HORQUIL,TRUE,,,,,,,136,forquilla,Catalan,Sounds/cat_forquilla.mp3,2020-06-22_00h11.59.816,TranslationElicitation_spa,3.2.4,Win32,60,553772niofhwifwelfbwqilfbqfhi,,1,0,80,31,1,79
,,,,,,,,,,,,,,,,,,,,,,,,,,,,,,,,,,,backspace,3.628000021,HORQU,TRUE,,,,,,,136,forquilla,Catalan,Sounds/cat_forquilla.mp3,2020-06-22_00h11.59.816,TranslationElicitation_spa,3.2.4,Win32,60,553772niofhwifwelfbwqilfbqfhi,,1,0,80,31,1,79
,,,,,,,,,,,,,,,,,,,,,,,,,,,,,,,,,,,k,3.878000021,HORQUK,TRUE,,,,,,,136,forquilla,Catalan,Sounds/cat_forquilla.mp3,2020-06-22_00h11.59.816,TranslationElicitation_spa,3.2.4,Win32,60,553772niofhwifwelfbwqilfbqfhi,,1,0,80,31,1,79
,,,,,,,,,,,,,,,,,,,,,,,,,,,,,,,,,,,backspace,4.345000029,HORQ,TRUE,,,,,,,136,forquilla,Catalan,Sounds/cat_forquilla.mp3,2020-06-22_00h11.59.816,TranslationElicitation_spa,3.2.4,Win32,60,553772niofhwifwelfbwqilfbqfhi,,1,0,80,31,1,79
,,,,,,,,,,,,,,,,,,,,,,,,,,,,,,,,,,,i,4.877000093,HORQI,TRUE,,,,,,,136,forquilla,Catalan,Sounds/cat_forquilla.mp3,2020-06-22_00h11.59.816,TranslationElicitation_spa,3.2.4,Win32,60,553772niofhwifwelfbwqilfbqfhi,,1,0,80,31,1,79
,,,,,,,,,,,,,,,,,,,,,,,,,,,,,,,,,,,l,5.077000141,HORQIL,TRUE,,,,,,,136,forquilla,Catalan,Sounds/cat_forquilla.mp3,2020-06-22_00h11.59.816,TranslationElicitation_spa,3.2.4,Win32,60,553772niofhwifwelfbwqilfbqfhi,,1,0,80,31,1,79
,,,,,,,,,,,,,,,,,,,,,,,,,,,,,,,,,,,l,5.226999998,HORQILL,TRUE,,,,,,,136,forquilla,Catalan,Sounds/cat_forquilla.mp3,2020-06-22_00h11.59.816,TranslationElicitation_spa,3.2.4,Win32,60,553772niofhwifwelfbwqilfbqfhi,,1,0,80,31,1,79
,,,,,,,,,,,,,,,,,,,,,,,,,,,,,,,,,,,a,5.327000141,HORQILLA,TRUE,,,,,,,136,forquilla,Catalan,Sounds/cat_forquilla.mp3,2020-06-22_00h11.59.816,TranslationElicitation_spa,3.2.4,Win32,60,553772niofhwifwelfbwqilfbqfhi,,1,0,80,31,1,79
,,,,,,,,,,,,,,,,,,,,,,,,,,,,,,,,,,,backspace,12.87199998,HORQIL,TRUE,,,,,,,136,forquilla,Catalan,Sounds/cat_forquilla.mp3,2020-06-22_00h11.59.816,TranslationElicitation_spa,3.2.4,Win32,60,553772niofhwifwelfbwqilfbqfhi,,1,0,80,31,1,79
,,,,,,,,,,,,,,,,,,,,,,,,,,,,,,,,,,,backspace,13.36899996,HORQ,TRUE,,,,,,,136,forquilla,Catalan,Sounds/cat_forquilla.mp3,2020-06-22_00h11.59.816,TranslationElicitation_spa,3.2.4,Win32,60,553772niofhwifwelfbwqilfbqfhi,,1,0,80,31,1,79
,,,,,,,,,,,,,,,,,,,,,,,,,,,,,,,,,,,backspace,13.40400004,HO,TRUE,,,,,,,136,forquilla,Catalan,Sounds/cat_forquilla.mp3,2020-06-22_00h11.59.816,TranslationElicitation_spa,3.2.4,Win32,60,553772niofhwifwelfbwqilfbqfhi,,1,0,80,31,1,79
,,,,,,,,,,,,,,,,,,,,,,,,,,,,,,,,,,,backspace,13.44400001,,TRUE,,,,,,,136,forquilla,Catalan,Sounds/cat_forquilla.mp3,2020-06-22_00h11.59.816,TranslationElicitation_spa,3.2.4,Win32,60,553772niofhwifwelfbwqilfbqfhi,,1,0,80,31,1,79
,,,,,,,,,,,,,,,,,,,,,,,,,,,,,,,,,,,backspace,13.47000003,,TRUE,,,,,,,136,forquilla,Catalan,Sounds/cat_forquilla.mp3,2020-06-22_00h11.59.816,TranslationElicitation_spa,3.2.4,Win32,60,553772niofhwifwelfbwqilfbqfhi,,1,0,80,31,1,79
,,,,,,,,,,,,,,,,,,,,,,,,,,,,,,,,,,,backspace,13.50300002,,TRUE,,,,,,,136,forquilla,Catalan,Sounds/cat_forquilla.mp3,2020-06-22_00h11.59.816,TranslationElicitation_spa,3.2.4,Win32,60,553772niofhwifwelfbwqilfbqfhi,,1,0,80,31,1,79
,,,,,,,,,,,,,,,,,,,,,,,,,,,,,,,,,,,backspace,13.51900005,,TRUE,,,,,,,136,forquilla,Catalan,Sounds/cat_forquilla.mp3,2020-06-22_00h11.59.816,TranslationElicitation_spa,3.2.4,Win32,60,553772niofhwifwelfbwqilfbqfhi,,1,0,80,31,1,79
,,,,,,,,,,,,,,,,,,,,,,,,,,,,,,,,,,,backspace,13.55200005,,TRUE,,,,,,,136,forquilla,Catalan,Sounds/cat_forquilla.mp3,2020-06-22_00h11.59.816,TranslationElicitation_spa,3.2.4,Win32,60,553772niofhwifwelfbwqilfbqfhi,,1,0,80,31,1,79
,,,,,,,,,,,,,,,,,,,,,,,,,,,,,,,,,,,backspace,13.58700013,,TRUE,,,,,,,136,forquilla,Catalan,Sounds/cat_forquilla.mp3,2020-06-22_00h11.59.816,TranslationElicitation_spa,3.2.4,Win32,60,553772niofhwifwelfbwqilfbqfhi,,1,0,80,31,1,79
,,,,,,,,,,,,,,,,,,,,,,,,,,,,,,,,,,,backspace,13.61899996,,TRUE,,,,,,,136,forquilla,Catalan,Sounds/cat_forquilla.mp3,2020-06-22_00h11.59.816,TranslationElicitation_spa,3.2.4,Win32,60,553772niofhwifwelfbwqilfbqfhi,,1,0,80,31,1,79
,,,,,,,,,,,,,,,,,,,,,,,,,,,,,,,,,,,backspace,13.65300012,,TRUE,,,,,,,136,forquilla,Catalan,Sounds/cat_forquilla.mp3,2020-06-22_00h11.59.816,TranslationElicitation_spa,3.2.4,Win32,60,553772niofhwifwelfbwqilfbqfhi,,1,0,80,31,1,79
,,,,,,,,,,,,,,,,,,,,,,,,,,,,,,,,,,,backspace,13.68600011,,TRUE,,,,,,,136,forquilla,Catalan,Sounds/cat_forquilla.mp3,2020-06-22_00h11.59.816,TranslationElicitation_spa,3.2.4,Win32,60,553772niofhwifwelfbwqilfbqfhi,,1,0,80,31,1,79
,,,,,,,,,,,,,,,,,,,,,,,,,,,,,,,,,,,backspace,13.70300007,,TRUE,,,,,,,136,forquilla,Catalan,Sounds/cat_forquilla.mp3,2020-06-22_00h11.59.816,TranslationElicitation_spa,3.2.4,Win32,60,553772niofhwifwelfbwqilfbqfhi,,1,0,80,31,1,79
,,,,,,,,,,,,,,,,,,,,,,,,,,,,,,,,,,,backspace,13.73600006,,TRUE,,,,,,,136,forquilla,Catalan,Sounds/cat_forquilla.mp3,2020-06-22_00h11.59.816,TranslationElicitation_spa,3.2.4,Win32,60,553772niofhwifwelfbwqilfbqfhi,,1,0,80,31,1,79
,,,,,,,,,,,,,,,,,,,,,,,,,,,,,,,,,,,h,14.30200005,H,TRUE,,,,,,,136,forquilla,Catalan,Sounds/cat_forquilla.mp3,2020-06-22_00h11.59.816,TranslationElicitation_spa,3.2.4,Win32,60,553772niofhwifwelfbwqilfbqfhi,,1,0,80,31,1,79
,,,,,,,,,,,,,,,,,,,,,,,,,,,,,,,,,,,o,14.53500009,HO,TRUE,,,,,,,136,forquilla,Catalan,Sounds/cat_forquilla.mp3,2020-06-22_00h11.59.816,TranslationElicitation_spa,3.2.4,Win32,60,553772niofhwifwelfbwqilfbqfhi,,1,0,80,31,1,79
,,,,,,,,,,,,,,,,,,,,,,,,,,,,,,,,,,,r,14.77699995,HOR,TRUE,,,,,,,136,forquilla,Catalan,Sounds/cat_forquilla.mp3,2020-06-22_00h11.59.816,TranslationElicitation_spa,3.2.4,Win32,60,553772niofhwifwelfbwqilfbqfhi,,1,0,80,31,1,79
,,,,,,,,,,,,,,,,,,,,,,,,,,,,,,,,,,,q,15.06800008,HORQ,TRUE,,,,,,,136,forquilla,Catalan,Sounds/cat_forquilla.mp3,2020-06-22_00h11.59.816,TranslationElicitation_spa,3.2.4,Win32,60,553772niofhwifwelfbwqilfbqfhi,,1,0,80,31,1,79
,,,,,,,,,,,,,,,,,,,,,,,,,,,,,,,,,,,u,15.26800013,HORQU,TRUE,,,,,,,136,forquilla,Catalan,Sounds/cat_forquilla.mp3,2020-06-22_00h11.59.816,TranslationElicitation_spa,3.2.4,Win32,60,553772niofhwifwelfbwqilfbqfhi,,1,0,80,31,1,79
,,,,,,,,,,,,,,,,,,,,,,,,,,,,,,,,,,,i,15.33400011,HORQUI,TRUE,,,,,,,136,forquilla,Catalan,Sounds/cat_forquilla.mp3,2020-06-22_00h11.59.816,TranslationElicitation_spa,3.2.4,Win32,60,553772niofhwifwelfbwqilfbqfhi,,1,0,80,31,1,79
,,,,,,,,,,,,,,,,,,,,,,,,,,,,,,,,,,,l,15.65100002,HORQUIL,TRUE,,,,,,,136,forquilla,Catalan,Sounds/cat_forquilla.mp3,2020-06-22_00h11.59.816,TranslationElicitation_spa,3.2.4,Win32,60,553772niofhwifwelfbwqilfbqfhi,,1,0,80,31,1,79
,,,,,,,,,,,,,,,,,,,,,,,,,,,,,,,,,,,l,15.83400011,HORQUILL,TRUE,,,,,,,136,forquilla,Catalan,Sounds/cat_forquilla.mp3,2020-06-22_00h11.59.816,TranslationElicitation_spa,3.2.4,Win32,60,553772niofhwifwelfbwqilfbqfhi,,1,0,80,31,1,79
,,,,,,,,,,,,,,,,,,,,,,,,,,,,,,,,,,,a,15.96700001,HORQUILLA,TRUE,,,,,,,136,forquilla,Catalan,Sounds/cat_forquilla.mp3,2020-06-22_00h11.59.816,TranslationElicitation_spa,3.2.4,Win32,60,553772niofhwifwelfbwqilfbqfhi,,1,0,80,31,1,79
,,,,,,,,,,,,,,,,,,,,,,,,,,,,,,,,,,,return,16.5,,TRUE,,,,,,,136,forquilla,Catalan,Sounds/cat_forquilla.mp3,2020-06-22_00h11.59.816,TranslationElicitation_spa,3.2.4,Win32,60,553772niofhwifwelfbwqilfbqfhi,16.49900007,1,0,80,31,1,79
,,,,,,,,,,,,,,,,,,,,,,,,,,,,,,,,,,,,,,,,,,,,,136,forquilla,Catalan,Sounds/cat_forquilla.mp3,2020-06-22_00h11.59.816,TranslationElicitation_spa,3.2.4,Win32,60,553772niofhwifwelfbwqilfbqfhi,,1,0,80,31,1,79
,,,,,,,,,,,,,,,,,,,,,,,,,,,,,,,,,,,e,1.40899992,E,FALSE,,,,,,,132,estrella,Catalan,Sounds/cat_estrella.mp3,2020-06-22_00h11.59.816,TranslationElicitation_spa,3.2.4,Win32,60,553772niofhwifwelfbwqilfbqfhi,,1,0,80,27,1,79
,,,,,,,,,,,,,,,,,,,,,,,,,,,,,,,,,,,s,1.507999897,ES,FALSE,,,,,,,132,estrella,Catalan,Sounds/cat_estrella.mp3,2020-06-22_00h11.59.816,TranslationElicitation_spa,3.2.4,Win32,60,553772niofhwifwelfbwqilfbqfhi,,1,0,80,27,1,79
,,,,,,,,,,,,,,,,,,,,,,,,,,,,,,,,,,,t,1.65899992,EST,FALSE,,,,,,,132,estrella,Catalan,Sounds/cat_estrella.mp3,2020-06-22_00h11.59.816,TranslationElicitation_spa,3.2.4,Win32,60,553772niofhwifwelfbwqilfbqfhi,,1,0,80,27,1,79
,,,,,,,,,,,,,,,,,,,,,,,,,,,,,,,,,,,r,1.85800004,ESTR,FALSE,,,,,,,132,estrella,Catalan,Sounds/cat_estrella.mp3,2020-06-22_00h11.59.816,TranslationElicitation_spa,3.2.4,Win32,60,553772niofhwifwelfbwqilfbqfhi,,1,0,80,27,1,79
,,,,,,,,,,,,,,,,,,,,,,,,,,,,,,,,,,,e,1.973999977,ESTRE,FALSE,,,,,,,132,estrella,Catalan,Sounds/cat_estrella.mp3,2020-06-22_00h11.59.816,TranslationElicitation_spa,3.2.4,Win32,60,553772niofhwifwelfbwqilfbqfhi,,1,0,80,27,1,79
,,,,,,,,,,,,,,,,,,,,,,,,,,,,,,,,,,,l,2.190000057,ESTREL,FALSE,,,,,,,132,estrella,Catalan,Sounds/cat_estrella.mp3,2020-06-22_00h11.59.816,TranslationElicitation_spa,3.2.4,Win32,60,553772niofhwifwelfbwqilfbqfhi,,1,0,80,27,1,79
,,,,,,,,,,,,,,,,,,,,,,,,,,,,,,,,,,,l,2.374000072,ESTRELL,FALSE,,,,,,,132,estrella,Catalan,Sounds/cat_estrella.mp3,2020-06-22_00h11.59.816,TranslationElicitation_spa,3.2.4,Win32,60,553772niofhwifwelfbwqilfbqfhi,,1,0,80,27,1,79
,,,,,,,,,,,,,,,,,,,,,,,,,,,,,,,,,,,a,2.448999882,ESTRELLA,FALSE,,,,,,,132,estrella,Catalan,Sounds/cat_estrella.mp3,2020-06-22_00h11.59.816,TranslationElicitation_spa,3.2.4,Win32,60,553772niofhwifwelfbwqilfbqfhi,,1,0,80,27,1,79
,,,,,,,,,,,,,,,,,,,,,,,,,,,,,,,,,,,return,2.657000065,,FALSE,,,,,,,132,estrella,Catalan,Sounds/cat_estrella.mp3,2020-06-22_00h11.59.816,TranslationElicitation_spa,3.2.4,Win32,60,553772niofhwifwelfbwqilfbqfhi,2.657000065,1,0,80,27,1,79
,,,,,,,,,,,,,,,,,,,,,,,,,,,,,,,,,,,,,,,,,,,,,132,estrella,Catalan,Sounds/cat_estrella.mp3,2020-06-22_00h11.59.816,TranslationElicitation_spa,3.2.4,Win32,60,553772niofhwifwelfbwqilfbqfhi,,1,0,80,27,1,79
,,,,,,,,,,,,,,,,,,,,,,,,,,,,,,,,,,,c,1.864000082,C,FALSE,,,,,,,119,caixa,Catalan,Sounds/cat_caixa.mp3,2020-06-22_00h11.59.816,TranslationElicitation_spa,3.2.4,Win32,60,553772niofhwifwelfbwqilfbqfhi,,1,0,80,14,1,79
,,,,,,,,,,,,,,,,,,,,,,,,,,,,,,,,,,,a,1.980000019,CA,FALSE,,,,,,,119,caixa,Catalan,Sounds/cat_caixa.mp3,2020-06-22_00h11.59.816,TranslationElicitation_spa,3.2.4,Win32,60,553772niofhwifwelfbwqilfbqfhi,,1,0,80,14,1,79
,,,,,,,,,,,,,,,,,,,,,,,,,,,,,,,,,,,s,2.046000004,CAS,FALSE,,,,,,,119,caixa,Catalan,Sounds/cat_caixa.mp3,2020-06-22_00h11.59.816,TranslationElicitation_spa,3.2.4,Win32,60,553772niofhwifwelfbwqilfbqfhi,,1,0,80,14,1,79
,,,,,,,,,,,,,,,,,,,,,,,,,,,,,,,,,,,a,2.196000099,CASA,FALSE,,,,,,,119,caixa,Catalan,Sounds/cat_caixa.mp3,2020-06-22_00h11.59.816,TranslationElicitation_spa,3.2.4,Win32,60,553772niofhwifwelfbwqilfbqfhi,,1,0,80,14,1,79
,,,,,,,,,,,,,,,,,,,,,,,,,,,,,,,,,,,return,3.012000084,,FALSE,,,,,,,119,caixa,Catalan,Sounds/cat_caixa.mp3,2020-06-22_00h11.59.816,TranslationElicitation_spa,3.2.4,Win32,60,553772niofhwifwelfbwqilfbqfhi,3.012000084,1,0,80,14,1,79
,,,,,,,,,,,,,,,,,,,,,,,,,,,,,,,,,,,,,,,,,,,,,119,caixa,Catalan,Sounds/cat_caixa.mp3,2020-06-22_00h11.59.816,TranslationElicitation_spa,3.2.4,Win32,60,553772niofhwifwelfbwqilfbqfhi,,1,0,80,14,1,79
,,,,,,,,,,,,,,,,,,,,,,,,,,,,,,,,,,,p,2.378999949,P,FALSE,,,,,,,171,pollastre,Catalan,Sounds/cat_pollastre.mp3,2020-06-22_00h11.59.816,TranslationElicitation_spa,3.2.4,Win32,60,553772niofhwifwelfbwqilfbqfhi,,1,0,80,63,1,79
,,,,,,,,,,,,,,,,,,,,,,,,,,,,,,,,,,,o,2.512000084,PO,FALSE,,,,,,,171,pollastre,Catalan,Sounds/cat_pollastre.mp3,2020-06-22_00h11.59.816,TranslationElicitation_spa,3.2.4,Win32,60,553772niofhwifwelfbwqilfbqfhi,,1,0,80,63,1,79
,,,,,,,,,,,,,,,,,,,,,,,,,,,,,,,,,,,l,2.796999931,POL,FALSE,,,,,,,171,pollastre,Catalan,Sounds/cat_pollastre.mp3,2020-06-22_00h11.59.816,TranslationElicitation_spa,3.2.4,Win32,60,553772niofhwifwelfbwqilfbqfhi,,1,0,80,63,1,79
,,,,,,,,,,,,,,,,,,,,,,,,,,,,,,,,,,,l,2.979000092,POLL,FALSE,,,,,,,171,pollastre,Catalan,Sounds/cat_pollastre.mp3,2020-06-22_00h11.59.816,TranslationElicitation_spa,3.2.4,Win32,60,553772niofhwifwelfbwqilfbqfhi,,1,0,80,63,1,79
,,,,,,,,,,,,,,,,,,,,,,,,,,,,,,,,,,,a,3.128999949,POLLA,FALSE,,,,,,,171,pollastre,Catalan,Sounds/cat_pollastre.mp3,2020-06-22_00h11.59.816,TranslationElicitation_spa,3.2.4,Win32,60,553772niofhwifwelfbwqilfbqfhi,,1,0,80,63,1,79
,,,,,,,,,,,,,,,,,,,,,,,,,,,,,,,,,,,s,3.227999926,POLLAS,FALSE,,,,,,,171,pollastre,Catalan,Sounds/cat_pollastre.mp3,2020-06-22_00h11.59.816,TranslationElicitation_spa,3.2.4,Win32,60,553772niofhwifwelfbwqilfbqfhi,,1,0,80,63,1,79
,,,,,,,,,,,,,,,,,,,,,,,,,,,,,,,,,,,a,3.411999941,POLLASA,FALSE,,,,,,,171,pollastre,Catalan,Sounds/cat_pollastre.mp3,2020-06-22_00h11.59.816,TranslationElicitation_spa,3.2.4,Win32,60,553772niofhwifwelfbwqilfbqfhi,,1,0,80,63,1,79
,,,,,,,,,,,,,,,,,,,,,,,,,,,,,,,,,,,t,3.477999926,POLLASAT,FALSE,,,,,,,171,pollastre,Catalan,Sounds/cat_pollastre.mp3,2020-06-22_00h11.59.816,TranslationElicitation_spa,3.2.4,Win32,60,553772niofhwifwelfbwqilfbqfhi,,1,0,80,63,1,79
,,,,,,,,,,,,,,,,,,,,,,,,,,,,,,,,,,,backspace,4.154000044,POLLAS,TRUE,,,,,,,171,pollastre,Catalan,Sounds/cat_pollastre.mp3,2020-06-22_00h11.59.816,TranslationElicitation_spa,3.2.4,Win32,60,553772niofhwifwelfbwqilfbqfhi,,1,0,80,63,1,79
,,,,,,,,,,,,,,,,,,,,,,,,,,,,,,,,,,,t,4.713000059,POLLAST,TRUE,,,,,,,171,pollastre,Catalan,Sounds/cat_pollastre.mp3,2020-06-22_00h11.59.816,TranslationElicitation_spa,3.2.4,Win32,60,553772niofhwifwelfbwqilfbqfhi,,1,0,80,63,1,79
,,,,,,,,,,,,,,,,,,,,,,,,,,,,,,,,,,,r,4.911000013,POLLASTR,TRUE,,,,,,,171,pollastre,Catalan,Sounds/cat_pollastre.mp3,2020-06-22_00h11.59.816,TranslationElicitation_spa,3.2.4,Win32,60,553772niofhwifwelfbwqilfbqfhi,,1,0,80,63,1,79
,,,,,,,,,,,,,,,,,,,,,,,,,,,,,,,,,,,e,5.013000011,POLLASTRE,TRUE,,,,,,,171,pollastre,Catalan,Sounds/cat_pollastre.mp3,2020-06-22_00h11.59.816,TranslationElicitation_spa,3.2.4,Win32,60,553772niofhwifwelfbwqilfbqfhi,,1,0,80,63,1,79
,,,,,,,,,,,,,,,,,,,,,,,,,,,,,,,,,,,return,5.210000038,,TRUE,,,,,,,171,pollastre,Catalan,Sounds/cat_pollastre.mp3,2020-06-22_00h11.59.816,TranslationElicitation_spa,3.2.4,Win32,60,553772niofhwifwelfbwqilfbqfhi,5.210000038,1,0,80,63,1,79
,,,,,,,,,,,,,,,,,,,,,,,,,,,,,,,,,,,,,,,,,,,,,171,pollastre,Catalan,Sounds/cat_pollastre.mp3,2020-06-22_00h11.59.816,TranslationElicitation_spa,3.2.4,Win32,60,553772niofhwifwelfbwqilfbqfhi,,1,0,80,63,1,79
,,,,,,,,,,,,,,,,,,,,,,,,,,,,,,,,,,,o,2.307999849,O,FALSE,,,,,,,185,ulleres,Catalan,Sounds/cat_ulleres.mp3,2020-06-22_00h11.59.816,TranslationElicitation_spa,3.2.4,Win32,60,553772niofhwifwelfbwqilfbqfhi,,1,0,80,76,1,79
,,,,,,,,,,,,,,,,,,,,,,,,,,,,,,,,,,,r,2.590999842,OR,FALSE,,,,,,,185,ulleres,Catalan,Sounds/cat_ulleres.mp3,2020-06-22_00h11.59.816,TranslationElicitation_spa,3.2.4,Win32,60,553772niofhwifwelfbwqilfbqfhi,,1,0,80,76,1,79
,,,,,,,,,,,,,,,,,,,,,,,,,,,,,,,,,,,e,2.674000025,ORE,FALSE,,,,,,,185,ulleres,Catalan,Sounds/cat_ulleres.mp3,2020-06-22_00h11.59.816,TranslationElicitation_spa,3.2.4,Win32,60,553772niofhwifwelfbwqilfbqfhi,,1,0,80,76,1,79
,,,,,,,,,,,,,,,,,,,,,,,,,,,,,,,,,,,j,2.823999882,OREJ,FALSE,,,,,,,185,ulleres,Catalan,Sounds/cat_ulleres.mp3,2020-06-22_00h11.59.816,TranslationElicitation_spa,3.2.4,Win32,60,553772niofhwifwelfbwqilfbqfhi,,1,0,80,76,1,79
,,,,,,,,,,,,,,,,,,,,,,,,,,,,,,,,,,,a,2.906999826,OREJA,FALSE,,,,,,,185,ulleres,Catalan,Sounds/cat_ulleres.mp3,2020-06-22_00h11.59.816,TranslationElicitation_spa,3.2.4,Win32,60,553772niofhwifwelfbwqilfbqfhi,,1,0,80,76,1,79
,,,,,,,,,,,,,,,,,,,,,,,,,,,,,,,,,,,s,3.040999889,OREJAS,FALSE,,,,,,,185,ulleres,Catalan,Sounds/cat_ulleres.mp3,2020-06-22_00h11.59.816,TranslationElicitation_spa,3.2.4,Win32,60,553772niofhwifwelfbwqilfbqfhi,,1,0,80,76,1,79
,,,,,,,,,,,,,,,,,,,,,,,,,,,,,,,,,,,return,3.207000017,,FALSE,,,,,,,185,ulleres,Catalan,Sounds/cat_ulleres.mp3,2020-06-22_00h11.59.816,TranslationElicitation_spa,3.2.4,Win32,60,553772niofhwifwelfbwqilfbqfhi,3.207000017,1,0,80,76,1,79
