consentKey.keys,consentKey.rt,languageL1Key.keys,languageL1Key.rt,languageL2,languageL2OralKey.keys,languageL2OralKey.rt,languageL2WrittenKey.keys,languageL2WrittenKey.rt,languageL3OralKey.keys,languageL3OralKey.rt,languageL3WrittenKey.keys,languageL3WrittenKey.rt,languageCatalanOralKey.keys,languageCatalanOralKey.rt,languageCatalanWrittenKey.keys,languageCatalanWrittenKey.rt,languageCatalanTimeKey.keys,languageCatalanTimeKey.rt,age,demoSexKey.keys,demoSexKey.rt,demoEducationKey.keys,demoEducationKey.rt,city,demoVisionKey.keys,demoVisionKey.rt,demoLanguageKey.keys,demoLanguageKey.rt,setupLocationKey.keys,setupLocationKey.rt,setupNoiseKey.keys,setupNoiseKey.rt,instructionsKeys.keys,instructionsKeys.rt,keyPressed,keyPressTime,inputText,error,trials_practice.thisRepN,trials_practice.thisTrialN,trials_practice.thisN,trials_practice.thisIndex,trials_practice.ran,trials_practice.order,trial_id,word,test_language,soundfile,date,expName,psychopyVersion,OS,frameRate,participant,trialOffset,trials.thisRepN,trials.thisTrialN,trials.thisN,trials.thisIndex,trials.ran,trials.order
space,32.89699984,e,8.126999855,FRANCÉS,3,15.33200002,4,6.243000031,2,3.326999903,3,4.600999832,1,3.786000013,1,4.917000055,1,10.60299993,21,m,4.688000202,3,4.098999977,OVIEDO,n,13.10100007,n,9.449999809,4,7.527999878,1,6.924999952,space,26.13800001,a,3.075999975,A,FALSE,1,0,5,4,1,4,179,tigre,Catalan,Sounds/cat_tigre.mp3,2020-06-28_20h45.58.015,TranslationElicitation_spa,3.2.4,Win32,60,5583klnvweklnwvpio939vn932,,,,,,,
,,,,,,,,,,,,,,,,,,,,,,,,,,,,,,,,,,,return,4.375,,FALSE,1,0,5,4,1,4,179,tigre,Catalan,Sounds/cat_tigre.mp3,2020-06-28_20h45.58.015,TranslationElicitation_spa,3.2.4,Win32,60,5583klnvweklnwvpio939vn932,4.375,,,,,,
,,,,,,,,,,,,,,,,,,,,,,,,,,,,,,,,,,,,,,,1,0,5,4,1,4,179,tigre,Catalan,Sounds/cat_tigre.mp3,2020-06-28_20h45.58.015,TranslationElicitation_spa,3.2.4,Win32,60,5583klnvweklnwvpio939vn932,,,,,,,
,,,,,,,,,,,,,,,,,,,,,,,,,,,,,,,,,,,p,2.111999989,P,FALSE,1,0,5,3,1,4,167,pingui,Catalan,Sounds/cat_pingui.mp3,2020-06-28_20h45.58.015,TranslationElicitation_spa,3.2.4,Win32,60,5583klnvweklnwvpio939vn932,,,,,,,
,,,,,,,,,,,,,,,,,,,,,,,,,,,,,,,,,,,i,2.379000187,PI,FALSE,1,0,5,3,1,4,167,pingui,Catalan,Sounds/cat_pingui.mp3,2020-06-28_20h45.58.015,TranslationElicitation_spa,3.2.4,Win32,60,5583klnvweklnwvpio939vn932,,,,,,,
,,,,,,,,,,,,,,,,,,,,,,,,,,,,,,,,,,,n,2.611999989,PIN,FALSE,1,0,5,3,1,4,167,pingui,Catalan,Sounds/cat_pingui.mp3,2020-06-28_20h45.58.015,TranslationElicitation_spa,3.2.4,Win32,60,5583klnvweklnwvpio939vn932,,,,,,,
,,,,,,,,,,,,,,,,,,,,,,,,,,,,,,,,,,,g,2.846000195,PING,FALSE,1,0,5,3,1,4,167,pingui,Catalan,Sounds/cat_pingui.mp3,2020-06-28_20h45.58.015,TranslationElicitation_spa,3.2.4,Win32,60,5583klnvweklnwvpio939vn932,,,,,,,
,,,,,,,,,,,,,,,,,,,,,,,,,,,,,,,,,,,apostrophe,5.812000036,PING,FALSE,1,0,5,3,1,4,167,pingui,Catalan,Sounds/cat_pingui.mp3,2020-06-28_20h45.58.015,TranslationElicitation_spa,3.2.4,Win32,60,5583klnvweklnwvpio939vn932,,,,,,,
,,,,,,,,,,,,,,,,,,,,,,,,,,,,,,,,,,,u,6.259000063,PINGÚ,FALSE,1,0,5,3,1,4,167,pingui,Catalan,Sounds/cat_pingui.mp3,2020-06-28_20h45.58.015,TranslationElicitation_spa,3.2.4,Win32,60,5583klnvweklnwvpio939vn932,,,,,,,
,,,,,,,,,,,,,,,,,,,,,,,,,,,,,,,,,,,backspace,8.407000065,PIN,TRUE,1,0,5,3,1,4,167,pingui,Catalan,Sounds/cat_pingui.mp3,2020-06-28_20h45.58.015,TranslationElicitation_spa,3.2.4,Win32,60,5583klnvweklnwvpio939vn932,,,,,,,
,,,,,,,,,,,,,,,,,,,,,,,,,,,,,,,,,,,u,9.489000082,PINU,TRUE,1,0,5,3,1,4,167,pingui,Catalan,Sounds/cat_pingui.mp3,2020-06-28_20h45.58.015,TranslationElicitation_spa,3.2.4,Win32,60,5583klnvweklnwvpio939vn932,,,,,,,
,,,,,,,,,,,,,,,,,,,,,,,,,,,,,,,,,,,i,9.606000185,PINUI,TRUE,1,0,5,3,1,4,167,pingui,Catalan,Sounds/cat_pingui.mp3,2020-06-28_20h45.58.015,TranslationElicitation_spa,3.2.4,Win32,60,5583klnvweklnwvpio939vn932,,,,,,,
,,,,,,,,,,,,,,,,,,,,,,,,,,,,,,,,,,,n,9.805999994,PINUIN,TRUE,1,0,5,3,1,4,167,pingui,Catalan,Sounds/cat_pingui.mp3,2020-06-28_20h45.58.015,TranslationElicitation_spa,3.2.4,Win32,60,5583klnvweklnwvpio939vn932,,,,,,,
,,,,,,,,,,,,,,,,,,,,,,,,,,,,,,,,,,,o,10.00600004,PINUINO,TRUE,1,0,5,3,1,4,167,pingui,Catalan,Sounds/cat_pingui.mp3,2020-06-28_20h45.58.015,TranslationElicitation_spa,3.2.4,Win32,60,5583klnvweklnwvpio939vn932,,,,,,,
,,,,,,,,,,,,,,,,,,,,,,,,,,,,,,,,,,,backspace,10.95500016,PINUI,TRUE,1,0,5,3,1,4,167,pingui,Catalan,Sounds/cat_pingui.mp3,2020-06-28_20h45.58.015,TranslationElicitation_spa,3.2.4,Win32,60,5583klnvweklnwvpio939vn932,,,,,,,
,,,,,,,,,,,,,,,,,,,,,,,,,,,,,,,,,,,backspace,11.12100005,PIN,TRUE,1,0,5,3,1,4,167,pingui,Catalan,Sounds/cat_pingui.mp3,2020-06-28_20h45.58.015,TranslationElicitation_spa,3.2.4,Win32,60,5583klnvweklnwvpio939vn932,,,,,,,
,,,,,,,,,,,,,,,,,,,,,,,,,,,,,,,,,,,backspace,11.27100015,P,TRUE,1,0,5,3,1,4,167,pingui,Catalan,Sounds/cat_pingui.mp3,2020-06-28_20h45.58.015,TranslationElicitation_spa,3.2.4,Win32,60,5583klnvweklnwvpio939vn932,,,,,,,
,,,,,,,,,,,,,,,,,,,,,,,,,,,,,,,,,,,i,12.18700004,PI,TRUE,1,0,5,3,1,4,167,pingui,Catalan,Sounds/cat_pingui.mp3,2020-06-28_20h45.58.015,TranslationElicitation_spa,3.2.4,Win32,60,5583klnvweklnwvpio939vn932,,,,,,,
,,,,,,,,,,,,,,,,,,,,,,,,,,,,,,,,,,,n,12.50400019,PIN,TRUE,1,0,5,3,1,4,167,pingui,Catalan,Sounds/cat_pingui.mp3,2020-06-28_20h45.58.015,TranslationElicitation_spa,3.2.4,Win32,60,5583klnvweklnwvpio939vn932,,,,,,,
,,,,,,,,,,,,,,,,,,,,,,,,,,,,,,,,,,,g,12.82000017,PING,TRUE,1,0,5,3,1,4,167,pingui,Catalan,Sounds/cat_pingui.mp3,2020-06-28_20h45.58.015,TranslationElicitation_spa,3.2.4,Win32,60,5583klnvweklnwvpio939vn932,,,,,,,
,,,,,,,,,,,,,,,,,,,,,,,,,,,,,,,,,,,u,12.9690001,PINGU,TRUE,1,0,5,3,1,4,167,pingui,Catalan,Sounds/cat_pingui.mp3,2020-06-28_20h45.58.015,TranslationElicitation_spa,3.2.4,Win32,60,5583klnvweklnwvpio939vn932,,,,,,,
,,,,,,,,,,,,,,,,,,,,,,,,,,,,,,,,,,,i,13.07000017,PINGUI,TRUE,1,0,5,3,1,4,167,pingui,Catalan,Sounds/cat_pingui.mp3,2020-06-28_20h45.58.015,TranslationElicitation_spa,3.2.4,Win32,60,5583klnvweklnwvpio939vn932,,,,,,,
,,,,,,,,,,,,,,,,,,,,,,,,,,,,,,,,,,,n,13.3690002,PINGUIN,TRUE,1,0,5,3,1,4,167,pingui,Catalan,Sounds/cat_pingui.mp3,2020-06-28_20h45.58.015,TranslationElicitation_spa,3.2.4,Win32,60,5583klnvweklnwvpio939vn932,,,,,,,
,,,,,,,,,,,,,,,,,,,,,,,,,,,,,,,,,,,o,13.50200009,PINGUINO,TRUE,1,0,5,3,1,4,167,pingui,Catalan,Sounds/cat_pingui.mp3,2020-06-28_20h45.58.015,TranslationElicitation_spa,3.2.4,Win32,60,5583klnvweklnwvpio939vn932,,,,,,,
,,,,,,,,,,,,,,,,,,,,,,,,,,,,,,,,,,,return,14.352,,TRUE,1,0,5,3,1,4,167,pingui,Catalan,Sounds/cat_pingui.mp3,2020-06-28_20h45.58.015,TranslationElicitation_spa,3.2.4,Win32,60,5583klnvweklnwvpio939vn932,14.352,,,,,,
,,,,,,,,,,,,,,,,,,,,,,,,,,,,,,,,,,,,,,,1,0,5,3,1,4,167,pingui,Catalan,Sounds/cat_pingui.mp3,2020-06-28_20h45.58.015,TranslationElicitation_spa,3.2.4,Win32,60,5583klnvweklnwvpio939vn932,,,,,,,
,,,,,,,,,,,,,,,,,,,,,,,,,,,,,,,,,,,c,1.64199996,C,FALSE,1,0,5,1,1,4,147,jaqueta,Catalan,Sounds/cat_jaqueta.mp3,2020-06-28_20h45.58.015,TranslationElicitation_spa,3.2.4,Win32,60,5583klnvweklnwvpio939vn932,,,,,,,
,,,,,,,,,,,,,,,,,,,,,,,,,,,,,,,,,,,h,1.85800004,CH,FALSE,1,0,5,1,1,4,147,jaqueta,Catalan,Sounds/cat_jaqueta.mp3,2020-06-28_20h45.58.015,TranslationElicitation_spa,3.2.4,Win32,60,5583klnvweklnwvpio939vn932,,,,,,,
,,,,,,,,,,,,,,,,,,,,,,,,,,,,,,,,,,,a,1.957999945,CHA,FALSE,1,0,5,1,1,4,147,jaqueta,Catalan,Sounds/cat_jaqueta.mp3,2020-06-28_20h45.58.015,TranslationElicitation_spa,3.2.4,Win32,60,5583klnvweklnwvpio939vn932,,,,,,,
,,,,,,,,,,,,,,,,,,,,,,,,,,,,,,,,,,,q,2.174000025,CHAQ,FALSE,1,0,5,1,1,4,147,jaqueta,Catalan,Sounds/cat_jaqueta.mp3,2020-06-28_20h45.58.015,TranslationElicitation_spa,3.2.4,Win32,60,5583klnvweklnwvpio939vn932,,,,,,,
,,,,,,,,,,,,,,,,,,,,,,,,,,,,,,,,,,,u,2.274999857,CHAQU,FALSE,1,0,5,1,1,4,147,jaqueta,Catalan,Sounds/cat_jaqueta.mp3,2020-06-28_20h45.58.015,TranslationElicitation_spa,3.2.4,Win32,60,5583klnvweklnwvpio939vn932,,,,,,,
,,,,,,,,,,,,,,,,,,,,,,,,,,,,,,,,,,,e,2.407999992,CHAQUE,FALSE,1,0,5,1,1,4,147,jaqueta,Catalan,Sounds/cat_jaqueta.mp3,2020-06-28_20h45.58.015,TranslationElicitation_spa,3.2.4,Win32,60,5583klnvweklnwvpio939vn932,,,,,,,
,,,,,,,,,,,,,,,,,,,,,,,,,,,,,,,,,,,t,2.558000088,CHAQUET,FALSE,1,0,5,1,1,4,147,jaqueta,Catalan,Sounds/cat_jaqueta.mp3,2020-06-28_20h45.58.015,TranslationElicitation_spa,3.2.4,Win32,60,5583klnvweklnwvpio939vn932,,,,,,,
,,,,,,,,,,,,,,,,,,,,,,,,,,,,,,,,,,,a,2.724999905,CHAQUETA,FALSE,1,0,5,1,1,4,147,jaqueta,Catalan,Sounds/cat_jaqueta.mp3,2020-06-28_20h45.58.015,TranslationElicitation_spa,3.2.4,Win32,60,5583klnvweklnwvpio939vn932,,,,,,,
,,,,,,,,,,,,,,,,,,,,,,,,,,,,,,,,,,,return,3.372999907,,FALSE,1,0,5,1,1,4,147,jaqueta,Catalan,Sounds/cat_jaqueta.mp3,2020-06-28_20h45.58.015,TranslationElicitation_spa,3.2.4,Win32,60,5583klnvweklnwvpio939vn932,3.372999907,,,,,,
,,,,,,,,,,,,,,,,,,,,,,,,,,,,,,,,,,,,,,,1,0,5,1,1,4,147,jaqueta,Catalan,Sounds/cat_jaqueta.mp3,2020-06-28_20h45.58.015,TranslationElicitation_spa,3.2.4,Win32,60,5583klnvweklnwvpio939vn932,,,,,,,
,,,,,,,,,,,,,,,,,,,,,,,,,,,,,,,,,,,h,12.86800003,H,FALSE,1,0,5,2,1,4,159,onada,Catalan,Sounds/cat_onada.mp3,2020-06-28_20h45.58.015,TranslationElicitation_spa,3.2.4,Win32,60,5583klnvweklnwvpio939vn932,,,,,,,
,,,,,,,,,,,,,,,,,,,,,,,,,,,,,,,,,,,a,13.06700015,HA,FALSE,1,0,5,2,1,4,159,onada,Catalan,Sounds/cat_onada.mp3,2020-06-28_20h45.58.015,TranslationElicitation_spa,3.2.4,Win32,60,5583klnvweklnwvpio939vn932,,,,,,,
,,,,,,,,,,,,,,,,,,,,,,,,,,,,,,,,,,,d,13.20000005,HAD,FALSE,1,0,5,2,1,4,159,onada,Catalan,Sounds/cat_onada.mp3,2020-06-28_20h45.58.015,TranslationElicitation_spa,3.2.4,Win32,60,5583klnvweklnwvpio939vn932,,,,,,,
,,,,,,,,,,,,,,,,,,,,,,,,,,,,,,,,,,,a,13.31700015,HADA,FALSE,1,0,5,2,1,4,159,onada,Catalan,Sounds/cat_onada.mp3,2020-06-28_20h45.58.015,TranslationElicitation_spa,3.2.4,Win32,60,5583klnvweklnwvpio939vn932,,,,,,,
,,,,,,,,,,,,,,,,,,,,,,,,,,,,,,,,,,,return,18.31200004,,FALSE,1,0,5,2,1,4,159,onada,Catalan,Sounds/cat_onada.mp3,2020-06-28_20h45.58.015,TranslationElicitation_spa,3.2.4,Win32,60,5583klnvweklnwvpio939vn932,18.31200004,,,,,,
,,,,,,,,,,,,,,,,,,,,,,,,,,,,,,,,,,,,,,,1,0,5,2,1,4,159,onada,Catalan,Sounds/cat_onada.mp3,2020-06-28_20h45.58.015,TranslationElicitation_spa,3.2.4,Win32,60,5583klnvweklnwvpio939vn932,,,,,,,
,,,,,,,,,,,,,,,,,,,,,,,,,,,,,,,,,,,a,8.417999983,A,FALSE,1,0,5,0,1,4,109,arbre,Catalan,Sounds/cat_arbre.mp3,2020-06-28_20h45.58.015,TranslationElicitation_spa,3.2.4,Win32,60,5583klnvweklnwvpio939vn932,,,,,,,
,,,,,,,,,,,,,,,,,,,,,,,,,,,,,,,,,,,r,8.700999975,AR,FALSE,1,0,5,0,1,4,109,arbre,Catalan,Sounds/cat_arbre.mp3,2020-06-28_20h45.58.015,TranslationElicitation_spa,3.2.4,Win32,60,5583klnvweklnwvpio939vn932,,,,,,,
,,,,,,,,,,,,,,,,,,,,,,,,,,,,,,,,,,,b,9.117000103,ARB,FALSE,1,0,5,0,1,4,109,arbre,Catalan,Sounds/cat_arbre.mp3,2020-06-28_20h45.58.015,TranslationElicitation_spa,3.2.4,Win32,60,5583klnvweklnwvpio939vn932,,,,,,,
,,,,,,,,,,,,,,,,,,,,,,,,,,,,,,,,,,,o,9.332999945,ARBO,FALSE,1,0,5,0,1,4,109,arbre,Catalan,Sounds/cat_arbre.mp3,2020-06-28_20h45.58.015,TranslationElicitation_spa,3.2.4,Win32,60,5583klnvweklnwvpio939vn932,,,,,,,
,,,,,,,,,,,,,,,,,,,,,,,,,,,,,,,,,,,l,9.483999968,ARBOL,FALSE,1,0,5,0,1,4,109,arbre,Catalan,Sounds/cat_arbre.mp3,2020-06-28_20h45.58.015,TranslationElicitation_spa,3.2.4,Win32,60,5583klnvweklnwvpio939vn932,,,,,,,
,,,,,,,,,,,,,,,,,,,,,,,,,,,,,,,,,,,e,9.600000143,ARBOLE,FALSE,1,0,5,0,1,4,109,arbre,Catalan,Sounds/cat_arbre.mp3,2020-06-28_20h45.58.015,TranslationElicitation_spa,3.2.4,Win32,60,5583klnvweklnwvpio939vn932,,,,,,,
,,,,,,,,,,,,,,,,,,,,,,,,,,,,,,,,,,,d,9.782999992,ARBOLED,FALSE,1,0,5,0,1,4,109,arbre,Catalan,Sounds/cat_arbre.mp3,2020-06-28_20h45.58.015,TranslationElicitation_spa,3.2.4,Win32,60,5583klnvweklnwvpio939vn932,,,,,,,
,,,,,,,,,,,,,,,,,,,,,,,,,,,,,,,,,,,a,10.08299994,ARBOLEDA,FALSE,1,0,5,0,1,4,109,arbre,Catalan,Sounds/cat_arbre.mp3,2020-06-28_20h45.58.015,TranslationElicitation_spa,3.2.4,Win32,60,5583klnvweklnwvpio939vn932,,,,,,,
,,,,,,,,,,,,,,,,,,,,,,,,,,,,,,,,,,,return,10.49900007,,FALSE,1,0,5,0,1,4,109,arbre,Catalan,Sounds/cat_arbre.mp3,2020-06-28_20h45.58.015,TranslationElicitation_spa,3.2.4,Win32,60,5583klnvweklnwvpio939vn932,10.49900007,,,,,,
,,,,,,,,,,,,,,,,,,,,,,,,,,,,,,,,,,,,,,,1,0,5,0,1,4,109,arbre,Catalan,Sounds/cat_arbre.mp3,2020-06-28_20h45.58.015,TranslationElicitation_spa,3.2.4,Win32,60,5583klnvweklnwvpio939vn932,,,,,,,
,,,,,,,,,,,,,,,,,,,,,,,,,,,,,,,,,,,t,1.493000031,T,FALSE,,,,,,,182,tomaquet,Catalan,Sounds/cat_tomaquet.mp3,2020-06-28_20h45.58.015,TranslationElicitation_spa,3.2.4,Win32,60,5583klnvweklnwvpio939vn932,,1,0,80,73,1,79
,,,,,,,,,,,,,,,,,,,,,,,,,,,,,,,,,,,u,1.792999983,TU,FALSE,,,,,,,182,tomaquet,Catalan,Sounds/cat_tomaquet.mp3,2020-06-28_20h45.58.015,TranslationElicitation_spa,3.2.4,Win32,60,5583klnvweklnwvpio939vn932,,1,0,80,73,1,79
,,,,,,,,,,,,,,,,,,,,,,,,,,,,,,,,,,,m,2.077000141,TUM,FALSE,,,,,,,182,tomaquet,Catalan,Sounds/cat_tomaquet.mp3,2020-06-28_20h45.58.015,TranslationElicitation_spa,3.2.4,Win32,60,5583klnvweklnwvpio939vn932,,1,0,80,73,1,79
,,,,,,,,,,,,,,,,,,,,,,,,,,,,,,,,,,,a,2.242000103,TUMA,FALSE,,,,,,,182,tomaquet,Catalan,Sounds/cat_tomaquet.mp3,2020-06-28_20h45.58.015,TranslationElicitation_spa,3.2.4,Win32,60,5583klnvweklnwvpio939vn932,,1,0,80,73,1,79
,,,,,,,,,,,,,,,,,,,,,,,,,,,,,,,,,,,c,2.407999992,TUMAC,FALSE,,,,,,,182,tomaquet,Catalan,Sounds/cat_tomaquet.mp3,2020-06-28_20h45.58.015,TranslationElicitation_spa,3.2.4,Win32,60,5583klnvweklnwvpio939vn932,,1,0,80,73,1,79
,,,,,,,,,,,,,,,,,,,,,,,,,,,,,,,,,,,a,2.525000095,TUMACA,FALSE,,,,,,,182,tomaquet,Catalan,Sounds/cat_tomaquet.mp3,2020-06-28_20h45.58.015,TranslationElicitation_spa,3.2.4,Win32,60,5583klnvweklnwvpio939vn932,,1,0,80,73,1,79
,,,,,,,,,,,,,,,,,,,,,,,,,,,,,,,,,,,return,3.308000088,,FALSE,,,,,,,182,tomaquet,Catalan,Sounds/cat_tomaquet.mp3,2020-06-28_20h45.58.015,TranslationElicitation_spa,3.2.4,Win32,60,5583klnvweklnwvpio939vn932,3.308000088,1,0,80,73,1,79
,,,,,,,,,,,,,,,,,,,,,,,,,,,,,,,,,,,,,,,,,,,,,182,tomaquet,Catalan,Sounds/cat_tomaquet.mp3,2020-06-28_20h45.58.015,TranslationElicitation_spa,3.2.4,Win32,60,5583klnvweklnwvpio939vn932,,1,0,80,73,1,79
,,,,,,,,,,,,,,,,,,,,,,,,,,,,,,,,,,,p,2.226000071,P,FALSE,,,,,,,169,plat,Catalan,Sounds/cat_plat.mp3,2020-06-28_20h45.58.015,TranslationElicitation_spa,3.2.4,Win32,60,5583klnvweklnwvpio939vn932,,1,0,80,61,1,79
,,,,,,,,,,,,,,,,,,,,,,,,,,,,,,,,,,,l,2.410000086,PL,FALSE,,,,,,,169,plat,Catalan,Sounds/cat_plat.mp3,2020-06-28_20h45.58.015,TranslationElicitation_spa,3.2.4,Win32,60,5583klnvweklnwvpio939vn932,,1,0,80,61,1,79
,,,,,,,,,,,,,,,,,,,,,,,,,,,,,,,,,,,a,2.542999983,PLA,FALSE,,,,,,,169,plat,Catalan,Sounds/cat_plat.mp3,2020-06-28_20h45.58.015,TranslationElicitation_spa,3.2.4,Win32,60,5583klnvweklnwvpio939vn932,,1,0,80,61,1,79
,,,,,,,,,,,,,,,,,,,,,,,,,,,,,,,,,,,t,2.726000071,PLAT,FALSE,,,,,,,169,plat,Catalan,Sounds/cat_plat.mp3,2020-06-28_20h45.58.015,TranslationElicitation_spa,3.2.4,Win32,60,5583klnvweklnwvpio939vn932,,1,0,80,61,1,79
,,,,,,,,,,,,,,,,,,,,,,,,,,,,,,,,,,,o,3.191999912,PLATO,FALSE,,,,,,,169,plat,Catalan,Sounds/cat_plat.mp3,2020-06-28_20h45.58.015,TranslationElicitation_spa,3.2.4,Win32,60,5583klnvweklnwvpio939vn932,,1,0,80,61,1,79
,,,,,,,,,,,,,,,,,,,,,,,,,,,,,,,,,,,return,3.575999975,,FALSE,,,,,,,169,plat,Catalan,Sounds/cat_plat.mp3,2020-06-28_20h45.58.015,TranslationElicitation_spa,3.2.4,Win32,60,5583klnvweklnwvpio939vn932,3.575999975,1,0,80,61,1,79
,,,,,,,,,,,,,,,,,,,,,,,,,,,,,,,,,,,,,,,,,,,,,169,plat,Catalan,Sounds/cat_plat.mp3,2020-06-28_20h45.58.015,TranslationElicitation_spa,3.2.4,Win32,60,5583klnvweklnwvpio939vn932,,1,0,80,61,1,79
,,,,,,,,,,,,,,,,,,,,,,,,,,,,,,,,,,,g,2.322999954,G,FALSE,,,,,,,139,galleda,Catalan,Sounds/cat_galleda.mp3,2020-06-28_20h45.58.015,TranslationElicitation_spa,3.2.4,Win32,60,5583klnvweklnwvpio939vn932,,1,0,80,34,1,79
,,,,,,,,,,,,,,,,,,,,,,,,,,,,,,,,,,,a,2.45600009,GA,FALSE,,,,,,,139,galleda,Catalan,Sounds/cat_galleda.mp3,2020-06-28_20h45.58.015,TranslationElicitation_spa,3.2.4,Win32,60,5583klnvweklnwvpio939vn932,,1,0,80,34,1,79
,,,,,,,,,,,,,,,,,,,,,,,,,,,,,,,,,,,l,2.74000001,GAL,FALSE,,,,,,,139,galleda,Catalan,Sounds/cat_galleda.mp3,2020-06-28_20h45.58.015,TranslationElicitation_spa,3.2.4,Win32,60,5583klnvweklnwvpio939vn932,,1,0,80,34,1,79
,,,,,,,,,,,,,,,,,,,,,,,,,,,,,,,,,,,l,2.890000105,GALL,FALSE,,,,,,,139,galleda,Catalan,Sounds/cat_galleda.mp3,2020-06-28_20h45.58.015,TranslationElicitation_spa,3.2.4,Win32,60,5583klnvweklnwvpio939vn932,,1,0,80,34,1,79
,,,,,,,,,,,,,,,,,,,,,,,,,,,,,,,,,,,e,3.006000042,GALLE,FALSE,,,,,,,139,galleda,Catalan,Sounds/cat_galleda.mp3,2020-06-28_20h45.58.015,TranslationElicitation_spa,3.2.4,Win32,60,5583klnvweklnwvpio939vn932,,1,0,80,34,1,79
,,,,,,,,,,,,,,,,,,,,,,,,,,,,,,,,,,,t,3.188999891,GALLET,FALSE,,,,,,,139,galleda,Catalan,Sounds/cat_galleda.mp3,2020-06-28_20h45.58.015,TranslationElicitation_spa,3.2.4,Win32,60,5583klnvweklnwvpio939vn932,,1,0,80,34,1,79
,,,,,,,,,,,,,,,,,,,,,,,,,,,,,,,,,,,a,3.372999907,GALLETA,FALSE,,,,,,,139,galleda,Catalan,Sounds/cat_galleda.mp3,2020-06-28_20h45.58.015,TranslationElicitation_spa,3.2.4,Win32,60,5583klnvweklnwvpio939vn932,,1,0,80,34,1,79
,,,,,,,,,,,,,,,,,,,,,,,,,,,,,,,,,,,return,4.470999956,,FALSE,,,,,,,139,galleda,Catalan,Sounds/cat_galleda.mp3,2020-06-28_20h45.58.015,TranslationElicitation_spa,3.2.4,Win32,60,5583klnvweklnwvpio939vn932,4.470999956,1,0,80,34,1,79
,,,,,,,,,,,,,,,,,,,,,,,,,,,,,,,,,,,,,,,,,,,,,139,galleda,Catalan,Sounds/cat_galleda.mp3,2020-06-28_20h45.58.015,TranslationElicitation_spa,3.2.4,Win32,60,5583klnvweklnwvpio939vn932,,1,0,80,34,1,79
,,,,,,,,,,,,,,,,,,,,,,,,,,,,,,,,,,,m,2.174000025,M,FALSE,,,,,,,154,mirall,Catalan,Sounds/cat_mirall.mp3,2020-06-28_20h45.58.015,TranslationElicitation_spa,3.2.4,Win32,60,5583klnvweklnwvpio939vn932,,1,0,80,48,1,79
,,,,,,,,,,,,,,,,,,,,,,,,,,,,,,,,,,,i,2.357000113,MI,FALSE,,,,,,,154,mirall,Catalan,Sounds/cat_mirall.mp3,2020-06-28_20h45.58.015,TranslationElicitation_spa,3.2.4,Win32,60,5583klnvweklnwvpio939vn932,,1,0,80,48,1,79
,,,,,,,,,,,,,,,,,,,,,,,,,,,,,,,,,,,a,2.590000153,MIA,FALSE,,,,,,,154,mirall,Catalan,Sounds/cat_mirall.mp3,2020-06-28_20h45.58.015,TranslationElicitation_spa,3.2.4,Win32,60,5583klnvweklnwvpio939vn932,,1,0,80,48,1,79
,,,,,,,,,,,,,,,,,,,,,,,,,,,,,,,,,,,backspace,3.572999954,M,TRUE,,,,,,,154,mirall,Catalan,Sounds/cat_mirall.mp3,2020-06-28_20h45.58.015,TranslationElicitation_spa,3.2.4,Win32,60,5583klnvweklnwvpio939vn932,,1,0,80,48,1,79
,,,,,,,,,,,,,,,,,,,,,,,,,,,,,,,,,,,r,4.022000074,MR,TRUE,,,,,,,154,mirall,Catalan,Sounds/cat_mirall.mp3,2020-06-28_20h45.58.015,TranslationElicitation_spa,3.2.4,Win32,60,5583klnvweklnwvpio939vn932,,1,0,80,48,1,79
,,,,,,,,,,,,,,,,,,,,,,,,,,,,,,,,,,,a,4.123000145,MRA,TRUE,,,,,,,154,mirall,Catalan,Sounds/cat_mirall.mp3,2020-06-28_20h45.58.015,TranslationElicitation_spa,3.2.4,Win32,60,5583klnvweklnwvpio939vn932,,1,0,80,48,1,79
,,,,,,,,,,,,,,,,,,,,,,,,,,,,,,,,,,,d,4.205000162,MRAD,TRUE,,,,,,,154,mirall,Catalan,Sounds/cat_mirall.mp3,2020-06-28_20h45.58.015,TranslationElicitation_spa,3.2.4,Win32,60,5583klnvweklnwvpio939vn932,,1,0,80,48,1,79
,,,,,,,,,,,,,,,,,,,,,,,,,,,,,,,,,,,a,4.355000019,MRADA,TRUE,,,,,,,154,mirall,Catalan,Sounds/cat_mirall.mp3,2020-06-28_20h45.58.015,TranslationElicitation_spa,3.2.4,Win32,60,5583klnvweklnwvpio939vn932,,1,0,80,48,1,79
,,,,,,,,,,,,,,,,,,,,,,,,,,,,,,,,,,,backspace,7.469000101,MRA,TRUE,,,,,,,154,mirall,Catalan,Sounds/cat_mirall.mp3,2020-06-28_20h45.58.015,TranslationElicitation_spa,3.2.4,Win32,60,5583klnvweklnwvpio939vn932,,1,0,80,48,1,79
,,,,,,,,,,,,,,,,,,,,,,,,,,,,,,,,,,,backspace,7.652000189,M,TRUE,,,,,,,154,mirall,Catalan,Sounds/cat_mirall.mp3,2020-06-28_20h45.58.015,TranslationElicitation_spa,3.2.4,Win32,60,5583klnvweklnwvpio939vn932,,1,0,80,48,1,79
,,,,,,,,,,,,,,,,,,,,,,,,,,,,,,,,,,,backspace,7.802000046,,TRUE,,,,,,,154,mirall,Catalan,Sounds/cat_mirall.mp3,2020-06-28_20h45.58.015,TranslationElicitation_spa,3.2.4,Win32,60,5583klnvweklnwvpio939vn932,,1,0,80,48,1,79
,,,,,,,,,,,,,,,,,,,,,,,,,,,,,,,,,,,m,8.618000031,M,TRUE,,,,,,,154,mirall,Catalan,Sounds/cat_mirall.mp3,2020-06-28_20h45.58.015,TranslationElicitation_spa,3.2.4,Win32,60,5583klnvweklnwvpio939vn932,,1,0,80,48,1,79
,,,,,,,,,,,,,,,,,,,,,,,,,,,,,,,,,,,i,8.818000078,MI,TRUE,,,,,,,154,mirall,Catalan,Sounds/cat_mirall.mp3,2020-06-28_20h45.58.015,TranslationElicitation_spa,3.2.4,Win32,60,5583klnvweklnwvpio939vn932,,1,0,80,48,1,79
,,,,,,,,,,,,,,,,,,,,,,,,,,,,,,,,,,,r,9.084000111,MIR,TRUE,,,,,,,154,mirall,Catalan,Sounds/cat_mirall.mp3,2020-06-28_20h45.58.015,TranslationElicitation_spa,3.2.4,Win32,60,5583klnvweklnwvpio939vn932,,1,0,80,48,1,79
,,,,,,,,,,,,,,,,,,,,,,,,,,,,,,,,,,,a,9.26699996,MIRA,TRUE,,,,,,,154,mirall,Catalan,Sounds/cat_mirall.mp3,2020-06-28_20h45.58.015,TranslationElicitation_spa,3.2.4,Win32,60,5583klnvweklnwvpio939vn932,,1,0,80,48,1,79
,,,,,,,,,,,,,,,,,,,,,,,,,,,,,,,,,,,d,9.400000095,MIRAD,TRUE,,,,,,,154,mirall,Catalan,Sounds/cat_mirall.mp3,2020-06-28_20h45.58.015,TranslationElicitation_spa,3.2.4,Win32,60,5583klnvweklnwvpio939vn932,,1,0,80,48,1,79
,,,,,,,,,,,,,,,,,,,,,,,,,,,,,,,,,,,a,9.51699996,MIRADA,TRUE,,,,,,,154,mirall,Catalan,Sounds/cat_mirall.mp3,2020-06-28_20h45.58.015,TranslationElicitation_spa,3.2.4,Win32,60,5583klnvweklnwvpio939vn932,,1,0,80,48,1,79
,,,,,,,,,,,,,,,,,,,,,,,,,,,,,,,,,,,return,10.33300018,,TRUE,,,,,,,154,mirall,Catalan,Sounds/cat_mirall.mp3,2020-06-28_20h45.58.015,TranslationElicitation_spa,3.2.4,Win32,60,5583klnvweklnwvpio939vn932,10.33300018,1,0,80,48,1,79
,,,,,,,,,,,,,,,,,,,,,,,,,,,,,,,,,,,,,,,,,,,,,154,mirall,Catalan,Sounds/cat_mirall.mp3,2020-06-28_20h45.58.015,TranslationElicitation_spa,3.2.4,Win32,60,5583klnvweklnwvpio939vn932,,1,0,80,48,1,79
,,,,,,,,,,,,,,,,,,,,,,,,,,,,,,,,,,,c,1.308000088,C,FALSE,,,,,,,188,xocolata,Catalan,Sounds/cat_xocolata.mp3,2020-06-28_20h45.58.015,TranslationElicitation_spa,3.2.4,Win32,60,5583klnvweklnwvpio939vn932,,1,0,80,78,1,79
,,,,,,,,,,,,,,,,,,,,,,,,,,,,,,,,,,,h,1.459000111,CH,FALSE,,,,,,,188,xocolata,Catalan,Sounds/cat_xocolata.mp3,2020-06-28_20h45.58.015,TranslationElicitation_spa,3.2.4,Win32,60,5583klnvweklnwvpio939vn932,,1,0,80,78,1,79
,,,,,,,,,,,,,,,,,,,,,,,,,,,,,,,,,,,o,1.674000025,CHO,FALSE,,,,,,,188,xocolata,Catalan,Sounds/cat_xocolata.mp3,2020-06-28_20h45.58.015,TranslationElicitation_spa,3.2.4,Win32,60,5583klnvweklnwvpio939vn932,,1,0,80,78,1,79
,,,,,,,,,,,,,,,,,,,,,,,,,,,,,,,,,,,c,2.174000025,CHOC,FALSE,,,,,,,188,xocolata,Catalan,Sounds/cat_xocolata.mp3,2020-06-28_20h45.58.015,TranslationElicitation_spa,3.2.4,Win32,60,5583klnvweklnwvpio939vn932,,1,0,80,78,1,79
,,,,,,,,,,,,,,,,,,,,,,,,,,,,,,,,,,,o,2.407999992,CHOCO,FALSE,,,,,,,188,xocolata,Catalan,Sounds/cat_xocolata.mp3,2020-06-28_20h45.58.015,TranslationElicitation_spa,3.2.4,Win32,60,5583klnvweklnwvpio939vn932,,1,0,80,78,1,79
,,,,,,,,,,,,,,,,,,,,,,,,,,,,,,,,,,,l,2.57400012,CHOCOL,FALSE,,,,,,,188,xocolata,Catalan,Sounds/cat_xocolata.mp3,2020-06-28_20h45.58.015,TranslationElicitation_spa,3.2.4,Win32,60,5583klnvweklnwvpio939vn932,,1,0,80,78,1,79
,,,,,,,,,,,,,,,,,,,,,,,,,,,,,,,,,,,a,2.907000065,CHOCOLA,FALSE,,,,,,,188,xocolata,Catalan,Sounds/cat_xocolata.mp3,2020-06-28_20h45.58.015,TranslationElicitation_spa,3.2.4,Win32,60,5583klnvweklnwvpio939vn932,,1,0,80,78,1,79
,,,,,,,,,,,,,,,,,,,,,,,,,,,,,,,,,,,t,3.107000113,CHOCOLAT,FALSE,,,,,,,188,xocolata,Catalan,Sounds/cat_xocolata.mp3,2020-06-28_20h45.58.015,TranslationElicitation_spa,3.2.4,Win32,60,5583klnvweklnwvpio939vn932,,1,0,80,78,1,79
,,,,,,,,,,,,,,,,,,,,,,,,,,,,,,,,,,,e,3.256999969,CHOCOLATE,FALSE,,,,,,,188,xocolata,Catalan,Sounds/cat_xocolata.mp3,2020-06-28_20h45.58.015,TranslationElicitation_spa,3.2.4,Win32,60,5583klnvweklnwvpio939vn932,,1,0,80,78,1,79
,,,,,,,,,,,,,,,,,,,,,,,,,,,,,,,,,,,return,3.92200017,,FALSE,,,,,,,188,xocolata,Catalan,Sounds/cat_xocolata.mp3,2020-06-28_20h45.58.015,TranslationElicitation_spa,3.2.4,Win32,60,5583klnvweklnwvpio939vn932,3.92200017,1,0,80,78,1,79
,,,,,,,,,,,,,,,,,,,,,,,,,,,,,,,,,,,,,,,,,,,,,188,xocolata,Catalan,Sounds/cat_xocolata.mp3,2020-06-28_20h45.58.015,TranslationElicitation_spa,3.2.4,Win32,60,5583klnvweklnwvpio939vn932,,1,0,80,78,1,79
,,,,,,,,,,,,,,,,,,,,,,,,,,,,,,,,,,,c,13.28399992,C,FALSE,,,,,,,125,colom,Catalan,Sounds/cat_colom.mp3,2020-06-28_20h45.58.015,TranslationElicitation_spa,3.2.4,Win32,60,5583klnvweklnwvpio939vn932,,1,0,80,20,1,79
,,,,,,,,,,,,,,,,,,,,,,,,,,,,,,,,,,,o,13.41499996,CO,FALSE,,,,,,,125,colom,Catalan,Sounds/cat_colom.mp3,2020-06-28_20h45.58.015,TranslationElicitation_spa,3.2.4,Win32,60,5583klnvweklnwvpio939vn932,,1,0,80,20,1,79
,,,,,,,,,,,,,,,,,,,,,,,,,,,,,,,,,,,l,13.58200002,COL,FALSE,,,,,,,125,colom,Catalan,Sounds/cat_colom.mp3,2020-06-28_20h45.58.015,TranslationElicitation_spa,3.2.4,Win32,60,5583klnvweklnwvpio939vn932,,1,0,80,20,1,79
,,,,,,,,,,,,,,,,,,,,,,,,,,,,,,,,,,,o,13.74900007,COLO,FALSE,,,,,,,125,colom,Catalan,Sounds/cat_colom.mp3,2020-06-28_20h45.58.015,TranslationElicitation_spa,3.2.4,Win32,60,5583klnvweklnwvpio939vn932,,1,0,80,20,1,79
,,,,,,,,,,,,,,,,,,,,,,,,,,,,,,,,,,,r,13.91499996,COLOR,FALSE,,,,,,,125,colom,Catalan,Sounds/cat_colom.mp3,2020-06-28_20h45.58.015,TranslationElicitation_spa,3.2.4,Win32,60,5583klnvweklnwvpio939vn932,,1,0,80,20,1,79
,,,,,,,,,,,,,,,,,,,,,,,,,,,,,,,,,,,return,14.63100004,,FALSE,,,,,,,125,colom,Catalan,Sounds/cat_colom.mp3,2020-06-28_20h45.58.015,TranslationElicitation_spa,3.2.4,Win32,60,5583klnvweklnwvpio939vn932,14.63100004,1,0,80,20,1,79
,,,,,,,,,,,,,,,,,,,,,,,,,,,,,,,,,,,,,,,,,,,,,125,colom,Catalan,Sounds/cat_colom.mp3,2020-06-28_20h45.58.015,TranslationElicitation_spa,3.2.4,Win32,60,5583klnvweklnwvpio939vn932,,1,0,80,20,1,79
,,,,,,,,,,,,,,,,,,,,,,,,,,,,,,,,,,,e,24.77199984,E,FALSE,,,,,,,137,fulla,Catalan,Sounds/cat_fulla.mp3,2020-06-28_20h45.58.015,TranslationElicitation_spa,3.2.4,Win32,60,5583klnvweklnwvpio939vn932,,1,0,80,32,1,79
,,,,,,,,,,,,,,,,,,,,,,,,,,,,,,,,,,,backspace,25.9369998,,TRUE,,,,,,,137,fulla,Catalan,Sounds/cat_fulla.mp3,2020-06-28_20h45.58.015,TranslationElicitation_spa,3.2.4,Win32,60,5583klnvweklnwvpio939vn932,,1,0,80,32,1,79
,,,,,,,,,,,,,,,,,,,,,,,,,,,,,,,,,,,s,26.15399981,S,TRUE,,,,,,,137,fulla,Catalan,Sounds/cat_fulla.mp3,2020-06-28_20h45.58.015,TranslationElicitation_spa,3.2.4,Win32,60,5583klnvweklnwvpio939vn932,,1,0,80,32,1,79
,,,,,,,,,,,,,,,,,,,,,,,,,,,,,,,,,,,e,26.38699985,SE,TRUE,,,,,,,137,fulla,Catalan,Sounds/cat_fulla.mp3,2020-06-28_20h45.58.015,TranslationElicitation_spa,3.2.4,Win32,60,5583klnvweklnwvpio939vn932,,1,0,80,32,1,79
,,,,,,,,,,,,,,,,,,,,,,,,,,,,,,,,,,,t,26.65299988,SET,TRUE,,,,,,,137,fulla,Catalan,Sounds/cat_fulla.mp3,2020-06-28_20h45.58.015,TranslationElicitation_spa,3.2.4,Win32,60,5583klnvweklnwvpio939vn932,,1,0,80,32,1,79
,,,,,,,,,,,,,,,,,,,,,,,,,,,,,,,,,,,a,26.88599992,SETA,TRUE,,,,,,,137,fulla,Catalan,Sounds/cat_fulla.mp3,2020-06-28_20h45.58.015,TranslationElicitation_spa,3.2.4,Win32,60,5583klnvweklnwvpio939vn932,,1,0,80,32,1,79
,,,,,,,,,,,,,,,,,,,,,,,,,,,,,,,,,,,return,27.63599992,,TRUE,,,,,,,137,fulla,Catalan,Sounds/cat_fulla.mp3,2020-06-28_20h45.58.015,TranslationElicitation_spa,3.2.4,Win32,60,5583klnvweklnwvpio939vn932,27.63599992,1,0,80,32,1,79
,,,,,,,,,,,,,,,,,,,,,,,,,,,,,,,,,,,,,,,,,,,,,137,fulla,Catalan,Sounds/cat_fulla.mp3,2020-06-28_20h45.58.015,TranslationElicitation_spa,3.2.4,Win32,60,5583klnvweklnwvpio939vn932,,1,0,80,32,1,79
,,,,,,,,,,,,,,,,,,,,,,,,,,,,,,,,,,,h,1.792000055,H,FALSE,,,,,,,136,forquilla,Catalan,Sounds/cat_forquilla.mp3,2020-06-28_20h45.58.015,TranslationElicitation_spa,3.2.4,Win32,60,5583klnvweklnwvpio939vn932,,1,0,80,31,1,79
,,,,,,,,,,,,,,,,,,,,,,,,,,,,,,,,,,,p,2.026000023,HP,FALSE,,,,,,,136,forquilla,Catalan,Sounds/cat_forquilla.mp3,2020-06-28_20h45.58.015,TranslationElicitation_spa,3.2.4,Win32,60,5583klnvweklnwvpio939vn932,,1,0,80,31,1,79
,,,,,,,,,,,,,,,,,,,,,,,,,,,,,,,,,,,r,2.162000179,HPR,FALSE,,,,,,,136,forquilla,Catalan,Sounds/cat_forquilla.mp3,2020-06-28_20h45.58.015,TranslationElicitation_spa,3.2.4,Win32,60,5583klnvweklnwvpio939vn932,,1,0,80,31,1,79
,,,,,,,,,,,,,,,,,,,,,,,,,,,,,,,,,,,q,2.442000151,HPRQ,FALSE,,,,,,,136,forquilla,Catalan,Sounds/cat_forquilla.mp3,2020-06-28_20h45.58.015,TranslationElicitation_spa,3.2.4,Win32,60,5583klnvweklnwvpio939vn932,,1,0,80,31,1,79
,,,,,,,,,,,,,,,,,,,,,,,,,,,,,,,,,,,u,2.60800004,HPRQU,FALSE,,,,,,,136,forquilla,Catalan,Sounds/cat_forquilla.mp3,2020-06-28_20h45.58.015,TranslationElicitation_spa,3.2.4,Win32,60,5583klnvweklnwvpio939vn932,,1,0,80,31,1,79
,,,,,,,,,,,,,,,,,,,,,,,,,,,,,,,,,,,i,2.725000143,HPRQUI,FALSE,,,,,,,136,forquilla,Catalan,Sounds/cat_forquilla.mp3,2020-06-28_20h45.58.015,TranslationElicitation_spa,3.2.4,Win32,60,5583klnvweklnwvpio939vn932,,1,0,80,31,1,79
,,,,,,,,,,,,,,,,,,,,,,,,,,,,,,,,,,,backspace,3.506999969,HPRQ,TRUE,,,,,,,136,forquilla,Catalan,Sounds/cat_forquilla.mp3,2020-06-28_20h45.58.015,TranslationElicitation_spa,3.2.4,Win32,60,5583klnvweklnwvpio939vn932,,1,0,80,31,1,79
,,,,,,,,,,,,,,,,,,,,,,,,,,,,,,,,,,,backspace,3.674000025,HP,TRUE,,,,,,,136,forquilla,Catalan,Sounds/cat_forquilla.mp3,2020-06-28_20h45.58.015,TranslationElicitation_spa,3.2.4,Win32,60,5583klnvweklnwvpio939vn932,,1,0,80,31,1,79
,,,,,,,,,,,,,,,,,,,,,,,,,,,,,,,,,,,backspace,3.82400012,,TRUE,,,,,,,136,forquilla,Catalan,Sounds/cat_forquilla.mp3,2020-06-28_20h45.58.015,TranslationElicitation_spa,3.2.4,Win32,60,5583klnvweklnwvpio939vn932,,1,0,80,31,1,79
,,,,,,,,,,,,,,,,,,,,,,,,,,,,,,,,,,,backspace,3.957000017,,TRUE,,,,,,,136,forquilla,Catalan,Sounds/cat_forquilla.mp3,2020-06-28_20h45.58.015,TranslationElicitation_spa,3.2.4,Win32,60,5583klnvweklnwvpio939vn932,,1,0,80,31,1,79
,,,,,,,,,,,,,,,,,,,,,,,,,,,,,,,,,,,h,4.623000145,H,TRUE,,,,,,,136,forquilla,Catalan,Sounds/cat_forquilla.mp3,2020-06-28_20h45.58.015,TranslationElicitation_spa,3.2.4,Win32,60,5583klnvweklnwvpio939vn932,,1,0,80,31,1,79
,,,,,,,,,,,,,,,,,,,,,,,,,,,,,,,,,,,o,4.838999987,HO,TRUE,,,,,,,136,forquilla,Catalan,Sounds/cat_forquilla.mp3,2020-06-28_20h45.58.015,TranslationElicitation_spa,3.2.4,Win32,60,5583klnvweklnwvpio939vn932,,1,0,80,31,1,79
,,,,,,,,,,,,,,,,,,,,,,,,,,,,,,,,,,,r,5.073000193,HOR,TRUE,,,,,,,136,forquilla,Catalan,Sounds/cat_forquilla.mp3,2020-06-28_20h45.58.015,TranslationElicitation_spa,3.2.4,Win32,60,5583klnvweklnwvpio939vn932,,1,0,80,31,1,79
,,,,,,,,,,,,,,,,,,,,,,,,,,,,,,,,,,,q,5.371999979,HORQ,TRUE,,,,,,,136,forquilla,Catalan,Sounds/cat_forquilla.mp3,2020-06-28_20h45.58.015,TranslationElicitation_spa,3.2.4,Win32,60,5583klnvweklnwvpio939vn932,,1,0,80,31,1,79
,,,,,,,,,,,,,,,,,,,,,,,,,,,,,,,,,,,u,5.489000082,HORQU,TRUE,,,,,,,136,forquilla,Catalan,Sounds/cat_forquilla.mp3,2020-06-28_20h45.58.015,TranslationElicitation_spa,3.2.4,Win32,60,5583klnvweklnwvpio939vn932,,1,0,80,31,1,79
,,,,,,,,,,,,,,,,,,,,,,,,,,,,,,,,,,,i,5.588999987,HORQUI,TRUE,,,,,,,136,forquilla,Catalan,Sounds/cat_forquilla.mp3,2020-06-28_20h45.58.015,TranslationElicitation_spa,3.2.4,Win32,60,5583klnvweklnwvpio939vn932,,1,0,80,31,1,79
,,,,,,,,,,,,,,,,,,,,,,,,,,,,,,,,,,,l,9.285000086,HORQUIL,TRUE,,,,,,,136,forquilla,Catalan,Sounds/cat_forquilla.mp3,2020-06-28_20h45.58.015,TranslationElicitation_spa,3.2.4,Win32,60,5583klnvweklnwvpio939vn932,,1,0,80,31,1,79
,,,,,,,,,,,,,,,,,,,,,,,,,,,,,,,,,,,l,9.452000141,HORQUILL,TRUE,,,,,,,136,forquilla,Catalan,Sounds/cat_forquilla.mp3,2020-06-28_20h45.58.015,TranslationElicitation_spa,3.2.4,Win32,60,5583klnvweklnwvpio939vn932,,1,0,80,31,1,79
,,,,,,,,,,,,,,,,,,,,,,,,,,,,,,,,,,,a,9.685000181,HORQUILLA,TRUE,,,,,,,136,forquilla,Catalan,Sounds/cat_forquilla.mp3,2020-06-28_20h45.58.015,TranslationElicitation_spa,3.2.4,Win32,60,5583klnvweklnwvpio939vn932,,1,0,80,31,1,79
,,,,,,,,,,,,,,,,,,,,,,,,,,,,,,,,,,,return,11.68300009,,TRUE,,,,,,,136,forquilla,Catalan,Sounds/cat_forquilla.mp3,2020-06-28_20h45.58.015,TranslationElicitation_spa,3.2.4,Win32,60,5583klnvweklnwvpio939vn932,11.68300009,1,0,80,31,1,79
,,,,,,,,,,,,,,,,,,,,,,,,,,,,,,,,,,,,,,,,,,,,,136,forquilla,Catalan,Sounds/cat_forquilla.mp3,2020-06-28_20h45.58.015,TranslationElicitation_spa,3.2.4,Win32,60,5583klnvweklnwvpio939vn932,,1,0,80,31,1,79
,,,,,,,,,,,,,,,,,,,,,,,,,,,,,,,,,,,a,7.670000076,A,FALSE,,,,,,,176,samarreta,Catalan,Sounds/cat_samarreta.mp3,2020-06-28_20h45.58.015,TranslationElicitation_spa,3.2.4,Win32,60,5583klnvweklnwvpio939vn932,,1,0,80,68,1,79
,,,,,,,,,,,,,,,,,,,,,,,,,,,,,,,,,,,m,7.868999958,AM,FALSE,,,,,,,176,samarreta,Catalan,Sounds/cat_samarreta.mp3,2020-06-28_20h45.58.015,TranslationElicitation_spa,3.2.4,Win32,60,5583klnvweklnwvpio939vn932,,1,0,80,68,1,79
,,,,,,,,,,,,,,,,,,,,,,,,,,,,,,,,,,,a,8.118999958,AMA,FALSE,,,,,,,176,samarreta,Catalan,Sounds/cat_samarreta.mp3,2020-06-28_20h45.58.015,TranslationElicitation_spa,3.2.4,Win32,60,5583klnvweklnwvpio939vn932,,1,0,80,68,1,79
,,,,,,,,,,,,,,,,,,,,,,,,,,,,,,,,,,,r,8.302000046,AMAR,FALSE,,,,,,,176,samarreta,Catalan,Sounds/cat_samarreta.mp3,2020-06-28_20h45.58.015,TranslationElicitation_spa,3.2.4,Win32,60,5583klnvweklnwvpio939vn932,,1,0,80,68,1,79
,,,,,,,,,,,,,,,,,,,,,,,,,,,,,,,,,,,r,8.451999903,AMARR,FALSE,,,,,,,176,samarreta,Catalan,Sounds/cat_samarreta.mp3,2020-06-28_20h45.58.015,TranslationElicitation_spa,3.2.4,Win32,60,5583klnvweklnwvpio939vn932,,1,0,80,68,1,79
,,,,,,,,,,,,,,,,,,,,,,,,,,,,,,,,,,,a,8.573999882,AMARRA,FALSE,,,,,,,176,samarreta,Catalan,Sounds/cat_samarreta.mp3,2020-06-28_20h45.58.015,TranslationElicitation_spa,3.2.4,Win32,60,5583klnvweklnwvpio939vn932,,1,0,80,68,1,79
,,,,,,,,,,,,,,,,,,,,,,,,,,,,,,,,,,,r,8.751999855,AMARRAR,FALSE,,,,,,,176,samarreta,Catalan,Sounds/cat_samarreta.mp3,2020-06-28_20h45.58.015,TranslationElicitation_spa,3.2.4,Win32,60,5583klnvweklnwvpio939vn932,,1,0,80,68,1,79
,,,,,,,,,,,,,,,,,,,,,,,,,,,,,,,,,,,return,9.417999983,,FALSE,,,,,,,176,samarreta,Catalan,Sounds/cat_samarreta.mp3,2020-06-28_20h45.58.015,TranslationElicitation_spa,3.2.4,Win32,60,5583klnvweklnwvpio939vn932,9.417999983,1,0,80,68,1,79
,,,,,,,,,,,,,,,,,,,,,,,,,,,,,,,,,,,,,,,,,,,,,176,samarreta,Catalan,Sounds/cat_samarreta.mp3,2020-06-28_20h45.58.015,TranslationElicitation_spa,3.2.4,Win32,60,5583klnvweklnwvpio939vn932,,1,0,80,68,1,79
,,,,,,,,,,,,,,,,,,,,,,,,,,,,,,,,,,,p,1.75999999,P,FALSE,,,,,,,166,peu,Catalan,Sounds/cat_peu.mp3,2020-06-28_20h45.58.015,TranslationElicitation_spa,3.2.4,Win32,60,5583klnvweklnwvpio939vn932,,1,0,80,59,1,79
,,,,,,,,,,,,,,,,,,,,,,,,,,,,,,,,,,,e,1.860000134,PE,FALSE,,,,,,,166,peu,Catalan,Sounds/cat_peu.mp3,2020-06-28_20h45.58.015,TranslationElicitation_spa,3.2.4,Win32,60,5583klnvweklnwvpio939vn932,,1,0,80,59,1,79
,,,,,,,,,,,,,,,,,,,,,,,,,,,,,,,,,,,d,2.042999983,PED,FALSE,,,,,,,166,peu,Catalan,Sounds/cat_peu.mp3,2020-06-28_20h45.58.015,TranslationElicitation_spa,3.2.4,Win32,60,5583klnvweklnwvpio939vn932,,1,0,80,59,1,79
,,,,,,,,,,,,,,,,,,,,,,,,,,,,,,,,,,,o,2.143000126,PEDO,FALSE,,,,,,,166,peu,Catalan,Sounds/cat_peu.mp3,2020-06-28_20h45.58.015,TranslationElicitation_spa,3.2.4,Win32,60,5583klnvweklnwvpio939vn932,,1,0,80,59,1,79
,,,,,,,,,,,,,,,,,,,,,,,,,,,,,,,,,,,backspace,2.975000143,PE,TRUE,,,,,,,166,peu,Catalan,Sounds/cat_peu.mp3,2020-06-28_20h45.58.015,TranslationElicitation_spa,3.2.4,Win32,60,5583klnvweklnwvpio939vn932,,1,0,80,59,1,79
,,,,,,,,,,,,,,,,,,,,,,,,,,,,,,,,,,,backspace,3.259000063,,TRUE,,,,,,,166,peu,Catalan,Sounds/cat_peu.mp3,2020-06-28_20h45.58.015,TranslationElicitation_spa,3.2.4,Win32,60,5583klnvweklnwvpio939vn932,,1,0,80,59,1,79
,,,,,,,,,,,,,,,,,,,,,,,,,,,,,,,,,,,e,5.756000042,E,TRUE,,,,,,,166,peu,Catalan,Sounds/cat_peu.mp3,2020-06-28_20h45.58.015,TranslationElicitation_spa,3.2.4,Win32,60,5583klnvweklnwvpio939vn932,,1,0,80,59,1,79
,,,,,,,,,,,,,,,,,,,,,,,,,,,,,,,,,,,r,5.97300005,ER,TRUE,,,,,,,166,peu,Catalan,Sounds/cat_peu.mp3,2020-06-28_20h45.58.015,TranslationElicitation_spa,3.2.4,Win32,60,5583klnvweklnwvpio939vn932,,1,0,80,59,1,79
,,,,,,,,,,,,,,,,,,,,,,,,,,,,,,,,,,,r,6.156000137,ERR,TRUE,,,,,,,166,peu,Catalan,Sounds/cat_peu.mp3,2020-06-28_20h45.58.015,TranslationElicitation_spa,3.2.4,Win32,60,5583klnvweklnwvpio939vn932,,1,0,80,59,1,79
,,,,,,,,,,,,,,,,,,,,,,,,,,,,,,,,,,,o,6.289000034,ERRO,TRUE,,,,,,,166,peu,Catalan,Sounds/cat_peu.mp3,2020-06-28_20h45.58.015,TranslationElicitation_spa,3.2.4,Win32,60,5583klnvweklnwvpio939vn932,,1,0,80,59,1,79
,,,,,,,,,,,,,,,,,,,,,,,,,,,,,,,,,,,backspace,7.038000107,ER,TRUE,,,,,,,166,peu,Catalan,Sounds/cat_peu.mp3,2020-06-28_20h45.58.015,TranslationElicitation_spa,3.2.4,Win32,60,5583klnvweklnwvpio939vn932,,1,0,80,59,1,79
,,,,,,,,,,,,,,,,,,,,,,,,,,,,,,,,,,,backspace,7.222000122,,TRUE,,,,,,,166,peu,Catalan,Sounds/cat_peu.mp3,2020-06-28_20h45.58.015,TranslationElicitation_spa,3.2.4,Win32,60,5583klnvweklnwvpio939vn932,,1,0,80,59,1,79
,,,,,,,,,,,,,,,,,,,,,,,,,,,,,,,,,,,backspace,7.371999979,,TRUE,,,,,,,166,peu,Catalan,Sounds/cat_peu.mp3,2020-06-28_20h45.58.015,TranslationElicitation_spa,3.2.4,Win32,60,5583klnvweklnwvpio939vn932,,1,0,80,59,1,79
,,,,,,,,,,,,,,,,,,,,,,,,,,,,,,,,,,,p,7.986999989,P,TRUE,,,,,,,166,peu,Catalan,Sounds/cat_peu.mp3,2020-06-28_20h45.58.015,TranslationElicitation_spa,3.2.4,Win32,60,5583klnvweklnwvpio939vn932,,1,0,80,59,1,79
,,,,,,,,,,,,,,,,,,,,,,,,,,,,,,,,,,,e,8.138000011,PE,TRUE,,,,,,,166,peu,Catalan,Sounds/cat_peu.mp3,2020-06-28_20h45.58.015,TranslationElicitation_spa,3.2.4,Win32,60,5583klnvweklnwvpio939vn932,,1,0,80,59,1,79
,,,,,,,,,,,,,,,,,,,,,,,,,,,,,,,,,,,r,8.338000059,PER,TRUE,,,,,,,166,peu,Catalan,Sounds/cat_peu.mp3,2020-06-28_20h45.58.015,TranslationElicitation_spa,3.2.4,Win32,60,5583klnvweklnwvpio939vn932,,1,0,80,59,1,79
,,,,,,,,,,,,,,,,,,,,,,,,,,,,,,,,,,,r,8.520999908,PERR,TRUE,,,,,,,166,peu,Catalan,Sounds/cat_peu.mp3,2020-06-28_20h45.58.015,TranslationElicitation_spa,3.2.4,Win32,60,5583klnvweklnwvpio939vn932,,1,0,80,59,1,79
,,,,,,,,,,,,,,,,,,,,,,,,,,,,,,,,,,,o,9.686000109,PERRO,TRUE,,,,,,,166,peu,Catalan,Sounds/cat_peu.mp3,2020-06-28_20h45.58.015,TranslationElicitation_spa,3.2.4,Win32,60,5583klnvweklnwvpio939vn932,,1,0,80,59,1,79
,,,,,,,,,,,,,,,,,,,,,,,,,,,,,,,,,,,return,10.40199995,,TRUE,,,,,,,166,peu,Catalan,Sounds/cat_peu.mp3,2020-06-28_20h45.58.015,TranslationElicitation_spa,3.2.4,Win32,60,5583klnvweklnwvpio939vn932,10.40199995,1,0,80,59,1,79
,,,,,,,,,,,,,,,,,,,,,,,,,,,,,,,,,,,,,,,,,,,,,166,peu,Catalan,Sounds/cat_peu.mp3,2020-06-28_20h45.58.015,TranslationElicitation_spa,3.2.4,Win32,60,5583klnvweklnwvpio939vn932,,1,0,80,59,1,79
,,,,,,,,,,,,,,,,,,,,,,,,,,,,,,,,,,,l,2.207999945,L,FALSE,,,,,,,149,llibre,Catalan,Sounds/cat_llibre.mp3,2020-06-28_20h45.58.015,TranslationElicitation_spa,3.2.4,Win32,60,5583klnvweklnwvpio939vn932,,1,0,80,43,1,79
,,,,,,,,,,,,,,,,,,,,,,,,,,,,,,,,,,,i,2.440999985,LI,FALSE,,,,,,,149,llibre,Catalan,Sounds/cat_llibre.mp3,2020-06-28_20h45.58.015,TranslationElicitation_spa,3.2.4,Win32,60,5583klnvweklnwvpio939vn932,,1,0,80,43,1,79
,,,,,,,,,,,,,,,,,,,,,,,,,,,,,,,,,,,b,2.791000128,LIB,FALSE,,,,,,,149,llibre,Catalan,Sounds/cat_llibre.mp3,2020-06-28_20h45.58.015,TranslationElicitation_spa,3.2.4,Win32,60,5583klnvweklnwvpio939vn932,,1,0,80,43,1,79
,,,,,,,,,,,,,,,,,,,,,,,,,,,,,,,,,,,r,3.124000072,LIBR,FALSE,,,,,,,149,llibre,Catalan,Sounds/cat_llibre.mp3,2020-06-28_20h45.58.015,TranslationElicitation_spa,3.2.4,Win32,60,5583klnvweklnwvpio939vn932,,1,0,80,43,1,79
,,,,,,,,,,,,,,,,,,,,,,,,,,,,,,,,,,,a,3.32400012,LIBRA,FALSE,,,,,,,149,llibre,Catalan,Sounds/cat_llibre.mp3,2020-06-28_20h45.58.015,TranslationElicitation_spa,3.2.4,Win32,60,5583klnvweklnwvpio939vn932,,1,0,80,43,1,79
,,,,,,,,,,,,,,,,,,,,,,,,,,,,,,,,,,,backspace,3.786999941,LIB,TRUE,,,,,,,149,llibre,Catalan,Sounds/cat_llibre.mp3,2020-06-28_20h45.58.015,TranslationElicitation_spa,3.2.4,Win32,60,5583klnvweklnwvpio939vn932,,1,0,80,43,1,79
,,,,,,,,,,,,,,,,,,,,,,,,,,,,,,,,,,,backspace,3.937000036,L,TRUE,,,,,,,149,llibre,Catalan,Sounds/cat_llibre.mp3,2020-06-28_20h45.58.015,TranslationElicitation_spa,3.2.4,Win32,60,5583klnvweklnwvpio939vn932,,1,0,80,43,1,79
,,,,,,,,,,,,,,,,,,,,,,,,,,,,,,,,,,,i,5.102999926,LI,TRUE,,,,,,,149,llibre,Catalan,Sounds/cat_llibre.mp3,2020-06-28_20h45.58.015,TranslationElicitation_spa,3.2.4,Win32,60,5583klnvweklnwvpio939vn932,,1,0,80,43,1,79
,,,,,,,,,,,,,,,,,,,,,,,,,,,,,,,,,,,b,5.368999958,LIB,TRUE,,,,,,,149,llibre,Catalan,Sounds/cat_llibre.mp3,2020-06-28_20h45.58.015,TranslationElicitation_spa,3.2.4,Win32,60,5583klnvweklnwvpio939vn932,,1,0,80,43,1,79
,,,,,,,,,,,,,,,,,,,,,,,,,,,,,,,,,,,r,5.535000086,LIBR,TRUE,,,,,,,149,llibre,Catalan,Sounds/cat_llibre.mp3,2020-06-28_20h45.58.015,TranslationElicitation_spa,3.2.4,Win32,60,5583klnvweklnwvpio939vn932,,1,0,80,43,1,79
,,,,,,,,,,,,,,,,,,,,,,,,,,,,,,,,,,,o,5.752000093,LIBRO,TRUE,,,,,,,149,llibre,Catalan,Sounds/cat_llibre.mp3,2020-06-28_20h45.58.015,TranslationElicitation_spa,3.2.4,Win32,60,5583klnvweklnwvpio939vn932,,1,0,80,43,1,79
,,,,,,,,,,,,,,,,,,,,,,,,,,,,,,,,,,,backspace,15.39499998,LIB,TRUE,,,,,,,149,llibre,Catalan,Sounds/cat_llibre.mp3,2020-06-28_20h45.58.015,TranslationElicitation_spa,3.2.4,Win32,60,5583klnvweklnwvpio939vn932,,1,0,80,43,1,79
,,,,,,,,,,,,,,,,,,,,,,,,,,,,,,,,,,,e,15.9920001,LIBE,TRUE,,,,,,,149,llibre,Catalan,Sounds/cat_llibre.mp3,2020-06-28_20h45.58.015,TranslationElicitation_spa,3.2.4,Win32,60,5583klnvweklnwvpio939vn932,,1,0,80,43,1,79
,,,,,,,,,,,,,,,,,,,,,,,,,,,,,,,,,,,backspace,17.34100008,LI,TRUE,,,,,,,149,llibre,Catalan,Sounds/cat_llibre.mp3,2020-06-28_20h45.58.015,TranslationElicitation_spa,3.2.4,Win32,60,5583klnvweklnwvpio939vn932,,1,0,80,43,1,79
,,,,,,,,,,,,,,,,,,,,,,,,,,,,,,,,,,,r,17.49099994,LIR,TRUE,,,,,,,149,llibre,Catalan,Sounds/cat_llibre.mp3,2020-06-28_20h45.58.015,TranslationElicitation_spa,3.2.4,Win32,60,5583klnvweklnwvpio939vn932,,1,0,80,43,1,79
,,,,,,,,,,,,,,,,,,,,,,,,,,,,,,,,,,,e,17.72399998,LIRE,TRUE,,,,,,,149,llibre,Catalan,Sounds/cat_llibre.mp3,2020-06-28_20h45.58.015,TranslationElicitation_spa,3.2.4,Win32,60,5583klnvweklnwvpio939vn932,,1,0,80,43,1,79
,,,,,,,,,,,,,,,,,,,,,,,,,,,,,,,,,,,r,17.92400002,LIRER,TRUE,,,,,,,149,llibre,Catalan,Sounds/cat_llibre.mp3,2020-06-28_20h45.58.015,TranslationElicitation_spa,3.2.4,Win32,60,5583klnvweklnwvpio939vn932,,1,0,80,43,1,79
,,,,,,,,,,,,,,,,,,,,,,,,,,,,,,,,,,,apostrophe,18.1400001,LIRER,TRUE,,,,,,,149,llibre,Catalan,Sounds/cat_llibre.mp3,2020-06-28_20h45.58.015,TranslationElicitation_spa,3.2.4,Win32,60,5583klnvweklnwvpio939vn932,,1,0,80,43,1,79
,,,,,,,,,,,,,,,,,,,,,,,,,,,,,,,,,,,i,18.44000006,LIRERÍ,TRUE,,,,,,,149,llibre,Catalan,Sounds/cat_llibre.mp3,2020-06-28_20h45.58.015,TranslationElicitation_spa,3.2.4,Win32,60,5583klnvweklnwvpio939vn932,,1,0,80,43,1,79
,,,,,,,,,,,,,,,,,,,,,,,,,,,,,,,,,,,a,18.55599999,LIRERÍA,TRUE,,,,,,,149,llibre,Catalan,Sounds/cat_llibre.mp3,2020-06-28_20h45.58.015,TranslationElicitation_spa,3.2.4,Win32,60,5583klnvweklnwvpio939vn932,,1,0,80,43,1,79
,,,,,,,,,,,,,,,,,,,,,,,,,,,,,,,,,,,backspace,19.82200003,LIRER,TRUE,,,,,,,149,llibre,Catalan,Sounds/cat_llibre.mp3,2020-06-28_20h45.58.015,TranslationElicitation_spa,3.2.4,Win32,60,5583klnvweklnwvpio939vn932,,1,0,80,43,1,79
,,,,,,,,,,,,,,,,,,,,,,,,,,,,,,,,,,,backspace,19.98900008,LIR,TRUE,,,,,,,149,llibre,Catalan,Sounds/cat_llibre.mp3,2020-06-28_20h45.58.015,TranslationElicitation_spa,3.2.4,Win32,60,5583klnvweklnwvpio939vn932,,1,0,80,43,1,79
,,,,,,,,,,,,,,,,,,,,,,,,,,,,,,,,,,,backspace,20.17199993,L,TRUE,,,,,,,149,llibre,Catalan,Sounds/cat_llibre.mp3,2020-06-28_20h45.58.015,TranslationElicitation_spa,3.2.4,Win32,60,5583klnvweklnwvpio939vn932,,1,0,80,43,1,79
,,,,,,,,,,,,,,,,,,,,,,,,,,,,,,,,,,,i,21.02100015,LI,TRUE,,,,,,,149,llibre,Catalan,Sounds/cat_llibre.mp3,2020-06-28_20h45.58.015,TranslationElicitation_spa,3.2.4,Win32,60,5583klnvweklnwvpio939vn932,,1,0,80,43,1,79
,,,,,,,,,,,,,,,,,,,,,,,,,,,,,,,,,,,b,21.27100015,LIB,TRUE,,,,,,,149,llibre,Catalan,Sounds/cat_llibre.mp3,2020-06-28_20h45.58.015,TranslationElicitation_spa,3.2.4,Win32,60,5583klnvweklnwvpio939vn932,,1,0,80,43,1,79
,,,,,,,,,,,,,,,,,,,,,,,,,,,,,,,,,,,r,21.45600009,LIBR,TRUE,,,,,,,149,llibre,Catalan,Sounds/cat_llibre.mp3,2020-06-28_20h45.58.015,TranslationElicitation_spa,3.2.4,Win32,60,5583klnvweklnwvpio939vn932,,1,0,80,43,1,79
,,,,,,,,,,,,,,,,,,,,,,,,,,,,,,,,,,,e,21.67000008,LIBRE,TRUE,,,,,,,149,llibre,Catalan,Sounds/cat_llibre.mp3,2020-06-28_20h45.58.015,TranslationElicitation_spa,3.2.4,Win32,60,5583klnvweklnwvpio939vn932,,1,0,80,43,1,79
,,,,,,,,,,,,,,,,,,,,,,,,,,,,,,,,,,,r,21.85299993,LIBRER,TRUE,,,,,,,149,llibre,Catalan,Sounds/cat_llibre.mp3,2020-06-28_20h45.58.015,TranslationElicitation_spa,3.2.4,Win32,60,5583klnvweklnwvpio939vn932,,1,0,80,43,1,79
,,,,,,,,,,,,,,,,,,,,,,,,,,,,,,,,,,,apostrophe,22.30299997,LIBRER,TRUE,,,,,,,149,llibre,Catalan,Sounds/cat_llibre.mp3,2020-06-28_20h45.58.015,TranslationElicitation_spa,3.2.4,Win32,60,5583klnvweklnwvpio939vn932,,1,0,80,43,1,79
,,,,,,,,,,,,,,,,,,,,,,,,,,,,,,,,,,,i,22.56900001,LIBRERÍ,TRUE,,,,,,,149,llibre,Catalan,Sounds/cat_llibre.mp3,2020-06-28_20h45.58.015,TranslationElicitation_spa,3.2.4,Win32,60,5583klnvweklnwvpio939vn932,,1,0,80,43,1,79
,,,,,,,,,,,,,,,,,,,,,,,,,,,,,,,,,,,a,22.73600006,LIBRERÍA,TRUE,,,,,,,149,llibre,Catalan,Sounds/cat_llibre.mp3,2020-06-28_20h45.58.015,TranslationElicitation_spa,3.2.4,Win32,60,5583klnvweklnwvpio939vn932,,1,0,80,43,1,79
,,,,,,,,,,,,,,,,,,,,,,,,,,,,,,,,,,,return,24.40799999,,TRUE,,,,,,,149,llibre,Catalan,Sounds/cat_llibre.mp3,2020-06-28_20h45.58.015,TranslationElicitation_spa,3.2.4,Win32,60,5583klnvweklnwvpio939vn932,24.40799999,1,0,80,43,1,79
,,,,,,,,,,,,,,,,,,,,,,,,,,,,,,,,,,,,,,,,,,,,,149,llibre,Catalan,Sounds/cat_llibre.mp3,2020-06-28_20h45.58.015,TranslationElicitation_spa,3.2.4,Win32,60,5583klnvweklnwvpio939vn932,,1,0,80,43,1,79
,,,,,,,,,,,,,,,,,,,,,,,,,,,,,,,,,,,c,1.35800004,C,FALSE,,,,,,,126,corona,Catalan,Sounds/cat_corona.mp3,2020-06-28_20h45.58.015,TranslationElicitation_spa,3.2.4,Win32,60,5583klnvweklnwvpio939vn932,,1,0,80,21,1,79
,,,,,,,,,,,,,,,,,,,,,,,,,,,,,,,,,,,r,1.657999992,CR,FALSE,,,,,,,126,corona,Catalan,Sounds/cat_corona.mp3,2020-06-28_20h45.58.015,TranslationElicitation_spa,3.2.4,Win32,60,5583klnvweklnwvpio939vn932,,1,0,80,21,1,79
,,,,,,,,,,,,,,,,,,,,,,,,,,,,,,,,,,,backspace,2.473999977,,TRUE,,,,,,,126,corona,Catalan,Sounds/cat_corona.mp3,2020-06-28_20h45.58.015,TranslationElicitation_spa,3.2.4,Win32,60,5583klnvweklnwvpio939vn932,,1,0,80,21,1,79
,,,,,,,,,,,,,,,,,,,,,,,,,,,,,,,,,,,o,2.84100008,O,TRUE,,,,,,,126,corona,Catalan,Sounds/cat_corona.mp3,2020-06-28_20h45.58.015,TranslationElicitation_spa,3.2.4,Win32,60,5583klnvweklnwvpio939vn932,,1,0,80,21,1,79
,,,,,,,,,,,,,,,,,,,,,,,,,,,,,,,,,,,r,2.99000001,OR,TRUE,,,,,,,126,corona,Catalan,Sounds/cat_corona.mp3,2020-06-28_20h45.58.015,TranslationElicitation_spa,3.2.4,Win32,60,5583klnvweklnwvpio939vn932,,1,0,80,21,1,79
,,,,,,,,,,,,,,,,,,,,,,,,,,,,,,,,,,,o,3.139999866,ORO,TRUE,,,,,,,126,corona,Catalan,Sounds/cat_corona.mp3,2020-06-28_20h45.58.015,TranslationElicitation_spa,3.2.4,Win32,60,5583klnvweklnwvpio939vn932,,1,0,80,21,1,79
,,,,,,,,,,,,,,,,,,,,,,,,,,,,,,,,,,,backspace,3.624000072,O,TRUE,,,,,,,126,corona,Catalan,Sounds/cat_corona.mp3,2020-06-28_20h45.58.015,TranslationElicitation_spa,3.2.4,Win32,60,5583klnvweklnwvpio939vn932,,1,0,80,21,1,79
,,,,,,,,,,,,,,,,,,,,,,,,,,,,,,,,,,,backspace,3.805999994,,TRUE,,,,,,,126,corona,Catalan,Sounds/cat_corona.mp3,2020-06-28_20h45.58.015,TranslationElicitation_spa,3.2.4,Win32,60,5583klnvweklnwvpio939vn932,,1,0,80,21,1,79
,,,,,,,,,,,,,,,,,,,,,,,,,,,,,,,,,,,backspace,3.971999884,,TRUE,,,,,,,126,corona,Catalan,Sounds/cat_corona.mp3,2020-06-28_20h45.58.015,TranslationElicitation_spa,3.2.4,Win32,60,5583klnvweklnwvpio939vn932,,1,0,80,21,1,79
,,,,,,,,,,,,,,,,,,,,,,,,,,,,,,,,,,,c,4.47300005,C,TRUE,,,,,,,126,corona,Catalan,Sounds/cat_corona.mp3,2020-06-28_20h45.58.015,TranslationElicitation_spa,3.2.4,Win32,60,5583klnvweklnwvpio939vn932,,1,0,80,21,1,79
,,,,,,,,,,,,,,,,,,,,,,,,,,,,,,,,,,,o,4.638999939,CO,TRUE,,,,,,,126,corona,Catalan,Sounds/cat_corona.mp3,2020-06-28_20h45.58.015,TranslationElicitation_spa,3.2.4,Win32,60,5583klnvweklnwvpio939vn932,,1,0,80,21,1,79
,,,,,,,,,,,,,,,,,,,,,,,,,,,,,,,,,,,r,4.822999954,COR,TRUE,,,,,,,126,corona,Catalan,Sounds/cat_corona.mp3,2020-06-28_20h45.58.015,TranslationElicitation_spa,3.2.4,Win32,60,5583klnvweklnwvpio939vn932,,1,0,80,21,1,79
,,,,,,,,,,,,,,,,,,,,,,,,,,,,,,,,,,,o,4.957999945,CORO,TRUE,,,,,,,126,corona,Catalan,Sounds/cat_corona.mp3,2020-06-28_20h45.58.015,TranslationElicitation_spa,3.2.4,Win32,60,5583klnvweklnwvpio939vn932,,1,0,80,21,1,79
,,,,,,,,,,,,,,,,,,,,,,,,,,,,,,,,,,,n,5.187999964,CORON,TRUE,,,,,,,126,corona,Catalan,Sounds/cat_corona.mp3,2020-06-28_20h45.58.015,TranslationElicitation_spa,3.2.4,Win32,60,5583klnvweklnwvpio939vn932,,1,0,80,21,1,79
,,,,,,,,,,,,,,,,,,,,,,,,,,,,,,,,,,,a,5.470999956,CORONA,TRUE,,,,,,,126,corona,Catalan,Sounds/cat_corona.mp3,2020-06-28_20h45.58.015,TranslationElicitation_spa,3.2.4,Win32,60,5583klnvweklnwvpio939vn932,,1,0,80,21,1,79
,,,,,,,,,,,,,,,,,,,,,,,,,,,,,,,,,,,return,6.237999916,,TRUE,,,,,,,126,corona,Catalan,Sounds/cat_corona.mp3,2020-06-28_20h45.58.015,TranslationElicitation_spa,3.2.4,Win32,60,5583klnvweklnwvpio939vn932,6.237999916,1,0,80,21,1,79
,,,,,,,,,,,,,,,,,,,,,,,,,,,,,,,,,,,,,,,,,,,,,126,corona,Catalan,Sounds/cat_corona.mp3,2020-06-28_20h45.58.015,TranslationElicitation_spa,3.2.4,Win32,60,5583klnvweklnwvpio939vn932,,1,0,80,21,1,79
,,,,,,,,,,,,,,,,,,,,,,,,,,,,,,,,,,,n,2.74000001,N,FALSE,,,,,,,158,nas,Catalan,Sounds/cat_nas.mp3,2020-06-28_20h45.58.015,TranslationElicitation_spa,3.2.4,Win32,60,5583klnvweklnwvpio939vn932,,1,0,80,52,1,79
,,,,,,,,,,,,,,,,,,,,,,,,,,,,,,,,,,,a,2.872999907,NA,FALSE,,,,,,,158,nas,Catalan,Sounds/cat_nas.mp3,2020-06-28_20h45.58.015,TranslationElicitation_spa,3.2.4,Win32,60,5583klnvweklnwvpio939vn932,,1,0,80,52,1,79
,,,,,,,,,,,,,,,,,,,,,,,,,,,,,,,,,,,c,3.039999962,NAC,FALSE,,,,,,,158,nas,Catalan,Sounds/cat_nas.mp3,2020-06-28_20h45.58.015,TranslationElicitation_spa,3.2.4,Win32,60,5583klnvweklnwvpio939vn932,,1,0,80,52,1,79
,,,,,,,,,,,,,,,,,,,,,,,,,,,,,,,,,,,e,3.190000057,NACE,FALSE,,,,,,,158,nas,Catalan,Sounds/cat_nas.mp3,2020-06-28_20h45.58.015,TranslationElicitation_spa,3.2.4,Win32,60,5583klnvweklnwvpio939vn932,,1,0,80,52,1,79
,,,,,,,,,,,,,,,,,,,,,,,,,,,,,,,,,,,r,3.322000027,NACER,FALSE,,,,,,,158,nas,Catalan,Sounds/cat_nas.mp3,2020-06-28_20h45.58.015,TranslationElicitation_spa,3.2.4,Win32,60,5583klnvweklnwvpio939vn932,,1,0,80,52,1,79
,,,,,,,,,,,,,,,,,,,,,,,,,,,,,,,,,,,return,3.871999979,,FALSE,,,,,,,158,nas,Catalan,Sounds/cat_nas.mp3,2020-06-28_20h45.58.015,TranslationElicitation_spa,3.2.4,Win32,60,5583klnvweklnwvpio939vn932,3.871999979,1,0,80,52,1,79
,,,,,,,,,,,,,,,,,,,,,,,,,,,,,,,,,,,,,,,,,,,,,158,nas,Catalan,Sounds/cat_nas.mp3,2020-06-28_20h45.58.015,TranslationElicitation_spa,3.2.4,Win32,60,5583klnvweklnwvpio939vn932,,1,0,80,52,1,79
,,,,,,,,,,,,,,,,,,,,,,,,,,,,,,,,,,,r,2.244999886,R,FALSE,,,,,,,175,raspall,Catalan,Sounds/cat_raspall.mp3,2020-06-28_20h45.58.015,TranslationElicitation_spa,3.2.4,Win32,60,5583klnvweklnwvpio939vn932,,1,0,80,67,1,79
,,,,,,,,,,,,,,,,,,,,,,,,,,,,,,,,,,,a,2.378000021,RA,FALSE,,,,,,,175,raspall,Catalan,Sounds/cat_raspall.mp3,2020-06-28_20h45.58.015,TranslationElicitation_spa,3.2.4,Win32,60,5583klnvweklnwvpio939vn932,,1,0,80,67,1,79
,,,,,,,,,,,,,,,,,,,,,,,,,,,,,,,,,,,s,2.911000013,RAS,FALSE,,,,,,,175,raspall,Catalan,Sounds/cat_raspall.mp3,2020-06-28_20h45.58.015,TranslationElicitation_spa,3.2.4,Win32,60,5583klnvweklnwvpio939vn932,,1,0,80,67,1,79
,,,,,,,,,,,,,,,,,,,,,,,,,,,,,,,,,,,p,3.427000046,RASP,FALSE,,,,,,,175,raspall,Catalan,Sounds/cat_raspall.mp3,2020-06-28_20h45.58.015,TranslationElicitation_spa,3.2.4,Win32,60,5583klnvweklnwvpio939vn932,,1,0,80,67,1,79
,,,,,,,,,,,,,,,,,,,,,,,,,,,,,,,,,,,a,3.559999943,RASPA,FALSE,,,,,,,175,raspall,Catalan,Sounds/cat_raspall.mp3,2020-06-28_20h45.58.015,TranslationElicitation_spa,3.2.4,Win32,60,5583klnvweklnwvpio939vn932,,1,0,80,67,1,79
,,,,,,,,,,,,,,,,,,,,,,,,,,,,,,,,,,,r,3.760999918,RASPAR,FALSE,,,,,,,175,raspall,Catalan,Sounds/cat_raspall.mp3,2020-06-28_20h45.58.015,TranslationElicitation_spa,3.2.4,Win32,60,5583klnvweklnwvpio939vn932,,1,0,80,67,1,79
,,,,,,,,,,,,,,,,,,,,,,,,,,,,,,,,,,,backspace,4.432999849,RASP,TRUE,,,,,,,175,raspall,Catalan,Sounds/cat_raspall.mp3,2020-06-28_20h45.58.015,TranslationElicitation_spa,3.2.4,Win32,60,5583klnvweklnwvpio939vn932,,1,0,80,67,1,79
,,,,,,,,,,,,,,,,,,,,,,,,,,,,,,,,,,,backspace,4.858999968,RA,TRUE,,,,,,,175,raspall,Catalan,Sounds/cat_raspall.mp3,2020-06-28_20h45.58.015,TranslationElicitation_spa,3.2.4,Win32,60,5583klnvweklnwvpio939vn932,,1,0,80,67,1,79
,,,,,,,,,,,,,,,,,,,,,,,,,,,,,,,,,,,backspace,5.092000008,,TRUE,,,,,,,175,raspall,Catalan,Sounds/cat_raspall.mp3,2020-06-28_20h45.58.015,TranslationElicitation_spa,3.2.4,Win32,60,5583klnvweklnwvpio939vn932,,1,0,80,67,1,79
,,,,,,,,,,,,,,,,,,,,,,,,,,,,,,,,,,,e,5.774999857,E,TRUE,,,,,,,175,raspall,Catalan,Sounds/cat_raspall.mp3,2020-06-28_20h45.58.015,TranslationElicitation_spa,3.2.4,Win32,60,5583klnvweklnwvpio939vn932,,1,0,80,67,1,79
,,,,,,,,,,,,,,,,,,,,,,,,,,,,,,,,,,,backspace,6.407999992,,TRUE,,,,,,,175,raspall,Catalan,Sounds/cat_raspall.mp3,2020-06-28_20h45.58.015,TranslationElicitation_spa,3.2.4,Win32,60,5583klnvweklnwvpio939vn932,,1,0,80,67,1,79
,,,,,,,,,,,,,,,,,,,,,,,,,,,,,,,,,,,r,11.61999989,R,TRUE,,,,,,,175,raspall,Catalan,Sounds/cat_raspall.mp3,2020-06-28_20h45.58.015,TranslationElicitation_spa,3.2.4,Win32,60,5583klnvweklnwvpio939vn932,,1,0,80,67,1,79
,,,,,,,,,,,,,,,,,,,,,,,,,,,,,,,,,,,e,11.71899986,RE,TRUE,,,,,,,175,raspall,Catalan,Sounds/cat_raspall.mp3,2020-06-28_20h45.58.015,TranslationElicitation_spa,3.2.4,Win32,60,5583klnvweklnwvpio939vn932,,1,0,80,67,1,79
,,,,,,,,,,,,,,,,,,,,,,,,,,,,,,,,,,,s,11.91899991,RES,TRUE,,,,,,,175,raspall,Catalan,Sounds/cat_raspall.mp3,2020-06-28_20h45.58.015,TranslationElicitation_spa,3.2.4,Win32,60,5583klnvweklnwvpio939vn932,,1,0,80,67,1,79
,,,,,,,,,,,,,,,,,,,,,,,,,,,,,,,,,,,p,12.16999984,RESP,TRUE,,,,,,,175,raspall,Catalan,Sounds/cat_raspall.mp3,2020-06-28_20h45.58.015,TranslationElicitation_spa,3.2.4,Win32,60,5583klnvweklnwvpio939vn932,,1,0,80,67,1,79
,,,,,,,,,,,,,,,,,,,,,,,,,,,,,,,,,,,a,12.28600001,RESPA,TRUE,,,,,,,175,raspall,Catalan,Sounds/cat_raspall.mp3,2020-06-28_20h45.58.015,TranslationElicitation_spa,3.2.4,Win32,60,5583klnvweklnwvpio939vn932,,1,0,80,67,1,79
,,,,,,,,,,,,,,,,,,,,,,,,,,,,,,,,,,,l,12.43599987,RESPAL,TRUE,,,,,,,175,raspall,Catalan,Sounds/cat_raspall.mp3,2020-06-28_20h45.58.015,TranslationElicitation_spa,3.2.4,Win32,60,5583klnvweklnwvpio939vn932,,1,0,80,67,1,79
,,,,,,,,,,,,,,,,,,,,,,,,,,,,,,,,,,,d,12.53600001,RESPALD,TRUE,,,,,,,175,raspall,Catalan,Sounds/cat_raspall.mp3,2020-06-28_20h45.58.015,TranslationElicitation_spa,3.2.4,Win32,60,5583klnvweklnwvpio939vn932,,1,0,80,67,1,79
,,,,,,,,,,,,,,,,,,,,,,,,,,,,,,,,,,,o,13.43499994,RESPALDO,TRUE,,,,,,,175,raspall,Catalan,Sounds/cat_raspall.mp3,2020-06-28_20h45.58.015,TranslationElicitation_spa,3.2.4,Win32,60,5583klnvweklnwvpio939vn932,,1,0,80,67,1,79
,,,,,,,,,,,,,,,,,,,,,,,,,,,,,,,,,,,return,14.17599988,,TRUE,,,,,,,175,raspall,Catalan,Sounds/cat_raspall.mp3,2020-06-28_20h45.58.015,TranslationElicitation_spa,3.2.4,Win32,60,5583klnvweklnwvpio939vn932,14.17599988,1,0,80,67,1,79
,,,,,,,,,,,,,,,,,,,,,,,,,,,,,,,,,,,,,,,,,,,,,175,raspall,Catalan,Sounds/cat_raspall.mp3,2020-06-28_20h45.58.015,TranslationElicitation_spa,3.2.4,Win32,60,5583klnvweklnwvpio939vn932,,1,0,80,67,1,79
,,,,,,,,,,,,,,,,,,,,,,,,,,,,,,,,,,,c,1.207999945,C,FALSE,,,,,,,127,cotxe,Catalan,Sounds/cat_cotxe.mp3,2020-06-28_20h45.58.015,TranslationElicitation_spa,3.2.4,Win32,60,5583klnvweklnwvpio939vn932,,1,0,80,22,1,79
,,,,,,,,,,,,,,,,,,,,,,,,,,,,,,,,,,,o,1.340999842,CO,FALSE,,,,,,,127,cotxe,Catalan,Sounds/cat_cotxe.mp3,2020-06-28_20h45.58.015,TranslationElicitation_spa,3.2.4,Win32,60,5583klnvweklnwvpio939vn932,,1,0,80,22,1,79
,,,,,,,,,,,,,,,,,,,,,,,,,,,,,,,,,,,c,1.440999985,COC,FALSE,,,,,,,127,cotxe,Catalan,Sounds/cat_cotxe.mp3,2020-06-28_20h45.58.015,TranslationElicitation_spa,3.2.4,Win32,60,5583klnvweklnwvpio939vn932,,1,0,80,22,1,79
,,,,,,,,,,,,,,,,,,,,,,,,,,,,,,,,,,,h,1.656999826,COCH,FALSE,,,,,,,127,cotxe,Catalan,Sounds/cat_cotxe.mp3,2020-06-28_20h45.58.015,TranslationElicitation_spa,3.2.4,Win32,60,5583klnvweklnwvpio939vn932,,1,0,80,22,1,79
,,,,,,,,,,,,,,,,,,,,,,,,,,,,,,,,,,,e,1.824999809,COCHE,FALSE,,,,,,,127,cotxe,Catalan,Sounds/cat_cotxe.mp3,2020-06-28_20h45.58.015,TranslationElicitation_spa,3.2.4,Win32,60,5583klnvweklnwvpio939vn932,,1,0,80,22,1,79
,,,,,,,,,,,,,,,,,,,,,,,,,,,,,,,,,,,return,2.472999811,,FALSE,,,,,,,127,cotxe,Catalan,Sounds/cat_cotxe.mp3,2020-06-28_20h45.58.015,TranslationElicitation_spa,3.2.4,Win32,60,5583klnvweklnwvpio939vn932,2.472999811,1,0,80,22,1,79
,,,,,,,,,,,,,,,,,,,,,,,,,,,,,,,,,,,,,,,,,,,,,127,cotxe,Catalan,Sounds/cat_cotxe.mp3,2020-06-28_20h45.58.015,TranslationElicitation_spa,3.2.4,Win32,60,5583klnvweklnwvpio939vn932,,1,0,80,22,1,79
,,,,,,,,,,,,,,,,,,,,,,,,,,,,,,,,,,,p,1.464999914,P,FALSE,,,,,,,172,poma,Catalan,Sounds/cat_poma.mp3,2020-06-28_20h45.58.015,TranslationElicitation_spa,3.2.4,Win32,60,5583klnvweklnwvpio939vn932,,1,0,80,64,1,79
,,,,,,,,,,,,,,,,,,,,,,,,,,,,,,,,,,,o,1.628999949,PO,FALSE,,,,,,,172,poma,Catalan,Sounds/cat_poma.mp3,2020-06-28_20h45.58.015,TranslationElicitation_spa,3.2.4,Win32,60,5583klnvweklnwvpio939vn932,,1,0,80,64,1,79
,,,,,,,,,,,,,,,,,,,,,,,,,,,,,,,,,,,m,1.845999956,POM,FALSE,,,,,,,172,poma,Catalan,Sounds/cat_poma.mp3,2020-06-28_20h45.58.015,TranslationElicitation_spa,3.2.4,Win32,60,5583klnvweklnwvpio939vn932,,1,0,80,64,1,79
,,,,,,,,,,,,,,,,,,,,,,,,,,,,,,,,,,,o,2.029999971,POMO,FALSE,,,,,,,172,poma,Catalan,Sounds/cat_poma.mp3,2020-06-28_20h45.58.015,TranslationElicitation_spa,3.2.4,Win32,60,5583klnvweklnwvpio939vn932,,1,0,80,64,1,79
,,,,,,,,,,,,,,,,,,,,,,,,,,,,,,,,,,,backspace,3.04399991,PO,TRUE,,,,,,,172,poma,Catalan,Sounds/cat_poma.mp3,2020-06-28_20h45.58.015,TranslationElicitation_spa,3.2.4,Win32,60,5583klnvweklnwvpio939vn932,,1,0,80,64,1,79
,,,,,,,,,,,,,,,,,,,,,,,,,,,,,,,,,,,backspace,3.196000099,,TRUE,,,,,,,172,poma,Catalan,Sounds/cat_poma.mp3,2020-06-28_20h45.58.015,TranslationElicitation_spa,3.2.4,Win32,60,5583klnvweklnwvpio939vn932,,1,0,80,64,1,79
,,,,,,,,,,,,,,,,,,,,,,,,,,,,,,,,,,,backspace,3.344000101,,TRUE,,,,,,,172,poma,Catalan,Sounds/cat_poma.mp3,2020-06-28_20h45.58.015,TranslationElicitation_spa,3.2.4,Win32,60,5583klnvweklnwvpio939vn932,,1,0,80,64,1,79
,,,,,,,,,,,,,,,,,,,,,,,,,,,,,,,,,,,m,3.944000006,M,TRUE,,,,,,,172,poma,Catalan,Sounds/cat_poma.mp3,2020-06-28_20h45.58.015,TranslationElicitation_spa,3.2.4,Win32,60,5583klnvweklnwvpio939vn932,,1,0,80,64,1,79
,,,,,,,,,,,,,,,,,,,,,,,,,,,,,,,,,,,a,4.076999903,MA,TRUE,,,,,,,172,poma,Catalan,Sounds/cat_poma.mp3,2020-06-28_20h45.58.015,TranslationElicitation_spa,3.2.4,Win32,60,5583klnvweklnwvpio939vn932,,1,0,80,64,1,79
,,,,,,,,,,,,,,,,,,,,,,,,,,,,,,,,,,,n,4.210000038,MAN,TRUE,,,,,,,172,poma,Catalan,Sounds/cat_poma.mp3,2020-06-28_20h45.58.015,TranslationElicitation_spa,3.2.4,Win32,60,5583klnvweklnwvpio939vn932,,1,0,80,64,1,79
,,,,,,,,,,,,,,,,,,,,,,,,,,,,,,,,,,,z,4.359999895,MANZ,TRUE,,,,,,,172,poma,Catalan,Sounds/cat_poma.mp3,2020-06-28_20h45.58.015,TranslationElicitation_spa,3.2.4,Win32,60,5583klnvweklnwvpio939vn932,,1,0,80,64,1,79
,,,,,,,,,,,,,,,,,,,,,,,,,,,,,,,,,,,a,4.592999935,MANZA,TRUE,,,,,,,172,poma,Catalan,Sounds/cat_poma.mp3,2020-06-28_20h45.58.015,TranslationElicitation_spa,3.2.4,Win32,60,5583klnvweklnwvpio939vn932,,1,0,80,64,1,79
,,,,,,,,,,,,,,,,,,,,,,,,,,,,,,,,,,,n,4.693000078,MANZAN,TRUE,,,,,,,172,poma,Catalan,Sounds/cat_poma.mp3,2020-06-28_20h45.58.015,TranslationElicitation_spa,3.2.4,Win32,60,5583klnvweklnwvpio939vn932,,1,0,80,64,1,79
,,,,,,,,,,,,,,,,,,,,,,,,,,,,,,,,,,,a,4.825999975,MANZANA,TRUE,,,,,,,172,poma,Catalan,Sounds/cat_poma.mp3,2020-06-28_20h45.58.015,TranslationElicitation_spa,3.2.4,Win32,60,5583klnvweklnwvpio939vn932,,1,0,80,64,1,79
,,,,,,,,,,,,,,,,,,,,,,,,,,,,,,,,,,,return,5.575000048,,TRUE,,,,,,,172,poma,Catalan,Sounds/cat_poma.mp3,2020-06-28_20h45.58.015,TranslationElicitation_spa,3.2.4,Win32,60,5583klnvweklnwvpio939vn932,5.575000048,1,0,80,64,1,79
,,,,,,,,,,,,,,,,,,,,,,,,,,,,,,,,,,,,,,,,,,,,,172,poma,Catalan,Sounds/cat_poma.mp3,2020-06-28_20h45.58.015,TranslationElicitation_spa,3.2.4,Win32,60,5583klnvweklnwvpio939vn932,,1,0,80,64,1,79
,,,,,,,,,,,,,,,,,,,,,,,,,,,,,,,,,,,c,1.36500001,C,FALSE,,,,,,,120,cama,Catalan,Sounds/cat_cama.mp3,2020-06-28_20h45.58.015,TranslationElicitation_spa,3.2.4,Win32,60,5583klnvweklnwvpio939vn932,,1,0,80,15,1,79
,,,,,,,,,,,,,,,,,,,,,,,,,,,,,,,,,,,a,1.515000105,CA,FALSE,,,,,,,120,cama,Catalan,Sounds/cat_cama.mp3,2020-06-28_20h45.58.015,TranslationElicitation_spa,3.2.4,Win32,60,5583klnvweklnwvpio939vn932,,1,0,80,15,1,79
,,,,,,,,,,,,,,,,,,,,,,,,,,,,,,,,,,,m,1.664999962,CAM,FALSE,,,,,,,120,cama,Catalan,Sounds/cat_cama.mp3,2020-06-28_20h45.58.015,TranslationElicitation_spa,3.2.4,Win32,60,5583klnvweklnwvpio939vn932,,1,0,80,15,1,79
,,,,,,,,,,,,,,,,,,,,,,,,,,,,,,,,,,,a,1.86500001,CAMA,FALSE,,,,,,,120,cama,Catalan,Sounds/cat_cama.mp3,2020-06-28_20h45.58.015,TranslationElicitation_spa,3.2.4,Win32,60,5583klnvweklnwvpio939vn932,,1,0,80,15,1,79
,,,,,,,,,,,,,,,,,,,,,,,,,,,,,,,,,,,return,2.131000042,,FALSE,,,,,,,120,cama,Catalan,Sounds/cat_cama.mp3,2020-06-28_20h45.58.015,TranslationElicitation_spa,3.2.4,Win32,60,5583klnvweklnwvpio939vn932,2.129999876,1,0,80,15,1,79
,,,,,,,,,,,,,,,,,,,,,,,,,,,,,,,,,,,,,,,,,,,,,120,cama,Catalan,Sounds/cat_cama.mp3,2020-06-28_20h45.58.015,TranslationElicitation_spa,3.2.4,Win32,60,5583klnvweklnwvpio939vn932,,1,0,80,15,1,79
,,,,,,,,,,,,,,,,,,,,,,,,,,,,,,,,,,,p,1.763999939,P,FALSE,,,,,,,163,papallona,Catalan,Sounds/cat_papallona.mp3,2020-06-28_20h45.58.015,TranslationElicitation_spa,3.2.4,Win32,60,5583klnvweklnwvpio939vn932,,1,0,80,56,1,79
,,,,,,,,,,,,,,,,,,,,,,,,,,,,,,,,,,,a,1.913000107,PA,FALSE,,,,,,,163,papallona,Catalan,Sounds/cat_papallona.mp3,2020-06-28_20h45.58.015,TranslationElicitation_spa,3.2.4,Win32,60,5583klnvweklnwvpio939vn932,,1,0,80,56,1,79
,,,,,,,,,,,,,,,,,,,,,,,,,,,,,,,,,,,t,2.128999949,PAT,FALSE,,,,,,,163,papallona,Catalan,Sounds/cat_papallona.mp3,2020-06-28_20h45.58.015,TranslationElicitation_spa,3.2.4,Win32,60,5583klnvweklnwvpio939vn932,,1,0,80,56,1,79
,,,,,,,,,,,,,,,,,,,,,,,,,,,,,,,,,,,a,2.263000011,PATA,FALSE,,,,,,,163,papallona,Catalan,Sounds/cat_papallona.mp3,2020-06-28_20h45.58.015,TranslationElicitation_spa,3.2.4,Win32,60,5583klnvweklnwvpio939vn932,,1,0,80,56,1,79
,,,,,,,,,,,,,,,,,,,,,,,,,,,,,,,,,,,t,2.362999916,PATAT,FALSE,,,,,,,163,papallona,Catalan,Sounds/cat_papallona.mp3,2020-06-28_20h45.58.015,TranslationElicitation_spa,3.2.4,Win32,60,5583klnvweklnwvpio939vn932,,1,0,80,56,1,79
,,,,,,,,,,,,,,,,,,,,,,,,,,,,,,,,,,,a,2.529000044,PATATA,FALSE,,,,,,,163,papallona,Catalan,Sounds/cat_papallona.mp3,2020-06-28_20h45.58.015,TranslationElicitation_spa,3.2.4,Win32,60,5583klnvweklnwvpio939vn932,,1,0,80,56,1,79
,,,,,,,,,,,,,,,,,,,,,,,,,,,,,,,,,,,return,3.295000076,,FALSE,,,,,,,163,papallona,Catalan,Sounds/cat_papallona.mp3,2020-06-28_20h45.58.015,TranslationElicitation_spa,3.2.4,Win32,60,5583klnvweklnwvpio939vn932,3.295000076,1,0,80,56,1,79
,,,,,,,,,,,,,,,,,,,,,,,,,,,,,,,,,,,,,,,,,,,,,163,papallona,Catalan,Sounds/cat_papallona.mp3,2020-06-28_20h45.58.015,TranslationElicitation_spa,3.2.4,Win32,60,5583klnvweklnwvpio939vn932,,1,0,80,56,1,79
,,,,,,,,,,,,,,,,,,,,,,,,,,,,,,,,,,,b,1.997999907,B,FALSE,,,,,,,113,boca,Catalan,Sounds/cat_boca.mp3,2020-06-28_20h45.58.015,TranslationElicitation_spa,3.2.4,Win32,60,5583klnvweklnwvpio939vn932,,1,0,80,8,1,79
,,,,,,,,,,,,,,,,,,,,,,,,,,,,,,,,,,,o,2.213000059,BO,FALSE,,,,,,,113,boca,Catalan,Sounds/cat_boca.mp3,2020-06-28_20h45.58.015,TranslationElicitation_spa,3.2.4,Win32,60,5583klnvweklnwvpio939vn932,,1,0,80,8,1,79
,,,,,,,,,,,,,,,,,,,,,,,,,,,,,,,,,,,c,2.513000011,BOC,FALSE,,,,,,,113,boca,Catalan,Sounds/cat_boca.mp3,2020-06-28_20h45.58.015,TranslationElicitation_spa,3.2.4,Win32,60,5583klnvweklnwvpio939vn932,,1,0,80,8,1,79
,,,,,,,,,,,,,,,,,,,,,,,,,,,,,,,,,,,a,2.713999987,BOCA,FALSE,,,,,,,113,boca,Catalan,Sounds/cat_boca.mp3,2020-06-28_20h45.58.015,TranslationElicitation_spa,3.2.4,Win32,60,5583klnvweklnwvpio939vn932,,1,0,80,8,1,79
,,,,,,,,,,,,,,,,,,,,,,,,,,,,,,,,,,,return,3.013000011,,FALSE,,,,,,,113,boca,Catalan,Sounds/cat_boca.mp3,2020-06-28_20h45.58.015,TranslationElicitation_spa,3.2.4,Win32,60,5583klnvweklnwvpio939vn932,3.013000011,1,0,80,8,1,79
,,,,,,,,,,,,,,,,,,,,,,,,,,,,,,,,,,,,,,,,,,,,,113,boca,Catalan,Sounds/cat_boca.mp3,2020-06-28_20h45.58.015,TranslationElicitation_spa,3.2.4,Win32,60,5583klnvweklnwvpio939vn932,,1,0,80,8,1,79
,,,,,,,,,,,,,,,,,,,,,,,,,,,,,,,,,,,e,1.413000107,E,FALSE,,,,,,,132,estrella,Catalan,Sounds/cat_estrella.mp3,2020-06-28_20h45.58.015,TranslationElicitation_spa,3.2.4,Win32,60,5583klnvweklnwvpio939vn932,,1,0,80,27,1,79
,,,,,,,,,,,,,,,,,,,,,,,,,,,,,,,,,,,s,1.630000114,ES,FALSE,,,,,,,132,estrella,Catalan,Sounds/cat_estrella.mp3,2020-06-28_20h45.58.015,TranslationElicitation_spa,3.2.4,Win32,60,5583klnvweklnwvpio939vn932,,1,0,80,27,1,79
,,,,,,,,,,,,,,,,,,,,,,,,,,,,,,,,,,,t,1.713000059,EST,FALSE,,,,,,,132,estrella,Catalan,Sounds/cat_estrella.mp3,2020-06-28_20h45.58.015,TranslationElicitation_spa,3.2.4,Win32,60,5583klnvweklnwvpio939vn932,,1,0,80,27,1,79
,,,,,,,,,,,,,,,,,,,,,,,,,,,,,,,,,,,r,1.874000072,ESTR,FALSE,,,,,,,132,estrella,Catalan,Sounds/cat_estrella.mp3,2020-06-28_20h45.58.015,TranslationElicitation_spa,3.2.4,Win32,60,5583klnvweklnwvpio939vn932,,1,0,80,27,1,79
,,,,,,,,,,,,,,,,,,,,,,,,,,,,,,,,,,,e,2.029999971,ESTRE,FALSE,,,,,,,132,estrella,Catalan,Sounds/cat_estrella.mp3,2020-06-28_20h45.58.015,TranslationElicitation_spa,3.2.4,Win32,60,5583klnvweklnwvpio939vn932,,1,0,80,27,1,79
,,,,,,,,,,,,,,,,,,,,,,,,,,,,,,,,,,,l,2.362999916,ESTREL,FALSE,,,,,,,132,estrella,Catalan,Sounds/cat_estrella.mp3,2020-06-28_20h45.58.015,TranslationElicitation_spa,3.2.4,Win32,60,5583klnvweklnwvpio939vn932,,1,0,80,27,1,79
,,,,,,,,,,,,,,,,,,,,,,,,,,,,,,,,,,,l,2.495000124,ESTRELL,FALSE,,,,,,,132,estrella,Catalan,Sounds/cat_estrella.mp3,2020-06-28_20h45.58.015,TranslationElicitation_spa,3.2.4,Win32,60,5583klnvweklnwvpio939vn932,,1,0,80,27,1,79
,,,,,,,,,,,,,,,,,,,,,,,,,,,,,,,,,,,a,2.611999989,ESTRELLA,FALSE,,,,,,,132,estrella,Catalan,Sounds/cat_estrella.mp3,2020-06-28_20h45.58.015,TranslationElicitation_spa,3.2.4,Win32,60,5583klnvweklnwvpio939vn932,,1,0,80,27,1,79
,,,,,,,,,,,,,,,,,,,,,,,,,,,,,,,,,,,return,2.812000036,,FALSE,,,,,,,132,estrella,Catalan,Sounds/cat_estrella.mp3,2020-06-28_20h45.58.015,TranslationElicitation_spa,3.2.4,Win32,60,5583klnvweklnwvpio939vn932,2.812000036,1,0,80,27,1,79
,,,,,,,,,,,,,,,,,,,,,,,,,,,,,,,,,,,,,,,,,,,,,132,estrella,Catalan,Sounds/cat_estrella.mp3,2020-06-28_20h45.58.015,TranslationElicitation_spa,3.2.4,Win32,60,5583klnvweklnwvpio939vn932,,1,0,80,27,1,79
,,,,,,,,,,,,,,,,,,,,,,,,,,,,,,,,,,,g,1.781000137,G,FALSE,,,,,,,143,globus,Catalan,Sounds/cat_globus.mp3,2020-06-28_20h45.58.015,TranslationElicitation_spa,3.2.4,Win32,60,5583klnvweklnwvpio939vn932,,1,0,80,38,1,79
,,,,,,,,,,,,,,,,,,,,,,,,,,,,,,,,,,,l,2.111999989,GL,FALSE,,,,,,,143,globus,Catalan,Sounds/cat_globus.mp3,2020-06-28_20h45.58.015,TranslationElicitation_spa,3.2.4,Win32,60,5583klnvweklnwvpio939vn932,,1,0,80,38,1,79
,,,,,,,,,,,,,,,,,,,,,,,,,,,,,,,,,,,o,2.312999964,GLO,FALSE,,,,,,,143,globus,Catalan,Sounds/cat_globus.mp3,2020-06-28_20h45.58.015,TranslationElicitation_spa,3.2.4,Win32,60,5583klnvweklnwvpio939vn932,,1,0,80,38,1,79
,,,,,,,,,,,,,,,,,,,,,,,,,,,,,,,,,,,b,2.562999964,GLOB,FALSE,,,,,,,143,globus,Catalan,Sounds/cat_globus.mp3,2020-06-28_20h45.58.015,TranslationElicitation_spa,3.2.4,Win32,60,5583klnvweklnwvpio939vn932,,1,0,80,38,1,79
,,,,,,,,,,,,,,,,,,,,,,,,,,,,,,,,,,,o,2.746000051,GLOBO,FALSE,,,,,,,143,globus,Catalan,Sounds/cat_globus.mp3,2020-06-28_20h45.58.015,TranslationElicitation_spa,3.2.4,Win32,60,5583klnvweklnwvpio939vn932,,1,0,80,38,1,79
,,,,,,,,,,,,,,,,,,,,,,,,,,,,,,,,,,,s,2.896000147,GLOBOS,FALSE,,,,,,,143,globus,Catalan,Sounds/cat_globus.mp3,2020-06-28_20h45.58.015,TranslationElicitation_spa,3.2.4,Win32,60,5583klnvweklnwvpio939vn932,,1,0,80,38,1,79
,,,,,,,,,,,,,,,,,,,,,,,,,,,,,,,,,,,return,3.661999941,,FALSE,,,,,,,143,globus,Catalan,Sounds/cat_globus.mp3,2020-06-28_20h45.58.015,TranslationElicitation_spa,3.2.4,Win32,60,5583klnvweklnwvpio939vn932,3.661999941,1,0,80,38,1,79
,,,,,,,,,,,,,,,,,,,,,,,,,,,,,,,,,,,,,,,,,,,,,143,globus,Catalan,Sounds/cat_globus.mp3,2020-06-28_20h45.58.015,TranslationElicitation_spa,3.2.4,Win32,60,5583klnvweklnwvpio939vn932,,1,0,80,38,1,79
,,,,,,,,,,,,,,,,,,,,,,,,,,,,,,,,,,,b,1.825000048,B,FALSE,,,,,,,112,bici,Catalan,Sounds/cat_bici.mp3,2020-06-28_20h45.58.015,TranslationElicitation_spa,3.2.4,Win32,60,5583klnvweklnwvpio939vn932,,1,0,80,7,1,79
,,,,,,,,,,,,,,,,,,,,,,,,,,,,,,,,,,,i,2.008000135,BI,FALSE,,,,,,,112,bici,Catalan,Sounds/cat_bici.mp3,2020-06-28_20h45.58.015,TranslationElicitation_spa,3.2.4,Win32,60,5583klnvweklnwvpio939vn932,,1,0,80,7,1,79
,,,,,,,,,,,,,,,,,,,,,,,,,,,,,,,,,,,c,2.157000065,BIC,FALSE,,,,,,,112,bici,Catalan,Sounds/cat_bici.mp3,2020-06-28_20h45.58.015,TranslationElicitation_spa,3.2.4,Win32,60,5583klnvweklnwvpio939vn932,,1,0,80,7,1,79
,,,,,,,,,,,,,,,,,,,,,,,,,,,,,,,,,,,i,2.274000168,BICI,FALSE,,,,,,,112,bici,Catalan,Sounds/cat_bici.mp3,2020-06-28_20h45.58.015,TranslationElicitation_spa,3.2.4,Win32,60,5583klnvweklnwvpio939vn932,,1,0,80,7,1,79
,,,,,,,,,,,,,,,,,,,,,,,,,,,,,,,,,,,c,2.840000153,BICIC,FALSE,,,,,,,112,bici,Catalan,Sounds/cat_bici.mp3,2020-06-28_20h45.58.015,TranslationElicitation_spa,3.2.4,Win32,60,5583klnvweklnwvpio939vn932,,1,0,80,7,1,79
,,,,,,,,,,,,,,,,,,,,,,,,,,,,,,,,,,,semicolon,3.05700016,BICICÑ,FALSE,,,,,,,112,bici,Catalan,Sounds/cat_bici.mp3,2020-06-28_20h45.58.015,TranslationElicitation_spa,3.2.4,Win32,60,5583klnvweklnwvpio939vn932,,1,0,80,7,1,79
,,,,,,,,,,,,,,,,,,,,,,,,,,,,,,,,,,,backspace,3.93900013,BICI,TRUE,,,,,,,112,bici,Catalan,Sounds/cat_bici.mp3,2020-06-28_20h45.58.015,TranslationElicitation_spa,3.2.4,Win32,60,5583klnvweklnwvpio939vn932,,1,0,80,7,1,79
,,,,,,,,,,,,,,,,,,,,,,,,,,,,,,,,,,,l,4.338999987,BICIL,TRUE,,,,,,,112,bici,Catalan,Sounds/cat_bici.mp3,2020-06-28_20h45.58.015,TranslationElicitation_spa,3.2.4,Win32,60,5583klnvweklnwvpio939vn932,,1,0,80,7,1,79
,,,,,,,,,,,,,,,,,,,,,,,,,,,,,,,,,,,e,4.489000082,BICILE,TRUE,,,,,,,112,bici,Catalan,Sounds/cat_bici.mp3,2020-06-28_20h45.58.015,TranslationElicitation_spa,3.2.4,Win32,60,5583klnvweklnwvpio939vn932,,1,0,80,7,1,79
,,,,,,,,,,,,,,,,,,,,,,,,,,,,,,,,,,,t,4.705000162,BICILET,TRUE,,,,,,,112,bici,Catalan,Sounds/cat_bici.mp3,2020-06-28_20h45.58.015,TranslationElicitation_spa,3.2.4,Win32,60,5583klnvweklnwvpio939vn932,,1,0,80,7,1,79
,,,,,,,,,,,,,,,,,,,,,,,,,,,,,,,,,,,backspace,6.703000069,BICIL,TRUE,,,,,,,112,bici,Catalan,Sounds/cat_bici.mp3,2020-06-28_20h45.58.015,TranslationElicitation_spa,3.2.4,Win32,60,5583klnvweklnwvpio939vn932,,1,0,80,7,1,79
,,,,,,,,,,,,,,,,,,,,,,,,,,,,,,,,,,,backspace,6.887000084,BIC,TRUE,,,,,,,112,bici,Catalan,Sounds/cat_bici.mp3,2020-06-28_20h45.58.015,TranslationElicitation_spa,3.2.4,Win32,60,5583klnvweklnwvpio939vn932,,1,0,80,7,1,79
,,,,,,,,,,,,,,,,,,,,,,,,,,,,,,,,,,,backspace,7.036000013,B,TRUE,,,,,,,112,bici,Catalan,Sounds/cat_bici.mp3,2020-06-28_20h45.58.015,TranslationElicitation_spa,3.2.4,Win32,60,5583klnvweklnwvpio939vn932,,1,0,80,7,1,79
,,,,,,,,,,,,,,,,,,,,,,,,,,,,,,,,,,,i,8.818000078,BI,TRUE,,,,,,,112,bici,Catalan,Sounds/cat_bici.mp3,2020-06-28_20h45.58.015,TranslationElicitation_spa,3.2.4,Win32,60,5583klnvweklnwvpio939vn932,,1,0,80,7,1,79
,,,,,,,,,,,,,,,,,,,,,,,,,,,,,,,,,,,c,9.10800004,BIC,TRUE,,,,,,,112,bici,Catalan,Sounds/cat_bici.mp3,2020-06-28_20h45.58.015,TranslationElicitation_spa,3.2.4,Win32,60,5583klnvweklnwvpio939vn932,,1,0,80,7,1,79
,,,,,,,,,,,,,,,,,,,,,,,,,,,,,,,,,,,i,9.25,BICI,TRUE,,,,,,,112,bici,Catalan,Sounds/cat_bici.mp3,2020-06-28_20h45.58.015,TranslationElicitation_spa,3.2.4,Win32,60,5583klnvweklnwvpio939vn932,,1,0,80,7,1,79
,,,,,,,,,,,,,,,,,,,,,,,,,,,,,,,,,,,c,17.66000009,BICIC,TRUE,,,,,,,112,bici,Catalan,Sounds/cat_bici.mp3,2020-06-28_20h45.58.015,TranslationElicitation_spa,3.2.4,Win32,60,5583klnvweklnwvpio939vn932,,1,0,80,7,1,79
,,,,,,,,,,,,,,,,,,,,,,,,,,,,,,,,,,,l,17.89300013,BICICL,TRUE,,,,,,,112,bici,Catalan,Sounds/cat_bici.mp3,2020-06-28_20h45.58.015,TranslationElicitation_spa,3.2.4,Win32,60,5583klnvweklnwvpio939vn932,,1,0,80,7,1,79
,,,,,,,,,,,,,,,,,,,,,,,,,,,,,,,,,,,e,18.14300013,BICICLE,TRUE,,,,,,,112,bici,Catalan,Sounds/cat_bici.mp3,2020-06-28_20h45.58.015,TranslationElicitation_spa,3.2.4,Win32,60,5583klnvweklnwvpio939vn932,,1,0,80,7,1,79
,,,,,,,,,,,,,,,,,,,,,,,,,,,,,,,,,,,t,18.27600002,BICICLET,TRUE,,,,,,,112,bici,Catalan,Sounds/cat_bici.mp3,2020-06-28_20h45.58.015,TranslationElicitation_spa,3.2.4,Win32,60,5583klnvweklnwvpio939vn932,,1,0,80,7,1,79
,,,,,,,,,,,,,,,,,,,,,,,,,,,,,,,,,,,a,18.59200001,BICICLETA,TRUE,,,,,,,112,bici,Catalan,Sounds/cat_bici.mp3,2020-06-28_20h45.58.015,TranslationElicitation_spa,3.2.4,Win32,60,5583klnvweklnwvpio939vn932,,1,0,80,7,1,79
,,,,,,,,,,,,,,,,,,,,,,,,,,,,,,,,,,,return,22.73800015,,TRUE,,,,,,,112,bici,Catalan,Sounds/cat_bici.mp3,2020-06-28_20h45.58.015,TranslationElicitation_spa,3.2.4,Win32,60,5583klnvweklnwvpio939vn932,22.73800015,1,0,80,7,1,79
,,,,,,,,,,,,,,,,,,,,,,,,,,,,,,,,,,,,,,,,,,,,,112,bici,Catalan,Sounds/cat_bici.mp3,2020-06-28_20h45.58.015,TranslationElicitation_spa,3.2.4,Win32,60,5583klnvweklnwvpio939vn932,,1,0,80,7,1,79
,,,,,,,,,,,,,,,,,,,,,,,,,,,,,,,,,,,s,1.556999922,S,FALSE,,,,,,,124,cirera,Catalan,Sounds/cat_cirera.mp3,2020-06-28_20h45.58.015,TranslationElicitation_spa,3.2.4,Win32,60,5583klnvweklnwvpio939vn932,,1,0,80,19,1,79
,,,,,,,,,,,,,,,,,,,,,,,,,,,,,,,,,,,i,1.789999962,SI,FALSE,,,,,,,124,cirera,Catalan,Sounds/cat_cirera.mp3,2020-06-28_20h45.58.015,TranslationElicitation_spa,3.2.4,Win32,60,5583klnvweklnwvpio939vn932,,1,0,80,19,1,79
,,,,,,,,,,,,,,,,,,,,,,,,,,,,,,,,,,,r,1.95600009,SIR,FALSE,,,,,,,124,cirera,Catalan,Sounds/cat_cirera.mp3,2020-06-28_20h45.58.015,TranslationElicitation_spa,3.2.4,Win32,60,5583klnvweklnwvpio939vn932,,1,0,80,19,1,79
,,,,,,,,,,,,,,,,,,,,,,,,,,,,,,,,,,,e,2.188999891,SIRE,FALSE,,,,,,,124,cirera,Catalan,Sounds/cat_cirera.mp3,2020-06-28_20h45.58.015,TranslationElicitation_spa,3.2.4,Win32,60,5583klnvweklnwvpio939vn932,,1,0,80,19,1,79
,,,,,,,,,,,,,,,,,,,,,,,,,,,,,,,,,,,n,2.306999922,SIREN,FALSE,,,,,,,124,cirera,Catalan,Sounds/cat_cirera.mp3,2020-06-28_20h45.58.015,TranslationElicitation_spa,3.2.4,Win32,60,5583klnvweklnwvpio939vn932,,1,0,80,19,1,79
,,,,,,,,,,,,,,,,,,,,,,,,,,,,,,,,,,,a,2.505000114,SIRENA,FALSE,,,,,,,124,cirera,Catalan,Sounds/cat_cirera.mp3,2020-06-28_20h45.58.015,TranslationElicitation_spa,3.2.4,Win32,60,5583klnvweklnwvpio939vn932,,1,0,80,19,1,79
,,,,,,,,,,,,,,,,,,,,,,,,,,,,,,,,,,,return,3.222000122,,FALSE,,,,,,,124,cirera,Catalan,Sounds/cat_cirera.mp3,2020-06-28_20h45.58.015,TranslationElicitation_spa,3.2.4,Win32,60,5583klnvweklnwvpio939vn932,3.222000122,1,0,80,19,1,79
,,,,,,,,,,,,,,,,,,,,,,,,,,,,,,,,,,,,,,,,,,,,,124,cirera,Catalan,Sounds/cat_cirera.mp3,2020-06-28_20h45.58.015,TranslationElicitation_spa,3.2.4,Win32,60,5583klnvweklnwvpio939vn932,,1,0,80,19,1,79
,,,,,,,,,,,,,,,,,,,,,,,,,,,,,,,,,,,e,1.779999971,E,FALSE,,,,,,,131,esponja,Catalan,Sounds/cat_esponja.mp3,2020-06-28_20h45.58.015,TranslationElicitation_spa,3.2.4,Win32,60,5583klnvweklnwvpio939vn932,,1,0,80,26,1,79
,,,,,,,,,,,,,,,,,,,,,,,,,,,,,,,,,,,s,1.996000051,ES,FALSE,,,,,,,131,esponja,Catalan,Sounds/cat_esponja.mp3,2020-06-28_20h45.58.015,TranslationElicitation_spa,3.2.4,Win32,60,5583klnvweklnwvpio939vn932,,1,0,80,26,1,79
,,,,,,,,,,,,,,,,,,,,,,,,,,,,,,,,,,,p,2.178999901,ESP,FALSE,,,,,,,131,esponja,Catalan,Sounds/cat_esponja.mp3,2020-06-28_20h45.58.015,TranslationElicitation_spa,3.2.4,Win32,60,5583klnvweklnwvpio939vn932,,1,0,80,26,1,79
,,,,,,,,,,,,,,,,,,,,,,,,,,,,,,,,,,,a,2.328999996,ESPA,FALSE,,,,,,,131,esponja,Catalan,Sounds/cat_esponja.mp3,2020-06-28_20h45.58.015,TranslationElicitation_spa,3.2.4,Win32,60,5583klnvweklnwvpio939vn932,,1,0,80,26,1,79
,,,,,,,,,,,,,,,,,,,,,,,,,,,,,,,,,,,semicolon,2.547999859,ESPAÑ,FALSE,,,,,,,131,esponja,Catalan,Sounds/cat_esponja.mp3,2020-06-28_20h45.58.015,TranslationElicitation_spa,3.2.4,Win32,60,5583klnvweklnwvpio939vn932,,1,0,80,26,1,79
,,,,,,,,,,,,,,,,,,,,,,,,,,,,,,,,,,,a,2.761999846,ESPAÑA,FALSE,,,,,,,131,esponja,Catalan,Sounds/cat_esponja.mp3,2020-06-28_20h45.58.015,TranslationElicitation_spa,3.2.4,Win32,60,5583klnvweklnwvpio939vn932,,1,0,80,26,1,79
,,,,,,,,,,,,,,,,,,,,,,,,,,,,,,,,,,,return,3.361999989,,FALSE,,,,,,,131,esponja,Catalan,Sounds/cat_esponja.mp3,2020-06-28_20h45.58.015,TranslationElicitation_spa,3.2.4,Win32,60,5583klnvweklnwvpio939vn932,3.361999989,1,0,80,26,1,79
,,,,,,,,,,,,,,,,,,,,,,,,,,,,,,,,,,,,,,,,,,,,,131,esponja,Catalan,Sounds/cat_esponja.mp3,2020-06-28_20h45.58.015,TranslationElicitation_spa,3.2.4,Win32,60,5583klnvweklnwvpio939vn932,,1,0,80,26,1,79
,,,,,,,,,,,,,,,,,,,,,,,,,,,,,,,,,,,s,1.964999914,S,FALSE,,,,,,,177,sol,Catalan,Sounds/cat_sol.mp3,2020-06-28_20h45.58.015,TranslationElicitation_spa,3.2.4,Win32,60,5583klnvweklnwvpio939vn932,,1,0,80,69,1,79
,,,,,,,,,,,,,,,,,,,,,,,,,,,,,,,,,,,a,2.197000027,SA,FALSE,,,,,,,177,sol,Catalan,Sounds/cat_sol.mp3,2020-06-28_20h45.58.015,TranslationElicitation_spa,3.2.4,Win32,60,5583klnvweklnwvpio939vn932,,1,0,80,69,1,79
,,,,,,,,,,,,,,,,,,,,,,,,,,,,,,,,,,,l,2.345999956,SAL,FALSE,,,,,,,177,sol,Catalan,Sounds/cat_sol.mp3,2020-06-28_20h45.58.015,TranslationElicitation_spa,3.2.4,Win32,60,5583klnvweklnwvpio939vn932,,1,0,80,69,1,79
,,,,,,,,,,,,,,,,,,,,,,,,,,,,,,,,,,,return,2.894999981,,FALSE,,,,,,,177,sol,Catalan,Sounds/cat_sol.mp3,2020-06-28_20h45.58.015,TranslationElicitation_spa,3.2.4,Win32,60,5583klnvweklnwvpio939vn932,2.894999981,1,0,80,69,1,79
,,,,,,,,,,,,,,,,,,,,,,,,,,,,,,,,,,,,,,,,,,,,,177,sol,Catalan,Sounds/cat_sol.mp3,2020-06-28_20h45.58.015,TranslationElicitation_spa,3.2.4,Win32,60,5583klnvweklnwvpio939vn932,,1,0,80,69,1,79
,,,,,,,,,,,,,,,,,,,,,,,,,,,,,,,,,,,t,21.07599998,T,FALSE,,,,,,,180,tisores,Catalan,Sounds/cat_tisores.mp3,2020-06-28_20h45.58.015,TranslationElicitation_spa,3.2.4,Win32,60,5583klnvweklnwvpio939vn932,,1,0,80,71,1,79
,,,,,,,,,,,,,,,,,,,,,,,,,,,,,,,,,,,i,21.25899982,TI,FALSE,,,,,,,180,tisores,Catalan,Sounds/cat_tisores.mp3,2020-06-28_20h45.58.015,TranslationElicitation_spa,3.2.4,Win32,60,5583klnvweklnwvpio939vn932,,1,0,80,71,1,79
,,,,,,,,,,,,,,,,,,,,,,,,,,,,,,,,,,,r,21.39299989,TIR,FALSE,,,,,,,180,tisores,Catalan,Sounds/cat_tisores.mp3,2020-06-28_20h45.58.015,TranslationElicitation_spa,3.2.4,Win32,60,5583klnvweklnwvpio939vn932,,1,0,80,71,1,79
,,,,,,,,,,,,,,,,,,,,,,,,,,,,,,,,,,,o,21.54299998,TIRO,FALSE,,,,,,,180,tisores,Catalan,Sounds/cat_tisores.mp3,2020-06-28_20h45.58.015,TranslationElicitation_spa,3.2.4,Win32,60,5583klnvweklnwvpio939vn932,,1,0,80,71,1,79
,,,,,,,,,,,,,,,,,,,,,,,,,,,,,,,,,,,n,22.04299998,TIRON,FALSE,,,,,,,180,tisores,Catalan,Sounds/cat_tisores.mp3,2020-06-28_20h45.58.015,TranslationElicitation_spa,3.2.4,Win32,60,5583klnvweklnwvpio939vn932,,1,0,80,71,1,79
,,,,,,,,,,,,,,,,,,,,,,,,,,,,,,,,,,,e,22.24099994,TIRONE,FALSE,,,,,,,180,tisores,Catalan,Sounds/cat_tisores.mp3,2020-06-28_20h45.58.015,TranslationElicitation_spa,3.2.4,Win32,60,5583klnvweklnwvpio939vn932,,1,0,80,71,1,79
,,,,,,,,,,,,,,,,,,,,,,,,,,,,,,,,,,,s,22.44199991,TIRONES,FALSE,,,,,,,180,tisores,Catalan,Sounds/cat_tisores.mp3,2020-06-28_20h45.58.015,TranslationElicitation_spa,3.2.4,Win32,60,5583klnvweklnwvpio939vn932,,1,0,80,71,1,79
,,,,,,,,,,,,,,,,,,,,,,,,,,,,,,,,,,,return,22.72399998,,FALSE,,,,,,,180,tisores,Catalan,Sounds/cat_tisores.mp3,2020-06-28_20h45.58.015,TranslationElicitation_spa,3.2.4,Win32,60,5583klnvweklnwvpio939vn932,22.72399998,1,0,80,71,1,79
,,,,,,,,,,,,,,,,,,,,,,,,,,,,,,,,,,,,,,,,,,,,,180,tisores,Catalan,Sounds/cat_tisores.mp3,2020-06-28_20h45.58.015,TranslationElicitation_spa,3.2.4,Win32,60,5583klnvweklnwvpio939vn932,,1,0,80,71,1,79
,,,,,,,,,,,,,,,,,,,,,,,,,,,,,,,,,,,m,1.240999937,M,FALSE,,,,,,,155,moneda,Catalan,Sounds/cat_moneda.mp3,2020-06-28_20h45.58.015,TranslationElicitation_spa,3.2.4,Win32,60,5583klnvweklnwvpio939vn932,,1,0,80,49,1,79
,,,,,,,,,,,,,,,,,,,,,,,,,,,,,,,,,,,o,1.440999985,MO,FALSE,,,,,,,155,moneda,Catalan,Sounds/cat_moneda.mp3,2020-06-28_20h45.58.015,TranslationElicitation_spa,3.2.4,Win32,60,5583klnvweklnwvpio939vn932,,1,0,80,49,1,79
,,,,,,,,,,,,,,,,,,,,,,,,,,,,,,,,,,,n,1.823999882,MON,FALSE,,,,,,,155,moneda,Catalan,Sounds/cat_moneda.mp3,2020-06-28_20h45.58.015,TranslationElicitation_spa,3.2.4,Win32,60,5583klnvweklnwvpio939vn932,,1,0,80,49,1,79
,,,,,,,,,,,,,,,,,,,,,,,,,,,,,,,,,,,e,1.973999977,MONE,FALSE,,,,,,,155,moneda,Catalan,Sounds/cat_moneda.mp3,2020-06-28_20h45.58.015,TranslationElicitation_spa,3.2.4,Win32,60,5583klnvweklnwvpio939vn932,,1,0,80,49,1,79
,,,,,,,,,,,,,,,,,,,,,,,,,,,,,,,,,,,d,2.172999859,MONED,FALSE,,,,,,,155,moneda,Catalan,Sounds/cat_moneda.mp3,2020-06-28_20h45.58.015,TranslationElicitation_spa,3.2.4,Win32,60,5583klnvweklnwvpio939vn932,,1,0,80,49,1,79
,,,,,,,,,,,,,,,,,,,,,,,,,,,,,,,,,,,a,2.457000017,MONEDA,FALSE,,,,,,,155,moneda,Catalan,Sounds/cat_moneda.mp3,2020-06-28_20h45.58.015,TranslationElicitation_spa,3.2.4,Win32,60,5583klnvweklnwvpio939vn932,,1,0,80,49,1,79
,,,,,,,,,,,,,,,,,,,,,,,,,,,,,,,,,,,return,3.105999947,,FALSE,,,,,,,155,moneda,Catalan,Sounds/cat_moneda.mp3,2020-06-28_20h45.58.015,TranslationElicitation_spa,3.2.4,Win32,60,5583klnvweklnwvpio939vn932,3.105999947,1,0,80,49,1,79
,,,,,,,,,,,,,,,,,,,,,,,,,,,,,,,,,,,,,,,,,,,,,155,moneda,Catalan,Sounds/cat_moneda.mp3,2020-06-28_20h45.58.015,TranslationElicitation_spa,3.2.4,Win32,60,5583klnvweklnwvpio939vn932,,1,0,80,49,1,79
,,,,,,,,,,,,,,,,,,,,,,,,,,,,,,,,,,,v,1.641000032,V,FALSE,,,,,,,111,bibero,Catalan,Sounds/cat_bibero.mp3,2020-06-28_20h45.58.015,TranslationElicitation_spa,3.2.4,Win32,60,5583klnvweklnwvpio939vn932,,1,0,80,6,1,79
,,,,,,,,,,,,,,,,,,,,,,,,,,,,,,,,,,,i,1.940000057,VI,FALSE,,,,,,,111,bibero,Catalan,Sounds/cat_bibero.mp3,2020-06-28_20h45.58.015,TranslationElicitation_spa,3.2.4,Win32,60,5583klnvweklnwvpio939vn932,,1,0,80,6,1,79
,,,,,,,,,,,,,,,,,,,,,,,,,,,,,,,,,,,v,2.289999962,VIV,FALSE,,,,,,,111,bibero,Catalan,Sounds/cat_bibero.mp3,2020-06-28_20h45.58.015,TranslationElicitation_spa,3.2.4,Win32,60,5583klnvweklnwvpio939vn932,,1,0,80,6,1,79
,,,,,,,,,,,,,,,,,,,,,,,,,,,,,,,,,,,a,2.440000057,VIVA,FALSE,,,,,,,111,bibero,Catalan,Sounds/cat_bibero.mp3,2020-06-28_20h45.58.015,TranslationElicitation_spa,3.2.4,Win32,60,5583klnvweklnwvpio939vn932,,1,0,80,6,1,79
,,,,,,,,,,,,,,,,,,,,,,,,,,,,,,,,,,,z,2.690000057,VIVAZ,FALSE,,,,,,,111,bibero,Catalan,Sounds/cat_bibero.mp3,2020-06-28_20h45.58.015,TranslationElicitation_spa,3.2.4,Win32,60,5583klnvweklnwvpio939vn932,,1,0,80,6,1,79
,,,,,,,,,,,,,,,,,,,,,,,,,,,,,,,,,,,backspace,4.421000004,VIV,TRUE,,,,,,,111,bibero,Catalan,Sounds/cat_bibero.mp3,2020-06-28_20h45.58.015,TranslationElicitation_spa,3.2.4,Win32,60,5583klnvweklnwvpio939vn932,,1,0,80,6,1,79
,,,,,,,,,,,,,,,,,,,,,,,,,,,,,,,,,,,a,14.296,VIVA,TRUE,,,,,,,111,bibero,Catalan,Sounds/cat_bibero.mp3,2020-06-28_20h45.58.015,TranslationElicitation_spa,3.2.4,Win32,60,5583klnvweklnwvpio939vn932,,1,0,80,6,1,79
,,,,,,,,,,,,,,,,,,,,,,,,,,,,,,,,,,,r,14.49800014,VIVAR,TRUE,,,,,,,111,bibero,Catalan,Sounds/cat_bibero.mp3,2020-06-28_20h45.58.015,TranslationElicitation_spa,3.2.4,Win32,60,5583klnvweklnwvpio939vn932,,1,0,80,6,1,79
,,,,,,,,,,,,,,,,,,,,,,,,,,,,,,,,,,,a,14.64499998,VIVARA,TRUE,,,,,,,111,bibero,Catalan,Sounds/cat_bibero.mp3,2020-06-28_20h45.58.015,TranslationElicitation_spa,3.2.4,Win32,60,5583klnvweklnwvpio939vn932,,1,0,80,6,1,79
,,,,,,,,,,,,,,,,,,,,,,,,,,,,,,,,,,,c,14.76200008,VIVARAC,TRUE,,,,,,,111,bibero,Catalan,Sounds/cat_bibero.mp3,2020-06-28_20h45.58.015,TranslationElicitation_spa,3.2.4,Win32,60,5583klnvweklnwvpio939vn932,,1,0,80,6,1,79
,,,,,,,,,,,,,,,,,,,,,,,,,,,,,,,,,,,h,15.01200008,VIVARACH,TRUE,,,,,,,111,bibero,Catalan,Sounds/cat_bibero.mp3,2020-06-28_20h45.58.015,TranslationElicitation_spa,3.2.4,Win32,60,5583klnvweklnwvpio939vn932,,1,0,80,6,1,79
,,,,,,,,,,,,,,,,,,,,,,,,,,,,,,,,,,,backspace,16.56100011,VIVARA,TRUE,,,,,,,111,bibero,Catalan,Sounds/cat_bibero.mp3,2020-06-28_20h45.58.015,TranslationElicitation_spa,3.2.4,Win32,60,5583klnvweklnwvpio939vn932,,1,0,80,6,1,79
,,,,,,,,,,,,,,,,,,,,,,,,,,,,,,,,,,,backspace,17.07700014,VIVA,TRUE,,,,,,,111,bibero,Catalan,Sounds/cat_bibero.mp3,2020-06-28_20h45.58.015,TranslationElicitation_spa,3.2.4,Win32,60,5583klnvweklnwvpio939vn932,,1,0,80,6,1,79
,,,,,,,,,,,,,,,,,,,,,,,,,,,,,,,,,,,backspace,17.09500003,VI,TRUE,,,,,,,111,bibero,Catalan,Sounds/cat_bibero.mp3,2020-06-28_20h45.58.015,TranslationElicitation_spa,3.2.4,Win32,60,5583klnvweklnwvpio939vn932,,1,0,80,6,1,79
,,,,,,,,,,,,,,,,,,,,,,,,,,,,,,,,,,,backspace,17.12899995,,TRUE,,,,,,,111,bibero,Catalan,Sounds/cat_bibero.mp3,2020-06-28_20h45.58.015,TranslationElicitation_spa,3.2.4,Win32,60,5583klnvweklnwvpio939vn932,,1,0,80,6,1,79
,,,,,,,,,,,,,,,,,,,,,,,,,,,,,,,,,,,backspace,17.15499997,,TRUE,,,,,,,111,bibero,Catalan,Sounds/cat_bibero.mp3,2020-06-28_20h45.58.015,TranslationElicitation_spa,3.2.4,Win32,60,5583klnvweklnwvpio939vn932,,1,0,80,6,1,79
,,,,,,,,,,,,,,,,,,,,,,,,,,,,,,,,,,,backspace,17.19300008,,TRUE,,,,,,,111,bibero,Catalan,Sounds/cat_bibero.mp3,2020-06-28_20h45.58.015,TranslationElicitation_spa,3.2.4,Win32,60,5583klnvweklnwvpio939vn932,,1,0,80,6,1,79
,,,,,,,,,,,,,,,,,,,,,,,,,,,,,,,,,,,backspace,17.22600007,,TRUE,,,,,,,111,bibero,Catalan,Sounds/cat_bibero.mp3,2020-06-28_20h45.58.015,TranslationElicitation_spa,3.2.4,Win32,60,5583klnvweklnwvpio939vn932,,1,0,80,6,1,79
,,,,,,,,,,,,,,,,,,,,,,,,,,,,,,,,,,,backspace,17.25999999,,TRUE,,,,,,,111,bibero,Catalan,Sounds/cat_bibero.mp3,2020-06-28_20h45.58.015,TranslationElicitation_spa,3.2.4,Win32,60,5583klnvweklnwvpio939vn932,,1,0,80,6,1,79
,,,,,,,,,,,,,,,,,,,,,,,,,,,,,,,,,,,backspace,17.27600002,,TRUE,,,,,,,111,bibero,Catalan,Sounds/cat_bibero.mp3,2020-06-28_20h45.58.015,TranslationElicitation_spa,3.2.4,Win32,60,5583klnvweklnwvpio939vn932,,1,0,80,6,1,79
,,,,,,,,,,,,,,,,,,,,,,,,,,,,,,,,,,,v,23.5710001,V,TRUE,,,,,,,111,bibero,Catalan,Sounds/cat_bibero.mp3,2020-06-28_20h45.58.015,TranslationElicitation_spa,3.2.4,Win32,60,5583klnvweklnwvpio939vn932,,1,0,80,6,1,79
,,,,,,,,,,,,,,,,,,,,,,,,,,,,,,,,,,,i,23.77100015,VI,TRUE,,,,,,,111,bibero,Catalan,Sounds/cat_bibero.mp3,2020-06-28_20h45.58.015,TranslationElicitation_spa,3.2.4,Win32,60,5583klnvweklnwvpio939vn932,,1,0,80,6,1,79
,,,,,,,,,,,,,,,,,,,,,,,,,,,,,,,,,,,v,24.02100015,VIV,TRUE,,,,,,,111,bibero,Catalan,Sounds/cat_bibero.mp3,2020-06-28_20h45.58.015,TranslationElicitation_spa,3.2.4,Win32,60,5583klnvweklnwvpio939vn932,,1,0,80,6,1,79
,,,,,,,,,,,,,,,,,,,,,,,,,,,,,,,,,,,a,24.42000008,VIVA,TRUE,,,,,,,111,bibero,Catalan,Sounds/cat_bibero.mp3,2020-06-28_20h45.58.015,TranslationElicitation_spa,3.2.4,Win32,60,5583klnvweklnwvpio939vn932,,1,0,80,6,1,79
,,,,,,,,,,,,,,,,,,,,,,,,,,,,,,,,,,,backspace,27.18400002,VI,TRUE,,,,,,,111,bibero,Catalan,Sounds/cat_bibero.mp3,2020-06-28_20h45.58.015,TranslationElicitation_spa,3.2.4,Win32,60,5583klnvweklnwvpio939vn932,,1,0,80,6,1,79
,,,,,,,,,,,,,,,,,,,,,,,,,,,,,,,,,,,i,28.06700015,VII,TRUE,,,,,,,111,bibero,Catalan,Sounds/cat_bibero.mp3,2020-06-28_20h45.58.015,TranslationElicitation_spa,3.2.4,Win32,60,5583klnvweklnwvpio939vn932,,1,0,80,6,1,79
,,,,,,,,,,,,,,,,,,,,,,,,,,,,,,,,,,,r,28.31599998,VIIR,TRUE,,,,,,,111,bibero,Catalan,Sounds/cat_bibero.mp3,2020-06-28_20h45.58.015,TranslationElicitation_spa,3.2.4,Win32,60,5583klnvweklnwvpio939vn932,,1,0,80,6,1,79
,,,,,,,,,,,,,,,,,,,,,,,,,,,,,,,,,,,backspace,29.24300003,VI,TRUE,,,,,,,111,bibero,Catalan,Sounds/cat_bibero.mp3,2020-06-28_20h45.58.015,TranslationElicitation_spa,3.2.4,Win32,60,5583klnvweklnwvpio939vn932,,1,0,80,6,1,79
,,,,,,,,,,,,,,,,,,,,,,,,,,,,,,,,,,,backspace,29.41499996,,TRUE,,,,,,,111,bibero,Catalan,Sounds/cat_bibero.mp3,2020-06-28_20h45.58.015,TranslationElicitation_spa,3.2.4,Win32,60,5583klnvweklnwvpio939vn932,,1,0,80,6,1,79
,,,,,,,,,,,,,,,,,,,,,,,,,,,,,,,,,,,i,30.2650001,I,TRUE,,,,,,,111,bibero,Catalan,Sounds/cat_bibero.mp3,2020-06-28_20h45.58.015,TranslationElicitation_spa,3.2.4,Win32,60,5583klnvweklnwvpio939vn932,,1,0,80,6,1,79
,,,,,,,,,,,,,,,,,,,,,,,,,,,,,,,,,,,v,30.53100014,IV,TRUE,,,,,,,111,bibero,Catalan,Sounds/cat_bibero.mp3,2020-06-28_20h45.58.015,TranslationElicitation_spa,3.2.4,Win32,60,5583klnvweklnwvpio939vn932,,1,0,80,6,1,79
,,,,,,,,,,,,,,,,,,,,,,,,,,,,,,,,,,,i,30.83100009,IVI,TRUE,,,,,,,111,bibero,Catalan,Sounds/cat_bibero.mp3,2020-06-28_20h45.58.015,TranslationElicitation_spa,3.2.4,Win32,60,5583klnvweklnwvpio939vn932,,1,0,80,6,1,79
,,,,,,,,,,,,,,,,,,,,,,,,,,,,,,,,,,,r,31.11400008,IVIR,TRUE,,,,,,,111,bibero,Catalan,Sounds/cat_bibero.mp3,2020-06-28_20h45.58.015,TranslationElicitation_spa,3.2.4,Win32,60,5583klnvweklnwvpio939vn932,,1,0,80,6,1,79
,,,,,,,,,,,,,,,,,,,,,,,,,,,,,,,,,,,backspace,31.48000002,IV,TRUE,,,,,,,111,bibero,Catalan,Sounds/cat_bibero.mp3,2020-06-28_20h45.58.015,TranslationElicitation_spa,3.2.4,Win32,60,5583klnvweklnwvpio939vn932,,1,0,80,6,1,79
,,,,,,,,,,,,,,,,,,,,,,,,,,,,,,,,,,,backspace,31.64600015,,TRUE,,,,,,,111,bibero,Catalan,Sounds/cat_bibero.mp3,2020-06-28_20h45.58.015,TranslationElicitation_spa,3.2.4,Win32,60,5583klnvweklnwvpio939vn932,,1,0,80,6,1,79
,,,,,,,,,,,,,,,,,,,,,,,,,,,,,,,,,,,backspace,31.81299996,,TRUE,,,,,,,111,bibero,Catalan,Sounds/cat_bibero.mp3,2020-06-28_20h45.58.015,TranslationElicitation_spa,3.2.4,Win32,60,5583klnvweklnwvpio939vn932,,1,0,80,6,1,79
,,,,,,,,,,,,,,,,,,,,,,,,,,,,,,,,,,,v,32.296,V,TRUE,,,,,,,111,bibero,Catalan,Sounds/cat_bibero.mp3,2020-06-28_20h45.58.015,TranslationElicitation_spa,3.2.4,Win32,60,5583klnvweklnwvpio939vn932,,1,0,80,6,1,79
,,,,,,,,,,,,,,,,,,,,,,,,,,,,,,,,,,,i,32.51200008,VI,TRUE,,,,,,,111,bibero,Catalan,Sounds/cat_bibero.mp3,2020-06-28_20h45.58.015,TranslationElicitation_spa,3.2.4,Win32,60,5583klnvweklnwvpio939vn932,,1,0,80,6,1,79
,,,,,,,,,,,,,,,,,,,,,,,,,,,,,,,,,,,v,32.72900009,VIV,TRUE,,,,,,,111,bibero,Catalan,Sounds/cat_bibero.mp3,2020-06-28_20h45.58.015,TranslationElicitation_spa,3.2.4,Win32,60,5583klnvweklnwvpio939vn932,,1,0,80,6,1,79
,,,,,,,,,,,,,,,,,,,,,,,,,,,,,,,,,,,i,32.91300011,VIVI,TRUE,,,,,,,111,bibero,Catalan,Sounds/cat_bibero.mp3,2020-06-28_20h45.58.015,TranslationElicitation_spa,3.2.4,Win32,60,5583klnvweklnwvpio939vn932,,1,0,80,6,1,79
,,,,,,,,,,,,,,,,,,,,,,,,,,,,,,,,,,,r,33.09500003,VIVIR,TRUE,,,,,,,111,bibero,Catalan,Sounds/cat_bibero.mp3,2020-06-28_20h45.58.015,TranslationElicitation_spa,3.2.4,Win32,60,5583klnvweklnwvpio939vn932,,1,0,80,6,1,79
,,,,,,,,,,,,,,,,,,,,,,,,,,,,,,,,,,,return,43.94700003,,TRUE,,,,,,,111,bibero,Catalan,Sounds/cat_bibero.mp3,2020-06-28_20h45.58.015,TranslationElicitation_spa,3.2.4,Win32,60,5583klnvweklnwvpio939vn932,43.94700003,1,0,80,6,1,79
,,,,,,,,,,,,,,,,,,,,,,,,,,,,,,,,,,,,,,,,,,,,,111,bibero,Catalan,Sounds/cat_bibero.mp3,2020-06-28_20h45.58.015,TranslationElicitation_spa,3.2.4,Win32,60,5583klnvweklnwvpio939vn932,,1,0,80,6,1,79
,,,,,,,,,,,,,,,,,,,,,,,,,,,,,,,,,,,a,2.174000025,A,FALSE,,,,,,,152,ma,Catalan,Sounds/cat_ma.mp3,2020-06-28_20h45.58.015,TranslationElicitation_spa,3.2.4,Win32,60,5583klnvweklnwvpio939vn932,,1,0,80,46,1,79
,,,,,,,,,,,,,,,,,,,,,,,,,,,,,,,,,,,return,2.57400012,,FALSE,,,,,,,152,ma,Catalan,Sounds/cat_ma.mp3,2020-06-28_20h45.58.015,TranslationElicitation_spa,3.2.4,Win32,60,5583klnvweklnwvpio939vn932,2.57400012,1,0,80,46,1,79
,,,,,,,,,,,,,,,,,,,,,,,,,,,,,,,,,,,,,,,,,,,,,152,ma,Catalan,Sounds/cat_ma.mp3,2020-06-28_20h45.58.015,TranslationElicitation_spa,3.2.4,Win32,60,5583klnvweklnwvpio939vn932,,1,0,80,46,1,79
,,,,,,,,,,,,,,,,,,,,,,,,,,,,,,,,,,,v,2.312000036,V,FALSE,,,,,,,150,lloro,Catalan,Sounds/cat_lloro.mp3,2020-06-28_20h45.58.015,TranslationElicitation_spa,3.2.4,Win32,60,5583klnvweklnwvpio939vn932,,1,0,80,44,1,79
,,,,,,,,,,,,,,,,,,,,,,,,,,,,,,,,,,,a,2.562000036,VA,FALSE,,,,,,,150,lloro,Catalan,Sounds/cat_lloro.mp3,2020-06-28_20h45.58.015,TranslationElicitation_spa,3.2.4,Win32,60,5583klnvweklnwvpio939vn932,,1,0,80,44,1,79
,,,,,,,,,,,,,,,,,,,,,,,,,,,,,,,,,,,i,2.578999996,VAI,FALSE,,,,,,,150,lloro,Catalan,Sounds/cat_lloro.mp3,2020-06-28_20h45.58.015,TranslationElicitation_spa,3.2.4,Win32,60,5583klnvweklnwvpio939vn932,,1,0,80,44,1,79
,,,,,,,,,,,,,,,,,,,,,,,,,,,,,,,,,,,backspace,3.460999966,V,TRUE,,,,,,,150,lloro,Catalan,Sounds/cat_lloro.mp3,2020-06-28_20h45.58.015,TranslationElicitation_spa,3.2.4,Win32,60,5583klnvweklnwvpio939vn932,,1,0,80,44,1,79
,,,,,,,,,,,,,,,,,,,,,,,,,,,,,,,,,,,backspace,3.644000053,,TRUE,,,,,,,150,lloro,Catalan,Sounds/cat_lloro.mp3,2020-06-28_20h45.58.015,TranslationElicitation_spa,3.2.4,Win32,60,5583klnvweklnwvpio939vn932,,1,0,80,44,1,79
,,,,,,,,,,,,,,,,,,,,,,,,,,,,,,,,,,,v,4.427999973,V,TRUE,,,,,,,150,lloro,Catalan,Sounds/cat_lloro.mp3,2020-06-28_20h45.58.015,TranslationElicitation_spa,3.2.4,Win32,60,5583klnvweklnwvpio939vn932,,1,0,80,44,1,79
,,,,,,,,,,,,,,,,,,,,,,,,,,,,,,,,,,,i,4.660000086,VI,TRUE,,,,,,,150,lloro,Catalan,Sounds/cat_lloro.mp3,2020-06-28_20h45.58.015,TranslationElicitation_spa,3.2.4,Win32,60,5583klnvweklnwvpio939vn932,,1,0,80,44,1,79
,,,,,,,,,,,,,,,,,,,,,,,,,,,,,,,,,,,a,4.809999943,VIA,TRUE,,,,,,,150,lloro,Catalan,Sounds/cat_lloro.mp3,2020-06-28_20h45.58.015,TranslationElicitation_spa,3.2.4,Win32,60,5583klnvweklnwvpio939vn932,,1,0,80,44,1,79
,,,,,,,,,,,,,,,,,,,,,,,,,,,,,,,,,,,j,4.993000031,VIAJ,TRUE,,,,,,,150,lloro,Catalan,Sounds/cat_lloro.mp3,2020-06-28_20h45.58.015,TranslationElicitation_spa,3.2.4,Win32,60,5583klnvweklnwvpio939vn932,,1,0,80,44,1,79
,,,,,,,,,,,,,,,,,,,,,,,,,,,,,,,,,,,e,5.142999887,VIAJE,TRUE,,,,,,,150,lloro,Catalan,Sounds/cat_lloro.mp3,2020-06-28_20h45.58.015,TranslationElicitation_spa,3.2.4,Win32,60,5583klnvweklnwvpio939vn932,,1,0,80,44,1,79
,,,,,,,,,,,,,,,,,,,,,,,,,,,,,,,,,,,return,5.809000015,,TRUE,,,,,,,150,lloro,Catalan,Sounds/cat_lloro.mp3,2020-06-28_20h45.58.015,TranslationElicitation_spa,3.2.4,Win32,60,5583klnvweklnwvpio939vn932,5.809000015,1,0,80,44,1,79
,,,,,,,,,,,,,,,,,,,,,,,,,,,,,,,,,,,,,,,,,,,,,150,lloro,Catalan,Sounds/cat_lloro.mp3,2020-06-28_20h45.58.015,TranslationElicitation_spa,3.2.4,Win32,60,5583klnvweklnwvpio939vn932,,1,0,80,44,1,79
,,,,,,,,,,,,,,,,,,,,,,,,,,,,,,,,,,,a,3.389999866,A,FALSE,,,,,,,133,estruc,Catalan,Sounds/cat_estruc.mp3,2020-06-28_20h45.58.015,TranslationElicitation_spa,3.2.4,Win32,60,5583klnvweklnwvpio939vn932,,1,0,80,28,1,79
,,,,,,,,,,,,,,,,,,,,,,,,,,,,,,,,,,,v,3.506999969,AV,FALSE,,,,,,,133,estruc,Catalan,Sounds/cat_estruc.mp3,2020-06-28_20h45.58.015,TranslationElicitation_spa,3.2.4,Win32,60,5583klnvweklnwvpio939vn932,,1,0,80,28,1,79
,,,,,,,,,,,,,,,,,,,,,,,,,,,,,,,,,,,e,3.674000025,AVE,FALSE,,,,,,,133,estruc,Catalan,Sounds/cat_estruc.mp3,2020-06-28_20h45.58.015,TranslationElicitation_spa,3.2.4,Win32,60,5583klnvweklnwvpio939vn932,,1,0,80,28,1,79
,,,,,,,,,,,,,,,,,,,,,,,,,,,,,,,,,,,s,3.889999866,AVES,FALSE,,,,,,,133,estruc,Catalan,Sounds/cat_estruc.mp3,2020-06-28_20h45.58.015,TranslationElicitation_spa,3.2.4,Win32,60,5583klnvweklnwvpio939vn932,,1,0,80,28,1,79
,,,,,,,,,,,,,,,,,,,,,,,,,,,,,,,,,,,t,3.99000001,AVEST,FALSE,,,,,,,133,estruc,Catalan,Sounds/cat_estruc.mp3,2020-06-28_20h45.58.015,TranslationElicitation_spa,3.2.4,Win32,60,5583klnvweklnwvpio939vn932,,1,0,80,28,1,79
,,,,,,,,,,,,,,,,,,,,,,,,,,,,,,,,,,,r,4.172999859,AVESTR,FALSE,,,,,,,133,estruc,Catalan,Sounds/cat_estruc.mp3,2020-06-28_20h45.58.015,TranslationElicitation_spa,3.2.4,Win32,60,5583klnvweklnwvpio939vn932,,1,0,80,28,1,79
,,,,,,,,,,,,,,,,,,,,,,,,,,,,,,,,,,,u,4.438999891,AVESTRU,FALSE,,,,,,,133,estruc,Catalan,Sounds/cat_estruc.mp3,2020-06-28_20h45.58.015,TranslationElicitation_spa,3.2.4,Win32,60,5583klnvweklnwvpio939vn932,,1,0,80,28,1,79
,,,,,,,,,,,,,,,,,,,,,,,,,,,,,,,,,,,z,4.625,AVESTRUZ,FALSE,,,,,,,133,estruc,Catalan,Sounds/cat_estruc.mp3,2020-06-28_20h45.58.015,TranslationElicitation_spa,3.2.4,Win32,60,5583klnvweklnwvpio939vn932,,1,0,80,28,1,79
,,,,,,,,,,,,,,,,,,,,,,,,,,,,,,,,,,,return,5.654000044,,FALSE,,,,,,,133,estruc,Catalan,Sounds/cat_estruc.mp3,2020-06-28_20h45.58.015,TranslationElicitation_spa,3.2.4,Win32,60,5583klnvweklnwvpio939vn932,5.654000044,1,0,80,28,1,79
,,,,,,,,,,,,,,,,,,,,,,,,,,,,,,,,,,,,,,,,,,,,,133,estruc,Catalan,Sounds/cat_estruc.mp3,2020-06-28_20h45.58.015,TranslationElicitation_spa,3.2.4,Win32,60,5583klnvweklnwvpio939vn932,,1,0,80,28,1,79
,,,,,,,,,,,,,,,,,,,,,,,,,,,,,,,,,,,p,1.857999802,P,FALSE,,,,,,,173,porc,Catalan,Sounds/cat_porc.mp3,2020-06-28_20h45.58.015,TranslationElicitation_spa,3.2.4,Win32,60,5583klnvweklnwvpio939vn932,,1,0,80,65,1,79
,,,,,,,,,,,,,,,,,,,,,,,,,,,,,,,,,,,a,2.041999817,PA,FALSE,,,,,,,173,porc,Catalan,Sounds/cat_porc.mp3,2020-06-28_20h45.58.015,TranslationElicitation_spa,3.2.4,Win32,60,5583klnvweklnwvpio939vn932,,1,0,80,65,1,79
,,,,,,,,,,,,,,,,,,,,,,,,,,,,,,,,,,,r,2.250999928,PAR,FALSE,,,,,,,173,porc,Catalan,Sounds/cat_porc.mp3,2020-06-28_20h45.58.015,TranslationElicitation_spa,3.2.4,Win32,60,5583klnvweklnwvpio939vn932,,1,0,80,65,1,79
,,,,,,,,,,,,,,,,,,,,,,,,,,,,,,,,,,,q,2.901000023,PARQ,FALSE,,,,,,,173,porc,Catalan,Sounds/cat_porc.mp3,2020-06-28_20h45.58.015,TranslationElicitation_spa,3.2.4,Win32,60,5583klnvweklnwvpio939vn932,,1,0,80,65,1,79
,,,,,,,,,,,,,,,,,,,,,,,,,,,,,,,,,,,u,3.039999962,PARQU,FALSE,,,,,,,173,porc,Catalan,Sounds/cat_porc.mp3,2020-06-28_20h45.58.015,TranslationElicitation_spa,3.2.4,Win32,60,5583klnvweklnwvpio939vn932,,1,0,80,65,1,79
,,,,,,,,,,,,,,,,,,,,,,,,,,,,,,,,,,,e,3.322999954,PARQUE,FALSE,,,,,,,173,porc,Catalan,Sounds/cat_porc.mp3,2020-06-28_20h45.58.015,TranslationElicitation_spa,3.2.4,Win32,60,5583klnvweklnwvpio939vn932,,1,0,80,65,1,79
,,,,,,,,,,,,,,,,,,,,,,,,,,,,,,,,,,,return,3.905999899,,FALSE,,,,,,,173,porc,Catalan,Sounds/cat_porc.mp3,2020-06-28_20h45.58.015,TranslationElicitation_spa,3.2.4,Win32,60,5583klnvweklnwvpio939vn932,3.905999899,1,0,80,65,1,79
,,,,,,,,,,,,,,,,,,,,,,,,,,,,,,,,,,,,,,,,,,,,,173,porc,Catalan,Sounds/cat_porc.mp3,2020-06-28_20h45.58.015,TranslationElicitation_spa,3.2.4,Win32,60,5583klnvweklnwvpio939vn932,,1,0,80,65,1,79
,,,,,,,,,,,,,,,,,,,,,,,,,,,,,,,,,,,p,1.592000008,P,FALSE,,,,,,,160,orella,Catalan,Sounds/cat_orella.mp3,2020-06-28_20h45.58.015,TranslationElicitation_spa,3.2.4,Win32,60,5583klnvweklnwvpio939vn932,,1,0,80,53,1,79
,,,,,,,,,,,,,,,,,,,,,,,,,,,,,,,,,,,u,2.024999857,PU,FALSE,,,,,,,160,orella,Catalan,Sounds/cat_orella.mp3,2020-06-28_20h45.58.015,TranslationElicitation_spa,3.2.4,Win32,60,5583klnvweklnwvpio939vn932,,1,0,80,53,1,79
,,,,,,,,,,,,,,,,,,,,,,,,,,,,,,,,,,,r,2.208999872,PUR,FALSE,,,,,,,160,orella,Catalan,Sounds/cat_orella.mp3,2020-06-28_20h45.58.015,TranslationElicitation_spa,3.2.4,Win32,60,5583klnvweklnwvpio939vn932,,1,0,80,53,1,79
,,,,,,,,,,,,,,,,,,,,,,,,,,,,,,,,,,,apostrophe,2.741999865,PUR,FALSE,,,,,,,160,orella,Catalan,Sounds/cat_orella.mp3,2020-06-28_20h45.58.015,TranslationElicitation_spa,3.2.4,Win32,60,5583klnvweklnwvpio939vn932,,1,0,80,53,1,79
,,,,,,,,,,,,,,,,,,,,,,,,,,,,,,,,,,,e,2.924000025,PURÉ,FALSE,,,,,,,160,orella,Catalan,Sounds/cat_orella.mp3,2020-06-28_20h45.58.015,TranslationElicitation_spa,3.2.4,Win32,60,5583klnvweklnwvpio939vn932,,1,0,80,53,1,79
,,,,,,,,,,,,,,,,,,,,,,,,,,,,,,,,,,,backspace,7.652999878,PU,TRUE,,,,,,,160,orella,Catalan,Sounds/cat_orella.mp3,2020-06-28_20h45.58.015,TranslationElicitation_spa,3.2.4,Win32,60,5583klnvweklnwvpio939vn932,,1,0,80,53,1,79
,,,,,,,,,,,,,,,,,,,,,,,,,,,,,,,,,,,backspace,8.152999878,,TRUE,,,,,,,160,orella,Catalan,Sounds/cat_orella.mp3,2020-06-28_20h45.58.015,TranslationElicitation_spa,3.2.4,Win32,60,5583klnvweklnwvpio939vn932,,1,0,80,53,1,79
,,,,,,,,,,,,,,,,,,,,,,,,,,,,,,,,,,,backspace,8.18599987,,TRUE,,,,,,,160,orella,Catalan,Sounds/cat_orella.mp3,2020-06-28_20h45.58.015,TranslationElicitation_spa,3.2.4,Win32,60,5583klnvweklnwvpio939vn932,,1,0,80,53,1,79
,,,,,,,,,,,,,,,,,,,,,,,,,,,,,,,,,,,backspace,8.402999878,,TRUE,,,,,,,160,orella,Catalan,Sounds/cat_orella.mp3,2020-06-28_20h45.58.015,TranslationElicitation_spa,3.2.4,Win32,60,5583klnvweklnwvpio939vn932,,1,0,80,53,1,79
,,,,,,,,,,,,,,,,,,,,,,,,,,,,,,,,,,,o,9.319000006,O,TRUE,,,,,,,160,orella,Catalan,Sounds/cat_orella.mp3,2020-06-28_20h45.58.015,TranslationElicitation_spa,3.2.4,Win32,60,5583klnvweklnwvpio939vn932,,1,0,80,53,1,79
,,,,,,,,,,,,,,,,,,,,,,,,,,,,,,,,,,,r,9.617999792,OR,TRUE,,,,,,,160,orella,Catalan,Sounds/cat_orella.mp3,2020-06-28_20h45.58.015,TranslationElicitation_spa,3.2.4,Win32,60,5583klnvweklnwvpio939vn932,,1,0,80,53,1,79
,,,,,,,,,,,,,,,,,,,,,,,,,,,,,,,,,,,e,9.81799984,ORE,TRUE,,,,,,,160,orella,Catalan,Sounds/cat_orella.mp3,2020-06-28_20h45.58.015,TranslationElicitation_spa,3.2.4,Win32,60,5583klnvweklnwvpio939vn932,,1,0,80,53,1,79
,,,,,,,,,,,,,,,,,,,,,,,,,,,,,,,,,,,j,10.00099993,OREJ,TRUE,,,,,,,160,orella,Catalan,Sounds/cat_orella.mp3,2020-06-28_20h45.58.015,TranslationElicitation_spa,3.2.4,Win32,60,5583klnvweklnwvpio939vn932,,1,0,80,53,1,79
