consentKey.keys,consentKey.rt,languageL1Key.keys,languageL1Key.rt,languageL2,languageL2OralKey.keys,languageL2OralKey.rt,languageL2WrittenKey.keys,languageL2WrittenKey.rt,languageL3OralKey.keys,languageL3OralKey.rt,languageL3WrittenKey.keys,languageL3WrittenKey.rt,languageCatalanOralKey.keys,languageCatalanOralKey.rt,languageCatalanWrittenKey.keys,languageCatalanWrittenKey.rt,languageCatalanTimeKey.keys,languageCatalanTimeKey.rt,age,demoSexKey.keys,demoSexKey.rt,demoEducationKey.keys,demoEducationKey.rt,city,demoVisionKey.keys,demoVisionKey.rt,demoLanguageKey.keys,demoLanguageKey.rt,setupLocationKey.keys,setupLocationKey.rt,setupNoiseKey.keys,setupNoiseKey.rt,instructionsKeys.keys,instructionsKeys.rt,keyPressed,keyPressTime,inputText,error,trials_practice.thisRepN,trials_practice.thisTrialN,trials_practice.thisN,trials_practice.thisIndex,trials_practice.ran,trials_practice.order,trial_id,word,test_language,soundfile,date,expName,psychopyVersion,OS,frameRate,participant,trialOffset,trials.thisRepN,trials.thisTrialN,trials.thisN,trials.thisIndex,trials.ran,trials.order
space,1.684000015,e,6.143999815,,,,,,,,,,2,9.578000069,1,4.997999907,1,7.386999846,20,m,3.162999868,3,9.691999674,GRANADA,n,10.7579999,n,2.825999975,1,6.431999683,1,5.972999811,space,61.87299991,u,2.23300004,U,FALSE,1,0,5,2,1,4,159,onada,Catalan,Sounds/cat_onada.mp3,2020-06-19_14h04.01.378,TranslationElicitation_spa,3.2.4,Win32,60,55ipnc9w0h32nce29jf2079jf0jf,,,,,,,
,,,,,,,,,,,,,,,,,,,,,,,,,,,,,,,,,,,n,2.433000088,UN,FALSE,1,0,5,2,1,4,159,onada,Catalan,Sounds/cat_onada.mp3,2020-06-19_14h04.01.378,TranslationElicitation_spa,3.2.4,Win32,60,55ipnc9w0h32nce29jf2079jf0jf,,,,,,,
,,,,,,,,,,,,,,,,,,,,,,,,,,,,,,,,,,,a,2.550000191,UNA,FALSE,1,0,5,2,1,4,159,onada,Catalan,Sounds/cat_onada.mp3,2020-06-19_14h04.01.378,TranslationElicitation_spa,3.2.4,Win32,60,55ipnc9w0h32nce29jf2079jf0jf,,,,,,,
,,,,,,,,,,,,,,,,,,,,,,,,,,,,,,,,,,,b,2.717000008,UNAB,FALSE,1,0,5,2,1,4,159,onada,Catalan,Sounds/cat_onada.mp3,2020-06-19_14h04.01.378,TranslationElicitation_spa,3.2.4,Win32,60,55ipnc9w0h32nce29jf2079jf0jf,,,,,,,
,,,,,,,,,,,,,,,,,,,,,,,,,,,,,,,,,,,a,2.883000135,UNABA,FALSE,1,0,5,2,1,4,159,onada,Catalan,Sounds/cat_onada.mp3,2020-06-19_14h04.01.378,TranslationElicitation_spa,3.2.4,Win32,60,55ipnc9w0h32nce29jf2079jf0jf,,,,,,,
,,,,,,,,,,,,,,,,,,,,,,,,,,,,,,,,,,,return,3.778000116,,FALSE,1,0,5,2,1,4,159,onada,Catalan,Sounds/cat_onada.mp3,2020-06-19_14h04.01.378,TranslationElicitation_spa,3.2.4,Win32,60,55ipnc9w0h32nce29jf2079jf0jf,3.778000116,,,,,,
,,,,,,,,,,,,,,,,,,,,,,,,,,,,,,,,,,,,,,,1,0,5,2,1,4,159,onada,Catalan,Sounds/cat_onada.mp3,2020-06-19_14h04.01.378,TranslationElicitation_spa,3.2.4,Win32,60,55ipnc9w0h32nce29jf2079jf0jf,,,,,,,
,,,,,,,,,,,,,,,,,,,,,,,,,,,,,,,,,,,i,1.414999962,I,FALSE,1,0,5,4,1,4,179,tigre,Catalan,Sounds/cat_tigre.mp3,2020-06-19_14h04.01.378,TranslationElicitation_spa,3.2.4,Win32,60,55ipnc9w0h32nce29jf2079jf0jf,,,,,,,
,,,,,,,,,,,,,,,,,,,,,,,,,,,,,,,,,,,backspace,2.582000017,,TRUE,1,0,5,4,1,4,179,tigre,Catalan,Sounds/cat_tigre.mp3,2020-06-19_14h04.01.378,TranslationElicitation_spa,3.2.4,Win32,60,55ipnc9w0h32nce29jf2079jf0jf,,,,,,,
,,,,,,,,,,,,,,,,,,,,,,,,,,,,,,,,,,,t,2.998999834,T,TRUE,1,0,5,4,1,4,179,tigre,Catalan,Sounds/cat_tigre.mp3,2020-06-19_14h04.01.378,TranslationElicitation_spa,3.2.4,Win32,60,55ipnc9w0h32nce29jf2079jf0jf,,,,,,,
,,,,,,,,,,,,,,,,,,,,,,,,,,,,,,,,,,,i,3.181999922,TI,TRUE,1,0,5,4,1,4,179,tigre,Catalan,Sounds/cat_tigre.mp3,2020-06-19_14h04.01.378,TranslationElicitation_spa,3.2.4,Win32,60,55ipnc9w0h32nce29jf2079jf0jf,,,,,,,
,,,,,,,,,,,,,,,,,,,,,,,,,,,,,,,,,,,g,3.501999855,TIG,TRUE,1,0,5,4,1,4,179,tigre,Catalan,Sounds/cat_tigre.mp3,2020-06-19_14h04.01.378,TranslationElicitation_spa,3.2.4,Win32,60,55ipnc9w0h32nce29jf2079jf0jf,,,,,,,
,,,,,,,,,,,,,,,,,,,,,,,,,,,,,,,,,,,r,3.620999813,TIGR,TRUE,1,0,5,4,1,4,179,tigre,Catalan,Sounds/cat_tigre.mp3,2020-06-19_14h04.01.378,TranslationElicitation_spa,3.2.4,Win32,60,55ipnc9w0h32nce29jf2079jf0jf,,,,,,,
,,,,,,,,,,,,,,,,,,,,,,,,,,,,,,,,,,,a,3.751999855,TIGRA,TRUE,1,0,5,4,1,4,179,tigre,Catalan,Sounds/cat_tigre.mp3,2020-06-19_14h04.01.378,TranslationElicitation_spa,3.2.4,Win32,60,55ipnc9w0h32nce29jf2079jf0jf,,,,,,,
,,,,,,,,,,,,,,,,,,,,,,,,,,,,,,,,,,,return,4.370999813,,TRUE,1,0,5,4,1,4,179,tigre,Catalan,Sounds/cat_tigre.mp3,2020-06-19_14h04.01.378,TranslationElicitation_spa,3.2.4,Win32,60,55ipnc9w0h32nce29jf2079jf0jf,4.370999813,,,,,,
,,,,,,,,,,,,,,,,,,,,,,,,,,,,,,,,,,,,,,,1,0,5,4,1,4,179,tigre,Catalan,Sounds/cat_tigre.mp3,2020-06-19_14h04.01.378,TranslationElicitation_spa,3.2.4,Win32,60,55ipnc9w0h32nce29jf2079jf0jf,,,,,,,
,,,,,,,,,,,,,,,,,,,,,,,,,,,,,,,,,,,r,1.649000168,R,FALSE,1,0,5,1,1,4,147,jaqueta,Catalan,Sounds/cat_jaqueta.mp3,2020-06-19_14h04.01.378,TranslationElicitation_spa,3.2.4,Win32,60,55ipnc9w0h32nce29jf2079jf0jf,,,,,,,
,,,,,,,,,,,,,,,,,,,,,,,,,,,,,,,,,,,a,1.799000025,RA,FALSE,1,0,5,1,1,4,147,jaqueta,Catalan,Sounds/cat_jaqueta.mp3,2020-06-19_14h04.01.378,TranslationElicitation_spa,3.2.4,Win32,60,55ipnc9w0h32nce29jf2079jf0jf,,,,,,,
,,,,,,,,,,,,,,,,,,,,,,,,,,,,,,,,,,,q,1.999000072,RAQ,FALSE,1,0,5,1,1,4,147,jaqueta,Catalan,Sounds/cat_jaqueta.mp3,2020-06-19_14h04.01.378,TranslationElicitation_spa,3.2.4,Win32,60,55ipnc9w0h32nce29jf2079jf0jf,,,,,,,
,,,,,,,,,,,,,,,,,,,,,,,,,,,,,,,,,,,u,2.25,RAQU,FALSE,1,0,5,1,1,4,147,jaqueta,Catalan,Sounds/cat_jaqueta.mp3,2020-06-19_14h04.01.378,TranslationElicitation_spa,3.2.4,Win32,60,55ipnc9w0h32nce29jf2079jf0jf,,,,,,,
,,,,,,,,,,,,,,,,,,,,,,,,,,,,,,,,,,,e,2.399000168,RAQUE,FALSE,1,0,5,1,1,4,147,jaqueta,Catalan,Sounds/cat_jaqueta.mp3,2020-06-19_14h04.01.378,TranslationElicitation_spa,3.2.4,Win32,60,55ipnc9w0h32nce29jf2079jf0jf,,,,,,,
,,,,,,,,,,,,,,,,,,,,,,,,,,,,,,,,,,,t,2.516000032,RAQUET,FALSE,1,0,5,1,1,4,147,jaqueta,Catalan,Sounds/cat_jaqueta.mp3,2020-06-19_14h04.01.378,TranslationElicitation_spa,3.2.4,Win32,60,55ipnc9w0h32nce29jf2079jf0jf,,,,,,,
,,,,,,,,,,,,,,,,,,,,,,,,,,,,,,,,,,,a,2.69900012,RAQUETA,FALSE,1,0,5,1,1,4,147,jaqueta,Catalan,Sounds/cat_jaqueta.mp3,2020-06-19_14h04.01.378,TranslationElicitation_spa,3.2.4,Win32,60,55ipnc9w0h32nce29jf2079jf0jf,,,,,,,
,,,,,,,,,,,,,,,,,,,,,,,,,,,,,,,,,,,return,3.200000048,,FALSE,1,0,5,1,1,4,147,jaqueta,Catalan,Sounds/cat_jaqueta.mp3,2020-06-19_14h04.01.378,TranslationElicitation_spa,3.2.4,Win32,60,55ipnc9w0h32nce29jf2079jf0jf,3.200000048,,,,,,
,,,,,,,,,,,,,,,,,,,,,,,,,,,,,,,,,,,,,,,1,0,5,1,1,4,147,jaqueta,Catalan,Sounds/cat_jaqueta.mp3,2020-06-19_14h04.01.378,TranslationElicitation_spa,3.2.4,Win32,60,55ipnc9w0h32nce29jf2079jf0jf,,,,,,,
,,,,,,,,,,,,,,,,,,,,,,,,,,,,,,,,,,,n,1.56400013,N,FALSE,1,0,5,3,1,4,167,pingui,Catalan,Sounds/cat_pingui.mp3,2020-06-19_14h04.01.378,TranslationElicitation_spa,3.2.4,Win32,60,55ipnc9w0h32nce29jf2079jf0jf,,,,,,,
,,,,,,,,,,,,,,,,,,,,,,,,,,,,,,,,,,,g,1.81400013,NG,FALSE,1,0,5,3,1,4,167,pingui,Catalan,Sounds/cat_pingui.mp3,2020-06-19_14h04.01.378,TranslationElicitation_spa,3.2.4,Win32,60,55ipnc9w0h32nce29jf2079jf0jf,,,,,,,
,,,,,,,,,,,,,,,,,,,,,,,,,,,,,,,,,,,u,1.914000034,NGU,FALSE,1,0,5,3,1,4,167,pingui,Catalan,Sounds/cat_pingui.mp3,2020-06-19_14h04.01.378,TranslationElicitation_spa,3.2.4,Win32,60,55ipnc9w0h32nce29jf2079jf0jf,,,,,,,
,,,,,,,,,,,,,,,,,,,,,,,,,,,,,,,,,,,i,1.997000217,NGUI,FALSE,1,0,5,3,1,4,167,pingui,Catalan,Sounds/cat_pingui.mp3,2020-06-19_14h04.01.378,TranslationElicitation_spa,3.2.4,Win32,60,55ipnc9w0h32nce29jf2079jf0jf,,,,,,,
,,,,,,,,,,,,,,,,,,,,,,,,,,,,,,,,,,,backspace,2.622000217,NG,TRUE,1,0,5,3,1,4,167,pingui,Catalan,Sounds/cat_pingui.mp3,2020-06-19_14h04.01.378,TranslationElicitation_spa,3.2.4,Win32,60,55ipnc9w0h32nce29jf2079jf0jf,,,,,,,
,,,,,,,,,,,,,,,,,,,,,,,,,,,,,,,,,,,backspace,2.764000177,,TRUE,1,0,5,3,1,4,167,pingui,Catalan,Sounds/cat_pingui.mp3,2020-06-19_14h04.01.378,TranslationElicitation_spa,3.2.4,Win32,60,55ipnc9w0h32nce29jf2079jf0jf,,,,,,,
,,,,,,,,,,,,,,,,,,,,,,,,,,,,,,,,,,,backspace,2.898000002,,TRUE,1,0,5,3,1,4,167,pingui,Catalan,Sounds/cat_pingui.mp3,2020-06-19_14h04.01.378,TranslationElicitation_spa,3.2.4,Win32,60,55ipnc9w0h32nce29jf2079jf0jf,,,,,,,
,,,,,,,,,,,,,,,,,,,,,,,,,,,,,,,,,,,backspace,3.065000057,,TRUE,1,0,5,3,1,4,167,pingui,Catalan,Sounds/cat_pingui.mp3,2020-06-19_14h04.01.378,TranslationElicitation_spa,3.2.4,Win32,60,55ipnc9w0h32nce29jf2079jf0jf,,,,,,,
,,,,,,,,,,,,,,,,,,,,,,,,,,,,,,,,,,,p,3.59800005,P,TRUE,1,0,5,3,1,4,167,pingui,Catalan,Sounds/cat_pingui.mp3,2020-06-19_14h04.01.378,TranslationElicitation_spa,3.2.4,Win32,60,55ipnc9w0h32nce29jf2079jf0jf,,,,,,,
,,,,,,,,,,,,,,,,,,,,,,,,,,,,,,,,,,,i,3.882000208,PI,TRUE,1,0,5,3,1,4,167,pingui,Catalan,Sounds/cat_pingui.mp3,2020-06-19_14h04.01.378,TranslationElicitation_spa,3.2.4,Win32,60,55ipnc9w0h32nce29jf2079jf0jf,,,,,,,
,,,,,,,,,,,,,,,,,,,,,,,,,,,,,,,,,,,n,4.08100009,PIN,TRUE,1,0,5,3,1,4,167,pingui,Catalan,Sounds/cat_pingui.mp3,2020-06-19_14h04.01.378,TranslationElicitation_spa,3.2.4,Win32,60,55ipnc9w0h32nce29jf2079jf0jf,,,,,,,
,,,,,,,,,,,,,,,,,,,,,,,,,,,,,,,,,,,g,4.416000128,PING,TRUE,1,0,5,3,1,4,167,pingui,Catalan,Sounds/cat_pingui.mp3,2020-06-19_14h04.01.378,TranslationElicitation_spa,3.2.4,Win32,60,55ipnc9w0h32nce29jf2079jf0jf,,,,,,,
,,,,,,,,,,,,,,,,,,,,,,,,,,,,,,,,,,,u,4.6650002,PINGU,TRUE,1,0,5,3,1,4,167,pingui,Catalan,Sounds/cat_pingui.mp3,2020-06-19_14h04.01.378,TranslationElicitation_spa,3.2.4,Win32,60,55ipnc9w0h32nce29jf2079jf0jf,,,,,,,
,,,,,,,,,,,,,,,,,,,,,,,,,,,,,,,,,,,i,4.749000072,PINGUI,TRUE,1,0,5,3,1,4,167,pingui,Catalan,Sounds/cat_pingui.mp3,2020-06-19_14h04.01.378,TranslationElicitation_spa,3.2.4,Win32,60,55ipnc9w0h32nce29jf2079jf0jf,,,,,,,
,,,,,,,,,,,,,,,,,,,,,,,,,,,,,,,,,,,n,5.015000105,PINGUIN,TRUE,1,0,5,3,1,4,167,pingui,Catalan,Sounds/cat_pingui.mp3,2020-06-19_14h04.01.378,TranslationElicitation_spa,3.2.4,Win32,60,55ipnc9w0h32nce29jf2079jf0jf,,,,,,,
,,,,,,,,,,,,,,,,,,,,,,,,,,,,,,,,,,,o,5.116000175,PINGUINO,TRUE,1,0,5,3,1,4,167,pingui,Catalan,Sounds/cat_pingui.mp3,2020-06-19_14h04.01.378,TranslationElicitation_spa,3.2.4,Win32,60,55ipnc9w0h32nce29jf2079jf0jf,,,,,,,
,,,,,,,,,,,,,,,,,,,,,,,,,,,,,,,,,,,return,5.69900012,,TRUE,1,0,5,3,1,4,167,pingui,Catalan,Sounds/cat_pingui.mp3,2020-06-19_14h04.01.378,TranslationElicitation_spa,3.2.4,Win32,60,55ipnc9w0h32nce29jf2079jf0jf,5.69900012,,,,,,
,,,,,,,,,,,,,,,,,,,,,,,,,,,,,,,,,,,,,,,1,0,5,3,1,4,167,pingui,Catalan,Sounds/cat_pingui.mp3,2020-06-19_14h04.01.378,TranslationElicitation_spa,3.2.4,Win32,60,55ipnc9w0h32nce29jf2079jf0jf,,,,,,,
,,,,,,,,,,,,,,,,,,,,,,,,,,,,,,,,,,,a,1.677999973,A,FALSE,1,0,5,0,1,4,109,arbre,Catalan,Sounds/cat_arbre.mp3,2020-06-19_14h04.01.378,TranslationElicitation_spa,3.2.4,Win32,60,55ipnc9w0h32nce29jf2079jf0jf,,,,,,,
,,,,,,,,,,,,,,,,,,,,,,,,,,,,,,,,,,,r,1.927000046,AR,FALSE,1,0,5,0,1,4,109,arbre,Catalan,Sounds/cat_arbre.mp3,2020-06-19_14h04.01.378,TranslationElicitation_spa,3.2.4,Win32,60,55ipnc9w0h32nce29jf2079jf0jf,,,,,,,
,,,,,,,,,,,,,,,,,,,,,,,,,,,,,,,,,,,b,2.128000021,ARB,FALSE,1,0,5,0,1,4,109,arbre,Catalan,Sounds/cat_arbre.mp3,2020-06-19_14h04.01.378,TranslationElicitation_spa,3.2.4,Win32,60,55ipnc9w0h32nce29jf2079jf0jf,,,,,,,
,,,,,,,,,,,,,,,,,,,,,,,,,,,,,,,,,,,o,2.361000061,ARBO,FALSE,1,0,5,0,1,4,109,arbre,Catalan,Sounds/cat_arbre.mp3,2020-06-19_14h04.01.378,TranslationElicitation_spa,3.2.4,Win32,60,55ipnc9w0h32nce29jf2079jf0jf,,,,,,,
,,,,,,,,,,,,,,,,,,,,,,,,,,,,,,,,,,,l,2.528000116,ARBOL,FALSE,1,0,5,0,1,4,109,arbre,Catalan,Sounds/cat_arbre.mp3,2020-06-19_14h04.01.378,TranslationElicitation_spa,3.2.4,Win32,60,55ipnc9w0h32nce29jf2079jf0jf,,,,,,,
,,,,,,,,,,,,,,,,,,,,,,,,,,,,,,,,,,,return,2.977999926,,FALSE,1,0,5,0,1,4,109,arbre,Catalan,Sounds/cat_arbre.mp3,2020-06-19_14h04.01.378,TranslationElicitation_spa,3.2.4,Win32,60,55ipnc9w0h32nce29jf2079jf0jf,2.977999926,,,,,,
,,,,,,,,,,,,,,,,,,,,,,,,,,,,,,,,,,,,,,,1,0,5,0,1,4,109,arbre,Catalan,Sounds/cat_arbre.mp3,2020-06-19_14h04.01.378,TranslationElicitation_spa,3.2.4,Win32,60,55ipnc9w0h32nce29jf2079jf0jf,,,,,,,
,,,,,,,,,,,,,,,,,,,,,,,,,,,,,,,,,,,s,2.36500001,S,FALSE,,,,,,,157,mussol,Catalan,Sounds/cat_mussol.mp3,2020-06-19_14h04.01.378,TranslationElicitation_spa,3.2.4,Win32,60,55ipnc9w0h32nce29jf2079jf0jf,,1,0,80,51,1,79
,,,,,,,,,,,,,,,,,,,,,,,,,,,,,,,,,,,o,2.464999914,SO,FALSE,,,,,,,157,mussol,Catalan,Sounds/cat_mussol.mp3,2020-06-19_14h04.01.378,TranslationElicitation_spa,3.2.4,Win32,60,55ipnc9w0h32nce29jf2079jf0jf,,1,0,80,51,1,79
,,,,,,,,,,,,,,,,,,,,,,,,,,,,,,,,,,,l,2.631999969,SOL,FALSE,,,,,,,157,mussol,Catalan,Sounds/cat_mussol.mp3,2020-06-19_14h04.01.378,TranslationElicitation_spa,3.2.4,Win32,60,55ipnc9w0h32nce29jf2079jf0jf,,1,0,80,51,1,79
,,,,,,,,,,,,,,,,,,,,,,,,,,,,,,,,,,,return,3.799000025,,FALSE,,,,,,,157,mussol,Catalan,Sounds/cat_mussol.mp3,2020-06-19_14h04.01.378,TranslationElicitation_spa,3.2.4,Win32,60,55ipnc9w0h32nce29jf2079jf0jf,3.799000025,1,0,80,51,1,79
,,,,,,,,,,,,,,,,,,,,,,,,,,,,,,,,,,,,,,,,,,,,,157,mussol,Catalan,Sounds/cat_mussol.mp3,2020-06-19_14h04.01.378,TranslationElicitation_spa,3.2.4,Win32,60,55ipnc9w0h32nce29jf2079jf0jf,,1,0,80,51,1,79
,,,,,,,,,,,,,,,,,,,,,,,,,,,,,,,,,,,b,5.19900012,B,FALSE,,,,,,,187,vaixell,Catalan,Sounds/cat_vaixell.mp3,2020-06-19_14h04.01.378,TranslationElicitation_spa,3.2.4,Win32,60,55ipnc9w0h32nce29jf2079jf0jf,,1,0,80,77,1,79
,,,,,,,,,,,,,,,,,,,,,,,,,,,,,,,,,,,e,5.315999985,BE,FALSE,,,,,,,187,vaixell,Catalan,Sounds/cat_vaixell.mp3,2020-06-19_14h04.01.378,TranslationElicitation_spa,3.2.4,Win32,60,55ipnc9w0h32nce29jf2079jf0jf,,1,0,80,77,1,79
,,,,,,,,,,,,,,,,,,,,,,,,,,,,,,,,,,,s,6.049999952,BES,FALSE,,,,,,,187,vaixell,Catalan,Sounds/cat_vaixell.mp3,2020-06-19_14h04.01.378,TranslationElicitation_spa,3.2.4,Win32,60,55ipnc9w0h32nce29jf2079jf0jf,,1,0,80,77,1,79
,,,,,,,,,,,,,,,,,,,,,,,,,,,,,,,,,,,o,6.200000048,BESO,FALSE,,,,,,,187,vaixell,Catalan,Sounds/cat_vaixell.mp3,2020-06-19_14h04.01.378,TranslationElicitation_spa,3.2.4,Win32,60,55ipnc9w0h32nce29jf2079jf0jf,,1,0,80,77,1,79
,,,,,,,,,,,,,,,,,,,,,,,,,,,,,,,,,,,return,6.683000088,,FALSE,,,,,,,187,vaixell,Catalan,Sounds/cat_vaixell.mp3,2020-06-19_14h04.01.378,TranslationElicitation_spa,3.2.4,Win32,60,55ipnc9w0h32nce29jf2079jf0jf,6.683000088,1,0,80,77,1,79
,,,,,,,,,,,,,,,,,,,,,,,,,,,,,,,,,,,,,,,,,,,,,187,vaixell,Catalan,Sounds/cat_vaixell.mp3,2020-06-19_14h04.01.378,TranslationElicitation_spa,3.2.4,Win32,60,55ipnc9w0h32nce29jf2079jf0jf,,1,0,80,77,1,79
,,,,,,,,,,,,,,,,,,,,,,,,,,,,,,,,,,,c,1.150000095,C,FALSE,,,,,,,138,galeta,Catalan,Sounds/cat_galeta.mp3,2020-06-19_14h04.01.378,TranslationElicitation_spa,3.2.4,Win32,60,55ipnc9w0h32nce29jf2079jf0jf,,1,0,80,33,1,79
,,,,,,,,,,,,,,,,,,,,,,,,,,,,,,,,,,,o,1.316999912,CO,FALSE,,,,,,,138,galeta,Catalan,Sounds/cat_galeta.mp3,2020-06-19_14h04.01.378,TranslationElicitation_spa,3.2.4,Win32,60,55ipnc9w0h32nce29jf2079jf0jf,,1,0,80,33,1,79
,,,,,,,,,,,,,,,,,,,,,,,,,,,,,,,,,,,l,1.469000101,COL,FALSE,,,,,,,138,galeta,Catalan,Sounds/cat_galeta.mp3,2020-06-19_14h04.01.378,TranslationElicitation_spa,3.2.4,Win32,60,55ipnc9w0h32nce29jf2079jf0jf,,1,0,80,33,1,79
,,,,,,,,,,,,,,,,,,,,,,,,,,,,,,,,,,,e,1.584000111,COLE,FALSE,,,,,,,138,galeta,Catalan,Sounds/cat_galeta.mp3,2020-06-19_14h04.01.378,TranslationElicitation_spa,3.2.4,Win32,60,55ipnc9w0h32nce29jf2079jf0jf,,1,0,80,33,1,79
,,,,,,,,,,,,,,,,,,,,,,,,,,,,,,,,,,,t,1.76699996,COLET,FALSE,,,,,,,138,galeta,Catalan,Sounds/cat_galeta.mp3,2020-06-19_14h04.01.378,TranslationElicitation_spa,3.2.4,Win32,60,55ipnc9w0h32nce29jf2079jf0jf,,1,0,80,33,1,79
,,,,,,,,,,,,,,,,,,,,,,,,,,,,,,,,,,,a,1.917000055,COLETA,FALSE,,,,,,,138,galeta,Catalan,Sounds/cat_galeta.mp3,2020-06-19_14h04.01.378,TranslationElicitation_spa,3.2.4,Win32,60,55ipnc9w0h32nce29jf2079jf0jf,,1,0,80,33,1,79
,,,,,,,,,,,,,,,,,,,,,,,,,,,,,,,,,,,return,2.53399992,,FALSE,,,,,,,138,galeta,Catalan,Sounds/cat_galeta.mp3,2020-06-19_14h04.01.378,TranslationElicitation_spa,3.2.4,Win32,60,55ipnc9w0h32nce29jf2079jf0jf,2.53399992,1,0,80,33,1,79
,,,,,,,,,,,,,,,,,,,,,,,,,,,,,,,,,,,,,,,,,,,,,138,galeta,Catalan,Sounds/cat_galeta.mp3,2020-06-19_14h04.01.378,TranslationElicitation_spa,3.2.4,Win32,60,55ipnc9w0h32nce29jf2079jf0jf,,1,0,80,33,1,79
,,,,,,,,,,,,,,,,,,,,,,,,,,,,,,,,,,,b,1.381999969,B,FALSE,,,,,,,123,cavall,Catalan,Sounds/cat_cavall.mp3,2020-06-19_14h04.01.378,TranslationElicitation_spa,3.2.4,Win32,60,55ipnc9w0h32nce29jf2079jf0jf,,1,0,80,18,1,79
,,,,,,,,,,,,,,,,,,,,,,,,,,,,,,,,,,,a,1.516000032,BA,FALSE,,,,,,,123,cavall,Catalan,Sounds/cat_cavall.mp3,2020-06-19_14h04.01.378,TranslationElicitation_spa,3.2.4,Win32,60,55ipnc9w0h32nce29jf2079jf0jf,,1,0,80,18,1,79
,,,,,,,,,,,,,,,,,,,,,,,,,,,,,,,,,,,l,1.681999922,BAL,FALSE,,,,,,,123,cavall,Catalan,Sounds/cat_cavall.mp3,2020-06-19_14h04.01.378,TranslationElicitation_spa,3.2.4,Win32,60,55ipnc9w0h32nce29jf2079jf0jf,,1,0,80,18,1,79
,,,,,,,,,,,,,,,,,,,,,,,,,,,,,,,,,,,l,1.799000025,BALL,FALSE,,,,,,,123,cavall,Catalan,Sounds/cat_cavall.mp3,2020-06-19_14h04.01.378,TranslationElicitation_spa,3.2.4,Win32,60,55ipnc9w0h32nce29jf2079jf0jf,,1,0,80,18,1,79
,,,,,,,,,,,,,,,,,,,,,,,,,,,,,,,,,,,backspace,2.25,BA,TRUE,,,,,,,123,cavall,Catalan,Sounds/cat_cavall.mp3,2020-06-19_14h04.01.378,TranslationElicitation_spa,3.2.4,Win32,60,55ipnc9w0h32nce29jf2079jf0jf,,1,0,80,18,1,79
,,,,,,,,,,,,,,,,,,,,,,,,,,,,,,,,,,,backspace,2.382999897,,TRUE,,,,,,,123,cavall,Catalan,Sounds/cat_cavall.mp3,2020-06-19_14h04.01.378,TranslationElicitation_spa,3.2.4,Win32,60,55ipnc9w0h32nce29jf2079jf0jf,,1,0,80,18,1,79
,,,,,,,,,,,,,,,,,,,,,,,,,,,,,,,,,,,backspace,2.51699996,,TRUE,,,,,,,123,cavall,Catalan,Sounds/cat_cavall.mp3,2020-06-19_14h04.01.378,TranslationElicitation_spa,3.2.4,Win32,60,55ipnc9w0h32nce29jf2079jf0jf,,1,0,80,18,1,79
,,,,,,,,,,,,,,,,,,,,,,,,,,,,,,,,,,,backspace,2.650000095,,TRUE,,,,,,,123,cavall,Catalan,Sounds/cat_cavall.mp3,2020-06-19_14h04.01.378,TranslationElicitation_spa,3.2.4,Win32,60,55ipnc9w0h32nce29jf2079jf0jf,,1,0,80,18,1,79
,,,,,,,,,,,,,,,,,,,,,,,,,,,,,,,,,,,c,2.71600008,C,TRUE,,,,,,,123,cavall,Catalan,Sounds/cat_cavall.mp3,2020-06-19_14h04.01.378,TranslationElicitation_spa,3.2.4,Win32,60,55ipnc9w0h32nce29jf2079jf0jf,,1,0,80,18,1,79
,,,,,,,,,,,,,,,,,,,,,,,,,,,,,,,,,,,a,3.032999992,CA,TRUE,,,,,,,123,cavall,Catalan,Sounds/cat_cavall.mp3,2020-06-19_14h04.01.378,TranslationElicitation_spa,3.2.4,Win32,60,55ipnc9w0h32nce29jf2079jf0jf,,1,0,80,18,1,79
,,,,,,,,,,,,,,,,,,,,,,,,,,,,,,,,,,,b,3.5,CAB,TRUE,,,,,,,123,cavall,Catalan,Sounds/cat_cavall.mp3,2020-06-19_14h04.01.378,TranslationElicitation_spa,3.2.4,Win32,60,55ipnc9w0h32nce29jf2079jf0jf,,1,0,80,18,1,79
,,,,,,,,,,,,,,,,,,,,,,,,,,,,,,,,,,,a,3.834000111,CABA,TRUE,,,,,,,123,cavall,Catalan,Sounds/cat_cavall.mp3,2020-06-19_14h04.01.378,TranslationElicitation_spa,3.2.4,Win32,60,55ipnc9w0h32nce29jf2079jf0jf,,1,0,80,18,1,79
,,,,,,,,,,,,,,,,,,,,,,,,,,,,,,,,,,,l,3.984999895,CABAL,TRUE,,,,,,,123,cavall,Catalan,Sounds/cat_cavall.mp3,2020-06-19_14h04.01.378,TranslationElicitation_spa,3.2.4,Win32,60,55ipnc9w0h32nce29jf2079jf0jf,,1,0,80,18,1,79
,,,,,,,,,,,,,,,,,,,,,,,,,,,,,,,,,,,l,4.117000103,CABALL,TRUE,,,,,,,123,cavall,Catalan,Sounds/cat_cavall.mp3,2020-06-19_14h04.01.378,TranslationElicitation_spa,3.2.4,Win32,60,55ipnc9w0h32nce29jf2079jf0jf,,1,0,80,18,1,79
,,,,,,,,,,,,,,,,,,,,,,,,,,,,,,,,,,,o,4.26699996,CABALLO,TRUE,,,,,,,123,cavall,Catalan,Sounds/cat_cavall.mp3,2020-06-19_14h04.01.378,TranslationElicitation_spa,3.2.4,Win32,60,55ipnc9w0h32nce29jf2079jf0jf,,1,0,80,18,1,79
,,,,,,,,,,,,,,,,,,,,,,,,,,,,,,,,,,,return,4.733999968,,TRUE,,,,,,,123,cavall,Catalan,Sounds/cat_cavall.mp3,2020-06-19_14h04.01.378,TranslationElicitation_spa,3.2.4,Win32,60,55ipnc9w0h32nce29jf2079jf0jf,4.733999968,1,0,80,18,1,79
,,,,,,,,,,,,,,,,,,,,,,,,,,,,,,,,,,,,,,,,,,,,,123,cavall,Catalan,Sounds/cat_cavall.mp3,2020-06-19_14h04.01.378,TranslationElicitation_spa,3.2.4,Win32,60,55ipnc9w0h32nce29jf2079jf0jf,,1,0,80,18,1,79
,,,,,,,,,,,,,,,,,,,,,,,,,,,,,,,,,,,b,1.388999939,B,FALSE,,,,,,,113,boca,Catalan,Sounds/cat_boca.mp3,2020-06-19_14h04.01.378,TranslationElicitation_spa,3.2.4,Win32,60,55ipnc9w0h32nce29jf2079jf0jf,,1,0,80,8,1,79
,,,,,,,,,,,,,,,,,,,,,,,,,,,,,,,,,,,o,1.504999876,BO,FALSE,,,,,,,113,boca,Catalan,Sounds/cat_boca.mp3,2020-06-19_14h04.01.378,TranslationElicitation_spa,3.2.4,Win32,60,55ipnc9w0h32nce29jf2079jf0jf,,1,0,80,8,1,79
,,,,,,,,,,,,,,,,,,,,,,,,,,,,,,,,,,,c,1.688999891,BOC,FALSE,,,,,,,113,boca,Catalan,Sounds/cat_boca.mp3,2020-06-19_14h04.01.378,TranslationElicitation_spa,3.2.4,Win32,60,55ipnc9w0h32nce29jf2079jf0jf,,1,0,80,8,1,79
,,,,,,,,,,,,,,,,,,,,,,,,,,,,,,,,,,,a,2.023000002,BOCA,FALSE,,,,,,,113,boca,Catalan,Sounds/cat_boca.mp3,2020-06-19_14h04.01.378,TranslationElicitation_spa,3.2.4,Win32,60,55ipnc9w0h32nce29jf2079jf0jf,,1,0,80,8,1,79
,,,,,,,,,,,,,,,,,,,,,,,,,,,,,,,,,,,return,2.289000034,,FALSE,,,,,,,113,boca,Catalan,Sounds/cat_boca.mp3,2020-06-19_14h04.01.378,TranslationElicitation_spa,3.2.4,Win32,60,55ipnc9w0h32nce29jf2079jf0jf,2.289000034,1,0,80,8,1,79
,,,,,,,,,,,,,,,,,,,,,,,,,,,,,,,,,,,,,,,,,,,,,113,boca,Catalan,Sounds/cat_boca.mp3,2020-06-19_14h04.01.378,TranslationElicitation_spa,3.2.4,Win32,60,55ipnc9w0h32nce29jf2079jf0jf,,1,0,80,8,1,79
,,,,,,,,,,,,,,,,,,,,,,,,,,,,,,,,,,,r,1.464999914,R,FALSE,,,,,,,158,nas,Catalan,Sounds/cat_nas.mp3,2020-06-19_14h04.01.378,TranslationElicitation_spa,3.2.4,Win32,60,55ipnc9w0h32nce29jf2079jf0jf,,1,0,80,52,1,79
,,,,,,,,,,,,,,,,,,,,,,,,,,,,,,,,,,,i,1.599999905,RI,FALSE,,,,,,,158,nas,Catalan,Sounds/cat_nas.mp3,2020-06-19_14h04.01.378,TranslationElicitation_spa,3.2.4,Win32,60,55ipnc9w0h32nce29jf2079jf0jf,,1,0,80,52,1,79
,,,,,,,,,,,,,,,,,,,,,,,,,,,,,,,,,,,z,1.798999786,RIZ,FALSE,,,,,,,158,nas,Catalan,Sounds/cat_nas.mp3,2020-06-19_14h04.01.378,TranslationElicitation_spa,3.2.4,Win32,60,55ipnc9w0h32nce29jf2079jf0jf,,1,0,80,52,1,79
,,,,,,,,,,,,,,,,,,,,,,,,,,,,,,,,,,,backspace,2.165999889,R,TRUE,,,,,,,158,nas,Catalan,Sounds/cat_nas.mp3,2020-06-19_14h04.01.378,TranslationElicitation_spa,3.2.4,Win32,60,55ipnc9w0h32nce29jf2079jf0jf,,1,0,80,52,1,79
,,,,,,,,,,,,,,,,,,,,,,,,,,,,,,,,,,,backspace,2.315999985,,TRUE,,,,,,,158,nas,Catalan,Sounds/cat_nas.mp3,2020-06-19_14h04.01.378,TranslationElicitation_spa,3.2.4,Win32,60,55ipnc9w0h32nce29jf2079jf0jf,,1,0,80,52,1,79
,,,,,,,,,,,,,,,,,,,,,,,,,,,,,,,,,,,a,2.465999842,A,TRUE,,,,,,,158,nas,Catalan,Sounds/cat_nas.mp3,2020-06-19_14h04.01.378,TranslationElicitation_spa,3.2.4,Win32,60,55ipnc9w0h32nce29jf2079jf0jf,,1,0,80,52,1,79
,,,,,,,,,,,,,,,,,,,,,,,,,,,,,,,,,,,backspace,3.448999882,,TRUE,,,,,,,158,nas,Catalan,Sounds/cat_nas.mp3,2020-06-19_14h04.01.378,TranslationElicitation_spa,3.2.4,Win32,60,55ipnc9w0h32nce29jf2079jf0jf,,1,0,80,52,1,79
,,,,,,,,,,,,,,,,,,,,,,,,,,,,,,,,,,,n,3.75,N,TRUE,,,,,,,158,nas,Catalan,Sounds/cat_nas.mp3,2020-06-19_14h04.01.378,TranslationElicitation_spa,3.2.4,Win32,60,55ipnc9w0h32nce29jf2079jf0jf,,1,0,80,52,1,79
,,,,,,,,,,,,,,,,,,,,,,,,,,,,,,,,,,,a,3.849999905,NA,TRUE,,,,,,,158,nas,Catalan,Sounds/cat_nas.mp3,2020-06-19_14h04.01.378,TranslationElicitation_spa,3.2.4,Win32,60,55ipnc9w0h32nce29jf2079jf0jf,,1,0,80,52,1,79
,,,,,,,,,,,,,,,,,,,,,,,,,,,,,,,,,,,r,4.049999952,NAR,TRUE,,,,,,,158,nas,Catalan,Sounds/cat_nas.mp3,2020-06-19_14h04.01.378,TranslationElicitation_spa,3.2.4,Win32,60,55ipnc9w0h32nce29jf2079jf0jf,,1,0,80,52,1,79
,,,,,,,,,,,,,,,,,,,,,,,,,,,,,,,,,,,i,4.416999817,NARI,TRUE,,,,,,,158,nas,Catalan,Sounds/cat_nas.mp3,2020-06-19_14h04.01.378,TranslationElicitation_spa,3.2.4,Win32,60,55ipnc9w0h32nce29jf2079jf0jf,,1,0,80,52,1,79
,,,,,,,,,,,,,,,,,,,,,,,,,,,,,,,,,,,z,4.51699996,NARIZ,TRUE,,,,,,,158,nas,Catalan,Sounds/cat_nas.mp3,2020-06-19_14h04.01.378,TranslationElicitation_spa,3.2.4,Win32,60,55ipnc9w0h32nce29jf2079jf0jf,,1,0,80,52,1,79
,,,,,,,,,,,,,,,,,,,,,,,,,,,,,,,,,,,return,5.032999992,,TRUE,,,,,,,158,nas,Catalan,Sounds/cat_nas.mp3,2020-06-19_14h04.01.378,TranslationElicitation_spa,3.2.4,Win32,60,55ipnc9w0h32nce29jf2079jf0jf,5.032999992,1,0,80,52,1,79
,,,,,,,,,,,,,,,,,,,,,,,,,,,,,,,,,,,,,,,,,,,,,158,nas,Catalan,Sounds/cat_nas.mp3,2020-06-19_14h04.01.378,TranslationElicitation_spa,3.2.4,Win32,60,55ipnc9w0h32nce29jf2079jf0jf,,1,0,80,52,1,79
,,,,,,,,,,,,,,,,,,,,,,,,,,,,,,,,,,,s,1.865999937,S,FALSE,,,,,,,124,cirera,Catalan,Sounds/cat_cirera.mp3,2020-06-19_14h04.01.378,TranslationElicitation_spa,3.2.4,Win32,60,55ipnc9w0h32nce29jf2079jf0jf,,1,0,80,19,1,79
,,,,,,,,,,,,,,,,,,,,,,,,,,,,,,,,,,,i,2.334000111,SI,FALSE,,,,,,,124,cirera,Catalan,Sounds/cat_cirera.mp3,2020-06-19_14h04.01.378,TranslationElicitation_spa,3.2.4,Win32,60,55ipnc9w0h32nce29jf2079jf0jf,,1,0,80,19,1,79
,,,,,,,,,,,,,,,,,,,,,,,,,,,,,,,,,,,r,2.733999968,SIR,FALSE,,,,,,,124,cirera,Catalan,Sounds/cat_cirera.mp3,2020-06-19_14h04.01.378,TranslationElicitation_spa,3.2.4,Win32,60,55ipnc9w0h32nce29jf2079jf0jf,,1,0,80,19,1,79
,,,,,,,,,,,,,,,,,,,,,,,,,,,,,,,,,,,e,2.851999998,SIRE,FALSE,,,,,,,124,cirera,Catalan,Sounds/cat_cirera.mp3,2020-06-19_14h04.01.378,TranslationElicitation_spa,3.2.4,Win32,60,55ipnc9w0h32nce29jf2079jf0jf,,1,0,80,19,1,79
,,,,,,,,,,,,,,,,,,,,,,,,,,,,,,,,,,,n,3.01699996,SIREN,FALSE,,,,,,,124,cirera,Catalan,Sounds/cat_cirera.mp3,2020-06-19_14h04.01.378,TranslationElicitation_spa,3.2.4,Win32,60,55ipnc9w0h32nce29jf2079jf0jf,,1,0,80,19,1,79
,,,,,,,,,,,,,,,,,,,,,,,,,,,,,,,,,,,a,3.167000055,SIRENA,FALSE,,,,,,,124,cirera,Catalan,Sounds/cat_cirera.mp3,2020-06-19_14h04.01.378,TranslationElicitation_spa,3.2.4,Win32,60,55ipnc9w0h32nce29jf2079jf0jf,,1,0,80,19,1,79
,,,,,,,,,,,,,,,,,,,,,,,,,,,,,,,,,,,return,3.384000063,,FALSE,,,,,,,124,cirera,Catalan,Sounds/cat_cirera.mp3,2020-06-19_14h04.01.378,TranslationElicitation_spa,3.2.4,Win32,60,55ipnc9w0h32nce29jf2079jf0jf,3.384000063,1,0,80,19,1,79
,,,,,,,,,,,,,,,,,,,,,,,,,,,,,,,,,,,,,,,,,,,,,124,cirera,Catalan,Sounds/cat_cirera.mp3,2020-06-19_14h04.01.378,TranslationElicitation_spa,3.2.4,Win32,60,55ipnc9w0h32nce29jf2079jf0jf,,1,0,80,19,1,79
,,,,,,,,,,,,,,,,,,,,,,,,,,,,,,,,,,,c,1.881999969,C,FALSE,,,,,,,120,cama,Catalan,Sounds/cat_cama.mp3,2020-06-19_14h04.01.378,TranslationElicitation_spa,3.2.4,Win32,60,55ipnc9w0h32nce29jf2079jf0jf,,1,0,80,15,1,79
,,,,,,,,,,,,,,,,,,,,,,,,,,,,,,,,,,,a,2.182999849,CA,FALSE,,,,,,,120,cama,Catalan,Sounds/cat_cama.mp3,2020-06-19_14h04.01.378,TranslationElicitation_spa,3.2.4,Win32,60,55ipnc9w0h32nce29jf2079jf0jf,,1,0,80,15,1,79
,,,,,,,,,,,,,,,,,,,,,,,,,,,,,,,,,,,m,2.315000057,CAM,FALSE,,,,,,,120,cama,Catalan,Sounds/cat_cama.mp3,2020-06-19_14h04.01.378,TranslationElicitation_spa,3.2.4,Win32,60,55ipnc9w0h32nce29jf2079jf0jf,,1,0,80,15,1,79
,,,,,,,,,,,,,,,,,,,,,,,,,,,,,,,,,,,a,2.447999954,CAMA,FALSE,,,,,,,120,cama,Catalan,Sounds/cat_cama.mp3,2020-06-19_14h04.01.378,TranslationElicitation_spa,3.2.4,Win32,60,55ipnc9w0h32nce29jf2079jf0jf,,1,0,80,15,1,79
,,,,,,,,,,,,,,,,,,,,,,,,,,,,,,,,,,,return,2.997999907,,FALSE,,,,,,,120,cama,Catalan,Sounds/cat_cama.mp3,2020-06-19_14h04.01.378,TranslationElicitation_spa,3.2.4,Win32,60,55ipnc9w0h32nce29jf2079jf0jf,2.997999907,1,0,80,15,1,79
,,,,,,,,,,,,,,,,,,,,,,,,,,,,,,,,,,,,,,,,,,,,,120,cama,Catalan,Sounds/cat_cama.mp3,2020-06-19_14h04.01.378,TranslationElicitation_spa,3.2.4,Win32,60,55ipnc9w0h32nce29jf2079jf0jf,,1,0,80,15,1,79
,,,,,,,,,,,,,,,,,,,,,,,,,,,,,,,,,,,p,4.148999929,P,FALSE,,,,,,,165,pernil,Catalan,Sounds/cat_pernil.mp3,2020-06-19_14h04.01.378,TranslationElicitation_spa,3.2.4,Win32,60,55ipnc9w0h32nce29jf2079jf0jf,,1,0,80,58,1,79
,,,,,,,,,,,,,,,,,,,,,,,,,,,,,,,,,,,e,4.350000143,PE,FALSE,,,,,,,165,pernil,Catalan,Sounds/cat_pernil.mp3,2020-06-19_14h04.01.378,TranslationElicitation_spa,3.2.4,Win32,60,55ipnc9w0h32nce29jf2079jf0jf,,1,0,80,58,1,79
,,,,,,,,,,,,,,,,,,,,,,,,,,,,,,,,,,,r,4.565000057,PER,FALSE,,,,,,,165,pernil,Catalan,Sounds/cat_pernil.mp3,2020-06-19_14h04.01.378,TranslationElicitation_spa,3.2.4,Win32,60,55ipnc9w0h32nce29jf2079jf0jf,,1,0,80,58,1,79
,,,,,,,,,,,,,,,,,,,,,,,,,,,,,,,,,,,c,4.815999985,PERC,FALSE,,,,,,,165,pernil,Catalan,Sounds/cat_pernil.mp3,2020-06-19_14h04.01.378,TranslationElicitation_spa,3.2.4,Win32,60,55ipnc9w0h32nce29jf2079jf0jf,,1,0,80,58,1,79
,,,,,,,,,,,,,,,,,,,,,,,,,,,,,,,,,,,e,4.931999922,PERCE,FALSE,,,,,,,165,pernil,Catalan,Sounds/cat_pernil.mp3,2020-06-19_14h04.01.378,TranslationElicitation_spa,3.2.4,Win32,60,55ipnc9w0h32nce29jf2079jf0jf,,1,0,80,58,1,79
,,,,,,,,,,,,,,,,,,,,,,,,,,,,,,,,,,,n,5.11500001,PERCEN,FALSE,,,,,,,165,pernil,Catalan,Sounds/cat_pernil.mp3,2020-06-19_14h04.01.378,TranslationElicitation_spa,3.2.4,Win32,60,55ipnc9w0h32nce29jf2079jf0jf,,1,0,80,58,1,79
,,,,,,,,,,,,,,,,,,,,,,,,,,,,,,,,,,,t,5.232000113,PERCENT,FALSE,,,,,,,165,pernil,Catalan,Sounds/cat_pernil.mp3,2020-06-19_14h04.01.378,TranslationElicitation_spa,3.2.4,Win32,60,55ipnc9w0h32nce29jf2079jf0jf,,1,0,80,58,1,79
,,,,,,,,,,,,,,,,,,,,,,,,,,,,,,,,,,,i,5.332000017,PERCENTI,FALSE,,,,,,,165,pernil,Catalan,Sounds/cat_pernil.mp3,2020-06-19_14h04.01.378,TranslationElicitation_spa,3.2.4,Win32,60,55ipnc9w0h32nce29jf2079jf0jf,,1,0,80,58,1,79
,,,,,,,,,,,,,,,,,,,,,,,,,,,,,,,,,,,l,5.532000065,PERCENTIL,FALSE,,,,,,,165,pernil,Catalan,Sounds/cat_pernil.mp3,2020-06-19_14h04.01.378,TranslationElicitation_spa,3.2.4,Win32,60,55ipnc9w0h32nce29jf2079jf0jf,,1,0,80,58,1,79
,,,,,,,,,,,,,,,,,,,,,,,,,,,,,,,,,,,return,5.965000153,,FALSE,,,,,,,165,pernil,Catalan,Sounds/cat_pernil.mp3,2020-06-19_14h04.01.378,TranslationElicitation_spa,3.2.4,Win32,60,55ipnc9w0h32nce29jf2079jf0jf,5.965000153,1,0,80,58,1,79
,,,,,,,,,,,,,,,,,,,,,,,,,,,,,,,,,,,,,,,,,,,,,165,pernil,Catalan,Sounds/cat_pernil.mp3,2020-06-19_14h04.01.378,TranslationElicitation_spa,3.2.4,Win32,60,55ipnc9w0h32nce29jf2079jf0jf,,1,0,80,58,1,79
,,,,,,,,,,,,,,,,,,,,,,,,,,,,,,,,,,,c,7.351999998,C,FALSE,,,,,,,176,samarreta,Catalan,Sounds/cat_samarreta.mp3,2020-06-19_14h04.01.378,TranslationElicitation_spa,3.2.4,Win32,60,55ipnc9w0h32nce29jf2079jf0jf,,1,0,80,68,1,79
,,,,,,,,,,,,,,,,,,,,,,,,,,,,,,,,,,,a,7.452000141,CA,FALSE,,,,,,,176,samarreta,Catalan,Sounds/cat_samarreta.mp3,2020-06-19_14h04.01.378,TranslationElicitation_spa,3.2.4,Win32,60,55ipnc9w0h32nce29jf2079jf0jf,,1,0,80,68,1,79
,,,,,,,,,,,,,,,,,,,,,,,,,,,,,,,,,,,r,7.569000006,CAR,FALSE,,,,,,,176,samarreta,Catalan,Sounds/cat_samarreta.mp3,2020-06-19_14h04.01.378,TranslationElicitation_spa,3.2.4,Win32,60,55ipnc9w0h32nce29jf2079jf0jf,,1,0,80,68,1,79
,,,,,,,,,,,,,,,,,,,,,,,,,,,,,,,,,,,r,7.718000174,CARR,FALSE,,,,,,,176,samarreta,Catalan,Sounds/cat_samarreta.mp3,2020-06-19_14h04.01.378,TranslationElicitation_spa,3.2.4,Win32,60,55ipnc9w0h32nce29jf2079jf0jf,,1,0,80,68,1,79
,,,,,,,,,,,,,,,,,,,,,,,,,,,,,,,,,,,e,7.802000046,CARRE,FALSE,,,,,,,176,samarreta,Catalan,Sounds/cat_samarreta.mp3,2020-06-19_14h04.01.378,TranslationElicitation_spa,3.2.4,Win32,60,55ipnc9w0h32nce29jf2079jf0jf,,1,0,80,68,1,79
,,,,,,,,,,,,,,,,,,,,,,,,,,,,,,,,,,,t,8.008000135,CARRET,FALSE,,,,,,,176,samarreta,Catalan,Sounds/cat_samarreta.mp3,2020-06-19_14h04.01.378,TranslationElicitation_spa,3.2.4,Win32,60,55ipnc9w0h32nce29jf2079jf0jf,,1,0,80,68,1,79
,,,,,,,,,,,,,,,,,,,,,,,,,,,,,,,,,,,e,8.219000101,CARRETE,FALSE,,,,,,,176,samarreta,Catalan,Sounds/cat_samarreta.mp3,2020-06-19_14h04.01.378,TranslationElicitation_spa,3.2.4,Win32,60,55ipnc9w0h32nce29jf2079jf0jf,,1,0,80,68,1,79
,,,,,,,,,,,,,,,,,,,,,,,,,,,,,,,,,,,r,8.402000189,CARRETER,FALSE,,,,,,,176,samarreta,Catalan,Sounds/cat_samarreta.mp3,2020-06-19_14h04.01.378,TranslationElicitation_spa,3.2.4,Win32,60,55ipnc9w0h32nce29jf2079jf0jf,,1,0,80,68,1,79
,,,,,,,,,,,,,,,,,,,,,,,,,,,,,,,,,,,a,8.601999998,CARRETERA,FALSE,,,,,,,176,samarreta,Catalan,Sounds/cat_samarreta.mp3,2020-06-19_14h04.01.378,TranslationElicitation_spa,3.2.4,Win32,60,55ipnc9w0h32nce29jf2079jf0jf,,1,0,80,68,1,79
,,,,,,,,,,,,,,,,,,,,,,,,,,,,,,,,,,,return,8.969000101,,FALSE,,,,,,,176,samarreta,Catalan,Sounds/cat_samarreta.mp3,2020-06-19_14h04.01.378,TranslationElicitation_spa,3.2.4,Win32,60,55ipnc9w0h32nce29jf2079jf0jf,8.969000101,1,0,80,68,1,79
,,,,,,,,,,,,,,,,,,,,,,,,,,,,,,,,,,,,,,,,,,,,,176,samarreta,Catalan,Sounds/cat_samarreta.mp3,2020-06-19_14h04.01.378,TranslationElicitation_spa,3.2.4,Win32,60,55ipnc9w0h32nce29jf2079jf0jf,,1,0,80,68,1,79
,,,,,,,,,,,,,,,,,,,,,,,,,,,,,,,,,,,h,1.28399992,H,FALSE,,,,,,,188,xocolata,Catalan,Sounds/cat_xocolata.mp3,2020-06-19_14h04.01.378,TranslationElicitation_spa,3.2.4,Win32,60,55ipnc9w0h32nce29jf2079jf0jf,,1,0,80,78,1,79
,,,,,,,,,,,,,,,,,,,,,,,,,,,,,,,,,,,backspace,1.849999905,,TRUE,,,,,,,188,xocolata,Catalan,Sounds/cat_xocolata.mp3,2020-06-19_14h04.01.378,TranslationElicitation_spa,3.2.4,Win32,60,55ipnc9w0h32nce29jf2079jf0jf,,1,0,80,78,1,79
,,,,,,,,,,,,,,,,,,,,,,,,,,,,,,,,,,,c,2,C,TRUE,,,,,,,188,xocolata,Catalan,Sounds/cat_xocolata.mp3,2020-06-19_14h04.01.378,TranslationElicitation_spa,3.2.4,Win32,60,55ipnc9w0h32nce29jf2079jf0jf,,1,0,80,78,1,79
,,,,,,,,,,,,,,,,,,,,,,,,,,,,,,,,,,,h,2.416999817,CH,TRUE,,,,,,,188,xocolata,Catalan,Sounds/cat_xocolata.mp3,2020-06-19_14h04.01.378,TranslationElicitation_spa,3.2.4,Win32,60,55ipnc9w0h32nce29jf2079jf0jf,,1,0,80,78,1,79
,,,,,,,,,,,,,,,,,,,,,,,,,,,,,,,,,,,o,2.599999905,CHO,TRUE,,,,,,,188,xocolata,Catalan,Sounds/cat_xocolata.mp3,2020-06-19_14h04.01.378,TranslationElicitation_spa,3.2.4,Win32,60,55ipnc9w0h32nce29jf2079jf0jf,,1,0,80,78,1,79
,,,,,,,,,,,,,,,,,,,,,,,,,,,,,,,,,,,l,2.782999992,CHOL,TRUE,,,,,,,188,xocolata,Catalan,Sounds/cat_xocolata.mp3,2020-06-19_14h04.01.378,TranslationElicitation_spa,3.2.4,Win32,60,55ipnc9w0h32nce29jf2079jf0jf,,1,0,80,78,1,79
,,,,,,,,,,,,,,,,,,,,,,,,,,,,,,,,,,,o,2.949999809,CHOLO,TRUE,,,,,,,188,xocolata,Catalan,Sounds/cat_xocolata.mp3,2020-06-19_14h04.01.378,TranslationElicitation_spa,3.2.4,Win32,60,55ipnc9w0h32nce29jf2079jf0jf,,1,0,80,78,1,79
,,,,,,,,,,,,,,,,,,,,,,,,,,,,,,,,,,,backspace,3.616999865,CHO,TRUE,,,,,,,188,xocolata,Catalan,Sounds/cat_xocolata.mp3,2020-06-19_14h04.01.378,TranslationElicitation_spa,3.2.4,Win32,60,55ipnc9w0h32nce29jf2079jf0jf,,1,0,80,78,1,79
,,,,,,,,,,,,,,,,,,,,,,,,,,,,,,,,,,,backspace,3.75,C,TRUE,,,,,,,188,xocolata,Catalan,Sounds/cat_xocolata.mp3,2020-06-19_14h04.01.378,TranslationElicitation_spa,3.2.4,Win32,60,55ipnc9w0h32nce29jf2079jf0jf,,1,0,80,78,1,79
,,,,,,,,,,,,,,,,,,,,,,,,,,,,,,,,,,,c,3.832999945,CC,TRUE,,,,,,,188,xocolata,Catalan,Sounds/cat_xocolata.mp3,2020-06-19_14h04.01.378,TranslationElicitation_spa,3.2.4,Win32,60,55ipnc9w0h32nce29jf2079jf0jf,,1,0,80,78,1,79
,,,,,,,,,,,,,,,,,,,,,,,,,,,,,,,,,,,o,4.049999952,CCO,TRUE,,,,,,,188,xocolata,Catalan,Sounds/cat_xocolata.mp3,2020-06-19_14h04.01.378,TranslationElicitation_spa,3.2.4,Win32,60,55ipnc9w0h32nce29jf2079jf0jf,,1,0,80,78,1,79
,,,,,,,,,,,,,,,,,,,,,,,,,,,,,,,,,,,backspace,4.5,C,TRUE,,,,,,,188,xocolata,Catalan,Sounds/cat_xocolata.mp3,2020-06-19_14h04.01.378,TranslationElicitation_spa,3.2.4,Win32,60,55ipnc9w0h32nce29jf2079jf0jf,,1,0,80,78,1,79
,,,,,,,,,,,,,,,,,,,,,,,,,,,,,,,,,,,backspace,4.633999825,,TRUE,,,,,,,188,xocolata,Catalan,Sounds/cat_xocolata.mp3,2020-06-19_14h04.01.378,TranslationElicitation_spa,3.2.4,Win32,60,55ipnc9w0h32nce29jf2079jf0jf,,1,0,80,78,1,79
,,,,,,,,,,,,,,,,,,,,,,,,,,,,,,,,,,,h,5.28399992,H,TRUE,,,,,,,188,xocolata,Catalan,Sounds/cat_xocolata.mp3,2020-06-19_14h04.01.378,TranslationElicitation_spa,3.2.4,Win32,60,55ipnc9w0h32nce29jf2079jf0jf,,1,0,80,78,1,79
,,,,,,,,,,,,,,,,,,,,,,,,,,,,,,,,,,,c,5.983999968,HC,TRUE,,,,,,,188,xocolata,Catalan,Sounds/cat_xocolata.mp3,2020-06-19_14h04.01.378,TranslationElicitation_spa,3.2.4,Win32,60,55ipnc9w0h32nce29jf2079jf0jf,,1,0,80,78,1,79
,,,,,,,,,,,,,,,,,,,,,,,,,,,,,,,,,,,backspace,6.367999792,,TRUE,,,,,,,188,xocolata,Catalan,Sounds/cat_xocolata.mp3,2020-06-19_14h04.01.378,TranslationElicitation_spa,3.2.4,Win32,60,55ipnc9w0h32nce29jf2079jf0jf,,1,0,80,78,1,79
,,,,,,,,,,,,,,,,,,,,,,,,,,,,,,,,,,,backspace,6.517999887,,TRUE,,,,,,,188,xocolata,Catalan,Sounds/cat_xocolata.mp3,2020-06-19_14h04.01.378,TranslationElicitation_spa,3.2.4,Win32,60,55ipnc9w0h32nce29jf2079jf0jf,,1,0,80,78,1,79
,,,,,,,,,,,,,,,,,,,,,,,,,,,,,,,,,,,c,6.667999983,C,TRUE,,,,,,,188,xocolata,Catalan,Sounds/cat_xocolata.mp3,2020-06-19_14h04.01.378,TranslationElicitation_spa,3.2.4,Win32,60,55ipnc9w0h32nce29jf2079jf0jf,,1,0,80,78,1,79
,,,,,,,,,,,,,,,,,,,,,,,,,,,,,,,,,,,h,7.100999832,CH,TRUE,,,,,,,188,xocolata,Catalan,Sounds/cat_xocolata.mp3,2020-06-19_14h04.01.378,TranslationElicitation_spa,3.2.4,Win32,60,55ipnc9w0h32nce29jf2079jf0jf,,1,0,80,78,1,79
,,,,,,,,,,,,,,,,,,,,,,,,,,,,,,,,,,,o,7.301999807,CHO,TRUE,,,,,,,188,xocolata,Catalan,Sounds/cat_xocolata.mp3,2020-06-19_14h04.01.378,TranslationElicitation_spa,3.2.4,Win32,60,55ipnc9w0h32nce29jf2079jf0jf,,1,0,80,78,1,79
,,,,,,,,,,,,,,,,,,,,,,,,,,,,,,,,,,,l,7.56799984,CHOL,TRUE,,,,,,,188,xocolata,Catalan,Sounds/cat_xocolata.mp3,2020-06-19_14h04.01.378,TranslationElicitation_spa,3.2.4,Win32,60,55ipnc9w0h32nce29jf2079jf0jf,,1,0,80,78,1,79
,,,,,,,,,,,,,,,,,,,,,,,,,,,,,,,,,,,backspace,7.953999996,CH,TRUE,,,,,,,188,xocolata,Catalan,Sounds/cat_xocolata.mp3,2020-06-19_14h04.01.378,TranslationElicitation_spa,3.2.4,Win32,60,55ipnc9w0h32nce29jf2079jf0jf,,1,0,80,78,1,79
,,,,,,,,,,,,,,,,,,,,,,,,,,,,,,,,,,,c,8.335999966,CHC,TRUE,,,,,,,188,xocolata,Catalan,Sounds/cat_xocolata.mp3,2020-06-19_14h04.01.378,TranslationElicitation_spa,3.2.4,Win32,60,55ipnc9w0h32nce29jf2079jf0jf,,1,0,80,78,1,79
,,,,,,,,,,,,,,,,,,,,,,,,,,,,,,,,,,,backspace,8.868999958,C,TRUE,,,,,,,188,xocolata,Catalan,Sounds/cat_xocolata.mp3,2020-06-19_14h04.01.378,TranslationElicitation_spa,3.2.4,Win32,60,55ipnc9w0h32nce29jf2079jf0jf,,1,0,80,78,1,79
,,,,,,,,,,,,,,,,,,,,,,,,,,,,,,,,,,,h,9.753000021,CH,TRUE,,,,,,,188,xocolata,Catalan,Sounds/cat_xocolata.mp3,2020-06-19_14h04.01.378,TranslationElicitation_spa,3.2.4,Win32,60,55ipnc9w0h32nce29jf2079jf0jf,,1,0,80,78,1,79
,,,,,,,,,,,,,,,,,,,,,,,,,,,,,,,,,,,o,9.970000029,CHO,TRUE,,,,,,,188,xocolata,Catalan,Sounds/cat_xocolata.mp3,2020-06-19_14h04.01.378,TranslationElicitation_spa,3.2.4,Win32,60,55ipnc9w0h32nce29jf2079jf0jf,,1,0,80,78,1,79
,,,,,,,,,,,,,,,,,,,,,,,,,,,,,,,,,,,c,10.20299983,CHOC,TRUE,,,,,,,188,xocolata,Catalan,Sounds/cat_xocolata.mp3,2020-06-19_14h04.01.378,TranslationElicitation_spa,3.2.4,Win32,60,55ipnc9w0h32nce29jf2079jf0jf,,1,0,80,78,1,79
,,,,,,,,,,,,,,,,,,,,,,,,,,,,,,,,,,,o,10.33599997,CHOCO,TRUE,,,,,,,188,xocolata,Catalan,Sounds/cat_xocolata.mp3,2020-06-19_14h04.01.378,TranslationElicitation_spa,3.2.4,Win32,60,55ipnc9w0h32nce29jf2079jf0jf,,1,0,80,78,1,79
,,,,,,,,,,,,,,,,,,,,,,,,,,,,,,,,,,,l,10.53600001,CHOCOL,TRUE,,,,,,,188,xocolata,Catalan,Sounds/cat_xocolata.mp3,2020-06-19_14h04.01.378,TranslationElicitation_spa,3.2.4,Win32,60,55ipnc9w0h32nce29jf2079jf0jf,,1,0,80,78,1,79
,,,,,,,,,,,,,,,,,,,,,,,,,,,,,,,,,,,a,10.81999993,CHOCOLA,TRUE,,,,,,,188,xocolata,Catalan,Sounds/cat_xocolata.mp3,2020-06-19_14h04.01.378,TranslationElicitation_spa,3.2.4,Win32,60,55ipnc9w0h32nce29jf2079jf0jf,,1,0,80,78,1,79
,,,,,,,,,,,,,,,,,,,,,,,,,,,,,,,,,,,t,11.01999998,CHOCOLAT,TRUE,,,,,,,188,xocolata,Catalan,Sounds/cat_xocolata.mp3,2020-06-19_14h04.01.378,TranslationElicitation_spa,3.2.4,Win32,60,55ipnc9w0h32nce29jf2079jf0jf,,1,0,80,78,1,79
,,,,,,,,,,,,,,,,,,,,,,,,,,,,,,,,,,,e,11.11999989,CHOCOLATE,TRUE,,,,,,,188,xocolata,Catalan,Sounds/cat_xocolata.mp3,2020-06-19_14h04.01.378,TranslationElicitation_spa,3.2.4,Win32,60,55ipnc9w0h32nce29jf2079jf0jf,,1,0,80,78,1,79
,,,,,,,,,,,,,,,,,,,,,,,,,,,,,,,,,,,return,11.61999989,,TRUE,,,,,,,188,xocolata,Catalan,Sounds/cat_xocolata.mp3,2020-06-19_14h04.01.378,TranslationElicitation_spa,3.2.4,Win32,60,55ipnc9w0h32nce29jf2079jf0jf,11.61999989,1,0,80,78,1,79
,,,,,,,,,,,,,,,,,,,,,,,,,,,,,,,,,,,,,,,,,,,,,188,xocolata,Catalan,Sounds/cat_xocolata.mp3,2020-06-19_14h04.01.378,TranslationElicitation_spa,3.2.4,Win32,60,55ipnc9w0h32nce29jf2079jf0jf,,1,0,80,78,1,79
,,,,,,,,,,,,,,,,,,,,,,,,,,,,,,,,,,,g,1.968000174,G,FALSE,,,,,,,175,raspall,Catalan,Sounds/cat_raspall.mp3,2020-06-19_14h04.01.378,TranslationElicitation_spa,3.2.4,Win32,60,55ipnc9w0h32nce29jf2079jf0jf,,1,0,80,67,1,79
,,,,,,,,,,,,,,,,,,,,,,,,,,,,,,,,,,,a,2.319000006,GA,FALSE,,,,,,,175,raspall,Catalan,Sounds/cat_raspall.mp3,2020-06-19_14h04.01.378,TranslationElicitation_spa,3.2.4,Win32,60,55ipnc9w0h32nce29jf2079jf0jf,,1,0,80,67,1,79
,,,,,,,,,,,,,,,,,,,,,,,,,,,,,,,,,,,s,2.618999958,GAS,FALSE,,,,,,,175,raspall,Catalan,Sounds/cat_raspall.mp3,2020-06-19_14h04.01.378,TranslationElicitation_spa,3.2.4,Win32,60,55ipnc9w0h32nce29jf2079jf0jf,,1,0,80,67,1,79
,,,,,,,,,,,,,,,,,,,,,,,,,,,,,,,,,,,backspace,3.788000107,G,TRUE,,,,,,,175,raspall,Catalan,Sounds/cat_raspall.mp3,2020-06-19_14h04.01.378,TranslationElicitation_spa,3.2.4,Win32,60,55ipnc9w0h32nce29jf2079jf0jf,,1,0,80,67,1,79
,,,,,,,,,,,,,,,,,,,,,,,,,,,,,,,,,,,z,3.886000156,GZ,TRUE,,,,,,,175,raspall,Catalan,Sounds/cat_raspall.mp3,2020-06-19_14h04.01.378,TranslationElicitation_spa,3.2.4,Win32,60,55ipnc9w0h32nce29jf2079jf0jf,,1,0,80,67,1,79
,,,,,,,,,,,,,,,,,,,,,,,,,,,,,,,,,,,backspace,4.386000156,,TRUE,,,,,,,175,raspall,Catalan,Sounds/cat_raspall.mp3,2020-06-19_14h04.01.378,TranslationElicitation_spa,3.2.4,Win32,60,55ipnc9w0h32nce29jf2079jf0jf,,1,0,80,67,1,79
,,,,,,,,,,,,,,,,,,,,,,,,,,,,,,,,,,,a,4.554000139,A,TRUE,,,,,,,175,raspall,Catalan,Sounds/cat_raspall.mp3,2020-06-19_14h04.01.378,TranslationElicitation_spa,3.2.4,Win32,60,55ipnc9w0h32nce29jf2079jf0jf,,1,0,80,67,1,79
,,,,,,,,,,,,,,,,,,,,,,,,,,,,,,,,,,,backspace,7.195000172,,TRUE,,,,,,,175,raspall,Catalan,Sounds/cat_raspall.mp3,2020-06-19_14h04.01.378,TranslationElicitation_spa,3.2.4,Win32,60,55ipnc9w0h32nce29jf2079jf0jf,,1,0,80,67,1,79
,,,,,,,,,,,,,,,,,,,,,,,,,,,,,,,,,,,g,8.304000139,G,TRUE,,,,,,,175,raspall,Catalan,Sounds/cat_raspall.mp3,2020-06-19_14h04.01.378,TranslationElicitation_spa,3.2.4,Win32,60,55ipnc9w0h32nce29jf2079jf0jf,,1,0,80,67,1,79
,,,,,,,,,,,,,,,,,,,,,,,,,,,,,,,,,,,a,8.470999956,GA,TRUE,,,,,,,175,raspall,Catalan,Sounds/cat_raspall.mp3,2020-06-19_14h04.01.378,TranslationElicitation_spa,3.2.4,Win32,60,55ipnc9w0h32nce29jf2079jf0jf,,1,0,80,67,1,79
,,,,,,,,,,,,,,,,,,,,,,,,,,,,,,,,,,,z,8.638000011,GAZ,TRUE,,,,,,,175,raspall,Catalan,Sounds/cat_raspall.mp3,2020-06-19_14h04.01.378,TranslationElicitation_spa,3.2.4,Win32,60,55ipnc9w0h32nce29jf2079jf0jf,,1,0,80,67,1,79
,,,,,,,,,,,,,,,,,,,,,,,,,,,,,,,,,,,p,9.238000154,GAZP,TRUE,,,,,,,175,raspall,Catalan,Sounds/cat_raspall.mp3,2020-06-19_14h04.01.378,TranslationElicitation_spa,3.2.4,Win32,60,55ipnc9w0h32nce29jf2079jf0jf,,1,0,80,67,1,79
,,,,,,,,,,,,,,,,,,,,,,,,,,,,,,,,,,,a,9.321000099,GAZPA,TRUE,,,,,,,175,raspall,Catalan,Sounds/cat_raspall.mp3,2020-06-19_14h04.01.378,TranslationElicitation_spa,3.2.4,Win32,60,55ipnc9w0h32nce29jf2079jf0jf,,1,0,80,67,1,79
,,,,,,,,,,,,,,,,,,,,,,,,,,,,,,,,,,,c,9.555000067,GAZPAC,TRUE,,,,,,,175,raspall,Catalan,Sounds/cat_raspall.mp3,2020-06-19_14h04.01.378,TranslationElicitation_spa,3.2.4,Win32,60,55ipnc9w0h32nce29jf2079jf0jf,,1,0,80,67,1,79
,,,,,,,,,,,,,,,,,,,,,,,,,,,,,,,,,,,h,9.67200017,GAZPACH,TRUE,,,,,,,175,raspall,Catalan,Sounds/cat_raspall.mp3,2020-06-19_14h04.01.378,TranslationElicitation_spa,3.2.4,Win32,60,55ipnc9w0h32nce29jf2079jf0jf,,1,0,80,67,1,79
,,,,,,,,,,,,,,,,,,,,,,,,,,,,,,,,,,,o,9.789000034,GAZPACHO,TRUE,,,,,,,175,raspall,Catalan,Sounds/cat_raspall.mp3,2020-06-19_14h04.01.378,TranslationElicitation_spa,3.2.4,Win32,60,55ipnc9w0h32nce29jf2079jf0jf,,1,0,80,67,1,79
,,,,,,,,,,,,,,,,,,,,,,,,,,,,,,,,,,,return,10.37199998,,TRUE,,,,,,,175,raspall,Catalan,Sounds/cat_raspall.mp3,2020-06-19_14h04.01.378,TranslationElicitation_spa,3.2.4,Win32,60,55ipnc9w0h32nce29jf2079jf0jf,10.37199998,1,0,80,67,1,79
,,,,,,,,,,,,,,,,,,,,,,,,,,,,,,,,,,,,,,,,,,,,,175,raspall,Catalan,Sounds/cat_raspall.mp3,2020-06-19_14h04.01.378,TranslationElicitation_spa,3.2.4,Win32,60,55ipnc9w0h32nce29jf2079jf0jf,,1,0,80,67,1,79
,,,,,,,,,,,,,,,,,,,,,,,,,,,,,,,,,,,a,3.424999952,A,FALSE,,,,,,,104,abella,Catalan,Sounds/cat_abella.mp3,2020-06-19_14h04.01.378,TranslationElicitation_spa,3.2.4,Win32,60,55ipnc9w0h32nce29jf2079jf0jf,,1,0,80,0,1,79
,,,,,,,,,,,,,,,,,,,,,,,,,,,,,,,,,,,v,3.774999857,AV,FALSE,,,,,,,104,abella,Catalan,Sounds/cat_abella.mp3,2020-06-19_14h04.01.378,TranslationElicitation_spa,3.2.4,Win32,60,55ipnc9w0h32nce29jf2079jf0jf,,1,0,80,0,1,79
,,,,,,,,,,,,,,,,,,,,,,,,,,,,,,,,,,,e,3.957999945,AVE,FALSE,,,,,,,104,abella,Catalan,Sounds/cat_abella.mp3,2020-06-19_14h04.01.378,TranslationElicitation_spa,3.2.4,Win32,60,55ipnc9w0h32nce29jf2079jf0jf,,1,0,80,0,1,79
,,,,,,,,,,,,,,,,,,,,,,,,,,,,,,,,,,,l,4.476999998,AVEL,FALSE,,,,,,,104,abella,Catalan,Sounds/cat_abella.mp3,2020-06-19_14h04.01.378,TranslationElicitation_spa,3.2.4,Win32,60,55ipnc9w0h32nce29jf2079jf0jf,,1,0,80,0,1,79
,,,,,,,,,,,,,,,,,,,,,,,,,,,,,,,,,,,l,4.625,AVELL,FALSE,,,,,,,104,abella,Catalan,Sounds/cat_abella.mp3,2020-06-19_14h04.01.378,TranslationElicitation_spa,3.2.4,Win32,60,55ipnc9w0h32nce29jf2079jf0jf,,1,0,80,0,1,79
,,,,,,,,,,,,,,,,,,,,,,,,,,,,,,,,,,,a,4.774999857,AVELLA,FALSE,,,,,,,104,abella,Catalan,Sounds/cat_abella.mp3,2020-06-19_14h04.01.378,TranslationElicitation_spa,3.2.4,Win32,60,55ipnc9w0h32nce29jf2079jf0jf,,1,0,80,0,1,79
,,,,,,,,,,,,,,,,,,,,,,,,,,,,,,,,,,,n,4.92599988,AVELLAN,FALSE,,,,,,,104,abella,Catalan,Sounds/cat_abella.mp3,2020-06-19_14h04.01.378,TranslationElicitation_spa,3.2.4,Win32,60,55ipnc9w0h32nce29jf2079jf0jf,,1,0,80,0,1,79
,,,,,,,,,,,,,,,,,,,,,,,,,,,,,,,,,,,a,5.092999935,AVELLANA,FALSE,,,,,,,104,abella,Catalan,Sounds/cat_abella.mp3,2020-06-19_14h04.01.378,TranslationElicitation_spa,3.2.4,Win32,60,55ipnc9w0h32nce29jf2079jf0jf,,1,0,80,0,1,79
,,,,,,,,,,,,,,,,,,,,,,,,,,,,,,,,,,,return,5.592000008,,FALSE,,,,,,,104,abella,Catalan,Sounds/cat_abella.mp3,2020-06-19_14h04.01.378,TranslationElicitation_spa,3.2.4,Win32,60,55ipnc9w0h32nce29jf2079jf0jf,5.592000008,1,0,80,0,1,79
,,,,,,,,,,,,,,,,,,,,,,,,,,,,,,,,,,,,,,,,,,,,,104,abella,Catalan,Sounds/cat_abella.mp3,2020-06-19_14h04.01.378,TranslationElicitation_spa,3.2.4,Win32,60,55ipnc9w0h32nce29jf2079jf0jf,,1,0,80,0,1,79
,,,,,,,,,,,,,,,,,,,,,,,,,,,,,,,,,,,e,2.016000032,E,FALSE,,,,,,,132,estrella,Catalan,Sounds/cat_estrella.mp3,2020-06-19_14h04.01.378,TranslationElicitation_spa,3.2.4,Win32,60,55ipnc9w0h32nce29jf2079jf0jf,,1,0,80,27,1,79
,,,,,,,,,,,,,,,,,,,,,,,,,,,,,,,,,,,s,2.19900012,ES,FALSE,,,,,,,132,estrella,Catalan,Sounds/cat_estrella.mp3,2020-06-19_14h04.01.378,TranslationElicitation_spa,3.2.4,Win32,60,55ipnc9w0h32nce29jf2079jf0jf,,1,0,80,27,1,79
,,,,,,,,,,,,,,,,,,,,,,,,,,,,,,,,,,,t,2.351999998,EST,FALSE,,,,,,,132,estrella,Catalan,Sounds/cat_estrella.mp3,2020-06-19_14h04.01.378,TranslationElicitation_spa,3.2.4,Win32,60,55ipnc9w0h32nce29jf2079jf0jf,,1,0,80,27,1,79
,,,,,,,,,,,,,,,,,,,,,,,,,,,,,,,,,,,r,2.48300004,ESTR,FALSE,,,,,,,132,estrella,Catalan,Sounds/cat_estrella.mp3,2020-06-19_14h04.01.378,TranslationElicitation_spa,3.2.4,Win32,60,55ipnc9w0h32nce29jf2079jf0jf,,1,0,80,27,1,79
,,,,,,,,,,,,,,,,,,,,,,,,,,,,,,,,,,,e,2.583000183,ESTRE,FALSE,,,,,,,132,estrella,Catalan,Sounds/cat_estrella.mp3,2020-06-19_14h04.01.378,TranslationElicitation_spa,3.2.4,Win32,60,55ipnc9w0h32nce29jf2079jf0jf,,1,0,80,27,1,79
,,,,,,,,,,,,,,,,,,,,,,,,,,,,,,,,,,,l,2.976000071,ESTREL,FALSE,,,,,,,132,estrella,Catalan,Sounds/cat_estrella.mp3,2020-06-19_14h04.01.378,TranslationElicitation_spa,3.2.4,Win32,60,55ipnc9w0h32nce29jf2079jf0jf,,1,0,80,27,1,79
,,,,,,,,,,,,,,,,,,,,,,,,,,,,,,,,,,,l,3.065999985,ESTRELL,FALSE,,,,,,,132,estrella,Catalan,Sounds/cat_estrella.mp3,2020-06-19_14h04.01.378,TranslationElicitation_spa,3.2.4,Win32,60,55ipnc9w0h32nce29jf2079jf0jf,,1,0,80,27,1,79
,,,,,,,,,,,,,,,,,,,,,,,,,,,,,,,,,,,a,3.150000095,ESTRELLA,FALSE,,,,,,,132,estrella,Catalan,Sounds/cat_estrella.mp3,2020-06-19_14h04.01.378,TranslationElicitation_spa,3.2.4,Win32,60,55ipnc9w0h32nce29jf2079jf0jf,,1,0,80,27,1,79
,,,,,,,,,,,,,,,,,,,,,,,,,,,,,,,,,,,return,3.534000158,,FALSE,,,,,,,132,estrella,Catalan,Sounds/cat_estrella.mp3,2020-06-19_14h04.01.378,TranslationElicitation_spa,3.2.4,Win32,60,55ipnc9w0h32nce29jf2079jf0jf,3.534000158,1,0,80,27,1,79
,,,,,,,,,,,,,,,,,,,,,,,,,,,,,,,,,,,,,,,,,,,,,132,estrella,Catalan,Sounds/cat_estrella.mp3,2020-06-19_14h04.01.378,TranslationElicitation_spa,3.2.4,Win32,60,55ipnc9w0h32nce29jf2079jf0jf,,1,0,80,27,1,79
,,,,,,,,,,,,,,,,,,,,,,,,,,,,,,,,,,,f,1.098999977,F,FALSE,,,,,,,134,flor,Catalan,Sounds/cat_flor.mp3,2020-06-19_14h04.01.378,TranslationElicitation_spa,3.2.4,Win32,60,55ipnc9w0h32nce29jf2079jf0jf,,1,0,80,29,1,79
,,,,,,,,,,,,,,,,,,,,,,,,,,,,,,,,,,,l,1.315000057,FL,FALSE,,,,,,,134,flor,Catalan,Sounds/cat_flor.mp3,2020-06-19_14h04.01.378,TranslationElicitation_spa,3.2.4,Win32,60,55ipnc9w0h32nce29jf2079jf0jf,,1,0,80,29,1,79
,,,,,,,,,,,,,,,,,,,,,,,,,,,,,,,,,,,o,1.414999962,FLO,FALSE,,,,,,,134,flor,Catalan,Sounds/cat_flor.mp3,2020-06-19_14h04.01.378,TranslationElicitation_spa,3.2.4,Win32,60,55ipnc9w0h32nce29jf2079jf0jf,,1,0,80,29,1,79
,,,,,,,,,,,,,,,,,,,,,,,,,,,,,,,,,,,r,1.532000065,FLOR,FALSE,,,,,,,134,flor,Catalan,Sounds/cat_flor.mp3,2020-06-19_14h04.01.378,TranslationElicitation_spa,3.2.4,Win32,60,55ipnc9w0h32nce29jf2079jf0jf,,1,0,80,29,1,79
,,,,,,,,,,,,,,,,,,,,,,,,,,,,,,,,,,,return,2.048000097,,FALSE,,,,,,,134,flor,Catalan,Sounds/cat_flor.mp3,2020-06-19_14h04.01.378,TranslationElicitation_spa,3.2.4,Win32,60,55ipnc9w0h32nce29jf2079jf0jf,2.048000097,1,0,80,29,1,79
,,,,,,,,,,,,,,,,,,,,,,,,,,,,,,,,,,,,,,,,,,,,,134,flor,Catalan,Sounds/cat_flor.mp3,2020-06-19_14h04.01.378,TranslationElicitation_spa,3.2.4,Win32,60,55ipnc9w0h32nce29jf2079jf0jf,,1,0,80,29,1,79
,,,,,,,,,,,,,,,,,,,,,,,,,,,,,,,,,,,g,1.648999929,G,FALSE,,,,,,,140,gat,Catalan,Sounds/cat_gat.mp3,2020-06-19_14h04.01.378,TranslationElicitation_spa,3.2.4,Win32,60,55ipnc9w0h32nce29jf2079jf0jf,,1,0,80,35,1,79
,,,,,,,,,,,,,,,,,,,,,,,,,,,,,,,,,,,a,1.815999985,GA,FALSE,,,,,,,140,gat,Catalan,Sounds/cat_gat.mp3,2020-06-19_14h04.01.378,TranslationElicitation_spa,3.2.4,Win32,60,55ipnc9w0h32nce29jf2079jf0jf,,1,0,80,35,1,79
,,,,,,,,,,,,,,,,,,,,,,,,,,,,,,,,,,,t,2.049000025,GAT,FALSE,,,,,,,140,gat,Catalan,Sounds/cat_gat.mp3,2020-06-19_14h04.01.378,TranslationElicitation_spa,3.2.4,Win32,60,55ipnc9w0h32nce29jf2079jf0jf,,1,0,80,35,1,79
,,,,,,,,,,,,,,,,,,,,,,,,,,,,,,,,,,,o,2.715999842,GATO,FALSE,,,,,,,140,gat,Catalan,Sounds/cat_gat.mp3,2020-06-19_14h04.01.378,TranslationElicitation_spa,3.2.4,Win32,60,55ipnc9w0h32nce29jf2079jf0jf,,1,0,80,35,1,79
,,,,,,,,,,,,,,,,,,,,,,,,,,,,,,,,,,,return,3.165999889,,FALSE,,,,,,,140,gat,Catalan,Sounds/cat_gat.mp3,2020-06-19_14h04.01.378,TranslationElicitation_spa,3.2.4,Win32,60,55ipnc9w0h32nce29jf2079jf0jf,3.165999889,1,0,80,35,1,79
,,,,,,,,,,,,,,,,,,,,,,,,,,,,,,,,,,,,,,,,,,,,,140,gat,Catalan,Sounds/cat_gat.mp3,2020-06-19_14h04.01.378,TranslationElicitation_spa,3.2.4,Win32,60,55ipnc9w0h32nce29jf2079jf0jf,,1,0,80,35,1,79
,,,,,,,,,,,,,,,,,,,,,,,,,,,,,,,,,,,f,1.799000025,F,FALSE,,,,,,,137,fulla,Catalan,Sounds/cat_fulla.mp3,2020-06-19_14h04.01.378,TranslationElicitation_spa,3.2.4,Win32,60,55ipnc9w0h32nce29jf2079jf0jf,,1,0,80,32,1,79
,,,,,,,,,,,,,,,,,,,,,,,,,,,,,,,,,,,u,1.931999922,FU,FALSE,,,,,,,137,fulla,Catalan,Sounds/cat_fulla.mp3,2020-06-19_14h04.01.378,TranslationElicitation_spa,3.2.4,Win32,60,55ipnc9w0h32nce29jf2079jf0jf,,1,0,80,32,1,79
,,,,,,,,,,,,,,,,,,,,,,,,,,,,,,,,,,,r,2.082000017,FUR,FALSE,,,,,,,137,fulla,Catalan,Sounds/cat_fulla.mp3,2020-06-19_14h04.01.378,TranslationElicitation_spa,3.2.4,Win32,60,55ipnc9w0h32nce29jf2079jf0jf,,1,0,80,32,1,79
,,,,,,,,,,,,,,,,,,,,,,,,,,,,,,,,,,,i,2.23300004,FURI,FALSE,,,,,,,137,fulla,Catalan,Sounds/cat_fulla.mp3,2020-06-19_14h04.01.378,TranslationElicitation_spa,3.2.4,Win32,60,55ipnc9w0h32nce29jf2079jf0jf,,1,0,80,32,1,79
,,,,,,,,,,,,,,,,,,,,,,,,,,,,,,,,,,,a,2.465999842,FURIA,FALSE,,,,,,,137,fulla,Catalan,Sounds/cat_fulla.mp3,2020-06-19_14h04.01.378,TranslationElicitation_spa,3.2.4,Win32,60,55ipnc9w0h32nce29jf2079jf0jf,,1,0,80,32,1,79
,,,,,,,,,,,,,,,,,,,,,,,,,,,,,,,,,,,return,2.815999985,,FALSE,,,,,,,137,fulla,Catalan,Sounds/cat_fulla.mp3,2020-06-19_14h04.01.378,TranslationElicitation_spa,3.2.4,Win32,60,55ipnc9w0h32nce29jf2079jf0jf,2.815999985,1,0,80,32,1,79
,,,,,,,,,,,,,,,,,,,,,,,,,,,,,,,,,,,,,,,,,,,,,137,fulla,Catalan,Sounds/cat_fulla.mp3,2020-06-19_14h04.01.378,TranslationElicitation_spa,3.2.4,Win32,60,55ipnc9w0h32nce29jf2079jf0jf,,1,0,80,32,1,79
,,,,,,,,,,,,,,,,,,,,,,,,,,,,,,,,,,,p,2.915999889,P,FALSE,,,,,,,128,cuc,Catalan,Sounds/cat_cuc.mp3,2020-06-19_14h04.01.378,TranslationElicitation_spa,3.2.4,Win32,60,55ipnc9w0h32nce29jf2079jf0jf,,1,0,80,23,1,79
,,,,,,,,,,,,,,,,,,,,,,,,,,,,,,,,,,,a,3.049999952,PA,FALSE,,,,,,,128,cuc,Catalan,Sounds/cat_cuc.mp3,2020-06-19_14h04.01.378,TranslationElicitation_spa,3.2.4,Win32,60,55ipnc9w0h32nce29jf2079jf0jf,,1,0,80,23,1,79
,,,,,,,,,,,,,,,,,,,,,,,,,,,,,,,,,,,s,3.182999849,PAS,FALSE,,,,,,,128,cuc,Catalan,Sounds/cat_cuc.mp3,2020-06-19_14h04.01.378,TranslationElicitation_spa,3.2.4,Win32,60,55ipnc9w0h32nce29jf2079jf0jf,,1,0,80,23,1,79
,,,,,,,,,,,,,,,,,,,,,,,,,,,,,,,,,,,t,3.348999977,PAST,FALSE,,,,,,,128,cuc,Catalan,Sounds/cat_cuc.mp3,2020-06-19_14h04.01.378,TranslationElicitation_spa,3.2.4,Win32,60,55ipnc9w0h32nce29jf2079jf0jf,,1,0,80,23,1,79
,,,,,,,,,,,,,,,,,,,,,,,,,,,,,,,,,,,e,3.465999842,PASTE,FALSE,,,,,,,128,cuc,Catalan,Sounds/cat_cuc.mp3,2020-06-19_14h04.01.378,TranslationElicitation_spa,3.2.4,Win32,60,55ipnc9w0h32nce29jf2079jf0jf,,1,0,80,23,1,79
,,,,,,,,,,,,,,,,,,,,,,,,,,,,,,,,,,,l,3.899999857,PASTEL,FALSE,,,,,,,128,cuc,Catalan,Sounds/cat_cuc.mp3,2020-06-19_14h04.01.378,TranslationElicitation_spa,3.2.4,Win32,60,55ipnc9w0h32nce29jf2079jf0jf,,1,0,80,23,1,79
,,,,,,,,,,,,,,,,,,,,,,,,,,,,,,,,,,,return,4.349999905,,FALSE,,,,,,,128,cuc,Catalan,Sounds/cat_cuc.mp3,2020-06-19_14h04.01.378,TranslationElicitation_spa,3.2.4,Win32,60,55ipnc9w0h32nce29jf2079jf0jf,4.349999905,1,0,80,23,1,79
,,,,,,,,,,,,,,,,,,,,,,,,,,,,,,,,,,,,,,,,,,,,,128,cuc,Catalan,Sounds/cat_cuc.mp3,2020-06-19_14h04.01.378,TranslationElicitation_spa,3.2.4,Win32,60,55ipnc9w0h32nce29jf2079jf0jf,,1,0,80,23,1,79
,,,,,,,,,,,,,,,,,,,,,,,,,,,,,,,,,,,b,1.698999882,B,FALSE,,,,,,,117,boto,Catalan,Sounds/cat_boto.mp3,2020-06-19_14h04.01.378,TranslationElicitation_spa,3.2.4,Win32,60,55ipnc9w0h32nce29jf2079jf0jf,,1,0,80,12,1,79
,,,,,,,,,,,,,,,,,,,,,,,,,,,,,,,,,,,o,1.965999842,BO,FALSE,,,,,,,117,boto,Catalan,Sounds/cat_boto.mp3,2020-06-19_14h04.01.378,TranslationElicitation_spa,3.2.4,Win32,60,55ipnc9w0h32nce29jf2079jf0jf,,1,0,80,12,1,79
,,,,,,,,,,,,,,,,,,,,,,,,,,,,,,,,,,,t,2.131999969,BOT,FALSE,,,,,,,117,boto,Catalan,Sounds/cat_boto.mp3,2020-06-19_14h04.01.378,TranslationElicitation_spa,3.2.4,Win32,60,55ipnc9w0h32nce29jf2079jf0jf,,1,0,80,12,1,79
,,,,,,,,,,,,,,,,,,,,,,,,,,,,,,,,,,,o,2.665999889,BOTO,FALSE,,,,,,,117,boto,Catalan,Sounds/cat_boto.mp3,2020-06-19_14h04.01.378,TranslationElicitation_spa,3.2.4,Win32,60,55ipnc9w0h32nce29jf2079jf0jf,,1,0,80,12,1,79
,,,,,,,,,,,,,,,,,,,,,,,,,,,,,,,,,,,n,2.932999849,BOTON,FALSE,,,,,,,117,boto,Catalan,Sounds/cat_boto.mp3,2020-06-19_14h04.01.378,TranslationElicitation_spa,3.2.4,Win32,60,55ipnc9w0h32nce29jf2079jf0jf,,1,0,80,12,1,79
,,,,,,,,,,,,,,,,,,,,,,,,,,,,,,,,,,,return,3.48300004,,FALSE,,,,,,,117,boto,Catalan,Sounds/cat_boto.mp3,2020-06-19_14h04.01.378,TranslationElicitation_spa,3.2.4,Win32,60,55ipnc9w0h32nce29jf2079jf0jf,3.48300004,1,0,80,12,1,79
,,,,,,,,,,,,,,,,,,,,,,,,,,,,,,,,,,,,,,,,,,,,,117,boto,Catalan,Sounds/cat_boto.mp3,2020-06-19_14h04.01.378,TranslationElicitation_spa,3.2.4,Win32,60,55ipnc9w0h32nce29jf2079jf0jf,,1,0,80,12,1,79
,,,,,,,,,,,,,,,,,,,,,,,,,,,,,,,,,,,r,2.098999977,R,FALSE,,,,,,,131,esponja,Catalan,Sounds/cat_esponja.mp3,2020-06-19_14h04.01.378,TranslationElicitation_spa,3.2.4,Win32,60,55ipnc9w0h32nce29jf2079jf0jf,,1,0,80,26,1,79
,,,,,,,,,,,,,,,,,,,,,,,,,,,,,,,,,,,e,2.247999907,RE,FALSE,,,,,,,131,esponja,Catalan,Sounds/cat_esponja.mp3,2020-06-19_14h04.01.378,TranslationElicitation_spa,3.2.4,Win32,60,55ipnc9w0h32nce29jf2079jf0jf,,1,0,80,26,1,79
,,,,,,,,,,,,,,,,,,,,,,,,,,,,,,,,,,,s,2.381999969,RES,FALSE,,,,,,,131,esponja,Catalan,Sounds/cat_esponja.mp3,2020-06-19_14h04.01.378,TranslationElicitation_spa,3.2.4,Win32,60,55ipnc9w0h32nce29jf2079jf0jf,,1,0,80,26,1,79
,,,,,,,,,,,,,,,,,,,,,,,,,,,,,,,,,,,p,2.548999786,RESP,FALSE,,,,,,,131,esponja,Catalan,Sounds/cat_esponja.mp3,2020-06-19_14h04.01.378,TranslationElicitation_spa,3.2.4,Win32,60,55ipnc9w0h32nce29jf2079jf0jf,,1,0,80,26,1,79
,,,,,,,,,,,,,,,,,,,,,,,,,,,,,,,,,,,u,2.798999786,RESPU,FALSE,,,,,,,131,esponja,Catalan,Sounds/cat_esponja.mp3,2020-06-19_14h04.01.378,TranslationElicitation_spa,3.2.4,Win32,60,55ipnc9w0h32nce29jf2079jf0jf,,1,0,80,26,1,79
,,,,,,,,,,,,,,,,,,,,,,,,,,,,,,,,,,,e,2.915999889,RESPUE,FALSE,,,,,,,131,esponja,Catalan,Sounds/cat_esponja.mp3,2020-06-19_14h04.01.378,TranslationElicitation_spa,3.2.4,Win32,60,55ipnc9w0h32nce29jf2079jf0jf,,1,0,80,26,1,79
,,,,,,,,,,,,,,,,,,,,,,,,,,,,,,,,,,,s,3.099999905,RESPUES,FALSE,,,,,,,131,esponja,Catalan,Sounds/cat_esponja.mp3,2020-06-19_14h04.01.378,TranslationElicitation_spa,3.2.4,Win32,60,55ipnc9w0h32nce29jf2079jf0jf,,1,0,80,26,1,79
,,,,,,,,,,,,,,,,,,,,,,,,,,,,,,,,,,,t,3.131999969,RESPUEST,FALSE,,,,,,,131,esponja,Catalan,Sounds/cat_esponja.mp3,2020-06-19_14h04.01.378,TranslationElicitation_spa,3.2.4,Win32,60,55ipnc9w0h32nce29jf2079jf0jf,,1,0,80,26,1,79
,,,,,,,,,,,,,,,,,,,,,,,,,,,,,,,,,,,a,3.298999786,RESPUESTA,FALSE,,,,,,,131,esponja,Catalan,Sounds/cat_esponja.mp3,2020-06-19_14h04.01.378,TranslationElicitation_spa,3.2.4,Win32,60,55ipnc9w0h32nce29jf2079jf0jf,,1,0,80,26,1,79
,,,,,,,,,,,,,,,,,,,,,,,,,,,,,,,,,,,return,3.698999882,,FALSE,,,,,,,131,esponja,Catalan,Sounds/cat_esponja.mp3,2020-06-19_14h04.01.378,TranslationElicitation_spa,3.2.4,Win32,60,55ipnc9w0h32nce29jf2079jf0jf,3.698999882,1,0,80,26,1,79
,,,,,,,,,,,,,,,,,,,,,,,,,,,,,,,,,,,,,,,,,,,,,131,esponja,Catalan,Sounds/cat_esponja.mp3,2020-06-19_14h04.01.378,TranslationElicitation_spa,3.2.4,Win32,60,55ipnc9w0h32nce29jf2079jf0jf,,1,0,80,26,1,79
,,,,,,,,,,,,,,,,,,,,,,,,,,,,,,,,,,,g,1.932999849,G,FALSE,,,,,,,143,globus,Catalan,Sounds/cat_globus.mp3,2020-06-19_14h04.01.378,TranslationElicitation_spa,3.2.4,Win32,60,55ipnc9w0h32nce29jf2079jf0jf,,1,0,80,38,1,79
,,,,,,,,,,,,,,,,,,,,,,,,,,,,,,,,,,,l,2.082999945,GL,FALSE,,,,,,,143,globus,Catalan,Sounds/cat_globus.mp3,2020-06-19_14h04.01.378,TranslationElicitation_spa,3.2.4,Win32,60,55ipnc9w0h32nce29jf2079jf0jf,,1,0,80,38,1,79
,,,,,,,,,,,,,,,,,,,,,,,,,,,,,,,,,,,o,2.316999912,GLO,FALSE,,,,,,,143,globus,Catalan,Sounds/cat_globus.mp3,2020-06-19_14h04.01.378,TranslationElicitation_spa,3.2.4,Win32,60,55ipnc9w0h32nce29jf2079jf0jf,,1,0,80,38,1,79
,,,,,,,,,,,,,,,,,,,,,,,,,,,,,,,,,,,b,2.532999992,GLOB,FALSE,,,,,,,143,globus,Catalan,Sounds/cat_globus.mp3,2020-06-19_14h04.01.378,TranslationElicitation_spa,3.2.4,Win32,60,55ipnc9w0h32nce29jf2079jf0jf,,1,0,80,38,1,79
,,,,,,,,,,,,,,,,,,,,,,,,,,,,,,,,,,,o,2.618999958,GLOBO,FALSE,,,,,,,143,globus,Catalan,Sounds/cat_globus.mp3,2020-06-19_14h04.01.378,TranslationElicitation_spa,3.2.4,Win32,60,55ipnc9w0h32nce29jf2079jf0jf,,1,0,80,38,1,79
,,,,,,,,,,,,,,,,,,,,,,,,,,,,,,,,,,,return,3.316999912,,FALSE,,,,,,,143,globus,Catalan,Sounds/cat_globus.mp3,2020-06-19_14h04.01.378,TranslationElicitation_spa,3.2.4,Win32,60,55ipnc9w0h32nce29jf2079jf0jf,3.316999912,1,0,80,38,1,79
,,,,,,,,,,,,,,,,,,,,,,,,,,,,,,,,,,,,,,,,,,,,,143,globus,Catalan,Sounds/cat_globus.mp3,2020-06-19_14h04.01.378,TranslationElicitation_spa,3.2.4,Win32,60,55ipnc9w0h32nce29jf2079jf0jf,,1,0,80,38,1,79
,,,,,,,,,,,,,,,,,,,,,,,,,,,,,,,,,,,p,2.013999939,P,FALSE,,,,,,,173,porc,Catalan,Sounds/cat_porc.mp3,2020-06-19_14h04.01.378,TranslationElicitation_spa,3.2.4,Win32,60,55ipnc9w0h32nce29jf2079jf0jf,,1,0,80,65,1,79
,,,,,,,,,,,,,,,,,,,,,,,,,,,,,,,,,,,a,2.164000034,PA,FALSE,,,,,,,173,porc,Catalan,Sounds/cat_porc.mp3,2020-06-19_14h04.01.378,TranslationElicitation_spa,3.2.4,Win32,60,55ipnc9w0h32nce29jf2079jf0jf,,1,0,80,65,1,79
,,,,,,,,,,,,,,,,,,,,,,,,,,,,,,,,,,,r,2.398000002,PAR,FALSE,,,,,,,173,porc,Catalan,Sounds/cat_porc.mp3,2020-06-19_14h04.01.378,TranslationElicitation_spa,3.2.4,Win32,60,55ipnc9w0h32nce29jf2079jf0jf,,1,0,80,65,1,79
,,,,,,,,,,,,,,,,,,,,,,,,,,,,,,,,,,,q,2.548000097,PARQ,FALSE,,,,,,,173,porc,Catalan,Sounds/cat_porc.mp3,2020-06-19_14h04.01.378,TranslationElicitation_spa,3.2.4,Win32,60,55ipnc9w0h32nce29jf2079jf0jf,,1,0,80,65,1,79
,,,,,,,,,,,,,,,,,,,,,,,,,,,,,,,,,,,u,2.963999987,PARQU,FALSE,,,,,,,173,porc,Catalan,Sounds/cat_porc.mp3,2020-06-19_14h04.01.378,TranslationElicitation_spa,3.2.4,Win32,60,55ipnc9w0h32nce29jf2079jf0jf,,1,0,80,65,1,79
,,,,,,,,,,,,,,,,,,,,,,,,,,,,,,,,,,,e,3.032000065,PARQUE,FALSE,,,,,,,173,porc,Catalan,Sounds/cat_porc.mp3,2020-06-19_14h04.01.378,TranslationElicitation_spa,3.2.4,Win32,60,55ipnc9w0h32nce29jf2079jf0jf,,1,0,80,65,1,79
,,,,,,,,,,,,,,,,,,,,,,,,,,,,,,,,,,,return,3.59800005,,FALSE,,,,,,,173,porc,Catalan,Sounds/cat_porc.mp3,2020-06-19_14h04.01.378,TranslationElicitation_spa,3.2.4,Win32,60,55ipnc9w0h32nce29jf2079jf0jf,3.59800005,1,0,80,65,1,79
,,,,,,,,,,,,,,,,,,,,,,,,,,,,,,,,,,,,,,,,,,,,,173,porc,Catalan,Sounds/cat_porc.mp3,2020-06-19_14h04.01.378,TranslationElicitation_spa,3.2.4,Win32,60,55ipnc9w0h32nce29jf2079jf0jf,,1,0,80,65,1,79
,,,,,,,,,,,,,,,,,,,,,,,,,,,,,,,,,,,l,1.650000095,L,FALSE,,,,,,,149,llibre,Catalan,Sounds/cat_llibre.mp3,2020-06-19_14h04.01.378,TranslationElicitation_spa,3.2.4,Win32,60,55ipnc9w0h32nce29jf2079jf0jf,,1,0,80,43,1,79
,,,,,,,,,,,,,,,,,,,,,,,,,,,,,,,,,,,i,2.014999866,LI,FALSE,,,,,,,149,llibre,Catalan,Sounds/cat_llibre.mp3,2020-06-19_14h04.01.378,TranslationElicitation_spa,3.2.4,Win32,60,55ipnc9w0h32nce29jf2079jf0jf,,1,0,80,43,1,79
,,,,,,,,,,,,,,,,,,,,,,,,,,,,,,,,,,,b,2.497999907,LIB,FALSE,,,,,,,149,llibre,Catalan,Sounds/cat_llibre.mp3,2020-06-19_14h04.01.378,TranslationElicitation_spa,3.2.4,Win32,60,55ipnc9w0h32nce29jf2079jf0jf,,1,0,80,43,1,79
,,,,,,,,,,,,,,,,,,,,,,,,,,,,,,,,,,,r,2.615999937,LIBR,FALSE,,,,,,,149,llibre,Catalan,Sounds/cat_llibre.mp3,2020-06-19_14h04.01.378,TranslationElicitation_spa,3.2.4,Win32,60,55ipnc9w0h32nce29jf2079jf0jf,,1,0,80,43,1,79
,,,,,,,,,,,,,,,,,,,,,,,,,,,,,,,,,,,e,2.782000065,LIBRE,FALSE,,,,,,,149,llibre,Catalan,Sounds/cat_llibre.mp3,2020-06-19_14h04.01.378,TranslationElicitation_spa,3.2.4,Win32,60,55ipnc9w0h32nce29jf2079jf0jf,,1,0,80,43,1,79
,,,,,,,,,,,,,,,,,,,,,,,,,,,,,,,,,,,r,3.01699996,LIBRER,FALSE,,,,,,,149,llibre,Catalan,Sounds/cat_llibre.mp3,2020-06-19_14h04.01.378,TranslationElicitation_spa,3.2.4,Win32,60,55ipnc9w0h32nce29jf2079jf0jf,,1,0,80,43,1,79
,,,,,,,,,,,,,,,,,,,,,,,,,,,,,,,,,,,i,3.26699996,LIBRERI,FALSE,,,,,,,149,llibre,Catalan,Sounds/cat_llibre.mp3,2020-06-19_14h04.01.378,TranslationElicitation_spa,3.2.4,Win32,60,55ipnc9w0h32nce29jf2079jf0jf,,1,0,80,43,1,79
,,,,,,,,,,,,,,,,,,,,,,,,,,,,,,,,,,,a,3.448999882,LIBRERIA,FALSE,,,,,,,149,llibre,Catalan,Sounds/cat_llibre.mp3,2020-06-19_14h04.01.378,TranslationElicitation_spa,3.2.4,Win32,60,55ipnc9w0h32nce29jf2079jf0jf,,1,0,80,43,1,79
,,,,,,,,,,,,,,,,,,,,,,,,,,,,,,,,,,,return,4.032999992,,FALSE,,,,,,,149,llibre,Catalan,Sounds/cat_llibre.mp3,2020-06-19_14h04.01.378,TranslationElicitation_spa,3.2.4,Win32,60,55ipnc9w0h32nce29jf2079jf0jf,4.032000065,1,0,80,43,1,79
,,,,,,,,,,,,,,,,,,,,,,,,,,,,,,,,,,,,,,,,,,,,,149,llibre,Catalan,Sounds/cat_llibre.mp3,2020-06-19_14h04.01.378,TranslationElicitation_spa,3.2.4,Win32,60,55ipnc9w0h32nce29jf2079jf0jf,,1,0,80,43,1,79
,,,,,,,,,,,,,,,,,,,,,,,,,,,,,,,,,,,b,2.182999849,B,FALSE,,,,,,,184,ull,Catalan,Sounds/cat_ull.mp3,2020-06-19_14h04.01.378,TranslationElicitation_spa,3.2.4,Win32,60,55ipnc9w0h32nce29jf2079jf0jf,,1,0,80,75,1,79
,,,,,,,,,,,,,,,,,,,,,,,,,,,,,,,,,,,a,2.316999912,BA,FALSE,,,,,,,184,ull,Catalan,Sounds/cat_ull.mp3,2020-06-19_14h04.01.378,TranslationElicitation_spa,3.2.4,Win32,60,55ipnc9w0h32nce29jf2079jf0jf,,1,0,80,75,1,79
,,,,,,,,,,,,,,,,,,,,,,,,,,,,,,,,,,,u,2.398999929,BAU,FALSE,,,,,,,184,ull,Catalan,Sounds/cat_ull.mp3,2020-06-19_14h04.01.378,TranslationElicitation_spa,3.2.4,Win32,60,55ipnc9w0h32nce29jf2079jf0jf,,1,0,80,75,1,79
,,,,,,,,,,,,,,,,,,,,,,,,,,,,,,,,,,,l,2.631999969,BAUL,FALSE,,,,,,,184,ull,Catalan,Sounds/cat_ull.mp3,2020-06-19_14h04.01.378,TranslationElicitation_spa,3.2.4,Win32,60,55ipnc9w0h32nce29jf2079jf0jf,,1,0,80,75,1,79
,,,,,,,,,,,,,,,,,,,,,,,,,,,,,,,,,,,backspace,3.532999992,BA,TRUE,,,,,,,184,ull,Catalan,Sounds/cat_ull.mp3,2020-06-19_14h04.01.378,TranslationElicitation_spa,3.2.4,Win32,60,55ipnc9w0h32nce29jf2079jf0jf,,1,0,80,75,1,79
,,,,,,,,,,,,,,,,,,,,,,,,,,,,,,,,,,,backspace,3.666999817,,TRUE,,,,,,,184,ull,Catalan,Sounds/cat_ull.mp3,2020-06-19_14h04.01.378,TranslationElicitation_spa,3.2.4,Win32,60,55ipnc9w0h32nce29jf2079jf0jf,,1,0,80,75,1,79
,,,,,,,,,,,,,,,,,,,,,,,,,,,,,,,,,,,backspace,3.801999807,,TRUE,,,,,,,184,ull,Catalan,Sounds/cat_ull.mp3,2020-06-19_14h04.01.378,TranslationElicitation_spa,3.2.4,Win32,60,55ipnc9w0h32nce29jf2079jf0jf,,1,0,80,75,1,79
,,,,,,,,,,,,,,,,,,,,,,,,,,,,,,,,,,,backspace,3.915999889,,TRUE,,,,,,,184,ull,Catalan,Sounds/cat_ull.mp3,2020-06-19_14h04.01.378,TranslationElicitation_spa,3.2.4,Win32,60,55ipnc9w0h32nce29jf2079jf0jf,,1,0,80,75,1,79
,,,,,,,,,,,,,,,,,,,,,,,,,,,,,,,,,,,g,4.383999825,G,TRUE,,,,,,,184,ull,Catalan,Sounds/cat_ull.mp3,2020-06-19_14h04.01.378,TranslationElicitation_spa,3.2.4,Win32,60,55ipnc9w0h32nce29jf2079jf0jf,,1,0,80,75,1,79
,,,,,,,,,,,,,,,,,,,,,,,,,,,,,,,,,,,o,4.51699996,GO,TRUE,,,,,,,184,ull,Catalan,Sounds/cat_ull.mp3,2020-06-19_14h04.01.378,TranslationElicitation_spa,3.2.4,Win32,60,55ipnc9w0h32nce29jf2079jf0jf,,1,0,80,75,1,79
,,,,,,,,,,,,,,,,,,,,,,,,,,,,,,,,,,,l,4.652999878,GOL,TRUE,,,,,,,184,ull,Catalan,Sounds/cat_ull.mp3,2020-06-19_14h04.01.378,TranslationElicitation_spa,3.2.4,Win32,60,55ipnc9w0h32nce29jf2079jf0jf,,1,0,80,75,1,79
,,,,,,,,,,,,,,,,,,,,,,,,,,,,,,,,,,,return,5.117999792,,TRUE,,,,,,,184,ull,Catalan,Sounds/cat_ull.mp3,2020-06-19_14h04.01.378,TranslationElicitation_spa,3.2.4,Win32,60,55ipnc9w0h32nce29jf2079jf0jf,5.117999792,1,0,80,75,1,79
,,,,,,,,,,,,,,,,,,,,,,,,,,,,,,,,,,,,,,,,,,,,,184,ull,Catalan,Sounds/cat_ull.mp3,2020-06-19_14h04.01.378,TranslationElicitation_spa,3.2.4,Win32,60,55ipnc9w0h32nce29jf2079jf0jf,,1,0,80,75,1,79
,,,,,,,,,,,,,,,,,,,,,,,,,,,,,,,,,,,m,1.698999882,M,FALSE,,,,,,,156,moto,Catalan,Sounds/cat_moto.mp3,2020-06-19_14h04.01.378,TranslationElicitation_spa,3.2.4,Win32,60,55ipnc9w0h32nce29jf2079jf0jf,,1,0,80,50,1,79
,,,,,,,,,,,,,,,,,,,,,,,,,,,,,,,,,,,o,1.799999952,MO,FALSE,,,,,,,156,moto,Catalan,Sounds/cat_moto.mp3,2020-06-19_14h04.01.378,TranslationElicitation_spa,3.2.4,Win32,60,55ipnc9w0h32nce29jf2079jf0jf,,1,0,80,50,1,79
,,,,,,,,,,,,,,,,,,,,,,,,,,,,,,,,,,,t,1.899999857,MOT,FALSE,,,,,,,156,moto,Catalan,Sounds/cat_moto.mp3,2020-06-19_14h04.01.378,TranslationElicitation_spa,3.2.4,Win32,60,55ipnc9w0h32nce29jf2079jf0jf,,1,0,80,50,1,79
,,,,,,,,,,,,,,,,,,,,,,,,,,,,,,,,,,,o,2.049000025,MOTO,FALSE,,,,,,,156,moto,Catalan,Sounds/cat_moto.mp3,2020-06-19_14h04.01.378,TranslationElicitation_spa,3.2.4,Win32,60,55ipnc9w0h32nce29jf2079jf0jf,,1,0,80,50,1,79
,,,,,,,,,,,,,,,,,,,,,,,,,,,,,,,,,,,return,2.598999977,,FALSE,,,,,,,156,moto,Catalan,Sounds/cat_moto.mp3,2020-06-19_14h04.01.378,TranslationElicitation_spa,3.2.4,Win32,60,55ipnc9w0h32nce29jf2079jf0jf,2.598999977,1,0,80,50,1,79
,,,,,,,,,,,,,,,,,,,,,,,,,,,,,,,,,,,,,,,,,,,,,156,moto,Catalan,Sounds/cat_moto.mp3,2020-06-19_14h04.01.378,TranslationElicitation_spa,3.2.4,Win32,60,55ipnc9w0h32nce29jf2079jf0jf,,1,0,80,50,1,79
,,,,,,,,,,,,,,,,,,,,,,,,,,,,,,,,,,,m,1.350000143,M,FALSE,,,,,,,155,moneda,Catalan,Sounds/cat_moneda.mp3,2020-06-19_14h04.01.378,TranslationElicitation_spa,3.2.4,Win32,60,55ipnc9w0h32nce29jf2079jf0jf,,1,0,80,49,1,79
,,,,,,,,,,,,,,,,,,,,,,,,,,,,,,,,,,,o,1.416000128,MO,FALSE,,,,,,,155,moneda,Catalan,Sounds/cat_moneda.mp3,2020-06-19_14h04.01.378,TranslationElicitation_spa,3.2.4,Win32,60,55ipnc9w0h32nce29jf2079jf0jf,,1,0,80,49,1,79
,,,,,,,,,,,,,,,,,,,,,,,,,,,,,,,,,,,n,1.600000143,MON,FALSE,,,,,,,155,moneda,Catalan,Sounds/cat_moneda.mp3,2020-06-19_14h04.01.378,TranslationElicitation_spa,3.2.4,Win32,60,55ipnc9w0h32nce29jf2079jf0jf,,1,0,80,49,1,79
,,,,,,,,,,,,,,,,,,,,,,,,,,,,,,,,,,,e,1.700000048,MONE,FALSE,,,,,,,155,moneda,Catalan,Sounds/cat_moneda.mp3,2020-06-19_14h04.01.378,TranslationElicitation_spa,3.2.4,Win32,60,55ipnc9w0h32nce29jf2079jf0jf,,1,0,80,49,1,79
,,,,,,,,,,,,,,,,,,,,,,,,,,,,,,,,,,,d,1.883000135,MONED,FALSE,,,,,,,155,moneda,Catalan,Sounds/cat_moneda.mp3,2020-06-19_14h04.01.378,TranslationElicitation_spa,3.2.4,Win32,60,55ipnc9w0h32nce29jf2079jf0jf,,1,0,80,49,1,79
,,,,,,,,,,,,,,,,,,,,,,,,,,,,,,,,,,,a,2.117000103,MONEDA,FALSE,,,,,,,155,moneda,Catalan,Sounds/cat_moneda.mp3,2020-06-19_14h04.01.378,TranslationElicitation_spa,3.2.4,Win32,60,55ipnc9w0h32nce29jf2079jf0jf,,1,0,80,49,1,79
,,,,,,,,,,,,,,,,,,,,,,,,,,,,,,,,,,,return,2.5,,FALSE,,,,,,,155,moneda,Catalan,Sounds/cat_moneda.mp3,2020-06-19_14h04.01.378,TranslationElicitation_spa,3.2.4,Win32,60,55ipnc9w0h32nce29jf2079jf0jf,2.5,1,0,80,49,1,79
,,,,,,,,,,,,,,,,,,,,,,,,,,,,,,,,,,,,,,,,,,,,,155,moneda,Catalan,Sounds/cat_moneda.mp3,2020-06-19_14h04.01.378,TranslationElicitation_spa,3.2.4,Win32,60,55ipnc9w0h32nce29jf2079jf0jf,,1,0,80,49,1,79
,,,,,,,,,,,,,,,,,,,,,,,,,,,,,,,,,,,b,1.61500001,B,FALSE,,,,,,,112,bici,Catalan,Sounds/cat_bici.mp3,2020-06-19_14h04.01.378,TranslationElicitation_spa,3.2.4,Win32,60,55ipnc9w0h32nce29jf2079jf0jf,,1,0,80,7,1,79
,,,,,,,,,,,,,,,,,,,,,,,,,,,,,,,,,,,i,1.715000153,BI,FALSE,,,,,,,112,bici,Catalan,Sounds/cat_bici.mp3,2020-06-19_14h04.01.378,TranslationElicitation_spa,3.2.4,Win32,60,55ipnc9w0h32nce29jf2079jf0jf,,1,0,80,7,1,79
,,,,,,,,,,,,,,,,,,,,,,,,,,,,,,,,,,,v,1.86500001,BIV,FALSE,,,,,,,112,bici,Catalan,Sounds/cat_bici.mp3,2020-06-19_14h04.01.378,TranslationElicitation_spa,3.2.4,Win32,60,55ipnc9w0h32nce29jf2079jf0jf,,1,0,80,7,1,79
,,,,,,,,,,,,,,,,,,,,,,,,,,,,,,,,,,,i,1.999000072,BIVI,FALSE,,,,,,,112,bici,Catalan,Sounds/cat_bici.mp3,2020-06-19_14h04.01.378,TranslationElicitation_spa,3.2.4,Win32,60,55ipnc9w0h32nce29jf2079jf0jf,,1,0,80,7,1,79
,,,,,,,,,,,,,,,,,,,,,,,,,,,,,,,,,,,backspace,2.516000032,BI,TRUE,,,,,,,112,bici,Catalan,Sounds/cat_bici.mp3,2020-06-19_14h04.01.378,TranslationElicitation_spa,3.2.4,Win32,60,55ipnc9w0h32nce29jf2079jf0jf,,1,0,80,7,1,79
,,,,,,,,,,,,,,,,,,,,,,,,,,,,,,,,,,,backspace,2.676000118,,TRUE,,,,,,,112,bici,Catalan,Sounds/cat_bici.mp3,2020-06-19_14h04.01.378,TranslationElicitation_spa,3.2.4,Win32,60,55ipnc9w0h32nce29jf2079jf0jf,,1,0,80,7,1,79
,,,,,,,,,,,,,,,,,,,,,,,,,,,,,,,,,,,b,3.782999992,B,TRUE,,,,,,,112,bici,Catalan,Sounds/cat_bici.mp3,2020-06-19_14h04.01.378,TranslationElicitation_spa,3.2.4,Win32,60,55ipnc9w0h32nce29jf2079jf0jf,,1,0,80,7,1,79
,,,,,,,,,,,,,,,,,,,,,,,,,,,,,,,,,,,i,3.94900012,BI,TRUE,,,,,,,112,bici,Catalan,Sounds/cat_bici.mp3,2020-06-19_14h04.01.378,TranslationElicitation_spa,3.2.4,Win32,60,55ipnc9w0h32nce29jf2079jf0jf,,1,0,80,7,1,79
,,,,,,,,,,,,,,,,,,,,,,,,,,,,,,,,,,,c,4.315999985,BIC,TRUE,,,,,,,112,bici,Catalan,Sounds/cat_bici.mp3,2020-06-19_14h04.01.378,TranslationElicitation_spa,3.2.4,Win32,60,55ipnc9w0h32nce29jf2079jf0jf,,1,0,80,7,1,79
,,,,,,,,,,,,,,,,,,,,,,,,,,,,,,,,,,,i,4.44900012,BICI,TRUE,,,,,,,112,bici,Catalan,Sounds/cat_bici.mp3,2020-06-19_14h04.01.378,TranslationElicitation_spa,3.2.4,Win32,60,55ipnc9w0h32nce29jf2079jf0jf,,1,0,80,7,1,79
,,,,,,,,,,,,,,,,,,,,,,,,,,,,,,,,,,,c,5.016000032,BICIC,TRUE,,,,,,,112,bici,Catalan,Sounds/cat_bici.mp3,2020-06-19_14h04.01.378,TranslationElicitation_spa,3.2.4,Win32,60,55ipnc9w0h32nce29jf2079jf0jf,,1,0,80,7,1,79
,,,,,,,,,,,,,,,,,,,,,,,,,,,,,,,,,,,l,5.183000088,BICICL,TRUE,,,,,,,112,bici,Catalan,Sounds/cat_bici.mp3,2020-06-19_14h04.01.378,TranslationElicitation_spa,3.2.4,Win32,60,55ipnc9w0h32nce29jf2079jf0jf,,1,0,80,7,1,79
,,,,,,,,,,,,,,,,,,,,,,,,,,,,,,,,,,,e,5.318000078,BICICLE,TRUE,,,,,,,112,bici,Catalan,Sounds/cat_bici.mp3,2020-06-19_14h04.01.378,TranslationElicitation_spa,3.2.4,Win32,60,55ipnc9w0h32nce29jf2079jf0jf,,1,0,80,7,1,79
,,,,,,,,,,,,,,,,,,,,,,,,,,,,,,,,,,,t,5.517000198,BICICLET,TRUE,,,,,,,112,bici,Catalan,Sounds/cat_bici.mp3,2020-06-19_14h04.01.378,TranslationElicitation_spa,3.2.4,Win32,60,55ipnc9w0h32nce29jf2079jf0jf,,1,0,80,7,1,79
,,,,,,,,,,,,,,,,,,,,,,,,,,,,,,,,,,,a,5.633000135,BICICLETA,TRUE,,,,,,,112,bici,Catalan,Sounds/cat_bici.mp3,2020-06-19_14h04.01.378,TranslationElicitation_spa,3.2.4,Win32,60,55ipnc9w0h32nce29jf2079jf0jf,,1,0,80,7,1,79
,,,,,,,,,,,,,,,,,,,,,,,,,,,,,,,,,,,return,6.083000183,,TRUE,,,,,,,112,bici,Catalan,Sounds/cat_bici.mp3,2020-06-19_14h04.01.378,TranslationElicitation_spa,3.2.4,Win32,60,55ipnc9w0h32nce29jf2079jf0jf,6.083000183,1,0,80,7,1,79
,,,,,,,,,,,,,,,,,,,,,,,,,,,,,,,,,,,,,,,,,,,,,112,bici,Catalan,Sounds/cat_bici.mp3,2020-06-19_14h04.01.378,TranslationElicitation_spa,3.2.4,Win32,60,55ipnc9w0h32nce29jf2079jf0jf,,1,0,80,7,1,79
,,,,,,,,,,,,,,,,,,,,,,,,,,,,,,,,,,,g,2.567000151,G,FALSE,,,,,,,145,got,Catalan,Sounds/cat_got.mp3,2020-06-19_14h04.01.378,TranslationElicitation_spa,3.2.4,Win32,60,55ipnc9w0h32nce29jf2079jf0jf,,1,0,80,40,1,79
,,,,,,,,,,,,,,,,,,,,,,,,,,,,,,,,,,,a,2.733999968,GA,FALSE,,,,,,,145,got,Catalan,Sounds/cat_got.mp3,2020-06-19_14h04.01.378,TranslationElicitation_spa,3.2.4,Win32,60,55ipnc9w0h32nce29jf2079jf0jf,,1,0,80,40,1,79
,,,,,,,,,,,,,,,,,,,,,,,,,,,,,,,,,,,t,2.817000151,GAT,FALSE,,,,,,,145,got,Catalan,Sounds/cat_got.mp3,2020-06-19_14h04.01.378,TranslationElicitation_spa,3.2.4,Win32,60,55ipnc9w0h32nce29jf2079jf0jf,,1,0,80,40,1,79
,,,,,,,,,,,,,,,,,,,,,,,,,,,,,,,,,,,o,3.600000143,GATO,FALSE,,,,,,,145,got,Catalan,Sounds/cat_got.mp3,2020-06-19_14h04.01.378,TranslationElicitation_spa,3.2.4,Win32,60,55ipnc9w0h32nce29jf2079jf0jf,,1,0,80,40,1,79
,,,,,,,,,,,,,,,,,,,,,,,,,,,,,,,,,,,return,3.950999975,,FALSE,,,,,,,145,got,Catalan,Sounds/cat_got.mp3,2020-06-19_14h04.01.378,TranslationElicitation_spa,3.2.4,Win32,60,55ipnc9w0h32nce29jf2079jf0jf,3.950999975,1,0,80,40,1,79
,,,,,,,,,,,,,,,,,,,,,,,,,,,,,,,,,,,,,,,,,,,,,145,got,Catalan,Sounds/cat_got.mp3,2020-06-19_14h04.01.378,TranslationElicitation_spa,3.2.4,Win32,60,55ipnc9w0h32nce29jf2079jf0jf,,1,0,80,40,1,79
,,,,,,,,,,,,,,,,,,,,,,,,,,,,,,,,,,,p,1.782000065,P,FALSE,,,,,,,169,plat,Catalan,Sounds/cat_plat.mp3,2020-06-19_14h04.01.378,TranslationElicitation_spa,3.2.4,Win32,60,55ipnc9w0h32nce29jf2079jf0jf,,1,0,80,61,1,79
,,,,,,,,,,,,,,,,,,,,,,,,,,,,,,,,,,,l,1.915999889,PL,FALSE,,,,,,,169,plat,Catalan,Sounds/cat_plat.mp3,2020-06-19_14h04.01.378,TranslationElicitation_spa,3.2.4,Win32,60,55ipnc9w0h32nce29jf2079jf0jf,,1,0,80,61,1,79
,,,,,,,,,,,,,,,,,,,,,,,,,,,,,,,,,,,a,1.96600008,PLA,FALSE,,,,,,,169,plat,Catalan,Sounds/cat_plat.mp3,2020-06-19_14h04.01.378,TranslationElicitation_spa,3.2.4,Win32,60,55ipnc9w0h32nce29jf2079jf0jf,,1,0,80,61,1,79
,,,,,,,,,,,,,,,,,,,,,,,,,,,,,,,,,,,t,2.249000072,PLAT,FALSE,,,,,,,169,plat,Catalan,Sounds/cat_plat.mp3,2020-06-19_14h04.01.378,TranslationElicitation_spa,3.2.4,Win32,60,55ipnc9w0h32nce29jf2079jf0jf,,1,0,80,61,1,79
,,,,,,,,,,,,,,,,,,,,,,,,,,,,,,,,,,,o,2.348999977,PLATO,FALSE,,,,,,,169,plat,Catalan,Sounds/cat_plat.mp3,2020-06-19_14h04.01.378,TranslationElicitation_spa,3.2.4,Win32,60,55ipnc9w0h32nce29jf2079jf0jf,,1,0,80,61,1,79
,,,,,,,,,,,,,,,,,,,,,,,,,,,,,,,,,,,return,2.898999929,,FALSE,,,,,,,169,plat,Catalan,Sounds/cat_plat.mp3,2020-06-19_14h04.01.378,TranslationElicitation_spa,3.2.4,Win32,60,55ipnc9w0h32nce29jf2079jf0jf,2.898999929,1,0,80,61,1,79
,,,,,,,,,,,,,,,,,,,,,,,,,,,,,,,,,,,,,,,,,,,,,169,plat,Catalan,Sounds/cat_plat.mp3,2020-06-19_14h04.01.378,TranslationElicitation_spa,3.2.4,Win32,60,55ipnc9w0h32nce29jf2079jf0jf,,1,0,80,61,1,79
,,,,,,,,,,,,,,,,,,,,,,,,,,,,,,,,,,,t,2.266000032,T,FALSE,,,,,,,183,tren,Catalan,Sounds/cat_tren.mp3,2020-06-19_14h04.01.378,TranslationElicitation_spa,3.2.4,Win32,60,55ipnc9w0h32nce29jf2079jf0jf,,1,0,80,74,1,79
,,,,,,,,,,,,,,,,,,,,,,,,,,,,,,,,,,,r,2.482000113,TR,FALSE,,,,,,,183,tren,Catalan,Sounds/cat_tren.mp3,2020-06-19_14h04.01.378,TranslationElicitation_spa,3.2.4,Win32,60,55ipnc9w0h32nce29jf2079jf0jf,,1,0,80,74,1,79
,,,,,,,,,,,,,,,,,,,,,,,,,,,,,,,,,,,e,2.649000168,TRE,FALSE,,,,,,,183,tren,Catalan,Sounds/cat_tren.mp3,2020-06-19_14h04.01.378,TranslationElicitation_spa,3.2.4,Win32,60,55ipnc9w0h32nce29jf2079jf0jf,,1,0,80,74,1,79
,,,,,,,,,,,,,,,,,,,,,,,,,,,,,,,,,,,n,2.782000065,TREN,FALSE,,,,,,,183,tren,Catalan,Sounds/cat_tren.mp3,2020-06-19_14h04.01.378,TranslationElicitation_spa,3.2.4,Win32,60,55ipnc9w0h32nce29jf2079jf0jf,,1,0,80,74,1,79
,,,,,,,,,,,,,,,,,,,,,,,,,,,,,,,,,,,return,3.300000191,,FALSE,,,,,,,183,tren,Catalan,Sounds/cat_tren.mp3,2020-06-19_14h04.01.378,TranslationElicitation_spa,3.2.4,Win32,60,55ipnc9w0h32nce29jf2079jf0jf,3.299000025,1,0,80,74,1,79
,,,,,,,,,,,,,,,,,,,,,,,,,,,,,,,,,,,,,,,,,,,,,183,tren,Catalan,Sounds/cat_tren.mp3,2020-06-19_14h04.01.378,TranslationElicitation_spa,3.2.4,Win32,60,55ipnc9w0h32nce29jf2079jf0jf,,1,0,80,74,1,79
,,,,,,,,,,,,,,,,,,,,,,,,,,,,,,,,,,,a,2.098999977,A,FALSE,,,,,,,133,estruc,Catalan,Sounds/cat_estruc.mp3,2020-06-19_14h04.01.378,TranslationElicitation_spa,3.2.4,Win32,60,55ipnc9w0h32nce29jf2079jf0jf,,1,0,80,28,1,79
,,,,,,,,,,,,,,,,,,,,,,,,,,,,,,,,,,,s,2.281999826,AS,FALSE,,,,,,,133,estruc,Catalan,Sounds/cat_estruc.mp3,2020-06-19_14h04.01.378,TranslationElicitation_spa,3.2.4,Win32,60,55ipnc9w0h32nce29jf2079jf0jf,,1,0,80,28,1,79
,,,,,,,,,,,,,,,,,,,,,,,,,,,,,,,,,,,t,2.564999819,AST,FALSE,,,,,,,133,estruc,Catalan,Sounds/cat_estruc.mp3,2020-06-19_14h04.01.378,TranslationElicitation_spa,3.2.4,Win32,60,55ipnc9w0h32nce29jf2079jf0jf,,1,0,80,28,1,79
,,,,,,,,,,,,,,,,,,,,,,,,,,,,,,,,,,,r,2.748999834,ASTR,FALSE,,,,,,,133,estruc,Catalan,Sounds/cat_estruc.mp3,2020-06-19_14h04.01.378,TranslationElicitation_spa,3.2.4,Win32,60,55ipnc9w0h32nce29jf2079jf0jf,,1,0,80,28,1,79
,,,,,,,,,,,,,,,,,,,,,,,,,,,,,,,,,,,o,2.914999962,ASTRO,FALSE,,,,,,,133,estruc,Catalan,Sounds/cat_estruc.mp3,2020-06-19_14h04.01.378,TranslationElicitation_spa,3.2.4,Win32,60,55ipnc9w0h32nce29jf2079jf0jf,,1,0,80,28,1,79
,,,,,,,,,,,,,,,,,,,,,,,,,,,,,,,,,,,s,3.024999857,ASTROS,FALSE,,,,,,,133,estruc,Catalan,Sounds/cat_estruc.mp3,2020-06-19_14h04.01.378,TranslationElicitation_spa,3.2.4,Win32,60,55ipnc9w0h32nce29jf2079jf0jf,,1,0,80,28,1,79
,,,,,,,,,,,,,,,,,,,,,,,,,,,,,,,,,,,return,3.531999826,,FALSE,,,,,,,133,estruc,Catalan,Sounds/cat_estruc.mp3,2020-06-19_14h04.01.378,TranslationElicitation_spa,3.2.4,Win32,60,55ipnc9w0h32nce29jf2079jf0jf,3.531999826,1,0,80,28,1,79
,,,,,,,,,,,,,,,,,,,,,,,,,,,,,,,,,,,,,,,,,,,,,133,estruc,Catalan,Sounds/cat_estruc.mp3,2020-06-19_14h04.01.378,TranslationElicitation_spa,3.2.4,Win32,60,55ipnc9w0h32nce29jf2079jf0jf,,1,0,80,28,1,79
,,,,,,,,,,,,,,,,,,,,,,,,,,,,,,,,,,,m,1.432999849,M,FALSE,,,,,,,154,mirall,Catalan,Sounds/cat_mirall.mp3,2020-06-19_14h04.01.378,TranslationElicitation_spa,3.2.4,Win32,60,55ipnc9w0h32nce29jf2079jf0jf,,1,0,80,48,1,79
,,,,,,,,,,,,,,,,,,,,,,,,,,,,,,,,,,,i,1.5,MI,FALSE,,,,,,,154,mirall,Catalan,Sounds/cat_mirall.mp3,2020-06-19_14h04.01.378,TranslationElicitation_spa,3.2.4,Win32,60,55ipnc9w0h32nce29jf2079jf0jf,,1,0,80,48,1,79
,,,,,,,,,,,,,,,,,,,,,,,,,,,,,,,,,,,r,1.665999889,MIR,FALSE,,,,,,,154,mirall,Catalan,Sounds/cat_mirall.mp3,2020-06-19_14h04.01.378,TranslationElicitation_spa,3.2.4,Win32,60,55ipnc9w0h32nce29jf2079jf0jf,,1,0,80,48,1,79
,,,,,,,,,,,,,,,,,,,,,,,,,,,,,,,,,,,a,1.898999929,MIRA,FALSE,,,,,,,154,mirall,Catalan,Sounds/cat_mirall.mp3,2020-06-19_14h04.01.378,TranslationElicitation_spa,3.2.4,Win32,60,55ipnc9w0h32nce29jf2079jf0jf,,1,0,80,48,1,79
,,,,,,,,,,,,,,,,,,,,,,,,,,,,,,,,,,,r,2.182999849,MIRAR,FALSE,,,,,,,154,mirall,Catalan,Sounds/cat_mirall.mp3,2020-06-19_14h04.01.378,TranslationElicitation_spa,3.2.4,Win32,60,55ipnc9w0h32nce29jf2079jf0jf,,1,0,80,48,1,79
,,,,,,,,,,,,,,,,,,,,,,,,,,,,,,,,,,,return,2.832999945,,FALSE,,,,,,,154,mirall,Catalan,Sounds/cat_mirall.mp3,2020-06-19_14h04.01.378,TranslationElicitation_spa,3.2.4,Win32,60,55ipnc9w0h32nce29jf2079jf0jf,2.832999945,1,0,80,48,1,79
,,,,,,,,,,,,,,,,,,,,,,,,,,,,,,,,,,,,,,,,,,,,,154,mirall,Catalan,Sounds/cat_mirall.mp3,2020-06-19_14h04.01.378,TranslationElicitation_spa,3.2.4,Win32,60,55ipnc9w0h32nce29jf2079jf0jf,,1,0,80,48,1,79
,,,,,,,,,,,,,,,,,,,,,,,,,,,,,,,,,,,h,3.583999872,H,FALSE,,,,,,,136,forquilla,Catalan,Sounds/cat_forquilla.mp3,2020-06-19_14h04.01.378,TranslationElicitation_spa,3.2.4,Win32,60,55ipnc9w0h32nce29jf2079jf0jf,,1,0,80,31,1,79
,,,,,,,,,,,,,,,,,,,,,,,,,,,,,,,,,,,o,3.717999935,HO,FALSE,,,,,,,136,forquilla,Catalan,Sounds/cat_forquilla.mp3,2020-06-19_14h04.01.378,TranslationElicitation_spa,3.2.4,Win32,60,55ipnc9w0h32nce29jf2079jf0jf,,1,0,80,31,1,79
,,,,,,,,,,,,,,,,,,,,,,,,,,,,,,,,,,,r,3.883999825,HOR,FALSE,,,,,,,136,forquilla,Catalan,Sounds/cat_forquilla.mp3,2020-06-19_14h04.01.378,TranslationElicitation_spa,3.2.4,Win32,60,55ipnc9w0h32nce29jf2079jf0jf,,1,0,80,31,1,79
,,,,,,,,,,,,,,,,,,,,,,,,,,,,,,,,,,,q,4.434000015,HORQ,FALSE,,,,,,,136,forquilla,Catalan,Sounds/cat_forquilla.mp3,2020-06-19_14h04.01.378,TranslationElicitation_spa,3.2.4,Win32,60,55ipnc9w0h32nce29jf2079jf0jf,,1,0,80,31,1,79
,,,,,,,,,,,,,,,,,,,,,,,,,,,,,,,,,,,u,4.600999832,HORQU,FALSE,,,,,,,136,forquilla,Catalan,Sounds/cat_forquilla.mp3,2020-06-19_14h04.01.378,TranslationElicitation_spa,3.2.4,Win32,60,55ipnc9w0h32nce29jf2079jf0jf,,1,0,80,31,1,79
,,,,,,,,,,,,,,,,,,,,,,,,,,,,,,,,,,,i,4.80099988,HORQUI,FALSE,,,,,,,136,forquilla,Catalan,Sounds/cat_forquilla.mp3,2020-06-19_14h04.01.378,TranslationElicitation_spa,3.2.4,Win32,60,55ipnc9w0h32nce29jf2079jf0jf,,1,0,80,31,1,79
,,,,,,,,,,,,,,,,,,,,,,,,,,,,,,,,,,,l,5.05099988,HORQUIL,FALSE,,,,,,,136,forquilla,Catalan,Sounds/cat_forquilla.mp3,2020-06-19_14h04.01.378,TranslationElicitation_spa,3.2.4,Win32,60,55ipnc9w0h32nce29jf2079jf0jf,,1,0,80,31,1,79
,,,,,,,,,,,,,,,,,,,,,,,,,,,,,,,,,,,a,5.28399992,HORQUILA,FALSE,,,,,,,136,forquilla,Catalan,Sounds/cat_forquilla.mp3,2020-06-19_14h04.01.378,TranslationElicitation_spa,3.2.4,Win32,60,55ipnc9w0h32nce29jf2079jf0jf,,1,0,80,31,1,79
,,,,,,,,,,,,,,,,,,,,,,,,,,,,,,,,,,,backspace,6.200999975,HORQUI,TRUE,,,,,,,136,forquilla,Catalan,Sounds/cat_forquilla.mp3,2020-06-19_14h04.01.378,TranslationElicitation_spa,3.2.4,Win32,60,55ipnc9w0h32nce29jf2079jf0jf,,1,0,80,31,1,79
,,,,,,,,,,,,,,,,,,,,,,,,,,,,,,,,,,,l,6.906999826,HORQUIL,TRUE,,,,,,,136,forquilla,Catalan,Sounds/cat_forquilla.mp3,2020-06-19_14h04.01.378,TranslationElicitation_spa,3.2.4,Win32,60,55ipnc9w0h32nce29jf2079jf0jf,,1,0,80,31,1,79
,,,,,,,,,,,,,,,,,,,,,,,,,,,,,,,,,,,l,7.006999969,HORQUILL,TRUE,,,,,,,136,forquilla,Catalan,Sounds/cat_forquilla.mp3,2020-06-19_14h04.01.378,TranslationElicitation_spa,3.2.4,Win32,60,55ipnc9w0h32nce29jf2079jf0jf,,1,0,80,31,1,79
,,,,,,,,,,,,,,,,,,,,,,,,,,,,,,,,,,,a,7.101999998,HORQUILLA,TRUE,,,,,,,136,forquilla,Catalan,Sounds/cat_forquilla.mp3,2020-06-19_14h04.01.378,TranslationElicitation_spa,3.2.4,Win32,60,55ipnc9w0h32nce29jf2079jf0jf,,1,0,80,31,1,79
,,,,,,,,,,,,,,,,,,,,,,,,,,,,,,,,,,,return,7.417999983,,TRUE,,,,,,,136,forquilla,Catalan,Sounds/cat_forquilla.mp3,2020-06-19_14h04.01.378,TranslationElicitation_spa,3.2.4,Win32,60,55ipnc9w0h32nce29jf2079jf0jf,7.417999983,1,0,80,31,1,79
,,,,,,,,,,,,,,,,,,,,,,,,,,,,,,,,,,,,,,,,,,,,,136,forquilla,Catalan,Sounds/cat_forquilla.mp3,2020-06-19_14h04.01.378,TranslationElicitation_spa,3.2.4,Win32,60,55ipnc9w0h32nce29jf2079jf0jf,,1,0,80,31,1,79
,,,,,,,,,,,,,,,,,,,,,,,,,,,,,,,,,,,p,1.407999992,P,FALSE,,,,,,,174,porta,Catalan,Sounds/cat_porta.mp3,2020-06-19_14h04.01.378,TranslationElicitation_spa,3.2.4,Win32,60,55ipnc9w0h32nce29jf2079jf0jf,,1,0,80,66,1,79
,,,,,,,,,,,,,,,,,,,,,,,,,,,,,,,,,,,u,1.826999903,PU,FALSE,,,,,,,174,porta,Catalan,Sounds/cat_porta.mp3,2020-06-19_14h04.01.378,TranslationElicitation_spa,3.2.4,Win32,60,55ipnc9w0h32nce29jf2079jf0jf,,1,0,80,66,1,79
,,,,,,,,,,,,,,,,,,,,,,,,,,,,,,,,,,,e,1.974999905,PUE,FALSE,,,,,,,174,porta,Catalan,Sounds/cat_porta.mp3,2020-06-19_14h04.01.378,TranslationElicitation_spa,3.2.4,Win32,60,55ipnc9w0h32nce29jf2079jf0jf,,1,0,80,66,1,79
,,,,,,,,,,,,,,,,,,,,,,,,,,,,,,,,,,,r,2.14199996,PUER,FALSE,,,,,,,174,porta,Catalan,Sounds/cat_porta.mp3,2020-06-19_14h04.01.378,TranslationElicitation_spa,3.2.4,Win32,60,55ipnc9w0h32nce29jf2079jf0jf,,1,0,80,66,1,79
,,,,,,,,,,,,,,,,,,,,,,,,,,,,,,,,,,,t,2.292000055,PUERT,FALSE,,,,,,,174,porta,Catalan,Sounds/cat_porta.mp3,2020-06-19_14h04.01.378,TranslationElicitation_spa,3.2.4,Win32,60,55ipnc9w0h32nce29jf2079jf0jf,,1,0,80,66,1,79
,,,,,,,,,,,,,,,,,,,,,,,,,,,,,,,,,,,a,2.493000031,PUERTA,FALSE,,,,,,,174,porta,Catalan,Sounds/cat_porta.mp3,2020-06-19_14h04.01.378,TranslationElicitation_spa,3.2.4,Win32,60,55ipnc9w0h32nce29jf2079jf0jf,,1,0,80,66,1,79
,,,,,,,,,,,,,,,,,,,,,,,,,,,,,,,,,,,return,2.941999912,,FALSE,,,,,,,174,porta,Catalan,Sounds/cat_porta.mp3,2020-06-19_14h04.01.378,TranslationElicitation_spa,3.2.4,Win32,60,55ipnc9w0h32nce29jf2079jf0jf,2.941999912,1,0,80,66,1,79
,,,,,,,,,,,,,,,,,,,,,,,,,,,,,,,,,,,,,,,,,,,,,174,porta,Catalan,Sounds/cat_porta.mp3,2020-06-19_14h04.01.378,TranslationElicitation_spa,3.2.4,Win32,60,55ipnc9w0h32nce29jf2079jf0jf,,1,0,80,66,1,79
,,,,,,,,,,,,,,,,,,,,,,,,,,,,,,,,,,,p,1.381000042,P,FALSE,,,,,,,168,planta,Catalan,Sounds/cat_planta.mp3,2020-06-19_14h04.01.378,TranslationElicitation_spa,3.2.4,Win32,60,55ipnc9w0h32nce29jf2079jf0jf,,1,0,80,60,1,79
,,,,,,,,,,,,,,,,,,,,,,,,,,,,,,,,,,,l,1.482000113,PL,FALSE,,,,,,,168,planta,Catalan,Sounds/cat_planta.mp3,2020-06-19_14h04.01.378,TranslationElicitation_spa,3.2.4,Win32,60,55ipnc9w0h32nce29jf2079jf0jf,,1,0,80,60,1,79
,,,,,,,,,,,,,,,,,,,,,,,,,,,,,,,,,,,a,1.697000027,PLA,FALSE,,,,,,,168,planta,Catalan,Sounds/cat_planta.mp3,2020-06-19_14h04.01.378,TranslationElicitation_spa,3.2.4,Win32,60,55ipnc9w0h32nce29jf2079jf0jf,,1,0,80,60,1,79
,,,,,,,,,,,,,,,,,,,,,,,,,,,,,,,,,,,n,2.015000105,PLAN,FALSE,,,,,,,168,planta,Catalan,Sounds/cat_planta.mp3,2020-06-19_14h04.01.378,TranslationElicitation_spa,3.2.4,Win32,60,55ipnc9w0h32nce29jf2079jf0jf,,1,0,80,60,1,79
,,,,,,,,,,,,,,,,,,,,,,,,,,,,,,,,,,,t,2.213999987,PLANT,FALSE,,,,,,,168,planta,Catalan,Sounds/cat_planta.mp3,2020-06-19_14h04.01.378,TranslationElicitation_spa,3.2.4,Win32,60,55ipnc9w0h32nce29jf2079jf0jf,,1,0,80,60,1,79
,,,,,,,,,,,,,,,,,,,,,,,,,,,,,,,,,,,a,2.298000097,PLANTA,FALSE,,,,,,,168,planta,Catalan,Sounds/cat_planta.mp3,2020-06-19_14h04.01.378,TranslationElicitation_spa,3.2.4,Win32,60,55ipnc9w0h32nce29jf2079jf0jf,,1,0,80,60,1,79
,,,,,,,,,,,,,,,,,,,,,,,,,,,,,,,,,,,return,2.84800005,,FALSE,,,,,,,168,planta,Catalan,Sounds/cat_planta.mp3,2020-06-19_14h04.01.378,TranslationElicitation_spa,3.2.4,Win32,60,55ipnc9w0h32nce29jf2079jf0jf,2.84800005,1,0,80,60,1,79
,,,,,,,,,,,,,,,,,,,,,,,,,,,,,,,,,,,,,,,,,,,,,168,planta,Catalan,Sounds/cat_planta.mp3,2020-06-19_14h04.01.378,TranslationElicitation_spa,3.2.4,Win32,60,55ipnc9w0h32nce29jf2079jf0jf,,1,0,80,60,1,79
,,,,,,,,,,,,,,,,,,,,,,,,,,,,,,,,,,,e,3.431999922,E,FALSE,,,,,,,130,entrepa,Catalan,Sounds/cat_entrepa.mp3,2020-06-19_14h04.01.378,TranslationElicitation_spa,3.2.4,Win32,60,55ipnc9w0h32nce29jf2079jf0jf,,1,0,80,25,1,79
,,,,,,,,,,,,,,,,,,,,,,,,,,,,,,,,,,,n,3.615999937,EN,FALSE,,,,,,,130,entrepa,Catalan,Sounds/cat_entrepa.mp3,2020-06-19_14h04.01.378,TranslationElicitation_spa,3.2.4,Win32,60,55ipnc9w0h32nce29jf2079jf0jf,,1,0,80,25,1,79
,,,,,,,,,,,,,,,,,,,,,,,,,,,,,,,,,,,c,3.73300004,ENC,FALSE,,,,,,,130,entrepa,Catalan,Sounds/cat_entrepa.mp3,2020-06-19_14h04.01.378,TranslationElicitation_spa,3.2.4,Win32,60,55ipnc9w0h32nce29jf2079jf0jf,,1,0,80,25,1,79
,,,,,,,,,,,,,,,,,,,,,,,,,,,,,,,,,,,o,3.850000143,ENCO,FALSE,,,,,,,130,entrepa,Catalan,Sounds/cat_entrepa.mp3,2020-06-19_14h04.01.378,TranslationElicitation_spa,3.2.4,Win32,60,55ipnc9w0h32nce29jf2079jf0jf,,1,0,80,25,1,79
,,,,,,,,,,,,,,,,,,,,,,,,,,,,,,,,,,,n,4.032999992,ENCON,FALSE,,,,,,,130,entrepa,Catalan,Sounds/cat_entrepa.mp3,2020-06-19_14h04.01.378,TranslationElicitation_spa,3.2.4,Win32,60,55ipnc9w0h32nce29jf2079jf0jf,,1,0,80,25,1,79
,,,,,,,,,,,,,,,,,,,,,,,,,,,,,,,,,,,t,4.365999937,ENCONT,FALSE,,,,,,,130,entrepa,Catalan,Sounds/cat_entrepa.mp3,2020-06-19_14h04.01.378,TranslationElicitation_spa,3.2.4,Win32,60,55ipnc9w0h32nce29jf2079jf0jf,,1,0,80,25,1,79
,,,,,,,,,,,,,,,,,,,,,,,,,,,,,,,,,,,r,4.499000072,ENCONTR,FALSE,,,,,,,130,entrepa,Catalan,Sounds/cat_entrepa.mp3,2020-06-19_14h04.01.378,TranslationElicitation_spa,3.2.4,Win32,60,55ipnc9w0h32nce29jf2079jf0jf,,1,0,80,25,1,79
,,,,,,,,,,,,,,,,,,,,,,,,,,,,,,,,,,,a,4.582999945,ENCONTRA,FALSE,,,,,,,130,entrepa,Catalan,Sounds/cat_entrepa.mp3,2020-06-19_14h04.01.378,TranslationElicitation_spa,3.2.4,Win32,60,55ipnc9w0h32nce29jf2079jf0jf,,1,0,80,25,1,79
,,,,,,,,,,,,,,,,,,,,,,,,,,,,,,,,,,,r,4.648999929,ENCONTRAR,FALSE,,,,,,,130,entrepa,Catalan,Sounds/cat_entrepa.mp3,2020-06-19_14h04.01.378,TranslationElicitation_spa,3.2.4,Win32,60,55ipnc9w0h32nce29jf2079jf0jf,,1,0,80,25,1,79
,,,,,,,,,,,,,,,,,,,,,,,,,,,,,,,,,,,return,5.183000088,,FALSE,,,,,,,130,entrepa,Catalan,Sounds/cat_entrepa.mp3,2020-06-19_14h04.01.378,TranslationElicitation_spa,3.2.4,Win32,60,55ipnc9w0h32nce29jf2079jf0jf,5.183000088,1,0,80,25,1,79
,,,,,,,,,,,,,,,,,,,,,,,,,,,,,,,,,,,,,,,,,,,,,130,entrepa,Catalan,Sounds/cat_entrepa.mp3,2020-06-19_14h04.01.378,TranslationElicitation_spa,3.2.4,Win32,60,55ipnc9w0h32nce29jf2079jf0jf,,1,0,80,25,1,79
,,,,,,,,,,,,,,,,,,,,,,,,,,,,,,,,,,,g,1.381999969,G,FALSE,,,,,,,146,guitarra,Catalan,Sounds/cat_guitarra.mp3,2020-06-19_14h04.01.378,TranslationElicitation_spa,3.2.4,Win32,60,55ipnc9w0h32nce29jf2079jf0jf,,1,0,80,41,1,79
,,,,,,,,,,,,,,,,,,,,,,,,,,,,,,,,,,,u,1.598999977,GU,FALSE,,,,,,,146,guitarra,Catalan,Sounds/cat_guitarra.mp3,2020-06-19_14h04.01.378,TranslationElicitation_spa,3.2.4,Win32,60,55ipnc9w0h32nce29jf2079jf0jf,,1,0,80,41,1,79
,,,,,,,,,,,,,,,,,,,,,,,,,,,,,,,,,,,i,1.799000025,GUI,FALSE,,,,,,,146,guitarra,Catalan,Sounds/cat_guitarra.mp3,2020-06-19_14h04.01.378,TranslationElicitation_spa,3.2.4,Win32,60,55ipnc9w0h32nce29jf2079jf0jf,,1,0,80,41,1,79
,,,,,,,,,,,,,,,,,,,,,,,,,,,,,,,,,,,t,2.049000025,GUIT,FALSE,,,,,,,146,guitarra,Catalan,Sounds/cat_guitarra.mp3,2020-06-19_14h04.01.378,TranslationElicitation_spa,3.2.4,Win32,60,55ipnc9w0h32nce29jf2079jf0jf,,1,0,80,41,1,79
,,,,,,,,,,,,,,,,,,,,,,,,,,,,,,,,,,,a,2.215999842,GUITA,FALSE,,,,,,,146,guitarra,Catalan,Sounds/cat_guitarra.mp3,2020-06-19_14h04.01.378,TranslationElicitation_spa,3.2.4,Win32,60,55ipnc9w0h32nce29jf2079jf0jf,,1,0,80,41,1,79
,,,,,,,,,,,,,,,,,,,,,,,,,,,,,,,,,,,r,2.348999977,GUITAR,FALSE,,,,,,,146,guitarra,Catalan,Sounds/cat_guitarra.mp3,2020-06-19_14h04.01.378,TranslationElicitation_spa,3.2.4,Win32,60,55ipnc9w0h32nce29jf2079jf0jf,,1,0,80,41,1,79
,,,,,,,,,,,,,,,,,,,,,,,,,,,,,,,,,,,r,2.465999842,GUITARR,FALSE,,,,,,,146,guitarra,Catalan,Sounds/cat_guitarra.mp3,2020-06-19_14h04.01.378,TranslationElicitation_spa,3.2.4,Win32,60,55ipnc9w0h32nce29jf2079jf0jf,,1,0,80,41,1,79
,,,,,,,,,,,,,,,,,,,,,,,,,,,,,,,,,,,a,2.615999937,GUITARRA,FALSE,,,,,,,146,guitarra,Catalan,Sounds/cat_guitarra.mp3,2020-06-19_14h04.01.378,TranslationElicitation_spa,3.2.4,Win32,60,55ipnc9w0h32nce29jf2079jf0jf,,1,0,80,41,1,79
,,,,,,,,,,,,,,,,,,,,,,,,,,,,,,,,,,,return,3.075999975,,FALSE,,,,,,,146,guitarra,Catalan,Sounds/cat_guitarra.mp3,2020-06-19_14h04.01.378,TranslationElicitation_spa,3.2.4,Win32,60,55ipnc9w0h32nce29jf2079jf0jf,3.075999975,1,0,80,41,1,79
,,,,,,,,,,,,,,,,,,,,,,,,,,,,,,,,,,,,,,,,,,,,,146,guitarra,Catalan,Sounds/cat_guitarra.mp3,2020-06-19_14h04.01.378,TranslationElicitation_spa,3.2.4,Win32,60,55ipnc9w0h32nce29jf2079jf0jf,,1,0,80,41,1,79
,,,,,,,,,,,,,,,,,,,,,,,,,,,,,,,,,,,c,2.867000103,C,FALSE,,,,,,,178,taronja,Catalan,Sounds/cat_taronja.mp3,2020-06-19_14h04.01.378,TranslationElicitation_spa,3.2.4,Win32,60,55ipnc9w0h32nce29jf2079jf0jf,,1,0,80,70,1,79
,,,,,,,,,,,,,,,,,,,,,,,,,,,,,,,,,,,a,3.184999943,CA,FALSE,,,,,,,178,taronja,Catalan,Sounds/cat_taronja.mp3,2020-06-19_14h04.01.378,TranslationElicitation_spa,3.2.4,Win32,60,55ipnc9w0h32nce29jf2079jf0jf,,1,0,80,70,1,79
,,,,,,,,,,,,,,,,,,,,,,,,,,,,,,,,,,,n,3.351000071,CAN,FALSE,,,,,,,178,taronja,Catalan,Sounds/cat_taronja.mp3,2020-06-19_14h04.01.378,TranslationElicitation_spa,3.2.4,Win32,60,55ipnc9w0h32nce29jf2079jf0jf,,1,0,80,70,1,79
,,,,,,,,,,,,,,,,,,,,,,,,,,,,,,,,,,,c,3.483999968,CANC,FALSE,,,,,,,178,taronja,Catalan,Sounds/cat_taronja.mp3,2020-06-19_14h04.01.378,TranslationElicitation_spa,3.2.4,Win32,60,55ipnc9w0h32nce29jf2079jf0jf,,1,0,80,70,1,79
,,,,,,,,,,,,,,,,,,,,,,,,,,,,,,,,,,,h,3.628999949,CANCH,FALSE,,,,,,,178,taronja,Catalan,Sounds/cat_taronja.mp3,2020-06-19_14h04.01.378,TranslationElicitation_spa,3.2.4,Win32,60,55ipnc9w0h32nce29jf2079jf0jf,,1,0,80,70,1,79
,,,,,,,,,,,,,,,,,,,,,,,,,,,,,,,,,,,a,3.818000078,CANCHA,FALSE,,,,,,,178,taronja,Catalan,Sounds/cat_taronja.mp3,2020-06-19_14h04.01.378,TranslationElicitation_spa,3.2.4,Win32,60,55ipnc9w0h32nce29jf2079jf0jf,,1,0,80,70,1,79
,,,,,,,,,,,,,,,,,,,,,,,,,,,,,,,,,,,backspace,5.234999895,CANC,TRUE,,,,,,,178,taronja,Catalan,Sounds/cat_taronja.mp3,2020-06-19_14h04.01.378,TranslationElicitation_spa,3.2.4,Win32,60,55ipnc9w0h32nce29jf2079jf0jf,,1,0,80,70,1,79
,,,,,,,,,,,,,,,,,,,,,,,,,,,,,,,,,,,backspace,5.802000046,CA,TRUE,,,,,,,178,taronja,Catalan,Sounds/cat_taronja.mp3,2020-06-19_14h04.01.378,TranslationElicitation_spa,3.2.4,Win32,60,55ipnc9w0h32nce29jf2079jf0jf,,1,0,80,70,1,79
,,,,,,,,,,,,,,,,,,,,,,,,,,,,,,,,,,,backspace,5.835000038,,TRUE,,,,,,,178,taronja,Catalan,Sounds/cat_taronja.mp3,2020-06-19_14h04.01.378,TranslationElicitation_spa,3.2.4,Win32,60,55ipnc9w0h32nce29jf2079jf0jf,,1,0,80,70,1,79
,,,,,,,,,,,,,,,,,,,,,,,,,,,,,,,,,,,backspace,5.868999958,,TRUE,,,,,,,178,taronja,Catalan,Sounds/cat_taronja.mp3,2020-06-19_14h04.01.378,TranslationElicitation_spa,3.2.4,Win32,60,55ipnc9w0h32nce29jf2079jf0jf,,1,0,80,70,1,79
,,,,,,,,,,,,,,,,,,,,,,,,,,,,,,,,,,,backspace,5.907999992,,TRUE,,,,,,,178,taronja,Catalan,Sounds/cat_taronja.mp3,2020-06-19_14h04.01.378,TranslationElicitation_spa,3.2.4,Win32,60,55ipnc9w0h32nce29jf2079jf0jf,,1,0,80,70,1,79
,,,,,,,,,,,,,,,,,,,,,,,,,,,,,,,,,,,backspace,5.936000109,,TRUE,,,,,,,178,taronja,Catalan,Sounds/cat_taronja.mp3,2020-06-19_14h04.01.378,TranslationElicitation_spa,3.2.4,Win32,60,55ipnc9w0h32nce29jf2079jf0jf,,1,0,80,70,1,79
,,,,,,,,,,,,,,,,,,,,,,,,,,,,,,,,,,,backspace,5.992000103,,TRUE,,,,,,,178,taronja,Catalan,Sounds/cat_taronja.mp3,2020-06-19_14h04.01.378,TranslationElicitation_spa,3.2.4,Win32,60,55ipnc9w0h32nce29jf2079jf0jf,,1,0,80,70,1,79
,,,,,,,,,,,,,,,,,,,,,,,,,,,,,,,,,,,backspace,6.017999887,,TRUE,,,,,,,178,taronja,Catalan,Sounds/cat_taronja.mp3,2020-06-19_14h04.01.378,TranslationElicitation_spa,3.2.4,Win32,60,55ipnc9w0h32nce29jf2079jf0jf,,1,0,80,70,1,79
,,,,,,,,,,,,,,,,,,,,,,,,,,,,,,,,,,,t,6.934999943,T,TRUE,,,,,,,178,taronja,Catalan,Sounds/cat_taronja.mp3,2020-06-19_14h04.01.378,TranslationElicitation_spa,3.2.4,Win32,60,55ipnc9w0h32nce29jf2079jf0jf,,1,0,80,70,1,79
,,,,,,,,,,,,,,,,,,,,,,,,,,,,,,,,,,,r,7.118999958,TR,TRUE,,,,,,,178,taronja,Catalan,Sounds/cat_taronja.mp3,2020-06-19_14h04.01.378,TranslationElicitation_spa,3.2.4,Win32,60,55ipnc9w0h32nce29jf2079jf0jf,,1,0,80,70,1,79
,,,,,,,,,,,,,,,,,,,,,,,,,,,,,,,,,,,a,7.269000053,TRA,TRUE,,,,,,,178,taronja,Catalan,Sounds/cat_taronja.mp3,2020-06-19_14h04.01.378,TranslationElicitation_spa,3.2.4,Win32,60,55ipnc9w0h32nce29jf2079jf0jf,,1,0,80,70,1,79
,,,,,,,,,,,,,,,,,,,,,,,,,,,,,,,,,,,n,7.898000002,TRAN,TRUE,,,,,,,178,taronja,Catalan,Sounds/cat_taronja.mp3,2020-06-19_14h04.01.378,TranslationElicitation_spa,3.2.4,Win32,60,55ipnc9w0h32nce29jf2079jf0jf,,1,0,80,70,1,79
,,,,,,,,,,,,,,,,,,,,,,,,,,,,,,,,,,,c,8.519999981,TRANC,TRUE,,,,,,,178,taronja,Catalan,Sounds/cat_taronja.mp3,2020-06-19_14h04.01.378,TranslationElicitation_spa,3.2.4,Win32,60,55ipnc9w0h32nce29jf2079jf0jf,,1,0,80,70,1,79
,,,,,,,,,,,,,,,,,,,,,,,,,,,,,,,,,,,a,11.63800001,TRANCA,TRUE,,,,,,,178,taronja,Catalan,Sounds/cat_taronja.mp3,2020-06-19_14h04.01.378,TranslationElicitation_spa,3.2.4,Win32,60,55ipnc9w0h32nce29jf2079jf0jf,,1,0,80,70,1,79
,,,,,,,,,,,,,,,,,,,,,,,,,,,,,,,,,,,return,12.12100005,,TRUE,,,,,,,178,taronja,Catalan,Sounds/cat_taronja.mp3,2020-06-19_14h04.01.378,TranslationElicitation_spa,3.2.4,Win32,60,55ipnc9w0h32nce29jf2079jf0jf,12.12100005,1,0,80,70,1,79
,,,,,,,,,,,,,,,,,,,,,,,,,,,,,,,,,,,,,,,,,,,,,178,taronja,Catalan,Sounds/cat_taronja.mp3,2020-06-19_14h04.01.378,TranslationElicitation_spa,3.2.4,Win32,60,55ipnc9w0h32nce29jf2079jf0jf,,1,0,80,70,1,79
,,,,,,,,,,,,,,,,,,,,,,,,,,,,,,,,,,,p,1.09100008,P,FALSE,,,,,,,164,patata,Catalan,Sounds/cat_patata.mp3,2020-06-19_14h04.01.378,TranslationElicitation_spa,3.2.4,Win32,60,55ipnc9w0h32nce29jf2079jf0jf,,1,0,80,57,1,79
,,,,,,,,,,,,,,,,,,,,,,,,,,,,,,,,,,,a,1.240999937,PA,FALSE,,,,,,,164,patata,Catalan,Sounds/cat_patata.mp3,2020-06-19_14h04.01.378,TranslationElicitation_spa,3.2.4,Win32,60,55ipnc9w0h32nce29jf2079jf0jf,,1,0,80,57,1,79
,,,,,,,,,,,,,,,,,,,,,,,,,,,,,,,,,,,t,1.476000071,PAT,FALSE,,,,,,,164,patata,Catalan,Sounds/cat_patata.mp3,2020-06-19_14h04.01.378,TranslationElicitation_spa,3.2.4,Win32,60,55ipnc9w0h32nce29jf2079jf0jf,,1,0,80,57,1,79
,,,,,,,,,,,,,,,,,,,,,,,,,,,,,,,,,,,a,1.575000048,PATA,FALSE,,,,,,,164,patata,Catalan,Sounds/cat_patata.mp3,2020-06-19_14h04.01.378,TranslationElicitation_spa,3.2.4,Win32,60,55ipnc9w0h32nce29jf2079jf0jf,,1,0,80,57,1,79
,,,,,,,,,,,,,,,,,,,,,,,,,,,,,,,,,,,t,1.691999912,PATAT,FALSE,,,,,,,164,patata,Catalan,Sounds/cat_patata.mp3,2020-06-19_14h04.01.378,TranslationElicitation_spa,3.2.4,Win32,60,55ipnc9w0h32nce29jf2079jf0jf,,1,0,80,57,1,79
,,,,,,,,,,,,,,,,,,,,,,,,,,,,,,,,,,,a,1.842000008,PATATA,FALSE,,,,,,,164,patata,Catalan,Sounds/cat_patata.mp3,2020-06-19_14h04.01.378,TranslationElicitation_spa,3.2.4,Win32,60,55ipnc9w0h32nce29jf2079jf0jf,,1,0,80,57,1,79
,,,,,,,,,,,,,,,,,,,,,,,,,,,,,,,,,,,return,2.35800004,,FALSE,,,,,,,164,patata,Catalan,Sounds/cat_patata.mp3,2020-06-19_14h04.01.378,TranslationElicitation_spa,3.2.4,Win32,60,55ipnc9w0h32nce29jf2079jf0jf,2.35800004,1,0,80,57,1,79
,,,,,,,,,,,,,,,,,,,,,,,,,,,,,,,,,,,,,,,,,,,,,164,patata,Catalan,Sounds/cat_patata.mp3,2020-06-19_14h04.01.378,TranslationElicitation_spa,3.2.4,Win32,60,55ipnc9w0h32nce29jf2079jf0jf,,1,0,80,57,1,79
,,,,,,,,,,,,,,,,,,,,,,,,,,,,,,,,,,,p,4.147000074,P,FALSE,,,,,,,171,pollastre,Catalan,Sounds/cat_pollastre.mp3,2020-06-19_14h04.01.378,TranslationElicitation_spa,3.2.4,Win32,60,55ipnc9w0h32nce29jf2079jf0jf,,1,0,80,63,1,79
,,,,,,,,,,,,,,,,,,,,,,,,,,,,,,,,,,,i,4.462000132,PI,FALSE,,,,,,,171,pollastre,Catalan,Sounds/cat_pollastre.mp3,2020-06-19_14h04.01.378,TranslationElicitation_spa,3.2.4,Win32,60,55ipnc9w0h32nce29jf2079jf0jf,,1,0,80,63,1,79
,,,,,,,,,,,,,,,,,,,,,,,,,,,,,,,,,,,m,4.629000187,PIM,FALSE,,,,,,,171,pollastre,Catalan,Sounds/cat_pollastre.mp3,2020-06-19_14h04.01.378,TranslationElicitation_spa,3.2.4,Win32,60,55ipnc9w0h32nce29jf2079jf0jf,,1,0,80,63,1,79
,,,,,,,,,,,,,,,,,,,,,,,,,,,,,,,,,,,i,4.713000059,PIMI,FALSE,,,,,,,171,pollastre,Catalan,Sounds/cat_pollastre.mp3,2020-06-19_14h04.01.378,TranslationElicitation_spa,3.2.4,Win32,60,55ipnc9w0h32nce29jf2079jf0jf,,1,0,80,63,1,79
,,,,,,,,,,,,,,,,,,,,,,,,,,,,,,,,,,,e,4.845000029,PIMIE,FALSE,,,,,,,171,pollastre,Catalan,Sounds/cat_pollastre.mp3,2020-06-19_14h04.01.378,TranslationElicitation_spa,3.2.4,Win32,60,55ipnc9w0h32nce29jf2079jf0jf,,1,0,80,63,1,79
,,,,,,,,,,,,,,,,,,,,,,,,,,,,,,,,,,,n,4.962000132,PIMIEN,FALSE,,,,,,,171,pollastre,Catalan,Sounds/cat_pollastre.mp3,2020-06-19_14h04.01.378,TranslationElicitation_spa,3.2.4,Win32,60,55ipnc9w0h32nce29jf2079jf0jf,,1,0,80,63,1,79
,,,,,,,,,,,,,,,,,,,,,,,,,,,,,,,,,,,t,5.179000139,PIMIENT,FALSE,,,,,,,171,pollastre,Catalan,Sounds/cat_pollastre.mp3,2020-06-19_14h04.01.378,TranslationElicitation_spa,3.2.4,Win32,60,55ipnc9w0h32nce29jf2079jf0jf,,1,0,80,63,1,79
,,,,,,,,,,,,,,,,,,,,,,,,,,,,,,,,,,,a,5.279000044,PIMIENTA,FALSE,,,,,,,171,pollastre,Catalan,Sounds/cat_pollastre.mp3,2020-06-19_14h04.01.378,TranslationElicitation_spa,3.2.4,Win32,60,55ipnc9w0h32nce29jf2079jf0jf,,1,0,80,63,1,79
,,,,,,,,,,,,,,,,,,,,,,,,,,,,,,,,,,,return,5.846000195,,FALSE,,,,,,,171,pollastre,Catalan,Sounds/cat_pollastre.mp3,2020-06-19_14h04.01.378,TranslationElicitation_spa,3.2.4,Win32,60,55ipnc9w0h32nce29jf2079jf0jf,5.846000195,1,0,80,63,1,79
,,,,,,,,,,,,,,,,,,,,,,,,,,,,,,,,,,,,,,,,,,,,,171,pollastre,Catalan,Sounds/cat_pollastre.mp3,2020-06-19_14h04.01.378,TranslationElicitation_spa,3.2.4,Win32,60,55ipnc9w0h32nce29jf2079jf0jf,,1,0,80,63,1,79
,,,,,,,,,,,,,,,,,,,,,,,,,,,,,,,,,,,c,1.299999952,C,FALSE,,,,,,,122,casa,Catalan,Sounds/cat_casa.mp3,2020-06-19_14h04.01.378,TranslationElicitation_spa,3.2.4,Win32,60,55ipnc9w0h32nce29jf2079jf0jf,,1,0,80,17,1,79
