consentKey.keys,consentKey.rt,languageL1Key.keys,languageL1Key.rt,languageL2,languageL2OralKey.keys,languageL2OralKey.rt,languageL2WrittenKey.keys,languageL2WrittenKey.rt,languageL3OralKey.keys,languageL3OralKey.rt,languageL3WrittenKey.keys,languageL3WrittenKey.rt,languageCatalanOralKey.keys,languageCatalanOralKey.rt,languageCatalanWrittenKey.keys,languageCatalanWrittenKey.rt,languageCatalanTimeKey.keys,languageCatalanTimeKey.rt,age,demoSexKey.keys,demoSexKey.rt,demoEducationKey.keys,demoEducationKey.rt,city,demoVisionKey.keys,demoVisionKey.rt,demoLanguageKey.keys,demoLanguageKey.rt,setupLocationKey.keys,setupLocationKey.rt,setupNoiseKey.keys,setupNoiseKey.rt,instructionsKeys.keys,instructionsKeys.rt,trialOffset,keyPressTime,keyPressed,inputText,error,trials_practice.thisRepN,trials_practice.thisTrialN,trials_practice.thisN,trials_practice.thisIndex,trials_practice.ran,trials_practice.order,trial_id,word,test_language,soundfile,date,expName,psychopyVersion,OS,frameRate,participant,trials.thisRepN,trials.thisTrialN,trials.thisN,trials.thisIndex,trials.ran,trials.order
space,1.990999937,e,5.877000093,,3,9.679999828,4,7.325000048,,,,,2,7.881999969,1,4.693000078,1,6.401000023,23,m,2.713000059,4,4.036000013,GRANADA,n,7.523000002,n,3.362999916,1,4.028000116,1,5.93200016,space,15.13400006,9.76699996,9.76699996,return,,FALSE,1,0,5,4,1,4,179,tigre,Catalan,Sounds/cat_tigre.mp3,2020-06-19_09h35.18.844,TranslationElicitation_spa,3.2.4,Win32,60,55kvweighibv82hihv9322hhfh,,,,,,
,,,,,,,,,,,,,,,,,,,,,,,,,,,,,,,,,,,,,,,,1,0,5,4,1,4,179,tigre,Catalan,Sounds/cat_tigre.mp3,2020-06-19_09h35.18.844,TranslationElicitation_spa,3.2.4,Win32,60,55kvweighibv82hihv9322hhfh,,,,,,
,,,,,,,,,,,,,,,,,,,,,,,,,,,,,,,,,,,,15.83299994,h,H,FALSE,1,0,5,3,1,4,167,pingui,Catalan,Sounds/cat_pingui.mp3,2020-06-19_09h35.18.844,TranslationElicitation_spa,3.2.4,Win32,60,55kvweighibv82hihv9322hhfh,,,,,,
,,,,,,,,,,,,,,,,,,,,,,,,,,,,,,,,,,,,16.01399994,h,HH,FALSE,1,0,5,3,1,4,167,pingui,Catalan,Sounds/cat_pingui.mp3,2020-06-19_09h35.18.844,TranslationElicitation_spa,3.2.4,Win32,60,55kvweighibv82hihv9322hhfh,,,,,,
,,,,,,,,,,,,,,,,,,,,,,,,,,,,,,,,,,,,16.75499988,backspace,,TRUE,1,0,5,3,1,4,167,pingui,Catalan,Sounds/cat_pingui.mp3,2020-06-19_09h35.18.844,TranslationElicitation_spa,3.2.4,Win32,60,55kvweighibv82hihv9322hhfh,,,,,,
,,,,,,,,,,,,,,,,,,,,,,,,,,,,,,,,,,,,16.90899992,backspace,,TRUE,1,0,5,3,1,4,167,pingui,Catalan,Sounds/cat_pingui.mp3,2020-06-19_09h35.18.844,TranslationElicitation_spa,3.2.4,Win32,60,55kvweighibv82hihv9322hhfh,,,,,,
,,,,,,,,,,,,,,,,,,,,,,,,,,,,,,,,,,,17.93000007,17.93000007,return,,TRUE,1,0,5,3,1,4,167,pingui,Catalan,Sounds/cat_pingui.mp3,2020-06-19_09h35.18.844,TranslationElicitation_spa,3.2.4,Win32,60,55kvweighibv82hihv9322hhfh,,,,,,
,,,,,,,,,,,,,,,,,,,,,,,,,,,,,,,,,,,,,,,,1,0,5,3,1,4,167,pingui,Catalan,Sounds/cat_pingui.mp3,2020-06-19_09h35.18.844,TranslationElicitation_spa,3.2.4,Win32,60,55kvweighibv82hihv9322hhfh,,,,,,
,,,,,,,,,,,,,,,,,,,,,,,,,,,,,,,,,,,,6.618999958,n,N,FALSE,1,0,5,2,1,4,159,onada,Catalan,Sounds/cat_onada.mp3,2020-06-19_09h35.18.844,TranslationElicitation_spa,3.2.4,Win32,60,55kvweighibv82hihv9322hhfh,,,,,,
,,,,,,,,,,,,,,,,,,,,,,,,,,,,,,,,,,,,6.755000114,o,NO,FALSE,1,0,5,2,1,4,159,onada,Catalan,Sounds/cat_onada.mp3,2020-06-19_09h35.18.844,TranslationElicitation_spa,3.2.4,Win32,60,55kvweighibv82hihv9322hhfh,,,,,,
,,,,,,,,,,,,,,,,,,,,,,,,,,,,,,,,,,,,7.104000092,space,NO ,FALSE,1,0,5,2,1,4,159,onada,Catalan,Sounds/cat_onada.mp3,2020-06-19_09h35.18.844,TranslationElicitation_spa,3.2.4,Win32,60,55kvweighibv82hihv9322hhfh,,,,,,
,,,,,,,,,,,,,,,,,,,,,,,,,,,,,,,,,,,,7.628999949,s,NO S,FALSE,1,0,5,2,1,4,159,onada,Catalan,Sounds/cat_onada.mp3,2020-06-19_09h35.18.844,TranslationElicitation_spa,3.2.4,Win32,60,55kvweighibv82hihv9322hhfh,,,,,,
,,,,,,,,,,,,,,,,,,,,,,,,,,,,,,,,,,,,7.822000027,e,NO SE,FALSE,1,0,5,2,1,4,159,onada,Catalan,Sounds/cat_onada.mp3,2020-06-19_09h35.18.844,TranslationElicitation_spa,3.2.4,Win32,60,55kvweighibv82hihv9322hhfh,,,,,,
,,,,,,,,,,,,,,,,,,,,,,,,,,,,,,,,,,,,7.979000092,space,NO SE ,FALSE,1,0,5,2,1,4,159,onada,Catalan,Sounds/cat_onada.mp3,2020-06-19_09h35.18.844,TranslationElicitation_spa,3.2.4,Win32,60,55kvweighibv82hihv9322hhfh,,,,,,
,,,,,,,,,,,,,,,,,,,,,,,,,,,,,,,,,,,,8.428999901,o,NO SE O,FALSE,1,0,5,2,1,4,159,onada,Catalan,Sounds/cat_onada.mp3,2020-06-19_09h35.18.844,TranslationElicitation_spa,3.2.4,Win32,60,55kvweighibv82hihv9322hhfh,,,,,,
,,,,,,,,,,,,,,,,,,,,,,,,,,,,,,,,,,,,8.75,y,NO SE OY,FALSE,1,0,5,2,1,4,159,onada,Catalan,Sounds/cat_onada.mp3,2020-06-19_09h35.18.844,TranslationElicitation_spa,3.2.4,Win32,60,55kvweighibv82hihv9322hhfh,,,,,,
,,,,,,,,,,,,,,,,,,,,,,,,,,,,,,,,,,,,8.854000092,e,NO SE OYE,FALSE,1,0,5,2,1,4,159,onada,Catalan,Sounds/cat_onada.mp3,2020-06-19_09h35.18.844,TranslationElicitation_spa,3.2.4,Win32,60,55kvweighibv82hihv9322hhfh,,,,,,
,,,,,,,,,,,,,,,,,,,,,,,,,,,,,,,,,,,,9.003999949,space,NO SE OYE ,FALSE,1,0,5,2,1,4,159,onada,Catalan,Sounds/cat_onada.mp3,2020-06-19_09h35.18.844,TranslationElicitation_spa,3.2.4,Win32,60,55kvweighibv82hihv9322hhfh,,,,,,
,,,,,,,,,,,,,,,,,,,,,,,,,,,,,,,,,,,,9.234999895,n,NO SE OYE N,FALSE,1,0,5,2,1,4,159,onada,Catalan,Sounds/cat_onada.mp3,2020-06-19_09h35.18.844,TranslationElicitation_spa,3.2.4,Win32,60,55kvweighibv82hihv9322hhfh,,,,,,
,,,,,,,,,,,,,,,,,,,,,,,,,,,,,,,,,,,,9.361999989,a,NO SE OYE NA,FALSE,1,0,5,2,1,4,159,onada,Catalan,Sounds/cat_onada.mp3,2020-06-19_09h35.18.844,TranslationElicitation_spa,3.2.4,Win32,60,55kvweighibv82hihv9322hhfh,,,,,,
,,,,,,,,,,,,,,,,,,,,,,,,,,,,,,,,,,,,9.479000092,d,NO SE OYE NAD,FALSE,1,0,5,2,1,4,159,onada,Catalan,Sounds/cat_onada.mp3,2020-06-19_09h35.18.844,TranslationElicitation_spa,3.2.4,Win32,60,55kvweighibv82hihv9322hhfh,,,,,,
,,,,,,,,,,,,,,,,,,,,,,,,,,,,,,,,,,,,9.630000114,a,NO SE OYE NADA,FALSE,1,0,5,2,1,4,159,onada,Catalan,Sounds/cat_onada.mp3,2020-06-19_09h35.18.844,TranslationElicitation_spa,3.2.4,Win32,60,55kvweighibv82hihv9322hhfh,,,,,,
,,,,,,,,,,,,,,,,,,,,,,,,,,,,,,,,,,,10.28699994,10.28699994,return,,FALSE,1,0,5,2,1,4,159,onada,Catalan,Sounds/cat_onada.mp3,2020-06-19_09h35.18.844,TranslationElicitation_spa,3.2.4,Win32,60,55kvweighibv82hihv9322hhfh,,,,,,
,,,,,,,,,,,,,,,,,,,,,,,,,,,,,,,,,,,,,,,,1,0,5,2,1,4,159,onada,Catalan,Sounds/cat_onada.mp3,2020-06-19_09h35.18.844,TranslationElicitation_spa,3.2.4,Win32,60,55kvweighibv82hihv9322hhfh,,,,,,
,,,,,,,,,,,,,,,,,,,,,,,,,,,,,,,,,,,11.59500003,11.59500003,return,,FALSE,1,0,5,1,1,4,147,jaqueta,Catalan,Sounds/cat_jaqueta.mp3,2020-06-19_09h35.18.844,TranslationElicitation_spa,3.2.4,Win32,60,55kvweighibv82hihv9322hhfh,,,,,,
,,,,,,,,,,,,,,,,,,,,,,,,,,,,,,,,,,,,,,,,1,0,5,1,1,4,147,jaqueta,Catalan,Sounds/cat_jaqueta.mp3,2020-06-19_09h35.18.844,TranslationElicitation_spa,3.2.4,Win32,60,55kvweighibv82hihv9322hhfh,,,,,,
,,,,,,,,,,,,,,,,,,,,,,,,,,,,,,,,,,,1.911999941,1.911999941,return,,FALSE,1,0,5,0,1,4,109,arbre,Catalan,Sounds/cat_arbre.mp3,2020-06-19_09h35.18.844,TranslationElicitation_spa,3.2.4,Win32,60,55kvweighibv82hihv9322hhfh,,,,,,
,,,,,,,,,,,,,,,,,,,,,,,,,,,,,,,,,,,,,,,,1,0,5,0,1,4,109,arbre,Catalan,Sounds/cat_arbre.mp3,2020-06-19_09h35.18.844,TranslationElicitation_spa,3.2.4,Win32,60,55kvweighibv82hihv9322hhfh,,,,,,
,,,,,,,,,,,,,,,,,,,,,,,,,,,,,,,,,,,,2.225999832,c,C,FALSE,,,,,,,119,caixa,Catalan,Sounds/cat_caixa.mp3,2020-06-19_09h35.18.844,TranslationElicitation_spa,3.2.4,Win32,60,55kvweighibv82hihv9322hhfh,1,0,80,14,1,79
,,,,,,,,,,,,,,,,,,,,,,,,,,,,,,,,,,,,2.325999975,a,CA,FALSE,,,,,,,119,caixa,Catalan,Sounds/cat_caixa.mp3,2020-06-19_09h35.18.844,TranslationElicitation_spa,3.2.4,Win32,60,55kvweighibv82hihv9322hhfh,1,0,80,14,1,79
,,,,,,,,,,,,,,,,,,,,,,,,,,,,,,,,,,,,2.44299984,s,CAS,FALSE,,,,,,,119,caixa,Catalan,Sounds/cat_caixa.mp3,2020-06-19_09h35.18.844,TranslationElicitation_spa,3.2.4,Win32,60,55kvweighibv82hihv9322hhfh,1,0,80,14,1,79
,,,,,,,,,,,,,,,,,,,,,,,,,,,,,,,,,,,,2.559000015,a,CASA,FALSE,,,,,,,119,caixa,Catalan,Sounds/cat_caixa.mp3,2020-06-19_09h35.18.844,TranslationElicitation_spa,3.2.4,Win32,60,55kvweighibv82hihv9322hhfh,1,0,80,14,1,79
,,,,,,,,,,,,,,,,,,,,,,,,,,,,,,,,,,,4.296999931,4.297999859,return,,FALSE,,,,,,,119,caixa,Catalan,Sounds/cat_caixa.mp3,2020-06-19_09h35.18.844,TranslationElicitation_spa,3.2.4,Win32,60,55kvweighibv82hihv9322hhfh,1,0,80,14,1,79
,,,,,,,,,,,,,,,,,,,,,,,,,,,,,,,,,,,,,,,,,,,,,,119,caixa,Catalan,Sounds/cat_caixa.mp3,2020-06-19_09h35.18.844,TranslationElicitation_spa,3.2.4,Win32,60,55kvweighibv82hihv9322hhfh,1,0,80,14,1,79
,,,,,,,,,,,,,,,,,,,,,,,,,,,,,,,,,,,,1.697000027,g,G,FALSE,,,,,,,139,galleda,Catalan,Sounds/cat_galleda.mp3,2020-06-19_09h35.18.844,TranslationElicitation_spa,3.2.4,Win32,60,55kvweighibv82hihv9322hhfh,1,0,80,34,1,79
,,,,,,,,,,,,,,,,,,,,,,,,,,,,,,,,,,,,1.962000132,a,GA,FALSE,,,,,,,139,galleda,Catalan,Sounds/cat_galleda.mp3,2020-06-19_09h35.18.844,TranslationElicitation_spa,3.2.4,Win32,60,55kvweighibv82hihv9322hhfh,1,0,80,34,1,79
,,,,,,,,,,,,,,,,,,,,,,,,,,,,,,,,,,,,2.128999949,l,GAL,FALSE,,,,,,,139,galleda,Catalan,Sounds/cat_galleda.mp3,2020-06-19_09h35.18.844,TranslationElicitation_spa,3.2.4,Win32,60,55kvweighibv82hihv9322hhfh,1,0,80,34,1,79
,,,,,,,,,,,,,,,,,,,,,,,,,,,,,,,,,,,,2.285000086,l,GALL,FALSE,,,,,,,139,galleda,Catalan,Sounds/cat_galleda.mp3,2020-06-19_09h35.18.844,TranslationElicitation_spa,3.2.4,Win32,60,55kvweighibv82hihv9322hhfh,1,0,80,34,1,79
,,,,,,,,,,,,,,,,,,,,,,,,,,,,,,,,,,,,2.378999949,e,GALLE,FALSE,,,,,,,139,galleda,Catalan,Sounds/cat_galleda.mp3,2020-06-19_09h35.18.844,TranslationElicitation_spa,3.2.4,Win32,60,55kvweighibv82hihv9322hhfh,1,0,80,34,1,79
,,,,,,,,,,,,,,,,,,,,,,,,,,,,,,,,,,,,2.579999924,t,GALLET,FALSE,,,,,,,139,galleda,Catalan,Sounds/cat_galleda.mp3,2020-06-19_09h35.18.844,TranslationElicitation_spa,3.2.4,Win32,60,55kvweighibv82hihv9322hhfh,1,0,80,34,1,79
,,,,,,,,,,,,,,,,,,,,,,,,,,,,,,,,,,,,2.815000057,a,GALLETA,FALSE,,,,,,,139,galleda,Catalan,Sounds/cat_galleda.mp3,2020-06-19_09h35.18.844,TranslationElicitation_spa,3.2.4,Win32,60,55kvweighibv82hihv9322hhfh,1,0,80,34,1,79
,,,,,,,,,,,,,,,,,,,,,,,,,,,,,,,,,,,3.278000116,3.278000116,return,,FALSE,,,,,,,139,galleda,Catalan,Sounds/cat_galleda.mp3,2020-06-19_09h35.18.844,TranslationElicitation_spa,3.2.4,Win32,60,55kvweighibv82hihv9322hhfh,1,0,80,34,1,79
,,,,,,,,,,,,,,,,,,,,,,,,,,,,,,,,,,,,,,,,,,,,,,139,galleda,Catalan,Sounds/cat_galleda.mp3,2020-06-19_09h35.18.844,TranslationElicitation_spa,3.2.4,Win32,60,55kvweighibv82hihv9322hhfh,1,0,80,34,1,79
,,,,,,,,,,,,,,,,,,,,,,,,,,,,,,,,,,,,1.593999863,j,J,FALSE,,,,,,,142,girafa,Catalan,Sounds/cat_girafa.mp3,2020-06-19_09h35.18.844,TranslationElicitation_spa,3.2.4,Win32,60,55kvweighibv82hihv9322hhfh,1,0,80,37,1,79
,,,,,,,,,,,,,,,,,,,,,,,,,,,,,,,,,,,,1.694000006,i,JI,FALSE,,,,,,,142,girafa,Catalan,Sounds/cat_girafa.mp3,2020-06-19_09h35.18.844,TranslationElicitation_spa,3.2.4,Win32,60,55kvweighibv82hihv9322hhfh,1,0,80,37,1,79
,,,,,,,,,,,,,,,,,,,,,,,,,,,,,,,,,,,,1.926999807,r,JIR,FALSE,,,,,,,142,girafa,Catalan,Sounds/cat_girafa.mp3,2020-06-19_09h35.18.844,TranslationElicitation_spa,3.2.4,Win32,60,55kvweighibv82hihv9322hhfh,1,0,80,37,1,79
,,,,,,,,,,,,,,,,,,,,,,,,,,,,,,,,,,,,2.186999798,a,JIRA,FALSE,,,,,,,142,girafa,Catalan,Sounds/cat_girafa.mp3,2020-06-19_09h35.18.844,TranslationElicitation_spa,3.2.4,Win32,60,55kvweighibv82hihv9322hhfh,1,0,80,37,1,79
,,,,,,,,,,,,,,,,,,,,,,,,,,,,,,,,,,,,2.525999784,j,JIRAJ,FALSE,,,,,,,142,girafa,Catalan,Sounds/cat_girafa.mp3,2020-06-19_09h35.18.844,TranslationElicitation_spa,3.2.4,Win32,60,55kvweighibv82hihv9322hhfh,1,0,80,37,1,79
,,,,,,,,,,,,,,,,,,,,,,,,,,,,,,,,,,,,2.995999813,backspace,JIR,TRUE,,,,,,,142,girafa,Catalan,Sounds/cat_girafa.mp3,2020-06-19_09h35.18.844,TranslationElicitation_spa,3.2.4,Win32,60,55kvweighibv82hihv9322hhfh,1,0,80,37,1,79
,,,,,,,,,,,,,,,,,,,,,,,,,,,,,,,,,,,,3.174999952,f,JIRF,TRUE,,,,,,,142,girafa,Catalan,Sounds/cat_girafa.mp3,2020-06-19_09h35.18.844,TranslationElicitation_spa,3.2.4,Win32,60,55kvweighibv82hihv9322hhfh,1,0,80,37,1,79
,,,,,,,,,,,,,,,,,,,,,,,,,,,,,,,,,,,,3.288999796,a,JIRFA,TRUE,,,,,,,142,girafa,Catalan,Sounds/cat_girafa.mp3,2020-06-19_09h35.18.844,TranslationElicitation_spa,3.2.4,Win32,60,55kvweighibv82hihv9322hhfh,1,0,80,37,1,79
,,,,,,,,,,,,,,,,,,,,,,,,,,,,,,,,,,,,4.270999908,backspace,JIR,TRUE,,,,,,,142,girafa,Catalan,Sounds/cat_girafa.mp3,2020-06-19_09h35.18.844,TranslationElicitation_spa,3.2.4,Win32,60,55kvweighibv82hihv9322hhfh,1,0,80,37,1,79
,,,,,,,,,,,,,,,,,,,,,,,,,,,,,,,,,,,,4.617999792,backspace,J,TRUE,,,,,,,142,girafa,Catalan,Sounds/cat_girafa.mp3,2020-06-19_09h35.18.844,TranslationElicitation_spa,3.2.4,Win32,60,55kvweighibv82hihv9322hhfh,1,0,80,37,1,79
,,,,,,,,,,,,,,,,,,,,,,,,,,,,,,,,,,,,5.713999987,i,JI,TRUE,,,,,,,142,girafa,Catalan,Sounds/cat_girafa.mp3,2020-06-19_09h35.18.844,TranslationElicitation_spa,3.2.4,Win32,60,55kvweighibv82hihv9322hhfh,1,0,80,37,1,79
,,,,,,,,,,,,,,,,,,,,,,,,,,,,,,,,,,,,5.841999769,r,JIR,TRUE,,,,,,,142,girafa,Catalan,Sounds/cat_girafa.mp3,2020-06-19_09h35.18.844,TranslationElicitation_spa,3.2.4,Win32,60,55kvweighibv82hihv9322hhfh,1,0,80,37,1,79
,,,,,,,,,,,,,,,,,,,,,,,,,,,,,,,,,,,,6.057999849,a,JIRA,TRUE,,,,,,,142,girafa,Catalan,Sounds/cat_girafa.mp3,2020-06-19_09h35.18.844,TranslationElicitation_spa,3.2.4,Win32,60,55kvweighibv82hihv9322hhfh,1,0,80,37,1,79
,,,,,,,,,,,,,,,,,,,,,,,,,,,,,,,,,,,,6.529999971,f,JIRAF,TRUE,,,,,,,142,girafa,Catalan,Sounds/cat_girafa.mp3,2020-06-19_09h35.18.844,TranslationElicitation_spa,3.2.4,Win32,60,55kvweighibv82hihv9322hhfh,1,0,80,37,1,79
,,,,,,,,,,,,,,,,,,,,,,,,,,,,,,,,,,,,6.674999952,a,JIRAFA,TRUE,,,,,,,142,girafa,Catalan,Sounds/cat_girafa.mp3,2020-06-19_09h35.18.844,TranslationElicitation_spa,3.2.4,Win32,60,55kvweighibv82hihv9322hhfh,1,0,80,37,1,79
,,,,,,,,,,,,,,,,,,,,,,,,,,,,,,,,,,,7.157999992,7.157999992,return,,TRUE,,,,,,,142,girafa,Catalan,Sounds/cat_girafa.mp3,2020-06-19_09h35.18.844,TranslationElicitation_spa,3.2.4,Win32,60,55kvweighibv82hihv9322hhfh,1,0,80,37,1,79
,,,,,,,,,,,,,,,,,,,,,,,,,,,,,,,,,,,,,,,,,,,,,,142,girafa,Catalan,Sounds/cat_girafa.mp3,2020-06-19_09h35.18.844,TranslationElicitation_spa,3.2.4,Win32,60,55kvweighibv82hihv9322hhfh,1,0,80,37,1,79
,,,,,,,,,,,,,,,,,,,,,,,,,,,,,,,,,,,,42.08399987,r,R,FALSE,,,,,,,176,samarreta,Catalan,Sounds/cat_samarreta.mp3,2020-06-19_09h35.18.844,TranslationElicitation_spa,3.2.4,Win32,60,55kvweighibv82hihv9322hhfh,1,0,80,68,1,79
,,,,,,,,,,,,,,,,,,,,,,,,,,,,,,,,,,,,42.80999994,a,RA,FALSE,,,,,,,176,samarreta,Catalan,Sounds/cat_samarreta.mp3,2020-06-19_09h35.18.844,TranslationElicitation_spa,3.2.4,Win32,60,55kvweighibv82hihv9322hhfh,1,0,80,68,1,79
,,,,,,,,,,,,,,,,,,,,,,,,,,,,,,,,,,,,43.15400004,b,RAB,FALSE,,,,,,,176,samarreta,Catalan,Sounds/cat_samarreta.mp3,2020-06-19_09h35.18.844,TranslationElicitation_spa,3.2.4,Win32,60,55kvweighibv82hihv9322hhfh,1,0,80,68,1,79
,,,,,,,,,,,,,,,,,,,,,,,,,,,,,,,,,,,,43.31099987,i,RABI,FALSE,,,,,,,176,samarreta,Catalan,Sounds/cat_samarreta.mp3,2020-06-19_09h35.18.844,TranslationElicitation_spa,3.2.4,Win32,60,55kvweighibv82hihv9322hhfh,1,0,80,68,1,79
,,,,,,,,,,,,,,,,,,,,,,,,,,,,,,,,,,,,43.39400005,e,RABIE,FALSE,,,,,,,176,samarreta,Catalan,Sounds/cat_samarreta.mp3,2020-06-19_09h35.18.844,TranslationElicitation_spa,3.2.4,Win32,60,55kvweighibv82hihv9322hhfh,1,0,80,68,1,79
,,,,,,,,,,,,,,,,,,,,,,,,,,,,,,,,,,,,43.63999987,t,RABIET,FALSE,,,,,,,176,samarreta,Catalan,Sounds/cat_samarreta.mp3,2020-06-19_09h35.18.844,TranslationElicitation_spa,3.2.4,Win32,60,55kvweighibv82hihv9322hhfh,1,0,80,68,1,79
,,,,,,,,,,,,,,,,,,,,,,,,,,,,,,,,,,,,43.9519999,a,RABIETA,FALSE,,,,,,,176,samarreta,Catalan,Sounds/cat_samarreta.mp3,2020-06-19_09h35.18.844,TranslationElicitation_spa,3.2.4,Win32,60,55kvweighibv82hihv9322hhfh,1,0,80,68,1,79
,,,,,,,,,,,,,,,,,,,,,,,,,,,,,,,,,,,44.64299989,44.64299989,return,,FALSE,,,,,,,176,samarreta,Catalan,Sounds/cat_samarreta.mp3,2020-06-19_09h35.18.844,TranslationElicitation_spa,3.2.4,Win32,60,55kvweighibv82hihv9322hhfh,1,0,80,68,1,79
,,,,,,,,,,,,,,,,,,,,,,,,,,,,,,,,,,,,,,,,,,,,,,176,samarreta,Catalan,Sounds/cat_samarreta.mp3,2020-06-19_09h35.18.844,TranslationElicitation_spa,3.2.4,Win32,60,55kvweighibv82hihv9322hhfh,1,0,80,68,1,79
,,,,,,,,,,,,,,,,,,,,,,,,,,,,,,,,,,,,2.421999931,e,E,FALSE,,,,,,,132,estrella,Catalan,Sounds/cat_estrella.mp3,2020-06-19_09h35.18.844,TranslationElicitation_spa,3.2.4,Win32,60,55kvweighibv82hihv9322hhfh,1,0,80,27,1,79
,,,,,,,,,,,,,,,,,,,,,,,,,,,,,,,,,,,,2.605999947,s,ES,FALSE,,,,,,,132,estrella,Catalan,Sounds/cat_estrella.mp3,2020-06-19_09h35.18.844,TranslationElicitation_spa,3.2.4,Win32,60,55kvweighibv82hihv9322hhfh,1,0,80,27,1,79
,,,,,,,,,,,,,,,,,,,,,,,,,,,,,,,,,,,,2.891000032,t,EST,FALSE,,,,,,,132,estrella,Catalan,Sounds/cat_estrella.mp3,2020-06-19_09h35.18.844,TranslationElicitation_spa,3.2.4,Win32,60,55kvweighibv82hihv9322hhfh,1,0,80,27,1,79
,,,,,,,,,,,,,,,,,,,,,,,,,,,,,,,,,,,,2.920000076,r,ESTR,FALSE,,,,,,,132,estrella,Catalan,Sounds/cat_estrella.mp3,2020-06-19_09h35.18.844,TranslationElicitation_spa,3.2.4,Win32,60,55kvweighibv82hihv9322hhfh,1,0,80,27,1,79
,,,,,,,,,,,,,,,,,,,,,,,,,,,,,,,,,,,,3.131999969,e,ESTRE,FALSE,,,,,,,132,estrella,Catalan,Sounds/cat_estrella.mp3,2020-06-19_09h35.18.844,TranslationElicitation_spa,3.2.4,Win32,60,55kvweighibv82hihv9322hhfh,1,0,80,27,1,79
,,,,,,,,,,,,,,,,,,,,,,,,,,,,,,,,,,,,3.63499999,l,ESTREL,FALSE,,,,,,,132,estrella,Catalan,Sounds/cat_estrella.mp3,2020-06-19_09h35.18.844,TranslationElicitation_spa,3.2.4,Win32,60,55kvweighibv82hihv9322hhfh,1,0,80,27,1,79
,,,,,,,,,,,,,,,,,,,,,,,,,,,,,,,,,,,,3.756000042,l,ESTRELL,FALSE,,,,,,,132,estrella,Catalan,Sounds/cat_estrella.mp3,2020-06-19_09h35.18.844,TranslationElicitation_spa,3.2.4,Win32,60,55kvweighibv82hihv9322hhfh,1,0,80,27,1,79
,,,,,,,,,,,,,,,,,,,,,,,,,,,,,,,,,,,,3.877000093,a,ESTRELLA,FALSE,,,,,,,132,estrella,Catalan,Sounds/cat_estrella.mp3,2020-06-19_09h35.18.844,TranslationElicitation_spa,3.2.4,Win32,60,55kvweighibv82hihv9322hhfh,1,0,80,27,1,79
,,,,,,,,,,,,,,,,,,,,,,,,,,,,,,,,,,,4.06400013,4.06400013,return,,FALSE,,,,,,,132,estrella,Catalan,Sounds/cat_estrella.mp3,2020-06-19_09h35.18.844,TranslationElicitation_spa,3.2.4,Win32,60,55kvweighibv82hihv9322hhfh,1,0,80,27,1,79
,,,,,,,,,,,,,,,,,,,,,,,,,,,,,,,,,,,,,,,,,,,,,,132,estrella,Catalan,Sounds/cat_estrella.mp3,2020-06-19_09h35.18.844,TranslationElicitation_spa,3.2.4,Win32,60,55kvweighibv82hihv9322hhfh,1,0,80,27,1,79
,,,,,,,,,,,,,,,,,,,,,,,,,,,,,,,,,,,,13.56700015,d,D,FALSE,,,,,,,129,dit,Catalan,Sounds/cat_dit.mp3,2020-06-19_09h35.18.844,TranslationElicitation_spa,3.2.4,Win32,60,55kvweighibv82hihv9322hhfh,1,0,80,24,1,79
,,,,,,,,,,,,,,,,,,,,,,,,,,,,,,,,,,,,13.648,i,DI,FALSE,,,,,,,129,dit,Catalan,Sounds/cat_dit.mp3,2020-06-19_09h35.18.844,TranslationElicitation_spa,3.2.4,Win32,60,55kvweighibv82hihv9322hhfh,1,0,80,24,1,79
,,,,,,,,,,,,,,,,,,,,,,,,,,,,,,,,,,,,13.898,m,DIM,FALSE,,,,,,,129,dit,Catalan,Sounds/cat_dit.mp3,2020-06-19_09h35.18.844,TranslationElicitation_spa,3.2.4,Win32,60,55kvweighibv82hihv9322hhfh,1,0,80,24,1,79
,,,,,,,,,,,,,,,,,,,,,,,,,,,,,,,,,,,,13.93400002,e,DIME,FALSE,,,,,,,129,dit,Catalan,Sounds/cat_dit.mp3,2020-06-19_09h35.18.844,TranslationElicitation_spa,3.2.4,Win32,60,55kvweighibv82hihv9322hhfh,1,0,80,24,1,79
,,,,,,,,,,,,,,,,,,,,,,,,,,,,,,,,,,,15.29500008,15.29500008,return,,FALSE,,,,,,,129,dit,Catalan,Sounds/cat_dit.mp3,2020-06-19_09h35.18.844,TranslationElicitation_spa,3.2.4,Win32,60,55kvweighibv82hihv9322hhfh,1,0,80,24,1,79
,,,,,,,,,,,,,,,,,,,,,,,,,,,,,,,,,,,,,,,,,,,,,,129,dit,Catalan,Sounds/cat_dit.mp3,2020-06-19_09h35.18.844,TranslationElicitation_spa,3.2.4,Win32,60,55kvweighibv82hihv9322hhfh,1,0,80,24,1,79
,,,,,,,,,,,,,,,,,,,,,,,,,,,,,,,,,,,,39.53500009,p,P,FALSE,,,,,,,171,pollastre,Catalan,Sounds/cat_pollastre.mp3,2020-06-19_09h35.18.844,TranslationElicitation_spa,3.2.4,Win32,60,55kvweighibv82hihv9322hhfh,1,0,80,63,1,79
,,,,,,,,,,,,,,,,,,,,,,,,,,,,,,,,,,,,39.65100002,u,PU,FALSE,,,,,,,171,pollastre,Catalan,Sounds/cat_pollastre.mp3,2020-06-19_09h35.18.844,TranslationElicitation_spa,3.2.4,Win32,60,55kvweighibv82hihv9322hhfh,1,0,80,63,1,79
,,,,,,,,,,,,,,,,,,,,,,,,,,,,,,,,,,,,39.97099996,r,PUR,FALSE,,,,,,,171,pollastre,Catalan,Sounds/cat_pollastre.mp3,2020-06-19_09h35.18.844,TranslationElicitation_spa,3.2.4,Win32,60,55kvweighibv82hihv9322hhfh,1,0,80,63,1,79
,,,,,,,,,,,,,,,,,,,,,,,,,,,,,,,,,,,,40.9230001,apostrophe,PUR,FALSE,,,,,,,171,pollastre,Catalan,Sounds/cat_pollastre.mp3,2020-06-19_09h35.18.844,TranslationElicitation_spa,3.2.4,Win32,60,55kvweighibv82hihv9322hhfh,1,0,80,63,1,79
,,,,,,,,,,,,,,,,,,,,,,,,,,,,,,,,,,,,41.03999996,e,PURÉ,FALSE,,,,,,,171,pollastre,Catalan,Sounds/cat_pollastre.mp3,2020-06-19_09h35.18.844,TranslationElicitation_spa,3.2.4,Win32,60,55kvweighibv82hihv9322hhfh,1,0,80,63,1,79
,,,,,,,,,,,,,,,,,,,,,,,,,,,,,,,,,,,41.45300007,41.45300007,return,,FALSE,,,,,,,171,pollastre,Catalan,Sounds/cat_pollastre.mp3,2020-06-19_09h35.18.844,TranslationElicitation_spa,3.2.4,Win32,60,55kvweighibv82hihv9322hhfh,1,0,80,63,1,79
,,,,,,,,,,,,,,,,,,,,,,,,,,,,,,,,,,,,,,,,,,,,,,171,pollastre,Catalan,Sounds/cat_pollastre.mp3,2020-06-19_09h35.18.844,TranslationElicitation_spa,3.2.4,Win32,60,55kvweighibv82hihv9322hhfh,1,0,80,63,1,79
,,,,,,,,,,,,,,,,,,,,,,,,,,,,,,,,,,,,2.740999937,q,Q,FALSE,,,,,,,128,cuc,Catalan,Sounds/cat_cuc.mp3,2020-06-19_09h35.18.844,TranslationElicitation_spa,3.2.4,Win32,60,55kvweighibv82hihv9322hhfh,1,0,80,23,1,79
,,,,,,,,,,,,,,,,,,,,,,,,,,,,,,,,,,,4.079999924,4.079999924,return,,FALSE,,,,,,,128,cuc,Catalan,Sounds/cat_cuc.mp3,2020-06-19_09h35.18.844,TranslationElicitation_spa,3.2.4,Win32,60,55kvweighibv82hihv9322hhfh,1,0,80,23,1,79
,,,,,,,,,,,,,,,,,,,,,,,,,,,,,,,,,,,,,,,,,,,,,,128,cuc,Catalan,Sounds/cat_cuc.mp3,2020-06-19_09h35.18.844,TranslationElicitation_spa,3.2.4,Win32,60,55kvweighibv82hihv9322hhfh,1,0,80,23,1,79
,,,,,,,,,,,,,,,,,,,,,,,,,,,,,,,,,,,,1.694999933,m,M,FALSE,,,,,,,154,mirall,Catalan,Sounds/cat_mirall.mp3,2020-06-19_09h35.18.844,TranslationElicitation_spa,3.2.4,Win32,60,55kvweighibv82hihv9322hhfh,1,0,80,48,1,79
,,,,,,,,,,,,,,,,,,,,,,,,,,,,,,,,,,,,1.822999954,i,MI,FALSE,,,,,,,154,mirall,Catalan,Sounds/cat_mirall.mp3,2020-06-19_09h35.18.844,TranslationElicitation_spa,3.2.4,Win32,60,55kvweighibv82hihv9322hhfh,1,0,80,48,1,79
,,,,,,,,,,,,,,,,,,,,,,,,,,,,,,,,,,,,1.981999874,r,MIR,FALSE,,,,,,,154,mirall,Catalan,Sounds/cat_mirall.mp3,2020-06-19_09h35.18.844,TranslationElicitation_spa,3.2.4,Win32,60,55kvweighibv82hihv9322hhfh,1,0,80,48,1,79
,,,,,,,,,,,,,,,,,,,,,,,,,,,,,,,,,,,,2.201999903,a,MIRA,FALSE,,,,,,,154,mirall,Catalan,Sounds/cat_mirall.mp3,2020-06-19_09h35.18.844,TranslationElicitation_spa,3.2.4,Win32,60,55kvweighibv82hihv9322hhfh,1,0,80,48,1,79
,,,,,,,,,,,,,,,,,,,,,,,,,,,,,,,,,,,,2.43599987,r,MIRAR,FALSE,,,,,,,154,mirall,Catalan,Sounds/cat_mirall.mp3,2020-06-19_09h35.18.844,TranslationElicitation_spa,3.2.4,Win32,60,55kvweighibv82hihv9322hhfh,1,0,80,48,1,79
,,,,,,,,,,,,,,,,,,,,,,,,,,,,,,,,,,,3.583999872,3.583999872,return,,FALSE,,,,,,,154,mirall,Catalan,Sounds/cat_mirall.mp3,2020-06-19_09h35.18.844,TranslationElicitation_spa,3.2.4,Win32,60,55kvweighibv82hihv9322hhfh,1,0,80,48,1,79
,,,,,,,,,,,,,,,,,,,,,,,,,,,,,,,,,,,,,,,,,,,,,,154,mirall,Catalan,Sounds/cat_mirall.mp3,2020-06-19_09h35.18.844,TranslationElicitation_spa,3.2.4,Win32,60,55kvweighibv82hihv9322hhfh,1,0,80,48,1,79
,,,,,,,,,,,,,,,,,,,,,,,,,,,,,,,,,,,,1.440999985,p,P,FALSE,,,,,,,168,planta,Catalan,Sounds/cat_planta.mp3,2020-06-19_09h35.18.844,TranslationElicitation_spa,3.2.4,Win32,60,55kvweighibv82hihv9322hhfh,1,0,80,60,1,79
,,,,,,,,,,,,,,,,,,,,,,,,,,,,,,,,,,,,1.605000019,l,PL,FALSE,,,,,,,168,planta,Catalan,Sounds/cat_planta.mp3,2020-06-19_09h35.18.844,TranslationElicitation_spa,3.2.4,Win32,60,55kvweighibv82hihv9322hhfh,1,0,80,60,1,79
,,,,,,,,,,,,,,,,,,,,,,,,,,,,,,,,,,,,1.786000013,a,PLA,FALSE,,,,,,,168,planta,Catalan,Sounds/cat_planta.mp3,2020-06-19_09h35.18.844,TranslationElicitation_spa,3.2.4,Win32,60,55kvweighibv82hihv9322hhfh,1,0,80,60,1,79
,,,,,,,,,,,,,,,,,,,,,,,,,,,,,,,,,,,,2.059999943,n,PLAN,FALSE,,,,,,,168,planta,Catalan,Sounds/cat_planta.mp3,2020-06-19_09h35.18.844,TranslationElicitation_spa,3.2.4,Win32,60,55kvweighibv82hihv9322hhfh,1,0,80,60,1,79
,,,,,,,,,,,,,,,,,,,,,,,,,,,,,,,,,,,,2.641000032,t,PLANT,FALSE,,,,,,,168,planta,Catalan,Sounds/cat_planta.mp3,2020-06-19_09h35.18.844,TranslationElicitation_spa,3.2.4,Win32,60,55kvweighibv82hihv9322hhfh,1,0,80,60,1,79
,,,,,,,,,,,,,,,,,,,,,,,,,,,,,,,,,,,,2.917000055,a,PLANTA,FALSE,,,,,,,168,planta,Catalan,Sounds/cat_planta.mp3,2020-06-19_09h35.18.844,TranslationElicitation_spa,3.2.4,Win32,60,55kvweighibv82hihv9322hhfh,1,0,80,60,1,79
,,,,,,,,,,,,,,,,,,,,,,,,,,,,,,,,,,,3.176000118,3.176000118,return,,FALSE,,,,,,,168,planta,Catalan,Sounds/cat_planta.mp3,2020-06-19_09h35.18.844,TranslationElicitation_spa,3.2.4,Win32,60,55kvweighibv82hihv9322hhfh,1,0,80,60,1,79
,,,,,,,,,,,,,,,,,,,,,,,,,,,,,,,,,,,,,,,,,,,,,,168,planta,Catalan,Sounds/cat_planta.mp3,2020-06-19_09h35.18.844,TranslationElicitation_spa,3.2.4,Win32,60,55kvweighibv82hihv9322hhfh,1,0,80,60,1,79
,,,,,,,,,,,,,,,,,,,,,,,,,,,,,,,,,,,,5.470000029,p,P,FALSE,,,,,,,163,papallona,Catalan,Sounds/cat_papallona.mp3,2020-06-19_09h35.18.844,TranslationElicitation_spa,3.2.4,Win32,60,55kvweighibv82hihv9322hhfh,1,0,80,56,1,79
,,,,,,,,,,,,,,,,,,,,,,,,,,,,,,,,,,,,5.633000135,a,PA,FALSE,,,,,,,163,papallona,Catalan,Sounds/cat_papallona.mp3,2020-06-19_09h35.18.844,TranslationElicitation_spa,3.2.4,Win32,60,55kvweighibv82hihv9322hhfh,1,0,80,56,1,79
,,,,,,,,,,,,,,,,,,,,,,,,,,,,,,,,,,,,5.732000113,p,PAP,FALSE,,,,,,,163,papallona,Catalan,Sounds/cat_papallona.mp3,2020-06-19_09h35.18.844,TranslationElicitation_spa,3.2.4,Win32,60,55kvweighibv82hihv9322hhfh,1,0,80,56,1,79
,,,,,,,,,,,,,,,,,,,,,,,,,,,,,,,,,,,,5.844000101,a,PAPA,FALSE,,,,,,,163,papallona,Catalan,Sounds/cat_papallona.mp3,2020-06-19_09h35.18.844,TranslationElicitation_spa,3.2.4,Win32,60,55kvweighibv82hihv9322hhfh,1,0,80,56,1,79
,,,,,,,,,,,,,,,,,,,,,,,,,,,,,,,,,,,,6.440999985,y,PAPAY,FALSE,,,,,,,163,papallona,Catalan,Sounds/cat_papallona.mp3,2020-06-19_09h35.18.844,TranslationElicitation_spa,3.2.4,Win32,60,55kvweighibv82hihv9322hhfh,1,0,80,56,1,79
,,,,,,,,,,,,,,,,,,,,,,,,,,,,,,,,,,,,6.746999979,a,PAPAYA,FALSE,,,,,,,163,papallona,Catalan,Sounds/cat_papallona.mp3,2020-06-19_09h35.18.844,TranslationElicitation_spa,3.2.4,Win32,60,55kvweighibv82hihv9322hhfh,1,0,80,56,1,79
,,,,,,,,,,,,,,,,,,,,,,,,,,,,,,,,,,,7.095000029,7.095000029,return,,FALSE,,,,,,,163,papallona,Catalan,Sounds/cat_papallona.mp3,2020-06-19_09h35.18.844,TranslationElicitation_spa,3.2.4,Win32,60,55kvweighibv82hihv9322hhfh,1,0,80,56,1,79
,,,,,,,,,,,,,,,,,,,,,,,,,,,,,,,,,,,,,,,,,,,,,,163,papallona,Catalan,Sounds/cat_papallona.mp3,2020-06-19_09h35.18.844,TranslationElicitation_spa,3.2.4,Win32,60,55kvweighibv82hihv9322hhfh,1,0,80,56,1,79
,,,,,,,,,,,,,,,,,,,,,,,,,,,,,,,,,,,,1.708999872,t,T,FALSE,,,,,,,180,tisores,Catalan,Sounds/cat_tisores.mp3,2020-06-19_09h35.18.844,TranslationElicitation_spa,3.2.4,Win32,60,55kvweighibv82hihv9322hhfh,1,0,80,71,1,79
,,,,,,,,,,,,,,,,,,,,,,,,,,,,,,,,,,,,1.748999834,e,TE,FALSE,,,,,,,180,tisores,Catalan,Sounds/cat_tisores.mp3,2020-06-19_09h35.18.844,TranslationElicitation_spa,3.2.4,Win32,60,55kvweighibv82hihv9322hhfh,1,0,80,71,1,79
,,,,,,,,,,,,,,,,,,,,,,,,,,,,,,,,,,,,1.981999874,s,TES,FALSE,,,,,,,180,tisores,Catalan,Sounds/cat_tisores.mp3,2020-06-19_09h35.18.844,TranslationElicitation_spa,3.2.4,Win32,60,55kvweighibv82hihv9322hhfh,1,0,80,71,1,79
,,,,,,,,,,,,,,,,,,,,,,,,,,,,,,,,,,,,2.089999914,o,TESO,FALSE,,,,,,,180,tisores,Catalan,Sounds/cat_tisores.mp3,2020-06-19_09h35.18.844,TranslationElicitation_spa,3.2.4,Win32,60,55kvweighibv82hihv9322hhfh,1,0,80,71,1,79
,,,,,,,,,,,,,,,,,,,,,,,,,,,,,,,,,,,,2.309999943,r,TESOR,FALSE,,,,,,,180,tisores,Catalan,Sounds/cat_tisores.mp3,2020-06-19_09h35.18.844,TranslationElicitation_spa,3.2.4,Win32,60,55kvweighibv82hihv9322hhfh,1,0,80,71,1,79
,,,,,,,,,,,,,,,,,,,,,,,,,,,,,,,,,,,,2.421999931,o,TESORO,FALSE,,,,,,,180,tisores,Catalan,Sounds/cat_tisores.mp3,2020-06-19_09h35.18.844,TranslationElicitation_spa,3.2.4,Win32,60,55kvweighibv82hihv9322hhfh,1,0,80,71,1,79
,,,,,,,,,,,,,,,,,,,,,,,,,,,,,,,,,,,,2.551999807,s,TESOROS,FALSE,,,,,,,180,tisores,Catalan,Sounds/cat_tisores.mp3,2020-06-19_09h35.18.844,TranslationElicitation_spa,3.2.4,Win32,60,55kvweighibv82hihv9322hhfh,1,0,80,71,1,79
,,,,,,,,,,,,,,,,,,,,,,,,,,,,,,,,,,,2.98300004,2.98300004,return,,FALSE,,,,,,,180,tisores,Catalan,Sounds/cat_tisores.mp3,2020-06-19_09h35.18.844,TranslationElicitation_spa,3.2.4,Win32,60,55kvweighibv82hihv9322hhfh,1,0,80,71,1,79
,,,,,,,,,,,,,,,,,,,,,,,,,,,,,,,,,,,,,,,,,,,,,,180,tisores,Catalan,Sounds/cat_tisores.mp3,2020-06-19_09h35.18.844,TranslationElicitation_spa,3.2.4,Win32,60,55kvweighibv82hihv9322hhfh,1,0,80,71,1,79
,,,,,,,,,,,,,,,,,,,,,,,,,,,,,,,,,,,,1.666999817,h,H,FALSE,,,,,,,135,formiga,Catalan,Sounds/cat_formiga.mp3,2020-06-19_09h35.18.844,TranslationElicitation_spa,3.2.4,Win32,60,55kvweighibv82hihv9322hhfh,1,0,80,30,1,79
,,,,,,,,,,,,,,,,,,,,,,,,,,,,,,,,,,,,1.765999794,o,HO,FALSE,,,,,,,135,formiga,Catalan,Sounds/cat_formiga.mp3,2020-06-19_09h35.18.844,TranslationElicitation_spa,3.2.4,Win32,60,55kvweighibv82hihv9322hhfh,1,0,80,30,1,79
,,,,,,,,,,,,,,,,,,,,,,,,,,,,,,,,,,,,1.909999847,r,HOR,FALSE,,,,,,,135,formiga,Catalan,Sounds/cat_formiga.mp3,2020-06-19_09h35.18.844,TranslationElicitation_spa,3.2.4,Win32,60,55kvweighibv82hihv9322hhfh,1,0,80,30,1,79
,,,,,,,,,,,,,,,,,,,,,,,,,,,,,,,,,,,,2.06099987,m,HORM,FALSE,,,,,,,135,formiga,Catalan,Sounds/cat_formiga.mp3,2020-06-19_09h35.18.844,TranslationElicitation_spa,3.2.4,Win32,60,55kvweighibv82hihv9322hhfh,1,0,80,30,1,79
,,,,,,,,,,,,,,,,,,,,,,,,,,,,,,,,,,,,2.196999788,i,HORMI,FALSE,,,,,,,135,formiga,Catalan,Sounds/cat_formiga.mp3,2020-06-19_09h35.18.844,TranslationElicitation_spa,3.2.4,Win32,60,55kvweighibv82hihv9322hhfh,1,0,80,30,1,79
,,,,,,,,,,,,,,,,,,,,,,,,,,,,,,,,,,,,2.385999918,g,HORMIG,FALSE,,,,,,,135,formiga,Catalan,Sounds/cat_formiga.mp3,2020-06-19_09h35.18.844,TranslationElicitation_spa,3.2.4,Win32,60,55kvweighibv82hihv9322hhfh,1,0,80,30,1,79
,,,,,,,,,,,,,,,,,,,,,,,,,,,,,,,,,,,,2.622999907,a,HORMIGA,FALSE,,,,,,,135,formiga,Catalan,Sounds/cat_formiga.mp3,2020-06-19_09h35.18.844,TranslationElicitation_spa,3.2.4,Win32,60,55kvweighibv82hihv9322hhfh,1,0,80,30,1,79
,,,,,,,,,,,,,,,,,,,,,,,,,,,,,,,,,,,3.07799983,3.07799983,return,,FALSE,,,,,,,135,formiga,Catalan,Sounds/cat_formiga.mp3,2020-06-19_09h35.18.844,TranslationElicitation_spa,3.2.4,Win32,60,55kvweighibv82hihv9322hhfh,1,0,80,30,1,79
,,,,,,,,,,,,,,,,,,,,,,,,,,,,,,,,,,,,,,,,,,,,,,135,formiga,Catalan,Sounds/cat_formiga.mp3,2020-06-19_09h35.18.844,TranslationElicitation_spa,3.2.4,Win32,60,55kvweighibv82hihv9322hhfh,1,0,80,30,1,79
,,,,,,,,,,,,,,,,,,,,,,,,,,,,,,,,,,,,10.48099995,b,B,FALSE,,,,,,,187,vaixell,Catalan,Sounds/cat_vaixell.mp3,2020-06-19_09h35.18.844,TranslationElicitation_spa,3.2.4,Win32,60,55kvweighibv82hihv9322hhfh,1,0,80,77,1,79
,,,,,,,,,,,,,,,,,,,,,,,,,,,,,,,,,,,,11.12100005,a,BA,FALSE,,,,,,,187,vaixell,Catalan,Sounds/cat_vaixell.mp3,2020-06-19_09h35.18.844,TranslationElicitation_spa,3.2.4,Win32,60,55kvweighibv82hihv9322hhfh,1,0,80,77,1,79
,,,,,,,,,,,,,,,,,,,,,,,,,,,,,,,,,,,,11.3210001,c,BAC,FALSE,,,,,,,187,vaixell,Catalan,Sounds/cat_vaixell.mp3,2020-06-19_09h35.18.844,TranslationElicitation_spa,3.2.4,Win32,60,55kvweighibv82hihv9322hhfh,1,0,80,77,1,79
,,,,,,,,,,,,,,,,,,,,,,,,,,,,,,,,,,,,11.421,h,BACH,FALSE,,,,,,,187,vaixell,Catalan,Sounds/cat_vaixell.mp3,2020-06-19_09h35.18.844,TranslationElicitation_spa,3.2.4,Win32,60,55kvweighibv82hihv9322hhfh,1,0,80,77,1,79
,,,,,,,,,,,,,,,,,,,,,,,,,,,,,,,,,,,,11.54999995,e,BACHE,FALSE,,,,,,,187,vaixell,Catalan,Sounds/cat_vaixell.mp3,2020-06-19_09h35.18.844,TranslationElicitation_spa,3.2.4,Win32,60,55kvweighibv82hihv9322hhfh,1,0,80,77,1,79
,,,,,,,,,,,,,,,,,,,,,,,,,,,,,,,,,,,13.23300004,13.23300004,return,,FALSE,,,,,,,187,vaixell,Catalan,Sounds/cat_vaixell.mp3,2020-06-19_09h35.18.844,TranslationElicitation_spa,3.2.4,Win32,60,55kvweighibv82hihv9322hhfh,1,0,80,77,1,79
,,,,,,,,,,,,,,,,,,,,,,,,,,,,,,,,,,,,,,,,,,,,,,187,vaixell,Catalan,Sounds/cat_vaixell.mp3,2020-06-19_09h35.18.844,TranslationElicitation_spa,3.2.4,Win32,60,55kvweighibv82hihv9322hhfh,1,0,80,77,1,79
,,,,,,,,,,,,,,,,,,,,,,,,,,,,,,,,,,,,3.771999836,h,H,FALSE,,,,,,,137,fulla,Catalan,Sounds/cat_fulla.mp3,2020-06-19_09h35.18.844,TranslationElicitation_spa,3.2.4,Win32,60,55kvweighibv82hihv9322hhfh,1,0,80,32,1,79
,,,,,,,,,,,,,,,,,,,,,,,,,,,,,,,,,,,,3.888999939,o,HO,FALSE,,,,,,,137,fulla,Catalan,Sounds/cat_fulla.mp3,2020-06-19_09h35.18.844,TranslationElicitation_spa,3.2.4,Win32,60,55kvweighibv82hihv9322hhfh,1,0,80,32,1,79
,,,,,,,,,,,,,,,,,,,,,,,,,,,,,,,,,,,,4.307999849,backspace,,TRUE,,,,,,,137,fulla,Catalan,Sounds/cat_fulla.mp3,2020-06-19_09h35.18.844,TranslationElicitation_spa,3.2.4,Win32,60,55kvweighibv82hihv9322hhfh,1,0,80,32,1,79
,,,,,,,,,,,,,,,,,,,,,,,,,,,,,,,,,,,,4.483999968,backspace,,TRUE,,,,,,,137,fulla,Catalan,Sounds/cat_fulla.mp3,2020-06-19_09h35.18.844,TranslationElicitation_spa,3.2.4,Win32,60,55kvweighibv82hihv9322hhfh,1,0,80,32,1,79
,,,,,,,,,,,,,,,,,,,,,,,,,,,,,,,,,,,,5.13499999,f,F,TRUE,,,,,,,137,fulla,Catalan,Sounds/cat_fulla.mp3,2020-06-19_09h35.18.844,TranslationElicitation_spa,3.2.4,Win32,60,55kvweighibv82hihv9322hhfh,1,0,80,32,1,79
,,,,,,,,,,,,,,,,,,,,,,,,,,,,,,,,,,,,5.294999838,o,FO,TRUE,,,,,,,137,fulla,Catalan,Sounds/cat_fulla.mp3,2020-06-19_09h35.18.844,TranslationElicitation_spa,3.2.4,Win32,60,55kvweighibv82hihv9322hhfh,1,0,80,32,1,79
,,,,,,,,,,,,,,,,,,,,,,,,,,,,,,,,,,,,5.501999855,l,FOL,TRUE,,,,,,,137,fulla,Catalan,Sounds/cat_fulla.mp3,2020-06-19_09h35.18.844,TranslationElicitation_spa,3.2.4,Win32,60,55kvweighibv82hihv9322hhfh,1,0,80,32,1,79
,,,,,,,,,,,,,,,,,,,,,,,,,,,,,,,,,,,,5.680000067,i,FOLI,TRUE,,,,,,,137,fulla,Catalan,Sounds/cat_fulla.mp3,2020-06-19_09h35.18.844,TranslationElicitation_spa,3.2.4,Win32,60,55kvweighibv82hihv9322hhfh,1,0,80,32,1,79
,,,,,,,,,,,,,,,,,,,,,,,,,,,,,,,,,,,,5.839999914,o,FOLIO,TRUE,,,,,,,137,fulla,Catalan,Sounds/cat_fulla.mp3,2020-06-19_09h35.18.844,TranslationElicitation_spa,3.2.4,Win32,60,55kvweighibv82hihv9322hhfh,1,0,80,32,1,79
,,,,,,,,,,,,,,,,,,,,,,,,,,,,,,,,,,,6.438999891,6.438999891,return,,TRUE,,,,,,,137,fulla,Catalan,Sounds/cat_fulla.mp3,2020-06-19_09h35.18.844,TranslationElicitation_spa,3.2.4,Win32,60,55kvweighibv82hihv9322hhfh,1,0,80,32,1,79
,,,,,,,,,,,,,,,,,,,,,,,,,,,,,,,,,,,,,,,,,,,,,,137,fulla,Catalan,Sounds/cat_fulla.mp3,2020-06-19_09h35.18.844,TranslationElicitation_spa,3.2.4,Win32,60,55kvweighibv82hihv9322hhfh,1,0,80,32,1,79
,,,,,,,,,,,,,,,,,,,,,,,,,,,,,,,,,,,,1.878000021,t,T,FALSE,,,,,,,182,tomaquet,Catalan,Sounds/cat_tomaquet.mp3,2020-06-19_09h35.18.844,TranslationElicitation_spa,3.2.4,Win32,60,55kvweighibv82hihv9322hhfh,1,0,80,73,1,79
,,,,,,,,,,,,,,,,,,,,,,,,,,,,,,,,,,,,1.929999828,o,TO,FALSE,,,,,,,182,tomaquet,Catalan,Sounds/cat_tomaquet.mp3,2020-06-19_09h35.18.844,TranslationElicitation_spa,3.2.4,Win32,60,55kvweighibv82hihv9322hhfh,1,0,80,73,1,79
,,,,,,,,,,,,,,,,,,,,,,,,,,,,,,,,,,,,2.251999855,m,TOM,FALSE,,,,,,,182,tomaquet,Catalan,Sounds/cat_tomaquet.mp3,2020-06-19_09h35.18.844,TranslationElicitation_spa,3.2.4,Win32,60,55kvweighibv82hihv9322hhfh,1,0,80,73,1,79
,,,,,,,,,,,,,,,,,,,,,,,,,,,,,,,,,,,,2.345999956,a,TOMA,FALSE,,,,,,,182,tomaquet,Catalan,Sounds/cat_tomaquet.mp3,2020-06-19_09h35.18.844,TranslationElicitation_spa,3.2.4,Win32,60,55kvweighibv82hihv9322hhfh,1,0,80,73,1,79
,,,,,,,,,,,,,,,,,,,,,,,,,,,,,,,,,,,,2.61500001,t,TOMAT,FALSE,,,,,,,182,tomaquet,Catalan,Sounds/cat_tomaquet.mp3,2020-06-19_09h35.18.844,TranslationElicitation_spa,3.2.4,Win32,60,55kvweighibv82hihv9322hhfh,1,0,80,73,1,79
,,,,,,,,,,,,,,,,,,,,,,,,,,,,,,,,,,,,2.707000017,e,TOMATE,FALSE,,,,,,,182,tomaquet,Catalan,Sounds/cat_tomaquet.mp3,2020-06-19_09h35.18.844,TranslationElicitation_spa,3.2.4,Win32,60,55kvweighibv82hihv9322hhfh,1,0,80,73,1,79
,,,,,,,,,,,,,,,,,,,,,,,,,,,,,,,,,,,3.453999996,3.454999924,return,,FALSE,,,,,,,182,tomaquet,Catalan,Sounds/cat_tomaquet.mp3,2020-06-19_09h35.18.844,TranslationElicitation_spa,3.2.4,Win32,60,55kvweighibv82hihv9322hhfh,1,0,80,73,1,79
,,,,,,,,,,,,,,,,,,,,,,,,,,,,,,,,,,,,,,,,,,,,,,182,tomaquet,Catalan,Sounds/cat_tomaquet.mp3,2020-06-19_09h35.18.844,TranslationElicitation_spa,3.2.4,Win32,60,55kvweighibv82hihv9322hhfh,1,0,80,73,1,79
,,,,,,,,,,,,,,,,,,,,,,,,,,,,,,,,,,,,2.289000034,p,P,FALSE,,,,,,,169,plat,Catalan,Sounds/cat_plat.mp3,2020-06-19_09h35.18.844,TranslationElicitation_spa,3.2.4,Win32,60,55kvweighibv82hihv9322hhfh,1,0,80,61,1,79
,,,,,,,,,,,,,,,,,,,,,,,,,,,,,,,,,,,,2.414999962,l,PL,FALSE,,,,,,,169,plat,Catalan,Sounds/cat_plat.mp3,2020-06-19_09h35.18.844,TranslationElicitation_spa,3.2.4,Win32,60,55kvweighibv82hihv9322hhfh,1,0,80,61,1,79
,,,,,,,,,,,,,,,,,,,,,,,,,,,,,,,,,,,,2.500999928,a,PLA,FALSE,,,,,,,169,plat,Catalan,Sounds/cat_plat.mp3,2020-06-19_09h35.18.844,TranslationElicitation_spa,3.2.4,Win32,60,55kvweighibv82hihv9322hhfh,1,0,80,61,1,79
,,,,,,,,,,,,,,,,,,,,,,,,,,,,,,,,,,,,2.796999931,t,PLAT,FALSE,,,,,,,169,plat,Catalan,Sounds/cat_plat.mp3,2020-06-19_09h35.18.844,TranslationElicitation_spa,3.2.4,Win32,60,55kvweighibv82hihv9322hhfh,1,0,80,61,1,79
,,,,,,,,,,,,,,,,,,,,,,,,,,,,,,,,,,,,4.348999977,a,PLATA,FALSE,,,,,,,169,plat,Catalan,Sounds/cat_plat.mp3,2020-06-19_09h35.18.844,TranslationElicitation_spa,3.2.4,Win32,60,55kvweighibv82hihv9322hhfh,1,0,80,61,1,79
,,,,,,,,,,,,,,,,,,,,,,,,,,,,,,,,,,,4.707000017,4.707000017,return,,FALSE,,,,,,,169,plat,Catalan,Sounds/cat_plat.mp3,2020-06-19_09h35.18.844,TranslationElicitation_spa,3.2.4,Win32,60,55kvweighibv82hihv9322hhfh,1,0,80,61,1,79
,,,,,,,,,,,,,,,,,,,,,,,,,,,,,,,,,,,,,,,,,,,,,,169,plat,Catalan,Sounds/cat_plat.mp3,2020-06-19_09h35.18.844,TranslationElicitation_spa,3.2.4,Win32,60,55kvweighibv82hihv9322hhfh,1,0,80,61,1,79
,,,,,,,,,,,,,,,,,,,,,,,,,,,,,,,,,,,,1.531000137,m,M,FALSE,,,,,,,156,moto,Catalan,Sounds/cat_moto.mp3,2020-06-19_09h35.18.844,TranslationElicitation_spa,3.2.4,Win32,60,55kvweighibv82hihv9322hhfh,1,0,80,50,1,79
,,,,,,,,,,,,,,,,,,,,,,,,,,,,,,,,,,,,1.644000053,o,MO,FALSE,,,,,,,156,moto,Catalan,Sounds/cat_moto.mp3,2020-06-19_09h35.18.844,TranslationElicitation_spa,3.2.4,Win32,60,55kvweighibv82hihv9322hhfh,1,0,80,50,1,79
,,,,,,,,,,,,,,,,,,,,,,,,,,,,,,,,,,,,1.781000137,t,MOT,FALSE,,,,,,,156,moto,Catalan,Sounds/cat_moto.mp3,2020-06-19_09h35.18.844,TranslationElicitation_spa,3.2.4,Win32,60,55kvweighibv82hihv9322hhfh,1,0,80,50,1,79
,,,,,,,,,,,,,,,,,,,,,,,,,,,,,,,,,,,,1.876000166,o,MOTO,FALSE,,,,,,,156,moto,Catalan,Sounds/cat_moto.mp3,2020-06-19_09h35.18.844,TranslationElicitation_spa,3.2.4,Win32,60,55kvweighibv82hihv9322hhfh,1,0,80,50,1,79
,,,,,,,,,,,,,,,,,,,,,,,,,,,,,,,,,,,2.521000147,2.521000147,return,,FALSE,,,,,,,156,moto,Catalan,Sounds/cat_moto.mp3,2020-06-19_09h35.18.844,TranslationElicitation_spa,3.2.4,Win32,60,55kvweighibv82hihv9322hhfh,1,0,80,50,1,79
,,,,,,,,,,,,,,,,,,,,,,,,,,,,,,,,,,,,,,,,,,,,,,156,moto,Catalan,Sounds/cat_moto.mp3,2020-06-19_09h35.18.844,TranslationElicitation_spa,3.2.4,Win32,60,55kvweighibv82hihv9322hhfh,1,0,80,50,1,79
,,,,,,,,,,,,,,,,,,,,,,,,,,,,,,,,,,,,3.211999893,h,H,FALSE,,,,,,,141,gerd,Catalan,Sounds/cat_gerd.mp3,2020-06-19_09h35.18.844,TranslationElicitation_spa,3.2.4,Win32,60,55kvweighibv82hihv9322hhfh,1,0,80,36,1,79
,,,,,,,,,,,,,,,,,,,,,,,,,,,,,,,,,,,,3.305999994,i,HI,FALSE,,,,,,,141,gerd,Catalan,Sounds/cat_gerd.mp3,2020-06-19_09h35.18.844,TranslationElicitation_spa,3.2.4,Win32,60,55kvweighibv82hihv9322hhfh,1,0,80,36,1,79
,,,,,,,,,,,,,,,,,,,,,,,,,,,,,,,,,,,,3.427000046,e,HIE,FALSE,,,,,,,141,gerd,Catalan,Sounds/cat_gerd.mp3,2020-06-19_09h35.18.844,TranslationElicitation_spa,3.2.4,Win32,60,55kvweighibv82hihv9322hhfh,1,0,80,36,1,79
,,,,,,,,,,,,,,,,,,,,,,,,,,,,,,,,,,,,3.61500001,r,HIER,FALSE,,,,,,,141,gerd,Catalan,Sounds/cat_gerd.mp3,2020-06-19_09h35.18.844,TranslationElicitation_spa,3.2.4,Win32,60,55kvweighibv82hihv9322hhfh,1,0,80,36,1,79
,,,,,,,,,,,,,,,,,,,,,,,,,,,,,,,,,,,,3.730999947,r,HIERR,FALSE,,,,,,,141,gerd,Catalan,Sounds/cat_gerd.mp3,2020-06-19_09h35.18.844,TranslationElicitation_spa,3.2.4,Win32,60,55kvweighibv82hihv9322hhfh,1,0,80,36,1,79
,,,,,,,,,,,,,,,,,,,,,,,,,,,,,,,,,,,,3.835999966,o,HIERRO,FALSE,,,,,,,141,gerd,Catalan,Sounds/cat_gerd.mp3,2020-06-19_09h35.18.844,TranslationElicitation_spa,3.2.4,Win32,60,55kvweighibv82hihv9322hhfh,1,0,80,36,1,79
,,,,,,,,,,,,,,,,,,,,,,,,,,,,,,,,,,,4.736999989,4.736999989,return,,FALSE,,,,,,,141,gerd,Catalan,Sounds/cat_gerd.mp3,2020-06-19_09h35.18.844,TranslationElicitation_spa,3.2.4,Win32,60,55kvweighibv82hihv9322hhfh,1,0,80,36,1,79
,,,,,,,,,,,,,,,,,,,,,,,,,,,,,,,,,,,,,,,,,,,,,,141,gerd,Catalan,Sounds/cat_gerd.mp3,2020-06-19_09h35.18.844,TranslationElicitation_spa,3.2.4,Win32,60,55kvweighibv82hihv9322hhfh,1,0,80,36,1,79
,,,,,,,,,,,,,,,,,,,,,,,,,,,,,,,,,,,,2.575000048,m,M,FALSE,,,,,,,152,ma,Catalan,Sounds/cat_ma.mp3,2020-06-19_09h35.18.844,TranslationElicitation_spa,3.2.4,Win32,60,55kvweighibv82hihv9322hhfh,1,0,80,46,1,79
,,,,,,,,,,,,,,,,,,,,,,,,,,,,,,,,,,,,2.754999876,a,MA,FALSE,,,,,,,152,ma,Catalan,Sounds/cat_ma.mp3,2020-06-19_09h35.18.844,TranslationElicitation_spa,3.2.4,Win32,60,55kvweighibv82hihv9322hhfh,1,0,80,46,1,79
,,,,,,,,,,,,,,,,,,,,,,,,,,,,,,,,,,,,3.945999861,r,MAR,FALSE,,,,,,,152,ma,Catalan,Sounds/cat_ma.mp3,2020-06-19_09h35.18.844,TranslationElicitation_spa,3.2.4,Win32,60,55kvweighibv82hihv9322hhfh,1,0,80,46,1,79
,,,,,,,,,,,,,,,,,,,,,,,,,,,,,,,,,,,4.23300004,4.23300004,return,,FALSE,,,,,,,152,ma,Catalan,Sounds/cat_ma.mp3,2020-06-19_09h35.18.844,TranslationElicitation_spa,3.2.4,Win32,60,55kvweighibv82hihv9322hhfh,1,0,80,46,1,79
,,,,,,,,,,,,,,,,,,,,,,,,,,,,,,,,,,,,,,,,,,,,,,152,ma,Catalan,Sounds/cat_ma.mp3,2020-06-19_09h35.18.844,TranslationElicitation_spa,3.2.4,Win32,60,55kvweighibv82hihv9322hhfh,1,0,80,46,1,79
,,,,,,,,,,,,,,,,,,,,,,,,,,,,,,,,,,,,1.371000051,c,C,FALSE,,,,,,,126,corona,Catalan,Sounds/cat_corona.mp3,2020-06-19_09h35.18.844,TranslationElicitation_spa,3.2.4,Win32,60,55kvweighibv82hihv9322hhfh,1,0,80,21,1,79
,,,,,,,,,,,,,,,,,,,,,,,,,,,,,,,,,,,,1.486000061,o,CO,FALSE,,,,,,,126,corona,Catalan,Sounds/cat_corona.mp3,2020-06-19_09h35.18.844,TranslationElicitation_spa,3.2.4,Win32,60,55kvweighibv82hihv9322hhfh,1,0,80,21,1,79
,,,,,,,,,,,,,,,,,,,,,,,,,,,,,,,,,,,,1.592000008,r,COR,FALSE,,,,,,,126,corona,Catalan,Sounds/cat_corona.mp3,2020-06-19_09h35.18.844,TranslationElicitation_spa,3.2.4,Win32,60,55kvweighibv82hihv9322hhfh,1,0,80,21,1,79
,,,,,,,,,,,,,,,,,,,,,,,,,,,,,,,,,,,,1.700999975,o,CORO,FALSE,,,,,,,126,corona,Catalan,Sounds/cat_corona.mp3,2020-06-19_09h35.18.844,TranslationElicitation_spa,3.2.4,Win32,60,55kvweighibv82hihv9322hhfh,1,0,80,21,1,79
,,,,,,,,,,,,,,,,,,,,,,,,,,,,,,,,,,,,2.325000048,n,CORON,FALSE,,,,,,,126,corona,Catalan,Sounds/cat_corona.mp3,2020-06-19_09h35.18.844,TranslationElicitation_spa,3.2.4,Win32,60,55kvweighibv82hihv9322hhfh,1,0,80,21,1,79
,,,,,,,,,,,,,,,,,,,,,,,,,,,,,,,,,,,,2.376000166,o,CORONO,FALSE,,,,,,,126,corona,Catalan,Sounds/cat_corona.mp3,2020-06-19_09h35.18.844,TranslationElicitation_spa,3.2.4,Win32,60,55kvweighibv82hihv9322hhfh,1,0,80,21,1,79
,,,,,,,,,,,,,,,,,,,,,,,,,,,,,,,,,,,,3.460999966,backspace,CORO,TRUE,,,,,,,126,corona,Catalan,Sounds/cat_corona.mp3,2020-06-19_09h35.18.844,TranslationElicitation_spa,3.2.4,Win32,60,55kvweighibv82hihv9322hhfh,1,0,80,21,1,79
,,,,,,,,,,,,,,,,,,,,,,,,,,,,,,,,,,,,3.600000143,a,COROA,TRUE,,,,,,,126,corona,Catalan,Sounds/cat_corona.mp3,2020-06-19_09h35.18.844,TranslationElicitation_spa,3.2.4,Win32,60,55kvweighibv82hihv9322hhfh,1,0,80,21,1,79
,,,,,,,,,,,,,,,,,,,,,,,,,,,,,,,,,,,3.840000153,3.840000153,return,,TRUE,,,,,,,126,corona,Catalan,Sounds/cat_corona.mp3,2020-06-19_09h35.18.844,TranslationElicitation_spa,3.2.4,Win32,60,55kvweighibv82hihv9322hhfh,1,0,80,21,1,79
,,,,,,,,,,,,,,,,,,,,,,,,,,,,,,,,,,,,,,,,,,,,,,126,corona,Catalan,Sounds/cat_corona.mp3,2020-06-19_09h35.18.844,TranslationElicitation_spa,3.2.4,Win32,60,55kvweighibv82hihv9322hhfh,1,0,80,21,1,79
,,,,,,,,,,,,,,,,,,,,,,,,,,,,,,,,,,,,3.544000149,p,P,FALSE,,,,,,,172,poma,Catalan,Sounds/cat_poma.mp3,2020-06-19_09h35.18.844,TranslationElicitation_spa,3.2.4,Win32,60,55kvweighibv82hihv9322hhfh,1,0,80,64,1,79
,,,,,,,,,,,,,,,,,,,,,,,,,,,,,,,,,,,,3.694000006,o,PO,FALSE,,,,,,,172,poma,Catalan,Sounds/cat_poma.mp3,2020-06-19_09h35.18.844,TranslationElicitation_spa,3.2.4,Win32,60,55kvweighibv82hihv9322hhfh,1,0,80,64,1,79
,,,,,,,,,,,,,,,,,,,,,,,,,,,,,,,,,,,,3.976999998,m,POM,FALSE,,,,,,,172,poma,Catalan,Sounds/cat_poma.mp3,2020-06-19_09h35.18.844,TranslationElicitation_spa,3.2.4,Win32,60,55kvweighibv82hihv9322hhfh,1,0,80,64,1,79
,,,,,,,,,,,,,,,,,,,,,,,,,,,,,,,,,,,,4.430000067,o,POMO,FALSE,,,,,,,172,poma,Catalan,Sounds/cat_poma.mp3,2020-06-19_09h35.18.844,TranslationElicitation_spa,3.2.4,Win32,60,55kvweighibv82hihv9322hhfh,1,0,80,64,1,79
,,,,,,,,,,,,,,,,,,,,,,,,,,,,,,,,,,,5.137000084,5.137000084,return,,FALSE,,,,,,,172,poma,Catalan,Sounds/cat_poma.mp3,2020-06-19_09h35.18.844,TranslationElicitation_spa,3.2.4,Win32,60,55kvweighibv82hihv9322hhfh,1,0,80,64,1,79
,,,,,,,,,,,,,,,,,,,,,,,,,,,,,,,,,,,,,,,,,,,,,,172,poma,Catalan,Sounds/cat_poma.mp3,2020-06-19_09h35.18.844,TranslationElicitation_spa,3.2.4,Win32,60,55kvweighibv82hihv9322hhfh,1,0,80,64,1,79
,,,,,,,,,,,,,,,,,,,,,,,,,,,,,,,,,,,,1.828000069,c,C,FALSE,,,,,,,189,zebra,Catalan,Sounds/cat_zebra.mp3,2020-06-19_09h35.18.844,TranslationElicitation_spa,3.2.4,Win32,60,55kvweighibv82hihv9322hhfh,1,0,80,79,1,79
,,,,,,,,,,,,,,,,,,,,,,,,,,,,,,,,,,,,1.947000027,e,CE,FALSE,,,,,,,189,zebra,Catalan,Sounds/cat_zebra.mp3,2020-06-19_09h35.18.844,TranslationElicitation_spa,3.2.4,Win32,60,55kvweighibv82hihv9322hhfh,1,0,80,79,1,79
,,,,,,,,,,,,,,,,,,,,,,,,,,,,,,,,,,,,2.270999908,b,CEB,FALSE,,,,,,,189,zebra,Catalan,Sounds/cat_zebra.mp3,2020-06-19_09h35.18.844,TranslationElicitation_spa,3.2.4,Win32,60,55kvweighibv82hihv9322hhfh,1,0,80,79,1,79
,,,,,,,,,,,,,,,,,,,,,,,,,,,,,,,,,,,,2.335000038,r,CEBR,FALSE,,,,,,,189,zebra,Catalan,Sounds/cat_zebra.mp3,2020-06-19_09h35.18.844,TranslationElicitation_spa,3.2.4,Win32,60,55kvweighibv82hihv9322hhfh,1,0,80,79,1,79
,,,,,,,,,,,,,,,,,,,,,,,,,,,,,,,,,,,,2.676000118,a,CEBRA,FALSE,,,,,,,189,zebra,Catalan,Sounds/cat_zebra.mp3,2020-06-19_09h35.18.844,TranslationElicitation_spa,3.2.4,Win32,60,55kvweighibv82hihv9322hhfh,1,0,80,79,1,79
,,,,,,,,,,,,,,,,,,,,,,,,,,,,,,,,,,,3.151000023,3.151000023,return,,FALSE,,,,,,,189,zebra,Catalan,Sounds/cat_zebra.mp3,2020-06-19_09h35.18.844,TranslationElicitation_spa,3.2.4,Win32,60,55kvweighibv82hihv9322hhfh,1,0,80,79,1,79
,,,,,,,,,,,,,,,,,,,,,,,,,,,,,,,,,,,,,,,,,,,,,,189,zebra,Catalan,Sounds/cat_zebra.mp3,2020-06-19_09h35.18.844,TranslationElicitation_spa,3.2.4,Win32,60,55kvweighibv82hihv9322hhfh,1,0,80,79,1,79
,,,,,,,,,,,,,,,,,,,,,,,,,,,,,,,,,,,,1.257999897,t,T,FALSE,,,,,,,181,tobogan,Catalan,Sounds/cat_tobogan.mp3,2020-06-19_09h35.18.844,TranslationElicitation_spa,3.2.4,Win32,60,55kvweighibv82hihv9322hhfh,1,0,80,72,1,79
,,,,,,,,,,,,,,,,,,,,,,,,,,,,,,,,,,,,1.340999842,o,TO,FALSE,,,,,,,181,tobogan,Catalan,Sounds/cat_tobogan.mp3,2020-06-19_09h35.18.844,TranslationElicitation_spa,3.2.4,Win32,60,55kvweighibv82hihv9322hhfh,1,0,80,72,1,79
,,,,,,,,,,,,,,,,,,,,,,,,,,,,,,,,,,,,1.656999826,b,TOB,FALSE,,,,,,,181,tobogan,Catalan,Sounds/cat_tobogan.mp3,2020-06-19_09h35.18.844,TranslationElicitation_spa,3.2.4,Win32,60,55kvweighibv82hihv9322hhfh,1,0,80,72,1,79
,,,,,,,,,,,,,,,,,,,,,,,,,,,,,,,,,,,,1.75999999,o,TOBO,FALSE,,,,,,,181,tobogan,Catalan,Sounds/cat_tobogan.mp3,2020-06-19_09h35.18.844,TranslationElicitation_spa,3.2.4,Win32,60,55kvweighibv82hihv9322hhfh,1,0,80,72,1,79
,,,,,,,,,,,,,,,,,,,,,,,,,,,,,,,,,,,,2.097999811,g,TOBOG,FALSE,,,,,,,181,tobogan,Catalan,Sounds/cat_tobogan.mp3,2020-06-19_09h35.18.844,TranslationElicitation_spa,3.2.4,Win32,60,55kvweighibv82hihv9322hhfh,1,0,80,72,1,79
,,,,,,,,,,,,,,,,,,,,,,,,,,,,,,,,,,,,2.732999802,apostrophe,TOBOG,FALSE,,,,,,,181,tobogan,Catalan,Sounds/cat_tobogan.mp3,2020-06-19_09h35.18.844,TranslationElicitation_spa,3.2.4,Win32,60,55kvweighibv82hihv9322hhfh,1,0,80,72,1,79
,,,,,,,,,,,,,,,,,,,,,,,,,,,,,,,,,,,,3.004999876,a,TOBOGÁ,FALSE,,,,,,,181,tobogan,Catalan,Sounds/cat_tobogan.mp3,2020-06-19_09h35.18.844,TranslationElicitation_spa,3.2.4,Win32,60,55kvweighibv82hihv9322hhfh,1,0,80,72,1,79
,,,,,,,,,,,,,,,,,,,,,,,,,,,,,,,,,,,,3.142999887,n,TOBOGÁN,FALSE,,,,,,,181,tobogan,Catalan,Sounds/cat_tobogan.mp3,2020-06-19_09h35.18.844,TranslationElicitation_spa,3.2.4,Win32,60,55kvweighibv82hihv9322hhfh,1,0,80,72,1,79
,,,,,,,,,,,,,,,,,,,,,,,,,,,,,,,,,,,3.690999985,3.695999861,return,,FALSE,,,,,,,181,tobogan,Catalan,Sounds/cat_tobogan.mp3,2020-06-19_09h35.18.844,TranslationElicitation_spa,3.2.4,Win32,60,55kvweighibv82hihv9322hhfh,1,0,80,72,1,79
,,,,,,,,,,,,,,,,,,,,,,,,,,,,,,,,,,,,,,,,,,,,,,181,tobogan,Catalan,Sounds/cat_tobogan.mp3,2020-06-19_09h35.18.844,TranslationElicitation_spa,3.2.4,Win32,60,55kvweighibv82hihv9322hhfh,1,0,80,72,1,79
,,,,,,,,,,,,,,,,,,,,,,,,,,,,,,,,,,,,8.078000069,g,G,FALSE,,,,,,,145,got,Catalan,Sounds/cat_got.mp3,2020-06-19_09h35.18.844,TranslationElicitation_spa,3.2.4,Win32,60,55kvweighibv82hihv9322hhfh,1,0,80,40,1,79
,,,,,,,,,,,,,,,,,,,,,,,,,,,,,,,,,,,,8.296000004,o,GO,FALSE,,,,,,,145,got,Catalan,Sounds/cat_got.mp3,2020-06-19_09h35.18.844,TranslationElicitation_spa,3.2.4,Win32,60,55kvweighibv82hihv9322hhfh,1,0,80,40,1,79
,,,,,,,,,,,,,,,,,,,,,,,,,,,,,,,,,,,,8.464999914,o,GOO,FALSE,,,,,,,145,got,Catalan,Sounds/cat_got.mp3,2020-06-19_09h35.18.844,TranslationElicitation_spa,3.2.4,Win32,60,55kvweighibv82hihv9322hhfh,1,0,80,40,1,79
,,,,,,,,,,,,,,,,,,,,,,,,,,,,,,,,,,,,8.556999922,r,GOOR,FALSE,,,,,,,145,got,Catalan,Sounds/cat_got.mp3,2020-06-19_09h35.18.844,TranslationElicitation_spa,3.2.4,Win32,60,55kvweighibv82hihv9322hhfh,1,0,80,40,1,79
,,,,,,,,,,,,,,,,,,,,,,,,,,,,,,,,,,,,8.875,a,GOORA,FALSE,,,,,,,145,got,Catalan,Sounds/cat_got.mp3,2020-06-19_09h35.18.844,TranslationElicitation_spa,3.2.4,Win32,60,55kvweighibv82hihv9322hhfh,1,0,80,40,1,79
,,,,,,,,,,,,,,,,,,,,,,,,,,,,,,,,,,,,10.06699991,backspace,GOO,TRUE,,,,,,,145,got,Catalan,Sounds/cat_got.mp3,2020-06-19_09h35.18.844,TranslationElicitation_spa,3.2.4,Win32,60,55kvweighibv82hihv9322hhfh,1,0,80,40,1,79
,,,,,,,,,,,,,,,,,,,,,,,,,,,,,,,,,,,,10.20099998,backspace,G,TRUE,,,,,,,145,got,Catalan,Sounds/cat_got.mp3,2020-06-19_09h35.18.844,TranslationElicitation_spa,3.2.4,Win32,60,55kvweighibv82hihv9322hhfh,1,0,80,40,1,79
,,,,,,,,,,,,,,,,,,,,,,,,,,,,,,,,,,,,11.69599986,o,GO,TRUE,,,,,,,145,got,Catalan,Sounds/cat_got.mp3,2020-06-19_09h35.18.844,TranslationElicitation_spa,3.2.4,Win32,60,55kvweighibv82hihv9322hhfh,1,0,80,40,1,79
,,,,,,,,,,,,,,,,,,,,,,,,,,,,,,,,,,,,11.96199989,r,GOR,TRUE,,,,,,,145,got,Catalan,Sounds/cat_got.mp3,2020-06-19_09h35.18.844,TranslationElicitation_spa,3.2.4,Win32,60,55kvweighibv82hihv9322hhfh,1,0,80,40,1,79
,,,,,,,,,,,,,,,,,,,,,,,,,,,,,,,,,,,,12.06299996,r,GORR,TRUE,,,,,,,145,got,Catalan,Sounds/cat_got.mp3,2020-06-19_09h35.18.844,TranslationElicitation_spa,3.2.4,Win32,60,55kvweighibv82hihv9322hhfh,1,0,80,40,1,79
,,,,,,,,,,,,,,,,,,,,,,,,,,,,,,,,,,,,12.52499986,a,GORRA,TRUE,,,,,,,145,got,Catalan,Sounds/cat_got.mp3,2020-06-19_09h35.18.844,TranslationElicitation_spa,3.2.4,Win32,60,55kvweighibv82hihv9322hhfh,1,0,80,40,1,79
,,,,,,,,,,,,,,,,,,,,,,,,,,,,,,,,,,,12.99099994,12.99099994,return,,TRUE,,,,,,,145,got,Catalan,Sounds/cat_got.mp3,2020-06-19_09h35.18.844,TranslationElicitation_spa,3.2.4,Win32,60,55kvweighibv82hihv9322hhfh,1,0,80,40,1,79
,,,,,,,,,,,,,,,,,,,,,,,,,,,,,,,,,,,,,,,,,,,,,,145,got,Catalan,Sounds/cat_got.mp3,2020-06-19_09h35.18.844,TranslationElicitation_spa,3.2.4,Win32,60,55kvweighibv82hihv9322hhfh,1,0,80,40,1,79
,,,,,,,,,,,,,,,,,,,,,,,,,,,,,,,,,,,,1.587000132,g,G,FALSE,,,,,,,146,guitarra,Catalan,Sounds/cat_guitarra.mp3,2020-06-19_09h35.18.844,TranslationElicitation_spa,3.2.4,Win32,60,55kvweighibv82hihv9322hhfh,1,0,80,41,1,79
,,,,,,,,,,,,,,,,,,,,,,,,,,,,,,,,,,,,1.639000177,u,GU,FALSE,,,,,,,146,guitarra,Catalan,Sounds/cat_guitarra.mp3,2020-06-19_09h35.18.844,TranslationElicitation_spa,3.2.4,Win32,60,55kvweighibv82hihv9322hhfh,1,0,80,41,1,79
,,,,,,,,,,,,,,,,,,,,,,,,,,,,,,,,,,,,1.763000011,i,GUI,FALSE,,,,,,,146,guitarra,Catalan,Sounds/cat_guitarra.mp3,2020-06-19_09h35.18.844,TranslationElicitation_spa,3.2.4,Win32,60,55kvweighibv82hihv9322hhfh,1,0,80,41,1,79
,,,,,,,,,,,,,,,,,,,,,,,,,,,,,,,,,,,,2.072000027,t,GUIT,FALSE,,,,,,,146,guitarra,Catalan,Sounds/cat_guitarra.mp3,2020-06-19_09h35.18.844,TranslationElicitation_spa,3.2.4,Win32,60,55kvweighibv82hihv9322hhfh,1,0,80,41,1,79
,,,,,,,,,,,,,,,,,,,,,,,,,,,,,,,,,,,,2.368000031,a,GUITA,FALSE,,,,,,,146,guitarra,Catalan,Sounds/cat_guitarra.mp3,2020-06-19_09h35.18.844,TranslationElicitation_spa,3.2.4,Win32,60,55kvweighibv82hihv9322hhfh,1,0,80,41,1,79
,,,,,,,,,,,,,,,,,,,,,,,,,,,,,,,,,,,,2.608999968,r,GUITAR,FALSE,,,,,,,146,guitarra,Catalan,Sounds/cat_guitarra.mp3,2020-06-19_09h35.18.844,TranslationElicitation_spa,3.2.4,Win32,60,55kvweighibv82hihv9322hhfh,1,0,80,41,1,79
,,,,,,,,,,,,,,,,,,,,,,,,,,,,,,,,,,,,2.756000042,r,GUITARR,FALSE,,,,,,,146,guitarra,Catalan,Sounds/cat_guitarra.mp3,2020-06-19_09h35.18.844,TranslationElicitation_spa,3.2.4,Win32,60,55kvweighibv82hihv9322hhfh,1,0,80,41,1,79
,,,,,,,,,,,,,,,,,,,,,,,,,,,,,,,,,,,,2.934000015,a,GUITARRA,FALSE,,,,,,,146,guitarra,Catalan,Sounds/cat_guitarra.mp3,2020-06-19_09h35.18.844,TranslationElicitation_spa,3.2.4,Win32,60,55kvweighibv82hihv9322hhfh,1,0,80,41,1,79
,,,,,,,,,,,,,,,,,,,,,,,,,,,,,,,,,,,3.75999999,3.75999999,return,,FALSE,,,,,,,146,guitarra,Catalan,Sounds/cat_guitarra.mp3,2020-06-19_09h35.18.844,TranslationElicitation_spa,3.2.4,Win32,60,55kvweighibv82hihv9322hhfh,1,0,80,41,1,79
,,,,,,,,,,,,,,,,,,,,,,,,,,,,,,,,,,,,,,,,,,,,,,146,guitarra,Catalan,Sounds/cat_guitarra.mp3,2020-06-19_09h35.18.844,TranslationElicitation_spa,3.2.4,Win32,60,55kvweighibv82hihv9322hhfh,1,0,80,41,1,79
,,,,,,,,,,,,,,,,,,,,,,,,,,,,,,,,,,,,1.929999828,a,A,FALSE,,,,,,,108,ampolla,Catalan,Sounds/cat_ampolla.mp3,2020-06-19_09h35.18.844,TranslationElicitation_spa,3.2.4,Win32,60,55kvweighibv82hihv9322hhfh,1,0,80,4,1,79
,,,,,,,,,,,,,,,,,,,,,,,,,,,,,,,,,,,,2.213999987,m,AM,FALSE,,,,,,,108,ampolla,Catalan,Sounds/cat_ampolla.mp3,2020-06-19_09h35.18.844,TranslationElicitation_spa,3.2.4,Win32,60,55kvweighibv82hihv9322hhfh,1,0,80,4,1,79
,,,,,,,,,,,,,,,,,,,,,,,,,,,,,,,,,,,,2.345999956,p,AMP,FALSE,,,,,,,108,ampolla,Catalan,Sounds/cat_ampolla.mp3,2020-06-19_09h35.18.844,TranslationElicitation_spa,3.2.4,Win32,60,55kvweighibv82hihv9322hhfh,1,0,80,4,1,79
,,,,,,,,,,,,,,,,,,,,,,,,,,,,,,,,,,,,2.467999935,o,AMPO,FALSE,,,,,,,108,ampolla,Catalan,Sounds/cat_ampolla.mp3,2020-06-19_09h35.18.844,TranslationElicitation_spa,3.2.4,Win32,60,55kvweighibv82hihv9322hhfh,1,0,80,4,1,79
,,,,,,,,,,,,,,,,,,,,,,,,,,,,,,,,,,,,2.676999807,l,AMPOL,FALSE,,,,,,,108,ampolla,Catalan,Sounds/cat_ampolla.mp3,2020-06-19_09h35.18.844,TranslationElicitation_spa,3.2.4,Win32,60,55kvweighibv82hihv9322hhfh,1,0,80,4,1,79
,,,,,,,,,,,,,,,,,,,,,,,,,,,,,,,,,,,,2.81099987,l,AMPOLL,FALSE,,,,,,,108,ampolla,Catalan,Sounds/cat_ampolla.mp3,2020-06-19_09h35.18.844,TranslationElicitation_spa,3.2.4,Win32,60,55kvweighibv82hihv9322hhfh,1,0,80,4,1,79
,,,,,,,,,,,,,,,,,,,,,,,,,,,,,,,,,,,,2.906999826,a,AMPOLLA,FALSE,,,,,,,108,ampolla,Catalan,Sounds/cat_ampolla.mp3,2020-06-19_09h35.18.844,TranslationElicitation_spa,3.2.4,Win32,60,55kvweighibv82hihv9322hhfh,1,0,80,4,1,79
,,,,,,,,,,,,,,,,,,,,,,,,,,,,,,,,,,,3.454999924,3.454999924,return,,FALSE,,,,,,,108,ampolla,Catalan,Sounds/cat_ampolla.mp3,2020-06-19_09h35.18.844,TranslationElicitation_spa,3.2.4,Win32,60,55kvweighibv82hihv9322hhfh,1,0,80,4,1,79
,,,,,,,,,,,,,,,,,,,,,,,,,,,,,,,,,,,,,,,,,,,,,,108,ampolla,Catalan,Sounds/cat_ampolla.mp3,2020-06-19_09h35.18.844,TranslationElicitation_spa,3.2.4,Win32,60,55kvweighibv82hihv9322hhfh,1,0,80,4,1,79
,,,,,,,,,,,,,,,,,,,,,,,,,,,,,,,,,,,,1.726000071,e,E,FALSE,,,,,,,131,esponja,Catalan,Sounds/cat_esponja.mp3,2020-06-19_09h35.18.844,TranslationElicitation_spa,3.2.4,Win32,60,55kvweighibv82hihv9322hhfh,1,0,80,26,1,79
,,,,,,,,,,,,,,,,,,,,,,,,,,,,,,,,,,,,1.93200016,s,ES,FALSE,,,,,,,131,esponja,Catalan,Sounds/cat_esponja.mp3,2020-06-19_09h35.18.844,TranslationElicitation_spa,3.2.4,Win32,60,55kvweighibv82hihv9322hhfh,1,0,80,26,1,79
,,,,,,,,,,,,,,,,,,,,,,,,,,,,,,,,,,,,2.262000084,p,ESP,FALSE,,,,,,,131,esponja,Catalan,Sounds/cat_esponja.mp3,2020-06-19_09h35.18.844,TranslationElicitation_spa,3.2.4,Win32,60,55kvweighibv82hihv9322hhfh,1,0,80,26,1,79
,,,,,,,,,,,,,,,,,,,,,,,,,,,,,,,,,,,,2.400000095,a,ESPA,FALSE,,,,,,,131,esponja,Catalan,Sounds/cat_esponja.mp3,2020-06-19_09h35.18.844,TranslationElicitation_spa,3.2.4,Win32,60,55kvweighibv82hihv9322hhfh,1,0,80,26,1,79
,,,,,,,,,,,,,,,,,,,,,,,,,,,,,,,,,,,,3.034000158,semicolon,ESPAÑ,FALSE,,,,,,,131,esponja,Catalan,Sounds/cat_esponja.mp3,2020-06-19_09h35.18.844,TranslationElicitation_spa,3.2.4,Win32,60,55kvweighibv82hihv9322hhfh,1,0,80,26,1,79
,,,,,,,,,,,,,,,,,,,,,,,,,,,,,,,,,,,,3.161000013,a,ESPAÑA,FALSE,,,,,,,131,esponja,Catalan,Sounds/cat_esponja.mp3,2020-06-19_09h35.18.844,TranslationElicitation_spa,3.2.4,Win32,60,55kvweighibv82hihv9322hhfh,1,0,80,26,1,79
,,,,,,,,,,,,,,,,,,,,,,,,,,,,,,,,,,,3.958000183,3.958000183,return,,FALSE,,,,,,,131,esponja,Catalan,Sounds/cat_esponja.mp3,2020-06-19_09h35.18.844,TranslationElicitation_spa,3.2.4,Win32,60,55kvweighibv82hihv9322hhfh,1,0,80,26,1,79
,,,,,,,,,,,,,,,,,,,,,,,,,,,,,,,,,,,,,,,,,,,,,,131,esponja,Catalan,Sounds/cat_esponja.mp3,2020-06-19_09h35.18.844,TranslationElicitation_spa,3.2.4,Win32,60,55kvweighibv82hihv9322hhfh,1,0,80,26,1,79
,,,,,,,,,,,,,,,,,,,,,,,,,,,,,,,,,,,,2.775000095,p,P,FALSE,,,,,,,170,ploma,Catalan,Sounds/cat_ploma.mp3,2020-06-19_09h35.18.844,TranslationElicitation_spa,3.2.4,Win32,60,55kvweighibv82hihv9322hhfh,1,0,80,62,1,79
,,,,,,,,,,,,,,,,,,,,,,,,,,,,,,,,,,,,2.892000198,l,PL,FALSE,,,,,,,170,ploma,Catalan,Sounds/cat_ploma.mp3,2020-06-19_09h35.18.844,TranslationElicitation_spa,3.2.4,Win32,60,55kvweighibv82hihv9322hhfh,1,0,80,62,1,79
,,,,,,,,,,,,,,,,,,,,,,,,,,,,,,,,,,,,3.126000166,o,PLO,FALSE,,,,,,,170,ploma,Catalan,Sounds/cat_ploma.mp3,2020-06-19_09h35.18.844,TranslationElicitation_spa,3.2.4,Win32,60,55kvweighibv82hihv9322hhfh,1,0,80,62,1,79
,,,,,,,,,,,,,,,,,,,,,,,,,,,,,,,,,,,,3.661000013,m,PLOM,FALSE,,,,,,,170,ploma,Catalan,Sounds/cat_ploma.mp3,2020-06-19_09h35.18.844,TranslationElicitation_spa,3.2.4,Win32,60,55kvweighibv82hihv9322hhfh,1,0,80,62,1,79
,,,,,,,,,,,,,,,,,,,,,,,,,,,,,,,,,,,,3.743000031,o,PLOMO,FALSE,,,,,,,170,ploma,Catalan,Sounds/cat_ploma.mp3,2020-06-19_09h35.18.844,TranslationElicitation_spa,3.2.4,Win32,60,55kvweighibv82hihv9322hhfh,1,0,80,62,1,79
,,,,,,,,,,,,,,,,,,,,,,,,,,,,,,,,,,,,5.43200016,backspace,PLO,TRUE,,,,,,,170,ploma,Catalan,Sounds/cat_ploma.mp3,2020-06-19_09h35.18.844,TranslationElicitation_spa,3.2.4,Win32,60,55kvweighibv82hihv9322hhfh,1,0,80,62,1,79
,,,,,,,,,,,,,,,,,,,,,,,,,,,,,,,,,,,,5.586000204,backspace,P,TRUE,,,,,,,170,ploma,Catalan,Sounds/cat_ploma.mp3,2020-06-19_09h35.18.844,TranslationElicitation_spa,3.2.4,Win32,60,55kvweighibv82hihv9322hhfh,1,0,80,62,1,79
,,,,,,,,,,,,,,,,,,,,,,,,,,,,,,,,,,,,6.652000189,l,PL,TRUE,,,,,,,170,ploma,Catalan,Sounds/cat_ploma.mp3,2020-06-19_09h35.18.844,TranslationElicitation_spa,3.2.4,Win32,60,55kvweighibv82hihv9322hhfh,1,0,80,62,1,79
,,,,,,,,,,,,,,,,,,,,,,,,,,,,,,,,,,,,6.900000095,u,PLU,TRUE,,,,,,,170,ploma,Catalan,Sounds/cat_ploma.mp3,2020-06-19_09h35.18.844,TranslationElicitation_spa,3.2.4,Win32,60,55kvweighibv82hihv9322hhfh,1,0,80,62,1,79
,,,,,,,,,,,,,,,,,,,,,,,,,,,,,,,,,,,,7.568000078,m,PLUM,TRUE,,,,,,,170,ploma,Catalan,Sounds/cat_ploma.mp3,2020-06-19_09h35.18.844,TranslationElicitation_spa,3.2.4,Win32,60,55kvweighibv82hihv9322hhfh,1,0,80,62,1,79
,,,,,,,,,,,,,,,,,,,,,,,,,,,,,,,,,,,,8.007000208,a,PLUMA,TRUE,,,,,,,170,ploma,Catalan,Sounds/cat_ploma.mp3,2020-06-19_09h35.18.844,TranslationElicitation_spa,3.2.4,Win32,60,55kvweighibv82hihv9322hhfh,1,0,80,62,1,79
,,,,,,,,,,,,,,,,,,,,,,,,,,,,,,,,,,,8.861999989,8.861999989,return,,TRUE,,,,,,,170,ploma,Catalan,Sounds/cat_ploma.mp3,2020-06-19_09h35.18.844,TranslationElicitation_spa,3.2.4,Win32,60,55kvweighibv82hihv9322hhfh,1,0,80,62,1,79
,,,,,,,,,,,,,,,,,,,,,,,,,,,,,,,,,,,,,,,,,,,,,,170,ploma,Catalan,Sounds/cat_ploma.mp3,2020-06-19_09h35.18.844,TranslationElicitation_spa,3.2.4,Win32,60,55kvweighibv82hihv9322hhfh,1,0,80,62,1,79
,,,,,,,,,,,,,,,,,,,,,,,,,,,,,,,,,,,,2.52699995,p,P,FALSE,,,,,,,173,porc,Catalan,Sounds/cat_porc.mp3,2020-06-19_09h35.18.844,TranslationElicitation_spa,3.2.4,Win32,60,55kvweighibv82hihv9322hhfh,1,0,80,65,1,79
,,,,,,,,,,,,,,,,,,,,,,,,,,,,,,,,,,,,3.19299984,a,PA,FALSE,,,,,,,173,porc,Catalan,Sounds/cat_porc.mp3,2020-06-19_09h35.18.844,TranslationElicitation_spa,3.2.4,Win32,60,55kvweighibv82hihv9322hhfh,1,0,80,65,1,79
,,,,,,,,,,,,,,,,,,,,,,,,,,,,,,,,,,,,3.307999849,r,PAR,FALSE,,,,,,,173,porc,Catalan,Sounds/cat_porc.mp3,2020-06-19_09h35.18.844,TranslationElicitation_spa,3.2.4,Win32,60,55kvweighibv82hihv9322hhfh,1,0,80,65,1,79
,,,,,,,,,,,,,,,,,,,,,,,,,,,,,,,,,,,,3.651000023,q,PARQ,FALSE,,,,,,,173,porc,Catalan,Sounds/cat_porc.mp3,2020-06-19_09h35.18.844,TranslationElicitation_spa,3.2.4,Win32,60,55kvweighibv82hihv9322hhfh,1,0,80,65,1,79
,,,,,,,,,,,,,,,,,,,,,,,,,,,,,,,,,,,,3.930999994,u,PARQU,FALSE,,,,,,,173,porc,Catalan,Sounds/cat_porc.mp3,2020-06-19_09h35.18.844,TranslationElicitation_spa,3.2.4,Win32,60,55kvweighibv82hihv9322hhfh,1,0,80,65,1,79
,,,,,,,,,,,,,,,,,,,,,,,,,,,,,,,,,,,,4.213000059,e,PARQUE,FALSE,,,,,,,173,porc,Catalan,Sounds/cat_porc.mp3,2020-06-19_09h35.18.844,TranslationElicitation_spa,3.2.4,Win32,60,55kvweighibv82hihv9322hhfh,1,0,80,65,1,79
,,,,,,,,,,,,,,,,,,,,,,,,,,,,,,,,,,,4.976000071,4.976000071,return,,FALSE,,,,,,,173,porc,Catalan,Sounds/cat_porc.mp3,2020-06-19_09h35.18.844,TranslationElicitation_spa,3.2.4,Win32,60,55kvweighibv82hihv9322hhfh,1,0,80,65,1,79
,,,,,,,,,,,,,,,,,,,,,,,,,,,,,,,,,,,,,,,,,,,,,,173,porc,Catalan,Sounds/cat_porc.mp3,2020-06-19_09h35.18.844,TranslationElicitation_spa,3.2.4,Win32,60,55kvweighibv82hihv9322hhfh,1,0,80,65,1,79
,,,,,,,,,,,,,,,,,,,,,,,,,,,,,,,,,,,,2.438999891,a,A,FALSE,,,,,,,130,entrepa,Catalan,Sounds/cat_entrepa.mp3,2020-06-19_09h35.18.844,TranslationElicitation_spa,3.2.4,Win32,60,55kvweighibv82hihv9322hhfh,1,0,80,25,1,79
,,,,,,,,,,,,,,,,,,,,,,,,,,,,,,,,,,,,2.784999847,t,AT,FALSE,,,,,,,130,entrepa,Catalan,Sounds/cat_entrepa.mp3,2020-06-19_09h35.18.844,TranslationElicitation_spa,3.2.4,Win32,60,55kvweighibv82hihv9322hhfh,1,0,80,25,1,79
,,,,,,,,,,,,,,,,,,,,,,,,,,,,,,,,,,,,2.853999853,r,ATR,FALSE,,,,,,,130,entrepa,Catalan,Sounds/cat_entrepa.mp3,2020-06-19_09h35.18.844,TranslationElicitation_spa,3.2.4,Win32,60,55kvweighibv82hihv9322hhfh,1,0,80,25,1,79
,,,,,,,,,,,,,,,,,,,,,,,,,,,,,,,,,,,,3.129999876,a,ATRA,FALSE,,,,,,,130,entrepa,Catalan,Sounds/cat_entrepa.mp3,2020-06-19_09h35.18.844,TranslationElicitation_spa,3.2.4,Win32,60,55kvweighibv82hihv9322hhfh,1,0,80,25,1,79
,,,,,,,,,,,,,,,,,,,,,,,,,,,,,,,,,,,,3.306999922,semicolon,ATRAÑ,FALSE,,,,,,,130,entrepa,Catalan,Sounds/cat_entrepa.mp3,2020-06-19_09h35.18.844,TranslationElicitation_spa,3.2.4,Win32,60,55kvweighibv82hihv9322hhfh,1,0,80,25,1,79
,,,,,,,,,,,,,,,,,,,,,,,,,,,,,,,,,,,,4.253000021,backspace,ATR,TRUE,,,,,,,130,entrepa,Catalan,Sounds/cat_entrepa.mp3,2020-06-19_09h35.18.844,TranslationElicitation_spa,3.2.4,Win32,60,55kvweighibv82hihv9322hhfh,1,0,80,25,1,79
,,,,,,,,,,,,,,,,,,,,,,,,,,,,,,,,,,,,5.007999897,a,ATRA,TRUE,,,,,,,130,entrepa,Catalan,Sounds/cat_entrepa.mp3,2020-06-19_09h35.18.844,TranslationElicitation_spa,3.2.4,Win32,60,55kvweighibv82hihv9322hhfh,1,0,80,25,1,79
,,,,,,,,,,,,,,,,,,,,,,,,,,,,,,,,,,,,5.740999937,p,ATRAP,TRUE,,,,,,,130,entrepa,Catalan,Sounds/cat_entrepa.mp3,2020-06-19_09h35.18.844,TranslationElicitation_spa,3.2.4,Win32,60,55kvweighibv82hihv9322hhfh,1,0,80,25,1,79
,,,,,,,,,,,,,,,,,,,,,,,,,,,,,,,,,,,,5.797999859,a,ATRAPA,TRUE,,,,,,,130,entrepa,Catalan,Sounds/cat_entrepa.mp3,2020-06-19_09h35.18.844,TranslationElicitation_spa,3.2.4,Win32,60,55kvweighibv82hihv9322hhfh,1,0,80,25,1,79
,,,,,,,,,,,,,,,,,,,,,,,,,,,,,,,,,,,,6.030999899,r,ATRAPAR,TRUE,,,,,,,130,entrepa,Catalan,Sounds/cat_entrepa.mp3,2020-06-19_09h35.18.844,TranslationElicitation_spa,3.2.4,Win32,60,55kvweighibv82hihv9322hhfh,1,0,80,25,1,79
,,,,,,,,,,,,,,,,,,,,,,,,,,,,,,,,,,,6.314999819,6.314999819,return,,TRUE,,,,,,,130,entrepa,Catalan,Sounds/cat_entrepa.mp3,2020-06-19_09h35.18.844,TranslationElicitation_spa,3.2.4,Win32,60,55kvweighibv82hihv9322hhfh,1,0,80,25,1,79
,,,,,,,,,,,,,,,,,,,,,,,,,,,,,,,,,,,,,,,,,,,,,,130,entrepa,Catalan,Sounds/cat_entrepa.mp3,2020-06-19_09h35.18.844,TranslationElicitation_spa,3.2.4,Win32,60,55kvweighibv82hihv9322hhfh,1,0,80,25,1,79
,,,,,,,,,,,,,,,,,,,,,,,,,,,,,,,,,,,,4.217999935,l,L,FALSE,,,,,,,148,lleo,Catalan,Sounds/cat_lleo.mp3,2020-06-19_09h35.18.844,TranslationElicitation_spa,3.2.4,Win32,60,55kvweighibv82hihv9322hhfh,1,0,80,42,1,79
,,,,,,,,,,,,,,,,,,,,,,,,,,,,,,,,,,,,4.421000004,a,LA,FALSE,,,,,,,148,lleo,Catalan,Sounds/cat_lleo.mp3,2020-06-19_09h35.18.844,TranslationElicitation_spa,3.2.4,Win32,60,55kvweighibv82hihv9322hhfh,1,0,80,42,1,79
,,,,,,,,,,,,,,,,,,,,,,,,,,,,,,,,,,,,4.645999908,space,LA ,FALSE,,,,,,,148,lleo,Catalan,Sounds/cat_lleo.mp3,2020-06-19_09h35.18.844,TranslationElicitation_spa,3.2.4,Win32,60,55kvweighibv82hihv9322hhfh,1,0,80,42,1,79
,,,,,,,,,,,,,,,,,,,,,,,,,,,,,,,,,,,,5.113999844,o,LA O,FALSE,,,,,,,148,lleo,Catalan,Sounds/cat_lleo.mp3,2020-06-19_09h35.18.844,TranslationElicitation_spa,3.2.4,Win32,60,55kvweighibv82hihv9322hhfh,1,0,80,42,1,79
,,,,,,,,,,,,,,,,,,,,,,,,,,,,,,,,,,,5.434000015,5.434999943,return,,FALSE,,,,,,,148,lleo,Catalan,Sounds/cat_lleo.mp3,2020-06-19_09h35.18.844,TranslationElicitation_spa,3.2.4,Win32,60,55kvweighibv82hihv9322hhfh,1,0,80,42,1,79
,,,,,,,,,,,,,,,,,,,,,,,,,,,,,,,,,,,,,,,,,,,,,,148,lleo,Catalan,Sounds/cat_lleo.mp3,2020-06-19_09h35.18.844,TranslationElicitation_spa,3.2.4,Win32,60,55kvweighibv82hihv9322hhfh,1,0,80,42,1,79
,,,,,,,,,,,,,,,,,,,,,,,,,,,,,,,,,,,,1.746000051,c,C,FALSE,,,,,,,120,cama,Catalan,Sounds/cat_cama.mp3,2020-06-19_09h35.18.844,TranslationElicitation_spa,3.2.4,Win32,60,55kvweighibv82hihv9322hhfh,1,0,80,15,1,79
,,,,,,,,,,,,,,,,,,,,,,,,,,,,,,,,,,,,1.792999983,a,CA,FALSE,,,,,,,120,cama,Catalan,Sounds/cat_cama.mp3,2020-06-19_09h35.18.844,TranslationElicitation_spa,3.2.4,Win32,60,55kvweighibv82hihv9322hhfh,1,0,80,15,1,79
,,,,,,,,,,,,,,,,,,,,,,,,,,,,,,,,,,,,1.934999943,m,CAM,FALSE,,,,,,,120,cama,Catalan,Sounds/cat_cama.mp3,2020-06-19_09h35.18.844,TranslationElicitation_spa,3.2.4,Win32,60,55kvweighibv82hihv9322hhfh,1,0,80,15,1,79
,,,,,,,,,,,,,,,,,,,,,,,,,,,,,,,,,,,,2.01699996,a,CAMA,FALSE,,,,,,,120,cama,Catalan,Sounds/cat_cama.mp3,2020-06-19_09h35.18.844,TranslationElicitation_spa,3.2.4,Win32,60,55kvweighibv82hihv9322hhfh,1,0,80,15,1,79
,,,,,,,,,,,,,,,,,,,,,,,,,,,,,,,,,,,2.353999853,2.353999853,return,,FALSE,,,,,,,120,cama,Catalan,Sounds/cat_cama.mp3,2020-06-19_09h35.18.844,TranslationElicitation_spa,3.2.4,Win32,60,55kvweighibv82hihv9322hhfh,1,0,80,15,1,79
,,,,,,,,,,,,,,,,,,,,,,,,,,,,,,,,,,,,,,,,,,,,,,120,cama,Catalan,Sounds/cat_cama.mp3,2020-06-19_09h35.18.844,TranslationElicitation_spa,3.2.4,Win32,60,55kvweighibv82hihv9322hhfh,1,0,80,15,1,79
,,,,,,,,,,,,,,,,,,,,,,,,,,,,,,,,,,,,3.075999975,n,N,FALSE,,,,,,,113,boca,Catalan,Sounds/cat_boca.mp3,2020-06-19_09h35.18.844,TranslationElicitation_spa,3.2.4,Win32,60,55kvweighibv82hihv9322hhfh,1,0,80,8,1,79
,,,,,,,,,,,,,,,,,,,,,,,,,,,,,,,,,,,,3.960999966,backspace,,TRUE,,,,,,,113,boca,Catalan,Sounds/cat_boca.mp3,2020-06-19_09h35.18.844,TranslationElicitation_spa,3.2.4,Win32,60,55kvweighibv82hihv9322hhfh,1,0,80,8,1,79
,,,,,,,,,,,,,,,,,,,,,,,,,,,,,,,,,,,,4.535000086,b,B,TRUE,,,,,,,113,boca,Catalan,Sounds/cat_boca.mp3,2020-06-19_09h35.18.844,TranslationElicitation_spa,3.2.4,Win32,60,55kvweighibv82hihv9322hhfh,1,0,80,8,1,79
,,,,,,,,,,,,,,,,,,,,,,,,,,,,,,,,,,,,4.644999981,o,BO,TRUE,,,,,,,113,boca,Catalan,Sounds/cat_boca.mp3,2020-06-19_09h35.18.844,TranslationElicitation_spa,3.2.4,Win32,60,55kvweighibv82hihv9322hhfh,1,0,80,8,1,79
,,,,,,,,,,,,,,,,,,,,,,,,,,,,,,,,,,,,4.765000105,c,BOC,TRUE,,,,,,,113,boca,Catalan,Sounds/cat_boca.mp3,2020-06-19_09h35.18.844,TranslationElicitation_spa,3.2.4,Win32,60,55kvweighibv82hihv9322hhfh,1,0,80,8,1,79
,,,,,,,,,,,,,,,,,,,,,,,,,,,,,,,,,,,,4.834000111,a,BOCA,TRUE,,,,,,,113,boca,Catalan,Sounds/cat_boca.mp3,2020-06-19_09h35.18.844,TranslationElicitation_spa,3.2.4,Win32,60,55kvweighibv82hihv9322hhfh,1,0,80,8,1,79
,,,,,,,,,,,,,,,,,,,,,,,,,,,,,,,,,,,5.167000055,5.167000055,return,,TRUE,,,,,,,113,boca,Catalan,Sounds/cat_boca.mp3,2020-06-19_09h35.18.844,TranslationElicitation_spa,3.2.4,Win32,60,55kvweighibv82hihv9322hhfh,1,0,80,8,1,79
,,,,,,,,,,,,,,,,,,,,,,,,,,,,,,,,,,,,,,,,,,,,,,113,boca,Catalan,Sounds/cat_boca.mp3,2020-06-19_09h35.18.844,TranslationElicitation_spa,3.2.4,Win32,60,55kvweighibv82hihv9322hhfh,1,0,80,8,1,79
,,,,,,,,,,,,,,,,,,,,,,,,,,,,,,,,,,,,1.585999966,c,C,FALSE,,,,,,,121,camisa,Catalan,Sounds/cat_camisa.mp3,2020-06-19_09h35.18.844,TranslationElicitation_spa,3.2.4,Win32,60,55kvweighibv82hihv9322hhfh,1,0,80,16,1,79
,,,,,,,,,,,,,,,,,,,,,,,,,,,,,,,,,,,,1.682999849,a,CA,FALSE,,,,,,,121,camisa,Catalan,Sounds/cat_camisa.mp3,2020-06-19_09h35.18.844,TranslationElicitation_spa,3.2.4,Win32,60,55kvweighibv82hihv9322hhfh,1,0,80,16,1,79
,,,,,,,,,,,,,,,,,,,,,,,,,,,,,,,,,,,,1.812000036,m,CAM,FALSE,,,,,,,121,camisa,Catalan,Sounds/cat_camisa.mp3,2020-06-19_09h35.18.844,TranslationElicitation_spa,3.2.4,Win32,60,55kvweighibv82hihv9322hhfh,1,0,80,16,1,79
,,,,,,,,,,,,,,,,,,,,,,,,,,,,,,,,,,,,1.924000025,i,CAMI,FALSE,,,,,,,121,camisa,Catalan,Sounds/cat_camisa.mp3,2020-06-19_09h35.18.844,TranslationElicitation_spa,3.2.4,Win32,60,55kvweighibv82hihv9322hhfh,1,0,80,16,1,79
,,,,,,,,,,,,,,,,,,,,,,,,,,,,,,,,,,,,2.055999994,s,CAMIS,FALSE,,,,,,,121,camisa,Catalan,Sounds/cat_camisa.mp3,2020-06-19_09h35.18.844,TranslationElicitation_spa,3.2.4,Win32,60,55kvweighibv82hihv9322hhfh,1,0,80,16,1,79
,,,,,,,,,,,,,,,,,,,,,,,,,,,,,,,,,,,,2.109999895,a,CAMISA,FALSE,,,,,,,121,camisa,Catalan,Sounds/cat_camisa.mp3,2020-06-19_09h35.18.844,TranslationElicitation_spa,3.2.4,Win32,60,55kvweighibv82hihv9322hhfh,1,0,80,16,1,79
,,,,,,,,,,,,,,,,,,,,,,,,,,,,,,,,,,,2.322999954,2.322999954,return,,FALSE,,,,,,,121,camisa,Catalan,Sounds/cat_camisa.mp3,2020-06-19_09h35.18.844,TranslationElicitation_spa,3.2.4,Win32,60,55kvweighibv82hihv9322hhfh,1,0,80,16,1,79
,,,,,,,,,,,,,,,,,,,,,,,,,,,,,,,,,,,,,,,,,,,,,,121,camisa,Catalan,Sounds/cat_camisa.mp3,2020-06-19_09h35.18.844,TranslationElicitation_spa,3.2.4,Win32,60,55kvweighibv82hihv9322hhfh,1,0,80,16,1,79
,,,,,,,,,,,,,,,,,,,,,,,,,,,,,,,,,,,,1.559000015,p,P,FALSE,,,,,,,174,porta,Catalan,Sounds/cat_porta.mp3,2020-06-19_09h35.18.844,TranslationElicitation_spa,3.2.4,Win32,60,55kvweighibv82hihv9322hhfh,1,0,80,66,1,79
,,,,,,,,,,,,,,,,,,,,,,,,,,,,,,,,,,,,1.812000036,u,PU,FALSE,,,,,,,174,porta,Catalan,Sounds/cat_porta.mp3,2020-06-19_09h35.18.844,TranslationElicitation_spa,3.2.4,Win32,60,55kvweighibv82hihv9322hhfh,1,0,80,66,1,79
,,,,,,,,,,,,,,,,,,,,,,,,,,,,,,,,,,,,1.895999908,e,PUE,FALSE,,,,,,,174,porta,Catalan,Sounds/cat_porta.mp3,2020-06-19_09h35.18.844,TranslationElicitation_spa,3.2.4,Win32,60,55kvweighibv82hihv9322hhfh,1,0,80,66,1,79
,,,,,,,,,,,,,,,,,,,,,,,,,,,,,,,,,,,,2.082999945,r,PUER,FALSE,,,,,,,174,porta,Catalan,Sounds/cat_porta.mp3,2020-06-19_09h35.18.844,TranslationElicitation_spa,3.2.4,Win32,60,55kvweighibv82hihv9322hhfh,1,0,80,66,1,79
,,,,,,,,,,,,,,,,,,,,,,,,,,,,,,,,,,,,2.458999872,t,PUERT,FALSE,,,,,,,174,porta,Catalan,Sounds/cat_porta.mp3,2020-06-19_09h35.18.844,TranslationElicitation_spa,3.2.4,Win32,60,55kvweighibv82hihv9322hhfh,1,0,80,66,1,79
,,,,,,,,,,,,,,,,,,,,,,,,,,,,,,,,,,,,2.816999912,a,PUERTA,FALSE,,,,,,,174,porta,Catalan,Sounds/cat_porta.mp3,2020-06-19_09h35.18.844,TranslationElicitation_spa,3.2.4,Win32,60,55kvweighibv82hihv9322hhfh,1,0,80,66,1,79
,,,,,,,,,,,,,,,,,,,,,,,,,,,,,,,,,,,3.201999903,3.201999903,return,,FALSE,,,,,,,174,porta,Catalan,Sounds/cat_porta.mp3,2020-06-19_09h35.18.844,TranslationElicitation_spa,3.2.4,Win32,60,55kvweighibv82hihv9322hhfh,1,0,80,66,1,79
,,,,,,,,,,,,,,,,,,,,,,,,,,,,,,,,,,,,,,,,,,,,,,174,porta,Catalan,Sounds/cat_porta.mp3,2020-06-19_09h35.18.844,TranslationElicitation_spa,3.2.4,Win32,60,55kvweighibv82hihv9322hhfh,1,0,80,66,1,79
,,,,,,,,,,,,,,,,,,,,,,,,,,,,,,,,,,,,1.588999987,l,L,FALSE,,,,,,,143,globus,Catalan,Sounds/cat_globus.mp3,2020-06-19_09h35.18.844,TranslationElicitation_spa,3.2.4,Win32,60,55kvweighibv82hihv9322hhfh,1,0,80,38,1,79
,,,,,,,,,,,,,,,,,,,,,,,,,,,,,,,,,,,,1.73300004,o,LO,FALSE,,,,,,,143,globus,Catalan,Sounds/cat_globus.mp3,2020-06-19_09h35.18.844,TranslationElicitation_spa,3.2.4,Win32,60,55kvweighibv82hihv9322hhfh,1,0,80,38,1,79
,,,,,,,,,,,,,,,,,,,,,,,,,,,,,,,,,,,,2.03399992,b,LOB,FALSE,,,,,,,143,globus,Catalan,Sounds/cat_globus.mp3,2020-06-19_09h35.18.844,TranslationElicitation_spa,3.2.4,Win32,60,55kvweighibv82hihv9322hhfh,1,0,80,38,1,79
,,,,,,,,,,,,,,,,,,,,,,,,,,,,,,,,,,,,2.11500001,o,LOBO,FALSE,,,,,,,143,globus,Catalan,Sounds/cat_globus.mp3,2020-06-19_09h35.18.844,TranslationElicitation_spa,3.2.4,Win32,60,55kvweighibv82hihv9322hhfh,1,0,80,38,1,79
,,,,,,,,,,,,,,,,,,,,,,,,,,,,,,,,,,,,2.969000101,backspace,LO,TRUE,,,,,,,143,globus,Catalan,Sounds/cat_globus.mp3,2020-06-19_09h35.18.844,TranslationElicitation_spa,3.2.4,Win32,60,55kvweighibv82hihv9322hhfh,1,0,80,38,1,79
,,,,,,,,,,,,,,,,,,,,,,,,,,,,,,,,,,,,3.128000021,backspace,,TRUE,,,,,,,143,globus,Catalan,Sounds/cat_globus.mp3,2020-06-19_09h35.18.844,TranslationElicitation_spa,3.2.4,Win32,60,55kvweighibv82hihv9322hhfh,1,0,80,38,1,79
,,,,,,,,,,,,,,,,,,,,,,,,,,,,,,,,,,,,3.27699995,backspace,,TRUE,,,,,,,143,globus,Catalan,Sounds/cat_globus.mp3,2020-06-19_09h35.18.844,TranslationElicitation_spa,3.2.4,Win32,60,55kvweighibv82hihv9322hhfh,1,0,80,38,1,79
,,,,,,,,,,,,,,,,,,,,,,,,,,,,,,,,,,,,3.976999998,g,G,TRUE,,,,,,,143,globus,Catalan,Sounds/cat_globus.mp3,2020-06-19_09h35.18.844,TranslationElicitation_spa,3.2.4,Win32,60,55kvweighibv82hihv9322hhfh,1,0,80,38,1,79
,,,,,,,,,,,,,,,,,,,,,,,,,,,,,,,,,,,,4.095000029,l,GL,TRUE,,,,,,,143,globus,Catalan,Sounds/cat_globus.mp3,2020-06-19_09h35.18.844,TranslationElicitation_spa,3.2.4,Win32,60,55kvweighibv82hihv9322hhfh,1,0,80,38,1,79
,,,,,,,,,,,,,,,,,,,,,,,,,,,,,,,,,,,,4.266000032,o,GLO,TRUE,,,,,,,143,globus,Catalan,Sounds/cat_globus.mp3,2020-06-19_09h35.18.844,TranslationElicitation_spa,3.2.4,Win32,60,55kvweighibv82hihv9322hhfh,1,0,80,38,1,79
,,,,,,,,,,,,,,,,,,,,,,,,,,,,,,,,,,,,4.535000086,b,GLOB,TRUE,,,,,,,143,globus,Catalan,Sounds/cat_globus.mp3,2020-06-19_09h35.18.844,TranslationElicitation_spa,3.2.4,Win32,60,55kvweighibv82hihv9322hhfh,1,0,80,38,1,79
,,,,,,,,,,,,,,,,,,,,,,,,,,,,,,,,,,,,4.637000084,o,GLOBO,TRUE,,,,,,,143,globus,Catalan,Sounds/cat_globus.mp3,2020-06-19_09h35.18.844,TranslationElicitation_spa,3.2.4,Win32,60,55kvweighibv82hihv9322hhfh,1,0,80,38,1,79
,,,,,,,,,,,,,,,,,,,,,,,,,,,,,,,,,,,,4.89199996,s,GLOBOS,TRUE,,,,,,,143,globus,Catalan,Sounds/cat_globus.mp3,2020-06-19_09h35.18.844,TranslationElicitation_spa,3.2.4,Win32,60,55kvweighibv82hihv9322hhfh,1,0,80,38,1,79
,,,,,,,,,,,,,,,,,,,,,,,,,,,,,,,,,,,5.348999977,5.348999977,return,,TRUE,,,,,,,143,globus,Catalan,Sounds/cat_globus.mp3,2020-06-19_09h35.18.844,TranslationElicitation_spa,3.2.4,Win32,60,55kvweighibv82hihv9322hhfh,1,0,80,38,1,79
,,,,,,,,,,,,,,,,,,,,,,,,,,,,,,,,,,,,,,,,,,,,,,143,globus,Catalan,Sounds/cat_globus.mp3,2020-06-19_09h35.18.844,TranslationElicitation_spa,3.2.4,Win32,60,55kvweighibv82hihv9322hhfh,1,0,80,38,1,79
,,,,,,,,,,,,,,,,,,,,,,,,,,,,,,,,,,,,3.342000008,l,L,FALSE,,,,,,,150,lloro,Catalan,Sounds/cat_lloro.mp3,2020-06-19_09h35.18.844,TranslationElicitation_spa,3.2.4,Win32,60,55kvweighibv82hihv9322hhfh,1,0,80,44,1,79
,,,,,,,,,,,,,,,,,,,,,,,,,,,,,,,,,,,,3.575000048,l,LL,FALSE,,,,,,,150,lloro,Catalan,Sounds/cat_lloro.mp3,2020-06-19_09h35.18.844,TranslationElicitation_spa,3.2.4,Win32,60,55kvweighibv82hihv9322hhfh,1,0,80,44,1,79
,,,,,,,,,,,,,,,,,,,,,,,,,,,,,,,,,,,,3.917000055,o,LLO,FALSE,,,,,,,150,lloro,Catalan,Sounds/cat_lloro.mp3,2020-06-19_09h35.18.844,TranslationElicitation_spa,3.2.4,Win32,60,55kvweighibv82hihv9322hhfh,1,0,80,44,1,79
,,,,,,,,,,,,,,,,,,,,,,,,,,,,,,,,,,,,4.343000174,r,LLOR,FALSE,,,,,,,150,lloro,Catalan,Sounds/cat_lloro.mp3,2020-06-19_09h35.18.844,TranslationElicitation_spa,3.2.4,Win32,60,55kvweighibv82hihv9322hhfh,1,0,80,44,1,79
,,,,,,,,,,,,,,,,,,,,,,,,,,,,,,,,,,,,4.519000053,o,LLORO,FALSE,,,,,,,150,lloro,Catalan,Sounds/cat_lloro.mp3,2020-06-19_09h35.18.844,TranslationElicitation_spa,3.2.4,Win32,60,55kvweighibv82hihv9322hhfh,1,0,80,44,1,79
,,,,,,,,,,,,,,,,,,,,,,,,,,,,,,,,,,,4.854000092,4.854000092,return,,FALSE,,,,,,,150,lloro,Catalan,Sounds/cat_lloro.mp3,2020-06-19_09h35.18.844,TranslationElicitation_spa,3.2.4,Win32,60,55kvweighibv82hihv9322hhfh,1,0,80,44,1,79
,,,,,,,,,,,,,,,,,,,,,,,,,,,,,,,,,,,,,,,,,,,,,,150,lloro,Catalan,Sounds/cat_lloro.mp3,2020-06-19_09h35.18.844,TranslationElicitation_spa,3.2.4,Win32,60,55kvweighibv82hihv9322hhfh,1,0,80,44,1,79
,,,,,,,,,,,,,,,,,,,,,,,,,,,,,,,,,,,,9.842000008,m,M,FALSE,,,,,,,153,mico,Catalan,Sounds/cat_mico.mp3,2020-06-19_09h35.18.844,TranslationElicitation_spa,3.2.4,Win32,60,55kvweighibv82hihv9322hhfh,1,0,80,47,1,79
,,,,,,,,,,,,,,,,,,,,,,,,,,,,,,,,,,,,11.44700003,i,MI,FALSE,,,,,,,153,mico,Catalan,Sounds/cat_mico.mp3,2020-06-19_09h35.18.844,TranslationElicitation_spa,3.2.4,Win32,60,55kvweighibv82hihv9322hhfh,1,0,80,47,1,79
,,,,,,,,,,,,,,,,,,,,,,,,,,,,,,,,,,,,13.16000009,s,MIS,FALSE,,,,,,,153,mico,Catalan,Sounds/cat_mico.mp3,2020-06-19_09h35.18.844,TranslationElicitation_spa,3.2.4,Win32,60,55kvweighibv82hihv9322hhfh,1,0,80,47,1,79
,,,,,,,,,,,,,,,,,,,,,,,,,,,,,,,,,,,,14.02600002,u,MISU,FALSE,,,,,,,153,mico,Catalan,Sounds/cat_mico.mp3,2020-06-19_09h35.18.844,TranslationElicitation_spa,3.2.4,Win32,60,55kvweighibv82hihv9322hhfh,1,0,80,47,1,79
,,,,,,,,,,,,,,,,,,,,,,,,,,,,,,,,,,,15.48300004,15.48300004,return,,FALSE,,,,,,,153,mico,Catalan,Sounds/cat_mico.mp3,2020-06-19_09h35.18.844,TranslationElicitation_spa,3.2.4,Win32,60,55kvweighibv82hihv9322hhfh,1,0,80,47,1,79
,,,,,,,,,,,,,,,,,,,,,,,,,,,,,,,,,,,,,,,,,,,,,,153,mico,Catalan,Sounds/cat_mico.mp3,2020-06-19_09h35.18.844,TranslationElicitation_spa,3.2.4,Win32,60,55kvweighibv82hihv9322hhfh,1,0,80,47,1,79
,,,,,,,,,,,,,,,,,,,,,,,,,,,,,,,,,,,,13.03199983,b,B,FALSE,,,,,,,165,pernil,Catalan,Sounds/cat_pernil.mp3,2020-06-19_09h35.18.844,TranslationElicitation_spa,3.2.4,Win32,60,55kvweighibv82hihv9322hhfh,1,0,80,58,1,79
,,,,,,,,,,,,,,,,,,,,,,,,,,,,,,,,,,,,13.13499999,a,BA,FALSE,,,,,,,165,pernil,Catalan,Sounds/cat_pernil.mp3,2020-06-19_09h35.18.844,TranslationElicitation_spa,3.2.4,Win32,60,55kvweighibv82hihv9322hhfh,1,0,80,58,1,79
,,,,,,,,,,,,,,,,,,,,,,,,,,,,,,,,,,,,13.3829999,r,BAR,FALSE,,,,,,,165,pernil,Catalan,Sounds/cat_pernil.mp3,2020-06-19_09h35.18.844,TranslationElicitation_spa,3.2.4,Win32,60,55kvweighibv82hihv9322hhfh,1,0,80,58,1,79
,,,,,,,,,,,,,,,,,,,,,,,,,,,,,,,,,,,,13.52799988,r,BARR,FALSE,,,,,,,165,pernil,Catalan,Sounds/cat_pernil.mp3,2020-06-19_09h35.18.844,TranslationElicitation_spa,3.2.4,Win32,60,55kvweighibv82hihv9322hhfh,1,0,80,58,1,79
,,,,,,,,,,,,,,,,,,,,,,,,,,,,,,,,,,,,13.62399983,i,BARRI,FALSE,,,,,,,165,pernil,Catalan,Sounds/cat_pernil.mp3,2020-06-19_09h35.18.844,TranslationElicitation_spa,3.2.4,Win32,60,55kvweighibv82hihv9322hhfh,1,0,80,58,1,79
,,,,,,,,,,,,,,,,,,,,,,,,,,,,,,,,,,,,13.81799984,l,BARRIL,FALSE,,,,,,,165,pernil,Catalan,Sounds/cat_pernil.mp3,2020-06-19_09h35.18.844,TranslationElicitation_spa,3.2.4,Win32,60,55kvweighibv82hihv9322hhfh,1,0,80,58,1,79
,,,,,,,,,,,,,,,,,,,,,,,,,,,,,,,,,,,14.73799992,14.73799992,return,,FALSE,,,,,,,165,pernil,Catalan,Sounds/cat_pernil.mp3,2020-06-19_09h35.18.844,TranslationElicitation_spa,3.2.4,Win32,60,55kvweighibv82hihv9322hhfh,1,0,80,58,1,79
,,,,,,,,,,,,,,,,,,,,,,,,,,,,,,,,,,,,,,,,,,,,,,165,pernil,Catalan,Sounds/cat_pernil.mp3,2020-06-19_09h35.18.844,TranslationElicitation_spa,3.2.4,Win32,60,55kvweighibv82hihv9322hhfh,1,0,80,58,1,79
,,,,,,,,,,,,,,,,,,,,,,,,,,,,,,,,,,,,1.777999878,p,P,FALSE,,,,,,,166,peu,Catalan,Sounds/cat_peu.mp3,2020-06-19_09h35.18.844,TranslationElicitation_spa,3.2.4,Win32,60,55kvweighibv82hihv9322hhfh,1,0,80,59,1,79
,,,,,,,,,,,,,,,,,,,,,,,,,,,,,,,,,,,,1.945999861,e,PE,FALSE,,,,,,,166,peu,Catalan,Sounds/cat_peu.mp3,2020-06-19_09h35.18.844,TranslationElicitation_spa,3.2.4,Win32,60,55kvweighibv82hihv9322hhfh,1,0,80,59,1,79
,,,,,,,,,,,,,,,,,,,,,,,,,,,,,,,,,,,,2.089999914,o,PEO,FALSE,,,,,,,166,peu,Catalan,Sounds/cat_peu.mp3,2020-06-19_09h35.18.844,TranslationElicitation_spa,3.2.4,Win32,60,55kvweighibv82hihv9322hhfh,1,0,80,59,1,79
,,,,,,,,,,,,,,,,,,,,,,,,,,,,,,,,,,,2.41899991,2.41899991,return,,FALSE,,,,,,,166,peu,Catalan,Sounds/cat_peu.mp3,2020-06-19_09h35.18.844,TranslationElicitation_spa,3.2.4,Win32,60,55kvweighibv82hihv9322hhfh,1,0,80,59,1,79
,,,,,,,,,,,,,,,,,,,,,,,,,,,,,,,,,,,,,,,,,,,,,,166,peu,Catalan,Sounds/cat_peu.mp3,2020-06-19_09h35.18.844,TranslationElicitation_spa,3.2.4,Win32,60,55kvweighibv82hihv9322hhfh,1,0,80,59,1,79
,,,,,,,,,,,,,,,,,,,,,,,,,,,,,,,,,,,,1.595999956,b,B,FALSE,,,,,,,111,bibero,Catalan,Sounds/cat_bibero.mp3,2020-06-19_09h35.18.844,TranslationElicitation_spa,3.2.4,Win32,60,55kvweighibv82hihv9322hhfh,1,0,80,6,1,79
,,,,,,,,,,,,,,,,,,,,,,,,,,,,,,,,,,,,1.70299983,i,BI,FALSE,,,,,,,111,bibero,Catalan,Sounds/cat_bibero.mp3,2020-06-19_09h35.18.844,TranslationElicitation_spa,3.2.4,Win32,60,55kvweighibv82hihv9322hhfh,1,0,80,6,1,79
,,,,,,,,,,,,,,,,,,,,,,,,,,,,,,,,,,,,1.955999851,b,BIB,FALSE,,,,,,,111,bibero,Catalan,Sounds/cat_bibero.mp3,2020-06-19_09h35.18.844,TranslationElicitation_spa,3.2.4,Win32,60,55kvweighibv82hihv9322hhfh,1,0,80,6,1,79
,,,,,,,,,,,,,,,,,,,,,,,,,,,,,,,,,,,,2.036999941,e,BIBE,FALSE,,,,,,,111,bibero,Catalan,Sounds/cat_bibero.mp3,2020-06-19_09h35.18.844,TranslationElicitation_spa,3.2.4,Win32,60,55kvweighibv82hihv9322hhfh,1,0,80,6,1,79
,,,,,,,,,,,,,,,,,,,,,,,,,,,,,,,,,,,,2.230000019,r,BIBER,FALSE,,,,,,,111,bibero,Catalan,Sounds/cat_bibero.mp3,2020-06-19_09h35.18.844,TranslationElicitation_spa,3.2.4,Win32,60,55kvweighibv82hihv9322hhfh,1,0,80,6,1,79
,,,,,,,,,,,,,,,,,,,,,,,,,,,,,,,,,,,,2.405999899,o,BIBERO,FALSE,,,,,,,111,bibero,Catalan,Sounds/cat_bibero.mp3,2020-06-19_09h35.18.844,TranslationElicitation_spa,3.2.4,Win32,60,55kvweighibv82hihv9322hhfh,1,0,80,6,1,79
,,,,,,,,,,,,,,,,,,,,,,,,,,,,,,,,,,,,2.611999989,n,BIBERON,FALSE,,,,,,,111,bibero,Catalan,Sounds/cat_bibero.mp3,2020-06-19_09h35.18.844,TranslationElicitation_spa,3.2.4,Win32,60,55kvweighibv82hihv9322hhfh,1,0,80,6,1,79
,,,,,,,,,,,,,,,,,,,,,,,,,,,,,,,,,,,2.936999798,2.936999798,return,,FALSE,,,,,,,111,bibero,Catalan,Sounds/cat_bibero.mp3,2020-06-19_09h35.18.844,TranslationElicitation_spa,3.2.4,Win32,60,55kvweighibv82hihv9322hhfh,1,0,80,6,1,79
,,,,,,,,,,,,,,,,,,,,,,,,,,,,,,,,,,,,,,,,,,,,,,111,bibero,Catalan,Sounds/cat_bibero.mp3,2020-06-19_09h35.18.844,TranslationElicitation_spa,3.2.4,Win32,60,55kvweighibv82hihv9322hhfh,1,0,80,6,1,79
,,,,,,,,,,,,,,,,,,,,,,,,,,,,,,,,,,,,2.188999891,a,A,FALSE,,,,,,,133,estruc,Catalan,Sounds/cat_estruc.mp3,2020-06-19_09h35.18.844,TranslationElicitation_spa,3.2.4,Win32,60,55kvweighibv82hihv9322hhfh,1,0,80,28,1,79
,,,,,,,,,,,,,,,,,,,,,,,,,,,,,,,,,,,,2.470999956,v,AV,FALSE,,,,,,,133,estruc,Catalan,Sounds/cat_estruc.mp3,2020-06-19_09h35.18.844,TranslationElicitation_spa,3.2.4,Win32,60,55kvweighibv82hihv9322hhfh,1,0,80,28,1,79
,,,,,,,,,,,,,,,,,,,,,,,,,,,,,,,,,,,,2.555999994,e,AVE,FALSE,,,,,,,133,estruc,Catalan,Sounds/cat_estruc.mp3,2020-06-19_09h35.18.844,TranslationElicitation_spa,3.2.4,Win32,60,55kvweighibv82hihv9322hhfh,1,0,80,28,1,79
,,,,,,,,,,,,,,,,,,,,,,,,,,,,,,,,,,,,2.777999878,s,AVES,FALSE,,,,,,,133,estruc,Catalan,Sounds/cat_estruc.mp3,2020-06-19_09h35.18.844,TranslationElicitation_spa,3.2.4,Win32,60,55kvweighibv82hihv9322hhfh,1,0,80,28,1,79
,,,,,,,,,,,,,,,,,,,,,,,,,,,,,,,,,,,,3.036999941,t,AVEST,FALSE,,,,,,,133,estruc,Catalan,Sounds/cat_estruc.mp3,2020-06-19_09h35.18.844,TranslationElicitation_spa,3.2.4,Win32,60,55kvweighibv82hihv9322hhfh,1,0,80,28,1,79
,,,,,,,,,,,,,,,,,,,,,,,,,,,,,,,,,,,,3.103999853,r,AVESTR,FALSE,,,,,,,133,estruc,Catalan,Sounds/cat_estruc.mp3,2020-06-19_09h35.18.844,TranslationElicitation_spa,3.2.4,Win32,60,55kvweighibv82hihv9322hhfh,1,0,80,28,1,79
,,,,,,,,,,,,,,,,,,,,,,,,,,,,,,,,,,,,3.371999979,u,AVESTRU,FALSE,,,,,,,133,estruc,Catalan,Sounds/cat_estruc.mp3,2020-06-19_09h35.18.844,TranslationElicitation_spa,3.2.4,Win32,60,55kvweighibv82hihv9322hhfh,1,0,80,28,1,79
,,,,,,,,,,,,,,,,,,,,,,,,,,,,,,,,,,,,3.52699995,z,AVESTRUZ,FALSE,,,,,,,133,estruc,Catalan,Sounds/cat_estruc.mp3,2020-06-19_09h35.18.844,TranslationElicitation_spa,3.2.4,Win32,60,55kvweighibv82hihv9322hhfh,1,0,80,28,1,79
,,,,,,,,,,,,,,,,,,,,,,,,,,,,,,,,,,,4.032999992,4.032999992,return,,FALSE,,,,,,,133,estruc,Catalan,Sounds/cat_estruc.mp3,2020-06-19_09h35.18.844,TranslationElicitation_spa,3.2.4,Win32,60,55kvweighibv82hihv9322hhfh,1,0,80,28,1,79
,,,,,,,,,,,,,,,,,,,,,,,,,,,,,,,,,,,,,,,,,,,,,,133,estruc,Catalan,Sounds/cat_estruc.mp3,2020-06-19_09h35.18.844,TranslationElicitation_spa,3.2.4,Win32,60,55kvweighibv82hihv9322hhfh,1,0,80,28,1,79
,,,,,,,,,,,,,,,,,,,,,,,,,,,,,,,,,,,,1.562000036,b,B,FALSE,,,,,,,112,bici,Catalan,Sounds/cat_bici.mp3,2020-06-19_09h35.18.844,TranslationElicitation_spa,3.2.4,Win32,60,55kvweighibv82hihv9322hhfh,1,0,80,7,1,79
,,,,,,,,,,,,,,,,,,,,,,,,,,,,,,,,,,,,1.703999996,i,BI,FALSE,,,,,,,112,bici,Catalan,Sounds/cat_bici.mp3,2020-06-19_09h35.18.844,TranslationElicitation_spa,3.2.4,Win32,60,55kvweighibv82hihv9322hhfh,1,0,80,7,1,79
,,,,,,,,,,,,,,,,,,,,,,,,,,,,,,,,,,,,1.878999949,c,BIC,FALSE,,,,,,,112,bici,Catalan,Sounds/cat_bici.mp3,2020-06-19_09h35.18.844,TranslationElicitation_spa,3.2.4,Win32,60,55kvweighibv82hihv9322hhfh,1,0,80,7,1,79
,,,,,,,,,,,,,,,,,,,,,,,,,,,,,,,,,,,,1.944000006,i,BICI,FALSE,,,,,,,112,bici,Catalan,Sounds/cat_bici.mp3,2020-06-19_09h35.18.844,TranslationElicitation_spa,3.2.4,Win32,60,55kvweighibv82hihv9322hhfh,1,0,80,7,1,79
,,,,,,,,,,,,,,,,,,,,,,,,,,,,,,,,,,,2.273000002,2.273000002,return,,FALSE,,,,,,,112,bici,Catalan,Sounds/cat_bici.mp3,2020-06-19_09h35.18.844,TranslationElicitation_spa,3.2.4,Win32,60,55kvweighibv82hihv9322hhfh,1,0,80,7,1,79
,,,,,,,,,,,,,,,,,,,,,,,,,,,,,,,,,,,,,,,,,,,,,,112,bici,Catalan,Sounds/cat_bici.mp3,2020-06-19_09h35.18.844,TranslationElicitation_spa,3.2.4,Win32,60,55kvweighibv82hihv9322hhfh,1,0,80,7,1,79
,,,,,,,,,,,,,,,,,,,,,,,,,,,,,,,,,,,,7.384000063,v,V,FALSE,,,,,,,118,bou,Catalan,Sounds/cat_bou.mp3,2020-06-19_09h35.18.844,TranslationElicitation_spa,3.2.4,Win32,60,55kvweighibv82hihv9322hhfh,1,0,80,13,1,79
,,,,,,,,,,,,,,,,,,,,,,,,,,,,,,,,,,,,7.553999901,o,VO,FALSE,,,,,,,118,bou,Catalan,Sounds/cat_bou.mp3,2020-06-19_09h35.18.844,TranslationElicitation_spa,3.2.4,Win32,60,55kvweighibv82hihv9322hhfh,1,0,80,13,1,79
,,,,,,,,,,,,,,,,,,,,,,,,,,,,,,,,,,,,7.861000061,z,VOZ,FALSE,,,,,,,118,bou,Catalan,Sounds/cat_bou.mp3,2020-06-19_09h35.18.844,TranslationElicitation_spa,3.2.4,Win32,60,55kvweighibv82hihv9322hhfh,1,0,80,13,1,79
,,,,,,,,,,,,,,,,,,,,,,,,,,,,,,,,,,,8.024999857,8.024999857,return,,FALSE,,,,,,,118,bou,Catalan,Sounds/cat_bou.mp3,2020-06-19_09h35.18.844,TranslationElicitation_spa,3.2.4,Win32,60,55kvweighibv82hihv9322hhfh,1,0,80,13,1,79
,,,,,,,,,,,,,,,,,,,,,,,,,,,,,,,,,,,,,,,,,,,,,,118,bou,Catalan,Sounds/cat_bou.mp3,2020-06-19_09h35.18.844,TranslationElicitation_spa,3.2.4,Win32,60,55kvweighibv82hihv9322hhfh,1,0,80,13,1,79
,,,,,,,,,,,,,,,,,,,,,,,,,,,,,,,,,,,,1.565000057,u,U,FALSE,,,,,,,151,lluna,Catalan,Sounds/cat_lluna.mp3,2020-06-19_09h35.18.844,TranslationElicitation_spa,3.2.4,Win32,60,55kvweighibv82hihv9322hhfh,1,0,80,45,1,79
,,,,,,,,,,,,,,,,,,,,,,,,,,,,,,,,,,,,2.167999983,backspace,,TRUE,,,,,,,151,lluna,Catalan,Sounds/cat_lluna.mp3,2020-06-19_09h35.18.844,TranslationElicitation_spa,3.2.4,Win32,60,55kvweighibv82hihv9322hhfh,1,0,80,45,1,79
,,,,,,,,,,,,,,,,,,,,,,,,,,,,,,,,,,,,2.789000034,l,L,TRUE,,,,,,,151,lluna,Catalan,Sounds/cat_lluna.mp3,2020-06-19_09h35.18.844,TranslationElicitation_spa,3.2.4,Win32,60,55kvweighibv82hihv9322hhfh,1,0,80,45,1,79
,,,,,,,,,,,,,,,,,,,,,,,,,,,,,,,,,,,,3.039999962,u,LU,TRUE,,,,,,,151,lluna,Catalan,Sounds/cat_lluna.mp3,2020-06-19_09h35.18.844,TranslationElicitation_spa,3.2.4,Win32,60,55kvweighibv82hihv9322hhfh,1,0,80,45,1,79
,,,,,,,,,,,,,,,,,,,,,,,,,,,,,,,,,,,,3.227999926,n,LUN,TRUE,,,,,,,151,lluna,Catalan,Sounds/cat_lluna.mp3,2020-06-19_09h35.18.844,TranslationElicitation_spa,3.2.4,Win32,60,55kvweighibv82hihv9322hhfh,1,0,80,45,1,79
,,,,,,,,,,,,,,,,,,,,,,,,,,,,,,,,,,,,3.35800004,a,LUNA,TRUE,,,,,,,151,lluna,Catalan,Sounds/cat_lluna.mp3,2020-06-19_09h35.18.844,TranslationElicitation_spa,3.2.4,Win32,60,55kvweighibv82hihv9322hhfh,1,0,80,45,1,79
,,,,,,,,,,,,,,,,,,,,,,,,,,,,,,,,,,,3.63499999,3.63499999,return,,TRUE,,,,,,,151,lluna,Catalan,Sounds/cat_lluna.mp3,2020-06-19_09h35.18.844,TranslationElicitation_spa,3.2.4,Win32,60,55kvweighibv82hihv9322hhfh,1,0,80,45,1,79
,,,,,,,,,,,,,,,,,,,,,,,,,,,,,,,,,,,,,,,,,,,,,,151,lluna,Catalan,Sounds/cat_lluna.mp3,2020-06-19_09h35.18.844,TranslationElicitation_spa,3.2.4,Win32,60,55kvweighibv82hihv9322hhfh,1,0,80,45,1,79
,,,,,,,,,,,,,,,,,,,,,,,,,,,,,,,,,,,,4.021000147,t,T,FALSE,,,,,,,185,ulleres,Catalan,Sounds/cat_ulleres.mp3,2020-06-19_09h35.18.844,TranslationElicitation_spa,3.2.4,Win32,60,55kvweighibv82hihv9322hhfh,1,0,80,76,1,79
,,,,,,,,,,,,,,,,,,,,,,,,,,,,,,,,,,,,4.157000065,i,TI,FALSE,,,,,,,185,ulleres,Catalan,Sounds/cat_ulleres.mp3,2020-06-19_09h35.18.844,TranslationElicitation_spa,3.2.4,Win32,60,55kvweighibv82hihv9322hhfh,1,0,80,76,1,79
,,,,,,,,,,,,,,,,,,,,,,,,,,,,,,,,,,,,4.404000044,j,TIJ,FALSE,,,,,,,185,ulleres,Catalan,Sounds/cat_ulleres.mp3,2020-06-19_09h35.18.844,TranslationElicitation_spa,3.2.4,Win32,60,55kvweighibv82hihv9322hhfh,1,0,80,76,1,79
,,,,,,,,,,,,,,,,,,,,,,,,,,,,,,,,,,,,4.525000095,e,TIJE,FALSE,,,,,,,185,ulleres,Catalan,Sounds/cat_ulleres.mp3,2020-06-19_09h35.18.844,TranslationElicitation_spa,3.2.4,Win32,60,55kvweighibv82hihv9322hhfh,1,0,80,76,1,79
,,,,,,,,,,,,,,,,,,,,,,,,,,,,,,,,,,,,4.69900012,r,TIJER,FALSE,,,,,,,185,ulleres,Catalan,Sounds/cat_ulleres.mp3,2020-06-19_09h35.18.844,TranslationElicitation_spa,3.2.4,Win32,60,55kvweighibv82hihv9322hhfh,1,0,80,76,1,79
,,,,,,,,,,,,,,,,,,,,,,,,,,,,,,,,,,,,4.837000132,r,TIJERR,FALSE,,,,,,,185,ulleres,Catalan,Sounds/cat_ulleres.mp3,2020-06-19_09h35.18.844,TranslationElicitation_spa,3.2.4,Win32,60,55kvweighibv82hihv9322hhfh,1,0,80,76,1,79
,,,,,,,,,,,,,,,,,,,,,,,,,,,,,,,,,,,,5.578999996,backspace,TIJE,TRUE,,,,,,,185,ulleres,Catalan,Sounds/cat_ulleres.mp3,2020-06-19_09h35.18.844,TranslationElicitation_spa,3.2.4,Win32,60,55kvweighibv82hihv9322hhfh,1,0,80,76,1,79
,,,,,,,,,,,,,,,,,,,,,,,,,,,,,,,,,,,,5.893000126,a,TIJEA,TRUE,,,,,,,185,ulleres,Catalan,Sounds/cat_ulleres.mp3,2020-06-19_09h35.18.844,TranslationElicitation_spa,3.2.4,Win32,60,55kvweighibv82hihv9322hhfh,1,0,80,76,1,79
,,,,,,,,,,,,,,,,,,,,,,,,,,,,,,,,,,,,6.36500001,backspace,TIJ,TRUE,,,,,,,185,ulleres,Catalan,Sounds/cat_ulleres.mp3,2020-06-19_09h35.18.844,TranslationElicitation_spa,3.2.4,Win32,60,55kvweighibv82hihv9322hhfh,1,0,80,76,1,79
,,,,,,,,,,,,,,,,,,,,,,,,,,,,,,,,,,,,6.853000164,r,TIJR,TRUE,,,,,,,185,ulleres,Catalan,Sounds/cat_ulleres.mp3,2020-06-19_09h35.18.844,TranslationElicitation_spa,3.2.4,Win32,60,55kvweighibv82hihv9322hhfh,1,0,80,76,1,79
,,,,,,,,,,,,,,,,,,,,,,,,,,,,,,,,,,,,7.080000162,a,TIJRA,TRUE,,,,,,,185,ulleres,Catalan,Sounds/cat_ulleres.mp3,2020-06-19_09h35.18.844,TranslationElicitation_spa,3.2.4,Win32,60,55kvweighibv82hihv9322hhfh,1,0,80,76,1,79
,,,,,,,,,,,,,,,,,,,,,,,,,,,,,,,,,,,,7.240999937,s,TIJRAS,TRUE,,,,,,,185,ulleres,Catalan,Sounds/cat_ulleres.mp3,2020-06-19_09h35.18.844,TranslationElicitation_spa,3.2.4,Win32,60,55kvweighibv82hihv9322hhfh,1,0,80,76,1,79
,,,,,,,,,,,,,,,,,,,,,,,,,,,,,,,,,,,,7.661000013,backspace,TIJR,TRUE,,,,,,,185,ulleres,Catalan,Sounds/cat_ulleres.mp3,2020-06-19_09h35.18.844,TranslationElicitation_spa,3.2.4,Win32,60,55kvweighibv82hihv9322hhfh,1,0,80,76,1,79
,,,,,,,,,,,,,,,,,,,,,,,,,,,,,,,,,,,,7.825999975,backspace,TI,TRUE,,,,,,,185,ulleres,Catalan,Sounds/cat_ulleres.mp3,2020-06-19_09h35.18.844,TranslationElicitation_spa,3.2.4,Win32,60,55kvweighibv82hihv9322hhfh,1,0,80,76,1,79
,,,,,,,,,,,,,,,,,,,,,,,,,,,,,,,,,,,,7.98300004,backspace,,TRUE,,,,,,,185,ulleres,Catalan,Sounds/cat_ulleres.mp3,2020-06-19_09h35.18.844,TranslationElicitation_spa,3.2.4,Win32,60,55kvweighibv82hihv9322hhfh,1,0,80,76,1,79
,,,,,,,,,,,,,,,,,,,,,,,,,,,,,,,,,,,,8.864000082,t,T,TRUE,,,,,,,185,ulleres,Catalan,Sounds/cat_ulleres.mp3,2020-06-19_09h35.18.844,TranslationElicitation_spa,3.2.4,Win32,60,55kvweighibv82hihv9322hhfh,1,0,80,76,1,79
,,,,,,,,,,,,,,,,,,,,,,,,,,,,,,,,,,,,8.970000029,i,TI,TRUE,,,,,,,185,ulleres,Catalan,Sounds/cat_ulleres.mp3,2020-06-19_09h35.18.844,TranslationElicitation_spa,3.2.4,Win32,60,55kvweighibv82hihv9322hhfh,1,0,80,76,1,79
,,,,,,,,,,,,,,,,,,,,,,,,,,,,,,,,,,,,9.150000095,j,TIJ,TRUE,,,,,,,185,ulleres,Catalan,Sounds/cat_ulleres.mp3,2020-06-19_09h35.18.844,TranslationElicitation_spa,3.2.4,Win32,60,55kvweighibv82hihv9322hhfh,1,0,80,76,1,79
,,,,,,,,,,,,,,,,,,,,,,,,,,,,,,,,,,,,9.226999998,e,TIJE,TRUE,,,,,,,185,ulleres,Catalan,Sounds/cat_ulleres.mp3,2020-06-19_09h35.18.844,TranslationElicitation_spa,3.2.4,Win32,60,55kvweighibv82hihv9322hhfh,1,0,80,76,1,79
,,,,,,,,,,,,,,,,,,,,,,,,,,,,,,,,,,,,9.38499999,r,TIJER,TRUE,,,,,,,185,ulleres,Catalan,Sounds/cat_ulleres.mp3,2020-06-19_09h35.18.844,TranslationElicitation_spa,3.2.4,Win32,60,55kvweighibv82hihv9322hhfh,1,0,80,76,1,79
,,,,,,,,,,,,,,,,,,,,,,,,,,,,,,,,,,,,9.605000019,a,TIJERA,TRUE,,,,,,,185,ulleres,Catalan,Sounds/cat_ulleres.mp3,2020-06-19_09h35.18.844,TranslationElicitation_spa,3.2.4,Win32,60,55kvweighibv82hihv9322hhfh,1,0,80,76,1,79
,,,,,,,,,,,,,,,,,,,,,,,,,,,,,,,,,,,,9.703000069,s,TIJERAS,TRUE,,,,,,,185,ulleres,Catalan,Sounds/cat_ulleres.mp3,2020-06-19_09h35.18.844,TranslationElicitation_spa,3.2.4,Win32,60,55kvweighibv82hihv9322hhfh,1,0,80,76,1,79
,,,,,,,,,,,,,,,,,,,,,,,,,,,,,,,,,,,10.04299998,10.04299998,return,,TRUE,,,,,,,185,ulleres,Catalan,Sounds/cat_ulleres.mp3,2020-06-19_09h35.18.844,TranslationElicitation_spa,3.2.4,Win32,60,55kvweighibv82hihv9322hhfh,1,0,80,76,1,79
,,,,,,,,,,,,,,,,,,,,,,,,,,,,,,,,,,,,,,,,,,,,,,185,ulleres,Catalan,Sounds/cat_ulleres.mp3,2020-06-19_09h35.18.844,TranslationElicitation_spa,3.2.4,Win32,60,55kvweighibv82hihv9322hhfh,1,0,80,76,1,79
,,,,,,,,,,,,,,,,,,,,,,,,,,,,,,,,,,,,2.049000025,g,G,FALSE,,,,,,,138,galeta,Catalan,Sounds/cat_galeta.mp3,2020-06-19_09h35.18.844,TranslationElicitation_spa,3.2.4,Win32,60,55kvweighibv82hihv9322hhfh,1,0,80,33,1,79
,,,,,,,,,,,,,,,,,,,,,,,,,,,,,,,,,,,,2.273999929,a,GA,FALSE,,,,,,,138,galeta,Catalan,Sounds/cat_galeta.mp3,2020-06-19_09h35.18.844,TranslationElicitation_spa,3.2.4,Win32,60,55kvweighibv82hihv9322hhfh,1,0,80,33,1,79
,,,,,,,,,,,,,,,,,,,,,,,,,,,,,,,,,,,,2.481999874,l,GAL,FALSE,,,,,,,138,galeta,Catalan,Sounds/cat_galeta.mp3,2020-06-19_09h35.18.844,TranslationElicitation_spa,3.2.4,Win32,60,55kvweighibv82hihv9322hhfh,1,0,80,33,1,79
,,,,,,,,,,,,,,,,,,,,,,,,,,,,,,,,,,,,2.610999823,l,GALL,FALSE,,,,,,,138,galeta,Catalan,Sounds/cat_galeta.mp3,2020-06-19_09h35.18.844,TranslationElicitation_spa,3.2.4,Win32,60,55kvweighibv82hihv9322hhfh,1,0,80,33,1,79
,,,,,,,,,,,,,,,,,,,,,,,,,,,,,,,,,,,,2.694999933,e,GALLE,FALSE,,,,,,,138,galeta,Catalan,Sounds/cat_galeta.mp3,2020-06-19_09h35.18.844,TranslationElicitation_spa,3.2.4,Win32,60,55kvweighibv82hihv9322hhfh,1,0,80,33,1,79
,,,,,,,,,,,,,,,,,,,,,,,,,,,,,,,,,,,,2.890999794,t,GALLET,FALSE,,,,,,,138,galeta,Catalan,Sounds/cat_galeta.mp3,2020-06-19_09h35.18.844,TranslationElicitation_spa,3.2.4,Win32,60,55kvweighibv82hihv9322hhfh,1,0,80,33,1,79
,,,,,,,,,,,,,,,,,,,,,,,,,,,,,,,,,,,,3.121999979,a,GALLETA,FALSE,,,,,,,138,galeta,Catalan,Sounds/cat_galeta.mp3,2020-06-19_09h35.18.844,TranslationElicitation_spa,3.2.4,Win32,60,55kvweighibv82hihv9322hhfh,1,0,80,33,1,79
,,,,,,,,,,,,,,,,,,,,,,,,,,,,,,,,,,,3.338999987,3.338999987,return,,FALSE,,,,,,,138,galeta,Catalan,Sounds/cat_galeta.mp3,2020-06-19_09h35.18.844,TranslationElicitation_spa,3.2.4,Win32,60,55kvweighibv82hihv9322hhfh,1,0,80,33,1,79
,,,,,,,,,,,,,,,,,,,,,,,,,,,,,,,,,,,,,,,,,,,,,,138,galeta,Catalan,Sounds/cat_galeta.mp3,2020-06-19_09h35.18.844,TranslationElicitation_spa,3.2.4,Win32,60,55kvweighibv82hihv9322hhfh,1,0,80,33,1,79
,,,,,,,,,,,,,,,,,,,,,,,,,,,,,,,,,,,,9.655999899,s,S,FALSE,,,,,,,106,aixeta,Catalan,Sounds/cat_aixeta.mp3,2020-06-19_09h35.18.844,TranslationElicitation_spa,3.2.4,Win32,60,55kvweighibv82hihv9322hhfh,1,0,80,2,1,79
,,,,,,,,,,,,,,,,,,,,,,,,,,,,,,,,,,,,9.801999807,e,SE,FALSE,,,,,,,106,aixeta,Catalan,Sounds/cat_aixeta.mp3,2020-06-19_09h35.18.844,TranslationElicitation_spa,3.2.4,Win32,60,55kvweighibv82hihv9322hhfh,1,0,80,2,1,79
,,,,,,,,,,,,,,,,,,,,,,,,,,,,,,,,,,,,9.980000019,r,SER,FALSE,,,,,,,106,aixeta,Catalan,Sounds/cat_aixeta.mp3,2020-06-19_09h35.18.844,TranslationElicitation_spa,3.2.4,Win32,60,55kvweighibv82hihv9322hhfh,1,0,80,2,1,79
,,,,,,,,,,,,,,,,,,,,,,,,,,,,,,,,,,,,10.61699986,v,SERV,FALSE,,,,,,,106,aixeta,Catalan,Sounds/cat_aixeta.mp3,2020-06-19_09h35.18.844,TranslationElicitation_spa,3.2.4,Win32,60,55kvweighibv82hihv9322hhfh,1,0,80,2,1,79
,,,,,,,,,,,,,,,,,,,,,,,,,,,,,,,,,,,,10.76099992,i,SERVI,FALSE,,,,,,,106,aixeta,Catalan,Sounds/cat_aixeta.mp3,2020-06-19_09h35.18.844,TranslationElicitation_spa,3.2.4,Win32,60,55kvweighibv82hihv9322hhfh,1,0,80,2,1,79
,,,,,,,,,,,,,,,,,,,,,,,,,,,,,,,,,,,,10.95299983,l,SERVIL,FALSE,,,,,,,106,aixeta,Catalan,Sounds/cat_aixeta.mp3,2020-06-19_09h35.18.844,TranslationElicitation_spa,3.2.4,Win32,60,55kvweighibv82hihv9322hhfh,1,0,80,2,1,79
,,,,,,,,,,,,,,,,,,,,,,,,,,,,,,,,,,,,11.11999989,l,SERVILL,FALSE,,,,,,,106,aixeta,Catalan,Sounds/cat_aixeta.mp3,2020-06-19_09h35.18.844,TranslationElicitation_spa,3.2.4,Win32,60,55kvweighibv82hihv9322hhfh,1,0,80,2,1,79
,,,,,,,,,,,,,,,,,,,,,,,,,,,,,,,,,,,,11.2349999,e,SERVILLE,FALSE,,,,,,,106,aixeta,Catalan,Sounds/cat_aixeta.mp3,2020-06-19_09h35.18.844,TranslationElicitation_spa,3.2.4,Win32,60,55kvweighibv82hihv9322hhfh,1,0,80,2,1,79
,,,,,,,,,,,,,,,,,,,,,,,,,,,,,,,,,,,,11.40299988,t,SERVILLET,FALSE,,,,,,,106,aixeta,Catalan,Sounds/cat_aixeta.mp3,2020-06-19_09h35.18.844,TranslationElicitation_spa,3.2.4,Win32,60,55kvweighibv82hihv9322hhfh,1,0,80,2,1,79
,,,,,,,,,,,,,,,,,,,,,,,,,,,,,,,,,,,,11.62599993,a,SERVILLETA,FALSE,,,,,,,106,aixeta,Catalan,Sounds/cat_aixeta.mp3,2020-06-19_09h35.18.844,TranslationElicitation_spa,3.2.4,Win32,60,55kvweighibv82hihv9322hhfh,1,0,80,2,1,79
,,,,,,,,,,,,,,,,,,,,,,,,,,,,,,,,,,,13.50399995,13.50499988,return,,FALSE,,,,,,,106,aixeta,Catalan,Sounds/cat_aixeta.mp3,2020-06-19_09h35.18.844,TranslationElicitation_spa,3.2.4,Win32,60,55kvweighibv82hihv9322hhfh,1,0,80,2,1,79
,,,,,,,,,,,,,,,,,,,,,,,,,,,,,,,,,,,,,,,,,,,,,,106,aixeta,Catalan,Sounds/cat_aixeta.mp3,2020-06-19_09h35.18.844,TranslationElicitation_spa,3.2.4,Win32,60,55kvweighibv82hihv9322hhfh,1,0,80,2,1,79
,,,,,,,,,,,,,,,,,,,,,,,,,,,,,,,,,,,,1.394999981,e,E,FALSE,,,,,,,183,tren,Catalan,Sounds/cat_tren.mp3,2020-06-19_09h35.18.844,TranslationElicitation_spa,3.2.4,Win32,60,55kvweighibv82hihv9322hhfh,1,0,80,74,1,79
,,,,,,,,,,,,,,,,,,,,,,,,,,,,,,,,,,,,1.899000168,backspace,,TRUE,,,,,,,183,tren,Catalan,Sounds/cat_tren.mp3,2020-06-19_09h35.18.844,TranslationElicitation_spa,3.2.4,Win32,60,55kvweighibv82hihv9322hhfh,1,0,80,74,1,79
,,,,,,,,,,,,,,,,,,,,,,,,,,,,,,,,,,,,2.162000179,t,T,TRUE,,,,,,,183,tren,Catalan,Sounds/cat_tren.mp3,2020-06-19_09h35.18.844,TranslationElicitation_spa,3.2.4,Win32,60,55kvweighibv82hihv9322hhfh,1,0,80,74,1,79
,,,,,,,,,,,,,,,,,,,,,,,,,,,,,,,,,,,,2.246000051,r,TR,TRUE,,,,,,,183,tren,Catalan,Sounds/cat_tren.mp3,2020-06-19_09h35.18.844,TranslationElicitation_spa,3.2.4,Win32,60,55kvweighibv82hihv9322hhfh,1,0,80,74,1,79
,,,,,,,,,,,,,,,,,,,,,,,,,,,,,,,,,,,,2.437999964,e,TRE,TRUE,,,,,,,183,tren,Catalan,Sounds/cat_tren.mp3,2020-06-19_09h35.18.844,TranslationElicitation_spa,3.2.4,Win32,60,55kvweighibv82hihv9322hhfh,1,0,80,74,1,79
,,,,,,,,,,,,,,,,,,,,,,,,,,,,,,,,,,,,2.590000153,n,TREN,TRUE,,,,,,,183,tren,Catalan,Sounds/cat_tren.mp3,2020-06-19_09h35.18.844,TranslationElicitation_spa,3.2.4,Win32,60,55kvweighibv82hihv9322hhfh,1,0,80,74,1,79
,,,,,,,,,,,,,,,,,,,,,,,,,,,,,,,,,,,2.962000132,2.962000132,return,,TRUE,,,,,,,183,tren,Catalan,Sounds/cat_tren.mp3,2020-06-19_09h35.18.844,TranslationElicitation_spa,3.2.4,Win32,60,55kvweighibv82hihv9322hhfh,1,0,80,74,1,79
