consentKey.keys,consentKey.rt,languageL1Key.keys,languageL1Key.rt,languageL2,languageL2OralKey.keys,languageL2OralKey.rt,languageL2WrittenKey.keys,languageL2WrittenKey.rt,languageL3OralKey.keys,languageL3OralKey.rt,languageL3WrittenKey.keys,languageL3WrittenKey.rt,languageCatalanOralKey.keys,languageCatalanOralKey.rt,languageCatalanWrittenKey.keys,languageCatalanWrittenKey.rt,languageCatalanTimeKey.keys,languageCatalanTimeKey.rt,age,demoSexKey.keys,demoSexKey.rt,demoEducationKey.keys,demoEducationKey.rt,city,demoVisionKey.keys,demoVisionKey.rt,demoLanguageKey.keys,demoLanguageKey.rt,setupLocationKey.keys,setupLocationKey.rt,setupNoiseKey.keys,setupNoiseKey.rt,instructionsKeys.keys,instructionsKeys.rt,keyPressed,keyPressTime,inputText,error,trials_practice.thisRepN,trials_practice.thisTrialN,trials_practice.thisN,trials_practice.thisIndex,trials_practice.ran,trials_practice.order,trial_id,word,test_language,soundfile,date,expName,psychopyVersion,OS,frameRate,participant,trialOffset,trials.thisRepN,trials.thisTrialN,trials.thisN,trials.thisIndex,trials.ran,trials.order
space,4.585999727,e,10.82999992,,3,9.973999977,4,6.573999882,,,,,1,4.414999962,1,2.570999861,1,4.873999834,24,m,2.422999859,4,3.738999844,MÁLAGA,n,4.873999834,n,2.454999924,1,2.527999878,1,5.222999811,space,14.6099999,space,6.713000059, ,FALSE,1,0,5,2,1,4,159,onada,Catalan,Sounds/cat_onada.mp3,2020-06-20_16h35.36.768,TranslationElicitation_spa,3.2.4,Win32,60,55lvve0vwnrihv0rihqipejv1nfnr,,,,,,,
,,,,,,,,,,,,,,,,,,,,,,,,,,,,,,,,,,,return,9.09800005,,FALSE,1,0,5,2,1,4,159,onada,Catalan,Sounds/cat_onada.mp3,2020-06-20_16h35.36.768,TranslationElicitation_spa,3.2.4,Win32,60,55lvve0vwnrihv0rihqipejv1nfnr,9.09800005,,,,,,
,,,,,,,,,,,,,,,,,,,,,,,,,,,,,,,,,,,,,,,1,0,5,2,1,4,159,onada,Catalan,Sounds/cat_onada.mp3,2020-06-20_16h35.36.768,TranslationElicitation_spa,3.2.4,Win32,60,55lvve0vwnrihv0rihqipejv1nfnr,,,,,,,
,,,,,,,,,,,,,,,,,,,,,,,,,,,,,,,,,,,return,3.566999912,,FALSE,1,0,5,3,1,4,167,pingui,Catalan,Sounds/cat_pingui.mp3,2020-06-20_16h35.36.768,TranslationElicitation_spa,3.2.4,Win32,60,55lvve0vwnrihv0rihqipejv1nfnr,3.566999912,,,,,,
,,,,,,,,,,,,,,,,,,,,,,,,,,,,,,,,,,,,,,,1,0,5,3,1,4,167,pingui,Catalan,Sounds/cat_pingui.mp3,2020-06-20_16h35.36.768,TranslationElicitation_spa,3.2.4,Win32,60,55lvve0vwnrihv0rihqipejv1nfnr,,,,,,,
,,,,,,,,,,,,,,,,,,,,,,,,,,,,,,,,,,,return,2.382999897,,FALSE,1,0,5,1,1,4,147,jaqueta,Catalan,Sounds/cat_jaqueta.mp3,2020-06-20_16h35.36.768,TranslationElicitation_spa,3.2.4,Win32,60,55lvve0vwnrihv0rihqipejv1nfnr,2.381999969,,,,,,
,,,,,,,,,,,,,,,,,,,,,,,,,,,,,,,,,,,,,,,1,0,5,1,1,4,147,jaqueta,Catalan,Sounds/cat_jaqueta.mp3,2020-06-20_16h35.36.768,TranslationElicitation_spa,3.2.4,Win32,60,55lvve0vwnrihv0rihqipejv1nfnr,,,,,,,
,,,,,,,,,,,,,,,,,,,,,,,,,,,,,,,,,,,return,2.01699996,,FALSE,1,0,5,4,1,4,179,tigre,Catalan,Sounds/cat_tigre.mp3,2020-06-20_16h35.36.768,TranslationElicitation_spa,3.2.4,Win32,60,55lvve0vwnrihv0rihqipejv1nfnr,2.01699996,,,,,,
,,,,,,,,,,,,,,,,,,,,,,,,,,,,,,,,,,,,,,,1,0,5,4,1,4,179,tigre,Catalan,Sounds/cat_tigre.mp3,2020-06-20_16h35.36.768,TranslationElicitation_spa,3.2.4,Win32,60,55lvve0vwnrihv0rihqipejv1nfnr,,,,,,,
,,,,,,,,,,,,,,,,,,,,,,,,,,,,,,,,,,,return,1.950000048,,FALSE,1,0,5,0,1,4,109,arbre,Catalan,Sounds/cat_arbre.mp3,2020-06-20_16h35.36.768,TranslationElicitation_spa,3.2.4,Win32,60,55lvve0vwnrihv0rihqipejv1nfnr,1.950000048,,,,,,
,,,,,,,,,,,,,,,,,,,,,,,,,,,,,,,,,,,,,,,1,0,5,0,1,4,109,arbre,Catalan,Sounds/cat_arbre.mp3,2020-06-20_16h35.36.768,TranslationElicitation_spa,3.2.4,Win32,60,55lvve0vwnrihv0rihqipejv1nfnr,,,,,,,
,,,,,,,,,,,,,,,,,,,,,,,,,,,,,,,,,,,h,4.717999935,H,FALSE,,,,,,,184,ull,Catalan,Sounds/cat_ull.mp3,2020-06-20_16h35.36.768,TranslationElicitation_spa,3.2.4,Win32,60,55lvve0vwnrihv0rihqipejv1nfnr,,1,0,80,75,1,79
,,,,,,,,,,,,,,,,,,,,,,,,,,,,,,,,,,,backspace,5.55099988,,TRUE,,,,,,,184,ull,Catalan,Sounds/cat_ull.mp3,2020-06-20_16h35.36.768,TranslationElicitation_spa,3.2.4,Win32,60,55lvve0vwnrihv0rihqipejv1nfnr,,1,0,80,75,1,79
,,,,,,,,,,,,,,,,,,,,,,,,,,,,,,,,,,,o,5.88499999,O,TRUE,,,,,,,184,ull,Catalan,Sounds/cat_ull.mp3,2020-06-20_16h35.36.768,TranslationElicitation_spa,3.2.4,Win32,60,55lvve0vwnrihv0rihqipejv1nfnr,,1,0,80,75,1,79
,,,,,,,,,,,,,,,,,,,,,,,,,,,,,,,,,,,l,6.06799984,OL,TRUE,,,,,,,184,ull,Catalan,Sounds/cat_ull.mp3,2020-06-20_16h35.36.768,TranslationElicitation_spa,3.2.4,Win32,60,55lvve0vwnrihv0rihqipejv1nfnr,,1,0,80,75,1,79
,,,,,,,,,,,,,,,,,,,,,,,,,,,,,,,,,,,a,6.13499999,OLA,TRUE,,,,,,,184,ull,Catalan,Sounds/cat_ull.mp3,2020-06-20_16h35.36.768,TranslationElicitation_spa,3.2.4,Win32,60,55lvve0vwnrihv0rihqipejv1nfnr,,1,0,80,75,1,79
,,,,,,,,,,,,,,,,,,,,,,,,,,,,,,,,,,,return,9.302999973,,TRUE,,,,,,,184,ull,Catalan,Sounds/cat_ull.mp3,2020-06-20_16h35.36.768,TranslationElicitation_spa,3.2.4,Win32,60,55lvve0vwnrihv0rihqipejv1nfnr,9.302999973,1,0,80,75,1,79
,,,,,,,,,,,,,,,,,,,,,,,,,,,,,,,,,,,,,,,,,,,,,184,ull,Catalan,Sounds/cat_ull.mp3,2020-06-20_16h35.36.768,TranslationElicitation_spa,3.2.4,Win32,60,55lvve0vwnrihv0rihqipejv1nfnr,,1,0,80,75,1,79
,,,,,,,,,,,,,,,,,,,,,,,,,,,,,,,,,,,b,1.862999916,B,FALSE,,,,,,,113,boca,Catalan,Sounds/cat_boca.mp3,2020-06-20_16h35.36.768,TranslationElicitation_spa,3.2.4,Win32,60,55lvve0vwnrihv0rihqipejv1nfnr,,1,0,80,8,1,79
,,,,,,,,,,,,,,,,,,,,,,,,,,,,,,,,,,,o,1.980000019,BO,FALSE,,,,,,,113,boca,Catalan,Sounds/cat_boca.mp3,2020-06-20_16h35.36.768,TranslationElicitation_spa,3.2.4,Win32,60,55lvve0vwnrihv0rihqipejv1nfnr,,1,0,80,8,1,79
,,,,,,,,,,,,,,,,,,,,,,,,,,,,,,,,,,,c,2.062999964,BOC,FALSE,,,,,,,113,boca,Catalan,Sounds/cat_boca.mp3,2020-06-20_16h35.36.768,TranslationElicitation_spa,3.2.4,Win32,60,55lvve0vwnrihv0rihqipejv1nfnr,,1,0,80,8,1,79
,,,,,,,,,,,,,,,,,,,,,,,,,,,,,,,,,,,a,2.164000034,BOCA,FALSE,,,,,,,113,boca,Catalan,Sounds/cat_boca.mp3,2020-06-20_16h35.36.768,TranslationElicitation_spa,3.2.4,Win32,60,55lvve0vwnrihv0rihqipejv1nfnr,,1,0,80,8,1,79
,,,,,,,,,,,,,,,,,,,,,,,,,,,,,,,,,,,return,2.430000067,,FALSE,,,,,,,113,boca,Catalan,Sounds/cat_boca.mp3,2020-06-20_16h35.36.768,TranslationElicitation_spa,3.2.4,Win32,60,55lvve0vwnrihv0rihqipejv1nfnr,2.430000067,1,0,80,8,1,79
,,,,,,,,,,,,,,,,,,,,,,,,,,,,,,,,,,,,,,,,,,,,,113,boca,Catalan,Sounds/cat_boca.mp3,2020-06-20_16h35.36.768,TranslationElicitation_spa,3.2.4,Win32,60,55lvve0vwnrihv0rihqipejv1nfnr,,1,0,80,8,1,79
,,,,,,,,,,,,,,,,,,,,,,,,,,,,,,,,,,,r,1.51699996,R,FALSE,,,,,,,158,nas,Catalan,Sounds/cat_nas.mp3,2020-06-20_16h35.36.768,TranslationElicitation_spa,3.2.4,Win32,60,55lvve0vwnrihv0rihqipejv1nfnr,,1,0,80,52,1,79
,,,,,,,,,,,,,,,,,,,,,,,,,,,,,,,,,,,i,1.667000055,RI,FALSE,,,,,,,158,nas,Catalan,Sounds/cat_nas.mp3,2020-06-20_16h35.36.768,TranslationElicitation_spa,3.2.4,Win32,60,55lvve0vwnrihv0rihqipejv1nfnr,,1,0,80,52,1,79
,,,,,,,,,,,,,,,,,,,,,,,,,,,,,,,,,,,z,1.78399992,RIZ,FALSE,,,,,,,158,nas,Catalan,Sounds/cat_nas.mp3,2020-06-20_16h35.36.768,TranslationElicitation_spa,3.2.4,Win32,60,55lvve0vwnrihv0rihqipejv1nfnr,,1,0,80,52,1,79
,,,,,,,,,,,,,,,,,,,,,,,,,,,,,,,,,,,backspace,2.450999975,R,TRUE,,,,,,,158,nas,Catalan,Sounds/cat_nas.mp3,2020-06-20_16h35.36.768,TranslationElicitation_spa,3.2.4,Win32,60,55lvve0vwnrihv0rihqipejv1nfnr,,1,0,80,52,1,79
,,,,,,,,,,,,,,,,,,,,,,,,,,,,,,,,,,,backspace,2.584000111,,TRUE,,,,,,,158,nas,Catalan,Sounds/cat_nas.mp3,2020-06-20_16h35.36.768,TranslationElicitation_spa,3.2.4,Win32,60,55lvve0vwnrihv0rihqipejv1nfnr,,1,0,80,52,1,79
,,,,,,,,,,,,,,,,,,,,,,,,,,,,,,,,,,,n,3.184000015,N,TRUE,,,,,,,158,nas,Catalan,Sounds/cat_nas.mp3,2020-06-20_16h35.36.768,TranslationElicitation_spa,3.2.4,Win32,60,55lvve0vwnrihv0rihqipejv1nfnr,,1,0,80,52,1,79
,,,,,,,,,,,,,,,,,,,,,,,,,,,,,,,,,,,a,3.268000126,NA,TRUE,,,,,,,158,nas,Catalan,Sounds/cat_nas.mp3,2020-06-20_16h35.36.768,TranslationElicitation_spa,3.2.4,Win32,60,55lvve0vwnrihv0rihqipejv1nfnr,,1,0,80,52,1,79
,,,,,,,,,,,,,,,,,,,,,,,,,,,,,,,,,,,r,3.518000126,NAR,TRUE,,,,,,,158,nas,Catalan,Sounds/cat_nas.mp3,2020-06-20_16h35.36.768,TranslationElicitation_spa,3.2.4,Win32,60,55lvve0vwnrihv0rihqipejv1nfnr,,1,0,80,52,1,79
,,,,,,,,,,,,,,,,,,,,,,,,,,,,,,,,,,,i,3.63499999,NARI,TRUE,,,,,,,158,nas,Catalan,Sounds/cat_nas.mp3,2020-06-20_16h35.36.768,TranslationElicitation_spa,3.2.4,Win32,60,55lvve0vwnrihv0rihqipejv1nfnr,,1,0,80,52,1,79
,,,,,,,,,,,,,,,,,,,,,,,,,,,,,,,,,,,z,3.768000126,NARIZ,TRUE,,,,,,,158,nas,Catalan,Sounds/cat_nas.mp3,2020-06-20_16h35.36.768,TranslationElicitation_spa,3.2.4,Win32,60,55lvve0vwnrihv0rihqipejv1nfnr,,1,0,80,52,1,79
,,,,,,,,,,,,,,,,,,,,,,,,,,,,,,,,,,,return,4.318000078,,TRUE,,,,,,,158,nas,Catalan,Sounds/cat_nas.mp3,2020-06-20_16h35.36.768,TranslationElicitation_spa,3.2.4,Win32,60,55lvve0vwnrihv0rihqipejv1nfnr,4.318000078,1,0,80,52,1,79
,,,,,,,,,,,,,,,,,,,,,,,,,,,,,,,,,,,,,,,,,,,,,158,nas,Catalan,Sounds/cat_nas.mp3,2020-06-20_16h35.36.768,TranslationElicitation_spa,3.2.4,Win32,60,55lvve0vwnrihv0rihqipejv1nfnr,,1,0,80,52,1,79
,,,,,,,,,,,,,,,,,,,,,,,,,,,,,,,,,,,b,3.769000053,B,FALSE,,,,,,,116,bolquer,Catalan,Sounds/cat_bolquer.mp3,2020-06-20_16h35.36.768,TranslationElicitation_spa,3.2.4,Win32,60,55lvve0vwnrihv0rihqipejv1nfnr,,1,0,80,11,1,79
,,,,,,,,,,,,,,,,,,,,,,,,,,,,,,,,,,,a,3.868000031,BA,FALSE,,,,,,,116,bolquer,Catalan,Sounds/cat_bolquer.mp3,2020-06-20_16h35.36.768,TranslationElicitation_spa,3.2.4,Win32,60,55lvve0vwnrihv0rihqipejv1nfnr,,1,0,80,11,1,79
,,,,,,,,,,,,,,,,,,,,,,,,,,,,,,,,,,,r,3.917999983,BAR,FALSE,,,,,,,116,bolquer,Catalan,Sounds/cat_bolquer.mp3,2020-06-20_16h35.36.768,TranslationElicitation_spa,3.2.4,Win32,60,55lvve0vwnrihv0rihqipejv1nfnr,,1,0,80,11,1,79
,,,,,,,,,,,,,,,,,,,,,,,,,,,,,,,,,,,c,4.200999975,BARC,FALSE,,,,,,,116,bolquer,Catalan,Sounds/cat_bolquer.mp3,2020-06-20_16h35.36.768,TranslationElicitation_spa,3.2.4,Win32,60,55lvve0vwnrihv0rihqipejv1nfnr,,1,0,80,11,1,79
,,,,,,,,,,,,,,,,,,,,,,,,,,,,,,,,,,,o,4.250999928,BARCO,FALSE,,,,,,,116,bolquer,Catalan,Sounds/cat_bolquer.mp3,2020-06-20_16h35.36.768,TranslationElicitation_spa,3.2.4,Win32,60,55lvve0vwnrihv0rihqipejv1nfnr,,1,0,80,11,1,79
,,,,,,,,,,,,,,,,,,,,,,,,,,,,,,,,,,,return,6.052000046,,FALSE,,,,,,,116,bolquer,Catalan,Sounds/cat_bolquer.mp3,2020-06-20_16h35.36.768,TranslationElicitation_spa,3.2.4,Win32,60,55lvve0vwnrihv0rihqipejv1nfnr,6.052000046,1,0,80,11,1,79
,,,,,,,,,,,,,,,,,,,,,,,,,,,,,,,,,,,,,,,,,,,,,116,bolquer,Catalan,Sounds/cat_bolquer.mp3,2020-06-20_16h35.36.768,TranslationElicitation_spa,3.2.4,Win32,60,55lvve0vwnrihv0rihqipejv1nfnr,,1,0,80,11,1,79
,,,,,,,,,,,,,,,,,,,,,,,,,,,,,,,,,,,p,1.75,P,FALSE,,,,,,,168,planta,Catalan,Sounds/cat_planta.mp3,2020-06-20_16h35.36.768,TranslationElicitation_spa,3.2.4,Win32,60,55lvve0vwnrihv0rihqipejv1nfnr,,1,0,80,60,1,79
,,,,,,,,,,,,,,,,,,,,,,,,,,,,,,,,,,,l,2.01699996,PL,FALSE,,,,,,,168,planta,Catalan,Sounds/cat_planta.mp3,2020-06-20_16h35.36.768,TranslationElicitation_spa,3.2.4,Win32,60,55lvve0vwnrihv0rihqipejv1nfnr,,1,0,80,60,1,79
,,,,,,,,,,,,,,,,,,,,,,,,,,,,,,,,,,,a,2.067000151,PLA,FALSE,,,,,,,168,planta,Catalan,Sounds/cat_planta.mp3,2020-06-20_16h35.36.768,TranslationElicitation_spa,3.2.4,Win32,60,55lvve0vwnrihv0rihqipejv1nfnr,,1,0,80,60,1,79
,,,,,,,,,,,,,,,,,,,,,,,,,,,,,,,,,,,n,2.317000151,PLAN,FALSE,,,,,,,168,planta,Catalan,Sounds/cat_planta.mp3,2020-06-20_16h35.36.768,TranslationElicitation_spa,3.2.4,Win32,60,55lvve0vwnrihv0rihqipejv1nfnr,,1,0,80,60,1,79
,,,,,,,,,,,,,,,,,,,,,,,,,,,,,,,,,,,t,2.450000048,PLANT,FALSE,,,,,,,168,planta,Catalan,Sounds/cat_planta.mp3,2020-06-20_16h35.36.768,TranslationElicitation_spa,3.2.4,Win32,60,55lvve0vwnrihv0rihqipejv1nfnr,,1,0,80,60,1,79
,,,,,,,,,,,,,,,,,,,,,,,,,,,,,,,,,,,a,2.549999952,PLANTA,FALSE,,,,,,,168,planta,Catalan,Sounds/cat_planta.mp3,2020-06-20_16h35.36.768,TranslationElicitation_spa,3.2.4,Win32,60,55lvve0vwnrihv0rihqipejv1nfnr,,1,0,80,60,1,79
,,,,,,,,,,,,,,,,,,,,,,,,,,,,,,,,,,,return,2.76699996,,FALSE,,,,,,,168,planta,Catalan,Sounds/cat_planta.mp3,2020-06-20_16h35.36.768,TranslationElicitation_spa,3.2.4,Win32,60,55lvve0vwnrihv0rihqipejv1nfnr,2.76699996,1,0,80,60,1,79
,,,,,,,,,,,,,,,,,,,,,,,,,,,,,,,,,,,,,,,,,,,,,168,planta,Catalan,Sounds/cat_planta.mp3,2020-06-20_16h35.36.768,TranslationElicitation_spa,3.2.4,Win32,60,55lvve0vwnrihv0rihqipejv1nfnr,,1,0,80,60,1,79
,,,,,,,,,,,,,,,,,,,,,,,,,,,,,,,,,,,m,1.632999897,M,FALSE,,,,,,,152,ma,Catalan,Sounds/cat_ma.mp3,2020-06-20_16h35.36.768,TranslationElicitation_spa,3.2.4,Win32,60,55lvve0vwnrihv0rihqipejv1nfnr,,1,0,80,46,1,79
,,,,,,,,,,,,,,,,,,,,,,,,,,,,,,,,,,,a,1.73300004,MA,FALSE,,,,,,,152,ma,Catalan,Sounds/cat_ma.mp3,2020-06-20_16h35.36.768,TranslationElicitation_spa,3.2.4,Win32,60,55lvve0vwnrihv0rihqipejv1nfnr,,1,0,80,46,1,79
,,,,,,,,,,,,,,,,,,,,,,,,,,,,,,,,,,,r,1.76699996,MAR,FALSE,,,,,,,152,ma,Catalan,Sounds/cat_ma.mp3,2020-06-20_16h35.36.768,TranslationElicitation_spa,3.2.4,Win32,60,55lvve0vwnrihv0rihqipejv1nfnr,,1,0,80,46,1,79
,,,,,,,,,,,,,,,,,,,,,,,,,,,,,,,,,,,return,4.100999832,,FALSE,,,,,,,152,ma,Catalan,Sounds/cat_ma.mp3,2020-06-20_16h35.36.768,TranslationElicitation_spa,3.2.4,Win32,60,55lvve0vwnrihv0rihqipejv1nfnr,4.100999832,1,0,80,46,1,79
,,,,,,,,,,,,,,,,,,,,,,,,,,,,,,,,,,,,,,,,,,,,,152,ma,Catalan,Sounds/cat_ma.mp3,2020-06-20_16h35.36.768,TranslationElicitation_spa,3.2.4,Win32,60,55lvve0vwnrihv0rihqipejv1nfnr,,1,0,80,46,1,79
,,,,,,,,,,,,,,,,,,,,,,,,,,,,,,,,,,,o,1.381999969,O,FALSE,,,,,,,160,orella,Catalan,Sounds/cat_orella.mp3,2020-06-20_16h35.36.768,TranslationElicitation_spa,3.2.4,Win32,60,55lvve0vwnrihv0rihqipejv1nfnr,,1,0,80,53,1,79
,,,,,,,,,,,,,,,,,,,,,,,,,,,,,,,,,,,r,1.549000025,OR,FALSE,,,,,,,160,orella,Catalan,Sounds/cat_orella.mp3,2020-06-20_16h35.36.768,TranslationElicitation_spa,3.2.4,Win32,60,55lvve0vwnrihv0rihqipejv1nfnr,,1,0,80,53,1,79
,,,,,,,,,,,,,,,,,,,,,,,,,,,,,,,,,,,i,1.631999969,ORI,FALSE,,,,,,,160,orella,Catalan,Sounds/cat_orella.mp3,2020-06-20_16h35.36.768,TranslationElicitation_spa,3.2.4,Win32,60,55lvve0vwnrihv0rihqipejv1nfnr,,1,0,80,53,1,79
,,,,,,,,,,,,,,,,,,,,,,,,,,,,,,,,,,,l,1.96600008,ORIL,FALSE,,,,,,,160,orella,Catalan,Sounds/cat_orella.mp3,2020-06-20_16h35.36.768,TranslationElicitation_spa,3.2.4,Win32,60,55lvve0vwnrihv0rihqipejv1nfnr,,1,0,80,53,1,79
,,,,,,,,,,,,,,,,,,,,,,,,,,,,,,,,,,,l,2.131999969,ORILL,FALSE,,,,,,,160,orella,Catalan,Sounds/cat_orella.mp3,2020-06-20_16h35.36.768,TranslationElicitation_spa,3.2.4,Win32,60,55lvve0vwnrihv0rihqipejv1nfnr,,1,0,80,53,1,79
,,,,,,,,,,,,,,,,,,,,,,,,,,,,,,,,,,,a,2.23300004,ORILLA,FALSE,,,,,,,160,orella,Catalan,Sounds/cat_orella.mp3,2020-06-20_16h35.36.768,TranslationElicitation_spa,3.2.4,Win32,60,55lvve0vwnrihv0rihqipejv1nfnr,,1,0,80,53,1,79
,,,,,,,,,,,,,,,,,,,,,,,,,,,,,,,,,,,return,2.516000032,,FALSE,,,,,,,160,orella,Catalan,Sounds/cat_orella.mp3,2020-06-20_16h35.36.768,TranslationElicitation_spa,3.2.4,Win32,60,55lvve0vwnrihv0rihqipejv1nfnr,2.516000032,1,0,80,53,1,79
,,,,,,,,,,,,,,,,,,,,,,,,,,,,,,,,,,,,,,,,,,,,,160,orella,Catalan,Sounds/cat_orella.mp3,2020-06-20_16h35.36.768,TranslationElicitation_spa,3.2.4,Win32,60,55lvve0vwnrihv0rihqipejv1nfnr,,1,0,80,53,1,79
,,,,,,,,,,,,,,,,,,,,,,,,,,,,,,,,,,,l,2.848999977,L,FALSE,,,,,,,148,lleo,Catalan,Sounds/cat_lleo.mp3,2020-06-20_16h35.36.768,TranslationElicitation_spa,3.2.4,Win32,60,55lvve0vwnrihv0rihqipejv1nfnr,,1,0,80,42,1,79
,,,,,,,,,,,,,,,,,,,,,,,,,,,,,,,,,,,a,2.915999889,LA,FALSE,,,,,,,148,lleo,Catalan,Sounds/cat_lleo.mp3,2020-06-20_16h35.36.768,TranslationElicitation_spa,3.2.4,Win32,60,55lvve0vwnrihv0rihqipejv1nfnr,,1,0,80,42,1,79
,,,,,,,,,,,,,,,,,,,,,,,,,,,,,,,,,,,g,3.115999937,LAG,FALSE,,,,,,,148,lleo,Catalan,Sounds/cat_lleo.mp3,2020-06-20_16h35.36.768,TranslationElicitation_spa,3.2.4,Win32,60,55lvve0vwnrihv0rihqipejv1nfnr,,1,0,80,42,1,79
,,,,,,,,,,,,,,,,,,,,,,,,,,,,,,,,,,,o,3.215999842,LAGO,FALSE,,,,,,,148,lleo,Catalan,Sounds/cat_lleo.mp3,2020-06-20_16h35.36.768,TranslationElicitation_spa,3.2.4,Win32,60,55lvve0vwnrihv0rihqipejv1nfnr,,1,0,80,42,1,79
,,,,,,,,,,,,,,,,,,,,,,,,,,,,,,,,,,,return,3.449999809,,FALSE,,,,,,,148,lleo,Catalan,Sounds/cat_lleo.mp3,2020-06-20_16h35.36.768,TranslationElicitation_spa,3.2.4,Win32,60,55lvve0vwnrihv0rihqipejv1nfnr,3.449999809,1,0,80,42,1,79
,,,,,,,,,,,,,,,,,,,,,,,,,,,,,,,,,,,,,,,,,,,,,148,lleo,Catalan,Sounds/cat_lleo.mp3,2020-06-20_16h35.36.768,TranslationElicitation_spa,3.2.4,Win32,60,55lvve0vwnrihv0rihqipejv1nfnr,,1,0,80,42,1,79
,,,,,,,,,,,,,,,,,,,,,,,,,,,,,,,,,,,m,3.849999905,M,FALSE,,,,,,,115,bolet,Catalan,Sounds/cat_bolet.mp3,2020-06-20_16h35.36.768,TranslationElicitation_spa,3.2.4,Win32,60,55lvve0vwnrihv0rihqipejv1nfnr,,1,0,80,10,1,79
,,,,,,,,,,,,,,,,,,,,,,,,,,,,,,,,,,,o,3.96600008,MO,FALSE,,,,,,,115,bolet,Catalan,Sounds/cat_bolet.mp3,2020-06-20_16h35.36.768,TranslationElicitation_spa,3.2.4,Win32,60,55lvve0vwnrihv0rihqipejv1nfnr,,1,0,80,10,1,79
,,,,,,,,,,,,,,,,,,,,,,,,,,,,,,,,,,,n,4.115999937,MON,FALSE,,,,,,,115,bolet,Catalan,Sounds/cat_bolet.mp3,2020-06-20_16h35.36.768,TranslationElicitation_spa,3.2.4,Win32,60,55lvve0vwnrihv0rihqipejv1nfnr,,1,0,80,10,1,79
,,,,,,,,,,,,,,,,,,,,,,,,,,,,,,,,,,,e,4.23300004,MONE,FALSE,,,,,,,115,bolet,Catalan,Sounds/cat_bolet.mp3,2020-06-20_16h35.36.768,TranslationElicitation_spa,3.2.4,Win32,60,55lvve0vwnrihv0rihqipejv1nfnr,,1,0,80,10,1,79
,,,,,,,,,,,,,,,,,,,,,,,,,,,,,,,,,,,d,4.433000088,MONED,FALSE,,,,,,,115,bolet,Catalan,Sounds/cat_bolet.mp3,2020-06-20_16h35.36.768,TranslationElicitation_spa,3.2.4,Win32,60,55lvve0vwnrihv0rihqipejv1nfnr,,1,0,80,10,1,79
,,,,,,,,,,,,,,,,,,,,,,,,,,,,,,,,,,,e,4.549999952,MONEDE,FALSE,,,,,,,115,bolet,Catalan,Sounds/cat_bolet.mp3,2020-06-20_16h35.36.768,TranslationElicitation_spa,3.2.4,Win32,60,55lvve0vwnrihv0rihqipejv1nfnr,,1,0,80,10,1,79
,,,,,,,,,,,,,,,,,,,,,,,,,,,,,,,,,,,r,4.75,MONEDER,FALSE,,,,,,,115,bolet,Catalan,Sounds/cat_bolet.mp3,2020-06-20_16h35.36.768,TranslationElicitation_spa,3.2.4,Win32,60,55lvve0vwnrihv0rihqipejv1nfnr,,1,0,80,10,1,79
,,,,,,,,,,,,,,,,,,,,,,,,,,,,,,,,,,,o,4.866999865,MONEDERO,FALSE,,,,,,,115,bolet,Catalan,Sounds/cat_bolet.mp3,2020-06-20_16h35.36.768,TranslationElicitation_spa,3.2.4,Win32,60,55lvve0vwnrihv0rihqipejv1nfnr,,1,0,80,10,1,79
,,,,,,,,,,,,,,,,,,,,,,,,,,,,,,,,,,,return,6.967000008,,FALSE,,,,,,,115,bolet,Catalan,Sounds/cat_bolet.mp3,2020-06-20_16h35.36.768,TranslationElicitation_spa,3.2.4,Win32,60,55lvve0vwnrihv0rihqipejv1nfnr,6.967000008,1,0,80,10,1,79
,,,,,,,,,,,,,,,,,,,,,,,,,,,,,,,,,,,,,,,,,,,,,115,bolet,Catalan,Sounds/cat_bolet.mp3,2020-06-20_16h35.36.768,TranslationElicitation_spa,3.2.4,Win32,60,55lvve0vwnrihv0rihqipejv1nfnr,,1,0,80,10,1,79
,,,,,,,,,,,,,,,,,,,,,,,,,,,,,,,,,,,t,1.694000006,T,FALSE,,,,,,,180,tisores,Catalan,Sounds/cat_tisores.mp3,2020-06-20_16h35.36.768,TranslationElicitation_spa,3.2.4,Win32,60,55lvve0vwnrihv0rihqipejv1nfnr,,1,0,80,71,1,79
,,,,,,,,,,,,,,,,,,,,,,,,,,,,,,,,,,,i,1.845000029,TI,FALSE,,,,,,,180,tisores,Catalan,Sounds/cat_tisores.mp3,2020-06-20_16h35.36.768,TranslationElicitation_spa,3.2.4,Win32,60,55lvve0vwnrihv0rihqipejv1nfnr,,1,0,80,71,1,79
,,,,,,,,,,,,,,,,,,,,,,,,,,,,,,,,,,,j,1.993999958,TIJ,FALSE,,,,,,,180,tisores,Catalan,Sounds/cat_tisores.mp3,2020-06-20_16h35.36.768,TranslationElicitation_spa,3.2.4,Win32,60,55lvve0vwnrihv0rihqipejv1nfnr,,1,0,80,71,1,79
,,,,,,,,,,,,,,,,,,,,,,,,,,,,,,,,,,,e,2.061000109,TIJE,FALSE,,,,,,,180,tisores,Catalan,Sounds/cat_tisores.mp3,2020-06-20_16h35.36.768,TranslationElicitation_spa,3.2.4,Win32,60,55lvve0vwnrihv0rihqipejv1nfnr,,1,0,80,71,1,79
,,,,,,,,,,,,,,,,,,,,,,,,,,,,,,,,,,,r,2.128000021,TIJER,FALSE,,,,,,,180,tisores,Catalan,Sounds/cat_tisores.mp3,2020-06-20_16h35.36.768,TranslationElicitation_spa,3.2.4,Win32,60,55lvve0vwnrihv0rihqipejv1nfnr,,1,0,80,71,1,79
,,,,,,,,,,,,,,,,,,,,,,,,,,,,,,,,,,,a,2.328000069,TIJERA,FALSE,,,,,,,180,tisores,Catalan,Sounds/cat_tisores.mp3,2020-06-20_16h35.36.768,TranslationElicitation_spa,3.2.4,Win32,60,55lvve0vwnrihv0rihqipejv1nfnr,,1,0,80,71,1,79
,,,,,,,,,,,,,,,,,,,,,,,,,,,,,,,,,,,s,2.461999893,TIJERAS,FALSE,,,,,,,180,tisores,Catalan,Sounds/cat_tisores.mp3,2020-06-20_16h35.36.768,TranslationElicitation_spa,3.2.4,Win32,60,55lvve0vwnrihv0rihqipejv1nfnr,,1,0,80,71,1,79
,,,,,,,,,,,,,,,,,,,,,,,,,,,,,,,,,,,return,2.710999966,,FALSE,,,,,,,180,tisores,Catalan,Sounds/cat_tisores.mp3,2020-06-20_16h35.36.768,TranslationElicitation_spa,3.2.4,Win32,60,55lvve0vwnrihv0rihqipejv1nfnr,2.710999966,1,0,80,71,1,79
,,,,,,,,,,,,,,,,,,,,,,,,,,,,,,,,,,,,,,,,,,,,,180,tisores,Catalan,Sounds/cat_tisores.mp3,2020-06-20_16h35.36.768,TranslationElicitation_spa,3.2.4,Win32,60,55lvve0vwnrihv0rihqipejv1nfnr,,1,0,80,71,1,79
,,,,,,,,,,,,,,,,,,,,,,,,,,,,,,,,,,,g,1.598999977,G,FALSE,,,,,,,140,gat,Catalan,Sounds/cat_gat.mp3,2020-06-20_16h35.36.768,TranslationElicitation_spa,3.2.4,Win32,60,55lvve0vwnrihv0rihqipejv1nfnr,,1,0,80,35,1,79
,,,,,,,,,,,,,,,,,,,,,,,,,,,,,,,,,,,a,1.998999834,GA,FALSE,,,,,,,140,gat,Catalan,Sounds/cat_gat.mp3,2020-06-20_16h35.36.768,TranslationElicitation_spa,3.2.4,Win32,60,55lvve0vwnrihv0rihqipejv1nfnr,,1,0,80,35,1,79
,,,,,,,,,,,,,,,,,,,,,,,,,,,,,,,,,,,t,2.099999905,GAT,FALSE,,,,,,,140,gat,Catalan,Sounds/cat_gat.mp3,2020-06-20_16h35.36.768,TranslationElicitation_spa,3.2.4,Win32,60,55lvve0vwnrihv0rihqipejv1nfnr,,1,0,80,35,1,79
,,,,,,,,,,,,,,,,,,,,,,,,,,,,,,,,,,,o,2.23300004,GATO,FALSE,,,,,,,140,gat,Catalan,Sounds/cat_gat.mp3,2020-06-20_16h35.36.768,TranslationElicitation_spa,3.2.4,Win32,60,55lvve0vwnrihv0rihqipejv1nfnr,,1,0,80,35,1,79
,,,,,,,,,,,,,,,,,,,,,,,,,,,,,,,,,,,return,2.523999929,,FALSE,,,,,,,140,gat,Catalan,Sounds/cat_gat.mp3,2020-06-20_16h35.36.768,TranslationElicitation_spa,3.2.4,Win32,60,55lvve0vwnrihv0rihqipejv1nfnr,2.523999929,1,0,80,35,1,79
,,,,,,,,,,,,,,,,,,,,,,,,,,,,,,,,,,,,,,,,,,,,,140,gat,Catalan,Sounds/cat_gat.mp3,2020-06-20_16h35.36.768,TranslationElicitation_spa,3.2.4,Win32,60,55lvve0vwnrihv0rihqipejv1nfnr,,1,0,80,35,1,79
,,,,,,,,,,,,,,,,,,,,,,,,,,,,,,,,,,,p,2.083999872,P,FALSE,,,,,,,169,plat,Catalan,Sounds/cat_plat.mp3,2020-06-20_16h35.36.768,TranslationElicitation_spa,3.2.4,Win32,60,55lvve0vwnrihv0rihqipejv1nfnr,,1,0,80,61,1,79
,,,,,,,,,,,,,,,,,,,,,,,,,,,,,,,,,,,l,2.333999872,PL,FALSE,,,,,,,169,plat,Catalan,Sounds/cat_plat.mp3,2020-06-20_16h35.36.768,TranslationElicitation_spa,3.2.4,Win32,60,55lvve0vwnrihv0rihqipejv1nfnr,,1,0,80,61,1,79
,,,,,,,,,,,,,,,,,,,,,,,,,,,,,,,,,,,a,2.434000015,PLA,FALSE,,,,,,,169,plat,Catalan,Sounds/cat_plat.mp3,2020-06-20_16h35.36.768,TranslationElicitation_spa,3.2.4,Win32,60,55lvve0vwnrihv0rihqipejv1nfnr,,1,0,80,61,1,79
,,,,,,,,,,,,,,,,,,,,,,,,,,,,,,,,,,,t,2.500999928,PLAT,FALSE,,,,,,,169,plat,Catalan,Sounds/cat_plat.mp3,2020-06-20_16h35.36.768,TranslationElicitation_spa,3.2.4,Win32,60,55lvve0vwnrihv0rihqipejv1nfnr,,1,0,80,61,1,79
,,,,,,,,,,,,,,,,,,,,,,,,,,,,,,,,,,,o,2.634000063,PLATO,FALSE,,,,,,,169,plat,Catalan,Sounds/cat_plat.mp3,2020-06-20_16h35.36.768,TranslationElicitation_spa,3.2.4,Win32,60,55lvve0vwnrihv0rihqipejv1nfnr,,1,0,80,61,1,79
,,,,,,,,,,,,,,,,,,,,,,,,,,,,,,,,,,,return,3.000999928,,FALSE,,,,,,,169,plat,Catalan,Sounds/cat_plat.mp3,2020-06-20_16h35.36.768,TranslationElicitation_spa,3.2.4,Win32,60,55lvve0vwnrihv0rihqipejv1nfnr,3.000999928,1,0,80,61,1,79
,,,,,,,,,,,,,,,,,,,,,,,,,,,,,,,,,,,,,,,,,,,,,169,plat,Catalan,Sounds/cat_plat.mp3,2020-06-20_16h35.36.768,TranslationElicitation_spa,3.2.4,Win32,60,55lvve0vwnrihv0rihqipejv1nfnr,,1,0,80,61,1,79
,,,,,,,,,,,,,,,,,,,,,,,,,,,,,,,,,,,j,1.516000032,J,FALSE,,,,,,,142,girafa,Catalan,Sounds/cat_girafa.mp3,2020-06-20_16h35.36.768,TranslationElicitation_spa,3.2.4,Win32,60,55lvve0vwnrihv0rihqipejv1nfnr,,1,0,80,37,1,79
,,,,,,,,,,,,,,,,,,,,,,,,,,,,,,,,,,,i,1.632999897,JI,FALSE,,,,,,,142,girafa,Catalan,Sounds/cat_girafa.mp3,2020-06-20_16h35.36.768,TranslationElicitation_spa,3.2.4,Win32,60,55lvve0vwnrihv0rihqipejv1nfnr,,1,0,80,37,1,79
,,,,,,,,,,,,,,,,,,,,,,,,,,,,,,,,,,,r,1.71600008,JIR,FALSE,,,,,,,142,girafa,Catalan,Sounds/cat_girafa.mp3,2020-06-20_16h35.36.768,TranslationElicitation_spa,3.2.4,Win32,60,55lvve0vwnrihv0rihqipejv1nfnr,,1,0,80,37,1,79
,,,,,,,,,,,,,,,,,,,,,,,,,,,,,,,,,,,a,2.082999945,JIRA,FALSE,,,,,,,142,girafa,Catalan,Sounds/cat_girafa.mp3,2020-06-20_16h35.36.768,TranslationElicitation_spa,3.2.4,Win32,60,55lvve0vwnrihv0rihqipejv1nfnr,,1,0,80,37,1,79
,,,,,,,,,,,,,,,,,,,,,,,,,,,,,,,,,,,f,2.399999857,JIRAF,FALSE,,,,,,,142,girafa,Catalan,Sounds/cat_girafa.mp3,2020-06-20_16h35.36.768,TranslationElicitation_spa,3.2.4,Win32,60,55lvve0vwnrihv0rihqipejv1nfnr,,1,0,80,37,1,79
,,,,,,,,,,,,,,,,,,,,,,,,,,,,,,,,,,,a,2.516000032,JIRAFA,FALSE,,,,,,,142,girafa,Catalan,Sounds/cat_girafa.mp3,2020-06-20_16h35.36.768,TranslationElicitation_spa,3.2.4,Win32,60,55lvve0vwnrihv0rihqipejv1nfnr,,1,0,80,37,1,79
,,,,,,,,,,,,,,,,,,,,,,,,,,,,,,,,,,,return,2.932999849,,FALSE,,,,,,,142,girafa,Catalan,Sounds/cat_girafa.mp3,2020-06-20_16h35.36.768,TranslationElicitation_spa,3.2.4,Win32,60,55lvve0vwnrihv0rihqipejv1nfnr,2.932999849,1,0,80,37,1,79
,,,,,,,,,,,,,,,,,,,,,,,,,,,,,,,,,,,,,,,,,,,,,142,girafa,Catalan,Sounds/cat_girafa.mp3,2020-06-20_16h35.36.768,TranslationElicitation_spa,3.2.4,Win32,60,55lvve0vwnrihv0rihqipejv1nfnr,,1,0,80,37,1,79
,,,,,,,,,,,,,,,,,,,,,,,,,,,,,,,,,,,c,1.48300004,C,FALSE,,,,,,,138,galeta,Catalan,Sounds/cat_galeta.mp3,2020-06-20_16h35.36.768,TranslationElicitation_spa,3.2.4,Win32,60,55lvve0vwnrihv0rihqipejv1nfnr,,1,0,80,33,1,79
,,,,,,,,,,,,,,,,,,,,,,,,,,,,,,,,,,,o,1.549000025,CO,FALSE,,,,,,,138,galeta,Catalan,Sounds/cat_galeta.mp3,2020-06-20_16h35.36.768,TranslationElicitation_spa,3.2.4,Win32,60,55lvve0vwnrihv0rihqipejv1nfnr,,1,0,80,33,1,79
,,,,,,,,,,,,,,,,,,,,,,,,,,,,,,,,,,,l,1.766000032,COL,FALSE,,,,,,,138,galeta,Catalan,Sounds/cat_galeta.mp3,2020-06-20_16h35.36.768,TranslationElicitation_spa,3.2.4,Win32,60,55lvve0vwnrihv0rihqipejv1nfnr,,1,0,80,33,1,79
,,,,,,,,,,,,,,,,,,,,,,,,,,,,,,,,,,,e,1.86500001,COLE,FALSE,,,,,,,138,galeta,Catalan,Sounds/cat_galeta.mp3,2020-06-20_16h35.36.768,TranslationElicitation_spa,3.2.4,Win32,60,55lvve0vwnrihv0rihqipejv1nfnr,,1,0,80,33,1,79
,,,,,,,,,,,,,,,,,,,,,,,,,,,,,,,,,,,t,1.94900012,COLET,FALSE,,,,,,,138,galeta,Catalan,Sounds/cat_galeta.mp3,2020-06-20_16h35.36.768,TranslationElicitation_spa,3.2.4,Win32,60,55lvve0vwnrihv0rihqipejv1nfnr,,1,0,80,33,1,79
,,,,,,,,,,,,,,,,,,,,,,,,,,,,,,,,,,,a,2.133000135,COLETA,FALSE,,,,,,,138,galeta,Catalan,Sounds/cat_galeta.mp3,2020-06-20_16h35.36.768,TranslationElicitation_spa,3.2.4,Win32,60,55lvve0vwnrihv0rihqipejv1nfnr,,1,0,80,33,1,79
,,,,,,,,,,,,,,,,,,,,,,,,,,,,,,,,,,,return,2.499000072,,FALSE,,,,,,,138,galeta,Catalan,Sounds/cat_galeta.mp3,2020-06-20_16h35.36.768,TranslationElicitation_spa,3.2.4,Win32,60,55lvve0vwnrihv0rihqipejv1nfnr,2.499000072,1,0,80,33,1,79
,,,,,,,,,,,,,,,,,,,,,,,,,,,,,,,,,,,,,,,,,,,,,138,galeta,Catalan,Sounds/cat_galeta.mp3,2020-06-20_16h35.36.768,TranslationElicitation_spa,3.2.4,Win32,60,55lvve0vwnrihv0rihqipejv1nfnr,,1,0,80,33,1,79
,,,,,,,,,,,,,,,,,,,,,,,,,,,,,,,,,,,l,1.749000072,L,FALSE,,,,,,,149,llibre,Catalan,Sounds/cat_llibre.mp3,2020-06-20_16h35.36.768,TranslationElicitation_spa,3.2.4,Win32,60,55lvve0vwnrihv0rihqipejv1nfnr,,1,0,80,43,1,79
,,,,,,,,,,,,,,,,,,,,,,,,,,,,,,,,,,,i,1.848999977,LI,FALSE,,,,,,,149,llibre,Catalan,Sounds/cat_llibre.mp3,2020-06-20_16h35.36.768,TranslationElicitation_spa,3.2.4,Win32,60,55lvve0vwnrihv0rihqipejv1nfnr,,1,0,80,43,1,79
,,,,,,,,,,,,,,,,,,,,,,,,,,,,,,,,,,,b,2.065999985,LIB,FALSE,,,,,,,149,llibre,Catalan,Sounds/cat_llibre.mp3,2020-06-20_16h35.36.768,TranslationElicitation_spa,3.2.4,Win32,60,55lvve0vwnrihv0rihqipejv1nfnr,,1,0,80,43,1,79
,,,,,,,,,,,,,,,,,,,,,,,,,,,,,,,,,,,r,2.098999977,LIBR,FALSE,,,,,,,149,llibre,Catalan,Sounds/cat_llibre.mp3,2020-06-20_16h35.36.768,TranslationElicitation_spa,3.2.4,Win32,60,55lvve0vwnrihv0rihqipejv1nfnr,,1,0,80,43,1,79
,,,,,,,,,,,,,,,,,,,,,,,,,,,,,,,,,,,o,2.516000032,LIBRO,FALSE,,,,,,,149,llibre,Catalan,Sounds/cat_llibre.mp3,2020-06-20_16h35.36.768,TranslationElicitation_spa,3.2.4,Win32,60,55lvve0vwnrihv0rihqipejv1nfnr,,1,0,80,43,1,79
,,,,,,,,,,,,,,,,,,,,,,,,,,,,,,,,,,,return,2.767000198,,FALSE,,,,,,,149,llibre,Catalan,Sounds/cat_llibre.mp3,2020-06-20_16h35.36.768,TranslationElicitation_spa,3.2.4,Win32,60,55lvve0vwnrihv0rihqipejv1nfnr,2.766000032,1,0,80,43,1,79
,,,,,,,,,,,,,,,,,,,,,,,,,,,,,,,,,,,,,,,,,,,,,149,llibre,Catalan,Sounds/cat_llibre.mp3,2020-06-20_16h35.36.768,TranslationElicitation_spa,3.2.4,Win32,60,55lvve0vwnrihv0rihqipejv1nfnr,,1,0,80,43,1,79
,,,,,,,,,,,,,,,,,,,,,,,,,,,,,,,,,,,c,2.665999889,C,FALSE,,,,,,,125,colom,Catalan,Sounds/cat_colom.mp3,2020-06-20_16h35.36.768,TranslationElicitation_spa,3.2.4,Win32,60,55lvve0vwnrihv0rihqipejv1nfnr,,1,0,80,20,1,79
,,,,,,,,,,,,,,,,,,,,,,,,,,,,,,,,,,,u,2.782999992,CU,FALSE,,,,,,,125,colom,Catalan,Sounds/cat_colom.mp3,2020-06-20_16h35.36.768,TranslationElicitation_spa,3.2.4,Win32,60,55lvve0vwnrihv0rihqipejv1nfnr,,1,0,80,20,1,79
,,,,,,,,,,,,,,,,,,,,,,,,,,,,,,,,,,,l,3.065999985,CUL,FALSE,,,,,,,125,colom,Catalan,Sounds/cat_colom.mp3,2020-06-20_16h35.36.768,TranslationElicitation_spa,3.2.4,Win32,60,55lvve0vwnrihv0rihqipejv1nfnr,,1,0,80,20,1,79
,,,,,,,,,,,,,,,,,,,,,,,,,,,,,,,,,,,o,3.165999889,CULO,FALSE,,,,,,,125,colom,Catalan,Sounds/cat_colom.mp3,2020-06-20_16h35.36.768,TranslationElicitation_spa,3.2.4,Win32,60,55lvve0vwnrihv0rihqipejv1nfnr,,1,0,80,20,1,79
,,,,,,,,,,,,,,,,,,,,,,,,,,,,,,,,,,,return,4.851000071,,FALSE,,,,,,,125,colom,Catalan,Sounds/cat_colom.mp3,2020-06-20_16h35.36.768,TranslationElicitation_spa,3.2.4,Win32,60,55lvve0vwnrihv0rihqipejv1nfnr,4.849999905,1,0,80,20,1,79
,,,,,,,,,,,,,,,,,,,,,,,,,,,,,,,,,,,,,,,,,,,,,125,colom,Catalan,Sounds/cat_colom.mp3,2020-06-20_16h35.36.768,TranslationElicitation_spa,3.2.4,Win32,60,55lvve0vwnrihv0rihqipejv1nfnr,,1,0,80,20,1,79
,,,,,,,,,,,,,,,,,,,,,,,,,,,,,,,,,,,p,8.802000046,P,FALSE,,,,,,,163,papallona,Catalan,Sounds/cat_papallona.mp3,2020-06-20_16h35.36.768,TranslationElicitation_spa,3.2.4,Win32,60,55lvve0vwnrihv0rihqipejv1nfnr,,1,0,80,56,1,79
,,,,,,,,,,,,,,,,,,,,,,,,,,,,,,,,,,,a,8.986000061,PA,FALSE,,,,,,,163,papallona,Catalan,Sounds/cat_papallona.mp3,2020-06-20_16h35.36.768,TranslationElicitation_spa,3.2.4,Win32,60,55lvve0vwnrihv0rihqipejv1nfnr,,1,0,80,56,1,79
,,,,,,,,,,,,,,,,,,,,,,,,,,,,,,,,,,,p,9.052000046,PAP,FALSE,,,,,,,163,papallona,Catalan,Sounds/cat_papallona.mp3,2020-06-20_16h35.36.768,TranslationElicitation_spa,3.2.4,Win32,60,55lvve0vwnrihv0rihqipejv1nfnr,,1,0,80,56,1,79
,,,,,,,,,,,,,,,,,,,,,,,,,,,,,,,,,,,a,9.15199995,PAPA,FALSE,,,,,,,163,papallona,Catalan,Sounds/cat_papallona.mp3,2020-06-20_16h35.36.768,TranslationElicitation_spa,3.2.4,Win32,60,55lvve0vwnrihv0rihqipejv1nfnr,,1,0,80,56,1,79
,,,,,,,,,,,,,,,,,,,,,,,,,,,,,,,,,,,y,9.43599987,PAPAY,FALSE,,,,,,,163,papallona,Catalan,Sounds/cat_papallona.mp3,2020-06-20_16h35.36.768,TranslationElicitation_spa,3.2.4,Win32,60,55lvve0vwnrihv0rihqipejv1nfnr,,1,0,80,56,1,79
,,,,,,,,,,,,,,,,,,,,,,,,,,,,,,,,,,,a,9.535000086,PAPAYA,FALSE,,,,,,,163,papallona,Catalan,Sounds/cat_papallona.mp3,2020-06-20_16h35.36.768,TranslationElicitation_spa,3.2.4,Win32,60,55lvve0vwnrihv0rihqipejv1nfnr,,1,0,80,56,1,79
,,,,,,,,,,,,,,,,,,,,,,,,,,,,,,,,,,,return,9.93599987,,FALSE,,,,,,,163,papallona,Catalan,Sounds/cat_papallona.mp3,2020-06-20_16h35.36.768,TranslationElicitation_spa,3.2.4,Win32,60,55lvve0vwnrihv0rihqipejv1nfnr,9.93599987,1,0,80,56,1,79
,,,,,,,,,,,,,,,,,,,,,,,,,,,,,,,,,,,,,,,,,,,,,163,papallona,Catalan,Sounds/cat_papallona.mp3,2020-06-20_16h35.36.768,TranslationElicitation_spa,3.2.4,Win32,60,55lvve0vwnrihv0rihqipejv1nfnr,,1,0,80,56,1,79
,,,,,,,,,,,,,,,,,,,,,,,,,,,,,,,,,,,g,2.366999865,G,FALSE,,,,,,,139,galleda,Catalan,Sounds/cat_galleda.mp3,2020-06-20_16h35.36.768,TranslationElicitation_spa,3.2.4,Win32,60,55lvve0vwnrihv0rihqipejv1nfnr,,1,0,80,34,1,79
,,,,,,,,,,,,,,,,,,,,,,,,,,,,,,,,,,,a,2.417999983,GA,FALSE,,,,,,,139,galleda,Catalan,Sounds/cat_galleda.mp3,2020-06-20_16h35.36.768,TranslationElicitation_spa,3.2.4,Win32,60,55lvve0vwnrihv0rihqipejv1nfnr,,1,0,80,34,1,79
,,,,,,,,,,,,,,,,,,,,,,,,,,,,,,,,,,,l,2.582999945,GAL,FALSE,,,,,,,139,galleda,Catalan,Sounds/cat_galleda.mp3,2020-06-20_16h35.36.768,TranslationElicitation_spa,3.2.4,Win32,60,55lvve0vwnrihv0rihqipejv1nfnr,,1,0,80,34,1,79
,,,,,,,,,,,,,,,,,,,,,,,,,,,,,,,,,,,l,2.753000021,GALL,FALSE,,,,,,,139,galleda,Catalan,Sounds/cat_galleda.mp3,2020-06-20_16h35.36.768,TranslationElicitation_spa,3.2.4,Win32,60,55lvve0vwnrihv0rihqipejv1nfnr,,1,0,80,34,1,79
,,,,,,,,,,,,,,,,,,,,,,,,,,,,,,,,,,,e,2.805999994,GALLE,FALSE,,,,,,,139,galleda,Catalan,Sounds/cat_galleda.mp3,2020-06-20_16h35.36.768,TranslationElicitation_spa,3.2.4,Win32,60,55lvve0vwnrihv0rihqipejv1nfnr,,1,0,80,34,1,79
,,,,,,,,,,,,,,,,,,,,,,,,,,,,,,,,,,,t,2.916999817,GALLET,FALSE,,,,,,,139,galleda,Catalan,Sounds/cat_galleda.mp3,2020-06-20_16h35.36.768,TranslationElicitation_spa,3.2.4,Win32,60,55lvve0vwnrihv0rihqipejv1nfnr,,1,0,80,34,1,79
,,,,,,,,,,,,,,,,,,,,,,,,,,,,,,,,,,,a,3.01699996,GALLETA,FALSE,,,,,,,139,galleda,Catalan,Sounds/cat_galleda.mp3,2020-06-20_16h35.36.768,TranslationElicitation_spa,3.2.4,Win32,60,55lvve0vwnrihv0rihqipejv1nfnr,,1,0,80,34,1,79
,,,,,,,,,,,,,,,,,,,,,,,,,,,,,,,,,,,return,3.26699996,,FALSE,,,,,,,139,galleda,Catalan,Sounds/cat_galleda.mp3,2020-06-20_16h35.36.768,TranslationElicitation_spa,3.2.4,Win32,60,55lvve0vwnrihv0rihqipejv1nfnr,3.26699996,1,0,80,34,1,79
,,,,,,,,,,,,,,,,,,,,,,,,,,,,,,,,,,,,,,,,,,,,,139,galleda,Catalan,Sounds/cat_galleda.mp3,2020-06-20_16h35.36.768,TranslationElicitation_spa,3.2.4,Win32,60,55lvve0vwnrihv0rihqipejv1nfnr,,1,0,80,34,1,79
,,,,,,,,,,,,,,,,,,,,,,,,,,,,,,,,,,,t,3.434000015,T,FALSE,,,,,,,178,taronja,Catalan,Sounds/cat_taronja.mp3,2020-06-20_16h35.36.768,TranslationElicitation_spa,3.2.4,Win32,60,55lvve0vwnrihv0rihqipejv1nfnr,,1,0,80,70,1,79
,,,,,,,,,,,,,,,,,,,,,,,,,,,,,,,,,,,r,3.650000095,TR,FALSE,,,,,,,178,taronja,Catalan,Sounds/cat_taronja.mp3,2020-06-20_16h35.36.768,TranslationElicitation_spa,3.2.4,Win32,60,55lvve0vwnrihv0rihqipejv1nfnr,,1,0,80,70,1,79
,,,,,,,,,,,,,,,,,,,,,,,,,,,,,,,,,,,a,3.717000008,TRA,FALSE,,,,,,,178,taronja,Catalan,Sounds/cat_taronja.mp3,2020-06-20_16h35.36.768,TranslationElicitation_spa,3.2.4,Win32,60,55lvve0vwnrihv0rihqipejv1nfnr,,1,0,80,70,1,79
,,,,,,,,,,,,,,,,,,,,,,,,,,,,,,,,,,,j,3.850000143,TRAJ,FALSE,,,,,,,178,taronja,Catalan,Sounds/cat_taronja.mp3,2020-06-20_16h35.36.768,TranslationElicitation_spa,3.2.4,Win32,60,55lvve0vwnrihv0rihqipejv1nfnr,,1,0,80,70,1,79
,,,,,,,,,,,,,,,,,,,,,,,,,,,,,,,,,,,e,3.950000048,TRAJE,FALSE,,,,,,,178,taronja,Catalan,Sounds/cat_taronja.mp3,2020-06-20_16h35.36.768,TranslationElicitation_spa,3.2.4,Win32,60,55lvve0vwnrihv0rihqipejv1nfnr,,1,0,80,70,1,79
,,,,,,,,,,,,,,,,,,,,,,,,,,,,,,,,,,,return,4.350000143,,FALSE,,,,,,,178,taronja,Catalan,Sounds/cat_taronja.mp3,2020-06-20_16h35.36.768,TranslationElicitation_spa,3.2.4,Win32,60,55lvve0vwnrihv0rihqipejv1nfnr,4.350000143,1,0,80,70,1,79
,,,,,,,,,,,,,,,,,,,,,,,,,,,,,,,,,,,,,,,,,,,,,178,taronja,Catalan,Sounds/cat_taronja.mp3,2020-06-20_16h35.36.768,TranslationElicitation_spa,3.2.4,Win32,60,55lvve0vwnrihv0rihqipejv1nfnr,,1,0,80,70,1,79
,,,,,,,,,,,,,,,,,,,,,,,,,,,,,,,,,,,s,1.483999968,S,FALSE,,,,,,,124,cirera,Catalan,Sounds/cat_cirera.mp3,2020-06-20_16h35.36.768,TranslationElicitation_spa,3.2.4,Win32,60,55lvve0vwnrihv0rihqipejv1nfnr,,1,0,80,19,1,79
,,,,,,,,,,,,,,,,,,,,,,,,,,,,,,,,,,,i,1.567000151,SI,FALSE,,,,,,,124,cirera,Catalan,Sounds/cat_cirera.mp3,2020-06-20_16h35.36.768,TranslationElicitation_spa,3.2.4,Win32,60,55lvve0vwnrihv0rihqipejv1nfnr,,1,0,80,19,1,79
,,,,,,,,,,,,,,,,,,,,,,,,,,,,,,,,,,,r,1.934000015,SIR,FALSE,,,,,,,124,cirera,Catalan,Sounds/cat_cirera.mp3,2020-06-20_16h35.36.768,TranslationElicitation_spa,3.2.4,Win32,60,55lvve0vwnrihv0rihqipejv1nfnr,,1,0,80,19,1,79
,,,,,,,,,,,,,,,,,,,,,,,,,,,,,,,,,,,e,2.049999952,SIRE,FALSE,,,,,,,124,cirera,Catalan,Sounds/cat_cirera.mp3,2020-06-20_16h35.36.768,TranslationElicitation_spa,3.2.4,Win32,60,55lvve0vwnrihv0rihqipejv1nfnr,,1,0,80,19,1,79
,,,,,,,,,,,,,,,,,,,,,,,,,,,,,,,,,,,n,2.335000038,SIREN,FALSE,,,,,,,124,cirera,Catalan,Sounds/cat_cirera.mp3,2020-06-20_16h35.36.768,TranslationElicitation_spa,3.2.4,Win32,60,55lvve0vwnrihv0rihqipejv1nfnr,,1,0,80,19,1,79
,,,,,,,,,,,,,,,,,,,,,,,,,,,,,,,,,,,a,2.433000088,SIRENA,FALSE,,,,,,,124,cirera,Catalan,Sounds/cat_cirera.mp3,2020-06-20_16h35.36.768,TranslationElicitation_spa,3.2.4,Win32,60,55lvve0vwnrihv0rihqipejv1nfnr,,1,0,80,19,1,79
,,,,,,,,,,,,,,,,,,,,,,,,,,,,,,,,,,,return,2.634000063,,FALSE,,,,,,,124,cirera,Catalan,Sounds/cat_cirera.mp3,2020-06-20_16h35.36.768,TranslationElicitation_spa,3.2.4,Win32,60,55lvve0vwnrihv0rihqipejv1nfnr,2.634000063,1,0,80,19,1,79
,,,,,,,,,,,,,,,,,,,,,,,,,,,,,,,,,,,,,,,,,,,,,124,cirera,Catalan,Sounds/cat_cirera.mp3,2020-06-20_16h35.36.768,TranslationElicitation_spa,3.2.4,Win32,60,55lvve0vwnrihv0rihqipejv1nfnr,,1,0,80,19,1,79
,,,,,,,,,,,,,,,,,,,,,,,,,,,,,,,,,,,a,4.733999968,A,FALSE,,,,,,,130,entrepa,Catalan,Sounds/cat_entrepa.mp3,2020-06-20_16h35.36.768,TranslationElicitation_spa,3.2.4,Win32,60,55lvve0vwnrihv0rihqipejv1nfnr,,1,0,80,25,1,79
,,,,,,,,,,,,,,,,,,,,,,,,,,,,,,,,,,,t,4.968000174,AT,FALSE,,,,,,,130,entrepa,Catalan,Sounds/cat_entrepa.mp3,2020-06-20_16h35.36.768,TranslationElicitation_spa,3.2.4,Win32,60,55lvve0vwnrihv0rihqipejv1nfnr,,1,0,80,25,1,79
,,,,,,,,,,,,,,,,,,,,,,,,,,,,,,,,,,,r,5.151000023,ATR,FALSE,,,,,,,130,entrepa,Catalan,Sounds/cat_entrepa.mp3,2020-06-20_16h35.36.768,TranslationElicitation_spa,3.2.4,Win32,60,55lvve0vwnrihv0rihqipejv1nfnr,,1,0,80,25,1,79
,,,,,,,,,,,,,,,,,,,,,,,,,,,,,,,,,,,a,5.268000126,ATRA,FALSE,,,,,,,130,entrepa,Catalan,Sounds/cat_entrepa.mp3,2020-06-20_16h35.36.768,TranslationElicitation_spa,3.2.4,Win32,60,55lvve0vwnrihv0rihqipejv1nfnr,,1,0,80,25,1,79
,,,,,,,,,,,,,,,,,,,,,,,,,,,,,,,,,,,p,5.468000174,ATRAP,FALSE,,,,,,,130,entrepa,Catalan,Sounds/cat_entrepa.mp3,2020-06-20_16h35.36.768,TranslationElicitation_spa,3.2.4,Win32,60,55lvve0vwnrihv0rihqipejv1nfnr,,1,0,80,25,1,79
,,,,,,,,,,,,,,,,,,,,,,,,,,,,,,,,,,,a,5.568000078,ATRAPA,FALSE,,,,,,,130,entrepa,Catalan,Sounds/cat_entrepa.mp3,2020-06-20_16h35.36.768,TranslationElicitation_spa,3.2.4,Win32,60,55lvve0vwnrihv0rihqipejv1nfnr,,1,0,80,25,1,79
,,,,,,,,,,,,,,,,,,,,,,,,,,,,,,,,,,,d,5.768000126,ATRAPAD,FALSE,,,,,,,130,entrepa,Catalan,Sounds/cat_entrepa.mp3,2020-06-20_16h35.36.768,TranslationElicitation_spa,3.2.4,Win32,60,55lvve0vwnrihv0rihqipejv1nfnr,,1,0,80,25,1,79
,,,,,,,,,,,,,,,,,,,,,,,,,,,,,,,,,,,o,5.868000031,ATRAPADO,FALSE,,,,,,,130,entrepa,Catalan,Sounds/cat_entrepa.mp3,2020-06-20_16h35.36.768,TranslationElicitation_spa,3.2.4,Win32,60,55lvve0vwnrihv0rihqipejv1nfnr,,1,0,80,25,1,79
,,,,,,,,,,,,,,,,,,,,,,,,,,,,,,,,,,,backspace,8.752000093,ATRAPA,TRUE,,,,,,,130,entrepa,Catalan,Sounds/cat_entrepa.mp3,2020-06-20_16h35.36.768,TranslationElicitation_spa,3.2.4,Win32,60,55lvve0vwnrihv0rihqipejv1nfnr,,1,0,80,25,1,79
,,,,,,,,,,,,,,,,,,,,,,,,,,,,,,,,,,,backspace,9.103000164,ATRA,TRUE,,,,,,,130,entrepa,Catalan,Sounds/cat_entrepa.mp3,2020-06-20_16h35.36.768,TranslationElicitation_spa,3.2.4,Win32,60,55lvve0vwnrihv0rihqipejv1nfnr,,1,0,80,25,1,79
,,,,,,,,,,,,,,,,,,,,,,,,,,,,,,,,,,,r,9.269000053,ATRAR,TRUE,,,,,,,130,entrepa,Catalan,Sounds/cat_entrepa.mp3,2020-06-20_16h35.36.768,TranslationElicitation_spa,3.2.4,Win32,60,55lvve0vwnrihv0rihqipejv1nfnr,,1,0,80,25,1,79
,,,,,,,,,,,,,,,,,,,,,,,,,,,,,,,,,,,backspace,10.10300016,ATR,TRUE,,,,,,,130,entrepa,Catalan,Sounds/cat_entrepa.mp3,2020-06-20_16h35.36.768,TranslationElicitation_spa,3.2.4,Win32,60,55lvve0vwnrihv0rihqipejv1nfnr,,1,0,80,25,1,79
,,,,,,,,,,,,,,,,,,,,,,,,,,,,,,,,,,,a,10.93700004,ATRA,TRUE,,,,,,,130,entrepa,Catalan,Sounds/cat_entrepa.mp3,2020-06-20_16h35.36.768,TranslationElicitation_spa,3.2.4,Win32,60,55lvve0vwnrihv0rihqipejv1nfnr,,1,0,80,25,1,79
,,,,,,,,,,,,,,,,,,,,,,,,,,,,,,,,,,,p,11.07000017,ATRAP,TRUE,,,,,,,130,entrepa,Catalan,Sounds/cat_entrepa.mp3,2020-06-20_16h35.36.768,TranslationElicitation_spa,3.2.4,Win32,60,55lvve0vwnrihv0rihqipejv1nfnr,,1,0,80,25,1,79
,,,,,,,,,,,,,,,,,,,,,,,,,,,,,,,,,,,a,11.15300012,ATRAPA,TRUE,,,,,,,130,entrepa,Catalan,Sounds/cat_entrepa.mp3,2020-06-20_16h35.36.768,TranslationElicitation_spa,3.2.4,Win32,60,55lvve0vwnrihv0rihqipejv1nfnr,,1,0,80,25,1,79
,,,,,,,,,,,,,,,,,,,,,,,,,,,,,,,,,,,r,11.42000008,ATRAPAR,TRUE,,,,,,,130,entrepa,Catalan,Sounds/cat_entrepa.mp3,2020-06-20_16h35.36.768,TranslationElicitation_spa,3.2.4,Win32,60,55lvve0vwnrihv0rihqipejv1nfnr,,1,0,80,25,1,79
,,,,,,,,,,,,,,,,,,,,,,,,,,,,,,,,,,,return,12.07000017,,TRUE,,,,,,,130,entrepa,Catalan,Sounds/cat_entrepa.mp3,2020-06-20_16h35.36.768,TranslationElicitation_spa,3.2.4,Win32,60,55lvve0vwnrihv0rihqipejv1nfnr,12.07000017,1,0,80,25,1,79
,,,,,,,,,,,,,,,,,,,,,,,,,,,,,,,,,,,,,,,,,,,,,130,entrepa,Catalan,Sounds/cat_entrepa.mp3,2020-06-20_16h35.36.768,TranslationElicitation_spa,3.2.4,Win32,60,55lvve0vwnrihv0rihqipejv1nfnr,,1,0,80,25,1,79
,,,,,,,,,,,,,,,,,,,,,,,,,,,,,,,,,,,f,1.677999973,F,FALSE,,,,,,,137,fulla,Catalan,Sounds/cat_fulla.mp3,2020-06-20_16h35.36.768,TranslationElicitation_spa,3.2.4,Win32,60,55lvve0vwnrihv0rihqipejv1nfnr,,1,0,80,32,1,79
,,,,,,,,,,,,,,,,,,,,,,,,,,,,,,,,,,,u,1.794999838,FU,FALSE,,,,,,,137,fulla,Catalan,Sounds/cat_fulla.mp3,2020-06-20_16h35.36.768,TranslationElicitation_spa,3.2.4,Win32,60,55lvve0vwnrihv0rihqipejv1nfnr,,1,0,80,32,1,79
,,,,,,,,,,,,,,,,,,,,,,,,,,,,,,,,,,,g,1.944999933,FUG,FALSE,,,,,,,137,fulla,Catalan,Sounds/cat_fulla.mp3,2020-06-20_16h35.36.768,TranslationElicitation_spa,3.2.4,Win32,60,55lvve0vwnrihv0rihqipejv1nfnr,,1,0,80,32,1,79
,,,,,,,,,,,,,,,,,,,,,,,,,,,,,,,,,,,a,2.027999878,FUGA,FALSE,,,,,,,137,fulla,Catalan,Sounds/cat_fulla.mp3,2020-06-20_16h35.36.768,TranslationElicitation_spa,3.2.4,Win32,60,55lvve0vwnrihv0rihqipejv1nfnr,,1,0,80,32,1,79
,,,,,,,,,,,,,,,,,,,,,,,,,,,,,,,,,,,return,2.444999933,,FALSE,,,,,,,137,fulla,Catalan,Sounds/cat_fulla.mp3,2020-06-20_16h35.36.768,TranslationElicitation_spa,3.2.4,Win32,60,55lvve0vwnrihv0rihqipejv1nfnr,2.444999933,1,0,80,32,1,79
,,,,,,,,,,,,,,,,,,,,,,,,,,,,,,,,,,,,,,,,,,,,,137,fulla,Catalan,Sounds/cat_fulla.mp3,2020-06-20_16h35.36.768,TranslationElicitation_spa,3.2.4,Win32,60,55lvve0vwnrihv0rihqipejv1nfnr,,1,0,80,32,1,79
,,,,,,,,,,,,,,,,,,,,,,,,,,,,,,,,,,,b,1.514999866,B,FALSE,,,,,,,117,boto,Catalan,Sounds/cat_boto.mp3,2020-06-20_16h35.36.768,TranslationElicitation_spa,3.2.4,Win32,60,55lvve0vwnrihv0rihqipejv1nfnr,,1,0,80,12,1,79
,,,,,,,,,,,,,,,,,,,,,,,,,,,,,,,,,,,o,1.731999874,BO,FALSE,,,,,,,117,boto,Catalan,Sounds/cat_boto.mp3,2020-06-20_16h35.36.768,TranslationElicitation_spa,3.2.4,Win32,60,55lvve0vwnrihv0rihqipejv1nfnr,,1,0,80,12,1,79
,,,,,,,,,,,,,,,,,,,,,,,,,,,,,,,,,,,t,1.898999929,BOT,FALSE,,,,,,,117,boto,Catalan,Sounds/cat_boto.mp3,2020-06-20_16h35.36.768,TranslationElicitation_spa,3.2.4,Win32,60,55lvve0vwnrihv0rihqipejv1nfnr,,1,0,80,12,1,79
,,,,,,,,,,,,,,,,,,,,,,,,,,,,,,,,,,,apostrophe,2.382999897,BOT,FALSE,,,,,,,117,boto,Catalan,Sounds/cat_boto.mp3,2020-06-20_16h35.36.768,TranslationElicitation_spa,3.2.4,Win32,60,55lvve0vwnrihv0rihqipejv1nfnr,,1,0,80,12,1,79
,,,,,,,,,,,,,,,,,,,,,,,,,,,,,,,,,,,o,2.548999786,BOTÓ,FALSE,,,,,,,117,boto,Catalan,Sounds/cat_boto.mp3,2020-06-20_16h35.36.768,TranslationElicitation_spa,3.2.4,Win32,60,55lvve0vwnrihv0rihqipejv1nfnr,,1,0,80,12,1,79
,,,,,,,,,,,,,,,,,,,,,,,,,,,,,,,,,,,n,2.598999977,BOTÓN,FALSE,,,,,,,117,boto,Catalan,Sounds/cat_boto.mp3,2020-06-20_16h35.36.768,TranslationElicitation_spa,3.2.4,Win32,60,55lvve0vwnrihv0rihqipejv1nfnr,,1,0,80,12,1,79
,,,,,,,,,,,,,,,,,,,,,,,,,,,,,,,,,,,return,2.981999874,,FALSE,,,,,,,117,boto,Catalan,Sounds/cat_boto.mp3,2020-06-20_16h35.36.768,TranslationElicitation_spa,3.2.4,Win32,60,55lvve0vwnrihv0rihqipejv1nfnr,2.981999874,1,0,80,12,1,79
,,,,,,,,,,,,,,,,,,,,,,,,,,,,,,,,,,,,,,,,,,,,,117,boto,Catalan,Sounds/cat_boto.mp3,2020-06-20_16h35.36.768,TranslationElicitation_spa,3.2.4,Win32,60,55lvve0vwnrihv0rihqipejv1nfnr,,1,0,80,12,1,79
,,,,,,,,,,,,,,,,,,,,,,,,,,,,,,,,,,,t,1.982999802,T,FALSE,,,,,,,183,tren,Catalan,Sounds/cat_tren.mp3,2020-06-20_16h35.36.768,TranslationElicitation_spa,3.2.4,Win32,60,55lvve0vwnrihv0rihqipejv1nfnr,,1,0,80,74,1,79
,,,,,,,,,,,,,,,,,,,,,,,,,,,,,,,,,,,r,2.182999849,TR,FALSE,,,,,,,183,tren,Catalan,Sounds/cat_tren.mp3,2020-06-20_16h35.36.768,TranslationElicitation_spa,3.2.4,Win32,60,55lvve0vwnrihv0rihqipejv1nfnr,,1,0,80,74,1,79
,,,,,,,,,,,,,,,,,,,,,,,,,,,,,,,,,,,e,2.282999992,TRE,FALSE,,,,,,,183,tren,Catalan,Sounds/cat_tren.mp3,2020-06-20_16h35.36.768,TranslationElicitation_spa,3.2.4,Win32,60,55lvve0vwnrihv0rihqipejv1nfnr,,1,0,80,74,1,79
,,,,,,,,,,,,,,,,,,,,,,,,,,,,,,,,,,,n,2.365999937,TREN,FALSE,,,,,,,183,tren,Catalan,Sounds/cat_tren.mp3,2020-06-20_16h35.36.768,TranslationElicitation_spa,3.2.4,Win32,60,55lvve0vwnrihv0rihqipejv1nfnr,,1,0,80,74,1,79
,,,,,,,,,,,,,,,,,,,,,,,,,,,,,,,,,,,return,2.566999912,,FALSE,,,,,,,183,tren,Catalan,Sounds/cat_tren.mp3,2020-06-20_16h35.36.768,TranslationElicitation_spa,3.2.4,Win32,60,55lvve0vwnrihv0rihqipejv1nfnr,2.565999985,1,0,80,74,1,79
,,,,,,,,,,,,,,,,,,,,,,,,,,,,,,,,,,,,,,,,,,,,,183,tren,Catalan,Sounds/cat_tren.mp3,2020-06-20_16h35.36.768,TranslationElicitation_spa,3.2.4,Win32,60,55lvve0vwnrihv0rihqipejv1nfnr,,1,0,80,74,1,79
,,,,,,,,,,,,,,,,,,,,,,,,,,,,,,,,,,,g,4.801000118,G,FALSE,,,,,,,106,aixeta,Catalan,Sounds/cat_aixeta.mp3,2020-06-20_16h35.36.768,TranslationElicitation_spa,3.2.4,Win32,60,55lvve0vwnrihv0rihqipejv1nfnr,,1,0,80,2,1,79
,,,,,,,,,,,,,,,,,,,,,,,,,,,,,,,,,,,a,4.851000071,GA,FALSE,,,,,,,106,aixeta,Catalan,Sounds/cat_aixeta.mp3,2020-06-20_16h35.36.768,TranslationElicitation_spa,3.2.4,Win32,60,55lvve0vwnrihv0rihqipejv1nfnr,,1,0,80,2,1,79
,,,,,,,,,,,,,,,,,,,,,,,,,,,,,,,,,,,l,5.200999975,GAL,FALSE,,,,,,,106,aixeta,Catalan,Sounds/cat_aixeta.mp3,2020-06-20_16h35.36.768,TranslationElicitation_spa,3.2.4,Win32,60,55lvve0vwnrihv0rihqipejv1nfnr,,1,0,80,2,1,79
,,,,,,,,,,,,,,,,,,,,,,,,,,,,,,,,,,,l,5.351000071,GALL,FALSE,,,,,,,106,aixeta,Catalan,Sounds/cat_aixeta.mp3,2020-06-20_16h35.36.768,TranslationElicitation_spa,3.2.4,Win32,60,55lvve0vwnrihv0rihqipejv1nfnr,,1,0,80,2,1,79
,,,,,,,,,,,,,,,,,,,,,,,,,,,,,,,,,,,e,5.401000023,GALLE,FALSE,,,,,,,106,aixeta,Catalan,Sounds/cat_aixeta.mp3,2020-06-20_16h35.36.768,TranslationElicitation_spa,3.2.4,Win32,60,55lvve0vwnrihv0rihqipejv1nfnr,,1,0,80,2,1,79
,,,,,,,,,,,,,,,,,,,,,,,,,,,,,,,,,,,t,5.501000166,GALLET,FALSE,,,,,,,106,aixeta,Catalan,Sounds/cat_aixeta.mp3,2020-06-20_16h35.36.768,TranslationElicitation_spa,3.2.4,Win32,60,55lvve0vwnrihv0rihqipejv1nfnr,,1,0,80,2,1,79
,,,,,,,,,,,,,,,,,,,,,,,,,,,,,,,,,,,a,5.651000023,GALLETA,FALSE,,,,,,,106,aixeta,Catalan,Sounds/cat_aixeta.mp3,2020-06-20_16h35.36.768,TranslationElicitation_spa,3.2.4,Win32,60,55lvve0vwnrihv0rihqipejv1nfnr,,1,0,80,2,1,79
,,,,,,,,,,,,,,,,,,,,,,,,,,,,,,,,,,,return,5.868000031,,FALSE,,,,,,,106,aixeta,Catalan,Sounds/cat_aixeta.mp3,2020-06-20_16h35.36.768,TranslationElicitation_spa,3.2.4,Win32,60,55lvve0vwnrihv0rihqipejv1nfnr,5.868000031,1,0,80,2,1,79
,,,,,,,,,,,,,,,,,,,,,,,,,,,,,,,,,,,,,,,,,,,,,106,aixeta,Catalan,Sounds/cat_aixeta.mp3,2020-06-20_16h35.36.768,TranslationElicitation_spa,3.2.4,Win32,60,55lvve0vwnrihv0rihqipejv1nfnr,,1,0,80,2,1,79
,,,,,,,,,,,,,,,,,,,,,,,,,,,,,,,,,,,a,1.382999897,A,FALSE,,,,,,,108,ampolla,Catalan,Sounds/cat_ampolla.mp3,2020-06-20_16h35.36.768,TranslationElicitation_spa,3.2.4,Win32,60,55lvve0vwnrihv0rihqipejv1nfnr,,1,0,80,4,1,79
,,,,,,,,,,,,,,,,,,,,,,,,,,,,,,,,,,,m,1.51699996,AM,FALSE,,,,,,,108,ampolla,Catalan,Sounds/cat_ampolla.mp3,2020-06-20_16h35.36.768,TranslationElicitation_spa,3.2.4,Win32,60,55lvve0vwnrihv0rihqipejv1nfnr,,1,0,80,4,1,79
,,,,,,,,,,,,,,,,,,,,,,,,,,,,,,,,,,,p,1.566999912,AMP,FALSE,,,,,,,108,ampolla,Catalan,Sounds/cat_ampolla.mp3,2020-06-20_16h35.36.768,TranslationElicitation_spa,3.2.4,Win32,60,55lvve0vwnrihv0rihqipejv1nfnr,,1,0,80,4,1,79
,,,,,,,,,,,,,,,,,,,,,,,,,,,,,,,,,,,o,1.799999952,AMPO,FALSE,,,,,,,108,ampolla,Catalan,Sounds/cat_ampolla.mp3,2020-06-20_16h35.36.768,TranslationElicitation_spa,3.2.4,Win32,60,55lvve0vwnrihv0rihqipejv1nfnr,,1,0,80,4,1,79
,,,,,,,,,,,,,,,,,,,,,,,,,,,,,,,,,,,l,2.01699996,AMPOL,FALSE,,,,,,,108,ampolla,Catalan,Sounds/cat_ampolla.mp3,2020-06-20_16h35.36.768,TranslationElicitation_spa,3.2.4,Win32,60,55lvve0vwnrihv0rihqipejv1nfnr,,1,0,80,4,1,79
,,,,,,,,,,,,,,,,,,,,,,,,,,,,,,,,,,,l,2.166999817,AMPOLL,FALSE,,,,,,,108,ampolla,Catalan,Sounds/cat_ampolla.mp3,2020-06-20_16h35.36.768,TranslationElicitation_spa,3.2.4,Win32,60,55lvve0vwnrihv0rihqipejv1nfnr,,1,0,80,4,1,79
,,,,,,,,,,,,,,,,,,,,,,,,,,,,,,,,,,,a,2.299999952,AMPOLLA,FALSE,,,,,,,108,ampolla,Catalan,Sounds/cat_ampolla.mp3,2020-06-20_16h35.36.768,TranslationElicitation_spa,3.2.4,Win32,60,55lvve0vwnrihv0rihqipejv1nfnr,,1,0,80,4,1,79
,,,,,,,,,,,,,,,,,,,,,,,,,,,,,,,,,,,return,2.51699996,,FALSE,,,,,,,108,ampolla,Catalan,Sounds/cat_ampolla.mp3,2020-06-20_16h35.36.768,TranslationElicitation_spa,3.2.4,Win32,60,55lvve0vwnrihv0rihqipejv1nfnr,2.51699996,1,0,80,4,1,79
,,,,,,,,,,,,,,,,,,,,,,,,,,,,,,,,,,,,,,,,,,,,,108,ampolla,Catalan,Sounds/cat_ampolla.mp3,2020-06-20_16h35.36.768,TranslationElicitation_spa,3.2.4,Win32,60,55lvve0vwnrihv0rihqipejv1nfnr,,1,0,80,4,1,79
,,,,,,,,,,,,,,,,,,,,,,,,,,,,,,,,,,,t,1.616000175,T,FALSE,,,,,,,182,tomaquet,Catalan,Sounds/cat_tomaquet.mp3,2020-06-20_16h35.36.768,TranslationElicitation_spa,3.2.4,Win32,60,55lvve0vwnrihv0rihqipejv1nfnr,,1,0,80,73,1,79
,,,,,,,,,,,,,,,,,,,,,,,,,,,,,,,,,,,o,1.766000032,TO,FALSE,,,,,,,182,tomaquet,Catalan,Sounds/cat_tomaquet.mp3,2020-06-20_16h35.36.768,TranslationElicitation_spa,3.2.4,Win32,60,55lvve0vwnrihv0rihqipejv1nfnr,,1,0,80,73,1,79
,,,,,,,,,,,,,,,,,,,,,,,,,,,,,,,,,,,m,1.848999977,TOM,FALSE,,,,,,,182,tomaquet,Catalan,Sounds/cat_tomaquet.mp3,2020-06-20_16h35.36.768,TranslationElicitation_spa,3.2.4,Win32,60,55lvve0vwnrihv0rihqipejv1nfnr,,1,0,80,73,1,79
,,,,,,,,,,,,,,,,,,,,,,,,,,,,,,,,,,,a,1.94900012,TOMA,FALSE,,,,,,,182,tomaquet,Catalan,Sounds/cat_tomaquet.mp3,2020-06-20_16h35.36.768,TranslationElicitation_spa,3.2.4,Win32,60,55lvve0vwnrihv0rihqipejv1nfnr,,1,0,80,73,1,79
,,,,,,,,,,,,,,,,,,,,,,,,,,,,,,,,,,,t,2.549999952,TOMAT,FALSE,,,,,,,182,tomaquet,Catalan,Sounds/cat_tomaquet.mp3,2020-06-20_16h35.36.768,TranslationElicitation_spa,3.2.4,Win32,60,55lvve0vwnrihv0rihqipejv1nfnr,,1,0,80,73,1,79
,,,,,,,,,,,,,,,,,,,,,,,,,,,,,,,,,,,e,2.649000168,TOMATE,FALSE,,,,,,,182,tomaquet,Catalan,Sounds/cat_tomaquet.mp3,2020-06-20_16h35.36.768,TranslationElicitation_spa,3.2.4,Win32,60,55lvve0vwnrihv0rihqipejv1nfnr,,1,0,80,73,1,79
,,,,,,,,,,,,,,,,,,,,,,,,,,,,,,,,,,,return,3.549999952,,FALSE,,,,,,,182,tomaquet,Catalan,Sounds/cat_tomaquet.mp3,2020-06-20_16h35.36.768,TranslationElicitation_spa,3.2.4,Win32,60,55lvve0vwnrihv0rihqipejv1nfnr,3.549999952,1,0,80,73,1,79
,,,,,,,,,,,,,,,,,,,,,,,,,,,,,,,,,,,,,,,,,,,,,182,tomaquet,Catalan,Sounds/cat_tomaquet.mp3,2020-06-20_16h35.36.768,TranslationElicitation_spa,3.2.4,Win32,60,55lvve0vwnrihv0rihqipejv1nfnr,,1,0,80,73,1,79
,,,,,,,,,,,,,,,,,,,,,,,,,,,,,,,,,,,c,1.632999897,C,FALSE,,,,,,,119,caixa,Catalan,Sounds/cat_caixa.mp3,2020-06-20_16h35.36.768,TranslationElicitation_spa,3.2.4,Win32,60,55lvve0vwnrihv0rihqipejv1nfnr,,1,0,80,14,1,79
,,,,,,,,,,,,,,,,,,,,,,,,,,,,,,,,,,,a,1.748999834,CA,FALSE,,,,,,,119,caixa,Catalan,Sounds/cat_caixa.mp3,2020-06-20_16h35.36.768,TranslationElicitation_spa,3.2.4,Win32,60,55lvve0vwnrihv0rihqipejv1nfnr,,1,0,80,14,1,79
,,,,,,,,,,,,,,,,,,,,,,,,,,,,,,,,,,,s,1.950000048,CAS,FALSE,,,,,,,119,caixa,Catalan,Sounds/cat_caixa.mp3,2020-06-20_16h35.36.768,TranslationElicitation_spa,3.2.4,Win32,60,55lvve0vwnrihv0rihqipejv1nfnr,,1,0,80,14,1,79
,,,,,,,,,,,,,,,,,,,,,,,,,,,,,,,,,,,a,2.016000032,CASA,FALSE,,,,,,,119,caixa,Catalan,Sounds/cat_caixa.mp3,2020-06-20_16h35.36.768,TranslationElicitation_spa,3.2.4,Win32,60,55lvve0vwnrihv0rihqipejv1nfnr,,1,0,80,14,1,79
,,,,,,,,,,,,,,,,,,,,,,,,,,,,,,,,,,,return,2.315999985,,FALSE,,,,,,,119,caixa,Catalan,Sounds/cat_caixa.mp3,2020-06-20_16h35.36.768,TranslationElicitation_spa,3.2.4,Win32,60,55lvve0vwnrihv0rihqipejv1nfnr,2.315999985,1,0,80,14,1,79
,,,,,,,,,,,,,,,,,,,,,,,,,,,,,,,,,,,,,,,,,,,,,119,caixa,Catalan,Sounds/cat_caixa.mp3,2020-06-20_16h35.36.768,TranslationElicitation_spa,3.2.4,Win32,60,55lvve0vwnrihv0rihqipejv1nfnr,,1,0,80,14,1,79
,,,,,,,,,,,,,,,,,,,,,,,,,,,,,,,,,,,o,6.668000221,O,FALSE,,,,,,,185,ulleres,Catalan,Sounds/cat_ulleres.mp3,2020-06-20_16h35.36.768,TranslationElicitation_spa,3.2.4,Win32,60,55lvve0vwnrihv0rihqipejv1nfnr,,1,0,80,76,1,79
,,,,,,,,,,,,,,,,,,,,,,,,,,,,,,,,,,,j,6.752000093,OJ,FALSE,,,,,,,185,ulleres,Catalan,Sounds/cat_ulleres.mp3,2020-06-20_16h35.36.768,TranslationElicitation_spa,3.2.4,Win32,60,55lvve0vwnrihv0rihqipejv1nfnr,,1,0,80,76,1,79
,,,,,,,,,,,,,,,,,,,,,,,,,,,,,,,,,,,e,6.868000031,OJE,FALSE,,,,,,,185,ulleres,Catalan,Sounds/cat_ulleres.mp3,2020-06-20_16h35.36.768,TranslationElicitation_spa,3.2.4,Win32,60,55lvve0vwnrihv0rihqipejv1nfnr,,1,0,80,76,1,79
,,,,,,,,,,,,,,,,,,,,,,,,,,,,,,,,,,,r,6.951000214,OJER,FALSE,,,,,,,185,ulleres,Catalan,Sounds/cat_ulleres.mp3,2020-06-20_16h35.36.768,TranslationElicitation_spa,3.2.4,Win32,60,55lvve0vwnrihv0rihqipejv1nfnr,,1,0,80,76,1,79
,,,,,,,,,,,,,,,,,,,,,,,,,,,,,,,,,,,a,7.069000006,OJERA,FALSE,,,,,,,185,ulleres,Catalan,Sounds/cat_ulleres.mp3,2020-06-20_16h35.36.768,TranslationElicitation_spa,3.2.4,Win32,60,55lvve0vwnrihv0rihqipejv1nfnr,,1,0,80,76,1,79
,,,,,,,,,,,,,,,,,,,,,,,,,,,,,,,,,,,s,7.218000174,OJERAS,FALSE,,,,,,,185,ulleres,Catalan,Sounds/cat_ulleres.mp3,2020-06-20_16h35.36.768,TranslationElicitation_spa,3.2.4,Win32,60,55lvve0vwnrihv0rihqipejv1nfnr,,1,0,80,76,1,79
,,,,,,,,,,,,,,,,,,,,,,,,,,,,,,,,,,,return,7.553000212,,FALSE,,,,,,,185,ulleres,Catalan,Sounds/cat_ulleres.mp3,2020-06-20_16h35.36.768,TranslationElicitation_spa,3.2.4,Win32,60,55lvve0vwnrihv0rihqipejv1nfnr,7.553000212,1,0,80,76,1,79
,,,,,,,,,,,,,,,,,,,,,,,,,,,,,,,,,,,,,,,,,,,,,185,ulleres,Catalan,Sounds/cat_ulleres.mp3,2020-06-20_16h35.36.768,TranslationElicitation_spa,3.2.4,Win32,60,55lvve0vwnrihv0rihqipejv1nfnr,,1,0,80,76,1,79
,,,,,,,,,,,,,,,,,,,,,,,,,,,,,,,,,,,m,1.982999802,M,FALSE,,,,,,,154,mirall,Catalan,Sounds/cat_mirall.mp3,2020-06-20_16h35.36.768,TranslationElicitation_spa,3.2.4,Win32,60,55lvve0vwnrihv0rihqipejv1nfnr,,1,0,80,48,1,79
,,,,,,,,,,,,,,,,,,,,,,,,,,,,,,,,,,,i,2.116999865,MI,FALSE,,,,,,,154,mirall,Catalan,Sounds/cat_mirall.mp3,2020-06-20_16h35.36.768,TranslationElicitation_spa,3.2.4,Win32,60,55lvve0vwnrihv0rihqipejv1nfnr,,1,0,80,48,1,79
,,,,,,,,,,,,,,,,,,,,,,,,,,,,,,,,,,,r,2.282999992,MIR,FALSE,,,,,,,154,mirall,Catalan,Sounds/cat_mirall.mp3,2020-06-20_16h35.36.768,TranslationElicitation_spa,3.2.4,Win32,60,55lvve0vwnrihv0rihqipejv1nfnr,,1,0,80,48,1,79
,,,,,,,,,,,,,,,,,,,,,,,,,,,,,,,,,,,a,2.349999905,MIRA,FALSE,,,,,,,154,mirall,Catalan,Sounds/cat_mirall.mp3,2020-06-20_16h35.36.768,TranslationElicitation_spa,3.2.4,Win32,60,55lvve0vwnrihv0rihqipejv1nfnr,,1,0,80,48,1,79
,,,,,,,,,,,,,,,,,,,,,,,,,,,,,,,,,,,r,2.449999809,MIRAR,FALSE,,,,,,,154,mirall,Catalan,Sounds/cat_mirall.mp3,2020-06-20_16h35.36.768,TranslationElicitation_spa,3.2.4,Win32,60,55lvve0vwnrihv0rihqipejv1nfnr,,1,0,80,48,1,79
,,,,,,,,,,,,,,,,,,,,,,,,,,,,,,,,,,,return,4.684000015,,FALSE,,,,,,,154,mirall,Catalan,Sounds/cat_mirall.mp3,2020-06-20_16h35.36.768,TranslationElicitation_spa,3.2.4,Win32,60,55lvve0vwnrihv0rihqipejv1nfnr,4.684000015,1,0,80,48,1,79
,,,,,,,,,,,,,,,,,,,,,,,,,,,,,,,,,,,,,,,,,,,,,154,mirall,Catalan,Sounds/cat_mirall.mp3,2020-06-20_16h35.36.768,TranslationElicitation_spa,3.2.4,Win32,60,55lvve0vwnrihv0rihqipejv1nfnr,,1,0,80,48,1,79
,,,,,,,,,,,,,,,,,,,,,,,,,,,,,,,,,,,g,4.700000048,G,FALSE,,,,,,,110,berenar,Catalan,Sounds/cat_berenar.mp3,2020-06-20_16h35.36.768,TranslationElicitation_spa,3.2.4,Win32,60,55lvve0vwnrihv0rihqipejv1nfnr,,1,0,80,5,1,79
,,,,,,,,,,,,,,,,,,,,,,,,,,,,,,,,,,,r,4.801000118,GR,FALSE,,,,,,,110,berenar,Catalan,Sounds/cat_berenar.mp3,2020-06-20_16h35.36.768,TranslationElicitation_spa,3.2.4,Win32,60,55lvve0vwnrihv0rihqipejv1nfnr,,1,0,80,5,1,79
,,,,,,,,,,,,,,,,,,,,,,,,,,,,,,,,,,,i,4.917000055,GRI,FALSE,,,,,,,110,berenar,Catalan,Sounds/cat_berenar.mp3,2020-06-20_16h35.36.768,TranslationElicitation_spa,3.2.4,Win32,60,55lvve0vwnrihv0rihqipejv1nfnr,,1,0,80,5,1,79
,,,,,,,,,,,,,,,,,,,,,,,,,,,,,,,,,,,t,5.049999952,GRIT,FALSE,,,,,,,110,berenar,Catalan,Sounds/cat_berenar.mp3,2020-06-20_16h35.36.768,TranslationElicitation_spa,3.2.4,Win32,60,55lvve0vwnrihv0rihqipejv1nfnr,,1,0,80,5,1,79
,,,,,,,,,,,,,,,,,,,,,,,,,,,,,,,,,,,a,5.184000015,GRITA,FALSE,,,,,,,110,berenar,Catalan,Sounds/cat_berenar.mp3,2020-06-20_16h35.36.768,TranslationElicitation_spa,3.2.4,Win32,60,55lvve0vwnrihv0rihqipejv1nfnr,,1,0,80,5,1,79
,,,,,,,,,,,,,,,,,,,,,,,,,,,,,,,,,,,r,5.26699996,GRITAR,FALSE,,,,,,,110,berenar,Catalan,Sounds/cat_berenar.mp3,2020-06-20_16h35.36.768,TranslationElicitation_spa,3.2.4,Win32,60,55lvve0vwnrihv0rihqipejv1nfnr,,1,0,80,5,1,79
,,,,,,,,,,,,,,,,,,,,,,,,,,,,,,,,,,,return,5.733999968,,FALSE,,,,,,,110,berenar,Catalan,Sounds/cat_berenar.mp3,2020-06-20_16h35.36.768,TranslationElicitation_spa,3.2.4,Win32,60,55lvve0vwnrihv0rihqipejv1nfnr,5.733999968,1,0,80,5,1,79
,,,,,,,,,,,,,,,,,,,,,,,,,,,,,,,,,,,,,,,,,,,,,110,berenar,Catalan,Sounds/cat_berenar.mp3,2020-06-20_16h35.36.768,TranslationElicitation_spa,3.2.4,Win32,60,55lvve0vwnrihv0rihqipejv1nfnr,,1,0,80,5,1,79
,,,,,,,,,,,,,,,,,,,,,,,,,,,,,,,,,,,p,3.23300004,P,FALSE,,,,,,,165,pernil,Catalan,Sounds/cat_pernil.mp3,2020-06-20_16h35.36.768,TranslationElicitation_spa,3.2.4,Win32,60,55lvve0vwnrihv0rihqipejv1nfnr,,1,0,80,58,1,79
,,,,,,,,,,,,,,,,,,,,,,,,,,,,,,,,,,,e,3.365999937,PE,FALSE,,,,,,,165,pernil,Catalan,Sounds/cat_pernil.mp3,2020-06-20_16h35.36.768,TranslationElicitation_spa,3.2.4,Win32,60,55lvve0vwnrihv0rihqipejv1nfnr,,1,0,80,58,1,79
,,,,,,,,,,,,,,,,,,,,,,,,,,,,,,,,,,,r,3.450000048,PER,FALSE,,,,,,,165,pernil,Catalan,Sounds/cat_pernil.mp3,2020-06-20_16h35.36.768,TranslationElicitation_spa,3.2.4,Win32,60,55lvve0vwnrihv0rihqipejv1nfnr,,1,0,80,58,1,79
,,,,,,,,,,,,,,,,,,,,,,,,,,,,,,,,,,,n,3.682999849,PERN,FALSE,,,,,,,165,pernil,Catalan,Sounds/cat_pernil.mp3,2020-06-20_16h35.36.768,TranslationElicitation_spa,3.2.4,Win32,60,55lvve0vwnrihv0rihqipejv1nfnr,,1,0,80,58,1,79
,,,,,,,,,,,,,,,,,,,,,,,,,,,,,,,,,,,e,3.766000032,PERNE,FALSE,,,,,,,165,pernil,Catalan,Sounds/cat_pernil.mp3,2020-06-20_16h35.36.768,TranslationElicitation_spa,3.2.4,Win32,60,55lvve0vwnrihv0rihqipejv1nfnr,,1,0,80,58,1,79
,,,,,,,,,,,,,,,,,,,,,,,,,,,,,,,,,,,r,3.832999945,PERNER,FALSE,,,,,,,165,pernil,Catalan,Sounds/cat_pernil.mp3,2020-06-20_16h35.36.768,TranslationElicitation_spa,3.2.4,Win32,60,55lvve0vwnrihv0rihqipejv1nfnr,,1,0,80,58,1,79
,,,,,,,,,,,,,,,,,,,,,,,,,,,,,,,,,,,a,3.950000048,PERNERA,FALSE,,,,,,,165,pernil,Catalan,Sounds/cat_pernil.mp3,2020-06-20_16h35.36.768,TranslationElicitation_spa,3.2.4,Win32,60,55lvve0vwnrihv0rihqipejv1nfnr,,1,0,80,58,1,79
,,,,,,,,,,,,,,,,,,,,,,,,,,,,,,,,,,,return,4.315999985,,FALSE,,,,,,,165,pernil,Catalan,Sounds/cat_pernil.mp3,2020-06-20_16h35.36.768,TranslationElicitation_spa,3.2.4,Win32,60,55lvve0vwnrihv0rihqipejv1nfnr,4.315999985,1,0,80,58,1,79
,,,,,,,,,,,,,,,,,,,,,,,,,,,,,,,,,,,,,,,,,,,,,165,pernil,Catalan,Sounds/cat_pernil.mp3,2020-06-20_16h35.36.768,TranslationElicitation_spa,3.2.4,Win32,60,55lvve0vwnrihv0rihqipejv1nfnr,,1,0,80,58,1,79
,,,,,,,,,,,,,,,,,,,,,,,,,,,,,,,,,,,l,1.832999945,L,FALSE,,,,,,,151,lluna,Catalan,Sounds/cat_lluna.mp3,2020-06-20_16h35.36.768,TranslationElicitation_spa,3.2.4,Win32,60,55lvve0vwnrihv0rihqipejv1nfnr,,1,0,80,45,1,79
,,,,,,,,,,,,,,,,,,,,,,,,,,,,,,,,,,,u,2,LU,FALSE,,,,,,,151,lluna,Catalan,Sounds/cat_lluna.mp3,2020-06-20_16h35.36.768,TranslationElicitation_spa,3.2.4,Win32,60,55lvve0vwnrihv0rihqipejv1nfnr,,1,0,80,45,1,79
,,,,,,,,,,,,,,,,,,,,,,,,,,,,,,,,,,,n,2.066999912,LUN,FALSE,,,,,,,151,lluna,Catalan,Sounds/cat_lluna.mp3,2020-06-20_16h35.36.768,TranslationElicitation_spa,3.2.4,Win32,60,55lvve0vwnrihv0rihqipejv1nfnr,,1,0,80,45,1,79
,,,,,,,,,,,,,,,,,,,,,,,,,,,,,,,,,,,e,2.182999849,LUNE,FALSE,,,,,,,151,lluna,Catalan,Sounds/cat_lluna.mp3,2020-06-20_16h35.36.768,TranslationElicitation_spa,3.2.4,Win32,60,55lvve0vwnrihv0rihqipejv1nfnr,,1,0,80,45,1,79
,,,,,,,,,,,,,,,,,,,,,,,,,,,,,,,,,,,backspace,2.782999992,LU,TRUE,,,,,,,151,lluna,Catalan,Sounds/cat_lluna.mp3,2020-06-20_16h35.36.768,TranslationElicitation_spa,3.2.4,Win32,60,55lvve0vwnrihv0rihqipejv1nfnr,,1,0,80,45,1,79
,,,,,,,,,,,,,,,,,,,,,,,,,,,,,,,,,,,a,2.882999897,LUA,TRUE,,,,,,,151,lluna,Catalan,Sounds/cat_lluna.mp3,2020-06-20_16h35.36.768,TranslationElicitation_spa,3.2.4,Win32,60,55lvve0vwnrihv0rihqipejv1nfnr,,1,0,80,45,1,79
,,,,,,,,,,,,,,,,,,,,,,,,,,,,,,,,,,,return,3.099999905,,TRUE,,,,,,,151,lluna,Catalan,Sounds/cat_lluna.mp3,2020-06-20_16h35.36.768,TranslationElicitation_spa,3.2.4,Win32,60,55lvve0vwnrihv0rihqipejv1nfnr,3.099999905,1,0,80,45,1,79
,,,,,,,,,,,,,,,,,,,,,,,,,,,,,,,,,,,,,,,,,,,,,151,lluna,Catalan,Sounds/cat_lluna.mp3,2020-06-20_16h35.36.768,TranslationElicitation_spa,3.2.4,Win32,60,55lvve0vwnrihv0rihqipejv1nfnr,,1,0,80,45,1,79
,,,,,,,,,,,,,,,,,,,,,,,,,,,,,,,,,,,m,2.865999937,M,FALSE,,,,,,,171,pollastre,Catalan,Sounds/cat_pollastre.mp3,2020-06-20_16h35.36.768,TranslationElicitation_spa,3.2.4,Win32,60,55lvve0vwnrihv0rihqipejv1nfnr,,1,0,80,63,1,79
,,,,,,,,,,,,,,,,,,,,,,,,,,,,,,,,,,,a,2.948999882,MA,FALSE,,,,,,,171,pollastre,Catalan,Sounds/cat_pollastre.mp3,2020-06-20_16h35.36.768,TranslationElicitation_spa,3.2.4,Win32,60,55lvve0vwnrihv0rihqipejv1nfnr,,1,0,80,63,1,79
,,,,,,,,,,,,,,,,,,,,,,,,,,,,,,,,,,,d,3.149999857,MAD,FALSE,,,,,,,171,pollastre,Catalan,Sounds/cat_pollastre.mp3,2020-06-20_16h35.36.768,TranslationElicitation_spa,3.2.4,Win32,60,55lvve0vwnrihv0rihqipejv1nfnr,,1,0,80,63,1,79
,,,,,,,,,,,,,,,,,,,,,,,,,,,,,,,,,,,r,3.368999958,MADR,FALSE,,,,,,,171,pollastre,Catalan,Sounds/cat_pollastre.mp3,2020-06-20_16h35.36.768,TranslationElicitation_spa,3.2.4,Win32,60,55lvve0vwnrihv0rihqipejv1nfnr,,1,0,80,63,1,79
,,,,,,,,,,,,,,,,,,,,,,,,,,,,,,,,,,,a,3.449999809,MADRA,FALSE,,,,,,,171,pollastre,Catalan,Sounds/cat_pollastre.mp3,2020-06-20_16h35.36.768,TranslationElicitation_spa,3.2.4,Win32,60,55lvve0vwnrihv0rihqipejv1nfnr,,1,0,80,63,1,79
,,,,,,,,,,,,,,,,,,,,,,,,,,,,,,,,,,,s,3.549999952,MADRAS,FALSE,,,,,,,171,pollastre,Catalan,Sounds/cat_pollastre.mp3,2020-06-20_16h35.36.768,TranslationElicitation_spa,3.2.4,Win32,60,55lvve0vwnrihv0rihqipejv1nfnr,,1,0,80,63,1,79
,,,,,,,,,,,,,,,,,,,,,,,,,,,,,,,,,,,t,3.75,MADRAST,FALSE,,,,,,,171,pollastre,Catalan,Sounds/cat_pollastre.mp3,2020-06-20_16h35.36.768,TranslationElicitation_spa,3.2.4,Win32,60,55lvve0vwnrihv0rihqipejv1nfnr,,1,0,80,63,1,79
,,,,,,,,,,,,,,,,,,,,,,,,,,,,,,,,,,,r,3.967000008,MADRASTR,FALSE,,,,,,,171,pollastre,Catalan,Sounds/cat_pollastre.mp3,2020-06-20_16h35.36.768,TranslationElicitation_spa,3.2.4,Win32,60,55lvve0vwnrihv0rihqipejv1nfnr,,1,0,80,63,1,79
,,,,,,,,,,,,,,,,,,,,,,,,,,,,,,,,,,,a,4.049999952,MADRASTRA,FALSE,,,,,,,171,pollastre,Catalan,Sounds/cat_pollastre.mp3,2020-06-20_16h35.36.768,TranslationElicitation_spa,3.2.4,Win32,60,55lvve0vwnrihv0rihqipejv1nfnr,,1,0,80,63,1,79
,,,,,,,,,,,,,,,,,,,,,,,,,,,,,,,,,,,return,6.600999832,,FALSE,,,,,,,171,pollastre,Catalan,Sounds/cat_pollastre.mp3,2020-06-20_16h35.36.768,TranslationElicitation_spa,3.2.4,Win32,60,55lvve0vwnrihv0rihqipejv1nfnr,6.600999832,1,0,80,63,1,79
,,,,,,,,,,,,,,,,,,,,,,,,,,,,,,,,,,,,,,,,,,,,,171,pollastre,Catalan,Sounds/cat_pollastre.mp3,2020-06-20_16h35.36.768,TranslationElicitation_spa,3.2.4,Win32,60,55lvve0vwnrihv0rihqipejv1nfnr,,1,0,80,63,1,79
,,,,,,,,,,,,,,,,,,,,,,,,,,,,,,,,,,,m,2.095999956,M,FALSE,,,,,,,157,mussol,Catalan,Sounds/cat_mussol.mp3,2020-06-20_16h35.36.768,TranslationElicitation_spa,3.2.4,Win32,60,55lvve0vwnrihv0rihqipejv1nfnr,,1,0,80,51,1,79
,,,,,,,,,,,,,,,,,,,,,,,,,,,,,,,,,,,u,2.412999868,MU,FALSE,,,,,,,157,mussol,Catalan,Sounds/cat_mussol.mp3,2020-06-20_16h35.36.768,TranslationElicitation_spa,3.2.4,Win32,60,55lvve0vwnrihv0rihqipejv1nfnr,,1,0,80,51,1,79
,,,,,,,,,,,,,,,,,,,,,,,,,,,,,,,,,,,s,2.480000019,MUS,FALSE,,,,,,,157,mussol,Catalan,Sounds/cat_mussol.mp3,2020-06-20_16h35.36.768,TranslationElicitation_spa,3.2.4,Win32,60,55lvve0vwnrihv0rihqipejv1nfnr,,1,0,80,51,1,79
,,,,,,,,,,,,,,,,,,,,,,,,,,,,,,,,,,,e,2.579999924,MUSE,FALSE,,,,,,,157,mussol,Catalan,Sounds/cat_mussol.mp3,2020-06-20_16h35.36.768,TranslationElicitation_spa,3.2.4,Win32,60,55lvve0vwnrihv0rihqipejv1nfnr,,1,0,80,51,1,79
,,,,,,,,,,,,,,,,,,,,,,,,,,,,,,,,,,,o,2.713000059,MUSEO,FALSE,,,,,,,157,mussol,Catalan,Sounds/cat_mussol.mp3,2020-06-20_16h35.36.768,TranslationElicitation_spa,3.2.4,Win32,60,55lvve0vwnrihv0rihqipejv1nfnr,,1,0,80,51,1,79
,,,,,,,,,,,,,,,,,,,,,,,,,,,,,,,,,,,return,3.346999884,,FALSE,,,,,,,157,mussol,Catalan,Sounds/cat_mussol.mp3,2020-06-20_16h35.36.768,TranslationElicitation_spa,3.2.4,Win32,60,55lvve0vwnrihv0rihqipejv1nfnr,3.345999956,1,0,80,51,1,79
,,,,,,,,,,,,,,,,,,,,,,,,,,,,,,,,,,,,,,,,,,,,,157,mussol,Catalan,Sounds/cat_mussol.mp3,2020-06-20_16h35.36.768,TranslationElicitation_spa,3.2.4,Win32,60,55lvve0vwnrihv0rihqipejv1nfnr,,1,0,80,51,1,79
,,,,,,,,,,,,,,,,,,,,,,,,,,,,,,,,,,,a,1.497999907,A,FALSE,,,,,,,104,abella,Catalan,Sounds/cat_abella.mp3,2020-06-20_16h35.36.768,TranslationElicitation_spa,3.2.4,Win32,60,55lvve0vwnrihv0rihqipejv1nfnr,,1,0,80,0,1,79
,,,,,,,,,,,,,,,,,,,,,,,,,,,,,,,,,,,b,1.61500001,AB,FALSE,,,,,,,104,abella,Catalan,Sounds/cat_abella.mp3,2020-06-20_16h35.36.768,TranslationElicitation_spa,3.2.4,Win32,60,55lvve0vwnrihv0rihqipejv1nfnr,,1,0,80,0,1,79
,,,,,,,,,,,,,,,,,,,,,,,,,,,,,,,,,,,e,1.764999866,ABE,FALSE,,,,,,,104,abella,Catalan,Sounds/cat_abella.mp3,2020-06-20_16h35.36.768,TranslationElicitation_spa,3.2.4,Win32,60,55lvve0vwnrihv0rihqipejv1nfnr,,1,0,80,0,1,79
,,,,,,,,,,,,,,,,,,,,,,,,,,,,,,,,,,,j,1.848999977,ABEJ,FALSE,,,,,,,104,abella,Catalan,Sounds/cat_abella.mp3,2020-06-20_16h35.36.768,TranslationElicitation_spa,3.2.4,Win32,60,55lvve0vwnrihv0rihqipejv1nfnr,,1,0,80,0,1,79
,,,,,,,,,,,,,,,,,,,,,,,,,,,,,,,,,,,a,1.964999914,ABEJA,FALSE,,,,,,,104,abella,Catalan,Sounds/cat_abella.mp3,2020-06-20_16h35.36.768,TranslationElicitation_spa,3.2.4,Win32,60,55lvve0vwnrihv0rihqipejv1nfnr,,1,0,80,0,1,79
,,,,,,,,,,,,,,,,,,,,,,,,,,,,,,,,,,,return,2.332000017,,FALSE,,,,,,,104,abella,Catalan,Sounds/cat_abella.mp3,2020-06-20_16h35.36.768,TranslationElicitation_spa,3.2.4,Win32,60,55lvve0vwnrihv0rihqipejv1nfnr,2.332000017,1,0,80,0,1,79
,,,,,,,,,,,,,,,,,,,,,,,,,,,,,,,,,,,,,,,,,,,,,104,abella,Catalan,Sounds/cat_abella.mp3,2020-06-20_16h35.36.768,TranslationElicitation_spa,3.2.4,Win32,60,55lvve0vwnrihv0rihqipejv1nfnr,,1,0,80,0,1,79
,,,,,,,,,,,,,,,,,,,,,,,,,,,,,,,,,,,l,1.75,L,FALSE,,,,,,,150,lloro,Catalan,Sounds/cat_lloro.mp3,2020-06-20_16h35.36.768,TranslationElicitation_spa,3.2.4,Win32,60,55lvve0vwnrihv0rihqipejv1nfnr,,1,0,80,44,1,79
,,,,,,,,,,,,,,,,,,,,,,,,,,,,,,,,,,,o,1.866000175,LO,FALSE,,,,,,,150,lloro,Catalan,Sounds/cat_lloro.mp3,2020-06-20_16h35.36.768,TranslationElicitation_spa,3.2.4,Win32,60,55lvve0vwnrihv0rihqipejv1nfnr,,1,0,80,44,1,79
,,,,,,,,,,,,,,,,,,,,,,,,,,,,,,,,,,,r,2.016000032,LOR,FALSE,,,,,,,150,lloro,Catalan,Sounds/cat_lloro.mp3,2020-06-20_16h35.36.768,TranslationElicitation_spa,3.2.4,Win32,60,55lvve0vwnrihv0rihqipejv1nfnr,,1,0,80,44,1,79
,,,,,,,,,,,,,,,,,,,,,,,,,,,,,,,,,,,o,2.100000143,LORO,FALSE,,,,,,,150,lloro,Catalan,Sounds/cat_lloro.mp3,2020-06-20_16h35.36.768,TranslationElicitation_spa,3.2.4,Win32,60,55lvve0vwnrihv0rihqipejv1nfnr,,1,0,80,44,1,79
,,,,,,,,,,,,,,,,,,,,,,,,,,,,,,,,,,,return,2.48300004,,FALSE,,,,,,,150,lloro,Catalan,Sounds/cat_lloro.mp3,2020-06-20_16h35.36.768,TranslationElicitation_spa,3.2.4,Win32,60,55lvve0vwnrihv0rihqipejv1nfnr,2.48300004,1,0,80,44,1,79
,,,,,,,,,,,,,,,,,,,,,,,,,,,,,,,,,,,,,,,,,,,,,150,lloro,Catalan,Sounds/cat_lloro.mp3,2020-06-20_16h35.36.768,TranslationElicitation_spa,3.2.4,Win32,60,55lvve0vwnrihv0rihqipejv1nfnr,,1,0,80,44,1,79
,,,,,,,,,,,,,,,,,,,,,,,,,,,,,,,,,,,c,1.499000072,C,FALSE,,,,,,,126,corona,Catalan,Sounds/cat_corona.mp3,2020-06-20_16h35.36.768,TranslationElicitation_spa,3.2.4,Win32,60,55lvve0vwnrihv0rihqipejv1nfnr,,1,0,80,21,1,79
,,,,,,,,,,,,,,,,,,,,,,,,,,,,,,,,,,,o,1.631999969,CO,FALSE,,,,,,,126,corona,Catalan,Sounds/cat_corona.mp3,2020-06-20_16h35.36.768,TranslationElicitation_spa,3.2.4,Win32,60,55lvve0vwnrihv0rihqipejv1nfnr,,1,0,80,21,1,79
,,,,,,,,,,,,,,,,,,,,,,,,,,,,,,,,,,,r,1.766000032,COR,FALSE,,,,,,,126,corona,Catalan,Sounds/cat_corona.mp3,2020-06-20_16h35.36.768,TranslationElicitation_spa,3.2.4,Win32,60,55lvve0vwnrihv0rihqipejv1nfnr,,1,0,80,21,1,79
,,,,,,,,,,,,,,,,,,,,,,,,,,,,,,,,,,,o,1.832000017,CORO,FALSE,,,,,,,126,corona,Catalan,Sounds/cat_corona.mp3,2020-06-20_16h35.36.768,TranslationElicitation_spa,3.2.4,Win32,60,55lvve0vwnrihv0rihqipejv1nfnr,,1,0,80,21,1,79
,,,,,,,,,,,,,,,,,,,,,,,,,,,,,,,,,,,n,1.981999874,CORON,FALSE,,,,,,,126,corona,Catalan,Sounds/cat_corona.mp3,2020-06-20_16h35.36.768,TranslationElicitation_spa,3.2.4,Win32,60,55lvve0vwnrihv0rihqipejv1nfnr,,1,0,80,21,1,79
,,,,,,,,,,,,,,,,,,,,,,,,,,,,,,,,,,,a,2.115999937,CORONA,FALSE,,,,,,,126,corona,Catalan,Sounds/cat_corona.mp3,2020-06-20_16h35.36.768,TranslationElicitation_spa,3.2.4,Win32,60,55lvve0vwnrihv0rihqipejv1nfnr,,1,0,80,21,1,79
,,,,,,,,,,,,,,,,,,,,,,,,,,,,,,,,,,,return,2.499000072,,FALSE,,,,,,,126,corona,Catalan,Sounds/cat_corona.mp3,2020-06-20_16h35.36.768,TranslationElicitation_spa,3.2.4,Win32,60,55lvve0vwnrihv0rihqipejv1nfnr,2.499000072,1,0,80,21,1,79
,,,,,,,,,,,,,,,,,,,,,,,,,,,,,,,,,,,,,,,,,,,,,126,corona,Catalan,Sounds/cat_corona.mp3,2020-06-20_16h35.36.768,TranslationElicitation_spa,3.2.4,Win32,60,55lvve0vwnrihv0rihqipejv1nfnr,,1,0,80,21,1,79
,,,,,,,,,,,,,,,,,,,,,,,,,,,,,,,,,,,f,1.46600008,F,FALSE,,,,,,,134,flor,Catalan,Sounds/cat_flor.mp3,2020-06-20_16h35.36.768,TranslationElicitation_spa,3.2.4,Win32,60,55lvve0vwnrihv0rihqipejv1nfnr,,1,0,80,29,1,79
,,,,,,,,,,,,,,,,,,,,,,,,,,,,,,,,,,,l,1.598999977,FL,FALSE,,,,,,,134,flor,Catalan,Sounds/cat_flor.mp3,2020-06-20_16h35.36.768,TranslationElicitation_spa,3.2.4,Win32,60,55lvve0vwnrihv0rihqipejv1nfnr,,1,0,80,29,1,79
,,,,,,,,,,,,,,,,,,,,,,,,,,,,,,,,,,,o,1.69900012,FLO,FALSE,,,,,,,134,flor,Catalan,Sounds/cat_flor.mp3,2020-06-20_16h35.36.768,TranslationElicitation_spa,3.2.4,Win32,60,55lvve0vwnrihv0rihqipejv1nfnr,,1,0,80,29,1,79
,,,,,,,,,,,,,,,,,,,,,,,,,,,,,,,,,,,r,1.832000017,FLOR,FALSE,,,,,,,134,flor,Catalan,Sounds/cat_flor.mp3,2020-06-20_16h35.36.768,TranslationElicitation_spa,3.2.4,Win32,60,55lvve0vwnrihv0rihqipejv1nfnr,,1,0,80,29,1,79
,,,,,,,,,,,,,,,,,,,,,,,,,,,,,,,,,,,return,2.299999952,,FALSE,,,,,,,134,flor,Catalan,Sounds/cat_flor.mp3,2020-06-20_16h35.36.768,TranslationElicitation_spa,3.2.4,Win32,60,55lvve0vwnrihv0rihqipejv1nfnr,2.299999952,1,0,80,29,1,79
,,,,,,,,,,,,,,,,,,,,,,,,,,,,,,,,,,,,,,,,,,,,,134,flor,Catalan,Sounds/cat_flor.mp3,2020-06-20_16h35.36.768,TranslationElicitation_spa,3.2.4,Win32,60,55lvve0vwnrihv0rihqipejv1nfnr,,1,0,80,29,1,79
,,,,,,,,,,,,,,,,,,,,,,,,,,,,,,,,,,,b,2.118000031,B,FALSE,,,,,,,114,bol,Catalan,Sounds/cat_bol.mp3,2020-06-20_16h35.36.768,TranslationElicitation_spa,3.2.4,Win32,60,55lvve0vwnrihv0rihqipejv1nfnr,,1,0,80,9,1,79
,,,,,,,,,,,,,,,,,,,,,,,,,,,,,,,,,,,o,2.351000071,BO,FALSE,,,,,,,114,bol,Catalan,Sounds/cat_bol.mp3,2020-06-20_16h35.36.768,TranslationElicitation_spa,3.2.4,Win32,60,55lvve0vwnrihv0rihqipejv1nfnr,,1,0,80,9,1,79
,,,,,,,,,,,,,,,,,,,,,,,,,,,,,,,,,,,l,2.634000063,BOL,FALSE,,,,,,,114,bol,Catalan,Sounds/cat_bol.mp3,2020-06-20_16h35.36.768,TranslationElicitation_spa,3.2.4,Win32,60,55lvve0vwnrihv0rihqipejv1nfnr,,1,0,80,9,1,79
,,,,,,,,,,,,,,,,,,,,,,,,,,,,,,,,,,,return,4.552000046,,FALSE,,,,,,,114,bol,Catalan,Sounds/cat_bol.mp3,2020-06-20_16h35.36.768,TranslationElicitation_spa,3.2.4,Win32,60,55lvve0vwnrihv0rihqipejv1nfnr,4.552000046,1,0,80,9,1,79
,,,,,,,,,,,,,,,,,,,,,,,,,,,,,,,,,,,,,,,,,,,,,114,bol,Catalan,Sounds/cat_bol.mp3,2020-06-20_16h35.36.768,TranslationElicitation_spa,3.2.4,Win32,60,55lvve0vwnrihv0rihqipejv1nfnr,,1,0,80,9,1,79
,,,,,,,,,,,,,,,,,,,,,,,,,,,,,,,,,,,p,1.200000048,P,FALSE,,,,,,,164,patata,Catalan,Sounds/cat_patata.mp3,2020-06-20_16h35.36.768,TranslationElicitation_spa,3.2.4,Win32,60,55lvve0vwnrihv0rihqipejv1nfnr,,1,0,80,57,1,79
,,,,,,,,,,,,,,,,,,,,,,,,,,,,,,,,,,,a,1.266000032,PA,FALSE,,,,,,,164,patata,Catalan,Sounds/cat_patata.mp3,2020-06-20_16h35.36.768,TranslationElicitation_spa,3.2.4,Win32,60,55lvve0vwnrihv0rihqipejv1nfnr,,1,0,80,57,1,79
,,,,,,,,,,,,,,,,,,,,,,,,,,,,,,,,,,,t,1.416000128,PAT,FALSE,,,,,,,164,patata,Catalan,Sounds/cat_patata.mp3,2020-06-20_16h35.36.768,TranslationElicitation_spa,3.2.4,Win32,60,55lvve0vwnrihv0rihqipejv1nfnr,,1,0,80,57,1,79
,,,,,,,,,,,,,,,,,,,,,,,,,,,,,,,,,,,a,1.5,PATA,FALSE,,,,,,,164,patata,Catalan,Sounds/cat_patata.mp3,2020-06-20_16h35.36.768,TranslationElicitation_spa,3.2.4,Win32,60,55lvve0vwnrihv0rihqipejv1nfnr,,1,0,80,57,1,79
,,,,,,,,,,,,,,,,,,,,,,,,,,,,,,,,,,,t,1.650000095,PATAT,FALSE,,,,,,,164,patata,Catalan,Sounds/cat_patata.mp3,2020-06-20_16h35.36.768,TranslationElicitation_spa,3.2.4,Win32,60,55lvve0vwnrihv0rihqipejv1nfnr,,1,0,80,57,1,79
,,,,,,,,,,,,,,,,,,,,,,,,,,,,,,,,,,,a,1.816000223,PATATA,FALSE,,,,,,,164,patata,Catalan,Sounds/cat_patata.mp3,2020-06-20_16h35.36.768,TranslationElicitation_spa,3.2.4,Win32,60,55lvve0vwnrihv0rihqipejv1nfnr,,1,0,80,57,1,79
,,,,,,,,,,,,,,,,,,,,,,,,,,,,,,,,,,,return,2.23300004,,FALSE,,,,,,,164,patata,Catalan,Sounds/cat_patata.mp3,2020-06-20_16h35.36.768,TranslationElicitation_spa,3.2.4,Win32,60,55lvve0vwnrihv0rihqipejv1nfnr,2.23300004,1,0,80,57,1,79
,,,,,,,,,,,,,,,,,,,,,,,,,,,,,,,,,,,,,,,,,,,,,164,patata,Catalan,Sounds/cat_patata.mp3,2020-06-20_16h35.36.768,TranslationElicitation_spa,3.2.4,Win32,60,55lvve0vwnrihv0rihqipejv1nfnr,,1,0,80,57,1,79
,,,,,,,,,,,,,,,,,,,,,,,,,,,,,,,,,,,g,1.766000032,G,FALSE,,,,,,,144,gorra,Catalan,Sounds/cat_gorra.mp3,2020-06-20_16h35.36.768,TranslationElicitation_spa,3.2.4,Win32,60,55lvve0vwnrihv0rihqipejv1nfnr,,1,0,80,39,1,79
,,,,,,,,,,,,,,,,,,,,,,,,,,,,,,,,,,,o,1.933000088,GO,FALSE,,,,,,,144,gorra,Catalan,Sounds/cat_gorra.mp3,2020-06-20_16h35.36.768,TranslationElicitation_spa,3.2.4,Win32,60,55lvve0vwnrihv0rihqipejv1nfnr,,1,0,80,39,1,79
,,,,,,,,,,,,,,,,,,,,,,,,,,,,,,,,,,,r,2.032999992,GOR,FALSE,,,,,,,144,gorra,Catalan,Sounds/cat_gorra.mp3,2020-06-20_16h35.36.768,TranslationElicitation_spa,3.2.4,Win32,60,55lvve0vwnrihv0rihqipejv1nfnr,,1,0,80,39,1,79
,,,,,,,,,,,,,,,,,,,,,,,,,,,,,,,,,,,r,2.348999977,GORR,FALSE,,,,,,,144,gorra,Catalan,Sounds/cat_gorra.mp3,2020-06-20_16h35.36.768,TranslationElicitation_spa,3.2.4,Win32,60,55lvve0vwnrihv0rihqipejv1nfnr,,1,0,80,39,1,79
,,,,,,,,,,,,,,,,,,,,,,,,,,,,,,,,,,,a,2.46600008,GORRA,FALSE,,,,,,,144,gorra,Catalan,Sounds/cat_gorra.mp3,2020-06-20_16h35.36.768,TranslationElicitation_spa,3.2.4,Win32,60,55lvve0vwnrihv0rihqipejv1nfnr,,1,0,80,39,1,79
,,,,,,,,,,,,,,,,,,,,,,,,,,,,,,,,,,,return,2.665999889,,FALSE,,,,,,,144,gorra,Catalan,Sounds/cat_gorra.mp3,2020-06-20_16h35.36.768,TranslationElicitation_spa,3.2.4,Win32,60,55lvve0vwnrihv0rihqipejv1nfnr,2.665999889,1,0,80,39,1,79
,,,,,,,,,,,,,,,,,,,,,,,,,,,,,,,,,,,,,,,,,,,,,144,gorra,Catalan,Sounds/cat_gorra.mp3,2020-06-20_16h35.36.768,TranslationElicitation_spa,3.2.4,Win32,60,55lvve0vwnrihv0rihqipejv1nfnr,,1,0,80,39,1,79
,,,,,,,,,,,,,,,,,,,,,,,,,,,,,,,,,,,p,2.733999968,P,FALSE,,,,,,,172,poma,Catalan,Sounds/cat_poma.mp3,2020-06-20_16h35.36.768,TranslationElicitation_spa,3.2.4,Win32,60,55lvve0vwnrihv0rihqipejv1nfnr,,1,0,80,64,1,79
,,,,,,,,,,,,,,,,,,,,,,,,,,,,,,,,,,,o,2.799999952,PO,FALSE,,,,,,,172,poma,Catalan,Sounds/cat_poma.mp3,2020-06-20_16h35.36.768,TranslationElicitation_spa,3.2.4,Win32,60,55lvve0vwnrihv0rihqipejv1nfnr,,1,0,80,64,1,79
,,,,,,,,,,,,,,,,,,,,,,,,,,,,,,,,,,,m,3.03399992,POM,FALSE,,,,,,,172,poma,Catalan,Sounds/cat_poma.mp3,2020-06-20_16h35.36.768,TranslationElicitation_spa,3.2.4,Win32,60,55lvve0vwnrihv0rihqipejv1nfnr,,1,0,80,64,1,79
,,,,,,,,,,,,,,,,,,,,,,,,,,,,,,,,,,,o,3.117000103,POMO,FALSE,,,,,,,172,poma,Catalan,Sounds/cat_poma.mp3,2020-06-20_16h35.36.768,TranslationElicitation_spa,3.2.4,Win32,60,55lvve0vwnrihv0rihqipejv1nfnr,,1,0,80,64,1,79
,,,,,,,,,,,,,,,,,,,,,,,,,,,,,,,,,,,return,3.549999952,,FALSE,,,,,,,172,poma,Catalan,Sounds/cat_poma.mp3,2020-06-20_16h35.36.768,TranslationElicitation_spa,3.2.4,Win32,60,55lvve0vwnrihv0rihqipejv1nfnr,3.549999952,1,0,80,64,1,79
,,,,,,,,,,,,,,,,,,,,,,,,,,,,,,,,,,,,,,,,,,,,,172,poma,Catalan,Sounds/cat_poma.mp3,2020-06-20_16h35.36.768,TranslationElicitation_spa,3.2.4,Win32,60,55lvve0vwnrihv0rihqipejv1nfnr,,1,0,80,64,1,79
,,,,,,,,,,,,,,,,,,,,,,,,,,,,,,,,,,,c,2.25,C,FALSE,,,,,,,176,samarreta,Catalan,Sounds/cat_samarreta.mp3,2020-06-20_16h35.36.768,TranslationElicitation_spa,3.2.4,Win32,60,55lvve0vwnrihv0rihqipejv1nfnr,,1,0,80,68,1,79
,,,,,,,,,,,,,,,,,,,,,,,,,,,,,,,,,,,h,2.382999897,CH,FALSE,,,,,,,176,samarreta,Catalan,Sounds/cat_samarreta.mp3,2020-06-20_16h35.36.768,TranslationElicitation_spa,3.2.4,Win32,60,55lvve0vwnrihv0rihqipejv1nfnr,,1,0,80,68,1,79
,,,,,,,,,,,,,,,,,,,,,,,,,,,,,,,,,,,a,2.549999952,CHA,FALSE,,,,,,,176,samarreta,Catalan,Sounds/cat_samarreta.mp3,2020-06-20_16h35.36.768,TranslationElicitation_spa,3.2.4,Win32,60,55lvve0vwnrihv0rihqipejv1nfnr,,1,0,80,68,1,79
,,,,,,,,,,,,,,,,,,,,,,,,,,,,,,,,,,,q,3.899999857,CHAQ,FALSE,,,,,,,176,samarreta,Catalan,Sounds/cat_samarreta.mp3,2020-06-20_16h35.36.768,TranslationElicitation_spa,3.2.4,Win32,60,55lvve0vwnrihv0rihqipejv1nfnr,,1,0,80,68,1,79
,,,,,,,,,,,,,,,,,,,,,,,,,,,,,,,,,,,u,4.250999928,CHAQU,FALSE,,,,,,,176,samarreta,Catalan,Sounds/cat_samarreta.mp3,2020-06-20_16h35.36.768,TranslationElicitation_spa,3.2.4,Win32,60,55lvve0vwnrihv0rihqipejv1nfnr,,1,0,80,68,1,79
,,,,,,,,,,,,,,,,,,,,,,,,,,,,,,,,,,,e,4.366999865,CHAQUE,FALSE,,,,,,,176,samarreta,Catalan,Sounds/cat_samarreta.mp3,2020-06-20_16h35.36.768,TranslationElicitation_spa,3.2.4,Win32,60,55lvve0vwnrihv0rihqipejv1nfnr,,1,0,80,68,1,79
,,,,,,,,,,,,,,,,,,,,,,,,,,,,,,,,,,,t,4.649999857,CHAQUET,FALSE,,,,,,,176,samarreta,Catalan,Sounds/cat_samarreta.mp3,2020-06-20_16h35.36.768,TranslationElicitation_spa,3.2.4,Win32,60,55lvve0vwnrihv0rihqipejv1nfnr,,1,0,80,68,1,79
,,,,,,,,,,,,,,,,,,,,,,,,,,,,,,,,,,,a,4.751999855,CHAQUETA,FALSE,,,,,,,176,samarreta,Catalan,Sounds/cat_samarreta.mp3,2020-06-20_16h35.36.768,TranslationElicitation_spa,3.2.4,Win32,60,55lvve0vwnrihv0rihqipejv1nfnr,,1,0,80,68,1,79
,,,,,,,,,,,,,,,,,,,,,,,,,,,,,,,,,,,return,5.184000015,,FALSE,,,,,,,176,samarreta,Catalan,Sounds/cat_samarreta.mp3,2020-06-20_16h35.36.768,TranslationElicitation_spa,3.2.4,Win32,60,55lvve0vwnrihv0rihqipejv1nfnr,5.184000015,1,0,80,68,1,79
,,,,,,,,,,,,,,,,,,,,,,,,,,,,,,,,,,,,,,,,,,,,,176,samarreta,Catalan,Sounds/cat_samarreta.mp3,2020-06-20_16h35.36.768,TranslationElicitation_spa,3.2.4,Win32,60,55lvve0vwnrihv0rihqipejv1nfnr,,1,0,80,68,1,79
,,,,,,,,,,,,,,,,,,,,,,,,,,,,,,,,,,,b,1.315000057,B,FALSE,,,,,,,111,bibero,Catalan,Sounds/cat_bibero.mp3,2020-06-20_16h35.36.768,TranslationElicitation_spa,3.2.4,Win32,60,55lvve0vwnrihv0rihqipejv1nfnr,,1,0,80,6,1,79
,,,,,,,,,,,,,,,,,,,,,,,,,,,,,,,,,,,i,1.416000128,BI,FALSE,,,,,,,111,bibero,Catalan,Sounds/cat_bibero.mp3,2020-06-20_16h35.36.768,TranslationElicitation_spa,3.2.4,Win32,60,55lvve0vwnrihv0rihqipejv1nfnr,,1,0,80,6,1,79
,,,,,,,,,,,,,,,,,,,,,,,,,,,,,,,,,,,b,1.732000113,BIB,FALSE,,,,,,,111,bibero,Catalan,Sounds/cat_bibero.mp3,2020-06-20_16h35.36.768,TranslationElicitation_spa,3.2.4,Win32,60,55lvve0vwnrihv0rihqipejv1nfnr,,1,0,80,6,1,79
,,,,,,,,,,,,,,,,,,,,,,,,,,,,,,,,,,,e,1.833000183,BIBE,FALSE,,,,,,,111,bibero,Catalan,Sounds/cat_bibero.mp3,2020-06-20_16h35.36.768,TranslationElicitation_spa,3.2.4,Win32,60,55lvve0vwnrihv0rihqipejv1nfnr,,1,0,80,6,1,79
,,,,,,,,,,,,,,,,,,,,,,,,,,,,,,,,,,,r,1.899000168,BIBER,FALSE,,,,,,,111,bibero,Catalan,Sounds/cat_bibero.mp3,2020-06-20_16h35.36.768,TranslationElicitation_spa,3.2.4,Win32,60,55lvve0vwnrihv0rihqipejv1nfnr,,1,0,80,6,1,79
,,,,,,,,,,,,,,,,,,,,,,,,,,,,,,,,,,,apostrophe,2.249000072,BIBER,FALSE,,,,,,,111,bibero,Catalan,Sounds/cat_bibero.mp3,2020-06-20_16h35.36.768,TranslationElicitation_spa,3.2.4,Win32,60,55lvve0vwnrihv0rihqipejv1nfnr,,1,0,80,6,1,79
,,,,,,,,,,,,,,,,,,,,,,,,,,,,,,,,,,,o,2.46600008,BIBERÓ,FALSE,,,,,,,111,bibero,Catalan,Sounds/cat_bibero.mp3,2020-06-20_16h35.36.768,TranslationElicitation_spa,3.2.4,Win32,60,55lvve0vwnrihv0rihqipejv1nfnr,,1,0,80,6,1,79
,,,,,,,,,,,,,,,,,,,,,,,,,,,,,,,,,,,n,2.565999985,BIBERÓN,FALSE,,,,,,,111,bibero,Catalan,Sounds/cat_bibero.mp3,2020-06-20_16h35.36.768,TranslationElicitation_spa,3.2.4,Win32,60,55lvve0vwnrihv0rihqipejv1nfnr,,1,0,80,6,1,79
,,,,,,,,,,,,,,,,,,,,,,,,,,,,,,,,,,,return,2.999000072,,FALSE,,,,,,,111,bibero,Catalan,Sounds/cat_bibero.mp3,2020-06-20_16h35.36.768,TranslationElicitation_spa,3.2.4,Win32,60,55lvve0vwnrihv0rihqipejv1nfnr,2.999000072,1,0,80,6,1,79
,,,,,,,,,,,,,,,,,,,,,,,,,,,,,,,,,,,,,,,,,,,,,111,bibero,Catalan,Sounds/cat_bibero.mp3,2020-06-20_16h35.36.768,TranslationElicitation_spa,3.2.4,Win32,60,55lvve0vwnrihv0rihqipejv1nfnr,,1,0,80,6,1,79
,,,,,,,,,,,,,,,,,,,,,,,,,,,,,,,,,,,c,1.515999794,C,FALSE,,,,,,,123,cavall,Catalan,Sounds/cat_cavall.mp3,2020-06-20_16h35.36.768,TranslationElicitation_spa,3.2.4,Win32,60,55lvve0vwnrihv0rihqipejv1nfnr,,1,0,80,18,1,79
,,,,,,,,,,,,,,,,,,,,,,,,,,,,,,,,,,,a,1.582999945,CA,FALSE,,,,,,,123,cavall,Catalan,Sounds/cat_cavall.mp3,2020-06-20_16h35.36.768,TranslationElicitation_spa,3.2.4,Win32,60,55lvve0vwnrihv0rihqipejv1nfnr,,1,0,80,18,1,79
,,,,,,,,,,,,,,,,,,,,,,,,,,,,,,,,,,,b,1.732999802,CAB,FALSE,,,,,,,123,cavall,Catalan,Sounds/cat_cavall.mp3,2020-06-20_16h35.36.768,TranslationElicitation_spa,3.2.4,Win32,60,55lvve0vwnrihv0rihqipejv1nfnr,,1,0,80,18,1,79
,,,,,,,,,,,,,,,,,,,,,,,,,,,,,,,,,,,a,1.832999945,CABA,FALSE,,,,,,,123,cavall,Catalan,Sounds/cat_cavall.mp3,2020-06-20_16h35.36.768,TranslationElicitation_spa,3.2.4,Win32,60,55lvve0vwnrihv0rihqipejv1nfnr,,1,0,80,18,1,79
,,,,,,,,,,,,,,,,,,,,,,,,,,,,,,,,,,,l,1.915999889,CABAL,FALSE,,,,,,,123,cavall,Catalan,Sounds/cat_cavall.mp3,2020-06-20_16h35.36.768,TranslationElicitation_spa,3.2.4,Win32,60,55lvve0vwnrihv0rihqipejv1nfnr,,1,0,80,18,1,79
,,,,,,,,,,,,,,,,,,,,,,,,,,,,,,,,,,,l,2.082999945,CABALL,FALSE,,,,,,,123,cavall,Catalan,Sounds/cat_cavall.mp3,2020-06-20_16h35.36.768,TranslationElicitation_spa,3.2.4,Win32,60,55lvve0vwnrihv0rihqipejv1nfnr,,1,0,80,18,1,79
,,,,,,,,,,,,,,,,,,,,,,,,,,,,,,,,,,,o,2.282999992,CABALLO,FALSE,,,,,,,123,cavall,Catalan,Sounds/cat_cavall.mp3,2020-06-20_16h35.36.768,TranslationElicitation_spa,3.2.4,Win32,60,55lvve0vwnrihv0rihqipejv1nfnr,,1,0,80,18,1,79
,,,,,,,,,,,,,,,,,,,,,,,,,,,,,,,,,,,return,2.565999985,,FALSE,,,,,,,123,cavall,Catalan,Sounds/cat_cavall.mp3,2020-06-20_16h35.36.768,TranslationElicitation_spa,3.2.4,Win32,60,55lvve0vwnrihv0rihqipejv1nfnr,2.565999985,1,0,80,18,1,79
,,,,,,,,,,,,,,,,,,,,,,,,,,,,,,,,,,,,,,,,,,,,,123,cavall,Catalan,Sounds/cat_cavall.mp3,2020-06-20_16h35.36.768,TranslationElicitation_spa,3.2.4,Win32,60,55lvve0vwnrihv0rihqipejv1nfnr,,1,0,80,18,1,79
,,,,,,,,,,,,,,,,,,,,,,,,,,,,,,,,,,,g,3.101000071,G,FALSE,,,,,,,145,got,Catalan,Sounds/cat_got.mp3,2020-06-20_16h35.36.768,TranslationElicitation_spa,3.2.4,Win32,60,55lvve0vwnrihv0rihqipejv1nfnr,,1,0,80,40,1,79
,,,,,,,,,,,,,,,,,,,,,,,,,,,,,,,,,,,o,4.118000031,GO,FALSE,,,,,,,145,got,Catalan,Sounds/cat_got.mp3,2020-06-20_16h35.36.768,TranslationElicitation_spa,3.2.4,Win32,60,55lvve0vwnrihv0rihqipejv1nfnr,,1,0,80,40,1,79
,,,,,,,,,,,,,,,,,,,,,,,,,,,,,,,,,,,t,4.252000093,GOT,FALSE,,,,,,,145,got,Catalan,Sounds/cat_got.mp3,2020-06-20_16h35.36.768,TranslationElicitation_spa,3.2.4,Win32,60,55lvve0vwnrihv0rihqipejv1nfnr,,1,0,80,40,1,79
,,,,,,,,,,,,,,,,,,,,,,,,,,,,,,,,,,,a,4.368000031,GOTA,FALSE,,,,,,,145,got,Catalan,Sounds/cat_got.mp3,2020-06-20_16h35.36.768,TranslationElicitation_spa,3.2.4,Win32,60,55lvve0vwnrihv0rihqipejv1nfnr,,1,0,80,40,1,79
,,,,,,,,,,,,,,,,,,,,,,,,,,,,,,,,,,,return,4.585000038,,FALSE,,,,,,,145,got,Catalan,Sounds/cat_got.mp3,2020-06-20_16h35.36.768,TranslationElicitation_spa,3.2.4,Win32,60,55lvve0vwnrihv0rihqipejv1nfnr,4.585000038,1,0,80,40,1,79
,,,,,,,,,,,,,,,,,,,,,,,,,,,,,,,,,,,,,,,,,,,,,145,got,Catalan,Sounds/cat_got.mp3,2020-06-20_16h35.36.768,TranslationElicitation_spa,3.2.4,Win32,60,55lvve0vwnrihv0rihqipejv1nfnr,,1,0,80,40,1,79
,,,,,,,,,,,,,,,,,,,,,,,,,,,,,,,,,,,c,1.43200016,C,FALSE,,,,,,,188,xocolata,Catalan,Sounds/cat_xocolata.mp3,2020-06-20_16h35.36.768,TranslationElicitation_spa,3.2.4,Win32,60,55lvve0vwnrihv0rihqipejv1nfnr,,1,0,80,78,1,79
,,,,,,,,,,,,,,,,,,,,,,,,,,,,,,,,,,,h,1.549000025,CH,FALSE,,,,,,,188,xocolata,Catalan,Sounds/cat_xocolata.mp3,2020-06-20_16h35.36.768,TranslationElicitation_spa,3.2.4,Win32,60,55lvve0vwnrihv0rihqipejv1nfnr,,1,0,80,78,1,79
,,,,,,,,,,,,,,,,,,,,,,,,,,,,,,,,,,,o,1.649000168,CHO,FALSE,,,,,,,188,xocolata,Catalan,Sounds/cat_xocolata.mp3,2020-06-20_16h35.36.768,TranslationElicitation_spa,3.2.4,Win32,60,55lvve0vwnrihv0rihqipejv1nfnr,,1,0,80,78,1,79
,,,,,,,,,,,,,,,,,,,,,,,,,,,,,,,,,,,c,1.71600008,CHOC,FALSE,,,,,,,188,xocolata,Catalan,Sounds/cat_xocolata.mp3,2020-06-20_16h35.36.768,TranslationElicitation_spa,3.2.4,Win32,60,55lvve0vwnrihv0rihqipejv1nfnr,,1,0,80,78,1,79
,,,,,,,,,,,,,,,,,,,,,,,,,,,,,,,,,,,o,1.816000223,CHOCO,FALSE,,,,,,,188,xocolata,Catalan,Sounds/cat_xocolata.mp3,2020-06-20_16h35.36.768,TranslationElicitation_spa,3.2.4,Win32,60,55lvve0vwnrihv0rihqipejv1nfnr,,1,0,80,78,1,79
,,,,,,,,,,,,,,,,,,,,,,,,,,,,,,,,,,,l,2.149000168,CHOCOL,FALSE,,,,,,,188,xocolata,Catalan,Sounds/cat_xocolata.mp3,2020-06-20_16h35.36.768,TranslationElicitation_spa,3.2.4,Win32,60,55lvve0vwnrihv0rihqipejv1nfnr,,1,0,80,78,1,79
,,,,,,,,,,,,,,,,,,,,,,,,,,,,,,,,,,,a,2.249000072,CHOCOLA,FALSE,,,,,,,188,xocolata,Catalan,Sounds/cat_xocolata.mp3,2020-06-20_16h35.36.768,TranslationElicitation_spa,3.2.4,Win32,60,55lvve0vwnrihv0rihqipejv1nfnr,,1,0,80,78,1,79
,,,,,,,,,,,,,,,,,,,,,,,,,,,,,,,,,,,t,2.433000088,CHOCOLAT,FALSE,,,,,,,188,xocolata,Catalan,Sounds/cat_xocolata.mp3,2020-06-20_16h35.36.768,TranslationElicitation_spa,3.2.4,Win32,60,55lvve0vwnrihv0rihqipejv1nfnr,,1,0,80,78,1,79
,,,,,,,,,,,,,,,,,,,,,,,,,,,,,,,,,,,e,2.499000072,CHOCOLATE,FALSE,,,,,,,188,xocolata,Catalan,Sounds/cat_xocolata.mp3,2020-06-20_16h35.36.768,TranslationElicitation_spa,3.2.4,Win32,60,55lvve0vwnrihv0rihqipejv1nfnr,,1,0,80,78,1,79
,,,,,,,,,,,,,,,,,,,,,,,,,,,,,,,,,,,return,2.933000088,,FALSE,,,,,,,188,xocolata,Catalan,Sounds/cat_xocolata.mp3,2020-06-20_16h35.36.768,TranslationElicitation_spa,3.2.4,Win32,60,55lvve0vwnrihv0rihqipejv1nfnr,2.933000088,1,0,80,78,1,79
,,,,,,,,,,,,,,,,,,,,,,,,,,,,,,,,,,,,,,,,,,,,,188,xocolata,Catalan,Sounds/cat_xocolata.mp3,2020-06-20_16h35.36.768,TranslationElicitation_spa,3.2.4,Win32,60,55lvve0vwnrihv0rihqipejv1nfnr,,1,0,80,78,1,79
,,,,,,,,,,,,,,,,,,,,,,,,,,,,,,,,,,,t,1.098999977,T,FALSE,,,,,,,181,tobogan,Catalan,Sounds/cat_tobogan.mp3,2020-06-20_16h35.36.768,TranslationElicitation_spa,3.2.4,Win32,60,55lvve0vwnrihv0rihqipejv1nfnr,,1,0,80,72,1,79
,,,,,,,,,,,,,,,,,,,,,,,,,,,,,,,,,,,o,1.197999954,TO,FALSE,,,,,,,181,tobogan,Catalan,Sounds/cat_tobogan.mp3,2020-06-20_16h35.36.768,TranslationElicitation_spa,3.2.4,Win32,60,55lvve0vwnrihv0rihqipejv1nfnr,,1,0,80,72,1,79
,,,,,,,,,,,,,,,,,,,,,,,,,,,,,,,,,,,b,1.431999922,TOB,FALSE,,,,,,,181,tobogan,Catalan,Sounds/cat_tobogan.mp3,2020-06-20_16h35.36.768,TranslationElicitation_spa,3.2.4,Win32,60,55lvve0vwnrihv0rihqipejv1nfnr,,1,0,80,72,1,79
,,,,,,,,,,,,,,,,,,,,,,,,,,,,,,,,,,,o,1.564999819,TOBO,FALSE,,,,,,,181,tobogan,Catalan,Sounds/cat_tobogan.mp3,2020-06-20_16h35.36.768,TranslationElicitation_spa,3.2.4,Win32,60,55lvve0vwnrihv0rihqipejv1nfnr,,1,0,80,72,1,79
,,,,,,,,,,,,,,,,,,,,,,,,,,,,,,,,,,,g,1.698999882,TOBOG,FALSE,,,,,,,181,tobogan,Catalan,Sounds/cat_tobogan.mp3,2020-06-20_16h35.36.768,TranslationElicitation_spa,3.2.4,Win32,60,55lvve0vwnrihv0rihqipejv1nfnr,,1,0,80,72,1,79
,,,,,,,,,,,,,,,,,,,,,,,,,,,,,,,,,,,a,2.131999969,TOBOGA,FALSE,,,,,,,181,tobogan,Catalan,Sounds/cat_tobogan.mp3,2020-06-20_16h35.36.768,TranslationElicitation_spa,3.2.4,Win32,60,55lvve0vwnrihv0rihqipejv1nfnr,,1,0,80,72,1,79
,,,,,,,,,,,,,,,,,,,,,,,,,,,,,,,,,,,n,2.231999874,TOBOGAN,FALSE,,,,,,,181,tobogan,Catalan,Sounds/cat_tobogan.mp3,2020-06-20_16h35.36.768,TranslationElicitation_spa,3.2.4,Win32,60,55lvve0vwnrihv0rihqipejv1nfnr,,1,0,80,72,1,79
,,,,,,,,,,,,,,,,,,,,,,,,,,,,,,,,,,,backspace,3.198999882,TOBOG,TRUE,,,,,,,181,tobogan,Catalan,Sounds/cat_tobogan.mp3,2020-06-20_16h35.36.768,TranslationElicitation_spa,3.2.4,Win32,60,55lvve0vwnrihv0rihqipejv1nfnr,,1,0,80,72,1,79
,,,,,,,,,,,,,,,,,,,,,,,,,,,,,,,,,,,backspace,3.349999905,TOB,TRUE,,,,,,,181,tobogan,Catalan,Sounds/cat_tobogan.mp3,2020-06-20_16h35.36.768,TranslationElicitation_spa,3.2.4,Win32,60,55lvve0vwnrihv0rihqipejv1nfnr,,1,0,80,72,1,79
,,,,,,,,,,,,,,,,,,,,,,,,,,,,,,,,,,,apostrophe,3.832999945,TOB,TRUE,,,,,,,181,tobogan,Catalan,Sounds/cat_tobogan.mp3,2020-06-20_16h35.36.768,TranslationElicitation_spa,3.2.4,Win32,60,55lvve0vwnrihv0rihqipejv1nfnr,,1,0,80,72,1,79
,,,,,,,,,,,,,,,,,,,,,,,,,,,,,,,,,,,a,3.98300004,TOBÁ,TRUE,,,,,,,181,tobogan,Catalan,Sounds/cat_tobogan.mp3,2020-06-20_16h35.36.768,TranslationElicitation_spa,3.2.4,Win32,60,55lvve0vwnrihv0rihqipejv1nfnr,,1,0,80,72,1,79
,,,,,,,,,,,,,,,,,,,,,,,,,,,,,,,,,,,n,4.066999912,TOBÁN,TRUE,,,,,,,181,tobogan,Catalan,Sounds/cat_tobogan.mp3,2020-06-20_16h35.36.768,TranslationElicitation_spa,3.2.4,Win32,60,55lvve0vwnrihv0rihqipejv1nfnr,,1,0,80,72,1,79
,,,,,,,,,,,,,,,,,,,,,,,,,,,,,,,,,,,backspace,4.916999817,TOB,TRUE,,,,,,,181,tobogan,Catalan,Sounds/cat_tobogan.mp3,2020-06-20_16h35.36.768,TranslationElicitation_spa,3.2.4,Win32,60,55lvve0vwnrihv0rihqipejv1nfnr,,1,0,80,72,1,79
,,,,,,,,,,,,,,,,,,,,,,,,,,,,,,,,,,,backspace,5.316999912,T,TRUE,,,,,,,181,tobogan,Catalan,Sounds/cat_tobogan.mp3,2020-06-20_16h35.36.768,TranslationElicitation_spa,3.2.4,Win32,60,55lvve0vwnrihv0rihqipejv1nfnr,,1,0,80,72,1,79
,,,,,,,,,,,,,,,,,,,,,,,,,,,,,,,,,,,b,6.100999832,TB,TRUE,,,,,,,181,tobogan,Catalan,Sounds/cat_tobogan.mp3,2020-06-20_16h35.36.768,TranslationElicitation_spa,3.2.4,Win32,60,55lvve0vwnrihv0rihqipejv1nfnr,,1,0,80,72,1,79
,,,,,,,,,,,,,,,,,,,,,,,,,,,,,,,,,,,backspace,6.950999975,,TRUE,,,,,,,181,tobogan,Catalan,Sounds/cat_tobogan.mp3,2020-06-20_16h35.36.768,TranslationElicitation_spa,3.2.4,Win32,60,55lvve0vwnrihv0rihqipejv1nfnr,,1,0,80,72,1,79
,,,,,,,,,,,,,,,,,,,,,,,,,,,,,,,,,,,t,7.901000023,T,TRUE,,,,,,,181,tobogan,Catalan,Sounds/cat_tobogan.mp3,2020-06-20_16h35.36.768,TranslationElicitation_spa,3.2.4,Win32,60,55lvve0vwnrihv0rihqipejv1nfnr,,1,0,80,72,1,79
,,,,,,,,,,,,,,,,,,,,,,,,,,,,,,,,,,,o,8.085000038,TO,TRUE,,,,,,,181,tobogan,Catalan,Sounds/cat_tobogan.mp3,2020-06-20_16h35.36.768,TranslationElicitation_spa,3.2.4,Win32,60,55lvve0vwnrihv0rihqipejv1nfnr,,1,0,80,72,1,79
,,,,,,,,,,,,,,,,,,,,,,,,,,,,,,,,,,,b,8.302999973,TOB,TRUE,,,,,,,181,tobogan,Catalan,Sounds/cat_tobogan.mp3,2020-06-20_16h35.36.768,TranslationElicitation_spa,3.2.4,Win32,60,55lvve0vwnrihv0rihqipejv1nfnr,,1,0,80,72,1,79
,,,,,,,,,,,,,,,,,,,,,,,,,,,,,,,,,,,o,8.450999975,TOBO,TRUE,,,,,,,181,tobogan,Catalan,Sounds/cat_tobogan.mp3,2020-06-20_16h35.36.768,TranslationElicitation_spa,3.2.4,Win32,60,55lvve0vwnrihv0rihqipejv1nfnr,,1,0,80,72,1,79
,,,,,,,,,,,,,,,,,,,,,,,,,,,,,,,,,,,g,8.65199995,TOBOG,TRUE,,,,,,,181,tobogan,Catalan,Sounds/cat_tobogan.mp3,2020-06-20_16h35.36.768,TranslationElicitation_spa,3.2.4,Win32,60,55lvve0vwnrihv0rihqipejv1nfnr,,1,0,80,72,1,79
,,,,,,,,,,,,,,,,,,,,,,,,,,,,,,,,,,,apostrophe,8.967999935,TOBOG,TRUE,,,,,,,181,tobogan,Catalan,Sounds/cat_tobogan.mp3,2020-06-20_16h35.36.768,TranslationElicitation_spa,3.2.4,Win32,60,55lvve0vwnrihv0rihqipejv1nfnr,,1,0,80,72,1,79
,,,,,,,,,,,,,,,,,,,,,,,,,,,,,,,,,,,a,9.167999983,TOBOGÁ,TRUE,,,,,,,181,tobogan,Catalan,Sounds/cat_tobogan.mp3,2020-06-20_16h35.36.768,TranslationElicitation_spa,3.2.4,Win32,60,55lvve0vwnrihv0rihqipejv1nfnr,,1,0,80,72,1,79
,,,,,,,,,,,,,,,,,,,,,,,,,,,,,,,,,,,n,9.301999807,TOBOGÁN,TRUE,,,,,,,181,tobogan,Catalan,Sounds/cat_tobogan.mp3,2020-06-20_16h35.36.768,TranslationElicitation_spa,3.2.4,Win32,60,55lvve0vwnrihv0rihqipejv1nfnr,,1,0,80,72,1,79
,,,,,,,,,,,,,,,,,,,,,,,,,,,,,,,,,,,return,9.801999807,,TRUE,,,,,,,181,tobogan,Catalan,Sounds/cat_tobogan.mp3,2020-06-20_16h35.36.768,TranslationElicitation_spa,3.2.4,Win32,60,55lvve0vwnrihv0rihqipejv1nfnr,9.801999807,1,0,80,72,1,79
,,,,,,,,,,,,,,,,,,,,,,,,,,,,,,,,,,,,,,,,,,,,,181,tobogan,Catalan,Sounds/cat_tobogan.mp3,2020-06-20_16h35.36.768,TranslationElicitation_spa,3.2.4,Win32,60,55lvve0vwnrihv0rihqipejv1nfnr,,1,0,80,72,1,79
,,,,,,,,,,,,,,,,,,,,,,,,,,,,,,,,,,,c,1.427999973,C,FALSE,,,,,,,127,cotxe,Catalan,Sounds/cat_cotxe.mp3,2020-06-20_16h35.36.768,TranslationElicitation_spa,3.2.4,Win32,60,55lvve0vwnrihv0rihqipejv1nfnr,,1,0,80,22,1,79
,,,,,,,,,,,,,,,,,,,,,,,,,,,,,,,,,,,o,1.578000069,CO,FALSE,,,,,,,127,cotxe,Catalan,Sounds/cat_cotxe.mp3,2020-06-20_16h35.36.768,TranslationElicitation_spa,3.2.4,Win32,60,55lvve0vwnrihv0rihqipejv1nfnr,,1,0,80,22,1,79
,,,,,,,,,,,,,,,,,,,,,,,,,,,,,,,,,,,c,1.828999996,COC,FALSE,,,,,,,127,cotxe,Catalan,Sounds/cat_cotxe.mp3,2020-06-20_16h35.36.768,TranslationElicitation_spa,3.2.4,Win32,60,55lvve0vwnrihv0rihqipejv1nfnr,,1,0,80,22,1,79
,,,,,,,,,,,,,,,,,,,,,,,,,,,,,,,,,,,h,2.012000084,COCH,FALSE,,,,,,,127,cotxe,Catalan,Sounds/cat_cotxe.mp3,2020-06-20_16h35.36.768,TranslationElicitation_spa,3.2.4,Win32,60,55lvve0vwnrihv0rihqipejv1nfnr,,1,0,80,22,1,79
,,,,,,,,,,,,,,,,,,,,,,,,,,,,,,,,,,,e,2.129000187,COCHE,FALSE,,,,,,,127,cotxe,Catalan,Sounds/cat_cotxe.mp3,2020-06-20_16h35.36.768,TranslationElicitation_spa,3.2.4,Win32,60,55lvve0vwnrihv0rihqipejv1nfnr,,1,0,80,22,1,79
,,,,,,,,,,,,,,,,,,,,,,,,,,,,,,,,,,,return,2.613000154,,FALSE,,,,,,,127,cotxe,Catalan,Sounds/cat_cotxe.mp3,2020-06-20_16h35.36.768,TranslationElicitation_spa,3.2.4,Win32,60,55lvve0vwnrihv0rihqipejv1nfnr,2.611999989,1,0,80,22,1,79
,,,,,,,,,,,,,,,,,,,,,,,,,,,,,,,,,,,,,,,,,,,,,127,cotxe,Catalan,Sounds/cat_cotxe.mp3,2020-06-20_16h35.36.768,TranslationElicitation_spa,3.2.4,Win32,60,55lvve0vwnrihv0rihqipejv1nfnr,,1,0,80,22,1,79
,,,,,,,,,,,,,,,,,,,,,,,,,,,,,,,,,,,a,2.68200016,A,FALSE,,,,,,,133,estruc,Catalan,Sounds/cat_estruc.mp3,2020-06-20_16h35.36.768,TranslationElicitation_spa,3.2.4,Win32,60,55lvve0vwnrihv0rihqipejv1nfnr,,1,0,80,28,1,79
,,,,,,,,,,,,,,,,,,,,,,,,,,,,,,,,,,,s,2.748000145,AS,FALSE,,,,,,,133,estruc,Catalan,Sounds/cat_estruc.mp3,2020-06-20_16h35.36.768,TranslationElicitation_spa,3.2.4,Win32,60,55lvve0vwnrihv0rihqipejv1nfnr,,1,0,80,28,1,79
,,,,,,,,,,,,,,,,,,,,,,,,,,,,,,,,,,,t,2.93200016,AST,FALSE,,,,,,,133,estruc,Catalan,Sounds/cat_estruc.mp3,2020-06-20_16h35.36.768,TranslationElicitation_spa,3.2.4,Win32,60,55lvve0vwnrihv0rihqipejv1nfnr,,1,0,80,28,1,79
,,,,,,,,,,,,,,,,,,,,,,,,,,,,,,,,,,,r,3.082000017,ASTR,FALSE,,,,,,,133,estruc,Catalan,Sounds/cat_estruc.mp3,2020-06-20_16h35.36.768,TranslationElicitation_spa,3.2.4,Win32,60,55lvve0vwnrihv0rihqipejv1nfnr,,1,0,80,28,1,79
,,,,,,,,,,,,,,,,,,,,,,,,,,,,,,,,,,,o,3.164999962,ASTRO,FALSE,,,,,,,133,estruc,Catalan,Sounds/cat_estruc.mp3,2020-06-20_16h35.36.768,TranslationElicitation_spa,3.2.4,Win32,60,55lvve0vwnrihv0rihqipejv1nfnr,,1,0,80,28,1,79
,,,,,,,,,,,,,,,,,,,,,,,,,,,,,,,,,,,s,3.381999969,ASTROS,FALSE,,,,,,,133,estruc,Catalan,Sounds/cat_estruc.mp3,2020-06-20_16h35.36.768,TranslationElicitation_spa,3.2.4,Win32,60,55lvve0vwnrihv0rihqipejv1nfnr,,1,0,80,28,1,79
,,,,,,,,,,,,,,,,,,,,,,,,,,,,,,,,,,,return,3.86500001,,FALSE,,,,,,,133,estruc,Catalan,Sounds/cat_estruc.mp3,2020-06-20_16h35.36.768,TranslationElicitation_spa,3.2.4,Win32,60,55lvve0vwnrihv0rihqipejv1nfnr,3.86500001,1,0,80,28,1,79
,,,,,,,,,,,,,,,,,,,,,,,,,,,,,,,,,,,,,,,,,,,,,133,estruc,Catalan,Sounds/cat_estruc.mp3,2020-06-20_16h35.36.768,TranslationElicitation_spa,3.2.4,Win32,60,55lvve0vwnrihv0rihqipejv1nfnr,,1,0,80,28,1,79
,,,,,,,,,,,,,,,,,,,,,,,,,,,,,,,,,,,m,1.71600008,M,FALSE,,,,,,,153,mico,Catalan,Sounds/cat_mico.mp3,2020-06-20_16h35.36.768,TranslationElicitation_spa,3.2.4,Win32,60,55lvve0vwnrihv0rihqipejv1nfnr,,1,0,80,47,1,79
,,,,,,,,,,,,,,,,,,,,,,,,,,,,,,,,,,,i,1.848999977,MI,FALSE,,,,,,,153,mico,Catalan,Sounds/cat_mico.mp3,2020-06-20_16h35.36.768,TranslationElicitation_spa,3.2.4,Win32,60,55lvve0vwnrihv0rihqipejv1nfnr,,1,0,80,47,1,79
,,,,,,,,,,,,,,,,,,,,,,,,,,,,,,,,,,,c,1.98300004,MIC,FALSE,,,,,,,153,mico,Catalan,Sounds/cat_mico.mp3,2020-06-20_16h35.36.768,TranslationElicitation_spa,3.2.4,Win32,60,55lvve0vwnrihv0rihqipejv1nfnr,,1,0,80,47,1,79
,,,,,,,,,,,,,,,,,,,,,,,,,,,,,,,,,,,r,2.21600008,MICR,FALSE,,,,,,,153,mico,Catalan,Sounds/cat_mico.mp3,2020-06-20_16h35.36.768,TranslationElicitation_spa,3.2.4,Win32,60,55lvve0vwnrihv0rihqipejv1nfnr,,1,0,80,47,1,79
,,,,,,,,,,,,,,,,,,,,,,,,,,,,,,,,,,,o,2.299999952,MICRO,FALSE,,,,,,,153,mico,Catalan,Sounds/cat_mico.mp3,2020-06-20_16h35.36.768,TranslationElicitation_spa,3.2.4,Win32,60,55lvve0vwnrihv0rihqipejv1nfnr,,1,0,80,47,1,79
,,,,,,,,,,,,,,,,,,,,,,,,,,,,,,,,,,,return,3.26699996,,FALSE,,,,,,,153,mico,Catalan,Sounds/cat_mico.mp3,2020-06-20_16h35.36.768,TranslationElicitation_spa,3.2.4,Win32,60,55lvve0vwnrihv0rihqipejv1nfnr,3.26699996,1,0,80,47,1,79
,,,,,,,,,,,,,,,,,,,,,,,,,,,,,,,,,,,,,,,,,,,,,153,mico,Catalan,Sounds/cat_mico.mp3,2020-06-20_16h35.36.768,TranslationElicitation_spa,3.2.4,Win32,60,55lvve0vwnrihv0rihqipejv1nfnr,,1,0,80,47,1,79
,,,,,,,,,,,,,,,,,,,,,,,,,,,,,,,,,,,p,1.616000175,P,FALSE,,,,,,,170,ploma,Catalan,Sounds/cat_ploma.mp3,2020-06-20_16h35.36.768,TranslationElicitation_spa,3.2.4,Win32,60,55lvve0vwnrihv0rihqipejv1nfnr,,1,0,80,62,1,79
,,,,,,,,,,,,,,,,,,,,,,,,,,,,,,,,,,,l,1.850000143,PL,FALSE,,,,,,,170,ploma,Catalan,Sounds/cat_ploma.mp3,2020-06-20_16h35.36.768,TranslationElicitation_spa,3.2.4,Win32,60,55lvve0vwnrihv0rihqipejv1nfnr,,1,0,80,62,1,79
,,,,,,,,,,,,,,,,,,,,,,,,,,,,,,,,,,,o,1.96600008,PLO,FALSE,,,,,,,170,ploma,Catalan,Sounds/cat_ploma.mp3,2020-06-20_16h35.36.768,TranslationElicitation_spa,3.2.4,Win32,60,55lvve0vwnrihv0rihqipejv1nfnr,,1,0,80,62,1,79
,,,,,,,,,,,,,,,,,,,,,,,,,,,,,,,,,,,m,2.200000048,PLOM,FALSE,,,,,,,170,ploma,Catalan,Sounds/cat_ploma.mp3,2020-06-20_16h35.36.768,TranslationElicitation_spa,3.2.4,Win32,60,55lvve0vwnrihv0rihqipejv1nfnr,,1,0,80,62,1,79
,,,,,,,,,,,,,,,,,,,,,,,,,,,,,,,,,,,o,2.25,PLOMO,FALSE,,,,,,,170,ploma,Catalan,Sounds/cat_ploma.mp3,2020-06-20_16h35.36.768,TranslationElicitation_spa,3.2.4,Win32,60,55lvve0vwnrihv0rihqipejv1nfnr,,1,0,80,62,1,79
,,,,,,,,,,,,,,,,,,,,,,,,,,,,,,,,,,,return,2.683000088,,FALSE,,,,,,,170,ploma,Catalan,Sounds/cat_ploma.mp3,2020-06-20_16h35.36.768,TranslationElicitation_spa,3.2.4,Win32,60,55lvve0vwnrihv0rihqipejv1nfnr,2.683000088,1,0,80,62,1,79
,,,,,,,,,,,,,,,,,,,,,,,,,,,,,,,,,,,,,,,,,,,,,170,ploma,Catalan,Sounds/cat_ploma.mp3,2020-06-20_16h35.36.768,TranslationElicitation_spa,3.2.4,Win32,60,55lvve0vwnrihv0rihqipejv1nfnr,,1,0,80,62,1,79
,,,,,,,,,,,,,,,,,,,,,,,,,,,,,,,,,,,m,1.265999794,M,FALSE,,,,,,,155,moneda,Catalan,Sounds/cat_moneda.mp3,2020-06-20_16h35.36.768,TranslationElicitation_spa,3.2.4,Win32,60,55lvve0vwnrihv0rihqipejv1nfnr,,1,0,80,49,1,79
,,,,,,,,,,,,,,,,,,,,,,,,,,,,,,,,,,,o,1.383999825,MO,FALSE,,,,,,,155,moneda,Catalan,Sounds/cat_moneda.mp3,2020-06-20_16h35.36.768,TranslationElicitation_spa,3.2.4,Win32,60,55lvve0vwnrihv0rihqipejv1nfnr,,1,0,80,49,1,79
,,,,,,,,,,,,,,,,,,,,,,,,,,,,,,,,,,,n,1.532999992,MON,FALSE,,,,,,,155,moneda,Catalan,Sounds/cat_moneda.mp3,2020-06-20_16h35.36.768,TranslationElicitation_spa,3.2.4,Win32,60,55lvve0vwnrihv0rihqipejv1nfnr,,1,0,80,49,1,79
,,,,,,,,,,,,,,,,,,,,,,,,,,,,,,,,,,,e,1.615999937,MONE,FALSE,,,,,,,155,moneda,Catalan,Sounds/cat_moneda.mp3,2020-06-20_16h35.36.768,TranslationElicitation_spa,3.2.4,Win32,60,55lvve0vwnrihv0rihqipejv1nfnr,,1,0,80,49,1,79
,,,,,,,,,,,,,,,,,,,,,,,,,,,,,,,,,,,d,1.765999794,MONED,FALSE,,,,,,,155,moneda,Catalan,Sounds/cat_moneda.mp3,2020-06-20_16h35.36.768,TranslationElicitation_spa,3.2.4,Win32,60,55lvve0vwnrihv0rihqipejv1nfnr,,1,0,80,49,1,79
,,,,,,,,,,,,,,,,,,,,,,,,,,,,,,,,,,,a,1.849999905,MONEDA,FALSE,,,,,,,155,moneda,Catalan,Sounds/cat_moneda.mp3,2020-06-20_16h35.36.768,TranslationElicitation_spa,3.2.4,Win32,60,55lvve0vwnrihv0rihqipejv1nfnr,,1,0,80,49,1,79
,,,,,,,,,,,,,,,,,,,,,,,,,,,,,,,,,,,return,2.215999842,,FALSE,,,,,,,155,moneda,Catalan,Sounds/cat_moneda.mp3,2020-06-20_16h35.36.768,TranslationElicitation_spa,3.2.4,Win32,60,55lvve0vwnrihv0rihqipejv1nfnr,2.215999842,1,0,80,49,1,79
,,,,,,,,,,,,,,,,,,,,,,,,,,,,,,,,,,,,,,,,,,,,,155,moneda,Catalan,Sounds/cat_moneda.mp3,2020-06-20_16h35.36.768,TranslationElicitation_spa,3.2.4,Win32,60,55lvve0vwnrihv0rihqipejv1nfnr,,1,0,80,49,1,79
,,,,,,,,,,,,,,,,,,,,,,,,,,,,,,,,,,,h,1.633999825,H,FALSE,,,,,,,135,formiga,Catalan,Sounds/cat_formiga.mp3,2020-06-20_16h35.36.768,TranslationElicitation_spa,3.2.4,Win32,60,55lvve0vwnrihv0rihqipejv1nfnr,,1,0,80,30,1,79
,,,,,,,,,,,,,,,,,,,,,,,,,,,,,,,,,,,o,1.75,HO,FALSE,,,,,,,135,formiga,Catalan,Sounds/cat_formiga.mp3,2020-06-20_16h35.36.768,TranslationElicitation_spa,3.2.4,Win32,60,55lvve0vwnrihv0rihqipejv1nfnr,,1,0,80,30,1,79
