consentKey.keys,consentKey.rt,languageL1Key.keys,languageL1Key.rt,languageL2,languageL2OralKey.keys,languageL2OralKey.rt,languageL2WrittenKey.keys,languageL2WrittenKey.rt,languageL3OralKey.keys,languageL3OralKey.rt,languageL3WrittenKey.keys,languageL3WrittenKey.rt,languageCatalanOralKey.keys,languageCatalanOralKey.rt,languageCatalanWrittenKey.keys,languageCatalanWrittenKey.rt,languageCatalanTimeKey.keys,languageCatalanTimeKey.rt,age,demoSexKey.keys,demoSexKey.rt,demoEducationKey.keys,demoEducationKey.rt,city,demoVisionKey.keys,demoVisionKey.rt,demoLanguageKey.keys,demoLanguageKey.rt,setupLocationKey.keys,setupLocationKey.rt,setupNoiseKey.keys,setupNoiseKey.rt,instructionsKeys.keys,instructionsKeys.rt,keyPressed,keyPressTime,inputText,error,trials_practice.thisRepN,trials_practice.thisTrialN,trials_practice.thisN,trials_practice.thisIndex,trials_practice.ran,trials_practice.order,trial_id,word,test_language,soundfile,date,expName,psychopyVersion,OS,frameRate,participant,trialOffset,trials.thisRepN,trials.thisTrialN,trials.thisN,trials.thisIndex,trials.ran,trials.order
space,0.938999891,e,3.47699976,,3,3.423999786,4,2.739000082,,,,,1,2.391000032,1,1.000999928,1,1.594000101,24,m,1.485999823,4,1.953999996,ESPAÑA,n,2.904999971,n,2.122999907,1,1.410000086,1,1.210999966,space,3.162999868,space,1.825000048, ,FALSE,1,0,5,4,1,4,179,tigre,Catalan,Sounds/cat_tigre.mp3,2020-06-20_16h49.30.265,TranslationElicitation_spa,3.2.4,Win32,60,55lvve0vwnrihv0rihqipejv1nfnr,,,,,,,
,,,,,,,,,,,,,,,,,,,,,,,,,,,,,,,,,,,space,2.85800004,  ,FALSE,1,0,5,4,1,4,179,tigre,Catalan,Sounds/cat_tigre.mp3,2020-06-20_16h49.30.265,TranslationElicitation_spa,3.2.4,Win32,60,55lvve0vwnrihv0rihqipejv1nfnr,,,,,,,
,,,,,,,,,,,,,,,,,,,,,,,,,,,,,,,,,,,t,4.476000071,  T,FALSE,1,0,5,4,1,4,179,tigre,Catalan,Sounds/cat_tigre.mp3,2020-06-20_16h49.30.265,TranslationElicitation_spa,3.2.4,Win32,60,55lvve0vwnrihv0rihqipejv1nfnr,,,,,,,
,,,,,,,,,,,,,,,,,,,,,,,,,,,,,,,,,,,i,4.65899992,  TI,FALSE,1,0,5,4,1,4,179,tigre,Catalan,Sounds/cat_tigre.mp3,2020-06-20_16h49.30.265,TranslationElicitation_spa,3.2.4,Win32,60,55lvve0vwnrihv0rihqipejv1nfnr,,,,,,,
,,,,,,,,,,,,,,,,,,,,,,,,,,,,,,,,,,,g,4.778000116,  TIG,FALSE,1,0,5,4,1,4,179,tigre,Catalan,Sounds/cat_tigre.mp3,2020-06-20_16h49.30.265,TranslationElicitation_spa,3.2.4,Win32,60,55lvve0vwnrihv0rihqipejv1nfnr,,,,,,,
,,,,,,,,,,,,,,,,,,,,,,,,,,,,,,,,,,,r,4.993000031,  TIGR,FALSE,1,0,5,4,1,4,179,tigre,Catalan,Sounds/cat_tigre.mp3,2020-06-20_16h49.30.265,TranslationElicitation_spa,3.2.4,Win32,60,55lvve0vwnrihv0rihqipejv1nfnr,,,,,,,
,,,,,,,,,,,,,,,,,,,,,,,,,,,,,,,,,,,e,5.092999935,  TIGRE,FALSE,1,0,5,4,1,4,179,tigre,Catalan,Sounds/cat_tigre.mp3,2020-06-20_16h49.30.265,TranslationElicitation_spa,3.2.4,Win32,60,55lvve0vwnrihv0rihqipejv1nfnr,,,,,,,
,,,,,,,,,,,,,,,,,,,,,,,,,,,,,,,,,,,return,6.143000126,,FALSE,1,0,5,4,1,4,179,tigre,Catalan,Sounds/cat_tigre.mp3,2020-06-20_16h49.30.265,TranslationElicitation_spa,3.2.4,Win32,60,55lvve0vwnrihv0rihqipejv1nfnr,6.143000126,,,,,,
,,,,,,,,,,,,,,,,,,,,,,,,,,,,,,,,,,,,,,,1,0,5,4,1,4,179,tigre,Catalan,Sounds/cat_tigre.mp3,2020-06-20_16h49.30.265,TranslationElicitation_spa,3.2.4,Win32,60,55lvve0vwnrihv0rihqipejv1nfnr,,,,,,,
,,,,,,,,,,,,,,,,,,,,,,,,,,,,,,,,,,,c,1.049000025,C,FALSE,1,0,5,1,1,4,147,jaqueta,Catalan,Sounds/cat_jaqueta.mp3,2020-06-20_16h49.30.265,TranslationElicitation_spa,3.2.4,Win32,60,55lvve0vwnrihv0rihqipejv1nfnr,,,,,,,
,,,,,,,,,,,,,,,,,,,,,,,,,,,,,,,,,,,h,1.43200016,CH,FALSE,1,0,5,1,1,4,147,jaqueta,Catalan,Sounds/cat_jaqueta.mp3,2020-06-20_16h49.30.265,TranslationElicitation_spa,3.2.4,Win32,60,55lvve0vwnrihv0rihqipejv1nfnr,,,,,,,
,,,,,,,,,,,,,,,,,,,,,,,,,,,,,,,,,,,a,1.482000113,CHA,FALSE,1,0,5,1,1,4,147,jaqueta,Catalan,Sounds/cat_jaqueta.mp3,2020-06-20_16h49.30.265,TranslationElicitation_spa,3.2.4,Win32,60,55lvve0vwnrihv0rihqipejv1nfnr,,,,,,,
,,,,,,,,,,,,,,,,,,,,,,,,,,,,,,,,,,,q,1.697999954,CHAQ,FALSE,1,0,5,1,1,4,147,jaqueta,Catalan,Sounds/cat_jaqueta.mp3,2020-06-20_16h49.30.265,TranslationElicitation_spa,3.2.4,Win32,60,55lvve0vwnrihv0rihqipejv1nfnr,,,,,,,
,,,,,,,,,,,,,,,,,,,,,,,,,,,,,,,,,,,u,1.94900012,CHAQU,FALSE,1,0,5,1,1,4,147,jaqueta,Catalan,Sounds/cat_jaqueta.mp3,2020-06-20_16h49.30.265,TranslationElicitation_spa,3.2.4,Win32,60,55lvve0vwnrihv0rihqipejv1nfnr,,,,,,,
,,,,,,,,,,,,,,,,,,,,,,,,,,,,,,,,,,,e,2.18200016,CHAQUE,FALSE,1,0,5,1,1,4,147,jaqueta,Catalan,Sounds/cat_jaqueta.mp3,2020-06-20_16h49.30.265,TranslationElicitation_spa,3.2.4,Win32,60,55lvve0vwnrihv0rihqipejv1nfnr,,,,,,,
,,,,,,,,,,,,,,,,,,,,,,,,,,,,,,,,,,,t,2.416000128,CHAQUET,FALSE,1,0,5,1,1,4,147,jaqueta,Catalan,Sounds/cat_jaqueta.mp3,2020-06-20_16h49.30.265,TranslationElicitation_spa,3.2.4,Win32,60,55lvve0vwnrihv0rihqipejv1nfnr,,,,,,,
,,,,,,,,,,,,,,,,,,,,,,,,,,,,,,,,,,,a,2.516000032,CHAQUETA,FALSE,1,0,5,1,1,4,147,jaqueta,Catalan,Sounds/cat_jaqueta.mp3,2020-06-20_16h49.30.265,TranslationElicitation_spa,3.2.4,Win32,60,55lvve0vwnrihv0rihqipejv1nfnr,,,,,,,
,,,,,,,,,,,,,,,,,,,,,,,,,,,,,,,,,,,return,3.148999929,,FALSE,1,0,5,1,1,4,147,jaqueta,Catalan,Sounds/cat_jaqueta.mp3,2020-06-20_16h49.30.265,TranslationElicitation_spa,3.2.4,Win32,60,55lvve0vwnrihv0rihqipejv1nfnr,3.148999929,,,,,,
,,,,,,,,,,,,,,,,,,,,,,,,,,,,,,,,,,,,,,,1,0,5,1,1,4,147,jaqueta,Catalan,Sounds/cat_jaqueta.mp3,2020-06-20_16h49.30.265,TranslationElicitation_spa,3.2.4,Win32,60,55lvve0vwnrihv0rihqipejv1nfnr,,,,,,,
,,,,,,,,,,,,,,,,,,,,,,,,,,,,,,,,,,,m,1.61500001,M,FALSE,1,0,5,2,1,4,159,onada,Catalan,Sounds/cat_onada.mp3,2020-06-20_16h49.30.265,TranslationElicitation_spa,3.2.4,Win32,60,55lvve0vwnrihv0rihqipejv1nfnr,,,,,,,
,,,,,,,,,,,,,,,,,,,,,,,,,,,,,,,,,,,a,1.832000017,MA,FALSE,1,0,5,2,1,4,159,onada,Catalan,Sounds/cat_onada.mp3,2020-06-20_16h49.30.265,TranslationElicitation_spa,3.2.4,Win32,60,55lvve0vwnrihv0rihqipejv1nfnr,,,,,,,
,,,,,,,,,,,,,,,,,,,,,,,,,,,,,,,,,,,n,1.933000088,MAN,FALSE,1,0,5,2,1,4,159,onada,Catalan,Sounds/cat_onada.mp3,2020-06-20_16h49.30.265,TranslationElicitation_spa,3.2.4,Win32,60,55lvve0vwnrihv0rihqipejv1nfnr,,,,,,,
,,,,,,,,,,,,,,,,,,,,,,,,,,,,,,,,,,,a,1.999000072,MANA,FALSE,1,0,5,2,1,4,159,onada,Catalan,Sounds/cat_onada.mp3,2020-06-20_16h49.30.265,TranslationElicitation_spa,3.2.4,Win32,60,55lvve0vwnrihv0rihqipejv1nfnr,,,,,,,
,,,,,,,,,,,,,,,,,,,,,,,,,,,,,,,,,,,d,2.183000088,MANAD,FALSE,1,0,5,2,1,4,159,onada,Catalan,Sounds/cat_onada.mp3,2020-06-20_16h49.30.265,TranslationElicitation_spa,3.2.4,Win32,60,55lvve0vwnrihv0rihqipejv1nfnr,,,,,,,
,,,,,,,,,,,,,,,,,,,,,,,,,,,,,,,,,,,a,2.282999992,MANADA,FALSE,1,0,5,2,1,4,159,onada,Catalan,Sounds/cat_onada.mp3,2020-06-20_16h49.30.265,TranslationElicitation_spa,3.2.4,Win32,60,55lvve0vwnrihv0rihqipejv1nfnr,,,,,,,
,,,,,,,,,,,,,,,,,,,,,,,,,,,,,,,,,,,return,3.416000128,,FALSE,1,0,5,2,1,4,159,onada,Catalan,Sounds/cat_onada.mp3,2020-06-20_16h49.30.265,TranslationElicitation_spa,3.2.4,Win32,60,55lvve0vwnrihv0rihqipejv1nfnr,3.416000128,,,,,,
,,,,,,,,,,,,,,,,,,,,,,,,,,,,,,,,,,,,,,,1,0,5,2,1,4,159,onada,Catalan,Sounds/cat_onada.mp3,2020-06-20_16h49.30.265,TranslationElicitation_spa,3.2.4,Win32,60,55lvve0vwnrihv0rihqipejv1nfnr,,,,,,,
,,,,,,,,,,,,,,,,,,,,,,,,,,,,,,,,,,,apostrophe,2.315999985,,FALSE,1,0,5,0,1,4,109,arbre,Catalan,Sounds/cat_arbre.mp3,2020-06-20_16h49.30.265,TranslationElicitation_spa,3.2.4,Win32,60,55lvve0vwnrihv0rihqipejv1nfnr,,,,,,,
,,,,,,,,,,,,,,,,,,,,,,,,,,,,,,,,,,,a,2.433000088,Á,FALSE,1,0,5,0,1,4,109,arbre,Catalan,Sounds/cat_arbre.mp3,2020-06-20_16h49.30.265,TranslationElicitation_spa,3.2.4,Win32,60,55lvve0vwnrihv0rihqipejv1nfnr,,,,,,,
,,,,,,,,,,,,,,,,,,,,,,,,,,,,,,,,,,,r,2.582999945,ÁR,FALSE,1,0,5,0,1,4,109,arbre,Catalan,Sounds/cat_arbre.mp3,2020-06-20_16h49.30.265,TranslationElicitation_spa,3.2.4,Win32,60,55lvve0vwnrihv0rihqipejv1nfnr,,,,,,,
,,,,,,,,,,,,,,,,,,,,,,,,,,,,,,,,,,,b,2.717999935,ÁRB,FALSE,1,0,5,0,1,4,109,arbre,Catalan,Sounds/cat_arbre.mp3,2020-06-20_16h49.30.265,TranslationElicitation_spa,3.2.4,Win32,60,55lvve0vwnrihv0rihqipejv1nfnr,,,,,,,
,,,,,,,,,,,,,,,,,,,,,,,,,,,,,,,,,,,o,2.867000103,ÁRBO,FALSE,1,0,5,0,1,4,109,arbre,Catalan,Sounds/cat_arbre.mp3,2020-06-20_16h49.30.265,TranslationElicitation_spa,3.2.4,Win32,60,55lvve0vwnrihv0rihqipejv1nfnr,,,,,,,
,,,,,,,,,,,,,,,,,,,,,,,,,,,,,,,,,,,l,3.100000143,ÁRBOL,FALSE,1,0,5,0,1,4,109,arbre,Catalan,Sounds/cat_arbre.mp3,2020-06-20_16h49.30.265,TranslationElicitation_spa,3.2.4,Win32,60,55lvve0vwnrihv0rihqipejv1nfnr,,,,,,,
,,,,,,,,,,,,,,,,,,,,,,,,,,,,,,,,,,,return,3.416000128,,FALSE,1,0,5,0,1,4,109,arbre,Catalan,Sounds/cat_arbre.mp3,2020-06-20_16h49.30.265,TranslationElicitation_spa,3.2.4,Win32,60,55lvve0vwnrihv0rihqipejv1nfnr,3.416000128,,,,,,
,,,,,,,,,,,,,,,,,,,,,,,,,,,,,,,,,,,,,,,1,0,5,0,1,4,109,arbre,Catalan,Sounds/cat_arbre.mp3,2020-06-20_16h49.30.265,TranslationElicitation_spa,3.2.4,Win32,60,55lvve0vwnrihv0rihqipejv1nfnr,,,,,,,
,,,,,,,,,,,,,,,,,,,,,,,,,,,,,,,,,,,p,1.648000002,P,FALSE,1,0,5,3,1,4,167,pingui,Catalan,Sounds/cat_pingui.mp3,2020-06-20_16h49.30.265,TranslationElicitation_spa,3.2.4,Win32,60,55lvve0vwnrihv0rihqipejv1nfnr,,,,,,,
,,,,,,,,,,,,,,,,,,,,,,,,,,,,,,,,,,,i,1.764999866,PI,FALSE,1,0,5,3,1,4,167,pingui,Catalan,Sounds/cat_pingui.mp3,2020-06-20_16h49.30.265,TranslationElicitation_spa,3.2.4,Win32,60,55lvve0vwnrihv0rihqipejv1nfnr,,,,,,,
,,,,,,,,,,,,,,,,,,,,,,,,,,,,,,,,,,,n,1.831999779,PIN,FALSE,1,0,5,3,1,4,167,pingui,Catalan,Sounds/cat_pingui.mp3,2020-06-20_16h49.30.265,TranslationElicitation_spa,3.2.4,Win32,60,55lvve0vwnrihv0rihqipejv1nfnr,,,,,,,
,,,,,,,,,,,,,,,,,,,,,,,,,,,,,,,,,,,g,1.998999834,PING,FALSE,1,0,5,3,1,4,167,pingui,Catalan,Sounds/cat_pingui.mp3,2020-06-20_16h49.30.265,TranslationElicitation_spa,3.2.4,Win32,60,55lvve0vwnrihv0rihqipejv1nfnr,,,,,,,
,,,,,,,,,,,,,,,,,,,,,,,,,,,,,,,,,,,u,2.581999779,PINGU,FALSE,1,0,5,3,1,4,167,pingui,Catalan,Sounds/cat_pingui.mp3,2020-06-20_16h49.30.265,TranslationElicitation_spa,3.2.4,Win32,60,55lvve0vwnrihv0rihqipejv1nfnr,,,,,,,
,,,,,,,,,,,,,,,,,,,,,,,,,,,,,,,,,,,apostrophe,2.648999929,PINGU,FALSE,1,0,5,3,1,4,167,pingui,Catalan,Sounds/cat_pingui.mp3,2020-06-20_16h49.30.265,TranslationElicitation_spa,3.2.4,Win32,60,55lvve0vwnrihv0rihqipejv1nfnr,,,,,,,
,,,,,,,,,,,,,,,,,,,,,,,,,,,,,,,,,,,i,3.582999945,PINGUÍ,FALSE,1,0,5,3,1,4,167,pingui,Catalan,Sounds/cat_pingui.mp3,2020-06-20_16h49.30.265,TranslationElicitation_spa,3.2.4,Win32,60,55lvve0vwnrihv0rihqipejv1nfnr,,,,,,,
,,,,,,,,,,,,,,,,,,,,,,,,,,,,,,,,,,,n,4.066999912,PINGUÍN,FALSE,1,0,5,3,1,4,167,pingui,Catalan,Sounds/cat_pingui.mp3,2020-06-20_16h49.30.265,TranslationElicitation_spa,3.2.4,Win32,60,55lvve0vwnrihv0rihqipejv1nfnr,,,,,,,
,,,,,,,,,,,,,,,,,,,,,,,,,,,,,,,,,,,o,4.199999809,PINGUÍNO,FALSE,1,0,5,3,1,4,167,pingui,Catalan,Sounds/cat_pingui.mp3,2020-06-20_16h49.30.265,TranslationElicitation_spa,3.2.4,Win32,60,55lvve0vwnrihv0rihqipejv1nfnr,,,,,,,
,,,,,,,,,,,,,,,,,,,,,,,,,,,,,,,,,,,backspace,4.949999809,PINGUÍ,TRUE,1,0,5,3,1,4,167,pingui,Catalan,Sounds/cat_pingui.mp3,2020-06-20_16h49.30.265,TranslationElicitation_spa,3.2.4,Win32,60,55lvve0vwnrihv0rihqipejv1nfnr,,,,,,,
,,,,,,,,,,,,,,,,,,,,,,,,,,,,,,,,,,,backspace,5.316999912,PING,TRUE,1,0,5,3,1,4,167,pingui,Catalan,Sounds/cat_pingui.mp3,2020-06-20_16h49.30.265,TranslationElicitation_spa,3.2.4,Win32,60,55lvve0vwnrihv0rihqipejv1nfnr,,,,,,,
,,,,,,,,,,,,,,,,,,,,,,,,,,,,,,,,,,,apostrophe,7.78399992,PING,TRUE,1,0,5,3,1,4,167,pingui,Catalan,Sounds/cat_pingui.mp3,2020-06-20_16h49.30.265,TranslationElicitation_spa,3.2.4,Win32,60,55lvve0vwnrihv0rihqipejv1nfnr,,,,,,,
,,,,,,,,,,,,,,,,,,,,,,,,,,,,,,,,,,,u,8.13499999,PINGÚ,TRUE,1,0,5,3,1,4,167,pingui,Catalan,Sounds/cat_pingui.mp3,2020-06-20_16h49.30.265,TranslationElicitation_spa,3.2.4,Win32,60,55lvve0vwnrihv0rihqipejv1nfnr,,,,,,,
,,,,,,,,,,,,,,,,,,,,,,,,,,,,,,,,,,,i,8.450999975,PINGÚI,TRUE,1,0,5,3,1,4,167,pingui,Catalan,Sounds/cat_pingui.mp3,2020-06-20_16h49.30.265,TranslationElicitation_spa,3.2.4,Win32,60,55lvve0vwnrihv0rihqipejv1nfnr,,,,,,,
,,,,,,,,,,,,,,,,,,,,,,,,,,,,,,,,,,,backspace,9.05099988,PING,TRUE,1,0,5,3,1,4,167,pingui,Catalan,Sounds/cat_pingui.mp3,2020-06-20_16h49.30.265,TranslationElicitation_spa,3.2.4,Win32,60,55lvve0vwnrihv0rihqipejv1nfnr,,,,,,,
,,,,,,,,,,,,,,,,,,,,,,,,,,,,,,,,,,,backspace,9.200999975,PI,TRUE,1,0,5,3,1,4,167,pingui,Catalan,Sounds/cat_pingui.mp3,2020-06-20_16h49.30.265,TranslationElicitation_spa,3.2.4,Win32,60,55lvve0vwnrihv0rihqipejv1nfnr,,,,,,,
,,,,,,,,,,,,,,,,,,,,,,,,,,,,,,,,,,,n,10.18499994,PIN,TRUE,1,0,5,3,1,4,167,pingui,Catalan,Sounds/cat_pingui.mp3,2020-06-20_16h49.30.265,TranslationElicitation_spa,3.2.4,Win32,60,55lvve0vwnrihv0rihqipejv1nfnr,,,,,,,
,,,,,,,,,,,,,,,,,,,,,,,,,,,,,,,,,,,g,10.51899981,PING,TRUE,1,0,5,3,1,4,167,pingui,Catalan,Sounds/cat_pingui.mp3,2020-06-20_16h49.30.265,TranslationElicitation_spa,3.2.4,Win32,60,55lvve0vwnrihv0rihqipejv1nfnr,,,,,,,
,,,,,,,,,,,,,,,,,,,,,,,,,,,,,,,,,,,u,10.63599992,PINGU,TRUE,1,0,5,3,1,4,167,pingui,Catalan,Sounds/cat_pingui.mp3,2020-06-20_16h49.30.265,TranslationElicitation_spa,3.2.4,Win32,60,55lvve0vwnrihv0rihqipejv1nfnr,,,,,,,
,,,,,,,,,,,,,,,,,,,,,,,,,,,,,,,,,,,i,10.78499985,PINGUI,TRUE,1,0,5,3,1,4,167,pingui,Catalan,Sounds/cat_pingui.mp3,2020-06-20_16h49.30.265,TranslationElicitation_spa,3.2.4,Win32,60,55lvve0vwnrihv0rihqipejv1nfnr,,,,,,,
,,,,,,,,,,,,,,,,,,,,,,,,,,,,,,,,,,,n,10.98599982,PINGUIN,TRUE,1,0,5,3,1,4,167,pingui,Catalan,Sounds/cat_pingui.mp3,2020-06-20_16h49.30.265,TranslationElicitation_spa,3.2.4,Win32,60,55lvve0vwnrihv0rihqipejv1nfnr,,,,,,,
,,,,,,,,,,,,,,,,,,,,,,,,,,,,,,,,,,,o,11.05199981,PINGUINO,TRUE,1,0,5,3,1,4,167,pingui,Catalan,Sounds/cat_pingui.mp3,2020-06-20_16h49.30.265,TranslationElicitation_spa,3.2.4,Win32,60,55lvve0vwnrihv0rihqipejv1nfnr,,,,,,,
,,,,,,,,,,,,,,,,,,,,,,,,,,,,,,,,,,,return,12.62199998,,TRUE,1,0,5,3,1,4,167,pingui,Catalan,Sounds/cat_pingui.mp3,2020-06-20_16h49.30.265,TranslationElicitation_spa,3.2.4,Win32,60,55lvve0vwnrihv0rihqipejv1nfnr,12.62199998,,,,,,
,,,,,,,,,,,,,,,,,,,,,,,,,,,,,,,,,,,,,,,1,0,5,3,1,4,167,pingui,Catalan,Sounds/cat_pingui.mp3,2020-06-20_16h49.30.265,TranslationElicitation_spa,3.2.4,Win32,60,55lvve0vwnrihv0rihqipejv1nfnr,,,,,,,
,,,,,,,,,,,,,,,,,,,,,,,,,,,,,,,,,,,c,2.208999872,C,FALSE,,,,,,,173,porc,Catalan,Sounds/cat_porc.mp3,2020-06-20_16h49.30.265,TranslationElicitation_spa,3.2.4,Win32,60,55lvve0vwnrihv0rihqipejv1nfnr,,1,0,80,65,1,79
,,,,,,,,,,,,,,,,,,,,,,,,,,,,,,,,,,,e,2.441999912,CE,FALSE,,,,,,,173,porc,Catalan,Sounds/cat_porc.mp3,2020-06-20_16h49.30.265,TranslationElicitation_spa,3.2.4,Win32,60,55lvve0vwnrihv0rihqipejv1nfnr,,1,0,80,65,1,79
,,,,,,,,,,,,,,,,,,,,,,,,,,,,,,,,,,,r,2.524999857,CER,FALSE,,,,,,,173,porc,Catalan,Sounds/cat_porc.mp3,2020-06-20_16h49.30.265,TranslationElicitation_spa,3.2.4,Win32,60,55lvve0vwnrihv0rihqipejv1nfnr,,1,0,80,65,1,79
,,,,,,,,,,,,,,,,,,,,,,,,,,,,,,,,,,,d,2.724999905,CERD,FALSE,,,,,,,173,porc,Catalan,Sounds/cat_porc.mp3,2020-06-20_16h49.30.265,TranslationElicitation_spa,3.2.4,Win32,60,55lvve0vwnrihv0rihqipejv1nfnr,,1,0,80,65,1,79
,,,,,,,,,,,,,,,,,,,,,,,,,,,,,,,,,,,o,2.791999817,CERDO,FALSE,,,,,,,173,porc,Catalan,Sounds/cat_porc.mp3,2020-06-20_16h49.30.265,TranslationElicitation_spa,3.2.4,Win32,60,55lvve0vwnrihv0rihqipejv1nfnr,,1,0,80,65,1,79
,,,,,,,,,,,,,,,,,,,,,,,,,,,,,,,,,,,return,3.325999975,,FALSE,,,,,,,173,porc,Catalan,Sounds/cat_porc.mp3,2020-06-20_16h49.30.265,TranslationElicitation_spa,3.2.4,Win32,60,55lvve0vwnrihv0rihqipejv1nfnr,3.325999975,1,0,80,65,1,79
,,,,,,,,,,,,,,,,,,,,,,,,,,,,,,,,,,,,,,,,,,,,,173,porc,Catalan,Sounds/cat_porc.mp3,2020-06-20_16h49.30.265,TranslationElicitation_spa,3.2.4,Win32,60,55lvve0vwnrihv0rihqipejv1nfnr,,1,0,80,65,1,79
,,,,,,,,,,,,,,,,,,,,,,,,,,,,,,,,,,,c,6.001000166,C,FALSE,,,,,,,128,cuc,Catalan,Sounds/cat_cuc.mp3,2020-06-20_16h49.30.265,TranslationElicitation_spa,3.2.4,Win32,60,55lvve0vwnrihv0rihqipejv1nfnr,,1,0,80,23,1,79
,,,,,,,,,,,,,,,,,,,,,,,,,,,,,,,,,,,o,6.151000023,CO,FALSE,,,,,,,128,cuc,Catalan,Sounds/cat_cuc.mp3,2020-06-20_16h49.30.265,TranslationElicitation_spa,3.2.4,Win32,60,55lvve0vwnrihv0rihqipejv1nfnr,,1,0,80,23,1,79
,,,,,,,,,,,,,,,,,,,,,,,,,,,,,,,,,,,c,6.267000198,COC,FALSE,,,,,,,128,cuc,Catalan,Sounds/cat_cuc.mp3,2020-06-20_16h49.30.265,TranslationElicitation_spa,3.2.4,Win32,60,55lvve0vwnrihv0rihqipejv1nfnr,,1,0,80,23,1,79
,,,,,,,,,,,,,,,,,,,,,,,,,,,,,,,,,,,i,6.601000071,COCI,FALSE,,,,,,,128,cuc,Catalan,Sounds/cat_cuc.mp3,2020-06-20_16h49.30.265,TranslationElicitation_spa,3.2.4,Win32,60,55lvve0vwnrihv0rihqipejv1nfnr,,1,0,80,23,1,79
,,,,,,,,,,,,,,,,,,,,,,,,,,,,,,,,,,,n,6.701000214,COCIN,FALSE,,,,,,,128,cuc,Catalan,Sounds/cat_cuc.mp3,2020-06-20_16h49.30.265,TranslationElicitation_spa,3.2.4,Win32,60,55lvve0vwnrihv0rihqipejv1nfnr,,1,0,80,23,1,79
,,,,,,,,,,,,,,,,,,,,,,,,,,,,,,,,,,,a,6.867000103,COCINA,FALSE,,,,,,,128,cuc,Catalan,Sounds/cat_cuc.mp3,2020-06-20_16h49.30.265,TranslationElicitation_spa,3.2.4,Win32,60,55lvve0vwnrihv0rihqipejv1nfnr,,1,0,80,23,1,79
,,,,,,,,,,,,,,,,,,,,,,,,,,,,,,,,,,,r,7.185000181,COCINAR,FALSE,,,,,,,128,cuc,Catalan,Sounds/cat_cuc.mp3,2020-06-20_16h49.30.265,TranslationElicitation_spa,3.2.4,Win32,60,55lvve0vwnrihv0rihqipejv1nfnr,,1,0,80,23,1,79
,,,,,,,,,,,,,,,,,,,,,,,,,,,,,,,,,,,return,7.685000181,,FALSE,,,,,,,128,cuc,Catalan,Sounds/cat_cuc.mp3,2020-06-20_16h49.30.265,TranslationElicitation_spa,3.2.4,Win32,60,55lvve0vwnrihv0rihqipejv1nfnr,7.685000181,1,0,80,23,1,79
,,,,,,,,,,,,,,,,,,,,,,,,,,,,,,,,,,,,,,,,,,,,,128,cuc,Catalan,Sounds/cat_cuc.mp3,2020-06-20_16h49.30.265,TranslationElicitation_spa,3.2.4,Win32,60,55lvve0vwnrihv0rihqipejv1nfnr,,1,0,80,23,1,79
,,,,,,,,,,,,,,,,,,,,,,,,,,,,,,,,,,,c,1.315999985,C,FALSE,,,,,,,188,xocolata,Catalan,Sounds/cat_xocolata.mp3,2020-06-20_16h49.30.265,TranslationElicitation_spa,3.2.4,Win32,60,55lvve0vwnrihv0rihqipejv1nfnr,,1,0,80,78,1,79
,,,,,,,,,,,,,,,,,,,,,,,,,,,,,,,,,,,h,1.400000095,CH,FALSE,,,,,,,188,xocolata,Catalan,Sounds/cat_xocolata.mp3,2020-06-20_16h49.30.265,TranslationElicitation_spa,3.2.4,Win32,60,55lvve0vwnrihv0rihqipejv1nfnr,,1,0,80,78,1,79
,,,,,,,,,,,,,,,,,,,,,,,,,,,,,,,,,,,o,1.5,CHO,FALSE,,,,,,,188,xocolata,Catalan,Sounds/cat_xocolata.mp3,2020-06-20_16h49.30.265,TranslationElicitation_spa,3.2.4,Win32,60,55lvve0vwnrihv0rihqipejv1nfnr,,1,0,80,78,1,79
,,,,,,,,,,,,,,,,,,,,,,,,,,,,,,,,,,,c,1.565999985,CHOC,FALSE,,,,,,,188,xocolata,Catalan,Sounds/cat_xocolata.mp3,2020-06-20_16h49.30.265,TranslationElicitation_spa,3.2.4,Win32,60,55lvve0vwnrihv0rihqipejv1nfnr,,1,0,80,78,1,79
,,,,,,,,,,,,,,,,,,,,,,,,,,,,,,,,,,,o,1.683000088,CHOCO,FALSE,,,,,,,188,xocolata,Catalan,Sounds/cat_xocolata.mp3,2020-06-20_16h49.30.265,TranslationElicitation_spa,3.2.4,Win32,60,55lvve0vwnrihv0rihqipejv1nfnr,,1,0,80,78,1,79
,,,,,,,,,,,,,,,,,,,,,,,,,,,,,,,,,,,l,2.266000032,CHOCOL,FALSE,,,,,,,188,xocolata,Catalan,Sounds/cat_xocolata.mp3,2020-06-20_16h49.30.265,TranslationElicitation_spa,3.2.4,Win32,60,55lvve0vwnrihv0rihqipejv1nfnr,,1,0,80,78,1,79
,,,,,,,,,,,,,,,,,,,,,,,,,,,,,,,,,,,a,2.349999905,CHOCOLA,FALSE,,,,,,,188,xocolata,Catalan,Sounds/cat_xocolata.mp3,2020-06-20_16h49.30.265,TranslationElicitation_spa,3.2.4,Win32,60,55lvve0vwnrihv0rihqipejv1nfnr,,1,0,80,78,1,79
,,,,,,,,,,,,,,,,,,,,,,,,,,,,,,,,,,,t,2.5,CHOCOLAT,FALSE,,,,,,,188,xocolata,Catalan,Sounds/cat_xocolata.mp3,2020-06-20_16h49.30.265,TranslationElicitation_spa,3.2.4,Win32,60,55lvve0vwnrihv0rihqipejv1nfnr,,1,0,80,78,1,79
,,,,,,,,,,,,,,,,,,,,,,,,,,,,,,,,,,,e,2.615999937,CHOCOLATE,FALSE,,,,,,,188,xocolata,Catalan,Sounds/cat_xocolata.mp3,2020-06-20_16h49.30.265,TranslationElicitation_spa,3.2.4,Win32,60,55lvve0vwnrihv0rihqipejv1nfnr,,1,0,80,78,1,79
,,,,,,,,,,,,,,,,,,,,,,,,,,,,,,,,,,,return,2.782999992,,FALSE,,,,,,,188,xocolata,Catalan,Sounds/cat_xocolata.mp3,2020-06-20_16h49.30.265,TranslationElicitation_spa,3.2.4,Win32,60,55lvve0vwnrihv0rihqipejv1nfnr,2.782999992,1,0,80,78,1,79
,,,,,,,,,,,,,,,,,,,,,,,,,,,,,,,,,,,,,,,,,,,,,188,xocolata,Catalan,Sounds/cat_xocolata.mp3,2020-06-20_16h49.30.265,TranslationElicitation_spa,3.2.4,Win32,60,55lvve0vwnrihv0rihqipejv1nfnr,,1,0,80,78,1,79
,,,,,,,,,,,,,,,,,,,,,,,,,,,,,,,,,,,j,2.55099988,J,FALSE,,,,,,,141,gerd,Catalan,Sounds/cat_gerd.mp3,2020-06-20_16h49.30.265,TranslationElicitation_spa,3.2.4,Win32,60,55lvve0vwnrihv0rihqipejv1nfnr,,1,0,80,36,1,79
,,,,,,,,,,,,,,,,,,,,,,,,,,,,,,,,,,,e,2.615999937,JE,FALSE,,,,,,,141,gerd,Catalan,Sounds/cat_gerd.mp3,2020-06-20_16h49.30.265,TranslationElicitation_spa,3.2.4,Win32,60,55lvve0vwnrihv0rihqipejv1nfnr,,1,0,80,36,1,79
,,,,,,,,,,,,,,,,,,,,,,,,,,,,,,,,,,,r,2.715999842,JER,FALSE,,,,,,,141,gerd,Catalan,Sounds/cat_gerd.mp3,2020-06-20_16h49.30.265,TranslationElicitation_spa,3.2.4,Win32,60,55lvve0vwnrihv0rihqipejv1nfnr,,1,0,80,36,1,79
,,,,,,,,,,,,,,,,,,,,,,,,,,,,,,,,,,,s,2.949999809,JERS,FALSE,,,,,,,141,gerd,Catalan,Sounds/cat_gerd.mp3,2020-06-20_16h49.30.265,TranslationElicitation_spa,3.2.4,Win32,60,55lvve0vwnrihv0rihqipejv1nfnr,,1,0,80,36,1,79
,,,,,,,,,,,,,,,,,,,,,,,,,,,,,,,,,,,e,3.015999794,JERSE,FALSE,,,,,,,141,gerd,Catalan,Sounds/cat_gerd.mp3,2020-06-20_16h49.30.265,TranslationElicitation_spa,3.2.4,Win32,60,55lvve0vwnrihv0rihqipejv1nfnr,,1,0,80,36,1,79
,,,,,,,,,,,,,,,,,,,,,,,,,,,,,,,,,,,y,3.382999897,JERSEY,FALSE,,,,,,,141,gerd,Catalan,Sounds/cat_gerd.mp3,2020-06-20_16h49.30.265,TranslationElicitation_spa,3.2.4,Win32,60,55lvve0vwnrihv0rihqipejv1nfnr,,1,0,80,36,1,79
,,,,,,,,,,,,,,,,,,,,,,,,,,,,,,,,,,,return,3.782999992,,FALSE,,,,,,,141,gerd,Catalan,Sounds/cat_gerd.mp3,2020-06-20_16h49.30.265,TranslationElicitation_spa,3.2.4,Win32,60,55lvve0vwnrihv0rihqipejv1nfnr,3.782999992,1,0,80,36,1,79
,,,,,,,,,,,,,,,,,,,,,,,,,,,,,,,,,,,,,,,,,,,,,141,gerd,Catalan,Sounds/cat_gerd.mp3,2020-06-20_16h49.30.265,TranslationElicitation_spa,3.2.4,Win32,60,55lvve0vwnrihv0rihqipejv1nfnr,,1,0,80,36,1,79
,,,,,,,,,,,,,,,,,,,,,,,,,,,,,,,,,,,c,1.383000135,C,FALSE,,,,,,,138,galeta,Catalan,Sounds/cat_galeta.mp3,2020-06-20_16h49.30.265,TranslationElicitation_spa,3.2.4,Win32,60,55lvve0vwnrihv0rihqipejv1nfnr,,1,0,80,33,1,79
,,,,,,,,,,,,,,,,,,,,,,,,,,,,,,,,,,,o,1.44900012,CO,FALSE,,,,,,,138,galeta,Catalan,Sounds/cat_galeta.mp3,2020-06-20_16h49.30.265,TranslationElicitation_spa,3.2.4,Win32,60,55lvve0vwnrihv0rihqipejv1nfnr,,1,0,80,33,1,79
,,,,,,,,,,,,,,,,,,,,,,,,,,,,,,,,,,,l,1.631999969,COL,FALSE,,,,,,,138,galeta,Catalan,Sounds/cat_galeta.mp3,2020-06-20_16h49.30.265,TranslationElicitation_spa,3.2.4,Win32,60,55lvve0vwnrihv0rihqipejv1nfnr,,1,0,80,33,1,79
,,,,,,,,,,,,,,,,,,,,,,,,,,,,,,,,,,,e,1.683000088,COLE,FALSE,,,,,,,138,galeta,Catalan,Sounds/cat_galeta.mp3,2020-06-20_16h49.30.265,TranslationElicitation_spa,3.2.4,Win32,60,55lvve0vwnrihv0rihqipejv1nfnr,,1,0,80,33,1,79
,,,,,,,,,,,,,,,,,,,,,,,,,,,,,,,,,,,t,1.766000032,COLET,FALSE,,,,,,,138,galeta,Catalan,Sounds/cat_galeta.mp3,2020-06-20_16h49.30.265,TranslationElicitation_spa,3.2.4,Win32,60,55lvve0vwnrihv0rihqipejv1nfnr,,1,0,80,33,1,79
,,,,,,,,,,,,,,,,,,,,,,,,,,,,,,,,,,,a,1.916000128,COLETA,FALSE,,,,,,,138,galeta,Catalan,Sounds/cat_galeta.mp3,2020-06-20_16h49.30.265,TranslationElicitation_spa,3.2.4,Win32,60,55lvve0vwnrihv0rihqipejv1nfnr,,1,0,80,33,1,79
,,,,,,,,,,,,,,,,,,,,,,,,,,,,,,,,,,,return,2.149000168,,FALSE,,,,,,,138,galeta,Catalan,Sounds/cat_galeta.mp3,2020-06-20_16h49.30.265,TranslationElicitation_spa,3.2.4,Win32,60,55lvve0vwnrihv0rihqipejv1nfnr,2.149000168,1,0,80,33,1,79
,,,,,,,,,,,,,,,,,,,,,,,,,,,,,,,,,,,,,,,,,,,,,138,galeta,Catalan,Sounds/cat_galeta.mp3,2020-06-20_16h49.30.265,TranslationElicitation_spa,3.2.4,Win32,60,55lvve0vwnrihv0rihqipejv1nfnr,,1,0,80,33,1,79
,,,,,,,,,,,,,,,,,,,,,,,,,,,,,,,,,,,o,1.465000153,O,FALSE,,,,,,,160,orella,Catalan,Sounds/cat_orella.mp3,2020-06-20_16h49.30.265,TranslationElicitation_spa,3.2.4,Win32,60,55lvve0vwnrihv0rihqipejv1nfnr,,1,0,80,53,1,79
,,,,,,,,,,,,,,,,,,,,,,,,,,,,,,,,,,,r,1.632000208,OR,FALSE,,,,,,,160,orella,Catalan,Sounds/cat_orella.mp3,2020-06-20_16h49.30.265,TranslationElicitation_spa,3.2.4,Win32,60,55lvve0vwnrihv0rihqipejv1nfnr,,1,0,80,53,1,79
,,,,,,,,,,,,,,,,,,,,,,,,,,,,,,,,,,,i,1.71600008,ORI,FALSE,,,,,,,160,orella,Catalan,Sounds/cat_orella.mp3,2020-06-20_16h49.30.265,TranslationElicitation_spa,3.2.4,Win32,60,55lvve0vwnrihv0rihqipejv1nfnr,,1,0,80,53,1,79
,,,,,,,,,,,,,,,,,,,,,,,,,,,,,,,,,,,l,1.94900012,ORIL,FALSE,,,,,,,160,orella,Catalan,Sounds/cat_orella.mp3,2020-06-20_16h49.30.265,TranslationElicitation_spa,3.2.4,Win32,60,55lvve0vwnrihv0rihqipejv1nfnr,,1,0,80,53,1,79
,,,,,,,,,,,,,,,,,,,,,,,,,,,,,,,,,,,l,2.066000223,ORILL,FALSE,,,,,,,160,orella,Catalan,Sounds/cat_orella.mp3,2020-06-20_16h49.30.265,TranslationElicitation_spa,3.2.4,Win32,60,55lvve0vwnrihv0rihqipejv1nfnr,,1,0,80,53,1,79
,,,,,,,,,,,,,,,,,,,,,,,,,,,,,,,,,,,a,2.19900012,ORILLA,FALSE,,,,,,,160,orella,Catalan,Sounds/cat_orella.mp3,2020-06-20_16h49.30.265,TranslationElicitation_spa,3.2.4,Win32,60,55lvve0vwnrihv0rihqipejv1nfnr,,1,0,80,53,1,79
,,,,,,,,,,,,,,,,,,,,,,,,,,,,,,,,,,,return,2.549000025,,FALSE,,,,,,,160,orella,Catalan,Sounds/cat_orella.mp3,2020-06-20_16h49.30.265,TranslationElicitation_spa,3.2.4,Win32,60,55lvve0vwnrihv0rihqipejv1nfnr,2.549000025,1,0,80,53,1,79
,,,,,,,,,,,,,,,,,,,,,,,,,,,,,,,,,,,,,,,,,,,,,160,orella,Catalan,Sounds/cat_orella.mp3,2020-06-20_16h49.30.265,TranslationElicitation_spa,3.2.4,Win32,60,55lvve0vwnrihv0rihqipejv1nfnr,,1,0,80,53,1,79
,,,,,,,,,,,,,,,,,,,,,,,,,,,,,,,,,,,c,1.464999914,C,FALSE,,,,,,,126,corona,Catalan,Sounds/cat_corona.mp3,2020-06-20_16h49.30.265,TranslationElicitation_spa,3.2.4,Win32,60,55lvve0vwnrihv0rihqipejv1nfnr,,1,0,80,21,1,79
,,,,,,,,,,,,,,,,,,,,,,,,,,,,,,,,,,,o,1.565000057,CO,FALSE,,,,,,,126,corona,Catalan,Sounds/cat_corona.mp3,2020-06-20_16h49.30.265,TranslationElicitation_spa,3.2.4,Win32,60,55lvve0vwnrihv0rihqipejv1nfnr,,1,0,80,21,1,79
,,,,,,,,,,,,,,,,,,,,,,,,,,,,,,,,,,,r,1.698999882,COR,FALSE,,,,,,,126,corona,Catalan,Sounds/cat_corona.mp3,2020-06-20_16h49.30.265,TranslationElicitation_spa,3.2.4,Win32,60,55lvve0vwnrihv0rihqipejv1nfnr,,1,0,80,21,1,79
,,,,,,,,,,,,,,,,,,,,,,,,,,,,,,,,,,,o,1.782999992,CORO,FALSE,,,,,,,126,corona,Catalan,Sounds/cat_corona.mp3,2020-06-20_16h49.30.265,TranslationElicitation_spa,3.2.4,Win32,60,55lvve0vwnrihv0rihqipejv1nfnr,,1,0,80,21,1,79
,,,,,,,,,,,,,,,,,,,,,,,,,,,,,,,,,,,n,1.881999969,CORON,FALSE,,,,,,,126,corona,Catalan,Sounds/cat_corona.mp3,2020-06-20_16h49.30.265,TranslationElicitation_spa,3.2.4,Win32,60,55lvve0vwnrihv0rihqipejv1nfnr,,1,0,80,21,1,79
,,,,,,,,,,,,,,,,,,,,,,,,,,,,,,,,,,,a,1.981999874,CORONA,FALSE,,,,,,,126,corona,Catalan,Sounds/cat_corona.mp3,2020-06-20_16h49.30.265,TranslationElicitation_spa,3.2.4,Win32,60,55lvve0vwnrihv0rihqipejv1nfnr,,1,0,80,21,1,79
,,,,,,,,,,,,,,,,,,,,,,,,,,,,,,,,,,,return,2.249000072,,FALSE,,,,,,,126,corona,Catalan,Sounds/cat_corona.mp3,2020-06-20_16h49.30.265,TranslationElicitation_spa,3.2.4,Win32,60,55lvve0vwnrihv0rihqipejv1nfnr,2.249000072,1,0,80,21,1,79
,,,,,,,,,,,,,,,,,,,,,,,,,,,,,,,,,,,,,,,,,,,,,126,corona,Catalan,Sounds/cat_corona.mp3,2020-06-20_16h49.30.265,TranslationElicitation_spa,3.2.4,Win32,60,55lvve0vwnrihv0rihqipejv1nfnr,,1,0,80,21,1,79
,,,,,,,,,,,,,,,,,,,,,,,,,,,,,,,,,,,g,1.565999985,G,FALSE,,,,,,,140,gat,Catalan,Sounds/cat_gat.mp3,2020-06-20_16h49.30.265,TranslationElicitation_spa,3.2.4,Win32,60,55lvve0vwnrihv0rihqipejv1nfnr,,1,0,80,35,1,79
,,,,,,,,,,,,,,,,,,,,,,,,,,,,,,,,,,,a,1.766000032,GA,FALSE,,,,,,,140,gat,Catalan,Sounds/cat_gat.mp3,2020-06-20_16h49.30.265,TranslationElicitation_spa,3.2.4,Win32,60,55lvve0vwnrihv0rihqipejv1nfnr,,1,0,80,35,1,79
,,,,,,,,,,,,,,,,,,,,,,,,,,,,,,,,,,,t,1.866000175,GAT,FALSE,,,,,,,140,gat,Catalan,Sounds/cat_gat.mp3,2020-06-20_16h49.30.265,TranslationElicitation_spa,3.2.4,Win32,60,55lvve0vwnrihv0rihqipejv1nfnr,,1,0,80,35,1,79
,,,,,,,,,,,,,,,,,,,,,,,,,,,,,,,,,,,o,1.98300004,GATO,FALSE,,,,,,,140,gat,Catalan,Sounds/cat_gat.mp3,2020-06-20_16h49.30.265,TranslationElicitation_spa,3.2.4,Win32,60,55lvve0vwnrihv0rihqipejv1nfnr,,1,0,80,35,1,79
,,,,,,,,,,,,,,,,,,,,,,,,,,,,,,,,,,,return,2.399000168,,FALSE,,,,,,,140,gat,Catalan,Sounds/cat_gat.mp3,2020-06-20_16h49.30.265,TranslationElicitation_spa,3.2.4,Win32,60,55lvve0vwnrihv0rihqipejv1nfnr,2.399000168,1,0,80,35,1,79
,,,,,,,,,,,,,,,,,,,,,,,,,,,,,,,,,,,,,,,,,,,,,140,gat,Catalan,Sounds/cat_gat.mp3,2020-06-20_16h49.30.265,TranslationElicitation_spa,3.2.4,Win32,60,55lvve0vwnrihv0rihqipejv1nfnr,,1,0,80,35,1,79
,,,,,,,,,,,,,,,,,,,,,,,,,,,,,,,,,,,c,1.453999996,C,FALSE,,,,,,,176,samarreta,Catalan,Sounds/cat_samarreta.mp3,2020-06-20_16h49.30.265,TranslationElicitation_spa,3.2.4,Win32,60,55lvve0vwnrihv0rihqipejv1nfnr,,1,0,80,68,1,79
,,,,,,,,,,,,,,,,,,,,,,,,,,,,,,,,,,,h,1.683000088,CH,FALSE,,,,,,,176,samarreta,Catalan,Sounds/cat_samarreta.mp3,2020-06-20_16h49.30.265,TranslationElicitation_spa,3.2.4,Win32,60,55lvve0vwnrihv0rihqipejv1nfnr,,1,0,80,68,1,79
,,,,,,,,,,,,,,,,,,,,,,,,,,,,,,,,,,,a,1.799000025,CHA,FALSE,,,,,,,176,samarreta,Catalan,Sounds/cat_samarreta.mp3,2020-06-20_16h49.30.265,TranslationElicitation_spa,3.2.4,Win32,60,55lvve0vwnrihv0rihqipejv1nfnr,,1,0,80,68,1,79
,,,,,,,,,,,,,,,,,,,,,,,,,,,,,,,,,,,q,2,CHAQ,FALSE,,,,,,,176,samarreta,Catalan,Sounds/cat_samarreta.mp3,2020-06-20_16h49.30.265,TranslationElicitation_spa,3.2.4,Win32,60,55lvve0vwnrihv0rihqipejv1nfnr,,1,0,80,68,1,79
,,,,,,,,,,,,,,,,,,,,,,,,,,,,,,,,,,,u,2.100000143,CHAQU,FALSE,,,,,,,176,samarreta,Catalan,Sounds/cat_samarreta.mp3,2020-06-20_16h49.30.265,TranslationElicitation_spa,3.2.4,Win32,60,55lvve0vwnrihv0rihqipejv1nfnr,,1,0,80,68,1,79
,,,,,,,,,,,,,,,,,,,,,,,,,,,,,,,,,,,e,2.183000088,CHAQUE,FALSE,,,,,,,176,samarreta,Catalan,Sounds/cat_samarreta.mp3,2020-06-20_16h49.30.265,TranslationElicitation_spa,3.2.4,Win32,60,55lvve0vwnrihv0rihqipejv1nfnr,,1,0,80,68,1,79
,,,,,,,,,,,,,,,,,,,,,,,,,,,,,,,,,,,t,2.400000095,CHAQUET,FALSE,,,,,,,176,samarreta,Catalan,Sounds/cat_samarreta.mp3,2020-06-20_16h49.30.265,TranslationElicitation_spa,3.2.4,Win32,60,55lvve0vwnrihv0rihqipejv1nfnr,,1,0,80,68,1,79
,,,,,,,,,,,,,,,,,,,,,,,,,,,,,,,,,,,a,2.522000074,CHAQUETA,FALSE,,,,,,,176,samarreta,Catalan,Sounds/cat_samarreta.mp3,2020-06-20_16h49.30.265,TranslationElicitation_spa,3.2.4,Win32,60,55lvve0vwnrihv0rihqipejv1nfnr,,1,0,80,68,1,79
,,,,,,,,,,,,,,,,,,,,,,,,,,,,,,,,,,,return,2.69900012,,FALSE,,,,,,,176,samarreta,Catalan,Sounds/cat_samarreta.mp3,2020-06-20_16h49.30.265,TranslationElicitation_spa,3.2.4,Win32,60,55lvve0vwnrihv0rihqipejv1nfnr,2.69900012,1,0,80,68,1,79
,,,,,,,,,,,,,,,,,,,,,,,,,,,,,,,,,,,,,,,,,,,,,176,samarreta,Catalan,Sounds/cat_samarreta.mp3,2020-06-20_16h49.30.265,TranslationElicitation_spa,3.2.4,Win32,60,55lvve0vwnrihv0rihqipejv1nfnr,,1,0,80,68,1,79
,,,,,,,,,,,,,,,,,,,,,,,,,,,,,,,,,,,t,1.181999922,T,FALSE,,,,,,,182,tomaquet,Catalan,Sounds/cat_tomaquet.mp3,2020-06-20_16h49.30.265,TranslationElicitation_spa,3.2.4,Win32,60,55lvve0vwnrihv0rihqipejv1nfnr,,1,0,80,73,1,79
,,,,,,,,,,,,,,,,,,,,,,,,,,,,,,,,,,,o,1.315999985,TO,FALSE,,,,,,,182,tomaquet,Catalan,Sounds/cat_tomaquet.mp3,2020-06-20_16h49.30.265,TranslationElicitation_spa,3.2.4,Win32,60,55lvve0vwnrihv0rihqipejv1nfnr,,1,0,80,73,1,79
,,,,,,,,,,,,,,,,,,,,,,,,,,,,,,,,,,,m,1.414999962,TOM,FALSE,,,,,,,182,tomaquet,Catalan,Sounds/cat_tomaquet.mp3,2020-06-20_16h49.30.265,TranslationElicitation_spa,3.2.4,Win32,60,55lvve0vwnrihv0rihqipejv1nfnr,,1,0,80,73,1,79
,,,,,,,,,,,,,,,,,,,,,,,,,,,,,,,,,,,a,1.665999889,TOMA,FALSE,,,,,,,182,tomaquet,Catalan,Sounds/cat_tomaquet.mp3,2020-06-20_16h49.30.265,TranslationElicitation_spa,3.2.4,Win32,60,55lvve0vwnrihv0rihqipejv1nfnr,,1,0,80,73,1,79
,,,,,,,,,,,,,,,,,,,,,,,,,,,,,,,,,,,t,1.815999985,TOMAT,FALSE,,,,,,,182,tomaquet,Catalan,Sounds/cat_tomaquet.mp3,2020-06-20_16h49.30.265,TranslationElicitation_spa,3.2.4,Win32,60,55lvve0vwnrihv0rihqipejv1nfnr,,1,0,80,73,1,79
,,,,,,,,,,,,,,,,,,,,,,,,,,,,,,,,,,,e,1.96999979,TOMATE,FALSE,,,,,,,182,tomaquet,Catalan,Sounds/cat_tomaquet.mp3,2020-06-20_16h49.30.265,TranslationElicitation_spa,3.2.4,Win32,60,55lvve0vwnrihv0rihqipejv1nfnr,,1,0,80,73,1,79
,,,,,,,,,,,,,,,,,,,,,,,,,,,,,,,,,,,return,2.248999834,,FALSE,,,,,,,182,tomaquet,Catalan,Sounds/cat_tomaquet.mp3,2020-06-20_16h49.30.265,TranslationElicitation_spa,3.2.4,Win32,60,55lvve0vwnrihv0rihqipejv1nfnr,2.248999834,1,0,80,73,1,79
,,,,,,,,,,,,,,,,,,,,,,,,,,,,,,,,,,,,,,,,,,,,,182,tomaquet,Catalan,Sounds/cat_tomaquet.mp3,2020-06-20_16h49.30.265,TranslationElicitation_spa,3.2.4,Win32,60,55lvve0vwnrihv0rihqipejv1nfnr,,1,0,80,73,1,79
,,,,,,,,,,,,,,,,,,,,,,,,,,,,,,,,,,,s,1.230999947,S,FALSE,,,,,,,124,cirera,Catalan,Sounds/cat_cirera.mp3,2020-06-20_16h49.30.265,TranslationElicitation_spa,3.2.4,Win32,60,55lvve0vwnrihv0rihqipejv1nfnr,,1,0,80,19,1,79
,,,,,,,,,,,,,,,,,,,,,,,,,,,,,,,,,,,i,1.315000057,SI,FALSE,,,,,,,124,cirera,Catalan,Sounds/cat_cirera.mp3,2020-06-20_16h49.30.265,TranslationElicitation_spa,3.2.4,Win32,60,55lvve0vwnrihv0rihqipejv1nfnr,,1,0,80,19,1,79
,,,,,,,,,,,,,,,,,,,,,,,,,,,,,,,,,,,r,1.548000097,SIR,FALSE,,,,,,,124,cirera,Catalan,Sounds/cat_cirera.mp3,2020-06-20_16h49.30.265,TranslationElicitation_spa,3.2.4,Win32,60,55lvve0vwnrihv0rihqipejv1nfnr,,1,0,80,19,1,79
,,,,,,,,,,,,,,,,,,,,,,,,,,,,,,,,,,,e,1.61500001,SIRE,FALSE,,,,,,,124,cirera,Catalan,Sounds/cat_cirera.mp3,2020-06-20_16h49.30.265,TranslationElicitation_spa,3.2.4,Win32,60,55lvve0vwnrihv0rihqipejv1nfnr,,1,0,80,19,1,79
,,,,,,,,,,,,,,,,,,,,,,,,,,,,,,,,,,,n,1.715000153,SIREN,FALSE,,,,,,,124,cirera,Catalan,Sounds/cat_cirera.mp3,2020-06-20_16h49.30.265,TranslationElicitation_spa,3.2.4,Win32,60,55lvve0vwnrihv0rihqipejv1nfnr,,1,0,80,19,1,79
,,,,,,,,,,,,,,,,,,,,,,,,,,,,,,,,,,,a,1.86500001,SIRENA,FALSE,,,,,,,124,cirera,Catalan,Sounds/cat_cirera.mp3,2020-06-20_16h49.30.265,TranslationElicitation_spa,3.2.4,Win32,60,55lvve0vwnrihv0rihqipejv1nfnr,,1,0,80,19,1,79
,,,,,,,,,,,,,,,,,,,,,,,,,,,,,,,,,,,return,2.082999945,,FALSE,,,,,,,124,cirera,Catalan,Sounds/cat_cirera.mp3,2020-06-20_16h49.30.265,TranslationElicitation_spa,3.2.4,Win32,60,55lvve0vwnrihv0rihqipejv1nfnr,2.082999945,1,0,80,19,1,79
,,,,,,,,,,,,,,,,,,,,,,,,,,,,,,,,,,,,,,,,,,,,,124,cirera,Catalan,Sounds/cat_cirera.mp3,2020-06-20_16h49.30.265,TranslationElicitation_spa,3.2.4,Win32,60,55lvve0vwnrihv0rihqipejv1nfnr,,1,0,80,19,1,79
,,,,,,,,,,,,,,,,,,,,,,,,,,,,,,,,,,,h,2.115999937,H,FALSE,,,,,,,136,forquilla,Catalan,Sounds/cat_forquilla.mp3,2020-06-20_16h49.30.265,TranslationElicitation_spa,3.2.4,Win32,60,55lvve0vwnrihv0rihqipejv1nfnr,,1,0,80,31,1,79
,,,,,,,,,,,,,,,,,,,,,,,,,,,,,,,,,,,o,2.197999954,HO,FALSE,,,,,,,136,forquilla,Catalan,Sounds/cat_forquilla.mp3,2020-06-20_16h49.30.265,TranslationElicitation_spa,3.2.4,Win32,60,55lvve0vwnrihv0rihqipejv1nfnr,,1,0,80,31,1,79
,,,,,,,,,,,,,,,,,,,,,,,,,,,,,,,,,,,r,2.315999985,HOR,FALSE,,,,,,,136,forquilla,Catalan,Sounds/cat_forquilla.mp3,2020-06-20_16h49.30.265,TranslationElicitation_spa,3.2.4,Win32,60,55lvve0vwnrihv0rihqipejv1nfnr,,1,0,80,31,1,79
,,,,,,,,,,,,,,,,,,,,,,,,,,,,,,,,,,,q,2.799000025,HORQ,FALSE,,,,,,,136,forquilla,Catalan,Sounds/cat_forquilla.mp3,2020-06-20_16h49.30.265,TranslationElicitation_spa,3.2.4,Win32,60,55lvve0vwnrihv0rihqipejv1nfnr,,1,0,80,31,1,79
,,,,,,,,,,,,,,,,,,,,,,,,,,,,,,,,,,,u,2.932999849,HORQU,FALSE,,,,,,,136,forquilla,Catalan,Sounds/cat_forquilla.mp3,2020-06-20_16h49.30.265,TranslationElicitation_spa,3.2.4,Win32,60,55lvve0vwnrihv0rihqipejv1nfnr,,1,0,80,31,1,79
,,,,,,,,,,,,,,,,,,,,,,,,,,,,,,,,,,,i,3.11500001,HORQUI,FALSE,,,,,,,136,forquilla,Catalan,Sounds/cat_forquilla.mp3,2020-06-20_16h49.30.265,TranslationElicitation_spa,3.2.4,Win32,60,55lvve0vwnrihv0rihqipejv1nfnr,,1,0,80,31,1,79
,,,,,,,,,,,,,,,,,,,,,,,,,,,,,,,,,,,l,3.299000025,HORQUIL,FALSE,,,,,,,136,forquilla,Catalan,Sounds/cat_forquilla.mp3,2020-06-20_16h49.30.265,TranslationElicitation_spa,3.2.4,Win32,60,55lvve0vwnrihv0rihqipejv1nfnr,,1,0,80,31,1,79
,,,,,,,,,,,,,,,,,,,,,,,,,,,,,,,,,,,l,3.802000046,HORQUILL,FALSE,,,,,,,136,forquilla,Catalan,Sounds/cat_forquilla.mp3,2020-06-20_16h49.30.265,TranslationElicitation_spa,3.2.4,Win32,60,55lvve0vwnrihv0rihqipejv1nfnr,,1,0,80,31,1,79
,,,,,,,,,,,,,,,,,,,,,,,,,,,,,,,,,,,a,3.934000015,HORQUILLA,FALSE,,,,,,,136,forquilla,Catalan,Sounds/cat_forquilla.mp3,2020-06-20_16h49.30.265,TranslationElicitation_spa,3.2.4,Win32,60,55lvve0vwnrihv0rihqipejv1nfnr,,1,0,80,31,1,79
,,,,,,,,,,,,,,,,,,,,,,,,,,,,,,,,,,,return,4.299999952,,FALSE,,,,,,,136,forquilla,Catalan,Sounds/cat_forquilla.mp3,2020-06-20_16h49.30.265,TranslationElicitation_spa,3.2.4,Win32,60,55lvve0vwnrihv0rihqipejv1nfnr,4.299999952,1,0,80,31,1,79
,,,,,,,,,,,,,,,,,,,,,,,,,,,,,,,,,,,,,,,,,,,,,136,forquilla,Catalan,Sounds/cat_forquilla.mp3,2020-06-20_16h49.30.265,TranslationElicitation_spa,3.2.4,Win32,60,55lvve0vwnrihv0rihqipejv1nfnr,,1,0,80,31,1,79
,,,,,,,,,,,,,,,,,,,,,,,,,,,,,,,,,,,t,1.032999992,T,FALSE,,,,,,,181,tobogan,Catalan,Sounds/cat_tobogan.mp3,2020-06-20_16h49.30.265,TranslationElicitation_spa,3.2.4,Win32,60,55lvve0vwnrihv0rihqipejv1nfnr,,1,0,80,72,1,79
,,,,,,,,,,,,,,,,,,,,,,,,,,,,,,,,,,,o,1.115999937,TO,FALSE,,,,,,,181,tobogan,Catalan,Sounds/cat_tobogan.mp3,2020-06-20_16h49.30.265,TranslationElicitation_spa,3.2.4,Win32,60,55lvve0vwnrihv0rihqipejv1nfnr,,1,0,80,72,1,79
,,,,,,,,,,,,,,,,,,,,,,,,,,,,,,,,,,,b,1.315999985,TOB,FALSE,,,,,,,181,tobogan,Catalan,Sounds/cat_tobogan.mp3,2020-06-20_16h49.30.265,TranslationElicitation_spa,3.2.4,Win32,60,55lvve0vwnrihv0rihqipejv1nfnr,,1,0,80,72,1,79
,,,,,,,,,,,,,,,,,,,,,,,,,,,,,,,,,,,o,1.398999929,TOBO,FALSE,,,,,,,181,tobogan,Catalan,Sounds/cat_tobogan.mp3,2020-06-20_16h49.30.265,TranslationElicitation_spa,3.2.4,Win32,60,55lvve0vwnrihv0rihqipejv1nfnr,,1,0,80,72,1,79
,,,,,,,,,,,,,,,,,,,,,,,,,,,,,,,,,,,g,1.548999786,TOBOG,FALSE,,,,,,,181,tobogan,Catalan,Sounds/cat_tobogan.mp3,2020-06-20_16h49.30.265,TranslationElicitation_spa,3.2.4,Win32,60,55lvve0vwnrihv0rihqipejv1nfnr,,1,0,80,72,1,79
,,,,,,,,,,,,,,,,,,,,,,,,,,,,,,,,,,,apostrophe,1.933999777,TOBOG,FALSE,,,,,,,181,tobogan,Catalan,Sounds/cat_tobogan.mp3,2020-06-20_16h49.30.265,TranslationElicitation_spa,3.2.4,Win32,60,55lvve0vwnrihv0rihqipejv1nfnr,,1,0,80,72,1,79
,,,,,,,,,,,,,,,,,,,,,,,,,,,,,,,,,,,a,2.115999937,TOBOGÁ,FALSE,,,,,,,181,tobogan,Catalan,Sounds/cat_tobogan.mp3,2020-06-20_16h49.30.265,TranslationElicitation_spa,3.2.4,Win32,60,55lvve0vwnrihv0rihqipejv1nfnr,,1,0,80,72,1,79
,,,,,,,,,,,,,,,,,,,,,,,,,,,,,,,,,,,n,2.25,TOBOGÁN,FALSE,,,,,,,181,tobogan,Catalan,Sounds/cat_tobogan.mp3,2020-06-20_16h49.30.265,TranslationElicitation_spa,3.2.4,Win32,60,55lvve0vwnrihv0rihqipejv1nfnr,,1,0,80,72,1,79
,,,,,,,,,,,,,,,,,,,,,,,,,,,,,,,,,,,return,2.831999779,,FALSE,,,,,,,181,tobogan,Catalan,Sounds/cat_tobogan.mp3,2020-06-20_16h49.30.265,TranslationElicitation_spa,3.2.4,Win32,60,55lvve0vwnrihv0rihqipejv1nfnr,2.831999779,1,0,80,72,1,79
,,,,,,,,,,,,,,,,,,,,,,,,,,,,,,,,,,,,,,,,,,,,,181,tobogan,Catalan,Sounds/cat_tobogan.mp3,2020-06-20_16h49.30.265,TranslationElicitation_spa,3.2.4,Win32,60,55lvve0vwnrihv0rihqipejv1nfnr,,1,0,80,72,1,79
,,,,,,,,,,,,,,,,,,,,,,,,,,,,,,,,,,,c,1.598999977,C,FALSE,,,,,,,112,bici,Catalan,Sounds/cat_bici.mp3,2020-06-20_16h49.30.265,TranslationElicitation_spa,3.2.4,Win32,60,55lvve0vwnrihv0rihqipejv1nfnr,,1,0,80,7,1,79
,,,,,,,,,,,,,,,,,,,,,,,,,,,,,,,,,,,i,1.632000208,CI,FALSE,,,,,,,112,bici,Catalan,Sounds/cat_bici.mp3,2020-06-20_16h49.30.265,TranslationElicitation_spa,3.2.4,Win32,60,55lvve0vwnrihv0rihqipejv1nfnr,,1,0,80,7,1,79
,,,,,,,,,,,,,,,,,,,,,,,,,,,,,,,,,,,backspace,2.43200016,,TRUE,,,,,,,112,bici,Catalan,Sounds/cat_bici.mp3,2020-06-20_16h49.30.265,TranslationElicitation_spa,3.2.4,Win32,60,55lvve0vwnrihv0rihqipejv1nfnr,,1,0,80,7,1,79
,,,,,,,,,,,,,,,,,,,,,,,,,,,,,,,,,,,b,2.799000025,B,TRUE,,,,,,,112,bici,Catalan,Sounds/cat_bici.mp3,2020-06-20_16h49.30.265,TranslationElicitation_spa,3.2.4,Win32,60,55lvve0vwnrihv0rihqipejv1nfnr,,1,0,80,7,1,79
,,,,,,,,,,,,,,,,,,,,,,,,,,,,,,,,,,,i,2.866000175,BI,TRUE,,,,,,,112,bici,Catalan,Sounds/cat_bici.mp3,2020-06-20_16h49.30.265,TranslationElicitation_spa,3.2.4,Win32,60,55lvve0vwnrihv0rihqipejv1nfnr,,1,0,80,7,1,79
,,,,,,,,,,,,,,,,,,,,,,,,,,,,,,,,,,,c,3.067000151,BIC,TRUE,,,,,,,112,bici,Catalan,Sounds/cat_bici.mp3,2020-06-20_16h49.30.265,TranslationElicitation_spa,3.2.4,Win32,60,55lvve0vwnrihv0rihqipejv1nfnr,,1,0,80,7,1,79
,,,,,,,,,,,,,,,,,,,,,,,,,,,,,,,,,,,i,3.132000208,BICI,TRUE,,,,,,,112,bici,Catalan,Sounds/cat_bici.mp3,2020-06-20_16h49.30.265,TranslationElicitation_spa,3.2.4,Win32,60,55lvve0vwnrihv0rihqipejv1nfnr,,1,0,80,7,1,79
,,,,,,,,,,,,,,,,,,,,,,,,,,,,,,,,,,,l,3.350000143,BICIL,TRUE,,,,,,,112,bici,Catalan,Sounds/cat_bici.mp3,2020-06-20_16h49.30.265,TranslationElicitation_spa,3.2.4,Win32,60,55lvve0vwnrihv0rihqipejv1nfnr,,1,0,80,7,1,79
,,,,,,,,,,,,,,,,,,,,,,,,,,,,,,,,,,,e,3.600000143,BICILE,TRUE,,,,,,,112,bici,Catalan,Sounds/cat_bici.mp3,2020-06-20_16h49.30.265,TranslationElicitation_spa,3.2.4,Win32,60,55lvve0vwnrihv0rihqipejv1nfnr,,1,0,80,7,1,79
,,,,,,,,,,,,,,,,,,,,,,,,,,,,,,,,,,,backspace,4.133000135,BICI,TRUE,,,,,,,112,bici,Catalan,Sounds/cat_bici.mp3,2020-06-20_16h49.30.265,TranslationElicitation_spa,3.2.4,Win32,60,55lvve0vwnrihv0rihqipejv1nfnr,,1,0,80,7,1,79
,,,,,,,,,,,,,,,,,,,,,,,,,,,,,,,,,,,c,4.683000088,BICIC,TRUE,,,,,,,112,bici,Catalan,Sounds/cat_bici.mp3,2020-06-20_16h49.30.265,TranslationElicitation_spa,3.2.4,Win32,60,55lvve0vwnrihv0rihqipejv1nfnr,,1,0,80,7,1,79
,,,,,,,,,,,,,,,,,,,,,,,,,,,,,,,,,,,l,4.767000198,BICICL,TRUE,,,,,,,112,bici,Catalan,Sounds/cat_bici.mp3,2020-06-20_16h49.30.265,TranslationElicitation_spa,3.2.4,Win32,60,55lvve0vwnrihv0rihqipejv1nfnr,,1,0,80,7,1,79
,,,,,,,,,,,,,,,,,,,,,,,,,,,,,,,,,,,e,4.933000088,BICICLE,TRUE,,,,,,,112,bici,Catalan,Sounds/cat_bici.mp3,2020-06-20_16h49.30.265,TranslationElicitation_spa,3.2.4,Win32,60,55lvve0vwnrihv0rihqipejv1nfnr,,1,0,80,7,1,79
,,,,,,,,,,,,,,,,,,,,,,,,,,,,,,,,,,,t,5.117000103,BICICLET,TRUE,,,,,,,112,bici,Catalan,Sounds/cat_bici.mp3,2020-06-20_16h49.30.265,TranslationElicitation_spa,3.2.4,Win32,60,55lvve0vwnrihv0rihqipejv1nfnr,,1,0,80,7,1,79
,,,,,,,,,,,,,,,,,,,,,,,,,,,,,,,,,,,a,5.23300004,BICICLETA,TRUE,,,,,,,112,bici,Catalan,Sounds/cat_bici.mp3,2020-06-20_16h49.30.265,TranslationElicitation_spa,3.2.4,Win32,60,55lvve0vwnrihv0rihqipejv1nfnr,,1,0,80,7,1,79
,,,,,,,,,,,,,,,,,,,,,,,,,,,,,,,,,,,return,5.433000088,,TRUE,,,,,,,112,bici,Catalan,Sounds/cat_bici.mp3,2020-06-20_16h49.30.265,TranslationElicitation_spa,3.2.4,Win32,60,55lvve0vwnrihv0rihqipejv1nfnr,5.433000088,1,0,80,7,1,79
,,,,,,,,,,,,,,,,,,,,,,,,,,,,,,,,,,,,,,,,,,,,,112,bici,Catalan,Sounds/cat_bici.mp3,2020-06-20_16h49.30.265,TranslationElicitation_spa,3.2.4,Win32,60,55lvve0vwnrihv0rihqipejv1nfnr,,1,0,80,7,1,79
,,,,,,,,,,,,,,,,,,,,,,,,,,,,,,,,,,,b,1.148999929,B,FALSE,,,,,,,111,bibero,Catalan,Sounds/cat_bibero.mp3,2020-06-20_16h49.30.265,TranslationElicitation_spa,3.2.4,Win32,60,55lvve0vwnrihv0rihqipejv1nfnr,,1,0,80,6,1,79
,,,,,,,,,,,,,,,,,,,,,,,,,,,,,,,,,,,i,1.315999985,BI,FALSE,,,,,,,111,bibero,Catalan,Sounds/cat_bibero.mp3,2020-06-20_16h49.30.265,TranslationElicitation_spa,3.2.4,Win32,60,55lvve0vwnrihv0rihqipejv1nfnr,,1,0,80,6,1,79
,,,,,,,,,,,,,,,,,,,,,,,,,,,,,,,,,,,b,1.665999889,BIB,FALSE,,,,,,,111,bibero,Catalan,Sounds/cat_bibero.mp3,2020-06-20_16h49.30.265,TranslationElicitation_spa,3.2.4,Win32,60,55lvve0vwnrihv0rihqipejv1nfnr,,1,0,80,6,1,79
,,,,,,,,,,,,,,,,,,,,,,,,,,,,,,,,,,,e,1.848999977,BIBE,FALSE,,,,,,,111,bibero,Catalan,Sounds/cat_bibero.mp3,2020-06-20_16h49.30.265,TranslationElicitation_spa,3.2.4,Win32,60,55lvve0vwnrihv0rihqipejv1nfnr,,1,0,80,6,1,79
,,,,,,,,,,,,,,,,,,,,,,,,,,,,,,,,,,,r,1.948999882,BIBER,FALSE,,,,,,,111,bibero,Catalan,Sounds/cat_bibero.mp3,2020-06-20_16h49.30.265,TranslationElicitation_spa,3.2.4,Win32,60,55lvve0vwnrihv0rihqipejv1nfnr,,1,0,80,6,1,79
,,,,,,,,,,,,,,,,,,,,,,,,,,,,,,,,,,,apostrophe,2.198999882,BIBER,FALSE,,,,,,,111,bibero,Catalan,Sounds/cat_bibero.mp3,2020-06-20_16h49.30.265,TranslationElicitation_spa,3.2.4,Win32,60,55lvve0vwnrihv0rihqipejv1nfnr,,1,0,80,6,1,79
,,,,,,,,,,,,,,,,,,,,,,,,,,,,,,,,,,,o,2.365999937,BIBERÓ,FALSE,,,,,,,111,bibero,Catalan,Sounds/cat_bibero.mp3,2020-06-20_16h49.30.265,TranslationElicitation_spa,3.2.4,Win32,60,55lvve0vwnrihv0rihqipejv1nfnr,,1,0,80,6,1,79
,,,,,,,,,,,,,,,,,,,,,,,,,,,,,,,,,,,n,2.449999809,BIBERÓN,FALSE,,,,,,,111,bibero,Catalan,Sounds/cat_bibero.mp3,2020-06-20_16h49.30.265,TranslationElicitation_spa,3.2.4,Win32,60,55lvve0vwnrihv0rihqipejv1nfnr,,1,0,80,6,1,79
,,,,,,,,,,,,,,,,,,,,,,,,,,,,,,,,,,,return,2.665999889,,FALSE,,,,,,,111,bibero,Catalan,Sounds/cat_bibero.mp3,2020-06-20_16h49.30.265,TranslationElicitation_spa,3.2.4,Win32,60,55lvve0vwnrihv0rihqipejv1nfnr,2.665999889,1,0,80,6,1,79
,,,,,,,,,,,,,,,,,,,,,,,,,,,,,,,,,,,,,,,,,,,,,111,bibero,Catalan,Sounds/cat_bibero.mp3,2020-06-20_16h49.30.265,TranslationElicitation_spa,3.2.4,Win32,60,55lvve0vwnrihv0rihqipejv1nfnr,,1,0,80,6,1,79
,,,,,,,,,,,,,,,,,,,,,,,,,,,,,,,,,,,m,1.450999975,M,FALSE,,,,,,,156,moto,Catalan,Sounds/cat_moto.mp3,2020-06-20_16h49.30.265,TranslationElicitation_spa,3.2.4,Win32,60,55lvve0vwnrihv0rihqipejv1nfnr,,1,0,80,50,1,79
,,,,,,,,,,,,,,,,,,,,,,,,,,,,,,,,,,,o,1.549000025,MO,FALSE,,,,,,,156,moto,Catalan,Sounds/cat_moto.mp3,2020-06-20_16h49.30.265,TranslationElicitation_spa,3.2.4,Win32,60,55lvve0vwnrihv0rihqipejv1nfnr,,1,0,80,50,1,79
,,,,,,,,,,,,,,,,,,,,,,,,,,,,,,,,,,,t,1.799000025,MOT,FALSE,,,,,,,156,moto,Catalan,Sounds/cat_moto.mp3,2020-06-20_16h49.30.265,TranslationElicitation_spa,3.2.4,Win32,60,55lvve0vwnrihv0rihqipejv1nfnr,,1,0,80,50,1,79
,,,,,,,,,,,,,,,,,,,,,,,,,,,,,,,,,,,o,1.881999969,MOTO,FALSE,,,,,,,156,moto,Catalan,Sounds/cat_moto.mp3,2020-06-20_16h49.30.265,TranslationElicitation_spa,3.2.4,Win32,60,55lvve0vwnrihv0rihqipejv1nfnr,,1,0,80,50,1,79
,,,,,,,,,,,,,,,,,,,,,,,,,,,,,,,,,,,return,2.465999842,,FALSE,,,,,,,156,moto,Catalan,Sounds/cat_moto.mp3,2020-06-20_16h49.30.265,TranslationElicitation_spa,3.2.4,Win32,60,55lvve0vwnrihv0rihqipejv1nfnr,2.465999842,1,0,80,50,1,79
,,,,,,,,,,,,,,,,,,,,,,,,,,,,,,,,,,,,,,,,,,,,,156,moto,Catalan,Sounds/cat_moto.mp3,2020-06-20_16h49.30.265,TranslationElicitation_spa,3.2.4,Win32,60,55lvve0vwnrihv0rihqipejv1nfnr,,1,0,80,50,1,79
,,,,,,,,,,,,,,,,,,,,,,,,,,,,,,,,,,,m,2.183000088,M,FALSE,,,,,,,115,bolet,Catalan,Sounds/cat_bolet.mp3,2020-06-20_16h49.30.265,TranslationElicitation_spa,3.2.4,Win32,60,55lvve0vwnrihv0rihqipejv1nfnr,,1,0,80,10,1,79
,,,,,,,,,,,,,,,,,,,,,,,,,,,,,,,,,,,o,2.266000032,MO,FALSE,,,,,,,115,bolet,Catalan,Sounds/cat_bolet.mp3,2020-06-20_16h49.30.265,TranslationElicitation_spa,3.2.4,Win32,60,55lvve0vwnrihv0rihqipejv1nfnr,,1,0,80,10,1,79
,,,,,,,,,,,,,,,,,,,,,,,,,,,,,,,,,,,n,2.5,MON,FALSE,,,,,,,115,bolet,Catalan,Sounds/cat_bolet.mp3,2020-06-20_16h49.30.265,TranslationElicitation_spa,3.2.4,Win32,60,55lvve0vwnrihv0rihqipejv1nfnr,,1,0,80,10,1,79
,,,,,,,,,,,,,,,,,,,,,,,,,,,,,,,,,,,e,2.615999937,MONE,FALSE,,,,,,,115,bolet,Catalan,Sounds/cat_bolet.mp3,2020-06-20_16h49.30.265,TranslationElicitation_spa,3.2.4,Win32,60,55lvve0vwnrihv0rihqipejv1nfnr,,1,0,80,10,1,79
,,,,,,,,,,,,,,,,,,,,,,,,,,,,,,,,,,,d,2.78399992,MONED,FALSE,,,,,,,115,bolet,Catalan,Sounds/cat_bolet.mp3,2020-06-20_16h49.30.265,TranslationElicitation_spa,3.2.4,Win32,60,55lvve0vwnrihv0rihqipejv1nfnr,,1,0,80,10,1,79
,,,,,,,,,,,,,,,,,,,,,,,,,,,,,,,,,,,e,2.867000103,MONEDE,FALSE,,,,,,,115,bolet,Catalan,Sounds/cat_bolet.mp3,2020-06-20_16h49.30.265,TranslationElicitation_spa,3.2.4,Win32,60,55lvve0vwnrihv0rihqipejv1nfnr,,1,0,80,10,1,79
,,,,,,,,,,,,,,,,,,,,,,,,,,,,,,,,,,,r,3.048000097,MONEDER,FALSE,,,,,,,115,bolet,Catalan,Sounds/cat_bolet.mp3,2020-06-20_16h49.30.265,TranslationElicitation_spa,3.2.4,Win32,60,55lvve0vwnrihv0rihqipejv1nfnr,,1,0,80,10,1,79
,,,,,,,,,,,,,,,,,,,,,,,,,,,,,,,,,,,o,3.167000055,MONEDERO,FALSE,,,,,,,115,bolet,Catalan,Sounds/cat_bolet.mp3,2020-06-20_16h49.30.265,TranslationElicitation_spa,3.2.4,Win32,60,55lvve0vwnrihv0rihqipejv1nfnr,,1,0,80,10,1,79
,,,,,,,,,,,,,,,,,,,,,,,,,,,,,,,,,,,return,4.333999872,,FALSE,,,,,,,115,bolet,Catalan,Sounds/cat_bolet.mp3,2020-06-20_16h49.30.265,TranslationElicitation_spa,3.2.4,Win32,60,55lvve0vwnrihv0rihqipejv1nfnr,4.333999872,1,0,80,10,1,79
,,,,,,,,,,,,,,,,,,,,,,,,,,,,,,,,,,,,,,,,,,,,,115,bolet,Catalan,Sounds/cat_bolet.mp3,2020-06-20_16h49.30.265,TranslationElicitation_spa,3.2.4,Win32,60,55lvve0vwnrihv0rihqipejv1nfnr,,1,0,80,10,1,79
,,,,,,,,,,,,,,,,,,,,,,,,,,,,,,,,,,,o,1.499000072,O,FALSE,,,,,,,172,poma,Catalan,Sounds/cat_poma.mp3,2020-06-20_16h49.30.265,TranslationElicitation_spa,3.2.4,Win32,60,55lvve0vwnrihv0rihqipejv1nfnr,,1,0,80,64,1,79
,,,,,,,,,,,,,,,,,,,,,,,,,,,,,,,,,,,m,1.749000072,OM,FALSE,,,,,,,172,poma,Catalan,Sounds/cat_poma.mp3,2020-06-20_16h49.30.265,TranslationElicitation_spa,3.2.4,Win32,60,55lvve0vwnrihv0rihqipejv1nfnr,,1,0,80,64,1,79
,,,,,,,,,,,,,,,,,,,,,,,,,,,,,,,,,,,o,1.86500001,OMO,FALSE,,,,,,,172,poma,Catalan,Sounds/cat_poma.mp3,2020-06-20_16h49.30.265,TranslationElicitation_spa,3.2.4,Win32,60,55lvve0vwnrihv0rihqipejv1nfnr,,1,0,80,64,1,79
,,,,,,,,,,,,,,,,,,,,,,,,,,,,,,,,,,,backspace,2.431999922,O,TRUE,,,,,,,172,poma,Catalan,Sounds/cat_poma.mp3,2020-06-20_16h49.30.265,TranslationElicitation_spa,3.2.4,Win32,60,55lvve0vwnrihv0rihqipejv1nfnr,,1,0,80,64,1,79
,,,,,,,,,,,,,,,,,,,,,,,,,,,,,,,,,,,backspace,2.815999985,,TRUE,,,,,,,172,poma,Catalan,Sounds/cat_poma.mp3,2020-06-20_16h49.30.265,TranslationElicitation_spa,3.2.4,Win32,60,55lvve0vwnrihv0rihqipejv1nfnr,,1,0,80,64,1,79
,,,,,,,,,,,,,,,,,,,,,,,,,,,,,,,,,,,p,3.23300004,P,TRUE,,,,,,,172,poma,Catalan,Sounds/cat_poma.mp3,2020-06-20_16h49.30.265,TranslationElicitation_spa,3.2.4,Win32,60,55lvve0vwnrihv0rihqipejv1nfnr,,1,0,80,64,1,79
,,,,,,,,,,,,,,,,,,,,,,,,,,,,,,,,,,,o,3.365999937,PO,TRUE,,,,,,,172,poma,Catalan,Sounds/cat_poma.mp3,2020-06-20_16h49.30.265,TranslationElicitation_spa,3.2.4,Win32,60,55lvve0vwnrihv0rihqipejv1nfnr,,1,0,80,64,1,79
,,,,,,,,,,,,,,,,,,,,,,,,,,,,,,,,,,,m,3.565999985,POM,TRUE,,,,,,,172,poma,Catalan,Sounds/cat_poma.mp3,2020-06-20_16h49.30.265,TranslationElicitation_spa,3.2.4,Win32,60,55lvve0vwnrihv0rihqipejv1nfnr,,1,0,80,64,1,79
,,,,,,,,,,,,,,,,,,,,,,,,,,,,,,,,,,,o,3.617000103,POMO,TRUE,,,,,,,172,poma,Catalan,Sounds/cat_poma.mp3,2020-06-20_16h49.30.265,TranslationElicitation_spa,3.2.4,Win32,60,55lvve0vwnrihv0rihqipejv1nfnr,,1,0,80,64,1,79
,,,,,,,,,,,,,,,,,,,,,,,,,,,,,,,,,,,return,3.96600008,,TRUE,,,,,,,172,poma,Catalan,Sounds/cat_poma.mp3,2020-06-20_16h49.30.265,TranslationElicitation_spa,3.2.4,Win32,60,55lvve0vwnrihv0rihqipejv1nfnr,3.96600008,1,0,80,64,1,79
,,,,,,,,,,,,,,,,,,,,,,,,,,,,,,,,,,,,,,,,,,,,,172,poma,Catalan,Sounds/cat_poma.mp3,2020-06-20_16h49.30.265,TranslationElicitation_spa,3.2.4,Win32,60,55lvve0vwnrihv0rihqipejv1nfnr,,1,0,80,64,1,79
,,,,,,,,,,,,,,,,,,,,,,,,,,,,,,,,,,,c,1.282999992,C,FALSE,,,,,,,122,casa,Catalan,Sounds/cat_casa.mp3,2020-06-20_16h49.30.265,TranslationElicitation_spa,3.2.4,Win32,60,55lvve0vwnrihv0rihqipejv1nfnr,,1,0,80,17,1,79
,,,,,,,,,,,,,,,,,,,,,,,,,,,,,,,,,,,a,1.532999992,CA,FALSE,,,,,,,122,casa,Catalan,Sounds/cat_casa.mp3,2020-06-20_16h49.30.265,TranslationElicitation_spa,3.2.4,Win32,60,55lvve0vwnrihv0rihqipejv1nfnr,,1,0,80,17,1,79
,,,,,,,,,,,,,,,,,,,,,,,,,,,,,,,,,,,s,1.749000072,CAS,FALSE,,,,,,,122,casa,Catalan,Sounds/cat_casa.mp3,2020-06-20_16h49.30.265,TranslationElicitation_spa,3.2.4,Win32,60,55lvve0vwnrihv0rihqipejv1nfnr,,1,0,80,17,1,79
,,,,,,,,,,,,,,,,,,,,,,,,,,,,,,,,,,,a,1.833000183,CASA,FALSE,,,,,,,122,casa,Catalan,Sounds/cat_casa.mp3,2020-06-20_16h49.30.265,TranslationElicitation_spa,3.2.4,Win32,60,55lvve0vwnrihv0rihqipejv1nfnr,,1,0,80,17,1,79
,,,,,,,,,,,,,,,,,,,,,,,,,,,,,,,,,,,return,2.032999992,,FALSE,,,,,,,122,casa,Catalan,Sounds/cat_casa.mp3,2020-06-20_16h49.30.265,TranslationElicitation_spa,3.2.4,Win32,60,55lvve0vwnrihv0rihqipejv1nfnr,2.032999992,1,0,80,17,1,79
,,,,,,,,,,,,,,,,,,,,,,,,,,,,,,,,,,,,,,,,,,,,,122,casa,Catalan,Sounds/cat_casa.mp3,2020-06-20_16h49.30.265,TranslationElicitation_spa,3.2.4,Win32,60,55lvve0vwnrihv0rihqipejv1nfnr,,1,0,80,17,1,79
,,,,,,,,,,,,,,,,,,,,,,,,,,,,,,,,,,,c,1.44900012,C,FALSE,,,,,,,189,zebra,Catalan,Sounds/cat_zebra.mp3,2020-06-20_16h49.30.265,TranslationElicitation_spa,3.2.4,Win32,60,55lvve0vwnrihv0rihqipejv1nfnr,,1,0,80,79,1,79
,,,,,,,,,,,,,,,,,,,,,,,,,,,,,,,,,,,e,1.565999985,CE,FALSE,,,,,,,189,zebra,Catalan,Sounds/cat_zebra.mp3,2020-06-20_16h49.30.265,TranslationElicitation_spa,3.2.4,Win32,60,55lvve0vwnrihv0rihqipejv1nfnr,,1,0,80,79,1,79
,,,,,,,,,,,,,,,,,,,,,,,,,,,,,,,,,,,b,1.766000032,CEB,FALSE,,,,,,,189,zebra,Catalan,Sounds/cat_zebra.mp3,2020-06-20_16h49.30.265,TranslationElicitation_spa,3.2.4,Win32,60,55lvve0vwnrihv0rihqipejv1nfnr,,1,0,80,79,1,79
,,,,,,,,,,,,,,,,,,,,,,,,,,,,,,,,,,,r,1.90199995,CEBR,FALSE,,,,,,,189,zebra,Catalan,Sounds/cat_zebra.mp3,2020-06-20_16h49.30.265,TranslationElicitation_spa,3.2.4,Win32,60,55lvve0vwnrihv0rihqipejv1nfnr,,1,0,80,79,1,79
,,,,,,,,,,,,,,,,,,,,,,,,,,,,,,,,,,,a,2.015000105,CEBRA,FALSE,,,,,,,189,zebra,Catalan,Sounds/cat_zebra.mp3,2020-06-20_16h49.30.265,TranslationElicitation_spa,3.2.4,Win32,60,55lvve0vwnrihv0rihqipejv1nfnr,,1,0,80,79,1,79
,,,,,,,,,,,,,,,,,,,,,,,,,,,,,,,,,,,return,2.197999954,,FALSE,,,,,,,189,zebra,Catalan,Sounds/cat_zebra.mp3,2020-06-20_16h49.30.265,TranslationElicitation_spa,3.2.4,Win32,60,55lvve0vwnrihv0rihqipejv1nfnr,2.197999954,1,0,80,79,1,79
,,,,,,,,,,,,,,,,,,,,,,,,,,,,,,,,,,,,,,,,,,,,,189,zebra,Catalan,Sounds/cat_zebra.mp3,2020-06-20_16h49.30.265,TranslationElicitation_spa,3.2.4,Win32,60,55lvve0vwnrihv0rihqipejv1nfnr,,1,0,80,79,1,79
,,,,,,,,,,,,,,,,,,,,,,,,,,,,,,,,,,,m,1.96600008,M,FALSE,,,,,,,157,mussol,Catalan,Sounds/cat_mussol.mp3,2020-06-20_16h49.30.265,TranslationElicitation_spa,3.2.4,Win32,60,55lvve0vwnrihv0rihqipejv1nfnr,,1,0,80,51,1,79
,,,,,,,,,,,,,,,,,,,,,,,,,,,,,,,,,,,u,2.167000055,MU,FALSE,,,,,,,157,mussol,Catalan,Sounds/cat_mussol.mp3,2020-06-20_16h49.30.265,TranslationElicitation_spa,3.2.4,Win32,60,55lvve0vwnrihv0rihqipejv1nfnr,,1,0,80,51,1,79
,,,,,,,,,,,,,,,,,,,,,,,,,,,,,,,,,,,s,2.332999945,MUS,FALSE,,,,,,,157,mussol,Catalan,Sounds/cat_mussol.mp3,2020-06-20_16h49.30.265,TranslationElicitation_spa,3.2.4,Win32,60,55lvve0vwnrihv0rihqipejv1nfnr,,1,0,80,51,1,79
,,,,,,,,,,,,,,,,,,,,,,,,,,,,,,,,,,,e,2.383000135,MUSE,FALSE,,,,,,,157,mussol,Catalan,Sounds/cat_mussol.mp3,2020-06-20_16h49.30.265,TranslationElicitation_spa,3.2.4,Win32,60,55lvve0vwnrihv0rihqipejv1nfnr,,1,0,80,51,1,79
,,,,,,,,,,,,,,,,,,,,,,,,,,,,,,,,,,,o,2.549000025,MUSEO,FALSE,,,,,,,157,mussol,Catalan,Sounds/cat_mussol.mp3,2020-06-20_16h49.30.265,TranslationElicitation_spa,3.2.4,Win32,60,55lvve0vwnrihv0rihqipejv1nfnr,,1,0,80,51,1,79
,,,,,,,,,,,,,,,,,,,,,,,,,,,,,,,,,,,return,2.999000072,,FALSE,,,,,,,157,mussol,Catalan,Sounds/cat_mussol.mp3,2020-06-20_16h49.30.265,TranslationElicitation_spa,3.2.4,Win32,60,55lvve0vwnrihv0rihqipejv1nfnr,2.999000072,1,0,80,51,1,79
,,,,,,,,,,,,,,,,,,,,,,,,,,,,,,,,,,,,,,,,,,,,,157,mussol,Catalan,Sounds/cat_mussol.mp3,2020-06-20_16h49.30.265,TranslationElicitation_spa,3.2.4,Win32,60,55lvve0vwnrihv0rihqipejv1nfnr,,1,0,80,51,1,79
,,,,,,,,,,,,,,,,,,,,,,,,,,,,,,,,,,,p,1.165999889,P,FALSE,,,,,,,164,patata,Catalan,Sounds/cat_patata.mp3,2020-06-20_16h49.30.265,TranslationElicitation_spa,3.2.4,Win32,60,55lvve0vwnrihv0rihqipejv1nfnr,,1,0,80,57,1,79
,,,,,,,,,,,,,,,,,,,,,,,,,,,,,,,,,,,a,1.264999866,PA,FALSE,,,,,,,164,patata,Catalan,Sounds/cat_patata.mp3,2020-06-20_16h49.30.265,TranslationElicitation_spa,3.2.4,Win32,60,55lvve0vwnrihv0rihqipejv1nfnr,,1,0,80,57,1,79
,,,,,,,,,,,,,,,,,,,,,,,,,,,,,,,,,,,t,1.415999889,PAT,FALSE,,,,,,,164,patata,Catalan,Sounds/cat_patata.mp3,2020-06-20_16h49.30.265,TranslationElicitation_spa,3.2.4,Win32,60,55lvve0vwnrihv0rihqipejv1nfnr,,1,0,80,57,1,79
,,,,,,,,,,,,,,,,,,,,,,,,,,,,,,,,,,,a,1.531999826,PATA,FALSE,,,,,,,164,patata,Catalan,Sounds/cat_patata.mp3,2020-06-20_16h49.30.265,TranslationElicitation_spa,3.2.4,Win32,60,55lvve0vwnrihv0rihqipejv1nfnr,,1,0,80,57,1,79
,,,,,,,,,,,,,,,,,,,,,,,,,,,,,,,,,,,t,1.648000002,PATAT,FALSE,,,,,,,164,patata,Catalan,Sounds/cat_patata.mp3,2020-06-20_16h49.30.265,TranslationElicitation_spa,3.2.4,Win32,60,55lvve0vwnrihv0rihqipejv1nfnr,,1,0,80,57,1,79
,,,,,,,,,,,,,,,,,,,,,,,,,,,,,,,,,,,a,1.731999874,PATATA,FALSE,,,,,,,164,patata,Catalan,Sounds/cat_patata.mp3,2020-06-20_16h49.30.265,TranslationElicitation_spa,3.2.4,Win32,60,55lvve0vwnrihv0rihqipejv1nfnr,,1,0,80,57,1,79
,,,,,,,,,,,,,,,,,,,,,,,,,,,,,,,,,,,return,1.984999895,,FALSE,,,,,,,164,patata,Catalan,Sounds/cat_patata.mp3,2020-06-20_16h49.30.265,TranslationElicitation_spa,3.2.4,Win32,60,55lvve0vwnrihv0rihqipejv1nfnr,1.984999895,1,0,80,57,1,79
,,,,,,,,,,,,,,,,,,,,,,,,,,,,,,,,,,,,,,,,,,,,,164,patata,Catalan,Sounds/cat_patata.mp3,2020-06-20_16h49.30.265,TranslationElicitation_spa,3.2.4,Win32,60,55lvve0vwnrihv0rihqipejv1nfnr,,1,0,80,57,1,79
,,,,,,,,,,,,,,,,,,,,,,,,,,,,,,,,,,,a,1.249000072,A,FALSE,,,,,,,108,ampolla,Catalan,Sounds/cat_ampolla.mp3,2020-06-20_16h49.30.265,TranslationElicitation_spa,3.2.4,Win32,60,55lvve0vwnrihv0rihqipejv1nfnr,,1,0,80,4,1,79
,,,,,,,,,,,,,,,,,,,,,,,,,,,,,,,,,,,m,1.382999897,AM,FALSE,,,,,,,108,ampolla,Catalan,Sounds/cat_ampolla.mp3,2020-06-20_16h49.30.265,TranslationElicitation_spa,3.2.4,Win32,60,55lvve0vwnrihv0rihqipejv1nfnr,,1,0,80,4,1,79
,,,,,,,,,,,,,,,,,,,,,,,,,,,,,,,,,,,p,1.5,AMP,FALSE,,,,,,,108,ampolla,Catalan,Sounds/cat_ampolla.mp3,2020-06-20_16h49.30.265,TranslationElicitation_spa,3.2.4,Win32,60,55lvve0vwnrihv0rihqipejv1nfnr,,1,0,80,4,1,79
,,,,,,,,,,,,,,,,,,,,,,,,,,,,,,,,,,,o,1.615999937,AMPO,FALSE,,,,,,,108,ampolla,Catalan,Sounds/cat_ampolla.mp3,2020-06-20_16h49.30.265,TranslationElicitation_spa,3.2.4,Win32,60,55lvve0vwnrihv0rihqipejv1nfnr,,1,0,80,4,1,79
,,,,,,,,,,,,,,,,,,,,,,,,,,,,,,,,,,,l,1.832999945,AMPOL,FALSE,,,,,,,108,ampolla,Catalan,Sounds/cat_ampolla.mp3,2020-06-20_16h49.30.265,TranslationElicitation_spa,3.2.4,Win32,60,55lvve0vwnrihv0rihqipejv1nfnr,,1,0,80,4,1,79
,,,,,,,,,,,,,,,,,,,,,,,,,,,,,,,,,,,l,2.01699996,AMPOLL,FALSE,,,,,,,108,ampolla,Catalan,Sounds/cat_ampolla.mp3,2020-06-20_16h49.30.265,TranslationElicitation_spa,3.2.4,Win32,60,55lvve0vwnrihv0rihqipejv1nfnr,,1,0,80,4,1,79
,,,,,,,,,,,,,,,,,,,,,,,,,,,,,,,,,,,a,2.13499999,AMPOLLA,FALSE,,,,,,,108,ampolla,Catalan,Sounds/cat_ampolla.mp3,2020-06-20_16h49.30.265,TranslationElicitation_spa,3.2.4,Win32,60,55lvve0vwnrihv0rihqipejv1nfnr,,1,0,80,4,1,79
,,,,,,,,,,,,,,,,,,,,,,,,,,,,,,,,,,,return,2.700000048,,FALSE,,,,,,,108,ampolla,Catalan,Sounds/cat_ampolla.mp3,2020-06-20_16h49.30.265,TranslationElicitation_spa,3.2.4,Win32,60,55lvve0vwnrihv0rihqipejv1nfnr,2.700000048,1,0,80,4,1,79
,,,,,,,,,,,,,,,,,,,,,,,,,,,,,,,,,,,,,,,,,,,,,108,ampolla,Catalan,Sounds/cat_ampolla.mp3,2020-06-20_16h49.30.265,TranslationElicitation_spa,3.2.4,Win32,60,55lvve0vwnrihv0rihqipejv1nfnr,,1,0,80,4,1,79
,,,,,,,,,,,,,,,,,,,,,,,,,,,,,,,,,,,g,1.497999907,G,FALSE,,,,,,,144,gorra,Catalan,Sounds/cat_gorra.mp3,2020-06-20_16h49.30.265,TranslationElicitation_spa,3.2.4,Win32,60,55lvve0vwnrihv0rihqipejv1nfnr,,1,0,80,39,1,79
,,,,,,,,,,,,,,,,,,,,,,,,,,,,,,,,,,,o,1.648000002,GO,FALSE,,,,,,,144,gorra,Catalan,Sounds/cat_gorra.mp3,2020-06-20_16h49.30.265,TranslationElicitation_spa,3.2.4,Win32,60,55lvve0vwnrihv0rihqipejv1nfnr,,1,0,80,39,1,79
,,,,,,,,,,,,,,,,,,,,,,,,,,,,,,,,,,,r,1.781999826,GOR,FALSE,,,,,,,144,gorra,Catalan,Sounds/cat_gorra.mp3,2020-06-20_16h49.30.265,TranslationElicitation_spa,3.2.4,Win32,60,55lvve0vwnrihv0rihqipejv1nfnr,,1,0,80,39,1,79
,,,,,,,,,,,,,,,,,,,,,,,,,,,,,,,,,,,r,1.947999954,GORR,FALSE,,,,,,,144,gorra,Catalan,Sounds/cat_gorra.mp3,2020-06-20_16h49.30.265,TranslationElicitation_spa,3.2.4,Win32,60,55lvve0vwnrihv0rihqipejv1nfnr,,1,0,80,39,1,79
,,,,,,,,,,,,,,,,,,,,,,,,,,,,,,,,,,,a,2.031999826,GORRA,FALSE,,,,,,,144,gorra,Catalan,Sounds/cat_gorra.mp3,2020-06-20_16h49.30.265,TranslationElicitation_spa,3.2.4,Win32,60,55lvve0vwnrihv0rihqipejv1nfnr,,1,0,80,39,1,79
,,,,,,,,,,,,,,,,,,,,,,,,,,,,,,,,,,,return,2.247999907,,FALSE,,,,,,,144,gorra,Catalan,Sounds/cat_gorra.mp3,2020-06-20_16h49.30.265,TranslationElicitation_spa,3.2.4,Win32,60,55lvve0vwnrihv0rihqipejv1nfnr,2.247999907,1,0,80,39,1,79
,,,,,,,,,,,,,,,,,,,,,,,,,,,,,,,,,,,,,,,,,,,,,144,gorra,Catalan,Sounds/cat_gorra.mp3,2020-06-20_16h49.30.265,TranslationElicitation_spa,3.2.4,Win32,60,55lvve0vwnrihv0rihqipejv1nfnr,,1,0,80,39,1,79
,,,,,,,,,,,,,,,,,,,,,,,,,,,,,,,,,,,p,1.350000143,P,FALSE,,,,,,,174,porta,Catalan,Sounds/cat_porta.mp3,2020-06-20_16h49.30.265,TranslationElicitation_spa,3.2.4,Win32,60,55lvve0vwnrihv0rihqipejv1nfnr,,1,0,80,66,1,79
,,,,,,,,,,,,,,,,,,,,,,,,,,,,,,,,,,,u,1.601000071,PU,FALSE,,,,,,,174,porta,Catalan,Sounds/cat_porta.mp3,2020-06-20_16h49.30.265,TranslationElicitation_spa,3.2.4,Win32,60,55lvve0vwnrihv0rihqipejv1nfnr,,1,0,80,66,1,79
,,,,,,,,,,,,,,,,,,,,,,,,,,,,,,,,,,,e,1.683000088,PUE,FALSE,,,,,,,174,porta,Catalan,Sounds/cat_porta.mp3,2020-06-20_16h49.30.265,TranslationElicitation_spa,3.2.4,Win32,60,55lvve0vwnrihv0rihqipejv1nfnr,,1,0,80,66,1,79
,,,,,,,,,,,,,,,,,,,,,,,,,,,,,,,,,,,r,1.733999968,PUER,FALSE,,,,,,,174,porta,Catalan,Sounds/cat_porta.mp3,2020-06-20_16h49.30.265,TranslationElicitation_spa,3.2.4,Win32,60,55lvve0vwnrihv0rihqipejv1nfnr,,1,0,80,66,1,79
,,,,,,,,,,,,,,,,,,,,,,,,,,,,,,,,,,,t,1.950000048,PUERT,FALSE,,,,,,,174,porta,Catalan,Sounds/cat_porta.mp3,2020-06-20_16h49.30.265,TranslationElicitation_spa,3.2.4,Win32,60,55lvve0vwnrihv0rihqipejv1nfnr,,1,0,80,66,1,79
,,,,,,,,,,,,,,,,,,,,,,,,,,,,,,,,,,,a,2.034000158,PUERTA,FALSE,,,,,,,174,porta,Catalan,Sounds/cat_porta.mp3,2020-06-20_16h49.30.265,TranslationElicitation_spa,3.2.4,Win32,60,55lvve0vwnrihv0rihqipejv1nfnr,,1,0,80,66,1,79
,,,,,,,,,,,,,,,,,,,,,,,,,,,,,,,,,,,return,2.167000055,,FALSE,,,,,,,174,porta,Catalan,Sounds/cat_porta.mp3,2020-06-20_16h49.30.265,TranslationElicitation_spa,3.2.4,Win32,60,55lvve0vwnrihv0rihqipejv1nfnr,2.167000055,1,0,80,66,1,79
,,,,,,,,,,,,,,,,,,,,,,,,,,,,,,,,,,,,,,,,,,,,,174,porta,Catalan,Sounds/cat_porta.mp3,2020-06-20_16h49.30.265,TranslationElicitation_spa,3.2.4,Win32,60,55lvve0vwnrihv0rihqipejv1nfnr,,1,0,80,66,1,79
,,,,,,,,,,,,,,,,,,,,,,,,,,,,,,,,,,,s,1.665999889,S,FALSE,,,,,,,177,sol,Catalan,Sounds/cat_sol.mp3,2020-06-20_16h49.30.265,TranslationElicitation_spa,3.2.4,Win32,60,55lvve0vwnrihv0rihqipejv1nfnr,,1,0,80,69,1,79
,,,,,,,,,,,,,,,,,,,,,,,,,,,,,,,,,,,o,1.799000025,SO,FALSE,,,,,,,177,sol,Catalan,Sounds/cat_sol.mp3,2020-06-20_16h49.30.265,TranslationElicitation_spa,3.2.4,Win32,60,55lvve0vwnrihv0rihqipejv1nfnr,,1,0,80,69,1,79
,,,,,,,,,,,,,,,,,,,,,,,,,,,,,,,,,,,l,2.032999992,SOL,FALSE,,,,,,,177,sol,Catalan,Sounds/cat_sol.mp3,2020-06-20_16h49.30.265,TranslationElicitation_spa,3.2.4,Win32,60,55lvve0vwnrihv0rihqipejv1nfnr,,1,0,80,69,1,79
,,,,,,,,,,,,,,,,,,,,,,,,,,,,,,,,,,,return,2.232999802,,FALSE,,,,,,,177,sol,Catalan,Sounds/cat_sol.mp3,2020-06-20_16h49.30.265,TranslationElicitation_spa,3.2.4,Win32,60,55lvve0vwnrihv0rihqipejv1nfnr,2.232999802,1,0,80,69,1,79
,,,,,,,,,,,,,,,,,,,,,,,,,,,,,,,,,,,,,,,,,,,,,177,sol,Catalan,Sounds/cat_sol.mp3,2020-06-20_16h49.30.265,TranslationElicitation_spa,3.2.4,Win32,60,55lvve0vwnrihv0rihqipejv1nfnr,,1,0,80,69,1,79
,,,,,,,,,,,,,,,,,,,,,,,,,,,,,,,,,,,t,5.335000038,T,FALSE,,,,,,,178,taronja,Catalan,Sounds/cat_taronja.mp3,2020-06-20_16h49.30.265,TranslationElicitation_spa,3.2.4,Win32,60,55lvve0vwnrihv0rihqipejv1nfnr,,1,0,80,70,1,79
,,,,,,,,,,,,,,,,,,,,,,,,,,,,,,,,,,,r,5.566999912,TR,FALSE,,,,,,,178,taronja,Catalan,Sounds/cat_taronja.mp3,2020-06-20_16h49.30.265,TranslationElicitation_spa,3.2.4,Win32,60,55lvve0vwnrihv0rihqipejv1nfnr,,1,0,80,70,1,79
,,,,,,,,,,,,,,,,,,,,,,,,,,,,,,,,,,,a,5.651000023,TRA,FALSE,,,,,,,178,taronja,Catalan,Sounds/cat_taronja.mp3,2020-06-20_16h49.30.265,TranslationElicitation_spa,3.2.4,Win32,60,55lvve0vwnrihv0rihqipejv1nfnr,,1,0,80,70,1,79
,,,,,,,,,,,,,,,,,,,,,,,,,,,,,,,,,,,n,5.950999975,TRAN,FALSE,,,,,,,178,taronja,Catalan,Sounds/cat_taronja.mp3,2020-06-20_16h49.30.265,TranslationElicitation_spa,3.2.4,Win32,60,55lvve0vwnrihv0rihqipejv1nfnr,,1,0,80,70,1,79
,,,,,,,,,,,,,,,,,,,,,,,,,,,,,,,,,,,c,6.118999958,TRANC,FALSE,,,,,,,178,taronja,Catalan,Sounds/cat_taronja.mp3,2020-06-20_16h49.30.265,TranslationElicitation_spa,3.2.4,Win32,60,55lvve0vwnrihv0rihqipejv1nfnr,,1,0,80,70,1,79
,,,,,,,,,,,,,,,,,,,,,,,,,,,,,,,,,,,a,6.167999983,TRANCA,FALSE,,,,,,,178,taronja,Catalan,Sounds/cat_taronja.mp3,2020-06-20_16h49.30.265,TranslationElicitation_spa,3.2.4,Win32,60,55lvve0vwnrihv0rihqipejv1nfnr,,1,0,80,70,1,79
,,,,,,,,,,,,,,,,,,,,,,,,,,,,,,,,,,,backspace,9.99000001,TRAN,TRUE,,,,,,,178,taronja,Catalan,Sounds/cat_taronja.mp3,2020-06-20_16h49.30.265,TranslationElicitation_spa,3.2.4,Win32,60,55lvve0vwnrihv0rihqipejv1nfnr,,1,0,80,70,1,79
,,,,,,,,,,,,,,,,,,,,,,,,,,,,,,,,,,,backspace,10.16999984,TR,TRUE,,,,,,,178,taronja,Catalan,Sounds/cat_taronja.mp3,2020-06-20_16h49.30.265,TranslationElicitation_spa,3.2.4,Win32,60,55lvve0vwnrihv0rihqipejv1nfnr,,1,0,80,70,1,79
,,,,,,,,,,,,,,,,,,,,,,,,,,,,,,,,,,,backspace,10.34099984,,TRUE,,,,,,,178,taronja,Catalan,Sounds/cat_taronja.mp3,2020-06-20_16h49.30.265,TranslationElicitation_spa,3.2.4,Win32,60,55lvve0vwnrihv0rihqipejv1nfnr,,1,0,80,70,1,79
,,,,,,,,,,,,,,,,,,,,,,,,,,,,,,,,,,,t,11.11999989,T,TRUE,,,,,,,178,taronja,Catalan,Sounds/cat_taronja.mp3,2020-06-20_16h49.30.265,TranslationElicitation_spa,3.2.4,Win32,60,55lvve0vwnrihv0rihqipejv1nfnr,,1,0,80,70,1,79
,,,,,,,,,,,,,,,,,,,,,,,,,,,,,,,,,,,r,11.3039999,TR,TRUE,,,,,,,178,taronja,Catalan,Sounds/cat_taronja.mp3,2020-06-20_16h49.30.265,TranslationElicitation_spa,3.2.4,Win32,60,55lvve0vwnrihv0rihqipejv1nfnr,,1,0,80,70,1,79
,,,,,,,,,,,,,,,,,,,,,,,,,,,,,,,,,,,a,11.35299993,TRA,TRUE,,,,,,,178,taronja,Catalan,Sounds/cat_taronja.mp3,2020-06-20_16h49.30.265,TranslationElicitation_spa,3.2.4,Win32,60,55lvve0vwnrihv0rihqipejv1nfnr,,1,0,80,70,1,79
,,,,,,,,,,,,,,,,,,,,,,,,,,,,,,,,,,,j,11.50399995,TRAJ,TRUE,,,,,,,178,taronja,Catalan,Sounds/cat_taronja.mp3,2020-06-20_16h49.30.265,TranslationElicitation_spa,3.2.4,Win32,60,55lvve0vwnrihv0rihqipejv1nfnr,,1,0,80,70,1,79
,,,,,,,,,,,,,,,,,,,,,,,,,,,,,,,,,,,e,11.61999989,TRAJE,TRUE,,,,,,,178,taronja,Catalan,Sounds/cat_taronja.mp3,2020-06-20_16h49.30.265,TranslationElicitation_spa,3.2.4,Win32,60,55lvve0vwnrihv0rihqipejv1nfnr,,1,0,80,70,1,79
,,,,,,,,,,,,,,,,,,,,,,,,,,,,,,,,,,,return,11.91999984,,TRUE,,,,,,,178,taronja,Catalan,Sounds/cat_taronja.mp3,2020-06-20_16h49.30.265,TranslationElicitation_spa,3.2.4,Win32,60,55lvve0vwnrihv0rihqipejv1nfnr,11.91999984,1,0,80,70,1,79
,,,,,,,,,,,,,,,,,,,,,,,,,,,,,,,,,,,,,,,,,,,,,178,taronja,Catalan,Sounds/cat_taronja.mp3,2020-06-20_16h49.30.265,TranslationElicitation_spa,3.2.4,Win32,60,55lvve0vwnrihv0rihqipejv1nfnr,,1,0,80,70,1,79
,,,,,,,,,,,,,,,,,,,,,,,,,,,,,,,,,,,c,1.707000017,C,FALSE,,,,,,,119,caixa,Catalan,Sounds/cat_caixa.mp3,2020-06-20_16h49.30.265,TranslationElicitation_spa,3.2.4,Win32,60,55lvve0vwnrihv0rihqipejv1nfnr,,1,0,80,14,1,79
,,,,,,,,,,,,,,,,,,,,,,,,,,,,,,,,,,,a,1.907000065,CA,FALSE,,,,,,,119,caixa,Catalan,Sounds/cat_caixa.mp3,2020-06-20_16h49.30.265,TranslationElicitation_spa,3.2.4,Win32,60,55lvve0vwnrihv0rihqipejv1nfnr,,1,0,80,14,1,79
,,,,,,,,,,,,,,,,,,,,,,,,,,,,,,,,,,,s,2.124000072,CAS,FALSE,,,,,,,119,caixa,Catalan,Sounds/cat_caixa.mp3,2020-06-20_16h49.30.265,TranslationElicitation_spa,3.2.4,Win32,60,55lvve0vwnrihv0rihqipejv1nfnr,,1,0,80,14,1,79
,,,,,,,,,,,,,,,,,,,,,,,,,,,,,,,,,,,a,2.207000017,CASA,FALSE,,,,,,,119,caixa,Catalan,Sounds/cat_caixa.mp3,2020-06-20_16h49.30.265,TranslationElicitation_spa,3.2.4,Win32,60,55lvve0vwnrihv0rihqipejv1nfnr,,1,0,80,14,1,79
,,,,,,,,,,,,,,,,,,,,,,,,,,,,,,,,,,,return,2.49000001,,FALSE,,,,,,,119,caixa,Catalan,Sounds/cat_caixa.mp3,2020-06-20_16h49.30.265,TranslationElicitation_spa,3.2.4,Win32,60,55lvve0vwnrihv0rihqipejv1nfnr,2.49000001,1,0,80,14,1,79
,,,,,,,,,,,,,,,,,,,,,,,,,,,,,,,,,,,,,,,,,,,,,119,caixa,Catalan,Sounds/cat_caixa.mp3,2020-06-20_16h49.30.265,TranslationElicitation_spa,3.2.4,Win32,60,55lvve0vwnrihv0rihqipejv1nfnr,,1,0,80,14,1,79
,,,,,,,,,,,,,,,,,,,,,,,,,,,,,,,,,,,c,2.082999945,C,FALSE,,,,,,,125,colom,Catalan,Sounds/cat_colom.mp3,2020-06-20_16h49.30.265,TranslationElicitation_spa,3.2.4,Win32,60,55lvve0vwnrihv0rihqipejv1nfnr,,1,0,80,20,1,79
,,,,,,,,,,,,,,,,,,,,,,,,,,,,,,,,,,,u,2.198999882,CU,FALSE,,,,,,,125,colom,Catalan,Sounds/cat_colom.mp3,2020-06-20_16h49.30.265,TranslationElicitation_spa,3.2.4,Win32,60,55lvve0vwnrihv0rihqipejv1nfnr,,1,0,80,20,1,79
,,,,,,,,,,,,,,,,,,,,,,,,,,,,,,,,,,,l,2.43599987,CUL,FALSE,,,,,,,125,colom,Catalan,Sounds/cat_colom.mp3,2020-06-20_16h49.30.265,TranslationElicitation_spa,3.2.4,Win32,60,55lvve0vwnrihv0rihqipejv1nfnr,,1,0,80,20,1,79
,,,,,,,,,,,,,,,,,,,,,,,,,,,,,,,,,,,o,2.565999985,CULO,FALSE,,,,,,,125,colom,Catalan,Sounds/cat_colom.mp3,2020-06-20_16h49.30.265,TranslationElicitation_spa,3.2.4,Win32,60,55lvve0vwnrihv0rihqipejv1nfnr,,1,0,80,20,1,79
,,,,,,,,,,,,,,,,,,,,,,,,,,,,,,,,,,,return,2.814999819,,FALSE,,,,,,,125,colom,Catalan,Sounds/cat_colom.mp3,2020-06-20_16h49.30.265,TranslationElicitation_spa,3.2.4,Win32,60,55lvve0vwnrihv0rihqipejv1nfnr,2.814999819,1,0,80,20,1,79
,,,,,,,,,,,,,,,,,,,,,,,,,,,,,,,,,,,,,,,,,,,,,125,colom,Catalan,Sounds/cat_colom.mp3,2020-06-20_16h49.30.265,TranslationElicitation_spa,3.2.4,Win32,60,55lvve0vwnrihv0rihqipejv1nfnr,,1,0,80,20,1,79
,,,,,,,,,,,,,,,,,,,,,,,,,,,,,,,,,,,m,1.499000072,M,FALSE,,,,,,,154,mirall,Catalan,Sounds/cat_mirall.mp3,2020-06-20_16h49.30.265,TranslationElicitation_spa,3.2.4,Win32,60,55lvve0vwnrihv0rihqipejv1nfnr,,1,0,80,48,1,79
,,,,,,,,,,,,,,,,,,,,,,,,,,,,,,,,,,,i,1.68200016,MI,FALSE,,,,,,,154,mirall,Catalan,Sounds/cat_mirall.mp3,2020-06-20_16h49.30.265,TranslationElicitation_spa,3.2.4,Win32,60,55lvve0vwnrihv0rihqipejv1nfnr,,1,0,80,48,1,79
,,,,,,,,,,,,,,,,,,,,,,,,,,,,,,,,,,,r,1.815999985,MIR,FALSE,,,,,,,154,mirall,Catalan,Sounds/cat_mirall.mp3,2020-06-20_16h49.30.265,TranslationElicitation_spa,3.2.4,Win32,60,55lvve0vwnrihv0rihqipejv1nfnr,,1,0,80,48,1,79
,,,,,,,,,,,,,,,,,,,,,,,,,,,,,,,,,,,a,2.373000145,MIRA,FALSE,,,,,,,154,mirall,Catalan,Sounds/cat_mirall.mp3,2020-06-20_16h49.30.265,TranslationElicitation_spa,3.2.4,Win32,60,55lvve0vwnrihv0rihqipejv1nfnr,,1,0,80,48,1,79
,,,,,,,,,,,,,,,,,,,,,,,,,,,,,,,,,,,r,2.650000095,MIRAR,FALSE,,,,,,,154,mirall,Catalan,Sounds/cat_mirall.mp3,2020-06-20_16h49.30.265,TranslationElicitation_spa,3.2.4,Win32,60,55lvve0vwnrihv0rihqipejv1nfnr,,1,0,80,48,1,79
,,,,,,,,,,,,,,,,,,,,,,,,,,,,,,,,,,,return,3.016000032,,FALSE,,,,,,,154,mirall,Catalan,Sounds/cat_mirall.mp3,2020-06-20_16h49.30.265,TranslationElicitation_spa,3.2.4,Win32,60,55lvve0vwnrihv0rihqipejv1nfnr,3.015000105,1,0,80,48,1,79
,,,,,,,,,,,,,,,,,,,,,,,,,,,,,,,,,,,,,,,,,,,,,154,mirall,Catalan,Sounds/cat_mirall.mp3,2020-06-20_16h49.30.265,TranslationElicitation_spa,3.2.4,Win32,60,55lvve0vwnrihv0rihqipejv1nfnr,,1,0,80,48,1,79
,,,,,,,,,,,,,,,,,,,,,,,,,,,,,,,,,,,g,1.648999929,G,FALSE,,,,,,,143,globus,Catalan,Sounds/cat_globus.mp3,2020-06-20_16h49.30.265,TranslationElicitation_spa,3.2.4,Win32,60,55lvve0vwnrihv0rihqipejv1nfnr,,1,0,80,38,1,79
,,,,,,,,,,,,,,,,,,,,,,,,,,,,,,,,,,,l,1.798000097,GL,FALSE,,,,,,,143,globus,Catalan,Sounds/cat_globus.mp3,2020-06-20_16h49.30.265,TranslationElicitation_spa,3.2.4,Win32,60,55lvve0vwnrihv0rihqipejv1nfnr,,1,0,80,38,1,79
,,,,,,,,,,,,,,,,,,,,,,,,,,,,,,,,,,,o,1.86500001,GLO,FALSE,,,,,,,143,globus,Catalan,Sounds/cat_globus.mp3,2020-06-20_16h49.30.265,TranslationElicitation_spa,3.2.4,Win32,60,55lvve0vwnrihv0rihqipejv1nfnr,,1,0,80,38,1,79
,,,,,,,,,,,,,,,,,,,,,,,,,,,,,,,,,,,b,2.065000057,GLOB,FALSE,,,,,,,143,globus,Catalan,Sounds/cat_globus.mp3,2020-06-20_16h49.30.265,TranslationElicitation_spa,3.2.4,Win32,60,55lvve0vwnrihv0rihqipejv1nfnr,,1,0,80,38,1,79
,,,,,,,,,,,,,,,,,,,,,,,,,,,,,,,,,,,o,2.181999922,GLOBO,FALSE,,,,,,,143,globus,Catalan,Sounds/cat_globus.mp3,2020-06-20_16h49.30.265,TranslationElicitation_spa,3.2.4,Win32,60,55lvve0vwnrihv0rihqipejv1nfnr,,1,0,80,38,1,79
,,,,,,,,,,,,,,,,,,,,,,,,,,,,,,,,,,,s,2.348999977,GLOBOS,FALSE,,,,,,,143,globus,Catalan,Sounds/cat_globus.mp3,2020-06-20_16h49.30.265,TranslationElicitation_spa,3.2.4,Win32,60,55lvve0vwnrihv0rihqipejv1nfnr,,1,0,80,38,1,79
,,,,,,,,,,,,,,,,,,,,,,,,,,,,,,,,,,,return,2.548000097,,FALSE,,,,,,,143,globus,Catalan,Sounds/cat_globus.mp3,2020-06-20_16h49.30.265,TranslationElicitation_spa,3.2.4,Win32,60,55lvve0vwnrihv0rihqipejv1nfnr,2.548000097,1,0,80,38,1,79
,,,,,,,,,,,,,,,,,,,,,,,,,,,,,,,,,,,,,,,,,,,,,143,globus,Catalan,Sounds/cat_globus.mp3,2020-06-20_16h49.30.265,TranslationElicitation_spa,3.2.4,Win32,60,55lvve0vwnrihv0rihqipejv1nfnr,,1,0,80,38,1,79
,,,,,,,,,,,,,,,,,,,,,,,,,,,,,,,,,,,n,2.781999826,N,FALSE,,,,,,,171,pollastre,Catalan,Sounds/cat_pollastre.mp3,2020-06-20_16h49.30.265,TranslationElicitation_spa,3.2.4,Win32,60,55lvve0vwnrihv0rihqipejv1nfnr,,1,0,80,63,1,79
,,,,,,,,,,,,,,,,,,,,,,,,,,,,,,,,,,,u,3.065999985,NU,FALSE,,,,,,,171,pollastre,Catalan,Sounds/cat_pollastre.mp3,2020-06-20_16h49.30.265,TranslationElicitation_spa,3.2.4,Win32,60,55lvve0vwnrihv0rihqipejv1nfnr,,1,0,80,63,1,79
,,,,,,,,,,,,,,,,,,,,,,,,,,,,,,,,,,,e,3.131999969,NUE,FALSE,,,,,,,171,pollastre,Catalan,Sounds/cat_pollastre.mp3,2020-06-20_16h49.30.265,TranslationElicitation_spa,3.2.4,Win32,60,55lvve0vwnrihv0rihqipejv1nfnr,,1,0,80,63,1,79
,,,,,,,,,,,,,,,,,,,,,,,,,,,,,,,,,,,s,3.214999914,NUES,FALSE,,,,,,,171,pollastre,Catalan,Sounds/cat_pollastre.mp3,2020-06-20_16h49.30.265,TranslationElicitation_spa,3.2.4,Win32,60,55lvve0vwnrihv0rihqipejv1nfnr,,1,0,80,63,1,79
,,,,,,,,,,,,,,,,,,,,,,,,,,,,,,,,,,,t,3.348999977,NUEST,FALSE,,,,,,,171,pollastre,Catalan,Sounds/cat_pollastre.mp3,2020-06-20_16h49.30.265,TranslationElicitation_spa,3.2.4,Win32,60,55lvve0vwnrihv0rihqipejv1nfnr,,1,0,80,63,1,79
,,,,,,,,,,,,,,,,,,,,,,,,,,,,,,,,,,,r,3.532999992,NUESTR,FALSE,,,,,,,171,pollastre,Catalan,Sounds/cat_pollastre.mp3,2020-06-20_16h49.30.265,TranslationElicitation_spa,3.2.4,Win32,60,55lvve0vwnrihv0rihqipejv1nfnr,,1,0,80,63,1,79
,,,,,,,,,,,,,,,,,,,,,,,,,,,,,,,,,,,a,3.615999937,NUESTRA,FALSE,,,,,,,171,pollastre,Catalan,Sounds/cat_pollastre.mp3,2020-06-20_16h49.30.265,TranslationElicitation_spa,3.2.4,Win32,60,55lvve0vwnrihv0rihqipejv1nfnr,,1,0,80,63,1,79
,,,,,,,,,,,,,,,,,,,,,,,,,,,,,,,,,,,return,4.215999842,,FALSE,,,,,,,171,pollastre,Catalan,Sounds/cat_pollastre.mp3,2020-06-20_16h49.30.265,TranslationElicitation_spa,3.2.4,Win32,60,55lvve0vwnrihv0rihqipejv1nfnr,4.215999842,1,0,80,63,1,79
,,,,,,,,,,,,,,,,,,,,,,,,,,,,,,,,,,,,,,,,,,,,,171,pollastre,Catalan,Sounds/cat_pollastre.mp3,2020-06-20_16h49.30.265,TranslationElicitation_spa,3.2.4,Win32,60,55lvve0vwnrihv0rihqipejv1nfnr,,1,0,80,63,1,79
,,,,,,,,,,,,,,,,,,,,,,,,,,,,,,,,,,,p,1.782000065,P,FALSE,,,,,,,163,papallona,Catalan,Sounds/cat_papallona.mp3,2020-06-20_16h49.30.265,TranslationElicitation_spa,3.2.4,Win32,60,55lvve0vwnrihv0rihqipejv1nfnr,,1,0,80,56,1,79
,,,,,,,,,,,,,,,,,,,,,,,,,,,,,,,,,,,a,1.915999889,PA,FALSE,,,,,,,163,papallona,Catalan,Sounds/cat_papallona.mp3,2020-06-20_16h49.30.265,TranslationElicitation_spa,3.2.4,Win32,60,55lvve0vwnrihv0rihqipejv1nfnr,,1,0,80,56,1,79
,,,,,,,,,,,,,,,,,,,,,,,,,,,,,,,,,,,p,2.049000025,PAP,FALSE,,,,,,,163,papallona,Catalan,Sounds/cat_papallona.mp3,2020-06-20_16h49.30.265,TranslationElicitation_spa,3.2.4,Win32,60,55lvve0vwnrihv0rihqipejv1nfnr,,1,0,80,56,1,79
,,,,,,,,,,,,,,,,,,,,,,,,,,,,,,,,,,,a,2.165999889,PAPA,FALSE,,,,,,,163,papallona,Catalan,Sounds/cat_papallona.mp3,2020-06-20_16h49.30.265,TranslationElicitation_spa,3.2.4,Win32,60,55lvve0vwnrihv0rihqipejv1nfnr,,1,0,80,56,1,79
,,,,,,,,,,,,,,,,,,,,,,,,,,,,,,,,,,,y,2.486000061,PAPAY,FALSE,,,,,,,163,papallona,Catalan,Sounds/cat_papallona.mp3,2020-06-20_16h49.30.265,TranslationElicitation_spa,3.2.4,Win32,60,55lvve0vwnrihv0rihqipejv1nfnr,,1,0,80,56,1,79
,,,,,,,,,,,,,,,,,,,,,,,,,,,,,,,,,,,a,2.698999882,PAPAYA,FALSE,,,,,,,163,papallona,Catalan,Sounds/cat_papallona.mp3,2020-06-20_16h49.30.265,TranslationElicitation_spa,3.2.4,Win32,60,55lvve0vwnrihv0rihqipejv1nfnr,,1,0,80,56,1,79
,,,,,,,,,,,,,,,,,,,,,,,,,,,,,,,,,,,return,3.148999929,,FALSE,,,,,,,163,papallona,Catalan,Sounds/cat_papallona.mp3,2020-06-20_16h49.30.265,TranslationElicitation_spa,3.2.4,Win32,60,55lvve0vwnrihv0rihqipejv1nfnr,3.148999929,1,0,80,56,1,79
,,,,,,,,,,,,,,,,,,,,,,,,,,,,,,,,,,,,,,,,,,,,,163,papallona,Catalan,Sounds/cat_papallona.mp3,2020-06-20_16h49.30.265,TranslationElicitation_spa,3.2.4,Win32,60,55lvve0vwnrihv0rihqipejv1nfnr,,1,0,80,56,1,79
,,,,,,,,,,,,,,,,,,,,,,,,,,,,,,,,,,,l,1.732000113,L,FALSE,,,,,,,151,lluna,Catalan,Sounds/cat_lluna.mp3,2020-06-20_16h49.30.265,TranslationElicitation_spa,3.2.4,Win32,60,55lvve0vwnrihv0rihqipejv1nfnr,,1,0,80,45,1,79
,,,,,,,,,,,,,,,,,,,,,,,,,,,,,,,,,,,u,1.94900012,LU,FALSE,,,,,,,151,lluna,Catalan,Sounds/cat_lluna.mp3,2020-06-20_16h49.30.265,TranslationElicitation_spa,3.2.4,Win32,60,55lvve0vwnrihv0rihqipejv1nfnr,,1,0,80,45,1,79
,,,,,,,,,,,,,,,,,,,,,,,,,,,,,,,,,,,n,2.065000057,LUN,FALSE,,,,,,,151,lluna,Catalan,Sounds/cat_lluna.mp3,2020-06-20_16h49.30.265,TranslationElicitation_spa,3.2.4,Win32,60,55lvve0vwnrihv0rihqipejv1nfnr,,1,0,80,45,1,79
,,,,,,,,,,,,,,,,,,,,,,,,,,,,,,,,,,,a,2.532000065,LUNA,FALSE,,,,,,,151,lluna,Catalan,Sounds/cat_lluna.mp3,2020-06-20_16h49.30.265,TranslationElicitation_spa,3.2.4,Win32,60,55lvve0vwnrihv0rihqipejv1nfnr,,1,0,80,45,1,79
,,,,,,,,,,,,,,,,,,,,,,,,,,,,,,,,,,,return,2.732000113,,FALSE,,,,,,,151,lluna,Catalan,Sounds/cat_lluna.mp3,2020-06-20_16h49.30.265,TranslationElicitation_spa,3.2.4,Win32,60,55lvve0vwnrihv0rihqipejv1nfnr,2.732000113,1,0,80,45,1,79
,,,,,,,,,,,,,,,,,,,,,,,,,,,,,,,,,,,,,,,,,,,,,151,lluna,Catalan,Sounds/cat_lluna.mp3,2020-06-20_16h49.30.265,TranslationElicitation_spa,3.2.4,Win32,60,55lvve0vwnrihv0rihqipejv1nfnr,,1,0,80,45,1,79
,,,,,,,,,,,,,,,,,,,,,,,,,,,,,,,,,,,p,1.764999866,P,FALSE,,,,,,,169,plat,Catalan,Sounds/cat_plat.mp3,2020-06-20_16h49.30.265,TranslationElicitation_spa,3.2.4,Win32,60,55lvve0vwnrihv0rihqipejv1nfnr,,1,0,80,61,1,79
,,,,,,,,,,,,,,,,,,,,,,,,,,,,,,,,,,,l,2.031999826,PL,FALSE,,,,,,,169,plat,Catalan,Sounds/cat_plat.mp3,2020-06-20_16h49.30.265,TranslationElicitation_spa,3.2.4,Win32,60,55lvve0vwnrihv0rihqipejv1nfnr,,1,0,80,61,1,79
,,,,,,,,,,,,,,,,,,,,,,,,,,,,,,,,,,,a,2.164999962,PLA,FALSE,,,,,,,169,plat,Catalan,Sounds/cat_plat.mp3,2020-06-20_16h49.30.265,TranslationElicitation_spa,3.2.4,Win32,60,55lvve0vwnrihv0rihqipejv1nfnr,,1,0,80,61,1,79
,,,,,,,,,,,,,,,,,,,,,,,,,,,,,,,,,,,t,2.248999834,PLAT,FALSE,,,,,,,169,plat,Catalan,Sounds/cat_plat.mp3,2020-06-20_16h49.30.265,TranslationElicitation_spa,3.2.4,Win32,60,55lvve0vwnrihv0rihqipejv1nfnr,,1,0,80,61,1,79
,,,,,,,,,,,,,,,,,,,,,,,,,,,,,,,,,,,o,2.36500001,PLATO,FALSE,,,,,,,169,plat,Catalan,Sounds/cat_plat.mp3,2020-06-20_16h49.30.265,TranslationElicitation_spa,3.2.4,Win32,60,55lvve0vwnrihv0rihqipejv1nfnr,,1,0,80,61,1,79
,,,,,,,,,,,,,,,,,,,,,,,,,,,,,,,,,,,return,2.514999866,,FALSE,,,,,,,169,plat,Catalan,Sounds/cat_plat.mp3,2020-06-20_16h49.30.265,TranslationElicitation_spa,3.2.4,Win32,60,55lvve0vwnrihv0rihqipejv1nfnr,2.514999866,1,0,80,61,1,79
,,,,,,,,,,,,,,,,,,,,,,,,,,,,,,,,,,,,,,,,,,,,,169,plat,Catalan,Sounds/cat_plat.mp3,2020-06-20_16h49.30.265,TranslationElicitation_spa,3.2.4,Win32,60,55lvve0vwnrihv0rihqipejv1nfnr,,1,0,80,61,1,79
,,,,,,,,,,,,,,,,,,,,,,,,,,,,,,,,,,,t,1.565999985,T,FALSE,,,,,,,183,tren,Catalan,Sounds/cat_tren.mp3,2020-06-20_16h49.30.265,TranslationElicitation_spa,3.2.4,Win32,60,55lvve0vwnrihv0rihqipejv1nfnr,,1,0,80,74,1,79
,,,,,,,,,,,,,,,,,,,,,,,,,,,,,,,,,,,r,1.832999945,TR,FALSE,,,,,,,183,tren,Catalan,Sounds/cat_tren.mp3,2020-06-20_16h49.30.265,TranslationElicitation_spa,3.2.4,Win32,60,55lvve0vwnrihv0rihqipejv1nfnr,,1,0,80,74,1,79
,,,,,,,,,,,,,,,,,,,,,,,,,,,,,,,,,,,e,1.937000036,TRE,FALSE,,,,,,,183,tren,Catalan,Sounds/cat_tren.mp3,2020-06-20_16h49.30.265,TranslationElicitation_spa,3.2.4,Win32,60,55lvve0vwnrihv0rihqipejv1nfnr,,1,0,80,74,1,79
,,,,,,,,,,,,,,,,,,,,,,,,,,,,,,,,,,,n,2.082000017,TREN,FALSE,,,,,,,183,tren,Catalan,Sounds/cat_tren.mp3,2020-06-20_16h49.30.265,TranslationElicitation_spa,3.2.4,Win32,60,55lvve0vwnrihv0rihqipejv1nfnr,,1,0,80,74,1,79
,,,,,,,,,,,,,,,,,,,,,,,,,,,,,,,,,,,return,2.332999945,,FALSE,,,,,,,183,tren,Catalan,Sounds/cat_tren.mp3,2020-06-20_16h49.30.265,TranslationElicitation_spa,3.2.4,Win32,60,55lvve0vwnrihv0rihqipejv1nfnr,2.332999945,1,0,80,74,1,79
,,,,,,,,,,,,,,,,,,,,,,,,,,,,,,,,,,,,,,,,,,,,,183,tren,Catalan,Sounds/cat_tren.mp3,2020-06-20_16h49.30.265,TranslationElicitation_spa,3.2.4,Win32,60,55lvve0vwnrihv0rihqipejv1nfnr,,1,0,80,74,1,79
,,,,,,,,,,,,,,,,,,,,,,,,,,,,,,,,,,,j,1.347999811,J,FALSE,,,,,,,142,girafa,Catalan,Sounds/cat_girafa.mp3,2020-06-20_16h49.30.265,TranslationElicitation_spa,3.2.4,Win32,60,55lvve0vwnrihv0rihqipejv1nfnr,,1,0,80,37,1,79
,,,,,,,,,,,,,,,,,,,,,,,,,,,,,,,,,,,i,1.447999954,JI,FALSE,,,,,,,142,girafa,Catalan,Sounds/cat_girafa.mp3,2020-06-20_16h49.30.265,TranslationElicitation_spa,3.2.4,Win32,60,55lvve0vwnrihv0rihqipejv1nfnr,,1,0,80,37,1,79
,,,,,,,,,,,,,,,,,,,,,,,,,,,,,,,,,,,r,1.547999859,JIR,FALSE,,,,,,,142,girafa,Catalan,Sounds/cat_girafa.mp3,2020-06-20_16h49.30.265,TranslationElicitation_spa,3.2.4,Win32,60,55lvve0vwnrihv0rihqipejv1nfnr,,1,0,80,37,1,79
,,,,,,,,,,,,,,,,,,,,,,,,,,,,,,,,,,,a,1.648999929,JIRA,FALSE,,,,,,,142,girafa,Catalan,Sounds/cat_girafa.mp3,2020-06-20_16h49.30.265,TranslationElicitation_spa,3.2.4,Win32,60,55lvve0vwnrihv0rihqipejv1nfnr,,1,0,80,37,1,79
,,,,,,,,,,,,,,,,,,,,,,,,,,,,,,,,,,,f,1.830999851,JIRAF,FALSE,,,,,,,142,girafa,Catalan,Sounds/cat_girafa.mp3,2020-06-20_16h49.30.265,TranslationElicitation_spa,3.2.4,Win32,60,55lvve0vwnrihv0rihqipejv1nfnr,,1,0,80,37,1,79
,,,,,,,,,,,,,,,,,,,,,,,,,,,,,,,,,,,a,1.931999922,JIRAFA,FALSE,,,,,,,142,girafa,Catalan,Sounds/cat_girafa.mp3,2020-06-20_16h49.30.265,TranslationElicitation_spa,3.2.4,Win32,60,55lvve0vwnrihv0rihqipejv1nfnr,,1,0,80,37,1,79
,,,,,,,,,,,,,,,,,,,,,,,,,,,,,,,,,,,return,2.081999779,,FALSE,,,,,,,142,girafa,Catalan,Sounds/cat_girafa.mp3,2020-06-20_16h49.30.265,TranslationElicitation_spa,3.2.4,Win32,60,55lvve0vwnrihv0rihqipejv1nfnr,2.081999779,1,0,80,37,1,79
,,,,,,,,,,,,,,,,,,,,,,,,,,,,,,,,,,,,,,,,,,,,,142,girafa,Catalan,Sounds/cat_girafa.mp3,2020-06-20_16h49.30.265,TranslationElicitation_spa,3.2.4,Win32,60,55lvve0vwnrihv0rihqipejv1nfnr,,1,0,80,37,1,79
,,,,,,,,,,,,,,,,,,,,,,,,,,,,,,,,,,,m,1.482000113,M,FALSE,,,,,,,152,ma,Catalan,Sounds/cat_ma.mp3,2020-06-20_16h49.30.265,TranslationElicitation_spa,3.2.4,Win32,60,55lvve0vwnrihv0rihqipejv1nfnr,,1,0,80,46,1,79
,,,,,,,,,,,,,,,,,,,,,,,,,,,,,,,,,,,a,1.683000088,MA,FALSE,,,,,,,152,ma,Catalan,Sounds/cat_ma.mp3,2020-06-20_16h49.30.265,TranslationElicitation_spa,3.2.4,Win32,60,55lvve0vwnrihv0rihqipejv1nfnr,,1,0,80,46,1,79
,,,,,,,,,,,,,,,,,,,,,,,,,,,,,,,,,,,r,1.799000025,MAR,FALSE,,,,,,,152,ma,Catalan,Sounds/cat_ma.mp3,2020-06-20_16h49.30.265,TranslationElicitation_spa,3.2.4,Win32,60,55lvve0vwnrihv0rihqipejv1nfnr,,1,0,80,46,1,79
,,,,,,,,,,,,,,,,,,,,,,,,,,,,,,,,,,,backspace,2.532999992,M,TRUE,,,,,,,152,ma,Catalan,Sounds/cat_ma.mp3,2020-06-20_16h49.30.265,TranslationElicitation_spa,3.2.4,Win32,60,55lvve0vwnrihv0rihqipejv1nfnr,,1,0,80,46,1,79
,,,,,,,,,,,,,,,,,,,,,,,,,,,,,,,,,,,d,2.666000128,MD,TRUE,,,,,,,152,ma,Catalan,Sounds/cat_ma.mp3,2020-06-20_16h49.30.265,TranslationElicitation_spa,3.2.4,Win32,60,55lvve0vwnrihv0rihqipejv1nfnr,,1,0,80,46,1,79
,,,,,,,,,,,,,,,,,,,,,,,,,,,,,,,,,,,r,2.898999929,MDR,TRUE,,,,,,,152,ma,Catalan,Sounds/cat_ma.mp3,2020-06-20_16h49.30.265,TranslationElicitation_spa,3.2.4,Win32,60,55lvve0vwnrihv0rihqipejv1nfnr,,1,0,80,46,1,79
,,,,,,,,,,,,,,,,,,,,,,,,,,,,,,,,,,,e,2.98300004,MDRE,TRUE,,,,,,,152,ma,Catalan,Sounds/cat_ma.mp3,2020-06-20_16h49.30.265,TranslationElicitation_spa,3.2.4,Win32,60,55lvve0vwnrihv0rihqipejv1nfnr,,1,0,80,46,1,79
,,,,,,,,,,,,,,,,,,,,,,,,,,,,,,,,,,,backspace,3.650000095,MD,TRUE,,,,,,,152,ma,Catalan,Sounds/cat_ma.mp3,2020-06-20_16h49.30.265,TranslationElicitation_spa,3.2.4,Win32,60,55lvve0vwnrihv0rihqipejv1nfnr,,1,0,80,46,1,79
,,,,,,,,,,,,,,,,,,,,,,,,,,,,,,,,,,,backspace,4.200000048,,TRUE,,,,,,,152,ma,Catalan,Sounds/cat_ma.mp3,2020-06-20_16h49.30.265,TranslationElicitation_spa,3.2.4,Win32,60,55lvve0vwnrihv0rihqipejv1nfnr,,1,0,80,46,1,79
,,,,,,,,,,,,,,,,,,,,,,,,,,,,,,,,,,,a,4.53399992,A,TRUE,,,,,,,152,ma,Catalan,Sounds/cat_ma.mp3,2020-06-20_16h49.30.265,TranslationElicitation_spa,3.2.4,Win32,60,55lvve0vwnrihv0rihqipejv1nfnr,,1,0,80,46,1,79
,,,,,,,,,,,,,,,,,,,,,,,,,,,,,,,,,,,backspace,5.000999928,,TRUE,,,,,,,152,ma,Catalan,Sounds/cat_ma.mp3,2020-06-20_16h49.30.265,TranslationElicitation_spa,3.2.4,Win32,60,55lvve0vwnrihv0rihqipejv1nfnr,,1,0,80,46,1,79
,,,,,,,,,,,,,,,,,,,,,,,,,,,,,,,,,,,m,5.73300004,M,TRUE,,,,,,,152,ma,Catalan,Sounds/cat_ma.mp3,2020-06-20_16h49.30.265,TranslationElicitation_spa,3.2.4,Win32,60,55lvve0vwnrihv0rihqipejv1nfnr,,1,0,80,46,1,79
,,,,,,,,,,,,,,,,,,,,,,,,,,,,,,,,,,,a,5.851000071,MA,TRUE,,,,,,,152,ma,Catalan,Sounds/cat_ma.mp3,2020-06-20_16h49.30.265,TranslationElicitation_spa,3.2.4,Win32,60,55lvve0vwnrihv0rihqipejv1nfnr,,1,0,80,46,1,79
,,,,,,,,,,,,,,,,,,,,,,,,,,,,,,,,,,,d,5.983999968,MAD,TRUE,,,,,,,152,ma,Catalan,Sounds/cat_ma.mp3,2020-06-20_16h49.30.265,TranslationElicitation_spa,3.2.4,Win32,60,55lvve0vwnrihv0rihqipejv1nfnr,,1,0,80,46,1,79
,,,,,,,,,,,,,,,,,,,,,,,,,,,,,,,,,,,r,6.202000141,MADR,TRUE,,,,,,,152,ma,Catalan,Sounds/cat_ma.mp3,2020-06-20_16h49.30.265,TranslationElicitation_spa,3.2.4,Win32,60,55lvve0vwnrihv0rihqipejv1nfnr,,1,0,80,46,1,79
,,,,,,,,,,,,,,,,,,,,,,,,,,,,,,,,,,,e,6.305000067,MADRE,TRUE,,,,,,,152,ma,Catalan,Sounds/cat_ma.mp3,2020-06-20_16h49.30.265,TranslationElicitation_spa,3.2.4,Win32,60,55lvve0vwnrihv0rihqipejv1nfnr,,1,0,80,46,1,79
,,,,,,,,,,,,,,,,,,,,,,,,,,,,,,,,,,,return,6.434000015,,TRUE,,,,,,,152,ma,Catalan,Sounds/cat_ma.mp3,2020-06-20_16h49.30.265,TranslationElicitation_spa,3.2.4,Win32,60,55lvve0vwnrihv0rihqipejv1nfnr,6.434000015,1,0,80,46,1,79
,,,,,,,,,,,,,,,,,,,,,,,,,,,,,,,,,,,,,,,,,,,,,152,ma,Catalan,Sounds/cat_ma.mp3,2020-06-20_16h49.30.265,TranslationElicitation_spa,3.2.4,Win32,60,55lvve0vwnrihv0rihqipejv1nfnr,,1,0,80,46,1,79
,,,,,,,,,,,,,,,,,,,,,,,,,,,,,,,,,,,c,1.381999969,C,FALSE,,,,,,,127,cotxe,Catalan,Sounds/cat_cotxe.mp3,2020-06-20_16h49.30.265,TranslationElicitation_spa,3.2.4,Win32,60,55lvve0vwnrihv0rihqipejv1nfnr,,1,0,80,22,1,79
,,,,,,,,,,,,,,,,,,,,,,,,,,,,,,,,,,,o,1.531999826,CO,FALSE,,,,,,,127,cotxe,Catalan,Sounds/cat_cotxe.mp3,2020-06-20_16h49.30.265,TranslationElicitation_spa,3.2.4,Win32,60,55lvve0vwnrihv0rihqipejv1nfnr,,1,0,80,22,1,79
,,,,,,,,,,,,,,,,,,,,,,,,,,,,,,,,,,,c,1.631999969,COC,FALSE,,,,,,,127,cotxe,Catalan,Sounds/cat_cotxe.mp3,2020-06-20_16h49.30.265,TranslationElicitation_spa,3.2.4,Win32,60,55lvve0vwnrihv0rihqipejv1nfnr,,1,0,80,22,1,79
,,,,,,,,,,,,,,,,,,,,,,,,,,,,,,,,,,,h,1.766000032,COCH,FALSE,,,,,,,127,cotxe,Catalan,Sounds/cat_cotxe.mp3,2020-06-20_16h49.30.265,TranslationElicitation_spa,3.2.4,Win32,60,55lvve0vwnrihv0rihqipejv1nfnr,,1,0,80,22,1,79
,,,,,,,,,,,,,,,,,,,,,,,,,,,,,,,,,,,e,1.899999857,COCHE,FALSE,,,,,,,127,cotxe,Catalan,Sounds/cat_cotxe.mp3,2020-06-20_16h49.30.265,TranslationElicitation_spa,3.2.4,Win32,60,55lvve0vwnrihv0rihqipejv1nfnr,,1,0,80,22,1,79
,,,,,,,,,,,,,,,,,,,,,,,,,,,,,,,,,,,return,2.098999977,,FALSE,,,,,,,127,cotxe,Catalan,Sounds/cat_cotxe.mp3,2020-06-20_16h49.30.265,TranslationElicitation_spa,3.2.4,Win32,60,55lvve0vwnrihv0rihqipejv1nfnr,2.098999977,1,0,80,22,1,79
,,,,,,,,,,,,,,,,,,,,,,,,,,,,,,,,,,,,,,,,,,,,,127,cotxe,Catalan,Sounds/cat_cotxe.mp3,2020-06-20_16h49.30.265,TranslationElicitation_spa,3.2.4,Win32,60,55lvve0vwnrihv0rihqipejv1nfnr,,1,0,80,22,1,79
,,,,,,,,,,,,,,,,,,,,,,,,,,,,,,,,,,,b,1.299000025,B,FALSE,,,,,,,113,boca,Catalan,Sounds/cat_boca.mp3,2020-06-20_16h49.30.265,TranslationElicitation_spa,3.2.4,Win32,60,55lvve0vwnrihv0rihqipejv1nfnr,,1,0,80,8,1,79
,,,,,,,,,,,,,,,,,,,,,,,,,,,,,,,,,,,o,1.433000088,BO,FALSE,,,,,,,113,boca,Catalan,Sounds/cat_boca.mp3,2020-06-20_16h49.30.265,TranslationElicitation_spa,3.2.4,Win32,60,55lvve0vwnrihv0rihqipejv1nfnr,,1,0,80,8,1,79
,,,,,,,,,,,,,,,,,,,,,,,,,,,,,,,,,,,c,1.567000151,BOC,FALSE,,,,,,,113,boca,Catalan,Sounds/cat_boca.mp3,2020-06-20_16h49.30.265,TranslationElicitation_spa,3.2.4,Win32,60,55lvve0vwnrihv0rihqipejv1nfnr,,1,0,80,8,1,79
,,,,,,,,,,,,,,,,,,,,,,,,,,,,,,,,,,,a,1.666000128,BOCA,FALSE,,,,,,,113,boca,Catalan,Sounds/cat_boca.mp3,2020-06-20_16h49.30.265,TranslationElicitation_spa,3.2.4,Win32,60,55lvve0vwnrihv0rihqipejv1nfnr,,1,0,80,8,1,79
,,,,,,,,,,,,,,,,,,,,,,,,,,,,,,,,,,,return,1.869000196,,FALSE,,,,,,,113,boca,Catalan,Sounds/cat_boca.mp3,2020-06-20_16h49.30.265,TranslationElicitation_spa,3.2.4,Win32,60,55lvve0vwnrihv0rihqipejv1nfnr,1.869000196,1,0,80,8,1,79
,,,,,,,,,,,,,,,,,,,,,,,,,,,,,,,,,,,,,,,,,,,,,113,boca,Catalan,Sounds/cat_boca.mp3,2020-06-20_16h49.30.265,TranslationElicitation_spa,3.2.4,Win32,60,55lvve0vwnrihv0rihqipejv1nfnr,,1,0,80,8,1,79
,,,,,,,,,,,,,,,,,,,,,,,,,,,,,,,,,,,m,1.849999905,M,FALSE,,,,,,,107,amanida,Catalan,Sounds/cat_amanida.mp3,2020-06-20_16h49.30.265,TranslationElicitation_spa,3.2.4,Win32,60,55lvve0vwnrihv0rihqipejv1nfnr,,1,0,80,3,1,79
,,,,,,,,,,,,,,,,,,,,,,,,,,,,,,,,,,,backspace,4.083999872,,TRUE,,,,,,,107,amanida,Catalan,Sounds/cat_amanida.mp3,2020-06-20_16h49.30.265,TranslationElicitation_spa,3.2.4,Win32,60,55lvve0vwnrihv0rihqipejv1nfnr,,1,0,80,3,1,79
,,,,,,,,,,,,,,,,,,,,,,,,,,,,,,,,,,,a,4.217999935,A,TRUE,,,,,,,107,amanida,Catalan,Sounds/cat_amanida.mp3,2020-06-20_16h49.30.265,TranslationElicitation_spa,3.2.4,Win32,60,55lvve0vwnrihv0rihqipejv1nfnr,,1,0,80,3,1,79
,,,,,,,,,,,,,,,,,,,,,,,,,,,,,,,,,,,m,4.401000023,AM,TRUE,,,,,,,107,amanida,Catalan,Sounds/cat_amanida.mp3,2020-06-20_16h49.30.265,TranslationElicitation_spa,3.2.4,Win32,60,55lvve0vwnrihv0rihqipejv1nfnr,,1,0,80,3,1,79
,,,,,,,,,,,,,,,,,,,,,,,,,,,,,,,,,,,a,4.434999943,AMA,TRUE,,,,,,,107,amanida,Catalan,Sounds/cat_amanida.mp3,2020-06-20_16h49.30.265,TranslationElicitation_spa,3.2.4,Win32,60,55lvve0vwnrihv0rihqipejv1nfnr,,1,0,80,3,1,79
,,,,,,,,,,,,,,,,,,,,,,,,,,,,,,,,,,,r,4.569000006,AMAR,TRUE,,,,,,,107,amanida,Catalan,Sounds/cat_amanida.mp3,2020-06-20_16h49.30.265,TranslationElicitation_spa,3.2.4,Win32,60,55lvve0vwnrihv0rihqipejv1nfnr,,1,0,80,3,1,79
,,,,,,,,,,,,,,,,,,,,,,,,,,,,,,,,,,,i,4.667999983,AMARI,TRUE,,,,,,,107,amanida,Catalan,Sounds/cat_amanida.mp3,2020-06-20_16h49.30.265,TranslationElicitation_spa,3.2.4,Win32,60,55lvve0vwnrihv0rihqipejv1nfnr,,1,0,80,3,1,79
,,,,,,,,,,,,,,,,,,,,,,,,,,,,,,,,,,,l,4.866999865,AMARIL,TRUE,,,,,,,107,amanida,Catalan,Sounds/cat_amanida.mp3,2020-06-20_16h49.30.265,TranslationElicitation_spa,3.2.4,Win32,60,55lvve0vwnrihv0rihqipejv1nfnr,,1,0,80,3,1,79
,,,,,,,,,,,,,,,,,,,,,,,,,,,,,,,,,,,l,5.035000086,AMARILL,TRUE,,,,,,,107,amanida,Catalan,Sounds/cat_amanida.mp3,2020-06-20_16h49.30.265,TranslationElicitation_spa,3.2.4,Win32,60,55lvve0vwnrihv0rihqipejv1nfnr,,1,0,80,3,1,79
,,,,,,,,,,,,,,,,,,,,,,,,,,,,,,,,,,,a,5.068000078,AMARILLA,TRUE,,,,,,,107,amanida,Catalan,Sounds/cat_amanida.mp3,2020-06-20_16h49.30.265,TranslationElicitation_spa,3.2.4,Win32,60,55lvve0vwnrihv0rihqipejv1nfnr,,1,0,80,3,1,79
,,,,,,,,,,,,,,,,,,,,,,,,,,,,,,,,,,,return,5.55099988,,TRUE,,,,,,,107,amanida,Catalan,Sounds/cat_amanida.mp3,2020-06-20_16h49.30.265,TranslationElicitation_spa,3.2.4,Win32,60,55lvve0vwnrihv0rihqipejv1nfnr,5.55099988,1,0,80,3,1,79
,,,,,,,,,,,,,,,,,,,,,,,,,,,,,,,,,,,,,,,,,,,,,107,amanida,Catalan,Sounds/cat_amanida.mp3,2020-06-20_16h49.30.265,TranslationElicitation_spa,3.2.4,Win32,60,55lvve0vwnrihv0rihqipejv1nfnr,,1,0,80,3,1,79
,,,,,,,,,,,,,,,,,,,,,,,,,,,,,,,,,,,b,1.700000048,B,FALSE,,,,,,,118,bou,Catalan,Sounds/cat_bou.mp3,2020-06-20_16h49.30.265,TranslationElicitation_spa,3.2.4,Win32,60,55lvve0vwnrihv0rihqipejv1nfnr,,1,0,80,13,1,79
,,,,,,,,,,,,,,,,,,,,,,,,,,,,,,,,,,,a,2.5,BA,FALSE,,,,,,,118,bou,Catalan,Sounds/cat_bou.mp3,2020-06-20_16h49.30.265,TranslationElicitation_spa,3.2.4,Win32,60,55lvve0vwnrihv0rihqipejv1nfnr,,1,0,80,13,1,79
,,,,,,,,,,,,,,,,,,,,,,,,,,,,,,,,,,,r,2.566999912,BAR,FALSE,,,,,,,118,bou,Catalan,Sounds/cat_bou.mp3,2020-06-20_16h49.30.265,TranslationElicitation_spa,3.2.4,Win32,60,55lvve0vwnrihv0rihqipejv1nfnr,,1,0,80,13,1,79
,,,,,,,,,,,,,,,,,,,,,,,,,,,,,,,,,,,c,5.551000118,BARC,FALSE,,,,,,,118,bou,Catalan,Sounds/cat_bou.mp3,2020-06-20_16h49.30.265,TranslationElicitation_spa,3.2.4,Win32,60,55lvve0vwnrihv0rihqipejv1nfnr,,1,0,80,13,1,79
,,,,,,,,,,,,,,,,,,,,,,,,,,,,,,,,,,,o,5.684000015,BARCO,FALSE,,,,,,,118,bou,Catalan,Sounds/cat_bou.mp3,2020-06-20_16h49.30.265,TranslationElicitation_spa,3.2.4,Win32,60,55lvve0vwnrihv0rihqipejv1nfnr,,1,0,80,13,1,79
,,,,,,,,,,,,,,,,,,,,,,,,,,,,,,,,,,,return,6.651000023,,FALSE,,,,,,,118,bou,Catalan,Sounds/cat_bou.mp3,2020-06-20_16h49.30.265,TranslationElicitation_spa,3.2.4,Win32,60,55lvve0vwnrihv0rihqipejv1nfnr,6.651000023,1,0,80,13,1,79
,,,,,,,,,,,,,,,,,,,,,,,,,,,,,,,,,,,,,,,,,,,,,118,bou,Catalan,Sounds/cat_bou.mp3,2020-06-20_16h49.30.265,TranslationElicitation_spa,3.2.4,Win32,60,55lvve0vwnrihv0rihqipejv1nfnr,,1,0,80,13,1,79
,,,,,,,,,,,,,,,,,,,,,,,,,,,,,,,,,,,b,2.457000017,B,FALSE,,,,,,,187,vaixell,Catalan,Sounds/cat_vaixell.mp3,2020-06-20_16h49.30.265,TranslationElicitation_spa,3.2.4,Win32,60,55lvve0vwnrihv0rihqipejv1nfnr,,1,0,80,77,1,79
,,,,,,,,,,,,,,,,,,,,,,,,,,,,,,,,,,,a,2.57400012,BA,FALSE,,,,,,,187,vaixell,Catalan,Sounds/cat_vaixell.mp3,2020-06-20_16h49.30.265,TranslationElicitation_spa,3.2.4,Win32,60,55lvve0vwnrihv0rihqipejv1nfnr,,1,0,80,77,1,79
,,,,,,,,,,,,,,,,,,,,,,,,,,,,,,,,,,,l,2.690999985,BAL,FALSE,,,,,,,187,vaixell,Catalan,Sounds/cat_vaixell.mp3,2020-06-20_16h49.30.265,TranslationElicitation_spa,3.2.4,Win32,60,55lvve0vwnrihv0rihqipejv1nfnr,,1,0,80,77,1,79
,,,,,,,,,,,,,,,,,,,,,,,,,,,,,,,,,,,l,2.857000113,BALL,FALSE,,,,,,,187,vaixell,Catalan,Sounds/cat_vaixell.mp3,2020-06-20_16h49.30.265,TranslationElicitation_spa,3.2.4,Win32,60,55lvve0vwnrihv0rihqipejv1nfnr,,1,0,80,77,1,79
,,,,,,,,,,,,,,,,,,,,,,,,,,,,,,,,,,,e,2.940999985,BALLE,FALSE,,,,,,,187,vaixell,Catalan,Sounds/cat_vaixell.mp3,2020-06-20_16h49.30.265,TranslationElicitation_spa,3.2.4,Win32,60,55lvve0vwnrihv0rihqipejv1nfnr,,1,0,80,77,1,79
,,,,,,,,,,,,,,,,,,,,,,,,,,,,,,,,,,,t,3.085999966,BALLET,FALSE,,,,,,,187,vaixell,Catalan,Sounds/cat_vaixell.mp3,2020-06-20_16h49.30.265,TranslationElicitation_spa,3.2.4,Win32,60,55lvve0vwnrihv0rihqipejv1nfnr,,1,0,80,77,1,79
,,,,,,,,,,,,,,,,,,,,,,,,,,,,,,,,,,,return,3.30700016,,FALSE,,,,,,,187,vaixell,Catalan,Sounds/cat_vaixell.mp3,2020-06-20_16h49.30.265,TranslationElicitation_spa,3.2.4,Win32,60,55lvve0vwnrihv0rihqipejv1nfnr,3.30700016,1,0,80,77,1,79
,,,,,,,,,,,,,,,,,,,,,,,,,,,,,,,,,,,,,,,,,,,,,187,vaixell,Catalan,Sounds/cat_vaixell.mp3,2020-06-20_16h49.30.265,TranslationElicitation_spa,3.2.4,Win32,60,55lvve0vwnrihv0rihqipejv1nfnr,,1,0,80,77,1,79
,,,,,,,,,,,,,,,,,,,,,,,,,,,,,,,,,,,n,3.465999842,N,FALSE,,,,,,,158,nas,Catalan,Sounds/cat_nas.mp3,2020-06-20_16h49.30.265,TranslationElicitation_spa,3.2.4,Win32,60,55lvve0vwnrihv0rihqipejv1nfnr,,1,0,80,52,1,79
,,,,,,,,,,,,,,,,,,,,,,,,,,,,,,,,,,,a,3.650999784,NA,FALSE,,,,,,,158,nas,Catalan,Sounds/cat_nas.mp3,2020-06-20_16h49.30.265,TranslationElicitation_spa,3.2.4,Win32,60,55lvve0vwnrihv0rihqipejv1nfnr,,1,0,80,52,1,79
,,,,,,,,,,,,,,,,,,,,,,,,,,,,,,,,,,,r,3.782999992,NAR,FALSE,,,,,,,158,nas,Catalan,Sounds/cat_nas.mp3,2020-06-20_16h49.30.265,TranslationElicitation_spa,3.2.4,Win32,60,55lvve0vwnrihv0rihqipejv1nfnr,,1,0,80,52,1,79
,,,,,,,,,,,,,,,,,,,,,,,,,,,,,,,,,,,i,3.965999842,NARI,FALSE,,,,,,,158,nas,Catalan,Sounds/cat_nas.mp3,2020-06-20_16h49.30.265,TranslationElicitation_spa,3.2.4,Win32,60,55lvve0vwnrihv0rihqipejv1nfnr,,1,0,80,52,1,79
,,,,,,,,,,,,,,,,,,,,,,,,,,,,,,,,,,,z,4.115999937,NARIZ,FALSE,,,,,,,158,nas,Catalan,Sounds/cat_nas.mp3,2020-06-20_16h49.30.265,TranslationElicitation_spa,3.2.4,Win32,60,55lvve0vwnrihv0rihqipejv1nfnr,,1,0,80,52,1,79
,,,,,,,,,,,,,,,,,,,,,,,,,,,,,,,,,,,return,4.632999897,,FALSE,,,,,,,158,nas,Catalan,Sounds/cat_nas.mp3,2020-06-20_16h49.30.265,TranslationElicitation_spa,3.2.4,Win32,60,55lvve0vwnrihv0rihqipejv1nfnr,4.632999897,1,0,80,52,1,79
,,,,,,,,,,,,,,,,,,,,,,,,,,,,,,,,,,,,,,,,,,,,,158,nas,Catalan,Sounds/cat_nas.mp3,2020-06-20_16h49.30.265,TranslationElicitation_spa,3.2.4,Win32,60,55lvve0vwnrihv0rihqipejv1nfnr,,1,0,80,52,1,79
,,,,,,,,,,,,,,,,,,,,,,,,,,,,,,,,,,,b,2.280999899,B,FALSE,,,,,,,110,berenar,Catalan,Sounds/cat_berenar.mp3,2020-06-20_16h49.30.265,TranslationElicitation_spa,3.2.4,Win32,60,55lvve0vwnrihv0rihqipejv1nfnr,,1,0,80,5,1,79
,,,,,,,,,,,,,,,,,,,,,,,,,,,,,,,,,,,r,2.381999969,BR,FALSE,,,,,,,110,berenar,Catalan,Sounds/cat_berenar.mp3,2020-06-20_16h49.30.265,TranslationElicitation_spa,3.2.4,Win32,60,55lvve0vwnrihv0rihqipejv1nfnr,,1,0,80,5,1,79
,,,,,,,,,,,,,,,,,,,,,,,,,,,,,,,,,,,a,2.848999977,BRA,FALSE,,,,,,,110,berenar,Catalan,Sounds/cat_berenar.mp3,2020-06-20_16h49.30.265,TranslationElicitation_spa,3.2.4,Win32,60,55lvve0vwnrihv0rihqipejv1nfnr,,1,0,80,5,1,79
,,,,,,,,,,,,,,,,,,,,,,,,,,,,,,,,,,,z,3.332000017,BRAZ,FALSE,,,,,,,110,berenar,Catalan,Sounds/cat_berenar.mp3,2020-06-20_16h49.30.265,TranslationElicitation_spa,3.2.4,Win32,60,55lvve0vwnrihv0rihqipejv1nfnr,,1,0,80,5,1,79
,,,,,,,,,,,,,,,,,,,,,,,,,,,,,,,,,,,o,3.450000048,BRAZO,FALSE,,,,,,,110,berenar,Catalan,Sounds/cat_berenar.mp3,2020-06-20_16h49.30.265,TranslationElicitation_spa,3.2.4,Win32,60,55lvve0vwnrihv0rihqipejv1nfnr,,1,0,80,5,1,79
,,,,,,,,,,,,,,,,,,,,,,,,,,,,,,,,,,,return,4.131999969,,FALSE,,,,,,,110,berenar,Catalan,Sounds/cat_berenar.mp3,2020-06-20_16h49.30.265,TranslationElicitation_spa,3.2.4,Win32,60,55lvve0vwnrihv0rihqipejv1nfnr,4.131999969,1,0,80,5,1,79
,,,,,,,,,,,,,,,,,,,,,,,,,,,,,,,,,,,,,,,,,,,,,110,berenar,Catalan,Sounds/cat_berenar.mp3,2020-06-20_16h49.30.265,TranslationElicitation_spa,3.2.4,Win32,60,55lvve0vwnrihv0rihqipejv1nfnr,,1,0,80,5,1,79
,,,,,,,,,,,,,,,,,,,,,,,,,,,,,,,,,,,a,1.86500001,A,FALSE,,,,,,,104,abella,Catalan,Sounds/cat_abella.mp3,2020-06-20_16h49.30.265,TranslationElicitation_spa,3.2.4,Win32,60,55lvve0vwnrihv0rihqipejv1nfnr,,1,0,80,0,1,79
,,,,,,,,,,,,,,,,,,,,,,,,,,,,,,,,,,,v,2.549000025,AV,FALSE,,,,,,,104,abella,Catalan,Sounds/cat_abella.mp3,2020-06-20_16h49.30.265,TranslationElicitation_spa,3.2.4,Win32,60,55lvve0vwnrihv0rihqipejv1nfnr,,1,0,80,0,1,79
,,,,,,,,,,,,,,,,,,,,,,,,,,,,,,,,,,,e,2.648999929,AVE,FALSE,,,,,,,104,abella,Catalan,Sounds/cat_abella.mp3,2020-06-20_16h49.30.265,TranslationElicitation_spa,3.2.4,Win32,60,55lvve0vwnrihv0rihqipejv1nfnr,,1,0,80,0,1,79
,,,,,,,,,,,,,,,,,,,,,,,,,,,,,,,,,,,l,2.782000065,AVEL,FALSE,,,,,,,104,abella,Catalan,Sounds/cat_abella.mp3,2020-06-20_16h49.30.265,TranslationElicitation_spa,3.2.4,Win32,60,55lvve0vwnrihv0rihqipejv1nfnr,,1,0,80,0,1,79
,,,,,,,,,,,,,,,,,,,,,,,,,,,,,,,,,,,l,2.950000048,AVELL,FALSE,,,,,,,104,abella,Catalan,Sounds/cat_abella.mp3,2020-06-20_16h49.30.265,TranslationElicitation_spa,3.2.4,Win32,60,55lvve0vwnrihv0rihqipejv1nfnr,,1,0,80,0,1,79
,,,,,,,,,,,,,,,,,,,,,,,,,,,,,,,,,,,a,3.065999985,AVELLA,FALSE,,,,,,,104,abella,Catalan,Sounds/cat_abella.mp3,2020-06-20_16h49.30.265,TranslationElicitation_spa,3.2.4,Win32,60,55lvve0vwnrihv0rihqipejv1nfnr,,1,0,80,0,1,79
,,,,,,,,,,,,,,,,,,,,,,,,,,,,,,,,,,,n,3.190000057,AVELLAN,FALSE,,,,,,,104,abella,Catalan,Sounds/cat_abella.mp3,2020-06-20_16h49.30.265,TranslationElicitation_spa,3.2.4,Win32,60,55lvve0vwnrihv0rihqipejv1nfnr,,1,0,80,0,1,79
,,,,,,,,,,,,,,,,,,,,,,,,,,,,,,,,,,,a,3.250999928,AVELLANA,FALSE,,,,,,,104,abella,Catalan,Sounds/cat_abella.mp3,2020-06-20_16h49.30.265,TranslationElicitation_spa,3.2.4,Win32,60,55lvve0vwnrihv0rihqipejv1nfnr,,1,0,80,0,1,79
,,,,,,,,,,,,,,,,,,,,,,,,,,,,,,,,,,,return,3.549000025,,FALSE,,,,,,,104,abella,Catalan,Sounds/cat_abella.mp3,2020-06-20_16h49.30.265,TranslationElicitation_spa,3.2.4,Win32,60,55lvve0vwnrihv0rihqipejv1nfnr,3.549000025,1,0,80,0,1,79
,,,,,,,,,,,,,,,,,,,,,,,,,,,,,,,,,,,,,,,,,,,,,104,abella,Catalan,Sounds/cat_abella.mp3,2020-06-20_16h49.30.265,TranslationElicitation_spa,3.2.4,Win32,60,55lvve0vwnrihv0rihqipejv1nfnr,,1,0,80,0,1,79
,,,,,,,,,,,,,,,,,,,,,,,,,,,,,,,,,,,o,1.282999992,O,FALSE,,,,,,,161,ovella,Catalan,Sounds/cat_ovella.mp3,2020-06-20_16h49.30.265,TranslationElicitation_spa,3.2.4,Win32,60,55lvve0vwnrihv0rihqipejv1nfnr,,1,0,80,54,1,79
,,,,,,,,,,,,,,,,,,,,,,,,,,,,,,,,,,,v,1.649000168,OV,FALSE,,,,,,,161,ovella,Catalan,Sounds/cat_ovella.mp3,2020-06-20_16h49.30.265,TranslationElicitation_spa,3.2.4,Win32,60,55lvve0vwnrihv0rihqipejv1nfnr,,1,0,80,54,1,79
,,,,,,,,,,,,,,,,,,,,,,,,,,,,,,,,,,,e,1.73300004,OVE,FALSE,,,,,,,161,ovella,Catalan,Sounds/cat_ovella.mp3,2020-06-20_16h49.30.265,TranslationElicitation_spa,3.2.4,Win32,60,55lvve0vwnrihv0rihqipejv1nfnr,,1,0,80,54,1,79
,,,,,,,,,,,,,,,,,,,,,,,,,,,,,,,,,,,j,1.900000095,OVEJ,FALSE,,,,,,,161,ovella,Catalan,Sounds/cat_ovella.mp3,2020-06-20_16h49.30.265,TranslationElicitation_spa,3.2.4,Win32,60,55lvve0vwnrihv0rihqipejv1nfnr,,1,0,80,54,1,79
,,,,,,,,,,,,,,,,,,,,,,,,,,,,,,,,,,,a,1.991000175,OVEJA,FALSE,,,,,,,161,ovella,Catalan,Sounds/cat_ovella.mp3,2020-06-20_16h49.30.265,TranslationElicitation_spa,3.2.4,Win32,60,55lvve0vwnrihv0rihqipejv1nfnr,,1,0,80,54,1,79
