consentKey.keys,consentKey.rt,languageL1Key.keys,languageL1Key.rt,languageL2,languageL2OralKey.keys,languageL2OralKey.rt,languageL2WrittenKey.keys,languageL2WrittenKey.rt,languageL3OralKey.keys,languageL3OralKey.rt,languageL3WrittenKey.keys,languageL3WrittenKey.rt,languageCatalanOralKey.keys,languageCatalanOralKey.rt,languageCatalanWrittenKey.keys,languageCatalanWrittenKey.rt,languageCatalanTimeKey.keys,languageCatalanTimeKey.rt,age,demoSexKey.keys,demoSexKey.rt,demoEducationKey.keys,demoEducationKey.rt,city,demoVisionKey.keys,demoVisionKey.rt,demoLanguageKey.keys,demoLanguageKey.rt,setupLocationKey.keys,setupLocationKey.rt,setupNoiseKey.keys,setupNoiseKey.rt,instructionsKeys.keys,instructionsKeys.rt,keyPressed,keyPressTime,inputText,error,trials_practice.thisRepN,trials_practice.thisTrialN,trials_practice.thisN,trials_practice.thisIndex,trials_practice.ran,trials_practice.order,trial_id,word,test_language,soundfile,date,expName,psychopyVersion,OS,frameRate,participant,trialOffset,trials.thisRepN,trials.thisTrialN,trials.thisN,trials.thisIndex,trials.ran,trials.order
space,9.460999966,e,7.343000174,,3,22.15000033,3,6.529000044,,,,,3,10.58000016,1,4.065000057,1,6.18900013,25,m,1.964000225,4,7.759000063,GRANADA,s,6.890000105,n,3.551000118,1,4.5400002,1,5.14199996,space,23.09300017,a,2.621999979,A,FALSE,1,0,5,0,1,4,109,arbre,Catalan,Sounds/cat_arbre.mp3,2020-06-19_09h30.37.357,TranslationElicitation_spa,3.2.4,Win32,60,55nf2389fyevievh89gf18f913h,,,,,,,
,,,,,,,,,,,,,,,,,,,,,,,,,,,,,,,,,,,r,2.855999947,AR,FALSE,1,0,5,0,1,4,109,arbre,Catalan,Sounds/cat_arbre.mp3,2020-06-19_09h30.37.357,TranslationElicitation_spa,3.2.4,Win32,60,55nf2389fyevievh89gf18f913h,,,,,,,
,,,,,,,,,,,,,,,,,,,,,,,,,,,,,,,,,,,b,3.121999979,ARB,FALSE,1,0,5,0,1,4,109,arbre,Catalan,Sounds/cat_arbre.mp3,2020-06-19_09h30.37.357,TranslationElicitation_spa,3.2.4,Win32,60,55nf2389fyevievh89gf18f913h,,,,,,,
,,,,,,,,,,,,,,,,,,,,,,,,,,,,,,,,,,,o,3.272000074,ARBO,FALSE,1,0,5,0,1,4,109,arbre,Catalan,Sounds/cat_arbre.mp3,2020-06-19_09h30.37.357,TranslationElicitation_spa,3.2.4,Win32,60,55nf2389fyevievh89gf18f913h,,,,,,,
,,,,,,,,,,,,,,,,,,,,,,,,,,,,,,,,,,,l,3.471999884,ARBOL,FALSE,1,0,5,0,1,4,109,arbre,Catalan,Sounds/cat_arbre.mp3,2020-06-19_09h30.37.357,TranslationElicitation_spa,3.2.4,Win32,60,55nf2389fyevievh89gf18f913h,,,,,,,
,,,,,,,,,,,,,,,,,,,,,,,,,,,,,,,,,,,backspace,4.60800004,ARB,TRUE,1,0,5,0,1,4,109,arbre,Catalan,Sounds/cat_arbre.mp3,2020-06-19_09h30.37.357,TranslationElicitation_spa,3.2.4,Win32,60,55nf2389fyevievh89gf18f913h,,,,,,,
,,,,,,,,,,,,,,,,,,,,,,,,,,,,,,,,,,,backspace,4.767999887,A,TRUE,1,0,5,0,1,4,109,arbre,Catalan,Sounds/cat_arbre.mp3,2020-06-19_09h30.37.357,TranslationElicitation_spa,3.2.4,Win32,60,55nf2389fyevievh89gf18f913h,,,,,,,
,,,,,,,,,,,,,,,,,,,,,,,,,,,,,,,,,,,backspace,4.904999971,,TRUE,1,0,5,0,1,4,109,arbre,Catalan,Sounds/cat_arbre.mp3,2020-06-19_09h30.37.357,TranslationElicitation_spa,3.2.4,Win32,60,55nf2389fyevievh89gf18f913h,,,,,,,
,,,,,,,,,,,,,,,,,,,,,,,,,,,,,,,,,,,backspace,5.072000027,,TRUE,1,0,5,0,1,4,109,arbre,Catalan,Sounds/cat_arbre.mp3,2020-06-19_09h30.37.357,TranslationElicitation_spa,3.2.4,Win32,60,55nf2389fyevievh89gf18f913h,,,,,,,
,,,,,,,,,,,,,,,,,,,,,,,,,,,,,,,,,,,apostrophe,5.855000019,,TRUE,1,0,5,0,1,4,109,arbre,Catalan,Sounds/cat_arbre.mp3,2020-06-19_09h30.37.357,TranslationElicitation_spa,3.2.4,Win32,60,55nf2389fyevievh89gf18f913h,,,,,,,
,,,,,,,,,,,,,,,,,,,,,,,,,,,,,,,,,,,a,5.937999964,Á,TRUE,1,0,5,0,1,4,109,arbre,Catalan,Sounds/cat_arbre.mp3,2020-06-19_09h30.37.357,TranslationElicitation_spa,3.2.4,Win32,60,55nf2389fyevievh89gf18f913h,,,,,,,
,,,,,,,,,,,,,,,,,,,,,,,,,,,,,,,,,,,r,6.088000059,ÁR,TRUE,1,0,5,0,1,4,109,arbre,Catalan,Sounds/cat_arbre.mp3,2020-06-19_09h30.37.357,TranslationElicitation_spa,3.2.4,Win32,60,55nf2389fyevievh89gf18f913h,,,,,,,
,,,,,,,,,,,,,,,,,,,,,,,,,,,,,,,,,,,b,6.355000019,ÁRB,TRUE,1,0,5,0,1,4,109,arbre,Catalan,Sounds/cat_arbre.mp3,2020-06-19_09h30.37.357,TranslationElicitation_spa,3.2.4,Win32,60,55nf2389fyevievh89gf18f913h,,,,,,,
,,,,,,,,,,,,,,,,,,,,,,,,,,,,,,,,,,,o,6.503999949,ÁRBO,TRUE,1,0,5,0,1,4,109,arbre,Catalan,Sounds/cat_arbre.mp3,2020-06-19_09h30.37.357,TranslationElicitation_spa,3.2.4,Win32,60,55nf2389fyevievh89gf18f913h,,,,,,,
,,,,,,,,,,,,,,,,,,,,,,,,,,,,,,,,,,,l,6.703999996,ÁRBOL,TRUE,1,0,5,0,1,4,109,arbre,Catalan,Sounds/cat_arbre.mp3,2020-06-19_09h30.37.357,TranslationElicitation_spa,3.2.4,Win32,60,55nf2389fyevievh89gf18f913h,,,,,,,
,,,,,,,,,,,,,,,,,,,,,,,,,,,,,,,,,,,return,7.320999861,,TRUE,1,0,5,0,1,4,109,arbre,Catalan,Sounds/cat_arbre.mp3,2020-06-19_09h30.37.357,TranslationElicitation_spa,3.2.4,Win32,60,55nf2389fyevievh89gf18f913h,7.320999861,,,,,,
,,,,,,,,,,,,,,,,,,,,,,,,,,,,,,,,,,,,,,,1,0,5,0,1,4,109,arbre,Catalan,Sounds/cat_arbre.mp3,2020-06-19_09h30.37.357,TranslationElicitation_spa,3.2.4,Win32,60,55nf2389fyevievh89gf18f913h,,,,,,,
,,,,,,,,,,,,,,,,,,,,,,,,,,,,,,,,,,,c,1.904999971,C,FALSE,1,0,5,1,1,4,147,jaqueta,Catalan,Sounds/cat_jaqueta.mp3,2020-06-19_09h30.37.357,TranslationElicitation_spa,3.2.4,Win32,60,55nf2389fyevievh89gf18f913h,,,,,,,
,,,,,,,,,,,,,,,,,,,,,,,,,,,,,,,,,,,h,2.004999876,CH,FALSE,1,0,5,1,1,4,147,jaqueta,Catalan,Sounds/cat_jaqueta.mp3,2020-06-19_09h30.37.357,TranslationElicitation_spa,3.2.4,Win32,60,55nf2389fyevievh89gf18f913h,,,,,,,
,,,,,,,,,,,,,,,,,,,,,,,,,,,,,,,,,,,a,2.104999781,CHA,FALSE,1,0,5,1,1,4,147,jaqueta,Catalan,Sounds/cat_jaqueta.mp3,2020-06-19_09h30.37.357,TranslationElicitation_spa,3.2.4,Win32,60,55nf2389fyevievh89gf18f913h,,,,,,,
,,,,,,,,,,,,,,,,,,,,,,,,,,,,,,,,,,,q,2.288999796,CHAQ,FALSE,1,0,5,1,1,4,147,jaqueta,Catalan,Sounds/cat_jaqueta.mp3,2020-06-19_09h30.37.357,TranslationElicitation_spa,3.2.4,Win32,60,55nf2389fyevievh89gf18f913h,,,,,,,
,,,,,,,,,,,,,,,,,,,,,,,,,,,,,,,,,,,u,2.455999851,CHAQU,FALSE,1,0,5,1,1,4,147,jaqueta,Catalan,Sounds/cat_jaqueta.mp3,2020-06-19_09h30.37.357,TranslationElicitation_spa,3.2.4,Win32,60,55nf2389fyevievh89gf18f913h,,,,,,,
,,,,,,,,,,,,,,,,,,,,,,,,,,,,,,,,,,,e,2.538999796,CHAQUE,FALSE,1,0,5,1,1,4,147,jaqueta,Catalan,Sounds/cat_jaqueta.mp3,2020-06-19_09h30.37.357,TranslationElicitation_spa,3.2.4,Win32,60,55nf2389fyevievh89gf18f913h,,,,,,,
,,,,,,,,,,,,,,,,,,,,,,,,,,,,,,,,,,,t,2.747999907,CHAQUET,FALSE,1,0,5,1,1,4,147,jaqueta,Catalan,Sounds/cat_jaqueta.mp3,2020-06-19_09h30.37.357,TranslationElicitation_spa,3.2.4,Win32,60,55nf2389fyevievh89gf18f913h,,,,,,,
,,,,,,,,,,,,,,,,,,,,,,,,,,,,,,,,,,,a,2.981999874,CHAQUETA,FALSE,1,0,5,1,1,4,147,jaqueta,Catalan,Sounds/cat_jaqueta.mp3,2020-06-19_09h30.37.357,TranslationElicitation_spa,3.2.4,Win32,60,55nf2389fyevievh89gf18f913h,,,,,,,
,,,,,,,,,,,,,,,,,,,,,,,,,,,,,,,,,,,return,3.782999992,,FALSE,1,0,5,1,1,4,147,jaqueta,Catalan,Sounds/cat_jaqueta.mp3,2020-06-19_09h30.37.357,TranslationElicitation_spa,3.2.4,Win32,60,55nf2389fyevievh89gf18f913h,3.782999992,,,,,,
,,,,,,,,,,,,,,,,,,,,,,,,,,,,,,,,,,,,,,,1,0,5,1,1,4,147,jaqueta,Catalan,Sounds/cat_jaqueta.mp3,2020-06-19_09h30.37.357,TranslationElicitation_spa,3.2.4,Win32,60,55nf2389fyevievh89gf18f913h,,,,,,,
,,,,,,,,,,,,,,,,,,,,,,,,,,,,,,,,,,,t,1.822000027,T,FALSE,1,0,5,4,1,4,179,tigre,Catalan,Sounds/cat_tigre.mp3,2020-06-19_09h30.37.357,TranslationElicitation_spa,3.2.4,Win32,60,55nf2389fyevievh89gf18f913h,,,,,,,
,,,,,,,,,,,,,,,,,,,,,,,,,,,,,,,,,,,i,1.921999931,TI,FALSE,1,0,5,4,1,4,179,tigre,Catalan,Sounds/cat_tigre.mp3,2020-06-19_09h30.37.357,TranslationElicitation_spa,3.2.4,Win32,60,55nf2389fyevievh89gf18f913h,,,,,,,
,,,,,,,,,,,,,,,,,,,,,,,,,,,,,,,,,,,g,2.055000067,TIG,FALSE,1,0,5,4,1,4,179,tigre,Catalan,Sounds/cat_tigre.mp3,2020-06-19_09h30.37.357,TranslationElicitation_spa,3.2.4,Win32,60,55nf2389fyevievh89gf18f913h,,,,,,,
,,,,,,,,,,,,,,,,,,,,,,,,,,,,,,,,,,,r,2.255000114,TIGR,FALSE,1,0,5,4,1,4,179,tigre,Catalan,Sounds/cat_tigre.mp3,2020-06-19_09h30.37.357,TranslationElicitation_spa,3.2.4,Win32,60,55nf2389fyevievh89gf18f913h,,,,,,,
,,,,,,,,,,,,,,,,,,,,,,,,,,,,,,,,,,,e,2.342000008,TIGRE,FALSE,1,0,5,4,1,4,179,tigre,Catalan,Sounds/cat_tigre.mp3,2020-06-19_09h30.37.357,TranslationElicitation_spa,3.2.4,Win32,60,55nf2389fyevievh89gf18f913h,,,,,,,
,,,,,,,,,,,,,,,,,,,,,,,,,,,,,,,,,,,return,2.954999924,,FALSE,1,0,5,4,1,4,179,tigre,Catalan,Sounds/cat_tigre.mp3,2020-06-19_09h30.37.357,TranslationElicitation_spa,3.2.4,Win32,60,55nf2389fyevievh89gf18f913h,2.954999924,,,,,,
,,,,,,,,,,,,,,,,,,,,,,,,,,,,,,,,,,,,,,,1,0,5,4,1,4,179,tigre,Catalan,Sounds/cat_tigre.mp3,2020-06-19_09h30.37.357,TranslationElicitation_spa,3.2.4,Win32,60,55nf2389fyevievh89gf18f913h,,,,,,,
,,,,,,,,,,,,,,,,,,,,,,,,,,,,,,,,,,,p,1.680000067,P,FALSE,1,0,5,3,1,4,167,pingui,Catalan,Sounds/cat_pingui.mp3,2020-06-19_09h30.37.357,TranslationElicitation_spa,3.2.4,Win32,60,55nf2389fyevievh89gf18f913h,,,,,,,
,,,,,,,,,,,,,,,,,,,,,,,,,,,,,,,,,,,i,1.913000107,PI,FALSE,1,0,5,3,1,4,167,pingui,Catalan,Sounds/cat_pingui.mp3,2020-06-19_09h30.37.357,TranslationElicitation_spa,3.2.4,Win32,60,55nf2389fyevievh89gf18f913h,,,,,,,
,,,,,,,,,,,,,,,,,,,,,,,,,,,,,,,,,,,n,2.063000202,PIN,FALSE,1,0,5,3,1,4,167,pingui,Catalan,Sounds/cat_pingui.mp3,2020-06-19_09h30.37.357,TranslationElicitation_spa,3.2.4,Win32,60,55nf2389fyevievh89gf18f913h,,,,,,,
,,,,,,,,,,,,,,,,,,,,,,,,,,,,,,,,,,,g,2.213999987,PING,FALSE,1,0,5,3,1,4,167,pingui,Catalan,Sounds/cat_pingui.mp3,2020-06-19_09h30.37.357,TranslationElicitation_spa,3.2.4,Win32,60,55nf2389fyevievh89gf18f913h,,,,,,,
,,,,,,,,,,,,,,,,,,,,,,,,,,,,,,,,,,,u,2.348999977,PINGU,FALSE,1,0,5,3,1,4,167,pingui,Catalan,Sounds/cat_pingui.mp3,2020-06-19_09h30.37.357,TranslationElicitation_spa,3.2.4,Win32,60,55nf2389fyevievh89gf18f913h,,,,,,,
,,,,,,,,,,,,,,,,,,,,,,,,,,,,,,,,,,,i,2.562000036,PINGUI,FALSE,1,0,5,3,1,4,167,pingui,Catalan,Sounds/cat_pingui.mp3,2020-06-19_09h30.37.357,TranslationElicitation_spa,3.2.4,Win32,60,55nf2389fyevievh89gf18f913h,,,,,,,
,,,,,,,,,,,,,,,,,,,,,,,,,,,,,,,,,,,n,2.755000114,PINGUIN,FALSE,1,0,5,3,1,4,167,pingui,Catalan,Sounds/cat_pingui.mp3,2020-06-19_09h30.37.357,TranslationElicitation_spa,3.2.4,Win32,60,55nf2389fyevievh89gf18f913h,,,,,,,
,,,,,,,,,,,,,,,,,,,,,,,,,,,,,,,,,,,o,2.889000177,PINGUINO,FALSE,1,0,5,3,1,4,167,pingui,Catalan,Sounds/cat_pingui.mp3,2020-06-19_09h30.37.357,TranslationElicitation_spa,3.2.4,Win32,60,55nf2389fyevievh89gf18f913h,,,,,,,
,,,,,,,,,,,,,,,,,,,,,,,,,,,,,,,,,,,backspace,3.938000202,PINGUI,TRUE,1,0,5,3,1,4,167,pingui,Catalan,Sounds/cat_pingui.mp3,2020-06-19_09h30.37.357,TranslationElicitation_spa,3.2.4,Win32,60,55nf2389fyevievh89gf18f913h,,,,,,,
,,,,,,,,,,,,,,,,,,,,,,,,,,,,,,,,,,,backspace,4.11500001,PING,TRUE,1,0,5,3,1,4,167,pingui,Catalan,Sounds/cat_pingui.mp3,2020-06-19_09h30.37.357,TranslationElicitation_spa,3.2.4,Win32,60,55nf2389fyevievh89gf18f913h,,,,,,,
,,,,,,,,,,,,,,,,,,,,,,,,,,,,,,,,,,,backspace,4.279000044,PI,TRUE,1,0,5,3,1,4,167,pingui,Catalan,Sounds/cat_pingui.mp3,2020-06-19_09h30.37.357,TranslationElicitation_spa,3.2.4,Win32,60,55nf2389fyevievh89gf18f913h,,,,,,,
,,,,,,,,,,,,,,,,,,,,,,,,,,,,,,,,,,,g,4.963000059,PIG,TRUE,1,0,5,3,1,4,167,pingui,Catalan,Sounds/cat_pingui.mp3,2020-06-19_09h30.37.357,TranslationElicitation_spa,3.2.4,Win32,60,55nf2389fyevievh89gf18f913h,,,,,,,
,,,,,,,,,,,,,,,,,,,,,,,,,,,,,,,,,,,semicolon,6.162000179,PIGÑ,TRUE,1,0,5,3,1,4,167,pingui,Catalan,Sounds/cat_pingui.mp3,2020-06-19_09h30.37.357,TranslationElicitation_spa,3.2.4,Win32,60,55nf2389fyevievh89gf18f913h,,,,,,,
,,,,,,,,,,,,,,,,,,,,,,,,,,,,,,,,,,,u,6.626000166,PIGÑU,TRUE,1,0,5,3,1,4,167,pingui,Catalan,Sounds/cat_pingui.mp3,2020-06-19_09h30.37.357,TranslationElicitation_spa,3.2.4,Win32,60,55nf2389fyevievh89gf18f913h,,,,,,,
,,,,,,,,,,,,,,,,,,,,,,,,,,,,,,,,,,,backspace,7.364000082,PIG,TRUE,1,0,5,3,1,4,167,pingui,Catalan,Sounds/cat_pingui.mp3,2020-06-19_09h30.37.357,TranslationElicitation_spa,3.2.4,Win32,60,55nf2389fyevievh89gf18f913h,,,,,,,
,,,,,,,,,,,,,,,,,,,,,,,,,,,,,,,,,,,backspace,7.595000029,P,TRUE,1,0,5,3,1,4,167,pingui,Catalan,Sounds/cat_pingui.mp3,2020-06-19_09h30.37.357,TranslationElicitation_spa,3.2.4,Win32,60,55nf2389fyevievh89gf18f913h,,,,,,,
,,,,,,,,,,,,,,,,,,,,,,,,,,,,,,,,,,,semicolon,9.692000151,PÑ,TRUE,1,0,5,3,1,4,167,pingui,Catalan,Sounds/cat_pingui.mp3,2020-06-19_09h30.37.357,TranslationElicitation_spa,3.2.4,Win32,60,55nf2389fyevievh89gf18f913h,,,,,,,
,,,,,,,,,,,,,,,,,,,,,,,,,,,,,,,,,,,backspace,10.54400015,,TRUE,1,0,5,3,1,4,167,pingui,Catalan,Sounds/cat_pingui.mp3,2020-06-19_09h30.37.357,TranslationElicitation_spa,3.2.4,Win32,60,55nf2389fyevievh89gf18f913h,,,,,,,
,,,,,,,,,,,,,,,,,,,,,,,,,,,,,,,,,,,i,11.37700009,I,TRUE,1,0,5,3,1,4,167,pingui,Catalan,Sounds/cat_pingui.mp3,2020-06-19_09h30.37.357,TranslationElicitation_spa,3.2.4,Win32,60,55nf2389fyevievh89gf18f913h,,,,,,,
,,,,,,,,,,,,,,,,,,,,,,,,,,,,,,,,,,,n,11.50999999,IN,TRUE,1,0,5,3,1,4,167,pingui,Catalan,Sounds/cat_pingui.mp3,2020-06-19_09h30.37.357,TranslationElicitation_spa,3.2.4,Win32,60,55nf2389fyevievh89gf18f913h,,,,,,,
,,,,,,,,,,,,,,,,,,,,,,,,,,,,,,,,,,,g,11.59300017,ING,TRUE,1,0,5,3,1,4,167,pingui,Catalan,Sounds/cat_pingui.mp3,2020-06-19_09h30.37.357,TranslationElicitation_spa,3.2.4,Win32,60,55nf2389fyevievh89gf18f913h,,,,,,,
,,,,,,,,,,,,,,,,,,,,,,,,,,,,,,,,,,,u,11.73300004,INGU,TRUE,1,0,5,3,1,4,167,pingui,Catalan,Sounds/cat_pingui.mp3,2020-06-19_09h30.37.357,TranslationElicitation_spa,3.2.4,Win32,60,55nf2389fyevievh89gf18f913h,,,,,,,
,,,,,,,,,,,,,,,,,,,,,,,,,,,,,,,,,,,i,11.87700009,INGUI,TRUE,1,0,5,3,1,4,167,pingui,Catalan,Sounds/cat_pingui.mp3,2020-06-19_09h30.37.357,TranslationElicitation_spa,3.2.4,Win32,60,55nf2389fyevievh89gf18f913h,,,,,,,
,,,,,,,,,,,,,,,,,,,,,,,,,,,,,,,,,,,backspace,12.25300002,ING,TRUE,1,0,5,3,1,4,167,pingui,Catalan,Sounds/cat_pingui.mp3,2020-06-19_09h30.37.357,TranslationElicitation_spa,3.2.4,Win32,60,55nf2389fyevievh89gf18f913h,,,,,,,
,,,,,,,,,,,,,,,,,,,,,,,,,,,,,,,,,,,backspace,12.42600012,I,TRUE,1,0,5,3,1,4,167,pingui,Catalan,Sounds/cat_pingui.mp3,2020-06-19_09h30.37.357,TranslationElicitation_spa,3.2.4,Win32,60,55nf2389fyevievh89gf18f913h,,,,,,,
,,,,,,,,,,,,,,,,,,,,,,,,,,,,,,,,,,,backspace,12.57700014,,TRUE,1,0,5,3,1,4,167,pingui,Catalan,Sounds/cat_pingui.mp3,2020-06-19_09h30.37.357,TranslationElicitation_spa,3.2.4,Win32,60,55nf2389fyevievh89gf18f913h,,,,,,,
,,,,,,,,,,,,,,,,,,,,,,,,,,,,,,,,,,,backspace,12.71000004,,TRUE,1,0,5,3,1,4,167,pingui,Catalan,Sounds/cat_pingui.mp3,2020-06-19_09h30.37.357,TranslationElicitation_spa,3.2.4,Win32,60,55nf2389fyevievh89gf18f913h,,,,,,,
,,,,,,,,,,,,,,,,,,,,,,,,,,,,,,,,,,,p,13.68000007,P,TRUE,1,0,5,3,1,4,167,pingui,Catalan,Sounds/cat_pingui.mp3,2020-06-19_09h30.37.357,TranslationElicitation_spa,3.2.4,Win32,60,55nf2389fyevievh89gf18f913h,,,,,,,
,,,,,,,,,,,,,,,,,,,,,,,,,,,,,,,,,,,i,13.92799997,PI,TRUE,1,0,5,3,1,4,167,pingui,Catalan,Sounds/cat_pingui.mp3,2020-06-19_09h30.37.357,TranslationElicitation_spa,3.2.4,Win32,60,55nf2389fyevievh89gf18f913h,,,,,,,
,,,,,,,,,,,,,,,,,,,,,,,,,,,,,,,,,,,n,14.22600007,PIN,TRUE,1,0,5,3,1,4,167,pingui,Catalan,Sounds/cat_pingui.mp3,2020-06-19_09h30.37.357,TranslationElicitation_spa,3.2.4,Win32,60,55nf2389fyevievh89gf18f913h,,,,,,,
,,,,,,,,,,,,,,,,,,,,,,,,,,,,,,,,,,,g,14.37600017,PING,TRUE,1,0,5,3,1,4,167,pingui,Catalan,Sounds/cat_pingui.mp3,2020-06-19_09h30.37.357,TranslationElicitation_spa,3.2.4,Win32,60,55nf2389fyevievh89gf18f913h,,,,,,,
,,,,,,,,,,,,,,,,,,,,,,,,,,,,,,,,,,,u,14.50900006,PINGU,TRUE,1,0,5,3,1,4,167,pingui,Catalan,Sounds/cat_pingui.mp3,2020-06-19_09h30.37.357,TranslationElicitation_spa,3.2.4,Win32,60,55nf2389fyevievh89gf18f913h,,,,,,,
,,,,,,,,,,,,,,,,,,,,,,,,,,,,,,,,,,,i,14.648,PINGUI,TRUE,1,0,5,3,1,4,167,pingui,Catalan,Sounds/cat_pingui.mp3,2020-06-19_09h30.37.357,TranslationElicitation_spa,3.2.4,Win32,60,55nf2389fyevievh89gf18f913h,,,,,,,
,,,,,,,,,,,,,,,,,,,,,,,,,,,,,,,,,,,n,14.82599998,PINGUIN,TRUE,1,0,5,3,1,4,167,pingui,Catalan,Sounds/cat_pingui.mp3,2020-06-19_09h30.37.357,TranslationElicitation_spa,3.2.4,Win32,60,55nf2389fyevievh89gf18f913h,,,,,,,
,,,,,,,,,,,,,,,,,,,,,,,,,,,,,,,,,,,o,14.92500019,PINGUINO,TRUE,1,0,5,3,1,4,167,pingui,Catalan,Sounds/cat_pingui.mp3,2020-06-19_09h30.37.357,TranslationElicitation_spa,3.2.4,Win32,60,55nf2389fyevievh89gf18f913h,,,,,,,
,,,,,,,,,,,,,,,,,,,,,,,,,,,,,,,,,,,return,15.13900018,,TRUE,1,0,5,3,1,4,167,pingui,Catalan,Sounds/cat_pingui.mp3,2020-06-19_09h30.37.357,TranslationElicitation_spa,3.2.4,Win32,60,55nf2389fyevievh89gf18f913h,15.13900018,,,,,,
,,,,,,,,,,,,,,,,,,,,,,,,,,,,,,,,,,,,,,,1,0,5,3,1,4,167,pingui,Catalan,Sounds/cat_pingui.mp3,2020-06-19_09h30.37.357,TranslationElicitation_spa,3.2.4,Win32,60,55nf2389fyevievh89gf18f913h,,,,,,,
,,,,,,,,,,,,,,,,,,,,,,,,,,,,,,,,,,,h,1.838000059,H,FALSE,1,0,5,2,1,4,159,onada,Catalan,Sounds/cat_onada.mp3,2020-06-19_09h30.37.357,TranslationElicitation_spa,3.2.4,Win32,60,55nf2389fyevievh89gf18f913h,,,,,,,
,,,,,,,,,,,,,,,,,,,,,,,,,,,,,,,,,,,a,1.937999964,HA,FALSE,1,0,5,2,1,4,159,onada,Catalan,Sounds/cat_onada.mp3,2020-06-19_09h30.37.357,TranslationElicitation_spa,3.2.4,Win32,60,55nf2389fyevievh89gf18f913h,,,,,,,
,,,,,,,,,,,,,,,,,,,,,,,,,,,,,,,,,,,d,2.088000059,HAD,FALSE,1,0,5,2,1,4,159,onada,Catalan,Sounds/cat_onada.mp3,2020-06-19_09h30.37.357,TranslationElicitation_spa,3.2.4,Win32,60,55nf2389fyevievh89gf18f913h,,,,,,,
,,,,,,,,,,,,,,,,,,,,,,,,,,,,,,,,,,,a,2.172999859,HADA,FALSE,1,0,5,2,1,4,159,onada,Catalan,Sounds/cat_onada.mp3,2020-06-19_09h30.37.357,TranslationElicitation_spa,3.2.4,Win32,60,55nf2389fyevievh89gf18f913h,,,,,,,
,,,,,,,,,,,,,,,,,,,,,,,,,,,,,,,,,,,return,4.60800004,,FALSE,1,0,5,2,1,4,159,onada,Catalan,Sounds/cat_onada.mp3,2020-06-19_09h30.37.357,TranslationElicitation_spa,3.2.4,Win32,60,55nf2389fyevievh89gf18f913h,4.60800004,,,,,,
,,,,,,,,,,,,,,,,,,,,,,,,,,,,,,,,,,,,,,,1,0,5,2,1,4,159,onada,Catalan,Sounds/cat_onada.mp3,2020-06-19_09h30.37.357,TranslationElicitation_spa,3.2.4,Win32,60,55nf2389fyevievh89gf18f913h,,,,,,,
,,,,,,,,,,,,,,,,,,,,,,,,,,,,,,,,,,,h,2.173999786,H,FALSE,,,,,,,141,gerd,Catalan,Sounds/cat_gerd.mp3,2020-06-19_09h30.37.357,TranslationElicitation_spa,3.2.4,Win32,60,55nf2389fyevievh89gf18f913h,,1,0,80,36,1,79
,,,,,,,,,,,,,,,,,,,,,,,,,,,,,,,,,,,i,2.289999962,HI,FALSE,,,,,,,141,gerd,Catalan,Sounds/cat_gerd.mp3,2020-06-19_09h30.37.357,TranslationElicitation_spa,3.2.4,Win32,60,55nf2389fyevievh89gf18f913h,,1,0,80,36,1,79
,,,,,,,,,,,,,,,,,,,,,,,,,,,,,,,,,,,e,2.439999819,HIE,FALSE,,,,,,,141,gerd,Catalan,Sounds/cat_gerd.mp3,2020-06-19_09h30.37.357,TranslationElicitation_spa,3.2.4,Win32,60,55nf2389fyevievh89gf18f913h,,1,0,80,36,1,79
,,,,,,,,,,,,,,,,,,,,,,,,,,,,,,,,,,,r,2.523999929,HIER,FALSE,,,,,,,141,gerd,Catalan,Sounds/cat_gerd.mp3,2020-06-19_09h30.37.357,TranslationElicitation_spa,3.2.4,Win32,60,55nf2389fyevievh89gf18f913h,,1,0,80,36,1,79
,,,,,,,,,,,,,,,,,,,,,,,,,,,,,,,,,,,r,2.674999952,HIERR,FALSE,,,,,,,141,gerd,Catalan,Sounds/cat_gerd.mp3,2020-06-19_09h30.37.357,TranslationElicitation_spa,3.2.4,Win32,60,55nf2389fyevievh89gf18f913h,,1,0,80,36,1,79
,,,,,,,,,,,,,,,,,,,,,,,,,,,,,,,,,,,o,2.773000002,HIERRO,FALSE,,,,,,,141,gerd,Catalan,Sounds/cat_gerd.mp3,2020-06-19_09h30.37.357,TranslationElicitation_spa,3.2.4,Win32,60,55nf2389fyevievh89gf18f913h,,1,0,80,36,1,79
,,,,,,,,,,,,,,,,,,,,,,,,,,,,,,,,,,,return,3.125,,FALSE,,,,,,,141,gerd,Catalan,Sounds/cat_gerd.mp3,2020-06-19_09h30.37.357,TranslationElicitation_spa,3.2.4,Win32,60,55nf2389fyevievh89gf18f913h,3.125,1,0,80,36,1,79
,,,,,,,,,,,,,,,,,,,,,,,,,,,,,,,,,,,,,,,,,,,,,141,gerd,Catalan,Sounds/cat_gerd.mp3,2020-06-19_09h30.37.357,TranslationElicitation_spa,3.2.4,Win32,60,55nf2389fyevievh89gf18f913h,,1,0,80,36,1,79
,,,,,,,,,,,,,,,,,,,,,,,,,,,,,,,,,,,c,1.379999876,C,FALSE,,,,,,,126,corona,Catalan,Sounds/cat_corona.mp3,2020-06-19_09h30.37.357,TranslationElicitation_spa,3.2.4,Win32,60,55nf2389fyevievh89gf18f913h,,1,0,80,21,1,79
,,,,,,,,,,,,,,,,,,,,,,,,,,,,,,,,,,,o,1.480000019,CO,FALSE,,,,,,,126,corona,Catalan,Sounds/cat_corona.mp3,2020-06-19_09h30.37.357,TranslationElicitation_spa,3.2.4,Win32,60,55nf2389fyevievh89gf18f913h,,1,0,80,21,1,79
,,,,,,,,,,,,,,,,,,,,,,,,,,,,,,,,,,,r,1.664000034,COR,FALSE,,,,,,,126,corona,Catalan,Sounds/cat_corona.mp3,2020-06-19_09h30.37.357,TranslationElicitation_spa,3.2.4,Win32,60,55nf2389fyevievh89gf18f913h,,1,0,80,21,1,79
,,,,,,,,,,,,,,,,,,,,,,,,,,,,,,,,,,,o,1.764999866,CORO,FALSE,,,,,,,126,corona,Catalan,Sounds/cat_corona.mp3,2020-06-19_09h30.37.357,TranslationElicitation_spa,3.2.4,Win32,60,55nf2389fyevievh89gf18f913h,,1,0,80,21,1,79
,,,,,,,,,,,,,,,,,,,,,,,,,,,,,,,,,,,n,1.862999916,CORON,FALSE,,,,,,,126,corona,Catalan,Sounds/cat_corona.mp3,2020-06-19_09h30.37.357,TranslationElicitation_spa,3.2.4,Win32,60,55nf2389fyevievh89gf18f913h,,1,0,80,21,1,79
,,,,,,,,,,,,,,,,,,,,,,,,,,,,,,,,,,,a,1.996000051,CORONA,FALSE,,,,,,,126,corona,Catalan,Sounds/cat_corona.mp3,2020-06-19_09h30.37.357,TranslationElicitation_spa,3.2.4,Win32,60,55nf2389fyevievh89gf18f913h,,1,0,80,21,1,79
,,,,,,,,,,,,,,,,,,,,,,,,,,,,,,,,,,,return,2.24000001,,FALSE,,,,,,,126,corona,Catalan,Sounds/cat_corona.mp3,2020-06-19_09h30.37.357,TranslationElicitation_spa,3.2.4,Win32,60,55nf2389fyevievh89gf18f913h,2.24000001,1,0,80,21,1,79
,,,,,,,,,,,,,,,,,,,,,,,,,,,,,,,,,,,,,,,,,,,,,126,corona,Catalan,Sounds/cat_corona.mp3,2020-06-19_09h30.37.357,TranslationElicitation_spa,3.2.4,Win32,60,55nf2389fyevievh89gf18f913h,,1,0,80,21,1,79
,,,,,,,,,,,,,,,,,,,,,,,,,,,,,,,,,,,a,1.04700017,A,FALSE,,,,,,,121,camisa,Catalan,Sounds/cat_camisa.mp3,2020-06-19_09h30.37.357,TranslationElicitation_spa,3.2.4,Win32,60,55nf2389fyevievh89gf18f913h,,1,0,80,16,1,79
,,,,,,,,,,,,,,,,,,,,,,,,,,,,,,,,,,,m,1.281000137,AM,FALSE,,,,,,,121,camisa,Catalan,Sounds/cat_camisa.mp3,2020-06-19_09h30.37.357,TranslationElicitation_spa,3.2.4,Win32,60,55nf2389fyevievh89gf18f913h,,1,0,80,16,1,79
,,,,,,,,,,,,,,,,,,,,,,,,,,,,,,,,,,,i,1.381000042,AMI,FALSE,,,,,,,121,camisa,Catalan,Sounds/cat_camisa.mp3,2020-06-19_09h30.37.357,TranslationElicitation_spa,3.2.4,Win32,60,55nf2389fyevievh89gf18f913h,,1,0,80,16,1,79
,,,,,,,,,,,,,,,,,,,,,,,,,,,,,,,,,,,backspace,1.897000074,A,TRUE,,,,,,,121,camisa,Catalan,Sounds/cat_camisa.mp3,2020-06-19_09h30.37.357,TranslationElicitation_spa,3.2.4,Win32,60,55nf2389fyevievh89gf18f913h,,1,0,80,16,1,79
,,,,,,,,,,,,,,,,,,,,,,,,,,,,,,,,,,,backspace,2.06400013,,TRUE,,,,,,,121,camisa,Catalan,Sounds/cat_camisa.mp3,2020-06-19_09h30.37.357,TranslationElicitation_spa,3.2.4,Win32,60,55nf2389fyevievh89gf18f913h,,1,0,80,16,1,79
,,,,,,,,,,,,,,,,,,,,,,,,,,,,,,,,,,,backspace,2.230000019,,TRUE,,,,,,,121,camisa,Catalan,Sounds/cat_camisa.mp3,2020-06-19_09h30.37.357,TranslationElicitation_spa,3.2.4,Win32,60,55nf2389fyevievh89gf18f913h,,1,0,80,16,1,79
,,,,,,,,,,,,,,,,,,,,,,,,,,,,,,,,,,,c,2.580000162,C,TRUE,,,,,,,121,camisa,Catalan,Sounds/cat_camisa.mp3,2020-06-19_09h30.37.357,TranslationElicitation_spa,3.2.4,Win32,60,55nf2389fyevievh89gf18f913h,,1,0,80,16,1,79
,,,,,,,,,,,,,,,,,,,,,,,,,,,,,,,,,,,a,2.630000114,CA,TRUE,,,,,,,121,camisa,Catalan,Sounds/cat_camisa.mp3,2020-06-19_09h30.37.357,TranslationElicitation_spa,3.2.4,Win32,60,55nf2389fyevievh89gf18f913h,,1,0,80,16,1,79
,,,,,,,,,,,,,,,,,,,,,,,,,,,,,,,,,,,m,2.913000107,CAM,TRUE,,,,,,,121,camisa,Catalan,Sounds/cat_camisa.mp3,2020-06-19_09h30.37.357,TranslationElicitation_spa,3.2.4,Win32,60,55nf2389fyevievh89gf18f913h,,1,0,80,16,1,79
,,,,,,,,,,,,,,,,,,,,,,,,,,,,,,,,,,,i,2.998000145,CAMI,TRUE,,,,,,,121,camisa,Catalan,Sounds/cat_camisa.mp3,2020-06-19_09h30.37.357,TranslationElicitation_spa,3.2.4,Win32,60,55nf2389fyevievh89gf18f913h,,1,0,80,16,1,79
,,,,,,,,,,,,,,,,,,,,,,,,,,,,,,,,,,,s,3.097000122,CAMIS,TRUE,,,,,,,121,camisa,Catalan,Sounds/cat_camisa.mp3,2020-06-19_09h30.37.357,TranslationElicitation_spa,3.2.4,Win32,60,55nf2389fyevievh89gf18f913h,,1,0,80,16,1,79
,,,,,,,,,,,,,,,,,,,,,,,,,,,,,,,,,,,a,3.213000059,CAMISA,TRUE,,,,,,,121,camisa,Catalan,Sounds/cat_camisa.mp3,2020-06-19_09h30.37.357,TranslationElicitation_spa,3.2.4,Win32,60,55nf2389fyevievh89gf18f913h,,1,0,80,16,1,79
,,,,,,,,,,,,,,,,,,,,,,,,,,,,,,,,,,,return,3.465000153,,TRUE,,,,,,,121,camisa,Catalan,Sounds/cat_camisa.mp3,2020-06-19_09h30.37.357,TranslationElicitation_spa,3.2.4,Win32,60,55nf2389fyevievh89gf18f913h,3.465000153,1,0,80,16,1,79
,,,,,,,,,,,,,,,,,,,,,,,,,,,,,,,,,,,,,,,,,,,,,121,camisa,Catalan,Sounds/cat_camisa.mp3,2020-06-19_09h30.37.357,TranslationElicitation_spa,3.2.4,Win32,60,55nf2389fyevievh89gf18f913h,,1,0,80,16,1,79
,,,,,,,,,,,,,,,,,,,,,,,,,,,,,,,,,,,b,1.463999987,B,FALSE,,,,,,,113,boca,Catalan,Sounds/cat_boca.mp3,2020-06-19_09h30.37.357,TranslationElicitation_spa,3.2.4,Win32,60,55nf2389fyevievh89gf18f913h,,1,0,80,8,1,79
,,,,,,,,,,,,,,,,,,,,,,,,,,,,,,,,,,,o,1.563999891,BO,FALSE,,,,,,,113,boca,Catalan,Sounds/cat_boca.mp3,2020-06-19_09h30.37.357,TranslationElicitation_spa,3.2.4,Win32,60,55nf2389fyevievh89gf18f913h,,1,0,80,8,1,79
,,,,,,,,,,,,,,,,,,,,,,,,,,,,,,,,,,,c,1.713999987,BOC,FALSE,,,,,,,113,boca,Catalan,Sounds/cat_boca.mp3,2020-06-19_09h30.37.357,TranslationElicitation_spa,3.2.4,Win32,60,55nf2389fyevievh89gf18f913h,,1,0,80,8,1,79
,,,,,,,,,,,,,,,,,,,,,,,,,,,,,,,,,,,a,1.796999931,BOCA,FALSE,,,,,,,113,boca,Catalan,Sounds/cat_boca.mp3,2020-06-19_09h30.37.357,TranslationElicitation_spa,3.2.4,Win32,60,55nf2389fyevievh89gf18f913h,,1,0,80,8,1,79
,,,,,,,,,,,,,,,,,,,,,,,,,,,,,,,,,,,return,2.345999956,,FALSE,,,,,,,113,boca,Catalan,Sounds/cat_boca.mp3,2020-06-19_09h30.37.357,TranslationElicitation_spa,3.2.4,Win32,60,55nf2389fyevievh89gf18f913h,2.345999956,1,0,80,8,1,79
,,,,,,,,,,,,,,,,,,,,,,,,,,,,,,,,,,,,,,,,,,,,,113,boca,Catalan,Sounds/cat_boca.mp3,2020-06-19_09h30.37.357,TranslationElicitation_spa,3.2.4,Win32,60,55nf2389fyevievh89gf18f913h,,1,0,80,8,1,79
,,,,,,,,,,,,,,,,,,,,,,,,,,,,,,,,,,,c,1.582000017,C,FALSE,,,,,,,189,zebra,Catalan,Sounds/cat_zebra.mp3,2020-06-19_09h30.37.357,TranslationElicitation_spa,3.2.4,Win32,60,55nf2389fyevievh89gf18f913h,,1,0,80,79,1,79
,,,,,,,,,,,,,,,,,,,,,,,,,,,,,,,,,,,e,1.631999969,CE,FALSE,,,,,,,189,zebra,Catalan,Sounds/cat_zebra.mp3,2020-06-19_09h30.37.357,TranslationElicitation_spa,3.2.4,Win32,60,55nf2389fyevievh89gf18f913h,,1,0,80,79,1,79
,,,,,,,,,,,,,,,,,,,,,,,,,,,,,,,,,,,b,1.819999933,CEB,FALSE,,,,,,,189,zebra,Catalan,Sounds/cat_zebra.mp3,2020-06-19_09h30.37.357,TranslationElicitation_spa,3.2.4,Win32,60,55nf2389fyevievh89gf18f913h,,1,0,80,79,1,79
,,,,,,,,,,,,,,,,,,,,,,,,,,,,,,,,,,,r,2.063999891,CEBR,FALSE,,,,,,,189,zebra,Catalan,Sounds/cat_zebra.mp3,2020-06-19_09h30.37.357,TranslationElicitation_spa,3.2.4,Win32,60,55nf2389fyevievh89gf18f913h,,1,0,80,79,1,79
,,,,,,,,,,,,,,,,,,,,,,,,,,,,,,,,,,,a,2.131000042,CEBRA,FALSE,,,,,,,189,zebra,Catalan,Sounds/cat_zebra.mp3,2020-06-19_09h30.37.357,TranslationElicitation_spa,3.2.4,Win32,60,55nf2389fyevievh89gf18f913h,,1,0,80,79,1,79
,,,,,,,,,,,,,,,,,,,,,,,,,,,,,,,,,,,return,2.565999985,,FALSE,,,,,,,189,zebra,Catalan,Sounds/cat_zebra.mp3,2020-06-19_09h30.37.357,TranslationElicitation_spa,3.2.4,Win32,60,55nf2389fyevievh89gf18f913h,2.565999985,1,0,80,79,1,79
,,,,,,,,,,,,,,,,,,,,,,,,,,,,,,,,,,,,,,,,,,,,,189,zebra,Catalan,Sounds/cat_zebra.mp3,2020-06-19_09h30.37.357,TranslationElicitation_spa,3.2.4,Win32,60,55nf2389fyevievh89gf18f913h,,1,0,80,79,1,79
,,,,,,,,,,,,,,,,,,,,,,,,,,,,,,,,,,,return,3.963000059,,FALSE,,,,,,,130,entrepa,Catalan,Sounds/cat_entrepa.mp3,2020-06-19_09h30.37.357,TranslationElicitation_spa,3.2.4,Win32,60,55nf2389fyevievh89gf18f913h,3.963000059,1,0,80,25,1,79
,,,,,,,,,,,,,,,,,,,,,,,,,,,,,,,,,,,,,,,,,,,,,130,entrepa,Catalan,Sounds/cat_entrepa.mp3,2020-06-19_09h30.37.357,TranslationElicitation_spa,3.2.4,Win32,60,55nf2389fyevievh89gf18f913h,,1,0,80,25,1,79
,,,,,,,,,,,,,,,,,,,,,,,,,,,,,,,,,,,return,3.845999956,,FALSE,,,,,,,163,papallona,Catalan,Sounds/cat_papallona.mp3,2020-06-19_09h30.37.357,TranslationElicitation_spa,3.2.4,Win32,60,55nf2389fyevievh89gf18f913h,3.845999956,1,0,80,56,1,79
,,,,,,,,,,,,,,,,,,,,,,,,,,,,,,,,,,,,,,,,,,,,,163,papallona,Catalan,Sounds/cat_papallona.mp3,2020-06-19_09h30.37.357,TranslationElicitation_spa,3.2.4,Win32,60,55nf2389fyevievh89gf18f913h,,1,0,80,56,1,79
,,,,,,,,,,,,,,,,,,,,,,,,,,,,,,,,,,,return,8.361000061,,FALSE,,,,,,,178,taronja,Catalan,Sounds/cat_taronja.mp3,2020-06-19_09h30.37.357,TranslationElicitation_spa,3.2.4,Win32,60,55nf2389fyevievh89gf18f913h,8.361000061,1,0,80,70,1,79
,,,,,,,,,,,,,,,,,,,,,,,,,,,,,,,,,,,,,,,,,,,,,178,taronja,Catalan,Sounds/cat_taronja.mp3,2020-06-19_09h30.37.357,TranslationElicitation_spa,3.2.4,Win32,60,55nf2389fyevievh89gf18f913h,,1,0,80,70,1,79
,,,,,,,,,,,,,,,,,,,,,,,,,,,,,,,,,,,return,8.510999918,,FALSE,,,,,,,150,lloro,Catalan,Sounds/cat_lloro.mp3,2020-06-19_09h30.37.357,TranslationElicitation_spa,3.2.4,Win32,60,55nf2389fyevievh89gf18f913h,8.510999918,1,0,80,44,1,79
,,,,,,,,,,,,,,,,,,,,,,,,,,,,,,,,,,,,,,,,,,,,,150,lloro,Catalan,Sounds/cat_lloro.mp3,2020-06-19_09h30.37.357,TranslationElicitation_spa,3.2.4,Win32,60,55nf2389fyevievh89gf18f913h,,1,0,80,44,1,79
,,,,,,,,,,,,,,,,,,,,,,,,,,,,,,,,,,,j,1.097999811,J,FALSE,,,,,,,142,girafa,Catalan,Sounds/cat_girafa.mp3,2020-06-19_09h30.37.357,TranslationElicitation_spa,3.2.4,Win32,60,55nf2389fyevievh89gf18f913h,,1,0,80,37,1,79
,,,,,,,,,,,,,,,,,,,,,,,,,,,,,,,,,,,i,1.197999954,JI,FALSE,,,,,,,142,girafa,Catalan,Sounds/cat_girafa.mp3,2020-06-19_09h30.37.357,TranslationElicitation_spa,3.2.4,Win32,60,55nf2389fyevievh89gf18f913h,,1,0,80,37,1,79
,,,,,,,,,,,,,,,,,,,,,,,,,,,,,,,,,,,r,1.372999907,JIR,FALSE,,,,,,,142,girafa,Catalan,Sounds/cat_girafa.mp3,2020-06-19_09h30.37.357,TranslationElicitation_spa,3.2.4,Win32,60,55nf2389fyevievh89gf18f913h,,1,0,80,37,1,79
,,,,,,,,,,,,,,,,,,,,,,,,,,,,,,,,,,,a,1.447999954,JIRA,FALSE,,,,,,,142,girafa,Catalan,Sounds/cat_girafa.mp3,2020-06-19_09h30.37.357,TranslationElicitation_spa,3.2.4,Win32,60,55nf2389fyevievh89gf18f913h,,1,0,80,37,1,79
,,,,,,,,,,,,,,,,,,,,,,,,,,,,,,,,,,,f,1.596999884,JIRAF,FALSE,,,,,,,142,girafa,Catalan,Sounds/cat_girafa.mp3,2020-06-19_09h30.37.357,TranslationElicitation_spa,3.2.4,Win32,60,55nf2389fyevievh89gf18f913h,,1,0,80,37,1,79
,,,,,,,,,,,,,,,,,,,,,,,,,,,,,,,,,,,a,1.680999994,JIRAFA,FALSE,,,,,,,142,girafa,Catalan,Sounds/cat_girafa.mp3,2020-06-19_09h30.37.357,TranslationElicitation_spa,3.2.4,Win32,60,55nf2389fyevievh89gf18f913h,,1,0,80,37,1,79
,,,,,,,,,,,,,,,,,,,,,,,,,,,,,,,,,,,return,1.944999933,,FALSE,,,,,,,142,girafa,Catalan,Sounds/cat_girafa.mp3,2020-06-19_09h30.37.357,TranslationElicitation_spa,3.2.4,Win32,60,55nf2389fyevievh89gf18f913h,1.944999933,1,0,80,37,1,79
,,,,,,,,,,,,,,,,,,,,,,,,,,,,,,,,,,,,,,,,,,,,,142,girafa,Catalan,Sounds/cat_girafa.mp3,2020-06-19_09h30.37.357,TranslationElicitation_spa,3.2.4,Win32,60,55nf2389fyevievh89gf18f913h,,1,0,80,37,1,79
,,,,,,,,,,,,,,,,,,,,,,,,,,,,,,,,,,,return,11.05999994,,FALSE,,,,,,,187,vaixell,Catalan,Sounds/cat_vaixell.mp3,2020-06-19_09h30.37.357,TranslationElicitation_spa,3.2.4,Win32,60,55nf2389fyevievh89gf18f913h,11.05999994,1,0,80,77,1,79
,,,,,,,,,,,,,,,,,,,,,,,,,,,,,,,,,,,,,,,,,,,,,187,vaixell,Catalan,Sounds/cat_vaixell.mp3,2020-06-19_09h30.37.357,TranslationElicitation_spa,3.2.4,Win32,60,55nf2389fyevievh89gf18f913h,,1,0,80,77,1,79
,,,,,,,,,,,,,,,,,,,,,,,,,,,,,,,,,,,p,3.767999887,P,FALSE,,,,,,,173,porc,Catalan,Sounds/cat_porc.mp3,2020-06-19_09h30.37.357,TranslationElicitation_spa,3.2.4,Win32,60,55nf2389fyevievh89gf18f913h,,1,0,80,65,1,79
,,,,,,,,,,,,,,,,,,,,,,,,,,,,,,,,,,,a,3.859999895,PA,FALSE,,,,,,,173,porc,Catalan,Sounds/cat_porc.mp3,2020-06-19_09h30.37.357,TranslationElicitation_spa,3.2.4,Win32,60,55nf2389fyevievh89gf18f913h,,1,0,80,65,1,79
,,,,,,,,,,,,,,,,,,,,,,,,,,,,,,,,,,,r,3.971999884,PAR,FALSE,,,,,,,173,porc,Catalan,Sounds/cat_porc.mp3,2020-06-19_09h30.37.357,TranslationElicitation_spa,3.2.4,Win32,60,55nf2389fyevievh89gf18f913h,,1,0,80,65,1,79
,,,,,,,,,,,,,,,,,,,,,,,,,,,,,,,,,,,q,4.172999859,PARQ,FALSE,,,,,,,173,porc,Catalan,Sounds/cat_porc.mp3,2020-06-19_09h30.37.357,TranslationElicitation_spa,3.2.4,Win32,60,55nf2389fyevievh89gf18f913h,,1,0,80,65,1,79
,,,,,,,,,,,,,,,,,,,,,,,,,,,,,,,,,,,u,4.31799984,PARQU,FALSE,,,,,,,173,porc,Catalan,Sounds/cat_porc.mp3,2020-06-19_09h30.37.357,TranslationElicitation_spa,3.2.4,Win32,60,55nf2389fyevievh89gf18f913h,,1,0,80,65,1,79
,,,,,,,,,,,,,,,,,,,,,,,,,,,,,,,,,,,e,4.365999937,PARQUE,FALSE,,,,,,,173,porc,Catalan,Sounds/cat_porc.mp3,2020-06-19_09h30.37.357,TranslationElicitation_spa,3.2.4,Win32,60,55nf2389fyevievh89gf18f913h,,1,0,80,65,1,79
,,,,,,,,,,,,,,,,,,,,,,,,,,,,,,,,,,,return,4.653999805,,FALSE,,,,,,,173,porc,Catalan,Sounds/cat_porc.mp3,2020-06-19_09h30.37.357,TranslationElicitation_spa,3.2.4,Win32,60,55nf2389fyevievh89gf18f913h,4.653999805,1,0,80,65,1,79
,,,,,,,,,,,,,,,,,,,,,,,,,,,,,,,,,,,,,,,,,,,,,173,porc,Catalan,Sounds/cat_porc.mp3,2020-06-19_09h30.37.357,TranslationElicitation_spa,3.2.4,Win32,60,55nf2389fyevievh89gf18f913h,,1,0,80,65,1,79
,,,,,,,,,,,,,,,,,,,,,,,,,,,,,,,,,,,t,5.512000084,T,FALSE,,,,,,,180,tisores,Catalan,Sounds/cat_tisores.mp3,2020-06-19_09h30.37.357,TranslationElicitation_spa,3.2.4,Win32,60,55nf2389fyevievh89gf18f913h,,1,0,80,71,1,79
,,,,,,,,,,,,,,,,,,,,,,,,,,,,,,,,,,,i,5.629000187,TI,FALSE,,,,,,,180,tisores,Catalan,Sounds/cat_tisores.mp3,2020-06-19_09h30.37.357,TranslationElicitation_spa,3.2.4,Win32,60,55nf2389fyevievh89gf18f913h,,1,0,80,71,1,79
,,,,,,,,,,,,,,,,,,,,,,,,,,,,,,,,,,,j,5.738000154,TIJ,FALSE,,,,,,,180,tisores,Catalan,Sounds/cat_tisores.mp3,2020-06-19_09h30.37.357,TranslationElicitation_spa,3.2.4,Win32,60,55nf2389fyevievh89gf18f913h,,1,0,80,71,1,79
,,,,,,,,,,,,,,,,,,,,,,,,,,,,,,,,,,,e,5.834000111,TIJE,FALSE,,,,,,,180,tisores,Catalan,Sounds/cat_tisores.mp3,2020-06-19_09h30.37.357,TranslationElicitation_spa,3.2.4,Win32,60,55nf2389fyevievh89gf18f913h,,1,0,80,71,1,79
,,,,,,,,,,,,,,,,,,,,,,,,,,,,,,,,,,,r,5.912000179,TIJER,FALSE,,,,,,,180,tisores,Catalan,Sounds/cat_tisores.mp3,2020-06-19_09h30.37.357,TranslationElicitation_spa,3.2.4,Win32,60,55nf2389fyevievh89gf18f913h,,1,0,80,71,1,79
,,,,,,,,,,,,,,,,,,,,,,,,,,,,,,,,,,,a,5.979000092,TIJERA,FALSE,,,,,,,180,tisores,Catalan,Sounds/cat_tisores.mp3,2020-06-19_09h30.37.357,TranslationElicitation_spa,3.2.4,Win32,60,55nf2389fyevievh89gf18f913h,,1,0,80,71,1,79
,,,,,,,,,,,,,,,,,,,,,,,,,,,,,,,,,,,s,6.078999996,TIJERAS,FALSE,,,,,,,180,tisores,Catalan,Sounds/cat_tisores.mp3,2020-06-19_09h30.37.357,TranslationElicitation_spa,3.2.4,Win32,60,55nf2389fyevievh89gf18f913h,,1,0,80,71,1,79
,,,,,,,,,,,,,,,,,,,,,,,,,,,,,,,,,,,return,6.278000116,,FALSE,,,,,,,180,tisores,Catalan,Sounds/cat_tisores.mp3,2020-06-19_09h30.37.357,TranslationElicitation_spa,3.2.4,Win32,60,55nf2389fyevievh89gf18f913h,6.278000116,1,0,80,71,1,79
,,,,,,,,,,,,,,,,,,,,,,,,,,,,,,,,,,,,,,,,,,,,,180,tisores,Catalan,Sounds/cat_tisores.mp3,2020-06-19_09h30.37.357,TranslationElicitation_spa,3.2.4,Win32,60,55nf2389fyevievh89gf18f913h,,1,0,80,71,1,79
,,,,,,,,,,,,,,,,,,,,,,,,,,,,,,,,,,,o,1.430999994,O,FALSE,,,,,,,117,boto,Catalan,Sounds/cat_boto.mp3,2020-06-19_09h30.37.357,TranslationElicitation_spa,3.2.4,Win32,60,55nf2389fyevievh89gf18f913h,,1,0,80,12,1,79
,,,,,,,,,,,,,,,,,,,,,,,,,,,,,,,,,,,t,1.698000193,OT,FALSE,,,,,,,117,boto,Catalan,Sounds/cat_boto.mp3,2020-06-19_09h30.37.357,TranslationElicitation_spa,3.2.4,Win32,60,55nf2389fyevievh89gf18f913h,,1,0,80,12,1,79
,,,,,,,,,,,,,,,,,,,,,,,,,,,,,,,,,,,backspace,2.114000082,,TRUE,,,,,,,117,boto,Catalan,Sounds/cat_boto.mp3,2020-06-19_09h30.37.357,TranslationElicitation_spa,3.2.4,Win32,60,55nf2389fyevievh89gf18f913h,,1,0,80,12,1,79
,,,,,,,,,,,,,,,,,,,,,,,,,,,,,,,,,,,backspace,2.265000105,,TRUE,,,,,,,117,boto,Catalan,Sounds/cat_boto.mp3,2020-06-19_09h30.37.357,TranslationElicitation_spa,3.2.4,Win32,60,55nf2389fyevievh89gf18f913h,,1,0,80,12,1,79
,,,,,,,,,,,,,,,,,,,,,,,,,,,,,,,,,,,b,2.38499999,B,TRUE,,,,,,,117,boto,Catalan,Sounds/cat_boto.mp3,2020-06-19_09h30.37.357,TranslationElicitation_spa,3.2.4,Win32,60,55nf2389fyevievh89gf18f913h,,1,0,80,12,1,79
,,,,,,,,,,,,,,,,,,,,,,,,,,,,,,,,,,,o,2.881000042,BO,TRUE,,,,,,,117,boto,Catalan,Sounds/cat_boto.mp3,2020-06-19_09h30.37.357,TranslationElicitation_spa,3.2.4,Win32,60,55nf2389fyevievh89gf18f913h,,1,0,80,12,1,79
,,,,,,,,,,,,,,,,,,,,,,,,,,,,,,,,,,,t,3.014000177,BOT,TRUE,,,,,,,117,boto,Catalan,Sounds/cat_boto.mp3,2020-06-19_09h30.37.357,TranslationElicitation_spa,3.2.4,Win32,60,55nf2389fyevievh89gf18f913h,,1,0,80,12,1,79
,,,,,,,,,,,,,,,,,,,,,,,,,,,,,,,,,,,apostrophe,3.880000114,BOT,TRUE,,,,,,,117,boto,Catalan,Sounds/cat_boto.mp3,2020-06-19_09h30.37.357,TranslationElicitation_spa,3.2.4,Win32,60,55nf2389fyevievh89gf18f913h,,1,0,80,12,1,79
,,,,,,,,,,,,,,,,,,,,,,,,,,,,,,,,,,,o,4.015000105,BOTÓ,TRUE,,,,,,,117,boto,Catalan,Sounds/cat_boto.mp3,2020-06-19_09h30.37.357,TranslationElicitation_spa,3.2.4,Win32,60,55nf2389fyevievh89gf18f913h,,1,0,80,12,1,79
,,,,,,,,,,,,,,,,,,,,,,,,,,,,,,,,,,,n,4.124000072,BOTÓN,TRUE,,,,,,,117,boto,Catalan,Sounds/cat_boto.mp3,2020-06-19_09h30.37.357,TranslationElicitation_spa,3.2.4,Win32,60,55nf2389fyevievh89gf18f913h,,1,0,80,12,1,79
,,,,,,,,,,,,,,,,,,,,,,,,,,,,,,,,,,,return,4.320000172,,TRUE,,,,,,,117,boto,Catalan,Sounds/cat_boto.mp3,2020-06-19_09h30.37.357,TranslationElicitation_spa,3.2.4,Win32,60,55nf2389fyevievh89gf18f913h,4.320000172,1,0,80,12,1,79
,,,,,,,,,,,,,,,,,,,,,,,,,,,,,,,,,,,,,,,,,,,,,117,boto,Catalan,Sounds/cat_boto.mp3,2020-06-19_09h30.37.357,TranslationElicitation_spa,3.2.4,Win32,60,55nf2389fyevievh89gf18f913h,,1,0,80,12,1,79
,,,,,,,,,,,,,,,,,,,,,,,,,,,,,,,,,,,p,2.031000137,P,FALSE,,,,,,,169,plat,Catalan,Sounds/cat_plat.mp3,2020-06-19_09h30.37.357,TranslationElicitation_spa,3.2.4,Win32,60,55nf2389fyevievh89gf18f913h,,1,0,80,61,1,79
,,,,,,,,,,,,,,,,,,,,,,,,,,,,,,,,,,,l,2.286000013,PL,FALSE,,,,,,,169,plat,Catalan,Sounds/cat_plat.mp3,2020-06-19_09h30.37.357,TranslationElicitation_spa,3.2.4,Win32,60,55nf2389fyevievh89gf18f913h,,1,0,80,61,1,79
,,,,,,,,,,,,,,,,,,,,,,,,,,,,,,,,,,,a,2.351000071,PLA,FALSE,,,,,,,169,plat,Catalan,Sounds/cat_plat.mp3,2020-06-19_09h30.37.357,TranslationElicitation_spa,3.2.4,Win32,60,55nf2389fyevievh89gf18f913h,,1,0,80,61,1,79
,,,,,,,,,,,,,,,,,,,,,,,,,,,,,,,,,,,t,2.480999947,PLAT,FALSE,,,,,,,169,plat,Catalan,Sounds/cat_plat.mp3,2020-06-19_09h30.37.357,TranslationElicitation_spa,3.2.4,Win32,60,55nf2389fyevievh89gf18f913h,,1,0,80,61,1,79
,,,,,,,,,,,,,,,,,,,,,,,,,,,,,,,,,,,o,2.630000114,PLATO,FALSE,,,,,,,169,plat,Catalan,Sounds/cat_plat.mp3,2020-06-19_09h30.37.357,TranslationElicitation_spa,3.2.4,Win32,60,55nf2389fyevievh89gf18f913h,,1,0,80,61,1,79
,,,,,,,,,,,,,,,,,,,,,,,,,,,,,,,,,,,return,2.913000107,,FALSE,,,,,,,169,plat,Catalan,Sounds/cat_plat.mp3,2020-06-19_09h30.37.357,TranslationElicitation_spa,3.2.4,Win32,60,55nf2389fyevievh89gf18f913h,2.913000107,1,0,80,61,1,79
,,,,,,,,,,,,,,,,,,,,,,,,,,,,,,,,,,,,,,,,,,,,,169,plat,Catalan,Sounds/cat_plat.mp3,2020-06-19_09h30.37.357,TranslationElicitation_spa,3.2.4,Win32,60,55nf2389fyevievh89gf18f913h,,1,0,80,61,1,79
,,,,,,,,,,,,,,,,,,,,,,,,,,,,,,,,,,,b,1.713000059,B,FALSE,,,,,,,112,bici,Catalan,Sounds/cat_bici.mp3,2020-06-19_09h30.37.357,TranslationElicitation_spa,3.2.4,Win32,60,55nf2389fyevievh89gf18f913h,,1,0,80,7,1,79
,,,,,,,,,,,,,,,,,,,,,,,,,,,,,,,,,,,i,1.845999956,BI,FALSE,,,,,,,112,bici,Catalan,Sounds/cat_bici.mp3,2020-06-19_09h30.37.357,TranslationElicitation_spa,3.2.4,Win32,60,55nf2389fyevievh89gf18f913h,,1,0,80,7,1,79
,,,,,,,,,,,,,,,,,,,,,,,,,,,,,,,,,,,c,1.980000019,BIC,FALSE,,,,,,,112,bici,Catalan,Sounds/cat_bici.mp3,2020-06-19_09h30.37.357,TranslationElicitation_spa,3.2.4,Win32,60,55nf2389fyevievh89gf18f913h,,1,0,80,7,1,79
,,,,,,,,,,,,,,,,,,,,,,,,,,,,,,,,,,,i,2.078999996,BICI,FALSE,,,,,,,112,bici,Catalan,Sounds/cat_bici.mp3,2020-06-19_09h30.37.357,TranslationElicitation_spa,3.2.4,Win32,60,55nf2389fyevievh89gf18f913h,,1,0,80,7,1,79
,,,,,,,,,,,,,,,,,,,,,,,,,,,,,,,,,,,return,2.664000034,,FALSE,,,,,,,112,bici,Catalan,Sounds/cat_bici.mp3,2020-06-19_09h30.37.357,TranslationElicitation_spa,3.2.4,Win32,60,55nf2389fyevievh89gf18f913h,2.664000034,1,0,80,7,1,79
,,,,,,,,,,,,,,,,,,,,,,,,,,,,,,,,,,,,,,,,,,,,,112,bici,Catalan,Sounds/cat_bici.mp3,2020-06-19_09h30.37.357,TranslationElicitation_spa,3.2.4,Win32,60,55nf2389fyevievh89gf18f913h,,1,0,80,7,1,79
,,,,,,,,,,,,,,,,,,,,,,,,,,,,,,,,,,,b,1.34800005,B,FALSE,,,,,,,111,bibero,Catalan,Sounds/cat_bibero.mp3,2020-06-19_09h30.37.357,TranslationElicitation_spa,3.2.4,Win32,60,55nf2389fyevievh89gf18f913h,,1,0,80,6,1,79
,,,,,,,,,,,,,,,,,,,,,,,,,,,,,,,,,,,i,1.463999987,BI,FALSE,,,,,,,111,bibero,Catalan,Sounds/cat_bibero.mp3,2020-06-19_09h30.37.357,TranslationElicitation_spa,3.2.4,Win32,60,55nf2389fyevievh89gf18f913h,,1,0,80,6,1,79
,,,,,,,,,,,,,,,,,,,,,,,,,,,,,,,,,,,b,1.597000122,BIB,FALSE,,,,,,,111,bibero,Catalan,Sounds/cat_bibero.mp3,2020-06-19_09h30.37.357,TranslationElicitation_spa,3.2.4,Win32,60,55nf2389fyevievh89gf18f913h,,1,0,80,6,1,79
,,,,,,,,,,,,,,,,,,,,,,,,,,,,,,,,,,,e,1.812999964,BIBE,FALSE,,,,,,,111,bibero,Catalan,Sounds/cat_bibero.mp3,2020-06-19_09h30.37.357,TranslationElicitation_spa,3.2.4,Win32,60,55nf2389fyevievh89gf18f913h,,1,0,80,6,1,79
,,,,,,,,,,,,,,,,,,,,,,,,,,,,,,,,,,,r,1.957000017,BIBER,FALSE,,,,,,,111,bibero,Catalan,Sounds/cat_bibero.mp3,2020-06-19_09h30.37.357,TranslationElicitation_spa,3.2.4,Win32,60,55nf2389fyevievh89gf18f913h,,1,0,80,6,1,79
,,,,,,,,,,,,,,,,,,,,,,,,,,,,,,,,,,,apostrophe,2.646000147,BIBER,FALSE,,,,,,,111,bibero,Catalan,Sounds/cat_bibero.mp3,2020-06-19_09h30.37.357,TranslationElicitation_spa,3.2.4,Win32,60,55nf2389fyevievh89gf18f913h,,1,0,80,6,1,79
,,,,,,,,,,,,,,,,,,,,,,,,,,,,,,,,,,,o,2.877000093,BIBERÓ,FALSE,,,,,,,111,bibero,Catalan,Sounds/cat_bibero.mp3,2020-06-19_09h30.37.357,TranslationElicitation_spa,3.2.4,Win32,60,55nf2389fyevievh89gf18f913h,,1,0,80,6,1,79
,,,,,,,,,,,,,,,,,,,,,,,,,,,,,,,,,,,n,2.970999956,BIBERÓN,FALSE,,,,,,,111,bibero,Catalan,Sounds/cat_bibero.mp3,2020-06-19_09h30.37.357,TranslationElicitation_spa,3.2.4,Win32,60,55nf2389fyevievh89gf18f913h,,1,0,80,6,1,79
,,,,,,,,,,,,,,,,,,,,,,,,,,,,,,,,,,,return,3.179000139,,FALSE,,,,,,,111,bibero,Catalan,Sounds/cat_bibero.mp3,2020-06-19_09h30.37.357,TranslationElicitation_spa,3.2.4,Win32,60,55nf2389fyevievh89gf18f913h,3.179000139,1,0,80,6,1,79
,,,,,,,,,,,,,,,,,,,,,,,,,,,,,,,,,,,,,,,,,,,,,111,bibero,Catalan,Sounds/cat_bibero.mp3,2020-06-19_09h30.37.357,TranslationElicitation_spa,3.2.4,Win32,60,55nf2389fyevievh89gf18f913h,,1,0,80,6,1,79
,,,,,,,,,,,,,,,,,,,,,,,,,,,,,,,,,,,v,9.667000055,V,FALSE,,,,,,,116,bolquer,Catalan,Sounds/cat_bolquer.mp3,2020-06-19_09h30.37.357,TranslationElicitation_spa,3.2.4,Win32,60,55nf2389fyevievh89gf18f913h,,1,0,80,11,1,79
,,,,,,,,,,,,,,,,,,,,,,,,,,,,,,,,,,,o,9.761000156,VO,FALSE,,,,,,,116,bolquer,Catalan,Sounds/cat_bolquer.mp3,2020-06-19_09h30.37.357,TranslationElicitation_spa,3.2.4,Win32,60,55nf2389fyevievh89gf18f913h,,1,0,80,11,1,79
,,,,,,,,,,,,,,,,,,,,,,,,,,,,,,,,,,,l,9.927999973,VOL,FALSE,,,,,,,116,bolquer,Catalan,Sounds/cat_bolquer.mp3,2020-06-19_09h30.37.357,TranslationElicitation_spa,3.2.4,Win32,60,55nf2389fyevievh89gf18f913h,,1,0,80,11,1,79
,,,,,,,,,,,,,,,,,,,,,,,,,,,,,,,,,,,c,10.04500008,VOLC,FALSE,,,,,,,116,bolquer,Catalan,Sounds/cat_bolquer.mp3,2020-06-19_09h30.37.357,TranslationElicitation_spa,3.2.4,Win32,60,55nf2389fyevievh89gf18f913h,,1,0,80,11,1,79
,,,,,,,,,,,,,,,,,,,,,,,,,,,,,,,,,,,a,10.0940001,VOLCA,FALSE,,,,,,,116,bolquer,Catalan,Sounds/cat_bolquer.mp3,2020-06-19_09h30.37.357,TranslationElicitation_spa,3.2.4,Win32,60,55nf2389fyevievh89gf18f913h,,1,0,80,11,1,79
,,,,,,,,,,,,,,,,,,,,,,,,,,,,,,,,,,,backspace,11.22799993,VOL,TRUE,,,,,,,116,bolquer,Catalan,Sounds/cat_bolquer.mp3,2020-06-19_09h30.37.357,TranslationElicitation_spa,3.2.4,Win32,60,55nf2389fyevievh89gf18f913h,,1,0,80,11,1,79
,,,,,,,,,,,,,,,,,,,,,,,,,,,,,,,,,,,apostrophe,11.75200009,VOL,TRUE,,,,,,,116,bolquer,Catalan,Sounds/cat_bolquer.mp3,2020-06-19_09h30.37.357,TranslationElicitation_spa,3.2.4,Win32,60,55nf2389fyevievh89gf18f913h,,1,0,80,11,1,79
,,,,,,,,,,,,,,,,,,,,,,,,,,,,,,,,,,,a,11.87599993,VOLÁ,TRUE,,,,,,,116,bolquer,Catalan,Sounds/cat_bolquer.mp3,2020-06-19_09h30.37.357,TranslationElicitation_spa,3.2.4,Win32,60,55nf2389fyevievh89gf18f913h,,1,0,80,11,1,79
,,,,,,,,,,,,,,,,,,,,,,,,,,,,,,,,,,,n,12.00399995,VOLÁN,TRUE,,,,,,,116,bolquer,Catalan,Sounds/cat_bolquer.mp3,2020-06-19_09h30.37.357,TranslationElicitation_spa,3.2.4,Win32,60,55nf2389fyevievh89gf18f913h,,1,0,80,11,1,79
,,,,,,,,,,,,,,,,,,,,,,,,,,,,,,,,,,,return,12.21600008,,TRUE,,,,,,,116,bolquer,Catalan,Sounds/cat_bolquer.mp3,2020-06-19_09h30.37.357,TranslationElicitation_spa,3.2.4,Win32,60,55nf2389fyevievh89gf18f913h,12.21600008,1,0,80,11,1,79
,,,,,,,,,,,,,,,,,,,,,,,,,,,,,,,,,,,,,,,,,,,,,116,bolquer,Catalan,Sounds/cat_bolquer.mp3,2020-06-19_09h30.37.357,TranslationElicitation_spa,3.2.4,Win32,60,55nf2389fyevievh89gf18f913h,,1,0,80,11,1,79
,,,,,,,,,,,,,,,,,,,,,,,,,,,,,,,,,,,n,1.55700016,N,FALSE,,,,,,,151,lluna,Catalan,Sounds/cat_lluna.mp3,2020-06-19_09h30.37.357,TranslationElicitation_spa,3.2.4,Win32,60,55nf2389fyevievh89gf18f913h,,1,0,80,45,1,79
,,,,,,,,,,,,,,,,,,,,,,,,,,,,,,,,,,,backspace,2.322000027,,TRUE,,,,,,,151,lluna,Catalan,Sounds/cat_lluna.mp3,2020-06-19_09h30.37.357,TranslationElicitation_spa,3.2.4,Win32,60,55nf2389fyevievh89gf18f913h,,1,0,80,45,1,79
,,,,,,,,,,,,,,,,,,,,,,,,,,,,,,,,,,,l,2.904999971,L,TRUE,,,,,,,151,lluna,Catalan,Sounds/cat_lluna.mp3,2020-06-19_09h30.37.357,TranslationElicitation_spa,3.2.4,Win32,60,55nf2389fyevievh89gf18f913h,,1,0,80,45,1,79
,,,,,,,,,,,,,,,,,,,,,,,,,,,,,,,,,,,u,3.17200017,LU,TRUE,,,,,,,151,lluna,Catalan,Sounds/cat_lluna.mp3,2020-06-19_09h30.37.357,TranslationElicitation_spa,3.2.4,Win32,60,55nf2389fyevievh89gf18f913h,,1,0,80,45,1,79
,,,,,,,,,,,,,,,,,,,,,,,,,,,,,,,,,,,n,3.321000099,LUN,TRUE,,,,,,,151,lluna,Catalan,Sounds/cat_lluna.mp3,2020-06-19_09h30.37.357,TranslationElicitation_spa,3.2.4,Win32,60,55nf2389fyevievh89gf18f913h,,1,0,80,45,1,79
,,,,,,,,,,,,,,,,,,,,,,,,,,,,,,,,,,,a,3.430999994,LUNA,TRUE,,,,,,,151,lluna,Catalan,Sounds/cat_lluna.mp3,2020-06-19_09h30.37.357,TranslationElicitation_spa,3.2.4,Win32,60,55nf2389fyevievh89gf18f913h,,1,0,80,45,1,79
,,,,,,,,,,,,,,,,,,,,,,,,,,,,,,,,,,,return,3.577000141,,TRUE,,,,,,,151,lluna,Catalan,Sounds/cat_lluna.mp3,2020-06-19_09h30.37.357,TranslationElicitation_spa,3.2.4,Win32,60,55nf2389fyevievh89gf18f913h,3.577000141,1,0,80,45,1,79
,,,,,,,,,,,,,,,,,,,,,,,,,,,,,,,,,,,,,,,,,,,,,151,lluna,Catalan,Sounds/cat_lluna.mp3,2020-06-19_09h30.37.357,TranslationElicitation_spa,3.2.4,Win32,60,55nf2389fyevievh89gf18f913h,,1,0,80,45,1,79
,,,,,,,,,,,,,,,,,,,,,,,,,,,,,,,,,,,a,4.296000004,A,FALSE,,,,,,,104,abella,Catalan,Sounds/cat_abella.mp3,2020-06-19_09h30.37.357,TranslationElicitation_spa,3.2.4,Win32,60,55nf2389fyevievh89gf18f913h,,1,0,80,0,1,79
,,,,,,,,,,,,,,,,,,,,,,,,,,,,,,,,,,,v,6.427999973,AV,FALSE,,,,,,,104,abella,Catalan,Sounds/cat_abella.mp3,2020-06-19_09h30.37.357,TranslationElicitation_spa,3.2.4,Win32,60,55nf2389fyevievh89gf18f913h,,1,0,80,0,1,79
,,,,,,,,,,,,,,,,,,,,,,,,,,,,,,,,,,,e,6.444999933,AVE,FALSE,,,,,,,104,abella,Catalan,Sounds/cat_abella.mp3,2020-06-19_09h30.37.357,TranslationElicitation_spa,3.2.4,Win32,60,55nf2389fyevievh89gf18f913h,,1,0,80,0,1,79
,,,,,,,,,,,,,,,,,,,,,,,,,,,,,,,,,,,n,6.628000021,AVEN,FALSE,,,,,,,104,abella,Catalan,Sounds/cat_abella.mp3,2020-06-19_09h30.37.357,TranslationElicitation_spa,3.2.4,Win32,60,55nf2389fyevievh89gf18f913h,,1,0,80,0,1,79
,,,,,,,,,,,,,,,,,,,,,,,,,,,,,,,,,,,i,6.711999893,AVENI,FALSE,,,,,,,104,abella,Catalan,Sounds/cat_abella.mp3,2020-06-19_09h30.37.357,TranslationElicitation_spa,3.2.4,Win32,60,55nf2389fyevievh89gf18f913h,,1,0,80,0,1,79
,,,,,,,,,,,,,,,,,,,,,,,,,,,,,,,,,,,d,6.848999977,AVENID,FALSE,,,,,,,104,abella,Catalan,Sounds/cat_abella.mp3,2020-06-19_09h30.37.357,TranslationElicitation_spa,3.2.4,Win32,60,55nf2389fyevievh89gf18f913h,,1,0,80,0,1,79
,,,,,,,,,,,,,,,,,,,,,,,,,,,,,,,,,,,a,7.02699995,AVENIDA,FALSE,,,,,,,104,abella,Catalan,Sounds/cat_abella.mp3,2020-06-19_09h30.37.357,TranslationElicitation_spa,3.2.4,Win32,60,55nf2389fyevievh89gf18f913h,,1,0,80,0,1,79
,,,,,,,,,,,,,,,,,,,,,,,,,,,,,,,,,,,return,7.636999846,,FALSE,,,,,,,104,abella,Catalan,Sounds/cat_abella.mp3,2020-06-19_09h30.37.357,TranslationElicitation_spa,3.2.4,Win32,60,55nf2389fyevievh89gf18f913h,7.636999846,1,0,80,0,1,79
,,,,,,,,,,,,,,,,,,,,,,,,,,,,,,,,,,,,,,,,,,,,,104,abella,Catalan,Sounds/cat_abella.mp3,2020-06-19_09h30.37.357,TranslationElicitation_spa,3.2.4,Win32,60,55nf2389fyevievh89gf18f913h,,1,0,80,0,1,79
,,,,,,,,,,,,,,,,,,,,,,,,,,,,,,,,,,,e,1.221999884,E,FALSE,,,,,,,132,estrella,Catalan,Sounds/cat_estrella.mp3,2020-06-19_09h30.37.357,TranslationElicitation_spa,3.2.4,Win32,60,55nf2389fyevievh89gf18f913h,,1,0,80,27,1,79
,,,,,,,,,,,,,,,,,,,,,,,,,,,,,,,,,,,s,1.305999994,ES,FALSE,,,,,,,132,estrella,Catalan,Sounds/cat_estrella.mp3,2020-06-19_09h30.37.357,TranslationElicitation_spa,3.2.4,Win32,60,55nf2389fyevievh89gf18f913h,,1,0,80,27,1,79
,,,,,,,,,,,,,,,,,,,,,,,,,,,,,,,,,,,t,1.538000107,EST,FALSE,,,,,,,132,estrella,Catalan,Sounds/cat_estrella.mp3,2020-06-19_09h30.37.357,TranslationElicitation_spa,3.2.4,Win32,60,55nf2389fyevievh89gf18f913h,,1,0,80,27,1,79
,,,,,,,,,,,,,,,,,,,,,,,,,,,,,,,,,,,r,1.621999979,ESTR,FALSE,,,,,,,132,estrella,Catalan,Sounds/cat_estrella.mp3,2020-06-19_09h30.37.357,TranslationElicitation_spa,3.2.4,Win32,60,55nf2389fyevievh89gf18f913h,,1,0,80,27,1,79
,,,,,,,,,,,,,,,,,,,,,,,,,,,,,,,,,,,e,1.805000067,ESTRE,FALSE,,,,,,,132,estrella,Catalan,Sounds/cat_estrella.mp3,2020-06-19_09h30.37.357,TranslationElicitation_spa,3.2.4,Win32,60,55nf2389fyevievh89gf18f913h,,1,0,80,27,1,79
,,,,,,,,,,,,,,,,,,,,,,,,,,,,,,,,,,,l,1.980000019,ESTREL,FALSE,,,,,,,132,estrella,Catalan,Sounds/cat_estrella.mp3,2020-06-19_09h30.37.357,TranslationElicitation_spa,3.2.4,Win32,60,55nf2389fyevievh89gf18f913h,,1,0,80,27,1,79
,,,,,,,,,,,,,,,,,,,,,,,,,,,,,,,,,,,l,2.088000059,ESTRELL,FALSE,,,,,,,132,estrella,Catalan,Sounds/cat_estrella.mp3,2020-06-19_09h30.37.357,TranslationElicitation_spa,3.2.4,Win32,60,55nf2389fyevievh89gf18f913h,,1,0,80,27,1,79
,,,,,,,,,,,,,,,,,,,,,,,,,,,,,,,,,,,a,2.187999964,ESTRELLA,FALSE,,,,,,,132,estrella,Catalan,Sounds/cat_estrella.mp3,2020-06-19_09h30.37.357,TranslationElicitation_spa,3.2.4,Win32,60,55nf2389fyevievh89gf18f913h,,1,0,80,27,1,79
,,,,,,,,,,,,,,,,,,,,,,,,,,,,,,,,,,,return,2.355000019,,FALSE,,,,,,,132,estrella,Catalan,Sounds/cat_estrella.mp3,2020-06-19_09h30.37.357,TranslationElicitation_spa,3.2.4,Win32,60,55nf2389fyevievh89gf18f913h,2.354000092,1,0,80,27,1,79
,,,,,,,,,,,,,,,,,,,,,,,,,,,,,,,,,,,,,,,,,,,,,132,estrella,Catalan,Sounds/cat_estrella.mp3,2020-06-19_09h30.37.357,TranslationElicitation_spa,3.2.4,Win32,60,55nf2389fyevievh89gf18f913h,,1,0,80,27,1,79
,,,,,,,,,,,,,,,,,,,,,,,,,,,,,,,,,,,c,2.461999893,C,FALSE,,,,,,,176,samarreta,Catalan,Sounds/cat_samarreta.mp3,2020-06-19_09h30.37.357,TranslationElicitation_spa,3.2.4,Win32,60,55nf2389fyevievh89gf18f913h,,1,0,80,68,1,79
,,,,,,,,,,,,,,,,,,,,,,,,,,,,,,,,,,,h,2.595999956,CH,FALSE,,,,,,,176,samarreta,Catalan,Sounds/cat_samarreta.mp3,2020-06-19_09h30.37.357,TranslationElicitation_spa,3.2.4,Win32,60,55nf2389fyevievh89gf18f913h,,1,0,80,68,1,79
,,,,,,,,,,,,,,,,,,,,,,,,,,,,,,,,,,,a,2.661999941,CHA,FALSE,,,,,,,176,samarreta,Catalan,Sounds/cat_samarreta.mp3,2020-06-19_09h30.37.357,TranslationElicitation_spa,3.2.4,Win32,60,55nf2389fyevievh89gf18f913h,,1,0,80,68,1,79
,,,,,,,,,,,,,,,,,,,,,,,,,,,,,,,,,,,q,2.853999853,CHAQ,FALSE,,,,,,,176,samarreta,Catalan,Sounds/cat_samarreta.mp3,2020-06-19_09h30.37.357,TranslationElicitation_spa,3.2.4,Win32,60,55nf2389fyevievh89gf18f913h,,1,0,80,68,1,79
,,,,,,,,,,,,,,,,,,,,,,,,,,,,,,,,,,,u,2.993000031,CHAQU,FALSE,,,,,,,176,samarreta,Catalan,Sounds/cat_samarreta.mp3,2020-06-19_09h30.37.357,TranslationElicitation_spa,3.2.4,Win32,60,55nf2389fyevievh89gf18f913h,,1,0,80,68,1,79
,,,,,,,,,,,,,,,,,,,,,,,,,,,,,,,,,,,e,3.078000069,CHAQUE,FALSE,,,,,,,176,samarreta,Catalan,Sounds/cat_samarreta.mp3,2020-06-19_09h30.37.357,TranslationElicitation_spa,3.2.4,Win32,60,55nf2389fyevievh89gf18f913h,,1,0,80,68,1,79
,,,,,,,,,,,,,,,,,,,,,,,,,,,,,,,,,,,t,3.269999981,CHAQUET,FALSE,,,,,,,176,samarreta,Catalan,Sounds/cat_samarreta.mp3,2020-06-19_09h30.37.357,TranslationElicitation_spa,3.2.4,Win32,60,55nf2389fyevievh89gf18f913h,,1,0,80,68,1,79
,,,,,,,,,,,,,,,,,,,,,,,,,,,,,,,,,,,a,3.457000017,CHAQUETA,FALSE,,,,,,,176,samarreta,Catalan,Sounds/cat_samarreta.mp3,2020-06-19_09h30.37.357,TranslationElicitation_spa,3.2.4,Win32,60,55nf2389fyevievh89gf18f913h,,1,0,80,68,1,79
,,,,,,,,,,,,,,,,,,,,,,,,,,,,,,,,,,,return,3.680999994,,FALSE,,,,,,,176,samarreta,Catalan,Sounds/cat_samarreta.mp3,2020-06-19_09h30.37.357,TranslationElicitation_spa,3.2.4,Win32,60,55nf2389fyevievh89gf18f913h,3.680999994,1,0,80,68,1,79
,,,,,,,,,,,,,,,,,,,,,,,,,,,,,,,,,,,,,,,,,,,,,176,samarreta,Catalan,Sounds/cat_samarreta.mp3,2020-06-19_09h30.37.357,TranslationElicitation_spa,3.2.4,Win32,60,55nf2389fyevievh89gf18f913h,,1,0,80,68,1,79
,,,,,,,,,,,,,,,,,,,,,,,,,,,,,,,,,,,c,2.296000004,C,FALSE,,,,,,,106,aixeta,Catalan,Sounds/cat_aixeta.mp3,2020-06-19_09h30.37.357,TranslationElicitation_spa,3.2.4,Win32,60,55nf2389fyevievh89gf18f913h,,1,0,80,2,1,79
,,,,,,,,,,,,,,,,,,,,,,,,,,,,,,,,,,,a,2.378999949,CA,FALSE,,,,,,,106,aixeta,Catalan,Sounds/cat_aixeta.mp3,2020-06-19_09h30.37.357,TranslationElicitation_spa,3.2.4,Win32,60,55nf2389fyevievh89gf18f913h,,1,0,80,2,1,79
,,,,,,,,,,,,,,,,,,,,,,,,,,,,,,,,,,,s,2.572000027,CAS,FALSE,,,,,,,106,aixeta,Catalan,Sounds/cat_aixeta.mp3,2020-06-19_09h30.37.357,TranslationElicitation_spa,3.2.4,Win32,60,55nf2389fyevievh89gf18f913h,,1,0,80,2,1,79
,,,,,,,,,,,,,,,,,,,,,,,,,,,,,,,,,,,e,2.683000088,CASE,FALSE,,,,,,,106,aixeta,Catalan,Sounds/cat_aixeta.mp3,2020-06-19_09h30.37.357,TranslationElicitation_spa,3.2.4,Win32,60,55nf2389fyevievh89gf18f913h,,1,0,80,2,1,79
,,,,,,,,,,,,,,,,,,,,,,,,,,,,,,,,,,,t,2.828999996,CASET,FALSE,,,,,,,106,aixeta,Catalan,Sounds/cat_aixeta.mp3,2020-06-19_09h30.37.357,TranslationElicitation_spa,3.2.4,Win32,60,55nf2389fyevievh89gf18f913h,,1,0,80,2,1,79
,,,,,,,,,,,,,,,,,,,,,,,,,,,,,,,,,,,a,2.911999941,CASETA,FALSE,,,,,,,106,aixeta,Catalan,Sounds/cat_aixeta.mp3,2020-06-19_09h30.37.357,TranslationElicitation_spa,3.2.4,Win32,60,55nf2389fyevievh89gf18f913h,,1,0,80,2,1,79
,,,,,,,,,,,,,,,,,,,,,,,,,,,,,,,,,,,return,3.227999926,,FALSE,,,,,,,106,aixeta,Catalan,Sounds/cat_aixeta.mp3,2020-06-19_09h30.37.357,TranslationElicitation_spa,3.2.4,Win32,60,55nf2389fyevievh89gf18f913h,3.227999926,1,0,80,2,1,79
,,,,,,,,,,,,,,,,,,,,,,,,,,,,,,,,,,,,,,,,,,,,,106,aixeta,Catalan,Sounds/cat_aixeta.mp3,2020-06-19_09h30.37.357,TranslationElicitation_spa,3.2.4,Win32,60,55nf2389fyevievh89gf18f913h,,1,0,80,2,1,79
,,,,,,,,,,,,,,,,,,,,,,,,,,,,,,,,,,,a,4.097000122,A,FALSE,,,,,,,105,aigua,Catalan,Sounds/cat_aigua.mp3,2020-06-19_09h30.37.357,TranslationElicitation_spa,3.2.4,Win32,60,55nf2389fyevievh89gf18f913h,,1,0,80,1,1,79
,,,,,,,,,,,,,,,,,,,,,,,,,,,,,,,,,,,g,4.246999979,AG,FALSE,,,,,,,105,aigua,Catalan,Sounds/cat_aigua.mp3,2020-06-19_09h30.37.357,TranslationElicitation_spa,3.2.4,Win32,60,55nf2389fyevievh89gf18f913h,,1,0,80,1,1,79
,,,,,,,,,,,,,,,,,,,,,,,,,,,,,,,,,,,u,4.621000051,AGU,FALSE,,,,,,,105,aigua,Catalan,Sounds/cat_aigua.mp3,2020-06-19_09h30.37.357,TranslationElicitation_spa,3.2.4,Win32,60,55nf2389fyevievh89gf18f913h,,1,0,80,1,1,79
,,,,,,,,,,,,,,,,,,,,,,,,,,,,,,,,,,,a,4.753999949,AGUA,FALSE,,,,,,,105,aigua,Catalan,Sounds/cat_aigua.mp3,2020-06-19_09h30.37.357,TranslationElicitation_spa,3.2.4,Win32,60,55nf2389fyevievh89gf18f913h,,1,0,80,1,1,79
,,,,,,,,,,,,,,,,,,,,,,,,,,,,,,,,,,,return,5.262000084,,FALSE,,,,,,,105,aigua,Catalan,Sounds/cat_aigua.mp3,2020-06-19_09h30.37.357,TranslationElicitation_spa,3.2.4,Win32,60,55nf2389fyevievh89gf18f913h,5.262000084,1,0,80,1,1,79
,,,,,,,,,,,,,,,,,,,,,,,,,,,,,,,,,,,,,,,,,,,,,105,aigua,Catalan,Sounds/cat_aigua.mp3,2020-06-19_09h30.37.357,TranslationElicitation_spa,3.2.4,Win32,60,55nf2389fyevievh89gf18f913h,,1,0,80,1,1,79
,,,,,,,,,,,,,,,,,,,,,,,,,,,,,,,,,,,c,1.530999899,C,FALSE,,,,,,,123,cavall,Catalan,Sounds/cat_cavall.mp3,2020-06-19_09h30.37.357,TranslationElicitation_spa,3.2.4,Win32,60,55nf2389fyevievh89gf18f913h,,1,0,80,18,1,79
,,,,,,,,,,,,,,,,,,,,,,,,,,,,,,,,,,,a,1.613999844,CA,FALSE,,,,,,,123,cavall,Catalan,Sounds/cat_cavall.mp3,2020-06-19_09h30.37.357,TranslationElicitation_spa,3.2.4,Win32,60,55nf2389fyevievh89gf18f913h,,1,0,80,18,1,79
,,,,,,,,,,,,,,,,,,,,,,,,,,,,,,,,,,,b,1.812999964,CAB,FALSE,,,,,,,123,cavall,Catalan,Sounds/cat_cavall.mp3,2020-06-19_09h30.37.357,TranslationElicitation_spa,3.2.4,Win32,60,55nf2389fyevievh89gf18f913h,,1,0,80,18,1,79
,,,,,,,,,,,,,,,,,,,,,,,,,,,,,,,,,,,a,1.896999836,CABA,FALSE,,,,,,,123,cavall,Catalan,Sounds/cat_cavall.mp3,2020-06-19_09h30.37.357,TranslationElicitation_spa,3.2.4,Win32,60,55nf2389fyevievh89gf18f913h,,1,0,80,18,1,79
,,,,,,,,,,,,,,,,,,,,,,,,,,,,,,,,,,,l,2.052999973,CABAL,FALSE,,,,,,,123,cavall,Catalan,Sounds/cat_cavall.mp3,2020-06-19_09h30.37.357,TranslationElicitation_spa,3.2.4,Win32,60,55nf2389fyevievh89gf18f913h,,1,0,80,18,1,79
,,,,,,,,,,,,,,,,,,,,,,,,,,,,,,,,,,,l,2.225999832,CABALL,FALSE,,,,,,,123,cavall,Catalan,Sounds/cat_cavall.mp3,2020-06-19_09h30.37.357,TranslationElicitation_spa,3.2.4,Win32,60,55nf2389fyevievh89gf18f913h,,1,0,80,18,1,79
,,,,,,,,,,,,,,,,,,,,,,,,,,,,,,,,,,,o,2.398000002,CABALLO,FALSE,,,,,,,123,cavall,Catalan,Sounds/cat_cavall.mp3,2020-06-19_09h30.37.357,TranslationElicitation_spa,3.2.4,Win32,60,55nf2389fyevievh89gf18f913h,,1,0,80,18,1,79
,,,,,,,,,,,,,,,,,,,,,,,,,,,,,,,,,,,return,2.796999931,,FALSE,,,,,,,123,cavall,Catalan,Sounds/cat_cavall.mp3,2020-06-19_09h30.37.357,TranslationElicitation_spa,3.2.4,Win32,60,55nf2389fyevievh89gf18f913h,2.796999931,1,0,80,18,1,79
,,,,,,,,,,,,,,,,,,,,,,,,,,,,,,,,,,,,,,,,,,,,,123,cavall,Catalan,Sounds/cat_cavall.mp3,2020-06-19_09h30.37.357,TranslationElicitation_spa,3.2.4,Win32,60,55nf2389fyevievh89gf18f913h,,1,0,80,18,1,79
,,,,,,,,,,,,,,,,,,,,,,,,,,,,,,,,,,,return,9.344000101,,FALSE,,,,,,,165,pernil,Catalan,Sounds/cat_pernil.mp3,2020-06-19_09h30.37.357,TranslationElicitation_spa,3.2.4,Win32,60,55nf2389fyevievh89gf18f913h,9.344000101,1,0,80,58,1,79
,,,,,,,,,,,,,,,,,,,,,,,,,,,,,,,,,,,,,,,,,,,,,165,pernil,Catalan,Sounds/cat_pernil.mp3,2020-06-19_09h30.37.357,TranslationElicitation_spa,3.2.4,Win32,60,55nf2389fyevievh89gf18f913h,,1,0,80,58,1,79
,,,,,,,,,,,,,,,,,,,,,,,,,,,,,,,,,,,p,1.213999987,P,FALSE,,,,,,,164,patata,Catalan,Sounds/cat_patata.mp3,2020-06-19_09h30.37.357,TranslationElicitation_spa,3.2.4,Win32,60,55nf2389fyevievh89gf18f913h,,1,0,80,57,1,79
,,,,,,,,,,,,,,,,,,,,,,,,,,,,,,,,,,,a,1.279999971,PA,FALSE,,,,,,,164,patata,Catalan,Sounds/cat_patata.mp3,2020-06-19_09h30.37.357,TranslationElicitation_spa,3.2.4,Win32,60,55nf2389fyevievh89gf18f913h,,1,0,80,57,1,79
,,,,,,,,,,,,,,,,,,,,,,,,,,,,,,,,,,,t,1.513000011,PAT,FALSE,,,,,,,164,patata,Catalan,Sounds/cat_patata.mp3,2020-06-19_09h30.37.357,TranslationElicitation_spa,3.2.4,Win32,60,55nf2389fyevievh89gf18f913h,,1,0,80,57,1,79
,,,,,,,,,,,,,,,,,,,,,,,,,,,,,,,,,,,a,1.621999979,PATA,FALSE,,,,,,,164,patata,Catalan,Sounds/cat_patata.mp3,2020-06-19_09h30.37.357,TranslationElicitation_spa,3.2.4,Win32,60,55nf2389fyevievh89gf18f913h,,1,0,80,57,1,79
,,,,,,,,,,,,,,,,,,,,,,,,,,,,,,,,,,,t,1.803999901,PATAT,FALSE,,,,,,,164,patata,Catalan,Sounds/cat_patata.mp3,2020-06-19_09h30.37.357,TranslationElicitation_spa,3.2.4,Win32,60,55nf2389fyevievh89gf18f913h,,1,0,80,57,1,79
,,,,,,,,,,,,,,,,,,,,,,,,,,,,,,,,,,,a,1.869999886,PATATA,FALSE,,,,,,,164,patata,Catalan,Sounds/cat_patata.mp3,2020-06-19_09h30.37.357,TranslationElicitation_spa,3.2.4,Win32,60,55nf2389fyevievh89gf18f913h,,1,0,80,57,1,79
,,,,,,,,,,,,,,,,,,,,,,,,,,,,,,,,,,,return,2.178999901,,FALSE,,,,,,,164,patata,Catalan,Sounds/cat_patata.mp3,2020-06-19_09h30.37.357,TranslationElicitation_spa,3.2.4,Win32,60,55nf2389fyevievh89gf18f913h,2.178999901,1,0,80,57,1,79
,,,,,,,,,,,,,,,,,,,,,,,,,,,,,,,,,,,,,,,,,,,,,164,patata,Catalan,Sounds/cat_patata.mp3,2020-06-19_09h30.37.357,TranslationElicitation_spa,3.2.4,Win32,60,55nf2389fyevievh89gf18f913h,,1,0,80,57,1,79
,,,,,,,,,,,,,,,,,,,,,,,,,,,,,,,,,,,t,1.734999895,T,FALSE,,,,,,,183,tren,Catalan,Sounds/cat_tren.mp3,2020-06-19_09h30.37.357,TranslationElicitation_spa,3.2.4,Win32,60,55nf2389fyevievh89gf18f913h,,1,0,80,74,1,79
,,,,,,,,,,,,,,,,,,,,,,,,,,,,,,,,,,,r,1.791999817,TR,FALSE,,,,,,,183,tren,Catalan,Sounds/cat_tren.mp3,2020-06-19_09h30.37.357,TranslationElicitation_spa,3.2.4,Win32,60,55nf2389fyevievh89gf18f913h,,1,0,80,74,1,79
,,,,,,,,,,,,,,,,,,,,,,,,,,,,,,,,,,,e,1.980999947,TRE,FALSE,,,,,,,183,tren,Catalan,Sounds/cat_tren.mp3,2020-06-19_09h30.37.357,TranslationElicitation_spa,3.2.4,Win32,60,55nf2389fyevievh89gf18f913h,,1,0,80,74,1,79
,,,,,,,,,,,,,,,,,,,,,,,,,,,,,,,,,,,n,2.11500001,TREN,FALSE,,,,,,,183,tren,Catalan,Sounds/cat_tren.mp3,2020-06-19_09h30.37.357,TranslationElicitation_spa,3.2.4,Win32,60,55nf2389fyevievh89gf18f913h,,1,0,80,74,1,79
,,,,,,,,,,,,,,,,,,,,,,,,,,,,,,,,,,,return,2.411999941,,FALSE,,,,,,,183,tren,Catalan,Sounds/cat_tren.mp3,2020-06-19_09h30.37.357,TranslationElicitation_spa,3.2.4,Win32,60,55nf2389fyevievh89gf18f913h,2.411999941,1,0,80,74,1,79
,,,,,,,,,,,,,,,,,,,,,,,,,,,,,,,,,,,,,,,,,,,,,183,tren,Catalan,Sounds/cat_tren.mp3,2020-06-19_09h30.37.357,TranslationElicitation_spa,3.2.4,Win32,60,55nf2389fyevievh89gf18f913h,,1,0,80,74,1,79
,,,,,,,,,,,,,,,,,,,,,,,,,,,,,,,,,,,g,1.813000202,G,FALSE,,,,,,,110,berenar,Catalan,Sounds/cat_berenar.mp3,2020-06-19_09h30.37.357,TranslationElicitation_spa,3.2.4,Win32,60,55nf2389fyevievh89gf18f913h,,1,0,80,5,1,79
,,,,,,,,,,,,,,,,,,,,,,,,,,,,,,,,,,,r,2.04700017,GR,FALSE,,,,,,,110,berenar,Catalan,Sounds/cat_berenar.mp3,2020-06-19_09h30.37.357,TranslationElicitation_spa,3.2.4,Win32,60,55nf2389fyevievh89gf18f913h,,1,0,80,5,1,79
,,,,,,,,,,,,,,,,,,,,,,,,,,,,,,,,,,,a,2.147000074,GRA,FALSE,,,,,,,110,berenar,Catalan,Sounds/cat_berenar.mp3,2020-06-19_09h30.37.357,TranslationElicitation_spa,3.2.4,Win32,60,55nf2389fyevievh89gf18f913h,,1,0,80,5,1,79
,,,,,,,,,,,,,,,,,,,,,,,,,,,,,,,,,,,n,2.263000011,GRAN,FALSE,,,,,,,110,berenar,Catalan,Sounds/cat_berenar.mp3,2020-06-19_09h30.37.357,TranslationElicitation_spa,3.2.4,Win32,60,55nf2389fyevievh89gf18f913h,,1,0,80,5,1,79
,,,,,,,,,,,,,,,,,,,,,,,,,,,,,,,,,,,a,2.339000225,GRANA,FALSE,,,,,,,110,berenar,Catalan,Sounds/cat_berenar.mp3,2020-06-19_09h30.37.357,TranslationElicitation_spa,3.2.4,Win32,60,55nf2389fyevievh89gf18f913h,,1,0,80,5,1,79
,,,,,,,,,,,,,,,,,,,,,,,,,,,,,,,,,,,d,2.487000227,GRANAD,FALSE,,,,,,,110,berenar,Catalan,Sounds/cat_berenar.mp3,2020-06-19_09h30.37.357,TranslationElicitation_spa,3.2.4,Win32,60,55nf2389fyevievh89gf18f913h,,1,0,80,5,1,79
,,,,,,,,,,,,,,,,,,,,,,,,,,,,,,,,,,,a,2.537000179,GRANADA,FALSE,,,,,,,110,berenar,Catalan,Sounds/cat_berenar.mp3,2020-06-19_09h30.37.357,TranslationElicitation_spa,3.2.4,Win32,60,55nf2389fyevievh89gf18f913h,,1,0,80,5,1,79
,,,,,,,,,,,,,,,,,,,,,,,,,,,,,,,,,,,return,2.828999996,,FALSE,,,,,,,110,berenar,Catalan,Sounds/cat_berenar.mp3,2020-06-19_09h30.37.357,TranslationElicitation_spa,3.2.4,Win32,60,55nf2389fyevievh89gf18f913h,2.828999996,1,0,80,5,1,79
,,,,,,,,,,,,,,,,,,,,,,,,,,,,,,,,,,,,,,,,,,,,,110,berenar,Catalan,Sounds/cat_berenar.mp3,2020-06-19_09h30.37.357,TranslationElicitation_spa,3.2.4,Win32,60,55nf2389fyevievh89gf18f913h,,1,0,80,5,1,79
,,,,,,,,,,,,,,,,,,,,,,,,,,,,,,,,,,,g,1.54700017,G,FALSE,,,,,,,139,galleda,Catalan,Sounds/cat_galleda.mp3,2020-06-19_09h30.37.357,TranslationElicitation_spa,3.2.4,Win32,60,55nf2389fyevievh89gf18f913h,,1,0,80,34,1,79
,,,,,,,,,,,,,,,,,,,,,,,,,,,,,,,,,,,a,1.613000154,GA,FALSE,,,,,,,139,galleda,Catalan,Sounds/cat_galleda.mp3,2020-06-19_09h30.37.357,TranslationElicitation_spa,3.2.4,Win32,60,55nf2389fyevievh89gf18f913h,,1,0,80,34,1,79
,,,,,,,,,,,,,,,,,,,,,,,,,,,,,,,,,,,l,1.79700017,GAL,FALSE,,,,,,,139,galleda,Catalan,Sounds/cat_galleda.mp3,2020-06-19_09h30.37.357,TranslationElicitation_spa,3.2.4,Win32,60,55nf2389fyevievh89gf18f913h,,1,0,80,34,1,79
,,,,,,,,,,,,,,,,,,,,,,,,,,,,,,,,,,,l,1.947000027,GALL,FALSE,,,,,,,139,galleda,Catalan,Sounds/cat_galleda.mp3,2020-06-19_09h30.37.357,TranslationElicitation_spa,3.2.4,Win32,60,55nf2389fyevievh89gf18f913h,,1,0,80,34,1,79
,,,,,,,,,,,,,,,,,,,,,,,,,,,,,,,,,,,e,2.013000011,GALLE,FALSE,,,,,,,139,galleda,Catalan,Sounds/cat_galleda.mp3,2020-06-19_09h30.37.357,TranslationElicitation_spa,3.2.4,Win32,60,55nf2389fyevievh89gf18f913h,,1,0,80,34,1,79
,,,,,,,,,,,,,,,,,,,,,,,,,,,,,,,,,,,t,2.170000076,GALLET,FALSE,,,,,,,139,galleda,Catalan,Sounds/cat_galleda.mp3,2020-06-19_09h30.37.357,TranslationElicitation_spa,3.2.4,Win32,60,55nf2389fyevievh89gf18f913h,,1,0,80,34,1,79
,,,,,,,,,,,,,,,,,,,,,,,,,,,,,,,,,,,a,2.256000042,GALLETA,FALSE,,,,,,,139,galleda,Catalan,Sounds/cat_galleda.mp3,2020-06-19_09h30.37.357,TranslationElicitation_spa,3.2.4,Win32,60,55nf2389fyevievh89gf18f913h,,1,0,80,34,1,79
,,,,,,,,,,,,,,,,,,,,,,,,,,,,,,,,,,,return,2.413000107,,FALSE,,,,,,,139,galleda,Catalan,Sounds/cat_galleda.mp3,2020-06-19_09h30.37.357,TranslationElicitation_spa,3.2.4,Win32,60,55nf2389fyevievh89gf18f913h,2.413000107,1,0,80,34,1,79
,,,,,,,,,,,,,,,,,,,,,,,,,,,,,,,,,,,,,,,,,,,,,139,galleda,Catalan,Sounds/cat_galleda.mp3,2020-06-19_09h30.37.357,TranslationElicitation_spa,3.2.4,Win32,60,55nf2389fyevievh89gf18f913h,,1,0,80,34,1,79
,,,,,,,,,,,,,,,,,,,,,,,,,,,,,,,,,,,p,1.865999937,P,FALSE,,,,,,,168,planta,Catalan,Sounds/cat_planta.mp3,2020-06-19_09h30.37.357,TranslationElicitation_spa,3.2.4,Win32,60,55nf2389fyevievh89gf18f913h,,1,0,80,60,1,79
,,,,,,,,,,,,,,,,,,,,,,,,,,,,,,,,,,,l,2.087999821,PL,FALSE,,,,,,,168,planta,Catalan,Sounds/cat_planta.mp3,2020-06-19_09h30.37.357,TranslationElicitation_spa,3.2.4,Win32,60,55nf2389fyevievh89gf18f913h,,1,0,80,60,1,79
,,,,,,,,,,,,,,,,,,,,,,,,,,,,,,,,,,,a,2.270999908,PLA,FALSE,,,,,,,168,planta,Catalan,Sounds/cat_planta.mp3,2020-06-19_09h30.37.357,TranslationElicitation_spa,3.2.4,Win32,60,55nf2389fyevievh89gf18f913h,,1,0,80,60,1,79
,,,,,,,,,,,,,,,,,,,,,,,,,,,,,,,,,,,n,2.379999876,PLAN,FALSE,,,,,,,168,planta,Catalan,Sounds/cat_planta.mp3,2020-06-19_09h30.37.357,TranslationElicitation_spa,3.2.4,Win32,60,55nf2389fyevievh89gf18f913h,,1,0,80,60,1,79
,,,,,,,,,,,,,,,,,,,,,,,,,,,,,,,,,,,t,2.648000002,PLANT,FALSE,,,,,,,168,planta,Catalan,Sounds/cat_planta.mp3,2020-06-19_09h30.37.357,TranslationElicitation_spa,3.2.4,Win32,60,55nf2389fyevievh89gf18f913h,,1,0,80,60,1,79
,,,,,,,,,,,,,,,,,,,,,,,,,,,,,,,,,,,a,2.710999966,PLANTA,FALSE,,,,,,,168,planta,Catalan,Sounds/cat_planta.mp3,2020-06-19_09h30.37.357,TranslationElicitation_spa,3.2.4,Win32,60,55nf2389fyevievh89gf18f913h,,1,0,80,60,1,79
,,,,,,,,,,,,,,,,,,,,,,,,,,,,,,,,,,,return,2.979999781,,FALSE,,,,,,,168,planta,Catalan,Sounds/cat_planta.mp3,2020-06-19_09h30.37.357,TranslationElicitation_spa,3.2.4,Win32,60,55nf2389fyevievh89gf18f913h,2.979999781,1,0,80,60,1,79
,,,,,,,,,,,,,,,,,,,,,,,,,,,,,,,,,,,,,,,,,,,,,168,planta,Catalan,Sounds/cat_planta.mp3,2020-06-19_09h30.37.357,TranslationElicitation_spa,3.2.4,Win32,60,55nf2389fyevievh89gf18f913h,,1,0,80,60,1,79
,,,,,,,,,,,,,,,,,,,,,,,,,,,,,,,,,,,p,1.947000027,P,FALSE,,,,,,,162,pa,Catalan,Sounds/cat_pa.mp3,2020-06-19_09h30.37.357,TranslationElicitation_spa,3.2.4,Win32,60,55nf2389fyevievh89gf18f913h,,1,0,80,55,1,79
,,,,,,,,,,,,,,,,,,,,,,,,,,,,,,,,,,,a,2.097000122,PA,FALSE,,,,,,,162,pa,Catalan,Sounds/cat_pa.mp3,2020-06-19_09h30.37.357,TranslationElicitation_spa,3.2.4,Win32,60,55nf2389fyevievh89gf18f913h,,1,0,80,55,1,79
,,,,,,,,,,,,,,,,,,,,,,,,,,,,,,,,,,,n,2.213999987,PAN,FALSE,,,,,,,162,pa,Catalan,Sounds/cat_pa.mp3,2020-06-19_09h30.37.357,TranslationElicitation_spa,3.2.4,Win32,60,55nf2389fyevievh89gf18f913h,,1,0,80,55,1,79
,,,,,,,,,,,,,,,,,,,,,,,,,,,,,,,,,,,return,2.630000114,,FALSE,,,,,,,162,pa,Catalan,Sounds/cat_pa.mp3,2020-06-19_09h30.37.357,TranslationElicitation_spa,3.2.4,Win32,60,55nf2389fyevievh89gf18f913h,2.630000114,1,0,80,55,1,79
,,,,,,,,,,,,,,,,,,,,,,,,,,,,,,,,,,,,,,,,,,,,,162,pa,Catalan,Sounds/cat_pa.mp3,2020-06-19_09h30.37.357,TranslationElicitation_spa,3.2.4,Win32,60,55nf2389fyevievh89gf18f913h,,1,0,80,55,1,79
,,,,,,,,,,,,,,,,,,,,,,,,,,,,,,,,,,,t,1.148999929,T,FALSE,,,,,,,182,tomaquet,Catalan,Sounds/cat_tomaquet.mp3,2020-06-19_09h30.37.357,TranslationElicitation_spa,3.2.4,Win32,60,55nf2389fyevievh89gf18f913h,,1,0,80,73,1,79
,,,,,,,,,,,,,,,,,,,,,,,,,,,,,,,,,,,o,1.231999874,TO,FALSE,,,,,,,182,tomaquet,Catalan,Sounds/cat_tomaquet.mp3,2020-06-19_09h30.37.357,TranslationElicitation_spa,3.2.4,Win32,60,55nf2389fyevievh89gf18f913h,,1,0,80,73,1,79
,,,,,,,,,,,,,,,,,,,,,,,,,,,,,,,,,,,m,1.371000051,TOM,FALSE,,,,,,,182,tomaquet,Catalan,Sounds/cat_tomaquet.mp3,2020-06-19_09h30.37.357,TranslationElicitation_spa,3.2.4,Win32,60,55nf2389fyevievh89gf18f913h,,1,0,80,73,1,79
,,,,,,,,,,,,,,,,,,,,,,,,,,,,,,,,,,,a,1.486000061,TOMA,FALSE,,,,,,,182,tomaquet,Catalan,Sounds/cat_tomaquet.mp3,2020-06-19_09h30.37.357,TranslationElicitation_spa,3.2.4,Win32,60,55nf2389fyevievh89gf18f913h,,1,0,80,73,1,79
,,,,,,,,,,,,,,,,,,,,,,,,,,,,,,,,,,,t,1.664999962,TOMAT,FALSE,,,,,,,182,tomaquet,Catalan,Sounds/cat_tomaquet.mp3,2020-06-19_09h30.37.357,TranslationElicitation_spa,3.2.4,Win32,60,55nf2389fyevievh89gf18f913h,,1,0,80,73,1,79
,,,,,,,,,,,,,,,,,,,,,,,,,,,,,,,,,,,e,1.747999907,TOMATE,FALSE,,,,,,,182,tomaquet,Catalan,Sounds/cat_tomaquet.mp3,2020-06-19_09h30.37.357,TranslationElicitation_spa,3.2.4,Win32,60,55nf2389fyevievh89gf18f913h,,1,0,80,73,1,79
,,,,,,,,,,,,,,,,,,,,,,,,,,,,,,,,,,,return,3.336999893,,FALSE,,,,,,,182,tomaquet,Catalan,Sounds/cat_tomaquet.mp3,2020-06-19_09h30.37.357,TranslationElicitation_spa,3.2.4,Win32,60,55nf2389fyevievh89gf18f913h,3.336999893,1,0,80,73,1,79
,,,,,,,,,,,,,,,,,,,,,,,,,,,,,,,,,,,,,,,,,,,,,182,tomaquet,Catalan,Sounds/cat_tomaquet.mp3,2020-06-19_09h30.37.357,TranslationElicitation_spa,3.2.4,Win32,60,55nf2389fyevievh89gf18f913h,,1,0,80,73,1,79
,,,,,,,,,,,,,,,,,,,,,,,,,,,,,,,,,,,d,1.619000196,D,FALSE,,,,,,,129,dit,Catalan,Sounds/cat_dit.mp3,2020-06-19_09h30.37.357,TranslationElicitation_spa,3.2.4,Win32,60,55nf2389fyevievh89gf18f913h,,1,0,80,24,1,79
,,,,,,,,,,,,,,,,,,,,,,,,,,,,,,,,,,,i,4.319000006,DI,FALSE,,,,,,,129,dit,Catalan,Sounds/cat_dit.mp3,2020-06-19_09h30.37.357,TranslationElicitation_spa,3.2.4,Win32,60,55nf2389fyevievh89gf18f913h,,1,0,80,24,1,79
,,,,,,,,,,,,,,,,,,,,,,,,,,,,,,,,,,,a,4.435000181,DIA,FALSE,,,,,,,129,dit,Catalan,Sounds/cat_dit.mp3,2020-06-19_09h30.37.357,TranslationElicitation_spa,3.2.4,Win32,60,55nf2389fyevievh89gf18f913h,,1,0,80,24,1,79
,,,,,,,,,,,,,,,,,,,,,,,,,,,,,,,,,,,return,6.851000071,,FALSE,,,,,,,129,dit,Catalan,Sounds/cat_dit.mp3,2020-06-19_09h30.37.357,TranslationElicitation_spa,3.2.4,Win32,60,55nf2389fyevievh89gf18f913h,6.851000071,1,0,80,24,1,79
,,,,,,,,,,,,,,,,,,,,,,,,,,,,,,,,,,,,,,,,,,,,,129,dit,Catalan,Sounds/cat_dit.mp3,2020-06-19_09h30.37.357,TranslationElicitation_spa,3.2.4,Win32,60,55nf2389fyevievh89gf18f913h,,1,0,80,24,1,79
,,,,,,,,,,,,,,,,,,,,,,,,,,,,,,,,,,,c,1.572999954,C,FALSE,,,,,,,119,caixa,Catalan,Sounds/cat_caixa.mp3,2020-06-19_09h30.37.357,TranslationElicitation_spa,3.2.4,Win32,60,55nf2389fyevievh89gf18f913h,,1,0,80,14,1,79
,,,,,,,,,,,,,,,,,,,,,,,,,,,,,,,,,,,a,1.690000057,CA,FALSE,,,,,,,119,caixa,Catalan,Sounds/cat_caixa.mp3,2020-06-19_09h30.37.357,TranslationElicitation_spa,3.2.4,Win32,60,55nf2389fyevievh89gf18f913h,,1,0,80,14,1,79
,,,,,,,,,,,,,,,,,,,,,,,,,,,,,,,,,,,s,1.805999994,CAS,FALSE,,,,,,,119,caixa,Catalan,Sounds/cat_caixa.mp3,2020-06-19_09h30.37.357,TranslationElicitation_spa,3.2.4,Win32,60,55nf2389fyevievh89gf18f913h,,1,0,80,14,1,79
,,,,,,,,,,,,,,,,,,,,,,,,,,,,,,,,,,,a,1.907000065,CASA,FALSE,,,,,,,119,caixa,Catalan,Sounds/cat_caixa.mp3,2020-06-19_09h30.37.357,TranslationElicitation_spa,3.2.4,Win32,60,55nf2389fyevievh89gf18f913h,,1,0,80,14,1,79
,,,,,,,,,,,,,,,,,,,,,,,,,,,,,,,,,,,return,2.288000107,,FALSE,,,,,,,119,caixa,Catalan,Sounds/cat_caixa.mp3,2020-06-19_09h30.37.357,TranslationElicitation_spa,3.2.4,Win32,60,55nf2389fyevievh89gf18f913h,2.288000107,1,0,80,14,1,79
,,,,,,,,,,,,,,,,,,,,,,,,,,,,,,,,,,,,,,,,,,,,,119,caixa,Catalan,Sounds/cat_caixa.mp3,2020-06-19_09h30.37.357,TranslationElicitation_spa,3.2.4,Win32,60,55nf2389fyevievh89gf18f913h,,1,0,80,14,1,79
,,,,,,,,,,,,,,,,,,,,,,,,,,,,,,,,,,,h,2.116000175,H,FALSE,,,,,,,137,fulla,Catalan,Sounds/cat_fulla.mp3,2020-06-19_09h30.37.357,TranslationElicitation_spa,3.2.4,Win32,60,55nf2389fyevievh89gf18f913h,,1,0,80,32,1,79
,,,,,,,,,,,,,,,,,,,,,,,,,,,,,,,,,,,o,2.248000145,HO,FALSE,,,,,,,137,fulla,Catalan,Sounds/cat_fulla.mp3,2020-06-19_09h30.37.357,TranslationElicitation_spa,3.2.4,Win32,60,55nf2389fyevievh89gf18f913h,,1,0,80,32,1,79
,,,,,,,,,,,,,,,,,,,,,,,,,,,,,,,,,,,j,2.423000097,HOJ,FALSE,,,,,,,137,fulla,Catalan,Sounds/cat_fulla.mp3,2020-06-19_09h30.37.357,TranslationElicitation_spa,3.2.4,Win32,60,55nf2389fyevievh89gf18f913h,,1,0,80,32,1,79
,,,,,,,,,,,,,,,,,,,,,,,,,,,,,,,,,,,a,2.555999994,HOJA,FALSE,,,,,,,137,fulla,Catalan,Sounds/cat_fulla.mp3,2020-06-19_09h30.37.357,TranslationElicitation_spa,3.2.4,Win32,60,55nf2389fyevievh89gf18f913h,,1,0,80,32,1,79
,,,,,,,,,,,,,,,,,,,,,,,,,,,,,,,,,,,return,2.81400013,,FALSE,,,,,,,137,fulla,Catalan,Sounds/cat_fulla.mp3,2020-06-19_09h30.37.357,TranslationElicitation_spa,3.2.4,Win32,60,55nf2389fyevievh89gf18f913h,2.81400013,1,0,80,32,1,79
,,,,,,,,,,,,,,,,,,,,,,,,,,,,,,,,,,,,,,,,,,,,,137,fulla,Catalan,Sounds/cat_fulla.mp3,2020-06-19_09h30.37.357,TranslationElicitation_spa,3.2.4,Win32,60,55nf2389fyevievh89gf18f913h,,1,0,80,32,1,79
,,,,,,,,,,,,,,,,,,,,,,,,,,,,,,,,,,,m,1.864000082,M,FALSE,,,,,,,152,ma,Catalan,Sounds/cat_ma.mp3,2020-06-19_09h30.37.357,TranslationElicitation_spa,3.2.4,Win32,60,55nf2389fyevievh89gf18f913h,,1,0,80,46,1,79
,,,,,,,,,,,,,,,,,,,,,,,,,,,,,,,,,,,a,1.947000027,MA,FALSE,,,,,,,152,ma,Catalan,Sounds/cat_ma.mp3,2020-06-19_09h30.37.357,TranslationElicitation_spa,3.2.4,Win32,60,55nf2389fyevievh89gf18f913h,,1,0,80,46,1,79
,,,,,,,,,,,,,,,,,,,,,,,,,,,,,,,,,,,m,2.032000065,MAM,FALSE,,,,,,,152,ma,Catalan,Sounds/cat_ma.mp3,2020-06-19_09h30.37.357,TranslationElicitation_spa,3.2.4,Win32,60,55nf2389fyevievh89gf18f913h,,1,0,80,46,1,79
,,,,,,,,,,,,,,,,,,,,,,,,,,,,,,,,,,,a,2.105000019,MAMA,FALSE,,,,,,,152,ma,Catalan,Sounds/cat_ma.mp3,2020-06-19_09h30.37.357,TranslationElicitation_spa,3.2.4,Win32,60,55nf2389fyevievh89gf18f913h,,1,0,80,46,1,79
,,,,,,,,,,,,,,,,,,,,,,,,,,,,,,,,,,,backspace,2.836000204,MA,TRUE,,,,,,,152,ma,Catalan,Sounds/cat_ma.mp3,2020-06-19_09h30.37.357,TranslationElicitation_spa,3.2.4,Win32,60,55nf2389fyevievh89gf18f913h,,1,0,80,46,1,79
,,,,,,,,,,,,,,,,,,,,,,,,,,,,,,,,,,,apostrophe,3.097000122,MA,TRUE,,,,,,,152,ma,Catalan,Sounds/cat_ma.mp3,2020-06-19_09h30.37.357,TranslationElicitation_spa,3.2.4,Win32,60,55nf2389fyevievh89gf18f913h,,1,0,80,46,1,79
,,,,,,,,,,,,,,,,,,,,,,,,,,,,,,,,,,,a,3.214000225,MAÁ,TRUE,,,,,,,152,ma,Catalan,Sounds/cat_ma.mp3,2020-06-19_09h30.37.357,TranslationElicitation_spa,3.2.4,Win32,60,55nf2389fyevievh89gf18f913h,,1,0,80,46,1,79
,,,,,,,,,,,,,,,,,,,,,,,,,,,,,,,,,,,return,3.380000114,,TRUE,,,,,,,152,ma,Catalan,Sounds/cat_ma.mp3,2020-06-19_09h30.37.357,TranslationElicitation_spa,3.2.4,Win32,60,55nf2389fyevievh89gf18f913h,3.380000114,1,0,80,46,1,79
,,,,,,,,,,,,,,,,,,,,,,,,,,,,,,,,,,,,,,,,,,,,,152,ma,Catalan,Sounds/cat_ma.mp3,2020-06-19_09h30.37.357,TranslationElicitation_spa,3.2.4,Win32,60,55nf2389fyevievh89gf18f913h,,1,0,80,46,1,79
,,,,,,,,,,,,,,,,,,,,,,,,,,,,,,,,,,,s,1.148000002,S,FALSE,,,,,,,124,cirera,Catalan,Sounds/cat_cirera.mp3,2020-06-19_09h30.37.357,TranslationElicitation_spa,3.2.4,Win32,60,55nf2389fyevievh89gf18f913h,,1,0,80,19,1,79
,,,,,,,,,,,,,,,,,,,,,,,,,,,,,,,,,,,i,1.453999996,SI,FALSE,,,,,,,124,cirera,Catalan,Sounds/cat_cirera.mp3,2020-06-19_09h30.37.357,TranslationElicitation_spa,3.2.4,Win32,60,55nf2389fyevievh89gf18f913h,,1,0,80,19,1,79
,,,,,,,,,,,,,,,,,,,,,,,,,,,,,,,,,,,r,1.695999861,SIR,FALSE,,,,,,,124,cirera,Catalan,Sounds/cat_cirera.mp3,2020-06-19_09h30.37.357,TranslationElicitation_spa,3.2.4,Win32,60,55nf2389fyevievh89gf18f913h,,1,0,80,19,1,79
,,,,,,,,,,,,,,,,,,,,,,,,,,,,,,,,,,,e,1.786000013,SIRE,FALSE,,,,,,,124,cirera,Catalan,Sounds/cat_cirera.mp3,2020-06-19_09h30.37.357,TranslationElicitation_spa,3.2.4,Win32,60,55nf2389fyevievh89gf18f913h,,1,0,80,19,1,79
,,,,,,,,,,,,,,,,,,,,,,,,,,,,,,,,,,,n,1.896999836,SIREN,FALSE,,,,,,,124,cirera,Catalan,Sounds/cat_cirera.mp3,2020-06-19_09h30.37.357,TranslationElicitation_spa,3.2.4,Win32,60,55nf2389fyevievh89gf18f913h,,1,0,80,19,1,79
,,,,,,,,,,,,,,,,,,,,,,,,,,,,,,,,,,,a,2.029999971,SIRENA,FALSE,,,,,,,124,cirera,Catalan,Sounds/cat_cirera.mp3,2020-06-19_09h30.37.357,TranslationElicitation_spa,3.2.4,Win32,60,55nf2389fyevievh89gf18f913h,,1,0,80,19,1,79
,,,,,,,,,,,,,,,,,,,,,,,,,,,,,,,,,,,return,2.287999868,,FALSE,,,,,,,124,cirera,Catalan,Sounds/cat_cirera.mp3,2020-06-19_09h30.37.357,TranslationElicitation_spa,3.2.4,Win32,60,55nf2389fyevievh89gf18f913h,2.287999868,1,0,80,19,1,79
,,,,,,,,,,,,,,,,,,,,,,,,,,,,,,,,,,,,,,,,,,,,,124,cirera,Catalan,Sounds/cat_cirera.mp3,2020-06-19_09h30.37.357,TranslationElicitation_spa,3.2.4,Win32,60,55nf2389fyevievh89gf18f913h,,1,0,80,19,1,79
,,,,,,,,,,,,,,,,,,,,,,,,,,,,,,,,,,,h,1.430999994,H,FALSE,,,,,,,161,ovella,Catalan,Sounds/cat_ovella.mp3,2020-06-19_09h30.37.357,TranslationElicitation_spa,3.2.4,Win32,60,55nf2389fyevievh89gf18f913h,,1,0,80,54,1,79
,,,,,,,,,,,,,,,,,,,,,,,,,,,,,,,,,,,u,1.58100009,HU,FALSE,,,,,,,161,ovella,Catalan,Sounds/cat_ovella.mp3,2020-06-19_09h30.37.357,TranslationElicitation_spa,3.2.4,Win32,60,55nf2389fyevievh89gf18f913h,,1,0,80,54,1,79
,,,,,,,,,,,,,,,,,,,,,,,,,,,,,,,,,,,e,1.764000177,HUE,FALSE,,,,,,,161,ovella,Catalan,Sounds/cat_ovella.mp3,2020-06-19_09h30.37.357,TranslationElicitation_spa,3.2.4,Win32,60,55nf2389fyevievh89gf18f913h,,1,0,80,54,1,79
,,,,,,,,,,,,,,,,,,,,,,,,,,,,,,,,,,,l,1.881000042,HUEL,FALSE,,,,,,,161,ovella,Catalan,Sounds/cat_ovella.mp3,2020-06-19_09h30.37.357,TranslationElicitation_spa,3.2.4,Win32,60,55nf2389fyevievh89gf18f913h,,1,0,80,54,1,79
,,,,,,,,,,,,,,,,,,,,,,,,,,,,,,,,,,,l,2.457000017,HUELL,FALSE,,,,,,,161,ovella,Catalan,Sounds/cat_ovella.mp3,2020-06-19_09h30.37.357,TranslationElicitation_spa,3.2.4,Win32,60,55nf2389fyevievh89gf18f913h,,1,0,80,54,1,79
,,,,,,,,,,,,,,,,,,,,,,,,,,,,,,,,,,,a,2.621999979,HUELLA,FALSE,,,,,,,161,ovella,Catalan,Sounds/cat_ovella.mp3,2020-06-19_09h30.37.357,TranslationElicitation_spa,3.2.4,Win32,60,55nf2389fyevievh89gf18f913h,,1,0,80,54,1,79
,,,,,,,,,,,,,,,,,,,,,,,,,,,,,,,,,,,return,2.899000168,,FALSE,,,,,,,161,ovella,Catalan,Sounds/cat_ovella.mp3,2020-06-19_09h30.37.357,TranslationElicitation_spa,3.2.4,Win32,60,55nf2389fyevievh89gf18f913h,2.899000168,1,0,80,54,1,79
,,,,,,,,,,,,,,,,,,,,,,,,,,,,,,,,,,,,,,,,,,,,,161,ovella,Catalan,Sounds/cat_ovella.mp3,2020-06-19_09h30.37.357,TranslationElicitation_spa,3.2.4,Win32,60,55nf2389fyevievh89gf18f913h,,1,0,80,54,1,79
,,,,,,,,,,,,,,,,,,,,,,,,,,,,,,,,,,,c,1.829999924,C,FALSE,,,,,,,120,cama,Catalan,Sounds/cat_cama.mp3,2020-06-19_09h30.37.357,TranslationElicitation_spa,3.2.4,Win32,60,55nf2389fyevievh89gf18f913h,,1,0,80,15,1,79
,,,,,,,,,,,,,,,,,,,,,,,,,,,,,,,,,,,a,1.898000002,CA,FALSE,,,,,,,120,cama,Catalan,Sounds/cat_cama.mp3,2020-06-19_09h30.37.357,TranslationElicitation_spa,3.2.4,Win32,60,55nf2389fyevievh89gf18f913h,,1,0,80,15,1,79
,,,,,,,,,,,,,,,,,,,,,,,,,,,,,,,,,,,m,2.162999868,CAM,FALSE,,,,,,,120,cama,Catalan,Sounds/cat_cama.mp3,2020-06-19_09h30.37.357,TranslationElicitation_spa,3.2.4,Win32,60,55nf2389fyevievh89gf18f913h,,1,0,80,15,1,79
,,,,,,,,,,,,,,,,,,,,,,,,,,,,,,,,,,,a,2.263999939,CAMA,FALSE,,,,,,,120,cama,Catalan,Sounds/cat_cama.mp3,2020-06-19_09h30.37.357,TranslationElicitation_spa,3.2.4,Win32,60,55nf2389fyevievh89gf18f913h,,1,0,80,15,1,79
,,,,,,,,,,,,,,,,,,,,,,,,,,,,,,,,,,,apostrophe,2.586999893,CAMA,FALSE,,,,,,,120,cama,Catalan,Sounds/cat_cama.mp3,2020-06-19_09h30.37.357,TranslationElicitation_spa,3.2.4,Win32,60,55nf2389fyevievh89gf18f913h,,1,0,80,15,1,79
,,,,,,,,,,,,,,,,,,,,,,,,,,,,,,,,,,,return,4.236000061,,FALSE,,,,,,,120,cama,Catalan,Sounds/cat_cama.mp3,2020-06-19_09h30.37.357,TranslationElicitation_spa,3.2.4,Win32,60,55nf2389fyevievh89gf18f913h,4.236000061,1,0,80,15,1,79
,,,,,,,,,,,,,,,,,,,,,,,,,,,,,,,,,,,,,,,,,,,,,120,cama,Catalan,Sounds/cat_cama.mp3,2020-06-19_09h30.37.357,TranslationElicitation_spa,3.2.4,Win32,60,55nf2389fyevievh89gf18f913h,,1,0,80,15,1,79
,,,,,,,,,,,,,,,,,,,,,,,,,,,,,,,,,,,p,2.371000051,P,FALSE,,,,,,,170,ploma,Catalan,Sounds/cat_ploma.mp3,2020-06-19_09h30.37.357,TranslationElicitation_spa,3.2.4,Win32,60,55nf2389fyevievh89gf18f913h,,1,0,80,62,1,79
,,,,,,,,,,,,,,,,,,,,,,,,,,,,,,,,,,,l,2.572000027,PL,FALSE,,,,,,,170,ploma,Catalan,Sounds/cat_ploma.mp3,2020-06-19_09h30.37.357,TranslationElicitation_spa,3.2.4,Win32,60,55nf2389fyevievh89gf18f913h,,1,0,80,62,1,79
,,,,,,,,,,,,,,,,,,,,,,,,,,,,,,,,,,,u,2.789000034,PLU,FALSE,,,,,,,170,ploma,Catalan,Sounds/cat_ploma.mp3,2020-06-19_09h30.37.357,TranslationElicitation_spa,3.2.4,Win32,60,55nf2389fyevievh89gf18f913h,,1,0,80,62,1,79
,,,,,,,,,,,,,,,,,,,,,,,,,,,,,,,,,,,m,2.95600009,PLUM,FALSE,,,,,,,170,ploma,Catalan,Sounds/cat_ploma.mp3,2020-06-19_09h30.37.357,TranslationElicitation_spa,3.2.4,Win32,60,55nf2389fyevievh89gf18f913h,,1,0,80,62,1,79
,,,,,,,,,,,,,,,,,,,,,,,,,,,,,,,,,,,a,3.161000013,PLUMA,FALSE,,,,,,,170,ploma,Catalan,Sounds/cat_ploma.mp3,2020-06-19_09h30.37.357,TranslationElicitation_spa,3.2.4,Win32,60,55nf2389fyevievh89gf18f913h,,1,0,80,62,1,79
,,,,,,,,,,,,,,,,,,,,,,,,,,,,,,,,,,,return,3.429000139,,FALSE,,,,,,,170,ploma,Catalan,Sounds/cat_ploma.mp3,2020-06-19_09h30.37.357,TranslationElicitation_spa,3.2.4,Win32,60,55nf2389fyevievh89gf18f913h,3.429000139,1,0,80,62,1,79
,,,,,,,,,,,,,,,,,,,,,,,,,,,,,,,,,,,,,,,,,,,,,170,ploma,Catalan,Sounds/cat_ploma.mp3,2020-06-19_09h30.37.357,TranslationElicitation_spa,3.2.4,Win32,60,55nf2389fyevievh89gf18f913h,,1,0,80,62,1,79
,,,,,,,,,,,,,,,,,,,,,,,,,,,,,,,,,,,n,5.429000139,N,FALSE,,,,,,,158,nas,Catalan,Sounds/cat_nas.mp3,2020-06-19_09h30.37.357,TranslationElicitation_spa,3.2.4,Win32,60,55nf2389fyevievh89gf18f913h,,1,0,80,52,1,79
,,,,,,,,,,,,,,,,,,,,,,,,,,,,,,,,,,,a,5.546000004,NA,FALSE,,,,,,,158,nas,Catalan,Sounds/cat_nas.mp3,2020-06-19_09h30.37.357,TranslationElicitation_spa,3.2.4,Win32,60,55nf2389fyevievh89gf18f913h,,1,0,80,52,1,79
,,,,,,,,,,,,,,,,,,,,,,,,,,,,,,,,,,,d,5.666000128,NAD,FALSE,,,,,,,158,nas,Catalan,Sounds/cat_nas.mp3,2020-06-19_09h30.37.357,TranslationElicitation_spa,3.2.4,Win32,60,55nf2389fyevievh89gf18f913h,,1,0,80,52,1,79
,,,,,,,,,,,,,,,,,,,,,,,,,,,,,,,,,,,a,5.746000051,NADA,FALSE,,,,,,,158,nas,Catalan,Sounds/cat_nas.mp3,2020-06-19_09h30.37.357,TranslationElicitation_spa,3.2.4,Win32,60,55nf2389fyevievh89gf18f913h,,1,0,80,52,1,79
,,,,,,,,,,,,,,,,,,,,,,,,,,,,,,,,,,,return,6.246000051,,FALSE,,,,,,,158,nas,Catalan,Sounds/cat_nas.mp3,2020-06-19_09h30.37.357,TranslationElicitation_spa,3.2.4,Win32,60,55nf2389fyevievh89gf18f913h,6.246000051,1,0,80,52,1,79
,,,,,,,,,,,,,,,,,,,,,,,,,,,,,,,,,,,,,,,,,,,,,158,nas,Catalan,Sounds/cat_nas.mp3,2020-06-19_09h30.37.357,TranslationElicitation_spa,3.2.4,Win32,60,55nf2389fyevievh89gf18f913h,,1,0,80,52,1,79
,,,,,,,,,,,,,,,,,,,,,,,,,,,,,,,,,,,o,7.661999941,O,FALSE,,,,,,,184,ull,Catalan,Sounds/cat_ull.mp3,2020-06-19_09h30.37.357,TranslationElicitation_spa,3.2.4,Win32,60,55nf2389fyevievh89gf18f913h,,1,0,80,75,1,79
,,,,,,,,,,,,,,,,,,,,,,,,,,,,,,,,,,,t,7.772000074,OT,FALSE,,,,,,,184,ull,Catalan,Sounds/cat_ull.mp3,2020-06-19_09h30.37.357,TranslationElicitation_spa,3.2.4,Win32,60,55nf2389fyevievh89gf18f913h,,1,0,80,75,1,79
,,,,,,,,,,,,,,,,,,,,,,,,,,,,,,,,,,,r,7.836999893,OTR,FALSE,,,,,,,184,ull,Catalan,Sounds/cat_ull.mp3,2020-06-19_09h30.37.357,TranslationElicitation_spa,3.2.4,Win32,60,55nf2389fyevievh89gf18f913h,,1,0,80,75,1,79
,,,,,,,,,,,,,,,,,,,,,,,,,,,,,,,,,,,o,7.953000069,OTRO,FALSE,,,,,,,184,ull,Catalan,Sounds/cat_ull.mp3,2020-06-19_09h30.37.357,TranslationElicitation_spa,3.2.4,Win32,60,55nf2389fyevievh89gf18f913h,,1,0,80,75,1,79
,,,,,,,,,,,,,,,,,,,,,,,,,,,,,,,,,,,return,8.302000046,,FALSE,,,,,,,184,ull,Catalan,Sounds/cat_ull.mp3,2020-06-19_09h30.37.357,TranslationElicitation_spa,3.2.4,Win32,60,55nf2389fyevievh89gf18f913h,8.302000046,1,0,80,75,1,79
,,,,,,,,,,,,,,,,,,,,,,,,,,,,,,,,,,,,,,,,,,,,,184,ull,Catalan,Sounds/cat_ull.mp3,2020-06-19_09h30.37.357,TranslationElicitation_spa,3.2.4,Win32,60,55nf2389fyevievh89gf18f913h,,1,0,80,75,1,79
,,,,,,,,,,,,,,,,,,,,,,,,,,,,,,,,,,,t,1.120000124,T,FALSE,,,,,,,181,tobogan,Catalan,Sounds/cat_tobogan.mp3,2020-06-19_09h30.37.357,TranslationElicitation_spa,3.2.4,Win32,60,55nf2389fyevievh89gf18f913h,,1,0,80,72,1,79
,,,,,,,,,,,,,,,,,,,,,,,,,,,,,,,,,,,o,1.253999949,TO,FALSE,,,,,,,181,tobogan,Catalan,Sounds/cat_tobogan.mp3,2020-06-19_09h30.37.357,TranslationElicitation_spa,3.2.4,Win32,60,55nf2389fyevievh89gf18f913h,,1,0,80,72,1,79
,,,,,,,,,,,,,,,,,,,,,,,,,,,,,,,,,,,b,1.453000069,TOB,FALSE,,,,,,,181,tobogan,Catalan,Sounds/cat_tobogan.mp3,2020-06-19_09h30.37.357,TranslationElicitation_spa,3.2.4,Win32,60,55nf2389fyevievh89gf18f913h,,1,0,80,72,1,79
,,,,,,,,,,,,,,,,,,,,,,,,,,,,,,,,,,,o,1.602999926,TOBO,FALSE,,,,,,,181,tobogan,Catalan,Sounds/cat_tobogan.mp3,2020-06-19_09h30.37.357,TranslationElicitation_spa,3.2.4,Win32,60,55nf2389fyevievh89gf18f913h,,1,0,80,72,1,79
,,,,,,,,,,,,,,,,,,,,,,,,,,,,,,,,,,,g,1.720000029,TOBOG,FALSE,,,,,,,181,tobogan,Catalan,Sounds/cat_tobogan.mp3,2020-06-19_09h30.37.357,TranslationElicitation_spa,3.2.4,Win32,60,55nf2389fyevievh89gf18f913h,,1,0,80,72,1,79
,,,,,,,,,,,,,,,,,,,,,,,,,,,,,,,,,,,apostrophe,2.312000036,TOBOG,FALSE,,,,,,,181,tobogan,Catalan,Sounds/cat_tobogan.mp3,2020-06-19_09h30.37.357,TranslationElicitation_spa,3.2.4,Win32,60,55nf2389fyevievh89gf18f913h,,1,0,80,72,1,79
,,,,,,,,,,,,,,,,,,,,,,,,,,,,,,,,,,,a,2.407000065,TOBOGÁ,FALSE,,,,,,,181,tobogan,Catalan,Sounds/cat_tobogan.mp3,2020-06-19_09h30.37.357,TranslationElicitation_spa,3.2.4,Win32,60,55nf2389fyevievh89gf18f913h,,1,0,80,72,1,79
,,,,,,,,,,,,,,,,,,,,,,,,,,,,,,,,,,,n,2.526000023,TOBOGÁN,FALSE,,,,,,,181,tobogan,Catalan,Sounds/cat_tobogan.mp3,2020-06-19_09h30.37.357,TranslationElicitation_spa,3.2.4,Win32,60,55nf2389fyevievh89gf18f913h,,1,0,80,72,1,79
,,,,,,,,,,,,,,,,,,,,,,,,,,,,,,,,,,,return,2.802999973,,FALSE,,,,,,,181,tobogan,Catalan,Sounds/cat_tobogan.mp3,2020-06-19_09h30.37.357,TranslationElicitation_spa,3.2.4,Win32,60,55nf2389fyevievh89gf18f913h,2.802999973,1,0,80,72,1,79
,,,,,,,,,,,,,,,,,,,,,,,,,,,,,,,,,,,,,,,,,,,,,181,tobogan,Catalan,Sounds/cat_tobogan.mp3,2020-06-19_09h30.37.357,TranslationElicitation_spa,3.2.4,Win32,60,55nf2389fyevievh89gf18f913h,,1,0,80,72,1,79
,,,,,,,,,,,,,,,,,,,,,,,,,,,,,,,,,,,p,3.680999994,P,FALSE,,,,,,,166,peu,Catalan,Sounds/cat_peu.mp3,2020-06-19_09h30.37.357,TranslationElicitation_spa,3.2.4,Win32,60,55nf2389fyevievh89gf18f913h,,1,0,80,59,1,79
,,,,,,,,,,,,,,,,,,,,,,,,,,,,,,,,,,,e,3.845999956,PE,FALSE,,,,,,,166,peu,Catalan,Sounds/cat_peu.mp3,2020-06-19_09h30.37.357,TranslationElicitation_spa,3.2.4,Win32,60,55nf2389fyevievh89gf18f913h,,1,0,80,59,1,79
,,,,,,,,,,,,,,,,,,,,,,,,,,,,,,,,,,,r,3.945999861,PER,FALSE,,,,,,,166,peu,Catalan,Sounds/cat_peu.mp3,2020-06-19_09h30.37.357,TranslationElicitation_spa,3.2.4,Win32,60,55nf2389fyevievh89gf18f913h,,1,0,80,59,1,79
,,,,,,,,,,,,,,,,,,,,,,,,,,,,,,,,,,,r,4.102999926,PERR,FALSE,,,,,,,166,peu,Catalan,Sounds/cat_peu.mp3,2020-06-19_09h30.37.357,TranslationElicitation_spa,3.2.4,Win32,60,55nf2389fyevievh89gf18f913h,,1,0,80,59,1,79
,,,,,,,,,,,,,,,,,,,,,,,,,,,,,,,,,,,o,4.250999928,PERRO,FALSE,,,,,,,166,peu,Catalan,Sounds/cat_peu.mp3,2020-06-19_09h30.37.357,TranslationElicitation_spa,3.2.4,Win32,60,55nf2389fyevievh89gf18f913h,,1,0,80,59,1,79
,,,,,,,,,,,,,,,,,,,,,,,,,,,,,,,,,,,return,5.169999838,,FALSE,,,,,,,166,peu,Catalan,Sounds/cat_peu.mp3,2020-06-19_09h30.37.357,TranslationElicitation_spa,3.2.4,Win32,60,55nf2389fyevievh89gf18f913h,5.169999838,1,0,80,59,1,79
,,,,,,,,,,,,,,,,,,,,,,,,,,,,,,,,,,,,,,,,,,,,,166,peu,Catalan,Sounds/cat_peu.mp3,2020-06-19_09h30.37.357,TranslationElicitation_spa,3.2.4,Win32,60,55nf2389fyevievh89gf18f913h,,1,0,80,59,1,79
,,,,,,,,,,,,,,,,,,,,,,,,,,,,,,,,,,,f,1.463999987,F,FALSE,,,,,,,134,flor,Catalan,Sounds/cat_flor.mp3,2020-06-19_09h30.37.357,TranslationElicitation_spa,3.2.4,Win32,60,55nf2389fyevievh89gf18f913h,,1,0,80,29,1,79
,,,,,,,,,,,,,,,,,,,,,,,,,,,,,,,,,,,l,1.562999964,FL,FALSE,,,,,,,134,flor,Catalan,Sounds/cat_flor.mp3,2020-06-19_09h30.37.357,TranslationElicitation_spa,3.2.4,Win32,60,55nf2389fyevievh89gf18f913h,,1,0,80,29,1,79
,,,,,,,,,,,,,,,,,,,,,,,,,,,,,,,,,,,o,1.713999987,FLO,FALSE,,,,,,,134,flor,Catalan,Sounds/cat_flor.mp3,2020-06-19_09h30.37.357,TranslationElicitation_spa,3.2.4,Win32,60,55nf2389fyevievh89gf18f913h,,1,0,80,29,1,79
,,,,,,,,,,,,,,,,,,,,,,,,,,,,,,,,,,,r,1.897000074,FLOR,FALSE,,,,,,,134,flor,Catalan,Sounds/cat_flor.mp3,2020-06-19_09h30.37.357,TranslationElicitation_spa,3.2.4,Win32,60,55nf2389fyevievh89gf18f913h,,1,0,80,29,1,79
,,,,,,,,,,,,,,,,,,,,,,,,,,,,,,,,,,,return,2.148999929,,FALSE,,,,,,,134,flor,Catalan,Sounds/cat_flor.mp3,2020-06-19_09h30.37.357,TranslationElicitation_spa,3.2.4,Win32,60,55nf2389fyevievh89gf18f913h,2.148999929,1,0,80,29,1,79
,,,,,,,,,,,,,,,,,,,,,,,,,,,,,,,,,,,,,,,,,,,,,134,flor,Catalan,Sounds/cat_flor.mp3,2020-06-19_09h30.37.357,TranslationElicitation_spa,3.2.4,Win32,60,55nf2389fyevievh89gf18f913h,,1,0,80,29,1,79
,,,,,,,,,,,,,,,,,,,,,,,,,,,,,,,,,,,g,6.594000101,G,FALSE,,,,,,,145,got,Catalan,Sounds/cat_got.mp3,2020-06-19_09h30.37.357,TranslationElicitation_spa,3.2.4,Win32,60,55nf2389fyevievh89gf18f913h,,1,0,80,40,1,79
,,,,,,,,,,,,,,,,,,,,,,,,,,,,,,,,,,,a,7.236999989,GA,FALSE,,,,,,,145,got,Catalan,Sounds/cat_got.mp3,2020-06-19_09h30.37.357,TranslationElicitation_spa,3.2.4,Win32,60,55nf2389fyevievh89gf18f913h,,1,0,80,40,1,79
,,,,,,,,,,,,,,,,,,,,,,,,,,,,,,,,,,,t,7.410000086,GAT,FALSE,,,,,,,145,got,Catalan,Sounds/cat_got.mp3,2020-06-19_09h30.37.357,TranslationElicitation_spa,3.2.4,Win32,60,55nf2389fyevievh89gf18f913h,,1,0,80,40,1,79
,,,,,,,,,,,,,,,,,,,,,,,,,,,,,,,,,,,o,7.568000078,GATO,FALSE,,,,,,,145,got,Catalan,Sounds/cat_got.mp3,2020-06-19_09h30.37.357,TranslationElicitation_spa,3.2.4,Win32,60,55nf2389fyevievh89gf18f913h,,1,0,80,40,1,79
,,,,,,,,,,,,,,,,,,,,,,,,,,,,,,,,,,,return,7.911000013,,FALSE,,,,,,,145,got,Catalan,Sounds/cat_got.mp3,2020-06-19_09h30.37.357,TranslationElicitation_spa,3.2.4,Win32,60,55nf2389fyevievh89gf18f913h,7.911000013,1,0,80,40,1,79
,,,,,,,,,,,,,,,,,,,,,,,,,,,,,,,,,,,,,,,,,,,,,145,got,Catalan,Sounds/cat_got.mp3,2020-06-19_09h30.37.357,TranslationElicitation_spa,3.2.4,Win32,60,55nf2389fyevievh89gf18f913h,,1,0,80,40,1,79
,,,,,,,,,,,,,,,,,,,,,,,,,,,,,,,,,,,b,2.324999809,B,FALSE,,,,,,,114,bol,Catalan,Sounds/cat_bol.mp3,2020-06-19_09h30.37.357,TranslationElicitation_spa,3.2.4,Win32,60,55nf2389fyevievh89gf18f913h,,1,0,80,9,1,79
,,,,,,,,,,,,,,,,,,,,,,,,,,,,,,,,,,,o,3.323999882,BO,FALSE,,,,,,,114,bol,Catalan,Sounds/cat_bol.mp3,2020-06-19_09h30.37.357,TranslationElicitation_spa,3.2.4,Win32,60,55nf2389fyevievh89gf18f913h,,1,0,80,9,1,79
,,,,,,,,,,,,,,,,,,,,,,,,,,,,,,,,,,,l,3.506999969,BOL,FALSE,,,,,,,114,bol,Catalan,Sounds/cat_bol.mp3,2020-06-19_09h30.37.357,TranslationElicitation_spa,3.2.4,Win32,60,55nf2389fyevievh89gf18f913h,,1,0,80,9,1,79
,,,,,,,,,,,,,,,,,,,,,,,,,,,,,,,,,,,return,4.340999842,,FALSE,,,,,,,114,bol,Catalan,Sounds/cat_bol.mp3,2020-06-19_09h30.37.357,TranslationElicitation_spa,3.2.4,Win32,60,55nf2389fyevievh89gf18f913h,4.340999842,1,0,80,9,1,79
,,,,,,,,,,,,,,,,,,,,,,,,,,,,,,,,,,,,,,,,,,,,,114,bol,Catalan,Sounds/cat_bol.mp3,2020-06-19_09h30.37.357,TranslationElicitation_spa,3.2.4,Win32,60,55nf2389fyevievh89gf18f913h,,1,0,80,9,1,79
,,,,,,,,,,,,,,,,,,,,,,,,,,,,,,,,,,,c,1.597999811,C,FALSE,,,,,,,122,casa,Catalan,Sounds/cat_casa.mp3,2020-06-19_09h30.37.357,TranslationElicitation_spa,3.2.4,Win32,60,55nf2389fyevievh89gf18f913h,,1,0,80,17,1,79
,,,,,,,,,,,,,,,,,,,,,,,,,,,,,,,,,,,a,1.680999994,CA,FALSE,,,,,,,122,casa,Catalan,Sounds/cat_casa.mp3,2020-06-19_09h30.37.357,TranslationElicitation_spa,3.2.4,Win32,60,55nf2389fyevievh89gf18f913h,,1,0,80,17,1,79
,,,,,,,,,,,,,,,,,,,,,,,,,,,,,,,,,,,s,1.784999847,CAS,FALSE,,,,,,,122,casa,Catalan,Sounds/cat_casa.mp3,2020-06-19_09h30.37.357,TranslationElicitation_spa,3.2.4,Win32,60,55nf2389fyevievh89gf18f913h,,1,0,80,17,1,79
,,,,,,,,,,,,,,,,,,,,,,,,,,,,,,,,,,,a,1.871999979,CASA,FALSE,,,,,,,122,casa,Catalan,Sounds/cat_casa.mp3,2020-06-19_09h30.37.357,TranslationElicitation_spa,3.2.4,Win32,60,55nf2389fyevievh89gf18f913h,,1,0,80,17,1,79
,,,,,,,,,,,,,,,,,,,,,,,,,,,,,,,,,,,return,2.199999809,,FALSE,,,,,,,122,casa,Catalan,Sounds/cat_casa.mp3,2020-06-19_09h30.37.357,TranslationElicitation_spa,3.2.4,Win32,60,55nf2389fyevievh89gf18f913h,2.199999809,1,0,80,17,1,79
,,,,,,,,,,,,,,,,,,,,,,,,,,,,,,,,,,,,,,,,,,,,,122,casa,Catalan,Sounds/cat_casa.mp3,2020-06-19_09h30.37.357,TranslationElicitation_spa,3.2.4,Win32,60,55nf2389fyevievh89gf18f913h,,1,0,80,17,1,79
,,,,,,,,,,,,,,,,,,,,,,,,,,,,,,,,,,,s,1.713999987,S,FALSE,,,,,,,177,sol,Catalan,Sounds/cat_sol.mp3,2020-06-19_09h30.37.357,TranslationElicitation_spa,3.2.4,Win32,60,55nf2389fyevievh89gf18f913h,,1,0,80,69,1,79
,,,,,,,,,,,,,,,,,,,,,,,,,,,,,,,,,,,o,1.813000202,SO,FALSE,,,,,,,177,sol,Catalan,Sounds/cat_sol.mp3,2020-06-19_09h30.37.357,TranslationElicitation_spa,3.2.4,Win32,60,55nf2389fyevievh89gf18f913h,,1,0,80,69,1,79
,,,,,,,,,,,,,,,,,,,,,,,,,,,,,,,,,,,l,2.013000011,SOL,FALSE,,,,,,,177,sol,Catalan,Sounds/cat_sol.mp3,2020-06-19_09h30.37.357,TranslationElicitation_spa,3.2.4,Win32,60,55nf2389fyevievh89gf18f913h,,1,0,80,69,1,79
,,,,,,,,,,,,,,,,,,,,,,,,,,,,,,,,,,,return,2.363000154,,FALSE,,,,,,,177,sol,Catalan,Sounds/cat_sol.mp3,2020-06-19_09h30.37.357,TranslationElicitation_spa,3.2.4,Win32,60,55nf2389fyevievh89gf18f913h,2.363000154,1,0,80,69,1,79
,,,,,,,,,,,,,,,,,,,,,,,,,,,,,,,,,,,,,,,,,,,,,177,sol,Catalan,Sounds/cat_sol.mp3,2020-06-19_09h30.37.357,TranslationElicitation_spa,3.2.4,Win32,60,55nf2389fyevievh89gf18f913h,,1,0,80,69,1,79
,,,,,,,,,,,,,,,,,,,,,,,,,,,,,,,,,,,l,1.598999977,L,FALSE,,,,,,,143,globus,Catalan,Sounds/cat_globus.mp3,2020-06-19_09h30.37.357,TranslationElicitation_spa,3.2.4,Win32,60,55nf2389fyevievh89gf18f913h,,1,0,80,38,1,79
,,,,,,,,,,,,,,,,,,,,,,,,,,,,,,,,,,,o,1.815000057,LO,FALSE,,,,,,,143,globus,Catalan,Sounds/cat_globus.mp3,2020-06-19_09h30.37.357,TranslationElicitation_spa,3.2.4,Win32,60,55nf2389fyevievh89gf18f913h,,1,0,80,38,1,79
,,,,,,,,,,,,,,,,,,,,,,,,,,,,,,,,,,,b,1.982000113,LOB,FALSE,,,,,,,143,globus,Catalan,Sounds/cat_globus.mp3,2020-06-19_09h30.37.357,TranslationElicitation_spa,3.2.4,Win32,60,55nf2389fyevievh89gf18f913h,,1,0,80,38,1,79
,,,,,,,,,,,,,,,,,,,,,,,,,,,,,,,,,,,backspace,2.381000042,L,TRUE,,,,,,,143,globus,Catalan,Sounds/cat_globus.mp3,2020-06-19_09h30.37.357,TranslationElicitation_spa,3.2.4,Win32,60,55nf2389fyevievh89gf18f913h,,1,0,80,38,1,79
,,,,,,,,,,,,,,,,,,,,,,,,,,,,,,,,,,,backspace,2.563999891,,TRUE,,,,,,,143,globus,Catalan,Sounds/cat_globus.mp3,2020-06-19_09h30.37.357,TranslationElicitation_spa,3.2.4,Win32,60,55nf2389fyevievh89gf18f913h,,1,0,80,38,1,79
,,,,,,,,,,,,,,,,,,,,,,,,,,,,,,,,,,,backspace,2.72300005,,TRUE,,,,,,,143,globus,Catalan,Sounds/cat_globus.mp3,2020-06-19_09h30.37.357,TranslationElicitation_spa,3.2.4,Win32,60,55nf2389fyevievh89gf18f913h,,1,0,80,38,1,79
,,,,,,,,,,,,,,,,,,,,,,,,,,,,,,,,,,,g,2.855999947,G,TRUE,,,,,,,143,globus,Catalan,Sounds/cat_globus.mp3,2020-06-19_09h30.37.357,TranslationElicitation_spa,3.2.4,Win32,60,55nf2389fyevievh89gf18f913h,,1,0,80,38,1,79
,,,,,,,,,,,,,,,,,,,,,,,,,,,,,,,,,,,l,3.039999962,GL,TRUE,,,,,,,143,globus,Catalan,Sounds/cat_globus.mp3,2020-06-19_09h30.37.357,TranslationElicitation_spa,3.2.4,Win32,60,55nf2389fyevievh89gf18f913h,,1,0,80,38,1,79
,,,,,,,,,,,,,,,,,,,,,,,,,,,,,,,,,,,o,3.256999969,GLO,TRUE,,,,,,,143,globus,Catalan,Sounds/cat_globus.mp3,2020-06-19_09h30.37.357,TranslationElicitation_spa,3.2.4,Win32,60,55nf2389fyevievh89gf18f913h,,1,0,80,38,1,79
,,,,,,,,,,,,,,,,,,,,,,,,,,,,,,,,,,,b,3.407000065,GLOB,TRUE,,,,,,,143,globus,Catalan,Sounds/cat_globus.mp3,2020-06-19_09h30.37.357,TranslationElicitation_spa,3.2.4,Win32,60,55nf2389fyevievh89gf18f913h,,1,0,80,38,1,79
,,,,,,,,,,,,,,,,,,,,,,,,,,,,,,,,,,,o,3.502000093,GLOBO,TRUE,,,,,,,143,globus,Catalan,Sounds/cat_globus.mp3,2020-06-19_09h30.37.357,TranslationElicitation_spa,3.2.4,Win32,60,55nf2389fyevievh89gf18f913h,,1,0,80,38,1,79
,,,,,,,,,,,,,,,,,,,,,,,,,,,,,,,,,,,return,3.796999931,,TRUE,,,,,,,143,globus,Catalan,Sounds/cat_globus.mp3,2020-06-19_09h30.37.357,TranslationElicitation_spa,3.2.4,Win32,60,55nf2389fyevievh89gf18f913h,3.796999931,1,0,80,38,1,79
,,,,,,,,,,,,,,,,,,,,,,,,,,,,,,,,,,,,,,,,,,,,,143,globus,Catalan,Sounds/cat_globus.mp3,2020-06-19_09h30.37.357,TranslationElicitation_spa,3.2.4,Win32,60,55nf2389fyevievh89gf18f913h,,1,0,80,38,1,79
,,,,,,,,,,,,,,,,,,,,,,,,,,,,,,,,,,,h,1.58100009,H,FALSE,,,,,,,135,formiga,Catalan,Sounds/cat_formiga.mp3,2020-06-19_09h30.37.357,TranslationElicitation_spa,3.2.4,Win32,60,55nf2389fyevievh89gf18f913h,,1,0,80,30,1,79
,,,,,,,,,,,,,,,,,,,,,,,,,,,,,,,,,,,o,1.664999962,HO,FALSE,,,,,,,135,formiga,Catalan,Sounds/cat_formiga.mp3,2020-06-19_09h30.37.357,TranslationElicitation_spa,3.2.4,Win32,60,55nf2389fyevievh89gf18f913h,,1,0,80,30,1,79
,,,,,,,,,,,,,,,,,,,,,,,,,,,,,,,,,,,r,1.83100009,HOR,FALSE,,,,,,,135,formiga,Catalan,Sounds/cat_formiga.mp3,2020-06-19_09h30.37.357,TranslationElicitation_spa,3.2.4,Win32,60,55nf2389fyevievh89gf18f913h,,1,0,80,30,1,79
,,,,,,,,,,,,,,,,,,,,,,,,,,,,,,,,,,,m,1.97300005,HORM,FALSE,,,,,,,135,formiga,Catalan,Sounds/cat_formiga.mp3,2020-06-19_09h30.37.357,TranslationElicitation_spa,3.2.4,Win32,60,55nf2389fyevievh89gf18f913h,,1,0,80,30,1,79
,,,,,,,,,,,,,,,,,,,,,,,,,,,,,,,,,,,i,2.042000055,HORMI,FALSE,,,,,,,135,formiga,Catalan,Sounds/cat_formiga.mp3,2020-06-19_09h30.37.357,TranslationElicitation_spa,3.2.4,Win32,60,55nf2389fyevievh89gf18f913h,,1,0,80,30,1,79
,,,,,,,,,,,,,,,,,,,,,,,,,,,,,,,,,,,g,2.144000053,HORMIG,FALSE,,,,,,,135,formiga,Catalan,Sounds/cat_formiga.mp3,2020-06-19_09h30.37.357,TranslationElicitation_spa,3.2.4,Win32,60,55nf2389fyevievh89gf18f913h,,1,0,80,30,1,79
,,,,,,,,,,,,,,,,,,,,,,,,,,,,,,,,,,,a,2.34800005,HORMIGA,FALSE,,,,,,,135,formiga,Catalan,Sounds/cat_formiga.mp3,2020-06-19_09h30.37.357,TranslationElicitation_spa,3.2.4,Win32,60,55nf2389fyevievh89gf18f913h,,1,0,80,30,1,79
,,,,,,,,,,,,,,,,,,,,,,,,,,,,,,,,,,,return,2.772000074,,FALSE,,,,,,,135,formiga,Catalan,Sounds/cat_formiga.mp3,2020-06-19_09h30.37.357,TranslationElicitation_spa,3.2.4,Win32,60,55nf2389fyevievh89gf18f913h,2.772000074,1,0,80,30,1,79
,,,,,,,,,,,,,,,,,,,,,,,,,,,,,,,,,,,,,,,,,,,,,135,formiga,Catalan,Sounds/cat_formiga.mp3,2020-06-19_09h30.37.357,TranslationElicitation_spa,3.2.4,Win32,60,55nf2389fyevievh89gf18f913h,,1,0,80,30,1,79
,,,,,,,,,,,,,,,,,,,,,,,,,,,,,,,,,,,g,2.029999971,G,FALSE,,,,,,,140,gat,Catalan,Sounds/cat_gat.mp3,2020-06-19_09h30.37.357,TranslationElicitation_spa,3.2.4,Win32,60,55nf2389fyevievh89gf18f913h,,1,0,80,35,1,79
,,,,,,,,,,,,,,,,,,,,,,,,,,,,,,,,,,,a,2.096999884,GA,FALSE,,,,,,,140,gat,Catalan,Sounds/cat_gat.mp3,2020-06-19_09h30.37.357,TranslationElicitation_spa,3.2.4,Win32,60,55nf2389fyevievh89gf18f913h,,1,0,80,35,1,79
,,,,,,,,,,,,,,,,,,,,,,,,,,,,,,,,,,,t,2.313999891,GAT,FALSE,,,,,,,140,gat,Catalan,Sounds/cat_gat.mp3,2020-06-19_09h30.37.357,TranslationElicitation_spa,3.2.4,Win32,60,55nf2389fyevievh89gf18f913h,,1,0,80,35,1,79
,,,,,,,,,,,,,,,,,,,,,,,,,,,,,,,,,,,o,2.430000067,GATO,FALSE,,,,,,,140,gat,Catalan,Sounds/cat_gat.mp3,2020-06-19_09h30.37.357,TranslationElicitation_spa,3.2.4,Win32,60,55nf2389fyevievh89gf18f913h,,1,0,80,35,1,79
,,,,,,,,,,,,,,,,,,,,,,,,,,,,,,,,,,,return,2.764999866,,FALSE,,,,,,,140,gat,Catalan,Sounds/cat_gat.mp3,2020-06-19_09h30.37.357,TranslationElicitation_spa,3.2.4,Win32,60,55nf2389fyevievh89gf18f913h,2.764999866,1,0,80,35,1,79
,,,,,,,,,,,,,,,,,,,,,,,,,,,,,,,,,,,,,,,,,,,,,140,gat,Catalan,Sounds/cat_gat.mp3,2020-06-19_09h30.37.357,TranslationElicitation_spa,3.2.4,Win32,60,55nf2389fyevievh89gf18f913h,,1,0,80,35,1,79
,,,,,,,,,,,,,,,,,,,,,,,,,,,,,,,,,,,a,2.146999836,A,FALSE,,,,,,,108,ampolla,Catalan,Sounds/cat_ampolla.mp3,2020-06-19_09h30.37.357,TranslationElicitation_spa,3.2.4,Win32,60,55nf2389fyevievh89gf18f913h,,1,0,80,4,1,79
,,,,,,,,,,,,,,,,,,,,,,,,,,,,,,,,,,,m,2.278999805,AM,FALSE,,,,,,,108,ampolla,Catalan,Sounds/cat_ampolla.mp3,2020-06-19_09h30.37.357,TranslationElicitation_spa,3.2.4,Win32,60,55nf2389fyevievh89gf18f913h,,1,0,80,4,1,79
