consentKey.keys,consentKey.rt,languageL1Key.keys,languageL1Key.rt,languageL2,languageL2OralKey.keys,languageL2OralKey.rt,languageL2WrittenKey.keys,languageL2WrittenKey.rt,languageL3OralKey.keys,languageL3OralKey.rt,languageL3WrittenKey.keys,languageL3WrittenKey.rt,languageCatalanOralKey.keys,languageCatalanOralKey.rt,languageCatalanWrittenKey.keys,languageCatalanWrittenKey.rt,languageCatalanTimeKey.keys,languageCatalanTimeKey.rt,age,demoSexKey.keys,demoSexKey.rt,demoEducationKey.keys,demoEducationKey.rt,city,demoVisionKey.keys,demoVisionKey.rt,demoLanguageKey.keys,demoLanguageKey.rt,setupLocationKey.keys,setupLocationKey.rt,setupNoiseKey.keys,setupNoiseKey.rt,instructionsKeys.keys,instructionsKeys.rt,keyPressed,keyPressTime,inputText,error,trials_practice.thisRepN,trials_practice.thisTrialN,trials_practice.thisN,trials_practice.thisIndex,trials_practice.ran,trials_practice.order,trial_id,word,test_language,soundfile,date,expName,psychopyVersion,OS,frameRate,participant,trialOffset,trials.thisRepN,trials.thisTrialN,trials.thisN,trials.thisIndex,trials.ran,trials.order
space,1.697999954,e,5.320999861,FRANCÉS,4,12.74799991,4,5.187999964,3,3.902999878,3,2.9599998,2,3.927999973,1,2.68599987,1,5.151999712,18,m,2.108999729,3,4.117999792,GRANADA,n,2.588999987,n,2.25,1,2.805999994,2,5.032999754,space,14.67400002,s,6.529999971,S,FALSE,1,0,5,3,1,4,167,pingui,Catalan,Sounds/cat_pingui.mp3,2020-06-19_10h41.53.182,TranslationElicitation_spa,3.2.4,Win32,60,55nvwehvwoepvho2ph29vhjf3,,,,,,,
,,,,,,,,,,,,,,,,,,,,,,,,,,,,,,,,,,,apostrophe,7.378999949,S,FALSE,1,0,5,3,1,4,167,pingui,Catalan,Sounds/cat_pingui.mp3,2020-06-19_10h41.53.182,TranslationElicitation_spa,3.2.4,Win32,60,55nvwehvwoepvho2ph29vhjf3,,,,,,,
,,,,,,,,,,,,,,,,,,,,,,,,,,,,,,,,,,,i,7.878999949,SÍ,FALSE,1,0,5,3,1,4,167,pingui,Catalan,Sounds/cat_pingui.mp3,2020-06-19_10h41.53.182,TranslationElicitation_spa,3.2.4,Win32,60,55nvwehvwoepvho2ph29vhjf3,,,,,,,
,,,,,,,,,,,,,,,,,,,,,,,,,,,,,,,,,,,return,9.112999916,,FALSE,1,0,5,3,1,4,167,pingui,Catalan,Sounds/cat_pingui.mp3,2020-06-19_10h41.53.182,TranslationElicitation_spa,3.2.4,Win32,60,55nvwehvwoepvho2ph29vhjf3,9.112999916,,,,,,
,,,,,,,,,,,,,,,,,,,,,,,,,,,,,,,,,,,,,,,1,0,5,3,1,4,167,pingui,Catalan,Sounds/cat_pingui.mp3,2020-06-19_10h41.53.182,TranslationElicitation_spa,3.2.4,Win32,60,55nvwehvwoepvho2ph29vhjf3,,,,,,,
,,,,,,,,,,,,,,,,,,,,,,,,,,,,,,,,,,,c,2.248000145,C,FALSE,1,0,5,1,1,4,147,jaqueta,Catalan,Sounds/cat_jaqueta.mp3,2020-06-19_10h41.53.182,TranslationElicitation_spa,3.2.4,Win32,60,55nvwehvwoepvho2ph29vhjf3,,,,,,,
,,,,,,,,,,,,,,,,,,,,,,,,,,,,,,,,,,,h,2.947999954,CH,FALSE,1,0,5,1,1,4,147,jaqueta,Catalan,Sounds/cat_jaqueta.mp3,2020-06-19_10h41.53.182,TranslationElicitation_spa,3.2.4,Win32,60,55nvwehvwoepvho2ph29vhjf3,,,,,,,
,,,,,,,,,,,,,,,,,,,,,,,,,,,,,,,,,,,a,3.09800005,CHA,FALSE,1,0,5,1,1,4,147,jaqueta,Catalan,Sounds/cat_jaqueta.mp3,2020-06-19_10h41.53.182,TranslationElicitation_spa,3.2.4,Win32,60,55nvwehvwoepvho2ph29vhjf3,,,,,,,
,,,,,,,,,,,,,,,,,,,,,,,,,,,,,,,,,,,q,3.298000097,CHAQ,FALSE,1,0,5,1,1,4,147,jaqueta,Catalan,Sounds/cat_jaqueta.mp3,2020-06-19_10h41.53.182,TranslationElicitation_spa,3.2.4,Win32,60,55nvwehvwoepvho2ph29vhjf3,,,,,,,
,,,,,,,,,,,,,,,,,,,,,,,,,,,,,,,,,,,u,3.480999947,CHAQU,FALSE,1,0,5,1,1,4,147,jaqueta,Catalan,Sounds/cat_jaqueta.mp3,2020-06-19_10h41.53.182,TranslationElicitation_spa,3.2.4,Win32,60,55nvwehvwoepvho2ph29vhjf3,,,,,,,
,,,,,,,,,,,,,,,,,,,,,,,,,,,,,,,,,,,e,3.59800005,CHAQUE,FALSE,1,0,5,1,1,4,147,jaqueta,Catalan,Sounds/cat_jaqueta.mp3,2020-06-19_10h41.53.182,TranslationElicitation_spa,3.2.4,Win32,60,55nvwehvwoepvho2ph29vhjf3,,,,,,,
,,,,,,,,,,,,,,,,,,,,,,,,,,,,,,,,,,,t,3.914999962,CHAQUET,FALSE,1,0,5,1,1,4,147,jaqueta,Catalan,Sounds/cat_jaqueta.mp3,2020-06-19_10h41.53.182,TranslationElicitation_spa,3.2.4,Win32,60,55nvwehvwoepvho2ph29vhjf3,,,,,,,
,,,,,,,,,,,,,,,,,,,,,,,,,,,,,,,,,,,a,4.015000105,CHAQUETA,FALSE,1,0,5,1,1,4,147,jaqueta,Catalan,Sounds/cat_jaqueta.mp3,2020-06-19_10h41.53.182,TranslationElicitation_spa,3.2.4,Win32,60,55nvwehvwoepvho2ph29vhjf3,,,,,,,
,,,,,,,,,,,,,,,,,,,,,,,,,,,,,,,,,,,return,4.697999954,,FALSE,1,0,5,1,1,4,147,jaqueta,Catalan,Sounds/cat_jaqueta.mp3,2020-06-19_10h41.53.182,TranslationElicitation_spa,3.2.4,Win32,60,55nvwehvwoepvho2ph29vhjf3,4.697999954,,,,,,
,,,,,,,,,,,,,,,,,,,,,,,,,,,,,,,,,,,,,,,1,0,5,1,1,4,147,jaqueta,Catalan,Sounds/cat_jaqueta.mp3,2020-06-19_10h41.53.182,TranslationElicitation_spa,3.2.4,Win32,60,55nvwehvwoepvho2ph29vhjf3,,,,,,,
,,,,,,,,,,,,,,,,,,,,,,,,,,,,,,,,,,,t,1.83100009,T,FALSE,1,0,5,4,1,4,179,tigre,Catalan,Sounds/cat_tigre.mp3,2020-06-19_10h41.53.182,TranslationElicitation_spa,3.2.4,Win32,60,55nvwehvwoepvho2ph29vhjf3,,,,,,,
,,,,,,,,,,,,,,,,,,,,,,,,,,,,,,,,,,,i,2.430999994,TI,FALSE,1,0,5,4,1,4,179,tigre,Catalan,Sounds/cat_tigre.mp3,2020-06-19_10h41.53.182,TranslationElicitation_spa,3.2.4,Win32,60,55nvwehvwoepvho2ph29vhjf3,,,,,,,
,,,,,,,,,,,,,,,,,,,,,,,,,,,,,,,,,,,g,2.69900012,TIG,FALSE,1,0,5,4,1,4,179,tigre,Catalan,Sounds/cat_tigre.mp3,2020-06-19_10h41.53.182,TranslationElicitation_spa,3.2.4,Win32,60,55nvwehvwoepvho2ph29vhjf3,,,,,,,
,,,,,,,,,,,,,,,,,,,,,,,,,,,,,,,,,,,r,2.933000088,TIGR,FALSE,1,0,5,4,1,4,179,tigre,Catalan,Sounds/cat_tigre.mp3,2020-06-19_10h41.53.182,TranslationElicitation_spa,3.2.4,Win32,60,55nvwehvwoepvho2ph29vhjf3,,,,,,,
,,,,,,,,,,,,,,,,,,,,,,,,,,,,,,,,,,,e,3.046999931,TIGRE,FALSE,1,0,5,4,1,4,179,tigre,Catalan,Sounds/cat_tigre.mp3,2020-06-19_10h41.53.182,TranslationElicitation_spa,3.2.4,Win32,60,55nvwehvwoepvho2ph29vhjf3,,,,,,,
,,,,,,,,,,,,,,,,,,,,,,,,,,,,,,,,,,,return,4.280999899,,FALSE,1,0,5,4,1,4,179,tigre,Catalan,Sounds/cat_tigre.mp3,2020-06-19_10h41.53.182,TranslationElicitation_spa,3.2.4,Win32,60,55nvwehvwoepvho2ph29vhjf3,4.280999899,,,,,,
,,,,,,,,,,,,,,,,,,,,,,,,,,,,,,,,,,,,,,,1,0,5,4,1,4,179,tigre,Catalan,Sounds/cat_tigre.mp3,2020-06-19_10h41.53.182,TranslationElicitation_spa,3.2.4,Win32,60,55nvwehvwoepvho2ph29vhjf3,,,,,,,
,,,,,,,,,,,,,,,,,,,,,,,,,,,,,,,,,,,u,1.648999929,U,FALSE,1,0,5,2,1,4,159,onada,Catalan,Sounds/cat_onada.mp3,2020-06-19_10h41.53.182,TranslationElicitation_spa,3.2.4,Win32,60,55nvwehvwoepvho2ph29vhjf3,,,,,,,
,,,,,,,,,,,,,,,,,,,,,,,,,,,,,,,,,,,n,1.881999969,UN,FALSE,1,0,5,2,1,4,159,onada,Catalan,Sounds/cat_onada.mp3,2020-06-19_10h41.53.182,TranslationElicitation_spa,3.2.4,Win32,60,55nvwehvwoepvho2ph29vhjf3,,,,,,,
,,,,,,,,,,,,,,,,,,,,,,,,,,,,,,,,,,,space,2.082000017,UN ,FALSE,1,0,5,2,1,4,159,onada,Catalan,Sounds/cat_onada.mp3,2020-06-19_10h41.53.182,TranslationElicitation_spa,3.2.4,Win32,60,55nvwehvwoepvho2ph29vhjf3,,,,,,,
,,,,,,,,,,,,,,,,,,,,,,,,,,,,,,,,,,,h,2.417999983,UN H,FALSE,1,0,5,2,1,4,159,onada,Catalan,Sounds/cat_onada.mp3,2020-06-19_10h41.53.182,TranslationElicitation_spa,3.2.4,Win32,60,55nvwehvwoepvho2ph29vhjf3,,,,,,,
,,,,,,,,,,,,,,,,,,,,,,,,,,,,,,,,,,,a,2.486000061,UN HA,FALSE,1,0,5,2,1,4,159,onada,Catalan,Sounds/cat_onada.mp3,2020-06-19_10h41.53.182,TranslationElicitation_spa,3.2.4,Win32,60,55nvwehvwoepvho2ph29vhjf3,,,,,,,
,,,,,,,,,,,,,,,,,,,,,,,,,,,,,,,,,,,d,2.631999969,UN HAD,FALSE,1,0,5,2,1,4,159,onada,Catalan,Sounds/cat_onada.mp3,2020-06-19_10h41.53.182,TranslationElicitation_spa,3.2.4,Win32,60,55nvwehvwoepvho2ph29vhjf3,,,,,,,
,,,,,,,,,,,,,,,,,,,,,,,,,,,,,,,,,,,a,2.782999992,UN HADA,FALSE,1,0,5,2,1,4,159,onada,Catalan,Sounds/cat_onada.mp3,2020-06-19_10h41.53.182,TranslationElicitation_spa,3.2.4,Win32,60,55nvwehvwoepvho2ph29vhjf3,,,,,,,
,,,,,,,,,,,,,,,,,,,,,,,,,,,,,,,,,,,return,3.233999968,,FALSE,1,0,5,2,1,4,159,onada,Catalan,Sounds/cat_onada.mp3,2020-06-19_10h41.53.182,TranslationElicitation_spa,3.2.4,Win32,60,55nvwehvwoepvho2ph29vhjf3,3.233999968,,,,,,
,,,,,,,,,,,,,,,,,,,,,,,,,,,,,,,,,,,,,,,1,0,5,2,1,4,159,onada,Catalan,Sounds/cat_onada.mp3,2020-06-19_10h41.53.182,TranslationElicitation_spa,3.2.4,Win32,60,55nvwehvwoepvho2ph29vhjf3,,,,,,,
,,,,,,,,,,,,,,,,,,,,,,,,,,,,,,,,,,,a,1.644999981,A,FALSE,1,0,5,0,1,4,109,arbre,Catalan,Sounds/cat_arbre.mp3,2020-06-19_10h41.53.182,TranslationElicitation_spa,3.2.4,Win32,60,55nvwehvwoepvho2ph29vhjf3,,,,,,,
,,,,,,,,,,,,,,,,,,,,,,,,,,,,,,,,,,,backspace,2.561999798,,TRUE,1,0,5,0,1,4,109,arbre,Catalan,Sounds/cat_arbre.mp3,2020-06-19_10h41.53.182,TranslationElicitation_spa,3.2.4,Win32,60,55nvwehvwoepvho2ph29vhjf3,,,,,,,
,,,,,,,,,,,,,,,,,,,,,,,,,,,,,,,,,,,apostrophe,3.194999933,,TRUE,1,0,5,0,1,4,109,arbre,Catalan,Sounds/cat_arbre.mp3,2020-06-19_10h41.53.182,TranslationElicitation_spa,3.2.4,Win32,60,55nvwehvwoepvho2ph29vhjf3,,,,,,,
,,,,,,,,,,,,,,,,,,,,,,,,,,,,,,,,,,,a,3.260999918,Á,TRUE,1,0,5,0,1,4,109,arbre,Catalan,Sounds/cat_arbre.mp3,2020-06-19_10h41.53.182,TranslationElicitation_spa,3.2.4,Win32,60,55nvwehvwoepvho2ph29vhjf3,,,,,,,
,,,,,,,,,,,,,,,,,,,,,,,,,,,,,,,,,,,r,3.494999886,ÁR,TRUE,1,0,5,0,1,4,109,arbre,Catalan,Sounds/cat_arbre.mp3,2020-06-19_10h41.53.182,TranslationElicitation_spa,3.2.4,Win32,60,55nvwehvwoepvho2ph29vhjf3,,,,,,,
,,,,,,,,,,,,,,,,,,,,,,,,,,,,,,,,,,,b,3.631999969,ÁRB,TRUE,1,0,5,0,1,4,109,arbre,Catalan,Sounds/cat_arbre.mp3,2020-06-19_10h41.53.182,TranslationElicitation_spa,3.2.4,Win32,60,55nvwehvwoepvho2ph29vhjf3,,,,,,,
,,,,,,,,,,,,,,,,,,,,,,,,,,,,,,,,,,,o,4.07799983,ÁRBO,TRUE,1,0,5,0,1,4,109,arbre,Catalan,Sounds/cat_arbre.mp3,2020-06-19_10h41.53.182,TranslationElicitation_spa,3.2.4,Win32,60,55nvwehvwoepvho2ph29vhjf3,,,,,,,
,,,,,,,,,,,,,,,,,,,,,,,,,,,,,,,,,,,l,4.260999918,ÁRBOL,TRUE,1,0,5,0,1,4,109,arbre,Catalan,Sounds/cat_arbre.mp3,2020-06-19_10h41.53.182,TranslationElicitation_spa,3.2.4,Win32,60,55nvwehvwoepvho2ph29vhjf3,,,,,,,
,,,,,,,,,,,,,,,,,,,,,,,,,,,,,,,,,,,return,4.595999956,,TRUE,1,0,5,0,1,4,109,arbre,Catalan,Sounds/cat_arbre.mp3,2020-06-19_10h41.53.182,TranslationElicitation_spa,3.2.4,Win32,60,55nvwehvwoepvho2ph29vhjf3,4.59499979,,,,,,
,,,,,,,,,,,,,,,,,,,,,,,,,,,,,,,,,,,,,,,1,0,5,0,1,4,109,arbre,Catalan,Sounds/cat_arbre.mp3,2020-06-19_10h41.53.182,TranslationElicitation_spa,3.2.4,Win32,60,55nvwehvwoepvho2ph29vhjf3,,,,,,,
,,,,,,,,,,,,,,,,,,,,,,,,,,,,,,,,,,,v,3.765000105,V,FALSE,,,,,,,137,fulla,Catalan,Sounds/cat_fulla.mp3,2020-06-19_10h41.53.182,TranslationElicitation_spa,3.2.4,Win32,60,55nvwehvwoepvho2ph29vhjf3,,1,0,80,32,1,79
,,,,,,,,,,,,,,,,,,,,,,,,,,,,,,,,,,,e,4.234000206,VE,FALSE,,,,,,,137,fulla,Catalan,Sounds/cat_fulla.mp3,2020-06-19_10h41.53.182,TranslationElicitation_spa,3.2.4,Win32,60,55nvwehvwoepvho2ph29vhjf3,,1,0,80,32,1,79
,,,,,,,,,,,,,,,,,,,,,,,,,,,,,,,,,,,backspace,4.86500001,,TRUE,,,,,,,137,fulla,Catalan,Sounds/cat_fulla.mp3,2020-06-19_10h41.53.182,TranslationElicitation_spa,3.2.4,Win32,60,55nvwehvwoepvho2ph29vhjf3,,1,0,80,32,1,79
,,,,,,,,,,,,,,,,,,,,,,,,,,,,,,,,,,,i,5.298000097,I,TRUE,,,,,,,137,fulla,Catalan,Sounds/cat_fulla.mp3,2020-06-19_10h41.53.182,TranslationElicitation_spa,3.2.4,Win32,60,55nvwehvwoepvho2ph29vhjf3,,1,0,80,32,1,79
,,,,,,,,,,,,,,,,,,,,,,,,,,,,,,,,,,,e,5.4150002,IE,TRUE,,,,,,,137,fulla,Catalan,Sounds/cat_fulla.mp3,2020-06-19_10h41.53.182,TranslationElicitation_spa,3.2.4,Win32,60,55nvwehvwoepvho2ph29vhjf3,,1,0,80,32,1,79
,,,,,,,,,,,,,,,,,,,,,,,,,,,,,,,,,,,n,5.481000185,IEN,TRUE,,,,,,,137,fulla,Catalan,Sounds/cat_fulla.mp3,2020-06-19_10h41.53.182,TranslationElicitation_spa,3.2.4,Win32,60,55nvwehvwoepvho2ph29vhjf3,,1,0,80,32,1,79
,,,,,,,,,,,,,,,,,,,,,,,,,,,,,,,,,,,t,5.698000193,IENT,TRUE,,,,,,,137,fulla,Catalan,Sounds/cat_fulla.mp3,2020-06-19_10h41.53.182,TranslationElicitation_spa,3.2.4,Win32,60,55nvwehvwoepvho2ph29vhjf3,,1,0,80,32,1,79
,,,,,,,,,,,,,,,,,,,,,,,,,,,,,,,,,,,backspace,6.048000097,IE,TRUE,,,,,,,137,fulla,Catalan,Sounds/cat_fulla.mp3,2020-06-19_10h41.53.182,TranslationElicitation_spa,3.2.4,Win32,60,55nvwehvwoepvho2ph29vhjf3,,1,0,80,32,1,79
,,,,,,,,,,,,,,,,,,,,,,,,,,,,,,,,,,,backspace,6.231000185,,TRUE,,,,,,,137,fulla,Catalan,Sounds/cat_fulla.mp3,2020-06-19_10h41.53.182,TranslationElicitation_spa,3.2.4,Win32,60,55nvwehvwoepvho2ph29vhjf3,,1,0,80,32,1,79
,,,,,,,,,,,,,,,,,,,,,,,,,,,,,,,,,,,backspace,6.382000208,,TRUE,,,,,,,137,fulla,Catalan,Sounds/cat_fulla.mp3,2020-06-19_10h41.53.182,TranslationElicitation_spa,3.2.4,Win32,60,55nvwehvwoepvho2ph29vhjf3,,1,0,80,32,1,79
,,,,,,,,,,,,,,,,,,,,,,,,,,,,,,,,,,,v,7.014000177,V,TRUE,,,,,,,137,fulla,Catalan,Sounds/cat_fulla.mp3,2020-06-19_10h41.53.182,TranslationElicitation_spa,3.2.4,Win32,60,55nvwehvwoepvho2ph29vhjf3,,1,0,80,32,1,79
,,,,,,,,,,,,,,,,,,,,,,,,,,,,,,,,,,,i,7.150000095,VI,TRUE,,,,,,,137,fulla,Catalan,Sounds/cat_fulla.mp3,2020-06-19_10h41.53.182,TranslationElicitation_spa,3.2.4,Win32,60,55nvwehvwoepvho2ph29vhjf3,,1,0,80,32,1,79
,,,,,,,,,,,,,,,,,,,,,,,,,,,,,,,,,,,e,7.248000145,VIE,TRUE,,,,,,,137,fulla,Catalan,Sounds/cat_fulla.mp3,2020-06-19_10h41.53.182,TranslationElicitation_spa,3.2.4,Win32,60,55nvwehvwoepvho2ph29vhjf3,,1,0,80,32,1,79
,,,,,,,,,,,,,,,,,,,,,,,,,,,,,,,,,,,n,7.33100009,VIEN,TRUE,,,,,,,137,fulla,Catalan,Sounds/cat_fulla.mp3,2020-06-19_10h41.53.182,TranslationElicitation_spa,3.2.4,Win32,60,55nvwehvwoepvho2ph29vhjf3,,1,0,80,32,1,79
,,,,,,,,,,,,,,,,,,,,,,,,,,,,,,,,,,,t,7.498000145,VIENT,TRUE,,,,,,,137,fulla,Catalan,Sounds/cat_fulla.mp3,2020-06-19_10h41.53.182,TranslationElicitation_spa,3.2.4,Win32,60,55nvwehvwoepvho2ph29vhjf3,,1,0,80,32,1,79
,,,,,,,,,,,,,,,,,,,,,,,,,,,,,,,,,,,o,7.548000097,VIENTO,TRUE,,,,,,,137,fulla,Catalan,Sounds/cat_fulla.mp3,2020-06-19_10h41.53.182,TranslationElicitation_spa,3.2.4,Win32,60,55nvwehvwoepvho2ph29vhjf3,,1,0,80,32,1,79
,,,,,,,,,,,,,,,,,,,,,,,,,,,,,,,,,,,return,7.981000185,,TRUE,,,,,,,137,fulla,Catalan,Sounds/cat_fulla.mp3,2020-06-19_10h41.53.182,TranslationElicitation_spa,3.2.4,Win32,60,55nvwehvwoepvho2ph29vhjf3,7.981000185,1,0,80,32,1,79
,,,,,,,,,,,,,,,,,,,,,,,,,,,,,,,,,,,,,,,,,,,,,137,fulla,Catalan,Sounds/cat_fulla.mp3,2020-06-19_10h41.53.182,TranslationElicitation_spa,3.2.4,Win32,60,55nvwehvwoepvho2ph29vhjf3,,1,0,80,32,1,79
,,,,,,,,,,,,,,,,,,,,,,,,,,,,,,,,,,,b,1.947999954,B,FALSE,,,,,,,117,boto,Catalan,Sounds/cat_boto.mp3,2020-06-19_10h41.53.182,TranslationElicitation_spa,3.2.4,Win32,60,55nvwehvwoepvho2ph29vhjf3,,1,0,80,12,1,79
,,,,,,,,,,,,,,,,,,,,,,,,,,,,,,,,,,,o,2.11500001,BO,FALSE,,,,,,,117,boto,Catalan,Sounds/cat_boto.mp3,2020-06-19_10h41.53.182,TranslationElicitation_spa,3.2.4,Win32,60,55nvwehvwoepvho2ph29vhjf3,,1,0,80,12,1,79
,,,,,,,,,,,,,,,,,,,,,,,,,,,,,,,,,,,t,2.36500001,BOT,FALSE,,,,,,,117,boto,Catalan,Sounds/cat_boto.mp3,2020-06-19_10h41.53.182,TranslationElicitation_spa,3.2.4,Win32,60,55nvwehvwoepvho2ph29vhjf3,,1,0,80,12,1,79
,,,,,,,,,,,,,,,,,,,,,,,,,,,,,,,,,,,apostrophe,2.681999922,BOT,FALSE,,,,,,,117,boto,Catalan,Sounds/cat_boto.mp3,2020-06-19_10h41.53.182,TranslationElicitation_spa,3.2.4,Win32,60,55nvwehvwoepvho2ph29vhjf3,,1,0,80,12,1,79
,,,,,,,,,,,,,,,,,,,,,,,,,,,,,,,,,,,o,2.914999962,BOTÓ,FALSE,,,,,,,117,boto,Catalan,Sounds/cat_boto.mp3,2020-06-19_10h41.53.182,TranslationElicitation_spa,3.2.4,Win32,60,55nvwehvwoepvho2ph29vhjf3,,1,0,80,12,1,79
,,,,,,,,,,,,,,,,,,,,,,,,,,,,,,,,,,,n,3.098999977,BOTÓN,FALSE,,,,,,,117,boto,Catalan,Sounds/cat_boto.mp3,2020-06-19_10h41.53.182,TranslationElicitation_spa,3.2.4,Win32,60,55nvwehvwoepvho2ph29vhjf3,,1,0,80,12,1,79
,,,,,,,,,,,,,,,,,,,,,,,,,,,,,,,,,,,return,3.464999914,,FALSE,,,,,,,117,boto,Catalan,Sounds/cat_boto.mp3,2020-06-19_10h41.53.182,TranslationElicitation_spa,3.2.4,Win32,60,55nvwehvwoepvho2ph29vhjf3,3.464999914,1,0,80,12,1,79
,,,,,,,,,,,,,,,,,,,,,,,,,,,,,,,,,,,,,,,,,,,,,117,boto,Catalan,Sounds/cat_boto.mp3,2020-06-19_10h41.53.182,TranslationElicitation_spa,3.2.4,Win32,60,55nvwehvwoepvho2ph29vhjf3,,1,0,80,12,1,79
,,,,,,,,,,,,,,,,,,,,,,,,,,,,,,,,,,,a,2.914999962,A,FALSE,,,,,,,107,amanida,Catalan,Sounds/cat_amanida.mp3,2020-06-19_10h41.53.182,TranslationElicitation_spa,3.2.4,Win32,60,55nvwehvwoepvho2ph29vhjf3,,1,0,80,3,1,79
,,,,,,,,,,,,,,,,,,,,,,,,,,,,,,,,,,,b,2.982999802,AB,FALSE,,,,,,,107,amanida,Catalan,Sounds/cat_amanida.mp3,2020-06-19_10h41.53.182,TranslationElicitation_spa,3.2.4,Win32,60,55nvwehvwoepvho2ph29vhjf3,,1,0,80,3,1,79
,,,,,,,,,,,,,,,,,,,,,,,,,,,,,,,,,,,a,3.097999811,ABA,FALSE,,,,,,,107,amanida,Catalan,Sounds/cat_amanida.mp3,2020-06-19_10h41.53.182,TranslationElicitation_spa,3.2.4,Win32,60,55nvwehvwoepvho2ph29vhjf3,,1,0,80,3,1,79
,,,,,,,,,,,,,,,,,,,,,,,,,,,,,,,,,,,n,3.214999914,ABAN,FALSE,,,,,,,107,amanida,Catalan,Sounds/cat_amanida.mp3,2020-06-19_10h41.53.182,TranslationElicitation_spa,3.2.4,Win32,60,55nvwehvwoepvho2ph29vhjf3,,1,0,80,3,1,79
,,,,,,,,,,,,,,,,,,,,,,,,,,,,,,,,,,,c,3.515999794,ABANC,FALSE,,,,,,,107,amanida,Catalan,Sounds/cat_amanida.mp3,2020-06-19_10h41.53.182,TranslationElicitation_spa,3.2.4,Win32,60,55nvwehvwoepvho2ph29vhjf3,,1,0,80,3,1,79
,,,,,,,,,,,,,,,,,,,,,,,,,,,,,,,,,,,backspace,4.082999945,ABA,TRUE,,,,,,,107,amanida,Catalan,Sounds/cat_amanida.mp3,2020-06-19_10h41.53.182,TranslationElicitation_spa,3.2.4,Win32,60,55nvwehvwoepvho2ph29vhjf3,,1,0,80,3,1,79
,,,,,,,,,,,,,,,,,,,,,,,,,,,,,,,,,,,i,4.398000002,ABAI,TRUE,,,,,,,107,amanida,Catalan,Sounds/cat_amanida.mp3,2020-06-19_10h41.53.182,TranslationElicitation_spa,3.2.4,Win32,60,55nvwehvwoepvho2ph29vhjf3,,1,0,80,3,1,79
,,,,,,,,,,,,,,,,,,,,,,,,,,,,,,,,,,,c,4.514999866,ABAIC,TRUE,,,,,,,107,amanida,Catalan,Sounds/cat_amanida.mp3,2020-06-19_10h41.53.182,TranslationElicitation_spa,3.2.4,Win32,60,55nvwehvwoepvho2ph29vhjf3,,1,0,80,3,1,79
,,,,,,,,,,,,,,,,,,,,,,,,,,,,,,,,,,,o,4.648000002,ABAICO,TRUE,,,,,,,107,amanida,Catalan,Sounds/cat_amanida.mp3,2020-06-19_10h41.53.182,TranslationElicitation_spa,3.2.4,Win32,60,55nvwehvwoepvho2ph29vhjf3,,1,0,80,3,1,79
,,,,,,,,,,,,,,,,,,,,,,,,,,,,,,,,,,,backspace,5.113999844,ABAI,TRUE,,,,,,,107,amanida,Catalan,Sounds/cat_amanida.mp3,2020-06-19_10h41.53.182,TranslationElicitation_spa,3.2.4,Win32,60,55nvwehvwoepvho2ph29vhjf3,,1,0,80,3,1,79
,,,,,,,,,,,,,,,,,,,,,,,,,,,,,,,,,,,backspace,5.280999899,AB,TRUE,,,,,,,107,amanida,Catalan,Sounds/cat_amanida.mp3,2020-06-19_10h41.53.182,TranslationElicitation_spa,3.2.4,Win32,60,55nvwehvwoepvho2ph29vhjf3,,1,0,80,3,1,79
,,,,,,,,,,,,,,,,,,,,,,,,,,,,,,,,,,,a,6.263999939,ABA,TRUE,,,,,,,107,amanida,Catalan,Sounds/cat_amanida.mp3,2020-06-19_10h41.53.182,TranslationElicitation_spa,3.2.4,Win32,60,55nvwehvwoepvho2ph29vhjf3,,1,0,80,3,1,79
,,,,,,,,,,,,,,,,,,,,,,,,,,,,,,,,,,,n,6.630999804,ABAN,TRUE,,,,,,,107,amanida,Catalan,Sounds/cat_amanida.mp3,2020-06-19_10h41.53.182,TranslationElicitation_spa,3.2.4,Win32,60,55nvwehvwoepvho2ph29vhjf3,,1,0,80,3,1,79
,,,,,,,,,,,,,,,,,,,,,,,,,,,,,,,,,,,i,6.880999804,ABANI,TRUE,,,,,,,107,amanida,Catalan,Sounds/cat_amanida.mp3,2020-06-19_10h41.53.182,TranslationElicitation_spa,3.2.4,Win32,60,55nvwehvwoepvho2ph29vhjf3,,1,0,80,3,1,79
,,,,,,,,,,,,,,,,,,,,,,,,,,,,,,,,,,,c,6.980999947,ABANIC,TRUE,,,,,,,107,amanida,Catalan,Sounds/cat_amanida.mp3,2020-06-19_10h41.53.182,TranslationElicitation_spa,3.2.4,Win32,60,55nvwehvwoepvho2ph29vhjf3,,1,0,80,3,1,79
,,,,,,,,,,,,,,,,,,,,,,,,,,,,,,,,,,,o,7.146999836,ABANICO,TRUE,,,,,,,107,amanida,Catalan,Sounds/cat_amanida.mp3,2020-06-19_10h41.53.182,TranslationElicitation_spa,3.2.4,Win32,60,55nvwehvwoepvho2ph29vhjf3,,1,0,80,3,1,79
,,,,,,,,,,,,,,,,,,,,,,,,,,,,,,,,,,,return,7.569999933,,TRUE,,,,,,,107,amanida,Catalan,Sounds/cat_amanida.mp3,2020-06-19_10h41.53.182,TranslationElicitation_spa,3.2.4,Win32,60,55nvwehvwoepvho2ph29vhjf3,7.569000006,1,0,80,3,1,79
,,,,,,,,,,,,,,,,,,,,,,,,,,,,,,,,,,,,,,,,,,,,,107,amanida,Catalan,Sounds/cat_amanida.mp3,2020-06-19_10h41.53.182,TranslationElicitation_spa,3.2.4,Win32,60,55nvwehvwoepvho2ph29vhjf3,,1,0,80,3,1,79
,,,,,,,,,,,,,,,,,,,,,,,,,,,,,,,,,,,o,3.378000021,O,FALSE,,,,,,,150,lloro,Catalan,Sounds/cat_lloro.mp3,2020-06-19_10h41.53.182,TranslationElicitation_spa,3.2.4,Win32,60,55nvwehvwoepvho2ph29vhjf3,,1,0,80,44,1,79
,,,,,,,,,,,,,,,,,,,,,,,,,,,,,,,,,,,r,3.495000124,OR,FALSE,,,,,,,150,lloro,Catalan,Sounds/cat_lloro.mp3,2020-06-19_10h41.53.182,TranslationElicitation_spa,3.2.4,Win32,60,55nvwehvwoepvho2ph29vhjf3,,1,0,80,44,1,79
,,,,,,,,,,,,,,,,,,,,,,,,,,,,,,,,,,,o,3.562000036,ORO,FALSE,,,,,,,150,lloro,Catalan,Sounds/cat_lloro.mp3,2020-06-19_10h41.53.182,TranslationElicitation_spa,3.2.4,Win32,60,55nvwehvwoepvho2ph29vhjf3,,1,0,80,44,1,79
,,,,,,,,,,,,,,,,,,,,,,,,,,,,,,,,,,,return,3.913000107,,FALSE,,,,,,,150,lloro,Catalan,Sounds/cat_lloro.mp3,2020-06-19_10h41.53.182,TranslationElicitation_spa,3.2.4,Win32,60,55nvwehvwoepvho2ph29vhjf3,3.913000107,1,0,80,44,1,79
,,,,,,,,,,,,,,,,,,,,,,,,,,,,,,,,,,,,,,,,,,,,,150,lloro,Catalan,Sounds/cat_lloro.mp3,2020-06-19_10h41.53.182,TranslationElicitation_spa,3.2.4,Win32,60,55nvwehvwoepvho2ph29vhjf3,,1,0,80,44,1,79
,,,,,,,,,,,,,,,,,,,,,,,,,,,,,,,,,,,g,2.330000162,G,FALSE,,,,,,,142,girafa,Catalan,Sounds/cat_girafa.mp3,2020-06-19_10h41.53.182,TranslationElicitation_spa,3.2.4,Win32,60,55nvwehvwoepvho2ph29vhjf3,,1,0,80,37,1,79
,,,,,,,,,,,,,,,,,,,,,,,,,,,,,,,,,,,i,2.448000193,GI,FALSE,,,,,,,142,girafa,Catalan,Sounds/cat_girafa.mp3,2020-06-19_10h41.53.182,TranslationElicitation_spa,3.2.4,Win32,60,55nvwehvwoepvho2ph29vhjf3,,1,0,80,37,1,79
,,,,,,,,,,,,,,,,,,,,,,,,,,,,,,,,,,,r,2.914999962,GIR,FALSE,,,,,,,142,girafa,Catalan,Sounds/cat_girafa.mp3,2020-06-19_10h41.53.182,TranslationElicitation_spa,3.2.4,Win32,60,55nvwehvwoepvho2ph29vhjf3,,1,0,80,37,1,79
,,,,,,,,,,,,,,,,,,,,,,,,,,,,,,,,,,,a,3.180000067,GIRA,FALSE,,,,,,,142,girafa,Catalan,Sounds/cat_girafa.mp3,2020-06-19_10h41.53.182,TranslationElicitation_spa,3.2.4,Win32,60,55nvwehvwoepvho2ph29vhjf3,,1,0,80,37,1,79
,,,,,,,,,,,,,,,,,,,,,,,,,,,,,,,,,,,f,3.364000082,GIRAF,FALSE,,,,,,,142,girafa,Catalan,Sounds/cat_girafa.mp3,2020-06-19_10h41.53.182,TranslationElicitation_spa,3.2.4,Win32,60,55nvwehvwoepvho2ph29vhjf3,,1,0,80,37,1,79
,,,,,,,,,,,,,,,,,,,,,,,,,,,,,,,,,,,a,3.580000162,GIRAFA,FALSE,,,,,,,142,girafa,Catalan,Sounds/cat_girafa.mp3,2020-06-19_10h41.53.182,TranslationElicitation_spa,3.2.4,Win32,60,55nvwehvwoepvho2ph29vhjf3,,1,0,80,37,1,79
,,,,,,,,,,,,,,,,,,,,,,,,,,,,,,,,,,,backspace,6.269000053,GIRA,TRUE,,,,,,,142,girafa,Catalan,Sounds/cat_girafa.mp3,2020-06-19_10h41.53.182,TranslationElicitation_spa,3.2.4,Win32,60,55nvwehvwoepvho2ph29vhjf3,,1,0,80,37,1,79
,,,,,,,,,,,,,,,,,,,,,,,,,,,,,,,,,,,backspace,6.448000193,GI,TRUE,,,,,,,142,girafa,Catalan,Sounds/cat_girafa.mp3,2020-06-19_10h41.53.182,TranslationElicitation_spa,3.2.4,Win32,60,55nvwehvwoepvho2ph29vhjf3,,1,0,80,37,1,79
,,,,,,,,,,,,,,,,,,,,,,,,,,,,,,,,,,,backspace,6.613000154,,TRUE,,,,,,,142,girafa,Catalan,Sounds/cat_girafa.mp3,2020-06-19_10h41.53.182,TranslationElicitation_spa,3.2.4,Win32,60,55nvwehvwoepvho2ph29vhjf3,,1,0,80,37,1,79
,,,,,,,,,,,,,,,,,,,,,,,,,,,,,,,,,,,backspace,6.764000177,,TRUE,,,,,,,142,girafa,Catalan,Sounds/cat_girafa.mp3,2020-06-19_10h41.53.182,TranslationElicitation_spa,3.2.4,Win32,60,55nvwehvwoepvho2ph29vhjf3,,1,0,80,37,1,79
,,,,,,,,,,,,,,,,,,,,,,,,,,,,,,,,,,,j,7.263000011,J,TRUE,,,,,,,142,girafa,Catalan,Sounds/cat_girafa.mp3,2020-06-19_10h41.53.182,TranslationElicitation_spa,3.2.4,Win32,60,55nvwehvwoepvho2ph29vhjf3,,1,0,80,37,1,79
,,,,,,,,,,,,,,,,,,,,,,,,,,,,,,,,,,,i,7.562999964,JI,TRUE,,,,,,,142,girafa,Catalan,Sounds/cat_girafa.mp3,2020-06-19_10h41.53.182,TranslationElicitation_spa,3.2.4,Win32,60,55nvwehvwoepvho2ph29vhjf3,,1,0,80,37,1,79
,,,,,,,,,,,,,,,,,,,,,,,,,,,,,,,,,,,r,7.680000067,JIR,TRUE,,,,,,,142,girafa,Catalan,Sounds/cat_girafa.mp3,2020-06-19_10h41.53.182,TranslationElicitation_spa,3.2.4,Win32,60,55nvwehvwoepvho2ph29vhjf3,,1,0,80,37,1,79
,,,,,,,,,,,,,,,,,,,,,,,,,,,,,,,,,,,a,7.881000042,JIRA,TRUE,,,,,,,142,girafa,Catalan,Sounds/cat_girafa.mp3,2020-06-19_10h41.53.182,TranslationElicitation_spa,3.2.4,Win32,60,55nvwehvwoepvho2ph29vhjf3,,1,0,80,37,1,79
,,,,,,,,,,,,,,,,,,,,,,,,,,,,,,,,,,,f,8.048000097,JIRAF,TRUE,,,,,,,142,girafa,Catalan,Sounds/cat_girafa.mp3,2020-06-19_10h41.53.182,TranslationElicitation_spa,3.2.4,Win32,60,55nvwehvwoepvho2ph29vhjf3,,1,0,80,37,1,79
,,,,,,,,,,,,,,,,,,,,,,,,,,,,,,,,,,,a,8.246999979,JIRAFA,TRUE,,,,,,,142,girafa,Catalan,Sounds/cat_girafa.mp3,2020-06-19_10h41.53.182,TranslationElicitation_spa,3.2.4,Win32,60,55nvwehvwoepvho2ph29vhjf3,,1,0,80,37,1,79
,,,,,,,,,,,,,,,,,,,,,,,,,,,,,,,,,,,return,17.079,,TRUE,,,,,,,142,girafa,Catalan,Sounds/cat_girafa.mp3,2020-06-19_10h41.53.182,TranslationElicitation_spa,3.2.4,Win32,60,55nvwehvwoepvho2ph29vhjf3,17.079,1,0,80,37,1,79
,,,,,,,,,,,,,,,,,,,,,,,,,,,,,,,,,,,,,,,,,,,,,142,girafa,Catalan,Sounds/cat_girafa.mp3,2020-06-19_10h41.53.182,TranslationElicitation_spa,3.2.4,Win32,60,55nvwehvwoepvho2ph29vhjf3,,1,0,80,37,1,79
,,,,,,,,,,,,,,,,,,,,,,,,,,,,,,,,,,,a,1.762000084,A,FALSE,,,,,,,104,abella,Catalan,Sounds/cat_abella.mp3,2020-06-19_10h41.53.182,TranslationElicitation_spa,3.2.4,Win32,60,55nvwehvwoepvho2ph29vhjf3,,1,0,80,0,1,79
,,,,,,,,,,,,,,,,,,,,,,,,,,,,,,,,,,,v,1.894999981,AV,FALSE,,,,,,,104,abella,Catalan,Sounds/cat_abella.mp3,2020-06-19_10h41.53.182,TranslationElicitation_spa,3.2.4,Win32,60,55nvwehvwoepvho2ph29vhjf3,,1,0,80,0,1,79
,,,,,,,,,,,,,,,,,,,,,,,,,,,,,,,,,,,e,2.212000132,AVE,FALSE,,,,,,,104,abella,Catalan,Sounds/cat_abella.mp3,2020-06-19_10h41.53.182,TranslationElicitation_spa,3.2.4,Win32,60,55nvwehvwoepvho2ph29vhjf3,,1,0,80,0,1,79
,,,,,,,,,,,,,,,,,,,,,,,,,,,,,,,,,,,backspace,4.196000099,A,TRUE,,,,,,,104,abella,Catalan,Sounds/cat_abella.mp3,2020-06-19_10h41.53.182,TranslationElicitation_spa,3.2.4,Win32,60,55nvwehvwoepvho2ph29vhjf3,,1,0,80,0,1,79
,,,,,,,,,,,,,,,,,,,,,,,,,,,,,,,,,,,backspace,4.480999947,,TRUE,,,,,,,104,abella,Catalan,Sounds/cat_abella.mp3,2020-06-19_10h41.53.182,TranslationElicitation_spa,3.2.4,Win32,60,55nvwehvwoepvho2ph29vhjf3,,1,0,80,0,1,79
,,,,,,,,,,,,,,,,,,,,,,,,,,,,,,,,,,,a,4.979000092,A,TRUE,,,,,,,104,abella,Catalan,Sounds/cat_abella.mp3,2020-06-19_10h41.53.182,TranslationElicitation_spa,3.2.4,Win32,60,55nvwehvwoepvho2ph29vhjf3,,1,0,80,0,1,79
,,,,,,,,,,,,,,,,,,,,,,,,,,,,,,,,,,,b,5.111999989,AB,TRUE,,,,,,,104,abella,Catalan,Sounds/cat_abella.mp3,2020-06-19_10h41.53.182,TranslationElicitation_spa,3.2.4,Win32,60,55nvwehvwoepvho2ph29vhjf3,,1,0,80,0,1,79
,,,,,,,,,,,,,,,,,,,,,,,,,,,,,,,,,,,u,5.345000029,ABU,TRUE,,,,,,,104,abella,Catalan,Sounds/cat_abella.mp3,2020-06-19_10h41.53.182,TranslationElicitation_spa,3.2.4,Win32,60,55nvwehvwoepvho2ph29vhjf3,,1,0,80,0,1,79
,,,,,,,,,,,,,,,,,,,,,,,,,,,,,,,,,,,e,5.413000107,ABUE,TRUE,,,,,,,104,abella,Catalan,Sounds/cat_abella.mp3,2020-06-19_10h41.53.182,TranslationElicitation_spa,3.2.4,Win32,60,55nvwehvwoepvho2ph29vhjf3,,1,0,80,0,1,79
,,,,,,,,,,,,,,,,,,,,,,,,,,,,,,,,,,,l,5.611000061,ABUEL,TRUE,,,,,,,104,abella,Catalan,Sounds/cat_abella.mp3,2020-06-19_10h41.53.182,TranslationElicitation_spa,3.2.4,Win32,60,55nvwehvwoepvho2ph29vhjf3,,1,0,80,0,1,79
,,,,,,,,,,,,,,,,,,,,,,,,,,,,,,,,,,,a,5.728000164,ABUELA,TRUE,,,,,,,104,abella,Catalan,Sounds/cat_abella.mp3,2020-06-19_10h41.53.182,TranslationElicitation_spa,3.2.4,Win32,60,55nvwehvwoepvho2ph29vhjf3,,1,0,80,0,1,79
,,,,,,,,,,,,,,,,,,,,,,,,,,,,,,,,,,,return,5.993999958,,TRUE,,,,,,,104,abella,Catalan,Sounds/cat_abella.mp3,2020-06-19_10h41.53.182,TranslationElicitation_spa,3.2.4,Win32,60,55nvwehvwoepvho2ph29vhjf3,5.993999958,1,0,80,0,1,79
,,,,,,,,,,,,,,,,,,,,,,,,,,,,,,,,,,,,,,,,,,,,,104,abella,Catalan,Sounds/cat_abella.mp3,2020-06-19_10h41.53.182,TranslationElicitation_spa,3.2.4,Win32,60,55nvwehvwoepvho2ph29vhjf3,,1,0,80,0,1,79
,,,,,,,,,,,,,,,,,,,,,,,,,,,,,,,,,,,p,1.720000029,P,FALSE,,,,,,,169,plat,Catalan,Sounds/cat_plat.mp3,2020-06-19_10h41.53.182,TranslationElicitation_spa,3.2.4,Win32,60,55nvwehvwoepvho2ph29vhjf3,,1,0,80,61,1,79
,,,,,,,,,,,,,,,,,,,,,,,,,,,,,,,,,,,l,1.931999922,PL,FALSE,,,,,,,169,plat,Catalan,Sounds/cat_plat.mp3,2020-06-19_10h41.53.182,TranslationElicitation_spa,3.2.4,Win32,60,55nvwehvwoepvho2ph29vhjf3,,1,0,80,61,1,79
,,,,,,,,,,,,,,,,,,,,,,,,,,,,,,,,,,,a,2.016000032,PLA,FALSE,,,,,,,169,plat,Catalan,Sounds/cat_plat.mp3,2020-06-19_10h41.53.182,TranslationElicitation_spa,3.2.4,Win32,60,55nvwehvwoepvho2ph29vhjf3,,1,0,80,61,1,79
,,,,,,,,,,,,,,,,,,,,,,,,,,,,,,,,,,,t,2.768000126,PLAT,FALSE,,,,,,,169,plat,Catalan,Sounds/cat_plat.mp3,2020-06-19_10h41.53.182,TranslationElicitation_spa,3.2.4,Win32,60,55nvwehvwoepvho2ph29vhjf3,,1,0,80,61,1,79
,,,,,,,,,,,,,,,,,,,,,,,,,,,,,,,,,,,o,2.898000002,PLATO,FALSE,,,,,,,169,plat,Catalan,Sounds/cat_plat.mp3,2020-06-19_10h41.53.182,TranslationElicitation_spa,3.2.4,Win32,60,55nvwehvwoepvho2ph29vhjf3,,1,0,80,61,1,79
,,,,,,,,,,,,,,,,,,,,,,,,,,,,,,,,,,,backspace,3.450000048,PLA,TRUE,,,,,,,169,plat,Catalan,Sounds/cat_plat.mp3,2020-06-19_10h41.53.182,TranslationElicitation_spa,3.2.4,Win32,60,55nvwehvwoepvho2ph29vhjf3,,1,0,80,61,1,79
,,,,,,,,,,,,,,,,,,,,,,,,,,,,,,,,,,,backspace,3.714999914,P,TRUE,,,,,,,169,plat,Catalan,Sounds/cat_plat.mp3,2020-06-19_10h41.53.182,TranslationElicitation_spa,3.2.4,Win32,60,55nvwehvwoepvho2ph29vhjf3,,1,0,80,61,1,79
,,,,,,,,,,,,,,,,,,,,,,,,,,,,,,,,,,,l,5.58100009,PL,TRUE,,,,,,,169,plat,Catalan,Sounds/cat_plat.mp3,2020-06-19_10h41.53.182,TranslationElicitation_spa,3.2.4,Win32,60,55nvwehvwoepvho2ph29vhjf3,,1,0,80,61,1,79
,,,,,,,,,,,,,,,,,,,,,,,,,,,,,,,,,,,a,5.664000034,PLA,TRUE,,,,,,,169,plat,Catalan,Sounds/cat_plat.mp3,2020-06-19_10h41.53.182,TranslationElicitation_spa,3.2.4,Win32,60,55nvwehvwoepvho2ph29vhjf3,,1,0,80,61,1,79
,,,,,,,,,,,,,,,,,,,,,,,,,,,,,,,,,,,y,5.881000042,PLAY,TRUE,,,,,,,169,plat,Catalan,Sounds/cat_plat.mp3,2020-06-19_10h41.53.182,TranslationElicitation_spa,3.2.4,Win32,60,55nvwehvwoepvho2ph29vhjf3,,1,0,80,61,1,79
,,,,,,,,,,,,,,,,,,,,,,,,,,,,,,,,,,,a,5.947000027,PLAYA,TRUE,,,,,,,169,plat,Catalan,Sounds/cat_plat.mp3,2020-06-19_10h41.53.182,TranslationElicitation_spa,3.2.4,Win32,60,55nvwehvwoepvho2ph29vhjf3,,1,0,80,61,1,79
,,,,,,,,,,,,,,,,,,,,,,,,,,,,,,,,,,,return,6.230999947,,TRUE,,,,,,,169,plat,Catalan,Sounds/cat_plat.mp3,2020-06-19_10h41.53.182,TranslationElicitation_spa,3.2.4,Win32,60,55nvwehvwoepvho2ph29vhjf3,6.230999947,1,0,80,61,1,79
,,,,,,,,,,,,,,,,,,,,,,,,,,,,,,,,,,,,,,,,,,,,,169,plat,Catalan,Sounds/cat_plat.mp3,2020-06-19_10h41.53.182,TranslationElicitation_spa,3.2.4,Win32,60,55nvwehvwoepvho2ph29vhjf3,,1,0,80,61,1,79
,,,,,,,,,,,,,,,,,,,,,,,,,,,,,,,,,,,p,2.578999996,P,FALSE,,,,,,,171,pollastre,Catalan,Sounds/cat_pollastre.mp3,2020-06-19_10h41.53.182,TranslationElicitation_spa,3.2.4,Win32,60,55nvwehvwoepvho2ph29vhjf3,,1,0,80,63,1,79
,,,,,,,,,,,,,,,,,,,,,,,,,,,,,,,,,,,o,2.946000099,PO,FALSE,,,,,,,171,pollastre,Catalan,Sounds/cat_pollastre.mp3,2020-06-19_10h41.53.182,TranslationElicitation_spa,3.2.4,Win32,60,55nvwehvwoepvho2ph29vhjf3,,1,0,80,63,1,79
,,,,,,,,,,,,,,,,,,,,,,,,,,,,,,,,,,,l,3.146000147,POL,FALSE,,,,,,,171,pollastre,Catalan,Sounds/cat_pollastre.mp3,2020-06-19_10h41.53.182,TranslationElicitation_spa,3.2.4,Win32,60,55nvwehvwoepvho2ph29vhjf3,,1,0,80,63,1,79
,,,,,,,,,,,,,,,,,,,,,,,,,,,,,,,,,,,l,3.265000105,POLL,FALSE,,,,,,,171,pollastre,Catalan,Sounds/cat_pollastre.mp3,2020-06-19_10h41.53.182,TranslationElicitation_spa,3.2.4,Win32,60,55nvwehvwoepvho2ph29vhjf3,,1,0,80,63,1,79
,,,,,,,,,,,,,,,,,,,,,,,,,,,,,,,,,,,o,3.45600009,POLLO,FALSE,,,,,,,171,pollastre,Catalan,Sounds/cat_pollastre.mp3,2020-06-19_10h41.53.182,TranslationElicitation_spa,3.2.4,Win32,60,55nvwehvwoepvho2ph29vhjf3,,1,0,80,63,1,79
,,,,,,,,,,,,,,,,,,,,,,,,,,,,,,,,,,,return,3.745000124,,FALSE,,,,,,,171,pollastre,Catalan,Sounds/cat_pollastre.mp3,2020-06-19_10h41.53.182,TranslationElicitation_spa,3.2.4,Win32,60,55nvwehvwoepvho2ph29vhjf3,3.745000124,1,0,80,63,1,79
,,,,,,,,,,,,,,,,,,,,,,,,,,,,,,,,,,,,,,,,,,,,,171,pollastre,Catalan,Sounds/cat_pollastre.mp3,2020-06-19_10h41.53.182,TranslationElicitation_spa,3.2.4,Win32,60,55nvwehvwoepvho2ph29vhjf3,,1,0,80,63,1,79
,,,,,,,,,,,,,,,,,,,,,,,,,,,,,,,,,,,c,2.43200016,C,FALSE,,,,,,,176,samarreta,Catalan,Sounds/cat_samarreta.mp3,2020-06-19_10h41.53.182,TranslationElicitation_spa,3.2.4,Win32,60,55nvwehvwoepvho2ph29vhjf3,,1,0,80,68,1,79
,,,,,,,,,,,,,,,,,,,,,,,,,,,,,,,,,,,h,2.697999954,CH,FALSE,,,,,,,176,samarreta,Catalan,Sounds/cat_samarreta.mp3,2020-06-19_10h41.53.182,TranslationElicitation_spa,3.2.4,Win32,60,55nvwehvwoepvho2ph29vhjf3,,1,0,80,68,1,79
,,,,,,,,,,,,,,,,,,,,,,,,,,,,,,,,,,,a,2.782000065,CHA,FALSE,,,,,,,176,samarreta,Catalan,Sounds/cat_samarreta.mp3,2020-06-19_10h41.53.182,TranslationElicitation_spa,3.2.4,Win32,60,55nvwehvwoepvho2ph29vhjf3,,1,0,80,68,1,79
,,,,,,,,,,,,,,,,,,,,,,,,,,,,,,,,,,,q,3.015000105,CHAQ,FALSE,,,,,,,176,samarreta,Catalan,Sounds/cat_samarreta.mp3,2020-06-19_10h41.53.182,TranslationElicitation_spa,3.2.4,Win32,60,55nvwehvwoepvho2ph29vhjf3,,1,0,80,68,1,79
,,,,,,,,,,,,,,,,,,,,,,,,,,,,,,,,,,,u,3.215000153,CHAQU,FALSE,,,,,,,176,samarreta,Catalan,Sounds/cat_samarreta.mp3,2020-06-19_10h41.53.182,TranslationElicitation_spa,3.2.4,Win32,60,55nvwehvwoepvho2ph29vhjf3,,1,0,80,68,1,79
,,,,,,,,,,,,,,,,,,,,,,,,,,,,,,,,,,,e,3.332000017,CHAQUE,FALSE,,,,,,,176,samarreta,Catalan,Sounds/cat_samarreta.mp3,2020-06-19_10h41.53.182,TranslationElicitation_spa,3.2.4,Win32,60,55nvwehvwoepvho2ph29vhjf3,,1,0,80,68,1,79
,,,,,,,,,,,,,,,,,,,,,,,,,,,,,,,,,,,t,3.483999968,CHAQUET,FALSE,,,,,,,176,samarreta,Catalan,Sounds/cat_samarreta.mp3,2020-06-19_10h41.53.182,TranslationElicitation_spa,3.2.4,Win32,60,55nvwehvwoepvho2ph29vhjf3,,1,0,80,68,1,79
,,,,,,,,,,,,,,,,,,,,,,,,,,,,,,,,,,,t,3.59800005,CHAQUETT,FALSE,,,,,,,176,samarreta,Catalan,Sounds/cat_samarreta.mp3,2020-06-19_10h41.53.182,TranslationElicitation_spa,3.2.4,Win32,60,55nvwehvwoepvho2ph29vhjf3,,1,0,80,68,1,79
,,,,,,,,,,,,,,,,,,,,,,,,,,,,,,,,,,,a,3.697999954,CHAQUETTA,FALSE,,,,,,,176,samarreta,Catalan,Sounds/cat_samarreta.mp3,2020-06-19_10h41.53.182,TranslationElicitation_spa,3.2.4,Win32,60,55nvwehvwoepvho2ph29vhjf3,,1,0,80,68,1,79
,,,,,,,,,,,,,,,,,,,,,,,,,,,,,,,,,,,backspace,4.217000008,CHAQUET,TRUE,,,,,,,176,samarreta,Catalan,Sounds/cat_samarreta.mp3,2020-06-19_10h41.53.182,TranslationElicitation_spa,3.2.4,Win32,60,55nvwehvwoepvho2ph29vhjf3,,1,0,80,68,1,79
,,,,,,,,,,,,,,,,,,,,,,,,,,,,,,,,,,,backspace,4.43200016,CHAQU,TRUE,,,,,,,176,samarreta,Catalan,Sounds/cat_samarreta.mp3,2020-06-19_10h41.53.182,TranslationElicitation_spa,3.2.4,Win32,60,55nvwehvwoepvho2ph29vhjf3,,1,0,80,68,1,79
,,,,,,,,,,,,,,,,,,,,,,,,,,,,,,,,,,,a,4.531000137,CHAQUA,TRUE,,,,,,,176,samarreta,Catalan,Sounds/cat_samarreta.mp3,2020-06-19_10h41.53.182,TranslationElicitation_spa,3.2.4,Win32,60,55nvwehvwoepvho2ph29vhjf3,,1,0,80,68,1,79
,,,,,,,,,,,,,,,,,,,,,,,,,,,,,,,,,,,backspace,4.96600008,CHAQ,TRUE,,,,,,,176,samarreta,Catalan,Sounds/cat_samarreta.mp3,2020-06-19_10h41.53.182,TranslationElicitation_spa,3.2.4,Win32,60,55nvwehvwoepvho2ph29vhjf3,,1,0,80,68,1,79
,,,,,,,,,,,,,,,,,,,,,,,,,,,,,,,,,,,u,5.96600008,CHAQU,TRUE,,,,,,,176,samarreta,Catalan,Sounds/cat_samarreta.mp3,2020-06-19_10h41.53.182,TranslationElicitation_spa,3.2.4,Win32,60,55nvwehvwoepvho2ph29vhjf3,,1,0,80,68,1,79
,,,,,,,,,,,,,,,,,,,,,,,,,,,,,,,,,,,e,6.088999987,CHAQUE,TRUE,,,,,,,176,samarreta,Catalan,Sounds/cat_samarreta.mp3,2020-06-19_10h41.53.182,TranslationElicitation_spa,3.2.4,Win32,60,55nvwehvwoepvho2ph29vhjf3,,1,0,80,68,1,79
,,,,,,,,,,,,,,,,,,,,,,,,,,,,,,,,,,,t,6.230999947,CHAQUET,TRUE,,,,,,,176,samarreta,Catalan,Sounds/cat_samarreta.mp3,2020-06-19_10h41.53.182,TranslationElicitation_spa,3.2.4,Win32,60,55nvwehvwoepvho2ph29vhjf3,,1,0,80,68,1,79
,,,,,,,,,,,,,,,,,,,,,,,,,,,,,,,,,,,a,6.34800005,CHAQUETA,TRUE,,,,,,,176,samarreta,Catalan,Sounds/cat_samarreta.mp3,2020-06-19_10h41.53.182,TranslationElicitation_spa,3.2.4,Win32,60,55nvwehvwoepvho2ph29vhjf3,,1,0,80,68,1,79
,,,,,,,,,,,,,,,,,,,,,,,,,,,,,,,,,,,return,6.617000103,,TRUE,,,,,,,176,samarreta,Catalan,Sounds/cat_samarreta.mp3,2020-06-19_10h41.53.182,TranslationElicitation_spa,3.2.4,Win32,60,55nvwehvwoepvho2ph29vhjf3,6.617000103,1,0,80,68,1,79
,,,,,,,,,,,,,,,,,,,,,,,,,,,,,,,,,,,,,,,,,,,,,176,samarreta,Catalan,Sounds/cat_samarreta.mp3,2020-06-19_10h41.53.182,TranslationElicitation_spa,3.2.4,Win32,60,55nvwehvwoepvho2ph29vhjf3,,1,0,80,68,1,79
,,,,,,,,,,,,,,,,,,,,,,,,,,,,,,,,,,,b,3.729000092,B,FALSE,,,,,,,118,bou,Catalan,Sounds/cat_bou.mp3,2020-06-19_10h41.53.182,TranslationElicitation_spa,3.2.4,Win32,60,55nvwehvwoepvho2ph29vhjf3,,1,0,80,13,1,79
,,,,,,,,,,,,,,,,,,,,,,,,,,,,,,,,,,,p,4.677999973,BP,FALSE,,,,,,,118,bou,Catalan,Sounds/cat_bou.mp3,2020-06-19_10h41.53.182,TranslationElicitation_spa,3.2.4,Win32,60,55nvwehvwoepvho2ph29vhjf3,,1,0,80,13,1,79
,,,,,,,,,,,,,,,,,,,,,,,,,,,,,,,,,,,backspace,5.246000051,,TRUE,,,,,,,118,bou,Catalan,Sounds/cat_bou.mp3,2020-06-19_10h41.53.182,TranslationElicitation_spa,3.2.4,Win32,60,55nvwehvwoepvho2ph29vhjf3,,1,0,80,13,1,79
,,,,,,,,,,,,,,,,,,,,,,,,,,,,,,,,,,,b,6.295000076,B,TRUE,,,,,,,118,bou,Catalan,Sounds/cat_bou.mp3,2020-06-19_10h41.53.182,TranslationElicitation_spa,3.2.4,Win32,60,55nvwehvwoepvho2ph29vhjf3,,1,0,80,13,1,79
,,,,,,,,,,,,,,,,,,,,,,,,,,,,,,,,,,,o,6.411000013,BO,TRUE,,,,,,,118,bou,Catalan,Sounds/cat_bou.mp3,2020-06-19_10h41.53.182,TranslationElicitation_spa,3.2.4,Win32,60,55nvwehvwoepvho2ph29vhjf3,,1,0,80,13,1,79
,,,,,,,,,,,,,,,,,,,,,,,,,,,,,,,,,,,l,6.578000069,BOL,TRUE,,,,,,,118,bou,Catalan,Sounds/cat_bou.mp3,2020-06-19_10h41.53.182,TranslationElicitation_spa,3.2.4,Win32,60,55nvwehvwoepvho2ph29vhjf3,,1,0,80,13,1,79
,,,,,,,,,,,,,,,,,,,,,,,,,,,,,,,,,,,s,6.644999981,BOLS,TRUE,,,,,,,118,bou,Catalan,Sounds/cat_bou.mp3,2020-06-19_10h41.53.182,TranslationElicitation_spa,3.2.4,Win32,60,55nvwehvwoepvho2ph29vhjf3,,1,0,80,13,1,79
,,,,,,,,,,,,,,,,,,,,,,,,,,,,,,,,,,,o,6.795000076,BOLSO,TRUE,,,,,,,118,bou,Catalan,Sounds/cat_bou.mp3,2020-06-19_10h41.53.182,TranslationElicitation_spa,3.2.4,Win32,60,55nvwehvwoepvho2ph29vhjf3,,1,0,80,13,1,79
,,,,,,,,,,,,,,,,,,,,,,,,,,,,,,,,,,,return,7.111000061,,TRUE,,,,,,,118,bou,Catalan,Sounds/cat_bou.mp3,2020-06-19_10h41.53.182,TranslationElicitation_spa,3.2.4,Win32,60,55nvwehvwoepvho2ph29vhjf3,7.111000061,1,0,80,13,1,79
,,,,,,,,,,,,,,,,,,,,,,,,,,,,,,,,,,,,,,,,,,,,,118,bou,Catalan,Sounds/cat_bou.mp3,2020-06-19_10h41.53.182,TranslationElicitation_spa,3.2.4,Win32,60,55nvwehvwoepvho2ph29vhjf3,,1,0,80,13,1,79
,,,,,,,,,,,,,,,,,,,,,,,,,,,,,,,,,,,t,4.432999849,T,FALSE,,,,,,,130,entrepa,Catalan,Sounds/cat_entrepa.mp3,2020-06-19_10h41.53.182,TranslationElicitation_spa,3.2.4,Win32,60,55nvwehvwoepvho2ph29vhjf3,,1,0,80,25,1,79
,,,,,,,,,,,,,,,,,,,,,,,,,,,,,,,,,,,r,4.630999804,TR,FALSE,,,,,,,130,entrepa,Catalan,Sounds/cat_entrepa.mp3,2020-06-19_10h41.53.182,TranslationElicitation_spa,3.2.4,Win32,60,55nvwehvwoepvho2ph29vhjf3,,1,0,80,25,1,79
,,,,,,,,,,,,,,,,,,,,,,,,,,,,,,,,,,,a,4.896999836,TRA,FALSE,,,,,,,130,entrepa,Catalan,Sounds/cat_entrepa.mp3,2020-06-19_10h41.53.182,TranslationElicitation_spa,3.2.4,Win32,60,55nvwehvwoepvho2ph29vhjf3,,1,0,80,25,1,79
,,,,,,,,,,,,,,,,,,,,,,,,,,,,,,,,,,,p,4.996999979,TRAP,FALSE,,,,,,,130,entrepa,Catalan,Sounds/cat_entrepa.mp3,2020-06-19_10h41.53.182,TranslationElicitation_spa,3.2.4,Win32,60,55nvwehvwoepvho2ph29vhjf3,,1,0,80,25,1,79
,,,,,,,,,,,,,,,,,,,,,,,,,,,,,,,,,,,o,5.496999979,TRAPO,FALSE,,,,,,,130,entrepa,Catalan,Sounds/cat_entrepa.mp3,2020-06-19_10h41.53.182,TranslationElicitation_spa,3.2.4,Win32,60,55nvwehvwoepvho2ph29vhjf3,,1,0,80,25,1,79
,,,,,,,,,,,,,,,,,,,,,,,,,,,,,,,,,,,return,6.030999899,,FALSE,,,,,,,130,entrepa,Catalan,Sounds/cat_entrepa.mp3,2020-06-19_10h41.53.182,TranslationElicitation_spa,3.2.4,Win32,60,55nvwehvwoepvho2ph29vhjf3,6.030999899,1,0,80,25,1,79
,,,,,,,,,,,,,,,,,,,,,,,,,,,,,,,,,,,,,,,,,,,,,130,entrepa,Catalan,Sounds/cat_entrepa.mp3,2020-06-19_10h41.53.182,TranslationElicitation_spa,3.2.4,Win32,60,55nvwehvwoepvho2ph29vhjf3,,1,0,80,25,1,79
,,,,,,,,,,,,,,,,,,,,,,,,,,,,,,,,,,,m,2.396999836,M,FALSE,,,,,,,154,mirall,Catalan,Sounds/cat_mirall.mp3,2020-06-19_10h41.53.182,TranslationElicitation_spa,3.2.4,Win32,60,55nvwehvwoepvho2ph29vhjf3,,1,0,80,48,1,79
,,,,,,,,,,,,,,,,,,,,,,,,,,,,,,,,,,,i,2.646999836,MI,FALSE,,,,,,,154,mirall,Catalan,Sounds/cat_mirall.mp3,2020-06-19_10h41.53.182,TranslationElicitation_spa,3.2.4,Win32,60,55nvwehvwoepvho2ph29vhjf3,,1,0,80,48,1,79
,,,,,,,,,,,,,,,,,,,,,,,,,,,,,,,,,,,r,2.86500001,MIR,FALSE,,,,,,,154,mirall,Catalan,Sounds/cat_mirall.mp3,2020-06-19_10h41.53.182,TranslationElicitation_spa,3.2.4,Win32,60,55nvwehvwoepvho2ph29vhjf3,,1,0,80,48,1,79
,,,,,,,,,,,,,,,,,,,,,,,,,,,,,,,,,,,a,3.112999916,MIRA,FALSE,,,,,,,154,mirall,Catalan,Sounds/cat_mirall.mp3,2020-06-19_10h41.53.182,TranslationElicitation_spa,3.2.4,Win32,60,55nvwehvwoepvho2ph29vhjf3,,1,0,80,48,1,79
,,,,,,,,,,,,,,,,,,,,,,,,,,,,,,,,,,,d,3.248999834,MIRAD,FALSE,,,,,,,154,mirall,Catalan,Sounds/cat_mirall.mp3,2020-06-19_10h41.53.182,TranslationElicitation_spa,3.2.4,Win32,60,55nvwehvwoepvho2ph29vhjf3,,1,0,80,48,1,79
,,,,,,,,,,,,,,,,,,,,,,,,,,,,,,,,,,,a,3.430999994,MIRADA,FALSE,,,,,,,154,mirall,Catalan,Sounds/cat_mirall.mp3,2020-06-19_10h41.53.182,TranslationElicitation_spa,3.2.4,Win32,60,55nvwehvwoepvho2ph29vhjf3,,1,0,80,48,1,79
,,,,,,,,,,,,,,,,,,,,,,,,,,,,,,,,,,,return,3.582000017,,FALSE,,,,,,,154,mirall,Catalan,Sounds/cat_mirall.mp3,2020-06-19_10h41.53.182,TranslationElicitation_spa,3.2.4,Win32,60,55nvwehvwoepvho2ph29vhjf3,3.582000017,1,0,80,48,1,79
,,,,,,,,,,,,,,,,,,,,,,,,,,,,,,,,,,,,,,,,,,,,,154,mirall,Catalan,Sounds/cat_mirall.mp3,2020-06-19_10h41.53.182,TranslationElicitation_spa,3.2.4,Win32,60,55nvwehvwoepvho2ph29vhjf3,,1,0,80,48,1,79
,,,,,,,,,,,,,,,,,,,,,,,,,,,,,,,,,,,b,2.880999804,B,FALSE,,,,,,,114,bol,Catalan,Sounds/cat_bol.mp3,2020-06-19_10h41.53.182,TranslationElicitation_spa,3.2.4,Win32,60,55nvwehvwoepvho2ph29vhjf3,,1,0,80,9,1,79
,,,,,,,,,,,,,,,,,,,,,,,,,,,,,,,,,,,o,3.163999796,BO,FALSE,,,,,,,114,bol,Catalan,Sounds/cat_bol.mp3,2020-06-19_10h41.53.182,TranslationElicitation_spa,3.2.4,Win32,60,55nvwehvwoepvho2ph29vhjf3,,1,0,80,9,1,79
,,,,,,,,,,,,,,,,,,,,,,,,,,,,,,,,,,,l,3.347999811,BOL,FALSE,,,,,,,114,bol,Catalan,Sounds/cat_bol.mp3,2020-06-19_10h41.53.182,TranslationElicitation_spa,3.2.4,Win32,60,55nvwehvwoepvho2ph29vhjf3,,1,0,80,9,1,79
,,,,,,,,,,,,,,,,,,,,,,,,,,,,,,,,,,,return,3.730999947,,FALSE,,,,,,,114,bol,Catalan,Sounds/cat_bol.mp3,2020-06-19_10h41.53.182,TranslationElicitation_spa,3.2.4,Win32,60,55nvwehvwoepvho2ph29vhjf3,3.730999947,1,0,80,9,1,79
,,,,,,,,,,,,,,,,,,,,,,,,,,,,,,,,,,,,,,,,,,,,,114,bol,Catalan,Sounds/cat_bol.mp3,2020-06-19_10h41.53.182,TranslationElicitation_spa,3.2.4,Win32,60,55nvwehvwoepvho2ph29vhjf3,,1,0,80,9,1,79
,,,,,,,,,,,,,,,,,,,,,,,,,,,,,,,,,,,m,1.481000185,M,FALSE,,,,,,,156,moto,Catalan,Sounds/cat_moto.mp3,2020-06-19_10h41.53.182,TranslationElicitation_spa,3.2.4,Win32,60,55nvwehvwoepvho2ph29vhjf3,,1,0,80,50,1,79
,,,,,,,,,,,,,,,,,,,,,,,,,,,,,,,,,,,o,1.881000042,MO,FALSE,,,,,,,156,moto,Catalan,Sounds/cat_moto.mp3,2020-06-19_10h41.53.182,TranslationElicitation_spa,3.2.4,Win32,60,55nvwehvwoepvho2ph29vhjf3,,1,0,80,50,1,79
,,,,,,,,,,,,,,,,,,,,,,,,,,,,,,,,,,,t,2.08100009,MOT,FALSE,,,,,,,156,moto,Catalan,Sounds/cat_moto.mp3,2020-06-19_10h41.53.182,TranslationElicitation_spa,3.2.4,Win32,60,55nvwehvwoepvho2ph29vhjf3,,1,0,80,50,1,79
,,,,,,,,,,,,,,,,,,,,,,,,,,,,,,,,,,,o,2.164000034,MOTO,FALSE,,,,,,,156,moto,Catalan,Sounds/cat_moto.mp3,2020-06-19_10h41.53.182,TranslationElicitation_spa,3.2.4,Win32,60,55nvwehvwoepvho2ph29vhjf3,,1,0,80,50,1,79
,,,,,,,,,,,,,,,,,,,,,,,,,,,,,,,,,,,return,2.448000193,,FALSE,,,,,,,156,moto,Catalan,Sounds/cat_moto.mp3,2020-06-19_10h41.53.182,TranslationElicitation_spa,3.2.4,Win32,60,55nvwehvwoepvho2ph29vhjf3,2.448000193,1,0,80,50,1,79
,,,,,,,,,,,,,,,,,,,,,,,,,,,,,,,,,,,,,,,,,,,,,156,moto,Catalan,Sounds/cat_moto.mp3,2020-06-19_10h41.53.182,TranslationElicitation_spa,3.2.4,Win32,60,55nvwehvwoepvho2ph29vhjf3,,1,0,80,50,1,79
,,,,,,,,,,,,,,,,,,,,,,,,,,,,,,,,,,,o,5.648000002,O,FALSE,,,,,,,148,lleo,Catalan,Sounds/cat_lleo.mp3,2020-06-19_10h41.53.182,TranslationElicitation_spa,3.2.4,Win32,60,55nvwehvwoepvho2ph29vhjf3,,1,0,80,42,1,79
,,,,,,,,,,,,,,,,,,,,,,,,,,,,,,,,,,,h,5.914999962,OH,FALSE,,,,,,,148,lleo,Catalan,Sounds/cat_lleo.mp3,2020-06-19_10h41.53.182,TranslationElicitation_spa,3.2.4,Win32,60,55nvwehvwoepvho2ph29vhjf3,,1,0,80,42,1,79
,,,,,,,,,,,,,,,,,,,,,,,,,,,,,,,,,,,return,6.230999947,,FALSE,,,,,,,148,lleo,Catalan,Sounds/cat_lleo.mp3,2020-06-19_10h41.53.182,TranslationElicitation_spa,3.2.4,Win32,60,55nvwehvwoepvho2ph29vhjf3,6.230999947,1,0,80,42,1,79
,,,,,,,,,,,,,,,,,,,,,,,,,,,,,,,,,,,,,,,,,,,,,148,lleo,Catalan,Sounds/cat_lleo.mp3,2020-06-19_10h41.53.182,TranslationElicitation_spa,3.2.4,Win32,60,55nvwehvwoepvho2ph29vhjf3,,1,0,80,42,1,79
,,,,,,,,,,,,,,,,,,,,,,,,,,,,,,,,,,,a,1.599000216,A,FALSE,,,,,,,161,ovella,Catalan,Sounds/cat_ovella.mp3,2020-06-19_10h41.53.182,TranslationElicitation_spa,3.2.4,Win32,60,55nvwehvwoepvho2ph29vhjf3,,1,0,80,54,1,79
,,,,,,,,,,,,,,,,,,,,,,,,,,,,,,,,,,,b,1.71600008,AB,FALSE,,,,,,,161,ovella,Catalan,Sounds/cat_ovella.mp3,2020-06-19_10h41.53.182,TranslationElicitation_spa,3.2.4,Win32,60,55nvwehvwoepvho2ph29vhjf3,,1,0,80,54,1,79
,,,,,,,,,,,,,,,,,,,,,,,,,,,,,,,,,,,u,1.9150002,ABU,FALSE,,,,,,,161,ovella,Catalan,Sounds/cat_ovella.mp3,2020-06-19_10h41.53.182,TranslationElicitation_spa,3.2.4,Win32,60,55nvwehvwoepvho2ph29vhjf3,,1,0,80,54,1,79
,,,,,,,,,,,,,,,,,,,,,,,,,,,,,,,,,,,e,1.982000113,ABUE,FALSE,,,,,,,161,ovella,Catalan,Sounds/cat_ovella.mp3,2020-06-19_10h41.53.182,TranslationElicitation_spa,3.2.4,Win32,60,55nvwehvwoepvho2ph29vhjf3,,1,0,80,54,1,79
,,,,,,,,,,,,,,,,,,,,,,,,,,,,,,,,,,,l,2.1650002,ABUEL,FALSE,,,,,,,161,ovella,Catalan,Sounds/cat_ovella.mp3,2020-06-19_10h41.53.182,TranslationElicitation_spa,3.2.4,Win32,60,55nvwehvwoepvho2ph29vhjf3,,1,0,80,54,1,79
,,,,,,,,,,,,,,,,,,,,,,,,,,,,,,,,,,,a,2.299000025,ABUELA,FALSE,,,,,,,161,ovella,Catalan,Sounds/cat_ovella.mp3,2020-06-19_10h41.53.182,TranslationElicitation_spa,3.2.4,Win32,60,55nvwehvwoepvho2ph29vhjf3,,1,0,80,54,1,79
,,,,,,,,,,,,,,,,,,,,,,,,,,,,,,,,,,,return,2.515000105,,FALSE,,,,,,,161,ovella,Catalan,Sounds/cat_ovella.mp3,2020-06-19_10h41.53.182,TranslationElicitation_spa,3.2.4,Win32,60,55nvwehvwoepvho2ph29vhjf3,2.515000105,1,0,80,54,1,79
,,,,,,,,,,,,,,,,,,,,,,,,,,,,,,,,,,,,,,,,,,,,,161,ovella,Catalan,Sounds/cat_ovella.mp3,2020-06-19_10h41.53.182,TranslationElicitation_spa,3.2.4,Win32,60,55nvwehvwoepvho2ph29vhjf3,,1,0,80,54,1,79
,,,,,,,,,,,,,,,,,,,,,,,,,,,,,,,,,,,u,2.630999804,U,FALSE,,,,,,,185,ulleres,Catalan,Sounds/cat_ulleres.mp3,2020-06-19_10h41.53.182,TranslationElicitation_spa,3.2.4,Win32,60,55nvwehvwoepvho2ph29vhjf3,,1,0,80,76,1,79
,,,,,,,,,,,,,,,,,,,,,,,,,,,,,,,,,,,semicolon,3.030999899,UÑ,FALSE,,,,,,,185,ulleres,Catalan,Sounds/cat_ulleres.mp3,2020-06-19_10h41.53.182,TranslationElicitation_spa,3.2.4,Win32,60,55nvwehvwoepvho2ph29vhjf3,,1,0,80,76,1,79
,,,,,,,,,,,,,,,,,,,,,,,,,,,,,,,,,,,a,3.102999926,UÑA,FALSE,,,,,,,185,ulleres,Catalan,Sounds/cat_ulleres.mp3,2020-06-19_10h41.53.182,TranslationElicitation_spa,3.2.4,Win32,60,55nvwehvwoepvho2ph29vhjf3,,1,0,80,76,1,79
,,,,,,,,,,,,,,,,,,,,,,,,,,,,,,,,,,,s,3.215999842,UÑAS,FALSE,,,,,,,185,ulleres,Catalan,Sounds/cat_ulleres.mp3,2020-06-19_10h41.53.182,TranslationElicitation_spa,3.2.4,Win32,60,55nvwehvwoepvho2ph29vhjf3,,1,0,80,76,1,79
,,,,,,,,,,,,,,,,,,,,,,,,,,,,,,,,,,,return,3.330999851,,FALSE,,,,,,,185,ulleres,Catalan,Sounds/cat_ulleres.mp3,2020-06-19_10h41.53.182,TranslationElicitation_spa,3.2.4,Win32,60,55nvwehvwoepvho2ph29vhjf3,3.330999851,1,0,80,76,1,79
,,,,,,,,,,,,,,,,,,,,,,,,,,,,,,,,,,,,,,,,,,,,,185,ulleres,Catalan,Sounds/cat_ulleres.mp3,2020-06-19_10h41.53.182,TranslationElicitation_spa,3.2.4,Win32,60,55nvwehvwoepvho2ph29vhjf3,,1,0,80,76,1,79
,,,,,,,,,,,,,,,,,,,,,,,,,,,,,,,,,,,u,6.546999931,U,FALSE,,,,,,,184,ull,Catalan,Sounds/cat_ull.mp3,2020-06-19_10h41.53.182,TranslationElicitation_spa,3.2.4,Win32,60,55nvwehvwoepvho2ph29vhjf3,,1,0,80,75,1,79
,,,,,,,,,,,,,,,,,,,,,,,,,,,,,,,,,,,l,9.396999836,UL,FALSE,,,,,,,184,ull,Catalan,Sounds/cat_ull.mp3,2020-06-19_10h41.53.182,TranslationElicitation_spa,3.2.4,Win32,60,55nvwehvwoepvho2ph29vhjf3,,1,0,80,75,1,79
,,,,,,,,,,,,,,,,,,,,,,,,,,,,,,,,,,,return,9.763999939,,FALSE,,,,,,,184,ull,Catalan,Sounds/cat_ull.mp3,2020-06-19_10h41.53.182,TranslationElicitation_spa,3.2.4,Win32,60,55nvwehvwoepvho2ph29vhjf3,9.763999939,1,0,80,75,1,79
,,,,,,,,,,,,,,,,,,,,,,,,,,,,,,,,,,,,,,,,,,,,,184,ull,Catalan,Sounds/cat_ull.mp3,2020-06-19_10h41.53.182,TranslationElicitation_spa,3.2.4,Win32,60,55nvwehvwoepvho2ph29vhjf3,,1,0,80,75,1,79
,,,,,,,,,,,,,,,,,,,,,,,,,,,,,,,,,,,n,3.75999999,N,FALSE,,,,,,,158,nas,Catalan,Sounds/cat_nas.mp3,2020-06-19_10h41.53.182,TranslationElicitation_spa,3.2.4,Win32,60,55nvwehvwoepvho2ph29vhjf3,,1,0,80,52,1,79
,,,,,,,,,,,,,,,,,,,,,,,,,,,,,,,,,,,a,3.810000181,NA,FALSE,,,,,,,158,nas,Catalan,Sounds/cat_nas.mp3,2020-06-19_10h41.53.182,TranslationElicitation_spa,3.2.4,Win32,60,55nvwehvwoepvho2ph29vhjf3,,1,0,80,52,1,79
,,,,,,,,,,,,,,,,,,,,,,,,,,,,,,,,,,,c,4.077000141,NAC,FALSE,,,,,,,158,nas,Catalan,Sounds/cat_nas.mp3,2020-06-19_10h41.53.182,TranslationElicitation_spa,3.2.4,Win32,60,55nvwehvwoepvho2ph29vhjf3,,1,0,80,52,1,79
,,,,,,,,,,,,,,,,,,,,,,,,,,,,,,,,,,,e,4.278000116,NACE,FALSE,,,,,,,158,nas,Catalan,Sounds/cat_nas.mp3,2020-06-19_10h41.53.182,TranslationElicitation_spa,3.2.4,Win32,60,55nvwehvwoepvho2ph29vhjf3,,1,0,80,52,1,79
,,,,,,,,,,,,,,,,,,,,,,,,,,,,,,,,,,,r,4.378000021,NACER,FALSE,,,,,,,158,nas,Catalan,Sounds/cat_nas.mp3,2020-06-19_10h41.53.182,TranslationElicitation_spa,3.2.4,Win32,60,55nvwehvwoepvho2ph29vhjf3,,1,0,80,52,1,79
,,,,,,,,,,,,,,,,,,,,,,,,,,,,,,,,,,,return,4.560000181,,FALSE,,,,,,,158,nas,Catalan,Sounds/cat_nas.mp3,2020-06-19_10h41.53.182,TranslationElicitation_spa,3.2.4,Win32,60,55nvwehvwoepvho2ph29vhjf3,4.560000181,1,0,80,52,1,79
,,,,,,,,,,,,,,,,,,,,,,,,,,,,,,,,,,,,,,,,,,,,,158,nas,Catalan,Sounds/cat_nas.mp3,2020-06-19_10h41.53.182,TranslationElicitation_spa,3.2.4,Win32,60,55nvwehvwoepvho2ph29vhjf3,,1,0,80,52,1,79
,,,,,,,,,,,,,,,,,,,,,,,,,,,,,,,,,,,p,2.148999929,P,FALSE,,,,,,,173,porc,Catalan,Sounds/cat_porc.mp3,2020-06-19_10h41.53.182,TranslationElicitation_spa,3.2.4,Win32,60,55nvwehvwoepvho2ph29vhjf3,,1,0,80,65,1,79
,,,,,,,,,,,,,,,,,,,,,,,,,,,,,,,,,,,u,2.532000065,PU,FALSE,,,,,,,173,porc,Catalan,Sounds/cat_porc.mp3,2020-06-19_10h41.53.182,TranslationElicitation_spa,3.2.4,Win32,60,55nvwehvwoepvho2ph29vhjf3,,1,0,80,65,1,79
,,,,,,,,,,,,,,,,,,,,,,,,,,,,,,,,,,,e,2.664999962,PUE,FALSE,,,,,,,173,porc,Catalan,Sounds/cat_porc.mp3,2020-06-19_10h41.53.182,TranslationElicitation_spa,3.2.4,Win32,60,55nvwehvwoepvho2ph29vhjf3,,1,0,80,65,1,79
,,,,,,,,,,,,,,,,,,,,,,,,,,,,,,,,,,,r,2.782000065,PUER,FALSE,,,,,,,173,porc,Catalan,Sounds/cat_porc.mp3,2020-06-19_10h41.53.182,TranslationElicitation_spa,3.2.4,Win32,60,55nvwehvwoepvho2ph29vhjf3,,1,0,80,65,1,79
,,,,,,,,,,,,,,,,,,,,,,,,,,,,,,,,,,,t,2.881999969,PUERT,FALSE,,,,,,,173,porc,Catalan,Sounds/cat_porc.mp3,2020-06-19_10h41.53.182,TranslationElicitation_spa,3.2.4,Win32,60,55nvwehvwoepvho2ph29vhjf3,,1,0,80,65,1,79
,,,,,,,,,,,,,,,,,,,,,,,,,,,,,,,,,,,a,3.065000057,PUERTA,FALSE,,,,,,,173,porc,Catalan,Sounds/cat_porc.mp3,2020-06-19_10h41.53.182,TranslationElicitation_spa,3.2.4,Win32,60,55nvwehvwoepvho2ph29vhjf3,,1,0,80,65,1,79
,,,,,,,,,,,,,,,,,,,,,,,,,,,,,,,,,,,return,3.264999866,,FALSE,,,,,,,173,porc,Catalan,Sounds/cat_porc.mp3,2020-06-19_10h41.53.182,TranslationElicitation_spa,3.2.4,Win32,60,55nvwehvwoepvho2ph29vhjf3,3.264999866,1,0,80,65,1,79
,,,,,,,,,,,,,,,,,,,,,,,,,,,,,,,,,,,,,,,,,,,,,173,porc,Catalan,Sounds/cat_porc.mp3,2020-06-19_10h41.53.182,TranslationElicitation_spa,3.2.4,Win32,60,55nvwehvwoepvho2ph29vhjf3,,1,0,80,65,1,79
,,,,,,,,,,,,,,,,,,,,,,,,,,,,,,,,,,,e,1.530999899,E,FALSE,,,,,,,131,esponja,Catalan,Sounds/cat_esponja.mp3,2020-06-19_10h41.53.182,TranslationElicitation_spa,3.2.4,Win32,60,55nvwehvwoepvho2ph29vhjf3,,1,0,80,26,1,79
,,,,,,,,,,,,,,,,,,,,,,,,,,,,,,,,,,,s,1.697999954,ES,FALSE,,,,,,,131,esponja,Catalan,Sounds/cat_esponja.mp3,2020-06-19_10h41.53.182,TranslationElicitation_spa,3.2.4,Win32,60,55nvwehvwoepvho2ph29vhjf3,,1,0,80,26,1,79
,,,,,,,,,,,,,,,,,,,,,,,,,,,,,,,,,,,p,1.864000082,ESP,FALSE,,,,,,,131,esponja,Catalan,Sounds/cat_esponja.mp3,2020-06-19_10h41.53.182,TranslationElicitation_spa,3.2.4,Win32,60,55nvwehvwoepvho2ph29vhjf3,,1,0,80,26,1,79
,,,,,,,,,,,,,,,,,,,,,,,,,,,,,,,,,,,a,1.930999994,ESPA,FALSE,,,,,,,131,esponja,Catalan,Sounds/cat_esponja.mp3,2020-06-19_10h41.53.182,TranslationElicitation_spa,3.2.4,Win32,60,55nvwehvwoepvho2ph29vhjf3,,1,0,80,26,1,79
,,,,,,,,,,,,,,,,,,,,,,,,,,,,,,,,,,,semicolon,2.08100009,ESPAÑ,FALSE,,,,,,,131,esponja,Catalan,Sounds/cat_esponja.mp3,2020-06-19_10h41.53.182,TranslationElicitation_spa,3.2.4,Win32,60,55nvwehvwoepvho2ph29vhjf3,,1,0,80,26,1,79
,,,,,,,,,,,,,,,,,,,,,,,,,,,,,,,,,,,a,2.180999994,ESPAÑA,FALSE,,,,,,,131,esponja,Catalan,Sounds/cat_esponja.mp3,2020-06-19_10h41.53.182,TranslationElicitation_spa,3.2.4,Win32,60,55nvwehvwoepvho2ph29vhjf3,,1,0,80,26,1,79
,,,,,,,,,,,,,,,,,,,,,,,,,,,,,,,,,,,return,2.33100009,,FALSE,,,,,,,131,esponja,Catalan,Sounds/cat_esponja.mp3,2020-06-19_10h41.53.182,TranslationElicitation_spa,3.2.4,Win32,60,55nvwehvwoepvho2ph29vhjf3,2.33100009,1,0,80,26,1,79
,,,,,,,,,,,,,,,,,,,,,,,,,,,,,,,,,,,,,,,,,,,,,131,esponja,Catalan,Sounds/cat_esponja.mp3,2020-06-19_10h41.53.182,TranslationElicitation_spa,3.2.4,Win32,60,55nvwehvwoepvho2ph29vhjf3,,1,0,80,26,1,79
,,,,,,,,,,,,,,,,,,,,,,,,,,,,,,,,,,,u,1.497999907,U,FALSE,,,,,,,174,porta,Catalan,Sounds/cat_porta.mp3,2020-06-19_10h41.53.182,TranslationElicitation_spa,3.2.4,Win32,60,55nvwehvwoepvho2ph29vhjf3,,1,0,80,66,1,79
,,,,,,,,,,,,,,,,,,,,,,,,,,,,,,,,,,,e,1.61500001,UE,FALSE,,,,,,,174,porta,Catalan,Sounds/cat_porta.mp3,2020-06-19_10h41.53.182,TranslationElicitation_spa,3.2.4,Win32,60,55nvwehvwoepvho2ph29vhjf3,,1,0,80,66,1,79
,,,,,,,,,,,,,,,,,,,,,,,,,,,,,,,,,,,r,1.697999954,UER,FALSE,,,,,,,174,porta,Catalan,Sounds/cat_porta.mp3,2020-06-19_10h41.53.182,TranslationElicitation_spa,3.2.4,Win32,60,55nvwehvwoepvho2ph29vhjf3,,1,0,80,66,1,79
,,,,,,,,,,,,,,,,,,,,,,,,,,,,,,,,,,,t,1.782000065,UERT,FALSE,,,,,,,174,porta,Catalan,Sounds/cat_porta.mp3,2020-06-19_10h41.53.182,TranslationElicitation_spa,3.2.4,Win32,60,55nvwehvwoepvho2ph29vhjf3,,1,0,80,66,1,79
,,,,,,,,,,,,,,,,,,,,,,,,,,,,,,,,,,,a,1.931999922,UERTA,FALSE,,,,,,,174,porta,Catalan,Sounds/cat_porta.mp3,2020-06-19_10h41.53.182,TranslationElicitation_spa,3.2.4,Win32,60,55nvwehvwoepvho2ph29vhjf3,,1,0,80,66,1,79
,,,,,,,,,,,,,,,,,,,,,,,,,,,,,,,,,,,backspace,2.447999954,UER,TRUE,,,,,,,174,porta,Catalan,Sounds/cat_porta.mp3,2020-06-19_10h41.53.182,TranslationElicitation_spa,3.2.4,Win32,60,55nvwehvwoepvho2ph29vhjf3,,1,0,80,66,1,79
,,,,,,,,,,,,,,,,,,,,,,,,,,,,,,,,,,,backspace,2.632999897,U,TRUE,,,,,,,174,porta,Catalan,Sounds/cat_porta.mp3,2020-06-19_10h41.53.182,TranslationElicitation_spa,3.2.4,Win32,60,55nvwehvwoepvho2ph29vhjf3,,1,0,80,66,1,79
,,,,,,,,,,,,,,,,,,,,,,,,,,,,,,,,,,,backspace,2.765000105,,TRUE,,,,,,,174,porta,Catalan,Sounds/cat_porta.mp3,2020-06-19_10h41.53.182,TranslationElicitation_spa,3.2.4,Win32,60,55nvwehvwoepvho2ph29vhjf3,,1,0,80,66,1,79
,,,,,,,,,,,,,,,,,,,,,,,,,,,,,,,,,,,backspace,2.914999962,,TRUE,,,,,,,174,porta,Catalan,Sounds/cat_porta.mp3,2020-06-19_10h41.53.182,TranslationElicitation_spa,3.2.4,Win32,60,55nvwehvwoepvho2ph29vhjf3,,1,0,80,66,1,79
,,,,,,,,,,,,,,,,,,,,,,,,,,,,,,,,,,,p,3.414999962,P,TRUE,,,,,,,174,porta,Catalan,Sounds/cat_porta.mp3,2020-06-19_10h41.53.182,TranslationElicitation_spa,3.2.4,Win32,60,55nvwehvwoepvho2ph29vhjf3,,1,0,80,66,1,79
,,,,,,,,,,,,,,,,,,,,,,,,,,,,,,,,,,,u,3.714999914,PU,TRUE,,,,,,,174,porta,Catalan,Sounds/cat_porta.mp3,2020-06-19_10h41.53.182,TranslationElicitation_spa,3.2.4,Win32,60,55nvwehvwoepvho2ph29vhjf3,,1,0,80,66,1,79
,,,,,,,,,,,,,,,,,,,,,,,,,,,,,,,,,,,e,3.798000097,PUE,TRUE,,,,,,,174,porta,Catalan,Sounds/cat_porta.mp3,2020-06-19_10h41.53.182,TranslationElicitation_spa,3.2.4,Win32,60,55nvwehvwoepvho2ph29vhjf3,,1,0,80,66,1,79
,,,,,,,,,,,,,,,,,,,,,,,,,,,,,,,,,,,r,3.881000042,PUER,TRUE,,,,,,,174,porta,Catalan,Sounds/cat_porta.mp3,2020-06-19_10h41.53.182,TranslationElicitation_spa,3.2.4,Win32,60,55nvwehvwoepvho2ph29vhjf3,,1,0,80,66,1,79
,,,,,,,,,,,,,,,,,,,,,,,,,,,,,,,,,,,t,4.015000105,PUERT,TRUE,,,,,,,174,porta,Catalan,Sounds/cat_porta.mp3,2020-06-19_10h41.53.182,TranslationElicitation_spa,3.2.4,Win32,60,55nvwehvwoepvho2ph29vhjf3,,1,0,80,66,1,79
,,,,,,,,,,,,,,,,,,,,,,,,,,,,,,,,,,,a,4.164999962,PUERTA,TRUE,,,,,,,174,porta,Catalan,Sounds/cat_porta.mp3,2020-06-19_10h41.53.182,TranslationElicitation_spa,3.2.4,Win32,60,55nvwehvwoepvho2ph29vhjf3,,1,0,80,66,1,79
,,,,,,,,,,,,,,,,,,,,,,,,,,,,,,,,,,,return,4.381000042,,TRUE,,,,,,,174,porta,Catalan,Sounds/cat_porta.mp3,2020-06-19_10h41.53.182,TranslationElicitation_spa,3.2.4,Win32,60,55nvwehvwoepvho2ph29vhjf3,4.381000042,1,0,80,66,1,79
,,,,,,,,,,,,,,,,,,,,,,,,,,,,,,,,,,,,,,,,,,,,,174,porta,Catalan,Sounds/cat_porta.mp3,2020-06-19_10h41.53.182,TranslationElicitation_spa,3.2.4,Win32,60,55nvwehvwoepvho2ph29vhjf3,,1,0,80,66,1,79
,,,,,,,,,,,,,,,,,,,,,,,,,,,,,,,,,,,o,1.500999928,O,FALSE,,,,,,,177,sol,Catalan,Sounds/cat_sol.mp3,2020-06-19_10h41.53.182,TranslationElicitation_spa,3.2.4,Win32,60,55nvwehvwoepvho2ph29vhjf3,,1,0,80,69,1,79
,,,,,,,,,,,,,,,,,,,,,,,,,,,,,,,,,,,l,1.681999922,OL,FALSE,,,,,,,177,sol,Catalan,Sounds/cat_sol.mp3,2020-06-19_10h41.53.182,TranslationElicitation_spa,3.2.4,Win32,60,55nvwehvwoepvho2ph29vhjf3,,1,0,80,69,1,79
,,,,,,,,,,,,,,,,,,,,,,,,,,,,,,,,,,,backspace,2.19900012,,TRUE,,,,,,,177,sol,Catalan,Sounds/cat_sol.mp3,2020-06-19_10h41.53.182,TranslationElicitation_spa,3.2.4,Win32,60,55nvwehvwoepvho2ph29vhjf3,,1,0,80,69,1,79
,,,,,,,,,,,,,,,,,,,,,,,,,,,,,,,,,,,backspace,2.315999985,,TRUE,,,,,,,177,sol,Catalan,Sounds/cat_sol.mp3,2020-06-19_10h41.53.182,TranslationElicitation_spa,3.2.4,Win32,60,55nvwehvwoepvho2ph29vhjf3,,1,0,80,69,1,79
,,,,,,,,,,,,,,,,,,,,,,,,,,,,,,,,,,,s,2.815000057,S,TRUE,,,,,,,177,sol,Catalan,Sounds/cat_sol.mp3,2020-06-19_10h41.53.182,TranslationElicitation_spa,3.2.4,Win32,60,55nvwehvwoepvho2ph29vhjf3,,1,0,80,69,1,79
,,,,,,,,,,,,,,,,,,,,,,,,,,,,,,,,,,,o,2.982000113,SO,TRUE,,,,,,,177,sol,Catalan,Sounds/cat_sol.mp3,2020-06-19_10h41.53.182,TranslationElicitation_spa,3.2.4,Win32,60,55nvwehvwoepvho2ph29vhjf3,,1,0,80,69,1,79
,,,,,,,,,,,,,,,,,,,,,,,,,,,,,,,,,,,l,3.19900012,SOL,TRUE,,,,,,,177,sol,Catalan,Sounds/cat_sol.mp3,2020-06-19_10h41.53.182,TranslationElicitation_spa,3.2.4,Win32,60,55nvwehvwoepvho2ph29vhjf3,,1,0,80,69,1,79
,,,,,,,,,,,,,,,,,,,,,,,,,,,,,,,,,,,return,3.431999922,,TRUE,,,,,,,177,sol,Catalan,Sounds/cat_sol.mp3,2020-06-19_10h41.53.182,TranslationElicitation_spa,3.2.4,Win32,60,55nvwehvwoepvho2ph29vhjf3,3.431999922,1,0,80,69,1,79
,,,,,,,,,,,,,,,,,,,,,,,,,,,,,,,,,,,,,,,,,,,,,177,sol,Catalan,Sounds/cat_sol.mp3,2020-06-19_10h41.53.182,TranslationElicitation_spa,3.2.4,Win32,60,55nvwehvwoepvho2ph29vhjf3,,1,0,80,69,1,79
,,,,,,,,,,,,,,,,,,,,,,,,,,,,,,,,,,,a,1.930999994,A,FALSE,,,,,,,153,mico,Catalan,Sounds/cat_mico.mp3,2020-06-19_10h41.53.182,TranslationElicitation_spa,3.2.4,Win32,60,55nvwehvwoepvho2ph29vhjf3,,1,0,80,47,1,79
,,,,,,,,,,,,,,,,,,,,,,,,,,,,,,,,,,,m,2.246999979,AM,FALSE,,,,,,,153,mico,Catalan,Sounds/cat_mico.mp3,2020-06-19_10h41.53.182,TranslationElicitation_spa,3.2.4,Win32,60,55nvwehvwoepvho2ph29vhjf3,,1,0,80,47,1,79
,,,,,,,,,,,,,,,,,,,,,,,,,,,,,,,,,,,i,2.463999987,AMI,FALSE,,,,,,,153,mico,Catalan,Sounds/cat_mico.mp3,2020-06-19_10h41.53.182,TranslationElicitation_spa,3.2.4,Win32,60,55nvwehvwoepvho2ph29vhjf3,,1,0,80,47,1,79
,,,,,,,,,,,,,,,,,,,,,,,,,,,,,,,,,,,g,2.81400013,AMIG,FALSE,,,,,,,153,mico,Catalan,Sounds/cat_mico.mp3,2020-06-19_10h41.53.182,TranslationElicitation_spa,3.2.4,Win32,60,55nvwehvwoepvho2ph29vhjf3,,1,0,80,47,1,79
,,,,,,,,,,,,,,,,,,,,,,,,,,,,,,,,,,,o,2.898000002,AMIGO,FALSE,,,,,,,153,mico,Catalan,Sounds/cat_mico.mp3,2020-06-19_10h41.53.182,TranslationElicitation_spa,3.2.4,Win32,60,55nvwehvwoepvho2ph29vhjf3,,1,0,80,47,1,79
,,,,,,,,,,,,,,,,,,,,,,,,,,,,,,,,,,,return,3.213999987,,FALSE,,,,,,,153,mico,Catalan,Sounds/cat_mico.mp3,2020-06-19_10h41.53.182,TranslationElicitation_spa,3.2.4,Win32,60,55nvwehvwoepvho2ph29vhjf3,3.213999987,1,0,80,47,1,79
,,,,,,,,,,,,,,,,,,,,,,,,,,,,,,,,,,,,,,,,,,,,,153,mico,Catalan,Sounds/cat_mico.mp3,2020-06-19_10h41.53.182,TranslationElicitation_spa,3.2.4,Win32,60,55nvwehvwoepvho2ph29vhjf3,,1,0,80,47,1,79
,,,,,,,,,,,,,,,,,,,,,,,,,,,,,,,,,,,l,1.346999884,L,FALSE,,,,,,,168,planta,Catalan,Sounds/cat_planta.mp3,2020-06-19_10h41.53.182,TranslationElicitation_spa,3.2.4,Win32,60,55nvwehvwoepvho2ph29vhjf3,,1,0,80,60,1,79
,,,,,,,,,,,,,,,,,,,,,,,,,,,,,,,,,,,a,1.480999947,LA,FALSE,,,,,,,168,planta,Catalan,Sounds/cat_planta.mp3,2020-06-19_10h41.53.182,TranslationElicitation_spa,3.2.4,Win32,60,55nvwehvwoepvho2ph29vhjf3,,1,0,80,60,1,79
,,,,,,,,,,,,,,,,,,,,,,,,,,,,,,,,,,,n,1.59800005,LAN,FALSE,,,,,,,168,planta,Catalan,Sounds/cat_planta.mp3,2020-06-19_10h41.53.182,TranslationElicitation_spa,3.2.4,Win32,60,55nvwehvwoepvho2ph29vhjf3,,1,0,80,60,1,79
,,,,,,,,,,,,,,,,,,,,,,,,,,,,,,,,,,,t,1.86500001,LANT,FALSE,,,,,,,168,planta,Catalan,Sounds/cat_planta.mp3,2020-06-19_10h41.53.182,TranslationElicitation_spa,3.2.4,Win32,60,55nvwehvwoepvho2ph29vhjf3,,1,0,80,60,1,79
,,,,,,,,,,,,,,,,,,,,,,,,,,,,,,,,,,,a,1.963999987,LANTA,FALSE,,,,,,,168,planta,Catalan,Sounds/cat_planta.mp3,2020-06-19_10h41.53.182,TranslationElicitation_spa,3.2.4,Win32,60,55nvwehvwoepvho2ph29vhjf3,,1,0,80,60,1,79
,,,,,,,,,,,,,,,,,,,,,,,,,,,,,,,,,,,backspace,2.330999851,LAN,TRUE,,,,,,,168,planta,Catalan,Sounds/cat_planta.mp3,2020-06-19_10h41.53.182,TranslationElicitation_spa,3.2.4,Win32,60,55nvwehvwoepvho2ph29vhjf3,,1,0,80,60,1,79
,,,,,,,,,,,,,,,,,,,,,,,,,,,,,,,,,,,backspace,2.463999987,L,TRUE,,,,,,,168,planta,Catalan,Sounds/cat_planta.mp3,2020-06-19_10h41.53.182,TranslationElicitation_spa,3.2.4,Win32,60,55nvwehvwoepvho2ph29vhjf3,,1,0,80,60,1,79
,,,,,,,,,,,,,,,,,,,,,,,,,,,,,,,,,,,backspace,2.61500001,,TRUE,,,,,,,168,planta,Catalan,Sounds/cat_planta.mp3,2020-06-19_10h41.53.182,TranslationElicitation_spa,3.2.4,Win32,60,55nvwehvwoepvho2ph29vhjf3,,1,0,80,60,1,79
,,,,,,,,,,,,,,,,,,,,,,,,,,,,,,,,,,,backspace,2.747999907,,TRUE,,,,,,,168,planta,Catalan,Sounds/cat_planta.mp3,2020-06-19_10h41.53.182,TranslationElicitation_spa,3.2.4,Win32,60,55nvwehvwoepvho2ph29vhjf3,,1,0,80,60,1,79
,,,,,,,,,,,,,,,,,,,,,,,,,,,,,,,,,,,p,3.148000002,P,TRUE,,,,,,,168,planta,Catalan,Sounds/cat_planta.mp3,2020-06-19_10h41.53.182,TranslationElicitation_spa,3.2.4,Win32,60,55nvwehvwoepvho2ph29vhjf3,,1,0,80,60,1,79
,,,,,,,,,,,,,,,,,,,,,,,,,,,,,,,,,,,l,3.348999977,PL,TRUE,,,,,,,168,planta,Catalan,Sounds/cat_planta.mp3,2020-06-19_10h41.53.182,TranslationElicitation_spa,3.2.4,Win32,60,55nvwehvwoepvho2ph29vhjf3,,1,0,80,60,1,79
,,,,,,,,,,,,,,,,,,,,,,,,,,,,,,,,,,,a,3.430999994,PLA,TRUE,,,,,,,168,planta,Catalan,Sounds/cat_planta.mp3,2020-06-19_10h41.53.182,TranslationElicitation_spa,3.2.4,Win32,60,55nvwehvwoepvho2ph29vhjf3,,1,0,80,60,1,79
,,,,,,,,,,,,,,,,,,,,,,,,,,,,,,,,,,,b,3.613999844,PLAB,TRUE,,,,,,,168,planta,Catalan,Sounds/cat_planta.mp3,2020-06-19_10h41.53.182,TranslationElicitation_spa,3.2.4,Win32,60,55nvwehvwoepvho2ph29vhjf3,,1,0,80,60,1,79
,,,,,,,,,,,,,,,,,,,,,,,,,,,,,,,,,,,backspace,4.248999834,PL,TRUE,,,,,,,168,planta,Catalan,Sounds/cat_planta.mp3,2020-06-19_10h41.53.182,TranslationElicitation_spa,3.2.4,Win32,60,55nvwehvwoepvho2ph29vhjf3,,1,0,80,60,1,79
,,,,,,,,,,,,,,,,,,,,,,,,,,,,,,,,,,,n,4.536999941,PLN,TRUE,,,,,,,168,planta,Catalan,Sounds/cat_planta.mp3,2020-06-19_10h41.53.182,TranslationElicitation_spa,3.2.4,Win32,60,55nvwehvwoepvho2ph29vhjf3,,1,0,80,60,1,79
,,,,,,,,,,,,,,,,,,,,,,,,,,,,,,,,,,,t,4.746999979,PLNT,TRUE,,,,,,,168,planta,Catalan,Sounds/cat_planta.mp3,2020-06-19_10h41.53.182,TranslationElicitation_spa,3.2.4,Win32,60,55nvwehvwoepvho2ph29vhjf3,,1,0,80,60,1,79
,,,,,,,,,,,,,,,,,,,,,,,,,,,,,,,,,,,a,4.830999851,PLNTA,TRUE,,,,,,,168,planta,Catalan,Sounds/cat_planta.mp3,2020-06-19_10h41.53.182,TranslationElicitation_spa,3.2.4,Win32,60,55nvwehvwoepvho2ph29vhjf3,,1,0,80,60,1,79
,,,,,,,,,,,,,,,,,,,,,,,,,,,,,,,,,,,backspace,5.363999844,PLN,TRUE,,,,,,,168,planta,Catalan,Sounds/cat_planta.mp3,2020-06-19_10h41.53.182,TranslationElicitation_spa,3.2.4,Win32,60,55nvwehvwoepvho2ph29vhjf3,,1,0,80,60,1,79
,,,,,,,,,,,,,,,,,,,,,,,,,,,,,,,,,,,backspace,5.763000011,P,TRUE,,,,,,,168,planta,Catalan,Sounds/cat_planta.mp3,2020-06-19_10h41.53.182,TranslationElicitation_spa,3.2.4,Win32,60,55nvwehvwoepvho2ph29vhjf3,,1,0,80,60,1,79
,,,,,,,,,,,,,,,,,,,,,,,,,,,,,,,,,,,a,6.062999964,PA,TRUE,,,,,,,168,planta,Catalan,Sounds/cat_planta.mp3,2020-06-19_10h41.53.182,TranslationElicitation_spa,3.2.4,Win32,60,55nvwehvwoepvho2ph29vhjf3,,1,0,80,60,1,79
,,,,,,,,,,,,,,,,,,,,,,,,,,,,,,,,,,,backspace,6.546000004,,TRUE,,,,,,,168,planta,Catalan,Sounds/cat_planta.mp3,2020-06-19_10h41.53.182,TranslationElicitation_spa,3.2.4,Win32,60,55nvwehvwoepvho2ph29vhjf3,,1,0,80,60,1,79
,,,,,,,,,,,,,,,,,,,,,,,,,,,,,,,,,,,p,7.296000004,P,TRUE,,,,,,,168,planta,Catalan,Sounds/cat_planta.mp3,2020-06-19_10h41.53.182,TranslationElicitation_spa,3.2.4,Win32,60,55nvwehvwoepvho2ph29vhjf3,,1,0,80,60,1,79
,,,,,,,,,,,,,,,,,,,,,,,,,,,,,,,,,,,l,7.513000011,PL,TRUE,,,,,,,168,planta,Catalan,Sounds/cat_planta.mp3,2020-06-19_10h41.53.182,TranslationElicitation_spa,3.2.4,Win32,60,55nvwehvwoepvho2ph29vhjf3,,1,0,80,60,1,79
,,,,,,,,,,,,,,,,,,,,,,,,,,,,,,,,,,,a,7.65199995,PLA,TRUE,,,,,,,168,planta,Catalan,Sounds/cat_planta.mp3,2020-06-19_10h41.53.182,TranslationElicitation_spa,3.2.4,Win32,60,55nvwehvwoepvho2ph29vhjf3,,1,0,80,60,1,79
,,,,,,,,,,,,,,,,,,,,,,,,,,,,,,,,,,,n,7.828999996,PLAN,TRUE,,,,,,,168,planta,Catalan,Sounds/cat_planta.mp3,2020-06-19_10h41.53.182,TranslationElicitation_spa,3.2.4,Win32,60,55nvwehvwoepvho2ph29vhjf3,,1,0,80,60,1,79
,,,,,,,,,,,,,,,,,,,,,,,,,,,,,,,,,,,t,8.212999821,PLANT,TRUE,,,,,,,168,planta,Catalan,Sounds/cat_planta.mp3,2020-06-19_10h41.53.182,TranslationElicitation_spa,3.2.4,Win32,60,55nvwehvwoepvho2ph29vhjf3,,1,0,80,60,1,79
,,,,,,,,,,,,,,,,,,,,,,,,,,,,,,,,,,,a,8.328999996,PLANTA,TRUE,,,,,,,168,planta,Catalan,Sounds/cat_planta.mp3,2020-06-19_10h41.53.182,TranslationElicitation_spa,3.2.4,Win32,60,55nvwehvwoepvho2ph29vhjf3,,1,0,80,60,1,79
,,,,,,,,,,,,,,,,,,,,,,,,,,,,,,,,,,,return,8.695999861,,TRUE,,,,,,,168,planta,Catalan,Sounds/cat_planta.mp3,2020-06-19_10h41.53.182,TranslationElicitation_spa,3.2.4,Win32,60,55nvwehvwoepvho2ph29vhjf3,8.695999861,1,0,80,60,1,79
,,,,,,,,,,,,,,,,,,,,,,,,,,,,,,,,,,,,,,,,,,,,,168,planta,Catalan,Sounds/cat_planta.mp3,2020-06-19_10h41.53.182,TranslationElicitation_spa,3.2.4,Win32,60,55nvwehvwoepvho2ph29vhjf3,,1,0,80,60,1,79
,,,,,,,,,,,,,,,,,,,,,,,,,,,,,,,,,,,c,1.261999846,C,FALSE,,,,,,,126,corona,Catalan,Sounds/cat_corona.mp3,2020-06-19_10h41.53.182,TranslationElicitation_spa,3.2.4,Win32,60,55nvwehvwoepvho2ph29vhjf3,,1,0,80,21,1,79
,,,,,,,,,,,,,,,,,,,,,,,,,,,,,,,,,,,o,1.345999956,CO,FALSE,,,,,,,126,corona,Catalan,Sounds/cat_corona.mp3,2020-06-19_10h41.53.182,TranslationElicitation_spa,3.2.4,Win32,60,55nvwehvwoepvho2ph29vhjf3,,1,0,80,21,1,79
,,,,,,,,,,,,,,,,,,,,,,,,,,,,,,,,,,,r,1.511999846,COR,FALSE,,,,,,,126,corona,Catalan,Sounds/cat_corona.mp3,2020-06-19_10h41.53.182,TranslationElicitation_spa,3.2.4,Win32,60,55nvwehvwoepvho2ph29vhjf3,,1,0,80,21,1,79
,,,,,,,,,,,,,,,,,,,,,,,,,,,,,,,,,,,o,1.578999996,CORO,FALSE,,,,,,,126,corona,Catalan,Sounds/cat_corona.mp3,2020-06-19_10h41.53.182,TranslationElicitation_spa,3.2.4,Win32,60,55nvwehvwoepvho2ph29vhjf3,,1,0,80,21,1,79
,,,,,,,,,,,,,,,,,,,,,,,,,,,,,,,,,,,n,1.794999838,CORON,FALSE,,,,,,,126,corona,Catalan,Sounds/cat_corona.mp3,2020-06-19_10h41.53.182,TranslationElicitation_spa,3.2.4,Win32,60,55nvwehvwoepvho2ph29vhjf3,,1,0,80,21,1,79
,,,,,,,,,,,,,,,,,,,,,,,,,,,,,,,,,,,a,1.878999949,CORONA,FALSE,,,,,,,126,corona,Catalan,Sounds/cat_corona.mp3,2020-06-19_10h41.53.182,TranslationElicitation_spa,3.2.4,Win32,60,55nvwehvwoepvho2ph29vhjf3,,1,0,80,21,1,79
,,,,,,,,,,,,,,,,,,,,,,,,,,,,,,,,,,,return,2.095999956,,FALSE,,,,,,,126,corona,Catalan,Sounds/cat_corona.mp3,2020-06-19_10h41.53.182,TranslationElicitation_spa,3.2.4,Win32,60,55nvwehvwoepvho2ph29vhjf3,2.095999956,1,0,80,21,1,79
,,,,,,,,,,,,,,,,,,,,,,,,,,,,,,,,,,,,,,,,,,,,,126,corona,Catalan,Sounds/cat_corona.mp3,2020-06-19_10h41.53.182,TranslationElicitation_spa,3.2.4,Win32,60,55nvwehvwoepvho2ph29vhjf3,,1,0,80,21,1,79
,,,,,,,,,,,,,,,,,,,,,,,,,,,,,,,,,,,g,1.34800005,G,FALSE,,,,,,,145,got,Catalan,Sounds/cat_got.mp3,2020-06-19_10h41.53.182,TranslationElicitation_spa,3.2.4,Win32,60,55nvwehvwoepvho2ph29vhjf3,,1,0,80,40,1,79
,,,,,,,,,,,,,,,,,,,,,,,,,,,,,,,,,,,backspace,2.664999962,,TRUE,,,,,,,145,got,Catalan,Sounds/cat_got.mp3,2020-06-19_10h41.53.182,TranslationElicitation_spa,3.2.4,Win32,60,55nvwehvwoepvho2ph29vhjf3,,1,0,80,40,1,79
,,,,,,,,,,,,,,,,,,,,,,,,,,,,,,,,,,,c,3.030999899,C,TRUE,,,,,,,145,got,Catalan,Sounds/cat_got.mp3,2020-06-19_10h41.53.182,TranslationElicitation_spa,3.2.4,Win32,60,55nvwehvwoepvho2ph29vhjf3,,1,0,80,40,1,79
,,,,,,,,,,,,,,,,,,,,,,,,,,,,,,,,,,,a,3.263999939,CA,TRUE,,,,,,,145,got,Catalan,Sounds/cat_got.mp3,2020-06-19_10h41.53.182,TranslationElicitation_spa,3.2.4,Win32,60,55nvwehvwoepvho2ph29vhjf3,,1,0,80,40,1,79
,,,,,,,,,,,,,,,,,,,,,,,,,,,,,,,,,,,b,3.33100009,CAB,TRUE,,,,,,,145,got,Catalan,Sounds/cat_got.mp3,2020-06-19_10h41.53.182,TranslationElicitation_spa,3.2.4,Win32,60,55nvwehvwoepvho2ph29vhjf3,,1,0,80,40,1,79
,,,,,,,,,,,,,,,,,,,,,,,,,,,,,,,,,,,r,3.530999899,CABR,TRUE,,,,,,,145,got,Catalan,Sounds/cat_got.mp3,2020-06-19_10h41.53.182,TranslationElicitation_spa,3.2.4,Win32,60,55nvwehvwoepvho2ph29vhjf3,,1,0,80,40,1,79
,,,,,,,,,,,,,,,,,,,,,,,,,,,,,,,,,,,a,3.73300004,CABRA,TRUE,,,,,,,145,got,Catalan,Sounds/cat_got.mp3,2020-06-19_10h41.53.182,TranslationElicitation_spa,3.2.4,Win32,60,55nvwehvwoepvho2ph29vhjf3,,1,0,80,40,1,79
,,,,,,,,,,,,,,,,,,,,,,,,,,,,,,,,,,,return,3.947999954,,TRUE,,,,,,,145,got,Catalan,Sounds/cat_got.mp3,2020-06-19_10h41.53.182,TranslationElicitation_spa,3.2.4,Win32,60,55nvwehvwoepvho2ph29vhjf3,3.947999954,1,0,80,40,1,79
,,,,,,,,,,,,,,,,,,,,,,,,,,,,,,,,,,,,,,,,,,,,,145,got,Catalan,Sounds/cat_got.mp3,2020-06-19_10h41.53.182,TranslationElicitation_spa,3.2.4,Win32,60,55nvwehvwoepvho2ph29vhjf3,,1,0,80,40,1,79
,,,,,,,,,,,,,,,,,,,,,,,,,,,,,,,,,,,p,2.34800005,P,FALSE,,,,,,,165,pernil,Catalan,Sounds/cat_pernil.mp3,2020-06-19_10h41.53.182,TranslationElicitation_spa,3.2.4,Win32,60,55nvwehvwoepvho2ph29vhjf3,,1,0,80,58,1,79
,,,,,,,,,,,,,,,,,,,,,,,,,,,,,,,,,,,a,2.465000153,PA,FALSE,,,,,,,165,pernil,Catalan,Sounds/cat_pernil.mp3,2020-06-19_10h41.53.182,TranslationElicitation_spa,3.2.4,Win32,60,55nvwehvwoepvho2ph29vhjf3,,1,0,80,58,1,79
,,,,,,,,,,,,,,,,,,,,,,,,,,,,,,,,,,,n,2.59800005,PAN,FALSE,,,,,,,165,pernil,Catalan,Sounds/cat_pernil.mp3,2020-06-19_10h41.53.182,TranslationElicitation_spa,3.2.4,Win32,60,55nvwehvwoepvho2ph29vhjf3,,1,0,80,58,1,79
,,,,,,,,,,,,,,,,,,,,,,,,,,,,,,,,,,,t,2.86500001,PANT,FALSE,,,,,,,165,pernil,Catalan,Sounds/cat_pernil.mp3,2020-06-19_10h41.53.182,TranslationElicitation_spa,3.2.4,Win32,60,55nvwehvwoepvho2ph29vhjf3,,1,0,80,58,1,79
,,,,,,,,,,,,,,,,,,,,,,,,,,,,,,,,,,,a,2.965000153,PANTA,FALSE,,,,,,,165,pernil,Catalan,Sounds/cat_pernil.mp3,2020-06-19_10h41.53.182,TranslationElicitation_spa,3.2.4,Win32,60,55nvwehvwoepvho2ph29vhjf3,,1,0,80,58,1,79
,,,,,,,,,,,,,,,,,,,,,,,,,,,,,,,,,,,l,3.464000225,PANTAL,FALSE,,,,,,,165,pernil,Catalan,Sounds/cat_pernil.mp3,2020-06-19_10h41.53.182,TranslationElicitation_spa,3.2.4,Win32,60,55nvwehvwoepvho2ph29vhjf3,,1,0,80,58,1,79
,,,,,,,,,,,,,,,,,,,,,,,,,,,,,,,,,,,apostrophe,3.748000145,PANTAL,FALSE,,,,,,,165,pernil,Catalan,Sounds/cat_pernil.mp3,2020-06-19_10h41.53.182,TranslationElicitation_spa,3.2.4,Win32,60,55nvwehvwoepvho2ph29vhjf3,,1,0,80,58,1,79
,,,,,,,,,,,,,,,,,,,,,,,,,,,,,,,,,,,o,3.999000072,PANTALÓ,FALSE,,,,,,,165,pernil,Catalan,Sounds/cat_pernil.mp3,2020-06-19_10h41.53.182,TranslationElicitation_spa,3.2.4,Win32,60,55nvwehvwoepvho2ph29vhjf3,,1,0,80,58,1,79
,,,,,,,,,,,,,,,,,,,,,,,,,,,,,,,,,,,n,4.166000128,PANTALÓN,FALSE,,,,,,,165,pernil,Catalan,Sounds/cat_pernil.mp3,2020-06-19_10h41.53.182,TranslationElicitation_spa,3.2.4,Win32,60,55nvwehvwoepvho2ph29vhjf3,,1,0,80,58,1,79
,,,,,,,,,,,,,,,,,,,,,,,,,,,,,,,,,,,return,4.43200016,,FALSE,,,,,,,165,pernil,Catalan,Sounds/cat_pernil.mp3,2020-06-19_10h41.53.182,TranslationElicitation_spa,3.2.4,Win32,60,55nvwehvwoepvho2ph29vhjf3,4.43200016,1,0,80,58,1,79
,,,,,,,,,,,,,,,,,,,,,,,,,,,,,,,,,,,,,,,,,,,,,165,pernil,Catalan,Sounds/cat_pernil.mp3,2020-06-19_10h41.53.182,TranslationElicitation_spa,3.2.4,Win32,60,55nvwehvwoepvho2ph29vhjf3,,1,0,80,58,1,79
,,,,,,,,,,,,,,,,,,,,,,,,,,,,,,,,,,,h,1.381999969,H,FALSE,,,,,,,135,formiga,Catalan,Sounds/cat_formiga.mp3,2020-06-19_10h41.53.182,TranslationElicitation_spa,3.2.4,Win32,60,55nvwehvwoepvho2ph29vhjf3,,1,0,80,30,1,79
,,,,,,,,,,,,,,,,,,,,,,,,,,,,,,,,,,,o,1.714999914,HO,FALSE,,,,,,,135,formiga,Catalan,Sounds/cat_formiga.mp3,2020-06-19_10h41.53.182,TranslationElicitation_spa,3.2.4,Win32,60,55nvwehvwoepvho2ph29vhjf3,,1,0,80,30,1,79
,,,,,,,,,,,,,,,,,,,,,,,,,,,,,,,,,,,r,1.815000057,HOR,FALSE,,,,,,,135,formiga,Catalan,Sounds/cat_formiga.mp3,2020-06-19_10h41.53.182,TranslationElicitation_spa,3.2.4,Win32,60,55nvwehvwoepvho2ph29vhjf3,,1,0,80,30,1,79
,,,,,,,,,,,,,,,,,,,,,,,,,,,,,,,,,,,m,1.998000145,HORM,FALSE,,,,,,,135,formiga,Catalan,Sounds/cat_formiga.mp3,2020-06-19_10h41.53.182,TranslationElicitation_spa,3.2.4,Win32,60,55nvwehvwoepvho2ph29vhjf3,,1,0,80,30,1,79
,,,,,,,,,,,,,,,,,,,,,,,,,,,,,,,,,,,i,2.180999994,HORMI,FALSE,,,,,,,135,formiga,Catalan,Sounds/cat_formiga.mp3,2020-06-19_10h41.53.182,TranslationElicitation_spa,3.2.4,Win32,60,55nvwehvwoepvho2ph29vhjf3,,1,0,80,30,1,79
,,,,,,,,,,,,,,,,,,,,,,,,,,,,,,,,,,,g,2.398999929,HORMIG,FALSE,,,,,,,135,formiga,Catalan,Sounds/cat_formiga.mp3,2020-06-19_10h41.53.182,TranslationElicitation_spa,3.2.4,Win32,60,55nvwehvwoepvho2ph29vhjf3,,1,0,80,30,1,79
,,,,,,,,,,,,,,,,,,,,,,,,,,,,,,,,,,,a,2.5,HORMIGA,FALSE,,,,,,,135,formiga,Catalan,Sounds/cat_formiga.mp3,2020-06-19_10h41.53.182,TranslationElicitation_spa,3.2.4,Win32,60,55nvwehvwoepvho2ph29vhjf3,,1,0,80,30,1,79
,,,,,,,,,,,,,,,,,,,,,,,,,,,,,,,,,,,return,2.782000065,,FALSE,,,,,,,135,formiga,Catalan,Sounds/cat_formiga.mp3,2020-06-19_10h41.53.182,TranslationElicitation_spa,3.2.4,Win32,60,55nvwehvwoepvho2ph29vhjf3,2.782000065,1,0,80,30,1,79
,,,,,,,,,,,,,,,,,,,,,,,,,,,,,,,,,,,,,,,,,,,,,135,formiga,Catalan,Sounds/cat_formiga.mp3,2020-06-19_10h41.53.182,TranslationElicitation_spa,3.2.4,Win32,60,55nvwehvwoepvho2ph29vhjf3,,1,0,80,30,1,79
,,,,,,,,,,,,,,,,,,,,,,,,,,,,,,,,,,,m,1.315999985,M,FALSE,,,,,,,120,cama,Catalan,Sounds/cat_cama.mp3,2020-06-19_10h41.53.182,TranslationElicitation_spa,3.2.4,Win32,60,55nvwehvwoepvho2ph29vhjf3,,1,0,80,15,1,79
,,,,,,,,,,,,,,,,,,,,,,,,,,,,,,,,,,,a,1.414000034,MA,FALSE,,,,,,,120,cama,Catalan,Sounds/cat_cama.mp3,2020-06-19_10h41.53.182,TranslationElicitation_spa,3.2.4,Win32,60,55nvwehvwoepvho2ph29vhjf3,,1,0,80,15,1,79
,,,,,,,,,,,,,,,,,,,,,,,,,,,,,,,,,,,backspace,1.84800005,,TRUE,,,,,,,120,cama,Catalan,Sounds/cat_cama.mp3,2020-06-19_10h41.53.182,TranslationElicitation_spa,3.2.4,Win32,60,55nvwehvwoepvho2ph29vhjf3,,1,0,80,15,1,79
,,,,,,,,,,,,,,,,,,,,,,,,,,,,,,,,,,,backspace,2.08100009,,TRUE,,,,,,,120,cama,Catalan,Sounds/cat_cama.mp3,2020-06-19_10h41.53.182,TranslationElicitation_spa,3.2.4,Win32,60,55nvwehvwoepvho2ph29vhjf3,,1,0,80,15,1,79
,,,,,,,,,,,,,,,,,,,,,,,,,,,,,,,,,,,c,2.230999947,C,TRUE,,,,,,,120,cama,Catalan,Sounds/cat_cama.mp3,2020-06-19_10h41.53.182,TranslationElicitation_spa,3.2.4,Win32,60,55nvwehvwoepvho2ph29vhjf3,,1,0,80,15,1,79
,,,,,,,,,,,,,,,,,,,,,,,,,,,,,,,,,,,a,2.447999954,CA,TRUE,,,,,,,120,cama,Catalan,Sounds/cat_cama.mp3,2020-06-19_10h41.53.182,TranslationElicitation_spa,3.2.4,Win32,60,55nvwehvwoepvho2ph29vhjf3,,1,0,80,15,1,79
,,,,,,,,,,,,,,,,,,,,,,,,,,,,,,,,,,,m,2.548000097,CAM,TRUE,,,,,,,120,cama,Catalan,Sounds/cat_cama.mp3,2020-06-19_10h41.53.182,TranslationElicitation_spa,3.2.4,Win32,60,55nvwehvwoepvho2ph29vhjf3,,1,0,80,15,1,79
,,,,,,,,,,,,,,,,,,,,,,,,,,,,,,,,,,,a,2.664000034,CAMA,TRUE,,,,,,,120,cama,Catalan,Sounds/cat_cama.mp3,2020-06-19_10h41.53.182,TranslationElicitation_spa,3.2.4,Win32,60,55nvwehvwoepvho2ph29vhjf3,,1,0,80,15,1,79
,,,,,,,,,,,,,,,,,,,,,,,,,,,,,,,,,,,return,2.847000122,,TRUE,,,,,,,120,cama,Catalan,Sounds/cat_cama.mp3,2020-06-19_10h41.53.182,TranslationElicitation_spa,3.2.4,Win32,60,55nvwehvwoepvho2ph29vhjf3,2.847000122,1,0,80,15,1,79
,,,,,,,,,,,,,,,,,,,,,,,,,,,,,,,,,,,,,,,,,,,,,120,cama,Catalan,Sounds/cat_cama.mp3,2020-06-19_10h41.53.182,TranslationElicitation_spa,3.2.4,Win32,60,55nvwehvwoepvho2ph29vhjf3,,1,0,80,15,1,79
,,,,,,,,,,,,,,,,,,,,,,,,,,,,,,,,,,,c,2.480999947,C,FALSE,,,,,,,128,cuc,Catalan,Sounds/cat_cuc.mp3,2020-06-19_10h41.53.182,TranslationElicitation_spa,3.2.4,Win32,60,55nvwehvwoepvho2ph29vhjf3,,1,0,80,23,1,79
,,,,,,,,,,,,,,,,,,,,,,,,,,,,,,,,,,,o,2.56400013,CO,FALSE,,,,,,,128,cuc,Catalan,Sounds/cat_cuc.mp3,2020-06-19_10h41.53.182,TranslationElicitation_spa,3.2.4,Win32,60,55nvwehvwoepvho2ph29vhjf3,,1,0,80,23,1,79
,,,,,,,,,,,,,,,,,,,,,,,,,,,,,,,,,,,c,2.664000034,COC,FALSE,,,,,,,128,cuc,Catalan,Sounds/cat_cuc.mp3,2020-06-19_10h41.53.182,TranslationElicitation_spa,3.2.4,Win32,60,55nvwehvwoepvho2ph29vhjf3,,1,0,80,23,1,79
,,,,,,,,,,,,,,,,,,,,,,,,,,,,,,,,,,,i,2.748000145,COCI,FALSE,,,,,,,128,cuc,Catalan,Sounds/cat_cuc.mp3,2020-06-19_10h41.53.182,TranslationElicitation_spa,3.2.4,Win32,60,55nvwehvwoepvho2ph29vhjf3,,1,0,80,23,1,79
,,,,,,,,,,,,,,,,,,,,,,,,,,,,,,,,,,,n,2.898000002,COCIN,FALSE,,,,,,,128,cuc,Catalan,Sounds/cat_cuc.mp3,2020-06-19_10h41.53.182,TranslationElicitation_spa,3.2.4,Win32,60,55nvwehvwoepvho2ph29vhjf3,,1,0,80,23,1,79
,,,,,,,,,,,,,,,,,,,,,,,,,,,,,,,,,,,a,2.963999987,COCINA,FALSE,,,,,,,128,cuc,Catalan,Sounds/cat_cuc.mp3,2020-06-19_10h41.53.182,TranslationElicitation_spa,3.2.4,Win32,60,55nvwehvwoepvho2ph29vhjf3,,1,0,80,23,1,79
,,,,,,,,,,,,,,,,,,,,,,,,,,,,,,,,,,,r,3.190999985,COCINAR,FALSE,,,,,,,128,cuc,Catalan,Sounds/cat_cuc.mp3,2020-06-19_10h41.53.182,TranslationElicitation_spa,3.2.4,Win32,60,55nvwehvwoepvho2ph29vhjf3,,1,0,80,23,1,79
,,,,,,,,,,,,,,,,,,,,,,,,,,,,,,,,,,,return,3.54700017,,FALSE,,,,,,,128,cuc,Catalan,Sounds/cat_cuc.mp3,2020-06-19_10h41.53.182,TranslationElicitation_spa,3.2.4,Win32,60,55nvwehvwoepvho2ph29vhjf3,3.54700017,1,0,80,23,1,79
,,,,,,,,,,,,,,,,,,,,,,,,,,,,,,,,,,,,,,,,,,,,,128,cuc,Catalan,Sounds/cat_cuc.mp3,2020-06-19_10h41.53.182,TranslationElicitation_spa,3.2.4,Win32,60,55nvwehvwoepvho2ph29vhjf3,,1,0,80,23,1,79
,,,,,,,,,,,,,,,,,,,,,,,,,,,,,,,,,,,g,4.782000065,G,FALSE,,,,,,,110,berenar,Catalan,Sounds/cat_berenar.mp3,2020-06-19_10h41.53.182,TranslationElicitation_spa,3.2.4,Win32,60,55nvwehvwoepvho2ph29vhjf3,,1,0,80,5,1,79
,,,,,,,,,,,,,,,,,,,,,,,,,,,,,,,,,,,backspace,5.481999874,,TRUE,,,,,,,110,berenar,Catalan,Sounds/cat_berenar.mp3,2020-06-19_10h41.53.182,TranslationElicitation_spa,3.2.4,Win32,60,55nvwehvwoepvho2ph29vhjf3,,1,0,80,5,1,79
,,,,,,,,,,,,,,,,,,,,,,,,,,,,,,,,,,,b,6.297999859,B,TRUE,,,,,,,110,berenar,Catalan,Sounds/cat_berenar.mp3,2020-06-19_10h41.53.182,TranslationElicitation_spa,3.2.4,Win32,60,55nvwehvwoepvho2ph29vhjf3,,1,0,80,5,1,79
,,,,,,,,,,,,,,,,,,,,,,,,,,,,,,,,,,,r,7.36500001,BR,TRUE,,,,,,,110,berenar,Catalan,Sounds/cat_berenar.mp3,2020-06-19_10h41.53.182,TranslationElicitation_spa,3.2.4,Win32,60,55nvwehvwoepvho2ph29vhjf3,,1,0,80,5,1,79
,,,,,,,,,,,,,,,,,,,,,,,,,,,,,,,,,,,a,7.61500001,BRA,TRUE,,,,,,,110,berenar,Catalan,Sounds/cat_berenar.mp3,2020-06-19_10h41.53.182,TranslationElicitation_spa,3.2.4,Win32,60,55nvwehvwoepvho2ph29vhjf3,,1,0,80,5,1,79
,,,,,,,,,,,,,,,,,,,,,,,,,,,,,,,,,,,z,8.11500001,BRAZ,TRUE,,,,,,,110,berenar,Catalan,Sounds/cat_berenar.mp3,2020-06-19_10h41.53.182,TranslationElicitation_spa,3.2.4,Win32,60,55nvwehvwoepvho2ph29vhjf3,,1,0,80,5,1,79
,,,,,,,,,,,,,,,,,,,,,,,,,,,,,,,,,,,o,8.230999947,BRAZO,TRUE,,,,,,,110,berenar,Catalan,Sounds/cat_berenar.mp3,2020-06-19_10h41.53.182,TranslationElicitation_spa,3.2.4,Win32,60,55nvwehvwoepvho2ph29vhjf3,,1,0,80,5,1,79
,,,,,,,,,,,,,,,,,,,,,,,,,,,,,,,,,,,s,8.34800005,BRAZOS,TRUE,,,,,,,110,berenar,Catalan,Sounds/cat_berenar.mp3,2020-06-19_10h41.53.182,TranslationElicitation_spa,3.2.4,Win32,60,55nvwehvwoepvho2ph29vhjf3,,1,0,80,5,1,79
,,,,,,,,,,,,,,,,,,,,,,,,,,,,,,,,,,,return,8.547999859,,TRUE,,,,,,,110,berenar,Catalan,Sounds/cat_berenar.mp3,2020-06-19_10h41.53.182,TranslationElicitation_spa,3.2.4,Win32,60,55nvwehvwoepvho2ph29vhjf3,8.547999859,1,0,80,5,1,79
,,,,,,,,,,,,,,,,,,,,,,,,,,,,,,,,,,,,,,,,,,,,,110,berenar,Catalan,Sounds/cat_berenar.mp3,2020-06-19_10h41.53.182,TranslationElicitation_spa,3.2.4,Win32,60,55nvwehvwoepvho2ph29vhjf3,,1,0,80,5,1,79
,,,,,,,,,,,,,,,,,,,,,,,,,,,,,,,,,,,g,1.111999989,G,FALSE,,,,,,,146,guitarra,Catalan,Sounds/cat_guitarra.mp3,2020-06-19_10h41.53.182,TranslationElicitation_spa,3.2.4,Win32,60,55nvwehvwoepvho2ph29vhjf3,,1,0,80,41,1,79
,,,,,,,,,,,,,,,,,,,,,,,,,,,,,,,,,,,u,1.228999853,GU,FALSE,,,,,,,146,guitarra,Catalan,Sounds/cat_guitarra.mp3,2020-06-19_10h41.53.182,TranslationElicitation_spa,3.2.4,Win32,60,55nvwehvwoepvho2ph29vhjf3,,1,0,80,41,1,79
,,,,,,,,,,,,,,,,,,,,,,,,,,,,,,,,,,,i,1.411999941,GUI,FALSE,,,,,,,146,guitarra,Catalan,Sounds/cat_guitarra.mp3,2020-06-19_10h41.53.182,TranslationElicitation_spa,3.2.4,Win32,60,55nvwehvwoepvho2ph29vhjf3,,1,0,80,41,1,79
,,,,,,,,,,,,,,,,,,,,,,,,,,,,,,,,,,,t,1.711999893,GUIT,FALSE,,,,,,,146,guitarra,Catalan,Sounds/cat_guitarra.mp3,2020-06-19_10h41.53.182,TranslationElicitation_spa,3.2.4,Win32,60,55nvwehvwoepvho2ph29vhjf3,,1,0,80,41,1,79
,,,,,,,,,,,,,,,,,,,,,,,,,,,,,,,,,,,a,1.778999805,GUITA,FALSE,,,,,,,146,guitarra,Catalan,Sounds/cat_guitarra.mp3,2020-06-19_10h41.53.182,TranslationElicitation_spa,3.2.4,Win32,60,55nvwehvwoepvho2ph29vhjf3,,1,0,80,41,1,79
,,,,,,,,,,,,,,,,,,,,,,,,,,,,,,,,,,,r,1.944999933,GUITAR,FALSE,,,,,,,146,guitarra,Catalan,Sounds/cat_guitarra.mp3,2020-06-19_10h41.53.182,TranslationElicitation_spa,3.2.4,Win32,60,55nvwehvwoepvho2ph29vhjf3,,1,0,80,41,1,79
,,,,,,,,,,,,,,,,,,,,,,,,,,,,,,,,,,,r,2.062000036,GUITARR,FALSE,,,,,,,146,guitarra,Catalan,Sounds/cat_guitarra.mp3,2020-06-19_10h41.53.182,TranslationElicitation_spa,3.2.4,Win32,60,55nvwehvwoepvho2ph29vhjf3,,1,0,80,41,1,79
,,,,,,,,,,,,,,,,,,,,,,,,,,,,,,,,,,,a,2.246999979,GUITARRA,FALSE,,,,,,,146,guitarra,Catalan,Sounds/cat_guitarra.mp3,2020-06-19_10h41.53.182,TranslationElicitation_spa,3.2.4,Win32,60,55nvwehvwoepvho2ph29vhjf3,,1,0,80,41,1,79
,,,,,,,,,,,,,,,,,,,,,,,,,,,,,,,,,,,return,2.644999981,,FALSE,,,,,,,146,guitarra,Catalan,Sounds/cat_guitarra.mp3,2020-06-19_10h41.53.182,TranslationElicitation_spa,3.2.4,Win32,60,55nvwehvwoepvho2ph29vhjf3,2.644999981,1,0,80,41,1,79
,,,,,,,,,,,,,,,,,,,,,,,,,,,,,,,,,,,,,,,,,,,,,146,guitarra,Catalan,Sounds/cat_guitarra.mp3,2020-06-19_10h41.53.182,TranslationElicitation_spa,3.2.4,Win32,60,55nvwehvwoepvho2ph29vhjf3,,1,0,80,41,1,79
,,,,,,,,,,,,,,,,,,,,,,,,,,,,,,,,,,,return,7.695999861,,FALSE,,,,,,,133,estruc,Catalan,Sounds/cat_estruc.mp3,2020-06-19_10h41.53.182,TranslationElicitation_spa,3.2.4,Win32,60,55nvwehvwoepvho2ph29vhjf3,7.695999861,1,0,80,28,1,79
,,,,,,,,,,,,,,,,,,,,,,,,,,,,,,,,,,,,,,,,,,,,,133,estruc,Catalan,Sounds/cat_estruc.mp3,2020-06-19_10h41.53.182,TranslationElicitation_spa,3.2.4,Win32,60,55nvwehvwoepvho2ph29vhjf3,,1,0,80,28,1,79
,,,,,,,,,,,,,,,,,,,,,,,,,,,,,,,,,,,m,3.247999907,M,FALSE,,,,,,,172,poma,Catalan,Sounds/cat_poma.mp3,2020-06-19_10h41.53.182,TranslationElicitation_spa,3.2.4,Win32,60,55nvwehvwoepvho2ph29vhjf3,,1,0,80,64,1,79
,,,,,,,,,,,,,,,,,,,,,,,,,,,,,,,,,,,a,3.3349998,MA,FALSE,,,,,,,172,poma,Catalan,Sounds/cat_poma.mp3,2020-06-19_10h41.53.182,TranslationElicitation_spa,3.2.4,Win32,60,55nvwehvwoepvho2ph29vhjf3,,1,0,80,64,1,79
,,,,,,,,,,,,,,,,,,,,,,,,,,,,,,,,,,,n,3.476999998,MAN,FALSE,,,,,,,172,poma,Catalan,Sounds/cat_poma.mp3,2020-06-19_10h41.53.182,TranslationElicitation_spa,3.2.4,Win32,60,55nvwehvwoepvho2ph29vhjf3,,1,0,80,64,1,79
,,,,,,,,,,,,,,,,,,,,,,,,,,,,,,,,,,,z,3.597999811,MANZ,FALSE,,,,,,,172,poma,Catalan,Sounds/cat_poma.mp3,2020-06-19_10h41.53.182,TranslationElicitation_spa,3.2.4,Win32,60,55nvwehvwoepvho2ph29vhjf3,,1,0,80,64,1,79
,,,,,,,,,,,,,,,,,,,,,,,,,,,,,,,,,,,a,3.680999994,MANZA,FALSE,,,,,,,172,poma,Catalan,Sounds/cat_poma.mp3,2020-06-19_10h41.53.182,TranslationElicitation_spa,3.2.4,Win32,60,55nvwehvwoepvho2ph29vhjf3,,1,0,80,64,1,79
,,,,,,,,,,,,,,,,,,,,,,,,,,,,,,,,,,,n,3.832999945,MANZAN,FALSE,,,,,,,172,poma,Catalan,Sounds/cat_poma.mp3,2020-06-19_10h41.53.182,TranslationElicitation_spa,3.2.4,Win32,60,55nvwehvwoepvho2ph29vhjf3,,1,0,80,64,1,79
,,,,,,,,,,,,,,,,,,,,,,,,,,,,,,,,,,,a,3.881999969,MANZANA,FALSE,,,,,,,172,poma,Catalan,Sounds/cat_poma.mp3,2020-06-19_10h41.53.182,TranslationElicitation_spa,3.2.4,Win32,60,55nvwehvwoepvho2ph29vhjf3,,1,0,80,64,1,79
,,,,,,,,,,,,,,,,,,,,,,,,,,,,,,,,,,,return,4.330999851,,FALSE,,,,,,,172,poma,Catalan,Sounds/cat_poma.mp3,2020-06-19_10h41.53.182,TranslationElicitation_spa,3.2.4,Win32,60,55nvwehvwoepvho2ph29vhjf3,4.330999851,1,0,80,64,1,79
,,,,,,,,,,,,,,,,,,,,,,,,,,,,,,,,,,,,,,,,,,,,,172,poma,Catalan,Sounds/cat_poma.mp3,2020-06-19_10h41.53.182,TranslationElicitation_spa,3.2.4,Win32,60,55nvwehvwoepvho2ph29vhjf3,,1,0,80,64,1,79
,,,,,,,,,,,,,,,,,,,,,,,,,,,,,,,,,,,t,1.181999922,T,FALSE,,,,,,,181,tobogan,Catalan,Sounds/cat_tobogan.mp3,2020-06-19_10h41.53.182,TranslationElicitation_spa,3.2.4,Win32,60,55nvwehvwoepvho2ph29vhjf3,,1,0,80,72,1,79
,,,,,,,,,,,,,,,,,,,,,,,,,,,,,,,,,,,o,1.248999834,TO,FALSE,,,,,,,181,tobogan,Catalan,Sounds/cat_tobogan.mp3,2020-06-19_10h41.53.182,TranslationElicitation_spa,3.2.4,Win32,60,55nvwehvwoepvho2ph29vhjf3,,1,0,80,72,1,79
,,,,,,,,,,,,,,,,,,,,,,,,,,,,,,,,,,,b,1.514999866,TOB,FALSE,,,,,,,181,tobogan,Catalan,Sounds/cat_tobogan.mp3,2020-06-19_10h41.53.182,TranslationElicitation_spa,3.2.4,Win32,60,55nvwehvwoepvho2ph29vhjf3,,1,0,80,72,1,79
,,,,,,,,,,,,,,,,,,,,,,,,,,,,,,,,,,,o,1.61500001,TOBO,FALSE,,,,,,,181,tobogan,Catalan,Sounds/cat_tobogan.mp3,2020-06-19_10h41.53.182,TranslationElicitation_spa,3.2.4,Win32,60,55nvwehvwoepvho2ph29vhjf3,,1,0,80,72,1,79
,,,,,,,,,,,,,,,,,,,,,,,,,,,,,,,,,,,g,2.398000002,TOBOG,FALSE,,,,,,,181,tobogan,Catalan,Sounds/cat_tobogan.mp3,2020-06-19_10h41.53.182,TranslationElicitation_spa,3.2.4,Win32,60,55nvwehvwoepvho2ph29vhjf3,,1,0,80,72,1,79
,,,,,,,,,,,,,,,,,,,,,,,,,,,,,,,,,,,apostrophe,2.697999954,TOBOG,FALSE,,,,,,,181,tobogan,Catalan,Sounds/cat_tobogan.mp3,2020-06-19_10h41.53.182,TranslationElicitation_spa,3.2.4,Win32,60,55nvwehvwoepvho2ph29vhjf3,,1,0,80,72,1,79
,,,,,,,,,,,,,,,,,,,,,,,,,,,,,,,,,,,apostrophe,2.763999939,TOBOG,FALSE,,,,,,,181,tobogan,Catalan,Sounds/cat_tobogan.mp3,2020-06-19_10h41.53.182,TranslationElicitation_spa,3.2.4,Win32,60,55nvwehvwoepvho2ph29vhjf3,,1,0,80,72,1,79
,,,,,,,,,,,,,,,,,,,,,,,,,,,,,,,,,,,a,2.914000034,TOBOGÁ,FALSE,,,,,,,181,tobogan,Catalan,Sounds/cat_tobogan.mp3,2020-06-19_10h41.53.182,TranslationElicitation_spa,3.2.4,Win32,60,55nvwehvwoepvho2ph29vhjf3,,1,0,80,72,1,79
,,,,,,,,,,,,,,,,,,,,,,,,,,,,,,,,,,,n,3.031999826,TOBOGÁN,FALSE,,,,,,,181,tobogan,Catalan,Sounds/cat_tobogan.mp3,2020-06-19_10h41.53.182,TranslationElicitation_spa,3.2.4,Win32,60,55nvwehvwoepvho2ph29vhjf3,,1,0,80,72,1,79
,,,,,,,,,,,,,,,,,,,,,,,,,,,,,,,,,,,return,3.431999922,,FALSE,,,,,,,181,tobogan,Catalan,Sounds/cat_tobogan.mp3,2020-06-19_10h41.53.182,TranslationElicitation_spa,3.2.4,Win32,60,55nvwehvwoepvho2ph29vhjf3,3.431999922,1,0,80,72,1,79
,,,,,,,,,,,,,,,,,,,,,,,,,,,,,,,,,,,,,,,,,,,,,181,tobogan,Catalan,Sounds/cat_tobogan.mp3,2020-06-19_10h41.53.182,TranslationElicitation_spa,3.2.4,Win32,60,55nvwehvwoepvho2ph29vhjf3,,1,0,80,72,1,79
,,,,,,,,,,,,,,,,,,,,,,,,,,,,,,,,,,,return,2.015000105,,FALSE,,,,,,,106,aixeta,Catalan,Sounds/cat_aixeta.mp3,2020-06-19_10h41.53.182,TranslationElicitation_spa,3.2.4,Win32,60,55nvwehvwoepvho2ph29vhjf3,2.015000105,1,0,80,2,1,79
,,,,,,,,,,,,,,,,,,,,,,,,,,,,,,,,,,,,,,,,,,,,,106,aixeta,Catalan,Sounds/cat_aixeta.mp3,2020-06-19_10h41.53.182,TranslationElicitation_spa,3.2.4,Win32,60,55nvwehvwoepvho2ph29vhjf3,,1,0,80,2,1,79
,,,,,,,,,,,,,,,,,,,,,,,,,,,,,,,,,,,a,2.447999954,A,FALSE,,,,,,,141,gerd,Catalan,Sounds/cat_gerd.mp3,2020-06-19_10h41.53.182,TranslationElicitation_spa,3.2.4,Win32,60,55nvwehvwoepvho2ph29vhjf3,,1,0,80,36,1,79
,,,,,,,,,,,,,,,,,,,,,,,,,,,,,,,,,,,y,2.548000097,AY,FALSE,,,,,,,141,gerd,Catalan,Sounds/cat_gerd.mp3,2020-06-19_10h41.53.182,TranslationElicitation_spa,3.2.4,Win32,60,55nvwehvwoepvho2ph29vhjf3,,1,0,80,36,1,79
,,,,,,,,,,,,,,,,,,,,,,,,,,,,,,,,,,,e,2.732000113,AYE,FALSE,,,,,,,141,gerd,Catalan,Sounds/cat_gerd.mp3,2020-06-19_10h41.53.182,TranslationElicitation_spa,3.2.4,Win32,60,55nvwehvwoepvho2ph29vhjf3,,1,0,80,36,1,79
,,,,,,,,,,,,,,,,,,,,,,,,,,,,,,,,,,,r,2.832000017,AYER,FALSE,,,,,,,141,gerd,Catalan,Sounds/cat_gerd.mp3,2020-06-19_10h41.53.182,TranslationElicitation_spa,3.2.4,Win32,60,55nvwehvwoepvho2ph29vhjf3,,1,0,80,36,1,79
,,,,,,,,,,,,,,,,,,,,,,,,,,,,,,,,,,,return,3.015000105,,FALSE,,,,,,,141,gerd,Catalan,Sounds/cat_gerd.mp3,2020-06-19_10h41.53.182,TranslationElicitation_spa,3.2.4,Win32,60,55nvwehvwoepvho2ph29vhjf3,3.015000105,1,0,80,36,1,79
,,,,,,,,,,,,,,,,,,,,,,,,,,,,,,,,,,,,,,,,,,,,,141,gerd,Catalan,Sounds/cat_gerd.mp3,2020-06-19_10h41.53.182,TranslationElicitation_spa,3.2.4,Win32,60,55nvwehvwoepvho2ph29vhjf3,,1,0,80,36,1,79
,,,,,,,,,,,,,,,,,,,,,,,,,,,,,,,,,,,o,1.431999922,O,FALSE,,,,,,,144,gorra,Catalan,Sounds/cat_gorra.mp3,2020-06-19_10h41.53.182,TranslationElicitation_spa,3.2.4,Win32,60,55nvwehvwoepvho2ph29vhjf3,,1,0,80,39,1,79
,,,,,,,,,,,,,,,,,,,,,,,,,,,,,,,,,,,r,1.565000057,OR,FALSE,,,,,,,144,gorra,Catalan,Sounds/cat_gorra.mp3,2020-06-19_10h41.53.182,TranslationElicitation_spa,3.2.4,Win32,60,55nvwehvwoepvho2ph29vhjf3,,1,0,80,39,1,79
,,,,,,,,,,,,,,,,,,,,,,,,,,,,,,,,,,,r,1.730999947,ORR,FALSE,,,,,,,144,gorra,Catalan,Sounds/cat_gorra.mp3,2020-06-19_10h41.53.182,TranslationElicitation_spa,3.2.4,Win32,60,55nvwehvwoepvho2ph29vhjf3,,1,0,80,39,1,79
,,,,,,,,,,,,,,,,,,,,,,,,,,,,,,,,,,,backspace,2.08100009,O,TRUE,,,,,,,144,gorra,Catalan,Sounds/cat_gorra.mp3,2020-06-19_10h41.53.182,TranslationElicitation_spa,3.2.4,Win32,60,55nvwehvwoepvho2ph29vhjf3,,1,0,80,39,1,79
,,,,,,,,,,,,,,,,,,,,,,,,,,,,,,,,,,,backspace,2.381000042,,TRUE,,,,,,,144,gorra,Catalan,Sounds/cat_gorra.mp3,2020-06-19_10h41.53.182,TranslationElicitation_spa,3.2.4,Win32,60,55nvwehvwoepvho2ph29vhjf3,,1,0,80,39,1,79
,,,,,,,,,,,,,,,,,,,,,,,,,,,,,,,,,,,g,2.881000042,G,TRUE,,,,,,,144,gorra,Catalan,Sounds/cat_gorra.mp3,2020-06-19_10h41.53.182,TranslationElicitation_spa,3.2.4,Win32,60,55nvwehvwoepvho2ph29vhjf3,,1,0,80,39,1,79
,,,,,,,,,,,,,,,,,,,,,,,,,,,,,,,,,,,o,3.197999954,GO,TRUE,,,,,,,144,gorra,Catalan,Sounds/cat_gorra.mp3,2020-06-19_10h41.53.182,TranslationElicitation_spa,3.2.4,Win32,60,55nvwehvwoepvho2ph29vhjf3,,1,0,80,39,1,79
,,,,,,,,,,,,,,,,,,,,,,,,,,,,,,,,,,,r,3.31400013,GOR,TRUE,,,,,,,144,gorra,Catalan,Sounds/cat_gorra.mp3,2020-06-19_10h41.53.182,TranslationElicitation_spa,3.2.4,Win32,60,55nvwehvwoepvho2ph29vhjf3,,1,0,80,39,1,79
,,,,,,,,,,,,,,,,,,,,,,,,,,,,,,,,,,,r,3.447999954,GORR,TRUE,,,,,,,144,gorra,Catalan,Sounds/cat_gorra.mp3,2020-06-19_10h41.53.182,TranslationElicitation_spa,3.2.4,Win32,60,55nvwehvwoepvho2ph29vhjf3,,1,0,80,39,1,79
,,,,,,,,,,,,,,,,,,,,,,,,,,,,,,,,,,,a,3.697999954,GORRA,TRUE,,,,,,,144,gorra,Catalan,Sounds/cat_gorra.mp3,2020-06-19_10h41.53.182,TranslationElicitation_spa,3.2.4,Win32,60,55nvwehvwoepvho2ph29vhjf3,,1,0,80,39,1,79
,,,,,,,,,,,,,,,,,,,,,,,,,,,,,,,,,,,return,3.864000082,,TRUE,,,,,,,144,gorra,Catalan,Sounds/cat_gorra.mp3,2020-06-19_10h41.53.182,TranslationElicitation_spa,3.2.4,Win32,60,55nvwehvwoepvho2ph29vhjf3,3.864000082,1,0,80,39,1,79
,,,,,,,,,,,,,,,,,,,,,,,,,,,,,,,,,,,,,,,,,,,,,144,gorra,Catalan,Sounds/cat_gorra.mp3,2020-06-19_10h41.53.182,TranslationElicitation_spa,3.2.4,Win32,60,55nvwehvwoepvho2ph29vhjf3,,1,0,80,39,1,79
,,,,,,,,,,,,,,,,,,,,,,,,,,,,,,,,,,,h,1.659999847,H,FALSE,,,,,,,136,forquilla,Catalan,Sounds/cat_forquilla.mp3,2020-06-19_10h41.53.182,TranslationElicitation_spa,3.2.4,Win32,60,55nvwehvwoepvho2ph29vhjf3,,1,0,80,31,1,79
,,,,,,,,,,,,,,,,,,,,,,,,,,,,,,,,,,,o,1.9599998,HO,FALSE,,,,,,,136,forquilla,Catalan,Sounds/cat_forquilla.mp3,2020-06-19_10h41.53.182,TranslationElicitation_spa,3.2.4,Win32,60,55nvwehvwoepvho2ph29vhjf3,,1,0,80,31,1,79
,,,,,,,,,,,,,,,,,,,,,,,,,,,,,,,,,,,r,2.194000006,HOR,FALSE,,,,,,,136,forquilla,Catalan,Sounds/cat_forquilla.mp3,2020-06-19_10h41.53.182,TranslationElicitation_spa,3.2.4,Win32,60,55nvwehvwoepvho2ph29vhjf3,,1,0,80,31,1,79
,,,,,,,,,,,,,,,,,,,,,,,,,,,,,,,,,,,q,2.444000006,HORQ,FALSE,,,,,,,136,forquilla,Catalan,Sounds/cat_forquilla.mp3,2020-06-19_10h41.53.182,TranslationElicitation_spa,3.2.4,Win32,60,55nvwehvwoepvho2ph29vhjf3,,1,0,80,31,1,79
,,,,,,,,,,,,,,,,,,,,,,,,,,,,,,,,,,,u,2.559999943,HORQU,FALSE,,,,,,,136,forquilla,Catalan,Sounds/cat_forquilla.mp3,2020-06-19_10h41.53.182,TranslationElicitation_spa,3.2.4,Win32,60,55nvwehvwoepvho2ph29vhjf3,,1,0,80,31,1,79
,,,,,,,,,,,,,,,,,,,,,,,,,,,,,,,,,,,i,2.726999998,HORQUI,FALSE,,,,,,,136,forquilla,Catalan,Sounds/cat_forquilla.mp3,2020-06-19_10h41.53.182,TranslationElicitation_spa,3.2.4,Win32,60,55nvwehvwoepvho2ph29vhjf3,,1,0,80,31,1,79
,,,,,,,,,,,,,,,,,,,,,,,,,,,,,,,,,,,l,3.110999823,HORQUIL,FALSE,,,,,,,136,forquilla,Catalan,Sounds/cat_forquilla.mp3,2020-06-19_10h41.53.182,TranslationElicitation_spa,3.2.4,Win32,60,55nvwehvwoepvho2ph29vhjf3,,1,0,80,31,1,79
,,,,,,,,,,,,,,,,,,,,,,,,,,,,,,,,,,,l,3.282999992,HORQUILL,FALSE,,,,,,,136,forquilla,Catalan,Sounds/cat_forquilla.mp3,2020-06-19_10h41.53.182,TranslationElicitation_spa,3.2.4,Win32,60,55nvwehvwoepvho2ph29vhjf3,,1,0,80,31,1,79
,,,,,,,,,,,,,,,,,,,,,,,,,,,,,,,,,,,a,3.426999807,HORQUILLA,FALSE,,,,,,,136,forquilla,Catalan,Sounds/cat_forquilla.mp3,2020-06-19_10h41.53.182,TranslationElicitation_spa,3.2.4,Win32,60,55nvwehvwoepvho2ph29vhjf3,,1,0,80,31,1,79
,,,,,,,,,,,,,,,,,,,,,,,,,,,,,,,,,,,return,3.69299984,,FALSE,,,,,,,136,forquilla,Catalan,Sounds/cat_forquilla.mp3,2020-06-19_10h41.53.182,TranslationElicitation_spa,3.2.4,Win32,60,55nvwehvwoepvho2ph29vhjf3,3.69299984,1,0,80,31,1,79
,,,,,,,,,,,,,,,,,,,,,,,,,,,,,,,,,,,,,,,,,,,,,136,forquilla,Catalan,Sounds/cat_forquilla.mp3,2020-06-19_10h41.53.182,TranslationElicitation_spa,3.2.4,Win32,60,55nvwehvwoepvho2ph29vhjf3,,1,0,80,31,1,79
,,,,,,,,,,,,,,,,,,,,,,,,,,,,,,,,,,,a,1.864000082,A,FALSE,,,,,,,160,orella,Catalan,Sounds/cat_orella.mp3,2020-06-19_10h41.53.182,TranslationElicitation_spa,3.2.4,Win32,60,55nvwehvwoepvho2ph29vhjf3,,1,0,80,53,1,79
,,,,,,,,,,,,,,,,,,,,,,,,,,,,,,,,,,,u,2.048000097,AU,FALSE,,,,,,,160,orella,Catalan,Sounds/cat_orella.mp3,2020-06-19_10h41.53.182,TranslationElicitation_spa,3.2.4,Win32,60,55nvwehvwoepvho2ph29vhjf3,,1,0,80,53,1,79
,,,,,,,,,,,,,,,,,,,,,,,,,,,,,,,,,,,r,2.248000145,AUR,FALSE,,,,,,,160,orella,Catalan,Sounds/cat_orella.mp3,2020-06-19_10h41.53.182,TranslationElicitation_spa,3.2.4,Win32,60,55nvwehvwoepvho2ph29vhjf3,,1,0,80,53,1,79
,,,,,,,,,,,,,,,,,,,,,,,,,,,,,,,,,,,e,2.381000042,AURE,FALSE,,,,,,,160,orella,Catalan,Sounds/cat_orella.mp3,2020-06-19_10h41.53.182,TranslationElicitation_spa,3.2.4,Win32,60,55nvwehvwoepvho2ph29vhjf3,,1,0,80,53,1,79
,,,,,,,,,,,,,,,,,,,,,,,,,,,,,,,,,,,l,2.498000145,AUREL,FALSE,,,,,,,160,orella,Catalan,Sounds/cat_orella.mp3,2020-06-19_10h41.53.182,TranslationElicitation_spa,3.2.4,Win32,60,55nvwehvwoepvho2ph29vhjf3,,1,0,80,53,1,79
,,,,,,,,,,,,,,,,,,,,,,,,,,,,,,,,,,,i,2.763999939,AURELI,FALSE,,,,,,,160,orella,Catalan,Sounds/cat_orella.mp3,2020-06-19_10h41.53.182,TranslationElicitation_spa,3.2.4,Win32,60,55nvwehvwoepvho2ph29vhjf3,,1,0,80,53,1,79
,,,,,,,,,,,,,,,,,,,,,,,,,,,,,,,,,,,a,2.881999969,AURELIA,FALSE,,,,,,,160,orella,Catalan,Sounds/cat_orella.mp3,2020-06-19_10h41.53.182,TranslationElicitation_spa,3.2.4,Win32,60,55nvwehvwoepvho2ph29vhjf3,,1,0,80,53,1,79
,,,,,,,,,,,,,,,,,,,,,,,,,,,,,,,,,,,return,3.114000082,,FALSE,,,,,,,160,orella,Catalan,Sounds/cat_orella.mp3,2020-06-19_10h41.53.182,TranslationElicitation_spa,3.2.4,Win32,60,55nvwehvwoepvho2ph29vhjf3,3.114000082,1,0,80,53,1,79
,,,,,,,,,,,,,,,,,,,,,,,,,,,,,,,,,,,,,,,,,,,,,160,orella,Catalan,Sounds/cat_orella.mp3,2020-06-19_10h41.53.182,TranslationElicitation_spa,3.2.4,Win32,60,55nvwehvwoepvho2ph29vhjf3,,1,0,80,53,1,79
,,,,,,,,,,,,,,,,,,,,,,,,,,,,,,,,,,,c,1.29700017,C,FALSE,,,,,,,119,caixa,Catalan,Sounds/cat_caixa.mp3,2020-06-19_10h41.53.182,TranslationElicitation_spa,3.2.4,Win32,60,55nvwehvwoepvho2ph29vhjf3,,1,0,80,14,1,79
,,,,,,,,,,,,,,,,,,,,,,,,,,,,,,,,,,,a,1.614000082,CA,FALSE,,,,,,,119,caixa,Catalan,Sounds/cat_caixa.mp3,2020-06-19_10h41.53.182,TranslationElicitation_spa,3.2.4,Win32,60,55nvwehvwoepvho2ph29vhjf3,,1,0,80,14,1,79
,,,,,,,,,,,,,,,,,,,,,,,,,,,,,,,,,,,s,1.897000074,CAS,FALSE,,,,,,,119,caixa,Catalan,Sounds/cat_caixa.mp3,2020-06-19_10h41.53.182,TranslationElicitation_spa,3.2.4,Win32,60,55nvwehvwoepvho2ph29vhjf3,,1,0,80,14,1,79
,,,,,,,,,,,,,,,,,,,,,,,,,,,,,,,,,,,a,2.014000177,CASA,FALSE,,,,,,,119,caixa,Catalan,Sounds/cat_caixa.mp3,2020-06-19_10h41.53.182,TranslationElicitation_spa,3.2.4,Win32,60,55nvwehvwoepvho2ph29vhjf3,,1,0,80,14,1,79
,,,,,,,,,,,,,,,,,,,,,,,,,,,,,,,,,,,return,2.34800005,,FALSE,,,,,,,119,caixa,Catalan,Sounds/cat_caixa.mp3,2020-06-19_10h41.53.182,TranslationElicitation_spa,3.2.4,Win32,60,55nvwehvwoepvho2ph29vhjf3,2.34800005,1,0,80,14,1,79
,,,,,,,,,,,,,,,,,,,,,,,,,,,,,,,,,,,,,,,,,,,,,119,caixa,Catalan,Sounds/cat_caixa.mp3,2020-06-19_10h41.53.182,TranslationElicitation_spa,3.2.4,Win32,60,55nvwehvwoepvho2ph29vhjf3,,1,0,80,14,1,79
,,,,,,,,,,,,,,,,,,,,,,,,,,,,,,,,,,,a,1.18200016,A,FALSE,,,,,,,108,ampolla,Catalan,Sounds/cat_ampolla.mp3,2020-06-19_10h41.53.182,TranslationElicitation_spa,3.2.4,Win32,60,55nvwehvwoepvho2ph29vhjf3,,1,0,80,4,1,79
,,,,,,,,,,,,,,,,,,,,,,,,,,,,,,,,,,,m,1.282000065,AM,FALSE,,,,,,,108,ampolla,Catalan,Sounds/cat_ampolla.mp3,2020-06-19_10h41.53.182,TranslationElicitation_spa,3.2.4,Win32,60,55nvwehvwoepvho2ph29vhjf3,,1,0,80,4,1,79
,,,,,,,,,,,,,,,,,,,,,,,,,,,,,,,,,,,p,1.532000065,AMP,FALSE,,,,,,,108,ampolla,Catalan,Sounds/cat_ampolla.mp3,2020-06-19_10h41.53.182,TranslationElicitation_spa,3.2.4,Win32,60,55nvwehvwoepvho2ph29vhjf3,,1,0,80,4,1,79
,,,,,,,,,,,,,,,,,,,,,,,,,,,,,,,,,,,o,1.68200016,AMPO,FALSE,,,,,,,108,ampolla,Catalan,Sounds/cat_ampolla.mp3,2020-06-19_10h41.53.182,TranslationElicitation_spa,3.2.4,Win32,60,55nvwehvwoepvho2ph29vhjf3,,1,0,80,4,1,79
,,,,,,,,,,,,,,,,,,,,,,,,,,,,,,,,,,,l,1.86500001,AMPOL,FALSE,,,,,,,108,ampolla,Catalan,Sounds/cat_ampolla.mp3,2020-06-19_10h41.53.182,TranslationElicitation_spa,3.2.4,Win32,60,55nvwehvwoepvho2ph29vhjf3,,1,0,80,4,1,79
,,,,,,,,,,,,,,,,,,,,,,,,,,,,,,,,,,,l,1.999000072,AMPOLL,FALSE,,,,,,,108,ampolla,Catalan,Sounds/cat_ampolla.mp3,2020-06-19_10h41.53.182,TranslationElicitation_spa,3.2.4,Win32,60,55nvwehvwoepvho2ph29vhjf3,,1,0,80,4,1,79
,,,,,,,,,,,,,,,,,,,,,,,,,,,,,,,,,,,a,2.065000057,AMPOLLA,FALSE,,,,,,,108,ampolla,Catalan,Sounds/cat_ampolla.mp3,2020-06-19_10h41.53.182,TranslationElicitation_spa,3.2.4,Win32,60,55nvwehvwoepvho2ph29vhjf3,,1,0,80,4,1,79
,,,,,,,,,,,,,,,,,,,,,,,,,,,,,,,,,,,return,2.266000032,,FALSE,,,,,,,108,ampolla,Catalan,Sounds/cat_ampolla.mp3,2020-06-19_10h41.53.182,TranslationElicitation_spa,3.2.4,Win32,60,55nvwehvwoepvho2ph29vhjf3,2.266000032,1,0,80,4,1,79
,,,,,,,,,,,,,,,,,,,,,,,,,,,,,,,,,,,,,,,,,,,,,108,ampolla,Catalan,Sounds/cat_ampolla.mp3,2020-06-19_10h41.53.182,TranslationElicitation_spa,3.2.4,Win32,60,55nvwehvwoepvho2ph29vhjf3,,1,0,80,4,1,79
,,,,,,,,,,,,,,,,,,,,,,,,,,,,,,,,,,,t,1.881999969,T,FALSE,,,,,,,182,tomaquet,Catalan,Sounds/cat_tomaquet.mp3,2020-06-19_10h41.53.182,TranslationElicitation_spa,3.2.4,Win32,60,55nvwehvwoepvho2ph29vhjf3,,1,0,80,73,1,79
,,,,,,,,,,,,,,,,,,,,,,,,,,,,,,,,,,,o,1.96600008,TO,FALSE,,,,,,,182,tomaquet,Catalan,Sounds/cat_tomaquet.mp3,2020-06-19_10h41.53.182,TranslationElicitation_spa,3.2.4,Win32,60,55nvwehvwoepvho2ph29vhjf3,,1,0,80,73,1,79
,,,,,,,,,,,,,,,,,,,,,,,,,,,,,,,,,,,m,2.148999929,TOM,FALSE,,,,,,,182,tomaquet,Catalan,Sounds/cat_tomaquet.mp3,2020-06-19_10h41.53.182,TranslationElicitation_spa,3.2.4,Win32,60,55nvwehvwoepvho2ph29vhjf3,,1,0,80,73,1,79
,,,,,,,,,,,,,,,,,,,,,,,,,,,,,,,,,,,a,2.269999981,TOMA,FALSE,,,,,,,182,tomaquet,Catalan,Sounds/cat_tomaquet.mp3,2020-06-19_10h41.53.182,TranslationElicitation_spa,3.2.4,Win32,60,55nvwehvwoepvho2ph29vhjf3,,1,0,80,73,1,79
,,,,,,,,,,,,,,,,,,,,,,,,,,,,,,,,,,,y,2.44900012,TOMAY,FALSE,,,,,,,182,tomaquet,Catalan,Sounds/cat_tomaquet.mp3,2020-06-19_10h41.53.182,TranslationElicitation_spa,3.2.4,Win32,60,55nvwehvwoepvho2ph29vhjf3,,1,0,80,73,1,79
