consentKey.keys,consentKey.rt,languageL1Key.keys,languageL1Key.rt,languageL2,languageL2OralKey.keys,languageL2OralKey.rt,languageL2WrittenKey.keys,languageL2WrittenKey.rt,languageL3OralKey.keys,languageL3OralKey.rt,languageL3WrittenKey.keys,languageL3WrittenKey.rt,languageCatalanOralKey.keys,languageCatalanOralKey.rt,languageCatalanWrittenKey.keys,languageCatalanWrittenKey.rt,languageCatalanTimeKey.keys,languageCatalanTimeKey.rt,age,demoSexKey.keys,demoSexKey.rt,demoEducationKey.keys,demoEducationKey.rt,city,demoVisionKey.keys,demoVisionKey.rt,demoLanguageKey.keys,demoLanguageKey.rt,setupLocationKey.keys,setupLocationKey.rt,setupNoiseKey.keys,setupNoiseKey.rt,instructionsKeys.keys,instructionsKeys.rt,keyPressed,keyPressTime,inputText,error,trials_practice.thisRepN,trials_practice.thisTrialN,trials_practice.thisN,trials_practice.thisIndex,trials_practice.ran,trials_practice.order,trial_id,word,test_language,soundfile,date,expName,psychopyVersion,OS,frameRate,participant,trialOffset,trials.thisRepN,trials.thisTrialN,trials.thisN,trials.thisIndex,trials.ran,trials.order
space,2.67599988,e,3.22300005,FRANCÉS,4,7.368999958,4,3.440000057,3,2.762999773,4,2.439999819,2,8.40899992,1,3.842000008,1,5.665999889,23,m,1.486000061,4,5.749000072,MURCIA,n,6.017999887,n,2.391000032,1,2.569000006,2,9.347000122,space,15.39699984,t,1.996000051,T,FALSE,1,0,5,4,1,4,179,tigre,Catalan,Sounds/cat_tigre.mp3,2020-06-23_15h16.56.265,TranslationElicitation_spa,3.2.4,MacIntel,60,5ae9730c0335e200019e996a,,,,,,,
,,,,,,,,,,,,,,,,,,,,,,,,,,,,,,,,,,,i,2.131999969,TI,FALSE,1,0,5,4,1,4,179,tigre,Catalan,Sounds/cat_tigre.mp3,2020-06-23_15h16.56.265,TranslationElicitation_spa,3.2.4,MacIntel,60,5ae9730c0335e200019e996a,,,,,,,
,,,,,,,,,,,,,,,,,,,,,,,,,,,,,,,,,,,g,2.263000011,TIG,FALSE,1,0,5,4,1,4,179,tigre,Catalan,Sounds/cat_tigre.mp3,2020-06-23_15h16.56.265,TranslationElicitation_spa,3.2.4,MacIntel,60,5ae9730c0335e200019e996a,,,,,,,
,,,,,,,,,,,,,,,,,,,,,,,,,,,,,,,,,,,r,2.479000092,TIGR,FALSE,1,0,5,4,1,4,179,tigre,Catalan,Sounds/cat_tigre.mp3,2020-06-23_15h16.56.265,TranslationElicitation_spa,3.2.4,MacIntel,60,5ae9730c0335e200019e996a,,,,,,,
,,,,,,,,,,,,,,,,,,,,,,,,,,,,,,,,,,,e,2.679000139,TIGRE,FALSE,1,0,5,4,1,4,179,tigre,Catalan,Sounds/cat_tigre.mp3,2020-06-23_15h16.56.265,TranslationElicitation_spa,3.2.4,MacIntel,60,5ae9730c0335e200019e996a,,,,,,,
,,,,,,,,,,,,,,,,,,,,,,,,,,,,,,,,,,,return,4.113000154,,FALSE,1,0,5,4,1,4,179,tigre,Catalan,Sounds/cat_tigre.mp3,2020-06-23_15h16.56.265,TranslationElicitation_spa,3.2.4,MacIntel,60,5ae9730c0335e200019e996a,4.113000154,,,,,,
,,,,,,,,,,,,,,,,,,,,,,,,,,,,,,,,,,,,,,,1,0,5,4,1,4,179,tigre,Catalan,Sounds/cat_tigre.mp3,2020-06-23_15h16.56.265,TranslationElicitation_spa,3.2.4,MacIntel,60,5ae9730c0335e200019e996a,,,,,,,
,,,,,,,,,,,,,,,,,,,,,,,,,,,,,,,,,,,a,1.698999882,A,FALSE,1,0,5,0,1,4,109,arbre,Catalan,Sounds/cat_arbre.mp3,2020-06-23_15h16.56.265,TranslationElicitation_spa,3.2.4,MacIntel,60,5ae9730c0335e200019e996a,,,,,,,
,,,,,,,,,,,,,,,,,,,,,,,,,,,,,,,,,,,r,1.932999849,AR,FALSE,1,0,5,0,1,4,109,arbre,Catalan,Sounds/cat_arbre.mp3,2020-06-23_15h16.56.265,TranslationElicitation_spa,3.2.4,MacIntel,60,5ae9730c0335e200019e996a,,,,,,,
,,,,,,,,,,,,,,,,,,,,,,,,,,,,,,,,,,,b,2.231999874,ARB,FALSE,1,0,5,0,1,4,109,arbre,Catalan,Sounds/cat_arbre.mp3,2020-06-23_15h16.56.265,TranslationElicitation_spa,3.2.4,MacIntel,60,5ae9730c0335e200019e996a,,,,,,,
,,,,,,,,,,,,,,,,,,,,,,,,,,,,,,,,,,,o,2.432999849,ARBO,FALSE,1,0,5,0,1,4,109,arbre,Catalan,Sounds/cat_arbre.mp3,2020-06-23_15h16.56.265,TranslationElicitation_spa,3.2.4,MacIntel,60,5ae9730c0335e200019e996a,,,,,,,
,,,,,,,,,,,,,,,,,,,,,,,,,,,,,,,,,,,l,2.701999903,ARBOL,FALSE,1,0,5,0,1,4,109,arbre,Catalan,Sounds/cat_arbre.mp3,2020-06-23_15h16.56.265,TranslationElicitation_spa,3.2.4,MacIntel,60,5ae9730c0335e200019e996a,,,,,,,
,,,,,,,,,,,,,,,,,,,,,,,,,,,,,,,,,,,return,2.966999769,,FALSE,1,0,5,0,1,4,109,arbre,Catalan,Sounds/cat_arbre.mp3,2020-06-23_15h16.56.265,TranslationElicitation_spa,3.2.4,MacIntel,60,5ae9730c0335e200019e996a,2.966999769,,,,,,
,,,,,,,,,,,,,,,,,,,,,,,,,,,,,,,,,,,,,,,1,0,5,0,1,4,109,arbre,Catalan,Sounds/cat_arbre.mp3,2020-06-23_15h16.56.265,TranslationElicitation_spa,3.2.4,MacIntel,60,5ae9730c0335e200019e996a,,,,,,,
,,,,,,,,,,,,,,,,,,,,,,,,,,,,,,,,,,,c,1.951000214,C,FALSE,1,0,5,1,1,4,147,jaqueta,Catalan,Sounds/cat_jaqueta.mp3,2020-06-23_15h16.56.265,TranslationElicitation_spa,3.2.4,MacIntel,60,5ae9730c0335e200019e996a,,,,,,,
,,,,,,,,,,,,,,,,,,,,,,,,,,,,,,,,,,,h,2.084000111,CH,FALSE,1,0,5,1,1,4,147,jaqueta,Catalan,Sounds/cat_jaqueta.mp3,2020-06-23_15h16.56.265,TranslationElicitation_spa,3.2.4,MacIntel,60,5ae9730c0335e200019e996a,,,,,,,
,,,,,,,,,,,,,,,,,,,,,,,,,,,,,,,,,,,a,2.150000095,CHA,FALSE,1,0,5,1,1,4,147,jaqueta,Catalan,Sounds/cat_jaqueta.mp3,2020-06-23_15h16.56.265,TranslationElicitation_spa,3.2.4,MacIntel,60,5ae9730c0335e200019e996a,,,,,,,
,,,,,,,,,,,,,,,,,,,,,,,,,,,,,,,,,,,q,2.334000111,CHAQ,FALSE,1,0,5,1,1,4,147,jaqueta,Catalan,Sounds/cat_jaqueta.mp3,2020-06-23_15h16.56.265,TranslationElicitation_spa,3.2.4,MacIntel,60,5ae9730c0335e200019e996a,,,,,,,
,,,,,,,,,,,,,,,,,,,,,,,,,,,,,,,,,,,u,2.401000023,CHAQU,FALSE,1,0,5,1,1,4,147,jaqueta,Catalan,Sounds/cat_jaqueta.mp3,2020-06-23_15h16.56.265,TranslationElicitation_spa,3.2.4,MacIntel,60,5ae9730c0335e200019e996a,,,,,,,
,,,,,,,,,,,,,,,,,,,,,,,,,,,,,,,,,,,e,2.434000015,CHAQUE,FALSE,1,0,5,1,1,4,147,jaqueta,Catalan,Sounds/cat_jaqueta.mp3,2020-06-23_15h16.56.265,TranslationElicitation_spa,3.2.4,MacIntel,60,5ae9730c0335e200019e996a,,,,,,,
,,,,,,,,,,,,,,,,,,,,,,,,,,,,,,,,,,,t,2.634000063,CHAQUET,FALSE,1,0,5,1,1,4,147,jaqueta,Catalan,Sounds/cat_jaqueta.mp3,2020-06-23_15h16.56.265,TranslationElicitation_spa,3.2.4,MacIntel,60,5ae9730c0335e200019e996a,,,,,,,
,,,,,,,,,,,,,,,,,,,,,,,,,,,,,,,,,,,a,2.834000111,CHAQUETA,FALSE,1,0,5,1,1,4,147,jaqueta,Catalan,Sounds/cat_jaqueta.mp3,2020-06-23_15h16.56.265,TranslationElicitation_spa,3.2.4,MacIntel,60,5ae9730c0335e200019e996a,,,,,,,
,,,,,,,,,,,,,,,,,,,,,,,,,,,,,,,,,,,return,3.068000078,,FALSE,1,0,5,1,1,4,147,jaqueta,Catalan,Sounds/cat_jaqueta.mp3,2020-06-23_15h16.56.265,TranslationElicitation_spa,3.2.4,MacIntel,60,5ae9730c0335e200019e996a,3.067000151,,,,,,
,,,,,,,,,,,,,,,,,,,,,,,,,,,,,,,,,,,,,,,1,0,5,1,1,4,147,jaqueta,Catalan,Sounds/cat_jaqueta.mp3,2020-06-23_15h16.56.265,TranslationElicitation_spa,3.2.4,MacIntel,60,5ae9730c0335e200019e996a,,,,,,,
,,,,,,,,,,,,,,,,,,,,,,,,,,,,,,,,,,,h,2.335000038,H,FALSE,1,0,5,2,1,4,159,onada,Catalan,Sounds/cat_onada.mp3,2020-06-23_15h16.56.265,TranslationElicitation_spa,3.2.4,MacIntel,60,5ae9730c0335e200019e996a,,,,,,,
,,,,,,,,,,,,,,,,,,,,,,,,,,,,,,,,,,,a,2.402000189,HA,FALSE,1,0,5,2,1,4,159,onada,Catalan,Sounds/cat_onada.mp3,2020-06-23_15h16.56.265,TranslationElicitation_spa,3.2.4,MacIntel,60,5ae9730c0335e200019e996a,,,,,,,
,,,,,,,,,,,,,,,,,,,,,,,,,,,,,,,,,,,d,2.534000158,HAD,FALSE,1,0,5,2,1,4,159,onada,Catalan,Sounds/cat_onada.mp3,2020-06-23_15h16.56.265,TranslationElicitation_spa,3.2.4,MacIntel,60,5ae9730c0335e200019e996a,,,,,,,
,,,,,,,,,,,,,,,,,,,,,,,,,,,,,,,,,,,a,2.667000055,HADA,FALSE,1,0,5,2,1,4,159,onada,Catalan,Sounds/cat_onada.mp3,2020-06-23_15h16.56.265,TranslationElicitation_spa,3.2.4,MacIntel,60,5ae9730c0335e200019e996a,,,,,,,
,,,,,,,,,,,,,,,,,,,,,,,,,,,,,,,,,,,return,2.867000103,,FALSE,1,0,5,2,1,4,159,onada,Catalan,Sounds/cat_onada.mp3,2020-06-23_15h16.56.265,TranslationElicitation_spa,3.2.4,MacIntel,60,5ae9730c0335e200019e996a,2.867000103,,,,,,
,,,,,,,,,,,,,,,,,,,,,,,,,,,,,,,,,,,,,,,1,0,5,2,1,4,159,onada,Catalan,Sounds/cat_onada.mp3,2020-06-23_15h16.56.265,TranslationElicitation_spa,3.2.4,MacIntel,60,5ae9730c0335e200019e996a,,,,,,,
,,,,,,,,,,,,,,,,,,,,,,,,,,,,,,,,,,,p,1.637000084,P,FALSE,1,0,5,3,1,4,167,pingui,Catalan,Sounds/cat_pingui.mp3,2020-06-23_15h16.56.265,TranslationElicitation_spa,3.2.4,MacIntel,60,5ae9730c0335e200019e996a,,,,,,,
,,,,,,,,,,,,,,,,,,,,,,,,,,,,,,,,,,,i,1.751000166,PI,FALSE,1,0,5,3,1,4,167,pingui,Catalan,Sounds/cat_pingui.mp3,2020-06-23_15h16.56.265,TranslationElicitation_spa,3.2.4,MacIntel,60,5ae9730c0335e200019e996a,,,,,,,
,,,,,,,,,,,,,,,,,,,,,,,,,,,,,,,,,,,n,1.934000015,PIN,FALSE,1,0,5,3,1,4,167,pingui,Catalan,Sounds/cat_pingui.mp3,2020-06-23_15h16.56.265,TranslationElicitation_spa,3.2.4,MacIntel,60,5ae9730c0335e200019e996a,,,,,,,
,,,,,,,,,,,,,,,,,,,,,,,,,,,,,,,,,,,g,2.036000013,PING,FALSE,1,0,5,3,1,4,167,pingui,Catalan,Sounds/cat_pingui.mp3,2020-06-23_15h16.56.265,TranslationElicitation_spa,3.2.4,MacIntel,60,5ae9730c0335e200019e996a,,,,,,,
,,,,,,,,,,,,,,,,,,,,,,,,,,,,,,,,,,,u,2.164000034,PINGU,FALSE,1,0,5,3,1,4,167,pingui,Catalan,Sounds/cat_pingui.mp3,2020-06-23_15h16.56.265,TranslationElicitation_spa,3.2.4,MacIntel,60,5ae9730c0335e200019e996a,,,,,,,
,,,,,,,,,,,,,,,,,,,,,,,,,,,,,,,,,,,i,2.318000078,PINGUI,FALSE,1,0,5,3,1,4,167,pingui,Catalan,Sounds/cat_pingui.mp3,2020-06-23_15h16.56.265,TranslationElicitation_spa,3.2.4,MacIntel,60,5ae9730c0335e200019e996a,,,,,,,
,,,,,,,,,,,,,,,,,,,,,,,,,,,,,,,,,,,n,2.387000084,PINGUIN,FALSE,1,0,5,3,1,4,167,pingui,Catalan,Sounds/cat_pingui.mp3,2020-06-23_15h16.56.265,TranslationElicitation_spa,3.2.4,MacIntel,60,5ae9730c0335e200019e996a,,,,,,,
,,,,,,,,,,,,,,,,,,,,,,,,,,,,,,,,,,,o,2.535000086,PINGUINO,FALSE,1,0,5,3,1,4,167,pingui,Catalan,Sounds/cat_pingui.mp3,2020-06-23_15h16.56.265,TranslationElicitation_spa,3.2.4,MacIntel,60,5ae9730c0335e200019e996a,,,,,,,
,,,,,,,,,,,,,,,,,,,,,,,,,,,,,,,,,,,return,3.019000053,,FALSE,1,0,5,3,1,4,167,pingui,Catalan,Sounds/cat_pingui.mp3,2020-06-23_15h16.56.265,TranslationElicitation_spa,3.2.4,MacIntel,60,5ae9730c0335e200019e996a,3.019000053,,,,,,
,,,,,,,,,,,,,,,,,,,,,,,,,,,,,,,,,,,,,,,1,0,5,3,1,4,167,pingui,Catalan,Sounds/cat_pingui.mp3,2020-06-23_15h16.56.265,TranslationElicitation_spa,3.2.4,MacIntel,60,5ae9730c0335e200019e996a,,,,,,,
,,,,,,,,,,,,,,,,,,,,,,,,,,,,,,,,,,,p,1.40199995,P,FALSE,,,,,,,174,porta,Catalan,Sounds/cat_porta.mp3,2020-06-23_15h16.56.265,TranslationElicitation_spa,3.2.4,MacIntel,60,5ae9730c0335e200019e996a,,1,0,80,66,1,79
,,,,,,,,,,,,,,,,,,,,,,,,,,,,,,,,,,,u,1.600999832,PU,FALSE,,,,,,,174,porta,Catalan,Sounds/cat_porta.mp3,2020-06-23_15h16.56.265,TranslationElicitation_spa,3.2.4,MacIntel,60,5ae9730c0335e200019e996a,,1,0,80,66,1,79
,,,,,,,,,,,,,,,,,,,,,,,,,,,,,,,,,,,e,1.666999817,PUE,FALSE,,,,,,,174,porta,Catalan,Sounds/cat_porta.mp3,2020-06-23_15h16.56.265,TranslationElicitation_spa,3.2.4,MacIntel,60,5ae9730c0335e200019e996a,,1,0,80,66,1,79
,,,,,,,,,,,,,,,,,,,,,,,,,,,,,,,,,,,r,1.867999792,PUER,FALSE,,,,,,,174,porta,Catalan,Sounds/cat_porta.mp3,2020-06-23_15h16.56.265,TranslationElicitation_spa,3.2.4,MacIntel,60,5ae9730c0335e200019e996a,,1,0,80,66,1,79
,,,,,,,,,,,,,,,,,,,,,,,,,,,,,,,,,,,t,2.032999992,PUERT,FALSE,,,,,,,174,porta,Catalan,Sounds/cat_porta.mp3,2020-06-23_15h16.56.265,TranslationElicitation_spa,3.2.4,MacIntel,60,5ae9730c0335e200019e996a,,1,0,80,66,1,79
,,,,,,,,,,,,,,,,,,,,,,,,,,,,,,,,,,,a,2.250999928,PUERTA,FALSE,,,,,,,174,porta,Catalan,Sounds/cat_porta.mp3,2020-06-23_15h16.56.265,TranslationElicitation_spa,3.2.4,MacIntel,60,5ae9730c0335e200019e996a,,1,0,80,66,1,79
,,,,,,,,,,,,,,,,,,,,,,,,,,,,,,,,,,,return,2.53399992,,FALSE,,,,,,,174,porta,Catalan,Sounds/cat_porta.mp3,2020-06-23_15h16.56.265,TranslationElicitation_spa,3.2.4,MacIntel,60,5ae9730c0335e200019e996a,2.53399992,1,0,80,66,1,79
,,,,,,,,,,,,,,,,,,,,,,,,,,,,,,,,,,,,,,,,,,,,,174,porta,Catalan,Sounds/cat_porta.mp3,2020-06-23_15h16.56.265,TranslationElicitation_spa,3.2.4,MacIntel,60,5ae9730c0335e200019e996a,,1,0,80,66,1,79
,,,,,,,,,,,,,,,,,,,,,,,,,,,,,,,,,,,g,1.832999945,G,FALSE,,,,,,,140,gat,Catalan,Sounds/cat_gat.mp3,2020-06-23_15h16.56.265,TranslationElicitation_spa,3.2.4,MacIntel,60,5ae9730c0335e200019e996a,,1,0,80,35,1,79
,,,,,,,,,,,,,,,,,,,,,,,,,,,,,,,,,,,a,2.066999912,GA,FALSE,,,,,,,140,gat,Catalan,Sounds/cat_gat.mp3,2020-06-23_15h16.56.265,TranslationElicitation_spa,3.2.4,MacIntel,60,5ae9730c0335e200019e996a,,1,0,80,35,1,79
,,,,,,,,,,,,,,,,,,,,,,,,,,,,,,,,,,,t,2.332999945,GAT,FALSE,,,,,,,140,gat,Catalan,Sounds/cat_gat.mp3,2020-06-23_15h16.56.265,TranslationElicitation_spa,3.2.4,MacIntel,60,5ae9730c0335e200019e996a,,1,0,80,35,1,79
,,,,,,,,,,,,,,,,,,,,,,,,,,,,,,,,,,,o,2.399999857,GATO,FALSE,,,,,,,140,gat,Catalan,Sounds/cat_gat.mp3,2020-06-23_15h16.56.265,TranslationElicitation_spa,3.2.4,MacIntel,60,5ae9730c0335e200019e996a,,1,0,80,35,1,79
,,,,,,,,,,,,,,,,,,,,,,,,,,,,,,,,,,,return,2.8349998,,FALSE,,,,,,,140,gat,Catalan,Sounds/cat_gat.mp3,2020-06-23_15h16.56.265,TranslationElicitation_spa,3.2.4,MacIntel,60,5ae9730c0335e200019e996a,2.8349998,1,0,80,35,1,79
,,,,,,,,,,,,,,,,,,,,,,,,,,,,,,,,,,,,,,,,,,,,,140,gat,Catalan,Sounds/cat_gat.mp3,2020-06-23_15h16.56.265,TranslationElicitation_spa,3.2.4,MacIntel,60,5ae9730c0335e200019e996a,,1,0,80,35,1,79
,,,,,,,,,,,,,,,,,,,,,,,,,,,,,,,,,,,b,1.434000015,B,FALSE,,,,,,,111,bibero,Catalan,Sounds/cat_bibero.mp3,2020-06-23_15h16.56.265,TranslationElicitation_spa,3.2.4,MacIntel,60,5ae9730c0335e200019e996a,,1,0,80,6,1,79
,,,,,,,,,,,,,,,,,,,,,,,,,,,,,,,,,,,i,1.535000086,BI,FALSE,,,,,,,111,bibero,Catalan,Sounds/cat_bibero.mp3,2020-06-23_15h16.56.265,TranslationElicitation_spa,3.2.4,MacIntel,60,5ae9730c0335e200019e996a,,1,0,80,6,1,79
,,,,,,,,,,,,,,,,,,,,,,,,,,,,,,,,,,,b,1.835000038,BIB,FALSE,,,,,,,111,bibero,Catalan,Sounds/cat_bibero.mp3,2020-06-23_15h16.56.265,TranslationElicitation_spa,3.2.4,MacIntel,60,5ae9730c0335e200019e996a,,1,0,80,6,1,79
,,,,,,,,,,,,,,,,,,,,,,,,,,,,,,,,,,,e,2.052000046,BIBE,FALSE,,,,,,,111,bibero,Catalan,Sounds/cat_bibero.mp3,2020-06-23_15h16.56.265,TranslationElicitation_spa,3.2.4,MacIntel,60,5ae9730c0335e200019e996a,,1,0,80,6,1,79
,,,,,,,,,,,,,,,,,,,,,,,,,,,,,,,,,,,r,2.184999943,BIBER,FALSE,,,,,,,111,bibero,Catalan,Sounds/cat_bibero.mp3,2020-06-23_15h16.56.265,TranslationElicitation_spa,3.2.4,MacIntel,60,5ae9730c0335e200019e996a,,1,0,80,6,1,79
,,,,,,,,,,,,,,,,,,,,,,,,,,,,,,,,,,,apostrophe,2.304000139,BIBER,FALSE,,,,,,,111,bibero,Catalan,Sounds/cat_bibero.mp3,2020-06-23_15h16.56.265,TranslationElicitation_spa,3.2.4,MacIntel,60,5ae9730c0335e200019e996a,,1,0,80,6,1,79
,,,,,,,,,,,,,,,,,,,,,,,,,,,,,,,,,,,o,2.535000086,BIBERÓ,FALSE,,,,,,,111,bibero,Catalan,Sounds/cat_bibero.mp3,2020-06-23_15h16.56.265,TranslationElicitation_spa,3.2.4,MacIntel,60,5ae9730c0335e200019e996a,,1,0,80,6,1,79
,,,,,,,,,,,,,,,,,,,,,,,,,,,,,,,,,,,n,2.601999998,BIBERÓN,FALSE,,,,,,,111,bibero,Catalan,Sounds/cat_bibero.mp3,2020-06-23_15h16.56.265,TranslationElicitation_spa,3.2.4,MacIntel,60,5ae9730c0335e200019e996a,,1,0,80,6,1,79
,,,,,,,,,,,,,,,,,,,,,,,,,,,,,,,,,,,return,3.052999973,,FALSE,,,,,,,111,bibero,Catalan,Sounds/cat_bibero.mp3,2020-06-23_15h16.56.265,TranslationElicitation_spa,3.2.4,MacIntel,60,5ae9730c0335e200019e996a,3.052999973,1,0,80,6,1,79
,,,,,,,,,,,,,,,,,,,,,,,,,,,,,,,,,,,,,,,,,,,,,111,bibero,Catalan,Sounds/cat_bibero.mp3,2020-06-23_15h16.56.265,TranslationElicitation_spa,3.2.4,MacIntel,60,5ae9730c0335e200019e996a,,1,0,80,6,1,79
,,,,,,,,,,,,,,,,,,,,,,,,,,,,,,,,,,,e,1.614999771,E,FALSE,,,,,,,131,esponja,Catalan,Sounds/cat_esponja.mp3,2020-06-23_15h16.56.265,TranslationElicitation_spa,3.2.4,MacIntel,60,5ae9730c0335e200019e996a,,1,0,80,26,1,79
,,,,,,,,,,,,,,,,,,,,,,,,,,,,,,,,,,,s,1.799999952,ES,FALSE,,,,,,,131,esponja,Catalan,Sounds/cat_esponja.mp3,2020-06-23_15h16.56.265,TranslationElicitation_spa,3.2.4,MacIntel,60,5ae9730c0335e200019e996a,,1,0,80,26,1,79
,,,,,,,,,,,,,,,,,,,,,,,,,,,,,,,,,,,p,1.949999809,ESP,FALSE,,,,,,,131,esponja,Catalan,Sounds/cat_esponja.mp3,2020-06-23_15h16.56.265,TranslationElicitation_spa,3.2.4,MacIntel,60,5ae9730c0335e200019e996a,,1,0,80,26,1,79
,,,,,,,,,,,,,,,,,,,,,,,,,,,,,,,,,,,o,2.034999847,ESPO,FALSE,,,,,,,131,esponja,Catalan,Sounds/cat_esponja.mp3,2020-06-23_15h16.56.265,TranslationElicitation_spa,3.2.4,MacIntel,60,5ae9730c0335e200019e996a,,1,0,80,26,1,79
,,,,,,,,,,,,,,,,,,,,,,,,,,,,,,,,,,,n,2.265999794,ESPON,FALSE,,,,,,,131,esponja,Catalan,Sounds/cat_esponja.mp3,2020-06-23_15h16.56.265,TranslationElicitation_spa,3.2.4,MacIntel,60,5ae9730c0335e200019e996a,,1,0,80,26,1,79
,,,,,,,,,,,,,,,,,,,,,,,,,,,,,,,,,,,j,2.297999859,ESPONJ,FALSE,,,,,,,131,esponja,Catalan,Sounds/cat_esponja.mp3,2020-06-23_15h16.56.265,TranslationElicitation_spa,3.2.4,MacIntel,60,5ae9730c0335e200019e996a,,1,0,80,26,1,79
,,,,,,,,,,,,,,,,,,,,,,,,,,,,,,,,,,,a,2.433999777,ESPONJA,FALSE,,,,,,,131,esponja,Catalan,Sounds/cat_esponja.mp3,2020-06-23_15h16.56.265,TranslationElicitation_spa,3.2.4,MacIntel,60,5ae9730c0335e200019e996a,,1,0,80,26,1,79
,,,,,,,,,,,,,,,,,,,,,,,,,,,,,,,,,,,return,2.883999825,,FALSE,,,,,,,131,esponja,Catalan,Sounds/cat_esponja.mp3,2020-06-23_15h16.56.265,TranslationElicitation_spa,3.2.4,MacIntel,60,5ae9730c0335e200019e996a,2.883999825,1,0,80,26,1,79
,,,,,,,,,,,,,,,,,,,,,,,,,,,,,,,,,,,,,,,,,,,,,131,esponja,Catalan,Sounds/cat_esponja.mp3,2020-06-23_15h16.56.265,TranslationElicitation_spa,3.2.4,MacIntel,60,5ae9730c0335e200019e996a,,1,0,80,26,1,79
,,,,,,,,,,,,,,,,,,,,,,,,,,,,,,,,,,,t,1.468000174,T,FALSE,,,,,,,180,tisores,Catalan,Sounds/cat_tisores.mp3,2020-06-23_15h16.56.265,TranslationElicitation_spa,3.2.4,MacIntel,60,5ae9730c0335e200019e996a,,1,0,80,71,1,79
,,,,,,,,,,,,,,,,,,,,,,,,,,,,,,,,,,,i,1.518000126,TI,FALSE,,,,,,,180,tisores,Catalan,Sounds/cat_tisores.mp3,2020-06-23_15h16.56.265,TranslationElicitation_spa,3.2.4,MacIntel,60,5ae9730c0335e200019e996a,,1,0,80,71,1,79
,,,,,,,,,,,,,,,,,,,,,,,,,,,,,,,,,,,j,1.617000103,TIJ,FALSE,,,,,,,180,tisores,Catalan,Sounds/cat_tisores.mp3,2020-06-23_15h16.56.265,TranslationElicitation_spa,3.2.4,MacIntel,60,5ae9730c0335e200019e996a,,1,0,80,71,1,79
,,,,,,,,,,,,,,,,,,,,,,,,,,,,,,,,,,,e,1.733999968,TIJE,FALSE,,,,,,,180,tisores,Catalan,Sounds/cat_tisores.mp3,2020-06-23_15h16.56.265,TranslationElicitation_spa,3.2.4,MacIntel,60,5ae9730c0335e200019e996a,,1,0,80,71,1,79
,,,,,,,,,,,,,,,,,,,,,,,,,,,,,,,,,,,r,1.867000103,TIJER,FALSE,,,,,,,180,tisores,Catalan,Sounds/cat_tisores.mp3,2020-06-23_15h16.56.265,TranslationElicitation_spa,3.2.4,MacIntel,60,5ae9730c0335e200019e996a,,1,0,80,71,1,79
,,,,,,,,,,,,,,,,,,,,,,,,,,,,,,,,,,,a,2.035000086,TIJERA,FALSE,,,,,,,180,tisores,Catalan,Sounds/cat_tisores.mp3,2020-06-23_15h16.56.265,TranslationElicitation_spa,3.2.4,MacIntel,60,5ae9730c0335e200019e996a,,1,0,80,71,1,79
,,,,,,,,,,,,,,,,,,,,,,,,,,,,,,,,,,,s,2.100000143,TIJERAS,FALSE,,,,,,,180,tisores,Catalan,Sounds/cat_tisores.mp3,2020-06-23_15h16.56.265,TranslationElicitation_spa,3.2.4,MacIntel,60,5ae9730c0335e200019e996a,,1,0,80,71,1,79
,,,,,,,,,,,,,,,,,,,,,,,,,,,,,,,,,,,return,2.284000158,,FALSE,,,,,,,180,tisores,Catalan,Sounds/cat_tisores.mp3,2020-06-23_15h16.56.265,TranslationElicitation_spa,3.2.4,MacIntel,60,5ae9730c0335e200019e996a,2.284000158,1,0,80,71,1,79
,,,,,,,,,,,,,,,,,,,,,,,,,,,,,,,,,,,,,,,,,,,,,180,tisores,Catalan,Sounds/cat_tisores.mp3,2020-06-23_15h16.56.265,TranslationElicitation_spa,3.2.4,MacIntel,60,5ae9730c0335e200019e996a,,1,0,80,71,1,79
,,,,,,,,,,,,,,,,,,,,,,,,,,,,,,,,,,,v,9.203000069,V,FALSE,,,,,,,166,peu,Catalan,Sounds/cat_peu.mp3,2020-06-23_15h16.56.265,TranslationElicitation_spa,3.2.4,MacIntel,60,5ae9730c0335e200019e996a,,1,0,80,59,1,79
,,,,,,,,,,,,,,,,,,,,,,,,,,,,,,,,,,,a,9.30700016,VA,FALSE,,,,,,,166,peu,Catalan,Sounds/cat_peu.mp3,2020-06-23_15h16.56.265,TranslationElicitation_spa,3.2.4,MacIntel,60,5ae9730c0335e200019e996a,,1,0,80,59,1,79
,,,,,,,,,,,,,,,,,,,,,,,,,,,,,,,,,,,c,9.519999981,VAC,FALSE,,,,,,,166,peu,Catalan,Sounds/cat_peu.mp3,2020-06-23_15h16.56.265,TranslationElicitation_spa,3.2.4,MacIntel,60,5ae9730c0335e200019e996a,,1,0,80,59,1,79
,,,,,,,,,,,,,,,,,,,,,,,,,,,,,,,,,,,a,9.654000044,VACA,FALSE,,,,,,,166,peu,Catalan,Sounds/cat_peu.mp3,2020-06-23_15h16.56.265,TranslationElicitation_spa,3.2.4,MacIntel,60,5ae9730c0335e200019e996a,,1,0,80,59,1,79
,,,,,,,,,,,,,,,,,,,,,,,,,,,,,,,,,,,return,10.08700013,,FALSE,,,,,,,166,peu,Catalan,Sounds/cat_peu.mp3,2020-06-23_15h16.56.265,TranslationElicitation_spa,3.2.4,MacIntel,60,5ae9730c0335e200019e996a,10.08700013,1,0,80,59,1,79
,,,,,,,,,,,,,,,,,,,,,,,,,,,,,,,,,,,,,,,,,,,,,166,peu,Catalan,Sounds/cat_peu.mp3,2020-06-23_15h16.56.265,TranslationElicitation_spa,3.2.4,MacIntel,60,5ae9730c0335e200019e996a,,1,0,80,59,1,79
,,,,,,,,,,,,,,,,,,,,,,,,,,,,,,,,,,,p,1.184999943,P,FALSE,,,,,,,164,patata,Catalan,Sounds/cat_patata.mp3,2020-06-23_15h16.56.265,TranslationElicitation_spa,3.2.4,MacIntel,60,5ae9730c0335e200019e996a,,1,0,80,57,1,79
,,,,,,,,,,,,,,,,,,,,,,,,,,,,,,,,,,,a,1.26699996,PA,FALSE,,,,,,,164,patata,Catalan,Sounds/cat_patata.mp3,2020-06-23_15h16.56.265,TranslationElicitation_spa,3.2.4,MacIntel,60,5ae9730c0335e200019e996a,,1,0,80,57,1,79
,,,,,,,,,,,,,,,,,,,,,,,,,,,,,,,,,,,t,1.484999895,PAT,FALSE,,,,,,,164,patata,Catalan,Sounds/cat_patata.mp3,2020-06-23_15h16.56.265,TranslationElicitation_spa,3.2.4,MacIntel,60,5ae9730c0335e200019e996a,,1,0,80,57,1,79
,,,,,,,,,,,,,,,,,,,,,,,,,,,,,,,,,,,a,1.583999872,PATA,FALSE,,,,,,,164,patata,Catalan,Sounds/cat_patata.mp3,2020-06-23_15h16.56.265,TranslationElicitation_spa,3.2.4,MacIntel,60,5ae9730c0335e200019e996a,,1,0,80,57,1,79
,,,,,,,,,,,,,,,,,,,,,,,,,,,,,,,,,,,t,1.667999983,PATAT,FALSE,,,,,,,164,patata,Catalan,Sounds/cat_patata.mp3,2020-06-23_15h16.56.265,TranslationElicitation_spa,3.2.4,MacIntel,60,5ae9730c0335e200019e996a,,1,0,80,57,1,79
,,,,,,,,,,,,,,,,,,,,,,,,,,,,,,,,,,,a,1.767999887,PATATA,FALSE,,,,,,,164,patata,Catalan,Sounds/cat_patata.mp3,2020-06-23_15h16.56.265,TranslationElicitation_spa,3.2.4,MacIntel,60,5ae9730c0335e200019e996a,,1,0,80,57,1,79
,,,,,,,,,,,,,,,,,,,,,,,,,,,,,,,,,,,return,2.13499999,,FALSE,,,,,,,164,patata,Catalan,Sounds/cat_patata.mp3,2020-06-23_15h16.56.265,TranslationElicitation_spa,3.2.4,MacIntel,60,5ae9730c0335e200019e996a,2.13499999,1,0,80,57,1,79
,,,,,,,,,,,,,,,,,,,,,,,,,,,,,,,,,,,,,,,,,,,,,164,patata,Catalan,Sounds/cat_patata.mp3,2020-06-23_15h16.56.265,TranslationElicitation_spa,3.2.4,MacIntel,60,5ae9730c0335e200019e996a,,1,0,80,57,1,79
,,,,,,,,,,,,,,,,,,,,,,,,,,,,,,,,,,,b,1.400000095,B,FALSE,,,,,,,123,cavall,Catalan,Sounds/cat_cavall.mp3,2020-06-23_15h16.56.265,TranslationElicitation_spa,3.2.4,MacIntel,60,5ae9730c0335e200019e996a,,1,0,80,18,1,79
,,,,,,,,,,,,,,,,,,,,,,,,,,,,,,,,,,,a,1.549999952,BA,FALSE,,,,,,,123,cavall,Catalan,Sounds/cat_cavall.mp3,2020-06-23_15h16.56.265,TranslationElicitation_spa,3.2.4,MacIntel,60,5ae9730c0335e200019e996a,,1,0,80,18,1,79
,,,,,,,,,,,,,,,,,,,,,,,,,,,,,,,,,,,backspace,1.983999968,,TRUE,,,,,,,123,cavall,Catalan,Sounds/cat_cavall.mp3,2020-06-23_15h16.56.265,TranslationElicitation_spa,3.2.4,MacIntel,60,5ae9730c0335e200019e996a,,1,0,80,18,1,79
,,,,,,,,,,,,,,,,,,,,,,,,,,,,,,,,,,,backspace,2.167000055,,TRUE,,,,,,,123,cavall,Catalan,Sounds/cat_cavall.mp3,2020-06-23_15h16.56.265,TranslationElicitation_spa,3.2.4,MacIntel,60,5ae9730c0335e200019e996a,,1,0,80,18,1,79
,,,,,,,,,,,,,,,,,,,,,,,,,,,,,,,,,,,c,2.26699996,C,TRUE,,,,,,,123,cavall,Catalan,Sounds/cat_cavall.mp3,2020-06-23_15h16.56.265,TranslationElicitation_spa,3.2.4,MacIntel,60,5ae9730c0335e200019e996a,,1,0,80,18,1,79
,,,,,,,,,,,,,,,,,,,,,,,,,,,,,,,,,,,a,2.368000031,CA,TRUE,,,,,,,123,cavall,Catalan,Sounds/cat_cavall.mp3,2020-06-23_15h16.56.265,TranslationElicitation_spa,3.2.4,MacIntel,60,5ae9730c0335e200019e996a,,1,0,80,18,1,79
,,,,,,,,,,,,,,,,,,,,,,,,,,,,,,,,,,,b,2.5,CAB,TRUE,,,,,,,123,cavall,Catalan,Sounds/cat_cavall.mp3,2020-06-23_15h16.56.265,TranslationElicitation_spa,3.2.4,MacIntel,60,5ae9730c0335e200019e996a,,1,0,80,18,1,79
,,,,,,,,,,,,,,,,,,,,,,,,,,,,,,,,,,,l,2.799999952,CABL,TRUE,,,,,,,123,cavall,Catalan,Sounds/cat_cavall.mp3,2020-06-23_15h16.56.265,TranslationElicitation_spa,3.2.4,MacIntel,60,5ae9730c0335e200019e996a,,1,0,80,18,1,79
,,,,,,,,,,,,,,,,,,,,,,,,,,,,,,,,,,,a,3.134000063,CABLA,TRUE,,,,,,,123,cavall,Catalan,Sounds/cat_cavall.mp3,2020-06-23_15h16.56.265,TranslationElicitation_spa,3.2.4,MacIntel,60,5ae9730c0335e200019e996a,,1,0,80,18,1,79
,,,,,,,,,,,,,,,,,,,,,,,,,,,,,,,,,,,backspace,3.267999887,CAB,TRUE,,,,,,,123,cavall,Catalan,Sounds/cat_cavall.mp3,2020-06-23_15h16.56.265,TranslationElicitation_spa,3.2.4,MacIntel,60,5ae9730c0335e200019e996a,,1,0,80,18,1,79
,,,,,,,,,,,,,,,,,,,,,,,,,,,,,,,,,,,backspace,3.433000088,C,TRUE,,,,,,,123,cavall,Catalan,Sounds/cat_cavall.mp3,2020-06-23_15h16.56.265,TranslationElicitation_spa,3.2.4,MacIntel,60,5ae9730c0335e200019e996a,,1,0,80,18,1,79
,,,,,,,,,,,,,,,,,,,,,,,,,,,,,,,,,,,a,3.53399992,CA,TRUE,,,,,,,123,cavall,Catalan,Sounds/cat_cavall.mp3,2020-06-23_15h16.56.265,TranslationElicitation_spa,3.2.4,MacIntel,60,5ae9730c0335e200019e996a,,1,0,80,18,1,79
,,,,,,,,,,,,,,,,,,,,,,,,,,,,,,,,,,,l,3.63499999,CAL,TRUE,,,,,,,123,cavall,Catalan,Sounds/cat_cavall.mp3,2020-06-23_15h16.56.265,TranslationElicitation_spa,3.2.4,MacIntel,60,5ae9730c0335e200019e996a,,1,0,80,18,1,79
,,,,,,,,,,,,,,,,,,,,,,,,,,,,,,,,,,,l,3.818000078,CALL,TRUE,,,,,,,123,cavall,Catalan,Sounds/cat_cavall.mp3,2020-06-23_15h16.56.265,TranslationElicitation_spa,3.2.4,MacIntel,60,5ae9730c0335e200019e996a,,1,0,80,18,1,79
,,,,,,,,,,,,,,,,,,,,,,,,,,,,,,,,,,,backspace,4.167999983,CA,TRUE,,,,,,,123,cavall,Catalan,Sounds/cat_cavall.mp3,2020-06-23_15h16.56.265,TranslationElicitation_spa,3.2.4,MacIntel,60,5ae9730c0335e200019e996a,,1,0,80,18,1,79
,,,,,,,,,,,,,,,,,,,,,,,,,,,,,,,,,,,backspace,4.351999998,,TRUE,,,,,,,123,cavall,Catalan,Sounds/cat_cavall.mp3,2020-06-23_15h16.56.265,TranslationElicitation_spa,3.2.4,MacIntel,60,5ae9730c0335e200019e996a,,1,0,80,18,1,79
,,,,,,,,,,,,,,,,,,,,,,,,,,,,,,,,,,,c,5.16899991,C,TRUE,,,,,,,123,cavall,Catalan,Sounds/cat_cavall.mp3,2020-06-23_15h16.56.265,TranslationElicitation_spa,3.2.4,MacIntel,60,5ae9730c0335e200019e996a,,1,0,80,18,1,79
,,,,,,,,,,,,,,,,,,,,,,,,,,,,,,,,,,,a,5.302999973,CA,TRUE,,,,,,,123,cavall,Catalan,Sounds/cat_cavall.mp3,2020-06-23_15h16.56.265,TranslationElicitation_spa,3.2.4,MacIntel,60,5ae9730c0335e200019e996a,,1,0,80,18,1,79
,,,,,,,,,,,,,,,,,,,,,,,,,,,,,,,,,,,b,5.417999983,CAB,TRUE,,,,,,,123,cavall,Catalan,Sounds/cat_cavall.mp3,2020-06-23_15h16.56.265,TranslationElicitation_spa,3.2.4,MacIntel,60,5ae9730c0335e200019e996a,,1,0,80,18,1,79
,,,,,,,,,,,,,,,,,,,,,,,,,,,,,,,,,,,a,5.519000053,CABA,TRUE,,,,,,,123,cavall,Catalan,Sounds/cat_cavall.mp3,2020-06-23_15h16.56.265,TranslationElicitation_spa,3.2.4,MacIntel,60,5ae9730c0335e200019e996a,,1,0,80,18,1,79
,,,,,,,,,,,,,,,,,,,,,,,,,,,,,,,,,,,l,5.66899991,CABAL,TRUE,,,,,,,123,cavall,Catalan,Sounds/cat_cavall.mp3,2020-06-23_15h16.56.265,TranslationElicitation_spa,3.2.4,MacIntel,60,5ae9730c0335e200019e996a,,1,0,80,18,1,79
,,,,,,,,,,,,,,,,,,,,,,,,,,,,,,,,,,,l,5.819000006,CABALL,TRUE,,,,,,,123,cavall,Catalan,Sounds/cat_cavall.mp3,2020-06-23_15h16.56.265,TranslationElicitation_spa,3.2.4,MacIntel,60,5ae9730c0335e200019e996a,,1,0,80,18,1,79
,,,,,,,,,,,,,,,,,,,,,,,,,,,,,,,,,,,o,5.953000069,CABALLO,TRUE,,,,,,,123,cavall,Catalan,Sounds/cat_cavall.mp3,2020-06-23_15h16.56.265,TranslationElicitation_spa,3.2.4,MacIntel,60,5ae9730c0335e200019e996a,,1,0,80,18,1,79
,,,,,,,,,,,,,,,,,,,,,,,,,,,,,,,,,,,return,6.170000076,,TRUE,,,,,,,123,cavall,Catalan,Sounds/cat_cavall.mp3,2020-06-23_15h16.56.265,TranslationElicitation_spa,3.2.4,MacIntel,60,5ae9730c0335e200019e996a,6.170000076,1,0,80,18,1,79
,,,,,,,,,,,,,,,,,,,,,,,,,,,,,,,,,,,,,,,,,,,,,123,cavall,Catalan,Sounds/cat_cavall.mp3,2020-06-23_15h16.56.265,TranslationElicitation_spa,3.2.4,MacIntel,60,5ae9730c0335e200019e996a,,1,0,80,18,1,79
,,,,,,,,,,,,,,,,,,,,,,,,,,,,,,,,,,,s,3.585000038,S,FALSE,,,,,,,157,mussol,Catalan,Sounds/cat_mussol.mp3,2020-06-23_15h16.56.265,TranslationElicitation_spa,3.2.4,MacIntel,60,5ae9730c0335e200019e996a,,1,0,80,51,1,79
,,,,,,,,,,,,,,,,,,,,,,,,,,,,,,,,,,,o,3.636999846,SO,FALSE,,,,,,,157,mussol,Catalan,Sounds/cat_mussol.mp3,2020-06-23_15h16.56.265,TranslationElicitation_spa,3.2.4,MacIntel,60,5ae9730c0335e200019e996a,,1,0,80,51,1,79
,,,,,,,,,,,,,,,,,,,,,,,,,,,,,,,,,,,l,3.81799984,SOL,FALSE,,,,,,,157,mussol,Catalan,Sounds/cat_mussol.mp3,2020-06-23_15h16.56.265,TranslationElicitation_spa,3.2.4,MacIntel,60,5ae9730c0335e200019e996a,,1,0,80,51,1,79
,,,,,,,,,,,,,,,,,,,,,,,,,,,,,,,,,,,return,4.234999895,,FALSE,,,,,,,157,mussol,Catalan,Sounds/cat_mussol.mp3,2020-06-23_15h16.56.265,TranslationElicitation_spa,3.2.4,MacIntel,60,5ae9730c0335e200019e996a,4.234999895,1,0,80,51,1,79
,,,,,,,,,,,,,,,,,,,,,,,,,,,,,,,,,,,,,,,,,,,,,157,mussol,Catalan,Sounds/cat_mussol.mp3,2020-06-23_15h16.56.265,TranslationElicitation_spa,3.2.4,MacIntel,60,5ae9730c0335e200019e996a,,1,0,80,51,1,79
,,,,,,,,,,,,,,,,,,,,,,,,,,,,,,,,,,,s,8.220000029,S,FALSE,,,,,,,185,ulleres,Catalan,Sounds/cat_ulleres.mp3,2020-06-23_15h16.56.265,TranslationElicitation_spa,3.2.4,MacIntel,60,5ae9730c0335e200019e996a,,1,0,80,76,1,79
,,,,,,,,,,,,,,,,,,,,,,,,,,,,,,,,,,,a,8.335999966,SA,FALSE,,,,,,,185,ulleres,Catalan,Sounds/cat_ulleres.mp3,2020-06-23_15h16.56.265,TranslationElicitation_spa,3.2.4,MacIntel,60,5ae9730c0335e200019e996a,,1,0,80,76,1,79
,,,,,,,,,,,,,,,,,,,,,,,,,,,,,,,,,,,r,8.602999926,SAR,FALSE,,,,,,,185,ulleres,Catalan,Sounds/cat_ulleres.mp3,2020-06-23_15h16.56.265,TranslationElicitation_spa,3.2.4,MacIntel,60,5ae9730c0335e200019e996a,,1,0,80,76,1,79
,,,,,,,,,,,,,,,,,,,,,,,,,,,,,,,,,,,t,8.836999893,SART,FALSE,,,,,,,185,ulleres,Catalan,Sounds/cat_ulleres.mp3,2020-06-23_15h16.56.265,TranslationElicitation_spa,3.2.4,MacIntel,60,5ae9730c0335e200019e996a,,1,0,80,76,1,79
,,,,,,,,,,,,,,,,,,,,,,,,,,,,,,,,,,,e,9.053999901,SARTE,FALSE,,,,,,,185,ulleres,Catalan,Sounds/cat_ulleres.mp3,2020-06-23_15h16.56.265,TranslationElicitation_spa,3.2.4,MacIntel,60,5ae9730c0335e200019e996a,,1,0,80,76,1,79
,,,,,,,,,,,,,,,,,,,,,,,,,,,,,,,,,,,n,9.119999886,SARTEN,FALSE,,,,,,,185,ulleres,Catalan,Sounds/cat_ulleres.mp3,2020-06-23_15h16.56.265,TranslationElicitation_spa,3.2.4,MacIntel,60,5ae9730c0335e200019e996a,,1,0,80,76,1,79
,,,,,,,,,,,,,,,,,,,,,,,,,,,,,,,,,,,e,9.207999945,SARTENE,FALSE,,,,,,,185,ulleres,Catalan,Sounds/cat_ulleres.mp3,2020-06-23_15h16.56.265,TranslationElicitation_spa,3.2.4,MacIntel,60,5ae9730c0335e200019e996a,,1,0,80,76,1,79
,,,,,,,,,,,,,,,,,,,,,,,,,,,,,,,,,,,s,9.41899991,SARTENES,FALSE,,,,,,,185,ulleres,Catalan,Sounds/cat_ulleres.mp3,2020-06-23_15h16.56.265,TranslationElicitation_spa,3.2.4,MacIntel,60,5ae9730c0335e200019e996a,,1,0,80,76,1,79
,,,,,,,,,,,,,,,,,,,,,,,,,,,,,,,,,,,return,9.987999916,,FALSE,,,,,,,185,ulleres,Catalan,Sounds/cat_ulleres.mp3,2020-06-23_15h16.56.265,TranslationElicitation_spa,3.2.4,MacIntel,60,5ae9730c0335e200019e996a,9.986999989,1,0,80,76,1,79
,,,,,,,,,,,,,,,,,,,,,,,,,,,,,,,,,,,,,,,,,,,,,185,ulleres,Catalan,Sounds/cat_ulleres.mp3,2020-06-23_15h16.56.265,TranslationElicitation_spa,3.2.4,MacIntel,60,5ae9730c0335e200019e996a,,1,0,80,76,1,79
,,,,,,,,,,,,,,,,,,,,,,,,,,,,,,,,,,,m,2.633000135,M,FALSE,,,,,,,154,mirall,Catalan,Sounds/cat_mirall.mp3,2020-06-23_15h16.56.265,TranslationElicitation_spa,3.2.4,MacIntel,60,5ae9730c0335e200019e996a,,1,0,80,48,1,79
,,,,,,,,,,,,,,,,,,,,,,,,,,,,,,,,,,,i,2.683000088,MI,FALSE,,,,,,,154,mirall,Catalan,Sounds/cat_mirall.mp3,2020-06-23_15h16.56.265,TranslationElicitation_spa,3.2.4,MacIntel,60,5ae9730c0335e200019e996a,,1,0,80,48,1,79
,,,,,,,,,,,,,,,,,,,,,,,,,,,,,,,,,,,r,2.784000158,MIR,FALSE,,,,,,,154,mirall,Catalan,Sounds/cat_mirall.mp3,2020-06-23_15h16.56.265,TranslationElicitation_spa,3.2.4,MacIntel,60,5ae9730c0335e200019e996a,,1,0,80,48,1,79
,,,,,,,,,,,,,,,,,,,,,,,,,,,,,,,,,,,a,3,MIRA,FALSE,,,,,,,154,mirall,Catalan,Sounds/cat_mirall.mp3,2020-06-23_15h16.56.265,TranslationElicitation_spa,3.2.4,MacIntel,60,5ae9730c0335e200019e996a,,1,0,80,48,1,79
,,,,,,,,,,,,,,,,,,,,,,,,,,,,,,,,,,,d,3.049000025,MIRAD,FALSE,,,,,,,154,mirall,Catalan,Sounds/cat_mirall.mp3,2020-06-23_15h16.56.265,TranslationElicitation_spa,3.2.4,MacIntel,60,5ae9730c0335e200019e996a,,1,0,80,48,1,79
,,,,,,,,,,,,,,,,,,,,,,,,,,,,,,,,,,,o,3.151000023,MIRADO,FALSE,,,,,,,154,mirall,Catalan,Sounds/cat_mirall.mp3,2020-06-23_15h16.56.265,TranslationElicitation_spa,3.2.4,MacIntel,60,5ae9730c0335e200019e996a,,1,0,80,48,1,79
,,,,,,,,,,,,,,,,,,,,,,,,,,,,,,,,,,,r,3.282999992,MIRADOR,FALSE,,,,,,,154,mirall,Catalan,Sounds/cat_mirall.mp3,2020-06-23_15h16.56.265,TranslationElicitation_spa,3.2.4,MacIntel,60,5ae9730c0335e200019e996a,,1,0,80,48,1,79
,,,,,,,,,,,,,,,,,,,,,,,,,,,,,,,,,,,return,3.433000088,,FALSE,,,,,,,154,mirall,Catalan,Sounds/cat_mirall.mp3,2020-06-23_15h16.56.265,TranslationElicitation_spa,3.2.4,MacIntel,60,5ae9730c0335e200019e996a,3.433000088,1,0,80,48,1,79
,,,,,,,,,,,,,,,,,,,,,,,,,,,,,,,,,,,,,,,,,,,,,154,mirall,Catalan,Sounds/cat_mirall.mp3,2020-06-23_15h16.56.265,TranslationElicitation_spa,3.2.4,MacIntel,60,5ae9730c0335e200019e996a,,1,0,80,48,1,79
,,,,,,,,,,,,,,,,,,,,,,,,,,,,,,,,,,,z,3.88499999,Z,FALSE,,,,,,,176,samarreta,Catalan,Sounds/cat_samarreta.mp3,2020-06-23_15h16.56.265,TranslationElicitation_spa,3.2.4,MacIntel,60,5ae9730c0335e200019e996a,,1,0,80,68,1,79
,,,,,,,,,,,,,,,,,,,,,,,,,,,,,,,,,,,a,4.0849998,ZA,FALSE,,,,,,,176,samarreta,Catalan,Sounds/cat_samarreta.mp3,2020-06-23_15h16.56.265,TranslationElicitation_spa,3.2.4,MacIntel,60,5ae9730c0335e200019e996a,,1,0,80,68,1,79
,,,,,,,,,,,,,,,,,,,,,,,,,,,,,,,,,,,p,4.167999983,ZAP,FALSE,,,,,,,176,samarreta,Catalan,Sounds/cat_samarreta.mp3,2020-06-23_15h16.56.265,TranslationElicitation_spa,3.2.4,MacIntel,60,5ae9730c0335e200019e996a,,1,0,80,68,1,79
,,,,,,,,,,,,,,,,,,,,,,,,,,,,,,,,,,,a,4.28399992,ZAPA,FALSE,,,,,,,176,samarreta,Catalan,Sounds/cat_samarreta.mp3,2020-06-23_15h16.56.265,TranslationElicitation_spa,3.2.4,MacIntel,60,5ae9730c0335e200019e996a,,1,0,80,68,1,79
,,,,,,,,,,,,,,,,,,,,,,,,,,,,,,,,,,,t,4.583999872,ZAPAT,FALSE,,,,,,,176,samarreta,Catalan,Sounds/cat_samarreta.mp3,2020-06-23_15h16.56.265,TranslationElicitation_spa,3.2.4,MacIntel,60,5ae9730c0335e200019e996a,,1,0,80,68,1,79
,,,,,,,,,,,,,,,,,,,,,,,,,,,,,,,,,,,o,4.684999943,ZAPATO,FALSE,,,,,,,176,samarreta,Catalan,Sounds/cat_samarreta.mp3,2020-06-23_15h16.56.265,TranslationElicitation_spa,3.2.4,MacIntel,60,5ae9730c0335e200019e996a,,1,0,80,68,1,79
,,,,,,,,,,,,,,,,,,,,,,,,,,,,,,,,,,,s,4.855000019,ZAPATOS,FALSE,,,,,,,176,samarreta,Catalan,Sounds/cat_samarreta.mp3,2020-06-23_15h16.56.265,TranslationElicitation_spa,3.2.4,MacIntel,60,5ae9730c0335e200019e996a,,1,0,80,68,1,79
,,,,,,,,,,,,,,,,,,,,,,,,,,,,,,,,,,,return,6.052999973,,FALSE,,,,,,,176,samarreta,Catalan,Sounds/cat_samarreta.mp3,2020-06-23_15h16.56.265,TranslationElicitation_spa,3.2.4,MacIntel,60,5ae9730c0335e200019e996a,6.052999973,1,0,80,68,1,79
,,,,,,,,,,,,,,,,,,,,,,,,,,,,,,,,,,,,,,,,,,,,,176,samarreta,Catalan,Sounds/cat_samarreta.mp3,2020-06-23_15h16.56.265,TranslationElicitation_spa,3.2.4,MacIntel,60,5ae9730c0335e200019e996a,,1,0,80,68,1,79
,,,,,,,,,,,,,,,,,,,,,,,,,,,,,,,,,,,g,2.267999887,G,FALSE,,,,,,,143,globus,Catalan,Sounds/cat_globus.mp3,2020-06-23_15h16.56.265,TranslationElicitation_spa,3.2.4,MacIntel,60,5ae9730c0335e200019e996a,,1,0,80,38,1,79
,,,,,,,,,,,,,,,,,,,,,,,,,,,,,,,,,,,l,2.299000025,GL,FALSE,,,,,,,143,globus,Catalan,Sounds/cat_globus.mp3,2020-06-23_15h16.56.265,TranslationElicitation_spa,3.2.4,MacIntel,60,5ae9730c0335e200019e996a,,1,0,80,38,1,79
,,,,,,,,,,,,,,,,,,,,,,,,,,,,,,,,,,,o,2.53399992,GLO,FALSE,,,,,,,143,globus,Catalan,Sounds/cat_globus.mp3,2020-06-23_15h16.56.265,TranslationElicitation_spa,3.2.4,MacIntel,60,5ae9730c0335e200019e996a,,1,0,80,38,1,79
,,,,,,,,,,,,,,,,,,,,,,,,,,,,,,,,,,,b,2.599999905,GLOB,FALSE,,,,,,,143,globus,Catalan,Sounds/cat_globus.mp3,2020-06-23_15h16.56.265,TranslationElicitation_spa,3.2.4,MacIntel,60,5ae9730c0335e200019e996a,,1,0,80,38,1,79
,,,,,,,,,,,,,,,,,,,,,,,,,,,,,,,,,,,o,2.683000088,GLOBO,FALSE,,,,,,,143,globus,Catalan,Sounds/cat_globus.mp3,2020-06-23_15h16.56.265,TranslationElicitation_spa,3.2.4,MacIntel,60,5ae9730c0335e200019e996a,,1,0,80,38,1,79
,,,,,,,,,,,,,,,,,,,,,,,,,,,,,,,,,,,return,3.01699996,,FALSE,,,,,,,143,globus,Catalan,Sounds/cat_globus.mp3,2020-06-23_15h16.56.265,TranslationElicitation_spa,3.2.4,MacIntel,60,5ae9730c0335e200019e996a,3.01699996,1,0,80,38,1,79
,,,,,,,,,,,,,,,,,,,,,,,,,,,,,,,,,,,,,,,,,,,,,143,globus,Catalan,Sounds/cat_globus.mp3,2020-06-23_15h16.56.265,TranslationElicitation_spa,3.2.4,MacIntel,60,5ae9730c0335e200019e996a,,1,0,80,38,1,79
,,,,,,,,,,,,,,,,,,,,,,,,,,,,,,,,,,,p,3.167000055,P,FALSE,,,,,,,172,poma,Catalan,Sounds/cat_poma.mp3,2020-06-23_15h16.56.265,TranslationElicitation_spa,3.2.4,MacIntel,60,5ae9730c0335e200019e996a,,1,0,80,64,1,79
,,,,,,,,,,,,,,,,,,,,,,,,,,,,,,,,,,,o,3.282999992,PO,FALSE,,,,,,,172,poma,Catalan,Sounds/cat_poma.mp3,2020-06-23_15h16.56.265,TranslationElicitation_spa,3.2.4,MacIntel,60,5ae9730c0335e200019e996a,,1,0,80,64,1,79
,,,,,,,,,,,,,,,,,,,,,,,,,,,,,,,,,,,m,3.5,POM,FALSE,,,,,,,172,poma,Catalan,Sounds/cat_poma.mp3,2020-06-23_15h16.56.265,TranslationElicitation_spa,3.2.4,MacIntel,60,5ae9730c0335e200019e996a,,1,0,80,64,1,79
,,,,,,,,,,,,,,,,,,,,,,,,,,,,,,,,,,,o,3.599999905,POMO,FALSE,,,,,,,172,poma,Catalan,Sounds/cat_poma.mp3,2020-06-23_15h16.56.265,TranslationElicitation_spa,3.2.4,MacIntel,60,5ae9730c0335e200019e996a,,1,0,80,64,1,79
,,,,,,,,,,,,,,,,,,,,,,,,,,,,,,,,,,,return,3.899999857,,FALSE,,,,,,,172,poma,Catalan,Sounds/cat_poma.mp3,2020-06-23_15h16.56.265,TranslationElicitation_spa,3.2.4,MacIntel,60,5ae9730c0335e200019e996a,3.899999857,1,0,80,64,1,79
,,,,,,,,,,,,,,,,,,,,,,,,,,,,,,,,,,,,,,,,,,,,,172,poma,Catalan,Sounds/cat_poma.mp3,2020-06-23_15h16.56.265,TranslationElicitation_spa,3.2.4,MacIntel,60,5ae9730c0335e200019e996a,,1,0,80,64,1,79
,,,,,,,,,,,,,,,,,,,,,,,,,,,,,,,,,,,v,3.451999903,V,FALSE,,,,,,,150,lloro,Catalan,Sounds/cat_lloro.mp3,2020-06-23_15h16.56.265,TranslationElicitation_spa,3.2.4,MacIntel,60,5ae9730c0335e200019e996a,,1,0,80,44,1,79
,,,,,,,,,,,,,,,,,,,,,,,,,,,,,,,,,,,i,3.552000046,VI,FALSE,,,,,,,150,lloro,Catalan,Sounds/cat_lloro.mp3,2020-06-23_15h16.56.265,TranslationElicitation_spa,3.2.4,MacIntel,60,5ae9730c0335e200019e996a,,1,0,80,44,1,79
,,,,,,,,,,,,,,,,,,,,,,,,,,,,,,,,,,,a,3.803999901,VIA,FALSE,,,,,,,150,lloro,Catalan,Sounds/cat_lloro.mp3,2020-06-23_15h16.56.265,TranslationElicitation_spa,3.2.4,MacIntel,60,5ae9730c0335e200019e996a,,1,0,80,44,1,79
,,,,,,,,,,,,,,,,,,,,,,,,,,,,,,,,,,,j,3.88499999,VIAJ,FALSE,,,,,,,150,lloro,Catalan,Sounds/cat_lloro.mp3,2020-06-23_15h16.56.265,TranslationElicitation_spa,3.2.4,MacIntel,60,5ae9730c0335e200019e996a,,1,0,80,44,1,79
,,,,,,,,,,,,,,,,,,,,,,,,,,,,,,,,,,,e,3.984999895,VIAJE,FALSE,,,,,,,150,lloro,Catalan,Sounds/cat_lloro.mp3,2020-06-23_15h16.56.265,TranslationElicitation_spa,3.2.4,MacIntel,60,5ae9730c0335e200019e996a,,1,0,80,44,1,79
,,,,,,,,,,,,,,,,,,,,,,,,,,,,,,,,,,,return,4.218999863,,FALSE,,,,,,,150,lloro,Catalan,Sounds/cat_lloro.mp3,2020-06-23_15h16.56.265,TranslationElicitation_spa,3.2.4,MacIntel,60,5ae9730c0335e200019e996a,4.218999863,1,0,80,44,1,79
,,,,,,,,,,,,,,,,,,,,,,,,,,,,,,,,,,,,,,,,,,,,,150,lloro,Catalan,Sounds/cat_lloro.mp3,2020-06-23_15h16.56.265,TranslationElicitation_spa,3.2.4,MacIntel,60,5ae9730c0335e200019e996a,,1,0,80,44,1,79
,,,,,,,,,,,,,,,,,,,,,,,,,,,,,,,,,,,v,2.684000015,V,FALSE,,,,,,,112,bici,Catalan,Sounds/cat_bici.mp3,2020-06-23_15h16.56.265,TranslationElicitation_spa,3.2.4,MacIntel,60,5ae9730c0335e200019e996a,,1,0,80,7,1,79
,,,,,,,,,,,,,,,,,,,,,,,,,,,,,,,,,,,e,2.969000101,VE,FALSE,,,,,,,112,bici,Catalan,Sounds/cat_bici.mp3,2020-06-23_15h16.56.265,TranslationElicitation_spa,3.2.4,MacIntel,60,5ae9730c0335e200019e996a,,1,0,80,7,1,79
,,,,,,,,,,,,,,,,,,,,,,,,,,,,,,,,,,,r,3.105000019,VER,FALSE,,,,,,,112,bici,Catalan,Sounds/cat_bici.mp3,2020-06-23_15h16.56.265,TranslationElicitation_spa,3.2.4,MacIntel,60,5ae9730c0335e200019e996a,,1,0,80,7,1,79
,,,,,,,,,,,,,,,,,,,,,,,,,,,,,,,,,,,return,3.452000141,,FALSE,,,,,,,112,bici,Catalan,Sounds/cat_bici.mp3,2020-06-23_15h16.56.265,TranslationElicitation_spa,3.2.4,MacIntel,60,5ae9730c0335e200019e996a,3.452000141,1,0,80,7,1,79
,,,,,,,,,,,,,,,,,,,,,,,,,,,,,,,,,,,,,,,,,,,,,112,bici,Catalan,Sounds/cat_bici.mp3,2020-06-23_15h16.56.265,TranslationElicitation_spa,3.2.4,MacIntel,60,5ae9730c0335e200019e996a,,1,0,80,7,1,79
,,,,,,,,,,,,,,,,,,,,,,,,,,,,,,,,,,,c,1.149999857,C,FALSE,,,,,,,127,cotxe,Catalan,Sounds/cat_cotxe.mp3,2020-06-23_15h16.56.265,TranslationElicitation_spa,3.2.4,MacIntel,60,5ae9730c0335e200019e996a,,1,0,80,22,1,79
,,,,,,,,,,,,,,,,,,,,,,,,,,,,,,,,,,,o,1.250999928,CO,FALSE,,,,,,,127,cotxe,Catalan,Sounds/cat_cotxe.mp3,2020-06-23_15h16.56.265,TranslationElicitation_spa,3.2.4,MacIntel,60,5ae9730c0335e200019e996a,,1,0,80,22,1,79
,,,,,,,,,,,,,,,,,,,,,,,,,,,,,,,,,,,c,1.366999865,COC,FALSE,,,,,,,127,cotxe,Catalan,Sounds/cat_cotxe.mp3,2020-06-23_15h16.56.265,TranslationElicitation_spa,3.2.4,MacIntel,60,5ae9730c0335e200019e996a,,1,0,80,22,1,79
,,,,,,,,,,,,,,,,,,,,,,,,,,,,,,,,,,,h,1.53399992,COCH,FALSE,,,,,,,127,cotxe,Catalan,Sounds/cat_cotxe.mp3,2020-06-23_15h16.56.265,TranslationElicitation_spa,3.2.4,MacIntel,60,5ae9730c0335e200019e996a,,1,0,80,22,1,79
,,,,,,,,,,,,,,,,,,,,,,,,,,,,,,,,,,,e,1.651000023,COCHE,FALSE,,,,,,,127,cotxe,Catalan,Sounds/cat_cotxe.mp3,2020-06-23_15h16.56.265,TranslationElicitation_spa,3.2.4,MacIntel,60,5ae9730c0335e200019e996a,,1,0,80,22,1,79
,,,,,,,,,,,,,,,,,,,,,,,,,,,,,,,,,,,return,1.950999975,,FALSE,,,,,,,127,cotxe,Catalan,Sounds/cat_cotxe.mp3,2020-06-23_15h16.56.265,TranslationElicitation_spa,3.2.4,MacIntel,60,5ae9730c0335e200019e996a,1.950999975,1,0,80,22,1,79
,,,,,,,,,,,,,,,,,,,,,,,,,,,,,,,,,,,,,,,,,,,,,127,cotxe,Catalan,Sounds/cat_cotxe.mp3,2020-06-23_15h16.56.265,TranslationElicitation_spa,3.2.4,MacIntel,60,5ae9730c0335e200019e996a,,1,0,80,22,1,79
,,,,,,,,,,,,,,,,,,,,,,,,,,,,,,,,,,,a,1.633000135,A,FALSE,,,,,,,107,amanida,Catalan,Sounds/cat_amanida.mp3,2020-06-23_15h16.56.265,TranslationElicitation_spa,3.2.4,MacIntel,60,5ae9730c0335e200019e996a,,1,0,80,3,1,79
,,,,,,,,,,,,,,,,,,,,,,,,,,,,,,,,,,,m,1.999000072,AM,FALSE,,,,,,,107,amanida,Catalan,Sounds/cat_amanida.mp3,2020-06-23_15h16.56.265,TranslationElicitation_spa,3.2.4,MacIntel,60,5ae9730c0335e200019e996a,,1,0,80,3,1,79
,,,,,,,,,,,,,,,,,,,,,,,,,,,,,,,,,,,a,2.149000168,AMA,FALSE,,,,,,,107,amanida,Catalan,Sounds/cat_amanida.mp3,2020-06-23_15h16.56.265,TranslationElicitation_spa,3.2.4,MacIntel,60,5ae9730c0335e200019e996a,,1,0,80,3,1,79
,,,,,,,,,,,,,,,,,,,,,,,,,,,,,,,,,,,n,2.417999983,AMAN,FALSE,,,,,,,107,amanida,Catalan,Sounds/cat_amanida.mp3,2020-06-23_15h16.56.265,TranslationElicitation_spa,3.2.4,MacIntel,60,5ae9730c0335e200019e996a,,1,0,80,3,1,79
,,,,,,,,,,,,,,,,,,,,,,,,,,,,,,,,,,,e,2.584000111,AMANE,FALSE,,,,,,,107,amanida,Catalan,Sounds/cat_amanida.mp3,2020-06-23_15h16.56.265,TranslationElicitation_spa,3.2.4,MacIntel,60,5ae9730c0335e200019e996a,,1,0,80,3,1,79
,,,,,,,,,,,,,,,,,,,,,,,,,,,,,,,,,,,c,2.800000191,AMANEC,FALSE,,,,,,,107,amanida,Catalan,Sounds/cat_amanida.mp3,2020-06-23_15h16.56.265,TranslationElicitation_spa,3.2.4,MacIntel,60,5ae9730c0335e200019e996a,,1,0,80,3,1,79
,,,,,,,,,,,,,,,,,,,,,,,,,,,,,,,,,,,e,2.984000206,AMANECE,FALSE,,,,,,,107,amanida,Catalan,Sounds/cat_amanida.mp3,2020-06-23_15h16.56.265,TranslationElicitation_spa,3.2.4,MacIntel,60,5ae9730c0335e200019e996a,,1,0,80,3,1,79
,,,,,,,,,,,,,,,,,,,,,,,,,,,,,,,,,,,r,3.184000015,AMANECER,FALSE,,,,,,,107,amanida,Catalan,Sounds/cat_amanida.mp3,2020-06-23_15h16.56.265,TranslationElicitation_spa,3.2.4,MacIntel,60,5ae9730c0335e200019e996a,,1,0,80,3,1,79
,,,,,,,,,,,,,,,,,,,,,,,,,,,,,,,,,,,backspace,4.63499999,AMANEC,TRUE,,,,,,,107,amanida,Catalan,Sounds/cat_amanida.mp3,2020-06-23_15h16.56.265,TranslationElicitation_spa,3.2.4,MacIntel,60,5ae9730c0335e200019e996a,,1,0,80,3,1,79
,,,,,,,,,,,,,,,,,,,,,,,,,,,,,,,,,,,backspace,5.068000078,AMAN,TRUE,,,,,,,107,amanida,Catalan,Sounds/cat_amanida.mp3,2020-06-23_15h16.56.265,TranslationElicitation_spa,3.2.4,MacIntel,60,5ae9730c0335e200019e996a,,1,0,80,3,1,79
,,,,,,,,,,,,,,,,,,,,,,,,,,,,,,,,,,,backspace,5.234000206,AM,TRUE,,,,,,,107,amanida,Catalan,Sounds/cat_amanida.mp3,2020-06-23_15h16.56.265,TranslationElicitation_spa,3.2.4,MacIntel,60,5ae9730c0335e200019e996a,,1,0,80,3,1,79
,,,,,,,,,,,,,,,,,,,,,,,,,,,,,,,,,,,backspace,5.468000174,,TRUE,,,,,,,107,amanida,Catalan,Sounds/cat_amanida.mp3,2020-06-23_15h16.56.265,TranslationElicitation_spa,3.2.4,MacIntel,60,5ae9730c0335e200019e996a,,1,0,80,3,1,79
,,,,,,,,,,,,,,,,,,,,,,,,,,,,,,,,,,,m,6.019000053,M,TRUE,,,,,,,107,amanida,Catalan,Sounds/cat_amanida.mp3,2020-06-23_15h16.56.265,TranslationElicitation_spa,3.2.4,MacIntel,60,5ae9730c0335e200019e996a,,1,0,80,3,1,79
,,,,,,,,,,,,,,,,,,,,,,,,,,,,,,,,,,,a,6.153000116,MA,TRUE,,,,,,,107,amanida,Catalan,Sounds/cat_amanida.mp3,2020-06-23_15h16.56.265,TranslationElicitation_spa,3.2.4,MacIntel,60,5ae9730c0335e200019e996a,,1,0,80,3,1,79
,,,,,,,,,,,,,,,,,,,,,,,,,,,,,,,,,,,d,6.236000061,MAD,TRUE,,,,,,,107,amanida,Catalan,Sounds/cat_amanida.mp3,2020-06-23_15h16.56.265,TranslationElicitation_spa,3.2.4,MacIntel,60,5ae9730c0335e200019e996a,,1,0,80,3,1,79
,,,,,,,,,,,,,,,,,,,,,,,,,,,,,,,,,,,r,6.417999983,MADR,TRUE,,,,,,,107,amanida,Catalan,Sounds/cat_amanida.mp3,2020-06-23_15h16.56.265,TranslationElicitation_spa,3.2.4,MacIntel,60,5ae9730c0335e200019e996a,,1,0,80,3,1,79
,,,,,,,,,,,,,,,,,,,,,,,,,,,,,,,,,,,u,6.472000122,MADRU,TRUE,,,,,,,107,amanida,Catalan,Sounds/cat_amanida.mp3,2020-06-23_15h16.56.265,TranslationElicitation_spa,3.2.4,MacIntel,60,5ae9730c0335e200019e996a,,1,0,80,3,1,79
,,,,,,,,,,,,,,,,,,,,,,,,,,,,,,,,,,,g,6.63499999,MADRUG,TRUE,,,,,,,107,amanida,Catalan,Sounds/cat_amanida.mp3,2020-06-23_15h16.56.265,TranslationElicitation_spa,3.2.4,MacIntel,60,5ae9730c0335e200019e996a,,1,0,80,3,1,79
,,,,,,,,,,,,,,,,,,,,,,,,,,,,,,,,,,,a,6.935000181,MADRUGA,TRUE,,,,,,,107,amanida,Catalan,Sounds/cat_amanida.mp3,2020-06-23_15h16.56.265,TranslationElicitation_spa,3.2.4,MacIntel,60,5ae9730c0335e200019e996a,,1,0,80,3,1,79
,,,,,,,,,,,,,,,,,,,,,,,,,,,,,,,,,,,d,6.989000082,MADRUGAD,TRUE,,,,,,,107,amanida,Catalan,Sounds/cat_amanida.mp3,2020-06-23_15h16.56.265,TranslationElicitation_spa,3.2.4,MacIntel,60,5ae9730c0335e200019e996a,,1,0,80,3,1,79
,,,,,,,,,,,,,,,,,,,,,,,,,,,,,,,,,,,a,7.13499999,MADRUGADA,TRUE,,,,,,,107,amanida,Catalan,Sounds/cat_amanida.mp3,2020-06-23_15h16.56.265,TranslationElicitation_spa,3.2.4,MacIntel,60,5ae9730c0335e200019e996a,,1,0,80,3,1,79
,,,,,,,,,,,,,,,,,,,,,,,,,,,,,,,,,,,return,7.685000181,,TRUE,,,,,,,107,amanida,Catalan,Sounds/cat_amanida.mp3,2020-06-23_15h16.56.265,TranslationElicitation_spa,3.2.4,MacIntel,60,5ae9730c0335e200019e996a,7.685000181,1,0,80,3,1,79
,,,,,,,,,,,,,,,,,,,,,,,,,,,,,,,,,,,,,,,,,,,,,107,amanida,Catalan,Sounds/cat_amanida.mp3,2020-06-23_15h16.56.265,TranslationElicitation_spa,3.2.4,MacIntel,60,5ae9730c0335e200019e996a,,1,0,80,3,1,79
,,,,,,,,,,,,,,,,,,,,,,,,,,,,,,,,,,,c,3.769999981,C,FALSE,,,,,,,125,colom,Catalan,Sounds/cat_colom.mp3,2020-06-23_15h16.56.265,TranslationElicitation_spa,3.2.4,MacIntel,60,5ae9730c0335e200019e996a,,1,0,80,20,1,79
,,,,,,,,,,,,,,,,,,,,,,,,,,,,,,,,,,,u,3.916999817,CU,FALSE,,,,,,,125,colom,Catalan,Sounds/cat_colom.mp3,2020-06-23_15h16.56.265,TranslationElicitation_spa,3.2.4,MacIntel,60,5ae9730c0335e200019e996a,,1,0,80,20,1,79
,,,,,,,,,,,,,,,,,,,,,,,,,,,,,,,,,,,l,4.167999983,CUL,FALSE,,,,,,,125,colom,Catalan,Sounds/cat_colom.mp3,2020-06-23_15h16.56.265,TranslationElicitation_spa,3.2.4,MacIntel,60,5ae9730c0335e200019e996a,,1,0,80,20,1,79
,,,,,,,,,,,,,,,,,,,,,,,,,,,,,,,,,,,o,4.416999817,CULO,FALSE,,,,,,,125,colom,Catalan,Sounds/cat_colom.mp3,2020-06-23_15h16.56.265,TranslationElicitation_spa,3.2.4,MacIntel,60,5ae9730c0335e200019e996a,,1,0,80,20,1,79
,,,,,,,,,,,,,,,,,,,,,,,,,,,,,,,,,,,return,4.600999832,,FALSE,,,,,,,125,colom,Catalan,Sounds/cat_colom.mp3,2020-06-23_15h16.56.265,TranslationElicitation_spa,3.2.4,MacIntel,60,5ae9730c0335e200019e996a,4.600999832,1,0,80,20,1,79
,,,,,,,,,,,,,,,,,,,,,,,,,,,,,,,,,,,,,,,,,,,,,125,colom,Catalan,Sounds/cat_colom.mp3,2020-06-23_15h16.56.265,TranslationElicitation_spa,3.2.4,MacIntel,60,5ae9730c0335e200019e996a,,1,0,80,20,1,79
,,,,,,,,,,,,,,,,,,,,,,,,,,,,,,,,,,,o,6.905999899,O,FALSE,,,,,,,160,orella,Catalan,Sounds/cat_orella.mp3,2020-06-23_15h16.56.265,TranslationElicitation_spa,3.2.4,MacIntel,60,5ae9730c0335e200019e996a,,1,0,80,53,1,79
,,,,,,,,,,,,,,,,,,,,,,,,,,,,,,,,,,,i,7.106999874,OI,FALSE,,,,,,,160,orella,Catalan,Sounds/cat_orella.mp3,2020-06-23_15h16.56.265,TranslationElicitation_spa,3.2.4,MacIntel,60,5ae9730c0335e200019e996a,,1,0,80,53,1,79
,,,,,,,,,,,,,,,,,,,,,,,,,,,,,,,,,,,r,7.221999884,OIR,FALSE,,,,,,,160,orella,Catalan,Sounds/cat_orella.mp3,2020-06-23_15h16.56.265,TranslationElicitation_spa,3.2.4,MacIntel,60,5ae9730c0335e200019e996a,,1,0,80,53,1,79
,,,,,,,,,,,,,,,,,,,,,,,,,,,,,,,,,,,return,7.819999933,,FALSE,,,,,,,160,orella,Catalan,Sounds/cat_orella.mp3,2020-06-23_15h16.56.265,TranslationElicitation_spa,3.2.4,MacIntel,60,5ae9730c0335e200019e996a,7.819999933,1,0,80,53,1,79
,,,,,,,,,,,,,,,,,,,,,,,,,,,,,,,,,,,,,,,,,,,,,160,orella,Catalan,Sounds/cat_orella.mp3,2020-06-23_15h16.56.265,TranslationElicitation_spa,3.2.4,MacIntel,60,5ae9730c0335e200019e996a,,1,0,80,53,1,79
,,,,,,,,,,,,,,,,,,,,,,,,,,,,,,,,,,,f,4.752000093,F,FALSE,,,,,,,137,fulla,Catalan,Sounds/cat_fulla.mp3,2020-06-23_15h16.56.265,TranslationElicitation_spa,3.2.4,MacIntel,60,5ae9730c0335e200019e996a,,1,0,80,32,1,79
,,,,,,,,,,,,,,,,,,,,,,,,,,,,,,,,,,,o,4.835000038,FO,FALSE,,,,,,,137,fulla,Catalan,Sounds/cat_fulla.mp3,2020-06-23_15h16.56.265,TranslationElicitation_spa,3.2.4,MacIntel,60,5ae9730c0335e200019e996a,,1,0,80,32,1,79
,,,,,,,,,,,,,,,,,,,,,,,,,,,,,,,,,,,l,5.051000118,FOL,FALSE,,,,,,,137,fulla,Catalan,Sounds/cat_fulla.mp3,2020-06-23_15h16.56.265,TranslationElicitation_spa,3.2.4,MacIntel,60,5ae9730c0335e200019e996a,,1,0,80,32,1,79
,,,,,,,,,,,,,,,,,,,,,,,,,,,,,,,,,,,i,5.236000061,FOLI,FALSE,,,,,,,137,fulla,Catalan,Sounds/cat_fulla.mp3,2020-06-23_15h16.56.265,TranslationElicitation_spa,3.2.4,MacIntel,60,5ae9730c0335e200019e996a,,1,0,80,32,1,79
,,,,,,,,,,,,,,,,,,,,,,,,,,,,,,,,,,,o,5.38499999,FOLIO,FALSE,,,,,,,137,fulla,Catalan,Sounds/cat_fulla.mp3,2020-06-23_15h16.56.265,TranslationElicitation_spa,3.2.4,MacIntel,60,5ae9730c0335e200019e996a,,1,0,80,32,1,79
,,,,,,,,,,,,,,,,,,,,,,,,,,,,,,,,,,,return,5.65199995,,FALSE,,,,,,,137,fulla,Catalan,Sounds/cat_fulla.mp3,2020-06-23_15h16.56.265,TranslationElicitation_spa,3.2.4,MacIntel,60,5ae9730c0335e200019e996a,5.65199995,1,0,80,32,1,79
,,,,,,,,,,,,,,,,,,,,,,,,,,,,,,,,,,,,,,,,,,,,,137,fulla,Catalan,Sounds/cat_fulla.mp3,2020-06-23_15h16.56.265,TranslationElicitation_spa,3.2.4,MacIntel,60,5ae9730c0335e200019e996a,,1,0,80,32,1,79
,,,,,,,,,,,,,,,,,,,,,,,,,,,,,,,,,,,f,1.249000072,F,FALSE,,,,,,,134,flor,Catalan,Sounds/cat_flor.mp3,2020-06-23_15h16.56.265,TranslationElicitation_spa,3.2.4,MacIntel,60,5ae9730c0335e200019e996a,,1,0,80,29,1,79
,,,,,,,,,,,,,,,,,,,,,,,,,,,,,,,,,,,l,1.367000103,FL,FALSE,,,,,,,134,flor,Catalan,Sounds/cat_flor.mp3,2020-06-23_15h16.56.265,TranslationElicitation_spa,3.2.4,MacIntel,60,5ae9730c0335e200019e996a,,1,0,80,29,1,79
,,,,,,,,,,,,,,,,,,,,,,,,,,,,,,,,,,,o,1.582999945,FLO,FALSE,,,,,,,134,flor,Catalan,Sounds/cat_flor.mp3,2020-06-23_15h16.56.265,TranslationElicitation_spa,3.2.4,MacIntel,60,5ae9730c0335e200019e996a,,1,0,80,29,1,79
,,,,,,,,,,,,,,,,,,,,,,,,,,,,,,,,,,,r,1.65199995,FLOR,FALSE,,,,,,,134,flor,Catalan,Sounds/cat_flor.mp3,2020-06-23_15h16.56.265,TranslationElicitation_spa,3.2.4,MacIntel,60,5ae9730c0335e200019e996a,,1,0,80,29,1,79
,,,,,,,,,,,,,,,,,,,,,,,,,,,,,,,,,,,return,1.915999889,,FALSE,,,,,,,134,flor,Catalan,Sounds/cat_flor.mp3,2020-06-23_15h16.56.265,TranslationElicitation_spa,3.2.4,MacIntel,60,5ae9730c0335e200019e996a,1.915999889,1,0,80,29,1,79
,,,,,,,,,,,,,,,,,,,,,,,,,,,,,,,,,,,,,,,,,,,,,134,flor,Catalan,Sounds/cat_flor.mp3,2020-06-23_15h16.56.265,TranslationElicitation_spa,3.2.4,MacIntel,60,5ae9730c0335e200019e996a,,1,0,80,29,1,79
,,,,,,,,,,,,,,,,,,,,,,,,,,,,,,,,,,,a,3.483999968,A,FALSE,,,,,,,104,abella,Catalan,Sounds/cat_abella.mp3,2020-06-23_15h16.56.265,TranslationElicitation_spa,3.2.4,MacIntel,60,5ae9730c0335e200019e996a,,1,0,80,0,1,79
,,,,,,,,,,,,,,,,,,,,,,,,,,,,,,,,,,,b,3.587000132,AB,FALSE,,,,,,,104,abella,Catalan,Sounds/cat_abella.mp3,2020-06-23_15h16.56.265,TranslationElicitation_spa,3.2.4,MacIntel,60,5ae9730c0335e200019e996a,,1,0,80,0,1,79
,,,,,,,,,,,,,,,,,,,,,,,,,,,,,,,,,,,i,3.733999968,ABI,FALSE,,,,,,,104,abella,Catalan,Sounds/cat_abella.mp3,2020-06-23_15h16.56.265,TranslationElicitation_spa,3.2.4,MacIntel,60,5ae9730c0335e200019e996a,,1,0,80,0,1,79
,,,,,,,,,,,,,,,,,,,,,,,,,,,,,,,,,,,e,3.868000031,ABIE,FALSE,,,,,,,104,abella,Catalan,Sounds/cat_abella.mp3,2020-06-23_15h16.56.265,TranslationElicitation_spa,3.2.4,MacIntel,60,5ae9730c0335e200019e996a,,1,0,80,0,1,79
,,,,,,,,,,,,,,,,,,,,,,,,,,,,,,,,,,,r,4.318000078,ABIER,FALSE,,,,,,,104,abella,Catalan,Sounds/cat_abella.mp3,2020-06-23_15h16.56.265,TranslationElicitation_spa,3.2.4,MacIntel,60,5ae9730c0335e200019e996a,,1,0,80,0,1,79
,,,,,,,,,,,,,,,,,,,,,,,,,,,,,,,,,,,t,4.567000151,ABIERT,FALSE,,,,,,,104,abella,Catalan,Sounds/cat_abella.mp3,2020-06-23_15h16.56.265,TranslationElicitation_spa,3.2.4,MacIntel,60,5ae9730c0335e200019e996a,,1,0,80,0,1,79
,,,,,,,,,,,,,,,,,,,,,,,,,,,,,,,,,,,a,4.917999983,ABIERTA,FALSE,,,,,,,104,abella,Catalan,Sounds/cat_abella.mp3,2020-06-23_15h16.56.265,TranslationElicitation_spa,3.2.4,MacIntel,60,5ae9730c0335e200019e996a,,1,0,80,0,1,79
,,,,,,,,,,,,,,,,,,,,,,,,,,,,,,,,,,,return,5.436000109,,FALSE,,,,,,,104,abella,Catalan,Sounds/cat_abella.mp3,2020-06-23_15h16.56.265,TranslationElicitation_spa,3.2.4,MacIntel,60,5ae9730c0335e200019e996a,5.436000109,1,0,80,0,1,79
,,,,,,,,,,,,,,,,,,,,,,,,,,,,,,,,,,,,,,,,,,,,,104,abella,Catalan,Sounds/cat_abella.mp3,2020-06-23_15h16.56.265,TranslationElicitation_spa,3.2.4,MacIntel,60,5ae9730c0335e200019e996a,,1,0,80,0,1,79
,,,,,,,,,,,,,,,,,,,,,,,,,,,,,,,,,,,v,4.967999935,V,FALSE,,,,,,,118,bou,Catalan,Sounds/cat_bou.mp3,2020-06-23_15h16.56.265,TranslationElicitation_spa,3.2.4,MacIntel,60,5ae9730c0335e200019e996a,,1,0,80,13,1,79
,,,,,,,,,,,,,,,,,,,,,,,,,,,,,,,,,,,o,5.083999872,VO,FALSE,,,,,,,118,bou,Catalan,Sounds/cat_bou.mp3,2020-06-23_15h16.56.265,TranslationElicitation_spa,3.2.4,MacIntel,60,5ae9730c0335e200019e996a,,1,0,80,13,1,79
,,,,,,,,,,,,,,,,,,,,,,,,,,,,,,,,,,,z,5.351999998,VOZ,FALSE,,,,,,,118,bou,Catalan,Sounds/cat_bou.mp3,2020-06-23_15h16.56.265,TranslationElicitation_spa,3.2.4,MacIntel,60,5ae9730c0335e200019e996a,,1,0,80,13,1,79
,,,,,,,,,,,,,,,,,,,,,,,,,,,,,,,,,,,return,5.66899991,,FALSE,,,,,,,118,bou,Catalan,Sounds/cat_bou.mp3,2020-06-23_15h16.56.265,TranslationElicitation_spa,3.2.4,MacIntel,60,5ae9730c0335e200019e996a,5.66899991,1,0,80,13,1,79
,,,,,,,,,,,,,,,,,,,,,,,,,,,,,,,,,,,,,,,,,,,,,118,bou,Catalan,Sounds/cat_bou.mp3,2020-06-23_15h16.56.265,TranslationElicitation_spa,3.2.4,MacIntel,60,5ae9730c0335e200019e996a,,1,0,80,13,1,79
,,,,,,,,,,,,,,,,,,,,,,,,,,,,,,,,,,,b,2.052999973,B,FALSE,,,,,,,117,boto,Catalan,Sounds/cat_boto.mp3,2020-06-23_15h16.56.265,TranslationElicitation_spa,3.2.4,MacIntel,60,5ae9730c0335e200019e996a,,1,0,80,12,1,79
,,,,,,,,,,,,,,,,,,,,,,,,,,,,,,,,,,,o,2.252000093,BO,FALSE,,,,,,,117,boto,Catalan,Sounds/cat_boto.mp3,2020-06-23_15h16.56.265,TranslationElicitation_spa,3.2.4,MacIntel,60,5ae9730c0335e200019e996a,,1,0,80,12,1,79
,,,,,,,,,,,,,,,,,,,,,,,,,,,,,,,,,,,t,2.351000071,BOT,FALSE,,,,,,,117,boto,Catalan,Sounds/cat_boto.mp3,2020-06-23_15h16.56.265,TranslationElicitation_spa,3.2.4,MacIntel,60,5ae9730c0335e200019e996a,,1,0,80,12,1,79
,,,,,,,,,,,,,,,,,,,,,,,,,,,,,,,,,,,apostrophe,2.554000139,BOT,FALSE,,,,,,,117,boto,Catalan,Sounds/cat_boto.mp3,2020-06-23_15h16.56.265,TranslationElicitation_spa,3.2.4,MacIntel,60,5ae9730c0335e200019e996a,,1,0,80,12,1,79
,,,,,,,,,,,,,,,,,,,,,,,,,,,,,,,,,,,o,2.818000078,BOTÓ,FALSE,,,,,,,117,boto,Catalan,Sounds/cat_boto.mp3,2020-06-23_15h16.56.265,TranslationElicitation_spa,3.2.4,MacIntel,60,5ae9730c0335e200019e996a,,1,0,80,12,1,79
,,,,,,,,,,,,,,,,,,,,,,,,,,,,,,,,,,,n,2.868999958,BOTÓN,FALSE,,,,,,,117,boto,Catalan,Sounds/cat_boto.mp3,2020-06-23_15h16.56.265,TranslationElicitation_spa,3.2.4,MacIntel,60,5ae9730c0335e200019e996a,,1,0,80,12,1,79
,,,,,,,,,,,,,,,,,,,,,,,,,,,,,,,,,,,return,3.289000034,,FALSE,,,,,,,117,boto,Catalan,Sounds/cat_boto.mp3,2020-06-23_15h16.56.265,TranslationElicitation_spa,3.2.4,MacIntel,60,5ae9730c0335e200019e996a,3.288000107,1,0,80,12,1,79
,,,,,,,,,,,,,,,,,,,,,,,,,,,,,,,,,,,,,,,,,,,,,117,boto,Catalan,Sounds/cat_boto.mp3,2020-06-23_15h16.56.265,TranslationElicitation_spa,3.2.4,MacIntel,60,5ae9730c0335e200019e996a,,1,0,80,12,1,79
,,,,,,,,,,,,,,,,,,,,,,,,,,,,,,,,,,,v,4.687000036,V,FALSE,,,,,,,129,dit,Catalan,Sounds/cat_dit.mp3,2020-06-23_15h16.56.265,TranslationElicitation_spa,3.2.4,MacIntel,60,5ae9730c0335e200019e996a,,1,0,80,24,1,79
,,,,,,,,,,,,,,,,,,,,,,,,,,,,,,,,,,,backspace,6.618000031,,TRUE,,,,,,,129,dit,Catalan,Sounds/cat_dit.mp3,2020-06-23_15h16.56.265,TranslationElicitation_spa,3.2.4,MacIntel,60,5ae9730c0335e200019e996a,,1,0,80,24,1,79
,,,,,,,,,,,,,,,,,,,,,,,,,,,,,,,,,,,v,8.302000046,V,TRUE,,,,,,,129,dit,Catalan,Sounds/cat_dit.mp3,2020-06-23_15h16.56.265,TranslationElicitation_spa,3.2.4,MacIntel,60,5ae9730c0335e200019e996a,,1,0,80,24,1,79
,,,,,,,,,,,,,,,,,,,,,,,,,,,,,,,,,,,i,8.453000069,VI,TRUE,,,,,,,129,dit,Catalan,Sounds/cat_dit.mp3,2020-06-23_15h16.56.265,TranslationElicitation_spa,3.2.4,MacIntel,60,5ae9730c0335e200019e996a,,1,0,80,24,1,79
,,,,,,,,,,,,,,,,,,,,,,,,,,,,,,,,,,,l,8.818000078,VIL,TRUE,,,,,,,129,dit,Catalan,Sounds/cat_dit.mp3,2020-06-23_15h16.56.265,TranslationElicitation_spa,3.2.4,MacIntel,60,5ae9730c0335e200019e996a,,1,0,80,24,1,79
,,,,,,,,,,,,,,,,,,,,,,,,,,,,,,,,,,,return,9.205000162,,TRUE,,,,,,,129,dit,Catalan,Sounds/cat_dit.mp3,2020-06-23_15h16.56.265,TranslationElicitation_spa,3.2.4,MacIntel,60,5ae9730c0335e200019e996a,9.205000162,1,0,80,24,1,79
,,,,,,,,,,,,,,,,,,,,,,,,,,,,,,,,,,,,,,,,,,,,,129,dit,Catalan,Sounds/cat_dit.mp3,2020-06-23_15h16.56.265,TranslationElicitation_spa,3.2.4,MacIntel,60,5ae9730c0335e200019e996a,,1,0,80,24,1,79
,,,,,,,,,,,,,,,,,,,,,,,,,,,,,,,,,,,c,1.23300004,C,FALSE,,,,,,,121,camisa,Catalan,Sounds/cat_camisa.mp3,2020-06-23_15h16.56.265,TranslationElicitation_spa,3.2.4,MacIntel,60,5ae9730c0335e200019e996a,,1,0,80,16,1,79
,,,,,,,,,,,,,,,,,,,,,,,,,,,,,,,,,,,a,1.398999929,CA,FALSE,,,,,,,121,camisa,Catalan,Sounds/cat_camisa.mp3,2020-06-23_15h16.56.265,TranslationElicitation_spa,3.2.4,MacIntel,60,5ae9730c0335e200019e996a,,1,0,80,16,1,79
,,,,,,,,,,,,,,,,,,,,,,,,,,,,,,,,,,,m,1.531999826,CAM,FALSE,,,,,,,121,camisa,Catalan,Sounds/cat_camisa.mp3,2020-06-23_15h16.56.265,TranslationElicitation_spa,3.2.4,MacIntel,60,5ae9730c0335e200019e996a,,1,0,80,16,1,79
,,,,,,,,,,,,,,,,,,,,,,,,,,,,,,,,,,,i,1.599999905,CAMI,FALSE,,,,,,,121,camisa,Catalan,Sounds/cat_camisa.mp3,2020-06-23_15h16.56.265,TranslationElicitation_spa,3.2.4,MacIntel,60,5ae9730c0335e200019e996a,,1,0,80,16,1,79
,,,,,,,,,,,,,,,,,,,,,,,,,,,,,,,,,,,s,1.717000008,CAMIS,FALSE,,,,,,,121,camisa,Catalan,Sounds/cat_camisa.mp3,2020-06-23_15h16.56.265,TranslationElicitation_spa,3.2.4,MacIntel,60,5ae9730c0335e200019e996a,,1,0,80,16,1,79
,,,,,,,,,,,,,,,,,,,,,,,,,,,,,,,,,,,a,1.766000032,CAMISA,FALSE,,,,,,,121,camisa,Catalan,Sounds/cat_camisa.mp3,2020-06-23_15h16.56.265,TranslationElicitation_spa,3.2.4,MacIntel,60,5ae9730c0335e200019e996a,,1,0,80,16,1,79
,,,,,,,,,,,,,,,,,,,,,,,,,,,,,,,,,,,return,2.133999825,,FALSE,,,,,,,121,camisa,Catalan,Sounds/cat_camisa.mp3,2020-06-23_15h16.56.265,TranslationElicitation_spa,3.2.4,MacIntel,60,5ae9730c0335e200019e996a,2.132999897,1,0,80,16,1,79
,,,,,,,,,,,,,,,,,,,,,,,,,,,,,,,,,,,,,,,,,,,,,121,camisa,Catalan,Sounds/cat_camisa.mp3,2020-06-23_15h16.56.265,TranslationElicitation_spa,3.2.4,MacIntel,60,5ae9730c0335e200019e996a,,1,0,80,16,1,79
,,,,,,,,,,,,,,,,,,,,,,,,,,,,,,,,,,,t,1.032000065,T,FALSE,,,,,,,181,tobogan,Catalan,Sounds/cat_tobogan.mp3,2020-06-23_15h16.56.265,TranslationElicitation_spa,3.2.4,MacIntel,60,5ae9730c0335e200019e996a,,1,0,80,72,1,79
,,,,,,,,,,,,,,,,,,,,,,,,,,,,,,,,,,,o,1.11500001,TO,FALSE,,,,,,,181,tobogan,Catalan,Sounds/cat_tobogan.mp3,2020-06-23_15h16.56.265,TranslationElicitation_spa,3.2.4,MacIntel,60,5ae9730c0335e200019e996a,,1,0,80,72,1,79
,,,,,,,,,,,,,,,,,,,,,,,,,,,,,,,,,,,b,1.59800005,TOB,FALSE,,,,,,,181,tobogan,Catalan,Sounds/cat_tobogan.mp3,2020-06-23_15h16.56.265,TranslationElicitation_spa,3.2.4,MacIntel,60,5ae9730c0335e200019e996a,,1,0,80,72,1,79
,,,,,,,,,,,,,,,,,,,,,,,,,,,,,,,,,,,o,1.799000025,TOBO,FALSE,,,,,,,181,tobogan,Catalan,Sounds/cat_tobogan.mp3,2020-06-23_15h16.56.265,TranslationElicitation_spa,3.2.4,MacIntel,60,5ae9730c0335e200019e996a,,1,0,80,72,1,79
,,,,,,,,,,,,,,,,,,,,,,,,,,,,,,,,,,,g,1.899999857,TOBOG,FALSE,,,,,,,181,tobogan,Catalan,Sounds/cat_tobogan.mp3,2020-06-23_15h16.56.265,TranslationElicitation_spa,3.2.4,MacIntel,60,5ae9730c0335e200019e996a,,1,0,80,72,1,79
,,,,,,,,,,,,,,,,,,,,,,,,,,,,,,,,,,,apostrophe,2.26699996,TOBOG,FALSE,,,,,,,181,tobogan,Catalan,Sounds/cat_tobogan.mp3,2020-06-23_15h16.56.265,TranslationElicitation_spa,3.2.4,MacIntel,60,5ae9730c0335e200019e996a,,1,0,80,72,1,79
,,,,,,,,,,,,,,,,,,,,,,,,,,,,,,,,,,,a,2.352999926,TOBOGÁ,FALSE,,,,,,,181,tobogan,Catalan,Sounds/cat_tobogan.mp3,2020-06-23_15h16.56.265,TranslationElicitation_spa,3.2.4,MacIntel,60,5ae9730c0335e200019e996a,,1,0,80,72,1,79
,,,,,,,,,,,,,,,,,,,,,,,,,,,,,,,,,,,n,2.665999889,TOBOGÁN,FALSE,,,,,,,181,tobogan,Catalan,Sounds/cat_tobogan.mp3,2020-06-23_15h16.56.265,TranslationElicitation_spa,3.2.4,MacIntel,60,5ae9730c0335e200019e996a,,1,0,80,72,1,79
,,,,,,,,,,,,,,,,,,,,,,,,,,,,,,,,,,,return,3.017999887,,FALSE,,,,,,,181,tobogan,Catalan,Sounds/cat_tobogan.mp3,2020-06-23_15h16.56.265,TranslationElicitation_spa,3.2.4,MacIntel,60,5ae9730c0335e200019e996a,3.017999887,1,0,80,72,1,79
,,,,,,,,,,,,,,,,,,,,,,,,,,,,,,,,,,,,,,,,,,,,,181,tobogan,Catalan,Sounds/cat_tobogan.mp3,2020-06-23_15h16.56.265,TranslationElicitation_spa,3.2.4,MacIntel,60,5ae9730c0335e200019e996a,,1,0,80,72,1,79
,,,,,,,,,,,,,,,,,,,,,,,,,,,,,,,,,,,g,5.669000149,G,FALSE,,,,,,,141,gerd,Catalan,Sounds/cat_gerd.mp3,2020-06-23_15h16.56.265,TranslationElicitation_spa,3.2.4,MacIntel,60,5ae9730c0335e200019e996a,,1,0,80,36,1,79
,,,,,,,,,,,,,,,,,,,,,,,,,,,,,,,,,,,e,5.819000006,GE,FALSE,,,,,,,141,gerd,Catalan,Sounds/cat_gerd.mp3,2020-06-23_15h16.56.265,TranslationElicitation_spa,3.2.4,MacIntel,60,5ae9730c0335e200019e996a,,1,0,80,36,1,79
,,,,,,,,,,,,,,,,,,,,,,,,,,,,,,,,,,,n,5.903000116,GEN,FALSE,,,,,,,141,gerd,Catalan,Sounds/cat_gerd.mp3,2020-06-23_15h16.56.265,TranslationElicitation_spa,3.2.4,MacIntel,60,5ae9730c0335e200019e996a,,1,0,80,36,1,79
,,,,,,,,,,,,,,,,,,,,,,,,,,,,,,,,,,,return,6.18900013,,FALSE,,,,,,,141,gerd,Catalan,Sounds/cat_gerd.mp3,2020-06-23_15h16.56.265,TranslationElicitation_spa,3.2.4,MacIntel,60,5ae9730c0335e200019e996a,6.18900013,1,0,80,36,1,79
,,,,,,,,,,,,,,,,,,,,,,,,,,,,,,,,,,,,,,,,,,,,,141,gerd,Catalan,Sounds/cat_gerd.mp3,2020-06-23_15h16.56.265,TranslationElicitation_spa,3.2.4,MacIntel,60,5ae9730c0335e200019e996a,,1,0,80,36,1,79
,,,,,,,,,,,,,,,,,,,,,,,,,,,,,,,,,,,g,1.184000015,G,FALSE,,,,,,,139,galleda,Catalan,Sounds/cat_galleda.mp3,2020-06-23_15h16.56.265,TranslationElicitation_spa,3.2.4,MacIntel,60,5ae9730c0335e200019e996a,,1,0,80,34,1,79
,,,,,,,,,,,,,,,,,,,,,,,,,,,,,,,,,,,a,1.423000097,GA,FALSE,,,,,,,139,galleda,Catalan,Sounds/cat_galleda.mp3,2020-06-23_15h16.56.265,TranslationElicitation_spa,3.2.4,MacIntel,60,5ae9730c0335e200019e996a,,1,0,80,34,1,79
,,,,,,,,,,,,,,,,,,,,,,,,,,,,,,,,,,,l,1.517999887,GAL,FALSE,,,,,,,139,galleda,Catalan,Sounds/cat_galleda.mp3,2020-06-23_15h16.56.265,TranslationElicitation_spa,3.2.4,MacIntel,60,5ae9730c0335e200019e996a,,1,0,80,34,1,79
,,,,,,,,,,,,,,,,,,,,,,,,,,,,,,,,,,,l,1.684000015,GALL,FALSE,,,,,,,139,galleda,Catalan,Sounds/cat_galleda.mp3,2020-06-23_15h16.56.265,TranslationElicitation_spa,3.2.4,MacIntel,60,5ae9730c0335e200019e996a,,1,0,80,34,1,79
,,,,,,,,,,,,,,,,,,,,,,,,,,,,,,,,,,,e,1.752000093,GALLE,FALSE,,,,,,,139,galleda,Catalan,Sounds/cat_galleda.mp3,2020-06-23_15h16.56.265,TranslationElicitation_spa,3.2.4,MacIntel,60,5ae9730c0335e200019e996a,,1,0,80,34,1,79
,,,,,,,,,,,,,,,,,,,,,,,,,,,,,,,,,,,t,1.950000048,GALLET,FALSE,,,,,,,139,galleda,Catalan,Sounds/cat_galleda.mp3,2020-06-23_15h16.56.265,TranslationElicitation_spa,3.2.4,MacIntel,60,5ae9730c0335e200019e996a,,1,0,80,34,1,79
,,,,,,,,,,,,,,,,,,,,,,,,,,,,,,,,,,,a,2.15199995,GALLETA,FALSE,,,,,,,139,galleda,Catalan,Sounds/cat_galleda.mp3,2020-06-23_15h16.56.265,TranslationElicitation_spa,3.2.4,MacIntel,60,5ae9730c0335e200019e996a,,1,0,80,34,1,79
,,,,,,,,,,,,,,,,,,,,,,,,,,,,,,,,,,,return,2.38499999,,FALSE,,,,,,,139,galleda,Catalan,Sounds/cat_galleda.mp3,2020-06-23_15h16.56.265,TranslationElicitation_spa,3.2.4,MacIntel,60,5ae9730c0335e200019e996a,2.38499999,1,0,80,34,1,79
,,,,,,,,,,,,,,,,,,,,,,,,,,,,,,,,,,,,,,,,,,,,,139,galleda,Catalan,Sounds/cat_galleda.mp3,2020-06-23_15h16.56.265,TranslationElicitation_spa,3.2.4,MacIntel,60,5ae9730c0335e200019e996a,,1,0,80,34,1,79
,,,,,,,,,,,,,,,,,,,,,,,,,,,,,,,,,,,i,1.083999872,I,FALSE,,,,,,,124,cirera,Catalan,Sounds/cat_cirera.mp3,2020-06-23_15h16.56.265,TranslationElicitation_spa,3.2.4,MacIntel,60,5ae9730c0335e200019e996a,,1,0,80,19,1,79
,,,,,,,,,,,,,,,,,,,,,,,,,,,,,,,,,,,r,1.28399992,IR,FALSE,,,,,,,124,cirera,Catalan,Sounds/cat_cirera.mp3,2020-06-23_15h16.56.265,TranslationElicitation_spa,3.2.4,MacIntel,60,5ae9730c0335e200019e996a,,1,0,80,19,1,79
,,,,,,,,,,,,,,,,,,,,,,,,,,,,,,,,,,,backspace,1.700999975,,TRUE,,,,,,,124,cirera,Catalan,Sounds/cat_cirera.mp3,2020-06-23_15h16.56.265,TranslationElicitation_spa,3.2.4,MacIntel,60,5ae9730c0335e200019e996a,,1,0,80,19,1,79
,,,,,,,,,,,,,,,,,,,,,,,,,,,,,,,,,,,backspace,1.950999975,,TRUE,,,,,,,124,cirera,Catalan,Sounds/cat_cirera.mp3,2020-06-23_15h16.56.265,TranslationElicitation_spa,3.2.4,MacIntel,60,5ae9730c0335e200019e996a,,1,0,80,19,1,79
,,,,,,,,,,,,,,,,,,,,,,,,,,,,,,,,,,,s,2.167999983,S,TRUE,,,,,,,124,cirera,Catalan,Sounds/cat_cirera.mp3,2020-06-23_15h16.56.265,TranslationElicitation_spa,3.2.4,MacIntel,60,5ae9730c0335e200019e996a,,1,0,80,19,1,79
,,,,,,,,,,,,,,,,,,,,,,,,,,,,,,,,,,,i,2.41899991,SI,TRUE,,,,,,,124,cirera,Catalan,Sounds/cat_cirera.mp3,2020-06-23_15h16.56.265,TranslationElicitation_spa,3.2.4,MacIntel,60,5ae9730c0335e200019e996a,,1,0,80,19,1,79
,,,,,,,,,,,,,,,,,,,,,,,,,,,,,,,,,,,r,2.519000053,SIR,TRUE,,,,,,,124,cirera,Catalan,Sounds/cat_cirera.mp3,2020-06-23_15h16.56.265,TranslationElicitation_spa,3.2.4,MacIntel,60,5ae9730c0335e200019e996a,,1,0,80,19,1,79
,,,,,,,,,,,,,,,,,,,,,,,,,,,,,,,,,,,e,2.719000101,SIRE,TRUE,,,,,,,124,cirera,Catalan,Sounds/cat_cirera.mp3,2020-06-23_15h16.56.265,TranslationElicitation_spa,3.2.4,MacIntel,60,5ae9730c0335e200019e996a,,1,0,80,19,1,79
,,,,,,,,,,,,,,,,,,,,,,,,,,,,,,,,,,,n,2.753999949,SIREN,TRUE,,,,,,,124,cirera,Catalan,Sounds/cat_cirera.mp3,2020-06-23_15h16.56.265,TranslationElicitation_spa,3.2.4,MacIntel,60,5ae9730c0335e200019e996a,,1,0,80,19,1,79
,,,,,,,,,,,,,,,,,,,,,,,,,,,,,,,,,,,a,2.917999983,SIRENA,TRUE,,,,,,,124,cirera,Catalan,Sounds/cat_cirera.mp3,2020-06-23_15h16.56.265,TranslationElicitation_spa,3.2.4,MacIntel,60,5ae9730c0335e200019e996a,,1,0,80,19,1,79
,,,,,,,,,,,,,,,,,,,,,,,,,,,,,,,,,,,return,3.26699996,,TRUE,,,,,,,124,cirera,Catalan,Sounds/cat_cirera.mp3,2020-06-23_15h16.56.265,TranslationElicitation_spa,3.2.4,MacIntel,60,5ae9730c0335e200019e996a,3.26699996,1,0,80,19,1,79
,,,,,,,,,,,,,,,,,,,,,,,,,,,,,,,,,,,,,,,,,,,,,124,cirera,Catalan,Sounds/cat_cirera.mp3,2020-06-23_15h16.56.265,TranslationElicitation_spa,3.2.4,MacIntel,60,5ae9730c0335e200019e996a,,1,0,80,19,1,79
,,,,,,,,,,,,,,,,,,,,,,,,,,,,,,,,,,,m,1.835000038,M,FALSE,,,,,,,156,moto,Catalan,Sounds/cat_moto.mp3,2020-06-23_15h16.56.265,TranslationElicitation_spa,3.2.4,MacIntel,60,5ae9730c0335e200019e996a,,1,0,80,50,1,79
,,,,,,,,,,,,,,,,,,,,,,,,,,,,,,,,,,,o,1.967000008,MO,FALSE,,,,,,,156,moto,Catalan,Sounds/cat_moto.mp3,2020-06-23_15h16.56.265,TranslationElicitation_spa,3.2.4,MacIntel,60,5ae9730c0335e200019e996a,,1,0,80,50,1,79
,,,,,,,,,,,,,,,,,,,,,,,,,,,,,,,,,,,t,2.116000175,MOT,FALSE,,,,,,,156,moto,Catalan,Sounds/cat_moto.mp3,2020-06-23_15h16.56.265,TranslationElicitation_spa,3.2.4,MacIntel,60,5ae9730c0335e200019e996a,,1,0,80,50,1,79
,,,,,,,,,,,,,,,,,,,,,,,,,,,,,,,,,,,o,2.215000153,MOTO,FALSE,,,,,,,156,moto,Catalan,Sounds/cat_moto.mp3,2020-06-23_15h16.56.265,TranslationElicitation_spa,3.2.4,MacIntel,60,5ae9730c0335e200019e996a,,1,0,80,50,1,79
,,,,,,,,,,,,,,,,,,,,,,,,,,,,,,,,,,,return,2.532000065,,FALSE,,,,,,,156,moto,Catalan,Sounds/cat_moto.mp3,2020-06-23_15h16.56.265,TranslationElicitation_spa,3.2.4,MacIntel,60,5ae9730c0335e200019e996a,2.532000065,1,0,80,50,1,79
,,,,,,,,,,,,,,,,,,,,,,,,,,,,,,,,,,,,,,,,,,,,,156,moto,Catalan,Sounds/cat_moto.mp3,2020-06-23_15h16.56.265,TranslationElicitation_spa,3.2.4,MacIntel,60,5ae9730c0335e200019e996a,,1,0,80,50,1,79
,,,,,,,,,,,,,,,,,,,,,,,,,,,,,,,,,,,o,1.500999928,O,FALSE,,,,,,,177,sol,Catalan,Sounds/cat_sol.mp3,2020-06-23_15h16.56.265,TranslationElicitation_spa,3.2.4,MacIntel,60,5ae9730c0335e200019e996a,,1,0,80,69,1,79
,,,,,,,,,,,,,,,,,,,,,,,,,,,,,,,,,,,l,1.849999905,OL,FALSE,,,,,,,177,sol,Catalan,Sounds/cat_sol.mp3,2020-06-23_15h16.56.265,TranslationElicitation_spa,3.2.4,MacIntel,60,5ae9730c0335e200019e996a,,1,0,80,69,1,79
,,,,,,,,,,,,,,,,,,,,,,,,,,,,,,,,,,,backspace,2.449999809,,TRUE,,,,,,,177,sol,Catalan,Sounds/cat_sol.mp3,2020-06-23_15h16.56.265,TranslationElicitation_spa,3.2.4,MacIntel,60,5ae9730c0335e200019e996a,,1,0,80,69,1,79
,,,,,,,,,,,,,,,,,,,,,,,,,,,,,,,,,,,backspace,2.632999897,,TRUE,,,,,,,177,sol,Catalan,Sounds/cat_sol.mp3,2020-06-23_15h16.56.265,TranslationElicitation_spa,3.2.4,MacIntel,60,5ae9730c0335e200019e996a,,1,0,80,69,1,79
,,,,,,,,,,,,,,,,,,,,,,,,,,,,,,,,,,,s,2.901000023,S,TRUE,,,,,,,177,sol,Catalan,Sounds/cat_sol.mp3,2020-06-23_15h16.56.265,TranslationElicitation_spa,3.2.4,MacIntel,60,5ae9730c0335e200019e996a,,1,0,80,69,1,79
,,,,,,,,,,,,,,,,,,,,,,,,,,,,,,,,,,,o,3.000999928,SO,TRUE,,,,,,,177,sol,Catalan,Sounds/cat_sol.mp3,2020-06-23_15h16.56.265,TranslationElicitation_spa,3.2.4,MacIntel,60,5ae9730c0335e200019e996a,,1,0,80,69,1,79
,,,,,,,,,,,,,,,,,,,,,,,,,,,,,,,,,,,l,3.217999935,SOL,TRUE,,,,,,,177,sol,Catalan,Sounds/cat_sol.mp3,2020-06-23_15h16.56.265,TranslationElicitation_spa,3.2.4,MacIntel,60,5ae9730c0335e200019e996a,,1,0,80,69,1,79
,,,,,,,,,,,,,,,,,,,,,,,,,,,,,,,,,,,return,3.417999983,,TRUE,,,,,,,177,sol,Catalan,Sounds/cat_sol.mp3,2020-06-23_15h16.56.265,TranslationElicitation_spa,3.2.4,MacIntel,60,5ae9730c0335e200019e996a,3.417999983,1,0,80,69,1,79
,,,,,,,,,,,,,,,,,,,,,,,,,,,,,,,,,,,,,,,,,,,,,177,sol,Catalan,Sounds/cat_sol.mp3,2020-06-23_15h16.56.265,TranslationElicitation_spa,3.2.4,MacIntel,60,5ae9730c0335e200019e996a,,1,0,80,69,1,79
,,,,,,,,,,,,,,,,,,,,,,,,,,,,,,,,,,,g,1.483999968,G,FALSE,,,,,,,146,guitarra,Catalan,Sounds/cat_guitarra.mp3,2020-06-23_15h16.56.265,TranslationElicitation_spa,3.2.4,MacIntel,60,5ae9730c0335e200019e996a,,1,0,80,41,1,79
,,,,,,,,,,,,,,,,,,,,,,,,,,,,,,,,,,,u,1.799999952,GU,FALSE,,,,,,,146,guitarra,Catalan,Sounds/cat_guitarra.mp3,2020-06-23_15h16.56.265,TranslationElicitation_spa,3.2.4,MacIntel,60,5ae9730c0335e200019e996a,,1,0,80,41,1,79
,,,,,,,,,,,,,,,,,,,,,,,,,,,,,,,,,,,i,1.851000071,GUI,FALSE,,,,,,,146,guitarra,Catalan,Sounds/cat_guitarra.mp3,2020-06-23_15h16.56.265,TranslationElicitation_spa,3.2.4,MacIntel,60,5ae9730c0335e200019e996a,,1,0,80,41,1,79
,,,,,,,,,,,,,,,,,,,,,,,,,,,,,,,,,,,t,2.000999928,GUIT,FALSE,,,,,,,146,guitarra,Catalan,Sounds/cat_guitarra.mp3,2020-06-23_15h16.56.265,TranslationElicitation_spa,3.2.4,MacIntel,60,5ae9730c0335e200019e996a,,1,0,80,41,1,79
,,,,,,,,,,,,,,,,,,,,,,,,,,,,,,,,,,,a,2.349999905,GUITA,FALSE,,,,,,,146,guitarra,Catalan,Sounds/cat_guitarra.mp3,2020-06-23_15h16.56.265,TranslationElicitation_spa,3.2.4,MacIntel,60,5ae9730c0335e200019e996a,,1,0,80,41,1,79
,,,,,,,,,,,,,,,,,,,,,,,,,,,,,,,,,,,r,2.598999977,GUITAR,FALSE,,,,,,,146,guitarra,Catalan,Sounds/cat_guitarra.mp3,2020-06-23_15h16.56.265,TranslationElicitation_spa,3.2.4,MacIntel,60,5ae9730c0335e200019e996a,,1,0,80,41,1,79
,,,,,,,,,,,,,,,,,,,,,,,,,,,,,,,,,,,r,2.717000008,GUITARR,FALSE,,,,,,,146,guitarra,Catalan,Sounds/cat_guitarra.mp3,2020-06-23_15h16.56.265,TranslationElicitation_spa,3.2.4,MacIntel,60,5ae9730c0335e200019e996a,,1,0,80,41,1,79
,,,,,,,,,,,,,,,,,,,,,,,,,,,,,,,,,,,a,2.920000076,GUITARRA,FALSE,,,,,,,146,guitarra,Catalan,Sounds/cat_guitarra.mp3,2020-06-23_15h16.56.265,TranslationElicitation_spa,3.2.4,MacIntel,60,5ae9730c0335e200019e996a,,1,0,80,41,1,79
,,,,,,,,,,,,,,,,,,,,,,,,,,,,,,,,,,,return,3.167999983,,FALSE,,,,,,,146,guitarra,Catalan,Sounds/cat_guitarra.mp3,2020-06-23_15h16.56.265,TranslationElicitation_spa,3.2.4,MacIntel,60,5ae9730c0335e200019e996a,3.167999983,1,0,80,41,1,79
,,,,,,,,,,,,,,,,,,,,,,,,,,,,,,,,,,,,,,,,,,,,,146,guitarra,Catalan,Sounds/cat_guitarra.mp3,2020-06-23_15h16.56.265,TranslationElicitation_spa,3.2.4,MacIntel,60,5ae9730c0335e200019e996a,,1,0,80,41,1,79
,,,,,,,,,,,,,,,,,,,,,,,,,,,,,,,,,,,o,5.651000023,O,FALSE,,,,,,,163,papallona,Catalan,Sounds/cat_papallona.mp3,2020-06-23_15h16.56.265,TranslationElicitation_spa,3.2.4,MacIntel,60,5ae9730c0335e200019e996a,,1,0,80,56,1,79
,,,,,,,,,,,,,,,,,,,,,,,,,,,,,,,,,,,r,5.735999823,OR,FALSE,,,,,,,163,papallona,Catalan,Sounds/cat_papallona.mp3,2020-06-23_15h16.56.265,TranslationElicitation_spa,3.2.4,MacIntel,60,5ae9730c0335e200019e996a,,1,0,80,56,1,79
,,,,,,,,,,,,,,,,,,,,,,,,,,,,,,,,,,,e,5.934000015,ORE,FALSE,,,,,,,163,papallona,Catalan,Sounds/cat_papallona.mp3,2020-06-23_15h16.56.265,TranslationElicitation_spa,3.2.4,MacIntel,60,5ae9730c0335e200019e996a,,1,0,80,56,1,79
,,,,,,,,,,,,,,,,,,,,,,,,,,,,,,,,,,,j,6.01699996,OREJ,FALSE,,,,,,,163,papallona,Catalan,Sounds/cat_papallona.mp3,2020-06-23_15h16.56.265,TranslationElicitation_spa,3.2.4,MacIntel,60,5ae9730c0335e200019e996a,,1,0,80,56,1,79
,,,,,,,,,,,,,,,,,,,,,,,,,,,,,,,,,,,a,6.166999817,OREJA,FALSE,,,,,,,163,papallona,Catalan,Sounds/cat_papallona.mp3,2020-06-23_15h16.56.265,TranslationElicitation_spa,3.2.4,MacIntel,60,5ae9730c0335e200019e996a,,1,0,80,56,1,79
,,,,,,,,,,,,,,,,,,,,,,,,,,,,,,,,,,,s,6.316999912,OREJAS,FALSE,,,,,,,163,papallona,Catalan,Sounds/cat_papallona.mp3,2020-06-23_15h16.56.265,TranslationElicitation_spa,3.2.4,MacIntel,60,5ae9730c0335e200019e996a,,1,0,80,56,1,79
,,,,,,,,,,,,,,,,,,,,,,,,,,,,,,,,,,,return,6.684999943,,FALSE,,,,,,,163,papallona,Catalan,Sounds/cat_papallona.mp3,2020-06-23_15h16.56.265,TranslationElicitation_spa,3.2.4,MacIntel,60,5ae9730c0335e200019e996a,6.684999943,1,0,80,56,1,79
,,,,,,,,,,,,,,,,,,,,,,,,,,,,,,,,,,,,,,,,,,,,,163,papallona,Catalan,Sounds/cat_papallona.mp3,2020-06-23_15h16.56.265,TranslationElicitation_spa,3.2.4,MacIntel,60,5ae9730c0335e200019e996a,,1,0,80,56,1,79
,,,,,,,,,,,,,,,,,,,,,,,,,,,,,,,,,,,a,3.302999973,A,FALSE,,,,,,,130,entrepa,Catalan,Sounds/cat_entrepa.mp3,2020-06-23_15h16.56.265,TranslationElicitation_spa,3.2.4,MacIntel,60,5ae9730c0335e200019e996a,,1,0,80,25,1,79
,,,,,,,,,,,,,,,,,,,,,,,,,,,,,,,,,,,n,3.570999861,AN,FALSE,,,,,,,130,entrepa,Catalan,Sounds/cat_entrepa.mp3,2020-06-23_15h16.56.265,TranslationElicitation_spa,3.2.4,MacIntel,60,5ae9730c0335e200019e996a,,1,0,80,25,1,79
,,,,,,,,,,,,,,,,,,,,,,,,,,,,,,,,,,,t,3.984999895,ANT,FALSE,,,,,,,130,entrepa,Catalan,Sounds/cat_entrepa.mp3,2020-06-23_15h16.56.265,TranslationElicitation_spa,3.2.4,MacIntel,60,5ae9730c0335e200019e996a,,1,0,80,25,1,79
,,,,,,,,,,,,,,,,,,,,,,,,,,,,,,,,,,,r,4.251999855,ANTR,FALSE,,,,,,,130,entrepa,Catalan,Sounds/cat_entrepa.mp3,2020-06-23_15h16.56.265,TranslationElicitation_spa,3.2.4,MacIntel,60,5ae9730c0335e200019e996a,,1,0,80,25,1,79
,,,,,,,,,,,,,,,,,,,,,,,,,,,,,,,,,,,o,4.335999966,ANTRO,FALSE,,,,,,,130,entrepa,Catalan,Sounds/cat_entrepa.mp3,2020-06-23_15h16.56.265,TranslationElicitation_spa,3.2.4,MacIntel,60,5ae9730c0335e200019e996a,,1,0,80,25,1,79
,,,,,,,,,,,,,,,,,,,,,,,,,,,,,,,,,,,p,4.70299983,ANTROP,FALSE,,,,,,,130,entrepa,Catalan,Sounds/cat_entrepa.mp3,2020-06-23_15h16.56.265,TranslationElicitation_spa,3.2.4,MacIntel,60,5ae9730c0335e200019e996a,,1,0,80,25,1,79
,,,,,,,,,,,,,,,,,,,,,,,,,,,,,,,,,,,apostrophe,5.119999886,ANTROP,FALSE,,,,,,,130,entrepa,Catalan,Sounds/cat_entrepa.mp3,2020-06-23_15h16.56.265,TranslationElicitation_spa,3.2.4,MacIntel,60,5ae9730c0335e200019e996a,,1,0,80,25,1,79
,,,,,,,,,,,,,,,,,,,,,,,,,,,,,,,,,,,o,5.352999926,ANTROPÓ,FALSE,,,,,,,130,entrepa,Catalan,Sounds/cat_entrepa.mp3,2020-06-23_15h16.56.265,TranslationElicitation_spa,3.2.4,MacIntel,60,5ae9730c0335e200019e996a,,1,0,80,25,1,79
,,,,,,,,,,,,,,,,,,,,,,,,,,,,,,,,,,,l,5.553999901,ANTROPÓL,FALSE,,,,,,,130,entrepa,Catalan,Sounds/cat_entrepa.mp3,2020-06-23_15h16.56.265,TranslationElicitation_spa,3.2.4,MacIntel,60,5ae9730c0335e200019e996a,,1,0,80,25,1,79
,,,,,,,,,,,,,,,,,,,,,,,,,,,,,,,,,,,o,5.703999996,ANTROPÓLO,FALSE,,,,,,,130,entrepa,Catalan,Sounds/cat_entrepa.mp3,2020-06-23_15h16.56.265,TranslationElicitation_spa,3.2.4,MacIntel,60,5ae9730c0335e200019e996a,,1,0,80,25,1,79
,,,,,,,,,,,,,,,,,,,,,,,,,,,,,,,,,,,g,5.803999901,ANTROPÓLOG,FALSE,,,,,,,130,entrepa,Catalan,Sounds/cat_entrepa.mp3,2020-06-23_15h16.56.265,TranslationElicitation_spa,3.2.4,MacIntel,60,5ae9730c0335e200019e996a,,1,0,80,25,1,79
,,,,,,,,,,,,,,,,,,,,,,,,,,,,,,,,,,,o,6.388000011,ANTROPÓLOGO,FALSE,,,,,,,130,entrepa,Catalan,Sounds/cat_entrepa.mp3,2020-06-23_15h16.56.265,TranslationElicitation_spa,3.2.4,MacIntel,60,5ae9730c0335e200019e996a,,1,0,80,25,1,79
,,,,,,,,,,,,,,,,,,,,,,,,,,,,,,,,,,,return,6.770999908,,FALSE,,,,,,,130,entrepa,Catalan,Sounds/cat_entrepa.mp3,2020-06-23_15h16.56.265,TranslationElicitation_spa,3.2.4,MacIntel,60,5ae9730c0335e200019e996a,6.770999908,1,0,80,25,1,79
,,,,,,,,,,,,,,,,,,,,,,,,,,,,,,,,,,,,,,,,,,,,,130,entrepa,Catalan,Sounds/cat_entrepa.mp3,2020-06-23_15h16.56.265,TranslationElicitation_spa,3.2.4,MacIntel,60,5ae9730c0335e200019e996a,,1,0,80,25,1,79
,,,,,,,,,,,,,,,,,,,,,,,,,,,,,,,,,,,m,1.398999929,M,FALSE,,,,,,,155,moneda,Catalan,Sounds/cat_moneda.mp3,2020-06-23_15h16.56.265,TranslationElicitation_spa,3.2.4,MacIntel,60,5ae9730c0335e200019e996a,,1,0,80,49,1,79
,,,,,,,,,,,,,,,,,,,,,,,,,,,,,,,,,,,o,1.782999992,MO,FALSE,,,,,,,155,moneda,Catalan,Sounds/cat_moneda.mp3,2020-06-23_15h16.56.265,TranslationElicitation_spa,3.2.4,MacIntel,60,5ae9730c0335e200019e996a,,1,0,80,49,1,79
,,,,,,,,,,,,,,,,,,,,,,,,,,,,,,,,,,,n,1.967000008,MON,FALSE,,,,,,,155,moneda,Catalan,Sounds/cat_moneda.mp3,2020-06-23_15h16.56.265,TranslationElicitation_spa,3.2.4,MacIntel,60,5ae9730c0335e200019e996a,,1,0,80,49,1,79
,,,,,,,,,,,,,,,,,,,,,,,,,,,,,,,,,,,e,2.082000017,MONE,FALSE,,,,,,,155,moneda,Catalan,Sounds/cat_moneda.mp3,2020-06-23_15h16.56.265,TranslationElicitation_spa,3.2.4,MacIntel,60,5ae9730c0335e200019e996a,,1,0,80,49,1,79
,,,,,,,,,,,,,,,,,,,,,,,,,,,,,,,,,,,d,2.299999952,MONED,FALSE,,,,,,,155,moneda,Catalan,Sounds/cat_moneda.mp3,2020-06-23_15h16.56.265,TranslationElicitation_spa,3.2.4,MacIntel,60,5ae9730c0335e200019e996a,,1,0,80,49,1,79
,,,,,,,,,,,,,,,,,,,,,,,,,,,,,,,,,,,a,2.416999817,MONEDA,FALSE,,,,,,,155,moneda,Catalan,Sounds/cat_moneda.mp3,2020-06-23_15h16.56.265,TranslationElicitation_spa,3.2.4,MacIntel,60,5ae9730c0335e200019e996a,,1,0,80,49,1,79
,,,,,,,,,,,,,,,,,,,,,,,,,,,,,,,,,,,return,2.615999937,,FALSE,,,,,,,155,moneda,Catalan,Sounds/cat_moneda.mp3,2020-06-23_15h16.56.265,TranslationElicitation_spa,3.2.4,MacIntel,60,5ae9730c0335e200019e996a,2.615999937,1,0,80,49,1,79
,,,,,,,,,,,,,,,,,,,,,,,,,,,,,,,,,,,,,,,,,,,,,155,moneda,Catalan,Sounds/cat_moneda.mp3,2020-06-23_15h16.56.265,TranslationElicitation_spa,3.2.4,MacIntel,60,5ae9730c0335e200019e996a,,1,0,80,49,1,79
,,,,,,,,,,,,,,,,,,,,,,,,,,,,,,,,,,,n,6.251999855,N,FALSE,,,,,,,158,nas,Catalan,Sounds/cat_nas.mp3,2020-06-23_15h16.56.265,TranslationElicitation_spa,3.2.4,MacIntel,60,5ae9730c0335e200019e996a,,1,0,80,52,1,79
,,,,,,,,,,,,,,,,,,,,,,,,,,,,,,,,,,,a,6.43599987,NA,FALSE,,,,,,,158,nas,Catalan,Sounds/cat_nas.mp3,2020-06-23_15h16.56.265,TranslationElicitation_spa,3.2.4,MacIntel,60,5ae9730c0335e200019e996a,,1,0,80,52,1,79
,,,,,,,,,,,,,,,,,,,,,,,,,,,,,,,,,,,r,6.70299983,NAR,FALSE,,,,,,,158,nas,Catalan,Sounds/cat_nas.mp3,2020-06-23_15h16.56.265,TranslationElicitation_spa,3.2.4,MacIntel,60,5ae9730c0335e200019e996a,,1,0,80,52,1,79
,,,,,,,,,,,,,,,,,,,,,,,,,,,,,,,,,,,i,6.768999815,NARI,FALSE,,,,,,,158,nas,Catalan,Sounds/cat_nas.mp3,2020-06-23_15h16.56.265,TranslationElicitation_spa,3.2.4,MacIntel,60,5ae9730c0335e200019e996a,,1,0,80,52,1,79
,,,,,,,,,,,,,,,,,,,,,,,,,,,,,,,,,,,z,6.934999943,NARIZ,FALSE,,,,,,,158,nas,Catalan,Sounds/cat_nas.mp3,2020-06-23_15h16.56.265,TranslationElicitation_spa,3.2.4,MacIntel,60,5ae9730c0335e200019e996a,,1,0,80,52,1,79
,,,,,,,,,,,,,,,,,,,,,,,,,,,,,,,,,,,return,7.15899992,,FALSE,,,,,,,158,nas,Catalan,Sounds/cat_nas.mp3,2020-06-23_15h16.56.265,TranslationElicitation_spa,3.2.4,MacIntel,60,5ae9730c0335e200019e996a,7.15899992,1,0,80,52,1,79
,,,,,,,,,,,,,,,,,,,,,,,,,,,,,,,,,,,,,,,,,,,,,158,nas,Catalan,Sounds/cat_nas.mp3,2020-06-23_15h16.56.265,TranslationElicitation_spa,3.2.4,MacIntel,60,5ae9730c0335e200019e996a,,1,0,80,52,1,79
,,,,,,,,,,,,,,,,,,,,,,,,,,,,,,,,,,,p,1.938999891,P,FALSE,,,,,,,171,pollastre,Catalan,Sounds/cat_pollastre.mp3,2020-06-23_15h16.56.265,TranslationElicitation_spa,3.2.4,MacIntel,60,5ae9730c0335e200019e996a,,1,0,80,63,1,79
,,,,,,,,,,,,,,,,,,,,,,,,,,,,,,,,,,,a,2.085000038,PA,FALSE,,,,,,,171,pollastre,Catalan,Sounds/cat_pollastre.mp3,2020-06-23_15h16.56.265,TranslationElicitation_spa,3.2.4,MacIntel,60,5ae9730c0335e200019e996a,,1,0,80,63,1,79
,,,,,,,,,,,,,,,,,,,,,,,,,,,,,,,,,,,l,2.167999983,PAL,FALSE,,,,,,,171,pollastre,Catalan,Sounds/cat_pollastre.mp3,2020-06-23_15h16.56.265,TranslationElicitation_spa,3.2.4,MacIntel,60,5ae9730c0335e200019e996a,,1,0,80,63,1,79
,,,,,,,,,,,,,,,,,,,,,,,,,,,,,,,,,,,e,2.273000002,PALE,FALSE,,,,,,,171,pollastre,Catalan,Sounds/cat_pollastre.mp3,2020-06-23_15h16.56.265,TranslationElicitation_spa,3.2.4,MacIntel,60,5ae9730c0335e200019e996a,,1,0,80,63,1,79
,,,,,,,,,,,,,,,,,,,,,,,,,,,,,,,,,,,s,2.451999903,PALES,FALSE,,,,,,,171,pollastre,Catalan,Sounds/cat_pollastre.mp3,2020-06-23_15h16.56.265,TranslationElicitation_spa,3.2.4,MacIntel,60,5ae9730c0335e200019e996a,,1,0,80,63,1,79
,,,,,,,,,,,,,,,,,,,,,,,,,,,,,,,,,,,t,2.684999943,PALEST,FALSE,,,,,,,171,pollastre,Catalan,Sounds/cat_pollastre.mp3,2020-06-23_15h16.56.265,TranslationElicitation_spa,3.2.4,MacIntel,60,5ae9730c0335e200019e996a,,1,0,80,63,1,79
,,,,,,,,,,,,,,,,,,,,,,,,,,,,,,,,,,,r,2.868999958,PALESTR,FALSE,,,,,,,171,pollastre,Catalan,Sounds/cat_pollastre.mp3,2020-06-23_15h16.56.265,TranslationElicitation_spa,3.2.4,MacIntel,60,5ae9730c0335e200019e996a,,1,0,80,63,1,79
,,,,,,,,,,,,,,,,,,,,,,,,,,,,,,,,,,,a,3.018000126,PALESTRA,FALSE,,,,,,,171,pollastre,Catalan,Sounds/cat_pollastre.mp3,2020-06-23_15h16.56.265,TranslationElicitation_spa,3.2.4,MacIntel,60,5ae9730c0335e200019e996a,,1,0,80,63,1,79
,,,,,,,,,,,,,,,,,,,,,,,,,,,,,,,,,,,return,3.319000006,,FALSE,,,,,,,171,pollastre,Catalan,Sounds/cat_pollastre.mp3,2020-06-23_15h16.56.265,TranslationElicitation_spa,3.2.4,MacIntel,60,5ae9730c0335e200019e996a,3.319000006,1,0,80,63,1,79
,,,,,,,,,,,,,,,,,,,,,,,,,,,,,,,,,,,,,,,,,,,,,171,pollastre,Catalan,Sounds/cat_pollastre.mp3,2020-06-23_15h16.56.265,TranslationElicitation_spa,3.2.4,MacIntel,60,5ae9730c0335e200019e996a,,1,0,80,63,1,79
,,,,,,,,,,,,,,,,,,,,,,,,,,,,,,,,,,,c,1.184000015,C,FALSE,,,,,,,122,casa,Catalan,Sounds/cat_casa.mp3,2020-06-23_15h16.56.265,TranslationElicitation_spa,3.2.4,MacIntel,60,5ae9730c0335e200019e996a,,1,0,80,17,1,79
,,,,,,,,,,,,,,,,,,,,,,,,,,,,,,,,,,,a,1.68200016,CA,FALSE,,,,,,,122,casa,Catalan,Sounds/cat_casa.mp3,2020-06-23_15h16.56.265,TranslationElicitation_spa,3.2.4,MacIntel,60,5ae9730c0335e200019e996a,,1,0,80,17,1,79
,,,,,,,,,,,,,,,,,,,,,,,,,,,,,,,,,,,s,1.832000017,CAS,FALSE,,,,,,,122,casa,Catalan,Sounds/cat_casa.mp3,2020-06-23_15h16.56.265,TranslationElicitation_spa,3.2.4,MacIntel,60,5ae9730c0335e200019e996a,,1,0,80,17,1,79
,,,,,,,,,,,,,,,,,,,,,,,,,,,,,,,,,,,a,1.950000048,CASA,FALSE,,,,,,,122,casa,Catalan,Sounds/cat_casa.mp3,2020-06-23_15h16.56.265,TranslationElicitation_spa,3.2.4,MacIntel,60,5ae9730c0335e200019e996a,,1,0,80,17,1,79
,,,,,,,,,,,,,,,,,,,,,,,,,,,,,,,,,,,return,2.200999975,,FALSE,,,,,,,122,casa,Catalan,Sounds/cat_casa.mp3,2020-06-23_15h16.56.265,TranslationElicitation_spa,3.2.4,MacIntel,60,5ae9730c0335e200019e996a,2.200999975,1,0,80,17,1,79
,,,,,,,,,,,,,,,,,,,,,,,,,,,,,,,,,,,,,,,,,,,,,122,casa,Catalan,Sounds/cat_casa.mp3,2020-06-23_15h16.56.265,TranslationElicitation_spa,3.2.4,MacIntel,60,5ae9730c0335e200019e996a,,1,0,80,17,1,79
,,,,,,,,,,,,,,,,,,,,,,,,,,,,,,,,,,,m,1.536000013,M,FALSE,,,,,,,152,ma,Catalan,Sounds/cat_ma.mp3,2020-06-23_15h16.56.265,TranslationElicitation_spa,3.2.4,MacIntel,60,5ae9730c0335e200019e996a,,1,0,80,46,1,79
,,,,,,,,,,,,,,,,,,,,,,,,,,,,,,,,,,,a,1.701000214,MA,FALSE,,,,,,,152,ma,Catalan,Sounds/cat_ma.mp3,2020-06-23_15h16.56.265,TranslationElicitation_spa,3.2.4,MacIntel,60,5ae9730c0335e200019e996a,,1,0,80,46,1,79
,,,,,,,,,,,,,,,,,,,,,,,,,,,,,,,,,,,r,1.951000214,MAR,FALSE,,,,,,,152,ma,Catalan,Sounds/cat_ma.mp3,2020-06-23_15h16.56.265,TranslationElicitation_spa,3.2.4,MacIntel,60,5ae9730c0335e200019e996a,,1,0,80,46,1,79
,,,,,,,,,,,,,,,,,,,,,,,,,,,,,,,,,,,return,2.351000071,,FALSE,,,,,,,152,ma,Catalan,Sounds/cat_ma.mp3,2020-06-23_15h16.56.265,TranslationElicitation_spa,3.2.4,MacIntel,60,5ae9730c0335e200019e996a,2.351000071,1,0,80,46,1,79
,,,,,,,,,,,,,,,,,,,,,,,,,,,,,,,,,,,,,,,,,,,,,152,ma,Catalan,Sounds/cat_ma.mp3,2020-06-23_15h16.56.265,TranslationElicitation_spa,3.2.4,MacIntel,60,5ae9730c0335e200019e996a,,1,0,80,46,1,79
,,,,,,,,,,,,,,,,,,,,,,,,,,,,,,,,,,,z,1.514999866,Z,FALSE,,,,,,,189,zebra,Catalan,Sounds/cat_zebra.mp3,2020-06-23_15h16.56.265,TranslationElicitation_spa,3.2.4,MacIntel,60,5ae9730c0335e200019e996a,,1,0,80,79,1,79
,,,,,,,,,,,,,,,,,,,,,,,,,,,,,,,,,,,e,1.915999889,ZE,FALSE,,,,,,,189,zebra,Catalan,Sounds/cat_zebra.mp3,2020-06-23_15h16.56.265,TranslationElicitation_spa,3.2.4,MacIntel,60,5ae9730c0335e200019e996a,,1,0,80,79,1,79
,,,,,,,,,,,,,,,,,,,,,,,,,,,,,,,,,,,b,2.065999985,ZEB,FALSE,,,,,,,189,zebra,Catalan,Sounds/cat_zebra.mp3,2020-06-23_15h16.56.265,TranslationElicitation_spa,3.2.4,MacIntel,60,5ae9730c0335e200019e996a,,1,0,80,79,1,79
,,,,,,,,,,,,,,,,,,,,,,,,,,,,,,,,,,,r,2.197999954,ZEBR,FALSE,,,,,,,189,zebra,Catalan,Sounds/cat_zebra.mp3,2020-06-23_15h16.56.265,TranslationElicitation_spa,3.2.4,MacIntel,60,5ae9730c0335e200019e996a,,1,0,80,79,1,79
,,,,,,,,,,,,,,,,,,,,,,,,,,,,,,,,,,,a,2.398999929,ZEBRA,FALSE,,,,,,,189,zebra,Catalan,Sounds/cat_zebra.mp3,2020-06-23_15h16.56.265,TranslationElicitation_spa,3.2.4,MacIntel,60,5ae9730c0335e200019e996a,,1,0,80,79,1,79
,,,,,,,,,,,,,,,,,,,,,,,,,,,,,,,,,,,return,2.76699996,,FALSE,,,,,,,189,zebra,Catalan,Sounds/cat_zebra.mp3,2020-06-23_15h16.56.265,TranslationElicitation_spa,3.2.4,MacIntel,60,5ae9730c0335e200019e996a,2.76699996,1,0,80,79,1,79
,,,,,,,,,,,,,,,,,,,,,,,,,,,,,,,,,,,,,,,,,,,,,189,zebra,Catalan,Sounds/cat_zebra.mp3,2020-06-23_15h16.56.265,TranslationElicitation_spa,3.2.4,MacIntel,60,5ae9730c0335e200019e996a,,1,0,80,79,1,79
,,,,,,,,,,,,,,,,,,,,,,,,,,,,,,,,,,,v,4.952000141,V,FALSE,,,,,,,115,bolet,Catalan,Sounds/cat_bolet.mp3,2020-06-23_15h16.56.265,TranslationElicitation_spa,3.2.4,MacIntel,60,5ae9730c0335e200019e996a,,1,0,80,10,1,79
,,,,,,,,,,,,,,,,,,,,,,,,,,,,,,,,,,,u,5.085000038,VU,FALSE,,,,,,,115,bolet,Catalan,Sounds/cat_bolet.mp3,2020-06-23_15h16.56.265,TranslationElicitation_spa,3.2.4,MacIntel,60,5ae9730c0335e200019e996a,,1,0,80,10,1,79
,,,,,,,,,,,,,,,,,,,,,,,,,,,,,,,,,,,e,5.217999935,VUE,FALSE,,,,,,,115,bolet,Catalan,Sounds/cat_bolet.mp3,2020-06-23_15h16.56.265,TranslationElicitation_spa,3.2.4,MacIntel,60,5ae9730c0335e200019e996a,,1,0,80,10,1,79
,,,,,,,,,,,,,,,,,,,,,,,,,,,,,,,,,,,l,5.351999998,VUEL,FALSE,,,,,,,115,bolet,Catalan,Sounds/cat_bolet.mp3,2020-06-23_15h16.56.265,TranslationElicitation_spa,3.2.4,MacIntel,60,5ae9730c0335e200019e996a,,1,0,80,10,1,79
,,,,,,,,,,,,,,,,,,,,,,,,,,,,,,,,,,,o,5.618000031,VUELO,FALSE,,,,,,,115,bolet,Catalan,Sounds/cat_bolet.mp3,2020-06-23_15h16.56.265,TranslationElicitation_spa,3.2.4,MacIntel,60,5ae9730c0335e200019e996a,,1,0,80,10,1,79
,,,,,,,,,,,,,,,,,,,,,,,,,,,,,,,,,,,return,5.805999994,,FALSE,,,,,,,115,bolet,Catalan,Sounds/cat_bolet.mp3,2020-06-23_15h16.56.265,TranslationElicitation_spa,3.2.4,MacIntel,60,5ae9730c0335e200019e996a,5.805999994,1,0,80,10,1,79
,,,,,,,,,,,,,,,,,,,,,,,,,,,,,,,,,,,,,,,,,,,,,115,bolet,Catalan,Sounds/cat_bolet.mp3,2020-06-23_15h16.56.265,TranslationElicitation_spa,3.2.4,MacIntel,60,5ae9730c0335e200019e996a,,1,0,80,10,1,79
,,,,,,,,,,,,,,,,,,,,,,,,,,,,,,,,,,,r,3.334000111,R,FALSE,,,,,,,175,raspall,Catalan,Sounds/cat_raspall.mp3,2020-06-23_15h16.56.265,TranslationElicitation_spa,3.2.4,MacIntel,60,5ae9730c0335e200019e996a,,1,0,80,67,1,79
,,,,,,,,,,,,,,,,,,,,,,,,,,,,,,,,,,,a,3.617000103,RA,FALSE,,,,,,,175,raspall,Catalan,Sounds/cat_raspall.mp3,2020-06-23_15h16.56.265,TranslationElicitation_spa,3.2.4,MacIntel,60,5ae9730c0335e200019e996a,,1,0,80,67,1,79
,,,,,,,,,,,,,,,,,,,,,,,,,,,,,,,,,,,s,3.769000053,RAS,FALSE,,,,,,,175,raspall,Catalan,Sounds/cat_raspall.mp3,2020-06-23_15h16.56.265,TranslationElicitation_spa,3.2.4,MacIntel,60,5ae9730c0335e200019e996a,,1,0,80,67,1,79
,,,,,,,,,,,,,,,,,,,,,,,,,,,,,,,,,,,c,4.035000086,RASC,FALSE,,,,,,,175,raspall,Catalan,Sounds/cat_raspall.mp3,2020-06-23_15h16.56.265,TranslationElicitation_spa,3.2.4,MacIntel,60,5ae9730c0335e200019e996a,,1,0,80,67,1,79
,,,,,,,,,,,,,,,,,,,,,,,,,,,,,,,,,,,a,4.185000181,RASCA,FALSE,,,,,,,175,raspall,Catalan,Sounds/cat_raspall.mp3,2020-06-23_15h16.56.265,TranslationElicitation_spa,3.2.4,MacIntel,60,5ae9730c0335e200019e996a,,1,0,80,67,1,79
,,,,,,,,,,,,,,,,,,,,,,,,,,,,,,,,,,,r,4.417999983,RASCAR,FALSE,,,,,,,175,raspall,Catalan,Sounds/cat_raspall.mp3,2020-06-23_15h16.56.265,TranslationElicitation_spa,3.2.4,MacIntel,60,5ae9730c0335e200019e996a,,1,0,80,67,1,79
,,,,,,,,,,,,,,,,,,,,,,,,,,,,,,,,,,,return,4.751000166,,FALSE,,,,,,,175,raspall,Catalan,Sounds/cat_raspall.mp3,2020-06-23_15h16.56.265,TranslationElicitation_spa,3.2.4,MacIntel,60,5ae9730c0335e200019e996a,4.751000166,1,0,80,67,1,79
,,,,,,,,,,,,,,,,,,,,,,,,,,,,,,,,,,,,,,,,,,,,,175,raspall,Catalan,Sounds/cat_raspall.mp3,2020-06-23_15h16.56.265,TranslationElicitation_spa,3.2.4,MacIntel,60,5ae9730c0335e200019e996a,,1,0,80,67,1,79
,,,,,,,,,,,,,,,,,,,,,,,,,,,,,,,,,,,b,1.598999977,B,FALSE,,,,,,,113,boca,Catalan,Sounds/cat_boca.mp3,2020-06-23_15h16.56.265,TranslationElicitation_spa,3.2.4,MacIntel,60,5ae9730c0335e200019e996a,,1,0,80,8,1,79
,,,,,,,,,,,,,,,,,,,,,,,,,,,,,,,,,,,o,1.848999977,BO,FALSE,,,,,,,113,boca,Catalan,Sounds/cat_boca.mp3,2020-06-23_15h16.56.265,TranslationElicitation_spa,3.2.4,MacIntel,60,5ae9730c0335e200019e996a,,1,0,80,8,1,79
,,,,,,,,,,,,,,,,,,,,,,,,,,,,,,,,,,,c,2.015999794,BOC,FALSE,,,,,,,113,boca,Catalan,Sounds/cat_boca.mp3,2020-06-23_15h16.56.265,TranslationElicitation_spa,3.2.4,MacIntel,60,5ae9730c0335e200019e996a,,1,0,80,8,1,79
,,,,,,,,,,,,,,,,,,,,,,,,,,,,,,,,,,,a,2.132999897,BOCA,FALSE,,,,,,,113,boca,Catalan,Sounds/cat_boca.mp3,2020-06-23_15h16.56.265,TranslationElicitation_spa,3.2.4,MacIntel,60,5ae9730c0335e200019e996a,,1,0,80,8,1,79
,,,,,,,,,,,,,,,,,,,,,,,,,,,,,,,,,,,return,2.431999922,,FALSE,,,,,,,113,boca,Catalan,Sounds/cat_boca.mp3,2020-06-23_15h16.56.265,TranslationElicitation_spa,3.2.4,MacIntel,60,5ae9730c0335e200019e996a,2.431999922,1,0,80,8,1,79
,,,,,,,,,,,,,,,,,,,,,,,,,,,,,,,,,,,,,,,,,,,,,113,boca,Catalan,Sounds/cat_boca.mp3,2020-06-23_15h16.56.265,TranslationElicitation_spa,3.2.4,MacIntel,60,5ae9730c0335e200019e996a,,1,0,80,8,1,79
,,,,,,,,,,,,,,,,,,,,,,,,,,,,,,,,,,,p,1.782999992,P,FALSE,,,,,,,168,planta,Catalan,Sounds/cat_planta.mp3,2020-06-23_15h16.56.265,TranslationElicitation_spa,3.2.4,MacIntel,60,5ae9730c0335e200019e996a,,1,0,80,60,1,79
,,,,,,,,,,,,,,,,,,,,,,,,,,,,,,,,,,,l,1.881999969,PL,FALSE,,,,,,,168,planta,Catalan,Sounds/cat_planta.mp3,2020-06-23_15h16.56.265,TranslationElicitation_spa,3.2.4,MacIntel,60,5ae9730c0335e200019e996a,,1,0,80,60,1,79
,,,,,,,,,,,,,,,,,,,,,,,,,,,,,,,,,,,a,2.198999882,PLA,FALSE,,,,,,,168,planta,Catalan,Sounds/cat_planta.mp3,2020-06-23_15h16.56.265,TranslationElicitation_spa,3.2.4,MacIntel,60,5ae9730c0335e200019e996a,,1,0,80,60,1,79
,,,,,,,,,,,,,,,,,,,,,,,,,,,,,,,,,,,n,2.299999952,PLAN,FALSE,,,,,,,168,planta,Catalan,Sounds/cat_planta.mp3,2020-06-23_15h16.56.265,TranslationElicitation_spa,3.2.4,MacIntel,60,5ae9730c0335e200019e996a,,1,0,80,60,1,79
,,,,,,,,,,,,,,,,,,,,,,,,,,,,,,,,,,,t,2.5,PLANT,FALSE,,,,,,,168,planta,Catalan,Sounds/cat_planta.mp3,2020-06-23_15h16.56.265,TranslationElicitation_spa,3.2.4,MacIntel,60,5ae9730c0335e200019e996a,,1,0,80,60,1,79
,,,,,,,,,,,,,,,,,,,,,,,,,,,,,,,,,,,a,2.717000008,PLANTA,FALSE,,,,,,,168,planta,Catalan,Sounds/cat_planta.mp3,2020-06-23_15h16.56.265,TranslationElicitation_spa,3.2.4,MacIntel,60,5ae9730c0335e200019e996a,,1,0,80,60,1,79
,,,,,,,,,,,,,,,,,,,,,,,,,,,,,,,,,,,return,2.964999914,,FALSE,,,,,,,168,planta,Catalan,Sounds/cat_planta.mp3,2020-06-23_15h16.56.265,TranslationElicitation_spa,3.2.4,MacIntel,60,5ae9730c0335e200019e996a,2.964999914,1,0,80,60,1,79
,,,,,,,,,,,,,,,,,,,,,,,,,,,,,,,,,,,,,,,,,,,,,168,planta,Catalan,Sounds/cat_planta.mp3,2020-06-23_15h16.56.265,TranslationElicitation_spa,3.2.4,MacIntel,60,5ae9730c0335e200019e996a,,1,0,80,60,1,79
,,,,,,,,,,,,,,,,,,,,,,,,,,,,,,,,,,,b,2.06799984,B,FALSE,,,,,,,114,bol,Catalan,Sounds/cat_bol.mp3,2020-06-23_15h16.56.265,TranslationElicitation_spa,3.2.4,MacIntel,60,5ae9730c0335e200019e996a,,1,0,80,9,1,79
,,,,,,,,,,,,,,,,,,,,,,,,,,,,,,,,,,,o,2.167999983,BO,FALSE,,,,,,,114,bol,Catalan,Sounds/cat_bol.mp3,2020-06-23_15h16.56.265,TranslationElicitation_spa,3.2.4,MacIntel,60,5ae9730c0335e200019e996a,,1,0,80,9,1,79
,,,,,,,,,,,,,,,,,,,,,,,,,,,,,,,,,,,l,2.369999886,BOL,FALSE,,,,,,,114,bol,Catalan,Sounds/cat_bol.mp3,2020-06-23_15h16.56.265,TranslationElicitation_spa,3.2.4,MacIntel,60,5ae9730c0335e200019e996a,,1,0,80,9,1,79
,,,,,,,,,,,,,,,,,,,,,,,,,,,,,,,,,,,return,2.601999998,,FALSE,,,,,,,114,bol,Catalan,Sounds/cat_bol.mp3,2020-06-23_15h16.56.265,TranslationElicitation_spa,3.2.4,MacIntel,60,5ae9730c0335e200019e996a,2.601999998,1,0,80,9,1,79
,,,,,,,,,,,,,,,,,,,,,,,,,,,,,,,,,,,,,,,,,,,,,114,bol,Catalan,Sounds/cat_bol.mp3,2020-06-23_15h16.56.265,TranslationElicitation_spa,3.2.4,MacIntel,60,5ae9730c0335e200019e996a,,1,0,80,9,1,79
,,,,,,,,,,,,,,,,,,,,,,,,,,,,,,,,,,,l,1.835999966,L,FALSE,,,,,,,151,lluna,Catalan,Sounds/cat_lluna.mp3,2020-06-23_15h16.56.265,TranslationElicitation_spa,3.2.4,MacIntel,60,5ae9730c0335e200019e996a,,1,0,80,45,1,79
,,,,,,,,,,,,,,,,,,,,,,,,,,,,,,,,,,,u,2.085000038,LU,FALSE,,,,,,,151,lluna,Catalan,Sounds/cat_lluna.mp3,2020-06-23_15h16.56.265,TranslationElicitation_spa,3.2.4,MacIntel,60,5ae9730c0335e200019e996a,,1,0,80,45,1,79
,,,,,,,,,,,,,,,,,,,,,,,,,,,,,,,,,,,n,2.315999985,LUN,FALSE,,,,,,,151,lluna,Catalan,Sounds/cat_lluna.mp3,2020-06-23_15h16.56.265,TranslationElicitation_spa,3.2.4,MacIntel,60,5ae9730c0335e200019e996a,,1,0,80,45,1,79
,,,,,,,,,,,,,,,,,,,,,,,,,,,,,,,,,,,a,2.417000055,LUNA,FALSE,,,,,,,151,lluna,Catalan,Sounds/cat_lluna.mp3,2020-06-23_15h16.56.265,TranslationElicitation_spa,3.2.4,MacIntel,60,5ae9730c0335e200019e996a,,1,0,80,45,1,79
,,,,,,,,,,,,,,,,,,,,,,,,,,,,,,,,,,,return,2.66899991,,FALSE,,,,,,,151,lluna,Catalan,Sounds/cat_lluna.mp3,2020-06-23_15h16.56.265,TranslationElicitation_spa,3.2.4,MacIntel,60,5ae9730c0335e200019e996a,2.66899991,1,0,80,45,1,79
,,,,,,,,,,,,,,,,,,,,,,,,,,,,,,,,,,,,,,,,,,,,,151,lluna,Catalan,Sounds/cat_lluna.mp3,2020-06-23_15h16.56.265,TranslationElicitation_spa,3.2.4,MacIntel,60,5ae9730c0335e200019e996a,,1,0,80,45,1,79
,,,,,,,,,,,,,,,,,,,,,,,,,,,,,,,,,,,l,2.01699996,L,FALSE,,,,,,,148,lleo,Catalan,Sounds/cat_lleo.mp3,2020-06-23_15h16.56.265,TranslationElicitation_spa,3.2.4,MacIntel,60,5ae9730c0335e200019e996a,,1,0,80,42,1,79
,,,,,,,,,,,,,,,,,,,,,,,,,,,,,,,,,,,l,2.236000061,LL,FALSE,,,,,,,148,lleo,Catalan,Sounds/cat_lleo.mp3,2020-06-23_15h16.56.265,TranslationElicitation_spa,3.2.4,MacIntel,60,5ae9730c0335e200019e996a,,1,0,80,42,1,79
,,,,,,,,,,,,,,,,,,,,,,,,,,,,,,,,,,,a,2.536000013,LLA,FALSE,,,,,,,148,lleo,Catalan,Sounds/cat_lleo.mp3,2020-06-23_15h16.56.265,TranslationElicitation_spa,3.2.4,MacIntel,60,5ae9730c0335e200019e996a,,1,0,80,42,1,79
,,,,,,,,,,,,,,,,,,,,,,,,,,,,,,,,,,,v,2.736999989,LLAV,FALSE,,,,,,,148,lleo,Catalan,Sounds/cat_lleo.mp3,2020-06-23_15h16.56.265,TranslationElicitation_spa,3.2.4,MacIntel,60,5ae9730c0335e200019e996a,,1,0,80,42,1,79
,,,,,,,,,,,,,,,,,,,,,,,,,,,,,,,,,,,e,2.99000001,LLAVE,FALSE,,,,,,,148,lleo,Catalan,Sounds/cat_lleo.mp3,2020-06-23_15h16.56.265,TranslationElicitation_spa,3.2.4,MacIntel,60,5ae9730c0335e200019e996a,,1,0,80,42,1,79
,,,,,,,,,,,,,,,,,,,,,,,,,,,,,,,,,,,s,4.119999886,LLAVES,FALSE,,,,,,,148,lleo,Catalan,Sounds/cat_lleo.mp3,2020-06-23_15h16.56.265,TranslationElicitation_spa,3.2.4,MacIntel,60,5ae9730c0335e200019e996a,,1,0,80,42,1,79
,,,,,,,,,,,,,,,,,,,,,,,,,,,,,,,,,,,return,4.486000061,,FALSE,,,,,,,148,lleo,Catalan,Sounds/cat_lleo.mp3,2020-06-23_15h16.56.265,TranslationElicitation_spa,3.2.4,MacIntel,60,5ae9730c0335e200019e996a,4.486000061,1,0,80,42,1,79
,,,,,,,,,,,,,,,,,,,,,,,,,,,,,,,,,,,,,,,,,,,,,148,lleo,Catalan,Sounds/cat_lleo.mp3,2020-06-23_15h16.56.265,TranslationElicitation_spa,3.2.4,MacIntel,60,5ae9730c0335e200019e996a,,1,0,80,42,1,79
,,,,,,,,,,,,,,,,,,,,,,,,,,,,,,,,,,,h,1.349999905,H,FALSE,,,,,,,135,formiga,Catalan,Sounds/cat_formiga.mp3,2020-06-23_15h16.56.265,TranslationElicitation_spa,3.2.4,MacIntel,60,5ae9730c0335e200019e996a,,1,0,80,30,1,79
,,,,,,,,,,,,,,,,,,,,,,,,,,,,,,,,,,,o,1.532999992,HO,FALSE,,,,,,,135,formiga,Catalan,Sounds/cat_formiga.mp3,2020-06-23_15h16.56.265,TranslationElicitation_spa,3.2.4,MacIntel,60,5ae9730c0335e200019e996a,,1,0,80,30,1,79
,,,,,,,,,,,,,,,,,,,,,,,,,,,,,,,,,,,r,1.667000055,HOR,FALSE,,,,,,,135,formiga,Catalan,Sounds/cat_formiga.mp3,2020-06-23_15h16.56.265,TranslationElicitation_spa,3.2.4,MacIntel,60,5ae9730c0335e200019e996a,,1,0,80,30,1,79
,,,,,,,,,,,,,,,,,,,,,,,,,,,,,,,,,,,m,1.733999968,HORM,FALSE,,,,,,,135,formiga,Catalan,Sounds/cat_formiga.mp3,2020-06-23_15h16.56.265,TranslationElicitation_spa,3.2.4,MacIntel,60,5ae9730c0335e200019e996a,,1,0,80,30,1,79
,,,,,,,,,,,,,,,,,,,,,,,,,,,,,,,,,,,i,1.848999977,HORMI,FALSE,,,,,,,135,formiga,Catalan,Sounds/cat_formiga.mp3,2020-06-23_15h16.56.265,TranslationElicitation_spa,3.2.4,MacIntel,60,5ae9730c0335e200019e996a,,1,0,80,30,1,79
,,,,,,,,,,,,,,,,,,,,,,,,,,,,,,,,,,,g,1.934000015,HORMIG,FALSE,,,,,,,135,formiga,Catalan,Sounds/cat_formiga.mp3,2020-06-23_15h16.56.265,TranslationElicitation_spa,3.2.4,MacIntel,60,5ae9730c0335e200019e996a,,1,0,80,30,1,79
,,,,,,,,,,,,,,,,,,,,,,,,,,,,,,,,,,,a,2.149999857,HORMIGA,FALSE,,,,,,,135,formiga,Catalan,Sounds/cat_formiga.mp3,2020-06-23_15h16.56.265,TranslationElicitation_spa,3.2.4,MacIntel,60,5ae9730c0335e200019e996a,,1,0,80,30,1,79
,,,,,,,,,,,,,,,,,,,,,,,,,,,,,,,,,,,return,2.55099988,,FALSE,,,,,,,135,formiga,Catalan,Sounds/cat_formiga.mp3,2020-06-23_15h16.56.265,TranslationElicitation_spa,3.2.4,MacIntel,60,5ae9730c0335e200019e996a,2.55099988,1,0,80,30,1,79
,,,,,,,,,,,,,,,,,,,,,,,,,,,,,,,,,,,,,,,,,,,,,135,formiga,Catalan,Sounds/cat_formiga.mp3,2020-06-23_15h16.56.265,TranslationElicitation_spa,3.2.4,MacIntel,60,5ae9730c0335e200019e996a,,1,0,80,30,1,79
,,,,,,,,,,,,,,,,,,,,,,,,,,,,,,,,,,,c,1.814999819,C,FALSE,,,,,,,188,xocolata,Catalan,Sounds/cat_xocolata.mp3,2020-06-23_15h16.56.265,TranslationElicitation_spa,3.2.4,MacIntel,60,5ae9730c0335e200019e996a,,1,0,80,78,1,79
,,,,,,,,,,,,,,,,,,,,,,,,,,,,,,,,,,,h,1.898999929,CH,FALSE,,,,,,,188,xocolata,Catalan,Sounds/cat_xocolata.mp3,2020-06-23_15h16.56.265,TranslationElicitation_spa,3.2.4,MacIntel,60,5ae9730c0335e200019e996a,,1,0,80,78,1,79
,,,,,,,,,,,,,,,,,,,,,,,,,,,,,,,,,,,o,2.118000031,CHO,FALSE,,,,,,,188,xocolata,Catalan,Sounds/cat_xocolata.mp3,2020-06-23_15h16.56.265,TranslationElicitation_spa,3.2.4,MacIntel,60,5ae9730c0335e200019e996a,,1,0,80,78,1,79
,,,,,,,,,,,,,,,,,,,,,,,,,,,,,,,,,,,c,2.165999889,CHOC,FALSE,,,,,,,188,xocolata,Catalan,Sounds/cat_xocolata.mp3,2020-06-23_15h16.56.265,TranslationElicitation_spa,3.2.4,MacIntel,60,5ae9730c0335e200019e996a,,1,0,80,78,1,79
,,,,,,,,,,,,,,,,,,,,,,,,,,,,,,,,,,,o,2.368000031,CHOCO,FALSE,,,,,,,188,xocolata,Catalan,Sounds/cat_xocolata.mp3,2020-06-23_15h16.56.265,TranslationElicitation_spa,3.2.4,MacIntel,60,5ae9730c0335e200019e996a,,1,0,80,78,1,79
,,,,,,,,,,,,,,,,,,,,,,,,,,,,,,,,,,,l,2.616999865,CHOCOL,FALSE,,,,,,,188,xocolata,Catalan,Sounds/cat_xocolata.mp3,2020-06-23_15h16.56.265,TranslationElicitation_spa,3.2.4,MacIntel,60,5ae9730c0335e200019e996a,,1,0,80,78,1,79
