consentKey.keys,consentKey.rt,languageL1Key.keys,languageL1Key.rt,languageL2,languageL2OralKey.keys,languageL2OralKey.rt,languageL2WrittenKey.keys,languageL2WrittenKey.rt,languageL3OralKey.keys,languageL3OralKey.rt,languageL3WrittenKey.keys,languageL3WrittenKey.rt,languageCatalanOralKey.keys,languageCatalanOralKey.rt,languageCatalanWrittenKey.keys,languageCatalanWrittenKey.rt,languageCatalanTimeKey.keys,languageCatalanTimeKey.rt,languageSpanishOralKey.keys,languageSpanishOralKey.rt,languageSpanishWrittenKey.keys,languageSpanishWrittenKey.rt,languageSpanishTimeKey.keys,languageSpanishTimeKey.rt,age,demoSexKey.keys,demoSexKey.rt,demoEducationKey.keys,demoEducationKey.rt,city,demoVisionKey.keys,demoVisionKey.rt,demoLanguageKey.keys,demoLanguageKey.rt,setupLocationKey.keys,setupLocationKey.rt,setupNoiseKey.keys,setupNoiseKey.rt,instructionsKeys.keys,instructionsKeys.rt,keyPressed,keyPressTime,inputText,error,trialsPracticeSpanish.thisRepN,trialsPracticeSpanish.thisTrialN,trialsPracticeSpanish.thisN,trialsPracticeSpanish.thisIndex,trialsPracticeSpanish.ran,trialsPracticeSpanish.order,trial_id,word,test_language,soundfile,date,expName,psychopyVersion,OS,frameRate,participant,trialOffset,trialsSpanish.thisRepN,trialsSpanish.thisTrialN,trialsSpanish.thisN,trialsSpanish.thisIndex,trialsSpanish.ran,trialsSpanish.order
space,2.868999958,e,2.602999926,,,,,,,,,,1,4.052999973,1,8.747999907,1,4.889999866,1,2.684999943,1,1.36500001,1,1.055000067,26,f,1.542999744,3,3.059999943,LSHIFTSPALDING,y,3.555999994,n,1.964999914,1,1.839999914,1,2.780999899,space,18.79799986,c,9.177000046,C,FALSE,1,0,5,2,1,4,26,chaqueta,Spanish,Sounds/spa_chaqueta.mp3,2020-06-05_16h24.49.615,TranslationElicitation_eng-prolific,3.2.4,MacIntel,60,5b1ec77744127b0001400ec0,,,,,,,
,,,,,,,,,,,,,,,,,,,,,,,,,,,,,,,,,,,,,,,,,backspace,10.32500005,,TRUE,1,0,5,2,1,4,26,chaqueta,Spanish,Sounds/spa_chaqueta.mp3,2020-06-05_16h24.49.615,TranslationElicitation_eng-prolific,3.2.4,MacIntel,60,5b1ec77744127b0001400ec0,,,,,,,
,,,,,,,,,,,,,,,,,,,,,,,,,,,,,,,,,,,,,,,,,g,13.31700015,G,TRUE,1,0,5,2,1,4,26,chaqueta,Spanish,Sounds/spa_chaqueta.mp3,2020-06-05_16h24.49.615,TranslationElicitation_eng-prolific,3.2.4,MacIntel,60,5b1ec77744127b0001400ec0,,,,,,,
,,,,,,,,,,,,,,,,,,,,,,,,,,,,,,,,,,,,,,,,,i,13.43400002,GI,TRUE,1,0,5,2,1,4,26,chaqueta,Spanish,Sounds/spa_chaqueta.mp3,2020-06-05_16h24.49.615,TranslationElicitation_eng-prolific,3.2.4,MacIntel,60,5b1ec77744127b0001400ec0,,,,,,,
,,,,,,,,,,,,,,,,,,,,,,,,,,,,,,,,,,,,,,,,,r,13.53400016,GIR,TRUE,1,0,5,2,1,4,26,chaqueta,Spanish,Sounds/spa_chaqueta.mp3,2020-06-05_16h24.49.615,TranslationElicitation_eng-prolific,3.2.4,MacIntel,60,5b1ec77744127b0001400ec0,,,,,,,
,,,,,,,,,,,,,,,,,,,,,,,,,,,,,,,,,,,,,,,,,l,13.60100007,GIRL,TRUE,1,0,5,2,1,4,26,chaqueta,Spanish,Sounds/spa_chaqueta.mp3,2020-06-05_16h24.49.615,TranslationElicitation_eng-prolific,3.2.4,MacIntel,60,5b1ec77744127b0001400ec0,,,,,,,
,,,,,,,,,,,,,,,,,,,,,,,,,,,,,,,,,,,,,,,,,return,13.81700015,GIRL,TRUE,1,0,5,2,1,4,26,chaqueta,Spanish,Sounds/spa_chaqueta.mp3,2020-06-05_16h24.49.615,TranslationElicitation_eng-prolific,3.2.4,MacIntel,60,5b1ec77744127b0001400ec0,13.81700015,,,,,,
,,,,,,,,,,,,,,,,,,,,,,,,,,,,,,,,,,,,,,,,,,,,,1,0,5,2,1,4,26,chaqueta,Spanish,Sounds/spa_chaqueta.mp3,2020-06-05_16h24.49.615,TranslationElicitation_eng-prolific,3.2.4,MacIntel,60,5b1ec77744127b0001400ec0,,,,,,,
,,,,,,,,,,,,,,,,,,,,,,,,,,,,,,,,,,,,,,,,,h,1.697000027,H,FALSE,1,0,5,3,1,4,70,ola,Spanish,Sounds/spa_ola.mp3,2020-06-05_16h24.49.615,TranslationElicitation_eng-prolific,3.2.4,MacIntel,60,5b1ec77744127b0001400ec0,,,,,,,
,,,,,,,,,,,,,,,,,,,,,,,,,,,,,,,,,,,,,,,,,e,1.828999996,HE,FALSE,1,0,5,3,1,4,70,ola,Spanish,Sounds/spa_ola.mp3,2020-06-05_16h24.49.615,TranslationElicitation_eng-prolific,3.2.4,MacIntel,60,5b1ec77744127b0001400ec0,,,,,,,
,,,,,,,,,,,,,,,,,,,,,,,,,,,,,,,,,,,,,,,,,l,1.944999933,HEL,FALSE,1,0,5,3,1,4,70,ola,Spanish,Sounds/spa_ola.mp3,2020-06-05_16h24.49.615,TranslationElicitation_eng-prolific,3.2.4,MacIntel,60,5b1ec77744127b0001400ec0,,,,,,,
,,,,,,,,,,,,,,,,,,,,,,,,,,,,,,,,,,,,,,,,,l,2.046000004,HELL,FALSE,1,0,5,3,1,4,70,ola,Spanish,Sounds/spa_ola.mp3,2020-06-05_16h24.49.615,TranslationElicitation_eng-prolific,3.2.4,MacIntel,60,5b1ec77744127b0001400ec0,,,,,,,
,,,,,,,,,,,,,,,,,,,,,,,,,,,,,,,,,,,,,,,,,o,2.178999901,HELLO,FALSE,1,0,5,3,1,4,70,ola,Spanish,Sounds/spa_ola.mp3,2020-06-05_16h24.49.615,TranslationElicitation_eng-prolific,3.2.4,MacIntel,60,5b1ec77744127b0001400ec0,,,,,,,
,,,,,,,,,,,,,,,,,,,,,,,,,,,,,,,,,,,,,,,,,return,2.378000021,HELLO,FALSE,1,0,5,3,1,4,70,ola,Spanish,Sounds/spa_ola.mp3,2020-06-05_16h24.49.615,TranslationElicitation_eng-prolific,3.2.4,MacIntel,60,5b1ec77744127b0001400ec0,2.378000021,,,,,,
,,,,,,,,,,,,,,,,,,,,,,,,,,,,,,,,,,,,,,,,,,,,,1,0,5,3,1,4,70,ola,Spanish,Sounds/spa_ola.mp3,2020-06-05_16h24.49.615,TranslationElicitation_eng-prolific,3.2.4,MacIntel,60,5b1ec77744127b0001400ec0,,,,,,,
,,,,,,,,,,,,,,,,,,,,,,,,,,,,,,,,,,,,,,,,,e,2.111999989,E,FALSE,1,0,5,0,1,4,1,arbol,Spanish,Sounds/spa_arbol.mp3,2020-06-05_16h24.49.615,TranslationElicitation_eng-prolific,3.2.4,MacIntel,60,5b1ec77744127b0001400ec0,,,,,,,
,,,,,,,,,,,,,,,,,,,,,,,,,,,,,,,,,,,,,,,,,y,2.210999966,EY,FALSE,1,0,5,0,1,4,1,arbol,Spanish,Sounds/spa_arbol.mp3,2020-06-05_16h24.49.615,TranslationElicitation_eng-prolific,3.2.4,MacIntel,60,5b1ec77744127b0001400ec0,,,,,,,
,,,,,,,,,,,,,,,,,,,,,,,,,,,,,,,,,,,,,,,,,b,2.377000093,EYB,FALSE,1,0,5,0,1,4,1,arbol,Spanish,Sounds/spa_arbol.mp3,2020-06-05_16h24.49.615,TranslationElicitation_eng-prolific,3.2.4,MacIntel,60,5b1ec77744127b0001400ec0,,,,,,,
,,,,,,,,,,,,,,,,,,,,,,,,,,,,,,,,,,,,,,,,,a,2.460999966,EYBA,FALSE,1,0,5,0,1,4,1,arbol,Spanish,Sounds/spa_arbol.mp3,2020-06-05_16h24.49.615,TranslationElicitation_eng-prolific,3.2.4,MacIntel,60,5b1ec77744127b0001400ec0,,,,,,,
,,,,,,,,,,,,,,,,,,,,,,,,,,,,,,,,,,,,,,,,,l,2.610000134,EYBAL,FALSE,1,0,5,0,1,4,1,arbol,Spanish,Sounds/spa_arbol.mp3,2020-06-05_16h24.49.615,TranslationElicitation_eng-prolific,3.2.4,MacIntel,60,5b1ec77744127b0001400ec0,,,,,,,
,,,,,,,,,,,,,,,,,,,,,,,,,,,,,,,,,,,,,,,,,l,2.743000031,EYBALL,FALSE,1,0,5,0,1,4,1,arbol,Spanish,Sounds/spa_arbol.mp3,2020-06-05_16h24.49.615,TranslationElicitation_eng-prolific,3.2.4,MacIntel,60,5b1ec77744127b0001400ec0,,,,,,,
,,,,,,,,,,,,,,,,,,,,,,,,,,,,,,,,,,,,,,,,,backspace,3.075999975,EYBAL,TRUE,1,0,5,0,1,4,1,arbol,Spanish,Sounds/spa_arbol.mp3,2020-06-05_16h24.49.615,TranslationElicitation_eng-prolific,3.2.4,MacIntel,60,5b1ec77744127b0001400ec0,,,,,,,
,,,,,,,,,,,,,,,,,,,,,,,,,,,,,,,,,,,,,,,,,backspace,3.276000023,EYBA,TRUE,1,0,5,0,1,4,1,arbol,Spanish,Sounds/spa_arbol.mp3,2020-06-05_16h24.49.615,TranslationElicitation_eng-prolific,3.2.4,MacIntel,60,5b1ec77744127b0001400ec0,,,,,,,
,,,,,,,,,,,,,,,,,,,,,,,,,,,,,,,,,,,,,,,,,backspace,3.39199996,EYB,TRUE,1,0,5,0,1,4,1,arbol,Spanish,Sounds/spa_arbol.mp3,2020-06-05_16h24.49.615,TranslationElicitation_eng-prolific,3.2.4,MacIntel,60,5b1ec77744127b0001400ec0,,,,,,,
,,,,,,,,,,,,,,,,,,,,,,,,,,,,,,,,,,,,,,,,,backspace,3.508000135,EY,TRUE,1,0,5,0,1,4,1,arbol,Spanish,Sounds/spa_arbol.mp3,2020-06-05_16h24.49.615,TranslationElicitation_eng-prolific,3.2.4,MacIntel,60,5b1ec77744127b0001400ec0,,,,,,,
,,,,,,,,,,,,,,,,,,,,,,,,,,,,,,,,,,,,,,,,,e,3.558000088,EYE,TRUE,1,0,5,0,1,4,1,arbol,Spanish,Sounds/spa_arbol.mp3,2020-06-05_16h24.49.615,TranslationElicitation_eng-prolific,3.2.4,MacIntel,60,5b1ec77744127b0001400ec0,,,,,,,
,,,,,,,,,,,,,,,,,,,,,,,,,,,,,,,,,,,,,,,,,b,4.039999962,EYEB,TRUE,1,0,5,0,1,4,1,arbol,Spanish,Sounds/spa_arbol.mp3,2020-06-05_16h24.49.615,TranslationElicitation_eng-prolific,3.2.4,MacIntel,60,5b1ec77744127b0001400ec0,,,,,,,
,,,,,,,,,,,,,,,,,,,,,,,,,,,,,,,,,,,,,,,,,a,4.156000137,EYEBA,TRUE,1,0,5,0,1,4,1,arbol,Spanish,Sounds/spa_arbol.mp3,2020-06-05_16h24.49.615,TranslationElicitation_eng-prolific,3.2.4,MacIntel,60,5b1ec77744127b0001400ec0,,,,,,,
,,,,,,,,,,,,,,,,,,,,,,,,,,,,,,,,,,,,,,,,,l,4.273000002,EYEBAL,TRUE,1,0,5,0,1,4,1,arbol,Spanish,Sounds/spa_arbol.mp3,2020-06-05_16h24.49.615,TranslationElicitation_eng-prolific,3.2.4,MacIntel,60,5b1ec77744127b0001400ec0,,,,,,,
,,,,,,,,,,,,,,,,,,,,,,,,,,,,,,,,,,,,,,,,,l,4.404999971,EYEBALL,TRUE,1,0,5,0,1,4,1,arbol,Spanish,Sounds/spa_arbol.mp3,2020-06-05_16h24.49.615,TranslationElicitation_eng-prolific,3.2.4,MacIntel,60,5b1ec77744127b0001400ec0,,,,,,,
,,,,,,,,,,,,,,,,,,,,,,,,,,,,,,,,,,,,,,,,,return,4.555999994,EYEBALL,TRUE,1,0,5,0,1,4,1,arbol,Spanish,Sounds/spa_arbol.mp3,2020-06-05_16h24.49.615,TranslationElicitation_eng-prolific,3.2.4,MacIntel,60,5b1ec77744127b0001400ec0,4.555999994,,,,,,
,,,,,,,,,,,,,,,,,,,,,,,,,,,,,,,,,,,,,,,,,,,,,1,0,5,0,1,4,1,arbol,Spanish,Sounds/spa_arbol.mp3,2020-06-05_16h24.49.615,TranslationElicitation_eng-prolific,3.2.4,MacIntel,60,5b1ec77744127b0001400ec0,,,,,,,
,,,,,,,,,,,,,,,,,,,,,,,,,,,,,,,,,,,,,,,,,c,1.877999783,C,FALSE,1,0,5,1,1,4,30,corona,Spanish,Sounds/spa_corona.mp3,2020-06-05_16h24.49.615,TranslationElicitation_eng-prolific,3.2.4,MacIntel,60,5b1ec77744127b0001400ec0,,,,,,,
,,,,,,,,,,,,,,,,,,,,,,,,,,,,,,,,,,,,,,,,,o,1.994999886,CO,FALSE,1,0,5,1,1,4,30,corona,Spanish,Sounds/spa_corona.mp3,2020-06-05_16h24.49.615,TranslationElicitation_eng-prolific,3.2.4,MacIntel,60,5b1ec77744127b0001400ec0,,,,,,,
,,,,,,,,,,,,,,,,,,,,,,,,,,,,,,,,,,,,,,,,,r,2.127999783,COR,FALSE,1,0,5,1,1,4,30,corona,Spanish,Sounds/spa_corona.mp3,2020-06-05_16h24.49.615,TranslationElicitation_eng-prolific,3.2.4,MacIntel,60,5b1ec77744127b0001400ec0,,,,,,,
,,,,,,,,,,,,,,,,,,,,,,,,,,,,,,,,,,,,,,,,,o,2.210999966,CORO,FALSE,1,0,5,1,1,4,30,corona,Spanish,Sounds/spa_corona.mp3,2020-06-05_16h24.49.615,TranslationElicitation_eng-prolific,3.2.4,MacIntel,60,5b1ec77744127b0001400ec0,,,,,,,
,,,,,,,,,,,,,,,,,,,,,,,,,,,,,,,,,,,,,,,,,n,2.359999895,CORON,FALSE,1,0,5,1,1,4,30,corona,Spanish,Sounds/spa_corona.mp3,2020-06-05_16h24.49.615,TranslationElicitation_eng-prolific,3.2.4,MacIntel,60,5b1ec77744127b0001400ec0,,,,,,,
,,,,,,,,,,,,,,,,,,,,,,,,,,,,,,,,,,,,,,,,,a,2.859999895,CORONA,FALSE,1,0,5,1,1,4,30,corona,Spanish,Sounds/spa_corona.mp3,2020-06-05_16h24.49.615,TranslationElicitation_eng-prolific,3.2.4,MacIntel,60,5b1ec77744127b0001400ec0,,,,,,,
,,,,,,,,,,,,,,,,,,,,,,,,,,,,,,,,,,,,,,,,,return,3.042999983,CORONA,FALSE,1,0,5,1,1,4,30,corona,Spanish,Sounds/spa_corona.mp3,2020-06-05_16h24.49.615,TranslationElicitation_eng-prolific,3.2.4,MacIntel,60,5b1ec77744127b0001400ec0,3.042999983,,,,,,
,,,,,,,,,,,,,,,,,,,,,,,,,,,,,,,,,,,,,,,,,,,,,1,0,5,1,1,4,30,corona,Spanish,Sounds/spa_corona.mp3,2020-06-05_16h24.49.615,TranslationElicitation_eng-prolific,3.2.4,MacIntel,60,5b1ec77744127b0001400ec0,,,,,,,
,,,,,,,,,,,,,,,,,,,,,,,,,,,,,,,,,,,,,,,,,c,2.927000046,C,FALSE,1,0,5,4,1,4,96,tigre,Spanish,Sounds/spa_tigre.mp3,2020-06-05_16h24.49.615,TranslationElicitation_eng-prolific,3.2.4,MacIntel,60,5b1ec77744127b0001400ec0,,,,,,,
,,,,,,,,,,,,,,,,,,,,,,,,,,,,,,,,,,,,,,,,,h,2.975999832,CH,FALSE,1,0,5,4,1,4,96,tigre,Spanish,Sounds/spa_tigre.mp3,2020-06-05_16h24.49.615,TranslationElicitation_eng-prolific,3.2.4,MacIntel,60,5b1ec77744127b0001400ec0,,,,,,,
,,,,,,,,,,,,,,,,,,,,,,,,,,,,,,,,,,,,,,,,,i,3.059000015,CHI,FALSE,1,0,5,4,1,4,96,tigre,Spanish,Sounds/spa_tigre.mp3,2020-06-05_16h24.49.615,TranslationElicitation_eng-prolific,3.2.4,MacIntel,60,5b1ec77744127b0001400ec0,,,,,,,
,,,,,,,,,,,,,,,,,,,,,,,,,,,,,,,,,,,,,,,,,c,3.14199996,CHIC,FALSE,1,0,5,4,1,4,96,tigre,Spanish,Sounds/spa_tigre.mp3,2020-06-05_16h24.49.615,TranslationElicitation_eng-prolific,3.2.4,MacIntel,60,5b1ec77744127b0001400ec0,,,,,,,
,,,,,,,,,,,,,,,,,,,,,,,,,,,,,,,,,,,,,,,,,e,3.325999975,CHICE,FALSE,1,0,5,4,1,4,96,tigre,Spanish,Sounds/spa_tigre.mp3,2020-06-05_16h24.49.615,TranslationElicitation_eng-prolific,3.2.4,MacIntel,60,5b1ec77744127b0001400ec0,,,,,,,
,,,,,,,,,,,,,,,,,,,,,,,,,,,,,,,,,,,,,,,,,backspace,3.690999985,CHIC,TRUE,1,0,5,4,1,4,96,tigre,Spanish,Sounds/spa_tigre.mp3,2020-06-05_16h24.49.615,TranslationElicitation_eng-prolific,3.2.4,MacIntel,60,5b1ec77744127b0001400ec0,,,,,,,
,,,,,,,,,,,,,,,,,,,,,,,,,,,,,,,,,,,,,,,,,k,3.924000025,CHICK,TRUE,1,0,5,4,1,4,96,tigre,Spanish,Sounds/spa_tigre.mp3,2020-06-05_16h24.49.615,TranslationElicitation_eng-prolific,3.2.4,MacIntel,60,5b1ec77744127b0001400ec0,,,,,,,
,,,,,,,,,,,,,,,,,,,,,,,,,,,,,,,,,,,,,,,,,e,3.99000001,CHICKE,TRUE,1,0,5,4,1,4,96,tigre,Spanish,Sounds/spa_tigre.mp3,2020-06-05_16h24.49.615,TranslationElicitation_eng-prolific,3.2.4,MacIntel,60,5b1ec77744127b0001400ec0,,,,,,,
,,,,,,,,,,,,,,,,,,,,,,,,,,,,,,,,,,,,,,,,,n,4.089999914,CHICKEN,TRUE,1,0,5,4,1,4,96,tigre,Spanish,Sounds/spa_tigre.mp3,2020-06-05_16h24.49.615,TranslationElicitation_eng-prolific,3.2.4,MacIntel,60,5b1ec77744127b0001400ec0,,,,,,,
,,,,,,,,,,,,,,,,,,,,,,,,,,,,,,,,,,,,,,,,,return,4.256000042,CHICKEN,TRUE,1,0,5,4,1,4,96,tigre,Spanish,Sounds/spa_tigre.mp3,2020-06-05_16h24.49.615,TranslationElicitation_eng-prolific,3.2.4,MacIntel,60,5b1ec77744127b0001400ec0,4.256000042,,,,,,
,,,,,,,,,,,,,,,,,,,,,,,,,,,,,,,,,,,,,,,,,,,,,1,0,5,4,1,4,96,tigre,Spanish,Sounds/spa_tigre.mp3,2020-06-05_16h24.49.615,TranslationElicitation_eng-prolific,3.2.4,MacIntel,60,5b1ec77744127b0001400ec0,,,,,,,
,,,,,,,,,,,,,,,,,,,,,,,,,,,,,,,,,,,,,,,,,s,6.018999815,S,FALSE,,,,,,,98,tobogan,Spanish,Sounds/spa_tobogan.mp3,2020-06-05_16h24.49.615,TranslationElicitation_eng-prolific,3.2.4,MacIntel,60,5b1ec77744127b0001400ec0,,1,0,98,92,1,97
,,,,,,,,,,,,,,,,,,,,,,,,,,,,,,,,,,,,,,,,,k,6.100999832,SK,FALSE,,,,,,,98,tobogan,Spanish,Sounds/spa_tobogan.mp3,2020-06-05_16h24.49.615,TranslationElicitation_eng-prolific,3.2.4,MacIntel,60,5b1ec77744127b0001400ec0,,1,0,98,92,1,97
,,,,,,,,,,,,,,,,,,,,,,,,,,,,,,,,,,,,,,,,,y,6.684000015,SKY,FALSE,,,,,,,98,tobogan,Spanish,Sounds/spa_tobogan.mp3,2020-06-05_16h24.49.615,TranslationElicitation_eng-prolific,3.2.4,MacIntel,60,5b1ec77744127b0001400ec0,,1,0,98,92,1,97
,,,,,,,,,,,,,,,,,,,,,,,,,,,,,,,,,,,,,,,,,return,6.849999905,SKY,FALSE,,,,,,,98,tobogan,Spanish,Sounds/spa_tobogan.mp3,2020-06-05_16h24.49.615,TranslationElicitation_eng-prolific,3.2.4,MacIntel,60,5b1ec77744127b0001400ec0,6.849999905,1,0,98,92,1,97
,,,,,,,,,,,,,,,,,,,,,,,,,,,,,,,,,,,,,,,,,,,,,,,,,,,98,tobogan,Spanish,Sounds/spa_tobogan.mp3,2020-06-05_16h24.49.615,TranslationElicitation_eng-prolific,3.2.4,MacIntel,60,5b1ec77744127b0001400ec0,,1,0,98,92,1,97
,,,,,,,,,,,,,,,,,,,,,,,,,,,,,,,,,,,,,,,,,g,2.27699995,G,FALSE,,,,,,,43,globo,Spanish,Sounds/spa_globo.mp3,2020-06-05_16h24.49.615,TranslationElicitation_eng-prolific,3.2.4,MacIntel,60,5b1ec77744127b0001400ec0,,1,0,98,39,1,97
,,,,,,,,,,,,,,,,,,,,,,,,,,,,,,,,,,,,,,,,,l,2.343999863,GL,FALSE,,,,,,,43,globo,Spanish,Sounds/spa_globo.mp3,2020-06-05_16h24.49.615,TranslationElicitation_eng-prolific,3.2.4,MacIntel,60,5b1ec77744127b0001400ec0,,1,0,98,39,1,97
,,,,,,,,,,,,,,,,,,,,,,,,,,,,,,,,,,,,,,,,,o,2.476999998,GLO,FALSE,,,,,,,43,globo,Spanish,Sounds/spa_globo.mp3,2020-06-05_16h24.49.615,TranslationElicitation_eng-prolific,3.2.4,MacIntel,60,5b1ec77744127b0001400ec0,,1,0,98,39,1,97
,,,,,,,,,,,,,,,,,,,,,,,,,,,,,,,,,,,,,,,,,b,2.626999855,GLOB,FALSE,,,,,,,43,globo,Spanish,Sounds/spa_globo.mp3,2020-06-05_16h24.49.615,TranslationElicitation_eng-prolific,3.2.4,MacIntel,60,5b1ec77744127b0001400ec0,,1,0,98,39,1,97
,,,,,,,,,,,,,,,,,,,,,,,,,,,,,,,,,,,,,,,,,a,2.791999817,GLOBA,FALSE,,,,,,,43,globo,Spanish,Sounds/spa_globo.mp3,2020-06-05_16h24.49.615,TranslationElicitation_eng-prolific,3.2.4,MacIntel,60,5b1ec77744127b0001400ec0,,1,0,98,39,1,97
,,,,,,,,,,,,,,,,,,,,,,,,,,,,,,,,,,,,,,,,,l,2.94299984,GLOBAL,FALSE,,,,,,,43,globo,Spanish,Sounds/spa_globo.mp3,2020-06-05_16h24.49.615,TranslationElicitation_eng-prolific,3.2.4,MacIntel,60,5b1ec77744127b0001400ec0,,1,0,98,39,1,97
,,,,,,,,,,,,,,,,,,,,,,,,,,,,,,,,,,,,,,,,,return,3.523999929,GLOBAL,FALSE,,,,,,,43,globo,Spanish,Sounds/spa_globo.mp3,2020-06-05_16h24.49.615,TranslationElicitation_eng-prolific,3.2.4,MacIntel,60,5b1ec77744127b0001400ec0,3.523999929,1,0,98,39,1,97
,,,,,,,,,,,,,,,,,,,,,,,,,,,,,,,,,,,,,,,,,,,,,,,,,,,43,globo,Spanish,Sounds/spa_globo.mp3,2020-06-05_16h24.49.615,TranslationElicitation_eng-prolific,3.2.4,MacIntel,60,5b1ec77744127b0001400ec0,,1,0,98,39,1,97
,,,,,,,,,,,,,,,,,,,,,,,,,,,,,,,,,,,,,,,,,b,3.275000095,B,FALSE,,,,,,,6,boca,Spanish,Sounds/spa_boca.mp3,2020-06-05_16h24.49.615,TranslationElicitation_eng-prolific,3.2.4,MacIntel,60,5b1ec77744127b0001400ec0,,1,0,98,4,1,97
,,,,,,,,,,,,,,,,,,,,,,,,,,,,,,,,,,,,,,,,,a,3.34100008,BA,FALSE,,,,,,,6,boca,Spanish,Sounds/spa_boca.mp3,2020-06-05_16h24.49.615,TranslationElicitation_eng-prolific,3.2.4,MacIntel,60,5b1ec77744127b0001400ec0,,1,0,98,4,1,97
,,,,,,,,,,,,,,,,,,,,,,,,,,,,,,,,,,,,,,,,,l,3.426000118,BAL,FALSE,,,,,,,6,boca,Spanish,Sounds/spa_boca.mp3,2020-06-05_16h24.49.615,TranslationElicitation_eng-prolific,3.2.4,MacIntel,60,5b1ec77744127b0001400ec0,,1,0,98,4,1,97
,,,,,,,,,,,,,,,,,,,,,,,,,,,,,,,,,,,,,,,,,l,3.559000015,BALL,FALSE,,,,,,,6,boca,Spanish,Sounds/spa_boca.mp3,2020-06-05_16h24.49.615,TranslationElicitation_eng-prolific,3.2.4,MacIntel,60,5b1ec77744127b0001400ec0,,1,0,98,4,1,97
,,,,,,,,,,,,,,,,,,,,,,,,,,,,,,,,,,,,,,,,,return,3.773999929,BALL,FALSE,,,,,,,6,boca,Spanish,Sounds/spa_boca.mp3,2020-06-05_16h24.49.615,TranslationElicitation_eng-prolific,3.2.4,MacIntel,60,5b1ec77744127b0001400ec0,3.773999929,1,0,98,4,1,97
,,,,,,,,,,,,,,,,,,,,,,,,,,,,,,,,,,,,,,,,,,,,,,,,,,,6,boca,Spanish,Sounds/spa_boca.mp3,2020-06-05_16h24.49.615,TranslationElicitation_eng-prolific,3.2.4,MacIntel,60,5b1ec77744127b0001400ec0,,1,0,98,4,1,97
,,,,,,,,,,,,,,,,,,,,,,,,,,,,,,,,,,,,,,,,,m,2.426000118,M,FALSE,,,,,,,62,martillo,Spanish,Sounds/spa_martillo.mp3,2020-06-05_16h24.49.615,TranslationElicitation_eng-prolific,3.2.4,MacIntel,60,5b1ec77744127b0001400ec0,,1,0,98,58,1,97
,,,,,,,,,,,,,,,,,,,,,,,,,,,,,,,,,,,,,,,,,a,2.52699995,MA,FALSE,,,,,,,62,martillo,Spanish,Sounds/spa_martillo.mp3,2020-06-05_16h24.49.615,TranslationElicitation_eng-prolific,3.2.4,MacIntel,60,5b1ec77744127b0001400ec0,,1,0,98,58,1,97
,,,,,,,,,,,,,,,,,,,,,,,,,,,,,,,,,,,,,,,,,t,2.825999975,MAT,FALSE,,,,,,,62,martillo,Spanish,Sounds/spa_martillo.mp3,2020-06-05_16h24.49.615,TranslationElicitation_eng-prolific,3.2.4,MacIntel,60,5b1ec77744127b0001400ec0,,1,0,98,58,1,97
,,,,,,,,,,,,,,,,,,,,,,,,,,,,,,,,,,,,,,,,,backspace,3.258000135,MA,TRUE,,,,,,,62,martillo,Spanish,Sounds/spa_martillo.mp3,2020-06-05_16h24.49.615,TranslationElicitation_eng-prolific,3.2.4,MacIntel,60,5b1ec77744127b0001400ec0,,1,0,98,58,1,97
,,,,,,,,,,,,,,,,,,,,,,,,,,,,,,,,,,,,,,,,,r,3.374000072,MAR,TRUE,,,,,,,62,martillo,Spanish,Sounds/spa_martillo.mp3,2020-06-05_16h24.49.615,TranslationElicitation_eng-prolific,3.2.4,MacIntel,60,5b1ec77744127b0001400ec0,,1,0,98,58,1,97
,,,,,,,,,,,,,,,,,,,,,,,,,,,,,,,,,,,,,,,,,t,3.506999969,MART,TRUE,,,,,,,62,martillo,Spanish,Sounds/spa_martillo.mp3,2020-06-05_16h24.49.615,TranslationElicitation_eng-prolific,3.2.4,MacIntel,60,5b1ec77744127b0001400ec0,,1,0,98,58,1,97
,,,,,,,,,,,,,,,,,,,,,,,,,,,,,,,,,,,,,,,,,i,3.55700016,MARTI,TRUE,,,,,,,62,martillo,Spanish,Sounds/spa_martillo.mp3,2020-06-05_16h24.49.615,TranslationElicitation_eng-prolific,3.2.4,MacIntel,60,5b1ec77744127b0001400ec0,,1,0,98,58,1,97
,,,,,,,,,,,,,,,,,,,,,,,,,,,,,,,,,,,,,,,,,n,3.607000113,MARTIN,TRUE,,,,,,,62,martillo,Spanish,Sounds/spa_martillo.mp3,2020-06-05_16h24.49.615,TranslationElicitation_eng-prolific,3.2.4,MacIntel,60,5b1ec77744127b0001400ec0,,1,0,98,58,1,97
,,,,,,,,,,,,,,,,,,,,,,,,,,,,,,,,,,,,,,,,,return,3.822999954,MARTIN,TRUE,,,,,,,62,martillo,Spanish,Sounds/spa_martillo.mp3,2020-06-05_16h24.49.615,TranslationElicitation_eng-prolific,3.2.4,MacIntel,60,5b1ec77744127b0001400ec0,3.822999954,1,0,98,58,1,97
,,,,,,,,,,,,,,,,,,,,,,,,,,,,,,,,,,,,,,,,,,,,,,,,,,,62,martillo,Spanish,Sounds/spa_martillo.mp3,2020-06-05_16h24.49.615,TranslationElicitation_eng-prolific,3.2.4,MacIntel,60,5b1ec77744127b0001400ec0,,1,0,98,58,1,97
,,,,,,,,,,,,,,,,,,,,,,,,,,,,,,,,,,,,,,,,,c,5.885999918,C,FALSE,,,,,,,18,camisa,Spanish,Sounds/spa_camisa.mp3,2020-06-05_16h24.49.615,TranslationElicitation_eng-prolific,3.2.4,MacIntel,60,5b1ec77744127b0001400ec0,,1,0,98,16,1,97
,,,,,,,,,,,,,,,,,,,,,,,,,,,,,,,,,,,,,,,,,a,6.16899991,CA,FALSE,,,,,,,18,camisa,Spanish,Sounds/spa_camisa.mp3,2020-06-05_16h24.49.615,TranslationElicitation_eng-prolific,3.2.4,MacIntel,60,5b1ec77744127b0001400ec0,,1,0,98,16,1,97
,,,,,,,,,,,,,,,,,,,,,,,,,,,,,,,,,,,,,,,,,m,6.451999903,CAM,FALSE,,,,,,,18,camisa,Spanish,Sounds/spa_camisa.mp3,2020-06-05_16h24.49.615,TranslationElicitation_eng-prolific,3.2.4,MacIntel,60,5b1ec77744127b0001400ec0,,1,0,98,16,1,97
,,,,,,,,,,,,,,,,,,,,,,,,,,,,,,,,,,,,,,,,,o,6.866999865,CAMO,FALSE,,,,,,,18,camisa,Spanish,Sounds/spa_camisa.mp3,2020-06-05_16h24.49.615,TranslationElicitation_eng-prolific,3.2.4,MacIntel,60,5b1ec77744127b0001400ec0,,1,0,98,16,1,97
,,,,,,,,,,,,,,,,,,,,,,,,,,,,,,,,,,,,,,,,,f,7.165999889,CAMOF,FALSE,,,,,,,18,camisa,Spanish,Sounds/spa_camisa.mp3,2020-06-05_16h24.49.615,TranslationElicitation_eng-prolific,3.2.4,MacIntel,60,5b1ec77744127b0001400ec0,,1,0,98,16,1,97
,,,,,,,,,,,,,,,,,,,,,,,,,,,,,,,,,,,,,,,,,l,7.25,CAMOFL,FALSE,,,,,,,18,camisa,Spanish,Sounds/spa_camisa.mp3,2020-06-05_16h24.49.615,TranslationElicitation_eng-prolific,3.2.4,MacIntel,60,5b1ec77744127b0001400ec0,,1,0,98,16,1,97
,,,,,,,,,,,,,,,,,,,,,,,,,,,,,,,,,,,,,,,,,a,7.398999929,CAMOFLA,FALSE,,,,,,,18,camisa,Spanish,Sounds/spa_camisa.mp3,2020-06-05_16h24.49.615,TranslationElicitation_eng-prolific,3.2.4,MacIntel,60,5b1ec77744127b0001400ec0,,1,0,98,16,1,97
,,,,,,,,,,,,,,,,,,,,,,,,,,,,,,,,,,,,,,,,,u,7.530999899,CAMOFLAU,FALSE,,,,,,,18,camisa,Spanish,Sounds/spa_camisa.mp3,2020-06-05_16h24.49.615,TranslationElicitation_eng-prolific,3.2.4,MacIntel,60,5b1ec77744127b0001400ec0,,1,0,98,16,1,97
,,,,,,,,,,,,,,,,,,,,,,,,,,,,,,,,,,,,,,,,,g,7.698999882,CAMOFLAUG,FALSE,,,,,,,18,camisa,Spanish,Sounds/spa_camisa.mp3,2020-06-05_16h24.49.615,TranslationElicitation_eng-prolific,3.2.4,MacIntel,60,5b1ec77744127b0001400ec0,,1,0,98,16,1,97
,,,,,,,,,,,,,,,,,,,,,,,,,,,,,,,,,,,,,,,,,e,7.947000027,CAMOFLAUGE,FALSE,,,,,,,18,camisa,Spanish,Sounds/spa_camisa.mp3,2020-06-05_16h24.49.615,TranslationElicitation_eng-prolific,3.2.4,MacIntel,60,5b1ec77744127b0001400ec0,,1,0,98,16,1,97
,,,,,,,,,,,,,,,,,,,,,,,,,,,,,,,,,,,,,,,,,return,8.197000027,CAMOFLAUGE,FALSE,,,,,,,18,camisa,Spanish,Sounds/spa_camisa.mp3,2020-06-05_16h24.49.615,TranslationElicitation_eng-prolific,3.2.4,MacIntel,60,5b1ec77744127b0001400ec0,8.197000027,1,0,98,16,1,97
,,,,,,,,,,,,,,,,,,,,,,,,,,,,,,,,,,,,,,,,,,,,,,,,,,,18,camisa,Spanish,Sounds/spa_camisa.mp3,2020-06-05_16h24.49.615,TranslationElicitation_eng-prolific,3.2.4,MacIntel,60,5b1ec77744127b0001400ec0,,1,0,98,16,1,97
,,,,,,,,,,,,,,,,,,,,,,,,,,,,,,,,,,,,,,,,,m,1.480000019,M,FALSE,,,,,,,64,moneda,Spanish,Sounds/spa_moneda.mp3,2020-06-05_16h24.49.615,TranslationElicitation_eng-prolific,3.2.4,MacIntel,60,5b1ec77744127b0001400ec0,,1,0,98,60,1,97
,,,,,,,,,,,,,,,,,,,,,,,,,,,,,,,,,,,,,,,,,o,1.612999916,MO,FALSE,,,,,,,64,moneda,Spanish,Sounds/spa_moneda.mp3,2020-06-05_16h24.49.615,TranslationElicitation_eng-prolific,3.2.4,MacIntel,60,5b1ec77744127b0001400ec0,,1,0,98,60,1,97
,,,,,,,,,,,,,,,,,,,,,,,,,,,,,,,,,,,,,,,,,n,1.779000044,MON,FALSE,,,,,,,64,moneda,Spanish,Sounds/spa_moneda.mp3,2020-06-05_16h24.49.615,TranslationElicitation_eng-prolific,3.2.4,MacIntel,60,5b1ec77744127b0001400ec0,,1,0,98,60,1,97
,,,,,,,,,,,,,,,,,,,,,,,,,,,,,,,,,,,,,,,,,e,1.862999916,MONE,FALSE,,,,,,,64,moneda,Spanish,Sounds/spa_moneda.mp3,2020-06-05_16h24.49.615,TranslationElicitation_eng-prolific,3.2.4,MacIntel,60,5b1ec77744127b0001400ec0,,1,0,98,60,1,97
,,,,,,,,,,,,,,,,,,,,,,,,,,,,,,,,,,,,,,,,,y,2.311000109,MONEY,FALSE,,,,,,,64,moneda,Spanish,Sounds/spa_moneda.mp3,2020-06-05_16h24.49.615,TranslationElicitation_eng-prolific,3.2.4,MacIntel,60,5b1ec77744127b0001400ec0,,1,0,98,60,1,97
,,,,,,,,,,,,,,,,,,,,,,,,,,,,,,,,,,,,,,,,,return,2.427999973,MONEY,FALSE,,,,,,,64,moneda,Spanish,Sounds/spa_moneda.mp3,2020-06-05_16h24.49.615,TranslationElicitation_eng-prolific,3.2.4,MacIntel,60,5b1ec77744127b0001400ec0,2.427999973,1,0,98,60,1,97
,,,,,,,,,,,,,,,,,,,,,,,,,,,,,,,,,,,,,,,,,,,,,,,,,,,64,moneda,Spanish,Sounds/spa_moneda.mp3,2020-06-05_16h24.49.615,TranslationElicitation_eng-prolific,3.2.4,MacIntel,60,5b1ec77744127b0001400ec0,,1,0,98,60,1,97
,,,,,,,,,,,,,,,,,,,,,,,,,,,,,,,,,,,,,,,,,t,3.707999945,T,FALSE,,,,,,,101,tren,Spanish,Sounds/spa_tren.mp3,2020-06-05_16h24.49.615,TranslationElicitation_eng-prolific,3.2.4,MacIntel,60,5b1ec77744127b0001400ec0,,1,0,98,95,1,97
,,,,,,,,,,,,,,,,,,,,,,,,,,,,,,,,,,,,,,,,,h,3.825000048,TH,FALSE,,,,,,,101,tren,Spanish,Sounds/spa_tren.mp3,2020-06-05_16h24.49.615,TranslationElicitation_eng-prolific,3.2.4,MacIntel,60,5b1ec77744127b0001400ec0,,1,0,98,95,1,97
,,,,,,,,,,,,,,,,,,,,,,,,,,,,,,,,,,,,,,,,,r,4.075000048,THR,FALSE,,,,,,,101,tren,Spanish,Sounds/spa_tren.mp3,2020-06-05_16h24.49.615,TranslationElicitation_eng-prolific,3.2.4,MacIntel,60,5b1ec77744127b0001400ec0,,1,0,98,95,1,97
,,,,,,,,,,,,,,,,,,,,,,,,,,,,,,,,,,,,,,,,,e,4.274000168,THRE,FALSE,,,,,,,101,tren,Spanish,Sounds/spa_tren.mp3,2020-06-05_16h24.49.615,TranslationElicitation_eng-prolific,3.2.4,MacIntel,60,5b1ec77744127b0001400ec0,,1,0,98,95,1,97
,,,,,,,,,,,,,,,,,,,,,,,,,,,,,,,,,,,,,,,,,e,4.690000057,THREE,FALSE,,,,,,,101,tren,Spanish,Sounds/spa_tren.mp3,2020-06-05_16h24.49.615,TranslationElicitation_eng-prolific,3.2.4,MacIntel,60,5b1ec77744127b0001400ec0,,1,0,98,95,1,97
,,,,,,,,,,,,,,,,,,,,,,,,,,,,,,,,,,,,,,,,,return,4.805999994,THREE,FALSE,,,,,,,101,tren,Spanish,Sounds/spa_tren.mp3,2020-06-05_16h24.49.615,TranslationElicitation_eng-prolific,3.2.4,MacIntel,60,5b1ec77744127b0001400ec0,4.805999994,1,0,98,95,1,97
,,,,,,,,,,,,,,,,,,,,,,,,,,,,,,,,,,,,,,,,,,,,,,,,,,,101,tren,Spanish,Sounds/spa_tren.mp3,2020-06-05_16h24.49.615,TranslationElicitation_eng-prolific,3.2.4,MacIntel,60,5b1ec77744127b0001400ec0,,1,0,98,95,1,97
,,,,,,,,,,,,,,,,,,,,,,,,,,,,,,,,,,,,,,,,,m,1.711999893,M,FALSE,,,,,,,59,mano,Spanish,Sounds/spa_mano.mp3,2020-06-05_16h24.49.615,TranslationElicitation_eng-prolific,3.2.4,MacIntel,60,5b1ec77744127b0001400ec0,,1,0,98,55,1,97
,,,,,,,,,,,,,,,,,,,,,,,,,,,,,,,,,,,,,,,,,a,1.812000036,MA,FALSE,,,,,,,59,mano,Spanish,Sounds/spa_mano.mp3,2020-06-05_16h24.49.615,TranslationElicitation_eng-prolific,3.2.4,MacIntel,60,5b1ec77744127b0001400ec0,,1,0,98,55,1,97
,,,,,,,,,,,,,,,,,,,,,,,,,,,,,,,,,,,,,,,,,n,1.911999941,MAN,FALSE,,,,,,,59,mano,Spanish,Sounds/spa_mano.mp3,2020-06-05_16h24.49.615,TranslationElicitation_eng-prolific,3.2.4,MacIntel,60,5b1ec77744127b0001400ec0,,1,0,98,55,1,97
,,,,,,,,,,,,,,,,,,,,,,,,,,,,,,,,,,,,,,,,,return,2.143999815,MAN,FALSE,,,,,,,59,mano,Spanish,Sounds/spa_mano.mp3,2020-06-05_16h24.49.615,TranslationElicitation_eng-prolific,3.2.4,MacIntel,60,5b1ec77744127b0001400ec0,2.143999815,1,0,98,55,1,97
,,,,,,,,,,,,,,,,,,,,,,,,,,,,,,,,,,,,,,,,,,,,,,,,,,,59,mano,Spanish,Sounds/spa_mano.mp3,2020-06-05_16h24.49.615,TranslationElicitation_eng-prolific,3.2.4,MacIntel,60,5b1ec77744127b0001400ec0,,1,0,98,55,1,97
,,,,,,,,,,,,,,,,,,,,,,,,,,,,,,,,,,,,,,,,,l,1.661999941,L,FALSE,,,,,,,52,lapiz,Spanish,Sounds/spa_lapiz.mp3,2020-06-05_16h24.49.615,TranslationElicitation_eng-prolific,3.2.4,MacIntel,60,5b1ec77744127b0001400ec0,,1,0,98,48,1,97
,,,,,,,,,,,,,,,,,,,,,,,,,,,,,,,,,,,,,,,,,a,1.777999878,LA,FALSE,,,,,,,52,lapiz,Spanish,Sounds/spa_lapiz.mp3,2020-06-05_16h24.49.615,TranslationElicitation_eng-prolific,3.2.4,MacIntel,60,5b1ec77744127b0001400ec0,,1,0,98,48,1,97
,,,,,,,,,,,,,,,,,,,,,,,,,,,,,,,,,,,,,,,,,u,2.078999996,LAU,FALSE,,,,,,,52,lapiz,Spanish,Sounds/spa_lapiz.mp3,2020-06-05_16h24.49.615,TranslationElicitation_eng-prolific,3.2.4,MacIntel,60,5b1ec77744127b0001400ec0,,1,0,98,48,1,97
,,,,,,,,,,,,,,,,,,,,,,,,,,,,,,,,,,,,,,,,,g,2.52699995,LAUG,FALSE,,,,,,,52,lapiz,Spanish,Sounds/spa_lapiz.mp3,2020-06-05_16h24.49.615,TranslationElicitation_eng-prolific,3.2.4,MacIntel,60,5b1ec77744127b0001400ec0,,1,0,98,48,1,97
,,,,,,,,,,,,,,,,,,,,,,,,,,,,,,,,,,,,,,,,,h,2.609999895,LAUGH,FALSE,,,,,,,52,lapiz,Spanish,Sounds/spa_lapiz.mp3,2020-06-05_16h24.49.615,TranslationElicitation_eng-prolific,3.2.4,MacIntel,60,5b1ec77744127b0001400ec0,,1,0,98,48,1,97
,,,,,,,,,,,,,,,,,,,,,,,,,,,,,,,,,,,,,,,,,return,2.842999935,LAUGH,FALSE,,,,,,,52,lapiz,Spanish,Sounds/spa_lapiz.mp3,2020-06-05_16h24.49.615,TranslationElicitation_eng-prolific,3.2.4,MacIntel,60,5b1ec77744127b0001400ec0,2.842999935,1,0,98,48,1,97
,,,,,,,,,,,,,,,,,,,,,,,,,,,,,,,,,,,,,,,,,,,,,,,,,,,52,lapiz,Spanish,Sounds/spa_lapiz.mp3,2020-06-05_16h24.49.615,TranslationElicitation_eng-prolific,3.2.4,MacIntel,60,5b1ec77744127b0001400ec0,,1,0,98,48,1,97
,,,,,,,,,,,,,,,,,,,,,,,,,,,,,,,,,,,,,,,,,m,1.646000147,M,FALSE,,,,,,,58,luna,Spanish,Sounds/spa_luna.mp3,2020-06-05_16h24.49.615,TranslationElicitation_eng-prolific,3.2.4,MacIntel,60,5b1ec77744127b0001400ec0,,1,0,98,54,1,97
,,,,,,,,,,,,,,,,,,,,,,,,,,,,,,,,,,,,,,,,,o,1.795000076,MO,FALSE,,,,,,,58,luna,Spanish,Sounds/spa_luna.mp3,2020-06-05_16h24.49.615,TranslationElicitation_eng-prolific,3.2.4,MacIntel,60,5b1ec77744127b0001400ec0,,1,0,98,54,1,97
,,,,,,,,,,,,,,,,,,,,,,,,,,,,,,,,,,,,,,,,,o,1.912000179,MOO,FALSE,,,,,,,58,luna,Spanish,Sounds/spa_luna.mp3,2020-06-05_16h24.49.615,TranslationElicitation_eng-prolific,3.2.4,MacIntel,60,5b1ec77744127b0001400ec0,,1,0,98,54,1,97
,,,,,,,,,,,,,,,,,,,,,,,,,,,,,,,,,,,,,,,,,n,1.995000124,MOON,FALSE,,,,,,,58,luna,Spanish,Sounds/spa_luna.mp3,2020-06-05_16h24.49.615,TranslationElicitation_eng-prolific,3.2.4,MacIntel,60,5b1ec77744127b0001400ec0,,1,0,98,54,1,97
,,,,,,,,,,,,,,,,,,,,,,,,,,,,,,,,,,,,,,,,,return,2.178000212,MOON,FALSE,,,,,,,58,luna,Spanish,Sounds/spa_luna.mp3,2020-06-05_16h24.49.615,TranslationElicitation_eng-prolific,3.2.4,MacIntel,60,5b1ec77744127b0001400ec0,2.178000212,1,0,98,54,1,97
,,,,,,,,,,,,,,,,,,,,,,,,,,,,,,,,,,,,,,,,,,,,,,,,,,,58,luna,Spanish,Sounds/spa_luna.mp3,2020-06-05_16h24.49.615,TranslationElicitation_eng-prolific,3.2.4,MacIntel,60,5b1ec77744127b0001400ec0,,1,0,98,54,1,97
,,,,,,,,,,,,,,,,,,,,,,,,,,,,,,,,,,,,,,,,,b,2.892999887,B,FALSE,,,,,,,20,caracol,Spanish,Sounds/spa_caracol.mp3,2020-06-05_16h24.49.615,TranslationElicitation_eng-prolific,3.2.4,MacIntel,60,5b1ec77744127b0001400ec0,,1,0,98,18,1,97
,,,,,,,,,,,,,,,,,,,,,,,,,,,,,,,,,,,,,,,,,i,2.974999905,BI,FALSE,,,,,,,20,caracol,Spanish,Sounds/spa_caracol.mp3,2020-06-05_16h24.49.615,TranslationElicitation_eng-prolific,3.2.4,MacIntel,60,5b1ec77744127b0001400ec0,,1,0,98,18,1,97
,,,,,,,,,,,,,,,,,,,,,,,,,,,,,,,,,,,,,,,,,r,3.059000015,BIR,FALSE,,,,,,,20,caracol,Spanish,Sounds/spa_caracol.mp3,2020-06-05_16h24.49.615,TranslationElicitation_eng-prolific,3.2.4,MacIntel,60,5b1ec77744127b0001400ec0,,1,0,98,18,1,97
,,,,,,,,,,,,,,,,,,,,,,,,,,,,,,,,,,,,,,,,,d,3.224999905,BIRD,FALSE,,,,,,,20,caracol,Spanish,Sounds/spa_caracol.mp3,2020-06-05_16h24.49.615,TranslationElicitation_eng-prolific,3.2.4,MacIntel,60,5b1ec77744127b0001400ec0,,1,0,98,18,1,97
,,,,,,,,,,,,,,,,,,,,,,,,,,,,,,,,,,,,,,,,,return,3.375999928,BIRD,FALSE,,,,,,,20,caracol,Spanish,Sounds/spa_caracol.mp3,2020-06-05_16h24.49.615,TranslationElicitation_eng-prolific,3.2.4,MacIntel,60,5b1ec77744127b0001400ec0,3.375999928,1,0,98,18,1,97
,,,,,,,,,,,,,,,,,,,,,,,,,,,,,,,,,,,,,,,,,,,,,,,,,,,20,caracol,Spanish,Sounds/spa_caracol.mp3,2020-06-05_16h24.49.615,TranslationElicitation_eng-prolific,3.2.4,MacIntel,60,5b1ec77744127b0001400ec0,,1,0,98,18,1,97
,,,,,,,,,,,,,,,,,,,,,,,,,,,,,,,,,,,,,,,,,c,2.111999989,C,FALSE,,,,,,,29,coche,Spanish,Sounds/spa_coche.mp3,2020-06-05_16h24.49.615,TranslationElicitation_eng-prolific,3.2.4,MacIntel,60,5b1ec77744127b0001400ec0,,1,0,98,26,1,97
,,,,,,,,,,,,,,,,,,,,,,,,,,,,,,,,,,,,,,,,,h,2.226999998,CH,FALSE,,,,,,,29,coche,Spanish,Sounds/spa_coche.mp3,2020-06-05_16h24.49.615,TranslationElicitation_eng-prolific,3.2.4,MacIntel,60,5b1ec77744127b0001400ec0,,1,0,98,26,1,97
,,,,,,,,,,,,,,,,,,,,,,,,,,,,,,,,,,,,,,,,,e,2.361000061,CHE,FALSE,,,,,,,29,coche,Spanish,Sounds/spa_coche.mp3,2020-06-05_16h24.49.615,TranslationElicitation_eng-prolific,3.2.4,MacIntel,60,5b1ec77744127b0001400ec0,,1,0,98,26,1,97
,,,,,,,,,,,,,,,,,,,,,,,,,,,,,,,,,,,,,,,,,e,2.476999998,CHEE,FALSE,,,,,,,29,coche,Spanish,Sounds/spa_coche.mp3,2020-06-05_16h24.49.615,TranslationElicitation_eng-prolific,3.2.4,MacIntel,60,5b1ec77744127b0001400ec0,,1,0,98,26,1,97
,,,,,,,,,,,,,,,,,,,,,,,,,,,,,,,,,,,,,,,,,s,2.644000053,CHEES,FALSE,,,,,,,29,coche,Spanish,Sounds/spa_coche.mp3,2020-06-05_16h24.49.615,TranslationElicitation_eng-prolific,3.2.4,MacIntel,60,5b1ec77744127b0001400ec0,,1,0,98,26,1,97
,,,,,,,,,,,,,,,,,,,,,,,,,,,,,,,,,,,,,,,,,e,2.709000111,CHEESE,FALSE,,,,,,,29,coche,Spanish,Sounds/spa_coche.mp3,2020-06-05_16h24.49.615,TranslationElicitation_eng-prolific,3.2.4,MacIntel,60,5b1ec77744127b0001400ec0,,1,0,98,26,1,97
,,,,,,,,,,,,,,,,,,,,,,,,,,,,,,,,,,,,,,,,,return,2.910000086,CHEESE,FALSE,,,,,,,29,coche,Spanish,Sounds/spa_coche.mp3,2020-06-05_16h24.49.615,TranslationElicitation_eng-prolific,3.2.4,MacIntel,60,5b1ec77744127b0001400ec0,2.910000086,1,0,98,26,1,97
,,,,,,,,,,,,,,,,,,,,,,,,,,,,,,,,,,,,,,,,,,,,,,,,,,,29,coche,Spanish,Sounds/spa_coche.mp3,2020-06-05_16h24.49.615,TranslationElicitation_eng-prolific,3.2.4,MacIntel,60,5b1ec77744127b0001400ec0,,1,0,98,26,1,97
,,,,,,,,,,,,,,,,,,,,,,,,,,,,,,,,,,,,,,,,,f,4.223999977,F,FALSE,,,,,,,32,cuchara,Spanish,Sounds/spa_cuchara.mp3,2020-06-05_16h24.49.615,TranslationElicitation_eng-prolific,3.2.4,MacIntel,60,5b1ec77744127b0001400ec0,,1,0,98,28,1,97
,,,,,,,,,,,,,,,,,,,,,,,,,,,,,,,,,,,,,,,,,o,4.289000034,FO,FALSE,,,,,,,32,cuchara,Spanish,Sounds/spa_cuchara.mp3,2020-06-05_16h24.49.615,TranslationElicitation_eng-prolific,3.2.4,MacIntel,60,5b1ec77744127b0001400ec0,,1,0,98,28,1,97
,,,,,,,,,,,,,,,,,,,,,,,,,,,,,,,,,,,,,,,,,o,4.423000097,FOO,FALSE,,,,,,,32,cuchara,Spanish,Sounds/spa_cuchara.mp3,2020-06-05_16h24.49.615,TranslationElicitation_eng-prolific,3.2.4,MacIntel,60,5b1ec77744127b0001400ec0,,1,0,98,28,1,97
,,,,,,,,,,,,,,,,,,,,,,,,,,,,,,,,,,,,,,,,,d,4.45600009,FOOD,FALSE,,,,,,,32,cuchara,Spanish,Sounds/spa_cuchara.mp3,2020-06-05_16h24.49.615,TranslationElicitation_eng-prolific,3.2.4,MacIntel,60,5b1ec77744127b0001400ec0,,1,0,98,28,1,97
,,,,,,,,,,,,,,,,,,,,,,,,,,,,,,,,,,,,,,,,,return,4.888999939,FOOD,FALSE,,,,,,,32,cuchara,Spanish,Sounds/spa_cuchara.mp3,2020-06-05_16h24.49.615,TranslationElicitation_eng-prolific,3.2.4,MacIntel,60,5b1ec77744127b0001400ec0,4.888999939,1,0,98,28,1,97
,,,,,,,,,,,,,,,,,,,,,,,,,,,,,,,,,,,,,,,,,,,,,,,,,,,32,cuchara,Spanish,Sounds/spa_cuchara.mp3,2020-06-05_16h24.49.615,TranslationElicitation_eng-prolific,3.2.4,MacIntel,60,5b1ec77744127b0001400ec0,,1,0,98,28,1,97
,,,,,,,,,,,,,,,,,,,,,,,,,,,,,,,,,,,,,,,,,m,2.444000006,M,FALSE,,,,,,,63,mesa,Spanish,Sounds/spa_mesa.mp3,2020-06-05_16h24.49.615,TranslationElicitation_eng-prolific,3.2.4,MacIntel,60,5b1ec77744127b0001400ec0,,1,0,98,59,1,97
,,,,,,,,,,,,,,,,,,,,,,,,,,,,,,,,,,,,,,,,,i,2.592999935,MI,FALSE,,,,,,,63,mesa,Spanish,Sounds/spa_mesa.mp3,2020-06-05_16h24.49.615,TranslationElicitation_eng-prolific,3.2.4,MacIntel,60,5b1ec77744127b0001400ec0,,1,0,98,59,1,97
,,,,,,,,,,,,,,,,,,,,,,,,,,,,,,,,,,,,,,,,,s,2.741999865,MIS,FALSE,,,,,,,63,mesa,Spanish,Sounds/spa_mesa.mp3,2020-06-05_16h24.49.615,TranslationElicitation_eng-prolific,3.2.4,MacIntel,60,5b1ec77744127b0001400ec0,,1,0,98,59,1,97
,,,,,,,,,,,,,,,,,,,,,,,,,,,,,,,,,,,,,,,,,s,2.858999968,MISS,FALSE,,,,,,,63,mesa,Spanish,Sounds/spa_mesa.mp3,2020-06-05_16h24.49.615,TranslationElicitation_eng-prolific,3.2.4,MacIntel,60,5b1ec77744127b0001400ec0,,1,0,98,59,1,97
,,,,,,,,,,,,,,,,,,,,,,,,,,,,,,,,,,,,,,,,,return,3.042000055,MISS,FALSE,,,,,,,63,mesa,Spanish,Sounds/spa_mesa.mp3,2020-06-05_16h24.49.615,TranslationElicitation_eng-prolific,3.2.4,MacIntel,60,5b1ec77744127b0001400ec0,3.042000055,1,0,98,59,1,97
,,,,,,,,,,,,,,,,,,,,,,,,,,,,,,,,,,,,,,,,,,,,,,,,,,,63,mesa,Spanish,Sounds/spa_mesa.mp3,2020-06-05_16h24.49.615,TranslationElicitation_eng-prolific,3.2.4,MacIntel,60,5b1ec77744127b0001400ec0,,1,0,98,59,1,97
,,,,,,,,,,,,,,,,,,,,,,,,,,,,,,,,,,,,,,,,,n,8.529000044,N,FALSE,,,,,,,15,caballo,Spanish,Sounds/spa_caballo.mp3,2020-06-05_16h24.49.615,TranslationElicitation_eng-prolific,3.2.4,MacIntel,60,5b1ec77744127b0001400ec0,,1,0,98,13,1,97
,,,,,,,,,,,,,,,,,,,,,,,,,,,,,,,,,,,,,,,,,backspace,8.812000036,,TRUE,,,,,,,15,caballo,Spanish,Sounds/spa_caballo.mp3,2020-06-05_16h24.49.615,TranslationElicitation_eng-prolific,3.2.4,MacIntel,60,5b1ec77744127b0001400ec0,,1,0,98,13,1,97
,,,,,,,,,,,,,,,,,,,,,,,,,,,,,,,,,,,,,,,,,u,9.194999933,U,TRUE,,,,,,,15,caballo,Spanish,Sounds/spa_caballo.mp3,2020-06-05_16h24.49.615,TranslationElicitation_eng-prolific,3.2.4,MacIntel,60,5b1ec77744127b0001400ec0,,1,0,98,13,1,97
,,,,,,,,,,,,,,,,,,,,,,,,,,,,,,,,,,,,,,,,,n,9.326999903,UN,TRUE,,,,,,,15,caballo,Spanish,Sounds/spa_caballo.mp3,2020-06-05_16h24.49.615,TranslationElicitation_eng-prolific,3.2.4,MacIntel,60,5b1ec77744127b0001400ec0,,1,0,98,13,1,97
,,,,,,,,,,,,,,,,,,,,,,,,,,,,,,,,,,,,,,,,,s,9.394999981,UNS,TRUE,,,,,,,15,caballo,Spanish,Sounds/spa_caballo.mp3,2020-06-05_16h24.49.615,TranslationElicitation_eng-prolific,3.2.4,MacIntel,60,5b1ec77744127b0001400ec0,,1,0,98,13,1,97
,,,,,,,,,,,,,,,,,,,,,,,,,,,,,,,,,,,,,,,,,u,9.476999998,UNSU,TRUE,,,,,,,15,caballo,Spanish,Sounds/spa_caballo.mp3,2020-06-05_16h24.49.615,TranslationElicitation_eng-prolific,3.2.4,MacIntel,60,5b1ec77744127b0001400ec0,,1,0,98,13,1,97
,,,,,,,,,,,,,,,,,,,,,,,,,,,,,,,,,,,,,,,,,r,9.576999903,UNSUR,TRUE,,,,,,,15,caballo,Spanish,Sounds/spa_caballo.mp3,2020-06-05_16h24.49.615,TranslationElicitation_eng-prolific,3.2.4,MacIntel,60,5b1ec77744127b0001400ec0,,1,0,98,13,1,97
,,,,,,,,,,,,,,,,,,,,,,,,,,,,,,,,,,,,,,,,,e,9.644000053,UNSURE,TRUE,,,,,,,15,caballo,Spanish,Sounds/spa_caballo.mp3,2020-06-05_16h24.49.615,TranslationElicitation_eng-prolific,3.2.4,MacIntel,60,5b1ec77744127b0001400ec0,,1,0,98,13,1,97
,,,,,,,,,,,,,,,,,,,,,,,,,,,,,,,,,,,,,,,,,return,9.842999935,UNSURE,TRUE,,,,,,,15,caballo,Spanish,Sounds/spa_caballo.mp3,2020-06-05_16h24.49.615,TranslationElicitation_eng-prolific,3.2.4,MacIntel,60,5b1ec77744127b0001400ec0,9.842999935,1,0,98,13,1,97
,,,,,,,,,,,,,,,,,,,,,,,,,,,,,,,,,,,,,,,,,,,,,,,,,,,15,caballo,Spanish,Sounds/spa_caballo.mp3,2020-06-05_16h24.49.615,TranslationElicitation_eng-prolific,3.2.4,MacIntel,60,5b1ec77744127b0001400ec0,,1,0,98,13,1,97
,,,,,,,,,,,,,,,,,,,,,,,,,,,,,,,,,,,,,,,,,h,5.68599987,H,FALSE,,,,,,,23,cerdo,Spanish,Sounds/spa_cerdo.mp3,2020-06-05_16h24.49.615,TranslationElicitation_eng-prolific,3.2.4,MacIntel,60,5b1ec77744127b0001400ec0,,1,0,98,21,1,97
,,,,,,,,,,,,,,,,,,,,,,,,,,,,,,,,,,,,,,,,,e,5.753000021,HE,FALSE,,,,,,,23,cerdo,Spanish,Sounds/spa_cerdo.mp3,2020-06-05_16h24.49.615,TranslationElicitation_eng-prolific,3.2.4,MacIntel,60,5b1ec77744127b0001400ec0,,1,0,98,21,1,97
,,,,,,,,,,,,,,,,,,,,,,,,,,,,,,,,,,,,,,,,,l,5.836999893,HEL,FALSE,,,,,,,23,cerdo,Spanish,Sounds/spa_cerdo.mp3,2020-06-05_16h24.49.615,TranslationElicitation_eng-prolific,3.2.4,MacIntel,60,5b1ec77744127b0001400ec0,,1,0,98,21,1,97
,,,,,,,,,,,,,,,,,,,,,,,,,,,,,,,,,,,,,,,,,l,5.96999979,HELL,FALSE,,,,,,,23,cerdo,Spanish,Sounds/spa_cerdo.mp3,2020-06-05_16h24.49.615,TranslationElicitation_eng-prolific,3.2.4,MacIntel,60,5b1ec77744127b0001400ec0,,1,0,98,21,1,97
,,,,,,,,,,,,,,,,,,,,,,,,,,,,,,,,,,,,,,,,,o,6.135999918,HELLO,FALSE,,,,,,,23,cerdo,Spanish,Sounds/spa_cerdo.mp3,2020-06-05_16h24.49.615,TranslationElicitation_eng-prolific,3.2.4,MacIntel,60,5b1ec77744127b0001400ec0,,1,0,98,21,1,97
,,,,,,,,,,,,,,,,,,,,,,,,,,,,,,,,,,,,,,,,,return,6.301999807,HELLO,FALSE,,,,,,,23,cerdo,Spanish,Sounds/spa_cerdo.mp3,2020-06-05_16h24.49.615,TranslationElicitation_eng-prolific,3.2.4,MacIntel,60,5b1ec77744127b0001400ec0,6.301999807,1,0,98,21,1,97
,,,,,,,,,,,,,,,,,,,,,,,,,,,,,,,,,,,,,,,,,,,,,,,,,,,23,cerdo,Spanish,Sounds/spa_cerdo.mp3,2020-06-05_16h24.49.615,TranslationElicitation_eng-prolific,3.2.4,MacIntel,60,5b1ec77744127b0001400ec0,,1,0,98,21,1,97
,,,,,,,,,,,,,,,,,,,,,,,,,,,,,,,,,,,,,,,,,c,3.590999842,C,FALSE,,,,,,,77,pantalon,Spanish,Sounds/spa_pantalon.mp3,2020-06-05_16h24.49.615,TranslationElicitation_eng-prolific,3.2.4,MacIntel,60,5b1ec77744127b0001400ec0,,1,0,98,72,1,97
,,,,,,,,,,,,,,,,,,,,,,,,,,,,,,,,,,,,,,,,,a,3.773000002,CA,FALSE,,,,,,,77,pantalon,Spanish,Sounds/spa_pantalon.mp3,2020-06-05_16h24.49.615,TranslationElicitation_eng-prolific,3.2.4,MacIntel,60,5b1ec77744127b0001400ec0,,1,0,98,72,1,97
,,,,,,,,,,,,,,,,,,,,,,,,,,,,,,,,,,,,,,,,,n,3.873999834,CAN,FALSE,,,,,,,77,pantalon,Spanish,Sounds/spa_pantalon.mp3,2020-06-05_16h24.49.615,TranslationElicitation_eng-prolific,3.2.4,MacIntel,60,5b1ec77744127b0001400ec0,,1,0,98,72,1,97
,,,,,,,,,,,,,,,,,,,,,,,,,,,,,,,,,,,,,,,,,t,3.99000001,CANT,FALSE,,,,,,,77,pantalon,Spanish,Sounds/spa_pantalon.mp3,2020-06-05_16h24.49.615,TranslationElicitation_eng-prolific,3.2.4,MacIntel,60,5b1ec77744127b0001400ec0,,1,0,98,72,1,97
,,,,,,,,,,,,,,,,,,,,,,,,,,,,,,,,,,,,,,,,,e,4.106999874,CANTE,FALSE,,,,,,,77,pantalon,Spanish,Sounds/spa_pantalon.mp3,2020-06-05_16h24.49.615,TranslationElicitation_eng-prolific,3.2.4,MacIntel,60,5b1ec77744127b0001400ec0,,1,0,98,72,1,97
,,,,,,,,,,,,,,,,,,,,,,,,,,,,,,,,,,,,,,,,,l,4.171999931,CANTEL,FALSE,,,,,,,77,pantalon,Spanish,Sounds/spa_pantalon.mp3,2020-06-05_16h24.49.615,TranslationElicitation_eng-prolific,3.2.4,MacIntel,60,5b1ec77744127b0001400ec0,,1,0,98,72,1,97
,,,,,,,,,,,,,,,,,,,,,,,,,,,,,,,,,,,,,,,,,o,4.671000004,CANTELO,FALSE,,,,,,,77,pantalon,Spanish,Sounds/spa_pantalon.mp3,2020-06-05_16h24.49.615,TranslationElicitation_eng-prolific,3.2.4,MacIntel,60,5b1ec77744127b0001400ec0,,1,0,98,72,1,97
,,,,,,,,,,,,,,,,,,,,,,,,,,,,,,,,,,,,,,,,,p,4.786999941,CANTELOP,FALSE,,,,,,,77,pantalon,Spanish,Sounds/spa_pantalon.mp3,2020-06-05_16h24.49.615,TranslationElicitation_eng-prolific,3.2.4,MacIntel,60,5b1ec77744127b0001400ec0,,1,0,98,72,1,97
,,,,,,,,,,,,,,,,,,,,,,,,,,,,,,,,,,,,,,,,,e,4.921000004,CANTELOPE,FALSE,,,,,,,77,pantalon,Spanish,Sounds/spa_pantalon.mp3,2020-06-05_16h24.49.615,TranslationElicitation_eng-prolific,3.2.4,MacIntel,60,5b1ec77744127b0001400ec0,,1,0,98,72,1,97
,,,,,,,,,,,,,,,,,,,,,,,,,,,,,,,,,,,,,,,,,return,5.052999973,CANTELOPE,FALSE,,,,,,,77,pantalon,Spanish,Sounds/spa_pantalon.mp3,2020-06-05_16h24.49.615,TranslationElicitation_eng-prolific,3.2.4,MacIntel,60,5b1ec77744127b0001400ec0,5.052999973,1,0,98,72,1,97
,,,,,,,,,,,,,,,,,,,,,,,,,,,,,,,,,,,,,,,,,,,,,,,,,,,77,pantalon,Spanish,Sounds/spa_pantalon.mp3,2020-06-05_16h24.49.615,TranslationElicitation_eng-prolific,3.2.4,MacIntel,60,5b1ec77744127b0001400ec0,,1,0,98,72,1,97
,,,,,,,,,,,,,,,,,,,,,,,,,,,,,,,,,,,,,,,,,a,1.296000004,A,FALSE,,,,,,,99,tomate,Spanish,Sounds/spa_tomate.mp3,2020-06-05_16h24.49.615,TranslationElicitation_eng-prolific,3.2.4,MacIntel,60,5b1ec77744127b0001400ec0,,1,0,98,93,1,97
,,,,,,,,,,,,,,,,,,,,,,,,,,,,,,,,,,,,,,,,,backspace,1.861999989,,TRUE,,,,,,,99,tomate,Spanish,Sounds/spa_tomate.mp3,2020-06-05_16h24.49.615,TranslationElicitation_eng-prolific,3.2.4,MacIntel,60,5b1ec77744127b0001400ec0,,1,0,98,93,1,97
,,,,,,,,,,,,,,,,,,,,,,,,,,,,,,,,,,,,,,,,,t,1.994999886,T,TRUE,,,,,,,99,tomate,Spanish,Sounds/spa_tomate.mp3,2020-06-05_16h24.49.615,TranslationElicitation_eng-prolific,3.2.4,MacIntel,60,5b1ec77744127b0001400ec0,,1,0,98,93,1,97
,,,,,,,,,,,,,,,,,,,,,,,,,,,,,,,,,,,,,,,,,o,2.07799983,TO,TRUE,,,,,,,99,tomate,Spanish,Sounds/spa_tomate.mp3,2020-06-05_16h24.49.615,TranslationElicitation_eng-prolific,3.2.4,MacIntel,60,5b1ec77744127b0001400ec0,,1,0,98,93,1,97
,,,,,,,,,,,,,,,,,,,,,,,,,,,,,,,,,,,,,,,,,m,2.194000006,TOM,TRUE,,,,,,,99,tomate,Spanish,Sounds/spa_tomate.mp3,2020-06-05_16h24.49.615,TranslationElicitation_eng-prolific,3.2.4,MacIntel,60,5b1ec77744127b0001400ec0,,1,0,98,93,1,97
,,,,,,,,,,,,,,,,,,,,,,,,,,,,,,,,,,,,,,,,,a,2.426999807,TOMA,TRUE,,,,,,,99,tomate,Spanish,Sounds/spa_tomate.mp3,2020-06-05_16h24.49.615,TranslationElicitation_eng-prolific,3.2.4,MacIntel,60,5b1ec77744127b0001400ec0,,1,0,98,93,1,97
,,,,,,,,,,,,,,,,,,,,,,,,,,,,,,,,,,,,,,,,,o,2.576999903,TOMAO,TRUE,,,,,,,99,tomate,Spanish,Sounds/spa_tomate.mp3,2020-06-05_16h24.49.615,TranslationElicitation_eng-prolific,3.2.4,MacIntel,60,5b1ec77744127b0001400ec0,,1,0,98,93,1,97
,,,,,,,,,,,,,,,,,,,,,,,,,,,,,,,,,,,,,,,,,backspace,2.92599988,TOMA,TRUE,,,,,,,99,tomate,Spanish,Sounds/spa_tomate.mp3,2020-06-05_16h24.49.615,TranslationElicitation_eng-prolific,3.2.4,MacIntel,60,5b1ec77744127b0001400ec0,,1,0,98,93,1,97
,,,,,,,,,,,,,,,,,,,,,,,,,,,,,,,,,,,,,,,,,backspace,3.142999887,TOM,TRUE,,,,,,,99,tomate,Spanish,Sounds/spa_tomate.mp3,2020-06-05_16h24.49.615,TranslationElicitation_eng-prolific,3.2.4,MacIntel,60,5b1ec77744127b0001400ec0,,1,0,98,93,1,97
,,,,,,,,,,,,,,,,,,,,,,,,,,,,,,,,,,,,,,,,,a,3.524999857,TOMA,TRUE,,,,,,,99,tomate,Spanish,Sounds/spa_tomate.mp3,2020-06-05_16h24.49.615,TranslationElicitation_eng-prolific,3.2.4,MacIntel,60,5b1ec77744127b0001400ec0,,1,0,98,93,1,97
,,,,,,,,,,,,,,,,,,,,,,,,,,,,,,,,,,,,,,,,,t,3.689999819,TOMAT,TRUE,,,,,,,99,tomate,Spanish,Sounds/spa_tomate.mp3,2020-06-05_16h24.49.615,TranslationElicitation_eng-prolific,3.2.4,MacIntel,60,5b1ec77744127b0001400ec0,,1,0,98,93,1,97
,,,,,,,,,,,,,,,,,,,,,,,,,,,,,,,,,,,,,,,,,o,3.790999889,TOMATO,TRUE,,,,,,,99,tomate,Spanish,Sounds/spa_tomate.mp3,2020-06-05_16h24.49.615,TranslationElicitation_eng-prolific,3.2.4,MacIntel,60,5b1ec77744127b0001400ec0,,1,0,98,93,1,97
,,,,,,,,,,,,,,,,,,,,,,,,,,,,,,,,,,,,,,,,,return,4.288999796,TOMATO,TRUE,,,,,,,99,tomate,Spanish,Sounds/spa_tomate.mp3,2020-06-05_16h24.49.615,TranslationElicitation_eng-prolific,3.2.4,MacIntel,60,5b1ec77744127b0001400ec0,4.288999796,1,0,98,93,1,97
,,,,,,,,,,,,,,,,,,,,,,,,,,,,,,,,,,,,,,,,,,,,,,,,,,,99,tomate,Spanish,Sounds/spa_tomate.mp3,2020-06-05_16h24.49.615,TranslationElicitation_eng-prolific,3.2.4,MacIntel,60,5b1ec77744127b0001400ec0,,1,0,98,93,1,97
,,,,,,,,,,,,,,,,,,,,,,,,,,,,,,,,,,,,,,,,,l,1.296000004,L,FALSE,,,,,,,53,leche,Spanish,Sounds/spa_leche.mp3,2020-06-05_16h24.49.615,TranslationElicitation_eng-prolific,3.2.4,MacIntel,60,5b1ec77744127b0001400ec0,,1,0,98,49,1,97
,,,,,,,,,,,,,,,,,,,,,,,,,,,,,,,,,,,,,,,,,a,1.378999949,LA,FALSE,,,,,,,53,leche,Spanish,Sounds/spa_leche.mp3,2020-06-05_16h24.49.615,TranslationElicitation_eng-prolific,3.2.4,MacIntel,60,5b1ec77744127b0001400ec0,,1,0,98,49,1,97
,,,,,,,,,,,,,,,,,,,,,,,,,,,,,,,,,,,,,,,,,t,1.628000021,LAT,FALSE,,,,,,,53,leche,Spanish,Sounds/spa_leche.mp3,2020-06-05_16h24.49.615,TranslationElicitation_eng-prolific,3.2.4,MacIntel,60,5b1ec77744127b0001400ec0,,1,0,98,49,1,97
,,,,,,,,,,,,,,,,,,,,,,,,,,,,,,,,,,,,,,,,,e,1.795000076,LATE,FALSE,,,,,,,53,leche,Spanish,Sounds/spa_leche.mp3,2020-06-05_16h24.49.615,TranslationElicitation_eng-prolific,3.2.4,MacIntel,60,5b1ec77744127b0001400ec0,,1,0,98,49,1,97
,,,,,,,,,,,,,,,,,,,,,,,,,,,,,,,,,,,,,,,,,r,1.878000021,LATER,FALSE,,,,,,,53,leche,Spanish,Sounds/spa_leche.mp3,2020-06-05_16h24.49.615,TranslationElicitation_eng-prolific,3.2.4,MacIntel,60,5b1ec77744127b0001400ec0,,1,0,98,49,1,97
,,,,,,,,,,,,,,,,,,,,,,,,,,,,,,,,,,,,,,,,,return,2.078000069,LATER,FALSE,,,,,,,53,leche,Spanish,Sounds/spa_leche.mp3,2020-06-05_16h24.49.615,TranslationElicitation_eng-prolific,3.2.4,MacIntel,60,5b1ec77744127b0001400ec0,2.078000069,1,0,98,49,1,97
,,,,,,,,,,,,,,,,,,,,,,,,,,,,,,,,,,,,,,,,,,,,,,,,,,,53,leche,Spanish,Sounds/spa_leche.mp3,2020-06-05_16h24.49.615,TranslationElicitation_eng-prolific,3.2.4,MacIntel,60,5b1ec77744127b0001400ec0,,1,0,98,49,1,97
,,,,,,,,,,,,,,,,,,,,,,,,,,,,,,,,,,,,,,,,,m,2.177999973,M,FALSE,,,,,,,67,muneca,Spanish,Sounds/spa_muneca.mp3,2020-06-05_16h24.49.615,TranslationElicitation_eng-prolific,3.2.4,MacIntel,60,5b1ec77744127b0001400ec0,,1,0,98,63,1,97
,,,,,,,,,,,,,,,,,,,,,,,,,,,,,,,,,,,,,,,,,m,2.311000109,MM,FALSE,,,,,,,67,muneca,Spanish,Sounds/spa_muneca.mp3,2020-06-05_16h24.49.615,TranslationElicitation_eng-prolific,3.2.4,MacIntel,60,5b1ec77744127b0001400ec0,,1,0,98,63,1,97
,,,,,,,,,,,,,,,,,,,,,,,,,,,,,,,,,,,,,,,,,backspace,2.89199996,M,TRUE,,,,,,,67,muneca,Spanish,Sounds/spa_muneca.mp3,2020-06-05_16h24.49.615,TranslationElicitation_eng-prolific,3.2.4,MacIntel,60,5b1ec77744127b0001400ec0,,1,0,98,63,1,97
,,,,,,,,,,,,,,,,,,,,,,,,,,,,,,,,,,,,,,,,,o,3.141000032,MO,TRUE,,,,,,,67,muneca,Spanish,Sounds/spa_muneca.mp3,2020-06-05_16h24.49.615,TranslationElicitation_eng-prolific,3.2.4,MacIntel,60,5b1ec77744127b0001400ec0,,1,0,98,63,1,97
,,,,,,,,,,,,,,,,,,,,,,,,,,,,,,,,,,,,,,,,,o,3.275000095,MOO,TRUE,,,,,,,67,muneca,Spanish,Sounds/spa_muneca.mp3,2020-06-05_16h24.49.615,TranslationElicitation_eng-prolific,3.2.4,MacIntel,60,5b1ec77744127b0001400ec0,,1,0,98,63,1,97
,,,,,,,,,,,,,,,,,,,,,,,,,,,,,,,,,,,,,,,,,n,3.34100008,MOON,TRUE,,,,,,,67,muneca,Spanish,Sounds/spa_muneca.mp3,2020-06-05_16h24.49.615,TranslationElicitation_eng-prolific,3.2.4,MacIntel,60,5b1ec77744127b0001400ec0,,1,0,98,63,1,97
,,,,,,,,,,,,,,,,,,,,,,,,,,,,,,,,,,,,,,,,,return,3.524000168,MOON,TRUE,,,,,,,67,muneca,Spanish,Sounds/spa_muneca.mp3,2020-06-05_16h24.49.615,TranslationElicitation_eng-prolific,3.2.4,MacIntel,60,5b1ec77744127b0001400ec0,3.524000168,1,0,98,63,1,97
,,,,,,,,,,,,,,,,,,,,,,,,,,,,,,,,,,,,,,,,,,,,,,,,,,,67,muneca,Spanish,Sounds/spa_muneca.mp3,2020-06-05_16h24.49.615,TranslationElicitation_eng-prolific,3.2.4,MacIntel,60,5b1ec77744127b0001400ec0,,1,0,98,63,1,97
,,,,,,,,,,,,,,,,,,,,,,,,,,,,,,,,,,,,,,,,,p,1.763000011,P,FALSE,,,,,,,86,pingüino,Spanish,Sounds/spa_pinguino.mp3,2020-06-05_16h24.49.615,TranslationElicitation_eng-prolific,3.2.4,MacIntel,60,5b1ec77744127b0001400ec0,,1,0,98,81,1,97
,,,,,,,,,,,,,,,,,,,,,,,,,,,,,,,,,,,,,,,,,e,1.946000099,PE,FALSE,,,,,,,86,pingüino,Spanish,Sounds/spa_pinguino.mp3,2020-06-05_16h24.49.615,TranslationElicitation_eng-prolific,3.2.4,MacIntel,60,5b1ec77744127b0001400ec0,,1,0,98,81,1,97
,,,,,,,,,,,,,,,,,,,,,,,,,,,,,,,,,,,,,,,,,n,2.078999996,PEN,FALSE,,,,,,,86,pingüino,Spanish,Sounds/spa_pinguino.mp3,2020-06-05_16h24.49.615,TranslationElicitation_eng-prolific,3.2.4,MacIntel,60,5b1ec77744127b0001400ec0,,1,0,98,81,1,97
,,,,,,,,,,,,,,,,,,,,,,,,,,,,,,,,,,,,,,,,,g,2.244999886,PENG,FALSE,,,,,,,86,pingüino,Spanish,Sounds/spa_pinguino.mp3,2020-06-05_16h24.49.615,TranslationElicitation_eng-prolific,3.2.4,MacIntel,60,5b1ec77744127b0001400ec0,,1,0,98,81,1,97
,,,,,,,,,,,,,,,,,,,,,,,,,,,,,,,,,,,,,,,,,u,2.378000021,PENGU,FALSE,,,,,,,86,pingüino,Spanish,Sounds/spa_pinguino.mp3,2020-06-05_16h24.49.615,TranslationElicitation_eng-prolific,3.2.4,MacIntel,60,5b1ec77744127b0001400ec0,,1,0,98,81,1,97
,,,,,,,,,,,,,,,,,,,,,,,,,,,,,,,,,,,,,,,,,i,2.542999983,PENGUI,FALSE,,,,,,,86,pingüino,Spanish,Sounds/spa_pinguino.mp3,2020-06-05_16h24.49.615,TranslationElicitation_eng-prolific,3.2.4,MacIntel,60,5b1ec77744127b0001400ec0,,1,0,98,81,1,97
,,,,,,,,,,,,,,,,,,,,,,,,,,,,,,,,,,,,,,,,,n,2.627000093,PENGUIN,FALSE,,,,,,,86,pingüino,Spanish,Sounds/spa_pinguino.mp3,2020-06-05_16h24.49.615,TranslationElicitation_eng-prolific,3.2.4,MacIntel,60,5b1ec77744127b0001400ec0,,1,0,98,81,1,97
,,,,,,,,,,,,,,,,,,,,,,,,,,,,,,,,,,,,,,,,,return,2.943000078,PENGUIN,FALSE,,,,,,,86,pingüino,Spanish,Sounds/spa_pinguino.mp3,2020-06-05_16h24.49.615,TranslationElicitation_eng-prolific,3.2.4,MacIntel,60,5b1ec77744127b0001400ec0,2.943000078,1,0,98,81,1,97
,,,,,,,,,,,,,,,,,,,,,,,,,,,,,,,,,,,,,,,,,,,,,,,,,,,86,pingüino,Spanish,Sounds/spa_pinguino.mp3,2020-06-05_16h24.49.615,TranslationElicitation_eng-prolific,3.2.4,MacIntel,60,5b1ec77744127b0001400ec0,,1,0,98,81,1,97
,,,,,,,,,,,,,,,,,,,,,,,,,,,,,,,,,,,,,,,,,a,1.628999949,A,FALSE,,,,,,,36,estrella,Spanish,Sounds/spa_estrella.mp3,2020-06-05_16h24.49.615,TranslationElicitation_eng-prolific,3.2.4,MacIntel,60,5b1ec77744127b0001400ec0,,1,0,98,32,1,97
,,,,,,,,,,,,,,,,,,,,,,,,,,,,,,,,,,,,,,,,,u,1.795000076,AU,FALSE,,,,,,,36,estrella,Spanish,Sounds/spa_estrella.mp3,2020-06-05_16h24.49.615,TranslationElicitation_eng-prolific,3.2.4,MacIntel,60,5b1ec77744127b0001400ec0,,1,0,98,32,1,97
,,,,,,,,,,,,,,,,,,,,,,,,,,,,,,,,,,,,,,,,,s,1.944999933,AUS,FALSE,,,,,,,36,estrella,Spanish,Sounds/spa_estrella.mp3,2020-06-05_16h24.49.615,TranslationElicitation_eng-prolific,3.2.4,MacIntel,60,5b1ec77744127b0001400ec0,,1,0,98,32,1,97
,,,,,,,,,,,,,,,,,,,,,,,,,,,,,,,,,,,,,,,,,t,2.344000101,AUST,FALSE,,,,,,,36,estrella,Spanish,Sounds/spa_estrella.mp3,2020-06-05_16h24.49.615,TranslationElicitation_eng-prolific,3.2.4,MacIntel,60,5b1ec77744127b0001400ec0,,1,0,98,32,1,97
,,,,,,,,,,,,,,,,,,,,,,,,,,,,,,,,,,,,,,,,,r,2.493999958,AUSTR,FALSE,,,,,,,36,estrella,Spanish,Sounds/spa_estrella.mp3,2020-06-05_16h24.49.615,TranslationElicitation_eng-prolific,3.2.4,MacIntel,60,5b1ec77744127b0001400ec0,,1,0,98,32,1,97
,,,,,,,,,,,,,,,,,,,,,,,,,,,,,,,,,,,,,,,,,a,2.627000093,AUSTRA,FALSE,,,,,,,36,estrella,Spanish,Sounds/spa_estrella.mp3,2020-06-05_16h24.49.615,TranslationElicitation_eng-prolific,3.2.4,MacIntel,60,5b1ec77744127b0001400ec0,,1,0,98,32,1,97
,,,,,,,,,,,,,,,,,,,,,,,,,,,,,,,,,,,,,,,,,l,2.709000111,AUSTRAL,FALSE,,,,,,,36,estrella,Spanish,Sounds/spa_estrella.mp3,2020-06-05_16h24.49.615,TranslationElicitation_eng-prolific,3.2.4,MacIntel,60,5b1ec77744127b0001400ec0,,1,0,98,32,1,97
,,,,,,,,,,,,,,,,,,,,,,,,,,,,,,,,,,,,,,,,,i,2.875999928,AUSTRALI,FALSE,,,,,,,36,estrella,Spanish,Sounds/spa_estrella.mp3,2020-06-05_16h24.49.615,TranslationElicitation_eng-prolific,3.2.4,MacIntel,60,5b1ec77744127b0001400ec0,,1,0,98,32,1,97
,,,,,,,,,,,,,,,,,,,,,,,,,,,,,,,,,,,,,,,,,a,2.924999952,AUSTRALIA,FALSE,,,,,,,36,estrella,Spanish,Sounds/spa_estrella.mp3,2020-06-05_16h24.49.615,TranslationElicitation_eng-prolific,3.2.4,MacIntel,60,5b1ec77744127b0001400ec0,,1,0,98,32,1,97
,,,,,,,,,,,,,,,,,,,,,,,,,,,,,,,,,,,,,,,,,return,3.059999943,AUSTRALIA,FALSE,,,,,,,36,estrella,Spanish,Sounds/spa_estrella.mp3,2020-06-05_16h24.49.615,TranslationElicitation_eng-prolific,3.2.4,MacIntel,60,5b1ec77744127b0001400ec0,3.059999943,1,0,98,32,1,97
,,,,,,,,,,,,,,,,,,,,,,,,,,,,,,,,,,,,,,,,,,,,,,,,,,,36,estrella,Spanish,Sounds/spa_estrella.mp3,2020-06-05_16h24.49.615,TranslationElicitation_eng-prolific,3.2.4,MacIntel,60,5b1ec77744127b0001400ec0,,1,0,98,32,1,97
,,,,,,,,,,,,,,,,,,,,,,,,,,,,,,,,,,,,,,,,,y,2.013000011,Y,FALSE,,,,,,,28,cielo,Spanish,Sounds/spa_cielo.mp3,2020-06-05_16h24.49.615,TranslationElicitation_eng-prolific,3.2.4,MacIntel,60,5b1ec77744127b0001400ec0,,1,0,98,25,1,97
,,,,,,,,,,,,,,,,,,,,,,,,,,,,,,,,,,,,,,,,,e,2.144999981,YE,FALSE,,,,,,,28,cielo,Spanish,Sounds/spa_cielo.mp3,2020-06-05_16h24.49.615,TranslationElicitation_eng-prolific,3.2.4,MacIntel,60,5b1ec77744127b0001400ec0,,1,0,98,25,1,97
,,,,,,,,,,,,,,,,,,,,,,,,,,,,,,,,,,,,,,,,,l,2.260999918,YEL,FALSE,,,,,,,28,cielo,Spanish,Sounds/spa_cielo.mp3,2020-06-05_16h24.49.615,TranslationElicitation_eng-prolific,3.2.4,MacIntel,60,5b1ec77744127b0001400ec0,,1,0,98,25,1,97
,,,,,,,,,,,,,,,,,,,,,,,,,,,,,,,,,,,,,,,,,l,2.361000061,YELL,FALSE,,,,,,,28,cielo,Spanish,Sounds/spa_cielo.mp3,2020-06-05_16h24.49.615,TranslationElicitation_eng-prolific,3.2.4,MacIntel,60,5b1ec77744127b0001400ec0,,1,0,98,25,1,97
,,,,,,,,,,,,,,,,,,,,,,,,,,,,,,,,,,,,,,,,,o,2.477999926,YELLO,FALSE,,,,,,,28,cielo,Spanish,Sounds/spa_cielo.mp3,2020-06-05_16h24.49.615,TranslationElicitation_eng-prolific,3.2.4,MacIntel,60,5b1ec77744127b0001400ec0,,1,0,98,25,1,97
,,,,,,,,,,,,,,,,,,,,,,,,,,,,,,,,,,,,,,,,,w,2.595000029,YELLOW,FALSE,,,,,,,28,cielo,Spanish,Sounds/spa_cielo.mp3,2020-06-05_16h24.49.615,TranslationElicitation_eng-prolific,3.2.4,MacIntel,60,5b1ec77744127b0001400ec0,,1,0,98,25,1,97
,,,,,,,,,,,,,,,,,,,,,,,,,,,,,,,,,,,,,,,,,return,2.710999966,YELLOW,FALSE,,,,,,,28,cielo,Spanish,Sounds/spa_cielo.mp3,2020-06-05_16h24.49.615,TranslationElicitation_eng-prolific,3.2.4,MacIntel,60,5b1ec77744127b0001400ec0,2.710999966,1,0,98,25,1,97
,,,,,,,,,,,,,,,,,,,,,,,,,,,,,,,,,,,,,,,,,,,,,,,,,,,28,cielo,Spanish,Sounds/spa_cielo.mp3,2020-06-05_16h24.49.615,TranslationElicitation_eng-prolific,3.2.4,MacIntel,60,5b1ec77744127b0001400ec0,,1,0,98,25,1,97
,,,,,,,,,,,,,,,,,,,,,,,,,,,,,,,,,,,,,,,,,c,1.712999821,C,FALSE,,,,,,,27,chocolate,Spanish,Sounds/spa_chocolate.mp3,2020-06-05_16h24.49.615,TranslationElicitation_eng-prolific,3.2.4,MacIntel,60,5b1ec77744127b0001400ec0,,1,0,98,24,1,97
,,,,,,,,,,,,,,,,,,,,,,,,,,,,,,,,,,,,,,,,,h,1.811999798,CH,FALSE,,,,,,,27,chocolate,Spanish,Sounds/spa_chocolate.mp3,2020-06-05_16h24.49.615,TranslationElicitation_eng-prolific,3.2.4,MacIntel,60,5b1ec77744127b0001400ec0,,1,0,98,24,1,97
,,,,,,,,,,,,,,,,,,,,,,,,,,,,,,,,,,,,,,,,,o,1.927999973,CHO,FALSE,,,,,,,27,chocolate,Spanish,Sounds/spa_chocolate.mp3,2020-06-05_16h24.49.615,TranslationElicitation_eng-prolific,3.2.4,MacIntel,60,5b1ec77744127b0001400ec0,,1,0,98,24,1,97
,,,,,,,,,,,,,,,,,,,,,,,,,,,,,,,,,,,,,,,,,c,2.027999878,CHOC,FALSE,,,,,,,27,chocolate,Spanish,Sounds/spa_chocolate.mp3,2020-06-05_16h24.49.615,TranslationElicitation_eng-prolific,3.2.4,MacIntel,60,5b1ec77744127b0001400ec0,,1,0,98,24,1,97
,,,,,,,,,,,,,,,,,,,,,,,,,,,,,,,,,,,,,,,,,o,2.09499979,CHOCO,FALSE,,,,,,,27,chocolate,Spanish,Sounds/spa_chocolate.mp3,2020-06-05_16h24.49.615,TranslationElicitation_eng-prolific,3.2.4,MacIntel,60,5b1ec77744127b0001400ec0,,1,0,98,24,1,97
,,,,,,,,,,,,,,,,,,,,,,,,,,,,,,,,,,,,,,,,,l,2.227999926,CHOCOL,FALSE,,,,,,,27,chocolate,Spanish,Sounds/spa_chocolate.mp3,2020-06-05_16h24.49.615,TranslationElicitation_eng-prolific,3.2.4,MacIntel,60,5b1ec77744127b0001400ec0,,1,0,98,24,1,97
,,,,,,,,,,,,,,,,,,,,,,,,,,,,,,,,,,,,,,,,,a,2.261999846,CHOCOLA,FALSE,,,,,,,27,chocolate,Spanish,Sounds/spa_chocolate.mp3,2020-06-05_16h24.49.615,TranslationElicitation_eng-prolific,3.2.4,MacIntel,60,5b1ec77744127b0001400ec0,,1,0,98,24,1,97
,,,,,,,,,,,,,,,,,,,,,,,,,,,,,,,,,,,,,,,,,t,2.409999847,CHOCOLAT,FALSE,,,,,,,27,chocolate,Spanish,Sounds/spa_chocolate.mp3,2020-06-05_16h24.49.615,TranslationElicitation_eng-prolific,3.2.4,MacIntel,60,5b1ec77744127b0001400ec0,,1,0,98,24,1,97
,,,,,,,,,,,,,,,,,,,,,,,,,,,,,,,,,,,,,,,,,e,2.56099987,CHOCOLATE,FALSE,,,,,,,27,chocolate,Spanish,Sounds/spa_chocolate.mp3,2020-06-05_16h24.49.615,TranslationElicitation_eng-prolific,3.2.4,MacIntel,60,5b1ec77744127b0001400ec0,,1,0,98,24,1,97
,,,,,,,,,,,,,,,,,,,,,,,,,,,,,,,,,,,,,,,,,return,2.859999895,CHOCOLATE,FALSE,,,,,,,27,chocolate,Spanish,Sounds/spa_chocolate.mp3,2020-06-05_16h24.49.615,TranslationElicitation_eng-prolific,3.2.4,MacIntel,60,5b1ec77744127b0001400ec0,2.859999895,1,0,98,24,1,97
,,,,,,,,,,,,,,,,,,,,,,,,,,,,,,,,,,,,,,,,,,,,,,,,,,,27,chocolate,Spanish,Sounds/spa_chocolate.mp3,2020-06-05_16h24.49.615,TranslationElicitation_eng-prolific,3.2.4,MacIntel,60,5b1ec77744127b0001400ec0,,1,0,98,24,1,97
,,,,,,,,,,,,,,,,,,,,,,,,,,,,,,,,,,,,,,,,,u,3.874000072,U,FALSE,,,,,,,17,calcetin,Spanish,Sounds/spa_calcetin.mp3,2020-06-05_16h24.49.615,TranslationElicitation_eng-prolific,3.2.4,MacIntel,60,5b1ec77744127b0001400ec0,,1,0,98,15,1,97
,,,,,,,,,,,,,,,,,,,,,,,,,,,,,,,,,,,,,,,,,n,4.006000042,UN,FALSE,,,,,,,17,calcetin,Spanish,Sounds/spa_calcetin.mp3,2020-06-05_16h24.49.615,TranslationElicitation_eng-prolific,3.2.4,MacIntel,60,5b1ec77744127b0001400ec0,,1,0,98,15,1,97
,,,,,,,,,,,,,,,,,,,,,,,,,,,,,,,,,,,,,,,,,s,4.023000002,UNS,FALSE,,,,,,,17,calcetin,Spanish,Sounds/spa_calcetin.mp3,2020-06-05_16h24.49.615,TranslationElicitation_eng-prolific,3.2.4,MacIntel,60,5b1ec77744127b0001400ec0,,1,0,98,15,1,97
,,,,,,,,,,,,,,,,,,,,,,,,,,,,,,,,,,,,,,,,,u,4.123000145,UNSU,FALSE,,,,,,,17,calcetin,Spanish,Sounds/spa_calcetin.mp3,2020-06-05_16h24.49.615,TranslationElicitation_eng-prolific,3.2.4,MacIntel,60,5b1ec77744127b0001400ec0,,1,0,98,15,1,97
,,,,,,,,,,,,,,,,,,,,,,,,,,,,,,,,,,,,,,,,,r,4.322000027,UNSUR,FALSE,,,,,,,17,calcetin,Spanish,Sounds/spa_calcetin.mp3,2020-06-05_16h24.49.615,TranslationElicitation_eng-prolific,3.2.4,MacIntel,60,5b1ec77744127b0001400ec0,,1,0,98,15,1,97
,,,,,,,,,,,,,,,,,,,,,,,,,,,,,,,,,,,,,,,,,e,4.65500021,UNSURE,FALSE,,,,,,,17,calcetin,Spanish,Sounds/spa_calcetin.mp3,2020-06-05_16h24.49.615,TranslationElicitation_eng-prolific,3.2.4,MacIntel,60,5b1ec77744127b0001400ec0,,1,0,98,15,1,97
,,,,,,,,,,,,,,,,,,,,,,,,,,,,,,,,,,,,,,,,,return,4.772000074,UNSURE,FALSE,,,,,,,17,calcetin,Spanish,Sounds/spa_calcetin.mp3,2020-06-05_16h24.49.615,TranslationElicitation_eng-prolific,3.2.4,MacIntel,60,5b1ec77744127b0001400ec0,4.772000074,1,0,98,15,1,97
,,,,,,,,,,,,,,,,,,,,,,,,,,,,,,,,,,,,,,,,,,,,,,,,,,,17,calcetin,Spanish,Sounds/spa_calcetin.mp3,2020-06-05_16h24.49.615,TranslationElicitation_eng-prolific,3.2.4,MacIntel,60,5b1ec77744127b0001400ec0,,1,0,98,15,1,97
,,,,,,,,,,,,,,,,,,,,,,,,,,,,,,,,,,,,,,,,,p,1.812999964,P,FALSE,,,,,,,7,bocadillo,Spanish,Sounds/spa_bocadillo.mp3,2020-06-05_16h24.49.615,TranslationElicitation_eng-prolific,3.2.4,MacIntel,60,5b1ec77744127b0001400ec0,,1,0,98,5,1,97
,,,,,,,,,,,,,,,,,,,,,,,,,,,,,,,,,,,,,,,,,o,1.861999989,PO,FALSE,,,,,,,7,bocadillo,Spanish,Sounds/spa_bocadillo.mp3,2020-06-05_16h24.49.615,TranslationElicitation_eng-prolific,3.2.4,MacIntel,60,5b1ec77744127b0001400ec0,,1,0,98,5,1,97
,,,,,,,,,,,,,,,,,,,,,,,,,,,,,,,,,,,,,,,,,r,1.979000092,POR,FALSE,,,,,,,7,bocadillo,Spanish,Sounds/spa_bocadillo.mp3,2020-06-05_16h24.49.615,TranslationElicitation_eng-prolific,3.2.4,MacIntel,60,5b1ec77744127b0001400ec0,,1,0,98,5,1,97
,,,,,,,,,,,,,,,,,,,,,,,,,,,,,,,,,,,,,,,,,k,2.028000116,PORK,FALSE,,,,,,,7,bocadillo,Spanish,Sounds/spa_bocadillo.mp3,2020-06-05_16h24.49.615,TranslationElicitation_eng-prolific,3.2.4,MacIntel,60,5b1ec77744127b0001400ec0,,1,0,98,5,1,97
,,,,,,,,,,,,,,,,,,,,,,,,,,,,,,,,,,,,,,,,,return,2.177999973,PORK,FALSE,,,,,,,7,bocadillo,Spanish,Sounds/spa_bocadillo.mp3,2020-06-05_16h24.49.615,TranslationElicitation_eng-prolific,3.2.4,MacIntel,60,5b1ec77744127b0001400ec0,2.177999973,1,0,98,5,1,97
,,,,,,,,,,,,,,,,,,,,,,,,,,,,,,,,,,,,,,,,,,,,,,,,,,,7,bocadillo,Spanish,Sounds/spa_bocadillo.mp3,2020-06-05_16h24.49.615,TranslationElicitation_eng-prolific,3.2.4,MacIntel,60,5b1ec77744127b0001400ec0,,1,0,98,5,1,97
,,,,,,,,,,,,,,,,,,,,,,,,,,,,,,,,,,,,,,,,,l,2.77699995,L,FALSE,,,,,,,71,ombligo,Spanish,Sounds/spa_ombligo.mp3,2020-06-05_16h24.49.615,TranslationElicitation_eng-prolific,3.2.4,MacIntel,60,5b1ec77744127b0001400ec0,,1,0,98,66,1,97
,,,,,,,,,,,,,,,,,,,,,,,,,,,,,,,,,,,,,,,,,e,2.825999975,LE,FALSE,,,,,,,71,ombligo,Spanish,Sounds/spa_ombligo.mp3,2020-06-05_16h24.49.615,TranslationElicitation_eng-prolific,3.2.4,MacIntel,60,5b1ec77744127b0001400ec0,,1,0,98,66,1,97
,,,,,,,,,,,,,,,,,,,,,,,,,,,,,,,,,,,,,,,,,a,2.960000038,LEA,FALSE,,,,,,,71,ombligo,Spanish,Sounds/spa_ombligo.mp3,2020-06-05_16h24.49.615,TranslationElicitation_eng-prolific,3.2.4,MacIntel,60,5b1ec77744127b0001400ec0,,1,0,98,66,1,97
,,,,,,,,,,,,,,,,,,,,,,,,,,,,,,,,,,,,,,,,,n,3.024999857,LEAN,FALSE,,,,,,,71,ombligo,Spanish,Sounds/spa_ombligo.mp3,2020-06-05_16h24.49.615,TranslationElicitation_eng-prolific,3.2.4,MacIntel,60,5b1ec77744127b0001400ec0,,1,0,98,66,1,97
,,,,,,,,,,,,,,,,,,,,,,,,,,,,,,,,,,,,,,,,,return,3.243000031,LEAN,FALSE,,,,,,,71,ombligo,Spanish,Sounds/spa_ombligo.mp3,2020-06-05_16h24.49.615,TranslationElicitation_eng-prolific,3.2.4,MacIntel,60,5b1ec77744127b0001400ec0,3.243000031,1,0,98,66,1,97
,,,,,,,,,,,,,,,,,,,,,,,,,,,,,,,,,,,,,,,,,,,,,,,,,,,71,ombligo,Spanish,Sounds/spa_ombligo.mp3,2020-06-05_16h24.49.615,TranslationElicitation_eng-prolific,3.2.4,MacIntel,60,5b1ec77744127b0001400ec0,,1,0,98,66,1,97
,,,,,,,,,,,,,,,,,,,,,,,,,,,,,,,,,,,,,,,,,f,1.478999853,F,FALSE,,,,,,,37,flor,Spanish,Sounds/spa_flor.mp3,2020-06-05_16h24.49.615,TranslationElicitation_eng-prolific,3.2.4,MacIntel,60,5b1ec77744127b0001400ec0,,1,0,98,33,1,97
,,,,,,,,,,,,,,,,,,,,,,,,,,,,,,,,,,,,,,,,,l,1.562999964,FL,FALSE,,,,,,,37,flor,Spanish,Sounds/spa_flor.mp3,2020-06-05_16h24.49.615,TranslationElicitation_eng-prolific,3.2.4,MacIntel,60,5b1ec77744127b0001400ec0,,1,0,98,33,1,97
,,,,,,,,,,,,,,,,,,,,,,,,,,,,,,,,,,,,,,,,,o,1.911999941,FLO,FALSE,,,,,,,37,flor,Spanish,Sounds/spa_flor.mp3,2020-06-05_16h24.49.615,TranslationElicitation_eng-prolific,3.2.4,MacIntel,60,5b1ec77744127b0001400ec0,,1,0,98,33,1,97
,,,,,,,,,,,,,,,,,,,,,,,,,,,,,,,,,,,,,,,,,o,2.061999798,FLOO,FALSE,,,,,,,37,flor,Spanish,Sounds/spa_flor.mp3,2020-06-05_16h24.49.615,TranslationElicitation_eng-prolific,3.2.4,MacIntel,60,5b1ec77744127b0001400ec0,,1,0,98,33,1,97
,,,,,,,,,,,,,,,,,,,,,,,,,,,,,,,,,,,,,,,,,backspace,2.659999847,FLO,TRUE,,,,,,,37,flor,Spanish,Sounds/spa_flor.mp3,2020-06-05_16h24.49.615,TranslationElicitation_eng-prolific,3.2.4,MacIntel,60,5b1ec77744127b0001400ec0,,1,0,98,33,1,97
,,,,,,,,,,,,,,,,,,,,,,,,,,,,,,,,,,,,,,,,,o,3.258999825,FLOO,TRUE,,,,,,,37,flor,Spanish,Sounds/spa_flor.mp3,2020-06-05_16h24.49.615,TranslationElicitation_eng-prolific,3.2.4,MacIntel,60,5b1ec77744127b0001400ec0,,1,0,98,33,1,97
,,,,,,,,,,,,,,,,,,,,,,,,,,,,,,,,,,,,,,,,,r,3.690999985,FLOOR,TRUE,,,,,,,37,flor,Spanish,Sounds/spa_flor.mp3,2020-06-05_16h24.49.615,TranslationElicitation_eng-prolific,3.2.4,MacIntel,60,5b1ec77744127b0001400ec0,,1,0,98,33,1,97
,,,,,,,,,,,,,,,,,,,,,,,,,,,,,,,,,,,,,,,,,return,3.907999992,FLOOR,TRUE,,,,,,,37,flor,Spanish,Sounds/spa_flor.mp3,2020-06-05_16h24.49.615,TranslationElicitation_eng-prolific,3.2.4,MacIntel,60,5b1ec77744127b0001400ec0,3.907999992,1,0,98,33,1,97
,,,,,,,,,,,,,,,,,,,,,,,,,,,,,,,,,,,,,,,,,,,,,,,,,,,37,flor,Spanish,Sounds/spa_flor.mp3,2020-06-05_16h24.49.615,TranslationElicitation_eng-prolific,3.2.4,MacIntel,60,5b1ec77744127b0001400ec0,,1,0,98,33,1,97
,,,,,,,,,,,,,,,,,,,,,,,,,,,,,,,,,,,,,,,,,f,1.513999939,F,FALSE,,,,,,,21,cebra,Spanish,Sounds/spa_cebra.mp3,2020-06-05_16h24.49.615,TranslationElicitation_eng-prolific,3.2.4,MacIntel,60,5b1ec77744127b0001400ec0,,1,0,98,19,1,97
,,,,,,,,,,,,,,,,,,,,,,,,,,,,,,,,,,,,,,,,,a,2.194999933,FA,FALSE,,,,,,,21,cebra,Spanish,Sounds/spa_cebra.mp3,2020-06-05_16h24.49.615,TranslationElicitation_eng-prolific,3.2.4,MacIntel,60,5b1ec77744127b0001400ec0,,1,0,98,19,1,97
,,,,,,,,,,,,,,,,,,,,,,,,,,,,,,,,,,,,,,,,,v,2.394999981,FAV,FALSE,,,,,,,21,cebra,Spanish,Sounds/spa_cebra.mp3,2020-06-05_16h24.49.615,TranslationElicitation_eng-prolific,3.2.4,MacIntel,60,5b1ec77744127b0001400ec0,,1,0,98,19,1,97
,,,,,,,,,,,,,,,,,,,,,,,,,,,,,,,,,,,,,,,,,o,2.52699995,FAVO,FALSE,,,,,,,21,cebra,Spanish,Sounds/spa_cebra.mp3,2020-06-05_16h24.49.615,TranslationElicitation_eng-prolific,3.2.4,MacIntel,60,5b1ec77744127b0001400ec0,,1,0,98,19,1,97
,,,,,,,,,,,,,,,,,,,,,,,,,,,,,,,,,,,,,,,,,u,2.626999855,FAVOU,FALSE,,,,,,,21,cebra,Spanish,Sounds/spa_cebra.mp3,2020-06-05_16h24.49.615,TranslationElicitation_eng-prolific,3.2.4,MacIntel,60,5b1ec77744127b0001400ec0,,1,0,98,19,1,97
,,,,,,,,,,,,,,,,,,,,,,,,,,,,,,,,,,,,,,,,,r,3.325000048,FAVOUR,FALSE,,,,,,,21,cebra,Spanish,Sounds/spa_cebra.mp3,2020-06-05_16h24.49.615,TranslationElicitation_eng-prolific,3.2.4,MacIntel,60,5b1ec77744127b0001400ec0,,1,0,98,19,1,97
,,,,,,,,,,,,,,,,,,,,,,,,,,,,,,,,,,,,,,,,,t,3.475999832,FAVOURT,FALSE,,,,,,,21,cebra,Spanish,Sounds/spa_cebra.mp3,2020-06-05_16h24.49.615,TranslationElicitation_eng-prolific,3.2.4,MacIntel,60,5b1ec77744127b0001400ec0,,1,0,98,19,1,97
,,,,,,,,,,,,,,,,,,,,,,,,,,,,,,,,,,,,,,,,,i,3.592000008,FAVOURTI,FALSE,,,,,,,21,cebra,Spanish,Sounds/spa_cebra.mp3,2020-06-05_16h24.49.615,TranslationElicitation_eng-prolific,3.2.4,MacIntel,60,5b1ec77744127b0001400ec0,,1,0,98,19,1,97
,,,,,,,,,,,,,,,,,,,,,,,,,,,,,,,,,,,,,,,,,backspace,4.023999929,FAVOURT,TRUE,,,,,,,21,cebra,Spanish,Sounds/spa_cebra.mp3,2020-06-05_16h24.49.615,TranslationElicitation_eng-prolific,3.2.4,MacIntel,60,5b1ec77744127b0001400ec0,,1,0,98,19,1,97
,,,,,,,,,,,,,,,,,,,,,,,,,,,,,,,,,,,,,,,,,backspace,4.139999866,FAVOUR,TRUE,,,,,,,21,cebra,Spanish,Sounds/spa_cebra.mp3,2020-06-05_16h24.49.615,TranslationElicitation_eng-prolific,3.2.4,MacIntel,60,5b1ec77744127b0001400ec0,,1,0,98,19,1,97
,,,,,,,,,,,,,,,,,,,,,,,,,,,,,,,,,,,,,,,,,i,4.372999907,FAVOURI,TRUE,,,,,,,21,cebra,Spanish,Sounds/spa_cebra.mp3,2020-06-05_16h24.49.615,TranslationElicitation_eng-prolific,3.2.4,MacIntel,60,5b1ec77744127b0001400ec0,,1,0,98,19,1,97
,,,,,,,,,,,,,,,,,,,,,,,,,,,,,,,,,,,,,,,,,t,4.504999876,FAVOURIT,TRUE,,,,,,,21,cebra,Spanish,Sounds/spa_cebra.mp3,2020-06-05_16h24.49.615,TranslationElicitation_eng-prolific,3.2.4,MacIntel,60,5b1ec77744127b0001400ec0,,1,0,98,19,1,97
,,,,,,,,,,,,,,,,,,,,,,,,,,,,,,,,,,,,,,,,,return,4.871999979,FAVOURIT,TRUE,,,,,,,21,cebra,Spanish,Sounds/spa_cebra.mp3,2020-06-05_16h24.49.615,TranslationElicitation_eng-prolific,3.2.4,MacIntel,60,5b1ec77744127b0001400ec0,4.871999979,1,0,98,19,1,97
,,,,,,,,,,,,,,,,,,,,,,,,,,,,,,,,,,,,,,,,,,,,,,,,,,,21,cebra,Spanish,Sounds/spa_cebra.mp3,2020-06-05_16h24.49.615,TranslationElicitation_eng-prolific,3.2.4,MacIntel,60,5b1ec77744127b0001400ec0,,1,0,98,19,1,97
,,,,,,,,,,,,,,,,,,,,,,,,,,,,,,,,,,,,,,,,,m,1.378999949,M,FALSE,,,,,,,66,moto,Spanish,Sounds/spa_moto.mp3,2020-06-05_16h24.49.615,TranslationElicitation_eng-prolific,3.2.4,MacIntel,60,5b1ec77744127b0001400ec0,,1,0,98,62,1,97
,,,,,,,,,,,,,,,,,,,,,,,,,,,,,,,,,,,,,,,,,o,1.546000004,MO,FALSE,,,,,,,66,moto,Spanish,Sounds/spa_moto.mp3,2020-06-05_16h24.49.615,TranslationElicitation_eng-prolific,3.2.4,MacIntel,60,5b1ec77744127b0001400ec0,,1,0,98,62,1,97
,,,,,,,,,,,,,,,,,,,,,,,,,,,,,,,,,,,,,,,,,r,1.695000172,MOR,FALSE,,,,,,,66,moto,Spanish,Sounds/spa_moto.mp3,2020-06-05_16h24.49.615,TranslationElicitation_eng-prolific,3.2.4,MacIntel,60,5b1ec77744127b0001400ec0,,1,0,98,62,1,97
,,,,,,,,,,,,,,,,,,,,,,,,,,,,,,,,,,,,,,,,,e,1.779000044,MORE,FALSE,,,,,,,66,moto,Spanish,Sounds/spa_moto.mp3,2020-06-05_16h24.49.615,TranslationElicitation_eng-prolific,3.2.4,MacIntel,60,5b1ec77744127b0001400ec0,,1,0,98,62,1,97
,,,,,,,,,,,,,,,,,,,,,,,,,,,,,,,,,,,,,,,,,return,1.962000132,MORE,FALSE,,,,,,,66,moto,Spanish,Sounds/spa_moto.mp3,2020-06-05_16h24.49.615,TranslationElicitation_eng-prolific,3.2.4,MacIntel,60,5b1ec77744127b0001400ec0,1.962000132,1,0,98,62,1,97
,,,,,,,,,,,,,,,,,,,,,,,,,,,,,,,,,,,,,,,,,,,,,,,,,,,66,moto,Spanish,Sounds/spa_moto.mp3,2020-06-05_16h24.49.615,TranslationElicitation_eng-prolific,3.2.4,MacIntel,60,5b1ec77744127b0001400ec0,,1,0,98,62,1,97
,,,,,,,,,,,,,,,,,,,,,,,,,,,,,,,,,,,,,,,,,p,1.878000021,P,FALSE,,,,,,,90,pollo,Spanish,Sounds/spa_pollo.mp3,2020-06-05_16h24.49.615,TranslationElicitation_eng-prolific,3.2.4,MacIntel,60,5b1ec77744127b0001400ec0,,1,0,98,85,1,97
,,,,,,,,,,,,,,,,,,,,,,,,,,,,,,,,,,,,,,,,,o,2.743000031,PO,FALSE,,,,,,,90,pollo,Spanish,Sounds/spa_pollo.mp3,2020-06-05_16h24.49.615,TranslationElicitation_eng-prolific,3.2.4,MacIntel,60,5b1ec77744127b0001400ec0,,1,0,98,85,1,97
,,,,,,,,,,,,,,,,,,,,,,,,,,,,,,,,,,,,,,,,,u,2.89199996,POU,FALSE,,,,,,,90,pollo,Spanish,Sounds/spa_pollo.mp3,2020-06-05_16h24.49.615,TranslationElicitation_eng-prolific,3.2.4,MacIntel,60,5b1ec77744127b0001400ec0,,1,0,98,85,1,97
,,,,,,,,,,,,,,,,,,,,,,,,,,,,,,,,,,,,,,,,,r,3.008000135,POUR,FALSE,,,,,,,90,pollo,Spanish,Sounds/spa_pollo.mp3,2020-06-05_16h24.49.615,TranslationElicitation_eng-prolific,3.2.4,MacIntel,60,5b1ec77744127b0001400ec0,,1,0,98,85,1,97
,,,,,,,,,,,,,,,,,,,,,,,,,,,,,,,,,,,,,,,,,return,3.15899992,POUR,FALSE,,,,,,,90,pollo,Spanish,Sounds/spa_pollo.mp3,2020-06-05_16h24.49.615,TranslationElicitation_eng-prolific,3.2.4,MacIntel,60,5b1ec77744127b0001400ec0,3.15899992,1,0,98,85,1,97
,,,,,,,,,,,,,,,,,,,,,,,,,,,,,,,,,,,,,,,,,,,,,,,,,,,90,pollo,Spanish,Sounds/spa_pollo.mp3,2020-06-05_16h24.49.615,TranslationElicitation_eng-prolific,3.2.4,MacIntel,60,5b1ec77744127b0001400ec0,,1,0,98,85,1,97
,,,,,,,,,,,,,,,,,,,,,,,,,,,,,,,,,,,,,,,,,b,1.695999861,B,FALSE,,,,,,,14,burro,Spanish,Sounds/spa_burro.mp3,2020-06-05_16h24.49.615,TranslationElicitation_eng-prolific,3.2.4,MacIntel,60,5b1ec77744127b0001400ec0,,1,0,98,12,1,97
,,,,,,,,,,,,,,,,,,,,,,,,,,,,,,,,,,,,,,,,,o,1.828999996,BO,FALSE,,,,,,,14,burro,Spanish,Sounds/spa_burro.mp3,2020-06-05_16h24.49.615,TranslationElicitation_eng-prolific,3.2.4,MacIntel,60,5b1ec77744127b0001400ec0,,1,0,98,12,1,97
,,,,,,,,,,,,,,,,,,,,,,,,,,,,,,,,,,,,,,,,,r,2.061999798,BOR,FALSE,,,,,,,14,burro,Spanish,Sounds/spa_burro.mp3,2020-06-05_16h24.49.615,TranslationElicitation_eng-prolific,3.2.4,MacIntel,60,5b1ec77744127b0001400ec0,,1,0,98,12,1,97
,,,,,,,,,,,,,,,,,,,,,,,,,,,,,,,,,,,,,,,,,r,2.160999775,BORR,FALSE,,,,,,,14,burro,Spanish,Sounds/spa_burro.mp3,2020-06-05_16h24.49.615,TranslationElicitation_eng-prolific,3.2.4,MacIntel,60,5b1ec77744127b0001400ec0,,1,0,98,12,1,97
,,,,,,,,,,,,,,,,,,,,,,,,,,,,,,,,,,,,,,,,,p,2.277999878,BORRP,FALSE,,,,,,,14,burro,Spanish,Sounds/spa_burro.mp3,2020-06-05_16h24.49.615,TranslationElicitation_eng-prolific,3.2.4,MacIntel,60,5b1ec77744127b0001400ec0,,1,0,98,12,1,97
,,,,,,,,,,,,,,,,,,,,,,,,,,,,,,,,,,,,,,,,,backspace,2.693999767,BORR,TRUE,,,,,,,14,burro,Spanish,Sounds/spa_burro.mp3,2020-06-05_16h24.49.615,TranslationElicitation_eng-prolific,3.2.4,MacIntel,60,5b1ec77744127b0001400ec0,,1,0,98,12,1,97
,,,,,,,,,,,,,,,,,,,,,,,,,,,,,,,,,,,,,,,,,o,2.926999807,BORRO,TRUE,,,,,,,14,burro,Spanish,Sounds/spa_burro.mp3,2020-06-05_16h24.49.615,TranslationElicitation_eng-prolific,3.2.4,MacIntel,60,5b1ec77744127b0001400ec0,,1,0,98,12,1,97
,,,,,,,,,,,,,,,,,,,,,,,,,,,,,,,,,,,,,,,,,w,2.975999832,BORROW,TRUE,,,,,,,14,burro,Spanish,Sounds/spa_burro.mp3,2020-06-05_16h24.49.615,TranslationElicitation_eng-prolific,3.2.4,MacIntel,60,5b1ec77744127b0001400ec0,,1,0,98,12,1,97
,,,,,,,,,,,,,,,,,,,,,,,,,,,,,,,,,,,,,,,,,return,3.191999912,BORROW,TRUE,,,,,,,14,burro,Spanish,Sounds/spa_burro.mp3,2020-06-05_16h24.49.615,TranslationElicitation_eng-prolific,3.2.4,MacIntel,60,5b1ec77744127b0001400ec0,3.191999912,1,0,98,12,1,97
,,,,,,,,,,,,,,,,,,,,,,,,,,,,,,,,,,,,,,,,,,,,,,,,,,,14,burro,Spanish,Sounds/spa_burro.mp3,2020-06-05_16h24.49.615,TranslationElicitation_eng-prolific,3.2.4,MacIntel,60,5b1ec77744127b0001400ec0,,1,0,98,12,1,97
,,,,,,,,,,,,,,,,,,,,,,,,,,,,,,,,,,,,,,,,,m,4.970999956,M,FALSE,,,,,,,40,galleta,Spanish,Sounds/spa_galleta.mp3,2020-06-05_16h24.49.615,TranslationElicitation_eng-prolific,3.2.4,MacIntel,60,5b1ec77744127b0001400ec0,,1,0,98,36,1,97
,,,,,,,,,,,,,,,,,,,,,,,,,,,,,,,,,,,,,,,,,a,5.072000027,MA,FALSE,,,,,,,40,galleta,Spanish,Sounds/spa_galleta.mp3,2020-06-05_16h24.49.615,TranslationElicitation_eng-prolific,3.2.4,MacIntel,60,5b1ec77744127b0001400ec0,,1,0,98,36,1,97
,,,,,,,,,,,,,,,,,,,,,,,,,,,,,,,,,,,,,,,,,n,5.137000084,MAN,FALSE,,,,,,,40,galleta,Spanish,Sounds/spa_galleta.mp3,2020-06-05_16h24.49.615,TranslationElicitation_eng-prolific,3.2.4,MacIntel,60,5b1ec77744127b0001400ec0,,1,0,98,36,1,97
,,,,,,,,,,,,,,,,,,,,,,,,,,,,,,,,,,,,,,,,,return,5.538000107,MAN,FALSE,,,,,,,40,galleta,Spanish,Sounds/spa_galleta.mp3,2020-06-05_16h24.49.615,TranslationElicitation_eng-prolific,3.2.4,MacIntel,60,5b1ec77744127b0001400ec0,5.538000107,1,0,98,36,1,97
,,,,,,,,,,,,,,,,,,,,,,,,,,,,,,,,,,,,,,,,,,,,,,,,,,,40,galleta,Spanish,Sounds/spa_galleta.mp3,2020-06-05_16h24.49.615,TranslationElicitation_eng-prolific,3.2.4,MacIntel,60,5b1ec77744127b0001400ec0,,1,0,98,36,1,97
,,,,,,,,,,,,,,,,,,,,,,,,,,,,,,,,,,,,,,,,,p,1.662999868,P,FALSE,,,,,,,78,pastel,Spanish,Sounds/spa_pastel.mp3,2020-06-05_16h24.49.615,TranslationElicitation_eng-prolific,3.2.4,MacIntel,60,5b1ec77744127b0001400ec0,,1,0,98,73,1,97
,,,,,,,,,,,,,,,,,,,,,,,,,,,,,,,,,,,,,,,,,a,2.476999998,PA,FALSE,,,,,,,78,pastel,Spanish,Sounds/spa_pastel.mp3,2020-06-05_16h24.49.615,TranslationElicitation_eng-prolific,3.2.4,MacIntel,60,5b1ec77744127b0001400ec0,,1,0,98,73,1,97
,,,,,,,,,,,,,,,,,,,,,,,,,,,,,,,,,,,,,,,,,s,2.592999935,PAS,FALSE,,,,,,,78,pastel,Spanish,Sounds/spa_pastel.mp3,2020-06-05_16h24.49.615,TranslationElicitation_eng-prolific,3.2.4,MacIntel,60,5b1ec77744127b0001400ec0,,1,0,98,73,1,97
,,,,,,,,,,,,,,,,,,,,,,,,,,,,,,,,,,,,,,,,,t,2.826999903,PAST,FALSE,,,,,,,78,pastel,Spanish,Sounds/spa_pastel.mp3,2020-06-05_16h24.49.615,TranslationElicitation_eng-prolific,3.2.4,MacIntel,60,5b1ec77744127b0001400ec0,,1,0,98,73,1,97
,,,,,,,,,,,,,,,,,,,,,,,,,,,,,,,,,,,,,,,,,e,2.924999952,PASTE,FALSE,,,,,,,78,pastel,Spanish,Sounds/spa_pastel.mp3,2020-06-05_16h24.49.615,TranslationElicitation_eng-prolific,3.2.4,MacIntel,60,5b1ec77744127b0001400ec0,,1,0,98,73,1,97
,,,,,,,,,,,,,,,,,,,,,,,,,,,,,,,,,,,,,,,,,l,3.025000095,PASTEL,FALSE,,,,,,,78,pastel,Spanish,Sounds/spa_pastel.mp3,2020-06-05_16h24.49.615,TranslationElicitation_eng-prolific,3.2.4,MacIntel,60,5b1ec77744127b0001400ec0,,1,0,98,73,1,97
,,,,,,,,,,,,,,,,,,,,,,,,,,,,,,,,,,,,,,,,,return,3.207999945,PASTEL,FALSE,,,,,,,78,pastel,Spanish,Sounds/spa_pastel.mp3,2020-06-05_16h24.49.615,TranslationElicitation_eng-prolific,3.2.4,MacIntel,60,5b1ec77744127b0001400ec0,3.207999945,1,0,98,73,1,97
,,,,,,,,,,,,,,,,,,,,,,,,,,,,,,,,,,,,,,,,,,,,,,,,,,,78,pastel,Spanish,Sounds/spa_pastel.mp3,2020-06-05_16h24.49.615,TranslationElicitation_eng-prolific,3.2.4,MacIntel,60,5b1ec77744127b0001400ec0,,1,0,98,73,1,97
,,,,,,,,,,,,,,,,,,,,,,,,,,,,,,,,,,,,,,,,,h,5.670000076,H,FALSE,,,,,,,49,hormiga,Spanish,Sounds/spa_hormiga.mp3,2020-06-05_16h24.49.615,TranslationElicitation_eng-prolific,3.2.4,MacIntel,60,5b1ec77744127b0001400ec0,,1,0,98,45,1,97
,,,,,,,,,,,,,,,,,,,,,,,,,,,,,,,,,,,,,,,,,i,6.38499999,HI,FALSE,,,,,,,49,hormiga,Spanish,Sounds/spa_hormiga.mp3,2020-06-05_16h24.49.615,TranslationElicitation_eng-prolific,3.2.4,MacIntel,60,5b1ec77744127b0001400ec0,,1,0,98,45,1,97
,,,,,,,,,,,,,,,,,,,,,,,,,,,,,,,,,,,,,,,,,m,6.483999968,HIM,FALSE,,,,,,,49,hormiga,Spanish,Sounds/spa_hormiga.mp3,2020-06-05_16h24.49.615,TranslationElicitation_eng-prolific,3.2.4,MacIntel,60,5b1ec77744127b0001400ec0,,1,0,98,45,1,97
,,,,,,,,,,,,,,,,,,,,,,,,,,,,,,,,,,,,,,,,,return,6.684000015,HIM,FALSE,,,,,,,49,hormiga,Spanish,Sounds/spa_hormiga.mp3,2020-06-05_16h24.49.615,TranslationElicitation_eng-prolific,3.2.4,MacIntel,60,5b1ec77744127b0001400ec0,6.684000015,1,0,98,45,1,97
,,,,,,,,,,,,,,,,,,,,,,,,,,,,,,,,,,,,,,,,,,,,,,,,,,,49,hormiga,Spanish,Sounds/spa_hormiga.mp3,2020-06-05_16h24.49.615,TranslationElicitation_eng-prolific,3.2.4,MacIntel,60,5b1ec77744127b0001400ec0,,1,0,98,45,1,97
,,,,,,,,,,,,,,,,,,,,,,,,,,,,,,,,,,,,,,,,,h,2.328000069,H,FALSE,,,,,,,85,pierna,Spanish,Sounds/spa_pierna.mp3,2020-06-05_16h24.49.615,TranslationElicitation_eng-prolific,3.2.4,MacIntel,60,5b1ec77744127b0001400ec0,,1,0,98,80,1,97
,,,,,,,,,,,,,,,,,,,,,,,,,,,,,,,,,,,,,,,,,e,2.444000006,HE,FALSE,,,,,,,85,pierna,Spanish,Sounds/spa_pierna.mp3,2020-06-05_16h24.49.615,TranslationElicitation_eng-prolific,3.2.4,MacIntel,60,5b1ec77744127b0001400ec0,,1,0,98,80,1,97
,,,,,,,,,,,,,,,,,,,,,,,,,,,,,,,,,,,,,,,,,l,2.542999983,HEL,FALSE,,,,,,,85,pierna,Spanish,Sounds/spa_pierna.mp3,2020-06-05_16h24.49.615,TranslationElicitation_eng-prolific,3.2.4,MacIntel,60,5b1ec77744127b0001400ec0,,1,0,98,80,1,97
,,,,,,,,,,,,,,,,,,,,,,,,,,,,,,,,,,,,,,,,,backspace,2.90899992,HE,TRUE,,,,,,,85,pierna,Spanish,Sounds/spa_pierna.mp3,2020-06-05_16h24.49.615,TranslationElicitation_eng-prolific,3.2.4,MacIntel,60,5b1ec77744127b0001400ec0,,1,0,98,80,1,97
,,,,,,,,,,,,,,,,,,,,,,,,,,,,,,,,,,,,,,,,,backspace,3.025000095,H,TRUE,,,,,,,85,pierna,Spanish,Sounds/spa_pierna.mp3,2020-06-05_16h24.49.615,TranslationElicitation_eng-prolific,3.2.4,MacIntel,60,5b1ec77744127b0001400ec0,,1,0,98,80,1,97
,,,,,,,,,,,,,,,,,,,,,,,,,,,,,,,,,,,,,,,,,backspace,3.108999968,,TRUE,,,,,,,85,pierna,Spanish,Sounds/spa_pierna.mp3,2020-06-05_16h24.49.615,TranslationElicitation_eng-prolific,3.2.4,MacIntel,60,5b1ec77744127b0001400ec0,,1,0,98,80,1,97
,,,,,,,,,,,,,,,,,,,,,,,,,,,,,,,,,,,,,,,,,w,3.225000143,W,TRUE,,,,,,,85,pierna,Spanish,Sounds/spa_pierna.mp3,2020-06-05_16h24.49.615,TranslationElicitation_eng-prolific,3.2.4,MacIntel,60,5b1ec77744127b0001400ec0,,1,0,98,80,1,97
,,,,,,,,,,,,,,,,,,,,,,,,,,,,,,,,,,,,,,,,,e,3.292000055,WE,TRUE,,,,,,,85,pierna,Spanish,Sounds/spa_pierna.mp3,2020-06-05_16h24.49.615,TranslationElicitation_eng-prolific,3.2.4,MacIntel,60,5b1ec77744127b0001400ec0,,1,0,98,80,1,97
,,,,,,,,,,,,,,,,,,,,,,,,,,,,,,,,,,,,,,,,,k,3.407999992,WEK,TRUE,,,,,,,85,pierna,Spanish,Sounds/spa_pierna.mp3,2020-06-05_16h24.49.615,TranslationElicitation_eng-prolific,3.2.4,MacIntel,60,5b1ec77744127b0001400ec0,,1,0,98,80,1,97
,,,,,,,,,,,,,,,,,,,,,,,,,,,,,,,,,,,,,,,,,c,3.541000128,WEKC,TRUE,,,,,,,85,pierna,Spanish,Sounds/spa_pierna.mp3,2020-06-05_16h24.49.615,TranslationElicitation_eng-prolific,3.2.4,MacIntel,60,5b1ec77744127b0001400ec0,,1,0,98,80,1,97
,,,,,,,,,,,,,,,,,,,,,,,,,,,,,,,,,,,,,,,,,o,3.674000025,WEKCO,TRUE,,,,,,,85,pierna,Spanish,Sounds/spa_pierna.mp3,2020-06-05_16h24.49.615,TranslationElicitation_eng-prolific,3.2.4,MacIntel,60,5b1ec77744127b0001400ec0,,1,0,98,80,1,97
,,,,,,,,,,,,,,,,,,,,,,,,,,,,,,,,,,,,,,,,,backspace,3.973999977,WEKC,TRUE,,,,,,,85,pierna,Spanish,Sounds/spa_pierna.mp3,2020-06-05_16h24.49.615,TranslationElicitation_eng-prolific,3.2.4,MacIntel,60,5b1ec77744127b0001400ec0,,1,0,98,80,1,97
,,,,,,,,,,,,,,,,,,,,,,,,,,,,,,,,,,,,,,,,,backspace,4.090000153,WEK,TRUE,,,,,,,85,pierna,Spanish,Sounds/spa_pierna.mp3,2020-06-05_16h24.49.615,TranslationElicitation_eng-prolific,3.2.4,MacIntel,60,5b1ec77744127b0001400ec0,,1,0,98,80,1,97
,,,,,,,,,,,,,,,,,,,,,,,,,,,,,,,,,,,,,,,,,backspace,4.18900013,WE,TRUE,,,,,,,85,pierna,Spanish,Sounds/spa_pierna.mp3,2020-06-05_16h24.49.615,TranslationElicitation_eng-prolific,3.2.4,MacIntel,60,5b1ec77744127b0001400ec0,,1,0,98,80,1,97
,,,,,,,,,,,,,,,,,,,,,,,,,,,,,,,,,,,,,,,,,backspace,4.305000067,W,TRUE,,,,,,,85,pierna,Spanish,Sounds/spa_pierna.mp3,2020-06-05_16h24.49.615,TranslationElicitation_eng-prolific,3.2.4,MacIntel,60,5b1ec77744127b0001400ec0,,1,0,98,80,1,97
,,,,,,,,,,,,,,,,,,,,,,,,,,,,,,,,,,,,,,,,,e,4.888000011,WE,TRUE,,,,,,,85,pierna,Spanish,Sounds/spa_pierna.mp3,2020-06-05_16h24.49.615,TranslationElicitation_eng-prolific,3.2.4,MacIntel,60,5b1ec77744127b0001400ec0,,1,0,98,80,1,97
,,,,,,,,,,,,,,,,,,,,,,,,,,,,,,,,,,,,,,,,,l,4.937999964,WEL,TRUE,,,,,,,85,pierna,Spanish,Sounds/spa_pierna.mp3,2020-06-05_16h24.49.615,TranslationElicitation_eng-prolific,3.2.4,MacIntel,60,5b1ec77744127b0001400ec0,,1,0,98,80,1,97
,,,,,,,,,,,,,,,,,,,,,,,,,,,,,,,,,,,,,,,,,c,5.286999941,WELC,TRUE,,,,,,,85,pierna,Spanish,Sounds/spa_pierna.mp3,2020-06-05_16h24.49.615,TranslationElicitation_eng-prolific,3.2.4,MacIntel,60,5b1ec77744127b0001400ec0,,1,0,98,80,1,97
,,,,,,,,,,,,,,,,,,,,,,,,,,,,,,,,,,,,,,,,,o,5.536000013,WELCO,TRUE,,,,,,,85,pierna,Spanish,Sounds/spa_pierna.mp3,2020-06-05_16h24.49.615,TranslationElicitation_eng-prolific,3.2.4,MacIntel,60,5b1ec77744127b0001400ec0,,1,0,98,80,1,97
,,,,,,,,,,,,,,,,,,,,,,,,,,,,,,,,,,,,,,,,,m,5.636000156,WELCOM,TRUE,,,,,,,85,pierna,Spanish,Sounds/spa_pierna.mp3,2020-06-05_16h24.49.615,TranslationElicitation_eng-prolific,3.2.4,MacIntel,60,5b1ec77744127b0001400ec0,,1,0,98,80,1,97
,,,,,,,,,,,,,,,,,,,,,,,,,,,,,,,,,,,,,,,,,e,5.736000061,WELCOME,TRUE,,,,,,,85,pierna,Spanish,Sounds/spa_pierna.mp3,2020-06-05_16h24.49.615,TranslationElicitation_eng-prolific,3.2.4,MacIntel,60,5b1ec77744127b0001400ec0,,1,0,98,80,1,97
,,,,,,,,,,,,,,,,,,,,,,,,,,,,,,,,,,,,,,,,,return,5.868999958,WELCOME,TRUE,,,,,,,85,pierna,Spanish,Sounds/spa_pierna.mp3,2020-06-05_16h24.49.615,TranslationElicitation_eng-prolific,3.2.4,MacIntel,60,5b1ec77744127b0001400ec0,5.868999958,1,0,98,80,1,97
,,,,,,,,,,,,,,,,,,,,,,,,,,,,,,,,,,,,,,,,,,,,,,,,,,,85,pierna,Spanish,Sounds/spa_pierna.mp3,2020-06-05_16h24.49.615,TranslationElicitation_eng-prolific,3.2.4,MacIntel,60,5b1ec77744127b0001400ec0,,1,0,98,80,1,97
,,,,,,,,,,,,,,,,,,,,,,,,,,,,,,,,,,,,,,,,,p,2.027999878,P,FALSE,,,,,,,80,pato,Spanish,Sounds/spa_pato.mp3,2020-06-05_16h24.49.615,TranslationElicitation_eng-prolific,3.2.4,MacIntel,60,5b1ec77744127b0001400ec0,,1,0,98,75,1,97
,,,,,,,,,,,,,,,,,,,,,,,,,,,,,,,,,,,,,,,,,a,2.07799983,PA,FALSE,,,,,,,80,pato,Spanish,Sounds/spa_pato.mp3,2020-06-05_16h24.49.615,TranslationElicitation_eng-prolific,3.2.4,MacIntel,60,5b1ec77744127b0001400ec0,,1,0,98,75,1,97
,,,,,,,,,,,,,,,,,,,,,,,,,,,,,,,,,,,,,,,,,t,2.277999878,PAT,FALSE,,,,,,,80,pato,Spanish,Sounds/spa_pato.mp3,2020-06-05_16h24.49.615,TranslationElicitation_eng-prolific,3.2.4,MacIntel,60,5b1ec77744127b0001400ec0,,1,0,98,75,1,97
,,,,,,,,,,,,,,,,,,,,,,,,,,,,,,,,,,,,,,,,,return,2.427000046,PAT,FALSE,,,,,,,80,pato,Spanish,Sounds/spa_pato.mp3,2020-06-05_16h24.49.615,TranslationElicitation_eng-prolific,3.2.4,MacIntel,60,5b1ec77744127b0001400ec0,2.427000046,1,0,98,75,1,97
,,,,,,,,,,,,,,,,,,,,,,,,,,,,,,,,,,,,,,,,,,,,,,,,,,,80,pato,Spanish,Sounds/spa_pato.mp3,2020-06-05_16h24.49.615,TranslationElicitation_eng-prolific,3.2.4,MacIntel,60,5b1ec77744127b0001400ec0,,1,0,98,75,1,97
,,,,,,,,,,,,,,,,,,,,,,,,,,,,,,,,,,,,,,,,,o,3.125,O,FALSE,,,,,,,68,naranja,Spanish,Sounds/spa_naranja.mp3,2020-06-05_16h24.49.615,TranslationElicitation_eng-prolific,3.2.4,MacIntel,60,5b1ec77744127b0001400ec0,,1,0,98,64,1,97
,,,,,,,,,,,,,,,,,,,,,,,,,,,,,,,,,,,,,,,,,r,3.193000078,OR,FALSE,,,,,,,68,naranja,Spanish,Sounds/spa_naranja.mp3,2020-06-05_16h24.49.615,TranslationElicitation_eng-prolific,3.2.4,MacIntel,60,5b1ec77744127b0001400ec0,,1,0,98,64,1,97
,,,,,,,,,,,,,,,,,,,,,,,,,,,,,,,,,,,,,,,,,a,3.325999975,ORA,FALSE,,,,,,,68,naranja,Spanish,Sounds/spa_naranja.mp3,2020-06-05_16h24.49.615,TranslationElicitation_eng-prolific,3.2.4,MacIntel,60,5b1ec77744127b0001400ec0,,1,0,98,64,1,97
,,,,,,,,,,,,,,,,,,,,,,,,,,,,,,,,,,,,,,,,,n,3.424000025,ORAN,FALSE,,,,,,,68,naranja,Spanish,Sounds/spa_naranja.mp3,2020-06-05_16h24.49.615,TranslationElicitation_eng-prolific,3.2.4,MacIntel,60,5b1ec77744127b0001400ec0,,1,0,98,64,1,97
,,,,,,,,,,,,,,,,,,,,,,,,,,,,,,,,,,,,,,,,,g,3.509000063,ORANG,FALSE,,,,,,,68,naranja,Spanish,Sounds/spa_naranja.mp3,2020-06-05_16h24.49.615,TranslationElicitation_eng-prolific,3.2.4,MacIntel,60,5b1ec77744127b0001400ec0,,1,0,98,64,1,97
,,,,,,,,,,,,,,,,,,,,,,,,,,,,,,,,,,,,,,,,,e,3.64199996,ORANGE,FALSE,,,,,,,68,naranja,Spanish,Sounds/spa_naranja.mp3,2020-06-05_16h24.49.615,TranslationElicitation_eng-prolific,3.2.4,MacIntel,60,5b1ec77744127b0001400ec0,,1,0,98,64,1,97
,,,,,,,,,,,,,,,,,,,,,,,,,,,,,,,,,,,,,,,,,return,4.157000065,ORANGE,FALSE,,,,,,,68,naranja,Spanish,Sounds/spa_naranja.mp3,2020-06-05_16h24.49.615,TranslationElicitation_eng-prolific,3.2.4,MacIntel,60,5b1ec77744127b0001400ec0,4.157000065,1,0,98,64,1,97
,,,,,,,,,,,,,,,,,,,,,,,,,,,,,,,,,,,,,,,,,,,,,,,,,,,68,naranja,Spanish,Sounds/spa_naranja.mp3,2020-06-05_16h24.49.615,TranslationElicitation_eng-prolific,3.2.4,MacIntel,60,5b1ec77744127b0001400ec0,,1,0,98,64,1,97
,,,,,,,,,,,,,,,,,,,,,,,,,,,,,,,,,,,,,,,,,b,1.562000036,B,FALSE,,,,,,,8,bol,Spanish,Sounds/spa_bol.mp3,2020-06-05_16h24.49.615,TranslationElicitation_eng-prolific,3.2.4,MacIntel,60,5b1ec77744127b0001400ec0,,1,0,98,6,1,97
,,,,,,,,,,,,,,,,,,,,,,,,,,,,,,,,,,,,,,,,,a,1.677999973,BA,FALSE,,,,,,,8,bol,Spanish,Sounds/spa_bol.mp3,2020-06-05_16h24.49.615,TranslationElicitation_eng-prolific,3.2.4,MacIntel,60,5b1ec77744127b0001400ec0,,1,0,98,6,1,97
,,,,,,,,,,,,,,,,,,,,,,,,,,,,,,,,,,,,,,,,,l,1.779000044,BAL,FALSE,,,,,,,8,bol,Spanish,Sounds/spa_bol.mp3,2020-06-05_16h24.49.615,TranslationElicitation_eng-prolific,3.2.4,MacIntel,60,5b1ec77744127b0001400ec0,,1,0,98,6,1,97
,,,,,,,,,,,,,,,,,,,,,,,,,,,,,,,,,,,,,,,,,l,1.894999981,BALL,FALSE,,,,,,,8,bol,Spanish,Sounds/spa_bol.mp3,2020-06-05_16h24.49.615,TranslationElicitation_eng-prolific,3.2.4,MacIntel,60,5b1ec77744127b0001400ec0,,1,0,98,6,1,97
,,,,,,,,,,,,,,,,,,,,,,,,,,,,,,,,,,,,,,,,,return,2.061000109,BALL,FALSE,,,,,,,8,bol,Spanish,Sounds/spa_bol.mp3,2020-06-05_16h24.49.615,TranslationElicitation_eng-prolific,3.2.4,MacIntel,60,5b1ec77744127b0001400ec0,2.061000109,1,0,98,6,1,97
,,,,,,,,,,,,,,,,,,,,,,,,,,,,,,,,,,,,,,,,,,,,,,,,,,,8,bol,Spanish,Sounds/spa_bol.mp3,2020-06-05_16h24.49.615,TranslationElicitation_eng-prolific,3.2.4,MacIntel,60,5b1ec77744127b0001400ec0,,1,0,98,6,1,97
,,,,,,,,,,,,,,,,,,,,,,,,,,,,,,,,,,,,,,,,,p,2.559999943,P,FALSE,,,,,,,82,perro,Spanish,Sounds/spa_perro.mp3,2020-06-05_16h24.49.615,TranslationElicitation_eng-prolific,3.2.4,MacIntel,60,5b1ec77744127b0001400ec0,,1,0,98,77,1,97
,,,,,,,,,,,,,,,,,,,,,,,,,,,,,,,,,,,,,,,,,a,2.644000053,PA,FALSE,,,,,,,82,perro,Spanish,Sounds/spa_perro.mp3,2020-06-05_16h24.49.615,TranslationElicitation_eng-prolific,3.2.4,MacIntel,60,5b1ec77744127b0001400ec0,,1,0,98,77,1,97
,,,,,,,,,,,,,,,,,,,,,,,,,,,,,,,,,,,,,,,,,r,2.792999983,PAR,FALSE,,,,,,,82,perro,Spanish,Sounds/spa_perro.mp3,2020-06-05_16h24.49.615,TranslationElicitation_eng-prolific,3.2.4,MacIntel,60,5b1ec77744127b0001400ec0,,1,0,98,77,1,97
,,,,,,,,,,,,,,,,,,,,,,,,,,,,,,,,,,,,,,,,,e,2.842000008,PARE,FALSE,,,,,,,82,perro,Spanish,Sounds/spa_perro.mp3,2020-06-05_16h24.49.615,TranslationElicitation_eng-prolific,3.2.4,MacIntel,60,5b1ec77744127b0001400ec0,,1,0,98,77,1,97
,,,,,,,,,,,,,,,,,,,,,,,,,,,,,,,,,,,,,,,,,n,2.90899992,PAREN,FALSE,,,,,,,82,perro,Spanish,Sounds/spa_perro.mp3,2020-06-05_16h24.49.615,TranslationElicitation_eng-prolific,3.2.4,MacIntel,60,5b1ec77744127b0001400ec0,,1,0,98,77,1,97
,,,,,,,,,,,,,,,,,,,,,,,,,,,,,,,,,,,,,,,,,t,2.976000071,PARENT,FALSE,,,,,,,82,perro,Spanish,Sounds/spa_perro.mp3,2020-06-05_16h24.49.615,TranslationElicitation_eng-prolific,3.2.4,MacIntel,60,5b1ec77744127b0001400ec0,,1,0,98,77,1,97
,,,,,,,,,,,,,,,,,,,,,,,,,,,,,,,,,,,,,,,,,return,3.108999968,PARENT,FALSE,,,,,,,82,perro,Spanish,Sounds/spa_perro.mp3,2020-06-05_16h24.49.615,TranslationElicitation_eng-prolific,3.2.4,MacIntel,60,5b1ec77744127b0001400ec0,3.108999968,1,0,98,77,1,97
,,,,,,,,,,,,,,,,,,,,,,,,,,,,,,,,,,,,,,,,,,,,,,,,,,,82,perro,Spanish,Sounds/spa_perro.mp3,2020-06-05_16h24.49.615,TranslationElicitation_eng-prolific,3.2.4,MacIntel,60,5b1ec77744127b0001400ec0,,1,0,98,77,1,97
,,,,,,,,,,,,,,,,,,,,,,,,,,,,,,,,,,,,,,,,,u,5.337999821,U,FALSE,,,,,,,51,ladrillo,Spanish,Sounds/spa_ladrillo.mp3,2020-06-05_16h24.49.615,TranslationElicitation_eng-prolific,3.2.4,MacIntel,60,5b1ec77744127b0001400ec0,,1,0,98,47,1,97
,,,,,,,,,,,,,,,,,,,,,,,,,,,,,,,,,,,,,,,,,n,5.453999996,UN,FALSE,,,,,,,51,ladrillo,Spanish,Sounds/spa_ladrillo.mp3,2020-06-05_16h24.49.615,TranslationElicitation_eng-prolific,3.2.4,MacIntel,60,5b1ec77744127b0001400ec0,,1,0,98,47,1,97
,,,,,,,,,,,,,,,,,,,,,,,,,,,,,,,,,,,,,,,,,s,5.552999973,UNS,FALSE,,,,,,,51,ladrillo,Spanish,Sounds/spa_ladrillo.mp3,2020-06-05_16h24.49.615,TranslationElicitation_eng-prolific,3.2.4,MacIntel,60,5b1ec77744127b0001400ec0,,1,0,98,47,1,97
,,,,,,,,,,,,,,,,,,,,,,,,,,,,,,,,,,,,,,,,,u,5.619999886,UNSU,FALSE,,,,,,,51,ladrillo,Spanish,Sounds/spa_ladrillo.mp3,2020-06-05_16h24.49.615,TranslationElicitation_eng-prolific,3.2.4,MacIntel,60,5b1ec77744127b0001400ec0,,1,0,98,47,1,97
,,,,,,,,,,,,,,,,,,,,,,,,,,,,,,,,,,,,,,,,,r,5.71999979,UNSUR,FALSE,,,,,,,51,ladrillo,Spanish,Sounds/spa_ladrillo.mp3,2020-06-05_16h24.49.615,TranslationElicitation_eng-prolific,3.2.4,MacIntel,60,5b1ec77744127b0001400ec0,,1,0,98,47,1,97
,,,,,,,,,,,,,,,,,,,,,,,,,,,,,,,,,,,,,,,,,e,5.768999815,UNSURE,FALSE,,,,,,,51,ladrillo,Spanish,Sounds/spa_ladrillo.mp3,2020-06-05_16h24.49.615,TranslationElicitation_eng-prolific,3.2.4,MacIntel,60,5b1ec77744127b0001400ec0,,1,0,98,47,1,97
,,,,,,,,,,,,,,,,,,,,,,,,,,,,,,,,,,,,,,,,,return,5.902999878,UNSURE,FALSE,,,,,,,51,ladrillo,Spanish,Sounds/spa_ladrillo.mp3,2020-06-05_16h24.49.615,TranslationElicitation_eng-prolific,3.2.4,MacIntel,60,5b1ec77744127b0001400ec0,5.902999878,1,0,98,47,1,97
,,,,,,,,,,,,,,,,,,,,,,,,,,,,,,,,,,,,,,,,,,,,,,,,,,,51,ladrillo,Spanish,Sounds/spa_ladrillo.mp3,2020-06-05_16h24.49.615,TranslationElicitation_eng-prolific,3.2.4,MacIntel,60,5b1ec77744127b0001400ec0,,1,0,98,47,1,97
,,,,,,,,,,,,,,,,,,,,,,,,,,,,,,,,,,,,,,,,,g,3.25999999,G,FALSE,,,,,,,46,grifo,Spanish,Sounds/spa_grifo.mp3,2020-06-05_16h24.49.615,TranslationElicitation_eng-prolific,3.2.4,MacIntel,60,5b1ec77744127b0001400ec0,,1,0,98,42,1,97
,,,,,,,,,,,,,,,,,,,,,,,,,,,,,,,,,,,,,,,,,r,3.526000023,GR,FALSE,,,,,,,46,grifo,Spanish,Sounds/spa_grifo.mp3,2020-06-05_16h24.49.615,TranslationElicitation_eng-prolific,3.2.4,MacIntel,60,5b1ec77744127b0001400ec0,,1,0,98,42,1,97
,,,,,,,,,,,,,,,,,,,,,,,,,,,,,,,,,,,,,,,,,e,3.707999945,GRE,FALSE,,,,,,,46,grifo,Spanish,Sounds/spa_grifo.mp3,2020-06-05_16h24.49.615,TranslationElicitation_eng-prolific,3.2.4,MacIntel,60,5b1ec77744127b0001400ec0,,1,0,98,42,1,97
,,,,,,,,,,,,,,,,,,,,,,,,,,,,,,,,,,,,,,,,,e,3.808000088,GREE,FALSE,,,,,,,46,grifo,Spanish,Sounds/spa_grifo.mp3,2020-06-05_16h24.49.615,TranslationElicitation_eng-prolific,3.2.4,MacIntel,60,5b1ec77744127b0001400ec0,,1,0,98,42,1,97
,,,,,,,,,,,,,,,,,,,,,,,,,,,,,,,,,,,,,,,,,t,4.089999914,GREET,FALSE,,,,,,,46,grifo,Spanish,Sounds/spa_grifo.mp3,2020-06-05_16h24.49.615,TranslationElicitation_eng-prolific,3.2.4,MacIntel,60,5b1ec77744127b0001400ec0,,1,0,98,42,1,97
,,,,,,,,,,,,,,,,,,,,,,,,,,,,,,,,,,,,,,,,,i,4.174000025,GREETI,FALSE,,,,,,,46,grifo,Spanish,Sounds/spa_grifo.mp3,2020-06-05_16h24.49.615,TranslationElicitation_eng-prolific,3.2.4,MacIntel,60,5b1ec77744127b0001400ec0,,1,0,98,42,1,97
,,,,,,,,,,,,,,,,,,,,,,,,,,,,,,,,,,,,,,,,,n,4.240999937,GREETIN,FALSE,,,,,,,46,grifo,Spanish,Sounds/spa_grifo.mp3,2020-06-05_16h24.49.615,TranslationElicitation_eng-prolific,3.2.4,MacIntel,60,5b1ec77744127b0001400ec0,,1,0,98,42,1,97
,,,,,,,,,,,,,,,,,,,,,,,,,,,,,,,,,,,,,,,,,g,4.374000072,GREETING,FALSE,,,,,,,46,grifo,Spanish,Sounds/spa_grifo.mp3,2020-06-05_16h24.49.615,TranslationElicitation_eng-prolific,3.2.4,MacIntel,60,5b1ec77744127b0001400ec0,,1,0,98,42,1,97
,,,,,,,,,,,,,,,,,,,,,,,,,,,,,,,,,,,,,,,,,return,4.556999922,GREETING,FALSE,,,,,,,46,grifo,Spanish,Sounds/spa_grifo.mp3,2020-06-05_16h24.49.615,TranslationElicitation_eng-prolific,3.2.4,MacIntel,60,5b1ec77744127b0001400ec0,4.556999922,1,0,98,42,1,97
,,,,,,,,,,,,,,,,,,,,,,,,,,,,,,,,,,,,,,,,,,,,,,,,,,,46,grifo,Spanish,Sounds/spa_grifo.mp3,2020-06-05_16h24.49.615,TranslationElicitation_eng-prolific,3.2.4,MacIntel,60,5b1ec77744127b0001400ec0,,1,0,98,42,1,97
,,,,,,,,,,,,,,,,,,,,,,,,,,,,,,,,,,,,,,,,,p,3.857999802,P,FALSE,,,,,,,48,gusano,Spanish,Sounds/spa_gusano.mp3,2020-06-05_16h24.49.615,TranslationElicitation_eng-prolific,3.2.4,MacIntel,60,5b1ec77744127b0001400ec0,,1,0,98,44,1,97
,,,,,,,,,,,,,,,,,,,,,,,,,,,,,,,,,,,,,,,,,u,4.023999929,PU,FALSE,,,,,,,48,gusano,Spanish,Sounds/spa_gusano.mp3,2020-06-05_16h24.49.615,TranslationElicitation_eng-prolific,3.2.4,MacIntel,60,5b1ec77744127b0001400ec0,,1,0,98,44,1,97
,,,,,,,,,,,,,,,,,,,,,,,,,,,,,,,,,,,,,,,,,s,4.090999842,PUS,FALSE,,,,,,,48,gusano,Spanish,Sounds/spa_gusano.mp3,2020-06-05_16h24.49.615,TranslationElicitation_eng-prolific,3.2.4,MacIntel,60,5b1ec77744127b0001400ec0,,1,0,98,44,1,97
,,,,,,,,,,,,,,,,,,,,,,,,,,,,,,,,,,,,,,,,,h,4.156999826,PUSH,FALSE,,,,,,,48,gusano,Spanish,Sounds/spa_gusano.mp3,2020-06-05_16h24.49.615,TranslationElicitation_eng-prolific,3.2.4,MacIntel,60,5b1ec77744127b0001400ec0,,1,0,98,44,1,97
,,,,,,,,,,,,,,,,,,,,,,,,,,,,,,,,,,,,,,,,,return,4.472999811,PUSH,FALSE,,,,,,,48,gusano,Spanish,Sounds/spa_gusano.mp3,2020-06-05_16h24.49.615,TranslationElicitation_eng-prolific,3.2.4,MacIntel,60,5b1ec77744127b0001400ec0,4.472999811,1,0,98,44,1,97
,,,,,,,,,,,,,,,,,,,,,,,,,,,,,,,,,,,,,,,,,,,,,,,,,,,48,gusano,Spanish,Sounds/spa_gusano.mp3,2020-06-05_16h24.49.615,TranslationElicitation_eng-prolific,3.2.4,MacIntel,60,5b1ec77744127b0001400ec0,,1,0,98,44,1,97
,,,,,,,,,,,,,,,,,,,,,,,,,,,,,,,,,,,,,,,,,l,1.846000195,L,FALSE,,,,,,,87,platano,Spanish,Sounds/spa_platano.mp3,2020-06-05_16h24.49.615,TranslationElicitation_eng-prolific,3.2.4,MacIntel,60,5b1ec77744127b0001400ec0,,1,0,98,82,1,97
,,,,,,,,,,,,,,,,,,,,,,,,,,,,,,,,,,,,,,,,,a,1.913000107,LA,FALSE,,,,,,,87,platano,Spanish,Sounds/spa_platano.mp3,2020-06-05_16h24.49.615,TranslationElicitation_eng-prolific,3.2.4,MacIntel,60,5b1ec77744127b0001400ec0,,1,0,98,82,1,97
,,,,,,,,,,,,,,,,,,,,,,,,,,,,,,,,,,,,,,,,,t,2.062000036,LAT,FALSE,,,,,,,87,platano,Spanish,Sounds/spa_platano.mp3,2020-06-05_16h24.49.615,TranslationElicitation_eng-prolific,3.2.4,MacIntel,60,5b1ec77744127b0001400ec0,,1,0,98,82,1,97
,,,,,,,,,,,,,,,,,,,,,,,,,,,,,,,,,,,,,,,,,e,2.179000139,LATE,FALSE,,,,,,,87,platano,Spanish,Sounds/spa_platano.mp3,2020-06-05_16h24.49.615,TranslationElicitation_eng-prolific,3.2.4,MacIntel,60,5b1ec77744127b0001400ec0,,1,0,98,82,1,97
,,,,,,,,,,,,,,,,,,,,,,,,,,,,,,,,,,,,,,,,,r,2.278000116,LATER,FALSE,,,,,,,87,platano,Spanish,Sounds/spa_platano.mp3,2020-06-05_16h24.49.615,TranslationElicitation_eng-prolific,3.2.4,MacIntel,60,5b1ec77744127b0001400ec0,,1,0,98,82,1,97
,,,,,,,,,,,,,,,,,,,,,,,,,,,,,,,,,,,,,,,,,return,2.345000029,LATER,FALSE,,,,,,,87,platano,Spanish,Sounds/spa_platano.mp3,2020-06-05_16h24.49.615,TranslationElicitation_eng-prolific,3.2.4,MacIntel,60,5b1ec77744127b0001400ec0,2.345000029,1,0,98,82,1,97
,,,,,,,,,,,,,,,,,,,,,,,,,,,,,,,,,,,,,,,,,,,,,,,,,,,87,platano,Spanish,Sounds/spa_platano.mp3,2020-06-05_16h24.49.615,TranslationElicitation_eng-prolific,3.2.4,MacIntel,60,5b1ec77744127b0001400ec0,,1,0,98,82,1,97
,,,,,,,,,,,,,,,,,,,,,,,,,,,,,,,,,,,,,,,,,f,3.141000032,F,FALSE,,,,,,,38,frambuesa,Spanish,Sounds/spa_frambuesa.mp3,2020-06-05_16h24.49.615,TranslationElicitation_eng-prolific,3.2.4,MacIntel,60,5b1ec77744127b0001400ec0,,1,0,98,34,1,97
,,,,,,,,,,,,,,,,,,,,,,,,,,,,,,,,,,,,,,,,,l,3.207999945,FL,FALSE,,,,,,,38,frambuesa,Spanish,Sounds/spa_frambuesa.mp3,2020-06-05_16h24.49.615,TranslationElicitation_eng-prolific,3.2.4,MacIntel,60,5b1ec77744127b0001400ec0,,1,0,98,34,1,97
,,,,,,,,,,,,,,,,,,,,,,,,,,,,,,,,,,,,,,,,,a,3.307999849,FLA,FALSE,,,,,,,38,frambuesa,Spanish,Sounds/spa_frambuesa.mp3,2020-06-05_16h24.49.615,TranslationElicitation_eng-prolific,3.2.4,MacIntel,60,5b1ec77744127b0001400ec0,,1,0,98,34,1,97
,,,,,,,,,,,,,,,,,,,,,,,,,,,,,,,,,,,,,,,,,m,3.35800004,FLAM,FALSE,,,,,,,38,frambuesa,Spanish,Sounds/spa_frambuesa.mp3,2020-06-05_16h24.49.615,TranslationElicitation_eng-prolific,3.2.4,MacIntel,60,5b1ec77744127b0001400ec0,,1,0,98,34,1,97
,,,,,,,,,,,,,,,,,,,,,,,,,,,,,,,,,,,,,,,,,e,3.506999969,FLAME,FALSE,,,,,,,38,frambuesa,Spanish,Sounds/spa_frambuesa.mp3,2020-06-05_16h24.49.615,TranslationElicitation_eng-prolific,3.2.4,MacIntel,60,5b1ec77744127b0001400ec0,,1,0,98,34,1,97
,,,,,,,,,,,,,,,,,,,,,,,,,,,,,,,,,,,,,,,,,return,3.623999834,FLAME,FALSE,,,,,,,38,frambuesa,Spanish,Sounds/spa_frambuesa.mp3,2020-06-05_16h24.49.615,TranslationElicitation_eng-prolific,3.2.4,MacIntel,60,5b1ec77744127b0001400ec0,3.623999834,1,0,98,34,1,97
,,,,,,,,,,,,,,,,,,,,,,,,,,,,,,,,,,,,,,,,,,,,,,,,,,,38,frambuesa,Spanish,Sounds/spa_frambuesa.mp3,2020-06-05_16h24.49.615,TranslationElicitation_eng-prolific,3.2.4,MacIntel,60,5b1ec77744127b0001400ec0,,1,0,98,34,1,97
,,,,,,,,,,,,,,,,,,,,,,,,,,,,,,,,,,,,,,,,,p,1.281000137,P,FALSE,,,,,,,75,pan,Spanish,Sounds/spa_pan.mp3,2020-06-05_16h24.49.615,TranslationElicitation_eng-prolific,3.2.4,MacIntel,60,5b1ec77744127b0001400ec0,,1,0,98,70,1,97
,,,,,,,,,,,,,,,,,,,,,,,,,,,,,,,,,,,,,,,,,a,1.381000042,PA,FALSE,,,,,,,75,pan,Spanish,Sounds/spa_pan.mp3,2020-06-05_16h24.49.615,TranslationElicitation_eng-prolific,3.2.4,MacIntel,60,5b1ec77744127b0001400ec0,,1,0,98,70,1,97
,,,,,,,,,,,,,,,,,,,,,,,,,,,,,,,,,,,,,,,,,n,1.464000225,PAN,FALSE,,,,,,,75,pan,Spanish,Sounds/spa_pan.mp3,2020-06-05_16h24.49.615,TranslationElicitation_eng-prolific,3.2.4,MacIntel,60,5b1ec77744127b0001400ec0,,1,0,98,70,1,97
,,,,,,,,,,,,,,,,,,,,,,,,,,,,,,,,,,,,,,,,,return,1.631000042,PAN,FALSE,,,,,,,75,pan,Spanish,Sounds/spa_pan.mp3,2020-06-05_16h24.49.615,TranslationElicitation_eng-prolific,3.2.4,MacIntel,60,5b1ec77744127b0001400ec0,1.631000042,1,0,98,70,1,97
,,,,,,,,,,,,,,,,,,,,,,,,,,,,,,,,,,,,,,,,,,,,,,,,,,,75,pan,Spanish,Sounds/spa_pan.mp3,2020-06-05_16h24.49.615,TranslationElicitation_eng-prolific,3.2.4,MacIntel,60,5b1ec77744127b0001400ec0,,1,0,98,70,1,97
,,,,,,,,,,,,,,,,,,,,,,,,,,,,,,,,,,,,,,,,,s,3.725000143,S,FALSE,,,,,,,39,gafas,Spanish,Sounds/spa_gafas.mp3,2020-06-05_16h24.49.615,TranslationElicitation_eng-prolific,3.2.4,MacIntel,60,5b1ec77744127b0001400ec0,,1,0,98,35,1,97
,,,,,,,,,,,,,,,,,,,,,,,,,,,,,,,,,,,,,,,,,h,3.791000128,SH,FALSE,,,,,,,39,gafas,Spanish,Sounds/spa_gafas.mp3,2020-06-05_16h24.49.615,TranslationElicitation_eng-prolific,3.2.4,MacIntel,60,5b1ec77744127b0001400ec0,,1,0,98,35,1,97
,,,,,,,,,,,,,,,,,,,,,,,,,,,,,,,,,,,,,,,,,a,4.223999977,SHA,FALSE,,,,,,,39,gafas,Spanish,Sounds/spa_gafas.mp3,2020-06-05_16h24.49.615,TranslationElicitation_eng-prolific,3.2.4,MacIntel,60,5b1ec77744127b0001400ec0,,1,0,98,35,1,97
,,,,,,,,,,,,,,,,,,,,,,,,,,,,,,,,,,,,,,,,,r,4.45600009,SHAR,FALSE,,,,,,,39,gafas,Spanish,Sounds/spa_gafas.mp3,2020-06-05_16h24.49.615,TranslationElicitation_eng-prolific,3.2.4,MacIntel,60,5b1ec77744127b0001400ec0,,1,0,98,35,1,97
,,,,,,,,,,,,,,,,,,,,,,,,,,,,,,,,,,,,,,,,,e,4.539000034,SHARE,FALSE,,,,,,,39,gafas,Spanish,Sounds/spa_gafas.mp3,2020-06-05_16h24.49.615,TranslationElicitation_eng-prolific,3.2.4,MacIntel,60,5b1ec77744127b0001400ec0,,1,0,98,35,1,97
,,,,,,,,,,,,,,,,,,,,,,,,,,,,,,,,,,,,,,,,,return,4.70600009,SHARE,FALSE,,,,,,,39,gafas,Spanish,Sounds/spa_gafas.mp3,2020-06-05_16h24.49.615,TranslationElicitation_eng-prolific,3.2.4,MacIntel,60,5b1ec77744127b0001400ec0,4.70600009,1,0,98,35,1,97
