consentKey.keys,consentKey.rt,languageL1Key.keys,languageL1Key.rt,languageL2,languageL2OralKey.keys,languageL2OralKey.rt,languageL2WrittenKey.keys,languageL2WrittenKey.rt,languageL3OralKey.keys,languageL3OralKey.rt,languageL3WrittenKey.keys,languageL3WrittenKey.rt,languageCatalanOralKey.keys,languageCatalanOralKey.rt,languageCatalanWrittenKey.keys,languageCatalanWrittenKey.rt,languageCatalanTimeKey.keys,languageCatalanTimeKey.rt,languageSpanishOralKey.keys,languageSpanishOralKey.rt,languageSpanishWrittenKey.keys,languageSpanishWrittenKey.rt,languageSpanishTimeKey.keys,languageSpanishTimeKey.rt,age,demoSexKey.keys,demoSexKey.rt,demoEducationKey.keys,demoEducationKey.rt,city,demoVisionKey.keys,demoVisionKey.rt,demoLanguageKey.keys,demoLanguageKey.rt,setupLocationKey.keys,setupLocationKey.rt,setupNoiseKey.keys,setupNoiseKey.rt,instructionsKeys.keys,instructionsKeys.rt,keyPressed,keyPressTime,inputText,error,trialsPracticeSpanish.thisRepN,trialsPracticeSpanish.thisTrialN,trialsPracticeSpanish.thisN,trialsPracticeSpanish.thisIndex,trialsPracticeSpanish.ran,trialsPracticeSpanish.order,trial_id,word,test_language,soundfile,date,expName,psychopyVersion,OS,frameRate,participant,trialOffset,trialsSpanish.thisRepN,trialsSpanish.thisTrialN,trialsSpanish.thisN,trialsSpanish.thisIndex,trialsSpanish.ran,trialsSpanish.order
space,4.95600009,e,5.115000248,,,,,,,,,,1,6.686000109,1,4.17200017,1,38.06100011,2,7.565000296,2,10.07000017,1,7.039000273,23,m,2.004000187,4,7.281000376,LONDON,y,2.688000202,n,2.906000137,1,4.346000195,1,8.955000162,space,22.3130002,c,4.09800005,C,FALSE,1,0,5,2,1,4,26,chaqueta,Spanish,Sounds/spa_chaqueta.mp3,2020-06-05_12h50.08.756,TranslationElicitation_eng-prolific,3.2.4,MacIntel,60,5b6f4c673abd820001d6f637,,,,,,,
,,,,,,,,,,,,,,,,,,,,,,,,,,,,,,,,,,,,,,,,,h,4.219000101,CH,FALSE,1,0,5,2,1,4,26,chaqueta,Spanish,Sounds/spa_chaqueta.mp3,2020-06-05_12h50.08.756,TranslationElicitation_eng-prolific,3.2.4,MacIntel,60,5b6f4c673abd820001d6f637,,,,,,,
,,,,,,,,,,,,,,,,,,,,,,,,,,,,,,,,,,,,,,,,,e,4.431999922,CHE,FALSE,1,0,5,2,1,4,26,chaqueta,Spanish,Sounds/spa_chaqueta.mp3,2020-06-05_12h50.08.756,TranslationElicitation_eng-prolific,3.2.4,MacIntel,60,5b6f4c673abd820001d6f637,,,,,,,
,,,,,,,,,,,,,,,,,,,,,,,,,,,,,,,,,,,,,,,,,e,4.582000017,CHEE,FALSE,1,0,5,2,1,4,26,chaqueta,Spanish,Sounds/spa_chaqueta.mp3,2020-06-05_12h50.08.756,TranslationElicitation_eng-prolific,3.2.4,MacIntel,60,5b6f4c673abd820001d6f637,,,,,,,
,,,,,,,,,,,,,,,,,,,,,,,,,,,,,,,,,,,,,,,,,s,4.780999899,CHEES,FALSE,1,0,5,2,1,4,26,chaqueta,Spanish,Sounds/spa_chaqueta.mp3,2020-06-05_12h50.08.756,TranslationElicitation_eng-prolific,3.2.4,MacIntel,60,5b6f4c673abd820001d6f637,,,,,,,
,,,,,,,,,,,,,,,,,,,,,,,,,,,,,,,,,,,,,,,,,e,4.914999962,CHEESE,FALSE,1,0,5,2,1,4,26,chaqueta,Spanish,Sounds/spa_chaqueta.mp3,2020-06-05_12h50.08.756,TranslationElicitation_eng-prolific,3.2.4,MacIntel,60,5b6f4c673abd820001d6f637,,,,,,,
,,,,,,,,,,,,,,,,,,,,,,,,,,,,,,,,,,,,,,,,,return,5.641000032,CHEESE,FALSE,1,0,5,2,1,4,26,chaqueta,Spanish,Sounds/spa_chaqueta.mp3,2020-06-05_12h50.08.756,TranslationElicitation_eng-prolific,3.2.4,MacIntel,60,5b6f4c673abd820001d6f637,5.641000032,,,,,,
,,,,,,,,,,,,,,,,,,,,,,,,,,,,,,,,,,,,,,,,,,,,,1,0,5,2,1,4,26,chaqueta,Spanish,Sounds/spa_chaqueta.mp3,2020-06-05_12h50.08.756,TranslationElicitation_eng-prolific,3.2.4,MacIntel,60,5b6f4c673abd820001d6f637,,,,,,,
,,,,,,,,,,,,,,,,,,,,,,,,,,,,,,,,,,,,,,,,,h,5.31799984,H,FALSE,1,0,5,0,1,4,1,arbol,Spanish,Sounds/spa_arbol.mp3,2020-06-05_12h50.08.756,TranslationElicitation_eng-prolific,3.2.4,MacIntel,60,5b6f4c673abd820001d6f637,,,,,,,
,,,,,,,,,,,,,,,,,,,,,,,,,,,,,,,,,,,,,,,,,a,5.44299984,HA,FALSE,1,0,5,0,1,4,1,arbol,Spanish,Sounds/spa_arbol.mp3,2020-06-05_12h50.08.756,TranslationElicitation_eng-prolific,3.2.4,MacIntel,60,5b6f4c673abd820001d6f637,,,,,,,
,,,,,,,,,,,,,,,,,,,,,,,,,,,,,,,,,,,,,,,,,l,6.215999842,HAL,FALSE,1,0,5,0,1,4,1,arbol,Spanish,Sounds/spa_arbol.mp3,2020-06-05_12h50.08.756,TranslationElicitation_eng-prolific,3.2.4,MacIntel,60,5b6f4c673abd820001d6f637,,,,,,,
,,,,,,,,,,,,,,,,,,,,,,,,,,,,,,,,,,,,,,,,,l,6.29399991,HALL,FALSE,1,0,5,0,1,4,1,arbol,Spanish,Sounds/spa_arbol.mp3,2020-06-05_12h50.08.756,TranslationElicitation_eng-prolific,3.2.4,MacIntel,60,5b6f4c673abd820001d6f637,,,,,,,
,,,,,,,,,,,,,,,,,,,,,,,,,,,,,,,,,,,,,,,,,return,6.717000008,HALL,FALSE,1,0,5,0,1,4,1,arbol,Spanish,Sounds/spa_arbol.mp3,2020-06-05_12h50.08.756,TranslationElicitation_eng-prolific,3.2.4,MacIntel,60,5b6f4c673abd820001d6f637,6.717000008,,,,,,
,,,,,,,,,,,,,,,,,,,,,,,,,,,,,,,,,,,,,,,,,,,,,1,0,5,0,1,4,1,arbol,Spanish,Sounds/spa_arbol.mp3,2020-06-05_12h50.08.756,TranslationElicitation_eng-prolific,3.2.4,MacIntel,60,5b6f4c673abd820001d6f637,,,,,,,
,,,,,,,,,,,,,,,,,,,,,,,,,,,,,,,,,,,,,,,,,b,2.447000027,B,FALSE,1,0,5,1,1,4,30,corona,Spanish,Sounds/spa_corona.mp3,2020-06-05_12h50.08.756,TranslationElicitation_eng-prolific,3.2.4,MacIntel,60,5b6f4c673abd820001d6f637,,,,,,,
,,,,,,,,,,,,,,,,,,,,,,,,,,,,,,,,,,,,,,,,,e,2.569999933,BE,FALSE,1,0,5,1,1,4,30,corona,Spanish,Sounds/spa_corona.mp3,2020-06-05_12h50.08.756,TranslationElicitation_eng-prolific,3.2.4,MacIntel,60,5b6f4c673abd820001d6f637,,,,,,,
,,,,,,,,,,,,,,,,,,,,,,,,,,,,,,,,,,,,,,,,,e,2.733999968,BEE,FALSE,1,0,5,1,1,4,30,corona,Spanish,Sounds/spa_corona.mp3,2020-06-05_12h50.08.756,TranslationElicitation_eng-prolific,3.2.4,MacIntel,60,5b6f4c673abd820001d6f637,,,,,,,
,,,,,,,,,,,,,,,,,,,,,,,,,,,,,,,,,,,,,,,,,r,2.930999994,BEER,FALSE,1,0,5,1,1,4,30,corona,Spanish,Sounds/spa_corona.mp3,2020-06-05_12h50.08.756,TranslationElicitation_eng-prolific,3.2.4,MacIntel,60,5b6f4c673abd820001d6f637,,,,,,,
,,,,,,,,,,,,,,,,,,,,,,,,,,,,,,,,,,,,,,,,,return,3.312999964,BEER,FALSE,1,0,5,1,1,4,30,corona,Spanish,Sounds/spa_corona.mp3,2020-06-05_12h50.08.756,TranslationElicitation_eng-prolific,3.2.4,MacIntel,60,5b6f4c673abd820001d6f637,3.312999964,,,,,,
,,,,,,,,,,,,,,,,,,,,,,,,,,,,,,,,,,,,,,,,,,,,,1,0,5,1,1,4,30,corona,Spanish,Sounds/spa_corona.mp3,2020-06-05_12h50.08.756,TranslationElicitation_eng-prolific,3.2.4,MacIntel,60,5b6f4c673abd820001d6f637,,,,,,,
,,,,,,,,,,,,,,,,,,,,,,,,,,,,,,,,,,,,,,,,,t,1.911000013,T,FALSE,1,0,5,4,1,4,96,tigre,Spanish,Sounds/spa_tigre.mp3,2020-06-05_12h50.08.756,TranslationElicitation_eng-prolific,3.2.4,MacIntel,60,5b6f4c673abd820001d6f637,,,,,,,
,,,,,,,,,,,,,,,,,,,,,,,,,,,,,,,,,,,,,,,,,i,1.986000061,TI,FALSE,1,0,5,4,1,4,96,tigre,Spanish,Sounds/spa_tigre.mp3,2020-06-05_12h50.08.756,TranslationElicitation_eng-prolific,3.2.4,MacIntel,60,5b6f4c673abd820001d6f637,,,,,,,
,,,,,,,,,,,,,,,,,,,,,,,,,,,,,,,,,,,,,,,,,g,2.055000067,TIG,FALSE,1,0,5,4,1,4,96,tigre,Spanish,Sounds/spa_tigre.mp3,2020-06-05_12h50.08.756,TranslationElicitation_eng-prolific,3.2.4,MacIntel,60,5b6f4c673abd820001d6f637,,,,,,,
,,,,,,,,,,,,,,,,,,,,,,,,,,,,,,,,,,,,,,,,,e,2.292999983,TIGE,FALSE,1,0,5,4,1,4,96,tigre,Spanish,Sounds/spa_tigre.mp3,2020-06-05_12h50.08.756,TranslationElicitation_eng-prolific,3.2.4,MacIntel,60,5b6f4c673abd820001d6f637,,,,,,,
,,,,,,,,,,,,,,,,,,,,,,,,,,,,,,,,,,,,,,,,,r,2.413000107,TIGER,FALSE,1,0,5,4,1,4,96,tigre,Spanish,Sounds/spa_tigre.mp3,2020-06-05_12h50.08.756,TranslationElicitation_eng-prolific,3.2.4,MacIntel,60,5b6f4c673abd820001d6f637,,,,,,,
,,,,,,,,,,,,,,,,,,,,,,,,,,,,,,,,,,,,,,,,,return,2.653000116,TIGER,FALSE,1,0,5,4,1,4,96,tigre,Spanish,Sounds/spa_tigre.mp3,2020-06-05_12h50.08.756,TranslationElicitation_eng-prolific,3.2.4,MacIntel,60,5b6f4c673abd820001d6f637,2.653000116,,,,,,
,,,,,,,,,,,,,,,,,,,,,,,,,,,,,,,,,,,,,,,,,,,,,1,0,5,4,1,4,96,tigre,Spanish,Sounds/spa_tigre.mp3,2020-06-05_12h50.08.756,TranslationElicitation_eng-prolific,3.2.4,MacIntel,60,5b6f4c673abd820001d6f637,,,,,,,
,,,,,,,,,,,,,,,,,,,,,,,,,,,,,,,,,,,,,,,,,h,1.623000145,H,FALSE,1,0,5,3,1,4,70,ola,Spanish,Sounds/spa_ola.mp3,2020-06-05_12h50.08.756,TranslationElicitation_eng-prolific,3.2.4,MacIntel,60,5b6f4c673abd820001d6f637,,,,,,,
,,,,,,,,,,,,,,,,,,,,,,,,,,,,,,,,,,,,,,,,,e,1.861999989,HE,FALSE,1,0,5,3,1,4,70,ola,Spanish,Sounds/spa_ola.mp3,2020-06-05_12h50.08.756,TranslationElicitation_eng-prolific,3.2.4,MacIntel,60,5b6f4c673abd820001d6f637,,,,,,,
,,,,,,,,,,,,,,,,,,,,,,,,,,,,,,,,,,,,,,,,,l,2.028000116,HEL,FALSE,1,0,5,3,1,4,70,ola,Spanish,Sounds/spa_ola.mp3,2020-06-05_12h50.08.756,TranslationElicitation_eng-prolific,3.2.4,MacIntel,60,5b6f4c673abd820001d6f637,,,,,,,
,,,,,,,,,,,,,,,,,,,,,,,,,,,,,,,,,,,,,,,,,l,2.203999996,HELL,FALSE,1,0,5,3,1,4,70,ola,Spanish,Sounds/spa_ola.mp3,2020-06-05_12h50.08.756,TranslationElicitation_eng-prolific,3.2.4,MacIntel,60,5b6f4c673abd820001d6f637,,,,,,,
,,,,,,,,,,,,,,,,,,,,,,,,,,,,,,,,,,,,,,,,,o,2.310000181,HELLO,FALSE,1,0,5,3,1,4,70,ola,Spanish,Sounds/spa_ola.mp3,2020-06-05_12h50.08.756,TranslationElicitation_eng-prolific,3.2.4,MacIntel,60,5b6f4c673abd820001d6f637,,,,,,,
,,,,,,,,,,,,,,,,,,,,,,,,,,,,,,,,,,,,,,,,,return,2.592000008,HELLO,FALSE,1,0,5,3,1,4,70,ola,Spanish,Sounds/spa_ola.mp3,2020-06-05_12h50.08.756,TranslationElicitation_eng-prolific,3.2.4,MacIntel,60,5b6f4c673abd820001d6f637,2.592000008,,,,,,
,,,,,,,,,,,,,,,,,,,,,,,,,,,,,,,,,,,,,,,,,,,,,1,0,5,3,1,4,70,ola,Spanish,Sounds/spa_ola.mp3,2020-06-05_12h50.08.756,TranslationElicitation_eng-prolific,3.2.4,MacIntel,60,5b6f4c673abd820001d6f637,,,,,,,
,,,,,,,,,,,,,,,,,,,,,,,,,,,,,,,,,,,,,,,,,a,1.778000116,A,FALSE,,,,,,,60,manzana,Spanish,Sounds/spa_manzana.mp3,2020-06-05_12h50.08.756,TranslationElicitation_eng-prolific,3.2.4,MacIntel,60,5b6f4c673abd820001d6f637,,1,0,98,56,1,97
,,,,,,,,,,,,,,,,,,,,,,,,,,,,,,,,,,,,,,,,,p,1.950000048,AP,FALSE,,,,,,,60,manzana,Spanish,Sounds/spa_manzana.mp3,2020-06-05_12h50.08.756,TranslationElicitation_eng-prolific,3.2.4,MacIntel,60,5b6f4c673abd820001d6f637,,1,0,98,56,1,97
,,,,,,,,,,,,,,,,,,,,,,,,,,,,,,,,,,,,,,,,,p,2.082000017,APP,FALSE,,,,,,,60,manzana,Spanish,Sounds/spa_manzana.mp3,2020-06-05_12h50.08.756,TranslationElicitation_eng-prolific,3.2.4,MacIntel,60,5b6f4c673abd820001d6f637,,1,0,98,56,1,97
,,,,,,,,,,,,,,,,,,,,,,,,,,,,,,,,,,,,,,,,,l,2.167999983,APPL,FALSE,,,,,,,60,manzana,Spanish,Sounds/spa_manzana.mp3,2020-06-05_12h50.08.756,TranslationElicitation_eng-prolific,3.2.4,MacIntel,60,5b6f4c673abd820001d6f637,,1,0,98,56,1,97
,,,,,,,,,,,,,,,,,,,,,,,,,,,,,,,,,,,,,,,,,e,2.312000036,APPLE,FALSE,,,,,,,60,manzana,Spanish,Sounds/spa_manzana.mp3,2020-06-05_12h50.08.756,TranslationElicitation_eng-prolific,3.2.4,MacIntel,60,5b6f4c673abd820001d6f637,,1,0,98,56,1,97
,,,,,,,,,,,,,,,,,,,,,,,,,,,,,,,,,,,,,,,,,return,2.89199996,APPLE,FALSE,,,,,,,60,manzana,Spanish,Sounds/spa_manzana.mp3,2020-06-05_12h50.08.756,TranslationElicitation_eng-prolific,3.2.4,MacIntel,60,5b6f4c673abd820001d6f637,2.89199996,1,0,98,56,1,97
,,,,,,,,,,,,,,,,,,,,,,,,,,,,,,,,,,,,,,,,,,,,,,,,,,,60,manzana,Spanish,Sounds/spa_manzana.mp3,2020-06-05_12h50.08.756,TranslationElicitation_eng-prolific,3.2.4,MacIntel,60,5b6f4c673abd820001d6f637,,1,0,98,56,1,97
,,,,,,,,,,,,,,,,,,,,,,,,,,,,,,,,,,,,,,,,,h,2.01699996,H,FALSE,,,,,,,15,caballo,Spanish,Sounds/spa_caballo.mp3,2020-06-05_12h50.08.756,TranslationElicitation_eng-prolific,3.2.4,MacIntel,60,5b6f4c673abd820001d6f637,,1,0,98,13,1,97
,,,,,,,,,,,,,,,,,,,,,,,,,,,,,,,,,,,,,,,,,o,2.299000025,HO,FALSE,,,,,,,15,caballo,Spanish,Sounds/spa_caballo.mp3,2020-06-05_12h50.08.756,TranslationElicitation_eng-prolific,3.2.4,MacIntel,60,5b6f4c673abd820001d6f637,,1,0,98,13,1,97
,,,,,,,,,,,,,,,,,,,,,,,,,,,,,,,,,,,,,,,,,r,2.402000189,HOR,FALSE,,,,,,,15,caballo,Spanish,Sounds/spa_caballo.mp3,2020-06-05_12h50.08.756,TranslationElicitation_eng-prolific,3.2.4,MacIntel,60,5b6f4c673abd820001d6f637,,1,0,98,13,1,97
,,,,,,,,,,,,,,,,,,,,,,,,,,,,,,,,,,,,,,,,,s,2.502000093,HORS,FALSE,,,,,,,15,caballo,Spanish,Sounds/spa_caballo.mp3,2020-06-05_12h50.08.756,TranslationElicitation_eng-prolific,3.2.4,MacIntel,60,5b6f4c673abd820001d6f637,,1,0,98,13,1,97
,,,,,,,,,,,,,,,,,,,,,,,,,,,,,,,,,,,,,,,,,e,2.653000116,HORSE,FALSE,,,,,,,15,caballo,Spanish,Sounds/spa_caballo.mp3,2020-06-05_12h50.08.756,TranslationElicitation_eng-prolific,3.2.4,MacIntel,60,5b6f4c673abd820001d6f637,,1,0,98,13,1,97
,,,,,,,,,,,,,,,,,,,,,,,,,,,,,,,,,,,,,,,,,return,2.881999969,HORSE,FALSE,,,,,,,15,caballo,Spanish,Sounds/spa_caballo.mp3,2020-06-05_12h50.08.756,TranslationElicitation_eng-prolific,3.2.4,MacIntel,60,5b6f4c673abd820001d6f637,2.881999969,1,0,98,13,1,97
,,,,,,,,,,,,,,,,,,,,,,,,,,,,,,,,,,,,,,,,,,,,,,,,,,,15,caballo,Spanish,Sounds/spa_caballo.mp3,2020-06-05_12h50.08.756,TranslationElicitation_eng-prolific,3.2.4,MacIntel,60,5b6f4c673abd820001d6f637,,1,0,98,13,1,97
,,,,,,,,,,,,,,,,,,,,,,,,,,,,,,,,,,,,,,,,,l,2.229000092,L,FALSE,,,,,,,71,ombligo,Spanish,Sounds/spa_ombligo.mp3,2020-06-05_12h50.08.756,TranslationElicitation_eng-prolific,3.2.4,MacIntel,60,5b6f4c673abd820001d6f637,,1,0,98,66,1,97
,,,,,,,,,,,,,,,,,,,,,,,,,,,,,,,,,,,,,,,,,a,2.434000015,LA,FALSE,,,,,,,71,ombligo,Spanish,Sounds/spa_ombligo.mp3,2020-06-05_12h50.08.756,TranslationElicitation_eng-prolific,3.2.4,MacIntel,60,5b6f4c673abd820001d6f637,,1,0,98,66,1,97
,,,,,,,,,,,,,,,,,,,,,,,,,,,,,,,,,,,,,,,,,n,2.548000097,LAN,FALSE,,,,,,,71,ombligo,Spanish,Sounds/spa_ombligo.mp3,2020-06-05_12h50.08.756,TranslationElicitation_eng-prolific,3.2.4,MacIntel,60,5b6f4c673abd820001d6f637,,1,0,98,66,1,97
,,,,,,,,,,,,,,,,,,,,,,,,,,,,,,,,,,,,,,,,,g,2.680999994,LANG,FALSE,,,,,,,71,ombligo,Spanish,Sounds/spa_ombligo.mp3,2020-06-05_12h50.08.756,TranslationElicitation_eng-prolific,3.2.4,MacIntel,60,5b6f4c673abd820001d6f637,,1,0,98,66,1,97
,,,,,,,,,,,,,,,,,,,,,,,,,,,,,,,,,,,,,,,,,u,2.76699996,LANGU,FALSE,,,,,,,71,ombligo,Spanish,Sounds/spa_ombligo.mp3,2020-06-05_12h50.08.756,TranslationElicitation_eng-prolific,3.2.4,MacIntel,60,5b6f4c673abd820001d6f637,,1,0,98,66,1,97
,,,,,,,,,,,,,,,,,,,,,,,,,,,,,,,,,,,,,,,,,a,2.871000051,LANGUA,FALSE,,,,,,,71,ombligo,Spanish,Sounds/spa_ombligo.mp3,2020-06-05_12h50.08.756,TranslationElicitation_eng-prolific,3.2.4,MacIntel,60,5b6f4c673abd820001d6f637,,1,0,98,66,1,97
,,,,,,,,,,,,,,,,,,,,,,,,,,,,,,,,,,,,,,,,,g,3.039000034,LANGUAG,FALSE,,,,,,,71,ombligo,Spanish,Sounds/spa_ombligo.mp3,2020-06-05_12h50.08.756,TranslationElicitation_eng-prolific,3.2.4,MacIntel,60,5b6f4c673abd820001d6f637,,1,0,98,66,1,97
,,,,,,,,,,,,,,,,,,,,,,,,,,,,,,,,,,,,,,,,,e,3.236000061,LANGUAGE,FALSE,,,,,,,71,ombligo,Spanish,Sounds/spa_ombligo.mp3,2020-06-05_12h50.08.756,TranslationElicitation_eng-prolific,3.2.4,MacIntel,60,5b6f4c673abd820001d6f637,,1,0,98,66,1,97
,,,,,,,,,,,,,,,,,,,,,,,,,,,,,,,,,,,,,,,,,return,3.44900012,LANGUAGE,FALSE,,,,,,,71,ombligo,Spanish,Sounds/spa_ombligo.mp3,2020-06-05_12h50.08.756,TranslationElicitation_eng-prolific,3.2.4,MacIntel,60,5b6f4c673abd820001d6f637,3.44900012,1,0,98,66,1,97
,,,,,,,,,,,,,,,,,,,,,,,,,,,,,,,,,,,,,,,,,,,,,,,,,,,71,ombligo,Spanish,Sounds/spa_ombligo.mp3,2020-06-05_12h50.08.756,TranslationElicitation_eng-prolific,3.2.4,MacIntel,60,5b6f4c673abd820001d6f637,,1,0,98,66,1,97
,,,,,,,,,,,,,,,,,,,,,,,,,,,,,,,,,,,,,,,,,m,7.335000038,M,FALSE,,,,,,,102,ventana,Spanish,Sounds/spa_ventana.mp3,2020-06-05_12h50.08.756,TranslationElicitation_eng-prolific,3.2.4,MacIntel,60,5b6f4c673abd820001d6f637,,1,0,98,96,1,97
,,,,,,,,,,,,,,,,,,,,,,,,,,,,,,,,,,,,,,,,,o,7.49000001,MO,FALSE,,,,,,,102,ventana,Spanish,Sounds/spa_ventana.mp3,2020-06-05_12h50.08.756,TranslationElicitation_eng-prolific,3.2.4,MacIntel,60,5b6f4c673abd820001d6f637,,1,0,98,96,1,97
,,,,,,,,,,,,,,,,,,,,,,,,,,,,,,,,,,,,,,,,,r,7.601000071,MOR,FALSE,,,,,,,102,ventana,Spanish,Sounds/spa_ventana.mp3,2020-06-05_12h50.08.756,TranslationElicitation_eng-prolific,3.2.4,MacIntel,60,5b6f4c673abd820001d6f637,,1,0,98,96,1,97
,,,,,,,,,,,,,,,,,,,,,,,,,,,,,,,,,,,,,,,,,n,7.677999973,MORN,FALSE,,,,,,,102,ventana,Spanish,Sounds/spa_ventana.mp3,2020-06-05_12h50.08.756,TranslationElicitation_eng-prolific,3.2.4,MacIntel,60,5b6f4c673abd820001d6f637,,1,0,98,96,1,97
,,,,,,,,,,,,,,,,,,,,,,,,,,,,,,,,,,,,,,,,,i,7.789999962,MORNI,FALSE,,,,,,,102,ventana,Spanish,Sounds/spa_ventana.mp3,2020-06-05_12h50.08.756,TranslationElicitation_eng-prolific,3.2.4,MacIntel,60,5b6f4c673abd820001d6f637,,1,0,98,96,1,97
,,,,,,,,,,,,,,,,,,,,,,,,,,,,,,,,,,,,,,,,,n,7.865999937,MORNIN,FALSE,,,,,,,102,ventana,Spanish,Sounds/spa_ventana.mp3,2020-06-05_12h50.08.756,TranslationElicitation_eng-prolific,3.2.4,MacIntel,60,5b6f4c673abd820001d6f637,,1,0,98,96,1,97
,,,,,,,,,,,,,,,,,,,,,,,,,,,,,,,,,,,,,,,,,g,7.970999956,MORNING,FALSE,,,,,,,102,ventana,Spanish,Sounds/spa_ventana.mp3,2020-06-05_12h50.08.756,TranslationElicitation_eng-prolific,3.2.4,MacIntel,60,5b6f4c673abd820001d6f637,,1,0,98,96,1,97
,,,,,,,,,,,,,,,,,,,,,,,,,,,,,,,,,,,,,,,,,return,8.356999874,MORNING,FALSE,,,,,,,102,ventana,Spanish,Sounds/spa_ventana.mp3,2020-06-05_12h50.08.756,TranslationElicitation_eng-prolific,3.2.4,MacIntel,60,5b6f4c673abd820001d6f637,8.356999874,1,0,98,96,1,97
,,,,,,,,,,,,,,,,,,,,,,,,,,,,,,,,,,,,,,,,,,,,,,,,,,,102,ventana,Spanish,Sounds/spa_ventana.mp3,2020-06-05_12h50.08.756,TranslationElicitation_eng-prolific,3.2.4,MacIntel,60,5b6f4c673abd820001d6f637,,1,0,98,96,1,97
,,,,,,,,,,,,,,,,,,,,,,,,,,,,,,,,,,,,,,,,,w,5.229000092,W,FALSE,,,,,,,54,lengua,Spanish,Sounds/spa_lengua.mp3,2020-06-05_12h50.08.756,TranslationElicitation_eng-prolific,3.2.4,MacIntel,60,5b6f4c673abd820001d6f637,,1,0,98,50,1,97
,,,,,,,,,,,,,,,,,,,,,,,,,,,,,,,,,,,,,,,,,o,5.379000187,WO,FALSE,,,,,,,54,lengua,Spanish,Sounds/spa_lengua.mp3,2020-06-05_12h50.08.756,TranslationElicitation_eng-prolific,3.2.4,MacIntel,60,5b6f4c673abd820001d6f637,,1,0,98,50,1,97
,,,,,,,,,,,,,,,,,,,,,,,,,,,,,,,,,,,,,,,,,r,5.443000078,WOR,FALSE,,,,,,,54,lengua,Spanish,Sounds/spa_lengua.mp3,2020-06-05_12h50.08.756,TranslationElicitation_eng-prolific,3.2.4,MacIntel,60,5b6f4c673abd820001d6f637,,1,0,98,50,1,97
,,,,,,,,,,,,,,,,,,,,,,,,,,,,,,,,,,,,,,,,,d,5.624000072,WORD,FALSE,,,,,,,54,lengua,Spanish,Sounds/spa_lengua.mp3,2020-06-05_12h50.08.756,TranslationElicitation_eng-prolific,3.2.4,MacIntel,60,5b6f4c673abd820001d6f637,,1,0,98,50,1,97
,,,,,,,,,,,,,,,,,,,,,,,,,,,,,,,,,,,,,,,,,s,5.812000036,WORDS,FALSE,,,,,,,54,lengua,Spanish,Sounds/spa_lengua.mp3,2020-06-05_12h50.08.756,TranslationElicitation_eng-prolific,3.2.4,MacIntel,60,5b6f4c673abd820001d6f637,,1,0,98,50,1,97
,,,,,,,,,,,,,,,,,,,,,,,,,,,,,,,,,,,,,,,,,return,5.984000206,WORDS,FALSE,,,,,,,54,lengua,Spanish,Sounds/spa_lengua.mp3,2020-06-05_12h50.08.756,TranslationElicitation_eng-prolific,3.2.4,MacIntel,60,5b6f4c673abd820001d6f637,5.984000206,1,0,98,50,1,97
,,,,,,,,,,,,,,,,,,,,,,,,,,,,,,,,,,,,,,,,,,,,,,,,,,,54,lengua,Spanish,Sounds/spa_lengua.mp3,2020-06-05_12h50.08.756,TranslationElicitation_eng-prolific,3.2.4,MacIntel,60,5b6f4c673abd820001d6f637,,1,0,98,50,1,97
,,,,,,,,,,,,,,,,,,,,,,,,,,,,,,,,,,,,,,,,,p,1.897000074,P,FALSE,,,,,,,86,pingüino,Spanish,Sounds/spa_pinguino.mp3,2020-06-05_12h50.08.756,TranslationElicitation_eng-prolific,3.2.4,MacIntel,60,5b6f4c673abd820001d6f637,,1,0,98,81,1,97
,,,,,,,,,,,,,,,,,,,,,,,,,,,,,,,,,,,,,,,,,e,2.039000034,PE,FALSE,,,,,,,86,pingüino,Spanish,Sounds/spa_pinguino.mp3,2020-06-05_12h50.08.756,TranslationElicitation_eng-prolific,3.2.4,MacIntel,60,5b6f4c673abd820001d6f637,,1,0,98,81,1,97
,,,,,,,,,,,,,,,,,,,,,,,,,,,,,,,,,,,,,,,,,g,2.353000164,PEG,FALSE,,,,,,,86,pingüino,Spanish,Sounds/spa_pinguino.mp3,2020-06-05_12h50.08.756,TranslationElicitation_eng-prolific,3.2.4,MacIntel,60,5b6f4c673abd820001d6f637,,1,0,98,81,1,97
,,,,,,,,,,,,,,,,,,,,,,,,,,,,,,,,,,,,,,,,,backspace,2.778000116,PE,TRUE,,,,,,,86,pingüino,Spanish,Sounds/spa_pinguino.mp3,2020-06-05_12h50.08.756,TranslationElicitation_eng-prolific,3.2.4,MacIntel,60,5b6f4c673abd820001d6f637,,1,0,98,81,1,97
,,,,,,,,,,,,,,,,,,,,,,,,,,,,,,,,,,,,,,,,,n,2.887000084,PEN,TRUE,,,,,,,86,pingüino,Spanish,Sounds/spa_pinguino.mp3,2020-06-05_12h50.08.756,TranslationElicitation_eng-prolific,3.2.4,MacIntel,60,5b6f4c673abd820001d6f637,,1,0,98,81,1,97
,,,,,,,,,,,,,,,,,,,,,,,,,,,,,,,,,,,,,,,,,g,3.116000175,PENG,TRUE,,,,,,,86,pingüino,Spanish,Sounds/spa_pinguino.mp3,2020-06-05_12h50.08.756,TranslationElicitation_eng-prolific,3.2.4,MacIntel,60,5b6f4c673abd820001d6f637,,1,0,98,81,1,97
,,,,,,,,,,,,,,,,,,,,,,,,,,,,,,,,,,,,,,,,,u,3.332000017,PENGU,TRUE,,,,,,,86,pingüino,Spanish,Sounds/spa_pinguino.mp3,2020-06-05_12h50.08.756,TranslationElicitation_eng-prolific,3.2.4,MacIntel,60,5b6f4c673abd820001d6f637,,1,0,98,81,1,97
,,,,,,,,,,,,,,,,,,,,,,,,,,,,,,,,,,,,,,,,,i,3.513000011,PENGUI,TRUE,,,,,,,86,pingüino,Spanish,Sounds/spa_pinguino.mp3,2020-06-05_12h50.08.756,TranslationElicitation_eng-prolific,3.2.4,MacIntel,60,5b6f4c673abd820001d6f637,,1,0,98,81,1,97
,,,,,,,,,,,,,,,,,,,,,,,,,,,,,,,,,,,,,,,,,n,3.697000027,PENGUIN,TRUE,,,,,,,86,pingüino,Spanish,Sounds/spa_pinguino.mp3,2020-06-05_12h50.08.756,TranslationElicitation_eng-prolific,3.2.4,MacIntel,60,5b6f4c673abd820001d6f637,,1,0,98,81,1,97
,,,,,,,,,,,,,,,,,,,,,,,,,,,,,,,,,,,,,,,,,return,4.193000078,PENGUIN,TRUE,,,,,,,86,pingüino,Spanish,Sounds/spa_pinguino.mp3,2020-06-05_12h50.08.756,TranslationElicitation_eng-prolific,3.2.4,MacIntel,60,5b6f4c673abd820001d6f637,4.193000078,1,0,98,81,1,97
,,,,,,,,,,,,,,,,,,,,,,,,,,,,,,,,,,,,,,,,,,,,,,,,,,,86,pingüino,Spanish,Sounds/spa_pinguino.mp3,2020-06-05_12h50.08.756,TranslationElicitation_eng-prolific,3.2.4,MacIntel,60,5b6f4c673abd820001d6f637,,1,0,98,81,1,97
,,,,,,,,,,,,,,,,,,,,,,,,,,,,,,,,,,,,,,,,,c,2.472000122,C,FALSE,,,,,,,40,galleta,Spanish,Sounds/spa_galleta.mp3,2020-06-05_12h50.08.756,TranslationElicitation_eng-prolific,3.2.4,MacIntel,60,5b6f4c673abd820001d6f637,,1,0,98,36,1,97
,,,,,,,,,,,,,,,,,,,,,,,,,,,,,,,,,,,,,,,,,a,2.697000027,CA,FALSE,,,,,,,40,galleta,Spanish,Sounds/spa_galleta.mp3,2020-06-05_12h50.08.756,TranslationElicitation_eng-prolific,3.2.4,MacIntel,60,5b6f4c673abd820001d6f637,,1,0,98,36,1,97
,,,,,,,,,,,,,,,,,,,,,,,,,,,,,,,,,,,,,,,,,k,2.812999964,CAK,FALSE,,,,,,,40,galleta,Spanish,Sounds/spa_galleta.mp3,2020-06-05_12h50.08.756,TranslationElicitation_eng-prolific,3.2.4,MacIntel,60,5b6f4c673abd820001d6f637,,1,0,98,36,1,97
,,,,,,,,,,,,,,,,,,,,,,,,,,,,,,,,,,,,,,,,,e,2.910000086,CAKE,FALSE,,,,,,,40,galleta,Spanish,Sounds/spa_galleta.mp3,2020-06-05_12h50.08.756,TranslationElicitation_eng-prolific,3.2.4,MacIntel,60,5b6f4c673abd820001d6f637,,1,0,98,36,1,97
,,,,,,,,,,,,,,,,,,,,,,,,,,,,,,,,,,,,,,,,,return,3.263000011,CAKE,FALSE,,,,,,,40,galleta,Spanish,Sounds/spa_galleta.mp3,2020-06-05_12h50.08.756,TranslationElicitation_eng-prolific,3.2.4,MacIntel,60,5b6f4c673abd820001d6f637,3.263000011,1,0,98,36,1,97
,,,,,,,,,,,,,,,,,,,,,,,,,,,,,,,,,,,,,,,,,,,,,,,,,,,40,galleta,Spanish,Sounds/spa_galleta.mp3,2020-06-05_12h50.08.756,TranslationElicitation_eng-prolific,3.2.4,MacIntel,60,5b6f4c673abd820001d6f637,,1,0,98,36,1,97
,,,,,,,,,,,,,,,,,,,,,,,,,,,,,,,,,,,,,,,,,p,4.006000042,P,FALSE,,,,,,,22,cepillo,Spanish,Sounds/spa_cepillo.mp3,2020-06-05_12h50.08.756,TranslationElicitation_eng-prolific,3.2.4,MacIntel,60,5b6f4c673abd820001d6f637,,1,0,98,20,1,97
,,,,,,,,,,,,,,,,,,,,,,,,,,,,,,,,,,,,,,,,,e,4.122999907,PE,FALSE,,,,,,,22,cepillo,Spanish,Sounds/spa_cepillo.mp3,2020-06-05_12h50.08.756,TranslationElicitation_eng-prolific,3.2.4,MacIntel,60,5b6f4c673abd820001d6f637,,1,0,98,20,1,97
,,,,,,,,,,,,,,,,,,,,,,,,,,,,,,,,,,,,,,,,,n,4.246000051,PEN,FALSE,,,,,,,22,cepillo,Spanish,Sounds/spa_cepillo.mp3,2020-06-05_12h50.08.756,TranslationElicitation_eng-prolific,3.2.4,MacIntel,60,5b6f4c673abd820001d6f637,,1,0,98,20,1,97
,,,,,,,,,,,,,,,,,,,,,,,,,,,,,,,,,,,,,,,,,return,4.667000055,PEN,FALSE,,,,,,,22,cepillo,Spanish,Sounds/spa_cepillo.mp3,2020-06-05_12h50.08.756,TranslationElicitation_eng-prolific,3.2.4,MacIntel,60,5b6f4c673abd820001d6f637,4.667000055,1,0,98,20,1,97
,,,,,,,,,,,,,,,,,,,,,,,,,,,,,,,,,,,,,,,,,,,,,,,,,,,22,cepillo,Spanish,Sounds/spa_cepillo.mp3,2020-06-05_12h50.08.756,TranslationElicitation_eng-prolific,3.2.4,MacIntel,60,5b6f4c673abd820001d6f637,,1,0,98,20,1,97
,,,,,,,,,,,,,,,,,,,,,,,,,,,,,,,,,,,,,,,,,h,2.436000109,H,FALSE,,,,,,,28,cielo,Spanish,Sounds/spa_cielo.mp3,2020-06-05_12h50.08.756,TranslationElicitation_eng-prolific,3.2.4,MacIntel,60,5b6f4c673abd820001d6f637,,1,0,98,25,1,97
,,,,,,,,,,,,,,,,,,,,,,,,,,,,,,,,,,,,,,,,,o,2.715000153,HO,FALSE,,,,,,,28,cielo,Spanish,Sounds/spa_cielo.mp3,2020-06-05_12h50.08.756,TranslationElicitation_eng-prolific,3.2.4,MacIntel,60,5b6f4c673abd820001d6f637,,1,0,98,25,1,97
,,,,,,,,,,,,,,,,,,,,,,,,,,,,,,,,,,,,,,,,,t,2.907000065,HOT,FALSE,,,,,,,28,cielo,Spanish,Sounds/spa_cielo.mp3,2020-06-05_12h50.08.756,TranslationElicitation_eng-prolific,3.2.4,MacIntel,60,5b6f4c673abd820001d6f637,,1,0,98,25,1,97
,,,,,,,,,,,,,,,,,,,,,,,,,,,,,,,,,,,,,,,,,return,3.286999941,HOT,FALSE,,,,,,,28,cielo,Spanish,Sounds/spa_cielo.mp3,2020-06-05_12h50.08.756,TranslationElicitation_eng-prolific,3.2.4,MacIntel,60,5b6f4c673abd820001d6f637,3.286999941,1,0,98,25,1,97
,,,,,,,,,,,,,,,,,,,,,,,,,,,,,,,,,,,,,,,,,,,,,,,,,,,28,cielo,Spanish,Sounds/spa_cielo.mp3,2020-06-05_12h50.08.756,TranslationElicitation_eng-prolific,3.2.4,MacIntel,60,5b6f4c673abd820001d6f637,,1,0,98,25,1,97
,,,,,,,,,,,,,,,,,,,,,,,,,,,,,,,,,,,,,,,,,p,3.476000071,P,FALSE,,,,,,,81,pelota,Spanish,Sounds/spa_pelota.mp3,2020-06-05_12h50.08.756,TranslationElicitation_eng-prolific,3.2.4,MacIntel,60,5b6f4c673abd820001d6f637,,1,0,98,76,1,97
,,,,,,,,,,,,,,,,,,,,,,,,,,,,,,,,,,,,,,,,,a,3.565999985,PA,FALSE,,,,,,,81,pelota,Spanish,Sounds/spa_pelota.mp3,2020-06-05_12h50.08.756,TranslationElicitation_eng-prolific,3.2.4,MacIntel,60,5b6f4c673abd820001d6f637,,1,0,98,76,1,97
,,,,,,,,,,,,,,,,,,,,,,,,,,,,,,,,,,,,,,,,,l,3.708999872,PAL,FALSE,,,,,,,81,pelota,Spanish,Sounds/spa_pelota.mp3,2020-06-05_12h50.08.756,TranslationElicitation_eng-prolific,3.2.4,MacIntel,60,5b6f4c673abd820001d6f637,,1,0,98,76,1,97
,,,,,,,,,,,,,,,,,,,,,,,,,,,,,,,,,,,,,,,,,e,5.092999935,PALE,FALSE,,,,,,,81,pelota,Spanish,Sounds/spa_pelota.mp3,2020-06-05_12h50.08.756,TranslationElicitation_eng-prolific,3.2.4,MacIntel,60,5b6f4c673abd820001d6f637,,1,0,98,76,1,97
,,,,,,,,,,,,,,,,,,,,,,,,,,,,,,,,,,,,,,,,,t,5.297999859,PALET,FALSE,,,,,,,81,pelota,Spanish,Sounds/spa_pelota.mp3,2020-06-05_12h50.08.756,TranslationElicitation_eng-prolific,3.2.4,MacIntel,60,5b6f4c673abd820001d6f637,,1,0,98,76,1,97
,,,,,,,,,,,,,,,,,,,,,,,,,,,,,,,,,,,,,,,,,t,5.453000069,PALETT,FALSE,,,,,,,81,pelota,Spanish,Sounds/spa_pelota.mp3,2020-06-05_12h50.08.756,TranslationElicitation_eng-prolific,3.2.4,MacIntel,60,5b6f4c673abd820001d6f637,,1,0,98,76,1,97
,,,,,,,,,,,,,,,,,,,,,,,,,,,,,,,,,,,,,,,,,e,5.621000051,PALETTE,FALSE,,,,,,,81,pelota,Spanish,Sounds/spa_pelota.mp3,2020-06-05_12h50.08.756,TranslationElicitation_eng-prolific,3.2.4,MacIntel,60,5b6f4c673abd820001d6f637,,1,0,98,76,1,97
,,,,,,,,,,,,,,,,,,,,,,,,,,,,,,,,,,,,,,,,,return,6.226000071,PALETTE,FALSE,,,,,,,81,pelota,Spanish,Sounds/spa_pelota.mp3,2020-06-05_12h50.08.756,TranslationElicitation_eng-prolific,3.2.4,MacIntel,60,5b6f4c673abd820001d6f637,6.226000071,1,0,98,76,1,97
,,,,,,,,,,,,,,,,,,,,,,,,,,,,,,,,,,,,,,,,,,,,,,,,,,,81,pelota,Spanish,Sounds/spa_pelota.mp3,2020-06-05_12h50.08.756,TranslationElicitation_eng-prolific,3.2.4,MacIntel,60,5b6f4c673abd820001d6f637,,1,0,98,76,1,97
,,,,,,,,,,,,,,,,,,,,,,,,,,,,,,,,,,,,,,,,,m,3.055999994,M,FALSE,,,,,,,59,mano,Spanish,Sounds/spa_mano.mp3,2020-06-05_12h50.08.756,TranslationElicitation_eng-prolific,3.2.4,MacIntel,60,5b6f4c673abd820001d6f637,,1,0,98,55,1,97
,,,,,,,,,,,,,,,,,,,,,,,,,,,,,,,,,,,,,,,,,a,3.161000013,MA,FALSE,,,,,,,59,mano,Spanish,Sounds/spa_mano.mp3,2020-06-05_12h50.08.756,TranslationElicitation_eng-prolific,3.2.4,MacIntel,60,5b6f4c673abd820001d6f637,,1,0,98,55,1,97
,,,,,,,,,,,,,,,,,,,,,,,,,,,,,,,,,,,,,,,,,n,3.253999949,MAN,FALSE,,,,,,,59,mano,Spanish,Sounds/spa_mano.mp3,2020-06-05_12h50.08.756,TranslationElicitation_eng-prolific,3.2.4,MacIntel,60,5b6f4c673abd820001d6f637,,1,0,98,55,1,97
,,,,,,,,,,,,,,,,,,,,,,,,,,,,,,,,,,,,,,,,,return,3.673000097,MAN,FALSE,,,,,,,59,mano,Spanish,Sounds/spa_mano.mp3,2020-06-05_12h50.08.756,TranslationElicitation_eng-prolific,3.2.4,MacIntel,60,5b6f4c673abd820001d6f637,3.673000097,1,0,98,55,1,97
,,,,,,,,,,,,,,,,,,,,,,,,,,,,,,,,,,,,,,,,,,,,,,,,,,,59,mano,Spanish,Sounds/spa_mano.mp3,2020-06-05_12h50.08.756,TranslationElicitation_eng-prolific,3.2.4,MacIntel,60,5b6f4c673abd820001d6f637,,1,0,98,55,1,97
,,,,,,,,,,,,,,,,,,,,,,,,,,,,,,,,,,,,,,,,,d,1.731999874,D,FALSE,,,,,,,66,moto,Spanish,Sounds/spa_moto.mp3,2020-06-05_12h50.08.756,TranslationElicitation_eng-prolific,3.2.4,MacIntel,60,5b6f4c673abd820001d6f637,,1,0,98,62,1,97
,,,,,,,,,,,,,,,,,,,,,,,,,,,,,,,,,,,,,,,,,e,1.869999886,DE,FALSE,,,,,,,66,moto,Spanish,Sounds/spa_moto.mp3,2020-06-05_12h50.08.756,TranslationElicitation_eng-prolific,3.2.4,MacIntel,60,5b6f4c673abd820001d6f637,,1,0,98,62,1,97
,,,,,,,,,,,,,,,,,,,,,,,,,,,,,,,,,,,,,,,,,a,2.055999994,DEA,FALSE,,,,,,,66,moto,Spanish,Sounds/spa_moto.mp3,2020-06-05_12h50.08.756,TranslationElicitation_eng-prolific,3.2.4,MacIntel,60,5b6f4c673abd820001d6f637,,1,0,98,62,1,97
,,,,,,,,,,,,,,,,,,,,,,,,,,,,,,,,,,,,,,,,,d,2.177999973,DEAD,FALSE,,,,,,,66,moto,Spanish,Sounds/spa_moto.mp3,2020-06-05_12h50.08.756,TranslationElicitation_eng-prolific,3.2.4,MacIntel,60,5b6f4c673abd820001d6f637,,1,0,98,62,1,97
,,,,,,,,,,,,,,,,,,,,,,,,,,,,,,,,,,,,,,,,,return,2.463999987,DEAD,FALSE,,,,,,,66,moto,Spanish,Sounds/spa_moto.mp3,2020-06-05_12h50.08.756,TranslationElicitation_eng-prolific,3.2.4,MacIntel,60,5b6f4c673abd820001d6f637,2.463999987,1,0,98,62,1,97
,,,,,,,,,,,,,,,,,,,,,,,,,,,,,,,,,,,,,,,,,,,,,,,,,,,66,moto,Spanish,Sounds/spa_moto.mp3,2020-06-05_12h50.08.756,TranslationElicitation_eng-prolific,3.2.4,MacIntel,60,5b6f4c673abd820001d6f637,,1,0,98,62,1,97
,,,,,,,,,,,,,,,,,,,,,,,,,,,,,,,,,,,,,,,,,f,2.421000004,F,FALSE,,,,,,,89,pluma,Spanish,Sounds/spa_pluma.mp3,2020-06-05_12h50.08.756,TranslationElicitation_eng-prolific,3.2.4,MacIntel,60,5b6f4c673abd820001d6f637,,1,0,98,84,1,97
,,,,,,,,,,,,,,,,,,,,,,,,,,,,,,,,,,,,,,,,,e,2.628000021,FE,FALSE,,,,,,,89,pluma,Spanish,Sounds/spa_pluma.mp3,2020-06-05_12h50.08.756,TranslationElicitation_eng-prolific,3.2.4,MacIntel,60,5b6f4c673abd820001d6f637,,1,0,98,84,1,97
,,,,,,,,,,,,,,,,,,,,,,,,,,,,,,,,,,,,,,,,,a,2.754000187,FEA,FALSE,,,,,,,89,pluma,Spanish,Sounds/spa_pluma.mp3,2020-06-05_12h50.08.756,TranslationElicitation_eng-prolific,3.2.4,MacIntel,60,5b6f4c673abd820001d6f637,,1,0,98,84,1,97
,,,,,,,,,,,,,,,,,,,,,,,,,,,,,,,,,,,,,,,,,t,2.910000086,FEAT,FALSE,,,,,,,89,pluma,Spanish,Sounds/spa_pluma.mp3,2020-06-05_12h50.08.756,TranslationElicitation_eng-prolific,3.2.4,MacIntel,60,5b6f4c673abd820001d6f637,,1,0,98,84,1,97
,,,,,,,,,,,,,,,,,,,,,,,,,,,,,,,,,,,,,,,,,h,3.013000011,FEATH,FALSE,,,,,,,89,pluma,Spanish,Sounds/spa_pluma.mp3,2020-06-05_12h50.08.756,TranslationElicitation_eng-prolific,3.2.4,MacIntel,60,5b6f4c673abd820001d6f637,,1,0,98,84,1,97
,,,,,,,,,,,,,,,,,,,,,,,,,,,,,,,,,,,,,,,,,e,3.114000082,FEATHE,FALSE,,,,,,,89,pluma,Spanish,Sounds/spa_pluma.mp3,2020-06-05_12h50.08.756,TranslationElicitation_eng-prolific,3.2.4,MacIntel,60,5b6f4c673abd820001d6f637,,1,0,98,84,1,97
,,,,,,,,,,,,,,,,,,,,,,,,,,,,,,,,,,,,,,,,,r,3.268000126,FEATHER,FALSE,,,,,,,89,pluma,Spanish,Sounds/spa_pluma.mp3,2020-06-05_12h50.08.756,TranslationElicitation_eng-prolific,3.2.4,MacIntel,60,5b6f4c673abd820001d6f637,,1,0,98,84,1,97
,,,,,,,,,,,,,,,,,,,,,,,,,,,,,,,,,,,,,,,,,s,3.397000074,FEATHERS,FALSE,,,,,,,89,pluma,Spanish,Sounds/spa_pluma.mp3,2020-06-05_12h50.08.756,TranslationElicitation_eng-prolific,3.2.4,MacIntel,60,5b6f4c673abd820001d6f637,,1,0,98,84,1,97
,,,,,,,,,,,,,,,,,,,,,,,,,,,,,,,,,,,,,,,,,return,4.151000023,FEATHERS,FALSE,,,,,,,89,pluma,Spanish,Sounds/spa_pluma.mp3,2020-06-05_12h50.08.756,TranslationElicitation_eng-prolific,3.2.4,MacIntel,60,5b6f4c673abd820001d6f637,4.151000023,1,0,98,84,1,97
,,,,,,,,,,,,,,,,,,,,,,,,,,,,,,,,,,,,,,,,,,,,,,,,,,,89,pluma,Spanish,Sounds/spa_pluma.mp3,2020-06-05_12h50.08.756,TranslationElicitation_eng-prolific,3.2.4,MacIntel,60,5b6f4c673abd820001d6f637,,1,0,98,84,1,97
,,,,,,,,,,,,,,,,,,,,,,,,,,,,,,,,,,,,,,,,,c,3.26699996,C,FALSE,,,,,,,23,cerdo,Spanish,Sounds/spa_cerdo.mp3,2020-06-05_12h50.08.756,TranslationElicitation_eng-prolific,3.2.4,MacIntel,60,5b6f4c673abd820001d6f637,,1,0,98,21,1,97
,,,,,,,,,,,,,,,,,,,,,,,,,,,,,,,,,,,,,,,,,o,3.348999977,CO,FALSE,,,,,,,23,cerdo,Spanish,Sounds/spa_cerdo.mp3,2020-06-05_12h50.08.756,TranslationElicitation_eng-prolific,3.2.4,MacIntel,60,5b6f4c673abd820001d6f637,,1,0,98,21,1,97
,,,,,,,,,,,,,,,,,,,,,,,,,,,,,,,,,,,,,,,,,l,3.517999887,COL,FALSE,,,,,,,23,cerdo,Spanish,Sounds/spa_cerdo.mp3,2020-06-05_12h50.08.756,TranslationElicitation_eng-prolific,3.2.4,MacIntel,60,5b6f4c673abd820001d6f637,,1,0,98,21,1,97
,,,,,,,,,,,,,,,,,,,,,,,,,,,,,,,,,,,,,,,,,d,3.671999931,COLD,FALSE,,,,,,,23,cerdo,Spanish,Sounds/spa_cerdo.mp3,2020-06-05_12h50.08.756,TranslationElicitation_eng-prolific,3.2.4,MacIntel,60,5b6f4c673abd820001d6f637,,1,0,98,21,1,97
,,,,,,,,,,,,,,,,,,,,,,,,,,,,,,,,,,,,,,,,,return,4.036000013,COLD,FALSE,,,,,,,23,cerdo,Spanish,Sounds/spa_cerdo.mp3,2020-06-05_12h50.08.756,TranslationElicitation_eng-prolific,3.2.4,MacIntel,60,5b6f4c673abd820001d6f637,4.036000013,1,0,98,21,1,97
,,,,,,,,,,,,,,,,,,,,,,,,,,,,,,,,,,,,,,,,,,,,,,,,,,,23,cerdo,Spanish,Sounds/spa_cerdo.mp3,2020-06-05_12h50.08.756,TranslationElicitation_eng-prolific,3.2.4,MacIntel,60,5b6f4c673abd820001d6f637,,1,0,98,21,1,97
,,,,,,,,,,,,,,,,,,,,,,,,,,,,,,,,,,,,,,,,,t,2.351999998,T,FALSE,,,,,,,101,tren,Spanish,Sounds/spa_tren.mp3,2020-06-05_12h50.08.756,TranslationElicitation_eng-prolific,3.2.4,MacIntel,60,5b6f4c673abd820001d6f637,,1,0,98,95,1,97
,,,,,,,,,,,,,,,,,,,,,,,,,,,,,,,,,,,,,,,,,r,2.529999971,TR,FALSE,,,,,,,101,tren,Spanish,Sounds/spa_tren.mp3,2020-06-05_12h50.08.756,TranslationElicitation_eng-prolific,3.2.4,MacIntel,60,5b6f4c673abd820001d6f637,,1,0,98,95,1,97
,,,,,,,,,,,,,,,,,,,,,,,,,,,,,,,,,,,,,,,,,a,2.710999966,TRA,FALSE,,,,,,,101,tren,Spanish,Sounds/spa_tren.mp3,2020-06-05_12h50.08.756,TranslationElicitation_eng-prolific,3.2.4,MacIntel,60,5b6f4c673abd820001d6f637,,1,0,98,95,1,97
,,,,,,,,,,,,,,,,,,,,,,,,,,,,,,,,,,,,,,,,,i,2.827000141,TRAI,FALSE,,,,,,,101,tren,Spanish,Sounds/spa_tren.mp3,2020-06-05_12h50.08.756,TranslationElicitation_eng-prolific,3.2.4,MacIntel,60,5b6f4c673abd820001d6f637,,1,0,98,95,1,97
,,,,,,,,,,,,,,,,,,,,,,,,,,,,,,,,,,,,,,,,,n,2.941999912,TRAIN,FALSE,,,,,,,101,tren,Spanish,Sounds/spa_tren.mp3,2020-06-05_12h50.08.756,TranslationElicitation_eng-prolific,3.2.4,MacIntel,60,5b6f4c673abd820001d6f637,,1,0,98,95,1,97
,,,,,,,,,,,,,,,,,,,,,,,,,,,,,,,,,,,,,,,,,return,3.289000034,TRAIN,FALSE,,,,,,,101,tren,Spanish,Sounds/spa_tren.mp3,2020-06-05_12h50.08.756,TranslationElicitation_eng-prolific,3.2.4,MacIntel,60,5b6f4c673abd820001d6f637,3.289000034,1,0,98,95,1,97
,,,,,,,,,,,,,,,,,,,,,,,,,,,,,,,,,,,,,,,,,,,,,,,,,,,101,tren,Spanish,Sounds/spa_tren.mp3,2020-06-05_12h50.08.756,TranslationElicitation_eng-prolific,3.2.4,MacIntel,60,5b6f4c673abd820001d6f637,,1,0,98,95,1,97
,,,,,,,,,,,,,,,,,,,,,,,,,,,,,,,,,,,,,,,,,t,2.386000156,T,FALSE,,,,,,,94,tambor,Spanish,Sounds/spa_tambor.mp3,2020-06-05_12h50.08.756,TranslationElicitation_eng-prolific,3.2.4,MacIntel,60,5b6f4c673abd820001d6f637,,1,0,98,89,1,97
,,,,,,,,,,,,,,,,,,,,,,,,,,,,,,,,,,,,,,,,,a,2.749000072,TA,FALSE,,,,,,,94,tambor,Spanish,Sounds/spa_tambor.mp3,2020-06-05_12h50.08.756,TranslationElicitation_eng-prolific,3.2.4,MacIntel,60,5b6f4c673abd820001d6f637,,1,0,98,89,1,97
,,,,,,,,,,,,,,,,,,,,,,,,,,,,,,,,,,,,,,,,,m,2.907999992,TAM,FALSE,,,,,,,94,tambor,Spanish,Sounds/spa_tambor.mp3,2020-06-05_12h50.08.756,TranslationElicitation_eng-prolific,3.2.4,MacIntel,60,5b6f4c673abd820001d6f637,,1,0,98,89,1,97
,,,,,,,,,,,,,,,,,,,,,,,,,,,,,,,,,,,,,,,,,b,3.099000216,TAMB,FALSE,,,,,,,94,tambor,Spanish,Sounds/spa_tambor.mp3,2020-06-05_12h50.08.756,TranslationElicitation_eng-prolific,3.2.4,MacIntel,60,5b6f4c673abd820001d6f637,,1,0,98,89,1,97
,,,,,,,,,,,,,,,,,,,,,,,,,,,,,,,,,,,,,,,,,o,3.198000193,TAMBO,FALSE,,,,,,,94,tambor,Spanish,Sounds/spa_tambor.mp3,2020-06-05_12h50.08.756,TranslationElicitation_eng-prolific,3.2.4,MacIntel,60,5b6f4c673abd820001d6f637,,1,0,98,89,1,97
,,,,,,,,,,,,,,,,,,,,,,,,,,,,,,,,,,,,,,,,,u,3.372000217,TAMBOU,FALSE,,,,,,,94,tambor,Spanish,Sounds/spa_tambor.mp3,2020-06-05_12h50.08.756,TranslationElicitation_eng-prolific,3.2.4,MacIntel,60,5b6f4c673abd820001d6f637,,1,0,98,89,1,97
,,,,,,,,,,,,,,,,,,,,,,,,,,,,,,,,,,,,,,,,,r,3.495000124,TAMBOUR,FALSE,,,,,,,94,tambor,Spanish,Sounds/spa_tambor.mp3,2020-06-05_12h50.08.756,TranslationElicitation_eng-prolific,3.2.4,MacIntel,60,5b6f4c673abd820001d6f637,,1,0,98,89,1,97
,,,,,,,,,,,,,,,,,,,,,,,,,,,,,,,,,,,,,,,,,n,3.674000025,TAMBOURN,FALSE,,,,,,,94,tambor,Spanish,Sounds/spa_tambor.mp3,2020-06-05_12h50.08.756,TranslationElicitation_eng-prolific,3.2.4,MacIntel,60,5b6f4c673abd820001d6f637,,1,0,98,89,1,97
,,,,,,,,,,,,,,,,,,,,,,,,,,,,,,,,,,,,,,,,,e,4.105000019,TAMBOURNE,FALSE,,,,,,,94,tambor,Spanish,Sounds/spa_tambor.mp3,2020-06-05_12h50.08.756,TranslationElicitation_eng-prolific,3.2.4,MacIntel,60,5b6f4c673abd820001d6f637,,1,0,98,89,1,97
,,,,,,,,,,,,,,,,,,,,,,,,,,,,,,,,,,,,,,,,,backspace,4.49000001,TAMBOURN,TRUE,,,,,,,94,tambor,Spanish,Sounds/spa_tambor.mp3,2020-06-05_12h50.08.756,TranslationElicitation_eng-prolific,3.2.4,MacIntel,60,5b6f4c673abd820001d6f637,,1,0,98,89,1,97
,,,,,,,,,,,,,,,,,,,,,,,,,,,,,,,,,,,,,,,,,backspace,4.618000031,TAMBOUR,TRUE,,,,,,,94,tambor,Spanish,Sounds/spa_tambor.mp3,2020-06-05_12h50.08.756,TranslationElicitation_eng-prolific,3.2.4,MacIntel,60,5b6f4c673abd820001d6f637,,1,0,98,89,1,97
,,,,,,,,,,,,,,,,,,,,,,,,,,,,,,,,,,,,,,,,,i,4.903000116,TAMBOURI,TRUE,,,,,,,94,tambor,Spanish,Sounds/spa_tambor.mp3,2020-06-05_12h50.08.756,TranslationElicitation_eng-prolific,3.2.4,MacIntel,60,5b6f4c673abd820001d6f637,,1,0,98,89,1,97
,,,,,,,,,,,,,,,,,,,,,,,,,,,,,,,,,,,,,,,,,n,5.031000137,TAMBOURIN,TRUE,,,,,,,94,tambor,Spanish,Sounds/spa_tambor.mp3,2020-06-05_12h50.08.756,TranslationElicitation_eng-prolific,3.2.4,MacIntel,60,5b6f4c673abd820001d6f637,,1,0,98,89,1,97
,,,,,,,,,,,,,,,,,,,,,,,,,,,,,,,,,,,,,,,,,e,5.153000116,TAMBOURINE,TRUE,,,,,,,94,tambor,Spanish,Sounds/spa_tambor.mp3,2020-06-05_12h50.08.756,TranslationElicitation_eng-prolific,3.2.4,MacIntel,60,5b6f4c673abd820001d6f637,,1,0,98,89,1,97
,,,,,,,,,,,,,,,,,,,,,,,,,,,,,,,,,,,,,,,,,return,5.582000017,TAMBOURINE,TRUE,,,,,,,94,tambor,Spanish,Sounds/spa_tambor.mp3,2020-06-05_12h50.08.756,TranslationElicitation_eng-prolific,3.2.4,MacIntel,60,5b6f4c673abd820001d6f637,5.582000017,1,0,98,89,1,97
,,,,,,,,,,,,,,,,,,,,,,,,,,,,,,,,,,,,,,,,,,,,,,,,,,,94,tambor,Spanish,Sounds/spa_tambor.mp3,2020-06-05_12h50.08.756,TranslationElicitation_eng-prolific,3.2.4,MacIntel,60,5b6f4c673abd820001d6f637,,1,0,98,89,1,97
,,,,,,,,,,,,,,,,,,,,,,,,,,,,,,,,,,,,,,,,,h,3.940999985,H,FALSE,,,,,,,18,camisa,Spanish,Sounds/spa_camisa.mp3,2020-06-05_12h50.08.756,TranslationElicitation_eng-prolific,3.2.4,MacIntel,60,5b6f4c673abd820001d6f637,,1,0,98,16,1,97
,,,,,,,,,,,,,,,,,,,,,,,,,,,,,,,,,,,,,,,,,o,4.127000093,HO,FALSE,,,,,,,18,camisa,Spanish,Sounds/spa_camisa.mp3,2020-06-05_12h50.08.756,TranslationElicitation_eng-prolific,3.2.4,MacIntel,60,5b6f4c673abd820001d6f637,,1,0,98,16,1,97
,,,,,,,,,,,,,,,,,,,,,,,,,,,,,,,,,,,,,,,,,u,4.292999983,HOU,FALSE,,,,,,,18,camisa,Spanish,Sounds/spa_camisa.mp3,2020-06-05_12h50.08.756,TranslationElicitation_eng-prolific,3.2.4,MacIntel,60,5b6f4c673abd820001d6f637,,1,0,98,16,1,97
,,,,,,,,,,,,,,,,,,,,,,,,,,,,,,,,,,,,,,,,,s,4.371000051,HOUS,FALSE,,,,,,,18,camisa,Spanish,Sounds/spa_camisa.mp3,2020-06-05_12h50.08.756,TranslationElicitation_eng-prolific,3.2.4,MacIntel,60,5b6f4c673abd820001d6f637,,1,0,98,16,1,97
,,,,,,,,,,,,,,,,,,,,,,,,,,,,,,,,,,,,,,,,,e,4.503000021,HOUSE,FALSE,,,,,,,18,camisa,Spanish,Sounds/spa_camisa.mp3,2020-06-05_12h50.08.756,TranslationElicitation_eng-prolific,3.2.4,MacIntel,60,5b6f4c673abd820001d6f637,,1,0,98,16,1,97
,,,,,,,,,,,,,,,,,,,,,,,,,,,,,,,,,,,,,,,,,return,4.779000044,HOUSE,FALSE,,,,,,,18,camisa,Spanish,Sounds/spa_camisa.mp3,2020-06-05_12h50.08.756,TranslationElicitation_eng-prolific,3.2.4,MacIntel,60,5b6f4c673abd820001d6f637,4.779000044,1,0,98,16,1,97
,,,,,,,,,,,,,,,,,,,,,,,,,,,,,,,,,,,,,,,,,,,,,,,,,,,18,camisa,Spanish,Sounds/spa_camisa.mp3,2020-06-05_12h50.08.756,TranslationElicitation_eng-prolific,3.2.4,MacIntel,60,5b6f4c673abd820001d6f637,,1,0,98,16,1,97
,,,,,,,,,,,,,,,,,,,,,,,,,,,,,,,,,,,,,,,,,f,2.375,F,FALSE,,,,,,,93,sol,Spanish,Sounds/spa_sol.mp3,2020-06-05_12h50.08.756,TranslationElicitation_eng-prolific,3.2.4,MacIntel,60,5b6f4c673abd820001d6f637,,1,0,98,88,1,97
,,,,,,,,,,,,,,,,,,,,,,,,,,,,,,,,,,,,,,,,,o,2.629999876,FO,FALSE,,,,,,,93,sol,Spanish,Sounds/spa_sol.mp3,2020-06-05_12h50.08.756,TranslationElicitation_eng-prolific,3.2.4,MacIntel,60,5b6f4c673abd820001d6f637,,1,0,98,88,1,97
,,,,,,,,,,,,,,,,,,,,,,,,,,,,,,,,,,,,,,,,,o,2.730000019,FOO,FALSE,,,,,,,93,sol,Spanish,Sounds/spa_sol.mp3,2020-06-05_12h50.08.756,TranslationElicitation_eng-prolific,3.2.4,MacIntel,60,5b6f4c673abd820001d6f637,,1,0,98,88,1,97
,,,,,,,,,,,,,,,,,,,,,,,,,,,,,,,,,,,,,,,,,t,3.02699995,FOOT,FALSE,,,,,,,93,sol,Spanish,Sounds/spa_sol.mp3,2020-06-05_12h50.08.756,TranslationElicitation_eng-prolific,3.2.4,MacIntel,60,5b6f4c673abd820001d6f637,,1,0,98,88,1,97
,,,,,,,,,,,,,,,,,,,,,,,,,,,,,,,,,,,,,,,,,return,3.638999939,FOOT,FALSE,,,,,,,93,sol,Spanish,Sounds/spa_sol.mp3,2020-06-05_12h50.08.756,TranslationElicitation_eng-prolific,3.2.4,MacIntel,60,5b6f4c673abd820001d6f637,3.638999939,1,0,98,88,1,97
,,,,,,,,,,,,,,,,,,,,,,,,,,,,,,,,,,,,,,,,,,,,,,,,,,,93,sol,Spanish,Sounds/spa_sol.mp3,2020-06-05_12h50.08.756,TranslationElicitation_eng-prolific,3.2.4,MacIntel,60,5b6f4c673abd820001d6f637,,1,0,98,88,1,97
,,,,,,,,,,,,,,,,,,,,,,,,,,,,,,,,,,,,,,,,,b,2.21600008,B,FALSE,,,,,,,14,burro,Spanish,Sounds/spa_burro.mp3,2020-06-05_12h50.08.756,TranslationElicitation_eng-prolific,3.2.4,MacIntel,60,5b6f4c673abd820001d6f637,,1,0,98,12,1,97
,,,,,,,,,,,,,,,,,,,,,,,,,,,,,,,,,,,,,,,,,u,2.400000095,BU,FALSE,,,,,,,14,burro,Spanish,Sounds/spa_burro.mp3,2020-06-05_12h50.08.756,TranslationElicitation_eng-prolific,3.2.4,MacIntel,60,5b6f4c673abd820001d6f637,,1,0,98,12,1,97
,,,,,,,,,,,,,,,,,,,,,,,,,,,,,,,,,,,,,,,,,t,2.549999952,BUT,FALSE,,,,,,,14,burro,Spanish,Sounds/spa_burro.mp3,2020-06-05_12h50.08.756,TranslationElicitation_eng-prolific,3.2.4,MacIntel,60,5b6f4c673abd820001d6f637,,1,0,98,12,1,97
,,,,,,,,,,,,,,,,,,,,,,,,,,,,,,,,,,,,,,,,,t,2.657000065,BUTT,FALSE,,,,,,,14,burro,Spanish,Sounds/spa_burro.mp3,2020-06-05_12h50.08.756,TranslationElicitation_eng-prolific,3.2.4,MacIntel,60,5b6f4c673abd820001d6f637,,1,0,98,12,1,97
,,,,,,,,,,,,,,,,,,,,,,,,,,,,,,,,,,,,,,,,,e,2.860000134,BUTTE,FALSE,,,,,,,14,burro,Spanish,Sounds/spa_burro.mp3,2020-06-05_12h50.08.756,TranslationElicitation_eng-prolific,3.2.4,MacIntel,60,5b6f4c673abd820001d6f637,,1,0,98,12,1,97
,,,,,,,,,,,,,,,,,,,,,,,,,,,,,,,,,,,,,,,,,r,2.973999977,BUTTER,FALSE,,,,,,,14,burro,Spanish,Sounds/spa_burro.mp3,2020-06-05_12h50.08.756,TranslationElicitation_eng-prolific,3.2.4,MacIntel,60,5b6f4c673abd820001d6f637,,1,0,98,12,1,97
,,,,,,,,,,,,,,,,,,,,,,,,,,,,,,,,,,,,,,,,,return,3.197000027,BUTTER,FALSE,,,,,,,14,burro,Spanish,Sounds/spa_burro.mp3,2020-06-05_12h50.08.756,TranslationElicitation_eng-prolific,3.2.4,MacIntel,60,5b6f4c673abd820001d6f637,3.197000027,1,0,98,12,1,97
,,,,,,,,,,,,,,,,,,,,,,,,,,,,,,,,,,,,,,,,,,,,,,,,,,,14,burro,Spanish,Sounds/spa_burro.mp3,2020-06-05_12h50.08.756,TranslationElicitation_eng-prolific,3.2.4,MacIntel,60,5b6f4c673abd820001d6f637,,1,0,98,12,1,97
,,,,,,,,,,,,,,,,,,,,,,,,,,,,,,,,,,,,,,,,,c,3.569000006,C,FALSE,,,,,,,62,martillo,Spanish,Sounds/spa_martillo.mp3,2020-06-05_12h50.08.756,TranslationElicitation_eng-prolific,3.2.4,MacIntel,60,5b6f4c673abd820001d6f637,,1,0,98,58,1,97
,,,,,,,,,,,,,,,,,,,,,,,,,,,,,,,,,,,,,,,,,h,3.639000177,CH,FALSE,,,,,,,62,martillo,Spanish,Sounds/spa_martillo.mp3,2020-06-05_12h50.08.756,TranslationElicitation_eng-prolific,3.2.4,MacIntel,60,5b6f4c673abd820001d6f637,,1,0,98,58,1,97
,,,,,,,,,,,,,,,,,,,,,,,,,,,,,,,,,,,,,,,,,e,3.766000032,CHE,FALSE,,,,,,,62,martillo,Spanish,Sounds/spa_martillo.mp3,2020-06-05_12h50.08.756,TranslationElicitation_eng-prolific,3.2.4,MacIntel,60,5b6f4c673abd820001d6f637,,1,0,98,58,1,97
,,,,,,,,,,,,,,,,,,,,,,,,,,,,,,,,,,,,,,,,,r,3.940000057,CHER,FALSE,,,,,,,62,martillo,Spanish,Sounds/spa_martillo.mp3,2020-06-05_12h50.08.756,TranslationElicitation_eng-prolific,3.2.4,MacIntel,60,5b6f4c673abd820001d6f637,,1,0,98,58,1,97
,,,,,,,,,,,,,,,,,,,,,,,,,,,,,,,,,,,,,,,,,r,4.052999973,CHERR,FALSE,,,,,,,62,martillo,Spanish,Sounds/spa_martillo.mp3,2020-06-05_12h50.08.756,TranslationElicitation_eng-prolific,3.2.4,MacIntel,60,5b6f4c673abd820001d6f637,,1,0,98,58,1,97
,,,,,,,,,,,,,,,,,,,,,,,,,,,,,,,,,,,,,,,,,y,4.13499999,CHERRY,FALSE,,,,,,,62,martillo,Spanish,Sounds/spa_martillo.mp3,2020-06-05_12h50.08.756,TranslationElicitation_eng-prolific,3.2.4,MacIntel,60,5b6f4c673abd820001d6f637,,1,0,98,58,1,97
,,,,,,,,,,,,,,,,,,,,,,,,,,,,,,,,,,,,,,,,,return,5.200999975,CHERRY,FALSE,,,,,,,62,martillo,Spanish,Sounds/spa_martillo.mp3,2020-06-05_12h50.08.756,TranslationElicitation_eng-prolific,3.2.4,MacIntel,60,5b6f4c673abd820001d6f637,5.200999975,1,0,98,58,1,97
,,,,,,,,,,,,,,,,,,,,,,,,,,,,,,,,,,,,,,,,,,,,,,,,,,,62,martillo,Spanish,Sounds/spa_martillo.mp3,2020-06-05_12h50.08.756,TranslationElicitation_eng-prolific,3.2.4,MacIntel,60,5b6f4c673abd820001d6f637,,1,0,98,58,1,97
,,,,,,,,,,,,,,,,,,,,,,,,,,,,,,,,,,,,,,,,,g,2.640999794,G,FALSE,,,,,,,32,cuchara,Spanish,Sounds/spa_cuchara.mp3,2020-06-05_12h50.08.756,TranslationElicitation_eng-prolific,3.2.4,MacIntel,60,5b6f4c673abd820001d6f637,,1,0,98,28,1,97
,,,,,,,,,,,,,,,,,,,,,,,,,,,,,,,,,,,,,,,,,o,2.801999807,GO,FALSE,,,,,,,32,cuchara,Spanish,Sounds/spa_cuchara.mp3,2020-06-05_12h50.08.756,TranslationElicitation_eng-prolific,3.2.4,MacIntel,60,5b6f4c673abd820001d6f637,,1,0,98,28,1,97
,,,,,,,,,,,,,,,,,,,,,,,,,,,,,,,,,,,,,,,,,o,2.928999901,GOO,FALSE,,,,,,,32,cuchara,Spanish,Sounds/spa_cuchara.mp3,2020-06-05_12h50.08.756,TranslationElicitation_eng-prolific,3.2.4,MacIntel,60,5b6f4c673abd820001d6f637,,1,0,98,28,1,97
,,,,,,,,,,,,,,,,,,,,,,,,,,,,,,,,,,,,,,,,,d,3.030999899,GOOD,FALSE,,,,,,,32,cuchara,Spanish,Sounds/spa_cuchara.mp3,2020-06-05_12h50.08.756,TranslationElicitation_eng-prolific,3.2.4,MacIntel,60,5b6f4c673abd820001d6f637,,1,0,98,28,1,97
,,,,,,,,,,,,,,,,,,,,,,,,,,,,,,,,,,,,,,,,,space,3.146999836,GOOD ,FALSE,,,,,,,32,cuchara,Spanish,Sounds/spa_cuchara.mp3,2020-06-05_12h50.08.756,TranslationElicitation_eng-prolific,3.2.4,MacIntel,60,5b6f4c673abd820001d6f637,,1,0,98,28,1,97
,,,,,,,,,,,,,,,,,,,,,,,,,,,,,,,,,,,,,,,,,d,3.212999821,GOOD D,FALSE,,,,,,,32,cuchara,Spanish,Sounds/spa_cuchara.mp3,2020-06-05_12h50.08.756,TranslationElicitation_eng-prolific,3.2.4,MacIntel,60,5b6f4c673abd820001d6f637,,1,0,98,28,1,97
,,,,,,,,,,,,,,,,,,,,,,,,,,,,,,,,,,,,,,,,,a,3.41899991,GOOD DA,FALSE,,,,,,,32,cuchara,Spanish,Sounds/spa_cuchara.mp3,2020-06-05_12h50.08.756,TranslationElicitation_eng-prolific,3.2.4,MacIntel,60,5b6f4c673abd820001d6f637,,1,0,98,28,1,97
,,,,,,,,,,,,,,,,,,,,,,,,,,,,,,,,,,,,,,,,,y,3.554999828,GOOD DAY,FALSE,,,,,,,32,cuchara,Spanish,Sounds/spa_cuchara.mp3,2020-06-05_12h50.08.756,TranslationElicitation_eng-prolific,3.2.4,MacIntel,60,5b6f4c673abd820001d6f637,,1,0,98,28,1,97
,,,,,,,,,,,,,,,,,,,,,,,,,,,,,,,,,,,,,,,,,return,3.936999798,GOOD DAY,FALSE,,,,,,,32,cuchara,Spanish,Sounds/spa_cuchara.mp3,2020-06-05_12h50.08.756,TranslationElicitation_eng-prolific,3.2.4,MacIntel,60,5b6f4c673abd820001d6f637,3.936999798,1,0,98,28,1,97
,,,,,,,,,,,,,,,,,,,,,,,,,,,,,,,,,,,,,,,,,,,,,,,,,,,32,cuchara,Spanish,Sounds/spa_cuchara.mp3,2020-06-05_12h50.08.756,TranslationElicitation_eng-prolific,3.2.4,MacIntel,60,5b6f4c673abd820001d6f637,,1,0,98,28,1,97
,,,,,,,,,,,,,,,,,,,,,,,,,,,,,,,,,,,,,,,,,b,6.323999882,B,FALSE,,,,,,,6,boca,Spanish,Sounds/spa_boca.mp3,2020-06-05_12h50.08.756,TranslationElicitation_eng-prolific,3.2.4,MacIntel,60,5b6f4c673abd820001d6f637,,1,0,98,4,1,97
,,,,,,,,,,,,,,,,,,,,,,,,,,,,,,,,,,,,,,,,,e,6.664999962,BE,FALSE,,,,,,,6,boca,Spanish,Sounds/spa_boca.mp3,2020-06-05_12h50.08.756,TranslationElicitation_eng-prolific,3.2.4,MacIntel,60,5b6f4c673abd820001d6f637,,1,0,98,4,1,97
,,,,,,,,,,,,,,,,,,,,,,,,,,,,,,,,,,,,,,,,,e,6.823999882,BEE,FALSE,,,,,,,6,boca,Spanish,Sounds/spa_boca.mp3,2020-06-05_12h50.08.756,TranslationElicitation_eng-prolific,3.2.4,MacIntel,60,5b6f4c673abd820001d6f637,,1,0,98,4,1,97
,,,,,,,,,,,,,,,,,,,,,,,,,,,,,,,,,,,,,,,,,r,7.007999897,BEER,FALSE,,,,,,,6,boca,Spanish,Sounds/spa_boca.mp3,2020-06-05_12h50.08.756,TranslationElicitation_eng-prolific,3.2.4,MacIntel,60,5b6f4c673abd820001d6f637,,1,0,98,4,1,97
,,,,,,,,,,,,,,,,,,,,,,,,,,,,,,,,,,,,,,,,,return,7.513000011,BEER,FALSE,,,,,,,6,boca,Spanish,Sounds/spa_boca.mp3,2020-06-05_12h50.08.756,TranslationElicitation_eng-prolific,3.2.4,MacIntel,60,5b6f4c673abd820001d6f637,7.513000011,1,0,98,4,1,97
,,,,,,,,,,,,,,,,,,,,,,,,,,,,,,,,,,,,,,,,,,,,,,,,,,,6,boca,Spanish,Sounds/spa_boca.mp3,2020-06-05_12h50.08.756,TranslationElicitation_eng-prolific,3.2.4,MacIntel,60,5b6f4c673abd820001d6f637,,1,0,98,4,1,97
,,,,,,,,,,,,,,,,,,,,,,,,,,,,,,,,,,,,,,,,,t,2.756000042,T,FALSE,,,,,,,2,avestruz,Spanish,Sounds/spa_avestruz.mp3,2020-06-05_12h50.08.756,TranslationElicitation_eng-prolific,3.2.4,MacIntel,60,5b6f4c673abd820001d6f637,,1,0,98,0,1,97
,,,,,,,,,,,,,,,,,,,,,,,,,,,,,,,,,,,,,,,,,r,2.927000046,TR,FALSE,,,,,,,2,avestruz,Spanish,Sounds/spa_avestruz.mp3,2020-06-05_12h50.08.756,TranslationElicitation_eng-prolific,3.2.4,MacIntel,60,5b6f4c673abd820001d6f637,,1,0,98,0,1,97
,,,,,,,,,,,,,,,,,,,,,,,,,,,,,,,,,,,,,,,,,u,3.037999868,TRU,FALSE,,,,,,,2,avestruz,Spanish,Sounds/spa_avestruz.mp3,2020-06-05_12h50.08.756,TranslationElicitation_eng-prolific,3.2.4,MacIntel,60,5b6f4c673abd820001d6f637,,1,0,98,0,1,97
,,,,,,,,,,,,,,,,,,,,,,,,,,,,,,,,,,,,,,,,,t,3.125,TRUT,FALSE,,,,,,,2,avestruz,Spanish,Sounds/spa_avestruz.mp3,2020-06-05_12h50.08.756,TranslationElicitation_eng-prolific,3.2.4,MacIntel,60,5b6f4c673abd820001d6f637,,1,0,98,0,1,97
,,,,,,,,,,,,,,,,,,,,,,,,,,,,,,,,,,,,,,,,,h,3.23300004,TRUTH,FALSE,,,,,,,2,avestruz,Spanish,Sounds/spa_avestruz.mp3,2020-06-05_12h50.08.756,TranslationElicitation_eng-prolific,3.2.4,MacIntel,60,5b6f4c673abd820001d6f637,,1,0,98,0,1,97
,,,,,,,,,,,,,,,,,,,,,,,,,,,,,,,,,,,,,,,,,return,3.596999884,TRUTH,FALSE,,,,,,,2,avestruz,Spanish,Sounds/spa_avestruz.mp3,2020-06-05_12h50.08.756,TranslationElicitation_eng-prolific,3.2.4,MacIntel,60,5b6f4c673abd820001d6f637,3.596999884,1,0,98,0,1,97
,,,,,,,,,,,,,,,,,,,,,,,,,,,,,,,,,,,,,,,,,,,,,,,,,,,2,avestruz,Spanish,Sounds/spa_avestruz.mp3,2020-06-05_12h50.08.756,TranslationElicitation_eng-prolific,3.2.4,MacIntel,60,5b6f4c673abd820001d6f637,,1,0,98,0,1,97
,,,,,,,,,,,,,,,,,,,,,,,,,,,,,,,,,,,,,,,,,p,2.400000095,P,FALSE,,,,,,,83,pez,Spanish,Sounds/spa_pez.mp3,2020-06-05_12h50.08.756,TranslationElicitation_eng-prolific,3.2.4,MacIntel,60,5b6f4c673abd820001d6f637,,1,0,98,78,1,97
,,,,,,,,,,,,,,,,,,,,,,,,,,,,,,,,,,,,,,,,,e,2.493000031,PE,FALSE,,,,,,,83,pez,Spanish,Sounds/spa_pez.mp3,2020-06-05_12h50.08.756,TranslationElicitation_eng-prolific,3.2.4,MacIntel,60,5b6f4c673abd820001d6f637,,1,0,98,78,1,97
,,,,,,,,,,,,,,,,,,,,,,,,,,,,,,,,,,,,,,,,,a,2.594000101,PEA,FALSE,,,,,,,83,pez,Spanish,Sounds/spa_pez.mp3,2020-06-05_12h50.08.756,TranslationElicitation_eng-prolific,3.2.4,MacIntel,60,5b6f4c673abd820001d6f637,,1,0,98,78,1,97
,,,,,,,,,,,,,,,,,,,,,,,,,,,,,,,,,,,,,,,,,r,2.72300005,PEAR,FALSE,,,,,,,83,pez,Spanish,Sounds/spa_pez.mp3,2020-06-05_12h50.08.756,TranslationElicitation_eng-prolific,3.2.4,MacIntel,60,5b6f4c673abd820001d6f637,,1,0,98,78,1,97
,,,,,,,,,,,,,,,,,,,,,,,,,,,,,,,,,,,,,,,,,return,3.167000055,PEAR,FALSE,,,,,,,83,pez,Spanish,Sounds/spa_pez.mp3,2020-06-05_12h50.08.756,TranslationElicitation_eng-prolific,3.2.4,MacIntel,60,5b6f4c673abd820001d6f637,3.167000055,1,0,98,78,1,97
,,,,,,,,,,,,,,,,,,,,,,,,,,,,,,,,,,,,,,,,,,,,,,,,,,,83,pez,Spanish,Sounds/spa_pez.mp3,2020-06-05_12h50.08.756,TranslationElicitation_eng-prolific,3.2.4,MacIntel,60,5b6f4c673abd820001d6f637,,1,0,98,78,1,97
,,,,,,,,,,,,,,,,,,,,,,,,,,,,,,,,,,,,,,,,,b,5.519999981,B,FALSE,,,,,,,24,cereza,Spanish,Sounds/spa_cereza.mp3,2020-06-05_12h50.08.756,TranslationElicitation_eng-prolific,3.2.4,MacIntel,60,5b6f4c673abd820001d6f637,,1,0,98,22,1,97
,,,,,,,,,,,,,,,,,,,,,,,,,,,,,,,,,,,,,,,,,e,5.632999897,BE,FALSE,,,,,,,24,cereza,Spanish,Sounds/spa_cereza.mp3,2020-06-05_12h50.08.756,TranslationElicitation_eng-prolific,3.2.4,MacIntel,60,5b6f4c673abd820001d6f637,,1,0,98,22,1,97
,,,,,,,,,,,,,,,,,,,,,,,,,,,,,,,,,,,,,,,,,e,5.749000072,BEE,FALSE,,,,,,,24,cereza,Spanish,Sounds/spa_cereza.mp3,2020-06-05_12h50.08.756,TranslationElicitation_eng-prolific,3.2.4,MacIntel,60,5b6f4c673abd820001d6f637,,1,0,98,22,1,97
,,,,,,,,,,,,,,,,,,,,,,,,,,,,,,,,,,,,,,,,,r,5.909999847,BEER,FALSE,,,,,,,24,cereza,Spanish,Sounds/spa_cereza.mp3,2020-06-05_12h50.08.756,TranslationElicitation_eng-prolific,3.2.4,MacIntel,60,5b6f4c673abd820001d6f637,,1,0,98,22,1,97
,,,,,,,,,,,,,,,,,,,,,,,,,,,,,,,,,,,,,,,,,return,6.101999998,BEER,FALSE,,,,,,,24,cereza,Spanish,Sounds/spa_cereza.mp3,2020-06-05_12h50.08.756,TranslationElicitation_eng-prolific,3.2.4,MacIntel,60,5b6f4c673abd820001d6f637,6.101999998,1,0,98,22,1,97
,,,,,,,,,,,,,,,,,,,,,,,,,,,,,,,,,,,,,,,,,,,,,,,,,,,24,cereza,Spanish,Sounds/spa_cereza.mp3,2020-06-05_12h50.08.756,TranslationElicitation_eng-prolific,3.2.4,MacIntel,60,5b6f4c673abd820001d6f637,,1,0,98,22,1,97
,,,,,,,,,,,,,,,,,,,,,,,,,,,,,,,,,,,,,,,,,c,1.710000038,C,FALSE,,,,,,,27,chocolate,Spanish,Sounds/spa_chocolate.mp3,2020-06-05_12h50.08.756,TranslationElicitation_eng-prolific,3.2.4,MacIntel,60,5b6f4c673abd820001d6f637,,1,0,98,24,1,97
,,,,,,,,,,,,,,,,,,,,,,,,,,,,,,,,,,,,,,,,,h,1.877000093,CH,FALSE,,,,,,,27,chocolate,Spanish,Sounds/spa_chocolate.mp3,2020-06-05_12h50.08.756,TranslationElicitation_eng-prolific,3.2.4,MacIntel,60,5b6f4c673abd820001d6f637,,1,0,98,24,1,97
,,,,,,,,,,,,,,,,,,,,,,,,,,,,,,,,,,,,,,,,,o,2.367000103,CHO,FALSE,,,,,,,27,chocolate,Spanish,Sounds/spa_chocolate.mp3,2020-06-05_12h50.08.756,TranslationElicitation_eng-prolific,3.2.4,MacIntel,60,5b6f4c673abd820001d6f637,,1,0,98,24,1,97
,,,,,,,,,,,,,,,,,,,,,,,,,,,,,,,,,,,,,,,,,c,2.565000057,CHOC,FALSE,,,,,,,27,chocolate,Spanish,Sounds/spa_chocolate.mp3,2020-06-05_12h50.08.756,TranslationElicitation_eng-prolific,3.2.4,MacIntel,60,5b6f4c673abd820001d6f637,,1,0,98,24,1,97
,,,,,,,,,,,,,,,,,,,,,,,,,,,,,,,,,,,,,,,,,o,2.660000086,CHOCO,FALSE,,,,,,,27,chocolate,Spanish,Sounds/spa_chocolate.mp3,2020-06-05_12h50.08.756,TranslationElicitation_eng-prolific,3.2.4,MacIntel,60,5b6f4c673abd820001d6f637,,1,0,98,24,1,97
,,,,,,,,,,,,,,,,,,,,,,,,,,,,,,,,,,,,,,,,,l,2.791000128,CHOCOL,FALSE,,,,,,,27,chocolate,Spanish,Sounds/spa_chocolate.mp3,2020-06-05_12h50.08.756,TranslationElicitation_eng-prolific,3.2.4,MacIntel,60,5b6f4c673abd820001d6f637,,1,0,98,24,1,97
,,,,,,,,,,,,,,,,,,,,,,,,,,,,,,,,,,,,,,,,,a,2.874000072,CHOCOLA,FALSE,,,,,,,27,chocolate,Spanish,Sounds/spa_chocolate.mp3,2020-06-05_12h50.08.756,TranslationElicitation_eng-prolific,3.2.4,MacIntel,60,5b6f4c673abd820001d6f637,,1,0,98,24,1,97
,,,,,,,,,,,,,,,,,,,,,,,,,,,,,,,,,,,,,,,,,t,3.110000134,CHOCOLAT,FALSE,,,,,,,27,chocolate,Spanish,Sounds/spa_chocolate.mp3,2020-06-05_12h50.08.756,TranslationElicitation_eng-prolific,3.2.4,MacIntel,60,5b6f4c673abd820001d6f637,,1,0,98,24,1,97
,,,,,,,,,,,,,,,,,,,,,,,,,,,,,,,,,,,,,,,,,e,3.288000107,CHOCOLATE,FALSE,,,,,,,27,chocolate,Spanish,Sounds/spa_chocolate.mp3,2020-06-05_12h50.08.756,TranslationElicitation_eng-prolific,3.2.4,MacIntel,60,5b6f4c673abd820001d6f637,,1,0,98,24,1,97
,,,,,,,,,,,,,,,,,,,,,,,,,,,,,,,,,,,,,,,,,return,3.489000082,CHOCOLATE,FALSE,,,,,,,27,chocolate,Spanish,Sounds/spa_chocolate.mp3,2020-06-05_12h50.08.756,TranslationElicitation_eng-prolific,3.2.4,MacIntel,60,5b6f4c673abd820001d6f637,3.489000082,1,0,98,24,1,97
,,,,,,,,,,,,,,,,,,,,,,,,,,,,,,,,,,,,,,,,,,,,,,,,,,,27,chocolate,Spanish,Sounds/spa_chocolate.mp3,2020-06-05_12h50.08.756,TranslationElicitation_eng-prolific,3.2.4,MacIntel,60,5b6f4c673abd820001d6f637,,1,0,98,24,1,97
,,,,,,,,,,,,,,,,,,,,,,,,,,,,,,,,,,,,,,,,,s,1.595999956,S,FALSE,,,,,,,92,sandwich,Spanish,Sounds/spa_sandwich.mp3,2020-06-05_12h50.08.756,TranslationElicitation_eng-prolific,3.2.4,MacIntel,60,5b6f4c673abd820001d6f637,,1,0,98,87,1,97
,,,,,,,,,,,,,,,,,,,,,,,,,,,,,,,,,,,,,,,,,a,2.146999836,SA,FALSE,,,,,,,92,sandwich,Spanish,Sounds/spa_sandwich.mp3,2020-06-05_12h50.08.756,TranslationElicitation_eng-prolific,3.2.4,MacIntel,60,5b6f4c673abd820001d6f637,,1,0,98,87,1,97
,,,,,,,,,,,,,,,,,,,,,,,,,,,,,,,,,,,,,,,,,n,2.330999851,SAN,FALSE,,,,,,,92,sandwich,Spanish,Sounds/spa_sandwich.mp3,2020-06-05_12h50.08.756,TranslationElicitation_eng-prolific,3.2.4,MacIntel,60,5b6f4c673abd820001d6f637,,1,0,98,87,1,97
,,,,,,,,,,,,,,,,,,,,,,,,,,,,,,,,,,,,,,,,,d,2.398000002,SAND,FALSE,,,,,,,92,sandwich,Spanish,Sounds/spa_sandwich.mp3,2020-06-05_12h50.08.756,TranslationElicitation_eng-prolific,3.2.4,MacIntel,60,5b6f4c673abd820001d6f637,,1,0,98,87,1,97
,,,,,,,,,,,,,,,,,,,,,,,,,,,,,,,,,,,,,,,,,w,2.585999966,SANDW,FALSE,,,,,,,92,sandwich,Spanish,Sounds/spa_sandwich.mp3,2020-06-05_12h50.08.756,TranslationElicitation_eng-prolific,3.2.4,MacIntel,60,5b6f4c673abd820001d6f637,,1,0,98,87,1,97
,,,,,,,,,,,,,,,,,,,,,,,,,,,,,,,,,,,,,,,,,i,2.697999954,SANDWI,FALSE,,,,,,,92,sandwich,Spanish,Sounds/spa_sandwich.mp3,2020-06-05_12h50.08.756,TranslationElicitation_eng-prolific,3.2.4,MacIntel,60,5b6f4c673abd820001d6f637,,1,0,98,87,1,97
,,,,,,,,,,,,,,,,,,,,,,,,,,,,,,,,,,,,,,,,,c,2.81099987,SANDWIC,FALSE,,,,,,,92,sandwich,Spanish,Sounds/spa_sandwich.mp3,2020-06-05_12h50.08.756,TranslationElicitation_eng-prolific,3.2.4,MacIntel,60,5b6f4c673abd820001d6f637,,1,0,98,87,1,97
,,,,,,,,,,,,,,,,,,,,,,,,,,,,,,,,,,,,,,,,,h,2.93599987,SANDWICH,FALSE,,,,,,,92,sandwich,Spanish,Sounds/spa_sandwich.mp3,2020-06-05_12h50.08.756,TranslationElicitation_eng-prolific,3.2.4,MacIntel,60,5b6f4c673abd820001d6f637,,1,0,98,87,1,97
,,,,,,,,,,,,,,,,,,,,,,,,,,,,,,,,,,,,,,,,,return,3.662999868,SANDWICH,FALSE,,,,,,,92,sandwich,Spanish,Sounds/spa_sandwich.mp3,2020-06-05_12h50.08.756,TranslationElicitation_eng-prolific,3.2.4,MacIntel,60,5b6f4c673abd820001d6f637,3.662999868,1,0,98,87,1,97
,,,,,,,,,,,,,,,,,,,,,,,,,,,,,,,,,,,,,,,,,,,,,,,,,,,92,sandwich,Spanish,Sounds/spa_sandwich.mp3,2020-06-05_12h50.08.756,TranslationElicitation_eng-prolific,3.2.4,MacIntel,60,5b6f4c673abd820001d6f637,,1,0,98,87,1,97
,,,,,,,,,,,,,,,,,,,,,,,,,,,,,,,,,,,,,,,,,b,2.020999908,B,FALSE,,,,,,,11,boton,Spanish,Sounds/spa_boton.mp3,2020-06-05_12h50.08.756,TranslationElicitation_eng-prolific,3.2.4,MacIntel,60,5b6f4c673abd820001d6f637,,1,0,98,9,1,97
,,,,,,,,,,,,,,,,,,,,,,,,,,,,,,,,,,,,,,,,,u,2.145999908,BU,FALSE,,,,,,,11,boton,Spanish,Sounds/spa_boton.mp3,2020-06-05_12h50.08.756,TranslationElicitation_eng-prolific,3.2.4,MacIntel,60,5b6f4c673abd820001d6f637,,1,0,98,9,1,97
,,,,,,,,,,,,,,,,,,,,,,,,,,,,,,,,,,,,,,,,,t,2.28399992,BUT,FALSE,,,,,,,11,boton,Spanish,Sounds/spa_boton.mp3,2020-06-05_12h50.08.756,TranslationElicitation_eng-prolific,3.2.4,MacIntel,60,5b6f4c673abd820001d6f637,,1,0,98,9,1,97
,,,,,,,,,,,,,,,,,,,,,,,,,,,,,,,,,,,,,,,,,t,2.405999899,BUTT,FALSE,,,,,,,11,boton,Spanish,Sounds/spa_boton.mp3,2020-06-05_12h50.08.756,TranslationElicitation_eng-prolific,3.2.4,MacIntel,60,5b6f4c673abd820001d6f637,,1,0,98,9,1,97
,,,,,,,,,,,,,,,,,,,,,,,,,,,,,,,,,,,,,,,,,o,2.503000021,BUTTO,FALSE,,,,,,,11,boton,Spanish,Sounds/spa_boton.mp3,2020-06-05_12h50.08.756,TranslationElicitation_eng-prolific,3.2.4,MacIntel,60,5b6f4c673abd820001d6f637,,1,0,98,9,1,97
,,,,,,,,,,,,,,,,,,,,,,,,,,,,,,,,,,,,,,,,,n,2.654999971,BUTTON,FALSE,,,,,,,11,boton,Spanish,Sounds/spa_boton.mp3,2020-06-05_12h50.08.756,TranslationElicitation_eng-prolific,3.2.4,MacIntel,60,5b6f4c673abd820001d6f637,,1,0,98,9,1,97
,,,,,,,,,,,,,,,,,,,,,,,,,,,,,,,,,,,,,,,,,return,2.955999851,BUTTON,FALSE,,,,,,,11,boton,Spanish,Sounds/spa_boton.mp3,2020-06-05_12h50.08.756,TranslationElicitation_eng-prolific,3.2.4,MacIntel,60,5b6f4c673abd820001d6f637,2.955999851,1,0,98,9,1,97
,,,,,,,,,,,,,,,,,,,,,,,,,,,,,,,,,,,,,,,,,,,,,,,,,,,11,boton,Spanish,Sounds/spa_boton.mp3,2020-06-05_12h50.08.756,TranslationElicitation_eng-prolific,3.2.4,MacIntel,60,5b6f4c673abd820001d6f637,,1,0,98,9,1,97
,,,,,,,,,,,,,,,,,,,,,,,,,,,,,,,,,,,,,,,,,l,3.198999882,L,FALSE,,,,,,,57,loro,Spanish,Sounds/spa_loro.mp3,2020-06-05_12h50.08.756,TranslationElicitation_eng-prolific,3.2.4,MacIntel,60,5b6f4c673abd820001d6f637,,1,0,98,53,1,97
,,,,,,,,,,,,,,,,,,,,,,,,,,,,,,,,,,,,,,,,,a,3.330999851,LA,FALSE,,,,,,,57,loro,Spanish,Sounds/spa_loro.mp3,2020-06-05_12h50.08.756,TranslationElicitation_eng-prolific,3.2.4,MacIntel,60,5b6f4c673abd820001d6f637,,1,0,98,53,1,97
,,,,,,,,,,,,,,,,,,,,,,,,,,,,,,,,,,,,,,,,,w,3.407000065,LAW,FALSE,,,,,,,57,loro,Spanish,Sounds/spa_loro.mp3,2020-06-05_12h50.08.756,TranslationElicitation_eng-prolific,3.2.4,MacIntel,60,5b6f4c673abd820001d6f637,,1,0,98,53,1,97
,,,,,,,,,,,,,,,,,,,,,,,,,,,,,,,,,,,,,,,,,return,3.703000069,LAW,FALSE,,,,,,,57,loro,Spanish,Sounds/spa_loro.mp3,2020-06-05_12h50.08.756,TranslationElicitation_eng-prolific,3.2.4,MacIntel,60,5b6f4c673abd820001d6f637,3.703000069,1,0,98,53,1,97
,,,,,,,,,,,,,,,,,,,,,,,,,,,,,,,,,,,,,,,,,,,,,,,,,,,57,loro,Spanish,Sounds/spa_loro.mp3,2020-06-05_12h50.08.756,TranslationElicitation_eng-prolific,3.2.4,MacIntel,60,5b6f4c673abd820001d6f637,,1,0,98,53,1,97
,,,,,,,,,,,,,,,,,,,,,,,,,,,,,,,,,,,,,,,,,h,4.85800004,H,FALSE,,,,,,,48,gusano,Spanish,Sounds/spa_gusano.mp3,2020-06-05_12h50.08.756,TranslationElicitation_eng-prolific,3.2.4,MacIntel,60,5b6f4c673abd820001d6f637,,1,0,98,44,1,97
,,,,,,,,,,,,,,,,,,,,,,,,,,,,,,,,,,,,,,,,,u,5.046000004,HU,FALSE,,,,,,,48,gusano,Spanish,Sounds/spa_gusano.mp3,2020-06-05_12h50.08.756,TranslationElicitation_eng-prolific,3.2.4,MacIntel,60,5b6f4c673abd820001d6f637,,1,0,98,44,1,97
,,,,,,,,,,,,,,,,,,,,,,,,,,,,,,,,,,,,,,,,,m,5.227999926,HUM,FALSE,,,,,,,48,gusano,Spanish,Sounds/spa_gusano.mp3,2020-06-05_12h50.08.756,TranslationElicitation_eng-prolific,3.2.4,MacIntel,60,5b6f4c673abd820001d6f637,,1,0,98,44,1,97
,,,,,,,,,,,,,,,,,,,,,,,,,,,,,,,,,,,,,,,,,p,5.76699996,HUMP,FALSE,,,,,,,48,gusano,Spanish,Sounds/spa_gusano.mp3,2020-06-05_12h50.08.756,TranslationElicitation_eng-prolific,3.2.4,MacIntel,60,5b6f4c673abd820001d6f637,,1,0,98,44,1,97
,,,,,,,,,,,,,,,,,,,,,,,,,,,,,,,,,,,,,,,,,u,5.950000048,HUMPU,FALSE,,,,,,,48,gusano,Spanish,Sounds/spa_gusano.mp3,2020-06-05_12h50.08.756,TranslationElicitation_eng-prolific,3.2.4,MacIntel,60,5b6f4c673abd820001d6f637,,1,0,98,44,1,97
,,,,,,,,,,,,,,,,,,,,,,,,,,,,,,,,,,,,,,,,,r,6.121000051,HUMPUR,FALSE,,,,,,,48,gusano,Spanish,Sounds/spa_gusano.mp3,2020-06-05_12h50.08.756,TranslationElicitation_eng-prolific,3.2.4,MacIntel,60,5b6f4c673abd820001d6f637,,1,0,98,44,1,97
,,,,,,,,,,,,,,,,,,,,,,,,,,,,,,,,,,,,,,,,,backspace,6.371999979,HUMPU,TRUE,,,,,,,48,gusano,Spanish,Sounds/spa_gusano.mp3,2020-06-05_12h50.08.756,TranslationElicitation_eng-prolific,3.2.4,MacIntel,60,5b6f4c673abd820001d6f637,,1,0,98,44,1,97
,,,,,,,,,,,,,,,,,,,,,,,,,,,,,,,,,,,,,,,,,backspace,6.486999989,HUMP,TRUE,,,,,,,48,gusano,Spanish,Sounds/spa_gusano.mp3,2020-06-05_12h50.08.756,TranslationElicitation_eng-prolific,3.2.4,MacIntel,60,5b6f4c673abd820001d6f637,,1,0,98,44,1,97
,,,,,,,,,,,,,,,,,,,,,,,,,,,,,,,,,,,,,,,,,backspace,6.61500001,HUM,TRUE,,,,,,,48,gusano,Spanish,Sounds/spa_gusano.mp3,2020-06-05_12h50.08.756,TranslationElicitation_eng-prolific,3.2.4,MacIntel,60,5b6f4c673abd820001d6f637,,1,0,98,44,1,97
,,,,,,,,,,,,,,,,,,,,,,,,,,,,,,,,,,,,,,,,,o,7.397000074,HUMO,TRUE,,,,,,,48,gusano,Spanish,Sounds/spa_gusano.mp3,2020-06-05_12h50.08.756,TranslationElicitation_eng-prolific,3.2.4,MacIntel,60,5b6f4c673abd820001d6f637,,1,0,98,44,1,97
,,,,,,,,,,,,,,,,,,,,,,,,,,,,,,,,,,,,,,,,,u,7.602999926,HUMOU,TRUE,,,,,,,48,gusano,Spanish,Sounds/spa_gusano.mp3,2020-06-05_12h50.08.756,TranslationElicitation_eng-prolific,3.2.4,MacIntel,60,5b6f4c673abd820001d6f637,,1,0,98,44,1,97
,,,,,,,,,,,,,,,,,,,,,,,,,,,,,,,,,,,,,,,,,r,7.763000011,HUMOUR,TRUE,,,,,,,48,gusano,Spanish,Sounds/spa_gusano.mp3,2020-06-05_12h50.08.756,TranslationElicitation_eng-prolific,3.2.4,MacIntel,60,5b6f4c673abd820001d6f637,,1,0,98,44,1,97
,,,,,,,,,,,,,,,,,,,,,,,,,,,,,,,,,,,,,,,,,return,8.019000053,HUMOUR,TRUE,,,,,,,48,gusano,Spanish,Sounds/spa_gusano.mp3,2020-06-05_12h50.08.756,TranslationElicitation_eng-prolific,3.2.4,MacIntel,60,5b6f4c673abd820001d6f637,8.019000053,1,0,98,44,1,97
,,,,,,,,,,,,,,,,,,,,,,,,,,,,,,,,,,,,,,,,,,,,,,,,,,,48,gusano,Spanish,Sounds/spa_gusano.mp3,2020-06-05_12h50.08.756,TranslationElicitation_eng-prolific,3.2.4,MacIntel,60,5b6f4c673abd820001d6f637,,1,0,98,44,1,97
,,,,,,,,,,,,,,,,,,,,,,,,,,,,,,,,,,,,,,,,,p,2.011999846,P,FALSE,,,,,,,25,cesta,Spanish,Sounds/spa_cesta.mp3,2020-06-05_12h50.08.756,TranslationElicitation_eng-prolific,3.2.4,MacIntel,60,5b6f4c673abd820001d6f637,,1,0,98,23,1,97
,,,,,,,,,,,,,,,,,,,,,,,,,,,,,,,,,,,,,,,,,a,2.111000061,PA,FALSE,,,,,,,25,cesta,Spanish,Sounds/spa_cesta.mp3,2020-06-05_12h50.08.756,TranslationElicitation_eng-prolific,3.2.4,MacIntel,60,5b6f4c673abd820001d6f637,,1,0,98,23,1,97
,,,,,,,,,,,,,,,,,,,,,,,,,,,,,,,,,,,,,,,,,r,2.25999999,PAR,FALSE,,,,,,,25,cesta,Spanish,Sounds/spa_cesta.mp3,2020-06-05_12h50.08.756,TranslationElicitation_eng-prolific,3.2.4,MacIntel,60,5b6f4c673abd820001d6f637,,1,0,98,23,1,97
,,,,,,,,,,,,,,,,,,,,,,,,,,,,,,,,,,,,,,,,,t,2.411000013,PART,FALSE,,,,,,,25,cesta,Spanish,Sounds/spa_cesta.mp3,2020-06-05_12h50.08.756,TranslationElicitation_eng-prolific,3.2.4,MacIntel,60,5b6f4c673abd820001d6f637,,1,0,98,23,1,97
,,,,,,,,,,,,,,,,,,,,,,,,,,,,,,,,,,,,,,,,,y,2.563999891,PARTY,FALSE,,,,,,,25,cesta,Spanish,Sounds/spa_cesta.mp3,2020-06-05_12h50.08.756,TranslationElicitation_eng-prolific,3.2.4,MacIntel,60,5b6f4c673abd820001d6f637,,1,0,98,23,1,97
,,,,,,,,,,,,,,,,,,,,,,,,,,,,,,,,,,,,,,,,,return,2.773999929,PARTY,FALSE,,,,,,,25,cesta,Spanish,Sounds/spa_cesta.mp3,2020-06-05_12h50.08.756,TranslationElicitation_eng-prolific,3.2.4,MacIntel,60,5b6f4c673abd820001d6f637,2.773999929,1,0,98,23,1,97
,,,,,,,,,,,,,,,,,,,,,,,,,,,,,,,,,,,,,,,,,,,,,,,,,,,25,cesta,Spanish,Sounds/spa_cesta.mp3,2020-06-05_12h50.08.756,TranslationElicitation_eng-prolific,3.2.4,MacIntel,60,5b6f4c673abd820001d6f637,,1,0,98,23,1,97
,,,,,,,,,,,,,,,,,,,,,,,,,,,,,,,,,,,,,,,,,b,1.559999943,B,FALSE,,,,,,,8,bol,Spanish,Sounds/spa_bol.mp3,2020-06-05_12h50.08.756,TranslationElicitation_eng-prolific,3.2.4,MacIntel,60,5b6f4c673abd820001d6f637,,1,0,98,6,1,97
,,,,,,,,,,,,,,,,,,,,,,,,,,,,,,,,,,,,,,,,,a,1.770999908,BA,FALSE,,,,,,,8,bol,Spanish,Sounds/spa_bol.mp3,2020-06-05_12h50.08.756,TranslationElicitation_eng-prolific,3.2.4,MacIntel,60,5b6f4c673abd820001d6f637,,1,0,98,6,1,97
,,,,,,,,,,,,,,,,,,,,,,,,,,,,,,,,,,,,,,,,,l,1.922999859,BAL,FALSE,,,,,,,8,bol,Spanish,Sounds/spa_bol.mp3,2020-06-05_12h50.08.756,TranslationElicitation_eng-prolific,3.2.4,MacIntel,60,5b6f4c673abd820001d6f637,,1,0,98,6,1,97
,,,,,,,,,,,,,,,,,,,,,,,,,,,,,,,,,,,,,,,,,l,2.049000025,BALL,FALSE,,,,,,,8,bol,Spanish,Sounds/spa_bol.mp3,2020-06-05_12h50.08.756,TranslationElicitation_eng-prolific,3.2.4,MacIntel,60,5b6f4c673abd820001d6f637,,1,0,98,6,1,97
,,,,,,,,,,,,,,,,,,,,,,,,,,,,,,,,,,,,,,,,,return,2.804999828,BALL,FALSE,,,,,,,8,bol,Spanish,Sounds/spa_bol.mp3,2020-06-05_12h50.08.756,TranslationElicitation_eng-prolific,3.2.4,MacIntel,60,5b6f4c673abd820001d6f637,2.804999828,1,0,98,6,1,97
,,,,,,,,,,,,,,,,,,,,,,,,,,,,,,,,,,,,,,,,,,,,,,,,,,,8,bol,Spanish,Sounds/spa_bol.mp3,2020-06-05_12h50.08.756,TranslationElicitation_eng-prolific,3.2.4,MacIntel,60,5b6f4c673abd820001d6f637,,1,0,98,6,1,97
,,,,,,,,,,,,,,,,,,,,,,,,,,,,,,,,,,,,,,,,,s,6.460999966,S,FALSE,,,,,,,35,esponja,Spanish,Sounds/spa_esponja.mp3,2020-06-05_12h50.08.756,TranslationElicitation_eng-prolific,3.2.4,MacIntel,60,5b6f4c673abd820001d6f637,,1,0,98,31,1,97
,,,,,,,,,,,,,,,,,,,,,,,,,,,,,,,,,,,,,,,,,p,6.562999964,SP,FALSE,,,,,,,35,esponja,Spanish,Sounds/spa_esponja.mp3,2020-06-05_12h50.08.756,TranslationElicitation_eng-prolific,3.2.4,MacIntel,60,5b6f4c673abd820001d6f637,,1,0,98,31,1,97
,,,,,,,,,,,,,,,,,,,,,,,,,,,,,,,,,,,,,,,,,o,6.773000002,SPO,FALSE,,,,,,,35,esponja,Spanish,Sounds/spa_esponja.mp3,2020-06-05_12h50.08.756,TranslationElicitation_eng-prolific,3.2.4,MacIntel,60,5b6f4c673abd820001d6f637,,1,0,98,31,1,97
,,,,,,,,,,,,,,,,,,,,,,,,,,,,,,,,,,,,,,,,,n,6.913999796,SPON,FALSE,,,,,,,35,esponja,Spanish,Sounds/spa_esponja.mp3,2020-06-05_12h50.08.756,TranslationElicitation_eng-prolific,3.2.4,MacIntel,60,5b6f4c673abd820001d6f637,,1,0,98,31,1,97
,,,,,,,,,,,,,,,,,,,,,,,,,,,,,,,,,,,,,,,,,g,7.023000002,SPONG,FALSE,,,,,,,35,esponja,Spanish,Sounds/spa_esponja.mp3,2020-06-05_12h50.08.756,TranslationElicitation_eng-prolific,3.2.4,MacIntel,60,5b6f4c673abd820001d6f637,,1,0,98,31,1,97
,,,,,,,,,,,,,,,,,,,,,,,,,,,,,,,,,,,,,,,,,e,7.242999792,SPONGE,FALSE,,,,,,,35,esponja,Spanish,Sounds/spa_esponja.mp3,2020-06-05_12h50.08.756,TranslationElicitation_eng-prolific,3.2.4,MacIntel,60,5b6f4c673abd820001d6f637,,1,0,98,31,1,97
,,,,,,,,,,,,,,,,,,,,,,,,,,,,,,,,,,,,,,,,,return,7.681999922,SPONGE,FALSE,,,,,,,35,esponja,Spanish,Sounds/spa_esponja.mp3,2020-06-05_12h50.08.756,TranslationElicitation_eng-prolific,3.2.4,MacIntel,60,5b6f4c673abd820001d6f637,7.681999922,1,0,98,31,1,97
,,,,,,,,,,,,,,,,,,,,,,,,,,,,,,,,,,,,,,,,,,,,,,,,,,,35,esponja,Spanish,Sounds/spa_esponja.mp3,2020-06-05_12h50.08.756,TranslationElicitation_eng-prolific,3.2.4,MacIntel,60,5b6f4c673abd820001d6f637,,1,0,98,31,1,97
,,,,,,,,,,,,,,,,,,,,,,,,,,,,,,,,,,,,,,,,,b,4.148000002,B,FALSE,,,,,,,7,bocadillo,Spanish,Sounds/spa_bocadillo.mp3,2020-06-05_12h50.08.756,TranslationElicitation_eng-prolific,3.2.4,MacIntel,60,5b6f4c673abd820001d6f637,,1,0,98,5,1,97
,,,,,,,,,,,,,,,,,,,,,,,,,,,,,,,,,,,,,,,,,o,4.254999876,BO,FALSE,,,,,,,7,bocadillo,Spanish,Sounds/spa_bocadillo.mp3,2020-06-05_12h50.08.756,TranslationElicitation_eng-prolific,3.2.4,MacIntel,60,5b6f4c673abd820001d6f637,,1,0,98,5,1,97
,,,,,,,,,,,,,,,,,,,,,,,,,,,,,,,,,,,,,,,,,o,4.427000046,BOO,FALSE,,,,,,,7,bocadillo,Spanish,Sounds/spa_bocadillo.mp3,2020-06-05_12h50.08.756,TranslationElicitation_eng-prolific,3.2.4,MacIntel,60,5b6f4c673abd820001d6f637,,1,0,98,5,1,97
,,,,,,,,,,,,,,,,,,,,,,,,,,,,,,,,,,,,,,,,,backspace,5.105999947,BO,TRUE,,,,,,,7,bocadillo,Spanish,Sounds/spa_bocadillo.mp3,2020-06-05_12h50.08.756,TranslationElicitation_eng-prolific,3.2.4,MacIntel,60,5b6f4c673abd820001d6f637,,1,0,98,5,1,97
,,,,,,,,,,,,,,,,,,,,,,,,,,,,,,,,,,,,,,,,,backspace,5.249000072,B,TRUE,,,,,,,7,bocadillo,Spanish,Sounds/spa_bocadillo.mp3,2020-06-05_12h50.08.756,TranslationElicitation_eng-prolific,3.2.4,MacIntel,60,5b6f4c673abd820001d6f637,,1,0,98,5,1,97
,,,,,,,,,,,,,,,,,,,,,,,,,,,,,,,,,,,,,,,,,backspace,5.405999899,,TRUE,,,,,,,7,bocadillo,Spanish,Sounds/spa_bocadillo.mp3,2020-06-05_12h50.08.756,TranslationElicitation_eng-prolific,3.2.4,MacIntel,60,5b6f4c673abd820001d6f637,,1,0,98,5,1,97
,,,,,,,,,,,,,,,,,,,,,,,,,,,,,,,,,,,,,,,,,l,5.782999992,L,TRUE,,,,,,,7,bocadillo,Spanish,Sounds/spa_bocadillo.mp3,2020-06-05_12h50.08.756,TranslationElicitation_eng-prolific,3.2.4,MacIntel,60,5b6f4c673abd820001d6f637,,1,0,98,5,1,97
,,,,,,,,,,,,,,,,,,,,,,,,,,,,,,,,,,,,,,,,,i,5.964999914,LI,TRUE,,,,,,,7,bocadillo,Spanish,Sounds/spa_bocadillo.mp3,2020-06-05_12h50.08.756,TranslationElicitation_eng-prolific,3.2.4,MacIntel,60,5b6f4c673abd820001d6f637,,1,0,98,5,1,97
,,,,,,,,,,,,,,,,,,,,,,,,,,,,,,,,,,,,,,,,,b,6.219000101,LIB,TRUE,,,,,,,7,bocadillo,Spanish,Sounds/spa_bocadillo.mp3,2020-06-05_12h50.08.756,TranslationElicitation_eng-prolific,3.2.4,MacIntel,60,5b6f4c673abd820001d6f637,,1,0,98,5,1,97
,,,,,,,,,,,,,,,,,,,,,,,,,,,,,,,,,,,,,,,,,r,6.538000107,LIBR,TRUE,,,,,,,7,bocadillo,Spanish,Sounds/spa_bocadillo.mp3,2020-06-05_12h50.08.756,TranslationElicitation_eng-prolific,3.2.4,MacIntel,60,5b6f4c673abd820001d6f637,,1,0,98,5,1,97
,,,,,,,,,,,,,,,,,,,,,,,,,,,,,,,,,,,,,,,,,a,6.720000029,LIBRA,TRUE,,,,,,,7,bocadillo,Spanish,Sounds/spa_bocadillo.mp3,2020-06-05_12h50.08.756,TranslationElicitation_eng-prolific,3.2.4,MacIntel,60,5b6f4c673abd820001d6f637,,1,0,98,5,1,97
,,,,,,,,,,,,,,,,,,,,,,,,,,,,,,,,,,,,,,,,,r,6.861999989,LIBRAR,TRUE,,,,,,,7,bocadillo,Spanish,Sounds/spa_bocadillo.mp3,2020-06-05_12h50.08.756,TranslationElicitation_eng-prolific,3.2.4,MacIntel,60,5b6f4c673abd820001d6f637,,1,0,98,5,1,97
,,,,,,,,,,,,,,,,,,,,,,,,,,,,,,,,,,,,,,,,,y,6.993000031,LIBRARY,TRUE,,,,,,,7,bocadillo,Spanish,Sounds/spa_bocadillo.mp3,2020-06-05_12h50.08.756,TranslationElicitation_eng-prolific,3.2.4,MacIntel,60,5b6f4c673abd820001d6f637,,1,0,98,5,1,97
,,,,,,,,,,,,,,,,,,,,,,,,,,,,,,,,,,,,,,,,,return,7.372999907,LIBRARY,TRUE,,,,,,,7,bocadillo,Spanish,Sounds/spa_bocadillo.mp3,2020-06-05_12h50.08.756,TranslationElicitation_eng-prolific,3.2.4,MacIntel,60,5b6f4c673abd820001d6f637,7.372999907,1,0,98,5,1,97
,,,,,,,,,,,,,,,,,,,,,,,,,,,,,,,,,,,,,,,,,,,,,,,,,,,7,bocadillo,Spanish,Sounds/spa_bocadillo.mp3,2020-06-05_12h50.08.756,TranslationElicitation_eng-prolific,3.2.4,MacIntel,60,5b6f4c673abd820001d6f637,,1,0,98,5,1,97
,,,,,,,,,,,,,,,,,,,,,,,,,,,,,,,,,,,,,,,,,p,4.507999897,P,FALSE,,,,,,,78,pastel,Spanish,Sounds/spa_pastel.mp3,2020-06-05_12h50.08.756,TranslationElicitation_eng-prolific,3.2.4,MacIntel,60,5b6f4c673abd820001d6f637,,1,0,98,73,1,97
,,,,,,,,,,,,,,,,,,,,,,,,,,,,,,,,,,,,,,,,,i,4.751999855,PI,FALSE,,,,,,,78,pastel,Spanish,Sounds/spa_pastel.mp3,2020-06-05_12h50.08.756,TranslationElicitation_eng-prolific,3.2.4,MacIntel,60,5b6f4c673abd820001d6f637,,1,0,98,73,1,97
,,,,,,,,,,,,,,,,,,,,,,,,,,,,,,,,,,,,,,,,,l,4.993999958,PIL,FALSE,,,,,,,78,pastel,Spanish,Sounds/spa_pastel.mp3,2020-06-05_12h50.08.756,TranslationElicitation_eng-prolific,3.2.4,MacIntel,60,5b6f4c673abd820001d6f637,,1,0,98,73,1,97
,,,,,,,,,,,,,,,,,,,,,,,,,,,,,,,,,,,,,,,,,l,5.131999969,PILL,FALSE,,,,,,,78,pastel,Spanish,Sounds/spa_pastel.mp3,2020-06-05_12h50.08.756,TranslationElicitation_eng-prolific,3.2.4,MacIntel,60,5b6f4c673abd820001d6f637,,1,0,98,73,1,97
,,,,,,,,,,,,,,,,,,,,,,,,,,,,,,,,,,,,,,,,,s,5.287999868,PILLS,FALSE,,,,,,,78,pastel,Spanish,Sounds/spa_pastel.mp3,2020-06-05_12h50.08.756,TranslationElicitation_eng-prolific,3.2.4,MacIntel,60,5b6f4c673abd820001d6f637,,1,0,98,73,1,97
,,,,,,,,,,,,,,,,,,,,,,,,,,,,,,,,,,,,,,,,,return,6.236000061,PILLS,FALSE,,,,,,,78,pastel,Spanish,Sounds/spa_pastel.mp3,2020-06-05_12h50.08.756,TranslationElicitation_eng-prolific,3.2.4,MacIntel,60,5b6f4c673abd820001d6f637,6.236000061,1,0,98,73,1,97
,,,,,,,,,,,,,,,,,,,,,,,,,,,,,,,,,,,,,,,,,,,,,,,,,,,78,pastel,Spanish,Sounds/spa_pastel.mp3,2020-06-05_12h50.08.756,TranslationElicitation_eng-prolific,3.2.4,MacIntel,60,5b6f4c673abd820001d6f637,,1,0,98,73,1,97
,,,,,,,,,,,,,,,,,,,,,,,,,,,,,,,,,,,,,,,,,t,2.5,T,FALSE,,,,,,,98,tobogan,Spanish,Sounds/spa_tobogan.mp3,2020-06-05_12h50.08.756,TranslationElicitation_eng-prolific,3.2.4,MacIntel,60,5b6f4c673abd820001d6f637,,1,0,98,92,1,97
,,,,,,,,,,,,,,,,,,,,,,,,,,,,,,,,,,,,,,,,,o,2.603999853,TO,FALSE,,,,,,,98,tobogan,Spanish,Sounds/spa_tobogan.mp3,2020-06-05_12h50.08.756,TranslationElicitation_eng-prolific,3.2.4,MacIntel,60,5b6f4c673abd820001d6f637,,1,0,98,92,1,97
,,,,,,,,,,,,,,,,,,,,,,,,,,,,,,,,,,,,,,,,,b,2.755999804,TOB,FALSE,,,,,,,98,tobogan,Spanish,Sounds/spa_tobogan.mp3,2020-06-05_12h50.08.756,TranslationElicitation_eng-prolific,3.2.4,MacIntel,60,5b6f4c673abd820001d6f637,,1,0,98,92,1,97
,,,,,,,,,,,,,,,,,,,,,,,,,,,,,,,,,,,,,,,,,a,3.070999861,TOBA,FALSE,,,,,,,98,tobogan,Spanish,Sounds/spa_tobogan.mp3,2020-06-05_12h50.08.756,TranslationElicitation_eng-prolific,3.2.4,MacIntel,60,5b6f4c673abd820001d6f637,,1,0,98,92,1,97
,,,,,,,,,,,,,,,,,,,,,,,,,,,,,,,,,,,,,,,,,g,3.657999992,TOBAG,FALSE,,,,,,,98,tobogan,Spanish,Sounds/spa_tobogan.mp3,2020-06-05_12h50.08.756,TranslationElicitation_eng-prolific,3.2.4,MacIntel,60,5b6f4c673abd820001d6f637,,1,0,98,92,1,97
,,,,,,,,,,,,,,,,,,,,,,,,,,,,,,,,,,,,,,,,,g,3.806999922,TOBAGG,FALSE,,,,,,,98,tobogan,Spanish,Sounds/spa_tobogan.mp3,2020-06-05_12h50.08.756,TranslationElicitation_eng-prolific,3.2.4,MacIntel,60,5b6f4c673abd820001d6f637,,1,0,98,92,1,97
,,,,,,,,,,,,,,,,,,,,,,,,,,,,,,,,,,,,,,,,,o,3.893999815,TOBAGGO,FALSE,,,,,,,98,tobogan,Spanish,Sounds/spa_tobogan.mp3,2020-06-05_12h50.08.756,TranslationElicitation_eng-prolific,3.2.4,MacIntel,60,5b6f4c673abd820001d6f637,,1,0,98,92,1,97
,,,,,,,,,,,,,,,,,,,,,,,,,,,,,,,,,,,,,,,,,n,4.014999866,TOBAGGON,FALSE,,,,,,,98,tobogan,Spanish,Sounds/spa_tobogan.mp3,2020-06-05_12h50.08.756,TranslationElicitation_eng-prolific,3.2.4,MacIntel,60,5b6f4c673abd820001d6f637,,1,0,98,92,1,97
,,,,,,,,,,,,,,,,,,,,,,,,,,,,,,,,,,,,,,,,,return,4.448999882,TOBAGGON,FALSE,,,,,,,98,tobogan,Spanish,Sounds/spa_tobogan.mp3,2020-06-05_12h50.08.756,TranslationElicitation_eng-prolific,3.2.4,MacIntel,60,5b6f4c673abd820001d6f637,4.448999882,1,0,98,92,1,97
,,,,,,,,,,,,,,,,,,,,,,,,,,,,,,,,,,,,,,,,,,,,,,,,,,,98,tobogan,Spanish,Sounds/spa_tobogan.mp3,2020-06-05_12h50.08.756,TranslationElicitation_eng-prolific,3.2.4,MacIntel,60,5b6f4c673abd820001d6f637,,1,0,98,92,1,97
,,,,,,,,,,,,,,,,,,,,,,,,,,,,,,,,,,,,,,,,,c,1.645999908,C,FALSE,,,,,,,90,pollo,Spanish,Sounds/spa_pollo.mp3,2020-06-05_12h50.08.756,TranslationElicitation_eng-prolific,3.2.4,MacIntel,60,5b6f4c673abd820001d6f637,,1,0,98,85,1,97
,,,,,,,,,,,,,,,,,,,,,,,,,,,,,,,,,,,,,,,,,h,1.782999992,CH,FALSE,,,,,,,90,pollo,Spanish,Sounds/spa_pollo.mp3,2020-06-05_12h50.08.756,TranslationElicitation_eng-prolific,3.2.4,MacIntel,60,5b6f4c673abd820001d6f637,,1,0,98,85,1,97
,,,,,,,,,,,,,,,,,,,,,,,,,,,,,,,,,,,,,,,,,i,1.98300004,CHI,FALSE,,,,,,,90,pollo,Spanish,Sounds/spa_pollo.mp3,2020-06-05_12h50.08.756,TranslationElicitation_eng-prolific,3.2.4,MacIntel,60,5b6f4c673abd820001d6f637,,1,0,98,85,1,97
,,,,,,,,,,,,,,,,,,,,,,,,,,,,,,,,,,,,,,,,,c,2.104000092,CHIC,FALSE,,,,,,,90,pollo,Spanish,Sounds/spa_pollo.mp3,2020-06-05_12h50.08.756,TranslationElicitation_eng-prolific,3.2.4,MacIntel,60,5b6f4c673abd820001d6f637,,1,0,98,85,1,97
,,,,,,,,,,,,,,,,,,,,,,,,,,,,,,,,,,,,,,,,,k,2.391000032,CHICK,FALSE,,,,,,,90,pollo,Spanish,Sounds/spa_pollo.mp3,2020-06-05_12h50.08.756,TranslationElicitation_eng-prolific,3.2.4,MacIntel,60,5b6f4c673abd820001d6f637,,1,0,98,85,1,97
,,,,,,,,,,,,,,,,,,,,,,,,,,,,,,,,,,,,,,,,,e,2.525000095,CHICKE,FALSE,,,,,,,90,pollo,Spanish,Sounds/spa_pollo.mp3,2020-06-05_12h50.08.756,TranslationElicitation_eng-prolific,3.2.4,MacIntel,60,5b6f4c673abd820001d6f637,,1,0,98,85,1,97
,,,,,,,,,,,,,,,,,,,,,,,,,,,,,,,,,,,,,,,,,n,2.638999939,CHICKEN,FALSE,,,,,,,90,pollo,Spanish,Sounds/spa_pollo.mp3,2020-06-05_12h50.08.756,TranslationElicitation_eng-prolific,3.2.4,MacIntel,60,5b6f4c673abd820001d6f637,,1,0,98,85,1,97
,,,,,,,,,,,,,,,,,,,,,,,,,,,,,,,,,,,,,,,,,return,2.970999956,CHICKEN,FALSE,,,,,,,90,pollo,Spanish,Sounds/spa_pollo.mp3,2020-06-05_12h50.08.756,TranslationElicitation_eng-prolific,3.2.4,MacIntel,60,5b6f4c673abd820001d6f637,2.970999956,1,0,98,85,1,97
,,,,,,,,,,,,,,,,,,,,,,,,,,,,,,,,,,,,,,,,,,,,,,,,,,,90,pollo,Spanish,Sounds/spa_pollo.mp3,2020-06-05_12h50.08.756,TranslationElicitation_eng-prolific,3.2.4,MacIntel,60,5b6f4c673abd820001d6f637,,1,0,98,85,1,97
,,,,,,,,,,,,,,,,,,,,,,,,,,,,,,,,,,,,,,,,,m,1.745999813,M,FALSE,,,,,,,53,leche,Spanish,Sounds/spa_leche.mp3,2020-06-05_12h50.08.756,TranslationElicitation_eng-prolific,3.2.4,MacIntel,60,5b6f4c673abd820001d6f637,,1,0,98,49,1,97
,,,,,,,,,,,,,,,,,,,,,,,,,,,,,,,,,,,,,,,,,i,1.870999813,MI,FALSE,,,,,,,53,leche,Spanish,Sounds/spa_leche.mp3,2020-06-05_12h50.08.756,TranslationElicitation_eng-prolific,3.2.4,MacIntel,60,5b6f4c673abd820001d6f637,,1,0,98,49,1,97
,,,,,,,,,,,,,,,,,,,,,,,,,,,,,,,,,,,,,,,,,l,2.071999788,MIL,FALSE,,,,,,,53,leche,Spanish,Sounds/spa_leche.mp3,2020-06-05_12h50.08.756,TranslationElicitation_eng-prolific,3.2.4,MacIntel,60,5b6f4c673abd820001d6f637,,1,0,98,49,1,97
,,,,,,,,,,,,,,,,,,,,,,,,,,,,,,,,,,,,,,,,,k,2.229999781,MILK,FALSE,,,,,,,53,leche,Spanish,Sounds/spa_leche.mp3,2020-06-05_12h50.08.756,TranslationElicitation_eng-prolific,3.2.4,MacIntel,60,5b6f4c673abd820001d6f637,,1,0,98,49,1,97
,,,,,,,,,,,,,,,,,,,,,,,,,,,,,,,,,,,,,,,,,return,2.679999828,MILK,FALSE,,,,,,,53,leche,Spanish,Sounds/spa_leche.mp3,2020-06-05_12h50.08.756,TranslationElicitation_eng-prolific,3.2.4,MacIntel,60,5b6f4c673abd820001d6f637,2.679999828,1,0,98,49,1,97
,,,,,,,,,,,,,,,,,,,,,,,,,,,,,,,,,,,,,,,,,,,,,,,,,,,53,leche,Spanish,Sounds/spa_leche.mp3,2020-06-05_12h50.08.756,TranslationElicitation_eng-prolific,3.2.4,MacIntel,60,5b6f4c673abd820001d6f637,,1,0,98,49,1,97
,,,,,,,,,,,,,,,,,,,,,,,,,,,,,,,,,,,,,,,,,p,1.566999912,P,FALSE,,,,,,,79,patata,Spanish,Sounds/spa_patata.mp3,2020-06-05_12h50.08.756,TranslationElicitation_eng-prolific,3.2.4,MacIntel,60,5b6f4c673abd820001d6f637,,1,0,98,74,1,97
,,,,,,,,,,,,,,,,,,,,,,,,,,,,,,,,,,,,,,,,,o,1.747999907,PO,FALSE,,,,,,,79,patata,Spanish,Sounds/spa_patata.mp3,2020-06-05_12h50.08.756,TranslationElicitation_eng-prolific,3.2.4,MacIntel,60,5b6f4c673abd820001d6f637,,1,0,98,74,1,97
,,,,,,,,,,,,,,,,,,,,,,,,,,,,,,,,,,,,,,,,,t,2.388000011,POT,FALSE,,,,,,,79,patata,Spanish,Sounds/spa_patata.mp3,2020-06-05_12h50.08.756,TranslationElicitation_eng-prolific,3.2.4,MacIntel,60,5b6f4c673abd820001d6f637,,1,0,98,74,1,97
,,,,,,,,,,,,,,,,,,,,,,,,,,,,,,,,,,,,,,,,,a,2.678999901,POTA,FALSE,,,,,,,79,patata,Spanish,Sounds/spa_patata.mp3,2020-06-05_12h50.08.756,TranslationElicitation_eng-prolific,3.2.4,MacIntel,60,5b6f4c673abd820001d6f637,,1,0,98,74,1,97
,,,,,,,,,,,,,,,,,,,,,,,,,,,,,,,,,,,,,,,,,t,2.973999977,POTAT,FALSE,,,,,,,79,patata,Spanish,Sounds/spa_patata.mp3,2020-06-05_12h50.08.756,TranslationElicitation_eng-prolific,3.2.4,MacIntel,60,5b6f4c673abd820001d6f637,,1,0,98,74,1,97
,,,,,,,,,,,,,,,,,,,,,,,,,,,,,,,,,,,,,,,,,o,3.088000059,POTATO,FALSE,,,,,,,79,patata,Spanish,Sounds/spa_patata.mp3,2020-06-05_12h50.08.756,TranslationElicitation_eng-prolific,3.2.4,MacIntel,60,5b6f4c673abd820001d6f637,,1,0,98,74,1,97
,,,,,,,,,,,,,,,,,,,,,,,,,,,,,,,,,,,,,,,,,return,4.164000034,POTATO,FALSE,,,,,,,79,patata,Spanish,Sounds/spa_patata.mp3,2020-06-05_12h50.08.756,TranslationElicitation_eng-prolific,3.2.4,MacIntel,60,5b6f4c673abd820001d6f637,4.164000034,1,0,98,74,1,97
,,,,,,,,,,,,,,,,,,,,,,,,,,,,,,,,,,,,,,,,,,,,,,,,,,,79,patata,Spanish,Sounds/spa_patata.mp3,2020-06-05_12h50.08.756,TranslationElicitation_eng-prolific,3.2.4,MacIntel,60,5b6f4c673abd820001d6f637,,1,0,98,74,1,97
,,,,,,,,,,,,,,,,,,,,,,,,,,,,,,,,,,,,,,,,,p,1.496000051,P,FALSE,,,,,,,88,plato,Spanish,Sounds/spa_plato.mp3,2020-06-05_12h50.08.756,TranslationElicitation_eng-prolific,3.2.4,MacIntel,60,5b6f4c673abd820001d6f637,,1,0,98,83,1,97
,,,,,,,,,,,,,,,,,,,,,,,,,,,,,,,,,,,,,,,,,l,1.679000139,PL,FALSE,,,,,,,88,plato,Spanish,Sounds/spa_plato.mp3,2020-06-05_12h50.08.756,TranslationElicitation_eng-prolific,3.2.4,MacIntel,60,5b6f4c673abd820001d6f637,,1,0,98,83,1,97
,,,,,,,,,,,,,,,,,,,,,,,,,,,,,,,,,,,,,,,,,a,1.773000002,PLA,FALSE,,,,,,,88,plato,Spanish,Sounds/spa_plato.mp3,2020-06-05_12h50.08.756,TranslationElicitation_eng-prolific,3.2.4,MacIntel,60,5b6f4c673abd820001d6f637,,1,0,98,83,1,97
,,,,,,,,,,,,,,,,,,,,,,,,,,,,,,,,,,,,,,,,,t,1.93200016,PLAT,FALSE,,,,,,,88,plato,Spanish,Sounds/spa_plato.mp3,2020-06-05_12h50.08.756,TranslationElicitation_eng-prolific,3.2.4,MacIntel,60,5b6f4c673abd820001d6f637,,1,0,98,83,1,97
,,,,,,,,,,,,,,,,,,,,,,,,,,,,,,,,,,,,,,,,,e,2.125999928,PLATE,FALSE,,,,,,,88,plato,Spanish,Sounds/spa_plato.mp3,2020-06-05_12h50.08.756,TranslationElicitation_eng-prolific,3.2.4,MacIntel,60,5b6f4c673abd820001d6f637,,1,0,98,83,1,97
,,,,,,,,,,,,,,,,,,,,,,,,,,,,,,,,,,,,,,,,,return,2.401000023,PLATE,FALSE,,,,,,,88,plato,Spanish,Sounds/spa_plato.mp3,2020-06-05_12h50.08.756,TranslationElicitation_eng-prolific,3.2.4,MacIntel,60,5b6f4c673abd820001d6f637,2.401000023,1,0,98,83,1,97
,,,,,,,,,,,,,,,,,,,,,,,,,,,,,,,,,,,,,,,,,,,,,,,,,,,88,plato,Spanish,Sounds/spa_plato.mp3,2020-06-05_12h50.08.756,TranslationElicitation_eng-prolific,3.2.4,MacIntel,60,5b6f4c673abd820001d6f637,,1,0,98,83,1,97
,,,,,,,,,,,,,,,,,,,,,,,,,,,,,,,,,,,,,,,,,b,1.996999979,B,FALSE,,,,,,,75,pan,Spanish,Sounds/spa_pan.mp3,2020-06-05_12h50.08.756,TranslationElicitation_eng-prolific,3.2.4,MacIntel,60,5b6f4c673abd820001d6f637,,1,0,98,70,1,97
,,,,,,,,,,,,,,,,,,,,,,,,,,,,,,,,,,,,,,,,,r,2.136999846,BR,FALSE,,,,,,,75,pan,Spanish,Sounds/spa_pan.mp3,2020-06-05_12h50.08.756,TranslationElicitation_eng-prolific,3.2.4,MacIntel,60,5b6f4c673abd820001d6f637,,1,0,98,70,1,97
,,,,,,,,,,,,,,,,,,,,,,,,,,,,,,,,,,,,,,,,,e,2.260999918,BRE,FALSE,,,,,,,75,pan,Spanish,Sounds/spa_pan.mp3,2020-06-05_12h50.08.756,TranslationElicitation_eng-prolific,3.2.4,MacIntel,60,5b6f4c673abd820001d6f637,,1,0,98,70,1,97
,,,,,,,,,,,,,,,,,,,,,,,,,,,,,,,,,,,,,,,,,a,2.449999809,BREA,FALSE,,,,,,,75,pan,Spanish,Sounds/spa_pan.mp3,2020-06-05_12h50.08.756,TranslationElicitation_eng-prolific,3.2.4,MacIntel,60,5b6f4c673abd820001d6f637,,1,0,98,70,1,97
,,,,,,,,,,,,,,,,,,,,,,,,,,,,,,,,,,,,,,,,,d,2.552999973,BREAD,FALSE,,,,,,,75,pan,Spanish,Sounds/spa_pan.mp3,2020-06-05_12h50.08.756,TranslationElicitation_eng-prolific,3.2.4,MacIntel,60,5b6f4c673abd820001d6f637,,1,0,98,70,1,97
,,,,,,,,,,,,,,,,,,,,,,,,,,,,,,,,,,,,,,,,,return,2.804999828,BREAD,FALSE,,,,,,,75,pan,Spanish,Sounds/spa_pan.mp3,2020-06-05_12h50.08.756,TranslationElicitation_eng-prolific,3.2.4,MacIntel,60,5b6f4c673abd820001d6f637,2.804999828,1,0,98,70,1,97
,,,,,,,,,,,,,,,,,,,,,,,,,,,,,,,,,,,,,,,,,,,,,,,,,,,75,pan,Spanish,Sounds/spa_pan.mp3,2020-06-05_12h50.08.756,TranslationElicitation_eng-prolific,3.2.4,MacIntel,60,5b6f4c673abd820001d6f637,,1,0,98,70,1,97
,,,,,,,,,,,,,,,,,,,,,,,,,,,,,,,,,,,,,,,,,e,3.493999958,E,FALSE,,,,,,,73,oveja,Spanish,Sounds/spa_oveja.mp3,2020-06-05_12h50.08.756,TranslationElicitation_eng-prolific,3.2.4,MacIntel,60,5b6f4c673abd820001d6f637,,1,0,98,68,1,97
,,,,,,,,,,,,,,,,,,,,,,,,,,,,,,,,,,,,,,,,,a,3.631000042,EA,FALSE,,,,,,,73,oveja,Spanish,Sounds/spa_oveja.mp3,2020-06-05_12h50.08.756,TranslationElicitation_eng-prolific,3.2.4,MacIntel,60,5b6f4c673abd820001d6f637,,1,0,98,68,1,97
,,,,,,,,,,,,,,,,,,,,,,,,,,,,,,,,,,,,,,,,,r,3.776000023,EAR,FALSE,,,,,,,73,oveja,Spanish,Sounds/spa_oveja.mp3,2020-06-05_12h50.08.756,TranslationElicitation_eng-prolific,3.2.4,MacIntel,60,5b6f4c673abd820001d6f637,,1,0,98,68,1,97
,,,,,,,,,,,,,,,,,,,,,,,,,,,,,,,,,,,,,,,,,backspace,4.278000116,EA,TRUE,,,,,,,73,oveja,Spanish,Sounds/spa_oveja.mp3,2020-06-05_12h50.08.756,TranslationElicitation_eng-prolific,3.2.4,MacIntel,60,5b6f4c673abd820001d6f637,,1,0,98,68,1,97
,,,,,,,,,,,,,,,,,,,,,,,,,,,,,,,,,,,,,,,,,backspace,4.44900012,E,TRUE,,,,,,,73,oveja,Spanish,Sounds/spa_oveja.mp3,2020-06-05_12h50.08.756,TranslationElicitation_eng-prolific,3.2.4,MacIntel,60,5b6f4c673abd820001d6f637,,1,0,98,68,1,97
,,,,,,,,,,,,,,,,,,,,,,,,,,,,,,,,,,,,,,,,,backspace,4.532999992,,TRUE,,,,,,,73,oveja,Spanish,Sounds/spa_oveja.mp3,2020-06-05_12h50.08.756,TranslationElicitation_eng-prolific,3.2.4,MacIntel,60,5b6f4c673abd820001d6f637,,1,0,98,68,1,97
,,,,,,,,,,,,,,,,,,,,,,,,,,,,,,,,,,,,,,,,,b,5.197000027,B,TRUE,,,,,,,73,oveja,Spanish,Sounds/spa_oveja.mp3,2020-06-05_12h50.08.756,TranslationElicitation_eng-prolific,3.2.4,MacIntel,60,5b6f4c673abd820001d6f637,,1,0,98,68,1,97
,,,,,,,,,,,,,,,,,,,,,,,,,,,,,,,,,,,,,,,,,e,5.301000118,BE,TRUE,,,,,,,73,oveja,Spanish,Sounds/spa_oveja.mp3,2020-06-05_12h50.08.756,TranslationElicitation_eng-prolific,3.2.4,MacIntel,60,5b6f4c673abd820001d6f637,,1,0,98,68,1,97
,,,,,,,,,,,,,,,,,,,,,,,,,,,,,,,,,,,,,,,,,backspace,5.68900013,B,TRUE,,,,,,,73,oveja,Spanish,Sounds/spa_oveja.mp3,2020-06-05_12h50.08.756,TranslationElicitation_eng-prolific,3.2.4,MacIntel,60,5b6f4c673abd820001d6f637,,1,0,98,68,1,97
,,,,,,,,,,,,,,,,,,,,,,,,,,,,,,,,,,,,,,,,,backspace,5.832999945,,TRUE,,,,,,,73,oveja,Spanish,Sounds/spa_oveja.mp3,2020-06-05_12h50.08.756,TranslationElicitation_eng-prolific,3.2.4,MacIntel,60,5b6f4c673abd820001d6f637,,1,0,98,68,1,97
,,,,,,,,,,,,,,,,,,,,,,,,,,,,,,,,,,,,,,,,,h,6.14199996,H,TRUE,,,,,,,73,oveja,Spanish,Sounds/spa_oveja.mp3,2020-06-05_12h50.08.756,TranslationElicitation_eng-prolific,3.2.4,MacIntel,60,5b6f4c673abd820001d6f637,,1,0,98,68,1,97
,,,,,,,,,,,,,,,,,,,,,,,,,,,,,,,,,,,,,,,,,e,6.228000164,HE,TRUE,,,,,,,73,oveja,Spanish,Sounds/spa_oveja.mp3,2020-06-05_12h50.08.756,TranslationElicitation_eng-prolific,3.2.4,MacIntel,60,5b6f4c673abd820001d6f637,,1,0,98,68,1,97
,,,,,,,,,,,,,,,,,,,,,,,,,,,,,,,,,,,,,,,,,a,6.330000162,HEA,TRUE,,,,,,,73,oveja,Spanish,Sounds/spa_oveja.mp3,2020-06-05_12h50.08.756,TranslationElicitation_eng-prolific,3.2.4,MacIntel,60,5b6f4c673abd820001d6f637,,1,0,98,68,1,97
,,,,,,,,,,,,,,,,,,,,,,,,,,,,,,,,,,,,,,,,,r,6.442000151,HEAR,TRUE,,,,,,,73,oveja,Spanish,Sounds/spa_oveja.mp3,2020-06-05_12h50.08.756,TranslationElicitation_eng-prolific,3.2.4,MacIntel,60,5b6f4c673abd820001d6f637,,1,0,98,68,1,97
,,,,,,,,,,,,,,,,,,,,,,,,,,,,,,,,,,,,,,,,,i,6.52699995,HEARI,TRUE,,,,,,,73,oveja,Spanish,Sounds/spa_oveja.mp3,2020-06-05_12h50.08.756,TranslationElicitation_eng-prolific,3.2.4,MacIntel,60,5b6f4c673abd820001d6f637,,1,0,98,68,1,97
,,,,,,,,,,,,,,,,,,,,,,,,,,,,,,,,,,,,,,,,,n,6.60800004,HEARIN,TRUE,,,,,,,73,oveja,Spanish,Sounds/spa_oveja.mp3,2020-06-05_12h50.08.756,TranslationElicitation_eng-prolific,3.2.4,MacIntel,60,5b6f4c673abd820001d6f637,,1,0,98,68,1,97
,,,,,,,,,,,,,,,,,,,,,,,,,,,,,,,,,,,,,,,,,g,6.697999954,HEARING,TRUE,,,,,,,73,oveja,Spanish,Sounds/spa_oveja.mp3,2020-06-05_12h50.08.756,TranslationElicitation_eng-prolific,3.2.4,MacIntel,60,5b6f4c673abd820001d6f637,,1,0,98,68,1,97
,,,,,,,,,,,,,,,,,,,,,,,,,,,,,,,,,,,,,,,,,return,6.888000011,HEARING,TRUE,,,,,,,73,oveja,Spanish,Sounds/spa_oveja.mp3,2020-06-05_12h50.08.756,TranslationElicitation_eng-prolific,3.2.4,MacIntel,60,5b6f4c673abd820001d6f637,6.888000011,1,0,98,68,1,97
,,,,,,,,,,,,,,,,,,,,,,,,,,,,,,,,,,,,,,,,,,,,,,,,,,,73,oveja,Spanish,Sounds/spa_oveja.mp3,2020-06-05_12h50.08.756,TranslationElicitation_eng-prolific,3.2.4,MacIntel,60,5b6f4c673abd820001d6f637,,1,0,98,68,1,97
,,,,,,,,,,,,,,,,,,,,,,,,,,,,,,,,,,,,,,,,,c,3.353999853,C,FALSE,,,,,,,17,calcetin,Spanish,Sounds/spa_calcetin.mp3,2020-06-05_12h50.08.756,TranslationElicitation_eng-prolific,3.2.4,MacIntel,60,5b6f4c673abd820001d6f637,,1,0,98,15,1,97
,,,,,,,,,,,,,,,,,,,,,,,,,,,,,,,,,,,,,,,,,a,3.559999943,CA,FALSE,,,,,,,17,calcetin,Spanish,Sounds/spa_calcetin.mp3,2020-06-05_12h50.08.756,TranslationElicitation_eng-prolific,3.2.4,MacIntel,60,5b6f4c673abd820001d6f637,,1,0,98,15,1,97
,,,,,,,,,,,,,,,,,,,,,,,,,,,,,,,,,,,,,,,,,l,3.638999939,CAL,FALSE,,,,,,,17,calcetin,Spanish,Sounds/spa_calcetin.mp3,2020-06-05_12h50.08.756,TranslationElicitation_eng-prolific,3.2.4,MacIntel,60,5b6f4c673abd820001d6f637,,1,0,98,15,1,97
,,,,,,,,,,,,,,,,,,,,,,,,,,,,,,,,,,,,,,,,,e,4.157000065,CALE,FALSE,,,,,,,17,calcetin,Spanish,Sounds/spa_calcetin.mp3,2020-06-05_12h50.08.756,TranslationElicitation_eng-prolific,3.2.4,MacIntel,60,5b6f4c673abd820001d6f637,,1,0,98,15,1,97
,,,,,,,,,,,,,,,,,,,,,,,,,,,,,,,,,,,,,,,,,n,4.299999952,CALEN,FALSE,,,,,,,17,calcetin,Spanish,Sounds/spa_calcetin.mp3,2020-06-05_12h50.08.756,TranslationElicitation_eng-prolific,3.2.4,MacIntel,60,5b6f4c673abd820001d6f637,,1,0,98,15,1,97
,,,,,,,,,,,,,,,,,,,,,,,,,,,,,,,,,,,,,,,,,d,4.444999933,CALEND,FALSE,,,,,,,17,calcetin,Spanish,Sounds/spa_calcetin.mp3,2020-06-05_12h50.08.756,TranslationElicitation_eng-prolific,3.2.4,MacIntel,60,5b6f4c673abd820001d6f637,,1,0,98,15,1,97
,,,,,,,,,,,,,,,,,,,,,,,,,,,,,,,,,,,,,,,,,e,4.572000027,CALENDE,FALSE,,,,,,,17,calcetin,Spanish,Sounds/spa_calcetin.mp3,2020-06-05_12h50.08.756,TranslationElicitation_eng-prolific,3.2.4,MacIntel,60,5b6f4c673abd820001d6f637,,1,0,98,15,1,97
,,,,,,,,,,,,,,,,,,,,,,,,,,,,,,,,,,,,,,,,,backspace,4.861999989,CALEND,TRUE,,,,,,,17,calcetin,Spanish,Sounds/spa_calcetin.mp3,2020-06-05_12h50.08.756,TranslationElicitation_eng-prolific,3.2.4,MacIntel,60,5b6f4c673abd820001d6f637,,1,0,98,15,1,97
,,,,,,,,,,,,,,,,,,,,,,,,,,,,,,,,,,,,,,,,,a,4.937000036,CALENDA,TRUE,,,,,,,17,calcetin,Spanish,Sounds/spa_calcetin.mp3,2020-06-05_12h50.08.756,TranslationElicitation_eng-prolific,3.2.4,MacIntel,60,5b6f4c673abd820001d6f637,,1,0,98,15,1,97
,,,,,,,,,,,,,,,,,,,,,,,,,,,,,,,,,,,,,,,,,r,5.18599987,CALENDAR,TRUE,,,,,,,17,calcetin,Spanish,Sounds/spa_calcetin.mp3,2020-06-05_12h50.08.756,TranslationElicitation_eng-prolific,3.2.4,MacIntel,60,5b6f4c673abd820001d6f637,,1,0,98,15,1,97
,,,,,,,,,,,,,,,,,,,,,,,,,,,,,,,,,,,,,,,,,return,5.652999878,CALENDAR,TRUE,,,,,,,17,calcetin,Spanish,Sounds/spa_calcetin.mp3,2020-06-05_12h50.08.756,TranslationElicitation_eng-prolific,3.2.4,MacIntel,60,5b6f4c673abd820001d6f637,5.652999878,1,0,98,15,1,97
,,,,,,,,,,,,,,,,,,,,,,,,,,,,,,,,,,,,,,,,,,,,,,,,,,,17,calcetin,Spanish,Sounds/spa_calcetin.mp3,2020-06-05_12h50.08.756,TranslationElicitation_eng-prolific,3.2.4,MacIntel,60,5b6f4c673abd820001d6f637,,1,0,98,15,1,97
,,,,,,,,,,,,,,,,,,,,,,,,,,,,,,,,,,,,,,,,,f,2.087000132,F,FALSE,,,,,,,37,flor,Spanish,Sounds/spa_flor.mp3,2020-06-05_12h50.08.756,TranslationElicitation_eng-prolific,3.2.4,MacIntel,60,5b6f4c673abd820001d6f637,,1,0,98,33,1,97
,,,,,,,,,,,,,,,,,,,,,,,,,,,,,,,,,,,,,,,,,l,2.1650002,FL,FALSE,,,,,,,37,flor,Spanish,Sounds/spa_flor.mp3,2020-06-05_12h50.08.756,TranslationElicitation_eng-prolific,3.2.4,MacIntel,60,5b6f4c673abd820001d6f637,,1,0,98,33,1,97
,,,,,,,,,,,,,,,,,,,,,,,,,,,,,,,,,,,,,,,,,o,2.33100009,FLO,FALSE,,,,,,,37,flor,Spanish,Sounds/spa_flor.mp3,2020-06-05_12h50.08.756,TranslationElicitation_eng-prolific,3.2.4,MacIntel,60,5b6f4c673abd820001d6f637,,1,0,98,33,1,97
,,,,,,,,,,,,,,,,,,,,,,,,,,,,,,,,,,,,,,,,,o,2.45600009,FLOO,FALSE,,,,,,,37,flor,Spanish,Sounds/spa_flor.mp3,2020-06-05_12h50.08.756,TranslationElicitation_eng-prolific,3.2.4,MacIntel,60,5b6f4c673abd820001d6f637,,1,0,98,33,1,97
,,,,,,,,,,,,,,,,,,,,,,,,,,,,,,,,,,,,,,,,,r,2.84100008,FLOOR,FALSE,,,,,,,37,flor,Spanish,Sounds/spa_flor.mp3,2020-06-05_12h50.08.756,TranslationElicitation_eng-prolific,3.2.4,MacIntel,60,5b6f4c673abd820001d6f637,,1,0,98,33,1,97
,,,,,,,,,,,,,,,,,,,,,,,,,,,,,,,,,,,,,,,,,return,2.994000196,FLOOR,FALSE,,,,,,,37,flor,Spanish,Sounds/spa_flor.mp3,2020-06-05_12h50.08.756,TranslationElicitation_eng-prolific,3.2.4,MacIntel,60,5b6f4c673abd820001d6f637,2.994000196,1,0,98,33,1,97
,,,,,,,,,,,,,,,,,,,,,,,,,,,,,,,,,,,,,,,,,,,,,,,,,,,37,flor,Spanish,Sounds/spa_flor.mp3,2020-06-05_12h50.08.756,TranslationElicitation_eng-prolific,3.2.4,MacIntel,60,5b6f4c673abd820001d6f637,,1,0,98,33,1,97
,,,,,,,,,,,,,,,,,,,,,,,,,,,,,,,,,,,,,,,,,n,13.42799997,N,FALSE,,,,,,,67,muneca,Spanish,Sounds/spa_muneca.mp3,2020-06-05_12h50.08.756,TranslationElicitation_eng-prolific,3.2.4,MacIntel,60,5b6f4c673abd820001d6f637,,1,0,98,63,1,97
,,,,,,,,,,,,,,,,,,,,,,,,,,,,,,,,,,,,,,,,,e,13.5,NE,FALSE,,,,,,,67,muneca,Spanish,Sounds/spa_muneca.mp3,2020-06-05_12h50.08.756,TranslationElicitation_eng-prolific,3.2.4,MacIntel,60,5b6f4c673abd820001d6f637,,1,0,98,63,1,97
,,,,,,,,,,,,,,,,,,,,,,,,,,,,,,,,,,,,,,,,,c,13.648,NEC,FALSE,,,,,,,67,muneca,Spanish,Sounds/spa_muneca.mp3,2020-06-05_12h50.08.756,TranslationElicitation_eng-prolific,3.2.4,MacIntel,60,5b6f4c673abd820001d6f637,,1,0,98,63,1,97
,,,,,,,,,,,,,,,,,,,,,,,,,,,,,,,,,,,,,,,,,k,13.73900008,NECK,FALSE,,,,,,,67,muneca,Spanish,Sounds/spa_muneca.mp3,2020-06-05_12h50.08.756,TranslationElicitation_eng-prolific,3.2.4,MacIntel,60,5b6f4c673abd820001d6f637,,1,0,98,63,1,97
,,,,,,,,,,,,,,,,,,,,,,,,,,,,,,,,,,,,,,,,,return,14.08800006,NECK,FALSE,,,,,,,67,muneca,Spanish,Sounds/spa_muneca.mp3,2020-06-05_12h50.08.756,TranslationElicitation_eng-prolific,3.2.4,MacIntel,60,5b6f4c673abd820001d6f637,14.08800006,1,0,98,63,1,97
,,,,,,,,,,,,,,,,,,,,,,,,,,,,,,,,,,,,,,,,,,,,,,,,,,,67,muneca,Spanish,Sounds/spa_muneca.mp3,2020-06-05_12h50.08.756,TranslationElicitation_eng-prolific,3.2.4,MacIntel,60,5b6f4c673abd820001d6f637,,1,0,98,63,1,97
,,,,,,,,,,,,,,,,,,,,,,,,,,,,,,,,,,,,,,,,,c,1.461999893,C,FALSE,,,,,,,16,caja,Spanish,Sounds/spa_caja.mp3,2020-06-05_12h50.08.756,TranslationElicitation_eng-prolific,3.2.4,MacIntel,60,5b6f4c673abd820001d6f637,,1,0,98,14,1,97
,,,,,,,,,,,,,,,,,,,,,,,,,,,,,,,,,,,,,,,,,a,1.676999807,CA,FALSE,,,,,,,16,caja,Spanish,Sounds/spa_caja.mp3,2020-06-05_12h50.08.756,TranslationElicitation_eng-prolific,3.2.4,MacIntel,60,5b6f4c673abd820001d6f637,,1,0,98,14,1,97
,,,,,,,,,,,,,,,,,,,,,,,,,,,,,,,,,,,,,,,,,r,1.879999876,CAR,FALSE,,,,,,,16,caja,Spanish,Sounds/spa_caja.mp3,2020-06-05_12h50.08.756,TranslationElicitation_eng-prolific,3.2.4,MacIntel,60,5b6f4c673abd820001d6f637,,1,0,98,14,1,97
,,,,,,,,,,,,,,,,,,,,,,,,,,,,,,,,,,,,,,,,,return,2.444999933,CAR,FALSE,,,,,,,16,caja,Spanish,Sounds/spa_caja.mp3,2020-06-05_12h50.08.756,TranslationElicitation_eng-prolific,3.2.4,MacIntel,60,5b6f4c673abd820001d6f637,2.444999933,1,0,98,14,1,97
,,,,,,,,,,,,,,,,,,,,,,,,,,,,,,,,,,,,,,,,,,,,,,,,,,,16,caja,Spanish,Sounds/spa_caja.mp3,2020-06-05_12h50.08.756,TranslationElicitation_eng-prolific,3.2.4,MacIntel,60,5b6f4c673abd820001d6f637,,1,0,98,14,1,97
,,,,,,,,,,,,,,,,,,,,,,,,,,,,,,,,,,,,,,,,,f,4.303999901,F,FALSE,,,,,,,50,jirafa,Spanish,Sounds/spa_jirafa.mp3,2020-06-05_12h50.08.756,TranslationElicitation_eng-prolific,3.2.4,MacIntel,60,5b6f4c673abd820001d6f637,,1,0,98,46,1,97
,,,,,,,,,,,,,,,,,,,,,,,,,,,,,,,,,,,,,,,,,a,4.493000031,FA,FALSE,,,,,,,50,jirafa,Spanish,Sounds/spa_jirafa.mp3,2020-06-05_12h50.08.756,TranslationElicitation_eng-prolific,3.2.4,MacIntel,60,5b6f4c673abd820001d6f637,,1,0,98,46,1,97
,,,,,,,,,,,,,,,,,,,,,,,,,,,,,,,,,,,,,,,,,s,4.633999825,FAS,FALSE,,,,,,,50,jirafa,Spanish,Sounds/spa_jirafa.mp3,2020-06-05_12h50.08.756,TranslationElicitation_eng-prolific,3.2.4,MacIntel,60,5b6f4c673abd820001d6f637,,1,0,98,46,1,97
,,,,,,,,,,,,,,,,,,,,,,,,,,,,,,,,,,,,,,,,,t,4.82799983,FAST,FALSE,,,,,,,50,jirafa,Spanish,Sounds/spa_jirafa.mp3,2020-06-05_12h50.08.756,TranslationElicitation_eng-prolific,3.2.4,MacIntel,60,5b6f4c673abd820001d6f637,,1,0,98,46,1,97
,,,,,,,,,,,,,,,,,,,,,,,,,,,,,,,,,,,,,,,,,return,5.049999952,FAST,FALSE,,,,,,,50,jirafa,Spanish,Sounds/spa_jirafa.mp3,2020-06-05_12h50.08.756,TranslationElicitation_eng-prolific,3.2.4,MacIntel,60,5b6f4c673abd820001d6f637,5.049999952,1,0,98,46,1,97
,,,,,,,,,,,,,,,,,,,,,,,,,,,,,,,,,,,,,,,,,,,,,,,,,,,50,jirafa,Spanish,Sounds/spa_jirafa.mp3,2020-06-05_12h50.08.756,TranslationElicitation_eng-prolific,3.2.4,MacIntel,60,5b6f4c673abd820001d6f637,,1,0,98,46,1,97
,,,,,,,,,,,,,,,,,,,,,,,,,,,,,,,,,,,,,,,,,b,5.063999891,B,FALSE,,,,,,,52,lapiz,Spanish,Sounds/spa_lapiz.mp3,2020-06-05_12h50.08.756,TranslationElicitation_eng-prolific,3.2.4,MacIntel,60,5b6f4c673abd820001d6f637,,1,0,98,48,1,97
,,,,,,,,,,,,,,,,,,,,,,,,,,,,,,,,,,,,,,,,,backspace,5.562999964,,TRUE,,,,,,,52,lapiz,Spanish,Sounds/spa_lapiz.mp3,2020-06-05_12h50.08.756,TranslationElicitation_eng-prolific,3.2.4,MacIntel,60,5b6f4c673abd820001d6f637,,1,0,98,48,1,97
,,,,,,,,,,,,,,,,,,,,,,,,,,,,,,,,,,,,,,,,,r,5.672999859,R,TRUE,,,,,,,52,lapiz,Spanish,Sounds/spa_lapiz.mp3,2020-06-05_12h50.08.756,TranslationElicitation_eng-prolific,3.2.4,MacIntel,60,5b6f4c673abd820001d6f637,,1,0,98,48,1,97
,,,,,,,,,,,,,,,,,,,,,,,,,,,,,,,,,,,,,,,,,a,5.906999826,RA,TRUE,,,,,,,52,lapiz,Spanish,Sounds/spa_lapiz.mp3,2020-06-05_12h50.08.756,TranslationElicitation_eng-prolific,3.2.4,MacIntel,60,5b6f4c673abd820001d6f637,,1,0,98,48,1,97
,,,,,,,,,,,,,,,,,,,,,,,,,,,,,,,,,,,,,,,,,b,6.080999851,RAB,TRUE,,,,,,,52,lapiz,Spanish,Sounds/spa_lapiz.mp3,2020-06-05_12h50.08.756,TranslationElicitation_eng-prolific,3.2.4,MacIntel,60,5b6f4c673abd820001d6f637,,1,0,98,48,1,97
,,,,,,,,,,,,,,,,,,,,,,,,,,,,,,,,,,,,,,,,,b,6.204999924,RABB,TRUE,,,,,,,52,lapiz,Spanish,Sounds/spa_lapiz.mp3,2020-06-05_12h50.08.756,TranslationElicitation_eng-prolific,3.2.4,MacIntel,60,5b6f4c673abd820001d6f637,,1,0,98,48,1,97
,,,,,,,,,,,,,,,,,,,,,,,,,,,,,,,,,,,,,,,,,i,6.368000031,RABBI,TRUE,,,,,,,52,lapiz,Spanish,Sounds/spa_lapiz.mp3,2020-06-05_12h50.08.756,TranslationElicitation_eng-prolific,3.2.4,MacIntel,60,5b6f4c673abd820001d6f637,,1,0,98,48,1,97
,,,,,,,,,,,,,,,,,,,,,,,,,,,,,,,,,,,,,,,,,t,6.458999872,RABBIT,TRUE,,,,,,,52,lapiz,Spanish,Sounds/spa_lapiz.mp3,2020-06-05_12h50.08.756,TranslationElicitation_eng-prolific,3.2.4,MacIntel,60,5b6f4c673abd820001d6f637,,1,0,98,48,1,97
,,,,,,,,,,,,,,,,,,,,,,,,,,,,,,,,,,,,,,,,,return,6.830999851,RABBIT,TRUE,,,,,,,52,lapiz,Spanish,Sounds/spa_lapiz.mp3,2020-06-05_12h50.08.756,TranslationElicitation_eng-prolific,3.2.4,MacIntel,60,5b6f4c673abd820001d6f637,6.830999851,1,0,98,48,1,97
