consentKey.keys,consentKey.rt,languageL1Key.keys,languageL1Key.rt,languageL2,languageL2OralKey.keys,languageL2OralKey.rt,languageL2WrittenKey.keys,languageL2WrittenKey.rt,languageL3,languageL3OralKey.keys,languageL3OralKey.rt,languageL3WrittenKey.keys,languageL3WrittenKey.rt,languageCatalanOralKey.keys,languageCatalanOralKey.rt,languageCatalanWrittenKey.keys,languageCatalanWrittenKey.rt,languageCatalanTimeKey.keys,languageCatalanTimeKey.rt,languageSpanishOralKey.keys,languageSpanishOralKey.rt,languageSpanishWrittenKey.keys,languageSpanishWrittenKey.rt,languageSpanishTimeKey.keys,languageSpanishTimeKey.rt,age,demoSexKey.keys,demoSexKey.rt,demoEducationKey.keys,demoEducationKey.rt,city,demoVisionKey.keys,demoVisionKey.rt,demoLanguageKey.keys,demoLanguageKey.rt,setupLocationKey.keys,setupLocationKey.rt,setupNoiseKey.keys,setupNoiseKey.rt,instructionsKeys.keys,instructionsKeys.rt,keyPressed,keyPressTime,inputText,error,trialsPracticeCatalan.thisRepN,trialsPracticeCatalan.thisTrialN,trialsPracticeCatalan.thisN,trialsPracticeCatalan.thisIndex,trialsPracticeCatalan.ran,trialsPracticeCatalan.order,trial_id,word,test_language,soundfile,date,expName,psychopyVersion,OS,frameRate,participant,trialOffset,trialsCatalan.thisRepN,trialsCatalan.thisTrialN,trialsCatalan.thisN,trialsCatalan.thisIndex,trialsCatalan.ran,trialsCatalan.order
space,1.525999784,e,2.258999825,BASIC FRENCH,3,6.178000212,2,4.542999983,,,,,,1,4.162999868,1,1.65199995,1,5.365999937,1,3.866000175,1,2.275000095,1,2.89199996,25,m,1.688999891,4,3.558000088,NANTWICH,y,3.09800005,n,1.438999891,1,2.213999987,1,2.395999908,space,5.003000021,b,5.980999947,B,FALSE,1,0,5,3,1,4,159,onada,Catalan,Sounds/cat_onada.mp3,2020-06-05_16h21.27.837,TranslationElicitation_eng-prolific,3.2.4,Win32,60,5c2fb1412c45d400014ae103,,,,,,,
,,,,,,,,,,,,,,,,,,,,,,,,,,,,,,,,,,,,,,,,,,backspace,6.680999994,,TRUE,1,0,5,3,1,4,159,onada,Catalan,Sounds/cat_onada.mp3,2020-06-05_16h21.27.837,TranslationElicitation_eng-prolific,3.2.4,Win32,60,5c2fb1412c45d400014ae103,,,,,,,
,,,,,,,,,,,,,,,,,,,,,,,,,,,,,,,,,,,,,,,,,,n,12.46300006,N,TRUE,1,0,5,3,1,4,159,onada,Catalan,Sounds/cat_onada.mp3,2020-06-05_16h21.27.837,TranslationElicitation_eng-prolific,3.2.4,Win32,60,5c2fb1412c45d400014ae103,,,,,,,
,,,,,,,,,,,,,,,,,,,,,,,,,,,,,,,,,,,,,,,,,,a,13.32999992,NA,TRUE,1,0,5,3,1,4,159,onada,Catalan,Sounds/cat_onada.mp3,2020-06-05_16h21.27.837,TranslationElicitation_eng-prolific,3.2.4,Win32,60,5c2fb1412c45d400014ae103,,,,,,,
,,,,,,,,,,,,,,,,,,,,,,,,,,,,,,,,,,,,,,,,,,return,13.94599986,NA,TRUE,1,0,5,3,1,4,159,onada,Catalan,Sounds/cat_onada.mp3,2020-06-05_16h21.27.837,TranslationElicitation_eng-prolific,3.2.4,Win32,60,5c2fb1412c45d400014ae103,13.94599986,,,,,,
,,,,,,,,,,,,,,,,,,,,,,,,,,,,,,,,,,,,,,,,,,,,,,1,0,5,3,1,4,159,onada,Catalan,Sounds/cat_onada.mp3,2020-06-05_16h21.27.837,TranslationElicitation_eng-prolific,3.2.4,Win32,60,5c2fb1412c45d400014ae103,,,,,,,
,,,,,,,,,,,,,,,,,,,,,,,,,,,,,,,,,,,,,,,,,,c,1.898999929,C,FALSE,1,0,5,1,1,4,126,corona,Catalan,Sounds/cat_corona.mp3,2020-06-05_16h21.27.837,TranslationElicitation_eng-prolific,3.2.4,Win32,60,5c2fb1412c45d400014ae103,,,,,,,
,,,,,,,,,,,,,,,,,,,,,,,,,,,,,,,,,,,,,,,,,,o,1.981999874,CO,FALSE,1,0,5,1,1,4,126,corona,Catalan,Sounds/cat_corona.mp3,2020-06-05_16h21.27.837,TranslationElicitation_eng-prolific,3.2.4,Win32,60,5c2fb1412c45d400014ae103,,,,,,,
,,,,,,,,,,,,,,,,,,,,,,,,,,,,,,,,,,,,,,,,,,r,2.231999874,COR,FALSE,1,0,5,1,1,4,126,corona,Catalan,Sounds/cat_corona.mp3,2020-06-05_16h21.27.837,TranslationElicitation_eng-prolific,3.2.4,Win32,60,5c2fb1412c45d400014ae103,,,,,,,
,,,,,,,,,,,,,,,,,,,,,,,,,,,,,,,,,,,,,,,,,,o,2.398000002,CORO,FALSE,1,0,5,1,1,4,126,corona,Catalan,Sounds/cat_corona.mp3,2020-06-05_16h21.27.837,TranslationElicitation_eng-prolific,3.2.4,Win32,60,5c2fb1412c45d400014ae103,,,,,,,
,,,,,,,,,,,,,,,,,,,,,,,,,,,,,,,,,,,,,,,,,,n,2.447999954,CORON,FALSE,1,0,5,1,1,4,126,corona,Catalan,Sounds/cat_corona.mp3,2020-06-05_16h21.27.837,TranslationElicitation_eng-prolific,3.2.4,Win32,60,5c2fb1412c45d400014ae103,,,,,,,
,,,,,,,,,,,,,,,,,,,,,,,,,,,,,,,,,,,,,,,,,,a,2.631999969,CORONA,FALSE,1,0,5,1,1,4,126,corona,Catalan,Sounds/cat_corona.mp3,2020-06-05_16h21.27.837,TranslationElicitation_eng-prolific,3.2.4,Win32,60,5c2fb1412c45d400014ae103,,,,,,,
,,,,,,,,,,,,,,,,,,,,,,,,,,,,,,,,,,,,,,,,,,return,3.097999811,CORONA,FALSE,1,0,5,1,1,4,126,corona,Catalan,Sounds/cat_corona.mp3,2020-06-05_16h21.27.837,TranslationElicitation_eng-prolific,3.2.4,Win32,60,5c2fb1412c45d400014ae103,3.097999811,,,,,,
,,,,,,,,,,,,,,,,,,,,,,,,,,,,,,,,,,,,,,,,,,,,,,1,0,5,1,1,4,126,corona,Catalan,Sounds/cat_corona.mp3,2020-06-05_16h21.27.837,TranslationElicitation_eng-prolific,3.2.4,Win32,60,5c2fb1412c45d400014ae103,,,,,,,
,,,,,,,,,,,,,,,,,,,,,,,,,,,,,,,,,,,,,,,,,,h,4.883000135,H,FALSE,1,0,5,0,1,4,109,arbre,Catalan,Sounds/cat_arbre.mp3,2020-06-05_16h21.27.837,TranslationElicitation_eng-prolific,3.2.4,Win32,60,5c2fb1412c45d400014ae103,,,,,,,
,,,,,,,,,,,,,,,,,,,,,,,,,,,,,,,,,,,,,,,,,,a,5.049000025,HA,FALSE,1,0,5,0,1,4,109,arbre,Catalan,Sounds/cat_arbre.mp3,2020-06-05_16h21.27.837,TranslationElicitation_eng-prolific,3.2.4,Win32,60,5c2fb1412c45d400014ae103,,,,,,,
,,,,,,,,,,,,,,,,,,,,,,,,,,,,,,,,,,,,,,,,,,r,5.265000105,HAR,FALSE,1,0,5,0,1,4,109,arbre,Catalan,Sounds/cat_arbre.mp3,2020-06-05_16h21.27.837,TranslationElicitation_eng-prolific,3.2.4,Win32,60,5c2fb1412c45d400014ae103,,,,,,,
,,,,,,,,,,,,,,,,,,,,,,,,,,,,,,,,,,,,,,,,,,d,5.465000153,HARD,FALSE,1,0,5,0,1,4,109,arbre,Catalan,Sounds/cat_arbre.mp3,2020-06-05_16h21.27.837,TranslationElicitation_eng-prolific,3.2.4,Win32,60,5c2fb1412c45d400014ae103,,,,,,,
,,,,,,,,,,,,,,,,,,,,,,,,,,,,,,,,,,,,,,,,,,backspace,5.782000065,HAR,TRUE,1,0,5,0,1,4,109,arbre,Catalan,Sounds/cat_arbre.mp3,2020-06-05_16h21.27.837,TranslationElicitation_eng-prolific,3.2.4,Win32,60,5c2fb1412c45d400014ae103,,,,,,,
,,,,,,,,,,,,,,,,,,,,,,,,,,,,,,,,,,,,,,,,,,v,5.898000002,HARV,TRUE,1,0,5,0,1,4,109,arbre,Catalan,Sounds/cat_arbre.mp3,2020-06-05_16h21.27.837,TranslationElicitation_eng-prolific,3.2.4,Win32,60,5c2fb1412c45d400014ae103,,,,,,,
,,,,,,,,,,,,,,,,,,,,,,,,,,,,,,,,,,,,,,,,,,a,6.082000017,HARVA,TRUE,1,0,5,0,1,4,109,arbre,Catalan,Sounds/cat_arbre.mp3,2020-06-05_16h21.27.837,TranslationElicitation_eng-prolific,3.2.4,Win32,60,5c2fb1412c45d400014ae103,,,,,,,
,,,,,,,,,,,,,,,,,,,,,,,,,,,,,,,,,,,,,,,,,,r,6.148000002,HARVAR,TRUE,1,0,5,0,1,4,109,arbre,Catalan,Sounds/cat_arbre.mp3,2020-06-05_16h21.27.837,TranslationElicitation_eng-prolific,3.2.4,Win32,60,5c2fb1412c45d400014ae103,,,,,,,
,,,,,,,,,,,,,,,,,,,,,,,,,,,,,,,,,,,,,,,,,,d,6.34800005,HARVARD,TRUE,1,0,5,0,1,4,109,arbre,Catalan,Sounds/cat_arbre.mp3,2020-06-05_16h21.27.837,TranslationElicitation_eng-prolific,3.2.4,Win32,60,5c2fb1412c45d400014ae103,,,,,,,
,,,,,,,,,,,,,,,,,,,,,,,,,,,,,,,,,,,,,,,,,,return,6.565000057,HARVARD,TRUE,1,0,5,0,1,4,109,arbre,Catalan,Sounds/cat_arbre.mp3,2020-06-05_16h21.27.837,TranslationElicitation_eng-prolific,3.2.4,Win32,60,5c2fb1412c45d400014ae103,6.565000057,,,,,,
,,,,,,,,,,,,,,,,,,,,,,,,,,,,,,,,,,,,,,,,,,,,,,1,0,5,0,1,4,109,arbre,Catalan,Sounds/cat_arbre.mp3,2020-06-05_16h21.27.837,TranslationElicitation_eng-prolific,3.2.4,Win32,60,5c2fb1412c45d400014ae103,,,,,,,
,,,,,,,,,,,,,,,,,,,,,,,,,,,,,,,,,,,,,,,,,,t,2.116000175,T,FALSE,1,0,5,4,1,4,179,tigre,Catalan,Sounds/cat_tigre.mp3,2020-06-05_16h21.27.837,TranslationElicitation_eng-prolific,3.2.4,Win32,60,5c2fb1412c45d400014ae103,,,,,,,
,,,,,,,,,,,,,,,,,,,,,,,,,,,,,,,,,,,,,,,,,,i,2.249000072,TI,FALSE,1,0,5,4,1,4,179,tigre,Catalan,Sounds/cat_tigre.mp3,2020-06-05_16h21.27.837,TranslationElicitation_eng-prolific,3.2.4,Win32,60,5c2fb1412c45d400014ae103,,,,,,,
,,,,,,,,,,,,,,,,,,,,,,,,,,,,,,,,,,,,,,,,,,g,2.332999945,TIG,FALSE,1,0,5,4,1,4,179,tigre,Catalan,Sounds/cat_tigre.mp3,2020-06-05_16h21.27.837,TranslationElicitation_eng-prolific,3.2.4,Win32,60,5c2fb1412c45d400014ae103,,,,,,,
,,,,,,,,,,,,,,,,,,,,,,,,,,,,,,,,,,,,,,,,,,e,2.51699996,TIGE,FALSE,1,0,5,4,1,4,179,tigre,Catalan,Sounds/cat_tigre.mp3,2020-06-05_16h21.27.837,TranslationElicitation_eng-prolific,3.2.4,Win32,60,5c2fb1412c45d400014ae103,,,,,,,
,,,,,,,,,,,,,,,,,,,,,,,,,,,,,,,,,,,,,,,,,,r,2.616000175,TIGER,FALSE,1,0,5,4,1,4,179,tigre,Catalan,Sounds/cat_tigre.mp3,2020-06-05_16h21.27.837,TranslationElicitation_eng-prolific,3.2.4,Win32,60,5c2fb1412c45d400014ae103,,,,,,,
,,,,,,,,,,,,,,,,,,,,,,,,,,,,,,,,,,,,,,,,,,return,3.016000032,TIGER,FALSE,1,0,5,4,1,4,179,tigre,Catalan,Sounds/cat_tigre.mp3,2020-06-05_16h21.27.837,TranslationElicitation_eng-prolific,3.2.4,Win32,60,5c2fb1412c45d400014ae103,3.016000032,,,,,,
,,,,,,,,,,,,,,,,,,,,,,,,,,,,,,,,,,,,,,,,,,,,,,1,0,5,4,1,4,179,tigre,Catalan,Sounds/cat_tigre.mp3,2020-06-05_16h21.27.837,TranslationElicitation_eng-prolific,3.2.4,Win32,60,5c2fb1412c45d400014ae103,,,,,,,
,,,,,,,,,,,,,,,,,,,,,,,,,,,,,,,,,,,,,,,,,,j,2.131999969,J,FALSE,1,0,5,2,1,4,147,jaqueta,Catalan,Sounds/cat_jaqueta.mp3,2020-06-05_16h21.27.837,TranslationElicitation_eng-prolific,3.2.4,Win32,60,5c2fb1412c45d400014ae103,,,,,,,
,,,,,,,,,,,,,,,,,,,,,,,,,,,,,,,,,,,,,,,,,,a,2.249000072,JA,FALSE,1,0,5,2,1,4,147,jaqueta,Catalan,Sounds/cat_jaqueta.mp3,2020-06-05_16h21.27.837,TranslationElicitation_eng-prolific,3.2.4,Win32,60,5c2fb1412c45d400014ae103,,,,,,,
,,,,,,,,,,,,,,,,,,,,,,,,,,,,,,,,,,,,,,,,,,c,2.332000017,JAC,FALSE,1,0,5,2,1,4,147,jaqueta,Catalan,Sounds/cat_jaqueta.mp3,2020-06-05_16h21.27.837,TranslationElicitation_eng-prolific,3.2.4,Win32,60,5c2fb1412c45d400014ae103,,,,,,,
,,,,,,,,,,,,,,,,,,,,,,,,,,,,,,,,,,,,,,,,,,k,2.431999922,JACK,FALSE,1,0,5,2,1,4,147,jaqueta,Catalan,Sounds/cat_jaqueta.mp3,2020-06-05_16h21.27.837,TranslationElicitation_eng-prolific,3.2.4,Win32,60,5c2fb1412c45d400014ae103,,,,,,,
,,,,,,,,,,,,,,,,,,,,,,,,,,,,,,,,,,,,,,,,,,e,2.587000132,JACKE,FALSE,1,0,5,2,1,4,147,jaqueta,Catalan,Sounds/cat_jaqueta.mp3,2020-06-05_16h21.27.837,TranslationElicitation_eng-prolific,3.2.4,Win32,60,5c2fb1412c45d400014ae103,,,,,,,
,,,,,,,,,,,,,,,,,,,,,,,,,,,,,,,,,,,,,,,,,,t,2.648999929,JACKET,FALSE,1,0,5,2,1,4,147,jaqueta,Catalan,Sounds/cat_jaqueta.mp3,2020-06-05_16h21.27.837,TranslationElicitation_eng-prolific,3.2.4,Win32,60,5c2fb1412c45d400014ae103,,,,,,,
,,,,,,,,,,,,,,,,,,,,,,,,,,,,,,,,,,,,,,,,,,return,2.94900012,JACKET,FALSE,1,0,5,2,1,4,147,jaqueta,Catalan,Sounds/cat_jaqueta.mp3,2020-06-05_16h21.27.837,TranslationElicitation_eng-prolific,3.2.4,Win32,60,5c2fb1412c45d400014ae103,2.94900012,,,,,,
,,,,,,,,,,,,,,,,,,,,,,,,,,,,,,,,,,,,,,,,,,,,,,1,0,5,2,1,4,147,jaqueta,Catalan,Sounds/cat_jaqueta.mp3,2020-06-05_16h21.27.837,TranslationElicitation_eng-prolific,3.2.4,Win32,60,5c2fb1412c45d400014ae103,,,,,,,
,,,,,,,,,,,,,,,,,,,,,,,,,,,,,,,,,,,,,,,,,,g,1.68200016,G,FALSE,,,,,,,142,girafa,Catalan,Sounds/cat_girafa.mp3,2020-06-05_16h21.27.837,TranslationElicitation_eng-prolific,3.2.4,Win32,60,5c2fb1412c45d400014ae103,,1,0,81,36,1,80
,,,,,,,,,,,,,,,,,,,,,,,,,,,,,,,,,,,,,,,,,,i,1.782999992,GI,FALSE,,,,,,,142,girafa,Catalan,Sounds/cat_girafa.mp3,2020-06-05_16h21.27.837,TranslationElicitation_eng-prolific,3.2.4,Win32,60,5c2fb1412c45d400014ae103,,1,0,81,36,1,80
,,,,,,,,,,,,,,,,,,,,,,,,,,,,,,,,,,,,,,,,,,r,1.849000216,GIR,FALSE,,,,,,,142,girafa,Catalan,Sounds/cat_girafa.mp3,2020-06-05_16h21.27.837,TranslationElicitation_eng-prolific,3.2.4,Win32,60,5c2fb1412c45d400014ae103,,1,0,81,36,1,80
,,,,,,,,,,,,,,,,,,,,,,,,,,,,,,,,,,,,,,,,,,a,2.032999992,GIRA,FALSE,,,,,,,142,girafa,Catalan,Sounds/cat_girafa.mp3,2020-06-05_16h21.27.837,TranslationElicitation_eng-prolific,3.2.4,Win32,60,5c2fb1412c45d400014ae103,,1,0,81,36,1,80
,,,,,,,,,,,,,,,,,,,,,,,,,,,,,,,,,,,,,,,,,,f,2.18200016,GIRAF,FALSE,,,,,,,142,girafa,Catalan,Sounds/cat_girafa.mp3,2020-06-05_16h21.27.837,TranslationElicitation_eng-prolific,3.2.4,Win32,60,5c2fb1412c45d400014ae103,,1,0,81,36,1,80
,,,,,,,,,,,,,,,,,,,,,,,,,,,,,,,,,,,,,,,,,,f,2.316000223,GIRAFF,FALSE,,,,,,,142,girafa,Catalan,Sounds/cat_girafa.mp3,2020-06-05_16h21.27.837,TranslationElicitation_eng-prolific,3.2.4,Win32,60,5c2fb1412c45d400014ae103,,1,0,81,36,1,80
,,,,,,,,,,,,,,,,,,,,,,,,,,,,,,,,,,,,,,,,,,e,2.366000175,GIRAFFE,FALSE,,,,,,,142,girafa,Catalan,Sounds/cat_girafa.mp3,2020-06-05_16h21.27.837,TranslationElicitation_eng-prolific,3.2.4,Win32,60,5c2fb1412c45d400014ae103,,1,0,81,36,1,80
,,,,,,,,,,,,,,,,,,,,,,,,,,,,,,,,,,,,,,,,,,return,2.916000128,GIRAFFE,FALSE,,,,,,,142,girafa,Catalan,Sounds/cat_girafa.mp3,2020-06-05_16h21.27.837,TranslationElicitation_eng-prolific,3.2.4,Win32,60,5c2fb1412c45d400014ae103,2.916000128,1,0,81,36,1,80
,,,,,,,,,,,,,,,,,,,,,,,,,,,,,,,,,,,,,,,,,,,,,,,,,,,,142,girafa,Catalan,Sounds/cat_girafa.mp3,2020-06-05_16h21.27.837,TranslationElicitation_eng-prolific,3.2.4,Win32,60,5c2fb1412c45d400014ae103,,1,0,81,36,1,80
,,,,,,,,,,,,,,,,,,,,,,,,,,,,,,,,,,,,,,,,,,v,3.348999977,V,FALSE,,,,,,,165,pernil,Catalan,Sounds/cat_pernil.mp3,2020-06-05_16h21.27.837,TranslationElicitation_eng-prolific,3.2.4,Win32,60,5c2fb1412c45d400014ae103,,1,0,81,57,1,80
,,,,,,,,,,,,,,,,,,,,,,,,,,,,,,,,,,,,,,,,,,a,3.532000065,VA,FALSE,,,,,,,165,pernil,Catalan,Sounds/cat_pernil.mp3,2020-06-05_16h21.27.837,TranslationElicitation_eng-prolific,3.2.4,Win32,60,5c2fb1412c45d400014ae103,,1,0,81,57,1,80
,,,,,,,,,,,,,,,,,,,,,,,,,,,,,,,,,,,,,,,,,,n,3.549000025,VAN,FALSE,,,,,,,165,pernil,Catalan,Sounds/cat_pernil.mp3,2020-06-05_16h21.27.837,TranslationElicitation_eng-prolific,3.2.4,Win32,60,5c2fb1412c45d400014ae103,,1,0,81,57,1,80
,,,,,,,,,,,,,,,,,,,,,,,,,,,,,,,,,,,,,,,,,,i,3.749000072,VANI,FALSE,,,,,,,165,pernil,Catalan,Sounds/cat_pernil.mp3,2020-06-05_16h21.27.837,TranslationElicitation_eng-prolific,3.2.4,Win32,60,5c2fb1412c45d400014ae103,,1,0,81,57,1,80
,,,,,,,,,,,,,,,,,,,,,,,,,,,,,,,,,,,,,,,,,,l,3.931999922,VANIL,FALSE,,,,,,,165,pernil,Catalan,Sounds/cat_pernil.mp3,2020-06-05_16h21.27.837,TranslationElicitation_eng-prolific,3.2.4,Win32,60,5c2fb1412c45d400014ae103,,1,0,81,57,1,80
,,,,,,,,,,,,,,,,,,,,,,,,,,,,,,,,,,,,,,,,,,l,4.082000017,VANILL,FALSE,,,,,,,165,pernil,Catalan,Sounds/cat_pernil.mp3,2020-06-05_16h21.27.837,TranslationElicitation_eng-prolific,3.2.4,Win32,60,5c2fb1412c45d400014ae103,,1,0,81,57,1,80
,,,,,,,,,,,,,,,,,,,,,,,,,,,,,,,,,,,,,,,,,,a,4.134000063,VANILLA,FALSE,,,,,,,165,pernil,Catalan,Sounds/cat_pernil.mp3,2020-06-05_16h21.27.837,TranslationElicitation_eng-prolific,3.2.4,Win32,60,5c2fb1412c45d400014ae103,,1,0,81,57,1,80
,,,,,,,,,,,,,,,,,,,,,,,,,,,,,,,,,,,,,,,,,,return,4.714999914,VANILLA,FALSE,,,,,,,165,pernil,Catalan,Sounds/cat_pernil.mp3,2020-06-05_16h21.27.837,TranslationElicitation_eng-prolific,3.2.4,Win32,60,5c2fb1412c45d400014ae103,4.714999914,1,0,81,57,1,80
,,,,,,,,,,,,,,,,,,,,,,,,,,,,,,,,,,,,,,,,,,,,,,,,,,,,165,pernil,Catalan,Sounds/cat_pernil.mp3,2020-06-05_16h21.27.837,TranslationElicitation_eng-prolific,3.2.4,Win32,60,5c2fb1412c45d400014ae103,,1,0,81,57,1,80
,,,,,,,,,,,,,,,,,,,,,,,,,,,,,,,,,,,,,,,,,,n,5.232000113,N,FALSE,,,,,,,185,ulleres,Catalan,Sounds/cat_ulleres.mp3,2020-06-05_16h21.27.837,TranslationElicitation_eng-prolific,3.2.4,Win32,60,5c2fb1412c45d400014ae103,,1,0,81,76,1,80
,,,,,,,,,,,,,,,,,,,,,,,,,,,,,,,,,,,,,,,,,,a,5.332000017,NA,FALSE,,,,,,,185,ulleres,Catalan,Sounds/cat_ulleres.mp3,2020-06-05_16h21.27.837,TranslationElicitation_eng-prolific,3.2.4,Win32,60,5c2fb1412c45d400014ae103,,1,0,81,76,1,80
,,,,,,,,,,,,,,,,,,,,,,,,,,,,,,,,,,,,,,,,,,return,5.765000105,NA,FALSE,,,,,,,185,ulleres,Catalan,Sounds/cat_ulleres.mp3,2020-06-05_16h21.27.837,TranslationElicitation_eng-prolific,3.2.4,Win32,60,5c2fb1412c45d400014ae103,5.765000105,1,0,81,76,1,80
,,,,,,,,,,,,,,,,,,,,,,,,,,,,,,,,,,,,,,,,,,,,,,,,,,,,185,ulleres,Catalan,Sounds/cat_ulleres.mp3,2020-06-05_16h21.27.837,TranslationElicitation_eng-prolific,3.2.4,Win32,60,5c2fb1412c45d400014ae103,,1,0,81,76,1,80
,,,,,,,,,,,,,,,,,,,,,,,,,,,,,,,,,,,,,,,,,,d,2.182999849,D,FALSE,,,,,,,181,tobogan,Catalan,Sounds/cat_tobogan.mp3,2020-06-05_16h21.27.837,TranslationElicitation_eng-prolific,3.2.4,Win32,60,5c2fb1412c45d400014ae103,,1,0,81,72,1,80
,,,,,,,,,,,,,,,,,,,,,,,,,,,,,,,,,,,,,,,,,,o,2.21600008,DO,FALSE,,,,,,,181,tobogan,Catalan,Sounds/cat_tobogan.mp3,2020-06-05_16h21.27.837,TranslationElicitation_eng-prolific,3.2.4,Win32,60,5c2fb1412c45d400014ae103,,1,0,81,72,1,80
,,,,,,,,,,,,,,,,,,,,,,,,,,,,,,,,,,,,,,,,,,u,2.381999969,DOU,FALSE,,,,,,,181,tobogan,Catalan,Sounds/cat_tobogan.mp3,2020-06-05_16h21.27.837,TranslationElicitation_eng-prolific,3.2.4,Win32,60,5c2fb1412c45d400014ae103,,1,0,81,72,1,80
,,,,,,,,,,,,,,,,,,,,,,,,,,,,,,,,,,,,,,,,,,b,2.46600008,DOUB,FALSE,,,,,,,181,tobogan,Catalan,Sounds/cat_tobogan.mp3,2020-06-05_16h21.27.837,TranslationElicitation_eng-prolific,3.2.4,Win32,60,5c2fb1412c45d400014ae103,,1,0,81,72,1,80
,,,,,,,,,,,,,,,,,,,,,,,,,,,,,,,,,,,,,,,,,,l,2.565999985,DOUBL,FALSE,,,,,,,181,tobogan,Catalan,Sounds/cat_tobogan.mp3,2020-06-05_16h21.27.837,TranslationElicitation_eng-prolific,3.2.4,Win32,60,5c2fb1412c45d400014ae103,,1,0,81,72,1,80
,,,,,,,,,,,,,,,,,,,,,,,,,,,,,,,,,,,,,,,,,,e,2.681999922,DOUBLE,FALSE,,,,,,,181,tobogan,Catalan,Sounds/cat_tobogan.mp3,2020-06-05_16h21.27.837,TranslationElicitation_eng-prolific,3.2.4,Win32,60,5c2fb1412c45d400014ae103,,1,0,81,72,1,80
,,,,,,,,,,,,,,,,,,,,,,,,,,,,,,,,,,,,,,,,,,return,2.981999874,DOUBLE,FALSE,,,,,,,181,tobogan,Catalan,Sounds/cat_tobogan.mp3,2020-06-05_16h21.27.837,TranslationElicitation_eng-prolific,3.2.4,Win32,60,5c2fb1412c45d400014ae103,2.981999874,1,0,81,72,1,80
,,,,,,,,,,,,,,,,,,,,,,,,,,,,,,,,,,,,,,,,,,,,,,,,,,,,181,tobogan,Catalan,Sounds/cat_tobogan.mp3,2020-06-05_16h21.27.837,TranslationElicitation_eng-prolific,3.2.4,Win32,60,5c2fb1412c45d400014ae103,,1,0,81,72,1,80
,,,,,,,,,,,,,,,,,,,,,,,,,,,,,,,,,,,,,,,,,,c,1.48300004,C,FALSE,,,,,,,119,caixa,Catalan,Sounds/cat_caixa.mp3,2020-06-05_16h21.27.837,TranslationElicitation_eng-prolific,3.2.4,Win32,60,5c2fb1412c45d400014ae103,,1,0,81,14,1,80
,,,,,,,,,,,,,,,,,,,,,,,,,,,,,,,,,,,,,,,,,,a,1.767000198,CA,FALSE,,,,,,,119,caixa,Catalan,Sounds/cat_caixa.mp3,2020-06-05_16h21.27.837,TranslationElicitation_eng-prolific,3.2.4,Win32,60,5c2fb1412c45d400014ae103,,1,0,81,14,1,80
,,,,,,,,,,,,,,,,,,,,,,,,,,,,,,,,,,,,,,,,,,s,1.833000183,CAS,FALSE,,,,,,,119,caixa,Catalan,Sounds/cat_caixa.mp3,2020-06-05_16h21.27.837,TranslationElicitation_eng-prolific,3.2.4,Win32,60,5c2fb1412c45d400014ae103,,1,0,81,14,1,80
,,,,,,,,,,,,,,,,,,,,,,,,,,,,,,,,,,,,,,,,,,h,2.282999992,CASH,FALSE,,,,,,,119,caixa,Catalan,Sounds/cat_caixa.mp3,2020-06-05_16h21.27.837,TranslationElicitation_eng-prolific,3.2.4,Win32,60,5c2fb1412c45d400014ae103,,1,0,81,14,1,80
,,,,,,,,,,,,,,,,,,,,,,,,,,,,,,,,,,,,,,,,,,return,2.532999992,CASH,FALSE,,,,,,,119,caixa,Catalan,Sounds/cat_caixa.mp3,2020-06-05_16h21.27.837,TranslationElicitation_eng-prolific,3.2.4,Win32,60,5c2fb1412c45d400014ae103,2.532999992,1,0,81,14,1,80
,,,,,,,,,,,,,,,,,,,,,,,,,,,,,,,,,,,,,,,,,,,,,,,,,,,,119,caixa,Catalan,Sounds/cat_caixa.mp3,2020-06-05_16h21.27.837,TranslationElicitation_eng-prolific,3.2.4,Win32,60,5c2fb1412c45d400014ae103,,1,0,81,14,1,80
,,,,,,,,,,,,,,,,,,,,,,,,,,,,,,,,,,,,,,,,,,t,1.832000017,T,FALSE,,,,,,,178,taronja,Catalan,Sounds/cat_taronja.mp3,2020-06-05_16h21.27.837,TranslationElicitation_eng-prolific,3.2.4,Win32,60,5c2fb1412c45d400014ae103,,1,0,81,70,1,80
,,,,,,,,,,,,,,,,,,,,,,,,,,,,,,,,,,,,,,,,,,a,4.648000002,TA,FALSE,,,,,,,178,taronja,Catalan,Sounds/cat_taronja.mp3,2020-06-05_16h21.27.837,TranslationElicitation_eng-prolific,3.2.4,Win32,60,5c2fb1412c45d400014ae103,,1,0,81,70,1,80
,,,,,,,,,,,,,,,,,,,,,,,,,,,,,,,,,,,,,,,,,,r,4.950000048,TAR,FALSE,,,,,,,178,taronja,Catalan,Sounds/cat_taronja.mp3,2020-06-05_16h21.27.837,TranslationElicitation_eng-prolific,3.2.4,Win32,60,5c2fb1412c45d400014ae103,,1,0,81,70,1,80
,,,,,,,,,,,,,,,,,,,,,,,,,,,,,,,,,,,,,,,,,,e,5.46600008,TARE,FALSE,,,,,,,178,taronja,Catalan,Sounds/cat_taronja.mp3,2020-06-05_16h21.27.837,TranslationElicitation_eng-prolific,3.2.4,Win32,60,5c2fb1412c45d400014ae103,,1,0,81,70,1,80
,,,,,,,,,,,,,,,,,,,,,,,,,,,,,,,,,,,,,,,,,,n,5.582000017,TAREN,FALSE,,,,,,,178,taronja,Catalan,Sounds/cat_taronja.mp3,2020-06-05_16h21.27.837,TranslationElicitation_eng-prolific,3.2.4,Win32,60,5c2fb1412c45d400014ae103,,1,0,81,70,1,80
,,,,,,,,,,,,,,,,,,,,,,,,,,,,,,,,,,,,,,,,,,t,5.683000088,TARENT,FALSE,,,,,,,178,taronja,Catalan,Sounds/cat_taronja.mp3,2020-06-05_16h21.27.837,TranslationElicitation_eng-prolific,3.2.4,Win32,60,5c2fb1412c45d400014ae103,,1,0,81,70,1,80
,,,,,,,,,,,,,,,,,,,,,,,,,,,,,,,,,,,,,,,,,,u,5.782000065,TARENTU,FALSE,,,,,,,178,taronja,Catalan,Sounds/cat_taronja.mp3,2020-06-05_16h21.27.837,TranslationElicitation_eng-prolific,3.2.4,Win32,60,5c2fb1412c45d400014ae103,,1,0,81,70,1,80
,,,,,,,,,,,,,,,,,,,,,,,,,,,,,,,,,,,,,,,,,,l,5.982000113,TARENTUL,FALSE,,,,,,,178,taronja,Catalan,Sounds/cat_taronja.mp3,2020-06-05_16h21.27.837,TranslationElicitation_eng-prolific,3.2.4,Win32,60,5c2fb1412c45d400014ae103,,1,0,81,70,1,80
,,,,,,,,,,,,,,,,,,,,,,,,,,,,,,,,,,,,,,,,,,a,6.048000097,TARENTULA,FALSE,,,,,,,178,taronja,Catalan,Sounds/cat_taronja.mp3,2020-06-05_16h21.27.837,TranslationElicitation_eng-prolific,3.2.4,Win32,60,5c2fb1412c45d400014ae103,,1,0,81,70,1,80
,,,,,,,,,,,,,,,,,,,,,,,,,,,,,,,,,,,,,,,,,,return,6.715000153,TARENTULA,FALSE,,,,,,,178,taronja,Catalan,Sounds/cat_taronja.mp3,2020-06-05_16h21.27.837,TranslationElicitation_eng-prolific,3.2.4,Win32,60,5c2fb1412c45d400014ae103,6.715000153,1,0,81,70,1,80
,,,,,,,,,,,,,,,,,,,,,,,,,,,,,,,,,,,,,,,,,,,,,,,,,,,,178,taronja,Catalan,Sounds/cat_taronja.mp3,2020-06-05_16h21.27.837,TranslationElicitation_eng-prolific,3.2.4,Win32,60,5c2fb1412c45d400014ae103,,1,0,81,70,1,80
,,,,,,,,,,,,,,,,,,,,,,,,,,,,,,,,,,,,,,,,,,l,1.815000057,L,FALSE,,,,,,,149,llibre,Catalan,Sounds/cat_llibre.mp3,2020-06-05_16h21.27.837,TranslationElicitation_eng-prolific,3.2.4,Win32,60,5c2fb1412c45d400014ae103,,1,0,81,42,1,80
,,,,,,,,,,,,,,,,,,,,,,,,,,,,,,,,,,,,,,,,,,i,2.430999994,LI,FALSE,,,,,,,149,llibre,Catalan,Sounds/cat_llibre.mp3,2020-06-05_16h21.27.837,TranslationElicitation_eng-prolific,3.2.4,Win32,60,5c2fb1412c45d400014ae103,,1,0,81,42,1,80
,,,,,,,,,,,,,,,,,,,,,,,,,,,,,,,,,,,,,,,,,,b,2.58100009,LIB,FALSE,,,,,,,149,llibre,Catalan,Sounds/cat_llibre.mp3,2020-06-05_16h21.27.837,TranslationElicitation_eng-prolific,3.2.4,Win32,60,5c2fb1412c45d400014ae103,,1,0,81,42,1,80
,,,,,,,,,,,,,,,,,,,,,,,,,,,,,,,,,,,,,,,,,,r,2.763999939,LIBR,FALSE,,,,,,,149,llibre,Catalan,Sounds/cat_llibre.mp3,2020-06-05_16h21.27.837,TranslationElicitation_eng-prolific,3.2.4,Win32,60,5c2fb1412c45d400014ae103,,1,0,81,42,1,80
,,,,,,,,,,,,,,,,,,,,,,,,,,,,,,,,,,,,,,,,,,a,2.963999987,LIBRA,FALSE,,,,,,,149,llibre,Catalan,Sounds/cat_llibre.mp3,2020-06-05_16h21.27.837,TranslationElicitation_eng-prolific,3.2.4,Win32,60,5c2fb1412c45d400014ae103,,1,0,81,42,1,80
,,,,,,,,,,,,,,,,,,,,,,,,,,,,,,,,,,,,,,,,,,backspace,3.364000082,LIBR,TRUE,,,,,,,149,llibre,Catalan,Sounds/cat_llibre.mp3,2020-06-05_16h21.27.837,TranslationElicitation_eng-prolific,3.2.4,Win32,60,5c2fb1412c45d400014ae103,,1,0,81,42,1,80
,,,,,,,,,,,,,,,,,,,,,,,,,,,,,,,,,,,,,,,,,,backspace,3.56400013,LIB,TRUE,,,,,,,149,llibre,Catalan,Sounds/cat_llibre.mp3,2020-06-05_16h21.27.837,TranslationElicitation_eng-prolific,3.2.4,Win32,60,5c2fb1412c45d400014ae103,,1,0,81,42,1,80
,,,,,,,,,,,,,,,,,,,,,,,,,,,,,,,,,,,,,,,,,,r,4.131000042,LIBR,TRUE,,,,,,,149,llibre,Catalan,Sounds/cat_llibre.mp3,2020-06-05_16h21.27.837,TranslationElicitation_eng-prolific,3.2.4,Win32,60,5c2fb1412c45d400014ae103,,1,0,81,42,1,80
,,,,,,,,,,,,,,,,,,,,,,,,,,,,,,,,,,,,,,,,,,a,4.280999899,LIBRA,TRUE,,,,,,,149,llibre,Catalan,Sounds/cat_llibre.mp3,2020-06-05_16h21.27.837,TranslationElicitation_eng-prolific,3.2.4,Win32,60,5c2fb1412c45d400014ae103,,1,0,81,42,1,80
,,,,,,,,,,,,,,,,,,,,,,,,,,,,,,,,,,,,,,,,,,r,4.516000032,LIBRAR,TRUE,,,,,,,149,llibre,Catalan,Sounds/cat_llibre.mp3,2020-06-05_16h21.27.837,TranslationElicitation_eng-prolific,3.2.4,Win32,60,5c2fb1412c45d400014ae103,,1,0,81,42,1,80
,,,,,,,,,,,,,,,,,,,,,,,,,,,,,,,,,,,,,,,,,,y,4.680999994,LIBRARY,TRUE,,,,,,,149,llibre,Catalan,Sounds/cat_llibre.mp3,2020-06-05_16h21.27.837,TranslationElicitation_eng-prolific,3.2.4,Win32,60,5c2fb1412c45d400014ae103,,1,0,81,42,1,80
,,,,,,,,,,,,,,,,,,,,,,,,,,,,,,,,,,,,,,,,,,return,4.980000019,LIBRARY,TRUE,,,,,,,149,llibre,Catalan,Sounds/cat_llibre.mp3,2020-06-05_16h21.27.837,TranslationElicitation_eng-prolific,3.2.4,Win32,60,5c2fb1412c45d400014ae103,4.980000019,1,0,81,42,1,80
,,,,,,,,,,,,,,,,,,,,,,,,,,,,,,,,,,,,,,,,,,,,,,,,,,,,149,llibre,Catalan,Sounds/cat_llibre.mp3,2020-06-05_16h21.27.837,TranslationElicitation_eng-prolific,3.2.4,Win32,60,5c2fb1412c45d400014ae103,,1,0,81,42,1,80
,,,,,,,,,,,,,,,,,,,,,,,,,,,,,,,,,,,,,,,,,,s,4.248999834,S,FALSE,,,,,,,133,estruc,Catalan,Sounds/cat_estruc.mp3,2020-06-05_16h21.27.837,TranslationElicitation_eng-prolific,3.2.4,Win32,60,5c2fb1412c45d400014ae103,,1,0,81,27,1,80
,,,,,,,,,,,,,,,,,,,,,,,,,,,,,,,,,,,,,,,,,,h,4.480999947,SH,FALSE,,,,,,,133,estruc,Catalan,Sounds/cat_estruc.mp3,2020-06-05_16h21.27.837,TranslationElicitation_eng-prolific,3.2.4,Win32,60,5c2fb1412c45d400014ae103,,1,0,81,27,1,80
,,,,,,,,,,,,,,,,,,,,,,,,,,,,,,,,,,,,,,,,,,o,4.580999851,SHO,FALSE,,,,,,,133,estruc,Catalan,Sounds/cat_estruc.mp3,2020-06-05_16h21.27.837,TranslationElicitation_eng-prolific,3.2.4,Win32,60,5c2fb1412c45d400014ae103,,1,0,81,27,1,80
,,,,,,,,,,,,,,,,,,,,,,,,,,,,,,,,,,,,,,,,,,e,4.730999947,SHOE,FALSE,,,,,,,133,estruc,Catalan,Sounds/cat_estruc.mp3,2020-06-05_16h21.27.837,TranslationElicitation_eng-prolific,3.2.4,Win32,60,5c2fb1412c45d400014ae103,,1,0,81,27,1,80
,,,,,,,,,,,,,,,,,,,,,,,,,,,,,,,,,,,,,,,,,,r,4.796999931,SHOER,FALSE,,,,,,,133,estruc,Catalan,Sounds/cat_estruc.mp3,2020-06-05_16h21.27.837,TranslationElicitation_eng-prolific,3.2.4,Win32,60,5c2fb1412c45d400014ae103,,1,0,81,27,1,80
,,,,,,,,,,,,,,,,,,,,,,,,,,,,,,,,,,,,,,,,,,backspace,5.196999788,SHOE,TRUE,,,,,,,133,estruc,Catalan,Sounds/cat_estruc.mp3,2020-06-05_16h21.27.837,TranslationElicitation_eng-prolific,3.2.4,Win32,60,5c2fb1412c45d400014ae103,,1,0,81,27,1,80
,,,,,,,,,,,,,,,,,,,,,,,,,,,,,,,,,,,,,,,,,,backspace,5.379999876,SHO,TRUE,,,,,,,133,estruc,Catalan,Sounds/cat_estruc.mp3,2020-06-05_16h21.27.837,TranslationElicitation_eng-prolific,3.2.4,Win32,60,5c2fb1412c45d400014ae103,,1,0,81,27,1,80
,,,,,,,,,,,,,,,,,,,,,,,,,,,,,,,,,,,,,,,,,,w,5.429999828,SHOW,TRUE,,,,,,,133,estruc,Catalan,Sounds/cat_estruc.mp3,2020-06-05_16h21.27.837,TranslationElicitation_eng-prolific,3.2.4,Win32,60,5c2fb1412c45d400014ae103,,1,0,81,27,1,80
,,,,,,,,,,,,,,,,,,,,,,,,,,,,,,,,,,,,,,,,,,e,5.497999907,SHOWE,TRUE,,,,,,,133,estruc,Catalan,Sounds/cat_estruc.mp3,2020-06-05_16h21.27.837,TranslationElicitation_eng-prolific,3.2.4,Win32,60,5c2fb1412c45d400014ae103,,1,0,81,27,1,80
,,,,,,,,,,,,,,,,,,,,,,,,,,,,,,,,,,,,,,,,,,r,5.563999891,SHOWER,TRUE,,,,,,,133,estruc,Catalan,Sounds/cat_estruc.mp3,2020-06-05_16h21.27.837,TranslationElicitation_eng-prolific,3.2.4,Win32,60,5c2fb1412c45d400014ae103,,1,0,81,27,1,80
,,,,,,,,,,,,,,,,,,,,,,,,,,,,,,,,,,,,,,,,,,return,5.696999788,SHOWER,TRUE,,,,,,,133,estruc,Catalan,Sounds/cat_estruc.mp3,2020-06-05_16h21.27.837,TranslationElicitation_eng-prolific,3.2.4,Win32,60,5c2fb1412c45d400014ae103,5.696999788,1,0,81,27,1,80
,,,,,,,,,,,,,,,,,,,,,,,,,,,,,,,,,,,,,,,,,,,,,,,,,,,,133,estruc,Catalan,Sounds/cat_estruc.mp3,2020-06-05_16h21.27.837,TranslationElicitation_eng-prolific,3.2.4,Win32,60,5c2fb1412c45d400014ae103,,1,0,81,27,1,80
,,,,,,,,,,,,,,,,,,,,,,,,,,,,,,,,,,,,,,,,,,c,1.630000114,C,FALSE,,,,,,,122,casa,Catalan,Sounds/cat_casa.mp3,2020-06-05_16h21.27.837,TranslationElicitation_eng-prolific,3.2.4,Win32,60,5c2fb1412c45d400014ae103,,1,0,81,17,1,80
,,,,,,,,,,,,,,,,,,,,,,,,,,,,,,,,,,,,,,,,,,a,1.847000122,CA,FALSE,,,,,,,122,casa,Catalan,Sounds/cat_casa.mp3,2020-06-05_16h21.27.837,TranslationElicitation_eng-prolific,3.2.4,Win32,60,5c2fb1412c45d400014ae103,,1,0,81,17,1,80
,,,,,,,,,,,,,,,,,,,,,,,,,,,,,,,,,,,,,,,,,,r,1.963000059,CAR,FALSE,,,,,,,122,casa,Catalan,Sounds/cat_casa.mp3,2020-06-05_16h21.27.837,TranslationElicitation_eng-prolific,3.2.4,Win32,60,5c2fb1412c45d400014ae103,,1,0,81,17,1,80
,,,,,,,,,,,,,,,,,,,,,,,,,,,,,,,,,,,,,,,,,,s,2.080000162,CARS,FALSE,,,,,,,122,casa,Catalan,Sounds/cat_casa.mp3,2020-06-05_16h21.27.837,TranslationElicitation_eng-prolific,3.2.4,Win32,60,5c2fb1412c45d400014ae103,,1,0,81,17,1,80
,,,,,,,,,,,,,,,,,,,,,,,,,,,,,,,,,,,,,,,,,,return,2.213000059,CARS,FALSE,,,,,,,122,casa,Catalan,Sounds/cat_casa.mp3,2020-06-05_16h21.27.837,TranslationElicitation_eng-prolific,3.2.4,Win32,60,5c2fb1412c45d400014ae103,2.213000059,1,0,81,17,1,80
,,,,,,,,,,,,,,,,,,,,,,,,,,,,,,,,,,,,,,,,,,,,,,,,,,,,122,casa,Catalan,Sounds/cat_casa.mp3,2020-06-05_16h21.27.837,TranslationElicitation_eng-prolific,3.2.4,Win32,60,5c2fb1412c45d400014ae103,,1,0,81,17,1,80
,,,,,,,,,,,,,,,,,,,,,,,,,,,,,,,,,,,,,,,,,,n,2.133000135,N,FALSE,,,,,,,104,abella,Catalan,Sounds/cat_abella.mp3,2020-06-05_16h21.27.837,TranslationElicitation_eng-prolific,3.2.4,Win32,60,5c2fb1412c45d400014ae103,,1,0,81,0,1,80
,,,,,,,,,,,,,,,,,,,,,,,,,,,,,,,,,,,,,,,,,,a,2.21600008,NA,FALSE,,,,,,,104,abella,Catalan,Sounds/cat_abella.mp3,2020-06-05_16h21.27.837,TranslationElicitation_eng-prolific,3.2.4,Win32,60,5c2fb1412c45d400014ae103,,1,0,81,0,1,80
,,,,,,,,,,,,,,,,,,,,,,,,,,,,,,,,,,,,,,,,,,return,2.365999937,NA,FALSE,,,,,,,104,abella,Catalan,Sounds/cat_abella.mp3,2020-06-05_16h21.27.837,TranslationElicitation_eng-prolific,3.2.4,Win32,60,5c2fb1412c45d400014ae103,2.365999937,1,0,81,0,1,80
,,,,,,,,,,,,,,,,,,,,,,,,,,,,,,,,,,,,,,,,,,,,,,,,,,,,104,abella,Catalan,Sounds/cat_abella.mp3,2020-06-05_16h21.27.837,TranslationElicitation_eng-prolific,3.2.4,Win32,60,5c2fb1412c45d400014ae103,,1,0,81,0,1,80
,,,,,,,,,,,,,,,,,,,,,,,,,,,,,,,,,,,,,,,,,,h,6.799000025,H,FALSE,,,,,,,123,cavall,Catalan,Sounds/cat_cavall.mp3,2020-06-05_16h21.27.837,TranslationElicitation_eng-prolific,3.2.4,Win32,60,5c2fb1412c45d400014ae103,,1,0,81,18,1,80
,,,,,,,,,,,,,,,,,,,,,,,,,,,,,,,,,,,,,,,,,,a,6.848999977,HA,FALSE,,,,,,,123,cavall,Catalan,Sounds/cat_cavall.mp3,2020-06-05_16h21.27.837,TranslationElicitation_eng-prolific,3.2.4,Win32,60,5c2fb1412c45d400014ae103,,1,0,81,18,1,80
,,,,,,,,,,,,,,,,,,,,,,,,,,,,,,,,,,,,,,,,,,m,6.982000113,HAM,FALSE,,,,,,,123,cavall,Catalan,Sounds/cat_cavall.mp3,2020-06-05_16h21.27.837,TranslationElicitation_eng-prolific,3.2.4,Win32,60,5c2fb1412c45d400014ae103,,1,0,81,18,1,80
,,,,,,,,,,,,,,,,,,,,,,,,,,,,,,,,,,,,,,,,,,return,7.131999969,HAM,FALSE,,,,,,,123,cavall,Catalan,Sounds/cat_cavall.mp3,2020-06-05_16h21.27.837,TranslationElicitation_eng-prolific,3.2.4,Win32,60,5c2fb1412c45d400014ae103,7.131999969,1,0,81,18,1,80
,,,,,,,,,,,,,,,,,,,,,,,,,,,,,,,,,,,,,,,,,,,,,,,,,,,,123,cavall,Catalan,Sounds/cat_cavall.mp3,2020-06-05_16h21.27.837,TranslationElicitation_eng-prolific,3.2.4,Win32,60,5c2fb1412c45d400014ae103,,1,0,81,18,1,80
,,,,,,,,,,,,,,,,,,,,,,,,,,,,,,,,,,,,,,,,,,p,1.683000088,P,FALSE,,,,,,,166,peu,Catalan,Sounds/cat_peu.mp3,2020-06-05_16h21.27.837,TranslationElicitation_eng-prolific,3.2.4,Win32,60,5c2fb1412c45d400014ae103,,1,0,81,58,1,80
,,,,,,,,,,,,,,,,,,,,,,,,,,,,,,,,,,,,,,,,,,e,1.766000032,PE,FALSE,,,,,,,166,peu,Catalan,Sounds/cat_peu.mp3,2020-06-05_16h21.27.837,TranslationElicitation_eng-prolific,3.2.4,Win32,60,5c2fb1412c45d400014ae103,,1,0,81,58,1,80
,,,,,,,,,,,,,,,,,,,,,,,,,,,,,,,,,,,,,,,,,,a,1.933000088,PEA,FALSE,,,,,,,166,peu,Catalan,Sounds/cat_peu.mp3,2020-06-05_16h21.27.837,TranslationElicitation_eng-prolific,3.2.4,Win32,60,5c2fb1412c45d400014ae103,,1,0,81,58,1,80
,,,,,,,,,,,,,,,,,,,,,,,,,,,,,,,,,,,,,,,,,,r,2.003000021,PEAR,FALSE,,,,,,,166,peu,Catalan,Sounds/cat_peu.mp3,2020-06-05_16h21.27.837,TranslationElicitation_eng-prolific,3.2.4,Win32,60,5c2fb1412c45d400014ae103,,1,0,81,58,1,80
,,,,,,,,,,,,,,,,,,,,,,,,,,,,,,,,,,,,,,,,,,return,2.166000128,PEAR,FALSE,,,,,,,166,peu,Catalan,Sounds/cat_peu.mp3,2020-06-05_16h21.27.837,TranslationElicitation_eng-prolific,3.2.4,Win32,60,5c2fb1412c45d400014ae103,2.166000128,1,0,81,58,1,80
,,,,,,,,,,,,,,,,,,,,,,,,,,,,,,,,,,,,,,,,,,,,,,,,,,,,166,peu,Catalan,Sounds/cat_peu.mp3,2020-06-05_16h21.27.837,TranslationElicitation_eng-prolific,3.2.4,Win32,60,5c2fb1412c45d400014ae103,,1,0,81,58,1,80
,,,,,,,,,,,,,,,,,,,,,,,,,,,,,,,,,,,,,,,,,,r,1.75,R,FALSE,,,,,,,161,ovella,Catalan,Sounds/cat_ovella.mp3,2020-06-05_16h21.27.837,TranslationElicitation_eng-prolific,3.2.4,Win32,60,5c2fb1412c45d400014ae103,,1,0,81,53,1,80
,,,,,,,,,,,,,,,,,,,,,,,,,,,,,,,,,,,,,,,,,,backspace,2.465999842,,TRUE,,,,,,,161,ovella,Catalan,Sounds/cat_ovella.mp3,2020-06-05_16h21.27.837,TranslationElicitation_eng-prolific,3.2.4,Win32,60,5c2fb1412c45d400014ae103,,1,0,81,53,1,80
,,,,,,,,,,,,,,,,,,,,,,,,,,,,,,,,,,,,,,,,,,n,5.148000002,N,TRUE,,,,,,,161,ovella,Catalan,Sounds/cat_ovella.mp3,2020-06-05_16h21.27.837,TranslationElicitation_eng-prolific,3.2.4,Win32,60,5c2fb1412c45d400014ae103,,1,0,81,53,1,80
,,,,,,,,,,,,,,,,,,,,,,,,,,,,,,,,,,,,,,,,,,a,5.247999907,NA,TRUE,,,,,,,161,ovella,Catalan,Sounds/cat_ovella.mp3,2020-06-05_16h21.27.837,TranslationElicitation_eng-prolific,3.2.4,Win32,60,5c2fb1412c45d400014ae103,,1,0,81,53,1,80
,,,,,,,,,,,,,,,,,,,,,,,,,,,,,,,,,,,,,,,,,,return,5.381999969,NA,TRUE,,,,,,,161,ovella,Catalan,Sounds/cat_ovella.mp3,2020-06-05_16h21.27.837,TranslationElicitation_eng-prolific,3.2.4,Win32,60,5c2fb1412c45d400014ae103,5.381999969,1,0,81,53,1,80
,,,,,,,,,,,,,,,,,,,,,,,,,,,,,,,,,,,,,,,,,,,,,,,,,,,,161,ovella,Catalan,Sounds/cat_ovella.mp3,2020-06-05_16h21.27.837,TranslationElicitation_eng-prolific,3.2.4,Win32,60,5c2fb1412c45d400014ae103,,1,0,81,53,1,80
,,,,,,,,,,,,,,,,,,,,,,,,,,,,,,,,,,,,,,,,,,g,1.848999977,G,FALSE,,,,,,,145,got,Catalan,Sounds/cat_got.mp3,2020-06-05_16h21.27.837,TranslationElicitation_eng-prolific,3.2.4,Win32,60,5c2fb1412c45d400014ae103,,1,0,81,39,1,80
,,,,,,,,,,,,,,,,,,,,,,,,,,,,,,,,,,,,,,,,,,o,1.965999842,GO,FALSE,,,,,,,145,got,Catalan,Sounds/cat_got.mp3,2020-06-05_16h21.27.837,TranslationElicitation_eng-prolific,3.2.4,Win32,60,5c2fb1412c45d400014ae103,,1,0,81,39,1,80
,,,,,,,,,,,,,,,,,,,,,,,,,,,,,,,,,,,,,,,,,,d,2.065999985,GOD,FALSE,,,,,,,145,got,Catalan,Sounds/cat_got.mp3,2020-06-05_16h21.27.837,TranslationElicitation_eng-prolific,3.2.4,Win32,60,5c2fb1412c45d400014ae103,,1,0,81,39,1,80
,,,,,,,,,,,,,,,,,,,,,,,,,,,,,,,,,,,,,,,,,,return,2.25,GOD,FALSE,,,,,,,145,got,Catalan,Sounds/cat_got.mp3,2020-06-05_16h21.27.837,TranslationElicitation_eng-prolific,3.2.4,Win32,60,5c2fb1412c45d400014ae103,2.25,1,0,81,39,1,80
,,,,,,,,,,,,,,,,,,,,,,,,,,,,,,,,,,,,,,,,,,,,,,,,,,,,145,got,Catalan,Sounds/cat_got.mp3,2020-06-05_16h21.27.837,TranslationElicitation_eng-prolific,3.2.4,Win32,60,5c2fb1412c45d400014ae103,,1,0,81,39,1,80
,,,,,,,,,,,,,,,,,,,,,,,,,,,,,,,,,,,,,,,,,,g,1.832000017,G,FALSE,,,,,,,140,gat,Catalan,Sounds/cat_gat.mp3,2020-06-05_16h21.27.837,TranslationElicitation_eng-prolific,3.2.4,Win32,60,5c2fb1412c45d400014ae103,,1,0,81,34,1,80
,,,,,,,,,,,,,,,,,,,,,,,,,,,,,,,,,,,,,,,,,,o,2.898000002,GO,FALSE,,,,,,,140,gat,Catalan,Sounds/cat_gat.mp3,2020-06-05_16h21.27.837,TranslationElicitation_eng-prolific,3.2.4,Win32,60,5c2fb1412c45d400014ae103,,1,0,81,34,1,80
,,,,,,,,,,,,,,,,,,,,,,,,,,,,,,,,,,,,,,,,,,d,2.948999882,GOD,FALSE,,,,,,,140,gat,Catalan,Sounds/cat_gat.mp3,2020-06-05_16h21.27.837,TranslationElicitation_eng-prolific,3.2.4,Win32,60,5c2fb1412c45d400014ae103,,1,0,81,34,1,80
,,,,,,,,,,,,,,,,,,,,,,,,,,,,,,,,,,,,,,,,,,return,3.280999899,GOD,FALSE,,,,,,,140,gat,Catalan,Sounds/cat_gat.mp3,2020-06-05_16h21.27.837,TranslationElicitation_eng-prolific,3.2.4,Win32,60,5c2fb1412c45d400014ae103,3.280999899,1,0,81,34,1,80
,,,,,,,,,,,,,,,,,,,,,,,,,,,,,,,,,,,,,,,,,,,,,,,,,,,,140,gat,Catalan,Sounds/cat_gat.mp3,2020-06-05_16h21.27.837,TranslationElicitation_eng-prolific,3.2.4,Win32,60,5c2fb1412c45d400014ae103,,1,0,81,34,1,80
,,,,,,,,,,,,,,,,,,,,,,,,,,,,,,,,,,,,,,,,,,e,1.882999897,E,FALSE,,,,,,,150,lloro,Catalan,Sounds/cat_lloro.mp3,2020-06-05_16h21.27.837,TranslationElicitation_eng-prolific,3.2.4,Win32,60,5c2fb1412c45d400014ae103,,1,0,81,43,1,80
,,,,,,,,,,,,,,,,,,,,,,,,,,,,,,,,,,,,,,,,,,u,2.032999992,EU,FALSE,,,,,,,150,lloro,Catalan,Sounds/cat_lloro.mp3,2020-06-05_16h21.27.837,TranslationElicitation_eng-prolific,3.2.4,Win32,60,5c2fb1412c45d400014ae103,,1,0,81,43,1,80
,,,,,,,,,,,,,,,,,,,,,,,,,,,,,,,,,,,,,,,,,,r,2.098999977,EUR,FALSE,,,,,,,150,lloro,Catalan,Sounds/cat_lloro.mp3,2020-06-05_16h21.27.837,TranslationElicitation_eng-prolific,3.2.4,Win32,60,5c2fb1412c45d400014ae103,,1,0,81,43,1,80
,,,,,,,,,,,,,,,,,,,,,,,,,,,,,,,,,,,,,,,,,,o,2.282999992,EURO,FALSE,,,,,,,150,lloro,Catalan,Sounds/cat_lloro.mp3,2020-06-05_16h21.27.837,TranslationElicitation_eng-prolific,3.2.4,Win32,60,5c2fb1412c45d400014ae103,,1,0,81,43,1,80
,,,,,,,,,,,,,,,,,,,,,,,,,,,,,,,,,,,,,,,,,,return,2.348999977,EURO,FALSE,,,,,,,150,lloro,Catalan,Sounds/cat_lloro.mp3,2020-06-05_16h21.27.837,TranslationElicitation_eng-prolific,3.2.4,Win32,60,5c2fb1412c45d400014ae103,2.348999977,1,0,81,43,1,80
,,,,,,,,,,,,,,,,,,,,,,,,,,,,,,,,,,,,,,,,,,,,,,,,,,,,150,lloro,Catalan,Sounds/cat_lloro.mp3,2020-06-05_16h21.27.837,TranslationElicitation_eng-prolific,3.2.4,Win32,60,5c2fb1412c45d400014ae103,,1,0,81,43,1,80
,,,,,,,,,,,,,,,,,,,,,,,,,,,,,,,,,,,,,,,,,,b,2.098999977,B,FALSE,,,,,,,112,bici,Catalan,Sounds/cat_bici.mp3,2020-06-05_16h21.27.837,TranslationElicitation_eng-prolific,3.2.4,Win32,60,5c2fb1412c45d400014ae103,,1,0,81,7,1,80
,,,,,,,,,,,,,,,,,,,,,,,,,,,,,,,,,,,,,,,,,,c,2.182999849,BC,FALSE,,,,,,,112,bici,Catalan,Sounds/cat_bici.mp3,2020-06-05_16h21.27.837,TranslationElicitation_eng-prolific,3.2.4,Win32,60,5c2fb1412c45d400014ae103,,1,0,81,7,1,80
,,,,,,,,,,,,,,,,,,,,,,,,,,,,,,,,,,,,,,,,,,return,2.382999897,BC,FALSE,,,,,,,112,bici,Catalan,Sounds/cat_bici.mp3,2020-06-05_16h21.27.837,TranslationElicitation_eng-prolific,3.2.4,Win32,60,5c2fb1412c45d400014ae103,2.382999897,1,0,81,7,1,80
,,,,,,,,,,,,,,,,,,,,,,,,,,,,,,,,,,,,,,,,,,,,,,,,,,,,112,bici,Catalan,Sounds/cat_bici.mp3,2020-06-05_16h21.27.837,TranslationElicitation_eng-prolific,3.2.4,Win32,60,5c2fb1412c45d400014ae103,,1,0,81,7,1,80
,,,,,,,,,,,,,,,,,,,,,,,,,,,,,,,,,,,,,,,,,,p,1.849999905,P,FALSE,,,,,,,108,ampolla,Catalan,Sounds/cat_ampolla.mp3,2020-06-05_16h21.27.837,TranslationElicitation_eng-prolific,3.2.4,Win32,60,5c2fb1412c45d400014ae103,,1,0,81,4,1,80
,,,,,,,,,,,,,,,,,,,,,,,,,,,,,,,,,,,,,,,,,,o,2.049999952,PO,FALSE,,,,,,,108,ampolla,Catalan,Sounds/cat_ampolla.mp3,2020-06-05_16h21.27.837,TranslationElicitation_eng-prolific,3.2.4,Win32,60,5c2fb1412c45d400014ae103,,1,0,81,4,1,80
,,,,,,,,,,,,,,,,,,,,,,,,,,,,,,,,,,,,,,,,,,o,2.217000008,POO,FALSE,,,,,,,108,ampolla,Catalan,Sounds/cat_ampolla.mp3,2020-06-05_16h21.27.837,TranslationElicitation_eng-prolific,3.2.4,Win32,60,5c2fb1412c45d400014ae103,,1,0,81,4,1,80
,,,,,,,,,,,,,,,,,,,,,,,,,,,,,,,,,,,,,,,,,,r,2.25,POOR,FALSE,,,,,,,108,ampolla,Catalan,Sounds/cat_ampolla.mp3,2020-06-05_16h21.27.837,TranslationElicitation_eng-prolific,3.2.4,Win32,60,5c2fb1412c45d400014ae103,,1,0,81,4,1,80
,,,,,,,,,,,,,,,,,,,,,,,,,,,,,,,,,,,,,,,,,,return,2.382999897,POOR,FALSE,,,,,,,108,ampolla,Catalan,Sounds/cat_ampolla.mp3,2020-06-05_16h21.27.837,TranslationElicitation_eng-prolific,3.2.4,Win32,60,5c2fb1412c45d400014ae103,2.382999897,1,0,81,4,1,80
,,,,,,,,,,,,,,,,,,,,,,,,,,,,,,,,,,,,,,,,,,,,,,,,,,,,108,ampolla,Catalan,Sounds/cat_ampolla.mp3,2020-06-05_16h21.27.837,TranslationElicitation_eng-prolific,3.2.4,Win32,60,5c2fb1412c45d400014ae103,,1,0,81,4,1,80
,,,,,,,,,,,,,,,,,,,,,,,,,,,,,,,,,,,,,,,,,,p,1.5,P,FALSE,,,,,,,168,planta,Catalan,Sounds/cat_planta.mp3,2020-06-05_16h21.27.837,TranslationElicitation_eng-prolific,3.2.4,Win32,60,5c2fb1412c45d400014ae103,,1,0,81,60,1,80
,,,,,,,,,,,,,,,,,,,,,,,,,,,,,,,,,,,,,,,,,,l,1.582999945,PL,FALSE,,,,,,,168,planta,Catalan,Sounds/cat_planta.mp3,2020-06-05_16h21.27.837,TranslationElicitation_eng-prolific,3.2.4,Win32,60,5c2fb1412c45d400014ae103,,1,0,81,60,1,80
,,,,,,,,,,,,,,,,,,,,,,,,,,,,,,,,,,,,,,,,,,a,1.832999945,PLA,FALSE,,,,,,,168,planta,Catalan,Sounds/cat_planta.mp3,2020-06-05_16h21.27.837,TranslationElicitation_eng-prolific,3.2.4,Win32,60,5c2fb1412c45d400014ae103,,1,0,81,60,1,80
,,,,,,,,,,,,,,,,,,,,,,,,,,,,,,,,,,,,,,,,,,n,1.933000088,PLAN,FALSE,,,,,,,168,planta,Catalan,Sounds/cat_planta.mp3,2020-06-05_16h21.27.837,TranslationElicitation_eng-prolific,3.2.4,Win32,60,5c2fb1412c45d400014ae103,,1,0,81,60,1,80
,,,,,,,,,,,,,,,,,,,,,,,,,,,,,,,,,,,,,,,,,,t,2.032999992,PLANT,FALSE,,,,,,,168,planta,Catalan,Sounds/cat_planta.mp3,2020-06-05_16h21.27.837,TranslationElicitation_eng-prolific,3.2.4,Win32,60,5c2fb1412c45d400014ae103,,1,0,81,60,1,80
,,,,,,,,,,,,,,,,,,,,,,,,,,,,,,,,,,,,,,,,,,return,2.732000113,PLANT,FALSE,,,,,,,168,planta,Catalan,Sounds/cat_planta.mp3,2020-06-05_16h21.27.837,TranslationElicitation_eng-prolific,3.2.4,Win32,60,5c2fb1412c45d400014ae103,2.732000113,1,0,81,60,1,80
,,,,,,,,,,,,,,,,,,,,,,,,,,,,,,,,,,,,,,,,,,,,,,,,,,,,168,planta,Catalan,Sounds/cat_planta.mp3,2020-06-05_16h21.27.837,TranslationElicitation_eng-prolific,3.2.4,Win32,60,5c2fb1412c45d400014ae103,,1,0,81,60,1,80
,,,,,,,,,,,,,,,,,,,,,,,,,,,,,,,,,,,,,,,,,,n,2.36500001,N,FALSE,,,,,,,158,nas,Catalan,Sounds/cat_nas.mp3,2020-06-05_16h21.27.837,TranslationElicitation_eng-prolific,3.2.4,Win32,60,5c2fb1412c45d400014ae103,,1,0,81,51,1,80
,,,,,,,,,,,,,,,,,,,,,,,,,,,,,,,,,,,,,,,,,,o,2.532000065,NO,FALSE,,,,,,,158,nas,Catalan,Sounds/cat_nas.mp3,2020-06-05_16h21.27.837,TranslationElicitation_eng-prolific,3.2.4,Win32,60,5c2fb1412c45d400014ae103,,1,0,81,51,1,80
,,,,,,,,,,,,,,,,,,,,,,,,,,,,,,,,,,,,,,,,,,return,3.032000065,NO,FALSE,,,,,,,158,nas,Catalan,Sounds/cat_nas.mp3,2020-06-05_16h21.27.837,TranslationElicitation_eng-prolific,3.2.4,Win32,60,5c2fb1412c45d400014ae103,3.032000065,1,0,81,51,1,80
,,,,,,,,,,,,,,,,,,,,,,,,,,,,,,,,,,,,,,,,,,,,,,,,,,,,158,nas,Catalan,Sounds/cat_nas.mp3,2020-06-05_16h21.27.837,TranslationElicitation_eng-prolific,3.2.4,Win32,60,5c2fb1412c45d400014ae103,,1,0,81,51,1,80
,,,,,,,,,,,,,,,,,,,,,,,,,,,,,,,,,,,,,,,,,,p,1.73300004,P,FALSE,,,,,,,170,ploma,Catalan,Sounds/cat_ploma.mp3,2020-06-05_16h21.27.837,TranslationElicitation_eng-prolific,3.2.4,Win32,60,5c2fb1412c45d400014ae103,,1,0,81,62,1,80
,,,,,,,,,,,,,,,,,,,,,,,,,,,,,,,,,,,,,,,,,,l,1.832999945,PL,FALSE,,,,,,,170,ploma,Catalan,Sounds/cat_ploma.mp3,2020-06-05_16h21.27.837,TranslationElicitation_eng-prolific,3.2.4,Win32,60,5c2fb1412c45d400014ae103,,1,0,81,62,1,80
,,,,,,,,,,,,,,,,,,,,,,,,,,,,,,,,,,,,,,,,,,u,2.131999969,PLU,FALSE,,,,,,,170,ploma,Catalan,Sounds/cat_ploma.mp3,2020-06-05_16h21.27.837,TranslationElicitation_eng-prolific,3.2.4,Win32,60,5c2fb1412c45d400014ae103,,1,0,81,62,1,80
,,,,,,,,,,,,,,,,,,,,,,,,,,,,,,,,,,,,,,,,,,m,2.299000025,PLUM,FALSE,,,,,,,170,ploma,Catalan,Sounds/cat_ploma.mp3,2020-06-05_16h21.27.837,TranslationElicitation_eng-prolific,3.2.4,Win32,60,5c2fb1412c45d400014ae103,,1,0,81,62,1,80
,,,,,,,,,,,,,,,,,,,,,,,,,,,,,,,,,,,,,,,,,,return,2.516000032,PLUM,FALSE,,,,,,,170,ploma,Catalan,Sounds/cat_ploma.mp3,2020-06-05_16h21.27.837,TranslationElicitation_eng-prolific,3.2.4,Win32,60,5c2fb1412c45d400014ae103,2.516000032,1,0,81,62,1,80
,,,,,,,,,,,,,,,,,,,,,,,,,,,,,,,,,,,,,,,,,,,,,,,,,,,,170,ploma,Catalan,Sounds/cat_ploma.mp3,2020-06-05_16h21.27.837,TranslationElicitation_eng-prolific,3.2.4,Win32,60,5c2fb1412c45d400014ae103,,1,0,81,62,1,80
,,,,,,,,,,,,,,,,,,,,,,,,,,,,,,,,,,,,,,,,,,p,1.715999842,P,FALSE,,,,,,,167,pingui,Catalan,Sounds/cat_pingui.mp3,2020-06-05_16h21.27.837,TranslationElicitation_eng-prolific,3.2.4,Win32,60,5c2fb1412c45d400014ae103,,1,0,81,59,1,80
,,,,,,,,,,,,,,,,,,,,,,,,,,,,,,,,,,,,,,,,,,e,1.883999825,PE,FALSE,,,,,,,167,pingui,Catalan,Sounds/cat_pingui.mp3,2020-06-05_16h21.27.837,TranslationElicitation_eng-prolific,3.2.4,Win32,60,5c2fb1412c45d400014ae103,,1,0,81,59,1,80
,,,,,,,,,,,,,,,,,,,,,,,,,,,,,,,,,,,,,,,,,,n,1.998999834,PEN,FALSE,,,,,,,167,pingui,Catalan,Sounds/cat_pingui.mp3,2020-06-05_16h21.27.837,TranslationElicitation_eng-prolific,3.2.4,Win32,60,5c2fb1412c45d400014ae103,,1,0,81,59,1,80
,,,,,,,,,,,,,,,,,,,,,,,,,,,,,,,,,,,,,,,,,,g,2.098999977,PENG,FALSE,,,,,,,167,pingui,Catalan,Sounds/cat_pingui.mp3,2020-06-05_16h21.27.837,TranslationElicitation_eng-prolific,3.2.4,Win32,60,5c2fb1412c45d400014ae103,,1,0,81,59,1,80
,,,,,,,,,,,,,,,,,,,,,,,,,,,,,,,,,,,,,,,,,,u,2.198999882,PENGU,FALSE,,,,,,,167,pingui,Catalan,Sounds/cat_pingui.mp3,2020-06-05_16h21.27.837,TranslationElicitation_eng-prolific,3.2.4,Win32,60,5c2fb1412c45d400014ae103,,1,0,81,59,1,80
,,,,,,,,,,,,,,,,,,,,,,,,,,,,,,,,,,,,,,,,,,i,2.382999897,PENGUI,FALSE,,,,,,,167,pingui,Catalan,Sounds/cat_pingui.mp3,2020-06-05_16h21.27.837,TranslationElicitation_eng-prolific,3.2.4,Win32,60,5c2fb1412c45d400014ae103,,1,0,81,59,1,80
,,,,,,,,,,,,,,,,,,,,,,,,,,,,,,,,,,,,,,,,,,n,2.415999889,PENGUIN,FALSE,,,,,,,167,pingui,Catalan,Sounds/cat_pingui.mp3,2020-06-05_16h21.27.837,TranslationElicitation_eng-prolific,3.2.4,Win32,60,5c2fb1412c45d400014ae103,,1,0,81,59,1,80
,,,,,,,,,,,,,,,,,,,,,,,,,,,,,,,,,,,,,,,,,,return,2.848999977,PENGUIN,FALSE,,,,,,,167,pingui,Catalan,Sounds/cat_pingui.mp3,2020-06-05_16h21.27.837,TranslationElicitation_eng-prolific,3.2.4,Win32,60,5c2fb1412c45d400014ae103,2.848999977,1,0,81,59,1,80
,,,,,,,,,,,,,,,,,,,,,,,,,,,,,,,,,,,,,,,,,,,,,,,,,,,,167,pingui,Catalan,Sounds/cat_pingui.mp3,2020-06-05_16h21.27.837,TranslationElicitation_eng-prolific,3.2.4,Win32,60,5c2fb1412c45d400014ae103,,1,0,81,59,1,80
,,,,,,,,,,,,,,,,,,,,,,,,,,,,,,,,,,,,,,,,,,t,1.282999992,T,FALSE,,,,,,,182,tomaquet,Catalan,Sounds/cat_tomaquet.mp3,2020-06-05_16h21.27.837,TranslationElicitation_eng-prolific,3.2.4,Win32,60,5c2fb1412c45d400014ae103,,1,0,81,73,1,80
,,,,,,,,,,,,,,,,,,,,,,,,,,,,,,,,,,,,,,,,,,o,1.382999897,TO,FALSE,,,,,,,182,tomaquet,Catalan,Sounds/cat_tomaquet.mp3,2020-06-05_16h21.27.837,TranslationElicitation_eng-prolific,3.2.4,Win32,60,5c2fb1412c45d400014ae103,,1,0,81,73,1,80
,,,,,,,,,,,,,,,,,,,,,,,,,,,,,,,,,,,,,,,,,,m,1.465999842,TOM,FALSE,,,,,,,182,tomaquet,Catalan,Sounds/cat_tomaquet.mp3,2020-06-05_16h21.27.837,TranslationElicitation_eng-prolific,3.2.4,Win32,60,5c2fb1412c45d400014ae103,,1,0,81,73,1,80
,,,,,,,,,,,,,,,,,,,,,,,,,,,,,,,,,,,,,,,,,,a,1.565999985,TOMA,FALSE,,,,,,,182,tomaquet,Catalan,Sounds/cat_tomaquet.mp3,2020-06-05_16h21.27.837,TranslationElicitation_eng-prolific,3.2.4,Win32,60,5c2fb1412c45d400014ae103,,1,0,81,73,1,80
,,,,,,,,,,,,,,,,,,,,,,,,,,,,,,,,,,,,,,,,,,t,1.598999977,TOMAT,FALSE,,,,,,,182,tomaquet,Catalan,Sounds/cat_tomaquet.mp3,2020-06-05_16h21.27.837,TranslationElicitation_eng-prolific,3.2.4,Win32,60,5c2fb1412c45d400014ae103,,1,0,81,73,1,80
,,,,,,,,,,,,,,,,,,,,,,,,,,,,,,,,,,,,,,,,,,o,1.700000048,TOMATO,FALSE,,,,,,,182,tomaquet,Catalan,Sounds/cat_tomaquet.mp3,2020-06-05_16h21.27.837,TranslationElicitation_eng-prolific,3.2.4,Win32,60,5c2fb1412c45d400014ae103,,1,0,81,73,1,80
,,,,,,,,,,,,,,,,,,,,,,,,,,,,,,,,,,,,,,,,,,return,1.832999945,TOMATO,FALSE,,,,,,,182,tomaquet,Catalan,Sounds/cat_tomaquet.mp3,2020-06-05_16h21.27.837,TranslationElicitation_eng-prolific,3.2.4,Win32,60,5c2fb1412c45d400014ae103,1.832999945,1,0,81,73,1,80
,,,,,,,,,,,,,,,,,,,,,,,,,,,,,,,,,,,,,,,,,,,,,,,,,,,,182,tomaquet,Catalan,Sounds/cat_tomaquet.mp3,2020-06-05_16h21.27.837,TranslationElicitation_eng-prolific,3.2.4,Win32,60,5c2fb1412c45d400014ae103,,1,0,81,73,1,80
,,,,,,,,,,,,,,,,,,,,,,,,,,,,,,,,,,,,,,,,,,p,5.730999947,P,FALSE,,,,,,,125,colom,Catalan,Sounds/cat_colom.mp3,2020-06-05_16h21.27.837,TranslationElicitation_eng-prolific,3.2.4,Win32,60,5c2fb1412c45d400014ae103,,1,0,81,20,1,80
,,,,,,,,,,,,,,,,,,,,,,,,,,,,,,,,,,,,,,,,,,o,5.947999954,PO,FALSE,,,,,,,125,colom,Catalan,Sounds/cat_colom.mp3,2020-06-05_16h21.27.837,TranslationElicitation_eng-prolific,3.2.4,Win32,60,5c2fb1412c45d400014ae103,,1,0,81,20,1,80
,,,,,,,,,,,,,,,,,,,,,,,,,,,,,,,,,,,,,,,,,,o,6.08100009,POO,FALSE,,,,,,,125,colom,Catalan,Sounds/cat_colom.mp3,2020-06-05_16h21.27.837,TranslationElicitation_eng-prolific,3.2.4,Win32,60,5c2fb1412c45d400014ae103,,1,0,81,20,1,80
,,,,,,,,,,,,,,,,,,,,,,,,,,,,,,,,,,,,,,,,,,l,6.263999939,POOL,FALSE,,,,,,,125,colom,Catalan,Sounds/cat_colom.mp3,2020-06-05_16h21.27.837,TranslationElicitation_eng-prolific,3.2.4,Win32,60,5c2fb1412c45d400014ae103,,1,0,81,20,1,80
,,,,,,,,,,,,,,,,,,,,,,,,,,,,,,,,,,,,,,,,,,return,6.447999954,POOL,FALSE,,,,,,,125,colom,Catalan,Sounds/cat_colom.mp3,2020-06-05_16h21.27.837,TranslationElicitation_eng-prolific,3.2.4,Win32,60,5c2fb1412c45d400014ae103,6.447999954,1,0,81,20,1,80
,,,,,,,,,,,,,,,,,,,,,,,,,,,,,,,,,,,,,,,,,,,,,,,,,,,,125,colom,Catalan,Sounds/cat_colom.mp3,2020-06-05_16h21.27.837,TranslationElicitation_eng-prolific,3.2.4,Win32,60,5c2fb1412c45d400014ae103,,1,0,81,20,1,80
,,,,,,,,,,,,,,,,,,,,,,,,,,,,,,,,,,,,,,,,,,n,1.815999985,N,FALSE,,,,,,,171,pollastre,Catalan,Sounds/cat_pollastre.mp3,2020-06-05_16h21.27.837,TranslationElicitation_eng-prolific,3.2.4,Win32,60,5c2fb1412c45d400014ae103,,1,0,81,63,1,80
,,,,,,,,,,,,,,,,,,,,,,,,,,,,,,,,,,,,,,,,,,a,1.883000135,NA,FALSE,,,,,,,171,pollastre,Catalan,Sounds/cat_pollastre.mp3,2020-06-05_16h21.27.837,TranslationElicitation_eng-prolific,3.2.4,Win32,60,5c2fb1412c45d400014ae103,,1,0,81,63,1,80
,,,,,,,,,,,,,,,,,,,,,,,,,,,,,,,,,,,,,,,,,,return,2.016000032,NA,FALSE,,,,,,,171,pollastre,Catalan,Sounds/cat_pollastre.mp3,2020-06-05_16h21.27.837,TranslationElicitation_eng-prolific,3.2.4,Win32,60,5c2fb1412c45d400014ae103,2.016000032,1,0,81,63,1,80
,,,,,,,,,,,,,,,,,,,,,,,,,,,,,,,,,,,,,,,,,,,,,,,,,,,,171,pollastre,Catalan,Sounds/cat_pollastre.mp3,2020-06-05_16h21.27.837,TranslationElicitation_eng-prolific,3.2.4,Win32,60,5c2fb1412c45d400014ae103,,1,0,81,63,1,80
,,,,,,,,,,,,,,,,,,,,,,,,,,,,,,,,,,,,,,,,,,m,1.832000017,M,FALSE,,,,,,,153,mico,Catalan,Sounds/cat_mico.mp3,2020-06-05_16h21.27.837,TranslationElicitation_eng-prolific,3.2.4,Win32,60,5c2fb1412c45d400014ae103,,1,0,81,46,1,80
,,,,,,,,,,,,,,,,,,,,,,,,,,,,,,,,,,,,,,,,,,o,1.982000113,MO,FALSE,,,,,,,153,mico,Catalan,Sounds/cat_mico.mp3,2020-06-05_16h21.27.837,TranslationElicitation_eng-prolific,3.2.4,Win32,60,5c2fb1412c45d400014ae103,,1,0,81,46,1,80
,,,,,,,,,,,,,,,,,,,,,,,,,,,,,,,,,,,,,,,,,,n,2.065999985,MON,FALSE,,,,,,,153,mico,Catalan,Sounds/cat_mico.mp3,2020-06-05_16h21.27.837,TranslationElicitation_eng-prolific,3.2.4,Win32,60,5c2fb1412c45d400014ae103,,1,0,81,46,1,80
,,,,,,,,,,,,,,,,,,,,,,,,,,,,,,,,,,,,,,,,,,k,2.232000113,MONK,FALSE,,,,,,,153,mico,Catalan,Sounds/cat_mico.mp3,2020-06-05_16h21.27.837,TranslationElicitation_eng-prolific,3.2.4,Win32,60,5c2fb1412c45d400014ae103,,1,0,81,46,1,80
,,,,,,,,,,,,,,,,,,,,,,,,,,,,,,,,,,,,,,,,,,y,2.348999977,MONKY,FALSE,,,,,,,153,mico,Catalan,Sounds/cat_mico.mp3,2020-06-05_16h21.27.837,TranslationElicitation_eng-prolific,3.2.4,Win32,60,5c2fb1412c45d400014ae103,,1,0,81,46,1,80
,,,,,,,,,,,,,,,,,,,,,,,,,,,,,,,,,,,,,,,,,,backspace,2.657000065,MONK,TRUE,,,,,,,153,mico,Catalan,Sounds/cat_mico.mp3,2020-06-05_16h21.27.837,TranslationElicitation_eng-prolific,3.2.4,Win32,60,5c2fb1412c45d400014ae103,,1,0,81,46,1,80
,,,,,,,,,,,,,,,,,,,,,,,,,,,,,,,,,,,,,,,,,,e,2.782000065,MONKE,TRUE,,,,,,,153,mico,Catalan,Sounds/cat_mico.mp3,2020-06-05_16h21.27.837,TranslationElicitation_eng-prolific,3.2.4,Win32,60,5c2fb1412c45d400014ae103,,1,0,81,46,1,80
,,,,,,,,,,,,,,,,,,,,,,,,,,,,,,,,,,,,,,,,,,y,2.799000025,MONKEY,TRUE,,,,,,,153,mico,Catalan,Sounds/cat_mico.mp3,2020-06-05_16h21.27.837,TranslationElicitation_eng-prolific,3.2.4,Win32,60,5c2fb1412c45d400014ae103,,1,0,81,46,1,80
,,,,,,,,,,,,,,,,,,,,,,,,,,,,,,,,,,,,,,,,,,return,2.898999929,MONKEY,TRUE,,,,,,,153,mico,Catalan,Sounds/cat_mico.mp3,2020-06-05_16h21.27.837,TranslationElicitation_eng-prolific,3.2.4,Win32,60,5c2fb1412c45d400014ae103,2.898999929,1,0,81,46,1,80
,,,,,,,,,,,,,,,,,,,,,,,,,,,,,,,,,,,,,,,,,,,,,,,,,,,,153,mico,Catalan,Sounds/cat_mico.mp3,2020-06-05_16h21.27.837,TranslationElicitation_eng-prolific,3.2.4,Win32,60,5c2fb1412c45d400014ae103,,1,0,81,46,1,80
,,,,,,,,,,,,,,,,,,,,,,,,,,,,,,,,,,,,,,,,,,h,2.549000025,H,FALSE,,,,,,,139,galleda,Catalan,Sounds/cat_galleda.mp3,2020-06-05_16h21.27.837,TranslationElicitation_eng-prolific,3.2.4,Win32,60,5c2fb1412c45d400014ae103,,1,0,81,33,1,80
,,,,,,,,,,,,,,,,,,,,,,,,,,,,,,,,,,,,,,,,,,a,2.749000072,HA,FALSE,,,,,,,139,galleda,Catalan,Sounds/cat_galleda.mp3,2020-06-05_16h21.27.837,TranslationElicitation_eng-prolific,3.2.4,Win32,60,5c2fb1412c45d400014ae103,,1,0,81,33,1,80
,,,,,,,,,,,,,,,,,,,,,,,,,,,,,,,,,,,,,,,,,,t,2.799000025,HAT,FALSE,,,,,,,139,galleda,Catalan,Sounds/cat_galleda.mp3,2020-06-05_16h21.27.837,TranslationElicitation_eng-prolific,3.2.4,Win32,60,5c2fb1412c45d400014ae103,,1,0,81,33,1,80
,,,,,,,,,,,,,,,,,,,,,,,,,,,,,,,,,,,,,,,,,,return,2.881999969,HAT,FALSE,,,,,,,139,galleda,Catalan,Sounds/cat_galleda.mp3,2020-06-05_16h21.27.837,TranslationElicitation_eng-prolific,3.2.4,Win32,60,5c2fb1412c45d400014ae103,2.881999969,1,0,81,33,1,80
,,,,,,,,,,,,,,,,,,,,,,,,,,,,,,,,,,,,,,,,,,,,,,,,,,,,139,galleda,Catalan,Sounds/cat_galleda.mp3,2020-06-05_16h21.27.837,TranslationElicitation_eng-prolific,3.2.4,Win32,60,5c2fb1412c45d400014ae103,,1,0,81,33,1,80
,,,,,,,,,,,,,,,,,,,,,,,,,,,,,,,,,,,,,,,,,,b,3.166000128,B,FALSE,,,,,,,113,boca,Catalan,Sounds/cat_boca.mp3,2020-06-05_16h21.27.837,TranslationElicitation_eng-prolific,3.2.4,Win32,60,5c2fb1412c45d400014ae103,,1,0,81,8,1,80
,,,,,,,,,,,,,,,,,,,,,,,,,,,,,,,,,,,,,,,,,,e,3.366000175,BE,FALSE,,,,,,,113,boca,Catalan,Sounds/cat_boca.mp3,2020-06-05_16h21.27.837,TranslationElicitation_eng-prolific,3.2.4,Win32,60,5c2fb1412c45d400014ae103,,1,0,81,8,1,80
,,,,,,,,,,,,,,,,,,,,,,,,,,,,,,,,,,,,,,,,,,e,3.549000025,BEE,FALSE,,,,,,,113,boca,Catalan,Sounds/cat_boca.mp3,2020-06-05_16h21.27.837,TranslationElicitation_eng-prolific,3.2.4,Win32,60,5c2fb1412c45d400014ae103,,1,0,81,8,1,80
,,,,,,,,,,,,,,,,,,,,,,,,,,,,,,,,,,,,,,,,,,f,3.582000017,BEEF,FALSE,,,,,,,113,boca,Catalan,Sounds/cat_boca.mp3,2020-06-05_16h21.27.837,TranslationElicitation_eng-prolific,3.2.4,Win32,60,5c2fb1412c45d400014ae103,,1,0,81,8,1,80
,,,,,,,,,,,,,,,,,,,,,,,,,,,,,,,,,,,,,,,,,,return,3.768000126,BEEF,FALSE,,,,,,,113,boca,Catalan,Sounds/cat_boca.mp3,2020-06-05_16h21.27.837,TranslationElicitation_eng-prolific,3.2.4,Win32,60,5c2fb1412c45d400014ae103,3.768000126,1,0,81,8,1,80
,,,,,,,,,,,,,,,,,,,,,,,,,,,,,,,,,,,,,,,,,,,,,,,,,,,,113,boca,Catalan,Sounds/cat_boca.mp3,2020-06-05_16h21.27.837,TranslationElicitation_eng-prolific,3.2.4,Win32,60,5c2fb1412c45d400014ae103,,1,0,81,8,1,80
,,,,,,,,,,,,,,,,,,,,,,,,,,,,,,,,,,,,,,,,,,b,1.764999866,B,FALSE,,,,,,,118,bou,Catalan,Sounds/cat_bou.mp3,2020-06-05_16h21.27.837,TranslationElicitation_eng-prolific,3.2.4,Win32,60,5c2fb1412c45d400014ae103,,1,0,81,13,1,80
,,,,,,,,,,,,,,,,,,,,,,,,,,,,,,,,,,,,,,,,,,e,2.030999899,BE,FALSE,,,,,,,118,bou,Catalan,Sounds/cat_bou.mp3,2020-06-05_16h21.27.837,TranslationElicitation_eng-prolific,3.2.4,Win32,60,5c2fb1412c45d400014ae103,,1,0,81,13,1,80
,,,,,,,,,,,,,,,,,,,,,,,,,,,,,,,,,,,,,,,,,,e,2.197999954,BEE,FALSE,,,,,,,118,bou,Catalan,Sounds/cat_bou.mp3,2020-06-05_16h21.27.837,TranslationElicitation_eng-prolific,3.2.4,Win32,60,5c2fb1412c45d400014ae103,,1,0,81,13,1,80
,,,,,,,,,,,,,,,,,,,,,,,,,,,,,,,,,,,,,,,,,,f,2.248999834,BEEF,FALSE,,,,,,,118,bou,Catalan,Sounds/cat_bou.mp3,2020-06-05_16h21.27.837,TranslationElicitation_eng-prolific,3.2.4,Win32,60,5c2fb1412c45d400014ae103,,1,0,81,13,1,80
,,,,,,,,,,,,,,,,,,,,,,,,,,,,,,,,,,,,,,,,,,return,2.413999796,BEEF,FALSE,,,,,,,118,bou,Catalan,Sounds/cat_bou.mp3,2020-06-05_16h21.27.837,TranslationElicitation_eng-prolific,3.2.4,Win32,60,5c2fb1412c45d400014ae103,2.413999796,1,0,81,13,1,80
,,,,,,,,,,,,,,,,,,,,,,,,,,,,,,,,,,,,,,,,,,,,,,,,,,,,118,bou,Catalan,Sounds/cat_bou.mp3,2020-06-05_16h21.27.837,TranslationElicitation_eng-prolific,3.2.4,Win32,60,5c2fb1412c45d400014ae103,,1,0,81,13,1,80
,,,,,,,,,,,,,,,,,,,,,,,,,,,,,,,,,,,,,,,,,,t,2.450000048,T,FALSE,,,,,,,183,tren,Catalan,Sounds/cat_tren.mp3,2020-06-05_16h21.27.837,TranslationElicitation_eng-prolific,3.2.4,Win32,60,5c2fb1412c45d400014ae103,,1,0,81,74,1,80
,,,,,,,,,,,,,,,,,,,,,,,,,,,,,,,,,,,,,,,,,,r,2.516000032,TR,FALSE,,,,,,,183,tren,Catalan,Sounds/cat_tren.mp3,2020-06-05_16h21.27.837,TranslationElicitation_eng-prolific,3.2.4,Win32,60,5c2fb1412c45d400014ae103,,1,0,81,74,1,80
,,,,,,,,,,,,,,,,,,,,,,,,,,,,,,,,,,,,,,,,,,e,2.700000048,TRE,FALSE,,,,,,,183,tren,Catalan,Sounds/cat_tren.mp3,2020-06-05_16h21.27.837,TranslationElicitation_eng-prolific,3.2.4,Win32,60,5c2fb1412c45d400014ae103,,1,0,81,74,1,80
,,,,,,,,,,,,,,,,,,,,,,,,,,,,,,,,,,,,,,,,,,n,2.800000191,TREN,FALSE,,,,,,,183,tren,Catalan,Sounds/cat_tren.mp3,2020-06-05_16h21.27.837,TranslationElicitation_eng-prolific,3.2.4,Win32,60,5c2fb1412c45d400014ae103,,1,0,81,74,1,80
,,,,,,,,,,,,,,,,,,,,,,,,,,,,,,,,,,,,,,,,,,d,2.900000095,TREND,FALSE,,,,,,,183,tren,Catalan,Sounds/cat_tren.mp3,2020-06-05_16h21.27.837,TranslationElicitation_eng-prolific,3.2.4,Win32,60,5c2fb1412c45d400014ae103,,1,0,81,74,1,80
,,,,,,,,,,,,,,,,,,,,,,,,,,,,,,,,,,,,,,,,,,s,2.937000036,TRENDS,FALSE,,,,,,,183,tren,Catalan,Sounds/cat_tren.mp3,2020-06-05_16h21.27.837,TranslationElicitation_eng-prolific,3.2.4,Win32,60,5c2fb1412c45d400014ae103,,1,0,81,74,1,80
,,,,,,,,,,,,,,,,,,,,,,,,,,,,,,,,,,,,,,,,,,return,3.083000183,TRENDS,FALSE,,,,,,,183,tren,Catalan,Sounds/cat_tren.mp3,2020-06-05_16h21.27.837,TranslationElicitation_eng-prolific,3.2.4,Win32,60,5c2fb1412c45d400014ae103,3.083000183,1,0,81,74,1,80
,,,,,,,,,,,,,,,,,,,,,,,,,,,,,,,,,,,,,,,,,,,,,,,,,,,,183,tren,Catalan,Sounds/cat_tren.mp3,2020-06-05_16h21.27.837,TranslationElicitation_eng-prolific,3.2.4,Win32,60,5c2fb1412c45d400014ae103,,1,0,81,74,1,80
,,,,,,,,,,,,,,,,,,,,,,,,,,,,,,,,,,,,,,,,,,s,1.349999905,S,FALSE,,,,,,,106,aixeta,Catalan,Sounds/cat_aixeta.mp3,2020-06-05_16h21.27.837,TranslationElicitation_eng-prolific,3.2.4,Win32,60,5c2fb1412c45d400014ae103,,1,0,81,2,1,80
,,,,,,,,,,,,,,,,,,,,,,,,,,,,,,,,,,,,,,,,,,h,1.516000032,SH,FALSE,,,,,,,106,aixeta,Catalan,Sounds/cat_aixeta.mp3,2020-06-05_16h21.27.837,TranslationElicitation_eng-prolific,3.2.4,Win32,60,5c2fb1412c45d400014ae103,,1,0,81,2,1,80
,,,,,,,,,,,,,,,,,,,,,,,,,,,,,,,,,,,,,,,,,,a,1.615999937,SHA,FALSE,,,,,,,106,aixeta,Catalan,Sounds/cat_aixeta.mp3,2020-06-05_16h21.27.837,TranslationElicitation_eng-prolific,3.2.4,Win32,60,5c2fb1412c45d400014ae103,,1,0,81,2,1,80
,,,,,,,,,,,,,,,,,,,,,,,,,,,,,,,,,,,,,,,,,,d,1.648999929,SHAD,FALSE,,,,,,,106,aixeta,Catalan,Sounds/cat_aixeta.mp3,2020-06-05_16h21.27.837,TranslationElicitation_eng-prolific,3.2.4,Win32,60,5c2fb1412c45d400014ae103,,1,0,81,2,1,80
,,,,,,,,,,,,,,,,,,,,,,,,,,,,,,,,,,,,,,,,,,o,1.782999992,SHADO,FALSE,,,,,,,106,aixeta,Catalan,Sounds/cat_aixeta.mp3,2020-06-05_16h21.27.837,TranslationElicitation_eng-prolific,3.2.4,Win32,60,5c2fb1412c45d400014ae103,,1,0,81,2,1,80
,,,,,,,,,,,,,,,,,,,,,,,,,,,,,,,,,,,,,,,,,,w,1.85800004,SHADOW,FALSE,,,,,,,106,aixeta,Catalan,Sounds/cat_aixeta.mp3,2020-06-05_16h21.27.837,TranslationElicitation_eng-prolific,3.2.4,Win32,60,5c2fb1412c45d400014ae103,,1,0,81,2,1,80
,,,,,,,,,,,,,,,,,,,,,,,,,,,,,,,,,,,,,,,,,,return,1.948999882,SHADOW,FALSE,,,,,,,106,aixeta,Catalan,Sounds/cat_aixeta.mp3,2020-06-05_16h21.27.837,TranslationElicitation_eng-prolific,3.2.4,Win32,60,5c2fb1412c45d400014ae103,1.948999882,1,0,81,2,1,80
,,,,,,,,,,,,,,,,,,,,,,,,,,,,,,,,,,,,,,,,,,,,,,,,,,,,106,aixeta,Catalan,Sounds/cat_aixeta.mp3,2020-06-05_16h21.27.837,TranslationElicitation_eng-prolific,3.2.4,Win32,60,5c2fb1412c45d400014ae103,,1,0,81,2,1,80
,,,,,,,,,,,,,,,,,,,,,,,,,,,,,,,,,,,,,,,,,,s,2.684000015,S,FALSE,,,,,,,177,sol,Catalan,Sounds/cat_sol.mp3,2020-06-05_16h21.27.837,TranslationElicitation_eng-prolific,3.2.4,Win32,60,5c2fb1412c45d400014ae103,,1,0,81,69,1,80
,,,,,,,,,,,,,,,,,,,,,,,,,,,,,,,,,,,,,,,,,,u,3.003999949,SU,FALSE,,,,,,,177,sol,Catalan,Sounds/cat_sol.mp3,2020-06-05_16h21.27.837,TranslationElicitation_eng-prolific,3.2.4,Win32,60,5c2fb1412c45d400014ae103,,1,0,81,69,1,80
,,,,,,,,,,,,,,,,,,,,,,,,,,,,,,,,,,,,,,,,,,n,3.098999977,SUN,FALSE,,,,,,,177,sol,Catalan,Sounds/cat_sol.mp3,2020-06-05_16h21.27.837,TranslationElicitation_eng-prolific,3.2.4,Win32,60,5c2fb1412c45d400014ae103,,1,0,81,69,1,80
,,,,,,,,,,,,,,,,,,,,,,,,,,,,,,,,,,,,,,,,,,return,3.19900012,SUN,FALSE,,,,,,,177,sol,Catalan,Sounds/cat_sol.mp3,2020-06-05_16h21.27.837,TranslationElicitation_eng-prolific,3.2.4,Win32,60,5c2fb1412c45d400014ae103,3.19900012,1,0,81,69,1,80
,,,,,,,,,,,,,,,,,,,,,,,,,,,,,,,,,,,,,,,,,,,,,,,,,,,,177,sol,Catalan,Sounds/cat_sol.mp3,2020-06-05_16h21.27.837,TranslationElicitation_eng-prolific,3.2.4,Win32,60,5c2fb1412c45d400014ae103,,1,0,81,69,1,80
,,,,,,,,,,,,,,,,,,,,,,,,,,,,,,,,,,,,,,,,,,n,1.732000113,N,FALSE,,,,,,,155,moneda,Catalan,Sounds/cat_moneda.mp3,2020-06-05_16h21.27.837,TranslationElicitation_eng-prolific,3.2.4,Win32,60,5c2fb1412c45d400014ae103,,1,0,81,48,1,80
,,,,,,,,,,,,,,,,,,,,,,,,,,,,,,,,,,,,,,,,,,a,1.798000097,NA,FALSE,,,,,,,155,moneda,Catalan,Sounds/cat_moneda.mp3,2020-06-05_16h21.27.837,TranslationElicitation_eng-prolific,3.2.4,Win32,60,5c2fb1412c45d400014ae103,,1,0,81,48,1,80
,,,,,,,,,,,,,,,,,,,,,,,,,,,,,,,,,,,,,,,,,,return,1.931999922,NA,FALSE,,,,,,,155,moneda,Catalan,Sounds/cat_moneda.mp3,2020-06-05_16h21.27.837,TranslationElicitation_eng-prolific,3.2.4,Win32,60,5c2fb1412c45d400014ae103,1.931999922,1,0,81,48,1,80
,,,,,,,,,,,,,,,,,,,,,,,,,,,,,,,,,,,,,,,,,,,,,,,,,,,,155,moneda,Catalan,Sounds/cat_moneda.mp3,2020-06-05_16h21.27.837,TranslationElicitation_eng-prolific,3.2.4,Win32,60,5c2fb1412c45d400014ae103,,1,0,81,48,1,80
,,,,,,,,,,,,,,,,,,,,,,,,,,,,,,,,,,,,,,,,,,s,1.616000175,S,FALSE,,,,,,,157,mussol,Catalan,Sounds/cat_mussol.mp3,2020-06-05_16h21.27.837,TranslationElicitation_eng-prolific,3.2.4,Win32,60,5c2fb1412c45d400014ae103,,1,0,81,50,1,80
,,,,,,,,,,,,,,,,,,,,,,,,,,,,,,,,,,,,,,,,,,backspace,2.266000032,,TRUE,,,,,,,157,mussol,Catalan,Sounds/cat_mussol.mp3,2020-06-05_16h21.27.837,TranslationElicitation_eng-prolific,3.2.4,Win32,60,5c2fb1412c45d400014ae103,,1,0,81,50,1,80
,,,,,,,,,,,,,,,,,,,,,,,,,,,,,,,,,,,,,,,,,,m,2.565999985,M,TRUE,,,,,,,157,mussol,Catalan,Sounds/cat_mussol.mp3,2020-06-05_16h21.27.837,TranslationElicitation_eng-prolific,3.2.4,Win32,60,5c2fb1412c45d400014ae103,,1,0,81,50,1,80
,,,,,,,,,,,,,,,,,,,,,,,,,,,,,,,,,,,,,,,,,,o,3.131999969,MO,TRUE,,,,,,,157,mussol,Catalan,Sounds/cat_mussol.mp3,2020-06-05_16h21.27.837,TranslationElicitation_eng-prolific,3.2.4,Win32,60,5c2fb1412c45d400014ae103,,1,0,81,50,1,80
,,,,,,,,,,,,,,,,,,,,,,,,,,,,,,,,,,,,,,,,,,o,3.282000065,MOO,TRUE,,,,,,,157,mussol,Catalan,Sounds/cat_mussol.mp3,2020-06-05_16h21.27.837,TranslationElicitation_eng-prolific,3.2.4,Win32,60,5c2fb1412c45d400014ae103,,1,0,81,50,1,80
,,,,,,,,,,,,,,,,,,,,,,,,,,,,,,,,,,,,,,,,,,s,3.36500001,MOOS,TRUE,,,,,,,157,mussol,Catalan,Sounds/cat_mussol.mp3,2020-06-05_16h21.27.837,TranslationElicitation_eng-prolific,3.2.4,Win32,60,5c2fb1412c45d400014ae103,,1,0,81,50,1,80
,,,,,,,,,,,,,,,,,,,,,,,,,,,,,,,,,,,,,,,,,,e,3.44900012,MOOSE,TRUE,,,,,,,157,mussol,Catalan,Sounds/cat_mussol.mp3,2020-06-05_16h21.27.837,TranslationElicitation_eng-prolific,3.2.4,Win32,60,5c2fb1412c45d400014ae103,,1,0,81,50,1,80
,,,,,,,,,,,,,,,,,,,,,,,,,,,,,,,,,,,,,,,,,,return,3.595000029,MOOSE,TRUE,,,,,,,157,mussol,Catalan,Sounds/cat_mussol.mp3,2020-06-05_16h21.27.837,TranslationElicitation_eng-prolific,3.2.4,Win32,60,5c2fb1412c45d400014ae103,3.595000029,1,0,81,50,1,80
,,,,,,,,,,,,,,,,,,,,,,,,,,,,,,,,,,,,,,,,,,,,,,,,,,,,157,mussol,Catalan,Sounds/cat_mussol.mp3,2020-06-05_16h21.27.837,TranslationElicitation_eng-prolific,3.2.4,Win32,60,5c2fb1412c45d400014ae103,,1,0,81,50,1,80
,,,,,,,,,,,,,,,,,,,,,,,,,,,,,,,,,,,,,,,,,,m,1.299000025,M,FALSE,,,,,,,154,mirall,Catalan,Sounds/cat_mirall.mp3,2020-06-05_16h21.27.837,TranslationElicitation_eng-prolific,3.2.4,Win32,60,5c2fb1412c45d400014ae103,,1,0,81,47,1,80
,,,,,,,,,,,,,,,,,,,,,,,,,,,,,,,,,,,,,,,,,,i,1.516000032,MI,FALSE,,,,,,,154,mirall,Catalan,Sounds/cat_mirall.mp3,2020-06-05_16h21.27.837,TranslationElicitation_eng-prolific,3.2.4,Win32,60,5c2fb1412c45d400014ae103,,1,0,81,47,1,80
,,,,,,,,,,,,,,,,,,,,,,,,,,,,,,,,,,,,,,,,,,r,1.582000017,MIR,FALSE,,,,,,,154,mirall,Catalan,Sounds/cat_mirall.mp3,2020-06-05_16h21.27.837,TranslationElicitation_eng-prolific,3.2.4,Win32,60,5c2fb1412c45d400014ae103,,1,0,81,47,1,80
,,,,,,,,,,,,,,,,,,,,,,,,,,,,,,,,,,,,,,,,,,a,1.749000072,MIRA,FALSE,,,,,,,154,mirall,Catalan,Sounds/cat_mirall.mp3,2020-06-05_16h21.27.837,TranslationElicitation_eng-prolific,3.2.4,Win32,60,5c2fb1412c45d400014ae103,,1,0,81,47,1,80
,,,,,,,,,,,,,,,,,,,,,,,,,,,,,,,,,,,,,,,,,,g,1.833000183,MIRAG,FALSE,,,,,,,154,mirall,Catalan,Sounds/cat_mirall.mp3,2020-06-05_16h21.27.837,TranslationElicitation_eng-prolific,3.2.4,Win32,60,5c2fb1412c45d400014ae103,,1,0,81,47,1,80
,,,,,,,,,,,,,,,,,,,,,,,,,,,,,,,,,,,,,,,,,,e,1.899000168,MIRAGE,FALSE,,,,,,,154,mirall,Catalan,Sounds/cat_mirall.mp3,2020-06-05_16h21.27.837,TranslationElicitation_eng-prolific,3.2.4,Win32,60,5c2fb1412c45d400014ae103,,1,0,81,47,1,80
,,,,,,,,,,,,,,,,,,,,,,,,,,,,,,,,,,,,,,,,,,return,2.18200016,MIRAGE,FALSE,,,,,,,154,mirall,Catalan,Sounds/cat_mirall.mp3,2020-06-05_16h21.27.837,TranslationElicitation_eng-prolific,3.2.4,Win32,60,5c2fb1412c45d400014ae103,2.18200016,1,0,81,47,1,80
,,,,,,,,,,,,,,,,,,,,,,,,,,,,,,,,,,,,,,,,,,,,,,,,,,,,154,mirall,Catalan,Sounds/cat_mirall.mp3,2020-06-05_16h21.27.837,TranslationElicitation_eng-prolific,3.2.4,Win32,60,5c2fb1412c45d400014ae103,,1,0,81,47,1,80
,,,,,,,,,,,,,,,,,,,,,,,,,,,,,,,,,,,,,,,,,,c,1.465999842,C,FALSE,,,,,,,120,cama,Catalan,Sounds/cat_cama.mp3,2020-06-05_16h21.27.837,TranslationElicitation_eng-prolific,3.2.4,Win32,60,5c2fb1412c45d400014ae103,,1,0,81,15,1,80
,,,,,,,,,,,,,,,,,,,,,,,,,,,,,,,,,,,,,,,,,,a,1.532999992,CA,FALSE,,,,,,,120,cama,Catalan,Sounds/cat_cama.mp3,2020-06-05_16h21.27.837,TranslationElicitation_eng-prolific,3.2.4,Win32,60,5c2fb1412c45d400014ae103,,1,0,81,15,1,80
,,,,,,,,,,,,,,,,,,,,,,,,,,,,,,,,,,,,,,,,,,m,1.632999897,CAM,FALSE,,,,,,,120,cama,Catalan,Sounds/cat_cama.mp3,2020-06-05_16h21.27.837,TranslationElicitation_eng-prolific,3.2.4,Win32,60,5c2fb1412c45d400014ae103,,1,0,81,15,1,80
,,,,,,,,,,,,,,,,,,,,,,,,,,,,,,,,,,,,,,,,,,e,1.73300004,CAME,FALSE,,,,,,,120,cama,Catalan,Sounds/cat_cama.mp3,2020-06-05_16h21.27.837,TranslationElicitation_eng-prolific,3.2.4,Win32,60,5c2fb1412c45d400014ae103,,1,0,81,15,1,80
,,,,,,,,,,,,,,,,,,,,,,,,,,,,,,,,,,,,,,,,,,l,1.825000048,CAMEL,FALSE,,,,,,,120,cama,Catalan,Sounds/cat_cama.mp3,2020-06-05_16h21.27.837,TranslationElicitation_eng-prolific,3.2.4,Win32,60,5c2fb1412c45d400014ae103,,1,0,81,15,1,80
,,,,,,,,,,,,,,,,,,,,,,,,,,,,,,,,,,,,,,,,,,return,1.965999842,CAMEL,FALSE,,,,,,,120,cama,Catalan,Sounds/cat_cama.mp3,2020-06-05_16h21.27.837,TranslationElicitation_eng-prolific,3.2.4,Win32,60,5c2fb1412c45d400014ae103,1.965999842,1,0,81,15,1,80
,,,,,,,,,,,,,,,,,,,,,,,,,,,,,,,,,,,,,,,,,,,,,,,,,,,,120,cama,Catalan,Sounds/cat_cama.mp3,2020-06-05_16h21.27.837,TranslationElicitation_eng-prolific,3.2.4,Win32,60,5c2fb1412c45d400014ae103,,1,0,81,15,1,80
,,,,,,,,,,,,,,,,,,,,,,,,,,,,,,,,,,,,,,,,,,s,4.532000065,S,FALSE,,,,,,,176,samarreta,Catalan,Sounds/cat_samarreta.mp3,2020-06-05_16h21.27.837,TranslationElicitation_eng-prolific,3.2.4,Win32,60,5c2fb1412c45d400014ae103,,1,0,81,68,1,80
,,,,,,,,,,,,,,,,,,,,,,,,,,,,,,,,,,,,,,,,,,a,4.749000072,SA,FALSE,,,,,,,176,samarreta,Catalan,Sounds/cat_samarreta.mp3,2020-06-05_16h21.27.837,TranslationElicitation_eng-prolific,3.2.4,Win32,60,5c2fb1412c45d400014ae103,,1,0,81,68,1,80
,,,,,,,,,,,,,,,,,,,,,,,,,,,,,,,,,,,,,,,,,,m,4.866000175,SAM,FALSE,,,,,,,176,samarreta,Catalan,Sounds/cat_samarreta.mp3,2020-06-05_16h21.27.837,TranslationElicitation_eng-prolific,3.2.4,Win32,60,5c2fb1412c45d400014ae103,,1,0,81,68,1,80
,,,,,,,,,,,,,,,,,,,,,,,,,,,,,,,,,,,,,,,,,,r,4.999000072,SAMR,FALSE,,,,,,,176,samarreta,Catalan,Sounds/cat_samarreta.mp3,2020-06-05_16h21.27.837,TranslationElicitation_eng-prolific,3.2.4,Win32,60,5c2fb1412c45d400014ae103,,1,0,81,68,1,80
,,,,,,,,,,,,,,,,,,,,,,,,,,,,,,,,,,,,,,,,,,e,5.082000017,SAMRE,FALSE,,,,,,,176,samarreta,Catalan,Sounds/cat_samarreta.mp3,2020-06-05_16h21.27.837,TranslationElicitation_eng-prolific,3.2.4,Win32,60,5c2fb1412c45d400014ae103,,1,0,81,68,1,80
,,,,,,,,,,,,,,,,,,,,,,,,,,,,,,,,,,,,,,,,,,t,5.282000065,SAMRET,FALSE,,,,,,,176,samarreta,Catalan,Sounds/cat_samarreta.mp3,2020-06-05_16h21.27.837,TranslationElicitation_eng-prolific,3.2.4,Win32,60,5c2fb1412c45d400014ae103,,1,0,81,68,1,80
,,,,,,,,,,,,,,,,,,,,,,,,,,,,,,,,,,,,,,,,,,t,5.399000168,SAMRETT,FALSE,,,,,,,176,samarreta,Catalan,Sounds/cat_samarreta.mp3,2020-06-05_16h21.27.837,TranslationElicitation_eng-prolific,3.2.4,Win32,60,5c2fb1412c45d400014ae103,,1,0,81,68,1,80
,,,,,,,,,,,,,,,,,,,,,,,,,,,,,,,,,,,,,,,,,,a,5.599000216,SAMRETTA,FALSE,,,,,,,176,samarreta,Catalan,Sounds/cat_samarreta.mp3,2020-06-05_16h21.27.837,TranslationElicitation_eng-prolific,3.2.4,Win32,60,5c2fb1412c45d400014ae103,,1,0,81,68,1,80
,,,,,,,,,,,,,,,,,,,,,,,,,,,,,,,,,,,,,,,,,,backspace,5.815000057,SAMRETT,TRUE,,,,,,,176,samarreta,Catalan,Sounds/cat_samarreta.mp3,2020-06-05_16h21.27.837,TranslationElicitation_eng-prolific,3.2.4,Win32,60,5c2fb1412c45d400014ae103,,1,0,81,68,1,80
,,,,,,,,,,,,,,,,,,,,,,,,,,,,,,,,,,,,,,,,,,backspace,6.315000057,SAMRET,TRUE,,,,,,,176,samarreta,Catalan,Sounds/cat_samarreta.mp3,2020-06-05_16h21.27.837,TranslationElicitation_eng-prolific,3.2.4,Win32,60,5c2fb1412c45d400014ae103,,1,0,81,68,1,80
,,,,,,,,,,,,,,,,,,,,,,,,,,,,,,,,,,,,,,,,,,backspace,6.332000017,SAMRE,TRUE,,,,,,,176,samarreta,Catalan,Sounds/cat_samarreta.mp3,2020-06-05_16h21.27.837,TranslationElicitation_eng-prolific,3.2.4,Win32,60,5c2fb1412c45d400014ae103,,1,0,81,68,1,80
,,,,,,,,,,,,,,,,,,,,,,,,,,,,,,,,,,,,,,,,,,backspace,6.36500001,SAMR,TRUE,,,,,,,176,samarreta,Catalan,Sounds/cat_samarreta.mp3,2020-06-05_16h21.27.837,TranslationElicitation_eng-prolific,3.2.4,Win32,60,5c2fb1412c45d400014ae103,,1,0,81,68,1,80
,,,,,,,,,,,,,,,,,,,,,,,,,,,,,,,,,,,,,,,,,,backspace,6.402000189,SAM,TRUE,,,,,,,176,samarreta,Catalan,Sounds/cat_samarreta.mp3,2020-06-05_16h21.27.837,TranslationElicitation_eng-prolific,3.2.4,Win32,60,5c2fb1412c45d400014ae103,,1,0,81,68,1,80
,,,,,,,,,,,,,,,,,,,,,,,,,,,,,,,,,,,,,,,,,,backspace,6.43200016,SA,TRUE,,,,,,,176,samarreta,Catalan,Sounds/cat_samarreta.mp3,2020-06-05_16h21.27.837,TranslationElicitation_eng-prolific,3.2.4,Win32,60,5c2fb1412c45d400014ae103,,1,0,81,68,1,80
,,,,,,,,,,,,,,,,,,,,,,,,,,,,,,,,,,,,,,,,,,backspace,6.448000193,S,TRUE,,,,,,,176,samarreta,Catalan,Sounds/cat_samarreta.mp3,2020-06-05_16h21.27.837,TranslationElicitation_eng-prolific,3.2.4,Win32,60,5c2fb1412c45d400014ae103,,1,0,81,68,1,80
,,,,,,,,,,,,,,,,,,,,,,,,,,,,,,,,,,,,,,,,,,backspace,6.482000113,,TRUE,,,,,,,176,samarreta,Catalan,Sounds/cat_samarreta.mp3,2020-06-05_16h21.27.837,TranslationElicitation_eng-prolific,3.2.4,Win32,60,5c2fb1412c45d400014ae103,,1,0,81,68,1,80
,,,,,,,,,,,,,,,,,,,,,,,,,,,,,,,,,,,,,,,,,,backspace,6.515000105,,TRUE,,,,,,,176,samarreta,Catalan,Sounds/cat_samarreta.mp3,2020-06-05_16h21.27.837,TranslationElicitation_eng-prolific,3.2.4,Win32,60,5c2fb1412c45d400014ae103,,1,0,81,68,1,80
,,,,,,,,,,,,,,,,,,,,,,,,,,,,,,,,,,,,,,,,,,c,7.61500001,C,TRUE,,,,,,,176,samarreta,Catalan,Sounds/cat_samarreta.mp3,2020-06-05_16h21.27.837,TranslationElicitation_eng-prolific,3.2.4,Win32,60,5c2fb1412c45d400014ae103,,1,0,81,68,1,80
,,,,,,,,,,,,,,,,,,,,,,,,,,,,,,,,,,,,,,,,,,o,7.732000113,CO,TRUE,,,,,,,176,samarreta,Catalan,Sounds/cat_samarreta.mp3,2020-06-05_16h21.27.837,TranslationElicitation_eng-prolific,3.2.4,Win32,60,5c2fb1412c45d400014ae103,,1,0,81,68,1,80
,,,,,,,,,,,,,,,,,,,,,,,,,,,,,,,,,,,,,,,,,,f,7.832000017,COF,TRUE,,,,,,,176,samarreta,Catalan,Sounds/cat_samarreta.mp3,2020-06-05_16h21.27.837,TranslationElicitation_eng-prolific,3.2.4,Win32,60,5c2fb1412c45d400014ae103,,1,0,81,68,1,80
,,,,,,,,,,,,,,,,,,,,,,,,,,,,,,,,,,,,,,,,,,f,7.998000145,COFF,TRUE,,,,,,,176,samarreta,Catalan,Sounds/cat_samarreta.mp3,2020-06-05_16h21.27.837,TranslationElicitation_eng-prolific,3.2.4,Win32,60,5c2fb1412c45d400014ae103,,1,0,81,68,1,80
,,,,,,,,,,,,,,,,,,,,,,,,,,,,,,,,,,,,,,,,,,e,8.148000002,COFFE,TRUE,,,,,,,176,samarreta,Catalan,Sounds/cat_samarreta.mp3,2020-06-05_16h21.27.837,TranslationElicitation_eng-prolific,3.2.4,Win32,60,5c2fb1412c45d400014ae103,,1,0,81,68,1,80
,,,,,,,,,,,,,,,,,,,,,,,,,,,,,,,,,,,,,,,,,,e,8.315000057,COFFEE,TRUE,,,,,,,176,samarreta,Catalan,Sounds/cat_samarreta.mp3,2020-06-05_16h21.27.837,TranslationElicitation_eng-prolific,3.2.4,Win32,60,5c2fb1412c45d400014ae103,,1,0,81,68,1,80
,,,,,,,,,,,,,,,,,,,,,,,,,,,,,,,,,,,,,,,,,,return,8.448000193,COFFEE,TRUE,,,,,,,176,samarreta,Catalan,Sounds/cat_samarreta.mp3,2020-06-05_16h21.27.837,TranslationElicitation_eng-prolific,3.2.4,Win32,60,5c2fb1412c45d400014ae103,8.448000193,1,0,81,68,1,80
,,,,,,,,,,,,,,,,,,,,,,,,,,,,,,,,,,,,,,,,,,,,,,,,,,,,176,samarreta,Catalan,Sounds/cat_samarreta.mp3,2020-06-05_16h21.27.837,TranslationElicitation_eng-prolific,3.2.4,Win32,60,5c2fb1412c45d400014ae103,,1,0,81,68,1,80
,,,,,,,,,,,,,,,,,,,,,,,,,,,,,,,,,,,,,,,,,,o,1.865999937,O,FALSE,,,,,,,135,formiga,Catalan,Sounds/cat_formiga.mp3,2020-06-05_16h21.27.837,TranslationElicitation_eng-prolific,3.2.4,Win32,60,5c2fb1412c45d400014ae103,,1,0,81,29,1,80
,,,,,,,,,,,,,,,,,,,,,,,,,,,,,,,,,,,,,,,,,,backspace,2.148999929,,TRUE,,,,,,,135,formiga,Catalan,Sounds/cat_formiga.mp3,2020-06-05_16h21.27.837,TranslationElicitation_eng-prolific,3.2.4,Win32,60,5c2fb1412c45d400014ae103,,1,0,81,29,1,80
,,,,,,,,,,,,,,,,,,,,,,,,,,,,,,,,,,,,,,,,,,f,2.248999834,F,TRUE,,,,,,,135,formiga,Catalan,Sounds/cat_formiga.mp3,2020-06-05_16h21.27.837,TranslationElicitation_eng-prolific,3.2.4,Win32,60,5c2fb1412c45d400014ae103,,1,0,81,29,1,80
,,,,,,,,,,,,,,,,,,,,,,,,,,,,,,,,,,,,,,,,,,o,2.333999872,FO,TRUE,,,,,,,135,formiga,Catalan,Sounds/cat_formiga.mp3,2020-06-05_16h21.27.837,TranslationElicitation_eng-prolific,3.2.4,Win32,60,5c2fb1412c45d400014ae103,,1,0,81,29,1,80
,,,,,,,,,,,,,,,,,,,,,,,,,,,,,,,,,,,,,,,,,,r,2.415999889,FOR,TRUE,,,,,,,135,formiga,Catalan,Sounds/cat_formiga.mp3,2020-06-05_16h21.27.837,TranslationElicitation_eng-prolific,3.2.4,Win32,60,5c2fb1412c45d400014ae103,,1,0,81,29,1,80
,,,,,,,,,,,,,,,,,,,,,,,,,,,,,,,,,,,,,,,,,,space,2.531999826,FOR ,TRUE,,,,,,,135,formiga,Catalan,Sounds/cat_formiga.mp3,2020-06-05_16h21.27.837,TranslationElicitation_eng-prolific,3.2.4,Win32,60,5c2fb1412c45d400014ae103,,1,0,81,29,1,80
,,,,,,,,,,,,,,,,,,,,,,,,,,,,,,,,,,,,,,,,,,m,2.698999882,FOR M,TRUE,,,,,,,135,formiga,Catalan,Sounds/cat_formiga.mp3,2020-06-05_16h21.27.837,TranslationElicitation_eng-prolific,3.2.4,Win32,60,5c2fb1412c45d400014ae103,,1,0,81,29,1,80
,,,,,,,,,,,,,,,,,,,,,,,,,,,,,,,,,,,,,,,,,,e,2.781999826,FOR ME,TRUE,,,,,,,135,formiga,Catalan,Sounds/cat_formiga.mp3,2020-06-05_16h21.27.837,TranslationElicitation_eng-prolific,3.2.4,Win32,60,5c2fb1412c45d400014ae103,,1,0,81,29,1,80
,,,,,,,,,,,,,,,,,,,,,,,,,,,,,,,,,,,,,,,,,,return,2.915999889,FOR ME,TRUE,,,,,,,135,formiga,Catalan,Sounds/cat_formiga.mp3,2020-06-05_16h21.27.837,TranslationElicitation_eng-prolific,3.2.4,Win32,60,5c2fb1412c45d400014ae103,2.915999889,1,0,81,29,1,80
,,,,,,,,,,,,,,,,,,,,,,,,,,,,,,,,,,,,,,,,,,,,,,,,,,,,135,formiga,Catalan,Sounds/cat_formiga.mp3,2020-06-05_16h21.27.837,TranslationElicitation_eng-prolific,3.2.4,Win32,60,5c2fb1412c45d400014ae103,,1,0,81,29,1,80
,,,,,,,,,,,,,,,,,,,,,,,,,,,,,,,,,,,,,,,,,,s,1.215000153,S,FALSE,,,,,,,131,esponja,Catalan,Sounds/cat_esponja.mp3,2020-06-05_16h21.27.837,TranslationElicitation_eng-prolific,3.2.4,Win32,60,5c2fb1412c45d400014ae103,,1,0,81,25,1,80
,,,,,,,,,,,,,,,,,,,,,,,,,,,,,,,,,,,,,,,,,,o,1.86500001,SO,FALSE,,,,,,,131,esponja,Catalan,Sounds/cat_esponja.mp3,2020-06-05_16h21.27.837,TranslationElicitation_eng-prolific,3.2.4,Win32,60,5c2fb1412c45d400014ae103,,1,0,81,25,1,80
,,,,,,,,,,,,,,,,,,,,,,,,,,,,,,,,,,,,,,,,,,n,1.930999994,SON,FALSE,,,,,,,131,esponja,Catalan,Sounds/cat_esponja.mp3,2020-06-05_16h21.27.837,TranslationElicitation_eng-prolific,3.2.4,Win32,60,5c2fb1412c45d400014ae103,,1,0,81,25,1,80
,,,,,,,,,,,,,,,,,,,,,,,,,,,,,,,,,,,,,,,,,,backspace,2.148000002,SO,TRUE,,,,,,,131,esponja,Catalan,Sounds/cat_esponja.mp3,2020-06-05_16h21.27.837,TranslationElicitation_eng-prolific,3.2.4,Win32,60,5c2fb1412c45d400014ae103,,1,0,81,25,1,80
,,,,,,,,,,,,,,,,,,,,,,,,,,,,,,,,,,,,,,,,,,backspace,2.298000097,S,TRUE,,,,,,,131,esponja,Catalan,Sounds/cat_esponja.mp3,2020-06-05_16h21.27.837,TranslationElicitation_eng-prolific,3.2.4,Win32,60,5c2fb1412c45d400014ae103,,1,0,81,25,1,80
,,,,,,,,,,,,,,,,,,,,,,,,,,,,,,,,,,,,,,,,,,p,2.4150002,SP,TRUE,,,,,,,131,esponja,Catalan,Sounds/cat_esponja.mp3,2020-06-05_16h21.27.837,TranslationElicitation_eng-prolific,3.2.4,Win32,60,5c2fb1412c45d400014ae103,,1,0,81,25,1,80
,,,,,,,,,,,,,,,,,,,,,,,,,,,,,,,,,,,,,,,,,,o,2.631000042,SPO,TRUE,,,,,,,131,esponja,Catalan,Sounds/cat_esponja.mp3,2020-06-05_16h21.27.837,TranslationElicitation_eng-prolific,3.2.4,Win32,60,5c2fb1412c45d400014ae103,,1,0,81,25,1,80
,,,,,,,,,,,,,,,,,,,,,,,,,,,,,,,,,,,,,,,,,,n,2.723999977,SPON,TRUE,,,,,,,131,esponja,Catalan,Sounds/cat_esponja.mp3,2020-06-05_16h21.27.837,TranslationElicitation_eng-prolific,3.2.4,Win32,60,5c2fb1412c45d400014ae103,,1,0,81,25,1,80
,,,,,,,,,,,,,,,,,,,,,,,,,,,,,,,,,,,,,,,,,,g,2.963999987,SPONG,TRUE,,,,,,,131,esponja,Catalan,Sounds/cat_esponja.mp3,2020-06-05_16h21.27.837,TranslationElicitation_eng-prolific,3.2.4,Win32,60,5c2fb1412c45d400014ae103,,1,0,81,25,1,80
,,,,,,,,,,,,,,,,,,,,,,,,,,,,,,,,,,,,,,,,,,e,3.048000097,SPONGE,TRUE,,,,,,,131,esponja,Catalan,Sounds/cat_esponja.mp3,2020-06-05_16h21.27.837,TranslationElicitation_eng-prolific,3.2.4,Win32,60,5c2fb1412c45d400014ae103,,1,0,81,25,1,80
,,,,,,,,,,,,,,,,,,,,,,,,,,,,,,,,,,,,,,,,,,return,3.198000193,SPONGE,TRUE,,,,,,,131,esponja,Catalan,Sounds/cat_esponja.mp3,2020-06-05_16h21.27.837,TranslationElicitation_eng-prolific,3.2.4,Win32,60,5c2fb1412c45d400014ae103,3.198000193,1,0,81,25,1,80
,,,,,,,,,,,,,,,,,,,,,,,,,,,,,,,,,,,,,,,,,,,,,,,,,,,,131,esponja,Catalan,Sounds/cat_esponja.mp3,2020-06-05_16h21.27.837,TranslationElicitation_eng-prolific,3.2.4,Win32,60,5c2fb1412c45d400014ae103,,1,0,81,25,1,80
,,,,,,,,,,,,,,,,,,,,,,,,,,,,,,,,,,,,,,,,,,o,1.431000233,O,FALSE,,,,,,,156,moto,Catalan,Sounds/cat_moto.mp3,2020-06-05_16h21.27.837,TranslationElicitation_eng-prolific,3.2.4,Win32,60,5c2fb1412c45d400014ae103,,1,0,81,49,1,80
,,,,,,,,,,,,,,,,,,,,,,,,,,,,,,,,,,,,,,,,,,backspace,1.813000202,,TRUE,,,,,,,156,moto,Catalan,Sounds/cat_moto.mp3,2020-06-05_16h21.27.837,TranslationElicitation_eng-prolific,3.2.4,Win32,60,5c2fb1412c45d400014ae103,,1,0,81,49,1,80
,,,,,,,,,,,,,,,,,,,,,,,,,,,,,,,,,,,,,,,,,,m,2.013000011,M,TRUE,,,,,,,156,moto,Catalan,Sounds/cat_moto.mp3,2020-06-05_16h21.27.837,TranslationElicitation_eng-prolific,3.2.4,Win32,60,5c2fb1412c45d400014ae103,,1,0,81,49,1,80
,,,,,,,,,,,,,,,,,,,,,,,,,,,,,,,,,,,,,,,,,,o,2.196000099,MO,TRUE,,,,,,,156,moto,Catalan,Sounds/cat_moto.mp3,2020-06-05_16h21.27.837,TranslationElicitation_eng-prolific,3.2.4,Win32,60,5c2fb1412c45d400014ae103,,1,0,81,49,1,80
,,,,,,,,,,,,,,,,,,,,,,,,,,,,,,,,,,,,,,,,,,t,2.296000004,MOT,TRUE,,,,,,,156,moto,Catalan,Sounds/cat_moto.mp3,2020-06-05_16h21.27.837,TranslationElicitation_eng-prolific,3.2.4,Win32,60,5c2fb1412c45d400014ae103,,1,0,81,49,1,80
,,,,,,,,,,,,,,,,,,,,,,,,,,,,,,,,,,,,,,,,,,o,2.407000065,MOTO,TRUE,,,,,,,156,moto,Catalan,Sounds/cat_moto.mp3,2020-06-05_16h21.27.837,TranslationElicitation_eng-prolific,3.2.4,Win32,60,5c2fb1412c45d400014ae103,,1,0,81,49,1,80
,,,,,,,,,,,,,,,,,,,,,,,,,,,,,,,,,,,,,,,,,,r,2.512000084,MOTOR,TRUE,,,,,,,156,moto,Catalan,Sounds/cat_moto.mp3,2020-06-05_16h21.27.837,TranslationElicitation_eng-prolific,3.2.4,Win32,60,5c2fb1412c45d400014ae103,,1,0,81,49,1,80
,,,,,,,,,,,,,,,,,,,,,,,,,,,,,,,,,,,,,,,,,,return,2.646000147,MOTOR,TRUE,,,,,,,156,moto,Catalan,Sounds/cat_moto.mp3,2020-06-05_16h21.27.837,TranslationElicitation_eng-prolific,3.2.4,Win32,60,5c2fb1412c45d400014ae103,2.646000147,1,0,81,49,1,80
,,,,,,,,,,,,,,,,,,,,,,,,,,,,,,,,,,,,,,,,,,,,,,,,,,,,156,moto,Catalan,Sounds/cat_moto.mp3,2020-06-05_16h21.27.837,TranslationElicitation_eng-prolific,3.2.4,Win32,60,5c2fb1412c45d400014ae103,,1,0,81,49,1,80
,,,,,,,,,,,,,,,,,,,,,,,,,,,,,,,,,,,,,,,,,,n,1.71600008,N,FALSE,,,,,,,111,bibero,Catalan,Sounds/cat_bibero.mp3,2020-06-05_16h21.27.837,TranslationElicitation_eng-prolific,3.2.4,Win32,60,5c2fb1412c45d400014ae103,,1,0,81,6,1,80
,,,,,,,,,,,,,,,,,,,,,,,,,,,,,,,,,,,,,,,,,,a,1.799000025,NA,FALSE,,,,,,,111,bibero,Catalan,Sounds/cat_bibero.mp3,2020-06-05_16h21.27.837,TranslationElicitation_eng-prolific,3.2.4,Win32,60,5c2fb1412c45d400014ae103,,1,0,81,6,1,80
,,,,,,,,,,,,,,,,,,,,,,,,,,,,,,,,,,,,,,,,,,return,1.931999922,NA,FALSE,,,,,,,111,bibero,Catalan,Sounds/cat_bibero.mp3,2020-06-05_16h21.27.837,TranslationElicitation_eng-prolific,3.2.4,Win32,60,5c2fb1412c45d400014ae103,1.931999922,1,0,81,6,1,80
,,,,,,,,,,,,,,,,,,,,,,,,,,,,,,,,,,,,,,,,,,,,,,,,,,,,111,bibero,Catalan,Sounds/cat_bibero.mp3,2020-06-05_16h21.27.837,TranslationElicitation_eng-prolific,3.2.4,Win32,60,5c2fb1412c45d400014ae103,,1,0,81,6,1,80
,,,,,,,,,,,,,,,,,,,,,,,,,,,,,,,,,,,,,,,,,,l,2.015000105,L,FALSE,,,,,,,151,lluna,Catalan,Sounds/cat_lluna.mp3,2020-06-05_16h21.27.837,TranslationElicitation_eng-prolific,3.2.4,Win32,60,5c2fb1412c45d400014ae103,,1,0,81,44,1,80
,,,,,,,,,,,,,,,,,,,,,,,,,,,,,,,,,,,,,,,,,,u,2.43200016,LU,FALSE,,,,,,,151,lluna,Catalan,Sounds/cat_lluna.mp3,2020-06-05_16h21.27.837,TranslationElicitation_eng-prolific,3.2.4,Win32,60,5c2fb1412c45d400014ae103,,1,0,81,44,1,80
,,,,,,,,,,,,,,,,,,,,,,,,,,,,,,,,,,,,,,,,,,n,2.515000105,LUN,FALSE,,,,,,,151,lluna,Catalan,Sounds/cat_lluna.mp3,2020-06-05_16h21.27.837,TranslationElicitation_eng-prolific,3.2.4,Win32,60,5c2fb1412c45d400014ae103,,1,0,81,44,1,80
,,,,,,,,,,,,,,,,,,,,,,,,,,,,,,,,,,,,,,,,,,a,2.6650002,LUNA,FALSE,,,,,,,151,lluna,Catalan,Sounds/cat_lluna.mp3,2020-06-05_16h21.27.837,TranslationElicitation_eng-prolific,3.2.4,Win32,60,5c2fb1412c45d400014ae103,,1,0,81,44,1,80
,,,,,,,,,,,,,,,,,,,,,,,,,,,,,,,,,,,,,,,,,,r,2.71600008,LUNAR,FALSE,,,,,,,151,lluna,Catalan,Sounds/cat_lluna.mp3,2020-06-05_16h21.27.837,TranslationElicitation_eng-prolific,3.2.4,Win32,60,5c2fb1412c45d400014ae103,,1,0,81,44,1,80
,,,,,,,,,,,,,,,,,,,,,,,,,,,,,,,,,,,,,,,,,,return,2.899000168,LUNAR,FALSE,,,,,,,151,lluna,Catalan,Sounds/cat_lluna.mp3,2020-06-05_16h21.27.837,TranslationElicitation_eng-prolific,3.2.4,Win32,60,5c2fb1412c45d400014ae103,2.899000168,1,0,81,44,1,80
,,,,,,,,,,,,,,,,,,,,,,,,,,,,,,,,,,,,,,,,,,,,,,,,,,,,151,lluna,Catalan,Sounds/cat_lluna.mp3,2020-06-05_16h21.27.837,TranslationElicitation_eng-prolific,3.2.4,Win32,60,5c2fb1412c45d400014ae103,,1,0,81,44,1,80
,,,,,,,,,,,,,,,,,,,,,,,,,,,,,,,,,,,,,,,,,,g,1.597000122,G,FALSE,,,,,,,143,globus,Catalan,Sounds/cat_globus.mp3,2020-06-05_16h21.27.837,TranslationElicitation_eng-prolific,3.2.4,Win32,60,5c2fb1412c45d400014ae103,,1,0,81,37,1,80
,,,,,,,,,,,,,,,,,,,,,,,,,,,,,,,,,,,,,,,,,,l,1.697000027,GL,FALSE,,,,,,,143,globus,Catalan,Sounds/cat_globus.mp3,2020-06-05_16h21.27.837,TranslationElicitation_eng-prolific,3.2.4,Win32,60,5c2fb1412c45d400014ae103,,1,0,81,37,1,80
,,,,,,,,,,,,,,,,,,,,,,,,,,,,,,,,,,,,,,,,,,o,1.897000074,GLO,FALSE,,,,,,,143,globus,Catalan,Sounds/cat_globus.mp3,2020-06-05_16h21.27.837,TranslationElicitation_eng-prolific,3.2.4,Win32,60,5c2fb1412c45d400014ae103,,1,0,81,37,1,80
,,,,,,,,,,,,,,,,,,,,,,,,,,,,,,,,,,,,,,,,,,v,2.013000011,GLOV,FALSE,,,,,,,143,globus,Catalan,Sounds/cat_globus.mp3,2020-06-05_16h21.27.837,TranslationElicitation_eng-prolific,3.2.4,Win32,60,5c2fb1412c45d400014ae103,,1,0,81,37,1,80
,,,,,,,,,,,,,,,,,,,,,,,,,,,,,,,,,,,,,,,,,,e,2.080000162,GLOVE,FALSE,,,,,,,143,globus,Catalan,Sounds/cat_globus.mp3,2020-06-05_16h21.27.837,TranslationElicitation_eng-prolific,3.2.4,Win32,60,5c2fb1412c45d400014ae103,,1,0,81,37,1,80
,,,,,,,,,,,,,,,,,,,,,,,,,,,,,,,,,,,,,,,,,,return,2.54700017,GLOVE,FALSE,,,,,,,143,globus,Catalan,Sounds/cat_globus.mp3,2020-06-05_16h21.27.837,TranslationElicitation_eng-prolific,3.2.4,Win32,60,5c2fb1412c45d400014ae103,2.54700017,1,0,81,37,1,80
,,,,,,,,,,,,,,,,,,,,,,,,,,,,,,,,,,,,,,,,,,,,,,,,,,,,143,globus,Catalan,Sounds/cat_globus.mp3,2020-06-05_16h21.27.837,TranslationElicitation_eng-prolific,3.2.4,Win32,60,5c2fb1412c45d400014ae103,,1,0,81,37,1,80
,,,,,,,,,,,,,,,,,,,,,,,,,,,,,,,,,,,,,,,,,,n,4.248999834,N,FALSE,,,,,,,107,amanida,Catalan,Sounds/cat_amanida.mp3,2020-06-05_16h21.27.837,TranslationElicitation_eng-prolific,3.2.4,Win32,60,5c2fb1412c45d400014ae103,,1,0,81,3,1,80
,,,,,,,,,,,,,,,,,,,,,,,,,,,,,,,,,,,,,,,,,,a,4.332000017,NA,FALSE,,,,,,,107,amanida,Catalan,Sounds/cat_amanida.mp3,2020-06-05_16h21.27.837,TranslationElicitation_eng-prolific,3.2.4,Win32,60,5c2fb1412c45d400014ae103,,1,0,81,3,1,80
,,,,,,,,,,,,,,,,,,,,,,,,,,,,,,,,,,,,,,,,,,return,4.464999914,NA,FALSE,,,,,,,107,amanida,Catalan,Sounds/cat_amanida.mp3,2020-06-05_16h21.27.837,TranslationElicitation_eng-prolific,3.2.4,Win32,60,5c2fb1412c45d400014ae103,4.464999914,1,0,81,3,1,80
,,,,,,,,,,,,,,,,,,,,,,,,,,,,,,,,,,,,,,,,,,,,,,,,,,,,107,amanida,Catalan,Sounds/cat_amanida.mp3,2020-06-05_16h21.27.837,TranslationElicitation_eng-prolific,3.2.4,Win32,60,5c2fb1412c45d400014ae103,,1,0,81,3,1,80
,,,,,,,,,,,,,,,,,,,,,,,,,,,,,,,,,,,,,,,,,,f,1.76699996,F,FALSE,,,,,,,137,fulla,Catalan,Sounds/cat_fulla.mp3,2020-06-05_16h21.27.837,TranslationElicitation_eng-prolific,3.2.4,Win32,60,5c2fb1412c45d400014ae103,,1,0,81,31,1,80
,,,,,,,,,,,,,,,,,,,,,,,,,,,,,,,,,,,,,,,,,,u,1.98300004,FU,FALSE,,,,,,,137,fulla,Catalan,Sounds/cat_fulla.mp3,2020-06-05_16h21.27.837,TranslationElicitation_eng-prolific,3.2.4,Win32,60,5c2fb1412c45d400014ae103,,1,0,81,31,1,80
,,,,,,,,,,,,,,,,,,,,,,,,,,,,,,,,,,,,,,,,,,e,2.069000006,FUE,FALSE,,,,,,,137,fulla,Catalan,Sounds/cat_fulla.mp3,2020-06-05_16h21.27.837,TranslationElicitation_eng-prolific,3.2.4,Win32,60,5c2fb1412c45d400014ae103,,1,0,81,31,1,80
,,,,,,,,,,,,,,,,,,,,,,,,,,,,,,,,,,,,,,,,,,l,2.183000088,FUEL,FALSE,,,,,,,137,fulla,Catalan,Sounds/cat_fulla.mp3,2020-06-05_16h21.27.837,TranslationElicitation_eng-prolific,3.2.4,Win32,60,5c2fb1412c45d400014ae103,,1,0,81,31,1,80
,,,,,,,,,,,,,,,,,,,,,,,,,,,,,,,,,,,,,,,,,,return,2.382999897,FUEL,FALSE,,,,,,,137,fulla,Catalan,Sounds/cat_fulla.mp3,2020-06-05_16h21.27.837,TranslationElicitation_eng-prolific,3.2.4,Win32,60,5c2fb1412c45d400014ae103,2.382999897,1,0,81,31,1,80
,,,,,,,,,,,,,,,,,,,,,,,,,,,,,,,,,,,,,,,,,,,,,,,,,,,,137,fulla,Catalan,Sounds/cat_fulla.mp3,2020-06-05_16h21.27.837,TranslationElicitation_eng-prolific,3.2.4,Win32,60,5c2fb1412c45d400014ae103,,1,0,81,31,1,80
,,,,,,,,,,,,,,,,,,,,,,,,,,,,,,,,,,,,,,,,,,m,1.565999985,M,FALSE,,,,,,,152,ma,Catalan,Sounds/cat_ma.mp3,2020-06-05_16h21.27.837,TranslationElicitation_eng-prolific,3.2.4,Win32,60,5c2fb1412c45d400014ae103,,1,0,81,45,1,80
,,,,,,,,,,,,,,,,,,,,,,,,,,,,,,,,,,,,,,,,,,a,1.848999977,MA,FALSE,,,,,,,152,ma,Catalan,Sounds/cat_ma.mp3,2020-06-05_16h21.27.837,TranslationElicitation_eng-prolific,3.2.4,Win32,60,5c2fb1412c45d400014ae103,,1,0,81,45,1,80
,,,,,,,,,,,,,,,,,,,,,,,,,,,,,,,,,,,,,,,,,,r,1.957999945,MAR,FALSE,,,,,,,152,ma,Catalan,Sounds/cat_ma.mp3,2020-06-05_16h21.27.837,TranslationElicitation_eng-prolific,3.2.4,Win32,60,5c2fb1412c45d400014ae103,,1,0,81,45,1,80
,,,,,,,,,,,,,,,,,,,,,,,,,,,,,,,,,,,,,,,,,,s,2.315999985,MARS,FALSE,,,,,,,152,ma,Catalan,Sounds/cat_ma.mp3,2020-06-05_16h21.27.837,TranslationElicitation_eng-prolific,3.2.4,Win32,60,5c2fb1412c45d400014ae103,,1,0,81,45,1,80
,,,,,,,,,,,,,,,,,,,,,,,,,,,,,,,,,,,,,,,,,,return,2.48300004,MARS,FALSE,,,,,,,152,ma,Catalan,Sounds/cat_ma.mp3,2020-06-05_16h21.27.837,TranslationElicitation_eng-prolific,3.2.4,Win32,60,5c2fb1412c45d400014ae103,2.48300004,1,0,81,45,1,80
,,,,,,,,,,,,,,,,,,,,,,,,,,,,,,,,,,,,,,,,,,,,,,,,,,,,152,ma,Catalan,Sounds/cat_ma.mp3,2020-06-05_16h21.27.837,TranslationElicitation_eng-prolific,3.2.4,Win32,60,5c2fb1412c45d400014ae103,,1,0,81,45,1,80
,,,,,,,,,,,,,,,,,,,,,,,,,,,,,,,,,,,,,,,,,,p,1.516000032,P,FALSE,,,,,,,174,porta,Catalan,Sounds/cat_porta.mp3,2020-06-05_16h21.27.837,TranslationElicitation_eng-prolific,3.2.4,Win32,60,5c2fb1412c45d400014ae103,,1,0,81,66,1,80
,,,,,,,,,,,,,,,,,,,,,,,,,,,,,,,,,,,,,,,,,,a,1.999000072,PA,FALSE,,,,,,,174,porta,Catalan,Sounds/cat_porta.mp3,2020-06-05_16h21.27.837,TranslationElicitation_eng-prolific,3.2.4,Win32,60,5c2fb1412c45d400014ae103,,1,0,81,66,1,80
,,,,,,,,,,,,,,,,,,,,,,,,,,,,,,,,,,,,,,,,,,r,2.482000113,PAR,FALSE,,,,,,,174,porta,Catalan,Sounds/cat_porta.mp3,2020-06-05_16h21.27.837,TranslationElicitation_eng-prolific,3.2.4,Win32,60,5c2fb1412c45d400014ae103,,1,0,81,66,1,80
,,,,,,,,,,,,,,,,,,,,,,,,,,,,,,,,,,,,,,,,,,t,2.681999922,PART,FALSE,,,,,,,174,porta,Catalan,Sounds/cat_porta.mp3,2020-06-05_16h21.27.837,TranslationElicitation_eng-prolific,3.2.4,Win32,60,5c2fb1412c45d400014ae103,,1,0,81,66,1,80
,,,,,,,,,,,,,,,,,,,,,,,,,,,,,,,,,,,,,,,,,,y,2.86500001,PARTY,FALSE,,,,,,,174,porta,Catalan,Sounds/cat_porta.mp3,2020-06-05_16h21.27.837,TranslationElicitation_eng-prolific,3.2.4,Win32,60,5c2fb1412c45d400014ae103,,1,0,81,66,1,80
,,,,,,,,,,,,,,,,,,,,,,,,,,,,,,,,,,,,,,,,,,return,3.61500001,PARTY,FALSE,,,,,,,174,porta,Catalan,Sounds/cat_porta.mp3,2020-06-05_16h21.27.837,TranslationElicitation_eng-prolific,3.2.4,Win32,60,5c2fb1412c45d400014ae103,3.61500001,1,0,81,66,1,80
,,,,,,,,,,,,,,,,,,,,,,,,,,,,,,,,,,,,,,,,,,,,,,,,,,,,174,porta,Catalan,Sounds/cat_porta.mp3,2020-06-05_16h21.27.837,TranslationElicitation_eng-prolific,3.2.4,Win32,60,5c2fb1412c45d400014ae103,,1,0,81,66,1,80
,,,,,,,,,,,,,,,,,,,,,,,,,,,,,,,,,,,,,,,,,,p,2.11500001,P,FALSE,,,,,,,173,porc,Catalan,Sounds/cat_porc.mp3,2020-06-05_16h21.27.837,TranslationElicitation_eng-prolific,3.2.4,Win32,60,5c2fb1412c45d400014ae103,,1,0,81,65,1,80
,,,,,,,,,,,,,,,,,,,,,,,,,,,,,,,,,,,,,,,,,,a,2.332000017,PA,FALSE,,,,,,,173,porc,Catalan,Sounds/cat_porc.mp3,2020-06-05_16h21.27.837,TranslationElicitation_eng-prolific,3.2.4,Win32,60,5c2fb1412c45d400014ae103,,1,0,81,65,1,80
,,,,,,,,,,,,,,,,,,,,,,,,,,,,,,,,,,,,,,,,,,r,2.381999969,PAR,FALSE,,,,,,,173,porc,Catalan,Sounds/cat_porc.mp3,2020-06-05_16h21.27.837,TranslationElicitation_eng-prolific,3.2.4,Win32,60,5c2fb1412c45d400014ae103,,1,0,81,65,1,80
,,,,,,,,,,,,,,,,,,,,,,,,,,,,,,,,,,,,,,,,,,k,2.465000153,PARK,FALSE,,,,,,,173,porc,Catalan,Sounds/cat_porc.mp3,2020-06-05_16h21.27.837,TranslationElicitation_eng-prolific,3.2.4,Win32,60,5c2fb1412c45d400014ae103,,1,0,81,65,1,80
,,,,,,,,,,,,,,,,,,,,,,,,,,,,,,,,,,,,,,,,,,return,3.148000002,PARK,FALSE,,,,,,,173,porc,Catalan,Sounds/cat_porc.mp3,2020-06-05_16h21.27.837,TranslationElicitation_eng-prolific,3.2.4,Win32,60,5c2fb1412c45d400014ae103,3.148000002,1,0,81,65,1,80
,,,,,,,,,,,,,,,,,,,,,,,,,,,,,,,,,,,,,,,,,,,,,,,,,,,,173,porc,Catalan,Sounds/cat_porc.mp3,2020-06-05_16h21.27.837,TranslationElicitation_eng-prolific,3.2.4,Win32,60,5c2fb1412c45d400014ae103,,1,0,81,65,1,80
,,,,,,,,,,,,,,,,,,,,,,,,,,,,,,,,,,,,,,,,,,r,1.915999889,R,FALSE,,,,,,,175,raspall,Catalan,Sounds/cat_raspall.mp3,2020-06-05_16h21.27.837,TranslationElicitation_eng-prolific,3.2.4,Win32,60,5c2fb1412c45d400014ae103,,1,0,81,67,1,80
,,,,,,,,,,,,,,,,,,,,,,,,,,,,,,,,,,,,,,,,,,e,2.497999907,RE,FALSE,,,,,,,175,raspall,Catalan,Sounds/cat_raspall.mp3,2020-06-05_16h21.27.837,TranslationElicitation_eng-prolific,3.2.4,Win32,60,5c2fb1412c45d400014ae103,,1,0,81,67,1,80
,,,,,,,,,,,,,,,,,,,,,,,,,,,,,,,,,,,,,,,,,,s,2.681999922,RES,FALSE,,,,,,,175,raspall,Catalan,Sounds/cat_raspall.mp3,2020-06-05_16h21.27.837,TranslationElicitation_eng-prolific,3.2.4,Win32,60,5c2fb1412c45d400014ae103,,1,0,81,67,1,80
,,,,,,,,,,,,,,,,,,,,,,,,,,,,,,,,,,,,,,,,,,p,2.765999794,RESP,FALSE,,,,,,,175,raspall,Catalan,Sounds/cat_raspall.mp3,2020-06-05_16h21.27.837,TranslationElicitation_eng-prolific,3.2.4,Win32,60,5c2fb1412c45d400014ae103,,1,0,81,67,1,80
,,,,,,,,,,,,,,,,,,,,,,,,,,,,,,,,,,,,,,,,,,o,2.981999874,RESPO,FALSE,,,,,,,175,raspall,Catalan,Sounds/cat_raspall.mp3,2020-06-05_16h21.27.837,TranslationElicitation_eng-prolific,3.2.4,Win32,60,5c2fb1412c45d400014ae103,,1,0,81,67,1,80
,,,,,,,,,,,,,,,,,,,,,,,,,,,,,,,,,,,,,,,,,,n,3.164999962,RESPON,FALSE,,,,,,,175,raspall,Catalan,Sounds/cat_raspall.mp3,2020-06-05_16h21.27.837,TranslationElicitation_eng-prolific,3.2.4,Win32,60,5c2fb1412c45d400014ae103,,1,0,81,67,1,80
,,,,,,,,,,,,,,,,,,,,,,,,,,,,,,,,,,,,,,,,,,s,3.265999794,RESPONS,FALSE,,,,,,,175,raspall,Catalan,Sounds/cat_raspall.mp3,2020-06-05_16h21.27.837,TranslationElicitation_eng-prolific,3.2.4,Win32,60,5c2fb1412c45d400014ae103,,1,0,81,67,1,80
,,,,,,,,,,,,,,,,,,,,,,,,,,,,,,,,,,,,,,,,,,e,3.330999851,RESPONSE,FALSE,,,,,,,175,raspall,Catalan,Sounds/cat_raspall.mp3,2020-06-05_16h21.27.837,TranslationElicitation_eng-prolific,3.2.4,Win32,60,5c2fb1412c45d400014ae103,,1,0,81,67,1,80
,,,,,,,,,,,,,,,,,,,,,,,,,,,,,,,,,,,,,,,,,,return,3.984999895,RESPONSE,FALSE,,,,,,,175,raspall,Catalan,Sounds/cat_raspall.mp3,2020-06-05_16h21.27.837,TranslationElicitation_eng-prolific,3.2.4,Win32,60,5c2fb1412c45d400014ae103,3.984999895,1,0,81,67,1,80
,,,,,,,,,,,,,,,,,,,,,,,,,,,,,,,,,,,,,,,,,,,,,,,,,,,,175,raspall,Catalan,Sounds/cat_raspall.mp3,2020-06-05_16h21.27.837,TranslationElicitation_eng-prolific,3.2.4,Win32,60,5c2fb1412c45d400014ae103,,1,0,81,67,1,80
,,,,,,,,,,,,,,,,,,,,,,,,,,,,,,,,,,,,,,,,,,n,2.700999975,N,FALSE,,,,,,,130,entrepa,Catalan,Sounds/cat_entrepa.mp3,2020-06-05_16h21.27.837,TranslationElicitation_eng-prolific,3.2.4,Win32,60,5c2fb1412c45d400014ae103,,1,0,81,24,1,80
,,,,,,,,,,,,,,,,,,,,,,,,,,,,,,,,,,,,,,,,,,a,2.881999969,NA,FALSE,,,,,,,130,entrepa,Catalan,Sounds/cat_entrepa.mp3,2020-06-05_16h21.27.837,TranslationElicitation_eng-prolific,3.2.4,Win32,60,5c2fb1412c45d400014ae103,,1,0,81,24,1,80
,,,,,,,,,,,,,,,,,,,,,,,,,,,,,,,,,,,,,,,,,,return,3.281000137,NA,FALSE,,,,,,,130,entrepa,Catalan,Sounds/cat_entrepa.mp3,2020-06-05_16h21.27.837,TranslationElicitation_eng-prolific,3.2.4,Win32,60,5c2fb1412c45d400014ae103,3.281000137,1,0,81,24,1,80
,,,,,,,,,,,,,,,,,,,,,,,,,,,,,,,,,,,,,,,,,,,,,,,,,,,,130,entrepa,Catalan,Sounds/cat_entrepa.mp3,2020-06-05_16h21.27.837,TranslationElicitation_eng-prolific,3.2.4,Win32,60,5c2fb1412c45d400014ae103,,1,0,81,24,1,80
,,,,,,,,,,,,,,,,,,,,,,,,,,,,,,,,,,,,,,,,,,c,2.082000017,C,FALSE,,,,,,,124,cirera,Catalan,Sounds/cat_cirera.mp3,2020-06-05_16h21.27.837,TranslationElicitation_eng-prolific,3.2.4,Win32,60,5c2fb1412c45d400014ae103,,1,0,81,19,1,80
,,,,,,,,,,,,,,,,,,,,,,,,,,,,,,,,,,,,,,,,,,d,2.231999874,CD,FALSE,,,,,,,124,cirera,Catalan,Sounds/cat_cirera.mp3,2020-06-05_16h21.27.837,TranslationElicitation_eng-prolific,3.2.4,Win32,60,5c2fb1412c45d400014ae103,,1,0,81,19,1,80
,,,,,,,,,,,,,,,,,,,,,,,,,,,,,,,,,,,,,,,,,,return,2.514999866,CD,FALSE,,,,,,,124,cirera,Catalan,Sounds/cat_cirera.mp3,2020-06-05_16h21.27.837,TranslationElicitation_eng-prolific,3.2.4,Win32,60,5c2fb1412c45d400014ae103,2.514999866,1,0,81,19,1,80
,,,,,,,,,,,,,,,,,,,,,,,,,,,,,,,,,,,,,,,,,,,,,,,,,,,,124,cirera,Catalan,Sounds/cat_cirera.mp3,2020-06-05_16h21.27.837,TranslationElicitation_eng-prolific,3.2.4,Win32,60,5c2fb1412c45d400014ae103,,1,0,81,19,1,80
,,,,,,,,,,,,,,,,,,,,,,,,,,,,,,,,,,,,,,,,,,n,6.815999985,N,FALSE,,,,,,,180,tisores,Catalan,Sounds/cat_tisores.mp3,2020-06-05_16h21.27.837,TranslationElicitation_eng-prolific,3.2.4,Win32,60,5c2fb1412c45d400014ae103,,1,0,81,71,1,80
,,,,,,,,,,,,,,,,,,,,,,,,,,,,,,,,,,,,,,,,,,a,6.982000113,NA,FALSE,,,,,,,180,tisores,Catalan,Sounds/cat_tisores.mp3,2020-06-05_16h21.27.837,TranslationElicitation_eng-prolific,3.2.4,Win32,60,5c2fb1412c45d400014ae103,,1,0,81,71,1,80
,,,,,,,,,,,,,,,,,,,,,,,,,,,,,,,,,,,,,,,,,,return,7.482000113,NA,FALSE,,,,,,,180,tisores,Catalan,Sounds/cat_tisores.mp3,2020-06-05_16h21.27.837,TranslationElicitation_eng-prolific,3.2.4,Win32,60,5c2fb1412c45d400014ae103,7.482000113,1,0,81,71,1,80
,,,,,,,,,,,,,,,,,,,,,,,,,,,,,,,,,,,,,,,,,,,,,,,,,,,,180,tisores,Catalan,Sounds/cat_tisores.mp3,2020-06-05_16h21.27.837,TranslationElicitation_eng-prolific,3.2.4,Win32,60,5c2fb1412c45d400014ae103,,1,0,81,71,1,80
,,,,,,,,,,,,,,,,,,,,,,,,,,,,,,,,,,,,,,,,,,j,2.565999985,J,FALSE,,,,,,,141,gerd,Catalan,Sounds/cat_gerd.mp3,2020-06-05_16h21.27.837,TranslationElicitation_eng-prolific,3.2.4,Win32,60,5c2fb1412c45d400014ae103,,1,0,81,35,1,80
,,,,,,,,,,,,,,,,,,,,,,,,,,,,,,,,,,,,,,,,,,u,2.749000072,JU,FALSE,,,,,,,141,gerd,Catalan,Sounds/cat_gerd.mp3,2020-06-05_16h21.27.837,TranslationElicitation_eng-prolific,3.2.4,Win32,60,5c2fb1412c45d400014ae103,,1,0,81,35,1,80
,,,,,,,,,,,,,,,,,,,,,,,,,,,,,,,,,,,,,,,,,,n,2.815999985,JUN,FALSE,,,,,,,141,gerd,Catalan,Sounds/cat_gerd.mp3,2020-06-05_16h21.27.837,TranslationElicitation_eng-prolific,3.2.4,Win32,60,5c2fb1412c45d400014ae103,,1,0,81,35,1,80
,,,,,,,,,,,,,,,,,,,,,,,,,,,,,,,,,,,,,,,,,,e,2.881999969,JUNE,FALSE,,,,,,,141,gerd,Catalan,Sounds/cat_gerd.mp3,2020-06-05_16h21.27.837,TranslationElicitation_eng-prolific,3.2.4,Win32,60,5c2fb1412c45d400014ae103,,1,0,81,35,1,80
,,,,,,,,,,,,,,,,,,,,,,,,,,,,,,,,,,,,,,,,,,return,3.014999866,JUNE,FALSE,,,,,,,141,gerd,Catalan,Sounds/cat_gerd.mp3,2020-06-05_16h21.27.837,TranslationElicitation_eng-prolific,3.2.4,Win32,60,5c2fb1412c45d400014ae103,3.014999866,1,0,81,35,1,80
,,,,,,,,,,,,,,,,,,,,,,,,,,,,,,,,,,,,,,,,,,,,,,,,,,,,141,gerd,Catalan,Sounds/cat_gerd.mp3,2020-06-05_16h21.27.837,TranslationElicitation_eng-prolific,3.2.4,Win32,60,5c2fb1412c45d400014ae103,,1,0,81,35,1,80
,,,,,,,,,,,,,,,,,,,,,,,,,,,,,,,,,,,,,,,,,,c,1.383000135,C,FALSE,,,,,,,128,cuc,Catalan,Sounds/cat_cuc.mp3,2020-06-05_16h21.27.837,TranslationElicitation_eng-prolific,3.2.4,Win32,60,5c2fb1412c45d400014ae103,,1,0,81,22,1,80
,,,,,,,,,,,,,,,,,,,,,,,,,,,,,,,,,,,,,,,,,,o,1.48300004,CO,FALSE,,,,,,,128,cuc,Catalan,Sounds/cat_cuc.mp3,2020-06-05_16h21.27.837,TranslationElicitation_eng-prolific,3.2.4,Win32,60,5c2fb1412c45d400014ae103,,1,0,81,22,1,80
,,,,,,,,,,,,,,,,,,,,,,,,,,,,,,,,,,,,,,,,,,o,2.183000088,COO,FALSE,,,,,,,128,cuc,Catalan,Sounds/cat_cuc.mp3,2020-06-05_16h21.27.837,TranslationElicitation_eng-prolific,3.2.4,Win32,60,5c2fb1412c45d400014ae103,,1,0,81,22,1,80
,,,,,,,,,,,,,,,,,,,,,,,,,,,,,,,,,,,,,,,,,,k,2.383000135,COOK,FALSE,,,,,,,128,cuc,Catalan,Sounds/cat_cuc.mp3,2020-06-05_16h21.27.837,TranslationElicitation_eng-prolific,3.2.4,Win32,60,5c2fb1412c45d400014ae103,,1,0,81,22,1,80
,,,,,,,,,,,,,,,,,,,,,,,,,,,,,,,,,,,,,,,,,,return,2.633000135,COOK,FALSE,,,,,,,128,cuc,Catalan,Sounds/cat_cuc.mp3,2020-06-05_16h21.27.837,TranslationElicitation_eng-prolific,3.2.4,Win32,60,5c2fb1412c45d400014ae103,2.633000135,1,0,81,22,1,80
,,,,,,,,,,,,,,,,,,,,,,,,,,,,,,,,,,,,,,,,,,,,,,,,,,,,128,cuc,Catalan,Sounds/cat_cuc.mp3,2020-06-05_16h21.27.837,TranslationElicitation_eng-prolific,3.2.4,Win32,60,5c2fb1412c45d400014ae103,,1,0,81,22,1,80
,,,,,,,,,,,,,,,,,,,,,,,,,,,,,,,,,,,,,,,,,,e,1.665999889,E,FALSE,,,,,,,186,ungla,Catalan,Sounds/cat_ungla.mp3,2020-06-05_16h21.27.837,TranslationElicitation_eng-prolific,3.2.4,Win32,60,5c2fb1412c45d400014ae103,,1,0,81,77,1,80
,,,,,,,,,,,,,,,,,,,,,,,,,,,,,,,,,,,,,,,,,,n,1.782999992,EN,FALSE,,,,,,,186,ungla,Catalan,Sounds/cat_ungla.mp3,2020-06-05_16h21.27.837,TranslationElicitation_eng-prolific,3.2.4,Win32,60,5c2fb1412c45d400014ae103,,1,0,81,77,1,80
,,,,,,,,,,,,,,,,,,,,,,,,,,,,,,,,,,,,,,,,,,g,1.931999922,ENG,FALSE,,,,,,,186,ungla,Catalan,Sounds/cat_ungla.mp3,2020-06-05_16h21.27.837,TranslationElicitation_eng-prolific,3.2.4,Win32,60,5c2fb1412c45d400014ae103,,1,0,81,77,1,80
,,,,,,,,,,,,,,,,,,,,,,,,,,,,,,,,,,,,,,,,,,l,2.032999992,ENGL,FALSE,,,,,,,186,ungla,Catalan,Sounds/cat_ungla.mp3,2020-06-05_16h21.27.837,TranslationElicitation_eng-prolific,3.2.4,Win32,60,5c2fb1412c45d400014ae103,,1,0,81,77,1,80
,,,,,,,,,,,,,,,,,,,,,,,,,,,,,,,,,,,,,,,,,,i,2.249000072,ENGLI,FALSE,,,,,,,186,ungla,Catalan,Sounds/cat_ungla.mp3,2020-06-05_16h21.27.837,TranslationElicitation_eng-prolific,3.2.4,Win32,60,5c2fb1412c45d400014ae103,,1,0,81,77,1,80
,,,,,,,,,,,,,,,,,,,,,,,,,,,,,,,,,,,,,,,,,,s,2.318000078,ENGLIS,FALSE,,,,,,,186,ungla,Catalan,Sounds/cat_ungla.mp3,2020-06-05_16h21.27.837,TranslationElicitation_eng-prolific,3.2.4,Win32,60,5c2fb1412c45d400014ae103,,1,0,81,77,1,80
,,,,,,,,,,,,,,,,,,,,,,,,,,,,,,,,,,,,,,,,,,h,2.348999977,ENGLISH,FALSE,,,,,,,186,ungla,Catalan,Sounds/cat_ungla.mp3,2020-06-05_16h21.27.837,TranslationElicitation_eng-prolific,3.2.4,Win32,60,5c2fb1412c45d400014ae103,,1,0,81,77,1,80
,,,,,,,,,,,,,,,,,,,,,,,,,,,,,,,,,,,,,,,,,,return,2.448999882,ENGLISH,FALSE,,,,,,,186,ungla,Catalan,Sounds/cat_ungla.mp3,2020-06-05_16h21.27.837,TranslationElicitation_eng-prolific,3.2.4,Win32,60,5c2fb1412c45d400014ae103,2.448999882,1,0,81,77,1,80
,,,,,,,,,,,,,,,,,,,,,,,,,,,,,,,,,,,,,,,,,,,,,,,,,,,,186,ungla,Catalan,Sounds/cat_ungla.mp3,2020-06-05_16h21.27.837,TranslationElicitation_eng-prolific,3.2.4,Win32,60,5c2fb1412c45d400014ae103,,1,0,81,77,1,80
,,,,,,,,,,,,,,,,,,,,,,,,,,,,,,,,,,,,,,,,,,p,2.050000191,P,FALSE,,,,,,,136,forquilla,Catalan,Sounds/cat_forquilla.mp3,2020-06-05_16h21.27.837,TranslationElicitation_eng-prolific,3.2.4,Win32,60,5c2fb1412c45d400014ae103,,1,0,81,30,1,80
