consentKey.keys,consentKey.rt,languageL1Key.keys,languageL1Key.rt,languageL2,languageL2OralKey.keys,languageL2OralKey.rt,languageL2WrittenKey.keys,languageL2WrittenKey.rt,languageL3OralKey.keys,languageL3OralKey.rt,languageL3WrittenKey.keys,languageL3WrittenKey.rt,languageCatalanOralKey.keys,languageCatalanOralKey.rt,languageCatalanWrittenKey.keys,languageCatalanWrittenKey.rt,languageCatalanTimeKey.keys,languageCatalanTimeKey.rt,languageSpanishOralKey.keys,languageSpanishOralKey.rt,languageSpanishWrittenKey.keys,languageSpanishWrittenKey.rt,languageSpanishTimeKey.keys,languageSpanishTimeKey.rt,age,demoSexKey.keys,demoSexKey.rt,demoEducationKey.keys,demoEducationKey.rt,city,demoVisionKey.keys,demoVisionKey.rt,demoLanguageKey.keys,demoLanguageKey.rt,setupLocationKey.keys,setupLocationKey.rt,setupNoiseKey.keys,setupNoiseKey.rt,instructionsKeys.keys,instructionsKeys.rt,keyPressed,keyPressTime,inputText,error,trialsPracticeCatalan.thisRepN,trialsPracticeCatalan.thisTrialN,trialsPracticeCatalan.thisN,trialsPracticeCatalan.thisIndex,trialsPracticeCatalan.ran,trialsPracticeCatalan.order,trial_id,word,test_language,soundfile,date,expName,psychopyVersion,OS,frameRate,participant,trialOffset,trialsCatalan.thisRepN,trialsCatalan.thisTrialN,trialsCatalan.thisN,trialsCatalan.thisIndex,trialsCatalan.ran,trialsCatalan.order
space,2.002000093,e,4.275999784,,,,,,,,,,1,4.977999926,1,4.523000002,3,9.036000013,2,5.386000156,1,5.046000004,3,5.850999832,21,f,2.062000036,3,5.143999815,LONDON,y,2.003000021,n,1.621000051,1,3.230999947,1,4.938999891,space,11.84200001,h,3.315999985,H,FALSE,1,0,5,0,1,4,109,arbre,Catalan,Sounds/cat_arbre.mp3,2020-06-12_20h54.19.441,TranslationElicitation_eng-prolific,3.2.4,Win32,60,5c41d2152b3f33000107545e,,,,,,,
,,,,,,,,,,,,,,,,,,,,,,,,,,,,,,,,,,,,,,,,,a,3.36500001,HA,FALSE,1,0,5,0,1,4,109,arbre,Catalan,Sounds/cat_arbre.mp3,2020-06-12_20h54.19.441,TranslationElicitation_eng-prolific,3.2.4,Win32,60,5c41d2152b3f33000107545e,,,,,,,
,,,,,,,,,,,,,,,,,,,,,,,,,,,,,,,,,,,,,,,,,t,3.498000145,HAT,FALSE,1,0,5,0,1,4,109,arbre,Catalan,Sounds/cat_arbre.mp3,2020-06-12_20h54.19.441,TranslationElicitation_eng-prolific,3.2.4,Win32,60,5c41d2152b3f33000107545e,,,,,,,
,,,,,,,,,,,,,,,,,,,,,,,,,,,,,,,,,,,,,,,,,return,3.919000149,HAT,FALSE,1,0,5,0,1,4,109,arbre,Catalan,Sounds/cat_arbre.mp3,2020-06-12_20h54.19.441,TranslationElicitation_eng-prolific,3.2.4,Win32,60,5c41d2152b3f33000107545e,3.919000149,,,,,,
,,,,,,,,,,,,,,,,,,,,,,,,,,,,,,,,,,,,,,,,,,,,,1,0,5,0,1,4,109,arbre,Catalan,Sounds/cat_arbre.mp3,2020-06-12_20h54.19.441,TranslationElicitation_eng-prolific,3.2.4,Win32,60,5c41d2152b3f33000107545e,,,,,,,
,,,,,,,,,,,,,,,,,,,,,,,,,,,,,,,,,,,,,,,,,f,2.383000135,F,FALSE,1,0,5,2,1,4,147,jaqueta,Catalan,Sounds/cat_jaqueta.mp3,2020-06-12_20h54.19.441,TranslationElicitation_eng-prolific,3.2.4,Win32,60,5c41d2152b3f33000107545e,,,,,,,
,,,,,,,,,,,,,,,,,,,,,,,,,,,,,,,,,,,,,,,,,i,2.448000193,FI,FALSE,1,0,5,2,1,4,147,jaqueta,Catalan,Sounds/cat_jaqueta.mp3,2020-06-12_20h54.19.441,TranslationElicitation_eng-prolific,3.2.4,Win32,60,5c41d2152b3f33000107545e,,,,,,,
,,,,,,,,,,,,,,,,,,,,,,,,,,,,,,,,,,,,,,,,,h,2.698000193,FIH,FALSE,1,0,5,2,1,4,147,jaqueta,Catalan,Sounds/cat_jaqueta.mp3,2020-06-12_20h54.19.441,TranslationElicitation_eng-prolific,3.2.4,Win32,60,5c41d2152b3f33000107545e,,,,,,,
,,,,,,,,,,,,,,,,,,,,,,,,,,,,,,,,,,,,,,,,,backspace,3.166000128,FI,TRUE,1,0,5,2,1,4,147,jaqueta,Catalan,Sounds/cat_jaqueta.mp3,2020-06-12_20h54.19.441,TranslationElicitation_eng-prolific,3.2.4,Win32,60,5c41d2152b3f33000107545e,,,,,,,
,,,,,,,,,,,,,,,,,,,,,,,,,,,,,,,,,,,,,,,,,s,3.366000175,FIS,TRUE,1,0,5,2,1,4,147,jaqueta,Catalan,Sounds/cat_jaqueta.mp3,2020-06-12_20h54.19.441,TranslationElicitation_eng-prolific,3.2.4,Win32,60,5c41d2152b3f33000107545e,,,,,,,
,,,,,,,,,,,,,,,,,,,,,,,,,,,,,,,,,,,,,,,,,h,3.515000105,FISH,TRUE,1,0,5,2,1,4,147,jaqueta,Catalan,Sounds/cat_jaqueta.mp3,2020-06-12_20h54.19.441,TranslationElicitation_eng-prolific,3.2.4,Win32,60,5c41d2152b3f33000107545e,,,,,,,
,,,,,,,,,,,,,,,,,,,,,,,,,,,,,,,,,,,,,,,,,return,3.794000149,FISH,TRUE,1,0,5,2,1,4,147,jaqueta,Catalan,Sounds/cat_jaqueta.mp3,2020-06-12_20h54.19.441,TranslationElicitation_eng-prolific,3.2.4,Win32,60,5c41d2152b3f33000107545e,3.794000149,,,,,,
,,,,,,,,,,,,,,,,,,,,,,,,,,,,,,,,,,,,,,,,,,,,,1,0,5,2,1,4,147,jaqueta,Catalan,Sounds/cat_jaqueta.mp3,2020-06-12_20h54.19.441,TranslationElicitation_eng-prolific,3.2.4,Win32,60,5c41d2152b3f33000107545e,,,,,,,
,,,,,,,,,,,,,,,,,,,,,,,,,,,,,,,,,,,,,,,,,i,1.848999977,I,FALSE,1,0,5,4,1,4,179,tigre,Catalan,Sounds/cat_tigre.mp3,2020-06-12_20h54.19.441,TranslationElicitation_eng-prolific,3.2.4,Win32,60,5c41d2152b3f33000107545e,,,,,,,
,,,,,,,,,,,,,,,,,,,,,,,,,,,,,,,,,,,,,,,,,backspace,2.131999969,,TRUE,1,0,5,4,1,4,179,tigre,Catalan,Sounds/cat_tigre.mp3,2020-06-12_20h54.19.441,TranslationElicitation_eng-prolific,3.2.4,Win32,60,5c41d2152b3f33000107545e,,,,,,,
,,,,,,,,,,,,,,,,,,,,,,,,,,,,,,,,,,,,,,,,,t,2.448999882,T,TRUE,1,0,5,4,1,4,179,tigre,Catalan,Sounds/cat_tigre.mp3,2020-06-12_20h54.19.441,TranslationElicitation_eng-prolific,3.2.4,Win32,60,5c41d2152b3f33000107545e,,,,,,,
,,,,,,,,,,,,,,,,,,,,,,,,,,,,,,,,,,,,,,,,,g,2.648000002,TG,TRUE,1,0,5,4,1,4,179,tigre,Catalan,Sounds/cat_tigre.mp3,2020-06-12_20h54.19.441,TranslationElicitation_eng-prolific,3.2.4,Win32,60,5c41d2152b3f33000107545e,,,,,,,
,,,,,,,,,,,,,,,,,,,,,,,,,,,,,,,,,,,,,,,,,backspace,2.964999914,T,TRUE,1,0,5,4,1,4,179,tigre,Catalan,Sounds/cat_tigre.mp3,2020-06-12_20h54.19.441,TranslationElicitation_eng-prolific,3.2.4,Win32,60,5c41d2152b3f33000107545e,,,,,,,
,,,,,,,,,,,,,,,,,,,,,,,,,,,,,,,,,,,,,,,,,i,3.181999922,TI,TRUE,1,0,5,4,1,4,179,tigre,Catalan,Sounds/cat_tigre.mp3,2020-06-12_20h54.19.441,TranslationElicitation_eng-prolific,3.2.4,Win32,60,5c41d2152b3f33000107545e,,,,,,,
,,,,,,,,,,,,,,,,,,,,,,,,,,,,,,,,,,,,,,,,,g,3.214999914,TIG,TRUE,1,0,5,4,1,4,179,tigre,Catalan,Sounds/cat_tigre.mp3,2020-06-12_20h54.19.441,TranslationElicitation_eng-prolific,3.2.4,Win32,60,5c41d2152b3f33000107545e,,,,,,,
,,,,,,,,,,,,,,,,,,,,,,,,,,,,,,,,,,,,,,,,,e,3.431999922,TIGE,TRUE,1,0,5,4,1,4,179,tigre,Catalan,Sounds/cat_tigre.mp3,2020-06-12_20h54.19.441,TranslationElicitation_eng-prolific,3.2.4,Win32,60,5c41d2152b3f33000107545e,,,,,,,
,,,,,,,,,,,,,,,,,,,,,,,,,,,,,,,,,,,,,,,,,r,3.531999826,TIGER,TRUE,1,0,5,4,1,4,179,tigre,Catalan,Sounds/cat_tigre.mp3,2020-06-12_20h54.19.441,TranslationElicitation_eng-prolific,3.2.4,Win32,60,5c41d2152b3f33000107545e,,,,,,,
,,,,,,,,,,,,,,,,,,,,,,,,,,,,,,,,,,,,,,,,,return,3.648000002,TIGER,TRUE,1,0,5,4,1,4,179,tigre,Catalan,Sounds/cat_tigre.mp3,2020-06-12_20h54.19.441,TranslationElicitation_eng-prolific,3.2.4,Win32,60,5c41d2152b3f33000107545e,3.648000002,,,,,,
,,,,,,,,,,,,,,,,,,,,,,,,,,,,,,,,,,,,,,,,,,,,,1,0,5,4,1,4,179,tigre,Catalan,Sounds/cat_tigre.mp3,2020-06-12_20h54.19.441,TranslationElicitation_eng-prolific,3.2.4,Win32,60,5c41d2152b3f33000107545e,,,,,,,
,,,,,,,,,,,,,,,,,,,,,,,,,,,,,,,,,,,,,,,,,c,2.031999826,C,FALSE,1,0,5,1,1,4,126,corona,Catalan,Sounds/cat_corona.mp3,2020-06-12_20h54.19.441,TranslationElicitation_eng-prolific,3.2.4,Win32,60,5c41d2152b3f33000107545e,,,,,,,
,,,,,,,,,,,,,,,,,,,,,,,,,,,,,,,,,,,,,,,,,o,2.467000008,CO,FALSE,1,0,5,1,1,4,126,corona,Catalan,Sounds/cat_corona.mp3,2020-06-12_20h54.19.441,TranslationElicitation_eng-prolific,3.2.4,Win32,60,5c41d2152b3f33000107545e,,,,,,,
,,,,,,,,,,,,,,,,,,,,,,,,,,,,,,,,,,,,,,,,,r,2.648000002,COR,FALSE,1,0,5,1,1,4,126,corona,Catalan,Sounds/cat_corona.mp3,2020-06-12_20h54.19.441,TranslationElicitation_eng-prolific,3.2.4,Win32,60,5c41d2152b3f33000107545e,,,,,,,
,,,,,,,,,,,,,,,,,,,,,,,,,,,,,,,,,,,,,,,,,o,3.247999907,CORO,FALSE,1,0,5,1,1,4,126,corona,Catalan,Sounds/cat_corona.mp3,2020-06-12_20h54.19.441,TranslationElicitation_eng-prolific,3.2.4,Win32,60,5c41d2152b3f33000107545e,,,,,,,
,,,,,,,,,,,,,,,,,,,,,,,,,,,,,,,,,,,,,,,,,n,3.380999804,CORON,FALSE,1,0,5,1,1,4,126,corona,Catalan,Sounds/cat_corona.mp3,2020-06-12_20h54.19.441,TranslationElicitation_eng-prolific,3.2.4,Win32,60,5c41d2152b3f33000107545e,,,,,,,
,,,,,,,,,,,,,,,,,,,,,,,,,,,,,,,,,,,,,,,,,a,4.066999912,CORONA,FALSE,1,0,5,1,1,4,126,corona,Catalan,Sounds/cat_corona.mp3,2020-06-12_20h54.19.441,TranslationElicitation_eng-prolific,3.2.4,Win32,60,5c41d2152b3f33000107545e,,,,,,,
,,,,,,,,,,,,,,,,,,,,,,,,,,,,,,,,,,,,,,,,,return,5.496999979,CORONA,FALSE,1,0,5,1,1,4,126,corona,Catalan,Sounds/cat_corona.mp3,2020-06-12_20h54.19.441,TranslationElicitation_eng-prolific,3.2.4,Win32,60,5c41d2152b3f33000107545e,5.496999979,,,,,,
,,,,,,,,,,,,,,,,,,,,,,,,,,,,,,,,,,,,,,,,,,,,,1,0,5,1,1,4,126,corona,Catalan,Sounds/cat_corona.mp3,2020-06-12_20h54.19.441,TranslationElicitation_eng-prolific,3.2.4,Win32,60,5c41d2152b3f33000107545e,,,,,,,
,,,,,,,,,,,,,,,,,,,,,,,,,,,,,,,,,,,,,,,,,e,4.214999914,E,FALSE,1,0,5,3,1,4,159,onada,Catalan,Sounds/cat_onada.mp3,2020-06-12_20h54.19.441,TranslationElicitation_eng-prolific,3.2.4,Win32,60,5c41d2152b3f33000107545e,,,,,,,
,,,,,,,,,,,,,,,,,,,,,,,,,,,,,,,,,,,,,,,,,e,4.398000002,EE,FALSE,1,0,5,3,1,4,159,onada,Catalan,Sounds/cat_onada.mp3,2020-06-12_20h54.19.441,TranslationElicitation_eng-prolific,3.2.4,Win32,60,5c41d2152b3f33000107545e,,,,,,,
,,,,,,,,,,,,,,,,,,,,,,,,,,,,,,,,,,,,,,,,,l,4.480999947,EEL,FALSE,1,0,5,3,1,4,159,onada,Catalan,Sounds/cat_onada.mp3,2020-06-12_20h54.19.441,TranslationElicitation_eng-prolific,3.2.4,Win32,60,5c41d2152b3f33000107545e,,,,,,,
,,,,,,,,,,,,,,,,,,,,,,,,,,,,,,,,,,,,,,,,,return,4.730999947,EEL,FALSE,1,0,5,3,1,4,159,onada,Catalan,Sounds/cat_onada.mp3,2020-06-12_20h54.19.441,TranslationElicitation_eng-prolific,3.2.4,Win32,60,5c41d2152b3f33000107545e,4.730999947,,,,,,
,,,,,,,,,,,,,,,,,,,,,,,,,,,,,,,,,,,,,,,,,,,,,1,0,5,3,1,4,159,onada,Catalan,Sounds/cat_onada.mp3,2020-06-12_20h54.19.441,TranslationElicitation_eng-prolific,3.2.4,Win32,60,5c41d2152b3f33000107545e,,,,,,,
,,,,,,,,,,,,,,,,,,,,,,,,,,,,,,,,,,,,,,,,,a,1.832000017,A,FALSE,,,,,,,132,estrella,Catalan,Sounds/cat_estrella.mp3,2020-06-12_20h54.19.441,TranslationElicitation_eng-prolific,3.2.4,Win32,60,5c41d2152b3f33000107545e,,1,0,81,26,1,80
,,,,,,,,,,,,,,,,,,,,,,,,,,,,,,,,,,,,,,,,,u,1.917000055,AU,FALSE,,,,,,,132,estrella,Catalan,Sounds/cat_estrella.mp3,2020-06-12_20h54.19.441,TranslationElicitation_eng-prolific,3.2.4,Win32,60,5c41d2152b3f33000107545e,,1,0,81,26,1,80
,,,,,,,,,,,,,,,,,,,,,,,,,,,,,,,,,,,,,,,,,s,2.11500001,AUS,FALSE,,,,,,,132,estrella,Catalan,Sounds/cat_estrella.mp3,2020-06-12_20h54.19.441,TranslationElicitation_eng-prolific,3.2.4,Win32,60,5c41d2152b3f33000107545e,,1,0,81,26,1,80
,,,,,,,,,,,,,,,,,,,,,,,,,,,,,,,,,,,,,,,,,t,2.648000002,AUST,FALSE,,,,,,,132,estrella,Catalan,Sounds/cat_estrella.mp3,2020-06-12_20h54.19.441,TranslationElicitation_eng-prolific,3.2.4,Win32,60,5c41d2152b3f33000107545e,,1,0,81,26,1,80
,,,,,,,,,,,,,,,,,,,,,,,,,,,,,,,,,,,,,,,,,r,2.84800005,AUSTR,FALSE,,,,,,,132,estrella,Catalan,Sounds/cat_estrella.mp3,2020-06-12_20h54.19.441,TranslationElicitation_eng-prolific,3.2.4,Win32,60,5c41d2152b3f33000107545e,,1,0,81,26,1,80
,,,,,,,,,,,,,,,,,,,,,,,,,,,,,,,,,,,,,,,,,a,3.664999962,AUSTRA,FALSE,,,,,,,132,estrella,Catalan,Sounds/cat_estrella.mp3,2020-06-12_20h54.19.441,TranslationElicitation_eng-prolific,3.2.4,Win32,60,5c41d2152b3f33000107545e,,1,0,81,26,1,80
,,,,,,,,,,,,,,,,,,,,,,,,,,,,,,,,,,,,,,,,,l,3.753999949,AUSTRAL,FALSE,,,,,,,132,estrella,Catalan,Sounds/cat_estrella.mp3,2020-06-12_20h54.19.441,TranslationElicitation_eng-prolific,3.2.4,Win32,60,5c41d2152b3f33000107545e,,1,0,81,26,1,80
,,,,,,,,,,,,,,,,,,,,,,,,,,,,,,,,,,,,,,,,,i,3.898999929,AUSTRALI,FALSE,,,,,,,132,estrella,Catalan,Sounds/cat_estrella.mp3,2020-06-12_20h54.19.441,TranslationElicitation_eng-prolific,3.2.4,Win32,60,5c41d2152b3f33000107545e,,1,0,81,26,1,80
,,,,,,,,,,,,,,,,,,,,,,,,,,,,,,,,,,,,,,,,,a,3.987999916,AUSTRALIA,FALSE,,,,,,,132,estrella,Catalan,Sounds/cat_estrella.mp3,2020-06-12_20h54.19.441,TranslationElicitation_eng-prolific,3.2.4,Win32,60,5c41d2152b3f33000107545e,,1,0,81,26,1,80
,,,,,,,,,,,,,,,,,,,,,,,,,,,,,,,,,,,,,,,,,return,4.148999929,AUSTRALIA,FALSE,,,,,,,132,estrella,Catalan,Sounds/cat_estrella.mp3,2020-06-12_20h54.19.441,TranslationElicitation_eng-prolific,3.2.4,Win32,60,5c41d2152b3f33000107545e,4.148999929,1,0,81,26,1,80
,,,,,,,,,,,,,,,,,,,,,,,,,,,,,,,,,,,,,,,,,,,,,,,,,,,132,estrella,Catalan,Sounds/cat_estrella.mp3,2020-06-12_20h54.19.441,TranslationElicitation_eng-prolific,3.2.4,Win32,60,5c41d2152b3f33000107545e,,1,0,81,26,1,80
,,,,,,,,,,,,,,,,,,,,,,,,,,,,,,,,,,,,,,,,,o,1.698999882,O,FALSE,,,,,,,184,ull,Catalan,Sounds/cat_ull.mp3,2020-06-12_20h54.19.441,TranslationElicitation_eng-prolific,3.2.4,Win32,60,5c41d2152b3f33000107545e,,1,0,81,75,1,80
,,,,,,,,,,,,,,,,,,,,,,,,,,,,,,,,,,,,,,,,,w,1.782999992,OW,FALSE,,,,,,,184,ull,Catalan,Sounds/cat_ull.mp3,2020-06-12_20h54.19.441,TranslationElicitation_eng-prolific,3.2.4,Win32,60,5c41d2152b3f33000107545e,,1,0,81,75,1,80
,,,,,,,,,,,,,,,,,,,,,,,,,,,,,,,,,,,,,,,,,l,1.882999897,OWL,FALSE,,,,,,,184,ull,Catalan,Sounds/cat_ull.mp3,2020-06-12_20h54.19.441,TranslationElicitation_eng-prolific,3.2.4,Win32,60,5c41d2152b3f33000107545e,,1,0,81,75,1,80
,,,,,,,,,,,,,,,,,,,,,,,,,,,,,,,,,,,,,,,,,return,2.051999807,OWL,FALSE,,,,,,,184,ull,Catalan,Sounds/cat_ull.mp3,2020-06-12_20h54.19.441,TranslationElicitation_eng-prolific,3.2.4,Win32,60,5c41d2152b3f33000107545e,2.051999807,1,0,81,75,1,80
,,,,,,,,,,,,,,,,,,,,,,,,,,,,,,,,,,,,,,,,,,,,,,,,,,,184,ull,Catalan,Sounds/cat_ull.mp3,2020-06-12_20h54.19.441,TranslationElicitation_eng-prolific,3.2.4,Win32,60,5c41d2152b3f33000107545e,,1,0,81,75,1,80
,,,,,,,,,,,,,,,,,,,,,,,,,,,,,,,,,,,,,,,,,r,2.282000065,R,FALSE,,,,,,,175,raspall,Catalan,Sounds/cat_raspall.mp3,2020-06-12_20h54.19.441,TranslationElicitation_eng-prolific,3.2.4,Win32,60,5c41d2152b3f33000107545e,,1,0,81,67,1,80
,,,,,,,,,,,,,,,,,,,,,,,,,,,,,,,,,,,,,,,,,e,2.532000065,RE,FALSE,,,,,,,175,raspall,Catalan,Sounds/cat_raspall.mp3,2020-06-12_20h54.19.441,TranslationElicitation_eng-prolific,3.2.4,Win32,60,5c41d2152b3f33000107545e,,1,0,81,67,1,80
,,,,,,,,,,,,,,,,,,,,,,,,,,,,,,,,,,,,,,,,,p,2.999000072,REP,FALSE,,,,,,,175,raspall,Catalan,Sounds/cat_raspall.mp3,2020-06-12_20h54.19.441,TranslationElicitation_eng-prolific,3.2.4,Win32,60,5c41d2152b3f33000107545e,,1,0,81,67,1,80
,,,,,,,,,,,,,,,,,,,,,,,,,,,,,,,,,,,,,,,,,s,3.015000105,REPS,FALSE,,,,,,,175,raspall,Catalan,Sounds/cat_raspall.mp3,2020-06-12_20h54.19.441,TranslationElicitation_eng-prolific,3.2.4,Win32,60,5c41d2152b3f33000107545e,,1,0,81,67,1,80
,,,,,,,,,,,,,,,,,,,,,,,,,,,,,,,,,,,,,,,,,backspace,3.769000053,REP,TRUE,,,,,,,175,raspall,Catalan,Sounds/cat_raspall.mp3,2020-06-12_20h54.19.441,TranslationElicitation_eng-prolific,3.2.4,Win32,60,5c41d2152b3f33000107545e,,1,0,81,67,1,80
,,,,,,,,,,,,,,,,,,,,,,,,,,,,,,,,,,,,,,,,,backspace,3.904000044,RE,TRUE,,,,,,,175,raspall,Catalan,Sounds/cat_raspall.mp3,2020-06-12_20h54.19.441,TranslationElicitation_eng-prolific,3.2.4,Win32,60,5c41d2152b3f33000107545e,,1,0,81,67,1,80
,,,,,,,,,,,,,,,,,,,,,,,,,,,,,,,,,,,,,,,,,s,4.067000151,RES,TRUE,,,,,,,175,raspall,Catalan,Sounds/cat_raspall.mp3,2020-06-12_20h54.19.441,TranslationElicitation_eng-prolific,3.2.4,Win32,60,5c41d2152b3f33000107545e,,1,0,81,67,1,80
,,,,,,,,,,,,,,,,,,,,,,,,,,,,,,,,,,,,,,,,,p,4.419000149,RESP,TRUE,,,,,,,175,raspall,Catalan,Sounds/cat_raspall.mp3,2020-06-12_20h54.19.441,TranslationElicitation_eng-prolific,3.2.4,Win32,60,5c41d2152b3f33000107545e,,1,0,81,67,1,80
,,,,,,,,,,,,,,,,,,,,,,,,,,,,,,,,,,,,,,,,,o,4.633000135,RESPO,TRUE,,,,,,,175,raspall,Catalan,Sounds/cat_raspall.mp3,2020-06-12_20h54.19.441,TranslationElicitation_eng-prolific,3.2.4,Win32,60,5c41d2152b3f33000107545e,,1,0,81,67,1,80
,,,,,,,,,,,,,,,,,,,,,,,,,,,,,,,,,,,,,,,,,n,4.731000185,RESPON,TRUE,,,,,,,175,raspall,Catalan,Sounds/cat_raspall.mp3,2020-06-12_20h54.19.441,TranslationElicitation_eng-prolific,3.2.4,Win32,60,5c41d2152b3f33000107545e,,1,0,81,67,1,80
,,,,,,,,,,,,,,,,,,,,,,,,,,,,,,,,,,,,,,,,,d,4.866000175,RESPOND,TRUE,,,,,,,175,raspall,Catalan,Sounds/cat_raspall.mp3,2020-06-12_20h54.19.441,TranslationElicitation_eng-prolific,3.2.4,Win32,60,5c41d2152b3f33000107545e,,1,0,81,67,1,80
,,,,,,,,,,,,,,,,,,,,,,,,,,,,,,,,,,,,,,,,,return,5.06400013,RESPOND,TRUE,,,,,,,175,raspall,Catalan,Sounds/cat_raspall.mp3,2020-06-12_20h54.19.441,TranslationElicitation_eng-prolific,3.2.4,Win32,60,5c41d2152b3f33000107545e,5.06400013,1,0,81,67,1,80
,,,,,,,,,,,,,,,,,,,,,,,,,,,,,,,,,,,,,,,,,,,,,,,,,,,175,raspall,Catalan,Sounds/cat_raspall.mp3,2020-06-12_20h54.19.441,TranslationElicitation_eng-prolific,3.2.4,Win32,60,5c41d2152b3f33000107545e,,1,0,81,67,1,80
,,,,,,,,,,,,,,,,,,,,,,,,,,,,,,,,,,,,,,,,,b,1.648999929,B,FALSE,,,,,,,113,boca,Catalan,Sounds/cat_boca.mp3,2020-06-12_20h54.19.441,TranslationElicitation_eng-prolific,3.2.4,Win32,60,5c41d2152b3f33000107545e,,1,0,81,8,1,80
,,,,,,,,,,,,,,,,,,,,,,,,,,,,,,,,,,,,,,,,,o,1.749000072,BO,FALSE,,,,,,,113,boca,Catalan,Sounds/cat_boca.mp3,2020-06-12_20h54.19.441,TranslationElicitation_eng-prolific,3.2.4,Win32,60,5c41d2152b3f33000107545e,,1,0,81,8,1,80
,,,,,,,,,,,,,,,,,,,,,,,,,,,,,,,,,,,,,,,,,o,1.833999872,BOO,FALSE,,,,,,,113,boca,Catalan,Sounds/cat_boca.mp3,2020-06-12_20h54.19.441,TranslationElicitation_eng-prolific,3.2.4,Win32,60,5c41d2152b3f33000107545e,,1,0,81,8,1,80
,,,,,,,,,,,,,,,,,,,,,,,,,,,,,,,,,,,,,,,,,k,2.282000065,BOOK,FALSE,,,,,,,113,boca,Catalan,Sounds/cat_boca.mp3,2020-06-12_20h54.19.441,TranslationElicitation_eng-prolific,3.2.4,Win32,60,5c41d2152b3f33000107545e,,1,0,81,8,1,80
,,,,,,,,,,,,,,,,,,,,,,,,,,,,,,,,,,,,,,,,,return,2.497999907,BOOK,FALSE,,,,,,,113,boca,Catalan,Sounds/cat_boca.mp3,2020-06-12_20h54.19.441,TranslationElicitation_eng-prolific,3.2.4,Win32,60,5c41d2152b3f33000107545e,2.497999907,1,0,81,8,1,80
,,,,,,,,,,,,,,,,,,,,,,,,,,,,,,,,,,,,,,,,,,,,,,,,,,,113,boca,Catalan,Sounds/cat_boca.mp3,2020-06-12_20h54.19.441,TranslationElicitation_eng-prolific,3.2.4,Win32,60,5c41d2152b3f33000107545e,,1,0,81,8,1,80
,,,,,,,,,,,,,,,,,,,,,,,,,,,,,,,,,,,,,,,,,l,2.18200016,L,FALSE,,,,,,,149,llibre,Catalan,Sounds/cat_llibre.mp3,2020-06-12_20h54.19.441,TranslationElicitation_eng-prolific,3.2.4,Win32,60,5c41d2152b3f33000107545e,,1,0,81,42,1,80
,,,,,,,,,,,,,,,,,,,,,,,,,,,,,,,,,,,,,,,,,i,2.381999969,LI,FALSE,,,,,,,149,llibre,Catalan,Sounds/cat_llibre.mp3,2020-06-12_20h54.19.441,TranslationElicitation_eng-prolific,3.2.4,Win32,60,5c41d2152b3f33000107545e,,1,0,81,42,1,80
,,,,,,,,,,,,,,,,,,,,,,,,,,,,,,,,,,,,,,,,,f,2.749000072,LIF,FALSE,,,,,,,149,llibre,Catalan,Sounds/cat_llibre.mp3,2020-06-12_20h54.19.441,TranslationElicitation_eng-prolific,3.2.4,Win32,60,5c41d2152b3f33000107545e,,1,0,81,42,1,80
,,,,,,,,,,,,,,,,,,,,,,,,,,,,,,,,,,,,,,,,,e,2.86500001,LIFE,FALSE,,,,,,,149,llibre,Catalan,Sounds/cat_llibre.mp3,2020-06-12_20h54.19.441,TranslationElicitation_eng-prolific,3.2.4,Win32,60,5c41d2152b3f33000107545e,,1,0,81,42,1,80
,,,,,,,,,,,,,,,,,,,,,,,,,,,,,,,,,,,,,,,,,return,3.015000105,LIFE,FALSE,,,,,,,149,llibre,Catalan,Sounds/cat_llibre.mp3,2020-06-12_20h54.19.441,TranslationElicitation_eng-prolific,3.2.4,Win32,60,5c41d2152b3f33000107545e,3.015000105,1,0,81,42,1,80
,,,,,,,,,,,,,,,,,,,,,,,,,,,,,,,,,,,,,,,,,,,,,,,,,,,149,llibre,Catalan,Sounds/cat_llibre.mp3,2020-06-12_20h54.19.441,TranslationElicitation_eng-prolific,3.2.4,Win32,60,5c41d2152b3f33000107545e,,1,0,81,42,1,80
,,,,,,,,,,,,,,,,,,,,,,,,,,,,,,,,,,,,,,,,,h,7.511000156,H,FALSE,,,,,,,130,entrepa,Catalan,Sounds/cat_entrepa.mp3,2020-06-12_20h54.19.441,TranslationElicitation_eng-prolific,3.2.4,Win32,60,5c41d2152b3f33000107545e,,1,0,81,24,1,80
,,,,,,,,,,,,,,,,,,,,,,,,,,,,,,,,,,,,,,,,,u,7.694000006,HU,FALSE,,,,,,,130,entrepa,Catalan,Sounds/cat_entrepa.mp3,2020-06-12_20h54.19.441,TranslationElicitation_eng-prolific,3.2.4,Win32,60,5c41d2152b3f33000107545e,,1,0,81,24,1,80
,,,,,,,,,,,,,,,,,,,,,,,,,,,,,,,,,,,,,,,,,m,7.928000212,HUM,FALSE,,,,,,,130,entrepa,Catalan,Sounds/cat_entrepa.mp3,2020-06-12_20h54.19.441,TranslationElicitation_eng-prolific,3.2.4,Win32,60,5c41d2152b3f33000107545e,,1,0,81,24,1,80
,,,,,,,,,,,,,,,,,,,,,,,,,,,,,,,,,,,,,,,,,a,8.028000116,HUMA,FALSE,,,,,,,130,entrepa,Catalan,Sounds/cat_entrepa.mp3,2020-06-12_20h54.19.441,TranslationElicitation_eng-prolific,3.2.4,Win32,60,5c41d2152b3f33000107545e,,1,0,81,24,1,80
,,,,,,,,,,,,,,,,,,,,,,,,,,,,,,,,,,,,,,,,,n,8.127000093,HUMAN,FALSE,,,,,,,130,entrepa,Catalan,Sounds/cat_entrepa.mp3,2020-06-12_20h54.19.441,TranslationElicitation_eng-prolific,3.2.4,Win32,60,5c41d2152b3f33000107545e,,1,0,81,24,1,80
,,,,,,,,,,,,,,,,,,,,,,,,,,,,,,,,,,,,,,,,,return,8.444000006,HUMAN,FALSE,,,,,,,130,entrepa,Catalan,Sounds/cat_entrepa.mp3,2020-06-12_20h54.19.441,TranslationElicitation_eng-prolific,3.2.4,Win32,60,5c41d2152b3f33000107545e,8.444000006,1,0,81,24,1,80
,,,,,,,,,,,,,,,,,,,,,,,,,,,,,,,,,,,,,,,,,,,,,,,,,,,130,entrepa,Catalan,Sounds/cat_entrepa.mp3,2020-06-12_20h54.19.441,TranslationElicitation_eng-prolific,3.2.4,Win32,60,5c41d2152b3f33000107545e,,1,0,81,24,1,80
,,,,,,,,,,,,,,,,,,,,,,,,,,,,,,,,,,,,,,,,,b,1.957000017,B,FALSE,,,,,,,174,porta,Catalan,Sounds/cat_porta.mp3,2020-06-12_20h54.19.441,TranslationElicitation_eng-prolific,3.2.4,Win32,60,5c41d2152b3f33000107545e,,1,0,81,66,1,80
,,,,,,,,,,,,,,,,,,,,,,,,,,,,,,,,,,,,,,,,,o,2.084000111,BO,FALSE,,,,,,,174,porta,Catalan,Sounds/cat_porta.mp3,2020-06-12_20h54.19.441,TranslationElicitation_eng-prolific,3.2.4,Win32,60,5c41d2152b3f33000107545e,,1,0,81,66,1,80
,,,,,,,,,,,,,,,,,,,,,,,,,,,,,,,,,,,,,,,,,r,2.532000065,BOR,FALSE,,,,,,,174,porta,Catalan,Sounds/cat_porta.mp3,2020-06-12_20h54.19.441,TranslationElicitation_eng-prolific,3.2.4,Win32,60,5c41d2152b3f33000107545e,,1,0,81,66,1,80
,,,,,,,,,,,,,,,,,,,,,,,,,,,,,,,,,,,,,,,,,e,2.676000118,BORE,FALSE,,,,,,,174,porta,Catalan,Sounds/cat_porta.mp3,2020-06-12_20h54.19.441,TranslationElicitation_eng-prolific,3.2.4,Win32,60,5c41d2152b3f33000107545e,,1,0,81,66,1,80
,,,,,,,,,,,,,,,,,,,,,,,,,,,,,,,,,,,,,,,,,d,3.465000153,BORED,FALSE,,,,,,,174,porta,Catalan,Sounds/cat_porta.mp3,2020-06-12_20h54.19.441,TranslationElicitation_eng-prolific,3.2.4,Win32,60,5c41d2152b3f33000107545e,,1,0,81,66,1,80
,,,,,,,,,,,,,,,,,,,,,,,,,,,,,,,,,,,,,,,,,return,3.674000025,BORED,FALSE,,,,,,,174,porta,Catalan,Sounds/cat_porta.mp3,2020-06-12_20h54.19.441,TranslationElicitation_eng-prolific,3.2.4,Win32,60,5c41d2152b3f33000107545e,3.674000025,1,0,81,66,1,80
,,,,,,,,,,,,,,,,,,,,,,,,,,,,,,,,,,,,,,,,,,,,,,,,,,,174,porta,Catalan,Sounds/cat_porta.mp3,2020-06-12_20h54.19.441,TranslationElicitation_eng-prolific,3.2.4,Win32,60,5c41d2152b3f33000107545e,,1,0,81,66,1,80
,,,,,,,,,,,,,,,,,,,,,,,,,,,,,,,,,,,,,,,,,c,8.779000044,C,FALSE,,,,,,,136,forquilla,Catalan,Sounds/cat_forquilla.mp3,2020-06-12_20h54.19.441,TranslationElicitation_eng-prolific,3.2.4,Win32,60,5c41d2152b3f33000107545e,,1,0,81,30,1,80
,,,,,,,,,,,,,,,,,,,,,,,,,,,,,,,,,,,,,,,,,a,9.129000187,CA,FALSE,,,,,,,136,forquilla,Catalan,Sounds/cat_forquilla.mp3,2020-06-12_20h54.19.441,TranslationElicitation_eng-prolific,3.2.4,Win32,60,5c41d2152b3f33000107545e,,1,0,81,30,1,80
,,,,,,,,,,,,,,,,,,,,,,,,,,,,,,,,,,,,,,,,,t,9.196000099,CAT,FALSE,,,,,,,136,forquilla,Catalan,Sounds/cat_forquilla.mp3,2020-06-12_20h54.19.441,TranslationElicitation_eng-prolific,3.2.4,Win32,60,5c41d2152b3f33000107545e,,1,0,81,30,1,80
,,,,,,,,,,,,,,,,,,,,,,,,,,,,,,,,,,,,,,,,,return,9.629000187,CAT,FALSE,,,,,,,136,forquilla,Catalan,Sounds/cat_forquilla.mp3,2020-06-12_20h54.19.441,TranslationElicitation_eng-prolific,3.2.4,Win32,60,5c41d2152b3f33000107545e,9.629000187,1,0,81,30,1,80
,,,,,,,,,,,,,,,,,,,,,,,,,,,,,,,,,,,,,,,,,,,,,,,,,,,136,forquilla,Catalan,Sounds/cat_forquilla.mp3,2020-06-12_20h54.19.441,TranslationElicitation_eng-prolific,3.2.4,Win32,60,5c41d2152b3f33000107545e,,1,0,81,30,1,80
,,,,,,,,,,,,,,,,,,,,,,,,,,,,,,,,,,,,,,,,,d,5.612999916,D,FALSE,,,,,,,150,lloro,Catalan,Sounds/cat_lloro.mp3,2020-06-12_20h54.19.441,TranslationElicitation_eng-prolific,3.2.4,Win32,60,5c41d2152b3f33000107545e,,1,0,81,43,1,80
,,,,,,,,,,,,,,,,,,,,,,,,,,,,,,,,,,,,,,,,,o,5.714999914,DO,FALSE,,,,,,,150,lloro,Catalan,Sounds/cat_lloro.mp3,2020-06-12_20h54.19.441,TranslationElicitation_eng-prolific,3.2.4,Win32,60,5c41d2152b3f33000107545e,,1,0,81,43,1,80
,,,,,,,,,,,,,,,,,,,,,,,,,,,,,,,,,,,,,,,,,g,5.846999884,DOG,FALSE,,,,,,,150,lloro,Catalan,Sounds/cat_lloro.mp3,2020-06-12_20h54.19.441,TranslationElicitation_eng-prolific,3.2.4,Win32,60,5c41d2152b3f33000107545e,,1,0,81,43,1,80
,,,,,,,,,,,,,,,,,,,,,,,,,,,,,,,,,,,,,,,,,return,5.996999979,DOG,FALSE,,,,,,,150,lloro,Catalan,Sounds/cat_lloro.mp3,2020-06-12_20h54.19.441,TranslationElicitation_eng-prolific,3.2.4,Win32,60,5c41d2152b3f33000107545e,5.996999979,1,0,81,43,1,80
,,,,,,,,,,,,,,,,,,,,,,,,,,,,,,,,,,,,,,,,,,,,,,,,,,,150,lloro,Catalan,Sounds/cat_lloro.mp3,2020-06-12_20h54.19.441,TranslationElicitation_eng-prolific,3.2.4,Win32,60,5c41d2152b3f33000107545e,,1,0,81,43,1,80
,,,,,,,,,,,,,,,,,,,,,,,,,,,,,,,,,,,,,,,,,c,3.099000216,C,FALSE,,,,,,,139,galleda,Catalan,Sounds/cat_galleda.mp3,2020-06-12_20h54.19.441,TranslationElicitation_eng-prolific,3.2.4,Win32,60,5c41d2152b3f33000107545e,,1,0,81,33,1,80
,,,,,,,,,,,,,,,,,,,,,,,,,,,,,,,,,,,,,,,,,y,3.951000214,CY,FALSE,,,,,,,139,galleda,Catalan,Sounds/cat_galleda.mp3,2020-06-12_20h54.19.441,TranslationElicitation_eng-prolific,3.2.4,Win32,60,5c41d2152b3f33000107545e,,1,0,81,33,1,80
,,,,,,,,,,,,,,,,,,,,,,,,,,,,,,,,,,,,,,,,,backspace,4.333000183,C,TRUE,,,,,,,139,galleda,Catalan,Sounds/cat_galleda.mp3,2020-06-12_20h54.19.441,TranslationElicitation_eng-prolific,3.2.4,Win32,60,5c41d2152b3f33000107545e,,1,0,81,33,1,80
,,,,,,,,,,,,,,,,,,,,,,,,,,,,,,,,,,,,,,,,,a,4.450000048,CA,TRUE,,,,,,,139,galleda,Catalan,Sounds/cat_galleda.mp3,2020-06-12_20h54.19.441,TranslationElicitation_eng-prolific,3.2.4,Win32,60,5c41d2152b3f33000107545e,,1,0,81,33,1,80
,,,,,,,,,,,,,,,,,,,,,,,,,,,,,,,,,,,,,,,,,y,4.59800005,CAY,TRUE,,,,,,,139,galleda,Catalan,Sounds/cat_galleda.mp3,2020-06-12_20h54.19.441,TranslationElicitation_eng-prolific,3.2.4,Win32,60,5c41d2152b3f33000107545e,,1,0,81,33,1,80
,,,,,,,,,,,,,,,,,,,,,,,,,,,,,,,,,,,,,,,,,n,4.881000042,CAYN,TRUE,,,,,,,139,galleda,Catalan,Sounds/cat_galleda.mp3,2020-06-12_20h54.19.441,TranslationElicitation_eng-prolific,3.2.4,Win32,60,5c41d2152b3f33000107545e,,1,0,81,33,1,80
,,,,,,,,,,,,,,,,,,,,,,,,,,,,,,,,,,,,,,,,,backspace,5.300000191,CAY,TRUE,,,,,,,139,galleda,Catalan,Sounds/cat_galleda.mp3,2020-06-12_20h54.19.441,TranslationElicitation_eng-prolific,3.2.4,Win32,60,5c41d2152b3f33000107545e,,1,0,81,33,1,80
,,,,,,,,,,,,,,,,,,,,,,,,,,,,,,,,,,,,,,,,,e,5.448000193,CAYE,TRUE,,,,,,,139,galleda,Catalan,Sounds/cat_galleda.mp3,2020-06-12_20h54.19.441,TranslationElicitation_eng-prolific,3.2.4,Win32,60,5c41d2152b3f33000107545e,,1,0,81,33,1,80
,,,,,,,,,,,,,,,,,,,,,,,,,,,,,,,,,,,,,,,,,n,5.58100009,CAYEN,TRUE,,,,,,,139,galleda,Catalan,Sounds/cat_galleda.mp3,2020-06-12_20h54.19.441,TranslationElicitation_eng-prolific,3.2.4,Win32,60,5c41d2152b3f33000107545e,,1,0,81,33,1,80
,,,,,,,,,,,,,,,,,,,,,,,,,,,,,,,,,,,,,,,,,n,5.731000185,CAYENN,TRUE,,,,,,,139,galleda,Catalan,Sounds/cat_galleda.mp3,2020-06-12_20h54.19.441,TranslationElicitation_eng-prolific,3.2.4,Win32,60,5c41d2152b3f33000107545e,,1,0,81,33,1,80
,,,,,,,,,,,,,,,,,,,,,,,,,,,,,,,,,,,,,,,,,e,5.851999998,CAYENNE,TRUE,,,,,,,139,galleda,Catalan,Sounds/cat_galleda.mp3,2020-06-12_20h54.19.441,TranslationElicitation_eng-prolific,3.2.4,Win32,60,5c41d2152b3f33000107545e,,1,0,81,33,1,80
,,,,,,,,,,,,,,,,,,,,,,,,,,,,,,,,,,,,,,,,,return,6.031000137,CAYENNE,TRUE,,,,,,,139,galleda,Catalan,Sounds/cat_galleda.mp3,2020-06-12_20h54.19.441,TranslationElicitation_eng-prolific,3.2.4,Win32,60,5c41d2152b3f33000107545e,6.031000137,1,0,81,33,1,80
,,,,,,,,,,,,,,,,,,,,,,,,,,,,,,,,,,,,,,,,,,,,,,,,,,,139,galleda,Catalan,Sounds/cat_galleda.mp3,2020-06-12_20h54.19.441,TranslationElicitation_eng-prolific,3.2.4,Win32,60,5c41d2152b3f33000107545e,,1,0,81,33,1,80
,,,,,,,,,,,,,,,,,,,,,,,,,,,,,,,,,,,,,,,,,o,3.463999987,O,FALSE,,,,,,,186,ungla,Catalan,Sounds/cat_ungla.mp3,2020-06-12_20h54.19.441,TranslationElicitation_eng-prolific,3.2.4,Win32,60,5c41d2152b3f33000107545e,,1,0,81,77,1,80
,,,,,,,,,,,,,,,,,,,,,,,,,,,,,,,,,,,,,,,,,r,3.631999969,OR,FALSE,,,,,,,186,ungla,Catalan,Sounds/cat_ungla.mp3,2020-06-12_20h54.19.441,TranslationElicitation_eng-prolific,3.2.4,Win32,60,5c41d2152b3f33000107545e,,1,0,81,77,1,80
,,,,,,,,,,,,,,,,,,,,,,,,,,,,,,,,,,,,,,,,,d,3.846999884,ORD,FALSE,,,,,,,186,ungla,Catalan,Sounds/cat_ungla.mp3,2020-06-12_20h54.19.441,TranslationElicitation_eng-prolific,3.2.4,Win32,60,5c41d2152b3f33000107545e,,1,0,81,77,1,80
,,,,,,,,,,,,,,,,,,,,,,,,,,,,,,,,,,,,,,,,,e,4.030999899,ORDE,FALSE,,,,,,,186,ungla,Catalan,Sounds/cat_ungla.mp3,2020-06-12_20h54.19.441,TranslationElicitation_eng-prolific,3.2.4,Win32,60,5c41d2152b3f33000107545e,,1,0,81,77,1,80
,,,,,,,,,,,,,,,,,,,,,,,,,,,,,,,,,,,,,,,,,r,4.09800005,ORDER,FALSE,,,,,,,186,ungla,Catalan,Sounds/cat_ungla.mp3,2020-06-12_20h54.19.441,TranslationElicitation_eng-prolific,3.2.4,Win32,60,5c41d2152b3f33000107545e,,1,0,81,77,1,80
,,,,,,,,,,,,,,,,,,,,,,,,,,,,,,,,,,,,,,,,,return,4.217000008,ORDER,FALSE,,,,,,,186,ungla,Catalan,Sounds/cat_ungla.mp3,2020-06-12_20h54.19.441,TranslationElicitation_eng-prolific,3.2.4,Win32,60,5c41d2152b3f33000107545e,4.217000008,1,0,81,77,1,80
,,,,,,,,,,,,,,,,,,,,,,,,,,,,,,,,,,,,,,,,,,,,,,,,,,,186,ungla,Catalan,Sounds/cat_ungla.mp3,2020-06-12_20h54.19.441,TranslationElicitation_eng-prolific,3.2.4,Win32,60,5c41d2152b3f33000107545e,,1,0,81,77,1,80
,,,,,,,,,,,,,,,,,,,,,,,,,,,,,,,,,,,,,,,,,k,2.565000057,K,FALSE,,,,,,,122,casa,Catalan,Sounds/cat_casa.mp3,2020-06-12_20h54.19.441,TranslationElicitation_eng-prolific,3.2.4,Win32,60,5c41d2152b3f33000107545e,,1,0,81,17,1,80
,,,,,,,,,,,,,,,,,,,,,,,,,,,,,,,,,,,,,,,,,i,2.714999914,KI,FALSE,,,,,,,122,casa,Catalan,Sounds/cat_casa.mp3,2020-06-12_20h54.19.441,TranslationElicitation_eng-prolific,3.2.4,Win32,60,5c41d2152b3f33000107545e,,1,0,81,17,1,80
,,,,,,,,,,,,,,,,,,,,,,,,,,,,,,,,,,,,,,,,,n,2.904000044,KIN,FALSE,,,,,,,122,casa,Catalan,Sounds/cat_casa.mp3,2020-06-12_20h54.19.441,TranslationElicitation_eng-prolific,3.2.4,Win32,60,5c41d2152b3f33000107545e,,1,0,81,17,1,80
,,,,,,,,,,,,,,,,,,,,,,,,,,,,,,,,,,,,,,,,,g,2.987999916,KING,FALSE,,,,,,,122,casa,Catalan,Sounds/cat_casa.mp3,2020-06-12_20h54.19.441,TranslationElicitation_eng-prolific,3.2.4,Win32,60,5c41d2152b3f33000107545e,,1,0,81,17,1,80
,,,,,,,,,,,,,,,,,,,,,,,,,,,,,,,,,,,,,,,,,return,3.164999962,KING,FALSE,,,,,,,122,casa,Catalan,Sounds/cat_casa.mp3,2020-06-12_20h54.19.441,TranslationElicitation_eng-prolific,3.2.4,Win32,60,5c41d2152b3f33000107545e,3.164999962,1,0,81,17,1,80
,,,,,,,,,,,,,,,,,,,,,,,,,,,,,,,,,,,,,,,,,,,,,,,,,,,122,casa,Catalan,Sounds/cat_casa.mp3,2020-06-12_20h54.19.441,TranslationElicitation_eng-prolific,3.2.4,Win32,60,5c41d2152b3f33000107545e,,1,0,81,17,1,80
,,,,,,,,,,,,,,,,,,,,,,,,,,,,,,,,,,,,,,,,,f,1.499000072,F,FALSE,,,,,,,137,fulla,Catalan,Sounds/cat_fulla.mp3,2020-06-12_20h54.19.441,TranslationElicitation_eng-prolific,3.2.4,Win32,60,5c41d2152b3f33000107545e,,1,0,81,31,1,80
,,,,,,,,,,,,,,,,,,,,,,,,,,,,,,,,,,,,,,,,,o,1.598999977,FO,FALSE,,,,,,,137,fulla,Catalan,Sounds/cat_fulla.mp3,2020-06-12_20h54.19.441,TranslationElicitation_eng-prolific,3.2.4,Win32,60,5c41d2152b3f33000107545e,,1,0,81,31,1,80
,,,,,,,,,,,,,,,,,,,,,,,,,,,,,,,,,,,,,,,,,o,1.749000072,FOO,FALSE,,,,,,,137,fulla,Catalan,Sounds/cat_fulla.mp3,2020-06-12_20h54.19.441,TranslationElicitation_eng-prolific,3.2.4,Win32,60,5c41d2152b3f33000107545e,,1,0,81,31,1,80
,,,,,,,,,,,,,,,,,,,,,,,,,,,,,,,,,,,,,,,,,t,1.816999912,FOOT,FALSE,,,,,,,137,fulla,Catalan,Sounds/cat_fulla.mp3,2020-06-12_20h54.19.441,TranslationElicitation_eng-prolific,3.2.4,Win32,60,5c41d2152b3f33000107545e,,1,0,81,31,1,80
,,,,,,,,,,,,,,,,,,,,,,,,,,,,,,,,,,,,,,,,,b,1.931999922,FOOTB,FALSE,,,,,,,137,fulla,Catalan,Sounds/cat_fulla.mp3,2020-06-12_20h54.19.441,TranslationElicitation_eng-prolific,3.2.4,Win32,60,5c41d2152b3f33000107545e,,1,0,81,31,1,80
,,,,,,,,,,,,,,,,,,,,,,,,,,,,,,,,,,,,,,,,,a,2.717000008,FOOTBA,FALSE,,,,,,,137,fulla,Catalan,Sounds/cat_fulla.mp3,2020-06-12_20h54.19.441,TranslationElicitation_eng-prolific,3.2.4,Win32,60,5c41d2152b3f33000107545e,,1,0,81,31,1,80
,,,,,,,,,,,,,,,,,,,,,,,,,,,,,,,,,,,,,,,,,l,2.816999912,FOOTBAL,FALSE,,,,,,,137,fulla,Catalan,Sounds/cat_fulla.mp3,2020-06-12_20h54.19.441,TranslationElicitation_eng-prolific,3.2.4,Win32,60,5c41d2152b3f33000107545e,,1,0,81,31,1,80
,,,,,,,,,,,,,,,,,,,,,,,,,,,,,,,,,,,,,,,,,l,2.947999954,FOOTBALL,FALSE,,,,,,,137,fulla,Catalan,Sounds/cat_fulla.mp3,2020-06-12_20h54.19.441,TranslationElicitation_eng-prolific,3.2.4,Win32,60,5c41d2152b3f33000107545e,,1,0,81,31,1,80
,,,,,,,,,,,,,,,,,,,,,,,,,,,,,,,,,,,,,,,,,return,3.222000122,FOOTBALL,FALSE,,,,,,,137,fulla,Catalan,Sounds/cat_fulla.mp3,2020-06-12_20h54.19.441,TranslationElicitation_eng-prolific,3.2.4,Win32,60,5c41d2152b3f33000107545e,3.222000122,1,0,81,31,1,80
,,,,,,,,,,,,,,,,,,,,,,,,,,,,,,,,,,,,,,,,,,,,,,,,,,,137,fulla,Catalan,Sounds/cat_fulla.mp3,2020-06-12_20h54.19.441,TranslationElicitation_eng-prolific,3.2.4,Win32,60,5c41d2152b3f33000107545e,,1,0,81,31,1,80
,,,,,,,,,,,,,,,,,,,,,,,,,,,,,,,,,,,,,,,,,b,2.729000092,B,FALSE,,,,,,,172,poma,Catalan,Sounds/cat_poma.mp3,2020-06-12_20h54.19.441,TranslationElicitation_eng-prolific,3.2.4,Win32,60,5c41d2152b3f33000107545e,,1,0,81,64,1,80
,,,,,,,,,,,,,,,,,,,,,,,,,,,,,,,,,,,,,,,,,o,2.996000051,BO,FALSE,,,,,,,172,poma,Catalan,Sounds/cat_poma.mp3,2020-06-12_20h54.19.441,TranslationElicitation_eng-prolific,3.2.4,Win32,60,5c41d2152b3f33000107545e,,1,0,81,64,1,80
,,,,,,,,,,,,,,,,,,,,,,,,,,,,,,,,,,,,,,,,,o,3.161999941,BOO,FALSE,,,,,,,172,poma,Catalan,Sounds/cat_poma.mp3,2020-06-12_20h54.19.441,TranslationElicitation_eng-prolific,3.2.4,Win32,60,5c41d2152b3f33000107545e,,1,0,81,64,1,80
,,,,,,,,,,,,,,,,,,,,,,,,,,,,,,,,,,,,,,,,,m,3.196000099,BOOM,FALSE,,,,,,,172,poma,Catalan,Sounds/cat_poma.mp3,2020-06-12_20h54.19.441,TranslationElicitation_eng-prolific,3.2.4,Win32,60,5c41d2152b3f33000107545e,,1,0,81,64,1,80
,,,,,,,,,,,,,,,,,,,,,,,,,,,,,,,,,,,,,,,,,e,3.33100009,BOOME,FALSE,,,,,,,172,poma,Catalan,Sounds/cat_poma.mp3,2020-06-12_20h54.19.441,TranslationElicitation_eng-prolific,3.2.4,Win32,60,5c41d2152b3f33000107545e,,1,0,81,64,1,80
,,,,,,,,,,,,,,,,,,,,,,,,,,,,,,,,,,,,,,,,,r,3.411999941,BOOMER,FALSE,,,,,,,172,poma,Catalan,Sounds/cat_poma.mp3,2020-06-12_20h54.19.441,TranslationElicitation_eng-prolific,3.2.4,Win32,60,5c41d2152b3f33000107545e,,1,0,81,64,1,80
,,,,,,,,,,,,,,,,,,,,,,,,,,,,,,,,,,,,,,,,,return,3.546999931,BOOMER,FALSE,,,,,,,172,poma,Catalan,Sounds/cat_poma.mp3,2020-06-12_20h54.19.441,TranslationElicitation_eng-prolific,3.2.4,Win32,60,5c41d2152b3f33000107545e,3.546999931,1,0,81,64,1,80
,,,,,,,,,,,,,,,,,,,,,,,,,,,,,,,,,,,,,,,,,,,,,,,,,,,172,poma,Catalan,Sounds/cat_poma.mp3,2020-06-12_20h54.19.441,TranslationElicitation_eng-prolific,3.2.4,Win32,60,5c41d2152b3f33000107545e,,1,0,81,64,1,80
,,,,,,,,,,,,,,,,,,,,,,,,,,,,,,,,,,,,,,,,,backspace,3.580000162,,TRUE,,,,,,,117,boto,Catalan,Sounds/cat_boto.mp3,2020-06-12_20h54.19.441,TranslationElicitation_eng-prolific,3.2.4,Win32,60,5c41d2152b3f33000107545e,,1,0,81,12,1,80
,,,,,,,,,,,,,,,,,,,,,,,,,,,,,,,,,,,,,,,,,p,3.94900012,P,TRUE,,,,,,,117,boto,Catalan,Sounds/cat_boto.mp3,2020-06-12_20h54.19.441,TranslationElicitation_eng-prolific,3.2.4,Win32,60,5c41d2152b3f33000107545e,,1,0,81,12,1,80
,,,,,,,,,,,,,,,,,,,,,,,,,,,,,,,,,,,,,,,,,l,4.08100009,PL,TRUE,,,,,,,117,boto,Catalan,Sounds/cat_boto.mp3,2020-06-12_20h54.19.441,TranslationElicitation_eng-prolific,3.2.4,Win32,60,5c41d2152b3f33000107545e,,1,0,81,12,1,80
,,,,,,,,,,,,,,,,,,,,,,,,,,,,,,,,,,,,,,,,,u,4.263000011,PLU,TRUE,,,,,,,117,boto,Catalan,Sounds/cat_boto.mp3,2020-06-12_20h54.19.441,TranslationElicitation_eng-prolific,3.2.4,Win32,60,5c41d2152b3f33000107545e,,1,0,81,12,1,80
,,,,,,,,,,,,,,,,,,,,,,,,,,,,,,,,,,,,,,,,,t,4.334000111,PLUT,TRUE,,,,,,,117,boto,Catalan,Sounds/cat_boto.mp3,2020-06-12_20h54.19.441,TranslationElicitation_eng-prolific,3.2.4,Win32,60,5c41d2152b3f33000107545e,,1,0,81,12,1,80
,,,,,,,,,,,,,,,,,,,,,,,,,,,,,,,,,,,,,,,,,o,4.463000059,PLUTO,TRUE,,,,,,,117,boto,Catalan,Sounds/cat_boto.mp3,2020-06-12_20h54.19.441,TranslationElicitation_eng-prolific,3.2.4,Win32,60,5c41d2152b3f33000107545e,,1,0,81,12,1,80
,,,,,,,,,,,,,,,,,,,,,,,,,,,,,,,,,,,,,,,,,return,4.664000034,PLUTO,TRUE,,,,,,,117,boto,Catalan,Sounds/cat_boto.mp3,2020-06-12_20h54.19.441,TranslationElicitation_eng-prolific,3.2.4,Win32,60,5c41d2152b3f33000107545e,4.664000034,1,0,81,12,1,80
,,,,,,,,,,,,,,,,,,,,,,,,,,,,,,,,,,,,,,,,,,,,,,,,,,,117,boto,Catalan,Sounds/cat_boto.mp3,2020-06-12_20h54.19.441,TranslationElicitation_eng-prolific,3.2.4,Win32,60,5c41d2152b3f33000107545e,,1,0,81,12,1,80
,,,,,,,,,,,,,,,,,,,,,,,,,,,,,,,,,,,,,,,,,c,3.726999998,C,FALSE,,,,,,,119,caixa,Catalan,Sounds/cat_caixa.mp3,2020-06-12_20h54.19.441,TranslationElicitation_eng-prolific,3.2.4,Win32,60,5c41d2152b3f33000107545e,,1,0,81,14,1,80
,,,,,,,,,,,,,,,,,,,,,,,,,,,,,,,,,,,,,,,,,a,4.00999999,CA,FALSE,,,,,,,119,caixa,Catalan,Sounds/cat_caixa.mp3,2020-06-12_20h54.19.441,TranslationElicitation_eng-prolific,3.2.4,Win32,60,5c41d2152b3f33000107545e,,1,0,81,14,1,80
,,,,,,,,,,,,,,,,,,,,,,,,,,,,,,,,,,,,,,,,,s,4.094000101,CAS,FALSE,,,,,,,119,caixa,Catalan,Sounds/cat_caixa.mp3,2020-06-12_20h54.19.441,TranslationElicitation_eng-prolific,3.2.4,Win32,60,5c41d2152b3f33000107545e,,1,0,81,14,1,80
,,,,,,,,,,,,,,,,,,,,,,,,,,,,,,,,,,,,,,,,,h,4.177999973,CASH,FALSE,,,,,,,119,caixa,Catalan,Sounds/cat_caixa.mp3,2020-06-12_20h54.19.441,TranslationElicitation_eng-prolific,3.2.4,Win32,60,5c41d2152b3f33000107545e,,1,0,81,14,1,80
,,,,,,,,,,,,,,,,,,,,,,,,,,,,,,,,,,,,,,,,,return,4.476999998,CASH,FALSE,,,,,,,119,caixa,Catalan,Sounds/cat_caixa.mp3,2020-06-12_20h54.19.441,TranslationElicitation_eng-prolific,3.2.4,Win32,60,5c41d2152b3f33000107545e,4.476999998,1,0,81,14,1,80
,,,,,,,,,,,,,,,,,,,,,,,,,,,,,,,,,,,,,,,,,,,,,,,,,,,119,caixa,Catalan,Sounds/cat_caixa.mp3,2020-06-12_20h54.19.441,TranslationElicitation_eng-prolific,3.2.4,Win32,60,5c41d2152b3f33000107545e,,1,0,81,14,1,80
,,,,,,,,,,,,,,,,,,,,,,,,,,,,,,,,,,,,,,,,,h,3.114000082,H,FALSE,,,,,,,121,camisa,Catalan,Sounds/cat_camisa.mp3,2020-06-12_20h54.19.441,TranslationElicitation_eng-prolific,3.2.4,Win32,60,5c41d2152b3f33000107545e,,1,0,81,16,1,80
,,,,,,,,,,,,,,,,,,,,,,,,,,,,,,,,,,,,,,,,,o,3.263999939,HO,FALSE,,,,,,,121,camisa,Catalan,Sounds/cat_camisa.mp3,2020-06-12_20h54.19.441,TranslationElicitation_eng-prolific,3.2.4,Win32,60,5c41d2152b3f33000107545e,,1,0,81,16,1,80
,,,,,,,,,,,,,,,,,,,,,,,,,,,,,,,,,,,,,,,,,t,3.364000082,HOT,FALSE,,,,,,,121,camisa,Catalan,Sounds/cat_camisa.mp3,2020-06-12_20h54.19.441,TranslationElicitation_eng-prolific,3.2.4,Win32,60,5c41d2152b3f33000107545e,,1,0,81,16,1,80
,,,,,,,,,,,,,,,,,,,,,,,,,,,,,,,,,,,,,,,,,e,3.433000088,HOTE,FALSE,,,,,,,121,camisa,Catalan,Sounds/cat_camisa.mp3,2020-06-12_20h54.19.441,TranslationElicitation_eng-prolific,3.2.4,Win32,60,5c41d2152b3f33000107545e,,1,0,81,16,1,80
,,,,,,,,,,,,,,,,,,,,,,,,,,,,,,,,,,,,,,,,,l,3.531000137,HOTEL,FALSE,,,,,,,121,camisa,Catalan,Sounds/cat_camisa.mp3,2020-06-12_20h54.19.441,TranslationElicitation_eng-prolific,3.2.4,Win32,60,5c41d2152b3f33000107545e,,1,0,81,16,1,80
,,,,,,,,,,,,,,,,,,,,,,,,,,,,,,,,,,,,,,,,,return,3.763999939,HOTEL,FALSE,,,,,,,121,camisa,Catalan,Sounds/cat_camisa.mp3,2020-06-12_20h54.19.441,TranslationElicitation_eng-prolific,3.2.4,Win32,60,5c41d2152b3f33000107545e,3.763999939,1,0,81,16,1,80
,,,,,,,,,,,,,,,,,,,,,,,,,,,,,,,,,,,,,,,,,,,,,,,,,,,121,camisa,Catalan,Sounds/cat_camisa.mp3,2020-06-12_20h54.19.441,TranslationElicitation_eng-prolific,3.2.4,Win32,60,5c41d2152b3f33000107545e,,1,0,81,16,1,80
,,,,,,,,,,,,,,,,,,,,,,,,,,,,,,,,,,,,,,,,,g,1.965000153,G,FALSE,,,,,,,140,gat,Catalan,Sounds/cat_gat.mp3,2020-06-12_20h54.19.441,TranslationElicitation_eng-prolific,3.2.4,Win32,60,5c41d2152b3f33000107545e,,1,0,81,34,1,80
,,,,,,,,,,,,,,,,,,,,,,,,,,,,,,,,,,,,,,,,,o,2.032000065,GO,FALSE,,,,,,,140,gat,Catalan,Sounds/cat_gat.mp3,2020-06-12_20h54.19.441,TranslationElicitation_eng-prolific,3.2.4,Win32,60,5c41d2152b3f33000107545e,,1,0,81,34,1,80
,,,,,,,,,,,,,,,,,,,,,,,,,,,,,,,,,,,,,,,,,d,2.232000113,GOD,FALSE,,,,,,,140,gat,Catalan,Sounds/cat_gat.mp3,2020-06-12_20h54.19.441,TranslationElicitation_eng-prolific,3.2.4,Win32,60,5c41d2152b3f33000107545e,,1,0,81,34,1,80
,,,,,,,,,,,,,,,,,,,,,,,,,,,,,,,,,,,,,,,,,return,2.282000065,GOD,FALSE,,,,,,,140,gat,Catalan,Sounds/cat_gat.mp3,2020-06-12_20h54.19.441,TranslationElicitation_eng-prolific,3.2.4,Win32,60,5c41d2152b3f33000107545e,2.282000065,1,0,81,34,1,80
,,,,,,,,,,,,,,,,,,,,,,,,,,,,,,,,,,,,,,,,,,,,,,,,,,,140,gat,Catalan,Sounds/cat_gat.mp3,2020-06-12_20h54.19.441,TranslationElicitation_eng-prolific,3.2.4,Win32,60,5c41d2152b3f33000107545e,,1,0,81,34,1,80
,,,,,,,,,,,,,,,,,,,,,,,,,,,,,,,,,,,,,,,,,m,2.013000011,M,FALSE,,,,,,,154,mirall,Catalan,Sounds/cat_mirall.mp3,2020-06-12_20h54.19.441,TranslationElicitation_eng-prolific,3.2.4,Win32,60,5c41d2152b3f33000107545e,,1,0,81,47,1,80
,,,,,,,,,,,,,,,,,,,,,,,,,,,,,,,,,,,,,,,,,i,2.095000029,MI,FALSE,,,,,,,154,mirall,Catalan,Sounds/cat_mirall.mp3,2020-06-12_20h54.19.441,TranslationElicitation_eng-prolific,3.2.4,Win32,60,5c41d2152b3f33000107545e,,1,0,81,47,1,80
,,,,,,,,,,,,,,,,,,,,,,,,,,,,,,,,,,,,,,,,,r,2.128000021,MIR,FALSE,,,,,,,154,mirall,Catalan,Sounds/cat_mirall.mp3,2020-06-12_20h54.19.441,TranslationElicitation_eng-prolific,3.2.4,Win32,60,5c41d2152b3f33000107545e,,1,0,81,47,1,80
,,,,,,,,,,,,,,,,,,,,,,,,,,,,,,,,,,,,,,,,,a,2.311000109,MIRA,FALSE,,,,,,,154,mirall,Catalan,Sounds/cat_mirall.mp3,2020-06-12_20h54.19.441,TranslationElicitation_eng-prolific,3.2.4,Win32,60,5c41d2152b3f33000107545e,,1,0,81,47,1,80
,,,,,,,,,,,,,,,,,,,,,,,,,,,,,,,,,,,,,,,,,c,3.031000137,MIRAC,FALSE,,,,,,,154,mirall,Catalan,Sounds/cat_mirall.mp3,2020-06-12_20h54.19.441,TranslationElicitation_eng-prolific,3.2.4,Win32,60,5c41d2152b3f33000107545e,,1,0,81,47,1,80
,,,,,,,,,,,,,,,,,,,,,,,,,,,,,,,,,,,,,,,,,l,3.177000046,MIRACL,FALSE,,,,,,,154,mirall,Catalan,Sounds/cat_mirall.mp3,2020-06-12_20h54.19.441,TranslationElicitation_eng-prolific,3.2.4,Win32,60,5c41d2152b3f33000107545e,,1,0,81,47,1,80
,,,,,,,,,,,,,,,,,,,,,,,,,,,,,,,,,,,,,,,,,e,3.277000189,MIRACLE,FALSE,,,,,,,154,mirall,Catalan,Sounds/cat_mirall.mp3,2020-06-12_20h54.19.441,TranslationElicitation_eng-prolific,3.2.4,Win32,60,5c41d2152b3f33000107545e,,1,0,81,47,1,80
,,,,,,,,,,,,,,,,,,,,,,,,,,,,,,,,,,,,,,,,,return,3.79700017,MIRACLE,FALSE,,,,,,,154,mirall,Catalan,Sounds/cat_mirall.mp3,2020-06-12_20h54.19.441,TranslationElicitation_eng-prolific,3.2.4,Win32,60,5c41d2152b3f33000107545e,3.79700017,1,0,81,47,1,80
,,,,,,,,,,,,,,,,,,,,,,,,,,,,,,,,,,,,,,,,,,,,,,,,,,,154,mirall,Catalan,Sounds/cat_mirall.mp3,2020-06-12_20h54.19.441,TranslationElicitation_eng-prolific,3.2.4,Win32,60,5c41d2152b3f33000107545e,,1,0,81,47,1,80
,,,,,,,,,,,,,,,,,,,,,,,,,,,,,,,,,,,,,,,,,m,1.830000162,M,FALSE,,,,,,,151,lluna,Catalan,Sounds/cat_lluna.mp3,2020-06-12_20h54.19.441,TranslationElicitation_eng-prolific,3.2.4,Win32,60,5c41d2152b3f33000107545e,,1,0,81,44,1,80
,,,,,,,,,,,,,,,,,,,,,,,,,,,,,,,,,,,,,,,,,o,1.979000092,MO,FALSE,,,,,,,151,lluna,Catalan,Sounds/cat_lluna.mp3,2020-06-12_20h54.19.441,TranslationElicitation_eng-prolific,3.2.4,Win32,60,5c41d2152b3f33000107545e,,1,0,81,44,1,80
,,,,,,,,,,,,,,,,,,,,,,,,,,,,,,,,,,,,,,,,,o,2.113000154,MOO,FALSE,,,,,,,151,lluna,Catalan,Sounds/cat_lluna.mp3,2020-06-12_20h54.19.441,TranslationElicitation_eng-prolific,3.2.4,Win32,60,5c41d2152b3f33000107545e,,1,0,81,44,1,80
,,,,,,,,,,,,,,,,,,,,,,,,,,,,,,,,,,,,,,,,,n,2.164000034,MOON,FALSE,,,,,,,151,lluna,Catalan,Sounds/cat_lluna.mp3,2020-06-12_20h54.19.441,TranslationElicitation_eng-prolific,3.2.4,Win32,60,5c41d2152b3f33000107545e,,1,0,81,44,1,80
,,,,,,,,,,,,,,,,,,,,,,,,,,,,,,,,,,,,,,,,,return,2.462000132,MOON,FALSE,,,,,,,151,lluna,Catalan,Sounds/cat_lluna.mp3,2020-06-12_20h54.19.441,TranslationElicitation_eng-prolific,3.2.4,Win32,60,5c41d2152b3f33000107545e,2.462000132,1,0,81,44,1,80
,,,,,,,,,,,,,,,,,,,,,,,,,,,,,,,,,,,,,,,,,,,,,,,,,,,151,lluna,Catalan,Sounds/cat_lluna.mp3,2020-06-12_20h54.19.441,TranslationElicitation_eng-prolific,3.2.4,Win32,60,5c41d2152b3f33000107545e,,1,0,81,44,1,80
,,,,,,,,,,,,,,,,,,,,,,,,,,,,,,,,,,,,,,,,,c,2.184000015,C,FALSE,,,,,,,128,cuc,Catalan,Sounds/cat_cuc.mp3,2020-06-12_20h54.19.441,TranslationElicitation_eng-prolific,3.2.4,Win32,60,5c41d2152b3f33000107545e,,1,0,81,22,1,80
,,,,,,,,,,,,,,,,,,,,,,,,,,,,,,,,,,,,,,,,,o,2.253999949,CO,FALSE,,,,,,,128,cuc,Catalan,Sounds/cat_cuc.mp3,2020-06-12_20h54.19.441,TranslationElicitation_eng-prolific,3.2.4,Win32,60,5c41d2152b3f33000107545e,,1,0,81,22,1,80
,,,,,,,,,,,,,,,,,,,,,,,,,,,,,,,,,,,,,,,,,k,2.415999889,COK,FALSE,,,,,,,128,cuc,Catalan,Sounds/cat_cuc.mp3,2020-06-12_20h54.19.441,TranslationElicitation_eng-prolific,3.2.4,Win32,60,5c41d2152b3f33000107545e,,1,0,81,22,1,80
,,,,,,,,,,,,,,,,,,,,,,,,,,,,,,,,,,,,,,,,,e,2.481999874,COKE,FALSE,,,,,,,128,cuc,Catalan,Sounds/cat_cuc.mp3,2020-06-12_20h54.19.441,TranslationElicitation_eng-prolific,3.2.4,Win32,60,5c41d2152b3f33000107545e,,1,0,81,22,1,80
,,,,,,,,,,,,,,,,,,,,,,,,,,,,,,,,,,,,,,,,,return,2.598999977,COKE,FALSE,,,,,,,128,cuc,Catalan,Sounds/cat_cuc.mp3,2020-06-12_20h54.19.441,TranslationElicitation_eng-prolific,3.2.4,Win32,60,5c41d2152b3f33000107545e,2.598999977,1,0,81,22,1,80
,,,,,,,,,,,,,,,,,,,,,,,,,,,,,,,,,,,,,,,,,,,,,,,,,,,128,cuc,Catalan,Sounds/cat_cuc.mp3,2020-06-12_20h54.19.441,TranslationElicitation_eng-prolific,3.2.4,Win32,60,5c41d2152b3f33000107545e,,1,0,81,22,1,80
,,,,,,,,,,,,,,,,,,,,,,,,,,,,,,,,,,,,,,,,,d,2.664999962,D,FALSE,,,,,,,129,dit,Catalan,Sounds/cat_dit.mp3,2020-06-12_20h54.19.441,TranslationElicitation_eng-prolific,3.2.4,Win32,60,5c41d2152b3f33000107545e,,1,0,81,23,1,80
,,,,,,,,,,,,,,,,,,,,,,,,,,,,,,,,,,,,,,,,,e,2.832000017,DE,FALSE,,,,,,,129,dit,Catalan,Sounds/cat_dit.mp3,2020-06-12_20h54.19.441,TranslationElicitation_eng-prolific,3.2.4,Win32,60,5c41d2152b3f33000107545e,,1,0,81,23,1,80
,,,,,,,,,,,,,,,,,,,,,,,,,,,,,,,,,,,,,,,,,a,2.983999968,DEA,FALSE,,,,,,,129,dit,Catalan,Sounds/cat_dit.mp3,2020-06-12_20h54.19.441,TranslationElicitation_eng-prolific,3.2.4,Win32,60,5c41d2152b3f33000107545e,,1,0,81,23,1,80
,,,,,,,,,,,,,,,,,,,,,,,,,,,,,,,,,,,,,,,,,d,3.09800005,DEAD,FALSE,,,,,,,129,dit,Catalan,Sounds/cat_dit.mp3,2020-06-12_20h54.19.441,TranslationElicitation_eng-prolific,3.2.4,Win32,60,5c41d2152b3f33000107545e,,1,0,81,23,1,80
,,,,,,,,,,,,,,,,,,,,,,,,,,,,,,,,,,,,,,,,,return,3.398000002,DEAD,FALSE,,,,,,,129,dit,Catalan,Sounds/cat_dit.mp3,2020-06-12_20h54.19.441,TranslationElicitation_eng-prolific,3.2.4,Win32,60,5c41d2152b3f33000107545e,3.398000002,1,0,81,23,1,80
,,,,,,,,,,,,,,,,,,,,,,,,,,,,,,,,,,,,,,,,,,,,,,,,,,,129,dit,Catalan,Sounds/cat_dit.mp3,2020-06-12_20h54.19.441,TranslationElicitation_eng-prolific,3.2.4,Win32,60,5c41d2152b3f33000107545e,,1,0,81,23,1,80
,,,,,,,,,,,,,,,,,,,,,,,,,,,,,,,,,,,,,,,,,e,2.213000059,E,FALSE,,,,,,,105,aigua,Catalan,Sounds/cat_aigua.mp3,2020-06-12_20h54.19.441,TranslationElicitation_eng-prolific,3.2.4,Win32,60,5c41d2152b3f33000107545e,,1,0,81,1,1,80
,,,,,,,,,,,,,,,,,,,,,,,,,,,,,,,,,,,,,,,,,y,2.266000032,EY,FALSE,,,,,,,105,aigua,Catalan,Sounds/cat_aigua.mp3,2020-06-12_20h54.19.441,TranslationElicitation_eng-prolific,3.2.4,Win32,60,5c41d2152b3f33000107545e,,1,0,81,1,1,80
,,,,,,,,,,,,,,,,,,,,,,,,,,,,,,,,,,,,,,,,,e,2.413000107,EYE,FALSE,,,,,,,105,aigua,Catalan,Sounds/cat_aigua.mp3,2020-06-12_20h54.19.441,TranslationElicitation_eng-prolific,3.2.4,Win32,60,5c41d2152b3f33000107545e,,1,0,81,1,1,80
,,,,,,,,,,,,,,,,,,,,,,,,,,,,,,,,,,,,,,,,,b,2.499000072,EYEB,FALSE,,,,,,,105,aigua,Catalan,Sounds/cat_aigua.mp3,2020-06-12_20h54.19.441,TranslationElicitation_eng-prolific,3.2.4,Win32,60,5c41d2152b3f33000107545e,,1,0,81,1,1,80
,,,,,,,,,,,,,,,,,,,,,,,,,,,,,,,,,,,,,,,,,a,2.713000059,EYEBA,FALSE,,,,,,,105,aigua,Catalan,Sounds/cat_aigua.mp3,2020-06-12_20h54.19.441,TranslationElicitation_eng-prolific,3.2.4,Win32,60,5c41d2152b3f33000107545e,,1,0,81,1,1,80
,,,,,,,,,,,,,,,,,,,,,,,,,,,,,,,,,,,,,,,,,l,3.298000097,EYEBAL,FALSE,,,,,,,105,aigua,Catalan,Sounds/cat_aigua.mp3,2020-06-12_20h54.19.441,TranslationElicitation_eng-prolific,3.2.4,Win32,60,5c41d2152b3f33000107545e,,1,0,81,1,1,80
,,,,,,,,,,,,,,,,,,,,,,,,,,,,,,,,,,,,,,,,,l,3.430000067,EYEBALL,FALSE,,,,,,,105,aigua,Catalan,Sounds/cat_aigua.mp3,2020-06-12_20h54.19.441,TranslationElicitation_eng-prolific,3.2.4,Win32,60,5c41d2152b3f33000107545e,,1,0,81,1,1,80
,,,,,,,,,,,,,,,,,,,,,,,,,,,,,,,,,,,,,,,,,return,3.679000139,EYEBALL,FALSE,,,,,,,105,aigua,Catalan,Sounds/cat_aigua.mp3,2020-06-12_20h54.19.441,TranslationElicitation_eng-prolific,3.2.4,Win32,60,5c41d2152b3f33000107545e,3.679000139,1,0,81,1,1,80
,,,,,,,,,,,,,,,,,,,,,,,,,,,,,,,,,,,,,,,,,,,,,,,,,,,105,aigua,Catalan,Sounds/cat_aigua.mp3,2020-06-12_20h54.19.441,TranslationElicitation_eng-prolific,3.2.4,Win32,60,5c41d2152b3f33000107545e,,1,0,81,1,1,80
,,,,,,,,,,,,,,,,,,,,,,,,,,,,,,,,,,,,,,,,,b,2.305000067,B,FALSE,,,,,,,169,plat,Catalan,Sounds/cat_plat.mp3,2020-06-12_20h54.19.441,TranslationElicitation_eng-prolific,3.2.4,Win32,60,5c41d2152b3f33000107545e,,1,0,81,61,1,80
,,,,,,,,,,,,,,,,,,,,,,,,,,,,,,,,,,,,,,,,,l,2.40199995,BL,FALSE,,,,,,,169,plat,Catalan,Sounds/cat_plat.mp3,2020-06-12_20h54.19.441,TranslationElicitation_eng-prolific,3.2.4,Win32,60,5c41d2152b3f33000107545e,,1,0,81,61,1,80
,,,,,,,,,,,,,,,,,,,,,,,,,,,,,,,,,,,,,,,,,o,2.747999907,BLO,FALSE,,,,,,,169,plat,Catalan,Sounds/cat_plat.mp3,2020-06-12_20h54.19.441,TranslationElicitation_eng-prolific,3.2.4,Win32,60,5c41d2152b3f33000107545e,,1,0,81,61,1,80
,,,,,,,,,,,,,,,,,,,,,,,,,,,,,,,,,,,,,,,,,o,2.881999969,BLOO,FALSE,,,,,,,169,plat,Catalan,Sounds/cat_plat.mp3,2020-06-12_20h54.19.441,TranslationElicitation_eng-prolific,3.2.4,Win32,60,5c41d2152b3f33000107545e,,1,0,81,61,1,80
,,,,,,,,,,,,,,,,,,,,,,,,,,,,,,,,,,,,,,,,,d,2.951999903,BLOOD,FALSE,,,,,,,169,plat,Catalan,Sounds/cat_plat.mp3,2020-06-12_20h54.19.441,TranslationElicitation_eng-prolific,3.2.4,Win32,60,5c41d2152b3f33000107545e,,1,0,81,61,1,80
,,,,,,,,,,,,,,,,,,,,,,,,,,,,,,,,,,,,,,,,,return,3.134000063,BLOOD,FALSE,,,,,,,169,plat,Catalan,Sounds/cat_plat.mp3,2020-06-12_20h54.19.441,TranslationElicitation_eng-prolific,3.2.4,Win32,60,5c41d2152b3f33000107545e,3.134000063,1,0,81,61,1,80
,,,,,,,,,,,,,,,,,,,,,,,,,,,,,,,,,,,,,,,,,,,,,,,,,,,169,plat,Catalan,Sounds/cat_plat.mp3,2020-06-12_20h54.19.441,TranslationElicitation_eng-prolific,3.2.4,Win32,60,5c41d2152b3f33000107545e,,1,0,81,61,1,80
,,,,,,,,,,,,,,,,,,,,,,,,,,,,,,,,,,,,,,,,,b,5.01699996,B,FALSE,,,,,,,111,bibero,Catalan,Sounds/cat_bibero.mp3,2020-06-12_20h54.19.441,TranslationElicitation_eng-prolific,3.2.4,Win32,60,5c41d2152b3f33000107545e,,1,0,81,6,1,80
,,,,,,,,,,,,,,,,,,,,,,,,,,,,,,,,,,,,,,,,,a,5.180000067,BA,FALSE,,,,,,,111,bibero,Catalan,Sounds/cat_bibero.mp3,2020-06-12_20h54.19.441,TranslationElicitation_eng-prolific,3.2.4,Win32,60,5c41d2152b3f33000107545e,,1,0,81,6,1,80
,,,,,,,,,,,,,,,,,,,,,,,,,,,,,,,,,,,,,,,,,b,5.263000011,BAB,FALSE,,,,,,,111,bibero,Catalan,Sounds/cat_bibero.mp3,2020-06-12_20h54.19.441,TranslationElicitation_eng-prolific,3.2.4,Win32,60,5c41d2152b3f33000107545e,,1,0,81,6,1,80
,,,,,,,,,,,,,,,,,,,,,,,,,,,,,,,,,,,,,,,,,y,5.380000114,BABY,FALSE,,,,,,,111,bibero,Catalan,Sounds/cat_bibero.mp3,2020-06-12_20h54.19.441,TranslationElicitation_eng-prolific,3.2.4,Win32,60,5c41d2152b3f33000107545e,,1,0,81,6,1,80
,,,,,,,,,,,,,,,,,,,,,,,,,,,,,,,,,,,,,,,,,return,5.713999987,BABY,FALSE,,,,,,,111,bibero,Catalan,Sounds/cat_bibero.mp3,2020-06-12_20h54.19.441,TranslationElicitation_eng-prolific,3.2.4,Win32,60,5c41d2152b3f33000107545e,5.713999987,1,0,81,6,1,80
,,,,,,,,,,,,,,,,,,,,,,,,,,,,,,,,,,,,,,,,,,,,,,,,,,,111,bibero,Catalan,Sounds/cat_bibero.mp3,2020-06-12_20h54.19.441,TranslationElicitation_eng-prolific,3.2.4,Win32,60,5c41d2152b3f33000107545e,,1,0,81,6,1,80
,,,,,,,,,,,,,,,,,,,,,,,,,,,,,,,,,,,,,,,,,k,3.23300004,K,FALSE,,,,,,,120,cama,Catalan,Sounds/cat_cama.mp3,2020-06-12_20h54.19.441,TranslationElicitation_eng-prolific,3.2.4,Win32,60,5c41d2152b3f33000107545e,,1,0,81,15,1,80
,,,,,,,,,,,,,,,,,,,,,,,,,,,,,,,,,,,,,,,,,backspace,4.38499999,,TRUE,,,,,,,120,cama,Catalan,Sounds/cat_cama.mp3,2020-06-12_20h54.19.441,TranslationElicitation_eng-prolific,3.2.4,Win32,60,5c41d2152b3f33000107545e,,1,0,81,15,1,80
,,,,,,,,,,,,,,,,,,,,,,,,,,,,,,,,,,,,,,,,,c,4.55099988,C,TRUE,,,,,,,120,cama,Catalan,Sounds/cat_cama.mp3,2020-06-12_20h54.19.441,TranslationElicitation_eng-prolific,3.2.4,Win32,60,5c41d2152b3f33000107545e,,1,0,81,15,1,80
,,,,,,,,,,,,,,,,,,,,,,,,,,,,,,,,,,,,,,,,,u,4.664000034,CU,TRUE,,,,,,,120,cama,Catalan,Sounds/cat_cama.mp3,2020-06-12_20h54.19.441,TranslationElicitation_eng-prolific,3.2.4,Win32,60,5c41d2152b3f33000107545e,,1,0,81,15,1,80
,,,,,,,,,,,,,,,,,,,,,,,,,,,,,,,,,,,,,,,,,r,4.830999851,CUR,TRUE,,,,,,,120,cama,Catalan,Sounds/cat_cama.mp3,2020-06-12_20h54.19.441,TranslationElicitation_eng-prolific,3.2.4,Win32,60,5c41d2152b3f33000107545e,,1,0,81,15,1,80
,,,,,,,,,,,,,,,,,,,,,,,,,,,,,,,,,,,,,,,,,r,5.134000063,CURR,TRUE,,,,,,,120,cama,Catalan,Sounds/cat_cama.mp3,2020-06-12_20h54.19.441,TranslationElicitation_eng-prolific,3.2.4,Win32,60,5c41d2152b3f33000107545e,,1,0,81,15,1,80
,,,,,,,,,,,,,,,,,,,,,,,,,,,,,,,,,,,,,,,,,y,5.330999851,CURRY,TRUE,,,,,,,120,cama,Catalan,Sounds/cat_cama.mp3,2020-06-12_20h54.19.441,TranslationElicitation_eng-prolific,3.2.4,Win32,60,5c41d2152b3f33000107545e,,1,0,81,15,1,80
,,,,,,,,,,,,,,,,,,,,,,,,,,,,,,,,,,,,,,,,,return,5.664000034,CURRY,TRUE,,,,,,,120,cama,Catalan,Sounds/cat_cama.mp3,2020-06-12_20h54.19.441,TranslationElicitation_eng-prolific,3.2.4,Win32,60,5c41d2152b3f33000107545e,5.664000034,1,0,81,15,1,80
,,,,,,,,,,,,,,,,,,,,,,,,,,,,,,,,,,,,,,,,,,,,,,,,,,,120,cama,Catalan,Sounds/cat_cama.mp3,2020-06-12_20h54.19.441,TranslationElicitation_eng-prolific,3.2.4,Win32,60,5c41d2152b3f33000107545e,,1,0,81,15,1,80
,,,,,,,,,,,,,,,,,,,,,,,,,,,,,,,,,,,,,,,,,z,3.414999962,Z,FALSE,,,,,,,189,zebra,Catalan,Sounds/cat_zebra.mp3,2020-06-12_20h54.19.441,TranslationElicitation_eng-prolific,3.2.4,Win32,60,5c41d2152b3f33000107545e,,1,0,81,80,1,80
,,,,,,,,,,,,,,,,,,,,,,,,,,,,,,,,,,,,,,,,,e,3.964999914,ZE,FALSE,,,,,,,189,zebra,Catalan,Sounds/cat_zebra.mp3,2020-06-12_20h54.19.441,TranslationElicitation_eng-prolific,3.2.4,Win32,60,5c41d2152b3f33000107545e,,1,0,81,80,1,80
,,,,,,,,,,,,,,,,,,,,,,,,,,,,,,,,,,,,,,,,,b,4.11500001,ZEB,FALSE,,,,,,,189,zebra,Catalan,Sounds/cat_zebra.mp3,2020-06-12_20h54.19.441,TranslationElicitation_eng-prolific,3.2.4,Win32,60,5c41d2152b3f33000107545e,,1,0,81,80,1,80
,,,,,,,,,,,,,,,,,,,,,,,,,,,,,,,,,,,,,,,,,r,4.232999802,ZEBR,FALSE,,,,,,,189,zebra,Catalan,Sounds/cat_zebra.mp3,2020-06-12_20h54.19.441,TranslationElicitation_eng-prolific,3.2.4,Win32,60,5c41d2152b3f33000107545e,,1,0,81,80,1,80
,,,,,,,,,,,,,,,,,,,,,,,,,,,,,,,,,,,,,,,,,a,4.415999889,ZEBRA,FALSE,,,,,,,189,zebra,Catalan,Sounds/cat_zebra.mp3,2020-06-12_20h54.19.441,TranslationElicitation_eng-prolific,3.2.4,Win32,60,5c41d2152b3f33000107545e,,1,0,81,80,1,80
,,,,,,,,,,,,,,,,,,,,,,,,,,,,,,,,,,,,,,,,,return,5.313999891,ZEBRA,FALSE,,,,,,,189,zebra,Catalan,Sounds/cat_zebra.mp3,2020-06-12_20h54.19.441,TranslationElicitation_eng-prolific,3.2.4,Win32,60,5c41d2152b3f33000107545e,5.313999891,1,0,81,80,1,80
,,,,,,,,,,,,,,,,,,,,,,,,,,,,,,,,,,,,,,,,,,,,,,,,,,,189,zebra,Catalan,Sounds/cat_zebra.mp3,2020-06-12_20h54.19.441,TranslationElicitation_eng-prolific,3.2.4,Win32,60,5c41d2152b3f33000107545e,,1,0,81,80,1,80
,,,,,,,,,,,,,,,,,,,,,,,,,,,,,,,,,,,,,,,,,p,5.930000067,P,FALSE,,,,,,,115,bolet,Catalan,Sounds/cat_bolet.mp3,2020-06-12_20h54.19.441,TranslationElicitation_eng-prolific,3.2.4,Win32,60,5c41d2152b3f33000107545e,,1,0,81,10,1,80
,,,,,,,,,,,,,,,,,,,,,,,,,,,,,,,,,,,,,,,,,backspace,6.365999937,,TRUE,,,,,,,115,bolet,Catalan,Sounds/cat_bolet.mp3,2020-06-12_20h54.19.441,TranslationElicitation_eng-prolific,3.2.4,Win32,60,5c41d2152b3f33000107545e,,1,0,81,10,1,80
,,,,,,,,,,,,,,,,,,,,,,,,,,,,,,,,,,,,,,,,,b,17.34200001,B,TRUE,,,,,,,115,bolet,Catalan,Sounds/cat_bolet.mp3,2020-06-12_20h54.19.441,TranslationElicitation_eng-prolific,3.2.4,Win32,60,5c41d2152b3f33000107545e,,1,0,81,10,1,80
,,,,,,,,,,,,,,,,,,,,,,,,,,,,,,,,,,,,,,,,,a,17.45799994,BA,TRUE,,,,,,,115,bolet,Catalan,Sounds/cat_bolet.mp3,2020-06-12_20h54.19.441,TranslationElicitation_eng-prolific,3.2.4,Win32,60,5c41d2152b3f33000107545e,,1,0,81,10,1,80
,,,,,,,,,,,,,,,,,,,,,,,,,,,,,,,,,,,,,,,,,k,17.54100013,BAK,TRUE,,,,,,,115,bolet,Catalan,Sounds/cat_bolet.mp3,2020-06-12_20h54.19.441,TranslationElicitation_eng-prolific,3.2.4,Win32,60,5c41d2152b3f33000107545e,,1,0,81,10,1,80
,,,,,,,,,,,,,,,,,,,,,,,,,,,,,,,,,,,,,,,,,i,17.7249999,BAKI,TRUE,,,,,,,115,bolet,Catalan,Sounds/cat_bolet.mp3,2020-06-12_20h54.19.441,TranslationElicitation_eng-prolific,3.2.4,Win32,60,5c41d2152b3f33000107545e,,1,0,81,10,1,80
,,,,,,,,,,,,,,,,,,,,,,,,,,,,,,,,,,,,,,,,,n,17.75800014,BAKIN,TRUE,,,,,,,115,bolet,Catalan,Sounds/cat_bolet.mp3,2020-06-12_20h54.19.441,TranslationElicitation_eng-prolific,3.2.4,Win32,60,5c41d2152b3f33000107545e,,1,0,81,10,1,80
,,,,,,,,,,,,,,,,,,,,,,,,,,,,,,,,,,,,,,,,,g,17.84100008,BAKING,TRUE,,,,,,,115,bolet,Catalan,Sounds/cat_bolet.mp3,2020-06-12_20h54.19.441,TranslationElicitation_eng-prolific,3.2.4,Win32,60,5c41d2152b3f33000107545e,,1,0,81,10,1,80
,,,,,,,,,,,,,,,,,,,,,,,,,,,,,,,,,,,,,,,,,return,18.02699995,BAKING,TRUE,,,,,,,115,bolet,Catalan,Sounds/cat_bolet.mp3,2020-06-12_20h54.19.441,TranslationElicitation_eng-prolific,3.2.4,Win32,60,5c41d2152b3f33000107545e,18.02699995,1,0,81,10,1,80
,,,,,,,,,,,,,,,,,,,,,,,,,,,,,,,,,,,,,,,,,,,,,,,,,,,115,bolet,Catalan,Sounds/cat_bolet.mp3,2020-06-12_20h54.19.441,TranslationElicitation_eng-prolific,3.2.4,Win32,60,5c41d2152b3f33000107545e,,1,0,81,10,1,80
,,,,,,,,,,,,,,,,,,,,,,,,,,,,,,,,,,,,,,,,,n,1.582000017,N,FALSE,,,,,,,167,pingui,Catalan,Sounds/cat_pingui.mp3,2020-06-12_20h54.19.441,TranslationElicitation_eng-prolific,3.2.4,Win32,60,5c41d2152b3f33000107545e,,1,0,81,59,1,80
,,,,,,,,,,,,,,,,,,,,,,,,,,,,,,,,,,,,,,,,,g,1.682999849,NG,FALSE,,,,,,,167,pingui,Catalan,Sounds/cat_pingui.mp3,2020-06-12_20h54.19.441,TranslationElicitation_eng-prolific,3.2.4,Win32,60,5c41d2152b3f33000107545e,,1,0,81,59,1,80
,,,,,,,,,,,,,,,,,,,,,,,,,,,,,,,,,,,,,,,,,backspace,2.014999866,N,TRUE,,,,,,,167,pingui,Catalan,Sounds/cat_pingui.mp3,2020-06-12_20h54.19.441,TranslationElicitation_eng-prolific,3.2.4,Win32,60,5c41d2152b3f33000107545e,,1,0,81,59,1,80
,,,,,,,,,,,,,,,,,,,,,,,,,,,,,,,,,,,,,,,,,backspace,2.187000036,,TRUE,,,,,,,167,pingui,Catalan,Sounds/cat_pingui.mp3,2020-06-12_20h54.19.441,TranslationElicitation_eng-prolific,3.2.4,Win32,60,5c41d2152b3f33000107545e,,1,0,81,59,1,80
,,,,,,,,,,,,,,,,,,,,,,,,,,,,,,,,,,,,,,,,,p,2.347999811,P,TRUE,,,,,,,167,pingui,Catalan,Sounds/cat_pingui.mp3,2020-06-12_20h54.19.441,TranslationElicitation_eng-prolific,3.2.4,Win32,60,5c41d2152b3f33000107545e,,1,0,81,59,1,80
,,,,,,,,,,,,,,,,,,,,,,,,,,,,,,,,,,,,,,,,,e,2.414999962,PE,TRUE,,,,,,,167,pingui,Catalan,Sounds/cat_pingui.mp3,2020-06-12_20h54.19.441,TranslationElicitation_eng-prolific,3.2.4,Win32,60,5c41d2152b3f33000107545e,,1,0,81,59,1,80
,,,,,,,,,,,,,,,,,,,,,,,,,,,,,,,,,,,,,,,,,n,2.564999819,PEN,TRUE,,,,,,,167,pingui,Catalan,Sounds/cat_pingui.mp3,2020-06-12_20h54.19.441,TranslationElicitation_eng-prolific,3.2.4,Win32,60,5c41d2152b3f33000107545e,,1,0,81,59,1,80
,,,,,,,,,,,,,,,,,,,,,,,,,,,,,,,,,,,,,,,,,g,2.680999994,PENG,TRUE,,,,,,,167,pingui,Catalan,Sounds/cat_pingui.mp3,2020-06-12_20h54.19.441,TranslationElicitation_eng-prolific,3.2.4,Win32,60,5c41d2152b3f33000107545e,,1,0,81,59,1,80
,,,,,,,,,,,,,,,,,,,,,,,,,,,,,,,,,,,,,,,,,u,2.766000032,PENGU,TRUE,,,,,,,167,pingui,Catalan,Sounds/cat_pingui.mp3,2020-06-12_20h54.19.441,TranslationElicitation_eng-prolific,3.2.4,Win32,60,5c41d2152b3f33000107545e,,1,0,81,59,1,80
,,,,,,,,,,,,,,,,,,,,,,,,,,,,,,,,,,,,,,,,,i,2.866999865,PENGUI,TRUE,,,,,,,167,pingui,Catalan,Sounds/cat_pingui.mp3,2020-06-12_20h54.19.441,TranslationElicitation_eng-prolific,3.2.4,Win32,60,5c41d2152b3f33000107545e,,1,0,81,59,1,80
,,,,,,,,,,,,,,,,,,,,,,,,,,,,,,,,,,,,,,,,,n,3.030999899,PENGUIN,TRUE,,,,,,,167,pingui,Catalan,Sounds/cat_pingui.mp3,2020-06-12_20h54.19.441,TranslationElicitation_eng-prolific,3.2.4,Win32,60,5c41d2152b3f33000107545e,,1,0,81,59,1,80
,,,,,,,,,,,,,,,,,,,,,,,,,,,,,,,,,,,,,,,,,return,3.347999811,PENGUIN,TRUE,,,,,,,167,pingui,Catalan,Sounds/cat_pingui.mp3,2020-06-12_20h54.19.441,TranslationElicitation_eng-prolific,3.2.4,Win32,60,5c41d2152b3f33000107545e,3.347999811,1,0,81,59,1,80
,,,,,,,,,,,,,,,,,,,,,,,,,,,,,,,,,,,,,,,,,,,,,,,,,,,167,pingui,Catalan,Sounds/cat_pingui.mp3,2020-06-12_20h54.19.441,TranslationElicitation_eng-prolific,3.2.4,Win32,60,5c41d2152b3f33000107545e,,1,0,81,59,1,80
,,,,,,,,,,,,,,,,,,,,,,,,,,,,,,,,,,,,,,,,,a,4.815000057,A,FALSE,,,,,,,165,pernil,Catalan,Sounds/cat_pernil.mp3,2020-06-12_20h54.19.441,TranslationElicitation_eng-prolific,3.2.4,Win32,60,5c41d2152b3f33000107545e,,1,0,81,57,1,80
,,,,,,,,,,,,,,,,,,,,,,,,,,,,,,,,,,,,,,,,,backspace,5.298000097,,TRUE,,,,,,,165,pernil,Catalan,Sounds/cat_pernil.mp3,2020-06-12_20h54.19.441,TranslationElicitation_eng-prolific,3.2.4,Win32,60,5c41d2152b3f33000107545e,,1,0,81,57,1,80
,,,,,,,,,,,,,,,,,,,,,,,,,,,,,,,,,,,,,,,,,r,5.38499999,R,TRUE,,,,,,,165,pernil,Catalan,Sounds/cat_pernil.mp3,2020-06-12_20h54.19.441,TranslationElicitation_eng-prolific,3.2.4,Win32,60,5c41d2152b3f33000107545e,,1,0,81,57,1,80
,,,,,,,,,,,,,,,,,,,,,,,,,,,,,,,,,,,,,,,,,a,5.498000145,RA,TRUE,,,,,,,165,pernil,Catalan,Sounds/cat_pernil.mp3,2020-06-12_20h54.19.441,TranslationElicitation_eng-prolific,3.2.4,Win32,60,5c41d2152b3f33000107545e,,1,0,81,57,1,80
,,,,,,,,,,,,,,,,,,,,,,,,,,,,,,,,,,,,,,,,,t,5.631000042,RAT,TRUE,,,,,,,165,pernil,Catalan,Sounds/cat_pernil.mp3,2020-06-12_20h54.19.441,TranslationElicitation_eng-prolific,3.2.4,Win32,60,5c41d2152b3f33000107545e,,1,0,81,57,1,80
,,,,,,,,,,,,,,,,,,,,,,,,,,,,,,,,,,,,,,,,,return,5.733999968,RAT,TRUE,,,,,,,165,pernil,Catalan,Sounds/cat_pernil.mp3,2020-06-12_20h54.19.441,TranslationElicitation_eng-prolific,3.2.4,Win32,60,5c41d2152b3f33000107545e,5.733999968,1,0,81,57,1,80
,,,,,,,,,,,,,,,,,,,,,,,,,,,,,,,,,,,,,,,,,,,,,,,,,,,165,pernil,Catalan,Sounds/cat_pernil.mp3,2020-06-12_20h54.19.441,TranslationElicitation_eng-prolific,3.2.4,Win32,60,5c41d2152b3f33000107545e,,1,0,81,57,1,80
,,,,,,,,,,,,,,,,,,,,,,,,,,,,,,,,,,,,,,,,,h,4.414999962,H,FALSE,,,,,,,112,bici,Catalan,Sounds/cat_bici.mp3,2020-06-12_20h54.19.441,TranslationElicitation_eng-prolific,3.2.4,Win32,60,5c41d2152b3f33000107545e,,1,0,81,7,1,80
,,,,,,,,,,,,,,,,,,,,,,,,,,,,,,,,,,,,,,,,,backspace,4.766000032,,TRUE,,,,,,,112,bici,Catalan,Sounds/cat_bici.mp3,2020-06-12_20h54.19.441,TranslationElicitation_eng-prolific,3.2.4,Win32,60,5c41d2152b3f33000107545e,,1,0,81,7,1,80
,,,,,,,,,,,,,,,,,,,,,,,,,,,,,,,,,,,,,,,,,s,4.930999994,S,TRUE,,,,,,,112,bici,Catalan,Sounds/cat_bici.mp3,2020-06-12_20h54.19.441,TranslationElicitation_eng-prolific,3.2.4,Win32,60,5c41d2152b3f33000107545e,,1,0,81,7,1,80
,,,,,,,,,,,,,,,,,,,,,,,,,,,,,,,,,,,,,,,,,h,5.648000002,SH,TRUE,,,,,,,112,bici,Catalan,Sounds/cat_bici.mp3,2020-06-12_20h54.19.441,TranslationElicitation_eng-prolific,3.2.4,Win32,60,5c41d2152b3f33000107545e,,1,0,81,7,1,80
,,,,,,,,,,,,,,,,,,,,,,,,,,,,,,,,,,,,,,,,,a,5.799999952,SHA,TRUE,,,,,,,112,bici,Catalan,Sounds/cat_bici.mp3,2020-06-12_20h54.19.441,TranslationElicitation_eng-prolific,3.2.4,Win32,60,5c41d2152b3f33000107545e,,1,0,81,7,1,80
,,,,,,,,,,,,,,,,,,,,,,,,,,,,,,,,,,,,,,,,,r,5.898999929,SHAR,TRUE,,,,,,,112,bici,Catalan,Sounds/cat_bici.mp3,2020-06-12_20h54.19.441,TranslationElicitation_eng-prolific,3.2.4,Win32,60,5c41d2152b3f33000107545e,,1,0,81,7,1,80
,,,,,,,,,,,,,,,,,,,,,,,,,,,,,,,,,,,,,,,,,k,5.980999947,SHARK,TRUE,,,,,,,112,bici,Catalan,Sounds/cat_bici.mp3,2020-06-12_20h54.19.441,TranslationElicitation_eng-prolific,3.2.4,Win32,60,5c41d2152b3f33000107545e,,1,0,81,7,1,80
,,,,,,,,,,,,,,,,,,,,,,,,,,,,,,,,,,,,,,,,,return,6.26699996,SHARK,TRUE,,,,,,,112,bici,Catalan,Sounds/cat_bici.mp3,2020-06-12_20h54.19.441,TranslationElicitation_eng-prolific,3.2.4,Win32,60,5c41d2152b3f33000107545e,6.26699996,1,0,81,7,1,80
,,,,,,,,,,,,,,,,,,,,,,,,,,,,,,,,,,,,,,,,,,,,,,,,,,,112,bici,Catalan,Sounds/cat_bici.mp3,2020-06-12_20h54.19.441,TranslationElicitation_eng-prolific,3.2.4,Win32,60,5c41d2152b3f33000107545e,,1,0,81,7,1,80
,,,,,,,,,,,,,,,,,,,,,,,,,,,,,,,,,,,,,,,,,s,5.81400013,S,FALSE,,,,,,,176,samarreta,Catalan,Sounds/cat_samarreta.mp3,2020-06-12_20h54.19.441,TranslationElicitation_eng-prolific,3.2.4,Win32,60,5c41d2152b3f33000107545e,,1,0,81,68,1,80
,,,,,,,,,,,,,,,,,,,,,,,,,,,,,,,,,,,,,,,,,a,5.963999987,SA,FALSE,,,,,,,176,samarreta,Catalan,Sounds/cat_samarreta.mp3,2020-06-12_20h54.19.441,TranslationElicitation_eng-prolific,3.2.4,Win32,60,5c41d2152b3f33000107545e,,1,0,81,68,1,80
,,,,,,,,,,,,,,,,,,,,,,,,,,,,,,,,,,,,,,,,,f,6.097000122,SAF,FALSE,,,,,,,176,samarreta,Catalan,Sounds/cat_samarreta.mp3,2020-06-12_20h54.19.441,TranslationElicitation_eng-prolific,3.2.4,Win32,60,5c41d2152b3f33000107545e,,1,0,81,68,1,80
,,,,,,,,,,,,,,,,,,,,,,,,,,,,,,,,,,,,,,,,,a,6.300000191,SAFA,FALSE,,,,,,,176,samarreta,Catalan,Sounds/cat_samarreta.mp3,2020-06-12_20h54.19.441,TranslationElicitation_eng-prolific,3.2.4,Win32,60,5c41d2152b3f33000107545e,,1,0,81,68,1,80
,,,,,,,,,,,,,,,,,,,,,,,,,,,,,,,,,,,,,,,,,r,6.384000063,SAFAR,FALSE,,,,,,,176,samarreta,Catalan,Sounds/cat_samarreta.mp3,2020-06-12_20h54.19.441,TranslationElicitation_eng-prolific,3.2.4,Win32,60,5c41d2152b3f33000107545e,,1,0,81,68,1,80
,,,,,,,,,,,,,,,,,,,,,,,,,,,,,,,,,,,,,,,,,i,6.514000177,SAFARI,FALSE,,,,,,,176,samarreta,Catalan,Sounds/cat_samarreta.mp3,2020-06-12_20h54.19.441,TranslationElicitation_eng-prolific,3.2.4,Win32,60,5c41d2152b3f33000107545e,,1,0,81,68,1,80
,,,,,,,,,,,,,,,,,,,,,,,,,,,,,,,,,,,,,,,,,return,6.79700017,SAFARI,FALSE,,,,,,,176,samarreta,Catalan,Sounds/cat_samarreta.mp3,2020-06-12_20h54.19.441,TranslationElicitation_eng-prolific,3.2.4,Win32,60,5c41d2152b3f33000107545e,6.79700017,1,0,81,68,1,80
,,,,,,,,,,,,,,,,,,,,,,,,,,,,,,,,,,,,,,,,,,,,,,,,,,,176,samarreta,Catalan,Sounds/cat_samarreta.mp3,2020-06-12_20h54.19.441,TranslationElicitation_eng-prolific,3.2.4,Win32,60,5c41d2152b3f33000107545e,,1,0,81,68,1,80
,,,,,,,,,,,,,,,,,,,,,,,,,,,,,,,,,,,,,,,,,f,3.798999786,F,FALSE,,,,,,,183,tren,Catalan,Sounds/cat_tren.mp3,2020-06-12_20h54.19.441,TranslationElicitation_eng-prolific,3.2.4,Win32,60,5c41d2152b3f33000107545e,,1,0,81,74,1,80
,,,,,,,,,,,,,,,,,,,,,,,,,,,,,,,,,,,,,,,,,backspace,4.131999969,,TRUE,,,,,,,183,tren,Catalan,Sounds/cat_tren.mp3,2020-06-12_20h54.19.441,TranslationElicitation_eng-prolific,3.2.4,Win32,60,5c41d2152b3f33000107545e,,1,0,81,74,1,80
,,,,,,,,,,,,,,,,,,,,,,,,,,,,,,,,,,,,,,,,,d,4.248999834,D,TRUE,,,,,,,183,tren,Catalan,Sounds/cat_tren.mp3,2020-06-12_20h54.19.441,TranslationElicitation_eng-prolific,3.2.4,Win32,60,5c41d2152b3f33000107545e,,1,0,81,74,1,80
,,,,,,,,,,,,,,,,,,,,,,,,,,,,,,,,,,,,,,,,,r,4.380999804,DR,TRUE,,,,,,,183,tren,Catalan,Sounds/cat_tren.mp3,2020-06-12_20h54.19.441,TranslationElicitation_eng-prolific,3.2.4,Win32,60,5c41d2152b3f33000107545e,,1,0,81,74,1,80
,,,,,,,,,,,,,,,,,,,,,,,,,,,,,,,,,,,,,,,,,n,4.5849998,DRN,TRUE,,,,,,,183,tren,Catalan,Sounds/cat_tren.mp3,2020-06-12_20h54.19.441,TranslationElicitation_eng-prolific,3.2.4,Win32,60,5c41d2152b3f33000107545e,,1,0,81,74,1,80
,,,,,,,,,,,,,,,,,,,,,,,,,,,,,,,,,,,,,,,,,backspace,4.930999994,DR,TRUE,,,,,,,183,tren,Catalan,Sounds/cat_tren.mp3,2020-06-12_20h54.19.441,TranslationElicitation_eng-prolific,3.2.4,Win32,60,5c41d2152b3f33000107545e,,1,0,81,74,1,80
,,,,,,,,,,,,,,,,,,,,,,,,,,,,,,,,,,,,,,,,,i,5.130999804,DRI,TRUE,,,,,,,183,tren,Catalan,Sounds/cat_tren.mp3,2020-06-12_20h54.19.441,TranslationElicitation_eng-prolific,3.2.4,Win32,60,5c41d2152b3f33000107545e,,1,0,81,74,1,80
,,,,,,,,,,,,,,,,,,,,,,,,,,,,,,,,,,,,,,,,,n,5.313999891,DRIN,TRUE,,,,,,,183,tren,Catalan,Sounds/cat_tren.mp3,2020-06-12_20h54.19.441,TranslationElicitation_eng-prolific,3.2.4,Win32,60,5c41d2152b3f33000107545e,,1,0,81,74,1,80
,,,,,,,,,,,,,,,,,,,,,,,,,,,,,,,,,,,,,,,,,k,5.381999969,DRINK,TRUE,,,,,,,183,tren,Catalan,Sounds/cat_tren.mp3,2020-06-12_20h54.19.441,TranslationElicitation_eng-prolific,3.2.4,Win32,60,5c41d2152b3f33000107545e,,1,0,81,74,1,80
,,,,,,,,,,,,,,,,,,,,,,,,,,,,,,,,,,,,,,,,,return,5.646999836,DRINK,TRUE,,,,,,,183,tren,Catalan,Sounds/cat_tren.mp3,2020-06-12_20h54.19.441,TranslationElicitation_eng-prolific,3.2.4,Win32,60,5c41d2152b3f33000107545e,5.646999836,1,0,81,74,1,80
,,,,,,,,,,,,,,,,,,,,,,,,,,,,,,,,,,,,,,,,,,,,,,,,,,,183,tren,Catalan,Sounds/cat_tren.mp3,2020-06-12_20h54.19.441,TranslationElicitation_eng-prolific,3.2.4,Win32,60,5c41d2152b3f33000107545e,,1,0,81,74,1,80
,,,,,,,,,,,,,,,,,,,,,,,,,,,,,,,,,,,,,,,,,f,1.865999937,F,FALSE,,,,,,,134,flor,Catalan,Sounds/cat_flor.mp3,2020-06-12_20h54.19.441,TranslationElicitation_eng-prolific,3.2.4,Win32,60,5c41d2152b3f33000107545e,,1,0,81,28,1,80
,,,,,,,,,,,,,,,,,,,,,,,,,,,,,,,,,,,,,,,,,l,1.96600008,FL,FALSE,,,,,,,134,flor,Catalan,Sounds/cat_flor.mp3,2020-06-12_20h54.19.441,TranslationElicitation_eng-prolific,3.2.4,Win32,60,5c41d2152b3f33000107545e,,1,0,81,28,1,80
,,,,,,,,,,,,,,,,,,,,,,,,,,,,,,,,,,,,,,,,,o,2.151000023,FLO,FALSE,,,,,,,134,flor,Catalan,Sounds/cat_flor.mp3,2020-06-12_20h54.19.441,TranslationElicitation_eng-prolific,3.2.4,Win32,60,5c41d2152b3f33000107545e,,1,0,81,28,1,80
,,,,,,,,,,,,,,,,,,,,,,,,,,,,,,,,,,,,,,,,,o,2.348999977,FLOO,FALSE,,,,,,,134,flor,Catalan,Sounds/cat_flor.mp3,2020-06-12_20h54.19.441,TranslationElicitation_eng-prolific,3.2.4,Win32,60,5c41d2152b3f33000107545e,,1,0,81,28,1,80
,,,,,,,,,,,,,,,,,,,,,,,,,,,,,,,,,,,,,,,,,r,2.5,FLOOR,FALSE,,,,,,,134,flor,Catalan,Sounds/cat_flor.mp3,2020-06-12_20h54.19.441,TranslationElicitation_eng-prolific,3.2.4,Win32,60,5c41d2152b3f33000107545e,,1,0,81,28,1,80
,,,,,,,,,,,,,,,,,,,,,,,,,,,,,,,,,,,,,,,,,return,2.582000017,FLOOR,FALSE,,,,,,,134,flor,Catalan,Sounds/cat_flor.mp3,2020-06-12_20h54.19.441,TranslationElicitation_eng-prolific,3.2.4,Win32,60,5c41d2152b3f33000107545e,2.582000017,1,0,81,28,1,80
,,,,,,,,,,,,,,,,,,,,,,,,,,,,,,,,,,,,,,,,,,,,,,,,,,,134,flor,Catalan,Sounds/cat_flor.mp3,2020-06-12_20h54.19.441,TranslationElicitation_eng-prolific,3.2.4,Win32,60,5c41d2152b3f33000107545e,,1,0,81,28,1,80
,,,,,,,,,,,,,,,,,,,,,,,,,,,,,,,,,,,,,,,,,t,1.315999985,T,FALSE,,,,,,,182,tomaquet,Catalan,Sounds/cat_tomaquet.mp3,2020-06-12_20h54.19.441,TranslationElicitation_eng-prolific,3.2.4,Win32,60,5c41d2152b3f33000107545e,,1,0,81,73,1,80
,,,,,,,,,,,,,,,,,,,,,,,,,,,,,,,,,,,,,,,,,o,1.398999929,TO,FALSE,,,,,,,182,tomaquet,Catalan,Sounds/cat_tomaquet.mp3,2020-06-12_20h54.19.441,TranslationElicitation_eng-prolific,3.2.4,Win32,60,5c41d2152b3f33000107545e,,1,0,81,73,1,80
,,,,,,,,,,,,,,,,,,,,,,,,,,,,,,,,,,,,,,,,,m,1.48300004,TOM,FALSE,,,,,,,182,tomaquet,Catalan,Sounds/cat_tomaquet.mp3,2020-06-12_20h54.19.441,TranslationElicitation_eng-prolific,3.2.4,Win32,60,5c41d2152b3f33000107545e,,1,0,81,73,1,80
,,,,,,,,,,,,,,,,,,,,,,,,,,,,,,,,,,,,,,,,,o,1.615999937,TOMO,FALSE,,,,,,,182,tomaquet,Catalan,Sounds/cat_tomaquet.mp3,2020-06-12_20h54.19.441,TranslationElicitation_eng-prolific,3.2.4,Win32,60,5c41d2152b3f33000107545e,,1,0,81,73,1,80
,,,,,,,,,,,,,,,,,,,,,,,,,,,,,,,,,,,,,,,,,t,1.648999929,TOMOT,FALSE,,,,,,,182,tomaquet,Catalan,Sounds/cat_tomaquet.mp3,2020-06-12_20h54.19.441,TranslationElicitation_eng-prolific,3.2.4,Win32,60,5c41d2152b3f33000107545e,,1,0,81,73,1,80
,,,,,,,,,,,,,,,,,,,,,,,,,,,,,,,,,,,,,,,,,backspace,2.232000113,TOMO,TRUE,,,,,,,182,tomaquet,Catalan,Sounds/cat_tomaquet.mp3,2020-06-12_20h54.19.441,TranslationElicitation_eng-prolific,3.2.4,Win32,60,5c41d2152b3f33000107545e,,1,0,81,73,1,80
,,,,,,,,,,,,,,,,,,,,,,,,,,,,,,,,,,,,,,,,,backspace,2.398999929,TOM,TRUE,,,,,,,182,tomaquet,Catalan,Sounds/cat_tomaquet.mp3,2020-06-12_20h54.19.441,TranslationElicitation_eng-prolific,3.2.4,Win32,60,5c41d2152b3f33000107545e,,1,0,81,73,1,80
,,,,,,,,,,,,,,,,,,,,,,,,,,,,,,,,,,,,,,,,,a,2.46600008,TOMA,TRUE,,,,,,,182,tomaquet,Catalan,Sounds/cat_tomaquet.mp3,2020-06-12_20h54.19.441,TranslationElicitation_eng-prolific,3.2.4,Win32,60,5c41d2152b3f33000107545e,,1,0,81,73,1,80
,,,,,,,,,,,,,,,,,,,,,,,,,,,,,,,,,,,,,,,,,r,2.548000097,TOMAR,TRUE,,,,,,,182,tomaquet,Catalan,Sounds/cat_tomaquet.mp3,2020-06-12_20h54.19.441,TranslationElicitation_eng-prolific,3.2.4,Win32,60,5c41d2152b3f33000107545e,,1,0,81,73,1,80
,,,,,,,,,,,,,,,,,,,,,,,,,,,,,,,,,,,,,,,,,o,2.631999969,TOMARO,TRUE,,,,,,,182,tomaquet,Catalan,Sounds/cat_tomaquet.mp3,2020-06-12_20h54.19.441,TranslationElicitation_eng-prolific,3.2.4,Win32,60,5c41d2152b3f33000107545e,,1,0,81,73,1,80
,,,,,,,,,,,,,,,,,,,,,,,,,,,,,,,,,,,,,,,,,backspace,2.998000145,TOMAR,TRUE,,,,,,,182,tomaquet,Catalan,Sounds/cat_tomaquet.mp3,2020-06-12_20h54.19.441,TranslationElicitation_eng-prolific,3.2.4,Win32,60,5c41d2152b3f33000107545e,,1,0,81,73,1,80
,,,,,,,,,,,,,,,,,,,,,,,,,,,,,,,,,,,,,,,,,backspace,3.148000002,TOMA,TRUE,,,,,,,182,tomaquet,Catalan,Sounds/cat_tomaquet.mp3,2020-06-12_20h54.19.441,TranslationElicitation_eng-prolific,3.2.4,Win32,60,5c41d2152b3f33000107545e,,1,0,81,73,1,80
,,,,,,,,,,,,,,,,,,,,,,,,,,,,,,,,,,,,,,,,,t,3.235000134,TOMAT,TRUE,,,,,,,182,tomaquet,Catalan,Sounds/cat_tomaquet.mp3,2020-06-12_20h54.19.441,TranslationElicitation_eng-prolific,3.2.4,Win32,60,5c41d2152b3f33000107545e,,1,0,81,73,1,80
,,,,,,,,,,,,,,,,,,,,,,,,,,,,,,,,,,,,,,,,,o,3.298000097,TOMATO,TRUE,,,,,,,182,tomaquet,Catalan,Sounds/cat_tomaquet.mp3,2020-06-12_20h54.19.441,TranslationElicitation_eng-prolific,3.2.4,Win32,60,5c41d2152b3f33000107545e,,1,0,81,73,1,80
,,,,,,,,,,,,,,,,,,,,,,,,,,,,,,,,,,,,,,,,,return,3.464999914,TOMATO,TRUE,,,,,,,182,tomaquet,Catalan,Sounds/cat_tomaquet.mp3,2020-06-12_20h54.19.441,TranslationElicitation_eng-prolific,3.2.4,Win32,60,5c41d2152b3f33000107545e,3.464999914,1,0,81,73,1,80
,,,,,,,,,,,,,,,,,,,,,,,,,,,,,,,,,,,,,,,,,,,,,,,,,,,182,tomaquet,Catalan,Sounds/cat_tomaquet.mp3,2020-06-12_20h54.19.441,TranslationElicitation_eng-prolific,3.2.4,Win32,60,5c41d2152b3f33000107545e,,1,0,81,73,1,80
,,,,,,,,,,,,,,,,,,,,,,,,,,,,,,,,,,,,,,,,,k,3.698000193,K,FALSE,,,,,,,127,cotxe,Catalan,Sounds/cat_cotxe.mp3,2020-06-12_20h54.19.441,TranslationElicitation_eng-prolific,3.2.4,Win32,60,5c41d2152b3f33000107545e,,1,0,81,21,1,80
,,,,,,,,,,,,,,,,,,,,,,,,,,,,,,,,,,,,,,,,,i,3.798000097,KI,FALSE,,,,,,,127,cotxe,Catalan,Sounds/cat_cotxe.mp3,2020-06-12_20h54.19.441,TranslationElicitation_eng-prolific,3.2.4,Win32,60,5c41d2152b3f33000107545e,,1,0,81,21,1,80
,,,,,,,,,,,,,,,,,,,,,,,,,,,,,,,,,,,,,,,,,t,3.981000185,KIT,FALSE,,,,,,,127,cotxe,Catalan,Sounds/cat_cotxe.mp3,2020-06-12_20h54.19.441,TranslationElicitation_eng-prolific,3.2.4,Win32,60,5c41d2152b3f33000107545e,,1,0,81,21,1,80
,,,,,,,,,,,,,,,,,,,,,,,,,,,,,,,,,,,,,,,,,c,4.164000034,KITC,FALSE,,,,,,,127,cotxe,Catalan,Sounds/cat_cotxe.mp3,2020-06-12_20h54.19.441,TranslationElicitation_eng-prolific,3.2.4,Win32,60,5c41d2152b3f33000107545e,,1,0,81,21,1,80
,,,,,,,,,,,,,,,,,,,,,,,,,,,,,,,,,,,,,,,,,h,4.281000137,KITCH,FALSE,,,,,,,127,cotxe,Catalan,Sounds/cat_cotxe.mp3,2020-06-12_20h54.19.441,TranslationElicitation_eng-prolific,3.2.4,Win32,60,5c41d2152b3f33000107545e,,1,0,81,21,1,80
,,,,,,,,,,,,,,,,,,,,,,,,,,,,,,,,,,,,,,,,,e,4.381000042,KITCHE,FALSE,,,,,,,127,cotxe,Catalan,Sounds/cat_cotxe.mp3,2020-06-12_20h54.19.441,TranslationElicitation_eng-prolific,3.2.4,Win32,60,5c41d2152b3f33000107545e,,1,0,81,21,1,80
,,,,,,,,,,,,,,,,,,,,,,,,,,,,,,,,,,,,,,,,,n,4.447000027,KITCHEN,FALSE,,,,,,,127,cotxe,Catalan,Sounds/cat_cotxe.mp3,2020-06-12_20h54.19.441,TranslationElicitation_eng-prolific,3.2.4,Win32,60,5c41d2152b3f33000107545e,,1,0,81,21,1,80
,,,,,,,,,,,,,,,,,,,,,,,,,,,,,,,,,,,,,,,,,return,4.674000025,KITCHEN,FALSE,,,,,,,127,cotxe,Catalan,Sounds/cat_cotxe.mp3,2020-06-12_20h54.19.441,TranslationElicitation_eng-prolific,3.2.4,Win32,60,5c41d2152b3f33000107545e,4.674000025,1,0,81,21,1,80
,,,,,,,,,,,,,,,,,,,,,,,,,,,,,,,,,,,,,,,,,,,,,,,,,,,127,cotxe,Catalan,Sounds/cat_cotxe.mp3,2020-06-12_20h54.19.441,TranslationElicitation_eng-prolific,3.2.4,Win32,60,5c41d2152b3f33000107545e,,1,0,81,21,1,80
,,,,,,,,,,,,,,,,,,,,,,,,,,,,,,,,,,,,,,,,,g,4.182999849,G,FALSE,,,,,,,143,globus,Catalan,Sounds/cat_globus.mp3,2020-06-12_20h54.19.441,TranslationElicitation_eng-prolific,3.2.4,Win32,60,5c41d2152b3f33000107545e,,1,0,81,37,1,80
,,,,,,,,,,,,,,,,,,,,,,,,,,,,,,,,,,,,,,,,,l,4.313999891,GL,FALSE,,,,,,,143,globus,Catalan,Sounds/cat_globus.mp3,2020-06-12_20h54.19.441,TranslationElicitation_eng-prolific,3.2.4,Win32,60,5c41d2152b3f33000107545e,,1,0,81,37,1,80
,,,,,,,,,,,,,,,,,,,,,,,,,,,,,,,,,,,,,,,,,o,4.496999979,GLO,FALSE,,,,,,,143,globus,Catalan,Sounds/cat_globus.mp3,2020-06-12_20h54.19.441,TranslationElicitation_eng-prolific,3.2.4,Win32,60,5c41d2152b3f33000107545e,,1,0,81,37,1,80
,,,,,,,,,,,,,,,,,,,,,,,,,,,,,,,,,,,,,,,,,w,5.032999992,GLOW,FALSE,,,,,,,143,globus,Catalan,Sounds/cat_globus.mp3,2020-06-12_20h54.19.441,TranslationElicitation_eng-prolific,3.2.4,Win32,60,5c41d2152b3f33000107545e,,1,0,81,37,1,80
,,,,,,,,,,,,,,,,,,,,,,,,,,,,,,,,,,,,,,,,,b,5.196999788,GLOWB,FALSE,,,,,,,143,globus,Catalan,Sounds/cat_globus.mp3,2020-06-12_20h54.19.441,TranslationElicitation_eng-prolific,3.2.4,Win32,60,5c41d2152b3f33000107545e,,1,0,81,37,1,80
,,,,,,,,,,,,,,,,,,,,,,,,,,,,,,,,,,,,,,,,,a,5.329999924,GLOWBA,FALSE,,,,,,,143,globus,Catalan,Sounds/cat_globus.mp3,2020-06-12_20h54.19.441,TranslationElicitation_eng-prolific,3.2.4,Win32,60,5c41d2152b3f33000107545e,,1,0,81,37,1,80
,,,,,,,,,,,,,,,,,,,,,,,,,,,,,,,,,,,,,,,,,l,5.448999882,GLOWBAL,FALSE,,,,,,,143,globus,Catalan,Sounds/cat_globus.mp3,2020-06-12_20h54.19.441,TranslationElicitation_eng-prolific,3.2.4,Win32,60,5c41d2152b3f33000107545e,,1,0,81,37,1,80
,,,,,,,,,,,,,,,,,,,,,,,,,,,,,,,,,,,,,,,,,l,5.591999769,GLOWBALL,FALSE,,,,,,,143,globus,Catalan,Sounds/cat_globus.mp3,2020-06-12_20h54.19.441,TranslationElicitation_eng-prolific,3.2.4,Win32,60,5c41d2152b3f33000107545e,,1,0,81,37,1,80
,,,,,,,,,,,,,,,,,,,,,,,,,,,,,,,,,,,,,,,,,s,5.695999861,GLOWBALLS,FALSE,,,,,,,143,globus,Catalan,Sounds/cat_globus.mp3,2020-06-12_20h54.19.441,TranslationElicitation_eng-prolific,3.2.4,Win32,60,5c41d2152b3f33000107545e,,1,0,81,37,1,80
,,,,,,,,,,,,,,,,,,,,,,,,,,,,,,,,,,,,,,,,,return,5.912999868,GLOWBALLS,FALSE,,,,,,,143,globus,Catalan,Sounds/cat_globus.mp3,2020-06-12_20h54.19.441,TranslationElicitation_eng-prolific,3.2.4,Win32,60,5c41d2152b3f33000107545e,5.912999868,1,0,81,37,1,80
,,,,,,,,,,,,,,,,,,,,,,,,,,,,,,,,,,,,,,,,,,,,,,,,,,,143,globus,Catalan,Sounds/cat_globus.mp3,2020-06-12_20h54.19.441,TranslationElicitation_eng-prolific,3.2.4,Win32,60,5c41d2152b3f33000107545e,,1,0,81,37,1,80
,,,,,,,,,,,,,,,,,,,,,,,,,,,,,,,,,,,,,,,,,d,3.963000059,D,FALSE,,,,,,,180,tisores,Catalan,Sounds/cat_tisores.mp3,2020-06-12_20h54.19.441,TranslationElicitation_eng-prolific,3.2.4,Win32,60,5c41d2152b3f33000107545e,,1,0,81,71,1,80
,,,,,,,,,,,,,,,,,,,,,,,,,,,,,,,,,,,,,,,,,i,4.04700017,DI,FALSE,,,,,,,180,tisores,Catalan,Sounds/cat_tisores.mp3,2020-06-12_20h54.19.441,TranslationElicitation_eng-prolific,3.2.4,Win32,60,5c41d2152b3f33000107545e,,1,0,81,71,1,80
,,,,,,,,,,,,,,,,,,,,,,,,,,,,,,,,,,,,,,,,,backspace,4.703000069,D,TRUE,,,,,,,180,tisores,Catalan,Sounds/cat_tisores.mp3,2020-06-12_20h54.19.441,TranslationElicitation_eng-prolific,3.2.4,Win32,60,5c41d2152b3f33000107545e,,1,0,81,71,1,80
,,,,,,,,,,,,,,,,,,,,,,,,,,,,,,,,,,,,,,,,,backspace,4.913000107,,TRUE,,,,,,,180,tisores,Catalan,Sounds/cat_tisores.mp3,2020-06-12_20h54.19.441,TranslationElicitation_eng-prolific,3.2.4,Win32,60,5c41d2152b3f33000107545e,,1,0,81,71,1,80
,,,,,,,,,,,,,,,,,,,,,,,,,,,,,,,,,,,,,,,,,d,6.445000172,D,TRUE,,,,,,,180,tisores,Catalan,Sounds/cat_tisores.mp3,2020-06-12_20h54.19.441,TranslationElicitation_eng-prolific,3.2.4,Win32,60,5c41d2152b3f33000107545e,,1,0,81,71,1,80
,,,,,,,,,,,,,,,,,,,,,,,,,,,,,,,,,,,,,,,,,i,6.514000177,DI,TRUE,,,,,,,180,tisores,Catalan,Sounds/cat_tisores.mp3,2020-06-12_20h54.19.441,TranslationElicitation_eng-prolific,3.2.4,Win32,60,5c41d2152b3f33000107545e,,1,0,81,71,1,80
,,,,,,,,,,,,,,,,,,,,,,,,,,,,,,,,,,,,,,,,,n,6.732000113,DIN,TRUE,,,,,,,180,tisores,Catalan,Sounds/cat_tisores.mp3,2020-06-12_20h54.19.441,TranslationElicitation_eng-prolific,3.2.4,Win32,60,5c41d2152b3f33000107545e,,1,0,81,71,1,80
,,,,,,,,,,,,,,,,,,,,,,,,,,,,,,,,,,,,,,,,,n,6.879000187,DINN,TRUE,,,,,,,180,tisores,Catalan,Sounds/cat_tisores.mp3,2020-06-12_20h54.19.441,TranslationElicitation_eng-prolific,3.2.4,Win32,60,5c41d2152b3f33000107545e,,1,0,81,71,1,80
,,,,,,,,,,,,,,,,,,,,,,,,,,,,,,,,,,,,,,,,,e,6.929000139,DINNE,TRUE,,,,,,,180,tisores,Catalan,Sounds/cat_tisores.mp3,2020-06-12_20h54.19.441,TranslationElicitation_eng-prolific,3.2.4,Win32,60,5c41d2152b3f33000107545e,,1,0,81,71,1,80
,,,,,,,,,,,,,,,,,,,,,,,,,,,,,,,,,,,,,,,,,r,7.029000044,DINNER,TRUE,,,,,,,180,tisores,Catalan,Sounds/cat_tisores.mp3,2020-06-12_20h54.19.441,TranslationElicitation_eng-prolific,3.2.4,Win32,60,5c41d2152b3f33000107545e,,1,0,81,71,1,80
,,,,,,,,,,,,,,,,,,,,,,,,,,,,,,,,,,,,,,,,,return,7.195000172,DINNER,TRUE,,,,,,,180,tisores,Catalan,Sounds/cat_tisores.mp3,2020-06-12_20h54.19.441,TranslationElicitation_eng-prolific,3.2.4,Win32,60,5c41d2152b3f33000107545e,7.195000172,1,0,81,71,1,80
,,,,,,,,,,,,,,,,,,,,,,,,,,,,,,,,,,,,,,,,,,,,,,,,,,,180,tisores,Catalan,Sounds/cat_tisores.mp3,2020-06-12_20h54.19.441,TranslationElicitation_eng-prolific,3.2.4,Win32,60,5c41d2152b3f33000107545e,,1,0,81,71,1,80
,,,,,,,,,,,,,,,,,,,,,,,,,,,,,,,,,,,,,,,,,r,4.863999844,R,FALSE,,,,,,,161,ovella,Catalan,Sounds/cat_ovella.mp3,2020-06-12_20h54.19.441,TranslationElicitation_eng-prolific,3.2.4,Win32,60,5c41d2152b3f33000107545e,,1,0,81,53,1,80
,,,,,,,,,,,,,,,,,,,,,,,,,,,,,,,,,,,,,,,,,a,5.063999891,RA,FALSE,,,,,,,161,ovella,Catalan,Sounds/cat_ovella.mp3,2020-06-12_20h54.19.441,TranslationElicitation_eng-prolific,3.2.4,Win32,60,5c41d2152b3f33000107545e,,1,0,81,53,1,80
,,,,,,,,,,,,,,,,,,,,,,,,,,,,,,,,,,,,,,,,,i,5.133999825,RAI,FALSE,,,,,,,161,ovella,Catalan,Sounds/cat_ovella.mp3,2020-06-12_20h54.19.441,TranslationElicitation_eng-prolific,3.2.4,Win32,60,5c41d2152b3f33000107545e,,1,0,81,53,1,80
,,,,,,,,,,,,,,,,,,,,,,,,,,,,,,,,,,,,,,,,,n,5.197000027,RAIN,FALSE,,,,,,,161,ovella,Catalan,Sounds/cat_ovella.mp3,2020-06-12_20h54.19.441,TranslationElicitation_eng-prolific,3.2.4,Win32,60,5c41d2152b3f33000107545e,,1,0,81,53,1,80
,,,,,,,,,,,,,,,,,,,,,,,,,,,,,,,,,,,,,,,,,return,5.430999994,RAIN,FALSE,,,,,,,161,ovella,Catalan,Sounds/cat_ovella.mp3,2020-06-12_20h54.19.441,TranslationElicitation_eng-prolific,3.2.4,Win32,60,5c41d2152b3f33000107545e,5.430999994,1,0,81,53,1,80
,,,,,,,,,,,,,,,,,,,,,,,,,,,,,,,,,,,,,,,,,,,,,,,,,,,161,ovella,Catalan,Sounds/cat_ovella.mp3,2020-06-12_20h54.19.441,TranslationElicitation_eng-prolific,3.2.4,Win32,60,5c41d2152b3f33000107545e,,1,0,81,53,1,80
,,,,,,,,,,,,,,,,,,,,,,,,,,,,,,,,,,,,,,,,,s,1.300000191,S,FALSE,,,,,,,124,cirera,Catalan,Sounds/cat_cirera.mp3,2020-06-12_20h54.19.441,TranslationElicitation_eng-prolific,3.2.4,Win32,60,5c41d2152b3f33000107545e,,1,0,81,19,1,80
,,,,,,,,,,,,,,,,,,,,,,,,,,,,,,,,,,,,,,,,,u,1.350000143,SU,FALSE,,,,,,,124,cirera,Catalan,Sounds/cat_cirera.mp3,2020-06-12_20h54.19.441,TranslationElicitation_eng-prolific,3.2.4,Win32,60,5c41d2152b3f33000107545e,,1,0,81,19,1,80
,,,,,,,,,,,,,,,,,,,,,,,,,,,,,,,,,,,,,,,,,n,1.570000172,SUN,FALSE,,,,,,,124,cirera,Catalan,Sounds/cat_cirera.mp3,2020-06-12_20h54.19.441,TranslationElicitation_eng-prolific,3.2.4,Win32,60,5c41d2152b3f33000107545e,,1,0,81,19,1,80
,,,,,,,,,,,,,,,,,,,,,,,,,,,,,,,,,,,,,,,,,return,1.916000128,SUN,FALSE,,,,,,,124,cirera,Catalan,Sounds/cat_cirera.mp3,2020-06-12_20h54.19.441,TranslationElicitation_eng-prolific,3.2.4,Win32,60,5c41d2152b3f33000107545e,1.916000128,1,0,81,19,1,80
,,,,,,,,,,,,,,,,,,,,,,,,,,,,,,,,,,,,,,,,,,,,,,,,,,,124,cirera,Catalan,Sounds/cat_cirera.mp3,2020-06-12_20h54.19.441,TranslationElicitation_eng-prolific,3.2.4,Win32,60,5c41d2152b3f33000107545e,,1,0,81,19,1,80
,,,,,,,,,,,,,,,,,,,,,,,,,,,,,,,,,,,,,,,,,g,1.499000072,G,FALSE,,,,,,,146,guitarra,Catalan,Sounds/cat_guitarra.mp3,2020-06-12_20h54.19.441,TranslationElicitation_eng-prolific,3.2.4,Win32,60,5c41d2152b3f33000107545e,,1,0,81,40,1,80
,,,,,,,,,,,,,,,,,,,,,,,,,,,,,,,,,,,,,,,,,u,1.631999969,GU,FALSE,,,,,,,146,guitarra,Catalan,Sounds/cat_guitarra.mp3,2020-06-12_20h54.19.441,TranslationElicitation_eng-prolific,3.2.4,Win32,60,5c41d2152b3f33000107545e,,1,0,81,40,1,80
,,,,,,,,,,,,,,,,,,,,,,,,,,,,,,,,,,,,,,,,,i,1.75,GUI,FALSE,,,,,,,146,guitarra,Catalan,Sounds/cat_guitarra.mp3,2020-06-12_20h54.19.441,TranslationElicitation_eng-prolific,3.2.4,Win32,60,5c41d2152b3f33000107545e,,1,0,81,40,1,80
,,,,,,,,,,,,,,,,,,,,,,,,,,,,,,,,,,,,,,,,,t,2.214999914,GUIT,FALSE,,,,,,,146,guitarra,Catalan,Sounds/cat_guitarra.mp3,2020-06-12_20h54.19.441,TranslationElicitation_eng-prolific,3.2.4,Win32,60,5c41d2152b3f33000107545e,,1,0,81,40,1,80
,,,,,,,,,,,,,,,,,,,,,,,,,,,,,,,,,,,,,,,,,a,2.450999975,GUITA,FALSE,,,,,,,146,guitarra,Catalan,Sounds/cat_guitarra.mp3,2020-06-12_20h54.19.441,TranslationElicitation_eng-prolific,3.2.4,Win32,60,5c41d2152b3f33000107545e,,1,0,81,40,1,80
,,,,,,,,,,,,,,,,,,,,,,,,,,,,,,,,,,,,,,,,,r,2.780999899,GUITAR,FALSE,,,,,,,146,guitarra,Catalan,Sounds/cat_guitarra.mp3,2020-06-12_20h54.19.441,TranslationElicitation_eng-prolific,3.2.4,Win32,60,5c41d2152b3f33000107545e,,1,0,81,40,1,80
,,,,,,,,,,,,,,,,,,,,,,,,,,,,,,,,,,,,,,,,,return,2.91899991,GUITAR,FALSE,,,,,,,146,guitarra,Catalan,Sounds/cat_guitarra.mp3,2020-06-12_20h54.19.441,TranslationElicitation_eng-prolific,3.2.4,Win32,60,5c41d2152b3f33000107545e,2.91899991,1,0,81,40,1,80
,,,,,,,,,,,,,,,,,,,,,,,,,,,,,,,,,,,,,,,,,,,,,,,,,,,146,guitarra,Catalan,Sounds/cat_guitarra.mp3,2020-06-12_20h54.19.441,TranslationElicitation_eng-prolific,3.2.4,Win32,60,5c41d2152b3f33000107545e,,1,0,81,40,1,80
,,,,,,,,,,,,,,,,,,,,,,,,,,,,,,,,,,,,,,,,,m,2.865999937,M,FALSE,,,,,,,152,ma,Catalan,Sounds/cat_ma.mp3,2020-06-12_20h54.19.441,TranslationElicitation_eng-prolific,3.2.4,Win32,60,5c41d2152b3f33000107545e,,1,0,81,45,1,80
,,,,,,,,,,,,,,,,,,,,,,,,,,,,,,,,,,,,,,,,,u,3.082000017,MU,FALSE,,,,,,,152,ma,Catalan,Sounds/cat_ma.mp3,2020-06-12_20h54.19.441,TranslationElicitation_eng-prolific,3.2.4,Win32,60,5c41d2152b3f33000107545e,,1,0,81,45,1,80
,,,,,,,,,,,,,,,,,,,,,,,,,,,,,,,,,,,,,,,,,m,3.165999889,MUM,FALSE,,,,,,,152,ma,Catalan,Sounds/cat_ma.mp3,2020-06-12_20h54.19.441,TranslationElicitation_eng-prolific,3.2.4,Win32,60,5c41d2152b3f33000107545e,,1,0,81,45,1,80
,,,,,,,,,,,,,,,,,,,,,,,,,,,,,,,,,,,,,,,,,backspace,3.836999893,MU,TRUE,,,,,,,152,ma,Catalan,Sounds/cat_ma.mp3,2020-06-12_20h54.19.441,TranslationElicitation_eng-prolific,3.2.4,Win32,60,5c41d2152b3f33000107545e,,1,0,81,45,1,80
,,,,,,,,,,,,,,,,,,,,,,,,,,,,,,,,,,,,,,,,,backspace,3.977999926,M,TRUE,,,,,,,152,ma,Catalan,Sounds/cat_ma.mp3,2020-06-12_20h54.19.441,TranslationElicitation_eng-prolific,3.2.4,Win32,60,5c41d2152b3f33000107545e,,1,0,81,45,1,80
,,,,,,,,,,,,,,,,,,,,,,,,,,,,,,,,,,,,,,,,,o,4.11500001,MO,TRUE,,,,,,,152,ma,Catalan,Sounds/cat_ma.mp3,2020-06-12_20h54.19.441,TranslationElicitation_eng-prolific,3.2.4,Win32,60,5c41d2152b3f33000107545e,,1,0,81,45,1,80
,,,,,,,,,,,,,,,,,,,,,,,,,,,,,,,,,,,,,,,,,t,4.181999922,MOT,TRUE,,,,,,,152,ma,Catalan,Sounds/cat_ma.mp3,2020-06-12_20h54.19.441,TranslationElicitation_eng-prolific,3.2.4,Win32,60,5c41d2152b3f33000107545e,,1,0,81,45,1,80
,,,,,,,,,,,,,,,,,,,,,,,,,,,,,,,,,,,,,,,,,h,4.332000017,MOTH,TRUE,,,,,,,152,ma,Catalan,Sounds/cat_ma.mp3,2020-06-12_20h54.19.441,TranslationElicitation_eng-prolific,3.2.4,Win32,60,5c41d2152b3f33000107545e,,1,0,81,45,1,80
,,,,,,,,,,,,,,,,,,,,,,,,,,,,,,,,,,,,,,,,,e,4.36500001,MOTHE,TRUE,,,,,,,152,ma,Catalan,Sounds/cat_ma.mp3,2020-06-12_20h54.19.441,TranslationElicitation_eng-prolific,3.2.4,Win32,60,5c41d2152b3f33000107545e,,1,0,81,45,1,80
,,,,,,,,,,,,,,,,,,,,,,,,,,,,,,,,,,,,,,,,,r,4.434999943,MOTHER,TRUE,,,,,,,152,ma,Catalan,Sounds/cat_ma.mp3,2020-06-12_20h54.19.441,TranslationElicitation_eng-prolific,3.2.4,Win32,60,5c41d2152b3f33000107545e,,1,0,81,45,1,80
,,,,,,,,,,,,,,,,,,,,,,,,,,,,,,,,,,,,,,,,,return,4.582999945,MOTHER,TRUE,,,,,,,152,ma,Catalan,Sounds/cat_ma.mp3,2020-06-12_20h54.19.441,TranslationElicitation_eng-prolific,3.2.4,Win32,60,5c41d2152b3f33000107545e,4.582999945,1,0,81,45,1,80
,,,,,,,,,,,,,,,,,,,,,,,,,,,,,,,,,,,,,,,,,,,,,,,,,,,152,ma,Catalan,Sounds/cat_ma.mp3,2020-06-12_20h54.19.441,TranslationElicitation_eng-prolific,3.2.4,Win32,60,5c41d2152b3f33000107545e,,1,0,81,45,1,80
,,,,,,,,,,,,,,,,,,,,,,,,,,,,,,,,,,,,,,,,,f,4.131999969,F,FALSE,,,,,,,187,vaixell,Catalan,Sounds/cat_vaixell.mp3,2020-06-12_20h54.19.441,TranslationElicitation_eng-prolific,3.2.4,Win32,60,5c41d2152b3f33000107545e,,1,0,81,78,1,80
,,,,,,,,,,,,,,,,,,,,,,,,,,,,,,,,,,,,,,,,,a,4.332000017,FA,FALSE,,,,,,,187,vaixell,Catalan,Sounds/cat_vaixell.mp3,2020-06-12_20h54.19.441,TranslationElicitation_eng-prolific,3.2.4,Win32,60,5c41d2152b3f33000107545e,,1,0,81,78,1,80
,,,,,,,,,,,,,,,,,,,,,,,,,,,,,,,,,,,,,,,,,t,4.482000113,FAT,FALSE,,,,,,,187,vaixell,Catalan,Sounds/cat_vaixell.mp3,2020-06-12_20h54.19.441,TranslationElicitation_eng-prolific,3.2.4,Win32,60,5c41d2152b3f33000107545e,,1,0,81,78,1,80
,,,,,,,,,,,,,,,,,,,,,,,,,,,,,,,,,,,,,,,,,h,4.601000071,FATH,FALSE,,,,,,,187,vaixell,Catalan,Sounds/cat_vaixell.mp3,2020-06-12_20h54.19.441,TranslationElicitation_eng-prolific,3.2.4,Win32,60,5c41d2152b3f33000107545e,,1,0,81,78,1,80
,,,,,,,,,,,,,,,,,,,,,,,,,,,,,,,,,,,,,,,,,e,4.666000128,FATHE,FALSE,,,,,,,187,vaixell,Catalan,Sounds/cat_vaixell.mp3,2020-06-12_20h54.19.441,TranslationElicitation_eng-prolific,3.2.4,Win32,60,5c41d2152b3f33000107545e,,1,0,81,78,1,80
,,,,,,,,,,,,,,,,,,,,,,,,,,,,,,,,,,,,,,,,,r,4.731000185,FATHER,FALSE,,,,,,,187,vaixell,Catalan,Sounds/cat_vaixell.mp3,2020-06-12_20h54.19.441,TranslationElicitation_eng-prolific,3.2.4,Win32,60,5c41d2152b3f33000107545e,,1,0,81,78,1,80
,,,,,,,,,,,,,,,,,,,,,,,,,,,,,,,,,,,,,,,,,return,4.881000042,FATHER,FALSE,,,,,,,187,vaixell,Catalan,Sounds/cat_vaixell.mp3,2020-06-12_20h54.19.441,TranslationElicitation_eng-prolific,3.2.4,Win32,60,5c41d2152b3f33000107545e,4.881000042,1,0,81,78,1,80
,,,,,,,,,,,,,,,,,,,,,,,,,,,,,,,,,,,,,,,,,,,,,,,,,,,187,vaixell,Catalan,Sounds/cat_vaixell.mp3,2020-06-12_20h54.19.441,TranslationElicitation_eng-prolific,3.2.4,Win32,60,5c41d2152b3f33000107545e,,1,0,81,78,1,80
,,,,,,,,,,,,,,,,,,,,,,,,,,,,,,,,,,,,,,,,,b,1.282999992,B,FALSE,,,,,,,108,ampolla,Catalan,Sounds/cat_ampolla.mp3,2020-06-12_20h54.19.441,TranslationElicitation_eng-prolific,3.2.4,Win32,60,5c41d2152b3f33000107545e,,1,0,81,4,1,80
,,,,,,,,,,,,,,,,,,,,,,,,,,,,,,,,,,,,,,,,,r,1.398999929,BR,FALSE,,,,,,,108,ampolla,Catalan,Sounds/cat_ampolla.mp3,2020-06-12_20h54.19.441,TranslationElicitation_eng-prolific,3.2.4,Win32,60,5c41d2152b3f33000107545e,,1,0,81,4,1,80
,,,,,,,,,,,,,,,,,,,,,,,,,,,,,,,,,,,,,,,,,o,1.48300004,BRO,FALSE,,,,,,,108,ampolla,Catalan,Sounds/cat_ampolla.mp3,2020-06-12_20h54.19.441,TranslationElicitation_eng-prolific,3.2.4,Win32,60,5c41d2152b3f33000107545e,,1,0,81,4,1,80
,,,,,,,,,,,,,,,,,,,,,,,,,,,,,,,,,,,,,,,,,t,1.582000017,BROT,FALSE,,,,,,,108,ampolla,Catalan,Sounds/cat_ampolla.mp3,2020-06-12_20h54.19.441,TranslationElicitation_eng-prolific,3.2.4,Win32,60,5c41d2152b3f33000107545e,,1,0,81,4,1,80
,,,,,,,,,,,,,,,,,,,,,,,,,,,,,,,,,,,,,,,,,h,1.653000116,BROTH,FALSE,,,,,,,108,ampolla,Catalan,Sounds/cat_ampolla.mp3,2020-06-12_20h54.19.441,TranslationElicitation_eng-prolific,3.2.4,Win32,60,5c41d2152b3f33000107545e,,1,0,81,4,1,80
,,,,,,,,,,,,,,,,,,,,,,,,,,,,,,,,,,,,,,,,,e,1.703000069,BROTHE,FALSE,,,,,,,108,ampolla,Catalan,Sounds/cat_ampolla.mp3,2020-06-12_20h54.19.441,TranslationElicitation_eng-prolific,3.2.4,Win32,60,5c41d2152b3f33000107545e,,1,0,81,4,1,80
,,,,,,,,,,,,,,,,,,,,,,,,,,,,,,,,,,,,,,,,,r,1.805000067,BROTHER,FALSE,,,,,,,108,ampolla,Catalan,Sounds/cat_ampolla.mp3,2020-06-12_20h54.19.441,TranslationElicitation_eng-prolific,3.2.4,Win32,60,5c41d2152b3f33000107545e,,1,0,81,4,1,80
,,,,,,,,,,,,,,,,,,,,,,,,,,,,,,,,,,,,,,,,,return,1.931999922,BROTHER,FALSE,,,,,,,108,ampolla,Catalan,Sounds/cat_ampolla.mp3,2020-06-12_20h54.19.441,TranslationElicitation_eng-prolific,3.2.4,Win32,60,5c41d2152b3f33000107545e,1.931999922,1,0,81,4,1,80
,,,,,,,,,,,,,,,,,,,,,,,,,,,,,,,,,,,,,,,,,,,,,,,,,,,108,ampolla,Catalan,Sounds/cat_ampolla.mp3,2020-06-12_20h54.19.441,TranslationElicitation_eng-prolific,3.2.4,Win32,60,5c41d2152b3f33000107545e,,1,0,81,4,1,80
,,,,,,,,,,,,,,,,,,,,,,,,,,,,,,,,,,,,,,,,,p,3.520000219,P,FALSE,,,,,,,181,tobogan,Catalan,Sounds/cat_tobogan.mp3,2020-06-12_20h54.19.441,TranslationElicitation_eng-prolific,3.2.4,Win32,60,5c41d2152b3f33000107545e,,1,0,81,72,1,80
,,,,,,,,,,,,,,,,,,,,,,,,,,,,,,,,,,,,,,,,,e,3.582000017,PE,FALSE,,,,,,,181,tobogan,Catalan,Sounds/cat_tobogan.mp3,2020-06-12_20h54.19.441,TranslationElicitation_eng-prolific,3.2.4,Win32,60,5c41d2152b3f33000107545e,,1,0,81,72,1,80
,,,,,,,,,,,,,,,,,,,,,,,,,,,,,,,,,,,,,,,,,t,3.68200016,PET,FALSE,,,,,,,181,tobogan,Catalan,Sounds/cat_tobogan.mp3,2020-06-12_20h54.19.441,TranslationElicitation_eng-prolific,3.2.4,Win32,60,5c41d2152b3f33000107545e,,1,0,81,72,1,80
,,,,,,,,,,,,,,,,,,,,,,,,,,,,,,,,,,,,,,,,,return,3.748000145,PET,FALSE,,,,,,,181,tobogan,Catalan,Sounds/cat_tobogan.mp3,2020-06-12_20h54.19.441,TranslationElicitation_eng-prolific,3.2.4,Win32,60,5c41d2152b3f33000107545e,3.748000145,1,0,81,72,1,80
,,,,,,,,,,,,,,,,,,,,,,,,,,,,,,,,,,,,,,,,,,,,,,,,,,,181,tobogan,Catalan,Sounds/cat_tobogan.mp3,2020-06-12_20h54.19.441,TranslationElicitation_eng-prolific,3.2.4,Win32,60,5c41d2152b3f33000107545e,,1,0,81,72,1,80
,,,,,,,,,,,,,,,,,,,,,,,,,,,,,,,,,,,,,,,,,n,2.997999907,N,FALSE,,,,,,,158,nas,Catalan,Sounds/cat_nas.mp3,2020-06-12_20h54.19.441,TranslationElicitation_eng-prolific,3.2.4,Win32,60,5c41d2152b3f33000107545e,,1,0,81,51,1,80
,,,,,,,,,,,,,,,,,,,,,,,,,,,,,,,,,,,,,,,,,i,3.065000057,NI,FALSE,,,,,,,158,nas,Catalan,Sounds/cat_nas.mp3,2020-06-12_20h54.19.441,TranslationElicitation_eng-prolific,3.2.4,Win32,60,5c41d2152b3f33000107545e,,1,0,81,51,1,80
,,,,,,,,,,,,,,,,,,,,,,,,,,,,,,,,,,,,,,,,,c,3.082000017,NIC,FALSE,,,,,,,158,nas,Catalan,Sounds/cat_nas.mp3,2020-06-12_20h54.19.441,TranslationElicitation_eng-prolific,3.2.4,Win32,60,5c41d2152b3f33000107545e,,1,0,81,51,1,80
,,,,,,,,,,,,,,,,,,,,,,,,,,,,,,,,,,,,,,,,,e,3.181999922,NICE,FALSE,,,,,,,158,nas,Catalan,Sounds/cat_nas.mp3,2020-06-12_20h54.19.441,TranslationElicitation_eng-prolific,3.2.4,Win32,60,5c41d2152b3f33000107545e,,1,0,81,51,1,80
,,,,,,,,,,,,,,,,,,,,,,,,,,,,,,,,,,,,,,,,,return,3.302999973,NICE,FALSE,,,,,,,158,nas,Catalan,Sounds/cat_nas.mp3,2020-06-12_20h54.19.441,TranslationElicitation_eng-prolific,3.2.4,Win32,60,5c41d2152b3f33000107545e,3.302999973,1,0,81,51,1,80
,,,,,,,,,,,,,,,,,,,,,,,,,,,,,,,,,,,,,,,,,,,,,,,,,,,158,nas,Catalan,Sounds/cat_nas.mp3,2020-06-12_20h54.19.441,TranslationElicitation_eng-prolific,3.2.4,Win32,60,5c41d2152b3f33000107545e,,1,0,81,51,1,80
,,,,,,,,,,,,,,,,,,,,,,,,,,,,,,,,,,,,,,,,,a,1.68200016,A,FALSE,,,,,,,107,amanida,Catalan,Sounds/cat_amanida.mp3,2020-06-12_20h54.19.441,TranslationElicitation_eng-prolific,3.2.4,Win32,60,5c41d2152b3f33000107545e,,1,0,81,3,1,80
,,,,,,,,,,,,,,,,,,,,,,,,,,,,,,,,,,,,,,,,,m,1.782000065,AM,FALSE,,,,,,,107,amanida,Catalan,Sounds/cat_amanida.mp3,2020-06-12_20h54.19.441,TranslationElicitation_eng-prolific,3.2.4,Win32,60,5c41d2152b3f33000107545e,,1,0,81,3,1,80
,,,,,,,,,,,,,,,,,,,,,,,,,,,,,,,,,,,,,,,,,a,1.899000168,AMA,FALSE,,,,,,,107,amanida,Catalan,Sounds/cat_amanida.mp3,2020-06-12_20h54.19.441,TranslationElicitation_eng-prolific,3.2.4,Win32,60,5c41d2152b3f33000107545e,,1,0,81,3,1,80
,,,,,,,,,,,,,,,,,,,,,,,,,,,,,,,,,,,,,,,,,z,2.149000168,AMAZ,FALSE,,,,,,,107,amanida,Catalan,Sounds/cat_amanida.mp3,2020-06-12_20h54.19.441,TranslationElicitation_eng-prolific,3.2.4,Win32,60,5c41d2152b3f33000107545e,,1,0,81,3,1,80
,,,,,,,,,,,,,,,,,,,,,,,,,,,,,,,,,,,,,,,,,i,2.582000017,AMAZI,FALSE,,,,,,,107,amanida,Catalan,Sounds/cat_amanida.mp3,2020-06-12_20h54.19.441,TranslationElicitation_eng-prolific,3.2.4,Win32,60,5c41d2152b3f33000107545e,,1,0,81,3,1,80
,,,,,,,,,,,,,,,,,,,,,,,,,,,,,,,,,,,,,,,,,n,2.649000168,AMAZIN,FALSE,,,,,,,107,amanida,Catalan,Sounds/cat_amanida.mp3,2020-06-12_20h54.19.441,TranslationElicitation_eng-prolific,3.2.4,Win32,60,5c41d2152b3f33000107545e,,1,0,81,3,1,80
,,,,,,,,,,,,,,,,,,,,,,,,,,,,,,,,,,,,,,,,,g,2.769000053,AMAZING,FALSE,,,,,,,107,amanida,Catalan,Sounds/cat_amanida.mp3,2020-06-12_20h54.19.441,TranslationElicitation_eng-prolific,3.2.4,Win32,60,5c41d2152b3f33000107545e,,1,0,81,3,1,80
,,,,,,,,,,,,,,,,,,,,,,,,,,,,,,,,,,,,,,,,,return,2.93200016,AMAZING,FALSE,,,,,,,107,amanida,Catalan,Sounds/cat_amanida.mp3,2020-06-12_20h54.19.441,TranslationElicitation_eng-prolific,3.2.4,Win32,60,5c41d2152b3f33000107545e,2.93200016,1,0,81,3,1,80
,,,,,,,,,,,,,,,,,,,,,,,,,,,,,,,,,,,,,,,,,,,,,,,,,,,107,amanida,Catalan,Sounds/cat_amanida.mp3,2020-06-12_20h54.19.441,TranslationElicitation_eng-prolific,3.2.4,Win32,60,5c41d2152b3f33000107545e,,1,0,81,3,1,80
,,,,,,,,,,,,,,,,,,,,,,,,,,,,,,,,,,,,,,,,,b,1.480999947,B,FALSE,,,,,,,110,berenar,Catalan,Sounds/cat_berenar.mp3,2020-06-12_20h54.19.441,TranslationElicitation_eng-prolific,3.2.4,Win32,60,5c41d2152b3f33000107545e,,1,0,81,5,1,80
,,,,,,,,,,,,,,,,,,,,,,,,,,,,,,,,,,,,,,,,,a,1.548000097,BA,FALSE,,,,,,,110,berenar,Catalan,Sounds/cat_berenar.mp3,2020-06-12_20h54.19.441,TranslationElicitation_eng-prolific,3.2.4,Win32,60,5c41d2152b3f33000107545e,,1,0,81,5,1,80
,,,,,,,,,,,,,,,,,,,,,,,,,,,,,,,,,,,,,,,,,n,1.697999954,BAN,FALSE,,,,,,,110,berenar,Catalan,Sounds/cat_berenar.mp3,2020-06-12_20h54.19.441,TranslationElicitation_eng-prolific,3.2.4,Win32,60,5c41d2152b3f33000107545e,,1,0,81,5,1,80
,,,,,,,,,,,,,,,,,,,,,,,,,,,,,,,,,,,,,,,,,a,1.714999914,BANA,FALSE,,,,,,,110,berenar,Catalan,Sounds/cat_berenar.mp3,2020-06-12_20h54.19.441,TranslationElicitation_eng-prolific,3.2.4,Win32,60,5c41d2152b3f33000107545e,,1,0,81,5,1,80
,,,,,,,,,,,,,,,,,,,,,,,,,,,,,,,,,,,,,,,,,a,1.947000027,BANAA,FALSE,,,,,,,110,berenar,Catalan,Sounds/cat_berenar.mp3,2020-06-12_20h54.19.441,TranslationElicitation_eng-prolific,3.2.4,Win32,60,5c41d2152b3f33000107545e,,1,0,81,5,1,80
,,,,,,,,,,,,,,,,,,,,,,,,,,,,,,,,,,,,,,,,,backspace,2.530999899,BANA,TRUE,,,,,,,110,berenar,Catalan,Sounds/cat_berenar.mp3,2020-06-12_20h54.19.441,TranslationElicitation_eng-prolific,3.2.4,Win32,60,5c41d2152b3f33000107545e,,1,0,81,5,1,80
,,,,,,,,,,,,,,,,,,,,,,,,,,,,,,,,,,,,,,,,,n,2.83100009,BANAN,TRUE,,,,,,,110,berenar,Catalan,Sounds/cat_berenar.mp3,2020-06-12_20h54.19.441,TranslationElicitation_eng-prolific,3.2.4,Win32,60,5c41d2152b3f33000107545e,,1,0,81,5,1,80
,,,,,,,,,,,,,,,,,,,,,,,,,,,,,,,,,,,,,,,,,a,2.881999969,BANANA,TRUE,,,,,,,110,berenar,Catalan,Sounds/cat_berenar.mp3,2020-06-12_20h54.19.441,TranslationElicitation_eng-prolific,3.2.4,Win32,60,5c41d2152b3f33000107545e,,1,0,81,5,1,80
,,,,,,,,,,,,,,,,,,,,,,,,,,,,,,,,,,,,,,,,,return,3.147000074,BANANA,TRUE,,,,,,,110,berenar,Catalan,Sounds/cat_berenar.mp3,2020-06-12_20h54.19.441,TranslationElicitation_eng-prolific,3.2.4,Win32,60,5c41d2152b3f33000107545e,3.147000074,1,0,81,5,1,80
,,,,,,,,,,,,,,,,,,,,,,,,,,,,,,,,,,,,,,,,,,,,,,,,,,,110,berenar,Catalan,Sounds/cat_berenar.mp3,2020-06-12_20h54.19.441,TranslationElicitation_eng-prolific,3.2.4,Win32,60,5c41d2152b3f33000107545e,,1,0,81,5,1,80
,,,,,,,,,,,,,,,,,,,,,,,,,,,,,,,,,,,,,,,,,g,1.398999929,G,FALSE,,,,,,,145,got,Catalan,Sounds/cat_got.mp3,2020-06-12_20h54.19.441,TranslationElicitation_eng-prolific,3.2.4,Win32,60,5c41d2152b3f33000107545e,,1,0,81,39,1,80
,,,,,,,,,,,,,,,,,,,,,,,,,,,,,,,,,,,,,,,,,o,1.514999866,GO,FALSE,,,,,,,145,got,Catalan,Sounds/cat_got.mp3,2020-06-12_20h54.19.441,TranslationElicitation_eng-prolific,3.2.4,Win32,60,5c41d2152b3f33000107545e,,1,0,81,39,1,80
,,,,,,,,,,,,,,,,,,,,,,,,,,,,,,,,,,,,,,,,,a,1.698999882,GOA,FALSE,,,,,,,145,got,Catalan,Sounds/cat_got.mp3,2020-06-12_20h54.19.441,TranslationElicitation_eng-prolific,3.2.4,Win32,60,5c41d2152b3f33000107545e,,1,0,81,39,1,80
,,,,,,,,,,,,,,,,,,,,,,,,,,,,,,,,,,,,,,,,,t,2.148000002,GOAT,FALSE,,,,,,,145,got,Catalan,Sounds/cat_got.mp3,2020-06-12_20h54.19.441,TranslationElicitation_eng-prolific,3.2.4,Win32,60,5c41d2152b3f33000107545e,,1,0,81,39,1,80
,,,,,,,,,,,,,,,,,,,,,,,,,,,,,,,,,,,,,,,,,return,2.332999945,GOAT,FALSE,,,,,,,145,got,Catalan,Sounds/cat_got.mp3,2020-06-12_20h54.19.441,TranslationElicitation_eng-prolific,3.2.4,Win32,60,5c41d2152b3f33000107545e,2.332999945,1,0,81,39,1,80
,,,,,,,,,,,,,,,,,,,,,,,,,,,,,,,,,,,,,,,,,,,,,,,,,,,145,got,Catalan,Sounds/cat_got.mp3,2020-06-12_20h54.19.441,TranslationElicitation_eng-prolific,3.2.4,Win32,60,5c41d2152b3f33000107545e,,1,0,81,39,1,80
