consentKey.keys,consentKey.rt,languageL1Key.keys,languageL1Key.rt,languageL2,languageL2OralKey.keys,languageL2OralKey.rt,languageL2WrittenKey.keys,languageL2WrittenKey.rt,languageL3,languageL3OralKey.keys,languageL3OralKey.rt,languageL3WrittenKey.keys,languageL3WrittenKey.rt,languageCatalanOralKey.keys,languageCatalanOralKey.rt,languageCatalanWrittenKey.keys,languageCatalanWrittenKey.rt,languageCatalanTimeKey.keys,languageCatalanTimeKey.rt,languageSpanishOralKey.keys,languageSpanishOralKey.rt,languageSpanishWrittenKey.keys,languageSpanishWrittenKey.rt,languageSpanishTimeKey.keys,languageSpanishTimeKey.rt,age,demoSexKey.keys,demoSexKey.rt,demoEducationKey.keys,demoEducationKey.rt,city,demoVisionKey.keys,demoVisionKey.rt,demoLanguageKey.keys,demoLanguageKey.rt,setupLocationKey.keys,setupLocationKey.rt,setupNoiseKey.keys,setupNoiseKey.rt,instructionsKeys.keys,instructionsKeys.rt,keyPressed,keyPressTime,inputText,error,trialsPracticeCatalan.thisRepN,trialsPracticeCatalan.thisTrialN,trialsPracticeCatalan.thisN,trialsPracticeCatalan.thisIndex,trialsPracticeCatalan.ran,trialsPracticeCatalan.order,trial_id,word,test_language,soundfile,date,expName,psychopyVersion,OS,frameRate,participant,trialOffset,trialsCatalan.thisRepN,trialsCatalan.thisTrialN,trialsCatalan.thisN,trialsCatalan.thisIndex,trialsCatalan.ran,trialsCatalan.order
space,3.407999754,e,3.928999901, ,1,9.058000088,1,5.355000019,,,,,,1,2.171999931,1,1.32799983,1,4.494999886,2,3.188999891,1,3.144999981,1,3.826999903,19,f,1.454999924,3,5.694999933,LONDON,y,3.299000025,n,2.579999924,1,1.792000055,1,2.196000099,space,12.76099992,space,3.484999895, ,FALSE,1,0,5,3,1,4,159,onada,Catalan,Sounds/cat_onada.mp3,2020-06-05_12h52.55.642,TranslationElicitation_eng-prolific,3.2.4,MacIntel,60,5c70380bae7e770001d12831,,,,,,,
,,,,,,,,,,,,,,,,,,,,,,,,,,,,,,,,,,,,,,,,,,return,3.73300004, ,FALSE,1,0,5,3,1,4,159,onada,Catalan,Sounds/cat_onada.mp3,2020-06-05_12h52.55.642,TranslationElicitation_eng-prolific,3.2.4,MacIntel,60,5c70380bae7e770001d12831,3.73300004,,,,,,
,,,,,,,,,,,,,,,,,,,,,,,,,,,,,,,,,,,,,,,,,,,,,,1,0,5,3,1,4,159,onada,Catalan,Sounds/cat_onada.mp3,2020-06-05_12h52.55.642,TranslationElicitation_eng-prolific,3.2.4,MacIntel,60,5c70380bae7e770001d12831,,,,,,,
,,,,,,,,,,,,,,,,,,,,,,,,,,,,,,,,,,,,,,,,,,return,2.25,,FALSE,1,0,5,2,1,4,147,jaqueta,Catalan,Sounds/cat_jaqueta.mp3,2020-06-05_12h52.55.642,TranslationElicitation_eng-prolific,3.2.4,MacIntel,60,5c70380bae7e770001d12831,2.25,,,,,,
,,,,,,,,,,,,,,,,,,,,,,,,,,,,,,,,,,,,,,,,,,,,,,1,0,5,2,1,4,147,jaqueta,Catalan,Sounds/cat_jaqueta.mp3,2020-06-05_12h52.55.642,TranslationElicitation_eng-prolific,3.2.4,MacIntel,60,5c70380bae7e770001d12831,,,,,,,
,,,,,,,,,,,,,,,,,,,,,,,,,,,,,,,,,,,,,,,,,,return,2.13499999,,FALSE,1,0,5,1,1,4,126,corona,Catalan,Sounds/cat_corona.mp3,2020-06-05_12h52.55.642,TranslationElicitation_eng-prolific,3.2.4,MacIntel,60,5c70380bae7e770001d12831,2.13499999,,,,,,
,,,,,,,,,,,,,,,,,,,,,,,,,,,,,,,,,,,,,,,,,,,,,,1,0,5,1,1,4,126,corona,Catalan,Sounds/cat_corona.mp3,2020-06-05_12h52.55.642,TranslationElicitation_eng-prolific,3.2.4,MacIntel,60,5c70380bae7e770001d12831,,,,,,,
,,,,,,,,,,,,,,,,,,,,,,,,,,,,,,,,,,,,,,,,,,return,11.852,,FALSE,1,0,5,0,1,4,109,arbre,Catalan,Sounds/cat_arbre.mp3,2020-06-05_12h52.55.642,TranslationElicitation_eng-prolific,3.2.4,MacIntel,60,5c70380bae7e770001d12831,11.852,,,,,,
,,,,,,,,,,,,,,,,,,,,,,,,,,,,,,,,,,,,,,,,,,,,,,1,0,5,0,1,4,109,arbre,Catalan,Sounds/cat_arbre.mp3,2020-06-05_12h52.55.642,TranslationElicitation_eng-prolific,3.2.4,MacIntel,60,5c70380bae7e770001d12831,,,,,,,
,,,,,,,,,,,,,,,,,,,,,,,,,,,,,,,,,,,,,,,,,,t,1.617000103,T,FALSE,1,0,5,4,1,4,179,tigre,Catalan,Sounds/cat_tigre.mp3,2020-06-05_12h52.55.642,TranslationElicitation_eng-prolific,3.2.4,MacIntel,60,5c70380bae7e770001d12831,,,,,,,
,,,,,,,,,,,,,,,,,,,,,,,,,,,,,,,,,,,,,,,,,,i,1.683000088,TI,FALSE,1,0,5,4,1,4,179,tigre,Catalan,Sounds/cat_tigre.mp3,2020-06-05_12h52.55.642,TranslationElicitation_eng-prolific,3.2.4,MacIntel,60,5c70380bae7e770001d12831,,,,,,,
,,,,,,,,,,,,,,,,,,,,,,,,,,,,,,,,,,,,,,,,,,g,1.866000175,TIG,FALSE,1,0,5,4,1,4,179,tigre,Catalan,Sounds/cat_tigre.mp3,2020-06-05_12h52.55.642,TranslationElicitation_eng-prolific,3.2.4,MacIntel,60,5c70380bae7e770001d12831,,,,,,,
,,,,,,,,,,,,,,,,,,,,,,,,,,,,,,,,,,,,,,,,,,e,1.934000015,TIGE,FALSE,1,0,5,4,1,4,179,tigre,Catalan,Sounds/cat_tigre.mp3,2020-06-05_12h52.55.642,TranslationElicitation_eng-prolific,3.2.4,MacIntel,60,5c70380bae7e770001d12831,,,,,,,
,,,,,,,,,,,,,,,,,,,,,,,,,,,,,,,,,,,,,,,,,,r,2.084000111,TIGER,FALSE,1,0,5,4,1,4,179,tigre,Catalan,Sounds/cat_tigre.mp3,2020-06-05_12h52.55.642,TranslationElicitation_eng-prolific,3.2.4,MacIntel,60,5c70380bae7e770001d12831,,,,,,,
,,,,,,,,,,,,,,,,,,,,,,,,,,,,,,,,,,,,,,,,,,return,2.183000088,TIGER,FALSE,1,0,5,4,1,4,179,tigre,Catalan,Sounds/cat_tigre.mp3,2020-06-05_12h52.55.642,TranslationElicitation_eng-prolific,3.2.4,MacIntel,60,5c70380bae7e770001d12831,2.183000088,,,,,,
,,,,,,,,,,,,,,,,,,,,,,,,,,,,,,,,,,,,,,,,,,,,,,1,0,5,4,1,4,179,tigre,Catalan,Sounds/cat_tigre.mp3,2020-06-05_12h52.55.642,TranslationElicitation_eng-prolific,3.2.4,MacIntel,60,5c70380bae7e770001d12831,,,,,,,
,,,,,,,,,,,,,,,,,,,,,,,,,,,,,,,,,,,,,,,,,,d,4.383000135,D,FALSE,,,,,,,171,pollastre,Catalan,Sounds/cat_pollastre.mp3,2020-06-05_12h52.55.642,TranslationElicitation_eng-prolific,3.2.4,MacIntel,60,5c70380bae7e770001d12831,,1,0,81,63,1,80
,,,,,,,,,,,,,,,,,,,,,,,,,,,,,,,,,,,,,,,,,,i,4.434000015,DI,FALSE,,,,,,,171,pollastre,Catalan,Sounds/cat_pollastre.mp3,2020-06-05_12h52.55.642,TranslationElicitation_eng-prolific,3.2.4,MacIntel,60,5c70380bae7e770001d12831,,1,0,81,63,1,80
,,,,,,,,,,,,,,,,,,,,,,,,,,,,,,,,,,,,,,,,,,n,4.601000071,DIN,FALSE,,,,,,,171,pollastre,Catalan,Sounds/cat_pollastre.mp3,2020-06-05_12h52.55.642,TranslationElicitation_eng-prolific,3.2.4,MacIntel,60,5c70380bae7e770001d12831,,1,0,81,63,1,80
,,,,,,,,,,,,,,,,,,,,,,,,,,,,,,,,,,,,,,,,,,n,4.701000214,DINN,FALSE,,,,,,,171,pollastre,Catalan,Sounds/cat_pollastre.mp3,2020-06-05_12h52.55.642,TranslationElicitation_eng-prolific,3.2.4,MacIntel,60,5c70380bae7e770001d12831,,1,0,81,63,1,80
,,,,,,,,,,,,,,,,,,,,,,,,,,,,,,,,,,,,,,,,,,e,5.084000111,DINNE,FALSE,,,,,,,171,pollastre,Catalan,Sounds/cat_pollastre.mp3,2020-06-05_12h52.55.642,TranslationElicitation_eng-prolific,3.2.4,MacIntel,60,5c70380bae7e770001d12831,,1,0,81,63,1,80
,,,,,,,,,,,,,,,,,,,,,,,,,,,,,,,,,,,,,,,,,,r,5.218000174,DINNER,FALSE,,,,,,,171,pollastre,Catalan,Sounds/cat_pollastre.mp3,2020-06-05_12h52.55.642,TranslationElicitation_eng-prolific,3.2.4,MacIntel,60,5c70380bae7e770001d12831,,1,0,81,63,1,80
,,,,,,,,,,,,,,,,,,,,,,,,,,,,,,,,,,,,,,,,,,return,5.301000118,DINNER,FALSE,,,,,,,171,pollastre,Catalan,Sounds/cat_pollastre.mp3,2020-06-05_12h52.55.642,TranslationElicitation_eng-prolific,3.2.4,MacIntel,60,5c70380bae7e770001d12831,5.301000118,1,0,81,63,1,80
,,,,,,,,,,,,,,,,,,,,,,,,,,,,,,,,,,,,,,,,,,,,,,,,,,,,171,pollastre,Catalan,Sounds/cat_pollastre.mp3,2020-06-05_12h52.55.642,TranslationElicitation_eng-prolific,3.2.4,MacIntel,60,5c70380bae7e770001d12831,,1,0,81,63,1,80
,,,,,,,,,,,,,,,,,,,,,,,,,,,,,,,,,,,,,,,,,,o,1.483999968,O,FALSE,,,,,,,125,colom,Catalan,Sounds/cat_colom.mp3,2020-06-05_12h52.55.642,TranslationElicitation_eng-prolific,3.2.4,MacIntel,60,5c70380bae7e770001d12831,,1,0,81,20,1,80
,,,,,,,,,,,,,,,,,,,,,,,,,,,,,,,,,,,,,,,,,,l,1.667999983,OL,FALSE,,,,,,,125,colom,Catalan,Sounds/cat_colom.mp3,2020-06-05_12h52.55.642,TranslationElicitation_eng-prolific,3.2.4,MacIntel,60,5c70380bae7e770001d12831,,1,0,81,20,1,80
,,,,,,,,,,,,,,,,,,,,,,,,,,,,,,,,,,,,,,,,,,o,1.851999998,OLO,FALSE,,,,,,,125,colom,Catalan,Sounds/cat_colom.mp3,2020-06-05_12h52.55.642,TranslationElicitation_eng-prolific,3.2.4,MacIntel,60,5c70380bae7e770001d12831,,1,0,81,20,1,80
,,,,,,,,,,,,,,,,,,,,,,,,,,,,,,,,,,,,,,,,,,backspace,2.151000023,OL,TRUE,,,,,,,125,colom,Catalan,Sounds/cat_colom.mp3,2020-06-05_12h52.55.642,TranslationElicitation_eng-prolific,3.2.4,MacIntel,60,5c70380bae7e770001d12831,,1,0,81,20,1,80
,,,,,,,,,,,,,,,,,,,,,,,,,,,,,,,,,,,,,,,,,,backspace,2.28399992,O,TRUE,,,,,,,125,colom,Catalan,Sounds/cat_colom.mp3,2020-06-05_12h52.55.642,TranslationElicitation_eng-prolific,3.2.4,MacIntel,60,5c70380bae7e770001d12831,,1,0,81,20,1,80
,,,,,,,,,,,,,,,,,,,,,,,,,,,,,,,,,,,,,,,,,,backspace,2.417999983,,TRUE,,,,,,,125,colom,Catalan,Sounds/cat_colom.mp3,2020-06-05_12h52.55.642,TranslationElicitation_eng-prolific,3.2.4,MacIntel,60,5c70380bae7e770001d12831,,1,0,81,20,1,80
,,,,,,,,,,,,,,,,,,,,,,,,,,,,,,,,,,,,,,,,,,c,2.552000046,C,TRUE,,,,,,,125,colom,Catalan,Sounds/cat_colom.mp3,2020-06-05_12h52.55.642,TranslationElicitation_eng-prolific,3.2.4,MacIntel,60,5c70380bae7e770001d12831,,1,0,81,20,1,80
,,,,,,,,,,,,,,,,,,,,,,,,,,,,,,,,,,,,,,,,,,o,2.618999958,CO,TRUE,,,,,,,125,colom,Catalan,Sounds/cat_colom.mp3,2020-06-05_12h52.55.642,TranslationElicitation_eng-prolific,3.2.4,MacIntel,60,5c70380bae7e770001d12831,,1,0,81,20,1,80
,,,,,,,,,,,,,,,,,,,,,,,,,,,,,,,,,,,,,,,,,,l,2.769000053,COL,TRUE,,,,,,,125,colom,Catalan,Sounds/cat_colom.mp3,2020-06-05_12h52.55.642,TranslationElicitation_eng-prolific,3.2.4,MacIntel,60,5c70380bae7e770001d12831,,1,0,81,20,1,80
,,,,,,,,,,,,,,,,,,,,,,,,,,,,,,,,,,,,,,,,,,o,2.901000023,COLO,TRUE,,,,,,,125,colom,Catalan,Sounds/cat_colom.mp3,2020-06-05_12h52.55.642,TranslationElicitation_eng-prolific,3.2.4,MacIntel,60,5c70380bae7e770001d12831,,1,0,81,20,1,80
,,,,,,,,,,,,,,,,,,,,,,,,,,,,,,,,,,,,,,,,,,u,3.05099988,COLOU,TRUE,,,,,,,125,colom,Catalan,Sounds/cat_colom.mp3,2020-06-05_12h52.55.642,TranslationElicitation_eng-prolific,3.2.4,MacIntel,60,5c70380bae7e770001d12831,,1,0,81,20,1,80
,,,,,,,,,,,,,,,,,,,,,,,,,,,,,,,,,,,,,,,,,,r,3.118000031,COLOUR,TRUE,,,,,,,125,colom,Catalan,Sounds/cat_colom.mp3,2020-06-05_12h52.55.642,TranslationElicitation_eng-prolific,3.2.4,MacIntel,60,5c70380bae7e770001d12831,,1,0,81,20,1,80
,,,,,,,,,,,,,,,,,,,,,,,,,,,,,,,,,,,,,,,,,,return,4.736000061,COLOUR,TRUE,,,,,,,125,colom,Catalan,Sounds/cat_colom.mp3,2020-06-05_12h52.55.642,TranslationElicitation_eng-prolific,3.2.4,MacIntel,60,5c70380bae7e770001d12831,4.736000061,1,0,81,20,1,80
,,,,,,,,,,,,,,,,,,,,,,,,,,,,,,,,,,,,,,,,,,,,,,,,,,,,125,colom,Catalan,Sounds/cat_colom.mp3,2020-06-05_12h52.55.642,TranslationElicitation_eng-prolific,3.2.4,MacIntel,60,5c70380bae7e770001d12831,,1,0,81,20,1,80
,,,,,,,,,,,,,,,,,,,,,,,,,,,,,,,,,,,,,,,,,,p,2.28399992,P,FALSE,,,,,,,174,porta,Catalan,Sounds/cat_porta.mp3,2020-06-05_12h52.55.642,TranslationElicitation_eng-prolific,3.2.4,MacIntel,60,5c70380bae7e770001d12831,,1,0,81,66,1,80
,,,,,,,,,,,,,,,,,,,,,,,,,,,,,,,,,,,,,,,,,,o,2.5,PO,FALSE,,,,,,,174,porta,Catalan,Sounds/cat_porta.mp3,2020-06-05_12h52.55.642,TranslationElicitation_eng-prolific,3.2.4,MacIntel,60,5c70380bae7e770001d12831,,1,0,81,66,1,80
,,,,,,,,,,,,,,,,,,,,,,,,,,,,,,,,,,,,,,,,,,r,2.566999912,POR,FALSE,,,,,,,174,porta,Catalan,Sounds/cat_porta.mp3,2020-06-05_12h52.55.642,TranslationElicitation_eng-prolific,3.2.4,MacIntel,60,5c70380bae7e770001d12831,,1,0,81,66,1,80
,,,,,,,,,,,,,,,,,,,,,,,,,,,,,,,,,,,,,,,,,,t,2.717999935,PORT,FALSE,,,,,,,174,porta,Catalan,Sounds/cat_porta.mp3,2020-06-05_12h52.55.642,TranslationElicitation_eng-prolific,3.2.4,MacIntel,60,5c70380bae7e770001d12831,,1,0,81,66,1,80
,,,,,,,,,,,,,,,,,,,,,,,,,,,,,,,,,,,,,,,,,,a,2.883999825,PORTA,FALSE,,,,,,,174,porta,Catalan,Sounds/cat_porta.mp3,2020-06-05_12h52.55.642,TranslationElicitation_eng-prolific,3.2.4,MacIntel,60,5c70380bae7e770001d12831,,1,0,81,66,1,80
,,,,,,,,,,,,,,,,,,,,,,,,,,,,,,,,,,,,,,,,,,b,2.921999931,PORTAB,FALSE,,,,,,,174,porta,Catalan,Sounds/cat_porta.mp3,2020-06-05_12h52.55.642,TranslationElicitation_eng-prolific,3.2.4,MacIntel,60,5c70380bae7e770001d12831,,1,0,81,66,1,80
,,,,,,,,,,,,,,,,,,,,,,,,,,,,,,,,,,,,,,,,,,l,3.101999998,PORTABL,FALSE,,,,,,,174,porta,Catalan,Sounds/cat_porta.mp3,2020-06-05_12h52.55.642,TranslationElicitation_eng-prolific,3.2.4,MacIntel,60,5c70380bae7e770001d12831,,1,0,81,66,1,80
,,,,,,,,,,,,,,,,,,,,,,,,,,,,,,,,,,,,,,,,,,e,3.167999983,PORTABLE,FALSE,,,,,,,174,porta,Catalan,Sounds/cat_porta.mp3,2020-06-05_12h52.55.642,TranslationElicitation_eng-prolific,3.2.4,MacIntel,60,5c70380bae7e770001d12831,,1,0,81,66,1,80
,,,,,,,,,,,,,,,,,,,,,,,,,,,,,,,,,,,,,,,,,,return,3.299999952,PORTABLE,FALSE,,,,,,,174,porta,Catalan,Sounds/cat_porta.mp3,2020-06-05_12h52.55.642,TranslationElicitation_eng-prolific,3.2.4,MacIntel,60,5c70380bae7e770001d12831,3.299999952,1,0,81,66,1,80
,,,,,,,,,,,,,,,,,,,,,,,,,,,,,,,,,,,,,,,,,,,,,,,,,,,,174,porta,Catalan,Sounds/cat_porta.mp3,2020-06-05_12h52.55.642,TranslationElicitation_eng-prolific,3.2.4,MacIntel,60,5c70380bae7e770001d12831,,1,0,81,66,1,80
,,,,,,,,,,,,,,,,,,,,,,,,,,,,,,,,,,,,,,,,,,p,2.034000158,P,FALSE,,,,,,,169,plat,Catalan,Sounds/cat_plat.mp3,2020-06-05_12h52.55.642,TranslationElicitation_eng-prolific,3.2.4,MacIntel,60,5c70380bae7e770001d12831,,1,0,81,61,1,80
,,,,,,,,,,,,,,,,,,,,,,,,,,,,,,,,,,,,,,,,,,l,2.167000055,PL,FALSE,,,,,,,169,plat,Catalan,Sounds/cat_plat.mp3,2020-06-05_12h52.55.642,TranslationElicitation_eng-prolific,3.2.4,MacIntel,60,5c70380bae7e770001d12831,,1,0,81,61,1,80
,,,,,,,,,,,,,,,,,,,,,,,,,,,,,,,,,,,,,,,,,,a,2.249000072,PLA,FALSE,,,,,,,169,plat,Catalan,Sounds/cat_plat.mp3,2020-06-05_12h52.55.642,TranslationElicitation_eng-prolific,3.2.4,MacIntel,60,5c70380bae7e770001d12831,,1,0,81,61,1,80
,,,,,,,,,,,,,,,,,,,,,,,,,,,,,,,,,,,,,,,,,,i,2.333000183,PLAI,FALSE,,,,,,,169,plat,Catalan,Sounds/cat_plat.mp3,2020-06-05_12h52.55.642,TranslationElicitation_eng-prolific,3.2.4,MacIntel,60,5c70380bae7e770001d12831,,1,0,81,61,1,80
,,,,,,,,,,,,,,,,,,,,,,,,,,,,,,,,,,,,,,,,,,t,2.433000088,PLAIT,FALSE,,,,,,,169,plat,Catalan,Sounds/cat_plat.mp3,2020-06-05_12h52.55.642,TranslationElicitation_eng-prolific,3.2.4,MacIntel,60,5c70380bae7e770001d12831,,1,0,81,61,1,80
,,,,,,,,,,,,,,,,,,,,,,,,,,,,,,,,,,,,,,,,,,return,2.551000118,PLAIT,FALSE,,,,,,,169,plat,Catalan,Sounds/cat_plat.mp3,2020-06-05_12h52.55.642,TranslationElicitation_eng-prolific,3.2.4,MacIntel,60,5c70380bae7e770001d12831,2.551000118,1,0,81,61,1,80
,,,,,,,,,,,,,,,,,,,,,,,,,,,,,,,,,,,,,,,,,,,,,,,,,,,,169,plat,Catalan,Sounds/cat_plat.mp3,2020-06-05_12h52.55.642,TranslationElicitation_eng-prolific,3.2.4,MacIntel,60,5c70380bae7e770001d12831,,1,0,81,61,1,80
,,,,,,,,,,,,,,,,,,,,,,,,,,,,,,,,,,,,,,,,,,p,1.646999836,P,FALSE,,,,,,,168,planta,Catalan,Sounds/cat_planta.mp3,2020-06-05_12h52.55.642,TranslationElicitation_eng-prolific,3.2.4,MacIntel,60,5c70380bae7e770001d12831,,1,0,81,60,1,80
,,,,,,,,,,,,,,,,,,,,,,,,,,,,,,,,,,,,,,,,,,l,1.797999859,PL,FALSE,,,,,,,168,planta,Catalan,Sounds/cat_planta.mp3,2020-06-05_12h52.55.642,TranslationElicitation_eng-prolific,3.2.4,MacIntel,60,5c70380bae7e770001d12831,,1,0,81,60,1,80
,,,,,,,,,,,,,,,,,,,,,,,,,,,,,,,,,,,,,,,,,,a,1.86500001,PLA,FALSE,,,,,,,168,planta,Catalan,Sounds/cat_planta.mp3,2020-06-05_12h52.55.642,TranslationElicitation_eng-prolific,3.2.4,MacIntel,60,5c70380bae7e770001d12831,,1,0,81,60,1,80
,,,,,,,,,,,,,,,,,,,,,,,,,,,,,,,,,,,,,,,,,,n,1.947999954,PLAN,FALSE,,,,,,,168,planta,Catalan,Sounds/cat_planta.mp3,2020-06-05_12h52.55.642,TranslationElicitation_eng-prolific,3.2.4,MacIntel,60,5c70380bae7e770001d12831,,1,0,81,60,1,80
,,,,,,,,,,,,,,,,,,,,,,,,,,,,,,,,,,,,,,,,,,t,2.031999826,PLANT,FALSE,,,,,,,168,planta,Catalan,Sounds/cat_planta.mp3,2020-06-05_12h52.55.642,TranslationElicitation_eng-prolific,3.2.4,MacIntel,60,5c70380bae7e770001d12831,,1,0,81,60,1,80
,,,,,,,,,,,,,,,,,,,,,,,,,,,,,,,,,,,,,,,,,,return,2.148999929,PLANT,FALSE,,,,,,,168,planta,Catalan,Sounds/cat_planta.mp3,2020-06-05_12h52.55.642,TranslationElicitation_eng-prolific,3.2.4,MacIntel,60,5c70380bae7e770001d12831,2.148999929,1,0,81,60,1,80
,,,,,,,,,,,,,,,,,,,,,,,,,,,,,,,,,,,,,,,,,,,,,,,,,,,,168,planta,Catalan,Sounds/cat_planta.mp3,2020-06-05_12h52.55.642,TranslationElicitation_eng-prolific,3.2.4,MacIntel,60,5c70380bae7e770001d12831,,1,0,81,60,1,80
,,,,,,,,,,,,,,,,,,,,,,,,,,,,,,,,,,,,,,,,,,s,4.017999887,S,FALSE,,,,,,,132,estrella,Catalan,Sounds/cat_estrella.mp3,2020-06-05_12h52.55.642,TranslationElicitation_eng-prolific,3.2.4,MacIntel,60,5c70380bae7e770001d12831,,1,0,81,26,1,80
,,,,,,,,,,,,,,,,,,,,,,,,,,,,,,,,,,,,,,,,,,t,4.184000015,ST,FALSE,,,,,,,132,estrella,Catalan,Sounds/cat_estrella.mp3,2020-06-05_12h52.55.642,TranslationElicitation_eng-prolific,3.2.4,MacIntel,60,5c70380bae7e770001d12831,,1,0,81,26,1,80
,,,,,,,,,,,,,,,,,,,,,,,,,,,,,,,,,,,,,,,,,,r,4.316999912,STR,FALSE,,,,,,,132,estrella,Catalan,Sounds/cat_estrella.mp3,2020-06-05_12h52.55.642,TranslationElicitation_eng-prolific,3.2.4,MacIntel,60,5c70380bae7e770001d12831,,1,0,81,26,1,80
,,,,,,,,,,,,,,,,,,,,,,,,,,,,,,,,,,,,,,,,,,i,4.384000063,STRI,FALSE,,,,,,,132,estrella,Catalan,Sounds/cat_estrella.mp3,2020-06-05_12h52.55.642,TranslationElicitation_eng-prolific,3.2.4,MacIntel,60,5c70380bae7e770001d12831,,1,0,81,26,1,80
,,,,,,,,,,,,,,,,,,,,,,,,,,,,,,,,,,,,,,,,,,n,4.517999887,STRIN,FALSE,,,,,,,132,estrella,Catalan,Sounds/cat_estrella.mp3,2020-06-05_12h52.55.642,TranslationElicitation_eng-prolific,3.2.4,MacIntel,60,5c70380bae7e770001d12831,,1,0,81,26,1,80
,,,,,,,,,,,,,,,,,,,,,,,,,,,,,,,,,,,,,,,,,,g,4.568000078,STRING,FALSE,,,,,,,132,estrella,Catalan,Sounds/cat_estrella.mp3,2020-06-05_12h52.55.642,TranslationElicitation_eng-prolific,3.2.4,MacIntel,60,5c70380bae7e770001d12831,,1,0,81,26,1,80
,,,,,,,,,,,,,,,,,,,,,,,,,,,,,,,,,,,,,,,,,,return,4.700999975,STRING,FALSE,,,,,,,132,estrella,Catalan,Sounds/cat_estrella.mp3,2020-06-05_12h52.55.642,TranslationElicitation_eng-prolific,3.2.4,MacIntel,60,5c70380bae7e770001d12831,4.700999975,1,0,81,26,1,80
,,,,,,,,,,,,,,,,,,,,,,,,,,,,,,,,,,,,,,,,,,,,,,,,,,,,132,estrella,Catalan,Sounds/cat_estrella.mp3,2020-06-05_12h52.55.642,TranslationElicitation_eng-prolific,3.2.4,MacIntel,60,5c70380bae7e770001d12831,,1,0,81,26,1,80
,,,,,,,,,,,,,,,,,,,,,,,,,,,,,,,,,,,,,,,,,,m,2.335000038,M,FALSE,,,,,,,151,lluna,Catalan,Sounds/cat_lluna.mp3,2020-06-05_12h52.55.642,TranslationElicitation_eng-prolific,3.2.4,MacIntel,60,5c70380bae7e770001d12831,,1,0,81,44,1,80
,,,,,,,,,,,,,,,,,,,,,,,,,,,,,,,,,,,,,,,,,,o,2.518000126,MO,FALSE,,,,,,,151,lluna,Catalan,Sounds/cat_lluna.mp3,2020-06-05_12h52.55.642,TranslationElicitation_eng-prolific,3.2.4,MacIntel,60,5c70380bae7e770001d12831,,1,0,81,44,1,80
,,,,,,,,,,,,,,,,,,,,,,,,,,,,,,,,,,,,,,,,,,o,2.901000023,MOO,FALSE,,,,,,,151,lluna,Catalan,Sounds/cat_lluna.mp3,2020-06-05_12h52.55.642,TranslationElicitation_eng-prolific,3.2.4,MacIntel,60,5c70380bae7e770001d12831,,1,0,81,44,1,80
,,,,,,,,,,,,,,,,,,,,,,,,,,,,,,,,,,,,,,,,,,n,3.068000078,MOON,FALSE,,,,,,,151,lluna,Catalan,Sounds/cat_lluna.mp3,2020-06-05_12h52.55.642,TranslationElicitation_eng-prolific,3.2.4,MacIntel,60,5c70380bae7e770001d12831,,1,0,81,44,1,80
,,,,,,,,,,,,,,,,,,,,,,,,,,,,,,,,,,,,,,,,,,return,3.235000134,MOON,FALSE,,,,,,,151,lluna,Catalan,Sounds/cat_lluna.mp3,2020-06-05_12h52.55.642,TranslationElicitation_eng-prolific,3.2.4,MacIntel,60,5c70380bae7e770001d12831,3.235000134,1,0,81,44,1,80
,,,,,,,,,,,,,,,,,,,,,,,,,,,,,,,,,,,,,,,,,,,,,,,,,,,,151,lluna,Catalan,Sounds/cat_lluna.mp3,2020-06-05_12h52.55.642,TranslationElicitation_eng-prolific,3.2.4,MacIntel,60,5c70380bae7e770001d12831,,1,0,81,44,1,80
,,,,,,,,,,,,,,,,,,,,,,,,,,,,,,,,,,,,,,,,,,m,6.118000031,M,FALSE,,,,,,,160,orella,Catalan,Sounds/cat_orella.mp3,2020-06-05_12h52.55.642,TranslationElicitation_eng-prolific,3.2.4,MacIntel,60,5c70380bae7e770001d12831,,1,0,81,52,1,80
,,,,,,,,,,,,,,,,,,,,,,,,,,,,,,,,,,,,,,,,,,o,6.167999983,MO,FALSE,,,,,,,160,orella,Catalan,Sounds/cat_orella.mp3,2020-06-05_12h52.55.642,TranslationElicitation_eng-prolific,3.2.4,MacIntel,60,5c70380bae7e770001d12831,,1,0,81,52,1,80
,,,,,,,,,,,,,,,,,,,,,,,,,,,,,,,,,,,,,,,,,,n,6.484999895,MON,FALSE,,,,,,,160,orella,Catalan,Sounds/cat_orella.mp3,2020-06-05_12h52.55.642,TranslationElicitation_eng-prolific,3.2.4,MacIntel,60,5c70380bae7e770001d12831,,1,0,81,52,1,80
,,,,,,,,,,,,,,,,,,,,,,,,,,,,,,,,,,,,,,,,,,t,6.534999847,MONT,FALSE,,,,,,,160,orella,Catalan,Sounds/cat_orella.mp3,2020-06-05_12h52.55.642,TranslationElicitation_eng-prolific,3.2.4,MacIntel,60,5c70380bae7e770001d12831,,1,0,81,52,1,80
,,,,,,,,,,,,,,,,,,,,,,,,,,,,,,,,,,,,,,,,,,backspace,6.720000029,MON,TRUE,,,,,,,160,orella,Catalan,Sounds/cat_orella.mp3,2020-06-05_12h52.55.642,TranslationElicitation_eng-prolific,3.2.4,MacIntel,60,5c70380bae7e770001d12831,,1,0,81,52,1,80
,,,,,,,,,,,,,,,,,,,,,,,,,,,,,,,,,,,,,,,,,,backspace,6.835999966,MO,TRUE,,,,,,,160,orella,Catalan,Sounds/cat_orella.mp3,2020-06-05_12h52.55.642,TranslationElicitation_eng-prolific,3.2.4,MacIntel,60,5c70380bae7e770001d12831,,1,0,81,52,1,80
,,,,,,,,,,,,,,,,,,,,,,,,,,,,,,,,,,,,,,,,,,u,6.985999823,MOU,TRUE,,,,,,,160,orella,Catalan,Sounds/cat_orella.mp3,2020-06-05_12h52.55.642,TranslationElicitation_eng-prolific,3.2.4,MacIntel,60,5c70380bae7e770001d12831,,1,0,81,52,1,80
,,,,,,,,,,,,,,,,,,,,,,,,,,,,,,,,,,,,,,,,,,n,7.135999918,MOUN,TRUE,,,,,,,160,orella,Catalan,Sounds/cat_orella.mp3,2020-06-05_12h52.55.642,TranslationElicitation_eng-prolific,3.2.4,MacIntel,60,5c70380bae7e770001d12831,,1,0,81,52,1,80
,,,,,,,,,,,,,,,,,,,,,,,,,,,,,,,,,,,,,,,,,,t,7.201999903,MOUNT,TRUE,,,,,,,160,orella,Catalan,Sounds/cat_orella.mp3,2020-06-05_12h52.55.642,TranslationElicitation_eng-prolific,3.2.4,MacIntel,60,5c70380bae7e770001d12831,,1,0,81,52,1,80
,,,,,,,,,,,,,,,,,,,,,,,,,,,,,,,,,,,,,,,,,,a,7.350999832,MOUNTA,TRUE,,,,,,,160,orella,Catalan,Sounds/cat_orella.mp3,2020-06-05_12h52.55.642,TranslationElicitation_eng-prolific,3.2.4,MacIntel,60,5c70380bae7e770001d12831,,1,0,81,52,1,80
,,,,,,,,,,,,,,,,,,,,,,,,,,,,,,,,,,,,,,,,,,i,7.40199995,MOUNTAI,TRUE,,,,,,,160,orella,Catalan,Sounds/cat_orella.mp3,2020-06-05_12h52.55.642,TranslationElicitation_eng-prolific,3.2.4,MacIntel,60,5c70380bae7e770001d12831,,1,0,81,52,1,80
,,,,,,,,,,,,,,,,,,,,,,,,,,,,,,,,,,,,,,,,,,n,7.534999847,MOUNTAIN,TRUE,,,,,,,160,orella,Catalan,Sounds/cat_orella.mp3,2020-06-05_12h52.55.642,TranslationElicitation_eng-prolific,3.2.4,MacIntel,60,5c70380bae7e770001d12831,,1,0,81,52,1,80
,,,,,,,,,,,,,,,,,,,,,,,,,,,,,,,,,,,,,,,,,,return,7.68599987,MOUNTAIN,TRUE,,,,,,,160,orella,Catalan,Sounds/cat_orella.mp3,2020-06-05_12h52.55.642,TranslationElicitation_eng-prolific,3.2.4,MacIntel,60,5c70380bae7e770001d12831,7.68599987,1,0,81,52,1,80
,,,,,,,,,,,,,,,,,,,,,,,,,,,,,,,,,,,,,,,,,,,,,,,,,,,,160,orella,Catalan,Sounds/cat_orella.mp3,2020-06-05_12h52.55.642,TranslationElicitation_eng-prolific,3.2.4,MacIntel,60,5c70380bae7e770001d12831,,1,0,81,52,1,80
,,,,,,,,,,,,,,,,,,,,,,,,,,,,,,,,,,,,,,,,,,f,3.55099988,F,FALSE,,,,,,,136,forquilla,Catalan,Sounds/cat_forquilla.mp3,2020-06-05_12h52.55.642,TranslationElicitation_eng-prolific,3.2.4,MacIntel,60,5c70380bae7e770001d12831,,1,0,81,30,1,80
,,,,,,,,,,,,,,,,,,,,,,,,,,,,,,,,,,,,,,,,,,o,3.632999897,FO,FALSE,,,,,,,136,forquilla,Catalan,Sounds/cat_forquilla.mp3,2020-06-05_12h52.55.642,TranslationElicitation_eng-prolific,3.2.4,MacIntel,60,5c70380bae7e770001d12831,,1,0,81,30,1,80
,,,,,,,,,,,,,,,,,,,,,,,,,,,,,,,,,,,,,,,,,,r,3.715999842,FOR,FALSE,,,,,,,136,forquilla,Catalan,Sounds/cat_forquilla.mp3,2020-06-05_12h52.55.642,TranslationElicitation_eng-prolific,3.2.4,MacIntel,60,5c70380bae7e770001d12831,,1,0,81,30,1,80
,,,,,,,,,,,,,,,,,,,,,,,,,,,,,,,,,,,,,,,,,,g,3.867999792,FORG,FALSE,,,,,,,136,forquilla,Catalan,Sounds/cat_forquilla.mp3,2020-06-05_12h52.55.642,TranslationElicitation_eng-prolific,3.2.4,MacIntel,60,5c70380bae7e770001d12831,,1,0,81,30,1,80
,,,,,,,,,,,,,,,,,,,,,,,,,,,,,,,,,,,,,,,,,,o,3.932999849,FORGO,FALSE,,,,,,,136,forquilla,Catalan,Sounds/cat_forquilla.mp3,2020-06-05_12h52.55.642,TranslationElicitation_eng-prolific,3.2.4,MacIntel,60,5c70380bae7e770001d12831,,1,0,81,30,1,80
,,,,,,,,,,,,,,,,,,,,,,,,,,,,,,,,,,,,,,,,,,t,4.015999794,FORGOT,FALSE,,,,,,,136,forquilla,Catalan,Sounds/cat_forquilla.mp3,2020-06-05_12h52.55.642,TranslationElicitation_eng-prolific,3.2.4,MacIntel,60,5c70380bae7e770001d12831,,1,0,81,30,1,80
,,,,,,,,,,,,,,,,,,,,,,,,,,,,,,,,,,,,,,,,,,return,4.167999983,FORGOT,FALSE,,,,,,,136,forquilla,Catalan,Sounds/cat_forquilla.mp3,2020-06-05_12h52.55.642,TranslationElicitation_eng-prolific,3.2.4,MacIntel,60,5c70380bae7e770001d12831,4.167999983,1,0,81,30,1,80
,,,,,,,,,,,,,,,,,,,,,,,,,,,,,,,,,,,,,,,,,,,,,,,,,,,,136,forquilla,Catalan,Sounds/cat_forquilla.mp3,2020-06-05_12h52.55.642,TranslationElicitation_eng-prolific,3.2.4,MacIntel,60,5c70380bae7e770001d12831,,1,0,81,30,1,80
,,,,,,,,,,,,,,,,,,,,,,,,,,,,,,,,,,,,,,,,,,e,1.450999975,E,FALSE,,,,,,,167,pingui,Catalan,Sounds/cat_pingui.mp3,2020-06-05_12h52.55.642,TranslationElicitation_eng-prolific,3.2.4,MacIntel,60,5c70380bae7e770001d12831,,1,0,81,59,1,80
,,,,,,,,,,,,,,,,,,,,,,,,,,,,,,,,,,,,,,,,,,n,1.551000118,EN,FALSE,,,,,,,167,pingui,Catalan,Sounds/cat_pingui.mp3,2020-06-05_12h52.55.642,TranslationElicitation_eng-prolific,3.2.4,MacIntel,60,5c70380bae7e770001d12831,,1,0,81,59,1,80
,,,,,,,,,,,,,,,,,,,,,,,,,,,,,,,,,,,,,,,,,,g,1.752000093,ENG,FALSE,,,,,,,167,pingui,Catalan,Sounds/cat_pingui.mp3,2020-06-05_12h52.55.642,TranslationElicitation_eng-prolific,3.2.4,MacIntel,60,5c70380bae7e770001d12831,,1,0,81,59,1,80
,,,,,,,,,,,,,,,,,,,,,,,,,,,,,,,,,,,,,,,,,,backspace,2.035000086,EN,TRUE,,,,,,,167,pingui,Catalan,Sounds/cat_pingui.mp3,2020-06-05_12h52.55.642,TranslationElicitation_eng-prolific,3.2.4,MacIntel,60,5c70380bae7e770001d12831,,1,0,81,59,1,80
,,,,,,,,,,,,,,,,,,,,,,,,,,,,,,,,,,,,,,,,,,backspace,2.150000095,E,TRUE,,,,,,,167,pingui,Catalan,Sounds/cat_pingui.mp3,2020-06-05_12h52.55.642,TranslationElicitation_eng-prolific,3.2.4,MacIntel,60,5c70380bae7e770001d12831,,1,0,81,59,1,80
,,,,,,,,,,,,,,,,,,,,,,,,,,,,,,,,,,,,,,,,,,backspace,2.285000086,,TRUE,,,,,,,167,pingui,Catalan,Sounds/cat_pingui.mp3,2020-06-05_12h52.55.642,TranslationElicitation_eng-prolific,3.2.4,MacIntel,60,5c70380bae7e770001d12831,,1,0,81,59,1,80
,,,,,,,,,,,,,,,,,,,,,,,,,,,,,,,,,,,,,,,,,,p,2.417999983,P,TRUE,,,,,,,167,pingui,Catalan,Sounds/cat_pingui.mp3,2020-06-05_12h52.55.642,TranslationElicitation_eng-prolific,3.2.4,MacIntel,60,5c70380bae7e770001d12831,,1,0,81,59,1,80
,,,,,,,,,,,,,,,,,,,,,,,,,,,,,,,,,,,,,,,,,,e,2.535000086,PE,TRUE,,,,,,,167,pingui,Catalan,Sounds/cat_pingui.mp3,2020-06-05_12h52.55.642,TranslationElicitation_eng-prolific,3.2.4,MacIntel,60,5c70380bae7e770001d12831,,1,0,81,59,1,80
,,,,,,,,,,,,,,,,,,,,,,,,,,,,,,,,,,,,,,,,,,n,2.63499999,PEN,TRUE,,,,,,,167,pingui,Catalan,Sounds/cat_pingui.mp3,2020-06-05_12h52.55.642,TranslationElicitation_eng-prolific,3.2.4,MacIntel,60,5c70380bae7e770001d12831,,1,0,81,59,1,80
,,,,,,,,,,,,,,,,,,,,,,,,,,,,,,,,,,,,,,,,,,g,2.785000086,PENG,TRUE,,,,,,,167,pingui,Catalan,Sounds/cat_pingui.mp3,2020-06-05_12h52.55.642,TranslationElicitation_eng-prolific,3.2.4,MacIntel,60,5c70380bae7e770001d12831,,1,0,81,59,1,80
,,,,,,,,,,,,,,,,,,,,,,,,,,,,,,,,,,,,,,,,,,u,2.853000164,PENGU,TRUE,,,,,,,167,pingui,Catalan,Sounds/cat_pingui.mp3,2020-06-05_12h52.55.642,TranslationElicitation_eng-prolific,3.2.4,MacIntel,60,5c70380bae7e770001d12831,,1,0,81,59,1,80
,,,,,,,,,,,,,,,,,,,,,,,,,,,,,,,,,,,,,,,,,,i,2.919000149,PENGUI,TRUE,,,,,,,167,pingui,Catalan,Sounds/cat_pingui.mp3,2020-06-05_12h52.55.642,TranslationElicitation_eng-prolific,3.2.4,MacIntel,60,5c70380bae7e770001d12831,,1,0,81,59,1,80
,,,,,,,,,,,,,,,,,,,,,,,,,,,,,,,,,,,,,,,,,,n,3.101999998,PENGUIN,TRUE,,,,,,,167,pingui,Catalan,Sounds/cat_pingui.mp3,2020-06-05_12h52.55.642,TranslationElicitation_eng-prolific,3.2.4,MacIntel,60,5c70380bae7e770001d12831,,1,0,81,59,1,80
,,,,,,,,,,,,,,,,,,,,,,,,,,,,,,,,,,,,,,,,,,return,4.070000172,PENGUIN,TRUE,,,,,,,167,pingui,Catalan,Sounds/cat_pingui.mp3,2020-06-05_12h52.55.642,TranslationElicitation_eng-prolific,3.2.4,MacIntel,60,5c70380bae7e770001d12831,4.070000172,1,0,81,59,1,80
,,,,,,,,,,,,,,,,,,,,,,,,,,,,,,,,,,,,,,,,,,,,,,,,,,,,167,pingui,Catalan,Sounds/cat_pingui.mp3,2020-06-05_12h52.55.642,TranslationElicitation_eng-prolific,3.2.4,MacIntel,60,5c70380bae7e770001d12831,,1,0,81,59,1,80
,,,,,,,,,,,,,,,,,,,,,,,,,,,,,,,,,,,,,,,,,,t,2.335999966,T,FALSE,,,,,,,183,tren,Catalan,Sounds/cat_tren.mp3,2020-06-05_12h52.55.642,TranslationElicitation_eng-prolific,3.2.4,MacIntel,60,5c70380bae7e770001d12831,,1,0,81,74,1,80
,,,,,,,,,,,,,,,,,,,,,,,,,,,,,,,,,,,,,,,,,,e,2.486000061,TE,FALSE,,,,,,,183,tren,Catalan,Sounds/cat_tren.mp3,2020-06-05_12h52.55.642,TranslationElicitation_eng-prolific,3.2.4,MacIntel,60,5c70380bae7e770001d12831,,1,0,81,74,1,80
,,,,,,,,,,,,,,,,,,,,,,,,,,,,,,,,,,,,,,,,,,n,2.568000078,TEN,FALSE,,,,,,,183,tren,Catalan,Sounds/cat_tren.mp3,2020-06-05_12h52.55.642,TranslationElicitation_eng-prolific,3.2.4,MacIntel,60,5c70380bae7e770001d12831,,1,0,81,74,1,80
,,,,,,,,,,,,,,,,,,,,,,,,,,,,,,,,,,,,,,,,,,return,2.769000053,TEN,FALSE,,,,,,,183,tren,Catalan,Sounds/cat_tren.mp3,2020-06-05_12h52.55.642,TranslationElicitation_eng-prolific,3.2.4,MacIntel,60,5c70380bae7e770001d12831,2.769000053,1,0,81,74,1,80
,,,,,,,,,,,,,,,,,,,,,,,,,,,,,,,,,,,,,,,,,,,,,,,,,,,,183,tren,Catalan,Sounds/cat_tren.mp3,2020-06-05_12h52.55.642,TranslationElicitation_eng-prolific,3.2.4,MacIntel,60,5c70380bae7e770001d12831,,1,0,81,74,1,80
,,,,,,,,,,,,,,,,,,,,,,,,,,,,,,,,,,,,,,,,,,b,2.132999897,B,FALSE,,,,,,,144,gorra,Catalan,Sounds/cat_gorra.mp3,2020-06-05_12h52.55.642,TranslationElicitation_eng-prolific,3.2.4,MacIntel,60,5c70380bae7e770001d12831,,1,0,81,38,1,80
,,,,,,,,,,,,,,,,,,,,,,,,,,,,,,,,,,,,,,,,,,i,2.200999975,BI,FALSE,,,,,,,144,gorra,Catalan,Sounds/cat_gorra.mp3,2020-06-05_12h52.55.642,TranslationElicitation_eng-prolific,3.2.4,MacIntel,60,5c70380bae7e770001d12831,,1,0,81,38,1,80
,,,,,,,,,,,,,,,,,,,,,,,,,,,,,,,,,,,,,,,,,,g,2.250999928,BIG,FALSE,,,,,,,144,gorra,Catalan,Sounds/cat_gorra.mp3,2020-06-05_12h52.55.642,TranslationElicitation_eng-prolific,3.2.4,MacIntel,60,5c70380bae7e770001d12831,,1,0,81,38,1,80
,,,,,,,,,,,,,,,,,,,,,,,,,,,,,,,,,,,,,,,,,,return,2.450000048,BIG,FALSE,,,,,,,144,gorra,Catalan,Sounds/cat_gorra.mp3,2020-06-05_12h52.55.642,TranslationElicitation_eng-prolific,3.2.4,MacIntel,60,5c70380bae7e770001d12831,2.450000048,1,0,81,38,1,80
,,,,,,,,,,,,,,,,,,,,,,,,,,,,,,,,,,,,,,,,,,,,,,,,,,,,144,gorra,Catalan,Sounds/cat_gorra.mp3,2020-06-05_12h52.55.642,TranslationElicitation_eng-prolific,3.2.4,MacIntel,60,5c70380bae7e770001d12831,,1,0,81,38,1,80
,,,,,,,,,,,,,,,,,,,,,,,,,,,,,,,,,,,,,,,,,,p,1.267999887,P,FALSE,,,,,,,164,patata,Catalan,Sounds/cat_patata.mp3,2020-06-05_12h52.55.642,TranslationElicitation_eng-prolific,3.2.4,MacIntel,60,5c70380bae7e770001d12831,,1,0,81,56,1,80
,,,,,,,,,,,,,,,,,,,,,,,,,,,,,,,,,,,,,,,,,,o,1.417000055,PO,FALSE,,,,,,,164,patata,Catalan,Sounds/cat_patata.mp3,2020-06-05_12h52.55.642,TranslationElicitation_eng-prolific,3.2.4,MacIntel,60,5c70380bae7e770001d12831,,1,0,81,56,1,80
,,,,,,,,,,,,,,,,,,,,,,,,,,,,,,,,,,,,,,,,,,t,1.517999887,POT,FALSE,,,,,,,164,patata,Catalan,Sounds/cat_patata.mp3,2020-06-05_12h52.55.642,TranslationElicitation_eng-prolific,3.2.4,MacIntel,60,5c70380bae7e770001d12831,,1,0,81,56,1,80
,,,,,,,,,,,,,,,,,,,,,,,,,,,,,,,,,,,,,,,,,,a,1.700999975,POTA,FALSE,,,,,,,164,patata,Catalan,Sounds/cat_patata.mp3,2020-06-05_12h52.55.642,TranslationElicitation_eng-prolific,3.2.4,MacIntel,60,5c70380bae7e770001d12831,,1,0,81,56,1,80
,,,,,,,,,,,,,,,,,,,,,,,,,,,,,,,,,,,,,,,,,,t,1.868000031,POTAT,FALSE,,,,,,,164,patata,Catalan,Sounds/cat_patata.mp3,2020-06-05_12h52.55.642,TranslationElicitation_eng-prolific,3.2.4,MacIntel,60,5c70380bae7e770001d12831,,1,0,81,56,1,80
,,,,,,,,,,,,,,,,,,,,,,,,,,,,,,,,,,,,,,,,,,o,1.934000015,POTATO,FALSE,,,,,,,164,patata,Catalan,Sounds/cat_patata.mp3,2020-06-05_12h52.55.642,TranslationElicitation_eng-prolific,3.2.4,MacIntel,60,5c70380bae7e770001d12831,,1,0,81,56,1,80
,,,,,,,,,,,,,,,,,,,,,,,,,,,,,,,,,,,,,,,,,,e,2.05099988,POTATOE,FALSE,,,,,,,164,patata,Catalan,Sounds/cat_patata.mp3,2020-06-05_12h52.55.642,TranslationElicitation_eng-prolific,3.2.4,MacIntel,60,5c70380bae7e770001d12831,,1,0,81,56,1,80
,,,,,,,,,,,,,,,,,,,,,,,,,,,,,,,,,,,,,,,,,,backspace,2.950999975,POTATO,TRUE,,,,,,,164,patata,Catalan,Sounds/cat_patata.mp3,2020-06-05_12h52.55.642,TranslationElicitation_eng-prolific,3.2.4,MacIntel,60,5c70380bae7e770001d12831,,1,0,81,56,1,80
,,,,,,,,,,,,,,,,,,,,,,,,,,,,,,,,,,,,,,,,,,return,3.13499999,POTATO,TRUE,,,,,,,164,patata,Catalan,Sounds/cat_patata.mp3,2020-06-05_12h52.55.642,TranslationElicitation_eng-prolific,3.2.4,MacIntel,60,5c70380bae7e770001d12831,3.13499999,1,0,81,56,1,80
,,,,,,,,,,,,,,,,,,,,,,,,,,,,,,,,,,,,,,,,,,,,,,,,,,,,164,patata,Catalan,Sounds/cat_patata.mp3,2020-06-05_12h52.55.642,TranslationElicitation_eng-prolific,3.2.4,MacIntel,60,5c70380bae7e770001d12831,,1,0,81,56,1,80
,,,,,,,,,,,,,,,,,,,,,,,,,,,,,,,,,,,,,,,,,,n,2.282000065,N,FALSE,,,,,,,153,mico,Catalan,Sounds/cat_mico.mp3,2020-06-05_12h52.55.642,TranslationElicitation_eng-prolific,3.2.4,MacIntel,60,5c70380bae7e770001d12831,,1,0,81,46,1,80
,,,,,,,,,,,,,,,,,,,,,,,,,,,,,,,,,,,,,,,,,,i,2.332999945,NI,FALSE,,,,,,,153,mico,Catalan,Sounds/cat_mico.mp3,2020-06-05_12h52.55.642,TranslationElicitation_eng-prolific,3.2.4,MacIntel,60,5c70380bae7e770001d12831,,1,0,81,46,1,80
,,,,,,,,,,,,,,,,,,,,,,,,,,,,,,,,,,,,,,,,,,c,2.5,NIC,FALSE,,,,,,,153,mico,Catalan,Sounds/cat_mico.mp3,2020-06-05_12h52.55.642,TranslationElicitation_eng-prolific,3.2.4,MacIntel,60,5c70380bae7e770001d12831,,1,0,81,46,1,80
,,,,,,,,,,,,,,,,,,,,,,,,,,,,,,,,,,,,,,,,,,o,2.582999945,NICO,FALSE,,,,,,,153,mico,Catalan,Sounds/cat_mico.mp3,2020-06-05_12h52.55.642,TranslationElicitation_eng-prolific,3.2.4,MacIntel,60,5c70380bae7e770001d12831,,1,0,81,46,1,80
,,,,,,,,,,,,,,,,,,,,,,,,,,,,,,,,,,,,,,,,,,backspace,3.100000143,NIC,TRUE,,,,,,,153,mico,Catalan,Sounds/cat_mico.mp3,2020-06-05_12h52.55.642,TranslationElicitation_eng-prolific,3.2.4,MacIntel,60,5c70380bae7e770001d12831,,1,0,81,46,1,80
,,,,,,,,,,,,,,,,,,,,,,,,,,,,,,,,,,,,,,,,,,backspace,3.23300004,NI,TRUE,,,,,,,153,mico,Catalan,Sounds/cat_mico.mp3,2020-06-05_12h52.55.642,TranslationElicitation_eng-prolific,3.2.4,MacIntel,60,5c70380bae7e770001d12831,,1,0,81,46,1,80
,,,,,,,,,,,,,,,,,,,,,,,,,,,,,,,,,,,,,,,,,,backspace,3.367000103,N,TRUE,,,,,,,153,mico,Catalan,Sounds/cat_mico.mp3,2020-06-05_12h52.55.642,TranslationElicitation_eng-prolific,3.2.4,MacIntel,60,5c70380bae7e770001d12831,,1,0,81,46,1,80
,,,,,,,,,,,,,,,,,,,,,,,,,,,,,,,,,,,,,,,,,,backspace,3.51699996,,TRUE,,,,,,,153,mico,Catalan,Sounds/cat_mico.mp3,2020-06-05_12h52.55.642,TranslationElicitation_eng-prolific,3.2.4,MacIntel,60,5c70380bae7e770001d12831,,1,0,81,46,1,80
,,,,,,,,,,,,,,,,,,,,,,,,,,,,,,,,,,,,,,,,,,n,3.751000166,N,TRUE,,,,,,,153,mico,Catalan,Sounds/cat_mico.mp3,2020-06-05_12h52.55.642,TranslationElicitation_eng-prolific,3.2.4,MacIntel,60,5c70380bae7e770001d12831,,1,0,81,46,1,80
,,,,,,,,,,,,,,,,,,,,,,,,,,,,,,,,,,,,,,,,,,i,3.835000038,NI,TRUE,,,,,,,153,mico,Catalan,Sounds/cat_mico.mp3,2020-06-05_12h52.55.642,TranslationElicitation_eng-prolific,3.2.4,MacIntel,60,5c70380bae7e770001d12831,,1,0,81,46,1,80
,,,,,,,,,,,,,,,,,,,,,,,,,,,,,,,,,,,,,,,,,,c,3.933000088,NIC,TRUE,,,,,,,153,mico,Catalan,Sounds/cat_mico.mp3,2020-06-05_12h52.55.642,TranslationElicitation_eng-prolific,3.2.4,MacIntel,60,5c70380bae7e770001d12831,,1,0,81,46,1,80
,,,,,,,,,,,,,,,,,,,,,,,,,,,,,,,,,,,,,,,,,,e,4.116000175,NICE,TRUE,,,,,,,153,mico,Catalan,Sounds/cat_mico.mp3,2020-06-05_12h52.55.642,TranslationElicitation_eng-prolific,3.2.4,MacIntel,60,5c70380bae7e770001d12831,,1,0,81,46,1,80
,,,,,,,,,,,,,,,,,,,,,,,,,,,,,,,,,,,,,,,,,,return,4.167999983,NICE,TRUE,,,,,,,153,mico,Catalan,Sounds/cat_mico.mp3,2020-06-05_12h52.55.642,TranslationElicitation_eng-prolific,3.2.4,MacIntel,60,5c70380bae7e770001d12831,4.167999983,1,0,81,46,1,80
,,,,,,,,,,,,,,,,,,,,,,,,,,,,,,,,,,,,,,,,,,,,,,,,,,,,153,mico,Catalan,Sounds/cat_mico.mp3,2020-06-05_12h52.55.642,TranslationElicitation_eng-prolific,3.2.4,MacIntel,60,5c70380bae7e770001d12831,,1,0,81,46,1,80
,,,,,,,,,,,,,,,,,,,,,,,,,,,,,,,,,,,,,,,,,,g,5.286999941,G,FALSE,,,,,,,143,globus,Catalan,Sounds/cat_globus.mp3,2020-06-05_12h52.55.642,TranslationElicitation_eng-prolific,3.2.4,MacIntel,60,5c70380bae7e770001d12831,,1,0,81,37,1,80
,,,,,,,,,,,,,,,,,,,,,,,,,,,,,,,,,,,,,,,,,,a,5.434999943,GA,FALSE,,,,,,,143,globus,Catalan,Sounds/cat_globus.mp3,2020-06-05_12h52.55.642,TranslationElicitation_eng-prolific,3.2.4,MacIntel,60,5c70380bae7e770001d12831,,1,0,81,37,1,80
,,,,,,,,,,,,,,,,,,,,,,,,,,,,,,,,,,,,,,,,,,r,5.686000109,GAR,FALSE,,,,,,,143,globus,Catalan,Sounds/cat_globus.mp3,2020-06-05_12h52.55.642,TranslationElicitation_eng-prolific,3.2.4,MacIntel,60,5c70380bae7e770001d12831,,1,0,81,37,1,80
,,,,,,,,,,,,,,,,,,,,,,,,,,,,,,,,,,,,,,,,,,d,5.869999886,GARD,FALSE,,,,,,,143,globus,Catalan,Sounds/cat_globus.mp3,2020-06-05_12h52.55.642,TranslationElicitation_eng-prolific,3.2.4,MacIntel,60,5c70380bae7e770001d12831,,1,0,81,37,1,80
,,,,,,,,,,,,,,,,,,,,,,,,,,,,,,,,,,,,,,,,,,e,6.036000013,GARDE,FALSE,,,,,,,143,globus,Catalan,Sounds/cat_globus.mp3,2020-06-05_12h52.55.642,TranslationElicitation_eng-prolific,3.2.4,MacIntel,60,5c70380bae7e770001d12831,,1,0,81,37,1,80
,,,,,,,,,,,,,,,,,,,,,,,,,,,,,,,,,,,,,,,,,,n,6.502000093,GARDEN,FALSE,,,,,,,143,globus,Catalan,Sounds/cat_globus.mp3,2020-06-05_12h52.55.642,TranslationElicitation_eng-prolific,3.2.4,MacIntel,60,5c70380bae7e770001d12831,,1,0,81,37,1,80
,,,,,,,,,,,,,,,,,,,,,,,,,,,,,,,,,,,,,,,,,,return,6.752000093,GARDEN,FALSE,,,,,,,143,globus,Catalan,Sounds/cat_globus.mp3,2020-06-05_12h52.55.642,TranslationElicitation_eng-prolific,3.2.4,MacIntel,60,5c70380bae7e770001d12831,6.752000093,1,0,81,37,1,80
,,,,,,,,,,,,,,,,,,,,,,,,,,,,,,,,,,,,,,,,,,,,,,,,,,,,143,globus,Catalan,Sounds/cat_globus.mp3,2020-06-05_12h52.55.642,TranslationElicitation_eng-prolific,3.2.4,MacIntel,60,5c70380bae7e770001d12831,,1,0,81,37,1,80
,,,,,,,,,,,,,,,,,,,,,,,,,,,,,,,,,,,,,,,,,,c,1.78399992,C,FALSE,,,,,,,138,galeta,Catalan,Sounds/cat_galeta.mp3,2020-06-05_12h52.55.642,TranslationElicitation_eng-prolific,3.2.4,MacIntel,60,5c70380bae7e770001d12831,,1,0,81,32,1,80
,,,,,,,,,,,,,,,,,,,,,,,,,,,,,,,,,,,,,,,,,,o,1.851000071,CO,FALSE,,,,,,,138,galeta,Catalan,Sounds/cat_galeta.mp3,2020-06-05_12h52.55.642,TranslationElicitation_eng-prolific,3.2.4,MacIntel,60,5c70380bae7e770001d12831,,1,0,81,32,1,80
,,,,,,,,,,,,,,,,,,,,,,,,,,,,,,,,,,,,,,,,,,l,2.01699996,COL,FALSE,,,,,,,138,galeta,Catalan,Sounds/cat_galeta.mp3,2020-06-05_12h52.55.642,TranslationElicitation_eng-prolific,3.2.4,MacIntel,60,5c70380bae7e770001d12831,,1,0,81,32,1,80
,,,,,,,,,,,,,,,,,,,,,,,,,,,,,,,,,,,,,,,,,,l,2.132999897,COLL,FALSE,,,,,,,138,galeta,Catalan,Sounds/cat_galeta.mp3,2020-06-05_12h52.55.642,TranslationElicitation_eng-prolific,3.2.4,MacIntel,60,5c70380bae7e770001d12831,,1,0,81,32,1,80
,,,,,,,,,,,,,,,,,,,,,,,,,,,,,,,,,,,,,,,,,,e,2.467000008,COLLE,FALSE,,,,,,,138,galeta,Catalan,Sounds/cat_galeta.mp3,2020-06-05_12h52.55.642,TranslationElicitation_eng-prolific,3.2.4,MacIntel,60,5c70380bae7e770001d12831,,1,0,81,32,1,80
,,,,,,,,,,,,,,,,,,,,,,,,,,,,,,,,,,,,,,,,,,c,2.63499999,COLLEC,FALSE,,,,,,,138,galeta,Catalan,Sounds/cat_galeta.mp3,2020-06-05_12h52.55.642,TranslationElicitation_eng-prolific,3.2.4,MacIntel,60,5c70380bae7e770001d12831,,1,0,81,32,1,80
,,,,,,,,,,,,,,,,,,,,,,,,,,,,,,,,,,,,,,,,,,t,2.871000051,COLLECT,FALSE,,,,,,,138,galeta,Catalan,Sounds/cat_galeta.mp3,2020-06-05_12h52.55.642,TranslationElicitation_eng-prolific,3.2.4,MacIntel,60,5c70380bae7e770001d12831,,1,0,81,32,1,80
,,,,,,,,,,,,,,,,,,,,,,,,,,,,,,,,,,,,,,,,,,return,3.01699996,COLLECT,FALSE,,,,,,,138,galeta,Catalan,Sounds/cat_galeta.mp3,2020-06-05_12h52.55.642,TranslationElicitation_eng-prolific,3.2.4,MacIntel,60,5c70380bae7e770001d12831,3.01699996,1,0,81,32,1,80
,,,,,,,,,,,,,,,,,,,,,,,,,,,,,,,,,,,,,,,,,,,,,,,,,,,,138,galeta,Catalan,Sounds/cat_galeta.mp3,2020-06-05_12h52.55.642,TranslationElicitation_eng-prolific,3.2.4,MacIntel,60,5c70380bae7e770001d12831,,1,0,81,32,1,80
,,,,,,,,,,,,,,,,,,,,,,,,,,,,,,,,,,,,,,,,,,g,1.717000008,G,FALSE,,,,,,,142,girafa,Catalan,Sounds/cat_girafa.mp3,2020-06-05_12h52.55.642,TranslationElicitation_eng-prolific,3.2.4,MacIntel,60,5c70380bae7e770001d12831,,1,0,81,36,1,80
,,,,,,,,,,,,,,,,,,,,,,,,,,,,,,,,,,,,,,,,,,i,1.88499999,GI,FALSE,,,,,,,142,girafa,Catalan,Sounds/cat_girafa.mp3,2020-06-05_12h52.55.642,TranslationElicitation_eng-prolific,3.2.4,MacIntel,60,5c70380bae7e770001d12831,,1,0,81,36,1,80
,,,,,,,,,,,,,,,,,,,,,,,,,,,,,,,,,,,,,,,,,,r,2.134000063,GIR,FALSE,,,,,,,142,girafa,Catalan,Sounds/cat_girafa.mp3,2020-06-05_12h52.55.642,TranslationElicitation_eng-prolific,3.2.4,MacIntel,60,5c70380bae7e770001d12831,,1,0,81,36,1,80
,,,,,,,,,,,,,,,,,,,,,,,,,,,,,,,,,,,,,,,,,,a,2.335000038,GIRA,FALSE,,,,,,,142,girafa,Catalan,Sounds/cat_girafa.mp3,2020-06-05_12h52.55.642,TranslationElicitation_eng-prolific,3.2.4,MacIntel,60,5c70380bae7e770001d12831,,1,0,81,36,1,80
,,,,,,,,,,,,,,,,,,,,,,,,,,,,,,,,,,,,,,,,,,g,2.417999983,GIRAG,FALSE,,,,,,,142,girafa,Catalan,Sounds/cat_girafa.mp3,2020-06-05_12h52.55.642,TranslationElicitation_eng-prolific,3.2.4,MacIntel,60,5c70380bae7e770001d12831,,1,0,81,36,1,80
,,,,,,,,,,,,,,,,,,,,,,,,,,,,,,,,,,,,,,,,,,g,2.517000198,GIRAGG,FALSE,,,,,,,142,girafa,Catalan,Sounds/cat_girafa.mp3,2020-06-05_12h52.55.642,TranslationElicitation_eng-prolific,3.2.4,MacIntel,60,5c70380bae7e770001d12831,,1,0,81,36,1,80
,,,,,,,,,,,,,,,,,,,,,,,,,,,,,,,,,,,,,,,,,,e,2.63499999,GIRAGGE,FALSE,,,,,,,142,girafa,Catalan,Sounds/cat_girafa.mp3,2020-06-05_12h52.55.642,TranslationElicitation_eng-prolific,3.2.4,MacIntel,60,5c70380bae7e770001d12831,,1,0,81,36,1,80
,,,,,,,,,,,,,,,,,,,,,,,,,,,,,,,,,,,,,,,,,,backspace,2.935000181,GIRAGG,TRUE,,,,,,,142,girafa,Catalan,Sounds/cat_girafa.mp3,2020-06-05_12h52.55.642,TranslationElicitation_eng-prolific,3.2.4,MacIntel,60,5c70380bae7e770001d12831,,1,0,81,36,1,80
,,,,,,,,,,,,,,,,,,,,,,,,,,,,,,,,,,,,,,,,,,backspace,3.051000118,GIRAG,TRUE,,,,,,,142,girafa,Catalan,Sounds/cat_girafa.mp3,2020-06-05_12h52.55.642,TranslationElicitation_eng-prolific,3.2.4,MacIntel,60,5c70380bae7e770001d12831,,1,0,81,36,1,80
,,,,,,,,,,,,,,,,,,,,,,,,,,,,,,,,,,,,,,,,,,backspace,3.185000181,GIRA,TRUE,,,,,,,142,girafa,Catalan,Sounds/cat_girafa.mp3,2020-06-05_12h52.55.642,TranslationElicitation_eng-prolific,3.2.4,MacIntel,60,5c70380bae7e770001d12831,,1,0,81,36,1,80
,,,,,,,,,,,,,,,,,,,,,,,,,,,,,,,,,,,,,,,,,,f,3.253000021,GIRAF,TRUE,,,,,,,142,girafa,Catalan,Sounds/cat_girafa.mp3,2020-06-05_12h52.55.642,TranslationElicitation_eng-prolific,3.2.4,MacIntel,60,5c70380bae7e770001d12831,,1,0,81,36,1,80
,,,,,,,,,,,,,,,,,,,,,,,,,,,,,,,,,,,,,,,,,,f,3.384000063,GIRAFF,TRUE,,,,,,,142,girafa,Catalan,Sounds/cat_girafa.mp3,2020-06-05_12h52.55.642,TranslationElicitation_eng-prolific,3.2.4,MacIntel,60,5c70380bae7e770001d12831,,1,0,81,36,1,80
,,,,,,,,,,,,,,,,,,,,,,,,,,,,,,,,,,,,,,,,,,e,3.822000027,GIRAFFE,TRUE,,,,,,,142,girafa,Catalan,Sounds/cat_girafa.mp3,2020-06-05_12h52.55.642,TranslationElicitation_eng-prolific,3.2.4,MacIntel,60,5c70380bae7e770001d12831,,1,0,81,36,1,80
,,,,,,,,,,,,,,,,,,,,,,,,,,,,,,,,,,,,,,,,,,return,3.935000181,GIRAFFE,TRUE,,,,,,,142,girafa,Catalan,Sounds/cat_girafa.mp3,2020-06-05_12h52.55.642,TranslationElicitation_eng-prolific,3.2.4,MacIntel,60,5c70380bae7e770001d12831,3.935000181,1,0,81,36,1,80
,,,,,,,,,,,,,,,,,,,,,,,,,,,,,,,,,,,,,,,,,,,,,,,,,,,,142,girafa,Catalan,Sounds/cat_girafa.mp3,2020-06-05_12h52.55.642,TranslationElicitation_eng-prolific,3.2.4,MacIntel,60,5c70380bae7e770001d12831,,1,0,81,36,1,80
,,,,,,,,,,,,,,,,,,,,,,,,,,,,,,,,,,,,,,,,,,c,1.666000128,C,FALSE,,,,,,,128,cuc,Catalan,Sounds/cat_cuc.mp3,2020-06-05_12h52.55.642,TranslationElicitation_eng-prolific,3.2.4,MacIntel,60,5c70380bae7e770001d12831,,1,0,81,22,1,80
,,,,,,,,,,,,,,,,,,,,,,,,,,,,,,,,,,,,,,,,,,o,1.73300004,CO,FALSE,,,,,,,128,cuc,Catalan,Sounds/cat_cuc.mp3,2020-06-05_12h52.55.642,TranslationElicitation_eng-prolific,3.2.4,MacIntel,60,5c70380bae7e770001d12831,,1,0,81,22,1,80
,,,,,,,,,,,,,,,,,,,,,,,,,,,,,,,,,,,,,,,,,,o,2.18200016,COO,FALSE,,,,,,,128,cuc,Catalan,Sounds/cat_cuc.mp3,2020-06-05_12h52.55.642,TranslationElicitation_eng-prolific,3.2.4,MacIntel,60,5c70380bae7e770001d12831,,1,0,81,22,1,80
,,,,,,,,,,,,,,,,,,,,,,,,,,,,,,,,,,,,,,,,,,k,2.348999977,COOK,FALSE,,,,,,,128,cuc,Catalan,Sounds/cat_cuc.mp3,2020-06-05_12h52.55.642,TranslationElicitation_eng-prolific,3.2.4,MacIntel,60,5c70380bae7e770001d12831,,1,0,81,22,1,80
,,,,,,,,,,,,,,,,,,,,,,,,,,,,,,,,,,,,,,,,,,return,2.532000065,COOK,FALSE,,,,,,,128,cuc,Catalan,Sounds/cat_cuc.mp3,2020-06-05_12h52.55.642,TranslationElicitation_eng-prolific,3.2.4,MacIntel,60,5c70380bae7e770001d12831,2.532000065,1,0,81,22,1,80
,,,,,,,,,,,,,,,,,,,,,,,,,,,,,,,,,,,,,,,,,,,,,,,,,,,,128,cuc,Catalan,Sounds/cat_cuc.mp3,2020-06-05_12h52.55.642,TranslationElicitation_eng-prolific,3.2.4,MacIntel,60,5c70380bae7e770001d12831,,1,0,81,22,1,80
,,,,,,,,,,,,,,,,,,,,,,,,,,,,,,,,,,,,,,,,,,c,2.118000031,C,FALSE,,,,,,,140,gat,Catalan,Sounds/cat_gat.mp3,2020-06-05_12h52.55.642,TranslationElicitation_eng-prolific,3.2.4,MacIntel,60,5c70380bae7e770001d12831,,1,0,81,34,1,80
,,,,,,,,,,,,,,,,,,,,,,,,,,,,,,,,,,,,,,,,,,a,2.318000078,CA,FALSE,,,,,,,140,gat,Catalan,Sounds/cat_gat.mp3,2020-06-05_12h52.55.642,TranslationElicitation_eng-prolific,3.2.4,MacIntel,60,5c70380bae7e770001d12831,,1,0,81,34,1,80
,,,,,,,,,,,,,,,,,,,,,,,,,,,,,,,,,,,,,,,,,,t,2.417999983,CAT,FALSE,,,,,,,140,gat,Catalan,Sounds/cat_gat.mp3,2020-06-05_12h52.55.642,TranslationElicitation_eng-prolific,3.2.4,MacIntel,60,5c70380bae7e770001d12831,,1,0,81,34,1,80
,,,,,,,,,,,,,,,,,,,,,,,,,,,,,,,,,,,,,,,,,,return,2.701999903,CAT,FALSE,,,,,,,140,gat,Catalan,Sounds/cat_gat.mp3,2020-06-05_12h52.55.642,TranslationElicitation_eng-prolific,3.2.4,MacIntel,60,5c70380bae7e770001d12831,2.701999903,1,0,81,34,1,80
,,,,,,,,,,,,,,,,,,,,,,,,,,,,,,,,,,,,,,,,,,,,,,,,,,,,140,gat,Catalan,Sounds/cat_gat.mp3,2020-06-05_12h52.55.642,TranslationElicitation_eng-prolific,3.2.4,MacIntel,60,5c70380bae7e770001d12831,,1,0,81,34,1,80
,,,,,,,,,,,,,,,,,,,,,,,,,,,,,,,,,,,,,,,,,,m,3.434000015,M,FALSE,,,,,,,157,mussol,Catalan,Sounds/cat_mussol.mp3,2020-06-05_12h52.55.642,TranslationElicitation_eng-prolific,3.2.4,MacIntel,60,5c70380bae7e770001d12831,,1,0,81,50,1,80
,,,,,,,,,,,,,,,,,,,,,,,,,,,,,,,,,,,,,,,,,,a,3.55099988,MA,FALSE,,,,,,,157,mussol,Catalan,Sounds/cat_mussol.mp3,2020-06-05_12h52.55.642,TranslationElicitation_eng-prolific,3.2.4,MacIntel,60,5c70380bae7e770001d12831,,1,0,81,50,1,80
,,,,,,,,,,,,,,,,,,,,,,,,,,,,,,,,,,,,,,,,,,s,3.76699996,MAS,FALSE,,,,,,,157,mussol,Catalan,Sounds/cat_mussol.mp3,2020-06-05_12h52.55.642,TranslationElicitation_eng-prolific,3.2.4,MacIntel,60,5c70380bae7e770001d12831,,1,0,81,50,1,80
,,,,,,,,,,,,,,,,,,,,,,,,,,,,,,,,,,,,,,,,,,s,3.909999847,MASS,FALSE,,,,,,,157,mussol,Catalan,Sounds/cat_mussol.mp3,2020-06-05_12h52.55.642,TranslationElicitation_eng-prolific,3.2.4,MacIntel,60,5c70380bae7e770001d12831,,1,0,81,50,1,80
,,,,,,,,,,,,,,,,,,,,,,,,,,,,,,,,,,,,,,,,,,a,4.000999928,MASSA,FALSE,,,,,,,157,mussol,Catalan,Sounds/cat_mussol.mp3,2020-06-05_12h52.55.642,TranslationElicitation_eng-prolific,3.2.4,MacIntel,60,5c70380bae7e770001d12831,,1,0,81,50,1,80
,,,,,,,,,,,,,,,,,,,,,,,,,,,,,,,,,,,,,,,,,,g,4.149999857,MASSAG,FALSE,,,,,,,157,mussol,Catalan,Sounds/cat_mussol.mp3,2020-06-05_12h52.55.642,TranslationElicitation_eng-prolific,3.2.4,MacIntel,60,5c70380bae7e770001d12831,,1,0,81,50,1,80
,,,,,,,,,,,,,,,,,,,,,,,,,,,,,,,,,,,,,,,,,,e,4.200999975,MASSAGE,FALSE,,,,,,,157,mussol,Catalan,Sounds/cat_mussol.mp3,2020-06-05_12h52.55.642,TranslationElicitation_eng-prolific,3.2.4,MacIntel,60,5c70380bae7e770001d12831,,1,0,81,50,1,80
,,,,,,,,,,,,,,,,,,,,,,,,,,,,,,,,,,,,,,,,,,return,5.434999943,MASSAGE,FALSE,,,,,,,157,mussol,Catalan,Sounds/cat_mussol.mp3,2020-06-05_12h52.55.642,TranslationElicitation_eng-prolific,3.2.4,MacIntel,60,5c70380bae7e770001d12831,5.434999943,1,0,81,50,1,80
,,,,,,,,,,,,,,,,,,,,,,,,,,,,,,,,,,,,,,,,,,,,,,,,,,,,157,mussol,Catalan,Sounds/cat_mussol.mp3,2020-06-05_12h52.55.642,TranslationElicitation_eng-prolific,3.2.4,MacIntel,60,5c70380bae7e770001d12831,,1,0,81,50,1,80
,,,,,,,,,,,,,,,,,,,,,,,,,,,,,,,,,,,,,,,,,,f,1.91899991,F,FALSE,,,,,,,134,flor,Catalan,Sounds/cat_flor.mp3,2020-06-05_12h52.55.642,TranslationElicitation_eng-prolific,3.2.4,MacIntel,60,5c70380bae7e770001d12831,,1,0,81,28,1,80
,,,,,,,,,,,,,,,,,,,,,,,,,,,,,,,,,,,,,,,,,,l,1.934999943,FL,FALSE,,,,,,,134,flor,Catalan,Sounds/cat_flor.mp3,2020-06-05_12h52.55.642,TranslationElicitation_eng-prolific,3.2.4,MacIntel,60,5c70380bae7e770001d12831,,1,0,81,28,1,80
,,,,,,,,,,,,,,,,,,,,,,,,,,,,,,,,,,,,,,,,,,o,2.069000006,FLO,FALSE,,,,,,,134,flor,Catalan,Sounds/cat_flor.mp3,2020-06-05_12h52.55.642,TranslationElicitation_eng-prolific,3.2.4,MacIntel,60,5c70380bae7e770001d12831,,1,0,81,28,1,80
,,,,,,,,,,,,,,,,,,,,,,,,,,,,,,,,,,,,,,,,,,r,2.13499999,FLOR,FALSE,,,,,,,134,flor,Catalan,Sounds/cat_flor.mp3,2020-06-05_12h52.55.642,TranslationElicitation_eng-prolific,3.2.4,MacIntel,60,5c70380bae7e770001d12831,,1,0,81,28,1,80
,,,,,,,,,,,,,,,,,,,,,,,,,,,,,,,,,,,,,,,,,,backspace,2.569000006,FLO,TRUE,,,,,,,134,flor,Catalan,Sounds/cat_flor.mp3,2020-06-05_12h52.55.642,TranslationElicitation_eng-prolific,3.2.4,MacIntel,60,5c70380bae7e770001d12831,,1,0,81,28,1,80
,,,,,,,,,,,,,,,,,,,,,,,,,,,,,,,,,,,,,,,,,,w,2.65199995,FLOW,TRUE,,,,,,,134,flor,Catalan,Sounds/cat_flor.mp3,2020-06-05_12h52.55.642,TranslationElicitation_eng-prolific,3.2.4,MacIntel,60,5c70380bae7e770001d12831,,1,0,81,28,1,80
,,,,,,,,,,,,,,,,,,,,,,,,,,,,,,,,,,,,,,,,,,e,2.835999966,FLOWE,TRUE,,,,,,,134,flor,Catalan,Sounds/cat_flor.mp3,2020-06-05_12h52.55.642,TranslationElicitation_eng-prolific,3.2.4,MacIntel,60,5c70380bae7e770001d12831,,1,0,81,28,1,80
,,,,,,,,,,,,,,,,,,,,,,,,,,,,,,,,,,,,,,,,,,r,3.034999847,FLOWER,TRUE,,,,,,,134,flor,Catalan,Sounds/cat_flor.mp3,2020-06-05_12h52.55.642,TranslationElicitation_eng-prolific,3.2.4,MacIntel,60,5c70380bae7e770001d12831,,1,0,81,28,1,80
,,,,,,,,,,,,,,,,,,,,,,,,,,,,,,,,,,,,,,,,,,return,3.301999807,FLOWER,TRUE,,,,,,,134,flor,Catalan,Sounds/cat_flor.mp3,2020-06-05_12h52.55.642,TranslationElicitation_eng-prolific,3.2.4,MacIntel,60,5c70380bae7e770001d12831,3.301999807,1,0,81,28,1,80
,,,,,,,,,,,,,,,,,,,,,,,,,,,,,,,,,,,,,,,,,,,,,,,,,,,,134,flor,Catalan,Sounds/cat_flor.mp3,2020-06-05_12h52.55.642,TranslationElicitation_eng-prolific,3.2.4,MacIntel,60,5c70380bae7e770001d12831,,1,0,81,28,1,80
,,,,,,,,,,,,,,,,,,,,,,,,,,,,,,,,,,,,,,,,,,s,1.500999928,S,FALSE,,,,,,,131,esponja,Catalan,Sounds/cat_esponja.mp3,2020-06-05_12h52.55.642,TranslationElicitation_eng-prolific,3.2.4,MacIntel,60,5c70380bae7e770001d12831,,1,0,81,25,1,80
,,,,,,,,,,,,,,,,,,,,,,,,,,,,,,,,,,,,,,,,,,p,1.618000031,SP,FALSE,,,,,,,131,esponja,Catalan,Sounds/cat_esponja.mp3,2020-06-05_12h52.55.642,TranslationElicitation_eng-prolific,3.2.4,MacIntel,60,5c70380bae7e770001d12831,,1,0,81,25,1,80
,,,,,,,,,,,,,,,,,,,,,,,,,,,,,,,,,,,,,,,,,,o,1.75,SPO,FALSE,,,,,,,131,esponja,Catalan,Sounds/cat_esponja.mp3,2020-06-05_12h52.55.642,TranslationElicitation_eng-prolific,3.2.4,MacIntel,60,5c70380bae7e770001d12831,,1,0,81,25,1,80
,,,,,,,,,,,,,,,,,,,,,,,,,,,,,,,,,,,,,,,,,,n,1.932999849,SPON,FALSE,,,,,,,131,esponja,Catalan,Sounds/cat_esponja.mp3,2020-06-05_12h52.55.642,TranslationElicitation_eng-prolific,3.2.4,MacIntel,60,5c70380bae7e770001d12831,,1,0,81,25,1,80
,,,,,,,,,,,,,,,,,,,,,,,,,,,,,,,,,,,,,,,,,,g,1.983999968,SPONG,FALSE,,,,,,,131,esponja,Catalan,Sounds/cat_esponja.mp3,2020-06-05_12h52.55.642,TranslationElicitation_eng-prolific,3.2.4,MacIntel,60,5c70380bae7e770001d12831,,1,0,81,25,1,80
,,,,,,,,,,,,,,,,,,,,,,,,,,,,,,,,,,,,,,,,,,e,2.115999937,SPONGE,FALSE,,,,,,,131,esponja,Catalan,Sounds/cat_esponja.mp3,2020-06-05_12h52.55.642,TranslationElicitation_eng-prolific,3.2.4,MacIntel,60,5c70380bae7e770001d12831,,1,0,81,25,1,80
,,,,,,,,,,,,,,,,,,,,,,,,,,,,,,,,,,,,,,,,,,return,2.238999844,SPONGE,FALSE,,,,,,,131,esponja,Catalan,Sounds/cat_esponja.mp3,2020-06-05_12h52.55.642,TranslationElicitation_eng-prolific,3.2.4,MacIntel,60,5c70380bae7e770001d12831,2.238999844,1,0,81,25,1,80
,,,,,,,,,,,,,,,,,,,,,,,,,,,,,,,,,,,,,,,,,,,,,,,,,,,,131,esponja,Catalan,Sounds/cat_esponja.mp3,2020-06-05_12h52.55.642,TranslationElicitation_eng-prolific,3.2.4,MacIntel,60,5c70380bae7e770001d12831,,1,0,81,25,1,80
,,,,,,,,,,,,,,,,,,,,,,,,,,,,,,,,,,,,,,,,,,m,2.867000103,M,FALSE,,,,,,,156,moto,Catalan,Sounds/cat_moto.mp3,2020-06-05_12h52.55.642,TranslationElicitation_eng-prolific,3.2.4,MacIntel,60,5c70380bae7e770001d12831,,1,0,81,49,1,80
,,,,,,,,,,,,,,,,,,,,,,,,,,,,,,,,,,,,,,,,,,backspace,6.068000078,,TRUE,,,,,,,156,moto,Catalan,Sounds/cat_moto.mp3,2020-06-05_12h52.55.642,TranslationElicitation_eng-prolific,3.2.4,MacIntel,60,5c70380bae7e770001d12831,,1,0,81,49,1,80
,,,,,,,,,,,,,,,,,,,,,,,,,,,,,,,,,,,,,,,,,,m,8.419000149,M,TRUE,,,,,,,156,moto,Catalan,Sounds/cat_moto.mp3,2020-06-05_12h52.55.642,TranslationElicitation_eng-prolific,3.2.4,MacIntel,60,5c70380bae7e770001d12831,,1,0,81,49,1,80
,,,,,,,,,,,,,,,,,,,,,,,,,,,,,,,,,,,,,,,,,,o,8.551000118,MO,TRUE,,,,,,,156,moto,Catalan,Sounds/cat_moto.mp3,2020-06-05_12h52.55.642,TranslationElicitation_eng-prolific,3.2.4,MacIntel,60,5c70380bae7e770001d12831,,1,0,81,49,1,80
,,,,,,,,,,,,,,,,,,,,,,,,,,,,,,,,,,,,,,,,,,a,9.335999966,MOA,TRUE,,,,,,,156,moto,Catalan,Sounds/cat_moto.mp3,2020-06-05_12h52.55.642,TranslationElicitation_eng-prolific,3.2.4,MacIntel,60,5c70380bae7e770001d12831,,1,0,81,49,1,80
,,,,,,,,,,,,,,,,,,,,,,,,,,,,,,,,,,,,,,,,,,t,9.518000126,MOAT,TRUE,,,,,,,156,moto,Catalan,Sounds/cat_moto.mp3,2020-06-05_12h52.55.642,TranslationElicitation_eng-prolific,3.2.4,MacIntel,60,5c70380bae7e770001d12831,,1,0,81,49,1,80
,,,,,,,,,,,,,,,,,,,,,,,,,,,,,,,,,,,,,,,,,,return,9.585999966,MOAT,TRUE,,,,,,,156,moto,Catalan,Sounds/cat_moto.mp3,2020-06-05_12h52.55.642,TranslationElicitation_eng-prolific,3.2.4,MacIntel,60,5c70380bae7e770001d12831,9.585999966,1,0,81,49,1,80
,,,,,,,,,,,,,,,,,,,,,,,,,,,,,,,,,,,,,,,,,,,,,,,,,,,,156,moto,Catalan,Sounds/cat_moto.mp3,2020-06-05_12h52.55.642,TranslationElicitation_eng-prolific,3.2.4,MacIntel,60,5c70380bae7e770001d12831,,1,0,81,49,1,80
,,,,,,,,,,,,,,,,,,,,,,,,,,,,,,,,,,,,,,,,,,e,1.51699996,E,FALSE,,,,,,,189,zebra,Catalan,Sounds/cat_zebra.mp3,2020-06-05_12h52.55.642,TranslationElicitation_eng-prolific,3.2.4,MacIntel,60,5c70380bae7e770001d12831,,1,0,81,80,1,80
,,,,,,,,,,,,,,,,,,,,,,,,,,,,,,,,,,,,,,,,,,b,1.617000103,EB,FALSE,,,,,,,189,zebra,Catalan,Sounds/cat_zebra.mp3,2020-06-05_12h52.55.642,TranslationElicitation_eng-prolific,3.2.4,MacIntel,60,5c70380bae7e770001d12831,,1,0,81,80,1,80
,,,,,,,,,,,,,,,,,,,,,,,,,,,,,,,,,,,,,,,,,,backspace,1.916000128,E,TRUE,,,,,,,189,zebra,Catalan,Sounds/cat_zebra.mp3,2020-06-05_12h52.55.642,TranslationElicitation_eng-prolific,3.2.4,MacIntel,60,5c70380bae7e770001d12831,,1,0,81,80,1,80
,,,,,,,,,,,,,,,,,,,,,,,,,,,,,,,,,,,,,,,,,,backspace,2.032999992,,TRUE,,,,,,,189,zebra,Catalan,Sounds/cat_zebra.mp3,2020-06-05_12h52.55.642,TranslationElicitation_eng-prolific,3.2.4,MacIntel,60,5c70380bae7e770001d12831,,1,0,81,80,1,80
,,,,,,,,,,,,,,,,,,,,,,,,,,,,,,,,,,,,,,,,,,z,2.150000095,Z,TRUE,,,,,,,189,zebra,Catalan,Sounds/cat_zebra.mp3,2020-06-05_12h52.55.642,TranslationElicitation_eng-prolific,3.2.4,MacIntel,60,5c70380bae7e770001d12831,,1,0,81,80,1,80
,,,,,,,,,,,,,,,,,,,,,,,,,,,,,,,,,,,,,,,,,,e,2.351000071,ZE,TRUE,,,,,,,189,zebra,Catalan,Sounds/cat_zebra.mp3,2020-06-05_12h52.55.642,TranslationElicitation_eng-prolific,3.2.4,MacIntel,60,5c70380bae7e770001d12831,,1,0,81,80,1,80
,,,,,,,,,,,,,,,,,,,,,,,,,,,,,,,,,,,,,,,,,,b,2.433000088,ZEB,TRUE,,,,,,,189,zebra,Catalan,Sounds/cat_zebra.mp3,2020-06-05_12h52.55.642,TranslationElicitation_eng-prolific,3.2.4,MacIntel,60,5c70380bae7e770001d12831,,1,0,81,80,1,80
,,,,,,,,,,,,,,,,,,,,,,,,,,,,,,,,,,,,,,,,,,r,2.568000078,ZEBR,TRUE,,,,,,,189,zebra,Catalan,Sounds/cat_zebra.mp3,2020-06-05_12h52.55.642,TranslationElicitation_eng-prolific,3.2.4,MacIntel,60,5c70380bae7e770001d12831,,1,0,81,80,1,80
,,,,,,,,,,,,,,,,,,,,,,,,,,,,,,,,,,,,,,,,,,a,2.733999968,ZEBRA,TRUE,,,,,,,189,zebra,Catalan,Sounds/cat_zebra.mp3,2020-06-05_12h52.55.642,TranslationElicitation_eng-prolific,3.2.4,MacIntel,60,5c70380bae7e770001d12831,,1,0,81,80,1,80
,,,,,,,,,,,,,,,,,,,,,,,,,,,,,,,,,,,,,,,,,,return,2.835000038,ZEBRA,TRUE,,,,,,,189,zebra,Catalan,Sounds/cat_zebra.mp3,2020-06-05_12h52.55.642,TranslationElicitation_eng-prolific,3.2.4,MacIntel,60,5c70380bae7e770001d12831,2.835000038,1,0,81,80,1,80
,,,,,,,,,,,,,,,,,,,,,,,,,,,,,,,,,,,,,,,,,,,,,,,,,,,,189,zebra,Catalan,Sounds/cat_zebra.mp3,2020-06-05_12h52.55.642,TranslationElicitation_eng-prolific,3.2.4,MacIntel,60,5c70380bae7e770001d12831,,1,0,81,80,1,80
,,,,,,,,,,,,,,,,,,,,,,,,,,,,,,,,,,,,,,,,,,w,2.049999952,W,FALSE,,,,,,,105,aigua,Catalan,Sounds/cat_aigua.mp3,2020-06-05_12h52.55.642,TranslationElicitation_eng-prolific,3.2.4,MacIntel,60,5c70380bae7e770001d12831,,1,0,81,1,1,80
,,,,,,,,,,,,,,,,,,,,,,,,,,,,,,,,,,,,,,,,,,a,2.167999983,WA,FALSE,,,,,,,105,aigua,Catalan,Sounds/cat_aigua.mp3,2020-06-05_12h52.55.642,TranslationElicitation_eng-prolific,3.2.4,MacIntel,60,5c70380bae7e770001d12831,,1,0,81,1,1,80
,,,,,,,,,,,,,,,,,,,,,,,,,,,,,,,,,,,,,,,,,,y,2.400000095,WAY,FALSE,,,,,,,105,aigua,Catalan,Sounds/cat_aigua.mp3,2020-06-05_12h52.55.642,TranslationElicitation_eng-prolific,3.2.4,MacIntel,60,5c70380bae7e770001d12831,,1,0,81,1,1,80
,,,,,,,,,,,,,,,,,,,,,,,,,,,,,,,,,,,,,,,,,,e,2.450999975,WAYE,FALSE,,,,,,,105,aigua,Catalan,Sounds/cat_aigua.mp3,2020-06-05_12h52.55.642,TranslationElicitation_eng-prolific,3.2.4,MacIntel,60,5c70380bae7e770001d12831,,1,0,81,1,1,80
,,,,,,,,,,,,,,,,,,,,,,,,,,,,,,,,,,,,,,,,,,backspace,2.700999975,WAY,TRUE,,,,,,,105,aigua,Catalan,Sounds/cat_aigua.mp3,2020-06-05_12h52.55.642,TranslationElicitation_eng-prolific,3.2.4,MacIntel,60,5c70380bae7e770001d12831,,1,0,81,1,1,80
,,,,,,,,,,,,,,,,,,,,,,,,,,,,,,,,,,,,,,,,,,backspace,2.818000078,WA,TRUE,,,,,,,105,aigua,Catalan,Sounds/cat_aigua.mp3,2020-06-05_12h52.55.642,TranslationElicitation_eng-prolific,3.2.4,MacIntel,60,5c70380bae7e770001d12831,,1,0,81,1,1,80
,,,,,,,,,,,,,,,,,,,,,,,,,,,,,,,,,,,,,,,,,,t,2.850000143,WAT,TRUE,,,,,,,105,aigua,Catalan,Sounds/cat_aigua.mp3,2020-06-05_12h52.55.642,TranslationElicitation_eng-prolific,3.2.4,MacIntel,60,5c70380bae7e770001d12831,,1,0,81,1,1,80
,,,,,,,,,,,,,,,,,,,,,,,,,,,,,,,,,,,,,,,,,,e,3.000999928,WATE,TRUE,,,,,,,105,aigua,Catalan,Sounds/cat_aigua.mp3,2020-06-05_12h52.55.642,TranslationElicitation_eng-prolific,3.2.4,MacIntel,60,5c70380bae7e770001d12831,,1,0,81,1,1,80
,,,,,,,,,,,,,,,,,,,,,,,,,,,,,,,,,,,,,,,,,,r,3.084000111,WATER,TRUE,,,,,,,105,aigua,Catalan,Sounds/cat_aigua.mp3,2020-06-05_12h52.55.642,TranslationElicitation_eng-prolific,3.2.4,MacIntel,60,5c70380bae7e770001d12831,,1,0,81,1,1,80
,,,,,,,,,,,,,,,,,,,,,,,,,,,,,,,,,,,,,,,,,,return,3.233999968,WATER,TRUE,,,,,,,105,aigua,Catalan,Sounds/cat_aigua.mp3,2020-06-05_12h52.55.642,TranslationElicitation_eng-prolific,3.2.4,MacIntel,60,5c70380bae7e770001d12831,3.233999968,1,0,81,1,1,80
,,,,,,,,,,,,,,,,,,,,,,,,,,,,,,,,,,,,,,,,,,,,,,,,,,,,105,aigua,Catalan,Sounds/cat_aigua.mp3,2020-06-05_12h52.55.642,TranslationElicitation_eng-prolific,3.2.4,MacIntel,60,5c70380bae7e770001d12831,,1,0,81,1,1,80
,,,,,,,,,,,,,,,,,,,,,,,,,,,,,,,,,,,,,,,,,,c,2.450999975,C,FALSE,,,,,,,123,cavall,Catalan,Sounds/cat_cavall.mp3,2020-06-05_12h52.55.642,TranslationElicitation_eng-prolific,3.2.4,MacIntel,60,5c70380bae7e770001d12831,,1,0,81,18,1,80
,,,,,,,,,,,,,,,,,,,,,,,,,,,,,,,,,,,,,,,,,,a,2.582999945,CA,FALSE,,,,,,,123,cavall,Catalan,Sounds/cat_cavall.mp3,2020-06-05_12h52.55.642,TranslationElicitation_eng-prolific,3.2.4,MacIntel,60,5c70380bae7e770001d12831,,1,0,81,18,1,80
,,,,,,,,,,,,,,,,,,,,,,,,,,,,,,,,,,,,,,,,,,r,2.750999928,CAR,FALSE,,,,,,,123,cavall,Catalan,Sounds/cat_cavall.mp3,2020-06-05_12h52.55.642,TranslationElicitation_eng-prolific,3.2.4,MacIntel,60,5c70380bae7e770001d12831,,1,0,81,18,1,80
,,,,,,,,,,,,,,,,,,,,,,,,,,,,,,,,,,,,,,,,,,a,2.899999857,CARA,FALSE,,,,,,,123,cavall,Catalan,Sounds/cat_cavall.mp3,2020-06-05_12h52.55.642,TranslationElicitation_eng-prolific,3.2.4,MacIntel,60,5c70380bae7e770001d12831,,1,0,81,18,1,80
,,,,,,,,,,,,,,,,,,,,,,,,,,,,,,,,,,,,,,,,,,backspace,3.383999825,CAR,TRUE,,,,,,,123,cavall,Catalan,Sounds/cat_cavall.mp3,2020-06-05_12h52.55.642,TranslationElicitation_eng-prolific,3.2.4,MacIntel,60,5c70380bae7e770001d12831,,1,0,81,18,1,80
,,,,,,,,,,,,,,,,,,,,,,,,,,,,,,,,,,,,,,,,,,return,3.632999897,CAR,TRUE,,,,,,,123,cavall,Catalan,Sounds/cat_cavall.mp3,2020-06-05_12h52.55.642,TranslationElicitation_eng-prolific,3.2.4,MacIntel,60,5c70380bae7e770001d12831,3.632999897,1,0,81,18,1,80
,,,,,,,,,,,,,,,,,,,,,,,,,,,,,,,,,,,,,,,,,,,,,,,,,,,,123,cavall,Catalan,Sounds/cat_cavall.mp3,2020-06-05_12h52.55.642,TranslationElicitation_eng-prolific,3.2.4,MacIntel,60,5c70380bae7e770001d12831,,1,0,81,18,1,80
,,,,,,,,,,,,,,,,,,,,,,,,,,,,,,,,,,,,,,,,,,b,2.835000038,B,FALSE,,,,,,,118,bou,Catalan,Sounds/cat_bou.mp3,2020-06-05_12h52.55.642,TranslationElicitation_eng-prolific,3.2.4,MacIntel,60,5c70380bae7e770001d12831,,1,0,81,13,1,80
,,,,,,,,,,,,,,,,,,,,,,,,,,,,,,,,,,,,,,,,,,o,3.035000086,BO,FALSE,,,,,,,118,bou,Catalan,Sounds/cat_bou.mp3,2020-06-05_12h52.55.642,TranslationElicitation_eng-prolific,3.2.4,MacIntel,60,5c70380bae7e770001d12831,,1,0,81,13,1,80
,,,,,,,,,,,,,,,,,,,,,,,,,,,,,,,,,,,,,,,,,,w,3.151000023,BOW,FALSE,,,,,,,118,bou,Catalan,Sounds/cat_bou.mp3,2020-06-05_12h52.55.642,TranslationElicitation_eng-prolific,3.2.4,MacIntel,60,5c70380bae7e770001d12831,,1,0,81,13,1,80
,,,,,,,,,,,,,,,,,,,,,,,,,,,,,,,,,,,,,,,,,,e,3.902000189,BOWE,FALSE,,,,,,,118,bou,Catalan,Sounds/cat_bou.mp3,2020-06-05_12h52.55.642,TranslationElicitation_eng-prolific,3.2.4,MacIntel,60,5c70380bae7e770001d12831,,1,0,81,13,1,80
,,,,,,,,,,,,,,,,,,,,,,,,,,,,,,,,,,,,,,,,,,l,3.969000101,BOWEL,FALSE,,,,,,,118,bou,Catalan,Sounds/cat_bou.mp3,2020-06-05_12h52.55.642,TranslationElicitation_eng-prolific,3.2.4,MacIntel,60,5c70380bae7e770001d12831,,1,0,81,13,1,80
,,,,,,,,,,,,,,,,,,,,,,,,,,,,,,,,,,,,,,,,,,backspace,4.335999966,BOWE,TRUE,,,,,,,118,bou,Catalan,Sounds/cat_bou.mp3,2020-06-05_12h52.55.642,TranslationElicitation_eng-prolific,3.2.4,MacIntel,60,5c70380bae7e770001d12831,,1,0,81,13,1,80
,,,,,,,,,,,,,,,,,,,,,,,,,,,,,,,,,,,,,,,,,,backspace,4.470000029,BOW,TRUE,,,,,,,118,bou,Catalan,Sounds/cat_bou.mp3,2020-06-05_12h52.55.642,TranslationElicitation_eng-prolific,3.2.4,MacIntel,60,5c70380bae7e770001d12831,,1,0,81,13,1,80
,,,,,,,,,,,,,,,,,,,,,,,,,,,,,,,,,,,,,,,,,,l,4.685000181,BOWL,TRUE,,,,,,,118,bou,Catalan,Sounds/cat_bou.mp3,2020-06-05_12h52.55.642,TranslationElicitation_eng-prolific,3.2.4,MacIntel,60,5c70380bae7e770001d12831,,1,0,81,13,1,80
,,,,,,,,,,,,,,,,,,,,,,,,,,,,,,,,,,,,,,,,,,return,4.970000029,BOWL,TRUE,,,,,,,118,bou,Catalan,Sounds/cat_bou.mp3,2020-06-05_12h52.55.642,TranslationElicitation_eng-prolific,3.2.4,MacIntel,60,5c70380bae7e770001d12831,4.970000029,1,0,81,13,1,80
,,,,,,,,,,,,,,,,,,,,,,,,,,,,,,,,,,,,,,,,,,,,,,,,,,,,118,bou,Catalan,Sounds/cat_bou.mp3,2020-06-05_12h52.55.642,TranslationElicitation_eng-prolific,3.2.4,MacIntel,60,5c70380bae7e770001d12831,,1,0,81,13,1,80
,,,,,,,,,,,,,,,,,,,,,,,,,,,,,,,,,,,,,,,,,,f,5.318000078,F,FALSE,,,,,,,117,boto,Catalan,Sounds/cat_boto.mp3,2020-06-05_12h52.55.642,TranslationElicitation_eng-prolific,3.2.4,MacIntel,60,5c70380bae7e770001d12831,,1,0,81,12,1,80
,,,,,,,,,,,,,,,,,,,,,,,,,,,,,,,,,,,,,,,,,,i,5.368000031,FI,FALSE,,,,,,,117,boto,Catalan,Sounds/cat_boto.mp3,2020-06-05_12h52.55.642,TranslationElicitation_eng-prolific,3.2.4,MacIntel,60,5c70380bae7e770001d12831,,1,0,81,12,1,80
,,,,,,,,,,,,,,,,,,,,,,,,,,,,,,,,,,,,,,,,,,s,5.452000141,FIS,FALSE,,,,,,,117,boto,Catalan,Sounds/cat_boto.mp3,2020-06-05_12h52.55.642,TranslationElicitation_eng-prolific,3.2.4,MacIntel,60,5c70380bae7e770001d12831,,1,0,81,12,1,80
,,,,,,,,,,,,,,,,,,,,,,,,,,,,,,,,,,,,,,,,,,h,5.519000053,FISH,FALSE,,,,,,,117,boto,Catalan,Sounds/cat_boto.mp3,2020-06-05_12h52.55.642,TranslationElicitation_eng-prolific,3.2.4,MacIntel,60,5c70380bae7e770001d12831,,1,0,81,12,1,80
,,,,,,,,,,,,,,,,,,,,,,,,,,,,,,,,,,,,,,,,,,return,5.684000015,FISH,FALSE,,,,,,,117,boto,Catalan,Sounds/cat_boto.mp3,2020-06-05_12h52.55.642,TranslationElicitation_eng-prolific,3.2.4,MacIntel,60,5c70380bae7e770001d12831,5.684000015,1,0,81,12,1,80
,,,,,,,,,,,,,,,,,,,,,,,,,,,,,,,,,,,,,,,,,,,,,,,,,,,,117,boto,Catalan,Sounds/cat_boto.mp3,2020-06-05_12h52.55.642,TranslationElicitation_eng-prolific,3.2.4,MacIntel,60,5c70380bae7e770001d12831,,1,0,81,12,1,80
,,,,,,,,,,,,,,,,,,,,,,,,,,,,,,,,,,,,,,,,,,m,2.322999954,M,FALSE,,,,,,,106,aixeta,Catalan,Sounds/cat_aixeta.mp3,2020-06-05_12h52.55.642,TranslationElicitation_eng-prolific,3.2.4,MacIntel,60,5c70380bae7e770001d12831,,1,0,81,2,1,80
,,,,,,,,,,,,,,,,,,,,,,,,,,,,,,,,,,,,,,,,,,e,2.365999937,ME,FALSE,,,,,,,106,aixeta,Catalan,Sounds/cat_aixeta.mp3,2020-06-05_12h52.55.642,TranslationElicitation_eng-prolific,3.2.4,MacIntel,60,5c70380bae7e770001d12831,,1,0,81,2,1,80
,,,,,,,,,,,,,,,,,,,,,,,,,,,,,,,,,,,,,,,,,,a,2.51699996,MEA,FALSE,,,,,,,106,aixeta,Catalan,Sounds/cat_aixeta.mp3,2020-06-05_12h52.55.642,TranslationElicitation_eng-prolific,3.2.4,MacIntel,60,5c70380bae7e770001d12831,,1,0,81,2,1,80
,,,,,,,,,,,,,,,,,,,,,,,,,,,,,,,,,,,,,,,,,,t,2.682999849,MEAT,FALSE,,,,,,,106,aixeta,Catalan,Sounds/cat_aixeta.mp3,2020-06-05_12h52.55.642,TranslationElicitation_eng-prolific,3.2.4,MacIntel,60,5c70380bae7e770001d12831,,1,0,81,2,1,80
,,,,,,,,,,,,,,,,,,,,,,,,,,,,,,,,,,,,,,,,,,return,2.799999952,MEAT,FALSE,,,,,,,106,aixeta,Catalan,Sounds/cat_aixeta.mp3,2020-06-05_12h52.55.642,TranslationElicitation_eng-prolific,3.2.4,MacIntel,60,5c70380bae7e770001d12831,2.799999952,1,0,81,2,1,80
,,,,,,,,,,,,,,,,,,,,,,,,,,,,,,,,,,,,,,,,,,,,,,,,,,,,106,aixeta,Catalan,Sounds/cat_aixeta.mp3,2020-06-05_12h52.55.642,TranslationElicitation_eng-prolific,3.2.4,MacIntel,60,5c70380bae7e770001d12831,,1,0,81,2,1,80
,,,,,,,,,,,,,,,,,,,,,,,,,,,,,,,,,,,,,,,,,,g,4.519000053,G,FALSE,,,,,,,158,nas,Catalan,Sounds/cat_nas.mp3,2020-06-05_12h52.55.642,TranslationElicitation_eng-prolific,3.2.4,MacIntel,60,5c70380bae7e770001d12831,,1,0,81,51,1,80
,,,,,,,,,,,,,,,,,,,,,,,,,,,,,,,,,,,,,,,,,,r,4.686000109,GR,FALSE,,,,,,,158,nas,Catalan,Sounds/cat_nas.mp3,2020-06-05_12h52.55.642,TranslationElicitation_eng-prolific,3.2.4,MacIntel,60,5c70380bae7e770001d12831,,1,0,81,51,1,80
,,,,,,,,,,,,,,,,,,,,,,,,,,,,,,,,,,,,,,,,,,a,4.719000101,GRA,FALSE,,,,,,,158,nas,Catalan,Sounds/cat_nas.mp3,2020-06-05_12h52.55.642,TranslationElicitation_eng-prolific,3.2.4,MacIntel,60,5c70380bae7e770001d12831,,1,0,81,51,1,80
,,,,,,,,,,,,,,,,,,,,,,,,,,,,,,,,,,,,,,,,,,s,4.785000086,GRAS,FALSE,,,,,,,158,nas,Catalan,Sounds/cat_nas.mp3,2020-06-05_12h52.55.642,TranslationElicitation_eng-prolific,3.2.4,MacIntel,60,5c70380bae7e770001d12831,,1,0,81,51,1,80
,,,,,,,,,,,,,,,,,,,,,,,,,,,,,,,,,,,,,,,,,,s,4.986000061,GRASS,FALSE,,,,,,,158,nas,Catalan,Sounds/cat_nas.mp3,2020-06-05_12h52.55.642,TranslationElicitation_eng-prolific,3.2.4,MacIntel,60,5c70380bae7e770001d12831,,1,0,81,51,1,80
,,,,,,,,,,,,,,,,,,,,,,,,,,,,,,,,,,,,,,,,,,return,5.13499999,GRASS,FALSE,,,,,,,158,nas,Catalan,Sounds/cat_nas.mp3,2020-06-05_12h52.55.642,TranslationElicitation_eng-prolific,3.2.4,MacIntel,60,5c70380bae7e770001d12831,5.13499999,1,0,81,51,1,80
,,,,,,,,,,,,,,,,,,,,,,,,,,,,,,,,,,,,,,,,,,,,,,,,,,,,158,nas,Catalan,Sounds/cat_nas.mp3,2020-06-05_12h52.55.642,TranslationElicitation_eng-prolific,3.2.4,MacIntel,60,5c70380bae7e770001d12831,,1,0,81,51,1,80
,,,,,,,,,,,,,,,,,,,,,,,,,,,,,,,,,,,,,,,,,,g,1.684000015,G,FALSE,,,,,,,146,guitarra,Catalan,Sounds/cat_guitarra.mp3,2020-06-05_12h52.55.642,TranslationElicitation_eng-prolific,3.2.4,MacIntel,60,5c70380bae7e770001d12831,,1,0,81,40,1,80
,,,,,,,,,,,,,,,,,,,,,,,,,,,,,,,,,,,,,,,,,,u,1.75,GU,FALSE,,,,,,,146,guitarra,Catalan,Sounds/cat_guitarra.mp3,2020-06-05_12h52.55.642,TranslationElicitation_eng-prolific,3.2.4,MacIntel,60,5c70380bae7e770001d12831,,1,0,81,40,1,80
,,,,,,,,,,,,,,,,,,,,,,,,,,,,,,,,,,,,,,,,,,i,1.899999857,GUI,FALSE,,,,,,,146,guitarra,Catalan,Sounds/cat_guitarra.mp3,2020-06-05_12h52.55.642,TranslationElicitation_eng-prolific,3.2.4,MacIntel,60,5c70380bae7e770001d12831,,1,0,81,40,1,80
,,,,,,,,,,,,,,,,,,,,,,,,,,,,,,,,,,,,,,,,,,t,2.148999929,GUIT,FALSE,,,,,,,146,guitarra,Catalan,Sounds/cat_guitarra.mp3,2020-06-05_12h52.55.642,TranslationElicitation_eng-prolific,3.2.4,MacIntel,60,5c70380bae7e770001d12831,,1,0,81,40,1,80
,,,,,,,,,,,,,,,,,,,,,,,,,,,,,,,,,,,,,,,,,,a,2.214999914,GUITA,FALSE,,,,,,,146,guitarra,Catalan,Sounds/cat_guitarra.mp3,2020-06-05_12h52.55.642,TranslationElicitation_eng-prolific,3.2.4,MacIntel,60,5c70380bae7e770001d12831,,1,0,81,40,1,80
,,,,,,,,,,,,,,,,,,,,,,,,,,,,,,,,,,,,,,,,,,r,2.332999945,GUITAR,FALSE,,,,,,,146,guitarra,Catalan,Sounds/cat_guitarra.mp3,2020-06-05_12h52.55.642,TranslationElicitation_eng-prolific,3.2.4,MacIntel,60,5c70380bae7e770001d12831,,1,0,81,40,1,80
,,,,,,,,,,,,,,,,,,,,,,,,,,,,,,,,,,,,,,,,,,return,2.448999882,GUITAR,FALSE,,,,,,,146,guitarra,Catalan,Sounds/cat_guitarra.mp3,2020-06-05_12h52.55.642,TranslationElicitation_eng-prolific,3.2.4,MacIntel,60,5c70380bae7e770001d12831,2.448999882,1,0,81,40,1,80
,,,,,,,,,,,,,,,,,,,,,,,,,,,,,,,,,,,,,,,,,,,,,,,,,,,,146,guitarra,Catalan,Sounds/cat_guitarra.mp3,2020-06-05_12h52.55.642,TranslationElicitation_eng-prolific,3.2.4,MacIntel,60,5c70380bae7e770001d12831,,1,0,81,40,1,80
,,,,,,,,,,,,,,,,,,,,,,,,,,,,,,,,,,,,,,,,,,t,1.017000198,T,FALSE,,,,,,,182,tomaquet,Catalan,Sounds/cat_tomaquet.mp3,2020-06-05_12h52.55.642,TranslationElicitation_eng-prolific,3.2.4,MacIntel,60,5c70380bae7e770001d12831,,1,0,81,73,1,80
,,,,,,,,,,,,,,,,,,,,,,,,,,,,,,,,,,,,,,,,,,o,1.067000151,TO,FALSE,,,,,,,182,tomaquet,Catalan,Sounds/cat_tomaquet.mp3,2020-06-05_12h52.55.642,TranslationElicitation_eng-prolific,3.2.4,MacIntel,60,5c70380bae7e770001d12831,,1,0,81,73,1,80
,,,,,,,,,,,,,,,,,,,,,,,,,,,,,,,,,,,,,,,,,,m,1.25,TOM,FALSE,,,,,,,182,tomaquet,Catalan,Sounds/cat_tomaquet.mp3,2020-06-05_12h52.55.642,TranslationElicitation_eng-prolific,3.2.4,MacIntel,60,5c70380bae7e770001d12831,,1,0,81,73,1,80
,,,,,,,,,,,,,,,,,,,,,,,,,,,,,,,,,,,,,,,,,,a,1.401000023,TOMA,FALSE,,,,,,,182,tomaquet,Catalan,Sounds/cat_tomaquet.mp3,2020-06-05_12h52.55.642,TranslationElicitation_eng-prolific,3.2.4,MacIntel,60,5c70380bae7e770001d12831,,1,0,81,73,1,80
,,,,,,,,,,,,,,,,,,,,,,,,,,,,,,,,,,,,,,,,,,t,1.567000151,TOMAT,FALSE,,,,,,,182,tomaquet,Catalan,Sounds/cat_tomaquet.mp3,2020-06-05_12h52.55.642,TranslationElicitation_eng-prolific,3.2.4,MacIntel,60,5c70380bae7e770001d12831,,1,0,81,73,1,80
,,,,,,,,,,,,,,,,,,,,,,,,,,,,,,,,,,,,,,,,,,o,1.618000031,TOMATO,FALSE,,,,,,,182,tomaquet,Catalan,Sounds/cat_tomaquet.mp3,2020-06-05_12h52.55.642,TranslationElicitation_eng-prolific,3.2.4,MacIntel,60,5c70380bae7e770001d12831,,1,0,81,73,1,80
,,,,,,,,,,,,,,,,,,,,,,,,,,,,,,,,,,,,,,,,,,return,1.833000183,TOMATO,FALSE,,,,,,,182,tomaquet,Catalan,Sounds/cat_tomaquet.mp3,2020-06-05_12h52.55.642,TranslationElicitation_eng-prolific,3.2.4,MacIntel,60,5c70380bae7e770001d12831,1.833000183,1,0,81,73,1,80
,,,,,,,,,,,,,,,,,,,,,,,,,,,,,,,,,,,,,,,,,,,,,,,,,,,,182,tomaquet,Catalan,Sounds/cat_tomaquet.mp3,2020-06-05_12h52.55.642,TranslationElicitation_eng-prolific,3.2.4,MacIntel,60,5c70380bae7e770001d12831,,1,0,81,73,1,80
,,,,,,,,,,,,,,,,,,,,,,,,,,,,,,,,,,,,,,,,,,f,2.785000086,F,FALSE,,,,,,,165,pernil,Catalan,Sounds/cat_pernil.mp3,2020-06-05_12h52.55.642,TranslationElicitation_eng-prolific,3.2.4,MacIntel,60,5c70380bae7e770001d12831,,1,0,81,57,1,80
,,,,,,,,,,,,,,,,,,,,,,,,,,,,,,,,,,,,,,,,,,a,3.217999935,FA,FALSE,,,,,,,165,pernil,Catalan,Sounds/cat_pernil.mp3,2020-06-05_12h52.55.642,TranslationElicitation_eng-prolific,3.2.4,MacIntel,60,5c70380bae7e770001d12831,,1,0,81,57,1,80
,,,,,,,,,,,,,,,,,,,,,,,,,,,,,,,,,,,,,,,,,,r,3.351000071,FAR,FALSE,,,,,,,165,pernil,Catalan,Sounds/cat_pernil.mp3,2020-06-05_12h52.55.642,TranslationElicitation_eng-prolific,3.2.4,MacIntel,60,5c70380bae7e770001d12831,,1,0,81,57,1,80
,,,,,,,,,,,,,,,,,,,,,,,,,,,,,,,,,,,,,,,,,,m,3.88499999,FARM,FALSE,,,,,,,165,pernil,Catalan,Sounds/cat_pernil.mp3,2020-06-05_12h52.55.642,TranslationElicitation_eng-prolific,3.2.4,MacIntel,60,5c70380bae7e770001d12831,,1,0,81,57,1,80
,,,,,,,,,,,,,,,,,,,,,,,,,,,,,,,,,,,,,,,,,,return,4.071000099,FARM,FALSE,,,,,,,165,pernil,Catalan,Sounds/cat_pernil.mp3,2020-06-05_12h52.55.642,TranslationElicitation_eng-prolific,3.2.4,MacIntel,60,5c70380bae7e770001d12831,4.071000099,1,0,81,57,1,80
,,,,,,,,,,,,,,,,,,,,,,,,,,,,,,,,,,,,,,,,,,,,,,,,,,,,165,pernil,Catalan,Sounds/cat_pernil.mp3,2020-06-05_12h52.55.642,TranslationElicitation_eng-prolific,3.2.4,MacIntel,60,5c70380bae7e770001d12831,,1,0,81,57,1,80
,,,,,,,,,,,,,,,,,,,,,,,,,,,,,,,,,,,,,,,,,,b,1.933000088,B,FALSE,,,,,,,114,bol,Catalan,Sounds/cat_bol.mp3,2020-06-05_12h52.55.642,TranslationElicitation_eng-prolific,3.2.4,MacIntel,60,5c70380bae7e770001d12831,,1,0,81,9,1,80
,,,,,,,,,,,,,,,,,,,,,,,,,,,,,,,,,,,,,,,,,,a,2.032999992,BA,FALSE,,,,,,,114,bol,Catalan,Sounds/cat_bol.mp3,2020-06-05_12h52.55.642,TranslationElicitation_eng-prolific,3.2.4,MacIntel,60,5c70380bae7e770001d12831,,1,0,81,9,1,80
,,,,,,,,,,,,,,,,,,,,,,,,,,,,,,,,,,,,,,,,,,l,2.134000063,BAL,FALSE,,,,,,,114,bol,Catalan,Sounds/cat_bol.mp3,2020-06-05_12h52.55.642,TranslationElicitation_eng-prolific,3.2.4,MacIntel,60,5c70380bae7e770001d12831,,1,0,81,9,1,80
,,,,,,,,,,,,,,,,,,,,,,,,,,,,,,,,,,,,,,,,,,l,2.233999968,BALL,FALSE,,,,,,,114,bol,Catalan,Sounds/cat_bol.mp3,2020-06-05_12h52.55.642,TranslationElicitation_eng-prolific,3.2.4,MacIntel,60,5c70380bae7e770001d12831,,1,0,81,9,1,80
,,,,,,,,,,,,,,,,,,,,,,,,,,,,,,,,,,,,,,,,,,return,2.30099988,BALL,FALSE,,,,,,,114,bol,Catalan,Sounds/cat_bol.mp3,2020-06-05_12h52.55.642,TranslationElicitation_eng-prolific,3.2.4,MacIntel,60,5c70380bae7e770001d12831,2.30099988,1,0,81,9,1,80
,,,,,,,,,,,,,,,,,,,,,,,,,,,,,,,,,,,,,,,,,,,,,,,,,,,,114,bol,Catalan,Sounds/cat_bol.mp3,2020-06-05_12h52.55.642,TranslationElicitation_eng-prolific,3.2.4,MacIntel,60,5c70380bae7e770001d12831,,1,0,81,9,1,80
,,,,,,,,,,,,,,,,,,,,,,,,,,,,,,,,,,,,,,,,,,b,3.735000134,B,FALSE,,,,,,,115,bolet,Catalan,Sounds/cat_bolet.mp3,2020-06-05_12h52.55.642,TranslationElicitation_eng-prolific,3.2.4,MacIntel,60,5c70380bae7e770001d12831,,1,0,81,10,1,80
,,,,,,,,,,,,,,,,,,,,,,,,,,,,,,,,,,,,,,,,,,o,3.819000006,BO,FALSE,,,,,,,115,bolet,Catalan,Sounds/cat_bolet.mp3,2020-06-05_12h52.55.642,TranslationElicitation_eng-prolific,3.2.4,MacIntel,60,5c70380bae7e770001d12831,,1,0,81,10,1,80
,,,,,,,,,,,,,,,,,,,,,,,,,,,,,,,,,,,,,,,,,,w,3.952000141,BOW,FALSE,,,,,,,115,bolet,Catalan,Sounds/cat_bolet.mp3,2020-06-05_12h52.55.642,TranslationElicitation_eng-prolific,3.2.4,MacIntel,60,5c70380bae7e770001d12831,,1,0,81,10,1,80
,,,,,,,,,,,,,,,,,,,,,,,,,,,,,,,,,,,,,,,,,,e,4.101999998,BOWE,FALSE,,,,,,,115,bolet,Catalan,Sounds/cat_bolet.mp3,2020-06-05_12h52.55.642,TranslationElicitation_eng-prolific,3.2.4,MacIntel,60,5c70380bae7e770001d12831,,1,0,81,10,1,80
,,,,,,,,,,,,,,,,,,,,,,,,,,,,,,,,,,,,,,,,,,l,4.268000126,BOWEL,FALSE,,,,,,,115,bolet,Catalan,Sounds/cat_bolet.mp3,2020-06-05_12h52.55.642,TranslationElicitation_eng-prolific,3.2.4,MacIntel,60,5c70380bae7e770001d12831,,1,0,81,10,1,80
,,,,,,,,,,,,,,,,,,,,,,,,,,,,,,,,,,,,,,,,,,backspace,4.619000196,BOWE,TRUE,,,,,,,115,bolet,Catalan,Sounds/cat_bolet.mp3,2020-06-05_12h52.55.642,TranslationElicitation_eng-prolific,3.2.4,MacIntel,60,5c70380bae7e770001d12831,,1,0,81,10,1,80
,,,,,,,,,,,,,,,,,,,,,,,,,,,,,,,,,,,,,,,,,,backspace,4.751000166,BOW,TRUE,,,,,,,115,bolet,Catalan,Sounds/cat_bolet.mp3,2020-06-05_12h52.55.642,TranslationElicitation_eng-prolific,3.2.4,MacIntel,60,5c70380bae7e770001d12831,,1,0,81,10,1,80
,,,,,,,,,,,,,,,,,,,,,,,,,,,,,,,,,,,,,,,,,,backspace,4.902000189,BO,TRUE,,,,,,,115,bolet,Catalan,Sounds/cat_bolet.mp3,2020-06-05_12h52.55.642,TranslationElicitation_eng-prolific,3.2.4,MacIntel,60,5c70380bae7e770001d12831,,1,0,81,10,1,80
,,,,,,,,,,,,,,,,,,,,,,,,,,,,,,,,,,,,,,,,,,backspace,5.101000071,B,TRUE,,,,,,,115,bolet,Catalan,Sounds/cat_bolet.mp3,2020-06-05_12h52.55.642,TranslationElicitation_eng-prolific,3.2.4,MacIntel,60,5c70380bae7e770001d12831,,1,0,81,10,1,80
,,,,,,,,,,,,,,,,,,,,,,,,,,,,,,,,,,,,,,,,,,backspace,5.252000093,,TRUE,,,,,,,115,bolet,Catalan,Sounds/cat_bolet.mp3,2020-06-05_12h52.55.642,TranslationElicitation_eng-prolific,3.2.4,MacIntel,60,5c70380bae7e770001d12831,,1,0,81,10,1,80
,,,,,,,,,,,,,,,,,,,,,,,,,,,,,,,,,,,,,,,,,,c,5.869000196,C,TRUE,,,,,,,115,bolet,Catalan,Sounds/cat_bolet.mp3,2020-06-05_12h52.55.642,TranslationElicitation_eng-prolific,3.2.4,MacIntel,60,5c70380bae7e770001d12831,,1,0,81,10,1,80
,,,,,,,,,,,,,,,,,,,,,,,,,,,,,,,,,,,,,,,,,,u,5.935000181,CU,TRUE,,,,,,,115,bolet,Catalan,Sounds/cat_bolet.mp3,2020-06-05_12h52.55.642,TranslationElicitation_eng-prolific,3.2.4,MacIntel,60,5c70380bae7e770001d12831,,1,0,81,10,1,80
,,,,,,,,,,,,,,,,,,,,,,,,,,,,,,,,,,,,,,,,,,t,6.136000156,CUT,TRUE,,,,,,,115,bolet,Catalan,Sounds/cat_bolet.mp3,2020-06-05_12h52.55.642,TranslationElicitation_eng-prolific,3.2.4,MacIntel,60,5c70380bae7e770001d12831,,1,0,81,10,1,80
,,,,,,,,,,,,,,,,,,,,,,,,,,,,,,,,,,,,,,,,,,backspace,6.536000013,CU,TRUE,,,,,,,115,bolet,Catalan,Sounds/cat_bolet.mp3,2020-06-05_12h52.55.642,TranslationElicitation_eng-prolific,3.2.4,MacIntel,60,5c70380bae7e770001d12831,,1,0,81,10,1,80
,,,,,,,,,,,,,,,,,,,,,,,,,,,,,,,,,,,,,,,,,,t,6.669000149,CUT,TRUE,,,,,,,115,bolet,Catalan,Sounds/cat_bolet.mp3,2020-06-05_12h52.55.642,TranslationElicitation_eng-prolific,3.2.4,MacIntel,60,5c70380bae7e770001d12831,,1,0,81,10,1,80
,,,,,,,,,,,,,,,,,,,,,,,,,,,,,,,,,,,,,,,,,,l,6.952000141,CUTL,TRUE,,,,,,,115,bolet,Catalan,Sounds/cat_bolet.mp3,2020-06-05_12h52.55.642,TranslationElicitation_eng-prolific,3.2.4,MacIntel,60,5c70380bae7e770001d12831,,1,0,81,10,1,80
,,,,,,,,,,,,,,,,,,,,,,,,,,,,,,,,,,,,,,,,,,e,6.986000061,CUTLE,TRUE,,,,,,,115,bolet,Catalan,Sounds/cat_bolet.mp3,2020-06-05_12h52.55.642,TranslationElicitation_eng-prolific,3.2.4,MacIntel,60,5c70380bae7e770001d12831,,1,0,81,10,1,80
,,,,,,,,,,,,,,,,,,,,,,,,,,,,,,,,,,,,,,,,,,r,7.087000132,CUTLER,TRUE,,,,,,,115,bolet,Catalan,Sounds/cat_bolet.mp3,2020-06-05_12h52.55.642,TranslationElicitation_eng-prolific,3.2.4,MacIntel,60,5c70380bae7e770001d12831,,1,0,81,10,1,80
,,,,,,,,,,,,,,,,,,,,,,,,,,,,,,,,,,,,,,,,,,y,7.453000069,CUTLERY,TRUE,,,,,,,115,bolet,Catalan,Sounds/cat_bolet.mp3,2020-06-05_12h52.55.642,TranslationElicitation_eng-prolific,3.2.4,MacIntel,60,5c70380bae7e770001d12831,,1,0,81,10,1,80
,,,,,,,,,,,,,,,,,,,,,,,,,,,,,,,,,,,,,,,,,,return,7.586000204,CUTLERY,TRUE,,,,,,,115,bolet,Catalan,Sounds/cat_bolet.mp3,2020-06-05_12h52.55.642,TranslationElicitation_eng-prolific,3.2.4,MacIntel,60,5c70380bae7e770001d12831,7.586000204,1,0,81,10,1,80
,,,,,,,,,,,,,,,,,,,,,,,,,,,,,,,,,,,,,,,,,,,,,,,,,,,,115,bolet,Catalan,Sounds/cat_bolet.mp3,2020-06-05_12h52.55.642,TranslationElicitation_eng-prolific,3.2.4,MacIntel,60,5c70380bae7e770001d12831,,1,0,81,10,1,80
,,,,,,,,,,,,,,,,,,,,,,,,,,,,,,,,,,,,,,,,,,d,5.016000032,D,FALSE,,,,,,,124,cirera,Catalan,Sounds/cat_cirera.mp3,2020-06-05_12h52.55.642,TranslationElicitation_eng-prolific,3.2.4,MacIntel,60,5c70380bae7e770001d12831,,1,0,81,19,1,80
,,,,,,,,,,,,,,,,,,,,,,,,,,,,,,,,,,,,,,,,,,r,5.166000128,DR,FALSE,,,,,,,124,cirera,Catalan,Sounds/cat_cirera.mp3,2020-06-05_12h52.55.642,TranslationElicitation_eng-prolific,3.2.4,MacIntel,60,5c70380bae7e770001d12831,,1,0,81,19,1,80
,,,,,,,,,,,,,,,,,,,,,,,,,,,,,,,,,,,,,,,,,,e,5.301000118,DRE,FALSE,,,,,,,124,cirera,Catalan,Sounds/cat_cirera.mp3,2020-06-05_12h52.55.642,TranslationElicitation_eng-prolific,3.2.4,MacIntel,60,5c70380bae7e770001d12831,,1,0,81,19,1,80
,,,,,,,,,,,,,,,,,,,,,,,,,,,,,,,,,,,,,,,,,,s,5.483999968,DRES,FALSE,,,,,,,124,cirera,Catalan,Sounds/cat_cirera.mp3,2020-06-05_12h52.55.642,TranslationElicitation_eng-prolific,3.2.4,MacIntel,60,5c70380bae7e770001d12831,,1,0,81,19,1,80
,,,,,,,,,,,,,,,,,,,,,,,,,,,,,,,,,,,,,,,,,,s,6.417999983,DRESS,FALSE,,,,,,,124,cirera,Catalan,Sounds/cat_cirera.mp3,2020-06-05_12h52.55.642,TranslationElicitation_eng-prolific,3.2.4,MacIntel,60,5c70380bae7e770001d12831,,1,0,81,19,1,80
,,,,,,,,,,,,,,,,,,,,,,,,,,,,,,,,,,,,,,,,,,return,17.25399995,DRESS,FALSE,,,,,,,124,cirera,Catalan,Sounds/cat_cirera.mp3,2020-06-05_12h52.55.642,TranslationElicitation_eng-prolific,3.2.4,MacIntel,60,5c70380bae7e770001d12831,17.25399995,1,0,81,19,1,80
,,,,,,,,,,,,,,,,,,,,,,,,,,,,,,,,,,,,,,,,,,,,,,,,,,,,124,cirera,Catalan,Sounds/cat_cirera.mp3,2020-06-05_12h52.55.642,TranslationElicitation_eng-prolific,3.2.4,MacIntel,60,5c70380bae7e770001d12831,,1,0,81,19,1,80
,,,,,,,,,,,,,,,,,,,,,,,,,,,,,,,,,,,,,,,,,,s,5.63499999,S,FALSE,,,,,,,107,amanida,Catalan,Sounds/cat_amanida.mp3,2020-06-05_12h52.55.642,TranslationElicitation_eng-prolific,3.2.4,MacIntel,60,5c70380bae7e770001d12831,,1,0,81,3,1,80
,,,,,,,,,,,,,,,,,,,,,,,,,,,,,,,,,,,,,,,,,,h,5.717000008,SH,FALSE,,,,,,,107,amanida,Catalan,Sounds/cat_amanida.mp3,2020-06-05_12h52.55.642,TranslationElicitation_eng-prolific,3.2.4,MacIntel,60,5c70380bae7e770001d12831,,1,0,81,3,1,80
,,,,,,,,,,,,,,,,,,,,,,,,,,,,,,,,,,,,,,,,,,o,5.799999952,SHO,FALSE,,,,,,,107,amanida,Catalan,Sounds/cat_amanida.mp3,2020-06-05_12h52.55.642,TranslationElicitation_eng-prolific,3.2.4,MacIntel,60,5c70380bae7e770001d12831,,1,0,81,3,1,80
,,,,,,,,,,,,,,,,,,,,,,,,,,,,,,,,,,,,,,,,,,e,5.917999983,SHOE,FALSE,,,,,,,107,amanida,Catalan,Sounds/cat_amanida.mp3,2020-06-05_12h52.55.642,TranslationElicitation_eng-prolific,3.2.4,MacIntel,60,5c70380bae7e770001d12831,,1,0,81,3,1,80
,,,,,,,,,,,,,,,,,,,,,,,,,,,,,,,,,,,,,,,,,,return,6.068000078,SHOE,FALSE,,,,,,,107,amanida,Catalan,Sounds/cat_amanida.mp3,2020-06-05_12h52.55.642,TranslationElicitation_eng-prolific,3.2.4,MacIntel,60,5c70380bae7e770001d12831,6.068000078,1,0,81,3,1,80
,,,,,,,,,,,,,,,,,,,,,,,,,,,,,,,,,,,,,,,,,,,,,,,,,,,,107,amanida,Catalan,Sounds/cat_amanida.mp3,2020-06-05_12h52.55.642,TranslationElicitation_eng-prolific,3.2.4,MacIntel,60,5c70380bae7e770001d12831,,1,0,81,3,1,80
,,,,,,,,,,,,,,,,,,,,,,,,,,,,,,,,,,,,,,,,,,b,2.365999937,B,FALSE,,,,,,,110,berenar,Catalan,Sounds/cat_berenar.mp3,2020-06-05_12h52.55.642,TranslationElicitation_eng-prolific,3.2.4,MacIntel,60,5c70380bae7e770001d12831,,1,0,81,5,1,80
,,,,,,,,,,,,,,,,,,,,,,,,,,,,,,,,,,,,,,,,,,r,2.467000008,BR,FALSE,,,,,,,110,berenar,Catalan,Sounds/cat_berenar.mp3,2020-06-05_12h52.55.642,TranslationElicitation_eng-prolific,3.2.4,MacIntel,60,5c70380bae7e770001d12831,,1,0,81,5,1,80
,,,,,,,,,,,,,,,,,,,,,,,,,,,,,,,,,,,,,,,,,,a,2.650000095,BRA,FALSE,,,,,,,110,berenar,Catalan,Sounds/cat_berenar.mp3,2020-06-05_12h52.55.642,TranslationElicitation_eng-prolific,3.2.4,MacIntel,60,5c70380bae7e770001d12831,,1,0,81,5,1,80
,,,,,,,,,,,,,,,,,,,,,,,,,,,,,,,,,,,,,,,,,,return,3.200999975,BRA,FALSE,,,,,,,110,berenar,Catalan,Sounds/cat_berenar.mp3,2020-06-05_12h52.55.642,TranslationElicitation_eng-prolific,3.2.4,MacIntel,60,5c70380bae7e770001d12831,3.200999975,1,0,81,5,1,80
,,,,,,,,,,,,,,,,,,,,,,,,,,,,,,,,,,,,,,,,,,,,,,,,,,,,110,berenar,Catalan,Sounds/cat_berenar.mp3,2020-06-05_12h52.55.642,TranslationElicitation_eng-prolific,3.2.4,MacIntel,60,5c70380bae7e770001d12831,,1,0,81,5,1,80
,,,,,,,,,,,,,,,,,,,,,,,,,,,,,,,,,,,,,,,,,,p,2.151000023,P,FALSE,,,,,,,173,porc,Catalan,Sounds/cat_porc.mp3,2020-06-05_12h52.55.642,TranslationElicitation_eng-prolific,3.2.4,MacIntel,60,5c70380bae7e770001d12831,,1,0,81,65,1,80
,,,,,,,,,,,,,,,,,,,,,,,,,,,,,,,,,,,,,,,,,,a,2.434000015,PA,FALSE,,,,,,,173,porc,Catalan,Sounds/cat_porc.mp3,2020-06-05_12h52.55.642,TranslationElicitation_eng-prolific,3.2.4,MacIntel,60,5c70380bae7e770001d12831,,1,0,81,65,1,80
,,,,,,,,,,,,,,,,,,,,,,,,,,,,,,,,,,,,,,,,,,r,2.601999998,PAR,FALSE,,,,,,,173,porc,Catalan,Sounds/cat_porc.mp3,2020-06-05_12h52.55.642,TranslationElicitation_eng-prolific,3.2.4,MacIntel,60,5c70380bae7e770001d12831,,1,0,81,65,1,80
,,,,,,,,,,,,,,,,,,,,,,,,,,,,,,,,,,,,,,,,,,k,2.684000015,PARK,FALSE,,,,,,,173,porc,Catalan,Sounds/cat_porc.mp3,2020-06-05_12h52.55.642,TranslationElicitation_eng-prolific,3.2.4,MacIntel,60,5c70380bae7e770001d12831,,1,0,81,65,1,80
,,,,,,,,,,,,,,,,,,,,,,,,,,,,,,,,,,,,,,,,,,return,2.767999887,PARK,FALSE,,,,,,,173,porc,Catalan,Sounds/cat_porc.mp3,2020-06-05_12h52.55.642,TranslationElicitation_eng-prolific,3.2.4,MacIntel,60,5c70380bae7e770001d12831,2.767999887,1,0,81,65,1,80
,,,,,,,,,,,,,,,,,,,,,,,,,,,,,,,,,,,,,,,,,,,,,,,,,,,,173,porc,Catalan,Sounds/cat_porc.mp3,2020-06-05_12h52.55.642,TranslationElicitation_eng-prolific,3.2.4,MacIntel,60,5c70380bae7e770001d12831,,1,0,81,65,1,80
,,,,,,,,,,,,,,,,,,,,,,,,,,,,,,,,,,,,,,,,,,j,6.95600009,J,FALSE,,,,,,,185,ulleres,Catalan,Sounds/cat_ulleres.mp3,2020-06-05_12h52.55.642,TranslationElicitation_eng-prolific,3.2.4,MacIntel,60,5c70380bae7e770001d12831,,1,0,81,76,1,80
,,,,,,,,,,,,,,,,,,,,,,,,,,,,,,,,,,,,,,,,,,backspace,7.871000051,,TRUE,,,,,,,185,ulleres,Catalan,Sounds/cat_ulleres.mp3,2020-06-05_12h52.55.642,TranslationElicitation_eng-prolific,3.2.4,MacIntel,60,5c70380bae7e770001d12831,,1,0,81,76,1,80
,,,,,,,,,,,,,,,,,,,,,,,,,,,,,,,,,,,,,,,,,,b,9.370000124,B,TRUE,,,,,,,185,ulleres,Catalan,Sounds/cat_ulleres.mp3,2020-06-05_12h52.55.642,TranslationElicitation_eng-prolific,3.2.4,MacIntel,60,5c70380bae7e770001d12831,,1,0,81,76,1,80
,,,,,,,,,,,,,,,,,,,,,,,,,,,,,,,,,,,,,,,,,,u,9.921000004,BU,TRUE,,,,,,,185,ulleres,Catalan,Sounds/cat_ulleres.mp3,2020-06-05_12h52.55.642,TranslationElicitation_eng-prolific,3.2.4,MacIntel,60,5c70380bae7e770001d12831,,1,0,81,76,1,80
,,,,,,,,,,,,,,,,,,,,,,,,,,,,,,,,,,,,,,,,,,s,9.986000061,BUS,TRUE,,,,,,,185,ulleres,Catalan,Sounds/cat_ulleres.mp3,2020-06-05_12h52.55.642,TranslationElicitation_eng-prolific,3.2.4,MacIntel,60,5c70380bae7e770001d12831,,1,0,81,76,1,80
,,,,,,,,,,,,,,,,,,,,,,,,,,,,,,,,,,,,,,,,,,return,10.17000008,BUS,TRUE,,,,,,,185,ulleres,Catalan,Sounds/cat_ulleres.mp3,2020-06-05_12h52.55.642,TranslationElicitation_eng-prolific,3.2.4,MacIntel,60,5c70380bae7e770001d12831,10.17000008,1,0,81,76,1,80
,,,,,,,,,,,,,,,,,,,,,,,,,,,,,,,,,,,,,,,,,,,,,,,,,,,,185,ulleres,Catalan,Sounds/cat_ulleres.mp3,2020-06-05_12h52.55.642,TranslationElicitation_eng-prolific,3.2.4,MacIntel,60,5c70380bae7e770001d12831,,1,0,81,76,1,80
,,,,,,,,,,,,,,,,,,,,,,,,,,,,,,,,,,,,,,,,,,g,2.568000078,G,FALSE,,,,,,,145,got,Catalan,Sounds/cat_got.mp3,2020-06-05_12h52.55.642,TranslationElicitation_eng-prolific,3.2.4,MacIntel,60,5c70380bae7e770001d12831,,1,0,81,39,1,80
,,,,,,,,,,,,,,,,,,,,,,,,,,,,,,,,,,,,,,,,,,o,3.217000008,GO,FALSE,,,,,,,145,got,Catalan,Sounds/cat_got.mp3,2020-06-05_12h52.55.642,TranslationElicitation_eng-prolific,3.2.4,MacIntel,60,5c70380bae7e770001d12831,,1,0,81,39,1,80
,,,,,,,,,,,,,,,,,,,,,,,,,,,,,,,,,,,,,,,,,,a,3.367000103,GOA,FALSE,,,,,,,145,got,Catalan,Sounds/cat_got.mp3,2020-06-05_12h52.55.642,TranslationElicitation_eng-prolific,3.2.4,MacIntel,60,5c70380bae7e770001d12831,,1,0,81,39,1,80
,,,,,,,,,,,,,,,,,,,,,,,,,,,,,,,,,,,,,,,,,,t,3.585999966,GOAT,FALSE,,,,,,,145,got,Catalan,Sounds/cat_got.mp3,2020-06-05_12h52.55.642,TranslationElicitation_eng-prolific,3.2.4,MacIntel,60,5c70380bae7e770001d12831,,1,0,81,39,1,80
,,,,,,,,,,,,,,,,,,,,,,,,,,,,,,,,,,,,,,,,,,return,3.733999968,GOAT,FALSE,,,,,,,145,got,Catalan,Sounds/cat_got.mp3,2020-06-05_12h52.55.642,TranslationElicitation_eng-prolific,3.2.4,MacIntel,60,5c70380bae7e770001d12831,3.733999968,1,0,81,39,1,80
,,,,,,,,,,,,,,,,,,,,,,,,,,,,,,,,,,,,,,,,,,,,,,,,,,,,145,got,Catalan,Sounds/cat_got.mp3,2020-06-05_12h52.55.642,TranslationElicitation_eng-prolific,3.2.4,MacIntel,60,5c70380bae7e770001d12831,,1,0,81,39,1,80
,,,,,,,,,,,,,,,,,,,,,,,,,,,,,,,,,,,,,,,,,,g,2.536000013,G,FALSE,,,,,,,139,galleda,Catalan,Sounds/cat_galleda.mp3,2020-06-05_12h52.55.642,TranslationElicitation_eng-prolific,3.2.4,MacIntel,60,5c70380bae7e770001d12831,,1,0,81,33,1,80
,,,,,,,,,,,,,,,,,,,,,,,,,,,,,,,,,,,,,,,,,,a,2.619000196,GA,FALSE,,,,,,,139,galleda,Catalan,Sounds/cat_galleda.mp3,2020-06-05_12h52.55.642,TranslationElicitation_eng-prolific,3.2.4,MacIntel,60,5c70380bae7e770001d12831,,1,0,81,33,1,80
,,,,,,,,,,,,,,,,,,,,,,,,,,,,,,,,,,,,,,,,,,r,3.018000126,GAR,FALSE,,,,,,,139,galleda,Catalan,Sounds/cat_galleda.mp3,2020-06-05_12h52.55.642,TranslationElicitation_eng-prolific,3.2.4,MacIntel,60,5c70380bae7e770001d12831,,1,0,81,33,1,80
,,,,,,,,,,,,,,,,,,,,,,,,,,,,,,,,,,,,,,,,,,d,3.185000181,GARD,FALSE,,,,,,,139,galleda,Catalan,Sounds/cat_galleda.mp3,2020-06-05_12h52.55.642,TranslationElicitation_eng-prolific,3.2.4,MacIntel,60,5c70380bae7e770001d12831,,1,0,81,33,1,80
,,,,,,,,,,,,,,,,,,,,,,,,,,,,,,,,,,,,,,,,,,e,3.336000204,GARDE,FALSE,,,,,,,139,galleda,Catalan,Sounds/cat_galleda.mp3,2020-06-05_12h52.55.642,TranslationElicitation_eng-prolific,3.2.4,MacIntel,60,5c70380bae7e770001d12831,,1,0,81,33,1,80
,,,,,,,,,,,,,,,,,,,,,,,,,,,,,,,,,,,,,,,,,,n,3.38499999,GARDEN,FALSE,,,,,,,139,galleda,Catalan,Sounds/cat_galleda.mp3,2020-06-05_12h52.55.642,TranslationElicitation_eng-prolific,3.2.4,MacIntel,60,5c70380bae7e770001d12831,,1,0,81,33,1,80
,,,,,,,,,,,,,,,,,,,,,,,,,,,,,,,,,,,,,,,,,,return,3.585000038,GARDEN,FALSE,,,,,,,139,galleda,Catalan,Sounds/cat_galleda.mp3,2020-06-05_12h52.55.642,TranslationElicitation_eng-prolific,3.2.4,MacIntel,60,5c70380bae7e770001d12831,3.585000038,1,0,81,33,1,80
,,,,,,,,,,,,,,,,,,,,,,,,,,,,,,,,,,,,,,,,,,,,,,,,,,,,139,galleda,Catalan,Sounds/cat_galleda.mp3,2020-06-05_12h52.55.642,TranslationElicitation_eng-prolific,3.2.4,MacIntel,60,5c70380bae7e770001d12831,,1,0,81,33,1,80
,,,,,,,,,,,,,,,,,,,,,,,,,,,,,,,,,,,,,,,,,,u,3.434999943,U,FALSE,,,,,,,176,samarreta,Catalan,Sounds/cat_samarreta.mp3,2020-06-05_12h52.55.642,TranslationElicitation_eng-prolific,3.2.4,MacIntel,60,5c70380bae7e770001d12831,,1,0,81,68,1,80
,,,,,,,,,,,,,,,,,,,,,,,,,,,,,,,,,,,,,,,,,,m,3.65199995,UM,FALSE,,,,,,,176,samarreta,Catalan,Sounds/cat_samarreta.mp3,2020-06-05_12h52.55.642,TranslationElicitation_eng-prolific,3.2.4,MacIntel,60,5c70380bae7e770001d12831,,1,0,81,68,1,80
,,,,,,,,,,,,,,,,,,,,,,,,,,,,,,,,,,,,,,,,,,b,3.81799984,UMB,FALSE,,,,,,,176,samarreta,Catalan,Sounds/cat_samarreta.mp3,2020-06-05_12h52.55.642,TranslationElicitation_eng-prolific,3.2.4,MacIntel,60,5c70380bae7e770001d12831,,1,0,81,68,1,80
,,,,,,,,,,,,,,,,,,,,,,,,,,,,,,,,,,,,,,,,,,r,3.850999832,UMBR,FALSE,,,,,,,176,samarreta,Catalan,Sounds/cat_samarreta.mp3,2020-06-05_12h52.55.642,TranslationElicitation_eng-prolific,3.2.4,MacIntel,60,5c70380bae7e770001d12831,,1,0,81,68,1,80
,,,,,,,,,,,,,,,,,,,,,,,,,,,,,,,,,,,,,,,,,,e,4.036999941,UMBRE,FALSE,,,,,,,176,samarreta,Catalan,Sounds/cat_samarreta.mp3,2020-06-05_12h52.55.642,TranslationElicitation_eng-prolific,3.2.4,MacIntel,60,5c70380bae7e770001d12831,,1,0,81,68,1,80
,,,,,,,,,,,,,,,,,,,,,,,,,,,,,,,,,,,,,,,,,,l,4.15199995,UMBREL,FALSE,,,,,,,176,samarreta,Catalan,Sounds/cat_samarreta.mp3,2020-06-05_12h52.55.642,TranslationElicitation_eng-prolific,3.2.4,MacIntel,60,5c70380bae7e770001d12831,,1,0,81,68,1,80
,,,,,,,,,,,,,,,,,,,,,,,,,,,,,,,,,,,,,,,,,,l,4.385999918,UMBRELL,FALSE,,,,,,,176,samarreta,Catalan,Sounds/cat_samarreta.mp3,2020-06-05_12h52.55.642,TranslationElicitation_eng-prolific,3.2.4,MacIntel,60,5c70380bae7e770001d12831,,1,0,81,68,1,80
,,,,,,,,,,,,,,,,,,,,,,,,,,,,,,,,,,,,,,,,,,a,4.501999855,UMBRELLA,FALSE,,,,,,,176,samarreta,Catalan,Sounds/cat_samarreta.mp3,2020-06-05_12h52.55.642,TranslationElicitation_eng-prolific,3.2.4,MacIntel,60,5c70380bae7e770001d12831,,1,0,81,68,1,80
,,,,,,,,,,,,,,,,,,,,,,,,,,,,,,,,,,,,,,,,,,return,4.5849998,UMBRELLA,FALSE,,,,,,,176,samarreta,Catalan,Sounds/cat_samarreta.mp3,2020-06-05_12h52.55.642,TranslationElicitation_eng-prolific,3.2.4,MacIntel,60,5c70380bae7e770001d12831,4.5849998,1,0,81,68,1,80
,,,,,,,,,,,,,,,,,,,,,,,,,,,,,,,,,,,,,,,,,,,,,,,,,,,,176,samarreta,Catalan,Sounds/cat_samarreta.mp3,2020-06-05_12h52.55.642,TranslationElicitation_eng-prolific,3.2.4,MacIntel,60,5c70380bae7e770001d12831,,1,0,81,68,1,80
,,,,,,,,,,,,,,,,,,,,,,,,,,,,,,,,,,,,,,,,,,g,2.767000198,G,FALSE,,,,,,,170,ploma,Catalan,Sounds/cat_ploma.mp3,2020-06-05_12h52.55.642,TranslationElicitation_eng-prolific,3.2.4,MacIntel,60,5c70380bae7e770001d12831,,1,0,81,62,1,80
,,,,,,,,,,,,,,,,,,,,,,,,,,,,,,,,,,,,,,,,,,u,5.101999998,GU,FALSE,,,,,,,170,ploma,Catalan,Sounds/cat_ploma.mp3,2020-06-05_12h52.55.642,TranslationElicitation_eng-prolific,3.2.4,MacIntel,60,5c70380bae7e770001d12831,,1,0,81,62,1,80
,,,,,,,,,,,,,,,,,,,,,,,,,,,,,,,,,,,,,,,,,,e,5.302000046,GUE,FALSE,,,,,,,170,ploma,Catalan,Sounds/cat_ploma.mp3,2020-06-05_12h52.55.642,TranslationElicitation_eng-prolific,3.2.4,MacIntel,60,5c70380bae7e770001d12831,,1,0,81,62,1,80
,,,,,,,,,,,,,,,,,,,,,,,,,,,,,,,,,,,,,,,,,,s,5.469000101,GUES,FALSE,,,,,,,170,ploma,Catalan,Sounds/cat_ploma.mp3,2020-06-05_12h52.55.642,TranslationElicitation_eng-prolific,3.2.4,MacIntel,60,5c70380bae7e770001d12831,,1,0,81,62,1,80
,,,,,,,,,,,,,,,,,,,,,,,,,,,,,,,,,,,,,,,,,,s,5.686000109,GUESS,FALSE,,,,,,,170,ploma,Catalan,Sounds/cat_ploma.mp3,2020-06-05_12h52.55.642,TranslationElicitation_eng-prolific,3.2.4,MacIntel,60,5c70380bae7e770001d12831,,1,0,81,62,1,80
,,,,,,,,,,,,,,,,,,,,,,,,,,,,,,,,,,,,,,,,,,return,5.970000029,GUESS,FALSE,,,,,,,170,ploma,Catalan,Sounds/cat_ploma.mp3,2020-06-05_12h52.55.642,TranslationElicitation_eng-prolific,3.2.4,MacIntel,60,5c70380bae7e770001d12831,5.970000029,1,0,81,62,1,80
,,,,,,,,,,,,,,,,,,,,,,,,,,,,,,,,,,,,,,,,,,,,,,,,,,,,170,ploma,Catalan,Sounds/cat_ploma.mp3,2020-06-05_12h52.55.642,TranslationElicitation_eng-prolific,3.2.4,MacIntel,60,5c70380bae7e770001d12831,,1,0,81,62,1,80
,,,,,,,,,,,,,,,,,,,,,,,,,,,,,,,,,,,,,,,,,,b,2,B,FALSE,,,,,,,116,bolquer,Catalan,Sounds/cat_bolquer.mp3,2020-06-05_12h52.55.642,TranslationElicitation_eng-prolific,3.2.4,MacIntel,60,5c70380bae7e770001d12831,,1,0,81,11,1,80
,,,,,,,,,,,,,,,,,,,,,,,,,,,,,,,,,,,,,,,,,,o,2.084000111,BO,FALSE,,,,,,,116,bolquer,Catalan,Sounds/cat_bolquer.mp3,2020-06-05_12h52.55.642,TranslationElicitation_eng-prolific,3.2.4,MacIntel,60,5c70380bae7e770001d12831,,1,0,81,11,1,80
,,,,,,,,,,,,,,,,,,,,,,,,,,,,,,,,,,,,,,,,,,u,2.23300004,BOU,FALSE,,,,,,,116,bolquer,Catalan,Sounds/cat_bolquer.mp3,2020-06-05_12h52.55.642,TranslationElicitation_eng-prolific,3.2.4,MacIntel,60,5c70380bae7e770001d12831,,1,0,81,11,1,80
,,,,,,,,,,,,,,,,,,,,,,,,,,,,,,,,,,,,,,,,,,q,3.26699996,BOUQ,FALSE,,,,,,,116,bolquer,Catalan,Sounds/cat_bolquer.mp3,2020-06-05_12h52.55.642,TranslationElicitation_eng-prolific,3.2.4,MacIntel,60,5c70380bae7e770001d12831,,1,0,81,11,1,80
,,,,,,,,,,,,,,,,,,,,,,,,,,,,,,,,,,,,,,,,,,u,3.317000151,BOUQU,FALSE,,,,,,,116,bolquer,Catalan,Sounds/cat_bolquer.mp3,2020-06-05_12h52.55.642,TranslationElicitation_eng-prolific,3.2.4,MacIntel,60,5c70380bae7e770001d12831,,1,0,81,11,1,80
,,,,,,,,,,,,,,,,,,,,,,,,,,,,,,,,,,,,,,,,,,e,3.585000038,BOUQUE,FALSE,,,,,,,116,bolquer,Catalan,Sounds/cat_bolquer.mp3,2020-06-05_12h52.55.642,TranslationElicitation_eng-prolific,3.2.4,MacIntel,60,5c70380bae7e770001d12831,,1,0,81,11,1,80
,,,,,,,,,,,,,,,,,,,,,,,,,,,,,,,,,,,,,,,,,,t,3.799999952,BOUQUET,FALSE,,,,,,,116,bolquer,Catalan,Sounds/cat_bolquer.mp3,2020-06-05_12h52.55.642,TranslationElicitation_eng-prolific,3.2.4,MacIntel,60,5c70380bae7e770001d12831,,1,0,81,11,1,80
,,,,,,,,,,,,,,,,,,,,,,,,,,,,,,,,,,,,,,,,,,return,3.903000116,BOUQUET,FALSE,,,,,,,116,bolquer,Catalan,Sounds/cat_bolquer.mp3,2020-06-05_12h52.55.642,TranslationElicitation_eng-prolific,3.2.4,MacIntel,60,5c70380bae7e770001d12831,3.903000116,1,0,81,11,1,80
,,,,,,,,,,,,,,,,,,,,,,,,,,,,,,,,,,,,,,,,,,,,,,,,,,,,116,bolquer,Catalan,Sounds/cat_bolquer.mp3,2020-06-05_12h52.55.642,TranslationElicitation_eng-prolific,3.2.4,MacIntel,60,5c70380bae7e770001d12831,,1,0,81,11,1,80
,,,,,,,,,,,,,,,,,,,,,,,,,,,,,,,,,,,,,,,,,,p,1.767000198,P,FALSE,,,,,,,162,pa,Catalan,Sounds/cat_pa.mp3,2020-06-05_12h52.55.642,TranslationElicitation_eng-prolific,3.2.4,MacIntel,60,5c70380bae7e770001d12831,,1,0,81,54,1,80
,,,,,,,,,,,,,,,,,,,,,,,,,,,,,,,,,,,,,,,,,,a,1.850000143,PA,FALSE,,,,,,,162,pa,Catalan,Sounds/cat_pa.mp3,2020-06-05_12h52.55.642,TranslationElicitation_eng-prolific,3.2.4,MacIntel,60,5c70380bae7e770001d12831,,1,0,81,54,1,80
,,,,,,,,,,,,,,,,,,,,,,,,,,,,,,,,,,,,,,,,,,r,1.950000048,PAR,FALSE,,,,,,,162,pa,Catalan,Sounds/cat_pa.mp3,2020-06-05_12h52.55.642,TranslationElicitation_eng-prolific,3.2.4,MacIntel,60,5c70380bae7e770001d12831,,1,0,81,54,1,80
,,,,,,,,,,,,,,,,,,,,,,,,,,,,,,,,,,,,,,,,,,k,2.016000032,PARK,FALSE,,,,,,,162,pa,Catalan,Sounds/cat_pa.mp3,2020-06-05_12h52.55.642,TranslationElicitation_eng-prolific,3.2.4,MacIntel,60,5c70380bae7e770001d12831,,1,0,81,54,1,80
,,,,,,,,,,,,,,,,,,,,,,,,,,,,,,,,,,,,,,,,,,return,2.333000183,PARK,FALSE,,,,,,,162,pa,Catalan,Sounds/cat_pa.mp3,2020-06-05_12h52.55.642,TranslationElicitation_eng-prolific,3.2.4,MacIntel,60,5c70380bae7e770001d12831,2.333000183,1,0,81,54,1,80
,,,,,,,,,,,,,,,,,,,,,,,,,,,,,,,,,,,,,,,,,,,,,,,,,,,,162,pa,Catalan,Sounds/cat_pa.mp3,2020-06-05_12h52.55.642,TranslationElicitation_eng-prolific,3.2.4,MacIntel,60,5c70380bae7e770001d12831,,1,0,81,54,1,80
,,,,,,,,,,,,,,,,,,,,,,,,,,,,,,,,,,,,,,,,,,w,2.184999943,W,FALSE,,,,,,,161,ovella,Catalan,Sounds/cat_ovella.mp3,2020-06-05_12h52.55.642,TranslationElicitation_eng-prolific,3.2.4,MacIntel,60,5c70380bae7e770001d12831,,1,0,81,53,1,80
,,,,,,,,,,,,,,,,,,,,,,,,,,,,,,,,,,,,,,,,,,e,2.284999847,WE,FALSE,,,,,,,161,ovella,Catalan,Sounds/cat_ovella.mp3,2020-06-05_12h52.55.642,TranslationElicitation_eng-prolific,3.2.4,MacIntel,60,5c70380bae7e770001d12831,,1,0,81,53,1,80
,,,,,,,,,,,,,,,,,,,,,,,,,,,,,,,,,,,,,,,,,,l,2.434999943,WEL,FALSE,,,,,,,161,ovella,Catalan,Sounds/cat_ovella.mp3,2020-06-05_12h52.55.642,TranslationElicitation_eng-prolific,3.2.4,MacIntel,60,5c70380bae7e770001d12831,,1,0,81,53,1,80
,,,,,,,,,,,,,,,,,,,,,,,,,,,,,,,,,,,,,,,,,,l,2.819000006,WELL,FALSE,,,,,,,161,ovella,Catalan,Sounds/cat_ovella.mp3,2020-06-05_12h52.55.642,TranslationElicitation_eng-prolific,3.2.4,MacIntel,60,5c70380bae7e770001d12831,,1,0,81,53,1,80
,,,,,,,,,,,,,,,,,,,,,,,,,,,,,,,,,,,,,,,,,,return,2.90199995,WELL,FALSE,,,,,,,161,ovella,Catalan,Sounds/cat_ovella.mp3,2020-06-05_12h52.55.642,TranslationElicitation_eng-prolific,3.2.4,MacIntel,60,5c70380bae7e770001d12831,2.90199995,1,0,81,53,1,80
,,,,,,,,,,,,,,,,,,,,,,,,,,,,,,,,,,,,,,,,,,,,,,,,,,,,161,ovella,Catalan,Sounds/cat_ovella.mp3,2020-06-05_12h52.55.642,TranslationElicitation_eng-prolific,3.2.4,MacIntel,60,5c70380bae7e770001d12831,,1,0,81,53,1,80
,,,,,,,,,,,,,,,,,,,,,,,,,,,,,,,,,,,,,,,,,,d,3.333999872,D,FALSE,,,,,,,129,dit,Catalan,Sounds/cat_dit.mp3,2020-06-05_12h52.55.642,TranslationElicitation_eng-prolific,3.2.4,MacIntel,60,5c70380bae7e770001d12831,,1,0,81,23,1,80
,,,,,,,,,,,,,,,,,,,,,,,,,,,,,,,,,,,,,,,,,,i,3.517999887,DI,FALSE,,,,,,,129,dit,Catalan,Sounds/cat_dit.mp3,2020-06-05_12h52.55.642,TranslationElicitation_eng-prolific,3.2.4,MacIntel,60,5c70380bae7e770001d12831,,1,0,81,23,1,80
,,,,,,,,,,,,,,,,,,,,,,,,,,,,,,,,,,,,,,,,,,e,4.750999928,DIE,FALSE,,,,,,,129,dit,Catalan,Sounds/cat_dit.mp3,2020-06-05_12h52.55.642,TranslationElicitation_eng-prolific,3.2.4,MacIntel,60,5c70380bae7e770001d12831,,1,0,81,23,1,80
,,,,,,,,,,,,,,,,,,,,,,,,,,,,,,,,,,,,,,,,,,d,4.91899991,DIED,FALSE,,,,,,,129,dit,Catalan,Sounds/cat_dit.mp3,2020-06-05_12h52.55.642,TranslationElicitation_eng-prolific,3.2.4,MacIntel,60,5c70380bae7e770001d12831,,1,0,81,23,1,80
,,,,,,,,,,,,,,,,,,,,,,,,,,,,,,,,,,,,,,,,,,return,5.017999887,DIED,FALSE,,,,,,,129,dit,Catalan,Sounds/cat_dit.mp3,2020-06-05_12h52.55.642,TranslationElicitation_eng-prolific,3.2.4,MacIntel,60,5c70380bae7e770001d12831,5.017999887,1,0,81,23,1,80
,,,,,,,,,,,,,,,,,,,,,,,,,,,,,,,,,,,,,,,,,,,,,,,,,,,,129,dit,Catalan,Sounds/cat_dit.mp3,2020-06-05_12h52.55.642,TranslationElicitation_eng-prolific,3.2.4,MacIntel,60,5c70380bae7e770001d12831,,1,0,81,23,1,80
,,,,,,,,,,,,,,,,,,,,,,,,,,,,,,,,,,,,,,,,,,r,2.218000174,R,FALSE,,,,,,,175,raspall,Catalan,Sounds/cat_raspall.mp3,2020-06-05_12h52.55.642,TranslationElicitation_eng-prolific,3.2.4,MacIntel,60,5c70380bae7e770001d12831,,1,0,81,67,1,80
,,,,,,,,,,,,,,,,,,,,,,,,,,,,,,,,,,,,,,,,,,e,2.403000116,RE,FALSE,,,,,,,175,raspall,Catalan,Sounds/cat_raspall.mp3,2020-06-05_12h52.55.642,TranslationElicitation_eng-prolific,3.2.4,MacIntel,60,5c70380bae7e770001d12831,,1,0,81,67,1,80
,,,,,,,,,,,,,,,,,,,,,,,,,,,,,,,,,,,,,,,,,,s,2.568000078,RES,FALSE,,,,,,,175,raspall,Catalan,Sounds/cat_raspall.mp3,2020-06-05_12h52.55.642,TranslationElicitation_eng-prolific,3.2.4,MacIntel,60,5c70380bae7e770001d12831,,1,0,81,67,1,80
,,,,,,,,,,,,,,,,,,,,,,,,,,,,,,,,,,,,,,,,,,p,2.651000023,RESP,FALSE,,,,,,,175,raspall,Catalan,Sounds/cat_raspall.mp3,2020-06-05_12h52.55.642,TranslationElicitation_eng-prolific,3.2.4,MacIntel,60,5c70380bae7e770001d12831,,1,0,81,67,1,80
,,,,,,,,,,,,,,,,,,,,,,,,,,,,,,,,,,,,,,,,,,i,2.801000118,RESPI,FALSE,,,,,,,175,raspall,Catalan,Sounds/cat_raspall.mp3,2020-06-05_12h52.55.642,TranslationElicitation_eng-prolific,3.2.4,MacIntel,60,5c70380bae7e770001d12831,,1,0,81,67,1,80
