consentKey.keys,consentKey.rt,languageL1Key.keys,languageL1Key.rt,languageL2,languageL2OralKey.keys,languageL2OralKey.rt,languageL2WrittenKey.keys,languageL2WrittenKey.rt,languageL3,languageL3OralKey.keys,languageL3OralKey.rt,languageL3WrittenKey.keys,languageL3WrittenKey.rt,languageCatalanOralKey.keys,languageCatalanOralKey.rt,languageCatalanWrittenKey.keys,languageCatalanWrittenKey.rt,languageCatalanTimeKey.keys,languageCatalanTimeKey.rt,languageSpanishOralKey.keys,languageSpanishOralKey.rt,languageSpanishWrittenKey.keys,languageSpanishWrittenKey.rt,languageSpanishTimeKey.keys,languageSpanishTimeKey.rt,age,demoSexKey.keys,demoSexKey.rt,demoEducationKey.keys,demoEducationKey.rt,city,demoVisionKey.keys,demoVisionKey.rt,demoLanguageKey.keys,demoLanguageKey.rt,setupLocationKey.keys,setupLocationKey.rt,setupNoiseKey.keys,setupNoiseKey.rt,instructionsKeys.keys,instructionsKeys.rt,keyPressed,keyPressTime,inputText,error,trialsPracticeCatalan.thisRepN,trialsPracticeCatalan.thisTrialN,trialsPracticeCatalan.thisN,trialsPracticeCatalan.thisIndex,trialsPracticeCatalan.ran,trialsPracticeCatalan.order,trial_id,word,test_language,soundfile,date,expName,psychopyVersion,OS,frameRate,participant,trialOffset,trialsCatalan.thisRepN,trialsCatalan.thisTrialN,trialsCatalan.thisN,trialsCatalan.thisIndex,trialsCatalan.ran,trialsCatalan.order
space,1.498999834,e,5.80099988, ,1,18.05200005,1,4.954999924,,,,,,1,4.249000072,1,1.84499979,1,4.762999773,2,3.444999933,1,5.296000004,1,2.213999987,20,f,1.515999794,4,3.951999903,BOURNEMOUTH,y,8.246999741,n,3.133000135,1,4.747999907,1,6.695999861,space,15.61999989,g,14.81900001,G,FALSE,1,0,5,2,1,4,147,jaqueta,Catalan,Sounds/cat_jaqueta.mp3,2020-06-05_13h56.55.679,TranslationElicitation_eng-prolific,3.2.4,MacIntel,60,5c953449e4d1d200172f23f6,,,,,,,
,,,,,,,,,,,,,,,,,,,,,,,,,,,,,,,,,,,,,,,,,,o,14.90199995,GO,FALSE,1,0,5,2,1,4,147,jaqueta,Catalan,Sounds/cat_jaqueta.mp3,2020-06-05_13h56.55.679,TranslationElicitation_eng-prolific,3.2.4,MacIntel,60,5c953449e4d1d200172f23f6,,,,,,,
,,,,,,,,,,,,,,,,,,,,,,,,,,,,,,,,,,,,,,,,,,o,15.03500009,GOO,FALSE,1,0,5,2,1,4,147,jaqueta,Catalan,Sounds/cat_jaqueta.mp3,2020-06-05_13h56.55.679,TranslationElicitation_eng-prolific,3.2.4,MacIntel,60,5c953449e4d1d200172f23f6,,,,,,,
,,,,,,,,,,,,,,,,,,,,,,,,,,,,,,,,,,,,,,,,,,d,15.15199995,GOOD,FALSE,1,0,5,2,1,4,147,jaqueta,Catalan,Sounds/cat_jaqueta.mp3,2020-06-05_13h56.55.679,TranslationElicitation_eng-prolific,3.2.4,MacIntel,60,5c953449e4d1d200172f23f6,,,,,,,
,,,,,,,,,,,,,,,,,,,,,,,,,,,,,,,,,,,,,,,,,,space,15.23500013,GOOD ,FALSE,1,0,5,2,1,4,147,jaqueta,Catalan,Sounds/cat_jaqueta.mp3,2020-06-05_13h56.55.679,TranslationElicitation_eng-prolific,3.2.4,MacIntel,60,5c953449e4d1d200172f23f6,,,,,,,
,,,,,,,,,,,,,,,,,,,,,,,,,,,,,,,,,,,,,,,,,,m,15.352,GOOD M,FALSE,1,0,5,2,1,4,147,jaqueta,Catalan,Sounds/cat_jaqueta.mp3,2020-06-05_13h56.55.679,TranslationElicitation_eng-prolific,3.2.4,MacIntel,60,5c953449e4d1d200172f23f6,,,,,,,
,,,,,,,,,,,,,,,,,,,,,,,,,,,,,,,,,,,,,,,,,,o,15.53600001,GOOD MO,FALSE,1,0,5,2,1,4,147,jaqueta,Catalan,Sounds/cat_jaqueta.mp3,2020-06-05_13h56.55.679,TranslationElicitation_eng-prolific,3.2.4,MacIntel,60,5c953449e4d1d200172f23f6,,,,,,,
,,,,,,,,,,,,,,,,,,,,,,,,,,,,,,,,,,,,,,,,,,r,15.70200014,GOOD MOR,FALSE,1,0,5,2,1,4,147,jaqueta,Catalan,Sounds/cat_jaqueta.mp3,2020-06-05_13h56.55.679,TranslationElicitation_eng-prolific,3.2.4,MacIntel,60,5c953449e4d1d200172f23f6,,,,,,,
,,,,,,,,,,,,,,,,,,,,,,,,,,,,,,,,,,,,,,,,,,n,15.852,GOOD MORN,FALSE,1,0,5,2,1,4,147,jaqueta,Catalan,Sounds/cat_jaqueta.mp3,2020-06-05_13h56.55.679,TranslationElicitation_eng-prolific,3.2.4,MacIntel,60,5c953449e4d1d200172f23f6,,,,,,,
,,,,,,,,,,,,,,,,,,,,,,,,,,,,,,,,,,,,,,,,,,i,15.93600011,GOOD MORNI,FALSE,1,0,5,2,1,4,147,jaqueta,Catalan,Sounds/cat_jaqueta.mp3,2020-06-05_13h56.55.679,TranslationElicitation_eng-prolific,3.2.4,MacIntel,60,5c953449e4d1d200172f23f6,,,,,,,
,,,,,,,,,,,,,,,,,,,,,,,,,,,,,,,,,,,,,,,,,,n,16.03600001,GOOD MORNIN,FALSE,1,0,5,2,1,4,147,jaqueta,Catalan,Sounds/cat_jaqueta.mp3,2020-06-05_13h56.55.679,TranslationElicitation_eng-prolific,3.2.4,MacIntel,60,5c953449e4d1d200172f23f6,,,,,,,
,,,,,,,,,,,,,,,,,,,,,,,,,,,,,,,,,,,,,,,,,,g,16.15199995,GOOD MORNING,FALSE,1,0,5,2,1,4,147,jaqueta,Catalan,Sounds/cat_jaqueta.mp3,2020-06-05_13h56.55.679,TranslationElicitation_eng-prolific,3.2.4,MacIntel,60,5c953449e4d1d200172f23f6,,,,,,,
,,,,,,,,,,,,,,,,,,,,,,,,,,,,,,,,,,,,,,,,,,return,17.41900015,GOOD MORNING,FALSE,1,0,5,2,1,4,147,jaqueta,Catalan,Sounds/cat_jaqueta.mp3,2020-06-05_13h56.55.679,TranslationElicitation_eng-prolific,3.2.4,MacIntel,60,5c953449e4d1d200172f23f6,17.41900015,,,,,,
,,,,,,,,,,,,,,,,,,,,,,,,,,,,,,,,,,,,,,,,,,,,,,1,0,5,2,1,4,147,jaqueta,Catalan,Sounds/cat_jaqueta.mp3,2020-06-05_13h56.55.679,TranslationElicitation_eng-prolific,3.2.4,MacIntel,60,5c953449e4d1d200172f23f6,,,,,,,
,,,,,,,,,,,,,,,,,,,,,,,,,,,,,,,,,,,,,,,,,,h,14.13599992,H,FALSE,1,0,5,0,1,4,109,arbre,Catalan,Sounds/cat_arbre.mp3,2020-06-05_13h56.55.679,TranslationElicitation_eng-prolific,3.2.4,MacIntel,60,5c953449e4d1d200172f23f6,,,,,,,
,,,,,,,,,,,,,,,,,,,,,,,,,,,,,,,,,,,,,,,,,,a,14.31900001,HA,FALSE,1,0,5,0,1,4,109,arbre,Catalan,Sounds/cat_arbre.mp3,2020-06-05_13h56.55.679,TranslationElicitation_eng-prolific,3.2.4,MacIntel,60,5c953449e4d1d200172f23f6,,,,,,,
,,,,,,,,,,,,,,,,,,,,,,,,,,,,,,,,,,,,,,,,,,p,14.43599987,HAP,FALSE,1,0,5,0,1,4,109,arbre,Catalan,Sounds/cat_arbre.mp3,2020-06-05_13h56.55.679,TranslationElicitation_eng-prolific,3.2.4,MacIntel,60,5c953449e4d1d200172f23f6,,,,,,,
,,,,,,,,,,,,,,,,,,,,,,,,,,,,,,,,,,,,,,,,,,p,14.58599997,HAPP,FALSE,1,0,5,0,1,4,109,arbre,Catalan,Sounds/cat_arbre.mp3,2020-06-05_13h56.55.679,TranslationElicitation_eng-prolific,3.2.4,MacIntel,60,5c953449e4d1d200172f23f6,,,,,,,
,,,,,,,,,,,,,,,,,,,,,,,,,,,,,,,,,,,,,,,,,,y,14.68599987,HAPPY,FALSE,1,0,5,0,1,4,109,arbre,Catalan,Sounds/cat_arbre.mp3,2020-06-05_13h56.55.679,TranslationElicitation_eng-prolific,3.2.4,MacIntel,60,5c953449e4d1d200172f23f6,,,,,,,
,,,,,,,,,,,,,,,,,,,,,,,,,,,,,,,,,,,,,,,,,,return,15.06900001,HAPPY,FALSE,1,0,5,0,1,4,109,arbre,Catalan,Sounds/cat_arbre.mp3,2020-06-05_13h56.55.679,TranslationElicitation_eng-prolific,3.2.4,MacIntel,60,5c953449e4d1d200172f23f6,15.06900001,,,,,,
,,,,,,,,,,,,,,,,,,,,,,,,,,,,,,,,,,,,,,,,,,,,,,1,0,5,0,1,4,109,arbre,Catalan,Sounds/cat_arbre.mp3,2020-06-05_13h56.55.679,TranslationElicitation_eng-prolific,3.2.4,MacIntel,60,5c953449e4d1d200172f23f6,,,,,,,
,,,,,,,,,,,,,,,,,,,,,,,,,,,,,,,,,,,,,,,,,,y,8.568000078,Y,FALSE,1,0,5,3,1,4,159,onada,Catalan,Sounds/cat_onada.mp3,2020-06-05_13h56.55.679,TranslationElicitation_eng-prolific,3.2.4,MacIntel,60,5c953449e4d1d200172f23f6,,,,,,,
,,,,,,,,,,,,,,,,,,,,,,,,,,,,,,,,,,,,,,,,,,o,8.651000023,YO,FALSE,1,0,5,3,1,4,159,onada,Catalan,Sounds/cat_onada.mp3,2020-06-05_13h56.55.679,TranslationElicitation_eng-prolific,3.2.4,MacIntel,60,5c953449e4d1d200172f23f6,,,,,,,
,,,,,,,,,,,,,,,,,,,,,,,,,,,,,,,,,,,,,,,,,,u,8.750999928,YOU,FALSE,1,0,5,3,1,4,159,onada,Catalan,Sounds/cat_onada.mp3,2020-06-05_13h56.55.679,TranslationElicitation_eng-prolific,3.2.4,MacIntel,60,5c953449e4d1d200172f23f6,,,,,,,
,,,,,,,,,,,,,,,,,,,,,,,,,,,,,,,,,,,,,,,,,,r,9.05099988,YOUR,FALSE,1,0,5,3,1,4,159,onada,Catalan,Sounds/cat_onada.mp3,2020-06-05_13h56.55.679,TranslationElicitation_eng-prolific,3.2.4,MacIntel,60,5c953449e4d1d200172f23f6,,,,,,,
,,,,,,,,,,,,,,,,,,,,,,,,,,,,,,,,,,,,,,,,,,e,9.151000023,YOURE,FALSE,1,0,5,3,1,4,159,onada,Catalan,Sounds/cat_onada.mp3,2020-06-05_13h56.55.679,TranslationElicitation_eng-prolific,3.2.4,MacIntel,60,5c953449e4d1d200172f23f6,,,,,,,
,,,,,,,,,,,,,,,,,,,,,,,,,,,,,,,,,,,,,,,,,,space,9.200999975,YOURE ,FALSE,1,0,5,3,1,4,159,onada,Catalan,Sounds/cat_onada.mp3,2020-06-05_13h56.55.679,TranslationElicitation_eng-prolific,3.2.4,MacIntel,60,5c953449e4d1d200172f23f6,,,,,,,
,,,,,,,,,,,,,,,,,,,,,,,,,,,,,,,,,,,,,,,,,,w,9.318000078,YOURE W,FALSE,1,0,5,3,1,4,159,onada,Catalan,Sounds/cat_onada.mp3,2020-06-05_13h56.55.679,TranslationElicitation_eng-prolific,3.2.4,MacIntel,60,5c953449e4d1d200172f23f6,,,,,,,
,,,,,,,,,,,,,,,,,,,,,,,,,,,,,,,,,,,,,,,,,,e,9.401000023,YOURE WE,FALSE,1,0,5,3,1,4,159,onada,Catalan,Sounds/cat_onada.mp3,2020-06-05_13h56.55.679,TranslationElicitation_eng-prolific,3.2.4,MacIntel,60,5c953449e4d1d200172f23f6,,,,,,,
,,,,,,,,,,,,,,,,,,,,,,,,,,,,,,,,,,,,,,,,,,l,9.500999928,YOURE WEL,FALSE,1,0,5,3,1,4,159,onada,Catalan,Sounds/cat_onada.mp3,2020-06-05_13h56.55.679,TranslationElicitation_eng-prolific,3.2.4,MacIntel,60,5c953449e4d1d200172f23f6,,,,,,,
,,,,,,,,,,,,,,,,,,,,,,,,,,,,,,,,,,,,,,,,,,c,9.667999983,YOURE WELC,FALSE,1,0,5,3,1,4,159,onada,Catalan,Sounds/cat_onada.mp3,2020-06-05_13h56.55.679,TranslationElicitation_eng-prolific,3.2.4,MacIntel,60,5c953449e4d1d200172f23f6,,,,,,,
,,,,,,,,,,,,,,,,,,,,,,,,,,,,,,,,,,,,,,,,,,o,9.751999855,YOURE WELCO,FALSE,1,0,5,3,1,4,159,onada,Catalan,Sounds/cat_onada.mp3,2020-06-05_13h56.55.679,TranslationElicitation_eng-prolific,3.2.4,MacIntel,60,5c953449e4d1d200172f23f6,,,,,,,
,,,,,,,,,,,,,,,,,,,,,,,,,,,,,,,,,,,,,,,,,,m,9.818000078,YOURE WELCOM,FALSE,1,0,5,3,1,4,159,onada,Catalan,Sounds/cat_onada.mp3,2020-06-05_13h56.55.679,TranslationElicitation_eng-prolific,3.2.4,MacIntel,60,5c953449e4d1d200172f23f6,,,,,,,
,,,,,,,,,,,,,,,,,,,,,,,,,,,,,,,,,,,,,,,,,,e,9.901000023,YOURE WELCOME,FALSE,1,0,5,3,1,4,159,onada,Catalan,Sounds/cat_onada.mp3,2020-06-05_13h56.55.679,TranslationElicitation_eng-prolific,3.2.4,MacIntel,60,5c953449e4d1d200172f23f6,,,,,,,
,,,,,,,,,,,,,,,,,,,,,,,,,,,,,,,,,,,,,,,,,,return,11.13499999,YOURE WELCOME,FALSE,1,0,5,3,1,4,159,onada,Catalan,Sounds/cat_onada.mp3,2020-06-05_13h56.55.679,TranslationElicitation_eng-prolific,3.2.4,MacIntel,60,5c953449e4d1d200172f23f6,11.13499999,,,,,,
,,,,,,,,,,,,,,,,,,,,,,,,,,,,,,,,,,,,,,,,,,,,,,1,0,5,3,1,4,159,onada,Catalan,Sounds/cat_onada.mp3,2020-06-05_13h56.55.679,TranslationElicitation_eng-prolific,3.2.4,MacIntel,60,5c953449e4d1d200172f23f6,,,,,,,
,,,,,,,,,,,,,,,,,,,,,,,,,,,,,,,,,,,,,,,,,,p,6.901000023,P,FALSE,1,0,5,4,1,4,179,tigre,Catalan,Sounds/cat_tigre.mp3,2020-06-05_13h56.55.679,TranslationElicitation_eng-prolific,3.2.4,MacIntel,60,5c953449e4d1d200172f23f6,,,,,,,
,,,,,,,,,,,,,,,,,,,,,,,,,,,,,,,,,,,,,,,,,,l,6.967999935,PL,FALSE,1,0,5,4,1,4,179,tigre,Catalan,Sounds/cat_tigre.mp3,2020-06-05_13h56.55.679,TranslationElicitation_eng-prolific,3.2.4,MacIntel,60,5c953449e4d1d200172f23f6,,,,,,,
,,,,,,,,,,,,,,,,,,,,,,,,,,,,,,,,,,,,,,,,,,e,7.101000071,PLE,FALSE,1,0,5,4,1,4,179,tigre,Catalan,Sounds/cat_tigre.mp3,2020-06-05_13h56.55.679,TranslationElicitation_eng-prolific,3.2.4,MacIntel,60,5c953449e4d1d200172f23f6,,,,,,,
,,,,,,,,,,,,,,,,,,,,,,,,,,,,,,,,,,,,,,,,,,a,7.30099988,PLEA,FALSE,1,0,5,4,1,4,179,tigre,Catalan,Sounds/cat_tigre.mp3,2020-06-05_13h56.55.679,TranslationElicitation_eng-prolific,3.2.4,MacIntel,60,5c953449e4d1d200172f23f6,,,,,,,
,,,,,,,,,,,,,,,,,,,,,,,,,,,,,,,,,,,,,,,,,,s,7.368000031,PLEAS,FALSE,1,0,5,4,1,4,179,tigre,Catalan,Sounds/cat_tigre.mp3,2020-06-05_13h56.55.679,TranslationElicitation_eng-prolific,3.2.4,MacIntel,60,5c953449e4d1d200172f23f6,,,,,,,
,,,,,,,,,,,,,,,,,,,,,,,,,,,,,,,,,,,,,,,,,,backspace,8.068000078,PLEA,TRUE,1,0,5,4,1,4,179,tigre,Catalan,Sounds/cat_tigre.mp3,2020-06-05_13h56.55.679,TranslationElicitation_eng-prolific,3.2.4,MacIntel,60,5c953449e4d1d200172f23f6,,,,,,,
,,,,,,,,,,,,,,,,,,,,,,,,,,,,,,,,,,,,,,,,,,backspace,8.302000046,PLE,TRUE,1,0,5,4,1,4,179,tigre,Catalan,Sounds/cat_tigre.mp3,2020-06-05_13h56.55.679,TranslationElicitation_eng-prolific,3.2.4,MacIntel,60,5c953449e4d1d200172f23f6,,,,,,,
,,,,,,,,,,,,,,,,,,,,,,,,,,,,,,,,,,,,,,,,,,backspace,8.484999895,PL,TRUE,1,0,5,4,1,4,179,tigre,Catalan,Sounds/cat_tigre.mp3,2020-06-05_13h56.55.679,TranslationElicitation_eng-prolific,3.2.4,MacIntel,60,5c953449e4d1d200172f23f6,,,,,,,
,,,,,,,,,,,,,,,,,,,,,,,,,,,,,,,,,,,,,,,,,,backspace,8.651000023,P,TRUE,1,0,5,4,1,4,179,tigre,Catalan,Sounds/cat_tigre.mp3,2020-06-05_13h56.55.679,TranslationElicitation_eng-prolific,3.2.4,MacIntel,60,5c953449e4d1d200172f23f6,,,,,,,
,,,,,,,,,,,,,,,,,,,,,,,,,,,,,,,,,,,,,,,,,,backspace,8.80099988,,TRUE,1,0,5,4,1,4,179,tigre,Catalan,Sounds/cat_tigre.mp3,2020-06-05_13h56.55.679,TranslationElicitation_eng-prolific,3.2.4,MacIntel,60,5c953449e4d1d200172f23f6,,,,,,,
,,,,,,,,,,,,,,,,,,,,,,,,,,,,,,,,,,,,,,,,,,y,8.967999935,Y,TRUE,1,0,5,4,1,4,179,tigre,Catalan,Sounds/cat_tigre.mp3,2020-06-05_13h56.55.679,TranslationElicitation_eng-prolific,3.2.4,MacIntel,60,5c953449e4d1d200172f23f6,,,,,,,
,,,,,,,,,,,,,,,,,,,,,,,,,,,,,,,,,,,,,,,,,,e,9.035000086,YE,TRUE,1,0,5,4,1,4,179,tigre,Catalan,Sounds/cat_tigre.mp3,2020-06-05_13h56.55.679,TranslationElicitation_eng-prolific,3.2.4,MacIntel,60,5c953449e4d1d200172f23f6,,,,,,,
,,,,,,,,,,,,,,,,,,,,,,,,,,,,,,,,,,,,,,,,,,s,9.200999975,YES,TRUE,1,0,5,4,1,4,179,tigre,Catalan,Sounds/cat_tigre.mp3,2020-06-05_13h56.55.679,TranslationElicitation_eng-prolific,3.2.4,MacIntel,60,5c953449e4d1d200172f23f6,,,,,,,
,,,,,,,,,,,,,,,,,,,,,,,,,,,,,,,,,,,,,,,,,,backspace,9.752000093,YE,TRUE,1,0,5,4,1,4,179,tigre,Catalan,Sounds/cat_tigre.mp3,2020-06-05_13h56.55.679,TranslationElicitation_eng-prolific,3.2.4,MacIntel,60,5c953449e4d1d200172f23f6,,,,,,,
,,,,,,,,,,,,,,,,,,,,,,,,,,,,,,,,,,,,,,,,,,backspace,9.950999975,Y,TRUE,1,0,5,4,1,4,179,tigre,Catalan,Sounds/cat_tigre.mp3,2020-06-05_13h56.55.679,TranslationElicitation_eng-prolific,3.2.4,MacIntel,60,5c953449e4d1d200172f23f6,,,,,,,
,,,,,,,,,,,,,,,,,,,,,,,,,,,,,,,,,,,,,,,,,,backspace,10.13499999,,TRUE,1,0,5,4,1,4,179,tigre,Catalan,Sounds/cat_tigre.mp3,2020-06-05_13h56.55.679,TranslationElicitation_eng-prolific,3.2.4,MacIntel,60,5c953449e4d1d200172f23f6,,,,,,,
,,,,,,,,,,,,,,,,,,,,,,,,,,,,,,,,,,,,,,,,,,backspace,10.30200005,,TRUE,1,0,5,4,1,4,179,tigre,Catalan,Sounds/cat_tigre.mp3,2020-06-05_13h56.55.679,TranslationElicitation_eng-prolific,3.2.4,MacIntel,60,5c953449e4d1d200172f23f6,,,,,,,
,,,,,,,,,,,,,,,,,,,,,,,,,,,,,,,,,,,,,,,,,,p,10.56800008,P,TRUE,1,0,5,4,1,4,179,tigre,Catalan,Sounds/cat_tigre.mp3,2020-06-05_13h56.55.679,TranslationElicitation_eng-prolific,3.2.4,MacIntel,60,5c953449e4d1d200172f23f6,,,,,,,
,,,,,,,,,,,,,,,,,,,,,,,,,,,,,,,,,,,,,,,,,,l,10.65199995,PL,TRUE,1,0,5,4,1,4,179,tigre,Catalan,Sounds/cat_tigre.mp3,2020-06-05_13h56.55.679,TranslationElicitation_eng-prolific,3.2.4,MacIntel,60,5c953449e4d1d200172f23f6,,,,,,,
,,,,,,,,,,,,,,,,,,,,,,,,,,,,,,,,,,,,,,,,,,e,10.7349999,PLE,TRUE,1,0,5,4,1,4,179,tigre,Catalan,Sounds/cat_tigre.mp3,2020-06-05_13h56.55.679,TranslationElicitation_eng-prolific,3.2.4,MacIntel,60,5c953449e4d1d200172f23f6,,,,,,,
,,,,,,,,,,,,,,,,,,,,,,,,,,,,,,,,,,,,,,,,,,a,10.83500004,PLEA,TRUE,1,0,5,4,1,4,179,tigre,Catalan,Sounds/cat_tigre.mp3,2020-06-05_13h56.55.679,TranslationElicitation_eng-prolific,3.2.4,MacIntel,60,5c953449e4d1d200172f23f6,,,,,,,
,,,,,,,,,,,,,,,,,,,,,,,,,,,,,,,,,,,,,,,,,,s,10.852,PLEAS,TRUE,1,0,5,4,1,4,179,tigre,Catalan,Sounds/cat_tigre.mp3,2020-06-05_13h56.55.679,TranslationElicitation_eng-prolific,3.2.4,MacIntel,60,5c953449e4d1d200172f23f6,,,,,,,
,,,,,,,,,,,,,,,,,,,,,,,,,,,,,,,,,,,,,,,,,,e,10.9519999,PLEASE,TRUE,1,0,5,4,1,4,179,tigre,Catalan,Sounds/cat_tigre.mp3,2020-06-05_13h56.55.679,TranslationElicitation_eng-prolific,3.2.4,MacIntel,60,5c953449e4d1d200172f23f6,,,,,,,
,,,,,,,,,,,,,,,,,,,,,,,,,,,,,,,,,,,,,,,,,,return,11.28500009,PLEASE,TRUE,1,0,5,4,1,4,179,tigre,Catalan,Sounds/cat_tigre.mp3,2020-06-05_13h56.55.679,TranslationElicitation_eng-prolific,3.2.4,MacIntel,60,5c953449e4d1d200172f23f6,11.28500009,,,,,,
,,,,,,,,,,,,,,,,,,,,,,,,,,,,,,,,,,,,,,,,,,,,,,1,0,5,4,1,4,179,tigre,Catalan,Sounds/cat_tigre.mp3,2020-06-05_13h56.55.679,TranslationElicitation_eng-prolific,3.2.4,MacIntel,60,5c953449e4d1d200172f23f6,,,,,,,
,,,,,,,,,,,,,,,,,,,,,,,,,,,,,,,,,,,,,,,,,,g,6.05099988,G,FALSE,1,0,5,1,1,4,126,corona,Catalan,Sounds/cat_corona.mp3,2020-06-05_13h56.55.679,TranslationElicitation_eng-prolific,3.2.4,MacIntel,60,5c953449e4d1d200172f23f6,,,,,,,
,,,,,,,,,,,,,,,,,,,,,,,,,,,,,,,,,,,,,,,,,,o,6.100999832,GO,FALSE,1,0,5,1,1,4,126,corona,Catalan,Sounds/cat_corona.mp3,2020-06-05_13h56.55.679,TranslationElicitation_eng-prolific,3.2.4,MacIntel,60,5c953449e4d1d200172f23f6,,,,,,,
,,,,,,,,,,,,,,,,,,,,,,,,,,,,,,,,,,,,,,,,,,o,6.234999895,GOO,FALSE,1,0,5,1,1,4,126,corona,Catalan,Sounds/cat_corona.mp3,2020-06-05_13h56.55.679,TranslationElicitation_eng-prolific,3.2.4,MacIntel,60,5c953449e4d1d200172f23f6,,,,,,,
,,,,,,,,,,,,,,,,,,,,,,,,,,,,,,,,,,,,,,,,,,d,6.400999784,GOOD,FALSE,1,0,5,1,1,4,126,corona,Catalan,Sounds/cat_corona.mp3,2020-06-05_13h56.55.679,TranslationElicitation_eng-prolific,3.2.4,MacIntel,60,5c953449e4d1d200172f23f6,,,,,,,
,,,,,,,,,,,,,,,,,,,,,,,,,,,,,,,,,,,,,,,,,,space,6.417999983,GOOD ,FALSE,1,0,5,1,1,4,126,corona,Catalan,Sounds/cat_corona.mp3,2020-06-05_13h56.55.679,TranslationElicitation_eng-prolific,3.2.4,MacIntel,60,5c953449e4d1d200172f23f6,,,,,,,
,,,,,,,,,,,,,,,,,,,,,,,,,,,,,,,,,,,,,,,,,,d,6.617999792,GOOD D,FALSE,1,0,5,1,1,4,126,corona,Catalan,Sounds/cat_corona.mp3,2020-06-05_13h56.55.679,TranslationElicitation_eng-prolific,3.2.4,MacIntel,60,5c953449e4d1d200172f23f6,,,,,,,
,,,,,,,,,,,,,,,,,,,,,,,,,,,,,,,,,,,,,,,,,,a,6.700999975,GOOD DA,FALSE,1,0,5,1,1,4,126,corona,Catalan,Sounds/cat_corona.mp3,2020-06-05_13h56.55.679,TranslationElicitation_eng-prolific,3.2.4,MacIntel,60,5c953449e4d1d200172f23f6,,,,,,,
,,,,,,,,,,,,,,,,,,,,,,,,,,,,,,,,,,,,,,,,,,y,6.90199995,GOOD DAY,FALSE,1,0,5,1,1,4,126,corona,Catalan,Sounds/cat_corona.mp3,2020-06-05_13h56.55.679,TranslationElicitation_eng-prolific,3.2.4,MacIntel,60,5c953449e4d1d200172f23f6,,,,,,,
,,,,,,,,,,,,,,,,,,,,,,,,,,,,,,,,,,,,,,,,,,return,7.301999807,GOOD DAY,FALSE,1,0,5,1,1,4,126,corona,Catalan,Sounds/cat_corona.mp3,2020-06-05_13h56.55.679,TranslationElicitation_eng-prolific,3.2.4,MacIntel,60,5c953449e4d1d200172f23f6,7.301999807,,,,,,
,,,,,,,,,,,,,,,,,,,,,,,,,,,,,,,,,,,,,,,,,,,,,,1,0,5,1,1,4,126,corona,Catalan,Sounds/cat_corona.mp3,2020-06-05_13h56.55.679,TranslationElicitation_eng-prolific,3.2.4,MacIntel,60,5c953449e4d1d200172f23f6,,,,,,,
,,,,,,,,,,,,,,,,,,,,,,,,,,,,,,,,,,,,,,,,,,t,4.717000008,T,FALSE,,,,,,,169,plat,Catalan,Sounds/cat_plat.mp3,2020-06-05_13h56.55.679,TranslationElicitation_eng-prolific,3.2.4,MacIntel,60,5c953449e4d1d200172f23f6,,1,0,81,61,1,80
,,,,,,,,,,,,,,,,,,,,,,,,,,,,,,,,,,,,,,,,,,h,4.849999905,TH,FALSE,,,,,,,169,plat,Catalan,Sounds/cat_plat.mp3,2020-06-05_13h56.55.679,TranslationElicitation_eng-prolific,3.2.4,MacIntel,60,5c953449e4d1d200172f23f6,,1,0,81,61,1,80
,,,,,,,,,,,,,,,,,,,,,,,,,,,,,,,,,,,,,,,,,,e,4.916999817,THE,FALSE,,,,,,,169,plat,Catalan,Sounds/cat_plat.mp3,2020-06-05_13h56.55.679,TranslationElicitation_eng-prolific,3.2.4,MacIntel,60,5c953449e4d1d200172f23f6,,1,0,81,61,1,80
,,,,,,,,,,,,,,,,,,,,,,,,,,,,,,,,,,,,,,,,,,return,6.51699996,THE,FALSE,,,,,,,169,plat,Catalan,Sounds/cat_plat.mp3,2020-06-05_13h56.55.679,TranslationElicitation_eng-prolific,3.2.4,MacIntel,60,5c953449e4d1d200172f23f6,6.51699996,1,0,81,61,1,80
,,,,,,,,,,,,,,,,,,,,,,,,,,,,,,,,,,,,,,,,,,,,,,,,,,,,169,plat,Catalan,Sounds/cat_plat.mp3,2020-06-05_13h56.55.679,TranslationElicitation_eng-prolific,3.2.4,MacIntel,60,5c953449e4d1d200172f23f6,,1,0,81,61,1,80
,,,,,,,,,,,,,,,,,,,,,,,,,,,,,,,,,,,,,,,,,,g,2.666000128,G,FALSE,,,,,,,146,guitarra,Catalan,Sounds/cat_guitarra.mp3,2020-06-05_13h56.55.679,TranslationElicitation_eng-prolific,3.2.4,MacIntel,60,5c953449e4d1d200172f23f6,,1,0,81,40,1,80
,,,,,,,,,,,,,,,,,,,,,,,,,,,,,,,,,,,,,,,,,,u,2.916000128,GU,FALSE,,,,,,,146,guitarra,Catalan,Sounds/cat_guitarra.mp3,2020-06-05_13h56.55.679,TranslationElicitation_eng-prolific,3.2.4,MacIntel,60,5c953449e4d1d200172f23f6,,1,0,81,40,1,80
,,,,,,,,,,,,,,,,,,,,,,,,,,,,,,,,,,,,,,,,,,i,3.082999945,GUI,FALSE,,,,,,,146,guitarra,Catalan,Sounds/cat_guitarra.mp3,2020-06-05_13h56.55.679,TranslationElicitation_eng-prolific,3.2.4,MacIntel,60,5c953449e4d1d200172f23f6,,1,0,81,40,1,80
,,,,,,,,,,,,,,,,,,,,,,,,,,,,,,,,,,,,,,,,,,t,3.299999952,GUIT,FALSE,,,,,,,146,guitarra,Catalan,Sounds/cat_guitarra.mp3,2020-06-05_13h56.55.679,TranslationElicitation_eng-prolific,3.2.4,MacIntel,60,5c953449e4d1d200172f23f6,,1,0,81,40,1,80
,,,,,,,,,,,,,,,,,,,,,,,,,,,,,,,,,,,,,,,,,,a,3.551000118,GUITA,FALSE,,,,,,,146,guitarra,Catalan,Sounds/cat_guitarra.mp3,2020-06-05_13h56.55.679,TranslationElicitation_eng-prolific,3.2.4,MacIntel,60,5c953449e4d1d200172f23f6,,1,0,81,40,1,80
,,,,,,,,,,,,,,,,,,,,,,,,,,,,,,,,,,,,,,,,,,r,3.850000143,GUITAR,FALSE,,,,,,,146,guitarra,Catalan,Sounds/cat_guitarra.mp3,2020-06-05_13h56.55.679,TranslationElicitation_eng-prolific,3.2.4,MacIntel,60,5c953449e4d1d200172f23f6,,1,0,81,40,1,80
,,,,,,,,,,,,,,,,,,,,,,,,,,,,,,,,,,,,,,,,,,return,4.367000103,GUITAR,FALSE,,,,,,,146,guitarra,Catalan,Sounds/cat_guitarra.mp3,2020-06-05_13h56.55.679,TranslationElicitation_eng-prolific,3.2.4,MacIntel,60,5c953449e4d1d200172f23f6,4.367000103,1,0,81,40,1,80
,,,,,,,,,,,,,,,,,,,,,,,,,,,,,,,,,,,,,,,,,,,,,,,,,,,,146,guitarra,Catalan,Sounds/cat_guitarra.mp3,2020-06-05_13h56.55.679,TranslationElicitation_eng-prolific,3.2.4,MacIntel,60,5c953449e4d1d200172f23f6,,1,0,81,40,1,80
,,,,,,,,,,,,,,,,,,,,,,,,,,,,,,,,,,,,,,,,,,h,2.066999912,H,FALSE,,,,,,,122,casa,Catalan,Sounds/cat_casa.mp3,2020-06-05_13h56.55.679,TranslationElicitation_eng-prolific,3.2.4,MacIntel,60,5c953449e4d1d200172f23f6,,1,0,81,17,1,80
,,,,,,,,,,,,,,,,,,,,,,,,,,,,,,,,,,,,,,,,,,o,2.200000048,HO,FALSE,,,,,,,122,casa,Catalan,Sounds/cat_casa.mp3,2020-06-05_13h56.55.679,TranslationElicitation_eng-prolific,3.2.4,MacIntel,60,5c953449e4d1d200172f23f6,,1,0,81,17,1,80
,,,,,,,,,,,,,,,,,,,,,,,,,,,,,,,,,,,,,,,,,,u,2.383999825,HOU,FALSE,,,,,,,122,casa,Catalan,Sounds/cat_casa.mp3,2020-06-05_13h56.55.679,TranslationElicitation_eng-prolific,3.2.4,MacIntel,60,5c953449e4d1d200172f23f6,,1,0,81,17,1,80
,,,,,,,,,,,,,,,,,,,,,,,,,,,,,,,,,,,,,,,,,,s,2.53399992,HOUS,FALSE,,,,,,,122,casa,Catalan,Sounds/cat_casa.mp3,2020-06-05_13h56.55.679,TranslationElicitation_eng-prolific,3.2.4,MacIntel,60,5c953449e4d1d200172f23f6,,1,0,81,17,1,80
,,,,,,,,,,,,,,,,,,,,,,,,,,,,,,,,,,,,,,,,,,e,2.599999905,HOUSE,FALSE,,,,,,,122,casa,Catalan,Sounds/cat_casa.mp3,2020-06-05_13h56.55.679,TranslationElicitation_eng-prolific,3.2.4,MacIntel,60,5c953449e4d1d200172f23f6,,1,0,81,17,1,80
,,,,,,,,,,,,,,,,,,,,,,,,,,,,,,,,,,,,,,,,,,return,3.684000015,HOUSE,FALSE,,,,,,,122,casa,Catalan,Sounds/cat_casa.mp3,2020-06-05_13h56.55.679,TranslationElicitation_eng-prolific,3.2.4,MacIntel,60,5c953449e4d1d200172f23f6,3.684000015,1,0,81,17,1,80
,,,,,,,,,,,,,,,,,,,,,,,,,,,,,,,,,,,,,,,,,,,,,,,,,,,,122,casa,Catalan,Sounds/cat_casa.mp3,2020-06-05_13h56.55.679,TranslationElicitation_eng-prolific,3.2.4,MacIntel,60,5c953449e4d1d200172f23f6,,1,0,81,17,1,80
,,,,,,,,,,,,,,,,,,,,,,,,,,,,,,,,,,,,,,,,,,s,9.735999823,S,FALSE,,,,,,,182,tomaquet,Catalan,Sounds/cat_tomaquet.mp3,2020-06-05_13h56.55.679,TranslationElicitation_eng-prolific,3.2.4,MacIntel,60,5c953449e4d1d200172f23f6,,1,0,81,73,1,80
,,,,,,,,,,,,,,,,,,,,,,,,,,,,,,,,,,,,,,,,,,h,9.784999847,SH,FALSE,,,,,,,182,tomaquet,Catalan,Sounds/cat_tomaquet.mp3,2020-06-05_13h56.55.679,TranslationElicitation_eng-prolific,3.2.4,MacIntel,60,5c953449e4d1d200172f23f6,,1,0,81,73,1,80
,,,,,,,,,,,,,,,,,,,,,,,,,,,,,,,,,,,,,,,,,,o,9.88499999,SHO,FALSE,,,,,,,182,tomaquet,Catalan,Sounds/cat_tomaquet.mp3,2020-06-05_13h56.55.679,TranslationElicitation_eng-prolific,3.2.4,MacIntel,60,5c953449e4d1d200172f23f6,,1,0,81,73,1,80
,,,,,,,,,,,,,,,,,,,,,,,,,,,,,,,,,,,,,,,,,,p,10.05199981,SHOP,FALSE,,,,,,,182,tomaquet,Catalan,Sounds/cat_tomaquet.mp3,2020-06-05_13h56.55.679,TranslationElicitation_eng-prolific,3.2.4,MacIntel,60,5c953449e4d1d200172f23f6,,1,0,81,73,1,80
,,,,,,,,,,,,,,,,,,,,,,,,,,,,,,,,,,,,,,,,,,return,10.51799989,SHOP,FALSE,,,,,,,182,tomaquet,Catalan,Sounds/cat_tomaquet.mp3,2020-06-05_13h56.55.679,TranslationElicitation_eng-prolific,3.2.4,MacIntel,60,5c953449e4d1d200172f23f6,10.51799989,1,0,81,73,1,80
,,,,,,,,,,,,,,,,,,,,,,,,,,,,,,,,,,,,,,,,,,,,,,,,,,,,182,tomaquet,Catalan,Sounds/cat_tomaquet.mp3,2020-06-05_13h56.55.679,TranslationElicitation_eng-prolific,3.2.4,MacIntel,60,5c953449e4d1d200172f23f6,,1,0,81,73,1,80
,,,,,,,,,,,,,,,,,,,,,,,,,,,,,,,,,,,,,,,,,,g,8.217000008,G,FALSE,,,,,,,113,boca,Catalan,Sounds/cat_boca.mp3,2020-06-05_13h56.55.679,TranslationElicitation_eng-prolific,3.2.4,MacIntel,60,5c953449e4d1d200172f23f6,,1,0,81,8,1,80
,,,,,,,,,,,,,,,,,,,,,,,,,,,,,,,,,,,,,,,,,,o,8.384000063,GO,FALSE,,,,,,,113,boca,Catalan,Sounds/cat_boca.mp3,2020-06-05_13h56.55.679,TranslationElicitation_eng-prolific,3.2.4,MacIntel,60,5c953449e4d1d200172f23f6,,1,0,81,8,1,80
,,,,,,,,,,,,,,,,,,,,,,,,,,,,,,,,,,,,,,,,,,o,8.551000118,GOO,FALSE,,,,,,,113,boca,Catalan,Sounds/cat_boca.mp3,2020-06-05_13h56.55.679,TranslationElicitation_eng-prolific,3.2.4,MacIntel,60,5c953449e4d1d200172f23f6,,1,0,81,8,1,80
,,,,,,,,,,,,,,,,,,,,,,,,,,,,,,,,,,,,,,,,,,d,8.734000206,GOOD,FALSE,,,,,,,113,boca,Catalan,Sounds/cat_boca.mp3,2020-06-05_13h56.55.679,TranslationElicitation_eng-prolific,3.2.4,MacIntel,60,5c953449e4d1d200172f23f6,,1,0,81,8,1,80
,,,,,,,,,,,,,,,,,,,,,,,,,,,,,,,,,,,,,,,,,,return,9.251000166,GOOD,FALSE,,,,,,,113,boca,Catalan,Sounds/cat_boca.mp3,2020-06-05_13h56.55.679,TranslationElicitation_eng-prolific,3.2.4,MacIntel,60,5c953449e4d1d200172f23f6,9.251000166,1,0,81,8,1,80
,,,,,,,,,,,,,,,,,,,,,,,,,,,,,,,,,,,,,,,,,,,,,,,,,,,,113,boca,Catalan,Sounds/cat_boca.mp3,2020-06-05_13h56.55.679,TranslationElicitation_eng-prolific,3.2.4,MacIntel,60,5c953449e4d1d200172f23f6,,1,0,81,8,1,80
,,,,,,,,,,,,,,,,,,,,,,,,,,,,,,,,,,,,,,,,,,p,6.184999943,P,FALSE,,,,,,,185,ulleres,Catalan,Sounds/cat_ulleres.mp3,2020-06-05_13h56.55.679,TranslationElicitation_eng-prolific,3.2.4,MacIntel,60,5c953449e4d1d200172f23f6,,1,0,81,76,1,80
,,,,,,,,,,,,,,,,,,,,,,,,,,,,,,,,,,,,,,,,,,e,6.31799984,PE,FALSE,,,,,,,185,ulleres,Catalan,Sounds/cat_ulleres.mp3,2020-06-05_13h56.55.679,TranslationElicitation_eng-prolific,3.2.4,MacIntel,60,5c953449e4d1d200172f23f6,,1,0,81,76,1,80
,,,,,,,,,,,,,,,,,,,,,,,,,,,,,,,,,,,,,,,,,,o,6.401000023,PEO,FALSE,,,,,,,185,ulleres,Catalan,Sounds/cat_ulleres.mp3,2020-06-05_13h56.55.679,TranslationElicitation_eng-prolific,3.2.4,MacIntel,60,5c953449e4d1d200172f23f6,,1,0,81,76,1,80
,,,,,,,,,,,,,,,,,,,,,,,,,,,,,,,,,,,,,,,,,,p,6.56799984,PEOP,FALSE,,,,,,,185,ulleres,Catalan,Sounds/cat_ulleres.mp3,2020-06-05_13h56.55.679,TranslationElicitation_eng-prolific,3.2.4,MacIntel,60,5c953449e4d1d200172f23f6,,1,0,81,76,1,80
,,,,,,,,,,,,,,,,,,,,,,,,,,,,,,,,,,,,,,,,,,l,6.734999895,PEOPL,FALSE,,,,,,,185,ulleres,Catalan,Sounds/cat_ulleres.mp3,2020-06-05_13h56.55.679,TranslationElicitation_eng-prolific,3.2.4,MacIntel,60,5c953449e4d1d200172f23f6,,1,0,81,76,1,80
,,,,,,,,,,,,,,,,,,,,,,,,,,,,,,,,,,,,,,,,,,e,6.819000006,PEOPLE,FALSE,,,,,,,185,ulleres,Catalan,Sounds/cat_ulleres.mp3,2020-06-05_13h56.55.679,TranslationElicitation_eng-prolific,3.2.4,MacIntel,60,5c953449e4d1d200172f23f6,,1,0,81,76,1,80
,,,,,,,,,,,,,,,,,,,,,,,,,,,,,,,,,,,,,,,,,,return,6.984999895,PEOPLE,FALSE,,,,,,,185,ulleres,Catalan,Sounds/cat_ulleres.mp3,2020-06-05_13h56.55.679,TranslationElicitation_eng-prolific,3.2.4,MacIntel,60,5c953449e4d1d200172f23f6,6.984999895,1,0,81,76,1,80
,,,,,,,,,,,,,,,,,,,,,,,,,,,,,,,,,,,,,,,,,,,,,,,,,,,,185,ulleres,Catalan,Sounds/cat_ulleres.mp3,2020-06-05_13h56.55.679,TranslationElicitation_eng-prolific,3.2.4,MacIntel,60,5c953449e4d1d200172f23f6,,1,0,81,76,1,80
,,,,,,,,,,,,,,,,,,,,,,,,,,,,,,,,,,,,,,,,,,a,2.549999952,A,FALSE,,,,,,,132,estrella,Catalan,Sounds/cat_estrella.mp3,2020-06-05_13h56.55.679,TranslationElicitation_eng-prolific,3.2.4,MacIntel,60,5c953449e4d1d200172f23f6,,1,0,81,26,1,80
,,,,,,,,,,,,,,,,,,,,,,,,,,,,,,,,,,,,,,,,,,u,2.900000095,AU,FALSE,,,,,,,132,estrella,Catalan,Sounds/cat_estrella.mp3,2020-06-05_13h56.55.679,TranslationElicitation_eng-prolific,3.2.4,MacIntel,60,5c953449e4d1d200172f23f6,,1,0,81,26,1,80
,,,,,,,,,,,,,,,,,,,,,,,,,,,,,,,,,,,,,,,,,,s,3.450000048,AUS,FALSE,,,,,,,132,estrella,Catalan,Sounds/cat_estrella.mp3,2020-06-05_13h56.55.679,TranslationElicitation_eng-prolific,3.2.4,MacIntel,60,5c953449e4d1d200172f23f6,,1,0,81,26,1,80
,,,,,,,,,,,,,,,,,,,,,,,,,,,,,,,,,,,,,,,,,,t,3.667000055,AUST,FALSE,,,,,,,132,estrella,Catalan,Sounds/cat_estrella.mp3,2020-06-05_13h56.55.679,TranslationElicitation_eng-prolific,3.2.4,MacIntel,60,5c953449e4d1d200172f23f6,,1,0,81,26,1,80
,,,,,,,,,,,,,,,,,,,,,,,,,,,,,,,,,,,,,,,,,,r,3.834000111,AUSTR,FALSE,,,,,,,132,estrella,Catalan,Sounds/cat_estrella.mp3,2020-06-05_13h56.55.679,TranslationElicitation_eng-prolific,3.2.4,MacIntel,60,5c953449e4d1d200172f23f6,,1,0,81,26,1,80
,,,,,,,,,,,,,,,,,,,,,,,,,,,,,,,,,,,,,,,,,,a,3.934000015,AUSTRA,FALSE,,,,,,,132,estrella,Catalan,Sounds/cat_estrella.mp3,2020-06-05_13h56.55.679,TranslationElicitation_eng-prolific,3.2.4,MacIntel,60,5c953449e4d1d200172f23f6,,1,0,81,26,1,80
,,,,,,,,,,,,,,,,,,,,,,,,,,,,,,,,,,,,,,,,,,l,4.318000078,AUSTRAL,FALSE,,,,,,,132,estrella,Catalan,Sounds/cat_estrella.mp3,2020-06-05_13h56.55.679,TranslationElicitation_eng-prolific,3.2.4,MacIntel,60,5c953449e4d1d200172f23f6,,1,0,81,26,1,80
,,,,,,,,,,,,,,,,,,,,,,,,,,,,,,,,,,,,,,,,,,i,4.534000158,AUSTRALI,FALSE,,,,,,,132,estrella,Catalan,Sounds/cat_estrella.mp3,2020-06-05_13h56.55.679,TranslationElicitation_eng-prolific,3.2.4,MacIntel,60,5c953449e4d1d200172f23f6,,1,0,81,26,1,80
,,,,,,,,,,,,,,,,,,,,,,,,,,,,,,,,,,,,,,,,,,a,4.634000063,AUSTRALIA,FALSE,,,,,,,132,estrella,Catalan,Sounds/cat_estrella.mp3,2020-06-05_13h56.55.679,TranslationElicitation_eng-prolific,3.2.4,MacIntel,60,5c953449e4d1d200172f23f6,,1,0,81,26,1,80
,,,,,,,,,,,,,,,,,,,,,,,,,,,,,,,,,,,,,,,,,,backspace,5.434000015,AUSTRALI,TRUE,,,,,,,132,estrella,Catalan,Sounds/cat_estrella.mp3,2020-06-05_13h56.55.679,TranslationElicitation_eng-prolific,3.2.4,MacIntel,60,5c953449e4d1d200172f23f6,,1,0,81,26,1,80
,,,,,,,,,,,,,,,,,,,,,,,,,,,,,,,,,,,,,,,,,,backspace,5.634000063,AUSTRAL,TRUE,,,,,,,132,estrella,Catalan,Sounds/cat_estrella.mp3,2020-06-05_13h56.55.679,TranslationElicitation_eng-prolific,3.2.4,MacIntel,60,5c953449e4d1d200172f23f6,,1,0,81,26,1,80
,,,,,,,,,,,,,,,,,,,,,,,,,,,,,,,,,,,,,,,,,,backspace,5.917000055,AUSTRA,TRUE,,,,,,,132,estrella,Catalan,Sounds/cat_estrella.mp3,2020-06-05_13h56.55.679,TranslationElicitation_eng-prolific,3.2.4,MacIntel,60,5c953449e4d1d200172f23f6,,1,0,81,26,1,80
,,,,,,,,,,,,,,,,,,,,,,,,,,,,,,,,,,,,,,,,,,i,6.117000103,AUSTRAI,TRUE,,,,,,,132,estrella,Catalan,Sounds/cat_estrella.mp3,2020-06-05_13h56.55.679,TranslationElicitation_eng-prolific,3.2.4,MacIntel,60,5c953449e4d1d200172f23f6,,1,0,81,26,1,80
,,,,,,,,,,,,,,,,,,,,,,,,,,,,,,,,,,,,,,,,,,l,6.317000151,AUSTRAIL,TRUE,,,,,,,132,estrella,Catalan,Sounds/cat_estrella.mp3,2020-06-05_13h56.55.679,TranslationElicitation_eng-prolific,3.2.4,MacIntel,60,5c953449e4d1d200172f23f6,,1,0,81,26,1,80
,,,,,,,,,,,,,,,,,,,,,,,,,,,,,,,,,,,,,,,,,,i,6.483999968,AUSTRAILI,TRUE,,,,,,,132,estrella,Catalan,Sounds/cat_estrella.mp3,2020-06-05_13h56.55.679,TranslationElicitation_eng-prolific,3.2.4,MacIntel,60,5c953449e4d1d200172f23f6,,1,0,81,26,1,80
,,,,,,,,,,,,,,,,,,,,,,,,,,,,,,,,,,,,,,,,,,a,6.601000071,AUSTRAILIA,TRUE,,,,,,,132,estrella,Catalan,Sounds/cat_estrella.mp3,2020-06-05_13h56.55.679,TranslationElicitation_eng-prolific,3.2.4,MacIntel,60,5c953449e4d1d200172f23f6,,1,0,81,26,1,80
,,,,,,,,,,,,,,,,,,,,,,,,,,,,,,,,,,,,,,,,,,return,7.700999975,AUSTRAILIA,TRUE,,,,,,,132,estrella,Catalan,Sounds/cat_estrella.mp3,2020-06-05_13h56.55.679,TranslationElicitation_eng-prolific,3.2.4,MacIntel,60,5c953449e4d1d200172f23f6,7.700999975,1,0,81,26,1,80
,,,,,,,,,,,,,,,,,,,,,,,,,,,,,,,,,,,,,,,,,,,,,,,,,,,,132,estrella,Catalan,Sounds/cat_estrella.mp3,2020-06-05_13h56.55.679,TranslationElicitation_eng-prolific,3.2.4,MacIntel,60,5c953449e4d1d200172f23f6,,1,0,81,26,1,80
,,,,,,,,,,,,,,,,,,,,,,,,,,,,,,,,,,,,,,,,,,g,3.817000151,G,FALSE,,,,,,,143,globus,Catalan,Sounds/cat_globus.mp3,2020-06-05_13h56.55.679,TranslationElicitation_eng-prolific,3.2.4,MacIntel,60,5c953449e4d1d200172f23f6,,1,0,81,37,1,80
,,,,,,,,,,,,,,,,,,,,,,,,,,,,,,,,,,,,,,,,,,l,3.901000023,GL,FALSE,,,,,,,143,globus,Catalan,Sounds/cat_globus.mp3,2020-06-05_13h56.55.679,TranslationElicitation_eng-prolific,3.2.4,MacIntel,60,5c953449e4d1d200172f23f6,,1,0,81,37,1,80
,,,,,,,,,,,,,,,,,,,,,,,,,,,,,,,,,,,,,,,,,,o,3.950999975,GLO,FALSE,,,,,,,143,globus,Catalan,Sounds/cat_globus.mp3,2020-06-05_13h56.55.679,TranslationElicitation_eng-prolific,3.2.4,MacIntel,60,5c953449e4d1d200172f23f6,,1,0,81,37,1,80
,,,,,,,,,,,,,,,,,,,,,,,,,,,,,,,,,,,,,,,,,,v,4.084000111,GLOV,FALSE,,,,,,,143,globus,Catalan,Sounds/cat_globus.mp3,2020-06-05_13h56.55.679,TranslationElicitation_eng-prolific,3.2.4,MacIntel,60,5c953449e4d1d200172f23f6,,1,0,81,37,1,80
,,,,,,,,,,,,,,,,,,,,,,,,,,,,,,,,,,,,,,,,,,e,4.134000063,GLOVE,FALSE,,,,,,,143,globus,Catalan,Sounds/cat_globus.mp3,2020-06-05_13h56.55.679,TranslationElicitation_eng-prolific,3.2.4,MacIntel,60,5c953449e4d1d200172f23f6,,1,0,81,37,1,80
,,,,,,,,,,,,,,,,,,,,,,,,,,,,,,,,,,,,,,,,,,s,4.334000111,GLOVES,FALSE,,,,,,,143,globus,Catalan,Sounds/cat_globus.mp3,2020-06-05_13h56.55.679,TranslationElicitation_eng-prolific,3.2.4,MacIntel,60,5c953449e4d1d200172f23f6,,1,0,81,37,1,80
,,,,,,,,,,,,,,,,,,,,,,,,,,,,,,,,,,,,,,,,,,return,4.551000118,GLOVES,FALSE,,,,,,,143,globus,Catalan,Sounds/cat_globus.mp3,2020-06-05_13h56.55.679,TranslationElicitation_eng-prolific,3.2.4,MacIntel,60,5c953449e4d1d200172f23f6,4.551000118,1,0,81,37,1,80
,,,,,,,,,,,,,,,,,,,,,,,,,,,,,,,,,,,,,,,,,,,,,,,,,,,,143,globus,Catalan,Sounds/cat_globus.mp3,2020-06-05_13h56.55.679,TranslationElicitation_eng-prolific,3.2.4,MacIntel,60,5c953449e4d1d200172f23f6,,1,0,81,37,1,80
,,,,,,,,,,,,,,,,,,,,,,,,,,,,,,,,,,,,,,,,,,g,2,G,FALSE,,,,,,,145,got,Catalan,Sounds/cat_got.mp3,2020-06-05_13h56.55.679,TranslationElicitation_eng-prolific,3.2.4,MacIntel,60,5c953449e4d1d200172f23f6,,1,0,81,39,1,80
,,,,,,,,,,,,,,,,,,,,,,,,,,,,,,,,,,,,,,,,,,o,2.116999865,GO,FALSE,,,,,,,145,got,Catalan,Sounds/cat_got.mp3,2020-06-05_13h56.55.679,TranslationElicitation_eng-prolific,3.2.4,MacIntel,60,5c953449e4d1d200172f23f6,,1,0,81,39,1,80
,,,,,,,,,,,,,,,,,,,,,,,,,,,,,,,,,,,,,,,,,,d,2.217000008,GOD,FALSE,,,,,,,145,got,Catalan,Sounds/cat_got.mp3,2020-06-05_13h56.55.679,TranslationElicitation_eng-prolific,3.2.4,MacIntel,60,5c953449e4d1d200172f23f6,,1,0,81,39,1,80
,,,,,,,,,,,,,,,,,,,,,,,,,,,,,,,,,,,,,,,,,,return,2.600999832,GOD,FALSE,,,,,,,145,got,Catalan,Sounds/cat_got.mp3,2020-06-05_13h56.55.679,TranslationElicitation_eng-prolific,3.2.4,MacIntel,60,5c953449e4d1d200172f23f6,2.600999832,1,0,81,39,1,80
,,,,,,,,,,,,,,,,,,,,,,,,,,,,,,,,,,,,,,,,,,,,,,,,,,,,145,got,Catalan,Sounds/cat_got.mp3,2020-06-05_13h56.55.679,TranslationElicitation_eng-prolific,3.2.4,MacIntel,60,5c953449e4d1d200172f23f6,,1,0,81,39,1,80
,,,,,,,,,,,,,,,,,,,,,,,,,,,,,,,,,,,,,,,,,,c,4.167000055,C,FALSE,,,,,,,140,gat,Catalan,Sounds/cat_gat.mp3,2020-06-05_13h56.55.679,TranslationElicitation_eng-prolific,3.2.4,MacIntel,60,5c953449e4d1d200172f23f6,,1,0,81,34,1,80
,,,,,,,,,,,,,,,,,,,,,,,,,,,,,,,,,,,,,,,,,,a,4.217000008,CA,FALSE,,,,,,,140,gat,Catalan,Sounds/cat_gat.mp3,2020-06-05_13h56.55.679,TranslationElicitation_eng-prolific,3.2.4,MacIntel,60,5c953449e4d1d200172f23f6,,1,0,81,34,1,80
,,,,,,,,,,,,,,,,,,,,,,,,,,,,,,,,,,,,,,,,,,t,4.734000206,CAT,FALSE,,,,,,,140,gat,Catalan,Sounds/cat_gat.mp3,2020-06-05_13h56.55.679,TranslationElicitation_eng-prolific,3.2.4,MacIntel,60,5c953449e4d1d200172f23f6,,1,0,81,34,1,80
,,,,,,,,,,,,,,,,,,,,,,,,,,,,,,,,,,,,,,,,,,return,4.967000008,CAT,FALSE,,,,,,,140,gat,Catalan,Sounds/cat_gat.mp3,2020-06-05_13h56.55.679,TranslationElicitation_eng-prolific,3.2.4,MacIntel,60,5c953449e4d1d200172f23f6,4.967000008,1,0,81,34,1,80
,,,,,,,,,,,,,,,,,,,,,,,,,,,,,,,,,,,,,,,,,,,,,,,,,,,,140,gat,Catalan,Sounds/cat_gat.mp3,2020-06-05_13h56.55.679,TranslationElicitation_eng-prolific,3.2.4,MacIntel,60,5c953449e4d1d200172f23f6,,1,0,81,34,1,80
,,,,,,,,,,,,,,,,,,,,,,,,,,,,,,,,,,,,,,,,,,s,6.235000134,S,FALSE,,,,,,,177,sol,Catalan,Sounds/cat_sol.mp3,2020-06-05_13h56.55.679,TranslationElicitation_eng-prolific,3.2.4,MacIntel,60,5c953449e4d1d200172f23f6,,1,0,81,69,1,80
,,,,,,,,,,,,,,,,,,,,,,,,,,,,,,,,,,,,,,,,,,o,6.635000229,SO,FALSE,,,,,,,177,sol,Catalan,Sounds/cat_sol.mp3,2020-06-05_13h56.55.679,TranslationElicitation_eng-prolific,3.2.4,MacIntel,60,5c953449e4d1d200172f23f6,,1,0,81,69,1,80
,,,,,,,,,,,,,,,,,,,,,,,,,,,,,,,,,,,,,,,,,,u,6.92200017,SOU,FALSE,,,,,,,177,sol,Catalan,Sounds/cat_sol.mp3,2020-06-05_13h56.55.679,TranslationElicitation_eng-prolific,3.2.4,MacIntel,60,5c953449e4d1d200172f23f6,,1,0,81,69,1,80
,,,,,,,,,,,,,,,,,,,,,,,,,,,,,,,,,,,,,,,,,,l,7.168000221,SOUL,FALSE,,,,,,,177,sol,Catalan,Sounds/cat_sol.mp3,2020-06-05_13h56.55.679,TranslationElicitation_eng-prolific,3.2.4,MacIntel,60,5c953449e4d1d200172f23f6,,1,0,81,69,1,80
,,,,,,,,,,,,,,,,,,,,,,,,,,,,,,,,,,,,,,,,,,return,10.28500009,SOUL,FALSE,,,,,,,177,sol,Catalan,Sounds/cat_sol.mp3,2020-06-05_13h56.55.679,TranslationElicitation_eng-prolific,3.2.4,MacIntel,60,5c953449e4d1d200172f23f6,10.28500009,1,0,81,69,1,80
,,,,,,,,,,,,,,,,,,,,,,,,,,,,,,,,,,,,,,,,,,,,,,,,,,,,177,sol,Catalan,Sounds/cat_sol.mp3,2020-06-05_13h56.55.679,TranslationElicitation_eng-prolific,3.2.4,MacIntel,60,5c953449e4d1d200172f23f6,,1,0,81,69,1,80
,,,,,,,,,,,,,,,,,,,,,,,,,,,,,,,,,,,,,,,,,,p,4.25,P,FALSE,,,,,,,167,pingui,Catalan,Sounds/cat_pingui.mp3,2020-06-05_13h56.55.679,TranslationElicitation_eng-prolific,3.2.4,MacIntel,60,5c953449e4d1d200172f23f6,,1,0,81,59,1,80
,,,,,,,,,,,,,,,,,,,,,,,,,,,,,,,,,,,,,,,,,,e,4.333000183,PE,FALSE,,,,,,,167,pingui,Catalan,Sounds/cat_pingui.mp3,2020-06-05_13h56.55.679,TranslationElicitation_eng-prolific,3.2.4,MacIntel,60,5c953449e4d1d200172f23f6,,1,0,81,59,1,80
,,,,,,,,,,,,,,,,,,,,,,,,,,,,,,,,,,,,,,,,,,n,4.5,PEN,FALSE,,,,,,,167,pingui,Catalan,Sounds/cat_pingui.mp3,2020-06-05_13h56.55.679,TranslationElicitation_eng-prolific,3.2.4,MacIntel,60,5c953449e4d1d200172f23f6,,1,0,81,59,1,80
,,,,,,,,,,,,,,,,,,,,,,,,,,,,,,,,,,,,,,,,,,g,4.600000143,PENG,FALSE,,,,,,,167,pingui,Catalan,Sounds/cat_pingui.mp3,2020-06-05_13h56.55.679,TranslationElicitation_eng-prolific,3.2.4,MacIntel,60,5c953449e4d1d200172f23f6,,1,0,81,59,1,80
,,,,,,,,,,,,,,,,,,,,,,,,,,,,,,,,,,,,,,,,,,u,4.700000048,PENGU,FALSE,,,,,,,167,pingui,Catalan,Sounds/cat_pingui.mp3,2020-06-05_13h56.55.679,TranslationElicitation_eng-prolific,3.2.4,MacIntel,60,5c953449e4d1d200172f23f6,,1,0,81,59,1,80
,,,,,,,,,,,,,,,,,,,,,,,,,,,,,,,,,,,,,,,,,,i,4.834000111,PENGUI,FALSE,,,,,,,167,pingui,Catalan,Sounds/cat_pingui.mp3,2020-06-05_13h56.55.679,TranslationElicitation_eng-prolific,3.2.4,MacIntel,60,5c953449e4d1d200172f23f6,,1,0,81,59,1,80
,,,,,,,,,,,,,,,,,,,,,,,,,,,,,,,,,,,,,,,,,,n,4.934000015,PENGUIN,FALSE,,,,,,,167,pingui,Catalan,Sounds/cat_pingui.mp3,2020-06-05_13h56.55.679,TranslationElicitation_eng-prolific,3.2.4,MacIntel,60,5c953449e4d1d200172f23f6,,1,0,81,59,1,80
,,,,,,,,,,,,,,,,,,,,,,,,,,,,,,,,,,,,,,,,,,return,5.184000015,PENGUIN,FALSE,,,,,,,167,pingui,Catalan,Sounds/cat_pingui.mp3,2020-06-05_13h56.55.679,TranslationElicitation_eng-prolific,3.2.4,MacIntel,60,5c953449e4d1d200172f23f6,5.184000015,1,0,81,59,1,80
,,,,,,,,,,,,,,,,,,,,,,,,,,,,,,,,,,,,,,,,,,,,,,,,,,,,167,pingui,Catalan,Sounds/cat_pingui.mp3,2020-06-05_13h56.55.679,TranslationElicitation_eng-prolific,3.2.4,MacIntel,60,5c953449e4d1d200172f23f6,,1,0,81,59,1,80
,,,,,,,,,,,,,,,,,,,,,,,,,,,,,,,,,,,,,,,,,,b,7.401000023,B,FALSE,,,,,,,165,pernil,Catalan,Sounds/cat_pernil.mp3,2020-06-05_13h56.55.679,TranslationElicitation_eng-prolific,3.2.4,MacIntel,60,5c953449e4d1d200172f23f6,,1,0,81,57,1,80
,,,,,,,,,,,,,,,,,,,,,,,,,,,,,,,,,,,,,,,,,,a,7.851000071,BA,FALSE,,,,,,,165,pernil,Catalan,Sounds/cat_pernil.mp3,2020-06-05_13h56.55.679,TranslationElicitation_eng-prolific,3.2.4,MacIntel,60,5c953449e4d1d200172f23f6,,1,0,81,57,1,80
,,,,,,,,,,,,,,,,,,,,,,,,,,,,,,,,,,,,,,,,,,r,8.001000166,BAR,FALSE,,,,,,,165,pernil,Catalan,Sounds/cat_pernil.mp3,2020-06-05_13h56.55.679,TranslationElicitation_eng-prolific,3.2.4,MacIntel,60,5c953449e4d1d200172f23f6,,1,0,81,57,1,80
,,,,,,,,,,,,,,,,,,,,,,,,,,,,,,,,,,,,,,,,,,return,9.200999975,BAR,FALSE,,,,,,,165,pernil,Catalan,Sounds/cat_pernil.mp3,2020-06-05_13h56.55.679,TranslationElicitation_eng-prolific,3.2.4,MacIntel,60,5c953449e4d1d200172f23f6,9.200999975,1,0,81,57,1,80
,,,,,,,,,,,,,,,,,,,,,,,,,,,,,,,,,,,,,,,,,,,,,,,,,,,,165,pernil,Catalan,Sounds/cat_pernil.mp3,2020-06-05_13h56.55.679,TranslationElicitation_eng-prolific,3.2.4,MacIntel,60,5c953449e4d1d200172f23f6,,1,0,81,57,1,80
,,,,,,,,,,,,,,,,,,,,,,,,,,,,,,,,,,,,,,,,,,k,2.167000055,K,FALSE,,,,,,,120,cama,Catalan,Sounds/cat_cama.mp3,2020-06-05_13h56.55.679,TranslationElicitation_eng-prolific,3.2.4,MacIntel,60,5c953449e4d1d200172f23f6,,1,0,81,15,1,80
,,,,,,,,,,,,,,,,,,,,,,,,,,,,,,,,,,,,,,,,,,a,2.316999912,KA,FALSE,,,,,,,120,cama,Catalan,Sounds/cat_cama.mp3,2020-06-05_13h56.55.679,TranslationElicitation_eng-prolific,3.2.4,MacIntel,60,5c953449e4d1d200172f23f6,,1,0,81,15,1,80
,,,,,,,,,,,,,,,,,,,,,,,,,,,,,,,,,,,,,,,,,,r,2.465999842,KAR,FALSE,,,,,,,120,cama,Catalan,Sounds/cat_cama.mp3,2020-06-05_13h56.55.679,TranslationElicitation_eng-prolific,3.2.4,MacIntel,60,5c953449e4d1d200172f23f6,,1,0,81,15,1,80
,,,,,,,,,,,,,,,,,,,,,,,,,,,,,,,,,,,,,,,,,,m,2.566999912,KARM,FALSE,,,,,,,120,cama,Catalan,Sounds/cat_cama.mp3,2020-06-05_13h56.55.679,TranslationElicitation_eng-prolific,3.2.4,MacIntel,60,5c953449e4d1d200172f23f6,,1,0,81,15,1,80
,,,,,,,,,,,,,,,,,,,,,,,,,,,,,,,,,,,,,,,,,,a,2.651000023,KARMA,FALSE,,,,,,,120,cama,Catalan,Sounds/cat_cama.mp3,2020-06-05_13h56.55.679,TranslationElicitation_eng-prolific,3.2.4,MacIntel,60,5c953449e4d1d200172f23f6,,1,0,81,15,1,80
,,,,,,,,,,,,,,,,,,,,,,,,,,,,,,,,,,,,,,,,,,return,4.132999897,KARMA,FALSE,,,,,,,120,cama,Catalan,Sounds/cat_cama.mp3,2020-06-05_13h56.55.679,TranslationElicitation_eng-prolific,3.2.4,MacIntel,60,5c953449e4d1d200172f23f6,4.132999897,1,0,81,15,1,80
,,,,,,,,,,,,,,,,,,,,,,,,,,,,,,,,,,,,,,,,,,,,,,,,,,,,120,cama,Catalan,Sounds/cat_cama.mp3,2020-06-05_13h56.55.679,TranslationElicitation_eng-prolific,3.2.4,MacIntel,60,5c953449e4d1d200172f23f6,,1,0,81,15,1,80
,,,,,,,,,,,,,,,,,,,,,,,,,,,,,,,,,,,,,,,,,,b,7.201000214,B,FALSE,,,,,,,133,estruc,Catalan,Sounds/cat_estruc.mp3,2020-06-05_13h56.55.679,TranslationElicitation_eng-prolific,3.2.4,MacIntel,60,5c953449e4d1d200172f23f6,,1,0,81,27,1,80
,,,,,,,,,,,,,,,,,,,,,,,,,,,,,,,,,,,,,,,,,,a,7.384000063,BA,FALSE,,,,,,,133,estruc,Catalan,Sounds/cat_estruc.mp3,2020-06-05_13h56.55.679,TranslationElicitation_eng-prolific,3.2.4,MacIntel,60,5c953449e4d1d200172f23f6,,1,0,81,27,1,80
,,,,,,,,,,,,,,,,,,,,,,,,,,,,,,,,,,,,,,,,,,d,7.518000126,BAD,FALSE,,,,,,,133,estruc,Catalan,Sounds/cat_estruc.mp3,2020-06-05_13h56.55.679,TranslationElicitation_eng-prolific,3.2.4,MacIntel,60,5c953449e4d1d200172f23f6,,1,0,81,27,1,80
,,,,,,,,,,,,,,,,,,,,,,,,,,,,,,,,,,,,,,,,,,return,7.734000206,BAD,FALSE,,,,,,,133,estruc,Catalan,Sounds/cat_estruc.mp3,2020-06-05_13h56.55.679,TranslationElicitation_eng-prolific,3.2.4,MacIntel,60,5c953449e4d1d200172f23f6,7.734000206,1,0,81,27,1,80
,,,,,,,,,,,,,,,,,,,,,,,,,,,,,,,,,,,,,,,,,,,,,,,,,,,,133,estruc,Catalan,Sounds/cat_estruc.mp3,2020-06-05_13h56.55.679,TranslationElicitation_eng-prolific,3.2.4,MacIntel,60,5c953449e4d1d200172f23f6,,1,0,81,27,1,80
,,,,,,,,,,,,,,,,,,,,,,,,,,,,,,,,,,,,,,,,,,p,6.124000072,P,FALSE,,,,,,,130,entrepa,Catalan,Sounds/cat_entrepa.mp3,2020-06-05_13h56.55.679,TranslationElicitation_eng-prolific,3.2.4,MacIntel,60,5c953449e4d1d200172f23f6,,1,0,81,24,1,80
,,,,,,,,,,,,,,,,,,,,,,,,,,,,,,,,,,,,,,,,,,a,6.150000095,PA,FALSE,,,,,,,130,entrepa,Catalan,Sounds/cat_entrepa.mp3,2020-06-05_13h56.55.679,TranslationElicitation_eng-prolific,3.2.4,MacIntel,60,5c953449e4d1d200172f23f6,,1,0,81,24,1,80
,,,,,,,,,,,,,,,,,,,,,,,,,,,,,,,,,,,,,,,,,,r,6.349999905,PAR,FALSE,,,,,,,130,entrepa,Catalan,Sounds/cat_entrepa.mp3,2020-06-05_13h56.55.679,TranslationElicitation_eng-prolific,3.2.4,MacIntel,60,5c953449e4d1d200172f23f6,,1,0,81,24,1,80
,,,,,,,,,,,,,,,,,,,,,,,,,,,,,,,,,,,,,,,,,,t,6.55099988,PART,FALSE,,,,,,,130,entrepa,Catalan,Sounds/cat_entrepa.mp3,2020-06-05_13h56.55.679,TranslationElicitation_eng-prolific,3.2.4,MacIntel,60,5c953449e4d1d200172f23f6,,1,0,81,24,1,80
,,,,,,,,,,,,,,,,,,,,,,,,,,,,,,,,,,,,,,,,,,y,6.700999975,PARTY,FALSE,,,,,,,130,entrepa,Catalan,Sounds/cat_entrepa.mp3,2020-06-05_13h56.55.679,TranslationElicitation_eng-prolific,3.2.4,MacIntel,60,5c953449e4d1d200172f23f6,,1,0,81,24,1,80
,,,,,,,,,,,,,,,,,,,,,,,,,,,,,,,,,,,,,,,,,,return,6.866999865,PARTY,FALSE,,,,,,,130,entrepa,Catalan,Sounds/cat_entrepa.mp3,2020-06-05_13h56.55.679,TranslationElicitation_eng-prolific,3.2.4,MacIntel,60,5c953449e4d1d200172f23f6,6.866999865,1,0,81,24,1,80
,,,,,,,,,,,,,,,,,,,,,,,,,,,,,,,,,,,,,,,,,,,,,,,,,,,,130,entrepa,Catalan,Sounds/cat_entrepa.mp3,2020-06-05_13h56.55.679,TranslationElicitation_eng-prolific,3.2.4,MacIntel,60,5c953449e4d1d200172f23f6,,1,0,81,24,1,80
,,,,,,,,,,,,,,,,,,,,,,,,,,,,,,,,,,,,,,,,,,c,18.76900005,C,FALSE,,,,,,,129,dit,Catalan,Sounds/cat_dit.mp3,2020-06-05_13h56.55.679,TranslationElicitation_eng-prolific,3.2.4,MacIntel,60,5c953449e4d1d200172f23f6,,1,0,81,23,1,80
,,,,,,,,,,,,,,,,,,,,,,,,,,,,,,,,,,,,,,,,,,a,18.852,CA,FALSE,,,,,,,129,dit,Catalan,Sounds/cat_dit.mp3,2020-06-05_13h56.55.679,TranslationElicitation_eng-prolific,3.2.4,MacIntel,60,5c953449e4d1d200172f23f6,,1,0,81,23,1,80
,,,,,,,,,,,,,,,,,,,,,,,,,,,,,,,,,,,,,,,,,,f,20.28600001,CAF,FALSE,,,,,,,129,dit,Catalan,Sounds/cat_dit.mp3,2020-06-05_13h56.55.679,TranslationElicitation_eng-prolific,3.2.4,MacIntel,60,5c953449e4d1d200172f23f6,,1,0,81,23,1,80
,,,,,,,,,,,,,,,,,,,,,,,,,,,,,,,,,,,,,,,,,,e,20.45300007,CAFE,FALSE,,,,,,,129,dit,Catalan,Sounds/cat_dit.mp3,2020-06-05_13h56.55.679,TranslationElicitation_eng-prolific,3.2.4,MacIntel,60,5c953449e4d1d200172f23f6,,1,0,81,23,1,80
,,,,,,,,,,,,,,,,,,,,,,,,,,,,,,,,,,,,,,,,,,return,21.31900001,CAFE,FALSE,,,,,,,129,dit,Catalan,Sounds/cat_dit.mp3,2020-06-05_13h56.55.679,TranslationElicitation_eng-prolific,3.2.4,MacIntel,60,5c953449e4d1d200172f23f6,21.31900001,1,0,81,23,1,80
,,,,,,,,,,,,,,,,,,,,,,,,,,,,,,,,,,,,,,,,,,,,,,,,,,,,129,dit,Catalan,Sounds/cat_dit.mp3,2020-06-05_13h56.55.679,TranslationElicitation_eng-prolific,3.2.4,MacIntel,60,5c953449e4d1d200172f23f6,,1,0,81,23,1,80
,,,,,,,,,,,,,,,,,,,,,,,,,,,,,,,,,,,,,,,,,,p,1.599999905,P,FALSE,,,,,,,168,planta,Catalan,Sounds/cat_planta.mp3,2020-06-05_13h56.55.679,TranslationElicitation_eng-prolific,3.2.4,MacIntel,60,5c953449e4d1d200172f23f6,,1,0,81,60,1,80
,,,,,,,,,,,,,,,,,,,,,,,,,,,,,,,,,,,,,,,,,,l,1.650000095,PL,FALSE,,,,,,,168,planta,Catalan,Sounds/cat_planta.mp3,2020-06-05_13h56.55.679,TranslationElicitation_eng-prolific,3.2.4,MacIntel,60,5c953449e4d1d200172f23f6,,1,0,81,60,1,80
,,,,,,,,,,,,,,,,,,,,,,,,,,,,,,,,,,,,,,,,,,a,1.799999952,PLA,FALSE,,,,,,,168,planta,Catalan,Sounds/cat_planta.mp3,2020-06-05_13h56.55.679,TranslationElicitation_eng-prolific,3.2.4,MacIntel,60,5c953449e4d1d200172f23f6,,1,0,81,60,1,80
,,,,,,,,,,,,,,,,,,,,,,,,,,,,,,,,,,,,,,,,,,n,1.900000095,PLAN,FALSE,,,,,,,168,planta,Catalan,Sounds/cat_planta.mp3,2020-06-05_13h56.55.679,TranslationElicitation_eng-prolific,3.2.4,MacIntel,60,5c953449e4d1d200172f23f6,,1,0,81,60,1,80
,,,,,,,,,,,,,,,,,,,,,,,,,,,,,,,,,,,,,,,,,,t,2.25,PLANT,FALSE,,,,,,,168,planta,Catalan,Sounds/cat_planta.mp3,2020-06-05_13h56.55.679,TranslationElicitation_eng-prolific,3.2.4,MacIntel,60,5c953449e4d1d200172f23f6,,1,0,81,60,1,80
,,,,,,,,,,,,,,,,,,,,,,,,,,,,,,,,,,,,,,,,,,s,2.983999968,PLANTS,FALSE,,,,,,,168,planta,Catalan,Sounds/cat_planta.mp3,2020-06-05_13h56.55.679,TranslationElicitation_eng-prolific,3.2.4,MacIntel,60,5c953449e4d1d200172f23f6,,1,0,81,60,1,80
,,,,,,,,,,,,,,,,,,,,,,,,,,,,,,,,,,,,,,,,,,backspace,4.417000055,PLANT,TRUE,,,,,,,168,planta,Catalan,Sounds/cat_planta.mp3,2020-06-05_13h56.55.679,TranslationElicitation_eng-prolific,3.2.4,MacIntel,60,5c953449e4d1d200172f23f6,,1,0,81,60,1,80
,,,,,,,,,,,,,,,,,,,,,,,,,,,,,,,,,,,,,,,,,,s,5.367000103,PLANTS,TRUE,,,,,,,168,planta,Catalan,Sounds/cat_planta.mp3,2020-06-05_13h56.55.679,TranslationElicitation_eng-prolific,3.2.4,MacIntel,60,5c953449e4d1d200172f23f6,,1,0,81,60,1,80
,,,,,,,,,,,,,,,,,,,,,,,,,,,,,,,,,,,,,,,,,,return,5.88499999,PLANTS,TRUE,,,,,,,168,planta,Catalan,Sounds/cat_planta.mp3,2020-06-05_13h56.55.679,TranslationElicitation_eng-prolific,3.2.4,MacIntel,60,5c953449e4d1d200172f23f6,5.88499999,1,0,81,60,1,80
,,,,,,,,,,,,,,,,,,,,,,,,,,,,,,,,,,,,,,,,,,,,,,,,,,,,168,planta,Catalan,Sounds/cat_planta.mp3,2020-06-05_13h56.55.679,TranslationElicitation_eng-prolific,3.2.4,MacIntel,60,5c953449e4d1d200172f23f6,,1,0,81,60,1,80
,,,,,,,,,,,,,,,,,,,,,,,,,,,,,,,,,,,,,,,,,,f,2.917000055,F,FALSE,,,,,,,136,forquilla,Catalan,Sounds/cat_forquilla.mp3,2020-06-05_13h56.55.679,TranslationElicitation_eng-prolific,3.2.4,MacIntel,60,5c953449e4d1d200172f23f6,,1,0,81,30,1,80
,,,,,,,,,,,,,,,,,,,,,,,,,,,,,,,,,,,,,,,,,,o,3.05099988,FO,FALSE,,,,,,,136,forquilla,Catalan,Sounds/cat_forquilla.mp3,2020-06-05_13h56.55.679,TranslationElicitation_eng-prolific,3.2.4,MacIntel,60,5c953449e4d1d200172f23f6,,1,0,81,30,1,80
,,,,,,,,,,,,,,,,,,,,,,,,,,,,,,,,,,,,,,,,,,r,3.167000055,FOR,FALSE,,,,,,,136,forquilla,Catalan,Sounds/cat_forquilla.mp3,2020-06-05_13h56.55.679,TranslationElicitation_eng-prolific,3.2.4,MacIntel,60,5c953449e4d1d200172f23f6,,1,0,81,30,1,80
,,,,,,,,,,,,,,,,,,,,,,,,,,,,,,,,,,,,,,,,,,g,3.316999912,FORG,FALSE,,,,,,,136,forquilla,Catalan,Sounds/cat_forquilla.mp3,2020-06-05_13h56.55.679,TranslationElicitation_eng-prolific,3.2.4,MacIntel,60,5c953449e4d1d200172f23f6,,1,0,81,30,1,80
,,,,,,,,,,,,,,,,,,,,,,,,,,,,,,,,,,,,,,,,,,i,3.434000015,FORGI,FALSE,,,,,,,136,forquilla,Catalan,Sounds/cat_forquilla.mp3,2020-06-05_13h56.55.679,TranslationElicitation_eng-prolific,3.2.4,MacIntel,60,5c953449e4d1d200172f23f6,,1,0,81,30,1,80
,,,,,,,,,,,,,,,,,,,,,,,,,,,,,,,,,,,,,,,,,,v,3.51699996,FORGIV,FALSE,,,,,,,136,forquilla,Catalan,Sounds/cat_forquilla.mp3,2020-06-05_13h56.55.679,TranslationElicitation_eng-prolific,3.2.4,MacIntel,60,5c953449e4d1d200172f23f6,,1,0,81,30,1,80
,,,,,,,,,,,,,,,,,,,,,,,,,,,,,,,,,,,,,,,,,,e,3.566999912,FORGIVE,FALSE,,,,,,,136,forquilla,Catalan,Sounds/cat_forquilla.mp3,2020-06-05_13h56.55.679,TranslationElicitation_eng-prolific,3.2.4,MacIntel,60,5c953449e4d1d200172f23f6,,1,0,81,30,1,80
,,,,,,,,,,,,,,,,,,,,,,,,,,,,,,,,,,,,,,,,,,return,4.351000071,FORGIVE,FALSE,,,,,,,136,forquilla,Catalan,Sounds/cat_forquilla.mp3,2020-06-05_13h56.55.679,TranslationElicitation_eng-prolific,3.2.4,MacIntel,60,5c953449e4d1d200172f23f6,4.351000071,1,0,81,30,1,80
,,,,,,,,,,,,,,,,,,,,,,,,,,,,,,,,,,,,,,,,,,,,,,,,,,,,136,forquilla,Catalan,Sounds/cat_forquilla.mp3,2020-06-05_13h56.55.679,TranslationElicitation_eng-prolific,3.2.4,MacIntel,60,5c953449e4d1d200172f23f6,,1,0,81,30,1,80
,,,,,,,,,,,,,,,,,,,,,,,,,,,,,,,,,,,,,,,,,,f,11.31899977,F,FALSE,,,,,,,186,ungla,Catalan,Sounds/cat_ungla.mp3,2020-06-05_13h56.55.679,TranslationElicitation_eng-prolific,3.2.4,MacIntel,60,5c953449e4d1d200172f23f6,,1,0,81,77,1,80
,,,,,,,,,,,,,,,,,,,,,,,,,,,,,,,,,,,,,,,,,,o,11.4519999,FO,FALSE,,,,,,,186,ungla,Catalan,Sounds/cat_ungla.mp3,2020-06-05_13h56.55.679,TranslationElicitation_eng-prolific,3.2.4,MacIntel,60,5c953449e4d1d200172f23f6,,1,0,81,77,1,80
,,,,,,,,,,,,,,,,,,,,,,,,,,,,,,,,,,,,,,,,,,o,11.5849998,FOO,FALSE,,,,,,,186,ungla,Catalan,Sounds/cat_ungla.mp3,2020-06-05_13h56.55.679,TranslationElicitation_eng-prolific,3.2.4,MacIntel,60,5c953449e4d1d200172f23f6,,1,0,81,77,1,80
,,,,,,,,,,,,,,,,,,,,,,,,,,,,,,,,,,,,,,,,,,d,11.66899991,FOOD,FALSE,,,,,,,186,ungla,Catalan,Sounds/cat_ungla.mp3,2020-06-05_13h56.55.679,TranslationElicitation_eng-prolific,3.2.4,MacIntel,60,5c953449e4d1d200172f23f6,,1,0,81,77,1,80
,,,,,,,,,,,,,,,,,,,,,,,,,,,,,,,,,,,,,,,,,,return,11.91899991,FOOD,FALSE,,,,,,,186,ungla,Catalan,Sounds/cat_ungla.mp3,2020-06-05_13h56.55.679,TranslationElicitation_eng-prolific,3.2.4,MacIntel,60,5c953449e4d1d200172f23f6,11.91899991,1,0,81,77,1,80
,,,,,,,,,,,,,,,,,,,,,,,,,,,,,,,,,,,,,,,,,,,,,,,,,,,,186,ungla,Catalan,Sounds/cat_ungla.mp3,2020-06-05_13h56.55.679,TranslationElicitation_eng-prolific,3.2.4,MacIntel,60,5c953449e4d1d200172f23f6,,1,0,81,77,1,80
,,,,,,,,,,,,,,,,,,,,,,,,,,,,,,,,,,,,,,,,,,t,7.333999872,T,FALSE,,,,,,,115,bolet,Catalan,Sounds/cat_bolet.mp3,2020-06-05_13h56.55.679,TranslationElicitation_eng-prolific,3.2.4,MacIntel,60,5c953449e4d1d200172f23f6,,1,0,81,10,1,80
,,,,,,,,,,,,,,,,,,,,,,,,,,,,,,,,,,,,,,,,,,i,7.417000055,TI,FALSE,,,,,,,115,bolet,Catalan,Sounds/cat_bolet.mp3,2020-06-05_13h56.55.679,TranslationElicitation_eng-prolific,3.2.4,MacIntel,60,5c953449e4d1d200172f23f6,,1,0,81,10,1,80
,,,,,,,,,,,,,,,,,,,,,,,,,,,,,,,,,,,,,,,,,,c,7.55099988,TIC,FALSE,,,,,,,115,bolet,Catalan,Sounds/cat_bolet.mp3,2020-06-05_13h56.55.679,TranslationElicitation_eng-prolific,3.2.4,MacIntel,60,5c953449e4d1d200172f23f6,,1,0,81,10,1,80
,,,,,,,,,,,,,,,,,,,,,,,,,,,,,,,,,,,,,,,,,,k,7.651000023,TICK,FALSE,,,,,,,115,bolet,Catalan,Sounds/cat_bolet.mp3,2020-06-05_13h56.55.679,TranslationElicitation_eng-prolific,3.2.4,MacIntel,60,5c953449e4d1d200172f23f6,,1,0,81,10,1,80
,,,,,,,,,,,,,,,,,,,,,,,,,,,,,,,,,,,,,,,,,,e,7.750999928,TICKE,FALSE,,,,,,,115,bolet,Catalan,Sounds/cat_bolet.mp3,2020-06-05_13h56.55.679,TranslationElicitation_eng-prolific,3.2.4,MacIntel,60,5c953449e4d1d200172f23f6,,1,0,81,10,1,80
,,,,,,,,,,,,,,,,,,,,,,,,,,,,,,,,,,,,,,,,,,t,7.851000071,TICKET,FALSE,,,,,,,115,bolet,Catalan,Sounds/cat_bolet.mp3,2020-06-05_13h56.55.679,TranslationElicitation_eng-prolific,3.2.4,MacIntel,60,5c953449e4d1d200172f23f6,,1,0,81,10,1,80
,,,,,,,,,,,,,,,,,,,,,,,,,,,,,,,,,,,,,,,,,,return,9.80099988,TICKET,FALSE,,,,,,,115,bolet,Catalan,Sounds/cat_bolet.mp3,2020-06-05_13h56.55.679,TranslationElicitation_eng-prolific,3.2.4,MacIntel,60,5c953449e4d1d200172f23f6,9.80099988,1,0,81,10,1,80
,,,,,,,,,,,,,,,,,,,,,,,,,,,,,,,,,,,,,,,,,,,,,,,,,,,,115,bolet,Catalan,Sounds/cat_bolet.mp3,2020-06-05_13h56.55.679,TranslationElicitation_eng-prolific,3.2.4,MacIntel,60,5c953449e4d1d200172f23f6,,1,0,81,10,1,80
,,,,,,,,,,,,,,,,,,,,,,,,,,,,,,,,,,,,,,,,,,p,8.417999983,P,FALSE,,,,,,,174,porta,Catalan,Sounds/cat_porta.mp3,2020-06-05_13h56.55.679,TranslationElicitation_eng-prolific,3.2.4,MacIntel,60,5c953449e4d1d200172f23f6,,1,0,81,66,1,80
,,,,,,,,,,,,,,,,,,,,,,,,,,,,,,,,,,,,,,,,,,o,8.56799984,PO,FALSE,,,,,,,174,porta,Catalan,Sounds/cat_porta.mp3,2020-06-05_13h56.55.679,TranslationElicitation_eng-prolific,3.2.4,MacIntel,60,5c953449e4d1d200172f23f6,,1,0,81,66,1,80
,,,,,,,,,,,,,,,,,,,,,,,,,,,,,,,,,,,,,,,,,,r,8.684999943,POR,FALSE,,,,,,,174,porta,Catalan,Sounds/cat_porta.mp3,2020-06-05_13h56.55.679,TranslationElicitation_eng-prolific,3.2.4,MacIntel,60,5c953449e4d1d200172f23f6,,1,0,81,66,1,80
,,,,,,,,,,,,,,,,,,,,,,,,,,,,,,,,,,,,,,,,,,t,8.850999832,PORT,FALSE,,,,,,,174,porta,Catalan,Sounds/cat_porta.mp3,2020-06-05_13h56.55.679,TranslationElicitation_eng-prolific,3.2.4,MacIntel,60,5c953449e4d1d200172f23f6,,1,0,81,66,1,80
,,,,,,,,,,,,,,,,,,,,,,,,,,,,,,,,,,,,,,,,,,return,10.95099998,PORT,FALSE,,,,,,,174,porta,Catalan,Sounds/cat_porta.mp3,2020-06-05_13h56.55.679,TranslationElicitation_eng-prolific,3.2.4,MacIntel,60,5c953449e4d1d200172f23f6,10.95099998,1,0,81,66,1,80
,,,,,,,,,,,,,,,,,,,,,,,,,,,,,,,,,,,,,,,,,,,,,,,,,,,,174,porta,Catalan,Sounds/cat_porta.mp3,2020-06-05_13h56.55.679,TranslationElicitation_eng-prolific,3.2.4,MacIntel,60,5c953449e4d1d200172f23f6,,1,0,81,66,1,80
,,,,,,,,,,,,,,,,,,,,,,,,,,,,,,,,,,,,,,,,,,s,2.450000048,S,FALSE,,,,,,,121,camisa,Catalan,Sounds/cat_camisa.mp3,2020-06-05_13h56.55.679,TranslationElicitation_eng-prolific,3.2.4,MacIntel,60,5c953449e4d1d200172f23f6,,1,0,81,16,1,80
,,,,,,,,,,,,,,,,,,,,,,,,,,,,,,,,,,,,,,,,,,h,2.582999945,SH,FALSE,,,,,,,121,camisa,Catalan,Sounds/cat_camisa.mp3,2020-06-05_13h56.55.679,TranslationElicitation_eng-prolific,3.2.4,MacIntel,60,5c953449e4d1d200172f23f6,,1,0,81,16,1,80
,,,,,,,,,,,,,,,,,,,,,,,,,,,,,,,,,,,,,,,,,,i,2.717000008,SHI,FALSE,,,,,,,121,camisa,Catalan,Sounds/cat_camisa.mp3,2020-06-05_13h56.55.679,TranslationElicitation_eng-prolific,3.2.4,MacIntel,60,5c953449e4d1d200172f23f6,,1,0,81,16,1,80
,,,,,,,,,,,,,,,,,,,,,,,,,,,,,,,,,,,,,,,,,,r,2.816999912,SHIR,FALSE,,,,,,,121,camisa,Catalan,Sounds/cat_camisa.mp3,2020-06-05_13h56.55.679,TranslationElicitation_eng-prolific,3.2.4,MacIntel,60,5c953449e4d1d200172f23f6,,1,0,81,16,1,80
,,,,,,,,,,,,,,,,,,,,,,,,,,,,,,,,,,,,,,,,,,t,3,SHIRT,FALSE,,,,,,,121,camisa,Catalan,Sounds/cat_camisa.mp3,2020-06-05_13h56.55.679,TranslationElicitation_eng-prolific,3.2.4,MacIntel,60,5c953449e4d1d200172f23f6,,1,0,81,16,1,80
,,,,,,,,,,,,,,,,,,,,,,,,,,,,,,,,,,,,,,,,,,return,6.834000111,SHIRT,FALSE,,,,,,,121,camisa,Catalan,Sounds/cat_camisa.mp3,2020-06-05_13h56.55.679,TranslationElicitation_eng-prolific,3.2.4,MacIntel,60,5c953449e4d1d200172f23f6,6.834000111,1,0,81,16,1,80
,,,,,,,,,,,,,,,,,,,,,,,,,,,,,,,,,,,,,,,,,,,,,,,,,,,,121,camisa,Catalan,Sounds/cat_camisa.mp3,2020-06-05_13h56.55.679,TranslationElicitation_eng-prolific,3.2.4,MacIntel,60,5c953449e4d1d200172f23f6,,1,0,81,16,1,80
,,,,,,,,,,,,,,,,,,,,,,,,,,,,,,,,,,,,,,,,,,d,12.60100007,D,FALSE,,,,,,,158,nas,Catalan,Sounds/cat_nas.mp3,2020-06-05_13h56.55.679,TranslationElicitation_eng-prolific,3.2.4,MacIntel,60,5c953449e4d1d200172f23f6,,1,0,81,51,1,80
,,,,,,,,,,,,,,,,,,,,,,,,,,,,,,,,,,,,,,,,,,o,12.70099998,DO,FALSE,,,,,,,158,nas,Catalan,Sounds/cat_nas.mp3,2020-06-05_13h56.55.679,TranslationElicitation_eng-prolific,3.2.4,MacIntel,60,5c953449e4d1d200172f23f6,,1,0,81,51,1,80
,,,,,,,,,,,,,,,,,,,,,,,,,,,,,,,,,,,,,,,,,,n,13.18499994,DON,FALSE,,,,,,,158,nas,Catalan,Sounds/cat_nas.mp3,2020-06-05_13h56.55.679,TranslationElicitation_eng-prolific,3.2.4,MacIntel,60,5c953449e4d1d200172f23f6,,1,0,81,51,1,80
,,,,,,,,,,,,,,,,,,,,,,,,,,,,,,,,,,,,,,,,,,t,13.33500004,DONT,FALSE,,,,,,,158,nas,Catalan,Sounds/cat_nas.mp3,2020-06-05_13h56.55.679,TranslationElicitation_eng-prolific,3.2.4,MacIntel,60,5c953449e4d1d200172f23f6,,1,0,81,51,1,80
,,,,,,,,,,,,,,,,,,,,,,,,,,,,,,,,,,,,,,,,,,return,13.78500009,DONT,FALSE,,,,,,,158,nas,Catalan,Sounds/cat_nas.mp3,2020-06-05_13h56.55.679,TranslationElicitation_eng-prolific,3.2.4,MacIntel,60,5c953449e4d1d200172f23f6,13.78500009,1,0,81,51,1,80
,,,,,,,,,,,,,,,,,,,,,,,,,,,,,,,,,,,,,,,,,,,,,,,,,,,,158,nas,Catalan,Sounds/cat_nas.mp3,2020-06-05_13h56.55.679,TranslationElicitation_eng-prolific,3.2.4,MacIntel,60,5c953449e4d1d200172f23f6,,1,0,81,51,1,80
,,,,,,,,,,,,,,,,,,,,,,,,,,,,,,,,,,,,,,,,,,c,7.450999975,C,FALSE,,,,,,,128,cuc,Catalan,Sounds/cat_cuc.mp3,2020-06-05_13h56.55.679,TranslationElicitation_eng-prolific,3.2.4,MacIntel,60,5c953449e4d1d200172f23f6,,1,0,81,22,1,80
,,,,,,,,,,,,,,,,,,,,,,,,,,,,,,,,,,,,,,,,,,o,8.05099988,CO,FALSE,,,,,,,128,cuc,Catalan,Sounds/cat_cuc.mp3,2020-06-05_13h56.55.679,TranslationElicitation_eng-prolific,3.2.4,MacIntel,60,5c953449e4d1d200172f23f6,,1,0,81,22,1,80
,,,,,,,,,,,,,,,,,,,,,,,,,,,,,,,,,,,,,,,,,,k,8.184999943,COK,FALSE,,,,,,,128,cuc,Catalan,Sounds/cat_cuc.mp3,2020-06-05_13h56.55.679,TranslationElicitation_eng-prolific,3.2.4,MacIntel,60,5c953449e4d1d200172f23f6,,1,0,81,22,1,80
,,,,,,,,,,,,,,,,,,,,,,,,,,,,,,,,,,,,,,,,,,e,8.284999847,COKE,FALSE,,,,,,,128,cuc,Catalan,Sounds/cat_cuc.mp3,2020-06-05_13h56.55.679,TranslationElicitation_eng-prolific,3.2.4,MacIntel,60,5c953449e4d1d200172f23f6,,1,0,81,22,1,80
,,,,,,,,,,,,,,,,,,,,,,,,,,,,,,,,,,,,,,,,,,return,8.81799984,COKE,FALSE,,,,,,,128,cuc,Catalan,Sounds/cat_cuc.mp3,2020-06-05_13h56.55.679,TranslationElicitation_eng-prolific,3.2.4,MacIntel,60,5c953449e4d1d200172f23f6,8.81799984,1,0,81,22,1,80
,,,,,,,,,,,,,,,,,,,,,,,,,,,,,,,,,,,,,,,,,,,,,,,,,,,,128,cuc,Catalan,Sounds/cat_cuc.mp3,2020-06-05_13h56.55.679,TranslationElicitation_eng-prolific,3.2.4,MacIntel,60,5c953449e4d1d200172f23f6,,1,0,81,22,1,80
,,,,,,,,,,,,,,,,,,,,,,,,,,,,,,,,,,,,,,,,,,t,4.132999897,T,FALSE,,,,,,,148,lleo,Catalan,Sounds/cat_lleo.mp3,2020-06-05_13h56.55.679,TranslationElicitation_eng-prolific,3.2.4,MacIntel,60,5c953449e4d1d200172f23f6,,1,0,81,41,1,80
,,,,,,,,,,,,,,,,,,,,,,,,,,,,,,,,,,,,,,,,,,h,4.265999794,TH,FALSE,,,,,,,148,lleo,Catalan,Sounds/cat_lleo.mp3,2020-06-05_13h56.55.679,TranslationElicitation_eng-prolific,3.2.4,MacIntel,60,5c953449e4d1d200172f23f6,,1,0,81,41,1,80
,,,,,,,,,,,,,,,,,,,,,,,,,,,,,,,,,,,,,,,,,,e,4.316999912,THE,FALSE,,,,,,,148,lleo,Catalan,Sounds/cat_lleo.mp3,2020-06-05_13h56.55.679,TranslationElicitation_eng-prolific,3.2.4,MacIntel,60,5c953449e4d1d200172f23f6,,1,0,81,41,1,80
,,,,,,,,,,,,,,,,,,,,,,,,,,,,,,,,,,,,,,,,,,space,4.416999817,THE ,FALSE,,,,,,,148,lleo,Catalan,Sounds/cat_lleo.mp3,2020-06-05_13h56.55.679,TranslationElicitation_eng-prolific,3.2.4,MacIntel,60,5c953449e4d1d200172f23f6,,1,0,81,41,1,80
,,,,,,,,,,,,,,,,,,,,,,,,,,,,,,,,,,,,,,,,,,o,4.482999802,THE O,FALSE,,,,,,,148,lleo,Catalan,Sounds/cat_lleo.mp3,2020-06-05_13h56.55.679,TranslationElicitation_eng-prolific,3.2.4,MacIntel,60,5c953449e4d1d200172f23f6,,1,0,81,41,1,80
,,,,,,,,,,,,,,,,,,,,,,,,,,,,,,,,,,,,,,,,,,l,4.666999817,THE OL,FALSE,,,,,,,148,lleo,Catalan,Sounds/cat_lleo.mp3,2020-06-05_13h56.55.679,TranslationElicitation_eng-prolific,3.2.4,MacIntel,60,5c953449e4d1d200172f23f6,,1,0,81,41,1,80
,,,,,,,,,,,,,,,,,,,,,,,,,,,,,,,,,,,,,,,,,,d,4.765999794,THE OLD,FALSE,,,,,,,148,lleo,Catalan,Sounds/cat_lleo.mp3,2020-06-05_13h56.55.679,TranslationElicitation_eng-prolific,3.2.4,MacIntel,60,5c953449e4d1d200172f23f6,,1,0,81,41,1,80
,,,,,,,,,,,,,,,,,,,,,,,,,,,,,,,,,,,,,,,,,,space,4.882999897,THE OLD ,FALSE,,,,,,,148,lleo,Catalan,Sounds/cat_lleo.mp3,2020-06-05_13h56.55.679,TranslationElicitation_eng-prolific,3.2.4,MacIntel,60,5c953449e4d1d200172f23f6,,1,0,81,41,1,80
,,,,,,,,,,,,,,,,,,,,,,,,,,,,,,,,,,,,,,,,,,return,5.25,THE OLD ,FALSE,,,,,,,148,lleo,Catalan,Sounds/cat_lleo.mp3,2020-06-05_13h56.55.679,TranslationElicitation_eng-prolific,3.2.4,MacIntel,60,5c953449e4d1d200172f23f6,5.25,1,0,81,41,1,80
,,,,,,,,,,,,,,,,,,,,,,,,,,,,,,,,,,,,,,,,,,,,,,,,,,,,148,lleo,Catalan,Sounds/cat_lleo.mp3,2020-06-05_13h56.55.679,TranslationElicitation_eng-prolific,3.2.4,MacIntel,60,5c953449e4d1d200172f23f6,,1,0,81,41,1,80
,,,,,,,,,,,,,,,,,,,,,,,,,,,,,,,,,,,,,,,,,,z,3.383999825,Z,FALSE,,,,,,,189,zebra,Catalan,Sounds/cat_zebra.mp3,2020-06-05_13h56.55.679,TranslationElicitation_eng-prolific,3.2.4,MacIntel,60,5c953449e4d1d200172f23f6,,1,0,81,80,1,80
,,,,,,,,,,,,,,,,,,,,,,,,,,,,,,,,,,,,,,,,,,e,3.55099988,ZE,FALSE,,,,,,,189,zebra,Catalan,Sounds/cat_zebra.mp3,2020-06-05_13h56.55.679,TranslationElicitation_eng-prolific,3.2.4,MacIntel,60,5c953449e4d1d200172f23f6,,1,0,81,80,1,80
,,,,,,,,,,,,,,,,,,,,,,,,,,,,,,,,,,,,,,,,,,b,3.700999975,ZEB,FALSE,,,,,,,189,zebra,Catalan,Sounds/cat_zebra.mp3,2020-06-05_13h56.55.679,TranslationElicitation_eng-prolific,3.2.4,MacIntel,60,5c953449e4d1d200172f23f6,,1,0,81,80,1,80
,,,,,,,,,,,,,,,,,,,,,,,,,,,,,,,,,,,,,,,,,,r,3.833999872,ZEBR,FALSE,,,,,,,189,zebra,Catalan,Sounds/cat_zebra.mp3,2020-06-05_13h56.55.679,TranslationElicitation_eng-prolific,3.2.4,MacIntel,60,5c953449e4d1d200172f23f6,,1,0,81,80,1,80
,,,,,,,,,,,,,,,,,,,,,,,,,,,,,,,,,,,,,,,,,,a,3.900999784,ZEBRA,FALSE,,,,,,,189,zebra,Catalan,Sounds/cat_zebra.mp3,2020-06-05_13h56.55.679,TranslationElicitation_eng-prolific,3.2.4,MacIntel,60,5c953449e4d1d200172f23f6,,1,0,81,80,1,80
,,,,,,,,,,,,,,,,,,,,,,,,,,,,,,,,,,,,,,,,,,return,4.250999928,ZEBRA,FALSE,,,,,,,189,zebra,Catalan,Sounds/cat_zebra.mp3,2020-06-05_13h56.55.679,TranslationElicitation_eng-prolific,3.2.4,MacIntel,60,5c953449e4d1d200172f23f6,4.250999928,1,0,81,80,1,80
,,,,,,,,,,,,,,,,,,,,,,,,,,,,,,,,,,,,,,,,,,,,,,,,,,,,189,zebra,Catalan,Sounds/cat_zebra.mp3,2020-06-05_13h56.55.679,TranslationElicitation_eng-prolific,3.2.4,MacIntel,60,5c953449e4d1d200172f23f6,,1,0,81,80,1,80
,,,,,,,,,,,,,,,,,,,,,,,,,,,,,,,,,,,,,,,,,,p,1.983999968,P,FALSE,,,,,,,173,porc,Catalan,Sounds/cat_porc.mp3,2020-06-05_13h56.55.679,TranslationElicitation_eng-prolific,3.2.4,MacIntel,60,5c953449e4d1d200172f23f6,,1,0,81,65,1,80
,,,,,,,,,,,,,,,,,,,,,,,,,,,,,,,,,,,,,,,,,,o,2.184000015,PO,FALSE,,,,,,,173,porc,Catalan,Sounds/cat_porc.mp3,2020-06-05_13h56.55.679,TranslationElicitation_eng-prolific,3.2.4,MacIntel,60,5c953449e4d1d200172f23f6,,1,0,81,65,1,80
,,,,,,,,,,,,,,,,,,,,,,,,,,,,,,,,,,,,,,,,,,r,2.333999872,POR,FALSE,,,,,,,173,porc,Catalan,Sounds/cat_porc.mp3,2020-06-05_13h56.55.679,TranslationElicitation_eng-prolific,3.2.4,MacIntel,60,5c953449e4d1d200172f23f6,,1,0,81,65,1,80
,,,,,,,,,,,,,,,,,,,,,,,,,,,,,,,,,,,,,,,,,,backspace,3.200000048,PO,TRUE,,,,,,,173,porc,Catalan,Sounds/cat_porc.mp3,2020-06-05_13h56.55.679,TranslationElicitation_eng-prolific,3.2.4,MacIntel,60,5c953449e4d1d200172f23f6,,1,0,81,65,1,80
,,,,,,,,,,,,,,,,,,,,,,,,,,,,,,,,,,,,,,,,,,a,3.351000071,POA,TRUE,,,,,,,173,porc,Catalan,Sounds/cat_porc.mp3,2020-06-05_13h56.55.679,TranslationElicitation_eng-prolific,3.2.4,MacIntel,60,5c953449e4d1d200172f23f6,,1,0,81,65,1,80
,,,,,,,,,,,,,,,,,,,,,,,,,,,,,,,,,,,,,,,,,,backspace,3.434000015,PO,TRUE,,,,,,,173,porc,Catalan,Sounds/cat_porc.mp3,2020-06-05_13h56.55.679,TranslationElicitation_eng-prolific,3.2.4,MacIntel,60,5c953449e4d1d200172f23f6,,1,0,81,65,1,80
,,,,,,,,,,,,,,,,,,,,,,,,,,,,,,,,,,,,,,,,,,backspace,3.601000071,P,TRUE,,,,,,,173,porc,Catalan,Sounds/cat_porc.mp3,2020-06-05_13h56.55.679,TranslationElicitation_eng-prolific,3.2.4,MacIntel,60,5c953449e4d1d200172f23f6,,1,0,81,65,1,80
,,,,,,,,,,,,,,,,,,,,,,,,,,,,,,,,,,,,,,,,,,a,3.700999975,PA,TRUE,,,,,,,173,porc,Catalan,Sounds/cat_porc.mp3,2020-06-05_13h56.55.679,TranslationElicitation_eng-prolific,3.2.4,MacIntel,60,5c953449e4d1d200172f23f6,,1,0,81,65,1,80
,,,,,,,,,,,,,,,,,,,,,,,,,,,,,,,,,,,,,,,,,,r,3.80099988,PAR,TRUE,,,,,,,173,porc,Catalan,Sounds/cat_porc.mp3,2020-06-05_13h56.55.679,TranslationElicitation_eng-prolific,3.2.4,MacIntel,60,5c953449e4d1d200172f23f6,,1,0,81,65,1,80
,,,,,,,,,,,,,,,,,,,,,,,,,,,,,,,,,,,,,,,,,,k,3.884000063,PARK,TRUE,,,,,,,173,porc,Catalan,Sounds/cat_porc.mp3,2020-06-05_13h56.55.679,TranslationElicitation_eng-prolific,3.2.4,MacIntel,60,5c953449e4d1d200172f23f6,,1,0,81,65,1,80
,,,,,,,,,,,,,,,,,,,,,,,,,,,,,,,,,,,,,,,,,,return,4.267999887,PARK,TRUE,,,,,,,173,porc,Catalan,Sounds/cat_porc.mp3,2020-06-05_13h56.55.679,TranslationElicitation_eng-prolific,3.2.4,MacIntel,60,5c953449e4d1d200172f23f6,4.267999887,1,0,81,65,1,80
,,,,,,,,,,,,,,,,,,,,,,,,,,,,,,,,,,,,,,,,,,,,,,,,,,,,173,porc,Catalan,Sounds/cat_porc.mp3,2020-06-05_13h56.55.679,TranslationElicitation_eng-prolific,3.2.4,MacIntel,60,5c953449e4d1d200172f23f6,,1,0,81,65,1,80
,,,,,,,,,,,,,,,,,,,,,,,,,,,,,,,,,,,,,,,,,,u,3.467000008,U,FALSE,,,,,,,161,ovella,Catalan,Sounds/cat_ovella.mp3,2020-06-05_13h56.55.679,TranslationElicitation_eng-prolific,3.2.4,MacIntel,60,5c953449e4d1d200172f23f6,,1,0,81,53,1,80
,,,,,,,,,,,,,,,,,,,,,,,,,,,,,,,,,,,,,,,,,,m,3.567000151,UM,FALSE,,,,,,,161,ovella,Catalan,Sounds/cat_ovella.mp3,2020-06-05_13h56.55.679,TranslationElicitation_eng-prolific,3.2.4,MacIntel,60,5c953449e4d1d200172f23f6,,1,0,81,53,1,80
,,,,,,,,,,,,,,,,,,,,,,,,,,,,,,,,,,,,,,,,,,b,3.683000088,UMB,FALSE,,,,,,,161,ovella,Catalan,Sounds/cat_ovella.mp3,2020-06-05_13h56.55.679,TranslationElicitation_eng-prolific,3.2.4,MacIntel,60,5c953449e4d1d200172f23f6,,1,0,81,53,1,80
,,,,,,,,,,,,,,,,,,,,,,,,,,,,,,,,,,,,,,,,,,r,3.867000103,UMBR,FALSE,,,,,,,161,ovella,Catalan,Sounds/cat_ovella.mp3,2020-06-05_13h56.55.679,TranslationElicitation_eng-prolific,3.2.4,MacIntel,60,5c953449e4d1d200172f23f6,,1,0,81,53,1,80
,,,,,,,,,,,,,,,,,,,,,,,,,,,,,,,,,,,,,,,,,,e,3.933000088,UMBRE,FALSE,,,,,,,161,ovella,Catalan,Sounds/cat_ovella.mp3,2020-06-05_13h56.55.679,TranslationElicitation_eng-prolific,3.2.4,MacIntel,60,5c953449e4d1d200172f23f6,,1,0,81,53,1,80
,,,,,,,,,,,,,,,,,,,,,,,,,,,,,,,,,,,,,,,,,,l,4.032999992,UMBREL,FALSE,,,,,,,161,ovella,Catalan,Sounds/cat_ovella.mp3,2020-06-05_13h56.55.679,TranslationElicitation_eng-prolific,3.2.4,MacIntel,60,5c953449e4d1d200172f23f6,,1,0,81,53,1,80
,,,,,,,,,,,,,,,,,,,,,,,,,,,,,,,,,,,,,,,,,,l,4.150000095,UMBRELL,FALSE,,,,,,,161,ovella,Catalan,Sounds/cat_ovella.mp3,2020-06-05_13h56.55.679,TranslationElicitation_eng-prolific,3.2.4,MacIntel,60,5c953449e4d1d200172f23f6,,1,0,81,53,1,80
,,,,,,,,,,,,,,,,,,,,,,,,,,,,,,,,,,,,,,,,,,a,4.233999968,UMBRELLA,FALSE,,,,,,,161,ovella,Catalan,Sounds/cat_ovella.mp3,2020-06-05_13h56.55.679,TranslationElicitation_eng-prolific,3.2.4,MacIntel,60,5c953449e4d1d200172f23f6,,1,0,81,53,1,80
,,,,,,,,,,,,,,,,,,,,,,,,,,,,,,,,,,,,,,,,,,return,4.400000095,UMBRELLA,FALSE,,,,,,,161,ovella,Catalan,Sounds/cat_ovella.mp3,2020-06-05_13h56.55.679,TranslationElicitation_eng-prolific,3.2.4,MacIntel,60,5c953449e4d1d200172f23f6,4.400000095,1,0,81,53,1,80
,,,,,,,,,,,,,,,,,,,,,,,,,,,,,,,,,,,,,,,,,,,,,,,,,,,,161,ovella,Catalan,Sounds/cat_ovella.mp3,2020-06-05_13h56.55.679,TranslationElicitation_eng-prolific,3.2.4,MacIntel,60,5c953449e4d1d200172f23f6,,1,0,81,53,1,80
,,,,,,,,,,,,,,,,,,,,,,,,,,,,,,,,,,,,,,,,,,r,6.63499999,R,FALSE,,,,,,,175,raspall,Catalan,Sounds/cat_raspall.mp3,2020-06-05_13h56.55.679,TranslationElicitation_eng-prolific,3.2.4,MacIntel,60,5c953449e4d1d200172f23f6,,1,0,81,67,1,80
,,,,,,,,,,,,,,,,,,,,,,,,,,,,,,,,,,,,,,,,,,e,6.667999983,RE,FALSE,,,,,,,175,raspall,Catalan,Sounds/cat_raspall.mp3,2020-06-05_13h56.55.679,TranslationElicitation_eng-prolific,3.2.4,MacIntel,60,5c953449e4d1d200172f23f6,,1,0,81,67,1,80
,,,,,,,,,,,,,,,,,,,,,,,,,,,,,,,,,,,,,,,,,,s,6.851000071,RES,FALSE,,,,,,,175,raspall,Catalan,Sounds/cat_raspall.mp3,2020-06-05_13h56.55.679,TranslationElicitation_eng-prolific,3.2.4,MacIntel,60,5c953449e4d1d200172f23f6,,1,0,81,67,1,80
,,,,,,,,,,,,,,,,,,,,,,,,,,,,,,,,,,,,,,,,,,p,6.957000017,RESP,FALSE,,,,,,,175,raspall,Catalan,Sounds/cat_raspall.mp3,2020-06-05_13h56.55.679,TranslationElicitation_eng-prolific,3.2.4,MacIntel,60,5c953449e4d1d200172f23f6,,1,0,81,67,1,80
,,,,,,,,,,,,,,,,,,,,,,,,,,,,,,,,,,,,,,,,,,e,7.035000086,RESPE,FALSE,,,,,,,175,raspall,Catalan,Sounds/cat_raspall.mp3,2020-06-05_13h56.55.679,TranslationElicitation_eng-prolific,3.2.4,MacIntel,60,5c953449e4d1d200172f23f6,,1,0,81,67,1,80
,,,,,,,,,,,,,,,,,,,,,,,,,,,,,,,,,,,,,,,,,,c,7.167999983,RESPEC,FALSE,,,,,,,175,raspall,Catalan,Sounds/cat_raspall.mp3,2020-06-05_13h56.55.679,TranslationElicitation_eng-prolific,3.2.4,MacIntel,60,5c953449e4d1d200172f23f6,,1,0,81,67,1,80
,,,,,,,,,,,,,,,,,,,,,,,,,,,,,,,,,,,,,,,,,,t,7.335000038,RESPECT,FALSE,,,,,,,175,raspall,Catalan,Sounds/cat_raspall.mp3,2020-06-05_13h56.55.679,TranslationElicitation_eng-prolific,3.2.4,MacIntel,60,5c953449e4d1d200172f23f6,,1,0,81,67,1,80
,,,,,,,,,,,,,,,,,,,,,,,,,,,,,,,,,,,,,,,,,,return,7.502000093,RESPECT,FALSE,,,,,,,175,raspall,Catalan,Sounds/cat_raspall.mp3,2020-06-05_13h56.55.679,TranslationElicitation_eng-prolific,3.2.4,MacIntel,60,5c953449e4d1d200172f23f6,7.502000093,1,0,81,67,1,80
,,,,,,,,,,,,,,,,,,,,,,,,,,,,,,,,,,,,,,,,,,,,,,,,,,,,175,raspall,Catalan,Sounds/cat_raspall.mp3,2020-06-05_13h56.55.679,TranslationElicitation_eng-prolific,3.2.4,MacIntel,60,5c953449e4d1d200172f23f6,,1,0,81,67,1,80
,,,,,,,,,,,,,,,,,,,,,,,,,,,,,,,,,,,,,,,,,,t,2.599999905,T,FALSE,,,,,,,183,tren,Catalan,Sounds/cat_tren.mp3,2020-06-05_13h56.55.679,TranslationElicitation_eng-prolific,3.2.4,MacIntel,60,5c953449e4d1d200172f23f6,,1,0,81,74,1,80
,,,,,,,,,,,,,,,,,,,,,,,,,,,,,,,,,,,,,,,,,,e,2.75,TE,FALSE,,,,,,,183,tren,Catalan,Sounds/cat_tren.mp3,2020-06-05_13h56.55.679,TranslationElicitation_eng-prolific,3.2.4,MacIntel,60,5c953449e4d1d200172f23f6,,1,0,81,74,1,80
,,,,,,,,,,,,,,,,,,,,,,,,,,,,,,,,,,,,,,,,,,r,2.866999865,TER,FALSE,,,,,,,183,tren,Catalan,Sounds/cat_tren.mp3,2020-06-05_13h56.55.679,TranslationElicitation_eng-prolific,3.2.4,MacIntel,60,5c953449e4d1d200172f23f6,,1,0,81,74,1,80
,,,,,,,,,,,,,,,,,,,,,,,,,,,,,,,,,,,,,,,,,,r,3.01699996,TERR,FALSE,,,,,,,183,tren,Catalan,Sounds/cat_tren.mp3,2020-06-05_13h56.55.679,TranslationElicitation_eng-prolific,3.2.4,MacIntel,60,5c953449e4d1d200172f23f6,,1,0,81,74,1,80
,,,,,,,,,,,,,,,,,,,,,,,,,,,,,,,,,,,,,,,,,,a,3.066999912,TERRA,FALSE,,,,,,,183,tren,Catalan,Sounds/cat_tren.mp3,2020-06-05_13h56.55.679,TranslationElicitation_eng-prolific,3.2.4,MacIntel,60,5c953449e4d1d200172f23f6,,1,0,81,74,1,80
,,,,,,,,,,,,,,,,,,,,,,,,,,,,,,,,,,,,,,,,,,i,3.149999857,TERRAI,FALSE,,,,,,,183,tren,Catalan,Sounds/cat_tren.mp3,2020-06-05_13h56.55.679,TranslationElicitation_eng-prolific,3.2.4,MacIntel,60,5c953449e4d1d200172f23f6,,1,0,81,74,1,80
,,,,,,,,,,,,,,,,,,,,,,,,,,,,,,,,,,,,,,,,,,n,3.233999968,TERRAIN,FALSE,,,,,,,183,tren,Catalan,Sounds/cat_tren.mp3,2020-06-05_13h56.55.679,TranslationElicitation_eng-prolific,3.2.4,MacIntel,60,5c953449e4d1d200172f23f6,,1,0,81,74,1,80
,,,,,,,,,,,,,,,,,,,,,,,,,,,,,,,,,,,,,,,,,,return,3.399999857,TERRAIN,FALSE,,,,,,,183,tren,Catalan,Sounds/cat_tren.mp3,2020-06-05_13h56.55.679,TranslationElicitation_eng-prolific,3.2.4,MacIntel,60,5c953449e4d1d200172f23f6,3.399999857,1,0,81,74,1,80
,,,,,,,,,,,,,,,,,,,,,,,,,,,,,,,,,,,,,,,,,,,,,,,,,,,,183,tren,Catalan,Sounds/cat_tren.mp3,2020-06-05_13h56.55.679,TranslationElicitation_eng-prolific,3.2.4,MacIntel,60,5c953449e4d1d200172f23f6,,1,0,81,74,1,80
,,,,,,,,,,,,,,,,,,,,,,,,,,,,,,,,,,,,,,,,,,f,4.434000015,F,FALSE,,,,,,,163,papallona,Catalan,Sounds/cat_papallona.mp3,2020-06-05_13h56.55.679,TranslationElicitation_eng-prolific,3.2.4,MacIntel,60,5c953449e4d1d200172f23f6,,1,0,81,55,1,80
,,,,,,,,,,,,,,,,,,,,,,,,,,,,,,,,,,,,,,,,,,a,4.483999968,FA,FALSE,,,,,,,163,papallona,Catalan,Sounds/cat_papallona.mp3,2020-06-05_13h56.55.679,TranslationElicitation_eng-prolific,3.2.4,MacIntel,60,5c953449e4d1d200172f23f6,,1,0,81,55,1,80
,,,,,,,,,,,,,,,,,,,,,,,,,,,,,,,,,,,,,,,,,,t,4.63499999,FAT,FALSE,,,,,,,163,papallona,Catalan,Sounds/cat_papallona.mp3,2020-06-05_13h56.55.679,TranslationElicitation_eng-prolific,3.2.4,MacIntel,60,5c953449e4d1d200172f23f6,,1,0,81,55,1,80
,,,,,,,,,,,,,,,,,,,,,,,,,,,,,,,,,,,,,,,,,,h,4.818000078,FATH,FALSE,,,,,,,163,papallona,Catalan,Sounds/cat_papallona.mp3,2020-06-05_13h56.55.679,TranslationElicitation_eng-prolific,3.2.4,MacIntel,60,5c953449e4d1d200172f23f6,,1,0,81,55,1,80
,,,,,,,,,,,,,,,,,,,,,,,,,,,,,,,,,,,,,,,,,,e,4.985000134,FATHE,FALSE,,,,,,,163,papallona,Catalan,Sounds/cat_papallona.mp3,2020-06-05_13h56.55.679,TranslationElicitation_eng-prolific,3.2.4,MacIntel,60,5c953449e4d1d200172f23f6,,1,0,81,55,1,80
,,,,,,,,,,,,,,,,,,,,,,,,,,,,,,,,,,,,,,,,,,r,5.467999935,FATHER,FALSE,,,,,,,163,papallona,Catalan,Sounds/cat_papallona.mp3,2020-06-05_13h56.55.679,TranslationElicitation_eng-prolific,3.2.4,MacIntel,60,5c953449e4d1d200172f23f6,,1,0,81,55,1,80
,,,,,,,,,,,,,,,,,,,,,,,,,,,,,,,,,,,,,,,,,,return,6.452000141,FATHER,FALSE,,,,,,,163,papallona,Catalan,Sounds/cat_papallona.mp3,2020-06-05_13h56.55.679,TranslationElicitation_eng-prolific,3.2.4,MacIntel,60,5c953449e4d1d200172f23f6,6.452000141,1,0,81,55,1,80
,,,,,,,,,,,,,,,,,,,,,,,,,,,,,,,,,,,,,,,,,,,,,,,,,,,,163,papallona,Catalan,Sounds/cat_papallona.mp3,2020-06-05_13h56.55.679,TranslationElicitation_eng-prolific,3.2.4,MacIntel,60,5c953449e4d1d200172f23f6,,1,0,81,55,1,80
,,,,,,,,,,,,,,,,,,,,,,,,,,,,,,,,,,,,,,,,,,m,7.01699996,M,FALSE,,,,,,,156,moto,Catalan,Sounds/cat_moto.mp3,2020-06-05_13h56.55.679,TranslationElicitation_eng-prolific,3.2.4,MacIntel,60,5c953449e4d1d200172f23f6,,1,0,81,49,1,80
,,,,,,,,,,,,,,,,,,,,,,,,,,,,,,,,,,,,,,,,,,o,7.166999817,MO,FALSE,,,,,,,156,moto,Catalan,Sounds/cat_moto.mp3,2020-06-05_13h56.55.679,TranslationElicitation_eng-prolific,3.2.4,MacIntel,60,5c953449e4d1d200172f23f6,,1,0,81,49,1,80
,,,,,,,,,,,,,,,,,,,,,,,,,,,,,,,,,,,,,,,,,,t,7.417999983,MOT,FALSE,,,,,,,156,moto,Catalan,Sounds/cat_moto.mp3,2020-06-05_13h56.55.679,TranslationElicitation_eng-prolific,3.2.4,MacIntel,60,5c953449e4d1d200172f23f6,,1,0,81,49,1,80
,,,,,,,,,,,,,,,,,,,,,,,,,,,,,,,,,,,,,,,,,,h,7.867999792,MOTH,FALSE,,,,,,,156,moto,Catalan,Sounds/cat_moto.mp3,2020-06-05_13h56.55.679,TranslationElicitation_eng-prolific,3.2.4,MacIntel,60,5c953449e4d1d200172f23f6,,1,0,81,49,1,80
,,,,,,,,,,,,,,,,,,,,,,,,,,,,,,,,,,,,,,,,,,e,8.017999887,MOTHE,FALSE,,,,,,,156,moto,Catalan,Sounds/cat_moto.mp3,2020-06-05_13h56.55.679,TranslationElicitation_eng-prolific,3.2.4,MacIntel,60,5c953449e4d1d200172f23f6,,1,0,81,49,1,80
,,,,,,,,,,,,,,,,,,,,,,,,,,,,,,,,,,,,,,,,,,r,8.133999825,MOTHER,FALSE,,,,,,,156,moto,Catalan,Sounds/cat_moto.mp3,2020-06-05_13h56.55.679,TranslationElicitation_eng-prolific,3.2.4,MacIntel,60,5c953449e4d1d200172f23f6,,1,0,81,49,1,80
,,,,,,,,,,,,,,,,,,,,,,,,,,,,,,,,,,,,,,,,,,return,8.333999872,MOTHER,FALSE,,,,,,,156,moto,Catalan,Sounds/cat_moto.mp3,2020-06-05_13h56.55.679,TranslationElicitation_eng-prolific,3.2.4,MacIntel,60,5c953449e4d1d200172f23f6,8.333999872,1,0,81,49,1,80
,,,,,,,,,,,,,,,,,,,,,,,,,,,,,,,,,,,,,,,,,,,,,,,,,,,,156,moto,Catalan,Sounds/cat_moto.mp3,2020-06-05_13h56.55.679,TranslationElicitation_eng-prolific,3.2.4,MacIntel,60,5c953449e4d1d200172f23f6,,1,0,81,49,1,80
,,,,,,,,,,,,,,,,,,,,,,,,,,,,,,,,,,,,,,,,,,c,5.284000158,C,FALSE,,,,,,,138,galeta,Catalan,Sounds/cat_galeta.mp3,2020-06-05_13h56.55.679,TranslationElicitation_eng-prolific,3.2.4,MacIntel,60,5c953449e4d1d200172f23f6,,1,0,81,32,1,80
,,,,,,,,,,,,,,,,,,,,,,,,,,,,,,,,,,,,,,,,,,o,5.417000055,CO,FALSE,,,,,,,138,galeta,Catalan,Sounds/cat_galeta.mp3,2020-06-05_13h56.55.679,TranslationElicitation_eng-prolific,3.2.4,MacIntel,60,5c953449e4d1d200172f23f6,,1,0,81,32,1,80
,,,,,,,,,,,,,,,,,,,,,,,,,,,,,,,,,,,,,,,,,,a,5.650000095,COA,FALSE,,,,,,,138,galeta,Catalan,Sounds/cat_galeta.mp3,2020-06-05_13h56.55.679,TranslationElicitation_eng-prolific,3.2.4,MacIntel,60,5c953449e4d1d200172f23f6,,1,0,81,32,1,80
,,,,,,,,,,,,,,,,,,,,,,,,,,,,,,,,,,,,,,,,,,t,5.817000151,COAT,FALSE,,,,,,,138,galeta,Catalan,Sounds/cat_galeta.mp3,2020-06-05_13h56.55.679,TranslationElicitation_eng-prolific,3.2.4,MacIntel,60,5c953449e4d1d200172f23f6,,1,0,81,32,1,80
,,,,,,,,,,,,,,,,,,,,,,,,,,,,,,,,,,,,,,,,,,return,6.317000151,COAT,FALSE,,,,,,,138,galeta,Catalan,Sounds/cat_galeta.mp3,2020-06-05_13h56.55.679,TranslationElicitation_eng-prolific,3.2.4,MacIntel,60,5c953449e4d1d200172f23f6,6.317000151,1,0,81,32,1,80
,,,,,,,,,,,,,,,,,,,,,,,,,,,,,,,,,,,,,,,,,,,,,,,,,,,,138,galeta,Catalan,Sounds/cat_galeta.mp3,2020-06-05_13h56.55.679,TranslationElicitation_eng-prolific,3.2.4,MacIntel,60,5c953449e4d1d200172f23f6,,1,0,81,32,1,80
,,,,,,,,,,,,,,,,,,,,,,,,,,,,,,,,,,,,,,,,,,y,10.70099998,Y,FALSE,,,,,,,178,taronja,Catalan,Sounds/cat_taronja.mp3,2020-06-05_13h56.55.679,TranslationElicitation_eng-prolific,3.2.4,MacIntel,60,5c953449e4d1d200172f23f6,,1,0,81,70,1,80
,,,,,,,,,,,,,,,,,,,,,,,,,,,,,,,,,,,,,,,,,,backspace,11.40100002,,TRUE,,,,,,,178,taronja,Catalan,Sounds/cat_taronja.mp3,2020-06-05_13h56.55.679,TranslationElicitation_eng-prolific,3.2.4,MacIntel,60,5c953449e4d1d200172f23f6,,1,0,81,70,1,80
,,,,,,,,,,,,,,,,,,,,,,,,,,,,,,,,,,,,,,,,,,t,12.38499999,T,TRUE,,,,,,,178,taronja,Catalan,Sounds/cat_taronja.mp3,2020-06-05_13h56.55.679,TranslationElicitation_eng-prolific,3.2.4,MacIntel,60,5c953449e4d1d200172f23f6,,1,0,81,70,1,80
,,,,,,,,,,,,,,,,,,,,,,,,,,,,,,,,,,,,,,,,,,r,12.55100012,TR,TRUE,,,,,,,178,taronja,Catalan,Sounds/cat_taronja.mp3,2020-06-05_13h56.55.679,TranslationElicitation_eng-prolific,3.2.4,MacIntel,60,5c953449e4d1d200172f23f6,,1,0,81,70,1,80
,,,,,,,,,,,,,,,,,,,,,,,,,,,,,,,,,,,,,,,,,,i,12.71799994,TRI,TRUE,,,,,,,178,taronja,Catalan,Sounds/cat_taronja.mp3,2020-06-05_13h56.55.679,TranslationElicitation_eng-prolific,3.2.4,MacIntel,60,5c953449e4d1d200172f23f6,,1,0,81,70,1,80
,,,,,,,,,,,,,,,,,,,,,,,,,,,,,,,,,,,,,,,,,,n,12.852,TRIN,TRUE,,,,,,,178,taronja,Catalan,Sounds/cat_taronja.mp3,2020-06-05_13h56.55.679,TranslationElicitation_eng-prolific,3.2.4,MacIntel,60,5c953449e4d1d200172f23f6,,1,0,81,70,1,80
,,,,,,,,,,,,,,,,,,,,,,,,,,,,,,,,,,,,,,,,,,backspace,13.102,TRI,TRUE,,,,,,,178,taronja,Catalan,Sounds/cat_taronja.mp3,2020-06-05_13h56.55.679,TranslationElicitation_eng-prolific,3.2.4,MacIntel,60,5c953449e4d1d200172f23f6,,1,0,81,70,1,80
,,,,,,,,,,,,,,,,,,,,,,,,,,,,,,,,,,,,,,,,,,backspace,13.23500013,TR,TRUE,,,,,,,178,taronja,Catalan,Sounds/cat_taronja.mp3,2020-06-05_13h56.55.679,TranslationElicitation_eng-prolific,3.2.4,MacIntel,60,5c953449e4d1d200172f23f6,,1,0,81,70,1,80
,,,,,,,,,,,,,,,,,,,,,,,,,,,,,,,,,,,,,,,,,,a,13.26800013,TRA,TRUE,,,,,,,178,taronja,Catalan,Sounds/cat_taronja.mp3,2020-06-05_13h56.55.679,TranslationElicitation_eng-prolific,3.2.4,MacIntel,60,5c953449e4d1d200172f23f6,,1,0,81,70,1,80
,,,,,,,,,,,,,,,,,,,,,,,,,,,,,,,,,,,,,,,,,,i,13.41799998,TRAI,TRUE,,,,,,,178,taronja,Catalan,Sounds/cat_taronja.mp3,2020-06-05_13h56.55.679,TranslationElicitation_eng-prolific,3.2.4,MacIntel,60,5c953449e4d1d200172f23f6,,1,0,81,70,1,80
,,,,,,,,,,,,,,,,,,,,,,,,,,,,,,,,,,,,,,,,,,n,13.48500013,TRAIN,TRUE,,,,,,,178,taronja,Catalan,Sounds/cat_taronja.mp3,2020-06-05_13h56.55.679,TranslationElicitation_eng-prolific,3.2.4,MacIntel,60,5c953449e4d1d200172f23f6,,1,0,81,70,1,80
,,,,,,,,,,,,,,,,,,,,,,,,,,,,,,,,,,,,,,,,,,return,13.65199995,TRAIN,TRUE,,,,,,,178,taronja,Catalan,Sounds/cat_taronja.mp3,2020-06-05_13h56.55.679,TranslationElicitation_eng-prolific,3.2.4,MacIntel,60,5c953449e4d1d200172f23f6,13.65199995,1,0,81,70,1,80
,,,,,,,,,,,,,,,,,,,,,,,,,,,,,,,,,,,,,,,,,,,,,,,,,,,,178,taronja,Catalan,Sounds/cat_taronja.mp3,2020-06-05_13h56.55.679,TranslationElicitation_eng-prolific,3.2.4,MacIntel,60,5c953449e4d1d200172f23f6,,1,0,81,70,1,80
,,,,,,,,,,,,,,,,,,,,,,,,,,,,,,,,,,,,,,,,,,g,1.933000088,G,FALSE,,,,,,,119,caixa,Catalan,Sounds/cat_caixa.mp3,2020-06-05_13h56.55.679,TranslationElicitation_eng-prolific,3.2.4,MacIntel,60,5c953449e4d1d200172f23f6,,1,0,81,14,1,80
,,,,,,,,,,,,,,,,,,,,,,,,,,,,,,,,,,,,,,,,,,e,2.01699996,GE,FALSE,,,,,,,119,caixa,Catalan,Sounds/cat_caixa.mp3,2020-06-05_13h56.55.679,TranslationElicitation_eng-prolific,3.2.4,MacIntel,60,5c953449e4d1d200172f23f6,,1,0,81,14,1,80
,,,,,,,,,,,,,,,,,,,,,,,,,,,,,,,,,,,,,,,,,,backspace,2.817000151,G,TRUE,,,,,,,119,caixa,Catalan,Sounds/cat_caixa.mp3,2020-06-05_13h56.55.679,TranslationElicitation_eng-prolific,3.2.4,MacIntel,60,5c953449e4d1d200172f23f6,,1,0,81,14,1,80
,,,,,,,,,,,,,,,,,,,,,,,,,,,,,,,,,,,,,,,,,,backspace,3.001000166,,TRUE,,,,,,,119,caixa,Catalan,Sounds/cat_caixa.mp3,2020-06-05_13h56.55.679,TranslationElicitation_eng-prolific,3.2.4,MacIntel,60,5c953449e4d1d200172f23f6,,1,0,81,14,1,80
,,,,,,,,,,,,,,,,,,,,,,,,,,,,,,,,,,,,,,,,,,backspace,3.167000055,,TRUE,,,,,,,119,caixa,Catalan,Sounds/cat_caixa.mp3,2020-06-05_13h56.55.679,TranslationElicitation_eng-prolific,3.2.4,MacIntel,60,5c953449e4d1d200172f23f6,,1,0,81,14,1,80
,,,,,,,,,,,,,,,,,,,,,,,,,,,,,,,,,,,,,,,,,,c,3.25,C,TRUE,,,,,,,119,caixa,Catalan,Sounds/cat_caixa.mp3,2020-06-05_13h56.55.679,TranslationElicitation_eng-prolific,3.2.4,MacIntel,60,5c953449e4d1d200172f23f6,,1,0,81,14,1,80
,,,,,,,,,,,,,,,,,,,,,,,,,,,,,,,,,,,,,,,,,,a,3.350000143,CA,TRUE,,,,,,,119,caixa,Catalan,Sounds/cat_caixa.mp3,2020-06-05_13h56.55.679,TranslationElicitation_eng-prolific,3.2.4,MacIntel,60,5c953449e4d1d200172f23f6,,1,0,81,14,1,80
,,,,,,,,,,,,,,,,,,,,,,,,,,,,,,,,,,,,,,,,,,s,3.450000048,CAS,TRUE,,,,,,,119,caixa,Catalan,Sounds/cat_caixa.mp3,2020-06-05_13h56.55.679,TranslationElicitation_eng-prolific,3.2.4,MacIntel,60,5c953449e4d1d200172f23f6,,1,0,81,14,1,80
,,,,,,,,,,,,,,,,,,,,,,,,,,,,,,,,,,,,,,,,,,h,4,CASH,TRUE,,,,,,,119,caixa,Catalan,Sounds/cat_caixa.mp3,2020-06-05_13h56.55.679,TranslationElicitation_eng-prolific,3.2.4,MacIntel,60,5c953449e4d1d200172f23f6,,1,0,81,14,1,80
,,,,,,,,,,,,,,,,,,,,,,,,,,,,,,,,,,,,,,,,,,return,4.318000078,CASH,TRUE,,,,,,,119,caixa,Catalan,Sounds/cat_caixa.mp3,2020-06-05_13h56.55.679,TranslationElicitation_eng-prolific,3.2.4,MacIntel,60,5c953449e4d1d200172f23f6,4.318000078,1,0,81,14,1,80
,,,,,,,,,,,,,,,,,,,,,,,,,,,,,,,,,,,,,,,,,,,,,,,,,,,,119,caixa,Catalan,Sounds/cat_caixa.mp3,2020-06-05_13h56.55.679,TranslationElicitation_eng-prolific,3.2.4,MacIntel,60,5c953449e4d1d200172f23f6,,1,0,81,14,1,80
,,,,,,,,,,,,,,,,,,,,,,,,,,,,,,,,,,,,,,,,,,l,4.118000031,L,FALSE,,,,,,,111,bibero,Catalan,Sounds/cat_bibero.mp3,2020-06-05_13h56.55.679,TranslationElicitation_eng-prolific,3.2.4,MacIntel,60,5c953449e4d1d200172f23f6,,1,0,81,6,1,80
,,,,,,,,,,,,,,,,,,,,,,,,,,,,,,,,,,,,,,,,,,i,4.31799984,LI,FALSE,,,,,,,111,bibero,Catalan,Sounds/cat_bibero.mp3,2020-06-05_13h56.55.679,TranslationElicitation_eng-prolific,3.2.4,MacIntel,60,5c953449e4d1d200172f23f6,,1,0,81,6,1,80
,,,,,,,,,,,,,,,,,,,,,,,,,,,,,,,,,,,,,,,,,,v,4.401000023,LIV,FALSE,,,,,,,111,bibero,Catalan,Sounds/cat_bibero.mp3,2020-06-05_13h56.55.679,TranslationElicitation_eng-prolific,3.2.4,MacIntel,60,5c953449e4d1d200172f23f6,,1,0,81,6,1,80
,,,,,,,,,,,,,,,,,,,,,,,,,,,,,,,,,,,,,,,,,,e,4.467999935,LIVE,FALSE,,,,,,,111,bibero,Catalan,Sounds/cat_bibero.mp3,2020-06-05_13h56.55.679,TranslationElicitation_eng-prolific,3.2.4,MacIntel,60,5c953449e4d1d200172f23f6,,1,0,81,6,1,80
,,,,,,,,,,,,,,,,,,,,,,,,,,,,,,,,,,,,,,,,,,return,4.633999825,LIVE,FALSE,,,,,,,111,bibero,Catalan,Sounds/cat_bibero.mp3,2020-06-05_13h56.55.679,TranslationElicitation_eng-prolific,3.2.4,MacIntel,60,5c953449e4d1d200172f23f6,4.633999825,1,0,81,6,1,80
,,,,,,,,,,,,,,,,,,,,,,,,,,,,,,,,,,,,,,,,,,,,,,,,,,,,111,bibero,Catalan,Sounds/cat_bibero.mp3,2020-06-05_13h56.55.679,TranslationElicitation_eng-prolific,3.2.4,MacIntel,60,5c953449e4d1d200172f23f6,,1,0,81,6,1,80
,,,,,,,,,,,,,,,,,,,,,,,,,,,,,,,,,,,,,,,,,,f,2.217000008,F,FALSE,,,,,,,137,fulla,Catalan,Sounds/cat_fulla.mp3,2020-06-05_13h56.55.679,TranslationElicitation_eng-prolific,3.2.4,MacIntel,60,5c953449e4d1d200172f23f6,,1,0,81,31,1,80
,,,,,,,,,,,,,,,,,,,,,,,,,,,,,,,,,,,,,,,,,,o,2.366999865,FO,FALSE,,,,,,,137,fulla,Catalan,Sounds/cat_fulla.mp3,2020-06-05_13h56.55.679,TranslationElicitation_eng-prolific,3.2.4,MacIntel,60,5c953449e4d1d200172f23f6,,1,0,81,31,1,80
,,,,,,,,,,,,,,,,,,,,,,,,,,,,,,,,,,,,,,,,,,o,2.51699996,FOO,FALSE,,,,,,,137,fulla,Catalan,Sounds/cat_fulla.mp3,2020-06-05_13h56.55.679,TranslationElicitation_eng-prolific,3.2.4,MacIntel,60,5c953449e4d1d200172f23f6,,1,0,81,31,1,80
,,,,,,,,,,,,,,,,,,,,,,,,,,,,,,,,,,,,,,,,,,l,2.73300004,FOOL,FALSE,,,,,,,137,fulla,Catalan,Sounds/cat_fulla.mp3,2020-06-05_13h56.55.679,TranslationElicitation_eng-prolific,3.2.4,MacIntel,60,5c953449e4d1d200172f23f6,,1,0,81,31,1,80
,,,,,,,,,,,,,,,,,,,,,,,,,,,,,,,,,,,,,,,,,,i,3.349999905,FOOLI,FALSE,,,,,,,137,fulla,Catalan,Sounds/cat_fulla.mp3,2020-06-05_13h56.55.679,TranslationElicitation_eng-prolific,3.2.4,MacIntel,60,5c953449e4d1d200172f23f6,,1,0,81,31,1,80
,,,,,,,,,,,,,,,,,,,,,,,,,,,,,,,,,,,,,,,,,,s,3.467000008,FOOLIS,FALSE,,,,,,,137,fulla,Catalan,Sounds/cat_fulla.mp3,2020-06-05_13h56.55.679,TranslationElicitation_eng-prolific,3.2.4,MacIntel,60,5c953449e4d1d200172f23f6,,1,0,81,31,1,80
,,,,,,,,,,,,,,,,,,,,,,,,,,,,,,,,,,,,,,,,,,h,3.599999905,FOOLISH,FALSE,,,,,,,137,fulla,Catalan,Sounds/cat_fulla.mp3,2020-06-05_13h56.55.679,TranslationElicitation_eng-prolific,3.2.4,MacIntel,60,5c953449e4d1d200172f23f6,,1,0,81,31,1,80
,,,,,,,,,,,,,,,,,,,,,,,,,,,,,,,,,,,,,,,,,,return,3.75,FOOLISH,FALSE,,,,,,,137,fulla,Catalan,Sounds/cat_fulla.mp3,2020-06-05_13h56.55.679,TranslationElicitation_eng-prolific,3.2.4,MacIntel,60,5c953449e4d1d200172f23f6,3.75,1,0,81,31,1,80
,,,,,,,,,,,,,,,,,,,,,,,,,,,,,,,,,,,,,,,,,,,,,,,,,,,,137,fulla,Catalan,Sounds/cat_fulla.mp3,2020-06-05_13h56.55.679,TranslationElicitation_eng-prolific,3.2.4,MacIntel,60,5c953449e4d1d200172f23f6,,1,0,81,31,1,80
,,,,,,,,,,,,,,,,,,,,,,,,,,,,,,,,,,,,,,,,,,e,8.13499999,E,FALSE,,,,,,,112,bici,Catalan,Sounds/cat_bici.mp3,2020-06-05_13h56.55.679,TranslationElicitation_eng-prolific,3.2.4,MacIntel,60,5c953449e4d1d200172f23f6,,1,0,81,7,1,80
,,,,,,,,,,,,,,,,,,,,,,,,,,,,,,,,,,,,,,,,,,a,8.201999903,EA,FALSE,,,,,,,112,bici,Catalan,Sounds/cat_bici.mp3,2020-06-05_13h56.55.679,TranslationElicitation_eng-prolific,3.2.4,MacIntel,60,5c953449e4d1d200172f23f6,,1,0,81,7,1,80
,,,,,,,,,,,,,,,,,,,,,,,,,,,,,,,,,,,,,,,,,,t,8.517999887,EAT,FALSE,,,,,,,112,bici,Catalan,Sounds/cat_bici.mp3,2020-06-05_13h56.55.679,TranslationElicitation_eng-prolific,3.2.4,MacIntel,60,5c953449e4d1d200172f23f6,,1,0,81,7,1,80
,,,,,,,,,,,,,,,,,,,,,,,,,,,,,,,,,,,,,,,,,,return,8.835000038,EAT,FALSE,,,,,,,112,bici,Catalan,Sounds/cat_bici.mp3,2020-06-05_13h56.55.679,TranslationElicitation_eng-prolific,3.2.4,MacIntel,60,5c953449e4d1d200172f23f6,8.835000038,1,0,81,7,1,80
,,,,,,,,,,,,,,,,,,,,,,,,,,,,,,,,,,,,,,,,,,,,,,,,,,,,112,bici,Catalan,Sounds/cat_bici.mp3,2020-06-05_13h56.55.679,TranslationElicitation_eng-prolific,3.2.4,MacIntel,60,5c953449e4d1d200172f23f6,,1,0,81,7,1,80
,,,,,,,,,,,,,,,,,,,,,,,,,,,,,,,,,,,,,,,,,,b,9.38499999,B,FALSE,,,,,,,176,samarreta,Catalan,Sounds/cat_samarreta.mp3,2020-06-05_13h56.55.679,TranslationElicitation_eng-prolific,3.2.4,MacIntel,60,5c953449e4d1d200172f23f6,,1,0,81,68,1,80
,,,,,,,,,,,,,,,,,,,,,,,,,,,,,,,,,,,,,,,,,,e,9.5849998,BE,FALSE,,,,,,,176,samarreta,Catalan,Sounds/cat_samarreta.mp3,2020-06-05_13h56.55.679,TranslationElicitation_eng-prolific,3.2.4,MacIntel,60,5c953449e4d1d200172f23f6,,1,0,81,68,1,80
,,,,,,,,,,,,,,,,,,,,,,,,,,,,,,,,,,,,,,,,,,a,10.11799979,BEA,FALSE,,,,,,,176,samarreta,Catalan,Sounds/cat_samarreta.mp3,2020-06-05_13h56.55.679,TranslationElicitation_eng-prolific,3.2.4,MacIntel,60,5c953449e4d1d200172f23f6,,1,0,81,68,1,80
,,,,,,,,,,,,,,,,,,,,,,,,,,,,,,,,,,,,,,,,,,c,10.25199986,BEAC,FALSE,,,,,,,176,samarreta,Catalan,Sounds/cat_samarreta.mp3,2020-06-05_13h56.55.679,TranslationElicitation_eng-prolific,3.2.4,MacIntel,60,5c953449e4d1d200172f23f6,,1,0,81,68,1,80
,,,,,,,,,,,,,,,,,,,,,,,,,,,,,,,,,,,,,,,,,,h,10.61899996,BEACH,FALSE,,,,,,,176,samarreta,Catalan,Sounds/cat_samarreta.mp3,2020-06-05_13h56.55.679,TranslationElicitation_eng-prolific,3.2.4,MacIntel,60,5c953449e4d1d200172f23f6,,1,0,81,68,1,80
,,,,,,,,,,,,,,,,,,,,,,,,,,,,,,,,,,,,,,,,,,return,10.93499994,BEACH,FALSE,,,,,,,176,samarreta,Catalan,Sounds/cat_samarreta.mp3,2020-06-05_13h56.55.679,TranslationElicitation_eng-prolific,3.2.4,MacIntel,60,5c953449e4d1d200172f23f6,10.93499994,1,0,81,68,1,80
,,,,,,,,,,,,,,,,,,,,,,,,,,,,,,,,,,,,,,,,,,,,,,,,,,,,176,samarreta,Catalan,Sounds/cat_samarreta.mp3,2020-06-05_13h56.55.679,TranslationElicitation_eng-prolific,3.2.4,MacIntel,60,5c953449e4d1d200172f23f6,,1,0,81,68,1,80
,,,,,,,,,,,,,,,,,,,,,,,,,,,,,,,,,,,,,,,,,,p,1.25,P,FALSE,,,,,,,164,patata,Catalan,Sounds/cat_patata.mp3,2020-06-05_13h56.55.679,TranslationElicitation_eng-prolific,3.2.4,MacIntel,60,5c953449e4d1d200172f23f6,,1,0,81,56,1,80
,,,,,,,,,,,,,,,,,,,,,,,,,,,,,,,,,,,,,,,,,,o,1.450000048,PO,FALSE,,,,,,,164,patata,Catalan,Sounds/cat_patata.mp3,2020-06-05_13h56.55.679,TranslationElicitation_eng-prolific,3.2.4,MacIntel,60,5c953449e4d1d200172f23f6,,1,0,81,56,1,80
,,,,,,,,,,,,,,,,,,,,,,,,,,,,,,,,,,,,,,,,,,t,1.549999952,POT,FALSE,,,,,,,164,patata,Catalan,Sounds/cat_patata.mp3,2020-06-05_13h56.55.679,TranslationElicitation_eng-prolific,3.2.4,MacIntel,60,5c953449e4d1d200172f23f6,,1,0,81,56,1,80
,,,,,,,,,,,,,,,,,,,,,,,,,,,,,,,,,,,,,,,,,,a,1.599999905,POTA,FALSE,,,,,,,164,patata,Catalan,Sounds/cat_patata.mp3,2020-06-05_13h56.55.679,TranslationElicitation_eng-prolific,3.2.4,MacIntel,60,5c953449e4d1d200172f23f6,,1,0,81,56,1,80
,,,,,,,,,,,,,,,,,,,,,,,,,,,,,,,,,,,,,,,,,,t,1.700000048,POTAT,FALSE,,,,,,,164,patata,Catalan,Sounds/cat_patata.mp3,2020-06-05_13h56.55.679,TranslationElicitation_eng-prolific,3.2.4,MacIntel,60,5c953449e4d1d200172f23f6,,1,0,81,56,1,80
,,,,,,,,,,,,,,,,,,,,,,,,,,,,,,,,,,,,,,,,,,o,1.75,POTATO,FALSE,,,,,,,164,patata,Catalan,Sounds/cat_patata.mp3,2020-06-05_13h56.55.679,TranslationElicitation_eng-prolific,3.2.4,MacIntel,60,5c953449e4d1d200172f23f6,,1,0,81,56,1,80
,,,,,,,,,,,,,,,,,,,,,,,,,,,,,,,,,,,,,,,,,,return,2.299999952,POTATO,FALSE,,,,,,,164,patata,Catalan,Sounds/cat_patata.mp3,2020-06-05_13h56.55.679,TranslationElicitation_eng-prolific,3.2.4,MacIntel,60,5c953449e4d1d200172f23f6,2.299999952,1,0,81,56,1,80
,,,,,,,,,,,,,,,,,,,,,,,,,,,,,,,,,,,,,,,,,,,,,,,,,,,,164,patata,Catalan,Sounds/cat_patata.mp3,2020-06-05_13h56.55.679,TranslationElicitation_eng-prolific,3.2.4,MacIntel,60,5c953449e4d1d200172f23f6,,1,0,81,56,1,80
,,,,,,,,,,,,,,,,,,,,,,,,,,,,,,,,,,,,,,,,,,t,5.932999849,T,FALSE,,,,,,,108,ampolla,Catalan,Sounds/cat_ampolla.mp3,2020-06-05_13h56.55.679,TranslationElicitation_eng-prolific,3.2.4,MacIntel,60,5c953449e4d1d200172f23f6,,1,0,81,4,1,80
,,,,,,,,,,,,,,,,,,,,,,,,,,,,,,,,,,,,,,,,,,h,6.099999905,TH,FALSE,,,,,,,108,ampolla,Catalan,Sounds/cat_ampolla.mp3,2020-06-05_13h56.55.679,TranslationElicitation_eng-prolific,3.2.4,MacIntel,60,5c953449e4d1d200172f23f6,,1,0,81,4,1,80
,,,,,,,,,,,,,,,,,,,,,,,,,,,,,,,,,,,,,,,,,,e,6.282999992,THE,FALSE,,,,,,,108,ampolla,Catalan,Sounds/cat_ampolla.mp3,2020-06-05_13h56.55.679,TranslationElicitation_eng-prolific,3.2.4,MacIntel,60,5c953449e4d1d200172f23f6,,1,0,81,4,1,80
,,,,,,,,,,,,,,,,,,,,,,,,,,,,,,,,,,,,,,,,,,space,6.449999809,THE ,FALSE,,,,,,,108,ampolla,Catalan,Sounds/cat_ampolla.mp3,2020-06-05_13h56.55.679,TranslationElicitation_eng-prolific,3.2.4,MacIntel,60,5c953449e4d1d200172f23f6,,1,0,81,4,1,80
,,,,,,,,,,,,,,,,,,,,,,,,,,,,,,,,,,,,,,,,,,p,6.566999912,THE P,FALSE,,,,,,,108,ampolla,Catalan,Sounds/cat_ampolla.mp3,2020-06-05_13h56.55.679,TranslationElicitation_eng-prolific,3.2.4,MacIntel,60,5c953449e4d1d200172f23f6,,1,0,81,4,1,80
,,,,,,,,,,,,,,,,,,,,,,,,,,,,,,,,,,,,,,,,,,o,6.733999968,THE PO,FALSE,,,,,,,108,ampolla,Catalan,Sounds/cat_ampolla.mp3,2020-06-05_13h56.55.679,TranslationElicitation_eng-prolific,3.2.4,MacIntel,60,5c953449e4d1d200172f23f6,,1,0,81,4,1,80
,,,,,,,,,,,,,,,,,,,,,,,,,,,,,,,,,,,,,,,,,,o,6.882999897,THE POO,FALSE,,,,,,,108,ampolla,Catalan,Sounds/cat_ampolla.mp3,2020-06-05_13h56.55.679,TranslationElicitation_eng-prolific,3.2.4,MacIntel,60,5c953449e4d1d200172f23f6,,1,0,81,4,1,80
,,,,,,,,,,,,,,,,,,,,,,,,,,,,,,,,,,,,,,,,,,backspace,7.399999857,THE PO,TRUE,,,,,,,108,ampolla,Catalan,Sounds/cat_ampolla.mp3,2020-06-05_13h56.55.679,TranslationElicitation_eng-prolific,3.2.4,MacIntel,60,5c953449e4d1d200172f23f6,,1,0,81,4,1,80
,,,,,,,,,,,,,,,,,,,,,,,,,,,,,,,,,,,,,,,,,,backspace,7.899999857,THE P,TRUE,,,,,,,108,ampolla,Catalan,Sounds/cat_ampolla.mp3,2020-06-05_13h56.55.679,TranslationElicitation_eng-prolific,3.2.4,MacIntel,60,5c953449e4d1d200172f23f6,,1,0,81,4,1,80
,,,,,,,,,,,,,,,,,,,,,,,,,,,,,,,,,,,,,,,,,,backspace,7.983999968,THE ,TRUE,,,,,,,108,ampolla,Catalan,Sounds/cat_ampolla.mp3,2020-06-05_13h56.55.679,TranslationElicitation_eng-prolific,3.2.4,MacIntel,60,5c953449e4d1d200172f23f6,,1,0,81,4,1,80
,,,,,,,,,,,,,,,,,,,,,,,,,,,,,,,,,,,,,,,,,,backspace,8.066999912,THE,TRUE,,,,,,,108,ampolla,Catalan,Sounds/cat_ampolla.mp3,2020-06-05_13h56.55.679,TranslationElicitation_eng-prolific,3.2.4,MacIntel,60,5c953449e4d1d200172f23f6,,1,0,81,4,1,80
,,,,,,,,,,,,,,,,,,,,,,,,,,,,,,,,,,,,,,,,,,backspace,8.149999857,TH,TRUE,,,,,,,108,ampolla,Catalan,Sounds/cat_ampolla.mp3,2020-06-05_13h56.55.679,TranslationElicitation_eng-prolific,3.2.4,MacIntel,60,5c953449e4d1d200172f23f6,,1,0,81,4,1,80
,,,,,,,,,,,,,,,,,,,,,,,,,,,,,,,,,,,,,,,,,,backspace,8.233999968,T,TRUE,,,,,,,108,ampolla,Catalan,Sounds/cat_ampolla.mp3,2020-06-05_13h56.55.679,TranslationElicitation_eng-prolific,3.2.4,MacIntel,60,5c953449e4d1d200172f23f6,,1,0,81,4,1,80
,,,,,,,,,,,,,,,,,,,,,,,,,,,,,,,,,,,,,,,,,,backspace,8.316999912,,TRUE,,,,,,,108,ampolla,Catalan,Sounds/cat_ampolla.mp3,2020-06-05_13h56.55.679,TranslationElicitation_eng-prolific,3.2.4,MacIntel,60,5c953449e4d1d200172f23f6,,1,0,81,4,1,80
,,,,,,,,,,,,,,,,,,,,,,,,,,,,,,,,,,,,,,,,,,backspace,8.399999857,,TRUE,,,,,,,108,ampolla,Catalan,Sounds/cat_ampolla.mp3,2020-06-05_13h56.55.679,TranslationElicitation_eng-prolific,3.2.4,MacIntel,60,5c953449e4d1d200172f23f6,,1,0,81,4,1,80
,,,,,,,,,,,,,,,,,,,,,,,,,,,,,,,,,,,,,,,,,,backspace,8.483999968,,TRUE,,,,,,,108,ampolla,Catalan,Sounds/cat_ampolla.mp3,2020-06-05_13h56.55.679,TranslationElicitation_eng-prolific,3.2.4,MacIntel,60,5c953449e4d1d200172f23f6,,1,0,81,4,1,80
,,,,,,,,,,,,,,,,,,,,,,,,,,,,,,,,,,,,,,,,,,backspace,8.566999912,,TRUE,,,,,,,108,ampolla,Catalan,Sounds/cat_ampolla.mp3,2020-06-05_13h56.55.679,TranslationElicitation_eng-prolific,3.2.4,MacIntel,60,5c953449e4d1d200172f23f6,,1,0,81,4,1,80
,,,,,,,,,,,,,,,,,,,,,,,,,,,,,,,,,,,,,,,,,,p,8.599999905,P,TRUE,,,,,,,108,ampolla,Catalan,Sounds/cat_ampolla.mp3,2020-06-05_13h56.55.679,TranslationElicitation_eng-prolific,3.2.4,MacIntel,60,5c953449e4d1d200172f23f6,,1,0,81,4,1,80
,,,,,,,,,,,,,,,,,,,,,,,,,,,,,,,,,,,,,,,,,,o,8.78399992,PO,TRUE,,,,,,,108,ampolla,Catalan,Sounds/cat_ampolla.mp3,2020-06-05_13h56.55.679,TranslationElicitation_eng-prolific,3.2.4,MacIntel,60,5c953449e4d1d200172f23f6,,1,0,81,4,1,80
,,,,,,,,,,,,,,,,,,,,,,,,,,,,,,,,,,,,,,,,,,o,8.934000015,POO,TRUE,,,,,,,108,ampolla,Catalan,Sounds/cat_ampolla.mp3,2020-06-05_13h56.55.679,TranslationElicitation_eng-prolific,3.2.4,MacIntel,60,5c953449e4d1d200172f23f6,,1,0,81,4,1,80
,,,,,,,,,,,,,,,,,,,,,,,,,,,,,,,,,,,,,,,,,,r,9.0849998,POOR,TRUE,,,,,,,108,ampolla,Catalan,Sounds/cat_ampolla.mp3,2020-06-05_13h56.55.679,TranslationElicitation_eng-prolific,3.2.4,MacIntel,60,5c953449e4d1d200172f23f6,,1,0,81,4,1,80
,,,,,,,,,,,,,,,,,,,,,,,,,,,,,,,,,,,,,,,,,,return,9.196999788,POOR,TRUE,,,,,,,108,ampolla,Catalan,Sounds/cat_ampolla.mp3,2020-06-05_13h56.55.679,TranslationElicitation_eng-prolific,3.2.4,MacIntel,60,5c953449e4d1d200172f23f6,9.196999788,1,0,81,4,1,80
,,,,,,,,,,,,,,,,,,,,,,,,,,,,,,,,,,,,,,,,,,,,,,,,,,,,108,ampolla,Catalan,Sounds/cat_ampolla.mp3,2020-06-05_13h56.55.679,TranslationElicitation_eng-prolific,3.2.4,MacIntel,60,5c953449e4d1d200172f23f6,,1,0,81,4,1,80
,,,,,,,,,,,,,,,,,,,,,,,,,,,,,,,,,,,,,,,,,,b,4.5,B,FALSE,,,,,,,187,vaixell,Catalan,Sounds/cat_vaixell.mp3,2020-06-05_13h56.55.679,TranslationElicitation_eng-prolific,3.2.4,MacIntel,60,5c953449e4d1d200172f23f6,,1,0,81,78,1,80
,,,,,,,,,,,,,,,,,,,,,,,,,,,,,,,,,,,,,,,,,,a,4.950999975,BA,FALSE,,,,,,,187,vaixell,Catalan,Sounds/cat_vaixell.mp3,2020-06-05_13h56.55.679,TranslationElicitation_eng-prolific,3.2.4,MacIntel,60,5c953449e4d1d200172f23f6,,1,0,81,78,1,80
,,,,,,,,,,,,,,,,,,,,,,,,,,,,,,,,,,,,,,,,,,s,5.066999912,BAS,FALSE,,,,,,,187,vaixell,Catalan,Sounds/cat_vaixell.mp3,2020-06-05_13h56.55.679,TranslationElicitation_eng-prolific,3.2.4,MacIntel,60,5c953449e4d1d200172f23f6,,1,0,81,78,1,80
,,,,,,,,,,,,,,,,,,,,,,,,,,,,,,,,,,,,,,,,,,k,5.151000023,BASK,FALSE,,,,,,,187,vaixell,Catalan,Sounds/cat_vaixell.mp3,2020-06-05_13h56.55.679,TranslationElicitation_eng-prolific,3.2.4,MacIntel,60,5c953449e4d1d200172f23f6,,1,0,81,78,1,80
,,,,,,,,,,,,,,,,,,,,,,,,,,,,,,,,,,,,,,,,,,e,5.28399992,BASKE,FALSE,,,,,,,187,vaixell,Catalan,Sounds/cat_vaixell.mp3,2020-06-05_13h56.55.679,TranslationElicitation_eng-prolific,3.2.4,MacIntel,60,5c953449e4d1d200172f23f6,,1,0,81,78,1,80
,,,,,,,,,,,,,,,,,,,,,,,,,,,,,,,,,,,,,,,,,,t,5.366999865,BASKET,FALSE,,,,,,,187,vaixell,Catalan,Sounds/cat_vaixell.mp3,2020-06-05_13h56.55.679,TranslationElicitation_eng-prolific,3.2.4,MacIntel,60,5c953449e4d1d200172f23f6,,1,0,81,78,1,80
,,,,,,,,,,,,,,,,,,,,,,,,,,,,,,,,,,,,,,,,,,return,5.51699996,BASKET,FALSE,,,,,,,187,vaixell,Catalan,Sounds/cat_vaixell.mp3,2020-06-05_13h56.55.679,TranslationElicitation_eng-prolific,3.2.4,MacIntel,60,5c953449e4d1d200172f23f6,5.51699996,1,0,81,78,1,80
,,,,,,,,,,,,,,,,,,,,,,,,,,,,,,,,,,,,,,,,,,,,,,,,,,,,187,vaixell,Catalan,Sounds/cat_vaixell.mp3,2020-06-05_13h56.55.679,TranslationElicitation_eng-prolific,3.2.4,MacIntel,60,5c953449e4d1d200172f23f6,,1,0,81,78,1,80
,,,,,,,,,,,,,,,,,,,,,,,,,,,,,,,,,,,,,,,,,,c,14.10299993,C,FALSE,,,,,,,105,aigua,Catalan,Sounds/cat_aigua.mp3,2020-06-05_13h56.55.679,TranslationElicitation_eng-prolific,3.2.4,MacIntel,60,5c953449e4d1d200172f23f6,,1,0,81,1,1,80
,,,,,,,,,,,,,,,,,,,,,,,,,,,,,,,,,,,,,,,,,,a,14.23600006,CA,FALSE,,,,,,,105,aigua,Catalan,Sounds/cat_aigua.mp3,2020-06-05_13h56.55.679,TranslationElicitation_eng-prolific,3.2.4,MacIntel,60,5c953449e4d1d200172f23f6,,1,0,81,1,1,80
,,,,,,,,,,,,,,,,,,,,,,,,,,,,,,,,,,,,,,,,,,k,14.31999993,CAK,FALSE,,,,,,,105,aigua,Catalan,Sounds/cat_aigua.mp3,2020-06-05_13h56.55.679,TranslationElicitation_eng-prolific,3.2.4,MacIntel,60,5c953449e4d1d200172f23f6,,1,0,81,1,1,80
,,,,,,,,,,,,,,,,,,,,,,,,,,,,,,,,,,,,,,,,,,e,14.45300007,CAKE,FALSE,,,,,,,105,aigua,Catalan,Sounds/cat_aigua.mp3,2020-06-05_13h56.55.679,TranslationElicitation_eng-prolific,3.2.4,MacIntel,60,5c953449e4d1d200172f23f6,,1,0,81,1,1,80
,,,,,,,,,,,,,,,,,,,,,,,,,,,,,,,,,,,,,,,,,,return,14.58599997,CAKE,FALSE,,,,,,,105,aigua,Catalan,Sounds/cat_aigua.mp3,2020-06-05_13h56.55.679,TranslationElicitation_eng-prolific,3.2.4,MacIntel,60,5c953449e4d1d200172f23f6,14.58599997,1,0,81,1,1,80
,,,,,,,,,,,,,,,,,,,,,,,,,,,,,,,,,,,,,,,,,,,,,,,,,,,,105,aigua,Catalan,Sounds/cat_aigua.mp3,2020-06-05_13h56.55.679,TranslationElicitation_eng-prolific,3.2.4,MacIntel,60,5c953449e4d1d200172f23f6,,1,0,81,1,1,80
,,,,,,,,,,,,,,,,,,,,,,,,,,,,,,,,,,,,,,,,,,u,12.11800003,U,FALSE,,,,,,,170,ploma,Catalan,Sounds/cat_ploma.mp3,2020-06-05_13h56.55.679,TranslationElicitation_eng-prolific,3.2.4,MacIntel,60,5c953449e4d1d200172f23f6,,1,0,81,62,1,80
