consentKey.keys,consentKey.rt,languageL1Key.keys,languageL1Key.rt,languageL2,languageL2OralKey.keys,languageL2OralKey.rt,languageL2WrittenKey.keys,languageL2WrittenKey.rt,languageL3OralKey.keys,languageL3OralKey.rt,languageL3WrittenKey.keys,languageL3WrittenKey.rt,languageCatalanOralKey.keys,languageCatalanOralKey.rt,languageCatalanWrittenKey.keys,languageCatalanWrittenKey.rt,languageCatalanTimeKey.keys,languageCatalanTimeKey.rt,languageSpanishOralKey.keys,languageSpanishOralKey.rt,languageSpanishWrittenKey.keys,languageSpanishWrittenKey.rt,languageSpanishTimeKey.keys,languageSpanishTimeKey.rt,age,demoSexKey.keys,demoSexKey.rt,demoEducationKey.keys,demoEducationKey.rt,city,demoVisionKey.keys,demoVisionKey.rt,demoLanguageKey.keys,demoLanguageKey.rt,setupLocationKey.keys,setupLocationKey.rt,setupNoiseKey.keys,setupNoiseKey.rt,instructionsKeys.keys,instructionsKeys.rt,keyPressed,keyPressTime,inputText,error,trialsPracticeCatalan.thisRepN,trialsPracticeCatalan.thisTrialN,trialsPracticeCatalan.thisN,trialsPracticeCatalan.thisIndex,trialsPracticeCatalan.ran,trialsPracticeCatalan.order,trial_id,word,test_language,soundfile,date,expName,psychopyVersion,OS,frameRate,participant,trialOffset,trialsCatalan.thisRepN,trialsCatalan.thisTrialN,trialsCatalan.thisN,trialsCatalan.thisIndex,trialsCatalan.ran,trialsCatalan.order
space,1.896999836,e,3.833999872,,,,,,,,,,1,4.040999889,1,5.740999699,1,5.900999784,2,7.14199996,2,5.549999714,1,7.855999947,19,f,2.794999838,3,5.576999903,LONDON,y,5.423999786,n,3.223999977,1,2.265999794,1,3.903999805,space,26.82599998,t,2.036000013,T,FALSE,1,0,5,4,1,4,179,tigre,Catalan,Sounds/cat_tigre.mp3,2020-06-12_20h49.37.894,TranslationElicitation_eng-prolific,3.2.4,Win32,60,5cad1eef8ed53d00180d2532,,,,,,,
,,,,,,,,,,,,,,,,,,,,,,,,,,,,,,,,,,,,,,,,,i,2.484000206,TI,FALSE,1,0,5,4,1,4,179,tigre,Catalan,Sounds/cat_tigre.mp3,2020-06-12_20h49.37.894,TranslationElicitation_eng-prolific,3.2.4,Win32,60,5cad1eef8ed53d00180d2532,,,,,,,
,,,,,,,,,,,,,,,,,,,,,,,,,,,,,,,,,,,,,,,,,g,2.854000092,TIG,FALSE,1,0,5,4,1,4,179,tigre,Catalan,Sounds/cat_tigre.mp3,2020-06-12_20h49.37.894,TranslationElicitation_eng-prolific,3.2.4,Win32,60,5cad1eef8ed53d00180d2532,,,,,,,
,,,,,,,,,,,,,,,,,,,,,,,,,,,,,,,,,,,,,,,,,e,3.08100009,TIGE,FALSE,1,0,5,4,1,4,179,tigre,Catalan,Sounds/cat_tigre.mp3,2020-06-12_20h49.37.894,TranslationElicitation_eng-prolific,3.2.4,Win32,60,5cad1eef8ed53d00180d2532,,,,,,,
,,,,,,,,,,,,,,,,,,,,,,,,,,,,,,,,,,,,,,,,,r,3.313000202,TIGER,FALSE,1,0,5,4,1,4,179,tigre,Catalan,Sounds/cat_tigre.mp3,2020-06-12_20h49.37.894,TranslationElicitation_eng-prolific,3.2.4,Win32,60,5cad1eef8ed53d00180d2532,,,,,,,
,,,,,,,,,,,,,,,,,,,,,,,,,,,,,,,,,,,,,,,,,return,3.810000181,TIGER,FALSE,1,0,5,4,1,4,179,tigre,Catalan,Sounds/cat_tigre.mp3,2020-06-12_20h49.37.894,TranslationElicitation_eng-prolific,3.2.4,Win32,60,5cad1eef8ed53d00180d2532,3.810000181,,,,,,
,,,,,,,,,,,,,,,,,,,,,,,,,,,,,,,,,,,,,,,,,,,,,1,0,5,4,1,4,179,tigre,Catalan,Sounds/cat_tigre.mp3,2020-06-12_20h49.37.894,TranslationElicitation_eng-prolific,3.2.4,Win32,60,5cad1eef8ed53d00180d2532,,,,,,,
,,,,,,,,,,,,,,,,,,,,,,,,,,,,,,,,,,,,,,,,,z,3.233999968,Z,FALSE,1,0,5,0,1,4,109,arbre,Catalan,Sounds/cat_arbre.mp3,2020-06-12_20h49.37.894,TranslationElicitation_eng-prolific,3.2.4,Win32,60,5cad1eef8ed53d00180d2532,,,,,,,
,,,,,,,,,,,,,,,,,,,,,,,,,,,,,,,,,,,,,,,,,e,3.56400013,ZE,FALSE,1,0,5,0,1,4,109,arbre,Catalan,Sounds/cat_arbre.mp3,2020-06-12_20h49.37.894,TranslationElicitation_eng-prolific,3.2.4,Win32,60,5cad1eef8ed53d00180d2532,,,,,,,
,,,,,,,,,,,,,,,,,,,,,,,,,,,,,,,,,,,,,,,,,b,3.878999949,ZEB,FALSE,1,0,5,0,1,4,109,arbre,Catalan,Sounds/cat_arbre.mp3,2020-06-12_20h49.37.894,TranslationElicitation_eng-prolific,3.2.4,Win32,60,5cad1eef8ed53d00180d2532,,,,,,,
,,,,,,,,,,,,,,,,,,,,,,,,,,,,,,,,,,,,,,,,,r,4.062000036,ZEBR,FALSE,1,0,5,0,1,4,109,arbre,Catalan,Sounds/cat_arbre.mp3,2020-06-12_20h49.37.894,TranslationElicitation_eng-prolific,3.2.4,Win32,60,5cad1eef8ed53d00180d2532,,,,,,,
,,,,,,,,,,,,,,,,,,,,,,,,,,,,,,,,,,,,,,,,,a,4.361999989,ZEBRA,FALSE,1,0,5,0,1,4,109,arbre,Catalan,Sounds/cat_arbre.mp3,2020-06-12_20h49.37.894,TranslationElicitation_eng-prolific,3.2.4,Win32,60,5cad1eef8ed53d00180d2532,,,,,,,
,,,,,,,,,,,,,,,,,,,,,,,,,,,,,,,,,,,,,,,,,return,4.957000017,ZEBRA,FALSE,1,0,5,0,1,4,109,arbre,Catalan,Sounds/cat_arbre.mp3,2020-06-12_20h49.37.894,TranslationElicitation_eng-prolific,3.2.4,Win32,60,5cad1eef8ed53d00180d2532,4.957000017,,,,,,
,,,,,,,,,,,,,,,,,,,,,,,,,,,,,,,,,,,,,,,,,,,,,1,0,5,0,1,4,109,arbre,Catalan,Sounds/cat_arbre.mp3,2020-06-12_20h49.37.894,TranslationElicitation_eng-prolific,3.2.4,Win32,60,5cad1eef8ed53d00180d2532,,,,,,,
,,,,,,,,,,,,,,,,,,,,,,,,,,,,,,,,,,,,,,,,,j,2.983999968,J,FALSE,1,0,5,2,1,4,147,jaqueta,Catalan,Sounds/cat_jaqueta.mp3,2020-06-12_20h49.37.894,TranslationElicitation_eng-prolific,3.2.4,Win32,60,5cad1eef8ed53d00180d2532,,,,,,,
,,,,,,,,,,,,,,,,,,,,,,,,,,,,,,,,,,,,,,,,,a,3.165999889,JA,FALSE,1,0,5,2,1,4,147,jaqueta,Catalan,Sounds/cat_jaqueta.mp3,2020-06-12_20h49.37.894,TranslationElicitation_eng-prolific,3.2.4,Win32,60,5cad1eef8ed53d00180d2532,,,,,,,
,,,,,,,,,,,,,,,,,,,,,,,,,,,,,,,,,,,,,,,,,c,3.432999849,JAC,FALSE,1,0,5,2,1,4,147,jaqueta,Catalan,Sounds/cat_jaqueta.mp3,2020-06-12_20h49.37.894,TranslationElicitation_eng-prolific,3.2.4,Win32,60,5cad1eef8ed53d00180d2532,,,,,,,
,,,,,,,,,,,,,,,,,,,,,,,,,,,,,,,,,,,,,,,,,k,3.630999804,JACK,FALSE,1,0,5,2,1,4,147,jaqueta,Catalan,Sounds/cat_jaqueta.mp3,2020-06-12_20h49.37.894,TranslationElicitation_eng-prolific,3.2.4,Win32,60,5cad1eef8ed53d00180d2532,,,,,,,
,,,,,,,,,,,,,,,,,,,,,,,,,,,,,,,,,,,,,,,,,e,3.812999964,JACKE,FALSE,1,0,5,2,1,4,147,jaqueta,Catalan,Sounds/cat_jaqueta.mp3,2020-06-12_20h49.37.894,TranslationElicitation_eng-prolific,3.2.4,Win32,60,5cad1eef8ed53d00180d2532,,,,,,,
,,,,,,,,,,,,,,,,,,,,,,,,,,,,,,,,,,,,,,,,,t,4.144999981,JACKET,FALSE,1,0,5,2,1,4,147,jaqueta,Catalan,Sounds/cat_jaqueta.mp3,2020-06-12_20h49.37.894,TranslationElicitation_eng-prolific,3.2.4,Win32,60,5cad1eef8ed53d00180d2532,,,,,,,
,,,,,,,,,,,,,,,,,,,,,,,,,,,,,,,,,,,,,,,,,return,4.840999842,JACKET,FALSE,1,0,5,2,1,4,147,jaqueta,Catalan,Sounds/cat_jaqueta.mp3,2020-06-12_20h49.37.894,TranslationElicitation_eng-prolific,3.2.4,Win32,60,5cad1eef8ed53d00180d2532,4.840999842,,,,,,
,,,,,,,,,,,,,,,,,,,,,,,,,,,,,,,,,,,,,,,,,,,,,1,0,5,2,1,4,147,jaqueta,Catalan,Sounds/cat_jaqueta.mp3,2020-06-12_20h49.37.894,TranslationElicitation_eng-prolific,3.2.4,Win32,60,5cad1eef8ed53d00180d2532,,,,,,,
,,,,,,,,,,,,,,,,,,,,,,,,,,,,,,,,,,,,,,,,,c,3.23300004,C,FALSE,1,0,5,1,1,4,126,corona,Catalan,Sounds/cat_corona.mp3,2020-06-12_20h49.37.894,TranslationElicitation_eng-prolific,3.2.4,Win32,60,5cad1eef8ed53d00180d2532,,,,,,,
,,,,,,,,,,,,,,,,,,,,,,,,,,,,,,,,,,,,,,,,,o,3.432999849,CO,FALSE,1,0,5,1,1,4,126,corona,Catalan,Sounds/cat_corona.mp3,2020-06-12_20h49.37.894,TranslationElicitation_eng-prolific,3.2.4,Win32,60,5cad1eef8ed53d00180d2532,,,,,,,
,,,,,,,,,,,,,,,,,,,,,,,,,,,,,,,,,,,,,,,,,r,3.613999844,COR,FALSE,1,0,5,1,1,4,126,corona,Catalan,Sounds/cat_corona.mp3,2020-06-12_20h49.37.894,TranslationElicitation_eng-prolific,3.2.4,Win32,60,5cad1eef8ed53d00180d2532,,,,,,,
,,,,,,,,,,,,,,,,,,,,,,,,,,,,,,,,,,,,,,,,,o,3.753999949,CORO,FALSE,1,0,5,1,1,4,126,corona,Catalan,Sounds/cat_corona.mp3,2020-06-12_20h49.37.894,TranslationElicitation_eng-prolific,3.2.4,Win32,60,5cad1eef8ed53d00180d2532,,,,,,,
,,,,,,,,,,,,,,,,,,,,,,,,,,,,,,,,,,,,,,,,,n,3.997999907,CORON,FALSE,1,0,5,1,1,4,126,corona,Catalan,Sounds/cat_corona.mp3,2020-06-12_20h49.37.894,TranslationElicitation_eng-prolific,3.2.4,Win32,60,5cad1eef8ed53d00180d2532,,,,,,,
,,,,,,,,,,,,,,,,,,,,,,,,,,,,,,,,,,,,,,,,,a,4.144999981,CORONA,FALSE,1,0,5,1,1,4,126,corona,Catalan,Sounds/cat_corona.mp3,2020-06-12_20h49.37.894,TranslationElicitation_eng-prolific,3.2.4,Win32,60,5cad1eef8ed53d00180d2532,,,,,,,
,,,,,,,,,,,,,,,,,,,,,,,,,,,,,,,,,,,,,,,,,v,4.924000025,CORONAV,FALSE,1,0,5,1,1,4,126,corona,Catalan,Sounds/cat_corona.mp3,2020-06-12_20h49.37.894,TranslationElicitation_eng-prolific,3.2.4,Win32,60,5cad1eef8ed53d00180d2532,,,,,,,
,,,,,,,,,,,,,,,,,,,,,,,,,,,,,,,,,,,,,,,,,i,5.222999811,CORONAVI,FALSE,1,0,5,1,1,4,126,corona,Catalan,Sounds/cat_corona.mp3,2020-06-12_20h49.37.894,TranslationElicitation_eng-prolific,3.2.4,Win32,60,5cad1eef8ed53d00180d2532,,,,,,,
,,,,,,,,,,,,,,,,,,,,,,,,,,,,,,,,,,,,,,,,,r,5.470999956,CORONAVIR,FALSE,1,0,5,1,1,4,126,corona,Catalan,Sounds/cat_corona.mp3,2020-06-12_20h49.37.894,TranslationElicitation_eng-prolific,3.2.4,Win32,60,5cad1eef8ed53d00180d2532,,,,,,,
,,,,,,,,,,,,,,,,,,,,,,,,,,,,,,,,,,,,,,,,,u,5.687000036,CORONAVIRU,FALSE,1,0,5,1,1,4,126,corona,Catalan,Sounds/cat_corona.mp3,2020-06-12_20h49.37.894,TranslationElicitation_eng-prolific,3.2.4,Win32,60,5cad1eef8ed53d00180d2532,,,,,,,
,,,,,,,,,,,,,,,,,,,,,,,,,,,,,,,,,,,,,,,,,s,5.786000013,CORONAVIRUS,FALSE,1,0,5,1,1,4,126,corona,Catalan,Sounds/cat_corona.mp3,2020-06-12_20h49.37.894,TranslationElicitation_eng-prolific,3.2.4,Win32,60,5cad1eef8ed53d00180d2532,,,,,,,
,,,,,,,,,,,,,,,,,,,,,,,,,,,,,,,,,,,,,,,,,return,6.714999914,CORONAVIRUS,FALSE,1,0,5,1,1,4,126,corona,Catalan,Sounds/cat_corona.mp3,2020-06-12_20h49.37.894,TranslationElicitation_eng-prolific,3.2.4,Win32,60,5cad1eef8ed53d00180d2532,6.714999914,,,,,,
,,,,,,,,,,,,,,,,,,,,,,,,,,,,,,,,,,,,,,,,,,,,,1,0,5,1,1,4,126,corona,Catalan,Sounds/cat_corona.mp3,2020-06-12_20h49.37.894,TranslationElicitation_eng-prolific,3.2.4,Win32,60,5cad1eef8ed53d00180d2532,,,,,,,
,,,,,,,,,,,,,,,,,,,,,,,,,,,,,,,,,,,,,,,,,a,6.266000032,A,FALSE,1,0,5,3,1,4,159,onada,Catalan,Sounds/cat_onada.mp3,2020-06-12_20h49.37.894,TranslationElicitation_eng-prolific,3.2.4,Win32,60,5cad1eef8ed53d00180d2532,,,,,,,
,,,,,,,,,,,,,,,,,,,,,,,,,,,,,,,,,,,,,,,,,p,6.564999819,AP,FALSE,1,0,5,3,1,4,159,onada,Catalan,Sounds/cat_onada.mp3,2020-06-12_20h49.37.894,TranslationElicitation_eng-prolific,3.2.4,Win32,60,5cad1eef8ed53d00180d2532,,,,,,,
,,,,,,,,,,,,,,,,,,,,,,,,,,,,,,,,,,,,,,,,,p,6.746999979,APP,FALSE,1,0,5,3,1,4,159,onada,Catalan,Sounds/cat_onada.mp3,2020-06-12_20h49.37.894,TranslationElicitation_eng-prolific,3.2.4,Win32,60,5cad1eef8ed53d00180d2532,,,,,,,
,,,,,,,,,,,,,,,,,,,,,,,,,,,,,,,,,,,,,,,,,k,7.095000029,APPK,FALSE,1,0,5,3,1,4,159,onada,Catalan,Sounds/cat_onada.mp3,2020-06-12_20h49.37.894,TranslationElicitation_eng-prolific,3.2.4,Win32,60,5cad1eef8ed53d00180d2532,,,,,,,
,,,,,,,,,,,,,,,,,,,,,,,,,,,,,,,,,,,,,,,,,e,7.460999966,APPKE,FALSE,1,0,5,3,1,4,159,onada,Catalan,Sounds/cat_onada.mp3,2020-06-12_20h49.37.894,TranslationElicitation_eng-prolific,3.2.4,Win32,60,5cad1eef8ed53d00180d2532,,,,,,,
,,,,,,,,,,,,,,,,,,,,,,,,,,,,,,,,,,,,,,,,,backspace,7.957000017,APPK,TRUE,1,0,5,3,1,4,159,onada,Catalan,Sounds/cat_onada.mp3,2020-06-12_20h49.37.894,TranslationElicitation_eng-prolific,3.2.4,Win32,60,5cad1eef8ed53d00180d2532,,,,,,,
,,,,,,,,,,,,,,,,,,,,,,,,,,,,,,,,,,,,,,,,,backspace,8.072999954,APP,TRUE,1,0,5,3,1,4,159,onada,Catalan,Sounds/cat_onada.mp3,2020-06-12_20h49.37.894,TranslationElicitation_eng-prolific,3.2.4,Win32,60,5cad1eef8ed53d00180d2532,,,,,,,
,,,,,,,,,,,,,,,,,,,,,,,,,,,,,,,,,,,,,,,,,backspace,8.454999924,AP,TRUE,1,0,5,3,1,4,159,onada,Catalan,Sounds/cat_onada.mp3,2020-06-12_20h49.37.894,TranslationElicitation_eng-prolific,3.2.4,Win32,60,5cad1eef8ed53d00180d2532,,,,,,,
,,,,,,,,,,,,,,,,,,,,,,,,,,,,,,,,,,,,,,,,,backspace,9.233999968,A,TRUE,1,0,5,3,1,4,159,onada,Catalan,Sounds/cat_onada.mp3,2020-06-12_20h49.37.894,TranslationElicitation_eng-prolific,3.2.4,Win32,60,5cad1eef8ed53d00180d2532,,,,,,,
,,,,,,,,,,,,,,,,,,,,,,,,,,,,,,,,,,,,,,,,,backspace,9.664999962,,TRUE,1,0,5,3,1,4,159,onada,Catalan,Sounds/cat_onada.mp3,2020-06-12_20h49.37.894,TranslationElicitation_eng-prolific,3.2.4,Win32,60,5cad1eef8ed53d00180d2532,,,,,,,
,,,,,,,,,,,,,,,,,,,,,,,,,,,,,,,,,,,,,,,,,s,10.64699984,S,TRUE,1,0,5,3,1,4,159,onada,Catalan,Sounds/cat_onada.mp3,2020-06-12_20h49.37.894,TranslationElicitation_eng-prolific,3.2.4,Win32,60,5cad1eef8ed53d00180d2532,,,,,,,
,,,,,,,,,,,,,,,,,,,,,,,,,,,,,,,,,,,,,,,,,n,10.80900002,SN,TRUE,1,0,5,3,1,4,159,onada,Catalan,Sounds/cat_onada.mp3,2020-06-12_20h49.37.894,TranslationElicitation_eng-prolific,3.2.4,Win32,60,5cad1eef8ed53d00180d2532,,,,,,,
,,,,,,,,,,,,,,,,,,,,,,,,,,,,,,,,,,,,,,,,,a,10.95799994,SNA,TRUE,1,0,5,3,1,4,159,onada,Catalan,Sounds/cat_onada.mp3,2020-06-12_20h49.37.894,TranslationElicitation_eng-prolific,3.2.4,Win32,60,5cad1eef8ed53d00180d2532,,,,,,,
,,,,,,,,,,,,,,,,,,,,,,,,,,,,,,,,,,,,,,,,,l,11.68799996,SNAL,TRUE,1,0,5,3,1,4,159,onada,Catalan,Sounds/cat_onada.mp3,2020-06-12_20h49.37.894,TranslationElicitation_eng-prolific,3.2.4,Win32,60,5cad1eef8ed53d00180d2532,,,,,,,
,,,,,,,,,,,,,,,,,,,,,,,,,,,,,,,,,,,,,,,,,backspace,12.26799989,SNA,TRUE,1,0,5,3,1,4,159,onada,Catalan,Sounds/cat_onada.mp3,2020-06-12_20h49.37.894,TranslationElicitation_eng-prolific,3.2.4,Win32,60,5cad1eef8ed53d00180d2532,,,,,,,
,,,,,,,,,,,,,,,,,,,,,,,,,,,,,,,,,,,,,,,,,k,12.55200005,SNAK,TRUE,1,0,5,3,1,4,159,onada,Catalan,Sounds/cat_onada.mp3,2020-06-12_20h49.37.894,TranslationElicitation_eng-prolific,3.2.4,Win32,60,5cad1eef8ed53d00180d2532,,,,,,,
,,,,,,,,,,,,,,,,,,,,,,,,,,,,,,,,,,,,,,,,,e,12.74899983,SNAKE,TRUE,1,0,5,3,1,4,159,onada,Catalan,Sounds/cat_onada.mp3,2020-06-12_20h49.37.894,TranslationElicitation_eng-prolific,3.2.4,Win32,60,5cad1eef8ed53d00180d2532,,,,,,,
,,,,,,,,,,,,,,,,,,,,,,,,,,,,,,,,,,,,,,,,,return,12.898,SNAKE,TRUE,1,0,5,3,1,4,159,onada,Catalan,Sounds/cat_onada.mp3,2020-06-12_20h49.37.894,TranslationElicitation_eng-prolific,3.2.4,Win32,60,5cad1eef8ed53d00180d2532,12.898,,,,,,
,,,,,,,,,,,,,,,,,,,,,,,,,,,,,,,,,,,,,,,,,,,,,1,0,5,3,1,4,159,onada,Catalan,Sounds/cat_onada.mp3,2020-06-12_20h49.37.894,TranslationElicitation_eng-prolific,3.2.4,Win32,60,5cad1eef8ed53d00180d2532,,,,,,,
,,,,,,,,,,,,,,,,,,,,,,,,,,,,,,,,,,,,,,,,,p,2.369999886,P,FALSE,,,,,,,170,ploma,Catalan,Sounds/cat_ploma.mp3,2020-06-12_20h49.37.894,TranslationElicitation_eng-prolific,3.2.4,Win32,60,5cad1eef8ed53d00180d2532,,1,0,81,62,1,80
,,,,,,,,,,,,,,,,,,,,,,,,,,,,,,,,,,,,,,,,,l,2.519000053,PL,FALSE,,,,,,,170,ploma,Catalan,Sounds/cat_ploma.mp3,2020-06-12_20h49.37.894,TranslationElicitation_eng-prolific,3.2.4,Win32,60,5cad1eef8ed53d00180d2532,,1,0,81,62,1,80
,,,,,,,,,,,,,,,,,,,,,,,,,,,,,,,,,,,,,,,,,u,2.851000071,PLU,FALSE,,,,,,,170,ploma,Catalan,Sounds/cat_ploma.mp3,2020-06-12_20h49.37.894,TranslationElicitation_eng-prolific,3.2.4,Win32,60,5cad1eef8ed53d00180d2532,,1,0,81,62,1,80
,,,,,,,,,,,,,,,,,,,,,,,,,,,,,,,,,,,,,,,,,m,3.115999937,PLUM,FALSE,,,,,,,170,ploma,Catalan,Sounds/cat_ploma.mp3,2020-06-12_20h49.37.894,TranslationElicitation_eng-prolific,3.2.4,Win32,60,5cad1eef8ed53d00180d2532,,1,0,81,62,1,80
,,,,,,,,,,,,,,,,,,,,,,,,,,,,,,,,,,,,,,,,,b,3.563999891,PLUMB,FALSE,,,,,,,170,ploma,Catalan,Sounds/cat_ploma.mp3,2020-06-12_20h49.37.894,TranslationElicitation_eng-prolific,3.2.4,Win32,60,5cad1eef8ed53d00180d2532,,1,0,81,62,1,80
,,,,,,,,,,,,,,,,,,,,,,,,,,,,,,,,,,,,,,,,,e,3.697000027,PLUMBE,FALSE,,,,,,,170,ploma,Catalan,Sounds/cat_ploma.mp3,2020-06-12_20h49.37.894,TranslationElicitation_eng-prolific,3.2.4,Win32,60,5cad1eef8ed53d00180d2532,,1,0,81,62,1,80
,,,,,,,,,,,,,,,,,,,,,,,,,,,,,,,,,,,,,,,,,r,3.980000019,PLUMBER,FALSE,,,,,,,170,ploma,Catalan,Sounds/cat_ploma.mp3,2020-06-12_20h49.37.894,TranslationElicitation_eng-prolific,3.2.4,Win32,60,5cad1eef8ed53d00180d2532,,1,0,81,62,1,80
,,,,,,,,,,,,,,,,,,,,,,,,,,,,,,,,,,,,,,,,,backspace,6.914999962,PLUMBE,TRUE,,,,,,,170,ploma,Catalan,Sounds/cat_ploma.mp3,2020-06-12_20h49.37.894,TranslationElicitation_eng-prolific,3.2.4,Win32,60,5cad1eef8ed53d00180d2532,,1,0,81,62,1,80
,,,,,,,,,,,,,,,,,,,,,,,,,,,,,,,,,,,,,,,,,backspace,7.096999884,PLUMB,TRUE,,,,,,,170,ploma,Catalan,Sounds/cat_ploma.mp3,2020-06-12_20h49.37.894,TranslationElicitation_eng-prolific,3.2.4,Win32,60,5cad1eef8ed53d00180d2532,,1,0,81,62,1,80
,,,,,,,,,,,,,,,,,,,,,,,,,,,,,,,,,,,,,,,,,backspace,7.460000038,PLUM,TRUE,,,,,,,170,ploma,Catalan,Sounds/cat_ploma.mp3,2020-06-12_20h49.37.894,TranslationElicitation_eng-prolific,3.2.4,Win32,60,5cad1eef8ed53d00180d2532,,1,0,81,62,1,80
,,,,,,,,,,,,,,,,,,,,,,,,,,,,,,,,,,,,,,,,,return,7.840999842,PLUM,TRUE,,,,,,,170,ploma,Catalan,Sounds/cat_ploma.mp3,2020-06-12_20h49.37.894,TranslationElicitation_eng-prolific,3.2.4,Win32,60,5cad1eef8ed53d00180d2532,7.840999842,1,0,81,62,1,80
,,,,,,,,,,,,,,,,,,,,,,,,,,,,,,,,,,,,,,,,,,,,,,,,,,,170,ploma,Catalan,Sounds/cat_ploma.mp3,2020-06-12_20h49.37.894,TranslationElicitation_eng-prolific,3.2.4,Win32,60,5cad1eef8ed53d00180d2532,,1,0,81,62,1,80
,,,,,,,,,,,,,,,,,,,,,,,,,,,,,,,,,,,,,,,,,g,4.105000019,G,FALSE,,,,,,,143,globus,Catalan,Sounds/cat_globus.mp3,2020-06-12_20h49.37.894,TranslationElicitation_eng-prolific,3.2.4,Win32,60,5cad1eef8ed53d00180d2532,,1,0,81,37,1,80
,,,,,,,,,,,,,,,,,,,,,,,,,,,,,,,,,,,,,,,,,o,4.519999981,GO,FALSE,,,,,,,143,globus,Catalan,Sounds/cat_globus.mp3,2020-06-12_20h49.37.894,TranslationElicitation_eng-prolific,3.2.4,Win32,60,5cad1eef8ed53d00180d2532,,1,0,81,37,1,80
,,,,,,,,,,,,,,,,,,,,,,,,,,,,,,,,,,,,,,,,,o,4.819000006,GOO,FALSE,,,,,,,143,globus,Catalan,Sounds/cat_globus.mp3,2020-06-12_20h49.37.894,TranslationElicitation_eng-prolific,3.2.4,Win32,60,5cad1eef8ed53d00180d2532,,1,0,81,37,1,80
,,,,,,,,,,,,,,,,,,,,,,,,,,,,,,,,,,,,,,,,,s,4.953000069,GOOS,FALSE,,,,,,,143,globus,Catalan,Sounds/cat_globus.mp3,2020-06-12_20h49.37.894,TranslationElicitation_eng-prolific,3.2.4,Win32,60,5cad1eef8ed53d00180d2532,,1,0,81,37,1,80
,,,,,,,,,,,,,,,,,,,,,,,,,,,,,,,,,,,,,,,,,e,5.200000048,GOOSE,FALSE,,,,,,,143,globus,Catalan,Sounds/cat_globus.mp3,2020-06-12_20h49.37.894,TranslationElicitation_eng-prolific,3.2.4,Win32,60,5cad1eef8ed53d00180d2532,,1,0,81,37,1,80
,,,,,,,,,,,,,,,,,,,,,,,,,,,,,,,,,,,,,,,,,return,6.079999924,GOOSE,FALSE,,,,,,,143,globus,Catalan,Sounds/cat_globus.mp3,2020-06-12_20h49.37.894,TranslationElicitation_eng-prolific,3.2.4,Win32,60,5cad1eef8ed53d00180d2532,6.079999924,1,0,81,37,1,80
,,,,,,,,,,,,,,,,,,,,,,,,,,,,,,,,,,,,,,,,,,,,,,,,,,,143,globus,Catalan,Sounds/cat_globus.mp3,2020-06-12_20h49.37.894,TranslationElicitation_eng-prolific,3.2.4,Win32,60,5cad1eef8ed53d00180d2532,,1,0,81,37,1,80
,,,,,,,,,,,,,,,,,,,,,,,,,,,,,,,,,,,,,,,,,s,3.448000193,S,FALSE,,,,,,,121,camisa,Catalan,Sounds/cat_camisa.mp3,2020-06-12_20h49.37.894,TranslationElicitation_eng-prolific,3.2.4,Win32,60,5cad1eef8ed53d00180d2532,,1,0,81,16,1,80
,,,,,,,,,,,,,,,,,,,,,,,,,,,,,,,,,,,,,,,,,h,3.630000114,SH,FALSE,,,,,,,121,camisa,Catalan,Sounds/cat_camisa.mp3,2020-06-12_20h49.37.894,TranslationElicitation_eng-prolific,3.2.4,Win32,60,5cad1eef8ed53d00180d2532,,1,0,81,16,1,80
,,,,,,,,,,,,,,,,,,,,,,,,,,,,,,,,,,,,,,,,,i,4.097000122,SHI,FALSE,,,,,,,121,camisa,Catalan,Sounds/cat_camisa.mp3,2020-06-12_20h49.37.894,TranslationElicitation_eng-prolific,3.2.4,Win32,60,5cad1eef8ed53d00180d2532,,1,0,81,16,1,80
,,,,,,,,,,,,,,,,,,,,,,,,,,,,,,,,,,,,,,,,,r,4.346000195,SHIR,FALSE,,,,,,,121,camisa,Catalan,Sounds/cat_camisa.mp3,2020-06-12_20h49.37.894,TranslationElicitation_eng-prolific,3.2.4,Win32,60,5cad1eef8ed53d00180d2532,,1,0,81,16,1,80
,,,,,,,,,,,,,,,,,,,,,,,,,,,,,,,,,,,,,,,,,t,4.559000015,SHIRT,FALSE,,,,,,,121,camisa,Catalan,Sounds/cat_camisa.mp3,2020-06-12_20h49.37.894,TranslationElicitation_eng-prolific,3.2.4,Win32,60,5cad1eef8ed53d00180d2532,,1,0,81,16,1,80
,,,,,,,,,,,,,,,,,,,,,,,,,,,,,,,,,,,,,,,,,return,5.918000221,SHIRT,FALSE,,,,,,,121,camisa,Catalan,Sounds/cat_camisa.mp3,2020-06-12_20h49.37.894,TranslationElicitation_eng-prolific,3.2.4,Win32,60,5cad1eef8ed53d00180d2532,5.918000221,1,0,81,16,1,80
,,,,,,,,,,,,,,,,,,,,,,,,,,,,,,,,,,,,,,,,,,,,,,,,,,,121,camisa,Catalan,Sounds/cat_camisa.mp3,2020-06-12_20h49.37.894,TranslationElicitation_eng-prolific,3.2.4,Win32,60,5cad1eef8ed53d00180d2532,,1,0,81,16,1,80
,,,,,,,,,,,,,,,,,,,,,,,,,,,,,,,,,,,,,,,,,f,4.808000088,F,FALSE,,,,,,,137,fulla,Catalan,Sounds/cat_fulla.mp3,2020-06-12_20h49.37.894,TranslationElicitation_eng-prolific,3.2.4,Win32,60,5cad1eef8ed53d00180d2532,,1,0,81,31,1,80
,,,,,,,,,,,,,,,,,,,,,,,,,,,,,,,,,,,,,,,,,o,5.007999897,FO,FALSE,,,,,,,137,fulla,Catalan,Sounds/cat_fulla.mp3,2020-06-12_20h49.37.894,TranslationElicitation_eng-prolific,3.2.4,Win32,60,5cad1eef8ed53d00180d2532,,1,0,81,31,1,80
,,,,,,,,,,,,,,,,,,,,,,,,,,,,,,,,,,,,,,,,,o,5.188999891,FOO,FALSE,,,,,,,137,fulla,Catalan,Sounds/cat_fulla.mp3,2020-06-12_20h49.37.894,TranslationElicitation_eng-prolific,3.2.4,Win32,60,5cad1eef8ed53d00180d2532,,1,0,81,31,1,80
,,,,,,,,,,,,,,,,,,,,,,,,,,,,,,,,,,,,,,,,,l,5.371999979,FOOL,FALSE,,,,,,,137,fulla,Catalan,Sounds/cat_fulla.mp3,2020-06-12_20h49.37.894,TranslationElicitation_eng-prolific,3.2.4,Win32,60,5cad1eef8ed53d00180d2532,,1,0,81,31,1,80
,,,,,,,,,,,,,,,,,,,,,,,,,,,,,,,,,,,,,,,,,return,5.753000021,FOOL,FALSE,,,,,,,137,fulla,Catalan,Sounds/cat_fulla.mp3,2020-06-12_20h49.37.894,TranslationElicitation_eng-prolific,3.2.4,Win32,60,5cad1eef8ed53d00180d2532,5.753000021,1,0,81,31,1,80
,,,,,,,,,,,,,,,,,,,,,,,,,,,,,,,,,,,,,,,,,,,,,,,,,,,137,fulla,Catalan,Sounds/cat_fulla.mp3,2020-06-12_20h49.37.894,TranslationElicitation_eng-prolific,3.2.4,Win32,60,5cad1eef8ed53d00180d2532,,1,0,81,31,1,80
,,,,,,,,,,,,,,,,,,,,,,,,,,,,,,,,,,,,,,,,,s,5.073000193,S,FALSE,,,,,,,165,pernil,Catalan,Sounds/cat_pernil.mp3,2020-06-12_20h49.37.894,TranslationElicitation_eng-prolific,3.2.4,Win32,60,5cad1eef8ed53d00180d2532,,1,0,81,57,1,80
,,,,,,,,,,,,,,,,,,,,,,,,,,,,,,,,,,,,,,,,,t,5.390000105,ST,FALSE,,,,,,,165,pernil,Catalan,Sounds/cat_pernil.mp3,2020-06-12_20h49.37.894,TranslationElicitation_eng-prolific,3.2.4,Win32,60,5cad1eef8ed53d00180d2532,,1,0,81,57,1,80
,,,,,,,,,,,,,,,,,,,,,,,,,,,,,,,,,,,,,,,,,o,5.670000076,STO,FALSE,,,,,,,165,pernil,Catalan,Sounds/cat_pernil.mp3,2020-06-12_20h49.37.894,TranslationElicitation_eng-prolific,3.2.4,Win32,60,5cad1eef8ed53d00180d2532,,1,0,81,57,1,80
,,,,,,,,,,,,,,,,,,,,,,,,,,,,,,,,,,,,,,,,,p,5.903000116,STOP,FALSE,,,,,,,165,pernil,Catalan,Sounds/cat_pernil.mp3,2020-06-12_20h49.37.894,TranslationElicitation_eng-prolific,3.2.4,Win32,60,5cad1eef8ed53d00180d2532,,1,0,81,57,1,80
,,,,,,,,,,,,,,,,,,,,,,,,,,,,,,,,,,,,,,,,,return,6.897000074,STOP,FALSE,,,,,,,165,pernil,Catalan,Sounds/cat_pernil.mp3,2020-06-12_20h49.37.894,TranslationElicitation_eng-prolific,3.2.4,Win32,60,5cad1eef8ed53d00180d2532,6.897000074,1,0,81,57,1,80
,,,,,,,,,,,,,,,,,,,,,,,,,,,,,,,,,,,,,,,,,,,,,,,,,,,165,pernil,Catalan,Sounds/cat_pernil.mp3,2020-06-12_20h49.37.894,TranslationElicitation_eng-prolific,3.2.4,Win32,60,5cad1eef8ed53d00180d2532,,1,0,81,57,1,80
,,,,,,,,,,,,,,,,,,,,,,,,,,,,,,,,,,,,,,,,,b,3.464999914,B,FALSE,,,,,,,139,galleda,Catalan,Sounds/cat_galleda.mp3,2020-06-12_20h49.37.894,TranslationElicitation_eng-prolific,3.2.4,Win32,60,5cad1eef8ed53d00180d2532,,1,0,81,33,1,80
,,,,,,,,,,,,,,,,,,,,,,,,,,,,,,,,,,,,,,,,,r,3.664999962,BR,FALSE,,,,,,,139,galleda,Catalan,Sounds/cat_galleda.mp3,2020-06-12_20h49.37.894,TranslationElicitation_eng-prolific,3.2.4,Win32,60,5cad1eef8ed53d00180d2532,,1,0,81,33,1,80
,,,,,,,,,,,,,,,,,,,,,,,,,,,,,,,,,,,,,,,,,o,4.127999783,BRO,FALSE,,,,,,,139,galleda,Catalan,Sounds/cat_galleda.mp3,2020-06-12_20h49.37.894,TranslationElicitation_eng-prolific,3.2.4,Win32,60,5cad1eef8ed53d00180d2532,,1,0,81,33,1,80
,,,,,,,,,,,,,,,,,,,,,,,,,,,,,,,,,,,,,,,,,t,4.4599998,BROT,FALSE,,,,,,,139,galleda,Catalan,Sounds/cat_galleda.mp3,2020-06-12_20h49.37.894,TranslationElicitation_eng-prolific,3.2.4,Win32,60,5cad1eef8ed53d00180d2532,,1,0,81,33,1,80
,,,,,,,,,,,,,,,,,,,,,,,,,,,,,,,,,,,,,,,,,h,4.608999968,BROTH,FALSE,,,,,,,139,galleda,Catalan,Sounds/cat_galleda.mp3,2020-06-12_20h49.37.894,TranslationElicitation_eng-prolific,3.2.4,Win32,60,5cad1eef8ed53d00180d2532,,1,0,81,33,1,80
,,,,,,,,,,,,,,,,,,,,,,,,,,,,,,,,,,,,,,,,,e,4.724999905,BROTHE,FALSE,,,,,,,139,galleda,Catalan,Sounds/cat_galleda.mp3,2020-06-12_20h49.37.894,TranslationElicitation_eng-prolific,3.2.4,Win32,60,5cad1eef8ed53d00180d2532,,1,0,81,33,1,80
,,,,,,,,,,,,,,,,,,,,,,,,,,,,,,,,,,,,,,,,,r,5.006999969,BROTHER,FALSE,,,,,,,139,galleda,Catalan,Sounds/cat_galleda.mp3,2020-06-12_20h49.37.894,TranslationElicitation_eng-prolific,3.2.4,Win32,60,5cad1eef8ed53d00180d2532,,1,0,81,33,1,80
,,,,,,,,,,,,,,,,,,,,,,,,,,,,,,,,,,,,,,,,,return,5.404999971,BROTHER,FALSE,,,,,,,139,galleda,Catalan,Sounds/cat_galleda.mp3,2020-06-12_20h49.37.894,TranslationElicitation_eng-prolific,3.2.4,Win32,60,5cad1eef8ed53d00180d2532,5.404999971,1,0,81,33,1,80
,,,,,,,,,,,,,,,,,,,,,,,,,,,,,,,,,,,,,,,,,,,,,,,,,,,139,galleda,Catalan,Sounds/cat_galleda.mp3,2020-06-12_20h49.37.894,TranslationElicitation_eng-prolific,3.2.4,Win32,60,5cad1eef8ed53d00180d2532,,1,0,81,33,1,80
,,,,,,,,,,,,,,,,,,,,,,,,,,,,,,,,,,,,,,,,,h,4.657999992,H,FALSE,,,,,,,154,mirall,Catalan,Sounds/cat_mirall.mp3,2020-06-12_20h49.37.894,TranslationElicitation_eng-prolific,3.2.4,Win32,60,5cad1eef8ed53d00180d2532,,1,0,81,47,1,80
,,,,,,,,,,,,,,,,,,,,,,,,,,,,,,,,,,,,,,,,,o,4.890000105,HO,FALSE,,,,,,,154,mirall,Catalan,Sounds/cat_mirall.mp3,2020-06-12_20h49.37.894,TranslationElicitation_eng-prolific,3.2.4,Win32,60,5cad1eef8ed53d00180d2532,,1,0,81,47,1,80
,,,,,,,,,,,,,,,,,,,,,,,,,,,,,,,,,,,,,,,,,n,5.039999962,HON,FALSE,,,,,,,154,mirall,Catalan,Sounds/cat_mirall.mp3,2020-06-12_20h49.37.894,TranslationElicitation_eng-prolific,3.2.4,Win32,60,5cad1eef8ed53d00180d2532,,1,0,81,47,1,80
,,,,,,,,,,,,,,,,,,,,,,,,,,,,,,,,,,,,,,,,,e,5.222000122,HONE,FALSE,,,,,,,154,mirall,Catalan,Sounds/cat_mirall.mp3,2020-06-12_20h49.37.894,TranslationElicitation_eng-prolific,3.2.4,Win32,60,5cad1eef8ed53d00180d2532,,1,0,81,47,1,80
,,,,,,,,,,,,,,,,,,,,,,,,,,,,,,,,,,,,,,,,,y,5.371000051,HONEY,FALSE,,,,,,,154,mirall,Catalan,Sounds/cat_mirall.mp3,2020-06-12_20h49.37.894,TranslationElicitation_eng-prolific,3.2.4,Win32,60,5cad1eef8ed53d00180d2532,,1,0,81,47,1,80
,,,,,,,,,,,,,,,,,,,,,,,,,,,,,,,,,,,,,,,,,return,5.753000021,HONEY,FALSE,,,,,,,154,mirall,Catalan,Sounds/cat_mirall.mp3,2020-06-12_20h49.37.894,TranslationElicitation_eng-prolific,3.2.4,Win32,60,5cad1eef8ed53d00180d2532,5.753000021,1,0,81,47,1,80
,,,,,,,,,,,,,,,,,,,,,,,,,,,,,,,,,,,,,,,,,,,,,,,,,,,154,mirall,Catalan,Sounds/cat_mirall.mp3,2020-06-12_20h49.37.894,TranslationElicitation_eng-prolific,3.2.4,Win32,60,5cad1eef8ed53d00180d2532,,1,0,81,47,1,80
,,,,,,,,,,,,,,,,,,,,,,,,,,,,,,,,,,,,,,,,,f,2.751999855,F,FALSE,,,,,,,174,porta,Catalan,Sounds/cat_porta.mp3,2020-06-12_20h49.37.894,TranslationElicitation_eng-prolific,3.2.4,Win32,60,5cad1eef8ed53d00180d2532,,1,0,81,66,1,80
,,,,,,,,,,,,,,,,,,,,,,,,,,,,,,,,,,,,,,,,,backspace,3.198999882,,TRUE,,,,,,,174,porta,Catalan,Sounds/cat_porta.mp3,2020-06-12_20h49.37.894,TranslationElicitation_eng-prolific,3.2.4,Win32,60,5cad1eef8ed53d00180d2532,,1,0,81,66,1,80
,,,,,,,,,,,,,,,,,,,,,,,,,,,,,,,,,,,,,,,,,d,3.430999994,D,TRUE,,,,,,,174,porta,Catalan,Sounds/cat_porta.mp3,2020-06-12_20h49.37.894,TranslationElicitation_eng-prolific,3.2.4,Win32,60,5cad1eef8ed53d00180d2532,,1,0,81,66,1,80
,,,,,,,,,,,,,,,,,,,,,,,,,,,,,,,,,,,,,,,,,o,3.580999851,DO,TRUE,,,,,,,174,porta,Catalan,Sounds/cat_porta.mp3,2020-06-12_20h49.37.894,TranslationElicitation_eng-prolific,3.2.4,Win32,60,5cad1eef8ed53d00180d2532,,1,0,81,66,1,80
,,,,,,,,,,,,,,,,,,,,,,,,,,,,,,,,,,,,,,,,,o,3.763000011,DOO,TRUE,,,,,,,174,porta,Catalan,Sounds/cat_porta.mp3,2020-06-12_20h49.37.894,TranslationElicitation_eng-prolific,3.2.4,Win32,60,5cad1eef8ed53d00180d2532,,1,0,81,66,1,80
,,,,,,,,,,,,,,,,,,,,,,,,,,,,,,,,,,,,,,,,,r,3.846999884,DOOR,TRUE,,,,,,,174,porta,Catalan,Sounds/cat_porta.mp3,2020-06-12_20h49.37.894,TranslationElicitation_eng-prolific,3.2.4,Win32,60,5cad1eef8ed53d00180d2532,,1,0,81,66,1,80
,,,,,,,,,,,,,,,,,,,,,,,,,,,,,,,,,,,,,,,,,return,4.296999931,DOOR,TRUE,,,,,,,174,porta,Catalan,Sounds/cat_porta.mp3,2020-06-12_20h49.37.894,TranslationElicitation_eng-prolific,3.2.4,Win32,60,5cad1eef8ed53d00180d2532,4.296999931,1,0,81,66,1,80
,,,,,,,,,,,,,,,,,,,,,,,,,,,,,,,,,,,,,,,,,,,,,,,,,,,174,porta,Catalan,Sounds/cat_porta.mp3,2020-06-12_20h49.37.894,TranslationElicitation_eng-prolific,3.2.4,Win32,60,5cad1eef8ed53d00180d2532,,1,0,81,66,1,80
,,,,,,,,,,,,,,,,,,,,,,,,,,,,,,,,,,,,,,,,,b,7.959000111,B,FALSE,,,,,,,138,galeta,Catalan,Sounds/cat_galeta.mp3,2020-06-12_20h49.37.894,TranslationElicitation_eng-prolific,3.2.4,Win32,60,5cad1eef8ed53d00180d2532,,1,0,81,32,1,80
,,,,,,,,,,,,,,,,,,,,,,,,,,,,,,,,,,,,,,,,,r,8.223999977,BR,FALSE,,,,,,,138,galeta,Catalan,Sounds/cat_galeta.mp3,2020-06-12_20h49.37.894,TranslationElicitation_eng-prolific,3.2.4,Win32,60,5cad1eef8ed53d00180d2532,,1,0,81,32,1,80
,,,,,,,,,,,,,,,,,,,,,,,,,,,,,,,,,,,,,,,,,e,8.506000042,BRE,FALSE,,,,,,,138,galeta,Catalan,Sounds/cat_galeta.mp3,2020-06-12_20h49.37.894,TranslationElicitation_eng-prolific,3.2.4,Win32,60,5cad1eef8ed53d00180d2532,,1,0,81,32,1,80
,,,,,,,,,,,,,,,,,,,,,,,,,,,,,,,,,,,,,,,,,a,8.825999975,BREA,FALSE,,,,,,,138,galeta,Catalan,Sounds/cat_galeta.mp3,2020-06-12_20h49.37.894,TranslationElicitation_eng-prolific,3.2.4,Win32,60,5cad1eef8ed53d00180d2532,,1,0,81,32,1,80
,,,,,,,,,,,,,,,,,,,,,,,,,,,,,,,,,,,,,,,,,d,9.055000067,BREAD,FALSE,,,,,,,138,galeta,Catalan,Sounds/cat_galeta.mp3,2020-06-12_20h49.37.894,TranslationElicitation_eng-prolific,3.2.4,Win32,60,5cad1eef8ed53d00180d2532,,1,0,81,32,1,80
,,,,,,,,,,,,,,,,,,,,,,,,,,,,,,,,,,,,,,,,,return,9.403000116,BREAD,FALSE,,,,,,,138,galeta,Catalan,Sounds/cat_galeta.mp3,2020-06-12_20h49.37.894,TranslationElicitation_eng-prolific,3.2.4,Win32,60,5cad1eef8ed53d00180d2532,9.403000116,1,0,81,32,1,80
,,,,,,,,,,,,,,,,,,,,,,,,,,,,,,,,,,,,,,,,,,,,,,,,,,,138,galeta,Catalan,Sounds/cat_galeta.mp3,2020-06-12_20h49.37.894,TranslationElicitation_eng-prolific,3.2.4,Win32,60,5cad1eef8ed53d00180d2532,,1,0,81,32,1,80
,,,,,,,,,,,,,,,,,,,,,,,,,,,,,,,,,,,,,,,,,t,7.096999884,T,FALSE,,,,,,,140,gat,Catalan,Sounds/cat_gat.mp3,2020-06-12_20h49.37.894,TranslationElicitation_eng-prolific,3.2.4,Win32,60,5cad1eef8ed53d00180d2532,,1,0,81,34,1,80
,,,,,,,,,,,,,,,,,,,,,,,,,,,,,,,,,,,,,,,,,a,7.592999935,TA,FALSE,,,,,,,140,gat,Catalan,Sounds/cat_gat.mp3,2020-06-12_20h49.37.894,TranslationElicitation_eng-prolific,3.2.4,Win32,60,5cad1eef8ed53d00180d2532,,1,0,81,34,1,80
,,,,,,,,,,,,,,,,,,,,,,,,,,,,,,,,,,,,,,,,,p,7.875,TAP,FALSE,,,,,,,140,gat,Catalan,Sounds/cat_gat.mp3,2020-06-12_20h49.37.894,TranslationElicitation_eng-prolific,3.2.4,Win32,60,5cad1eef8ed53d00180d2532,,1,0,81,34,1,80
,,,,,,,,,,,,,,,,,,,,,,,,,,,,,,,,,,,,,,,,,return,8.587999821,TAP,FALSE,,,,,,,140,gat,Catalan,Sounds/cat_gat.mp3,2020-06-12_20h49.37.894,TranslationElicitation_eng-prolific,3.2.4,Win32,60,5cad1eef8ed53d00180d2532,8.587999821,1,0,81,34,1,80
,,,,,,,,,,,,,,,,,,,,,,,,,,,,,,,,,,,,,,,,,,,,,,,,,,,140,gat,Catalan,Sounds/cat_gat.mp3,2020-06-12_20h49.37.894,TranslationElicitation_eng-prolific,3.2.4,Win32,60,5cad1eef8ed53d00180d2532,,1,0,81,34,1,80
,,,,,,,,,,,,,,,,,,,,,,,,,,,,,,,,,,,,,,,,,h,6.964999914,H,FALSE,,,,,,,160,orella,Catalan,Sounds/cat_orella.mp3,2020-06-12_20h49.37.894,TranslationElicitation_eng-prolific,3.2.4,Win32,60,5cad1eef8ed53d00180d2532,,1,0,81,52,1,80
,,,,,,,,,,,,,,,,,,,,,,,,,,,,,,,,,,,,,,,,,e,7.164000034,HE,FALSE,,,,,,,160,orella,Catalan,Sounds/cat_orella.mp3,2020-06-12_20h49.37.894,TranslationElicitation_eng-prolific,3.2.4,Win32,60,5cad1eef8ed53d00180d2532,,1,0,81,52,1,80
,,,,,,,,,,,,,,,,,,,,,,,,,,,,,,,,,,,,,,,,,a,7.379999876,HEA,FALSE,,,,,,,160,orella,Catalan,Sounds/cat_orella.mp3,2020-06-12_20h49.37.894,TranslationElicitation_eng-prolific,3.2.4,Win32,60,5cad1eef8ed53d00180d2532,,1,0,81,52,1,80
,,,,,,,,,,,,,,,,,,,,,,,,,,,,,,,,,,,,,,,,,r,7.613999844,HEAR,FALSE,,,,,,,160,orella,Catalan,Sounds/cat_orella.mp3,2020-06-12_20h49.37.894,TranslationElicitation_eng-prolific,3.2.4,Win32,60,5cad1eef8ed53d00180d2532,,1,0,81,52,1,80
,,,,,,,,,,,,,,,,,,,,,,,,,,,,,,,,,,,,,,,,,i,7.843999863,HEARI,FALSE,,,,,,,160,orella,Catalan,Sounds/cat_orella.mp3,2020-06-12_20h49.37.894,TranslationElicitation_eng-prolific,3.2.4,Win32,60,5cad1eef8ed53d00180d2532,,1,0,81,52,1,80
,,,,,,,,,,,,,,,,,,,,,,,,,,,,,,,,,,,,,,,,,n,8.075999975,HEARIN,FALSE,,,,,,,160,orella,Catalan,Sounds/cat_orella.mp3,2020-06-12_20h49.37.894,TranslationElicitation_eng-prolific,3.2.4,Win32,60,5cad1eef8ed53d00180d2532,,1,0,81,52,1,80
,,,,,,,,,,,,,,,,,,,,,,,,,,,,,,,,,,,,,,,,,g,8.210000038,HEARING,FALSE,,,,,,,160,orella,Catalan,Sounds/cat_orella.mp3,2020-06-12_20h49.37.894,TranslationElicitation_eng-prolific,3.2.4,Win32,60,5cad1eef8ed53d00180d2532,,1,0,81,52,1,80
,,,,,,,,,,,,,,,,,,,,,,,,,,,,,,,,,,,,,,,,,return,8.705999851,HEARING,FALSE,,,,,,,160,orella,Catalan,Sounds/cat_orella.mp3,2020-06-12_20h49.37.894,TranslationElicitation_eng-prolific,3.2.4,Win32,60,5cad1eef8ed53d00180d2532,8.705999851,1,0,81,52,1,80
,,,,,,,,,,,,,,,,,,,,,,,,,,,,,,,,,,,,,,,,,,,,,,,,,,,160,orella,Catalan,Sounds/cat_orella.mp3,2020-06-12_20h49.37.894,TranslationElicitation_eng-prolific,3.2.4,Win32,60,5cad1eef8ed53d00180d2532,,1,0,81,52,1,80
,,,,,,,,,,,,,,,,,,,,,,,,,,,,,,,,,,,,,,,,,p,2.338000059,P,FALSE,,,,,,,167,pingui,Catalan,Sounds/cat_pingui.mp3,2020-06-12_20h49.37.894,TranslationElicitation_eng-prolific,3.2.4,Win32,60,5cad1eef8ed53d00180d2532,,1,0,81,59,1,80
,,,,,,,,,,,,,,,,,,,,,,,,,,,,,,,,,,,,,,,,,e,2.569000006,PE,FALSE,,,,,,,167,pingui,Catalan,Sounds/cat_pingui.mp3,2020-06-12_20h49.37.894,TranslationElicitation_eng-prolific,3.2.4,Win32,60,5cad1eef8ed53d00180d2532,,1,0,81,59,1,80
,,,,,,,,,,,,,,,,,,,,,,,,,,,,,,,,,,,,,,,,,n,2.801000118,PEN,FALSE,,,,,,,167,pingui,Catalan,Sounds/cat_pingui.mp3,2020-06-12_20h49.37.894,TranslationElicitation_eng-prolific,3.2.4,Win32,60,5cad1eef8ed53d00180d2532,,1,0,81,59,1,80
,,,,,,,,,,,,,,,,,,,,,,,,,,,,,,,,,,,,,,,,,g,3.032999992,PENG,FALSE,,,,,,,167,pingui,Catalan,Sounds/cat_pingui.mp3,2020-06-12_20h49.37.894,TranslationElicitation_eng-prolific,3.2.4,Win32,60,5cad1eef8ed53d00180d2532,,1,0,81,59,1,80
,,,,,,,,,,,,,,,,,,,,,,,,,,,,,,,,,,,,,,,,,u,3.117000103,PENGU,FALSE,,,,,,,167,pingui,Catalan,Sounds/cat_pingui.mp3,2020-06-12_20h49.37.894,TranslationElicitation_eng-prolific,3.2.4,Win32,60,5cad1eef8ed53d00180d2532,,1,0,81,59,1,80
,,,,,,,,,,,,,,,,,,,,,,,,,,,,,,,,,,,,,,,,,i,3.315000057,PENGUI,FALSE,,,,,,,167,pingui,Catalan,Sounds/cat_pingui.mp3,2020-06-12_20h49.37.894,TranslationElicitation_eng-prolific,3.2.4,Win32,60,5cad1eef8ed53d00180d2532,,1,0,81,59,1,80
,,,,,,,,,,,,,,,,,,,,,,,,,,,,,,,,,,,,,,,,,n,3.48300004,PENGUIN,FALSE,,,,,,,167,pingui,Catalan,Sounds/cat_pingui.mp3,2020-06-12_20h49.37.894,TranslationElicitation_eng-prolific,3.2.4,Win32,60,5cad1eef8ed53d00180d2532,,1,0,81,59,1,80
,,,,,,,,,,,,,,,,,,,,,,,,,,,,,,,,,,,,,,,,,return,3.878999949,PENGUIN,FALSE,,,,,,,167,pingui,Catalan,Sounds/cat_pingui.mp3,2020-06-12_20h49.37.894,TranslationElicitation_eng-prolific,3.2.4,Win32,60,5cad1eef8ed53d00180d2532,3.878999949,1,0,81,59,1,80
,,,,,,,,,,,,,,,,,,,,,,,,,,,,,,,,,,,,,,,,,,,,,,,,,,,167,pingui,Catalan,Sounds/cat_pingui.mp3,2020-06-12_20h49.37.894,TranslationElicitation_eng-prolific,3.2.4,Win32,60,5cad1eef8ed53d00180d2532,,1,0,81,59,1,80
,,,,,,,,,,,,,,,,,,,,,,,,,,,,,,,,,,,,,,,,,p,2.287999868,P,FALSE,,,,,,,172,poma,Catalan,Sounds/cat_poma.mp3,2020-06-12_20h49.37.894,TranslationElicitation_eng-prolific,3.2.4,Win32,60,5cad1eef8ed53d00180d2532,,1,0,81,64,1,80
,,,,,,,,,,,,,,,,,,,,,,,,,,,,,,,,,,,,,,,,,u,2.569999933,PU,FALSE,,,,,,,172,poma,Catalan,Sounds/cat_poma.mp3,2020-06-12_20h49.37.894,TranslationElicitation_eng-prolific,3.2.4,Win32,60,5cad1eef8ed53d00180d2532,,1,0,81,64,1,80
,,,,,,,,,,,,,,,,,,,,,,,,,,,,,,,,,,,,,,,,,m,2.836999893,PUM,FALSE,,,,,,,172,poma,Catalan,Sounds/cat_poma.mp3,2020-06-12_20h49.37.894,TranslationElicitation_eng-prolific,3.2.4,Win32,60,5cad1eef8ed53d00180d2532,,1,0,81,64,1,80
,,,,,,,,,,,,,,,,,,,,,,,,,,,,,,,,,,,,,,,,,a,3.066999912,PUMA,FALSE,,,,,,,172,poma,Catalan,Sounds/cat_poma.mp3,2020-06-12_20h49.37.894,TranslationElicitation_eng-prolific,3.2.4,Win32,60,5cad1eef8ed53d00180d2532,,1,0,81,64,1,80
,,,,,,,,,,,,,,,,,,,,,,,,,,,,,,,,,,,,,,,,,return,3.796999931,PUMA,FALSE,,,,,,,172,poma,Catalan,Sounds/cat_poma.mp3,2020-06-12_20h49.37.894,TranslationElicitation_eng-prolific,3.2.4,Win32,60,5cad1eef8ed53d00180d2532,3.796999931,1,0,81,64,1,80
,,,,,,,,,,,,,,,,,,,,,,,,,,,,,,,,,,,,,,,,,,,,,,,,,,,172,poma,Catalan,Sounds/cat_poma.mp3,2020-06-12_20h49.37.894,TranslationElicitation_eng-prolific,3.2.4,Win32,60,5cad1eef8ed53d00180d2532,,1,0,81,64,1,80
,,,,,,,,,,,,,,,,,,,,,,,,,,,,,,,,,,,,,,,,,g,13.09800005,G,FALSE,,,,,,,180,tisores,Catalan,Sounds/cat_tisores.mp3,2020-06-12_20h49.37.894,TranslationElicitation_eng-prolific,3.2.4,Win32,60,5cad1eef8ed53d00180d2532,,1,0,81,71,1,80
,,,,,,,,,,,,,,,,,,,,,,,,,,,,,,,,,,,,,,,,,r,13.33000016,GR,FALSE,,,,,,,180,tisores,Catalan,Sounds/cat_tisores.mp3,2020-06-12_20h49.37.894,TranslationElicitation_eng-prolific,3.2.4,Win32,60,5cad1eef8ed53d00180d2532,,1,0,81,71,1,80
,,,,,,,,,,,,,,,,,,,,,,,,,,,,,,,,,,,,,,,,,a,13.579,GRA,FALSE,,,,,,,180,tisores,Catalan,Sounds/cat_tisores.mp3,2020-06-12_20h49.37.894,TranslationElicitation_eng-prolific,3.2.4,Win32,60,5cad1eef8ed53d00180d2532,,1,0,81,71,1,80
,,,,,,,,,,,,,,,,,,,,,,,,,,,,,,,,,,,,,,,,,p,13.69500017,GRAP,FALSE,,,,,,,180,tisores,Catalan,Sounds/cat_tisores.mp3,2020-06-12_20h49.37.894,TranslationElicitation_eng-prolific,3.2.4,Win32,60,5cad1eef8ed53d00180d2532,,1,0,81,71,1,80
,,,,,,,,,,,,,,,,,,,,,,,,,,,,,,,,,,,,,,,,,e,13.87700009,GRAPE,FALSE,,,,,,,180,tisores,Catalan,Sounds/cat_tisores.mp3,2020-06-12_20h49.37.894,TranslationElicitation_eng-prolific,3.2.4,Win32,60,5cad1eef8ed53d00180d2532,,1,0,81,71,1,80
,,,,,,,,,,,,,,,,,,,,,,,,,,,,,,,,,,,,,,,,,s,14.08000016,GRAPES,FALSE,,,,,,,180,tisores,Catalan,Sounds/cat_tisores.mp3,2020-06-12_20h49.37.894,TranslationElicitation_eng-prolific,3.2.4,Win32,60,5cad1eef8ed53d00180d2532,,1,0,81,71,1,80
,,,,,,,,,,,,,,,,,,,,,,,,,,,,,,,,,,,,,,,,,return,14.19300008,GRAPES,FALSE,,,,,,,180,tisores,Catalan,Sounds/cat_tisores.mp3,2020-06-12_20h49.37.894,TranslationElicitation_eng-prolific,3.2.4,Win32,60,5cad1eef8ed53d00180d2532,14.19300008,1,0,81,71,1,80
,,,,,,,,,,,,,,,,,,,,,,,,,,,,,,,,,,,,,,,,,,,,,,,,,,,180,tisores,Catalan,Sounds/cat_tisores.mp3,2020-06-12_20h49.37.894,TranslationElicitation_eng-prolific,3.2.4,Win32,60,5cad1eef8ed53d00180d2532,,1,0,81,71,1,80
,,,,,,,,,,,,,,,,,,,,,,,,,,,,,,,,,,,,,,,,,h,5.239000082,H,FALSE,,,,,,,176,samarreta,Catalan,Sounds/cat_samarreta.mp3,2020-06-12_20h49.37.894,TranslationElicitation_eng-prolific,3.2.4,Win32,60,5cad1eef8ed53d00180d2532,,1,0,81,68,1,80
,,,,,,,,,,,,,,,,,,,,,,,,,,,,,,,,,,,,,,,,,a,5.371999979,HA,FALSE,,,,,,,176,samarreta,Catalan,Sounds/cat_samarreta.mp3,2020-06-12_20h49.37.894,TranslationElicitation_eng-prolific,3.2.4,Win32,60,5cad1eef8ed53d00180d2532,,1,0,81,68,1,80
,,,,,,,,,,,,,,,,,,,,,,,,,,,,,,,,,,,,,,,,,t,5.571000099,HAT,FALSE,,,,,,,176,samarreta,Catalan,Sounds/cat_samarreta.mp3,2020-06-12_20h49.37.894,TranslationElicitation_eng-prolific,3.2.4,Win32,60,5cad1eef8ed53d00180d2532,,1,0,81,68,1,80
,,,,,,,,,,,,,,,,,,,,,,,,,,,,,,,,,,,,,,,,,return,6.002000093,HAT,FALSE,,,,,,,176,samarreta,Catalan,Sounds/cat_samarreta.mp3,2020-06-12_20h49.37.894,TranslationElicitation_eng-prolific,3.2.4,Win32,60,5cad1eef8ed53d00180d2532,6.002000093,1,0,81,68,1,80
,,,,,,,,,,,,,,,,,,,,,,,,,,,,,,,,,,,,,,,,,,,,,,,,,,,176,samarreta,Catalan,Sounds/cat_samarreta.mp3,2020-06-12_20h49.37.894,TranslationElicitation_eng-prolific,3.2.4,Win32,60,5cad1eef8ed53d00180d2532,,1,0,81,68,1,80
,,,,,,,,,,,,,,,,,,,,,,,,,,,,,,,,,,,,,,,,,m,2.055999994,M,FALSE,,,,,,,151,lluna,Catalan,Sounds/cat_lluna.mp3,2020-06-12_20h49.37.894,TranslationElicitation_eng-prolific,3.2.4,Win32,60,5cad1eef8ed53d00180d2532,,1,0,81,44,1,80
,,,,,,,,,,,,,,,,,,,,,,,,,,,,,,,,,,,,,,,,,o,2.255000114,MO,FALSE,,,,,,,151,lluna,Catalan,Sounds/cat_lluna.mp3,2020-06-12_20h49.37.894,TranslationElicitation_eng-prolific,3.2.4,Win32,60,5cad1eef8ed53d00180d2532,,1,0,81,44,1,80
,,,,,,,,,,,,,,,,,,,,,,,,,,,,,,,,,,,,,,,,,o,2.453999996,MOO,FALSE,,,,,,,151,lluna,Catalan,Sounds/cat_lluna.mp3,2020-06-12_20h49.37.894,TranslationElicitation_eng-prolific,3.2.4,Win32,60,5cad1eef8ed53d00180d2532,,1,0,81,44,1,80
,,,,,,,,,,,,,,,,,,,,,,,,,,,,,,,,,,,,,,,,,n,2.636000156,MOON,FALSE,,,,,,,151,lluna,Catalan,Sounds/cat_lluna.mp3,2020-06-12_20h49.37.894,TranslationElicitation_eng-prolific,3.2.4,Win32,60,5cad1eef8ed53d00180d2532,,1,0,81,44,1,80
,,,,,,,,,,,,,,,,,,,,,,,,,,,,,,,,,,,,,,,,,return,2.986000061,MOON,FALSE,,,,,,,151,lluna,Catalan,Sounds/cat_lluna.mp3,2020-06-12_20h49.37.894,TranslationElicitation_eng-prolific,3.2.4,Win32,60,5cad1eef8ed53d00180d2532,2.986000061,1,0,81,44,1,80
,,,,,,,,,,,,,,,,,,,,,,,,,,,,,,,,,,,,,,,,,,,,,,,,,,,151,lluna,Catalan,Sounds/cat_lluna.mp3,2020-06-12_20h49.37.894,TranslationElicitation_eng-prolific,3.2.4,Win32,60,5cad1eef8ed53d00180d2532,,1,0,81,44,1,80
,,,,,,,,,,,,,,,,,,,,,,,,,,,,,,,,,,,,,,,,,t,5.618999958,T,FALSE,,,,,,,120,cama,Catalan,Sounds/cat_cama.mp3,2020-06-12_20h49.37.894,TranslationElicitation_eng-prolific,3.2.4,Win32,60,5cad1eef8ed53d00180d2532,,1,0,81,15,1,80
,,,,,,,,,,,,,,,,,,,,,,,,,,,,,,,,,,,,,,,,,o,5.703000069,TO,FALSE,,,,,,,120,cama,Catalan,Sounds/cat_cama.mp3,2020-06-12_20h49.37.894,TranslationElicitation_eng-prolific,3.2.4,Win32,60,5cad1eef8ed53d00180d2532,,1,0,81,15,1,80
,,,,,,,,,,,,,,,,,,,,,,,,,,,,,,,,,,,,,,,,,p,6.36500001,TOP,FALSE,,,,,,,120,cama,Catalan,Sounds/cat_cama.mp3,2020-06-12_20h49.37.894,TranslationElicitation_eng-prolific,3.2.4,Win32,60,5cad1eef8ed53d00180d2532,,1,0,81,15,1,80
,,,,,,,,,,,,,,,,,,,,,,,,,,,,,,,,,,,,,,,,,return,6.630000114,TOP,FALSE,,,,,,,120,cama,Catalan,Sounds/cat_cama.mp3,2020-06-12_20h49.37.894,TranslationElicitation_eng-prolific,3.2.4,Win32,60,5cad1eef8ed53d00180d2532,6.630000114,1,0,81,15,1,80
,,,,,,,,,,,,,,,,,,,,,,,,,,,,,,,,,,,,,,,,,,,,,,,,,,,120,cama,Catalan,Sounds/cat_cama.mp3,2020-06-12_20h49.37.894,TranslationElicitation_eng-prolific,3.2.4,Win32,60,5cad1eef8ed53d00180d2532,,1,0,81,15,1,80
,,,,,,,,,,,,,,,,,,,,,,,,,,,,,,,,,,,,,,,,,b,6.085000038,B,FALSE,,,,,,,155,moneda,Catalan,Sounds/cat_moneda.mp3,2020-06-12_20h49.37.894,TranslationElicitation_eng-prolific,3.2.4,Win32,60,5cad1eef8ed53d00180d2532,,1,0,81,48,1,80
,,,,,,,,,,,,,,,,,,,,,,,,,,,,,,,,,,,,,,,,,e,6.217999935,BE,FALSE,,,,,,,155,moneda,Catalan,Sounds/cat_moneda.mp3,2020-06-12_20h49.37.894,TranslationElicitation_eng-prolific,3.2.4,Win32,60,5cad1eef8ed53d00180d2532,,1,0,81,48,1,80
,,,,,,,,,,,,,,,,,,,,,,,,,,,,,,,,,,,,,,,,,a,6.467000008,BEA,FALSE,,,,,,,155,moneda,Catalan,Sounds/cat_moneda.mp3,2020-06-12_20h49.37.894,TranslationElicitation_eng-prolific,3.2.4,Win32,60,5cad1eef8ed53d00180d2532,,1,0,81,48,1,80
,,,,,,,,,,,,,,,,,,,,,,,,,,,,,,,,,,,,,,,,,c,6.76699996,BEAC,FALSE,,,,,,,155,moneda,Catalan,Sounds/cat_moneda.mp3,2020-06-12_20h49.37.894,TranslationElicitation_eng-prolific,3.2.4,Win32,60,5cad1eef8ed53d00180d2532,,1,0,81,48,1,80
,,,,,,,,,,,,,,,,,,,,,,,,,,,,,,,,,,,,,,,,,h,6.947000027,BEACH,FALSE,,,,,,,155,moneda,Catalan,Sounds/cat_moneda.mp3,2020-06-12_20h49.37.894,TranslationElicitation_eng-prolific,3.2.4,Win32,60,5cad1eef8ed53d00180d2532,,1,0,81,48,1,80
,,,,,,,,,,,,,,,,,,,,,,,,,,,,,,,,,,,,,,,,,return,7.296000004,BEACH,FALSE,,,,,,,155,moneda,Catalan,Sounds/cat_moneda.mp3,2020-06-12_20h49.37.894,TranslationElicitation_eng-prolific,3.2.4,Win32,60,5cad1eef8ed53d00180d2532,7.296000004,1,0,81,48,1,80
,,,,,,,,,,,,,,,,,,,,,,,,,,,,,,,,,,,,,,,,,,,,,,,,,,,155,moneda,Catalan,Sounds/cat_moneda.mp3,2020-06-12_20h49.37.894,TranslationElicitation_eng-prolific,3.2.4,Win32,60,5cad1eef8ed53d00180d2532,,1,0,81,48,1,80
,,,,,,,,,,,,,,,,,,,,,,,,,,,,,,,,,,,,,,,,,b,3.679999828,B,FALSE,,,,,,,106,aixeta,Catalan,Sounds/cat_aixeta.mp3,2020-06-12_20h49.37.894,TranslationElicitation_eng-prolific,3.2.4,Win32,60,5cad1eef8ed53d00180d2532,,1,0,81,2,1,80
,,,,,,,,,,,,,,,,,,,,,,,,,,,,,,,,,,,,,,,,,u,3.911999941,BU,FALSE,,,,,,,106,aixeta,Catalan,Sounds/cat_aixeta.mp3,2020-06-12_20h49.37.894,TranslationElicitation_eng-prolific,3.2.4,Win32,60,5cad1eef8ed53d00180d2532,,1,0,81,2,1,80
,,,,,,,,,,,,,,,,,,,,,,,,,,,,,,,,,,,,,,,,,y,4.507999897,BUY,FALSE,,,,,,,106,aixeta,Catalan,Sounds/cat_aixeta.mp3,2020-06-12_20h49.37.894,TranslationElicitation_eng-prolific,3.2.4,Win32,60,5cad1eef8ed53d00180d2532,,1,0,81,2,1,80
,,,,,,,,,,,,,,,,,,,,,,,,,,,,,,,,,,,,,,,,,i,4.970999956,BUYI,FALSE,,,,,,,106,aixeta,Catalan,Sounds/cat_aixeta.mp3,2020-06-12_20h49.37.894,TranslationElicitation_eng-prolific,3.2.4,Win32,60,5cad1eef8ed53d00180d2532,,1,0,81,2,1,80
,,,,,,,,,,,,,,,,,,,,,,,,,,,,,,,,,,,,,,,,,n,5.186999798,BUYIN,FALSE,,,,,,,106,aixeta,Catalan,Sounds/cat_aixeta.mp3,2020-06-12_20h49.37.894,TranslationElicitation_eng-prolific,3.2.4,Win32,60,5cad1eef8ed53d00180d2532,,1,0,81,2,1,80
,,,,,,,,,,,,,,,,,,,,,,,,,,,,,,,,,,,,,,,,,g,5.319000006,BUYING,FALSE,,,,,,,106,aixeta,Catalan,Sounds/cat_aixeta.mp3,2020-06-12_20h49.37.894,TranslationElicitation_eng-prolific,3.2.4,Win32,60,5cad1eef8ed53d00180d2532,,1,0,81,2,1,80
,,,,,,,,,,,,,,,,,,,,,,,,,,,,,,,,,,,,,,,,,return,5.600999832,BUYING,FALSE,,,,,,,106,aixeta,Catalan,Sounds/cat_aixeta.mp3,2020-06-12_20h49.37.894,TranslationElicitation_eng-prolific,3.2.4,Win32,60,5cad1eef8ed53d00180d2532,5.600999832,1,0,81,2,1,80
,,,,,,,,,,,,,,,,,,,,,,,,,,,,,,,,,,,,,,,,,,,,,,,,,,,106,aixeta,Catalan,Sounds/cat_aixeta.mp3,2020-06-12_20h49.37.894,TranslationElicitation_eng-prolific,3.2.4,Win32,60,5cad1eef8ed53d00180d2532,,1,0,81,2,1,80
,,,,,,,,,,,,,,,,,,,,,,,,,,,,,,,,,,,,,,,,,s,4.85800004,S,FALSE,,,,,,,187,vaixell,Catalan,Sounds/cat_vaixell.mp3,2020-06-12_20h49.37.894,TranslationElicitation_eng-prolific,3.2.4,Win32,60,5cad1eef8ed53d00180d2532,,1,0,81,78,1,80
,,,,,,,,,,,,,,,,,,,,,,,,,,,,,,,,,,,,,,,,,h,4.973999977,SH,FALSE,,,,,,,187,vaixell,Catalan,Sounds/cat_vaixell.mp3,2020-06-12_20h49.37.894,TranslationElicitation_eng-prolific,3.2.4,Win32,60,5cad1eef8ed53d00180d2532,,1,0,81,78,1,80
,,,,,,,,,,,,,,,,,,,,,,,,,,,,,,,,,,,,,,,,,e,5.139999866,SHE,FALSE,,,,,,,187,vaixell,Catalan,Sounds/cat_vaixell.mp3,2020-06-12_20h49.37.894,TranslationElicitation_eng-prolific,3.2.4,Win32,60,5cad1eef8ed53d00180d2532,,1,0,81,78,1,80
,,,,,,,,,,,,,,,,,,,,,,,,,,,,,,,,,,,,,,,,,l,5.322000027,SHEL,FALSE,,,,,,,187,vaixell,Catalan,Sounds/cat_vaixell.mp3,2020-06-12_20h49.37.894,TranslationElicitation_eng-prolific,3.2.4,Win32,60,5cad1eef8ed53d00180d2532,,1,0,81,78,1,80
,,,,,,,,,,,,,,,,,,,,,,,,,,,,,,,,,,,,,,,,,l,5.524999857,SHELL,FALSE,,,,,,,187,vaixell,Catalan,Sounds/cat_vaixell.mp3,2020-06-12_20h49.37.894,TranslationElicitation_eng-prolific,3.2.4,Win32,60,5cad1eef8ed53d00180d2532,,1,0,81,78,1,80
,,,,,,,,,,,,,,,,,,,,,,,,,,,,,,,,,,,,,,,,,return,5.819000006,SHELL,FALSE,,,,,,,187,vaixell,Catalan,Sounds/cat_vaixell.mp3,2020-06-12_20h49.37.894,TranslationElicitation_eng-prolific,3.2.4,Win32,60,5cad1eef8ed53d00180d2532,5.819000006,1,0,81,78,1,80
,,,,,,,,,,,,,,,,,,,,,,,,,,,,,,,,,,,,,,,,,,,,,,,,,,,187,vaixell,Catalan,Sounds/cat_vaixell.mp3,2020-06-12_20h49.37.894,TranslationElicitation_eng-prolific,3.2.4,Win32,60,5cad1eef8ed53d00180d2532,,1,0,81,78,1,80
,,,,,,,,,,,,,,,,,,,,,,,,,,,,,,,,,,,,,,,,,a,2.985000134,A,FALSE,,,,,,,161,ovella,Catalan,Sounds/cat_ovella.mp3,2020-06-12_20h49.37.894,TranslationElicitation_eng-prolific,3.2.4,Win32,60,5cad1eef8ed53d00180d2532,,1,0,81,53,1,80
,,,,,,,,,,,,,,,,,,,,,,,,,,,,,,,,,,,,,,,,,u,3.118000031,AU,FALSE,,,,,,,161,ovella,Catalan,Sounds/cat_ovella.mp3,2020-06-12_20h49.37.894,TranslationElicitation_eng-prolific,3.2.4,Win32,60,5cad1eef8ed53d00180d2532,,1,0,81,53,1,80
,,,,,,,,,,,,,,,,,,,,,,,,,,,,,,,,,,,,,,,,,n,3.318000078,AUN,FALSE,,,,,,,161,ovella,Catalan,Sounds/cat_ovella.mp3,2020-06-12_20h49.37.894,TranslationElicitation_eng-prolific,3.2.4,Win32,60,5cad1eef8ed53d00180d2532,,1,0,81,53,1,80
,,,,,,,,,,,,,,,,,,,,,,,,,,,,,,,,,,,,,,,,,t,3.44900012,AUNT,FALSE,,,,,,,161,ovella,Catalan,Sounds/cat_ovella.mp3,2020-06-12_20h49.37.894,TranslationElicitation_eng-prolific,3.2.4,Win32,60,5cad1eef8ed53d00180d2532,,1,0,81,53,1,80
,,,,,,,,,,,,,,,,,,,,,,,,,,,,,,,,,,,,,,,,,return,3.71600008,AUNT,FALSE,,,,,,,161,ovella,Catalan,Sounds/cat_ovella.mp3,2020-06-12_20h49.37.894,TranslationElicitation_eng-prolific,3.2.4,Win32,60,5cad1eef8ed53d00180d2532,3.71600008,1,0,81,53,1,80
,,,,,,,,,,,,,,,,,,,,,,,,,,,,,,,,,,,,,,,,,,,,,,,,,,,161,ovella,Catalan,Sounds/cat_ovella.mp3,2020-06-12_20h49.37.894,TranslationElicitation_eng-prolific,3.2.4,Win32,60,5cad1eef8ed53d00180d2532,,1,0,81,53,1,80
,,,,,,,,,,,,,,,,,,,,,,,,,,,,,,,,,,,,,,,,,d,4.743000031,D,FALSE,,,,,,,113,boca,Catalan,Sounds/cat_boca.mp3,2020-06-12_20h49.37.894,TranslationElicitation_eng-prolific,3.2.4,Win32,60,5cad1eef8ed53d00180d2532,,1,0,81,8,1,80
,,,,,,,,,,,,,,,,,,,,,,,,,,,,,,,,,,,,,,,,,i,4.892999887,DI,FALSE,,,,,,,113,boca,Catalan,Sounds/cat_boca.mp3,2020-06-12_20h49.37.894,TranslationElicitation_eng-prolific,3.2.4,Win32,60,5cad1eef8ed53d00180d2532,,1,0,81,8,1,80
,,,,,,,,,,,,,,,,,,,,,,,,,,,,,,,,,,,,,,,,,r,5.073999882,DIR,FALSE,,,,,,,113,boca,Catalan,Sounds/cat_boca.mp3,2020-06-12_20h49.37.894,TranslationElicitation_eng-prolific,3.2.4,Win32,60,5cad1eef8ed53d00180d2532,,1,0,81,8,1,80
,,,,,,,,,,,,,,,,,,,,,,,,,,,,,,,,,,,,,,,,,t,5.292000055,DIRT,FALSE,,,,,,,113,boca,Catalan,Sounds/cat_boca.mp3,2020-06-12_20h49.37.894,TranslationElicitation_eng-prolific,3.2.4,Win32,60,5cad1eef8ed53d00180d2532,,1,0,81,8,1,80
,,,,,,,,,,,,,,,,,,,,,,,,,,,,,,,,,,,,,,,,,return,5.487999916,DIRT,FALSE,,,,,,,113,boca,Catalan,Sounds/cat_boca.mp3,2020-06-12_20h49.37.894,TranslationElicitation_eng-prolific,3.2.4,Win32,60,5cad1eef8ed53d00180d2532,5.487999916,1,0,81,8,1,80
,,,,,,,,,,,,,,,,,,,,,,,,,,,,,,,,,,,,,,,,,,,,,,,,,,,113,boca,Catalan,Sounds/cat_boca.mp3,2020-06-12_20h49.37.894,TranslationElicitation_eng-prolific,3.2.4,Win32,60,5cad1eef8ed53d00180d2532,,1,0,81,8,1,80
,,,,,,,,,,,,,,,,,,,,,,,,,,,,,,,,,,,,,,,,,b,2.336999893,B,FALSE,,,,,,,118,bou,Catalan,Sounds/cat_bou.mp3,2020-06-12_20h49.37.894,TranslationElicitation_eng-prolific,3.2.4,Win32,60,5cad1eef8ed53d00180d2532,,1,0,81,13,1,80
,,,,,,,,,,,,,,,,,,,,,,,,,,,,,,,,,,,,,,,,,o,2.552999973,BO,FALSE,,,,,,,118,bou,Catalan,Sounds/cat_bou.mp3,2020-06-12_20h49.37.894,TranslationElicitation_eng-prolific,3.2.4,Win32,60,5cad1eef8ed53d00180d2532,,1,0,81,13,1,80
,,,,,,,,,,,,,,,,,,,,,,,,,,,,,,,,,,,,,,,,,w,3.017999887,BOW,FALSE,,,,,,,118,bou,Catalan,Sounds/cat_bou.mp3,2020-06-12_20h49.37.894,TranslationElicitation_eng-prolific,3.2.4,Win32,60,5cad1eef8ed53d00180d2532,,1,0,81,13,1,80
,,,,,,,,,,,,,,,,,,,,,,,,,,,,,,,,,,,,,,,,,l,3.220999956,BOWL,FALSE,,,,,,,118,bou,Catalan,Sounds/cat_bou.mp3,2020-06-12_20h49.37.894,TranslationElicitation_eng-prolific,3.2.4,Win32,60,5cad1eef8ed53d00180d2532,,1,0,81,13,1,80
,,,,,,,,,,,,,,,,,,,,,,,,,,,,,,,,,,,,,,,,,return,4.062999964,BOWL,FALSE,,,,,,,118,bou,Catalan,Sounds/cat_bou.mp3,2020-06-12_20h49.37.894,TranslationElicitation_eng-prolific,3.2.4,Win32,60,5cad1eef8ed53d00180d2532,4.062999964,1,0,81,13,1,80
,,,,,,,,,,,,,,,,,,,,,,,,,,,,,,,,,,,,,,,,,,,,,,,,,,,118,bou,Catalan,Sounds/cat_bou.mp3,2020-06-12_20h49.37.894,TranslationElicitation_eng-prolific,3.2.4,Win32,60,5cad1eef8ed53d00180d2532,,1,0,81,13,1,80
,,,,,,,,,,,,,,,,,,,,,,,,,,,,,,,,,,,,,,,,,t,5.055999994,T,FALSE,,,,,,,115,bolet,Catalan,Sounds/cat_bolet.mp3,2020-06-12_20h49.37.894,TranslationElicitation_eng-prolific,3.2.4,Win32,60,5cad1eef8ed53d00180d2532,,1,0,81,10,1,80
,,,,,,,,,,,,,,,,,,,,,,,,,,,,,,,,,,,,,,,,,i,5.221999884,TI,FALSE,,,,,,,115,bolet,Catalan,Sounds/cat_bolet.mp3,2020-06-12_20h49.37.894,TranslationElicitation_eng-prolific,3.2.4,Win32,60,5cad1eef8ed53d00180d2532,,1,0,81,10,1,80
,,,,,,,,,,,,,,,,,,,,,,,,,,,,,,,,,,,,,,,,,c,5.388000011,TIC,FALSE,,,,,,,115,bolet,Catalan,Sounds/cat_bolet.mp3,2020-06-12_20h49.37.894,TranslationElicitation_eng-prolific,3.2.4,Win32,60,5cad1eef8ed53d00180d2532,,1,0,81,10,1,80
,,,,,,,,,,,,,,,,,,,,,,,,,,,,,,,,,,,,,,,,,k,5.553999901,TICK,FALSE,,,,,,,115,bolet,Catalan,Sounds/cat_bolet.mp3,2020-06-12_20h49.37.894,TranslationElicitation_eng-prolific,3.2.4,Win32,60,5cad1eef8ed53d00180d2532,,1,0,81,10,1,80
,,,,,,,,,,,,,,,,,,,,,,,,,,,,,,,,,,,,,,,,,e,5.670000076,TICKE,FALSE,,,,,,,115,bolet,Catalan,Sounds/cat_bolet.mp3,2020-06-12_20h49.37.894,TranslationElicitation_eng-prolific,3.2.4,Win32,60,5cad1eef8ed53d00180d2532,,1,0,81,10,1,80
,,,,,,,,,,,,,,,,,,,,,,,,,,,,,,,,,,,,,,,,,t,5.917999983,TICKET,FALSE,,,,,,,115,bolet,Catalan,Sounds/cat_bolet.mp3,2020-06-12_20h49.37.894,TranslationElicitation_eng-prolific,3.2.4,Win32,60,5cad1eef8ed53d00180d2532,,1,0,81,10,1,80
,,,,,,,,,,,,,,,,,,,,,,,,,,,,,,,,,,,,,,,,,return,6.299999952,TICKET,FALSE,,,,,,,115,bolet,Catalan,Sounds/cat_bolet.mp3,2020-06-12_20h49.37.894,TranslationElicitation_eng-prolific,3.2.4,Win32,60,5cad1eef8ed53d00180d2532,6.299999952,1,0,81,10,1,80
,,,,,,,,,,,,,,,,,,,,,,,,,,,,,,,,,,,,,,,,,,,,,,,,,,,115,bolet,Catalan,Sounds/cat_bolet.mp3,2020-06-12_20h49.37.894,TranslationElicitation_eng-prolific,3.2.4,Win32,60,5cad1eef8ed53d00180d2532,,1,0,81,10,1,80
,,,,,,,,,,,,,,,,,,,,,,,,,,,,,,,,,,,,,,,,,w,6.730999947,W,FALSE,,,,,,,105,aigua,Catalan,Sounds/cat_aigua.mp3,2020-06-12_20h49.37.894,TranslationElicitation_eng-prolific,3.2.4,Win32,60,5cad1eef8ed53d00180d2532,,1,0,81,1,1,80
,,,,,,,,,,,,,,,,,,,,,,,,,,,,,,,,,,,,,,,,,a,6.962999821,WA,FALSE,,,,,,,105,aigua,Catalan,Sounds/cat_aigua.mp3,2020-06-12_20h49.37.894,TranslationElicitation_eng-prolific,3.2.4,Win32,60,5cad1eef8ed53d00180d2532,,1,0,81,1,1,80
,,,,,,,,,,,,,,,,,,,,,,,,,,,,,,,,,,,,,,,,,t,7.211999893,WAT,FALSE,,,,,,,105,aigua,Catalan,Sounds/cat_aigua.mp3,2020-06-12_20h49.37.894,TranslationElicitation_eng-prolific,3.2.4,Win32,60,5cad1eef8ed53d00180d2532,,1,0,81,1,1,80
,,,,,,,,,,,,,,,,,,,,,,,,,,,,,,,,,,,,,,,,,e,7.31099987,WATE,FALSE,,,,,,,105,aigua,Catalan,Sounds/cat_aigua.mp3,2020-06-12_20h49.37.894,TranslationElicitation_eng-prolific,3.2.4,Win32,60,5cad1eef8ed53d00180d2532,,1,0,81,1,1,80
,,,,,,,,,,,,,,,,,,,,,,,,,,,,,,,,,,,,,,,,,r,7.542999983,WATER,FALSE,,,,,,,105,aigua,Catalan,Sounds/cat_aigua.mp3,2020-06-12_20h49.37.894,TranslationElicitation_eng-prolific,3.2.4,Win32,60,5cad1eef8ed53d00180d2532,,1,0,81,1,1,80
,,,,,,,,,,,,,,,,,,,,,,,,,,,,,,,,,,,,,,,,,f,7.559999943,WATERF,FALSE,,,,,,,105,aigua,Catalan,Sounds/cat_aigua.mp3,2020-06-12_20h49.37.894,TranslationElicitation_eng-prolific,3.2.4,Win32,60,5cad1eef8ed53d00180d2532,,1,0,81,1,1,80
,,,,,,,,,,,,,,,,,,,,,,,,,,,,,,,,,,,,,,,,,return,7.630999804,WATERF,FALSE,,,,,,,105,aigua,Catalan,Sounds/cat_aigua.mp3,2020-06-12_20h49.37.894,TranslationElicitation_eng-prolific,3.2.4,Win32,60,5cad1eef8ed53d00180d2532,7.630999804,1,0,81,1,1,80
,,,,,,,,,,,,,,,,,,,,,,,,,,,,,,,,,,,,,,,,,,,,,,,,,,,105,aigua,Catalan,Sounds/cat_aigua.mp3,2020-06-12_20h49.37.894,TranslationElicitation_eng-prolific,3.2.4,Win32,60,5cad1eef8ed53d00180d2532,,1,0,81,1,1,80
,,,,,,,,,,,,,,,,,,,,,,,,,,,,,,,,,,,,,,,,,s,3.994999886,S,FALSE,,,,,,,175,raspall,Catalan,Sounds/cat_raspall.mp3,2020-06-12_20h49.37.894,TranslationElicitation_eng-prolific,3.2.4,Win32,60,5cad1eef8ed53d00180d2532,,1,0,81,67,1,80
,,,,,,,,,,,,,,,,,,,,,,,,,,,,,,,,,,,,,,,,,i,4.260999918,SI,FALSE,,,,,,,175,raspall,Catalan,Sounds/cat_raspall.mp3,2020-06-12_20h49.37.894,TranslationElicitation_eng-prolific,3.2.4,Win32,60,5cad1eef8ed53d00180d2532,,1,0,81,67,1,80
,,,,,,,,,,,,,,,,,,,,,,,,,,,,,,,,,,,,,,,,,n,4.513000011,SIN,FALSE,,,,,,,175,raspall,Catalan,Sounds/cat_raspall.mp3,2020-06-12_20h49.37.894,TranslationElicitation_eng-prolific,3.2.4,Win32,60,5cad1eef8ed53d00180d2532,,1,0,81,67,1,80
,,,,,,,,,,,,,,,,,,,,,,,,,,,,,,,,,,,,,,,,,g,4.708999872,SING,FALSE,,,,,,,175,raspall,Catalan,Sounds/cat_raspall.mp3,2020-06-12_20h49.37.894,TranslationElicitation_eng-prolific,3.2.4,Win32,60,5cad1eef8ed53d00180d2532,,1,0,81,67,1,80
,,,,,,,,,,,,,,,,,,,,,,,,,,,,,,,,,,,,,,,,,return,5.321999788,SING,FALSE,,,,,,,175,raspall,Catalan,Sounds/cat_raspall.mp3,2020-06-12_20h49.37.894,TranslationElicitation_eng-prolific,3.2.4,Win32,60,5cad1eef8ed53d00180d2532,5.321999788,1,0,81,67,1,80
,,,,,,,,,,,,,,,,,,,,,,,,,,,,,,,,,,,,,,,,,,,,,,,,,,,175,raspall,Catalan,Sounds/cat_raspall.mp3,2020-06-12_20h49.37.894,TranslationElicitation_eng-prolific,3.2.4,Win32,60,5cad1eef8ed53d00180d2532,,1,0,81,67,1,80
,,,,,,,,,,,,,,,,,,,,,,,,,,,,,,,,,,,,,,,,,u,3.61500001,U,FALSE,,,,,,,108,ampolla,Catalan,Sounds/cat_ampolla.mp3,2020-06-12_20h49.37.894,TranslationElicitation_eng-prolific,3.2.4,Win32,60,5cad1eef8ed53d00180d2532,,1,0,81,4,1,80
,,,,,,,,,,,,,,,,,,,,,,,,,,,,,,,,,,,,,,,,,m,3.862999916,UM,FALSE,,,,,,,108,ampolla,Catalan,Sounds/cat_ampolla.mp3,2020-06-12_20h49.37.894,TranslationElicitation_eng-prolific,3.2.4,Win32,60,5cad1eef8ed53d00180d2532,,1,0,81,4,1,80
,,,,,,,,,,,,,,,,,,,,,,,,,,,,,,,,,,,,,,,,,b,4.11500001,UMB,FALSE,,,,,,,108,ampolla,Catalan,Sounds/cat_ampolla.mp3,2020-06-12_20h49.37.894,TranslationElicitation_eng-prolific,3.2.4,Win32,60,5cad1eef8ed53d00180d2532,,1,0,81,4,1,80
,,,,,,,,,,,,,,,,,,,,,,,,,,,,,,,,,,,,,,,,,r,4.443000078,UMBR,FALSE,,,,,,,108,ampolla,Catalan,Sounds/cat_ampolla.mp3,2020-06-12_20h49.37.894,TranslationElicitation_eng-prolific,3.2.4,Win32,60,5cad1eef8ed53d00180d2532,,1,0,81,4,1,80
,,,,,,,,,,,,,,,,,,,,,,,,,,,,,,,,,,,,,,,,,e,4.743000031,UMBRE,FALSE,,,,,,,108,ampolla,Catalan,Sounds/cat_ampolla.mp3,2020-06-12_20h49.37.894,TranslationElicitation_eng-prolific,3.2.4,Win32,60,5cad1eef8ed53d00180d2532,,1,0,81,4,1,80
,,,,,,,,,,,,,,,,,,,,,,,,,,,,,,,,,,,,,,,,,l,5.506999969,UMBREL,FALSE,,,,,,,108,ampolla,Catalan,Sounds/cat_ampolla.mp3,2020-06-12_20h49.37.894,TranslationElicitation_eng-prolific,3.2.4,Win32,60,5cad1eef8ed53d00180d2532,,1,0,81,4,1,80
,,,,,,,,,,,,,,,,,,,,,,,,,,,,,,,,,,,,,,,,,l,5.652999878,UMBRELL,FALSE,,,,,,,108,ampolla,Catalan,Sounds/cat_ampolla.mp3,2020-06-12_20h49.37.894,TranslationElicitation_eng-prolific,3.2.4,Win32,60,5cad1eef8ed53d00180d2532,,1,0,81,4,1,80
,,,,,,,,,,,,,,,,,,,,,,,,,,,,,,,,,,,,,,,,,a,6.052999973,UMBRELLA,FALSE,,,,,,,108,ampolla,Catalan,Sounds/cat_ampolla.mp3,2020-06-12_20h49.37.894,TranslationElicitation_eng-prolific,3.2.4,Win32,60,5cad1eef8ed53d00180d2532,,1,0,81,4,1,80
,,,,,,,,,,,,,,,,,,,,,,,,,,,,,,,,,,,,,,,,,return,6.448999882,UMBRELLA,FALSE,,,,,,,108,ampolla,Catalan,Sounds/cat_ampolla.mp3,2020-06-12_20h49.37.894,TranslationElicitation_eng-prolific,3.2.4,Win32,60,5cad1eef8ed53d00180d2532,6.448999882,1,0,81,4,1,80
,,,,,,,,,,,,,,,,,,,,,,,,,,,,,,,,,,,,,,,,,,,,,,,,,,,108,ampolla,Catalan,Sounds/cat_ampolla.mp3,2020-06-12_20h49.37.894,TranslationElicitation_eng-prolific,3.2.4,Win32,60,5cad1eef8ed53d00180d2532,,1,0,81,4,1,80
,,,,,,,,,,,,,,,,,,,,,,,,,,,,,,,,,,,,,,,,,b,2.287999868,B,FALSE,,,,,,,114,bol,Catalan,Sounds/cat_bol.mp3,2020-06-12_20h49.37.894,TranslationElicitation_eng-prolific,3.2.4,Win32,60,5cad1eef8ed53d00180d2532,,1,0,81,9,1,80
,,,,,,,,,,,,,,,,,,,,,,,,,,,,,,,,,,,,,,,,,a,2.470000029,BA,FALSE,,,,,,,114,bol,Catalan,Sounds/cat_bol.mp3,2020-06-12_20h49.37.894,TranslationElicitation_eng-prolific,3.2.4,Win32,60,5cad1eef8ed53d00180d2532,,1,0,81,9,1,80
,,,,,,,,,,,,,,,,,,,,,,,,,,,,,,,,,,,,,,,,,l,2.652999878,BAL,FALSE,,,,,,,114,bol,Catalan,Sounds/cat_bol.mp3,2020-06-12_20h49.37.894,TranslationElicitation_eng-prolific,3.2.4,Win32,60,5cad1eef8ed53d00180d2532,,1,0,81,9,1,80
,,,,,,,,,,,,,,,,,,,,,,,,,,,,,,,,,,,,,,,,,l,2.835000038,BALL,FALSE,,,,,,,114,bol,Catalan,Sounds/cat_bol.mp3,2020-06-12_20h49.37.894,TranslationElicitation_eng-prolific,3.2.4,Win32,60,5cad1eef8ed53d00180d2532,,1,0,81,9,1,80
,,,,,,,,,,,,,,,,,,,,,,,,,,,,,,,,,,,,,,,,,return,3.017999887,BALL,FALSE,,,,,,,114,bol,Catalan,Sounds/cat_bol.mp3,2020-06-12_20h49.37.894,TranslationElicitation_eng-prolific,3.2.4,Win32,60,5cad1eef8ed53d00180d2532,3.017999887,1,0,81,9,1,80
,,,,,,,,,,,,,,,,,,,,,,,,,,,,,,,,,,,,,,,,,,,,,,,,,,,114,bol,Catalan,Sounds/cat_bol.mp3,2020-06-12_20h49.37.894,TranslationElicitation_eng-prolific,3.2.4,Win32,60,5cad1eef8ed53d00180d2532,,1,0,81,9,1,80
,,,,,,,,,,,,,,,,,,,,,,,,,,,,,,,,,,,,,,,,,a,8.822000027,A,FALSE,,,,,,,107,amanida,Catalan,Sounds/cat_amanida.mp3,2020-06-12_20h49.37.894,TranslationElicitation_eng-prolific,3.2.4,Win32,60,5cad1eef8ed53d00180d2532,,1,0,81,3,1,80
,,,,,,,,,,,,,,,,,,,,,,,,,,,,,,,,,,,,,,,,,u,8.954999924,AU,FALSE,,,,,,,107,amanida,Catalan,Sounds/cat_amanida.mp3,2020-06-12_20h49.37.894,TranslationElicitation_eng-prolific,3.2.4,Win32,60,5cad1eef8ed53d00180d2532,,1,0,81,3,1,80
,,,,,,,,,,,,,,,,,,,,,,,,,,,,,,,,,,,,,,,,,n,9.137000084,AUN,FALSE,,,,,,,107,amanida,Catalan,Sounds/cat_amanida.mp3,2020-06-12_20h49.37.894,TranslationElicitation_eng-prolific,3.2.4,Win32,60,5cad1eef8ed53d00180d2532,,1,0,81,3,1,80
,,,,,,,,,,,,,,,,,,,,,,,,,,,,,,,,,,,,,,,,,t,9.319000006,AUNT,FALSE,,,,,,,107,amanida,Catalan,Sounds/cat_amanida.mp3,2020-06-12_20h49.37.894,TranslationElicitation_eng-prolific,3.2.4,Win32,60,5cad1eef8ed53d00180d2532,,1,0,81,3,1,80
,,,,,,,,,,,,,,,,,,,,,,,,,,,,,,,,,,,,,,,,,backspace,9.741999865,AUN,TRUE,,,,,,,107,amanida,Catalan,Sounds/cat_amanida.mp3,2020-06-12_20h49.37.894,TranslationElicitation_eng-prolific,3.2.4,Win32,60,5cad1eef8ed53d00180d2532,,1,0,81,3,1,80
,,,,,,,,,,,,,,,,,,,,,,,,,,,,,,,,,,,,,,,,,backspace,9.901000023,AU,TRUE,,,,,,,107,amanida,Catalan,Sounds/cat_amanida.mp3,2020-06-12_20h49.37.894,TranslationElicitation_eng-prolific,3.2.4,Win32,60,5cad1eef8ed53d00180d2532,,1,0,81,3,1,80
,,,,,,,,,,,,,,,,,,,,,,,,,,,,,,,,,,,,,,,,,backspace,10.08200002,A,TRUE,,,,,,,107,amanida,Catalan,Sounds/cat_amanida.mp3,2020-06-12_20h49.37.894,TranslationElicitation_eng-prolific,3.2.4,Win32,60,5cad1eef8ed53d00180d2532,,1,0,81,3,1,80
,,,,,,,,,,,,,,,,,,,,,,,,,,,,,,,,,,,,,,,,,backspace,10.31399989,,TRUE,,,,,,,107,amanida,Catalan,Sounds/cat_amanida.mp3,2020-06-12_20h49.37.894,TranslationElicitation_eng-prolific,3.2.4,Win32,60,5cad1eef8ed53d00180d2532,,1,0,81,3,1,80
,,,,,,,,,,,,,,,,,,,,,,,,,,,,,,,,,,,,,,,,,c,10.59599996,C,TRUE,,,,,,,107,amanida,Catalan,Sounds/cat_amanida.mp3,2020-06-12_20h49.37.894,TranslationElicitation_eng-prolific,3.2.4,Win32,60,5cad1eef8ed53d00180d2532,,1,0,81,3,1,80
,,,,,,,,,,,,,,,,,,,,,,,,,,,,,,,,,,,,,,,,,o,10.829,CO,TRUE,,,,,,,107,amanida,Catalan,Sounds/cat_amanida.mp3,2020-06-12_20h49.37.894,TranslationElicitation_eng-prolific,3.2.4,Win32,60,5cad1eef8ed53d00180d2532,,1,0,81,3,1,80
,,,,,,,,,,,,,,,,,,,,,,,,,,,,,,,,,,,,,,,,,u,11.1099999,COU,TRUE,,,,,,,107,amanida,Catalan,Sounds/cat_amanida.mp3,2020-06-12_20h49.37.894,TranslationElicitation_eng-prolific,3.2.4,Win32,60,5cad1eef8ed53d00180d2532,,1,0,81,3,1,80
,,,,,,,,,,,,,,,,,,,,,,,,,,,,,,,,,,,,,,,,,s,11.20899987,COUS,TRUE,,,,,,,107,amanida,Catalan,Sounds/cat_amanida.mp3,2020-06-12_20h49.37.894,TranslationElicitation_eng-prolific,3.2.4,Win32,60,5cad1eef8ed53d00180d2532,,1,0,81,3,1,80
,,,,,,,,,,,,,,,,,,,,,,,,,,,,,,,,,,,,,,,,,i,11.30900002,COUSI,TRUE,,,,,,,107,amanida,Catalan,Sounds/cat_amanida.mp3,2020-06-12_20h49.37.894,TranslationElicitation_eng-prolific,3.2.4,Win32,60,5cad1eef8ed53d00180d2532,,1,0,81,3,1,80
,,,,,,,,,,,,,,,,,,,,,,,,,,,,,,,,,,,,,,,,,n,11.45799994,COUSIN,TRUE,,,,,,,107,amanida,Catalan,Sounds/cat_amanida.mp3,2020-06-12_20h49.37.894,TranslationElicitation_eng-prolific,3.2.4,Win32,60,5cad1eef8ed53d00180d2532,,1,0,81,3,1,80
,,,,,,,,,,,,,,,,,,,,,,,,,,,,,,,,,,,,,,,,,return,11.71199989,COUSIN,TRUE,,,,,,,107,amanida,Catalan,Sounds/cat_amanida.mp3,2020-06-12_20h49.37.894,TranslationElicitation_eng-prolific,3.2.4,Win32,60,5cad1eef8ed53d00180d2532,11.71199989,1,0,81,3,1,80
,,,,,,,,,,,,,,,,,,,,,,,,,,,,,,,,,,,,,,,,,,,,,,,,,,,107,amanida,Catalan,Sounds/cat_amanida.mp3,2020-06-12_20h49.37.894,TranslationElicitation_eng-prolific,3.2.4,Win32,60,5cad1eef8ed53d00180d2532,,1,0,81,3,1,80
,,,,,,,,,,,,,,,,,,,,,,,,,,,,,,,,,,,,,,,,,f,2.918000221,F,FALSE,,,,,,,166,peu,Catalan,Sounds/cat_peu.mp3,2020-06-12_20h49.37.894,TranslationElicitation_eng-prolific,3.2.4,Win32,60,5cad1eef8ed53d00180d2532,,1,0,81,58,1,80
,,,,,,,,,,,,,,,,,,,,,,,,,,,,,,,,,,,,,,,,,a,3.150000095,FA,FALSE,,,,,,,166,peu,Catalan,Sounds/cat_peu.mp3,2020-06-12_20h49.37.894,TranslationElicitation_eng-prolific,3.2.4,Win32,60,5cad1eef8ed53d00180d2532,,1,0,81,58,1,80
,,,,,,,,,,,,,,,,,,,,,,,,,,,,,,,,,,,,,,,,,t,3.4150002,FAT,FALSE,,,,,,,166,peu,Catalan,Sounds/cat_peu.mp3,2020-06-12_20h49.37.894,TranslationElicitation_eng-prolific,3.2.4,Win32,60,5cad1eef8ed53d00180d2532,,1,0,81,58,1,80
,,,,,,,,,,,,,,,,,,,,,,,,,,,,,,,,,,,,,,,,,h,3.614000082,FATH,FALSE,,,,,,,166,peu,Catalan,Sounds/cat_peu.mp3,2020-06-12_20h49.37.894,TranslationElicitation_eng-prolific,3.2.4,Win32,60,5cad1eef8ed53d00180d2532,,1,0,81,58,1,80
,,,,,,,,,,,,,,,,,,,,,,,,,,,,,,,,,,,,,,,,,e,3.717000008,FATHE,FALSE,,,,,,,166,peu,Catalan,Sounds/cat_peu.mp3,2020-06-12_20h49.37.894,TranslationElicitation_eng-prolific,3.2.4,Win32,60,5cad1eef8ed53d00180d2532,,1,0,81,58,1,80
,,,,,,,,,,,,,,,,,,,,,,,,,,,,,,,,,,,,,,,,,r,3.93200016,FATHER,FALSE,,,,,,,166,peu,Catalan,Sounds/cat_peu.mp3,2020-06-12_20h49.37.894,TranslationElicitation_eng-prolific,3.2.4,Win32,60,5cad1eef8ed53d00180d2532,,1,0,81,58,1,80
,,,,,,,,,,,,,,,,,,,,,,,,,,,,,,,,,,,,,,,,,return,4.015000105,FATHER,FALSE,,,,,,,166,peu,Catalan,Sounds/cat_peu.mp3,2020-06-12_20h49.37.894,TranslationElicitation_eng-prolific,3.2.4,Win32,60,5cad1eef8ed53d00180d2532,4.015000105,1,0,81,58,1,80
,,,,,,,,,,,,,,,,,,,,,,,,,,,,,,,,,,,,,,,,,,,,,,,,,,,166,peu,Catalan,Sounds/cat_peu.mp3,2020-06-12_20h49.37.894,TranslationElicitation_eng-prolific,3.2.4,Win32,60,5cad1eef8ed53d00180d2532,,1,0,81,58,1,80
,,,,,,,,,,,,,,,,,,,,,,,,,,,,,,,,,,,,,,,,,l,11.09399986,L,FALSE,,,,,,,149,llibre,Catalan,Sounds/cat_llibre.mp3,2020-06-12_20h49.37.894,TranslationElicitation_eng-prolific,3.2.4,Win32,60,5cad1eef8ed53d00180d2532,,1,0,81,42,1,80
,,,,,,,,,,,,,,,,,,,,,,,,,,,,,,,,,,,,,,,,,i,12.11899996,LI,FALSE,,,,,,,149,llibre,Catalan,Sounds/cat_llibre.mp3,2020-06-12_20h49.37.894,TranslationElicitation_eng-prolific,3.2.4,Win32,60,5cad1eef8ed53d00180d2532,,1,0,81,42,1,80
,,,,,,,,,,,,,,,,,,,,,,,,,,,,,,,,,,,,,,,,,o,12.28499985,LIO,FALSE,,,,,,,149,llibre,Catalan,Sounds/cat_llibre.mp3,2020-06-12_20h49.37.894,TranslationElicitation_eng-prolific,3.2.4,Win32,60,5cad1eef8ed53d00180d2532,,1,0,81,42,1,80
,,,,,,,,,,,,,,,,,,,,,,,,,,,,,,,,,,,,,,,,,n,12.43599987,LION,FALSE,,,,,,,149,llibre,Catalan,Sounds/cat_llibre.mp3,2020-06-12_20h49.37.894,TranslationElicitation_eng-prolific,3.2.4,Win32,60,5cad1eef8ed53d00180d2532,,1,0,81,42,1,80
,,,,,,,,,,,,,,,,,,,,,,,,,,,,,,,,,,,,,,,,,return,12.89899993,LION,FALSE,,,,,,,149,llibre,Catalan,Sounds/cat_llibre.mp3,2020-06-12_20h49.37.894,TranslationElicitation_eng-prolific,3.2.4,Win32,60,5cad1eef8ed53d00180d2532,12.89899993,1,0,81,42,1,80
,,,,,,,,,,,,,,,,,,,,,,,,,,,,,,,,,,,,,,,,,,,,,,,,,,,149,llibre,Catalan,Sounds/cat_llibre.mp3,2020-06-12_20h49.37.894,TranslationElicitation_eng-prolific,3.2.4,Win32,60,5cad1eef8ed53d00180d2532,,1,0,81,42,1,80
,,,,,,,,,,,,,,,,,,,,,,,,,,,,,,,,,,,,,,,,,g,5.470999956,G,FALSE,,,,,,,144,gorra,Catalan,Sounds/cat_gorra.mp3,2020-06-12_20h49.37.894,TranslationElicitation_eng-prolific,3.2.4,Win32,60,5cad1eef8ed53d00180d2532,,1,0,81,38,1,80
,,,,,,,,,,,,,,,,,,,,,,,,,,,,,,,,,,,,,,,,,o,5.718999863,GO,FALSE,,,,,,,144,gorra,Catalan,Sounds/cat_gorra.mp3,2020-06-12_20h49.37.894,TranslationElicitation_eng-prolific,3.2.4,Win32,60,5cad1eef8ed53d00180d2532,,1,0,81,38,1,80
,,,,,,,,,,,,,,,,,,,,,,,,,,,,,,,,,,,,,,,,,r,6.181999922,GOR,FALSE,,,,,,,144,gorra,Catalan,Sounds/cat_gorra.mp3,2020-06-12_20h49.37.894,TranslationElicitation_eng-prolific,3.2.4,Win32,60,5cad1eef8ed53d00180d2532,,1,0,81,38,1,80
,,,,,,,,,,,,,,,,,,,,,,,,,,,,,,,,,,,,,,,,,i,6.36500001,GORI,FALSE,,,,,,,144,gorra,Catalan,Sounds/cat_gorra.mp3,2020-06-12_20h49.37.894,TranslationElicitation_eng-prolific,3.2.4,Win32,60,5cad1eef8ed53d00180d2532,,1,0,81,38,1,80
,,,,,,,,,,,,,,,,,,,,,,,,,,,,,,,,,,,,,,,,,l,6.580999851,GORIL,FALSE,,,,,,,144,gorra,Catalan,Sounds/cat_gorra.mp3,2020-06-12_20h49.37.894,TranslationElicitation_eng-prolific,3.2.4,Win32,60,5cad1eef8ed53d00180d2532,,1,0,81,38,1,80
,,,,,,,,,,,,,,,,,,,,,,,,,,,,,,,,,,,,,,,,,l,6.730000019,GORILL,FALSE,,,,,,,144,gorra,Catalan,Sounds/cat_gorra.mp3,2020-06-12_20h49.37.894,TranslationElicitation_eng-prolific,3.2.4,Win32,60,5cad1eef8ed53d00180d2532,,1,0,81,38,1,80
,,,,,,,,,,,,,,,,,,,,,,,,,,,,,,,,,,,,,,,,,a,6.812999964,GORILLA,FALSE,,,,,,,144,gorra,Catalan,Sounds/cat_gorra.mp3,2020-06-12_20h49.37.894,TranslationElicitation_eng-prolific,3.2.4,Win32,60,5cad1eef8ed53d00180d2532,,1,0,81,38,1,80
,,,,,,,,,,,,,,,,,,,,,,,,,,,,,,,,,,,,,,,,,return,6.994999886,GORILLA,FALSE,,,,,,,144,gorra,Catalan,Sounds/cat_gorra.mp3,2020-06-12_20h49.37.894,TranslationElicitation_eng-prolific,3.2.4,Win32,60,5cad1eef8ed53d00180d2532,6.994999886,1,0,81,38,1,80
,,,,,,,,,,,,,,,,,,,,,,,,,,,,,,,,,,,,,,,,,,,,,,,,,,,144,gorra,Catalan,Sounds/cat_gorra.mp3,2020-06-12_20h49.37.894,TranslationElicitation_eng-prolific,3.2.4,Win32,60,5cad1eef8ed53d00180d2532,,1,0,81,38,1,80
,,,,,,,,,,,,,,,,,,,,,,,,,,,,,,,,,,,,,,,,,t,9.847999811,T,FALSE,,,,,,,178,taronja,Catalan,Sounds/cat_taronja.mp3,2020-06-12_20h49.37.894,TranslationElicitation_eng-prolific,3.2.4,Win32,60,5cad1eef8ed53d00180d2532,,1,0,81,70,1,80
,,,,,,,,,,,,,,,,,,,,,,,,,,,,,,,,,,,,,,,,,a,10.09699988,TA,FALSE,,,,,,,178,taronja,Catalan,Sounds/cat_taronja.mp3,2020-06-12_20h49.37.894,TranslationElicitation_eng-prolific,3.2.4,Win32,60,5cad1eef8ed53d00180d2532,,1,0,81,70,1,80
,,,,,,,,,,,,,,,,,,,,,,,,,,,,,,,,,,,,,,,,,r,10.37800002,TAR,FALSE,,,,,,,178,taronja,Catalan,Sounds/cat_taronja.mp3,2020-06-12_20h49.37.894,TranslationElicitation_eng-prolific,3.2.4,Win32,60,5cad1eef8ed53d00180d2532,,1,0,81,70,1,80
,,,,,,,,,,,,,,,,,,,,,,,,,,,,,,,,,,,,,,,,,a,10.64499998,TARA,FALSE,,,,,,,178,taronja,Catalan,Sounds/cat_taronja.mp3,2020-06-12_20h49.37.894,TranslationElicitation_eng-prolific,3.2.4,Win32,60,5cad1eef8ed53d00180d2532,,1,0,81,70,1,80
,,,,,,,,,,,,,,,,,,,,,,,,,,,,,,,,,,,,,,,,,n,10.84299994,TARAN,FALSE,,,,,,,178,taronja,Catalan,Sounds/cat_taronja.mp3,2020-06-12_20h49.37.894,TranslationElicitation_eng-prolific,3.2.4,Win32,60,5cad1eef8ed53d00180d2532,,1,0,81,70,1,80
,,,,,,,,,,,,,,,,,,,,,,,,,,,,,,,,,,,,,,,,,t,11.04099989,TARANT,FALSE,,,,,,,178,taronja,Catalan,Sounds/cat_taronja.mp3,2020-06-12_20h49.37.894,TranslationElicitation_eng-prolific,3.2.4,Win32,60,5cad1eef8ed53d00180d2532,,1,0,81,70,1,80
,,,,,,,,,,,,,,,,,,,,,,,,,,,,,,,,,,,,,,,,,u,11.17400002,TARANTU,FALSE,,,,,,,178,taronja,Catalan,Sounds/cat_taronja.mp3,2020-06-12_20h49.37.894,TranslationElicitation_eng-prolific,3.2.4,Win32,60,5cad1eef8ed53d00180d2532,,1,0,81,70,1,80
,,,,,,,,,,,,,,,,,,,,,,,,,,,,,,,,,,,,,,,,,a,11.33999991,TARANTUA,FALSE,,,,,,,178,taronja,Catalan,Sounds/cat_taronja.mp3,2020-06-12_20h49.37.894,TranslationElicitation_eng-prolific,3.2.4,Win32,60,5cad1eef8ed53d00180d2532,,1,0,81,70,1,80
,,,,,,,,,,,,,,,,,,,,,,,,,,,,,,,,,,,,,,,,,backspace,11.63999987,TARANTU,TRUE,,,,,,,178,taronja,Catalan,Sounds/cat_taronja.mp3,2020-06-12_20h49.37.894,TranslationElicitation_eng-prolific,3.2.4,Win32,60,5cad1eef8ed53d00180d2532,,1,0,81,70,1,80
,,,,,,,,,,,,,,,,,,,,,,,,,,,,,,,,,,,,,,,,,l,11.85399985,TARANTUL,TRUE,,,,,,,178,taronja,Catalan,Sounds/cat_taronja.mp3,2020-06-12_20h49.37.894,TranslationElicitation_eng-prolific,3.2.4,Win32,60,5cad1eef8ed53d00180d2532,,1,0,81,70,1,80
,,,,,,,,,,,,,,,,,,,,,,,,,,,,,,,,,,,,,,,,,a,12.03600001,TARANTULA,TRUE,,,,,,,178,taronja,Catalan,Sounds/cat_taronja.mp3,2020-06-12_20h49.37.894,TranslationElicitation_eng-prolific,3.2.4,Win32,60,5cad1eef8ed53d00180d2532,,1,0,81,70,1,80
,,,,,,,,,,,,,,,,,,,,,,,,,,,,,,,,,,,,,,,,,return,12.2019999,TARANTULA,TRUE,,,,,,,178,taronja,Catalan,Sounds/cat_taronja.mp3,2020-06-12_20h49.37.894,TranslationElicitation_eng-prolific,3.2.4,Win32,60,5cad1eef8ed53d00180d2532,12.2019999,1,0,81,70,1,80
,,,,,,,,,,,,,,,,,,,,,,,,,,,,,,,,,,,,,,,,,,,,,,,,,,,178,taronja,Catalan,Sounds/cat_taronja.mp3,2020-06-12_20h49.37.894,TranslationElicitation_eng-prolific,3.2.4,Win32,60,5cad1eef8ed53d00180d2532,,1,0,81,70,1,80
,,,,,,,,,,,,,,,,,,,,,,,,,,,,,,,,,,,,,,,,,o,2.68599987,O,FALSE,,,,,,,184,ull,Catalan,Sounds/cat_ull.mp3,2020-06-12_20h49.37.894,TranslationElicitation_eng-prolific,3.2.4,Win32,60,5cad1eef8ed53d00180d2532,,1,0,81,75,1,80
,,,,,,,,,,,,,,,,,,,,,,,,,,,,,,,,,,,,,,,,,w,3.000999928,OW,FALSE,,,,,,,184,ull,Catalan,Sounds/cat_ull.mp3,2020-06-12_20h49.37.894,TranslationElicitation_eng-prolific,3.2.4,Win32,60,5cad1eef8ed53d00180d2532,,1,0,81,75,1,80
,,,,,,,,,,,,,,,,,,,,,,,,,,,,,,,,,,,,,,,,,l,3.135999918,OWL,FALSE,,,,,,,184,ull,Catalan,Sounds/cat_ull.mp3,2020-06-12_20h49.37.894,TranslationElicitation_eng-prolific,3.2.4,Win32,60,5cad1eef8ed53d00180d2532,,1,0,81,75,1,80
,,,,,,,,,,,,,,,,,,,,,,,,,,,,,,,,,,,,,,,,,return,3.429999828,OWL,FALSE,,,,,,,184,ull,Catalan,Sounds/cat_ull.mp3,2020-06-12_20h49.37.894,TranslationElicitation_eng-prolific,3.2.4,Win32,60,5cad1eef8ed53d00180d2532,3.429999828,1,0,81,75,1,80
,,,,,,,,,,,,,,,,,,,,,,,,,,,,,,,,,,,,,,,,,,,,,,,,,,,184,ull,Catalan,Sounds/cat_ull.mp3,2020-06-12_20h49.37.894,TranslationElicitation_eng-prolific,3.2.4,Win32,60,5cad1eef8ed53d00180d2532,,1,0,81,75,1,80
,,,,,,,,,,,,,,,,,,,,,,,,,,,,,,,,,,,,,,,,,s,3.912000179,S,FALSE,,,,,,,133,estruc,Catalan,Sounds/cat_estruc.mp3,2020-06-12_20h49.37.894,TranslationElicitation_eng-prolific,3.2.4,Win32,60,5cad1eef8ed53d00180d2532,,1,0,81,27,1,80
,,,,,,,,,,,,,,,,,,,,,,,,,,,,,,,,,,,,,,,,,t,4.194000006,ST,FALSE,,,,,,,133,estruc,Catalan,Sounds/cat_estruc.mp3,2020-06-12_20h49.37.894,TranslationElicitation_eng-prolific,3.2.4,Win32,60,5cad1eef8ed53d00180d2532,,1,0,81,27,1,80
,,,,,,,,,,,,,,,,,,,,,,,,,,,,,,,,,,,,,,,,,a,4.345000029,STA,FALSE,,,,,,,133,estruc,Catalan,Sounds/cat_estruc.mp3,2020-06-12_20h49.37.894,TranslationElicitation_eng-prolific,3.2.4,Win32,60,5cad1eef8ed53d00180d2532,,1,0,81,27,1,80
,,,,,,,,,,,,,,,,,,,,,,,,,,,,,,,,,,,,,,,,,r,4.475000143,STAR,FALSE,,,,,,,133,estruc,Catalan,Sounds/cat_estruc.mp3,2020-06-12_20h49.37.894,TranslationElicitation_eng-prolific,3.2.4,Win32,60,5cad1eef8ed53d00180d2532,,1,0,81,27,1,80
,,,,,,,,,,,,,,,,,,,,,,,,,,,,,,,,,,,,,,,,,s,4.609000206,STARS,FALSE,,,,,,,133,estruc,Catalan,Sounds/cat_estruc.mp3,2020-06-12_20h49.37.894,TranslationElicitation_eng-prolific,3.2.4,Win32,60,5cad1eef8ed53d00180d2532,,1,0,81,27,1,80
,,,,,,,,,,,,,,,,,,,,,,,,,,,,,,,,,,,,,,,,,return,5.072000027,STARS,FALSE,,,,,,,133,estruc,Catalan,Sounds/cat_estruc.mp3,2020-06-12_20h49.37.894,TranslationElicitation_eng-prolific,3.2.4,Win32,60,5cad1eef8ed53d00180d2532,5.072000027,1,0,81,27,1,80
,,,,,,,,,,,,,,,,,,,,,,,,,,,,,,,,,,,,,,,,,,,,,,,,,,,133,estruc,Catalan,Sounds/cat_estruc.mp3,2020-06-12_20h49.37.894,TranslationElicitation_eng-prolific,3.2.4,Win32,60,5cad1eef8ed53d00180d2532,,1,0,81,27,1,80
,,,,,,,,,,,,,,,,,,,,,,,,,,,,,,,,,,,,,,,,,h,2.486999989,H,FALSE,,,,,,,122,casa,Catalan,Sounds/cat_casa.mp3,2020-06-12_20h49.37.894,TranslationElicitation_eng-prolific,3.2.4,Win32,60,5cad1eef8ed53d00180d2532,,1,0,81,17,1,80
,,,,,,,,,,,,,,,,,,,,,,,,,,,,,,,,,,,,,,,,,o,2.703000069,HO,FALSE,,,,,,,122,casa,Catalan,Sounds/cat_casa.mp3,2020-06-12_20h49.37.894,TranslationElicitation_eng-prolific,3.2.4,Win32,60,5cad1eef8ed53d00180d2532,,1,0,81,17,1,80
,,,,,,,,,,,,,,,,,,,,,,,,,,,,,,,,,,,,,,,,,u,2.934999943,HOU,FALSE,,,,,,,122,casa,Catalan,Sounds/cat_casa.mp3,2020-06-12_20h49.37.894,TranslationElicitation_eng-prolific,3.2.4,Win32,60,5cad1eef8ed53d00180d2532,,1,0,81,17,1,80
,,,,,,,,,,,,,,,,,,,,,,,,,,,,,,,,,,,,,,,,,s,2.984999895,HOUS,FALSE,,,,,,,122,casa,Catalan,Sounds/cat_casa.mp3,2020-06-12_20h49.37.894,TranslationElicitation_eng-prolific,3.2.4,Win32,60,5cad1eef8ed53d00180d2532,,1,0,81,17,1,80
,,,,,,,,,,,,,,,,,,,,,,,,,,,,,,,,,,,,,,,,,e,3.23300004,HOUSE,FALSE,,,,,,,122,casa,Catalan,Sounds/cat_casa.mp3,2020-06-12_20h49.37.894,TranslationElicitation_eng-prolific,3.2.4,Win32,60,5cad1eef8ed53d00180d2532,,1,0,81,17,1,80
,,,,,,,,,,,,,,,,,,,,,,,,,,,,,,,,,,,,,,,,,backspace,6.052000046,HOUS,TRUE,,,,,,,122,casa,Catalan,Sounds/cat_casa.mp3,2020-06-12_20h49.37.894,TranslationElicitation_eng-prolific,3.2.4,Win32,60,5cad1eef8ed53d00180d2532,,1,0,81,17,1,80
,,,,,,,,,,,,,,,,,,,,,,,,,,,,,,,,,,,,,,,,,backspace,6.233999968,HOU,TRUE,,,,,,,122,casa,Catalan,Sounds/cat_casa.mp3,2020-06-12_20h49.37.894,TranslationElicitation_eng-prolific,3.2.4,Win32,60,5cad1eef8ed53d00180d2532,,1,0,81,17,1,80
,,,,,,,,,,,,,,,,,,,,,,,,,,,,,,,,,,,,,,,,,backspace,6.382999897,HO,TRUE,,,,,,,122,casa,Catalan,Sounds/cat_casa.mp3,2020-06-12_20h49.37.894,TranslationElicitation_eng-prolific,3.2.4,Win32,60,5cad1eef8ed53d00180d2532,,1,0,81,17,1,80
,,,,,,,,,,,,,,,,,,,,,,,,,,,,,,,,,,,,,,,,,m,7.213999987,HOM,TRUE,,,,,,,122,casa,Catalan,Sounds/cat_casa.mp3,2020-06-12_20h49.37.894,TranslationElicitation_eng-prolific,3.2.4,Win32,60,5cad1eef8ed53d00180d2532,,1,0,81,17,1,80
,,,,,,,,,,,,,,,,,,,,,,,,,,,,,,,,,,,,,,,,,e,7.328999996,HOME,TRUE,,,,,,,122,casa,Catalan,Sounds/cat_casa.mp3,2020-06-12_20h49.37.894,TranslationElicitation_eng-prolific,3.2.4,Win32,60,5cad1eef8ed53d00180d2532,,1,0,81,17,1,80
,,,,,,,,,,,,,,,,,,,,,,,,,,,,,,,,,,,,,,,,,return,7.493999958,HOME,TRUE,,,,,,,122,casa,Catalan,Sounds/cat_casa.mp3,2020-06-12_20h49.37.894,TranslationElicitation_eng-prolific,3.2.4,Win32,60,5cad1eef8ed53d00180d2532,7.493999958,1,0,81,17,1,80
,,,,,,,,,,,,,,,,,,,,,,,,,,,,,,,,,,,,,,,,,,,,,,,,,,,122,casa,Catalan,Sounds/cat_casa.mp3,2020-06-12_20h49.37.894,TranslationElicitation_eng-prolific,3.2.4,Win32,60,5cad1eef8ed53d00180d2532,,1,0,81,17,1,80
,,,,,,,,,,,,,,,,,,,,,,,,,,,,,,,,,,,,,,,,,s,1.972999811,S,FALSE,,,,,,,177,sol,Catalan,Sounds/cat_sol.mp3,2020-06-12_20h49.37.894,TranslationElicitation_eng-prolific,3.2.4,Win32,60,5cad1eef8ed53d00180d2532,,1,0,81,69,1,80
,,,,,,,,,,,,,,,,,,,,,,,,,,,,,,,,,,,,,,,,,u,2.088999987,SU,FALSE,,,,,,,177,sol,Catalan,Sounds/cat_sol.mp3,2020-06-12_20h49.37.894,TranslationElicitation_eng-prolific,3.2.4,Win32,60,5cad1eef8ed53d00180d2532,,1,0,81,69,1,80
,,,,,,,,,,,,,,,,,,,,,,,,,,,,,,,,,,,,,,,,,n,2.254999876,SUN,FALSE,,,,,,,177,sol,Catalan,Sounds/cat_sol.mp3,2020-06-12_20h49.37.894,TranslationElicitation_eng-prolific,3.2.4,Win32,60,5cad1eef8ed53d00180d2532,,1,0,81,69,1,80
,,,,,,,,,,,,,,,,,,,,,,,,,,,,,,,,,,,,,,,,,return,2.701999903,SUN,FALSE,,,,,,,177,sol,Catalan,Sounds/cat_sol.mp3,2020-06-12_20h49.37.894,TranslationElicitation_eng-prolific,3.2.4,Win32,60,5cad1eef8ed53d00180d2532,2.701999903,1,0,81,69,1,80
,,,,,,,,,,,,,,,,,,,,,,,,,,,,,,,,,,,,,,,,,,,,,,,,,,,177,sol,Catalan,Sounds/cat_sol.mp3,2020-06-12_20h49.37.894,TranslationElicitation_eng-prolific,3.2.4,Win32,60,5cad1eef8ed53d00180d2532,,1,0,81,69,1,80
,,,,,,,,,,,,,,,,,,,,,,,,,,,,,,,,,,,,,,,,,b,3.728999853,B,FALSE,,,,,,,181,tobogan,Catalan,Sounds/cat_tobogan.mp3,2020-06-12_20h49.37.894,TranslationElicitation_eng-prolific,3.2.4,Win32,60,5cad1eef8ed53d00180d2532,,1,0,81,72,1,80
,,,,,,,,,,,,,,,,,,,,,,,,,,,,,,,,,,,,,,,,,o,3.894999981,BO,FALSE,,,,,,,181,tobogan,Catalan,Sounds/cat_tobogan.mp3,2020-06-12_20h49.37.894,TranslationElicitation_eng-prolific,3.2.4,Win32,60,5cad1eef8ed53d00180d2532,,1,0,81,72,1,80
,,,,,,,,,,,,,,,,,,,,,,,,,,,,,,,,,,,,,,,,,a,4.093999863,BOA,FALSE,,,,,,,181,tobogan,Catalan,Sounds/cat_tobogan.mp3,2020-06-12_20h49.37.894,TranslationElicitation_eng-prolific,3.2.4,Win32,60,5cad1eef8ed53d00180d2532,,1,0,81,72,1,80
,,,,,,,,,,,,,,,,,,,,,,,,,,,,,,,,,,,,,,,,,t,4.441999912,BOAT,FALSE,,,,,,,181,tobogan,Catalan,Sounds/cat_tobogan.mp3,2020-06-12_20h49.37.894,TranslationElicitation_eng-prolific,3.2.4,Win32,60,5cad1eef8ed53d00180d2532,,1,0,81,72,1,80
,,,,,,,,,,,,,,,,,,,,,,,,,,,,,,,,,,,,,,,,,return,4.905999899,BOAT,FALSE,,,,,,,181,tobogan,Catalan,Sounds/cat_tobogan.mp3,2020-06-12_20h49.37.894,TranslationElicitation_eng-prolific,3.2.4,Win32,60,5cad1eef8ed53d00180d2532,4.905999899,1,0,81,72,1,80
,,,,,,,,,,,,,,,,,,,,,,,,,,,,,,,,,,,,,,,,,,,,,,,,,,,181,tobogan,Catalan,Sounds/cat_tobogan.mp3,2020-06-12_20h49.37.894,TranslationElicitation_eng-prolific,3.2.4,Win32,60,5cad1eef8ed53d00180d2532,,1,0,81,72,1,80
,,,,,,,,,,,,,,,,,,,,,,,,,,,,,,,,,,,,,,,,,c,3.746000051,C,FALSE,,,,,,,125,colom,Catalan,Sounds/cat_colom.mp3,2020-06-12_20h49.37.894,TranslationElicitation_eng-prolific,3.2.4,Win32,60,5cad1eef8ed53d00180d2532,,1,0,81,20,1,80
,,,,,,,,,,,,,,,,,,,,,,,,,,,,,,,,,,,,,,,,,o,3.930000067,CO,FALSE,,,,,,,125,colom,Catalan,Sounds/cat_colom.mp3,2020-06-12_20h49.37.894,TranslationElicitation_eng-prolific,3.2.4,Win32,60,5cad1eef8ed53d00180d2532,,1,0,81,20,1,80
,,,,,,,,,,,,,,,,,,,,,,,,,,,,,,,,,,,,,,,,,l,4.309999943,COL,FALSE,,,,,,,125,colom,Catalan,Sounds/cat_colom.mp3,2020-06-12_20h49.37.894,TranslationElicitation_eng-prolific,3.2.4,Win32,60,5cad1eef8ed53d00180d2532,,1,0,81,20,1,80
,,,,,,,,,,,,,,,,,,,,,,,,,,,,,,,,,,,,,,,,,l,4.513000011,COLL,FALSE,,,,,,,125,colom,Catalan,Sounds/cat_colom.mp3,2020-06-12_20h49.37.894,TranslationElicitation_eng-prolific,3.2.4,Win32,60,5cad1eef8ed53d00180d2532,,1,0,81,20,1,80
,,,,,,,,,,,,,,,,,,,,,,,,,,,,,,,,,,,,,,,,,u,4.809000015,COLLU,FALSE,,,,,,,125,colom,Catalan,Sounds/cat_colom.mp3,2020-06-12_20h49.37.894,TranslationElicitation_eng-prolific,3.2.4,Win32,60,5cad1eef8ed53d00180d2532,,1,0,81,20,1,80
,,,,,,,,,,,,,,,,,,,,,,,,,,,,,,,,,,,,,,,,,backspace,5.288000107,COLL,TRUE,,,,,,,125,colom,Catalan,Sounds/cat_colom.mp3,2020-06-12_20h49.37.894,TranslationElicitation_eng-prolific,3.2.4,Win32,60,5cad1eef8ed53d00180d2532,,1,0,81,20,1,80
,,,,,,,,,,,,,,,,,,,,,,,,,,,,,,,,,,,,,,,,,backspace,5.453999996,COL,TRUE,,,,,,,125,colom,Catalan,Sounds/cat_colom.mp3,2020-06-12_20h49.37.894,TranslationElicitation_eng-prolific,3.2.4,Win32,60,5cad1eef8ed53d00180d2532,,1,0,81,20,1,80
,,,,,,,,,,,,,,,,,,,,,,,,,,,,,,,,,,,,,,,,,u,6.299999952,COLU,TRUE,,,,,,,125,colom,Catalan,Sounds/cat_colom.mp3,2020-06-12_20h49.37.894,TranslationElicitation_eng-prolific,3.2.4,Win32,60,5cad1eef8ed53d00180d2532,,1,0,81,20,1,80
,,,,,,,,,,,,,,,,,,,,,,,,,,,,,,,,,,,,,,,,,m,6.549999952,COLUM,TRUE,,,,,,,125,colom,Catalan,Sounds/cat_colom.mp3,2020-06-12_20h49.37.894,TranslationElicitation_eng-prolific,3.2.4,Win32,60,5cad1eef8ed53d00180d2532,,1,0,81,20,1,80
,,,,,,,,,,,,,,,,,,,,,,,,,,,,,,,,,,,,,,,,,n,6.763999939,COLUMN,TRUE,,,,,,,125,colom,Catalan,Sounds/cat_colom.mp3,2020-06-12_20h49.37.894,TranslationElicitation_eng-prolific,3.2.4,Win32,60,5cad1eef8ed53d00180d2532,,1,0,81,20,1,80
,,,,,,,,,,,,,,,,,,,,,,,,,,,,,,,,,,,,,,,,,return,7.029000044,COLUMN,TRUE,,,,,,,125,colom,Catalan,Sounds/cat_colom.mp3,2020-06-12_20h49.37.894,TranslationElicitation_eng-prolific,3.2.4,Win32,60,5cad1eef8ed53d00180d2532,7.029000044,1,0,81,20,1,80
,,,,,,,,,,,,,,,,,,,,,,,,,,,,,,,,,,,,,,,,,,,,,,,,,,,125,colom,Catalan,Sounds/cat_colom.mp3,2020-06-12_20h49.37.894,TranslationElicitation_eng-prolific,3.2.4,Win32,60,5cad1eef8ed53d00180d2532,,1,0,81,20,1,80
,,,,,,,,,,,,,,,,,,,,,,,,,,,,,,,,,,,,,,,,,b,5.871000051,B,FALSE,,,,,,,110,berenar,Catalan,Sounds/cat_berenar.mp3,2020-06-12_20h49.37.894,TranslationElicitation_eng-prolific,3.2.4,Win32,60,5cad1eef8ed53d00180d2532,,1,0,81,5,1,80
,,,,,,,,,,,,,,,,,,,,,,,,,,,,,,,,,,,,,,,,,r,5.986000061,BR,FALSE,,,,,,,110,berenar,Catalan,Sounds/cat_berenar.mp3,2020-06-12_20h49.37.894,TranslationElicitation_eng-prolific,3.2.4,Win32,60,5cad1eef8ed53d00180d2532,,1,0,81,5,1,80
,,,,,,,,,,,,,,,,,,,,,,,,,,,,,,,,,,,,,,,,,e,6.222000122,BRE,FALSE,,,,,,,110,berenar,Catalan,Sounds/cat_berenar.mp3,2020-06-12_20h49.37.894,TranslationElicitation_eng-prolific,3.2.4,Win32,60,5cad1eef8ed53d00180d2532,,1,0,81,5,1,80
,,,,,,,,,,,,,,,,,,,,,,,,,,,,,,,,,,,,,,,,,a,6.434000015,BREA,FALSE,,,,,,,110,berenar,Catalan,Sounds/cat_berenar.mp3,2020-06-12_20h49.37.894,TranslationElicitation_eng-prolific,3.2.4,Win32,60,5cad1eef8ed53d00180d2532,,1,0,81,5,1,80
,,,,,,,,,,,,,,,,,,,,,,,,,,,,,,,,,,,,,,,,,k,6.598999977,BREAK,FALSE,,,,,,,110,berenar,Catalan,Sounds/cat_berenar.mp3,2020-06-12_20h49.37.894,TranslationElicitation_eng-prolific,3.2.4,Win32,60,5cad1eef8ed53d00180d2532,,1,0,81,5,1,80
,,,,,,,,,,,,,,,,,,,,,,,,,,,,,,,,,,,,,,,,,f,6.81400013,BREAKF,FALSE,,,,,,,110,berenar,Catalan,Sounds/cat_berenar.mp3,2020-06-12_20h49.37.894,TranslationElicitation_eng-prolific,3.2.4,Win32,60,5cad1eef8ed53d00180d2532,,1,0,81,5,1,80
,,,,,,,,,,,,,,,,,,,,,,,,,,,,,,,,,,,,,,,,,a,7.046000004,BREAKFA,FALSE,,,,,,,110,berenar,Catalan,Sounds/cat_berenar.mp3,2020-06-12_20h49.37.894,TranslationElicitation_eng-prolific,3.2.4,Win32,60,5cad1eef8ed53d00180d2532,,1,0,81,5,1,80
,,,,,,,,,,,,,,,,,,,,,,,,,,,,,,,,,,,,,,,,,s,7.213000059,BREAKFAS,FALSE,,,,,,,110,berenar,Catalan,Sounds/cat_berenar.mp3,2020-06-12_20h49.37.894,TranslationElicitation_eng-prolific,3.2.4,Win32,60,5cad1eef8ed53d00180d2532,,1,0,81,5,1,80
,,,,,,,,,,,,,,,,,,,,,,,,,,,,,,,,,,,,,,,,,t,7.50999999,BREAKFAST,FALSE,,,,,,,110,berenar,Catalan,Sounds/cat_berenar.mp3,2020-06-12_20h49.37.894,TranslationElicitation_eng-prolific,3.2.4,Win32,60,5cad1eef8ed53d00180d2532,,1,0,81,5,1,80
,,,,,,,,,,,,,,,,,,,,,,,,,,,,,,,,,,,,,,,,,return,7.703000069,BREAKFAST,FALSE,,,,,,,110,berenar,Catalan,Sounds/cat_berenar.mp3,2020-06-12_20h49.37.894,TranslationElicitation_eng-prolific,3.2.4,Win32,60,5cad1eef8ed53d00180d2532,7.703000069,1,0,81,5,1,80
,,,,,,,,,,,,,,,,,,,,,,,,,,,,,,,,,,,,,,,,,,,,,,,,,,,110,berenar,Catalan,Sounds/cat_berenar.mp3,2020-06-12_20h49.37.894,TranslationElicitation_eng-prolific,3.2.4,Win32,60,5cad1eef8ed53d00180d2532,,1,0,81,5,1,80
,,,,,,,,,,,,,,,,,,,,,,,,,,,,,,,,,,,,,,,,,b,11.68799996,B,FALSE,,,,,,,135,formiga,Catalan,Sounds/cat_formiga.mp3,2020-06-12_20h49.37.894,TranslationElicitation_eng-prolific,3.2.4,Win32,60,5cad1eef8ed53d00180d2532,,1,0,81,29,1,80
,,,,,,,,,,,,,,,,,,,,,,,,,,,,,,,,,,,,,,,,,a,12.07099986,BA,FALSE,,,,,,,135,formiga,Catalan,Sounds/cat_formiga.mp3,2020-06-12_20h49.37.894,TranslationElicitation_eng-prolific,3.2.4,Win32,60,5cad1eef8ed53d00180d2532,,1,0,81,29,1,80
,,,,,,,,,,,,,,,,,,,,,,,,,,,,,,,,,,,,,,,,,l,12.33399987,BAL,FALSE,,,,,,,135,formiga,Catalan,Sounds/cat_formiga.mp3,2020-06-12_20h49.37.894,TranslationElicitation_eng-prolific,3.2.4,Win32,60,5cad1eef8ed53d00180d2532,,1,0,81,29,1,80
,,,,,,,,,,,,,,,,,,,,,,,,,,,,,,,,,,,,,,,,,l,12.53299999,BALL,FALSE,,,,,,,135,formiga,Catalan,Sounds/cat_formiga.mp3,2020-06-12_20h49.37.894,TranslationElicitation_eng-prolific,3.2.4,Win32,60,5cad1eef8ed53d00180d2532,,1,0,81,29,1,80
,,,,,,,,,,,,,,,,,,,,,,,,,,,,,,,,,,,,,,,,,return,12.91599989,BALL,FALSE,,,,,,,135,formiga,Catalan,Sounds/cat_formiga.mp3,2020-06-12_20h49.37.894,TranslationElicitation_eng-prolific,3.2.4,Win32,60,5cad1eef8ed53d00180d2532,12.91599989,1,0,81,29,1,80
,,,,,,,,,,,,,,,,,,,,,,,,,,,,,,,,,,,,,,,,,,,,,,,,,,,135,formiga,Catalan,Sounds/cat_formiga.mp3,2020-06-12_20h49.37.894,TranslationElicitation_eng-prolific,3.2.4,Win32,60,5cad1eef8ed53d00180d2532,,1,0,81,29,1,80
,,,,,,,,,,,,,,,,,,,,,,,,,,,,,,,,,,,,,,,,,t,2.750999928,T,FALSE,,,,,,,183,tren,Catalan,Sounds/cat_tren.mp3,2020-06-12_20h49.37.894,TranslationElicitation_eng-prolific,3.2.4,Win32,60,5cad1eef8ed53d00180d2532,,1,0,81,74,1,80
,,,,,,,,,,,,,,,,,,,,,,,,,,,,,,,,,,,,,,,,,r,2.932999849,TR,FALSE,,,,,,,183,tren,Catalan,Sounds/cat_tren.mp3,2020-06-12_20h49.37.894,TranslationElicitation_eng-prolific,3.2.4,Win32,60,5cad1eef8ed53d00180d2532,,1,0,81,74,1,80
,,,,,,,,,,,,,,,,,,,,,,,,,,,,,,,,,,,,,,,,,a,3.197999954,TRA,FALSE,,,,,,,183,tren,Catalan,Sounds/cat_tren.mp3,2020-06-12_20h49.37.894,TranslationElicitation_eng-prolific,3.2.4,Win32,60,5cad1eef8ed53d00180d2532,,1,0,81,74,1,80
,,,,,,,,,,,,,,,,,,,,,,,,,,,,,,,,,,,,,,,,,i,3.299999952,TRAI,FALSE,,,,,,,183,tren,Catalan,Sounds/cat_tren.mp3,2020-06-12_20h49.37.894,TranslationElicitation_eng-prolific,3.2.4,Win32,60,5cad1eef8ed53d00180d2532,,1,0,81,74,1,80
,,,,,,,,,,,,,,,,,,,,,,,,,,,,,,,,,,,,,,,,,n,3.463999987,TRAIN,FALSE,,,,,,,183,tren,Catalan,Sounds/cat_tren.mp3,2020-06-12_20h49.37.894,TranslationElicitation_eng-prolific,3.2.4,Win32,60,5cad1eef8ed53d00180d2532,,1,0,81,74,1,80
,,,,,,,,,,,,,,,,,,,,,,,,,,,,,,,,,,,,,,,,,return,3.718999863,TRAIN,FALSE,,,,,,,183,tren,Catalan,Sounds/cat_tren.mp3,2020-06-12_20h49.37.894,TranslationElicitation_eng-prolific,3.2.4,Win32,60,5cad1eef8ed53d00180d2532,3.718999863,1,0,81,74,1,80
,,,,,,,,,,,,,,,,,,,,,,,,,,,,,,,,,,,,,,,,,,,,,,,,,,,183,tren,Catalan,Sounds/cat_tren.mp3,2020-06-12_20h49.37.894,TranslationElicitation_eng-prolific,3.2.4,Win32,60,5cad1eef8ed53d00180d2532,,1,0,81,74,1,80
,,,,,,,,,,,,,,,,,,,,,,,,,,,,,,,,,,,,,,,,,g,1.507999897,G,FALSE,,,,,,,142,girafa,Catalan,Sounds/cat_girafa.mp3,2020-06-12_20h49.37.894,TranslationElicitation_eng-prolific,3.2.4,Win32,60,5cad1eef8ed53d00180d2532,,1,0,81,36,1,80
,,,,,,,,,,,,,,,,,,,,,,,,,,,,,,,,,,,,,,,,,i,1.756999969,GI,FALSE,,,,,,,142,girafa,Catalan,Sounds/cat_girafa.mp3,2020-06-12_20h49.37.894,TranslationElicitation_eng-prolific,3.2.4,Win32,60,5cad1eef8ed53d00180d2532,,1,0,81,36,1,80
,,,,,,,,,,,,,,,,,,,,,,,,,,,,,,,,,,,,,,,,,r,1.905999899,GIR,FALSE,,,,,,,142,girafa,Catalan,Sounds/cat_girafa.mp3,2020-06-12_20h49.37.894,TranslationElicitation_eng-prolific,3.2.4,Win32,60,5cad1eef8ed53d00180d2532,,1,0,81,36,1,80
,,,,,,,,,,,,,,,,,,,,,,,,,,,,,,,,,,,,,,,,,a,2.204999924,GIRA,FALSE,,,,,,,142,girafa,Catalan,Sounds/cat_girafa.mp3,2020-06-12_20h49.37.894,TranslationElicitation_eng-prolific,3.2.4,Win32,60,5cad1eef8ed53d00180d2532,,1,0,81,36,1,80
,,,,,,,,,,,,,,,,,,,,,,,,,,,,,,,,,,,,,,,,,f,2.437000036,GIRAF,FALSE,,,,,,,142,girafa,Catalan,Sounds/cat_girafa.mp3,2020-06-12_20h49.37.894,TranslationElicitation_eng-prolific,3.2.4,Win32,60,5cad1eef8ed53d00180d2532,,1,0,81,36,1,80
,,,,,,,,,,,,,,,,,,,,,,,,,,,,,,,,,,,,,,,,,f,2.601999998,GIRAFF,FALSE,,,,,,,142,girafa,Catalan,Sounds/cat_girafa.mp3,2020-06-12_20h49.37.894,TranslationElicitation_eng-prolific,3.2.4,Win32,60,5cad1eef8ed53d00180d2532,,1,0,81,36,1,80
,,,,,,,,,,,,,,,,,,,,,,,,,,,,,,,,,,,,,,,,,e,2.805999994,GIRAFFE,FALSE,,,,,,,142,girafa,Catalan,Sounds/cat_girafa.mp3,2020-06-12_20h49.37.894,TranslationElicitation_eng-prolific,3.2.4,Win32,60,5cad1eef8ed53d00180d2532,,1,0,81,36,1,80
,,,,,,,,,,,,,,,,,,,,,,,,,,,,,,,,,,,,,,,,,return,3.154000044,GIRAFFE,FALSE,,,,,,,142,girafa,Catalan,Sounds/cat_girafa.mp3,2020-06-12_20h49.37.894,TranslationElicitation_eng-prolific,3.2.4,Win32,60,5cad1eef8ed53d00180d2532,3.154000044,1,0,81,36,1,80
,,,,,,,,,,,,,,,,,,,,,,,,,,,,,,,,,,,,,,,,,,,,,,,,,,,142,girafa,Catalan,Sounds/cat_girafa.mp3,2020-06-12_20h49.37.894,TranslationElicitation_eng-prolific,3.2.4,Win32,60,5cad1eef8ed53d00180d2532,,1,0,81,36,1,80
,,,,,,,,,,,,,,,,,,,,,,,,,,,,,,,,,,,,,,,,,t,5.20600009,T,FALSE,,,,,,,182,tomaquet,Catalan,Sounds/cat_tomaquet.mp3,2020-06-12_20h49.37.894,TranslationElicitation_eng-prolific,3.2.4,Win32,60,5cad1eef8ed53d00180d2532,,1,0,81,73,1,80
,,,,,,,,,,,,,,,,,,,,,,,,,,,,,,,,,,,,,,,,,o,5.338999987,TO,FALSE,,,,,,,182,tomaquet,Catalan,Sounds/cat_tomaquet.mp3,2020-06-12_20h49.37.894,TranslationElicitation_eng-prolific,3.2.4,Win32,60,5cad1eef8ed53d00180d2532,,1,0,81,73,1,80
,,,,,,,,,,,,,,,,,,,,,,,,,,,,,,,,,,,,,,,,,m,5.508000135,TOM,FALSE,,,,,,,182,tomaquet,Catalan,Sounds/cat_tomaquet.mp3,2020-06-12_20h49.37.894,TranslationElicitation_eng-prolific,3.2.4,Win32,60,5cad1eef8ed53d00180d2532,,1,0,81,73,1,80
,,,,,,,,,,,,,,,,,,,,,,,,,,,,,,,,,,,,,,,,,a,5.605000019,TOMA,FALSE,,,,,,,182,tomaquet,Catalan,Sounds/cat_tomaquet.mp3,2020-06-12_20h49.37.894,TranslationElicitation_eng-prolific,3.2.4,Win32,60,5cad1eef8ed53d00180d2532,,1,0,81,73,1,80
,,,,,,,,,,,,,,,,,,,,,,,,,,,,,,,,,,,,,,,,,t,5.869000196,TOMAT,FALSE,,,,,,,182,tomaquet,Catalan,Sounds/cat_tomaquet.mp3,2020-06-12_20h49.37.894,TranslationElicitation_eng-prolific,3.2.4,Win32,60,5cad1eef8ed53d00180d2532,,1,0,81,73,1,80
,,,,,,,,,,,,,,,,,,,,,,,,,,,,,,,,,,,,,,,,,o,5.986000061,TOMATO,FALSE,,,,,,,182,tomaquet,Catalan,Sounds/cat_tomaquet.mp3,2020-06-12_20h49.37.894,TranslationElicitation_eng-prolific,3.2.4,Win32,60,5cad1eef8ed53d00180d2532,,1,0,81,73,1,80
,,,,,,,,,,,,,,,,,,,,,,,,,,,,,,,,,,,,,,,,,return,6.236000061,TOMATO,FALSE,,,,,,,182,tomaquet,Catalan,Sounds/cat_tomaquet.mp3,2020-06-12_20h49.37.894,TranslationElicitation_eng-prolific,3.2.4,Win32,60,5cad1eef8ed53d00180d2532,6.236000061,1,0,81,73,1,80
,,,,,,,,,,,,,,,,,,,,,,,,,,,,,,,,,,,,,,,,,,,,,,,,,,,182,tomaquet,Catalan,Sounds/cat_tomaquet.mp3,2020-06-12_20h49.37.894,TranslationElicitation_eng-prolific,3.2.4,Win32,60,5cad1eef8ed53d00180d2532,,1,0,81,73,1,80
,,,,,,,,,,,,,,,,,,,,,,,,,,,,,,,,,,,,,,,,,p,1.325999975,P,FALSE,,,,,,,164,patata,Catalan,Sounds/cat_patata.mp3,2020-06-12_20h49.37.894,TranslationElicitation_eng-prolific,3.2.4,Win32,60,5cad1eef8ed53d00180d2532,,1,0,81,56,1,80
,,,,,,,,,,,,,,,,,,,,,,,,,,,,,,,,,,,,,,,,,o,1.542000055,PO,FALSE,,,,,,,164,patata,Catalan,Sounds/cat_patata.mp3,2020-06-12_20h49.37.894,TranslationElicitation_eng-prolific,3.2.4,Win32,60,5cad1eef8ed53d00180d2532,,1,0,81,56,1,80
,,,,,,,,,,,,,,,,,,,,,,,,,,,,,,,,,,,,,,,,,t,1.789999962,POT,FALSE,,,,,,,164,patata,Catalan,Sounds/cat_patata.mp3,2020-06-12_20h49.37.894,TranslationElicitation_eng-prolific,3.2.4,Win32,60,5cad1eef8ed53d00180d2532,,1,0,81,56,1,80
,,,,,,,,,,,,,,,,,,,,,,,,,,,,,,,,,,,,,,,,,a,2.023999929,POTA,FALSE,,,,,,,164,patata,Catalan,Sounds/cat_patata.mp3,2020-06-12_20h49.37.894,TranslationElicitation_eng-prolific,3.2.4,Win32,60,5cad1eef8ed53d00180d2532,,1,0,81,56,1,80
,,,,,,,,,,,,,,,,,,,,,,,,,,,,,,,,,,,,,,,,,t,2.371000051,POTAT,FALSE,,,,,,,164,patata,Catalan,Sounds/cat_patata.mp3,2020-06-12_20h49.37.894,TranslationElicitation_eng-prolific,3.2.4,Win32,60,5cad1eef8ed53d00180d2532,,1,0,81,56,1,80
,,,,,,,,,,,,,,,,,,,,,,,,,,,,,,,,,,,,,,,,,o,2.453999996,POTATO,FALSE,,,,,,,164,patata,Catalan,Sounds/cat_patata.mp3,2020-06-12_20h49.37.894,TranslationElicitation_eng-prolific,3.2.4,Win32,60,5cad1eef8ed53d00180d2532,,1,0,81,56,1,80
,,,,,,,,,,,,,,,,,,,,,,,,,,,,,,,,,,,,,,,,,return,2.989000082,POTATO,FALSE,,,,,,,164,patata,Catalan,Sounds/cat_patata.mp3,2020-06-12_20h49.37.894,TranslationElicitation_eng-prolific,3.2.4,Win32,60,5cad1eef8ed53d00180d2532,2.989000082,1,0,81,56,1,80
,,,,,,,,,,,,,,,,,,,,,,,,,,,,,,,,,,,,,,,,,,,,,,,,,,,164,patata,Catalan,Sounds/cat_patata.mp3,2020-06-12_20h49.37.894,TranslationElicitation_eng-prolific,3.2.4,Win32,60,5cad1eef8ed53d00180d2532,,1,0,81,56,1,80
,,,,,,,,,,,,,,,,,,,,,,,,,,,,,,,,,,,,,,,,,c,1.427000046,C,FALSE,,,,,,,188,xocolata,Catalan,Sounds/cat_xocolata.mp3,2020-06-12_20h49.37.894,TranslationElicitation_eng-prolific,3.2.4,Win32,60,5cad1eef8ed53d00180d2532,,1,0,81,79,1,80
,,,,,,,,,,,,,,,,,,,,,,,,,,,,,,,,,,,,,,,,,h,1.575999975,CH,FALSE,,,,,,,188,xocolata,Catalan,Sounds/cat_xocolata.mp3,2020-06-12_20h49.37.894,TranslationElicitation_eng-prolific,3.2.4,Win32,60,5cad1eef8ed53d00180d2532,,1,0,81,79,1,80
,,,,,,,,,,,,,,,,,,,,,,,,,,,,,,,,,,,,,,,,,c,1.806999922,CHC,FALSE,,,,,,,188,xocolata,Catalan,Sounds/cat_xocolata.mp3,2020-06-12_20h49.37.894,TranslationElicitation_eng-prolific,3.2.4,Win32,60,5cad1eef8ed53d00180d2532,,1,0,81,79,1,80
,,,,,,,,,,,,,,,,,,,,,,,,,,,,,,,,,,,,,,,,,o,1.955999851,CHCO,FALSE,,,,,,,188,xocolata,Catalan,Sounds/cat_xocolata.mp3,2020-06-12_20h49.37.894,TranslationElicitation_eng-prolific,3.2.4,Win32,60,5cad1eef8ed53d00180d2532,,1,0,81,79,1,80
,,,,,,,,,,,,,,,,,,,,,,,,,,,,,,,,,,,,,,,,,l,2.204999924,CHCOL,FALSE,,,,,,,188,xocolata,Catalan,Sounds/cat_xocolata.mp3,2020-06-12_20h49.37.894,TranslationElicitation_eng-prolific,3.2.4,Win32,60,5cad1eef8ed53d00180d2532,,1,0,81,79,1,80
,,,,,,,,,,,,,,,,,,,,,,,,,,,,,,,,,,,,,,,,,a,2.305000067,CHCOLA,FALSE,,,,,,,188,xocolata,Catalan,Sounds/cat_xocolata.mp3,2020-06-12_20h49.37.894,TranslationElicitation_eng-prolific,3.2.4,Win32,60,5cad1eef8ed53d00180d2532,,1,0,81,79,1,80
,,,,,,,,,,,,,,,,,,,,,,,,,,,,,,,,,,,,,,,,,backspace,2.751999855,CHCOL,TRUE,,,,,,,188,xocolata,Catalan,Sounds/cat_xocolata.mp3,2020-06-12_20h49.37.894,TranslationElicitation_eng-prolific,3.2.4,Win32,60,5cad1eef8ed53d00180d2532,,1,0,81,79,1,80
,,,,,,,,,,,,,,,,,,,,,,,,,,,,,,,,,,,,,,,,,backspace,2.917999983,CHCO,TRUE,,,,,,,188,xocolata,Catalan,Sounds/cat_xocolata.mp3,2020-06-12_20h49.37.894,TranslationElicitation_eng-prolific,3.2.4,Win32,60,5cad1eef8ed53d00180d2532,,1,0,81,79,1,80
,,,,,,,,,,,,,,,,,,,,,,,,,,,,,,,,,,,,,,,,,backspace,3.099999905,CHC,TRUE,,,,,,,188,xocolata,Catalan,Sounds/cat_xocolata.mp3,2020-06-12_20h49.37.894,TranslationElicitation_eng-prolific,3.2.4,Win32,60,5cad1eef8ed53d00180d2532,,1,0,81,79,1,80
,,,,,,,,,,,,,,,,,,,,,,,,,,,,,,,,,,,,,,,,,backspace,3.513999939,CH,TRUE,,,,,,,188,xocolata,Catalan,Sounds/cat_xocolata.mp3,2020-06-12_20h49.37.894,TranslationElicitation_eng-prolific,3.2.4,Win32,60,5cad1eef8ed53d00180d2532,,1,0,81,79,1,80
,,,,,,,,,,,,,,,,,,,,,,,,,,,,,,,,,,,,,,,,,o,4.141000032,CHO,TRUE,,,,,,,188,xocolata,Catalan,Sounds/cat_xocolata.mp3,2020-06-12_20h49.37.894,TranslationElicitation_eng-prolific,3.2.4,Win32,60,5cad1eef8ed53d00180d2532,,1,0,81,79,1,80
,,,,,,,,,,,,,,,,,,,,,,,,,,,,,,,,,,,,,,,,,c,4.243999958,CHOC,TRUE,,,,,,,188,xocolata,Catalan,Sounds/cat_xocolata.mp3,2020-06-12_20h49.37.894,TranslationElicitation_eng-prolific,3.2.4,Win32,60,5cad1eef8ed53d00180d2532,,1,0,81,79,1,80
,,,,,,,,,,,,,,,,,,,,,,,,,,,,,,,,,,,,,,,,,o,4.343999863,CHOCO,TRUE,,,,,,,188,xocolata,Catalan,Sounds/cat_xocolata.mp3,2020-06-12_20h49.37.894,TranslationElicitation_eng-prolific,3.2.4,Win32,60,5cad1eef8ed53d00180d2532,,1,0,81,79,1,80
,,,,,,,,,,,,,,,,,,,,,,,,,,,,,,,,,,,,,,,,,l,4.542000055,CHOCOL,TRUE,,,,,,,188,xocolata,Catalan,Sounds/cat_xocolata.mp3,2020-06-12_20h49.37.894,TranslationElicitation_eng-prolific,3.2.4,Win32,60,5cad1eef8ed53d00180d2532,,1,0,81,79,1,80
,,,,,,,,,,,,,,,,,,,,,,,,,,,,,,,,,,,,,,,,,a,4.65899992,CHOCOLA,TRUE,,,,,,,188,xocolata,Catalan,Sounds/cat_xocolata.mp3,2020-06-12_20h49.37.894,TranslationElicitation_eng-prolific,3.2.4,Win32,60,5cad1eef8ed53d00180d2532,,1,0,81,79,1,80
,,,,,,,,,,,,,,,,,,,,,,,,,,,,,,,,,,,,,,,,,t,5.190000057,CHOCOLAT,TRUE,,,,,,,188,xocolata,Catalan,Sounds/cat_xocolata.mp3,2020-06-12_20h49.37.894,TranslationElicitation_eng-prolific,3.2.4,Win32,60,5cad1eef8ed53d00180d2532,,1,0,81,79,1,80
,,,,,,,,,,,,,,,,,,,,,,,,,,,,,,,,,,,,,,,,,e,5.404999971,CHOCOLATE,TRUE,,,,,,,188,xocolata,Catalan,Sounds/cat_xocolata.mp3,2020-06-12_20h49.37.894,TranslationElicitation_eng-prolific,3.2.4,Win32,60,5cad1eef8ed53d00180d2532,,1,0,81,79,1,80
,,,,,,,,,,,,,,,,,,,,,,,,,,,,,,,,,,,,,,,,,return,5.987999916,CHOCOLATE,TRUE,,,,,,,188,xocolata,Catalan,Sounds/cat_xocolata.mp3,2020-06-12_20h49.37.894,TranslationElicitation_eng-prolific,3.2.4,Win32,60,5cad1eef8ed53d00180d2532,5.987999916,1,0,81,79,1,80
,,,,,,,,,,,,,,,,,,,,,,,,,,,,,,,,,,,,,,,,,,,,,,,,,,,188,xocolata,Catalan,Sounds/cat_xocolata.mp3,2020-06-12_20h49.37.894,TranslationElicitation_eng-prolific,3.2.4,Win32,60,5cad1eef8ed53d00180d2532,,1,0,81,79,1,80
,,,,,,,,,,,,,,,,,,,,,,,,,,,,,,,,,,,,,,,,,e,3.44900012,E,FALSE,,,,,,,104,abella,Catalan,Sounds/cat_abella.mp3,2020-06-12_20h49.37.894,TranslationElicitation_eng-prolific,3.2.4,Win32,60,5cad1eef8ed53d00180d2532,,1,0,81,0,1,80
,,,,,,,,,,,,,,,,,,,,,,,,,,,,,,,,,,,,,,,,,v,3.713000059,EV,FALSE,,,,,,,104,abella,Catalan,Sounds/cat_abella.mp3,2020-06-12_20h49.37.894,TranslationElicitation_eng-prolific,3.2.4,Win32,60,5cad1eef8ed53d00180d2532,,1,0,81,0,1,80
,,,,,,,,,,,,,,,,,,,,,,,,,,,,,,,,,,,,,,,,,o,4.110000134,EVO,FALSE,,,,,,,104,abella,Catalan,Sounds/cat_abella.mp3,2020-06-12_20h49.37.894,TranslationElicitation_eng-prolific,3.2.4,Win32,60,5cad1eef8ed53d00180d2532,,1,0,81,0,1,80
,,,,,,,,,,,,,,,,,,,,,,,,,,,,,,,,,,,,,,,,,c,4.259000063,EVOC,FALSE,,,,,,,104,abella,Catalan,Sounds/cat_abella.mp3,2020-06-12_20h49.37.894,TranslationElicitation_eng-prolific,3.2.4,Win32,60,5cad1eef8ed53d00180d2532,,1,0,81,0,1,80
,,,,,,,,,,,,,,,,,,,,,,,,,,,,,,,,,,,,,,,,,a,4.575999975,EVOCA,FALSE,,,,,,,104,abella,Catalan,Sounds/cat_abella.mp3,2020-06-12_20h49.37.894,TranslationElicitation_eng-prolific,3.2.4,Win32,60,5cad1eef8ed53d00180d2532,,1,0,81,0,1,80
,,,,,,,,,,,,,,,,,,,,,,,,,,,,,,,,,,,,,,,,,backspace,4.875999928,EVOC,TRUE,,,,,,,104,abella,Catalan,Sounds/cat_abella.mp3,2020-06-12_20h49.37.894,TranslationElicitation_eng-prolific,3.2.4,Win32,60,5cad1eef8ed53d00180d2532,,1,0,81,0,1,80
,,,,,,,,,,,,,,,,,,,,,,,,,,,,,,,,,,,,,,,,,backspace,4.923000097,EVO,TRUE,,,,,,,104,abella,Catalan,Sounds/cat_abella.mp3,2020-06-12_20h49.37.894,TranslationElicitation_eng-prolific,3.2.4,Win32,60,5cad1eef8ed53d00180d2532,,1,0,81,0,1,80
,,,,,,,,,,,,,,,,,,,,,,,,,,,,,,,,,,,,,,,,,backspace,5.055000067,EV,TRUE,,,,,,,104,abella,Catalan,Sounds/cat_abella.mp3,2020-06-12_20h49.37.894,TranslationElicitation_eng-prolific,3.2.4,Win32,60,5cad1eef8ed53d00180d2532,,1,0,81,0,1,80
,,,,,,,,,,,,,,,,,,,,,,,,,,,,,,,,,,,,,,,,,backspace,5.236999989,E,TRUE,,,,,,,104,abella,Catalan,Sounds/cat_abella.mp3,2020-06-12_20h49.37.894,TranslationElicitation_eng-prolific,3.2.4,Win32,60,5cad1eef8ed53d00180d2532,,1,0,81,0,1,80
,,,,,,,,,,,,,,,,,,,,,,,,,,,,,,,,,,,,,,,,,backspace,5.420000076,,TRUE,,,,,,,104,abella,Catalan,Sounds/cat_abella.mp3,2020-06-12_20h49.37.894,TranslationElicitation_eng-prolific,3.2.4,Win32,60,5cad1eef8ed53d00180d2532,,1,0,81,0,1,80
,,,,,,,,,,,,,,,,,,,,,,,,,,,,,,,,,,,,,,,,,a,5.851000071,A,TRUE,,,,,,,104,abella,Catalan,Sounds/cat_abella.mp3,2020-06-12_20h49.37.894,TranslationElicitation_eng-prolific,3.2.4,Win32,60,5cad1eef8ed53d00180d2532,,1,0,81,0,1,80
,,,,,,,,,,,,,,,,,,,,,,,,,,,,,,,,,,,,,,,,,v,6.56400013,AV,TRUE,,,,,,,104,abella,Catalan,Sounds/cat_abella.mp3,2020-06-12_20h49.37.894,TranslationElicitation_eng-prolific,3.2.4,Win32,60,5cad1eef8ed53d00180d2532,,1,0,81,0,1,80
