consentKey.keys,consentKey.rt,languageL1Key.keys,languageL1Key.rt,languageL2,languageL2OralKey.keys,languageL2OralKey.rt,languageL2WrittenKey.keys,languageL2WrittenKey.rt,languageL3OralKey.keys,languageL3OralKey.rt,languageL3WrittenKey.keys,languageL3WrittenKey.rt,languageCatalanOralKey.keys,languageCatalanOralKey.rt,languageCatalanWrittenKey.keys,languageCatalanWrittenKey.rt,languageCatalanTimeKey.keys,languageCatalanTimeKey.rt,languageSpanishOralKey.keys,languageSpanishOralKey.rt,languageSpanishWrittenKey.keys,languageSpanishWrittenKey.rt,languageSpanishTimeKey.keys,languageSpanishTimeKey.rt,age,demoSexKey.keys,demoSexKey.rt,demoEducationKey.keys,demoEducationKey.rt,city,demoVisionKey.keys,demoVisionKey.rt,demoLanguageKey.keys,demoLanguageKey.rt,setupLocationKey.keys,setupLocationKey.rt,setupNoiseKey.keys,setupNoiseKey.rt,instructionsKeys.keys,instructionsKeys.rt,keyPressed,keyPressTime,inputText,error,trialsPracticeCatalan.thisRepN,trialsPracticeCatalan.thisTrialN,trialsPracticeCatalan.thisN,trialsPracticeCatalan.thisIndex,trialsPracticeCatalan.ran,trialsPracticeCatalan.order,trial_id,word,test_language,soundfile,date,expName,psychopyVersion,OS,frameRate,participant,trialOffset,trialsCatalan.thisRepN,trialsCatalan.thisTrialN,trialsCatalan.thisN,trialsCatalan.thisIndex,trialsCatalan.ran,trialsCatalan.order
space,1.908000231,e,3.505000114,,,,,,,,,,2,12.53600001,1,4.377000093,1,6.160000086,2,7.471000195,1,3.597000122,1,10.579,22,f,5.157000065,3,5.257000208,SWINDON,y,3.413000107,n,1.615000248,1,1.878999949,1,4.919000149,space,19.30700016,p,5.549999952,P,FALSE,1,0,5,1,1,4,126,corona,Catalan,Sounds/cat_corona.mp3,2020-06-05_17h01.17.509,TranslationElicitation_eng-prolific,3.2.4,MacIntel,60,5cb77fa063c0780017857c2e,,,,,,,
,,,,,,,,,,,,,,,,,,,,,,,,,,,,,,,,,,,,,,,,,backspace,6.350000143,,TRUE,1,0,5,1,1,4,126,corona,Catalan,Sounds/cat_corona.mp3,2020-06-05_17h01.17.509,TranslationElicitation_eng-prolific,3.2.4,MacIntel,60,5cb77fa063c0780017857c2e,,,,,,,
,,,,,,,,,,,,,,,,,,,,,,,,,,,,,,,,,,,,,,,,,l,7.350000143,L,TRUE,1,0,5,1,1,4,126,corona,Catalan,Sounds/cat_corona.mp3,2020-06-05_17h01.17.509,TranslationElicitation_eng-prolific,3.2.4,MacIntel,60,5cb77fa063c0780017857c2e,,,,,,,
,,,,,,,,,,,,,,,,,,,,,,,,,,,,,,,,,,,,,,,,,e,7.433000088,LE,TRUE,1,0,5,1,1,4,126,corona,Catalan,Sounds/cat_corona.mp3,2020-06-05_17h01.17.509,TranslationElicitation_eng-prolific,3.2.4,MacIntel,60,5cb77fa063c0780017857c2e,,,,,,,
,,,,,,,,,,,,,,,,,,,,,,,,,,,,,,,,,,,,,,,,,t,7.582999945,LET,TRUE,1,0,5,1,1,4,126,corona,Catalan,Sounds/cat_corona.mp3,2020-06-05_17h01.17.509,TranslationElicitation_eng-prolific,3.2.4,MacIntel,60,5cb77fa063c0780017857c2e,,,,,,,
,,,,,,,,,,,,,,,,,,,,,,,,,,,,,,,,,,,,,,,,,s,7.850000143,LETS,TRUE,1,0,5,1,1,4,126,corona,Catalan,Sounds/cat_corona.mp3,2020-06-05_17h01.17.509,TranslationElicitation_eng-prolific,3.2.4,MacIntel,60,5cb77fa063c0780017857c2e,,,,,,,
,,,,,,,,,,,,,,,,,,,,,,,,,,,,,,,,,,,,,,,,,space,7.933000088,LETS ,TRUE,1,0,5,1,1,4,126,corona,Catalan,Sounds/cat_corona.mp3,2020-06-05_17h01.17.509,TranslationElicitation_eng-prolific,3.2.4,MacIntel,60,5cb77fa063c0780017857c2e,,,,,,,
,,,,,,,,,,,,,,,,,,,,,,,,,,,,,,,,,,,,,,,,,g,8.100000143,LETS G,TRUE,1,0,5,1,1,4,126,corona,Catalan,Sounds/cat_corona.mp3,2020-06-05_17h01.17.509,TranslationElicitation_eng-prolific,3.2.4,MacIntel,60,5cb77fa063c0780017857c2e,,,,,,,
,,,,,,,,,,,,,,,,,,,,,,,,,,,,,,,,,,,,,,,,,o,8.200000048,LETS GO,TRUE,1,0,5,1,1,4,126,corona,Catalan,Sounds/cat_corona.mp3,2020-06-05_17h01.17.509,TranslationElicitation_eng-prolific,3.2.4,MacIntel,60,5cb77fa063c0780017857c2e,,,,,,,
,,,,,,,,,,,,,,,,,,,,,,,,,,,,,,,,,,,,,,,,,return,8.651000023,LETS GO,TRUE,1,0,5,1,1,4,126,corona,Catalan,Sounds/cat_corona.mp3,2020-06-05_17h01.17.509,TranslationElicitation_eng-prolific,3.2.4,MacIntel,60,5cb77fa063c0780017857c2e,8.651000023,,,,,,
,,,,,,,,,,,,,,,,,,,,,,,,,,,,,,,,,,,,,,,,,,,,,1,0,5,1,1,4,126,corona,Catalan,Sounds/cat_corona.mp3,2020-06-05_17h01.17.509,TranslationElicitation_eng-prolific,3.2.4,MacIntel,60,5cb77fa063c0780017857c2e,,,,,,,
,,,,,,,,,,,,,,,,,,,,,,,,,,,,,,,,,,,,,,,,,t,4.367000103,T,FALSE,1,0,5,4,1,4,179,tigre,Catalan,Sounds/cat_tigre.mp3,2020-06-05_17h01.17.509,TranslationElicitation_eng-prolific,3.2.4,MacIntel,60,5cb77fa063c0780017857c2e,,,,,,,
,,,,,,,,,,,,,,,,,,,,,,,,,,,,,,,,,,,,,,,,,o,4.499000072,TO,FALSE,1,0,5,4,1,4,179,tigre,Catalan,Sounds/cat_tigre.mp3,2020-06-05_17h01.17.509,TranslationElicitation_eng-prolific,3.2.4,MacIntel,60,5cb77fa063c0780017857c2e,,,,,,,
,,,,,,,,,,,,,,,,,,,,,,,,,,,,,,,,,,,,,,,,,d,4.667000055,TOD,FALSE,1,0,5,4,1,4,179,tigre,Catalan,Sounds/cat_tigre.mp3,2020-06-05_17h01.17.509,TranslationElicitation_eng-prolific,3.2.4,MacIntel,60,5cb77fa063c0780017857c2e,,,,,,,
,,,,,,,,,,,,,,,,,,,,,,,,,,,,,,,,,,,,,,,,,a,4.75,TODA,FALSE,1,0,5,4,1,4,179,tigre,Catalan,Sounds/cat_tigre.mp3,2020-06-05_17h01.17.509,TranslationElicitation_eng-prolific,3.2.4,MacIntel,60,5cb77fa063c0780017857c2e,,,,,,,
,,,,,,,,,,,,,,,,,,,,,,,,,,,,,,,,,,,,,,,,,y,4.865999937,TODAY,FALSE,1,0,5,4,1,4,179,tigre,Catalan,Sounds/cat_tigre.mp3,2020-06-05_17h01.17.509,TranslationElicitation_eng-prolific,3.2.4,MacIntel,60,5cb77fa063c0780017857c2e,,,,,,,
,,,,,,,,,,,,,,,,,,,,,,,,,,,,,,,,,,,,,,,,,return,5.132999897,TODAY,FALSE,1,0,5,4,1,4,179,tigre,Catalan,Sounds/cat_tigre.mp3,2020-06-05_17h01.17.509,TranslationElicitation_eng-prolific,3.2.4,MacIntel,60,5cb77fa063c0780017857c2e,5.132999897,,,,,,
,,,,,,,,,,,,,,,,,,,,,,,,,,,,,,,,,,,,,,,,,,,,,1,0,5,4,1,4,179,tigre,Catalan,Sounds/cat_tigre.mp3,2020-06-05_17h01.17.509,TranslationElicitation_eng-prolific,3.2.4,MacIntel,60,5cb77fa063c0780017857c2e,,,,,,,
,,,,,,,,,,,,,,,,,,,,,,,,,,,,,,,,,,,,,,,,,a,3.432999849,A,FALSE,1,0,5,0,1,4,109,arbre,Catalan,Sounds/cat_arbre.mp3,2020-06-05_17h01.17.509,TranslationElicitation_eng-prolific,3.2.4,MacIntel,60,5cb77fa063c0780017857c2e,,,,,,,
,,,,,,,,,,,,,,,,,,,,,,,,,,,,,,,,,,,,,,,,,w,3.667000055,AW,FALSE,1,0,5,0,1,4,109,arbre,Catalan,Sounds/cat_arbre.mp3,2020-06-05_17h01.17.509,TranslationElicitation_eng-prolific,3.2.4,MacIntel,60,5cb77fa063c0780017857c2e,,,,,,,
,,,,,,,,,,,,,,,,,,,,,,,,,,,,,,,,,,,,,,,,,a,3.849999905,AWA,FALSE,1,0,5,0,1,4,109,arbre,Catalan,Sounds/cat_arbre.mp3,2020-06-05_17h01.17.509,TranslationElicitation_eng-prolific,3.2.4,MacIntel,60,5cb77fa063c0780017857c2e,,,,,,,
,,,,,,,,,,,,,,,,,,,,,,,,,,,,,,,,,,,,,,,,,y,3.948999882,AWAY,FALSE,1,0,5,0,1,4,109,arbre,Catalan,Sounds/cat_arbre.mp3,2020-06-05_17h01.17.509,TranslationElicitation_eng-prolific,3.2.4,MacIntel,60,5cb77fa063c0780017857c2e,,,,,,,
,,,,,,,,,,,,,,,,,,,,,,,,,,,,,,,,,,,,,,,,,return,4.23300004,AWAY,FALSE,1,0,5,0,1,4,109,arbre,Catalan,Sounds/cat_arbre.mp3,2020-06-05_17h01.17.509,TranslationElicitation_eng-prolific,3.2.4,MacIntel,60,5cb77fa063c0780017857c2e,4.23300004,,,,,,
,,,,,,,,,,,,,,,,,,,,,,,,,,,,,,,,,,,,,,,,,,,,,1,0,5,0,1,4,109,arbre,Catalan,Sounds/cat_arbre.mp3,2020-06-05_17h01.17.509,TranslationElicitation_eng-prolific,3.2.4,MacIntel,60,5cb77fa063c0780017857c2e,,,,,,,
,,,,,,,,,,,,,,,,,,,,,,,,,,,,,,,,,,,,,,,,,j,1.866999865,J,FALSE,1,0,5,2,1,4,147,jaqueta,Catalan,Sounds/cat_jaqueta.mp3,2020-06-05_17h01.17.509,TranslationElicitation_eng-prolific,3.2.4,MacIntel,60,5cb77fa063c0780017857c2e,,,,,,,
,,,,,,,,,,,,,,,,,,,,,,,,,,,,,,,,,,,,,,,,,a,1.983999968,JA,FALSE,1,0,5,2,1,4,147,jaqueta,Catalan,Sounds/cat_jaqueta.mp3,2020-06-05_17h01.17.509,TranslationElicitation_eng-prolific,3.2.4,MacIntel,60,5cb77fa063c0780017857c2e,,,,,,,
,,,,,,,,,,,,,,,,,,,,,,,,,,,,,,,,,,,,,,,,,c,2.232999802,JAC,FALSE,1,0,5,2,1,4,147,jaqueta,Catalan,Sounds/cat_jaqueta.mp3,2020-06-05_17h01.17.509,TranslationElicitation_eng-prolific,3.2.4,MacIntel,60,5cb77fa063c0780017857c2e,,,,,,,
,,,,,,,,,,,,,,,,,,,,,,,,,,,,,,,,,,,,,,,,,k,2.332999945,JACK,FALSE,1,0,5,2,1,4,147,jaqueta,Catalan,Sounds/cat_jaqueta.mp3,2020-06-05_17h01.17.509,TranslationElicitation_eng-prolific,3.2.4,MacIntel,60,5cb77fa063c0780017857c2e,,,,,,,
,,,,,,,,,,,,,,,,,,,,,,,,,,,,,,,,,,,,,,,,,e,2.467000008,JACKE,FALSE,1,0,5,2,1,4,147,jaqueta,Catalan,Sounds/cat_jaqueta.mp3,2020-06-05_17h01.17.509,TranslationElicitation_eng-prolific,3.2.4,MacIntel,60,5cb77fa063c0780017857c2e,,,,,,,
,,,,,,,,,,,,,,,,,,,,,,,,,,,,,,,,,,,,,,,,,t,2.616999865,JACKET,FALSE,1,0,5,2,1,4,147,jaqueta,Catalan,Sounds/cat_jaqueta.mp3,2020-06-05_17h01.17.509,TranslationElicitation_eng-prolific,3.2.4,MacIntel,60,5cb77fa063c0780017857c2e,,,,,,,
,,,,,,,,,,,,,,,,,,,,,,,,,,,,,,,,,,,,,,,,,return,2.949999809,JACKET,FALSE,1,0,5,2,1,4,147,jaqueta,Catalan,Sounds/cat_jaqueta.mp3,2020-06-05_17h01.17.509,TranslationElicitation_eng-prolific,3.2.4,MacIntel,60,5cb77fa063c0780017857c2e,2.949999809,,,,,,
,,,,,,,,,,,,,,,,,,,,,,,,,,,,,,,,,,,,,,,,,,,,,1,0,5,2,1,4,147,jaqueta,Catalan,Sounds/cat_jaqueta.mp3,2020-06-05_17h01.17.509,TranslationElicitation_eng-prolific,3.2.4,MacIntel,60,5cb77fa063c0780017857c2e,,,,,,,
,,,,,,,,,,,,,,,,,,,,,,,,,,,,,,,,,,,,,,,,,o,4.415999889,O,FALSE,1,0,5,3,1,4,159,onada,Catalan,Sounds/cat_onada.mp3,2020-06-05_17h01.17.509,TranslationElicitation_eng-prolific,3.2.4,MacIntel,60,5cb77fa063c0780017857c2e,,,,,,,
,,,,,,,,,,,,,,,,,,,,,,,,,,,,,,,,,,,,,,,,,k,4.5,OK,FALSE,1,0,5,3,1,4,159,onada,Catalan,Sounds/cat_onada.mp3,2020-06-05_17h01.17.509,TranslationElicitation_eng-prolific,3.2.4,MacIntel,60,5cb77fa063c0780017857c2e,,,,,,,
,,,,,,,,,,,,,,,,,,,,,,,,,,,,,,,,,,,,,,,,,a,4.682999849,OKA,FALSE,1,0,5,3,1,4,159,onada,Catalan,Sounds/cat_onada.mp3,2020-06-05_17h01.17.509,TranslationElicitation_eng-prolific,3.2.4,MacIntel,60,5cb77fa063c0780017857c2e,,,,,,,
,,,,,,,,,,,,,,,,,,,,,,,,,,,,,,,,,,,,,,,,,y,4.799999952,OKAY,FALSE,1,0,5,3,1,4,159,onada,Catalan,Sounds/cat_onada.mp3,2020-06-05_17h01.17.509,TranslationElicitation_eng-prolific,3.2.4,MacIntel,60,5cb77fa063c0780017857c2e,,,,,,,
,,,,,,,,,,,,,,,,,,,,,,,,,,,,,,,,,,,,,,,,,return,5.066999912,OKAY,FALSE,1,0,5,3,1,4,159,onada,Catalan,Sounds/cat_onada.mp3,2020-06-05_17h01.17.509,TranslationElicitation_eng-prolific,3.2.4,MacIntel,60,5cb77fa063c0780017857c2e,5.066999912,,,,,,
,,,,,,,,,,,,,,,,,,,,,,,,,,,,,,,,,,,,,,,,,,,,,1,0,5,3,1,4,159,onada,Catalan,Sounds/cat_onada.mp3,2020-06-05_17h01.17.509,TranslationElicitation_eng-prolific,3.2.4,MacIntel,60,5cb77fa063c0780017857c2e,,,,,,,
,,,,,,,,,,,,,,,,,,,,,,,,,,,,,,,,,,,,,,,,,g,8.483999968,G,FALSE,,,,,,,114,bol,Catalan,Sounds/cat_bol.mp3,2020-06-05_17h01.17.509,TranslationElicitation_eng-prolific,3.2.4,MacIntel,60,5cb77fa063c0780017857c2e,,1,0,81,9,1,80
,,,,,,,,,,,,,,,,,,,,,,,,,,,,,,,,,,,,,,,,,o,8.549999952,GO,FALSE,,,,,,,114,bol,Catalan,Sounds/cat_bol.mp3,2020-06-05_17h01.17.509,TranslationElicitation_eng-prolific,3.2.4,MacIntel,60,5cb77fa063c0780017857c2e,,1,0,81,9,1,80
,,,,,,,,,,,,,,,,,,,,,,,,,,,,,,,,,,,,,,,,,return,8.700000048,GO,FALSE,,,,,,,114,bol,Catalan,Sounds/cat_bol.mp3,2020-06-05_17h01.17.509,TranslationElicitation_eng-prolific,3.2.4,MacIntel,60,5cb77fa063c0780017857c2e,8.700000048,1,0,81,9,1,80
,,,,,,,,,,,,,,,,,,,,,,,,,,,,,,,,,,,,,,,,,,,,,,,,,,,114,bol,Catalan,Sounds/cat_bol.mp3,2020-06-05_17h01.17.509,TranslationElicitation_eng-prolific,3.2.4,MacIntel,60,5cb77fa063c0780017857c2e,,1,0,81,9,1,80
,,,,,,,,,,,,,,,,,,,,,,,,,,,,,,,,,,,,,,,,,p,4.967999935,P,FALSE,,,,,,,171,pollastre,Catalan,Sounds/cat_pollastre.mp3,2020-06-05_17h01.17.509,TranslationElicitation_eng-prolific,3.2.4,MacIntel,60,5cb77fa063c0780017857c2e,,1,0,81,63,1,80
,,,,,,,,,,,,,,,,,,,,,,,,,,,,,,,,,,,,,,,,,u,5.233999968,PU,FALSE,,,,,,,171,pollastre,Catalan,Sounds/cat_pollastre.mp3,2020-06-05_17h01.17.509,TranslationElicitation_eng-prolific,3.2.4,MacIntel,60,5cb77fa063c0780017857c2e,,1,0,81,63,1,80
,,,,,,,,,,,,,,,,,,,,,,,,,,,,,,,,,,,,,,,,,l,5.434000015,PUL,FALSE,,,,,,,171,pollastre,Catalan,Sounds/cat_pollastre.mp3,2020-06-05_17h01.17.509,TranslationElicitation_eng-prolific,3.2.4,MacIntel,60,5cb77fa063c0780017857c2e,,1,0,81,63,1,80
,,,,,,,,,,,,,,,,,,,,,,,,,,,,,,,,,,,,,,,,,l,5.55099988,PULL,FALSE,,,,,,,171,pollastre,Catalan,Sounds/cat_pollastre.mp3,2020-06-05_17h01.17.509,TranslationElicitation_eng-prolific,3.2.4,MacIntel,60,5cb77fa063c0780017857c2e,,1,0,81,63,1,80
,,,,,,,,,,,,,,,,,,,,,,,,,,,,,,,,,,,,,,,,,return,5.750999928,PULL,FALSE,,,,,,,171,pollastre,Catalan,Sounds/cat_pollastre.mp3,2020-06-05_17h01.17.509,TranslationElicitation_eng-prolific,3.2.4,MacIntel,60,5cb77fa063c0780017857c2e,5.750999928,1,0,81,63,1,80
,,,,,,,,,,,,,,,,,,,,,,,,,,,,,,,,,,,,,,,,,,,,,,,,,,,171,pollastre,Catalan,Sounds/cat_pollastre.mp3,2020-06-05_17h01.17.509,TranslationElicitation_eng-prolific,3.2.4,MacIntel,60,5cb77fa063c0780017857c2e,,1,0,81,63,1,80
,,,,,,,,,,,,,,,,,,,,,,,,,,,,,,,,,,,,,,,,,f,4.066999912,F,FALSE,,,,,,,136,forquilla,Catalan,Sounds/cat_forquilla.mp3,2020-06-05_17h01.17.509,TranslationElicitation_eng-prolific,3.2.4,MacIntel,60,5cb77fa063c0780017857c2e,,1,0,81,30,1,80
,,,,,,,,,,,,,,,,,,,,,,,,,,,,,,,,,,,,,,,,,o,4.23300004,FO,FALSE,,,,,,,136,forquilla,Catalan,Sounds/cat_forquilla.mp3,2020-06-05_17h01.17.509,TranslationElicitation_eng-prolific,3.2.4,MacIntel,60,5cb77fa063c0780017857c2e,,1,0,81,30,1,80
,,,,,,,,,,,,,,,,,,,,,,,,,,,,,,,,,,,,,,,,,r,4.316999912,FOR,FALSE,,,,,,,136,forquilla,Catalan,Sounds/cat_forquilla.mp3,2020-06-05_17h01.17.509,TranslationElicitation_eng-prolific,3.2.4,MacIntel,60,5cb77fa063c0780017857c2e,,1,0,81,30,1,80
,,,,,,,,,,,,,,,,,,,,,,,,,,,,,,,,,,,,,,,,,k,4.434000015,FORK,FALSE,,,,,,,136,forquilla,Catalan,Sounds/cat_forquilla.mp3,2020-06-05_17h01.17.509,TranslationElicitation_eng-prolific,3.2.4,MacIntel,60,5cb77fa063c0780017857c2e,,1,0,81,30,1,80
,,,,,,,,,,,,,,,,,,,,,,,,,,,,,,,,,,,,,,,,,return,4.816999912,FORK,FALSE,,,,,,,136,forquilla,Catalan,Sounds/cat_forquilla.mp3,2020-06-05_17h01.17.509,TranslationElicitation_eng-prolific,3.2.4,MacIntel,60,5cb77fa063c0780017857c2e,4.816999912,1,0,81,30,1,80
,,,,,,,,,,,,,,,,,,,,,,,,,,,,,,,,,,,,,,,,,,,,,,,,,,,136,forquilla,Catalan,Sounds/cat_forquilla.mp3,2020-06-05_17h01.17.509,TranslationElicitation_eng-prolific,3.2.4,MacIntel,60,5cb77fa063c0780017857c2e,,1,0,81,30,1,80
,,,,,,,,,,,,,,,,,,,,,,,,,,,,,,,,,,,,,,,,,s,1.832000017,S,FALSE,,,,,,,131,esponja,Catalan,Sounds/cat_esponja.mp3,2020-06-05_17h01.17.509,TranslationElicitation_eng-prolific,3.2.4,MacIntel,60,5cb77fa063c0780017857c2e,,1,0,81,25,1,80
,,,,,,,,,,,,,,,,,,,,,,,,,,,,,,,,,,,,,,,,,p,1.965999842,SP,FALSE,,,,,,,131,esponja,Catalan,Sounds/cat_esponja.mp3,2020-06-05_17h01.17.509,TranslationElicitation_eng-prolific,3.2.4,MacIntel,60,5cb77fa063c0780017857c2e,,1,0,81,25,1,80
,,,,,,,,,,,,,,,,,,,,,,,,,,,,,,,,,,,,,,,,,o,2.05099988,SPO,FALSE,,,,,,,131,esponja,Catalan,Sounds/cat_esponja.mp3,2020-06-05_17h01.17.509,TranslationElicitation_eng-prolific,3.2.4,MacIntel,60,5cb77fa063c0780017857c2e,,1,0,81,25,1,80
,,,,,,,,,,,,,,,,,,,,,,,,,,,,,,,,,,,,,,,,,n,2.282000065,SPON,FALSE,,,,,,,131,esponja,Catalan,Sounds/cat_esponja.mp3,2020-06-05_17h01.17.509,TranslationElicitation_eng-prolific,3.2.4,MacIntel,60,5cb77fa063c0780017857c2e,,1,0,81,25,1,80
,,,,,,,,,,,,,,,,,,,,,,,,,,,,,,,,,,,,,,,,,g,2.565999985,SPONG,FALSE,,,,,,,131,esponja,Catalan,Sounds/cat_esponja.mp3,2020-06-05_17h01.17.509,TranslationElicitation_eng-prolific,3.2.4,MacIntel,60,5cb77fa063c0780017857c2e,,1,0,81,25,1,80
,,,,,,,,,,,,,,,,,,,,,,,,,,,,,,,,,,,,,,,,,e,2.598999977,SPONGE,FALSE,,,,,,,131,esponja,Catalan,Sounds/cat_esponja.mp3,2020-06-05_17h01.17.509,TranslationElicitation_eng-prolific,3.2.4,MacIntel,60,5cb77fa063c0780017857c2e,,1,0,81,25,1,80
,,,,,,,,,,,,,,,,,,,,,,,,,,,,,,,,,,,,,,,,,return,2.815999985,SPONGE,FALSE,,,,,,,131,esponja,Catalan,Sounds/cat_esponja.mp3,2020-06-05_17h01.17.509,TranslationElicitation_eng-prolific,3.2.4,MacIntel,60,5cb77fa063c0780017857c2e,2.815999985,1,0,81,25,1,80
,,,,,,,,,,,,,,,,,,,,,,,,,,,,,,,,,,,,,,,,,,,,,,,,,,,131,esponja,Catalan,Sounds/cat_esponja.mp3,2020-06-05_17h01.17.509,TranslationElicitation_eng-prolific,3.2.4,MacIntel,60,5cb77fa063c0780017857c2e,,1,0,81,25,1,80
,,,,,,,,,,,,,,,,,,,,,,,,,,,,,,,,,,,,,,,,,c,3.401000023,C,FALSE,,,,,,,122,casa,Catalan,Sounds/cat_casa.mp3,2020-06-05_17h01.17.509,TranslationElicitation_eng-prolific,3.2.4,MacIntel,60,5cb77fa063c0780017857c2e,,1,0,81,17,1,80
,,,,,,,,,,,,,,,,,,,,,,,,,,,,,,,,,,,,,,,,,a,3.51699996,CA,FALSE,,,,,,,122,casa,Catalan,Sounds/cat_casa.mp3,2020-06-05_17h01.17.509,TranslationElicitation_eng-prolific,3.2.4,MacIntel,60,5cb77fa063c0780017857c2e,,1,0,81,17,1,80
,,,,,,,,,,,,,,,,,,,,,,,,,,,,,,,,,,,,,,,,,r,3.582999945,CAR,FALSE,,,,,,,122,casa,Catalan,Sounds/cat_casa.mp3,2020-06-05_17h01.17.509,TranslationElicitation_eng-prolific,3.2.4,MacIntel,60,5cb77fa063c0780017857c2e,,1,0,81,17,1,80
,,,,,,,,,,,,,,,,,,,,,,,,,,,,,,,,,,,,,,,,,return,3.967999935,CAR,FALSE,,,,,,,122,casa,Catalan,Sounds/cat_casa.mp3,2020-06-05_17h01.17.509,TranslationElicitation_eng-prolific,3.2.4,MacIntel,60,5cb77fa063c0780017857c2e,3.967999935,1,0,81,17,1,80
,,,,,,,,,,,,,,,,,,,,,,,,,,,,,,,,,,,,,,,,,,,,,,,,,,,122,casa,Catalan,Sounds/cat_casa.mp3,2020-06-05_17h01.17.509,TranslationElicitation_eng-prolific,3.2.4,MacIntel,60,5cb77fa063c0780017857c2e,,1,0,81,17,1,80
,,,,,,,,,,,,,,,,,,,,,,,,,,,,,,,,,,,,,,,,,p,6.066999912,P,FALSE,,,,,,,143,globus,Catalan,Sounds/cat_globus.mp3,2020-06-05_17h01.17.509,TranslationElicitation_eng-prolific,3.2.4,MacIntel,60,5cb77fa063c0780017857c2e,,1,0,81,37,1,80
,,,,,,,,,,,,,,,,,,,,,,,,,,,,,,,,,,,,,,,,,backspace,6.73300004,,TRUE,,,,,,,143,globus,Catalan,Sounds/cat_globus.mp3,2020-06-05_17h01.17.509,TranslationElicitation_eng-prolific,3.2.4,MacIntel,60,5cb77fa063c0780017857c2e,,1,0,81,37,1,80
,,,,,,,,,,,,,,,,,,,,,,,,,,,,,,,,,,,,,,,,,s,7.01699996,S,TRUE,,,,,,,143,globus,Catalan,Sounds/cat_globus.mp3,2020-06-05_17h01.17.509,TranslationElicitation_eng-prolific,3.2.4,MacIntel,60,5cb77fa063c0780017857c2e,,1,0,81,37,1,80
,,,,,,,,,,,,,,,,,,,,,,,,,,,,,,,,,,,,,,,,,p,7.134000063,SP,TRUE,,,,,,,143,globus,Catalan,Sounds/cat_globus.mp3,2020-06-05_17h01.17.509,TranslationElicitation_eng-prolific,3.2.4,MacIntel,60,5cb77fa063c0780017857c2e,,1,0,81,37,1,80
,,,,,,,,,,,,,,,,,,,,,,,,,,,,,,,,,,,,,,,,,a,7.26699996,SPA,TRUE,,,,,,,143,globus,Catalan,Sounds/cat_globus.mp3,2020-06-05_17h01.17.509,TranslationElicitation_eng-prolific,3.2.4,MacIntel,60,5cb77fa063c0780017857c2e,,1,0,81,37,1,80
,,,,,,,,,,,,,,,,,,,,,,,,,,,,,,,,,,,,,,,,,c,7.600000143,SPAC,TRUE,,,,,,,143,globus,Catalan,Sounds/cat_globus.mp3,2020-06-05_17h01.17.509,TranslationElicitation_eng-prolific,3.2.4,MacIntel,60,5cb77fa063c0780017857c2e,,1,0,81,37,1,80
,,,,,,,,,,,,,,,,,,,,,,,,,,,,,,,,,,,,,,,,,e,7.76699996,SPACE,TRUE,,,,,,,143,globus,Catalan,Sounds/cat_globus.mp3,2020-06-05_17h01.17.509,TranslationElicitation_eng-prolific,3.2.4,MacIntel,60,5cb77fa063c0780017857c2e,,1,0,81,37,1,80
,,,,,,,,,,,,,,,,,,,,,,,,,,,,,,,,,,,,,,,,,return,7.884000063,SPACE,TRUE,,,,,,,143,globus,Catalan,Sounds/cat_globus.mp3,2020-06-05_17h01.17.509,TranslationElicitation_eng-prolific,3.2.4,MacIntel,60,5cb77fa063c0780017857c2e,7.884000063,1,0,81,37,1,80
,,,,,,,,,,,,,,,,,,,,,,,,,,,,,,,,,,,,,,,,,,,,,,,,,,,143,globus,Catalan,Sounds/cat_globus.mp3,2020-06-05_17h01.17.509,TranslationElicitation_eng-prolific,3.2.4,MacIntel,60,5cb77fa063c0780017857c2e,,1,0,81,37,1,80
,,,,,,,,,,,,,,,,,,,,,,,,,,,,,,,,,,,,,,,,,p,1.51699996,P,FALSE,,,,,,,164,patata,Catalan,Sounds/cat_patata.mp3,2020-06-05_17h01.17.509,TranslationElicitation_eng-prolific,3.2.4,MacIntel,60,5cb77fa063c0780017857c2e,,1,0,81,56,1,80
,,,,,,,,,,,,,,,,,,,,,,,,,,,,,,,,,,,,,,,,,o,1.617999792,PO,FALSE,,,,,,,164,patata,Catalan,Sounds/cat_patata.mp3,2020-06-05_17h01.17.509,TranslationElicitation_eng-prolific,3.2.4,MacIntel,60,5cb77fa063c0780017857c2e,,1,0,81,56,1,80
,,,,,,,,,,,,,,,,,,,,,,,,,,,,,,,,,,,,,,,,,t,2.06799984,POT,FALSE,,,,,,,164,patata,Catalan,Sounds/cat_patata.mp3,2020-06-05_17h01.17.509,TranslationElicitation_eng-prolific,3.2.4,MacIntel,60,5cb77fa063c0780017857c2e,,1,0,81,56,1,80
,,,,,,,,,,,,,,,,,,,,,,,,,,,,,,,,,,,,,,,,,a,2.150999784,POTA,FALSE,,,,,,,164,patata,Catalan,Sounds/cat_patata.mp3,2020-06-05_17h01.17.509,TranslationElicitation_eng-prolific,3.2.4,MacIntel,60,5cb77fa063c0780017857c2e,,1,0,81,56,1,80
,,,,,,,,,,,,,,,,,,,,,,,,,,,,,,,,,,,,,,,,,t,2.25,POTAT,FALSE,,,,,,,164,patata,Catalan,Sounds/cat_patata.mp3,2020-06-05_17h01.17.509,TranslationElicitation_eng-prolific,3.2.4,MacIntel,60,5cb77fa063c0780017857c2e,,1,0,81,56,1,80
,,,,,,,,,,,,,,,,,,,,,,,,,,,,,,,,,,,,,,,,,o,2.900999784,POTATO,FALSE,,,,,,,164,patata,Catalan,Sounds/cat_patata.mp3,2020-06-05_17h01.17.509,TranslationElicitation_eng-prolific,3.2.4,MacIntel,60,5cb77fa063c0780017857c2e,,1,0,81,56,1,80
,,,,,,,,,,,,,,,,,,,,,,,,,,,,,,,,,,,,,,,,,return,3.267999887,POTATO,FALSE,,,,,,,164,patata,Catalan,Sounds/cat_patata.mp3,2020-06-05_17h01.17.509,TranslationElicitation_eng-prolific,3.2.4,MacIntel,60,5cb77fa063c0780017857c2e,3.267999887,1,0,81,56,1,80
,,,,,,,,,,,,,,,,,,,,,,,,,,,,,,,,,,,,,,,,,,,,,,,,,,,164,patata,Catalan,Sounds/cat_patata.mp3,2020-06-05_17h01.17.509,TranslationElicitation_eng-prolific,3.2.4,MacIntel,60,5cb77fa063c0780017857c2e,,1,0,81,56,1,80
,,,,,,,,,,,,,,,,,,,,,,,,,,,,,,,,,,,,,,,,,b,3.000999928,B,FALSE,,,,,,,175,raspall,Catalan,Sounds/cat_raspall.mp3,2020-06-05_17h01.17.509,TranslationElicitation_eng-prolific,3.2.4,MacIntel,60,5cb77fa063c0780017857c2e,,1,0,81,67,1,80
,,,,,,,,,,,,,,,,,,,,,,,,,,,,,,,,,,,,,,,,,r,3.267999887,BR,FALSE,,,,,,,175,raspall,Catalan,Sounds/cat_raspall.mp3,2020-06-05_17h01.17.509,TranslationElicitation_eng-prolific,3.2.4,MacIntel,60,5cb77fa063c0780017857c2e,,1,0,81,67,1,80
,,,,,,,,,,,,,,,,,,,,,,,,,,,,,,,,,,,,,,,,,e,3.350999832,BRE,FALSE,,,,,,,175,raspall,Catalan,Sounds/cat_raspall.mp3,2020-06-05_17h01.17.509,TranslationElicitation_eng-prolific,3.2.4,MacIntel,60,5cb77fa063c0780017857c2e,,1,0,81,67,1,80
,,,,,,,,,,,,,,,,,,,,,,,,,,,,,,,,,,,,,,,,,a,3.56799984,BREA,FALSE,,,,,,,175,raspall,Catalan,Sounds/cat_raspall.mp3,2020-06-05_17h01.17.509,TranslationElicitation_eng-prolific,3.2.4,MacIntel,60,5cb77fa063c0780017857c2e,,1,0,81,67,1,80
,,,,,,,,,,,,,,,,,,,,,,,,,,,,,,,,,,,,,,,,,t,3.618000031,BREAT,FALSE,,,,,,,175,raspall,Catalan,Sounds/cat_raspall.mp3,2020-06-05_17h01.17.509,TranslationElicitation_eng-prolific,3.2.4,MacIntel,60,5cb77fa063c0780017857c2e,,1,0,81,67,1,80
,,,,,,,,,,,,,,,,,,,,,,,,,,,,,,,,,,,,,,,,,h,3.81799984,BREATH,FALSE,,,,,,,175,raspall,Catalan,Sounds/cat_raspall.mp3,2020-06-05_17h01.17.509,TranslationElicitation_eng-prolific,3.2.4,MacIntel,60,5cb77fa063c0780017857c2e,,1,0,81,67,1,80
,,,,,,,,,,,,,,,,,,,,,,,,,,,,,,,,,,,,,,,,,e,3.917999983,BREATHE,FALSE,,,,,,,175,raspall,Catalan,Sounds/cat_raspall.mp3,2020-06-05_17h01.17.509,TranslationElicitation_eng-prolific,3.2.4,MacIntel,60,5cb77fa063c0780017857c2e,,1,0,81,67,1,80
,,,,,,,,,,,,,,,,,,,,,,,,,,,,,,,,,,,,,,,,,return,4.233999968,BREATHE,FALSE,,,,,,,175,raspall,Catalan,Sounds/cat_raspall.mp3,2020-06-05_17h01.17.509,TranslationElicitation_eng-prolific,3.2.4,MacIntel,60,5cb77fa063c0780017857c2e,4.233999968,1,0,81,67,1,80
,,,,,,,,,,,,,,,,,,,,,,,,,,,,,,,,,,,,,,,,,,,,,,,,,,,175,raspall,Catalan,Sounds/cat_raspall.mp3,2020-06-05_17h01.17.509,TranslationElicitation_eng-prolific,3.2.4,MacIntel,60,5cb77fa063c0780017857c2e,,1,0,81,67,1,80
,,,,,,,,,,,,,,,,,,,,,,,,,,,,,,,,,,,,,,,,,c,2.583999872,C,FALSE,,,,,,,124,cirera,Catalan,Sounds/cat_cirera.mp3,2020-06-05_17h01.17.509,TranslationElicitation_eng-prolific,3.2.4,MacIntel,60,5cb77fa063c0780017857c2e,,1,0,81,19,1,80
,,,,,,,,,,,,,,,,,,,,,,,,,,,,,,,,,,,,,,,,,d,2.750999928,CD,FALSE,,,,,,,124,cirera,Catalan,Sounds/cat_cirera.mp3,2020-06-05_17h01.17.509,TranslationElicitation_eng-prolific,3.2.4,MacIntel,60,5cb77fa063c0780017857c2e,,1,0,81,19,1,80
,,,,,,,,,,,,,,,,,,,,,,,,,,,,,,,,,,,,,,,,,return,2.967999935,CD,FALSE,,,,,,,124,cirera,Catalan,Sounds/cat_cirera.mp3,2020-06-05_17h01.17.509,TranslationElicitation_eng-prolific,3.2.4,MacIntel,60,5cb77fa063c0780017857c2e,2.967999935,1,0,81,19,1,80
,,,,,,,,,,,,,,,,,,,,,,,,,,,,,,,,,,,,,,,,,,,,,,,,,,,124,cirera,Catalan,Sounds/cat_cirera.mp3,2020-06-05_17h01.17.509,TranslationElicitation_eng-prolific,3.2.4,MacIntel,60,5cb77fa063c0780017857c2e,,1,0,81,19,1,80
,,,,,,,,,,,,,,,,,,,,,,,,,,,,,,,,,,,,,,,,,t,5.75,T,FALSE,,,,,,,121,camisa,Catalan,Sounds/cat_camisa.mp3,2020-06-05_17h01.17.509,TranslationElicitation_eng-prolific,3.2.4,MacIntel,60,5cb77fa063c0780017857c2e,,1,0,81,16,1,80
,,,,,,,,,,,,,,,,,,,,,,,,,,,,,,,,,,,,,,,,,o,5.801000118,TO,FALSE,,,,,,,121,camisa,Catalan,Sounds/cat_camisa.mp3,2020-06-05_17h01.17.509,TranslationElicitation_eng-prolific,3.2.4,MacIntel,60,5cb77fa063c0780017857c2e,,1,0,81,16,1,80
,,,,,,,,,,,,,,,,,,,,,,,,,,,,,,,,,,,,,,,,,p,5.901000023,TOP,FALSE,,,,,,,121,camisa,Catalan,Sounds/cat_camisa.mp3,2020-06-05_17h01.17.509,TranslationElicitation_eng-prolific,3.2.4,MacIntel,60,5cb77fa063c0780017857c2e,,1,0,81,16,1,80
,,,,,,,,,,,,,,,,,,,,,,,,,,,,,,,,,,,,,,,,,return,6.332999945,TOP,FALSE,,,,,,,121,camisa,Catalan,Sounds/cat_camisa.mp3,2020-06-05_17h01.17.509,TranslationElicitation_eng-prolific,3.2.4,MacIntel,60,5cb77fa063c0780017857c2e,6.332999945,1,0,81,16,1,80
,,,,,,,,,,,,,,,,,,,,,,,,,,,,,,,,,,,,,,,,,,,,,,,,,,,121,camisa,Catalan,Sounds/cat_camisa.mp3,2020-06-05_17h01.17.509,TranslationElicitation_eng-prolific,3.2.4,MacIntel,60,5cb77fa063c0780017857c2e,,1,0,81,16,1,80
,,,,,,,,,,,,,,,,,,,,,,,,,,,,,,,,,,,,,,,,,e,3.767999887,E,FALSE,,,,,,,105,aigua,Catalan,Sounds/cat_aigua.mp3,2020-06-05_17h01.17.509,TranslationElicitation_eng-prolific,3.2.4,MacIntel,60,5cb77fa063c0780017857c2e,,1,0,81,1,1,80
,,,,,,,,,,,,,,,,,,,,,,,,,,,,,,,,,,,,,,,,,y,3.849999905,EY,FALSE,,,,,,,105,aigua,Catalan,Sounds/cat_aigua.mp3,2020-06-05_17h01.17.509,TranslationElicitation_eng-prolific,3.2.4,MacIntel,60,5cb77fa063c0780017857c2e,,1,0,81,1,1,80
,,,,,,,,,,,,,,,,,,,,,,,,,,,,,,,,,,,,,,,,,e,3.932999849,EYE,FALSE,,,,,,,105,aigua,Catalan,Sounds/cat_aigua.mp3,2020-06-05_17h01.17.509,TranslationElicitation_eng-prolific,3.2.4,MacIntel,60,5cb77fa063c0780017857c2e,,1,0,81,1,1,80
,,,,,,,,,,,,,,,,,,,,,,,,,,,,,,,,,,,,,,,,,return,4.099999905,EYE,FALSE,,,,,,,105,aigua,Catalan,Sounds/cat_aigua.mp3,2020-06-05_17h01.17.509,TranslationElicitation_eng-prolific,3.2.4,MacIntel,60,5cb77fa063c0780017857c2e,4.099999905,1,0,81,1,1,80
,,,,,,,,,,,,,,,,,,,,,,,,,,,,,,,,,,,,,,,,,,,,,,,,,,,105,aigua,Catalan,Sounds/cat_aigua.mp3,2020-06-05_17h01.17.509,TranslationElicitation_eng-prolific,3.2.4,MacIntel,60,5cb77fa063c0780017857c2e,,1,0,81,1,1,80
,,,,,,,,,,,,,,,,,,,,,,,,,,,,,,,,,,,,,,,,,b,4.467999935,B,FALSE,,,,,,,118,bou,Catalan,Sounds/cat_bou.mp3,2020-06-05_17h01.17.509,TranslationElicitation_eng-prolific,3.2.4,MacIntel,60,5cb77fa063c0780017857c2e,,1,0,81,13,1,80
,,,,,,,,,,,,,,,,,,,,,,,,,,,,,,,,,,,,,,,,,o,4.566999912,BO,FALSE,,,,,,,118,bou,Catalan,Sounds/cat_bou.mp3,2020-06-05_17h01.17.509,TranslationElicitation_eng-prolific,3.2.4,MacIntel,60,5cb77fa063c0780017857c2e,,1,0,81,13,1,80
,,,,,,,,,,,,,,,,,,,,,,,,,,,,,,,,,,,,,,,,,w,4.74000001,BOW,FALSE,,,,,,,118,bou,Catalan,Sounds/cat_bou.mp3,2020-06-05_17h01.17.509,TranslationElicitation_eng-prolific,3.2.4,MacIntel,60,5cb77fa063c0780017857c2e,,1,0,81,13,1,80
,,,,,,,,,,,,,,,,,,,,,,,,,,,,,,,,,,,,,,,,,l,4.867000103,BOWL,FALSE,,,,,,,118,bou,Catalan,Sounds/cat_bou.mp3,2020-06-05_17h01.17.509,TranslationElicitation_eng-prolific,3.2.4,MacIntel,60,5cb77fa063c0780017857c2e,,1,0,81,13,1,80
,,,,,,,,,,,,,,,,,,,,,,,,,,,,,,,,,,,,,,,,,i,4.98300004,BOWLI,FALSE,,,,,,,118,bou,Catalan,Sounds/cat_bou.mp3,2020-06-05_17h01.17.509,TranslationElicitation_eng-prolific,3.2.4,MacIntel,60,5cb77fa063c0780017857c2e,,1,0,81,13,1,80
,,,,,,,,,,,,,,,,,,,,,,,,,,,,,,,,,,,,,,,,,n,5.167000055,BOWLIN,FALSE,,,,,,,118,bou,Catalan,Sounds/cat_bou.mp3,2020-06-05_17h01.17.509,TranslationElicitation_eng-prolific,3.2.4,MacIntel,60,5cb77fa063c0780017857c2e,,1,0,81,13,1,80
,,,,,,,,,,,,,,,,,,,,,,,,,,,,,,,,,,,,,,,,,g,5.417000055,BOWLING,FALSE,,,,,,,118,bou,Catalan,Sounds/cat_bou.mp3,2020-06-05_17h01.17.509,TranslationElicitation_eng-prolific,3.2.4,MacIntel,60,5cb77fa063c0780017857c2e,,1,0,81,13,1,80
,,,,,,,,,,,,,,,,,,,,,,,,,,,,,,,,,,,,,,,,,return,5.485000134,BOWLING,FALSE,,,,,,,118,bou,Catalan,Sounds/cat_bou.mp3,2020-06-05_17h01.17.509,TranslationElicitation_eng-prolific,3.2.4,MacIntel,60,5cb77fa063c0780017857c2e,5.485000134,1,0,81,13,1,80
,,,,,,,,,,,,,,,,,,,,,,,,,,,,,,,,,,,,,,,,,,,,,,,,,,,118,bou,Catalan,Sounds/cat_bou.mp3,2020-06-05_17h01.17.509,TranslationElicitation_eng-prolific,3.2.4,MacIntel,60,5cb77fa063c0780017857c2e,,1,0,81,13,1,80
,,,,,,,,,,,,,,,,,,,,,,,,,,,,,,,,,,,,,,,,,t,7.651000023,T,FALSE,,,,,,,180,tisores,Catalan,Sounds/cat_tisores.mp3,2020-06-05_17h01.17.509,TranslationElicitation_eng-prolific,3.2.4,MacIntel,60,5cb77fa063c0780017857c2e,,1,0,81,71,1,80
,,,,,,,,,,,,,,,,,,,,,,,,,,,,,,,,,,,,,,,,,e,7.684000015,TE,FALSE,,,,,,,180,tisores,Catalan,Sounds/cat_tisores.mp3,2020-06-05_17h01.17.509,TranslationElicitation_eng-prolific,3.2.4,MacIntel,60,5cb77fa063c0780017857c2e,,1,0,81,71,1,80
,,,,,,,,,,,,,,,,,,,,,,,,,,,,,,,,,,,,,,,,,a,7.934000015,TEA,FALSE,,,,,,,180,tisores,Catalan,Sounds/cat_tisores.mp3,2020-06-05_17h01.17.509,TranslationElicitation_eng-prolific,3.2.4,MacIntel,60,5cb77fa063c0780017857c2e,,1,0,81,71,1,80
,,,,,,,,,,,,,,,,,,,,,,,,,,,,,,,,,,,,,,,,,return,8.151000023,TEA,FALSE,,,,,,,180,tisores,Catalan,Sounds/cat_tisores.mp3,2020-06-05_17h01.17.509,TranslationElicitation_eng-prolific,3.2.4,MacIntel,60,5cb77fa063c0780017857c2e,8.151000023,1,0,81,71,1,80
,,,,,,,,,,,,,,,,,,,,,,,,,,,,,,,,,,,,,,,,,,,,,,,,,,,180,tisores,Catalan,Sounds/cat_tisores.mp3,2020-06-05_17h01.17.509,TranslationElicitation_eng-prolific,3.2.4,MacIntel,60,5cb77fa063c0780017857c2e,,1,0,81,71,1,80
,,,,,,,,,,,,,,,,,,,,,,,,,,,,,,,,,,,,,,,,,p,3.983999968,P,FALSE,,,,,,,167,pingui,Catalan,Sounds/cat_pingui.mp3,2020-06-05_17h01.17.509,TranslationElicitation_eng-prolific,3.2.4,MacIntel,60,5cb77fa063c0780017857c2e,,1,0,81,59,1,80
,,,,,,,,,,,,,,,,,,,,,,,,,,,,,,,,,,,,,,,,,e,4.084000111,PE,FALSE,,,,,,,167,pingui,Catalan,Sounds/cat_pingui.mp3,2020-06-05_17h01.17.509,TranslationElicitation_eng-prolific,3.2.4,MacIntel,60,5cb77fa063c0780017857c2e,,1,0,81,59,1,80
,,,,,,,,,,,,,,,,,,,,,,,,,,,,,,,,,,,,,,,,,n,4.200999975,PEN,FALSE,,,,,,,167,pingui,Catalan,Sounds/cat_pingui.mp3,2020-06-05_17h01.17.509,TranslationElicitation_eng-prolific,3.2.4,MacIntel,60,5cb77fa063c0780017857c2e,,1,0,81,59,1,80
,,,,,,,,,,,,,,,,,,,,,,,,,,,,,,,,,,,,,,,,,g,4.483999968,PENG,FALSE,,,,,,,167,pingui,Catalan,Sounds/cat_pingui.mp3,2020-06-05_17h01.17.509,TranslationElicitation_eng-prolific,3.2.4,MacIntel,60,5cb77fa063c0780017857c2e,,1,0,81,59,1,80
,,,,,,,,,,,,,,,,,,,,,,,,,,,,,,,,,,,,,,,,,u,4.584000111,PENGU,FALSE,,,,,,,167,pingui,Catalan,Sounds/cat_pingui.mp3,2020-06-05_17h01.17.509,TranslationElicitation_eng-prolific,3.2.4,MacIntel,60,5cb77fa063c0780017857c2e,,1,0,81,59,1,80
,,,,,,,,,,,,,,,,,,,,,,,,,,,,,,,,,,,,,,,,,i,4.684000015,PENGUI,FALSE,,,,,,,167,pingui,Catalan,Sounds/cat_pingui.mp3,2020-06-05_17h01.17.509,TranslationElicitation_eng-prolific,3.2.4,MacIntel,60,5cb77fa063c0780017857c2e,,1,0,81,59,1,80
,,,,,,,,,,,,,,,,,,,,,,,,,,,,,,,,,,,,,,,,,n,4.868000031,PENGUIN,FALSE,,,,,,,167,pingui,Catalan,Sounds/cat_pingui.mp3,2020-06-05_17h01.17.509,TranslationElicitation_eng-prolific,3.2.4,MacIntel,60,5cb77fa063c0780017857c2e,,1,0,81,59,1,80
,,,,,,,,,,,,,,,,,,,,,,,,,,,,,,,,,,,,,,,,,return,5.384000063,PENGUIN,FALSE,,,,,,,167,pingui,Catalan,Sounds/cat_pingui.mp3,2020-06-05_17h01.17.509,TranslationElicitation_eng-prolific,3.2.4,MacIntel,60,5cb77fa063c0780017857c2e,5.384000063,1,0,81,59,1,80
,,,,,,,,,,,,,,,,,,,,,,,,,,,,,,,,,,,,,,,,,,,,,,,,,,,167,pingui,Catalan,Sounds/cat_pingui.mp3,2020-06-05_17h01.17.509,TranslationElicitation_eng-prolific,3.2.4,MacIntel,60,5cb77fa063c0780017857c2e,,1,0,81,59,1,80
,,,,,,,,,,,,,,,,,,,,,,,,,,,,,,,,,,,,,,,,,k,1.849999905,K,FALSE,,,,,,,120,cama,Catalan,Sounds/cat_cama.mp3,2020-06-05_17h01.17.509,TranslationElicitation_eng-prolific,3.2.4,MacIntel,60,5cb77fa063c0780017857c2e,,1,0,81,15,1,80
,,,,,,,,,,,,,,,,,,,,,,,,,,,,,,,,,,,,,,,,,a,1.98300004,KA,FALSE,,,,,,,120,cama,Catalan,Sounds/cat_cama.mp3,2020-06-05_17h01.17.509,TranslationElicitation_eng-prolific,3.2.4,MacIntel,60,5cb77fa063c0780017857c2e,,1,0,81,15,1,80
,,,,,,,,,,,,,,,,,,,,,,,,,,,,,,,,,,,,,,,,,r,2.167000055,KAR,FALSE,,,,,,,120,cama,Catalan,Sounds/cat_cama.mp3,2020-06-05_17h01.17.509,TranslationElicitation_eng-prolific,3.2.4,MacIntel,60,5cb77fa063c0780017857c2e,,1,0,81,15,1,80
,,,,,,,,,,,,,,,,,,,,,,,,,,,,,,,,,,,,,,,,,m,2.450000048,KARM,FALSE,,,,,,,120,cama,Catalan,Sounds/cat_cama.mp3,2020-06-05_17h01.17.509,TranslationElicitation_eng-prolific,3.2.4,MacIntel,60,5cb77fa063c0780017857c2e,,1,0,81,15,1,80
,,,,,,,,,,,,,,,,,,,,,,,,,,,,,,,,,,,,,,,,,a,2.51699996,KARMA,FALSE,,,,,,,120,cama,Catalan,Sounds/cat_cama.mp3,2020-06-05_17h01.17.509,TranslationElicitation_eng-prolific,3.2.4,MacIntel,60,5cb77fa063c0780017857c2e,,1,0,81,15,1,80
,,,,,,,,,,,,,,,,,,,,,,,,,,,,,,,,,,,,,,,,,return,2.667000055,KARMA,FALSE,,,,,,,120,cama,Catalan,Sounds/cat_cama.mp3,2020-06-05_17h01.17.509,TranslationElicitation_eng-prolific,3.2.4,MacIntel,60,5cb77fa063c0780017857c2e,2.667000055,1,0,81,15,1,80
,,,,,,,,,,,,,,,,,,,,,,,,,,,,,,,,,,,,,,,,,,,,,,,,,,,120,cama,Catalan,Sounds/cat_cama.mp3,2020-06-05_17h01.17.509,TranslationElicitation_eng-prolific,3.2.4,MacIntel,60,5cb77fa063c0780017857c2e,,1,0,81,15,1,80
,,,,,,,,,,,,,,,,,,,,,,,,,,,,,,,,,,,,,,,,,p,7.149999857,P,FALSE,,,,,,,172,poma,Catalan,Sounds/cat_poma.mp3,2020-06-05_17h01.17.509,TranslationElicitation_eng-prolific,3.2.4,MacIntel,60,5cb77fa063c0780017857c2e,,1,0,81,64,1,80
,,,,,,,,,,,,,,,,,,,,,,,,,,,,,,,,,,,,,,,,,o,7.200999975,PO,FALSE,,,,,,,172,poma,Catalan,Sounds/cat_poma.mp3,2020-06-05_17h01.17.509,TranslationElicitation_eng-prolific,3.2.4,MacIntel,60,5cb77fa063c0780017857c2e,,1,0,81,64,1,80
,,,,,,,,,,,,,,,,,,,,,,,,,,,,,,,,,,,,,,,,,u,8.434000015,POU,FALSE,,,,,,,172,poma,Catalan,Sounds/cat_poma.mp3,2020-06-05_17h01.17.509,TranslationElicitation_eng-prolific,3.2.4,MacIntel,60,5cb77fa063c0780017857c2e,,1,0,81,64,1,80
,,,,,,,,,,,,,,,,,,,,,,,,,,,,,,,,,,,,,,,,,r,8.617999792,POUR,FALSE,,,,,,,172,poma,Catalan,Sounds/cat_poma.mp3,2020-06-05_17h01.17.509,TranslationElicitation_eng-prolific,3.2.4,MacIntel,60,5cb77fa063c0780017857c2e,,1,0,81,64,1,80
,,,,,,,,,,,,,,,,,,,,,,,,,,,,,,,,,,,,,,,,,return,8.867999792,POUR,FALSE,,,,,,,172,poma,Catalan,Sounds/cat_poma.mp3,2020-06-05_17h01.17.509,TranslationElicitation_eng-prolific,3.2.4,MacIntel,60,5cb77fa063c0780017857c2e,8.867999792,1,0,81,64,1,80
,,,,,,,,,,,,,,,,,,,,,,,,,,,,,,,,,,,,,,,,,,,,,,,,,,,172,poma,Catalan,Sounds/cat_poma.mp3,2020-06-05_17h01.17.509,TranslationElicitation_eng-prolific,3.2.4,MacIntel,60,5cb77fa063c0780017857c2e,,1,0,81,64,1,80
,,,,,,,,,,,,,,,,,,,,,,,,,,,,,,,,,,,,,,,,,a,5.133000135,A,FALSE,,,,,,,130,entrepa,Catalan,Sounds/cat_entrepa.mp3,2020-06-05_17h01.17.509,TranslationElicitation_eng-prolific,3.2.4,MacIntel,60,5cb77fa063c0780017857c2e,,1,0,81,24,1,80
,,,,,,,,,,,,,,,,,,,,,,,,,,,,,,,,,,,,,,,,,n,5.150000095,AN,FALSE,,,,,,,130,entrepa,Catalan,Sounds/cat_entrepa.mp3,2020-06-05_17h01.17.509,TranslationElicitation_eng-prolific,3.2.4,MacIntel,60,5cb77fa063c0780017857c2e,,1,0,81,24,1,80
,,,,,,,,,,,,,,,,,,,,,,,,,,,,,,,,,,,,,,,,,t,5.384000063,ANT,FALSE,,,,,,,130,entrepa,Catalan,Sounds/cat_entrepa.mp3,2020-06-05_17h01.17.509,TranslationElicitation_eng-prolific,3.2.4,MacIntel,60,5cb77fa063c0780017857c2e,,1,0,81,24,1,80
,,,,,,,,,,,,,,,,,,,,,,,,,,,,,,,,,,,,,,,,,return,6.083000183,ANT,FALSE,,,,,,,130,entrepa,Catalan,Sounds/cat_entrepa.mp3,2020-06-05_17h01.17.509,TranslationElicitation_eng-prolific,3.2.4,MacIntel,60,5cb77fa063c0780017857c2e,6.083000183,1,0,81,24,1,80
,,,,,,,,,,,,,,,,,,,,,,,,,,,,,,,,,,,,,,,,,,,,,,,,,,,130,entrepa,Catalan,Sounds/cat_entrepa.mp3,2020-06-05_17h01.17.509,TranslationElicitation_eng-prolific,3.2.4,MacIntel,60,5cb77fa063c0780017857c2e,,1,0,81,24,1,80
,,,,,,,,,,,,,,,,,,,,,,,,,,,,,,,,,,,,,,,,,c,3.917999983,C,FALSE,,,,,,,138,galeta,Catalan,Sounds/cat_galeta.mp3,2020-06-05_17h01.17.509,TranslationElicitation_eng-prolific,3.2.4,MacIntel,60,5cb77fa063c0780017857c2e,,1,0,81,32,1,80
,,,,,,,,,,,,,,,,,,,,,,,,,,,,,,,,,,,,,,,,,o,4.05099988,CO,FALSE,,,,,,,138,galeta,Catalan,Sounds/cat_galeta.mp3,2020-06-05_17h01.17.509,TranslationElicitation_eng-prolific,3.2.4,MacIntel,60,5cb77fa063c0780017857c2e,,1,0,81,32,1,80
,,,,,,,,,,,,,,,,,,,,,,,,,,,,,,,,,,,,,,,,,c,4.217999935,COC,FALSE,,,,,,,138,galeta,Catalan,Sounds/cat_galeta.mp3,2020-06-05_17h01.17.509,TranslationElicitation_eng-prolific,3.2.4,MacIntel,60,5cb77fa063c0780017857c2e,,1,0,81,32,1,80
,,,,,,,,,,,,,,,,,,,,,,,,,,,,,,,,,,,,,,,,,backspace,4.651000023,CO,TRUE,,,,,,,138,galeta,Catalan,Sounds/cat_galeta.mp3,2020-06-05_17h01.17.509,TranslationElicitation_eng-prolific,3.2.4,MacIntel,60,5cb77fa063c0780017857c2e,,1,0,81,32,1,80
,,,,,,,,,,,,,,,,,,,,,,,,,,,,,,,,,,,,,,,,,l,5.05099988,COL,TRUE,,,,,,,138,galeta,Catalan,Sounds/cat_galeta.mp3,2020-06-05_17h01.17.509,TranslationElicitation_eng-prolific,3.2.4,MacIntel,60,5cb77fa063c0780017857c2e,,1,0,81,32,1,80
,,,,,,,,,,,,,,,,,,,,,,,,,,,,,,,,,,,,,,,,,l,5.13499999,COLL,TRUE,,,,,,,138,galeta,Catalan,Sounds/cat_galeta.mp3,2020-06-05_17h01.17.509,TranslationElicitation_eng-prolific,3.2.4,MacIntel,60,5cb77fa063c0780017857c2e,,1,0,81,32,1,80
,,,,,,,,,,,,,,,,,,,,,,,,,,,,,,,,,,,,,,,,,e,5.267999887,COLLE,TRUE,,,,,,,138,galeta,Catalan,Sounds/cat_galeta.mp3,2020-06-05_17h01.17.509,TranslationElicitation_eng-prolific,3.2.4,MacIntel,60,5cb77fa063c0780017857c2e,,1,0,81,32,1,80
,,,,,,,,,,,,,,,,,,,,,,,,,,,,,,,,,,,,,,,,,c,5.483999968,COLLEC,TRUE,,,,,,,138,galeta,Catalan,Sounds/cat_galeta.mp3,2020-06-05_17h01.17.509,TranslationElicitation_eng-prolific,3.2.4,MacIntel,60,5cb77fa063c0780017857c2e,,1,0,81,32,1,80
,,,,,,,,,,,,,,,,,,,,,,,,,,,,,,,,,,,,,,,,,t,5.601999998,COLLECT,TRUE,,,,,,,138,galeta,Catalan,Sounds/cat_galeta.mp3,2020-06-05_17h01.17.509,TranslationElicitation_eng-prolific,3.2.4,MacIntel,60,5cb77fa063c0780017857c2e,,1,0,81,32,1,80
,,,,,,,,,,,,,,,,,,,,,,,,,,,,,,,,,,,,,,,,,return,6.085000038,COLLECT,TRUE,,,,,,,138,galeta,Catalan,Sounds/cat_galeta.mp3,2020-06-05_17h01.17.509,TranslationElicitation_eng-prolific,3.2.4,MacIntel,60,5cb77fa063c0780017857c2e,6.085000038,1,0,81,32,1,80
,,,,,,,,,,,,,,,,,,,,,,,,,,,,,,,,,,,,,,,,,,,,,,,,,,,138,galeta,Catalan,Sounds/cat_galeta.mp3,2020-06-05_17h01.17.509,TranslationElicitation_eng-prolific,3.2.4,MacIntel,60,5cb77fa063c0780017857c2e,,1,0,81,32,1,80
,,,,,,,,,,,,,,,,,,,,,,,,,,,,,,,,,,,,,,,,,w,3.983999968,W,FALSE,,,,,,,161,ovella,Catalan,Sounds/cat_ovella.mp3,2020-06-05_17h01.17.509,TranslationElicitation_eng-prolific,3.2.4,MacIntel,60,5cb77fa063c0780017857c2e,,1,0,81,53,1,80
,,,,,,,,,,,,,,,,,,,,,,,,,,,,,,,,,,,,,,,,,a,4.151000023,WA,FALSE,,,,,,,161,ovella,Catalan,Sounds/cat_ovella.mp3,2020-06-05_17h01.17.509,TranslationElicitation_eng-prolific,3.2.4,MacIntel,60,5cb77fa063c0780017857c2e,,1,0,81,53,1,80
,,,,,,,,,,,,,,,,,,,,,,,,,,,,,,,,,,,,,,,,,y,4.233999968,WAY,FALSE,,,,,,,161,ovella,Catalan,Sounds/cat_ovella.mp3,2020-06-05_17h01.17.509,TranslationElicitation_eng-prolific,3.2.4,MacIntel,60,5cb77fa063c0780017857c2e,,1,0,81,53,1,80
,,,,,,,,,,,,,,,,,,,,,,,,,,,,,,,,,,,,,,,,,return,4.518000126,WAY,FALSE,,,,,,,161,ovella,Catalan,Sounds/cat_ovella.mp3,2020-06-05_17h01.17.509,TranslationElicitation_eng-prolific,3.2.4,MacIntel,60,5cb77fa063c0780017857c2e,4.518000126,1,0,81,53,1,80
,,,,,,,,,,,,,,,,,,,,,,,,,,,,,,,,,,,,,,,,,,,,,,,,,,,161,ovella,Catalan,Sounds/cat_ovella.mp3,2020-06-05_17h01.17.509,TranslationElicitation_eng-prolific,3.2.4,MacIntel,60,5cb77fa063c0780017857c2e,,1,0,81,53,1,80
,,,,,,,,,,,,,,,,,,,,,,,,,,,,,,,,,,,,,,,,,n,5.116999865,N,FALSE,,,,,,,158,nas,Catalan,Sounds/cat_nas.mp3,2020-06-05_17h01.17.509,TranslationElicitation_eng-prolific,3.2.4,MacIntel,60,5cb77fa063c0780017857c2e,,1,0,81,51,1,80
,,,,,,,,,,,,,,,,,,,,,,,,,,,,,,,,,,,,,,,,,e,5.417999983,NE,FALSE,,,,,,,158,nas,Catalan,Sounds/cat_nas.mp3,2020-06-05_17h01.17.509,TranslationElicitation_eng-prolific,3.2.4,MacIntel,60,5cb77fa063c0780017857c2e,,1,0,81,51,1,80
,,,,,,,,,,,,,,,,,,,,,,,,,,,,,,,,,,,,,,,,,x,5.651000023,NEX,FALSE,,,,,,,158,nas,Catalan,Sounds/cat_nas.mp3,2020-06-05_17h01.17.509,TranslationElicitation_eng-prolific,3.2.4,MacIntel,60,5cb77fa063c0780017857c2e,,1,0,81,51,1,80
,,,,,,,,,,,,,,,,,,,,,,,,,,,,,,,,,,,,,,,,,t,5.73300004,NEXT,FALSE,,,,,,,158,nas,Catalan,Sounds/cat_nas.mp3,2020-06-05_17h01.17.509,TranslationElicitation_eng-prolific,3.2.4,MacIntel,60,5cb77fa063c0780017857c2e,,1,0,81,51,1,80
,,,,,,,,,,,,,,,,,,,,,,,,,,,,,,,,,,,,,,,,,return,5.983999968,NEXT,FALSE,,,,,,,158,nas,Catalan,Sounds/cat_nas.mp3,2020-06-05_17h01.17.509,TranslationElicitation_eng-prolific,3.2.4,MacIntel,60,5cb77fa063c0780017857c2e,5.983999968,1,0,81,51,1,80
,,,,,,,,,,,,,,,,,,,,,,,,,,,,,,,,,,,,,,,,,,,,,,,,,,,158,nas,Catalan,Sounds/cat_nas.mp3,2020-06-05_17h01.17.509,TranslationElicitation_eng-prolific,3.2.4,MacIntel,60,5cb77fa063c0780017857c2e,,1,0,81,51,1,80
,,,,,,,,,,,,,,,,,,,,,,,,,,,,,,,,,,,,,,,,,b,4.71600008,B,FALSE,,,,,,,112,bici,Catalan,Sounds/cat_bici.mp3,2020-06-05_17h01.17.509,TranslationElicitation_eng-prolific,3.2.4,MacIntel,60,5cb77fa063c0780017857c2e,,1,0,81,7,1,80
,,,,,,,,,,,,,,,,,,,,,,,,,,,,,,,,,,,,,,,,,u,4.750999928,BU,FALSE,,,,,,,112,bici,Catalan,Sounds/cat_bici.mp3,2020-06-05_17h01.17.509,TranslationElicitation_eng-prolific,3.2.4,MacIntel,60,5cb77fa063c0780017857c2e,,1,0,81,7,1,80
,,,,,,,,,,,,,,,,,,,,,,,,,,,,,,,,,,,,,,,,,s,4.899999857,BUS,FALSE,,,,,,,112,bici,Catalan,Sounds/cat_bici.mp3,2020-06-05_17h01.17.509,TranslationElicitation_eng-prolific,3.2.4,MacIntel,60,5cb77fa063c0780017857c2e,,1,0,81,7,1,80
,,,,,,,,,,,,,,,,,,,,,,,,,,,,,,,,,,,,,,,,,y,4.98300004,BUSY,FALSE,,,,,,,112,bici,Catalan,Sounds/cat_bici.mp3,2020-06-05_17h01.17.509,TranslationElicitation_eng-prolific,3.2.4,MacIntel,60,5cb77fa063c0780017857c2e,,1,0,81,7,1,80
,,,,,,,,,,,,,,,,,,,,,,,,,,,,,,,,,,,,,,,,,return,5.217999935,BUSY,FALSE,,,,,,,112,bici,Catalan,Sounds/cat_bici.mp3,2020-06-05_17h01.17.509,TranslationElicitation_eng-prolific,3.2.4,MacIntel,60,5cb77fa063c0780017857c2e,5.217999935,1,0,81,7,1,80
,,,,,,,,,,,,,,,,,,,,,,,,,,,,,,,,,,,,,,,,,,,,,,,,,,,112,bici,Catalan,Sounds/cat_bici.mp3,2020-06-05_17h01.17.509,TranslationElicitation_eng-prolific,3.2.4,MacIntel,60,5cb77fa063c0780017857c2e,,1,0,81,7,1,80
,,,,,,,,,,,,,,,,,,,,,,,,,,,,,,,,,,,,,,,,,m,8.351000071,M,FALSE,,,,,,,154,mirall,Catalan,Sounds/cat_mirall.mp3,2020-06-05_17h01.17.509,TranslationElicitation_eng-prolific,3.2.4,MacIntel,60,5cb77fa063c0780017857c2e,,1,0,81,47,1,80
,,,,,,,,,,,,,,,,,,,,,,,,,,,,,,,,,,,,,,,,,i,8.500999928,MI,FALSE,,,,,,,154,mirall,Catalan,Sounds/cat_mirall.mp3,2020-06-05_17h01.17.509,TranslationElicitation_eng-prolific,3.2.4,MacIntel,60,5cb77fa063c0780017857c2e,,1,0,81,47,1,80
,,,,,,,,,,,,,,,,,,,,,,,,,,,,,,,,,,,,,,,,,r,8.901000023,MIR,FALSE,,,,,,,154,mirall,Catalan,Sounds/cat_mirall.mp3,2020-06-05_17h01.17.509,TranslationElicitation_eng-prolific,3.2.4,MacIntel,60,5cb77fa063c0780017857c2e,,1,0,81,47,1,80
,,,,,,,,,,,,,,,,,,,,,,,,,,,,,,,,,,,,,,,,,r,9.052000046,MIRR,FALSE,,,,,,,154,mirall,Catalan,Sounds/cat_mirall.mp3,2020-06-05_17h01.17.509,TranslationElicitation_eng-prolific,3.2.4,MacIntel,60,5cb77fa063c0780017857c2e,,1,0,81,47,1,80
,,,,,,,,,,,,,,,,,,,,,,,,,,,,,,,,,,,,,,,,,o,9.184999943,MIRRO,FALSE,,,,,,,154,mirall,Catalan,Sounds/cat_mirall.mp3,2020-06-05_17h01.17.509,TranslationElicitation_eng-prolific,3.2.4,MacIntel,60,5cb77fa063c0780017857c2e,,1,0,81,47,1,80
,,,,,,,,,,,,,,,,,,,,,,,,,,,,,,,,,,,,,,,,,r,9.284999847,MIRROR,FALSE,,,,,,,154,mirall,Catalan,Sounds/cat_mirall.mp3,2020-06-05_17h01.17.509,TranslationElicitation_eng-prolific,3.2.4,MacIntel,60,5cb77fa063c0780017857c2e,,1,0,81,47,1,80
,,,,,,,,,,,,,,,,,,,,,,,,,,,,,,,,,,,,,,,,,return,9.434000015,MIRROR,FALSE,,,,,,,154,mirall,Catalan,Sounds/cat_mirall.mp3,2020-06-05_17h01.17.509,TranslationElicitation_eng-prolific,3.2.4,MacIntel,60,5cb77fa063c0780017857c2e,9.434000015,1,0,81,47,1,80
,,,,,,,,,,,,,,,,,,,,,,,,,,,,,,,,,,,,,,,,,,,,,,,,,,,154,mirall,Catalan,Sounds/cat_mirall.mp3,2020-06-05_17h01.17.509,TranslationElicitation_eng-prolific,3.2.4,MacIntel,60,5cb77fa063c0780017857c2e,,1,0,81,47,1,80
,,,,,,,,,,,,,,,,,,,,,,,,,,,,,,,,,,,,,,,,,t,7.301000118,T,FALSE,,,,,,,170,ploma,Catalan,Sounds/cat_ploma.mp3,2020-06-05_17h01.17.509,TranslationElicitation_eng-prolific,3.2.4,MacIntel,60,5cb77fa063c0780017857c2e,,1,0,81,62,1,80
,,,,,,,,,,,,,,,,,,,,,,,,,,,,,,,,,,,,,,,,,o,7.349999905,TO,FALSE,,,,,,,170,ploma,Catalan,Sounds/cat_ploma.mp3,2020-06-05_17h01.17.509,TranslationElicitation_eng-prolific,3.2.4,MacIntel,60,5cb77fa063c0780017857c2e,,1,0,81,62,1,80
,,,,,,,,,,,,,,,,,,,,,,,,,,,,,,,,,,,,,,,,,p,8.117000103,TOP,FALSE,,,,,,,170,ploma,Catalan,Sounds/cat_ploma.mp3,2020-06-05_17h01.17.509,TranslationElicitation_eng-prolific,3.2.4,MacIntel,60,5cb77fa063c0780017857c2e,,1,0,81,62,1,80
,,,,,,,,,,,,,,,,,,,,,,,,,,,,,,,,,,,,,,,,,return,8.233999968,TOP,FALSE,,,,,,,170,ploma,Catalan,Sounds/cat_ploma.mp3,2020-06-05_17h01.17.509,TranslationElicitation_eng-prolific,3.2.4,MacIntel,60,5cb77fa063c0780017857c2e,8.233999968,1,0,81,62,1,80
,,,,,,,,,,,,,,,,,,,,,,,,,,,,,,,,,,,,,,,,,,,,,,,,,,,170,ploma,Catalan,Sounds/cat_ploma.mp3,2020-06-05_17h01.17.509,TranslationElicitation_eng-prolific,3.2.4,MacIntel,60,5cb77fa063c0780017857c2e,,1,0,81,62,1,80
,,,,,,,,,,,,,,,,,,,,,,,,,,,,,,,,,,,,,,,,,p,4.301000118,P,FALSE,,,,,,,137,fulla,Catalan,Sounds/cat_fulla.mp3,2020-06-05_17h01.17.509,TranslationElicitation_eng-prolific,3.2.4,MacIntel,60,5cb77fa063c0780017857c2e,,1,0,81,31,1,80
,,,,,,,,,,,,,,,,,,,,,,,,,,,,,,,,,,,,,,,,,u,4.534000158,PU,FALSE,,,,,,,137,fulla,Catalan,Sounds/cat_fulla.mp3,2020-06-05_17h01.17.509,TranslationElicitation_eng-prolific,3.2.4,MacIntel,60,5cb77fa063c0780017857c2e,,1,0,81,31,1,80
,,,,,,,,,,,,,,,,,,,,,,,,,,,,,,,,,,,,,,,,,l,4.76699996,PUL,FALSE,,,,,,,137,fulla,Catalan,Sounds/cat_fulla.mp3,2020-06-05_17h01.17.509,TranslationElicitation_eng-prolific,3.2.4,MacIntel,60,5cb77fa063c0780017857c2e,,1,0,81,31,1,80
,,,,,,,,,,,,,,,,,,,,,,,,,,,,,,,,,,,,,,,,,l,4.884000063,PULL,FALSE,,,,,,,137,fulla,Catalan,Sounds/cat_fulla.mp3,2020-06-05_17h01.17.509,TranslationElicitation_eng-prolific,3.2.4,MacIntel,60,5cb77fa063c0780017857c2e,,1,0,81,31,1,80
,,,,,,,,,,,,,,,,,,,,,,,,,,,,,,,,,,,,,,,,,return,4.98300004,PULL,FALSE,,,,,,,137,fulla,Catalan,Sounds/cat_fulla.mp3,2020-06-05_17h01.17.509,TranslationElicitation_eng-prolific,3.2.4,MacIntel,60,5cb77fa063c0780017857c2e,4.98300004,1,0,81,31,1,80
,,,,,,,,,,,,,,,,,,,,,,,,,,,,,,,,,,,,,,,,,,,,,,,,,,,137,fulla,Catalan,Sounds/cat_fulla.mp3,2020-06-05_17h01.17.509,TranslationElicitation_eng-prolific,3.2.4,MacIntel,60,5cb77fa063c0780017857c2e,,1,0,81,31,1,80
,,,,,,,,,,,,,,,,,,,,,,,,,,,,,,,,,,,,,,,,,b,3.302000046,B,FALSE,,,,,,,113,boca,Catalan,Sounds/cat_boca.mp3,2020-06-05_17h01.17.509,TranslationElicitation_eng-prolific,3.2.4,MacIntel,60,5cb77fa063c0780017857c2e,,1,0,81,8,1,80
,,,,,,,,,,,,,,,,,,,,,,,,,,,,,,,,,,,,,,,,,o,3.467000008,BO,FALSE,,,,,,,113,boca,Catalan,Sounds/cat_boca.mp3,2020-06-05_17h01.17.509,TranslationElicitation_eng-prolific,3.2.4,MacIntel,60,5cb77fa063c0780017857c2e,,1,0,81,8,1,80
,,,,,,,,,,,,,,,,,,,,,,,,,,,,,,,,,,,,,,,,,o,3.584000111,BOO,FALSE,,,,,,,113,boca,Catalan,Sounds/cat_boca.mp3,2020-06-05_17h01.17.509,TranslationElicitation_eng-prolific,3.2.4,MacIntel,60,5cb77fa063c0780017857c2e,,1,0,81,8,1,80
,,,,,,,,,,,,,,,,,,,,,,,,,,,,,,,,,,,,,,,,,k,3.651000023,BOOK,FALSE,,,,,,,113,boca,Catalan,Sounds/cat_boca.mp3,2020-06-05_17h01.17.509,TranslationElicitation_eng-prolific,3.2.4,MacIntel,60,5cb77fa063c0780017857c2e,,1,0,81,8,1,80
,,,,,,,,,,,,,,,,,,,,,,,,,,,,,,,,,,,,,,,,,return,3.835000038,BOOK,FALSE,,,,,,,113,boca,Catalan,Sounds/cat_boca.mp3,2020-06-05_17h01.17.509,TranslationElicitation_eng-prolific,3.2.4,MacIntel,60,5cb77fa063c0780017857c2e,3.835000038,1,0,81,8,1,80
,,,,,,,,,,,,,,,,,,,,,,,,,,,,,,,,,,,,,,,,,,,,,,,,,,,113,boca,Catalan,Sounds/cat_boca.mp3,2020-06-05_17h01.17.509,TranslationElicitation_eng-prolific,3.2.4,MacIntel,60,5cb77fa063c0780017857c2e,,1,0,81,8,1,80
,,,,,,,,,,,,,,,,,,,,,,,,,,,,,,,,,,,,,,,,,s,4.799999952,S,FALSE,,,,,,,176,samarreta,Catalan,Sounds/cat_samarreta.mp3,2020-06-05_17h01.17.509,TranslationElicitation_eng-prolific,3.2.4,MacIntel,60,5cb77fa063c0780017857c2e,,1,0,81,68,1,80
,,,,,,,,,,,,,,,,,,,,,,,,,,,,,,,,,,,,,,,,,y,5,SY,FALSE,,,,,,,176,samarreta,Catalan,Sounds/cat_samarreta.mp3,2020-06-05_17h01.17.509,TranslationElicitation_eng-prolific,3.2.4,MacIntel,60,5cb77fa063c0780017857c2e,,1,0,81,68,1,80
,,,,,,,,,,,,,,,,,,,,,,,,,,,,,,,,,,,,,,,,,backspace,5.349999905,S,TRUE,,,,,,,176,samarreta,Catalan,Sounds/cat_samarreta.mp3,2020-06-05_17h01.17.509,TranslationElicitation_eng-prolific,3.2.4,MacIntel,60,5cb77fa063c0780017857c2e,,1,0,81,68,1,80
,,,,,,,,,,,,,,,,,,,,,,,,,,,,,,,,,,,,,,,,,u,5.615999937,SU,TRUE,,,,,,,176,samarreta,Catalan,Sounds/cat_samarreta.mp3,2020-06-05_17h01.17.509,TranslationElicitation_eng-prolific,3.2.4,MacIntel,60,5cb77fa063c0780017857c2e,,1,0,81,68,1,80
,,,,,,,,,,,,,,,,,,,,,,,,,,,,,,,,,,,,,,,,,m,5.833999872,SUM,TRUE,,,,,,,176,samarreta,Catalan,Sounds/cat_samarreta.mp3,2020-06-05_17h01.17.509,TranslationElicitation_eng-prolific,3.2.4,MacIntel,60,5cb77fa063c0780017857c2e,,1,0,81,68,1,80
,,,,,,,,,,,,,,,,,,,,,,,,,,,,,,,,,,,,,,,,,m,5.967000008,SUMM,TRUE,,,,,,,176,samarreta,Catalan,Sounds/cat_samarreta.mp3,2020-06-05_17h01.17.509,TranslationElicitation_eng-prolific,3.2.4,MacIntel,60,5cb77fa063c0780017857c2e,,1,0,81,68,1,80
,,,,,,,,,,,,,,,,,,,,,,,,,,,,,,,,,,,,,,,,,e,6.05099988,SUMME,TRUE,,,,,,,176,samarreta,Catalan,Sounds/cat_samarreta.mp3,2020-06-05_17h01.17.509,TranslationElicitation_eng-prolific,3.2.4,MacIntel,60,5cb77fa063c0780017857c2e,,1,0,81,68,1,80
,,,,,,,,,,,,,,,,,,,,,,,,,,,,,,,,,,,,,,,,,r,6.149999857,SUMMER,TRUE,,,,,,,176,samarreta,Catalan,Sounds/cat_samarreta.mp3,2020-06-05_17h01.17.509,TranslationElicitation_eng-prolific,3.2.4,MacIntel,60,5cb77fa063c0780017857c2e,,1,0,81,68,1,80
,,,,,,,,,,,,,,,,,,,,,,,,,,,,,,,,,,,,,,,,,return,6.200000048,SUMMER,TRUE,,,,,,,176,samarreta,Catalan,Sounds/cat_samarreta.mp3,2020-06-05_17h01.17.509,TranslationElicitation_eng-prolific,3.2.4,MacIntel,60,5cb77fa063c0780017857c2e,6.200000048,1,0,81,68,1,80
,,,,,,,,,,,,,,,,,,,,,,,,,,,,,,,,,,,,,,,,,,,,,,,,,,,176,samarreta,Catalan,Sounds/cat_samarreta.mp3,2020-06-05_17h01.17.509,TranslationElicitation_eng-prolific,3.2.4,MacIntel,60,5cb77fa063c0780017857c2e,,1,0,81,68,1,80
,,,,,,,,,,,,,,,,,,,,,,,,,,,,,,,,,,,,,,,,,f,2.365999937,F,FALSE,,,,,,,134,flor,Catalan,Sounds/cat_flor.mp3,2020-06-05_17h01.17.509,TranslationElicitation_eng-prolific,3.2.4,MacIntel,60,5cb77fa063c0780017857c2e,,1,0,81,28,1,80
,,,,,,,,,,,,,,,,,,,,,,,,,,,,,,,,,,,,,,,,,l,2.532999992,FL,FALSE,,,,,,,134,flor,Catalan,Sounds/cat_flor.mp3,2020-06-05_17h01.17.509,TranslationElicitation_eng-prolific,3.2.4,MacIntel,60,5cb77fa063c0780017857c2e,,1,0,81,28,1,80
,,,,,,,,,,,,,,,,,,,,,,,,,,,,,,,,,,,,,,,,,o,2.665999889,FLO,FALSE,,,,,,,134,flor,Catalan,Sounds/cat_flor.mp3,2020-06-05_17h01.17.509,TranslationElicitation_eng-prolific,3.2.4,MacIntel,60,5cb77fa063c0780017857c2e,,1,0,81,28,1,80
,,,,,,,,,,,,,,,,,,,,,,,,,,,,,,,,,,,,,,,,,w,2.749000072,FLOW,FALSE,,,,,,,134,flor,Catalan,Sounds/cat_flor.mp3,2020-06-05_17h01.17.509,TranslationElicitation_eng-prolific,3.2.4,MacIntel,60,5cb77fa063c0780017857c2e,,1,0,81,28,1,80
,,,,,,,,,,,,,,,,,,,,,,,,,,,,,,,,,,,,,,,,,return,2.849999905,FLOW,FALSE,,,,,,,134,flor,Catalan,Sounds/cat_flor.mp3,2020-06-05_17h01.17.509,TranslationElicitation_eng-prolific,3.2.4,MacIntel,60,5cb77fa063c0780017857c2e,2.849999905,1,0,81,28,1,80
,,,,,,,,,,,,,,,,,,,,,,,,,,,,,,,,,,,,,,,,,,,,,,,,,,,134,flor,Catalan,Sounds/cat_flor.mp3,2020-06-05_17h01.17.509,TranslationElicitation_eng-prolific,3.2.4,MacIntel,60,5cb77fa063c0780017857c2e,,1,0,81,28,1,80
,,,,,,,,,,,,,,,,,,,,,,,,,,,,,,,,,,,,,,,,,b,1.766000032,B,FALSE,,,,,,,166,peu,Catalan,Sounds/cat_peu.mp3,2020-06-05_17h01.17.509,TranslationElicitation_eng-prolific,3.2.4,MacIntel,60,5cb77fa063c0780017857c2e,,1,0,81,58,1,80
,,,,,,,,,,,,,,,,,,,,,,,,,,,,,,,,,,,,,,,,,e,1.900000095,BE,FALSE,,,,,,,166,peu,Catalan,Sounds/cat_peu.mp3,2020-06-05_17h01.17.509,TranslationElicitation_eng-prolific,3.2.4,MacIntel,60,5cb77fa063c0780017857c2e,,1,0,81,58,1,80
,,,,,,,,,,,,,,,,,,,,,,,,,,,,,,,,,,,,,,,,,d,2.083000183,BED,FALSE,,,,,,,166,peu,Catalan,Sounds/cat_peu.mp3,2020-06-05_17h01.17.509,TranslationElicitation_eng-prolific,3.2.4,MacIntel,60,5cb77fa063c0780017857c2e,,1,0,81,58,1,80
,,,,,,,,,,,,,,,,,,,,,,,,,,,,,,,,,,,,,,,,,return,2.25,BED,FALSE,,,,,,,166,peu,Catalan,Sounds/cat_peu.mp3,2020-06-05_17h01.17.509,TranslationElicitation_eng-prolific,3.2.4,MacIntel,60,5cb77fa063c0780017857c2e,2.25,1,0,81,58,1,80
,,,,,,,,,,,,,,,,,,,,,,,,,,,,,,,,,,,,,,,,,,,,,,,,,,,166,peu,Catalan,Sounds/cat_peu.mp3,2020-06-05_17h01.17.509,TranslationElicitation_eng-prolific,3.2.4,MacIntel,60,5cb77fa063c0780017857c2e,,1,0,81,58,1,80
,,,,,,,,,,,,,,,,,,,,,,,,,,,,,,,,,,,,,,,,,i,4.250999928,I,FALSE,,,,,,,174,porta,Catalan,Sounds/cat_porta.mp3,2020-06-05_17h01.17.509,TranslationElicitation_eng-prolific,3.2.4,MacIntel,60,5cb77fa063c0780017857c2e,,1,0,81,66,1,80
,,,,,,,,,,,,,,,,,,,,,,,,,,,,,,,,,,,,,,,,,m,4.365999937,IM,FALSE,,,,,,,174,porta,Catalan,Sounds/cat_porta.mp3,2020-06-05_17h01.17.509,TranslationElicitation_eng-prolific,3.2.4,MacIntel,60,5cb77fa063c0780017857c2e,,1,0,81,66,1,80
,,,,,,,,,,,,,,,,,,,,,,,,,,,,,,,,,,,,,,,,,backspace,5.032999992,I,TRUE,,,,,,,174,porta,Catalan,Sounds/cat_porta.mp3,2020-06-05_17h01.17.509,TranslationElicitation_eng-prolific,3.2.4,MacIntel,60,5cb77fa063c0780017857c2e,,1,0,81,66,1,80
,,,,,,,,,,,,,,,,,,,,,,,,,,,,,,,,,,,,,,,,,backspace,5.182999849,,TRUE,,,,,,,174,porta,Catalan,Sounds/cat_porta.mp3,2020-06-05_17h01.17.509,TranslationElicitation_eng-prolific,3.2.4,MacIntel,60,5cb77fa063c0780017857c2e,,1,0,81,66,1,80
,,,,,,,,,,,,,,,,,,,,,,,,,,,,,,,,,,,,,,,,,p,5.532999992,P,TRUE,,,,,,,174,porta,Catalan,Sounds/cat_porta.mp3,2020-06-05_17h01.17.509,TranslationElicitation_eng-prolific,3.2.4,MacIntel,60,5cb77fa063c0780017857c2e,,1,0,81,66,1,80
,,,,,,,,,,,,,,,,,,,,,,,,,,,,,,,,,,,,,,,,,o,5.615999937,PO,TRUE,,,,,,,174,porta,Catalan,Sounds/cat_porta.mp3,2020-06-05_17h01.17.509,TranslationElicitation_eng-prolific,3.2.4,MacIntel,60,5cb77fa063c0780017857c2e,,1,0,81,66,1,80
,,,,,,,,,,,,,,,,,,,,,,,,,,,,,,,,,,,,,,,,,r,5.832999945,POR,TRUE,,,,,,,174,porta,Catalan,Sounds/cat_porta.mp3,2020-06-05_17h01.17.509,TranslationElicitation_eng-prolific,3.2.4,MacIntel,60,5cb77fa063c0780017857c2e,,1,0,81,66,1,80
,,,,,,,,,,,,,,,,,,,,,,,,,,,,,,,,,,,,,,,,,t,6.016000032,PORT,TRUE,,,,,,,174,porta,Catalan,Sounds/cat_porta.mp3,2020-06-05_17h01.17.509,TranslationElicitation_eng-prolific,3.2.4,MacIntel,60,5cb77fa063c0780017857c2e,,1,0,81,66,1,80
,,,,,,,,,,,,,,,,,,,,,,,,,,,,,,,,,,,,,,,,,return,6.116999865,PORT,TRUE,,,,,,,174,porta,Catalan,Sounds/cat_porta.mp3,2020-06-05_17h01.17.509,TranslationElicitation_eng-prolific,3.2.4,MacIntel,60,5cb77fa063c0780017857c2e,6.116999865,1,0,81,66,1,80
,,,,,,,,,,,,,,,,,,,,,,,,,,,,,,,,,,,,,,,,,,,,,,,,,,,174,porta,Catalan,Sounds/cat_porta.mp3,2020-06-05_17h01.17.509,TranslationElicitation_eng-prolific,3.2.4,MacIntel,60,5cb77fa063c0780017857c2e,,1,0,81,66,1,80
,,,,,,,,,,,,,,,,,,,,,,,,,,,,,,,,,,,,,,,,,return,9.350000143,,FALSE,,,,,,,160,orella,Catalan,Sounds/cat_orella.mp3,2020-06-05_17h01.17.509,TranslationElicitation_eng-prolific,3.2.4,MacIntel,60,5cb77fa063c0780017857c2e,9.350000143,1,0,81,52,1,80
,,,,,,,,,,,,,,,,,,,,,,,,,,,,,,,,,,,,,,,,,,,,,,,,,,,160,orella,Catalan,Sounds/cat_orella.mp3,2020-06-05_17h01.17.509,TranslationElicitation_eng-prolific,3.2.4,MacIntel,60,5cb77fa063c0780017857c2e,,1,0,81,52,1,80
,,,,,,,,,,,,,,,,,,,,,,,,,,,,,,,,,,,,,,,,,r,1.983999968,R,FALSE,,,,,,,111,bibero,Catalan,Sounds/cat_bibero.mp3,2020-06-05_17h01.17.509,TranslationElicitation_eng-prolific,3.2.4,MacIntel,60,5cb77fa063c0780017857c2e,,1,0,81,6,1,80
,,,,,,,,,,,,,,,,,,,,,,,,,,,,,,,,,,,,,,,,,i,2.082999945,RI,FALSE,,,,,,,111,bibero,Catalan,Sounds/cat_bibero.mp3,2020-06-05_17h01.17.509,TranslationElicitation_eng-prolific,3.2.4,MacIntel,60,5cb77fa063c0780017857c2e,,1,0,81,6,1,80
,,,,,,,,,,,,,,,,,,,,,,,,,,,,,,,,,,,,,,,,,v,2.26699996,RIV,FALSE,,,,,,,111,bibero,Catalan,Sounds/cat_bibero.mp3,2020-06-05_17h01.17.509,TranslationElicitation_eng-prolific,3.2.4,MacIntel,60,5cb77fa063c0780017857c2e,,1,0,81,6,1,80
,,,,,,,,,,,,,,,,,,,,,,,,,,,,,,,,,,,,,,,,,e,2.368000031,RIVE,FALSE,,,,,,,111,bibero,Catalan,Sounds/cat_bibero.mp3,2020-06-05_17h01.17.509,TranslationElicitation_eng-prolific,3.2.4,MacIntel,60,5cb77fa063c0780017857c2e,,1,0,81,6,1,80
,,,,,,,,,,,,,,,,,,,,,,,,,,,,,,,,,,,,,,,,,r,2.500999928,RIVER,FALSE,,,,,,,111,bibero,Catalan,Sounds/cat_bibero.mp3,2020-06-05_17h01.17.509,TranslationElicitation_eng-prolific,3.2.4,MacIntel,60,5cb77fa063c0780017857c2e,,1,0,81,6,1,80
,,,,,,,,,,,,,,,,,,,,,,,,,,,,,,,,,,,,,,,,,return,2.583999872,RIVER,FALSE,,,,,,,111,bibero,Catalan,Sounds/cat_bibero.mp3,2020-06-05_17h01.17.509,TranslationElicitation_eng-prolific,3.2.4,MacIntel,60,5cb77fa063c0780017857c2e,2.583999872,1,0,81,6,1,80
,,,,,,,,,,,,,,,,,,,,,,,,,,,,,,,,,,,,,,,,,,,,,,,,,,,111,bibero,Catalan,Sounds/cat_bibero.mp3,2020-06-05_17h01.17.509,TranslationElicitation_eng-prolific,3.2.4,MacIntel,60,5cb77fa063c0780017857c2e,,1,0,81,6,1,80
,,,,,,,,,,,,,,,,,,,,,,,,,,,,,,,,,,,,,,,,,return,2.900000095,,FALSE,,,,,,,151,lluna,Catalan,Sounds/cat_lluna.mp3,2020-06-05_17h01.17.509,TranslationElicitation_eng-prolific,3.2.4,MacIntel,60,5cb77fa063c0780017857c2e,2.900000095,1,0,81,44,1,80
,,,,,,,,,,,,,,,,,,,,,,,,,,,,,,,,,,,,,,,,,,,,,,,,,,,151,lluna,Catalan,Sounds/cat_lluna.mp3,2020-06-05_17h01.17.509,TranslationElicitation_eng-prolific,3.2.4,MacIntel,60,5cb77fa063c0780017857c2e,,1,0,81,44,1,80
,,,,,,,,,,,,,,,,,,,,,,,,,,,,,,,,,,,,,,,,,r,2.582999945,R,FALSE,,,,,,,181,tobogan,Catalan,Sounds/cat_tobogan.mp3,2020-06-05_17h01.17.509,TranslationElicitation_eng-prolific,3.2.4,MacIntel,60,5cb77fa063c0780017857c2e,,1,0,81,72,1,80
,,,,,,,,,,,,,,,,,,,,,,,,,,,,,,,,,,,,,,,,,u,2.618000031,RU,FALSE,,,,,,,181,tobogan,Catalan,Sounds/cat_tobogan.mp3,2020-06-05_17h01.17.509,TranslationElicitation_eng-prolific,3.2.4,MacIntel,60,5cb77fa063c0780017857c2e,,1,0,81,72,1,80
,,,,,,,,,,,,,,,,,,,,,,,,,,,,,,,,,,,,,,,,,n,2.733999968,RUN,FALSE,,,,,,,181,tobogan,Catalan,Sounds/cat_tobogan.mp3,2020-06-05_17h01.17.509,TranslationElicitation_eng-prolific,3.2.4,MacIntel,60,5cb77fa063c0780017857c2e,,1,0,81,72,1,80
,,,,,,,,,,,,,,,,,,,,,,,,,,,,,,,,,,,,,,,,,return,2.899999857,RUN,FALSE,,,,,,,181,tobogan,Catalan,Sounds/cat_tobogan.mp3,2020-06-05_17h01.17.509,TranslationElicitation_eng-prolific,3.2.4,MacIntel,60,5cb77fa063c0780017857c2e,2.899999857,1,0,81,72,1,80
,,,,,,,,,,,,,,,,,,,,,,,,,,,,,,,,,,,,,,,,,,,,,,,,,,,181,tobogan,Catalan,Sounds/cat_tobogan.mp3,2020-06-05_17h01.17.509,TranslationElicitation_eng-prolific,3.2.4,MacIntel,60,5cb77fa063c0780017857c2e,,1,0,81,72,1,80
,,,,,,,,,,,,,,,,,,,,,,,,,,,,,,,,,,,,,,,,,m,1.833999872,M,FALSE,,,,,,,106,aixeta,Catalan,Sounds/cat_aixeta.mp3,2020-06-05_17h01.17.509,TranslationElicitation_eng-prolific,3.2.4,MacIntel,60,5cb77fa063c0780017857c2e,,1,0,81,2,1,80
,,,,,,,,,,,,,,,,,,,,,,,,,,,,,,,,,,,,,,,,,a,1.932999849,MA,FALSE,,,,,,,106,aixeta,Catalan,Sounds/cat_aixeta.mp3,2020-06-05_17h01.17.509,TranslationElicitation_eng-prolific,3.2.4,MacIntel,60,5cb77fa063c0780017857c2e,,1,0,81,2,1,80
,,,,,,,,,,,,,,,,,,,,,,,,,,,,,,,,,,,,,,,,,c,2.166999817,MAC,FALSE,,,,,,,106,aixeta,Catalan,Sounds/cat_aixeta.mp3,2020-06-05_17h01.17.509,TranslationElicitation_eng-prolific,3.2.4,MacIntel,60,5cb77fa063c0780017857c2e,,1,0,81,2,1,80
,,,,,,,,,,,,,,,,,,,,,,,,,,,,,,,,,,,,,,,,,h,2.282999992,MACH,FALSE,,,,,,,106,aixeta,Catalan,Sounds/cat_aixeta.mp3,2020-06-05_17h01.17.509,TranslationElicitation_eng-prolific,3.2.4,MacIntel,60,5cb77fa063c0780017857c2e,,1,0,81,2,1,80
,,,,,,,,,,,,,,,,,,,,,,,,,,,,,,,,,,,,,,,,,e,2.399999857,MACHE,FALSE,,,,,,,106,aixeta,Catalan,Sounds/cat_aixeta.mp3,2020-06-05_17h01.17.509,TranslationElicitation_eng-prolific,3.2.4,MacIntel,60,5cb77fa063c0780017857c2e,,1,0,81,2,1,80
,,,,,,,,,,,,,,,,,,,,,,,,,,,,,,,,,,,,,,,,,t,2.666999817,MACHET,FALSE,,,,,,,106,aixeta,Catalan,Sounds/cat_aixeta.mp3,2020-06-05_17h01.17.509,TranslationElicitation_eng-prolific,3.2.4,MacIntel,60,5cb77fa063c0780017857c2e,,1,0,81,2,1,80
,,,,,,,,,,,,,,,,,,,,,,,,,,,,,,,,,,,,,,,,,e,2.799000025,MACHETE,FALSE,,,,,,,106,aixeta,Catalan,Sounds/cat_aixeta.mp3,2020-06-05_17h01.17.509,TranslationElicitation_eng-prolific,3.2.4,MacIntel,60,5cb77fa063c0780017857c2e,,1,0,81,2,1,80
,,,,,,,,,,,,,,,,,,,,,,,,,,,,,,,,,,,,,,,,,return,2.901000023,MACHETE,FALSE,,,,,,,106,aixeta,Catalan,Sounds/cat_aixeta.mp3,2020-06-05_17h01.17.509,TranslationElicitation_eng-prolific,3.2.4,MacIntel,60,5cb77fa063c0780017857c2e,2.901000023,1,0,81,2,1,80
,,,,,,,,,,,,,,,,,,,,,,,,,,,,,,,,,,,,,,,,,,,,,,,,,,,106,aixeta,Catalan,Sounds/cat_aixeta.mp3,2020-06-05_17h01.17.509,TranslationElicitation_eng-prolific,3.2.4,MacIntel,60,5cb77fa063c0780017857c2e,,1,0,81,2,1,80
,,,,,,,,,,,,,,,,,,,,,,,,,,,,,,,,,,,,,,,,,b,4.482999802,B,FALSE,,,,,,,117,boto,Catalan,Sounds/cat_boto.mp3,2020-06-05_17h01.17.509,TranslationElicitation_eng-prolific,3.2.4,MacIntel,60,5cb77fa063c0780017857c2e,,1,0,81,12,1,80
,,,,,,,,,,,,,,,,,,,,,,,,,,,,,,,,,,,,,,,,,a,4.799999952,BA,FALSE,,,,,,,117,boto,Catalan,Sounds/cat_boto.mp3,2020-06-05_17h01.17.509,TranslationElicitation_eng-prolific,3.2.4,MacIntel,60,5cb77fa063c0780017857c2e,,1,0,81,12,1,80
,,,,,,,,,,,,,,,,,,,,,,,,,,,,,,,,,,,,,,,,,backspace,5.165999889,B,TRUE,,,,,,,117,boto,Catalan,Sounds/cat_boto.mp3,2020-06-05_17h01.17.509,TranslationElicitation_eng-prolific,3.2.4,MacIntel,60,5cb77fa063c0780017857c2e,,1,0,81,12,1,80
,,,,,,,,,,,,,,,,,,,,,,,,,,,,,,,,,,,,,,,,,o,5.5,BO,TRUE,,,,,,,117,boto,Catalan,Sounds/cat_boto.mp3,2020-06-05_17h01.17.509,TranslationElicitation_eng-prolific,3.2.4,MacIntel,60,5cb77fa063c0780017857c2e,,1,0,81,12,1,80
,,,,,,,,,,,,,,,,,,,,,,,,,,,,,,,,,,,,,,,,,a,5.583999872,BOA,TRUE,,,,,,,117,boto,Catalan,Sounds/cat_boto.mp3,2020-06-05_17h01.17.509,TranslationElicitation_eng-prolific,3.2.4,MacIntel,60,5cb77fa063c0780017857c2e,,1,0,81,12,1,80
,,,,,,,,,,,,,,,,,,,,,,,,,,,,,,,,,,,,,,,,,t,5.78399992,BOAT,TRUE,,,,,,,117,boto,Catalan,Sounds/cat_boto.mp3,2020-06-05_17h01.17.509,TranslationElicitation_eng-prolific,3.2.4,MacIntel,60,5cb77fa063c0780017857c2e,,1,0,81,12,1,80
,,,,,,,,,,,,,,,,,,,,,,,,,,,,,,,,,,,,,,,,,return,6,BOAT,TRUE,,,,,,,117,boto,Catalan,Sounds/cat_boto.mp3,2020-06-05_17h01.17.509,TranslationElicitation_eng-prolific,3.2.4,MacIntel,60,5cb77fa063c0780017857c2e,6,1,0,81,12,1,80
,,,,,,,,,,,,,,,,,,,,,,,,,,,,,,,,,,,,,,,,,,,,,,,,,,,117,boto,Catalan,Sounds/cat_boto.mp3,2020-06-05_17h01.17.509,TranslationElicitation_eng-prolific,3.2.4,MacIntel,60,5cb77fa063c0780017857c2e,,1,0,81,12,1,80
,,,,,,,,,,,,,,,,,,,,,,,,,,,,,,,,,,,,,,,,,f,3.633999825,F,FALSE,,,,,,,135,formiga,Catalan,Sounds/cat_formiga.mp3,2020-06-05_17h01.17.509,TranslationElicitation_eng-prolific,3.2.4,MacIntel,60,5cb77fa063c0780017857c2e,,1,0,81,29,1,80
,,,,,,,,,,,,,,,,,,,,,,,,,,,,,,,,,,,,,,,,,o,3.717000008,FO,FALSE,,,,,,,135,formiga,Catalan,Sounds/cat_formiga.mp3,2020-06-05_17h01.17.509,TranslationElicitation_eng-prolific,3.2.4,MacIntel,60,5cb77fa063c0780017857c2e,,1,0,81,29,1,80
,,,,,,,,,,,,,,,,,,,,,,,,,,,,,,,,,,,,,,,,,r,3.816999912,FOR,FALSE,,,,,,,135,formiga,Catalan,Sounds/cat_formiga.mp3,2020-06-05_17h01.17.509,TranslationElicitation_eng-prolific,3.2.4,MacIntel,60,5cb77fa063c0780017857c2e,,1,0,81,29,1,80
,,,,,,,,,,,,,,,,,,,,,,,,,,,,,,,,,,,,,,,,,m,3.932999849,FORM,FALSE,,,,,,,135,formiga,Catalan,Sounds/cat_formiga.mp3,2020-06-05_17h01.17.509,TranslationElicitation_eng-prolific,3.2.4,MacIntel,60,5cb77fa063c0780017857c2e,,1,0,81,29,1,80
,,,,,,,,,,,,,,,,,,,,,,,,,,,,,,,,,,,,,,,,,a,4.151000023,FORMA,FALSE,,,,,,,135,formiga,Catalan,Sounds/cat_formiga.mp3,2020-06-05_17h01.17.509,TranslationElicitation_eng-prolific,3.2.4,MacIntel,60,5cb77fa063c0780017857c2e,,1,0,81,29,1,80
,,,,,,,,,,,,,,,,,,,,,,,,,,,,,,,,,,,,,,,,,t,4.483999968,FORMAT,FALSE,,,,,,,135,formiga,Catalan,Sounds/cat_formiga.mp3,2020-06-05_17h01.17.509,TranslationElicitation_eng-prolific,3.2.4,MacIntel,60,5cb77fa063c0780017857c2e,,1,0,81,29,1,80
,,,,,,,,,,,,,,,,,,,,,,,,,,,,,,,,,,,,,,,,,i,4.55099988,FORMATI,FALSE,,,,,,,135,formiga,Catalan,Sounds/cat_formiga.mp3,2020-06-05_17h01.17.509,TranslationElicitation_eng-prolific,3.2.4,MacIntel,60,5cb77fa063c0780017857c2e,,1,0,81,29,1,80
,,,,,,,,,,,,,,,,,,,,,,,,,,,,,,,,,,,,,,,,,o,4.599999905,FORMATIO,FALSE,,,,,,,135,formiga,Catalan,Sounds/cat_formiga.mp3,2020-06-05_17h01.17.509,TranslationElicitation_eng-prolific,3.2.4,MacIntel,60,5cb77fa063c0780017857c2e,,1,0,81,29,1,80
,,,,,,,,,,,,,,,,,,,,,,,,,,,,,,,,,,,,,,,,,n,4.666999817,FORMATION,FALSE,,,,,,,135,formiga,Catalan,Sounds/cat_formiga.mp3,2020-06-05_17h01.17.509,TranslationElicitation_eng-prolific,3.2.4,MacIntel,60,5cb77fa063c0780017857c2e,,1,0,81,29,1,80
,,,,,,,,,,,,,,,,,,,,,,,,,,,,,,,,,,,,,,,,,return,5.032999992,FORMATION,FALSE,,,,,,,135,formiga,Catalan,Sounds/cat_formiga.mp3,2020-06-05_17h01.17.509,TranslationElicitation_eng-prolific,3.2.4,MacIntel,60,5cb77fa063c0780017857c2e,5.032999992,1,0,81,29,1,80
,,,,,,,,,,,,,,,,,,,,,,,,,,,,,,,,,,,,,,,,,,,,,,,,,,,135,formiga,Catalan,Sounds/cat_formiga.mp3,2020-06-05_17h01.17.509,TranslationElicitation_eng-prolific,3.2.4,MacIntel,60,5cb77fa063c0780017857c2e,,1,0,81,29,1,80
,,,,,,,,,,,,,,,,,,,,,,,,,,,,,,,,,,,,,,,,,t,3.80099988,T,FALSE,,,,,,,178,taronja,Catalan,Sounds/cat_taronja.mp3,2020-06-05_17h01.17.509,TranslationElicitation_eng-prolific,3.2.4,MacIntel,60,5cb77fa063c0780017857c2e,,1,0,81,70,1,80
,,,,,,,,,,,,,,,,,,,,,,,,,,,,,,,,,,,,,,,,,a,4.150000095,TA,FALSE,,,,,,,178,taronja,Catalan,Sounds/cat_taronja.mp3,2020-06-05_17h01.17.509,TranslationElicitation_eng-prolific,3.2.4,MacIntel,60,5cb77fa063c0780017857c2e,,1,0,81,70,1,80
,,,,,,,,,,,,,,,,,,,,,,,,,,,,,,,,,,,,,,,,,n,4.25,TAN,FALSE,,,,,,,178,taronja,Catalan,Sounds/cat_taronja.mp3,2020-06-05_17h01.17.509,TranslationElicitation_eng-prolific,3.2.4,MacIntel,60,5cb77fa063c0780017857c2e,,1,0,81,70,1,80
,,,,,,,,,,,,,,,,,,,,,,,,,,,,,,,,,,,,,,,,,g,4.467000008,TANG,FALSE,,,,,,,178,taronja,Catalan,Sounds/cat_taronja.mp3,2020-06-05_17h01.17.509,TranslationElicitation_eng-prolific,3.2.4,MacIntel,60,5cb77fa063c0780017857c2e,,1,0,81,70,1,80
,,,,,,,,,,,,,,,,,,,,,,,,,,,,,,,,,,,,,,,,,e,4.583999872,TANGE,FALSE,,,,,,,178,taronja,Catalan,Sounds/cat_taronja.mp3,2020-06-05_17h01.17.509,TranslationElicitation_eng-prolific,3.2.4,MacIntel,60,5cb77fa063c0780017857c2e,,1,0,81,70,1,80
,,,,,,,,,,,,,,,,,,,,,,,,,,,,,,,,,,,,,,,,,r,4.667000055,TANGER,FALSE,,,,,,,178,taronja,Catalan,Sounds/cat_taronja.mp3,2020-06-05_17h01.17.509,TranslationElicitation_eng-prolific,3.2.4,MacIntel,60,5cb77fa063c0780017857c2e,,1,0,81,70,1,80
,,,,,,,,,,,,,,,,,,,,,,,,,,,,,,,,,,,,,,,,,i,4.766000032,TANGERI,FALSE,,,,,,,178,taronja,Catalan,Sounds/cat_taronja.mp3,2020-06-05_17h01.17.509,TranslationElicitation_eng-prolific,3.2.4,MacIntel,60,5cb77fa063c0780017857c2e,,1,0,81,70,1,80
,,,,,,,,,,,,,,,,,,,,,,,,,,,,,,,,,,,,,,,,,n,4.900000095,TANGERIN,FALSE,,,,,,,178,taronja,Catalan,Sounds/cat_taronja.mp3,2020-06-05_17h01.17.509,TranslationElicitation_eng-prolific,3.2.4,MacIntel,60,5cb77fa063c0780017857c2e,,1,0,81,70,1,80
,,,,,,,,,,,,,,,,,,,,,,,,,,,,,,,,,,,,,,,,,e,5.184000015,TANGERINE,FALSE,,,,,,,178,taronja,Catalan,Sounds/cat_taronja.mp3,2020-06-05_17h01.17.509,TranslationElicitation_eng-prolific,3.2.4,MacIntel,60,5cb77fa063c0780017857c2e,,1,0,81,70,1,80
,,,,,,,,,,,,,,,,,,,,,,,,,,,,,,,,,,,,,,,,,return,5.26699996,TANGERINE,FALSE,,,,,,,178,taronja,Catalan,Sounds/cat_taronja.mp3,2020-06-05_17h01.17.509,TranslationElicitation_eng-prolific,3.2.4,MacIntel,60,5cb77fa063c0780017857c2e,5.26699996,1,0,81,70,1,80
,,,,,,,,,,,,,,,,,,,,,,,,,,,,,,,,,,,,,,,,,,,,,,,,,,,178,taronja,Catalan,Sounds/cat_taronja.mp3,2020-06-05_17h01.17.509,TranslationElicitation_eng-prolific,3.2.4,MacIntel,60,5cb77fa063c0780017857c2e,,1,0,81,70,1,80
,,,,,,,,,,,,,,,,,,,,,,,,,,,,,,,,,,,,,,,,,b,3.967999935,B,FALSE,,,,,,,187,vaixell,Catalan,Sounds/cat_vaixell.mp3,2020-06-05_17h01.17.509,TranslationElicitation_eng-prolific,3.2.4,MacIntel,60,5cb77fa063c0780017857c2e,,1,0,81,78,1,80
,,,,,,,,,,,,,,,,,,,,,,,,,,,,,,,,,,,,,,,,,d,5.000999928,BD,FALSE,,,,,,,187,vaixell,Catalan,Sounds/cat_vaixell.mp3,2020-06-05_17h01.17.509,TranslationElicitation_eng-prolific,3.2.4,MacIntel,60,5cb77fa063c0780017857c2e,,1,0,81,78,1,80
,,,,,,,,,,,,,,,,,,,,,,,,,,,,,,,,,,,,,,,,,e,5.518000126,BDE,FALSE,,,,,,,187,vaixell,Catalan,Sounds/cat_vaixell.mp3,2020-06-05_17h01.17.509,TranslationElicitation_eng-prolific,3.2.4,MacIntel,60,5cb77fa063c0780017857c2e,,1,0,81,78,1,80
,,,,,,,,,,,,,,,,,,,,,,,,,,,,,,,,,,,,,,,,,backspace,5.684000015,BD,TRUE,,,,,,,187,vaixell,Catalan,Sounds/cat_vaixell.mp3,2020-06-05_17h01.17.509,TranslationElicitation_eng-prolific,3.2.4,MacIntel,60,5cb77fa063c0780017857c2e,,1,0,81,78,1,80
,,,,,,,,,,,,,,,,,,,,,,,,,,,,,,,,,,,,,,,,,backspace,5.868000031,B,TRUE,,,,,,,187,vaixell,Catalan,Sounds/cat_vaixell.mp3,2020-06-05_17h01.17.509,TranslationElicitation_eng-prolific,3.2.4,MacIntel,60,5cb77fa063c0780017857c2e,,1,0,81,78,1,80
,,,,,,,,,,,,,,,,,,,,,,,,,,,,,,,,,,,,,,,,,d,6.03399992,BD,TRUE,,,,,,,187,vaixell,Catalan,Sounds/cat_vaixell.mp3,2020-06-05_17h01.17.509,TranslationElicitation_eng-prolific,3.2.4,MacIntel,60,5cb77fa063c0780017857c2e,,1,0,81,78,1,80
,,,,,,,,,,,,,,,,,,,,,,,,,,,,,,,,,,,,,,,,,e,6.066999912,BDE,TRUE,,,,,,,187,vaixell,Catalan,Sounds/cat_vaixell.mp3,2020-06-05_17h01.17.509,TranslationElicitation_eng-prolific,3.2.4,MacIntel,60,5cb77fa063c0780017857c2e,,1,0,81,78,1,80
,,,,,,,,,,,,,,,,,,,,,,,,,,,,,,,,,,,,,,,,,backspace,6.518000126,BD,TRUE,,,,,,,187,vaixell,Catalan,Sounds/cat_vaixell.mp3,2020-06-05_17h01.17.509,TranslationElicitation_eng-prolific,3.2.4,MacIntel,60,5cb77fa063c0780017857c2e,,1,0,81,78,1,80
,,,,,,,,,,,,,,,,,,,,,,,,,,,,,,,,,,,,,,,,,backspace,6.63499999,B,TRUE,,,,,,,187,vaixell,Catalan,Sounds/cat_vaixell.mp3,2020-06-05_17h01.17.509,TranslationElicitation_eng-prolific,3.2.4,MacIntel,60,5cb77fa063c0780017857c2e,,1,0,81,78,1,80
,,,,,,,,,,,,,,,,,,,,,,,,,,,,,,,,,,,,,,,,,e,6.717999935,BE,TRUE,,,,,,,187,vaixell,Catalan,Sounds/cat_vaixell.mp3,2020-06-05_17h01.17.509,TranslationElicitation_eng-prolific,3.2.4,MacIntel,60,5cb77fa063c0780017857c2e,,1,0,81,78,1,80
,,,,,,,,,,,,,,,,,,,,,,,,,,,,,,,,,,,,,,,,,d,6.801000118,BED,TRUE,,,,,,,187,vaixell,Catalan,Sounds/cat_vaixell.mp3,2020-06-05_17h01.17.509,TranslationElicitation_eng-prolific,3.2.4,MacIntel,60,5cb77fa063c0780017857c2e,,1,0,81,78,1,80
,,,,,,,,,,,,,,,,,,,,,,,,,,,,,,,,,,,,,,,,,return,6.851000071,BED,TRUE,,,,,,,187,vaixell,Catalan,Sounds/cat_vaixell.mp3,2020-06-05_17h01.17.509,TranslationElicitation_eng-prolific,3.2.4,MacIntel,60,5cb77fa063c0780017857c2e,6.851000071,1,0,81,78,1,80
,,,,,,,,,,,,,,,,,,,,,,,,,,,,,,,,,,,,,,,,,,,,,,,,,,,187,vaixell,Catalan,Sounds/cat_vaixell.mp3,2020-06-05_17h01.17.509,TranslationElicitation_eng-prolific,3.2.4,MacIntel,60,5cb77fa063c0780017857c2e,,1,0,81,78,1,80
,,,,,,,,,,,,,,,,,,,,,,,,,,,,,,,,,,,,,,,,,b,4.167000055,B,FALSE,,,,,,,150,lloro,Catalan,Sounds/cat_lloro.mp3,2020-06-05_17h01.17.509,TranslationElicitation_eng-prolific,3.2.4,MacIntel,60,5cb77fa063c0780017857c2e,,1,0,81,43,1,80
,,,,,,,,,,,,,,,,,,,,,,,,,,,,,,,,,,,,,,,,,backspace,5.217000008,,TRUE,,,,,,,150,lloro,Catalan,Sounds/cat_lloro.mp3,2020-06-05_17h01.17.509,TranslationElicitation_eng-prolific,3.2.4,MacIntel,60,5cb77fa063c0780017857c2e,,1,0,81,43,1,80
,,,,,,,,,,,,,,,,,,,,,,,,,,,,,,,,,,,,,,,,,return,5.368000031,,TRUE,,,,,,,150,lloro,Catalan,Sounds/cat_lloro.mp3,2020-06-05_17h01.17.509,TranslationElicitation_eng-prolific,3.2.4,MacIntel,60,5cb77fa063c0780017857c2e,5.368000031,1,0,81,43,1,80
,,,,,,,,,,,,,,,,,,,,,,,,,,,,,,,,,,,,,,,,,,,,,,,,,,,150,lloro,Catalan,Sounds/cat_lloro.mp3,2020-06-05_17h01.17.509,TranslationElicitation_eng-prolific,3.2.4,MacIntel,60,5cb77fa063c0780017857c2e,,1,0,81,43,1,80
,,,,,,,,,,,,,,,,,,,,,,,,,,,,,,,,,,,,,,,,,c,1.583000183,C,FALSE,,,,,,,125,colom,Catalan,Sounds/cat_colom.mp3,2020-06-05_17h01.17.509,TranslationElicitation_eng-prolific,3.2.4,MacIntel,60,5cb77fa063c0780017857c2e,,1,0,81,20,1,80
,,,,,,,,,,,,,,,,,,,,,,,,,,,,,,,,,,,,,,,,,o,1.683000088,CO,FALSE,,,,,,,125,colom,Catalan,Sounds/cat_colom.mp3,2020-06-05_17h01.17.509,TranslationElicitation_eng-prolific,3.2.4,MacIntel,60,5cb77fa063c0780017857c2e,,1,0,81,20,1,80
,,,,,,,,,,,,,,,,,,,,,,,,,,,,,,,,,,,,,,,,,l,1.834000111,COL,FALSE,,,,,,,125,colom,Catalan,Sounds/cat_colom.mp3,2020-06-05_17h01.17.509,TranslationElicitation_eng-prolific,3.2.4,MacIntel,60,5cb77fa063c0780017857c2e,,1,0,81,20,1,80
,,,,,,,,,,,,,,,,,,,,,,,,,,,,,,,,,,,,,,,,,o,1.967000008,COLO,FALSE,,,,,,,125,colom,Catalan,Sounds/cat_colom.mp3,2020-06-05_17h01.17.509,TranslationElicitation_eng-prolific,3.2.4,MacIntel,60,5cb77fa063c0780017857c2e,,1,0,81,20,1,80
,,,,,,,,,,,,,,,,,,,,,,,,,,,,,,,,,,,,,,,,,u,2.100000143,COLOU,FALSE,,,,,,,125,colom,Catalan,Sounds/cat_colom.mp3,2020-06-05_17h01.17.509,TranslationElicitation_eng-prolific,3.2.4,MacIntel,60,5cb77fa063c0780017857c2e,,1,0,81,20,1,80
,,,,,,,,,,,,,,,,,,,,,,,,,,,,,,,,,,,,,,,,,r,2.317000151,COLOUR,FALSE,,,,,,,125,colom,Catalan,Sounds/cat_colom.mp3,2020-06-05_17h01.17.509,TranslationElicitation_eng-prolific,3.2.4,MacIntel,60,5cb77fa063c0780017857c2e,,1,0,81,20,1,80
,,,,,,,,,,,,,,,,,,,,,,,,,,,,,,,,,,,,,,,,,return,2.401000023,COLOUR,FALSE,,,,,,,125,colom,Catalan,Sounds/cat_colom.mp3,2020-06-05_17h01.17.509,TranslationElicitation_eng-prolific,3.2.4,MacIntel,60,5cb77fa063c0780017857c2e,2.401000023,1,0,81,20,1,80
,,,,,,,,,,,,,,,,,,,,,,,,,,,,,,,,,,,,,,,,,,,,,,,,,,,125,colom,Catalan,Sounds/cat_colom.mp3,2020-06-05_17h01.17.509,TranslationElicitation_eng-prolific,3.2.4,MacIntel,60,5cb77fa063c0780017857c2e,,1,0,81,20,1,80
,,,,,,,,,,,,,,,,,,,,,,,,,,,,,,,,,,,,,,,,,p,6.201999903,P,FALSE,,,,,,,116,bolquer,Catalan,Sounds/cat_bolquer.mp3,2020-06-05_17h01.17.509,TranslationElicitation_eng-prolific,3.2.4,MacIntel,60,5cb77fa063c0780017857c2e,,1,0,81,11,1,80
,,,,,,,,,,,,,,,,,,,,,,,,,,,,,,,,,,,,,,,,,a,6.267999887,PA,FALSE,,,,,,,116,bolquer,Catalan,Sounds/cat_bolquer.mp3,2020-06-05_17h01.17.509,TranslationElicitation_eng-prolific,3.2.4,MacIntel,60,5cb77fa063c0780017857c2e,,1,0,81,11,1,80
,,,,,,,,,,,,,,,,,,,,,,,,,,,,,,,,,,,,,,,,,r,6.584000111,PAR,FALSE,,,,,,,116,bolquer,Catalan,Sounds/cat_bolquer.mp3,2020-06-05_17h01.17.509,TranslationElicitation_eng-prolific,3.2.4,MacIntel,60,5cb77fa063c0780017857c2e,,1,0,81,11,1,80
,,,,,,,,,,,,,,,,,,,,,,,,,,,,,,,,,,,,,,,,,d,6.802000046,PARD,FALSE,,,,,,,116,bolquer,Catalan,Sounds/cat_bolquer.mp3,2020-06-05_17h01.17.509,TranslationElicitation_eng-prolific,3.2.4,MacIntel,60,5cb77fa063c0780017857c2e,,1,0,81,11,1,80
,,,,,,,,,,,,,,,,,,,,,,,,,,,,,,,,,,,,,,,,,o,6.851999998,PARDO,FALSE,,,,,,,116,bolquer,Catalan,Sounds/cat_bolquer.mp3,2020-06-05_17h01.17.509,TranslationElicitation_eng-prolific,3.2.4,MacIntel,60,5cb77fa063c0780017857c2e,,1,0,81,11,1,80
,,,,,,,,,,,,,,,,,,,,,,,,,,,,,,,,,,,,,,,,,n,6.917999983,PARDON,FALSE,,,,,,,116,bolquer,Catalan,Sounds/cat_bolquer.mp3,2020-06-05_17h01.17.509,TranslationElicitation_eng-prolific,3.2.4,MacIntel,60,5cb77fa063c0780017857c2e,,1,0,81,11,1,80
,,,,,,,,,,,,,,,,,,,,,,,,,,,,,,,,,,,,,,,,,return,7.285000086,PARDON,FALSE,,,,,,,116,bolquer,Catalan,Sounds/cat_bolquer.mp3,2020-06-05_17h01.17.509,TranslationElicitation_eng-prolific,3.2.4,MacIntel,60,5cb77fa063c0780017857c2e,7.285000086,1,0,81,11,1,80
,,,,,,,,,,,,,,,,,,,,,,,,,,,,,,,,,,,,,,,,,,,,,,,,,,,116,bolquer,Catalan,Sounds/cat_bolquer.mp3,2020-06-05_17h01.17.509,TranslationElicitation_eng-prolific,3.2.4,MacIntel,60,5cb77fa063c0780017857c2e,,1,0,81,11,1,80
,,,,,,,,,,,,,,,,,,,,,,,,,,,,,,,,,,,,,,,,,return,2.366999865,,FALSE,,,,,,,139,galleda,Catalan,Sounds/cat_galleda.mp3,2020-06-05_17h01.17.509,TranslationElicitation_eng-prolific,3.2.4,MacIntel,60,5cb77fa063c0780017857c2e,2.366999865,1,0,81,33,1,80
,,,,,,,,,,,,,,,,,,,,,,,,,,,,,,,,,,,,,,,,,,,,,,,,,,,139,galleda,Catalan,Sounds/cat_galleda.mp3,2020-06-05_17h01.17.509,TranslationElicitation_eng-prolific,3.2.4,MacIntel,60,5cb77fa063c0780017857c2e,,1,0,81,33,1,80
,,,,,,,,,,,,,,,,,,,,,,,,,,,,,,,,,,,,,,,,,s,1.73300004,S,FALSE,,,,,,,189,zebra,Catalan,Sounds/cat_zebra.mp3,2020-06-05_17h01.17.509,TranslationElicitation_eng-prolific,3.2.4,MacIntel,60,5cb77fa063c0780017857c2e,,1,0,81,80,1,80
,,,,,,,,,,,,,,,,,,,,,,,,,,,,,,,,,,,,,,,,,backspace,2.384000063,,TRUE,,,,,,,189,zebra,Catalan,Sounds/cat_zebra.mp3,2020-06-05_17h01.17.509,TranslationElicitation_eng-prolific,3.2.4,MacIntel,60,5cb77fa063c0780017857c2e,,1,0,81,80,1,80
,,,,,,,,,,,,,,,,,,,,,,,,,,,,,,,,,,,,,,,,,z,2.5,Z,TRUE,,,,,,,189,zebra,Catalan,Sounds/cat_zebra.mp3,2020-06-05_17h01.17.509,TranslationElicitation_eng-prolific,3.2.4,MacIntel,60,5cb77fa063c0780017857c2e,,1,0,81,80,1,80
,,,,,,,,,,,,,,,,,,,,,,,,,,,,,,,,,,,,,,,,,e,2.782999992,ZE,TRUE,,,,,,,189,zebra,Catalan,Sounds/cat_zebra.mp3,2020-06-05_17h01.17.509,TranslationElicitation_eng-prolific,3.2.4,MacIntel,60,5cb77fa063c0780017857c2e,,1,0,81,80,1,80
,,,,,,,,,,,,,,,,,,,,,,,,,,,,,,,,,,,,,,,,,b,2.96600008,ZEB,TRUE,,,,,,,189,zebra,Catalan,Sounds/cat_zebra.mp3,2020-06-05_17h01.17.509,TranslationElicitation_eng-prolific,3.2.4,MacIntel,60,5cb77fa063c0780017857c2e,,1,0,81,80,1,80
,,,,,,,,,,,,,,,,,,,,,,,,,,,,,,,,,,,,,,,,,r,3.115999937,ZEBR,TRUE,,,,,,,189,zebra,Catalan,Sounds/cat_zebra.mp3,2020-06-05_17h01.17.509,TranslationElicitation_eng-prolific,3.2.4,MacIntel,60,5cb77fa063c0780017857c2e,,1,0,81,80,1,80
,,,,,,,,,,,,,,,,,,,,,,,,,,,,,,,,,,,,,,,,,a,3.400000095,ZEBRA,TRUE,,,,,,,189,zebra,Catalan,Sounds/cat_zebra.mp3,2020-06-05_17h01.17.509,TranslationElicitation_eng-prolific,3.2.4,MacIntel,60,5cb77fa063c0780017857c2e,,1,0,81,80,1,80
,,,,,,,,,,,,,,,,,,,,,,,,,,,,,,,,,,,,,,,,,return,3.534000158,ZEBRA,TRUE,,,,,,,189,zebra,Catalan,Sounds/cat_zebra.mp3,2020-06-05_17h01.17.509,TranslationElicitation_eng-prolific,3.2.4,MacIntel,60,5cb77fa063c0780017857c2e,3.534000158,1,0,81,80,1,80
,,,,,,,,,,,,,,,,,,,,,,,,,,,,,,,,,,,,,,,,,,,,,,,,,,,189,zebra,Catalan,Sounds/cat_zebra.mp3,2020-06-05_17h01.17.509,TranslationElicitation_eng-prolific,3.2.4,MacIntel,60,5cb77fa063c0780017857c2e,,1,0,81,80,1,80
,,,,,,,,,,,,,,,,,,,,,,,,,,,,,,,,,,,,,,,,,w,2.599999905,W,FALSE,,,,,,,148,lleo,Catalan,Sounds/cat_lleo.mp3,2020-06-05_17h01.17.509,TranslationElicitation_eng-prolific,3.2.4,MacIntel,60,5cb77fa063c0780017857c2e,,1,0,81,41,1,80
,,,,,,,,,,,,,,,,,,,,,,,,,,,,,,,,,,,,,,,,,h,2.682999849,WH,FALSE,,,,,,,148,lleo,Catalan,Sounds/cat_lleo.mp3,2020-06-05_17h01.17.509,TranslationElicitation_eng-prolific,3.2.4,MacIntel,60,5cb77fa063c0780017857c2e,,1,0,81,41,1,80
,,,,,,,,,,,,,,,,,,,,,,,,,,,,,,,,,,,,,,,,,o,2.75,WHO,FALSE,,,,,,,148,lleo,Catalan,Sounds/cat_lleo.mp3,2020-06-05_17h01.17.509,TranslationElicitation_eng-prolific,3.2.4,MacIntel,60,5cb77fa063c0780017857c2e,,1,0,81,41,1,80
,,,,,,,,,,,,,,,,,,,,,,,,,,,,,,,,,,,,,,,,,l,2.949999809,WHOL,FALSE,,,,,,,148,lleo,Catalan,Sounds/cat_lleo.mp3,2020-06-05_17h01.17.509,TranslationElicitation_eng-prolific,3.2.4,MacIntel,60,5cb77fa063c0780017857c2e,,1,0,81,41,1,80
,,,,,,,,,,,,,,,,,,,,,,,,,,,,,,,,,,,,,,,,,e,3.01699996,WHOLE,FALSE,,,,,,,148,lleo,Catalan,Sounds/cat_lleo.mp3,2020-06-05_17h01.17.509,TranslationElicitation_eng-prolific,3.2.4,MacIntel,60,5cb77fa063c0780017857c2e,,1,0,81,41,1,80
,,,,,,,,,,,,,,,,,,,,,,,,,,,,,,,,,,,,,,,,,return,3.965999842,WHOLE,FALSE,,,,,,,148,lleo,Catalan,Sounds/cat_lleo.mp3,2020-06-05_17h01.17.509,TranslationElicitation_eng-prolific,3.2.4,MacIntel,60,5cb77fa063c0780017857c2e,3.965999842,1,0,81,41,1,80
,,,,,,,,,,,,,,,,,,,,,,,,,,,,,,,,,,,,,,,,,,,,,,,,,,,148,lleo,Catalan,Sounds/cat_lleo.mp3,2020-06-05_17h01.17.509,TranslationElicitation_eng-prolific,3.2.4,MacIntel,60,5cb77fa063c0780017857c2e,,1,0,81,41,1,80
,,,,,,,,,,,,,,,,,,,,,,,,,,,,,,,,,,,,,,,,,w,2.100000143,W,FALSE,,,,,,,184,ull,Catalan,Sounds/cat_ull.mp3,2020-06-05_17h01.17.509,TranslationElicitation_eng-prolific,3.2.4,MacIntel,60,5cb77fa063c0780017857c2e,,1,0,81,75,1,80
,,,,,,,,,,,,,,,,,,,,,,,,,,,,,,,,,,,,,,,,,h,2.234000206,WH,FALSE,,,,,,,184,ull,Catalan,Sounds/cat_ull.mp3,2020-06-05_17h01.17.509,TranslationElicitation_eng-prolific,3.2.4,MacIntel,60,5cb77fa063c0780017857c2e,,1,0,81,75,1,80
,,,,,,,,,,,,,,,,,,,,,,,,,,,,,,,,,,,,,,,,,o,2.267000198,WHO,FALSE,,,,,,,184,ull,Catalan,Sounds/cat_ull.mp3,2020-06-05_17h01.17.509,TranslationElicitation_eng-prolific,3.2.4,MacIntel,60,5cb77fa063c0780017857c2e,,1,0,81,75,1,80
,,,,,,,,,,,,,,,,,,,,,,,,,,,,,,,,,,,,,,,,,l,2.467000008,WHOL,FALSE,,,,,,,184,ull,Catalan,Sounds/cat_ull.mp3,2020-06-05_17h01.17.509,TranslationElicitation_eng-prolific,3.2.4,MacIntel,60,5cb77fa063c0780017857c2e,,1,0,81,75,1,80
,,,,,,,,,,,,,,,,,,,,,,,,,,,,,,,,,,,,,,,,,e,2.534000158,WHOLE,FALSE,,,,,,,184,ull,Catalan,Sounds/cat_ull.mp3,2020-06-05_17h01.17.509,TranslationElicitation_eng-prolific,3.2.4,MacIntel,60,5cb77fa063c0780017857c2e,,1,0,81,75,1,80
,,,,,,,,,,,,,,,,,,,,,,,,,,,,,,,,,,,,,,,,,return,2.71600008,WHOLE,FALSE,,,,,,,184,ull,Catalan,Sounds/cat_ull.mp3,2020-06-05_17h01.17.509,TranslationElicitation_eng-prolific,3.2.4,MacIntel,60,5cb77fa063c0780017857c2e,2.71600008,1,0,81,75,1,80
,,,,,,,,,,,,,,,,,,,,,,,,,,,,,,,,,,,,,,,,,,,,,,,,,,,184,ull,Catalan,Sounds/cat_ull.mp3,2020-06-05_17h01.17.509,TranslationElicitation_eng-prolific,3.2.4,MacIntel,60,5cb77fa063c0780017857c2e,,1,0,81,75,1,80
,,,,,,,,,,,,,,,,,,,,,,,,,,,,,,,,,,,,,,,,,c,2.068000078,C,FALSE,,,,,,,128,cuc,Catalan,Sounds/cat_cuc.mp3,2020-06-05_17h01.17.509,TranslationElicitation_eng-prolific,3.2.4,MacIntel,60,5cb77fa063c0780017857c2e,,1,0,81,22,1,80
,,,,,,,,,,,,,,,,,,,,,,,,,,,,,,,,,,,,,,,,,o,2.184000015,CO,FALSE,,,,,,,128,cuc,Catalan,Sounds/cat_cuc.mp3,2020-06-05_17h01.17.509,TranslationElicitation_eng-prolific,3.2.4,MacIntel,60,5cb77fa063c0780017857c2e,,1,0,81,22,1,80
,,,,,,,,,,,,,,,,,,,,,,,,,,,,,,,,,,,,,,,,,k,2.26699996,COK,FALSE,,,,,,,128,cuc,Catalan,Sounds/cat_cuc.mp3,2020-06-05_17h01.17.509,TranslationElicitation_eng-prolific,3.2.4,MacIntel,60,5cb77fa063c0780017857c2e,,1,0,81,22,1,80
,,,,,,,,,,,,,,,,,,,,,,,,,,,,,,,,,,,,,,,,,e,2.334000111,COKE,FALSE,,,,,,,128,cuc,Catalan,Sounds/cat_cuc.mp3,2020-06-05_17h01.17.509,TranslationElicitation_eng-prolific,3.2.4,MacIntel,60,5cb77fa063c0780017857c2e,,1,0,81,22,1,80
,,,,,,,,,,,,,,,,,,,,,,,,,,,,,,,,,,,,,,,,,return,2.434000015,COKE,FALSE,,,,,,,128,cuc,Catalan,Sounds/cat_cuc.mp3,2020-06-05_17h01.17.509,TranslationElicitation_eng-prolific,3.2.4,MacIntel,60,5cb77fa063c0780017857c2e,2.434000015,1,0,81,22,1,80
,,,,,,,,,,,,,,,,,,,,,,,,,,,,,,,,,,,,,,,,,,,,,,,,,,,128,cuc,Catalan,Sounds/cat_cuc.mp3,2020-06-05_17h01.17.509,TranslationElicitation_eng-prolific,3.2.4,MacIntel,60,5cb77fa063c0780017857c2e,,1,0,81,22,1,80
,,,,,,,,,,,,,,,,,,,,,,,,,,,,,,,,,,,,,,,,,c,1.600000143,C,FALSE,,,,,,,119,caixa,Catalan,Sounds/cat_caixa.mp3,2020-06-05_17h01.17.509,TranslationElicitation_eng-prolific,3.2.4,MacIntel,60,5cb77fa063c0780017857c2e,,1,0,81,14,1,80
,,,,,,,,,,,,,,,,,,,,,,,,,,,,,,,,,,,,,,,,,a,1.69900012,CA,FALSE,,,,,,,119,caixa,Catalan,Sounds/cat_caixa.mp3,2020-06-05_17h01.17.509,TranslationElicitation_eng-prolific,3.2.4,MacIntel,60,5cb77fa063c0780017857c2e,,1,0,81,14,1,80
,,,,,,,,,,,,,,,,,,,,,,,,,,,,,,,,,,,,,,,,,s,1.850000143,CAS,FALSE,,,,,,,119,caixa,Catalan,Sounds/cat_caixa.mp3,2020-06-05_17h01.17.509,TranslationElicitation_eng-prolific,3.2.4,MacIntel,60,5cb77fa063c0780017857c2e,,1,0,81,14,1,80
,,,,,,,,,,,,,,,,,,,,,,,,,,,,,,,,,,,,,,,,,h,1.96600008,CASH,FALSE,,,,,,,119,caixa,Catalan,Sounds/cat_caixa.mp3,2020-06-05_17h01.17.509,TranslationElicitation_eng-prolific,3.2.4,MacIntel,60,5cb77fa063c0780017857c2e,,1,0,81,14,1,80
,,,,,,,,,,,,,,,,,,,,,,,,,,,,,,,,,,,,,,,,,return,2.150000095,CASH,FALSE,,,,,,,119,caixa,Catalan,Sounds/cat_caixa.mp3,2020-06-05_17h01.17.509,TranslationElicitation_eng-prolific,3.2.4,MacIntel,60,5cb77fa063c0780017857c2e,2.150000095,1,0,81,14,1,80
,,,,,,,,,,,,,,,,,,,,,,,,,,,,,,,,,,,,,,,,,,,,,,,,,,,119,caixa,Catalan,Sounds/cat_caixa.mp3,2020-06-05_17h01.17.509,TranslationElicitation_eng-prolific,3.2.4,MacIntel,60,5cb77fa063c0780017857c2e,,1,0,81,14,1,80
,,,,,,,,,,,,,,,,,,,,,,,,,,,,,,,,,,,,,,,,,a,1.434000015,A,FALSE,,,,,,,132,estrella,Catalan,Sounds/cat_estrella.mp3,2020-06-05_17h01.17.509,TranslationElicitation_eng-prolific,3.2.4,MacIntel,60,5cb77fa063c0780017857c2e,,1,0,81,26,1,80
,,,,,,,,,,,,,,,,,,,,,,,,,,,,,,,,,,,,,,,,,u,1.63499999,AU,FALSE,,,,,,,132,estrella,Catalan,Sounds/cat_estrella.mp3,2020-06-05_17h01.17.509,TranslationElicitation_eng-prolific,3.2.4,MacIntel,60,5cb77fa063c0780017857c2e,,1,0,81,26,1,80
,,,,,,,,,,,,,,,,,,,,,,,,,,,,,,,,,,,,,,,,,s,1.850999832,AUS,FALSE,,,,,,,132,estrella,Catalan,Sounds/cat_estrella.mp3,2020-06-05_17h01.17.509,TranslationElicitation_eng-prolific,3.2.4,MacIntel,60,5cb77fa063c0780017857c2e,,1,0,81,26,1,80
,,,,,,,,,,,,,,,,,,,,,,,,,,,,,,,,,,,,,,,,,t,1.983999968,AUST,FALSE,,,,,,,132,estrella,Catalan,Sounds/cat_estrella.mp3,2020-06-05_17h01.17.509,TranslationElicitation_eng-prolific,3.2.4,MacIntel,60,5cb77fa063c0780017857c2e,,1,0,81,26,1,80
,,,,,,,,,,,,,,,,,,,,,,,,,,,,,,,,,,,,,,,,,r,2.133999825,AUSTR,FALSE,,,,,,,132,estrella,Catalan,Sounds/cat_estrella.mp3,2020-06-05_17h01.17.509,TranslationElicitation_eng-prolific,3.2.4,MacIntel,60,5cb77fa063c0780017857c2e,,1,0,81,26,1,80
,,,,,,,,,,,,,,,,,,,,,,,,,,,,,,,,,,,,,,,,,a,2.217000008,AUSTRA,FALSE,,,,,,,132,estrella,Catalan,Sounds/cat_estrella.mp3,2020-06-05_17h01.17.509,TranslationElicitation_eng-prolific,3.2.4,MacIntel,60,5cb77fa063c0780017857c2e,,1,0,81,26,1,80
,,,,,,,,,,,,,,,,,,,,,,,,,,,,,,,,,,,,,,,,,l,2.38499999,AUSTRAL,FALSE,,,,,,,132,estrella,Catalan,Sounds/cat_estrella.mp3,2020-06-05_17h01.17.509,TranslationElicitation_eng-prolific,3.2.4,MacIntel,60,5cb77fa063c0780017857c2e,,1,0,81,26,1,80
,,,,,,,,,,,,,,,,,,,,,,,,,,,,,,,,,,,,,,,,,i,2.500999928,AUSTRALI,FALSE,,,,,,,132,estrella,Catalan,Sounds/cat_estrella.mp3,2020-06-05_17h01.17.509,TranslationElicitation_eng-prolific,3.2.4,MacIntel,60,5cb77fa063c0780017857c2e,,1,0,81,26,1,80
,,,,,,,,,,,,,,,,,,,,,,,,,,,,,,,,,,,,,,,,,a,2.55099988,AUSTRALIA,FALSE,,,,,,,132,estrella,Catalan,Sounds/cat_estrella.mp3,2020-06-05_17h01.17.509,TranslationElicitation_eng-prolific,3.2.4,MacIntel,60,5cb77fa063c0780017857c2e,,1,0,81,26,1,80
,,,,,,,,,,,,,,,,,,,,,,,,,,,,,,,,,,,,,,,,,return,2.700999975,AUSTRALIA,FALSE,,,,,,,132,estrella,Catalan,Sounds/cat_estrella.mp3,2020-06-05_17h01.17.509,TranslationElicitation_eng-prolific,3.2.4,MacIntel,60,5cb77fa063c0780017857c2e,2.700999975,1,0,81,26,1,80
,,,,,,,,,,,,,,,,,,,,,,,,,,,,,,,,,,,,,,,,,,,,,,,,,,,132,estrella,Catalan,Sounds/cat_estrella.mp3,2020-06-05_17h01.17.509,TranslationElicitation_eng-prolific,3.2.4,MacIntel,60,5cb77fa063c0780017857c2e,,1,0,81,26,1,80
,,,,,,,,,,,,,,,,,,,,,,,,,,,,,,,,,,,,,,,,,k,2.48300004,K,FALSE,,,,,,,107,amanida,Catalan,Sounds/cat_amanida.mp3,2020-06-05_17h01.17.509,TranslationElicitation_eng-prolific,3.2.4,MacIntel,60,5cb77fa063c0780017857c2e,,1,0,81,3,1,80
,,,,,,,,,,,,,,,,,,,,,,,,,,,,,,,,,,,,,,,,,n,2.53399992,KN,FALSE,,,,,,,107,amanida,Catalan,Sounds/cat_amanida.mp3,2020-06-05_17h01.17.509,TranslationElicitation_eng-prolific,3.2.4,MacIntel,60,5cb77fa063c0780017857c2e,,1,0,81,3,1,80
,,,,,,,,,,,,,,,,,,,,,,,,,,,,,,,,,,,,,,,,,e,2.700000048,KNE,FALSE,,,,,,,107,amanida,Catalan,Sounds/cat_amanida.mp3,2020-06-05_17h01.17.509,TranslationElicitation_eng-prolific,3.2.4,MacIntel,60,5cb77fa063c0780017857c2e,,1,0,81,3,1,80
,,,,,,,,,,,,,,,,,,,,,,,,,,,,,,,,,,,,,,,,,e,2.850999832,KNEE,FALSE,,,,,,,107,amanida,Catalan,Sounds/cat_amanida.mp3,2020-06-05_17h01.17.509,TranslationElicitation_eng-prolific,3.2.4,MacIntel,60,5cb77fa063c0780017857c2e,,1,0,81,3,1,80
,,,,,,,,,,,,,,,,,,,,,,,,,,,,,,,,,,,,,,,,,s,3.032999992,KNEES,FALSE,,,,,,,107,amanida,Catalan,Sounds/cat_amanida.mp3,2020-06-05_17h01.17.509,TranslationElicitation_eng-prolific,3.2.4,MacIntel,60,5cb77fa063c0780017857c2e,,1,0,81,3,1,80
,,,,,,,,,,,,,,,,,,,,,,,,,,,,,,,,,,,,,,,,,return,3.116999865,KNEES,FALSE,,,,,,,107,amanida,Catalan,Sounds/cat_amanida.mp3,2020-06-05_17h01.17.509,TranslationElicitation_eng-prolific,3.2.4,MacIntel,60,5cb77fa063c0780017857c2e,3.116999865,1,0,81,3,1,80
,,,,,,,,,,,,,,,,,,,,,,,,,,,,,,,,,,,,,,,,,,,,,,,,,,,107,amanida,Catalan,Sounds/cat_amanida.mp3,2020-06-05_17h01.17.509,TranslationElicitation_eng-prolific,3.2.4,MacIntel,60,5cb77fa063c0780017857c2e,,1,0,81,3,1,80
,,,,,,,,,,,,,,,,,,,,,,,,,,,,,,,,,,,,,,,,,c,1.431999922,C,FALSE,,,,,,,188,xocolata,Catalan,Sounds/cat_xocolata.mp3,2020-06-05_17h01.17.509,TranslationElicitation_eng-prolific,3.2.4,MacIntel,60,5cb77fa063c0780017857c2e,,1,0,81,79,1,80
,,,,,,,,,,,,,,,,,,,,,,,,,,,,,,,,,,,,,,,,,h,1.665999889,CH,FALSE,,,,,,,188,xocolata,Catalan,Sounds/cat_xocolata.mp3,2020-06-05_17h01.17.509,TranslationElicitation_eng-prolific,3.2.4,MacIntel,60,5cb77fa063c0780017857c2e,,1,0,81,79,1,80
,,,,,,,,,,,,,,,,,,,,,,,,,,,,,,,,,,,,,,,,,o,1.782999992,CHO,FALSE,,,,,,,188,xocolata,Catalan,Sounds/cat_xocolata.mp3,2020-06-05_17h01.17.509,TranslationElicitation_eng-prolific,3.2.4,MacIntel,60,5cb77fa063c0780017857c2e,,1,0,81,79,1,80
,,,,,,,,,,,,,,,,,,,,,,,,,,,,,,,,,,,,,,,,,c,1.898999929,CHOC,FALSE,,,,,,,188,xocolata,Catalan,Sounds/cat_xocolata.mp3,2020-06-05_17h01.17.509,TranslationElicitation_eng-prolific,3.2.4,MacIntel,60,5cb77fa063c0780017857c2e,,1,0,81,79,1,80
,,,,,,,,,,,,,,,,,,,,,,,,,,,,,,,,,,,,,,,,,o,2,CHOCO,FALSE,,,,,,,188,xocolata,Catalan,Sounds/cat_xocolata.mp3,2020-06-05_17h01.17.509,TranslationElicitation_eng-prolific,3.2.4,MacIntel,60,5cb77fa063c0780017857c2e,,1,0,81,79,1,80
,,,,,,,,,,,,,,,,,,,,,,,,,,,,,,,,,,,,,,,,,l,2.25,CHOCOL,FALSE,,,,,,,188,xocolata,Catalan,Sounds/cat_xocolata.mp3,2020-06-05_17h01.17.509,TranslationElicitation_eng-prolific,3.2.4,MacIntel,60,5cb77fa063c0780017857c2e,,1,0,81,79,1,80
,,,,,,,,,,,,,,,,,,,,,,,,,,,,,,,,,,,,,,,,,a,2.398999929,CHOCOLA,FALSE,,,,,,,188,xocolata,Catalan,Sounds/cat_xocolata.mp3,2020-06-05_17h01.17.509,TranslationElicitation_eng-prolific,3.2.4,MacIntel,60,5cb77fa063c0780017857c2e,,1,0,81,79,1,80
,,,,,,,,,,,,,,,,,,,,,,,,,,,,,,,,,,,,,,,,,t,2.916999817,CHOCOLAT,FALSE,,,,,,,188,xocolata,Catalan,Sounds/cat_xocolata.mp3,2020-06-05_17h01.17.509,TranslationElicitation_eng-prolific,3.2.4,MacIntel,60,5cb77fa063c0780017857c2e,,1,0,81,79,1,80
,,,,,,,,,,,,,,,,,,,,,,,,,,,,,,,,,,,,,,,,,e,3.032999992,CHOCOLATE,FALSE,,,,,,,188,xocolata,Catalan,Sounds/cat_xocolata.mp3,2020-06-05_17h01.17.509,TranslationElicitation_eng-prolific,3.2.4,MacIntel,60,5cb77fa063c0780017857c2e,,1,0,81,79,1,80
,,,,,,,,,,,,,,,,,,,,,,,,,,,,,,,,,,,,,,,,,return,3.165999889,CHOCOLATE,FALSE,,,,,,,188,xocolata,Catalan,Sounds/cat_xocolata.mp3,2020-06-05_17h01.17.509,TranslationElicitation_eng-prolific,3.2.4,MacIntel,60,5cb77fa063c0780017857c2e,3.165999889,1,0,81,79,1,80
,,,,,,,,,,,,,,,,,,,,,,,,,,,,,,,,,,,,,,,,,,,,,,,,,,,188,xocolata,Catalan,Sounds/cat_xocolata.mp3,2020-06-05_17h01.17.509,TranslationElicitation_eng-prolific,3.2.4,MacIntel,60,5cb77fa063c0780017857c2e,,1,0,81,79,1,80
,,,,,,,,,,,,,,,,,,,,,,,,,,,,,,,,,,,,,,,,,e,3.200000048,E,FALSE,,,,,,,185,ulleres,Catalan,Sounds/cat_ulleres.mp3,2020-06-05_17h01.17.509,TranslationElicitation_eng-prolific,3.2.4,MacIntel,60,5cb77fa063c0780017857c2e,,1,0,81,76,1,80
,,,,,,,,,,,,,,,,,,,,,,,,,,,,,,,,,,,,,,,,,a,3.400000095,EA,FALSE,,,,,,,185,ulleres,Catalan,Sounds/cat_ulleres.mp3,2020-06-05_17h01.17.509,TranslationElicitation_eng-prolific,3.2.4,MacIntel,60,5cb77fa063c0780017857c2e,,1,0,81,76,1,80
,,,,,,,,,,,,,,,,,,,,,,,,,,,,,,,,,,,,,,,,,r,3.917000055,EAR,FALSE,,,,,,,185,ulleres,Catalan,Sounds/cat_ulleres.mp3,2020-06-05_17h01.17.509,TranslationElicitation_eng-prolific,3.2.4,MacIntel,60,5cb77fa063c0780017857c2e,,1,0,81,76,1,80
,,,,,,,,,,,,,,,,,,,,,,,,,,,,,,,,,,,,,,,,,s,4.150000095,EARS,FALSE,,,,,,,185,ulleres,Catalan,Sounds/cat_ulleres.mp3,2020-06-05_17h01.17.509,TranslationElicitation_eng-prolific,3.2.4,MacIntel,60,5cb77fa063c0780017857c2e,,1,0,81,76,1,80
,,,,,,,,,,,,,,,,,,,,,,,,,,,,,,,,,,,,,,,,,return,4.200000048,EARS,FALSE,,,,,,,185,ulleres,Catalan,Sounds/cat_ulleres.mp3,2020-06-05_17h01.17.509,TranslationElicitation_eng-prolific,3.2.4,MacIntel,60,5cb77fa063c0780017857c2e,4.200000048,1,0,81,76,1,80
,,,,,,,,,,,,,,,,,,,,,,,,,,,,,,,,,,,,,,,,,,,,,,,,,,,185,ulleres,Catalan,Sounds/cat_ulleres.mp3,2020-06-05_17h01.17.509,TranslationElicitation_eng-prolific,3.2.4,MacIntel,60,5cb77fa063c0780017857c2e,,1,0,81,76,1,80
,,,,,,,,,,,,,,,,,,,,,,,,,,,,,,,,,,,,,,,,,d,2.200999975,D,FALSE,,,,,,,129,dit,Catalan,Sounds/cat_dit.mp3,2020-06-05_17h01.17.509,TranslationElicitation_eng-prolific,3.2.4,MacIntel,60,5cb77fa063c0780017857c2e,,1,0,81,23,1,80
,,,,,,,,,,,,,,,,,,,,,,,,,,,,,,,,,,,,,,,,,e,2.335000038,DE,FALSE,,,,,,,129,dit,Catalan,Sounds/cat_dit.mp3,2020-06-05_17h01.17.509,TranslationElicitation_eng-prolific,3.2.4,MacIntel,60,5cb77fa063c0780017857c2e,,1,0,81,23,1,80
,,,,,,,,,,,,,,,,,,,,,,,,,,,,,,,,,,,,,,,,,e,2.484999895,DEE,FALSE,,,,,,,129,dit,Catalan,Sounds/cat_dit.mp3,2020-06-05_17h01.17.509,TranslationElicitation_eng-prolific,3.2.4,MacIntel,60,5cb77fa063c0780017857c2e,,1,0,81,23,1,80
,,,,,,,,,,,,,,,,,,,,,,,,,,,,,,,,,,,,,,,,,p,2.618000031,DEEP,FALSE,,,,,,,129,dit,Catalan,Sounds/cat_dit.mp3,2020-06-05_17h01.17.509,TranslationElicitation_eng-prolific,3.2.4,MacIntel,60,5cb77fa063c0780017857c2e,,1,0,81,23,1,80
,,,,,,,,,,,,,,,,,,,,,,,,,,,,,,,,,,,,,,,,,return,2.750999928,DEEP,FALSE,,,,,,,129,dit,Catalan,Sounds/cat_dit.mp3,2020-06-05_17h01.17.509,TranslationElicitation_eng-prolific,3.2.4,MacIntel,60,5cb77fa063c0780017857c2e,2.750999928,1,0,81,23,1,80
,,,,,,,,,,,,,,,,,,,,,,,,,,,,,,,,,,,,,,,,,,,,,,,,,,,129,dit,Catalan,Sounds/cat_dit.mp3,2020-06-05_17h01.17.509,TranslationElicitation_eng-prolific,3.2.4,MacIntel,60,5cb77fa063c0780017857c2e,,1,0,81,23,1,80
,,,,,,,,,,,,,,,,,,,,,,,,,,,,,,,,,,,,,,,,,g,2.431999922,G,FALSE,,,,,,,140,gat,Catalan,Sounds/cat_gat.mp3,2020-06-05_17h01.17.509,TranslationElicitation_eng-prolific,3.2.4,MacIntel,60,5cb77fa063c0780017857c2e,,1,0,81,34,1,80
,,,,,,,,,,,,,,,,,,,,,,,,,,,,,,,,,,,,,,,,,a,2.565999985,GA,FALSE,,,,,,,140,gat,Catalan,Sounds/cat_gat.mp3,2020-06-05_17h01.17.509,TranslationElicitation_eng-prolific,3.2.4,MacIntel,60,5cb77fa063c0780017857c2e,,1,0,81,34,1,80
,,,,,,,,,,,,,,,,,,,,,,,,,,,,,,,,,,,,,,,,,s,2.731999874,GAS,FALSE,,,,,,,140,gat,Catalan,Sounds/cat_gat.mp3,2020-06-05_17h01.17.509,TranslationElicitation_eng-prolific,3.2.4,MacIntel,60,5cb77fa063c0780017857c2e,,1,0,81,34,1,80
,,,,,,,,,,,,,,,,,,,,,,,,,,,,,,,,,,,,,,,,,p,2.881999969,GASP,FALSE,,,,,,,140,gat,Catalan,Sounds/cat_gat.mp3,2020-06-05_17h01.17.509,TranslationElicitation_eng-prolific,3.2.4,MacIntel,60,5cb77fa063c0780017857c2e,,1,0,81,34,1,80
,,,,,,,,,,,,,,,,,,,,,,,,,,,,,,,,,,,,,,,,,return,3.182999849,GASP,FALSE,,,,,,,140,gat,Catalan,Sounds/cat_gat.mp3,2020-06-05_17h01.17.509,TranslationElicitation_eng-prolific,3.2.4,MacIntel,60,5cb77fa063c0780017857c2e,3.182999849,1,0,81,34,1,80
,,,,,,,,,,,,,,,,,,,,,,,,,,,,,,,,,,,,,,,,,,,,,,,,,,,140,gat,Catalan,Sounds/cat_gat.mp3,2020-06-05_17h01.17.509,TranslationElicitation_eng-prolific,3.2.4,MacIntel,60,5cb77fa063c0780017857c2e,,1,0,81,34,1,80
,,,,,,,,,,,,,,,,,,,,,,,,,,,,,,,,,,,,,,,,,l,2.249000072,L,FALSE,,,,,,,141,gerd,Catalan,Sounds/cat_gerd.mp3,2020-06-05_17h01.17.509,TranslationElicitation_eng-prolific,3.2.4,MacIntel,60,5cb77fa063c0780017857c2e,,1,0,81,35,1,80
,,,,,,,,,,,,,,,,,,,,,,,,,,,,,,,,,,,,,,,,,i,2.334000111,LI,FALSE,,,,,,,141,gerd,Catalan,Sounds/cat_gerd.mp3,2020-06-05_17h01.17.509,TranslationElicitation_eng-prolific,3.2.4,MacIntel,60,5cb77fa063c0780017857c2e,,1,0,81,35,1,80
,,,,,,,,,,,,,,,,,,,,,,,,,,,,,,,,,,,,,,,,,k,2.534000158,LIK,FALSE,,,,,,,141,gerd,Catalan,Sounds/cat_gerd.mp3,2020-06-05_17h01.17.509,TranslationElicitation_eng-prolific,3.2.4,MacIntel,60,5cb77fa063c0780017857c2e,,1,0,81,35,1,80
,,,,,,,,,,,,,,,,,,,,,,,,,,,,,,,,,,,,,,,,,e,2.75,LIKE,FALSE,,,,,,,141,gerd,Catalan,Sounds/cat_gerd.mp3,2020-06-05_17h01.17.509,TranslationElicitation_eng-prolific,3.2.4,MacIntel,60,5cb77fa063c0780017857c2e,,1,0,81,35,1,80
,,,,,,,,,,,,,,,,,,,,,,,,,,,,,,,,,,,,,,,,,return,3.01699996,LIKE,FALSE,,,,,,,141,gerd,Catalan,Sounds/cat_gerd.mp3,2020-06-05_17h01.17.509,TranslationElicitation_eng-prolific,3.2.4,MacIntel,60,5cb77fa063c0780017857c2e,3.01699996,1,0,81,35,1,80
,,,,,,,,,,,,,,,,,,,,,,,,,,,,,,,,,,,,,,,,,,,,,,,,,,,141,gerd,Catalan,Sounds/cat_gerd.mp3,2020-06-05_17h01.17.509,TranslationElicitation_eng-prolific,3.2.4,MacIntel,60,5cb77fa063c0780017857c2e,,1,0,81,35,1,80
,,,,,,,,,,,,,,,,,,,,,,,,,,,,,,,,,,,,,,,,,s,2.401000023,S,FALSE,,,,,,,133,estruc,Catalan,Sounds/cat_estruc.mp3,2020-06-05_17h01.17.509,TranslationElicitation_eng-prolific,3.2.4,MacIntel,60,5cb77fa063c0780017857c2e,,1,0,81,27,1,80
,,,,,,,,,,,,,,,,,,,,,,,,,,,,,,,,,,,,,,,,,t,2.534000158,ST,FALSE,,,,,,,133,estruc,Catalan,Sounds/cat_estruc.mp3,2020-06-05_17h01.17.509,TranslationElicitation_eng-prolific,3.2.4,MacIntel,60,5cb77fa063c0780017857c2e,,1,0,81,27,1,80
,,,,,,,,,,,,,,,,,,,,,,,,,,,,,,,,,,,,,,,,,r,2.634000063,STR,FALSE,,,,,,,133,estruc,Catalan,Sounds/cat_estruc.mp3,2020-06-05_17h01.17.509,TranslationElicitation_eng-prolific,3.2.4,MacIntel,60,5cb77fa063c0780017857c2e,,1,0,81,27,1,80
,,,,,,,,,,,,,,,,,,,,,,,,,,,,,,,,,,,,,,,,,a,2.733999968,STRA,FALSE,,,,,,,133,estruc,Catalan,Sounds/cat_estruc.mp3,2020-06-05_17h01.17.509,TranslationElicitation_eng-prolific,3.2.4,MacIntel,60,5cb77fa063c0780017857c2e,,1,0,81,27,1,80
,,,,,,,,,,,,,,,,,,,,,,,,,,,,,,,,,,,,,,,,,w,3.384000063,STRAW,FALSE,,,,,,,133,estruc,Catalan,Sounds/cat_estruc.mp3,2020-06-05_17h01.17.509,TranslationElicitation_eng-prolific,3.2.4,MacIntel,60,5cb77fa063c0780017857c2e,,1,0,81,27,1,80
,,,,,,,,,,,,,,,,,,,,,,,,,,,,,,,,,,,,,,,,,b,3.634000063,STRAWB,FALSE,,,,,,,133,estruc,Catalan,Sounds/cat_estruc.mp3,2020-06-05_17h01.17.509,TranslationElicitation_eng-prolific,3.2.4,MacIntel,60,5cb77fa063c0780017857c2e,,1,0,81,27,1,80
,,,,,,,,,,,,,,,,,,,,,,,,,,,,,,,,,,,,,,,,,e,3.817000151,STRAWBE,FALSE,,,,,,,133,estruc,Catalan,Sounds/cat_estruc.mp3,2020-06-05_17h01.17.509,TranslationElicitation_eng-prolific,3.2.4,MacIntel,60,5cb77fa063c0780017857c2e,,1,0,81,27,1,80
,,,,,,,,,,,,,,,,,,,,,,,,,,,,,,,,,,,,,,,,,r,3.917000055,STRAWBER,FALSE,,,,,,,133,estruc,Catalan,Sounds/cat_estruc.mp3,2020-06-05_17h01.17.509,TranslationElicitation_eng-prolific,3.2.4,MacIntel,60,5cb77fa063c0780017857c2e,,1,0,81,27,1,80
,,,,,,,,,,,,,,,,,,,,,,,,,,,,,,,,,,,,,,,,,t,4.167000055,STRAWBERT,FALSE,,,,,,,133,estruc,Catalan,Sounds/cat_estruc.mp3,2020-06-05_17h01.17.509,TranslationElicitation_eng-prolific,3.2.4,MacIntel,60,5cb77fa063c0780017857c2e,,1,0,81,27,1,80
,,,,,,,,,,,,,,,,,,,,,,,,,,,,,,,,,,,,,,,,,backspace,4.651000023,STRAWBER,TRUE,,,,,,,133,estruc,Catalan,Sounds/cat_estruc.mp3,2020-06-05_17h01.17.509,TranslationElicitation_eng-prolific,3.2.4,MacIntel,60,5cb77fa063c0780017857c2e,,1,0,81,27,1,80
,,,,,,,,,,,,,,,,,,,,,,,,,,,,,,,,,,,,,,,,,r,4.782999992,STRAWBERR,TRUE,,,,,,,133,estruc,Catalan,Sounds/cat_estruc.mp3,2020-06-05_17h01.17.509,TranslationElicitation_eng-prolific,3.2.4,MacIntel,60,5cb77fa063c0780017857c2e,,1,0,81,27,1,80
,,,,,,,,,,,,,,,,,,,,,,,,,,,,,,,,,,,,,,,,,y,5.184000015,STRAWBERRY,TRUE,,,,,,,133,estruc,Catalan,Sounds/cat_estruc.mp3,2020-06-05_17h01.17.509,TranslationElicitation_eng-prolific,3.2.4,MacIntel,60,5cb77fa063c0780017857c2e,,1,0,81,27,1,80
,,,,,,,,,,,,,,,,,,,,,,,,,,,,,,,,,,,,,,,,,return,5.267000198,STRAWBERRY,TRUE,,,,,,,133,estruc,Catalan,Sounds/cat_estruc.mp3,2020-06-05_17h01.17.509,TranslationElicitation_eng-prolific,3.2.4,MacIntel,60,5cb77fa063c0780017857c2e,5.267000198,1,0,81,27,1,80
,,,,,,,,,,,,,,,,,,,,,,,,,,,,,,,,,,,,,,,,,,,,,,,,,,,133,estruc,Catalan,Sounds/cat_estruc.mp3,2020-06-05_17h01.17.509,TranslationElicitation_eng-prolific,3.2.4,MacIntel,60,5cb77fa063c0780017857c2e,,1,0,81,27,1,80
,,,,,,,,,,,,,,,,,,,,,,,,,,,,,,,,,,,,,,,,,w,2.881999969,W,FALSE,,,,,,,144,gorra,Catalan,Sounds/cat_gorra.mp3,2020-06-05_17h01.17.509,TranslationElicitation_eng-prolific,3.2.4,MacIntel,60,5cb77fa063c0780017857c2e,,1,0,81,38,1,80
,,,,,,,,,,,,,,,,,,,,,,,,,,,,,,,,,,,,,,,,,h,2.965999842,WH,FALSE,,,,,,,144,gorra,Catalan,Sounds/cat_gorra.mp3,2020-06-05_17h01.17.509,TranslationElicitation_eng-prolific,3.2.4,MacIntel,60,5cb77fa063c0780017857c2e,,1,0,81,38,1,80
,,,,,,,,,,,,,,,,,,,,,,,,,,,,,,,,,,,,,,,,,i,3.032000065,WHI,FALSE,,,,,,,144,gorra,Catalan,Sounds/cat_gorra.mp3,2020-06-05_17h01.17.509,TranslationElicitation_eng-prolific,3.2.4,MacIntel,60,5cb77fa063c0780017857c2e,,1,0,81,38,1,80
