consentKey.keys,consentKey.rt,languageL1Key.keys,languageL1Key.rt,languageL2,languageL2OralKey.keys,languageL2OralKey.rt,languageL2WrittenKey.keys,languageL2WrittenKey.rt,languageL3OralKey.keys,languageL3OralKey.rt,languageL3WrittenKey.keys,languageL3WrittenKey.rt,languageCatalanOralKey.keys,languageCatalanOralKey.rt,languageCatalanWrittenKey.keys,languageCatalanWrittenKey.rt,languageCatalanTimeKey.keys,languageCatalanTimeKey.rt,languageSpanishOralKey.keys,languageSpanishOralKey.rt,languageSpanishWrittenKey.keys,languageSpanishWrittenKey.rt,languageSpanishTimeKey.keys,languageSpanishTimeKey.rt,age,demoSexKey.keys,demoSexKey.rt,demoEducationKey.keys,demoEducationKey.rt,city,demoVisionKey.keys,demoVisionKey.rt,demoLanguageKey.keys,demoLanguageKey.rt,setupLocationKey.keys,setupLocationKey.rt,setupNoiseKey.keys,setupNoiseKey.rt,instructionsKeys.keys,instructionsKeys.rt,keyPressed,keyPressTime,inputText,error,trialsPracticeCatalan.thisRepN,trialsPracticeCatalan.thisTrialN,trialsPracticeCatalan.thisN,trialsPracticeCatalan.thisIndex,trialsPracticeCatalan.ran,trialsPracticeCatalan.order,trial_id,word,test_language,soundfile,date,expName,psychopyVersion,OS,frameRate,participant,trialOffset,trialsCatalan.thisRepN,trialsCatalan.thisTrialN,trialsCatalan.thisN,trialsCatalan.thisIndex,trialsCatalan.ran,trialsCatalan.order
space,6.350999832,e,1.35800004,,,,,,,,,,1,3.200000048,1,1.695999861,1,1.433999777,2,2.224999905,1,1.986000061,1,2.151000023,25,f,1.412999868,4,2.703000069,WAKEFIELD,y,1.969000101,n,2.776000023,1,1.713999987,1,0.828999758,space,1.556999922,j,1.332000017,J,FALSE,1,0,5,2,1,4,147,jaqueta,Catalan,Sounds/cat_jaqueta.mp3,2020-06-10_19h57.52.884,TranslationElicitation_eng-prolific,3.2.4,MacIntel,60,5d486df3beeecd0001d02647,,,,,,,
,,,,,,,,,,,,,,,,,,,,,,,,,,,,,,,,,,,,,,,,,a,1.399000168,JA,FALSE,1,0,5,2,1,4,147,jaqueta,Catalan,Sounds/cat_jaqueta.mp3,2020-06-10_19h57.52.884,TranslationElicitation_eng-prolific,3.2.4,MacIntel,60,5d486df3beeecd0001d02647,,,,,,,
,,,,,,,,,,,,,,,,,,,,,,,,,,,,,,,,,,,,,,,,,c,1.615999937,JAC,FALSE,1,0,5,2,1,4,147,jaqueta,Catalan,Sounds/cat_jaqueta.mp3,2020-06-10_19h57.52.884,TranslationElicitation_eng-prolific,3.2.4,MacIntel,60,5d486df3beeecd0001d02647,,,,,,,
,,,,,,,,,,,,,,,,,,,,,,,,,,,,,,,,,,,,,,,,,k,1.715000153,JACK,FALSE,1,0,5,2,1,4,147,jaqueta,Catalan,Sounds/cat_jaqueta.mp3,2020-06-10_19h57.52.884,TranslationElicitation_eng-prolific,3.2.4,MacIntel,60,5d486df3beeecd0001d02647,,,,,,,
,,,,,,,,,,,,,,,,,,,,,,,,,,,,,,,,,,,,,,,,,e,1.83100009,JACKE,FALSE,1,0,5,2,1,4,147,jaqueta,Catalan,Sounds/cat_jaqueta.mp3,2020-06-10_19h57.52.884,TranslationElicitation_eng-prolific,3.2.4,MacIntel,60,5d486df3beeecd0001d02647,,,,,,,
,,,,,,,,,,,,,,,,,,,,,,,,,,,,,,,,,,,,,,,,,t,2.032000065,JACKET,FALSE,1,0,5,2,1,4,147,jaqueta,Catalan,Sounds/cat_jaqueta.mp3,2020-06-10_19h57.52.884,TranslationElicitation_eng-prolific,3.2.4,MacIntel,60,5d486df3beeecd0001d02647,,,,,,,
,,,,,,,,,,,,,,,,,,,,,,,,,,,,,,,,,,,,,,,,,return,2.315999985,JACKET,FALSE,1,0,5,2,1,4,147,jaqueta,Catalan,Sounds/cat_jaqueta.mp3,2020-06-10_19h57.52.884,TranslationElicitation_eng-prolific,3.2.4,MacIntel,60,5d486df3beeecd0001d02647,2.315999985,,,,,,
,,,,,,,,,,,,,,,,,,,,,,,,,,,,,,,,,,,,,,,,,,,,,1,0,5,2,1,4,147,jaqueta,Catalan,Sounds/cat_jaqueta.mp3,2020-06-10_19h57.52.884,TranslationElicitation_eng-prolific,3.2.4,MacIntel,60,5d486df3beeecd0001d02647,,,,,,,
,,,,,,,,,,,,,,,,,,,,,,,,,,,,,,,,,,,,,,,,,n,2.149000168,N,FALSE,1,0,5,3,1,4,159,onada,Catalan,Sounds/cat_onada.mp3,2020-06-10_19h57.52.884,TranslationElicitation_eng-prolific,3.2.4,MacIntel,60,5d486df3beeecd0001d02647,,,,,,,
,,,,,,,,,,,,,,,,,,,,,,,,,,,,,,,,,,,,,,,,,o,2.249000072,NO,FALSE,1,0,5,3,1,4,159,onada,Catalan,Sounds/cat_onada.mp3,2020-06-10_19h57.52.884,TranslationElicitation_eng-prolific,3.2.4,MacIntel,60,5d486df3beeecd0001d02647,,,,,,,
,,,,,,,,,,,,,,,,,,,,,,,,,,,,,,,,,,,,,,,,,t,2.350000143,NOT,FALSE,1,0,5,3,1,4,159,onada,Catalan,Sounds/cat_onada.mp3,2020-06-10_19h57.52.884,TranslationElicitation_eng-prolific,3.2.4,MacIntel,60,5d486df3beeecd0001d02647,,,,,,,
,,,,,,,,,,,,,,,,,,,,,,,,,,,,,,,,,,,,,,,,,h,2.46600008,NOTH,FALSE,1,0,5,3,1,4,159,onada,Catalan,Sounds/cat_onada.mp3,2020-06-10_19h57.52.884,TranslationElicitation_eng-prolific,3.2.4,MacIntel,60,5d486df3beeecd0001d02647,,,,,,,
,,,,,,,,,,,,,,,,,,,,,,,,,,,,,,,,,,,,,,,,,i,2.51699996,NOTHI,FALSE,1,0,5,3,1,4,159,onada,Catalan,Sounds/cat_onada.mp3,2020-06-10_19h57.52.884,TranslationElicitation_eng-prolific,3.2.4,MacIntel,60,5d486df3beeecd0001d02647,,,,,,,
,,,,,,,,,,,,,,,,,,,,,,,,,,,,,,,,,,,,,,,,,n,2.649000168,NOTHIN,FALSE,1,0,5,3,1,4,159,onada,Catalan,Sounds/cat_onada.mp3,2020-06-10_19h57.52.884,TranslationElicitation_eng-prolific,3.2.4,MacIntel,60,5d486df3beeecd0001d02647,,,,,,,
,,,,,,,,,,,,,,,,,,,,,,,,,,,,,,,,,,,,,,,,,g,2.73300004,NOTHING,FALSE,1,0,5,3,1,4,159,onada,Catalan,Sounds/cat_onada.mp3,2020-06-10_19h57.52.884,TranslationElicitation_eng-prolific,3.2.4,MacIntel,60,5d486df3beeecd0001d02647,,,,,,,
,,,,,,,,,,,,,,,,,,,,,,,,,,,,,,,,,,,,,,,,,return,2.94900012,NOTHING,FALSE,1,0,5,3,1,4,159,onada,Catalan,Sounds/cat_onada.mp3,2020-06-10_19h57.52.884,TranslationElicitation_eng-prolific,3.2.4,MacIntel,60,5d486df3beeecd0001d02647,2.94900012,,,,,,
,,,,,,,,,,,,,,,,,,,,,,,,,,,,,,,,,,,,,,,,,,,,,1,0,5,3,1,4,159,onada,Catalan,Sounds/cat_onada.mp3,2020-06-10_19h57.52.884,TranslationElicitation_eng-prolific,3.2.4,MacIntel,60,5d486df3beeecd0001d02647,,,,,,,
,,,,,,,,,,,,,,,,,,,,,,,,,,,,,,,,,,,,,,,,,h,4.000999928,H,FALSE,1,0,5,0,1,4,109,arbre,Catalan,Sounds/cat_arbre.mp3,2020-06-10_19h57.52.884,TranslationElicitation_eng-prolific,3.2.4,MacIntel,60,5d486df3beeecd0001d02647,,,,,,,
,,,,,,,,,,,,,,,,,,,,,,,,,,,,,,,,,,,,,,,,,a,4.083999872,HA,FALSE,1,0,5,0,1,4,109,arbre,Catalan,Sounds/cat_arbre.mp3,2020-06-10_19h57.52.884,TranslationElicitation_eng-prolific,3.2.4,MacIntel,60,5d486df3beeecd0001d02647,,,,,,,
,,,,,,,,,,,,,,,,,,,,,,,,,,,,,,,,,,,,,,,,,r,4.368000031,HAR,FALSE,1,0,5,0,1,4,109,arbre,Catalan,Sounds/cat_arbre.mp3,2020-06-10_19h57.52.884,TranslationElicitation_eng-prolific,3.2.4,MacIntel,60,5d486df3beeecd0001d02647,,,,,,,
,,,,,,,,,,,,,,,,,,,,,,,,,,,,,,,,,,,,,,,,,p,4.484999895,HARP,FALSE,1,0,5,0,1,4,109,arbre,Catalan,Sounds/cat_arbre.mp3,2020-06-10_19h57.52.884,TranslationElicitation_eng-prolific,3.2.4,MacIntel,60,5d486df3beeecd0001d02647,,,,,,,
,,,,,,,,,,,,,,,,,,,,,,,,,,,,,,,,,,,,,,,,,return,4.701999903,HARP,FALSE,1,0,5,0,1,4,109,arbre,Catalan,Sounds/cat_arbre.mp3,2020-06-10_19h57.52.884,TranslationElicitation_eng-prolific,3.2.4,MacIntel,60,5d486df3beeecd0001d02647,4.701999903,,,,,,
,,,,,,,,,,,,,,,,,,,,,,,,,,,,,,,,,,,,,,,,,,,,,1,0,5,0,1,4,109,arbre,Catalan,Sounds/cat_arbre.mp3,2020-06-10_19h57.52.884,TranslationElicitation_eng-prolific,3.2.4,MacIntel,60,5d486df3beeecd0001d02647,,,,,,,
,,,,,,,,,,,,,,,,,,,,,,,,,,,,,,,,,,,,,,,,,b,2.316999912,B,FALSE,1,0,5,1,1,4,126,corona,Catalan,Sounds/cat_corona.mp3,2020-06-10_19h57.52.884,TranslationElicitation_eng-prolific,3.2.4,MacIntel,60,5d486df3beeecd0001d02647,,,,,,,
,,,,,,,,,,,,,,,,,,,,,,,,,,,,,,,,,,,,,,,,,e,2.417999983,BE,FALSE,1,0,5,1,1,4,126,corona,Catalan,Sounds/cat_corona.mp3,2020-06-10_19h57.52.884,TranslationElicitation_eng-prolific,3.2.4,MacIntel,60,5d486df3beeecd0001d02647,,,,,,,
,,,,,,,,,,,,,,,,,,,,,,,,,,,,,,,,,,,,,,,,,e,2.599999905,BEE,FALSE,1,0,5,1,1,4,126,corona,Catalan,Sounds/cat_corona.mp3,2020-06-10_19h57.52.884,TranslationElicitation_eng-prolific,3.2.4,MacIntel,60,5d486df3beeecd0001d02647,,,,,,,
,,,,,,,,,,,,,,,,,,,,,,,,,,,,,,,,,,,,,,,,,r,2.782999992,BEER,FALSE,1,0,5,1,1,4,126,corona,Catalan,Sounds/cat_corona.mp3,2020-06-10_19h57.52.884,TranslationElicitation_eng-prolific,3.2.4,MacIntel,60,5d486df3beeecd0001d02647,,,,,,,
,,,,,,,,,,,,,,,,,,,,,,,,,,,,,,,,,,,,,,,,,return,2.901000023,BEER,FALSE,1,0,5,1,1,4,126,corona,Catalan,Sounds/cat_corona.mp3,2020-06-10_19h57.52.884,TranslationElicitation_eng-prolific,3.2.4,MacIntel,60,5d486df3beeecd0001d02647,2.901000023,,,,,,
,,,,,,,,,,,,,,,,,,,,,,,,,,,,,,,,,,,,,,,,,,,,,1,0,5,1,1,4,126,corona,Catalan,Sounds/cat_corona.mp3,2020-06-10_19h57.52.884,TranslationElicitation_eng-prolific,3.2.4,MacIntel,60,5d486df3beeecd0001d02647,,,,,,,
,,,,,,,,,,,,,,,,,,,,,,,,,,,,,,,,,,,,,,,,,i,1.415999889,I,FALSE,1,0,5,4,1,4,179,tigre,Catalan,Sounds/cat_tigre.mp3,2020-06-10_19h57.52.884,TranslationElicitation_eng-prolific,3.2.4,MacIntel,60,5d486df3beeecd0001d02647,,,,,,,
,,,,,,,,,,,,,,,,,,,,,,,,,,,,,,,,,,,,,,,,,g,1.51699996,IG,FALSE,1,0,5,4,1,4,179,tigre,Catalan,Sounds/cat_tigre.mp3,2020-06-10_19h57.52.884,TranslationElicitation_eng-prolific,3.2.4,MacIntel,60,5d486df3beeecd0001d02647,,,,,,,
,,,,,,,,,,,,,,,,,,,,,,,,,,,,,,,,,,,,,,,,,e,1.717000008,IGE,FALSE,1,0,5,4,1,4,179,tigre,Catalan,Sounds/cat_tigre.mp3,2020-06-10_19h57.52.884,TranslationElicitation_eng-prolific,3.2.4,MacIntel,60,5d486df3beeecd0001d02647,,,,,,,
,,,,,,,,,,,,,,,,,,,,,,,,,,,,,,,,,,,,,,,,,r,1.899999857,IGER,FALSE,1,0,5,4,1,4,179,tigre,Catalan,Sounds/cat_tigre.mp3,2020-06-10_19h57.52.884,TranslationElicitation_eng-prolific,3.2.4,MacIntel,60,5d486df3beeecd0001d02647,,,,,,,
,,,,,,,,,,,,,,,,,,,,,,,,,,,,,,,,,,,,,,,,,backspace,2.366999865,IGE,TRUE,1,0,5,4,1,4,179,tigre,Catalan,Sounds/cat_tigre.mp3,2020-06-10_19h57.52.884,TranslationElicitation_eng-prolific,3.2.4,MacIntel,60,5d486df3beeecd0001d02647,,,,,,,
,,,,,,,,,,,,,,,,,,,,,,,,,,,,,,,,,,,,,,,,,backspace,2.549999952,IG,TRUE,1,0,5,4,1,4,179,tigre,Catalan,Sounds/cat_tigre.mp3,2020-06-10_19h57.52.884,TranslationElicitation_eng-prolific,3.2.4,MacIntel,60,5d486df3beeecd0001d02647,,,,,,,
,,,,,,,,,,,,,,,,,,,,,,,,,,,,,,,,,,,,,,,,,backspace,2.715999842,I,TRUE,1,0,5,4,1,4,179,tigre,Catalan,Sounds/cat_tigre.mp3,2020-06-10_19h57.52.884,TranslationElicitation_eng-prolific,3.2.4,MacIntel,60,5d486df3beeecd0001d02647,,,,,,,
,,,,,,,,,,,,,,,,,,,,,,,,,,,,,,,,,,,,,,,,,backspace,2.866999865,,TRUE,1,0,5,4,1,4,179,tigre,Catalan,Sounds/cat_tigre.mp3,2020-06-10_19h57.52.884,TranslationElicitation_eng-prolific,3.2.4,MacIntel,60,5d486df3beeecd0001d02647,,,,,,,
,,,,,,,,,,,,,,,,,,,,,,,,,,,,,,,,,,,,,,,,,t,3.349999905,T,TRUE,1,0,5,4,1,4,179,tigre,Catalan,Sounds/cat_tigre.mp3,2020-06-10_19h57.52.884,TranslationElicitation_eng-prolific,3.2.4,MacIntel,60,5d486df3beeecd0001d02647,,,,,,,
,,,,,,,,,,,,,,,,,,,,,,,,,,,,,,,,,,,,,,,,,i,3.51699996,TI,TRUE,1,0,5,4,1,4,179,tigre,Catalan,Sounds/cat_tigre.mp3,2020-06-10_19h57.52.884,TranslationElicitation_eng-prolific,3.2.4,MacIntel,60,5d486df3beeecd0001d02647,,,,,,,
,,,,,,,,,,,,,,,,,,,,,,,,,,,,,,,,,,,,,,,,,g,3.634000063,TIG,TRUE,1,0,5,4,1,4,179,tigre,Catalan,Sounds/cat_tigre.mp3,2020-06-10_19h57.52.884,TranslationElicitation_eng-prolific,3.2.4,MacIntel,60,5d486df3beeecd0001d02647,,,,,,,
,,,,,,,,,,,,,,,,,,,,,,,,,,,,,,,,,,,,,,,,,e,3.851000071,TIGE,TRUE,1,0,5,4,1,4,179,tigre,Catalan,Sounds/cat_tigre.mp3,2020-06-10_19h57.52.884,TranslationElicitation_eng-prolific,3.2.4,MacIntel,60,5d486df3beeecd0001d02647,,,,,,,
,,,,,,,,,,,,,,,,,,,,,,,,,,,,,,,,,,,,,,,,,r,4.032999992,TIGER,TRUE,1,0,5,4,1,4,179,tigre,Catalan,Sounds/cat_tigre.mp3,2020-06-10_19h57.52.884,TranslationElicitation_eng-prolific,3.2.4,MacIntel,60,5d486df3beeecd0001d02647,,,,,,,
,,,,,,,,,,,,,,,,,,,,,,,,,,,,,,,,,,,,,,,,,return,4.149999857,TIGER,TRUE,1,0,5,4,1,4,179,tigre,Catalan,Sounds/cat_tigre.mp3,2020-06-10_19h57.52.884,TranslationElicitation_eng-prolific,3.2.4,MacIntel,60,5d486df3beeecd0001d02647,4.149999857,,,,,,
,,,,,,,,,,,,,,,,,,,,,,,,,,,,,,,,,,,,,,,,,,,,,1,0,5,4,1,4,179,tigre,Catalan,Sounds/cat_tigre.mp3,2020-06-10_19h57.52.884,TranslationElicitation_eng-prolific,3.2.4,MacIntel,60,5d486df3beeecd0001d02647,,,,,,,
,,,,,,,,,,,,,,,,,,,,,,,,,,,,,,,,,,,,,,,,,e,3.46600008,E,FALSE,,,,,,,160,orella,Catalan,Sounds/cat_orella.mp3,2020-06-10_19h57.52.884,TranslationElicitation_eng-prolific,3.2.4,MacIntel,60,5d486df3beeecd0001d02647,,1,0,81,52,1,80
,,,,,,,,,,,,,,,,,,,,,,,,,,,,,,,,,,,,,,,,,y,3.550000191,EY,FALSE,,,,,,,160,orella,Catalan,Sounds/cat_orella.mp3,2020-06-10_19h57.52.884,TranslationElicitation_eng-prolific,3.2.4,MacIntel,60,5d486df3beeecd0001d02647,,1,0,81,52,1,80
,,,,,,,,,,,,,,,,,,,,,,,,,,,,,,,,,,,,,,,,,e,3.650000095,EYE,FALSE,,,,,,,160,orella,Catalan,Sounds/cat_orella.mp3,2020-06-10_19h57.52.884,TranslationElicitation_eng-prolific,3.2.4,MacIntel,60,5d486df3beeecd0001d02647,,1,0,81,52,1,80
,,,,,,,,,,,,,,,,,,,,,,,,,,,,,,,,,,,,,,,,,return,4.333000183,EYE,FALSE,,,,,,,160,orella,Catalan,Sounds/cat_orella.mp3,2020-06-10_19h57.52.884,TranslationElicitation_eng-prolific,3.2.4,MacIntel,60,5d486df3beeecd0001d02647,4.333000183,1,0,81,52,1,80
,,,,,,,,,,,,,,,,,,,,,,,,,,,,,,,,,,,,,,,,,,,,,,,,,,,160,orella,Catalan,Sounds/cat_orella.mp3,2020-06-10_19h57.52.884,TranslationElicitation_eng-prolific,3.2.4,MacIntel,60,5d486df3beeecd0001d02647,,1,0,81,52,1,80
,,,,,,,,,,,,,,,,,,,,,,,,,,,,,,,,,,,,,,,,,o,1.650000095,O,FALSE,,,,,,,125,colom,Catalan,Sounds/cat_colom.mp3,2020-06-10_19h57.52.884,TranslationElicitation_eng-prolific,3.2.4,MacIntel,60,5d486df3beeecd0001d02647,,1,0,81,20,1,80
,,,,,,,,,,,,,,,,,,,,,,,,,,,,,,,,,,,,,,,,,l,1.815000057,OL,FALSE,,,,,,,125,colom,Catalan,Sounds/cat_colom.mp3,2020-06-10_19h57.52.884,TranslationElicitation_eng-prolific,3.2.4,MacIntel,60,5d486df3beeecd0001d02647,,1,0,81,20,1,80
,,,,,,,,,,,,,,,,,,,,,,,,,,,,,,,,,,,,,,,,,backspace,2.598999977,O,TRUE,,,,,,,125,colom,Catalan,Sounds/cat_colom.mp3,2020-06-10_19h57.52.884,TranslationElicitation_eng-prolific,3.2.4,MacIntel,60,5d486df3beeecd0001d02647,,1,0,81,20,1,80
,,,,,,,,,,,,,,,,,,,,,,,,,,,,,,,,,,,,,,,,,backspace,2.75,,TRUE,,,,,,,125,colom,Catalan,Sounds/cat_colom.mp3,2020-06-10_19h57.52.884,TranslationElicitation_eng-prolific,3.2.4,MacIntel,60,5d486df3beeecd0001d02647,,1,0,81,20,1,80
,,,,,,,,,,,,,,,,,,,,,,,,,,,,,,,,,,,,,,,,,c,4.232000113,C,TRUE,,,,,,,125,colom,Catalan,Sounds/cat_colom.mp3,2020-06-10_19h57.52.884,TranslationElicitation_eng-prolific,3.2.4,MacIntel,60,5d486df3beeecd0001d02647,,1,0,81,20,1,80
,,,,,,,,,,,,,,,,,,,,,,,,,,,,,,,,,,,,,,,,,o,4.400000095,CO,TRUE,,,,,,,125,colom,Catalan,Sounds/cat_colom.mp3,2020-06-10_19h57.52.884,TranslationElicitation_eng-prolific,3.2.4,MacIntel,60,5d486df3beeecd0001d02647,,1,0,81,20,1,80
,,,,,,,,,,,,,,,,,,,,,,,,,,,,,,,,,,,,,,,,,l,4.650000095,COL,TRUE,,,,,,,125,colom,Catalan,Sounds/cat_colom.mp3,2020-06-10_19h57.52.884,TranslationElicitation_eng-prolific,3.2.4,MacIntel,60,5d486df3beeecd0001d02647,,1,0,81,20,1,80
,,,,,,,,,,,,,,,,,,,,,,,,,,,,,,,,,,,,,,,,,u,6.098999977,COLU,TRUE,,,,,,,125,colom,Catalan,Sounds/cat_colom.mp3,2020-06-10_19h57.52.884,TranslationElicitation_eng-prolific,3.2.4,MacIntel,60,5d486df3beeecd0001d02647,,1,0,81,20,1,80
,,,,,,,,,,,,,,,,,,,,,,,,,,,,,,,,,,,,,,,,,backspace,6.832999945,COL,TRUE,,,,,,,125,colom,Catalan,Sounds/cat_colom.mp3,2020-06-10_19h57.52.884,TranslationElicitation_eng-prolific,3.2.4,MacIntel,60,5d486df3beeecd0001d02647,,1,0,81,20,1,80
,,,,,,,,,,,,,,,,,,,,,,,,,,,,,,,,,,,,,,,,,o,7.131999969,COLO,TRUE,,,,,,,125,colom,Catalan,Sounds/cat_colom.mp3,2020-06-10_19h57.52.884,TranslationElicitation_eng-prolific,3.2.4,MacIntel,60,5d486df3beeecd0001d02647,,1,0,81,20,1,80
,,,,,,,,,,,,,,,,,,,,,,,,,,,,,,,,,,,,,,,,,u,7.348999977,COLOU,TRUE,,,,,,,125,colom,Catalan,Sounds/cat_colom.mp3,2020-06-10_19h57.52.884,TranslationElicitation_eng-prolific,3.2.4,MacIntel,60,5d486df3beeecd0001d02647,,1,0,81,20,1,80
,,,,,,,,,,,,,,,,,,,,,,,,,,,,,,,,,,,,,,,,,m,7.549999952,COLOUM,TRUE,,,,,,,125,colom,Catalan,Sounds/cat_colom.mp3,2020-06-10_19h57.52.884,TranslationElicitation_eng-prolific,3.2.4,MacIntel,60,5d486df3beeecd0001d02647,,1,0,81,20,1,80
,,,,,,,,,,,,,,,,,,,,,,,,,,,,,,,,,,,,,,,,,return,8.316999912,COLOUM,TRUE,,,,,,,125,colom,Catalan,Sounds/cat_colom.mp3,2020-06-10_19h57.52.884,TranslationElicitation_eng-prolific,3.2.4,MacIntel,60,5d486df3beeecd0001d02647,8.316999912,1,0,81,20,1,80
,,,,,,,,,,,,,,,,,,,,,,,,,,,,,,,,,,,,,,,,,,,,,,,,,,,125,colom,Catalan,Sounds/cat_colom.mp3,2020-06-10_19h57.52.884,TranslationElicitation_eng-prolific,3.2.4,MacIntel,60,5d486df3beeecd0001d02647,,1,0,81,20,1,80
,,,,,,,,,,,,,,,,,,,,,,,,,,,,,,,,,,,,,,,,,m,12.91799998,M,FALSE,,,,,,,155,moneda,Catalan,Sounds/cat_moneda.mp3,2020-06-10_19h57.52.884,TranslationElicitation_eng-prolific,3.2.4,MacIntel,60,5d486df3beeecd0001d02647,,1,0,81,48,1,80
,,,,,,,,,,,,,,,,,,,,,,,,,,,,,,,,,,,,,,,,,o,13.03400016,MO,FALSE,,,,,,,155,moneda,Catalan,Sounds/cat_moneda.mp3,2020-06-10_19h57.52.884,TranslationElicitation_eng-prolific,3.2.4,MacIntel,60,5d486df3beeecd0001d02647,,1,0,81,48,1,80
,,,,,,,,,,,,,,,,,,,,,,,,,,,,,,,,,,,,,,,,,o,13.21700001,MOO,FALSE,,,,,,,155,moneda,Catalan,Sounds/cat_moneda.mp3,2020-06-10_19h57.52.884,TranslationElicitation_eng-prolific,3.2.4,MacIntel,60,5d486df3beeecd0001d02647,,1,0,81,48,1,80
,,,,,,,,,,,,,,,,,,,,,,,,,,,,,,,,,,,,,,,,,d,13.31800008,MOOD,FALSE,,,,,,,155,moneda,Catalan,Sounds/cat_moneda.mp3,2020-06-10_19h57.52.884,TranslationElicitation_eng-prolific,3.2.4,MacIntel,60,5d486df3beeecd0001d02647,,1,0,81,48,1,80
,,,,,,,,,,,,,,,,,,,,,,,,,,,,,,,,,,,,,,,,,return,13.66799998,MOOD,FALSE,,,,,,,155,moneda,Catalan,Sounds/cat_moneda.mp3,2020-06-10_19h57.52.884,TranslationElicitation_eng-prolific,3.2.4,MacIntel,60,5d486df3beeecd0001d02647,13.66799998,1,0,81,48,1,80
,,,,,,,,,,,,,,,,,,,,,,,,,,,,,,,,,,,,,,,,,,,,,,,,,,,155,moneda,Catalan,Sounds/cat_moneda.mp3,2020-06-10_19h57.52.884,TranslationElicitation_eng-prolific,3.2.4,MacIntel,60,5d486df3beeecd0001d02647,,1,0,81,48,1,80
,,,,,,,,,,,,,,,,,,,,,,,,,,,,,,,,,,,,,,,,,p,1.133000135,P,FALSE,,,,,,,164,patata,Catalan,Sounds/cat_patata.mp3,2020-06-10_19h57.52.884,TranslationElicitation_eng-prolific,3.2.4,MacIntel,60,5d486df3beeecd0001d02647,,1,0,81,56,1,80
,,,,,,,,,,,,,,,,,,,,,,,,,,,,,,,,,,,,,,,,,a,1.21600008,PA,FALSE,,,,,,,164,patata,Catalan,Sounds/cat_patata.mp3,2020-06-10_19h57.52.884,TranslationElicitation_eng-prolific,3.2.4,MacIntel,60,5d486df3beeecd0001d02647,,1,0,81,56,1,80
,,,,,,,,,,,,,,,,,,,,,,,,,,,,,,,,,,,,,,,,,t,1.5,PAT,FALSE,,,,,,,164,patata,Catalan,Sounds/cat_patata.mp3,2020-06-10_19h57.52.884,TranslationElicitation_eng-prolific,3.2.4,MacIntel,60,5d486df3beeecd0001d02647,,1,0,81,56,1,80
,,,,,,,,,,,,,,,,,,,,,,,,,,,,,,,,,,,,,,,,,a,1.767000198,PATA,FALSE,,,,,,,164,patata,Catalan,Sounds/cat_patata.mp3,2020-06-10_19h57.52.884,TranslationElicitation_eng-prolific,3.2.4,MacIntel,60,5d486df3beeecd0001d02647,,1,0,81,56,1,80
,,,,,,,,,,,,,,,,,,,,,,,,,,,,,,,,,,,,,,,,,t,2.049000025,PATAT,FALSE,,,,,,,164,patata,Catalan,Sounds/cat_patata.mp3,2020-06-10_19h57.52.884,TranslationElicitation_eng-prolific,3.2.4,MacIntel,60,5d486df3beeecd0001d02647,,1,0,81,56,1,80
,,,,,,,,,,,,,,,,,,,,,,,,,,,,,,,,,,,,,,,,,p,2.167000055,PATATP,FALSE,,,,,,,164,patata,Catalan,Sounds/cat_patata.mp3,2020-06-10_19h57.52.884,TranslationElicitation_eng-prolific,3.2.4,MacIntel,60,5d486df3beeecd0001d02647,,1,0,81,56,1,80
,,,,,,,,,,,,,,,,,,,,,,,,,,,,,,,,,,,,,,,,,backspace,2.700000048,PATAT,TRUE,,,,,,,164,patata,Catalan,Sounds/cat_patata.mp3,2020-06-10_19h57.52.884,TranslationElicitation_eng-prolific,3.2.4,MacIntel,60,5d486df3beeecd0001d02647,,1,0,81,56,1,80
,,,,,,,,,,,,,,,,,,,,,,,,,,,,,,,,,,,,,,,,,backspace,2.886000156,PATA,TRUE,,,,,,,164,patata,Catalan,Sounds/cat_patata.mp3,2020-06-10_19h57.52.884,TranslationElicitation_eng-prolific,3.2.4,MacIntel,60,5d486df3beeecd0001d02647,,1,0,81,56,1,80
,,,,,,,,,,,,,,,,,,,,,,,,,,,,,,,,,,,,,,,,,t,3.584000111,PATAT,TRUE,,,,,,,164,patata,Catalan,Sounds/cat_patata.mp3,2020-06-10_19h57.52.884,TranslationElicitation_eng-prolific,3.2.4,MacIntel,60,5d486df3beeecd0001d02647,,1,0,81,56,1,80
,,,,,,,,,,,,,,,,,,,,,,,,,,,,,,,,,,,,,,,,,o,3.701000214,PATATO,TRUE,,,,,,,164,patata,Catalan,Sounds/cat_patata.mp3,2020-06-10_19h57.52.884,TranslationElicitation_eng-prolific,3.2.4,MacIntel,60,5d486df3beeecd0001d02647,,1,0,81,56,1,80
,,,,,,,,,,,,,,,,,,,,,,,,,,,,,,,,,,,,,,,,,return,4.151000023,PATATO,TRUE,,,,,,,164,patata,Catalan,Sounds/cat_patata.mp3,2020-06-10_19h57.52.884,TranslationElicitation_eng-prolific,3.2.4,MacIntel,60,5d486df3beeecd0001d02647,4.151000023,1,0,81,56,1,80
,,,,,,,,,,,,,,,,,,,,,,,,,,,,,,,,,,,,,,,,,,,,,,,,,,,164,patata,Catalan,Sounds/cat_patata.mp3,2020-06-10_19h57.52.884,TranslationElicitation_eng-prolific,3.2.4,MacIntel,60,5d486df3beeecd0001d02647,,1,0,81,56,1,80
,,,,,,,,,,,,,,,,,,,,,,,,,,,,,,,,,,,,,,,,,b,1.48300004,B,FALSE,,,,,,,112,bici,Catalan,Sounds/cat_bici.mp3,2020-06-10_19h57.52.884,TranslationElicitation_eng-prolific,3.2.4,MacIntel,60,5d486df3beeecd0001d02647,,1,0,81,7,1,80
,,,,,,,,,,,,,,,,,,,,,,,,,,,,,,,,,,,,,,,,,i,1.582999945,BI,FALSE,,,,,,,112,bici,Catalan,Sounds/cat_bici.mp3,2020-06-10_19h57.52.884,TranslationElicitation_eng-prolific,3.2.4,MacIntel,60,5d486df3beeecd0001d02647,,1,0,81,7,1,80
,,,,,,,,,,,,,,,,,,,,,,,,,,,,,,,,,,,,,,,,,k,1.750999928,BIK,FALSE,,,,,,,112,bici,Catalan,Sounds/cat_bici.mp3,2020-06-10_19h57.52.884,TranslationElicitation_eng-prolific,3.2.4,MacIntel,60,5d486df3beeecd0001d02647,,1,0,81,7,1,80
,,,,,,,,,,,,,,,,,,,,,,,,,,,,,,,,,,,,,,,,,e,1.851000071,BIKE,FALSE,,,,,,,112,bici,Catalan,Sounds/cat_bici.mp3,2020-06-10_19h57.52.884,TranslationElicitation_eng-prolific,3.2.4,MacIntel,60,5d486df3beeecd0001d02647,,1,0,81,7,1,80
,,,,,,,,,,,,,,,,,,,,,,,,,,,,,,,,,,,,,,,,,return,2.000999928,BIKE,FALSE,,,,,,,112,bici,Catalan,Sounds/cat_bici.mp3,2020-06-10_19h57.52.884,TranslationElicitation_eng-prolific,3.2.4,MacIntel,60,5d486df3beeecd0001d02647,2.000999928,1,0,81,7,1,80
,,,,,,,,,,,,,,,,,,,,,,,,,,,,,,,,,,,,,,,,,,,,,,,,,,,112,bici,Catalan,Sounds/cat_bici.mp3,2020-06-10_19h57.52.884,TranslationElicitation_eng-prolific,3.2.4,MacIntel,60,5d486df3beeecd0001d02647,,1,0,81,7,1,80
,,,,,,,,,,,,,,,,,,,,,,,,,,,,,,,,,,,,,,,,,u,1.098999977,U,FALSE,,,,,,,146,guitarra,Catalan,Sounds/cat_guitarra.mp3,2020-06-10_19h57.52.884,TranslationElicitation_eng-prolific,3.2.4,MacIntel,60,5d486df3beeecd0001d02647,,1,0,81,40,1,80
,,,,,,,,,,,,,,,,,,,,,,,,,,,,,,,,,,,,,,,,,i,1.282999992,UI,FALSE,,,,,,,146,guitarra,Catalan,Sounds/cat_guitarra.mp3,2020-06-10_19h57.52.884,TranslationElicitation_eng-prolific,3.2.4,MacIntel,60,5d486df3beeecd0001d02647,,1,0,81,40,1,80
,,,,,,,,,,,,,,,,,,,,,,,,,,,,,,,,,,,,,,,,,t,1.383000135,UIT,FALSE,,,,,,,146,guitarra,Catalan,Sounds/cat_guitarra.mp3,2020-06-10_19h57.52.884,TranslationElicitation_eng-prolific,3.2.4,MacIntel,60,5d486df3beeecd0001d02647,,1,0,81,40,1,80
,,,,,,,,,,,,,,,,,,,,,,,,,,,,,,,,,,,,,,,,,a,1.667000055,UITA,FALSE,,,,,,,146,guitarra,Catalan,Sounds/cat_guitarra.mp3,2020-06-10_19h57.52.884,TranslationElicitation_eng-prolific,3.2.4,MacIntel,60,5d486df3beeecd0001d02647,,1,0,81,40,1,80
,,,,,,,,,,,,,,,,,,,,,,,,,,,,,,,,,,,,,,,,,r,1.917000055,UITAR,FALSE,,,,,,,146,guitarra,Catalan,Sounds/cat_guitarra.mp3,2020-06-10_19h57.52.884,TranslationElicitation_eng-prolific,3.2.4,MacIntel,60,5d486df3beeecd0001d02647,,1,0,81,40,1,80
,,,,,,,,,,,,,,,,,,,,,,,,,,,,,,,,,,,,,,,,,backspace,2.25,UITA,TRUE,,,,,,,146,guitarra,Catalan,Sounds/cat_guitarra.mp3,2020-06-10_19h57.52.884,TranslationElicitation_eng-prolific,3.2.4,MacIntel,60,5d486df3beeecd0001d02647,,1,0,81,40,1,80
,,,,,,,,,,,,,,,,,,,,,,,,,,,,,,,,,,,,,,,,,backspace,2.417000055,UIT,TRUE,,,,,,,146,guitarra,Catalan,Sounds/cat_guitarra.mp3,2020-06-10_19h57.52.884,TranslationElicitation_eng-prolific,3.2.4,MacIntel,60,5d486df3beeecd0001d02647,,1,0,81,40,1,80
,,,,,,,,,,,,,,,,,,,,,,,,,,,,,,,,,,,,,,,,,backspace,2.567000151,UI,TRUE,,,,,,,146,guitarra,Catalan,Sounds/cat_guitarra.mp3,2020-06-10_19h57.52.884,TranslationElicitation_eng-prolific,3.2.4,MacIntel,60,5d486df3beeecd0001d02647,,1,0,81,40,1,80
,,,,,,,,,,,,,,,,,,,,,,,,,,,,,,,,,,,,,,,,,backspace,2.71600008,U,TRUE,,,,,,,146,guitarra,Catalan,Sounds/cat_guitarra.mp3,2020-06-10_19h57.52.884,TranslationElicitation_eng-prolific,3.2.4,MacIntel,60,5d486df3beeecd0001d02647,,1,0,81,40,1,80
,,,,,,,,,,,,,,,,,,,,,,,,,,,,,,,,,,,,,,,,,backspace,2.883000135,,TRUE,,,,,,,146,guitarra,Catalan,Sounds/cat_guitarra.mp3,2020-06-10_19h57.52.884,TranslationElicitation_eng-prolific,3.2.4,MacIntel,60,5d486df3beeecd0001d02647,,1,0,81,40,1,80
,,,,,,,,,,,,,,,,,,,,,,,,,,,,,,,,,,,,,,,,,g,3.567000151,G,TRUE,,,,,,,146,guitarra,Catalan,Sounds/cat_guitarra.mp3,2020-06-10_19h57.52.884,TranslationElicitation_eng-prolific,3.2.4,MacIntel,60,5d486df3beeecd0001d02647,,1,0,81,40,1,80
,,,,,,,,,,,,,,,,,,,,,,,,,,,,,,,,,,,,,,,,,u,3.767000198,GU,TRUE,,,,,,,146,guitarra,Catalan,Sounds/cat_guitarra.mp3,2020-06-10_19h57.52.884,TranslationElicitation_eng-prolific,3.2.4,MacIntel,60,5d486df3beeecd0001d02647,,1,0,81,40,1,80
,,,,,,,,,,,,,,,,,,,,,,,,,,,,,,,,,,,,,,,,,i,3.917000055,GUI,TRUE,,,,,,,146,guitarra,Catalan,Sounds/cat_guitarra.mp3,2020-06-10_19h57.52.884,TranslationElicitation_eng-prolific,3.2.4,MacIntel,60,5d486df3beeecd0001d02647,,1,0,81,40,1,80
,,,,,,,,,,,,,,,,,,,,,,,,,,,,,,,,,,,,,,,,,t,4.034000158,GUIT,TRUE,,,,,,,146,guitarra,Catalan,Sounds/cat_guitarra.mp3,2020-06-10_19h57.52.884,TranslationElicitation_eng-prolific,3.2.4,MacIntel,60,5d486df3beeecd0001d02647,,1,0,81,40,1,80
,,,,,,,,,,,,,,,,,,,,,,,,,,,,,,,,,,,,,,,,,a,4.266000032,GUITA,TRUE,,,,,,,146,guitarra,Catalan,Sounds/cat_guitarra.mp3,2020-06-10_19h57.52.884,TranslationElicitation_eng-prolific,3.2.4,MacIntel,60,5d486df3beeecd0001d02647,,1,0,81,40,1,80
,,,,,,,,,,,,,,,,,,,,,,,,,,,,,,,,,,,,,,,,,r,4.532999992,GUITAR,TRUE,,,,,,,146,guitarra,Catalan,Sounds/cat_guitarra.mp3,2020-06-10_19h57.52.884,TranslationElicitation_eng-prolific,3.2.4,MacIntel,60,5d486df3beeecd0001d02647,,1,0,81,40,1,80
,,,,,,,,,,,,,,,,,,,,,,,,,,,,,,,,,,,,,,,,,return,4.817000151,GUITAR,TRUE,,,,,,,146,guitarra,Catalan,Sounds/cat_guitarra.mp3,2020-06-10_19h57.52.884,TranslationElicitation_eng-prolific,3.2.4,MacIntel,60,5d486df3beeecd0001d02647,4.817000151,1,0,81,40,1,80
,,,,,,,,,,,,,,,,,,,,,,,,,,,,,,,,,,,,,,,,,,,,,,,,,,,146,guitarra,Catalan,Sounds/cat_guitarra.mp3,2020-06-10_19h57.52.884,TranslationElicitation_eng-prolific,3.2.4,MacIntel,60,5d486df3beeecd0001d02647,,1,0,81,40,1,80
,,,,,,,,,,,,,,,,,,,,,,,,,,,,,,,,,,,,,,,,,m,2.084000111,M,FALSE,,,,,,,156,moto,Catalan,Sounds/cat_moto.mp3,2020-06-10_19h57.52.884,TranslationElicitation_eng-prolific,3.2.4,MacIntel,60,5d486df3beeecd0001d02647,,1,0,81,49,1,80
,,,,,,,,,,,,,,,,,,,,,,,,,,,,,,,,,,,,,,,,,t,2.334000111,MT,FALSE,,,,,,,156,moto,Catalan,Sounds/cat_moto.mp3,2020-06-10_19h57.52.884,TranslationElicitation_eng-prolific,3.2.4,MacIntel,60,5d486df3beeecd0001d02647,,1,0,81,49,1,80
,,,,,,,,,,,,,,,,,,,,,,,,,,,,,,,,,,,,,,,,,o,2.467000008,MTO,FALSE,,,,,,,156,moto,Catalan,Sounds/cat_moto.mp3,2020-06-10_19h57.52.884,TranslationElicitation_eng-prolific,3.2.4,MacIntel,60,5d486df3beeecd0001d02647,,1,0,81,49,1,80
,,,,,,,,,,,,,,,,,,,,,,,,,,,,,,,,,,,,,,,,,backspace,2.751000166,MT,TRUE,,,,,,,156,moto,Catalan,Sounds/cat_moto.mp3,2020-06-10_19h57.52.884,TranslationElicitation_eng-prolific,3.2.4,MacIntel,60,5d486df3beeecd0001d02647,,1,0,81,49,1,80
,,,,,,,,,,,,,,,,,,,,,,,,,,,,,,,,,,,,,,,,,backspace,2.901000023,M,TRUE,,,,,,,156,moto,Catalan,Sounds/cat_moto.mp3,2020-06-10_19h57.52.884,TranslationElicitation_eng-prolific,3.2.4,MacIntel,60,5d486df3beeecd0001d02647,,1,0,81,49,1,80
,,,,,,,,,,,,,,,,,,,,,,,,,,,,,,,,,,,,,,,,,o,3.101999998,MO,TRUE,,,,,,,156,moto,Catalan,Sounds/cat_moto.mp3,2020-06-10_19h57.52.884,TranslationElicitation_eng-prolific,3.2.4,MacIntel,60,5d486df3beeecd0001d02647,,1,0,81,49,1,80
,,,,,,,,,,,,,,,,,,,,,,,,,,,,,,,,,,,,,,,,,t,3.218000174,MOT,TRUE,,,,,,,156,moto,Catalan,Sounds/cat_moto.mp3,2020-06-10_19h57.52.884,TranslationElicitation_eng-prolific,3.2.4,MacIntel,60,5d486df3beeecd0001d02647,,1,0,81,49,1,80
,,,,,,,,,,,,,,,,,,,,,,,,,,,,,,,,,,,,,,,,,o,3.302000046,MOTO,TRUE,,,,,,,156,moto,Catalan,Sounds/cat_moto.mp3,2020-06-10_19h57.52.884,TranslationElicitation_eng-prolific,3.2.4,MacIntel,60,5d486df3beeecd0001d02647,,1,0,81,49,1,80
,,,,,,,,,,,,,,,,,,,,,,,,,,,,,,,,,,,,,,,,,h,3.752000093,MOTOH,TRUE,,,,,,,156,moto,Catalan,Sounds/cat_moto.mp3,2020-06-10_19h57.52.884,TranslationElicitation_eng-prolific,3.2.4,MacIntel,60,5d486df3beeecd0001d02647,,1,0,81,49,1,80
,,,,,,,,,,,,,,,,,,,,,,,,,,,,,,,,,,,,,,,,,backspace,4.184000015,MOTO,TRUE,,,,,,,156,moto,Catalan,Sounds/cat_moto.mp3,2020-06-10_19h57.52.884,TranslationElicitation_eng-prolific,3.2.4,MacIntel,60,5d486df3beeecd0001d02647,,1,0,81,49,1,80
,,,,,,,,,,,,,,,,,,,,,,,,,,,,,,,,,,,,,,,,,b,4.567000151,MOTOB,TRUE,,,,,,,156,moto,Catalan,Sounds/cat_moto.mp3,2020-06-10_19h57.52.884,TranslationElicitation_eng-prolific,3.2.4,MacIntel,60,5d486df3beeecd0001d02647,,1,0,81,49,1,80
,,,,,,,,,,,,,,,,,,,,,,,,,,,,,,,,,,,,,,,,,i,4.701000214,MOTOBI,TRUE,,,,,,,156,moto,Catalan,Sounds/cat_moto.mp3,2020-06-10_19h57.52.884,TranslationElicitation_eng-prolific,3.2.4,MacIntel,60,5d486df3beeecd0001d02647,,1,0,81,49,1,80
,,,,,,,,,,,,,,,,,,,,,,,,,,,,,,,,,,,,,,,,,k,4.834000111,MOTOBIK,TRUE,,,,,,,156,moto,Catalan,Sounds/cat_moto.mp3,2020-06-10_19h57.52.884,TranslationElicitation_eng-prolific,3.2.4,MacIntel,60,5d486df3beeecd0001d02647,,1,0,81,49,1,80
,,,,,,,,,,,,,,,,,,,,,,,,,,,,,,,,,,,,,,,,,e,4.917999983,MOTOBIKE,TRUE,,,,,,,156,moto,Catalan,Sounds/cat_moto.mp3,2020-06-10_19h57.52.884,TranslationElicitation_eng-prolific,3.2.4,MacIntel,60,5d486df3beeecd0001d02647,,1,0,81,49,1,80
,,,,,,,,,,,,,,,,,,,,,,,,,,,,,,,,,,,,,,,,,return,5.235000134,MOTOBIKE,TRUE,,,,,,,156,moto,Catalan,Sounds/cat_moto.mp3,2020-06-10_19h57.52.884,TranslationElicitation_eng-prolific,3.2.4,MacIntel,60,5d486df3beeecd0001d02647,5.235000134,1,0,81,49,1,80
,,,,,,,,,,,,,,,,,,,,,,,,,,,,,,,,,,,,,,,,,,,,,,,,,,,156,moto,Catalan,Sounds/cat_moto.mp3,2020-06-10_19h57.52.884,TranslationElicitation_eng-prolific,3.2.4,MacIntel,60,5d486df3beeecd0001d02647,,1,0,81,49,1,80
,,,,,,,,,,,,,,,,,,,,,,,,,,,,,,,,,,,,,,,,,g,1.53399992,G,FALSE,,,,,,,142,girafa,Catalan,Sounds/cat_girafa.mp3,2020-06-10_19h57.52.884,TranslationElicitation_eng-prolific,3.2.4,MacIntel,60,5d486df3beeecd0001d02647,,1,0,81,36,1,80
,,,,,,,,,,,,,,,,,,,,,,,,,,,,,,,,,,,,,,,,,i,1.649999857,GI,FALSE,,,,,,,142,girafa,Catalan,Sounds/cat_girafa.mp3,2020-06-10_19h57.52.884,TranslationElicitation_eng-prolific,3.2.4,MacIntel,60,5d486df3beeecd0001d02647,,1,0,81,36,1,80
,,,,,,,,,,,,,,,,,,,,,,,,,,,,,,,,,,,,,,,,,r,1.75,GIR,FALSE,,,,,,,142,girafa,Catalan,Sounds/cat_girafa.mp3,2020-06-10_19h57.52.884,TranslationElicitation_eng-prolific,3.2.4,MacIntel,60,5d486df3beeecd0001d02647,,1,0,81,36,1,80
,,,,,,,,,,,,,,,,,,,,,,,,,,,,,,,,,,,,,,,,,a,1.96600008,GIRA,FALSE,,,,,,,142,girafa,Catalan,Sounds/cat_girafa.mp3,2020-06-10_19h57.52.884,TranslationElicitation_eng-prolific,3.2.4,MacIntel,60,5d486df3beeecd0001d02647,,1,0,81,36,1,80
,,,,,,,,,,,,,,,,,,,,,,,,,,,,,,,,,,,,,,,,,f,2.099999905,GIRAF,FALSE,,,,,,,142,girafa,Catalan,Sounds/cat_girafa.mp3,2020-06-10_19h57.52.884,TranslationElicitation_eng-prolific,3.2.4,MacIntel,60,5d486df3beeecd0001d02647,,1,0,81,36,1,80
,,,,,,,,,,,,,,,,,,,,,,,,,,,,,,,,,,,,,,,,,f,2.23300004,GIRAFF,FALSE,,,,,,,142,girafa,Catalan,Sounds/cat_girafa.mp3,2020-06-10_19h57.52.884,TranslationElicitation_eng-prolific,3.2.4,MacIntel,60,5d486df3beeecd0001d02647,,1,0,81,36,1,80
,,,,,,,,,,,,,,,,,,,,,,,,,,,,,,,,,,,,,,,,,e,2.299999952,GIRAFFE,FALSE,,,,,,,142,girafa,Catalan,Sounds/cat_girafa.mp3,2020-06-10_19h57.52.884,TranslationElicitation_eng-prolific,3.2.4,MacIntel,60,5d486df3beeecd0001d02647,,1,0,81,36,1,80
,,,,,,,,,,,,,,,,,,,,,,,,,,,,,,,,,,,,,,,,,return,2.73300004,GIRAFFE,FALSE,,,,,,,142,girafa,Catalan,Sounds/cat_girafa.mp3,2020-06-10_19h57.52.884,TranslationElicitation_eng-prolific,3.2.4,MacIntel,60,5d486df3beeecd0001d02647,2.73300004,1,0,81,36,1,80
,,,,,,,,,,,,,,,,,,,,,,,,,,,,,,,,,,,,,,,,,,,,,,,,,,,142,girafa,Catalan,Sounds/cat_girafa.mp3,2020-06-10_19h57.52.884,TranslationElicitation_eng-prolific,3.2.4,MacIntel,60,5d486df3beeecd0001d02647,,1,0,81,36,1,80
,,,,,,,,,,,,,,,,,,,,,,,,,,,,,,,,,,,,,,,,,o,1.25,O,FALSE,,,,,,,188,xocolata,Catalan,Sounds/cat_xocolata.mp3,2020-06-10_19h57.52.884,TranslationElicitation_eng-prolific,3.2.4,MacIntel,60,5d486df3beeecd0001d02647,,1,0,81,79,1,80
,,,,,,,,,,,,,,,,,,,,,,,,,,,,,,,,,,,,,,,,,c,1.349999905,OC,FALSE,,,,,,,188,xocolata,Catalan,Sounds/cat_xocolata.mp3,2020-06-10_19h57.52.884,TranslationElicitation_eng-prolific,3.2.4,MacIntel,60,5d486df3beeecd0001d02647,,1,0,81,79,1,80
,,,,,,,,,,,,,,,,,,,,,,,,,,,,,,,,,,,,,,,,,o,1.431999922,OCO,FALSE,,,,,,,188,xocolata,Catalan,Sounds/cat_xocolata.mp3,2020-06-10_19h57.52.884,TranslationElicitation_eng-prolific,3.2.4,MacIntel,60,5d486df3beeecd0001d02647,,1,0,81,79,1,80
,,,,,,,,,,,,,,,,,,,,,,,,,,,,,,,,,,,,,,,,,l,1.617000103,OCOL,FALSE,,,,,,,188,xocolata,Catalan,Sounds/cat_xocolata.mp3,2020-06-10_19h57.52.884,TranslationElicitation_eng-prolific,3.2.4,MacIntel,60,5d486df3beeecd0001d02647,,1,0,81,79,1,80
,,,,,,,,,,,,,,,,,,,,,,,,,,,,,,,,,,,,,,,,,a,1.73300004,OCOLA,FALSE,,,,,,,188,xocolata,Catalan,Sounds/cat_xocolata.mp3,2020-06-10_19h57.52.884,TranslationElicitation_eng-prolific,3.2.4,MacIntel,60,5d486df3beeecd0001d02647,,1,0,81,79,1,80
,,,,,,,,,,,,,,,,,,,,,,,,,,,,,,,,,,,,,,,,,backspace,2.01699996,OCOL,TRUE,,,,,,,188,xocolata,Catalan,Sounds/cat_xocolata.mp3,2020-06-10_19h57.52.884,TranslationElicitation_eng-prolific,3.2.4,MacIntel,60,5d486df3beeecd0001d02647,,1,0,81,79,1,80
,,,,,,,,,,,,,,,,,,,,,,,,,,,,,,,,,,,,,,,,,backspace,2.167000055,OCO,TRUE,,,,,,,188,xocolata,Catalan,Sounds/cat_xocolata.mp3,2020-06-10_19h57.52.884,TranslationElicitation_eng-prolific,3.2.4,MacIntel,60,5d486df3beeecd0001d02647,,1,0,81,79,1,80
,,,,,,,,,,,,,,,,,,,,,,,,,,,,,,,,,,,,,,,,,backspace,2.315999985,OC,TRUE,,,,,,,188,xocolata,Catalan,Sounds/cat_xocolata.mp3,2020-06-10_19h57.52.884,TranslationElicitation_eng-prolific,3.2.4,MacIntel,60,5d486df3beeecd0001d02647,,1,0,81,79,1,80
,,,,,,,,,,,,,,,,,,,,,,,,,,,,,,,,,,,,,,,,,backspace,2.467000008,O,TRUE,,,,,,,188,xocolata,Catalan,Sounds/cat_xocolata.mp3,2020-06-10_19h57.52.884,TranslationElicitation_eng-prolific,3.2.4,MacIntel,60,5d486df3beeecd0001d02647,,1,0,81,79,1,80
,,,,,,,,,,,,,,,,,,,,,,,,,,,,,,,,,,,,,,,,,backspace,2.617000103,,TRUE,,,,,,,188,xocolata,Catalan,Sounds/cat_xocolata.mp3,2020-06-10_19h57.52.884,TranslationElicitation_eng-prolific,3.2.4,MacIntel,60,5d486df3beeecd0001d02647,,1,0,81,79,1,80
,,,,,,,,,,,,,,,,,,,,,,,,,,,,,,,,,,,,,,,,,c,3.099999905,C,TRUE,,,,,,,188,xocolata,Catalan,Sounds/cat_xocolata.mp3,2020-06-10_19h57.52.884,TranslationElicitation_eng-prolific,3.2.4,MacIntel,60,5d486df3beeecd0001d02647,,1,0,81,79,1,80
,,,,,,,,,,,,,,,,,,,,,,,,,,,,,,,,,,,,,,,,,h,3.25,CH,TRUE,,,,,,,188,xocolata,Catalan,Sounds/cat_xocolata.mp3,2020-06-10_19h57.52.884,TranslationElicitation_eng-prolific,3.2.4,MacIntel,60,5d486df3beeecd0001d02647,,1,0,81,79,1,80
,,,,,,,,,,,,,,,,,,,,,,,,,,,,,,,,,,,,,,,,,o,3.367000103,CHO,TRUE,,,,,,,188,xocolata,Catalan,Sounds/cat_xocolata.mp3,2020-06-10_19h57.52.884,TranslationElicitation_eng-prolific,3.2.4,MacIntel,60,5d486df3beeecd0001d02647,,1,0,81,79,1,80
,,,,,,,,,,,,,,,,,,,,,,,,,,,,,,,,,,,,,,,,,c,3.532000065,CHOC,TRUE,,,,,,,188,xocolata,Catalan,Sounds/cat_xocolata.mp3,2020-06-10_19h57.52.884,TranslationElicitation_eng-prolific,3.2.4,MacIntel,60,5d486df3beeecd0001d02647,,1,0,81,79,1,80
,,,,,,,,,,,,,,,,,,,,,,,,,,,,,,,,,,,,,,,,,o,3.634000063,CHOCO,TRUE,,,,,,,188,xocolata,Catalan,Sounds/cat_xocolata.mp3,2020-06-10_19h57.52.884,TranslationElicitation_eng-prolific,3.2.4,MacIntel,60,5d486df3beeecd0001d02647,,1,0,81,79,1,80
,,,,,,,,,,,,,,,,,,,,,,,,,,,,,,,,,,,,,,,,,l,4.084000111,CHOCOL,TRUE,,,,,,,188,xocolata,Catalan,Sounds/cat_xocolata.mp3,2020-06-10_19h57.52.884,TranslationElicitation_eng-prolific,3.2.4,MacIntel,60,5d486df3beeecd0001d02647,,1,0,81,79,1,80
,,,,,,,,,,,,,,,,,,,,,,,,,,,,,,,,,,,,,,,,,a,4.233999968,CHOCOLA,TRUE,,,,,,,188,xocolata,Catalan,Sounds/cat_xocolata.mp3,2020-06-10_19h57.52.884,TranslationElicitation_eng-prolific,3.2.4,MacIntel,60,5d486df3beeecd0001d02647,,1,0,81,79,1,80
,,,,,,,,,,,,,,,,,,,,,,,,,,,,,,,,,,,,,,,,,t,4.499000072,CHOCOLAT,TRUE,,,,,,,188,xocolata,Catalan,Sounds/cat_xocolata.mp3,2020-06-10_19h57.52.884,TranslationElicitation_eng-prolific,3.2.4,MacIntel,60,5d486df3beeecd0001d02647,,1,0,81,79,1,80
,,,,,,,,,,,,,,,,,,,,,,,,,,,,,,,,,,,,,,,,,e,4.733999968,CHOCOLATE,TRUE,,,,,,,188,xocolata,Catalan,Sounds/cat_xocolata.mp3,2020-06-10_19h57.52.884,TranslationElicitation_eng-prolific,3.2.4,MacIntel,60,5d486df3beeecd0001d02647,,1,0,81,79,1,80
,,,,,,,,,,,,,,,,,,,,,,,,,,,,,,,,,,,,,,,,,return,4.917000055,CHOCOLATE,TRUE,,,,,,,188,xocolata,Catalan,Sounds/cat_xocolata.mp3,2020-06-10_19h57.52.884,TranslationElicitation_eng-prolific,3.2.4,MacIntel,60,5d486df3beeecd0001d02647,4.917000055,1,0,81,79,1,80
,,,,,,,,,,,,,,,,,,,,,,,,,,,,,,,,,,,,,,,,,,,,,,,,,,,188,xocolata,Catalan,Sounds/cat_xocolata.mp3,2020-06-10_19h57.52.884,TranslationElicitation_eng-prolific,3.2.4,MacIntel,60,5d486df3beeecd0001d02647,,1,0,81,79,1,80
,,,,,,,,,,,,,,,,,,,,,,,,,,,,,,,,,,,,,,,,,u,5.30099988,U,FALSE,,,,,,,161,ovella,Catalan,Sounds/cat_ovella.mp3,2020-06-10_19h57.52.884,TranslationElicitation_eng-prolific,3.2.4,MacIntel,60,5d486df3beeecd0001d02647,,1,0,81,53,1,80
,,,,,,,,,,,,,,,,,,,,,,,,,,,,,,,,,,,,,,,,,m,5.53399992,UM,FALSE,,,,,,,161,ovella,Catalan,Sounds/cat_ovella.mp3,2020-06-10_19h57.52.884,TranslationElicitation_eng-prolific,3.2.4,MacIntel,60,5d486df3beeecd0001d02647,,1,0,81,53,1,80
,,,,,,,,,,,,,,,,,,,,,,,,,,,,,,,,,,,,,,,,,b,5.733999968,UMB,FALSE,,,,,,,161,ovella,Catalan,Sounds/cat_ovella.mp3,2020-06-10_19h57.52.884,TranslationElicitation_eng-prolific,3.2.4,MacIntel,60,5d486df3beeecd0001d02647,,1,0,81,53,1,80
,,,,,,,,,,,,,,,,,,,,,,,,,,,,,,,,,,,,,,,,,r,5.849999905,UMBR,FALSE,,,,,,,161,ovella,Catalan,Sounds/cat_ovella.mp3,2020-06-10_19h57.52.884,TranslationElicitation_eng-prolific,3.2.4,MacIntel,60,5d486df3beeecd0001d02647,,1,0,81,53,1,80
,,,,,,,,,,,,,,,,,,,,,,,,,,,,,,,,,,,,,,,,,e,6.116999865,UMBRE,FALSE,,,,,,,161,ovella,Catalan,Sounds/cat_ovella.mp3,2020-06-10_19h57.52.884,TranslationElicitation_eng-prolific,3.2.4,MacIntel,60,5d486df3beeecd0001d02647,,1,0,81,53,1,80
,,,,,,,,,,,,,,,,,,,,,,,,,,,,,,,,,,,,,,,,,l,6.28399992,UMBREL,FALSE,,,,,,,161,ovella,Catalan,Sounds/cat_ovella.mp3,2020-06-10_19h57.52.884,TranslationElicitation_eng-prolific,3.2.4,MacIntel,60,5d486df3beeecd0001d02647,,1,0,81,53,1,80
,,,,,,,,,,,,,,,,,,,,,,,,,,,,,,,,,,,,,,,,,l,6.450000048,UMBRELL,FALSE,,,,,,,161,ovella,Catalan,Sounds/cat_ovella.mp3,2020-06-10_19h57.52.884,TranslationElicitation_eng-prolific,3.2.4,MacIntel,60,5d486df3beeecd0001d02647,,1,0,81,53,1,80
,,,,,,,,,,,,,,,,,,,,,,,,,,,,,,,,,,,,,,,,,a,6.51699996,UMBRELLA,FALSE,,,,,,,161,ovella,Catalan,Sounds/cat_ovella.mp3,2020-06-10_19h57.52.884,TranslationElicitation_eng-prolific,3.2.4,MacIntel,60,5d486df3beeecd0001d02647,,1,0,81,53,1,80
,,,,,,,,,,,,,,,,,,,,,,,,,,,,,,,,,,,,,,,,,return,8.532999992,UMBRELLA,FALSE,,,,,,,161,ovella,Catalan,Sounds/cat_ovella.mp3,2020-06-10_19h57.52.884,TranslationElicitation_eng-prolific,3.2.4,MacIntel,60,5d486df3beeecd0001d02647,8.532999992,1,0,81,53,1,80
,,,,,,,,,,,,,,,,,,,,,,,,,,,,,,,,,,,,,,,,,,,,,,,,,,,161,ovella,Catalan,Sounds/cat_ovella.mp3,2020-06-10_19h57.52.884,TranslationElicitation_eng-prolific,3.2.4,MacIntel,60,5d486df3beeecd0001d02647,,1,0,81,53,1,80
,,,,,,,,,,,,,,,,,,,,,,,,,,,,,,,,,,,,,,,,,p,1.834000111,P,FALSE,,,,,,,173,porc,Catalan,Sounds/cat_porc.mp3,2020-06-10_19h57.52.884,TranslationElicitation_eng-prolific,3.2.4,MacIntel,60,5d486df3beeecd0001d02647,,1,0,81,65,1,80
,,,,,,,,,,,,,,,,,,,,,,,,,,,,,,,,,,,,,,,,,o,1.983999968,PO,FALSE,,,,,,,173,porc,Catalan,Sounds/cat_porc.mp3,2020-06-10_19h57.52.884,TranslationElicitation_eng-prolific,3.2.4,MacIntel,60,5d486df3beeecd0001d02647,,1,0,81,65,1,80
,,,,,,,,,,,,,,,,,,,,,,,,,,,,,,,,,,,,,,,,,r,2.084000111,POR,FALSE,,,,,,,173,porc,Catalan,Sounds/cat_porc.mp3,2020-06-10_19h57.52.884,TranslationElicitation_eng-prolific,3.2.4,MacIntel,60,5d486df3beeecd0001d02647,,1,0,81,65,1,80
,,,,,,,,,,,,,,,,,,,,,,,,,,,,,,,,,,,,,,,,,k,2.200000048,PORK,FALSE,,,,,,,173,porc,Catalan,Sounds/cat_porc.mp3,2020-06-10_19h57.52.884,TranslationElicitation_eng-prolific,3.2.4,MacIntel,60,5d486df3beeecd0001d02647,,1,0,81,65,1,80
,,,,,,,,,,,,,,,,,,,,,,,,,,,,,,,,,,,,,,,,,return,2.434000015,PORK,FALSE,,,,,,,173,porc,Catalan,Sounds/cat_porc.mp3,2020-06-10_19h57.52.884,TranslationElicitation_eng-prolific,3.2.4,MacIntel,60,5d486df3beeecd0001d02647,2.434000015,1,0,81,65,1,80
,,,,,,,,,,,,,,,,,,,,,,,,,,,,,,,,,,,,,,,,,,,,,,,,,,,173,porc,Catalan,Sounds/cat_porc.mp3,2020-06-10_19h57.52.884,TranslationElicitation_eng-prolific,3.2.4,MacIntel,60,5d486df3beeecd0001d02647,,1,0,81,65,1,80
,,,,,,,,,,,,,,,,,,,,,,,,,,,,,,,,,,,,,,,,,o,4.700000048,O,FALSE,,,,,,,184,ull,Catalan,Sounds/cat_ull.mp3,2020-06-10_19h57.52.884,TranslationElicitation_eng-prolific,3.2.4,MacIntel,60,5d486df3beeecd0001d02647,,1,0,81,75,1,80
,,,,,,,,,,,,,,,,,,,,,,,,,,,,,,,,,,,,,,,,,o,4.849999905,OO,FALSE,,,,,,,184,ull,Catalan,Sounds/cat_ull.mp3,2020-06-10_19h57.52.884,TranslationElicitation_eng-prolific,3.2.4,MacIntel,60,5d486df3beeecd0001d02647,,1,0,81,75,1,80
,,,,,,,,,,,,,,,,,,,,,,,,,,,,,,,,,,,,,,,,,j,5.101999998,OOJ,FALSE,,,,,,,184,ull,Catalan,Sounds/cat_ull.mp3,2020-06-10_19h57.52.884,TranslationElicitation_eng-prolific,3.2.4,MacIntel,60,5d486df3beeecd0001d02647,,1,0,81,75,1,80
,,,,,,,,,,,,,,,,,,,,,,,,,,,,,,,,,,,,,,,,,backspace,5.633999825,OO,TRUE,,,,,,,184,ull,Catalan,Sounds/cat_ull.mp3,2020-06-10_19h57.52.884,TranslationElicitation_eng-prolific,3.2.4,MacIntel,60,5d486df3beeecd0001d02647,,1,0,81,75,1,80
,,,,,,,,,,,,,,,,,,,,,,,,,,,,,,,,,,,,,,,,,h,6.001999855,OOH,TRUE,,,,,,,184,ull,Catalan,Sounds/cat_ull.mp3,2020-06-10_19h57.52.884,TranslationElicitation_eng-prolific,3.2.4,MacIntel,60,5d486df3beeecd0001d02647,,1,0,81,75,1,80
,,,,,,,,,,,,,,,,,,,,,,,,,,,,,,,,,,,,,,,,,return,6.751999855,OOH,TRUE,,,,,,,184,ull,Catalan,Sounds/cat_ull.mp3,2020-06-10_19h57.52.884,TranslationElicitation_eng-prolific,3.2.4,MacIntel,60,5d486df3beeecd0001d02647,6.751999855,1,0,81,75,1,80
,,,,,,,,,,,,,,,,,,,,,,,,,,,,,,,,,,,,,,,,,,,,,,,,,,,184,ull,Catalan,Sounds/cat_ull.mp3,2020-06-10_19h57.52.884,TranslationElicitation_eng-prolific,3.2.4,MacIntel,60,5d486df3beeecd0001d02647,,1,0,81,75,1,80
,,,,,,,,,,,,,,,,,,,,,,,,,,,,,,,,,,,,,,,,,s,9.200000048,S,FALSE,,,,,,,176,samarreta,Catalan,Sounds/cat_samarreta.mp3,2020-06-10_19h57.52.884,TranslationElicitation_eng-prolific,3.2.4,MacIntel,60,5d486df3beeecd0001d02647,,1,0,81,68,1,80
,,,,,,,,,,,,,,,,,,,,,,,,,,,,,,,,,,,,,,,,,backspace,10.3670001,,TRUE,,,,,,,176,samarreta,Catalan,Sounds/cat_samarreta.mp3,2020-06-10_19h57.52.884,TranslationElicitation_eng-prolific,3.2.4,MacIntel,60,5d486df3beeecd0001d02647,,1,0,81,68,1,80
,,,,,,,,,,,,,,,,,,,,,,,,,,,,,,,,,,,,,,,,,d,10.78400016,D,TRUE,,,,,,,176,samarreta,Catalan,Sounds/cat_samarreta.mp3,2020-06-10_19h57.52.884,TranslationElicitation_eng-prolific,3.2.4,MacIntel,60,5d486df3beeecd0001d02647,,1,0,81,68,1,80
,,,,,,,,,,,,,,,,,,,,,,,,,,,,,,,,,,,,,,,,,a,11.03400016,DA,TRUE,,,,,,,176,samarreta,Catalan,Sounds/cat_samarreta.mp3,2020-06-10_19h57.52.884,TranslationElicitation_eng-prolific,3.2.4,MacIntel,60,5d486df3beeecd0001d02647,,1,0,81,68,1,80
,,,,,,,,,,,,,,,,,,,,,,,,,,,,,,,,,,,,,,,,,n,11.13400006,DAN,TRUE,,,,,,,176,samarreta,Catalan,Sounds/cat_samarreta.mp3,2020-06-10_19h57.52.884,TranslationElicitation_eng-prolific,3.2.4,MacIntel,60,5d486df3beeecd0001d02647,,1,0,81,68,1,80
,,,,,,,,,,,,,,,,,,,,,,,,,,,,,,,,,,,,,,,,,c,11.23300004,DANC,TRUE,,,,,,,176,samarreta,Catalan,Sounds/cat_samarreta.mp3,2020-06-10_19h57.52.884,TranslationElicitation_eng-prolific,3.2.4,MacIntel,60,5d486df3beeecd0001d02647,,1,0,81,68,1,80
,,,,,,,,,,,,,,,,,,,,,,,,,,,,,,,,,,,,,,,,,i,11.93300009,DANCI,TRUE,,,,,,,176,samarreta,Catalan,Sounds/cat_samarreta.mp3,2020-06-10_19h57.52.884,TranslationElicitation_eng-prolific,3.2.4,MacIntel,60,5d486df3beeecd0001d02647,,1,0,81,68,1,80
,,,,,,,,,,,,,,,,,,,,,,,,,,,,,,,,,,,,,,,,,n,12.08400011,DANCIN,TRUE,,,,,,,176,samarreta,Catalan,Sounds/cat_samarreta.mp3,2020-06-10_19h57.52.884,TranslationElicitation_eng-prolific,3.2.4,MacIntel,60,5d486df3beeecd0001d02647,,1,0,81,68,1,80
,,,,,,,,,,,,,,,,,,,,,,,,,,,,,,,,,,,,,,,,,g,12.20000005,DANCING,TRUE,,,,,,,176,samarreta,Catalan,Sounds/cat_samarreta.mp3,2020-06-10_19h57.52.884,TranslationElicitation_eng-prolific,3.2.4,MacIntel,60,5d486df3beeecd0001d02647,,1,0,81,68,1,80
,,,,,,,,,,,,,,,,,,,,,,,,,,,,,,,,,,,,,,,,,return,12.48399997,DANCING,TRUE,,,,,,,176,samarreta,Catalan,Sounds/cat_samarreta.mp3,2020-06-10_19h57.52.884,TranslationElicitation_eng-prolific,3.2.4,MacIntel,60,5d486df3beeecd0001d02647,12.48399997,1,0,81,68,1,80
,,,,,,,,,,,,,,,,,,,,,,,,,,,,,,,,,,,,,,,,,,,,,,,,,,,176,samarreta,Catalan,Sounds/cat_samarreta.mp3,2020-06-10_19h57.52.884,TranslationElicitation_eng-prolific,3.2.4,MacIntel,60,5d486df3beeecd0001d02647,,1,0,81,68,1,80
,,,,,,,,,,,,,,,,,,,,,,,,,,,,,,,,,,,,,,,,,b,1.616000175,B,FALSE,,,,,,,114,bol,Catalan,Sounds/cat_bol.mp3,2020-06-10_19h57.52.884,TranslationElicitation_eng-prolific,3.2.4,MacIntel,60,5d486df3beeecd0001d02647,,1,0,81,9,1,80
,,,,,,,,,,,,,,,,,,,,,,,,,,,,,,,,,,,,,,,,,a,1.717000008,BA,FALSE,,,,,,,114,bol,Catalan,Sounds/cat_bol.mp3,2020-06-10_19h57.52.884,TranslationElicitation_eng-prolific,3.2.4,MacIntel,60,5d486df3beeecd0001d02647,,1,0,81,9,1,80
,,,,,,,,,,,,,,,,,,,,,,,,,,,,,,,,,,,,,,,,,l,1.883000135,BAL,FALSE,,,,,,,114,bol,Catalan,Sounds/cat_bol.mp3,2020-06-10_19h57.52.884,TranslationElicitation_eng-prolific,3.2.4,MacIntel,60,5d486df3beeecd0001d02647,,1,0,81,9,1,80
,,,,,,,,,,,,,,,,,,,,,,,,,,,,,,,,,,,,,,,,,l,2.051000118,BALL,FALSE,,,,,,,114,bol,Catalan,Sounds/cat_bol.mp3,2020-06-10_19h57.52.884,TranslationElicitation_eng-prolific,3.2.4,MacIntel,60,5d486df3beeecd0001d02647,,1,0,81,9,1,80
,,,,,,,,,,,,,,,,,,,,,,,,,,,,,,,,,,,,,,,,,return,2.467000008,BALL,FALSE,,,,,,,114,bol,Catalan,Sounds/cat_bol.mp3,2020-06-10_19h57.52.884,TranslationElicitation_eng-prolific,3.2.4,MacIntel,60,5d486df3beeecd0001d02647,2.467000008,1,0,81,9,1,80
,,,,,,,,,,,,,,,,,,,,,,,,,,,,,,,,,,,,,,,,,,,,,,,,,,,114,bol,Catalan,Sounds/cat_bol.mp3,2020-06-10_19h57.52.884,TranslationElicitation_eng-prolific,3.2.4,MacIntel,60,5d486df3beeecd0001d02647,,1,0,81,9,1,80
,,,,,,,,,,,,,,,,,,,,,,,,,,,,,,,,,,,,,,,,,c,2.348999977,C,FALSE,,,,,,,140,gat,Catalan,Sounds/cat_gat.mp3,2020-06-10_19h57.52.884,TranslationElicitation_eng-prolific,3.2.4,MacIntel,60,5d486df3beeecd0001d02647,,1,0,81,34,1,80
,,,,,,,,,,,,,,,,,,,,,,,,,,,,,,,,,,,,,,,,,a,2.532999992,CA,FALSE,,,,,,,140,gat,Catalan,Sounds/cat_gat.mp3,2020-06-10_19h57.52.884,TranslationElicitation_eng-prolific,3.2.4,MacIntel,60,5d486df3beeecd0001d02647,,1,0,81,34,1,80
,,,,,,,,,,,,,,,,,,,,,,,,,,,,,,,,,,,,,,,,,t,2.649999857,CAT,FALSE,,,,,,,140,gat,Catalan,Sounds/cat_gat.mp3,2020-06-10_19h57.52.884,TranslationElicitation_eng-prolific,3.2.4,MacIntel,60,5d486df3beeecd0001d02647,,1,0,81,34,1,80
,,,,,,,,,,,,,,,,,,,,,,,,,,,,,,,,,,,,,,,,,return,3.198999882,CAT,FALSE,,,,,,,140,gat,Catalan,Sounds/cat_gat.mp3,2020-06-10_19h57.52.884,TranslationElicitation_eng-prolific,3.2.4,MacIntel,60,5d486df3beeecd0001d02647,3.198999882,1,0,81,34,1,80
,,,,,,,,,,,,,,,,,,,,,,,,,,,,,,,,,,,,,,,,,,,,,,,,,,,140,gat,Catalan,Sounds/cat_gat.mp3,2020-06-10_19h57.52.884,TranslationElicitation_eng-prolific,3.2.4,MacIntel,60,5d486df3beeecd0001d02647,,1,0,81,34,1,80
,,,,,,,,,,,,,,,,,,,,,,,,,,,,,,,,,,,,,,,,,b,4.03399992,B,FALSE,,,,,,,175,raspall,Catalan,Sounds/cat_raspall.mp3,2020-06-10_19h57.52.884,TranslationElicitation_eng-prolific,3.2.4,MacIntel,60,5d486df3beeecd0001d02647,,1,0,81,67,1,80
,,,,,,,,,,,,,,,,,,,,,,,,,,,,,,,,,,,,,,,,,r,4.115999937,BR,FALSE,,,,,,,175,raspall,Catalan,Sounds/cat_raspall.mp3,2020-06-10_19h57.52.884,TranslationElicitation_eng-prolific,3.2.4,MacIntel,60,5d486df3beeecd0001d02647,,1,0,81,67,1,80
,,,,,,,,,,,,,,,,,,,,,,,,,,,,,,,,,,,,,,,,,e,4.315999985,BRE,FALSE,,,,,,,175,raspall,Catalan,Sounds/cat_raspall.mp3,2020-06-10_19h57.52.884,TranslationElicitation_eng-prolific,3.2.4,MacIntel,60,5d486df3beeecd0001d02647,,1,0,81,67,1,80
,,,,,,,,,,,,,,,,,,,,,,,,,,,,,,,,,,,,,,,,,a,4.5,BREA,FALSE,,,,,,,175,raspall,Catalan,Sounds/cat_raspall.mp3,2020-06-10_19h57.52.884,TranslationElicitation_eng-prolific,3.2.4,MacIntel,60,5d486df3beeecd0001d02647,,1,0,81,67,1,80
,,,,,,,,,,,,,,,,,,,,,,,,,,,,,,,,,,,,,,,,,t,4.582999945,BREAT,FALSE,,,,,,,175,raspall,Catalan,Sounds/cat_raspall.mp3,2020-06-10_19h57.52.884,TranslationElicitation_eng-prolific,3.2.4,MacIntel,60,5d486df3beeecd0001d02647,,1,0,81,67,1,80
,,,,,,,,,,,,,,,,,,,,,,,,,,,,,,,,,,,,,,,,,h,4.75,BREATH,FALSE,,,,,,,175,raspall,Catalan,Sounds/cat_raspall.mp3,2020-06-10_19h57.52.884,TranslationElicitation_eng-prolific,3.2.4,MacIntel,60,5d486df3beeecd0001d02647,,1,0,81,67,1,80
,,,,,,,,,,,,,,,,,,,,,,,,,,,,,,,,,,,,,,,,,e,4.832999945,BREATHE,FALSE,,,,,,,175,raspall,Catalan,Sounds/cat_raspall.mp3,2020-06-10_19h57.52.884,TranslationElicitation_eng-prolific,3.2.4,MacIntel,60,5d486df3beeecd0001d02647,,1,0,81,67,1,80
,,,,,,,,,,,,,,,,,,,,,,,,,,,,,,,,,,,,,,,,,return,5.132999897,BREATHE,FALSE,,,,,,,175,raspall,Catalan,Sounds/cat_raspall.mp3,2020-06-10_19h57.52.884,TranslationElicitation_eng-prolific,3.2.4,MacIntel,60,5d486df3beeecd0001d02647,5.132999897,1,0,81,67,1,80
,,,,,,,,,,,,,,,,,,,,,,,,,,,,,,,,,,,,,,,,,,,,,,,,,,,175,raspall,Catalan,Sounds/cat_raspall.mp3,2020-06-10_19h57.52.884,TranslationElicitation_eng-prolific,3.2.4,MacIntel,60,5d486df3beeecd0001d02647,,1,0,81,67,1,80
,,,,,,,,,,,,,,,,,,,,,,,,,,,,,,,,,,,,,,,,,c,4.601000071,C,FALSE,,,,,,,108,ampolla,Catalan,Sounds/cat_ampolla.mp3,2020-06-10_19h57.52.884,TranslationElicitation_eng-prolific,3.2.4,MacIntel,60,5d486df3beeecd0001d02647,,1,0,81,4,1,80
,,,,,,,,,,,,,,,,,,,,,,,,,,,,,,,,,,,,,,,,,h,4.717000008,CH,FALSE,,,,,,,108,ampolla,Catalan,Sounds/cat_ampolla.mp3,2020-06-10_19h57.52.884,TranslationElicitation_eng-prolific,3.2.4,MacIntel,60,5d486df3beeecd0001d02647,,1,0,81,4,1,80
,,,,,,,,,,,,,,,,,,,,,,,,,,,,,,,,,,,,,,,,,i,4.80099988,CHI,FALSE,,,,,,,108,ampolla,Catalan,Sounds/cat_ampolla.mp3,2020-06-10_19h57.52.884,TranslationElicitation_eng-prolific,3.2.4,MacIntel,60,5d486df3beeecd0001d02647,,1,0,81,4,1,80
,,,,,,,,,,,,,,,,,,,,,,,,,,,,,,,,,,,,,,,,,c,4.917000055,CHIC,FALSE,,,,,,,108,ampolla,Catalan,Sounds/cat_ampolla.mp3,2020-06-10_19h57.52.884,TranslationElicitation_eng-prolific,3.2.4,MacIntel,60,5d486df3beeecd0001d02647,,1,0,81,4,1,80
,,,,,,,,,,,,,,,,,,,,,,,,,,,,,,,,,,,,,,,,,k,5.03399992,CHICK,FALSE,,,,,,,108,ampolla,Catalan,Sounds/cat_ampolla.mp3,2020-06-10_19h57.52.884,TranslationElicitation_eng-prolific,3.2.4,MacIntel,60,5d486df3beeecd0001d02647,,1,0,81,4,1,80
,,,,,,,,,,,,,,,,,,,,,,,,,,,,,,,,,,,,,,,,,e,5.200999975,CHICKE,FALSE,,,,,,,108,ampolla,Catalan,Sounds/cat_ampolla.mp3,2020-06-10_19h57.52.884,TranslationElicitation_eng-prolific,3.2.4,MacIntel,60,5d486df3beeecd0001d02647,,1,0,81,4,1,80
,,,,,,,,,,,,,,,,,,,,,,,,,,,,,,,,,,,,,,,,,n,5.335000038,CHICKEN,FALSE,,,,,,,108,ampolla,Catalan,Sounds/cat_ampolla.mp3,2020-06-10_19h57.52.884,TranslationElicitation_eng-prolific,3.2.4,MacIntel,60,5d486df3beeecd0001d02647,,1,0,81,4,1,80
,,,,,,,,,,,,,,,,,,,,,,,,,,,,,,,,,,,,,,,,,return,5.568000078,CHICKEN,FALSE,,,,,,,108,ampolla,Catalan,Sounds/cat_ampolla.mp3,2020-06-10_19h57.52.884,TranslationElicitation_eng-prolific,3.2.4,MacIntel,60,5d486df3beeecd0001d02647,5.568000078,1,0,81,4,1,80
,,,,,,,,,,,,,,,,,,,,,,,,,,,,,,,,,,,,,,,,,,,,,,,,,,,108,ampolla,Catalan,Sounds/cat_ampolla.mp3,2020-06-10_19h57.52.884,TranslationElicitation_eng-prolific,3.2.4,MacIntel,60,5d486df3beeecd0001d02647,,1,0,81,4,1,80
,,,,,,,,,,,,,,,,,,,,,,,,,,,,,,,,,,,,,,,,,h,1.934000015,H,FALSE,,,,,,,122,casa,Catalan,Sounds/cat_casa.mp3,2020-06-10_19h57.52.884,TranslationElicitation_eng-prolific,3.2.4,MacIntel,60,5d486df3beeecd0001d02647,,1,0,81,17,1,80
,,,,,,,,,,,,,,,,,,,,,,,,,,,,,,,,,,,,,,,,,o,2.082999945,HO,FALSE,,,,,,,122,casa,Catalan,Sounds/cat_casa.mp3,2020-06-10_19h57.52.884,TranslationElicitation_eng-prolific,3.2.4,MacIntel,60,5d486df3beeecd0001d02647,,1,0,81,17,1,80
,,,,,,,,,,,,,,,,,,,,,,,,,,,,,,,,,,,,,,,,,u,2.165999889,HOU,FALSE,,,,,,,122,casa,Catalan,Sounds/cat_casa.mp3,2020-06-10_19h57.52.884,TranslationElicitation_eng-prolific,3.2.4,MacIntel,60,5d486df3beeecd0001d02647,,1,0,81,17,1,80
,,,,,,,,,,,,,,,,,,,,,,,,,,,,,,,,,,,,,,,,,s,2.248999834,HOUS,FALSE,,,,,,,122,casa,Catalan,Sounds/cat_casa.mp3,2020-06-10_19h57.52.884,TranslationElicitation_eng-prolific,3.2.4,MacIntel,60,5d486df3beeecd0001d02647,,1,0,81,17,1,80
,,,,,,,,,,,,,,,,,,,,,,,,,,,,,,,,,,,,,,,,,e,2.465999842,HOUSE,FALSE,,,,,,,122,casa,Catalan,Sounds/cat_casa.mp3,2020-06-10_19h57.52.884,TranslationElicitation_eng-prolific,3.2.4,MacIntel,60,5d486df3beeecd0001d02647,,1,0,81,17,1,80
,,,,,,,,,,,,,,,,,,,,,,,,,,,,,,,,,,,,,,,,,return,2.633999825,HOUSE,FALSE,,,,,,,122,casa,Catalan,Sounds/cat_casa.mp3,2020-06-10_19h57.52.884,TranslationElicitation_eng-prolific,3.2.4,MacIntel,60,5d486df3beeecd0001d02647,2.633999825,1,0,81,17,1,80
,,,,,,,,,,,,,,,,,,,,,,,,,,,,,,,,,,,,,,,,,,,,,,,,,,,122,casa,Catalan,Sounds/cat_casa.mp3,2020-06-10_19h57.52.884,TranslationElicitation_eng-prolific,3.2.4,MacIntel,60,5d486df3beeecd0001d02647,,1,0,81,17,1,80
,,,,,,,,,,,,,,,,,,,,,,,,,,,,,,,,,,,,,,,,,z,1.433000088,Z,FALSE,,,,,,,189,zebra,Catalan,Sounds/cat_zebra.mp3,2020-06-10_19h57.52.884,TranslationElicitation_eng-prolific,3.2.4,MacIntel,60,5d486df3beeecd0001d02647,,1,0,81,80,1,80
,,,,,,,,,,,,,,,,,,,,,,,,,,,,,,,,,,,,,,,,,e,1.667000055,ZE,FALSE,,,,,,,189,zebra,Catalan,Sounds/cat_zebra.mp3,2020-06-10_19h57.52.884,TranslationElicitation_eng-prolific,3.2.4,MacIntel,60,5d486df3beeecd0001d02647,,1,0,81,80,1,80
,,,,,,,,,,,,,,,,,,,,,,,,,,,,,,,,,,,,,,,,,b,1.817000151,ZEB,FALSE,,,,,,,189,zebra,Catalan,Sounds/cat_zebra.mp3,2020-06-10_19h57.52.884,TranslationElicitation_eng-prolific,3.2.4,MacIntel,60,5d486df3beeecd0001d02647,,1,0,81,80,1,80
,,,,,,,,,,,,,,,,,,,,,,,,,,,,,,,,,,,,,,,,,r,1.899000168,ZEBR,FALSE,,,,,,,189,zebra,Catalan,Sounds/cat_zebra.mp3,2020-06-10_19h57.52.884,TranslationElicitation_eng-prolific,3.2.4,MacIntel,60,5d486df3beeecd0001d02647,,1,0,81,80,1,80
,,,,,,,,,,,,,,,,,,,,,,,,,,,,,,,,,,,,,,,,,a,2.116000175,ZEBRA,FALSE,,,,,,,189,zebra,Catalan,Sounds/cat_zebra.mp3,2020-06-10_19h57.52.884,TranslationElicitation_eng-prolific,3.2.4,MacIntel,60,5d486df3beeecd0001d02647,,1,0,81,80,1,80
,,,,,,,,,,,,,,,,,,,,,,,,,,,,,,,,,,,,,,,,,return,2.317000151,ZEBRA,FALSE,,,,,,,189,zebra,Catalan,Sounds/cat_zebra.mp3,2020-06-10_19h57.52.884,TranslationElicitation_eng-prolific,3.2.4,MacIntel,60,5d486df3beeecd0001d02647,2.317000151,1,0,81,80,1,80
,,,,,,,,,,,,,,,,,,,,,,,,,,,,,,,,,,,,,,,,,,,,,,,,,,,189,zebra,Catalan,Sounds/cat_zebra.mp3,2020-06-10_19h57.52.884,TranslationElicitation_eng-prolific,3.2.4,MacIntel,60,5d486df3beeecd0001d02647,,1,0,81,80,1,80
,,,,,,,,,,,,,,,,,,,,,,,,,,,,,,,,,,,,,,,,,f,1.834000111,F,FALSE,,,,,,,137,fulla,Catalan,Sounds/cat_fulla.mp3,2020-06-10_19h57.52.884,TranslationElicitation_eng-prolific,3.2.4,MacIntel,60,5d486df3beeecd0001d02647,,1,0,81,31,1,80
,,,,,,,,,,,,,,,,,,,,,,,,,,,,,,,,,,,,,,,,,o,1.951000214,FO,FALSE,,,,,,,137,fulla,Catalan,Sounds/cat_fulla.mp3,2020-06-10_19h57.52.884,TranslationElicitation_eng-prolific,3.2.4,MacIntel,60,5d486df3beeecd0001d02647,,1,0,81,31,1,80
,,,,,,,,,,,,,,,,,,,,,,,,,,,,,,,,,,,,,,,,,i,1.968000174,FOI,FALSE,,,,,,,137,fulla,Catalan,Sounds/cat_fulla.mp3,2020-06-10_19h57.52.884,TranslationElicitation_eng-prolific,3.2.4,MacIntel,60,5d486df3beeecd0001d02647,,1,0,81,31,1,80
,,,,,,,,,,,,,,,,,,,,,,,,,,,,,,,,,,,,,,,,,o,2.101000071,FOIO,FALSE,,,,,,,137,fulla,Catalan,Sounds/cat_fulla.mp3,2020-06-10_19h57.52.884,TranslationElicitation_eng-prolific,3.2.4,MacIntel,60,5d486df3beeecd0001d02647,,1,0,81,31,1,80
,,,,,,,,,,,,,,,,,,,,,,,,,,,,,,,,,,,,,,,,,backspace,2.583000183,FOI,TRUE,,,,,,,137,fulla,Catalan,Sounds/cat_fulla.mp3,2020-06-10_19h57.52.884,TranslationElicitation_eng-prolific,3.2.4,MacIntel,60,5d486df3beeecd0001d02647,,1,0,81,31,1,80
,,,,,,,,,,,,,,,,,,,,,,,,,,,,,,,,,,,,,,,,,backspace,2.768000126,FO,TRUE,,,,,,,137,fulla,Catalan,Sounds/cat_fulla.mp3,2020-06-10_19h57.52.884,TranslationElicitation_eng-prolific,3.2.4,MacIntel,60,5d486df3beeecd0001d02647,,1,0,81,31,1,80
,,,,,,,,,,,,,,,,,,,,,,,,,,,,,,,,,,,,,,,,,o,3.001000166,FOO,TRUE,,,,,,,137,fulla,Catalan,Sounds/cat_fulla.mp3,2020-06-10_19h57.52.884,TranslationElicitation_eng-prolific,3.2.4,MacIntel,60,5d486df3beeecd0001d02647,,1,0,81,31,1,80
,,,,,,,,,,,,,,,,,,,,,,,,,,,,,,,,,,,,,,,,,l,3.351000071,FOOL,TRUE,,,,,,,137,fulla,Catalan,Sounds/cat_fulla.mp3,2020-06-10_19h57.52.884,TranslationElicitation_eng-prolific,3.2.4,MacIntel,60,5d486df3beeecd0001d02647,,1,0,81,31,1,80
,,,,,,,,,,,,,,,,,,,,,,,,,,,,,,,,,,,,,,,,,return,3.801000118,FOOL,TRUE,,,,,,,137,fulla,Catalan,Sounds/cat_fulla.mp3,2020-06-10_19h57.52.884,TranslationElicitation_eng-prolific,3.2.4,MacIntel,60,5d486df3beeecd0001d02647,3.801000118,1,0,81,31,1,80
,,,,,,,,,,,,,,,,,,,,,,,,,,,,,,,,,,,,,,,,,,,,,,,,,,,137,fulla,Catalan,Sounds/cat_fulla.mp3,2020-06-10_19h57.52.884,TranslationElicitation_eng-prolific,3.2.4,MacIntel,60,5d486df3beeecd0001d02647,,1,0,81,31,1,80
,,,,,,,,,,,,,,,,,,,,,,,,,,,,,,,,,,,,,,,,,f,1.901000023,F,FALSE,,,,,,,134,flor,Catalan,Sounds/cat_flor.mp3,2020-06-10_19h57.52.884,TranslationElicitation_eng-prolific,3.2.4,MacIntel,60,5d486df3beeecd0001d02647,,1,0,81,28,1,80
,,,,,,,,,,,,,,,,,,,,,,,,,,,,,,,,,,,,,,,,,l,1.999000072,FL,FALSE,,,,,,,134,flor,Catalan,Sounds/cat_flor.mp3,2020-06-10_19h57.52.884,TranslationElicitation_eng-prolific,3.2.4,MacIntel,60,5d486df3beeecd0001d02647,,1,0,81,28,1,80
,,,,,,,,,,,,,,,,,,,,,,,,,,,,,,,,,,,,,,,,,o,2.165999889,FLO,FALSE,,,,,,,134,flor,Catalan,Sounds/cat_flor.mp3,2020-06-10_19h57.52.884,TranslationElicitation_eng-prolific,3.2.4,MacIntel,60,5d486df3beeecd0001d02647,,1,0,81,28,1,80
,,,,,,,,,,,,,,,,,,,,,,,,,,,,,,,,,,,,,,,,,w,2.28399992,FLOW,FALSE,,,,,,,134,flor,Catalan,Sounds/cat_flor.mp3,2020-06-10_19h57.52.884,TranslationElicitation_eng-prolific,3.2.4,MacIntel,60,5d486df3beeecd0001d02647,,1,0,81,28,1,80
,,,,,,,,,,,,,,,,,,,,,,,,,,,,,,,,,,,,,,,,,return,2.634000063,FLOW,FALSE,,,,,,,134,flor,Catalan,Sounds/cat_flor.mp3,2020-06-10_19h57.52.884,TranslationElicitation_eng-prolific,3.2.4,MacIntel,60,5d486df3beeecd0001d02647,2.634000063,1,0,81,28,1,80
,,,,,,,,,,,,,,,,,,,,,,,,,,,,,,,,,,,,,,,,,,,,,,,,,,,134,flor,Catalan,Sounds/cat_flor.mp3,2020-06-10_19h57.52.884,TranslationElicitation_eng-prolific,3.2.4,MacIntel,60,5d486df3beeecd0001d02647,,1,0,81,28,1,80
,,,,,,,,,,,,,,,,,,,,,,,,,,,,,,,,,,,,,,,,,m,1.983999968,M,FALSE,,,,,,,157,mussol,Catalan,Sounds/cat_mussol.mp3,2020-06-10_19h57.52.884,TranslationElicitation_eng-prolific,3.2.4,MacIntel,60,5d486df3beeecd0001d02647,,1,0,81,50,1,80
,,,,,,,,,,,,,,,,,,,,,,,,,,,,,,,,,,,,,,,,,u,2.182999849,MU,FALSE,,,,,,,157,mussol,Catalan,Sounds/cat_mussol.mp3,2020-06-10_19h57.52.884,TranslationElicitation_eng-prolific,3.2.4,MacIntel,60,5d486df3beeecd0001d02647,,1,0,81,50,1,80
,,,,,,,,,,,,,,,,,,,,,,,,,,,,,,,,,,,,,,,,,s,2.316999912,MUS,FALSE,,,,,,,157,mussol,Catalan,Sounds/cat_mussol.mp3,2020-06-10_19h57.52.884,TranslationElicitation_eng-prolific,3.2.4,MacIntel,60,5d486df3beeecd0001d02647,,1,0,81,50,1,80
,,,,,,,,,,,,,,,,,,,,,,,,,,,,,,,,,,,,,,,,,c,2.5,MUSC,FALSE,,,,,,,157,mussol,Catalan,Sounds/cat_mussol.mp3,2020-06-10_19h57.52.884,TranslationElicitation_eng-prolific,3.2.4,MacIntel,60,5d486df3beeecd0001d02647,,1,0,81,50,1,80
,,,,,,,,,,,,,,,,,,,,,,,,,,,,,,,,,,,,,,,,,l,2.582999945,MUSCL,FALSE,,,,,,,157,mussol,Catalan,Sounds/cat_mussol.mp3,2020-06-10_19h57.52.884,TranslationElicitation_eng-prolific,3.2.4,MacIntel,60,5d486df3beeecd0001d02647,,1,0,81,50,1,80
,,,,,,,,,,,,,,,,,,,,,,,,,,,,,,,,,,,,,,,,,e,2.698999882,MUSCLE,FALSE,,,,,,,157,mussol,Catalan,Sounds/cat_mussol.mp3,2020-06-10_19h57.52.884,TranslationElicitation_eng-prolific,3.2.4,MacIntel,60,5d486df3beeecd0001d02647,,1,0,81,50,1,80
,,,,,,,,,,,,,,,,,,,,,,,,,,,,,,,,,,,,,,,,,return,2.965999842,MUSCLE,FALSE,,,,,,,157,mussol,Catalan,Sounds/cat_mussol.mp3,2020-06-10_19h57.52.884,TranslationElicitation_eng-prolific,3.2.4,MacIntel,60,5d486df3beeecd0001d02647,2.965999842,1,0,81,50,1,80
,,,,,,,,,,,,,,,,,,,,,,,,,,,,,,,,,,,,,,,,,,,,,,,,,,,157,mussol,Catalan,Sounds/cat_mussol.mp3,2020-06-10_19h57.52.884,TranslationElicitation_eng-prolific,3.2.4,MacIntel,60,5d486df3beeecd0001d02647,,1,0,81,50,1,80
,,,,,,,,,,,,,,,,,,,,,,,,,,,,,,,,,,,,,,,,,g,6.632999897,G,FALSE,,,,,,,186,ungla,Catalan,Sounds/cat_ungla.mp3,2020-06-10_19h57.52.884,TranslationElicitation_eng-prolific,3.2.4,MacIntel,60,5d486df3beeecd0001d02647,,1,0,81,77,1,80
,,,,,,,,,,,,,,,,,,,,,,,,,,,,,,,,,,,,,,,,,l,6.733999968,GL,FALSE,,,,,,,186,ungla,Catalan,Sounds/cat_ungla.mp3,2020-06-10_19h57.52.884,TranslationElicitation_eng-prolific,3.2.4,MacIntel,60,5d486df3beeecd0001d02647,,1,0,81,77,1,80
,,,,,,,,,,,,,,,,,,,,,,,,,,,,,,,,,,,,,,,,,a,6.950999975,GLA,FALSE,,,,,,,186,ungla,Catalan,Sounds/cat_ungla.mp3,2020-06-10_19h57.52.884,TranslationElicitation_eng-prolific,3.2.4,MacIntel,60,5d486df3beeecd0001d02647,,1,0,81,77,1,80
,,,,,,,,,,,,,,,,,,,,,,,,,,,,,,,,,,,,,,,,,s,7.166999817,GLAS,FALSE,,,,,,,186,ungla,Catalan,Sounds/cat_ungla.mp3,2020-06-10_19h57.52.884,TranslationElicitation_eng-prolific,3.2.4,MacIntel,60,5d486df3beeecd0001d02647,,1,0,81,77,1,80
,,,,,,,,,,,,,,,,,,,,,,,,,,,,,,,,,,,,,,,,,s,7.333999872,GLASS,FALSE,,,,,,,186,ungla,Catalan,Sounds/cat_ungla.mp3,2020-06-10_19h57.52.884,TranslationElicitation_eng-prolific,3.2.4,MacIntel,60,5d486df3beeecd0001d02647,,1,0,81,77,1,80
,,,,,,,,,,,,,,,,,,,,,,,,,,,,,,,,,,,,,,,,,return,7.583999872,GLASS,FALSE,,,,,,,186,ungla,Catalan,Sounds/cat_ungla.mp3,2020-06-10_19h57.52.884,TranslationElicitation_eng-prolific,3.2.4,MacIntel,60,5d486df3beeecd0001d02647,7.583999872,1,0,81,77,1,80
,,,,,,,,,,,,,,,,,,,,,,,,,,,,,,,,,,,,,,,,,,,,,,,,,,,186,ungla,Catalan,Sounds/cat_ungla.mp3,2020-06-10_19h57.52.884,TranslationElicitation_eng-prolific,3.2.4,MacIntel,60,5d486df3beeecd0001d02647,,1,0,81,77,1,80
,,,,,,,,,,,,,,,,,,,,,,,,,,,,,,,,,,,,,,,,,a,1.80099988,A,FALSE,,,,,,,183,tren,Catalan,Sounds/cat_tren.mp3,2020-06-10_19h57.52.884,TranslationElicitation_eng-prolific,3.2.4,MacIntel,60,5d486df3beeecd0001d02647,,1,0,81,74,1,80
,,,,,,,,,,,,,,,,,,,,,,,,,,,,,,,,,,,,,,,,,backspace,2.417000055,,TRUE,,,,,,,183,tren,Catalan,Sounds/cat_tren.mp3,2020-06-10_19h57.52.884,TranslationElicitation_eng-prolific,3.2.4,MacIntel,60,5d486df3beeecd0001d02647,,1,0,81,74,1,80
,,,,,,,,,,,,,,,,,,,,,,,,,,,,,,,,,,,,,,,,,t,2.583999872,T,TRUE,,,,,,,183,tren,Catalan,Sounds/cat_tren.mp3,2020-06-10_19h57.52.884,TranslationElicitation_eng-prolific,3.2.4,MacIntel,60,5d486df3beeecd0001d02647,,1,0,81,74,1,80
,,,,,,,,,,,,,,,,,,,,,,,,,,,,,,,,,,,,,,,,,r,2.818000078,TR,TRUE,,,,,,,183,tren,Catalan,Sounds/cat_tren.mp3,2020-06-10_19h57.52.884,TranslationElicitation_eng-prolific,3.2.4,MacIntel,60,5d486df3beeecd0001d02647,,1,0,81,74,1,80
,,,,,,,,,,,,,,,,,,,,,,,,,,,,,,,,,,,,,,,,,a,3.068000078,TRA,TRUE,,,,,,,183,tren,Catalan,Sounds/cat_tren.mp3,2020-06-10_19h57.52.884,TranslationElicitation_eng-prolific,3.2.4,MacIntel,60,5d486df3beeecd0001d02647,,1,0,81,74,1,80
,,,,,,,,,,,,,,,,,,,,,,,,,,,,,,,,,,,,,,,,,o,3.201999903,TRAO,TRUE,,,,,,,183,tren,Catalan,Sounds/cat_tren.mp3,2020-06-10_19h57.52.884,TranslationElicitation_eng-prolific,3.2.4,MacIntel,60,5d486df3beeecd0001d02647,,1,0,81,74,1,80
,,,,,,,,,,,,,,,,,,,,,,,,,,,,,,,,,,,,,,,,,n,3.28399992,TRAON,TRUE,,,,,,,183,tren,Catalan,Sounds/cat_tren.mp3,2020-06-10_19h57.52.884,TranslationElicitation_eng-prolific,3.2.4,MacIntel,60,5d486df3beeecd0001d02647,,1,0,81,74,1,80
,,,,,,,,,,,,,,,,,,,,,,,,,,,,,,,,,,,,,,,,,backspace,3.618000031,TRAO,TRUE,,,,,,,183,tren,Catalan,Sounds/cat_tren.mp3,2020-06-10_19h57.52.884,TranslationElicitation_eng-prolific,3.2.4,MacIntel,60,5d486df3beeecd0001d02647,,1,0,81,74,1,80
,,,,,,,,,,,,,,,,,,,,,,,,,,,,,,,,,,,,,,,,,backspace,3.785000086,TRA,TRUE,,,,,,,183,tren,Catalan,Sounds/cat_tren.mp3,2020-06-10_19h57.52.884,TranslationElicitation_eng-prolific,3.2.4,MacIntel,60,5d486df3beeecd0001d02647,,1,0,81,74,1,80
,,,,,,,,,,,,,,,,,,,,,,,,,,,,,,,,,,,,,,,,,i,4.134000063,TRAI,TRUE,,,,,,,183,tren,Catalan,Sounds/cat_tren.mp3,2020-06-10_19h57.52.884,TranslationElicitation_eng-prolific,3.2.4,MacIntel,60,5d486df3beeecd0001d02647,,1,0,81,74,1,80
,,,,,,,,,,,,,,,,,,,,,,,,,,,,,,,,,,,,,,,,,n,4.26699996,TRAIN,TRUE,,,,,,,183,tren,Catalan,Sounds/cat_tren.mp3,2020-06-10_19h57.52.884,TranslationElicitation_eng-prolific,3.2.4,MacIntel,60,5d486df3beeecd0001d02647,,1,0,81,74,1,80
,,,,,,,,,,,,,,,,,,,,,,,,,,,,,,,,,,,,,,,,,return,4.552000046,TRAIN,TRUE,,,,,,,183,tren,Catalan,Sounds/cat_tren.mp3,2020-06-10_19h57.52.884,TranslationElicitation_eng-prolific,3.2.4,MacIntel,60,5d486df3beeecd0001d02647,4.552000046,1,0,81,74,1,80
,,,,,,,,,,,,,,,,,,,,,,,,,,,,,,,,,,,,,,,,,,,,,,,,,,,183,tren,Catalan,Sounds/cat_tren.mp3,2020-06-10_19h57.52.884,TranslationElicitation_eng-prolific,3.2.4,MacIntel,60,5d486df3beeecd0001d02647,,1,0,81,74,1,80
,,,,,,,,,,,,,,,,,,,,,,,,,,,,,,,,,,,,,,,,,p,2.582999945,P,FALSE,,,,,,,171,pollastre,Catalan,Sounds/cat_pollastre.mp3,2020-06-10_19h57.52.884,TranslationElicitation_eng-prolific,3.2.4,MacIntel,60,5d486df3beeecd0001d02647,,1,0,81,63,1,80
,,,,,,,,,,,,,,,,,,,,,,,,,,,,,,,,,,,,,,,,,a,2.731999874,PA,FALSE,,,,,,,171,pollastre,Catalan,Sounds/cat_pollastre.mp3,2020-06-10_19h57.52.884,TranslationElicitation_eng-prolific,3.2.4,MacIntel,60,5d486df3beeecd0001d02647,,1,0,81,63,1,80
,,,,,,,,,,,,,,,,,,,,,,,,,,,,,,,,,,,,,,,,,s,2.932999849,PAS,FALSE,,,,,,,171,pollastre,Catalan,Sounds/cat_pollastre.mp3,2020-06-10_19h57.52.884,TranslationElicitation_eng-prolific,3.2.4,MacIntel,60,5d486df3beeecd0001d02647,,1,0,81,63,1,80
,,,,,,,,,,,,,,,,,,,,,,,,,,,,,,,,,,,,,,,,,t,3.049000025,PAST,FALSE,,,,,,,171,pollastre,Catalan,Sounds/cat_pollastre.mp3,2020-06-10_19h57.52.884,TranslationElicitation_eng-prolific,3.2.4,MacIntel,60,5d486df3beeecd0001d02647,,1,0,81,63,1,80
,,,,,,,,,,,,,,,,,,,,,,,,,,,,,,,,,,,,,,,,,a,3.132999897,PASTA,FALSE,,,,,,,171,pollastre,Catalan,Sounds/cat_pollastre.mp3,2020-06-10_19h57.52.884,TranslationElicitation_eng-prolific,3.2.4,MacIntel,60,5d486df3beeecd0001d02647,,1,0,81,63,1,80
,,,,,,,,,,,,,,,,,,,,,,,,,,,,,,,,,,,,,,,,,return,3.365999937,PASTA,FALSE,,,,,,,171,pollastre,Catalan,Sounds/cat_pollastre.mp3,2020-06-10_19h57.52.884,TranslationElicitation_eng-prolific,3.2.4,MacIntel,60,5d486df3beeecd0001d02647,3.365999937,1,0,81,63,1,80
,,,,,,,,,,,,,,,,,,,,,,,,,,,,,,,,,,,,,,,,,,,,,,,,,,,171,pollastre,Catalan,Sounds/cat_pollastre.mp3,2020-06-10_19h57.52.884,TranslationElicitation_eng-prolific,3.2.4,MacIntel,60,5d486df3beeecd0001d02647,,1,0,81,63,1,80
,,,,,,,,,,,,,,,,,,,,,,,,,,,,,,,,,,,,,,,,,s,4.049999952,S,FALSE,,,,,,,187,vaixell,Catalan,Sounds/cat_vaixell.mp3,2020-06-10_19h57.52.884,TranslationElicitation_eng-prolific,3.2.4,MacIntel,60,5d486df3beeecd0001d02647,,1,0,81,78,1,80
,,,,,,,,,,,,,,,,,,,,,,,,,,,,,,,,,,,,,,,,,h,4.184000015,SH,FALSE,,,,,,,187,vaixell,Catalan,Sounds/cat_vaixell.mp3,2020-06-10_19h57.52.884,TranslationElicitation_eng-prolific,3.2.4,MacIntel,60,5d486df3beeecd0001d02647,,1,0,81,78,1,80
,,,,,,,,,,,,,,,,,,,,,,,,,,,,,,,,,,,,,,,,,e,4.582999945,SHE,FALSE,,,,,,,187,vaixell,Catalan,Sounds/cat_vaixell.mp3,2020-06-10_19h57.52.884,TranslationElicitation_eng-prolific,3.2.4,MacIntel,60,5d486df3beeecd0001d02647,,1,0,81,78,1,80
,,,,,,,,,,,,,,,,,,,,,,,,,,,,,,,,,,,,,,,,,l,4.75,SHEL,FALSE,,,,,,,187,vaixell,Catalan,Sounds/cat_vaixell.mp3,2020-06-10_19h57.52.884,TranslationElicitation_eng-prolific,3.2.4,MacIntel,60,5d486df3beeecd0001d02647,,1,0,81,78,1,80
,,,,,,,,,,,,,,,,,,,,,,,,,,,,,,,,,,,,,,,,,l,4.899000168,SHELL,FALSE,,,,,,,187,vaixell,Catalan,Sounds/cat_vaixell.mp3,2020-06-10_19h57.52.884,TranslationElicitation_eng-prolific,3.2.4,MacIntel,60,5d486df3beeecd0001d02647,,1,0,81,78,1,80
,,,,,,,,,,,,,,,,,,,,,,,,,,,,,,,,,,,,,,,,,return,5.117000103,SHELL,FALSE,,,,,,,187,vaixell,Catalan,Sounds/cat_vaixell.mp3,2020-06-10_19h57.52.884,TranslationElicitation_eng-prolific,3.2.4,MacIntel,60,5d486df3beeecd0001d02647,5.117000103,1,0,81,78,1,80
,,,,,,,,,,,,,,,,,,,,,,,,,,,,,,,,,,,,,,,,,,,,,,,,,,,187,vaixell,Catalan,Sounds/cat_vaixell.mp3,2020-06-10_19h57.52.884,TranslationElicitation_eng-prolific,3.2.4,MacIntel,60,5d486df3beeecd0001d02647,,1,0,81,78,1,80
,,,,,,,,,,,,,,,,,,,,,,,,,,,,,,,,,,,,,,,,,a,2.049999952,A,FALSE,,,,,,,172,poma,Catalan,Sounds/cat_poma.mp3,2020-06-10_19h57.52.884,TranslationElicitation_eng-prolific,3.2.4,MacIntel,60,5d486df3beeecd0001d02647,,1,0,81,64,1,80
,,,,,,,,,,,,,,,,,,,,,,,,,,,,,,,,,,,,,,,,,p,2.200000048,AP,FALSE,,,,,,,172,poma,Catalan,Sounds/cat_poma.mp3,2020-06-10_19h57.52.884,TranslationElicitation_eng-prolific,3.2.4,MacIntel,60,5d486df3beeecd0001d02647,,1,0,81,64,1,80
,,,,,,,,,,,,,,,,,,,,,,,,,,,,,,,,,,,,,,,,,p,2.348999977,APP,FALSE,,,,,,,172,poma,Catalan,Sounds/cat_poma.mp3,2020-06-10_19h57.52.884,TranslationElicitation_eng-prolific,3.2.4,MacIntel,60,5d486df3beeecd0001d02647,,1,0,81,64,1,80
,,,,,,,,,,,,,,,,,,,,,,,,,,,,,,,,,,,,,,,,,l,2.5,APPL,FALSE,,,,,,,172,poma,Catalan,Sounds/cat_poma.mp3,2020-06-10_19h57.52.884,TranslationElicitation_eng-prolific,3.2.4,MacIntel,60,5d486df3beeecd0001d02647,,1,0,81,64,1,80
,,,,,,,,,,,,,,,,,,,,,,,,,,,,,,,,,,,,,,,,,e,2.566999912,APPLE,FALSE,,,,,,,172,poma,Catalan,Sounds/cat_poma.mp3,2020-06-10_19h57.52.884,TranslationElicitation_eng-prolific,3.2.4,MacIntel,60,5d486df3beeecd0001d02647,,1,0,81,64,1,80
,,,,,,,,,,,,,,,,,,,,,,,,,,,,,,,,,,,,,,,,,return,2.75,APPLE,FALSE,,,,,,,172,poma,Catalan,Sounds/cat_poma.mp3,2020-06-10_19h57.52.884,TranslationElicitation_eng-prolific,3.2.4,MacIntel,60,5d486df3beeecd0001d02647,2.75,1,0,81,64,1,80
,,,,,,,,,,,,,,,,,,,,,,,,,,,,,,,,,,,,,,,,,,,,,,,,,,,172,poma,Catalan,Sounds/cat_poma.mp3,2020-06-10_19h57.52.884,TranslationElicitation_eng-prolific,3.2.4,MacIntel,60,5d486df3beeecd0001d02647,,1,0,81,64,1,80
,,,,,,,,,,,,,,,,,,,,,,,,,,,,,,,,,,,,,,,,,f,4.317000151,F,FALSE,,,,,,,136,forquilla,Catalan,Sounds/cat_forquilla.mp3,2020-06-10_19h57.52.884,TranslationElicitation_eng-prolific,3.2.4,MacIntel,60,5d486df3beeecd0001d02647,,1,0,81,30,1,80
,,,,,,,,,,,,,,,,,,,,,,,,,,,,,,,,,,,,,,,,,o,4.416000128,FO,FALSE,,,,,,,136,forquilla,Catalan,Sounds/cat_forquilla.mp3,2020-06-10_19h57.52.884,TranslationElicitation_eng-prolific,3.2.4,MacIntel,60,5d486df3beeecd0001d02647,,1,0,81,30,1,80
,,,,,,,,,,,,,,,,,,,,,,,,,,,,,,,,,,,,,,,,,r,4.549999952,FOR,FALSE,,,,,,,136,forquilla,Catalan,Sounds/cat_forquilla.mp3,2020-06-10_19h57.52.884,TranslationElicitation_eng-prolific,3.2.4,MacIntel,60,5d486df3beeecd0001d02647,,1,0,81,30,1,80
,,,,,,,,,,,,,,,,,,,,,,,,,,,,,,,,,,,,,,,,,k,4.600000143,FORK,FALSE,,,,,,,136,forquilla,Catalan,Sounds/cat_forquilla.mp3,2020-06-10_19h57.52.884,TranslationElicitation_eng-prolific,3.2.4,MacIntel,60,5d486df3beeecd0001d02647,,1,0,81,30,1,80
,,,,,,,,,,,,,,,,,,,,,,,,,,,,,,,,,,,,,,,,,return,5.51699996,FORK,FALSE,,,,,,,136,forquilla,Catalan,Sounds/cat_forquilla.mp3,2020-06-10_19h57.52.884,TranslationElicitation_eng-prolific,3.2.4,MacIntel,60,5d486df3beeecd0001d02647,5.51699996,1,0,81,30,1,80
,,,,,,,,,,,,,,,,,,,,,,,,,,,,,,,,,,,,,,,,,,,,,,,,,,,136,forquilla,Catalan,Sounds/cat_forquilla.mp3,2020-06-10_19h57.52.884,TranslationElicitation_eng-prolific,3.2.4,MacIntel,60,5d486df3beeecd0001d02647,,1,0,81,30,1,80
,,,,,,,,,,,,,,,,,,,,,,,,,,,,,,,,,,,,,,,,,a,3.300000191,A,FALSE,,,,,,,107,amanida,Catalan,Sounds/cat_amanida.mp3,2020-06-10_19h57.52.884,TranslationElicitation_eng-prolific,3.2.4,MacIntel,60,5d486df3beeecd0001d02647,,1,0,81,3,1,80
,,,,,,,,,,,,,,,,,,,,,,,,,,,,,,,,,,,,,,,,,n,4.833000183,AN,FALSE,,,,,,,107,amanida,Catalan,Sounds/cat_amanida.mp3,2020-06-10_19h57.52.884,TranslationElicitation_eng-prolific,3.2.4,MacIntel,60,5d486df3beeecd0001d02647,,1,0,81,3,1,80
,,,,,,,,,,,,,,,,,,,,,,,,,,,,,,,,,,,,,,,,,i,4.96600008,ANI,FALSE,,,,,,,107,amanida,Catalan,Sounds/cat_amanida.mp3,2020-06-10_19h57.52.884,TranslationElicitation_eng-prolific,3.2.4,MacIntel,60,5d486df3beeecd0001d02647,,1,0,81,3,1,80
,,,,,,,,,,,,,,,,,,,,,,,,,,,,,,,,,,,,,,,,,m,5.150000095,ANIM,FALSE,,,,,,,107,amanida,Catalan,Sounds/cat_amanida.mp3,2020-06-10_19h57.52.884,TranslationElicitation_eng-prolific,3.2.4,MacIntel,60,5d486df3beeecd0001d02647,,1,0,81,3,1,80
,,,,,,,,,,,,,,,,,,,,,,,,,,,,,,,,,,,,,,,,,a,5.26699996,ANIMA,FALSE,,,,,,,107,amanida,Catalan,Sounds/cat_amanida.mp3,2020-06-10_19h57.52.884,TranslationElicitation_eng-prolific,3.2.4,MacIntel,60,5d486df3beeecd0001d02647,,1,0,81,3,1,80
,,,,,,,,,,,,,,,,,,,,,,,,,,,,,,,,,,,,,,,,,t,5.549000025,ANIMAT,FALSE,,,,,,,107,amanida,Catalan,Sounds/cat_amanida.mp3,2020-06-10_19h57.52.884,TranslationElicitation_eng-prolific,3.2.4,MacIntel,60,5d486df3beeecd0001d02647,,1,0,81,3,1,80
,,,,,,,,,,,,,,,,,,,,,,,,,,,,,,,,,,,,,,,,,e,5.76699996,ANIMATE,FALSE,,,,,,,107,amanida,Catalan,Sounds/cat_amanida.mp3,2020-06-10_19h57.52.884,TranslationElicitation_eng-prolific,3.2.4,MacIntel,60,5d486df3beeecd0001d02647,,1,0,81,3,1,80
,,,,,,,,,,,,,,,,,,,,,,,,,,,,,,,,,,,,,,,,,d,5.933000088,ANIMATED,FALSE,,,,,,,107,amanida,Catalan,Sounds/cat_amanida.mp3,2020-06-10_19h57.52.884,TranslationElicitation_eng-prolific,3.2.4,MacIntel,60,5d486df3beeecd0001d02647,,1,0,81,3,1,80
,,,,,,,,,,,,,,,,,,,,,,,,,,,,,,,,,,,,,,,,,return,6.100000143,ANIMATED,FALSE,,,,,,,107,amanida,Catalan,Sounds/cat_amanida.mp3,2020-06-10_19h57.52.884,TranslationElicitation_eng-prolific,3.2.4,MacIntel,60,5d486df3beeecd0001d02647,6.100000143,1,0,81,3,1,80
,,,,,,,,,,,,,,,,,,,,,,,,,,,,,,,,,,,,,,,,,,,,,,,,,,,107,amanida,Catalan,Sounds/cat_amanida.mp3,2020-06-10_19h57.52.884,TranslationElicitation_eng-prolific,3.2.4,MacIntel,60,5d486df3beeecd0001d02647,,1,0,81,3,1,80
,,,,,,,,,,,,,,,,,,,,,,,,,,,,,,,,,,,,,,,,,p,5.116999865,P,FALSE,,,,,,,162,pa,Catalan,Sounds/cat_pa.mp3,2020-06-10_19h57.52.884,TranslationElicitation_eng-prolific,3.2.4,MacIntel,60,5d486df3beeecd0001d02647,,1,0,81,54,1,80
,,,,,,,,,,,,,,,,,,,,,,,,,,,,,,,,,,,,,,,,,a,5.700000048,PA,FALSE,,,,,,,162,pa,Catalan,Sounds/cat_pa.mp3,2020-06-10_19h57.52.884,TranslationElicitation_eng-prolific,3.2.4,MacIntel,60,5d486df3beeecd0001d02647,,1,0,81,54,1,80
,,,,,,,,,,,,,,,,,,,,,,,,,,,,,,,,,,,,,,,,,r,6.250999928,PAR,FALSE,,,,,,,162,pa,Catalan,Sounds/cat_pa.mp3,2020-06-10_19h57.52.884,TranslationElicitation_eng-prolific,3.2.4,MacIntel,60,5d486df3beeecd0001d02647,,1,0,81,54,1,80
,,,,,,,,,,,,,,,,,,,,,,,,,,,,,,,,,,,,,,,,,t,6.434000015,PART,FALSE,,,,,,,162,pa,Catalan,Sounds/cat_pa.mp3,2020-06-10_19h57.52.884,TranslationElicitation_eng-prolific,3.2.4,MacIntel,60,5d486df3beeecd0001d02647,,1,0,81,54,1,80
,,,,,,,,,,,,,,,,,,,,,,,,,,,,,,,,,,,,,,,,,return,6.733999968,PART,FALSE,,,,,,,162,pa,Catalan,Sounds/cat_pa.mp3,2020-06-10_19h57.52.884,TranslationElicitation_eng-prolific,3.2.4,MacIntel,60,5d486df3beeecd0001d02647,6.733999968,1,0,81,54,1,80
,,,,,,,,,,,,,,,,,,,,,,,,,,,,,,,,,,,,,,,,,,,,,,,,,,,162,pa,Catalan,Sounds/cat_pa.mp3,2020-06-10_19h57.52.884,TranslationElicitation_eng-prolific,3.2.4,MacIntel,60,5d486df3beeecd0001d02647,,1,0,81,54,1,80
,,,,,,,,,,,,,,,,,,,,,,,,,,,,,,,,,,,,,,,,,c,1.48300004,C,FALSE,,,,,,,119,caixa,Catalan,Sounds/cat_caixa.mp3,2020-06-10_19h57.52.884,TranslationElicitation_eng-prolific,3.2.4,MacIntel,60,5d486df3beeecd0001d02647,,1,0,81,14,1,80
,,,,,,,,,,,,,,,,,,,,,,,,,,,,,,,,,,,,,,,,,a,1.700000048,CA,FALSE,,,,,,,119,caixa,Catalan,Sounds/cat_caixa.mp3,2020-06-10_19h57.52.884,TranslationElicitation_eng-prolific,3.2.4,MacIntel,60,5d486df3beeecd0001d02647,,1,0,81,14,1,80
,,,,,,,,,,,,,,,,,,,,,,,,,,,,,,,,,,,,,,,,,s,1.883000135,CAS,FALSE,,,,,,,119,caixa,Catalan,Sounds/cat_caixa.mp3,2020-06-10_19h57.52.884,TranslationElicitation_eng-prolific,3.2.4,MacIntel,60,5d486df3beeecd0001d02647,,1,0,81,14,1,80
,,,,,,,,,,,,,,,,,,,,,,,,,,,,,,,,,,,,,,,,,h,1.982000113,CASH,FALSE,,,,,,,119,caixa,Catalan,Sounds/cat_caixa.mp3,2020-06-10_19h57.52.884,TranslationElicitation_eng-prolific,3.2.4,MacIntel,60,5d486df3beeecd0001d02647,,1,0,81,14,1,80
,,,,,,,,,,,,,,,,,,,,,,,,,,,,,,,,,,,,,,,,,return,2.348999977,CASH,FALSE,,,,,,,119,caixa,Catalan,Sounds/cat_caixa.mp3,2020-06-10_19h57.52.884,TranslationElicitation_eng-prolific,3.2.4,MacIntel,60,5d486df3beeecd0001d02647,2.348999977,1,0,81,14,1,80
,,,,,,,,,,,,,,,,,,,,,,,,,,,,,,,,,,,,,,,,,,,,,,,,,,,119,caixa,Catalan,Sounds/cat_caixa.mp3,2020-06-10_19h57.52.884,TranslationElicitation_eng-prolific,3.2.4,MacIntel,60,5d486df3beeecd0001d02647,,1,0,81,14,1,80
,,,,,,,,,,,,,,,,,,,,,,,,,,,,,,,,,,,,,,,,,c,2.983999968,C,FALSE,,,,,,,143,globus,Catalan,Sounds/cat_globus.mp3,2020-06-10_19h57.52.884,TranslationElicitation_eng-prolific,3.2.4,MacIntel,60,5d486df3beeecd0001d02647,,1,0,81,37,1,80
,,,,,,,,,,,,,,,,,,,,,,,,,,,,,,,,,,,,,,,,,l,3.067000151,CL,FALSE,,,,,,,143,globus,Catalan,Sounds/cat_globus.mp3,2020-06-10_19h57.52.884,TranslationElicitation_eng-prolific,3.2.4,MacIntel,60,5d486df3beeecd0001d02647,,1,0,81,37,1,80
,,,,,,,,,,,,,,,,,,,,,,,,,,,,,,,,,,,,,,,,,o,3.251000166,CLO,FALSE,,,,,,,143,globus,Catalan,Sounds/cat_globus.mp3,2020-06-10_19h57.52.884,TranslationElicitation_eng-prolific,3.2.4,MacIntel,60,5d486df3beeecd0001d02647,,1,0,81,37,1,80
,,,,,,,,,,,,,,,,,,,,,,,,,,,,,,,,,,,,,,,,,t,3.351000071,CLOT,FALSE,,,,,,,143,globus,Catalan,Sounds/cat_globus.mp3,2020-06-10_19h57.52.884,TranslationElicitation_eng-prolific,3.2.4,MacIntel,60,5d486df3beeecd0001d02647,,1,0,81,37,1,80
,,,,,,,,,,,,,,,,,,,,,,,,,,,,,,,,,,,,,,,,,h,3.450000048,CLOTH,FALSE,,,,,,,143,globus,Catalan,Sounds/cat_globus.mp3,2020-06-10_19h57.52.884,TranslationElicitation_eng-prolific,3.2.4,MacIntel,60,5d486df3beeecd0001d02647,,1,0,81,37,1,80
,,,,,,,,,,,,,,,,,,,,,,,,,,,,,,,,,,,,,,,,,e,3.584000111,CLOTHE,FALSE,,,,,,,143,globus,Catalan,Sounds/cat_globus.mp3,2020-06-10_19h57.52.884,TranslationElicitation_eng-prolific,3.2.4,MacIntel,60,5d486df3beeecd0001d02647,,1,0,81,37,1,80
,,,,,,,,,,,,,,,,,,,,,,,,,,,,,,,,,,,,,,,,,s,4.301000118,CLOTHES,FALSE,,,,,,,143,globus,Catalan,Sounds/cat_globus.mp3,2020-06-10_19h57.52.884,TranslationElicitation_eng-prolific,3.2.4,MacIntel,60,5d486df3beeecd0001d02647,,1,0,81,37,1,80
,,,,,,,,,,,,,,,,,,,,,,,,,,,,,,,,,,,,,,,,,return,4.717000008,CLOTHES,FALSE,,,,,,,143,globus,Catalan,Sounds/cat_globus.mp3,2020-06-10_19h57.52.884,TranslationElicitation_eng-prolific,3.2.4,MacIntel,60,5d486df3beeecd0001d02647,4.717000008,1,0,81,37,1,80
,,,,,,,,,,,,,,,,,,,,,,,,,,,,,,,,,,,,,,,,,,,,,,,,,,,143,globus,Catalan,Sounds/cat_globus.mp3,2020-06-10_19h57.52.884,TranslationElicitation_eng-prolific,3.2.4,MacIntel,60,5d486df3beeecd0001d02647,,1,0,81,37,1,80
,,,,,,,,,,,,,,,,,,,,,,,,,,,,,,,,,,,,,,,,,s,1.532000065,S,FALSE,,,,,,,178,taronja,Catalan,Sounds/cat_taronja.mp3,2020-06-10_19h57.52.884,TranslationElicitation_eng-prolific,3.2.4,MacIntel,60,5d486df3beeecd0001d02647,,1,0,81,70,1,80
,,,,,,,,,,,,,,,,,,,,,,,,,,,,,,,,,,,,,,,,,t,1.682999849,ST,FALSE,,,,,,,178,taronja,Catalan,Sounds/cat_taronja.mp3,2020-06-10_19h57.52.884,TranslationElicitation_eng-prolific,3.2.4,MacIntel,60,5d486df3beeecd0001d02647,,1,0,81,70,1,80
,,,,,,,,,,,,,,,,,,,,,,,,,,,,,,,,,,,,,,,,,r,1.815999985,STR,FALSE,,,,,,,178,taronja,Catalan,Sounds/cat_taronja.mp3,2020-06-10_19h57.52.884,TranslationElicitation_eng-prolific,3.2.4,MacIntel,60,5d486df3beeecd0001d02647,,1,0,81,70,1,80
,,,,,,,,,,,,,,,,,,,,,,,,,,,,,,,,,,,,,,,,,a,2.032999992,STRA,FALSE,,,,,,,178,taronja,Catalan,Sounds/cat_taronja.mp3,2020-06-10_19h57.52.884,TranslationElicitation_eng-prolific,3.2.4,MacIntel,60,5d486df3beeecd0001d02647,,1,0,81,70,1,80
,,,,,,,,,,,,,,,,,,,,,,,,,,,,,,,,,,,,,,,,,n,2.148999929,STRAN,FALSE,,,,,,,178,taronja,Catalan,Sounds/cat_taronja.mp3,2020-06-10_19h57.52.884,TranslationElicitation_eng-prolific,3.2.4,MacIntel,60,5d486df3beeecd0001d02647,,1,0,81,70,1,80
,,,,,,,,,,,,,,,,,,,,,,,,,,,,,,,,,,,,,,,,,g,2.299000025,STRANG,FALSE,,,,,,,178,taronja,Catalan,Sounds/cat_taronja.mp3,2020-06-10_19h57.52.884,TranslationElicitation_eng-prolific,3.2.4,MacIntel,60,5d486df3beeecd0001d02647,,1,0,81,70,1,80
,,,,,,,,,,,,,,,,,,,,,,,,,,,,,,,,,,,,,,,,,e,2.48300004,STRANGE,FALSE,,,,,,,178,taronja,Catalan,Sounds/cat_taronja.mp3,2020-06-10_19h57.52.884,TranslationElicitation_eng-prolific,3.2.4,MacIntel,60,5d486df3beeecd0001d02647,,1,0,81,70,1,80
,,,,,,,,,,,,,,,,,,,,,,,,,,,,,,,,,,,,,,,,,r,2.664999962,STRANGER,FALSE,,,,,,,178,taronja,Catalan,Sounds/cat_taronja.mp3,2020-06-10_19h57.52.884,TranslationElicitation_eng-prolific,3.2.4,MacIntel,60,5d486df3beeecd0001d02647,,1,0,81,70,1,80
,,,,,,,,,,,,,,,,,,,,,,,,,,,,,,,,,,,,,,,,,return,2.764999866,STRANGER,FALSE,,,,,,,178,taronja,Catalan,Sounds/cat_taronja.mp3,2020-06-10_19h57.52.884,TranslationElicitation_eng-prolific,3.2.4,MacIntel,60,5d486df3beeecd0001d02647,2.764999866,1,0,81,70,1,80
,,,,,,,,,,,,,,,,,,,,,,,,,,,,,,,,,,,,,,,,,,,,,,,,,,,178,taronja,Catalan,Sounds/cat_taronja.mp3,2020-06-10_19h57.52.884,TranslationElicitation_eng-prolific,3.2.4,MacIntel,60,5d486df3beeecd0001d02647,,1,0,81,70,1,80
,,,,,,,,,,,,,,,,,,,,,,,,,,,,,,,,,,,,,,,,,c,2.249000072,C,FALSE,,,,,,,127,cotxe,Catalan,Sounds/cat_cotxe.mp3,2020-06-10_19h57.52.884,TranslationElicitation_eng-prolific,3.2.4,MacIntel,60,5d486df3beeecd0001d02647,,1,0,81,21,1,80
,,,,,,,,,,,,,,,,,,,,,,,,,,,,,,,,,,,,,,,,,o,2.365999937,CO,FALSE,,,,,,,127,cotxe,Catalan,Sounds/cat_cotxe.mp3,2020-06-10_19h57.52.884,TranslationElicitation_eng-prolific,3.2.4,MacIntel,60,5d486df3beeecd0001d02647,,1,0,81,21,1,80
,,,,,,,,,,,,,,,,,,,,,,,,,,,,,,,,,,,,,,,,,t,2.515000105,COT,FALSE,,,,,,,127,cotxe,Catalan,Sounds/cat_cotxe.mp3,2020-06-10_19h57.52.884,TranslationElicitation_eng-prolific,3.2.4,MacIntel,60,5d486df3beeecd0001d02647,,1,0,81,21,1,80
,,,,,,,,,,,,,,,,,,,,,,,,,,,,,,,,,,,,,,,,,return,2.799999952,COT,FALSE,,,,,,,127,cotxe,Catalan,Sounds/cat_cotxe.mp3,2020-06-10_19h57.52.884,TranslationElicitation_eng-prolific,3.2.4,MacIntel,60,5d486df3beeecd0001d02647,2.799999952,1,0,81,21,1,80
,,,,,,,,,,,,,,,,,,,,,,,,,,,,,,,,,,,,,,,,,,,,,,,,,,,127,cotxe,Catalan,Sounds/cat_cotxe.mp3,2020-06-10_19h57.52.884,TranslationElicitation_eng-prolific,3.2.4,MacIntel,60,5d486df3beeecd0001d02647,,1,0,81,21,1,80
,,,,,,,,,,,,,,,,,,,,,,,,,,,,,,,,,,,,,,,,,g,1.967000008,G,FALSE,,,,,,,145,got,Catalan,Sounds/cat_got.mp3,2020-06-10_19h57.52.884,TranslationElicitation_eng-prolific,3.2.4,MacIntel,60,5d486df3beeecd0001d02647,,1,0,81,39,1,80
,,,,,,,,,,,,,,,,,,,,,,,,,,,,,,,,,,,,,,,,,o,2.049000025,GO,FALSE,,,,,,,145,got,Catalan,Sounds/cat_got.mp3,2020-06-10_19h57.52.884,TranslationElicitation_eng-prolific,3.2.4,MacIntel,60,5d486df3beeecd0001d02647,,1,0,81,39,1,80
,,,,,,,,,,,,,,,,,,,,,,,,,,,,,,,,,,,,,,,,,d,2.217000008,GOD,FALSE,,,,,,,145,got,Catalan,Sounds/cat_got.mp3,2020-06-10_19h57.52.884,TranslationElicitation_eng-prolific,3.2.4,MacIntel,60,5d486df3beeecd0001d02647,,1,0,81,39,1,80
,,,,,,,,,,,,,,,,,,,,,,,,,,,,,,,,,,,,,,,,,return,2.433000088,GOD,FALSE,,,,,,,145,got,Catalan,Sounds/cat_got.mp3,2020-06-10_19h57.52.884,TranslationElicitation_eng-prolific,3.2.4,MacIntel,60,5d486df3beeecd0001d02647,2.433000088,1,0,81,39,1,80
,,,,,,,,,,,,,,,,,,,,,,,,,,,,,,,,,,,,,,,,,,,,,,,,,,,145,got,Catalan,Sounds/cat_got.mp3,2020-06-10_19h57.52.884,TranslationElicitation_eng-prolific,3.2.4,MacIntel,60,5d486df3beeecd0001d02647,,1,0,81,39,1,80
,,,,,,,,,,,,,,,,,,,,,,,,,,,,,,,,,,,,,,,,,y,5.682999849,Y,FALSE,,,,,,,150,lloro,Catalan,Sounds/cat_lloro.mp3,2020-06-10_19h57.52.884,TranslationElicitation_eng-prolific,3.2.4,MacIntel,60,5d486df3beeecd0001d02647,,1,0,81,43,1,80
,,,,,,,,,,,,,,,,,,,,,,,,,,,,,,,,,,,,,,,,,a,5.767999887,YA,FALSE,,,,,,,150,lloro,Catalan,Sounds/cat_lloro.mp3,2020-06-10_19h57.52.884,TranslationElicitation_eng-prolific,3.2.4,MacIntel,60,5d486df3beeecd0001d02647,,1,0,81,43,1,80
,,,,,,,,,,,,,,,,,,,,,,,,,,,,,,,,,,,,,,,,,r,6.01699996,YAR,FALSE,,,,,,,150,lloro,Catalan,Sounds/cat_lloro.mp3,2020-06-10_19h57.52.884,TranslationElicitation_eng-prolific,3.2.4,MacIntel,60,5d486df3beeecd0001d02647,,1,0,81,43,1,80
,,,,,,,,,,,,,,,,,,,,,,,,,,,,,,,,,,,,,,,,,d,6.217000008,YARD,FALSE,,,,,,,150,lloro,Catalan,Sounds/cat_lloro.mp3,2020-06-10_19h57.52.884,TranslationElicitation_eng-prolific,3.2.4,MacIntel,60,5d486df3beeecd0001d02647,,1,0,81,43,1,80
,,,,,,,,,,,,,,,,,,,,,,,,,,,,,,,,,,,,,,,,,return,6.366999865,YARD,FALSE,,,,,,,150,lloro,Catalan,Sounds/cat_lloro.mp3,2020-06-10_19h57.52.884,TranslationElicitation_eng-prolific,3.2.4,MacIntel,60,5d486df3beeecd0001d02647,6.366999865,1,0,81,43,1,80
,,,,,,,,,,,,,,,,,,,,,,,,,,,,,,,,,,,,,,,,,,,,,,,,,,,150,lloro,Catalan,Sounds/cat_lloro.mp3,2020-06-10_19h57.52.884,TranslationElicitation_eng-prolific,3.2.4,MacIntel,60,5d486df3beeecd0001d02647,,1,0,81,43,1,80
,,,,,,,,,,,,,,,,,,,,,,,,,,,,,,,,,,,,,,,,,w,3.018000126,W,FALSE,,,,,,,115,bolet,Catalan,Sounds/cat_bolet.mp3,2020-06-10_19h57.52.884,TranslationElicitation_eng-prolific,3.2.4,MacIntel,60,5d486df3beeecd0001d02647,,1,0,81,10,1,80
,,,,,,,,,,,,,,,,,,,,,,,,,,,,,,,,,,,,,,,,,q,3.218000174,WQ,FALSE,,,,,,,115,bolet,Catalan,Sounds/cat_bolet.mp3,2020-06-10_19h57.52.884,TranslationElicitation_eng-prolific,3.2.4,MacIntel,60,5d486df3beeecd0001d02647,,1,0,81,10,1,80
,,,,,,,,,,,,,,,,,,,,,,,,,,,,,,,,,,,,,,,,,a,3.301000118,WQA,FALSE,,,,,,,115,bolet,Catalan,Sounds/cat_bolet.mp3,2020-06-10_19h57.52.884,TranslationElicitation_eng-prolific,3.2.4,MacIntel,60,5d486df3beeecd0001d02647,,1,0,81,10,1,80
,,,,,,,,,,,,,,,,,,,,,,,,,,,,,,,,,,,,,,,,,backspace,3.700999975,WQ,TRUE,,,,,,,115,bolet,Catalan,Sounds/cat_bolet.mp3,2020-06-10_19h57.52.884,TranslationElicitation_eng-prolific,3.2.4,MacIntel,60,5d486df3beeecd0001d02647,,1,0,81,10,1,80
,,,,,,,,,,,,,,,,,,,,,,,,,,,,,,,,,,,,,,,,,backspace,3.868000031,W,TRUE,,,,,,,115,bolet,Catalan,Sounds/cat_bolet.mp3,2020-06-10_19h57.52.884,TranslationElicitation_eng-prolific,3.2.4,MacIntel,60,5d486df3beeecd0001d02647,,1,0,81,10,1,80
,,,,,,,,,,,,,,,,,,,,,,,,,,,,,,,,,,,,,,,,,a,4.001000166,WA,TRUE,,,,,,,115,bolet,Catalan,Sounds/cat_bolet.mp3,2020-06-10_19h57.52.884,TranslationElicitation_eng-prolific,3.2.4,MacIntel,60,5d486df3beeecd0001d02647,,1,0,81,10,1,80
,,,,,,,,,,,,,,,,,,,,,,,,,,,,,,,,,,,,,,,,,l,4.150000095,WAL,TRUE,,,,,,,115,bolet,Catalan,Sounds/cat_bolet.mp3,2020-06-10_19h57.52.884,TranslationElicitation_eng-prolific,3.2.4,MacIntel,60,5d486df3beeecd0001d02647,,1,0,81,10,1,80
,,,,,,,,,,,,,,,,,,,,,,,,,,,,,,,,,,,,,,,,,l,4.301000118,WALL,TRUE,,,,,,,115,bolet,Catalan,Sounds/cat_bolet.mp3,2020-06-10_19h57.52.884,TranslationElicitation_eng-prolific,3.2.4,MacIntel,60,5d486df3beeecd0001d02647,,1,0,81,10,1,80
,,,,,,,,,,,,,,,,,,,,,,,,,,,,,,,,,,,,,,,,,e,4.450000048,WALLE,TRUE,,,,,,,115,bolet,Catalan,Sounds/cat_bolet.mp3,2020-06-10_19h57.52.884,TranslationElicitation_eng-prolific,3.2.4,MacIntel,60,5d486df3beeecd0001d02647,,1,0,81,10,1,80
,,,,,,,,,,,,,,,,,,,,,,,,,,,,,,,,,,,,,,,,,t,4.667000055,WALLET,TRUE,,,,,,,115,bolet,Catalan,Sounds/cat_bolet.mp3,2020-06-10_19h57.52.884,TranslationElicitation_eng-prolific,3.2.4,MacIntel,60,5d486df3beeecd0001d02647,,1,0,81,10,1,80
,,,,,,,,,,,,,,,,,,,,,,,,,,,,,,,,,,,,,,,,,return,4.934000015,WALLET,TRUE,,,,,,,115,bolet,Catalan,Sounds/cat_bolet.mp3,2020-06-10_19h57.52.884,TranslationElicitation_eng-prolific,3.2.4,MacIntel,60,5d486df3beeecd0001d02647,4.934000015,1,0,81,10,1,80
,,,,,,,,,,,,,,,,,,,,,,,,,,,,,,,,,,,,,,,,,,,,,,,,,,,115,bolet,Catalan,Sounds/cat_bolet.mp3,2020-06-10_19h57.52.884,TranslationElicitation_eng-prolific,3.2.4,MacIntel,60,5d486df3beeecd0001d02647,,1,0,81,10,1,80
,,,,,,,,,,,,,,,,,,,,,,,,,,,,,,,,,,,,,,,,,p,2.731999874,P,FALSE,,,,,,,163,papallona,Catalan,Sounds/cat_papallona.mp3,2020-06-10_19h57.52.884,TranslationElicitation_eng-prolific,3.2.4,MacIntel,60,5d486df3beeecd0001d02647,,1,0,81,55,1,80
,,,,,,,,,,,,,,,,,,,,,,,,,,,,,,,,,,,,,,,,,p,2.865999937,PP,FALSE,,,,,,,163,papallona,Catalan,Sounds/cat_papallona.mp3,2020-06-10_19h57.52.884,TranslationElicitation_eng-prolific,3.2.4,MacIntel,60,5d486df3beeecd0001d02647,,1,0,81,55,1,80
,,,,,,,,,,,,,,,,,,,,,,,,,,,,,,,,,,,,,,,,,a,2.982999802,PPA,FALSE,,,,,,,163,papallona,Catalan,Sounds/cat_papallona.mp3,2020-06-10_19h57.52.884,TranslationElicitation_eng-prolific,3.2.4,MacIntel,60,5d486df3beeecd0001d02647,,1,0,81,55,1,80
,,,,,,,,,,,,,,,,,,,,,,,,,,,,,,,,,,,,,,,,,backspace,3.315999985,PP,TRUE,,,,,,,163,papallona,Catalan,Sounds/cat_papallona.mp3,2020-06-10_19h57.52.884,TranslationElicitation_eng-prolific,3.2.4,MacIntel,60,5d486df3beeecd0001d02647,,1,0,81,55,1,80
,,,,,,,,,,,,,,,,,,,,,,,,,,,,,,,,,,,,,,,,,backspace,3.482999802,P,TRUE,,,,,,,163,papallona,Catalan,Sounds/cat_papallona.mp3,2020-06-10_19h57.52.884,TranslationElicitation_eng-prolific,3.2.4,MacIntel,60,5d486df3beeecd0001d02647,,1,0,81,55,1,80
,,,,,,,,,,,,,,,,,,,,,,,,,,,,,,,,,,,,,,,,,a,3.616999865,PA,TRUE,,,,,,,163,papallona,Catalan,Sounds/cat_papallona.mp3,2020-06-10_19h57.52.884,TranslationElicitation_eng-prolific,3.2.4,MacIntel,60,5d486df3beeecd0001d02647,,1,0,81,55,1,80
,,,,,,,,,,,,,,,,,,,,,,,,,,,,,,,,,,,,,,,,,o,4.467000008,PAO,TRUE,,,,,,,163,papallona,Catalan,Sounds/cat_papallona.mp3,2020-06-10_19h57.52.884,TranslationElicitation_eng-prolific,3.2.4,MacIntel,60,5d486df3beeecd0001d02647,,1,0,81,55,1,80
,,,,,,,,,,,,,,,,,,,,,,,,,,,,,,,,,,,,,,,,,a,4.582999945,PAOA,TRUE,,,,,,,163,papallona,Catalan,Sounds/cat_papallona.mp3,2020-06-10_19h57.52.884,TranslationElicitation_eng-prolific,3.2.4,MacIntel,60,5d486df3beeecd0001d02647,,1,0,81,55,1,80
,,,,,,,,,,,,,,,,,,,,,,,,,,,,,,,,,,,,,,,,,y,4.732999802,PAOAY,TRUE,,,,,,,163,papallona,Catalan,Sounds/cat_papallona.mp3,2020-06-10_19h57.52.884,TranslationElicitation_eng-prolific,3.2.4,MacIntel,60,5d486df3beeecd0001d02647,,1,0,81,55,1,80
,,,,,,,,,,,,,,,,,,,,,,,,,,,,,,,,,,,,,,,,,backspace,5.065999985,PAOA,TRUE,,,,,,,163,papallona,Catalan,Sounds/cat_papallona.mp3,2020-06-10_19h57.52.884,TranslationElicitation_eng-prolific,3.2.4,MacIntel,60,5d486df3beeecd0001d02647,,1,0,81,55,1,80
,,,,,,,,,,,,,,,,,,,,,,,,,,,,,,,,,,,,,,,,,backspace,5.217000008,PAO,TRUE,,,,,,,163,papallona,Catalan,Sounds/cat_papallona.mp3,2020-06-10_19h57.52.884,TranslationElicitation_eng-prolific,3.2.4,MacIntel,60,5d486df3beeecd0001d02647,,1,0,81,55,1,80
,,,,,,,,,,,,,,,,,,,,,,,,,,,,,,,,,,,,,,,,,backspace,5.383999825,PA,TRUE,,,,,,,163,papallona,Catalan,Sounds/cat_papallona.mp3,2020-06-10_19h57.52.884,TranslationElicitation_eng-prolific,3.2.4,MacIntel,60,5d486df3beeecd0001d02647,,1,0,81,55,1,80
,,,,,,,,,,,,,,,,,,,,,,,,,,,,,,,,,,,,,,,,,p,5.866999865,PAP,TRUE,,,,,,,163,papallona,Catalan,Sounds/cat_papallona.mp3,2020-06-10_19h57.52.884,TranslationElicitation_eng-prolific,3.2.4,MacIntel,60,5d486df3beeecd0001d02647,,1,0,81,55,1,80
,,,,,,,,,,,,,,,,,,,,,,,,,,,,,,,,,,,,,,,,,a,6.01699996,PAPA,TRUE,,,,,,,163,papallona,Catalan,Sounds/cat_papallona.mp3,2020-06-10_19h57.52.884,TranslationElicitation_eng-prolific,3.2.4,MacIntel,60,5d486df3beeecd0001d02647,,1,0,81,55,1,80
,,,,,,,,,,,,,,,,,,,,,,,,,,,,,,,,,,,,,,,,,y,6.165999889,PAPAY,TRUE,,,,,,,163,papallona,Catalan,Sounds/cat_papallona.mp3,2020-06-10_19h57.52.884,TranslationElicitation_eng-prolific,3.2.4,MacIntel,60,5d486df3beeecd0001d02647,,1,0,81,55,1,80
,,,,,,,,,,,,,,,,,,,,,,,,,,,,,,,,,,,,,,,,,a,6.232999802,PAPAYA,TRUE,,,,,,,163,papallona,Catalan,Sounds/cat_papallona.mp3,2020-06-10_19h57.52.884,TranslationElicitation_eng-prolific,3.2.4,MacIntel,60,5d486df3beeecd0001d02647,,1,0,81,55,1,80
,,,,,,,,,,,,,,,,,,,,,,,,,,,,,,,,,,,,,,,,,return,6.682999849,PAPAYA,TRUE,,,,,,,163,papallona,Catalan,Sounds/cat_papallona.mp3,2020-06-10_19h57.52.884,TranslationElicitation_eng-prolific,3.2.4,MacIntel,60,5d486df3beeecd0001d02647,6.682999849,1,0,81,55,1,80
,,,,,,,,,,,,,,,,,,,,,,,,,,,,,,,,,,,,,,,,,,,,,,,,,,,163,papallona,Catalan,Sounds/cat_papallona.mp3,2020-06-10_19h57.52.884,TranslationElicitation_eng-prolific,3.2.4,MacIntel,60,5d486df3beeecd0001d02647,,1,0,81,55,1,80
,,,,,,,,,,,,,,,,,,,,,,,,,,,,,,,,,,,,,,,,,p,6.898999929,P,FALSE,,,,,,,185,ulleres,Catalan,Sounds/cat_ulleres.mp3,2020-06-10_19h57.52.884,TranslationElicitation_eng-prolific,3.2.4,MacIntel,60,5d486df3beeecd0001d02647,,1,0,81,76,1,80
,,,,,,,,,,,,,,,,,,,,,,,,,,,,,,,,,,,,,,,,,e,7.01699996,PE,FALSE,,,,,,,185,ulleres,Catalan,Sounds/cat_ulleres.mp3,2020-06-10_19h57.52.884,TranslationElicitation_eng-prolific,3.2.4,MacIntel,60,5d486df3beeecd0001d02647,,1,0,81,76,1,80
,,,,,,,,,,,,,,,,,,,,,,,,,,,,,,,,,,,,,,,,,backspace,7.316999912,P,TRUE,,,,,,,185,ulleres,Catalan,Sounds/cat_ulleres.mp3,2020-06-10_19h57.52.884,TranslationElicitation_eng-prolific,3.2.4,MacIntel,60,5d486df3beeecd0001d02647,,1,0,81,76,1,80
,,,,,,,,,,,,,,,,,,,,,,,,,,,,,,,,,,,,,,,,,backspace,7.465999842,,TRUE,,,,,,,185,ulleres,Catalan,Sounds/cat_ulleres.mp3,2020-06-10_19h57.52.884,TranslationElicitation_eng-prolific,3.2.4,MacIntel,60,5d486df3beeecd0001d02647,,1,0,81,76,1,80
,,,,,,,,,,,,,,,,,,,,,,,,,,,,,,,,,,,,,,,,,l,7.699999809,L,TRUE,,,,,,,185,ulleres,Catalan,Sounds/cat_ulleres.mp3,2020-06-10_19h57.52.884,TranslationElicitation_eng-prolific,3.2.4,MacIntel,60,5d486df3beeecd0001d02647,,1,0,81,76,1,80
,,,,,,,,,,,,,,,,,,,,,,,,,,,,,,,,,,,,,,,,,e,7.798999786,LE,TRUE,,,,,,,185,ulleres,Catalan,Sounds/cat_ulleres.mp3,2020-06-10_19h57.52.884,TranslationElicitation_eng-prolific,3.2.4,MacIntel,60,5d486df3beeecd0001d02647,,1,0,81,76,1,80
,,,,,,,,,,,,,,,,,,,,,,,,,,,,,,,,,,,,,,,,,h,7.967000008,LEH,TRUE,,,,,,,185,ulleres,Catalan,Sounds/cat_ulleres.mp3,2020-06-10_19h57.52.884,TranslationElicitation_eng-prolific,3.2.4,MacIntel,60,5d486df3beeecd0001d02647,,1,0,81,76,1,80
,,,,,,,,,,,,,,,,,,,,,,,,,,,,,,,,,,,,,,,,,s,8.083999872,LEHS,TRUE,,,,,,,185,ulleres,Catalan,Sounds/cat_ulleres.mp3,2020-06-10_19h57.52.884,TranslationElicitation_eng-prolific,3.2.4,MacIntel,60,5d486df3beeecd0001d02647,,1,0,81,76,1,80
,,,,,,,,,,,,,,,,,,,,,,,,,,,,,,,,,,,,,,,,,backspace,8.448999882,LEH,TRUE,,,,,,,185,ulleres,Catalan,Sounds/cat_ulleres.mp3,2020-06-10_19h57.52.884,TranslationElicitation_eng-prolific,3.2.4,MacIntel,60,5d486df3beeecd0001d02647,,1,0,81,76,1,80
,,,,,,,,,,,,,,,,,,,,,,,,,,,,,,,,,,,,,,,,,backspace,8.616999865,LE,TRUE,,,,,,,185,ulleres,Catalan,Sounds/cat_ulleres.mp3,2020-06-10_19h57.52.884,TranslationElicitation_eng-prolific,3.2.4,MacIntel,60,5d486df3beeecd0001d02647,,1,0,81,76,1,80
,,,,,,,,,,,,,,,,,,,,,,,,,,,,,,,,,,,,,,,,,g,9.383999825,LEG,TRUE,,,,,,,185,ulleres,Catalan,Sounds/cat_ulleres.mp3,2020-06-10_19h57.52.884,TranslationElicitation_eng-prolific,3.2.4,MacIntel,60,5d486df3beeecd0001d02647,,1,0,81,76,1,80
,,,,,,,,,,,,,,,,,,,,,,,,,,,,,,,,,,,,,,,,,s,9.53399992,LEGS,TRUE,,,,,,,185,ulleres,Catalan,Sounds/cat_ulleres.mp3,2020-06-10_19h57.52.884,TranslationElicitation_eng-prolific,3.2.4,MacIntel,60,5d486df3beeecd0001d02647,,1,0,81,76,1,80
,,,,,,,,,,,,,,,,,,,,,,,,,,,,,,,,,,,,,,,,,return,9.816999912,LEGS,TRUE,,,,,,,185,ulleres,Catalan,Sounds/cat_ulleres.mp3,2020-06-10_19h57.52.884,TranslationElicitation_eng-prolific,3.2.4,MacIntel,60,5d486df3beeecd0001d02647,9.816999912,1,0,81,76,1,80
,,,,,,,,,,,,,,,,,,,,,,,,,,,,,,,,,,,,,,,,,,,,,,,,,,,185,ulleres,Catalan,Sounds/cat_ulleres.mp3,2020-06-10_19h57.52.884,TranslationElicitation_eng-prolific,3.2.4,MacIntel,60,5d486df3beeecd0001d02647,,1,0,81,76,1,80
,,,,,,,,,,,,,,,,,,,,,,,,,,,,,,,,,,,,,,,,,b,3.384000063,B,FALSE,,,,,,,118,bou,Catalan,Sounds/cat_bou.mp3,2020-06-10_19h57.52.884,TranslationElicitation_eng-prolific,3.2.4,MacIntel,60,5d486df3beeecd0001d02647,,1,0,81,13,1,80
,,,,,,,,,,,,,,,,,,,,,,,,,,,,,,,,,,,,,,,,,o,3.450999975,BO,FALSE,,,,,,,118,bou,Catalan,Sounds/cat_bou.mp3,2020-06-10_19h57.52.884,TranslationElicitation_eng-prolific,3.2.4,MacIntel,60,5d486df3beeecd0001d02647,,1,0,81,13,1,80
,,,,,,,,,,,,,,,,,,,,,,,,,,,,,,,,,,,,,,,,,w,3.532999992,BOW,FALSE,,,,,,,118,bou,Catalan,Sounds/cat_bou.mp3,2020-06-10_19h57.52.884,TranslationElicitation_eng-prolific,3.2.4,MacIntel,60,5d486df3beeecd0001d02647,,1,0,81,13,1,80
,,,,,,,,,,,,,,,,,,,,,,,,,,,,,,,,,,,,,,,,,space,3.700999975,BOW ,FALSE,,,,,,,118,bou,Catalan,Sounds/cat_bou.mp3,2020-06-10_19h57.52.884,TranslationElicitation_eng-prolific,3.2.4,MacIntel,60,5d486df3beeecd0001d02647,,1,0,81,13,1,80
,,,,,,,,,,,,,,,,,,,,,,,,,,,,,,,,,,,,,,,,,backspace,5.517999887,BOW,TRUE,,,,,,,118,bou,Catalan,Sounds/cat_bou.mp3,2020-06-10_19h57.52.884,TranslationElicitation_eng-prolific,3.2.4,MacIntel,60,5d486df3beeecd0001d02647,,1,0,81,13,1,80
,,,,,,,,,,,,,,,,,,,,,,,,,,,,,,,,,,,,,,,,,backspace,5.667000055,BO,TRUE,,,,,,,118,bou,Catalan,Sounds/cat_bou.mp3,2020-06-10_19h57.52.884,TranslationElicitation_eng-prolific,3.2.4,MacIntel,60,5d486df3beeecd0001d02647,,1,0,81,13,1,80
,,,,,,,,,,,,,,,,,,,,,,,,,,,,,,,,,,,,,,,,,backspace,5.833999872,B,TRUE,,,,,,,118,bou,Catalan,Sounds/cat_bou.mp3,2020-06-10_19h57.52.884,TranslationElicitation_eng-prolific,3.2.4,MacIntel,60,5d486df3beeecd0001d02647,,1,0,81,13,1,80
,,,,,,,,,,,,,,,,,,,,,,,,,,,,,,,,,,,,,,,,,u,6.417999983,BU,TRUE,,,,,,,118,bou,Catalan,Sounds/cat_bou.mp3,2020-06-10_19h57.52.884,TranslationElicitation_eng-prolific,3.2.4,MacIntel,60,5d486df3beeecd0001d02647,,1,0,81,13,1,80
,,,,,,,,,,,,,,,,,,,,,,,,,,,,,,,,,,,,,,,,,l,6.651000023,BUL,TRUE,,,,,,,118,bou,Catalan,Sounds/cat_bou.mp3,2020-06-10_19h57.52.884,TranslationElicitation_eng-prolific,3.2.4,MacIntel,60,5d486df3beeecd0001d02647,,1,0,81,13,1,80
,,,,,,,,,,,,,,,,,,,,,,,,,,,,,,,,,,,,,,,,,l,6.78399992,BULL,TRUE,,,,,,,118,bou,Catalan,Sounds/cat_bou.mp3,2020-06-10_19h57.52.884,TranslationElicitation_eng-prolific,3.2.4,MacIntel,60,5d486df3beeecd0001d02647,,1,0,81,13,1,80
,,,,,,,,,,,,,,,,,,,,,,,,,,,,,,,,,,,,,,,,,return,6.983999968,BULL,TRUE,,,,,,,118,bou,Catalan,Sounds/cat_bou.mp3,2020-06-10_19h57.52.884,TranslationElicitation_eng-prolific,3.2.4,MacIntel,60,5d486df3beeecd0001d02647,6.983999968,1,0,81,13,1,80
,,,,,,,,,,,,,,,,,,,,,,,,,,,,,,,,,,,,,,,,,,,,,,,,,,,118,bou,Catalan,Sounds/cat_bou.mp3,2020-06-10_19h57.52.884,TranslationElicitation_eng-prolific,3.2.4,MacIntel,60,5d486df3beeecd0001d02647,,1,0,81,13,1,80
,,,,,,,,,,,,,,,,,,,,,,,,,,,,,,,,,,,,,,,,,f,4.96600008,F,FALSE,,,,,,,135,formiga,Catalan,Sounds/cat_formiga.mp3,2020-06-10_19h57.52.884,TranslationElicitation_eng-prolific,3.2.4,MacIntel,60,5d486df3beeecd0001d02647,,1,0,81,29,1,80
,,,,,,,,,,,,,,,,,,,,,,,,,,,,,,,,,,,,,,,,,r,5.150000095,FR,FALSE,,,,,,,135,formiga,Catalan,Sounds/cat_formiga.mp3,2020-06-10_19h57.52.884,TranslationElicitation_eng-prolific,3.2.4,MacIntel,60,5d486df3beeecd0001d02647,,1,0,81,29,1,80
,,,,,,,,,,,,,,,,,,,,,,,,,,,,,,,,,,,,,,,,,i,5.282999992,FRI,FALSE,,,,,,,135,formiga,Catalan,Sounds/cat_formiga.mp3,2020-06-10_19h57.52.884,TranslationElicitation_eng-prolific,3.2.4,MacIntel,60,5d486df3beeecd0001d02647,,1,0,81,29,1,80
,,,,,,,,,,,,,,,,,,,,,,,,,,,,,,,,,,,,,,,,,e,5.383000135,FRIE,FALSE,,,,,,,135,formiga,Catalan,Sounds/cat_formiga.mp3,2020-06-10_19h57.52.884,TranslationElicitation_eng-prolific,3.2.4,MacIntel,60,5d486df3beeecd0001d02647,,1,0,81,29,1,80
,,,,,,,,,,,,,,,,,,,,,,,,,,,,,,,,,,,,,,,,,n,5.516000032,FRIEN,FALSE,,,,,,,135,formiga,Catalan,Sounds/cat_formiga.mp3,2020-06-10_19h57.52.884,TranslationElicitation_eng-prolific,3.2.4,MacIntel,60,5d486df3beeecd0001d02647,,1,0,81,29,1,80
,,,,,,,,,,,,,,,,,,,,,,,,,,,,,,,,,,,,,,,,,d,5.633000135,FRIEND,FALSE,,,,,,,135,formiga,Catalan,Sounds/cat_formiga.mp3,2020-06-10_19h57.52.884,TranslationElicitation_eng-prolific,3.2.4,MacIntel,60,5d486df3beeecd0001d02647,,1,0,81,29,1,80
,,,,,,,,,,,,,,,,,,,,,,,,,,,,,,,,,,,,,,,,,space,5.75,FRIEND ,FALSE,,,,,,,135,formiga,Catalan,Sounds/cat_formiga.mp3,2020-06-10_19h57.52.884,TranslationElicitation_eng-prolific,3.2.4,MacIntel,60,5d486df3beeecd0001d02647,,1,0,81,29,1,80
,,,,,,,,,,,,,,,,,,,,,,,,,,,,,,,,,,,,,,,,,backspace,6.384000063,FRIEND,TRUE,,,,,,,135,formiga,Catalan,Sounds/cat_formiga.mp3,2020-06-10_19h57.52.884,TranslationElicitation_eng-prolific,3.2.4,MacIntel,60,5d486df3beeecd0001d02647,,1,0,81,29,1,80
,,,,,,,,,,,,,,,,,,,,,,,,,,,,,,,,,,,,,,,,,backspace,6.600000143,FRIEN,TRUE,,,,,,,135,formiga,Catalan,Sounds/cat_formiga.mp3,2020-06-10_19h57.52.884,TranslationElicitation_eng-prolific,3.2.4,MacIntel,60,5d486df3beeecd0001d02647,,1,0,81,29,1,80
,,,,,,,,,,,,,,,,,,,,,,,,,,,,,,,,,,,,,,,,,backspace,6.749000072,FRIE,TRUE,,,,,,,135,formiga,Catalan,Sounds/cat_formiga.mp3,2020-06-10_19h57.52.884,TranslationElicitation_eng-prolific,3.2.4,MacIntel,60,5d486df3beeecd0001d02647,,1,0,81,29,1,80
,,,,,,,,,,,,,,,,,,,,,,,,,,,,,,,,,,,,,,,,,backspace,6.917000055,FRI,TRUE,,,,,,,135,formiga,Catalan,Sounds/cat_formiga.mp3,2020-06-10_19h57.52.884,TranslationElicitation_eng-prolific,3.2.4,MacIntel,60,5d486df3beeecd0001d02647,,1,0,81,29,1,80
,,,,,,,,,,,,,,,,,,,,,,,,,,,,,,,,,,,,,,,,,e,7.567000151,FRIE,TRUE,,,,,,,135,formiga,Catalan,Sounds/cat_formiga.mp3,2020-06-10_19h57.52.884,TranslationElicitation_eng-prolific,3.2.4,MacIntel,60,5d486df3beeecd0001d02647,,1,0,81,29,1,80
,,,,,,,,,,,,,,,,,,,,,,,,,,,,,,,,,,,,,,,,,n,7.666000128,FRIEN,TRUE,,,,,,,135,formiga,Catalan,Sounds/cat_formiga.mp3,2020-06-10_19h57.52.884,TranslationElicitation_eng-prolific,3.2.4,MacIntel,60,5d486df3beeecd0001d02647,,1,0,81,29,1,80
,,,,,,,,,,,,,,,,,,,,,,,,,,,,,,,,,,,,,,,,,d,7.782999992,FRIEND,TRUE,,,,,,,135,formiga,Catalan,Sounds/cat_formiga.mp3,2020-06-10_19h57.52.884,TranslationElicitation_eng-prolific,3.2.4,MacIntel,60,5d486df3beeecd0001d02647,,1,0,81,29,1,80
,,,,,,,,,,,,,,,,,,,,,,,,,,,,,,,,,,,,,,,,,s,7.967000008,FRIENDS,TRUE,,,,,,,135,formiga,Catalan,Sounds/cat_formiga.mp3,2020-06-10_19h57.52.884,TranslationElicitation_eng-prolific,3.2.4,MacIntel,60,5d486df3beeecd0001d02647,,1,0,81,29,1,80
