consentKey.keys,consentKey.rt,languageL1Key.keys,languageL1Key.rt,languageL2,languageL2OralKey.keys,languageL2OralKey.rt,languageL2WrittenKey.keys,languageL2WrittenKey.rt,languageL3,languageL3OralKey.keys,languageL3OralKey.rt,languageL3WrittenKey.keys,languageL3WrittenKey.rt,languageCatalanOralKey.keys,languageCatalanOralKey.rt,languageCatalanWrittenKey.keys,languageCatalanWrittenKey.rt,languageCatalanTimeKey.keys,languageCatalanTimeKey.rt,languageSpanishOralKey.keys,languageSpanishOralKey.rt,languageSpanishWrittenKey.keys,languageSpanishWrittenKey.rt,languageSpanishTimeKey.keys,languageSpanishTimeKey.rt,age,demoSexKey.keys,demoSexKey.rt,demoEducationKey.keys,demoEducationKey.rt,city,demoVisionKey.keys,demoVisionKey.rt,demoLanguageKey.keys,demoLanguageKey.rt,setupLocationKey.keys,setupLocationKey.rt,setupNoiseKey.keys,setupNoiseKey.rt,instructionsKeys.keys,instructionsKeys.rt,keyPressed,keyPressTime,inputText,error,trialsPracticeCatalan.thisRepN,trialsPracticeCatalan.thisTrialN,trialsPracticeCatalan.thisN,trialsPracticeCatalan.thisIndex,trialsPracticeCatalan.ran,trialsPracticeCatalan.order,trial_id,word,test_language,soundfile,date,expName,psychopyVersion,OS,frameRate,participant,trialOffset,trialsCatalan.thisRepN,trialsCatalan.thisTrialN,trialsCatalan.thisN,trialsCatalan.thisIndex,trialsCatalan.ran,trialsCatalan.order
space,3.214999914,e,3.032999992,GERMAN,2,12.2019999,2,12.31800008,,,,,,1,3.380000114,1,2.629999876,1,5.795000076,1,3.446999788,1,2.080999851,1,4.565000057,20,f,1.76699996,3,4.704999924,KENT,y,4.030999899,n,3.032999992,1,3.430999994,1,5.946000099,space,14.5999999,f,8.634000063,F,FALSE,1,0,5,4,1,4,179,tigre,Catalan,Sounds/cat_tigre.mp3,2020-06-05_15h35.36.712,TranslationElicitation_eng-prolific,3.2.4,MacIntel,60,5d5eb07672a0690001cee147,,,,,,,
,,,,,,,,,,,,,,,,,,,,,,,,,,,,,,,,,,,,,,,,,,r,9.134000063,FR,FALSE,1,0,5,4,1,4,179,tigre,Catalan,Sounds/cat_tigre.mp3,2020-06-05_15h35.36.712,TranslationElicitation_eng-prolific,3.2.4,MacIntel,60,5d5eb07672a0690001cee147,,,,,,,
,,,,,,,,,,,,,,,,,,,,,,,,,,,,,,,,,,,,,,,,,,i,9.751000166,FRI,FALSE,1,0,5,4,1,4,179,tigre,Catalan,Sounds/cat_tigre.mp3,2020-06-05_15h35.36.712,TranslationElicitation_eng-prolific,3.2.4,MacIntel,60,5d5eb07672a0690001cee147,,,,,,,
,,,,,,,,,,,,,,,,,,,,,,,,,,,,,,,,,,,,,,,,,,e,10.03400016,FRIE,FALSE,1,0,5,4,1,4,179,tigre,Catalan,Sounds/cat_tigre.mp3,2020-06-05_15h35.36.712,TranslationElicitation_eng-prolific,3.2.4,MacIntel,60,5d5eb07672a0690001cee147,,,,,,,
,,,,,,,,,,,,,,,,,,,,,,,,,,,,,,,,,,,,,,,,,,n,10.28400016,FRIEN,FALSE,1,0,5,4,1,4,179,tigre,Catalan,Sounds/cat_tigre.mp3,2020-06-05_15h35.36.712,TranslationElicitation_eng-prolific,3.2.4,MacIntel,60,5d5eb07672a0690001cee147,,,,,,,
,,,,,,,,,,,,,,,,,,,,,,,,,,,,,,,,,,,,,,,,,,d,10.45100021,FRIEND,FALSE,1,0,5,4,1,4,179,tigre,Catalan,Sounds/cat_tigre.mp3,2020-06-05_15h35.36.712,TranslationElicitation_eng-prolific,3.2.4,MacIntel,60,5d5eb07672a0690001cee147,,,,,,,
,,,,,,,,,,,,,,,,,,,,,,,,,,,,,,,,,,,,,,,,,,return,10.83400011,FRIEND,FALSE,1,0,5,4,1,4,179,tigre,Catalan,Sounds/cat_tigre.mp3,2020-06-05_15h35.36.712,TranslationElicitation_eng-prolific,3.2.4,MacIntel,60,5d5eb07672a0690001cee147,10.83400011,,,,,,
,,,,,,,,,,,,,,,,,,,,,,,,,,,,,,,,,,,,,,,,,,,,,,1,0,5,4,1,4,179,tigre,Catalan,Sounds/cat_tigre.mp3,2020-06-05_15h35.36.712,TranslationElicitation_eng-prolific,3.2.4,MacIntel,60,5d5eb07672a0690001cee147,,,,,,,
,,,,,,,,,,,,,,,,,,,,,,,,,,,,,,,,,,,,,,,,,,g,3.083999872,G,FALSE,1,0,5,3,1,4,159,onada,Catalan,Sounds/cat_onada.mp3,2020-06-05_15h35.36.712,TranslationElicitation_eng-prolific,3.2.4,MacIntel,60,5d5eb07672a0690001cee147,,,,,,,
,,,,,,,,,,,,,,,,,,,,,,,,,,,,,,,,,,,,,,,,,,o,3.519999981,GO,FALSE,1,0,5,3,1,4,159,onada,Catalan,Sounds/cat_onada.mp3,2020-06-05_15h35.36.712,TranslationElicitation_eng-prolific,3.2.4,MacIntel,60,5d5eb07672a0690001cee147,,,,,,,
,,,,,,,,,,,,,,,,,,,,,,,,,,,,,,,,,,,,,,,,,,o,3.651000023,GOO,FALSE,1,0,5,3,1,4,159,onada,Catalan,Sounds/cat_onada.mp3,2020-06-05_15h35.36.712,TranslationElicitation_eng-prolific,3.2.4,MacIntel,60,5d5eb07672a0690001cee147,,,,,,,
,,,,,,,,,,,,,,,,,,,,,,,,,,,,,,,,,,,,,,,,,,d,3.78399992,GOOD,FALSE,1,0,5,3,1,4,159,onada,Catalan,Sounds/cat_onada.mp3,2020-06-05_15h35.36.712,TranslationElicitation_eng-prolific,3.2.4,MacIntel,60,5d5eb07672a0690001cee147,,,,,,,
,,,,,,,,,,,,,,,,,,,,,,,,,,,,,,,,,,,,,,,,,,space,3.934000015,GOOD ,FALSE,1,0,5,3,1,4,159,onada,Catalan,Sounds/cat_onada.mp3,2020-06-05_15h35.36.712,TranslationElicitation_eng-prolific,3.2.4,MacIntel,60,5d5eb07672a0690001cee147,,,,,,,
,,,,,,,,,,,,,,,,,,,,,,,,,,,,,,,,,,,,,,,,,,a,4.101000071,GOOD A,FALSE,1,0,5,3,1,4,159,onada,Catalan,Sounds/cat_onada.mp3,2020-06-05_15h35.36.712,TranslationElicitation_eng-prolific,3.2.4,MacIntel,60,5d5eb07672a0690001cee147,,,,,,,
,,,,,,,,,,,,,,,,,,,,,,,,,,,,,,,,,,,,,,,,,,f,4.451999903,GOOD AF,FALSE,1,0,5,3,1,4,159,onada,Catalan,Sounds/cat_onada.mp3,2020-06-05_15h35.36.712,TranslationElicitation_eng-prolific,3.2.4,MacIntel,60,5d5eb07672a0690001cee147,,,,,,,
,,,,,,,,,,,,,,,,,,,,,,,,,,,,,,,,,,,,,,,,,,t,5.51699996,GOOD AFT,FALSE,1,0,5,3,1,4,159,onada,Catalan,Sounds/cat_onada.mp3,2020-06-05_15h35.36.712,TranslationElicitation_eng-prolific,3.2.4,MacIntel,60,5d5eb07672a0690001cee147,,,,,,,
,,,,,,,,,,,,,,,,,,,,,,,,,,,,,,,,,,,,,,,,,,e,8.65199995,GOOD AFTE,FALSE,1,0,5,3,1,4,159,onada,Catalan,Sounds/cat_onada.mp3,2020-06-05_15h35.36.712,TranslationElicitation_eng-prolific,3.2.4,MacIntel,60,5d5eb07672a0690001cee147,,,,,,,
,,,,,,,,,,,,,,,,,,,,,,,,,,,,,,,,,,,,,,,,,,r,8.786999941,GOOD AFTER,FALSE,1,0,5,3,1,4,159,onada,Catalan,Sounds/cat_onada.mp3,2020-06-05_15h35.36.712,TranslationElicitation_eng-prolific,3.2.4,MacIntel,60,5d5eb07672a0690001cee147,,,,,,,
,,,,,,,,,,,,,,,,,,,,,,,,,,,,,,,,,,,,,,,,,,n,8.934000015,GOOD AFTERN,FALSE,1,0,5,3,1,4,159,onada,Catalan,Sounds/cat_onada.mp3,2020-06-05_15h35.36.712,TranslationElicitation_eng-prolific,3.2.4,MacIntel,60,5d5eb07672a0690001cee147,,,,,,,
,,,,,,,,,,,,,,,,,,,,,,,,,,,,,,,,,,,,,,,,,,o,9.200999975,GOOD AFTERNO,FALSE,1,0,5,3,1,4,159,onada,Catalan,Sounds/cat_onada.mp3,2020-06-05_15h35.36.712,TranslationElicitation_eng-prolific,3.2.4,MacIntel,60,5d5eb07672a0690001cee147,,,,,,,
,,,,,,,,,,,,,,,,,,,,,,,,,,,,,,,,,,,,,,,,,,o,9.368000031,GOOD AFTERNOO,FALSE,1,0,5,3,1,4,159,onada,Catalan,Sounds/cat_onada.mp3,2020-06-05_15h35.36.712,TranslationElicitation_eng-prolific,3.2.4,MacIntel,60,5d5eb07672a0690001cee147,,,,,,,
,,,,,,,,,,,,,,,,,,,,,,,,,,,,,,,,,,,,,,,,,,n,9.53399992,GOOD AFTERNOON,FALSE,1,0,5,3,1,4,159,onada,Catalan,Sounds/cat_onada.mp3,2020-06-05_15h35.36.712,TranslationElicitation_eng-prolific,3.2.4,MacIntel,60,5d5eb07672a0690001cee147,,,,,,,
,,,,,,,,,,,,,,,,,,,,,,,,,,,,,,,,,,,,,,,,,,return,10.11899996,GOOD AFTERNOON,FALSE,1,0,5,3,1,4,159,onada,Catalan,Sounds/cat_onada.mp3,2020-06-05_15h35.36.712,TranslationElicitation_eng-prolific,3.2.4,MacIntel,60,5d5eb07672a0690001cee147,10.11899996,,,,,,
,,,,,,,,,,,,,,,,,,,,,,,,,,,,,,,,,,,,,,,,,,,,,,1,0,5,3,1,4,159,onada,Catalan,Sounds/cat_onada.mp3,2020-06-05_15h35.36.712,TranslationElicitation_eng-prolific,3.2.4,MacIntel,60,5d5eb07672a0690001cee147,,,,,,,
,,,,,,,,,,,,,,,,,,,,,,,,,,,,,,,,,,,,,,,,,,h,9.267999887,H,FALSE,1,0,5,0,1,4,109,arbre,Catalan,Sounds/cat_arbre.mp3,2020-06-05_15h35.36.712,TranslationElicitation_eng-prolific,3.2.4,MacIntel,60,5d5eb07672a0690001cee147,,,,,,,
,,,,,,,,,,,,,,,,,,,,,,,,,,,,,,,,,,,,,,,,,,e,9.40199995,HE,FALSE,1,0,5,0,1,4,109,arbre,Catalan,Sounds/cat_arbre.mp3,2020-06-05_15h35.36.712,TranslationElicitation_eng-prolific,3.2.4,MacIntel,60,5d5eb07672a0690001cee147,,,,,,,
,,,,,,,,,,,,,,,,,,,,,,,,,,,,,,,,,,,,,,,,,,l,9.549999952,HEL,FALSE,1,0,5,0,1,4,109,arbre,Catalan,Sounds/cat_arbre.mp3,2020-06-05_15h35.36.712,TranslationElicitation_eng-prolific,3.2.4,MacIntel,60,5d5eb07672a0690001cee147,,,,,,,
,,,,,,,,,,,,,,,,,,,,,,,,,,,,,,,,,,,,,,,,,,l,9.700999975,HELL,FALSE,1,0,5,0,1,4,109,arbre,Catalan,Sounds/cat_arbre.mp3,2020-06-05_15h35.36.712,TranslationElicitation_eng-prolific,3.2.4,MacIntel,60,5d5eb07672a0690001cee147,,,,,,,
,,,,,,,,,,,,,,,,,,,,,,,,,,,,,,,,,,,,,,,,,,backspace,10.58599997,HEL,TRUE,1,0,5,0,1,4,109,arbre,Catalan,Sounds/cat_arbre.mp3,2020-06-05_15h35.36.712,TranslationElicitation_eng-prolific,3.2.4,MacIntel,60,5d5eb07672a0690001cee147,,,,,,,
,,,,,,,,,,,,,,,,,,,,,,,,,,,,,,,,,,,,,,,,,,backspace,10.9849999,HE,TRUE,1,0,5,0,1,4,109,arbre,Catalan,Sounds/cat_arbre.mp3,2020-06-05_15h35.36.712,TranslationElicitation_eng-prolific,3.2.4,MacIntel,60,5d5eb07672a0690001cee147,,,,,,,
,,,,,,,,,,,,,,,,,,,,,,,,,,,,,,,,,,,,,,,,,,backspace,11.16899991,H,TRUE,1,0,5,0,1,4,109,arbre,Catalan,Sounds/cat_arbre.mp3,2020-06-05_15h35.36.712,TranslationElicitation_eng-prolific,3.2.4,MacIntel,60,5d5eb07672a0690001cee147,,,,,,,
,,,,,,,,,,,,,,,,,,,,,,,,,,,,,,,,,,,,,,,,,,backspace,11.58500004,,TRUE,1,0,5,0,1,4,109,arbre,Catalan,Sounds/cat_arbre.mp3,2020-06-05_15h35.36.712,TranslationElicitation_eng-prolific,3.2.4,MacIntel,60,5d5eb07672a0690001cee147,,,,,,,
,,,,,,,,,,,,,,,,,,,,,,,,,,,,,,,,,,,,,,,,,,g,17.70499992,G,TRUE,1,0,5,0,1,4,109,arbre,Catalan,Sounds/cat_arbre.mp3,2020-06-05_15h35.36.712,TranslationElicitation_eng-prolific,3.2.4,MacIntel,60,5d5eb07672a0690001cee147,,,,,,,
,,,,,,,,,,,,,,,,,,,,,,,,,,,,,,,,,,,,,,,,,,o,17.83800006,GO,TRUE,1,0,5,0,1,4,109,arbre,Catalan,Sounds/cat_arbre.mp3,2020-06-05_15h35.36.712,TranslationElicitation_eng-prolific,3.2.4,MacIntel,60,5d5eb07672a0690001cee147,,,,,,,
,,,,,,,,,,,,,,,,,,,,,,,,,,,,,,,,,,,,,,,,,,o,17.98799992,GOO,TRUE,1,0,5,0,1,4,109,arbre,Catalan,Sounds/cat_arbre.mp3,2020-06-05_15h35.36.712,TranslationElicitation_eng-prolific,3.2.4,MacIntel,60,5d5eb07672a0690001cee147,,,,,,,
,,,,,,,,,,,,,,,,,,,,,,,,,,,,,,,,,,,,,,,,,,d,18.15499997,GOOD,TRUE,1,0,5,0,1,4,109,arbre,Catalan,Sounds/cat_arbre.mp3,2020-06-05_15h35.36.712,TranslationElicitation_eng-prolific,3.2.4,MacIntel,60,5d5eb07672a0690001cee147,,,,,,,
,,,,,,,,,,,,,,,,,,,,,,,,,,,,,,,,,,,,,,,,,,d,18.38800001,GOODD,TRUE,1,0,5,0,1,4,109,arbre,Catalan,Sounds/cat_arbre.mp3,2020-06-05_15h35.36.712,TranslationElicitation_eng-prolific,3.2.4,MacIntel,60,5d5eb07672a0690001cee147,,,,,,,
,,,,,,,,,,,,,,,,,,,,,,,,,,,,,,,,,,,,,,,,,,a,18.60599995,GOODDA,TRUE,1,0,5,0,1,4,109,arbre,Catalan,Sounds/cat_arbre.mp3,2020-06-05_15h35.36.712,TranslationElicitation_eng-prolific,3.2.4,MacIntel,60,5d5eb07672a0690001cee147,,,,,,,
,,,,,,,,,,,,,,,,,,,,,,,,,,,,,,,,,,,,,,,,,,y,18.63899994,GOODDAY,TRUE,1,0,5,0,1,4,109,arbre,Catalan,Sounds/cat_arbre.mp3,2020-06-05_15h35.36.712,TranslationElicitation_eng-prolific,3.2.4,MacIntel,60,5d5eb07672a0690001cee147,,,,,,,
,,,,,,,,,,,,,,,,,,,,,,,,,,,,,,,,,,,,,,,,,,return,20.20599985,GOODDAY,TRUE,1,0,5,0,1,4,109,arbre,Catalan,Sounds/cat_arbre.mp3,2020-06-05_15h35.36.712,TranslationElicitation_eng-prolific,3.2.4,MacIntel,60,5d5eb07672a0690001cee147,20.20599985,,,,,,
,,,,,,,,,,,,,,,,,,,,,,,,,,,,,,,,,,,,,,,,,,,,,,1,0,5,0,1,4,109,arbre,Catalan,Sounds/cat_arbre.mp3,2020-06-05_15h35.36.712,TranslationElicitation_eng-prolific,3.2.4,MacIntel,60,5d5eb07672a0690001cee147,,,,,,,
,,,,,,,,,,,,,,,,,,,,,,,,,,,,,,,,,,,,,,,,,,l,9.319000006,L,FALSE,1,0,5,1,1,4,126,corona,Catalan,Sounds/cat_corona.mp3,2020-06-05_15h35.36.712,TranslationElicitation_eng-prolific,3.2.4,MacIntel,60,5d5eb07672a0690001cee147,,,,,,,
,,,,,,,,,,,,,,,,,,,,,,,,,,,,,,,,,,,,,,,,,,a,9.451999903,LA,FALSE,1,0,5,1,1,4,126,corona,Catalan,Sounds/cat_corona.mp3,2020-06-05_15h35.36.712,TranslationElicitation_eng-prolific,3.2.4,MacIntel,60,5d5eb07672a0690001cee147,,,,,,,
,,,,,,,,,,,,,,,,,,,,,,,,,,,,,,,,,,,,,,,,,,t,9.65199995,LAT,FALSE,1,0,5,1,1,4,126,corona,Catalan,Sounds/cat_corona.mp3,2020-06-05_15h35.36.712,TranslationElicitation_eng-prolific,3.2.4,MacIntel,60,5d5eb07672a0690001cee147,,,,,,,
,,,,,,,,,,,,,,,,,,,,,,,,,,,,,,,,,,,,,,,,,,e,9.91899991,LATE,FALSE,1,0,5,1,1,4,126,corona,Catalan,Sounds/cat_corona.mp3,2020-06-05_15h35.36.712,TranslationElicitation_eng-prolific,3.2.4,MacIntel,60,5d5eb07672a0690001cee147,,,,,,,
,,,,,,,,,,,,,,,,,,,,,,,,,,,,,,,,,,,,,,,,,,r,10.03999996,LATER,FALSE,1,0,5,1,1,4,126,corona,Catalan,Sounds/cat_corona.mp3,2020-06-05_15h35.36.712,TranslationElicitation_eng-prolific,3.2.4,MacIntel,60,5d5eb07672a0690001cee147,,,,,,,
,,,,,,,,,,,,,,,,,,,,,,,,,,,,,,,,,,,,,,,,,,return,10.33500004,LATER,FALSE,1,0,5,1,1,4,126,corona,Catalan,Sounds/cat_corona.mp3,2020-06-05_15h35.36.712,TranslationElicitation_eng-prolific,3.2.4,MacIntel,60,5d5eb07672a0690001cee147,10.33500004,,,,,,
,,,,,,,,,,,,,,,,,,,,,,,,,,,,,,,,,,,,,,,,,,,,,,1,0,5,1,1,4,126,corona,Catalan,Sounds/cat_corona.mp3,2020-06-05_15h35.36.712,TranslationElicitation_eng-prolific,3.2.4,MacIntel,60,5d5eb07672a0690001cee147,,,,,,,
,,,,,,,,,,,,,,,,,,,,,,,,,,,,,,,,,,,,,,,,,,j,5.30099988,J,FALSE,1,0,5,2,1,4,147,jaqueta,Catalan,Sounds/cat_jaqueta.mp3,2020-06-05_15h35.36.712,TranslationElicitation_eng-prolific,3.2.4,MacIntel,60,5d5eb07672a0690001cee147,,,,,,,
,,,,,,,,,,,,,,,,,,,,,,,,,,,,,,,,,,,,,,,,,,a,5.651000023,JA,FALSE,1,0,5,2,1,4,147,jaqueta,Catalan,Sounds/cat_jaqueta.mp3,2020-06-05_15h35.36.712,TranslationElicitation_eng-prolific,3.2.4,MacIntel,60,5d5eb07672a0690001cee147,,,,,,,
,,,,,,,,,,,,,,,,,,,,,,,,,,,,,,,,,,,,,,,,,,c,5.937999964,JAC,FALSE,1,0,5,2,1,4,147,jaqueta,Catalan,Sounds/cat_jaqueta.mp3,2020-06-05_15h35.36.712,TranslationElicitation_eng-prolific,3.2.4,MacIntel,60,5d5eb07672a0690001cee147,,,,,,,
,,,,,,,,,,,,,,,,,,,,,,,,,,,,,,,,,,,,,,,,,,k,6.05099988,JACK,FALSE,1,0,5,2,1,4,147,jaqueta,Catalan,Sounds/cat_jaqueta.mp3,2020-06-05_15h35.36.712,TranslationElicitation_eng-prolific,3.2.4,MacIntel,60,5d5eb07672a0690001cee147,,,,,,,
,,,,,,,,,,,,,,,,,,,,,,,,,,,,,,,,,,,,,,,,,,e,6.501999855,JACKE,FALSE,1,0,5,2,1,4,147,jaqueta,Catalan,Sounds/cat_jaqueta.mp3,2020-06-05_15h35.36.712,TranslationElicitation_eng-prolific,3.2.4,MacIntel,60,5d5eb07672a0690001cee147,,,,,,,
,,,,,,,,,,,,,,,,,,,,,,,,,,,,,,,,,,,,,,,,,,t,6.718999863,JACKET,FALSE,1,0,5,2,1,4,147,jaqueta,Catalan,Sounds/cat_jaqueta.mp3,2020-06-05_15h35.36.712,TranslationElicitation_eng-prolific,3.2.4,MacIntel,60,5d5eb07672a0690001cee147,,,,,,,
,,,,,,,,,,,,,,,,,,,,,,,,,,,,,,,,,,,,,,,,,,return,7.083999872,JACKET,FALSE,1,0,5,2,1,4,147,jaqueta,Catalan,Sounds/cat_jaqueta.mp3,2020-06-05_15h35.36.712,TranslationElicitation_eng-prolific,3.2.4,MacIntel,60,5d5eb07672a0690001cee147,7.083999872,,,,,,
,,,,,,,,,,,,,,,,,,,,,,,,,,,,,,,,,,,,,,,,,,,,,,1,0,5,2,1,4,147,jaqueta,Catalan,Sounds/cat_jaqueta.mp3,2020-06-05_15h35.36.712,TranslationElicitation_eng-prolific,3.2.4,MacIntel,60,5d5eb07672a0690001cee147,,,,,,,
,,,,,,,,,,,,,,,,,,,,,,,,,,,,,,,,,,,,,,,,,,l,2.083000183,L,FALSE,,,,,,,139,galleda,Catalan,Sounds/cat_galleda.mp3,2020-06-05_15h35.36.712,TranslationElicitation_eng-prolific,3.2.4,MacIntel,60,5d5eb07672a0690001cee147,,1,0,81,33,1,80
,,,,,,,,,,,,,,,,,,,,,,,,,,,,,,,,,,,,,,,,,,e,2.19900012,LE,FALSE,,,,,,,139,galleda,Catalan,Sounds/cat_galleda.mp3,2020-06-05_15h35.36.712,TranslationElicitation_eng-prolific,3.2.4,MacIntel,60,5d5eb07672a0690001cee147,,1,0,81,33,1,80
,,,,,,,,,,,,,,,,,,,,,,,,,,,,,,,,,,,,,,,,,,a,2.315999985,LEA,FALSE,,,,,,,139,galleda,Catalan,Sounds/cat_galleda.mp3,2020-06-05_15h35.36.712,TranslationElicitation_eng-prolific,3.2.4,MacIntel,60,5d5eb07672a0690001cee147,,1,0,81,33,1,80
,,,,,,,,,,,,,,,,,,,,,,,,,,,,,,,,,,,,,,,,,,t,2.532999992,LEAT,FALSE,,,,,,,139,galleda,Catalan,Sounds/cat_galleda.mp3,2020-06-05_15h35.36.712,TranslationElicitation_eng-prolific,3.2.4,MacIntel,60,5d5eb07672a0690001cee147,,1,0,81,33,1,80
,,,,,,,,,,,,,,,,,,,,,,,,,,,,,,,,,,,,,,,,,,h,2.649000168,LEATH,FALSE,,,,,,,139,galleda,Catalan,Sounds/cat_galleda.mp3,2020-06-05_15h35.36.712,TranslationElicitation_eng-prolific,3.2.4,MacIntel,60,5d5eb07672a0690001cee147,,1,0,81,33,1,80
,,,,,,,,,,,,,,,,,,,,,,,,,,,,,,,,,,,,,,,,,,e,2.75,LEATHE,FALSE,,,,,,,139,galleda,Catalan,Sounds/cat_galleda.mp3,2020-06-05_15h35.36.712,TranslationElicitation_eng-prolific,3.2.4,MacIntel,60,5d5eb07672a0690001cee147,,1,0,81,33,1,80
,,,,,,,,,,,,,,,,,,,,,,,,,,,,,,,,,,,,,,,,,,r,2.867000103,LEATHER,FALSE,,,,,,,139,galleda,Catalan,Sounds/cat_galleda.mp3,2020-06-05_15h35.36.712,TranslationElicitation_eng-prolific,3.2.4,MacIntel,60,5d5eb07672a0690001cee147,,1,0,81,33,1,80
,,,,,,,,,,,,,,,,,,,,,,,,,,,,,,,,,,,,,,,,,,return,3.217000008,LEATHER,FALSE,,,,,,,139,galleda,Catalan,Sounds/cat_galleda.mp3,2020-06-05_15h35.36.712,TranslationElicitation_eng-prolific,3.2.4,MacIntel,60,5d5eb07672a0690001cee147,3.217000008,1,0,81,33,1,80
,,,,,,,,,,,,,,,,,,,,,,,,,,,,,,,,,,,,,,,,,,,,,,,,,,,,139,galleda,Catalan,Sounds/cat_galleda.mp3,2020-06-05_15h35.36.712,TranslationElicitation_eng-prolific,3.2.4,MacIntel,60,5d5eb07672a0690001cee147,,1,0,81,33,1,80
,,,,,,,,,,,,,,,,,,,,,,,,,,,,,,,,,,,,,,,,,,n,2.532000065,N,FALSE,,,,,,,158,nas,Catalan,Sounds/cat_nas.mp3,2020-06-05_15h35.36.712,TranslationElicitation_eng-prolific,3.2.4,MacIntel,60,5d5eb07672a0690001cee147,,1,0,81,51,1,80
,,,,,,,,,,,,,,,,,,,,,,,,,,,,,,,,,,,,,,,,,,i,2.681999922,NI,FALSE,,,,,,,158,nas,Catalan,Sounds/cat_nas.mp3,2020-06-05_15h35.36.712,TranslationElicitation_eng-prolific,3.2.4,MacIntel,60,5d5eb07672a0690001cee147,,1,0,81,51,1,80
,,,,,,,,,,,,,,,,,,,,,,,,,,,,,,,,,,,,,,,,,,c,2.797999859,NIC,FALSE,,,,,,,158,nas,Catalan,Sounds/cat_nas.mp3,2020-06-05_15h35.36.712,TranslationElicitation_eng-prolific,3.2.4,MacIntel,60,5d5eb07672a0690001cee147,,1,0,81,51,1,80
,,,,,,,,,,,,,,,,,,,,,,,,,,,,,,,,,,,,,,,,,,e,2.898000002,NICE,FALSE,,,,,,,158,nas,Catalan,Sounds/cat_nas.mp3,2020-06-05_15h35.36.712,TranslationElicitation_eng-prolific,3.2.4,MacIntel,60,5d5eb07672a0690001cee147,,1,0,81,51,1,80
,,,,,,,,,,,,,,,,,,,,,,,,,,,,,,,,,,,,,,,,,,return,3.282000065,NICE,FALSE,,,,,,,158,nas,Catalan,Sounds/cat_nas.mp3,2020-06-05_15h35.36.712,TranslationElicitation_eng-prolific,3.2.4,MacIntel,60,5d5eb07672a0690001cee147,3.282000065,1,0,81,51,1,80
,,,,,,,,,,,,,,,,,,,,,,,,,,,,,,,,,,,,,,,,,,,,,,,,,,,,158,nas,Catalan,Sounds/cat_nas.mp3,2020-06-05_15h35.36.712,TranslationElicitation_eng-prolific,3.2.4,MacIntel,60,5d5eb07672a0690001cee147,,1,0,81,51,1,80
,,,,,,,,,,,,,,,,,,,,,,,,,,,,,,,,,,,,,,,,,,g,1.832000017,G,FALSE,,,,,,,128,cuc,Catalan,Sounds/cat_cuc.mp3,2020-06-05_15h35.36.712,TranslationElicitation_eng-prolific,3.2.4,MacIntel,60,5d5eb07672a0690001cee147,,1,0,81,22,1,80
,,,,,,,,,,,,,,,,,,,,,,,,,,,,,,,,,,,,,,,,,,o,1.980999947,GO,FALSE,,,,,,,128,cuc,Catalan,Sounds/cat_cuc.mp3,2020-06-05_15h35.36.712,TranslationElicitation_eng-prolific,3.2.4,MacIntel,60,5d5eb07672a0690001cee147,,1,0,81,22,1,80
,,,,,,,,,,,,,,,,,,,,,,,,,,,,,,,,,,,,,,,,,,o,2.148000002,GOO,FALSE,,,,,,,128,cuc,Catalan,Sounds/cat_cuc.mp3,2020-06-05_15h35.36.712,TranslationElicitation_eng-prolific,3.2.4,MacIntel,60,5d5eb07672a0690001cee147,,1,0,81,22,1,80
,,,,,,,,,,,,,,,,,,,,,,,,,,,,,,,,,,,,,,,,,,d,2.265000105,GOOD,FALSE,,,,,,,128,cuc,Catalan,Sounds/cat_cuc.mp3,2020-06-05_15h35.36.712,TranslationElicitation_eng-prolific,3.2.4,MacIntel,60,5d5eb07672a0690001cee147,,1,0,81,22,1,80
,,,,,,,,,,,,,,,,,,,,,,,,,,,,,,,,,,,,,,,,,,return,2.565000057,GOOD,FALSE,,,,,,,128,cuc,Catalan,Sounds/cat_cuc.mp3,2020-06-05_15h35.36.712,TranslationElicitation_eng-prolific,3.2.4,MacIntel,60,5d5eb07672a0690001cee147,2.565000057,1,0,81,22,1,80
,,,,,,,,,,,,,,,,,,,,,,,,,,,,,,,,,,,,,,,,,,,,,,,,,,,,128,cuc,Catalan,Sounds/cat_cuc.mp3,2020-06-05_15h35.36.712,TranslationElicitation_eng-prolific,3.2.4,MacIntel,60,5d5eb07672a0690001cee147,,1,0,81,22,1,80
,,,,,,,,,,,,,,,,,,,,,,,,,,,,,,,,,,,,,,,,,,t,1.549999952,T,FALSE,,,,,,,182,tomaquet,Catalan,Sounds/cat_tomaquet.mp3,2020-06-05_15h35.36.712,TranslationElicitation_eng-prolific,3.2.4,MacIntel,60,5d5eb07672a0690001cee147,,1,0,81,73,1,80
,,,,,,,,,,,,,,,,,,,,,,,,,,,,,,,,,,,,,,,,,,o,1.667999983,TO,FALSE,,,,,,,182,tomaquet,Catalan,Sounds/cat_tomaquet.mp3,2020-06-05_15h35.36.712,TranslationElicitation_eng-prolific,3.2.4,MacIntel,60,5d5eb07672a0690001cee147,,1,0,81,73,1,80
,,,,,,,,,,,,,,,,,,,,,,,,,,,,,,,,,,,,,,,,,,m,1.868999958,TOM,FALSE,,,,,,,182,tomaquet,Catalan,Sounds/cat_tomaquet.mp3,2020-06-05_15h35.36.712,TranslationElicitation_eng-prolific,3.2.4,MacIntel,60,5d5eb07672a0690001cee147,,1,0,81,73,1,80
,,,,,,,,,,,,,,,,,,,,,,,,,,,,,,,,,,,,,,,,,,a,2,TOMA,FALSE,,,,,,,182,tomaquet,Catalan,Sounds/cat_tomaquet.mp3,2020-06-05_15h35.36.712,TranslationElicitation_eng-prolific,3.2.4,MacIntel,60,5d5eb07672a0690001cee147,,1,0,81,73,1,80
,,,,,,,,,,,,,,,,,,,,,,,,,,,,,,,,,,,,,,,,,,t,2.117000103,TOMAT,FALSE,,,,,,,182,tomaquet,Catalan,Sounds/cat_tomaquet.mp3,2020-06-05_15h35.36.712,TranslationElicitation_eng-prolific,3.2.4,MacIntel,60,5d5eb07672a0690001cee147,,1,0,81,73,1,80
,,,,,,,,,,,,,,,,,,,,,,,,,,,,,,,,,,,,,,,,,,o,2.26699996,TOMATO,FALSE,,,,,,,182,tomaquet,Catalan,Sounds/cat_tomaquet.mp3,2020-06-05_15h35.36.712,TranslationElicitation_eng-prolific,3.2.4,MacIntel,60,5d5eb07672a0690001cee147,,1,0,81,73,1,80
,,,,,,,,,,,,,,,,,,,,,,,,,,,,,,,,,,,,,,,,,,return,2.934000015,TOMATO,FALSE,,,,,,,182,tomaquet,Catalan,Sounds/cat_tomaquet.mp3,2020-06-05_15h35.36.712,TranslationElicitation_eng-prolific,3.2.4,MacIntel,60,5d5eb07672a0690001cee147,2.934000015,1,0,81,73,1,80
,,,,,,,,,,,,,,,,,,,,,,,,,,,,,,,,,,,,,,,,,,,,,,,,,,,,182,tomaquet,Catalan,Sounds/cat_tomaquet.mp3,2020-06-05_15h35.36.712,TranslationElicitation_eng-prolific,3.2.4,MacIntel,60,5d5eb07672a0690001cee147,,1,0,81,73,1,80
,,,,,,,,,,,,,,,,,,,,,,,,,,,,,,,,,,,,,,,,,,g,6.400000095,G,FALSE,,,,,,,124,cirera,Catalan,Sounds/cat_cirera.mp3,2020-06-05_15h35.36.712,TranslationElicitation_eng-prolific,3.2.4,MacIntel,60,5d5eb07672a0690001cee147,,1,0,81,19,1,80
,,,,,,,,,,,,,,,,,,,,,,,,,,,,,,,,,,,,,,,,,,i,6.5,GI,FALSE,,,,,,,124,cirera,Catalan,Sounds/cat_cirera.mp3,2020-06-05_15h35.36.712,TranslationElicitation_eng-prolific,3.2.4,MacIntel,60,5d5eb07672a0690001cee147,,1,0,81,19,1,80
,,,,,,,,,,,,,,,,,,,,,,,,,,,,,,,,,,,,,,,,,,r,6.633000135,GIR,FALSE,,,,,,,124,cirera,Catalan,Sounds/cat_cirera.mp3,2020-06-05_15h35.36.712,TranslationElicitation_eng-prolific,3.2.4,MacIntel,60,5d5eb07672a0690001cee147,,1,0,81,19,1,80
,,,,,,,,,,,,,,,,,,,,,,,,,,,,,,,,,,,,,,,,,,l,6.815999985,GIRL,FALSE,,,,,,,124,cirera,Catalan,Sounds/cat_cirera.mp3,2020-06-05_15h35.36.712,TranslationElicitation_eng-prolific,3.2.4,MacIntel,60,5d5eb07672a0690001cee147,,1,0,81,19,1,80
,,,,,,,,,,,,,,,,,,,,,,,,,,,,,,,,,,,,,,,,,,return,7.25,GIRL,FALSE,,,,,,,124,cirera,Catalan,Sounds/cat_cirera.mp3,2020-06-05_15h35.36.712,TranslationElicitation_eng-prolific,3.2.4,MacIntel,60,5d5eb07672a0690001cee147,7.25,1,0,81,19,1,80
,,,,,,,,,,,,,,,,,,,,,,,,,,,,,,,,,,,,,,,,,,,,,,,,,,,,124,cirera,Catalan,Sounds/cat_cirera.mp3,2020-06-05_15h35.36.712,TranslationElicitation_eng-prolific,3.2.4,MacIntel,60,5d5eb07672a0690001cee147,,1,0,81,19,1,80
,,,,,,,,,,,,,,,,,,,,,,,,,,,,,,,,,,,,,,,,,,f,6.167000055,F,FALSE,,,,,,,121,camisa,Catalan,Sounds/cat_camisa.mp3,2020-06-05_15h35.36.712,TranslationElicitation_eng-prolific,3.2.4,MacIntel,60,5d5eb07672a0690001cee147,,1,0,81,16,1,80
,,,,,,,,,,,,,,,,,,,,,,,,,,,,,,,,,,,,,,,,,,r,6.98300004,FR,FALSE,,,,,,,121,camisa,Catalan,Sounds/cat_camisa.mp3,2020-06-05_15h35.36.712,TranslationElicitation_eng-prolific,3.2.4,MacIntel,60,5d5eb07672a0690001cee147,,1,0,81,16,1,80
,,,,,,,,,,,,,,,,,,,,,,,,,,,,,,,,,,,,,,,,,,i,7.117000103,FRI,FALSE,,,,,,,121,camisa,Catalan,Sounds/cat_camisa.mp3,2020-06-05_15h35.36.712,TranslationElicitation_eng-prolific,3.2.4,MacIntel,60,5d5eb07672a0690001cee147,,1,0,81,16,1,80
,,,,,,,,,,,,,,,,,,,,,,,,,,,,,,,,,,,,,,,,,,e,7.217000008,FRIE,FALSE,,,,,,,121,camisa,Catalan,Sounds/cat_camisa.mp3,2020-06-05_15h35.36.712,TranslationElicitation_eng-prolific,3.2.4,MacIntel,60,5d5eb07672a0690001cee147,,1,0,81,16,1,80
,,,,,,,,,,,,,,,,,,,,,,,,,,,,,,,,,,,,,,,,,,n,7.351000071,FRIEN,FALSE,,,,,,,121,camisa,Catalan,Sounds/cat_camisa.mp3,2020-06-05_15h35.36.712,TranslationElicitation_eng-prolific,3.2.4,MacIntel,60,5d5eb07672a0690001cee147,,1,0,81,16,1,80
,,,,,,,,,,,,,,,,,,,,,,,,,,,,,,,,,,,,,,,,,,d,7.549999952,FRIEND,FALSE,,,,,,,121,camisa,Catalan,Sounds/cat_camisa.mp3,2020-06-05_15h35.36.712,TranslationElicitation_eng-prolific,3.2.4,MacIntel,60,5d5eb07672a0690001cee147,,1,0,81,16,1,80
,,,,,,,,,,,,,,,,,,,,,,,,,,,,,,,,,,,,,,,,,,return,7.934000015,FRIEND,FALSE,,,,,,,121,camisa,Catalan,Sounds/cat_camisa.mp3,2020-06-05_15h35.36.712,TranslationElicitation_eng-prolific,3.2.4,MacIntel,60,5d5eb07672a0690001cee147,7.934000015,1,0,81,16,1,80
,,,,,,,,,,,,,,,,,,,,,,,,,,,,,,,,,,,,,,,,,,,,,,,,,,,,121,camisa,Catalan,Sounds/cat_camisa.mp3,2020-06-05_15h35.36.712,TranslationElicitation_eng-prolific,3.2.4,MacIntel,60,5d5eb07672a0690001cee147,,1,0,81,16,1,80
,,,,,,,,,,,,,,,,,,,,,,,,,,,,,,,,,,,,,,,,,,b,7.068000078,B,FALSE,,,,,,,187,vaixell,Catalan,Sounds/cat_vaixell.mp3,2020-06-05_15h35.36.712,TranslationElicitation_eng-prolific,3.2.4,MacIntel,60,5d5eb07672a0690001cee147,,1,0,81,78,1,80
,,,,,,,,,,,,,,,,,,,,,,,,,,,,,,,,,,,,,,,,,,a,7.250999928,BA,FALSE,,,,,,,187,vaixell,Catalan,Sounds/cat_vaixell.mp3,2020-06-05_15h35.36.712,TranslationElicitation_eng-prolific,3.2.4,MacIntel,60,5d5eb07672a0690001cee147,,1,0,81,78,1,80
,,,,,,,,,,,,,,,,,,,,,,,,,,,,,,,,,,,,,,,,,,s,7.568000078,BAS,FALSE,,,,,,,187,vaixell,Catalan,Sounds/cat_vaixell.mp3,2020-06-05_15h35.36.712,TranslationElicitation_eng-prolific,3.2.4,MacIntel,60,5d5eb07672a0690001cee147,,1,0,81,78,1,80
,,,,,,,,,,,,,,,,,,,,,,,,,,,,,,,,,,,,,,,,,,k,7.717999935,BASK,FALSE,,,,,,,187,vaixell,Catalan,Sounds/cat_vaixell.mp3,2020-06-05_15h35.36.712,TranslationElicitation_eng-prolific,3.2.4,MacIntel,60,5d5eb07672a0690001cee147,,1,0,81,78,1,80
,,,,,,,,,,,,,,,,,,,,,,,,,,,,,,,,,,,,,,,,,,e,7.917999983,BASKE,FALSE,,,,,,,187,vaixell,Catalan,Sounds/cat_vaixell.mp3,2020-06-05_15h35.36.712,TranslationElicitation_eng-prolific,3.2.4,MacIntel,60,5d5eb07672a0690001cee147,,1,0,81,78,1,80
,,,,,,,,,,,,,,,,,,,,,,,,,,,,,,,,,,,,,,,,,,t,8.101999998,BASKET,FALSE,,,,,,,187,vaixell,Catalan,Sounds/cat_vaixell.mp3,2020-06-05_15h35.36.712,TranslationElicitation_eng-prolific,3.2.4,MacIntel,60,5d5eb07672a0690001cee147,,1,0,81,78,1,80
,,,,,,,,,,,,,,,,,,,,,,,,,,,,,,,,,,,,,,,,,,return,8.268000126,BASKET,FALSE,,,,,,,187,vaixell,Catalan,Sounds/cat_vaixell.mp3,2020-06-05_15h35.36.712,TranslationElicitation_eng-prolific,3.2.4,MacIntel,60,5d5eb07672a0690001cee147,8.268000126,1,0,81,78,1,80
,,,,,,,,,,,,,,,,,,,,,,,,,,,,,,,,,,,,,,,,,,,,,,,,,,,,187,vaixell,Catalan,Sounds/cat_vaixell.mp3,2020-06-05_15h35.36.712,TranslationElicitation_eng-prolific,3.2.4,MacIntel,60,5d5eb07672a0690001cee147,,1,0,81,78,1,80
,,,,,,,,,,,,,,,,,,,,,,,,,,,,,,,,,,,,,,,,,,g,3.93599987,G,FALSE,,,,,,,119,caixa,Catalan,Sounds/cat_caixa.mp3,2020-06-05_15h35.36.712,TranslationElicitation_eng-prolific,3.2.4,MacIntel,60,5d5eb07672a0690001cee147,,1,0,81,14,1,80
,,,,,,,,,,,,,,,,,,,,,,,,,,,,,,,,,,,,,,,,,,a,4.301999807,GA,FALSE,,,,,,,119,caixa,Catalan,Sounds/cat_caixa.mp3,2020-06-05_15h35.36.712,TranslationElicitation_eng-prolific,3.2.4,MacIntel,60,5d5eb07672a0690001cee147,,1,0,81,14,1,80
,,,,,,,,,,,,,,,,,,,,,,,,,,,,,,,,,,,,,,,,,,r,4.501999855,GAR,FALSE,,,,,,,119,caixa,Catalan,Sounds/cat_caixa.mp3,2020-06-05_15h35.36.712,TranslationElicitation_eng-prolific,3.2.4,MacIntel,60,5d5eb07672a0690001cee147,,1,0,81,14,1,80
,,,,,,,,,,,,,,,,,,,,,,,,,,,,,,,,,,,,,,,,,,d,4.733999968,GARD,FALSE,,,,,,,119,caixa,Catalan,Sounds/cat_caixa.mp3,2020-06-05_15h35.36.712,TranslationElicitation_eng-prolific,3.2.4,MacIntel,60,5d5eb07672a0690001cee147,,1,0,81,14,1,80
,,,,,,,,,,,,,,,,,,,,,,,,,,,,,,,,,,,,,,,,,,e,4.916999817,GARDE,FALSE,,,,,,,119,caixa,Catalan,Sounds/cat_caixa.mp3,2020-06-05_15h35.36.712,TranslationElicitation_eng-prolific,3.2.4,MacIntel,60,5d5eb07672a0690001cee147,,1,0,81,14,1,80
,,,,,,,,,,,,,,,,,,,,,,,,,,,,,,,,,,,,,,,,,,n,5.01699996,GARDEN,FALSE,,,,,,,119,caixa,Catalan,Sounds/cat_caixa.mp3,2020-06-05_15h35.36.712,TranslationElicitation_eng-prolific,3.2.4,MacIntel,60,5d5eb07672a0690001cee147,,1,0,81,14,1,80
,,,,,,,,,,,,,,,,,,,,,,,,,,,,,,,,,,,,,,,,,,return,5.299999952,GARDEN,FALSE,,,,,,,119,caixa,Catalan,Sounds/cat_caixa.mp3,2020-06-05_15h35.36.712,TranslationElicitation_eng-prolific,3.2.4,MacIntel,60,5d5eb07672a0690001cee147,5.299999952,1,0,81,14,1,80
,,,,,,,,,,,,,,,,,,,,,,,,,,,,,,,,,,,,,,,,,,,,,,,,,,,,119,caixa,Catalan,Sounds/cat_caixa.mp3,2020-06-05_15h35.36.712,TranslationElicitation_eng-prolific,3.2.4,MacIntel,60,5d5eb07672a0690001cee147,,1,0,81,14,1,80
,,,,,,,,,,,,,,,,,,,,,,,,,,,,,,,,,,,,,,,,,,f,3.183000088,F,FALSE,,,,,,,134,flor,Catalan,Sounds/cat_flor.mp3,2020-06-05_15h35.36.712,TranslationElicitation_eng-prolific,3.2.4,MacIntel,60,5d5eb07672a0690001cee147,,1,0,81,28,1,80
,,,,,,,,,,,,,,,,,,,,,,,,,,,,,,,,,,,,,,,,,,l,3.299999952,FL,FALSE,,,,,,,134,flor,Catalan,Sounds/cat_flor.mp3,2020-06-05_15h35.36.712,TranslationElicitation_eng-prolific,3.2.4,MacIntel,60,5d5eb07672a0690001cee147,,1,0,81,28,1,80
,,,,,,,,,,,,,,,,,,,,,,,,,,,,,,,,,,,,,,,,,,o,3.549999952,FLO,FALSE,,,,,,,134,flor,Catalan,Sounds/cat_flor.mp3,2020-06-05_15h35.36.712,TranslationElicitation_eng-prolific,3.2.4,MacIntel,60,5d5eb07672a0690001cee147,,1,0,81,28,1,80
,,,,,,,,,,,,,,,,,,,,,,,,,,,,,,,,,,,,,,,,,,w,3.684000015,FLOW,FALSE,,,,,,,134,flor,Catalan,Sounds/cat_flor.mp3,2020-06-05_15h35.36.712,TranslationElicitation_eng-prolific,3.2.4,MacIntel,60,5d5eb07672a0690001cee147,,1,0,81,28,1,80
,,,,,,,,,,,,,,,,,,,,,,,,,,,,,,,,,,,,,,,,,,e,3.799999952,FLOWE,FALSE,,,,,,,134,flor,Catalan,Sounds/cat_flor.mp3,2020-06-05_15h35.36.712,TranslationElicitation_eng-prolific,3.2.4,MacIntel,60,5d5eb07672a0690001cee147,,1,0,81,28,1,80
,,,,,,,,,,,,,,,,,,,,,,,,,,,,,,,,,,,,,,,,,,r,4.032999992,FLOWER,FALSE,,,,,,,134,flor,Catalan,Sounds/cat_flor.mp3,2020-06-05_15h35.36.712,TranslationElicitation_eng-prolific,3.2.4,MacIntel,60,5d5eb07672a0690001cee147,,1,0,81,28,1,80
,,,,,,,,,,,,,,,,,,,,,,,,,,,,,,,,,,,,,,,,,,return,4.268000126,FLOWER,FALSE,,,,,,,134,flor,Catalan,Sounds/cat_flor.mp3,2020-06-05_15h35.36.712,TranslationElicitation_eng-prolific,3.2.4,MacIntel,60,5d5eb07672a0690001cee147,4.268000126,1,0,81,28,1,80
,,,,,,,,,,,,,,,,,,,,,,,,,,,,,,,,,,,,,,,,,,,,,,,,,,,,134,flor,Catalan,Sounds/cat_flor.mp3,2020-06-05_15h35.36.712,TranslationElicitation_eng-prolific,3.2.4,MacIntel,60,5d5eb07672a0690001cee147,,1,0,81,28,1,80
,,,,,,,,,,,,,,,,,,,,,,,,,,,,,,,,,,,,,,,,,,f,2.46600008,F,FALSE,,,,,,,170,ploma,Catalan,Sounds/cat_ploma.mp3,2020-06-05_15h35.36.712,TranslationElicitation_eng-prolific,3.2.4,MacIntel,60,5d5eb07672a0690001cee147,,1,0,81,62,1,80
,,,,,,,,,,,,,,,,,,,,,,,,,,,,,,,,,,,,,,,,,,l,2.522000074,FL,FALSE,,,,,,,170,ploma,Catalan,Sounds/cat_ploma.mp3,2020-06-05_15h35.36.712,TranslationElicitation_eng-prolific,3.2.4,MacIntel,60,5d5eb07672a0690001cee147,,1,0,81,62,1,80
,,,,,,,,,,,,,,,,,,,,,,,,,,,,,,,,,,,,,,,,,,o,2.75,FLO,FALSE,,,,,,,170,ploma,Catalan,Sounds/cat_ploma.mp3,2020-06-05_15h35.36.712,TranslationElicitation_eng-prolific,3.2.4,MacIntel,60,5d5eb07672a0690001cee147,,1,0,81,62,1,80
,,,,,,,,,,,,,,,,,,,,,,,,,,,,,,,,,,,,,,,,,,w,2.801000118,FLOW,FALSE,,,,,,,170,ploma,Catalan,Sounds/cat_ploma.mp3,2020-06-05_15h35.36.712,TranslationElicitation_eng-prolific,3.2.4,MacIntel,60,5d5eb07672a0690001cee147,,1,0,81,62,1,80
,,,,,,,,,,,,,,,,,,,,,,,,,,,,,,,,,,,,,,,,,,e,2.900000095,FLOWE,FALSE,,,,,,,170,ploma,Catalan,Sounds/cat_ploma.mp3,2020-06-05_15h35.36.712,TranslationElicitation_eng-prolific,3.2.4,MacIntel,60,5d5eb07672a0690001cee147,,1,0,81,62,1,80
,,,,,,,,,,,,,,,,,,,,,,,,,,,,,,,,,,,,,,,,,,r,3.117000103,FLOWER,FALSE,,,,,,,170,ploma,Catalan,Sounds/cat_ploma.mp3,2020-06-05_15h35.36.712,TranslationElicitation_eng-prolific,3.2.4,MacIntel,60,5d5eb07672a0690001cee147,,1,0,81,62,1,80
,,,,,,,,,,,,,,,,,,,,,,,,,,,,,,,,,,,,,,,,,,s,3.317000151,FLOWERS,FALSE,,,,,,,170,ploma,Catalan,Sounds/cat_ploma.mp3,2020-06-05_15h35.36.712,TranslationElicitation_eng-prolific,3.2.4,MacIntel,60,5d5eb07672a0690001cee147,,1,0,81,62,1,80
,,,,,,,,,,,,,,,,,,,,,,,,,,,,,,,,,,,,,,,,,,return,3.552999973,FLOWERS,FALSE,,,,,,,170,ploma,Catalan,Sounds/cat_ploma.mp3,2020-06-05_15h35.36.712,TranslationElicitation_eng-prolific,3.2.4,MacIntel,60,5d5eb07672a0690001cee147,3.552999973,1,0,81,62,1,80
,,,,,,,,,,,,,,,,,,,,,,,,,,,,,,,,,,,,,,,,,,,,,,,,,,,,170,ploma,Catalan,Sounds/cat_ploma.mp3,2020-06-05_15h35.36.712,TranslationElicitation_eng-prolific,3.2.4,MacIntel,60,5d5eb07672a0690001cee147,,1,0,81,62,1,80
,,,,,,,,,,,,,,,,,,,,,,,,,,,,,,,,,,,,,,,,,,b,16.61899996,B,FALSE,,,,,,,176,samarreta,Catalan,Sounds/cat_samarreta.mp3,2020-06-05_15h35.36.712,TranslationElicitation_eng-prolific,3.2.4,MacIntel,60,5d5eb07672a0690001cee147,,1,0,81,68,1,80
,,,,,,,,,,,,,,,,,,,,,,,,,,,,,,,,,,,,,,,,,,o,16.79999995,BO,FALSE,,,,,,,176,samarreta,Catalan,Sounds/cat_samarreta.mp3,2020-06-05_15h35.36.712,TranslationElicitation_eng-prolific,3.2.4,MacIntel,60,5d5eb07672a0690001cee147,,1,0,81,68,1,80
,,,,,,,,,,,,,,,,,,,,,,,,,,,,,,,,,,,,,,,,,,y,16.96700001,BOY,FALSE,,,,,,,176,samarreta,Catalan,Sounds/cat_samarreta.mp3,2020-06-05_15h35.36.712,TranslationElicitation_eng-prolific,3.2.4,MacIntel,60,5d5eb07672a0690001cee147,,1,0,81,68,1,80
,,,,,,,,,,,,,,,,,,,,,,,,,,,,,,,,,,,,,,,,,,return,17.06699991,BOY,FALSE,,,,,,,176,samarreta,Catalan,Sounds/cat_samarreta.mp3,2020-06-05_15h35.36.712,TranslationElicitation_eng-prolific,3.2.4,MacIntel,60,5d5eb07672a0690001cee147,17.06699991,1,0,81,68,1,80
,,,,,,,,,,,,,,,,,,,,,,,,,,,,,,,,,,,,,,,,,,,,,,,,,,,,176,samarreta,Catalan,Sounds/cat_samarreta.mp3,2020-06-05_15h35.36.712,TranslationElicitation_eng-prolific,3.2.4,MacIntel,60,5d5eb07672a0690001cee147,,1,0,81,68,1,80
,,,,,,,,,,,,,,,,,,,,,,,,,,,,,,,,,,,,,,,,,,b,4.034000158,B,FALSE,,,,,,,171,pollastre,Catalan,Sounds/cat_pollastre.mp3,2020-06-05_15h35.36.712,TranslationElicitation_eng-prolific,3.2.4,MacIntel,60,5d5eb07672a0690001cee147,,1,0,81,63,1,80
,,,,,,,,,,,,,,,,,,,,,,,,,,,,,,,,,,,,,,,,,,r,4.21600008,BR,FALSE,,,,,,,171,pollastre,Catalan,Sounds/cat_pollastre.mp3,2020-06-05_15h35.36.712,TranslationElicitation_eng-prolific,3.2.4,MacIntel,60,5d5eb07672a0690001cee147,,1,0,81,63,1,80
,,,,,,,,,,,,,,,,,,,,,,,,,,,,,,,,,,,,,,,,,,e,4.350000143,BRE,FALSE,,,,,,,171,pollastre,Catalan,Sounds/cat_pollastre.mp3,2020-06-05_15h35.36.712,TranslationElicitation_eng-prolific,3.2.4,MacIntel,60,5d5eb07672a0690001cee147,,1,0,81,63,1,80
,,,,,,,,,,,,,,,,,,,,,,,,,,,,,,,,,,,,,,,,,,a,4.617000103,BREA,FALSE,,,,,,,171,pollastre,Catalan,Sounds/cat_pollastre.mp3,2020-06-05_15h35.36.712,TranslationElicitation_eng-prolific,3.2.4,MacIntel,60,5d5eb07672a0690001cee147,,1,0,81,63,1,80
,,,,,,,,,,,,,,,,,,,,,,,,,,,,,,,,,,,,,,,,,,d,4.717000008,BREAD,FALSE,,,,,,,171,pollastre,Catalan,Sounds/cat_pollastre.mp3,2020-06-05_15h35.36.712,TranslationElicitation_eng-prolific,3.2.4,MacIntel,60,5d5eb07672a0690001cee147,,1,0,81,63,1,80
,,,,,,,,,,,,,,,,,,,,,,,,,,,,,,,,,,,,,,,,,,return,4.933000088,BREAD,FALSE,,,,,,,171,pollastre,Catalan,Sounds/cat_pollastre.mp3,2020-06-05_15h35.36.712,TranslationElicitation_eng-prolific,3.2.4,MacIntel,60,5d5eb07672a0690001cee147,4.933000088,1,0,81,63,1,80
,,,,,,,,,,,,,,,,,,,,,,,,,,,,,,,,,,,,,,,,,,,,,,,,,,,,171,pollastre,Catalan,Sounds/cat_pollastre.mp3,2020-06-05_15h35.36.712,TranslationElicitation_eng-prolific,3.2.4,MacIntel,60,5d5eb07672a0690001cee147,,1,0,81,63,1,80
,,,,,,,,,,,,,,,,,,,,,,,,,,,,,,,,,,,,,,,,,,f,2.217000008,F,FALSE,,,,,,,163,papallona,Catalan,Sounds/cat_papallona.mp3,2020-06-05_15h35.36.712,TranslationElicitation_eng-prolific,3.2.4,MacIntel,60,5d5eb07672a0690001cee147,,1,0,81,55,1,80
,,,,,,,,,,,,,,,,,,,,,,,,,,,,,,,,,,,,,,,,,,a,2.416000128,FA,FALSE,,,,,,,163,papallona,Catalan,Sounds/cat_papallona.mp3,2020-06-05_15h35.36.712,TranslationElicitation_eng-prolific,3.2.4,MacIntel,60,5d5eb07672a0690001cee147,,1,0,81,55,1,80
,,,,,,,,,,,,,,,,,,,,,,,,,,,,,,,,,,,,,,,,,,t,2.600000143,FAT,FALSE,,,,,,,163,papallona,Catalan,Sounds/cat_papallona.mp3,2020-06-05_15h35.36.712,TranslationElicitation_eng-prolific,3.2.4,MacIntel,60,5d5eb07672a0690001cee147,,1,0,81,55,1,80
,,,,,,,,,,,,,,,,,,,,,,,,,,,,,,,,,,,,,,,,,,h,2.766000032,FATH,FALSE,,,,,,,163,papallona,Catalan,Sounds/cat_papallona.mp3,2020-06-05_15h35.36.712,TranslationElicitation_eng-prolific,3.2.4,MacIntel,60,5d5eb07672a0690001cee147,,1,0,81,55,1,80
,,,,,,,,,,,,,,,,,,,,,,,,,,,,,,,,,,,,,,,,,,e,2.866000175,FATHE,FALSE,,,,,,,163,papallona,Catalan,Sounds/cat_papallona.mp3,2020-06-05_15h35.36.712,TranslationElicitation_eng-prolific,3.2.4,MacIntel,60,5d5eb07672a0690001cee147,,1,0,81,55,1,80
,,,,,,,,,,,,,,,,,,,,,,,,,,,,,,,,,,,,,,,,,,r,2.967000008,FATHER,FALSE,,,,,,,163,papallona,Catalan,Sounds/cat_papallona.mp3,2020-06-05_15h35.36.712,TranslationElicitation_eng-prolific,3.2.4,MacIntel,60,5d5eb07672a0690001cee147,,1,0,81,55,1,80
,,,,,,,,,,,,,,,,,,,,,,,,,,,,,,,,,,,,,,,,,,return,3.383000135,FATHER,FALSE,,,,,,,163,papallona,Catalan,Sounds/cat_papallona.mp3,2020-06-05_15h35.36.712,TranslationElicitation_eng-prolific,3.2.4,MacIntel,60,5d5eb07672a0690001cee147,3.383000135,1,0,81,55,1,80
,,,,,,,,,,,,,,,,,,,,,,,,,,,,,,,,,,,,,,,,,,,,,,,,,,,,163,papallona,Catalan,Sounds/cat_papallona.mp3,2020-06-05_15h35.36.712,TranslationElicitation_eng-prolific,3.2.4,MacIntel,60,5d5eb07672a0690001cee147,,1,0,81,55,1,80
,,,,,,,,,,,,,,,,,,,,,,,,,,,,,,,,,,,,,,,,,,o,3.100000143,O,FALSE,,,,,,,184,ull,Catalan,Sounds/cat_ull.mp3,2020-06-05_15h35.36.712,TranslationElicitation_eng-prolific,3.2.4,MacIntel,60,5d5eb07672a0690001cee147,,1,0,81,75,1,80
,,,,,,,,,,,,,,,,,,,,,,,,,,,,,,,,,,,,,,,,,,h,3.416000128,OH,FALSE,,,,,,,184,ull,Catalan,Sounds/cat_ull.mp3,2020-06-05_15h35.36.712,TranslationElicitation_eng-prolific,3.2.4,MacIntel,60,5d5eb07672a0690001cee147,,1,0,81,75,1,80
,,,,,,,,,,,,,,,,,,,,,,,,,,,,,,,,,,,,,,,,,,return,4.01699996,OH,FALSE,,,,,,,184,ull,Catalan,Sounds/cat_ull.mp3,2020-06-05_15h35.36.712,TranslationElicitation_eng-prolific,3.2.4,MacIntel,60,5d5eb07672a0690001cee147,4.01699996,1,0,81,75,1,80
,,,,,,,,,,,,,,,,,,,,,,,,,,,,,,,,,,,,,,,,,,,,,,,,,,,,184,ull,Catalan,Sounds/cat_ull.mp3,2020-06-05_15h35.36.712,TranslationElicitation_eng-prolific,3.2.4,MacIntel,60,5d5eb07672a0690001cee147,,1,0,81,75,1,80
,,,,,,,,,,,,,,,,,,,,,,,,,,,,,,,,,,,,,,,,,,g,5.350000143,G,FALSE,,,,,,,143,globus,Catalan,Sounds/cat_globus.mp3,2020-06-05_15h35.36.712,TranslationElicitation_eng-prolific,3.2.4,MacIntel,60,5d5eb07672a0690001cee147,,1,0,81,37,1,80
,,,,,,,,,,,,,,,,,,,,,,,,,,,,,,,,,,,,,,,,,,r,5.634000063,GR,FALSE,,,,,,,143,globus,Catalan,Sounds/cat_globus.mp3,2020-06-05_15h35.36.712,TranslationElicitation_eng-prolific,3.2.4,MacIntel,60,5d5eb07672a0690001cee147,,1,0,81,37,1,80
,,,,,,,,,,,,,,,,,,,,,,,,,,,,,,,,,,,,,,,,,,e,5.784000158,GRE,FALSE,,,,,,,143,globus,Catalan,Sounds/cat_globus.mp3,2020-06-05_15h35.36.712,TranslationElicitation_eng-prolific,3.2.4,MacIntel,60,5d5eb07672a0690001cee147,,1,0,81,37,1,80
,,,,,,,,,,,,,,,,,,,,,,,,,,,,,,,,,,,,,,,,,,a,6.001000166,GREA,FALSE,,,,,,,143,globus,Catalan,Sounds/cat_globus.mp3,2020-06-05_15h35.36.712,TranslationElicitation_eng-prolific,3.2.4,MacIntel,60,5d5eb07672a0690001cee147,,1,0,81,37,1,80
,,,,,,,,,,,,,,,,,,,,,,,,,,,,,,,,,,,,,,,,,,t,6.217000008,GREAT,FALSE,,,,,,,143,globus,Catalan,Sounds/cat_globus.mp3,2020-06-05_15h35.36.712,TranslationElicitation_eng-prolific,3.2.4,MacIntel,60,5d5eb07672a0690001cee147,,1,0,81,37,1,80
,,,,,,,,,,,,,,,,,,,,,,,,,,,,,,,,,,,,,,,,,,return,6.433000088,GREAT,FALSE,,,,,,,143,globus,Catalan,Sounds/cat_globus.mp3,2020-06-05_15h35.36.712,TranslationElicitation_eng-prolific,3.2.4,MacIntel,60,5d5eb07672a0690001cee147,6.433000088,1,0,81,37,1,80
,,,,,,,,,,,,,,,,,,,,,,,,,,,,,,,,,,,,,,,,,,,,,,,,,,,,143,globus,Catalan,Sounds/cat_globus.mp3,2020-06-05_15h35.36.712,TranslationElicitation_eng-prolific,3.2.4,MacIntel,60,5d5eb07672a0690001cee147,,1,0,81,37,1,80
,,,,,,,,,,,,,,,,,,,,,,,,,,,,,,,,,,,,,,,,,,t,6.38499999,T,FALSE,,,,,,,178,taronja,Catalan,Sounds/cat_taronja.mp3,2020-06-05_15h35.36.712,TranslationElicitation_eng-prolific,3.2.4,MacIntel,60,5d5eb07672a0690001cee147,,1,0,81,70,1,80
,,,,,,,,,,,,,,,,,,,,,,,,,,,,,,,,,,,,,,,,,,e,6.785000086,TE,FALSE,,,,,,,178,taronja,Catalan,Sounds/cat_taronja.mp3,2020-06-05_15h35.36.712,TranslationElicitation_eng-prolific,3.2.4,MacIntel,60,5d5eb07672a0690001cee147,,1,0,81,70,1,80
,,,,,,,,,,,,,,,,,,,,,,,,,,,,,,,,,,,,,,,,,,r,7.085999966,TER,FALSE,,,,,,,178,taronja,Catalan,Sounds/cat_taronja.mp3,2020-06-05_15h35.36.712,TranslationElicitation_eng-prolific,3.2.4,MacIntel,60,5d5eb07672a0690001cee147,,1,0,81,70,1,80
,,,,,,,,,,,,,,,,,,,,,,,,,,,,,,,,,,,,,,,,,,r,7.269000053,TERR,FALSE,,,,,,,178,taronja,Catalan,Sounds/cat_taronja.mp3,2020-06-05_15h35.36.712,TranslationElicitation_eng-prolific,3.2.4,MacIntel,60,5d5eb07672a0690001cee147,,1,0,81,70,1,80
,,,,,,,,,,,,,,,,,,,,,,,,,,,,,,,,,,,,,,,,,,i,7.484999895,TERRI,FALSE,,,,,,,178,taronja,Catalan,Sounds/cat_taronja.mp3,2020-06-05_15h35.36.712,TranslationElicitation_eng-prolific,3.2.4,MacIntel,60,5d5eb07672a0690001cee147,,1,0,81,70,1,80
,,,,,,,,,,,,,,,,,,,,,,,,,,,,,,,,,,,,,,,,,,f,7.619999886,TERRIF,FALSE,,,,,,,178,taronja,Catalan,Sounds/cat_taronja.mp3,2020-06-05_15h35.36.712,TranslationElicitation_eng-prolific,3.2.4,MacIntel,60,5d5eb07672a0690001cee147,,1,0,81,70,1,80
,,,,,,,,,,,,,,,,,,,,,,,,,,,,,,,,,,,,,,,,,,i,7.884000063,TERRIFI,FALSE,,,,,,,178,taronja,Catalan,Sounds/cat_taronja.mp3,2020-06-05_15h35.36.712,TranslationElicitation_eng-prolific,3.2.4,MacIntel,60,5d5eb07672a0690001cee147,,1,0,81,70,1,80
,,,,,,,,,,,,,,,,,,,,,,,,,,,,,,,,,,,,,,,,,,backspace,8.38499999,TERRIF,TRUE,,,,,,,178,taronja,Catalan,Sounds/cat_taronja.mp3,2020-06-05_15h35.36.712,TranslationElicitation_eng-prolific,3.2.4,MacIntel,60,5d5eb07672a0690001cee147,,1,0,81,70,1,80
,,,,,,,,,,,,,,,,,,,,,,,,,,,,,,,,,,,,,,,,,,backspace,8.568000078,TERRI,TRUE,,,,,,,178,taronja,Catalan,Sounds/cat_taronja.mp3,2020-06-05_15h35.36.712,TranslationElicitation_eng-prolific,3.2.4,MacIntel,60,5d5eb07672a0690001cee147,,1,0,81,70,1,80
,,,,,,,,,,,,,,,,,,,,,,,,,,,,,,,,,,,,,,,,,,i,9.470999956,TERRII,TRUE,,,,,,,178,taronja,Catalan,Sounds/cat_taronja.mp3,2020-06-05_15h35.36.712,TranslationElicitation_eng-prolific,3.2.4,MacIntel,60,5d5eb07672a0690001cee147,,1,0,81,70,1,80
,,,,,,,,,,,,,,,,,,,,,,,,,,,,,,,,,,,,,,,,,,c,9.585000038,TERRIIC,TRUE,,,,,,,178,taronja,Catalan,Sounds/cat_taronja.mp3,2020-06-05_15h35.36.712,TranslationElicitation_eng-prolific,3.2.4,MacIntel,60,5d5eb07672a0690001cee147,,1,0,81,70,1,80
,,,,,,,,,,,,,,,,,,,,,,,,,,,,,,,,,,,,,,,,,,backspace,10.4849999,TERRII,TRUE,,,,,,,178,taronja,Catalan,Sounds/cat_taronja.mp3,2020-06-05_15h35.36.712,TranslationElicitation_eng-prolific,3.2.4,MacIntel,60,5d5eb07672a0690001cee147,,1,0,81,70,1,80
,,,,,,,,,,,,,,,,,,,,,,,,,,,,,,,,,,,,,,,,,,backspace,10.93600011,TERRI,TRUE,,,,,,,178,taronja,Catalan,Sounds/cat_taronja.mp3,2020-06-05_15h35.36.712,TranslationElicitation_eng-prolific,3.2.4,MacIntel,60,5d5eb07672a0690001cee147,,1,0,81,70,1,80
,,,,,,,,,,,,,,,,,,,,,,,,,,,,,,,,,,,,,,,,,,f,11.36899996,TERRIF,TRUE,,,,,,,178,taronja,Catalan,Sounds/cat_taronja.mp3,2020-06-05_15h35.36.712,TranslationElicitation_eng-prolific,3.2.4,MacIntel,60,5d5eb07672a0690001cee147,,1,0,81,70,1,80
,,,,,,,,,,,,,,,,,,,,,,,,,,,,,,,,,,,,,,,,,,i,11.55200005,TERRIFI,TRUE,,,,,,,178,taronja,Catalan,Sounds/cat_taronja.mp3,2020-06-05_15h35.36.712,TranslationElicitation_eng-prolific,3.2.4,MacIntel,60,5d5eb07672a0690001cee147,,1,0,81,70,1,80
,,,,,,,,,,,,,,,,,,,,,,,,,,,,,,,,,,,,,,,,,,c,11.65100002,TERRIFIC,TRUE,,,,,,,178,taronja,Catalan,Sounds/cat_taronja.mp3,2020-06-05_15h35.36.712,TranslationElicitation_eng-prolific,3.2.4,MacIntel,60,5d5eb07672a0690001cee147,,1,0,81,70,1,80
,,,,,,,,,,,,,,,,,,,,,,,,,,,,,,,,,,,,,,,,,,backspace,12.602,TERRIFI,TRUE,,,,,,,178,taronja,Catalan,Sounds/cat_taronja.mp3,2020-06-05_15h35.36.712,TranslationElicitation_eng-prolific,3.2.4,MacIntel,60,5d5eb07672a0690001cee147,,1,0,81,70,1,80
,,,,,,,,,,,,,,,,,,,,,,,,,,,,,,,,,,,,,,,,,,backspace,12.80200005,TERRIF,TRUE,,,,,,,178,taronja,Catalan,Sounds/cat_taronja.mp3,2020-06-05_15h35.36.712,TranslationElicitation_eng-prolific,3.2.4,MacIntel,60,5d5eb07672a0690001cee147,,1,0,81,70,1,80
,,,,,,,,,,,,,,,,,,,,,,,,,,,,,,,,,,,,,,,,,,backspace,12.95300007,TERRI,TRUE,,,,,,,178,taronja,Catalan,Sounds/cat_taronja.mp3,2020-06-05_15h35.36.712,TranslationElicitation_eng-prolific,3.2.4,MacIntel,60,5d5eb07672a0690001cee147,,1,0,81,70,1,80
,,,,,,,,,,,,,,,,,,,,,,,,,,,,,,,,,,,,,,,,,,backspace,13.10299993,TERR,TRUE,,,,,,,178,taronja,Catalan,Sounds/cat_taronja.mp3,2020-06-05_15h35.36.712,TranslationElicitation_eng-prolific,3.2.4,MacIntel,60,5d5eb07672a0690001cee147,,1,0,81,70,1,80
,,,,,,,,,,,,,,,,,,,,,,,,,,,,,,,,,,,,,,,,,,backspace,13.25200009,TER,TRUE,,,,,,,178,taronja,Catalan,Sounds/cat_taronja.mp3,2020-06-05_15h35.36.712,TranslationElicitation_eng-prolific,3.2.4,MacIntel,60,5d5eb07672a0690001cee147,,1,0,81,70,1,80
,,,,,,,,,,,,,,,,,,,,,,,,,,,,,,,,,,,,,,,,,,i,13.71799994,TERI,TRUE,,,,,,,178,taronja,Catalan,Sounds/cat_taronja.mp3,2020-06-05_15h35.36.712,TranslationElicitation_eng-prolific,3.2.4,MacIntel,60,5d5eb07672a0690001cee147,,1,0,81,70,1,80
,,,,,,,,,,,,,,,,,,,,,,,,,,,,,,,,,,,,,,,,,,f,13.88499999,TERIF,TRUE,,,,,,,178,taronja,Catalan,Sounds/cat_taronja.mp3,2020-06-05_15h35.36.712,TranslationElicitation_eng-prolific,3.2.4,MacIntel,60,5d5eb07672a0690001cee147,,1,0,81,70,1,80
,,,,,,,,,,,,,,,,,,,,,,,,,,,,,,,,,,,,,,,,,,f,14.03600001,TERIFF,TRUE,,,,,,,178,taronja,Catalan,Sounds/cat_taronja.mp3,2020-06-05_15h35.36.712,TranslationElicitation_eng-prolific,3.2.4,MacIntel,60,5d5eb07672a0690001cee147,,1,0,81,70,1,80
,,,,,,,,,,,,,,,,,,,,,,,,,,,,,,,,,,,,,,,,,,i,14.13499999,TERIFFI,TRUE,,,,,,,178,taronja,Catalan,Sounds/cat_taronja.mp3,2020-06-05_15h35.36.712,TranslationElicitation_eng-prolific,3.2.4,MacIntel,60,5d5eb07672a0690001cee147,,1,0,81,70,1,80
,,,,,,,,,,,,,,,,,,,,,,,,,,,,,,,,,,,,,,,,,,c,14.25200009,TERIFFIC,TRUE,,,,,,,178,taronja,Catalan,Sounds/cat_taronja.mp3,2020-06-05_15h35.36.712,TranslationElicitation_eng-prolific,3.2.4,MacIntel,60,5d5eb07672a0690001cee147,,1,0,81,70,1,80
,,,,,,,,,,,,,,,,,,,,,,,,,,,,,,,,,,,,,,,,,,backspace,16.2190001,TERIFFI,TRUE,,,,,,,178,taronja,Catalan,Sounds/cat_taronja.mp3,2020-06-05_15h35.36.712,TranslationElicitation_eng-prolific,3.2.4,MacIntel,60,5d5eb07672a0690001cee147,,1,0,81,70,1,80
,,,,,,,,,,,,,,,,,,,,,,,,,,,,,,,,,,,,,,,,,,backspace,16.41899991,TERIFF,TRUE,,,,,,,178,taronja,Catalan,Sounds/cat_taronja.mp3,2020-06-05_15h35.36.712,TranslationElicitation_eng-prolific,3.2.4,MacIntel,60,5d5eb07672a0690001cee147,,1,0,81,70,1,80
,,,,,,,,,,,,,,,,,,,,,,,,,,,,,,,,,,,,,,,,,,backspace,16.59200001,TERIF,TRUE,,,,,,,178,taronja,Catalan,Sounds/cat_taronja.mp3,2020-06-05_15h35.36.712,TranslationElicitation_eng-prolific,3.2.4,MacIntel,60,5d5eb07672a0690001cee147,,1,0,81,70,1,80
,,,,,,,,,,,,,,,,,,,,,,,,,,,,,,,,,,,,,,,,,,backspace,16.76900005,TERI,TRUE,,,,,,,178,taronja,Catalan,Sounds/cat_taronja.mp3,2020-06-05_15h35.36.712,TranslationElicitation_eng-prolific,3.2.4,MacIntel,60,5d5eb07672a0690001cee147,,1,0,81,70,1,80
,,,,,,,,,,,,,,,,,,,,,,,,,,,,,,,,,,,,,,,,,,backspace,16.93600011,TER,TRUE,,,,,,,178,taronja,Catalan,Sounds/cat_taronja.mp3,2020-06-05_15h35.36.712,TranslationElicitation_eng-prolific,3.2.4,MacIntel,60,5d5eb07672a0690001cee147,,1,0,81,70,1,80
,,,,,,,,,,,,,,,,,,,,,,,,,,,,,,,,,,,,,,,,,,backspace,17.11899996,TE,TRUE,,,,,,,178,taronja,Catalan,Sounds/cat_taronja.mp3,2020-06-05_15h35.36.712,TranslationElicitation_eng-prolific,3.2.4,MacIntel,60,5d5eb07672a0690001cee147,,1,0,81,70,1,80
,,,,,,,,,,,,,,,,,,,,,,,,,,,,,,,,,,,,,,,,,,backspace,17.48600006,T,TRUE,,,,,,,178,taronja,Catalan,Sounds/cat_taronja.mp3,2020-06-05_15h35.36.712,TranslationElicitation_eng-prolific,3.2.4,MacIntel,60,5d5eb07672a0690001cee147,,1,0,81,70,1,80
,,,,,,,,,,,,,,,,,,,,,,,,,,,,,,,,,,,,,,,,,,e,19.30200005,TE,TRUE,,,,,,,178,taronja,Catalan,Sounds/cat_taronja.mp3,2020-06-05_15h35.36.712,TranslationElicitation_eng-prolific,3.2.4,MacIntel,60,5d5eb07672a0690001cee147,,1,0,81,70,1,80
,,,,,,,,,,,,,,,,,,,,,,,,,,,,,,,,,,,,,,,,,,r,19.58599997,TER,TRUE,,,,,,,178,taronja,Catalan,Sounds/cat_taronja.mp3,2020-06-05_15h35.36.712,TranslationElicitation_eng-prolific,3.2.4,MacIntel,60,5d5eb07672a0690001cee147,,1,0,81,70,1,80
,,,,,,,,,,,,,,,,,,,,,,,,,,,,,,,,,,,,,,,,,,i,19.7190001,TERI,TRUE,,,,,,,178,taronja,Catalan,Sounds/cat_taronja.mp3,2020-06-05_15h35.36.712,TranslationElicitation_eng-prolific,3.2.4,MacIntel,60,5d5eb07672a0690001cee147,,1,0,81,70,1,80
,,,,,,,,,,,,,,,,,,,,,,,,,,,,,,,,,,,,,,,,,,f,19.88599992,TERIF,TRUE,,,,,,,178,taronja,Catalan,Sounds/cat_taronja.mp3,2020-06-05_15h35.36.712,TranslationElicitation_eng-prolific,3.2.4,MacIntel,60,5d5eb07672a0690001cee147,,1,0,81,70,1,80
,,,,,,,,,,,,,,,,,,,,,,,,,,,,,,,,,,,,,,,,,,f,20.03600001,TERIFF,TRUE,,,,,,,178,taronja,Catalan,Sounds/cat_taronja.mp3,2020-06-05_15h35.36.712,TranslationElicitation_eng-prolific,3.2.4,MacIntel,60,5d5eb07672a0690001cee147,,1,0,81,70,1,80
,,,,,,,,,,,,,,,,,,,,,,,,,,,,,,,,,,,,,,,,,,i,20.17000008,TERIFFI,TRUE,,,,,,,178,taronja,Catalan,Sounds/cat_taronja.mp3,2020-06-05_15h35.36.712,TranslationElicitation_eng-prolific,3.2.4,MacIntel,60,5d5eb07672a0690001cee147,,1,0,81,70,1,80
,,,,,,,,,,,,,,,,,,,,,,,,,,,,,,,,,,,,,,,,,,c,20.25300002,TERIFFIC,TRUE,,,,,,,178,taronja,Catalan,Sounds/cat_taronja.mp3,2020-06-05_15h35.36.712,TranslationElicitation_eng-prolific,3.2.4,MacIntel,60,5d5eb07672a0690001cee147,,1,0,81,70,1,80
,,,,,,,,,,,,,,,,,,,,,,,,,,,,,,,,,,,,,,,,,,return,20.51900005,TERIFFIC,TRUE,,,,,,,178,taronja,Catalan,Sounds/cat_taronja.mp3,2020-06-05_15h35.36.712,TranslationElicitation_eng-prolific,3.2.4,MacIntel,60,5d5eb07672a0690001cee147,20.51900005,1,0,81,70,1,80
,,,,,,,,,,,,,,,,,,,,,,,,,,,,,,,,,,,,,,,,,,,,,,,,,,,,178,taronja,Catalan,Sounds/cat_taronja.mp3,2020-06-05_15h35.36.712,TranslationElicitation_eng-prolific,3.2.4,MacIntel,60,5d5eb07672a0690001cee147,,1,0,81,70,1,80
,,,,,,,,,,,,,,,,,,,,,,,,,,,,,,,,,,,,,,,,,,g,7.883999825,G,FALSE,,,,,,,166,peu,Catalan,Sounds/cat_peu.mp3,2020-06-05_15h35.36.712,TranslationElicitation_eng-prolific,3.2.4,MacIntel,60,5d5eb07672a0690001cee147,,1,0,81,58,1,80
,,,,,,,,,,,,,,,,,,,,,,,,,,,,,,,,,,,,,,,,,,o,8.118000031,GO,FALSE,,,,,,,166,peu,Catalan,Sounds/cat_peu.mp3,2020-06-05_15h35.36.712,TranslationElicitation_eng-prolific,3.2.4,MacIntel,60,5d5eb07672a0690001cee147,,1,0,81,58,1,80
,,,,,,,,,,,,,,,,,,,,,,,,,,,,,,,,,,,,,,,,,,o,8.251999855,GOO,FALSE,,,,,,,166,peu,Catalan,Sounds/cat_peu.mp3,2020-06-05_15h35.36.712,TranslationElicitation_eng-prolific,3.2.4,MacIntel,60,5d5eb07672a0690001cee147,,1,0,81,58,1,80
,,,,,,,,,,,,,,,,,,,,,,,,,,,,,,,,,,,,,,,,,,d,8.368000031,GOOD,FALSE,,,,,,,166,peu,Catalan,Sounds/cat_peu.mp3,2020-06-05_15h35.36.712,TranslationElicitation_eng-prolific,3.2.4,MacIntel,60,5d5eb07672a0690001cee147,,1,0,81,58,1,80
,,,,,,,,,,,,,,,,,,,,,,,,,,,,,,,,,,,,,,,,,,return,8.618000031,GOOD,FALSE,,,,,,,166,peu,Catalan,Sounds/cat_peu.mp3,2020-06-05_15h35.36.712,TranslationElicitation_eng-prolific,3.2.4,MacIntel,60,5d5eb07672a0690001cee147,8.618000031,1,0,81,58,1,80
,,,,,,,,,,,,,,,,,,,,,,,,,,,,,,,,,,,,,,,,,,,,,,,,,,,,166,peu,Catalan,Sounds/cat_peu.mp3,2020-06-05_15h35.36.712,TranslationElicitation_eng-prolific,3.2.4,MacIntel,60,5d5eb07672a0690001cee147,,1,0,81,58,1,80
,,,,,,,,,,,,,,,,,,,,,,,,,,,,,,,,,,,,,,,,,,d,2.549999952,D,FALSE,,,,,,,129,dit,Catalan,Sounds/cat_dit.mp3,2020-06-05_15h35.36.712,TranslationElicitation_eng-prolific,3.2.4,MacIntel,60,5d5eb07672a0690001cee147,,1,0,81,23,1,80
,,,,,,,,,,,,,,,,,,,,,,,,,,,,,,,,,,,,,,,,,,e,2.899999857,DE,FALSE,,,,,,,129,dit,Catalan,Sounds/cat_dit.mp3,2020-06-05_15h35.36.712,TranslationElicitation_eng-prolific,3.2.4,MacIntel,60,5d5eb07672a0690001cee147,,1,0,81,23,1,80
,,,,,,,,,,,,,,,,,,,,,,,,,,,,,,,,,,,,,,,,,,e,3.066999912,DEE,FALSE,,,,,,,129,dit,Catalan,Sounds/cat_dit.mp3,2020-06-05_15h35.36.712,TranslationElicitation_eng-prolific,3.2.4,MacIntel,60,5d5eb07672a0690001cee147,,1,0,81,23,1,80
,,,,,,,,,,,,,,,,,,,,,,,,,,,,,,,,,,,,,,,,,,d,3.217000008,DEED,FALSE,,,,,,,129,dit,Catalan,Sounds/cat_dit.mp3,2020-06-05_15h35.36.712,TranslationElicitation_eng-prolific,3.2.4,MacIntel,60,5d5eb07672a0690001cee147,,1,0,81,23,1,80
,,,,,,,,,,,,,,,,,,,,,,,,,,,,,,,,,,,,,,,,,,return,4.652999878,DEED,FALSE,,,,,,,129,dit,Catalan,Sounds/cat_dit.mp3,2020-06-05_15h35.36.712,TranslationElicitation_eng-prolific,3.2.4,MacIntel,60,5d5eb07672a0690001cee147,4.652999878,1,0,81,23,1,80
,,,,,,,,,,,,,,,,,,,,,,,,,,,,,,,,,,,,,,,,,,,,,,,,,,,,129,dit,Catalan,Sounds/cat_dit.mp3,2020-06-05_15h35.36.712,TranslationElicitation_eng-prolific,3.2.4,MacIntel,60,5d5eb07672a0690001cee147,,1,0,81,23,1,80
,,,,,,,,,,,,,,,,,,,,,,,,,,,,,,,,,,,,,,,,,,n,4.451999903,N,FALSE,,,,,,,118,bou,Catalan,Sounds/cat_bou.mp3,2020-06-05_15h35.36.712,TranslationElicitation_eng-prolific,3.2.4,MacIntel,60,5d5eb07672a0690001cee147,,1,0,81,13,1,80
,,,,,,,,,,,,,,,,,,,,,,,,,,,,,,,,,,,,,,,,,,o,4.551999807,NO,FALSE,,,,,,,118,bou,Catalan,Sounds/cat_bou.mp3,2020-06-05_15h35.36.712,TranslationElicitation_eng-prolific,3.2.4,MacIntel,60,5d5eb07672a0690001cee147,,1,0,81,13,1,80
,,,,,,,,,,,,,,,,,,,,,,,,,,,,,,,,,,,,,,,,,,n,5.349999905,NON,FALSE,,,,,,,118,bou,Catalan,Sounds/cat_bou.mp3,2020-06-05_15h35.36.712,TranslationElicitation_eng-prolific,3.2.4,MacIntel,60,5d5eb07672a0690001cee147,,1,0,81,13,1,80
,,,,,,,,,,,,,,,,,,,,,,,,,,,,,,,,,,,,,,,,,,e,5.466999769,NONE,FALSE,,,,,,,118,bou,Catalan,Sounds/cat_bou.mp3,2020-06-05_15h35.36.712,TranslationElicitation_eng-prolific,3.2.4,MacIntel,60,5d5eb07672a0690001cee147,,1,0,81,13,1,80
,,,,,,,,,,,,,,,,,,,,,,,,,,,,,,,,,,,,,,,,,,return,5.665999889,NONE,FALSE,,,,,,,118,bou,Catalan,Sounds/cat_bou.mp3,2020-06-05_15h35.36.712,TranslationElicitation_eng-prolific,3.2.4,MacIntel,60,5d5eb07672a0690001cee147,5.665999889,1,0,81,13,1,80
,,,,,,,,,,,,,,,,,,,,,,,,,,,,,,,,,,,,,,,,,,,,,,,,,,,,118,bou,Catalan,Sounds/cat_bou.mp3,2020-06-05_15h35.36.712,TranslationElicitation_eng-prolific,3.2.4,MacIntel,60,5d5eb07672a0690001cee147,,1,0,81,13,1,80
,,,,,,,,,,,,,,,,,,,,,,,,,,,,,,,,,,,,,,,,,,f,4.551000118,F,FALSE,,,,,,,137,fulla,Catalan,Sounds/cat_fulla.mp3,2020-06-05_15h35.36.712,TranslationElicitation_eng-prolific,3.2.4,MacIntel,60,5d5eb07672a0690001cee147,,1,0,81,31,1,80
,,,,,,,,,,,,,,,,,,,,,,,,,,,,,,,,,,,,,,,,,,a,4.884000063,FA,FALSE,,,,,,,137,fulla,Catalan,Sounds/cat_fulla.mp3,2020-06-05_15h35.36.712,TranslationElicitation_eng-prolific,3.2.4,MacIntel,60,5d5eb07672a0690001cee147,,1,0,81,31,1,80
,,,,,,,,,,,,,,,,,,,,,,,,,,,,,,,,,,,,,,,,,,t,5.151000023,FAT,FALSE,,,,,,,137,fulla,Catalan,Sounds/cat_fulla.mp3,2020-06-05_15h35.36.712,TranslationElicitation_eng-prolific,3.2.4,MacIntel,60,5d5eb07672a0690001cee147,,1,0,81,31,1,80
,,,,,,,,,,,,,,,,,,,,,,,,,,,,,,,,,,,,,,,,,,h,5.384000063,FATH,FALSE,,,,,,,137,fulla,Catalan,Sounds/cat_fulla.mp3,2020-06-05_15h35.36.712,TranslationElicitation_eng-prolific,3.2.4,MacIntel,60,5d5eb07672a0690001cee147,,1,0,81,31,1,80
,,,,,,,,,,,,,,,,,,,,,,,,,,,,,,,,,,,,,,,,,,e,5.5,FATHE,FALSE,,,,,,,137,fulla,Catalan,Sounds/cat_fulla.mp3,2020-06-05_15h35.36.712,TranslationElicitation_eng-prolific,3.2.4,MacIntel,60,5d5eb07672a0690001cee147,,1,0,81,31,1,80
,,,,,,,,,,,,,,,,,,,,,,,,,,,,,,,,,,,,,,,,,,r,5.601000071,FATHER,FALSE,,,,,,,137,fulla,Catalan,Sounds/cat_fulla.mp3,2020-06-05_15h35.36.712,TranslationElicitation_eng-prolific,3.2.4,MacIntel,60,5d5eb07672a0690001cee147,,1,0,81,31,1,80
,,,,,,,,,,,,,,,,,,,,,,,,,,,,,,,,,,,,,,,,,,return,7.799999952,FATHER,FALSE,,,,,,,137,fulla,Catalan,Sounds/cat_fulla.mp3,2020-06-05_15h35.36.712,TranslationElicitation_eng-prolific,3.2.4,MacIntel,60,5d5eb07672a0690001cee147,7.799999952,1,0,81,31,1,80
,,,,,,,,,,,,,,,,,,,,,,,,,,,,,,,,,,,,,,,,,,,,,,,,,,,,137,fulla,Catalan,Sounds/cat_fulla.mp3,2020-06-05_15h35.36.712,TranslationElicitation_eng-prolific,3.2.4,MacIntel,60,5d5eb07672a0690001cee147,,1,0,81,31,1,80
,,,,,,,,,,,,,,,,,,,,,,,,,,,,,,,,,,,,,,,,,,h,4.81799984,H,FALSE,,,,,,,141,gerd,Catalan,Sounds/cat_gerd.mp3,2020-06-05_15h35.36.712,TranslationElicitation_eng-prolific,3.2.4,MacIntel,60,5d5eb07672a0690001cee147,,1,0,81,35,1,80
,,,,,,,,,,,,,,,,,,,,,,,,,,,,,,,,,,,,,,,,,,a,5.049999952,HA,FALSE,,,,,,,141,gerd,Catalan,Sounds/cat_gerd.mp3,2020-06-05_15h35.36.712,TranslationElicitation_eng-prolific,3.2.4,MacIntel,60,5d5eb07672a0690001cee147,,1,0,81,35,1,80
,,,,,,,,,,,,,,,,,,,,,,,,,,,,,,,,,,,,,,,,,,i,5.167999983,HAI,FALSE,,,,,,,141,gerd,Catalan,Sounds/cat_gerd.mp3,2020-06-05_15h35.36.712,TranslationElicitation_eng-prolific,3.2.4,MacIntel,60,5d5eb07672a0690001cee147,,1,0,81,35,1,80
,,,,,,,,,,,,,,,,,,,,,,,,,,,,,,,,,,,,,,,,,,r,5.333999872,HAIR,FALSE,,,,,,,141,gerd,Catalan,Sounds/cat_gerd.mp3,2020-06-05_15h35.36.712,TranslationElicitation_eng-prolific,3.2.4,MacIntel,60,5d5eb07672a0690001cee147,,1,0,81,35,1,80
,,,,,,,,,,,,,,,,,,,,,,,,,,,,,,,,,,,,,,,,,,return,5.483999968,HAIR,FALSE,,,,,,,141,gerd,Catalan,Sounds/cat_gerd.mp3,2020-06-05_15h35.36.712,TranslationElicitation_eng-prolific,3.2.4,MacIntel,60,5d5eb07672a0690001cee147,5.483999968,1,0,81,35,1,80
,,,,,,,,,,,,,,,,,,,,,,,,,,,,,,,,,,,,,,,,,,,,,,,,,,,,141,gerd,Catalan,Sounds/cat_gerd.mp3,2020-06-05_15h35.36.712,TranslationElicitation_eng-prolific,3.2.4,MacIntel,60,5d5eb07672a0690001cee147,,1,0,81,35,1,80
,,,,,,,,,,,,,,,,,,,,,,,,,,,,,,,,,,,,,,,,,,z,2.48300004,Z,FALSE,,,,,,,189,zebra,Catalan,Sounds/cat_zebra.mp3,2020-06-05_15h35.36.712,TranslationElicitation_eng-prolific,3.2.4,MacIntel,60,5d5eb07672a0690001cee147,,1,0,81,80,1,80
,,,,,,,,,,,,,,,,,,,,,,,,,,,,,,,,,,,,,,,,,,e,2.75,ZE,FALSE,,,,,,,189,zebra,Catalan,Sounds/cat_zebra.mp3,2020-06-05_15h35.36.712,TranslationElicitation_eng-prolific,3.2.4,MacIntel,60,5d5eb07672a0690001cee147,,1,0,81,80,1,80
,,,,,,,,,,,,,,,,,,,,,,,,,,,,,,,,,,,,,,,,,,b,2.934000015,ZEB,FALSE,,,,,,,189,zebra,Catalan,Sounds/cat_zebra.mp3,2020-06-05_15h35.36.712,TranslationElicitation_eng-prolific,3.2.4,MacIntel,60,5d5eb07672a0690001cee147,,1,0,81,80,1,80
,,,,,,,,,,,,,,,,,,,,,,,,,,,,,,,,,,,,,,,,,,r,3.049999952,ZEBR,FALSE,,,,,,,189,zebra,Catalan,Sounds/cat_zebra.mp3,2020-06-05_15h35.36.712,TranslationElicitation_eng-prolific,3.2.4,MacIntel,60,5d5eb07672a0690001cee147,,1,0,81,80,1,80
,,,,,,,,,,,,,,,,,,,,,,,,,,,,,,,,,,,,,,,,,,a,3.315999985,ZEBRA,FALSE,,,,,,,189,zebra,Catalan,Sounds/cat_zebra.mp3,2020-06-05_15h35.36.712,TranslationElicitation_eng-prolific,3.2.4,MacIntel,60,5d5eb07672a0690001cee147,,1,0,81,80,1,80
,,,,,,,,,,,,,,,,,,,,,,,,,,,,,,,,,,,,,,,,,,return,3.549999952,ZEBRA,FALSE,,,,,,,189,zebra,Catalan,Sounds/cat_zebra.mp3,2020-06-05_15h35.36.712,TranslationElicitation_eng-prolific,3.2.4,MacIntel,60,5d5eb07672a0690001cee147,3.549999952,1,0,81,80,1,80
,,,,,,,,,,,,,,,,,,,,,,,,,,,,,,,,,,,,,,,,,,,,,,,,,,,,189,zebra,Catalan,Sounds/cat_zebra.mp3,2020-06-05_15h35.36.712,TranslationElicitation_eng-prolific,3.2.4,MacIntel,60,5d5eb07672a0690001cee147,,1,0,81,80,1,80
,,,,,,,,,,,,,,,,,,,,,,,,,,,,,,,,,,,,,,,,,,c,5.065999985,C,FALSE,,,,,,,138,galeta,Catalan,Sounds/cat_galeta.mp3,2020-06-05_15h35.36.712,TranslationElicitation_eng-prolific,3.2.4,MacIntel,60,5d5eb07672a0690001cee147,,1,0,81,32,1,80
,,,,,,,,,,,,,,,,,,,,,,,,,,,,,,,,,,,,,,,,,,o,7.083000183,CO,FALSE,,,,,,,138,galeta,Catalan,Sounds/cat_galeta.mp3,2020-06-05_15h35.36.712,TranslationElicitation_eng-prolific,3.2.4,MacIntel,60,5d5eb07672a0690001cee147,,1,0,81,32,1,80
,,,,,,,,,,,,,,,,,,,,,,,,,,,,,,,,,,,,,,,,,,r,7.583000183,COR,FALSE,,,,,,,138,galeta,Catalan,Sounds/cat_galeta.mp3,2020-06-05_15h35.36.712,TranslationElicitation_eng-prolific,3.2.4,MacIntel,60,5d5eb07672a0690001cee147,,1,0,81,32,1,80
,,,,,,,,,,,,,,,,,,,,,,,,,,,,,,,,,,,,,,,,,,n,8.050000191,CORN,FALSE,,,,,,,138,galeta,Catalan,Sounds/cat_galeta.mp3,2020-06-05_15h35.36.712,TranslationElicitation_eng-prolific,3.2.4,MacIntel,60,5d5eb07672a0690001cee147,,1,0,81,32,1,80
,,,,,,,,,,,,,,,,,,,,,,,,,,,,,,,,,,,,,,,,,,e,8.950000048,CORNE,FALSE,,,,,,,138,galeta,Catalan,Sounds/cat_galeta.mp3,2020-06-05_15h35.36.712,TranslationElicitation_eng-prolific,3.2.4,MacIntel,60,5d5eb07672a0690001cee147,,1,0,81,32,1,80
,,,,,,,,,,,,,,,,,,,,,,,,,,,,,,,,,,,,,,,,,,backspace,9.717000008,CORN,TRUE,,,,,,,138,galeta,Catalan,Sounds/cat_galeta.mp3,2020-06-05_15h35.36.712,TranslationElicitation_eng-prolific,3.2.4,MacIntel,60,5d5eb07672a0690001cee147,,1,0,81,32,1,80
,,,,,,,,,,,,,,,,,,,,,,,,,,,,,,,,,,,,,,,,,,e,10.53700018,CORNE,TRUE,,,,,,,138,galeta,Catalan,Sounds/cat_galeta.mp3,2020-06-05_15h35.36.712,TranslationElicitation_eng-prolific,3.2.4,MacIntel,60,5d5eb07672a0690001cee147,,1,0,81,32,1,80
,,,,,,,,,,,,,,,,,,,,,,,,,,,,,,,,,,,,,,,,,,t,10.8670001,CORNET,TRUE,,,,,,,138,galeta,Catalan,Sounds/cat_galeta.mp3,2020-06-05_15h35.36.712,TranslationElicitation_eng-prolific,3.2.4,MacIntel,60,5d5eb07672a0690001cee147,,1,0,81,32,1,80
,,,,,,,,,,,,,,,,,,,,,,,,,,,,,,,,,,,,,,,,,,return,11.78400016,CORNET,TRUE,,,,,,,138,galeta,Catalan,Sounds/cat_galeta.mp3,2020-06-05_15h35.36.712,TranslationElicitation_eng-prolific,3.2.4,MacIntel,60,5d5eb07672a0690001cee147,11.78400016,1,0,81,32,1,80
,,,,,,,,,,,,,,,,,,,,,,,,,,,,,,,,,,,,,,,,,,,,,,,,,,,,138,galeta,Catalan,Sounds/cat_galeta.mp3,2020-06-05_15h35.36.712,TranslationElicitation_eng-prolific,3.2.4,MacIntel,60,5d5eb07672a0690001cee147,,1,0,81,32,1,80
,,,,,,,,,,,,,,,,,,,,,,,,,,,,,,,,,,,,,,,,,,w,3.266000032,W,FALSE,,,,,,,172,poma,Catalan,Sounds/cat_poma.mp3,2020-06-05_15h35.36.712,TranslationElicitation_eng-prolific,3.2.4,MacIntel,60,5d5eb07672a0690001cee147,,1,0,81,64,1,80
,,,,,,,,,,,,,,,,,,,,,,,,,,,,,,,,,,,,,,,,,,o,3.348999977,WO,FALSE,,,,,,,172,poma,Catalan,Sounds/cat_poma.mp3,2020-06-05_15h35.36.712,TranslationElicitation_eng-prolific,3.2.4,MacIntel,60,5d5eb07672a0690001cee147,,1,0,81,64,1,80
,,,,,,,,,,,,,,,,,,,,,,,,,,,,,,,,,,,,,,,,,,m,3.499000072,WOM,FALSE,,,,,,,172,poma,Catalan,Sounds/cat_poma.mp3,2020-06-05_15h35.36.712,TranslationElicitation_eng-prolific,3.2.4,MacIntel,60,5d5eb07672a0690001cee147,,1,0,81,64,1,80
,,,,,,,,,,,,,,,,,,,,,,,,,,,,,,,,,,,,,,,,,,a,3.667000055,WOMA,FALSE,,,,,,,172,poma,Catalan,Sounds/cat_poma.mp3,2020-06-05_15h35.36.712,TranslationElicitation_eng-prolific,3.2.4,MacIntel,60,5d5eb07672a0690001cee147,,1,0,81,64,1,80
,,,,,,,,,,,,,,,,,,,,,,,,,,,,,,,,,,,,,,,,,,n,3.799000025,WOMAN,FALSE,,,,,,,172,poma,Catalan,Sounds/cat_poma.mp3,2020-06-05_15h35.36.712,TranslationElicitation_eng-prolific,3.2.4,MacIntel,60,5d5eb07672a0690001cee147,,1,0,81,64,1,80
,,,,,,,,,,,,,,,,,,,,,,,,,,,,,,,,,,,,,,,,,,return,4.085000038,WOMAN,FALSE,,,,,,,172,poma,Catalan,Sounds/cat_poma.mp3,2020-06-05_15h35.36.712,TranslationElicitation_eng-prolific,3.2.4,MacIntel,60,5d5eb07672a0690001cee147,4.085000038,1,0,81,64,1,80
,,,,,,,,,,,,,,,,,,,,,,,,,,,,,,,,,,,,,,,,,,,,,,,,,,,,172,poma,Catalan,Sounds/cat_poma.mp3,2020-06-05_15h35.36.712,TranslationElicitation_eng-prolific,3.2.4,MacIntel,60,5d5eb07672a0690001cee147,,1,0,81,64,1,80
,,,,,,,,,,,,,,,,,,,,,,,,,,,,,,,,,,,,,,,,,,c,4.385999918,C,FALSE,,,,,,,115,bolet,Catalan,Sounds/cat_bolet.mp3,2020-06-05_15h35.36.712,TranslationElicitation_eng-prolific,3.2.4,MacIntel,60,5d5eb07672a0690001cee147,,1,0,81,10,1,80
,,,,,,,,,,,,,,,,,,,,,,,,,,,,,,,,,,,,,,,,,,h,4.469000101,CH,FALSE,,,,,,,115,bolet,Catalan,Sounds/cat_bolet.mp3,2020-06-05_15h35.36.712,TranslationElicitation_eng-prolific,3.2.4,MacIntel,60,5d5eb07672a0690001cee147,,1,0,81,10,1,80
,,,,,,,,,,,,,,,,,,,,,,,,,,,,,,,,,,,,,,,,,,i,4.601000071,CHI,FALSE,,,,,,,115,bolet,Catalan,Sounds/cat_bolet.mp3,2020-06-05_15h35.36.712,TranslationElicitation_eng-prolific,3.2.4,MacIntel,60,5d5eb07672a0690001cee147,,1,0,81,10,1,80
,,,,,,,,,,,,,,,,,,,,,,,,,,,,,,,,,,,,,,,,,,c,4.750999928,CHIC,FALSE,,,,,,,115,bolet,Catalan,Sounds/cat_bolet.mp3,2020-06-05_15h35.36.712,TranslationElicitation_eng-prolific,3.2.4,MacIntel,60,5d5eb07672a0690001cee147,,1,0,81,10,1,80
,,,,,,,,,,,,,,,,,,,,,,,,,,,,,,,,,,,,,,,,,,k,4.851999998,CHICK,FALSE,,,,,,,115,bolet,Catalan,Sounds/cat_bolet.mp3,2020-06-05_15h35.36.712,TranslationElicitation_eng-prolific,3.2.4,MacIntel,60,5d5eb07672a0690001cee147,,1,0,81,10,1,80
,,,,,,,,,,,,,,,,,,,,,,,,,,,,,,,,,,,,,,,,,,e,5,CHICKE,FALSE,,,,,,,115,bolet,Catalan,Sounds/cat_bolet.mp3,2020-06-05_15h35.36.712,TranslationElicitation_eng-prolific,3.2.4,MacIntel,60,5d5eb07672a0690001cee147,,1,0,81,10,1,80
,,,,,,,,,,,,,,,,,,,,,,,,,,,,,,,,,,,,,,,,,,n,5.068000078,CHICKEN,FALSE,,,,,,,115,bolet,Catalan,Sounds/cat_bolet.mp3,2020-06-05_15h35.36.712,TranslationElicitation_eng-prolific,3.2.4,MacIntel,60,5d5eb07672a0690001cee147,,1,0,81,10,1,80
,,,,,,,,,,,,,,,,,,,,,,,,,,,,,,,,,,,,,,,,,,return,5.5,CHICKEN,FALSE,,,,,,,115,bolet,Catalan,Sounds/cat_bolet.mp3,2020-06-05_15h35.36.712,TranslationElicitation_eng-prolific,3.2.4,MacIntel,60,5d5eb07672a0690001cee147,5.5,1,0,81,10,1,80
,,,,,,,,,,,,,,,,,,,,,,,,,,,,,,,,,,,,,,,,,,,,,,,,,,,,115,bolet,Catalan,Sounds/cat_bolet.mp3,2020-06-05_15h35.36.712,TranslationElicitation_eng-prolific,3.2.4,MacIntel,60,5d5eb07672a0690001cee147,,1,0,81,10,1,80
,,,,,,,,,,,,,,,,,,,,,,,,,,,,,,,,,,,,,,,,,,s,3.26699996,S,FALSE,,,,,,,177,sol,Catalan,Sounds/cat_sol.mp3,2020-06-05_15h35.36.712,TranslationElicitation_eng-prolific,3.2.4,MacIntel,60,5d5eb07672a0690001cee147,,1,0,81,69,1,80
,,,,,,,,,,,,,,,,,,,,,,,,,,,,,,,,,,,,,,,,,,o,3.333000183,SO,FALSE,,,,,,,177,sol,Catalan,Sounds/cat_sol.mp3,2020-06-05_15h35.36.712,TranslationElicitation_eng-prolific,3.2.4,MacIntel,60,5d5eb07672a0690001cee147,,1,0,81,69,1,80
,,,,,,,,,,,,,,,,,,,,,,,,,,,,,,,,,,,,,,,,,,u,3.718000174,SOU,FALSE,,,,,,,177,sol,Catalan,Sounds/cat_sol.mp3,2020-06-05_15h35.36.712,TranslationElicitation_eng-prolific,3.2.4,MacIntel,60,5d5eb07672a0690001cee147,,1,0,81,69,1,80
,,,,,,,,,,,,,,,,,,,,,,,,,,,,,,,,,,,,,,,,,,l,3.934000015,SOUL,FALSE,,,,,,,177,sol,Catalan,Sounds/cat_sol.mp3,2020-06-05_15h35.36.712,TranslationElicitation_eng-prolific,3.2.4,MacIntel,60,5d5eb07672a0690001cee147,,1,0,81,69,1,80
,,,,,,,,,,,,,,,,,,,,,,,,,,,,,,,,,,,,,,,,,,return,4.302000046,SOUL,FALSE,,,,,,,177,sol,Catalan,Sounds/cat_sol.mp3,2020-06-05_15h35.36.712,TranslationElicitation_eng-prolific,3.2.4,MacIntel,60,5d5eb07672a0690001cee147,4.302000046,1,0,81,69,1,80
,,,,,,,,,,,,,,,,,,,,,,,,,,,,,,,,,,,,,,,,,,,,,,,,,,,,177,sol,Catalan,Sounds/cat_sol.mp3,2020-06-05_15h35.36.712,TranslationElicitation_eng-prolific,3.2.4,MacIntel,60,5d5eb07672a0690001cee147,,1,0,81,69,1,80
,,,,,,,,,,,,,,,,,,,,,,,,,,,,,,,,,,,,,,,,,,l,1.865999937,L,FALSE,,,,,,,155,moneda,Catalan,Sounds/cat_moneda.mp3,2020-06-05_15h35.36.712,TranslationElicitation_eng-prolific,3.2.4,MacIntel,60,5d5eb07672a0690001cee147,,1,0,81,48,1,80
,,,,,,,,,,,,,,,,,,,,,,,,,,,,,,,,,,,,,,,,,,e,2.032999992,LE,FALSE,,,,,,,155,moneda,Catalan,Sounds/cat_moneda.mp3,2020-06-05_15h35.36.712,TranslationElicitation_eng-prolific,3.2.4,MacIntel,60,5d5eb07672a0690001cee147,,1,0,81,48,1,80
,,,,,,,,,,,,,,,,,,,,,,,,,,,,,,,,,,,,,,,,,,a,2.28399992,LEA,FALSE,,,,,,,155,moneda,Catalan,Sounds/cat_moneda.mp3,2020-06-05_15h35.36.712,TranslationElicitation_eng-prolific,3.2.4,MacIntel,60,5d5eb07672a0690001cee147,,1,0,81,48,1,80
,,,,,,,,,,,,,,,,,,,,,,,,,,,,,,,,,,,,,,,,,,t,2.48300004,LEAT,FALSE,,,,,,,155,moneda,Catalan,Sounds/cat_moneda.mp3,2020-06-05_15h35.36.712,TranslationElicitation_eng-prolific,3.2.4,MacIntel,60,5d5eb07672a0690001cee147,,1,0,81,48,1,80
,,,,,,,,,,,,,,,,,,,,,,,,,,,,,,,,,,,,,,,,,,h,2.582999945,LEATH,FALSE,,,,,,,155,moneda,Catalan,Sounds/cat_moneda.mp3,2020-06-05_15h35.36.712,TranslationElicitation_eng-prolific,3.2.4,MacIntel,60,5d5eb07672a0690001cee147,,1,0,81,48,1,80
,,,,,,,,,,,,,,,,,,,,,,,,,,,,,,,,,,,,,,,,,,e,2.76699996,LEATHE,FALSE,,,,,,,155,moneda,Catalan,Sounds/cat_moneda.mp3,2020-06-05_15h35.36.712,TranslationElicitation_eng-prolific,3.2.4,MacIntel,60,5d5eb07672a0690001cee147,,1,0,81,48,1,80
,,,,,,,,,,,,,,,,,,,,,,,,,,,,,,,,,,,,,,,,,,r,2.882999897,LEATHER,FALSE,,,,,,,155,moneda,Catalan,Sounds/cat_moneda.mp3,2020-06-05_15h35.36.712,TranslationElicitation_eng-prolific,3.2.4,MacIntel,60,5d5eb07672a0690001cee147,,1,0,81,48,1,80
,,,,,,,,,,,,,,,,,,,,,,,,,,,,,,,,,,,,,,,,,,return,3.03399992,LEATHER,FALSE,,,,,,,155,moneda,Catalan,Sounds/cat_moneda.mp3,2020-06-05_15h35.36.712,TranslationElicitation_eng-prolific,3.2.4,MacIntel,60,5d5eb07672a0690001cee147,3.03399992,1,0,81,48,1,80
,,,,,,,,,,,,,,,,,,,,,,,,,,,,,,,,,,,,,,,,,,,,,,,,,,,,155,moneda,Catalan,Sounds/cat_moneda.mp3,2020-06-05_15h35.36.712,TranslationElicitation_eng-prolific,3.2.4,MacIntel,60,5d5eb07672a0690001cee147,,1,0,81,48,1,80
,,,,,,,,,,,,,,,,,,,,,,,,,,,,,,,,,,,,,,,,,,p,3.683000088,P,FALSE,,,,,,,165,pernil,Catalan,Sounds/cat_pernil.mp3,2020-06-05_15h35.36.712,TranslationElicitation_eng-prolific,3.2.4,MacIntel,60,5d5eb07672a0690001cee147,,1,0,81,57,1,80
,,,,,,,,,,,,,,,,,,,,,,,,,,,,,,,,,,,,,,,,,,e,3.817000151,PE,FALSE,,,,,,,165,pernil,Catalan,Sounds/cat_pernil.mp3,2020-06-05_15h35.36.712,TranslationElicitation_eng-prolific,3.2.4,MacIntel,60,5d5eb07672a0690001cee147,,1,0,81,57,1,80
,,,,,,,,,,,,,,,,,,,,,,,,,,,,,,,,,,,,,,,,,,a,4.03399992,PEA,FALSE,,,,,,,165,pernil,Catalan,Sounds/cat_pernil.mp3,2020-06-05_15h35.36.712,TranslationElicitation_eng-prolific,3.2.4,MacIntel,60,5d5eb07672a0690001cee147,,1,0,81,57,1,80
,,,,,,,,,,,,,,,,,,,,,,,,,,,,,,,,,,,,,,,,,,r,4.150000095,PEAR,FALSE,,,,,,,165,pernil,Catalan,Sounds/cat_pernil.mp3,2020-06-05_15h35.36.712,TranslationElicitation_eng-prolific,3.2.4,MacIntel,60,5d5eb07672a0690001cee147,,1,0,81,57,1,80
,,,,,,,,,,,,,,,,,,,,,,,,,,,,,,,,,,,,,,,,,,return,4.348999977,PEAR,FALSE,,,,,,,165,pernil,Catalan,Sounds/cat_pernil.mp3,2020-06-05_15h35.36.712,TranslationElicitation_eng-prolific,3.2.4,MacIntel,60,5d5eb07672a0690001cee147,4.348999977,1,0,81,57,1,80
,,,,,,,,,,,,,,,,,,,,,,,,,,,,,,,,,,,,,,,,,,,,,,,,,,,,165,pernil,Catalan,Sounds/cat_pernil.mp3,2020-06-05_15h35.36.712,TranslationElicitation_eng-prolific,3.2.4,MacIntel,60,5d5eb07672a0690001cee147,,1,0,81,57,1,80
,,,,,,,,,,,,,,,,,,,,,,,,,,,,,,,,,,,,,,,,,,o,5.03399992,O,FALSE,,,,,,,162,pa,Catalan,Sounds/cat_pa.mp3,2020-06-05_15h35.36.712,TranslationElicitation_eng-prolific,3.2.4,MacIntel,60,5d5eb07672a0690001cee147,,1,0,81,54,1,80
,,,,,,,,,,,,,,,,,,,,,,,,,,,,,,,,,,,,,,,,,,h,5.183999777,OH,FALSE,,,,,,,162,pa,Catalan,Sounds/cat_pa.mp3,2020-06-05_15h35.36.712,TranslationElicitation_eng-prolific,3.2.4,MacIntel,60,5d5eb07672a0690001cee147,,1,0,81,54,1,80
,,,,,,,,,,,,,,,,,,,,,,,,,,,,,,,,,,,,,,,,,,return,5.383999825,OH,FALSE,,,,,,,162,pa,Catalan,Sounds/cat_pa.mp3,2020-06-05_15h35.36.712,TranslationElicitation_eng-prolific,3.2.4,MacIntel,60,5d5eb07672a0690001cee147,5.383999825,1,0,81,54,1,80
,,,,,,,,,,,,,,,,,,,,,,,,,,,,,,,,,,,,,,,,,,,,,,,,,,,,162,pa,Catalan,Sounds/cat_pa.mp3,2020-06-05_15h35.36.712,TranslationElicitation_eng-prolific,3.2.4,MacIntel,60,5d5eb07672a0690001cee147,,1,0,81,54,1,80
,,,,,,,,,,,,,,,,,,,,,,,,,,,,,,,,,,,,,,,,,,m,6.580000162,M,FALSE,,,,,,,174,porta,Catalan,Sounds/cat_porta.mp3,2020-06-05_15h35.36.712,TranslationElicitation_eng-prolific,3.2.4,MacIntel,60,5d5eb07672a0690001cee147,,1,0,81,66,1,80
,,,,,,,,,,,,,,,,,,,,,,,,,,,,,,,,,,,,,,,,,,o,6.718000174,MO,FALSE,,,,,,,174,porta,Catalan,Sounds/cat_porta.mp3,2020-06-05_15h35.36.712,TranslationElicitation_eng-prolific,3.2.4,MacIntel,60,5d5eb07672a0690001cee147,,1,0,81,66,1,80
,,,,,,,,,,,,,,,,,,,,,,,,,,,,,,,,,,,,,,,,,,n,6.884000063,MON,FALSE,,,,,,,174,porta,Catalan,Sounds/cat_porta.mp3,2020-06-05_15h35.36.712,TranslationElicitation_eng-prolific,3.2.4,MacIntel,60,5d5eb07672a0690001cee147,,1,0,81,66,1,80
,,,,,,,,,,,,,,,,,,,,,,,,,,,,,,,,,,,,,,,,,,e,7.051000118,MONE,FALSE,,,,,,,174,porta,Catalan,Sounds/cat_porta.mp3,2020-06-05_15h35.36.712,TranslationElicitation_eng-prolific,3.2.4,MacIntel,60,5d5eb07672a0690001cee147,,1,0,81,66,1,80
,,,,,,,,,,,,,,,,,,,,,,,,,,,,,,,,,,,,,,,,,,y,7.13499999,MONEY,FALSE,,,,,,,174,porta,Catalan,Sounds/cat_porta.mp3,2020-06-05_15h35.36.712,TranslationElicitation_eng-prolific,3.2.4,MacIntel,60,5d5eb07672a0690001cee147,,1,0,81,66,1,80
,,,,,,,,,,,,,,,,,,,,,,,,,,,,,,,,,,,,,,,,,,return,7.452000141,MONEY,FALSE,,,,,,,174,porta,Catalan,Sounds/cat_porta.mp3,2020-06-05_15h35.36.712,TranslationElicitation_eng-prolific,3.2.4,MacIntel,60,5d5eb07672a0690001cee147,7.452000141,1,0,81,66,1,80
,,,,,,,,,,,,,,,,,,,,,,,,,,,,,,,,,,,,,,,,,,,,,,,,,,,,174,porta,Catalan,Sounds/cat_porta.mp3,2020-06-05_15h35.36.712,TranslationElicitation_eng-prolific,3.2.4,MacIntel,60,5d5eb07672a0690001cee147,,1,0,81,66,1,80
,,,,,,,,,,,,,,,,,,,,,,,,,,,,,,,,,,,,,,,,,,m,8.535000086,M,FALSE,,,,,,,156,moto,Catalan,Sounds/cat_moto.mp3,2020-06-05_15h35.36.712,TranslationElicitation_eng-prolific,3.2.4,MacIntel,60,5d5eb07672a0690001cee147,,1,0,81,49,1,80
,,,,,,,,,,,,,,,,,,,,,,,,,,,,,,,,,,,,,,,,,,u,9.268000126,MU,FALSE,,,,,,,156,moto,Catalan,Sounds/cat_moto.mp3,2020-06-05_15h35.36.712,TranslationElicitation_eng-prolific,3.2.4,MacIntel,60,5d5eb07672a0690001cee147,,1,0,81,49,1,80
,,,,,,,,,,,,,,,,,,,,,,,,,,,,,,,,,,,,,,,,,,m,9.452000141,MUM,FALSE,,,,,,,156,moto,Catalan,Sounds/cat_moto.mp3,2020-06-05_15h35.36.712,TranslationElicitation_eng-prolific,3.2.4,MacIntel,60,5d5eb07672a0690001cee147,,1,0,81,49,1,80
,,,,,,,,,,,,,,,,,,,,,,,,,,,,,,,,,,,,,,,,,,return,9.684000015,MUM,FALSE,,,,,,,156,moto,Catalan,Sounds/cat_moto.mp3,2020-06-05_15h35.36.712,TranslationElicitation_eng-prolific,3.2.4,MacIntel,60,5d5eb07672a0690001cee147,9.684000015,1,0,81,49,1,80
,,,,,,,,,,,,,,,,,,,,,,,,,,,,,,,,,,,,,,,,,,,,,,,,,,,,156,moto,Catalan,Sounds/cat_moto.mp3,2020-06-05_15h35.36.712,TranslationElicitation_eng-prolific,3.2.4,MacIntel,60,5d5eb07672a0690001cee147,,1,0,81,49,1,80
,,,,,,,,,,,,,,,,,,,,,,,,,,,,,,,,,,,,,,,,,,n,4.117999792,N,FALSE,,,,,,,107,amanida,Catalan,Sounds/cat_amanida.mp3,2020-06-05_15h35.36.712,TranslationElicitation_eng-prolific,3.2.4,MacIntel,60,5d5eb07672a0690001cee147,,1,0,81,3,1,80
,,,,,,,,,,,,,,,,,,,,,,,,,,,,,,,,,,,,,,,,,,i,4.582999945,NI,FALSE,,,,,,,107,amanida,Catalan,Sounds/cat_amanida.mp3,2020-06-05_15h35.36.712,TranslationElicitation_eng-prolific,3.2.4,MacIntel,60,5d5eb07672a0690001cee147,,1,0,81,3,1,80
,,,,,,,,,,,,,,,,,,,,,,,,,,,,,,,,,,,,,,,,,,e,5.232999802,NIE,FALSE,,,,,,,107,amanida,Catalan,Sounds/cat_amanida.mp3,2020-06-05_15h35.36.712,TranslationElicitation_eng-prolific,3.2.4,MacIntel,60,5d5eb07672a0690001cee147,,1,0,81,3,1,80
,,,,,,,,,,,,,,,,,,,,,,,,,,,,,,,,,,,,,,,,,,c,5.465999842,NIEC,FALSE,,,,,,,107,amanida,Catalan,Sounds/cat_amanida.mp3,2020-06-05_15h35.36.712,TranslationElicitation_eng-prolific,3.2.4,MacIntel,60,5d5eb07672a0690001cee147,,1,0,81,3,1,80
,,,,,,,,,,,,,,,,,,,,,,,,,,,,,,,,,,,,,,,,,,e,5.582999945,NIECE,FALSE,,,,,,,107,amanida,Catalan,Sounds/cat_amanida.mp3,2020-06-05_15h35.36.712,TranslationElicitation_eng-prolific,3.2.4,MacIntel,60,5d5eb07672a0690001cee147,,1,0,81,3,1,80
,,,,,,,,,,,,,,,,,,,,,,,,,,,,,,,,,,,,,,,,,,return,5.915999889,NIECE,FALSE,,,,,,,107,amanida,Catalan,Sounds/cat_amanida.mp3,2020-06-05_15h35.36.712,TranslationElicitation_eng-prolific,3.2.4,MacIntel,60,5d5eb07672a0690001cee147,5.915999889,1,0,81,3,1,80
,,,,,,,,,,,,,,,,,,,,,,,,,,,,,,,,,,,,,,,,,,,,,,,,,,,,107,amanida,Catalan,Sounds/cat_amanida.mp3,2020-06-05_15h35.36.712,TranslationElicitation_eng-prolific,3.2.4,MacIntel,60,5d5eb07672a0690001cee147,,1,0,81,3,1,80
,,,,,,,,,,,,,,,,,,,,,,,,,,,,,,,,,,,,,,,,,,g,4.084000111,G,FALSE,,,,,,,146,guitarra,Catalan,Sounds/cat_guitarra.mp3,2020-06-05_15h35.36.712,TranslationElicitation_eng-prolific,3.2.4,MacIntel,60,5d5eb07672a0690001cee147,,1,0,81,40,1,80
,,,,,,,,,,,,,,,,,,,,,,,,,,,,,,,,,,,,,,,,,,a,4.251000166,GA,FALSE,,,,,,,146,guitarra,Catalan,Sounds/cat_guitarra.mp3,2020-06-05_15h35.36.712,TranslationElicitation_eng-prolific,3.2.4,MacIntel,60,5d5eb07672a0690001cee147,,1,0,81,40,1,80
,,,,,,,,,,,,,,,,,,,,,,,,,,,,,,,,,,,,,,,,,,r,4.384000063,GAR,FALSE,,,,,,,146,guitarra,Catalan,Sounds/cat_guitarra.mp3,2020-06-05_15h35.36.712,TranslationElicitation_eng-prolific,3.2.4,MacIntel,60,5d5eb07672a0690001cee147,,1,0,81,40,1,80
,,,,,,,,,,,,,,,,,,,,,,,,,,,,,,,,,,,,,,,,,,d,4.683000088,GARD,FALSE,,,,,,,146,guitarra,Catalan,Sounds/cat_guitarra.mp3,2020-06-05_15h35.36.712,TranslationElicitation_eng-prolific,3.2.4,MacIntel,60,5d5eb07672a0690001cee147,,1,0,81,40,1,80
,,,,,,,,,,,,,,,,,,,,,,,,,,,,,,,,,,,,,,,,,,e,4.784000158,GARDE,FALSE,,,,,,,146,guitarra,Catalan,Sounds/cat_guitarra.mp3,2020-06-05_15h35.36.712,TranslationElicitation_eng-prolific,3.2.4,MacIntel,60,5d5eb07672a0690001cee147,,1,0,81,40,1,80
,,,,,,,,,,,,,,,,,,,,,,,,,,,,,,,,,,,,,,,,,,n,4.933000088,GARDEN,FALSE,,,,,,,146,guitarra,Catalan,Sounds/cat_guitarra.mp3,2020-06-05_15h35.36.712,TranslationElicitation_eng-prolific,3.2.4,MacIntel,60,5d5eb07672a0690001cee147,,1,0,81,40,1,80
,,,,,,,,,,,,,,,,,,,,,,,,,,,,,,,,,,,,,,,,,,return,5.200000048,GARDEN,FALSE,,,,,,,146,guitarra,Catalan,Sounds/cat_guitarra.mp3,2020-06-05_15h35.36.712,TranslationElicitation_eng-prolific,3.2.4,MacIntel,60,5d5eb07672a0690001cee147,5.200000048,1,0,81,40,1,80
,,,,,,,,,,,,,,,,,,,,,,,,,,,,,,,,,,,,,,,,,,,,,,,,,,,,146,guitarra,Catalan,Sounds/cat_guitarra.mp3,2020-06-05_15h35.36.712,TranslationElicitation_eng-prolific,3.2.4,MacIntel,60,5d5eb07672a0690001cee147,,1,0,81,40,1,80
,,,,,,,,,,,,,,,,,,,,,,,,,,,,,,,,,,,,,,,,,,b,5.101000071,B,FALSE,,,,,,,168,planta,Catalan,Sounds/cat_planta.mp3,2020-06-05_15h35.36.712,TranslationElicitation_eng-prolific,3.2.4,MacIntel,60,5d5eb07672a0690001cee147,,1,0,81,60,1,80
,,,,,,,,,,,,,,,,,,,,,,,,,,,,,,,,,,,,,,,,,,l,5.450999975,BL,FALSE,,,,,,,168,planta,Catalan,Sounds/cat_planta.mp3,2020-06-05_15h35.36.712,TranslationElicitation_eng-prolific,3.2.4,MacIntel,60,5d5eb07672a0690001cee147,,1,0,81,60,1,80
,,,,,,,,,,,,,,,,,,,,,,,,,,,,,,,,,,,,,,,,,,a,6.167999983,BLA,FALSE,,,,,,,168,planta,Catalan,Sounds/cat_planta.mp3,2020-06-05_15h35.36.712,TranslationElicitation_eng-prolific,3.2.4,MacIntel,60,5d5eb07672a0690001cee147,,1,0,81,60,1,80
,,,,,,,,,,,,,,,,,,,,,,,,,,,,,,,,,,,,,,,,,,n,6.233999968,BLAN,FALSE,,,,,,,168,planta,Catalan,Sounds/cat_planta.mp3,2020-06-05_15h35.36.712,TranslationElicitation_eng-prolific,3.2.4,MacIntel,60,5d5eb07672a0690001cee147,,1,0,81,60,1,80
,,,,,,,,,,,,,,,,,,,,,,,,,,,,,,,,,,,,,,,,,,k,6.401000023,BLANK,FALSE,,,,,,,168,planta,Catalan,Sounds/cat_planta.mp3,2020-06-05_15h35.36.712,TranslationElicitation_eng-prolific,3.2.4,MacIntel,60,5d5eb07672a0690001cee147,,1,0,81,60,1,80
,,,,,,,,,,,,,,,,,,,,,,,,,,,,,,,,,,,,,,,,,,return,6.717000008,BLANK,FALSE,,,,,,,168,planta,Catalan,Sounds/cat_planta.mp3,2020-06-05_15h35.36.712,TranslationElicitation_eng-prolific,3.2.4,MacIntel,60,5d5eb07672a0690001cee147,6.717000008,1,0,81,60,1,80
,,,,,,,,,,,,,,,,,,,,,,,,,,,,,,,,,,,,,,,,,,,,,,,,,,,,168,planta,Catalan,Sounds/cat_planta.mp3,2020-06-05_15h35.36.712,TranslationElicitation_eng-prolific,3.2.4,MacIntel,60,5d5eb07672a0690001cee147,,1,0,81,60,1,80
,,,,,,,,,,,,,,,,,,,,,,,,,,,,,,,,,,,,,,,,,,d,5.016000032,D,FALSE,,,,,,,183,tren,Catalan,Sounds/cat_tren.mp3,2020-06-05_15h35.36.712,TranslationElicitation_eng-prolific,3.2.4,MacIntel,60,5d5eb07672a0690001cee147,,1,0,81,74,1,80
,,,,,,,,,,,,,,,,,,,,,,,,,,,,,,,,,,,,,,,,,,r,5.200000048,DR,FALSE,,,,,,,183,tren,Catalan,Sounds/cat_tren.mp3,2020-06-05_15h35.36.712,TranslationElicitation_eng-prolific,3.2.4,MacIntel,60,5d5eb07672a0690001cee147,,1,0,81,74,1,80
,,,,,,,,,,,,,,,,,,,,,,,,,,,,,,,,,,,,,,,,,,e,5.300000191,DRE,FALSE,,,,,,,183,tren,Catalan,Sounds/cat_tren.mp3,2020-06-05_15h35.36.712,TranslationElicitation_eng-prolific,3.2.4,MacIntel,60,5d5eb07672a0690001cee147,,1,0,81,74,1,80
,,,,,,,,,,,,,,,,,,,,,,,,,,,,,,,,,,,,,,,,,,s,5.46600008,DRES,FALSE,,,,,,,183,tren,Catalan,Sounds/cat_tren.mp3,2020-06-05_15h35.36.712,TranslationElicitation_eng-prolific,3.2.4,MacIntel,60,5d5eb07672a0690001cee147,,1,0,81,74,1,80
,,,,,,,,,,,,,,,,,,,,,,,,,,,,,,,,,,,,,,,,,,s,5.633000135,DRESS,FALSE,,,,,,,183,tren,Catalan,Sounds/cat_tren.mp3,2020-06-05_15h35.36.712,TranslationElicitation_eng-prolific,3.2.4,MacIntel,60,5d5eb07672a0690001cee147,,1,0,81,74,1,80
,,,,,,,,,,,,,,,,,,,,,,,,,,,,,,,,,,,,,,,,,,return,5.75,DRESS,FALSE,,,,,,,183,tren,Catalan,Sounds/cat_tren.mp3,2020-06-05_15h35.36.712,TranslationElicitation_eng-prolific,3.2.4,MacIntel,60,5d5eb07672a0690001cee147,5.75,1,0,81,74,1,80
,,,,,,,,,,,,,,,,,,,,,,,,,,,,,,,,,,,,,,,,,,,,,,,,,,,,183,tren,Catalan,Sounds/cat_tren.mp3,2020-06-05_15h35.36.712,TranslationElicitation_eng-prolific,3.2.4,MacIntel,60,5d5eb07672a0690001cee147,,1,0,81,74,1,80
,,,,,,,,,,,,,,,,,,,,,,,,,,,,,,,,,,,,,,,,,,o,5.368000031,O,FALSE,,,,,,,160,orella,Catalan,Sounds/cat_orella.mp3,2020-06-05_15h35.36.712,TranslationElicitation_eng-prolific,3.2.4,MacIntel,60,5d5eb07672a0690001cee147,,1,0,81,52,1,80
,,,,,,,,,,,,,,,,,,,,,,,,,,,,,,,,,,,,,,,,,,v,5.551000118,OV,FALSE,,,,,,,160,orella,Catalan,Sounds/cat_orella.mp3,2020-06-05_15h35.36.712,TranslationElicitation_eng-prolific,3.2.4,MacIntel,60,5d5eb07672a0690001cee147,,1,0,81,52,1,80
,,,,,,,,,,,,,,,,,,,,,,,,,,,,,,,,,,,,,,,,,,e,5.75,OVE,FALSE,,,,,,,160,orella,Catalan,Sounds/cat_orella.mp3,2020-06-05_15h35.36.712,TranslationElicitation_eng-prolific,3.2.4,MacIntel,60,5d5eb07672a0690001cee147,,1,0,81,52,1,80
,,,,,,,,,,,,,,,,,,,,,,,,,,,,,,,,,,,,,,,,,,r,5.868000031,OVER,FALSE,,,,,,,160,orella,Catalan,Sounds/cat_orella.mp3,2020-06-05_15h35.36.712,TranslationElicitation_eng-prolific,3.2.4,MacIntel,60,5d5eb07672a0690001cee147,,1,0,81,52,1,80
,,,,,,,,,,,,,,,,,,,,,,,,,,,,,,,,,,,,,,,,,,return,5.984000206,OVER,FALSE,,,,,,,160,orella,Catalan,Sounds/cat_orella.mp3,2020-06-05_15h35.36.712,TranslationElicitation_eng-prolific,3.2.4,MacIntel,60,5d5eb07672a0690001cee147,5.984000206,1,0,81,52,1,80
,,,,,,,,,,,,,,,,,,,,,,,,,,,,,,,,,,,,,,,,,,,,,,,,,,,,160,orella,Catalan,Sounds/cat_orella.mp3,2020-06-05_15h35.36.712,TranslationElicitation_eng-prolific,3.2.4,MacIntel,60,5d5eb07672a0690001cee147,,1,0,81,52,1,80
,,,,,,,,,,,,,,,,,,,,,,,,,,,,,,,,,,,,,,,,,,m,3.734999895,M,FALSE,,,,,,,153,mico,Catalan,Sounds/cat_mico.mp3,2020-06-05_15h35.36.712,TranslationElicitation_eng-prolific,3.2.4,MacIntel,60,5d5eb07672a0690001cee147,,1,0,81,46,1,80
,,,,,,,,,,,,,,,,,,,,,,,,,,,,,,,,,,,,,,,,,,i,3.866999865,MI,FALSE,,,,,,,153,mico,Catalan,Sounds/cat_mico.mp3,2020-06-05_15h35.36.712,TranslationElicitation_eng-prolific,3.2.4,MacIntel,60,5d5eb07672a0690001cee147,,1,0,81,46,1,80
,,,,,,,,,,,,,,,,,,,,,,,,,,,,,,,,,,,,,,,,,,c,3.985999823,MIC,FALSE,,,,,,,153,mico,Catalan,Sounds/cat_mico.mp3,2020-06-05_15h35.36.712,TranslationElicitation_eng-prolific,3.2.4,MacIntel,60,5d5eb07672a0690001cee147,,1,0,81,46,1,80
,,,,,,,,,,,,,,,,,,,,,,,,,,,,,,,,,,,,,,,,,,e,4.13499999,MICE,FALSE,,,,,,,153,mico,Catalan,Sounds/cat_mico.mp3,2020-06-05_15h35.36.712,TranslationElicitation_eng-prolific,3.2.4,MacIntel,60,5d5eb07672a0690001cee147,,1,0,81,46,1,80
,,,,,,,,,,,,,,,,,,,,,,,,,,,,,,,,,,,,,,,,,,return,4.45299983,MICE,FALSE,,,,,,,153,mico,Catalan,Sounds/cat_mico.mp3,2020-06-05_15h35.36.712,TranslationElicitation_eng-prolific,3.2.4,MacIntel,60,5d5eb07672a0690001cee147,4.45299983,1,0,81,46,1,80
,,,,,,,,,,,,,,,,,,,,,,,,,,,,,,,,,,,,,,,,,,,,,,,,,,,,153,mico,Catalan,Sounds/cat_mico.mp3,2020-06-05_15h35.36.712,TranslationElicitation_eng-prolific,3.2.4,MacIntel,60,5d5eb07672a0690001cee147,,1,0,81,46,1,80
,,,,,,,,,,,,,,,,,,,,,,,,,,,,,,,,,,,,,,,,,,b,4.769999981,B,FALSE,,,,,,,116,bolquer,Catalan,Sounds/cat_bolquer.mp3,2020-06-05_15h35.36.712,TranslationElicitation_eng-prolific,3.2.4,MacIntel,60,5d5eb07672a0690001cee147,,1,0,81,11,1,80
,,,,,,,,,,,,,,,,,,,,,,,,,,,,,,,,,,,,,,,,,,o,6.349999905,BO,FALSE,,,,,,,116,bolquer,Catalan,Sounds/cat_bolquer.mp3,2020-06-05_15h35.36.712,TranslationElicitation_eng-prolific,3.2.4,MacIntel,60,5d5eb07672a0690001cee147,,1,0,81,11,1,80
,,,,,,,,,,,,,,,,,,,,,,,,,,,,,,,,,,,,,,,,,,backspace,7.517999887,B,TRUE,,,,,,,116,bolquer,Catalan,Sounds/cat_bolquer.mp3,2020-06-05_15h35.36.712,TranslationElicitation_eng-prolific,3.2.4,MacIntel,60,5d5eb07672a0690001cee147,,1,0,81,11,1,80
,,,,,,,,,,,,,,,,,,,,,,,,,,,,,,,,,,,,,,,,,,o,14.90100002,BO,TRUE,,,,,,,116,bolquer,Catalan,Sounds/cat_bolquer.mp3,2020-06-05_15h35.36.712,TranslationElicitation_eng-prolific,3.2.4,MacIntel,60,5d5eb07672a0690001cee147,,1,0,81,11,1,80
,,,,,,,,,,,,,,,,,,,,,,,,,,,,,,,,,,,,,,,,,,q,15.30099988,BOQ,TRUE,,,,,,,116,bolquer,Catalan,Sounds/cat_bolquer.mp3,2020-06-05_15h35.36.712,TranslationElicitation_eng-prolific,3.2.4,MacIntel,60,5d5eb07672a0690001cee147,,1,0,81,11,1,80
,,,,,,,,,,,,,,,,,,,,,,,,,,,,,,,,,,,,,,,,,,u,16.70099998,BOQU,TRUE,,,,,,,116,bolquer,Catalan,Sounds/cat_bolquer.mp3,2020-06-05_15h35.36.712,TranslationElicitation_eng-prolific,3.2.4,MacIntel,60,5d5eb07672a0690001cee147,,1,0,81,11,1,80
,,,,,,,,,,,,,,,,,,,,,,,,,,,,,,,,,,,,,,,,,,e,17.00199986,BOQUE,TRUE,,,,,,,116,bolquer,Catalan,Sounds/cat_bolquer.mp3,2020-06-05_15h35.36.712,TranslationElicitation_eng-prolific,3.2.4,MacIntel,60,5d5eb07672a0690001cee147,,1,0,81,11,1,80
,,,,,,,,,,,,,,,,,,,,,,,,,,,,,,,,,,,,,,,,,,t,17.30200005,BOQUET,TRUE,,,,,,,116,bolquer,Catalan,Sounds/cat_bolquer.mp3,2020-06-05_15h35.36.712,TranslationElicitation_eng-prolific,3.2.4,MacIntel,60,5d5eb07672a0690001cee147,,1,0,81,11,1,80
,,,,,,,,,,,,,,,,,,,,,,,,,,,,,,,,,,,,,,,,,,return,21.36899996,BOQUET,TRUE,,,,,,,116,bolquer,Catalan,Sounds/cat_bolquer.mp3,2020-06-05_15h35.36.712,TranslationElicitation_eng-prolific,3.2.4,MacIntel,60,5d5eb07672a0690001cee147,21.36899996,1,0,81,11,1,80
,,,,,,,,,,,,,,,,,,,,,,,,,,,,,,,,,,,,,,,,,,,,,,,,,,,,116,bolquer,Catalan,Sounds/cat_bolquer.mp3,2020-06-05_15h35.36.712,TranslationElicitation_eng-prolific,3.2.4,MacIntel,60,5d5eb07672a0690001cee147,,1,0,81,11,1,80
,,,,,,,,,,,,,,,,,,,,,,,,,,,,,,,,,,,,,,,,,,c,6.999000072,C,FALSE,,,,,,,120,cama,Catalan,Sounds/cat_cama.mp3,2020-06-05_15h35.36.712,TranslationElicitation_eng-prolific,3.2.4,MacIntel,60,5d5eb07672a0690001cee147,,1,0,81,15,1,80
,,,,,,,,,,,,,,,,,,,,,,,,,,,,,,,,,,,,,,,,,,a,7.200999975,CA,FALSE,,,,,,,120,cama,Catalan,Sounds/cat_cama.mp3,2020-06-05_15h35.36.712,TranslationElicitation_eng-prolific,3.2.4,MacIntel,60,5d5eb07672a0690001cee147,,1,0,81,15,1,80
,,,,,,,,,,,,,,,,,,,,,,,,,,,,,,,,,,,,,,,,,,r,7.350000143,CAR,FALSE,,,,,,,120,cama,Catalan,Sounds/cat_cama.mp3,2020-06-05_15h35.36.712,TranslationElicitation_eng-prolific,3.2.4,MacIntel,60,5d5eb07672a0690001cee147,,1,0,81,15,1,80
,,,,,,,,,,,,,,,,,,,,,,,,,,,,,,,,,,,,,,,,,,return,7.667000055,CAR,FALSE,,,,,,,120,cama,Catalan,Sounds/cat_cama.mp3,2020-06-05_15h35.36.712,TranslationElicitation_eng-prolific,3.2.4,MacIntel,60,5d5eb07672a0690001cee147,7.667000055,1,0,81,15,1,80
,,,,,,,,,,,,,,,,,,,,,,,,,,,,,,,,,,,,,,,,,,,,,,,,,,,,120,cama,Catalan,Sounds/cat_cama.mp3,2020-06-05_15h35.36.712,TranslationElicitation_eng-prolific,3.2.4,MacIntel,60,5d5eb07672a0690001cee147,,1,0,81,15,1,80
,,,,,,,,,,,,,,,,,,,,,,,,,,,,,,,,,,,,,,,,,,g,2.684000015,G,FALSE,,,,,,,145,got,Catalan,Sounds/cat_got.mp3,2020-06-05_15h35.36.712,TranslationElicitation_eng-prolific,3.2.4,MacIntel,60,5d5eb07672a0690001cee147,,1,0,81,39,1,80
,,,,,,,,,,,,,,,,,,,,,,,,,,,,,,,,,,,,,,,,,,o,2.866999865,GO,FALSE,,,,,,,145,got,Catalan,Sounds/cat_got.mp3,2020-06-05_15h35.36.712,TranslationElicitation_eng-prolific,3.2.4,MacIntel,60,5d5eb07672a0690001cee147,,1,0,81,39,1,80
,,,,,,,,,,,,,,,,,,,,,,,,,,,,,,,,,,,,,,,,,,d,2.983999968,GOD,FALSE,,,,,,,145,got,Catalan,Sounds/cat_got.mp3,2020-06-05_15h35.36.712,TranslationElicitation_eng-prolific,3.2.4,MacIntel,60,5d5eb07672a0690001cee147,,1,0,81,39,1,80
,,,,,,,,,,,,,,,,,,,,,,,,,,,,,,,,,,,,,,,,,,return,3.166999817,GOD,FALSE,,,,,,,145,got,Catalan,Sounds/cat_got.mp3,2020-06-05_15h35.36.712,TranslationElicitation_eng-prolific,3.2.4,MacIntel,60,5d5eb07672a0690001cee147,3.166999817,1,0,81,39,1,80
,,,,,,,,,,,,,,,,,,,,,,,,,,,,,,,,,,,,,,,,,,,,,,,,,,,,145,got,Catalan,Sounds/cat_got.mp3,2020-06-05_15h35.36.712,TranslationElicitation_eng-prolific,3.2.4,MacIntel,60,5d5eb07672a0690001cee147,,1,0,81,39,1,80
,,,,,,,,,,,,,,,,,,,,,,,,,,,,,,,,,,,,,,,,,,b,6.715999842,B,FALSE,,,,,,,112,bici,Catalan,Sounds/cat_bici.mp3,2020-06-05_15h35.36.712,TranslationElicitation_eng-prolific,3.2.4,MacIntel,60,5d5eb07672a0690001cee147,,1,0,81,7,1,80
,,,,,,,,,,,,,,,,,,,,,,,,,,,,,,,,,,,,,,,,,,e,6.934999943,BE,FALSE,,,,,,,112,bici,Catalan,Sounds/cat_bici.mp3,2020-06-05_15h35.36.712,TranslationElicitation_eng-prolific,3.2.4,MacIntel,60,5d5eb07672a0690001cee147,,1,0,81,7,1,80
,,,,,,,,,,,,,,,,,,,,,,,,,,,,,,,,,,,,,,,,,,a,7.133999825,BEA,FALSE,,,,,,,112,bici,Catalan,Sounds/cat_bici.mp3,2020-06-05_15h35.36.712,TranslationElicitation_eng-prolific,3.2.4,MacIntel,60,5d5eb07672a0690001cee147,,1,0,81,7,1,80
,,,,,,,,,,,,,,,,,,,,,,,,,,,,,,,,,,,,,,,,,,s,7.182999849,BEAS,FALSE,,,,,,,112,bici,Catalan,Sounds/cat_bici.mp3,2020-06-05_15h35.36.712,TranslationElicitation_eng-prolific,3.2.4,MacIntel,60,5d5eb07672a0690001cee147,,1,0,81,7,1,80
,,,,,,,,,,,,,,,,,,,,,,,,,,,,,,,,,,,,,,,,,,t,7.599999905,BEAST,FALSE,,,,,,,112,bici,Catalan,Sounds/cat_bici.mp3,2020-06-05_15h35.36.712,TranslationElicitation_eng-prolific,3.2.4,MacIntel,60,5d5eb07672a0690001cee147,,1,0,81,7,1,80
,,,,,,,,,,,,,,,,,,,,,,,,,,,,,,,,,,,,,,,,,,return,7.950999975,BEAST,FALSE,,,,,,,112,bici,Catalan,Sounds/cat_bici.mp3,2020-06-05_15h35.36.712,TranslationElicitation_eng-prolific,3.2.4,MacIntel,60,5d5eb07672a0690001cee147,7.950999975,1,0,81,7,1,80
,,,,,,,,,,,,,,,,,,,,,,,,,,,,,,,,,,,,,,,,,,,,,,,,,,,,112,bici,Catalan,Sounds/cat_bici.mp3,2020-06-05_15h35.36.712,TranslationElicitation_eng-prolific,3.2.4,MacIntel,60,5d5eb07672a0690001cee147,,1,0,81,7,1,80
,,,,,,,,,,,,,,,,,,,,,,,,,,,,,,,,,,,,,,,,,,d,11.04999995,D,FALSE,,,,,,,111,bibero,Catalan,Sounds/cat_bibero.mp3,2020-06-05_15h35.36.712,TranslationElicitation_eng-prolific,3.2.4,MacIntel,60,5d5eb07672a0690001cee147,,1,0,81,6,1,80
,,,,,,,,,,,,,,,,,,,,,,,,,,,,,,,,,,,,,,,,,,o,11.16700006,DO,FALSE,,,,,,,111,bibero,Catalan,Sounds/cat_bibero.mp3,2020-06-05_15h35.36.712,TranslationElicitation_eng-prolific,3.2.4,MacIntel,60,5d5eb07672a0690001cee147,,1,0,81,6,1,80
,,,,,,,,,,,,,,,,,,,,,,,,,,,,,,,,,,,,,,,,,,o,11.31699991,DOO,FALSE,,,,,,,111,bibero,Catalan,Sounds/cat_bibero.mp3,2020-06-05_15h35.36.712,TranslationElicitation_eng-prolific,3.2.4,MacIntel,60,5d5eb07672a0690001cee147,,1,0,81,6,1,80
,,,,,,,,,,,,,,,,,,,,,,,,,,,,,,,,,,,,,,,,,,r,11.40100002,DOOR,FALSE,,,,,,,111,bibero,Catalan,Sounds/cat_bibero.mp3,2020-06-05_15h35.36.712,TranslationElicitation_eng-prolific,3.2.4,MacIntel,60,5d5eb07672a0690001cee147,,1,0,81,6,1,80
,,,,,,,,,,,,,,,,,,,,,,,,,,,,,,,,,,,,,,,,,,return,21.26699996,DOOR,FALSE,,,,,,,111,bibero,Catalan,Sounds/cat_bibero.mp3,2020-06-05_15h35.36.712,TranslationElicitation_eng-prolific,3.2.4,MacIntel,60,5d5eb07672a0690001cee147,21.26699996,1,0,81,6,1,80
,,,,,,,,,,,,,,,,,,,,,,,,,,,,,,,,,,,,,,,,,,,,,,,,,,,,111,bibero,Catalan,Sounds/cat_bibero.mp3,2020-06-05_15h35.36.712,TranslationElicitation_eng-prolific,3.2.4,MacIntel,60,5d5eb07672a0690001cee147,,1,0,81,6,1,80
,,,,,,,,,,,,,,,,,,,,,,,,,,,,,,,,,,,,,,,,,,b,6.585999966,B,FALSE,,,,,,,117,boto,Catalan,Sounds/cat_boto.mp3,2020-06-05_15h35.36.712,TranslationElicitation_eng-prolific,3.2.4,MacIntel,60,5d5eb07672a0690001cee147,,1,0,81,12,1,80
,,,,,,,,,,,,,,,,,,,,,,,,,,,,,,,,,,,,,,,,,,u,6.817000151,BU,FALSE,,,,,,,117,boto,Catalan,Sounds/cat_boto.mp3,2020-06-05_15h35.36.712,TranslationElicitation_eng-prolific,3.2.4,MacIntel,60,5d5eb07672a0690001cee147,,1,0,81,12,1,80
,,,,,,,,,,,,,,,,,,,,,,,,,,,,,,,,,,,,,,,,,,t,7.067000151,BUT,FALSE,,,,,,,117,boto,Catalan,Sounds/cat_boto.mp3,2020-06-05_15h35.36.712,TranslationElicitation_eng-prolific,3.2.4,MacIntel,60,5d5eb07672a0690001cee147,,1,0,81,12,1,80
,,,,,,,,,,,,,,,,,,,,,,,,,,,,,,,,,,,,,,,,,,t,7.184000015,BUTT,FALSE,,,,,,,117,boto,Catalan,Sounds/cat_boto.mp3,2020-06-05_15h35.36.712,TranslationElicitation_eng-prolific,3.2.4,MacIntel,60,5d5eb07672a0690001cee147,,1,0,81,12,1,80
,,,,,,,,,,,,,,,,,,,,,,,,,,,,,,,,,,,,,,,,,,o,7.784000158,BUTTO,FALSE,,,,,,,117,boto,Catalan,Sounds/cat_boto.mp3,2020-06-05_15h35.36.712,TranslationElicitation_eng-prolific,3.2.4,MacIntel,60,5d5eb07672a0690001cee147,,1,0,81,12,1,80
,,,,,,,,,,,,,,,,,,,,,,,,,,,,,,,,,,,,,,,,,,n,8.001000166,BUTTON,FALSE,,,,,,,117,boto,Catalan,Sounds/cat_boto.mp3,2020-06-05_15h35.36.712,TranslationElicitation_eng-prolific,3.2.4,MacIntel,60,5d5eb07672a0690001cee147,,1,0,81,12,1,80
,,,,,,,,,,,,,,,,,,,,,,,,,,,,,,,,,,,,,,,,,,return,8.351000071,BUTTON,FALSE,,,,,,,117,boto,Catalan,Sounds/cat_boto.mp3,2020-06-05_15h35.36.712,TranslationElicitation_eng-prolific,3.2.4,MacIntel,60,5d5eb07672a0690001cee147,8.351000071,1,0,81,12,1,80
,,,,,,,,,,,,,,,,,,,,,,,,,,,,,,,,,,,,,,,,,,,,,,,,,,,,117,boto,Catalan,Sounds/cat_boto.mp3,2020-06-05_15h35.36.712,TranslationElicitation_eng-prolific,3.2.4,MacIntel,60,5d5eb07672a0690001cee147,,1,0,81,12,1,80
,,,,,,,,,,,,,,,,,,,,,,,,,,,,,,,,,,,,,,,,,,c,4.21600008,C,FALSE,,,,,,,122,casa,Catalan,Sounds/cat_casa.mp3,2020-06-05_15h35.36.712,TranslationElicitation_eng-prolific,3.2.4,MacIntel,60,5d5eb07672a0690001cee147,,1,0,81,17,1,80
,,,,,,,,,,,,,,,,,,,,,,,,,,,,,,,,,,,,,,,,,,h,4.350000143,CH,FALSE,,,,,,,122,casa,Catalan,Sounds/cat_casa.mp3,2020-06-05_15h35.36.712,TranslationElicitation_eng-prolific,3.2.4,MacIntel,60,5d5eb07672a0690001cee147,,1,0,81,17,1,80
,,,,,,,,,,,,,,,,,,,,,,,,,,,,,,,,,,,,,,,,,,e,4.453000069,CHE,FALSE,,,,,,,122,casa,Catalan,Sounds/cat_casa.mp3,2020-06-05_15h35.36.712,TranslationElicitation_eng-prolific,3.2.4,MacIntel,60,5d5eb07672a0690001cee147,,1,0,81,17,1,80
,,,,,,,,,,,,,,,,,,,,,,,,,,,,,,,,,,,,,,,,,,e,4.616000175,CHEE,FALSE,,,,,,,122,casa,Catalan,Sounds/cat_casa.mp3,2020-06-05_15h35.36.712,TranslationElicitation_eng-prolific,3.2.4,MacIntel,60,5d5eb07672a0690001cee147,,1,0,81,17,1,80
,,,,,,,,,,,,,,,,,,,,,,,,,,,,,,,,,,,,,,,,,,s,4.784000158,CHEES,FALSE,,,,,,,122,casa,Catalan,Sounds/cat_casa.mp3,2020-06-05_15h35.36.712,TranslationElicitation_eng-prolific,3.2.4,MacIntel,60,5d5eb07672a0690001cee147,,1,0,81,17,1,80
,,,,,,,,,,,,,,,,,,,,,,,,,,,,,,,,,,,,,,,,,,e,4.899000168,CHEESE,FALSE,,,,,,,122,casa,Catalan,Sounds/cat_casa.mp3,2020-06-05_15h35.36.712,TranslationElicitation_eng-prolific,3.2.4,MacIntel,60,5d5eb07672a0690001cee147,,1,0,81,17,1,80
,,,,,,,,,,,,,,,,,,,,,,,,,,,,,,,,,,,,,,,,,,return,5.317000151,CHEESE,FALSE,,,,,,,122,casa,Catalan,Sounds/cat_casa.mp3,2020-06-05_15h35.36.712,TranslationElicitation_eng-prolific,3.2.4,MacIntel,60,5d5eb07672a0690001cee147,5.317000151,1,0,81,17,1,80
,,,,,,,,,,,,,,,,,,,,,,,,,,,,,,,,,,,,,,,,,,,,,,,,,,,,122,casa,Catalan,Sounds/cat_casa.mp3,2020-06-05_15h35.36.712,TranslationElicitation_eng-prolific,3.2.4,MacIntel,60,5d5eb07672a0690001cee147,,1,0,81,17,1,80
,,,,,,,,,,,,,,,,,,,,,,,,,,,,,,,,,,,,,,,,,,b,2.648999929,B,FALSE,,,,,,,113,boca,Catalan,Sounds/cat_boca.mp3,2020-06-05_15h35.36.712,TranslationElicitation_eng-prolific,3.2.4,MacIntel,60,5d5eb07672a0690001cee147,,1,0,81,8,1,80
,,,,,,,,,,,,,,,,,,,,,,,,,,,,,,,,,,,,,,,,,,o,2.915999889,BO,FALSE,,,,,,,113,boca,Catalan,Sounds/cat_boca.mp3,2020-06-05_15h35.36.712,TranslationElicitation_eng-prolific,3.2.4,MacIntel,60,5d5eb07672a0690001cee147,,1,0,81,8,1,80
,,,,,,,,,,,,,,,,,,,,,,,,,,,,,,,,,,,,,,,,,,o,3.049999952,BOO,FALSE,,,,,,,113,boca,Catalan,Sounds/cat_boca.mp3,2020-06-05_15h35.36.712,TranslationElicitation_eng-prolific,3.2.4,MacIntel,60,5d5eb07672a0690001cee147,,1,0,81,8,1,80
,,,,,,,,,,,,,,,,,,,,,,,,,,,,,,,,,,,,,,,,,,k,3.26699996,BOOK,FALSE,,,,,,,113,boca,Catalan,Sounds/cat_boca.mp3,2020-06-05_15h35.36.712,TranslationElicitation_eng-prolific,3.2.4,MacIntel,60,5d5eb07672a0690001cee147,,1,0,81,8,1,80
,,,,,,,,,,,,,,,,,,,,,,,,,,,,,,,,,,,,,,,,,,return,3.666999817,BOOK,FALSE,,,,,,,113,boca,Catalan,Sounds/cat_boca.mp3,2020-06-05_15h35.36.712,TranslationElicitation_eng-prolific,3.2.4,MacIntel,60,5d5eb07672a0690001cee147,3.666999817,1,0,81,8,1,80
,,,,,,,,,,,,,,,,,,,,,,,,,,,,,,,,,,,,,,,,,,,,,,,,,,,,113,boca,Catalan,Sounds/cat_boca.mp3,2020-06-05_15h35.36.712,TranslationElicitation_eng-prolific,3.2.4,MacIntel,60,5d5eb07672a0690001cee147,,1,0,81,8,1,80
,,,,,,,,,,,,,,,,,,,,,,,,,,,,,,,,,,,,,,,,,,m,3.13499999,M,FALSE,,,,,,,154,mirall,Catalan,Sounds/cat_mirall.mp3,2020-06-05_15h35.36.712,TranslationElicitation_eng-prolific,3.2.4,MacIntel,60,5d5eb07672a0690001cee147,,1,0,81,47,1,80
,,,,,,,,,,,,,,,,,,,,,,,,,,,,,,,,,,,,,,,,,,i,3.318000078,MI,FALSE,,,,,,,154,mirall,Catalan,Sounds/cat_mirall.mp3,2020-06-05_15h35.36.712,TranslationElicitation_eng-prolific,3.2.4,MacIntel,60,5d5eb07672a0690001cee147,,1,0,81,47,1,80
,,,,,,,,,,,,,,,,,,,,,,,,,,,,,,,,,,,,,,,,,,r,3.483999968,MIR,FALSE,,,,,,,154,mirall,Catalan,Sounds/cat_mirall.mp3,2020-06-05_15h35.36.712,TranslationElicitation_eng-prolific,3.2.4,MacIntel,60,5d5eb07672a0690001cee147,,1,0,81,47,1,80
,,,,,,,,,,,,,,,,,,,,,,,,,,,,,,,,,,,,,,,,,,r,3.65199995,MIRR,FALSE,,,,,,,154,mirall,Catalan,Sounds/cat_mirall.mp3,2020-06-05_15h35.36.712,TranslationElicitation_eng-prolific,3.2.4,MacIntel,60,5d5eb07672a0690001cee147,,1,0,81,47,1,80
,,,,,,,,,,,,,,,,,,,,,,,,,,,,,,,,,,,,,,,,,,o,3.667000055,MIRRO,FALSE,,,,,,,154,mirall,Catalan,Sounds/cat_mirall.mp3,2020-06-05_15h35.36.712,TranslationElicitation_eng-prolific,3.2.4,MacIntel,60,5d5eb07672a0690001cee147,,1,0,81,47,1,80
,,,,,,,,,,,,,,,,,,,,,,,,,,,,,,,,,,,,,,,,,,r,3.818000078,MIRROR,FALSE,,,,,,,154,mirall,Catalan,Sounds/cat_mirall.mp3,2020-06-05_15h35.36.712,TranslationElicitation_eng-prolific,3.2.4,MacIntel,60,5d5eb07672a0690001cee147,,1,0,81,47,1,80
,,,,,,,,,,,,,,,,,,,,,,,,,,,,,,,,,,,,,,,,,,return,4.351000071,MIRROR,FALSE,,,,,,,154,mirall,Catalan,Sounds/cat_mirall.mp3,2020-06-05_15h35.36.712,TranslationElicitation_eng-prolific,3.2.4,MacIntel,60,5d5eb07672a0690001cee147,4.351000071,1,0,81,47,1,80
,,,,,,,,,,,,,,,,,,,,,,,,,,,,,,,,,,,,,,,,,,,,,,,,,,,,154,mirall,Catalan,Sounds/cat_mirall.mp3,2020-06-05_15h35.36.712,TranslationElicitation_eng-prolific,3.2.4,MacIntel,60,5d5eb07672a0690001cee147,,1,0,81,47,1,80
,,,,,,,,,,,,,,,,,,,,,,,,,,,,,,,,,,,,,,,,,,p,2.282999992,P,FALSE,,,,,,,169,plat,Catalan,Sounds/cat_plat.mp3,2020-06-05_15h35.36.712,TranslationElicitation_eng-prolific,3.2.4,MacIntel,60,5d5eb07672a0690001cee147,,1,0,81,61,1,80
,,,,,,,,,,,,,,,,,,,,,,,,,,,,,,,,,,,,,,,,,,l,2.467000008,PL,FALSE,,,,,,,169,plat,Catalan,Sounds/cat_plat.mp3,2020-06-05_15h35.36.712,TranslationElicitation_eng-prolific,3.2.4,MacIntel,60,5d5eb07672a0690001cee147,,1,0,81,61,1,80
,,,,,,,,,,,,,,,,,,,,,,,,,,,,,,,,,,,,,,,,,,a,2.615999937,PLA,FALSE,,,,,,,169,plat,Catalan,Sounds/cat_plat.mp3,2020-06-05_15h35.36.712,TranslationElicitation_eng-prolific,3.2.4,MacIntel,60,5d5eb07672a0690001cee147,,1,0,81,61,1,80
,,,,,,,,,,,,,,,,,,,,,,,,,,,,,,,,,,,,,,,,,,n,2.75,PLAN,FALSE,,,,,,,169,plat,Catalan,Sounds/cat_plat.mp3,2020-06-05_15h35.36.712,TranslationElicitation_eng-prolific,3.2.4,MacIntel,60,5d5eb07672a0690001cee147,,1,0,81,61,1,80
,,,,,,,,,,,,,,,,,,,,,,,,,,,,,,,,,,,,,,,,,,t,2.967000008,PLANT,FALSE,,,,,,,169,plat,Catalan,Sounds/cat_plat.mp3,2020-06-05_15h35.36.712,TranslationElicitation_eng-prolific,3.2.4,MacIntel,60,5d5eb07672a0690001cee147,,1,0,81,61,1,80
,,,,,,,,,,,,,,,,,,,,,,,,,,,,,,,,,,,,,,,,,,return,3.086999893,PLANT,FALSE,,,,,,,169,plat,Catalan,Sounds/cat_plat.mp3,2020-06-05_15h35.36.712,TranslationElicitation_eng-prolific,3.2.4,MacIntel,60,5d5eb07672a0690001cee147,3.086999893,1,0,81,61,1,80
,,,,,,,,,,,,,,,,,,,,,,,,,,,,,,,,,,,,,,,,,,,,,,,,,,,,169,plat,Catalan,Sounds/cat_plat.mp3,2020-06-05_15h35.36.712,TranslationElicitation_eng-prolific,3.2.4,MacIntel,60,5d5eb07672a0690001cee147,,1,0,81,61,1,80
,,,,,,,,,,,,,,,,,,,,,,,,,,,,,,,,,,,,,,,,,,a,1.851999998,A,FALSE,,,,,,,132,estrella,Catalan,Sounds/cat_estrella.mp3,2020-06-05_15h35.36.712,TranslationElicitation_eng-prolific,3.2.4,MacIntel,60,5d5eb07672a0690001cee147,,1,0,81,26,1,80
,,,,,,,,,,,,,,,,,,,,,,,,,,,,,,,,,,,,,,,,,,u,2.000999928,AU,FALSE,,,,,,,132,estrella,Catalan,Sounds/cat_estrella.mp3,2020-06-05_15h35.36.712,TranslationElicitation_eng-prolific,3.2.4,MacIntel,60,5d5eb07672a0690001cee147,,1,0,81,26,1,80
,,,,,,,,,,,,,,,,,,,,,,,,,,,,,,,,,,,,,,,,,,s,2.15199995,AUS,FALSE,,,,,,,132,estrella,Catalan,Sounds/cat_estrella.mp3,2020-06-05_15h35.36.712,TranslationElicitation_eng-prolific,3.2.4,MacIntel,60,5d5eb07672a0690001cee147,,1,0,81,26,1,80
,,,,,,,,,,,,,,,,,,,,,,,,,,,,,,,,,,,,,,,,,,t,2.434000015,AUST,FALSE,,,,,,,132,estrella,Catalan,Sounds/cat_estrella.mp3,2020-06-05_15h35.36.712,TranslationElicitation_eng-prolific,3.2.4,MacIntel,60,5d5eb07672a0690001cee147,,1,0,81,26,1,80
,,,,,,,,,,,,,,,,,,,,,,,,,,,,,,,,,,,,,,,,,,r,2.65199995,AUSTR,FALSE,,,,,,,132,estrella,Catalan,Sounds/cat_estrella.mp3,2020-06-05_15h35.36.712,TranslationElicitation_eng-prolific,3.2.4,MacIntel,60,5d5eb07672a0690001cee147,,1,0,81,26,1,80
,,,,,,,,,,,,,,,,,,,,,,,,,,,,,,,,,,,,,,,,,,a,2.91899991,AUSTRA,FALSE,,,,,,,132,estrella,Catalan,Sounds/cat_estrella.mp3,2020-06-05_15h35.36.712,TranslationElicitation_eng-prolific,3.2.4,MacIntel,60,5d5eb07672a0690001cee147,,1,0,81,26,1,80
