consentKey.keys,consentKey.rt,languageL1Key.keys,languageL1Key.rt,languageL2,languageL2OralKey.keys,languageL2OralKey.rt,languageL2WrittenKey.keys,languageL2WrittenKey.rt,languageL3OralKey.keys,languageL3OralKey.rt,languageL3WrittenKey.keys,languageL3WrittenKey.rt,languageCatalanOralKey.keys,languageCatalanOralKey.rt,languageCatalanWrittenKey.keys,languageCatalanWrittenKey.rt,languageCatalanTimeKey.keys,languageCatalanTimeKey.rt,languageSpanishOralKey.keys,languageSpanishOralKey.rt,languageSpanishWrittenKey.keys,languageSpanishWrittenKey.rt,languageSpanishTimeKey.keys,languageSpanishTimeKey.rt,age,demoSexKey.keys,demoSexKey.rt,demoEducationKey.keys,demoEducationKey.rt,city,demoVisionKey.keys,demoVisionKey.rt,demoLanguageKey.keys,demoLanguageKey.rt,setupLocationKey.keys,setupLocationKey.rt,setupNoiseKey.keys,setupNoiseKey.rt,instructionsKeys.keys,instructionsKeys.rt,keyPressed,keyPressTime,inputText,error,trialsPracticeSpanish.thisRepN,trialsPracticeSpanish.thisTrialN,trialsPracticeSpanish.thisN,trialsPracticeSpanish.thisIndex,trialsPracticeSpanish.ran,trialsPracticeSpanish.order,trial_id,word,test_language,soundfile,date,expName,psychopyVersion,OS,frameRate,participant,trialOffset,trialsSpanish.thisRepN,trialsSpanish.thisTrialN,trialsSpanish.thisN,trialsSpanish.thisIndex,trialsSpanish.ran,trialsSpanish.order
space,5.112999916,e,4.687999964,,,,,,,,,,1,4.373000145,1,5.176000118,1,7.982999802,1,5.485999823,1,1.228999853,1,1.616999865,22,m,2.015000105,3,6.267999887,CHICHESTER,y,8.786000013,n,3.020999908,1,4.101999998,1,2.680000067,space,16.977,c,4.166000128,C,FALSE,1,0,5,2,1,4,26,chaqueta,Spanish,Sounds/spa_chaqueta.mp3,2020-06-05_15h34.51.228,TranslationElicitation_eng-prolific,3.2.4,Win32,60,5d687a77edb39d00194f0a60,,,,,,,
,,,,,,,,,,,,,,,,,,,,,,,,,,,,,,,,,,,,,,,,,h,4.23300004,CH,FALSE,1,0,5,2,1,4,26,chaqueta,Spanish,Sounds/spa_chaqueta.mp3,2020-06-05_15h34.51.228,TranslationElicitation_eng-prolific,3.2.4,Win32,60,5d687a77edb39d00194f0a60,,,,,,,
,,,,,,,,,,,,,,,,,,,,,,,,,,,,,,,,,,,,,,,,,i,4.350000143,CHI,FALSE,1,0,5,2,1,4,26,chaqueta,Spanish,Sounds/spa_chaqueta.mp3,2020-06-05_15h34.51.228,TranslationElicitation_eng-prolific,3.2.4,Win32,60,5d687a77edb39d00194f0a60,,,,,,,
,,,,,,,,,,,,,,,,,,,,,,,,,,,,,,,,,,,,,,,,,c,4.46600008,CHIC,FALSE,1,0,5,2,1,4,26,chaqueta,Spanish,Sounds/spa_chaqueta.mp3,2020-06-05_15h34.51.228,TranslationElicitation_eng-prolific,3.2.4,Win32,60,5d687a77edb39d00194f0a60,,,,,,,
,,,,,,,,,,,,,,,,,,,,,,,,,,,,,,,,,,,,,,,,,k,4.565999985,CHICK,FALSE,1,0,5,2,1,4,26,chaqueta,Spanish,Sounds/spa_chaqueta.mp3,2020-06-05_15h34.51.228,TranslationElicitation_eng-prolific,3.2.4,Win32,60,5d687a77edb39d00194f0a60,,,,,,,
,,,,,,,,,,,,,,,,,,,,,,,,,,,,,,,,,,,,,,,,,e,4.666000128,CHICKE,FALSE,1,0,5,2,1,4,26,chaqueta,Spanish,Sounds/spa_chaqueta.mp3,2020-06-05_15h34.51.228,TranslationElicitation_eng-prolific,3.2.4,Win32,60,5d687a77edb39d00194f0a60,,,,,,,
,,,,,,,,,,,,,,,,,,,,,,,,,,,,,,,,,,,,,,,,,n,4.73300004,CHICKEN,FALSE,1,0,5,2,1,4,26,chaqueta,Spanish,Sounds/spa_chaqueta.mp3,2020-06-05_15h34.51.228,TranslationElicitation_eng-prolific,3.2.4,Win32,60,5d687a77edb39d00194f0a60,,,,,,,
,,,,,,,,,,,,,,,,,,,,,,,,,,,,,,,,,,,,,,,,,return,5.049999952,CHICKEN,FALSE,1,0,5,2,1,4,26,chaqueta,Spanish,Sounds/spa_chaqueta.mp3,2020-06-05_15h34.51.228,TranslationElicitation_eng-prolific,3.2.4,Win32,60,5d687a77edb39d00194f0a60,5.049999952,,,,,,
,,,,,,,,,,,,,,,,,,,,,,,,,,,,,,,,,,,,,,,,,,,,,1,0,5,2,1,4,26,chaqueta,Spanish,Sounds/spa_chaqueta.mp3,2020-06-05_15h34.51.228,TranslationElicitation_eng-prolific,3.2.4,Win32,60,5d687a77edb39d00194f0a60,,,,,,,
,,,,,,,,,,,,,,,,,,,,,,,,,,,,,,,,,,,,,,,,,w,12.35100007,W,FALSE,1,0,5,0,1,4,1,arbol,Spanish,Sounds/spa_arbol.mp3,2020-06-05_15h34.51.228,TranslationElicitation_eng-prolific,3.2.4,Win32,60,5d687a77edb39d00194f0a60,,,,,,,
,,,,,,,,,,,,,,,,,,,,,,,,,,,,,,,,,,,,,,,,,e,12.45000005,WE,FALSE,1,0,5,0,1,4,1,arbol,Spanish,Sounds/spa_arbol.mp3,2020-06-05_15h34.51.228,TranslationElicitation_eng-prolific,3.2.4,Win32,60,5d687a77edb39d00194f0a60,,,,,,,
,,,,,,,,,,,,,,,,,,,,,,,,,,,,,,,,,,,,,,,,,l,12.48400021,WEL,FALSE,1,0,5,0,1,4,1,arbol,Spanish,Sounds/spa_arbol.mp3,2020-06-05_15h34.51.228,TranslationElicitation_eng-prolific,3.2.4,Win32,60,5d687a77edb39d00194f0a60,,,,,,,
,,,,,,,,,,,,,,,,,,,,,,,,,,,,,,,,,,,,,,,,,l,12.6170001,WELL,FALSE,1,0,5,0,1,4,1,arbol,Spanish,Sounds/spa_arbol.mp3,2020-06-05_15h34.51.228,TranslationElicitation_eng-prolific,3.2.4,Win32,60,5d687a77edb39d00194f0a60,,,,,,,
,,,,,,,,,,,,,,,,,,,,,,,,,,,,,,,,,,,,,,,,,space,13.43300009,WELL ,FALSE,1,0,5,0,1,4,1,arbol,Spanish,Sounds/spa_arbol.mp3,2020-06-05_15h34.51.228,TranslationElicitation_eng-prolific,3.2.4,Win32,60,5d687a77edb39d00194f0a60,,,,,,,
,,,,,,,,,,,,,,,,,,,,,,,,,,,,,,,,,,,,,,,,,d,13.50100017,WELL D,FALSE,1,0,5,0,1,4,1,arbol,Spanish,Sounds/spa_arbol.mp3,2020-06-05_15h34.51.228,TranslationElicitation_eng-prolific,3.2.4,Win32,60,5d687a77edb39d00194f0a60,,,,,,,
,,,,,,,,,,,,,,,,,,,,,,,,,,,,,,,,,,,,,,,,,o,13.6170001,WELL DO,FALSE,1,0,5,0,1,4,1,arbol,Spanish,Sounds/spa_arbol.mp3,2020-06-05_15h34.51.228,TranslationElicitation_eng-prolific,3.2.4,Win32,60,5d687a77edb39d00194f0a60,,,,,,,
,,,,,,,,,,,,,,,,,,,,,,,,,,,,,,,,,,,,,,,,,n,13.81800008,WELL DON,FALSE,1,0,5,0,1,4,1,arbol,Spanish,Sounds/spa_arbol.mp3,2020-06-05_15h34.51.228,TranslationElicitation_eng-prolific,3.2.4,Win32,60,5d687a77edb39d00194f0a60,,,,,,,
,,,,,,,,,,,,,,,,,,,,,,,,,,,,,,,,,,,,,,,,,e,13.88400006,WELL DONE,FALSE,1,0,5,0,1,4,1,arbol,Spanish,Sounds/spa_arbol.mp3,2020-06-05_15h34.51.228,TranslationElicitation_eng-prolific,3.2.4,Win32,60,5d687a77edb39d00194f0a60,,,,,,,
,,,,,,,,,,,,,,,,,,,,,,,,,,,,,,,,,,,,,,,,,return,14.38400006,WELL DONE,FALSE,1,0,5,0,1,4,1,arbol,Spanish,Sounds/spa_arbol.mp3,2020-06-05_15h34.51.228,TranslationElicitation_eng-prolific,3.2.4,Win32,60,5d687a77edb39d00194f0a60,14.38400006,,,,,,
,,,,,,,,,,,,,,,,,,,,,,,,,,,,,,,,,,,,,,,,,,,,,1,0,5,0,1,4,1,arbol,Spanish,Sounds/spa_arbol.mp3,2020-06-05_15h34.51.228,TranslationElicitation_eng-prolific,3.2.4,Win32,60,5d687a77edb39d00194f0a60,,,,,,,
,,,,,,,,,,,,,,,,,,,,,,,,,,,,,,,,,,,,,,,,,h,2.167000055,H,FALSE,1,0,5,3,1,4,70,ola,Spanish,Sounds/spa_ola.mp3,2020-06-05_15h34.51.228,TranslationElicitation_eng-prolific,3.2.4,Win32,60,5d687a77edb39d00194f0a60,,,,,,,
,,,,,,,,,,,,,,,,,,,,,,,,,,,,,,,,,,,,,,,,,e,2.26699996,HE,FALSE,1,0,5,3,1,4,70,ola,Spanish,Sounds/spa_ola.mp3,2020-06-05_15h34.51.228,TranslationElicitation_eng-prolific,3.2.4,Win32,60,5d687a77edb39d00194f0a60,,,,,,,
,,,,,,,,,,,,,,,,,,,,,,,,,,,,,,,,,,,,,,,,,l,2.400000095,HEL,FALSE,1,0,5,3,1,4,70,ola,Spanish,Sounds/spa_ola.mp3,2020-06-05_15h34.51.228,TranslationElicitation_eng-prolific,3.2.4,Win32,60,5d687a77edb39d00194f0a60,,,,,,,
,,,,,,,,,,,,,,,,,,,,,,,,,,,,,,,,,,,,,,,,,l,2.551000118,HELL,FALSE,1,0,5,3,1,4,70,ola,Spanish,Sounds/spa_ola.mp3,2020-06-05_15h34.51.228,TranslationElicitation_eng-prolific,3.2.4,Win32,60,5d687a77edb39d00194f0a60,,,,,,,
,,,,,,,,,,,,,,,,,,,,,,,,,,,,,,,,,,,,,,,,,o,2.733999968,HELLO,FALSE,1,0,5,3,1,4,70,ola,Spanish,Sounds/spa_ola.mp3,2020-06-05_15h34.51.228,TranslationElicitation_eng-prolific,3.2.4,Win32,60,5d687a77edb39d00194f0a60,,,,,,,
,,,,,,,,,,,,,,,,,,,,,,,,,,,,,,,,,,,,,,,,,backspace,5.551000118,HELL,TRUE,1,0,5,3,1,4,70,ola,Spanish,Sounds/spa_ola.mp3,2020-06-05_15h34.51.228,TranslationElicitation_eng-prolific,3.2.4,Win32,60,5d687a77edb39d00194f0a60,,,,,,,
,,,,,,,,,,,,,,,,,,,,,,,,,,,,,,,,,,,,,,,,,backspace,6.049999952,HEL,TRUE,1,0,5,3,1,4,70,ola,Spanish,Sounds/spa_ola.mp3,2020-06-05_15h34.51.228,TranslationElicitation_eng-prolific,3.2.4,Win32,60,5d687a77edb39d00194f0a60,,,,,,,
,,,,,,,,,,,,,,,,,,,,,,,,,,,,,,,,,,,,,,,,,backspace,6.084000111,HE,TRUE,1,0,5,3,1,4,70,ola,Spanish,Sounds/spa_ola.mp3,2020-06-05_15h34.51.228,TranslationElicitation_eng-prolific,3.2.4,Win32,60,5d687a77edb39d00194f0a60,,,,,,,
,,,,,,,,,,,,,,,,,,,,,,,,,,,,,,,,,,,,,,,,,backspace,6.117000103,H,TRUE,1,0,5,3,1,4,70,ola,Spanish,Sounds/spa_ola.mp3,2020-06-05_15h34.51.228,TranslationElicitation_eng-prolific,3.2.4,Win32,60,5d687a77edb39d00194f0a60,,,,,,,
,,,,,,,,,,,,,,,,,,,,,,,,,,,,,,,,,,,,,,,,,e,6.78399992,HE,TRUE,1,0,5,3,1,4,70,ola,Spanish,Sounds/spa_ola.mp3,2020-06-05_15h34.51.228,TranslationElicitation_eng-prolific,3.2.4,Win32,60,5d687a77edb39d00194f0a60,,,,,,,
,,,,,,,,,,,,,,,,,,,,,,,,,,,,,,,,,,,,,,,,,l,6.884000063,HEL,TRUE,1,0,5,3,1,4,70,ola,Spanish,Sounds/spa_ola.mp3,2020-06-05_15h34.51.228,TranslationElicitation_eng-prolific,3.2.4,Win32,60,5d687a77edb39d00194f0a60,,,,,,,
,,,,,,,,,,,,,,,,,,,,,,,,,,,,,,,,,,,,,,,,,l,7.03399992,HELL,TRUE,1,0,5,3,1,4,70,ola,Spanish,Sounds/spa_ola.mp3,2020-06-05_15h34.51.228,TranslationElicitation_eng-prolific,3.2.4,Win32,60,5d687a77edb39d00194f0a60,,,,,,,
,,,,,,,,,,,,,,,,,,,,,,,,,,,,,,,,,,,,,,,,,o,7.434000015,HELLO,TRUE,1,0,5,3,1,4,70,ola,Spanish,Sounds/spa_ola.mp3,2020-06-05_15h34.51.228,TranslationElicitation_eng-prolific,3.2.4,Win32,60,5d687a77edb39d00194f0a60,,,,,,,
,,,,,,,,,,,,,,,,,,,,,,,,,,,,,,,,,,,,,,,,,return,8.667000055,HELLO,TRUE,1,0,5,3,1,4,70,ola,Spanish,Sounds/spa_ola.mp3,2020-06-05_15h34.51.228,TranslationElicitation_eng-prolific,3.2.4,Win32,60,5d687a77edb39d00194f0a60,8.667000055,,,,,,
,,,,,,,,,,,,,,,,,,,,,,,,,,,,,,,,,,,,,,,,,,,,,1,0,5,3,1,4,70,ola,Spanish,Sounds/spa_ola.mp3,2020-06-05_15h34.51.228,TranslationElicitation_eng-prolific,3.2.4,Win32,60,5d687a77edb39d00194f0a60,,,,,,,
,,,,,,,,,,,,,,,,,,,,,,,,,,,,,,,,,,,,,,,,,t,27.03500009,T,FALSE,1,0,5,4,1,4,96,tigre,Spanish,Sounds/spa_tigre.mp3,2020-06-05_15h34.51.228,TranslationElicitation_eng-prolific,3.2.4,Win32,60,5d687a77edb39d00194f0a60,,,,,,,
,,,,,,,,,,,,,,,,,,,,,,,,,,,,,,,,,,,,,,,,,e,27.11899996,TE,FALSE,1,0,5,4,1,4,96,tigre,Spanish,Sounds/spa_tigre.mp3,2020-06-05_15h34.51.228,TranslationElicitation_eng-prolific,3.2.4,Win32,60,5d687a77edb39d00194f0a60,,,,,,,
,,,,,,,,,,,,,,,,,,,,,,,,,,,,,,,,,,,,,,,,,d,27.28600001,TED,FALSE,1,0,5,4,1,4,96,tigre,Spanish,Sounds/spa_tigre.mp3,2020-06-05_15h34.51.228,TranslationElicitation_eng-prolific,3.2.4,Win32,60,5d687a77edb39d00194f0a60,,,,,,,
,,,,,,,,,,,,,,,,,,,,,,,,,,,,,,,,,,,,,,,,,d,27.43599987,TEDD,FALSE,1,0,5,4,1,4,96,tigre,Spanish,Sounds/spa_tigre.mp3,2020-06-05_15h34.51.228,TranslationElicitation_eng-prolific,3.2.4,Win32,60,5d687a77edb39d00194f0a60,,,,,,,
,,,,,,,,,,,,,,,,,,,,,,,,,,,,,,,,,,,,,,,,,y,27.48600006,TEDDY,FALSE,1,0,5,4,1,4,96,tigre,Spanish,Sounds/spa_tigre.mp3,2020-06-05_15h34.51.228,TranslationElicitation_eng-prolific,3.2.4,Win32,60,5d687a77edb39d00194f0a60,,,,,,,
,,,,,,,,,,,,,,,,,,,,,,,,,,,,,,,,,,,,,,,,,return,28.40199995,TEDDY,FALSE,1,0,5,4,1,4,96,tigre,Spanish,Sounds/spa_tigre.mp3,2020-06-05_15h34.51.228,TranslationElicitation_eng-prolific,3.2.4,Win32,60,5d687a77edb39d00194f0a60,28.40199995,,,,,,
,,,,,,,,,,,,,,,,,,,,,,,,,,,,,,,,,,,,,,,,,,,,,1,0,5,4,1,4,96,tigre,Spanish,Sounds/spa_tigre.mp3,2020-06-05_15h34.51.228,TranslationElicitation_eng-prolific,3.2.4,Win32,60,5d687a77edb39d00194f0a60,,,,,,,
,,,,,,,,,,,,,,,,,,,,,,,,,,,,,,,,,,,,,,,,,c,6.200000048,C,FALSE,1,0,5,1,1,4,30,corona,Spanish,Sounds/spa_corona.mp3,2020-06-05_15h34.51.228,TranslationElicitation_eng-prolific,3.2.4,Win32,60,5d687a77edb39d00194f0a60,,,,,,,
,,,,,,,,,,,,,,,,,,,,,,,,,,,,,,,,,,,,,,,,,o,6.334000111,CO,FALSE,1,0,5,1,1,4,30,corona,Spanish,Sounds/spa_corona.mp3,2020-06-05_15h34.51.228,TranslationElicitation_eng-prolific,3.2.4,Win32,60,5d687a77edb39d00194f0a60,,,,,,,
,,,,,,,,,,,,,,,,,,,,,,,,,,,,,,,,,,,,,,,,,backspace,6.868000031,C,TRUE,1,0,5,1,1,4,30,corona,Spanish,Sounds/spa_corona.mp3,2020-06-05_15h34.51.228,TranslationElicitation_eng-prolific,3.2.4,Win32,60,5d687a77edb39d00194f0a60,,,,,,,
,,,,,,,,,,,,,,,,,,,,,,,,,,,,,,,,,,,,,,,,,backspace,7.01699996,,TRUE,1,0,5,1,1,4,30,corona,Spanish,Sounds/spa_corona.mp3,2020-06-05_15h34.51.228,TranslationElicitation_eng-prolific,3.2.4,Win32,60,5d687a77edb39d00194f0a60,,,,,,,
,,,,,,,,,,,,,,,,,,,,,,,,,,,,,,,,,,,,,,,,,b,9.151000023,B,TRUE,1,0,5,1,1,4,30,corona,Spanish,Sounds/spa_corona.mp3,2020-06-05_15h34.51.228,TranslationElicitation_eng-prolific,3.2.4,Win32,60,5d687a77edb39d00194f0a60,,,,,,,
,,,,,,,,,,,,,,,,,,,,,,,,,,,,,,,,,,,,,,,,,e,10.01699996,BE,TRUE,1,0,5,1,1,4,30,corona,Spanish,Sounds/spa_corona.mp3,2020-06-05_15h34.51.228,TranslationElicitation_eng-prolific,3.2.4,Win32,60,5d687a77edb39d00194f0a60,,,,,,,
,,,,,,,,,,,,,,,,,,,,,,,,,,,,,,,,,,,,,,,,,e,10.21700001,BEE,TRUE,1,0,5,1,1,4,30,corona,Spanish,Sounds/spa_corona.mp3,2020-06-05_15h34.51.228,TranslationElicitation_eng-prolific,3.2.4,Win32,60,5d687a77edb39d00194f0a60,,,,,,,
,,,,,,,,,,,,,,,,,,,,,,,,,,,,,,,,,,,,,,,,,r,10.26699996,BEER,TRUE,1,0,5,1,1,4,30,corona,Spanish,Sounds/spa_corona.mp3,2020-06-05_15h34.51.228,TranslationElicitation_eng-prolific,3.2.4,Win32,60,5d687a77edb39d00194f0a60,,,,,,,
,,,,,,,,,,,,,,,,,,,,,,,,,,,,,,,,,,,,,,,,,return,10.38400006,BEER,TRUE,1,0,5,1,1,4,30,corona,Spanish,Sounds/spa_corona.mp3,2020-06-05_15h34.51.228,TranslationElicitation_eng-prolific,3.2.4,Win32,60,5d687a77edb39d00194f0a60,10.38400006,,,,,,
,,,,,,,,,,,,,,,,,,,,,,,,,,,,,,,,,,,,,,,,,,,,,1,0,5,1,1,4,30,corona,Spanish,Sounds/spa_corona.mp3,2020-06-05_15h34.51.228,TranslationElicitation_eng-prolific,3.2.4,Win32,60,5d687a77edb39d00194f0a60,,,,,,,
,,,,,,,,,,,,,,,,,,,,,,,,,,,,,,,,,,,,,,,,,b,34.98500013,B,FALSE,,,,,,,31,cubo,Spanish,Sounds/spa_cubo.mp3,2020-06-05_15h34.51.228,TranslationElicitation_eng-prolific,3.2.4,Win32,60,5d687a77edb39d00194f0a60,,1,0,98,27,1,97
,,,,,,,,,,,,,,,,,,,,,,,,,,,,,,,,,,,,,,,,,l,35.06900001,BL,FALSE,,,,,,,31,cubo,Spanish,Sounds/spa_cubo.mp3,2020-06-05_15h34.51.228,TranslationElicitation_eng-prolific,3.2.4,Win32,60,5d687a77edb39d00194f0a60,,1,0,98,27,1,97
,,,,,,,,,,,,,,,,,,,,,,,,,,,,,,,,,,,,,,,,,a,35.18600011,BLA,FALSE,,,,,,,31,cubo,Spanish,Sounds/spa_cubo.mp3,2020-06-05_15h34.51.228,TranslationElicitation_eng-prolific,3.2.4,Win32,60,5d687a77edb39d00194f0a60,,1,0,98,27,1,97
,,,,,,,,,,,,,,,,,,,,,,,,,,,,,,,,,,,,,,,,,n,35.48600006,BLAN,FALSE,,,,,,,31,cubo,Spanish,Sounds/spa_cubo.mp3,2020-06-05_15h34.51.228,TranslationElicitation_eng-prolific,3.2.4,Win32,60,5d687a77edb39d00194f0a60,,1,0,98,27,1,97
,,,,,,,,,,,,,,,,,,,,,,,,,,,,,,,,,,,,,,,,,k,35.65200019,BLANK,FALSE,,,,,,,31,cubo,Spanish,Sounds/spa_cubo.mp3,2020-06-05_15h34.51.228,TranslationElicitation_eng-prolific,3.2.4,Win32,60,5d687a77edb39d00194f0a60,,1,0,98,27,1,97
,,,,,,,,,,,,,,,,,,,,,,,,,,,,,,,,,,,,,,,,,e,35.7190001,BLANKE,FALSE,,,,,,,31,cubo,Spanish,Sounds/spa_cubo.mp3,2020-06-05_15h34.51.228,TranslationElicitation_eng-prolific,3.2.4,Win32,60,5d687a77edb39d00194f0a60,,1,0,98,27,1,97
,,,,,,,,,,,,,,,,,,,,,,,,,,,,,,,,,,,,,,,,,t,35.852,BLANKET,FALSE,,,,,,,31,cubo,Spanish,Sounds/spa_cubo.mp3,2020-06-05_15h34.51.228,TranslationElicitation_eng-prolific,3.2.4,Win32,60,5d687a77edb39d00194f0a60,,1,0,98,27,1,97
,,,,,,,,,,,,,,,,,,,,,,,,,,,,,,,,,,,,,,,,,return,36.3360002,BLANKET,FALSE,,,,,,,31,cubo,Spanish,Sounds/spa_cubo.mp3,2020-06-05_15h34.51.228,TranslationElicitation_eng-prolific,3.2.4,Win32,60,5d687a77edb39d00194f0a60,36.3360002,1,0,98,27,1,97
,,,,,,,,,,,,,,,,,,,,,,,,,,,,,,,,,,,,,,,,,,,,,,,,,,,31,cubo,Spanish,Sounds/spa_cubo.mp3,2020-06-05_15h34.51.228,TranslationElicitation_eng-prolific,3.2.4,Win32,60,5d687a77edb39d00194f0a60,,1,0,98,27,1,97
,,,,,,,,,,,,,,,,,,,,,,,,,,,,,,,,,,,,,,,,,g,3.549999952,G,FALSE,,,,,,,103,zanahoria,Spanish,Sounds/spa_zanahoria.mp3,2020-06-05_15h34.51.228,TranslationElicitation_eng-prolific,3.2.4,Win32,60,5d687a77edb39d00194f0a60,,1,0,98,97,1,97
,,,,,,,,,,,,,,,,,,,,,,,,,,,,,,,,,,,,,,,,,i,3.632999897,GI,FALSE,,,,,,,103,zanahoria,Spanish,Sounds/spa_zanahoria.mp3,2020-06-05_15h34.51.228,TranslationElicitation_eng-prolific,3.2.4,Win32,60,5d687a77edb39d00194f0a60,,1,0,98,97,1,97
,,,,,,,,,,,,,,,,,,,,,,,,,,,,,,,,,,,,,,,,,r,3.799999952,GIR,FALSE,,,,,,,103,zanahoria,Spanish,Sounds/spa_zanahoria.mp3,2020-06-05_15h34.51.228,TranslationElicitation_eng-prolific,3.2.4,Win32,60,5d687a77edb39d00194f0a60,,1,0,98,97,1,97
,,,,,,,,,,,,,,,,,,,,,,,,,,,,,,,,,,,,,,,,,l,3.898999929,GIRL,FALSE,,,,,,,103,zanahoria,Spanish,Sounds/spa_zanahoria.mp3,2020-06-05_15h34.51.228,TranslationElicitation_eng-prolific,3.2.4,Win32,60,5d687a77edb39d00194f0a60,,1,0,98,97,1,97
,,,,,,,,,,,,,,,,,,,,,,,,,,,,,,,,,,,,,,,,,return,4.532999992,GIRL,FALSE,,,,,,,103,zanahoria,Spanish,Sounds/spa_zanahoria.mp3,2020-06-05_15h34.51.228,TranslationElicitation_eng-prolific,3.2.4,Win32,60,5d687a77edb39d00194f0a60,4.532999992,1,0,98,97,1,97
,,,,,,,,,,,,,,,,,,,,,,,,,,,,,,,,,,,,,,,,,,,,,,,,,,,103,zanahoria,Spanish,Sounds/spa_zanahoria.mp3,2020-06-05_15h34.51.228,TranslationElicitation_eng-prolific,3.2.4,Win32,60,5d687a77edb39d00194f0a60,,1,0,98,97,1,97
,,,,,,,,,,,,,,,,,,,,,,,,,,,,,,,,,,,,,,,,,e,3.799000025,E,FALSE,,,,,,,71,ombligo,Spanish,Sounds/spa_ombligo.mp3,2020-06-05_15h34.51.228,TranslationElicitation_eng-prolific,3.2.4,Win32,60,5d687a77edb39d00194f0a60,,1,0,98,66,1,97
,,,,,,,,,,,,,,,,,,,,,,,,,,,,,,,,,,,,,,,,,v,3.933000088,EV,FALSE,,,,,,,71,ombligo,Spanish,Sounds/spa_ombligo.mp3,2020-06-05_15h34.51.228,TranslationElicitation_eng-prolific,3.2.4,Win32,60,5d687a77edb39d00194f0a60,,1,0,98,66,1,97
,,,,,,,,,,,,,,,,,,,,,,,,,,,,,,,,,,,,,,,,,e,4.065999985,EVE,FALSE,,,,,,,71,ombligo,Spanish,Sounds/spa_ombligo.mp3,2020-06-05_15h34.51.228,TranslationElicitation_eng-prolific,3.2.4,Win32,60,5d687a77edb39d00194f0a60,,1,0,98,66,1,97
,,,,,,,,,,,,,,,,,,,,,,,,,,,,,,,,,,,,,,,,,r,4.200000048,EVER,FALSE,,,,,,,71,ombligo,Spanish,Sounds/spa_ombligo.mp3,2020-06-05_15h34.51.228,TranslationElicitation_eng-prolific,3.2.4,Win32,60,5d687a77edb39d00194f0a60,,1,0,98,66,1,97
,,,,,,,,,,,,,,,,,,,,,,,,,,,,,,,,,,,,,,,,,y,4.481999874,EVERY,FALSE,,,,,,,71,ombligo,Spanish,Sounds/spa_ombligo.mp3,2020-06-05_15h34.51.228,TranslationElicitation_eng-prolific,3.2.4,Win32,60,5d687a77edb39d00194f0a60,,1,0,98,66,1,97
,,,,,,,,,,,,,,,,,,,,,,,,,,,,,,,,,,,,,,,,,o,4.582999945,EVERYO,FALSE,,,,,,,71,ombligo,Spanish,Sounds/spa_ombligo.mp3,2020-06-05_15h34.51.228,TranslationElicitation_eng-prolific,3.2.4,Win32,60,5d687a77edb39d00194f0a60,,1,0,98,66,1,97
,,,,,,,,,,,,,,,,,,,,,,,,,,,,,,,,,,,,,,,,,n,4.749000072,EVERYON,FALSE,,,,,,,71,ombligo,Spanish,Sounds/spa_ombligo.mp3,2020-06-05_15h34.51.228,TranslationElicitation_eng-prolific,3.2.4,Win32,60,5d687a77edb39d00194f0a60,,1,0,98,66,1,97
,,,,,,,,,,,,,,,,,,,,,,,,,,,,,,,,,,,,,,,,,e,4.832999945,EVERYONE,FALSE,,,,,,,71,ombligo,Spanish,Sounds/spa_ombligo.mp3,2020-06-05_15h34.51.228,TranslationElicitation_eng-prolific,3.2.4,Win32,60,5d687a77edb39d00194f0a60,,1,0,98,66,1,97
,,,,,,,,,,,,,,,,,,,,,,,,,,,,,,,,,,,,,,,,,return,5.165999889,EVERYONE,FALSE,,,,,,,71,ombligo,Spanish,Sounds/spa_ombligo.mp3,2020-06-05_15h34.51.228,TranslationElicitation_eng-prolific,3.2.4,Win32,60,5d687a77edb39d00194f0a60,5.165999889,1,0,98,66,1,97
,,,,,,,,,,,,,,,,,,,,,,,,,,,,,,,,,,,,,,,,,,,,,,,,,,,71,ombligo,Spanish,Sounds/spa_ombligo.mp3,2020-06-05_15h34.51.228,TranslationElicitation_eng-prolific,3.2.4,Win32,60,5d687a77edb39d00194f0a60,,1,0,98,66,1,97
,,,,,,,,,,,,,,,,,,,,,,,,,,,,,,,,,,,,,,,,,b,3.801000118,B,FALSE,,,,,,,51,ladrillo,Spanish,Sounds/spa_ladrillo.mp3,2020-06-05_15h34.51.228,TranslationElicitation_eng-prolific,3.2.4,Win32,60,5d687a77edb39d00194f0a60,,1,0,98,47,1,97
,,,,,,,,,,,,,,,,,,,,,,,,,,,,,,,,,,,,,,,,,o,3.984000206,BO,FALSE,,,,,,,51,ladrillo,Spanish,Sounds/spa_ladrillo.mp3,2020-06-05_15h34.51.228,TranslationElicitation_eng-prolific,3.2.4,Win32,60,5d687a77edb39d00194f0a60,,1,0,98,47,1,97
,,,,,,,,,,,,,,,,,,,,,,,,,,,,,,,,,,,,,,,,,y,4.184000015,BOY,FALSE,,,,,,,51,ladrillo,Spanish,Sounds/spa_ladrillo.mp3,2020-06-05_15h34.51.228,TranslationElicitation_eng-prolific,3.2.4,Win32,60,5d687a77edb39d00194f0a60,,1,0,98,47,1,97
,,,,,,,,,,,,,,,,,,,,,,,,,,,,,,,,,,,,,,,,,s,4.967000008,BOYS,FALSE,,,,,,,51,ladrillo,Spanish,Sounds/spa_ladrillo.mp3,2020-06-05_15h34.51.228,TranslationElicitation_eng-prolific,3.2.4,Win32,60,5d687a77edb39d00194f0a60,,1,0,98,47,1,97
,,,,,,,,,,,,,,,,,,,,,,,,,,,,,,,,,,,,,,,,,return,5.301000118,BOYS,FALSE,,,,,,,51,ladrillo,Spanish,Sounds/spa_ladrillo.mp3,2020-06-05_15h34.51.228,TranslationElicitation_eng-prolific,3.2.4,Win32,60,5d687a77edb39d00194f0a60,5.301000118,1,0,98,47,1,97
,,,,,,,,,,,,,,,,,,,,,,,,,,,,,,,,,,,,,,,,,,,,,,,,,,,51,ladrillo,Spanish,Sounds/spa_ladrillo.mp3,2020-06-05_15h34.51.228,TranslationElicitation_eng-prolific,3.2.4,Win32,60,5d687a77edb39d00194f0a60,,1,0,98,47,1,97
,,,,,,,,,,,,,,,,,,,,,,,,,,,,,,,,,,,,,,,,,w,4.667000055,W,FALSE,,,,,,,38,frambuesa,Spanish,Sounds/spa_frambuesa.mp3,2020-06-05_15h34.51.228,TranslationElicitation_eng-prolific,3.2.4,Win32,60,5d687a77edb39d00194f0a60,,1,0,98,34,1,97
,,,,,,,,,,,,,,,,,,,,,,,,,,,,,,,,,,,,,,,,,o,4.75,WO,FALSE,,,,,,,38,frambuesa,Spanish,Sounds/spa_frambuesa.mp3,2020-06-05_15h34.51.228,TranslationElicitation_eng-prolific,3.2.4,Win32,60,5d687a77edb39d00194f0a60,,1,0,98,34,1,97
,,,,,,,,,,,,,,,,,,,,,,,,,,,,,,,,,,,,,,,,,m,4.96600008,WOM,FALSE,,,,,,,38,frambuesa,Spanish,Sounds/spa_frambuesa.mp3,2020-06-05_15h34.51.228,TranslationElicitation_eng-prolific,3.2.4,Win32,60,5d687a77edb39d00194f0a60,,1,0,98,34,1,97
,,,,,,,,,,,,,,,,,,,,,,,,,,,,,,,,,,,,,,,,,e,5.116999865,WOME,FALSE,,,,,,,38,frambuesa,Spanish,Sounds/spa_frambuesa.mp3,2020-06-05_15h34.51.228,TranslationElicitation_eng-prolific,3.2.4,Win32,60,5d687a77edb39d00194f0a60,,1,0,98,34,1,97
,,,,,,,,,,,,,,,,,,,,,,,,,,,,,,,,,,,,,,,,,n,5.23300004,WOMEN,FALSE,,,,,,,38,frambuesa,Spanish,Sounds/spa_frambuesa.mp3,2020-06-05_15h34.51.228,TranslationElicitation_eng-prolific,3.2.4,Win32,60,5d687a77edb39d00194f0a60,,1,0,98,34,1,97
,,,,,,,,,,,,,,,,,,,,,,,,,,,,,,,,,,,,,,,,,return,5.53399992,WOMEN,FALSE,,,,,,,38,frambuesa,Spanish,Sounds/spa_frambuesa.mp3,2020-06-05_15h34.51.228,TranslationElicitation_eng-prolific,3.2.4,Win32,60,5d687a77edb39d00194f0a60,5.53399992,1,0,98,34,1,97
,,,,,,,,,,,,,,,,,,,,,,,,,,,,,,,,,,,,,,,,,,,,,,,,,,,38,frambuesa,Spanish,Sounds/spa_frambuesa.mp3,2020-06-05_15h34.51.228,TranslationElicitation_eng-prolific,3.2.4,Win32,60,5d687a77edb39d00194f0a60,,1,0,98,34,1,97
,,,,,,,,,,,,,,,,,,,,,,,,,,,,,,,,,,,,,,,,,f,4.618000031,F,FALSE,,,,,,,32,cuchara,Spanish,Sounds/spa_cuchara.mp3,2020-06-05_15h34.51.228,TranslationElicitation_eng-prolific,3.2.4,Win32,60,5d687a77edb39d00194f0a60,,1,0,98,28,1,97
,,,,,,,,,,,,,,,,,,,,,,,,,,,,,,,,,,,,,,,,,o,4.733999968,FO,FALSE,,,,,,,32,cuchara,Spanish,Sounds/spa_cuchara.mp3,2020-06-05_15h34.51.228,TranslationElicitation_eng-prolific,3.2.4,Win32,60,5d687a77edb39d00194f0a60,,1,0,98,28,1,97
,,,,,,,,,,,,,,,,,,,,,,,,,,,,,,,,,,,,,,,,,o,4.901000023,FOO,FALSE,,,,,,,32,cuchara,Spanish,Sounds/spa_cuchara.mp3,2020-06-05_15h34.51.228,TranslationElicitation_eng-prolific,3.2.4,Win32,60,5d687a77edb39d00194f0a60,,1,0,98,28,1,97
,,,,,,,,,,,,,,,,,,,,,,,,,,,,,,,,,,,,,,,,,d,5.000999928,FOOD,FALSE,,,,,,,32,cuchara,Spanish,Sounds/spa_cuchara.mp3,2020-06-05_15h34.51.228,TranslationElicitation_eng-prolific,3.2.4,Win32,60,5d687a77edb39d00194f0a60,,1,0,98,28,1,97
,,,,,,,,,,,,,,,,,,,,,,,,,,,,,,,,,,,,,,,,,return,6.233999968,FOOD,FALSE,,,,,,,32,cuchara,Spanish,Sounds/spa_cuchara.mp3,2020-06-05_15h34.51.228,TranslationElicitation_eng-prolific,3.2.4,Win32,60,5d687a77edb39d00194f0a60,6.233999968,1,0,98,28,1,97
,,,,,,,,,,,,,,,,,,,,,,,,,,,,,,,,,,,,,,,,,,,,,,,,,,,32,cuchara,Spanish,Sounds/spa_cuchara.mp3,2020-06-05_15h34.51.228,TranslationElicitation_eng-prolific,3.2.4,Win32,60,5d687a77edb39d00194f0a60,,1,0,98,28,1,97
,,,,,,,,,,,,,,,,,,,,,,,,,,,,,,,,,,,,,,,,,c,6.782999992,C,FALSE,,,,,,,76,panal,Spanish,Sounds/spa_panal.mp3,2020-06-05_15h34.51.228,TranslationElicitation_eng-prolific,3.2.4,Win32,60,5d687a77edb39d00194f0a60,,1,0,98,71,1,97
,,,,,,,,,,,,,,,,,,,,,,,,,,,,,,,,,,,,,,,,,o,6.850000143,CO,FALSE,,,,,,,76,panal,Spanish,Sounds/spa_panal.mp3,2020-06-05_15h34.51.228,TranslationElicitation_eng-prolific,3.2.4,Win32,60,5d687a77edb39d00194f0a60,,1,0,98,71,1,97
,,,,,,,,,,,,,,,,,,,,,,,,,,,,,,,,,,,,,,,,,o,6.999000072,COO,FALSE,,,,,,,76,panal,Spanish,Sounds/spa_panal.mp3,2020-06-05_15h34.51.228,TranslationElicitation_eng-prolific,3.2.4,Win32,60,5d687a77edb39d00194f0a60,,1,0,98,71,1,97
,,,,,,,,,,,,,,,,,,,,,,,,,,,,,,,,,,,,,,,,,k,7.183000088,COOK,FALSE,,,,,,,76,panal,Spanish,Sounds/spa_panal.mp3,2020-06-05_15h34.51.228,TranslationElicitation_eng-prolific,3.2.4,Win32,60,5d687a77edb39d00194f0a60,,1,0,98,71,1,97
,,,,,,,,,,,,,,,,,,,,,,,,,,,,,,,,,,,,,,,,,i,7.315999985,COOKI,FALSE,,,,,,,76,panal,Spanish,Sounds/spa_panal.mp3,2020-06-05_15h34.51.228,TranslationElicitation_eng-prolific,3.2.4,Win32,60,5d687a77edb39d00194f0a60,,1,0,98,71,1,97
,,,,,,,,,,,,,,,,,,,,,,,,,,,,,,,,,,,,,,,,,n,7.433000088,COOKIN,FALSE,,,,,,,76,panal,Spanish,Sounds/spa_panal.mp3,2020-06-05_15h34.51.228,TranslationElicitation_eng-prolific,3.2.4,Win32,60,5d687a77edb39d00194f0a60,,1,0,98,71,1,97
,,,,,,,,,,,,,,,,,,,,,,,,,,,,,,,,,,,,,,,,,g,7.550000191,COOKING,FALSE,,,,,,,76,panal,Spanish,Sounds/spa_panal.mp3,2020-06-05_15h34.51.228,TranslationElicitation_eng-prolific,3.2.4,Win32,60,5d687a77edb39d00194f0a60,,1,0,98,71,1,97
,,,,,,,,,,,,,,,,,,,,,,,,,,,,,,,,,,,,,,,,,backspace,9.100000143,COOKIN,TRUE,,,,,,,76,panal,Spanish,Sounds/spa_panal.mp3,2020-06-05_15h34.51.228,TranslationElicitation_eng-prolific,3.2.4,Win32,60,5d687a77edb39d00194f0a60,,1,0,98,71,1,97
,,,,,,,,,,,,,,,,,,,,,,,,,,,,,,,,,,,,,,,,,g,10.11600018,COOKING,TRUE,,,,,,,76,panal,Spanish,Sounds/spa_panal.mp3,2020-06-05_15h34.51.228,TranslationElicitation_eng-prolific,3.2.4,Win32,60,5d687a77edb39d00194f0a60,,1,0,98,71,1,97
,,,,,,,,,,,,,,,,,,,,,,,,,,,,,,,,,,,,,,,,,return,10.20000005,COOKING,TRUE,,,,,,,76,panal,Spanish,Sounds/spa_panal.mp3,2020-06-05_15h34.51.228,TranslationElicitation_eng-prolific,3.2.4,Win32,60,5d687a77edb39d00194f0a60,10.20000005,1,0,98,71,1,97
,,,,,,,,,,,,,,,,,,,,,,,,,,,,,,,,,,,,,,,,,,,,,,,,,,,76,panal,Spanish,Sounds/spa_panal.mp3,2020-06-05_15h34.51.228,TranslationElicitation_eng-prolific,3.2.4,Win32,60,5d687a77edb39d00194f0a60,,1,0,98,71,1,97
,,,,,,,,,,,,,,,,,,,,,,,,,,,,,,,,,,,,,,,,,s,2.567000151,S,FALSE,,,,,,,92,sandwich,Spanish,Sounds/spa_sandwich.mp3,2020-06-05_15h34.51.228,TranslationElicitation_eng-prolific,3.2.4,Win32,60,5d687a77edb39d00194f0a60,,1,0,98,87,1,97
,,,,,,,,,,,,,,,,,,,,,,,,,,,,,,,,,,,,,,,,,a,2.650000095,SA,FALSE,,,,,,,92,sandwich,Spanish,Sounds/spa_sandwich.mp3,2020-06-05_15h34.51.228,TranslationElicitation_eng-prolific,3.2.4,Win32,60,5d687a77edb39d00194f0a60,,1,0,98,87,1,97
,,,,,,,,,,,,,,,,,,,,,,,,,,,,,,,,,,,,,,,,,n,2.73300004,SAN,FALSE,,,,,,,92,sandwich,Spanish,Sounds/spa_sandwich.mp3,2020-06-05_15h34.51.228,TranslationElicitation_eng-prolific,3.2.4,Win32,60,5d687a77edb39d00194f0a60,,1,0,98,87,1,97
,,,,,,,,,,,,,,,,,,,,,,,,,,,,,,,,,,,,,,,,,d,2.834000111,SAND,FALSE,,,,,,,92,sandwich,Spanish,Sounds/spa_sandwich.mp3,2020-06-05_15h34.51.228,TranslationElicitation_eng-prolific,3.2.4,Win32,60,5d687a77edb39d00194f0a60,,1,0,98,87,1,97
,,,,,,,,,,,,,,,,,,,,,,,,,,,,,,,,,,,,,,,,,w,2.933000088,SANDW,FALSE,,,,,,,92,sandwich,Spanish,Sounds/spa_sandwich.mp3,2020-06-05_15h34.51.228,TranslationElicitation_eng-prolific,3.2.4,Win32,60,5d687a77edb39d00194f0a60,,1,0,98,87,1,97
,,,,,,,,,,,,,,,,,,,,,,,,,,,,,,,,,,,,,,,,,i,3.01699996,SANDWI,FALSE,,,,,,,92,sandwich,Spanish,Sounds/spa_sandwich.mp3,2020-06-05_15h34.51.228,TranslationElicitation_eng-prolific,3.2.4,Win32,60,5d687a77edb39d00194f0a60,,1,0,98,87,1,97
,,,,,,,,,,,,,,,,,,,,,,,,,,,,,,,,,,,,,,,,,c,3.150000095,SANDWIC,FALSE,,,,,,,92,sandwich,Spanish,Sounds/spa_sandwich.mp3,2020-06-05_15h34.51.228,TranslationElicitation_eng-prolific,3.2.4,Win32,60,5d687a77edb39d00194f0a60,,1,0,98,87,1,97
,,,,,,,,,,,,,,,,,,,,,,,,,,,,,,,,,,,,,,,,,h,3.25,SANDWICH,FALSE,,,,,,,92,sandwich,Spanish,Sounds/spa_sandwich.mp3,2020-06-05_15h34.51.228,TranslationElicitation_eng-prolific,3.2.4,Win32,60,5d687a77edb39d00194f0a60,,1,0,98,87,1,97
,,,,,,,,,,,,,,,,,,,,,,,,,,,,,,,,,,,,,,,,,return,3.48300004,SANDWICH,FALSE,,,,,,,92,sandwich,Spanish,Sounds/spa_sandwich.mp3,2020-06-05_15h34.51.228,TranslationElicitation_eng-prolific,3.2.4,Win32,60,5d687a77edb39d00194f0a60,3.48300004,1,0,98,87,1,97
,,,,,,,,,,,,,,,,,,,,,,,,,,,,,,,,,,,,,,,,,,,,,,,,,,,92,sandwich,Spanish,Sounds/spa_sandwich.mp3,2020-06-05_15h34.51.228,TranslationElicitation_eng-prolific,3.2.4,Win32,60,5d687a77edb39d00194f0a60,,1,0,98,87,1,97
,,,,,,,,,,,,,,,,,,,,,,,,,,,,,,,,,,,,,,,,,s,6.700000048,S,FALSE,,,,,,,91,puerta,Spanish,Sounds/spa_puerta.mp3,2020-06-05_15h34.51.228,TranslationElicitation_eng-prolific,3.2.4,Win32,60,5d687a77edb39d00194f0a60,,1,0,98,86,1,97
,,,,,,,,,,,,,,,,,,,,,,,,,,,,,,,,,,,,,,,,,u,6.833000183,SU,FALSE,,,,,,,91,puerta,Spanish,Sounds/spa_puerta.mp3,2020-06-05_15h34.51.228,TranslationElicitation_eng-prolific,3.2.4,Win32,60,5d687a77edb39d00194f0a60,,1,0,98,86,1,97
,,,,,,,,,,,,,,,,,,,,,,,,,,,,,,,,,,,,,,,,,p,7.067000151,SUP,FALSE,,,,,,,91,puerta,Spanish,Sounds/spa_puerta.mp3,2020-06-05_15h34.51.228,TranslationElicitation_eng-prolific,3.2.4,Win32,60,5d687a77edb39d00194f0a60,,1,0,98,86,1,97
,,,,,,,,,,,,,,,,,,,,,,,,,,,,,,,,,,,,,,,,,p,7.167000055,SUPP,FALSE,,,,,,,91,puerta,Spanish,Sounds/spa_puerta.mp3,2020-06-05_15h34.51.228,TranslationElicitation_eng-prolific,3.2.4,Win32,60,5d687a77edb39d00194f0a60,,1,0,98,86,1,97
,,,,,,,,,,,,,,,,,,,,,,,,,,,,,,,,,,,,,,,,,e,7.25,SUPPE,FALSE,,,,,,,91,puerta,Spanish,Sounds/spa_puerta.mp3,2020-06-05_15h34.51.228,TranslationElicitation_eng-prolific,3.2.4,Win32,60,5d687a77edb39d00194f0a60,,1,0,98,86,1,97
,,,,,,,,,,,,,,,,,,,,,,,,,,,,,,,,,,,,,,,,,r,7.299999952,SUPPER,FALSE,,,,,,,91,puerta,Spanish,Sounds/spa_puerta.mp3,2020-06-05_15h34.51.228,TranslationElicitation_eng-prolific,3.2.4,Win32,60,5d687a77edb39d00194f0a60,,1,0,98,86,1,97
,,,,,,,,,,,,,,,,,,,,,,,,,,,,,,,,,,,,,,,,,return,7.399000168,SUPPER,FALSE,,,,,,,91,puerta,Spanish,Sounds/spa_puerta.mp3,2020-06-05_15h34.51.228,TranslationElicitation_eng-prolific,3.2.4,Win32,60,5d687a77edb39d00194f0a60,7.399000168,1,0,98,86,1,97
,,,,,,,,,,,,,,,,,,,,,,,,,,,,,,,,,,,,,,,,,,,,,,,,,,,91,puerta,Spanish,Sounds/spa_puerta.mp3,2020-06-05_15h34.51.228,TranslationElicitation_eng-prolific,3.2.4,Win32,60,5d687a77edb39d00194f0a60,,1,0,98,86,1,97
,,,,,,,,,,,,,,,,,,,,,,,,,,,,,,,,,,,,,,,,,d,6.78399992,D,FALSE,,,,,,,19,camiseta,Spanish,Sounds/spa_camiseta.mp3,2020-06-05_15h34.51.228,TranslationElicitation_eng-prolific,3.2.4,Win32,60,5d687a77edb39d00194f0a60,,1,0,98,17,1,97
,,,,,,,,,,,,,,,,,,,,,,,,,,,,,,,,,,,,,,,,,e,6.934000015,DE,FALSE,,,,,,,19,camiseta,Spanish,Sounds/spa_camiseta.mp3,2020-06-05_15h34.51.228,TranslationElicitation_eng-prolific,3.2.4,Win32,60,5d687a77edb39d00194f0a60,,1,0,98,17,1,97
,,,,,,,,,,,,,,,,,,,,,,,,,,,,,,,,,,,,,,,,,s,7.184000015,DES,FALSE,,,,,,,19,camiseta,Spanish,Sounds/spa_camiseta.mp3,2020-06-05_15h34.51.228,TranslationElicitation_eng-prolific,3.2.4,Win32,60,5d687a77edb39d00194f0a60,,1,0,98,17,1,97
,,,,,,,,,,,,,,,,,,,,,,,,,,,,,,,,,,,,,,,,,e,7.366999865,DESE,FALSE,,,,,,,19,camiseta,Spanish,Sounds/spa_camiseta.mp3,2020-06-05_15h34.51.228,TranslationElicitation_eng-prolific,3.2.4,Win32,60,5d687a77edb39d00194f0a60,,1,0,98,17,1,97
,,,,,,,,,,,,,,,,,,,,,,,,,,,,,,,,,,,,,,,,,r,7.450999975,DESER,FALSE,,,,,,,19,camiseta,Spanish,Sounds/spa_camiseta.mp3,2020-06-05_15h34.51.228,TranslationElicitation_eng-prolific,3.2.4,Win32,60,5d687a77edb39d00194f0a60,,1,0,98,17,1,97
,,,,,,,,,,,,,,,,,,,,,,,,,,,,,,,,,,,,,,,,,t,7.632999897,DESERT,FALSE,,,,,,,19,camiseta,Spanish,Sounds/spa_camiseta.mp3,2020-06-05_15h34.51.228,TranslationElicitation_eng-prolific,3.2.4,Win32,60,5d687a77edb39d00194f0a60,,1,0,98,17,1,97
,,,,,,,,,,,,,,,,,,,,,,,,,,,,,,,,,,,,,,,,,return,7.833999872,DESERT,FALSE,,,,,,,19,camiseta,Spanish,Sounds/spa_camiseta.mp3,2020-06-05_15h34.51.228,TranslationElicitation_eng-prolific,3.2.4,Win32,60,5d687a77edb39d00194f0a60,7.833999872,1,0,98,17,1,97
,,,,,,,,,,,,,,,,,,,,,,,,,,,,,,,,,,,,,,,,,,,,,,,,,,,19,camiseta,Spanish,Sounds/spa_camiseta.mp3,2020-06-05_15h34.51.228,TranslationElicitation_eng-prolific,3.2.4,Win32,60,5d687a77edb39d00194f0a60,,1,0,98,17,1,97
,,,,,,,,,,,,,,,,,,,,,,,,,,,,,,,,,,,,,,,,,f,9.684000015,F,FALSE,,,,,,,49,hormiga,Spanish,Sounds/spa_hormiga.mp3,2020-06-05_15h34.51.228,TranslationElicitation_eng-prolific,3.2.4,Win32,60,5d687a77edb39d00194f0a60,,1,0,98,45,1,97
,,,,,,,,,,,,,,,,,,,,,,,,,,,,,,,,,,,,,,,,,i,9.73300004,FI,FALSE,,,,,,,49,hormiga,Spanish,Sounds/spa_hormiga.mp3,2020-06-05_15h34.51.228,TranslationElicitation_eng-prolific,3.2.4,Win32,60,5d687a77edb39d00194f0a60,,1,0,98,45,1,97
,,,,,,,,,,,,,,,,,,,,,,,,,,,,,,,,,,,,,,,,,s,9.833000183,FIS,FALSE,,,,,,,49,hormiga,Spanish,Sounds/spa_hormiga.mp3,2020-06-05_15h34.51.228,TranslationElicitation_eng-prolific,3.2.4,Win32,60,5d687a77edb39d00194f0a60,,1,0,98,45,1,97
,,,,,,,,,,,,,,,,,,,,,,,,,,,,,,,,,,,,,,,,,h,9.900000095,FISH,FALSE,,,,,,,49,hormiga,Spanish,Sounds/spa_hormiga.mp3,2020-06-05_15h34.51.228,TranslationElicitation_eng-prolific,3.2.4,Win32,60,5d687a77edb39d00194f0a60,,1,0,98,45,1,97
,,,,,,,,,,,,,,,,,,,,,,,,,,,,,,,,,,,,,,,,,return,10.10100007,FISH,FALSE,,,,,,,49,hormiga,Spanish,Sounds/spa_hormiga.mp3,2020-06-05_15h34.51.228,TranslationElicitation_eng-prolific,3.2.4,Win32,60,5d687a77edb39d00194f0a60,10.10100007,1,0,98,45,1,97
,,,,,,,,,,,,,,,,,,,,,,,,,,,,,,,,,,,,,,,,,,,,,,,,,,,49,hormiga,Spanish,Sounds/spa_hormiga.mp3,2020-06-05_15h34.51.228,TranslationElicitation_eng-prolific,3.2.4,Win32,60,5d687a77edb39d00194f0a60,,1,0,98,45,1,97
,,,,,,,,,,,,,,,,,,,,,,,,,,,,,,,,,,,,,,,,,m,2.78399992,M,FALSE,,,,,,,58,luna,Spanish,Sounds/spa_luna.mp3,2020-06-05_15h34.51.228,TranslationElicitation_eng-prolific,3.2.4,Win32,60,5d687a77edb39d00194f0a60,,1,0,98,54,1,97
,,,,,,,,,,,,,,,,,,,,,,,,,,,,,,,,,,,,,,,,,o,2.868000031,MO,FALSE,,,,,,,58,luna,Spanish,Sounds/spa_luna.mp3,2020-06-05_15h34.51.228,TranslationElicitation_eng-prolific,3.2.4,Win32,60,5d687a77edb39d00194f0a60,,1,0,98,54,1,97
,,,,,,,,,,,,,,,,,,,,,,,,,,,,,,,,,,,,,,,,,o,3.000999928,MOO,FALSE,,,,,,,58,luna,Spanish,Sounds/spa_luna.mp3,2020-06-05_15h34.51.228,TranslationElicitation_eng-prolific,3.2.4,Win32,60,5d687a77edb39d00194f0a60,,1,0,98,54,1,97
,,,,,,,,,,,,,,,,,,,,,,,,,,,,,,,,,,,,,,,,,n,3.085000038,MOON,FALSE,,,,,,,58,luna,Spanish,Sounds/spa_luna.mp3,2020-06-05_15h34.51.228,TranslationElicitation_eng-prolific,3.2.4,Win32,60,5d687a77edb39d00194f0a60,,1,0,98,54,1,97
,,,,,,,,,,,,,,,,,,,,,,,,,,,,,,,,,,,,,,,,,return,3.384000063,MOON,FALSE,,,,,,,58,luna,Spanish,Sounds/spa_luna.mp3,2020-06-05_15h34.51.228,TranslationElicitation_eng-prolific,3.2.4,Win32,60,5d687a77edb39d00194f0a60,3.384000063,1,0,98,54,1,97
,,,,,,,,,,,,,,,,,,,,,,,,,,,,,,,,,,,,,,,,,,,,,,,,,,,58,luna,Spanish,Sounds/spa_luna.mp3,2020-06-05_15h34.51.228,TranslationElicitation_eng-prolific,3.2.4,Win32,60,5d687a77edb39d00194f0a60,,1,0,98,54,1,97
,,,,,,,,,,,,,,,,,,,,,,,,,,,,,,,,,,,,,,,,,l,2.383999825,L,FALSE,,,,,,,54,lengua,Spanish,Sounds/spa_lengua.mp3,2020-06-05_15h34.51.228,TranslationElicitation_eng-prolific,3.2.4,Win32,60,5d687a77edb39d00194f0a60,,1,0,98,50,1,97
,,,,,,,,,,,,,,,,,,,,,,,,,,,,,,,,,,,,,,,,,a,2.632999897,LA,FALSE,,,,,,,54,lengua,Spanish,Sounds/spa_lengua.mp3,2020-06-05_15h34.51.228,TranslationElicitation_eng-prolific,3.2.4,Win32,60,5d687a77edb39d00194f0a60,,1,0,98,50,1,97
,,,,,,,,,,,,,,,,,,,,,,,,,,,,,,,,,,,,,,,,,n,2.76699996,LAN,FALSE,,,,,,,54,lengua,Spanish,Sounds/spa_lengua.mp3,2020-06-05_15h34.51.228,TranslationElicitation_eng-prolific,3.2.4,Win32,60,5d687a77edb39d00194f0a60,,1,0,98,50,1,97
,,,,,,,,,,,,,,,,,,,,,,,,,,,,,,,,,,,,,,,,,g,2.916999817,LANG,FALSE,,,,,,,54,lengua,Spanish,Sounds/spa_lengua.mp3,2020-06-05_15h34.51.228,TranslationElicitation_eng-prolific,3.2.4,Win32,60,5d687a77edb39d00194f0a60,,1,0,98,50,1,97
,,,,,,,,,,,,,,,,,,,,,,,,,,,,,,,,,,,,,,,,,u,3.01699996,LANGU,FALSE,,,,,,,54,lengua,Spanish,Sounds/spa_lengua.mp3,2020-06-05_15h34.51.228,TranslationElicitation_eng-prolific,3.2.4,Win32,60,5d687a77edb39d00194f0a60,,1,0,98,50,1,97
,,,,,,,,,,,,,,,,,,,,,,,,,,,,,,,,,,,,,,,,,a,3.099999905,LANGUA,FALSE,,,,,,,54,lengua,Spanish,Sounds/spa_lengua.mp3,2020-06-05_15h34.51.228,TranslationElicitation_eng-prolific,3.2.4,Win32,60,5d687a77edb39d00194f0a60,,1,0,98,50,1,97
,,,,,,,,,,,,,,,,,,,,,,,,,,,,,,,,,,,,,,,,,g,3.200999975,LANGUAG,FALSE,,,,,,,54,lengua,Spanish,Sounds/spa_lengua.mp3,2020-06-05_15h34.51.228,TranslationElicitation_eng-prolific,3.2.4,Win32,60,5d687a77edb39d00194f0a60,,1,0,98,50,1,97
,,,,,,,,,,,,,,,,,,,,,,,,,,,,,,,,,,,,,,,,,e,3.26699996,LANGUAGE,FALSE,,,,,,,54,lengua,Spanish,Sounds/spa_lengua.mp3,2020-06-05_15h34.51.228,TranslationElicitation_eng-prolific,3.2.4,Win32,60,5d687a77edb39d00194f0a60,,1,0,98,50,1,97
,,,,,,,,,,,,,,,,,,,,,,,,,,,,,,,,,,,,,,,,,return,4.03399992,LANGUAGE,FALSE,,,,,,,54,lengua,Spanish,Sounds/spa_lengua.mp3,2020-06-05_15h34.51.228,TranslationElicitation_eng-prolific,3.2.4,Win32,60,5d687a77edb39d00194f0a60,4.03399992,1,0,98,50,1,97
,,,,,,,,,,,,,,,,,,,,,,,,,,,,,,,,,,,,,,,,,,,,,,,,,,,54,lengua,Spanish,Sounds/spa_lengua.mp3,2020-06-05_15h34.51.228,TranslationElicitation_eng-prolific,3.2.4,Win32,60,5d687a77edb39d00194f0a60,,1,0,98,50,1,97
,,,,,,,,,,,,,,,,,,,,,,,,,,,,,,,,,,,,,,,,,f,33.102,F,FALSE,,,,,,,56,libro,Spanish,Sounds/spa_libro.mp3,2020-06-05_15h34.51.228,TranslationElicitation_eng-prolific,3.2.4,Win32,60,5d687a77edb39d00194f0a60,,1,0,98,52,1,97
,,,,,,,,,,,,,,,,,,,,,,,,,,,,,,,,,,,,,,,,,r,33.26799989,FR,FALSE,,,,,,,56,libro,Spanish,Sounds/spa_libro.mp3,2020-06-05_15h34.51.228,TranslationElicitation_eng-prolific,3.2.4,Win32,60,5d687a77edb39d00194f0a60,,1,0,98,52,1,97
,,,,,,,,,,,,,,,,,,,,,,,,,,,,,,,,,,,,,,,,,u,33.352,FRU,FALSE,,,,,,,56,libro,Spanish,Sounds/spa_libro.mp3,2020-06-05_15h34.51.228,TranslationElicitation_eng-prolific,3.2.4,Win32,60,5d687a77edb39d00194f0a60,,1,0,98,52,1,97
,,,,,,,,,,,,,,,,,,,,,,,,,,,,,,,,,,,,,,,,,e,33.46799994,FRUE,FALSE,,,,,,,56,libro,Spanish,Sounds/spa_libro.mp3,2020-06-05_15h34.51.228,TranslationElicitation_eng-prolific,3.2.4,Win32,60,5d687a77edb39d00194f0a60,,1,0,98,52,1,97
,,,,,,,,,,,,,,,,,,,,,,,,,,,,,,,,,,,,,,,,,backspace,33.91899991,FRU,TRUE,,,,,,,56,libro,Spanish,Sounds/spa_libro.mp3,2020-06-05_15h34.51.228,TranslationElicitation_eng-prolific,3.2.4,Win32,60,5d687a77edb39d00194f0a60,,1,0,98,52,1,97
,,,,,,,,,,,,,,,,,,,,,,,,,,,,,,,,,,,,,,,,,backspace,34.06800008,FR,TRUE,,,,,,,56,libro,Spanish,Sounds/spa_libro.mp3,2020-06-05_15h34.51.228,TranslationElicitation_eng-prolific,3.2.4,Win32,60,5d687a77edb39d00194f0a60,,1,0,98,52,1,97
,,,,,,,,,,,,,,,,,,,,,,,,,,,,,,,,,,,,,,,,,i,34.90199995,FRI,TRUE,,,,,,,56,libro,Spanish,Sounds/spa_libro.mp3,2020-06-05_15h34.51.228,TranslationElicitation_eng-prolific,3.2.4,Win32,60,5d687a77edb39d00194f0a60,,1,0,98,52,1,97
,,,,,,,,,,,,,,,,,,,,,,,,,,,,,,,,,,,,,,,,,e,35.03500009,FRIE,TRUE,,,,,,,56,libro,Spanish,Sounds/spa_libro.mp3,2020-06-05_15h34.51.228,TranslationElicitation_eng-prolific,3.2.4,Win32,60,5d687a77edb39d00194f0a60,,1,0,98,52,1,97
,,,,,,,,,,,,,,,,,,,,,,,,,,,,,,,,,,,,,,,,,n,35.15199995,FRIEN,TRUE,,,,,,,56,libro,Spanish,Sounds/spa_libro.mp3,2020-06-05_15h34.51.228,TranslationElicitation_eng-prolific,3.2.4,Win32,60,5d687a77edb39d00194f0a60,,1,0,98,52,1,97
,,,,,,,,,,,,,,,,,,,,,,,,,,,,,,,,,,,,,,,,,d,35.26900005,FRIEND,TRUE,,,,,,,56,libro,Spanish,Sounds/spa_libro.mp3,2020-06-05_15h34.51.228,TranslationElicitation_eng-prolific,3.2.4,Win32,60,5d687a77edb39d00194f0a60,,1,0,98,52,1,97
,,,,,,,,,,,,,,,,,,,,,,,,,,,,,,,,,,,,,,,,,s,35.31900001,FRIENDS,TRUE,,,,,,,56,libro,Spanish,Sounds/spa_libro.mp3,2020-06-05_15h34.51.228,TranslationElicitation_eng-prolific,3.2.4,Win32,60,5d687a77edb39d00194f0a60,,1,0,98,52,1,97
,,,,,,,,,,,,,,,,,,,,,,,,,,,,,,,,,,,,,,,,,backspace,38.4519999,FRIEND,TRUE,,,,,,,56,libro,Spanish,Sounds/spa_libro.mp3,2020-06-05_15h34.51.228,TranslationElicitation_eng-prolific,3.2.4,Win32,60,5d687a77edb39d00194f0a60,,1,0,98,52,1,97
,,,,,,,,,,,,,,,,,,,,,,,,,,,,,,,,,,,,,,,,,return,39.31900001,FRIEND,TRUE,,,,,,,56,libro,Spanish,Sounds/spa_libro.mp3,2020-06-05_15h34.51.228,TranslationElicitation_eng-prolific,3.2.4,Win32,60,5d687a77edb39d00194f0a60,39.31900001,1,0,98,52,1,97
,,,,,,,,,,,,,,,,,,,,,,,,,,,,,,,,,,,,,,,,,,,,,,,,,,,56,libro,Spanish,Sounds/spa_libro.mp3,2020-06-05_15h34.51.228,TranslationElicitation_eng-prolific,3.2.4,Win32,60,5d687a77edb39d00194f0a60,,1,0,98,52,1,97
,,,,,,,,,,,,,,,,,,,,,,,,,,,,,,,,,,,,,,,,,p,3.26699996,P,FALSE,,,,,,,78,pastel,Spanish,Sounds/spa_pastel.mp3,2020-06-05_15h34.51.228,TranslationElicitation_eng-prolific,3.2.4,Win32,60,5d687a77edb39d00194f0a60,,1,0,98,73,1,97
,,,,,,,,,,,,,,,,,,,,,,,,,,,,,,,,,,,,,,,,,a,3.384000063,PA,FALSE,,,,,,,78,pastel,Spanish,Sounds/spa_pastel.mp3,2020-06-05_15h34.51.228,TranslationElicitation_eng-prolific,3.2.4,Win32,60,5d687a77edb39d00194f0a60,,1,0,98,73,1,97
,,,,,,,,,,,,,,,,,,,,,,,,,,,,,,,,,,,,,,,,,s,3.599999905,PAS,FALSE,,,,,,,78,pastel,Spanish,Sounds/spa_pastel.mp3,2020-06-05_15h34.51.228,TranslationElicitation_eng-prolific,3.2.4,Win32,60,5d687a77edb39d00194f0a60,,1,0,98,73,1,97
,,,,,,,,,,,,,,,,,,,,,,,,,,,,,,,,,,,,,,,,,backspace,4.26699996,PA,TRUE,,,,,,,78,pastel,Spanish,Sounds/spa_pastel.mp3,2020-06-05_15h34.51.228,TranslationElicitation_eng-prolific,3.2.4,Win32,60,5d687a77edb39d00194f0a60,,1,0,98,73,1,97
,,,,,,,,,,,,,,,,,,,,,,,,,,,,,,,,,,,,,,,,,backspace,4.434000015,P,TRUE,,,,,,,78,pastel,Spanish,Sounds/spa_pastel.mp3,2020-06-05_15h34.51.228,TranslationElicitation_eng-prolific,3.2.4,Win32,60,5d687a77edb39d00194f0a60,,1,0,98,73,1,97
,,,,,,,,,,,,,,,,,,,,,,,,,,,,,,,,,,,,,,,,,backspace,4.649999857,,TRUE,,,,,,,78,pastel,Spanish,Sounds/spa_pastel.mp3,2020-06-05_15h34.51.228,TranslationElicitation_eng-prolific,3.2.4,Win32,60,5d687a77edb39d00194f0a60,,1,0,98,73,1,97
,,,,,,,,,,,,,,,,,,,,,,,,,,,,,,,,,,,,,,,,,c,4.917000055,C,TRUE,,,,,,,78,pastel,Spanish,Sounds/spa_pastel.mp3,2020-06-05_15h34.51.228,TranslationElicitation_eng-prolific,3.2.4,Win32,60,5d687a77edb39d00194f0a60,,1,0,98,73,1,97
,,,,,,,,,,,,,,,,,,,,,,,,,,,,,,,,,,,,,,,,,o,4.967000008,CO,TRUE,,,,,,,78,pastel,Spanish,Sounds/spa_pastel.mp3,2020-06-05_15h34.51.228,TranslationElicitation_eng-prolific,3.2.4,Win32,60,5d687a77edb39d00194f0a60,,1,0,98,73,1,97
,,,,,,,,,,,,,,,,,,,,,,,,,,,,,,,,,,,,,,,,,l,5.151000023,COL,TRUE,,,,,,,78,pastel,Spanish,Sounds/spa_pastel.mp3,2020-06-05_15h34.51.228,TranslationElicitation_eng-prolific,3.2.4,Win32,60,5d687a77edb39d00194f0a60,,1,0,98,73,1,97
,,,,,,,,,,,,,,,,,,,,,,,,,,,,,,,,,,,,,,,,,o,5.299999952,COLO,TRUE,,,,,,,78,pastel,Spanish,Sounds/spa_pastel.mp3,2020-06-05_15h34.51.228,TranslationElicitation_eng-prolific,3.2.4,Win32,60,5d687a77edb39d00194f0a60,,1,0,98,73,1,97
,,,,,,,,,,,,,,,,,,,,,,,,,,,,,,,,,,,,,,,,,u,5.5,COLOU,TRUE,,,,,,,78,pastel,Spanish,Sounds/spa_pastel.mp3,2020-06-05_15h34.51.228,TranslationElicitation_eng-prolific,3.2.4,Win32,60,5d687a77edb39d00194f0a60,,1,0,98,73,1,97
,,,,,,,,,,,,,,,,,,,,,,,,,,,,,,,,,,,,,,,,,r,5.582999945,COLOUR,TRUE,,,,,,,78,pastel,Spanish,Sounds/spa_pastel.mp3,2020-06-05_15h34.51.228,TranslationElicitation_eng-prolific,3.2.4,Win32,60,5d687a77edb39d00194f0a60,,1,0,98,73,1,97
,,,,,,,,,,,,,,,,,,,,,,,,,,,,,,,,,,,,,,,,,return,5.76699996,COLOUR,TRUE,,,,,,,78,pastel,Spanish,Sounds/spa_pastel.mp3,2020-06-05_15h34.51.228,TranslationElicitation_eng-prolific,3.2.4,Win32,60,5d687a77edb39d00194f0a60,5.76699996,1,0,98,73,1,97
,,,,,,,,,,,,,,,,,,,,,,,,,,,,,,,,,,,,,,,,,,,,,,,,,,,78,pastel,Spanish,Sounds/spa_pastel.mp3,2020-06-05_15h34.51.228,TranslationElicitation_eng-prolific,3.2.4,Win32,60,5d687a77edb39d00194f0a60,,1,0,98,73,1,97
,,,,,,,,,,,,,,,,,,,,,,,,,,,,,,,,,,,,,,,,,e,30.86899996,E,FALSE,,,,,,,45,gorro,Spanish,Sounds/spa_gorro.mp3,2020-06-05_15h34.51.228,TranslationElicitation_eng-prolific,3.2.4,Win32,60,5d687a77edb39d00194f0a60,,1,0,98,41,1,97
,,,,,,,,,,,,,,,,,,,,,,,,,,,,,,,,,,,,,,,,,a,30.93499994,EA,FALSE,,,,,,,45,gorro,Spanish,Sounds/spa_gorro.mp3,2020-06-05_15h34.51.228,TranslationElicitation_eng-prolific,3.2.4,Win32,60,5d687a77edb39d00194f0a60,,1,0,98,41,1,97
,,,,,,,,,,,,,,,,,,,,,,,,,,,,,,,,,,,,,,,,,t,31.05200005,EAT,FALSE,,,,,,,45,gorro,Spanish,Sounds/spa_gorro.mp3,2020-06-05_15h34.51.228,TranslationElicitation_eng-prolific,3.2.4,Win32,60,5d687a77edb39d00194f0a60,,1,0,98,41,1,97
,,,,,,,,,,,,,,,,,,,,,,,,,,,,,,,,,,,,,,,,,return,32.2349999,EAT,FALSE,,,,,,,45,gorro,Spanish,Sounds/spa_gorro.mp3,2020-06-05_15h34.51.228,TranslationElicitation_eng-prolific,3.2.4,Win32,60,5d687a77edb39d00194f0a60,32.2349999,1,0,98,41,1,97
,,,,,,,,,,,,,,,,,,,,,,,,,,,,,,,,,,,,,,,,,,,,,,,,,,,45,gorro,Spanish,Sounds/spa_gorro.mp3,2020-06-05_15h34.51.228,TranslationElicitation_eng-prolific,3.2.4,Win32,60,5d687a77edb39d00194f0a60,,1,0,98,41,1,97
,,,,,,,,,,,,,,,,,,,,,,,,,,,,,,,,,,,,,,,,,o,5.382999897,O,FALSE,,,,,,,61,mariposa,Spanish,Sounds/spa_mariposa.mp3,2020-06-05_15h34.51.228,TranslationElicitation_eng-prolific,3.2.4,Win32,60,5d687a77edb39d00194f0a60,,1,0,98,57,1,97
,,,,,,,,,,,,,,,,,,,,,,,,,,,,,,,,,,,,,,,,,backspace,5.682999849,,TRUE,,,,,,,61,mariposa,Spanish,Sounds/spa_mariposa.mp3,2020-06-05_15h34.51.228,TranslationElicitation_eng-prolific,3.2.4,Win32,60,5d687a77edb39d00194f0a60,,1,0,98,57,1,97
,,,,,,,,,,,,,,,,,,,,,,,,,,,,,,,,,,,,,,,,,p,5.882999897,P,TRUE,,,,,,,61,mariposa,Spanish,Sounds/spa_mariposa.mp3,2020-06-05_15h34.51.228,TranslationElicitation_eng-prolific,3.2.4,Win32,60,5d687a77edb39d00194f0a60,,1,0,98,57,1,97
,,,,,,,,,,,,,,,,,,,,,,,,,,,,,,,,,,,,,,,,,i,6.167000055,PI,TRUE,,,,,,,61,mariposa,Spanish,Sounds/spa_mariposa.mp3,2020-06-05_15h34.51.228,TranslationElicitation_eng-prolific,3.2.4,Win32,60,5d687a77edb39d00194f0a60,,1,0,98,57,1,97
,,,,,,,,,,,,,,,,,,,,,,,,,,,,,,,,,,,,,,,,,e,6.316999912,PIE,TRUE,,,,,,,61,mariposa,Spanish,Sounds/spa_mariposa.mp3,2020-06-05_15h34.51.228,TranslationElicitation_eng-prolific,3.2.4,Win32,60,5d687a77edb39d00194f0a60,,1,0,98,57,1,97
,,,,,,,,,,,,,,,,,,,,,,,,,,,,,,,,,,,,,,,,,return,6.582999945,PIE,TRUE,,,,,,,61,mariposa,Spanish,Sounds/spa_mariposa.mp3,2020-06-05_15h34.51.228,TranslationElicitation_eng-prolific,3.2.4,Win32,60,5d687a77edb39d00194f0a60,6.582999945,1,0,98,57,1,97
,,,,,,,,,,,,,,,,,,,,,,,,,,,,,,,,,,,,,,,,,,,,,,,,,,,61,mariposa,Spanish,Sounds/spa_mariposa.mp3,2020-06-05_15h34.51.228,TranslationElicitation_eng-prolific,3.2.4,Win32,60,5d687a77edb39d00194f0a60,,1,0,98,57,1,97
,,,,,,,,,,,,,,,,,,,,,,,,,,,,,,,,,,,,,,,,,m,8.28399992,M,FALSE,,,,,,,90,pollo,Spanish,Sounds/spa_pollo.mp3,2020-06-05_15h34.51.228,TranslationElicitation_eng-prolific,3.2.4,Win32,60,5d687a77edb39d00194f0a60,,1,0,98,85,1,97
,,,,,,,,,,,,,,,,,,,,,,,,,,,,,,,,,,,,,,,,,e,8.351000071,ME,FALSE,,,,,,,90,pollo,Spanish,Sounds/spa_pollo.mp3,2020-06-05_15h34.51.228,TranslationElicitation_eng-prolific,3.2.4,Win32,60,5d687a77edb39d00194f0a60,,1,0,98,85,1,97
,,,,,,,,,,,,,,,,,,,,,,,,,,,,,,,,,,,,,,,,,a,8.400000095,MEA,FALSE,,,,,,,90,pollo,Spanish,Sounds/spa_pollo.mp3,2020-06-05_15h34.51.228,TranslationElicitation_eng-prolific,3.2.4,Win32,60,5d687a77edb39d00194f0a60,,1,0,98,85,1,97
,,,,,,,,,,,,,,,,,,,,,,,,,,,,,,,,,,,,,,,,,t,8.500999928,MEAT,FALSE,,,,,,,90,pollo,Spanish,Sounds/spa_pollo.mp3,2020-06-05_15h34.51.228,TranslationElicitation_eng-prolific,3.2.4,Win32,60,5d687a77edb39d00194f0a60,,1,0,98,85,1,97
,,,,,,,,,,,,,,,,,,,,,,,,,,,,,,,,,,,,,,,,,return,9.184000015,MEAT,FALSE,,,,,,,90,pollo,Spanish,Sounds/spa_pollo.mp3,2020-06-05_15h34.51.228,TranslationElicitation_eng-prolific,3.2.4,Win32,60,5d687a77edb39d00194f0a60,9.184000015,1,0,98,85,1,97
,,,,,,,,,,,,,,,,,,,,,,,,,,,,,,,,,,,,,,,,,,,,,,,,,,,90,pollo,Spanish,Sounds/spa_pollo.mp3,2020-06-05_15h34.51.228,TranslationElicitation_eng-prolific,3.2.4,Win32,60,5d687a77edb39d00194f0a60,,1,0,98,85,1,97
,,,,,,,,,,,,,,,,,,,,,,,,,,,,,,,,,,,,,,,,,c,3.299000025,C,FALSE,,,,,,,66,moto,Spanish,Sounds/spa_moto.mp3,2020-06-05_15h34.51.228,TranslationElicitation_eng-prolific,3.2.4,Win32,60,5d687a77edb39d00194f0a60,,1,0,98,62,1,97
,,,,,,,,,,,,,,,,,,,,,,,,,,,,,,,,,,,,,,,,,a,3.367000103,CA,FALSE,,,,,,,66,moto,Spanish,Sounds/spa_moto.mp3,2020-06-05_15h34.51.228,TranslationElicitation_eng-prolific,3.2.4,Win32,60,5d687a77edb39d00194f0a60,,1,0,98,62,1,97
,,,,,,,,,,,,,,,,,,,,,,,,,,,,,,,,,,,,,,,,,r,3.71600008,CAR,FALSE,,,,,,,66,moto,Spanish,Sounds/spa_moto.mp3,2020-06-05_15h34.51.228,TranslationElicitation_eng-prolific,3.2.4,Win32,60,5d687a77edb39d00194f0a60,,1,0,98,62,1,97
,,,,,,,,,,,,,,,,,,,,,,,,,,,,,,,,,,,,,,,,,return,4.082999945,CAR,FALSE,,,,,,,66,moto,Spanish,Sounds/spa_moto.mp3,2020-06-05_15h34.51.228,TranslationElicitation_eng-prolific,3.2.4,Win32,60,5d687a77edb39d00194f0a60,4.082999945,1,0,98,62,1,97
,,,,,,,,,,,,,,,,,,,,,,,,,,,,,,,,,,,,,,,,,,,,,,,,,,,66,moto,Spanish,Sounds/spa_moto.mp3,2020-06-05_15h34.51.228,TranslationElicitation_eng-prolific,3.2.4,Win32,60,5d687a77edb39d00194f0a60,,1,0,98,62,1,97
,,,,,,,,,,,,,,,,,,,,,,,,,,,,,,,,,,,,,,,,,m,4.067000151,M,FALSE,,,,,,,94,tambor,Spanish,Sounds/spa_tambor.mp3,2020-06-05_15h34.51.228,TranslationElicitation_eng-prolific,3.2.4,Win32,60,5d687a77edb39d00194f0a60,,1,0,98,89,1,97
,,,,,,,,,,,,,,,,,,,,,,,,,,,,,,,,,,,,,,,,,u,4.283000231,MU,FALSE,,,,,,,94,tambor,Spanish,Sounds/spa_tambor.mp3,2020-06-05_15h34.51.228,TranslationElicitation_eng-prolific,3.2.4,Win32,60,5d687a77edb39d00194f0a60,,1,0,98,89,1,97
,,,,,,,,,,,,,,,,,,,,,,,,,,,,,,,,,,,,,,,,,s,4.384000063,MUS,FALSE,,,,,,,94,tambor,Spanish,Sounds/spa_tambor.mp3,2020-06-05_15h34.51.228,TranslationElicitation_eng-prolific,3.2.4,Win32,60,5d687a77edb39d00194f0a60,,1,0,98,89,1,97
,,,,,,,,,,,,,,,,,,,,,,,,,,,,,,,,,,,,,,,,,i,4.501000166,MUSI,FALSE,,,,,,,94,tambor,Spanish,Sounds/spa_tambor.mp3,2020-06-05_15h34.51.228,TranslationElicitation_eng-prolific,3.2.4,Win32,60,5d687a77edb39d00194f0a60,,1,0,98,89,1,97
,,,,,,,,,,,,,,,,,,,,,,,,,,,,,,,,,,,,,,,,,c,4.583000183,MUSIC,FALSE,,,,,,,94,tambor,Spanish,Sounds/spa_tambor.mp3,2020-06-05_15h34.51.228,TranslationElicitation_eng-prolific,3.2.4,Win32,60,5d687a77edb39d00194f0a60,,1,0,98,89,1,97
,,,,,,,,,,,,,,,,,,,,,,,,,,,,,,,,,,,,,,,,,return,4.884000063,MUSIC,FALSE,,,,,,,94,tambor,Spanish,Sounds/spa_tambor.mp3,2020-06-05_15h34.51.228,TranslationElicitation_eng-prolific,3.2.4,Win32,60,5d687a77edb39d00194f0a60,4.884000063,1,0,98,89,1,97
,,,,,,,,,,,,,,,,,,,,,,,,,,,,,,,,,,,,,,,,,,,,,,,,,,,94,tambor,Spanish,Sounds/spa_tambor.mp3,2020-06-05_15h34.51.228,TranslationElicitation_eng-prolific,3.2.4,Win32,60,5d687a77edb39d00194f0a60,,1,0,98,89,1,97
,,,,,,,,,,,,,,,,,,,,,,,,,,,,,,,,,,,,,,,,,s,4.767999887,S,FALSE,,,,,,,52,lapiz,Spanish,Sounds/spa_lapiz.mp3,2020-06-05_15h34.51.228,TranslationElicitation_eng-prolific,3.2.4,Win32,60,5d687a77edb39d00194f0a60,,1,0,98,48,1,97
,,,,,,,,,,,,,,,,,,,,,,,,,,,,,,,,,,,,,,,,,t,4.917000055,ST,FALSE,,,,,,,52,lapiz,Spanish,Sounds/spa_lapiz.mp3,2020-06-05_15h34.51.228,TranslationElicitation_eng-prolific,3.2.4,Win32,60,5d687a77edb39d00194f0a60,,1,0,98,48,1,97
,,,,,,,,,,,,,,,,,,,,,,,,,,,,,,,,,,,,,,,,,o,5.03399992,STO,FALSE,,,,,,,52,lapiz,Spanish,Sounds/spa_lapiz.mp3,2020-06-05_15h34.51.228,TranslationElicitation_eng-prolific,3.2.4,Win32,60,5d687a77edb39d00194f0a60,,1,0,98,48,1,97
,,,,,,,,,,,,,,,,,,,,,,,,,,,,,,,,,,,,,,,,,n,5.184000015,STON,FALSE,,,,,,,52,lapiz,Spanish,Sounds/spa_lapiz.mp3,2020-06-05_15h34.51.228,TranslationElicitation_eng-prolific,3.2.4,Win32,60,5d687a77edb39d00194f0a60,,1,0,98,48,1,97
,,,,,,,,,,,,,,,,,,,,,,,,,,,,,,,,,,,,,,,,,e,5.26699996,STONE,FALSE,,,,,,,52,lapiz,Spanish,Sounds/spa_lapiz.mp3,2020-06-05_15h34.51.228,TranslationElicitation_eng-prolific,3.2.4,Win32,60,5d687a77edb39d00194f0a60,,1,0,98,48,1,97
,,,,,,,,,,,,,,,,,,,,,,,,,,,,,,,,,,,,,,,,,return,5.500999928,STONE,FALSE,,,,,,,52,lapiz,Spanish,Sounds/spa_lapiz.mp3,2020-06-05_15h34.51.228,TranslationElicitation_eng-prolific,3.2.4,Win32,60,5d687a77edb39d00194f0a60,5.500999928,1,0,98,48,1,97
,,,,,,,,,,,,,,,,,,,,,,,,,,,,,,,,,,,,,,,,,,,,,,,,,,,52,lapiz,Spanish,Sounds/spa_lapiz.mp3,2020-06-05_15h34.51.228,TranslationElicitation_eng-prolific,3.2.4,Win32,60,5d687a77edb39d00194f0a60,,1,0,98,48,1,97
,,,,,,,,,,,,,,,,,,,,,,,,,,,,,,,,,,,,,,,,,b,14.73500013,B,FALSE,,,,,,,28,cielo,Spanish,Sounds/spa_cielo.mp3,2020-06-05_15h34.51.228,TranslationElicitation_eng-prolific,3.2.4,Win32,60,5d687a77edb39d00194f0a60,,1,0,98,25,1,97
,,,,,,,,,,,,,,,,,,,,,,,,,,,,,,,,,,,,,,,,,r,14.88499999,BR,FALSE,,,,,,,28,cielo,Spanish,Sounds/spa_cielo.mp3,2020-06-05_15h34.51.228,TranslationElicitation_eng-prolific,3.2.4,Win32,60,5d687a77edb39d00194f0a60,,1,0,98,25,1,97
,,,,,,,,,,,,,,,,,,,,,,,,,,,,,,,,,,,,,,,,,e,14.98399997,BRE,FALSE,,,,,,,28,cielo,Spanish,Sounds/spa_cielo.mp3,2020-06-05_15h34.51.228,TranslationElicitation_eng-prolific,3.2.4,Win32,60,5d687a77edb39d00194f0a60,,1,0,98,25,1,97
,,,,,,,,,,,,,,,,,,,,,,,,,,,,,,,,,,,,,,,,,a,15.03500009,BREA,FALSE,,,,,,,28,cielo,Spanish,Sounds/spa_cielo.mp3,2020-06-05_15h34.51.228,TranslationElicitation_eng-prolific,3.2.4,Win32,60,5d687a77edb39d00194f0a60,,1,0,98,25,1,97
,,,,,,,,,,,,,,,,,,,,,,,,,,,,,,,,,,,,,,,,,k,15.13499999,BREAK,FALSE,,,,,,,28,cielo,Spanish,Sounds/spa_cielo.mp3,2020-06-05_15h34.51.228,TranslationElicitation_eng-prolific,3.2.4,Win32,60,5d687a77edb39d00194f0a60,,1,0,98,25,1,97
,,,,,,,,,,,,,,,,,,,,,,,,,,,,,,,,,,,,,,,,,return,16.88400006,BREAK,FALSE,,,,,,,28,cielo,Spanish,Sounds/spa_cielo.mp3,2020-06-05_15h34.51.228,TranslationElicitation_eng-prolific,3.2.4,Win32,60,5d687a77edb39d00194f0a60,16.88400006,1,0,98,25,1,97
,,,,,,,,,,,,,,,,,,,,,,,,,,,,,,,,,,,,,,,,,,,,,,,,,,,28,cielo,Spanish,Sounds/spa_cielo.mp3,2020-06-05_15h34.51.228,TranslationElicitation_eng-prolific,3.2.4,Win32,60,5d687a77edb39d00194f0a60,,1,0,98,25,1,97
,,,,,,,,,,,,,,,,,,,,,,,,,,,,,,,,,,,,,,,,,c,4.217999935,C,FALSE,,,,,,,6,boca,Spanish,Sounds/spa_boca.mp3,2020-06-05_15h34.51.228,TranslationElicitation_eng-prolific,3.2.4,Win32,60,5d687a77edb39d00194f0a60,,1,0,98,4,1,97
,,,,,,,,,,,,,,,,,,,,,,,,,,,,,,,,,,,,,,,,,o,4.349999905,CO,FALSE,,,,,,,6,boca,Spanish,Sounds/spa_boca.mp3,2020-06-05_15h34.51.228,TranslationElicitation_eng-prolific,3.2.4,Win32,60,5d687a77edb39d00194f0a60,,1,0,98,4,1,97
,,,,,,,,,,,,,,,,,,,,,,,,,,,,,,,,,,,,,,,,,f,4.450000048,COF,FALSE,,,,,,,6,boca,Spanish,Sounds/spa_boca.mp3,2020-06-05_15h34.51.228,TranslationElicitation_eng-prolific,3.2.4,Win32,60,5d687a77edb39d00194f0a60,,1,0,98,4,1,97
,,,,,,,,,,,,,,,,,,,,,,,,,,,,,,,,,,,,,,,,,f,4.617000103,COFF,FALSE,,,,,,,6,boca,Spanish,Sounds/spa_boca.mp3,2020-06-05_15h34.51.228,TranslationElicitation_eng-prolific,3.2.4,Win32,60,5d687a77edb39d00194f0a60,,1,0,98,4,1,97
,,,,,,,,,,,,,,,,,,,,,,,,,,,,,,,,,,,,,,,,,e,4.684000015,COFFE,FALSE,,,,,,,6,boca,Spanish,Sounds/spa_boca.mp3,2020-06-05_15h34.51.228,TranslationElicitation_eng-prolific,3.2.4,Win32,60,5d687a77edb39d00194f0a60,,1,0,98,4,1,97
,,,,,,,,,,,,,,,,,,,,,,,,,,,,,,,,,,,,,,,,,e,6.000999928,COFFEE,FALSE,,,,,,,6,boca,Spanish,Sounds/spa_boca.mp3,2020-06-05_15h34.51.228,TranslationElicitation_eng-prolific,3.2.4,Win32,60,5d687a77edb39d00194f0a60,,1,0,98,4,1,97
,,,,,,,,,,,,,,,,,,,,,,,,,,,,,,,,,,,,,,,,,return,7.983999968,COFFEE,FALSE,,,,,,,6,boca,Spanish,Sounds/spa_boca.mp3,2020-06-05_15h34.51.228,TranslationElicitation_eng-prolific,3.2.4,Win32,60,5d687a77edb39d00194f0a60,7.983999968,1,0,98,4,1,97
,,,,,,,,,,,,,,,,,,,,,,,,,,,,,,,,,,,,,,,,,,,,,,,,,,,6,boca,Spanish,Sounds/spa_boca.mp3,2020-06-05_15h34.51.228,TranslationElicitation_eng-prolific,3.2.4,Win32,60,5d687a77edb39d00194f0a60,,1,0,98,4,1,97
,,,,,,,,,,,,,,,,,,,,,,,,,,,,,,,,,,,,,,,,,f,4.117000103,F,FALSE,,,,,,,15,caballo,Spanish,Sounds/spa_caballo.mp3,2020-06-05_15h34.51.228,TranslationElicitation_eng-prolific,3.2.4,Win32,60,5d687a77edb39d00194f0a60,,1,0,98,13,1,97
,,,,,,,,,,,,,,,,,,,,,,,,,,,,,,,,,,,,,,,,,i,4.233999968,FI,FALSE,,,,,,,15,caballo,Spanish,Sounds/spa_caballo.mp3,2020-06-05_15h34.51.228,TranslationElicitation_eng-prolific,3.2.4,Win32,60,5d687a77edb39d00194f0a60,,1,0,98,13,1,97
,,,,,,,,,,,,,,,,,,,,,,,,,,,,,,,,,,,,,,,,,s,4.383000135,FIS,FALSE,,,,,,,15,caballo,Spanish,Sounds/spa_caballo.mp3,2020-06-05_15h34.51.228,TranslationElicitation_eng-prolific,3.2.4,Win32,60,5d687a77edb39d00194f0a60,,1,0,98,13,1,97
,,,,,,,,,,,,,,,,,,,,,,,,,,,,,,,,,,,,,,,,,h,4.500999928,FISH,FALSE,,,,,,,15,caballo,Spanish,Sounds/spa_caballo.mp3,2020-06-05_15h34.51.228,TranslationElicitation_eng-prolific,3.2.4,Win32,60,5d687a77edb39d00194f0a60,,1,0,98,13,1,97
,,,,,,,,,,,,,,,,,,,,,,,,,,,,,,,,,,,,,,,,,return,6.351000071,FISH,FALSE,,,,,,,15,caballo,Spanish,Sounds/spa_caballo.mp3,2020-06-05_15h34.51.228,TranslationElicitation_eng-prolific,3.2.4,Win32,60,5d687a77edb39d00194f0a60,6.351000071,1,0,98,13,1,97
,,,,,,,,,,,,,,,,,,,,,,,,,,,,,,,,,,,,,,,,,,,,,,,,,,,15,caballo,Spanish,Sounds/spa_caballo.mp3,2020-06-05_15h34.51.228,TranslationElicitation_eng-prolific,3.2.4,Win32,60,5d687a77edb39d00194f0a60,,1,0,98,13,1,97
,,,,,,,,,,,,,,,,,,,,,,,,,,,,,,,,,,,,,,,,,g,18.03399992,G,FALSE,,,,,,,101,tren,Spanish,Sounds/spa_tren.mp3,2020-06-05_15h34.51.228,TranslationElicitation_eng-prolific,3.2.4,Win32,60,5d687a77edb39d00194f0a60,,1,0,98,95,1,97
,,,,,,,,,,,,,,,,,,,,,,,,,,,,,,,,,,,,,,,,,o,18.25099993,GO,FALSE,,,,,,,101,tren,Spanish,Sounds/spa_tren.mp3,2020-06-05_15h34.51.228,TranslationElicitation_eng-prolific,3.2.4,Win32,60,5d687a77edb39d00194f0a60,,1,0,98,95,1,97
,,,,,,,,,,,,,,,,,,,,,,,,,,,,,,,,,,,,,,,,,o,18.40100002,GOO,FALSE,,,,,,,101,tren,Spanish,Sounds/spa_tren.mp3,2020-06-05_15h34.51.228,TranslationElicitation_eng-prolific,3.2.4,Win32,60,5d687a77edb39d00194f0a60,,1,0,98,95,1,97
,,,,,,,,,,,,,,,,,,,,,,,,,,,,,,,,,,,,,,,,,d,18.51799989,GOOD,FALSE,,,,,,,101,tren,Spanish,Sounds/spa_tren.mp3,2020-06-05_15h34.51.228,TranslationElicitation_eng-prolific,3.2.4,Win32,60,5d687a77edb39d00194f0a60,,1,0,98,95,1,97
,,,,,,,,,,,,,,,,,,,,,,,,,,,,,,,,,,,,,,,,,return,18.68499994,GOOD,FALSE,,,,,,,101,tren,Spanish,Sounds/spa_tren.mp3,2020-06-05_15h34.51.228,TranslationElicitation_eng-prolific,3.2.4,Win32,60,5d687a77edb39d00194f0a60,18.68499994,1,0,98,95,1,97
,,,,,,,,,,,,,,,,,,,,,,,,,,,,,,,,,,,,,,,,,,,,,,,,,,,101,tren,Spanish,Sounds/spa_tren.mp3,2020-06-05_15h34.51.228,TranslationElicitation_eng-prolific,3.2.4,Win32,60,5d687a77edb39d00194f0a60,,1,0,98,95,1,97
,,,,,,,,,,,,,,,,,,,,,,,,,,,,,,,,,,,,,,,,,c,4.499000072,C,FALSE,,,,,,,16,caja,Spanish,Sounds/spa_caja.mp3,2020-06-05_15h34.51.228,TranslationElicitation_eng-prolific,3.2.4,Win32,60,5d687a77edb39d00194f0a60,,1,0,98,14,1,97
,,,,,,,,,,,,,,,,,,,,,,,,,,,,,,,,,,,,,,,,,a,4.582999945,CA,FALSE,,,,,,,16,caja,Spanish,Sounds/spa_caja.mp3,2020-06-05_15h34.51.228,TranslationElicitation_eng-prolific,3.2.4,Win32,60,5d687a77edb39d00194f0a60,,1,0,98,14,1,97
,,,,,,,,,,,,,,,,,,,,,,,,,,,,,,,,,,,,,,,,,s,4.700000048,CAS,FALSE,,,,,,,16,caja,Spanish,Sounds/spa_caja.mp3,2020-06-05_15h34.51.228,TranslationElicitation_eng-prolific,3.2.4,Win32,60,5d687a77edb39d00194f0a60,,1,0,98,14,1,97
,,,,,,,,,,,,,,,,,,,,,,,,,,,,,,,,,,,,,,,,,t,4.882999897,CAST,FALSE,,,,,,,16,caja,Spanish,Sounds/spa_caja.mp3,2020-06-05_15h34.51.228,TranslationElicitation_eng-prolific,3.2.4,Win32,60,5d687a77edb39d00194f0a60,,1,0,98,14,1,97
,,,,,,,,,,,,,,,,,,,,,,,,,,,,,,,,,,,,,,,,,l,4.999000072,CASTL,FALSE,,,,,,,16,caja,Spanish,Sounds/spa_caja.mp3,2020-06-05_15h34.51.228,TranslationElicitation_eng-prolific,3.2.4,Win32,60,5d687a77edb39d00194f0a60,,1,0,98,14,1,97
,,,,,,,,,,,,,,,,,,,,,,,,,,,,,,,,,,,,,,,,,e,5.082999945,CASTLE,FALSE,,,,,,,16,caja,Spanish,Sounds/spa_caja.mp3,2020-06-05_15h34.51.228,TranslationElicitation_eng-prolific,3.2.4,Win32,60,5d687a77edb39d00194f0a60,,1,0,98,14,1,97
,,,,,,,,,,,,,,,,,,,,,,,,,,,,,,,,,,,,,,,,,return,5.5,CASTLE,FALSE,,,,,,,16,caja,Spanish,Sounds/spa_caja.mp3,2020-06-05_15h34.51.228,TranslationElicitation_eng-prolific,3.2.4,Win32,60,5d687a77edb39d00194f0a60,5.5,1,0,98,14,1,97
,,,,,,,,,,,,,,,,,,,,,,,,,,,,,,,,,,,,,,,,,,,,,,,,,,,16,caja,Spanish,Sounds/spa_caja.mp3,2020-06-05_15h34.51.228,TranslationElicitation_eng-prolific,3.2.4,Win32,60,5d687a77edb39d00194f0a60,,1,0,98,14,1,97
,,,,,,,,,,,,,,,,,,,,,,,,,,,,,,,,,,,,,,,,,f,7.299999952,F,FALSE,,,,,,,40,galleta,Spanish,Sounds/spa_galleta.mp3,2020-06-05_15h34.51.228,TranslationElicitation_eng-prolific,3.2.4,Win32,60,5d687a77edb39d00194f0a60,,1,0,98,36,1,97
,,,,,,,,,,,,,,,,,,,,,,,,,,,,,,,,,,,,,,,,,u,7.367000103,FU,FALSE,,,,,,,40,galleta,Spanish,Sounds/spa_galleta.mp3,2020-06-05_15h34.51.228,TranslationElicitation_eng-prolific,3.2.4,Win32,60,5d687a77edb39d00194f0a60,,1,0,98,36,1,97
,,,,,,,,,,,,,,,,,,,,,,,,,,,,,,,,,,,,,,,,,n,7.450000048,FUN,FALSE,,,,,,,40,galleta,Spanish,Sounds/spa_galleta.mp3,2020-06-05_15h34.51.228,TranslationElicitation_eng-prolific,3.2.4,Win32,60,5d687a77edb39d00194f0a60,,1,0,98,36,1,97
,,,,,,,,,,,,,,,,,,,,,,,,,,,,,,,,,,,,,,,,,return,7.684000015,FUN,FALSE,,,,,,,40,galleta,Spanish,Sounds/spa_galleta.mp3,2020-06-05_15h34.51.228,TranslationElicitation_eng-prolific,3.2.4,Win32,60,5d687a77edb39d00194f0a60,7.684000015,1,0,98,36,1,97
,,,,,,,,,,,,,,,,,,,,,,,,,,,,,,,,,,,,,,,,,,,,,,,,,,,40,galleta,Spanish,Sounds/spa_galleta.mp3,2020-06-05_15h34.51.228,TranslationElicitation_eng-prolific,3.2.4,Win32,60,5d687a77edb39d00194f0a60,,1,0,98,36,1,97
,,,,,,,,,,,,,,,,,,,,,,,,,,,,,,,,,,,,,,,,,r,36.16799998,R,FALSE,,,,,,,98,tobogan,Spanish,Sounds/spa_tobogan.mp3,2020-06-05_15h34.51.228,TranslationElicitation_eng-prolific,3.2.4,Win32,60,5d687a77edb39d00194f0a60,,1,0,98,92,1,97
,,,,,,,,,,,,,,,,,,,,,,,,,,,,,,,,,,,,,,,,,i,36.28500009,RI,FALSE,,,,,,,98,tobogan,Spanish,Sounds/spa_tobogan.mp3,2020-06-05_15h34.51.228,TranslationElicitation_eng-prolific,3.2.4,Win32,60,5d687a77edb39d00194f0a60,,1,0,98,92,1,97
,,,,,,,,,,,,,,,,,,,,,,,,,,,,,,,,,,,,,,,,,v,36.40199995,RIV,FALSE,,,,,,,98,tobogan,Spanish,Sounds/spa_tobogan.mp3,2020-06-05_15h34.51.228,TranslationElicitation_eng-prolific,3.2.4,Win32,60,5d687a77edb39d00194f0a60,,1,0,98,92,1,97
,,,,,,,,,,,,,,,,,,,,,,,,,,,,,,,,,,,,,,,,,e,36.4849999,RIVE,FALSE,,,,,,,98,tobogan,Spanish,Sounds/spa_tobogan.mp3,2020-06-05_15h34.51.228,TranslationElicitation_eng-prolific,3.2.4,Win32,60,5d687a77edb39d00194f0a60,,1,0,98,92,1,97
,,,,,,,,,,,,,,,,,,,,,,,,,,,,,,,,,,,,,,,,,r,36.602,RIVER,FALSE,,,,,,,98,tobogan,Spanish,Sounds/spa_tobogan.mp3,2020-06-05_15h34.51.228,TranslationElicitation_eng-prolific,3.2.4,Win32,60,5d687a77edb39d00194f0a60,,1,0,98,92,1,97
,,,,,,,,,,,,,,,,,,,,,,,,,,,,,,,,,,,,,,,,,return,36.68499994,RIVER,FALSE,,,,,,,98,tobogan,Spanish,Sounds/spa_tobogan.mp3,2020-06-05_15h34.51.228,TranslationElicitation_eng-prolific,3.2.4,Win32,60,5d687a77edb39d00194f0a60,36.68499994,1,0,98,92,1,97
,,,,,,,,,,,,,,,,,,,,,,,,,,,,,,,,,,,,,,,,,,,,,,,,,,,98,tobogan,Spanish,Sounds/spa_tobogan.mp3,2020-06-05_15h34.51.228,TranslationElicitation_eng-prolific,3.2.4,Win32,60,5d687a77edb39d00194f0a60,,1,0,98,92,1,97
,,,,,,,,,,,,,,,,,,,,,,,,,,,,,,,,,,,,,,,,,b,3.5,B,FALSE,,,,,,,11,boton,Spanish,Sounds/spa_boton.mp3,2020-06-05_15h34.51.228,TranslationElicitation_eng-prolific,3.2.4,Win32,60,5d687a77edb39d00194f0a60,,1,0,98,9,1,97
,,,,,,,,,,,,,,,,,,,,,,,,,,,,,,,,,,,,,,,,,r,3.75,BR,FALSE,,,,,,,11,boton,Spanish,Sounds/spa_boton.mp3,2020-06-05_15h34.51.228,TranslationElicitation_eng-prolific,3.2.4,Win32,60,5d687a77edb39d00194f0a60,,1,0,98,9,1,97
,,,,,,,,,,,,,,,,,,,,,,,,,,,,,,,,,,,,,,,,,e,3.799999952,BRE,FALSE,,,,,,,11,boton,Spanish,Sounds/spa_boton.mp3,2020-06-05_15h34.51.228,TranslationElicitation_eng-prolific,3.2.4,Win32,60,5d687a77edb39d00194f0a60,,1,0,98,9,1,97
,,,,,,,,,,,,,,,,,,,,,,,,,,,,,,,,,,,,,,,,,a,3.882999897,BREA,FALSE,,,,,,,11,boton,Spanish,Sounds/spa_boton.mp3,2020-06-05_15h34.51.228,TranslationElicitation_eng-prolific,3.2.4,Win32,60,5d687a77edb39d00194f0a60,,1,0,98,9,1,97
,,,,,,,,,,,,,,,,,,,,,,,,,,,,,,,,,,,,,,,,,d,4.015999794,BREAD,FALSE,,,,,,,11,boton,Spanish,Sounds/spa_boton.mp3,2020-06-05_15h34.51.228,TranslationElicitation_eng-prolific,3.2.4,Win32,60,5d687a77edb39d00194f0a60,,1,0,98,9,1,97
,,,,,,,,,,,,,,,,,,,,,,,,,,,,,,,,,,,,,,,,,return,5.032999992,BREAD,FALSE,,,,,,,11,boton,Spanish,Sounds/spa_boton.mp3,2020-06-05_15h34.51.228,TranslationElicitation_eng-prolific,3.2.4,Win32,60,5d687a77edb39d00194f0a60,5.032999992,1,0,98,9,1,97
,,,,,,,,,,,,,,,,,,,,,,,,,,,,,,,,,,,,,,,,,,,,,,,,,,,11,boton,Spanish,Sounds/spa_boton.mp3,2020-06-05_15h34.51.228,TranslationElicitation_eng-prolific,3.2.4,Win32,60,5d687a77edb39d00194f0a60,,1,0,98,9,1,97
,,,,,,,,,,,,,,,,,,,,,,,,,,,,,,,,,,,,,,,,,m,9.032999992,M,FALSE,,,,,,,59,mano,Spanish,Sounds/spa_mano.mp3,2020-06-05_15h34.51.228,TranslationElicitation_eng-prolific,3.2.4,Win32,60,5d687a77edb39d00194f0a60,,1,0,98,55,1,97
,,,,,,,,,,,,,,,,,,,,,,,,,,,,,,,,,,,,,,,,,e,9.100999832,ME,FALSE,,,,,,,59,mano,Spanish,Sounds/spa_mano.mp3,2020-06-05_15h34.51.228,TranslationElicitation_eng-prolific,3.2.4,Win32,60,5d687a77edb39d00194f0a60,,1,0,98,55,1,97
,,,,,,,,,,,,,,,,,,,,,,,,,,,,,,,,,,,,,,,,,n,9.182999849,MEN,FALSE,,,,,,,59,mano,Spanish,Sounds/spa_mano.mp3,2020-06-05_15h34.51.228,TranslationElicitation_eng-prolific,3.2.4,Win32,60,5d687a77edb39d00194f0a60,,1,0,98,55,1,97
,,,,,,,,,,,,,,,,,,,,,,,,,,,,,,,,,,,,,,,,,return,9.367999792,MEN,FALSE,,,,,,,59,mano,Spanish,Sounds/spa_mano.mp3,2020-06-05_15h34.51.228,TranslationElicitation_eng-prolific,3.2.4,Win32,60,5d687a77edb39d00194f0a60,9.367999792,1,0,98,55,1,97
,,,,,,,,,,,,,,,,,,,,,,,,,,,,,,,,,,,,,,,,,,,,,,,,,,,59,mano,Spanish,Sounds/spa_mano.mp3,2020-06-05_15h34.51.228,TranslationElicitation_eng-prolific,3.2.4,Win32,60,5d687a77edb39d00194f0a60,,1,0,98,55,1,97
,,,,,,,,,,,,,,,,,,,,,,,,,,,,,,,,,,,,,,,,,o,15.81800008,O,FALSE,,,,,,,73,oveja,Spanish,Sounds/spa_oveja.mp3,2020-06-05_15h34.51.228,TranslationElicitation_eng-prolific,3.2.4,Win32,60,5d687a77edb39d00194f0a60,,1,0,98,68,1,97
,,,,,,,,,,,,,,,,,,,,,,,,,,,,,,,,,,,,,,,,,r,15.86800003,OR,FALSE,,,,,,,73,oveja,Spanish,Sounds/spa_oveja.mp3,2020-06-05_15h34.51.228,TranslationElicitation_eng-prolific,3.2.4,Win32,60,5d687a77edb39d00194f0a60,,1,0,98,68,1,97
,,,,,,,,,,,,,,,,,,,,,,,,,,,,,,,,,,,,,,,,,a,15.95099998,ORA,FALSE,,,,,,,73,oveja,Spanish,Sounds/spa_oveja.mp3,2020-06-05_15h34.51.228,TranslationElicitation_eng-prolific,3.2.4,Win32,60,5d687a77edb39d00194f0a60,,1,0,98,68,1,97
,,,,,,,,,,,,,,,,,,,,,,,,,,,,,,,,,,,,,,,,,n,16.05100012,ORAN,FALSE,,,,,,,73,oveja,Spanish,Sounds/spa_oveja.mp3,2020-06-05_15h34.51.228,TranslationElicitation_eng-prolific,3.2.4,Win32,60,5d687a77edb39d00194f0a60,,1,0,98,68,1,97
,,,,,,,,,,,,,,,,,,,,,,,,,,,,,,,,,,,,,,,,,g,16.13400006,ORANG,FALSE,,,,,,,73,oveja,Spanish,Sounds/spa_oveja.mp3,2020-06-05_15h34.51.228,TranslationElicitation_eng-prolific,3.2.4,Win32,60,5d687a77edb39d00194f0a60,,1,0,98,68,1,97
,,,,,,,,,,,,,,,,,,,,,,,,,,,,,,,,,,,,,,,,,e,16.18499994,ORANGE,FALSE,,,,,,,73,oveja,Spanish,Sounds/spa_oveja.mp3,2020-06-05_15h34.51.228,TranslationElicitation_eng-prolific,3.2.4,Win32,60,5d687a77edb39d00194f0a60,,1,0,98,68,1,97
,,,,,,,,,,,,,,,,,,,,,,,,,,,,,,,,,,,,,,,,,return,16.50099993,ORANGE,FALSE,,,,,,,73,oveja,Spanish,Sounds/spa_oveja.mp3,2020-06-05_15h34.51.228,TranslationElicitation_eng-prolific,3.2.4,Win32,60,5d687a77edb39d00194f0a60,16.50099993,1,0,98,68,1,97
,,,,,,,,,,,,,,,,,,,,,,,,,,,,,,,,,,,,,,,,,,,,,,,,,,,73,oveja,Spanish,Sounds/spa_oveja.mp3,2020-06-05_15h34.51.228,TranslationElicitation_eng-prolific,3.2.4,Win32,60,5d687a77edb39d00194f0a60,,1,0,98,68,1,97
,,,,,,,,,,,,,,,,,,,,,,,,,,,,,,,,,,,,,,,,,b,8.701000214,B,FALSE,,,,,,,60,manzana,Spanish,Sounds/spa_manzana.mp3,2020-06-05_15h34.51.228,TranslationElicitation_eng-prolific,3.2.4,Win32,60,5d687a77edb39d00194f0a60,,1,0,98,56,1,97
,,,,,,,,,,,,,,,,,,,,,,,,,,,,,,,,,,,,,,,,,a,8.784000158,BA,FALSE,,,,,,,60,manzana,Spanish,Sounds/spa_manzana.mp3,2020-06-05_15h34.51.228,TranslationElicitation_eng-prolific,3.2.4,Win32,60,5d687a77edb39d00194f0a60,,1,0,98,56,1,97
,,,,,,,,,,,,,,,,,,,,,,,,,,,,,,,,,,,,,,,,,n,8.901000023,BAN,FALSE,,,,,,,60,manzana,Spanish,Sounds/spa_manzana.mp3,2020-06-05_15h34.51.228,TranslationElicitation_eng-prolific,3.2.4,Win32,60,5d687a77edb39d00194f0a60,,1,0,98,56,1,97
,,,,,,,,,,,,,,,,,,,,,,,,,,,,,,,,,,,,,,,,,a,9.001000166,BANA,FALSE,,,,,,,60,manzana,Spanish,Sounds/spa_manzana.mp3,2020-06-05_15h34.51.228,TranslationElicitation_eng-prolific,3.2.4,Win32,60,5d687a77edb39d00194f0a60,,1,0,98,56,1,97
,,,,,,,,,,,,,,,,,,,,,,,,,,,,,,,,,,,,,,,,,n,9.068000078,BANAN,FALSE,,,,,,,60,manzana,Spanish,Sounds/spa_manzana.mp3,2020-06-05_15h34.51.228,TranslationElicitation_eng-prolific,3.2.4,Win32,60,5d687a77edb39d00194f0a60,,1,0,98,56,1,97
,,,,,,,,,,,,,,,,,,,,,,,,,,,,,,,,,,,,,,,,,a,9.185000181,BANANA,FALSE,,,,,,,60,manzana,Spanish,Sounds/spa_manzana.mp3,2020-06-05_15h34.51.228,TranslationElicitation_eng-prolific,3.2.4,Win32,60,5d687a77edb39d00194f0a60,,1,0,98,56,1,97
,,,,,,,,,,,,,,,,,,,,,,,,,,,,,,,,,,,,,,,,,space,9.868000031,BANANA ,FALSE,,,,,,,60,manzana,Spanish,Sounds/spa_manzana.mp3,2020-06-05_15h34.51.228,TranslationElicitation_eng-prolific,3.2.4,Win32,60,5d687a77edb39d00194f0a60,,1,0,98,56,1,97
,,,,,,,,,,,,,,,,,,,,,,,,,,,,,,,,,,,,,,,,,return,10.66800022,BANANA ,FALSE,,,,,,,60,manzana,Spanish,Sounds/spa_manzana.mp3,2020-06-05_15h34.51.228,TranslationElicitation_eng-prolific,3.2.4,Win32,60,5d687a77edb39d00194f0a60,10.66800022,1,0,98,56,1,97
,,,,,,,,,,,,,,,,,,,,,,,,,,,,,,,,,,,,,,,,,,,,,,,,,,,60,manzana,Spanish,Sounds/spa_manzana.mp3,2020-06-05_15h34.51.228,TranslationElicitation_eng-prolific,3.2.4,Win32,60,5d687a77edb39d00194f0a60,,1,0,98,56,1,97
,,,,,,,,,,,,,,,,,,,,,,,,,,,,,,,,,,,,,,,,,g,14.50099993,G,FALSE,,,,,,,97,tijeras,Spanish,Sounds/spa_tijeras.mp3,2020-06-05_15h34.51.228,TranslationElicitation_eng-prolific,3.2.4,Win32,60,5d687a77edb39d00194f0a60,,1,0,98,91,1,97
,,,,,,,,,,,,,,,,,,,,,,,,,,,,,,,,,,,,,,,,,backspace,14.91799998,,TRUE,,,,,,,97,tijeras,Spanish,Sounds/spa_tijeras.mp3,2020-06-05_15h34.51.228,TranslationElicitation_eng-prolific,3.2.4,Win32,60,5d687a77edb39d00194f0a60,,1,0,98,91,1,97
,,,,,,,,,,,,,,,,,,,,,,,,,,,,,,,,,,,,,,,,,g,15.21799994,G,TRUE,,,,,,,97,tijeras,Spanish,Sounds/spa_tijeras.mp3,2020-06-05_15h34.51.228,TranslationElicitation_eng-prolific,3.2.4,Win32,60,5d687a77edb39d00194f0a60,,1,0,98,91,1,97
,,,,,,,,,,,,,,,,,,,,,,,,,,,,,,,,,,,,,,,,,r,15.36699986,GR,TRUE,,,,,,,97,tijeras,Spanish,Sounds/spa_tijeras.mp3,2020-06-05_15h34.51.228,TranslationElicitation_eng-prolific,3.2.4,Win32,60,5d687a77edb39d00194f0a60,,1,0,98,91,1,97
,,,,,,,,,,,,,,,,,,,,,,,,,,,,,,,,,,,,,,,,,a,15.43399978,GRA,TRUE,,,,,,,97,tijeras,Spanish,Sounds/spa_tijeras.mp3,2020-06-05_15h34.51.228,TranslationElicitation_eng-prolific,3.2.4,Win32,60,5d687a77edb39d00194f0a60,,1,0,98,91,1,97
,,,,,,,,,,,,,,,,,,,,,,,,,,,,,,,,,,,,,,,,,p,15.63399982,GRAP,TRUE,,,,,,,97,tijeras,Spanish,Sounds/spa_tijeras.mp3,2020-06-05_15h34.51.228,TranslationElicitation_eng-prolific,3.2.4,Win32,60,5d687a77edb39d00194f0a60,,1,0,98,91,1,97
,,,,,,,,,,,,,,,,,,,,,,,,,,,,,,,,,,,,,,,,,e,16.16799998,GRAPE,TRUE,,,,,,,97,tijeras,Spanish,Sounds/spa_tijeras.mp3,2020-06-05_15h34.51.228,TranslationElicitation_eng-prolific,3.2.4,Win32,60,5d687a77edb39d00194f0a60,,1,0,98,91,1,97
,,,,,,,,,,,,,,,,,,,,,,,,,,,,,,,,,,,,,,,,,s,16.33399987,GRAPES,TRUE,,,,,,,97,tijeras,Spanish,Sounds/spa_tijeras.mp3,2020-06-05_15h34.51.228,TranslationElicitation_eng-prolific,3.2.4,Win32,60,5d687a77edb39d00194f0a60,,1,0,98,91,1,97
,,,,,,,,,,,,,,,,,,,,,,,,,,,,,,,,,,,,,,,,,return,16.46799994,GRAPES,TRUE,,,,,,,97,tijeras,Spanish,Sounds/spa_tijeras.mp3,2020-06-05_15h34.51.228,TranslationElicitation_eng-prolific,3.2.4,Win32,60,5d687a77edb39d00194f0a60,16.46799994,1,0,98,91,1,97
,,,,,,,,,,,,,,,,,,,,,,,,,,,,,,,,,,,,,,,,,,,,,,,,,,,97,tijeras,Spanish,Sounds/spa_tijeras.mp3,2020-06-05_15h34.51.228,TranslationElicitation_eng-prolific,3.2.4,Win32,60,5d687a77edb39d00194f0a60,,1,0,98,91,1,97
,,,,,,,,,,,,,,,,,,,,,,,,,,,,,,,,,,,,,,,,,z,4.149999857,Z,FALSE,,,,,,,21,cebra,Spanish,Sounds/spa_cebra.mp3,2020-06-05_15h34.51.228,TranslationElicitation_eng-prolific,3.2.4,Win32,60,5d687a77edb39d00194f0a60,,1,0,98,19,1,97
,,,,,,,,,,,,,,,,,,,,,,,,,,,,,,,,,,,,,,,,,e,4.382999897,ZE,FALSE,,,,,,,21,cebra,Spanish,Sounds/spa_cebra.mp3,2020-06-05_15h34.51.228,TranslationElicitation_eng-prolific,3.2.4,Win32,60,5d687a77edb39d00194f0a60,,1,0,98,19,1,97
,,,,,,,,,,,,,,,,,,,,,,,,,,,,,,,,,,,,,,,,,b,4.48300004,ZEB,FALSE,,,,,,,21,cebra,Spanish,Sounds/spa_cebra.mp3,2020-06-05_15h34.51.228,TranslationElicitation_eng-prolific,3.2.4,Win32,60,5d687a77edb39d00194f0a60,,1,0,98,19,1,97
,,,,,,,,,,,,,,,,,,,,,,,,,,,,,,,,,,,,,,,,,r,4.566999912,ZEBR,FALSE,,,,,,,21,cebra,Spanish,Sounds/spa_cebra.mp3,2020-06-05_15h34.51.228,TranslationElicitation_eng-prolific,3.2.4,Win32,60,5d687a77edb39d00194f0a60,,1,0,98,19,1,97
,,,,,,,,,,,,,,,,,,,,,,,,,,,,,,,,,,,,,,,,,a,4.665999889,ZEBRA,FALSE,,,,,,,21,cebra,Spanish,Sounds/spa_cebra.mp3,2020-06-05_15h34.51.228,TranslationElicitation_eng-prolific,3.2.4,Win32,60,5d687a77edb39d00194f0a60,,1,0,98,19,1,97
,,,,,,,,,,,,,,,,,,,,,,,,,,,,,,,,,,,,,,,,,return,5.049999952,ZEBRA,FALSE,,,,,,,21,cebra,Spanish,Sounds/spa_cebra.mp3,2020-06-05_15h34.51.228,TranslationElicitation_eng-prolific,3.2.4,Win32,60,5d687a77edb39d00194f0a60,5.049999952,1,0,98,19,1,97
,,,,,,,,,,,,,,,,,,,,,,,,,,,,,,,,,,,,,,,,,,,,,,,,,,,21,cebra,Spanish,Sounds/spa_cebra.mp3,2020-06-05_15h34.51.228,TranslationElicitation_eng-prolific,3.2.4,Win32,60,5d687a77edb39d00194f0a60,,1,0,98,19,1,97
,,,,,,,,,,,,,,,,,,,,,,,,,,,,,,,,,,,,,,,,,m,13.55099988,M,FALSE,,,,,,,9,boli,Spanish,Sounds/spa_boli.mp3,2020-06-05_15h34.51.228,TranslationElicitation_eng-prolific,3.2.4,Win32,60,5d687a77edb39d00194f0a60,,1,0,98,7,1,97
,,,,,,,,,,,,,,,,,,,,,,,,,,,,,,,,,,,,,,,,,o,13.68400002,MO,FALSE,,,,,,,9,boli,Spanish,Sounds/spa_boli.mp3,2020-06-05_15h34.51.228,TranslationElicitation_eng-prolific,3.2.4,Win32,60,5d687a77edb39d00194f0a60,,1,0,98,7,1,97
,,,,,,,,,,,,,,,,,,,,,,,,,,,,,,,,,,,,,,,,,n,13.86800003,MON,FALSE,,,,,,,9,boli,Spanish,Sounds/spa_boli.mp3,2020-06-05_15h34.51.228,TranslationElicitation_eng-prolific,3.2.4,Win32,60,5d687a77edb39d00194f0a60,,1,0,98,7,1,97
,,,,,,,,,,,,,,,,,,,,,,,,,,,,,,,,,,,,,,,,,k,14.01799989,MONK,FALSE,,,,,,,9,boli,Spanish,Sounds/spa_boli.mp3,2020-06-05_15h34.51.228,TranslationElicitation_eng-prolific,3.2.4,Win32,60,5d687a77edb39d00194f0a60,,1,0,98,7,1,97
,,,,,,,,,,,,,,,,,,,,,,,,,,,,,,,,,,,,,,,,,e,14.08400011,MONKE,FALSE,,,,,,,9,boli,Spanish,Sounds/spa_boli.mp3,2020-06-05_15h34.51.228,TranslationElicitation_eng-prolific,3.2.4,Win32,60,5d687a77edb39d00194f0a60,,1,0,98,7,1,97
,,,,,,,,,,,,,,,,,,,,,,,,,,,,,,,,,,,,,,,,,y,14.13400006,MONKEY,FALSE,,,,,,,9,boli,Spanish,Sounds/spa_boli.mp3,2020-06-05_15h34.51.228,TranslationElicitation_eng-prolific,3.2.4,Win32,60,5d687a77edb39d00194f0a60,,1,0,98,7,1,97
,,,,,,,,,,,,,,,,,,,,,,,,,,,,,,,,,,,,,,,,,return,14.30099988,MONKEY,FALSE,,,,,,,9,boli,Spanish,Sounds/spa_boli.mp3,2020-06-05_15h34.51.228,TranslationElicitation_eng-prolific,3.2.4,Win32,60,5d687a77edb39d00194f0a60,14.30099988,1,0,98,7,1,97
,,,,,,,,,,,,,,,,,,,,,,,,,,,,,,,,,,,,,,,,,,,,,,,,,,,9,boli,Spanish,Sounds/spa_boli.mp3,2020-06-05_15h34.51.228,TranslationElicitation_eng-prolific,3.2.4,Win32,60,5d687a77edb39d00194f0a60,,1,0,98,7,1,97
,,,,,,,,,,,,,,,,,,,,,,,,,,,,,,,,,,,,,,,,,p,2.984000206,P,FALSE,,,,,,,74,pajaro,Spanish,Sounds/spa_pajaro.mp3,2020-06-05_15h34.51.228,TranslationElicitation_eng-prolific,3.2.4,Win32,60,5d687a77edb39d00194f0a60,,1,0,98,69,1,97
,,,,,,,,,,,,,,,,,,,,,,,,,,,,,,,,,,,,,,,,,a,3.066000223,PA,FALSE,,,,,,,74,pajaro,Spanish,Sounds/spa_pajaro.mp3,2020-06-05_15h34.51.228,TranslationElicitation_eng-prolific,3.2.4,Win32,60,5d687a77edb39d00194f0a60,,1,0,98,69,1,97
,,,,,,,,,,,,,,,,,,,,,,,,,,,,,,,,,,,,,,,,,q,3.100000143,PAQ,FALSE,,,,,,,74,pajaro,Spanish,Sounds/spa_pajaro.mp3,2020-06-05_15h34.51.228,TranslationElicitation_eng-prolific,3.2.4,Win32,60,5d687a77edb39d00194f0a60,,1,0,98,69,1,97
,,,,,,,,,,,,,,,,,,,,,,,,,,,,,,,,,,,,,,,,,backspace,3.583000183,PA,TRUE,,,,,,,74,pajaro,Spanish,Sounds/spa_pajaro.mp3,2020-06-05_15h34.51.228,TranslationElicitation_eng-prolific,3.2.4,Win32,60,5d687a77edb39d00194f0a60,,1,0,98,69,1,97
,,,,,,,,,,,,,,,,,,,,,,,,,,,,,,,,,,,,,,,,,r,3.767000198,PAR,TRUE,,,,,,,74,pajaro,Spanish,Sounds/spa_pajaro.mp3,2020-06-05_15h34.51.228,TranslationElicitation_eng-prolific,3.2.4,Win32,60,5d687a77edb39d00194f0a60,,1,0,98,69,1,97
,,,,,,,,,,,,,,,,,,,,,,,,,,,,,,,,,,,,,,,,,r,3.901000023,PARR,TRUE,,,,,,,74,pajaro,Spanish,Sounds/spa_pajaro.mp3,2020-06-05_15h34.51.228,TranslationElicitation_eng-prolific,3.2.4,Win32,60,5d687a77edb39d00194f0a60,,1,0,98,69,1,97
,,,,,,,,,,,,,,,,,,,,,,,,,,,,,,,,,,,,,,,,,o,4.034000158,PARRO,TRUE,,,,,,,74,pajaro,Spanish,Sounds/spa_pajaro.mp3,2020-06-05_15h34.51.228,TranslationElicitation_eng-prolific,3.2.4,Win32,60,5d687a77edb39d00194f0a60,,1,0,98,69,1,97
,,,,,,,,,,,,,,,,,,,,,,,,,,,,,,,,,,,,,,,,,t,4.100000143,PARROT,TRUE,,,,,,,74,pajaro,Spanish,Sounds/spa_pajaro.mp3,2020-06-05_15h34.51.228,TranslationElicitation_eng-prolific,3.2.4,Win32,60,5d687a77edb39d00194f0a60,,1,0,98,69,1,97
,,,,,,,,,,,,,,,,,,,,,,,,,,,,,,,,,,,,,,,,,return,4.267000198,PARROT,TRUE,,,,,,,74,pajaro,Spanish,Sounds/spa_pajaro.mp3,2020-06-05_15h34.51.228,TranslationElicitation_eng-prolific,3.2.4,Win32,60,5d687a77edb39d00194f0a60,4.267000198,1,0,98,69,1,97
,,,,,,,,,,,,,,,,,,,,,,,,,,,,,,,,,,,,,,,,,,,,,,,,,,,74,pajaro,Spanish,Sounds/spa_pajaro.mp3,2020-06-05_15h34.51.228,TranslationElicitation_eng-prolific,3.2.4,Win32,60,5d687a77edb39d00194f0a60,,1,0,98,69,1,97
,,,,,,,,,,,,,,,,,,,,,,,,,,,,,,,,,,,,,,,,,g,46.28600001,G,FALSE,,,,,,,23,cerdo,Spanish,Sounds/spa_cerdo.mp3,2020-06-05_15h34.51.228,TranslationElicitation_eng-prolific,3.2.4,Win32,60,5d687a77edb39d00194f0a60,,1,0,98,21,1,97
,,,,,,,,,,,,,,,,,,,,,,,,,,,,,,,,,,,,,,,,,o,46.38599992,GO,FALSE,,,,,,,23,cerdo,Spanish,Sounds/spa_cerdo.mp3,2020-06-05_15h34.51.228,TranslationElicitation_eng-prolific,3.2.4,Win32,60,5d687a77edb39d00194f0a60,,1,0,98,21,1,97
,,,,,,,,,,,,,,,,,,,,,,,,,,,,,,,,,,,,,,,,,a,46.4519999,GOA,FALSE,,,,,,,23,cerdo,Spanish,Sounds/spa_cerdo.mp3,2020-06-05_15h34.51.228,TranslationElicitation_eng-prolific,3.2.4,Win32,60,5d687a77edb39d00194f0a60,,1,0,98,21,1,97
,,,,,,,,,,,,,,,,,,,,,,,,,,,,,,,,,,,,,,,,,t,46.48599982,GOAT,FALSE,,,,,,,23,cerdo,Spanish,Sounds/spa_cerdo.mp3,2020-06-05_15h34.51.228,TranslationElicitation_eng-prolific,3.2.4,Win32,60,5d687a77edb39d00194f0a60,,1,0,98,21,1,97
,,,,,,,,,,,,,,,,,,,,,,,,,,,,,,,,,,,,,,,,,return,46.65299988,GOAT,FALSE,,,,,,,23,cerdo,Spanish,Sounds/spa_cerdo.mp3,2020-06-05_15h34.51.228,TranslationElicitation_eng-prolific,3.2.4,Win32,60,5d687a77edb39d00194f0a60,46.65299988,1,0,98,21,1,97
,,,,,,,,,,,,,,,,,,,,,,,,,,,,,,,,,,,,,,,,,,,,,,,,,,,23,cerdo,Spanish,Sounds/spa_cerdo.mp3,2020-06-05_15h34.51.228,TranslationElicitation_eng-prolific,3.2.4,Win32,60,5d687a77edb39d00194f0a60,,1,0,98,21,1,97
,,,,,,,,,,,,,,,,,,,,,,,,,,,,,,,,,,,,,,,,,g,9.117000103,G,FALSE,,,,,,,39,gafas,Spanish,Sounds/spa_gafas.mp3,2020-06-05_15h34.51.228,TranslationElicitation_eng-prolific,3.2.4,Win32,60,5d687a77edb39d00194f0a60,,1,0,98,35,1,97
,,,,,,,,,,,,,,,,,,,,,,,,,,,,,,,,,,,,,,,,,a,9.217999935,GA,FALSE,,,,,,,39,gafas,Spanish,Sounds/spa_gafas.mp3,2020-06-05_15h34.51.228,TranslationElicitation_eng-prolific,3.2.4,Win32,60,5d687a77edb39d00194f0a60,,1,0,98,35,1,97
,,,,,,,,,,,,,,,,,,,,,,,,,,,,,,,,,,,,,,,,,r,9.334000111,GAR,FALSE,,,,,,,39,gafas,Spanish,Sounds/spa_gafas.mp3,2020-06-05_15h34.51.228,TranslationElicitation_eng-prolific,3.2.4,Win32,60,5d687a77edb39d00194f0a60,,1,0,98,35,1,97
,,,,,,,,,,,,,,,,,,,,,,,,,,,,,,,,,,,,,,,,,a,9.450000048,GARA,FALSE,,,,,,,39,gafas,Spanish,Sounds/spa_gafas.mp3,2020-06-05_15h34.51.228,TranslationElicitation_eng-prolific,3.2.4,Win32,60,5d687a77edb39d00194f0a60,,1,0,98,35,1,97
,,,,,,,,,,,,,,,,,,,,,,,,,,,,,,,,,,,,,,,,,g,9.567000151,GARAG,FALSE,,,,,,,39,gafas,Spanish,Sounds/spa_gafas.mp3,2020-06-05_15h34.51.228,TranslationElicitation_eng-prolific,3.2.4,Win32,60,5d687a77edb39d00194f0a60,,1,0,98,35,1,97
,,,,,,,,,,,,,,,,,,,,,,,,,,,,,,,,,,,,,,,,,e,9.634000063,GARAGE,FALSE,,,,,,,39,gafas,Spanish,Sounds/spa_gafas.mp3,2020-06-05_15h34.51.228,TranslationElicitation_eng-prolific,3.2.4,Win32,60,5d687a77edb39d00194f0a60,,1,0,98,35,1,97
,,,,,,,,,,,,,,,,,,,,,,,,,,,,,,,,,,,,,,,,,return,9.851000071,GARAGE,FALSE,,,,,,,39,gafas,Spanish,Sounds/spa_gafas.mp3,2020-06-05_15h34.51.228,TranslationElicitation_eng-prolific,3.2.4,Win32,60,5d687a77edb39d00194f0a60,9.851000071,1,0,98,35,1,97
,,,,,,,,,,,,,,,,,,,,,,,,,,,,,,,,,,,,,,,,,,,,,,,,,,,39,gafas,Spanish,Sounds/spa_gafas.mp3,2020-06-05_15h34.51.228,TranslationElicitation_eng-prolific,3.2.4,Win32,60,5d687a77edb39d00194f0a60,,1,0,98,35,1,97
,,,,,,,,,,,,,,,,,,,,,,,,,,,,,,,,,,,,,,,,,d,17.30199981,D,FALSE,,,,,,,17,calcetin,Spanish,Sounds/spa_calcetin.mp3,2020-06-05_15h34.51.228,TranslationElicitation_eng-prolific,3.2.4,Win32,60,5d687a77edb39d00194f0a60,,1,0,98,15,1,97
,,,,,,,,,,,,,,,,,,,,,,,,,,,,,,,,,,,,,,,,,e,17.40199995,DE,FALSE,,,,,,,17,calcetin,Spanish,Sounds/spa_calcetin.mp3,2020-06-05_15h34.51.228,TranslationElicitation_eng-prolific,3.2.4,Win32,60,5d687a77edb39d00194f0a60,,1,0,98,15,1,97
,,,,,,,,,,,,,,,,,,,,,,,,,,,,,,,,,,,,,,,,,n,17.5849998,DEN,FALSE,,,,,,,17,calcetin,Spanish,Sounds/spa_calcetin.mp3,2020-06-05_15h34.51.228,TranslationElicitation_eng-prolific,3.2.4,Win32,60,5d687a77edb39d00194f0a60,,1,0,98,15,1,97
,,,,,,,,,,,,,,,,,,,,,,,,,,,,,,,,,,,,,,,,,t,17.95099998,DENT,FALSE,,,,,,,17,calcetin,Spanish,Sounds/spa_calcetin.mp3,2020-06-05_15h34.51.228,TranslationElicitation_eng-prolific,3.2.4,Win32,60,5d687a77edb39d00194f0a60,,1,0,98,15,1,97
,,,,,,,,,,,,,,,,,,,,,,,,,,,,,,,,,,,,,,,,,i,18.102,DENTI,FALSE,,,,,,,17,calcetin,Spanish,Sounds/spa_calcetin.mp3,2020-06-05_15h34.51.228,TranslationElicitation_eng-prolific,3.2.4,Win32,60,5d687a77edb39d00194f0a60,,1,0,98,15,1,97
,,,,,,,,,,,,,,,,,,,,,,,,,,,,,,,,,,,,,,,,,s,18.9519999,DENTIS,FALSE,,,,,,,17,calcetin,Spanish,Sounds/spa_calcetin.mp3,2020-06-05_15h34.51.228,TranslationElicitation_eng-prolific,3.2.4,Win32,60,5d687a77edb39d00194f0a60,,1,0,98,15,1,97
,,,,,,,,,,,,,,,,,,,,,,,,,,,,,,,,,,,,,,,,,t,19.00199986,DENTIST,FALSE,,,,,,,17,calcetin,Spanish,Sounds/spa_calcetin.mp3,2020-06-05_15h34.51.228,TranslationElicitation_eng-prolific,3.2.4,Win32,60,5d687a77edb39d00194f0a60,,1,0,98,15,1,97
,,,,,,,,,,,,,,,,,,,,,,,,,,,,,,,,,,,,,,,,,return,19.46799994,DENTIST,FALSE,,,,,,,17,calcetin,Spanish,Sounds/spa_calcetin.mp3,2020-06-05_15h34.51.228,TranslationElicitation_eng-prolific,3.2.4,Win32,60,5d687a77edb39d00194f0a60,19.46799994,1,0,98,15,1,97
,,,,,,,,,,,,,,,,,,,,,,,,,,,,,,,,,,,,,,,,,,,,,,,,,,,17,calcetin,Spanish,Sounds/spa_calcetin.mp3,2020-06-05_15h34.51.228,TranslationElicitation_eng-prolific,3.2.4,Win32,60,5d687a77edb39d00194f0a60,,1,0,98,15,1,97
,,,,,,,,,,,,,,,,,,,,,,,,,,,,,,,,,,,,,,,,,b,3.648999929,B,FALSE,,,,,,,83,pez,Spanish,Sounds/spa_pez.mp3,2020-06-05_15h34.51.228,TranslationElicitation_eng-prolific,3.2.4,Win32,60,5d687a77edb39d00194f0a60,,1,0,98,78,1,97
,,,,,,,,,,,,,,,,,,,,,,,,,,,,,,,,,,,,,,,,,e,3.75,BE,FALSE,,,,,,,83,pez,Spanish,Sounds/spa_pez.mp3,2020-06-05_15h34.51.228,TranslationElicitation_eng-prolific,3.2.4,Win32,60,5d687a77edb39d00194f0a60,,1,0,98,78,1,97
,,,,,,,,,,,,,,,,,,,,,,,,,,,,,,,,,,,,,,,,,d,3.850000143,BED,FALSE,,,,,,,83,pez,Spanish,Sounds/spa_pez.mp3,2020-06-05_15h34.51.228,TranslationElicitation_eng-prolific,3.2.4,Win32,60,5d687a77edb39d00194f0a60,,1,0,98,78,1,97
,,,,,,,,,,,,,,,,,,,,,,,,,,,,,,,,,,,,,,,,,return,4.217000008,BED,FALSE,,,,,,,83,pez,Spanish,Sounds/spa_pez.mp3,2020-06-05_15h34.51.228,TranslationElicitation_eng-prolific,3.2.4,Win32,60,5d687a77edb39d00194f0a60,4.217000008,1,0,98,78,1,97
,,,,,,,,,,,,,,,,,,,,,,,,,,,,,,,,,,,,,,,,,,,,,,,,,,,83,pez,Spanish,Sounds/spa_pez.mp3,2020-06-05_15h34.51.228,TranslationElicitation_eng-prolific,3.2.4,Win32,60,5d687a77edb39d00194f0a60,,1,0,98,78,1,97
,,,,,,,,,,,,,,,,,,,,,,,,,,,,,,,,,,,,,,,,,s,7.51699996,S,FALSE,,,,,,,53,leche,Spanish,Sounds/spa_leche.mp3,2020-06-05_15h34.51.228,TranslationElicitation_eng-prolific,3.2.4,Win32,60,5d687a77edb39d00194f0a60,,1,0,98,49,1,97
,,,,,,,,,,,,,,,,,,,,,,,,,,,,,,,,,,,,,,,,,o,7.650000095,SO,FALSE,,,,,,,53,leche,Spanish,Sounds/spa_leche.mp3,2020-06-05_15h34.51.228,TranslationElicitation_eng-prolific,3.2.4,Win32,60,5d687a77edb39d00194f0a60,,1,0,98,49,1,97
,,,,,,,,,,,,,,,,,,,,,,,,,,,,,,,,,,,,,,,,,f,7.75,SOF,FALSE,,,,,,,53,leche,Spanish,Sounds/spa_leche.mp3,2020-06-05_15h34.51.228,TranslationElicitation_eng-prolific,3.2.4,Win32,60,5d687a77edb39d00194f0a60,,1,0,98,49,1,97
,,,,,,,,,,,,,,,,,,,,,,,,,,,,,,,,,,,,,,,,,a,7.799000025,SOFA,FALSE,,,,,,,53,leche,Spanish,Sounds/spa_leche.mp3,2020-06-05_15h34.51.228,TranslationElicitation_eng-prolific,3.2.4,Win32,60,5d687a77edb39d00194f0a60,,1,0,98,49,1,97
,,,,,,,,,,,,,,,,,,,,,,,,,,,,,,,,,,,,,,,,,return,7.934000015,SOFA,FALSE,,,,,,,53,leche,Spanish,Sounds/spa_leche.mp3,2020-06-05_15h34.51.228,TranslationElicitation_eng-prolific,3.2.4,Win32,60,5d687a77edb39d00194f0a60,7.934000015,1,0,98,49,1,97
,,,,,,,,,,,,,,,,,,,,,,,,,,,,,,,,,,,,,,,,,,,,,,,,,,,53,leche,Spanish,Sounds/spa_leche.mp3,2020-06-05_15h34.51.228,TranslationElicitation_eng-prolific,3.2.4,Win32,60,5d687a77edb39d00194f0a60,,1,0,98,49,1,97
,,,,,,,,,,,,,,,,,,,,,,,,,,,,,,,,,,,,,,,,,r,15.13400006,R,FALSE,,,,,,,57,loro,Spanish,Sounds/spa_loro.mp3,2020-06-05_15h34.51.228,TranslationElicitation_eng-prolific,3.2.4,Win32,60,5d687a77edb39d00194f0a60,,1,0,98,53,1,97
,,,,,,,,,,,,,,,,,,,,,,,,,,,,,,,,,,,,,,,,,u,15.20000005,RU,FALSE,,,,,,,57,loro,Spanish,Sounds/spa_loro.mp3,2020-06-05_15h34.51.228,TranslationElicitation_eng-prolific,3.2.4,Win32,60,5d687a77edb39d00194f0a60,,1,0,98,53,1,97
,,,,,,,,,,,,,,,,,,,,,,,,,,,,,,,,,,,,,,,,,g,15.31699991,RUG,FALSE,,,,,,,57,loro,Spanish,Sounds/spa_loro.mp3,2020-06-05_15h34.51.228,TranslationElicitation_eng-prolific,3.2.4,Win32,60,5d687a77edb39d00194f0a60,,1,0,98,53,1,97
,,,,,,,,,,,,,,,,,,,,,,,,,,,,,,,,,,,,,,,,,return,15.43300009,RUG,FALSE,,,,,,,57,loro,Spanish,Sounds/spa_loro.mp3,2020-06-05_15h34.51.228,TranslationElicitation_eng-prolific,3.2.4,Win32,60,5d687a77edb39d00194f0a60,15.43300009,1,0,98,53,1,97
,,,,,,,,,,,,,,,,,,,,,,,,,,,,,,,,,,,,,,,,,,,,,,,,,,,57,loro,Spanish,Sounds/spa_loro.mp3,2020-06-05_15h34.51.228,TranslationElicitation_eng-prolific,3.2.4,Win32,60,5d687a77edb39d00194f0a60,,1,0,98,53,1,97
,,,,,,,,,,,,,,,,,,,,,,,,,,,,,,,,,,,,,,,,,s,8.799999952,S,FALSE,,,,,,,24,cereza,Spanish,Sounds/spa_cereza.mp3,2020-06-05_15h34.51.228,TranslationElicitation_eng-prolific,3.2.4,Win32,60,5d687a77edb39d00194f0a60,,1,0,98,22,1,97
,,,,,,,,,,,,,,,,,,,,,,,,,,,,,,,,,,,,,,,,,p,8.917000055,SP,FALSE,,,,,,,24,cereza,Spanish,Sounds/spa_cereza.mp3,2020-06-05_15h34.51.228,TranslationElicitation_eng-prolific,3.2.4,Win32,60,5d687a77edb39d00194f0a60,,1,0,98,22,1,97
,,,,,,,,,,,,,,,,,,,,,,,,,,,,,,,,,,,,,,,,,i,9.117000103,SPI,FALSE,,,,,,,24,cereza,Spanish,Sounds/spa_cereza.mp3,2020-06-05_15h34.51.228,TranslationElicitation_eng-prolific,3.2.4,Win32,60,5d687a77edb39d00194f0a60,,1,0,98,22,1,97
,,,,,,,,,,,,,,,,,,,,,,,,,,,,,,,,,,,,,,,,,c,9.200000048,SPIC,FALSE,,,,,,,24,cereza,Spanish,Sounds/spa_cereza.mp3,2020-06-05_15h34.51.228,TranslationElicitation_eng-prolific,3.2.4,Win32,60,5d687a77edb39d00194f0a60,,1,0,98,22,1,97
,,,,,,,,,,,,,,,,,,,,,,,,,,,,,,,,,,,,,,,,,e,9.28399992,SPICE,FALSE,,,,,,,24,cereza,Spanish,Sounds/spa_cereza.mp3,2020-06-05_15h34.51.228,TranslationElicitation_eng-prolific,3.2.4,Win32,60,5d687a77edb39d00194f0a60,,1,0,98,22,1,97
,,,,,,,,,,,,,,,,,,,,,,,,,,,,,,,,,,,,,,,,,s,9.467000008,SPICES,FALSE,,,,,,,24,cereza,Spanish,Sounds/spa_cereza.mp3,2020-06-05_15h34.51.228,TranslationElicitation_eng-prolific,3.2.4,Win32,60,5d687a77edb39d00194f0a60,,1,0,98,22,1,97
,,,,,,,,,,,,,,,,,,,,,,,,,,,,,,,,,,,,,,,,,return,9.599999905,SPICES,FALSE,,,,,,,24,cereza,Spanish,Sounds/spa_cereza.mp3,2020-06-05_15h34.51.228,TranslationElicitation_eng-prolific,3.2.4,Win32,60,5d687a77edb39d00194f0a60,9.599999905,1,0,98,22,1,97
,,,,,,,,,,,,,,,,,,,,,,,,,,,,,,,,,,,,,,,,,,,,,,,,,,,24,cereza,Spanish,Sounds/spa_cereza.mp3,2020-06-05_15h34.51.228,TranslationElicitation_eng-prolific,3.2.4,Win32,60,5d687a77edb39d00194f0a60,,1,0,98,22,1,97
,,,,,,,,,,,,,,,,,,,,,,,,,,,,,,,,,,,,,,,,,t,5.299999952,T,FALSE,,,,,,,3,barco,Spanish,Sounds/spa_barco.mp3,2020-06-05_15h34.51.228,TranslationElicitation_eng-prolific,3.2.4,Win32,60,5d687a77edb39d00194f0a60,,1,0,98,1,1,97
,,,,,,,,,,,,,,,,,,,,,,,,,,,,,,,,,,,,,,,,,r,5.682999849,TR,FALSE,,,,,,,3,barco,Spanish,Sounds/spa_barco.mp3,2020-06-05_15h34.51.228,TranslationElicitation_eng-prolific,3.2.4,Win32,60,5d687a77edb39d00194f0a60,,1,0,98,1,1,97
,,,,,,,,,,,,,,,,,,,,,,,,,,,,,,,,,,,,,,,,,e,6.217000008,TRE,FALSE,,,,,,,3,barco,Spanish,Sounds/spa_barco.mp3,2020-06-05_15h34.51.228,TranslationElicitation_eng-prolific,3.2.4,Win32,60,5d687a77edb39d00194f0a60,,1,0,98,1,1,97
,,,,,,,,,,,,,,,,,,,,,,,,,,,,,,,,,,,,,,,,,e,6.399999857,TREE,FALSE,,,,,,,3,barco,Spanish,Sounds/spa_barco.mp3,2020-06-05_15h34.51.228,TranslationElicitation_eng-prolific,3.2.4,Win32,60,5d687a77edb39d00194f0a60,,1,0,98,1,1,97
,,,,,,,,,,,,,,,,,,,,,,,,,,,,,,,,,,,,,,,,,s,6.598999977,TREES,FALSE,,,,,,,3,barco,Spanish,Sounds/spa_barco.mp3,2020-06-05_15h34.51.228,TranslationElicitation_eng-prolific,3.2.4,Win32,60,5d687a77edb39d00194f0a60,,1,0,98,1,1,97
,,,,,,,,,,,,,,,,,,,,,,,,,,,,,,,,,,,,,,,,,return,9.566999912,TREES,FALSE,,,,,,,3,barco,Spanish,Sounds/spa_barco.mp3,2020-06-05_15h34.51.228,TranslationElicitation_eng-prolific,3.2.4,Win32,60,5d687a77edb39d00194f0a60,9.566999912,1,0,98,1,1,97
,,,,,,,,,,,,,,,,,,,,,,,,,,,,,,,,,,,,,,,,,,,,,,,,,,,3,barco,Spanish,Sounds/spa_barco.mp3,2020-06-05_15h34.51.228,TranslationElicitation_eng-prolific,3.2.4,Win32,60,5d687a77edb39d00194f0a60,,1,0,98,1,1,97
,,,,,,,,,,,,,,,,,,,,,,,,,,,,,,,,,,,,,,,,,c,15.65199995,C,FALSE,,,,,,,102,ventana,Spanish,Sounds/spa_ventana.mp3,2020-06-05_15h34.51.228,TranslationElicitation_eng-prolific,3.2.4,Win32,60,5d687a77edb39d00194f0a60,,1,0,98,96,1,97
,,,,,,,,,,,,,,,,,,,,,,,,,,,,,,,,,,,,,,,,,o,15.76799989,CO,FALSE,,,,,,,102,ventana,Spanish,Sounds/spa_ventana.mp3,2020-06-05_15h34.51.228,TranslationElicitation_eng-prolific,3.2.4,Win32,60,5d687a77edb39d00194f0a60,,1,0,98,96,1,97
,,,,,,,,,,,,,,,,,,,,,,,,,,,,,,,,,,,,,,,,,w,15.81799984,COW,FALSE,,,,,,,102,ventana,Spanish,Sounds/spa_ventana.mp3,2020-06-05_15h34.51.228,TranslationElicitation_eng-prolific,3.2.4,Win32,60,5d687a77edb39d00194f0a60,,1,0,98,96,1,97
,,,,,,,,,,,,,,,,,,,,,,,,,,,,,,,,,,,,,,,,,s,16.00099993,COWS,FALSE,,,,,,,102,ventana,Spanish,Sounds/spa_ventana.mp3,2020-06-05_15h34.51.228,TranslationElicitation_eng-prolific,3.2.4,Win32,60,5d687a77edb39d00194f0a60,,1,0,98,96,1,97
,,,,,,,,,,,,,,,,,,,,,,,,,,,,,,,,,,,,,,,,,return,16.102,COWS,FALSE,,,,,,,102,ventana,Spanish,Sounds/spa_ventana.mp3,2020-06-05_15h34.51.228,TranslationElicitation_eng-prolific,3.2.4,Win32,60,5d687a77edb39d00194f0a60,16.102,1,0,98,96,1,97
,,,,,,,,,,,,,,,,,,,,,,,,,,,,,,,,,,,,,,,,,,,,,,,,,,,102,ventana,Spanish,Sounds/spa_ventana.mp3,2020-06-05_15h34.51.228,TranslationElicitation_eng-prolific,3.2.4,Win32,60,5d687a77edb39d00194f0a60,,1,0,98,96,1,97
,,,,,,,,,,,,,,,,,,,,,,,,,,,,,,,,,,,,,,,,,w,37.01900005,W,FALSE,,,,,,,7,bocadillo,Spanish,Sounds/spa_bocadillo.mp3,2020-06-05_15h34.51.228,TranslationElicitation_eng-prolific,3.2.4,Win32,60,5d687a77edb39d00194f0a60,,1,0,98,5,1,97
,,,,,,,,,,,,,,,,,,,,,,,,,,,,,,,,,,,,,,,,,i,37.08599997,WI,FALSE,,,,,,,7,bocadillo,Spanish,Sounds/spa_bocadillo.mp3,2020-06-05_15h34.51.228,TranslationElicitation_eng-prolific,3.2.4,Win32,60,5d687a77edb39d00194f0a60,,1,0,98,5,1,97
,,,,,,,,,,,,,,,,,,,,,,,,,,,,,,,,,,,,,,,,,n,37.18499994,WIN,FALSE,,,,,,,7,bocadillo,Spanish,Sounds/spa_bocadillo.mp3,2020-06-05_15h34.51.228,TranslationElicitation_eng-prolific,3.2.4,Win32,60,5d687a77edb39d00194f0a60,,1,0,98,5,1,97
,,,,,,,,,,,,,,,,,,,,,,,,,,,,,,,,,,,,,,,,,d,37.28499985,WIND,FALSE,,,,,,,7,bocadillo,Spanish,Sounds/spa_bocadillo.mp3,2020-06-05_15h34.51.228,TranslationElicitation_eng-prolific,3.2.4,Win32,60,5d687a77edb39d00194f0a60,,1,0,98,5,1,97
,,,,,,,,,,,,,,,,,,,,,,,,,,,,,,,,,,,,,,,,,m,37.61899996,WINDM,FALSE,,,,,,,7,bocadillo,Spanish,Sounds/spa_bocadillo.mp3,2020-06-05_15h34.51.228,TranslationElicitation_eng-prolific,3.2.4,Win32,60,5d687a77edb39d00194f0a60,,1,0,98,5,1,97
,,,,,,,,,,,,,,,,,,,,,,,,,,,,,,,,,,,,,,,,,i,37.73599982,WINDMI,FALSE,,,,,,,7,bocadillo,Spanish,Sounds/spa_bocadillo.mp3,2020-06-05_15h34.51.228,TranslationElicitation_eng-prolific,3.2.4,Win32,60,5d687a77edb39d00194f0a60,,1,0,98,5,1,97
,,,,,,,,,,,,,,,,,,,,,,,,,,,,,,,,,,,,,,,,,l,37.96899986,WINDMIL,FALSE,,,,,,,7,bocadillo,Spanish,Sounds/spa_bocadillo.mp3,2020-06-05_15h34.51.228,TranslationElicitation_eng-prolific,3.2.4,Win32,60,5d687a77edb39d00194f0a60,,1,0,98,5,1,97
,,,,,,,,,,,,,,,,,,,,,,,,,,,,,,,,,,,,,,,,,l,38.102,WINDMILL,FALSE,,,,,,,7,bocadillo,Spanish,Sounds/spa_bocadillo.mp3,2020-06-05_15h34.51.228,TranslationElicitation_eng-prolific,3.2.4,Win32,60,5d687a77edb39d00194f0a60,,1,0,98,5,1,97
,,,,,,,,,,,,,,,,,,,,,,,,,,,,,,,,,,,,,,,,,return,38.28499985,WINDMILL,FALSE,,,,,,,7,bocadillo,Spanish,Sounds/spa_bocadillo.mp3,2020-06-05_15h34.51.228,TranslationElicitation_eng-prolific,3.2.4,Win32,60,5d687a77edb39d00194f0a60,38.28499985,1,0,98,5,1,97
,,,,,,,,,,,,,,,,,,,,,,,,,,,,,,,,,,,,,,,,,,,,,,,,,,,7,bocadillo,Spanish,Sounds/spa_bocadillo.mp3,2020-06-05_15h34.51.228,TranslationElicitation_eng-prolific,3.2.4,Win32,60,5d687a77edb39d00194f0a60,,1,0,98,5,1,97
,,,,,,,,,,,,,,,,,,,,,,,,,,,,,,,,,,,,,,,,,l,2.865999937,L,FALSE,,,,,,,89,pluma,Spanish,Sounds/spa_pluma.mp3,2020-06-05_15h34.51.228,TranslationElicitation_eng-prolific,3.2.4,Win32,60,5d687a77edb39d00194f0a60,,1,0,98,84,1,97
,,,,,,,,,,,,,,,,,,,,,,,,,,,,,,,,,,,,,,,,,i,3.049999952,LI,FALSE,,,,,,,89,pluma,Spanish,Sounds/spa_pluma.mp3,2020-06-05_15h34.51.228,TranslationElicitation_eng-prolific,3.2.4,Win32,60,5d687a77edb39d00194f0a60,,1,0,98,84,1,97
,,,,,,,,,,,,,,,,,,,,,,,,,,,,,,,,,,,,,,,,,g,3.182999849,LIG,FALSE,,,,,,,89,pluma,Spanish,Sounds/spa_pluma.mp3,2020-06-05_15h34.51.228,TranslationElicitation_eng-prolific,3.2.4,Win32,60,5d687a77edb39d00194f0a60,,1,0,98,84,1,97
,,,,,,,,,,,,,,,,,,,,,,,,,,,,,,,,,,,,,,,,,h,3.23300004,LIGH,FALSE,,,,,,,89,pluma,Spanish,Sounds/spa_pluma.mp3,2020-06-05_15h34.51.228,TranslationElicitation_eng-prolific,3.2.4,Win32,60,5d687a77edb39d00194f0a60,,1,0,98,84,1,97
,,,,,,,,,,,,,,,,,,,,,,,,,,,,,,,,,,,,,,,,,t,3.366999865,LIGHT,FALSE,,,,,,,89,pluma,Spanish,Sounds/spa_pluma.mp3,2020-06-05_15h34.51.228,TranslationElicitation_eng-prolific,3.2.4,Win32,60,5d687a77edb39d00194f0a60,,1,0,98,84,1,97
,,,,,,,,,,,,,,,,,,,,,,,,,,,,,,,,,,,,,,,,,return,4.549999952,LIGHT,FALSE,,,,,,,89,pluma,Spanish,Sounds/spa_pluma.mp3,2020-06-05_15h34.51.228,TranslationElicitation_eng-prolific,3.2.4,Win32,60,5d687a77edb39d00194f0a60,4.549999952,1,0,98,84,1,97
,,,,,,,,,,,,,,,,,,,,,,,,,,,,,,,,,,,,,,,,,,,,,,,,,,,89,pluma,Spanish,Sounds/spa_pluma.mp3,2020-06-05_15h34.51.228,TranslationElicitation_eng-prolific,3.2.4,Win32,60,5d687a77edb39d00194f0a60,,1,0,98,84,1,97
,,,,,,,,,,,,,,,,,,,,,,,,,,,,,,,,,,,,,,,,,t,7.467000008,T,FALSE,,,,,,,55,leon,Spanish,Sounds/spa_leon.mp3,2020-06-05_15h34.51.228,TranslationElicitation_eng-prolific,3.2.4,Win32,60,5d687a77edb39d00194f0a60,,1,0,98,51,1,97
,,,,,,,,,,,,,,,,,,,,,,,,,,,,,,,,,,,,,,,,,o,7.549999952,TO,FALSE,,,,,,,55,leon,Spanish,Sounds/spa_leon.mp3,2020-06-05_15h34.51.228,TranslationElicitation_eng-prolific,3.2.4,Win32,60,5d687a77edb39d00194f0a60,,1,0,98,51,1,97
,,,,,,,,,,,,,,,,,,,,,,,,,,,,,,,,,,,,,,,,,r,7.649999857,TOR,FALSE,,,,,,,55,leon,Spanish,Sounds/spa_leon.mp3,2020-06-05_15h34.51.228,TranslationElicitation_eng-prolific,3.2.4,Win32,60,5d687a77edb39d00194f0a60,,1,0,98,51,1,97
,,,,,,,,,,,,,,,,,,,,,,,,,,,,,,,,,,,,,,,,,c,7.866999865,TORC,FALSE,,,,,,,55,leon,Spanish,Sounds/spa_leon.mp3,2020-06-05_15h34.51.228,TranslationElicitation_eng-prolific,3.2.4,Win32,60,5d687a77edb39d00194f0a60,,1,0,98,51,1,97
,,,,,,,,,,,,,,,,,,,,,,,,,,,,,,,,,,,,,,,,,h,7.950000048,TORCH,FALSE,,,,,,,55,leon,Spanish,Sounds/spa_leon.mp3,2020-06-05_15h34.51.228,TranslationElicitation_eng-prolific,3.2.4,Win32,60,5d687a77edb39d00194f0a60,,1,0,98,51,1,97
,,,,,,,,,,,,,,,,,,,,,,,,,,,,,,,,,,,,,,,,,return,9.55099988,TORCH,FALSE,,,,,,,55,leon,Spanish,Sounds/spa_leon.mp3,2020-06-05_15h34.51.228,TranslationElicitation_eng-prolific,3.2.4,Win32,60,5d687a77edb39d00194f0a60,9.55099988,1,0,98,51,1,97
,,,,,,,,,,,,,,,,,,,,,,,,,,,,,,,,,,,,,,,,,,,,,,,,,,,55,leon,Spanish,Sounds/spa_leon.mp3,2020-06-05_15h34.51.228,TranslationElicitation_eng-prolific,3.2.4,Win32,60,5d687a77edb39d00194f0a60,,1,0,98,51,1,97
,,,,,,,,,,,,,,,,,,,,,,,,,,,,,,,,,,,,,,,,,p,4.367000103,P,FALSE,,,,,,,13,buho,Spanish,Sounds/spa_buho.mp3,2020-06-05_15h34.51.228,TranslationElicitation_eng-prolific,3.2.4,Win32,60,5d687a77edb39d00194f0a60,,1,0,98,11,1,97
,,,,,,,,,,,,,,,,,,,,,,,,,,,,,,,,,,,,,,,,,i,4.549999952,PI,FALSE,,,,,,,13,buho,Spanish,Sounds/spa_buho.mp3,2020-06-05_15h34.51.228,TranslationElicitation_eng-prolific,3.2.4,Win32,60,5d687a77edb39d00194f0a60,,1,0,98,11,1,97
,,,,,,,,,,,,,,,,,,,,,,,,,,,,,,,,,,,,,,,,,g,4.63499999,PIG,FALSE,,,,,,,13,buho,Spanish,Sounds/spa_buho.mp3,2020-06-05_15h34.51.228,TranslationElicitation_eng-prolific,3.2.4,Win32,60,5d687a77edb39d00194f0a60,,1,0,98,11,1,97
,,,,,,,,,,,,,,,,,,,,,,,,,,,,,,,,,,,,,,,,,return,4.967000008,PIG,FALSE,,,,,,,13,buho,Spanish,Sounds/spa_buho.mp3,2020-06-05_15h34.51.228,TranslationElicitation_eng-prolific,3.2.4,Win32,60,5d687a77edb39d00194f0a60,4.967000008,1,0,98,11,1,97
,,,,,,,,,,,,,,,,,,,,,,,,,,,,,,,,,,,,,,,,,,,,,,,,,,,13,buho,Spanish,Sounds/spa_buho.mp3,2020-06-05_15h34.51.228,TranslationElicitation_eng-prolific,3.2.4,Win32,60,5d687a77edb39d00194f0a60,,1,0,98,11,1,97
,,,,,,,,,,,,,,,,,,,,,,,,,,,,,,,,,,,,,,,,,e,5.950000048,E,FALSE,,,,,,,34,ensalada,Spanish,Sounds/spa_ensalada.mp3,2020-06-05_15h34.51.228,TranslationElicitation_eng-prolific,3.2.4,Win32,60,5d687a77edb39d00194f0a60,,1,0,98,30,1,97
,,,,,,,,,,,,,,,,,,,,,,,,,,,,,,,,,,,,,,,,,n,6.032999992,EN,FALSE,,,,,,,34,ensalada,Spanish,Sounds/spa_ensalada.mp3,2020-06-05_15h34.51.228,TranslationElicitation_eng-prolific,3.2.4,Win32,60,5d687a77edb39d00194f0a60,,1,0,98,30,1,97
,,,,,,,,,,,,,,,,,,,,,,,,,,,,,,,,,,,,,,,,,c,6.183000088,ENC,FALSE,,,,,,,34,ensalada,Spanish,Sounds/spa_ensalada.mp3,2020-06-05_15h34.51.228,TranslationElicitation_eng-prolific,3.2.4,Win32,60,5d687a77edb39d00194f0a60,,1,0,98,30,1,97
,,,,,,,,,,,,,,,,,,,,,,,,,,,,,,,,,,,,,,,,,h,6.282999992,ENCH,FALSE,,,,,,,34,ensalada,Spanish,Sounds/spa_ensalada.mp3,2020-06-05_15h34.51.228,TranslationElicitation_eng-prolific,3.2.4,Win32,60,5d687a77edb39d00194f0a60,,1,0,98,30,1,97
,,,,,,,,,,,,,,,,,,,,,,,,,,,,,,,,,,,,,,,,,a,6.384000063,ENCHA,FALSE,,,,,,,34,ensalada,Spanish,Sounds/spa_ensalada.mp3,2020-06-05_15h34.51.228,TranslationElicitation_eng-prolific,3.2.4,Win32,60,5d687a77edb39d00194f0a60,,1,0,98,30,1,97
,,,,,,,,,,,,,,,,,,,,,,,,,,,,,,,,,,,,,,,,,l,6.532999992,ENCHAL,FALSE,,,,,,,34,ensalada,Spanish,Sounds/spa_ensalada.mp3,2020-06-05_15h34.51.228,TranslationElicitation_eng-prolific,3.2.4,Win32,60,5d687a77edb39d00194f0a60,,1,0,98,30,1,97
,,,,,,,,,,,,,,,,,,,,,,,,,,,,,,,,,,,,,,,,,backspace,12.05100012,ENCHA,TRUE,,,,,,,34,ensalada,Spanish,Sounds/spa_ensalada.mp3,2020-06-05_15h34.51.228,TranslationElicitation_eng-prolific,3.2.4,Win32,60,5d687a77edb39d00194f0a60,,1,0,98,30,1,97
,,,,,,,,,,,,,,,,,,,,,,,,,,,,,,,,,,,,,,,,,backspace,12.55000019,ENCH,TRUE,,,,,,,34,ensalada,Spanish,Sounds/spa_ensalada.mp3,2020-06-05_15h34.51.228,TranslationElicitation_eng-prolific,3.2.4,Win32,60,5d687a77edb39d00194f0a60,,1,0,98,30,1,97
,,,,,,,,,,,,,,,,,,,,,,,,,,,,,,,,,,,,,,,,,backspace,12.58300018,ENC,TRUE,,,,,,,34,ensalada,Spanish,Sounds/spa_ensalada.mp3,2020-06-05_15h34.51.228,TranslationElicitation_eng-prolific,3.2.4,Win32,60,5d687a77edb39d00194f0a60,,1,0,98,30,1,97
,,,,,,,,,,,,,,,,,,,,,,,,,,,,,,,,,,,,,,,,,backspace,12.6170001,EN,TRUE,,,,,,,34,ensalada,Spanish,Sounds/spa_ensalada.mp3,2020-06-05_15h34.51.228,TranslationElicitation_eng-prolific,3.2.4,Win32,60,5d687a77edb39d00194f0a60,,1,0,98,30,1,97
,,,,,,,,,,,,,,,,,,,,,,,,,,,,,,,,,,,,,,,,,backspace,12.6500001,E,TRUE,,,,,,,34,ensalada,Spanish,Sounds/spa_ensalada.mp3,2020-06-05_15h34.51.228,TranslationElicitation_eng-prolific,3.2.4,Win32,60,5d687a77edb39d00194f0a60,,1,0,98,30,1,97
,,,,,,,,,,,,,,,,,,,,,,,,,,,,,,,,,,,,,,,,,backspace,12.68300009,,TRUE,,,,,,,34,ensalada,Spanish,Sounds/spa_ensalada.mp3,2020-06-05_15h34.51.228,TranslationElicitation_eng-prolific,3.2.4,Win32,60,5d687a77edb39d00194f0a60,,1,0,98,30,1,97
,,,,,,,,,,,,,,,,,,,,,,,,,,,,,,,,,,,,,,,,,backspace,12.71700001,,TRUE,,,,,,,34,ensalada,Spanish,Sounds/spa_ensalada.mp3,2020-06-05_15h34.51.228,TranslationElicitation_eng-prolific,3.2.4,Win32,60,5d687a77edb39d00194f0a60,,1,0,98,30,1,97
