consentKey.keys,consentKey.rt,languageL1Key.keys,languageL1Key.rt,languageL2,languageL2OralKey.keys,languageL2OralKey.rt,languageL2WrittenKey.keys,languageL2WrittenKey.rt,languageL3OralKey.keys,languageL3OralKey.rt,languageL3WrittenKey.keys,languageL3WrittenKey.rt,languageCatalanOralKey.keys,languageCatalanOralKey.rt,languageCatalanWrittenKey.keys,languageCatalanWrittenKey.rt,languageCatalanTimeKey.keys,languageCatalanTimeKey.rt,languageSpanishOralKey.keys,languageSpanishOralKey.rt,languageSpanishWrittenKey.keys,languageSpanishWrittenKey.rt,languageSpanishTimeKey.keys,languageSpanishTimeKey.rt,age,demoSexKey.keys,demoSexKey.rt,demoEducationKey.keys,demoEducationKey.rt,city,demoVisionKey.keys,demoVisionKey.rt,demoLanguageKey.keys,demoLanguageKey.rt,setupLocationKey.keys,setupLocationKey.rt,setupNoiseKey.keys,setupNoiseKey.rt,instructionsKeys.keys,instructionsKeys.rt,keyPressed,keyPressTime,inputText,error,trialsPracticeSpanish.thisRepN,trialsPracticeSpanish.thisTrialN,trialsPracticeSpanish.thisN,trialsPracticeSpanish.thisIndex,trialsPracticeSpanish.ran,trialsPracticeSpanish.order,trial_id,word,test_language,soundfile,date,expName,psychopyVersion,OS,frameRate,participant,trialOffset,trialsSpanish.thisRepN,trialsSpanish.thisTrialN,trialsSpanish.thisN,trialsSpanish.thisIndex,trialsSpanish.ran,trialsSpanish.order
space,0.940000057,e,5.80099988,,,,,,,,,,1,9.76699996,1,4.927999973,1,4.880000114,2,4.546999931,2,10.69799995,1,3.565999985,19,f,1.536000013,3,4.81400013,CAMBRIDGE,y,4.099999905,n,2.516000032,1,2.430000067,1,2.184000015,space,30.40299988,c,3.601000071,C,FALSE,1,0,5,1,1,4,30,corona,Spanish,Sounds/spa_corona.mp3,2020-06-05_12h47.53.140,TranslationElicitation_eng-prolific,3.2.4,MacIntel,60,5d6c21b0a9d20a0001de501b,,,,,,,
,,,,,,,,,,,,,,,,,,,,,,,,,,,,,,,,,,,,,,,,,o,3.78399992,CO,FALSE,1,0,5,1,1,4,30,corona,Spanish,Sounds/spa_corona.mp3,2020-06-05_12h47.53.140,TranslationElicitation_eng-prolific,3.2.4,MacIntel,60,5d6c21b0a9d20a0001de501b,,,,,,,
,,,,,,,,,,,,,,,,,,,,,,,,,,,,,,,,,,,,,,,,,r,3.950000048,COR,FALSE,1,0,5,1,1,4,30,corona,Spanish,Sounds/spa_corona.mp3,2020-06-05_12h47.53.140,TranslationElicitation_eng-prolific,3.2.4,MacIntel,60,5d6c21b0a9d20a0001de501b,,,,,,,
,,,,,,,,,,,,,,,,,,,,,,,,,,,,,,,,,,,,,,,,,o,4.134000063,CORO,FALSE,1,0,5,1,1,4,30,corona,Spanish,Sounds/spa_corona.mp3,2020-06-05_12h47.53.140,TranslationElicitation_eng-prolific,3.2.4,MacIntel,60,5d6c21b0a9d20a0001de501b,,,,,,,
,,,,,,,,,,,,,,,,,,,,,,,,,,,,,,,,,,,,,,,,,n,4.934000015,CORON,FALSE,1,0,5,1,1,4,30,corona,Spanish,Sounds/spa_corona.mp3,2020-06-05_12h47.53.140,TranslationElicitation_eng-prolific,3.2.4,MacIntel,60,5d6c21b0a9d20a0001de501b,,,,,,,
,,,,,,,,,,,,,,,,,,,,,,,,,,,,,,,,,,,,,,,,,a,5.068000078,CORONA,FALSE,1,0,5,1,1,4,30,corona,Spanish,Sounds/spa_corona.mp3,2020-06-05_12h47.53.140,TranslationElicitation_eng-prolific,3.2.4,MacIntel,60,5d6c21b0a9d20a0001de501b,,,,,,,
,,,,,,,,,,,,,,,,,,,,,,,,,,,,,,,,,,,,,,,,,return,5.833999872,CORONA,FALSE,1,0,5,1,1,4,30,corona,Spanish,Sounds/spa_corona.mp3,2020-06-05_12h47.53.140,TranslationElicitation_eng-prolific,3.2.4,MacIntel,60,5d6c21b0a9d20a0001de501b,5.833999872,,,,,,
,,,,,,,,,,,,,,,,,,,,,,,,,,,,,,,,,,,,,,,,,,,,,1,0,5,1,1,4,30,corona,Spanish,Sounds/spa_corona.mp3,2020-06-05_12h47.53.140,TranslationElicitation_eng-prolific,3.2.4,MacIntel,60,5d6c21b0a9d20a0001de501b,,,,,,,
,,,,,,,,,,,,,,,,,,,,,,,,,,,,,,,,,,,,,,,,,t,1.782999992,T,FALSE,1,0,5,4,1,4,96,tigre,Spanish,Sounds/spa_tigre.mp3,2020-06-05_12h47.53.140,TranslationElicitation_eng-prolific,3.2.4,MacIntel,60,5d6c21b0a9d20a0001de501b,,,,,,,
,,,,,,,,,,,,,,,,,,,,,,,,,,,,,,,,,,,,,,,,,i,2.01699996,TI,FALSE,1,0,5,4,1,4,96,tigre,Spanish,Sounds/spa_tigre.mp3,2020-06-05_12h47.53.140,TranslationElicitation_eng-prolific,3.2.4,MacIntel,60,5d6c21b0a9d20a0001de501b,,,,,,,
,,,,,,,,,,,,,,,,,,,,,,,,,,,,,,,,,,,,,,,,,g,2.200000048,TIG,FALSE,1,0,5,4,1,4,96,tigre,Spanish,Sounds/spa_tigre.mp3,2020-06-05_12h47.53.140,TranslationElicitation_eng-prolific,3.2.4,MacIntel,60,5d6c21b0a9d20a0001de501b,,,,,,,
,,,,,,,,,,,,,,,,,,,,,,,,,,,,,,,,,,,,,,,,,r,2.417000055,TIGR,FALSE,1,0,5,4,1,4,96,tigre,Spanish,Sounds/spa_tigre.mp3,2020-06-05_12h47.53.140,TranslationElicitation_eng-prolific,3.2.4,MacIntel,60,5d6c21b0a9d20a0001de501b,,,,,,,
,,,,,,,,,,,,,,,,,,,,,,,,,,,,,,,,,,,,,,,,,e,2.667000055,TIGRE,FALSE,1,0,5,4,1,4,96,tigre,Spanish,Sounds/spa_tigre.mp3,2020-06-05_12h47.53.140,TranslationElicitation_eng-prolific,3.2.4,MacIntel,60,5d6c21b0a9d20a0001de501b,,,,,,,
,,,,,,,,,,,,,,,,,,,,,,,,,,,,,,,,,,,,,,,,,return,3.334000111,TIGRE,FALSE,1,0,5,4,1,4,96,tigre,Spanish,Sounds/spa_tigre.mp3,2020-06-05_12h47.53.140,TranslationElicitation_eng-prolific,3.2.4,MacIntel,60,5d6c21b0a9d20a0001de501b,3.334000111,,,,,,
,,,,,,,,,,,,,,,,,,,,,,,,,,,,,,,,,,,,,,,,,,,,,1,0,5,4,1,4,96,tigre,Spanish,Sounds/spa_tigre.mp3,2020-06-05_12h47.53.140,TranslationElicitation_eng-prolific,3.2.4,MacIntel,60,5d6c21b0a9d20a0001de501b,,,,,,,
,,,,,,,,,,,,,,,,,,,,,,,,,,,,,,,,,,,,,,,,,h,2.148000002,H,FALSE,1,0,5,0,1,4,1,arbol,Spanish,Sounds/spa_arbol.mp3,2020-06-05_12h47.53.140,TranslationElicitation_eng-prolific,3.2.4,MacIntel,60,5d6c21b0a9d20a0001de501b,,,,,,,
,,,,,,,,,,,,,,,,,,,,,,,,,,,,,,,,,,,,,,,,,a,2.315000057,HA,FALSE,1,0,5,0,1,4,1,arbol,Spanish,Sounds/spa_arbol.mp3,2020-06-05_12h47.53.140,TranslationElicitation_eng-prolific,3.2.4,MacIntel,60,5d6c21b0a9d20a0001de501b,,,,,,,
,,,,,,,,,,,,,,,,,,,,,,,,,,,,,,,,,,,,,,,,,r,2.59800005,HAR,FALSE,1,0,5,0,1,4,1,arbol,Spanish,Sounds/spa_arbol.mp3,2020-06-05_12h47.53.140,TranslationElicitation_eng-prolific,3.2.4,MacIntel,60,5d6c21b0a9d20a0001de501b,,,,,,,
,,,,,,,,,,,,,,,,,,,,,,,,,,,,,,,,,,,,,,,,,o,2.86500001,HARO,FALSE,1,0,5,0,1,4,1,arbol,Spanish,Sounds/spa_arbol.mp3,2020-06-05_12h47.53.140,TranslationElicitation_eng-prolific,3.2.4,MacIntel,60,5d6c21b0a9d20a0001de501b,,,,,,,
,,,,,,,,,,,,,,,,,,,,,,,,,,,,,,,,,,,,,,,,,l,3.19900012,HAROL,FALSE,1,0,5,0,1,4,1,arbol,Spanish,Sounds/spa_arbol.mp3,2020-06-05_12h47.53.140,TranslationElicitation_eng-prolific,3.2.4,MacIntel,60,5d6c21b0a9d20a0001de501b,,,,,,,
,,,,,,,,,,,,,,,,,,,,,,,,,,,,,,,,,,,,,,,,,return,3.76699996,HAROL,FALSE,1,0,5,0,1,4,1,arbol,Spanish,Sounds/spa_arbol.mp3,2020-06-05_12h47.53.140,TranslationElicitation_eng-prolific,3.2.4,MacIntel,60,5d6c21b0a9d20a0001de501b,3.76699996,,,,,,
,,,,,,,,,,,,,,,,,,,,,,,,,,,,,,,,,,,,,,,,,,,,,1,0,5,0,1,4,1,arbol,Spanish,Sounds/spa_arbol.mp3,2020-06-05_12h47.53.140,TranslationElicitation_eng-prolific,3.2.4,MacIntel,60,5d6c21b0a9d20a0001de501b,,,,,,,
,,,,,,,,,,,,,,,,,,,,,,,,,,,,,,,,,,,,,,,,,h,1.348999977,H,FALSE,1,0,5,3,1,4,70,ola,Spanish,Sounds/spa_ola.mp3,2020-06-05_12h47.53.140,TranslationElicitation_eng-prolific,3.2.4,MacIntel,60,5d6c21b0a9d20a0001de501b,,,,,,,
,,,,,,,,,,,,,,,,,,,,,,,,,,,,,,,,,,,,,,,,,o,1.582999945,HO,FALSE,1,0,5,3,1,4,70,ola,Spanish,Sounds/spa_ola.mp3,2020-06-05_12h47.53.140,TranslationElicitation_eng-prolific,3.2.4,MacIntel,60,5d6c21b0a9d20a0001de501b,,,,,,,
,,,,,,,,,,,,,,,,,,,,,,,,,,,,,,,,,,,,,,,,,l,1.782999992,HOL,FALSE,1,0,5,3,1,4,70,ola,Spanish,Sounds/spa_ola.mp3,2020-06-05_12h47.53.140,TranslationElicitation_eng-prolific,3.2.4,MacIntel,60,5d6c21b0a9d20a0001de501b,,,,,,,
,,,,,,,,,,,,,,,,,,,,,,,,,,,,,,,,,,,,,,,,,a,1.950999975,HOLA,FALSE,1,0,5,3,1,4,70,ola,Spanish,Sounds/spa_ola.mp3,2020-06-05_12h47.53.140,TranslationElicitation_eng-prolific,3.2.4,MacIntel,60,5d6c21b0a9d20a0001de501b,,,,,,,
,,,,,,,,,,,,,,,,,,,,,,,,,,,,,,,,,,,,,,,,,return,2.23300004,HOLA,FALSE,1,0,5,3,1,4,70,ola,Spanish,Sounds/spa_ola.mp3,2020-06-05_12h47.53.140,TranslationElicitation_eng-prolific,3.2.4,MacIntel,60,5d6c21b0a9d20a0001de501b,2.23300004,,,,,,
,,,,,,,,,,,,,,,,,,,,,,,,,,,,,,,,,,,,,,,,,,,,,1,0,5,3,1,4,70,ola,Spanish,Sounds/spa_ola.mp3,2020-06-05_12h47.53.140,TranslationElicitation_eng-prolific,3.2.4,MacIntel,60,5d6c21b0a9d20a0001de501b,,,,,,,
,,,,,,,,,,,,,,,,,,,,,,,,,,,,,,,,,,,,,,,,,c,1.082999945,C,FALSE,1,0,5,2,1,4,26,chaqueta,Spanish,Sounds/spa_chaqueta.mp3,2020-06-05_12h47.53.140,TranslationElicitation_eng-prolific,3.2.4,MacIntel,60,5d6c21b0a9d20a0001de501b,,,,,,,
,,,,,,,,,,,,,,,,,,,,,,,,,,,,,,,,,,,,,,,,,h,1.25,CH,FALSE,1,0,5,2,1,4,26,chaqueta,Spanish,Sounds/spa_chaqueta.mp3,2020-06-05_12h47.53.140,TranslationElicitation_eng-prolific,3.2.4,MacIntel,60,5d6c21b0a9d20a0001de501b,,,,,,,
,,,,,,,,,,,,,,,,,,,,,,,,,,,,,,,,,,,,,,,,,a,1.367000103,CHA,FALSE,1,0,5,2,1,4,26,chaqueta,Spanish,Sounds/spa_chaqueta.mp3,2020-06-05_12h47.53.140,TranslationElicitation_eng-prolific,3.2.4,MacIntel,60,5d6c21b0a9d20a0001de501b,,,,,,,
,,,,,,,,,,,,,,,,,,,,,,,,,,,,,,,,,,,,,,,,,q,3.316999912,CHAQ,FALSE,1,0,5,2,1,4,26,chaqueta,Spanish,Sounds/spa_chaqueta.mp3,2020-06-05_12h47.53.140,TranslationElicitation_eng-prolific,3.2.4,MacIntel,60,5d6c21b0a9d20a0001de501b,,,,,,,
,,,,,,,,,,,,,,,,,,,,,,,,,,,,,,,,,,,,,,,,,u,3.46600008,CHAQU,FALSE,1,0,5,2,1,4,26,chaqueta,Spanish,Sounds/spa_chaqueta.mp3,2020-06-05_12h47.53.140,TranslationElicitation_eng-prolific,3.2.4,MacIntel,60,5d6c21b0a9d20a0001de501b,,,,,,,
,,,,,,,,,,,,,,,,,,,,,,,,,,,,,,,,,,,,,,,,,e,3.63499999,CHAQUE,FALSE,1,0,5,2,1,4,26,chaqueta,Spanish,Sounds/spa_chaqueta.mp3,2020-06-05_12h47.53.140,TranslationElicitation_eng-prolific,3.2.4,MacIntel,60,5d6c21b0a9d20a0001de501b,,,,,,,
,,,,,,,,,,,,,,,,,,,,,,,,,,,,,,,,,,,,,,,,,t,4.336999893,CHAQUET,FALSE,1,0,5,2,1,4,26,chaqueta,Spanish,Sounds/spa_chaqueta.mp3,2020-06-05_12h47.53.140,TranslationElicitation_eng-prolific,3.2.4,MacIntel,60,5d6c21b0a9d20a0001de501b,,,,,,,
,,,,,,,,,,,,,,,,,,,,,,,,,,,,,,,,,,,,,,,,,a,4.651000023,CHAQUETA,FALSE,1,0,5,2,1,4,26,chaqueta,Spanish,Sounds/spa_chaqueta.mp3,2020-06-05_12h47.53.140,TranslationElicitation_eng-prolific,3.2.4,MacIntel,60,5d6c21b0a9d20a0001de501b,,,,,,,
,,,,,,,,,,,,,,,,,,,,,,,,,,,,,,,,,,,,,,,,,return,4.984999895,CHAQUETA,FALSE,1,0,5,2,1,4,26,chaqueta,Spanish,Sounds/spa_chaqueta.mp3,2020-06-05_12h47.53.140,TranslationElicitation_eng-prolific,3.2.4,MacIntel,60,5d6c21b0a9d20a0001de501b,4.984999895,,,,,,
,,,,,,,,,,,,,,,,,,,,,,,,,,,,,,,,,,,,,,,,,,,,,1,0,5,2,1,4,26,chaqueta,Spanish,Sounds/spa_chaqueta.mp3,2020-06-05_12h47.53.140,TranslationElicitation_eng-prolific,3.2.4,MacIntel,60,5d6c21b0a9d20a0001de501b,,,,,,,
,,,,,,,,,,,,,,,,,,,,,,,,,,,,,,,,,,,,,,,,,n,2.534999847,N,FALSE,,,,,,,86,pingüino,Spanish,Sounds/spa_pinguino.mp3,2020-06-05_12h47.53.140,TranslationElicitation_eng-prolific,3.2.4,MacIntel,60,5d6c21b0a9d20a0001de501b,,1,0,98,81,1,97
,,,,,,,,,,,,,,,,,,,,,,,,,,,,,,,,,,,,,,,,,backspace,3.184000015,,TRUE,,,,,,,86,pingüino,Spanish,Sounds/spa_pinguino.mp3,2020-06-05_12h47.53.140,TranslationElicitation_eng-prolific,3.2.4,MacIntel,60,5d6c21b0a9d20a0001de501b,,1,0,98,81,1,97
,,,,,,,,,,,,,,,,,,,,,,,,,,,,,,,,,,,,,,,,,b,3.666999817,B,TRUE,,,,,,,86,pingüino,Spanish,Sounds/spa_pinguino.mp3,2020-06-05_12h47.53.140,TranslationElicitation_eng-prolific,3.2.4,MacIntel,60,5d6c21b0a9d20a0001de501b,,1,0,98,81,1,97
,,,,,,,,,,,,,,,,,,,,,,,,,,,,,,,,,,,,,,,,,e,3.819000006,BE,TRUE,,,,,,,86,pingüino,Spanish,Sounds/spa_pinguino.mp3,2020-06-05_12h47.53.140,TranslationElicitation_eng-prolific,3.2.4,MacIntel,60,5d6c21b0a9d20a0001de501b,,1,0,98,81,1,97
,,,,,,,,,,,,,,,,,,,,,,,,,,,,,,,,,,,,,,,,,n,3.950999975,BEN,TRUE,,,,,,,86,pingüino,Spanish,Sounds/spa_pinguino.mp3,2020-06-05_12h47.53.140,TranslationElicitation_eng-prolific,3.2.4,MacIntel,60,5d6c21b0a9d20a0001de501b,,1,0,98,81,1,97
,,,,,,,,,,,,,,,,,,,,,,,,,,,,,,,,,,,,,,,,,g,4.218999863,BENG,TRUE,,,,,,,86,pingüino,Spanish,Sounds/spa_pinguino.mp3,2020-06-05_12h47.53.140,TranslationElicitation_eng-prolific,3.2.4,MacIntel,60,5d6c21b0a9d20a0001de501b,,1,0,98,81,1,97
,,,,,,,,,,,,,,,,,,,,,,,,,,,,,,,,,,,,,,,,,u,4.41899991,BENGU,TRUE,,,,,,,86,pingüino,Spanish,Sounds/spa_pinguino.mp3,2020-06-05_12h47.53.140,TranslationElicitation_eng-prolific,3.2.4,MacIntel,60,5d6c21b0a9d20a0001de501b,,1,0,98,81,1,97
,,,,,,,,,,,,,,,,,,,,,,,,,,,,,,,,,,,,,,,,,i,4.601999998,BENGUI,TRUE,,,,,,,86,pingüino,Spanish,Sounds/spa_pinguino.mp3,2020-06-05_12h47.53.140,TranslationElicitation_eng-prolific,3.2.4,MacIntel,60,5d6c21b0a9d20a0001de501b,,1,0,98,81,1,97
,,,,,,,,,,,,,,,,,,,,,,,,,,,,,,,,,,,,,,,,,n,4.78399992,BENGUIN,TRUE,,,,,,,86,pingüino,Spanish,Sounds/spa_pinguino.mp3,2020-06-05_12h47.53.140,TranslationElicitation_eng-prolific,3.2.4,MacIntel,60,5d6c21b0a9d20a0001de501b,,1,0,98,81,1,97
,,,,,,,,,,,,,,,,,,,,,,,,,,,,,,,,,,,,,,,,,o,4.985999823,BENGUINO,TRUE,,,,,,,86,pingüino,Spanish,Sounds/spa_pinguino.mp3,2020-06-05_12h47.53.140,TranslationElicitation_eng-prolific,3.2.4,MacIntel,60,5d6c21b0a9d20a0001de501b,,1,0,98,81,1,97
,,,,,,,,,,,,,,,,,,,,,,,,,,,,,,,,,,,,,,,,,return,5.467000008,BENGUINO,TRUE,,,,,,,86,pingüino,Spanish,Sounds/spa_pinguino.mp3,2020-06-05_12h47.53.140,TranslationElicitation_eng-prolific,3.2.4,MacIntel,60,5d6c21b0a9d20a0001de501b,5.467000008,1,0,98,81,1,97
,,,,,,,,,,,,,,,,,,,,,,,,,,,,,,,,,,,,,,,,,,,,,,,,,,,86,pingüino,Spanish,Sounds/spa_pinguino.mp3,2020-06-05_12h47.53.140,TranslationElicitation_eng-prolific,3.2.4,MacIntel,60,5d6c21b0a9d20a0001de501b,,1,0,98,81,1,97
,,,,,,,,,,,,,,,,,,,,,,,,,,,,,,,,,,,,,,,,,n,1.299000025,N,FALSE,,,,,,,59,mano,Spanish,Sounds/spa_mano.mp3,2020-06-05_12h47.53.140,TranslationElicitation_eng-prolific,3.2.4,MacIntel,60,5d6c21b0a9d20a0001de501b,,1,0,98,55,1,97
,,,,,,,,,,,,,,,,,,,,,,,,,,,,,,,,,,,,,,,,,backspace,1.948999882,,TRUE,,,,,,,59,mano,Spanish,Sounds/spa_mano.mp3,2020-06-05_12h47.53.140,TranslationElicitation_eng-prolific,3.2.4,MacIntel,60,5d6c21b0a9d20a0001de501b,,1,0,98,55,1,97
,,,,,,,,,,,,,,,,,,,,,,,,,,,,,,,,,,,,,,,,,m,2.448999882,M,TRUE,,,,,,,59,mano,Spanish,Sounds/spa_mano.mp3,2020-06-05_12h47.53.140,TranslationElicitation_eng-prolific,3.2.4,MacIntel,60,5d6c21b0a9d20a0001de501b,,1,0,98,55,1,97
,,,,,,,,,,,,,,,,,,,,,,,,,,,,,,,,,,,,,,,,,a,2.565999985,MA,TRUE,,,,,,,59,mano,Spanish,Sounds/spa_mano.mp3,2020-06-05_12h47.53.140,TranslationElicitation_eng-prolific,3.2.4,MacIntel,60,5d6c21b0a9d20a0001de501b,,1,0,98,55,1,97
,,,,,,,,,,,,,,,,,,,,,,,,,,,,,,,,,,,,,,,,,n,2.698999882,MAN,TRUE,,,,,,,59,mano,Spanish,Sounds/spa_mano.mp3,2020-06-05_12h47.53.140,TranslationElicitation_eng-prolific,3.2.4,MacIntel,60,5d6c21b0a9d20a0001de501b,,1,0,98,55,1,97
,,,,,,,,,,,,,,,,,,,,,,,,,,,,,,,,,,,,,,,,,o,2.882999897,MANO,TRUE,,,,,,,59,mano,Spanish,Sounds/spa_mano.mp3,2020-06-05_12h47.53.140,TranslationElicitation_eng-prolific,3.2.4,MacIntel,60,5d6c21b0a9d20a0001de501b,,1,0,98,55,1,97
,,,,,,,,,,,,,,,,,,,,,,,,,,,,,,,,,,,,,,,,,return,3.200000048,MANO,TRUE,,,,,,,59,mano,Spanish,Sounds/spa_mano.mp3,2020-06-05_12h47.53.140,TranslationElicitation_eng-prolific,3.2.4,MacIntel,60,5d6c21b0a9d20a0001de501b,3.200000048,1,0,98,55,1,97
,,,,,,,,,,,,,,,,,,,,,,,,,,,,,,,,,,,,,,,,,,,,,,,,,,,59,mano,Spanish,Sounds/spa_mano.mp3,2020-06-05_12h47.53.140,TranslationElicitation_eng-prolific,3.2.4,MacIntel,60,5d6c21b0a9d20a0001de501b,,1,0,98,55,1,97
,,,,,,,,,,,,,,,,,,,,,,,,,,,,,,,,,,,,,,,,,u,1.414999962,U,FALSE,,,,,,,58,luna,Spanish,Sounds/spa_luna.mp3,2020-06-05_12h47.53.140,TranslationElicitation_eng-prolific,3.2.4,MacIntel,60,5d6c21b0a9d20a0001de501b,,1,0,98,54,1,97
,,,,,,,,,,,,,,,,,,,,,,,,,,,,,,,,,,,,,,,,,backspace,2.26699996,,TRUE,,,,,,,58,luna,Spanish,Sounds/spa_luna.mp3,2020-06-05_12h47.53.140,TranslationElicitation_eng-prolific,3.2.4,MacIntel,60,5d6c21b0a9d20a0001de501b,,1,0,98,54,1,97
,,,,,,,,,,,,,,,,,,,,,,,,,,,,,,,,,,,,,,,,,l,2.599999905,L,TRUE,,,,,,,58,luna,Spanish,Sounds/spa_luna.mp3,2020-06-05_12h47.53.140,TranslationElicitation_eng-prolific,3.2.4,MacIntel,60,5d6c21b0a9d20a0001de501b,,1,0,98,54,1,97
,,,,,,,,,,,,,,,,,,,,,,,,,,,,,,,,,,,,,,,,,u,2.94900012,LU,TRUE,,,,,,,58,luna,Spanish,Sounds/spa_luna.mp3,2020-06-05_12h47.53.140,TranslationElicitation_eng-prolific,3.2.4,MacIntel,60,5d6c21b0a9d20a0001de501b,,1,0,98,54,1,97
,,,,,,,,,,,,,,,,,,,,,,,,,,,,,,,,,,,,,,,,,n,3.166000128,LUN,TRUE,,,,,,,58,luna,Spanish,Sounds/spa_luna.mp3,2020-06-05_12h47.53.140,TranslationElicitation_eng-prolific,3.2.4,MacIntel,60,5d6c21b0a9d20a0001de501b,,1,0,98,54,1,97
,,,,,,,,,,,,,,,,,,,,,,,,,,,,,,,,,,,,,,,,,a,3.332999945,LUNA,TRUE,,,,,,,58,luna,Spanish,Sounds/spa_luna.mp3,2020-06-05_12h47.53.140,TranslationElicitation_eng-prolific,3.2.4,MacIntel,60,5d6c21b0a9d20a0001de501b,,1,0,98,54,1,97
,,,,,,,,,,,,,,,,,,,,,,,,,,,,,,,,,,,,,,,,,return,3.61500001,LUNA,TRUE,,,,,,,58,luna,Spanish,Sounds/spa_luna.mp3,2020-06-05_12h47.53.140,TranslationElicitation_eng-prolific,3.2.4,MacIntel,60,5d6c21b0a9d20a0001de501b,3.61500001,1,0,98,54,1,97
,,,,,,,,,,,,,,,,,,,,,,,,,,,,,,,,,,,,,,,,,,,,,,,,,,,58,luna,Spanish,Sounds/spa_luna.mp3,2020-06-05_12h47.53.140,TranslationElicitation_eng-prolific,3.2.4,MacIntel,60,5d6c21b0a9d20a0001de501b,,1,0,98,54,1,97
,,,,,,,,,,,,,,,,,,,,,,,,,,,,,,,,,,,,,,,,,p,1.167999983,P,FALSE,,,,,,,74,pajaro,Spanish,Sounds/spa_pajaro.mp3,2020-06-05_12h47.53.140,TranslationElicitation_eng-prolific,3.2.4,MacIntel,60,5d6c21b0a9d20a0001de501b,,1,0,98,69,1,97
,,,,,,,,,,,,,,,,,,,,,,,,,,,,,,,,,,,,,,,,,a,1.568000078,PA,FALSE,,,,,,,74,pajaro,Spanish,Sounds/spa_pajaro.mp3,2020-06-05_12h47.53.140,TranslationElicitation_eng-prolific,3.2.4,MacIntel,60,5d6c21b0a9d20a0001de501b,,1,0,98,69,1,97
,,,,,,,,,,,,,,,,,,,,,,,,,,,,,,,,,,,,,,,,,h,3.753000021,PAH,FALSE,,,,,,,74,pajaro,Spanish,Sounds/spa_pajaro.mp3,2020-06-05_12h47.53.140,TranslationElicitation_eng-prolific,3.2.4,MacIntel,60,5d6c21b0a9d20a0001de501b,,1,0,98,69,1,97
,,,,,,,,,,,,,,,,,,,,,,,,,,,,,,,,,,,,,,,,,a,6.051000118,PAHA,FALSE,,,,,,,74,pajaro,Spanish,Sounds/spa_pajaro.mp3,2020-06-05_12h47.53.140,TranslationElicitation_eng-prolific,3.2.4,MacIntel,60,5d6c21b0a9d20a0001de501b,,1,0,98,69,1,97
,,,,,,,,,,,,,,,,,,,,,,,,,,,,,,,,,,,,,,,,,r,6.984999895,PAHAR,FALSE,,,,,,,74,pajaro,Spanish,Sounds/spa_pajaro.mp3,2020-06-05_12h47.53.140,TranslationElicitation_eng-prolific,3.2.4,MacIntel,60,5d6c21b0a9d20a0001de501b,,1,0,98,69,1,97
,,,,,,,,,,,,,,,,,,,,,,,,,,,,,,,,,,,,,,,,,o,7.13499999,PAHARO,FALSE,,,,,,,74,pajaro,Spanish,Sounds/spa_pajaro.mp3,2020-06-05_12h47.53.140,TranslationElicitation_eng-prolific,3.2.4,MacIntel,60,5d6c21b0a9d20a0001de501b,,1,0,98,69,1,97
,,,,,,,,,,,,,,,,,,,,,,,,,,,,,,,,,,,,,,,,,return,8.835000038,PAHARO,FALSE,,,,,,,74,pajaro,Spanish,Sounds/spa_pajaro.mp3,2020-06-05_12h47.53.140,TranslationElicitation_eng-prolific,3.2.4,MacIntel,60,5d6c21b0a9d20a0001de501b,8.835000038,1,0,98,69,1,97
,,,,,,,,,,,,,,,,,,,,,,,,,,,,,,,,,,,,,,,,,,,,,,,,,,,74,pajaro,Spanish,Sounds/spa_pajaro.mp3,2020-06-05_12h47.53.140,TranslationElicitation_eng-prolific,3.2.4,MacIntel,60,5d6c21b0a9d20a0001de501b,,1,0,98,69,1,97
,,,,,,,,,,,,,,,,,,,,,,,,,,,,,,,,,,,,,,,,,m,1.667999983,M,FALSE,,,,,,,63,mesa,Spanish,Sounds/spa_mesa.mp3,2020-06-05_12h47.53.140,TranslationElicitation_eng-prolific,3.2.4,MacIntel,60,5d6c21b0a9d20a0001de501b,,1,0,98,59,1,97
,,,,,,,,,,,,,,,,,,,,,,,,,,,,,,,,,,,,,,,,,e,1.815999985,ME,FALSE,,,,,,,63,mesa,Spanish,Sounds/spa_mesa.mp3,2020-06-05_12h47.53.140,TranslationElicitation_eng-prolific,3.2.4,MacIntel,60,5d6c21b0a9d20a0001de501b,,1,0,98,59,1,97
,,,,,,,,,,,,,,,,,,,,,,,,,,,,,,,,,,,,,,,,,s,2.183000088,MES,FALSE,,,,,,,63,mesa,Spanish,Sounds/spa_mesa.mp3,2020-06-05_12h47.53.140,TranslationElicitation_eng-prolific,3.2.4,MacIntel,60,5d6c21b0a9d20a0001de501b,,1,0,98,59,1,97
,,,,,,,,,,,,,,,,,,,,,,,,,,,,,,,,,,,,,,,,,a,2.470000029,MESA,FALSE,,,,,,,63,mesa,Spanish,Sounds/spa_mesa.mp3,2020-06-05_12h47.53.140,TranslationElicitation_eng-prolific,3.2.4,MacIntel,60,5d6c21b0a9d20a0001de501b,,1,0,98,59,1,97
,,,,,,,,,,,,,,,,,,,,,,,,,,,,,,,,,,,,,,,,,return,2.867000103,MESA,FALSE,,,,,,,63,mesa,Spanish,Sounds/spa_mesa.mp3,2020-06-05_12h47.53.140,TranslationElicitation_eng-prolific,3.2.4,MacIntel,60,5d6c21b0a9d20a0001de501b,2.867000103,1,0,98,59,1,97
,,,,,,,,,,,,,,,,,,,,,,,,,,,,,,,,,,,,,,,,,,,,,,,,,,,63,mesa,Spanish,Sounds/spa_mesa.mp3,2020-06-05_12h47.53.140,TranslationElicitation_eng-prolific,3.2.4,MacIntel,60,5d6c21b0a9d20a0001de501b,,1,0,98,59,1,97
,,,,,,,,,,,,,,,,,,,,,,,,,,,,,,,,,,,,,,,,,p,1.697999954,P,FALSE,,,,,,,82,perro,Spanish,Sounds/spa_perro.mp3,2020-06-05_12h47.53.140,TranslationElicitation_eng-prolific,3.2.4,MacIntel,60,5d6c21b0a9d20a0001de501b,,1,0,98,77,1,97
,,,,,,,,,,,,,,,,,,,,,,,,,,,,,,,,,,,,,,,,,e,1.815000057,PE,FALSE,,,,,,,82,perro,Spanish,Sounds/spa_perro.mp3,2020-06-05_12h47.53.140,TranslationElicitation_eng-prolific,3.2.4,MacIntel,60,5d6c21b0a9d20a0001de501b,,1,0,98,77,1,97
,,,,,,,,,,,,,,,,,,,,,,,,,,,,,,,,,,,,,,,,,r,1.882999897,PER,FALSE,,,,,,,82,perro,Spanish,Sounds/spa_perro.mp3,2020-06-05_12h47.53.140,TranslationElicitation_eng-prolific,3.2.4,MacIntel,60,5d6c21b0a9d20a0001de501b,,1,0,98,77,1,97
,,,,,,,,,,,,,,,,,,,,,,,,,,,,,,,,,,,,,,,,,r,2.09800005,PERR,FALSE,,,,,,,82,perro,Spanish,Sounds/spa_perro.mp3,2020-06-05_12h47.53.140,TranslationElicitation_eng-prolific,3.2.4,MacIntel,60,5d6c21b0a9d20a0001de501b,,1,0,98,77,1,97
,,,,,,,,,,,,,,,,,,,,,,,,,,,,,,,,,,,,,,,,,o,2.316999912,PERRO,FALSE,,,,,,,82,perro,Spanish,Sounds/spa_perro.mp3,2020-06-05_12h47.53.140,TranslationElicitation_eng-prolific,3.2.4,MacIntel,60,5d6c21b0a9d20a0001de501b,,1,0,98,77,1,97
,,,,,,,,,,,,,,,,,,,,,,,,,,,,,,,,,,,,,,,,,return,3.621999979,PERRO,FALSE,,,,,,,82,perro,Spanish,Sounds/spa_perro.mp3,2020-06-05_12h47.53.140,TranslationElicitation_eng-prolific,3.2.4,MacIntel,60,5d6c21b0a9d20a0001de501b,3.621999979,1,0,98,77,1,97
,,,,,,,,,,,,,,,,,,,,,,,,,,,,,,,,,,,,,,,,,,,,,,,,,,,82,perro,Spanish,Sounds/spa_perro.mp3,2020-06-05_12h47.53.140,TranslationElicitation_eng-prolific,3.2.4,MacIntel,60,5d6c21b0a9d20a0001de501b,,1,0,98,77,1,97
,,,,,,,,,,,,,,,,,,,,,,,,,,,,,,,,,,,,,,,,,c,1.183000088,C,FALSE,,,,,,,15,caballo,Spanish,Sounds/spa_caballo.mp3,2020-06-05_12h47.53.140,TranslationElicitation_eng-prolific,3.2.4,MacIntel,60,5d6c21b0a9d20a0001de501b,,1,0,98,13,1,97
,,,,,,,,,,,,,,,,,,,,,,,,,,,,,,,,,,,,,,,,,a,1.399000168,CA,FALSE,,,,,,,15,caballo,Spanish,Sounds/spa_caballo.mp3,2020-06-05_12h47.53.140,TranslationElicitation_eng-prolific,3.2.4,MacIntel,60,5d6c21b0a9d20a0001de501b,,1,0,98,13,1,97
,,,,,,,,,,,,,,,,,,,,,,,,,,,,,,,,,,,,,,,,,b,1.616000175,CAB,FALSE,,,,,,,15,caballo,Spanish,Sounds/spa_caballo.mp3,2020-06-05_12h47.53.140,TranslationElicitation_eng-prolific,3.2.4,MacIntel,60,5d6c21b0a9d20a0001de501b,,1,0,98,13,1,97
,,,,,,,,,,,,,,,,,,,,,,,,,,,,,,,,,,,,,,,,,a,1.98300004,CABA,FALSE,,,,,,,15,caballo,Spanish,Sounds/spa_caballo.mp3,2020-06-05_12h47.53.140,TranslationElicitation_eng-prolific,3.2.4,MacIntel,60,5d6c21b0a9d20a0001de501b,,1,0,98,13,1,97
,,,,,,,,,,,,,,,,,,,,,,,,,,,,,,,,,,,,,,,,,y,2.416000128,CABAY,FALSE,,,,,,,15,caballo,Spanish,Sounds/spa_caballo.mp3,2020-06-05_12h47.53.140,TranslationElicitation_eng-prolific,3.2.4,MacIntel,60,5d6c21b0a9d20a0001de501b,,1,0,98,13,1,97
,,,,,,,,,,,,,,,,,,,,,,,,,,,,,,,,,,,,,,,,,o,3.070000172,CABAYO,FALSE,,,,,,,15,caballo,Spanish,Sounds/spa_caballo.mp3,2020-06-05_12h47.53.140,TranslationElicitation_eng-prolific,3.2.4,MacIntel,60,5d6c21b0a9d20a0001de501b,,1,0,98,13,1,97
,,,,,,,,,,,,,,,,,,,,,,,,,,,,,,,,,,,,,,,,,return,3.518000126,CABAYO,FALSE,,,,,,,15,caballo,Spanish,Sounds/spa_caballo.mp3,2020-06-05_12h47.53.140,TranslationElicitation_eng-prolific,3.2.4,MacIntel,60,5d6c21b0a9d20a0001de501b,3.518000126,1,0,98,13,1,97
,,,,,,,,,,,,,,,,,,,,,,,,,,,,,,,,,,,,,,,,,,,,,,,,,,,15,caballo,Spanish,Sounds/spa_caballo.mp3,2020-06-05_12h47.53.140,TranslationElicitation_eng-prolific,3.2.4,MacIntel,60,5d6c21b0a9d20a0001de501b,,1,0,98,13,1,97
,,,,,,,,,,,,,,,,,,,,,,,,,,,,,,,,,,,,,,,,,a,1.399000168,A,FALSE,,,,,,,19,camiseta,Spanish,Sounds/spa_camiseta.mp3,2020-06-05_12h47.53.140,TranslationElicitation_eng-prolific,3.2.4,MacIntel,60,5d6c21b0a9d20a0001de501b,,1,0,98,17,1,97
,,,,,,,,,,,,,,,,,,,,,,,,,,,,,,,,,,,,,,,,,backspace,1.900000095,,TRUE,,,,,,,19,camiseta,Spanish,Sounds/spa_camiseta.mp3,2020-06-05_12h47.53.140,TranslationElicitation_eng-prolific,3.2.4,MacIntel,60,5d6c21b0a9d20a0001de501b,,1,0,98,17,1,97
,,,,,,,,,,,,,,,,,,,,,,,,,,,,,,,,,,,,,,,,,c,2.067000151,C,TRUE,,,,,,,19,camiseta,Spanish,Sounds/spa_camiseta.mp3,2020-06-05_12h47.53.140,TranslationElicitation_eng-prolific,3.2.4,MacIntel,60,5d6c21b0a9d20a0001de501b,,1,0,98,17,1,97
,,,,,,,,,,,,,,,,,,,,,,,,,,,,,,,,,,,,,,,,,a,2.249000072,CA,TRUE,,,,,,,19,camiseta,Spanish,Sounds/spa_camiseta.mp3,2020-06-05_12h47.53.140,TranslationElicitation_eng-prolific,3.2.4,MacIntel,60,5d6c21b0a9d20a0001de501b,,1,0,98,17,1,97
,,,,,,,,,,,,,,,,,,,,,,,,,,,,,,,,,,,,,,,,,m,2.43200016,CAM,TRUE,,,,,,,19,camiseta,Spanish,Sounds/spa_camiseta.mp3,2020-06-05_12h47.53.140,TranslationElicitation_eng-prolific,3.2.4,MacIntel,60,5d6c21b0a9d20a0001de501b,,1,0,98,17,1,97
,,,,,,,,,,,,,,,,,,,,,,,,,,,,,,,,,,,,,,,,,i,2.866000175,CAMI,TRUE,,,,,,,19,camiseta,Spanish,Sounds/spa_camiseta.mp3,2020-06-05_12h47.53.140,TranslationElicitation_eng-prolific,3.2.4,MacIntel,60,5d6c21b0a9d20a0001de501b,,1,0,98,17,1,97
,,,,,,,,,,,,,,,,,,,,,,,,,,,,,,,,,,,,,,,,,s,3.183000088,CAMIS,TRUE,,,,,,,19,camiseta,Spanish,Sounds/spa_camiseta.mp3,2020-06-05_12h47.53.140,TranslationElicitation_eng-prolific,3.2.4,MacIntel,60,5d6c21b0a9d20a0001de501b,,1,0,98,17,1,97
,,,,,,,,,,,,,,,,,,,,,,,,,,,,,,,,,,,,,,,,,e,3.48300004,CAMISE,TRUE,,,,,,,19,camiseta,Spanish,Sounds/spa_camiseta.mp3,2020-06-05_12h47.53.140,TranslationElicitation_eng-prolific,3.2.4,MacIntel,60,5d6c21b0a9d20a0001de501b,,1,0,98,17,1,97
,,,,,,,,,,,,,,,,,,,,,,,,,,,,,,,,,,,,,,,,,t,3.734000206,CAMISET,TRUE,,,,,,,19,camiseta,Spanish,Sounds/spa_camiseta.mp3,2020-06-05_12h47.53.140,TranslationElicitation_eng-prolific,3.2.4,MacIntel,60,5d6c21b0a9d20a0001de501b,,1,0,98,17,1,97
,,,,,,,,,,,,,,,,,,,,,,,,,,,,,,,,,,,,,,,,,a,4,CAMISETA,TRUE,,,,,,,19,camiseta,Spanish,Sounds/spa_camiseta.mp3,2020-06-05_12h47.53.140,TranslationElicitation_eng-prolific,3.2.4,MacIntel,60,5d6c21b0a9d20a0001de501b,,1,0,98,17,1,97
,,,,,,,,,,,,,,,,,,,,,,,,,,,,,,,,,,,,,,,,,return,4.400000095,CAMISETA,TRUE,,,,,,,19,camiseta,Spanish,Sounds/spa_camiseta.mp3,2020-06-05_12h47.53.140,TranslationElicitation_eng-prolific,3.2.4,MacIntel,60,5d6c21b0a9d20a0001de501b,4.400000095,1,0,98,17,1,97
,,,,,,,,,,,,,,,,,,,,,,,,,,,,,,,,,,,,,,,,,,,,,,,,,,,19,camiseta,Spanish,Sounds/spa_camiseta.mp3,2020-06-05_12h47.53.140,TranslationElicitation_eng-prolific,3.2.4,MacIntel,60,5d6c21b0a9d20a0001de501b,,1,0,98,17,1,97
,,,,,,,,,,,,,,,,,,,,,,,,,,,,,,,,,,,,,,,,,c,1.401000023,C,FALSE,,,,,,,16,caja,Spanish,Sounds/spa_caja.mp3,2020-06-05_12h47.53.140,TranslationElicitation_eng-prolific,3.2.4,MacIntel,60,5d6c21b0a9d20a0001de501b,,1,0,98,14,1,97
,,,,,,,,,,,,,,,,,,,,,,,,,,,,,,,,,,,,,,,,,a,1.565999985,CA,FALSE,,,,,,,16,caja,Spanish,Sounds/spa_caja.mp3,2020-06-05_12h47.53.140,TranslationElicitation_eng-prolific,3.2.4,MacIntel,60,5d6c21b0a9d20a0001de501b,,1,0,98,14,1,97
,,,,,,,,,,,,,,,,,,,,,,,,,,,,,,,,,,,,,,,,,h,1.833000183,CAH,FALSE,,,,,,,16,caja,Spanish,Sounds/spa_caja.mp3,2020-06-05_12h47.53.140,TranslationElicitation_eng-prolific,3.2.4,MacIntel,60,5d6c21b0a9d20a0001de501b,,1,0,98,14,1,97
,,,,,,,,,,,,,,,,,,,,,,,,,,,,,,,,,,,,,,,,,a,2.032999992,CAHA,FALSE,,,,,,,16,caja,Spanish,Sounds/spa_caja.mp3,2020-06-05_12h47.53.140,TranslationElicitation_eng-prolific,3.2.4,MacIntel,60,5d6c21b0a9d20a0001de501b,,1,0,98,14,1,97
,,,,,,,,,,,,,,,,,,,,,,,,,,,,,,,,,,,,,,,,,backspace,3.718000174,CAH,TRUE,,,,,,,16,caja,Spanish,Sounds/spa_caja.mp3,2020-06-05_12h47.53.140,TranslationElicitation_eng-prolific,3.2.4,MacIntel,60,5d6c21b0a9d20a0001de501b,,1,0,98,14,1,97
,,,,,,,,,,,,,,,,,,,,,,,,,,,,,,,,,,,,,,,,,backspace,3.88499999,CA,TRUE,,,,,,,16,caja,Spanish,Sounds/spa_caja.mp3,2020-06-05_12h47.53.140,TranslationElicitation_eng-prolific,3.2.4,MacIntel,60,5d6c21b0a9d20a0001de501b,,1,0,98,14,1,97
,,,,,,,,,,,,,,,,,,,,,,,,,,,,,,,,,,,,,,,,,j,4.501000166,CAJ,TRUE,,,,,,,16,caja,Spanish,Sounds/spa_caja.mp3,2020-06-05_12h47.53.140,TranslationElicitation_eng-prolific,3.2.4,MacIntel,60,5d6c21b0a9d20a0001de501b,,1,0,98,14,1,97
,,,,,,,,,,,,,,,,,,,,,,,,,,,,,,,,,,,,,,,,,a,4.617000103,CAJA,TRUE,,,,,,,16,caja,Spanish,Sounds/spa_caja.mp3,2020-06-05_12h47.53.140,TranslationElicitation_eng-prolific,3.2.4,MacIntel,60,5d6c21b0a9d20a0001de501b,,1,0,98,14,1,97
,,,,,,,,,,,,,,,,,,,,,,,,,,,,,,,,,,,,,,,,,return,4.883000135,CAJA,TRUE,,,,,,,16,caja,Spanish,Sounds/spa_caja.mp3,2020-06-05_12h47.53.140,TranslationElicitation_eng-prolific,3.2.4,MacIntel,60,5d6c21b0a9d20a0001de501b,4.883000135,1,0,98,14,1,97
,,,,,,,,,,,,,,,,,,,,,,,,,,,,,,,,,,,,,,,,,,,,,,,,,,,16,caja,Spanish,Sounds/spa_caja.mp3,2020-06-05_12h47.53.140,TranslationElicitation_eng-prolific,3.2.4,MacIntel,60,5d6c21b0a9d20a0001de501b,,1,0,98,14,1,97
,,,,,,,,,,,,,,,,,,,,,,,,,,,,,,,,,,,,,,,,,h,1.232000113,H,FALSE,,,,,,,27,chocolate,Spanish,Sounds/spa_chocolate.mp3,2020-06-05_12h47.53.140,TranslationElicitation_eng-prolific,3.2.4,MacIntel,60,5d6c21b0a9d20a0001de501b,,1,0,98,24,1,97
,,,,,,,,,,,,,,,,,,,,,,,,,,,,,,,,,,,,,,,,,backspace,1.71600008,,TRUE,,,,,,,27,chocolate,Spanish,Sounds/spa_chocolate.mp3,2020-06-05_12h47.53.140,TranslationElicitation_eng-prolific,3.2.4,MacIntel,60,5d6c21b0a9d20a0001de501b,,1,0,98,24,1,97
,,,,,,,,,,,,,,,,,,,,,,,,,,,,,,,,,,,,,,,,,c,2.016000032,C,TRUE,,,,,,,27,chocolate,Spanish,Sounds/spa_chocolate.mp3,2020-06-05_12h47.53.140,TranslationElicitation_eng-prolific,3.2.4,MacIntel,60,5d6c21b0a9d20a0001de501b,,1,0,98,24,1,97
,,,,,,,,,,,,,,,,,,,,,,,,,,,,,,,,,,,,,,,,,h,2.232000113,CH,TRUE,,,,,,,27,chocolate,Spanish,Sounds/spa_chocolate.mp3,2020-06-05_12h47.53.140,TranslationElicitation_eng-prolific,3.2.4,MacIntel,60,5d6c21b0a9d20a0001de501b,,1,0,98,24,1,97
,,,,,,,,,,,,,,,,,,,,,,,,,,,,,,,,,,,,,,,,,o,2.848999977,CHO,TRUE,,,,,,,27,chocolate,Spanish,Sounds/spa_chocolate.mp3,2020-06-05_12h47.53.140,TranslationElicitation_eng-prolific,3.2.4,MacIntel,60,5d6c21b0a9d20a0001de501b,,1,0,98,24,1,97
,,,,,,,,,,,,,,,,,,,,,,,,,,,,,,,,,,,,,,,,,c,3.115999937,CHOC,TRUE,,,,,,,27,chocolate,Spanish,Sounds/spa_chocolate.mp3,2020-06-05_12h47.53.140,TranslationElicitation_eng-prolific,3.2.4,MacIntel,60,5d6c21b0a9d20a0001de501b,,1,0,98,24,1,97
,,,,,,,,,,,,,,,,,,,,,,,,,,,,,,,,,,,,,,,,,o,3.28399992,CHOCO,TRUE,,,,,,,27,chocolate,Spanish,Sounds/spa_chocolate.mp3,2020-06-05_12h47.53.140,TranslationElicitation_eng-prolific,3.2.4,MacIntel,60,5d6c21b0a9d20a0001de501b,,1,0,98,24,1,97
,,,,,,,,,,,,,,,,,,,,,,,,,,,,,,,,,,,,,,,,,l,3.532999992,CHOCOL,TRUE,,,,,,,27,chocolate,Spanish,Sounds/spa_chocolate.mp3,2020-06-05_12h47.53.140,TranslationElicitation_eng-prolific,3.2.4,MacIntel,60,5d6c21b0a9d20a0001de501b,,1,0,98,24,1,97
,,,,,,,,,,,,,,,,,,,,,,,,,,,,,,,,,,,,,,,,,a,3.648999929,CHOCOLA,TRUE,,,,,,,27,chocolate,Spanish,Sounds/spa_chocolate.mp3,2020-06-05_12h47.53.140,TranslationElicitation_eng-prolific,3.2.4,MacIntel,60,5d6c21b0a9d20a0001de501b,,1,0,98,24,1,97
,,,,,,,,,,,,,,,,,,,,,,,,,,,,,,,,,,,,,,,,,t,3.990999937,CHOCOLAT,TRUE,,,,,,,27,chocolate,Spanish,Sounds/spa_chocolate.mp3,2020-06-05_12h47.53.140,TranslationElicitation_eng-prolific,3.2.4,MacIntel,60,5d6c21b0a9d20a0001de501b,,1,0,98,24,1,97
,,,,,,,,,,,,,,,,,,,,,,,,,,,,,,,,,,,,,,,,,e,5.115999937,CHOCOLATE,TRUE,,,,,,,27,chocolate,Spanish,Sounds/spa_chocolate.mp3,2020-06-05_12h47.53.140,TranslationElicitation_eng-prolific,3.2.4,MacIntel,60,5d6c21b0a9d20a0001de501b,,1,0,98,24,1,97
,,,,,,,,,,,,,,,,,,,,,,,,,,,,,,,,,,,,,,,,,return,6.464999914,CHOCOLATE,TRUE,,,,,,,27,chocolate,Spanish,Sounds/spa_chocolate.mp3,2020-06-05_12h47.53.140,TranslationElicitation_eng-prolific,3.2.4,MacIntel,60,5d6c21b0a9d20a0001de501b,6.464999914,1,0,98,24,1,97
,,,,,,,,,,,,,,,,,,,,,,,,,,,,,,,,,,,,,,,,,,,,,,,,,,,27,chocolate,Spanish,Sounds/spa_chocolate.mp3,2020-06-05_12h47.53.140,TranslationElicitation_eng-prolific,3.2.4,MacIntel,60,5d6c21b0a9d20a0001de501b,,1,0,98,24,1,97
,,,,,,,,,,,,,,,,,,,,,,,,,,,,,,,,,,,,,,,,,c,1.94900012,C,FALSE,,,,,,,20,caracol,Spanish,Sounds/spa_caracol.mp3,2020-06-05_12h47.53.140,TranslationElicitation_eng-prolific,3.2.4,MacIntel,60,5d6c21b0a9d20a0001de501b,,1,0,98,18,1,97
,,,,,,,,,,,,,,,,,,,,,,,,,,,,,,,,,,,,,,,,,a,2.150000095,CA,FALSE,,,,,,,20,caracol,Spanish,Sounds/spa_caracol.mp3,2020-06-05_12h47.53.140,TranslationElicitation_eng-prolific,3.2.4,MacIntel,60,5d6c21b0a9d20a0001de501b,,1,0,98,18,1,97
,,,,,,,,,,,,,,,,,,,,,,,,,,,,,,,,,,,,,,,,,r,2.584000111,CAR,FALSE,,,,,,,20,caracol,Spanish,Sounds/spa_caracol.mp3,2020-06-05_12h47.53.140,TranslationElicitation_eng-prolific,3.2.4,MacIntel,60,5d6c21b0a9d20a0001de501b,,1,0,98,18,1,97
,,,,,,,,,,,,,,,,,,,,,,,,,,,,,,,,,,,,,,,,,a,2.985000134,CARA,FALSE,,,,,,,20,caracol,Spanish,Sounds/spa_caracol.mp3,2020-06-05_12h47.53.140,TranslationElicitation_eng-prolific,3.2.4,MacIntel,60,5d6c21b0a9d20a0001de501b,,1,0,98,18,1,97
,,,,,,,,,,,,,,,,,,,,,,,,,,,,,,,,,,,,,,,,,c,3.400000095,CARAC,FALSE,,,,,,,20,caracol,Spanish,Sounds/spa_caracol.mp3,2020-06-05_12h47.53.140,TranslationElicitation_eng-prolific,3.2.4,MacIntel,60,5d6c21b0a9d20a0001de501b,,1,0,98,18,1,97
,,,,,,,,,,,,,,,,,,,,,,,,,,,,,,,,,,,,,,,,,o,3.717999935,CARACO,FALSE,,,,,,,20,caracol,Spanish,Sounds/spa_caracol.mp3,2020-06-05_12h47.53.140,TranslationElicitation_eng-prolific,3.2.4,MacIntel,60,5d6c21b0a9d20a0001de501b,,1,0,98,18,1,97
,,,,,,,,,,,,,,,,,,,,,,,,,,,,,,,,,,,,,,,,,l,3.969000101,CARACOL,FALSE,,,,,,,20,caracol,Spanish,Sounds/spa_caracol.mp3,2020-06-05_12h47.53.140,TranslationElicitation_eng-prolific,3.2.4,MacIntel,60,5d6c21b0a9d20a0001de501b,,1,0,98,18,1,97
,,,,,,,,,,,,,,,,,,,,,,,,,,,,,,,,,,,,,,,,,e,4.134000063,CARACOLE,FALSE,,,,,,,20,caracol,Spanish,Sounds/spa_caracol.mp3,2020-06-05_12h47.53.140,TranslationElicitation_eng-prolific,3.2.4,MacIntel,60,5d6c21b0a9d20a0001de501b,,1,0,98,18,1,97
,,,,,,,,,,,,,,,,,,,,,,,,,,,,,,,,,,,,,,,,,return,4.832999945,CARACOLE,FALSE,,,,,,,20,caracol,Spanish,Sounds/spa_caracol.mp3,2020-06-05_12h47.53.140,TranslationElicitation_eng-prolific,3.2.4,MacIntel,60,5d6c21b0a9d20a0001de501b,4.832999945,1,0,98,18,1,97
,,,,,,,,,,,,,,,,,,,,,,,,,,,,,,,,,,,,,,,,,,,,,,,,,,,20,caracol,Spanish,Sounds/spa_caracol.mp3,2020-06-05_12h47.53.140,TranslationElicitation_eng-prolific,3.2.4,MacIntel,60,5d6c21b0a9d20a0001de501b,,1,0,98,18,1,97
,,,,,,,,,,,,,,,,,,,,,,,,,,,,,,,,,,,,,,,,,g,2.217000008,G,FALSE,,,,,,,44,gorrion,Spanish,Sounds/spa_gorrion.mp3,2020-06-05_12h47.53.140,TranslationElicitation_eng-prolific,3.2.4,MacIntel,60,5d6c21b0a9d20a0001de501b,,1,0,98,40,1,97
,,,,,,,,,,,,,,,,,,,,,,,,,,,,,,,,,,,,,,,,,o,2.434000015,GO,FALSE,,,,,,,44,gorrion,Spanish,Sounds/spa_gorrion.mp3,2020-06-05_12h47.53.140,TranslationElicitation_eng-prolific,3.2.4,MacIntel,60,5d6c21b0a9d20a0001de501b,,1,0,98,40,1,97
,,,,,,,,,,,,,,,,,,,,,,,,,,,,,,,,,,,,,,,,,r,2.582999945,GOR,FALSE,,,,,,,44,gorrion,Spanish,Sounds/spa_gorrion.mp3,2020-06-05_12h47.53.140,TranslationElicitation_eng-prolific,3.2.4,MacIntel,60,5d6c21b0a9d20a0001de501b,,1,0,98,40,1,97
,,,,,,,,,,,,,,,,,,,,,,,,,,,,,,,,,,,,,,,,,y,4.099999905,GORY,FALSE,,,,,,,44,gorrion,Spanish,Sounds/spa_gorrion.mp3,2020-06-05_12h47.53.140,TranslationElicitation_eng-prolific,3.2.4,MacIntel,60,5d6c21b0a9d20a0001de501b,,1,0,98,40,1,97
,,,,,,,,,,,,,,,,,,,,,,,,,,,,,,,,,,,,,,,,,o,4.367999792,GORYO,FALSE,,,,,,,44,gorrion,Spanish,Sounds/spa_gorrion.mp3,2020-06-05_12h47.53.140,TranslationElicitation_eng-prolific,3.2.4,MacIntel,60,5d6c21b0a9d20a0001de501b,,1,0,98,40,1,97
,,,,,,,,,,,,,,,,,,,,,,,,,,,,,,,,,,,,,,,,,n,4.616999865,GORYON,FALSE,,,,,,,44,gorrion,Spanish,Sounds/spa_gorrion.mp3,2020-06-05_12h47.53.140,TranslationElicitation_eng-prolific,3.2.4,MacIntel,60,5d6c21b0a9d20a0001de501b,,1,0,98,40,1,97
,,,,,,,,,,,,,,,,,,,,,,,,,,,,,,,,,,,,,,,,,return,6.284999847,GORYON,FALSE,,,,,,,44,gorrion,Spanish,Sounds/spa_gorrion.mp3,2020-06-05_12h47.53.140,TranslationElicitation_eng-prolific,3.2.4,MacIntel,60,5d6c21b0a9d20a0001de501b,6.284999847,1,0,98,40,1,97
,,,,,,,,,,,,,,,,,,,,,,,,,,,,,,,,,,,,,,,,,,,,,,,,,,,44,gorrion,Spanish,Sounds/spa_gorrion.mp3,2020-06-05_12h47.53.140,TranslationElicitation_eng-prolific,3.2.4,MacIntel,60,5d6c21b0a9d20a0001de501b,,1,0,98,40,1,97
,,,,,,,,,,,,,,,,,,,,,,,,,,,,,,,,,,,,,,,,,g,2.001000166,G,FALSE,,,,,,,45,gorro,Spanish,Sounds/spa_gorro.mp3,2020-06-05_12h47.53.140,TranslationElicitation_eng-prolific,3.2.4,MacIntel,60,5d6c21b0a9d20a0001de501b,,1,0,98,41,1,97
,,,,,,,,,,,,,,,,,,,,,,,,,,,,,,,,,,,,,,,,,o,2.150000095,GO,FALSE,,,,,,,45,gorro,Spanish,Sounds/spa_gorro.mp3,2020-06-05_12h47.53.140,TranslationElicitation_eng-prolific,3.2.4,MacIntel,60,5d6c21b0a9d20a0001de501b,,1,0,98,41,1,97
,,,,,,,,,,,,,,,,,,,,,,,,,,,,,,,,,,,,,,,,,r,2.315000057,GOR,FALSE,,,,,,,45,gorro,Spanish,Sounds/spa_gorro.mp3,2020-06-05_12h47.53.140,TranslationElicitation_eng-prolific,3.2.4,MacIntel,60,5d6c21b0a9d20a0001de501b,,1,0,98,41,1,97
,,,,,,,,,,,,,,,,,,,,,,,,,,,,,,,,,,,,,,,,,r,2.482000113,GORR,FALSE,,,,,,,45,gorro,Spanish,Sounds/spa_gorro.mp3,2020-06-05_12h47.53.140,TranslationElicitation_eng-prolific,3.2.4,MacIntel,60,5d6c21b0a9d20a0001de501b,,1,0,98,41,1,97
,,,,,,,,,,,,,,,,,,,,,,,,,,,,,,,,,,,,,,,,,o,3.098999977,GORRO,FALSE,,,,,,,45,gorro,Spanish,Sounds/spa_gorro.mp3,2020-06-05_12h47.53.140,TranslationElicitation_eng-prolific,3.2.4,MacIntel,60,5d6c21b0a9d20a0001de501b,,1,0,98,41,1,97
,,,,,,,,,,,,,,,,,,,,,,,,,,,,,,,,,,,,,,,,,return,3.381999969,GORRO,FALSE,,,,,,,45,gorro,Spanish,Sounds/spa_gorro.mp3,2020-06-05_12h47.53.140,TranslationElicitation_eng-prolific,3.2.4,MacIntel,60,5d6c21b0a9d20a0001de501b,3.381999969,1,0,98,41,1,97
,,,,,,,,,,,,,,,,,,,,,,,,,,,,,,,,,,,,,,,,,,,,,,,,,,,45,gorro,Spanish,Sounds/spa_gorro.mp3,2020-06-05_12h47.53.140,TranslationElicitation_eng-prolific,3.2.4,MacIntel,60,5d6c21b0a9d20a0001de501b,,1,0,98,41,1,97
,,,,,,,,,,,,,,,,,,,,,,,,,,,,,,,,,,,,,,,,,a,2.532999992,A,FALSE,,,,,,,49,hormiga,Spanish,Sounds/spa_hormiga.mp3,2020-06-05_12h47.53.140,TranslationElicitation_eng-prolific,3.2.4,MacIntel,60,5d6c21b0a9d20a0001de501b,,1,0,98,45,1,97
,,,,,,,,,,,,,,,,,,,,,,,,,,,,,,,,,,,,,,,,,m,2.849999905,AM,FALSE,,,,,,,49,hormiga,Spanish,Sounds/spa_hormiga.mp3,2020-06-05_12h47.53.140,TranslationElicitation_eng-prolific,3.2.4,MacIntel,60,5d6c21b0a9d20a0001de501b,,1,0,98,45,1,97
,,,,,,,,,,,,,,,,,,,,,,,,,,,,,,,,,,,,,,,,,i,3.632999897,AMI,FALSE,,,,,,,49,hormiga,Spanish,Sounds/spa_hormiga.mp3,2020-06-05_12h47.53.140,TranslationElicitation_eng-prolific,3.2.4,MacIntel,60,5d6c21b0a9d20a0001de501b,,1,0,98,45,1,97
,,,,,,,,,,,,,,,,,,,,,,,,,,,,,,,,,,,,,,,,,j,5.583999872,AMIJ,FALSE,,,,,,,49,hormiga,Spanish,Sounds/spa_hormiga.mp3,2020-06-05_12h47.53.140,TranslationElicitation_eng-prolific,3.2.4,MacIntel,60,5d6c21b0a9d20a0001de501b,,1,0,98,45,1,97
,,,,,,,,,,,,,,,,,,,,,,,,,,,,,,,,,,,,,,,,,a,5.665999889,AMIJA,FALSE,,,,,,,49,hormiga,Spanish,Sounds/spa_hormiga.mp3,2020-06-05_12h47.53.140,TranslationElicitation_eng-prolific,3.2.4,MacIntel,60,5d6c21b0a9d20a0001de501b,,1,0,98,45,1,97
,,,,,,,,,,,,,,,,,,,,,,,,,,,,,,,,,,,,,,,,,return,6.299999952,AMIJA,FALSE,,,,,,,49,hormiga,Spanish,Sounds/spa_hormiga.mp3,2020-06-05_12h47.53.140,TranslationElicitation_eng-prolific,3.2.4,MacIntel,60,5d6c21b0a9d20a0001de501b,6.299999952,1,0,98,45,1,97
,,,,,,,,,,,,,,,,,,,,,,,,,,,,,,,,,,,,,,,,,,,,,,,,,,,49,hormiga,Spanish,Sounds/spa_hormiga.mp3,2020-06-05_12h47.53.140,TranslationElicitation_eng-prolific,3.2.4,MacIntel,60,5d6c21b0a9d20a0001de501b,,1,0,98,45,1,97
,,,,,,,,,,,,,,,,,,,,,,,,,,,,,,,,,,,,,,,,,c,1.366999865,C,FALSE,,,,,,,31,cubo,Spanish,Sounds/spa_cubo.mp3,2020-06-05_12h47.53.140,TranslationElicitation_eng-prolific,3.2.4,MacIntel,60,5d6c21b0a9d20a0001de501b,,1,0,98,27,1,97
,,,,,,,,,,,,,,,,,,,,,,,,,,,,,,,,,,,,,,,,,o,1.766000032,CO,FALSE,,,,,,,31,cubo,Spanish,Sounds/spa_cubo.mp3,2020-06-05_12h47.53.140,TranslationElicitation_eng-prolific,3.2.4,MacIntel,60,5d6c21b0a9d20a0001de501b,,1,0,98,27,1,97
,,,,,,,,,,,,,,,,,,,,,,,,,,,,,,,,,,,,,,,,,r,2.90199995,COR,FALSE,,,,,,,31,cubo,Spanish,Sounds/spa_cubo.mp3,2020-06-05_12h47.53.140,TranslationElicitation_eng-prolific,3.2.4,MacIntel,60,5d6c21b0a9d20a0001de501b,,1,0,98,27,1,97
,,,,,,,,,,,,,,,,,,,,,,,,,,,,,,,,,,,,,,,,,o,3.049999952,CORO,FALSE,,,,,,,31,cubo,Spanish,Sounds/spa_cubo.mp3,2020-06-05_12h47.53.140,TranslationElicitation_eng-prolific,3.2.4,MacIntel,60,5d6c21b0a9d20a0001de501b,,1,0,98,27,1,97
,,,,,,,,,,,,,,,,,,,,,,,,,,,,,,,,,,,,,,,,,return,3.517999887,CORO,FALSE,,,,,,,31,cubo,Spanish,Sounds/spa_cubo.mp3,2020-06-05_12h47.53.140,TranslationElicitation_eng-prolific,3.2.4,MacIntel,60,5d6c21b0a9d20a0001de501b,3.517999887,1,0,98,27,1,97
,,,,,,,,,,,,,,,,,,,,,,,,,,,,,,,,,,,,,,,,,,,,,,,,,,,31,cubo,Spanish,Sounds/spa_cubo.mp3,2020-06-05_12h47.53.140,TranslationElicitation_eng-prolific,3.2.4,MacIntel,60,5d6c21b0a9d20a0001de501b,,1,0,98,27,1,97
,,,,,,,,,,,,,,,,,,,,,,,,,,,,,,,,,,,,,,,,,p,1.802000046,P,FALSE,,,,,,,78,pastel,Spanish,Sounds/spa_pastel.mp3,2020-06-05_12h47.53.140,TranslationElicitation_eng-prolific,3.2.4,MacIntel,60,5d6c21b0a9d20a0001de501b,,1,0,98,73,1,97
,,,,,,,,,,,,,,,,,,,,,,,,,,,,,,,,,,,,,,,,,a,1.951999903,PA,FALSE,,,,,,,78,pastel,Spanish,Sounds/spa_pastel.mp3,2020-06-05_12h47.53.140,TranslationElicitation_eng-prolific,3.2.4,MacIntel,60,5d6c21b0a9d20a0001de501b,,1,0,98,73,1,97
,,,,,,,,,,,,,,,,,,,,,,,,,,,,,,,,,,,,,,,,,s,2.217000008,PAS,FALSE,,,,,,,78,pastel,Spanish,Sounds/spa_pastel.mp3,2020-06-05_12h47.53.140,TranslationElicitation_eng-prolific,3.2.4,MacIntel,60,5d6c21b0a9d20a0001de501b,,1,0,98,73,1,97
,,,,,,,,,,,,,,,,,,,,,,,,,,,,,,,,,,,,,,,,,t,2.566999912,PAST,FALSE,,,,,,,78,pastel,Spanish,Sounds/spa_pastel.mp3,2020-06-05_12h47.53.140,TranslationElicitation_eng-prolific,3.2.4,MacIntel,60,5d6c21b0a9d20a0001de501b,,1,0,98,73,1,97
,,,,,,,,,,,,,,,,,,,,,,,,,,,,,,,,,,,,,,,,,e,2.782999992,PASTE,FALSE,,,,,,,78,pastel,Spanish,Sounds/spa_pastel.mp3,2020-06-05_12h47.53.140,TranslationElicitation_eng-prolific,3.2.4,MacIntel,60,5d6c21b0a9d20a0001de501b,,1,0,98,73,1,97
,,,,,,,,,,,,,,,,,,,,,,,,,,,,,,,,,,,,,,,,,l,3.252000093,PASTEL,FALSE,,,,,,,78,pastel,Spanish,Sounds/spa_pastel.mp3,2020-06-05_12h47.53.140,TranslationElicitation_eng-prolific,3.2.4,MacIntel,60,5d6c21b0a9d20a0001de501b,,1,0,98,73,1,97
,,,,,,,,,,,,,,,,,,,,,,,,,,,,,,,,,,,,,,,,,l,3.950000048,PASTELL,FALSE,,,,,,,78,pastel,Spanish,Sounds/spa_pastel.mp3,2020-06-05_12h47.53.140,TranslationElicitation_eng-prolific,3.2.4,MacIntel,60,5d6c21b0a9d20a0001de501b,,1,0,98,73,1,97
,,,,,,,,,,,,,,,,,,,,,,,,,,,,,,,,,,,,,,,,,e,5.052000046,PASTELLE,FALSE,,,,,,,78,pastel,Spanish,Sounds/spa_pastel.mp3,2020-06-05_12h47.53.140,TranslationElicitation_eng-prolific,3.2.4,MacIntel,60,5d6c21b0a9d20a0001de501b,,1,0,98,73,1,97
,,,,,,,,,,,,,,,,,,,,,,,,,,,,,,,,,,,,,,,,,return,6.834000111,PASTELLE,FALSE,,,,,,,78,pastel,Spanish,Sounds/spa_pastel.mp3,2020-06-05_12h47.53.140,TranslationElicitation_eng-prolific,3.2.4,MacIntel,60,5d6c21b0a9d20a0001de501b,6.834000111,1,0,98,73,1,97
,,,,,,,,,,,,,,,,,,,,,,,,,,,,,,,,,,,,,,,,,,,,,,,,,,,78,pastel,Spanish,Sounds/spa_pastel.mp3,2020-06-05_12h47.53.140,TranslationElicitation_eng-prolific,3.2.4,MacIntel,60,5d6c21b0a9d20a0001de501b,,1,0,98,73,1,97
,,,,,,,,,,,,,,,,,,,,,,,,,,,,,,,,,,,,,,,,,l,2.049999952,L,FALSE,,,,,,,52,lapiz,Spanish,Sounds/spa_lapiz.mp3,2020-06-05_12h47.53.140,TranslationElicitation_eng-prolific,3.2.4,MacIntel,60,5d6c21b0a9d20a0001de501b,,1,0,98,48,1,97
,,,,,,,,,,,,,,,,,,,,,,,,,,,,,,,,,,,,,,,,,a,2.199999809,LA,FALSE,,,,,,,52,lapiz,Spanish,Sounds/spa_lapiz.mp3,2020-06-05_12h47.53.140,TranslationElicitation_eng-prolific,3.2.4,MacIntel,60,5d6c21b0a9d20a0001de501b,,1,0,98,48,1,97
,,,,,,,,,,,,,,,,,,,,,,,,,,,,,,,,,,,,,,,,,p,2.434999943,LAP,FALSE,,,,,,,52,lapiz,Spanish,Sounds/spa_lapiz.mp3,2020-06-05_12h47.53.140,TranslationElicitation_eng-prolific,3.2.4,MacIntel,60,5d6c21b0a9d20a0001de501b,,1,0,98,48,1,97
,,,,,,,,,,,,,,,,,,,,,,,,,,,,,,,,,,,,,,,,,i,3.116999865,LAPI,FALSE,,,,,,,52,lapiz,Spanish,Sounds/spa_lapiz.mp3,2020-06-05_12h47.53.140,TranslationElicitation_eng-prolific,3.2.4,MacIntel,60,5d6c21b0a9d20a0001de501b,,1,0,98,48,1,97
,,,,,,,,,,,,,,,,,,,,,,,,,,,,,,,,,,,,,,,,,z,3.56799984,LAPIZ,FALSE,,,,,,,52,lapiz,Spanish,Sounds/spa_lapiz.mp3,2020-06-05_12h47.53.140,TranslationElicitation_eng-prolific,3.2.4,MacIntel,60,5d6c21b0a9d20a0001de501b,,1,0,98,48,1,97
,,,,,,,,,,,,,,,,,,,,,,,,,,,,,,,,,,,,,,,,,return,4.30099988,LAPIZ,FALSE,,,,,,,52,lapiz,Spanish,Sounds/spa_lapiz.mp3,2020-06-05_12h47.53.140,TranslationElicitation_eng-prolific,3.2.4,MacIntel,60,5d6c21b0a9d20a0001de501b,4.30099988,1,0,98,48,1,97
,,,,,,,,,,,,,,,,,,,,,,,,,,,,,,,,,,,,,,,,,,,,,,,,,,,52,lapiz,Spanish,Sounds/spa_lapiz.mp3,2020-06-05_12h47.53.140,TranslationElicitation_eng-prolific,3.2.4,MacIntel,60,5d6c21b0a9d20a0001de501b,,1,0,98,48,1,97
,,,,,,,,,,,,,,,,,,,,,,,,,,,,,,,,,,,,,,,,,c,1.167999983,C,FALSE,,,,,,,32,cuchara,Spanish,Sounds/spa_cuchara.mp3,2020-06-05_12h47.53.140,TranslationElicitation_eng-prolific,3.2.4,MacIntel,60,5d6c21b0a9d20a0001de501b,,1,0,98,28,1,97
,,,,,,,,,,,,,,,,,,,,,,,,,,,,,,,,,,,,,,,,,o,2.366999865,CO,FALSE,,,,,,,32,cuchara,Spanish,Sounds/spa_cuchara.mp3,2020-06-05_12h47.53.140,TranslationElicitation_eng-prolific,3.2.4,MacIntel,60,5d6c21b0a9d20a0001de501b,,1,0,98,28,1,97
,,,,,,,,,,,,,,,,,,,,,,,,,,,,,,,,,,,,,,,,,u,2.667000055,COU,FALSE,,,,,,,32,cuchara,Spanish,Sounds/spa_cuchara.mp3,2020-06-05_12h47.53.140,TranslationElicitation_eng-prolific,3.2.4,MacIntel,60,5d6c21b0a9d20a0001de501b,,1,0,98,28,1,97
,,,,,,,,,,,,,,,,,,,,,,,,,,,,,,,,,,,,,,,,,c,2.833999872,COUC,FALSE,,,,,,,32,cuchara,Spanish,Sounds/spa_cuchara.mp3,2020-06-05_12h47.53.140,TranslationElicitation_eng-prolific,3.2.4,MacIntel,60,5d6c21b0a9d20a0001de501b,,1,0,98,28,1,97
,,,,,,,,,,,,,,,,,,,,,,,,,,,,,,,,,,,,,,,,,h,2.983999968,COUCH,FALSE,,,,,,,32,cuchara,Spanish,Sounds/spa_cuchara.mp3,2020-06-05_12h47.53.140,TranslationElicitation_eng-prolific,3.2.4,MacIntel,60,5d6c21b0a9d20a0001de501b,,1,0,98,28,1,97
,,,,,,,,,,,,,,,,,,,,,,,,,,,,,,,,,,,,,,,,,a,3.200999975,COUCHA,FALSE,,,,,,,32,cuchara,Spanish,Sounds/spa_cuchara.mp3,2020-06-05_12h47.53.140,TranslationElicitation_eng-prolific,3.2.4,MacIntel,60,5d6c21b0a9d20a0001de501b,,1,0,98,28,1,97
,,,,,,,,,,,,,,,,,,,,,,,,,,,,,,,,,,,,,,,,,r,4.651000023,COUCHAR,FALSE,,,,,,,32,cuchara,Spanish,Sounds/spa_cuchara.mp3,2020-06-05_12h47.53.140,TranslationElicitation_eng-prolific,3.2.4,MacIntel,60,5d6c21b0a9d20a0001de501b,,1,0,98,28,1,97
,,,,,,,,,,,,,,,,,,,,,,,,,,,,,,,,,,,,,,,,,a,4.816999912,COUCHARA,FALSE,,,,,,,32,cuchara,Spanish,Sounds/spa_cuchara.mp3,2020-06-05_12h47.53.140,TranslationElicitation_eng-prolific,3.2.4,MacIntel,60,5d6c21b0a9d20a0001de501b,,1,0,98,28,1,97
,,,,,,,,,,,,,,,,,,,,,,,,,,,,,,,,,,,,,,,,,return,5.68599987,COUCHARA,FALSE,,,,,,,32,cuchara,Spanish,Sounds/spa_cuchara.mp3,2020-06-05_12h47.53.140,TranslationElicitation_eng-prolific,3.2.4,MacIntel,60,5d6c21b0a9d20a0001de501b,5.68599987,1,0,98,28,1,97
,,,,,,,,,,,,,,,,,,,,,,,,,,,,,,,,,,,,,,,,,,,,,,,,,,,32,cuchara,Spanish,Sounds/spa_cuchara.mp3,2020-06-05_12h47.53.140,TranslationElicitation_eng-prolific,3.2.4,MacIntel,60,5d6c21b0a9d20a0001de501b,,1,0,98,28,1,97
,,,,,,,,,,,,,,,,,,,,,,,,,,,,,,,,,,,,,,,,,l,1.700000048,L,FALSE,,,,,,,54,lengua,Spanish,Sounds/spa_lengua.mp3,2020-06-05_12h47.53.140,TranslationElicitation_eng-prolific,3.2.4,MacIntel,60,5d6c21b0a9d20a0001de501b,,1,0,98,50,1,97
,,,,,,,,,,,,,,,,,,,,,,,,,,,,,,,,,,,,,,,,,e,1.849999905,LE,FALSE,,,,,,,54,lengua,Spanish,Sounds/spa_lengua.mp3,2020-06-05_12h47.53.140,TranslationElicitation_eng-prolific,3.2.4,MacIntel,60,5d6c21b0a9d20a0001de501b,,1,0,98,50,1,97
,,,,,,,,,,,,,,,,,,,,,,,,,,,,,,,,,,,,,,,,,n,3.217000008,LEN,FALSE,,,,,,,54,lengua,Spanish,Sounds/spa_lengua.mp3,2020-06-05_12h47.53.140,TranslationElicitation_eng-prolific,3.2.4,MacIntel,60,5d6c21b0a9d20a0001de501b,,1,0,98,50,1,97
,,,,,,,,,,,,,,,,,,,,,,,,,,,,,,,,,,,,,,,,,g,3.484999895,LENG,FALSE,,,,,,,54,lengua,Spanish,Sounds/spa_lengua.mp3,2020-06-05_12h47.53.140,TranslationElicitation_eng-prolific,3.2.4,MacIntel,60,5d6c21b0a9d20a0001de501b,,1,0,98,50,1,97
,,,,,,,,,,,,,,,,,,,,,,,,,,,,,,,,,,,,,,,,,u,3.632999897,LENGU,FALSE,,,,,,,54,lengua,Spanish,Sounds/spa_lengua.mp3,2020-06-05_12h47.53.140,TranslationElicitation_eng-prolific,3.2.4,MacIntel,60,5d6c21b0a9d20a0001de501b,,1,0,98,50,1,97
,,,,,,,,,,,,,,,,,,,,,,,,,,,,,,,,,,,,,,,,,a,3.75,LENGUA,FALSE,,,,,,,54,lengua,Spanish,Sounds/spa_lengua.mp3,2020-06-05_12h47.53.140,TranslationElicitation_eng-prolific,3.2.4,MacIntel,60,5d6c21b0a9d20a0001de501b,,1,0,98,50,1,97
,,,,,,,,,,,,,,,,,,,,,,,,,,,,,,,,,,,,,,,,,return,4.285000086,LENGUA,FALSE,,,,,,,54,lengua,Spanish,Sounds/spa_lengua.mp3,2020-06-05_12h47.53.140,TranslationElicitation_eng-prolific,3.2.4,MacIntel,60,5d6c21b0a9d20a0001de501b,4.285000086,1,0,98,50,1,97
,,,,,,,,,,,,,,,,,,,,,,,,,,,,,,,,,,,,,,,,,,,,,,,,,,,54,lengua,Spanish,Sounds/spa_lengua.mp3,2020-06-05_12h47.53.140,TranslationElicitation_eng-prolific,3.2.4,MacIntel,60,5d6c21b0a9d20a0001de501b,,1,0,98,50,1,97
,,,,,,,,,,,,,,,,,,,,,,,,,,,,,,,,,,,,,,,,,c,1.86500001,C,FALSE,,,,,,,17,calcetin,Spanish,Sounds/spa_calcetin.mp3,2020-06-05_12h47.53.140,TranslationElicitation_eng-prolific,3.2.4,MacIntel,60,5d6c21b0a9d20a0001de501b,,1,0,98,15,1,97
,,,,,,,,,,,,,,,,,,,,,,,,,,,,,,,,,,,,,,,,,a,2.214999914,CA,FALSE,,,,,,,17,calcetin,Spanish,Sounds/spa_calcetin.mp3,2020-06-05_12h47.53.140,TranslationElicitation_eng-prolific,3.2.4,MacIntel,60,5d6c21b0a9d20a0001de501b,,1,0,98,15,1,97
,,,,,,,,,,,,,,,,,,,,,,,,,,,,,,,,,,,,,,,,,t,2.748999834,CAT,FALSE,,,,,,,17,calcetin,Spanish,Sounds/spa_calcetin.mp3,2020-06-05_12h47.53.140,TranslationElicitation_eng-prolific,3.2.4,MacIntel,60,5d6c21b0a9d20a0001de501b,,1,0,98,15,1,97
,,,,,,,,,,,,,,,,,,,,,,,,,,,,,,,,,,,,,,,,,h,2.982999802,CATH,FALSE,,,,,,,17,calcetin,Spanish,Sounds/spa_calcetin.mp3,2020-06-05_12h47.53.140,TranslationElicitation_eng-prolific,3.2.4,MacIntel,60,5d6c21b0a9d20a0001de501b,,1,0,98,15,1,97
,,,,,,,,,,,,,,,,,,,,,,,,,,,,,,,,,,,,,,,,,e,3.632999897,CATHE,FALSE,,,,,,,17,calcetin,Spanish,Sounds/spa_calcetin.mp3,2020-06-05_12h47.53.140,TranslationElicitation_eng-prolific,3.2.4,MacIntel,60,5d6c21b0a9d20a0001de501b,,1,0,98,15,1,97
,,,,,,,,,,,,,,,,,,,,,,,,,,,,,,,,,,,,,,,,,n,3.814999819,CATHEN,FALSE,,,,,,,17,calcetin,Spanish,Sounds/spa_calcetin.mp3,2020-06-05_12h47.53.140,TranslationElicitation_eng-prolific,3.2.4,MacIntel,60,5d6c21b0a9d20a0001de501b,,1,0,98,15,1,97
,,,,,,,,,,,,,,,,,,,,,,,,,,,,,,,,,,,,,,,,,t,4.268999815,CATHENT,FALSE,,,,,,,17,calcetin,Spanish,Sounds/spa_calcetin.mp3,2020-06-05_12h47.53.140,TranslationElicitation_eng-prolific,3.2.4,MacIntel,60,5d6c21b0a9d20a0001de501b,,1,0,98,15,1,97
,,,,,,,,,,,,,,,,,,,,,,,,,,,,,,,,,,,,,,,,,i,4.398999929,CATHENTI,FALSE,,,,,,,17,calcetin,Spanish,Sounds/spa_calcetin.mp3,2020-06-05_12h47.53.140,TranslationElicitation_eng-prolific,3.2.4,MacIntel,60,5d6c21b0a9d20a0001de501b,,1,0,98,15,1,97
,,,,,,,,,,,,,,,,,,,,,,,,,,,,,,,,,,,,,,,,,n,4.53399992,CATHENTIN,FALSE,,,,,,,17,calcetin,Spanish,Sounds/spa_calcetin.mp3,2020-06-05_12h47.53.140,TranslationElicitation_eng-prolific,3.2.4,MacIntel,60,5d6c21b0a9d20a0001de501b,,1,0,98,15,1,97
,,,,,,,,,,,,,,,,,,,,,,,,,,,,,,,,,,,,,,,,,e,4.714999914,CATHENTINE,FALSE,,,,,,,17,calcetin,Spanish,Sounds/spa_calcetin.mp3,2020-06-05_12h47.53.140,TranslationElicitation_eng-prolific,3.2.4,MacIntel,60,5d6c21b0a9d20a0001de501b,,1,0,98,15,1,97
,,,,,,,,,,,,,,,,,,,,,,,,,,,,,,,,,,,,,,,,,return,5.214999914,CATHENTINE,FALSE,,,,,,,17,calcetin,Spanish,Sounds/spa_calcetin.mp3,2020-06-05_12h47.53.140,TranslationElicitation_eng-prolific,3.2.4,MacIntel,60,5d6c21b0a9d20a0001de501b,5.214999914,1,0,98,15,1,97
,,,,,,,,,,,,,,,,,,,,,,,,,,,,,,,,,,,,,,,,,,,,,,,,,,,17,calcetin,Spanish,Sounds/spa_calcetin.mp3,2020-06-05_12h47.53.140,TranslationElicitation_eng-prolific,3.2.4,MacIntel,60,5d6c21b0a9d20a0001de501b,,1,0,98,15,1,97
,,,,,,,,,,,,,,,,,,,,,,,,,,,,,,,,,,,,,,,,,t,1.117000103,T,FALSE,,,,,,,95,tenedor,Spanish,Sounds/spa_tenedor.mp3,2020-06-05_12h47.53.140,TranslationElicitation_eng-prolific,3.2.4,MacIntel,60,5d6c21b0a9d20a0001de501b,,1,0,98,90,1,97
,,,,,,,,,,,,,,,,,,,,,,,,,,,,,,,,,,,,,,,,,e,1.366000175,TE,FALSE,,,,,,,95,tenedor,Spanish,Sounds/spa_tenedor.mp3,2020-06-05_12h47.53.140,TranslationElicitation_eng-prolific,3.2.4,MacIntel,60,5d6c21b0a9d20a0001de501b,,1,0,98,90,1,97
,,,,,,,,,,,,,,,,,,,,,,,,,,,,,,,,,,,,,,,,,n,1.532999992,TEN,FALSE,,,,,,,95,tenedor,Spanish,Sounds/spa_tenedor.mp3,2020-06-05_12h47.53.140,TranslationElicitation_eng-prolific,3.2.4,MacIntel,60,5d6c21b0a9d20a0001de501b,,1,0,98,90,1,97
,,,,,,,,,,,,,,,,,,,,,,,,,,,,,,,,,,,,,,,,,e,2.166000128,TENE,FALSE,,,,,,,95,tenedor,Spanish,Sounds/spa_tenedor.mp3,2020-06-05_12h47.53.140,TranslationElicitation_eng-prolific,3.2.4,MacIntel,60,5d6c21b0a9d20a0001de501b,,1,0,98,90,1,97
,,,,,,,,,,,,,,,,,,,,,,,,,,,,,,,,,,,,,,,,,d,2.617000103,TENED,FALSE,,,,,,,95,tenedor,Spanish,Sounds/spa_tenedor.mp3,2020-06-05_12h47.53.140,TranslationElicitation_eng-prolific,3.2.4,MacIntel,60,5d6c21b0a9d20a0001de501b,,1,0,98,90,1,97
,,,,,,,,,,,,,,,,,,,,,,,,,,,,,,,,,,,,,,,,,o,2.785000086,TENEDO,FALSE,,,,,,,95,tenedor,Spanish,Sounds/spa_tenedor.mp3,2020-06-05_12h47.53.140,TranslationElicitation_eng-prolific,3.2.4,MacIntel,60,5d6c21b0a9d20a0001de501b,,1,0,98,90,1,97
,,,,,,,,,,,,,,,,,,,,,,,,,,,,,,,,,,,,,,,,,r,2.933000088,TENEDOR,FALSE,,,,,,,95,tenedor,Spanish,Sounds/spa_tenedor.mp3,2020-06-05_12h47.53.140,TranslationElicitation_eng-prolific,3.2.4,MacIntel,60,5d6c21b0a9d20a0001de501b,,1,0,98,90,1,97
,,,,,,,,,,,,,,,,,,,,,,,,,,,,,,,,,,,,,,,,,return,3.394000053,TENEDOR,FALSE,,,,,,,95,tenedor,Spanish,Sounds/spa_tenedor.mp3,2020-06-05_12h47.53.140,TranslationElicitation_eng-prolific,3.2.4,MacIntel,60,5d6c21b0a9d20a0001de501b,3.394000053,1,0,98,90,1,97
,,,,,,,,,,,,,,,,,,,,,,,,,,,,,,,,,,,,,,,,,,,,,,,,,,,95,tenedor,Spanish,Sounds/spa_tenedor.mp3,2020-06-05_12h47.53.140,TranslationElicitation_eng-prolific,3.2.4,MacIntel,60,5d6c21b0a9d20a0001de501b,,1,0,98,90,1,97
,,,,,,,,,,,,,,,,,,,,,,,,,,,,,,,,,,,,,,,,,a,1.15199995,A,FALSE,,,,,,,18,camisa,Spanish,Sounds/spa_camisa.mp3,2020-06-05_12h47.53.140,TranslationElicitation_eng-prolific,3.2.4,MacIntel,60,5d6c21b0a9d20a0001de501b,,1,0,98,16,1,97
,,,,,,,,,,,,,,,,,,,,,,,,,,,,,,,,,,,,,,,,,m,1.299999952,AM,FALSE,,,,,,,18,camisa,Spanish,Sounds/spa_camisa.mp3,2020-06-05_12h47.53.140,TranslationElicitation_eng-prolific,3.2.4,MacIntel,60,5d6c21b0a9d20a0001de501b,,1,0,98,16,1,97
,,,,,,,,,,,,,,,,,,,,,,,,,,,,,,,,,,,,,,,,,i,1.634000063,AMI,FALSE,,,,,,,18,camisa,Spanish,Sounds/spa_camisa.mp3,2020-06-05_12h47.53.140,TranslationElicitation_eng-prolific,3.2.4,MacIntel,60,5d6c21b0a9d20a0001de501b,,1,0,98,16,1,97
,,,,,,,,,,,,,,,,,,,,,,,,,,,,,,,,,,,,,,,,,backspace,1.996999979,AM,TRUE,,,,,,,18,camisa,Spanish,Sounds/spa_camisa.mp3,2020-06-05_12h47.53.140,TranslationElicitation_eng-prolific,3.2.4,MacIntel,60,5d6c21b0a9d20a0001de501b,,1,0,98,16,1,97
,,,,,,,,,,,,,,,,,,,,,,,,,,,,,,,,,,,,,,,,,backspace,2.167000055,A,TRUE,,,,,,,18,camisa,Spanish,Sounds/spa_camisa.mp3,2020-06-05_12h47.53.140,TranslationElicitation_eng-prolific,3.2.4,MacIntel,60,5d6c21b0a9d20a0001de501b,,1,0,98,16,1,97
,,,,,,,,,,,,,,,,,,,,,,,,,,,,,,,,,,,,,,,,,backspace,2.316999912,,TRUE,,,,,,,18,camisa,Spanish,Sounds/spa_camisa.mp3,2020-06-05_12h47.53.140,TranslationElicitation_eng-prolific,3.2.4,MacIntel,60,5d6c21b0a9d20a0001de501b,,1,0,98,16,1,97
,,,,,,,,,,,,,,,,,,,,,,,,,,,,,,,,,,,,,,,,,backspace,2.467000008,,TRUE,,,,,,,18,camisa,Spanish,Sounds/spa_camisa.mp3,2020-06-05_12h47.53.140,TranslationElicitation_eng-prolific,3.2.4,MacIntel,60,5d6c21b0a9d20a0001de501b,,1,0,98,16,1,97
,,,,,,,,,,,,,,,,,,,,,,,,,,,,,,,,,,,,,,,,,c,2.650000095,C,TRUE,,,,,,,18,camisa,Spanish,Sounds/spa_camisa.mp3,2020-06-05_12h47.53.140,TranslationElicitation_eng-prolific,3.2.4,MacIntel,60,5d6c21b0a9d20a0001de501b,,1,0,98,16,1,97
,,,,,,,,,,,,,,,,,,,,,,,,,,,,,,,,,,,,,,,,,a,2.868999958,CA,TRUE,,,,,,,18,camisa,Spanish,Sounds/spa_camisa.mp3,2020-06-05_12h47.53.140,TranslationElicitation_eng-prolific,3.2.4,MacIntel,60,5d6c21b0a9d20a0001de501b,,1,0,98,16,1,97
,,,,,,,,,,,,,,,,,,,,,,,,,,,,,,,,,,,,,,,,,m,3.003000021,CAM,TRUE,,,,,,,18,camisa,Spanish,Sounds/spa_camisa.mp3,2020-06-05_12h47.53.140,TranslationElicitation_eng-prolific,3.2.4,MacIntel,60,5d6c21b0a9d20a0001de501b,,1,0,98,16,1,97
,,,,,,,,,,,,,,,,,,,,,,,,,,,,,,,,,,,,,,,,,i,3.700999975,CAMI,TRUE,,,,,,,18,camisa,Spanish,Sounds/spa_camisa.mp3,2020-06-05_12h47.53.140,TranslationElicitation_eng-prolific,3.2.4,MacIntel,60,5d6c21b0a9d20a0001de501b,,1,0,98,16,1,97
,,,,,,,,,,,,,,,,,,,,,,,,,,,,,,,,,,,,,,,,,t,4.03399992,CAMIT,TRUE,,,,,,,18,camisa,Spanish,Sounds/spa_camisa.mp3,2020-06-05_12h47.53.140,TranslationElicitation_eng-prolific,3.2.4,MacIntel,60,5d6c21b0a9d20a0001de501b,,1,0,98,16,1,97
,,,,,,,,,,,,,,,,,,,,,,,,,,,,,,,,,,,,,,,,,h,4.200999975,CAMITH,TRUE,,,,,,,18,camisa,Spanish,Sounds/spa_camisa.mp3,2020-06-05_12h47.53.140,TranslationElicitation_eng-prolific,3.2.4,MacIntel,60,5d6c21b0a9d20a0001de501b,,1,0,98,16,1,97
,,,,,,,,,,,,,,,,,,,,,,,,,,,,,,,,,,,,,,,,,a,4.453000069,CAMITHA,TRUE,,,,,,,18,camisa,Spanish,Sounds/spa_camisa.mp3,2020-06-05_12h47.53.140,TranslationElicitation_eng-prolific,3.2.4,MacIntel,60,5d6c21b0a9d20a0001de501b,,1,0,98,16,1,97
,,,,,,,,,,,,,,,,,,,,,,,,,,,,,,,,,,,,,,,,,return,5.16899991,CAMITHA,TRUE,,,,,,,18,camisa,Spanish,Sounds/spa_camisa.mp3,2020-06-05_12h47.53.140,TranslationElicitation_eng-prolific,3.2.4,MacIntel,60,5d6c21b0a9d20a0001de501b,5.16899991,1,0,98,16,1,97
,,,,,,,,,,,,,,,,,,,,,,,,,,,,,,,,,,,,,,,,,,,,,,,,,,,18,camisa,Spanish,Sounds/spa_camisa.mp3,2020-06-05_12h47.53.140,TranslationElicitation_eng-prolific,3.2.4,MacIntel,60,5d6c21b0a9d20a0001de501b,,1,0,98,16,1,97
,,,,,,,,,,,,,,,,,,,,,,,,,,,,,,,,,,,,,,,,,s,1.634000063,S,FALSE,,,,,,,92,sandwich,Spanish,Sounds/spa_sandwich.mp3,2020-06-05_12h47.53.140,TranslationElicitation_eng-prolific,3.2.4,MacIntel,60,5d6c21b0a9d20a0001de501b,,1,0,98,87,1,97
,,,,,,,,,,,,,,,,,,,,,,,,,,,,,,,,,,,,,,,,,a,1.915999889,SA,FALSE,,,,,,,92,sandwich,Spanish,Sounds/spa_sandwich.mp3,2020-06-05_12h47.53.140,TranslationElicitation_eng-prolific,3.2.4,MacIntel,60,5d6c21b0a9d20a0001de501b,,1,0,98,87,1,97
,,,,,,,,,,,,,,,,,,,,,,,,,,,,,,,,,,,,,,,,,n,2.082999945,SAN,FALSE,,,,,,,92,sandwich,Spanish,Sounds/spa_sandwich.mp3,2020-06-05_12h47.53.140,TranslationElicitation_eng-prolific,3.2.4,MacIntel,60,5d6c21b0a9d20a0001de501b,,1,0,98,87,1,97
,,,,,,,,,,,,,,,,,,,,,,,,,,,,,,,,,,,,,,,,,d,2.433000088,SAND,FALSE,,,,,,,92,sandwich,Spanish,Sounds/spa_sandwich.mp3,2020-06-05_12h47.53.140,TranslationElicitation_eng-prolific,3.2.4,MacIntel,60,5d6c21b0a9d20a0001de501b,,1,0,98,87,1,97
,,,,,,,,,,,,,,,,,,,,,,,,,,,,,,,,,,,,,,,,,w,2.75,SANDW,FALSE,,,,,,,92,sandwich,Spanish,Sounds/spa_sandwich.mp3,2020-06-05_12h47.53.140,TranslationElicitation_eng-prolific,3.2.4,MacIntel,60,5d6c21b0a9d20a0001de501b,,1,0,98,87,1,97
,,,,,,,,,,,,,,,,,,,,,,,,,,,,,,,,,,,,,,,,,i,2.950000048,SANDWI,FALSE,,,,,,,92,sandwich,Spanish,Sounds/spa_sandwich.mp3,2020-06-05_12h47.53.140,TranslationElicitation_eng-prolific,3.2.4,MacIntel,60,5d6c21b0a9d20a0001de501b,,1,0,98,87,1,97
,,,,,,,,,,,,,,,,,,,,,,,,,,,,,,,,,,,,,,,,,c,3.099999905,SANDWIC,FALSE,,,,,,,92,sandwich,Spanish,Sounds/spa_sandwich.mp3,2020-06-05_12h47.53.140,TranslationElicitation_eng-prolific,3.2.4,MacIntel,60,5d6c21b0a9d20a0001de501b,,1,0,98,87,1,97
,,,,,,,,,,,,,,,,,,,,,,,,,,,,,,,,,,,,,,,,,h,3.21600008,SANDWICH,FALSE,,,,,,,92,sandwich,Spanish,Sounds/spa_sandwich.mp3,2020-06-05_12h47.53.140,TranslationElicitation_eng-prolific,3.2.4,MacIntel,60,5d6c21b0a9d20a0001de501b,,1,0,98,87,1,97
,,,,,,,,,,,,,,,,,,,,,,,,,,,,,,,,,,,,,,,,,return,3.48300004,SANDWICH,FALSE,,,,,,,92,sandwich,Spanish,Sounds/spa_sandwich.mp3,2020-06-05_12h47.53.140,TranslationElicitation_eng-prolific,3.2.4,MacIntel,60,5d6c21b0a9d20a0001de501b,3.48300004,1,0,98,87,1,97
,,,,,,,,,,,,,,,,,,,,,,,,,,,,,,,,,,,,,,,,,,,,,,,,,,,92,sandwich,Spanish,Sounds/spa_sandwich.mp3,2020-06-05_12h47.53.140,TranslationElicitation_eng-prolific,3.2.4,MacIntel,60,5d6c21b0a9d20a0001de501b,,1,0,98,87,1,97
,,,,,,,,,,,,,,,,,,,,,,,,,,,,,,,,,,,,,,,,,m,1.233999968,M,FALSE,,,,,,,62,martillo,Spanish,Sounds/spa_martillo.mp3,2020-06-05_12h47.53.140,TranslationElicitation_eng-prolific,3.2.4,MacIntel,60,5d6c21b0a9d20a0001de501b,,1,0,98,58,1,97
,,,,,,,,,,,,,,,,,,,,,,,,,,,,,,,,,,,,,,,,,a,1.400000095,MA,FALSE,,,,,,,62,martillo,Spanish,Sounds/spa_martillo.mp3,2020-06-05_12h47.53.140,TranslationElicitation_eng-prolific,3.2.4,MacIntel,60,5d6c21b0a9d20a0001de501b,,1,0,98,58,1,97
,,,,,,,,,,,,,,,,,,,,,,,,,,,,,,,,,,,,,,,,,r,1.648999929,MAR,FALSE,,,,,,,62,martillo,Spanish,Sounds/spa_martillo.mp3,2020-06-05_12h47.53.140,TranslationElicitation_eng-prolific,3.2.4,MacIntel,60,5d6c21b0a9d20a0001de501b,,1,0,98,58,1,97
,,,,,,,,,,,,,,,,,,,,,,,,,,,,,,,,,,,,,,,,,t,2.184000015,MART,FALSE,,,,,,,62,martillo,Spanish,Sounds/spa_martillo.mp3,2020-06-05_12h47.53.140,TranslationElicitation_eng-prolific,3.2.4,MacIntel,60,5d6c21b0a9d20a0001de501b,,1,0,98,58,1,97
,,,,,,,,,,,,,,,,,,,,,,,,,,,,,,,,,,,,,,,,,i,2.368000031,MARTI,FALSE,,,,,,,62,martillo,Spanish,Sounds/spa_martillo.mp3,2020-06-05_12h47.53.140,TranslationElicitation_eng-prolific,3.2.4,MacIntel,60,5d6c21b0a9d20a0001de501b,,1,0,98,58,1,97
,,,,,,,,,,,,,,,,,,,,,,,,,,,,,,,,,,,,,,,,,y,2.549000025,MARTIY,FALSE,,,,,,,62,martillo,Spanish,Sounds/spa_martillo.mp3,2020-06-05_12h47.53.140,TranslationElicitation_eng-prolific,3.2.4,MacIntel,60,5d6c21b0a9d20a0001de501b,,1,0,98,58,1,97
,,,,,,,,,,,,,,,,,,,,,,,,,,,,,,,,,,,,,,,,,o,2.769999981,MARTIYO,FALSE,,,,,,,62,martillo,Spanish,Sounds/spa_martillo.mp3,2020-06-05_12h47.53.140,TranslationElicitation_eng-prolific,3.2.4,MacIntel,60,5d6c21b0a9d20a0001de501b,,1,0,98,58,1,97
,,,,,,,,,,,,,,,,,,,,,,,,,,,,,,,,,,,,,,,,,return,3.235000134,MARTIYO,FALSE,,,,,,,62,martillo,Spanish,Sounds/spa_martillo.mp3,2020-06-05_12h47.53.140,TranslationElicitation_eng-prolific,3.2.4,MacIntel,60,5d6c21b0a9d20a0001de501b,3.235000134,1,0,98,58,1,97
,,,,,,,,,,,,,,,,,,,,,,,,,,,,,,,,,,,,,,,,,,,,,,,,,,,62,martillo,Spanish,Sounds/spa_martillo.mp3,2020-06-05_12h47.53.140,TranslationElicitation_eng-prolific,3.2.4,MacIntel,60,5d6c21b0a9d20a0001de501b,,1,0,98,58,1,97
,,,,,,,,,,,,,,,,,,,,,,,,,,,,,,,,,,,,,,,,,l,1.898000002,L,FALSE,,,,,,,55,leon,Spanish,Sounds/spa_leon.mp3,2020-06-05_12h47.53.140,TranslationElicitation_eng-prolific,3.2.4,MacIntel,60,5d6c21b0a9d20a0001de501b,,1,0,98,51,1,97
,,,,,,,,,,,,,,,,,,,,,,,,,,,,,,,,,,,,,,,,,e,2.014999866,LE,FALSE,,,,,,,55,leon,Spanish,Sounds/spa_leon.mp3,2020-06-05_12h47.53.140,TranslationElicitation_eng-prolific,3.2.4,MacIntel,60,5d6c21b0a9d20a0001de501b,,1,0,98,51,1,97
,,,,,,,,,,,,,,,,,,,,,,,,,,,,,,,,,,,,,,,,,o,2.649999857,LEO,FALSE,,,,,,,55,leon,Spanish,Sounds/spa_leon.mp3,2020-06-05_12h47.53.140,TranslationElicitation_eng-prolific,3.2.4,MacIntel,60,5d6c21b0a9d20a0001de501b,,1,0,98,51,1,97
,,,,,,,,,,,,,,,,,,,,,,,,,,,,,,,,,,,,,,,,,n,2.898000002,LEON,FALSE,,,,,,,55,leon,Spanish,Sounds/spa_leon.mp3,2020-06-05_12h47.53.140,TranslationElicitation_eng-prolific,3.2.4,MacIntel,60,5d6c21b0a9d20a0001de501b,,1,0,98,51,1,97
,,,,,,,,,,,,,,,,,,,,,,,,,,,,,,,,,,,,,,,,,return,3.314999819,LEON,FALSE,,,,,,,55,leon,Spanish,Sounds/spa_leon.mp3,2020-06-05_12h47.53.140,TranslationElicitation_eng-prolific,3.2.4,MacIntel,60,5d6c21b0a9d20a0001de501b,3.314999819,1,0,98,51,1,97
,,,,,,,,,,,,,,,,,,,,,,,,,,,,,,,,,,,,,,,,,,,,,,,,,,,55,leon,Spanish,Sounds/spa_leon.mp3,2020-06-05_12h47.53.140,TranslationElicitation_eng-prolific,3.2.4,MacIntel,60,5d6c21b0a9d20a0001de501b,,1,0,98,51,1,97
,,,,,,,,,,,,,,,,,,,,,,,,,,,,,,,,,,,,,,,,,g,1.717000008,G,FALSE,,,,,,,42,gato,Spanish,Sounds/spa_gato.mp3,2020-06-05_12h47.53.140,TranslationElicitation_eng-prolific,3.2.4,MacIntel,60,5d6c21b0a9d20a0001de501b,,1,0,98,38,1,97
,,,,,,,,,,,,,,,,,,,,,,,,,,,,,,,,,,,,,,,,,a,1.867000103,GA,FALSE,,,,,,,42,gato,Spanish,Sounds/spa_gato.mp3,2020-06-05_12h47.53.140,TranslationElicitation_eng-prolific,3.2.4,MacIntel,60,5d6c21b0a9d20a0001de501b,,1,0,98,38,1,97
,,,,,,,,,,,,,,,,,,,,,,,,,,,,,,,,,,,,,,,,,t,2.13499999,GAT,FALSE,,,,,,,42,gato,Spanish,Sounds/spa_gato.mp3,2020-06-05_12h47.53.140,TranslationElicitation_eng-prolific,3.2.4,MacIntel,60,5d6c21b0a9d20a0001de501b,,1,0,98,38,1,97
,,,,,,,,,,,,,,,,,,,,,,,,,,,,,,,,,,,,,,,,,o,2.285000086,GATO,FALSE,,,,,,,42,gato,Spanish,Sounds/spa_gato.mp3,2020-06-05_12h47.53.140,TranslationElicitation_eng-prolific,3.2.4,MacIntel,60,5d6c21b0a9d20a0001de501b,,1,0,98,38,1,97
,,,,,,,,,,,,,,,,,,,,,,,,,,,,,,,,,,,,,,,,,return,2.550000191,GATO,FALSE,,,,,,,42,gato,Spanish,Sounds/spa_gato.mp3,2020-06-05_12h47.53.140,TranslationElicitation_eng-prolific,3.2.4,MacIntel,60,5d6c21b0a9d20a0001de501b,2.550000191,1,0,98,38,1,97
,,,,,,,,,,,,,,,,,,,,,,,,,,,,,,,,,,,,,,,,,,,,,,,,,,,42,gato,Spanish,Sounds/spa_gato.mp3,2020-06-05_12h47.53.140,TranslationElicitation_eng-prolific,3.2.4,MacIntel,60,5d6c21b0a9d20a0001de501b,,1,0,98,38,1,97
,,,,,,,,,,,,,,,,,,,,,,,,,,,,,,,,,,,,,,,,,l,1.30099988,L,FALSE,,,,,,,53,leche,Spanish,Sounds/spa_leche.mp3,2020-06-05_12h47.53.140,TranslationElicitation_eng-prolific,3.2.4,MacIntel,60,5d6c21b0a9d20a0001de501b,,1,0,98,49,1,97
,,,,,,,,,,,,,,,,,,,,,,,,,,,,,,,,,,,,,,,,,e,1.448999882,LE,FALSE,,,,,,,53,leche,Spanish,Sounds/spa_leche.mp3,2020-06-05_12h47.53.140,TranslationElicitation_eng-prolific,3.2.4,MacIntel,60,5d6c21b0a9d20a0001de501b,,1,0,98,49,1,97
,,,,,,,,,,,,,,,,,,,,,,,,,,,,,,,,,,,,,,,,,c,1.782999992,LEC,FALSE,,,,,,,53,leche,Spanish,Sounds/spa_leche.mp3,2020-06-05_12h47.53.140,TranslationElicitation_eng-prolific,3.2.4,MacIntel,60,5d6c21b0a9d20a0001de501b,,1,0,98,49,1,97
,,,,,,,,,,,,,,,,,,,,,,,,,,,,,,,,,,,,,,,,,h,1.932999849,LECH,FALSE,,,,,,,53,leche,Spanish,Sounds/spa_leche.mp3,2020-06-05_12h47.53.140,TranslationElicitation_eng-prolific,3.2.4,MacIntel,60,5d6c21b0a9d20a0001de501b,,1,0,98,49,1,97
,,,,,,,,,,,,,,,,,,,,,,,,,,,,,,,,,,,,,,,,,e,2.082999945,LECHE,FALSE,,,,,,,53,leche,Spanish,Sounds/spa_leche.mp3,2020-06-05_12h47.53.140,TranslationElicitation_eng-prolific,3.2.4,MacIntel,60,5d6c21b0a9d20a0001de501b,,1,0,98,49,1,97
,,,,,,,,,,,,,,,,,,,,,,,,,,,,,,,,,,,,,,,,,return,2.48300004,LECHE,FALSE,,,,,,,53,leche,Spanish,Sounds/spa_leche.mp3,2020-06-05_12h47.53.140,TranslationElicitation_eng-prolific,3.2.4,MacIntel,60,5d6c21b0a9d20a0001de501b,2.48300004,1,0,98,49,1,97
,,,,,,,,,,,,,,,,,,,,,,,,,,,,,,,,,,,,,,,,,,,,,,,,,,,53,leche,Spanish,Sounds/spa_leche.mp3,2020-06-05_12h47.53.140,TranslationElicitation_eng-prolific,3.2.4,MacIntel,60,5d6c21b0a9d20a0001de501b,,1,0,98,49,1,97
,,,,,,,,,,,,,,,,,,,,,,,,,,,,,,,,,,,,,,,,,p,1.51699996,P,FALSE,,,,,,,7,bocadillo,Spanish,Sounds/spa_bocadillo.mp3,2020-06-05_12h47.53.140,TranslationElicitation_eng-prolific,3.2.4,MacIntel,60,5d6c21b0a9d20a0001de501b,,1,0,98,5,1,97
,,,,,,,,,,,,,,,,,,,,,,,,,,,,,,,,,,,,,,,,,o,1.799999952,PO,FALSE,,,,,,,7,bocadillo,Spanish,Sounds/spa_bocadillo.mp3,2020-06-05_12h47.53.140,TranslationElicitation_eng-prolific,3.2.4,MacIntel,60,5d6c21b0a9d20a0001de501b,,1,0,98,5,1,97
,,,,,,,,,,,,,,,,,,,,,,,,,,,,,,,,,,,,,,,,,c,2.01699996,POC,FALSE,,,,,,,7,bocadillo,Spanish,Sounds/spa_bocadillo.mp3,2020-06-05_12h47.53.140,TranslationElicitation_eng-prolific,3.2.4,MacIntel,60,5d6c21b0a9d20a0001de501b,,1,0,98,5,1,97
,,,,,,,,,,,,,,,,,,,,,,,,,,,,,,,,,,,,,,,,,a,3,POCA,FALSE,,,,,,,7,bocadillo,Spanish,Sounds/spa_bocadillo.mp3,2020-06-05_12h47.53.140,TranslationElicitation_eng-prolific,3.2.4,MacIntel,60,5d6c21b0a9d20a0001de501b,,1,0,98,5,1,97
,,,,,,,,,,,,,,,,,,,,,,,,,,,,,,,,,,,,,,,,,backspace,4,POC,TRUE,,,,,,,7,bocadillo,Spanish,Sounds/spa_bocadillo.mp3,2020-06-05_12h47.53.140,TranslationElicitation_eng-prolific,3.2.4,MacIntel,60,5d6c21b0a9d20a0001de501b,,1,0,98,5,1,97
,,,,,,,,,,,,,,,,,,,,,,,,,,,,,,,,,,,,,,,,,backspace,4.166999817,PO,TRUE,,,,,,,7,bocadillo,Spanish,Sounds/spa_bocadillo.mp3,2020-06-05_12h47.53.140,TranslationElicitation_eng-prolific,3.2.4,MacIntel,60,5d6c21b0a9d20a0001de501b,,1,0,98,5,1,97
,,,,,,,,,,,,,,,,,,,,,,,,,,,,,,,,,,,,,,,,,backspace,4.332999945,P,TRUE,,,,,,,7,bocadillo,Spanish,Sounds/spa_bocadillo.mp3,2020-06-05_12h47.53.140,TranslationElicitation_eng-prolific,3.2.4,MacIntel,60,5d6c21b0a9d20a0001de501b,,1,0,98,5,1,97
,,,,,,,,,,,,,,,,,,,,,,,,,,,,,,,,,,,,,,,,,backspace,4.552999973,,TRUE,,,,,,,7,bocadillo,Spanish,Sounds/spa_bocadillo.mp3,2020-06-05_12h47.53.140,TranslationElicitation_eng-prolific,3.2.4,MacIntel,60,5d6c21b0a9d20a0001de501b,,1,0,98,5,1,97
,,,,,,,,,,,,,,,,,,,,,,,,,,,,,,,,,,,,,,,,,b,5.166999817,B,TRUE,,,,,,,7,bocadillo,Spanish,Sounds/spa_bocadillo.mp3,2020-06-05_12h47.53.140,TranslationElicitation_eng-prolific,3.2.4,MacIntel,60,5d6c21b0a9d20a0001de501b,,1,0,98,5,1,97
,,,,,,,,,,,,,,,,,,,,,,,,,,,,,,,,,,,,,,,,,o,5.451999903,BO,TRUE,,,,,,,7,bocadillo,Spanish,Sounds/spa_bocadillo.mp3,2020-06-05_12h47.53.140,TranslationElicitation_eng-prolific,3.2.4,MacIntel,60,5d6c21b0a9d20a0001de501b,,1,0,98,5,1,97
,,,,,,,,,,,,,,,,,,,,,,,,,,,,,,,,,,,,,,,,,c,5.666999817,BOC,TRUE,,,,,,,7,bocadillo,Spanish,Sounds/spa_bocadillo.mp3,2020-06-05_12h47.53.140,TranslationElicitation_eng-prolific,3.2.4,MacIntel,60,5d6c21b0a9d20a0001de501b,,1,0,98,5,1,97
,,,,,,,,,,,,,,,,,,,,,,,,,,,,,,,,,,,,,,,,,a,5.90199995,BOCA,TRUE,,,,,,,7,bocadillo,Spanish,Sounds/spa_bocadillo.mp3,2020-06-05_12h47.53.140,TranslationElicitation_eng-prolific,3.2.4,MacIntel,60,5d6c21b0a9d20a0001de501b,,1,0,98,5,1,97
,,,,,,,,,,,,,,,,,,,,,,,,,,,,,,,,,,,,,,,,,d,6.133999825,BOCAD,TRUE,,,,,,,7,bocadillo,Spanish,Sounds/spa_bocadillo.mp3,2020-06-05_12h47.53.140,TranslationElicitation_eng-prolific,3.2.4,MacIntel,60,5d6c21b0a9d20a0001de501b,,1,0,98,5,1,97
,,,,,,,,,,,,,,,,,,,,,,,,,,,,,,,,,,,,,,,,,i,6.393999815,BOCADI,TRUE,,,,,,,7,bocadillo,Spanish,Sounds/spa_bocadillo.mp3,2020-06-05_12h47.53.140,TranslationElicitation_eng-prolific,3.2.4,MacIntel,60,5d6c21b0a9d20a0001de501b,,1,0,98,5,1,97
,,,,,,,,,,,,,,,,,,,,,,,,,,,,,,,,,,,,,,,,,l,6.651000023,BOCADIL,TRUE,,,,,,,7,bocadillo,Spanish,Sounds/spa_bocadillo.mp3,2020-06-05_12h47.53.140,TranslationElicitation_eng-prolific,3.2.4,MacIntel,60,5d6c21b0a9d20a0001de501b,,1,0,98,5,1,97
,,,,,,,,,,,,,,,,,,,,,,,,,,,,,,,,,,,,,,,,,l,6.76699996,BOCADILL,TRUE,,,,,,,7,bocadillo,Spanish,Sounds/spa_bocadillo.mp3,2020-06-05_12h47.53.140,TranslationElicitation_eng-prolific,3.2.4,MacIntel,60,5d6c21b0a9d20a0001de501b,,1,0,98,5,1,97
,,,,,,,,,,,,,,,,,,,,,,,,,,,,,,,,,,,,,,,,,o,7.003000021,BOCADILLO,TRUE,,,,,,,7,bocadillo,Spanish,Sounds/spa_bocadillo.mp3,2020-06-05_12h47.53.140,TranslationElicitation_eng-prolific,3.2.4,MacIntel,60,5d6c21b0a9d20a0001de501b,,1,0,98,5,1,97
,,,,,,,,,,,,,,,,,,,,,,,,,,,,,,,,,,,,,,,,,return,7.43599987,BOCADILLO,TRUE,,,,,,,7,bocadillo,Spanish,Sounds/spa_bocadillo.mp3,2020-06-05_12h47.53.140,TranslationElicitation_eng-prolific,3.2.4,MacIntel,60,5d6c21b0a9d20a0001de501b,7.43599987,1,0,98,5,1,97
,,,,,,,,,,,,,,,,,,,,,,,,,,,,,,,,,,,,,,,,,,,,,,,,,,,7,bocadillo,Spanish,Sounds/spa_bocadillo.mp3,2020-06-05_12h47.53.140,TranslationElicitation_eng-prolific,3.2.4,MacIntel,60,5d6c21b0a9d20a0001de501b,,1,0,98,5,1,97
,,,,,,,,,,,,,,,,,,,,,,,,,,,,,,,,,,,,,,,,,m,1.565999985,M,FALSE,,,,,,,61,mariposa,Spanish,Sounds/spa_mariposa.mp3,2020-06-05_12h47.53.140,TranslationElicitation_eng-prolific,3.2.4,MacIntel,60,5d6c21b0a9d20a0001de501b,,1,0,98,57,1,97
,,,,,,,,,,,,,,,,,,,,,,,,,,,,,,,,,,,,,,,,,a,1.698999882,MA,FALSE,,,,,,,61,mariposa,Spanish,Sounds/spa_mariposa.mp3,2020-06-05_12h47.53.140,TranslationElicitation_eng-prolific,3.2.4,MacIntel,60,5d6c21b0a9d20a0001de501b,,1,0,98,57,1,97
,,,,,,,,,,,,,,,,,,,,,,,,,,,,,,,,,,,,,,,,,r,1.98300004,MAR,FALSE,,,,,,,61,mariposa,Spanish,Sounds/spa_mariposa.mp3,2020-06-05_12h47.53.140,TranslationElicitation_eng-prolific,3.2.4,MacIntel,60,5d6c21b0a9d20a0001de501b,,1,0,98,57,1,97
,,,,,,,,,,,,,,,,,,,,,,,,,,,,,,,,,,,,,,,,,i,2.148999929,MARI,FALSE,,,,,,,61,mariposa,Spanish,Sounds/spa_mariposa.mp3,2020-06-05_12h47.53.140,TranslationElicitation_eng-prolific,3.2.4,MacIntel,60,5d6c21b0a9d20a0001de501b,,1,0,98,57,1,97
,,,,,,,,,,,,,,,,,,,,,,,,,,,,,,,,,,,,,,,,,b,2.598999977,MARIB,FALSE,,,,,,,61,mariposa,Spanish,Sounds/spa_mariposa.mp3,2020-06-05_12h47.53.140,TranslationElicitation_eng-prolific,3.2.4,MacIntel,60,5d6c21b0a9d20a0001de501b,,1,0,98,57,1,97
,,,,,,,,,,,,,,,,,,,,,,,,,,,,,,,,,,,,,,,,,o,2.865999937,MARIBO,FALSE,,,,,,,61,mariposa,Spanish,Sounds/spa_mariposa.mp3,2020-06-05_12h47.53.140,TranslationElicitation_eng-prolific,3.2.4,MacIntel,60,5d6c21b0a9d20a0001de501b,,1,0,98,57,1,97
,,,,,,,,,,,,,,,,,,,,,,,,,,,,,,,,,,,,,,,,,backspace,3.316999912,MARIB,TRUE,,,,,,,61,mariposa,Spanish,Sounds/spa_mariposa.mp3,2020-06-05_12h47.53.140,TranslationElicitation_eng-prolific,3.2.4,MacIntel,60,5d6c21b0a9d20a0001de501b,,1,0,98,57,1,97
,,,,,,,,,,,,,,,,,,,,,,,,,,,,,,,,,,,,,,,,,backspace,3.48300004,MARI,TRUE,,,,,,,61,mariposa,Spanish,Sounds/spa_mariposa.mp3,2020-06-05_12h47.53.140,TranslationElicitation_eng-prolific,3.2.4,MacIntel,60,5d6c21b0a9d20a0001de501b,,1,0,98,57,1,97
,,,,,,,,,,,,,,,,,,,,,,,,,,,,,,,,,,,,,,,,,p,4.049999952,MARIP,TRUE,,,,,,,61,mariposa,Spanish,Sounds/spa_mariposa.mp3,2020-06-05_12h47.53.140,TranslationElicitation_eng-prolific,3.2.4,MacIntel,60,5d6c21b0a9d20a0001de501b,,1,0,98,57,1,97
,,,,,,,,,,,,,,,,,,,,,,,,,,,,,,,,,,,,,,,,,t,4.217999935,MARIPT,TRUE,,,,,,,61,mariposa,Spanish,Sounds/spa_mariposa.mp3,2020-06-05_12h47.53.140,TranslationElicitation_eng-prolific,3.2.4,MacIntel,60,5d6c21b0a9d20a0001de501b,,1,0,98,57,1,97
,,,,,,,,,,,,,,,,,,,,,,,,,,,,,,,,,,,,,,,,,h,4.384000063,MARIPTH,TRUE,,,,,,,61,mariposa,Spanish,Sounds/spa_mariposa.mp3,2020-06-05_12h47.53.140,TranslationElicitation_eng-prolific,3.2.4,MacIntel,60,5d6c21b0a9d20a0001de501b,,1,0,98,57,1,97
,,,,,,,,,,,,,,,,,,,,,,,,,,,,,,,,,,,,,,,,,a,4.582999945,MARIPTHA,TRUE,,,,,,,61,mariposa,Spanish,Sounds/spa_mariposa.mp3,2020-06-05_12h47.53.140,TranslationElicitation_eng-prolific,3.2.4,MacIntel,60,5d6c21b0a9d20a0001de501b,,1,0,98,57,1,97
,,,,,,,,,,,,,,,,,,,,,,,,,,,,,,,,,,,,,,,,,backspace,5.23300004,MARIPTH,TRUE,,,,,,,61,mariposa,Spanish,Sounds/spa_mariposa.mp3,2020-06-05_12h47.53.140,TranslationElicitation_eng-prolific,3.2.4,MacIntel,60,5d6c21b0a9d20a0001de501b,,1,0,98,57,1,97
,,,,,,,,,,,,,,,,,,,,,,,,,,,,,,,,,,,,,,,,,backspace,5.415999889,MARIPT,TRUE,,,,,,,61,mariposa,Spanish,Sounds/spa_mariposa.mp3,2020-06-05_12h47.53.140,TranslationElicitation_eng-prolific,3.2.4,MacIntel,60,5d6c21b0a9d20a0001de501b,,1,0,98,57,1,97
,,,,,,,,,,,,,,,,,,,,,,,,,,,,,,,,,,,,,,,,,backspace,5.599999905,MARIP,TRUE,,,,,,,61,mariposa,Spanish,Sounds/spa_mariposa.mp3,2020-06-05_12h47.53.140,TranslationElicitation_eng-prolific,3.2.4,MacIntel,60,5d6c21b0a9d20a0001de501b,,1,0,98,57,1,97
,,,,,,,,,,,,,,,,,,,,,,,,,,,,,,,,,,,,,,,,,o,6.315999985,MARIPO,TRUE,,,,,,,61,mariposa,Spanish,Sounds/spa_mariposa.mp3,2020-06-05_12h47.53.140,TranslationElicitation_eng-prolific,3.2.4,MacIntel,60,5d6c21b0a9d20a0001de501b,,1,0,98,57,1,97
,,,,,,,,,,,,,,,,,,,,,,,,,,,,,,,,,,,,,,,,,s,6.450000048,MARIPOS,TRUE,,,,,,,61,mariposa,Spanish,Sounds/spa_mariposa.mp3,2020-06-05_12h47.53.140,TranslationElicitation_eng-prolific,3.2.4,MacIntel,60,5d6c21b0a9d20a0001de501b,,1,0,98,57,1,97
,,,,,,,,,,,,,,,,,,,,,,,,,,,,,,,,,,,,,,,,,a,6.90199995,MARIPOSA,TRUE,,,,,,,61,mariposa,Spanish,Sounds/spa_mariposa.mp3,2020-06-05_12h47.53.140,TranslationElicitation_eng-prolific,3.2.4,MacIntel,60,5d6c21b0a9d20a0001de501b,,1,0,98,57,1,97
,,,,,,,,,,,,,,,,,,,,,,,,,,,,,,,,,,,,,,,,,return,7.499000072,MARIPOSA,TRUE,,,,,,,61,mariposa,Spanish,Sounds/spa_mariposa.mp3,2020-06-05_12h47.53.140,TranslationElicitation_eng-prolific,3.2.4,MacIntel,60,5d6c21b0a9d20a0001de501b,7.499000072,1,0,98,57,1,97
,,,,,,,,,,,,,,,,,,,,,,,,,,,,,,,,,,,,,,,,,,,,,,,,,,,61,mariposa,Spanish,Sounds/spa_mariposa.mp3,2020-06-05_12h47.53.140,TranslationElicitation_eng-prolific,3.2.4,MacIntel,60,5d6c21b0a9d20a0001de501b,,1,0,98,57,1,97
,,,,,,,,,,,,,,,,,,,,,,,,,,,,,,,,,,,,,,,,,t,2.200000048,T,FALSE,,,,,,,101,tren,Spanish,Sounds/spa_tren.mp3,2020-06-05_12h47.53.140,TranslationElicitation_eng-prolific,3.2.4,MacIntel,60,5d6c21b0a9d20a0001de501b,,1,0,98,95,1,97
,,,,,,,,,,,,,,,,,,,,,,,,,,,,,,,,,,,,,,,,,r,2.349999905,TR,FALSE,,,,,,,101,tren,Spanish,Sounds/spa_tren.mp3,2020-06-05_12h47.53.140,TranslationElicitation_eng-prolific,3.2.4,MacIntel,60,5d6c21b0a9d20a0001de501b,,1,0,98,95,1,97
,,,,,,,,,,,,,,,,,,,,,,,,,,,,,,,,,,,,,,,,,e,2.569000006,TRE,FALSE,,,,,,,101,tren,Spanish,Sounds/spa_tren.mp3,2020-06-05_12h47.53.140,TranslationElicitation_eng-prolific,3.2.4,MacIntel,60,5d6c21b0a9d20a0001de501b,,1,0,98,95,1,97
,,,,,,,,,,,,,,,,,,,,,,,,,,,,,,,,,,,,,,,,,n,2.701999903,TREN,FALSE,,,,,,,101,tren,Spanish,Sounds/spa_tren.mp3,2020-06-05_12h47.53.140,TranslationElicitation_eng-prolific,3.2.4,MacIntel,60,5d6c21b0a9d20a0001de501b,,1,0,98,95,1,97
,,,,,,,,,,,,,,,,,,,,,,,,,,,,,,,,,,,,,,,,,return,3.069000006,TREN,FALSE,,,,,,,101,tren,Spanish,Sounds/spa_tren.mp3,2020-06-05_12h47.53.140,TranslationElicitation_eng-prolific,3.2.4,MacIntel,60,5d6c21b0a9d20a0001de501b,3.069000006,1,0,98,95,1,97
,,,,,,,,,,,,,,,,,,,,,,,,,,,,,,,,,,,,,,,,,,,,,,,,,,,101,tren,Spanish,Sounds/spa_tren.mp3,2020-06-05_12h47.53.140,TranslationElicitation_eng-prolific,3.2.4,MacIntel,60,5d6c21b0a9d20a0001de501b,,1,0,98,95,1,97
,,,,,,,,,,,,,,,,,,,,,,,,,,,,,,,,,,,,,,,,,p,1.617000103,P,FALSE,,,,,,,4,biberon,Spanish,Sounds/spa_biberon.mp3,2020-06-05_12h47.53.140,TranslationElicitation_eng-prolific,3.2.4,MacIntel,60,5d6c21b0a9d20a0001de501b,,1,0,98,2,1,97
,,,,,,,,,,,,,,,,,,,,,,,,,,,,,,,,,,,,,,,,,e,1.799999952,PE,FALSE,,,,,,,4,biberon,Spanish,Sounds/spa_biberon.mp3,2020-06-05_12h47.53.140,TranslationElicitation_eng-prolific,3.2.4,MacIntel,60,5d6c21b0a9d20a0001de501b,,1,0,98,2,1,97
,,,,,,,,,,,,,,,,,,,,,,,,,,,,,,,,,,,,,,,,,r,1.934000015,PER,FALSE,,,,,,,4,biberon,Spanish,Sounds/spa_biberon.mp3,2020-06-05_12h47.53.140,TranslationElicitation_eng-prolific,3.2.4,MacIntel,60,5d6c21b0a9d20a0001de501b,,1,0,98,2,1,97
,,,,,,,,,,,,,,,,,,,,,,,,,,,,,,,,,,,,,,,,,i,2.118000031,PERI,FALSE,,,,,,,4,biberon,Spanish,Sounds/spa_biberon.mp3,2020-06-05_12h47.53.140,TranslationElicitation_eng-prolific,3.2.4,MacIntel,60,5d6c21b0a9d20a0001de501b,,1,0,98,2,1,97
,,,,,,,,,,,,,,,,,,,,,,,,,,,,,,,,,,,,,,,,,o,2.334000111,PERIO,FALSE,,,,,,,4,biberon,Spanish,Sounds/spa_biberon.mp3,2020-06-05_12h47.53.140,TranslationElicitation_eng-prolific,3.2.4,MacIntel,60,5d6c21b0a9d20a0001de501b,,1,0,98,2,1,97
,,,,,,,,,,,,,,,,,,,,,,,,,,,,,,,,,,,,,,,,,n,2.549999952,PERION,FALSE,,,,,,,4,biberon,Spanish,Sounds/spa_biberon.mp3,2020-06-05_12h47.53.140,TranslationElicitation_eng-prolific,3.2.4,MacIntel,60,5d6c21b0a9d20a0001de501b,,1,0,98,2,1,97
,,,,,,,,,,,,,,,,,,,,,,,,,,,,,,,,,,,,,,,,,return,2.867000103,PERION,FALSE,,,,,,,4,biberon,Spanish,Sounds/spa_biberon.mp3,2020-06-05_12h47.53.140,TranslationElicitation_eng-prolific,3.2.4,MacIntel,60,5d6c21b0a9d20a0001de501b,2.867000103,1,0,98,2,1,97
,,,,,,,,,,,,,,,,,,,,,,,,,,,,,,,,,,,,,,,,,,,,,,,,,,,4,biberon,Spanish,Sounds/spa_biberon.mp3,2020-06-05_12h47.53.140,TranslationElicitation_eng-prolific,3.2.4,MacIntel,60,5d6c21b0a9d20a0001de501b,,1,0,98,2,1,97
,,,,,,,,,,,,,,,,,,,,,,,,,,,,,,,,,,,,,,,,,b,1.51699996,B,FALSE,,,,,,,11,boton,Spanish,Sounds/spa_boton.mp3,2020-06-05_12h47.53.140,TranslationElicitation_eng-prolific,3.2.4,MacIntel,60,5d6c21b0a9d20a0001de501b,,1,0,98,9,1,97
,,,,,,,,,,,,,,,,,,,,,,,,,,,,,,,,,,,,,,,,,o,1.751999855,BO,FALSE,,,,,,,11,boton,Spanish,Sounds/spa_boton.mp3,2020-06-05_12h47.53.140,TranslationElicitation_eng-prolific,3.2.4,MacIntel,60,5d6c21b0a9d20a0001de501b,,1,0,98,9,1,97
,,,,,,,,,,,,,,,,,,,,,,,,,,,,,,,,,,,,,,,,,t,1.917000055,BOT,FALSE,,,,,,,11,boton,Spanish,Sounds/spa_boton.mp3,2020-06-05_12h47.53.140,TranslationElicitation_eng-prolific,3.2.4,MacIntel,60,5d6c21b0a9d20a0001de501b,,1,0,98,9,1,97
,,,,,,,,,,,,,,,,,,,,,,,,,,,,,,,,,,,,,,,,,o,2.049999952,BOTO,FALSE,,,,,,,11,boton,Spanish,Sounds/spa_boton.mp3,2020-06-05_12h47.53.140,TranslationElicitation_eng-prolific,3.2.4,MacIntel,60,5d6c21b0a9d20a0001de501b,,1,0,98,9,1,97
,,,,,,,,,,,,,,,,,,,,,,,,,,,,,,,,,,,,,,,,,n,2.483999968,BOTON,FALSE,,,,,,,11,boton,Spanish,Sounds/spa_boton.mp3,2020-06-05_12h47.53.140,TranslationElicitation_eng-prolific,3.2.4,MacIntel,60,5d6c21b0a9d20a0001de501b,,1,0,98,9,1,97
,,,,,,,,,,,,,,,,,,,,,,,,,,,,,,,,,,,,,,,,,return,3.217000008,BOTON,FALSE,,,,,,,11,boton,Spanish,Sounds/spa_boton.mp3,2020-06-05_12h47.53.140,TranslationElicitation_eng-prolific,3.2.4,MacIntel,60,5d6c21b0a9d20a0001de501b,3.217000008,1,0,98,9,1,97
,,,,,,,,,,,,,,,,,,,,,,,,,,,,,,,,,,,,,,,,,,,,,,,,,,,11,boton,Spanish,Sounds/spa_boton.mp3,2020-06-05_12h47.53.140,TranslationElicitation_eng-prolific,3.2.4,MacIntel,60,5d6c21b0a9d20a0001de501b,,1,0,98,9,1,97
,,,,,,,,,,,,,,,,,,,,,,,,,,,,,,,,,,,,,,,,,p,1.482000113,P,FALSE,,,,,,,84,pie,Spanish,Sounds/spa_pie.mp3,2020-06-05_12h47.53.140,TranslationElicitation_eng-prolific,3.2.4,MacIntel,60,5d6c21b0a9d20a0001de501b,,1,0,98,79,1,97
,,,,,,,,,,,,,,,,,,,,,,,,,,,,,,,,,,,,,,,,,i,1.86500001,PI,FALSE,,,,,,,84,pie,Spanish,Sounds/spa_pie.mp3,2020-06-05_12h47.53.140,TranslationElicitation_eng-prolific,3.2.4,MacIntel,60,5d6c21b0a9d20a0001de501b,,1,0,98,79,1,97
,,,,,,,,,,,,,,,,,,,,,,,,,,,,,,,,,,,,,,,,,e,2.782000065,PIE,FALSE,,,,,,,84,pie,Spanish,Sounds/spa_pie.mp3,2020-06-05_12h47.53.140,TranslationElicitation_eng-prolific,3.2.4,MacIntel,60,5d6c21b0a9d20a0001de501b,,1,0,98,79,1,97
,,,,,,,,,,,,,,,,,,,,,,,,,,,,,,,,,,,,,,,,,z,5.718000174,PIEZ,FALSE,,,,,,,84,pie,Spanish,Sounds/spa_pie.mp3,2020-06-05_12h47.53.140,TranslationElicitation_eng-prolific,3.2.4,MacIntel,60,5d6c21b0a9d20a0001de501b,,1,0,98,79,1,97
,,,,,,,,,,,,,,,,,,,,,,,,,,,,,,,,,,,,,,,,,return,8.19900012,PIEZ,FALSE,,,,,,,84,pie,Spanish,Sounds/spa_pie.mp3,2020-06-05_12h47.53.140,TranslationElicitation_eng-prolific,3.2.4,MacIntel,60,5d6c21b0a9d20a0001de501b,8.19900012,1,0,98,79,1,97
,,,,,,,,,,,,,,,,,,,,,,,,,,,,,,,,,,,,,,,,,,,,,,,,,,,84,pie,Spanish,Sounds/spa_pie.mp3,2020-06-05_12h47.53.140,TranslationElicitation_eng-prolific,3.2.4,MacIntel,60,5d6c21b0a9d20a0001de501b,,1,0,98,79,1,97
,,,,,,,,,,,,,,,,,,,,,,,,,,,,,,,,,,,,,,,,,o,4.015999794,O,FALSE,,,,,,,48,gusano,Spanish,Sounds/spa_gusano.mp3,2020-06-05_12h47.53.140,TranslationElicitation_eng-prolific,3.2.4,MacIntel,60,5d6c21b0a9d20a0001de501b,,1,0,98,44,1,97
,,,,,,,,,,,,,,,,,,,,,,,,,,,,,,,,,,,,,,,,,u,4.164999962,OU,FALSE,,,,,,,48,gusano,Spanish,Sounds/spa_gusano.mp3,2020-06-05_12h47.53.140,TranslationElicitation_eng-prolific,3.2.4,MacIntel,60,5d6c21b0a9d20a0001de501b,,1,0,98,44,1,97
,,,,,,,,,,,,,,,,,,,,,,,,,,,,,,,,,,,,,,,,,t,4.530999899,OUT,FALSE,,,,,,,48,gusano,Spanish,Sounds/spa_gusano.mp3,2020-06-05_12h47.53.140,TranslationElicitation_eng-prolific,3.2.4,MacIntel,60,5d6c21b0a9d20a0001de501b,,1,0,98,44,1,97
,,,,,,,,,,,,,,,,,,,,,,,,,,,,,,,,,,,,,,,,,h,4.698999882,OUTH,FALSE,,,,,,,48,gusano,Spanish,Sounds/spa_gusano.mp3,2020-06-05_12h47.53.140,TranslationElicitation_eng-prolific,3.2.4,MacIntel,60,5d6c21b0a9d20a0001de501b,,1,0,98,44,1,97
,,,,,,,,,,,,,,,,,,,,,,,,,,,,,,,,,,,,,,,,,a,4.881999969,OUTHA,FALSE,,,,,,,48,gusano,Spanish,Sounds/spa_gusano.mp3,2020-06-05_12h47.53.140,TranslationElicitation_eng-prolific,3.2.4,MacIntel,60,5d6c21b0a9d20a0001de501b,,1,0,98,44,1,97
,,,,,,,,,,,,,,,,,,,,,,,,,,,,,,,,,,,,,,,,,n,5.082999945,OUTHAN,FALSE,,,,,,,48,gusano,Spanish,Sounds/spa_gusano.mp3,2020-06-05_12h47.53.140,TranslationElicitation_eng-prolific,3.2.4,MacIntel,60,5d6c21b0a9d20a0001de501b,,1,0,98,44,1,97
,,,,,,,,,,,,,,,,,,,,,,,,,,,,,,,,,,,,,,,,,o,5.731999874,OUTHANO,FALSE,,,,,,,48,gusano,Spanish,Sounds/spa_gusano.mp3,2020-06-05_12h47.53.140,TranslationElicitation_eng-prolific,3.2.4,MacIntel,60,5d6c21b0a9d20a0001de501b,,1,0,98,44,1,97
,,,,,,,,,,,,,,,,,,,,,,,,,,,,,,,,,,,,,,,,,return,6.549999952,OUTHANO,FALSE,,,,,,,48,gusano,Spanish,Sounds/spa_gusano.mp3,2020-06-05_12h47.53.140,TranslationElicitation_eng-prolific,3.2.4,MacIntel,60,5d6c21b0a9d20a0001de501b,6.549999952,1,0,98,44,1,97
,,,,,,,,,,,,,,,,,,,,,,,,,,,,,,,,,,,,,,,,,,,,,,,,,,,48,gusano,Spanish,Sounds/spa_gusano.mp3,2020-06-05_12h47.53.140,TranslationElicitation_eng-prolific,3.2.4,MacIntel,60,5d6c21b0a9d20a0001de501b,,1,0,98,44,1,97
,,,,,,,,,,,,,,,,,,,,,,,,,,,,,,,,,,,,,,,,,s,1.549999952,S,FALSE,,,,,,,103,zanahoria,Spanish,Sounds/spa_zanahoria.mp3,2020-06-05_12h47.53.140,TranslationElicitation_eng-prolific,3.2.4,MacIntel,60,5d6c21b0a9d20a0001de501b,,1,0,98,97,1,97
,,,,,,,,,,,,,,,,,,,,,,,,,,,,,,,,,,,,,,,,,a,1.747999907,SA,FALSE,,,,,,,103,zanahoria,Spanish,Sounds/spa_zanahoria.mp3,2020-06-05_12h47.53.140,TranslationElicitation_eng-prolific,3.2.4,MacIntel,60,5d6c21b0a9d20a0001de501b,,1,0,98,97,1,97
,,,,,,,,,,,,,,,,,,,,,,,,,,,,,,,,,,,,,,,,,n,1.933000088,SAN,FALSE,,,,,,,103,zanahoria,Spanish,Sounds/spa_zanahoria.mp3,2020-06-05_12h47.53.140,TranslationElicitation_eng-prolific,3.2.4,MacIntel,60,5d6c21b0a9d20a0001de501b,,1,0,98,97,1,97
,,,,,,,,,,,,,,,,,,,,,,,,,,,,,,,,,,,,,,,,,h,2.181999922,SANH,FALSE,,,,,,,103,zanahoria,Spanish,Sounds/spa_zanahoria.mp3,2020-06-05_12h47.53.140,TranslationElicitation_eng-prolific,3.2.4,MacIntel,60,5d6c21b0a9d20a0001de501b,,1,0,98,97,1,97
,,,,,,,,,,,,,,,,,,,,,,,,,,,,,,,,,,,,,,,,,backspace,2.650000095,SAN,TRUE,,,,,,,103,zanahoria,Spanish,Sounds/spa_zanahoria.mp3,2020-06-05_12h47.53.140,TranslationElicitation_eng-prolific,3.2.4,MacIntel,60,5d6c21b0a9d20a0001de501b,,1,0,98,97,1,97
,,,,,,,,,,,,,,,,,,,,,,,,,,,,,,,,,,,,,,,,,a,3.032999992,SANA,TRUE,,,,,,,103,zanahoria,Spanish,Sounds/spa_zanahoria.mp3,2020-06-05_12h47.53.140,TranslationElicitation_eng-prolific,3.2.4,MacIntel,60,5d6c21b0a9d20a0001de501b,,1,0,98,97,1,97
,,,,,,,,,,,,,,,,,,,,,,,,,,,,,,,,,,,,,,,,,h,3.598999977,SANAH,TRUE,,,,,,,103,zanahoria,Spanish,Sounds/spa_zanahoria.mp3,2020-06-05_12h47.53.140,TranslationElicitation_eng-prolific,3.2.4,MacIntel,60,5d6c21b0a9d20a0001de501b,,1,0,98,97,1,97
,,,,,,,,,,,,,,,,,,,,,,,,,,,,,,,,,,,,,,,,,o,3.86500001,SANAHO,TRUE,,,,,,,103,zanahoria,Spanish,Sounds/spa_zanahoria.mp3,2020-06-05_12h47.53.140,TranslationElicitation_eng-prolific,3.2.4,MacIntel,60,5d6c21b0a9d20a0001de501b,,1,0,98,97,1,97
,,,,,,,,,,,,,,,,,,,,,,,,,,,,,,,,,,,,,,,,,r,4.038000107,SANAHOR,TRUE,,,,,,,103,zanahoria,Spanish,Sounds/spa_zanahoria.mp3,2020-06-05_12h47.53.140,TranslationElicitation_eng-prolific,3.2.4,MacIntel,60,5d6c21b0a9d20a0001de501b,,1,0,98,97,1,97
,,,,,,,,,,,,,,,,,,,,,,,,,,,,,,,,,,,,,,,,,i,4.197999954,SANAHORI,TRUE,,,,,,,103,zanahoria,Spanish,Sounds/spa_zanahoria.mp3,2020-06-05_12h47.53.140,TranslationElicitation_eng-prolific,3.2.4,MacIntel,60,5d6c21b0a9d20a0001de501b,,1,0,98,97,1,97
,,,,,,,,,,,,,,,,,,,,,,,,,,,,,,,,,,,,,,,,,a,4.315000057,SANAHORIA,TRUE,,,,,,,103,zanahoria,Spanish,Sounds/spa_zanahoria.mp3,2020-06-05_12h47.53.140,TranslationElicitation_eng-prolific,3.2.4,MacIntel,60,5d6c21b0a9d20a0001de501b,,1,0,98,97,1,97
,,,,,,,,,,,,,,,,,,,,,,,,,,,,,,,,,,,,,,,,,return,4.548000097,SANAHORIA,TRUE,,,,,,,103,zanahoria,Spanish,Sounds/spa_zanahoria.mp3,2020-06-05_12h47.53.140,TranslationElicitation_eng-prolific,3.2.4,MacIntel,60,5d6c21b0a9d20a0001de501b,4.548000097,1,0,98,97,1,97
,,,,,,,,,,,,,,,,,,,,,,,,,,,,,,,,,,,,,,,,,,,,,,,,,,,103,zanahoria,Spanish,Sounds/spa_zanahoria.mp3,2020-06-05_12h47.53.140,TranslationElicitation_eng-prolific,3.2.4,MacIntel,60,5d6c21b0a9d20a0001de501b,,1,0,98,97,1,97
,,,,,,,,,,,,,,,,,,,,,,,,,,,,,,,,,,,,,,,,,p,1.73300004,P,FALSE,,,,,,,89,pluma,Spanish,Sounds/spa_pluma.mp3,2020-06-05_12h47.53.140,TranslationElicitation_eng-prolific,3.2.4,MacIntel,60,5d6c21b0a9d20a0001de501b,,1,0,98,84,1,97
,,,,,,,,,,,,,,,,,,,,,,,,,,,,,,,,,,,,,,,,,l,2.183000088,PL,FALSE,,,,,,,89,pluma,Spanish,Sounds/spa_pluma.mp3,2020-06-05_12h47.53.140,TranslationElicitation_eng-prolific,3.2.4,MacIntel,60,5d6c21b0a9d20a0001de501b,,1,0,98,84,1,97
,,,,,,,,,,,,,,,,,,,,,,,,,,,,,,,,,,,,,,,,,i,2.549999952,PLI,FALSE,,,,,,,89,pluma,Spanish,Sounds/spa_pluma.mp3,2020-06-05_12h47.53.140,TranslationElicitation_eng-prolific,3.2.4,MacIntel,60,5d6c21b0a9d20a0001de501b,,1,0,98,84,1,97
,,,,,,,,,,,,,,,,,,,,,,,,,,,,,,,,,,,,,,,,,backspace,3.049999952,PL,TRUE,,,,,,,89,pluma,Spanish,Sounds/spa_pluma.mp3,2020-06-05_12h47.53.140,TranslationElicitation_eng-prolific,3.2.4,MacIntel,60,5d6c21b0a9d20a0001de501b,,1,0,98,84,1,97
,,,,,,,,,,,,,,,,,,,,,,,,,,,,,,,,,,,,,,,,,u,3.467999935,PLU,TRUE,,,,,,,89,pluma,Spanish,Sounds/spa_pluma.mp3,2020-06-05_12h47.53.140,TranslationElicitation_eng-prolific,3.2.4,MacIntel,60,5d6c21b0a9d20a0001de501b,,1,0,98,84,1,97
,,,,,,,,,,,,,,,,,,,,,,,,,,,,,,,,,,,,,,,,,m,3.767999887,PLUM,TRUE,,,,,,,89,pluma,Spanish,Sounds/spa_pluma.mp3,2020-06-05_12h47.53.140,TranslationElicitation_eng-prolific,3.2.4,MacIntel,60,5d6c21b0a9d20a0001de501b,,1,0,98,84,1,97
,,,,,,,,,,,,,,,,,,,,,,,,,,,,,,,,,,,,,,,,,a,3.901000023,PLUMA,TRUE,,,,,,,89,pluma,Spanish,Sounds/spa_pluma.mp3,2020-06-05_12h47.53.140,TranslationElicitation_eng-prolific,3.2.4,MacIntel,60,5d6c21b0a9d20a0001de501b,,1,0,98,84,1,97
,,,,,,,,,,,,,,,,,,,,,,,,,,,,,,,,,,,,,,,,,return,4.167999983,PLUMA,TRUE,,,,,,,89,pluma,Spanish,Sounds/spa_pluma.mp3,2020-06-05_12h47.53.140,TranslationElicitation_eng-prolific,3.2.4,MacIntel,60,5d6c21b0a9d20a0001de501b,4.167999983,1,0,98,84,1,97
,,,,,,,,,,,,,,,,,,,,,,,,,,,,,,,,,,,,,,,,,,,,,,,,,,,89,pluma,Spanish,Sounds/spa_pluma.mp3,2020-06-05_12h47.53.140,TranslationElicitation_eng-prolific,3.2.4,MacIntel,60,5d6c21b0a9d20a0001de501b,,1,0,98,84,1,97
,,,,,,,,,,,,,,,,,,,,,,,,,,,,,,,,,,,,,,,,,t,1.31400013,T,FALSE,,,,,,,98,tobogan,Spanish,Sounds/spa_tobogan.mp3,2020-06-05_12h47.53.140,TranslationElicitation_eng-prolific,3.2.4,MacIntel,60,5d6c21b0a9d20a0001de501b,,1,0,98,92,1,97
,,,,,,,,,,,,,,,,,,,,,,,,,,,,,,,,,,,,,,,,,o,1.59800005,TO,FALSE,,,,,,,98,tobogan,Spanish,Sounds/spa_tobogan.mp3,2020-06-05_12h47.53.140,TranslationElicitation_eng-prolific,3.2.4,MacIntel,60,5d6c21b0a9d20a0001de501b,,1,0,98,92,1,97
,,,,,,,,,,,,,,,,,,,,,,,,,,,,,,,,,,,,,,,,,c,2.151000023,TOC,FALSE,,,,,,,98,tobogan,Spanish,Sounds/spa_tobogan.mp3,2020-06-05_12h47.53.140,TranslationElicitation_eng-prolific,3.2.4,MacIntel,60,5d6c21b0a9d20a0001de501b,,1,0,98,92,1,97
,,,,,,,,,,,,,,,,,,,,,,,,,,,,,,,,,,,,,,,,,o,2.364000082,TOCO,FALSE,,,,,,,98,tobogan,Spanish,Sounds/spa_tobogan.mp3,2020-06-05_12h47.53.140,TranslationElicitation_eng-prolific,3.2.4,MacIntel,60,5d6c21b0a9d20a0001de501b,,1,0,98,92,1,97
,,,,,,,,,,,,,,,,,,,,,,,,,,,,,,,,,,,,,,,,,d,2.782999992,TOCOD,FALSE,,,,,,,98,tobogan,Spanish,Sounds/spa_tobogan.mp3,2020-06-05_12h47.53.140,TranslationElicitation_eng-prolific,3.2.4,MacIntel,60,5d6c21b0a9d20a0001de501b,,1,0,98,92,1,97
,,,,,,,,,,,,,,,,,,,,,,,,,,,,,,,,,,,,,,,,,a,2.917000055,TOCODA,FALSE,,,,,,,98,tobogan,Spanish,Sounds/spa_tobogan.mp3,2020-06-05_12h47.53.140,TranslationElicitation_eng-prolific,3.2.4,MacIntel,60,5d6c21b0a9d20a0001de501b,,1,0,98,92,1,97
,,,,,,,,,,,,,,,,,,,,,,,,,,,,,,,,,,,,,,,,,n,3.246999979,TOCODAN,FALSE,,,,,,,98,tobogan,Spanish,Sounds/spa_tobogan.mp3,2020-06-05_12h47.53.140,TranslationElicitation_eng-prolific,3.2.4,MacIntel,60,5d6c21b0a9d20a0001de501b,,1,0,98,92,1,97
,,,,,,,,,,,,,,,,,,,,,,,,,,,,,,,,,,,,,,,,,return,3.565000057,TOCODAN,FALSE,,,,,,,98,tobogan,Spanish,Sounds/spa_tobogan.mp3,2020-06-05_12h47.53.140,TranslationElicitation_eng-prolific,3.2.4,MacIntel,60,5d6c21b0a9d20a0001de501b,3.565000057,1,0,98,92,1,97
,,,,,,,,,,,,,,,,,,,,,,,,,,,,,,,,,,,,,,,,,,,,,,,,,,,98,tobogan,Spanish,Sounds/spa_tobogan.mp3,2020-06-05_12h47.53.140,TranslationElicitation_eng-prolific,3.2.4,MacIntel,60,5d6c21b0a9d20a0001de501b,,1,0,98,92,1,97
,,,,,,,,,,,,,,,,,,,,,,,,,,,,,,,,,,,,,,,,,s,1.150000095,S,FALSE,,,,,,,22,cepillo,Spanish,Sounds/spa_cepillo.mp3,2020-06-05_12h47.53.140,TranslationElicitation_eng-prolific,3.2.4,MacIntel,60,5d6c21b0a9d20a0001de501b,,1,0,98,20,1,97
,,,,,,,,,,,,,,,,,,,,,,,,,,,,,,,,,,,,,,,,,e,1.450000048,SE,FALSE,,,,,,,22,cepillo,Spanish,Sounds/spa_cepillo.mp3,2020-06-05_12h47.53.140,TranslationElicitation_eng-prolific,3.2.4,MacIntel,60,5d6c21b0a9d20a0001de501b,,1,0,98,20,1,97
,,,,,,,,,,,,,,,,,,,,,,,,,,,,,,,,,,,,,,,,,p,1.683000088,SEP,FALSE,,,,,,,22,cepillo,Spanish,Sounds/spa_cepillo.mp3,2020-06-05_12h47.53.140,TranslationElicitation_eng-prolific,3.2.4,MacIntel,60,5d6c21b0a9d20a0001de501b,,1,0,98,20,1,97
,,,,,,,,,,,,,,,,,,,,,,,,,,,,,,,,,,,,,,,,,i,1.917000055,SEPI,FALSE,,,,,,,22,cepillo,Spanish,Sounds/spa_cepillo.mp3,2020-06-05_12h47.53.140,TranslationElicitation_eng-prolific,3.2.4,MacIntel,60,5d6c21b0a9d20a0001de501b,,1,0,98,20,1,97
,,,,,,,,,,,,,,,,,,,,,,,,,,,,,,,,,,,,,,,,,l,2.166000128,SEPIL,FALSE,,,,,,,22,cepillo,Spanish,Sounds/spa_cepillo.mp3,2020-06-05_12h47.53.140,TranslationElicitation_eng-prolific,3.2.4,MacIntel,60,5d6c21b0a9d20a0001de501b,,1,0,98,20,1,97
,,,,,,,,,,,,,,,,,,,,,,,,,,,,,,,,,,,,,,,,,l,2.316999912,SEPILL,FALSE,,,,,,,22,cepillo,Spanish,Sounds/spa_cepillo.mp3,2020-06-05_12h47.53.140,TranslationElicitation_eng-prolific,3.2.4,MacIntel,60,5d6c21b0a9d20a0001de501b,,1,0,98,20,1,97
,,,,,,,,,,,,,,,,,,,,,,,,,,,,,,,,,,,,,,,,,o,2.5,SEPILLO,FALSE,,,,,,,22,cepillo,Spanish,Sounds/spa_cepillo.mp3,2020-06-05_12h47.53.140,TranslationElicitation_eng-prolific,3.2.4,MacIntel,60,5d6c21b0a9d20a0001de501b,,1,0,98,20,1,97
,,,,,,,,,,,,,,,,,,,,,,,,,,,,,,,,,,,,,,,,,return,2.73300004,SEPILLO,FALSE,,,,,,,22,cepillo,Spanish,Sounds/spa_cepillo.mp3,2020-06-05_12h47.53.140,TranslationElicitation_eng-prolific,3.2.4,MacIntel,60,5d6c21b0a9d20a0001de501b,2.73300004,1,0,98,20,1,97
,,,,,,,,,,,,,,,,,,,,,,,,,,,,,,,,,,,,,,,,,,,,,,,,,,,22,cepillo,Spanish,Sounds/spa_cepillo.mp3,2020-06-05_12h47.53.140,TranslationElicitation_eng-prolific,3.2.4,MacIntel,60,5d6c21b0a9d20a0001de501b,,1,0,98,20,1,97
,,,,,,,,,,,,,,,,,,,,,,,,,,,,,,,,,,,,,,,,,p,1.11500001,P,FALSE,,,,,,,75,pan,Spanish,Sounds/spa_pan.mp3,2020-06-05_12h47.53.140,TranslationElicitation_eng-prolific,3.2.4,MacIntel,60,5d6c21b0a9d20a0001de501b,,1,0,98,70,1,97
,,,,,,,,,,,,,,,,,,,,,,,,,,,,,,,,,,,,,,,,,a,1.247999907,PA,FALSE,,,,,,,75,pan,Spanish,Sounds/spa_pan.mp3,2020-06-05_12h47.53.140,TranslationElicitation_eng-prolific,3.2.4,MacIntel,60,5d6c21b0a9d20a0001de501b,,1,0,98,70,1,97
,,,,,,,,,,,,,,,,,,,,,,,,,,,,,,,,,,,,,,,,,n,1.363999844,PAN,FALSE,,,,,,,75,pan,Spanish,Sounds/spa_pan.mp3,2020-06-05_12h47.53.140,TranslationElicitation_eng-prolific,3.2.4,MacIntel,60,5d6c21b0a9d20a0001de501b,,1,0,98,70,1,97
,,,,,,,,,,,,,,,,,,,,,,,,,,,,,,,,,,,,,,,,,return,1.764999866,PAN,FALSE,,,,,,,75,pan,Spanish,Sounds/spa_pan.mp3,2020-06-05_12h47.53.140,TranslationElicitation_eng-prolific,3.2.4,MacIntel,60,5d6c21b0a9d20a0001de501b,1.764999866,1,0,98,70,1,97
,,,,,,,,,,,,,,,,,,,,,,,,,,,,,,,,,,,,,,,,,,,,,,,,,,,75,pan,Spanish,Sounds/spa_pan.mp3,2020-06-05_12h47.53.140,TranslationElicitation_eng-prolific,3.2.4,MacIntel,60,5d6c21b0a9d20a0001de501b,,1,0,98,70,1,97
,,,,,,,,,,,,,,,,,,,,,,,,,,,,,,,,,,,,,,,,,m,1.682999849,M,FALSE,,,,,,,67,muneca,Spanish,Sounds/spa_muneca.mp3,2020-06-05_12h47.53.140,TranslationElicitation_eng-prolific,3.2.4,MacIntel,60,5d6c21b0a9d20a0001de501b,,1,0,98,63,1,97
,,,,,,,,,,,,,,,,,,,,,,,,,,,,,,,,,,,,,,,,,u,3.214999914,MU,FALSE,,,,,,,67,muneca,Spanish,Sounds/spa_muneca.mp3,2020-06-05_12h47.53.140,TranslationElicitation_eng-prolific,3.2.4,MacIntel,60,5d6c21b0a9d20a0001de501b,,1,0,98,63,1,97
,,,,,,,,,,,,,,,,,,,,,,,,,,,,,,,,,,,,,,,,,n,3.516000032,MUN,FALSE,,,,,,,67,muneca,Spanish,Sounds/spa_muneca.mp3,2020-06-05_12h47.53.140,TranslationElicitation_eng-prolific,3.2.4,MacIntel,60,5d6c21b0a9d20a0001de501b,,1,0,98,63,1,97
,,,,,,,,,,,,,,,,,,,,,,,,,,,,,,,,,,,,,,,,,e,4.099999905,MUNE,FALSE,,,,,,,67,muneca,Spanish,Sounds/spa_muneca.mp3,2020-06-05_12h47.53.140,TranslationElicitation_eng-prolific,3.2.4,MacIntel,60,5d6c21b0a9d20a0001de501b,,1,0,98,63,1,97
,,,,,,,,,,,,,,,,,,,,,,,,,,,,,,,,,,,,,,,,,c,4.731999874,MUNEC,FALSE,,,,,,,67,muneca,Spanish,Sounds/spa_muneca.mp3,2020-06-05_12h47.53.140,TranslationElicitation_eng-prolific,3.2.4,MacIntel,60,5d6c21b0a9d20a0001de501b,,1,0,98,63,1,97
,,,,,,,,,,,,,,,,,,,,,,,,,,,,,,,,,,,,,,,,,a,4.86500001,MUNECA,FALSE,,,,,,,67,muneca,Spanish,Sounds/spa_muneca.mp3,2020-06-05_12h47.53.140,TranslationElicitation_eng-prolific,3.2.4,MacIntel,60,5d6c21b0a9d20a0001de501b,,1,0,98,63,1,97
,,,,,,,,,,,,,,,,,,,,,,,,,,,,,,,,,,,,,,,,,return,5.299999952,MUNECA,FALSE,,,,,,,67,muneca,Spanish,Sounds/spa_muneca.mp3,2020-06-05_12h47.53.140,TranslationElicitation_eng-prolific,3.2.4,MacIntel,60,5d6c21b0a9d20a0001de501b,5.299999952,1,0,98,63,1,97
,,,,,,,,,,,,,,,,,,,,,,,,,,,,,,,,,,,,,,,,,,,,,,,,,,,67,muneca,Spanish,Sounds/spa_muneca.mp3,2020-06-05_12h47.53.140,TranslationElicitation_eng-prolific,3.2.4,MacIntel,60,5d6c21b0a9d20a0001de501b,,1,0,98,63,1,97
,,,,,,,,,,,,,,,,,,,,,,,,,,,,,,,,,,,,,,,,,p,2.099999905,P,FALSE,,,,,,,10,botella,Spanish,Sounds/spa_botella.mp3,2020-06-05_12h47.53.140,TranslationElicitation_eng-prolific,3.2.4,MacIntel,60,5d6c21b0a9d20a0001de501b,,1,0,98,8,1,97
,,,,,,,,,,,,,,,,,,,,,,,,,,,,,,,,,,,,,,,,,backspace,3.06799984,,TRUE,,,,,,,10,botella,Spanish,Sounds/spa_botella.mp3,2020-06-05_12h47.53.140,TranslationElicitation_eng-prolific,3.2.4,MacIntel,60,5d6c21b0a9d20a0001de501b,,1,0,98,8,1,97
,,,,,,,,,,,,,,,,,,,,,,,,,,,,,,,,,,,,,,,,,b,3.700999975,B,TRUE,,,,,,,10,botella,Spanish,Sounds/spa_botella.mp3,2020-06-05_12h47.53.140,TranslationElicitation_eng-prolific,3.2.4,MacIntel,60,5d6c21b0a9d20a0001de501b,,1,0,98,8,1,97
,,,,,,,,,,,,,,,,,,,,,,,,,,,,,,,,,,,,,,,,,o,3.984999895,BO,TRUE,,,,,,,10,botella,Spanish,Sounds/spa_botella.mp3,2020-06-05_12h47.53.140,TranslationElicitation_eng-prolific,3.2.4,MacIntel,60,5d6c21b0a9d20a0001de501b,,1,0,98,8,1,97
,,,,,,,,,,,,,,,,,,,,,,,,,,,,,,,,,,,,,,,,,t,4.3349998,BOT,TRUE,,,,,,,10,botella,Spanish,Sounds/spa_botella.mp3,2020-06-05_12h47.53.140,TranslationElicitation_eng-prolific,3.2.4,MacIntel,60,5d6c21b0a9d20a0001de501b,,1,0,98,8,1,97
,,,,,,,,,,,,,,,,,,,,,,,,,,,,,,,,,,,,,,,,,e,5.217000008,BOTE,TRUE,,,,,,,10,botella,Spanish,Sounds/spa_botella.mp3,2020-06-05_12h47.53.140,TranslationElicitation_eng-prolific,3.2.4,MacIntel,60,5d6c21b0a9d20a0001de501b,,1,0,98,8,1,97
,,,,,,,,,,,,,,,,,,,,,,,,,,,,,,,,,,,,,,,,,l,5.483999968,BOTEL,TRUE,,,,,,,10,botella,Spanish,Sounds/spa_botella.mp3,2020-06-05_12h47.53.140,TranslationElicitation_eng-prolific,3.2.4,MacIntel,60,5d6c21b0a9d20a0001de501b,,1,0,98,8,1,97
,,,,,,,,,,,,,,,,,,,,,,,,,,,,,,,,,,,,,,,,,l,5.616999865,BOTELL,TRUE,,,,,,,10,botella,Spanish,Sounds/spa_botella.mp3,2020-06-05_12h47.53.140,TranslationElicitation_eng-prolific,3.2.4,MacIntel,60,5d6c21b0a9d20a0001de501b,,1,0,98,8,1,97
,,,,,,,,,,,,,,,,,,,,,,,,,,,,,,,,,,,,,,,,,a,5.733999968,BOTELLA,TRUE,,,,,,,10,botella,Spanish,Sounds/spa_botella.mp3,2020-06-05_12h47.53.140,TranslationElicitation_eng-prolific,3.2.4,MacIntel,60,5d6c21b0a9d20a0001de501b,,1,0,98,8,1,97
,,,,,,,,,,,,,,,,,,,,,,,,,,,,,,,,,,,,,,,,,return,6.083999872,BOTELLA,TRUE,,,,,,,10,botella,Spanish,Sounds/spa_botella.mp3,2020-06-05_12h47.53.140,TranslationElicitation_eng-prolific,3.2.4,MacIntel,60,5d6c21b0a9d20a0001de501b,6.083999872,1,0,98,8,1,97
,,,,,,,,,,,,,,,,,,,,,,,,,,,,,,,,,,,,,,,,,,,,,,,,,,,10,botella,Spanish,Sounds/spa_botella.mp3,2020-06-05_12h47.53.140,TranslationElicitation_eng-prolific,3.2.4,MacIntel,60,5d6c21b0a9d20a0001de501b,,1,0,98,8,1,97
,,,,,,,,,,,,,,,,,,,,,,,,,,,,,,,,,,,,,,,,,b,1.597999811,B,FALSE,,,,,,,102,ventana,Spanish,Sounds/spa_ventana.mp3,2020-06-05_12h47.53.140,TranslationElicitation_eng-prolific,3.2.4,MacIntel,60,5d6c21b0a9d20a0001de501b,,1,0,98,96,1,97
,,,,,,,,,,,,,,,,,,,,,,,,,,,,,,,,,,,,,,,,,e,1.747999907,BE,FALSE,,,,,,,102,ventana,Spanish,Sounds/spa_ventana.mp3,2020-06-05_12h47.53.140,TranslationElicitation_eng-prolific,3.2.4,MacIntel,60,5d6c21b0a9d20a0001de501b,,1,0,98,96,1,97
,,,,,,,,,,,,,,,,,,,,,,,,,,,,,,,,,,,,,,,,,n,1.898000002,BEN,FALSE,,,,,,,102,ventana,Spanish,Sounds/spa_ventana.mp3,2020-06-05_12h47.53.140,TranslationElicitation_eng-prolific,3.2.4,MacIntel,60,5d6c21b0a9d20a0001de501b,,1,0,98,96,1,97
,,,,,,,,,,,,,,,,,,,,,,,,,,,,,,,,,,,,,,,,,d,2.047999859,BEND,FALSE,,,,,,,102,ventana,Spanish,Sounds/spa_ventana.mp3,2020-06-05_12h47.53.140,TranslationElicitation_eng-prolific,3.2.4,MacIntel,60,5d6c21b0a9d20a0001de501b,,1,0,98,96,1,97
,,,,,,,,,,,,,,,,,,,,,,,,,,,,,,,,,,,,,,,,,backspace,2.797999859,BEN,TRUE,,,,,,,102,ventana,Spanish,Sounds/spa_ventana.mp3,2020-06-05_12h47.53.140,TranslationElicitation_eng-prolific,3.2.4,MacIntel,60,5d6c21b0a9d20a0001de501b,,1,0,98,96,1,97
,,,,,,,,,,,,,,,,,,,,,,,,,,,,,,,,,,,,,,,,,t,3.664999962,BENT,TRUE,,,,,,,102,ventana,Spanish,Sounds/spa_ventana.mp3,2020-06-05_12h47.53.140,TranslationElicitation_eng-prolific,3.2.4,MacIntel,60,5d6c21b0a9d20a0001de501b,,1,0,98,96,1,97
,,,,,,,,,,,,,,,,,,,,,,,,,,,,,,,,,,,,,,,,,a,4.214999914,BENTA,TRUE,,,,,,,102,ventana,Spanish,Sounds/spa_ventana.mp3,2020-06-05_12h47.53.140,TranslationElicitation_eng-prolific,3.2.4,MacIntel,60,5d6c21b0a9d20a0001de501b,,1,0,98,96,1,97
,,,,,,,,,,,,,,,,,,,,,,,,,,,,,,,,,,,,,,,,,n,4.316999912,BENTAN,TRUE,,,,,,,102,ventana,Spanish,Sounds/spa_ventana.mp3,2020-06-05_12h47.53.140,TranslationElicitation_eng-prolific,3.2.4,MacIntel,60,5d6c21b0a9d20a0001de501b,,1,0,98,96,1,97
,,,,,,,,,,,,,,,,,,,,,,,,,,,,,,,,,,,,,,,,,a,4.448999882,BENTANA,TRUE,,,,,,,102,ventana,Spanish,Sounds/spa_ventana.mp3,2020-06-05_12h47.53.140,TranslationElicitation_eng-prolific,3.2.4,MacIntel,60,5d6c21b0a9d20a0001de501b,,1,0,98,96,1,97
