consentKey.keys,consentKey.rt,languageL1Key.keys,languageL1Key.rt,languageL2,languageL2OralKey.keys,languageL2OralKey.rt,languageL2WrittenKey.keys,languageL2WrittenKey.rt,languageL3OralKey.keys,languageL3OralKey.rt,languageL3WrittenKey.keys,languageL3WrittenKey.rt,languageCatalanOralKey.keys,languageCatalanOralKey.rt,languageCatalanWrittenKey.keys,languageCatalanWrittenKey.rt,languageCatalanTimeKey.keys,languageCatalanTimeKey.rt,languageSpanishOralKey.keys,languageSpanishOralKey.rt,languageSpanishWrittenKey.keys,languageSpanishWrittenKey.rt,languageSpanishTimeKey.keys,languageSpanishTimeKey.rt,age,demoSexKey.keys,demoSexKey.rt,demoEducationKey.keys,demoEducationKey.rt,city,demoVisionKey.keys,demoVisionKey.rt,demoLanguageKey.keys,demoLanguageKey.rt,setupLocationKey.keys,setupLocationKey.rt,setupNoiseKey.keys,setupNoiseKey.rt,instructionsKeys.keys,instructionsKeys.rt,keyPressed,keyPressTime,inputText,error,trialsPracticeCatalan.thisRepN,trialsPracticeCatalan.thisTrialN,trialsPracticeCatalan.thisN,trialsPracticeCatalan.thisIndex,trialsPracticeCatalan.ran,trialsPracticeCatalan.order,trial_id,word,test_language,soundfile,date,expName,psychopyVersion,OS,frameRate,participant,trialOffset,trialsCatalan.thisRepN,trialsCatalan.thisTrialN,trialsCatalan.thisN,trialsCatalan.thisIndex,trialsCatalan.ran,trialsCatalan.order
space,2.935000181,e,3.805000305,,,,,,,,,,2,7.080000162,3,12.4150002,2,5.301000118,2,4.590000153,3,6.539000034,1,4.802999973,21,f,1.426000118,4,2.466000319,BATH,y,2.545000315,n,1.940000296,1,2.387000084,1,2.639000177,space,4.965000153,j,6.81799984,J,FALSE,1,0,5,2,1,4,147,jaqueta,Catalan,Sounds/cat_jaqueta.mp3,2020-06-08_18h10.33.623,TranslationElicitation_eng-prolific,3.2.4,MacIntel,60,5d7b89d48fb7ce00018112ea,,,,,,,
,,,,,,,,,,,,,,,,,,,,,,,,,,,,,,,,,,,,,,,,,a,6.932999849,JA,FALSE,1,0,5,2,1,4,147,jaqueta,Catalan,Sounds/cat_jaqueta.mp3,2020-06-08_18h10.33.623,TranslationElicitation_eng-prolific,3.2.4,MacIntel,60,5d7b89d48fb7ce00018112ea,,,,,,,
,,,,,,,,,,,,,,,,,,,,,,,,,,,,,,,,,,,,,,,,,c,7.003999949,JAC,FALSE,1,0,5,2,1,4,147,jaqueta,Catalan,Sounds/cat_jaqueta.mp3,2020-06-08_18h10.33.623,TranslationElicitation_eng-prolific,3.2.4,MacIntel,60,5d7b89d48fb7ce00018112ea,,,,,,,
,,,,,,,,,,,,,,,,,,,,,,,,,,,,,,,,,,,,,,,,,k,7.121999979,JACK,FALSE,1,0,5,2,1,4,147,jaqueta,Catalan,Sounds/cat_jaqueta.mp3,2020-06-08_18h10.33.623,TranslationElicitation_eng-prolific,3.2.4,MacIntel,60,5d7b89d48fb7ce00018112ea,,,,,,,
,,,,,,,,,,,,,,,,,,,,,,,,,,,,,,,,,,,,,,,,,e,7.214999914,JACKE,FALSE,1,0,5,2,1,4,147,jaqueta,Catalan,Sounds/cat_jaqueta.mp3,2020-06-08_18h10.33.623,TranslationElicitation_eng-prolific,3.2.4,MacIntel,60,5d7b89d48fb7ce00018112ea,,,,,,,
,,,,,,,,,,,,,,,,,,,,,,,,,,,,,,,,,,,,,,,,,t,7.339999914,JACKET,FALSE,1,0,5,2,1,4,147,jaqueta,Catalan,Sounds/cat_jaqueta.mp3,2020-06-08_18h10.33.623,TranslationElicitation_eng-prolific,3.2.4,MacIntel,60,5d7b89d48fb7ce00018112ea,,,,,,,
,,,,,,,,,,,,,,,,,,,,,,,,,,,,,,,,,,,,,,,,,return,8.154999971,JACKET,FALSE,1,0,5,2,1,4,147,jaqueta,Catalan,Sounds/cat_jaqueta.mp3,2020-06-08_18h10.33.623,TranslationElicitation_eng-prolific,3.2.4,MacIntel,60,5d7b89d48fb7ce00018112ea,8.154999971,,,,,,
,,,,,,,,,,,,,,,,,,,,,,,,,,,,,,,,,,,,,,,,,,,,,1,0,5,2,1,4,147,jaqueta,Catalan,Sounds/cat_jaqueta.mp3,2020-06-08_18h10.33.623,TranslationElicitation_eng-prolific,3.2.4,MacIntel,60,5d7b89d48fb7ce00018112ea,,,,,,,
,,,,,,,,,,,,,,,,,,,,,,,,,,,,,,,,,,,,,,,,,t,8.55099988,T,FALSE,1,0,5,4,1,4,179,tigre,Catalan,Sounds/cat_tigre.mp3,2020-06-08_18h10.33.623,TranslationElicitation_eng-prolific,3.2.4,MacIntel,60,5d7b89d48fb7ce00018112ea,,,,,,,
,,,,,,,,,,,,,,,,,,,,,,,,,,,,,,,,,,,,,,,,,i,8.661000013,TI,FALSE,1,0,5,4,1,4,179,tigre,Catalan,Sounds/cat_tigre.mp3,2020-06-08_18h10.33.623,TranslationElicitation_eng-prolific,3.2.4,MacIntel,60,5d7b89d48fb7ce00018112ea,,,,,,,
,,,,,,,,,,,,,,,,,,,,,,,,,,,,,,,,,,,,,,,,,g,8.805999994,TIG,FALSE,1,0,5,4,1,4,179,tigre,Catalan,Sounds/cat_tigre.mp3,2020-06-08_18h10.33.623,TranslationElicitation_eng-prolific,3.2.4,MacIntel,60,5d7b89d48fb7ce00018112ea,,,,,,,
,,,,,,,,,,,,,,,,,,,,,,,,,,,,,,,,,,,,,,,,,e,8.95299983,TIGE,FALSE,1,0,5,4,1,4,179,tigre,Catalan,Sounds/cat_tigre.mp3,2020-06-08_18h10.33.623,TranslationElicitation_eng-prolific,3.2.4,MacIntel,60,5d7b89d48fb7ce00018112ea,,,,,,,
,,,,,,,,,,,,,,,,,,,,,,,,,,,,,,,,,,,,,,,,,r,9.065999985,TIGER,FALSE,1,0,5,4,1,4,179,tigre,Catalan,Sounds/cat_tigre.mp3,2020-06-08_18h10.33.623,TranslationElicitation_eng-prolific,3.2.4,MacIntel,60,5d7b89d48fb7ce00018112ea,,,,,,,
,,,,,,,,,,,,,,,,,,,,,,,,,,,,,,,,,,,,,,,,,return,10.28699994,TIGER,FALSE,1,0,5,4,1,4,179,tigre,Catalan,Sounds/cat_tigre.mp3,2020-06-08_18h10.33.623,TranslationElicitation_eng-prolific,3.2.4,MacIntel,60,5d7b89d48fb7ce00018112ea,10.28699994,,,,,,
,,,,,,,,,,,,,,,,,,,,,,,,,,,,,,,,,,,,,,,,,,,,,1,0,5,4,1,4,179,tigre,Catalan,Sounds/cat_tigre.mp3,2020-06-08_18h10.33.623,TranslationElicitation_eng-prolific,3.2.4,MacIntel,60,5d7b89d48fb7ce00018112ea,,,,,,,
,,,,,,,,,,,,,,,,,,,,,,,,,,,,,,,,,,,,,,,,,n,5.266000032,N,FALSE,1,0,5,3,1,4,159,onada,Catalan,Sounds/cat_onada.mp3,2020-06-08_18h10.33.623,TranslationElicitation_eng-prolific,3.2.4,MacIntel,60,5d7b89d48fb7ce00018112ea,,,,,,,
,,,,,,,,,,,,,,,,,,,,,,,,,,,,,,,,,,,,,,,,,o,5.458000183,NO,FALSE,1,0,5,3,1,4,159,onada,Catalan,Sounds/cat_onada.mp3,2020-06-08_18h10.33.623,TranslationElicitation_eng-prolific,3.2.4,MacIntel,60,5d7b89d48fb7ce00018112ea,,,,,,,
,,,,,,,,,,,,,,,,,,,,,,,,,,,,,,,,,,,,,,,,,t,5.582000017,NOT,FALSE,1,0,5,3,1,4,159,onada,Catalan,Sounds/cat_onada.mp3,2020-06-08_18h10.33.623,TranslationElicitation_eng-prolific,3.2.4,MacIntel,60,5d7b89d48fb7ce00018112ea,,,,,,,
,,,,,,,,,,,,,,,,,,,,,,,,,,,,,,,,,,,,,,,,,h,5.667999983,NOTH,FALSE,1,0,5,3,1,4,159,onada,Catalan,Sounds/cat_onada.mp3,2020-06-08_18h10.33.623,TranslationElicitation_eng-prolific,3.2.4,MacIntel,60,5d7b89d48fb7ce00018112ea,,,,,,,
,,,,,,,,,,,,,,,,,,,,,,,,,,,,,,,,,,,,,,,,,i,5.854000092,NOTHI,FALSE,1,0,5,3,1,4,159,onada,Catalan,Sounds/cat_onada.mp3,2020-06-08_18h10.33.623,TranslationElicitation_eng-prolific,3.2.4,MacIntel,60,5d7b89d48fb7ce00018112ea,,,,,,,
,,,,,,,,,,,,,,,,,,,,,,,,,,,,,,,,,,,,,,,,,n,6.087000132,NOTHIN,FALSE,1,0,5,3,1,4,159,onada,Catalan,Sounds/cat_onada.mp3,2020-06-08_18h10.33.623,TranslationElicitation_eng-prolific,3.2.4,MacIntel,60,5d7b89d48fb7ce00018112ea,,,,,,,
,,,,,,,,,,,,,,,,,,,,,,,,,,,,,,,,,,,,,,,,,g,6.202000141,NOTHING,FALSE,1,0,5,3,1,4,159,onada,Catalan,Sounds/cat_onada.mp3,2020-06-08_18h10.33.623,TranslationElicitation_eng-prolific,3.2.4,MacIntel,60,5d7b89d48fb7ce00018112ea,,,,,,,
,,,,,,,,,,,,,,,,,,,,,,,,,,,,,,,,,,,,,,,,,return,6.843000174,NOTHING,FALSE,1,0,5,3,1,4,159,onada,Catalan,Sounds/cat_onada.mp3,2020-06-08_18h10.33.623,TranslationElicitation_eng-prolific,3.2.4,MacIntel,60,5d7b89d48fb7ce00018112ea,6.843000174,,,,,,
,,,,,,,,,,,,,,,,,,,,,,,,,,,,,,,,,,,,,,,,,,,,,1,0,5,3,1,4,159,onada,Catalan,Sounds/cat_onada.mp3,2020-06-08_18h10.33.623,TranslationElicitation_eng-prolific,3.2.4,MacIntel,60,5d7b89d48fb7ce00018112ea,,,,,,,
,,,,,,,,,,,,,,,,,,,,,,,,,,,,,,,,,,,,,,,,,w,3.467999935,W,FALSE,1,0,5,0,1,4,109,arbre,Catalan,Sounds/cat_arbre.mp3,2020-06-08_18h10.33.623,TranslationElicitation_eng-prolific,3.2.4,MacIntel,60,5d7b89d48fb7ce00018112ea,,,,,,,
,,,,,,,,,,,,,,,,,,,,,,,,,,,,,,,,,,,,,,,,,a,3.638000011,WA,FALSE,1,0,5,0,1,4,109,arbre,Catalan,Sounds/cat_arbre.mp3,2020-06-08_18h10.33.623,TranslationElicitation_eng-prolific,3.2.4,MacIntel,60,5d7b89d48fb7ce00018112ea,,,,,,,
,,,,,,,,,,,,,,,,,,,,,,,,,,,,,,,,,,,,,,,,,r,3.763999939,WAR,FALSE,1,0,5,0,1,4,109,arbre,Catalan,Sounds/cat_arbre.mp3,2020-06-08_18h10.33.623,TranslationElicitation_eng-prolific,3.2.4,MacIntel,60,5d7b89d48fb7ce00018112ea,,,,,,,
,,,,,,,,,,,,,,,,,,,,,,,,,,,,,,,,,,,,,,,,,d,3.970999956,WARD,FALSE,1,0,5,0,1,4,109,arbre,Catalan,Sounds/cat_arbre.mp3,2020-06-08_18h10.33.623,TranslationElicitation_eng-prolific,3.2.4,MacIntel,60,5d7b89d48fb7ce00018112ea,,,,,,,
,,,,,,,,,,,,,,,,,,,,,,,,,,,,,,,,,,,,,,,,,r,4.164000034,WARDR,FALSE,1,0,5,0,1,4,109,arbre,Catalan,Sounds/cat_arbre.mp3,2020-06-08_18h10.33.623,TranslationElicitation_eng-prolific,3.2.4,MacIntel,60,5d7b89d48fb7ce00018112ea,,,,,,,
,,,,,,,,,,,,,,,,,,,,,,,,,,,,,,,,,,,,,,,,,o,4.280999899,WARDRO,FALSE,1,0,5,0,1,4,109,arbre,Catalan,Sounds/cat_arbre.mp3,2020-06-08_18h10.33.623,TranslationElicitation_eng-prolific,3.2.4,MacIntel,60,5d7b89d48fb7ce00018112ea,,,,,,,
,,,,,,,,,,,,,,,,,,,,,,,,,,,,,,,,,,,,,,,,,b,5.105000019,WARDROB,FALSE,1,0,5,0,1,4,109,arbre,Catalan,Sounds/cat_arbre.mp3,2020-06-08_18h10.33.623,TranslationElicitation_eng-prolific,3.2.4,MacIntel,60,5d7b89d48fb7ce00018112ea,,,,,,,
,,,,,,,,,,,,,,,,,,,,,,,,,,,,,,,,,,,,,,,,,e,5.228999853,WARDROBE,FALSE,1,0,5,0,1,4,109,arbre,Catalan,Sounds/cat_arbre.mp3,2020-06-08_18h10.33.623,TranslationElicitation_eng-prolific,3.2.4,MacIntel,60,5d7b89d48fb7ce00018112ea,,,,,,,
,,,,,,,,,,,,,,,,,,,,,,,,,,,,,,,,,,,,,,,,,return,5.529999971,WARDROBE,FALSE,1,0,5,0,1,4,109,arbre,Catalan,Sounds/cat_arbre.mp3,2020-06-08_18h10.33.623,TranslationElicitation_eng-prolific,3.2.4,MacIntel,60,5d7b89d48fb7ce00018112ea,5.529999971,,,,,,
,,,,,,,,,,,,,,,,,,,,,,,,,,,,,,,,,,,,,,,,,,,,,1,0,5,0,1,4,109,arbre,Catalan,Sounds/cat_arbre.mp3,2020-06-08_18h10.33.623,TranslationElicitation_eng-prolific,3.2.4,MacIntel,60,5d7b89d48fb7ce00018112ea,,,,,,,
,,,,,,,,,,,,,,,,,,,,,,,,,,,,,,,,,,,,,,,,,b,3.100000143,B,FALSE,1,0,5,1,1,4,126,corona,Catalan,Sounds/cat_corona.mp3,2020-06-08_18h10.33.623,TranslationElicitation_eng-prolific,3.2.4,MacIntel,60,5d7b89d48fb7ce00018112ea,,,,,,,
,,,,,,,,,,,,,,,,,,,,,,,,,,,,,,,,,,,,,,,,,e,3.765000105,BE,FALSE,1,0,5,1,1,4,126,corona,Catalan,Sounds/cat_corona.mp3,2020-06-08_18h10.33.623,TranslationElicitation_eng-prolific,3.2.4,MacIntel,60,5d7b89d48fb7ce00018112ea,,,,,,,
,,,,,,,,,,,,,,,,,,,,,,,,,,,,,,,,,,,,,,,,,e,3.935000181,BEE,FALSE,1,0,5,1,1,4,126,corona,Catalan,Sounds/cat_corona.mp3,2020-06-08_18h10.33.623,TranslationElicitation_eng-prolific,3.2.4,MacIntel,60,5d7b89d48fb7ce00018112ea,,,,,,,
,,,,,,,,,,,,,,,,,,,,,,,,,,,,,,,,,,,,,,,,,r,5.067000151,BEER,FALSE,1,0,5,1,1,4,126,corona,Catalan,Sounds/cat_corona.mp3,2020-06-08_18h10.33.623,TranslationElicitation_eng-prolific,3.2.4,MacIntel,60,5d7b89d48fb7ce00018112ea,,,,,,,
,,,,,,,,,,,,,,,,,,,,,,,,,,,,,,,,,,,,,,,,,backspace,8.526000023,BEE,TRUE,1,0,5,1,1,4,126,corona,Catalan,Sounds/cat_corona.mp3,2020-06-08_18h10.33.623,TranslationElicitation_eng-prolific,3.2.4,MacIntel,60,5d7b89d48fb7ce00018112ea,,,,,,,
,,,,,,,,,,,,,,,,,,,,,,,,,,,,,,,,,,,,,,,,,backspace,8.79700017,BE,TRUE,1,0,5,1,1,4,126,corona,Catalan,Sounds/cat_corona.mp3,2020-06-08_18h10.33.623,TranslationElicitation_eng-prolific,3.2.4,MacIntel,60,5d7b89d48fb7ce00018112ea,,,,,,,
,,,,,,,,,,,,,,,,,,,,,,,,,,,,,,,,,,,,,,,,,backspace,8.980000019,B,TRUE,1,0,5,1,1,4,126,corona,Catalan,Sounds/cat_corona.mp3,2020-06-08_18h10.33.623,TranslationElicitation_eng-prolific,3.2.4,MacIntel,60,5d7b89d48fb7ce00018112ea,,,,,,,
,,,,,,,,,,,,,,,,,,,,,,,,,,,,,,,,,,,,,,,,,backspace,9.112000227,,TRUE,1,0,5,1,1,4,126,corona,Catalan,Sounds/cat_corona.mp3,2020-06-08_18h10.33.623,TranslationElicitation_eng-prolific,3.2.4,MacIntel,60,5d7b89d48fb7ce00018112ea,,,,,,,
,,,,,,,,,,,,,,,,,,,,,,,,,,,,,,,,,,,,,,,,,backspace,9.243000031,,TRUE,1,0,5,1,1,4,126,corona,Catalan,Sounds/cat_corona.mp3,2020-06-08_18h10.33.623,TranslationElicitation_eng-prolific,3.2.4,MacIntel,60,5d7b89d48fb7ce00018112ea,,,,,,,
,,,,,,,,,,,,,,,,,,,,,,,,,,,,,,,,,,,,,,,,,c,9.69900012,C,TRUE,1,0,5,1,1,4,126,corona,Catalan,Sounds/cat_corona.mp3,2020-06-08_18h10.33.623,TranslationElicitation_eng-prolific,3.2.4,MacIntel,60,5d7b89d48fb7ce00018112ea,,,,,,,
,,,,,,,,,,,,,,,,,,,,,,,,,,,,,,,,,,,,,,,,,o,9.951000214,CO,TRUE,1,0,5,1,1,4,126,corona,Catalan,Sounds/cat_corona.mp3,2020-06-08_18h10.33.623,TranslationElicitation_eng-prolific,3.2.4,MacIntel,60,5d7b89d48fb7ce00018112ea,,,,,,,
,,,,,,,,,,,,,,,,,,,,,,,,,,,,,,,,,,,,,,,,,r,10.09100008,COR,TRUE,1,0,5,1,1,4,126,corona,Catalan,Sounds/cat_corona.mp3,2020-06-08_18h10.33.623,TranslationElicitation_eng-prolific,3.2.4,MacIntel,60,5d7b89d48fb7ce00018112ea,,,,,,,
,,,,,,,,,,,,,,,,,,,,,,,,,,,,,,,,,,,,,,,,,o,10.26800013,CORO,TRUE,1,0,5,1,1,4,126,corona,Catalan,Sounds/cat_corona.mp3,2020-06-08_18h10.33.623,TranslationElicitation_eng-prolific,3.2.4,MacIntel,60,5d7b89d48fb7ce00018112ea,,,,,,,
,,,,,,,,,,,,,,,,,,,,,,,,,,,,,,,,,,,,,,,,,n,10.43200016,CORON,TRUE,1,0,5,1,1,4,126,corona,Catalan,Sounds/cat_corona.mp3,2020-06-08_18h10.33.623,TranslationElicitation_eng-prolific,3.2.4,MacIntel,60,5d7b89d48fb7ce00018112ea,,,,,,,
,,,,,,,,,,,,,,,,,,,,,,,,,,,,,,,,,,,,,,,,,a,10.53600001,CORONA,TRUE,1,0,5,1,1,4,126,corona,Catalan,Sounds/cat_corona.mp3,2020-06-08_18h10.33.623,TranslationElicitation_eng-prolific,3.2.4,MacIntel,60,5d7b89d48fb7ce00018112ea,,,,,,,
,,,,,,,,,,,,,,,,,,,,,,,,,,,,,,,,,,,,,,,,,return,10.83500004,CORONA,TRUE,1,0,5,1,1,4,126,corona,Catalan,Sounds/cat_corona.mp3,2020-06-08_18h10.33.623,TranslationElicitation_eng-prolific,3.2.4,MacIntel,60,5d7b89d48fb7ce00018112ea,10.83500004,,,,,,
,,,,,,,,,,,,,,,,,,,,,,,,,,,,,,,,,,,,,,,,,,,,,1,0,5,1,1,4,126,corona,Catalan,Sounds/cat_corona.mp3,2020-06-08_18h10.33.623,TranslationElicitation_eng-prolific,3.2.4,MacIntel,60,5d7b89d48fb7ce00018112ea,,,,,,,
,,,,,,,,,,,,,,,,,,,,,,,,,,,,,,,,,,,,,,,,,b,3.067000151,B,FALSE,,,,,,,118,bou,Catalan,Sounds/cat_bou.mp3,2020-06-08_18h10.33.623,TranslationElicitation_eng-prolific,3.2.4,MacIntel,60,5d7b89d48fb7ce00018112ea,,1,0,81,13,1,80
,,,,,,,,,,,,,,,,,,,,,,,,,,,,,,,,,,,,,,,,,o,3.483999968,BO,FALSE,,,,,,,118,bou,Catalan,Sounds/cat_bou.mp3,2020-06-08_18h10.33.623,TranslationElicitation_eng-prolific,3.2.4,MacIntel,60,5d7b89d48fb7ce00018112ea,,1,0,81,13,1,80
,,,,,,,,,,,,,,,,,,,,,,,,,,,,,,,,,,,,,,,,,w,3.683000088,BOW,FALSE,,,,,,,118,bou,Catalan,Sounds/cat_bou.mp3,2020-06-08_18h10.33.623,TranslationElicitation_eng-prolific,3.2.4,MacIntel,60,5d7b89d48fb7ce00018112ea,,1,0,81,13,1,80
,,,,,,,,,,,,,,,,,,,,,,,,,,,,,,,,,,,,,,,,,l,3.768000126,BOWL,FALSE,,,,,,,118,bou,Catalan,Sounds/cat_bou.mp3,2020-06-08_18h10.33.623,TranslationElicitation_eng-prolific,3.2.4,MacIntel,60,5d7b89d48fb7ce00018112ea,,1,0,81,13,1,80
,,,,,,,,,,,,,,,,,,,,,,,,,,,,,,,,,,,,,,,,,return,5.296999931,BOWL,FALSE,,,,,,,118,bou,Catalan,Sounds/cat_bou.mp3,2020-06-08_18h10.33.623,TranslationElicitation_eng-prolific,3.2.4,MacIntel,60,5d7b89d48fb7ce00018112ea,5.296999931,1,0,81,13,1,80
,,,,,,,,,,,,,,,,,,,,,,,,,,,,,,,,,,,,,,,,,,,,,,,,,,,118,bou,Catalan,Sounds/cat_bou.mp3,2020-06-08_18h10.33.623,TranslationElicitation_eng-prolific,3.2.4,MacIntel,60,5d7b89d48fb7ce00018112ea,,1,0,81,13,1,80
,,,,,,,,,,,,,,,,,,,,,,,,,,,,,,,,,,,,,,,,,p,3.217999935,P,FALSE,,,,,,,125,colom,Catalan,Sounds/cat_colom.mp3,2020-06-08_18h10.33.623,TranslationElicitation_eng-prolific,3.2.4,MacIntel,60,5d7b89d48fb7ce00018112ea,,1,0,81,20,1,80
,,,,,,,,,,,,,,,,,,,,,,,,,,,,,,,,,,,,,,,,,e,3.351999998,PE,FALSE,,,,,,,125,colom,Catalan,Sounds/cat_colom.mp3,2020-06-08_18h10.33.623,TranslationElicitation_eng-prolific,3.2.4,MacIntel,60,5d7b89d48fb7ce00018112ea,,1,0,81,20,1,80
,,,,,,,,,,,,,,,,,,,,,,,,,,,,,,,,,,,,,,,,,r,3.398999929,PER,FALSE,,,,,,,125,colom,Catalan,Sounds/cat_colom.mp3,2020-06-08_18h10.33.623,TranslationElicitation_eng-prolific,3.2.4,MacIntel,60,5d7b89d48fb7ce00018112ea,,1,0,81,20,1,80
,,,,,,,,,,,,,,,,,,,,,,,,,,,,,,,,,,,,,,,,,f,3.605999947,PERF,FALSE,,,,,,,125,colom,Catalan,Sounds/cat_colom.mp3,2020-06-08_18h10.33.623,TranslationElicitation_eng-prolific,3.2.4,MacIntel,60,5d7b89d48fb7ce00018112ea,,1,0,81,20,1,80
,,,,,,,,,,,,,,,,,,,,,,,,,,,,,,,,,,,,,,,,,u,3.674000025,PERFU,FALSE,,,,,,,125,colom,Catalan,Sounds/cat_colom.mp3,2020-06-08_18h10.33.623,TranslationElicitation_eng-prolific,3.2.4,MacIntel,60,5d7b89d48fb7ce00018112ea,,1,0,81,20,1,80
,,,,,,,,,,,,,,,,,,,,,,,,,,,,,,,,,,,,,,,,,m,3.921999931,PERFUM,FALSE,,,,,,,125,colom,Catalan,Sounds/cat_colom.mp3,2020-06-08_18h10.33.623,TranslationElicitation_eng-prolific,3.2.4,MacIntel,60,5d7b89d48fb7ce00018112ea,,1,0,81,20,1,80
,,,,,,,,,,,,,,,,,,,,,,,,,,,,,,,,,,,,,,,,,e,4.164000034,PERFUME,FALSE,,,,,,,125,colom,Catalan,Sounds/cat_colom.mp3,2020-06-08_18h10.33.623,TranslationElicitation_eng-prolific,3.2.4,MacIntel,60,5d7b89d48fb7ce00018112ea,,1,0,81,20,1,80
,,,,,,,,,,,,,,,,,,,,,,,,,,,,,,,,,,,,,,,,,return,4.907999992,PERFUME,FALSE,,,,,,,125,colom,Catalan,Sounds/cat_colom.mp3,2020-06-08_18h10.33.623,TranslationElicitation_eng-prolific,3.2.4,MacIntel,60,5d7b89d48fb7ce00018112ea,4.907999992,1,0,81,20,1,80
,,,,,,,,,,,,,,,,,,,,,,,,,,,,,,,,,,,,,,,,,,,,,,,,,,,125,colom,Catalan,Sounds/cat_colom.mp3,2020-06-08_18h10.33.623,TranslationElicitation_eng-prolific,3.2.4,MacIntel,60,5d7b89d48fb7ce00018112ea,,1,0,81,20,1,80
,,,,,,,,,,,,,,,,,,,,,,,,,,,,,,,,,,,,,,,,,s,6.917000055,S,FALSE,,,,,,,177,sol,Catalan,Sounds/cat_sol.mp3,2020-06-08_18h10.33.623,TranslationElicitation_eng-prolific,3.2.4,MacIntel,60,5d7b89d48fb7ce00018112ea,,1,0,81,69,1,80
,,,,,,,,,,,,,,,,,,,,,,,,,,,,,,,,,,,,,,,,,u,7.076999903,SU,FALSE,,,,,,,177,sol,Catalan,Sounds/cat_sol.mp3,2020-06-08_18h10.33.623,TranslationElicitation_eng-prolific,3.2.4,MacIntel,60,5d7b89d48fb7ce00018112ea,,1,0,81,69,1,80
,,,,,,,,,,,,,,,,,,,,,,,,,,,,,,,,,,,,,,,,,n,7.200000048,SUN,FALSE,,,,,,,177,sol,Catalan,Sounds/cat_sol.mp3,2020-06-08_18h10.33.623,TranslationElicitation_eng-prolific,3.2.4,MacIntel,60,5d7b89d48fb7ce00018112ea,,1,0,81,69,1,80
,,,,,,,,,,,,,,,,,,,,,,,,,,,,,,,,,,,,,,,,,return,7.440000057,SUN,FALSE,,,,,,,177,sol,Catalan,Sounds/cat_sol.mp3,2020-06-08_18h10.33.623,TranslationElicitation_eng-prolific,3.2.4,MacIntel,60,5d7b89d48fb7ce00018112ea,7.440000057,1,0,81,69,1,80
,,,,,,,,,,,,,,,,,,,,,,,,,,,,,,,,,,,,,,,,,,,,,,,,,,,177,sol,Catalan,Sounds/cat_sol.mp3,2020-06-08_18h10.33.623,TranslationElicitation_eng-prolific,3.2.4,MacIntel,60,5d7b89d48fb7ce00018112ea,,1,0,81,69,1,80
,,,,,,,,,,,,,,,,,,,,,,,,,,,,,,,,,,,,,,,,,m,5.884000063,M,FALSE,,,,,,,119,caixa,Catalan,Sounds/cat_caixa.mp3,2020-06-08_18h10.33.623,TranslationElicitation_eng-prolific,3.2.4,MacIntel,60,5d7b89d48fb7ce00018112ea,,1,0,81,14,1,80
,,,,,,,,,,,,,,,,,,,,,,,,,,,,,,,,,,,,,,,,,o,6.017999887,MO,FALSE,,,,,,,119,caixa,Catalan,Sounds/cat_caixa.mp3,2020-06-08_18h10.33.623,TranslationElicitation_eng-prolific,3.2.4,MacIntel,60,5d7b89d48fb7ce00018112ea,,1,0,81,14,1,80
,,,,,,,,,,,,,,,,,,,,,,,,,,,,,,,,,,,,,,,,,n,6.167999983,MON,FALSE,,,,,,,119,caixa,Catalan,Sounds/cat_caixa.mp3,2020-06-08_18h10.33.623,TranslationElicitation_eng-prolific,3.2.4,MacIntel,60,5d7b89d48fb7ce00018112ea,,1,0,81,14,1,80
,,,,,,,,,,,,,,,,,,,,,,,,,,,,,,,,,,,,,,,,,e,6.286999941,MONE,FALSE,,,,,,,119,caixa,Catalan,Sounds/cat_caixa.mp3,2020-06-08_18h10.33.623,TranslationElicitation_eng-prolific,3.2.4,MacIntel,60,5d7b89d48fb7ce00018112ea,,1,0,81,14,1,80
,,,,,,,,,,,,,,,,,,,,,,,,,,,,,,,,,,,,,,,,,y,6.490999937,MONEY,FALSE,,,,,,,119,caixa,Catalan,Sounds/cat_caixa.mp3,2020-06-08_18h10.33.623,TranslationElicitation_eng-prolific,3.2.4,MacIntel,60,5d7b89d48fb7ce00018112ea,,1,0,81,14,1,80
,,,,,,,,,,,,,,,,,,,,,,,,,,,,,,,,,,,,,,,,,return,6.782999992,MONEY,FALSE,,,,,,,119,caixa,Catalan,Sounds/cat_caixa.mp3,2020-06-08_18h10.33.623,TranslationElicitation_eng-prolific,3.2.4,MacIntel,60,5d7b89d48fb7ce00018112ea,6.782999992,1,0,81,14,1,80
,,,,,,,,,,,,,,,,,,,,,,,,,,,,,,,,,,,,,,,,,,,,,,,,,,,119,caixa,Catalan,Sounds/cat_caixa.mp3,2020-06-08_18h10.33.623,TranslationElicitation_eng-prolific,3.2.4,MacIntel,60,5d7b89d48fb7ce00018112ea,,1,0,81,14,1,80
,,,,,,,,,,,,,,,,,,,,,,,,,,,,,,,,,,,,,,,,,h,11.87200022,H,FALSE,,,,,,,115,bolet,Catalan,Sounds/cat_bolet.mp3,2020-06-08_18h10.33.623,TranslationElicitation_eng-prolific,3.2.4,MacIntel,60,5d7b89d48fb7ce00018112ea,,1,0,81,10,1,80
,,,,,,,,,,,,,,,,,,,,,,,,,,,,,,,,,,,,,,,,,a,11.98200011,HA,FALSE,,,,,,,115,bolet,Catalan,Sounds/cat_bolet.mp3,2020-06-08_18h10.33.623,TranslationElicitation_eng-prolific,3.2.4,MacIntel,60,5d7b89d48fb7ce00018112ea,,1,0,81,10,1,80
,,,,,,,,,,,,,,,,,,,,,,,,,,,,,,,,,,,,,,,,,t,12.11800003,HAT,FALSE,,,,,,,115,bolet,Catalan,Sounds/cat_bolet.mp3,2020-06-08_18h10.33.623,TranslationElicitation_eng-prolific,3.2.4,MacIntel,60,5d7b89d48fb7ce00018112ea,,1,0,81,10,1,80
,,,,,,,,,,,,,,,,,,,,,,,,,,,,,,,,,,,,,,,,,return,12.352,HAT,FALSE,,,,,,,115,bolet,Catalan,Sounds/cat_bolet.mp3,2020-06-08_18h10.33.623,TranslationElicitation_eng-prolific,3.2.4,MacIntel,60,5d7b89d48fb7ce00018112ea,12.352,1,0,81,10,1,80
,,,,,,,,,,,,,,,,,,,,,,,,,,,,,,,,,,,,,,,,,,,,,,,,,,,115,bolet,Catalan,Sounds/cat_bolet.mp3,2020-06-08_18h10.33.623,TranslationElicitation_eng-prolific,3.2.4,MacIntel,60,5d7b89d48fb7ce00018112ea,,1,0,81,10,1,80
,,,,,,,,,,,,,,,,,,,,,,,,,,,,,,,,,,,,,,,,,t,21.22200012,T,FALSE,,,,,,,155,moneda,Catalan,Sounds/cat_moneda.mp3,2020-06-08_18h10.33.623,TranslationElicitation_eng-prolific,3.2.4,MacIntel,60,5d7b89d48fb7ce00018112ea,,1,0,81,48,1,80
,,,,,,,,,,,,,,,,,,,,,,,,,,,,,,,,,,,,,,,,,o,21.40900016,TO,FALSE,,,,,,,155,moneda,Catalan,Sounds/cat_moneda.mp3,2020-06-08_18h10.33.623,TranslationElicitation_eng-prolific,3.2.4,MacIntel,60,5d7b89d48fb7ce00018112ea,,1,0,81,48,1,80
,,,,,,,,,,,,,,,,,,,,,,,,,,,,,,,,,,,,,,,,,p,21.50999999,TOP,FALSE,,,,,,,155,moneda,Catalan,Sounds/cat_moneda.mp3,2020-06-08_18h10.33.623,TranslationElicitation_eng-prolific,3.2.4,MacIntel,60,5d7b89d48fb7ce00018112ea,,1,0,81,48,1,80
,,,,,,,,,,,,,,,,,,,,,,,,,,,,,,,,,,,,,,,,,return,21.93200016,TOP,FALSE,,,,,,,155,moneda,Catalan,Sounds/cat_moneda.mp3,2020-06-08_18h10.33.623,TranslationElicitation_eng-prolific,3.2.4,MacIntel,60,5d7b89d48fb7ce00018112ea,21.93200016,1,0,81,48,1,80
,,,,,,,,,,,,,,,,,,,,,,,,,,,,,,,,,,,,,,,,,,,,,,,,,,,155,moneda,Catalan,Sounds/cat_moneda.mp3,2020-06-08_18h10.33.623,TranslationElicitation_eng-prolific,3.2.4,MacIntel,60,5d7b89d48fb7ce00018112ea,,1,0,81,48,1,80
,,,,,,,,,,,,,,,,,,,,,,,,,,,,,,,,,,,,,,,,,a,8.006999969,A,FALSE,,,,,,,184,ull,Catalan,Sounds/cat_ull.mp3,2020-06-08_18h10.33.623,TranslationElicitation_eng-prolific,3.2.4,MacIntel,60,5d7b89d48fb7ce00018112ea,,1,0,81,75,1,80
,,,,,,,,,,,,,,,,,,,,,,,,,,,,,,,,,,,,,,,,,return,8.167999983,A,FALSE,,,,,,,184,ull,Catalan,Sounds/cat_ull.mp3,2020-06-08_18h10.33.623,TranslationElicitation_eng-prolific,3.2.4,MacIntel,60,5d7b89d48fb7ce00018112ea,8.167999983,1,0,81,75,1,80
,,,,,,,,,,,,,,,,,,,,,,,,,,,,,,,,,,,,,,,,,,,,,,,,,,,184,ull,Catalan,Sounds/cat_ull.mp3,2020-06-08_18h10.33.623,TranslationElicitation_eng-prolific,3.2.4,MacIntel,60,5d7b89d48fb7ce00018112ea,,1,0,81,75,1,80
,,,,,,,,,,,,,,,,,,,,,,,,,,,,,,,,,,,,,,,,,t,1.752000093,T,FALSE,,,,,,,182,tomaquet,Catalan,Sounds/cat_tomaquet.mp3,2020-06-08_18h10.33.623,TranslationElicitation_eng-prolific,3.2.4,MacIntel,60,5d7b89d48fb7ce00018112ea,,1,0,81,73,1,80
,,,,,,,,,,,,,,,,,,,,,,,,,,,,,,,,,,,,,,,,,o,1.853000164,TO,FALSE,,,,,,,182,tomaquet,Catalan,Sounds/cat_tomaquet.mp3,2020-06-08_18h10.33.623,TranslationElicitation_eng-prolific,3.2.4,MacIntel,60,5d7b89d48fb7ce00018112ea,,1,0,81,73,1,80
,,,,,,,,,,,,,,,,,,,,,,,,,,,,,,,,,,,,,,,,,m,2.291000128,TOM,FALSE,,,,,,,182,tomaquet,Catalan,Sounds/cat_tomaquet.mp3,2020-06-08_18h10.33.623,TranslationElicitation_eng-prolific,3.2.4,MacIntel,60,5d7b89d48fb7ce00018112ea,,1,0,81,73,1,80
,,,,,,,,,,,,,,,,,,,,,,,,,,,,,,,,,,,,,,,,,a,2.455000162,TOMA,FALSE,,,,,,,182,tomaquet,Catalan,Sounds/cat_tomaquet.mp3,2020-06-08_18h10.33.623,TranslationElicitation_eng-prolific,3.2.4,MacIntel,60,5d7b89d48fb7ce00018112ea,,1,0,81,73,1,80
,,,,,,,,,,,,,,,,,,,,,,,,,,,,,,,,,,,,,,,,,t,2.546000004,TOMAT,FALSE,,,,,,,182,tomaquet,Catalan,Sounds/cat_tomaquet.mp3,2020-06-08_18h10.33.623,TranslationElicitation_eng-prolific,3.2.4,MacIntel,60,5d7b89d48fb7ce00018112ea,,1,0,81,73,1,80
,,,,,,,,,,,,,,,,,,,,,,,,,,,,,,,,,,,,,,,,,o,2.65500021,TOMATO,FALSE,,,,,,,182,tomaquet,Catalan,Sounds/cat_tomaquet.mp3,2020-06-08_18h10.33.623,TranslationElicitation_eng-prolific,3.2.4,MacIntel,60,5d7b89d48fb7ce00018112ea,,1,0,81,73,1,80
,,,,,,,,,,,,,,,,,,,,,,,,,,,,,,,,,,,,,,,,,return,2.963000059,TOMATO,FALSE,,,,,,,182,tomaquet,Catalan,Sounds/cat_tomaquet.mp3,2020-06-08_18h10.33.623,TranslationElicitation_eng-prolific,3.2.4,MacIntel,60,5d7b89d48fb7ce00018112ea,2.963000059,1,0,81,73,1,80
,,,,,,,,,,,,,,,,,,,,,,,,,,,,,,,,,,,,,,,,,,,,,,,,,,,182,tomaquet,Catalan,Sounds/cat_tomaquet.mp3,2020-06-08_18h10.33.623,TranslationElicitation_eng-prolific,3.2.4,MacIntel,60,5d7b89d48fb7ce00018112ea,,1,0,81,73,1,80
,,,,,,,,,,,,,,,,,,,,,,,,,,,,,,,,,,,,,,,,,a,3.450000048,A,FALSE,,,,,,,105,aigua,Catalan,Sounds/cat_aigua.mp3,2020-06-08_18h10.33.623,TranslationElicitation_eng-prolific,3.2.4,MacIntel,60,5d7b89d48fb7ce00018112ea,,1,0,81,1,1,80
,,,,,,,,,,,,,,,,,,,,,,,,,,,,,,,,,,,,,,,,,q,3.717000008,AQ,FALSE,,,,,,,105,aigua,Catalan,Sounds/cat_aigua.mp3,2020-06-08_18h10.33.623,TranslationElicitation_eng-prolific,3.2.4,MacIntel,60,5d7b89d48fb7ce00018112ea,,1,0,81,1,1,80
,,,,,,,,,,,,,,,,,,,,,,,,,,,,,,,,,,,,,,,,,u,3.828000069,AQU,FALSE,,,,,,,105,aigua,Catalan,Sounds/cat_aigua.mp3,2020-06-08_18h10.33.623,TranslationElicitation_eng-prolific,3.2.4,MacIntel,60,5d7b89d48fb7ce00018112ea,,1,0,81,1,1,80
,,,,,,,,,,,,,,,,,,,,,,,,,,,,,,,,,,,,,,,,,a,4.101999998,AQUA,FALSE,,,,,,,105,aigua,Catalan,Sounds/cat_aigua.mp3,2020-06-08_18h10.33.623,TranslationElicitation_eng-prolific,3.2.4,MacIntel,60,5d7b89d48fb7ce00018112ea,,1,0,81,1,1,80
,,,,,,,,,,,,,,,,,,,,,,,,,,,,,,,,,,,,,,,,,return,4.269999981,AQUA,FALSE,,,,,,,105,aigua,Catalan,Sounds/cat_aigua.mp3,2020-06-08_18h10.33.623,TranslationElicitation_eng-prolific,3.2.4,MacIntel,60,5d7b89d48fb7ce00018112ea,4.269999981,1,0,81,1,1,80
,,,,,,,,,,,,,,,,,,,,,,,,,,,,,,,,,,,,,,,,,,,,,,,,,,,105,aigua,Catalan,Sounds/cat_aigua.mp3,2020-06-08_18h10.33.623,TranslationElicitation_eng-prolific,3.2.4,MacIntel,60,5d7b89d48fb7ce00018112ea,,1,0,81,1,1,80
,,,,,,,,,,,,,,,,,,,,,,,,,,,,,,,,,,,,,,,,,g,8.065999985,G,FALSE,,,,,,,146,guitarra,Catalan,Sounds/cat_guitarra.mp3,2020-06-08_18h10.33.623,TranslationElicitation_eng-prolific,3.2.4,MacIntel,60,5d7b89d48fb7ce00018112ea,,1,0,81,40,1,80
,,,,,,,,,,,,,,,,,,,,,,,,,,,,,,,,,,,,,,,,,u,8.131000042,GU,FALSE,,,,,,,146,guitarra,Catalan,Sounds/cat_guitarra.mp3,2020-06-08_18h10.33.623,TranslationElicitation_eng-prolific,3.2.4,MacIntel,60,5d7b89d48fb7ce00018112ea,,1,0,81,40,1,80
,,,,,,,,,,,,,,,,,,,,,,,,,,,,,,,,,,,,,,,,,i,8.25,GUI,FALSE,,,,,,,146,guitarra,Catalan,Sounds/cat_guitarra.mp3,2020-06-08_18h10.33.623,TranslationElicitation_eng-prolific,3.2.4,MacIntel,60,5d7b89d48fb7ce00018112ea,,1,0,81,40,1,80
,,,,,,,,,,,,,,,,,,,,,,,,,,,,,,,,,,,,,,,,,t,8.447000027,GUIT,FALSE,,,,,,,146,guitarra,Catalan,Sounds/cat_guitarra.mp3,2020-06-08_18h10.33.623,TranslationElicitation_eng-prolific,3.2.4,MacIntel,60,5d7b89d48fb7ce00018112ea,,1,0,81,40,1,80
,,,,,,,,,,,,,,,,,,,,,,,,,,,,,,,,,,,,,,,,,a,8.621999979,GUITA,FALSE,,,,,,,146,guitarra,Catalan,Sounds/cat_guitarra.mp3,2020-06-08_18h10.33.623,TranslationElicitation_eng-prolific,3.2.4,MacIntel,60,5d7b89d48fb7ce00018112ea,,1,0,81,40,1,80
,,,,,,,,,,,,,,,,,,,,,,,,,,,,,,,,,,,,,,,,,r,8.710000038,GUITAR,FALSE,,,,,,,146,guitarra,Catalan,Sounds/cat_guitarra.mp3,2020-06-08_18h10.33.623,TranslationElicitation_eng-prolific,3.2.4,MacIntel,60,5d7b89d48fb7ce00018112ea,,1,0,81,40,1,80
,,,,,,,,,,,,,,,,,,,,,,,,,,,,,,,,,,,,,,,,,return,9.18900013,GUITAR,FALSE,,,,,,,146,guitarra,Catalan,Sounds/cat_guitarra.mp3,2020-06-08_18h10.33.623,TranslationElicitation_eng-prolific,3.2.4,MacIntel,60,5d7b89d48fb7ce00018112ea,9.18900013,1,0,81,40,1,80
,,,,,,,,,,,,,,,,,,,,,,,,,,,,,,,,,,,,,,,,,,,,,,,,,,,146,guitarra,Catalan,Sounds/cat_guitarra.mp3,2020-06-08_18h10.33.623,TranslationElicitation_eng-prolific,3.2.4,MacIntel,60,5d7b89d48fb7ce00018112ea,,1,0,81,40,1,80
,,,,,,,,,,,,,,,,,,,,,,,,,,,,,,,,,,,,,,,,,e,3.618000031,E,FALSE,,,,,,,148,lleo,Catalan,Sounds/cat_lleo.mp3,2020-06-08_18h10.33.623,TranslationElicitation_eng-prolific,3.2.4,MacIntel,60,5d7b89d48fb7ce00018112ea,,1,0,81,41,1,80
,,,,,,,,,,,,,,,,,,,,,,,,,,,,,,,,,,,,,,,,,y,3.789000034,EY,FALSE,,,,,,,148,lleo,Catalan,Sounds/cat_lleo.mp3,2020-06-08_18h10.33.623,TranslationElicitation_eng-prolific,3.2.4,MacIntel,60,5d7b89d48fb7ce00018112ea,,1,0,81,41,1,80
,,,,,,,,,,,,,,,,,,,,,,,,,,,,,,,,,,,,,,,,,e,3.953000069,EYE,FALSE,,,,,,,148,lleo,Catalan,Sounds/cat_lleo.mp3,2020-06-08_18h10.33.623,TranslationElicitation_eng-prolific,3.2.4,MacIntel,60,5d7b89d48fb7ce00018112ea,,1,0,81,41,1,80
,,,,,,,,,,,,,,,,,,,,,,,,,,,,,,,,,,,,,,,,,return,5.684000015,EYE,FALSE,,,,,,,148,lleo,Catalan,Sounds/cat_lleo.mp3,2020-06-08_18h10.33.623,TranslationElicitation_eng-prolific,3.2.4,MacIntel,60,5d7b89d48fb7ce00018112ea,5.684000015,1,0,81,41,1,80
,,,,,,,,,,,,,,,,,,,,,,,,,,,,,,,,,,,,,,,,,,,,,,,,,,,148,lleo,Catalan,Sounds/cat_lleo.mp3,2020-06-08_18h10.33.623,TranslationElicitation_eng-prolific,3.2.4,MacIntel,60,5d7b89d48fb7ce00018112ea,,1,0,81,41,1,80
,,,,,,,,,,,,,,,,,,,,,,,,,,,,,,,,,,,,,,,,,return,3.820999861,,FALSE,,,,,,,186,ungla,Catalan,Sounds/cat_ungla.mp3,2020-06-08_18h10.33.623,TranslationElicitation_eng-prolific,3.2.4,MacIntel,60,5d7b89d48fb7ce00018112ea,3.820999861,1,0,81,77,1,80
,,,,,,,,,,,,,,,,,,,,,,,,,,,,,,,,,,,,,,,,,,,,,,,,,,,186,ungla,Catalan,Sounds/cat_ungla.mp3,2020-06-08_18h10.33.623,TranslationElicitation_eng-prolific,3.2.4,MacIntel,60,5d7b89d48fb7ce00018112ea,,1,0,81,77,1,80
,,,,,,,,,,,,,,,,,,,,,,,,,,,,,,,,,,,,,,,,,g,8.152000189,G,FALSE,,,,,,,170,ploma,Catalan,Sounds/cat_ploma.mp3,2020-06-08_18h10.33.623,TranslationElicitation_eng-prolific,3.2.4,MacIntel,60,5d7b89d48fb7ce00018112ea,,1,0,81,62,1,80
,,,,,,,,,,,,,,,,,,,,,,,,,,,,,,,,,,,,,,,,,l,8.304000139,GL,FALSE,,,,,,,170,ploma,Catalan,Sounds/cat_ploma.mp3,2020-06-08_18h10.33.623,TranslationElicitation_eng-prolific,3.2.4,MacIntel,60,5d7b89d48fb7ce00018112ea,,1,0,81,62,1,80
,,,,,,,,,,,,,,,,,,,,,,,,,,,,,,,,,,,,,,,,,o,8.436000109,GLO,FALSE,,,,,,,170,ploma,Catalan,Sounds/cat_ploma.mp3,2020-06-08_18h10.33.623,TranslationElicitation_eng-prolific,3.2.4,MacIntel,60,5d7b89d48fb7ce00018112ea,,1,0,81,62,1,80
,,,,,,,,,,,,,,,,,,,,,,,,,,,,,,,,,,,,,,,,,b,8.558000088,GLOB,FALSE,,,,,,,170,ploma,Catalan,Sounds/cat_ploma.mp3,2020-06-08_18h10.33.623,TranslationElicitation_eng-prolific,3.2.4,MacIntel,60,5d7b89d48fb7ce00018112ea,,1,0,81,62,1,80
,,,,,,,,,,,,,,,,,,,,,,,,,,,,,,,,,,,,,,,,,e,8.749000072,GLOBE,FALSE,,,,,,,170,ploma,Catalan,Sounds/cat_ploma.mp3,2020-06-08_18h10.33.623,TranslationElicitation_eng-prolific,3.2.4,MacIntel,60,5d7b89d48fb7ce00018112ea,,1,0,81,62,1,80
,,,,,,,,,,,,,,,,,,,,,,,,,,,,,,,,,,,,,,,,,return,9.338999987,GLOBE,FALSE,,,,,,,170,ploma,Catalan,Sounds/cat_ploma.mp3,2020-06-08_18h10.33.623,TranslationElicitation_eng-prolific,3.2.4,MacIntel,60,5d7b89d48fb7ce00018112ea,9.338999987,1,0,81,62,1,80
,,,,,,,,,,,,,,,,,,,,,,,,,,,,,,,,,,,,,,,,,,,,,,,,,,,170,ploma,Catalan,Sounds/cat_ploma.mp3,2020-06-08_18h10.33.623,TranslationElicitation_eng-prolific,3.2.4,MacIntel,60,5d7b89d48fb7ce00018112ea,,1,0,81,62,1,80
,,,,,,,,,,,,,,,,,,,,,,,,,,,,,,,,,,,,,,,,,p,1.825999975,P,FALSE,,,,,,,167,pingui,Catalan,Sounds/cat_pingui.mp3,2020-06-08_18h10.33.623,TranslationElicitation_eng-prolific,3.2.4,MacIntel,60,5d7b89d48fb7ce00018112ea,,1,0,81,59,1,80
,,,,,,,,,,,,,,,,,,,,,,,,,,,,,,,,,,,,,,,,,e,2.011000156,PE,FALSE,,,,,,,167,pingui,Catalan,Sounds/cat_pingui.mp3,2020-06-08_18h10.33.623,TranslationElicitation_eng-prolific,3.2.4,MacIntel,60,5d7b89d48fb7ce00018112ea,,1,0,81,59,1,80
,,,,,,,,,,,,,,,,,,,,,,,,,,,,,,,,,,,,,,,,,n,2.144000053,PEN,FALSE,,,,,,,167,pingui,Catalan,Sounds/cat_pingui.mp3,2020-06-08_18h10.33.623,TranslationElicitation_eng-prolific,3.2.4,MacIntel,60,5d7b89d48fb7ce00018112ea,,1,0,81,59,1,80
,,,,,,,,,,,,,,,,,,,,,,,,,,,,,,,,,,,,,,,,,g,2.279000044,PENG,FALSE,,,,,,,167,pingui,Catalan,Sounds/cat_pingui.mp3,2020-06-08_18h10.33.623,TranslationElicitation_eng-prolific,3.2.4,MacIntel,60,5d7b89d48fb7ce00018112ea,,1,0,81,59,1,80
,,,,,,,,,,,,,,,,,,,,,,,,,,,,,,,,,,,,,,,,,u,2.427999973,PENGU,FALSE,,,,,,,167,pingui,Catalan,Sounds/cat_pingui.mp3,2020-06-08_18h10.33.623,TranslationElicitation_eng-prolific,3.2.4,MacIntel,60,5d7b89d48fb7ce00018112ea,,1,0,81,59,1,80
,,,,,,,,,,,,,,,,,,,,,,,,,,,,,,,,,,,,,,,,,i,2.55700016,PENGUI,FALSE,,,,,,,167,pingui,Catalan,Sounds/cat_pingui.mp3,2020-06-08_18h10.33.623,TranslationElicitation_eng-prolific,3.2.4,MacIntel,60,5d7b89d48fb7ce00018112ea,,1,0,81,59,1,80
,,,,,,,,,,,,,,,,,,,,,,,,,,,,,,,,,,,,,,,,,n,2.769000053,PENGUIN,FALSE,,,,,,,167,pingui,Catalan,Sounds/cat_pingui.mp3,2020-06-08_18h10.33.623,TranslationElicitation_eng-prolific,3.2.4,MacIntel,60,5d7b89d48fb7ce00018112ea,,1,0,81,59,1,80
,,,,,,,,,,,,,,,,,,,,,,,,,,,,,,,,,,,,,,,,,return,3.062999964,PENGUIN,FALSE,,,,,,,167,pingui,Catalan,Sounds/cat_pingui.mp3,2020-06-08_18h10.33.623,TranslationElicitation_eng-prolific,3.2.4,MacIntel,60,5d7b89d48fb7ce00018112ea,3.062999964,1,0,81,59,1,80
,,,,,,,,,,,,,,,,,,,,,,,,,,,,,,,,,,,,,,,,,,,,,,,,,,,167,pingui,Catalan,Sounds/cat_pingui.mp3,2020-06-08_18h10.33.623,TranslationElicitation_eng-prolific,3.2.4,MacIntel,60,5d7b89d48fb7ce00018112ea,,1,0,81,59,1,80
,,,,,,,,,,,,,,,,,,,,,,,,,,,,,,,,,,,,,,,,,c,7.170000076,C,FALSE,,,,,,,127,cotxe,Catalan,Sounds/cat_cotxe.mp3,2020-06-08_18h10.33.623,TranslationElicitation_eng-prolific,3.2.4,MacIntel,60,5d7b89d48fb7ce00018112ea,,1,0,81,21,1,80
,,,,,,,,,,,,,,,,,,,,,,,,,,,,,,,,,,,,,,,,,a,7.489000082,CA,FALSE,,,,,,,127,cotxe,Catalan,Sounds/cat_cotxe.mp3,2020-06-08_18h10.33.623,TranslationElicitation_eng-prolific,3.2.4,MacIntel,60,5d7b89d48fb7ce00018112ea,,1,0,81,21,1,80
,,,,,,,,,,,,,,,,,,,,,,,,,,,,,,,,,,,,,,,,,t,7.623000145,CAT,FALSE,,,,,,,127,cotxe,Catalan,Sounds/cat_cotxe.mp3,2020-06-08_18h10.33.623,TranslationElicitation_eng-prolific,3.2.4,MacIntel,60,5d7b89d48fb7ce00018112ea,,1,0,81,21,1,80
,,,,,,,,,,,,,,,,,,,,,,,,,,,,,,,,,,,,,,,,,c,7.819000006,CATC,FALSE,,,,,,,127,cotxe,Catalan,Sounds/cat_cotxe.mp3,2020-06-08_18h10.33.623,TranslationElicitation_eng-prolific,3.2.4,MacIntel,60,5d7b89d48fb7ce00018112ea,,1,0,81,21,1,80
,,,,,,,,,,,,,,,,,,,,,,,,,,,,,,,,,,,,,,,,,h,7.914999962,CATCH,FALSE,,,,,,,127,cotxe,Catalan,Sounds/cat_cotxe.mp3,2020-06-08_18h10.33.623,TranslationElicitation_eng-prolific,3.2.4,MacIntel,60,5d7b89d48fb7ce00018112ea,,1,0,81,21,1,80
,,,,,,,,,,,,,,,,,,,,,,,,,,,,,,,,,,,,,,,,,return,8.259000063,CATCH,FALSE,,,,,,,127,cotxe,Catalan,Sounds/cat_cotxe.mp3,2020-06-08_18h10.33.623,TranslationElicitation_eng-prolific,3.2.4,MacIntel,60,5d7b89d48fb7ce00018112ea,8.259000063,1,0,81,21,1,80
,,,,,,,,,,,,,,,,,,,,,,,,,,,,,,,,,,,,,,,,,,,,,,,,,,,127,cotxe,Catalan,Sounds/cat_cotxe.mp3,2020-06-08_18h10.33.623,TranslationElicitation_eng-prolific,3.2.4,MacIntel,60,5d7b89d48fb7ce00018112ea,,1,0,81,21,1,80
,,,,,,,,,,,,,,,,,,,,,,,,,,,,,,,,,,,,,,,,,p,1.750999928,P,FALSE,,,,,,,168,planta,Catalan,Sounds/cat_planta.mp3,2020-06-08_18h10.33.623,TranslationElicitation_eng-prolific,3.2.4,MacIntel,60,5d7b89d48fb7ce00018112ea,,1,0,81,60,1,80
,,,,,,,,,,,,,,,,,,,,,,,,,,,,,,,,,,,,,,,,,l,1.865999937,PL,FALSE,,,,,,,168,planta,Catalan,Sounds/cat_planta.mp3,2020-06-08_18h10.33.623,TranslationElicitation_eng-prolific,3.2.4,MacIntel,60,5d7b89d48fb7ce00018112ea,,1,0,81,60,1,80
,,,,,,,,,,,,,,,,,,,,,,,,,,,,,,,,,,,,,,,,,a,1.967000008,PLA,FALSE,,,,,,,168,planta,Catalan,Sounds/cat_planta.mp3,2020-06-08_18h10.33.623,TranslationElicitation_eng-prolific,3.2.4,MacIntel,60,5d7b89d48fb7ce00018112ea,,1,0,81,60,1,80
,,,,,,,,,,,,,,,,,,,,,,,,,,,,,,,,,,,,,,,,,n,2.15199995,PLAN,FALSE,,,,,,,168,planta,Catalan,Sounds/cat_planta.mp3,2020-06-08_18h10.33.623,TranslationElicitation_eng-prolific,3.2.4,MacIntel,60,5d7b89d48fb7ce00018112ea,,1,0,81,60,1,80
,,,,,,,,,,,,,,,,,,,,,,,,,,,,,,,,,,,,,,,,,t,2.366999865,PLANT,FALSE,,,,,,,168,planta,Catalan,Sounds/cat_planta.mp3,2020-06-08_18h10.33.623,TranslationElicitation_eng-prolific,3.2.4,MacIntel,60,5d7b89d48fb7ce00018112ea,,1,0,81,60,1,80
,,,,,,,,,,,,,,,,,,,,,,,,,,,,,,,,,,,,,,,,,return,2.569999933,PLANT,FALSE,,,,,,,168,planta,Catalan,Sounds/cat_planta.mp3,2020-06-08_18h10.33.623,TranslationElicitation_eng-prolific,3.2.4,MacIntel,60,5d7b89d48fb7ce00018112ea,2.569999933,1,0,81,60,1,80
,,,,,,,,,,,,,,,,,,,,,,,,,,,,,,,,,,,,,,,,,,,,,,,,,,,168,planta,Catalan,Sounds/cat_planta.mp3,2020-06-08_18h10.33.623,TranslationElicitation_eng-prolific,3.2.4,MacIntel,60,5d7b89d48fb7ce00018112ea,,1,0,81,60,1,80
,,,,,,,,,,,,,,,,,,,,,,,,,,,,,,,,,,,,,,,,,w,2.817000151,W,FALSE,,,,,,,178,taronja,Catalan,Sounds/cat_taronja.mp3,2020-06-08_18h10.33.623,TranslationElicitation_eng-prolific,3.2.4,MacIntel,60,5d7b89d48fb7ce00018112ea,,1,0,81,70,1,80
,,,,,,,,,,,,,,,,,,,,,,,,,,,,,,,,,,,,,,,,,o,3.065999985,WO,FALSE,,,,,,,178,taronja,Catalan,Sounds/cat_taronja.mp3,2020-06-08_18h10.33.623,TranslationElicitation_eng-prolific,3.2.4,MacIntel,60,5d7b89d48fb7ce00018112ea,,1,0,81,70,1,80
,,,,,,,,,,,,,,,,,,,,,,,,,,,,,,,,,,,,,,,,,r,3.338000059,WOR,FALSE,,,,,,,178,taronja,Catalan,Sounds/cat_taronja.mp3,2020-06-08_18h10.33.623,TranslationElicitation_eng-prolific,3.2.4,MacIntel,60,5d7b89d48fb7ce00018112ea,,1,0,81,70,1,80
,,,,,,,,,,,,,,,,,,,,,,,,,,,,,,,,,,,,,,,,,k,3.472000122,WORK,FALSE,,,,,,,178,taronja,Catalan,Sounds/cat_taronja.mp3,2020-06-08_18h10.33.623,TranslationElicitation_eng-prolific,3.2.4,MacIntel,60,5d7b89d48fb7ce00018112ea,,1,0,81,70,1,80
,,,,,,,,,,,,,,,,,,,,,,,,,,,,,,,,,,,,,,,,,return,3.884000063,WORK,FALSE,,,,,,,178,taronja,Catalan,Sounds/cat_taronja.mp3,2020-06-08_18h10.33.623,TranslationElicitation_eng-prolific,3.2.4,MacIntel,60,5d7b89d48fb7ce00018112ea,3.884000063,1,0,81,70,1,80
,,,,,,,,,,,,,,,,,,,,,,,,,,,,,,,,,,,,,,,,,,,,,,,,,,,178,taronja,Catalan,Sounds/cat_taronja.mp3,2020-06-08_18h10.33.623,TranslationElicitation_eng-prolific,3.2.4,MacIntel,60,5d7b89d48fb7ce00018112ea,,1,0,81,70,1,80
,,,,,,,,,,,,,,,,,,,,,,,,,,,,,,,,,,,,,,,,,g,1.565000057,G,FALSE,,,,,,,142,girafa,Catalan,Sounds/cat_girafa.mp3,2020-06-08_18h10.33.623,TranslationElicitation_eng-prolific,3.2.4,MacIntel,60,5d7b89d48fb7ce00018112ea,,1,0,81,36,1,80
,,,,,,,,,,,,,,,,,,,,,,,,,,,,,,,,,,,,,,,,,i,1.769000053,GI,FALSE,,,,,,,142,girafa,Catalan,Sounds/cat_girafa.mp3,2020-06-08_18h10.33.623,TranslationElicitation_eng-prolific,3.2.4,MacIntel,60,5d7b89d48fb7ce00018112ea,,1,0,81,36,1,80
,,,,,,,,,,,,,,,,,,,,,,,,,,,,,,,,,,,,,,,,,r,1.951999903,GIR,FALSE,,,,,,,142,girafa,Catalan,Sounds/cat_girafa.mp3,2020-06-08_18h10.33.623,TranslationElicitation_eng-prolific,3.2.4,MacIntel,60,5d7b89d48fb7ce00018112ea,,1,0,81,36,1,80
,,,,,,,,,,,,,,,,,,,,,,,,,,,,,,,,,,,,,,,,,a,2.190000057,GIRA,FALSE,,,,,,,142,girafa,Catalan,Sounds/cat_girafa.mp3,2020-06-08_18h10.33.623,TranslationElicitation_eng-prolific,3.2.4,MacIntel,60,5d7b89d48fb7ce00018112ea,,1,0,81,36,1,80
,,,,,,,,,,,,,,,,,,,,,,,,,,,,,,,,,,,,,,,,,f,2.299999952,GIRAF,FALSE,,,,,,,142,girafa,Catalan,Sounds/cat_girafa.mp3,2020-06-08_18h10.33.623,TranslationElicitation_eng-prolific,3.2.4,MacIntel,60,5d7b89d48fb7ce00018112ea,,1,0,81,36,1,80
,,,,,,,,,,,,,,,,,,,,,,,,,,,,,,,,,,,,,,,,,f,2.536999941,GIRAFF,FALSE,,,,,,,142,girafa,Catalan,Sounds/cat_girafa.mp3,2020-06-08_18h10.33.623,TranslationElicitation_eng-prolific,3.2.4,MacIntel,60,5d7b89d48fb7ce00018112ea,,1,0,81,36,1,80
,,,,,,,,,,,,,,,,,,,,,,,,,,,,,,,,,,,,,,,,,e,2.773999929,GIRAFFE,FALSE,,,,,,,142,girafa,Catalan,Sounds/cat_girafa.mp3,2020-06-08_18h10.33.623,TranslationElicitation_eng-prolific,3.2.4,MacIntel,60,5d7b89d48fb7ce00018112ea,,1,0,81,36,1,80
,,,,,,,,,,,,,,,,,,,,,,,,,,,,,,,,,,,,,,,,,return,2.894000053,GIRAFFE,FALSE,,,,,,,142,girafa,Catalan,Sounds/cat_girafa.mp3,2020-06-08_18h10.33.623,TranslationElicitation_eng-prolific,3.2.4,MacIntel,60,5d7b89d48fb7ce00018112ea,2.894000053,1,0,81,36,1,80
,,,,,,,,,,,,,,,,,,,,,,,,,,,,,,,,,,,,,,,,,,,,,,,,,,,142,girafa,Catalan,Sounds/cat_girafa.mp3,2020-06-08_18h10.33.623,TranslationElicitation_eng-prolific,3.2.4,MacIntel,60,5d7b89d48fb7ce00018112ea,,1,0,81,36,1,80
,,,,,,,,,,,,,,,,,,,,,,,,,,,,,,,,,,,,,,,,,b,1.906999826,B,FALSE,,,,,,,117,boto,Catalan,Sounds/cat_boto.mp3,2020-06-08_18h10.33.623,TranslationElicitation_eng-prolific,3.2.4,MacIntel,60,5d7b89d48fb7ce00018112ea,,1,0,81,12,1,80
,,,,,,,,,,,,,,,,,,,,,,,,,,,,,,,,,,,,,,,,,u,2.062000036,BU,FALSE,,,,,,,117,boto,Catalan,Sounds/cat_boto.mp3,2020-06-08_18h10.33.623,TranslationElicitation_eng-prolific,3.2.4,MacIntel,60,5d7b89d48fb7ce00018112ea,,1,0,81,12,1,80
,,,,,,,,,,,,,,,,,,,,,,,,,,,,,,,,,,,,,,,,,t,2.169999838,BUT,FALSE,,,,,,,117,boto,Catalan,Sounds/cat_boto.mp3,2020-06-08_18h10.33.623,TranslationElicitation_eng-prolific,3.2.4,MacIntel,60,5d7b89d48fb7ce00018112ea,,1,0,81,12,1,80
,,,,,,,,,,,,,,,,,,,,,,,,,,,,,,,,,,,,,,,,,t,2.368000031,BUTT,FALSE,,,,,,,117,boto,Catalan,Sounds/cat_boto.mp3,2020-06-08_18h10.33.623,TranslationElicitation_eng-prolific,3.2.4,MacIntel,60,5d7b89d48fb7ce00018112ea,,1,0,81,12,1,80
,,,,,,,,,,,,,,,,,,,,,,,,,,,,,,,,,,,,,,,,,o,2.450000048,BUTTO,FALSE,,,,,,,117,boto,Catalan,Sounds/cat_boto.mp3,2020-06-08_18h10.33.623,TranslationElicitation_eng-prolific,3.2.4,MacIntel,60,5d7b89d48fb7ce00018112ea,,1,0,81,12,1,80
,,,,,,,,,,,,,,,,,,,,,,,,,,,,,,,,,,,,,,,,,n,2.835000038,BUTTON,FALSE,,,,,,,117,boto,Catalan,Sounds/cat_boto.mp3,2020-06-08_18h10.33.623,TranslationElicitation_eng-prolific,3.2.4,MacIntel,60,5d7b89d48fb7ce00018112ea,,1,0,81,12,1,80
,,,,,,,,,,,,,,,,,,,,,,,,,,,,,,,,,,,,,,,,,return,3.088999987,BUTTON,FALSE,,,,,,,117,boto,Catalan,Sounds/cat_boto.mp3,2020-06-08_18h10.33.623,TranslationElicitation_eng-prolific,3.2.4,MacIntel,60,5d7b89d48fb7ce00018112ea,3.088999987,1,0,81,12,1,80
,,,,,,,,,,,,,,,,,,,,,,,,,,,,,,,,,,,,,,,,,,,,,,,,,,,117,boto,Catalan,Sounds/cat_boto.mp3,2020-06-08_18h10.33.623,TranslationElicitation_eng-prolific,3.2.4,MacIntel,60,5d7b89d48fb7ce00018112ea,,1,0,81,12,1,80
,,,,,,,,,,,,,,,,,,,,,,,,,,,,,,,,,,,,,,,,,d,8.332999945,D,FALSE,,,,,,,129,dit,Catalan,Sounds/cat_dit.mp3,2020-06-08_18h10.33.623,TranslationElicitation_eng-prolific,3.2.4,MacIntel,60,5d7b89d48fb7ce00018112ea,,1,0,81,23,1,80
,,,,,,,,,,,,,,,,,,,,,,,,,,,,,,,,,,,,,,,,,a,8.450999975,DA,FALSE,,,,,,,129,dit,Catalan,Sounds/cat_dit.mp3,2020-06-08_18h10.33.623,TranslationElicitation_eng-prolific,3.2.4,MacIntel,60,5d7b89d48fb7ce00018112ea,,1,0,81,23,1,80
,,,,,,,,,,,,,,,,,,,,,,,,,,,,,,,,,,,,,,,,,t,8.606999874,DAT,FALSE,,,,,,,129,dit,Catalan,Sounds/cat_dit.mp3,2020-06-08_18h10.33.623,TranslationElicitation_eng-prolific,3.2.4,MacIntel,60,5d7b89d48fb7ce00018112ea,,1,0,81,23,1,80
,,,,,,,,,,,,,,,,,,,,,,,,,,,,,,,,,,,,,,,,,e,8.715999842,DATE,FALSE,,,,,,,129,dit,Catalan,Sounds/cat_dit.mp3,2020-06-08_18h10.33.623,TranslationElicitation_eng-prolific,3.2.4,MacIntel,60,5d7b89d48fb7ce00018112ea,,1,0,81,23,1,80
,,,,,,,,,,,,,,,,,,,,,,,,,,,,,,,,,,,,,,,,,return,8.833999872,DATE,FALSE,,,,,,,129,dit,Catalan,Sounds/cat_dit.mp3,2020-06-08_18h10.33.623,TranslationElicitation_eng-prolific,3.2.4,MacIntel,60,5d7b89d48fb7ce00018112ea,8.833999872,1,0,81,23,1,80
,,,,,,,,,,,,,,,,,,,,,,,,,,,,,,,,,,,,,,,,,,,,,,,,,,,129,dit,Catalan,Sounds/cat_dit.mp3,2020-06-08_18h10.33.623,TranslationElicitation_eng-prolific,3.2.4,MacIntel,60,5d7b89d48fb7ce00018112ea,,1,0,81,23,1,80
,,,,,,,,,,,,,,,,,,,,,,,,,,,,,,,,,,,,,,,,,c,2.049000025,C,FALSE,,,,,,,135,formiga,Catalan,Sounds/cat_formiga.mp3,2020-06-08_18h10.33.623,TranslationElicitation_eng-prolific,3.2.4,MacIntel,60,5d7b89d48fb7ce00018112ea,,1,0,81,29,1,80
,,,,,,,,,,,,,,,,,,,,,,,,,,,,,,,,,,,,,,,,,h,2.17200017,CH,FALSE,,,,,,,135,formiga,Catalan,Sounds/cat_formiga.mp3,2020-06-08_18h10.33.623,TranslationElicitation_eng-prolific,3.2.4,MacIntel,60,5d7b89d48fb7ce00018112ea,,1,0,81,29,1,80
,,,,,,,,,,,,,,,,,,,,,,,,,,,,,,,,,,,,,,,,,e,2.282000065,CHE,FALSE,,,,,,,135,formiga,Catalan,Sounds/cat_formiga.mp3,2020-06-08_18h10.33.623,TranslationElicitation_eng-prolific,3.2.4,MacIntel,60,5d7b89d48fb7ce00018112ea,,1,0,81,29,1,80
,,,,,,,,,,,,,,,,,,,,,,,,,,,,,,,,,,,,,,,,,e,2.450000048,CHEE,FALSE,,,,,,,135,formiga,Catalan,Sounds/cat_formiga.mp3,2020-06-08_18h10.33.623,TranslationElicitation_eng-prolific,3.2.4,MacIntel,60,5d7b89d48fb7ce00018112ea,,1,0,81,29,1,80
,,,,,,,,,,,,,,,,,,,,,,,,,,,,,,,,,,,,,,,,,s,2.6650002,CHEES,FALSE,,,,,,,135,formiga,Catalan,Sounds/cat_formiga.mp3,2020-06-08_18h10.33.623,TranslationElicitation_eng-prolific,3.2.4,MacIntel,60,5d7b89d48fb7ce00018112ea,,1,0,81,29,1,80
,,,,,,,,,,,,,,,,,,,,,,,,,,,,,,,,,,,,,,,,,e,2.84100008,CHEESE,FALSE,,,,,,,135,formiga,Catalan,Sounds/cat_formiga.mp3,2020-06-08_18h10.33.623,TranslationElicitation_eng-prolific,3.2.4,MacIntel,60,5d7b89d48fb7ce00018112ea,,1,0,81,29,1,80
,,,,,,,,,,,,,,,,,,,,,,,,,,,,,,,,,,,,,,,,,return,3.835000038,CHEESE,FALSE,,,,,,,135,formiga,Catalan,Sounds/cat_formiga.mp3,2020-06-08_18h10.33.623,TranslationElicitation_eng-prolific,3.2.4,MacIntel,60,5d7b89d48fb7ce00018112ea,3.835000038,1,0,81,29,1,80
,,,,,,,,,,,,,,,,,,,,,,,,,,,,,,,,,,,,,,,,,,,,,,,,,,,135,formiga,Catalan,Sounds/cat_formiga.mp3,2020-06-08_18h10.33.623,TranslationElicitation_eng-prolific,3.2.4,MacIntel,60,5d7b89d48fb7ce00018112ea,,1,0,81,29,1,80
,,,,,,,,,,,,,,,,,,,,,,,,,,,,,,,,,,,,,,,,,b,5.954999924,B,FALSE,,,,,,,123,cavall,Catalan,Sounds/cat_cavall.mp3,2020-06-08_18h10.33.623,TranslationElicitation_eng-prolific,3.2.4,MacIntel,60,5d7b89d48fb7ce00018112ea,,1,0,81,18,1,80
,,,,,,,,,,,,,,,,,,,,,,,,,,,,,,,,,,,,,,,,,a,6.082999945,BA,FALSE,,,,,,,123,cavall,Catalan,Sounds/cat_cavall.mp3,2020-06-08_18h10.33.623,TranslationElicitation_eng-prolific,3.2.4,MacIntel,60,5d7b89d48fb7ce00018112ea,,1,0,81,18,1,80
,,,,,,,,,,,,,,,,,,,,,,,,,,,,,,,,,,,,,,,,,g,6.201999903,BAG,FALSE,,,,,,,123,cavall,Catalan,Sounds/cat_cavall.mp3,2020-06-08_18h10.33.623,TranslationElicitation_eng-prolific,3.2.4,MacIntel,60,5d7b89d48fb7ce00018112ea,,1,0,81,18,1,80
,,,,,,,,,,,,,,,,,,,,,,,,,,,,,,,,,,,,,,,,,return,6.368000031,BAG,FALSE,,,,,,,123,cavall,Catalan,Sounds/cat_cavall.mp3,2020-06-08_18h10.33.623,TranslationElicitation_eng-prolific,3.2.4,MacIntel,60,5d7b89d48fb7ce00018112ea,6.368000031,1,0,81,18,1,80
,,,,,,,,,,,,,,,,,,,,,,,,,,,,,,,,,,,,,,,,,,,,,,,,,,,123,cavall,Catalan,Sounds/cat_cavall.mp3,2020-06-08_18h10.33.623,TranslationElicitation_eng-prolific,3.2.4,MacIntel,60,5d7b89d48fb7ce00018112ea,,1,0,81,18,1,80
,,,,,,,,,,,,,,,,,,,,,,,,,,,,,,,,,,,,,,,,,d,2.53399992,D,FALSE,,,,,,,156,moto,Catalan,Sounds/cat_moto.mp3,2020-06-08_18h10.33.623,TranslationElicitation_eng-prolific,3.2.4,MacIntel,60,5d7b89d48fb7ce00018112ea,,1,0,81,49,1,80
,,,,,,,,,,,,,,,,,,,,,,,,,,,,,,,,,,,,,,,,,e,2.705999851,DE,FALSE,,,,,,,156,moto,Catalan,Sounds/cat_moto.mp3,2020-06-08_18h10.33.623,TranslationElicitation_eng-prolific,3.2.4,MacIntel,60,5d7b89d48fb7ce00018112ea,,1,0,81,49,1,80
,,,,,,,,,,,,,,,,,,,,,,,,,,,,,,,,,,,,,,,,,a,2.849999905,DEA,FALSE,,,,,,,156,moto,Catalan,Sounds/cat_moto.mp3,2020-06-08_18h10.33.623,TranslationElicitation_eng-prolific,3.2.4,MacIntel,60,5d7b89d48fb7ce00018112ea,,1,0,81,49,1,80
,,,,,,,,,,,,,,,,,,,,,,,,,,,,,,,,,,,,,,,,,d,2.917999983,DEAD,FALSE,,,,,,,156,moto,Catalan,Sounds/cat_moto.mp3,2020-06-08_18h10.33.623,TranslationElicitation_eng-prolific,3.2.4,MacIntel,60,5d7b89d48fb7ce00018112ea,,1,0,81,49,1,80
,,,,,,,,,,,,,,,,,,,,,,,,,,,,,,,,,,,,,,,,,return,3.103999853,DEAD,FALSE,,,,,,,156,moto,Catalan,Sounds/cat_moto.mp3,2020-06-08_18h10.33.623,TranslationElicitation_eng-prolific,3.2.4,MacIntel,60,5d7b89d48fb7ce00018112ea,3.103999853,1,0,81,49,1,80
,,,,,,,,,,,,,,,,,,,,,,,,,,,,,,,,,,,,,,,,,,,,,,,,,,,156,moto,Catalan,Sounds/cat_moto.mp3,2020-06-08_18h10.33.623,TranslationElicitation_eng-prolific,3.2.4,MacIntel,60,5d7b89d48fb7ce00018112ea,,1,0,81,49,1,80
,,,,,,,,,,,,,,,,,,,,,,,,,,,,,,,,,,,,,,,,,return,6.210999966,,FALSE,,,,,,,124,cirera,Catalan,Sounds/cat_cirera.mp3,2020-06-08_18h10.33.623,TranslationElicitation_eng-prolific,3.2.4,MacIntel,60,5d7b89d48fb7ce00018112ea,6.210999966,1,0,81,19,1,80
,,,,,,,,,,,,,,,,,,,,,,,,,,,,,,,,,,,,,,,,,,,,,,,,,,,124,cirera,Catalan,Sounds/cat_cirera.mp3,2020-06-08_18h10.33.623,TranslationElicitation_eng-prolific,3.2.4,MacIntel,60,5d7b89d48fb7ce00018112ea,,1,0,81,19,1,80
,,,,,,,,,,,,,,,,,,,,,,,,,,,,,,,,,,,,,,,,,h,1.518000126,H,FALSE,,,,,,,122,casa,Catalan,Sounds/cat_casa.mp3,2020-06-08_18h10.33.623,TranslationElicitation_eng-prolific,3.2.4,MacIntel,60,5d7b89d48fb7ce00018112ea,,1,0,81,17,1,80
,,,,,,,,,,,,,,,,,,,,,,,,,,,,,,,,,,,,,,,,,o,1.680999994,HO,FALSE,,,,,,,122,casa,Catalan,Sounds/cat_casa.mp3,2020-06-08_18h10.33.623,TranslationElicitation_eng-prolific,3.2.4,MacIntel,60,5d7b89d48fb7ce00018112ea,,1,0,81,17,1,80
,,,,,,,,,,,,,,,,,,,,,,,,,,,,,,,,,,,,,,,,,m,1.82400012,HOM,FALSE,,,,,,,122,casa,Catalan,Sounds/cat_casa.mp3,2020-06-08_18h10.33.623,TranslationElicitation_eng-prolific,3.2.4,MacIntel,60,5d7b89d48fb7ce00018112ea,,1,0,81,17,1,80
,,,,,,,,,,,,,,,,,,,,,,,,,,,,,,,,,,,,,,,,,e,1.978000164,HOME,FALSE,,,,,,,122,casa,Catalan,Sounds/cat_casa.mp3,2020-06-08_18h10.33.623,TranslationElicitation_eng-prolific,3.2.4,MacIntel,60,5d7b89d48fb7ce00018112ea,,1,0,81,17,1,80
,,,,,,,,,,,,,,,,,,,,,,,,,,,,,,,,,,,,,,,,,return,2.075999975,HOME,FALSE,,,,,,,122,casa,Catalan,Sounds/cat_casa.mp3,2020-06-08_18h10.33.623,TranslationElicitation_eng-prolific,3.2.4,MacIntel,60,5d7b89d48fb7ce00018112ea,2.075999975,1,0,81,17,1,80
,,,,,,,,,,,,,,,,,,,,,,,,,,,,,,,,,,,,,,,,,,,,,,,,,,,122,casa,Catalan,Sounds/cat_casa.mp3,2020-06-08_18h10.33.623,TranslationElicitation_eng-prolific,3.2.4,MacIntel,60,5d7b89d48fb7ce00018112ea,,1,0,81,17,1,80
,,,,,,,,,,,,,,,,,,,,,,,,,,,,,,,,,,,,,,,,,return,17.10699987,,FALSE,,,,,,,143,globus,Catalan,Sounds/cat_globus.mp3,2020-06-08_18h10.33.623,TranslationElicitation_eng-prolific,3.2.4,MacIntel,60,5d7b89d48fb7ce00018112ea,17.10699987,1,0,81,37,1,80
,,,,,,,,,,,,,,,,,,,,,,,,,,,,,,,,,,,,,,,,,,,,,,,,,,,143,globus,Catalan,Sounds/cat_globus.mp3,2020-06-08_18h10.33.623,TranslationElicitation_eng-prolific,3.2.4,MacIntel,60,5d7b89d48fb7ce00018112ea,,1,0,81,37,1,80
,,,,,,,,,,,,,,,,,,,,,,,,,,,,,,,,,,,,,,,,,b,2.200000048,B,FALSE,,,,,,,116,bolquer,Catalan,Sounds/cat_bolquer.mp3,2020-06-08_18h10.33.623,TranslationElicitation_eng-prolific,3.2.4,MacIntel,60,5d7b89d48fb7ce00018112ea,,1,0,81,11,1,80
,,,,,,,,,,,,,,,,,,,,,,,,,,,,,,,,,,,,,,,,,backspace,5.003999949,,TRUE,,,,,,,116,bolquer,Catalan,Sounds/cat_bolquer.mp3,2020-06-08_18h10.33.623,TranslationElicitation_eng-prolific,3.2.4,MacIntel,60,5d7b89d48fb7ce00018112ea,,1,0,81,11,1,80
,,,,,,,,,,,,,,,,,,,,,,,,,,,,,,,,,,,,,,,,,f,5.584000111,F,TRUE,,,,,,,116,bolquer,Catalan,Sounds/cat_bolquer.mp3,2020-06-08_18h10.33.623,TranslationElicitation_eng-prolific,3.2.4,MacIntel,60,5d7b89d48fb7ce00018112ea,,1,0,81,11,1,80
,,,,,,,,,,,,,,,,,,,,,,,,,,,,,,,,,,,,,,,,,l,6.03399992,FL,TRUE,,,,,,,116,bolquer,Catalan,Sounds/cat_bolquer.mp3,2020-06-08_18h10.33.623,TranslationElicitation_eng-prolific,3.2.4,MacIntel,60,5d7b89d48fb7ce00018112ea,,1,0,81,11,1,80
,,,,,,,,,,,,,,,,,,,,,,,,,,,,,,,,,,,,,,,,,o,6.213000059,FLO,TRUE,,,,,,,116,bolquer,Catalan,Sounds/cat_bolquer.mp3,2020-06-08_18h10.33.623,TranslationElicitation_eng-prolific,3.2.4,MacIntel,60,5d7b89d48fb7ce00018112ea,,1,0,81,11,1,80
,,,,,,,,,,,,,,,,,,,,,,,,,,,,,,,,,,,,,,,,,w,6.395999908,FLOW,TRUE,,,,,,,116,bolquer,Catalan,Sounds/cat_bolquer.mp3,2020-06-08_18h10.33.623,TranslationElicitation_eng-prolific,3.2.4,MacIntel,60,5d7b89d48fb7ce00018112ea,,1,0,81,11,1,80
,,,,,,,,,,,,,,,,,,,,,,,,,,,,,,,,,,,,,,,,,e,6.631000042,FLOWE,TRUE,,,,,,,116,bolquer,Catalan,Sounds/cat_bolquer.mp3,2020-06-08_18h10.33.623,TranslationElicitation_eng-prolific,3.2.4,MacIntel,60,5d7b89d48fb7ce00018112ea,,1,0,81,11,1,80
,,,,,,,,,,,,,,,,,,,,,,,,,,,,,,,,,,,,,,,,,r,6.69900012,FLOWER,TRUE,,,,,,,116,bolquer,Catalan,Sounds/cat_bolquer.mp3,2020-06-08_18h10.33.623,TranslationElicitation_eng-prolific,3.2.4,MacIntel,60,5d7b89d48fb7ce00018112ea,,1,0,81,11,1,80
,,,,,,,,,,,,,,,,,,,,,,,,,,,,,,,,,,,,,,,,,s,6.871000051,FLOWERS,TRUE,,,,,,,116,bolquer,Catalan,Sounds/cat_bolquer.mp3,2020-06-08_18h10.33.623,TranslationElicitation_eng-prolific,3.2.4,MacIntel,60,5d7b89d48fb7ce00018112ea,,1,0,81,11,1,80
,,,,,,,,,,,,,,,,,,,,,,,,,,,,,,,,,,,,,,,,,return,7.086999893,FLOWERS,TRUE,,,,,,,116,bolquer,Catalan,Sounds/cat_bolquer.mp3,2020-06-08_18h10.33.623,TranslationElicitation_eng-prolific,3.2.4,MacIntel,60,5d7b89d48fb7ce00018112ea,7.086999893,1,0,81,11,1,80
,,,,,,,,,,,,,,,,,,,,,,,,,,,,,,,,,,,,,,,,,,,,,,,,,,,116,bolquer,Catalan,Sounds/cat_bolquer.mp3,2020-06-08_18h10.33.623,TranslationElicitation_eng-prolific,3.2.4,MacIntel,60,5d7b89d48fb7ce00018112ea,,1,0,81,11,1,80
,,,,,,,,,,,,,,,,,,,,,,,,,,,,,,,,,,,,,,,,,c,2.201999903,C,FALSE,,,,,,,128,cuc,Catalan,Sounds/cat_cuc.mp3,2020-06-08_18h10.33.623,TranslationElicitation_eng-prolific,3.2.4,MacIntel,60,5d7b89d48fb7ce00018112ea,,1,0,81,22,1,80
,,,,,,,,,,,,,,,,,,,,,,,,,,,,,,,,,,,,,,,,,o,2.385999918,CO,FALSE,,,,,,,128,cuc,Catalan,Sounds/cat_cuc.mp3,2020-06-08_18h10.33.623,TranslationElicitation_eng-prolific,3.2.4,MacIntel,60,5d7b89d48fb7ce00018112ea,,1,0,81,22,1,80
,,,,,,,,,,,,,,,,,,,,,,,,,,,,,,,,,,,,,,,,,o,2.55099988,COO,FALSE,,,,,,,128,cuc,Catalan,Sounds/cat_cuc.mp3,2020-06-08_18h10.33.623,TranslationElicitation_eng-prolific,3.2.4,MacIntel,60,5d7b89d48fb7ce00018112ea,,1,0,81,22,1,80
,,,,,,,,,,,,,,,,,,,,,,,,,,,,,,,,,,,,,,,,,k,2.666999817,COOK,FALSE,,,,,,,128,cuc,Catalan,Sounds/cat_cuc.mp3,2020-06-08_18h10.33.623,TranslationElicitation_eng-prolific,3.2.4,MacIntel,60,5d7b89d48fb7ce00018112ea,,1,0,81,22,1,80
,,,,,,,,,,,,,,,,,,,,,,,,,,,,,,,,,,,,,,,,,return,3.070999861,COOK,FALSE,,,,,,,128,cuc,Catalan,Sounds/cat_cuc.mp3,2020-06-08_18h10.33.623,TranslationElicitation_eng-prolific,3.2.4,MacIntel,60,5d7b89d48fb7ce00018112ea,3.070999861,1,0,81,22,1,80
,,,,,,,,,,,,,,,,,,,,,,,,,,,,,,,,,,,,,,,,,,,,,,,,,,,128,cuc,Catalan,Sounds/cat_cuc.mp3,2020-06-08_18h10.33.623,TranslationElicitation_eng-prolific,3.2.4,MacIntel,60,5d7b89d48fb7ce00018112ea,,1,0,81,22,1,80
,,,,,,,,,,,,,,,,,,,,,,,,,,,,,,,,,,,,,,,,,d,4.200000048,D,FALSE,,,,,,,174,porta,Catalan,Sounds/cat_porta.mp3,2020-06-08_18h10.33.623,TranslationElicitation_eng-prolific,3.2.4,MacIntel,60,5d7b89d48fb7ce00018112ea,,1,0,81,66,1,80
,,,,,,,,,,,,,,,,,,,,,,,,,,,,,,,,,,,,,,,,,o,4.343999863,DO,FALSE,,,,,,,174,porta,Catalan,Sounds/cat_porta.mp3,2020-06-08_18h10.33.623,TranslationElicitation_eng-prolific,3.2.4,MacIntel,60,5d7b89d48fb7ce00018112ea,,1,0,81,66,1,80
,,,,,,,,,,,,,,,,,,,,,,,,,,,,,,,,,,,,,,,,,o,4.509000063,DOO,FALSE,,,,,,,174,porta,Catalan,Sounds/cat_porta.mp3,2020-06-08_18h10.33.623,TranslationElicitation_eng-prolific,3.2.4,MacIntel,60,5d7b89d48fb7ce00018112ea,,1,0,81,66,1,80
,,,,,,,,,,,,,,,,,,,,,,,,,,,,,,,,,,,,,,,,,r,4.557999849,DOOR,FALSE,,,,,,,174,porta,Catalan,Sounds/cat_porta.mp3,2020-06-08_18h10.33.623,TranslationElicitation_eng-prolific,3.2.4,MacIntel,60,5d7b89d48fb7ce00018112ea,,1,0,81,66,1,80
,,,,,,,,,,,,,,,,,,,,,,,,,,,,,,,,,,,,,,,,,return,4.707999945,DOOR,FALSE,,,,,,,174,porta,Catalan,Sounds/cat_porta.mp3,2020-06-08_18h10.33.623,TranslationElicitation_eng-prolific,3.2.4,MacIntel,60,5d7b89d48fb7ce00018112ea,4.707999945,1,0,81,66,1,80
,,,,,,,,,,,,,,,,,,,,,,,,,,,,,,,,,,,,,,,,,,,,,,,,,,,174,porta,Catalan,Sounds/cat_porta.mp3,2020-06-08_18h10.33.623,TranslationElicitation_eng-prolific,3.2.4,MacIntel,60,5d7b89d48fb7ce00018112ea,,1,0,81,66,1,80
,,,,,,,,,,,,,,,,,,,,,,,,,,,,,,,,,,,,,,,,,b,2.23300004,B,FALSE,,,,,,,113,boca,Catalan,Sounds/cat_boca.mp3,2020-06-08_18h10.33.623,TranslationElicitation_eng-prolific,3.2.4,MacIntel,60,5d7b89d48fb7ce00018112ea,,1,0,81,8,1,80
,,,,,,,,,,,,,,,,,,,,,,,,,,,,,,,,,,,,,,,,,o,2.431999922,BO,FALSE,,,,,,,113,boca,Catalan,Sounds/cat_boca.mp3,2020-06-08_18h10.33.623,TranslationElicitation_eng-prolific,3.2.4,MacIntel,60,5d7b89d48fb7ce00018112ea,,1,0,81,8,1,80
,,,,,,,,,,,,,,,,,,,,,,,,,,,,,,,,,,,,,,,,,o,2.585000038,BOO,FALSE,,,,,,,113,boca,Catalan,Sounds/cat_boca.mp3,2020-06-08_18h10.33.623,TranslationElicitation_eng-prolific,3.2.4,MacIntel,60,5d7b89d48fb7ce00018112ea,,1,0,81,8,1,80
,,,,,,,,,,,,,,,,,,,,,,,,,,,,,,,,,,,,,,,,,k,2.73300004,BOOK,FALSE,,,,,,,113,boca,Catalan,Sounds/cat_boca.mp3,2020-06-08_18h10.33.623,TranslationElicitation_eng-prolific,3.2.4,MacIntel,60,5d7b89d48fb7ce00018112ea,,1,0,81,8,1,80
,,,,,,,,,,,,,,,,,,,,,,,,,,,,,,,,,,,,,,,,,return,2.991999865,BOOK,FALSE,,,,,,,113,boca,Catalan,Sounds/cat_boca.mp3,2020-06-08_18h10.33.623,TranslationElicitation_eng-prolific,3.2.4,MacIntel,60,5d7b89d48fb7ce00018112ea,2.991999865,1,0,81,8,1,80
,,,,,,,,,,,,,,,,,,,,,,,,,,,,,,,,,,,,,,,,,,,,,,,,,,,113,boca,Catalan,Sounds/cat_boca.mp3,2020-06-08_18h10.33.623,TranslationElicitation_eng-prolific,3.2.4,MacIntel,60,5d7b89d48fb7ce00018112ea,,1,0,81,8,1,80
,,,,,,,,,,,,,,,,,,,,,,,,,,,,,,,,,,,,,,,,,g,2.914999962,G,FALSE,,,,,,,145,got,Catalan,Sounds/cat_got.mp3,2020-06-08_18h10.33.623,TranslationElicitation_eng-prolific,3.2.4,MacIntel,60,5d7b89d48fb7ce00018112ea,,1,0,81,39,1,80
,,,,,,,,,,,,,,,,,,,,,,,,,,,,,,,,,,,,,,,,,o,3.083999872,GO,FALSE,,,,,,,145,got,Catalan,Sounds/cat_got.mp3,2020-06-08_18h10.33.623,TranslationElicitation_eng-prolific,3.2.4,MacIntel,60,5d7b89d48fb7ce00018112ea,,1,0,81,39,1,80
,,,,,,,,,,,,,,,,,,,,,,,,,,,,,,,,,,,,,,,,,d,3.237999916,GOD,FALSE,,,,,,,145,got,Catalan,Sounds/cat_got.mp3,2020-06-08_18h10.33.623,TranslationElicitation_eng-prolific,3.2.4,MacIntel,60,5d7b89d48fb7ce00018112ea,,1,0,81,39,1,80
,,,,,,,,,,,,,,,,,,,,,,,,,,,,,,,,,,,,,,,,,return,3.338999987,GOD,FALSE,,,,,,,145,got,Catalan,Sounds/cat_got.mp3,2020-06-08_18h10.33.623,TranslationElicitation_eng-prolific,3.2.4,MacIntel,60,5d7b89d48fb7ce00018112ea,3.338999987,1,0,81,39,1,80
,,,,,,,,,,,,,,,,,,,,,,,,,,,,,,,,,,,,,,,,,,,,,,,,,,,145,got,Catalan,Sounds/cat_got.mp3,2020-06-08_18h10.33.623,TranslationElicitation_eng-prolific,3.2.4,MacIntel,60,5d7b89d48fb7ce00018112ea,,1,0,81,39,1,80
,,,,,,,,,,,,,,,,,,,,,,,,,,,,,,,,,,,,,,,,,b,5.253000021,B,FALSE,,,,,,,187,vaixell,Catalan,Sounds/cat_vaixell.mp3,2020-06-08_18h10.33.623,TranslationElicitation_eng-prolific,3.2.4,MacIntel,60,5d7b89d48fb7ce00018112ea,,1,0,81,78,1,80
,,,,,,,,,,,,,,,,,,,,,,,,,,,,,,,,,,,,,,,,,u,5.366999865,BU,FALSE,,,,,,,187,vaixell,Catalan,Sounds/cat_vaixell.mp3,2020-06-08_18h10.33.623,TranslationElicitation_eng-prolific,3.2.4,MacIntel,60,5d7b89d48fb7ce00018112ea,,1,0,81,78,1,80
,,,,,,,,,,,,,,,,,,,,,,,,,,,,,,,,,,,,,,,,,s,5.498999834,BUS,FALSE,,,,,,,187,vaixell,Catalan,Sounds/cat_vaixell.mp3,2020-06-08_18h10.33.623,TranslationElicitation_eng-prolific,3.2.4,MacIntel,60,5d7b89d48fb7ce00018112ea,,1,0,81,78,1,80
,,,,,,,,,,,,,,,,,,,,,,,,,,,,,,,,,,,,,,,,,h,5.665999889,BUSH,FALSE,,,,,,,187,vaixell,Catalan,Sounds/cat_vaixell.mp3,2020-06-08_18h10.33.623,TranslationElicitation_eng-prolific,3.2.4,MacIntel,60,5d7b89d48fb7ce00018112ea,,1,0,81,78,1,80
,,,,,,,,,,,,,,,,,,,,,,,,,,,,,,,,,,,,,,,,,return,5.905999899,BUSH,FALSE,,,,,,,187,vaixell,Catalan,Sounds/cat_vaixell.mp3,2020-06-08_18h10.33.623,TranslationElicitation_eng-prolific,3.2.4,MacIntel,60,5d7b89d48fb7ce00018112ea,5.905999899,1,0,81,78,1,80
,,,,,,,,,,,,,,,,,,,,,,,,,,,,,,,,,,,,,,,,,,,,,,,,,,,187,vaixell,Catalan,Sounds/cat_vaixell.mp3,2020-06-08_18h10.33.623,TranslationElicitation_eng-prolific,3.2.4,MacIntel,60,5d7b89d48fb7ce00018112ea,,1,0,81,78,1,80
,,,,,,,,,,,,,,,,,,,,,,,,,,,,,,,,,,,,,,,,,m,1.967999935,M,FALSE,,,,,,,151,lluna,Catalan,Sounds/cat_lluna.mp3,2020-06-08_18h10.33.623,TranslationElicitation_eng-prolific,3.2.4,MacIntel,60,5d7b89d48fb7ce00018112ea,,1,0,81,44,1,80
,,,,,,,,,,,,,,,,,,,,,,,,,,,,,,,,,,,,,,,,,o,2.13499999,MO,FALSE,,,,,,,151,lluna,Catalan,Sounds/cat_lluna.mp3,2020-06-08_18h10.33.623,TranslationElicitation_eng-prolific,3.2.4,MacIntel,60,5d7b89d48fb7ce00018112ea,,1,0,81,44,1,80
,,,,,,,,,,,,,,,,,,,,,,,,,,,,,,,,,,,,,,,,,o,2.287999868,MOO,FALSE,,,,,,,151,lluna,Catalan,Sounds/cat_lluna.mp3,2020-06-08_18h10.33.623,TranslationElicitation_eng-prolific,3.2.4,MacIntel,60,5d7b89d48fb7ce00018112ea,,1,0,81,44,1,80
,,,,,,,,,,,,,,,,,,,,,,,,,,,,,,,,,,,,,,,,,n,2.467999935,MOON,FALSE,,,,,,,151,lluna,Catalan,Sounds/cat_lluna.mp3,2020-06-08_18h10.33.623,TranslationElicitation_eng-prolific,3.2.4,MacIntel,60,5d7b89d48fb7ce00018112ea,,1,0,81,44,1,80
,,,,,,,,,,,,,,,,,,,,,,,,,,,,,,,,,,,,,,,,,return,2.682999849,MOON,FALSE,,,,,,,151,lluna,Catalan,Sounds/cat_lluna.mp3,2020-06-08_18h10.33.623,TranslationElicitation_eng-prolific,3.2.4,MacIntel,60,5d7b89d48fb7ce00018112ea,2.682999849,1,0,81,44,1,80
,,,,,,,,,,,,,,,,,,,,,,,,,,,,,,,,,,,,,,,,,,,,,,,,,,,151,lluna,Catalan,Sounds/cat_lluna.mp3,2020-06-08_18h10.33.623,TranslationElicitation_eng-prolific,3.2.4,MacIntel,60,5d7b89d48fb7ce00018112ea,,1,0,81,44,1,80
,,,,,,,,,,,,,,,,,,,,,,,,,,,,,,,,,,,,,,,,,c,5.120000124,C,FALSE,,,,,,,107,amanida,Catalan,Sounds/cat_amanida.mp3,2020-06-08_18h10.33.623,TranslationElicitation_eng-prolific,3.2.4,MacIntel,60,5d7b89d48fb7ce00018112ea,,1,0,81,3,1,80
,,,,,,,,,,,,,,,,,,,,,,,,,,,,,,,,,,,,,,,,,h,5.252000093,CH,FALSE,,,,,,,107,amanida,Catalan,Sounds/cat_amanida.mp3,2020-06-08_18h10.33.623,TranslationElicitation_eng-prolific,3.2.4,MacIntel,60,5d7b89d48fb7ce00018112ea,,1,0,81,3,1,80
,,,,,,,,,,,,,,,,,,,,,,,,,,,,,,,,,,,,,,,,,i,5.457000017,CHI,FALSE,,,,,,,107,amanida,Catalan,Sounds/cat_amanida.mp3,2020-06-08_18h10.33.623,TranslationElicitation_eng-prolific,3.2.4,MacIntel,60,5d7b89d48fb7ce00018112ea,,1,0,81,3,1,80
,,,,,,,,,,,,,,,,,,,,,,,,,,,,,,,,,,,,,,,,,d,6.512000084,CHID,FALSE,,,,,,,107,amanida,Catalan,Sounds/cat_amanida.mp3,2020-06-08_18h10.33.623,TranslationElicitation_eng-prolific,3.2.4,MacIntel,60,5d7b89d48fb7ce00018112ea,,1,0,81,3,1,80
,,,,,,,,,,,,,,,,,,,,,,,,,,,,,,,,,,,,,,,,,backspace,7.151000023,CHI,TRUE,,,,,,,107,amanida,Catalan,Sounds/cat_amanida.mp3,2020-06-08_18h10.33.623,TranslationElicitation_eng-prolific,3.2.4,MacIntel,60,5d7b89d48fb7ce00018112ea,,1,0,81,3,1,80
,,,,,,,,,,,,,,,,,,,,,,,,,,,,,,,,,,,,,,,,,l,7.526000023,CHIL,TRUE,,,,,,,107,amanida,Catalan,Sounds/cat_amanida.mp3,2020-06-08_18h10.33.623,TranslationElicitation_eng-prolific,3.2.4,MacIntel,60,5d7b89d48fb7ce00018112ea,,1,0,81,3,1,80
,,,,,,,,,,,,,,,,,,,,,,,,,,,,,,,,,,,,,,,,,d,7.61500001,CHILD,TRUE,,,,,,,107,amanida,Catalan,Sounds/cat_amanida.mp3,2020-06-08_18h10.33.623,TranslationElicitation_eng-prolific,3.2.4,MacIntel,60,5d7b89d48fb7ce00018112ea,,1,0,81,3,1,80
,,,,,,,,,,,,,,,,,,,,,,,,,,,,,,,,,,,,,,,,,return,7.715000153,CHILD,TRUE,,,,,,,107,amanida,Catalan,Sounds/cat_amanida.mp3,2020-06-08_18h10.33.623,TranslationElicitation_eng-prolific,3.2.4,MacIntel,60,5d7b89d48fb7ce00018112ea,7.715000153,1,0,81,3,1,80
,,,,,,,,,,,,,,,,,,,,,,,,,,,,,,,,,,,,,,,,,,,,,,,,,,,107,amanida,Catalan,Sounds/cat_amanida.mp3,2020-06-08_18h10.33.623,TranslationElicitation_eng-prolific,3.2.4,MacIntel,60,5d7b89d48fb7ce00018112ea,,1,0,81,3,1,80
,,,,,,,,,,,,,,,,,,,,,,,,,,,,,,,,,,,,,,,,,m,6.555000067,M,FALSE,,,,,,,154,mirall,Catalan,Sounds/cat_mirall.mp3,2020-06-08_18h10.33.623,TranslationElicitation_eng-prolific,3.2.4,MacIntel,60,5d7b89d48fb7ce00018112ea,,1,0,81,47,1,80
,,,,,,,,,,,,,,,,,,,,,,,,,,,,,,,,,,,,,,,,,i,6.726999998,MI,FALSE,,,,,,,154,mirall,Catalan,Sounds/cat_mirall.mp3,2020-06-08_18h10.33.623,TranslationElicitation_eng-prolific,3.2.4,MacIntel,60,5d7b89d48fb7ce00018112ea,,1,0,81,47,1,80
,,,,,,,,,,,,,,,,,,,,,,,,,,,,,,,,,,,,,,,,,r,6.818000078,MIR,FALSE,,,,,,,154,mirall,Catalan,Sounds/cat_mirall.mp3,2020-06-08_18h10.33.623,TranslationElicitation_eng-prolific,3.2.4,MacIntel,60,5d7b89d48fb7ce00018112ea,,1,0,81,47,1,80
,,,,,,,,,,,,,,,,,,,,,,,,,,,,,,,,,,,,,,,,,r,7.017999887,MIRR,FALSE,,,,,,,154,mirall,Catalan,Sounds/cat_mirall.mp3,2020-06-08_18h10.33.623,TranslationElicitation_eng-prolific,3.2.4,MacIntel,60,5d7b89d48fb7ce00018112ea,,1,0,81,47,1,80
,,,,,,,,,,,,,,,,,,,,,,,,,,,,,,,,,,,,,,,,,o,7.307999849,MIRRO,FALSE,,,,,,,154,mirall,Catalan,Sounds/cat_mirall.mp3,2020-06-08_18h10.33.623,TranslationElicitation_eng-prolific,3.2.4,MacIntel,60,5d7b89d48fb7ce00018112ea,,1,0,81,47,1,80
,,,,,,,,,,,,,,,,,,,,,,,,,,,,,,,,,,,,,,,,,r,7.496999979,MIRROR,FALSE,,,,,,,154,mirall,Catalan,Sounds/cat_mirall.mp3,2020-06-08_18h10.33.623,TranslationElicitation_eng-prolific,3.2.4,MacIntel,60,5d7b89d48fb7ce00018112ea,,1,0,81,47,1,80
,,,,,,,,,,,,,,,,,,,,,,,,,,,,,,,,,,,,,,,,,return,7.864000082,MIRROR,FALSE,,,,,,,154,mirall,Catalan,Sounds/cat_mirall.mp3,2020-06-08_18h10.33.623,TranslationElicitation_eng-prolific,3.2.4,MacIntel,60,5d7b89d48fb7ce00018112ea,7.864000082,1,0,81,47,1,80
,,,,,,,,,,,,,,,,,,,,,,,,,,,,,,,,,,,,,,,,,,,,,,,,,,,154,mirall,Catalan,Sounds/cat_mirall.mp3,2020-06-08_18h10.33.623,TranslationElicitation_eng-prolific,3.2.4,MacIntel,60,5d7b89d48fb7ce00018112ea,,1,0,81,47,1,80
,,,,,,,,,,,,,,,,,,,,,,,,,,,,,,,,,,,,,,,,,return,4.431999922,,FALSE,,,,,,,104,abella,Catalan,Sounds/cat_abella.mp3,2020-06-08_18h10.33.623,TranslationElicitation_eng-prolific,3.2.4,MacIntel,60,5d7b89d48fb7ce00018112ea,4.431999922,1,0,81,0,1,80
,,,,,,,,,,,,,,,,,,,,,,,,,,,,,,,,,,,,,,,,,,,,,,,,,,,104,abella,Catalan,Sounds/cat_abella.mp3,2020-06-08_18h10.33.623,TranslationElicitation_eng-prolific,3.2.4,MacIntel,60,5d7b89d48fb7ce00018112ea,,1,0,81,0,1,80
,,,,,,,,,,,,,,,,,,,,,,,,,,,,,,,,,,,,,,,,,b,2.486999989,B,FALSE,,,,,,,114,bol,Catalan,Sounds/cat_bol.mp3,2020-06-08_18h10.33.623,TranslationElicitation_eng-prolific,3.2.4,MacIntel,60,5d7b89d48fb7ce00018112ea,,1,0,81,9,1,80
,,,,,,,,,,,,,,,,,,,,,,,,,,,,,,,,,,,,,,,,,o,2.700999975,BO,FALSE,,,,,,,114,bol,Catalan,Sounds/cat_bol.mp3,2020-06-08_18h10.33.623,TranslationElicitation_eng-prolific,3.2.4,MacIntel,60,5d7b89d48fb7ce00018112ea,,1,0,81,9,1,80
,,,,,,,,,,,,,,,,,,,,,,,,,,,,,,,,,,,,,,,,,w,2.839999914,BOW,FALSE,,,,,,,114,bol,Catalan,Sounds/cat_bol.mp3,2020-06-08_18h10.33.623,TranslationElicitation_eng-prolific,3.2.4,MacIntel,60,5d7b89d48fb7ce00018112ea,,1,0,81,9,1,80
,,,,,,,,,,,,,,,,,,,,,,,,,,,,,,,,,,,,,,,,,l,2.960999966,BOWL,FALSE,,,,,,,114,bol,Catalan,Sounds/cat_bol.mp3,2020-06-08_18h10.33.623,TranslationElicitation_eng-prolific,3.2.4,MacIntel,60,5d7b89d48fb7ce00018112ea,,1,0,81,9,1,80
,,,,,,,,,,,,,,,,,,,,,,,,,,,,,,,,,,,,,,,,,return,3.340999842,BOWL,FALSE,,,,,,,114,bol,Catalan,Sounds/cat_bol.mp3,2020-06-08_18h10.33.623,TranslationElicitation_eng-prolific,3.2.4,MacIntel,60,5d7b89d48fb7ce00018112ea,3.340999842,1,0,81,9,1,80
,,,,,,,,,,,,,,,,,,,,,,,,,,,,,,,,,,,,,,,,,,,,,,,,,,,114,bol,Catalan,Sounds/cat_bol.mp3,2020-06-08_18h10.33.623,TranslationElicitation_eng-prolific,3.2.4,MacIntel,60,5d7b89d48fb7ce00018112ea,,1,0,81,9,1,80
,,,,,,,,,,,,,,,,,,,,,,,,,,,,,,,,,,,,,,,,,b,2.61500001,B,FALSE,,,,,,,175,raspall,Catalan,Sounds/cat_raspall.mp3,2020-06-08_18h10.33.623,TranslationElicitation_eng-prolific,3.2.4,MacIntel,60,5d7b89d48fb7ce00018112ea,,1,0,81,67,1,80
,,,,,,,,,,,,,,,,,,,,,,,,,,,,,,,,,,,,,,,,,r,2.766000032,BR,FALSE,,,,,,,175,raspall,Catalan,Sounds/cat_raspall.mp3,2020-06-08_18h10.33.623,TranslationElicitation_eng-prolific,3.2.4,MacIntel,60,5d7b89d48fb7ce00018112ea,,1,0,81,67,1,80
,,,,,,,,,,,,,,,,,,,,,,,,,,,,,,,,,,,,,,,,,e,2.852000237,BRE,FALSE,,,,,,,175,raspall,Catalan,Sounds/cat_raspall.mp3,2020-06-08_18h10.33.623,TranslationElicitation_eng-prolific,3.2.4,MacIntel,60,5d7b89d48fb7ce00018112ea,,1,0,81,67,1,80
,,,,,,,,,,,,,,,,,,,,,,,,,,,,,,,,,,,,,,,,,a,2.970000029,BREA,FALSE,,,,,,,175,raspall,Catalan,Sounds/cat_raspall.mp3,2020-06-08_18h10.33.623,TranslationElicitation_eng-prolific,3.2.4,MacIntel,60,5d7b89d48fb7ce00018112ea,,1,0,81,67,1,80
,,,,,,,,,,,,,,,,,,,,,,,,,,,,,,,,,,,,,,,,,t,3.095000029,BREAT,FALSE,,,,,,,175,raspall,Catalan,Sounds/cat_raspall.mp3,2020-06-08_18h10.33.623,TranslationElicitation_eng-prolific,3.2.4,MacIntel,60,5d7b89d48fb7ce00018112ea,,1,0,81,67,1,80
,,,,,,,,,,,,,,,,,,,,,,,,,,,,,,,,,,,,,,,,,h,3.251000166,BREATH,FALSE,,,,,,,175,raspall,Catalan,Sounds/cat_raspall.mp3,2020-06-08_18h10.33.623,TranslationElicitation_eng-prolific,3.2.4,MacIntel,60,5d7b89d48fb7ce00018112ea,,1,0,81,67,1,80
,,,,,,,,,,,,,,,,,,,,,,,,,,,,,,,,,,,,,,,,,e,3.368000031,BREATHE,FALSE,,,,,,,175,raspall,Catalan,Sounds/cat_raspall.mp3,2020-06-08_18h10.33.623,TranslationElicitation_eng-prolific,3.2.4,MacIntel,60,5d7b89d48fb7ce00018112ea,,1,0,81,67,1,80
,,,,,,,,,,,,,,,,,,,,,,,,,,,,,,,,,,,,,,,,,return,3.486000061,BREATHE,FALSE,,,,,,,175,raspall,Catalan,Sounds/cat_raspall.mp3,2020-06-08_18h10.33.623,TranslationElicitation_eng-prolific,3.2.4,MacIntel,60,5d7b89d48fb7ce00018112ea,3.486000061,1,0,81,67,1,80
,,,,,,,,,,,,,,,,,,,,,,,,,,,,,,,,,,,,,,,,,,,,,,,,,,,175,raspall,Catalan,Sounds/cat_raspall.mp3,2020-06-08_18h10.33.623,TranslationElicitation_eng-prolific,3.2.4,MacIntel,60,5d7b89d48fb7ce00018112ea,,1,0,81,67,1,80
,,,,,,,,,,,,,,,,,,,,,,,,,,,,,,,,,,,,,,,,,a,4.492000103,A,FALSE,,,,,,,163,papallona,Catalan,Sounds/cat_papallona.mp3,2020-06-08_18h10.33.623,TranslationElicitation_eng-prolific,3.2.4,MacIntel,60,5d7b89d48fb7ce00018112ea,,1,0,81,55,1,80
,,,,,,,,,,,,,,,,,,,,,,,,,,,,,,,,,,,,,,,,,p,4.588000059,AP,FALSE,,,,,,,163,papallona,Catalan,Sounds/cat_papallona.mp3,2020-06-08_18h10.33.623,TranslationElicitation_eng-prolific,3.2.4,MacIntel,60,5d7b89d48fb7ce00018112ea,,1,0,81,55,1,80
,,,,,,,,,,,,,,,,,,,,,,,,,,,,,,,,,,,,,,,,,p,4.715000153,APP,FALSE,,,,,,,163,papallona,Catalan,Sounds/cat_papallona.mp3,2020-06-08_18h10.33.623,TranslationElicitation_eng-prolific,3.2.4,MacIntel,60,5d7b89d48fb7ce00018112ea,,1,0,81,55,1,80
,,,,,,,,,,,,,,,,,,,,,,,,,,,,,,,,,,,,,,,,,l,4.947000027,APPL,FALSE,,,,,,,163,papallona,Catalan,Sounds/cat_papallona.mp3,2020-06-08_18h10.33.623,TranslationElicitation_eng-prolific,3.2.4,MacIntel,60,5d7b89d48fb7ce00018112ea,,1,0,81,55,1,80
,,,,,,,,,,,,,,,,,,,,,,,,,,,,,,,,,,,,,,,,,e,5.106000185,APPLE,FALSE,,,,,,,163,papallona,Catalan,Sounds/cat_papallona.mp3,2020-06-08_18h10.33.623,TranslationElicitation_eng-prolific,3.2.4,MacIntel,60,5d7b89d48fb7ce00018112ea,,1,0,81,55,1,80
,,,,,,,,,,,,,,,,,,,,,,,,,,,,,,,,,,,,,,,,,return,5.56400013,APPLE,FALSE,,,,,,,163,papallona,Catalan,Sounds/cat_papallona.mp3,2020-06-08_18h10.33.623,TranslationElicitation_eng-prolific,3.2.4,MacIntel,60,5d7b89d48fb7ce00018112ea,5.56400013,1,0,81,55,1,80
,,,,,,,,,,,,,,,,,,,,,,,,,,,,,,,,,,,,,,,,,,,,,,,,,,,163,papallona,Catalan,Sounds/cat_papallona.mp3,2020-06-08_18h10.33.623,TranslationElicitation_eng-prolific,3.2.4,MacIntel,60,5d7b89d48fb7ce00018112ea,,1,0,81,55,1,80
,,,,,,,,,,,,,,,,,,,,,,,,,,,,,,,,,,,,,,,,,f,1.980999947,F,FALSE,,,,,,,134,flor,Catalan,Sounds/cat_flor.mp3,2020-06-08_18h10.33.623,TranslationElicitation_eng-prolific,3.2.4,MacIntel,60,5d7b89d48fb7ce00018112ea,,1,0,81,28,1,80
,,,,,,,,,,,,,,,,,,,,,,,,,,,,,,,,,,,,,,,,,l,2.187000036,FL,FALSE,,,,,,,134,flor,Catalan,Sounds/cat_flor.mp3,2020-06-08_18h10.33.623,TranslationElicitation_eng-prolific,3.2.4,MacIntel,60,5d7b89d48fb7ce00018112ea,,1,0,81,28,1,80
,,,,,,,,,,,,,,,,,,,,,,,,,,,,,,,,,,,,,,,,,o,2.328000069,FLO,FALSE,,,,,,,134,flor,Catalan,Sounds/cat_flor.mp3,2020-06-08_18h10.33.623,TranslationElicitation_eng-prolific,3.2.4,MacIntel,60,5d7b89d48fb7ce00018112ea,,1,0,81,28,1,80
,,,,,,,,,,,,,,,,,,,,,,,,,,,,,,,,,,,,,,,,,o,2.461999893,FLOO,FALSE,,,,,,,134,flor,Catalan,Sounds/cat_flor.mp3,2020-06-08_18h10.33.623,TranslationElicitation_eng-prolific,3.2.4,MacIntel,60,5d7b89d48fb7ce00018112ea,,1,0,81,28,1,80
,,,,,,,,,,,,,,,,,,,,,,,,,,,,,,,,,,,,,,,,,r,2.578999996,FLOOR,FALSE,,,,,,,134,flor,Catalan,Sounds/cat_flor.mp3,2020-06-08_18h10.33.623,TranslationElicitation_eng-prolific,3.2.4,MacIntel,60,5d7b89d48fb7ce00018112ea,,1,0,81,28,1,80
,,,,,,,,,,,,,,,,,,,,,,,,,,,,,,,,,,,,,,,,,return,2.665999889,FLOOR,FALSE,,,,,,,134,flor,Catalan,Sounds/cat_flor.mp3,2020-06-08_18h10.33.623,TranslationElicitation_eng-prolific,3.2.4,MacIntel,60,5d7b89d48fb7ce00018112ea,2.665999889,1,0,81,28,1,80
,,,,,,,,,,,,,,,,,,,,,,,,,,,,,,,,,,,,,,,,,,,,,,,,,,,134,flor,Catalan,Sounds/cat_flor.mp3,2020-06-08_18h10.33.623,TranslationElicitation_eng-prolific,3.2.4,MacIntel,60,5d7b89d48fb7ce00018112ea,,1,0,81,28,1,80
,,,,,,,,,,,,,,,,,,,,,,,,,,,,,,,,,,,,,,,,,b,6.20299983,B,FALSE,,,,,,,112,bici,Catalan,Sounds/cat_bici.mp3,2020-06-08_18h10.33.623,TranslationElicitation_eng-prolific,3.2.4,MacIntel,60,5d7b89d48fb7ce00018112ea,,1,0,81,7,1,80
,,,,,,,,,,,,,,,,,,,,,,,,,,,,,,,,,,,,,,,,,u,6.335000038,BU,FALSE,,,,,,,112,bici,Catalan,Sounds/cat_bici.mp3,2020-06-08_18h10.33.623,TranslationElicitation_eng-prolific,3.2.4,MacIntel,60,5d7b89d48fb7ce00018112ea,,1,0,81,7,1,80
,,,,,,,,,,,,,,,,,,,,,,,,,,,,,,,,,,,,,,,,,s,6.470000029,BUS,FALSE,,,,,,,112,bici,Catalan,Sounds/cat_bici.mp3,2020-06-08_18h10.33.623,TranslationElicitation_eng-prolific,3.2.4,MacIntel,60,5d7b89d48fb7ce00018112ea,,1,0,81,7,1,80
,,,,,,,,,,,,,,,,,,,,,,,,,,,,,,,,,,,,,,,,,y,6.56799984,BUSY,FALSE,,,,,,,112,bici,Catalan,Sounds/cat_bici.mp3,2020-06-08_18h10.33.623,TranslationElicitation_eng-prolific,3.2.4,MacIntel,60,5d7b89d48fb7ce00018112ea,,1,0,81,7,1,80
,,,,,,,,,,,,,,,,,,,,,,,,,,,,,,,,,,,,,,,,,return,6.835000038,BUSY,FALSE,,,,,,,112,bici,Catalan,Sounds/cat_bici.mp3,2020-06-08_18h10.33.623,TranslationElicitation_eng-prolific,3.2.4,MacIntel,60,5d7b89d48fb7ce00018112ea,6.835000038,1,0,81,7,1,80
,,,,,,,,,,,,,,,,,,,,,,,,,,,,,,,,,,,,,,,,,,,,,,,,,,,112,bici,Catalan,Sounds/cat_bici.mp3,2020-06-08_18h10.33.623,TranslationElicitation_eng-prolific,3.2.4,MacIntel,60,5d7b89d48fb7ce00018112ea,,1,0,81,7,1,80
,,,,,,,,,,,,,,,,,,,,,,,,,,,,,,,,,,,,,,,,,p,2.32799983,P,FALSE,,,,,,,162,pa,Catalan,Sounds/cat_pa.mp3,2020-06-08_18h10.33.623,TranslationElicitation_eng-prolific,3.2.4,MacIntel,60,5d7b89d48fb7ce00018112ea,,1,0,81,54,1,80
,,,,,,,,,,,,,,,,,,,,,,,,,,,,,,,,,,,,,,,,,a,2.493999958,PA,FALSE,,,,,,,162,pa,Catalan,Sounds/cat_pa.mp3,2020-06-08_18h10.33.623,TranslationElicitation_eng-prolific,3.2.4,MacIntel,60,5d7b89d48fb7ce00018112ea,,1,0,81,54,1,80
,,,,,,,,,,,,,,,,,,,,,,,,,,,,,,,,,,,,,,,,,r,2.611999989,PAR,FALSE,,,,,,,162,pa,Catalan,Sounds/cat_pa.mp3,2020-06-08_18h10.33.623,TranslationElicitation_eng-prolific,3.2.4,MacIntel,60,5d7b89d48fb7ce00018112ea,,1,0,81,54,1,80
,,,,,,,,,,,,,,,,,,,,,,,,,,,,,,,,,,,,,,,,,k,2.728999853,PARK,FALSE,,,,,,,162,pa,Catalan,Sounds/cat_pa.mp3,2020-06-08_18h10.33.623,TranslationElicitation_eng-prolific,3.2.4,MacIntel,60,5d7b89d48fb7ce00018112ea,,1,0,81,54,1,80
,,,,,,,,,,,,,,,,,,,,,,,,,,,,,,,,,,,,,,,,,return,3.804999828,PARK,FALSE,,,,,,,162,pa,Catalan,Sounds/cat_pa.mp3,2020-06-08_18h10.33.623,TranslationElicitation_eng-prolific,3.2.4,MacIntel,60,5d7b89d48fb7ce00018112ea,3.804999828,1,0,81,54,1,80
,,,,,,,,,,,,,,,,,,,,,,,,,,,,,,,,,,,,,,,,,,,,,,,,,,,162,pa,Catalan,Sounds/cat_pa.mp3,2020-06-08_18h10.33.623,TranslationElicitation_eng-prolific,3.2.4,MacIntel,60,5d7b89d48fb7ce00018112ea,,1,0,81,54,1,80
,,,,,,,,,,,,,,,,,,,,,,,,,,,,,,,,,,,,,,,,,p,4.30099988,P,FALSE,,,,,,,171,pollastre,Catalan,Sounds/cat_pollastre.mp3,2020-06-08_18h10.33.623,TranslationElicitation_eng-prolific,3.2.4,MacIntel,60,5d7b89d48fb7ce00018112ea,,1,0,81,63,1,80
,,,,,,,,,,,,,,,,,,,,,,,,,,,,,,,,,,,,,,,,,a,4.431999922,PA,FALSE,,,,,,,171,pollastre,Catalan,Sounds/cat_pollastre.mp3,2020-06-08_18h10.33.623,TranslationElicitation_eng-prolific,3.2.4,MacIntel,60,5d7b89d48fb7ce00018112ea,,1,0,81,63,1,80
,,,,,,,,,,,,,,,,,,,,,,,,,,,,,,,,,,,,,,,,,s,4.450999975,PAS,FALSE,,,,,,,171,pollastre,Catalan,Sounds/cat_pollastre.mp3,2020-06-08_18h10.33.623,TranslationElicitation_eng-prolific,3.2.4,MacIntel,60,5d7b89d48fb7ce00018112ea,,1,0,81,63,1,80
,,,,,,,,,,,,,,,,,,,,,,,,,,,,,,,,,,,,,,,,,t,4.717999935,PAST,FALSE,,,,,,,171,pollastre,Catalan,Sounds/cat_pollastre.mp3,2020-06-08_18h10.33.623,TranslationElicitation_eng-prolific,3.2.4,MacIntel,60,5d7b89d48fb7ce00018112ea,,1,0,81,63,1,80
,,,,,,,,,,,,,,,,,,,,,,,,,,,,,,,,,,,,,,,,,a,4.852999926,PASTA,FALSE,,,,,,,171,pollastre,Catalan,Sounds/cat_pollastre.mp3,2020-06-08_18h10.33.623,TranslationElicitation_eng-prolific,3.2.4,MacIntel,60,5d7b89d48fb7ce00018112ea,,1,0,81,63,1,80
,,,,,,,,,,,,,,,,,,,,,,,,,,,,,,,,,,,,,,,,,return,5.221999884,PASTA,FALSE,,,,,,,171,pollastre,Catalan,Sounds/cat_pollastre.mp3,2020-06-08_18h10.33.623,TranslationElicitation_eng-prolific,3.2.4,MacIntel,60,5d7b89d48fb7ce00018112ea,5.221999884,1,0,81,63,1,80
,,,,,,,,,,,,,,,,,,,,,,,,,,,,,,,,,,,,,,,,,,,,,,,,,,,171,pollastre,Catalan,Sounds/cat_pollastre.mp3,2020-06-08_18h10.33.623,TranslationElicitation_eng-prolific,3.2.4,MacIntel,60,5d7b89d48fb7ce00018112ea,,1,0,81,63,1,80
,,,,,,,,,,,,,,,,,,,,,,,,,,,,,,,,,,,,,,,,,t,2.96600008,T,FALSE,,,,,,,106,aixeta,Catalan,Sounds/cat_aixeta.mp3,2020-06-08_18h10.33.623,TranslationElicitation_eng-prolific,3.2.4,MacIntel,60,5d7b89d48fb7ce00018112ea,,1,0,81,2,1,80
,,,,,,,,,,,,,,,,,,,,,,,,,,,,,,,,,,,,,,,,,o,3.101000071,TO,FALSE,,,,,,,106,aixeta,Catalan,Sounds/cat_aixeta.mp3,2020-06-08_18h10.33.623,TranslationElicitation_eng-prolific,3.2.4,MacIntel,60,5d7b89d48fb7ce00018112ea,,1,0,81,2,1,80
,,,,,,,,,,,,,,,,,,,,,,,,,,,,,,,,,,,,,,,,,a,3.371000051,TOA,FALSE,,,,,,,106,aixeta,Catalan,Sounds/cat_aixeta.mp3,2020-06-08_18h10.33.623,TranslationElicitation_eng-prolific,3.2.4,MacIntel,60,5d7b89d48fb7ce00018112ea,,1,0,81,2,1,80
,,,,,,,,,,,,,,,,,,,,,,,,,,,,,,,,,,,,,,,,,s,3.452000141,TOAS,FALSE,,,,,,,106,aixeta,Catalan,Sounds/cat_aixeta.mp3,2020-06-08_18h10.33.623,TranslationElicitation_eng-prolific,3.2.4,MacIntel,60,5d7b89d48fb7ce00018112ea,,1,0,81,2,1,80
,,,,,,,,,,,,,,,,,,,,,,,,,,,,,,,,,,,,,,,,,t,3.705000162,TOAST,FALSE,,,,,,,106,aixeta,Catalan,Sounds/cat_aixeta.mp3,2020-06-08_18h10.33.623,TranslationElicitation_eng-prolific,3.2.4,MacIntel,60,5d7b89d48fb7ce00018112ea,,1,0,81,2,1,80
,,,,,,,,,,,,,,,,,,,,,,,,,,,,,,,,,,,,,,,,,return,3.901000023,TOAST,FALSE,,,,,,,106,aixeta,Catalan,Sounds/cat_aixeta.mp3,2020-06-08_18h10.33.623,TranslationElicitation_eng-prolific,3.2.4,MacIntel,60,5d7b89d48fb7ce00018112ea,3.901000023,1,0,81,2,1,80
,,,,,,,,,,,,,,,,,,,,,,,,,,,,,,,,,,,,,,,,,,,,,,,,,,,106,aixeta,Catalan,Sounds/cat_aixeta.mp3,2020-06-08_18h10.33.623,TranslationElicitation_eng-prolific,3.2.4,MacIntel,60,5d7b89d48fb7ce00018112ea,,1,0,81,2,1,80
,,,,,,,,,,,,,,,,,,,,,,,,,,,,,,,,,,,,,,,,,r,4.611000061,R,FALSE,,,,,,,150,lloro,Catalan,Sounds/cat_lloro.mp3,2020-06-08_18h10.33.623,TranslationElicitation_eng-prolific,3.2.4,MacIntel,60,5d7b89d48fb7ce00018112ea,,1,0,81,43,1,80
,,,,,,,,,,,,,,,,,,,,,,,,,,,,,,,,,,,,,,,,,e,4.799000025,RE,FALSE,,,,,,,150,lloro,Catalan,Sounds/cat_lloro.mp3,2020-06-08_18h10.33.623,TranslationElicitation_eng-prolific,3.2.4,MacIntel,60,5d7b89d48fb7ce00018112ea,,1,0,81,43,1,80
,,,,,,,,,,,,,,,,,,,,,,,,,,,,,,,,,,,,,,,,,d,4.950000048,RED,FALSE,,,,,,,150,lloro,Catalan,Sounds/cat_lloro.mp3,2020-06-08_18h10.33.623,TranslationElicitation_eng-prolific,3.2.4,MacIntel,60,5d7b89d48fb7ce00018112ea,,1,0,81,43,1,80
,,,,,,,,,,,,,,,,,,,,,,,,,,,,,,,,,,,,,,,,,return,5.75999999,RED,FALSE,,,,,,,150,lloro,Catalan,Sounds/cat_lloro.mp3,2020-06-08_18h10.33.623,TranslationElicitation_eng-prolific,3.2.4,MacIntel,60,5d7b89d48fb7ce00018112ea,5.75999999,1,0,81,43,1,80
,,,,,,,,,,,,,,,,,,,,,,,,,,,,,,,,,,,,,,,,,,,,,,,,,,,150,lloro,Catalan,Sounds/cat_lloro.mp3,2020-06-08_18h10.33.623,TranslationElicitation_eng-prolific,3.2.4,MacIntel,60,5d7b89d48fb7ce00018112ea,,1,0,81,43,1,80
,,,,,,,,,,,,,,,,,,,,,,,,,,,,,,,,,,,,,,,,,e,8.269999981,E,FALSE,,,,,,,180,tisores,Catalan,Sounds/cat_tisores.mp3,2020-06-08_18h10.33.623,TranslationElicitation_eng-prolific,3.2.4,MacIntel,60,5d7b89d48fb7ce00018112ea,,1,0,81,71,1,80
,,,,,,,,,,,,,,,,,,,,,,,,,,,,,,,,,,,,,,,,,y,8.36500001,EY,FALSE,,,,,,,180,tisores,Catalan,Sounds/cat_tisores.mp3,2020-06-08_18h10.33.623,TranslationElicitation_eng-prolific,3.2.4,MacIntel,60,5d7b89d48fb7ce00018112ea,,1,0,81,71,1,80
,,,,,,,,,,,,,,,,,,,,,,,,,,,,,,,,,,,,,,,,,e,8.480999947,EYE,FALSE,,,,,,,180,tisores,Catalan,Sounds/cat_tisores.mp3,2020-06-08_18h10.33.623,TranslationElicitation_eng-prolific,3.2.4,MacIntel,60,5d7b89d48fb7ce00018112ea,,1,0,81,71,1,80
,,,,,,,,,,,,,,,,,,,,,,,,,,,,,,,,,,,,,,,,,s,8.664999962,EYES,FALSE,,,,,,,180,tisores,Catalan,Sounds/cat_tisores.mp3,2020-06-08_18h10.33.623,TranslationElicitation_eng-prolific,3.2.4,MacIntel,60,5d7b89d48fb7ce00018112ea,,1,0,81,71,1,80
,,,,,,,,,,,,,,,,,,,,,,,,,,,,,,,,,,,,,,,,,return,8.823999882,EYES,FALSE,,,,,,,180,tisores,Catalan,Sounds/cat_tisores.mp3,2020-06-08_18h10.33.623,TranslationElicitation_eng-prolific,3.2.4,MacIntel,60,5d7b89d48fb7ce00018112ea,8.823999882,1,0,81,71,1,80
,,,,,,,,,,,,,,,,,,,,,,,,,,,,,,,,,,,,,,,,,,,,,,,,,,,180,tisores,Catalan,Sounds/cat_tisores.mp3,2020-06-08_18h10.33.623,TranslationElicitation_eng-prolific,3.2.4,MacIntel,60,5d7b89d48fb7ce00018112ea,,1,0,81,71,1,80
,,,,,,,,,,,,,,,,,,,,,,,,,,,,,,,,,,,,,,,,,c,3.620000124,C,FALSE,,,,,,,139,galleda,Catalan,Sounds/cat_galleda.mp3,2020-06-08_18h10.33.623,TranslationElicitation_eng-prolific,3.2.4,MacIntel,60,5d7b89d48fb7ce00018112ea,,1,0,81,33,1,80
,,,,,,,,,,,,,,,,,,,,,,,,,,,,,,,,,,,,,,,,,a,3.717999935,CA,FALSE,,,,,,,139,galleda,Catalan,Sounds/cat_galleda.mp3,2020-06-08_18h10.33.623,TranslationElicitation_eng-prolific,3.2.4,MacIntel,60,5d7b89d48fb7ce00018112ea,,1,0,81,33,1,80
,,,,,,,,,,,,,,,,,,,,,,,,,,,,,,,,,,,,,,,,,l,3.941999912,CAL,FALSE,,,,,,,139,galleda,Catalan,Sounds/cat_galleda.mp3,2020-06-08_18h10.33.623,TranslationElicitation_eng-prolific,3.2.4,MacIntel,60,5d7b89d48fb7ce00018112ea,,1,0,81,33,1,80
,,,,,,,,,,,,,,,,,,,,,,,,,,,,,,,,,,,,,,,,,n,4.102999926,CALN,FALSE,,,,,,,139,galleda,Catalan,Sounds/cat_galleda.mp3,2020-06-08_18h10.33.623,TranslationElicitation_eng-prolific,3.2.4,MacIntel,60,5d7b89d48fb7ce00018112ea,,1,0,81,33,1,80
,,,,,,,,,,,,,,,,,,,,,,,,,,,,,,,,,,,,,,,,,d,4.246000051,CALND,FALSE,,,,,,,139,galleda,Catalan,Sounds/cat_galleda.mp3,2020-06-08_18h10.33.623,TranslationElicitation_eng-prolific,3.2.4,MacIntel,60,5d7b89d48fb7ce00018112ea,,1,0,81,33,1,80
,,,,,,,,,,,,,,,,,,,,,,,,,,,,,,,,,,,,,,,,,backspace,4.796000004,CALN,TRUE,,,,,,,139,galleda,Catalan,Sounds/cat_galleda.mp3,2020-06-08_18h10.33.623,TranslationElicitation_eng-prolific,3.2.4,MacIntel,60,5d7b89d48fb7ce00018112ea,,1,0,81,33,1,80
,,,,,,,,,,,,,,,,,,,,,,,,,,,,,,,,,,,,,,,,,backspace,4.930000067,CAL,TRUE,,,,,,,139,galleda,Catalan,Sounds/cat_galleda.mp3,2020-06-08_18h10.33.623,TranslationElicitation_eng-prolific,3.2.4,MacIntel,60,5d7b89d48fb7ce00018112ea,,1,0,81,33,1,80
,,,,,,,,,,,,,,,,,,,,,,,,,,,,,,,,,,,,,,,,,e,5.319000006,CALE,TRUE,,,,,,,139,galleda,Catalan,Sounds/cat_galleda.mp3,2020-06-08_18h10.33.623,TranslationElicitation_eng-prolific,3.2.4,MacIntel,60,5d7b89d48fb7ce00018112ea,,1,0,81,33,1,80
,,,,,,,,,,,,,,,,,,,,,,,,,,,,,,,,,,,,,,,,,n,5.937000036,CALEN,TRUE,,,,,,,139,galleda,Catalan,Sounds/cat_galleda.mp3,2020-06-08_18h10.33.623,TranslationElicitation_eng-prolific,3.2.4,MacIntel,60,5d7b89d48fb7ce00018112ea,,1,0,81,33,1,80
,,,,,,,,,,,,,,,,,,,,,,,,,,,,,,,,,,,,,,,,,d,5.993999958,CALEND,TRUE,,,,,,,139,galleda,Catalan,Sounds/cat_galleda.mp3,2020-06-08_18h10.33.623,TranslationElicitation_eng-prolific,3.2.4,MacIntel,60,5d7b89d48fb7ce00018112ea,,1,0,81,33,1,80
,,,,,,,,,,,,,,,,,,,,,,,,,,,,,,,,,,,,,,,,,a,6.377000093,CALENDA,TRUE,,,,,,,139,galleda,Catalan,Sounds/cat_galleda.mp3,2020-06-08_18h10.33.623,TranslationElicitation_eng-prolific,3.2.4,MacIntel,60,5d7b89d48fb7ce00018112ea,,1,0,81,33,1,80
,,,,,,,,,,,,,,,,,,,,,,,,,,,,,,,,,,,,,,,,,r,6.512000084,CALENDAR,TRUE,,,,,,,139,galleda,Catalan,Sounds/cat_galleda.mp3,2020-06-08_18h10.33.623,TranslationElicitation_eng-prolific,3.2.4,MacIntel,60,5d7b89d48fb7ce00018112ea,,1,0,81,33,1,80
,,,,,,,,,,,,,,,,,,,,,,,,,,,,,,,,,,,,,,,,,return,6.646000147,CALENDAR,TRUE,,,,,,,139,galleda,Catalan,Sounds/cat_galleda.mp3,2020-06-08_18h10.33.623,TranslationElicitation_eng-prolific,3.2.4,MacIntel,60,5d7b89d48fb7ce00018112ea,6.646000147,1,0,81,33,1,80
,,,,,,,,,,,,,,,,,,,,,,,,,,,,,,,,,,,,,,,,,,,,,,,,,,,139,galleda,Catalan,Sounds/cat_galleda.mp3,2020-06-08_18h10.33.623,TranslationElicitation_eng-prolific,3.2.4,MacIntel,60,5d7b89d48fb7ce00018112ea,,1,0,81,33,1,80
,,,,,,,,,,,,,,,,,,,,,,,,,,,,,,,,,,,,,,,,,s,13.57599998,S,FALSE,,,,,,,153,mico,Catalan,Sounds/cat_mico.mp3,2020-06-08_18h10.33.623,TranslationElicitation_eng-prolific,3.2.4,MacIntel,60,5d7b89d48fb7ce00018112ea,,1,0,81,46,1,80
,,,,,,,,,,,,,,,,,,,,,,,,,,,,,,,,,,,,,,,,,u,13.71700001,SU,FALSE,,,,,,,153,mico,Catalan,Sounds/cat_mico.mp3,2020-06-08_18h10.33.623,TranslationElicitation_eng-prolific,3.2.4,MacIntel,60,5d7b89d48fb7ce00018112ea,,1,0,81,46,1,80
,,,,,,,,,,,,,,,,,,,,,,,,,,,,,,,,,,,,,,,,,n,13.86199999,SUN,FALSE,,,,,,,153,mico,Catalan,Sounds/cat_mico.mp3,2020-06-08_18h10.33.623,TranslationElicitation_eng-prolific,3.2.4,MacIntel,60,5d7b89d48fb7ce00018112ea,,1,0,81,46,1,80
,,,,,,,,,,,,,,,,,,,,,,,,,,,,,,,,,,,,,,,,,backspace,15.12399983,SU,TRUE,,,,,,,153,mico,Catalan,Sounds/cat_mico.mp3,2020-06-08_18h10.33.623,TranslationElicitation_eng-prolific,3.2.4,MacIntel,60,5d7b89d48fb7ce00018112ea,,1,0,81,46,1,80
,,,,,,,,,,,,,,,,,,,,,,,,,,,,,,,,,,,,,,,,,backspace,15.48199987,S,TRUE,,,,,,,153,mico,Catalan,Sounds/cat_mico.mp3,2020-06-08_18h10.33.623,TranslationElicitation_eng-prolific,3.2.4,MacIntel,60,5d7b89d48fb7ce00018112ea,,1,0,81,46,1,80
,,,,,,,,,,,,,,,,,,,,,,,,,,,,,,,,,,,,,,,,,backspace,15.68199992,,TRUE,,,,,,,153,mico,Catalan,Sounds/cat_mico.mp3,2020-06-08_18h10.33.623,TranslationElicitation_eng-prolific,3.2.4,MacIntel,60,5d7b89d48fb7ce00018112ea,,1,0,81,46,1,80
,,,,,,,,,,,,,,,,,,,,,,,,,,,,,,,,,,,,,,,,,c,16.86800003,C,TRUE,,,,,,,153,mico,Catalan,Sounds/cat_mico.mp3,2020-06-08_18h10.33.623,TranslationElicitation_eng-prolific,3.2.4,MacIntel,60,5d7b89d48fb7ce00018112ea,,1,0,81,46,1,80
,,,,,,,,,,,,,,,,,,,,,,,,,,,,,,,,,,,,,,,,,o,17.20099998,CO,TRUE,,,,,,,153,mico,Catalan,Sounds/cat_mico.mp3,2020-06-08_18h10.33.623,TranslationElicitation_eng-prolific,3.2.4,MacIntel,60,5d7b89d48fb7ce00018112ea,,1,0,81,46,1,80
,,,,,,,,,,,,,,,,,,,,,,,,,,,,,,,,,,,,,,,,,backspace,17.72399998,C,TRUE,,,,,,,153,mico,Catalan,Sounds/cat_mico.mp3,2020-06-08_18h10.33.623,TranslationElicitation_eng-prolific,3.2.4,MacIntel,60,5d7b89d48fb7ce00018112ea,,1,0,81,46,1,80
,,,,,,,,,,,,,,,,,,,,,,,,,,,,,,,,,,,,,,,,,l,18.43199992,CL,TRUE,,,,,,,153,mico,Catalan,Sounds/cat_mico.mp3,2020-06-08_18h10.33.623,TranslationElicitation_eng-prolific,3.2.4,MacIntel,60,5d7b89d48fb7ce00018112ea,,1,0,81,46,1,80
,,,,,,,,,,,,,,,,,,,,,,,,,,,,,,,,,,,,,,,,,o,18.59899998,CLO,TRUE,,,,,,,153,mico,Catalan,Sounds/cat_mico.mp3,2020-06-08_18h10.33.623,TranslationElicitation_eng-prolific,3.2.4,MacIntel,60,5d7b89d48fb7ce00018112ea,,1,0,81,46,1,80
,,,,,,,,,,,,,,,,,,,,,,,,,,,,,,,,,,,,,,,,,u,18.7809999,CLOU,TRUE,,,,,,,153,mico,Catalan,Sounds/cat_mico.mp3,2020-06-08_18h10.33.623,TranslationElicitation_eng-prolific,3.2.4,MacIntel,60,5d7b89d48fb7ce00018112ea,,1,0,81,46,1,80
,,,,,,,,,,,,,,,,,,,,,,,,,,,,,,,,,,,,,,,,,d,18.921,CLOUD,TRUE,,,,,,,153,mico,Catalan,Sounds/cat_mico.mp3,2020-06-08_18h10.33.623,TranslationElicitation_eng-prolific,3.2.4,MacIntel,60,5d7b89d48fb7ce00018112ea,,1,0,81,46,1,80
,,,,,,,,,,,,,,,,,,,,,,,,,,,,,,,,,,,,,,,,,return,19.07999992,CLOUD,TRUE,,,,,,,153,mico,Catalan,Sounds/cat_mico.mp3,2020-06-08_18h10.33.623,TranslationElicitation_eng-prolific,3.2.4,MacIntel,60,5d7b89d48fb7ce00018112ea,19.07999992,1,0,81,46,1,80
,,,,,,,,,,,,,,,,,,,,,,,,,,,,,,,,,,,,,,,,,,,,,,,,,,,153,mico,Catalan,Sounds/cat_mico.mp3,2020-06-08_18h10.33.623,TranslationElicitation_eng-prolific,3.2.4,MacIntel,60,5d7b89d48fb7ce00018112ea,,1,0,81,46,1,80
,,,,,,,,,,,,,,,,,,,,,,,,,,,,,,,,,,,,,,,,,f,8.18900013,F,FALSE,,,,,,,137,fulla,Catalan,Sounds/cat_fulla.mp3,2020-06-08_18h10.33.623,TranslationElicitation_eng-prolific,3.2.4,MacIntel,60,5d7b89d48fb7ce00018112ea,,1,0,81,31,1,80
,,,,,,,,,,,,,,,,,,,,,,,,,,,,,,,,,,,,,,,,,o,8.335000038,FO,FALSE,,,,,,,137,fulla,Catalan,Sounds/cat_fulla.mp3,2020-06-08_18h10.33.623,TranslationElicitation_eng-prolific,3.2.4,MacIntel,60,5d7b89d48fb7ce00018112ea,,1,0,81,31,1,80
,,,,,,,,,,,,,,,,,,,,,,,,,,,,,,,,,,,,,,,,,o,8.48300004,FOO,FALSE,,,,,,,137,fulla,Catalan,Sounds/cat_fulla.mp3,2020-06-08_18h10.33.623,TranslationElicitation_eng-prolific,3.2.4,MacIntel,60,5d7b89d48fb7ce00018112ea,,1,0,81,31,1,80
,,,,,,,,,,,,,,,,,,,,,,,,,,,,,,,,,,,,,,,,,l,8.667999983,FOOL,FALSE,,,,,,,137,fulla,Catalan,Sounds/cat_fulla.mp3,2020-06-08_18h10.33.623,TranslationElicitation_eng-prolific,3.2.4,MacIntel,60,5d7b89d48fb7ce00018112ea,,1,0,81,31,1,80
,,,,,,,,,,,,,,,,,,,,,,,,,,,,,,,,,,,,,,,,,return,8.917000055,FOOL,FALSE,,,,,,,137,fulla,Catalan,Sounds/cat_fulla.mp3,2020-06-08_18h10.33.623,TranslationElicitation_eng-prolific,3.2.4,MacIntel,60,5d7b89d48fb7ce00018112ea,8.917000055,1,0,81,31,1,80
,,,,,,,,,,,,,,,,,,,,,,,,,,,,,,,,,,,,,,,,,,,,,,,,,,,137,fulla,Catalan,Sounds/cat_fulla.mp3,2020-06-08_18h10.33.623,TranslationElicitation_eng-prolific,3.2.4,MacIntel,60,5d7b89d48fb7ce00018112ea,,1,0,81,31,1,80
,,,,,,,,,,,,,,,,,,,,,,,,,,,,,,,,,,,,,,,,,e,4.976999998,E,FALSE,,,,,,,108,ampolla,Catalan,Sounds/cat_ampolla.mp3,2020-06-08_18h10.33.623,TranslationElicitation_eng-prolific,3.2.4,MacIntel,60,5d7b89d48fb7ce00018112ea,,1,0,81,4,1,80
,,,,,,,,,,,,,,,,,,,,,,,,,,,,,,,,,,,,,,,,,m,5.173000097,EM,FALSE,,,,,,,108,ampolla,Catalan,Sounds/cat_ampolla.mp3,2020-06-08_18h10.33.623,TranslationElicitation_eng-prolific,3.2.4,MacIntel,60,5d7b89d48fb7ce00018112ea,,1,0,81,4,1,80
,,,,,,,,,,,,,,,,,,,,,,,,,,,,,,,,,,,,,,,,,p,5.317000151,EMP,FALSE,,,,,,,108,ampolla,Catalan,Sounds/cat_ampolla.mp3,2020-06-08_18h10.33.623,TranslationElicitation_eng-prolific,3.2.4,MacIntel,60,5d7b89d48fb7ce00018112ea,,1,0,81,4,1,80
,,,,,,,,,,,,,,,,,,,,,,,,,,,,,,,,,,,,,,,,,l,5.463999987,EMPL,FALSE,,,,,,,108,ampolla,Catalan,Sounds/cat_ampolla.mp3,2020-06-08_18h10.33.623,TranslationElicitation_eng-prolific,3.2.4,MacIntel,60,5d7b89d48fb7ce00018112ea,,1,0,81,4,1,80
,,,,,,,,,,,,,,,,,,,,,,,,,,,,,,,,,,,,,,,,,o,5.686000109,EMPLO,FALSE,,,,,,,108,ampolla,Catalan,Sounds/cat_ampolla.mp3,2020-06-08_18h10.33.623,TranslationElicitation_eng-prolific,3.2.4,MacIntel,60,5d7b89d48fb7ce00018112ea,,1,0,81,4,1,80
,,,,,,,,,,,,,,,,,,,,,,,,,,,,,,,,,,,,,,,,,y,5.781000137,EMPLOY,FALSE,,,,,,,108,ampolla,Catalan,Sounds/cat_ampolla.mp3,2020-06-08_18h10.33.623,TranslationElicitation_eng-prolific,3.2.4,MacIntel,60,5d7b89d48fb7ce00018112ea,,1,0,81,4,1,80
,,,,,,,,,,,,,,,,,,,,,,,,,,,,,,,,,,,,,,,,,e,6.029000044,EMPLOYE,FALSE,,,,,,,108,ampolla,Catalan,Sounds/cat_ampolla.mp3,2020-06-08_18h10.33.623,TranslationElicitation_eng-prolific,3.2.4,MacIntel,60,5d7b89d48fb7ce00018112ea,,1,0,81,4,1,80
,,,,,,,,,,,,,,,,,,,,,,,,,,,,,,,,,,,,,,,,,r,6.121000051,EMPLOYER,FALSE,,,,,,,108,ampolla,Catalan,Sounds/cat_ampolla.mp3,2020-06-08_18h10.33.623,TranslationElicitation_eng-prolific,3.2.4,MacIntel,60,5d7b89d48fb7ce00018112ea,,1,0,81,4,1,80
,,,,,,,,,,,,,,,,,,,,,,,,,,,,,,,,,,,,,,,,,return,6.265000105,EMPLOYER,FALSE,,,,,,,108,ampolla,Catalan,Sounds/cat_ampolla.mp3,2020-06-08_18h10.33.623,TranslationElicitation_eng-prolific,3.2.4,MacIntel,60,5d7b89d48fb7ce00018112ea,6.265000105,1,0,81,4,1,80
,,,,,,,,,,,,,,,,,,,,,,,,,,,,,,,,,,,,,,,,,,,,,,,,,,,108,ampolla,Catalan,Sounds/cat_ampolla.mp3,2020-06-08_18h10.33.623,TranslationElicitation_eng-prolific,3.2.4,MacIntel,60,5d7b89d48fb7ce00018112ea,,1,0,81,4,1,80
,,,,,,,,,,,,,,,,,,,,,,,,,,,,,,,,,,,,,,,,,l,3.246000051,L,FALSE,,,,,,,185,ulleres,Catalan,Sounds/cat_ulleres.mp3,2020-06-08_18h10.33.623,TranslationElicitation_eng-prolific,3.2.4,MacIntel,60,5d7b89d48fb7ce00018112ea,,1,0,81,76,1,80
,,,,,,,,,,,,,,,,,,,,,,,,,,,,,,,,,,,,,,,,,e,3.297999859,LE,FALSE,,,,,,,185,ulleres,Catalan,Sounds/cat_ulleres.mp3,2020-06-08_18h10.33.623,TranslationElicitation_eng-prolific,3.2.4,MacIntel,60,5d7b89d48fb7ce00018112ea,,1,0,81,76,1,80
,,,,,,,,,,,,,,,,,,,,,,,,,,,,,,,,,,,,,,,,,t,3.470999956,LET,FALSE,,,,,,,185,ulleres,Catalan,Sounds/cat_ulleres.mp3,2020-06-08_18h10.33.623,TranslationElicitation_eng-prolific,3.2.4,MacIntel,60,5d7b89d48fb7ce00018112ea,,1,0,81,76,1,80
,,,,,,,,,,,,,,,,,,,,,,,,,,,,,,,,,,,,,,,,,t,3.743000031,LETT,FALSE,,,,,,,185,ulleres,Catalan,Sounds/cat_ulleres.mp3,2020-06-08_18h10.33.623,TranslationElicitation_eng-prolific,3.2.4,MacIntel,60,5d7b89d48fb7ce00018112ea,,1,0,81,76,1,80
,,,,,,,,,,,,,,,,,,,,,,,,,,,,,,,,,,,,,,,,,e,4.826999903,LETTE,FALSE,,,,,,,185,ulleres,Catalan,Sounds/cat_ulleres.mp3,2020-06-08_18h10.33.623,TranslationElicitation_eng-prolific,3.2.4,MacIntel,60,5d7b89d48fb7ce00018112ea,,1,0,81,76,1,80
,,,,,,,,,,,,,,,,,,,,,,,,,,,,,,,,,,,,,,,,,r,4.902999878,LETTER,FALSE,,,,,,,185,ulleres,Catalan,Sounds/cat_ulleres.mp3,2020-06-08_18h10.33.623,TranslationElicitation_eng-prolific,3.2.4,MacIntel,60,5d7b89d48fb7ce00018112ea,,1,0,81,76,1,80
,,,,,,,,,,,,,,,,,,,,,,,,,,,,,,,,,,,,,,,,,s,5.082000017,LETTERS,FALSE,,,,,,,185,ulleres,Catalan,Sounds/cat_ulleres.mp3,2020-06-08_18h10.33.623,TranslationElicitation_eng-prolific,3.2.4,MacIntel,60,5d7b89d48fb7ce00018112ea,,1,0,81,76,1,80
,,,,,,,,,,,,,,,,,,,,,,,,,,,,,,,,,,,,,,,,,return,5.302000046,LETTERS,FALSE,,,,,,,185,ulleres,Catalan,Sounds/cat_ulleres.mp3,2020-06-08_18h10.33.623,TranslationElicitation_eng-prolific,3.2.4,MacIntel,60,5d7b89d48fb7ce00018112ea,5.302000046,1,0,81,76,1,80
,,,,,,,,,,,,,,,,,,,,,,,,,,,,,,,,,,,,,,,,,,,,,,,,,,,185,ulleres,Catalan,Sounds/cat_ulleres.mp3,2020-06-08_18h10.33.623,TranslationElicitation_eng-prolific,3.2.4,MacIntel,60,5d7b89d48fb7ce00018112ea,,1,0,81,76,1,80
,,,,,,,,,,,,,,,,,,,,,,,,,,,,,,,,,,,,,,,,,c,1.28399992,C,FALSE,,,,,,,188,xocolata,Catalan,Sounds/cat_xocolata.mp3,2020-06-08_18h10.33.623,TranslationElicitation_eng-prolific,3.2.4,MacIntel,60,5d7b89d48fb7ce00018112ea,,1,0,81,79,1,80
,,,,,,,,,,,,,,,,,,,,,,,,,,,,,,,,,,,,,,,,,h,1.446000099,CH,FALSE,,,,,,,188,xocolata,Catalan,Sounds/cat_xocolata.mp3,2020-06-08_18h10.33.623,TranslationElicitation_eng-prolific,3.2.4,MacIntel,60,5d7b89d48fb7ce00018112ea,,1,0,81,79,1,80
,,,,,,,,,,,,,,,,,,,,,,,,,,,,,,,,,,,,,,,,,o,1.575999975,CHO,FALSE,,,,,,,188,xocolata,Catalan,Sounds/cat_xocolata.mp3,2020-06-08_18h10.33.623,TranslationElicitation_eng-prolific,3.2.4,MacIntel,60,5d7b89d48fb7ce00018112ea,,1,0,81,79,1,80
,,,,,,,,,,,,,,,,,,,,,,,,,,,,,,,,,,,,,,,,,c,2.269999981,CHOC,FALSE,,,,,,,188,xocolata,Catalan,Sounds/cat_xocolata.mp3,2020-06-08_18h10.33.623,TranslationElicitation_eng-prolific,3.2.4,MacIntel,60,5d7b89d48fb7ce00018112ea,,1,0,81,79,1,80
,,,,,,,,,,,,,,,,,,,,,,,,,,,,,,,,,,,,,,,,,o,2.447000027,CHOCO,FALSE,,,,,,,188,xocolata,Catalan,Sounds/cat_xocolata.mp3,2020-06-08_18h10.33.623,TranslationElicitation_eng-prolific,3.2.4,MacIntel,60,5d7b89d48fb7ce00018112ea,,1,0,81,79,1,80
,,,,,,,,,,,,,,,,,,,,,,,,,,,,,,,,,,,,,,,,,l,2.634000063,CHOCOL,FALSE,,,,,,,188,xocolata,Catalan,Sounds/cat_xocolata.mp3,2020-06-08_18h10.33.623,TranslationElicitation_eng-prolific,3.2.4,MacIntel,60,5d7b89d48fb7ce00018112ea,,1,0,81,79,1,80
,,,,,,,,,,,,,,,,,,,,,,,,,,,,,,,,,,,,,,,,,a,2.730000019,CHOCOLA,FALSE,,,,,,,188,xocolata,Catalan,Sounds/cat_xocolata.mp3,2020-06-08_18h10.33.623,TranslationElicitation_eng-prolific,3.2.4,MacIntel,60,5d7b89d48fb7ce00018112ea,,1,0,81,79,1,80
,,,,,,,,,,,,,,,,,,,,,,,,,,,,,,,,,,,,,,,,,t,2.815000057,CHOCOLAT,FALSE,,,,,,,188,xocolata,Catalan,Sounds/cat_xocolata.mp3,2020-06-08_18h10.33.623,TranslationElicitation_eng-prolific,3.2.4,MacIntel,60,5d7b89d48fb7ce00018112ea,,1,0,81,79,1,80
,,,,,,,,,,,,,,,,,,,,,,,,,,,,,,,,,,,,,,,,,e,2.944000006,CHOCOLATE,FALSE,,,,,,,188,xocolata,Catalan,Sounds/cat_xocolata.mp3,2020-06-08_18h10.33.623,TranslationElicitation_eng-prolific,3.2.4,MacIntel,60,5d7b89d48fb7ce00018112ea,,1,0,81,79,1,80
,,,,,,,,,,,,,,,,,,,,,,,,,,,,,,,,,,,,,,,,,return,3.076999903,CHOCOLATE,FALSE,,,,,,,188,xocolata,Catalan,Sounds/cat_xocolata.mp3,2020-06-08_18h10.33.623,TranslationElicitation_eng-prolific,3.2.4,MacIntel,60,5d7b89d48fb7ce00018112ea,3.076999903,1,0,81,79,1,80
,,,,,,,,,,,,,,,,,,,,,,,,,,,,,,,,,,,,,,,,,,,,,,,,,,,188,xocolata,Catalan,Sounds/cat_xocolata.mp3,2020-06-08_18h10.33.623,TranslationElicitation_eng-prolific,3.2.4,MacIntel,60,5d7b89d48fb7ce00018112ea,,1,0,81,79,1,80
,,,,,,,,,,,,,,,,,,,,,,,,,,,,,,,,,,,,,,,,,t,4.369999886,T,FALSE,,,,,,,166,peu,Catalan,Sounds/cat_peu.mp3,2020-06-08_18h10.33.623,TranslationElicitation_eng-prolific,3.2.4,MacIntel,60,5d7b89d48fb7ce00018112ea,,1,0,81,58,1,80
,,,,,,,,,,,,,,,,,,,,,,,,,,,,,,,,,,,,,,,,,e,4.46999979,TE,FALSE,,,,,,,166,peu,Catalan,Sounds/cat_peu.mp3,2020-06-08_18h10.33.623,TranslationElicitation_eng-prolific,3.2.4,MacIntel,60,5d7b89d48fb7ce00018112ea,,1,0,81,58,1,80
,,,,,,,,,,,,,,,,,,,,,,,,,,,,,,,,,,,,,,,,,a,4.686999798,TEA,FALSE,,,,,,,166,peu,Catalan,Sounds/cat_peu.mp3,2020-06-08_18h10.33.623,TranslationElicitation_eng-prolific,3.2.4,MacIntel,60,5d7b89d48fb7ce00018112ea,,1,0,81,58,1,80
,,,,,,,,,,,,,,,,,,,,,,,,,,,,,,,,,,,,,,,,,return,4.855000019,TEA,FALSE,,,,,,,166,peu,Catalan,Sounds/cat_peu.mp3,2020-06-08_18h10.33.623,TranslationElicitation_eng-prolific,3.2.4,MacIntel,60,5d7b89d48fb7ce00018112ea,4.855000019,1,0,81,58,1,80
,,,,,,,,,,,,,,,,,,,,,,,,,,,,,,,,,,,,,,,,,,,,,,,,,,,166,peu,Catalan,Sounds/cat_peu.mp3,2020-06-08_18h10.33.623,TranslationElicitation_eng-prolific,3.2.4,MacIntel,60,5d7b89d48fb7ce00018112ea,,1,0,81,58,1,80
,,,,,,,,,,,,,,,,,,,,,,,,,,,,,,,,,,,,,,,,,t,2.962000132,T,FALSE,,,,,,,183,tren,Catalan,Sounds/cat_tren.mp3,2020-06-08_18h10.33.623,TranslationElicitation_eng-prolific,3.2.4,MacIntel,60,5d7b89d48fb7ce00018112ea,,1,0,81,74,1,80
,,,,,,,,,,,,,,,,,,,,,,,,,,,,,,,,,,,,,,,,,h,3.069000006,TH,FALSE,,,,,,,183,tren,Catalan,Sounds/cat_tren.mp3,2020-06-08_18h10.33.623,TranslationElicitation_eng-prolific,3.2.4,MacIntel,60,5d7b89d48fb7ce00018112ea,,1,0,81,74,1,80
,,,,,,,,,,,,,,,,,,,,,,,,,,,,,,,,,,,,,,,,,i,3.272000074,THI,FALSE,,,,,,,183,tren,Catalan,Sounds/cat_tren.mp3,2020-06-08_18h10.33.623,TranslationElicitation_eng-prolific,3.2.4,MacIntel,60,5d7b89d48fb7ce00018112ea,,1,0,81,74,1,80
,,,,,,,,,,,,,,,,,,,,,,,,,,,,,,,,,,,,,,,,,r,3.421000004,THIR,FALSE,,,,,,,183,tren,Catalan,Sounds/cat_tren.mp3,2020-06-08_18h10.33.623,TranslationElicitation_eng-prolific,3.2.4,MacIntel,60,5d7b89d48fb7ce00018112ea,,1,0,81,74,1,80
,,,,,,,,,,,,,,,,,,,,,,,,,,,,,,,,,,,,,,,,,t,3.521000147,THIRT,FALSE,,,,,,,183,tren,Catalan,Sounds/cat_tren.mp3,2020-06-08_18h10.33.623,TranslationElicitation_eng-prolific,3.2.4,MacIntel,60,5d7b89d48fb7ce00018112ea,,1,0,81,74,1,80
,,,,,,,,,,,,,,,,,,,,,,,,,,,,,,,,,,,,,,,,,y,4.120000124,THIRTY,FALSE,,,,,,,183,tren,Catalan,Sounds/cat_tren.mp3,2020-06-08_18h10.33.623,TranslationElicitation_eng-prolific,3.2.4,MacIntel,60,5d7b89d48fb7ce00018112ea,,1,0,81,74,1,80
,,,,,,,,,,,,,,,,,,,,,,,,,,,,,,,,,,,,,,,,,return,4.194000006,THIRTY,FALSE,,,,,,,183,tren,Catalan,Sounds/cat_tren.mp3,2020-06-08_18h10.33.623,TranslationElicitation_eng-prolific,3.2.4,MacIntel,60,5d7b89d48fb7ce00018112ea,4.194000006,1,0,81,74,1,80
,,,,,,,,,,,,,,,,,,,,,,,,,,,,,,,,,,,,,,,,,,,,,,,,,,,183,tren,Catalan,Sounds/cat_tren.mp3,2020-06-08_18h10.33.623,TranslationElicitation_eng-prolific,3.2.4,MacIntel,60,5d7b89d48fb7ce00018112ea,,1,0,81,74,1,80
,,,,,,,,,,,,,,,,,,,,,,,,,,,,,,,,,,,,,,,,,z,1.651000023,Z,FALSE,,,,,,,189,zebra,Catalan,Sounds/cat_zebra.mp3,2020-06-08_18h10.33.623,TranslationElicitation_eng-prolific,3.2.4,MacIntel,60,5d7b89d48fb7ce00018112ea,,1,0,81,80,1,80
,,,,,,,,,,,,,,,,,,,,,,,,,,,,,,,,,,,,,,,,,e,1.930999994,ZE,FALSE,,,,,,,189,zebra,Catalan,Sounds/cat_zebra.mp3,2020-06-08_18h10.33.623,TranslationElicitation_eng-prolific,3.2.4,MacIntel,60,5d7b89d48fb7ce00018112ea,,1,0,81,80,1,80
,,,,,,,,,,,,,,,,,,,,,,,,,,,,,,,,,,,,,,,,,b,2.052000046,ZEB,FALSE,,,,,,,189,zebra,Catalan,Sounds/cat_zebra.mp3,2020-06-08_18h10.33.623,TranslationElicitation_eng-prolific,3.2.4,MacIntel,60,5d7b89d48fb7ce00018112ea,,1,0,81,80,1,80
,,,,,,,,,,,,,,,,,,,,,,,,,,,,,,,,,,,,,,,,,r,2.167000055,ZEBR,FALSE,,,,,,,189,zebra,Catalan,Sounds/cat_zebra.mp3,2020-06-08_18h10.33.623,TranslationElicitation_eng-prolific,3.2.4,MacIntel,60,5d7b89d48fb7ce00018112ea,,1,0,81,80,1,80
,,,,,,,,,,,,,,,,,,,,,,,,,,,,,,,,,,,,,,,,,a,2.272000074,ZEBRA,FALSE,,,,,,,189,zebra,Catalan,Sounds/cat_zebra.mp3,2020-06-08_18h10.33.623,TranslationElicitation_eng-prolific,3.2.4,MacIntel,60,5d7b89d48fb7ce00018112ea,,1,0,81,80,1,80
,,,,,,,,,,,,,,,,,,,,,,,,,,,,,,,,,,,,,,,,,return,2.503000021,ZEBRA,FALSE,,,,,,,189,zebra,Catalan,Sounds/cat_zebra.mp3,2020-06-08_18h10.33.623,TranslationElicitation_eng-prolific,3.2.4,MacIntel,60,5d7b89d48fb7ce00018112ea,2.503000021,1,0,81,80,1,80
,,,,,,,,,,,,,,,,,,,,,,,,,,,,,,,,,,,,,,,,,,,,,,,,,,,189,zebra,Catalan,Sounds/cat_zebra.mp3,2020-06-08_18h10.33.623,TranslationElicitation_eng-prolific,3.2.4,MacIntel,60,5d7b89d48fb7ce00018112ea,,1,0,81,80,1,80
,,,,,,,,,,,,,,,,,,,,,,,,,,,,,,,,,,,,,,,,,a,1.34499979,A,FALSE,,,,,,,120,cama,Catalan,Sounds/cat_cama.mp3,2020-06-08_18h10.33.623,TranslationElicitation_eng-prolific,3.2.4,MacIntel,60,5d7b89d48fb7ce00018112ea,,1,0,81,15,1,80
,,,,,,,,,,,,,,,,,,,,,,,,,,,,,,,,,,,,,,,,,m,1.511999846,AM,FALSE,,,,,,,120,cama,Catalan,Sounds/cat_cama.mp3,2020-06-08_18h10.33.623,TranslationElicitation_eng-prolific,3.2.4,MacIntel,60,5d7b89d48fb7ce00018112ea,,1,0,81,15,1,80
,,,,,,,,,,,,,,,,,,,,,,,,,,,,,,,,,,,,,,,,,e,11.97599983,AME,FALSE,,,,,,,120,cama,Catalan,Sounds/cat_cama.mp3,2020-06-08_18h10.33.623,TranslationElicitation_eng-prolific,3.2.4,MacIntel,60,5d7b89d48fb7ce00018112ea,,1,0,81,15,1,80
,,,,,,,,,,,,,,,,,,,,,,,,,,,,,,,,,,,,,,,,,c,12.57799983,AMEC,FALSE,,,,,,,120,cama,Catalan,Sounds/cat_cama.mp3,2020-06-08_18h10.33.623,TranslationElicitation_eng-prolific,3.2.4,MacIntel,60,5d7b89d48fb7ce00018112ea,,1,0,81,15,1,80
,,,,,,,,,,,,,,,,,,,,,,,,,,,,,,,,,,,,,,,,,backspace,13.46399999,AME,TRUE,,,,,,,120,cama,Catalan,Sounds/cat_cama.mp3,2020-06-08_18h10.33.623,TranslationElicitation_eng-prolific,3.2.4,MacIntel,60,5d7b89d48fb7ce00018112ea,,1,0,81,15,1,80
