consentKey.keys,consentKey.rt,languageL1Key.keys,languageL1Key.rt,languageL2,languageL2OralKey.keys,languageL2OralKey.rt,languageL2WrittenKey.keys,languageL2WrittenKey.rt,languageL3OralKey.keys,languageL3OralKey.rt,languageL3WrittenKey.keys,languageL3WrittenKey.rt,languageCatalanOralKey.keys,languageCatalanOralKey.rt,languageCatalanWrittenKey.keys,languageCatalanWrittenKey.rt,languageCatalanTimeKey.keys,languageCatalanTimeKey.rt,languageSpanishOralKey.keys,languageSpanishOralKey.rt,languageSpanishWrittenKey.keys,languageSpanishWrittenKey.rt,languageSpanishTimeKey.keys,languageSpanishTimeKey.rt,age,demoSexKey.keys,demoSexKey.rt,demoEducationKey.keys,demoEducationKey.rt,city,demoVisionKey.keys,demoVisionKey.rt,demoLanguageKey.keys,demoLanguageKey.rt,setupLocationKey.keys,setupLocationKey.rt,setupNoiseKey.keys,setupNoiseKey.rt,instructionsKeys.keys,instructionsKeys.rt,trialOffset,keyPressTime,keyPressed,inputText,error,trialsPracticeSpanish.thisRepN,trialsPracticeSpanish.thisTrialN,trialsPracticeSpanish.thisN,trialsPracticeSpanish.thisIndex,trialsPracticeSpanish.ran,trialsPracticeSpanish.order,trial_id,word,test_language,soundfile,date,expName,psychopyVersion,OS,frameRate,participant,trialsSpanish.thisRepN,trialsSpanish.thisTrialN,trialsSpanish.thisN,trialsSpanish.thisIndex,trialsSpanish.ran,trialsSpanish.order
space,0.951000214,e,1.964000225,,,,,,,,,,1,3.129000187,1,2.049000025,1,4.591000319,2,4.670000076,1,2.299000263,1,2.858000278,24,f,1.338000298,4,2.270000219,SOUTHAMPTON,y,2.085000038,n,1.766000271,1,1.789000273,1,5.30700016,space,3.713000298,7.112999916,7.112999916,return,,FALSE,1,0,5,4,1,4,96,tigre,Spanish,Sounds/spa_tigre.mp3,2020-06-04_16h58.14.846,TranslationElicitation_eng-prolific,3.2.4,Win32,60,5dae0ea2a0e1f7001526ac22,,,,,,
,,,,,,,,,,,,,,,,,,,,,,,,,,,,,,,,,,,,,,,,,,,,,,1,0,5,4,1,4,96,tigre,Spanish,Sounds/spa_tigre.mp3,2020-06-04_16h58.14.846,TranslationElicitation_eng-prolific,3.2.4,Win32,60,5dae0ea2a0e1f7001526ac22,,,,,,
,,,,,,,,,,,,,,,,,,,,,,,,,,,,,,,,,,,,,,,,,,4.281000137,c,C,FALSE,1,0,5,1,1,4,30,corona,Spanish,Sounds/spa_corona.mp3,2020-06-04_16h58.14.846,TranslationElicitation_eng-prolific,3.2.4,Win32,60,5dae0ea2a0e1f7001526ac22,,,,,,
,,,,,,,,,,,,,,,,,,,,,,,,,,,,,,,,,,,,,,,,,,4.430999994,o,CO,FALSE,1,0,5,1,1,4,30,corona,Spanish,Sounds/spa_corona.mp3,2020-06-04_16h58.14.846,TranslationElicitation_eng-prolific,3.2.4,Win32,60,5dae0ea2a0e1f7001526ac22,,,,,,
,,,,,,,,,,,,,,,,,,,,,,,,,,,,,,,,,,,,,,,,,,4.680999994,r,COR,FALSE,1,0,5,1,1,4,30,corona,Spanish,Sounds/spa_corona.mp3,2020-06-04_16h58.14.846,TranslationElicitation_eng-prolific,3.2.4,Win32,60,5dae0ea2a0e1f7001526ac22,,,,,,
,,,,,,,,,,,,,,,,,,,,,,,,,,,,,,,,,,,,,,,,,,4.764000177,o,CORO,FALSE,1,0,5,1,1,4,30,corona,Spanish,Sounds/spa_corona.mp3,2020-06-04_16h58.14.846,TranslationElicitation_eng-prolific,3.2.4,Win32,60,5dae0ea2a0e1f7001526ac22,,,,,,
,,,,,,,,,,,,,,,,,,,,,,,,,,,,,,,,,,,,,,,,,,5.08100009,a,COROA,FALSE,1,0,5,1,1,4,30,corona,Spanish,Sounds/spa_corona.mp3,2020-06-04_16h58.14.846,TranslationElicitation_eng-prolific,3.2.4,Win32,60,5dae0ea2a0e1f7001526ac22,,,,,,
,,,,,,,,,,,,,,,,,,,,,,,,,,,,,,,,,,,,,,,,,,5.447000027,backspace,CORO,TRUE,1,0,5,1,1,4,30,corona,Spanish,Sounds/spa_corona.mp3,2020-06-04_16h58.14.846,TranslationElicitation_eng-prolific,3.2.4,Win32,60,5dae0ea2a0e1f7001526ac22,,,,,,
,,,,,,,,,,,,,,,,,,,,,,,,,,,,,,,,,,,,,,,,,,5.631000042,n,CORON,TRUE,1,0,5,1,1,4,30,corona,Spanish,Sounds/spa_corona.mp3,2020-06-04_16h58.14.846,TranslationElicitation_eng-prolific,3.2.4,Win32,60,5dae0ea2a0e1f7001526ac22,,,,,,
,,,,,,,,,,,,,,,,,,,,,,,,,,,,,,,,,,,,,,,,,,5.764000177,a,CORONA,TRUE,1,0,5,1,1,4,30,corona,Spanish,Sounds/spa_corona.mp3,2020-06-04_16h58.14.846,TranslationElicitation_eng-prolific,3.2.4,Win32,60,5dae0ea2a0e1f7001526ac22,,,,,,
,,,,,,,,,,,,,,,,,,,,,,,,,,,,,,,,,,,,,,,,,6.130000114,6.130000114,return,CORONA,TRUE,1,0,5,1,1,4,30,corona,Spanish,Sounds/spa_corona.mp3,2020-06-04_16h58.14.846,TranslationElicitation_eng-prolific,3.2.4,Win32,60,5dae0ea2a0e1f7001526ac22,,,,,,
,,,,,,,,,,,,,,,,,,,,,,,,,,,,,,,,,,,,,,,,,,,,,,1,0,5,1,1,4,30,corona,Spanish,Sounds/spa_corona.mp3,2020-06-04_16h58.14.846,TranslationElicitation_eng-prolific,3.2.4,Win32,60,5dae0ea2a0e1f7001526ac22,,,,,,
,,,,,,,,,,,,,,,,,,,,,,,,,,,,,,,,,,,,,,,,,,3.281000137,h,H,FALSE,1,0,5,0,1,4,1,arbol,Spanish,Sounds/spa_arbol.mp3,2020-06-04_16h58.14.846,TranslationElicitation_eng-prolific,3.2.4,Win32,60,5dae0ea2a0e1f7001526ac22,,,,,,
,,,,,,,,,,,,,,,,,,,,,,,,,,,,,,,,,,,,,,,,,,3.447000027,i,HI,FALSE,1,0,5,0,1,4,1,arbol,Spanish,Sounds/spa_arbol.mp3,2020-06-04_16h58.14.846,TranslationElicitation_eng-prolific,3.2.4,Win32,60,5dae0ea2a0e1f7001526ac22,,,,,,
,,,,,,,,,,,,,,,,,,,,,,,,,,,,,,,,,,,,,,,,,,3.513999939,g,HIG,FALSE,1,0,5,0,1,4,1,arbol,Spanish,Sounds/spa_arbol.mp3,2020-06-04_16h58.14.846,TranslationElicitation_eng-prolific,3.2.4,Win32,60,5dae0ea2a0e1f7001526ac22,,,,,,
,,,,,,,,,,,,,,,,,,,,,,,,,,,,,,,,,,,,,,,,,,3.614000082,h,HIGH,FALSE,1,0,5,0,1,4,1,arbol,Spanish,Sounds/spa_arbol.mp3,2020-06-04_16h58.14.846,TranslationElicitation_eng-prolific,3.2.4,Win32,60,5dae0ea2a0e1f7001526ac22,,,,,,
,,,,,,,,,,,,,,,,,,,,,,,,,,,,,,,,,,,,,,,,,,3.763999939,space,HIGH ,FALSE,1,0,5,0,1,4,1,arbol,Spanish,Sounds/spa_arbol.mp3,2020-06-04_16h58.14.846,TranslationElicitation_eng-prolific,3.2.4,Win32,60,5dae0ea2a0e1f7001526ac22,,,,,,
,,,,,,,,,,,,,,,,,,,,,,,,,,,,,,,,,,,,,,,,,,3.897000074,w,HIGH W,FALSE,1,0,5,0,1,4,1,arbol,Spanish,Sounds/spa_arbol.mp3,2020-06-04_16h58.14.846,TranslationElicitation_eng-prolific,3.2.4,Win32,60,5dae0ea2a0e1f7001526ac22,,,,,,
,,,,,,,,,,,,,,,,,,,,,,,,,,,,,,,,,,,,,,,,,,3.980000019,a,HIGH WA,FALSE,1,0,5,0,1,4,1,arbol,Spanish,Sounds/spa_arbol.mp3,2020-06-04_16h58.14.846,TranslationElicitation_eng-prolific,3.2.4,Win32,60,5dae0ea2a0e1f7001526ac22,,,,,,
,,,,,,,,,,,,,,,,,,,,,,,,,,,,,,,,,,,,,,,,,,4.06400013,l,HIGH WAL,FALSE,1,0,5,0,1,4,1,arbol,Spanish,Sounds/spa_arbol.mp3,2020-06-04_16h58.14.846,TranslationElicitation_eng-prolific,3.2.4,Win32,60,5dae0ea2a0e1f7001526ac22,,,,,,
,,,,,,,,,,,,,,,,,,,,,,,,,,,,,,,,,,,,,,,,,,4.180000067,l,HIGH WALL,FALSE,1,0,5,0,1,4,1,arbol,Spanish,Sounds/spa_arbol.mp3,2020-06-04_16h58.14.846,TranslationElicitation_eng-prolific,3.2.4,Win32,60,5dae0ea2a0e1f7001526ac22,,,,,,
,,,,,,,,,,,,,,,,,,,,,,,,,,,,,,,,,,,,,,,,,4.335999966,4.335999966,return,HIGH WALL,FALSE,1,0,5,0,1,4,1,arbol,Spanish,Sounds/spa_arbol.mp3,2020-06-04_16h58.14.846,TranslationElicitation_eng-prolific,3.2.4,Win32,60,5dae0ea2a0e1f7001526ac22,,,,,,
,,,,,,,,,,,,,,,,,,,,,,,,,,,,,,,,,,,,,,,,,,,,,,1,0,5,0,1,4,1,arbol,Spanish,Sounds/spa_arbol.mp3,2020-06-04_16h58.14.846,TranslationElicitation_eng-prolific,3.2.4,Win32,60,5dae0ea2a0e1f7001526ac22,,,,,,
,,,,,,,,,,,,,,,,,,,,,,,,,,,,,,,,,,,,,,,,,,2.414999962,c,C,FALSE,1,0,5,2,1,4,26,chaqueta,Spanish,Sounds/spa_chaqueta.mp3,2020-06-04_16h58.14.846,TranslationElicitation_eng-prolific,3.2.4,Win32,60,5dae0ea2a0e1f7001526ac22,,,,,,
,,,,,,,,,,,,,,,,,,,,,,,,,,,,,,,,,,,,,,,,,,2.498999834,h,CH,FALSE,1,0,5,2,1,4,26,chaqueta,Spanish,Sounds/spa_chaqueta.mp3,2020-06-04_16h58.14.846,TranslationElicitation_eng-prolific,3.2.4,Win32,60,5dae0ea2a0e1f7001526ac22,,,,,,
,,,,,,,,,,,,,,,,,,,,,,,,,,,,,,,,,,,,,,,,,,2.648000002,e,CHE,FALSE,1,0,5,2,1,4,26,chaqueta,Spanish,Sounds/spa_chaqueta.mp3,2020-06-04_16h58.14.846,TranslationElicitation_eng-prolific,3.2.4,Win32,60,5dae0ea2a0e1f7001526ac22,,,,,,
,,,,,,,,,,,,,,,,,,,,,,,,,,,,,,,,,,,,,,,,,,2.714999914,c,CHEC,FALSE,1,0,5,2,1,4,26,chaqueta,Spanish,Sounds/spa_chaqueta.mp3,2020-06-04_16h58.14.846,TranslationElicitation_eng-prolific,3.2.4,Win32,60,5dae0ea2a0e1f7001526ac22,,,,,,
,,,,,,,,,,,,,,,,,,,,,,,,,,,,,,,,,,,,,,,,,,2.797999859,k,CHECK,FALSE,1,0,5,2,1,4,26,chaqueta,Spanish,Sounds/spa_chaqueta.mp3,2020-06-04_16h58.14.846,TranslationElicitation_eng-prolific,3.2.4,Win32,60,5dae0ea2a0e1f7001526ac22,,,,,,
,,,,,,,,,,,,,,,,,,,,,,,,,,,,,,,,,,,,,,,,,3.11500001,3.11500001,return,CHECK,FALSE,1,0,5,2,1,4,26,chaqueta,Spanish,Sounds/spa_chaqueta.mp3,2020-06-04_16h58.14.846,TranslationElicitation_eng-prolific,3.2.4,Win32,60,5dae0ea2a0e1f7001526ac22,,,,,,
,,,,,,,,,,,,,,,,,,,,,,,,,,,,,,,,,,,,,,,,,,,,,,1,0,5,2,1,4,26,chaqueta,Spanish,Sounds/spa_chaqueta.mp3,2020-06-04_16h58.14.846,TranslationElicitation_eng-prolific,3.2.4,Win32,60,5dae0ea2a0e1f7001526ac22,,,,,,
,,,,,,,,,,,,,,,,,,,,,,,,,,,,,,,,,,,,,,,,,,1.514999866,h,H,FALSE,1,0,5,3,1,4,70,ola,Spanish,Sounds/spa_ola.mp3,2020-06-04_16h58.14.846,TranslationElicitation_eng-prolific,3.2.4,Win32,60,5dae0ea2a0e1f7001526ac22,,,,,,
,,,,,,,,,,,,,,,,,,,,,,,,,,,,,,,,,,,,,,,,,,1.581999779,e,HE,FALSE,1,0,5,3,1,4,70,ola,Spanish,Sounds/spa_ola.mp3,2020-06-04_16h58.14.846,TranslationElicitation_eng-prolific,3.2.4,Win32,60,5dae0ea2a0e1f7001526ac22,,,,,,
,,,,,,,,,,,,,,,,,,,,,,,,,,,,,,,,,,,,,,,,,,1.714999914,l,HEL,FALSE,1,0,5,3,1,4,70,ola,Spanish,Sounds/spa_ola.mp3,2020-06-04_16h58.14.846,TranslationElicitation_eng-prolific,3.2.4,Win32,60,5dae0ea2a0e1f7001526ac22,,,,,,
,,,,,,,,,,,,,,,,,,,,,,,,,,,,,,,,,,,,,,,,,,1.864999771,l,HELL,FALSE,1,0,5,3,1,4,70,ola,Spanish,Sounds/spa_ola.mp3,2020-06-04_16h58.14.846,TranslationElicitation_eng-prolific,3.2.4,Win32,60,5dae0ea2a0e1f7001526ac22,,,,,,
,,,,,,,,,,,,,,,,,,,,,,,,,,,,,,,,,,,,,,,,,,1.981999874,o,HELLO,FALSE,1,0,5,3,1,4,70,ola,Spanish,Sounds/spa_ola.mp3,2020-06-04_16h58.14.846,TranslationElicitation_eng-prolific,3.2.4,Win32,60,5dae0ea2a0e1f7001526ac22,,,,,,
,,,,,,,,,,,,,,,,,,,,,,,,,,,,,,,,,,,,,,,,,2.214999914,2.214999914,return,HELLO,FALSE,1,0,5,3,1,4,70,ola,Spanish,Sounds/spa_ola.mp3,2020-06-04_16h58.14.846,TranslationElicitation_eng-prolific,3.2.4,Win32,60,5dae0ea2a0e1f7001526ac22,,,,,,
,,,,,,,,,,,,,,,,,,,,,,,,,,,,,,,,,,,,,,,,,,,,,,1,0,5,3,1,4,70,ola,Spanish,Sounds/spa_ola.mp3,2020-06-04_16h58.14.846,TranslationElicitation_eng-prolific,3.2.4,Win32,60,5dae0ea2a0e1f7001526ac22,,,,,,
,,,,,,,,,,,,,,,,,,,,,,,,,,,,,,,,,,,,,,,,,,1.88499999,s,S,FALSE,,,,,,,93,sol,Spanish,Sounds/spa_sol.mp3,2020-06-04_16h58.14.846,TranslationElicitation_eng-prolific,3.2.4,Win32,60,5dae0ea2a0e1f7001526ac22,1,0,98,88,1,97
,,,,,,,,,,,,,,,,,,,,,,,,,,,,,,,,,,,,,,,,,,2.016000032,u,SU,FALSE,,,,,,,93,sol,Spanish,Sounds/spa_sol.mp3,2020-06-04_16h58.14.846,TranslationElicitation_eng-prolific,3.2.4,Win32,60,5dae0ea2a0e1f7001526ac22,1,0,98,88,1,97
,,,,,,,,,,,,,,,,,,,,,,,,,,,,,,,,,,,,,,,,,,2.166000128,n,SUN,FALSE,,,,,,,93,sol,Spanish,Sounds/spa_sol.mp3,2020-06-04_16h58.14.846,TranslationElicitation_eng-prolific,3.2.4,Win32,60,5dae0ea2a0e1f7001526ac22,1,0,98,88,1,97
,,,,,,,,,,,,,,,,,,,,,,,,,,,,,,,,,,,,,,,,,2.649000168,2.649000168,return,SUN,FALSE,,,,,,,93,sol,Spanish,Sounds/spa_sol.mp3,2020-06-04_16h58.14.846,TranslationElicitation_eng-prolific,3.2.4,Win32,60,5dae0ea2a0e1f7001526ac22,1,0,98,88,1,97
,,,,,,,,,,,,,,,,,,,,,,,,,,,,,,,,,,,,,,,,,,,,,,,,,,,,93,sol,Spanish,Sounds/spa_sol.mp3,2020-06-04_16h58.14.846,TranslationElicitation_eng-prolific,3.2.4,Win32,60,5dae0ea2a0e1f7001526ac22,1,0,98,88,1,97
,,,,,,,,,,,,,,,,,,,,,,,,,,,,,,,,,,,,,,,,,,3.947999954,d,D,FALSE,,,,,,,11,boton,Spanish,Sounds/spa_boton.mp3,2020-06-04_16h58.14.846,TranslationElicitation_eng-prolific,3.2.4,Win32,60,5dae0ea2a0e1f7001526ac22,1,0,98,9,1,97
,,,,,,,,,,,,,,,,,,,,,,,,,,,,,,,,,,,,,,,,,,4.082000017,o,DO,FALSE,,,,,,,11,boton,Spanish,Sounds/spa_boton.mp3,2020-06-04_16h58.14.846,TranslationElicitation_eng-prolific,3.2.4,Win32,60,5dae0ea2a0e1f7001526ac22,1,0,98,9,1,97
,,,,,,,,,,,,,,,,,,,,,,,,,,,,,,,,,,,,,,,,,,4.148000002,g,DOG,FALSE,,,,,,,11,boton,Spanish,Sounds/spa_boton.mp3,2020-06-04_16h58.14.846,TranslationElicitation_eng-prolific,3.2.4,Win32,60,5dae0ea2a0e1f7001526ac22,1,0,98,9,1,97
,,,,,,,,,,,,,,,,,,,,,,,,,,,,,,,,,,,,,,,,,4.363999844,4.363999844,return,DOG,FALSE,,,,,,,11,boton,Spanish,Sounds/spa_boton.mp3,2020-06-04_16h58.14.846,TranslationElicitation_eng-prolific,3.2.4,Win32,60,5dae0ea2a0e1f7001526ac22,1,0,98,9,1,97
,,,,,,,,,,,,,,,,,,,,,,,,,,,,,,,,,,,,,,,,,,,,,,,,,,,,11,boton,Spanish,Sounds/spa_boton.mp3,2020-06-04_16h58.14.846,TranslationElicitation_eng-prolific,3.2.4,Win32,60,5dae0ea2a0e1f7001526ac22,1,0,98,9,1,97
,,,,,,,,,,,,,,,,,,,,,,,,,,,,,,,,,,,,,,,,,,1.899000168,p,P,FALSE,,,,,,,76,panal,Spanish,Sounds/spa_panal.mp3,2020-06-04_16h58.14.846,TranslationElicitation_eng-prolific,3.2.4,Win32,60,5dae0ea2a0e1f7001526ac22,1,0,98,71,1,97
,,,,,,,,,,,,,,,,,,,,,,,,,,,,,,,,,,,,,,,,,,2.19900012,i,PI,FALSE,,,,,,,76,panal,Spanish,Sounds/spa_panal.mp3,2020-06-04_16h58.14.846,TranslationElicitation_eng-prolific,3.2.4,Win32,60,5dae0ea2a0e1f7001526ac22,1,0,98,71,1,97
,,,,,,,,,,,,,,,,,,,,,,,,,,,,,,,,,,,,,,,,,,2.366000175,n,PIN,FALSE,,,,,,,76,panal,Spanish,Sounds/spa_panal.mp3,2020-06-04_16h58.14.846,TranslationElicitation_eng-prolific,3.2.4,Win32,60,5dae0ea2a0e1f7001526ac22,1,0,98,71,1,97
,,,,,,,,,,,,,,,,,,,,,,,,,,,,,,,,,,,,,,,,,,2.43200016,e,PINE,FALSE,,,,,,,76,panal,Spanish,Sounds/spa_panal.mp3,2020-06-04_16h58.14.846,TranslationElicitation_eng-prolific,3.2.4,Win32,60,5dae0ea2a0e1f7001526ac22,1,0,98,71,1,97
,,,,,,,,,,,,,,,,,,,,,,,,,,,,,,,,,,,,,,,,,,2.532000065,a,PINEA,FALSE,,,,,,,76,panal,Spanish,Sounds/spa_panal.mp3,2020-06-04_16h58.14.846,TranslationElicitation_eng-prolific,3.2.4,Win32,60,5dae0ea2a0e1f7001526ac22,1,0,98,71,1,97
,,,,,,,,,,,,,,,,,,,,,,,,,,,,,,,,,,,,,,,,,,2.664999962,p,PINEAP,FALSE,,,,,,,76,panal,Spanish,Sounds/spa_panal.mp3,2020-06-04_16h58.14.846,TranslationElicitation_eng-prolific,3.2.4,Win32,60,5dae0ea2a0e1f7001526ac22,1,0,98,71,1,97
,,,,,,,,,,,,,,,,,,,,,,,,,,,,,,,,,,,,,,,,,,2.782000065,p,PINEAPP,FALSE,,,,,,,76,panal,Spanish,Sounds/spa_panal.mp3,2020-06-04_16h58.14.846,TranslationElicitation_eng-prolific,3.2.4,Win32,60,5dae0ea2a0e1f7001526ac22,1,0,98,71,1,97
,,,,,,,,,,,,,,,,,,,,,,,,,,,,,,,,,,,,,,,,,,2.883000135,e,PINEAPPE,FALSE,,,,,,,76,panal,Spanish,Sounds/spa_panal.mp3,2020-06-04_16h58.14.846,TranslationElicitation_eng-prolific,3.2.4,Win32,60,5dae0ea2a0e1f7001526ac22,1,0,98,71,1,97
,,,,,,,,,,,,,,,,,,,,,,,,,,,,,,,,,,,,,,,,,,2.94900012,l,PINEAPPEL,FALSE,,,,,,,76,panal,Spanish,Sounds/spa_panal.mp3,2020-06-04_16h58.14.846,TranslationElicitation_eng-prolific,3.2.4,Win32,60,5dae0ea2a0e1f7001526ac22,1,0,98,71,1,97
,,,,,,,,,,,,,,,,,,,,,,,,,,,,,,,,,,,,,,,,,,3.348999977,backspace,PINEAPPE,TRUE,,,,,,,76,panal,Spanish,Sounds/spa_panal.mp3,2020-06-04_16h58.14.846,TranslationElicitation_eng-prolific,3.2.4,Win32,60,5dae0ea2a0e1f7001526ac22,1,0,98,71,1,97
,,,,,,,,,,,,,,,,,,,,,,,,,,,,,,,,,,,,,,,,,,3.482000113,backspace,PINEAPP,TRUE,,,,,,,76,panal,Spanish,Sounds/spa_panal.mp3,2020-06-04_16h58.14.846,TranslationElicitation_eng-prolific,3.2.4,Win32,60,5dae0ea2a0e1f7001526ac22,1,0,98,71,1,97
,,,,,,,,,,,,,,,,,,,,,,,,,,,,,,,,,,,,,,,,,,3.649000168,l,PINEAPPL,TRUE,,,,,,,76,panal,Spanish,Sounds/spa_panal.mp3,2020-06-04_16h58.14.846,TranslationElicitation_eng-prolific,3.2.4,Win32,60,5dae0ea2a0e1f7001526ac22,1,0,98,71,1,97
,,,,,,,,,,,,,,,,,,,,,,,,,,,,,,,,,,,,,,,,,,3.766000032,e,PINEAPPLE,TRUE,,,,,,,76,panal,Spanish,Sounds/spa_panal.mp3,2020-06-04_16h58.14.846,TranslationElicitation_eng-prolific,3.2.4,Win32,60,5dae0ea2a0e1f7001526ac22,1,0,98,71,1,97
,,,,,,,,,,,,,,,,,,,,,,,,,,,,,,,,,,,,,,,,,3.93200016,3.93200016,return,PINEAPPLE,TRUE,,,,,,,76,panal,Spanish,Sounds/spa_panal.mp3,2020-06-04_16h58.14.846,TranslationElicitation_eng-prolific,3.2.4,Win32,60,5dae0ea2a0e1f7001526ac22,1,0,98,71,1,97
,,,,,,,,,,,,,,,,,,,,,,,,,,,,,,,,,,,,,,,,,,,,,,,,,,,,76,panal,Spanish,Sounds/spa_panal.mp3,2020-06-04_16h58.14.846,TranslationElicitation_eng-prolific,3.2.4,Win32,60,5dae0ea2a0e1f7001526ac22,1,0,98,71,1,97
,,,,,,,,,,,,,,,,,,,,,,,,,,,,,,,,,,,,,,,,,,1.832000017,v,V,FALSE,,,,,,,18,camisa,Spanish,Sounds/spa_camisa.mp3,2020-06-04_16h58.14.846,TranslationElicitation_eng-prolific,3.2.4,Win32,60,5dae0ea2a0e1f7001526ac22,1,0,98,16,1,97
,,,,,,,,,,,,,,,,,,,,,,,,,,,,,,,,,,,,,,,,,,1.948999882,e,VE,FALSE,,,,,,,18,camisa,Spanish,Sounds/spa_camisa.mp3,2020-06-04_16h58.14.846,TranslationElicitation_eng-prolific,3.2.4,Win32,60,5dae0ea2a0e1f7001526ac22,1,0,98,16,1,97
,,,,,,,,,,,,,,,,,,,,,,,,,,,,,,,,,,,,,,,,,,2.148999929,s,VES,FALSE,,,,,,,18,camisa,Spanish,Sounds/spa_camisa.mp3,2020-06-04_16h58.14.846,TranslationElicitation_eng-prolific,3.2.4,Win32,60,5dae0ea2a0e1f7001526ac22,1,0,98,16,1,97
,,,,,,,,,,,,,,,,,,,,,,,,,,,,,,,,,,,,,,,,,,2.280999899,t,VEST,FALSE,,,,,,,18,camisa,Spanish,Sounds/spa_camisa.mp3,2020-06-04_16h58.14.846,TranslationElicitation_eng-prolific,3.2.4,Win32,60,5dae0ea2a0e1f7001526ac22,1,0,98,16,1,97
,,,,,,,,,,,,,,,,,,,,,,,,,,,,,,,,,,,,,,,,,2.415999889,2.415999889,return,VEST,FALSE,,,,,,,18,camisa,Spanish,Sounds/spa_camisa.mp3,2020-06-04_16h58.14.846,TranslationElicitation_eng-prolific,3.2.4,Win32,60,5dae0ea2a0e1f7001526ac22,1,0,98,16,1,97
,,,,,,,,,,,,,,,,,,,,,,,,,,,,,,,,,,,,,,,,,,,,,,,,,,,,18,camisa,Spanish,Sounds/spa_camisa.mp3,2020-06-04_16h58.14.846,TranslationElicitation_eng-prolific,3.2.4,Win32,60,5dae0ea2a0e1f7001526ac22,1,0,98,16,1,97
,,,,,,,,,,,,,,,,,,,,,,,,,,,,,,,,,,,,,,,,,,3.180000067,d,D,FALSE,,,,,,,91,puerta,Spanish,Sounds/spa_puerta.mp3,2020-06-04_16h58.14.846,TranslationElicitation_eng-prolific,3.2.4,Win32,60,5dae0ea2a0e1f7001526ac22,1,0,98,86,1,97
,,,,,,,,,,,,,,,,,,,,,,,,,,,,,,,,,,,,,,,,,,3.263000011,o,DO,FALSE,,,,,,,91,puerta,Spanish,Sounds/spa_puerta.mp3,2020-06-04_16h58.14.846,TranslationElicitation_eng-prolific,3.2.4,Win32,60,5dae0ea2a0e1f7001526ac22,1,0,98,86,1,97
,,,,,,,,,,,,,,,,,,,,,,,,,,,,,,,,,,,,,,,,,,3.381000042,o,DOO,FALSE,,,,,,,91,puerta,Spanish,Sounds/spa_puerta.mp3,2020-06-04_16h58.14.846,TranslationElicitation_eng-prolific,3.2.4,Win32,60,5dae0ea2a0e1f7001526ac22,1,0,98,86,1,97
,,,,,,,,,,,,,,,,,,,,,,,,,,,,,,,,,,,,,,,,,,3.496999979,r,DOOR,FALSE,,,,,,,91,puerta,Spanish,Sounds/spa_puerta.mp3,2020-06-04_16h58.14.846,TranslationElicitation_eng-prolific,3.2.4,Win32,60,5dae0ea2a0e1f7001526ac22,1,0,98,86,1,97
,,,,,,,,,,,,,,,,,,,,,,,,,,,,,,,,,,,,,,,,,3.614000082,3.614000082,return,DOOR,FALSE,,,,,,,91,puerta,Spanish,Sounds/spa_puerta.mp3,2020-06-04_16h58.14.846,TranslationElicitation_eng-prolific,3.2.4,Win32,60,5dae0ea2a0e1f7001526ac22,1,0,98,86,1,97
,,,,,,,,,,,,,,,,,,,,,,,,,,,,,,,,,,,,,,,,,,,,,,,,,,,,91,puerta,Spanish,Sounds/spa_puerta.mp3,2020-06-04_16h58.14.846,TranslationElicitation_eng-prolific,3.2.4,Win32,60,5dae0ea2a0e1f7001526ac22,1,0,98,86,1,97
,,,,,,,,,,,,,,,,,,,,,,,,,,,,,,,,,,,,,,,,,,2.43200016,t,T,FALSE,,,,,,,101,tren,Spanish,Sounds/spa_tren.mp3,2020-06-04_16h58.14.846,TranslationElicitation_eng-prolific,3.2.4,Win32,60,5dae0ea2a0e1f7001526ac22,1,0,98,95,1,97
,,,,,,,,,,,,,,,,,,,,,,,,,,,,,,,,,,,,,,,,,,2.516000032,r,TR,FALSE,,,,,,,101,tren,Spanish,Sounds/spa_tren.mp3,2020-06-04_16h58.14.846,TranslationElicitation_eng-prolific,3.2.4,Win32,60,5dae0ea2a0e1f7001526ac22,1,0,98,95,1,97
,,,,,,,,,,,,,,,,,,,,,,,,,,,,,,,,,,,,,,,,,,2.649000168,a,TRA,FALSE,,,,,,,101,tren,Spanish,Sounds/spa_tren.mp3,2020-06-04_16h58.14.846,TranslationElicitation_eng-prolific,3.2.4,Win32,60,5dae0ea2a0e1f7001526ac22,1,0,98,95,1,97
,,,,,,,,,,,,,,,,,,,,,,,,,,,,,,,,,,,,,,,,,,2.732000113,i,TRAI,FALSE,,,,,,,101,tren,Spanish,Sounds/spa_tren.mp3,2020-06-04_16h58.14.846,TranslationElicitation_eng-prolific,3.2.4,Win32,60,5dae0ea2a0e1f7001526ac22,1,0,98,95,1,97
,,,,,,,,,,,,,,,,,,,,,,,,,,,,,,,,,,,,,,,,,,2.882000208,n,TRAIN,FALSE,,,,,,,101,tren,Spanish,Sounds/spa_tren.mp3,2020-06-04_16h58.14.846,TranslationElicitation_eng-prolific,3.2.4,Win32,60,5dae0ea2a0e1f7001526ac22,1,0,98,95,1,97
,,,,,,,,,,,,,,,,,,,,,,,,,,,,,,,,,,,,,,,,,3.18200016,3.18200016,return,TRAIN,FALSE,,,,,,,101,tren,Spanish,Sounds/spa_tren.mp3,2020-06-04_16h58.14.846,TranslationElicitation_eng-prolific,3.2.4,Win32,60,5dae0ea2a0e1f7001526ac22,1,0,98,95,1,97
,,,,,,,,,,,,,,,,,,,,,,,,,,,,,,,,,,,,,,,,,,,,,,,,,,,,101,tren,Spanish,Sounds/spa_tren.mp3,2020-06-04_16h58.14.846,TranslationElicitation_eng-prolific,3.2.4,Win32,60,5dae0ea2a0e1f7001526ac22,1,0,98,95,1,97
,,,,,,,,,,,,,,,,,,,,,,,,,,,,,,,,,,,,,,,,,,4.264999866,u,U,FALSE,,,,,,,20,caracol,Spanish,Sounds/spa_caracol.mp3,2020-06-04_16h58.14.846,TranslationElicitation_eng-prolific,3.2.4,Win32,60,5dae0ea2a0e1f7001526ac22,1,0,98,18,1,97
,,,,,,,,,,,,,,,,,,,,,,,,,,,,,,,,,,,,,,,,,,4.481999874,m,UM,FALSE,,,,,,,20,caracol,Spanish,Sounds/spa_caracol.mp3,2020-06-04_16h58.14.846,TranslationElicitation_eng-prolific,3.2.4,Win32,60,5dae0ea2a0e1f7001526ac22,1,0,98,18,1,97
,,,,,,,,,,,,,,,,,,,,,,,,,,,,,,,,,,,,,,,,,,4.648000002,b,UMB,FALSE,,,,,,,20,caracol,Spanish,Sounds/spa_caracol.mp3,2020-06-04_16h58.14.846,TranslationElicitation_eng-prolific,3.2.4,Win32,60,5dae0ea2a0e1f7001526ac22,1,0,98,18,1,97
,,,,,,,,,,,,,,,,,,,,,,,,,,,,,,,,,,,,,,,,,,4.730999947,r,UMBR,FALSE,,,,,,,20,caracol,Spanish,Sounds/spa_caracol.mp3,2020-06-04_16h58.14.846,TranslationElicitation_eng-prolific,3.2.4,Win32,60,5dae0ea2a0e1f7001526ac22,1,0,98,18,1,97
,,,,,,,,,,,,,,,,,,,,,,,,,,,,,,,,,,,,,,,,,,4.799000025,e,UMBRE,FALSE,,,,,,,20,caracol,Spanish,Sounds/spa_caracol.mp3,2020-06-04_16h58.14.846,TranslationElicitation_eng-prolific,3.2.4,Win32,60,5dae0ea2a0e1f7001526ac22,1,0,98,18,1,97
,,,,,,,,,,,,,,,,,,,,,,,,,,,,,,,,,,,,,,,,,,4.898000002,l,UMBREL,FALSE,,,,,,,20,caracol,Spanish,Sounds/spa_caracol.mp3,2020-06-04_16h58.14.846,TranslationElicitation_eng-prolific,3.2.4,Win32,60,5dae0ea2a0e1f7001526ac22,1,0,98,18,1,97
,,,,,,,,,,,,,,,,,,,,,,,,,,,,,,,,,,,,,,,,,,5.013999939,l,UMBRELL,FALSE,,,,,,,20,caracol,Spanish,Sounds/spa_caracol.mp3,2020-06-04_16h58.14.846,TranslationElicitation_eng-prolific,3.2.4,Win32,60,5dae0ea2a0e1f7001526ac22,1,0,98,18,1,97
,,,,,,,,,,,,,,,,,,,,,,,,,,,,,,,,,,,,,,,,,,5.09800005,a,UMBRELLA,FALSE,,,,,,,20,caracol,Spanish,Sounds/spa_caracol.mp3,2020-06-04_16h58.14.846,TranslationElicitation_eng-prolific,3.2.4,Win32,60,5dae0ea2a0e1f7001526ac22,1,0,98,18,1,97
,,,,,,,,,,,,,,,,,,,,,,,,,,,,,,,,,,,,,,,,,5.263999939,5.263999939,return,UMBRELLA,FALSE,,,,,,,20,caracol,Spanish,Sounds/spa_caracol.mp3,2020-06-04_16h58.14.846,TranslationElicitation_eng-prolific,3.2.4,Win32,60,5dae0ea2a0e1f7001526ac22,1,0,98,18,1,97
,,,,,,,,,,,,,,,,,,,,,,,,,,,,,,,,,,,,,,,,,,,,,,,,,,,,20,caracol,Spanish,Sounds/spa_caracol.mp3,2020-06-04_16h58.14.846,TranslationElicitation_eng-prolific,3.2.4,Win32,60,5dae0ea2a0e1f7001526ac22,1,0,98,18,1,97
,,,,,,,,,,,,,,,,,,,,,,,,,,,,,,,,,,,,,,,,,,1.700000048,h,H,FALSE,,,,,,,81,pelota,Spanish,Sounds/spa_pelota.mp3,2020-06-04_16h58.14.846,TranslationElicitation_eng-prolific,3.2.4,Win32,60,5dae0ea2a0e1f7001526ac22,1,0,98,76,1,97
,,,,,,,,,,,,,,,,,,,,,,,,,,,,,,,,,,,,,,,,,,1.848999977,o,HO,FALSE,,,,,,,81,pelota,Spanish,Sounds/spa_pelota.mp3,2020-06-04_16h58.14.846,TranslationElicitation_eng-prolific,3.2.4,Win32,60,5dae0ea2a0e1f7001526ac22,1,0,98,76,1,97
,,,,,,,,,,,,,,,,,,,,,,,,,,,,,,,,,,,,,,,,,,1.965999842,t,HOT,FALSE,,,,,,,81,pelota,Spanish,Sounds/spa_pelota.mp3,2020-06-04_16h58.14.846,TranslationElicitation_eng-prolific,3.2.4,Win32,60,5dae0ea2a0e1f7001526ac22,1,0,98,76,1,97
,,,,,,,,,,,,,,,,,,,,,,,,,,,,,,,,,,,,,,,,,,2.099999905,e,HOTE,FALSE,,,,,,,81,pelota,Spanish,Sounds/spa_pelota.mp3,2020-06-04_16h58.14.846,TranslationElicitation_eng-prolific,3.2.4,Win32,60,5dae0ea2a0e1f7001526ac22,1,0,98,76,1,97
,,,,,,,,,,,,,,,,,,,,,,,,,,,,,,,,,,,,,,,,,,2.198999882,l,HOTEL,FALSE,,,,,,,81,pelota,Spanish,Sounds/spa_pelota.mp3,2020-06-04_16h58.14.846,TranslationElicitation_eng-prolific,3.2.4,Win32,60,5dae0ea2a0e1f7001526ac22,1,0,98,76,1,97
,,,,,,,,,,,,,,,,,,,,,,,,,,,,,,,,,,,,,,,,,2.335999966,2.335999966,return,HOTEL,FALSE,,,,,,,81,pelota,Spanish,Sounds/spa_pelota.mp3,2020-06-04_16h58.14.846,TranslationElicitation_eng-prolific,3.2.4,Win32,60,5dae0ea2a0e1f7001526ac22,1,0,98,76,1,97
,,,,,,,,,,,,,,,,,,,,,,,,,,,,,,,,,,,,,,,,,,,,,,,,,,,,81,pelota,Spanish,Sounds/spa_pelota.mp3,2020-06-04_16h58.14.846,TranslationElicitation_eng-prolific,3.2.4,Win32,60,5dae0ea2a0e1f7001526ac22,1,0,98,76,1,97
,,,,,,,,,,,,,,,,,,,,,,,,,,,,,,,,,,,,,,,,,,2.565000057,b,B,FALSE,,,,,,,43,globo,Spanish,Sounds/spa_globo.mp3,2020-06-04_16h58.14.846,TranslationElicitation_eng-prolific,3.2.4,Win32,60,5dae0ea2a0e1f7001526ac22,1,0,98,39,1,97
,,,,,,,,,,,,,,,,,,,,,,,,,,,,,,,,,,,,,,,,,,2.747999907,l,BL,FALSE,,,,,,,43,globo,Spanish,Sounds/spa_globo.mp3,2020-06-04_16h58.14.846,TranslationElicitation_eng-prolific,3.2.4,Win32,60,5dae0ea2a0e1f7001526ac22,1,0,98,39,1,97
,,,,,,,,,,,,,,,,,,,,,,,,,,,,,,,,,,,,,,,,,,2.930999994,u,BLU,FALSE,,,,,,,43,globo,Spanish,Sounds/spa_globo.mp3,2020-06-04_16h58.14.846,TranslationElicitation_eng-prolific,3.2.4,Win32,60,5dae0ea2a0e1f7001526ac22,1,0,98,39,1,97
,,,,,,,,,,,,,,,,,,,,,,,,,,,,,,,,,,,,,,,,,,3.065000057,e,BLUE,FALSE,,,,,,,43,globo,Spanish,Sounds/spa_globo.mp3,2020-06-04_16h58.14.846,TranslationElicitation_eng-prolific,3.2.4,Win32,60,5dae0ea2a0e1f7001526ac22,1,0,98,39,1,97
,,,,,,,,,,,,,,,,,,,,,,,,,,,,,,,,,,,,,,,,,3.313999891,3.313999891,return,BLUE,FALSE,,,,,,,43,globo,Spanish,Sounds/spa_globo.mp3,2020-06-04_16h58.14.846,TranslationElicitation_eng-prolific,3.2.4,Win32,60,5dae0ea2a0e1f7001526ac22,1,0,98,39,1,97
,,,,,,,,,,,,,,,,,,,,,,,,,,,,,,,,,,,,,,,,,,,,,,,,,,,,43,globo,Spanish,Sounds/spa_globo.mp3,2020-06-04_16h58.14.846,TranslationElicitation_eng-prolific,3.2.4,Win32,60,5dae0ea2a0e1f7001526ac22,1,0,98,39,1,97
,,,,,,,,,,,,,,,,,,,,,,,,,,,,,,,,,,,,,,,,,,1.815999985,m,M,FALSE,,,,,,,58,luna,Spanish,Sounds/spa_luna.mp3,2020-06-04_16h58.14.846,TranslationElicitation_eng-prolific,3.2.4,Win32,60,5dae0ea2a0e1f7001526ac22,1,0,98,54,1,97
,,,,,,,,,,,,,,,,,,,,,,,,,,,,,,,,,,,,,,,,,,1.96600008,o,MO,FALSE,,,,,,,58,luna,Spanish,Sounds/spa_luna.mp3,2020-06-04_16h58.14.846,TranslationElicitation_eng-prolific,3.2.4,Win32,60,5dae0ea2a0e1f7001526ac22,1,0,98,54,1,97
,,,,,,,,,,,,,,,,,,,,,,,,,,,,,,,,,,,,,,,,,,2.09800005,o,MOO,FALSE,,,,,,,58,luna,Spanish,Sounds/spa_luna.mp3,2020-06-04_16h58.14.846,TranslationElicitation_eng-prolific,3.2.4,Win32,60,5dae0ea2a0e1f7001526ac22,1,0,98,54,1,97
,,,,,,,,,,,,,,,,,,,,,,,,,,,,,,,,,,,,,,,,,,2.265000105,n,MOON,FALSE,,,,,,,58,luna,Spanish,Sounds/spa_luna.mp3,2020-06-04_16h58.14.846,TranslationElicitation_eng-prolific,3.2.4,Win32,60,5dae0ea2a0e1f7001526ac22,1,0,98,54,1,97
,,,,,,,,,,,,,,,,,,,,,,,,,,,,,,,,,,,,,,,,,2.465000153,2.465000153,return,MOON,FALSE,,,,,,,58,luna,Spanish,Sounds/spa_luna.mp3,2020-06-04_16h58.14.846,TranslationElicitation_eng-prolific,3.2.4,Win32,60,5dae0ea2a0e1f7001526ac22,1,0,98,54,1,97
,,,,,,,,,,,,,,,,,,,,,,,,,,,,,,,,,,,,,,,,,,,,,,,,,,,,58,luna,Spanish,Sounds/spa_luna.mp3,2020-06-04_16h58.14.846,TranslationElicitation_eng-prolific,3.2.4,Win32,60,5dae0ea2a0e1f7001526ac22,1,0,98,54,1,97
,,,,,,,,,,,,,,,,,,,,,,,,,,,,,,,,,,,,,,,,,,2.014999866,a,A,FALSE,,,,,,,103,zanahoria,Spanish,Sounds/spa_zanahoria.mp3,2020-06-04_16h58.14.846,TranslationElicitation_eng-prolific,3.2.4,Win32,60,5dae0ea2a0e1f7001526ac22,1,0,98,97,1,97
,,,,,,,,,,,,,,,,,,,,,,,,,,,,,,,,,,,,,,,,,,2.09800005,r,AR,FALSE,,,,,,,103,zanahoria,Spanish,Sounds/spa_zanahoria.mp3,2020-06-04_16h58.14.846,TranslationElicitation_eng-prolific,3.2.4,Win32,60,5dae0ea2a0e1f7001526ac22,1,0,98,97,1,97
,,,,,,,,,,,,,,,,,,,,,,,,,,,,,,,,,,,,,,,,,,2.181999922,e,ARE,FALSE,,,,,,,103,zanahoria,Spanish,Sounds/spa_zanahoria.mp3,2020-06-04_16h58.14.846,TranslationElicitation_eng-prolific,3.2.4,Win32,60,5dae0ea2a0e1f7001526ac22,1,0,98,97,1,97
,,,,,,,,,,,,,,,,,,,,,,,,,,,,,,,,,,,,,,,,,,2.297999859,a,AREA,FALSE,,,,,,,103,zanahoria,Spanish,Sounds/spa_zanahoria.mp3,2020-06-04_16h58.14.846,TranslationElicitation_eng-prolific,3.2.4,Win32,60,5dae0ea2a0e1f7001526ac22,1,0,98,97,1,97
,,,,,,,,,,,,,,,,,,,,,,,,,,,,,,,,,,,,,,,,,2.530999899,2.530999899,return,AREA,FALSE,,,,,,,103,zanahoria,Spanish,Sounds/spa_zanahoria.mp3,2020-06-04_16h58.14.846,TranslationElicitation_eng-prolific,3.2.4,Win32,60,5dae0ea2a0e1f7001526ac22,1,0,98,97,1,97
,,,,,,,,,,,,,,,,,,,,,,,,,,,,,,,,,,,,,,,,,,,,,,,,,,,,103,zanahoria,Spanish,Sounds/spa_zanahoria.mp3,2020-06-04_16h58.14.846,TranslationElicitation_eng-prolific,3.2.4,Win32,60,5dae0ea2a0e1f7001526ac22,1,0,98,97,1,97
,,,,,,,,,,,,,,,,,,,,,,,,,,,,,,,,,,,,,,,,,,2.549999952,t,T,FALSE,,,,,,,63,mesa,Spanish,Sounds/spa_mesa.mp3,2020-06-04_16h58.14.846,TranslationElicitation_eng-prolific,3.2.4,Win32,60,5dae0ea2a0e1f7001526ac22,1,0,98,59,1,97
,,,,,,,,,,,,,,,,,,,,,,,,,,,,,,,,,,,,,,,,,,2.68200016,a,TA,FALSE,,,,,,,63,mesa,Spanish,Sounds/spa_mesa.mp3,2020-06-04_16h58.14.846,TranslationElicitation_eng-prolific,3.2.4,Win32,60,5dae0ea2a0e1f7001526ac22,1,0,98,59,1,97
,,,,,,,,,,,,,,,,,,,,,,,,,,,,,,,,,,,,,,,,,,2.782000065,b,TAB,FALSE,,,,,,,63,mesa,Spanish,Sounds/spa_mesa.mp3,2020-06-04_16h58.14.846,TranslationElicitation_eng-prolific,3.2.4,Win32,60,5dae0ea2a0e1f7001526ac22,1,0,98,59,1,97
,,,,,,,,,,,,,,,,,,,,,,,,,,,,,,,,,,,,,,,,,,2.983999968,l,TABL,FALSE,,,,,,,63,mesa,Spanish,Sounds/spa_mesa.mp3,2020-06-04_16h58.14.846,TranslationElicitation_eng-prolific,3.2.4,Win32,60,5dae0ea2a0e1f7001526ac22,1,0,98,59,1,97
,,,,,,,,,,,,,,,,,,,,,,,,,,,,,,,,,,,,,,,,,,3.082000017,e,TABLE,FALSE,,,,,,,63,mesa,Spanish,Sounds/spa_mesa.mp3,2020-06-04_16h58.14.846,TranslationElicitation_eng-prolific,3.2.4,Win32,60,5dae0ea2a0e1f7001526ac22,1,0,98,59,1,97
,,,,,,,,,,,,,,,,,,,,,,,,,,,,,,,,,,,,,,,,,4.664000034,4.664000034,return,TABLE,FALSE,,,,,,,63,mesa,Spanish,Sounds/spa_mesa.mp3,2020-06-04_16h58.14.846,TranslationElicitation_eng-prolific,3.2.4,Win32,60,5dae0ea2a0e1f7001526ac22,1,0,98,59,1,97
,,,,,,,,,,,,,,,,,,,,,,,,,,,,,,,,,,,,,,,,,,,,,,,,,,,,63,mesa,Spanish,Sounds/spa_mesa.mp3,2020-06-04_16h58.14.846,TranslationElicitation_eng-prolific,3.2.4,Win32,60,5dae0ea2a0e1f7001526ac22,1,0,98,59,1,97
,,,,,,,,,,,,,,,,,,,,,,,,,,,,,,,,,,,,,,,,,,2.048000097,d,D,FALSE,,,,,,,33,dedo,Spanish,Sounds/spa_dedo.mp3,2020-06-04_16h58.14.846,TranslationElicitation_eng-prolific,3.2.4,Win32,60,5dae0ea2a0e1f7001526ac22,1,0,98,29,1,97
,,,,,,,,,,,,,,,,,,,,,,,,,,,,,,,,,,,,,,,,,,2.148000002,a,DA,FALSE,,,,,,,33,dedo,Spanish,Sounds/spa_dedo.mp3,2020-06-04_16h58.14.846,TranslationElicitation_eng-prolific,3.2.4,Win32,60,5dae0ea2a0e1f7001526ac22,1,0,98,29,1,97
,,,,,,,,,,,,,,,,,,,,,,,,,,,,,,,,,,,,,,,,,,2.231000185,y,DAY,FALSE,,,,,,,33,dedo,Spanish,Sounds/spa_dedo.mp3,2020-06-04_16h58.14.846,TranslationElicitation_eng-prolific,3.2.4,Win32,60,5dae0ea2a0e1f7001526ac22,1,0,98,29,1,97
,,,,,,,,,,,,,,,,,,,,,,,,,,,,,,,,,,,,,,,,,2.482000113,2.482000113,return,DAY,FALSE,,,,,,,33,dedo,Spanish,Sounds/spa_dedo.mp3,2020-06-04_16h58.14.846,TranslationElicitation_eng-prolific,3.2.4,Win32,60,5dae0ea2a0e1f7001526ac22,1,0,98,29,1,97
,,,,,,,,,,,,,,,,,,,,,,,,,,,,,,,,,,,,,,,,,,,,,,,,,,,,33,dedo,Spanish,Sounds/spa_dedo.mp3,2020-06-04_16h58.14.846,TranslationElicitation_eng-prolific,3.2.4,Win32,60,5dae0ea2a0e1f7001526ac22,1,0,98,29,1,97
,,,,,,,,,,,,,,,,,,,,,,,,,,,,,,,,,,,,,,,,,,1.799000025,b,B,FALSE,,,,,,,60,manzana,Spanish,Sounds/spa_manzana.mp3,2020-06-04_16h58.14.846,TranslationElicitation_eng-prolific,3.2.4,Win32,60,5dae0ea2a0e1f7001526ac22,1,0,98,56,1,97
,,,,,,,,,,,,,,,,,,,,,,,,,,,,,,,,,,,,,,,,,,1.881999969,a,BA,FALSE,,,,,,,60,manzana,Spanish,Sounds/spa_manzana.mp3,2020-06-04_16h58.14.846,TranslationElicitation_eng-prolific,3.2.4,Win32,60,5dae0ea2a0e1f7001526ac22,1,0,98,56,1,97
,,,,,,,,,,,,,,,,,,,,,,,,,,,,,,,,,,,,,,,,,,1.964999914,n,BAN,FALSE,,,,,,,60,manzana,Spanish,Sounds/spa_manzana.mp3,2020-06-04_16h58.14.846,TranslationElicitation_eng-prolific,3.2.4,Win32,60,5dae0ea2a0e1f7001526ac22,1,0,98,56,1,97
,,,,,,,,,,,,,,,,,,,,,,,,,,,,,,,,,,,,,,,,,,2.049000025,a,BANA,FALSE,,,,,,,60,manzana,Spanish,Sounds/spa_manzana.mp3,2020-06-04_16h58.14.846,TranslationElicitation_eng-prolific,3.2.4,Win32,60,5dae0ea2a0e1f7001526ac22,1,0,98,56,1,97
,,,,,,,,,,,,,,,,,,,,,,,,,,,,,,,,,,,,,,,,,,2.315000057,n,BANAN,FALSE,,,,,,,60,manzana,Spanish,Sounds/spa_manzana.mp3,2020-06-04_16h58.14.846,TranslationElicitation_eng-prolific,3.2.4,Win32,60,5dae0ea2a0e1f7001526ac22,1,0,98,56,1,97
,,,,,,,,,,,,,,,,,,,,,,,,,,,,,,,,,,,,,,,,,,2.565000057,a,BANANA,FALSE,,,,,,,60,manzana,Spanish,Sounds/spa_manzana.mp3,2020-06-04_16h58.14.846,TranslationElicitation_eng-prolific,3.2.4,Win32,60,5dae0ea2a0e1f7001526ac22,1,0,98,56,1,97
,,,,,,,,,,,,,,,,,,,,,,,,,,,,,,,,,,,,,,,,,2.931999922,2.931999922,return,BANANA,FALSE,,,,,,,60,manzana,Spanish,Sounds/spa_manzana.mp3,2020-06-04_16h58.14.846,TranslationElicitation_eng-prolific,3.2.4,Win32,60,5dae0ea2a0e1f7001526ac22,1,0,98,56,1,97
,,,,,,,,,,,,,,,,,,,,,,,,,,,,,,,,,,,,,,,,,,,,,,,,,,,,60,manzana,Spanish,Sounds/spa_manzana.mp3,2020-06-04_16h58.14.846,TranslationElicitation_eng-prolific,3.2.4,Win32,60,5dae0ea2a0e1f7001526ac22,1,0,98,56,1,97
,,,,,,,,,,,,,,,,,,,,,,,,,,,,,,,,,,,,,,,,,,2.231999874,r,R,FALSE,,,,,,,89,pluma,Spanish,Sounds/spa_pluma.mp3,2020-06-04_16h58.14.846,TranslationElicitation_eng-prolific,3.2.4,Win32,60,5dae0ea2a0e1f7001526ac22,1,0,98,84,1,97
,,,,,,,,,,,,,,,,,,,,,,,,,,,,,,,,,,,,,,,,,,2.315999985,a,RA,FALSE,,,,,,,89,pluma,Spanish,Sounds/spa_pluma.mp3,2020-06-04_16h58.14.846,TranslationElicitation_eng-prolific,3.2.4,Win32,60,5dae0ea2a0e1f7001526ac22,1,0,98,84,1,97
,,,,,,,,,,,,,,,,,,,,,,,,,,,,,,,,,,,,,,,,,,2.398999929,i,RAI,FALSE,,,,,,,89,pluma,Spanish,Sounds/spa_pluma.mp3,2020-06-04_16h58.14.846,TranslationElicitation_eng-prolific,3.2.4,Win32,60,5dae0ea2a0e1f7001526ac22,1,0,98,84,1,97
,,,,,,,,,,,,,,,,,,,,,,,,,,,,,,,,,,,,,,,,,,2.532000065,n,RAIN,FALSE,,,,,,,89,pluma,Spanish,Sounds/spa_pluma.mp3,2020-06-04_16h58.14.846,TranslationElicitation_eng-prolific,3.2.4,Win32,60,5dae0ea2a0e1f7001526ac22,1,0,98,84,1,97
,,,,,,,,,,,,,,,,,,,,,,,,,,,,,,,,,,,,,,,,,2.714999914,2.714999914,return,RAIN,FALSE,,,,,,,89,pluma,Spanish,Sounds/spa_pluma.mp3,2020-06-04_16h58.14.846,TranslationElicitation_eng-prolific,3.2.4,Win32,60,5dae0ea2a0e1f7001526ac22,1,0,98,84,1,97
,,,,,,,,,,,,,,,,,,,,,,,,,,,,,,,,,,,,,,,,,,,,,,,,,,,,89,pluma,Spanish,Sounds/spa_pluma.mp3,2020-06-04_16h58.14.846,TranslationElicitation_eng-prolific,3.2.4,Win32,60,5dae0ea2a0e1f7001526ac22,1,0,98,84,1,97
,,,,,,,,,,,,,,,,,,,,,,,,,,,,,,,,,,,,,,,,,,2.482000113,b,B,FALSE,,,,,,,9,boli,Spanish,Sounds/spa_boli.mp3,2020-06-04_16h58.14.846,TranslationElicitation_eng-prolific,3.2.4,Win32,60,5dae0ea2a0e1f7001526ac22,1,0,98,7,1,97
,,,,,,,,,,,,,,,,,,,,,,,,,,,,,,,,,,,,,,,,,,2.582000017,a,BA,FALSE,,,,,,,9,boli,Spanish,Sounds/spa_boli.mp3,2020-06-04_16h58.14.846,TranslationElicitation_eng-prolific,3.2.4,Win32,60,5dae0ea2a0e1f7001526ac22,1,0,98,7,1,97
,,,,,,,,,,,,,,,,,,,,,,,,,,,,,,,,,,,,,,,,,,2.68200016,l,BAL,FALSE,,,,,,,9,boli,Spanish,Sounds/spa_boli.mp3,2020-06-04_16h58.14.846,TranslationElicitation_eng-prolific,3.2.4,Win32,60,5dae0ea2a0e1f7001526ac22,1,0,98,7,1,97
,,,,,,,,,,,,,,,,,,,,,,,,,,,,,,,,,,,,,,,,,,2.799000025,l,BALL,FALSE,,,,,,,9,boli,Spanish,Sounds/spa_boli.mp3,2020-06-04_16h58.14.846,TranslationElicitation_eng-prolific,3.2.4,Win32,60,5dae0ea2a0e1f7001526ac22,1,0,98,7,1,97
,,,,,,,,,,,,,,,,,,,,,,,,,,,,,,,,,,,,,,,,,2.90199995,2.90199995,return,BALL,FALSE,,,,,,,9,boli,Spanish,Sounds/spa_boli.mp3,2020-06-04_16h58.14.846,TranslationElicitation_eng-prolific,3.2.4,Win32,60,5dae0ea2a0e1f7001526ac22,1,0,98,7,1,97
,,,,,,,,,,,,,,,,,,,,,,,,,,,,,,,,,,,,,,,,,,,,,,,,,,,,9,boli,Spanish,Sounds/spa_boli.mp3,2020-06-04_16h58.14.846,TranslationElicitation_eng-prolific,3.2.4,Win32,60,5dae0ea2a0e1f7001526ac22,1,0,98,7,1,97
,,,,,,,,,,,,,,,,,,,,,,,,,,,,,,,,,,,,,,,,,,2.131999969,b,B,FALSE,,,,,,,74,pajaro,Spanish,Sounds/spa_pajaro.mp3,2020-06-04_16h58.14.846,TranslationElicitation_eng-prolific,3.2.4,Win32,60,5dae0ea2a0e1f7001526ac22,1,0,98,69,1,97
,,,,,,,,,,,,,,,,,,,,,,,,,,,,,,,,,,,,,,,,,,2.263999939,y,BY,FALSE,,,,,,,74,pajaro,Spanish,Sounds/spa_pajaro.mp3,2020-06-04_16h58.14.846,TranslationElicitation_eng-prolific,3.2.4,Win32,60,5dae0ea2a0e1f7001526ac22,1,0,98,69,1,97
,,,,,,,,,,,,,,,,,,,,,,,,,,,,,,,,,,,,,,,,,2.500999928,2.500999928,return,BY,FALSE,,,,,,,74,pajaro,Spanish,Sounds/spa_pajaro.mp3,2020-06-04_16h58.14.846,TranslationElicitation_eng-prolific,3.2.4,Win32,60,5dae0ea2a0e1f7001526ac22,1,0,98,69,1,97
,,,,,,,,,,,,,,,,,,,,,,,,,,,,,,,,,,,,,,,,,,,,,,,,,,,,74,pajaro,Spanish,Sounds/spa_pajaro.mp3,2020-06-04_16h58.14.846,TranslationElicitation_eng-prolific,3.2.4,Win32,60,5dae0ea2a0e1f7001526ac22,1,0,98,69,1,97
,,,,,,,,,,,,,,,,,,,,,,,,,,,,,,,,,,,,,,,,,,2.080000162,s,S,FALSE,,,,,,,7,bocadillo,Spanish,Sounds/spa_bocadillo.mp3,2020-06-04_16h58.14.846,TranslationElicitation_eng-prolific,3.2.4,Win32,60,5dae0ea2a0e1f7001526ac22,1,0,98,5,1,97
,,,,,,,,,,,,,,,,,,,,,,,,,,,,,,,,,,,,,,,,,,2.164000034,m,SM,FALSE,,,,,,,7,bocadillo,Spanish,Sounds/spa_bocadillo.mp3,2020-06-04_16h58.14.846,TranslationElicitation_eng-prolific,3.2.4,Win32,60,5dae0ea2a0e1f7001526ac22,1,0,98,5,1,97
,,,,,,,,,,,,,,,,,,,,,,,,,,,,,,,,,,,,,,,,,,2.263000011,a,SMA,FALSE,,,,,,,7,bocadillo,Spanish,Sounds/spa_bocadillo.mp3,2020-06-04_16h58.14.846,TranslationElicitation_eng-prolific,3.2.4,Win32,60,5dae0ea2a0e1f7001526ac22,1,0,98,5,1,97
,,,,,,,,,,,,,,,,,,,,,,,,,,,,,,,,,,,,,,,,,,2.347000122,l,SMAL,FALSE,,,,,,,7,bocadillo,Spanish,Sounds/spa_bocadillo.mp3,2020-06-04_16h58.14.846,TranslationElicitation_eng-prolific,3.2.4,Win32,60,5dae0ea2a0e1f7001526ac22,1,0,98,5,1,97
,,,,,,,,,,,,,,,,,,,,,,,,,,,,,,,,,,,,,,,,,,2.463000059,l,SMALL,FALSE,,,,,,,7,bocadillo,Spanish,Sounds/spa_bocadillo.mp3,2020-06-04_16h58.14.846,TranslationElicitation_eng-prolific,3.2.4,Win32,60,5dae0ea2a0e1f7001526ac22,1,0,98,5,1,97
,,,,,,,,,,,,,,,,,,,,,,,,,,,,,,,,,,,,,,,,,2.582000017,2.582000017,return,SMALL,FALSE,,,,,,,7,bocadillo,Spanish,Sounds/spa_bocadillo.mp3,2020-06-04_16h58.14.846,TranslationElicitation_eng-prolific,3.2.4,Win32,60,5dae0ea2a0e1f7001526ac22,1,0,98,5,1,97
,,,,,,,,,,,,,,,,,,,,,,,,,,,,,,,,,,,,,,,,,,,,,,,,,,,,7,bocadillo,Spanish,Sounds/spa_bocadillo.mp3,2020-06-04_16h58.14.846,TranslationElicitation_eng-prolific,3.2.4,Win32,60,5dae0ea2a0e1f7001526ac22,1,0,98,5,1,97
,,,,,,,,,,,,,,,,,,,,,,,,,,,,,,,,,,,,,,,,,,1.916999817,d,D,FALSE,,,,,,,80,pato,Spanish,Sounds/spa_pato.mp3,2020-06-04_16h58.14.846,TranslationElicitation_eng-prolific,3.2.4,Win32,60,5dae0ea2a0e1f7001526ac22,1,0,98,75,1,97
,,,,,,,,,,,,,,,,,,,,,,,,,,,,,,,,,,,,,,,,,,2.464999914,backspace,,TRUE,,,,,,,80,pato,Spanish,Sounds/spa_pato.mp3,2020-06-04_16h58.14.846,TranslationElicitation_eng-prolific,3.2.4,Win32,60,5dae0ea2a0e1f7001526ac22,1,0,98,75,1,97
,,,,,,,,,,,,,,,,,,,,,,,,,,,,,,,,,,,,,,,,,,2.582000017,c,C,TRUE,,,,,,,80,pato,Spanish,Sounds/spa_pato.mp3,2020-06-04_16h58.14.846,TranslationElicitation_eng-prolific,3.2.4,Win32,60,5dae0ea2a0e1f7001526ac22,1,0,98,75,1,97
,,,,,,,,,,,,,,,,,,,,,,,,,,,,,,,,,,,,,,,,,,2.665999889,a,CA,TRUE,,,,,,,80,pato,Spanish,Sounds/spa_pato.mp3,2020-06-04_16h58.14.846,TranslationElicitation_eng-prolific,3.2.4,Win32,60,5dae0ea2a0e1f7001526ac22,1,0,98,75,1,97
,,,,,,,,,,,,,,,,,,,,,,,,,,,,,,,,,,,,,,,,,,2.797999859,t,CAT,TRUE,,,,,,,80,pato,Spanish,Sounds/spa_pato.mp3,2020-06-04_16h58.14.846,TranslationElicitation_eng-prolific,3.2.4,Win32,60,5dae0ea2a0e1f7001526ac22,1,0,98,75,1,97
,,,,,,,,,,,,,,,,,,,,,,,,,,,,,,,,,,,,,,,,,2.930999994,2.930999994,return,CAT,TRUE,,,,,,,80,pato,Spanish,Sounds/spa_pato.mp3,2020-06-04_16h58.14.846,TranslationElicitation_eng-prolific,3.2.4,Win32,60,5dae0ea2a0e1f7001526ac22,1,0,98,75,1,97
,,,,,,,,,,,,,,,,,,,,,,,,,,,,,,,,,,,,,,,,,,,,,,,,,,,,80,pato,Spanish,Sounds/spa_pato.mp3,2020-06-04_16h58.14.846,TranslationElicitation_eng-prolific,3.2.4,Win32,60,5dae0ea2a0e1f7001526ac22,1,0,98,75,1,97
,,,,,,,,,,,,,,,,,,,,,,,,,,,,,,,,,,,,,,,,,,1.715999842,e,E,FALSE,,,,,,,34,ensalada,Spanish,Sounds/spa_ensalada.mp3,2020-06-04_16h58.14.846,TranslationElicitation_eng-prolific,3.2.4,Win32,60,5dae0ea2a0e1f7001526ac22,1,0,98,30,1,97
,,,,,,,,,,,,,,,,,,,,,,,,,,,,,,,,,,,,,,,,,,1.781999826,n,EN,FALSE,,,,,,,34,ensalada,Spanish,Sounds/spa_ensalada.mp3,2020-06-04_16h58.14.846,TranslationElicitation_eng-prolific,3.2.4,Win32,60,5dae0ea2a0e1f7001526ac22,1,0,98,30,1,97
,,,,,,,,,,,,,,,,,,,,,,,,,,,,,,,,,,,,,,,,,,1.882999897,c,ENC,FALSE,,,,,,,34,ensalada,Spanish,Sounds/spa_ensalada.mp3,2020-06-04_16h58.14.846,TranslationElicitation_eng-prolific,3.2.4,Win32,60,5dae0ea2a0e1f7001526ac22,1,0,98,30,1,97
,,,,,,,,,,,,,,,,,,,,,,,,,,,,,,,,,,,,,,,,,,1.965999842,h,ENCH,FALSE,,,,,,,34,ensalada,Spanish,Sounds/spa_ensalada.mp3,2020-06-04_16h58.14.846,TranslationElicitation_eng-prolific,3.2.4,Win32,60,5dae0ea2a0e1f7001526ac22,1,0,98,30,1,97
,,,,,,,,,,,,,,,,,,,,,,,,,,,,,,,,,,,,,,,,,,2.115999937,i,ENCHI,FALSE,,,,,,,34,ensalada,Spanish,Sounds/spa_ensalada.mp3,2020-06-04_16h58.14.846,TranslationElicitation_eng-prolific,3.2.4,Win32,60,5dae0ea2a0e1f7001526ac22,1,0,98,30,1,97
,,,,,,,,,,,,,,,,,,,,,,,,,,,,,,,,,,,,,,,,,,2.265999794,l,ENCHIL,FALSE,,,,,,,34,ensalada,Spanish,Sounds/spa_ensalada.mp3,2020-06-04_16h58.14.846,TranslationElicitation_eng-prolific,3.2.4,Win32,60,5dae0ea2a0e1f7001526ac22,1,0,98,30,1,97
,,,,,,,,,,,,,,,,,,,,,,,,,,,,,,,,,,,,,,,,,,2.348999977,a,ENCHILA,FALSE,,,,,,,34,ensalada,Spanish,Sounds/spa_ensalada.mp3,2020-06-04_16h58.14.846,TranslationElicitation_eng-prolific,3.2.4,Win32,60,5dae0ea2a0e1f7001526ac22,1,0,98,30,1,97
,,,,,,,,,,,,,,,,,,,,,,,,,,,,,,,,,,,,,,,,,,2.431999922,d,ENCHILAD,FALSE,,,,,,,34,ensalada,Spanish,Sounds/spa_ensalada.mp3,2020-06-04_16h58.14.846,TranslationElicitation_eng-prolific,3.2.4,Win32,60,5dae0ea2a0e1f7001526ac22,1,0,98,30,1,97
,,,,,,,,,,,,,,,,,,,,,,,,,,,,,,,,,,,,,,,,,,2.536000013,a,ENCHILADA,FALSE,,,,,,,34,ensalada,Spanish,Sounds/spa_ensalada.mp3,2020-06-04_16h58.14.846,TranslationElicitation_eng-prolific,3.2.4,Win32,60,5dae0ea2a0e1f7001526ac22,1,0,98,30,1,97
,,,,,,,,,,,,,,,,,,,,,,,,,,,,,,,,,,,,,,,,,2.665999889,2.665999889,return,ENCHILADA,FALSE,,,,,,,34,ensalada,Spanish,Sounds/spa_ensalada.mp3,2020-06-04_16h58.14.846,TranslationElicitation_eng-prolific,3.2.4,Win32,60,5dae0ea2a0e1f7001526ac22,1,0,98,30,1,97
,,,,,,,,,,,,,,,,,,,,,,,,,,,,,,,,,,,,,,,,,,,,,,,,,,,,34,ensalada,Spanish,Sounds/spa_ensalada.mp3,2020-06-04_16h58.14.846,TranslationElicitation_eng-prolific,3.2.4,Win32,60,5dae0ea2a0e1f7001526ac22,1,0,98,30,1,97
,,,,,,,,,,,,,,,,,,,,,,,,,,,,,,,,,,,,,,,,,,2.465999842,c,C,FALSE,,,,,,,29,coche,Spanish,Sounds/spa_coche.mp3,2020-06-04_16h58.14.846,TranslationElicitation_eng-prolific,3.2.4,Win32,60,5dae0ea2a0e1f7001526ac22,1,0,98,26,1,97
,,,,,,,,,,,,,,,,,,,,,,,,,,,,,,,,,,,,,,,,,,2.582000017,u,CU,FALSE,,,,,,,29,coche,Spanish,Sounds/spa_coche.mp3,2020-06-04_16h58.14.846,TranslationElicitation_eng-prolific,3.2.4,Win32,60,5dae0ea2a0e1f7001526ac22,1,0,98,26,1,97
,,,,,,,,,,,,,,,,,,,,,,,,,,,,,,,,,,,,,,,,,,2.704999924,t,CUT,FALSE,,,,,,,29,coche,Spanish,Sounds/spa_coche.mp3,2020-06-04_16h58.14.846,TranslationElicitation_eng-prolific,3.2.4,Win32,60,5dae0ea2a0e1f7001526ac22,1,0,98,26,1,97
,,,,,,,,,,,,,,,,,,,,,,,,,,,,,,,,,,,,,,,,,,2.786000013,e,CUTE,FALSE,,,,,,,29,coche,Spanish,Sounds/spa_coche.mp3,2020-06-04_16h58.14.846,TranslationElicitation_eng-prolific,3.2.4,Win32,60,5dae0ea2a0e1f7001526ac22,1,0,98,26,1,97
,,,,,,,,,,,,,,,,,,,,,,,,,,,,,,,,,,,,,,,,,2.934999943,2.934999943,return,CUTE,FALSE,,,,,,,29,coche,Spanish,Sounds/spa_coche.mp3,2020-06-04_16h58.14.846,TranslationElicitation_eng-prolific,3.2.4,Win32,60,5dae0ea2a0e1f7001526ac22,1,0,98,26,1,97
,,,,,,,,,,,,,,,,,,,,,,,,,,,,,,,,,,,,,,,,,,,,,,,,,,,,29,coche,Spanish,Sounds/spa_coche.mp3,2020-06-04_16h58.14.846,TranslationElicitation_eng-prolific,3.2.4,Win32,60,5dae0ea2a0e1f7001526ac22,1,0,98,26,1,97
,,,,,,,,,,,,,,,,,,,,,,,,,,,,,,,,,,,,,,,,,,1.18200016,u,U,FALSE,,,,,,,47,guitarra,Spanish,Sounds/spa_guitarra.mp3,2020-06-04_16h58.14.846,TranslationElicitation_eng-prolific,3.2.4,Win32,60,5dae0ea2a0e1f7001526ac22,1,0,98,43,1,97
,,,,,,,,,,,,,,,,,,,,,,,,,,,,,,,,,,,,,,,,,,1.321000099,i,UI,FALSE,,,,,,,47,guitarra,Spanish,Sounds/spa_guitarra.mp3,2020-06-04_16h58.14.846,TranslationElicitation_eng-prolific,3.2.4,Win32,60,5dae0ea2a0e1f7001526ac22,1,0,98,43,1,97
,,,,,,,,,,,,,,,,,,,,,,,,,,,,,,,,,,,,,,,,,,1.465000153,t,UIT,FALSE,,,,,,,47,guitarra,Spanish,Sounds/spa_guitarra.mp3,2020-06-04_16h58.14.846,TranslationElicitation_eng-prolific,3.2.4,Win32,60,5dae0ea2a0e1f7001526ac22,1,0,98,43,1,97
,,,,,,,,,,,,,,,,,,,,,,,,,,,,,,,,,,,,,,,,,,1.698000193,backspace,UI,TRUE,,,,,,,47,guitarra,Spanish,Sounds/spa_guitarra.mp3,2020-06-04_16h58.14.846,TranslationElicitation_eng-prolific,3.2.4,Win32,60,5dae0ea2a0e1f7001526ac22,1,0,98,43,1,97
,,,,,,,,,,,,,,,,,,,,,,,,,,,,,,,,,,,,,,,,,,1.83100009,backspace,U,TRUE,,,,,,,47,guitarra,Spanish,Sounds/spa_guitarra.mp3,2020-06-04_16h58.14.846,TranslationElicitation_eng-prolific,3.2.4,Win32,60,5dae0ea2a0e1f7001526ac22,1,0,98,43,1,97
,,,,,,,,,,,,,,,,,,,,,,,,,,,,,,,,,,,,,,,,,,1.972000122,backspace,,TRUE,,,,,,,47,guitarra,Spanish,Sounds/spa_guitarra.mp3,2020-06-04_16h58.14.846,TranslationElicitation_eng-prolific,3.2.4,Win32,60,5dae0ea2a0e1f7001526ac22,1,0,98,43,1,97
,,,,,,,,,,,,,,,,,,,,,,,,,,,,,,,,,,,,,,,,,,2.06400013,g,G,TRUE,,,,,,,47,guitarra,Spanish,Sounds/spa_guitarra.mp3,2020-06-04_16h58.14.846,TranslationElicitation_eng-prolific,3.2.4,Win32,60,5dae0ea2a0e1f7001526ac22,1,0,98,43,1,97
,,,,,,,,,,,,,,,,,,,,,,,,,,,,,,,,,,,,,,,,,,2.180999994,u,GU,TRUE,,,,,,,47,guitarra,Spanish,Sounds/spa_guitarra.mp3,2020-06-04_16h58.14.846,TranslationElicitation_eng-prolific,3.2.4,Win32,60,5dae0ea2a0e1f7001526ac22,1,0,98,43,1,97
,,,,,,,,,,,,,,,,,,,,,,,,,,,,,,,,,,,,,,,,,,2.56400013,i,GUI,TRUE,,,,,,,47,guitarra,Spanish,Sounds/spa_guitarra.mp3,2020-06-04_16h58.14.846,TranslationElicitation_eng-prolific,3.2.4,Win32,60,5dae0ea2a0e1f7001526ac22,1,0,98,43,1,97
,,,,,,,,,,,,,,,,,,,,,,,,,,,,,,,,,,,,,,,,,,2.680999994,t,GUIT,TRUE,,,,,,,47,guitarra,Spanish,Sounds/spa_guitarra.mp3,2020-06-04_16h58.14.846,TranslationElicitation_eng-prolific,3.2.4,Win32,60,5dae0ea2a0e1f7001526ac22,1,0,98,43,1,97
,,,,,,,,,,,,,,,,,,,,,,,,,,,,,,,,,,,,,,,,,,2.881000042,a,GUITA,TRUE,,,,,,,47,guitarra,Spanish,Sounds/spa_guitarra.mp3,2020-06-04_16h58.14.846,TranslationElicitation_eng-prolific,3.2.4,Win32,60,5dae0ea2a0e1f7001526ac22,1,0,98,43,1,97
,,,,,,,,,,,,,,,,,,,,,,,,,,,,,,,,,,,,,,,,,,2.947000027,r,GUITAR,TRUE,,,,,,,47,guitarra,Spanish,Sounds/spa_guitarra.mp3,2020-06-04_16h58.14.846,TranslationElicitation_eng-prolific,3.2.4,Win32,60,5dae0ea2a0e1f7001526ac22,1,0,98,43,1,97
,,,,,,,,,,,,,,,,,,,,,,,,,,,,,,,,,,,,,,,,,3.265000105,3.265000105,return,GUITAR,TRUE,,,,,,,47,guitarra,Spanish,Sounds/spa_guitarra.mp3,2020-06-04_16h58.14.846,TranslationElicitation_eng-prolific,3.2.4,Win32,60,5dae0ea2a0e1f7001526ac22,1,0,98,43,1,97
,,,,,,,,,,,,,,,,,,,,,,,,,,,,,,,,,,,,,,,,,,,,,,,,,,,,47,guitarra,Spanish,Sounds/spa_guitarra.mp3,2020-06-04_16h58.14.846,TranslationElicitation_eng-prolific,3.2.4,Win32,60,5dae0ea2a0e1f7001526ac22,1,0,98,43,1,97
,,,,,,,,,,,,,,,,,,,,,,,,,,,,,,,,,,,,,,,,,,2.016000032,b,B,FALSE,,,,,,,102,ventana,Spanish,Sounds/spa_ventana.mp3,2020-06-04_16h58.14.846,TranslationElicitation_eng-prolific,3.2.4,Win32,60,5dae0ea2a0e1f7001526ac22,1,0,98,96,1,97
,,,,,,,,,,,,,,,,,,,,,,,,,,,,,,,,,,,,,,,,,,2.100000143,a,BA,FALSE,,,,,,,102,ventana,Spanish,Sounds/spa_ventana.mp3,2020-06-04_16h58.14.846,TranslationElicitation_eng-prolific,3.2.4,Win32,60,5dae0ea2a0e1f7001526ac22,1,0,98,96,1,97
,,,,,,,,,,,,,,,,,,,,,,,,,,,,,,,,,,,,,,,,,,2.19900012,n,BAN,FALSE,,,,,,,102,ventana,Spanish,Sounds/spa_ventana.mp3,2020-06-04_16h58.14.846,TranslationElicitation_eng-prolific,3.2.4,Win32,60,5dae0ea2a0e1f7001526ac22,1,0,98,96,1,97
,,,,,,,,,,,,,,,,,,,,,,,,,,,,,,,,,,,,,,,,,,2.348999977,d,BAND,FALSE,,,,,,,102,ventana,Spanish,Sounds/spa_ventana.mp3,2020-06-04_16h58.14.846,TranslationElicitation_eng-prolific,3.2.4,Win32,60,5dae0ea2a0e1f7001526ac22,1,0,98,96,1,97
,,,,,,,,,,,,,,,,,,,,,,,,,,,,,,,,,,,,,,,,,,2.433000088,a,BANDA,FALSE,,,,,,,102,ventana,Spanish,Sounds/spa_ventana.mp3,2020-06-04_16h58.14.846,TranslationElicitation_eng-prolific,3.2.4,Win32,60,5dae0ea2a0e1f7001526ac22,1,0,98,96,1,97
,,,,,,,,,,,,,,,,,,,,,,,,,,,,,,,,,,,,,,,,,,2.71600008,n,BANDAN,FALSE,,,,,,,102,ventana,Spanish,Sounds/spa_ventana.mp3,2020-06-04_16h58.14.846,TranslationElicitation_eng-prolific,3.2.4,Win32,60,5dae0ea2a0e1f7001526ac22,1,0,98,96,1,97
,,,,,,,,,,,,,,,,,,,,,,,,,,,,,,,,,,,,,,,,,,2.832000017,a,BANDANA,FALSE,,,,,,,102,ventana,Spanish,Sounds/spa_ventana.mp3,2020-06-04_16h58.14.846,TranslationElicitation_eng-prolific,3.2.4,Win32,60,5dae0ea2a0e1f7001526ac22,1,0,98,96,1,97
,,,,,,,,,,,,,,,,,,,,,,,,,,,,,,,,,,,,,,,,,3.21600008,3.21600008,return,BANDANA,FALSE,,,,,,,102,ventana,Spanish,Sounds/spa_ventana.mp3,2020-06-04_16h58.14.846,TranslationElicitation_eng-prolific,3.2.4,Win32,60,5dae0ea2a0e1f7001526ac22,1,0,98,96,1,97
,,,,,,,,,,,,,,,,,,,,,,,,,,,,,,,,,,,,,,,,,,,,,,,,,,,,102,ventana,Spanish,Sounds/spa_ventana.mp3,2020-06-04_16h58.14.846,TranslationElicitation_eng-prolific,3.2.4,Win32,60,5dae0ea2a0e1f7001526ac22,1,0,98,96,1,97
,,,,,,,,,,,,,,,,,,,,,,,,,,,,,,,,,,,,,,,,,,1.649999857,f,F,FALSE,,,,,,,49,hormiga,Spanish,Sounds/spa_hormiga.mp3,2020-06-04_16h58.14.846,TranslationElicitation_eng-prolific,3.2.4,Win32,60,5dae0ea2a0e1f7001526ac22,1,0,98,45,1,97
,,,,,,,,,,,,,,,,,,,,,,,,,,,,,,,,,,,,,,,,,,1.717000008,o,FO,FALSE,,,,,,,49,hormiga,Spanish,Sounds/spa_hormiga.mp3,2020-06-04_16h58.14.846,TranslationElicitation_eng-prolific,3.2.4,Win32,60,5dae0ea2a0e1f7001526ac22,1,0,98,45,1,97
,,,,,,,,,,,,,,,,,,,,,,,,,,,,,,,,,,,,,,,,,,1.799999952,r,FOR,FALSE,,,,,,,49,hormiga,Spanish,Sounds/spa_hormiga.mp3,2020-06-04_16h58.14.846,TranslationElicitation_eng-prolific,3.2.4,Win32,60,5dae0ea2a0e1f7001526ac22,1,0,98,45,1,97
,,,,,,,,,,,,,,,,,,,,,,,,,,,,,,,,,,,,,,,,,,1.883999825,space,FOR ,FALSE,,,,,,,49,hormiga,Spanish,Sounds/spa_hormiga.mp3,2020-06-04_16h58.14.846,TranslationElicitation_eng-prolific,3.2.4,Win32,60,5dae0ea2a0e1f7001526ac22,1,0,98,45,1,97
,,,,,,,,,,,,,,,,,,,,,,,,,,,,,,,,,,,,,,,,,,2.000999928,m,FOR M,FALSE,,,,,,,49,hormiga,Spanish,Sounds/spa_hormiga.mp3,2020-06-04_16h58.14.846,TranslationElicitation_eng-prolific,3.2.4,Win32,60,5dae0ea2a0e1f7001526ac22,1,0,98,45,1,97
,,,,,,,,,,,,,,,,,,,,,,,,,,,,,,,,,,,,,,,,,,3.289000034,e,FOR ME,FALSE,,,,,,,49,hormiga,Spanish,Sounds/spa_hormiga.mp3,2020-06-04_16h58.14.846,TranslationElicitation_eng-prolific,3.2.4,Win32,60,5dae0ea2a0e1f7001526ac22,1,0,98,45,1,97
,,,,,,,,,,,,,,,,,,,,,,,,,,,,,,,,,,,,,,,,,,3.448999882,backspace,FOR M,TRUE,,,,,,,49,hormiga,Spanish,Sounds/spa_hormiga.mp3,2020-06-04_16h58.14.846,TranslationElicitation_eng-prolific,3.2.4,Win32,60,5dae0ea2a0e1f7001526ac22,1,0,98,45,1,97
,,,,,,,,,,,,,,,,,,,,,,,,,,,,,,,,,,,,,,,,,,4.082000017,e,FOR ME,TRUE,,,,,,,49,hormiga,Spanish,Sounds/spa_hormiga.mp3,2020-06-04_16h58.14.846,TranslationElicitation_eng-prolific,3.2.4,Win32,60,5dae0ea2a0e1f7001526ac22,1,0,98,45,1,97
,,,,,,,,,,,,,,,,,,,,,,,,,,,,,,,,,,,,,,,,,4.398000002,4.398000002,return,FOR ME,TRUE,,,,,,,49,hormiga,Spanish,Sounds/spa_hormiga.mp3,2020-06-04_16h58.14.846,TranslationElicitation_eng-prolific,3.2.4,Win32,60,5dae0ea2a0e1f7001526ac22,1,0,98,45,1,97
,,,,,,,,,,,,,,,,,,,,,,,,,,,,,,,,,,,,,,,,,,,,,,,,,,,,49,hormiga,Spanish,Sounds/spa_hormiga.mp3,2020-06-04_16h58.14.846,TranslationElicitation_eng-prolific,3.2.4,Win32,60,5dae0ea2a0e1f7001526ac22,1,0,98,45,1,97
,,,,,,,,,,,,,,,,,,,,,,,,,,,,,,,,,,,,,,,,,,1.582000017,t,T,FALSE,,,,,,,99,tomate,Spanish,Sounds/spa_tomate.mp3,2020-06-04_16h58.14.846,TranslationElicitation_eng-prolific,3.2.4,Win32,60,5dae0ea2a0e1f7001526ac22,1,0,98,93,1,97
,,,,,,,,,,,,,,,,,,,,,,,,,,,,,,,,,,,,,,,,,,1.665999889,o,TO,FALSE,,,,,,,99,tomate,Spanish,Sounds/spa_tomate.mp3,2020-06-04_16h58.14.846,TranslationElicitation_eng-prolific,3.2.4,Win32,60,5dae0ea2a0e1f7001526ac22,1,0,98,93,1,97
,,,,,,,,,,,,,,,,,,,,,,,,,,,,,,,,,,,,,,,,,,1.781999826,m,TOM,FALSE,,,,,,,99,tomate,Spanish,Sounds/spa_tomate.mp3,2020-06-04_16h58.14.846,TranslationElicitation_eng-prolific,3.2.4,Win32,60,5dae0ea2a0e1f7001526ac22,1,0,98,93,1,97
,,,,,,,,,,,,,,,,,,,,,,,,,,,,,,,,,,,,,,,,,,1.898999929,a,TOMA,FALSE,,,,,,,99,tomate,Spanish,Sounds/spa_tomate.mp3,2020-06-04_16h58.14.846,TranslationElicitation_eng-prolific,3.2.4,Win32,60,5dae0ea2a0e1f7001526ac22,1,0,98,93,1,97
,,,,,,,,,,,,,,,,,,,,,,,,,,,,,,,,,,,,,,,,,,1.964999914,t,TOMAT,FALSE,,,,,,,99,tomate,Spanish,Sounds/spa_tomate.mp3,2020-06-04_16h58.14.846,TranslationElicitation_eng-prolific,3.2.4,Win32,60,5dae0ea2a0e1f7001526ac22,1,0,98,93,1,97
,,,,,,,,,,,,,,,,,,,,,,,,,,,,,,,,,,,,,,,,,,2.031999826,o,TOMATO,FALSE,,,,,,,99,tomate,Spanish,Sounds/spa_tomate.mp3,2020-06-04_16h58.14.846,TranslationElicitation_eng-prolific,3.2.4,Win32,60,5dae0ea2a0e1f7001526ac22,1,0,98,93,1,97
,,,,,,,,,,,,,,,,,,,,,,,,,,,,,,,,,,,,,,,,,2.181999922,2.181999922,return,TOMATO,FALSE,,,,,,,99,tomate,Spanish,Sounds/spa_tomate.mp3,2020-06-04_16h58.14.846,TranslationElicitation_eng-prolific,3.2.4,Win32,60,5dae0ea2a0e1f7001526ac22,1,0,98,93,1,97
,,,,,,,,,,,,,,,,,,,,,,,,,,,,,,,,,,,,,,,,,,,,,,,,,,,,99,tomate,Spanish,Sounds/spa_tomate.mp3,2020-06-04_16h58.14.846,TranslationElicitation_eng-prolific,3.2.4,Win32,60,5dae0ea2a0e1f7001526ac22,1,0,98,93,1,97
,,,,,,,,,,,,,,,,,,,,,,,,,,,,,,,,,,,,,,,,,,1.999000072,c,C,FALSE,,,,,,,67,muneca,Spanish,Sounds/spa_muneca.mp3,2020-06-04_16h58.14.846,TranslationElicitation_eng-prolific,3.2.4,Win32,60,5dae0ea2a0e1f7001526ac22,1,0,98,63,1,97
,,,,,,,,,,,,,,,,,,,,,,,,,,,,,,,,,,,,,,,,,,2.181999922,u,CU,FALSE,,,,,,,67,muneca,Spanish,Sounds/spa_muneca.mp3,2020-06-04_16h58.14.846,TranslationElicitation_eng-prolific,3.2.4,Win32,60,5dae0ea2a0e1f7001526ac22,1,0,98,63,1,97
,,,,,,,,,,,,,,,,,,,,,,,,,,,,,,,,,,,,,,,,,,2.36500001,p,CUP,FALSE,,,,,,,67,muneca,Spanish,Sounds/spa_muneca.mp3,2020-06-04_16h58.14.846,TranslationElicitation_eng-prolific,3.2.4,Win32,60,5dae0ea2a0e1f7001526ac22,1,0,98,63,1,97
,,,,,,,,,,,,,,,,,,,,,,,,,,,,,,,,,,,,,,,,,2.734999895,2.734999895,return,CUP,FALSE,,,,,,,67,muneca,Spanish,Sounds/spa_muneca.mp3,2020-06-04_16h58.14.846,TranslationElicitation_eng-prolific,3.2.4,Win32,60,5dae0ea2a0e1f7001526ac22,1,0,98,63,1,97
,,,,,,,,,,,,,,,,,,,,,,,,,,,,,,,,,,,,,,,,,,,,,,,,,,,,67,muneca,Spanish,Sounds/spa_muneca.mp3,2020-06-04_16h58.14.846,TranslationElicitation_eng-prolific,3.2.4,Win32,60,5dae0ea2a0e1f7001526ac22,1,0,98,63,1,97
,,,,,,,,,,,,,,,,,,,,,,,,,,,,,,,,,,,,,,,,,,2.097999811,r,R,FALSE,,,,,,,52,lapiz,Spanish,Sounds/spa_lapiz.mp3,2020-06-04_16h58.14.846,TranslationElicitation_eng-prolific,3.2.4,Win32,60,5dae0ea2a0e1f7001526ac22,1,0,98,48,1,97
,,,,,,,,,,,,,,,,,,,,,,,,,,,,,,,,,,,,,,,,,,2.181999922,a,RA,FALSE,,,,,,,52,lapiz,Spanish,Sounds/spa_lapiz.mp3,2020-06-04_16h58.14.846,TranslationElicitation_eng-prolific,3.2.4,Win32,60,5dae0ea2a0e1f7001526ac22,1,0,98,48,1,97
,,,,,,,,,,,,,,,,,,,,,,,,,,,,,,,,,,,,,,,,,,2.281999826,b,RAB,FALSE,,,,,,,52,lapiz,Spanish,Sounds/spa_lapiz.mp3,2020-06-04_16h58.14.846,TranslationElicitation_eng-prolific,3.2.4,Win32,60,5dae0ea2a0e1f7001526ac22,1,0,98,48,1,97
,,,,,,,,,,,,,,,,,,,,,,,,,,,,,,,,,,,,,,,,,,2.398000002,b,RABB,FALSE,,,,,,,52,lapiz,Spanish,Sounds/spa_lapiz.mp3,2020-06-04_16h58.14.846,TranslationElicitation_eng-prolific,3.2.4,Win32,60,5dae0ea2a0e1f7001526ac22,1,0,98,48,1,97
,,,,,,,,,,,,,,,,,,,,,,,,,,,,,,,,,,,,,,,,,,2.547999859,i,RABBI,FALSE,,,,,,,52,lapiz,Spanish,Sounds/spa_lapiz.mp3,2020-06-04_16h58.14.846,TranslationElicitation_eng-prolific,3.2.4,Win32,60,5dae0ea2a0e1f7001526ac22,1,0,98,48,1,97
,,,,,,,,,,,,,,,,,,,,,,,,,,,,,,,,,,,,,,,,,,2.764999866,t,RABBIT,FALSE,,,,,,,52,lapiz,Spanish,Sounds/spa_lapiz.mp3,2020-06-04_16h58.14.846,TranslationElicitation_eng-prolific,3.2.4,Win32,60,5dae0ea2a0e1f7001526ac22,1,0,98,48,1,97
,,,,,,,,,,,,,,,,,,,,,,,,,,,,,,,,,,,,,,,,,2.931999922,2.931999922,return,RABBIT,FALSE,,,,,,,52,lapiz,Spanish,Sounds/spa_lapiz.mp3,2020-06-04_16h58.14.846,TranslationElicitation_eng-prolific,3.2.4,Win32,60,5dae0ea2a0e1f7001526ac22,1,0,98,48,1,97
,,,,,,,,,,,,,,,,,,,,,,,,,,,,,,,,,,,,,,,,,,,,,,,,,,,,52,lapiz,Spanish,Sounds/spa_lapiz.mp3,2020-06-04_16h58.14.846,TranslationElicitation_eng-prolific,3.2.4,Win32,60,5dae0ea2a0e1f7001526ac22,1,0,98,48,1,97
,,,,,,,,,,,,,,,,,,,,,,,,,,,,,,,,,,,,,,,,,,2.049000025,v,V,FALSE,,,,,,,19,camiseta,Spanish,Sounds/spa_camiseta.mp3,2020-06-04_16h58.14.846,TranslationElicitation_eng-prolific,3.2.4,Win32,60,5dae0ea2a0e1f7001526ac22,1,0,98,17,1,97
,,,,,,,,,,,,,,,,,,,,,,,,,,,,,,,,,,,,,,,,,,2.214999914,e,VE,FALSE,,,,,,,19,camiseta,Spanish,Sounds/spa_camiseta.mp3,2020-06-04_16h58.14.846,TranslationElicitation_eng-prolific,3.2.4,Win32,60,5dae0ea2a0e1f7001526ac22,1,0,98,17,1,97
,,,,,,,,,,,,,,,,,,,,,,,,,,,,,,,,,,,,,,,,,,2.481999874,s,VES,FALSE,,,,,,,19,camiseta,Spanish,Sounds/spa_camiseta.mp3,2020-06-04_16h58.14.846,TranslationElicitation_eng-prolific,3.2.4,Win32,60,5dae0ea2a0e1f7001526ac22,1,0,98,17,1,97
,,,,,,,,,,,,,,,,,,,,,,,,,,,,,,,,,,,,,,,,,,2.61500001,t,VEST,FALSE,,,,,,,19,camiseta,Spanish,Sounds/spa_camiseta.mp3,2020-06-04_16h58.14.846,TranslationElicitation_eng-prolific,3.2.4,Win32,60,5dae0ea2a0e1f7001526ac22,1,0,98,17,1,97
,,,,,,,,,,,,,,,,,,,,,,,,,,,,,,,,,,,,,,,,,2.747999907,2.747999907,return,VEST,FALSE,,,,,,,19,camiseta,Spanish,Sounds/spa_camiseta.mp3,2020-06-04_16h58.14.846,TranslationElicitation_eng-prolific,3.2.4,Win32,60,5dae0ea2a0e1f7001526ac22,1,0,98,17,1,97
,,,,,,,,,,,,,,,,,,,,,,,,,,,,,,,,,,,,,,,,,,,,,,,,,,,,19,camiseta,Spanish,Sounds/spa_camiseta.mp3,2020-06-04_16h58.14.846,TranslationElicitation_eng-prolific,3.2.4,Win32,60,5dae0ea2a0e1f7001526ac22,1,0,98,17,1,97
,,,,,,,,,,,,,,,,,,,,,,,,,,,,,,,,,,,,,,,,,,3.246999979,c,C,FALSE,,,,,,,15,caballo,Spanish,Sounds/spa_caballo.mp3,2020-06-04_16h58.14.846,TranslationElicitation_eng-prolific,3.2.4,Win32,60,5dae0ea2a0e1f7001526ac22,1,0,98,13,1,97
,,,,,,,,,,,,,,,,,,,,,,,,,,,,,,,,,,,,,,,,,,3.390999794,o,CO,FALSE,,,,,,,15,caballo,Spanish,Sounds/spa_caballo.mp3,2020-06-04_16h58.14.846,TranslationElicitation_eng-prolific,3.2.4,Win32,60,5dae0ea2a0e1f7001526ac22,1,0,98,13,1,97
,,,,,,,,,,,,,,,,,,,,,,,,,,,,,,,,,,,,,,,,,,3.495999813,w,COW,FALSE,,,,,,,15,caballo,Spanish,Sounds/spa_caballo.mp3,2020-06-04_16h58.14.846,TranslationElicitation_eng-prolific,3.2.4,Win32,60,5dae0ea2a0e1f7001526ac22,1,0,98,13,1,97
,,,,,,,,,,,,,,,,,,,,,,,,,,,,,,,,,,,,,,,,,3.629999876,3.629999876,return,COW,FALSE,,,,,,,15,caballo,Spanish,Sounds/spa_caballo.mp3,2020-06-04_16h58.14.846,TranslationElicitation_eng-prolific,3.2.4,Win32,60,5dae0ea2a0e1f7001526ac22,1,0,98,13,1,97
,,,,,,,,,,,,,,,,,,,,,,,,,,,,,,,,,,,,,,,,,,,,,,,,,,,,15,caballo,Spanish,Sounds/spa_caballo.mp3,2020-06-04_16h58.14.846,TranslationElicitation_eng-prolific,3.2.4,Win32,60,5dae0ea2a0e1f7001526ac22,1,0,98,13,1,97
,,,,,,,,,,,,,,,,,,,,,,,,,,,,,,,,,,,,,,,,,,1.665999889,h,H,FALSE,,,,,,,97,tijeras,Spanish,Sounds/spa_tijeras.mp3,2020-06-04_16h58.14.846,TranslationElicitation_eng-prolific,3.2.4,Win32,60,5dae0ea2a0e1f7001526ac22,1,0,98,91,1,97
,,,,,,,,,,,,,,,,,,,,,,,,,,,,,,,,,,,,,,,,,,1.799000025,a,HA,FALSE,,,,,,,97,tijeras,Spanish,Sounds/spa_tijeras.mp3,2020-06-04_16h58.14.846,TranslationElicitation_eng-prolific,3.2.4,Win32,60,5dae0ea2a0e1f7001526ac22,1,0,98,91,1,97
,,,,,,,,,,,,,,,,,,,,,,,,,,,,,,,,,,,,,,,,,,1.848999977,t,HAT,FALSE,,,,,,,97,tijeras,Spanish,Sounds/spa_tijeras.mp3,2020-06-04_16h58.14.846,TranslationElicitation_eng-prolific,3.2.4,Win32,60,5dae0ea2a0e1f7001526ac22,1,0,98,91,1,97
,,,,,,,,,,,,,,,,,,,,,,,,,,,,,,,,,,,,,,,,,2.032999992,2.032999992,return,HAT,FALSE,,,,,,,97,tijeras,Spanish,Sounds/spa_tijeras.mp3,2020-06-04_16h58.14.846,TranslationElicitation_eng-prolific,3.2.4,Win32,60,5dae0ea2a0e1f7001526ac22,1,0,98,91,1,97
,,,,,,,,,,,,,,,,,,,,,,,,,,,,,,,,,,,,,,,,,,,,,,,,,,,,97,tijeras,Spanish,Sounds/spa_tijeras.mp3,2020-06-04_16h58.14.846,TranslationElicitation_eng-prolific,3.2.4,Win32,60,5dae0ea2a0e1f7001526ac22,1,0,98,91,1,97
,,,,,,,,,,,,,,,,,,,,,,,,,,,,,,,,,,,,,,,,,,1.215999842,g,G,FALSE,,,,,,,85,pierna,Spanish,Sounds/spa_pierna.mp3,2020-06-04_16h58.14.846,TranslationElicitation_eng-prolific,3.2.4,Win32,60,5dae0ea2a0e1f7001526ac22,1,0,98,80,1,97
,,,,,,,,,,,,,,,,,,,,,,,,,,,,,,,,,,,,,,,,,,1.299999952,o,GO,FALSE,,,,,,,85,pierna,Spanish,Sounds/spa_pierna.mp3,2020-06-04_16h58.14.846,TranslationElicitation_eng-prolific,3.2.4,Win32,60,5dae0ea2a0e1f7001526ac22,1,0,98,80,1,97
,,,,,,,,,,,,,,,,,,,,,,,,,,,,,,,,,,,,,,,,,,1.415999889,o,GOO,FALSE,,,,,,,85,pierna,Spanish,Sounds/spa_pierna.mp3,2020-06-04_16h58.14.846,TranslationElicitation_eng-prolific,3.2.4,Win32,60,5dae0ea2a0e1f7001526ac22,1,0,98,80,1,97
,,,,,,,,,,,,,,,,,,,,,,,,,,,,,,,,,,,,,,,,,,1.498999834,d,GOOD,FALSE,,,,,,,85,pierna,Spanish,Sounds/spa_pierna.mp3,2020-06-04_16h58.14.846,TranslationElicitation_eng-prolific,3.2.4,Win32,60,5dae0ea2a0e1f7001526ac22,1,0,98,80,1,97
,,,,,,,,,,,,,,,,,,,,,,,,,,,,,,,,,,,,,,,,,1.615999937,1.615999937,return,GOOD,FALSE,,,,,,,85,pierna,Spanish,Sounds/spa_pierna.mp3,2020-06-04_16h58.14.846,TranslationElicitation_eng-prolific,3.2.4,Win32,60,5dae0ea2a0e1f7001526ac22,1,0,98,80,1,97
,,,,,,,,,,,,,,,,,,,,,,,,,,,,,,,,,,,,,,,,,,,,,,,,,,,,85,pierna,Spanish,Sounds/spa_pierna.mp3,2020-06-04_16h58.14.846,TranslationElicitation_eng-prolific,3.2.4,Win32,60,5dae0ea2a0e1f7001526ac22,1,0,98,80,1,97
,,,,,,,,,,,,,,,,,,,,,,,,,,,,,,,,,,,,,,,,,,2.414999962,b,B,FALSE,,,,,,,64,moneda,Spanish,Sounds/spa_moneda.mp3,2020-06-04_16h58.14.846,TranslationElicitation_eng-prolific,3.2.4,Win32,60,5dae0ea2a0e1f7001526ac22,1,0,98,60,1,97
,,,,,,,,,,,,,,,,,,,,,,,,,,,,,,,,,,,,,,,,,,2.582000017,i,BI,FALSE,,,,,,,64,moneda,Spanish,Sounds/spa_moneda.mp3,2020-06-04_16h58.14.846,TranslationElicitation_eng-prolific,3.2.4,Win32,60,5dae0ea2a0e1f7001526ac22,1,0,98,60,1,97
,,,,,,,,,,,,,,,,,,,,,,,,,,,,,,,,,,,,,,,,,,3.131999969,g,BIG,FALSE,,,,,,,64,moneda,Spanish,Sounds/spa_moneda.mp3,2020-06-04_16h58.14.846,TranslationElicitation_eng-prolific,3.2.4,Win32,60,5dae0ea2a0e1f7001526ac22,1,0,98,60,1,97
,,,,,,,,,,,,,,,,,,,,,,,,,,,,,,,,,,,,,,,,,3.498999834,3.498999834,return,BIG,FALSE,,,,,,,64,moneda,Spanish,Sounds/spa_moneda.mp3,2020-06-04_16h58.14.846,TranslationElicitation_eng-prolific,3.2.4,Win32,60,5dae0ea2a0e1f7001526ac22,1,0,98,60,1,97
,,,,,,,,,,,,,,,,,,,,,,,,,,,,,,,,,,,,,,,,,,,,,,,,,,,,64,moneda,Spanish,Sounds/spa_moneda.mp3,2020-06-04_16h58.14.846,TranslationElicitation_eng-prolific,3.2.4,Win32,60,5dae0ea2a0e1f7001526ac22,1,0,98,60,1,97
,,,,,,,,,,,,,,,,,,,,,,,,,,,,,,,,,,,,,,,,,,2.832000017,t,T,FALSE,,,,,,,24,cereza,Spanish,Sounds/spa_cereza.mp3,2020-06-04_16h58.14.846,TranslationElicitation_eng-prolific,3.2.4,Win32,60,5dae0ea2a0e1f7001526ac22,1,0,98,22,1,97
,,,,,,,,,,,,,,,,,,,,,,,,,,,,,,,,,,,,,,,,,,2.914999962,o,TO,FALSE,,,,,,,24,cereza,Spanish,Sounds/spa_cereza.mp3,2020-06-04_16h58.14.846,TranslationElicitation_eng-prolific,3.2.4,Win32,60,5dae0ea2a0e1f7001526ac22,1,0,98,22,1,97
,,,,,,,,,,,,,,,,,,,,,,,,,,,,,,,,,,,,,,,,,,3.065000057,p,TOP,FALSE,,,,,,,24,cereza,Spanish,Sounds/spa_cereza.mp3,2020-06-04_16h58.14.846,TranslationElicitation_eng-prolific,3.2.4,Win32,60,5dae0ea2a0e1f7001526ac22,1,0,98,22,1,97
,,,,,,,,,,,,,,,,,,,,,,,,,,,,,,,,,,,,,,,,,3.565999985,3.565999985,return,TOP,FALSE,,,,,,,24,cereza,Spanish,Sounds/spa_cereza.mp3,2020-06-04_16h58.14.846,TranslationElicitation_eng-prolific,3.2.4,Win32,60,5dae0ea2a0e1f7001526ac22,1,0,98,22,1,97
,,,,,,,,,,,,,,,,,,,,,,,,,,,,,,,,,,,,,,,,,,,,,,,,,,,,24,cereza,Spanish,Sounds/spa_cereza.mp3,2020-06-04_16h58.14.846,TranslationElicitation_eng-prolific,3.2.4,Win32,60,5dae0ea2a0e1f7001526ac22,1,0,98,22,1,97
,,,,,,,,,,,,,,,,,,,,,,,,,,,,,,,,,,,,,,,,,,2.332000017,c,C,FALSE,,,,,,,44,gorrion,Spanish,Sounds/spa_gorrion.mp3,2020-06-04_16h58.14.846,TranslationElicitation_eng-prolific,3.2.4,Win32,60,5dae0ea2a0e1f7001526ac22,1,0,98,40,1,97
,,,,,,,,,,,,,,,,,,,,,,,,,,,,,,,,,,,,,,,,,,2.36500001,h,CH,FALSE,,,,,,,44,gorrion,Spanish,Sounds/spa_gorrion.mp3,2020-06-04_16h58.14.846,TranslationElicitation_eng-prolific,3.2.4,Win32,60,5dae0ea2a0e1f7001526ac22,1,0,98,40,1,97
,,,,,,,,,,,,,,,,,,,,,,,,,,,,,,,,,,,,,,,,,,2.464999914,e,CHE,FALSE,,,,,,,44,gorrion,Spanish,Sounds/spa_gorrion.mp3,2020-06-04_16h58.14.846,TranslationElicitation_eng-prolific,3.2.4,Win32,60,5dae0ea2a0e1f7001526ac22,1,0,98,40,1,97
,,,,,,,,,,,,,,,,,,,,,,,,,,,,,,,,,,,,,,,,,,2.881000042,e,CHEE,FALSE,,,,,,,44,gorrion,Spanish,Sounds/spa_gorrion.mp3,2020-06-04_16h58.14.846,TranslationElicitation_eng-prolific,3.2.4,Win32,60,5dae0ea2a0e1f7001526ac22,1,0,98,40,1,97
,,,,,,,,,,,,,,,,,,,,,,,,,,,,,,,,,,,,,,,,,,3.082000017,s,CHEES,FALSE,,,,,,,44,gorrion,Spanish,Sounds/spa_gorrion.mp3,2020-06-04_16h58.14.846,TranslationElicitation_eng-prolific,3.2.4,Win32,60,5dae0ea2a0e1f7001526ac22,1,0,98,40,1,97
,,,,,,,,,,,,,,,,,,,,,,,,,,,,,,,,,,,,,,,,,,3.21600008,e,CHEESE,FALSE,,,,,,,44,gorrion,Spanish,Sounds/spa_gorrion.mp3,2020-06-04_16h58.14.846,TranslationElicitation_eng-prolific,3.2.4,Win32,60,5dae0ea2a0e1f7001526ac22,1,0,98,40,1,97
,,,,,,,,,,,,,,,,,,,,,,,,,,,,,,,,,,,,,,,,,3.381999969,3.381999969,return,CHEESE,FALSE,,,,,,,44,gorrion,Spanish,Sounds/spa_gorrion.mp3,2020-06-04_16h58.14.846,TranslationElicitation_eng-prolific,3.2.4,Win32,60,5dae0ea2a0e1f7001526ac22,1,0,98,40,1,97
,,,,,,,,,,,,,,,,,,,,,,,,,,,,,,,,,,,,,,,,,,,,,,,,,,,,44,gorrion,Spanish,Sounds/spa_gorrion.mp3,2020-06-04_16h58.14.846,TranslationElicitation_eng-prolific,3.2.4,Win32,60,5dae0ea2a0e1f7001526ac22,1,0,98,40,1,97
,,,,,,,,,,,,,,,,,,,,,,,,,,,,,,,,,,,,,,,,,,1.499000072,t,T,FALSE,,,,,,,95,tenedor,Spanish,Sounds/spa_tenedor.mp3,2020-06-04_16h58.14.846,TranslationElicitation_eng-prolific,3.2.4,Win32,60,5dae0ea2a0e1f7001526ac22,1,0,98,90,1,97
,,,,,,,,,,,,,,,,,,,,,,,,,,,,,,,,,,,,,,,,,,1.548000097,e,TE,FALSE,,,,,,,95,tenedor,Spanish,Sounds/spa_tenedor.mp3,2020-06-04_16h58.14.846,TranslationElicitation_eng-prolific,3.2.4,Win32,60,5dae0ea2a0e1f7001526ac22,1,0,98,90,1,97
,,,,,,,,,,,,,,,,,,,,,,,,,,,,,,,,,,,,,,,,,,1.631999969,n,TEN,FALSE,,,,,,,95,tenedor,Spanish,Sounds/spa_tenedor.mp3,2020-06-04_16h58.14.846,TranslationElicitation_eng-prolific,3.2.4,Win32,60,5dae0ea2a0e1f7001526ac22,1,0,98,90,1,97
,,,,,,,,,,,,,,,,,,,,,,,,,,,,,,,,,,,,,,,,,,1.765000105,n,TENN,FALSE,,,,,,,95,tenedor,Spanish,Sounds/spa_tenedor.mp3,2020-06-04_16h58.14.846,TranslationElicitation_eng-prolific,3.2.4,Win32,60,5dae0ea2a0e1f7001526ac22,1,0,98,90,1,97
,,,,,,,,,,,,,,,,,,,,,,,,,,,,,,,,,,,,,,,,,,1.931999922,i,TENNI,FALSE,,,,,,,95,tenedor,Spanish,Sounds/spa_tenedor.mp3,2020-06-04_16h58.14.846,TranslationElicitation_eng-prolific,3.2.4,Win32,60,5dae0ea2a0e1f7001526ac22,1,0,98,90,1,97
,,,,,,,,,,,,,,,,,,,,,,,,,,,,,,,,,,,,,,,,,,1.997999907,s,TENNIS,FALSE,,,,,,,95,tenedor,Spanish,Sounds/spa_tenedor.mp3,2020-06-04_16h58.14.846,TranslationElicitation_eng-prolific,3.2.4,Win32,60,5dae0ea2a0e1f7001526ac22,1,0,98,90,1,97
,,,,,,,,,,,,,,,,,,,,,,,,,,,,,,,,,,,,,,,,,2.34800005,2.34800005,return,TENNIS,FALSE,,,,,,,95,tenedor,Spanish,Sounds/spa_tenedor.mp3,2020-06-04_16h58.14.846,TranslationElicitation_eng-prolific,3.2.4,Win32,60,5dae0ea2a0e1f7001526ac22,1,0,98,90,1,97
,,,,,,,,,,,,,,,,,,,,,,,,,,,,,,,,,,,,,,,,,,,,,,,,,,,,95,tenedor,Spanish,Sounds/spa_tenedor.mp3,2020-06-04_16h58.14.846,TranslationElicitation_eng-prolific,3.2.4,Win32,60,5dae0ea2a0e1f7001526ac22,1,0,98,90,1,97
,,,,,,,,,,,,,,,,,,,,,,,,,,,,,,,,,,,,,,,,,,1.898999929,c,C,FALSE,,,,,,,42,gato,Spanish,Sounds/spa_gato.mp3,2020-06-04_16h58.14.846,TranslationElicitation_eng-prolific,3.2.4,Win32,60,5dae0ea2a0e1f7001526ac22,1,0,98,38,1,97
,,,,,,,,,,,,,,,,,,,,,,,,,,,,,,,,,,,,,,,,,,2.049000025,a,CA,FALSE,,,,,,,42,gato,Spanish,Sounds/spa_gato.mp3,2020-06-04_16h58.14.846,TranslationElicitation_eng-prolific,3.2.4,Win32,60,5dae0ea2a0e1f7001526ac22,1,0,98,38,1,97
,,,,,,,,,,,,,,,,,,,,,,,,,,,,,,,,,,,,,,,,,,2.231999874,k,CAK,FALSE,,,,,,,42,gato,Spanish,Sounds/spa_gato.mp3,2020-06-04_16h58.14.846,TranslationElicitation_eng-prolific,3.2.4,Win32,60,5dae0ea2a0e1f7001526ac22,1,0,98,38,1,97
,,,,,,,,,,,,,,,,,,,,,,,,,,,,,,,,,,,,,,,,,,2.332000017,e,CAKE,FALSE,,,,,,,42,gato,Spanish,Sounds/spa_gato.mp3,2020-06-04_16h58.14.846,TranslationElicitation_eng-prolific,3.2.4,Win32,60,5dae0ea2a0e1f7001526ac22,1,0,98,38,1,97
,,,,,,,,,,,,,,,,,,,,,,,,,,,,,,,,,,,,,,,,,2.480999947,2.480999947,return,CAKE,FALSE,,,,,,,42,gato,Spanish,Sounds/spa_gato.mp3,2020-06-04_16h58.14.846,TranslationElicitation_eng-prolific,3.2.4,Win32,60,5dae0ea2a0e1f7001526ac22,1,0,98,38,1,97
,,,,,,,,,,,,,,,,,,,,,,,,,,,,,,,,,,,,,,,,,,,,,,,,,,,,42,gato,Spanish,Sounds/spa_gato.mp3,2020-06-04_16h58.14.846,TranslationElicitation_eng-prolific,3.2.4,Win32,60,5dae0ea2a0e1f7001526ac22,1,0,98,38,1,97
,,,,,,,,,,,,,,,,,,,,,,,,,,,,,,,,,,,,,,,,,,1.399000168,r,R,FALSE,,,,,,,12,brazo,Spanish,Sounds/spa_brazo.mp3,2020-06-04_16h58.14.846,TranslationElicitation_eng-prolific,3.2.4,Win32,60,5dae0ea2a0e1f7001526ac22,1,0,98,10,1,97
,,,,,,,,,,,,,,,,,,,,,,,,,,,,,,,,,,,,,,,,,,1.532000065,i,RI,FALSE,,,,,,,12,brazo,Spanish,Sounds/spa_brazo.mp3,2020-06-04_16h58.14.846,TranslationElicitation_eng-prolific,3.2.4,Win32,60,5dae0ea2a0e1f7001526ac22,1,0,98,10,1,97
,,,,,,,,,,,,,,,,,,,,,,,,,,,,,,,,,,,,,,,,,,1.715000153,e,RIE,FALSE,,,,,,,12,brazo,Spanish,Sounds/spa_brazo.mp3,2020-06-04_16h58.14.846,TranslationElicitation_eng-prolific,3.2.4,Win32,60,5dae0ea2a0e1f7001526ac22,1,0,98,10,1,97
,,,,,,,,,,,,,,,,,,,,,,,,,,,,,,,,,,,,,,,,,,2.148000002,backspace,RI,TRUE,,,,,,,12,brazo,Spanish,Sounds/spa_brazo.mp3,2020-06-04_16h58.14.846,TranslationElicitation_eng-prolific,3.2.4,Win32,60,5dae0ea2a0e1f7001526ac22,1,0,98,10,1,97
,,,,,,,,,,,,,,,,,,,,,,,,,,,,,,,,,,,,,,,,,,2.232000113,c,RIC,TRUE,,,,,,,12,brazo,Spanish,Sounds/spa_brazo.mp3,2020-06-04_16h58.14.846,TranslationElicitation_eng-prolific,3.2.4,Win32,60,5dae0ea2a0e1f7001526ac22,1,0,98,10,1,97
,,,,,,,,,,,,,,,,,,,,,,,,,,,,,,,,,,,,,,,,,,2.281000137,e,RICE,TRUE,,,,,,,12,brazo,Spanish,Sounds/spa_brazo.mp3,2020-06-04_16h58.14.846,TranslationElicitation_eng-prolific,3.2.4,Win32,60,5dae0ea2a0e1f7001526ac22,1,0,98,10,1,97
,,,,,,,,,,,,,,,,,,,,,,,,,,,,,,,,,,,,,,,,,2.532000065,2.532000065,return,RICE,TRUE,,,,,,,12,brazo,Spanish,Sounds/spa_brazo.mp3,2020-06-04_16h58.14.846,TranslationElicitation_eng-prolific,3.2.4,Win32,60,5dae0ea2a0e1f7001526ac22,1,0,98,10,1,97
,,,,,,,,,,,,,,,,,,,,,,,,,,,,,,,,,,,,,,,,,,,,,,,,,,,,12,brazo,Spanish,Sounds/spa_brazo.mp3,2020-06-04_16h58.14.846,TranslationElicitation_eng-prolific,3.2.4,Win32,60,5dae0ea2a0e1f7001526ac22,1,0,98,10,1,97
,,,,,,,,,,,,,,,,,,,,,,,,,,,,,,,,,,,,,,,,,,2.131000042,p,P,FALSE,,,,,,,82,perro,Spanish,Sounds/spa_perro.mp3,2020-06-04_16h58.14.846,TranslationElicitation_eng-prolific,3.2.4,Win32,60,5dae0ea2a0e1f7001526ac22,1,0,98,77,1,97
,,,,,,,,,,,,,,,,,,,,,,,,,,,,,,,,,,,,,,,,,,2.246999979,e,PE,FALSE,,,,,,,82,perro,Spanish,Sounds/spa_perro.mp3,2020-06-04_16h58.14.846,TranslationElicitation_eng-prolific,3.2.4,Win32,60,5dae0ea2a0e1f7001526ac22,1,0,98,77,1,97
,,,,,,,,,,,,,,,,,,,,,,,,,,,,,,,,,,,,,,,,,,2.332000017,a,PEA,FALSE,,,,,,,82,perro,Spanish,Sounds/spa_perro.mp3,2020-06-04_16h58.14.846,TranslationElicitation_eng-prolific,3.2.4,Win32,60,5dae0ea2a0e1f7001526ac22,1,0,98,77,1,97
,,,,,,,,,,,,,,,,,,,,,,,,,,,,,,,,,,,,,,,,,,2.368999958,r,PEAR,FALSE,,,,,,,82,perro,Spanish,Sounds/spa_perro.mp3,2020-06-04_16h58.14.846,TranslationElicitation_eng-prolific,3.2.4,Win32,60,5dae0ea2a0e1f7001526ac22,1,0,98,77,1,97
,,,,,,,,,,,,,,,,,,,,,,,,,,,,,,,,,,,,,,,,,2.648000002,2.648000002,return,PEAR,FALSE,,,,,,,82,perro,Spanish,Sounds/spa_perro.mp3,2020-06-04_16h58.14.846,TranslationElicitation_eng-prolific,3.2.4,Win32,60,5dae0ea2a0e1f7001526ac22,1,0,98,77,1,97
,,,,,,,,,,,,,,,,,,,,,,,,,,,,,,,,,,,,,,,,,,,,,,,,,,,,82,perro,Spanish,Sounds/spa_perro.mp3,2020-06-04_16h58.14.846,TranslationElicitation_eng-prolific,3.2.4,Win32,60,5dae0ea2a0e1f7001526ac22,1,0,98,77,1,97
,,,,,,,,,,,,,,,,,,,,,,,,,,,,,,,,,,,,,,,,,,2.184999943,p,P,FALSE,,,,,,,88,plato,Spanish,Sounds/spa_plato.mp3,2020-06-04_16h58.14.846,TranslationElicitation_eng-prolific,3.2.4,Win32,60,5dae0ea2a0e1f7001526ac22,1,0,98,83,1,97
,,,,,,,,,,,,,,,,,,,,,,,,,,,,,,,,,,,,,,,,,,2.332000017,l,PL,FALSE,,,,,,,88,plato,Spanish,Sounds/spa_plato.mp3,2020-06-04_16h58.14.846,TranslationElicitation_eng-prolific,3.2.4,Win32,60,5dae0ea2a0e1f7001526ac22,1,0,98,83,1,97
,,,,,,,,,,,,,,,,,,,,,,,,,,,,,,,,,,,,,,,,,,2.464999914,a,PLA,FALSE,,,,,,,88,plato,Spanish,Sounds/spa_plato.mp3,2020-06-04_16h58.14.846,TranslationElicitation_eng-prolific,3.2.4,Win32,60,5dae0ea2a0e1f7001526ac22,1,0,98,83,1,97
,,,,,,,,,,,,,,,,,,,,,,,,,,,,,,,,,,,,,,,,,,2.565000057,t,PLAT,FALSE,,,,,,,88,plato,Spanish,Sounds/spa_plato.mp3,2020-06-04_16h58.14.846,TranslationElicitation_eng-prolific,3.2.4,Win32,60,5dae0ea2a0e1f7001526ac22,1,0,98,83,1,97
,,,,,,,,,,,,,,,,,,,,,,,,,,,,,,,,,,,,,,,,,,2.631000042,e,PLATE,FALSE,,,,,,,88,plato,Spanish,Sounds/spa_plato.mp3,2020-06-04_16h58.14.846,TranslationElicitation_eng-prolific,3.2.4,Win32,60,5dae0ea2a0e1f7001526ac22,1,0,98,83,1,97
,,,,,,,,,,,,,,,,,,,,,,,,,,,,,,,,,,,,,,,,,,2.765000105,a,PLATEA,FALSE,,,,,,,88,plato,Spanish,Sounds/spa_plato.mp3,2020-06-04_16h58.14.846,TranslationElicitation_eng-prolific,3.2.4,Win32,60,5dae0ea2a0e1f7001526ac22,1,0,98,83,1,97
,,,,,,,,,,,,,,,,,,,,,,,,,,,,,,,,,,,,,,,,,,2.884000063,u,PLATEAU,FALSE,,,,,,,88,plato,Spanish,Sounds/spa_plato.mp3,2020-06-04_16h58.14.846,TranslationElicitation_eng-prolific,3.2.4,Win32,60,5dae0ea2a0e1f7001526ac22,1,0,98,83,1,97
,,,,,,,,,,,,,,,,,,,,,,,,,,,,,,,,,,,,,,,,,3.296999931,3.296999931,return,PLATEAU,FALSE,,,,,,,88,plato,Spanish,Sounds/spa_plato.mp3,2020-06-04_16h58.14.846,TranslationElicitation_eng-prolific,3.2.4,Win32,60,5dae0ea2a0e1f7001526ac22,1,0,98,83,1,97
,,,,,,,,,,,,,,,,,,,,,,,,,,,,,,,,,,,,,,,,,,,,,,,,,,,,88,plato,Spanish,Sounds/spa_plato.mp3,2020-06-04_16h58.14.846,TranslationElicitation_eng-prolific,3.2.4,Win32,60,5dae0ea2a0e1f7001526ac22,1,0,98,83,1,97
,,,,,,,,,,,,,,,,,,,,,,,,,,,,,,,,,,,,,,,,,,1.5,t,T,FALSE,,,,,,,94,tambor,Spanish,Sounds/spa_tambor.mp3,2020-06-04_16h58.14.846,TranslationElicitation_eng-prolific,3.2.4,Win32,60,5dae0ea2a0e1f7001526ac22,1,0,98,89,1,97
,,,,,,,,,,,,,,,,,,,,,,,,,,,,,,,,,,,,,,,,,,1.600000143,a,TA,FALSE,,,,,,,94,tambor,Spanish,Sounds/spa_tambor.mp3,2020-06-04_16h58.14.846,TranslationElicitation_eng-prolific,3.2.4,Win32,60,5dae0ea2a0e1f7001526ac22,1,0,98,89,1,97
,,,,,,,,,,,,,,,,,,,,,,,,,,,,,,,,,,,,,,,,,,1.650000095,m,TAM,FALSE,,,,,,,94,tambor,Spanish,Sounds/spa_tambor.mp3,2020-06-04_16h58.14.846,TranslationElicitation_eng-prolific,3.2.4,Win32,60,5dae0ea2a0e1f7001526ac22,1,0,98,89,1,97
,,,,,,,,,,,,,,,,,,,,,,,,,,,,,,,,,,,,,,,,,,1.815999985,b,TAMB,FALSE,,,,,,,94,tambor,Spanish,Sounds/spa_tambor.mp3,2020-06-04_16h58.14.846,TranslationElicitation_eng-prolific,3.2.4,Win32,60,5dae0ea2a0e1f7001526ac22,1,0,98,89,1,97
,,,,,,,,,,,,,,,,,,,,,,,,,,,,,,,,,,,,,,,,,,1.96600008,o,TAMBO,FALSE,,,,,,,94,tambor,Spanish,Sounds/spa_tambor.mp3,2020-06-04_16h58.14.846,TranslationElicitation_eng-prolific,3.2.4,Win32,60,5dae0ea2a0e1f7001526ac22,1,0,98,89,1,97
,,,,,,,,,,,,,,,,,,,,,,,,,,,,,,,,,,,,,,,,,,2.100000143,u,TAMBOU,FALSE,,,,,,,94,tambor,Spanish,Sounds/spa_tambor.mp3,2020-06-04_16h58.14.846,TranslationElicitation_eng-prolific,3.2.4,Win32,60,5dae0ea2a0e1f7001526ac22,1,0,98,89,1,97
,,,,,,,,,,,,,,,,,,,,,,,,,,,,,,,,,,,,,,,,,,2.183000088,r,TAMBOUR,FALSE,,,,,,,94,tambor,Spanish,Sounds/spa_tambor.mp3,2020-06-04_16h58.14.846,TranslationElicitation_eng-prolific,3.2.4,Win32,60,5dae0ea2a0e1f7001526ac22,1,0,98,89,1,97
,,,,,,,,,,,,,,,,,,,,,,,,,,,,,,,,,,,,,,,,,,2.25,i,TAMBOURI,FALSE,,,,,,,94,tambor,Spanish,Sounds/spa_tambor.mp3,2020-06-04_16h58.14.846,TranslationElicitation_eng-prolific,3.2.4,Win32,60,5dae0ea2a0e1f7001526ac22,1,0,98,89,1,97
,,,,,,,,,,,,,,,,,,,,,,,,,,,,,,,,,,,,,,,,,,2.387000084,n,TAMBOURIN,FALSE,,,,,,,94,tambor,Spanish,Sounds/spa_tambor.mp3,2020-06-04_16h58.14.846,TranslationElicitation_eng-prolific,3.2.4,Win32,60,5dae0ea2a0e1f7001526ac22,1,0,98,89,1,97
,,,,,,,,,,,,,,,,,,,,,,,,,,,,,,,,,,,,,,,,,,2.482000113,e,TAMBOURINE,FALSE,,,,,,,94,tambor,Spanish,Sounds/spa_tambor.mp3,2020-06-04_16h58.14.846,TranslationElicitation_eng-prolific,3.2.4,Win32,60,5dae0ea2a0e1f7001526ac22,1,0,98,89,1,97
,,,,,,,,,,,,,,,,,,,,,,,,,,,,,,,,,,,,,,,,,2.632000208,2.632000208,return,TAMBOURINE,FALSE,,,,,,,94,tambor,Spanish,Sounds/spa_tambor.mp3,2020-06-04_16h58.14.846,TranslationElicitation_eng-prolific,3.2.4,Win32,60,5dae0ea2a0e1f7001526ac22,1,0,98,89,1,97
,,,,,,,,,,,,,,,,,,,,,,,,,,,,,,,,,,,,,,,,,,,,,,,,,,,,94,tambor,Spanish,Sounds/spa_tambor.mp3,2020-06-04_16h58.14.846,TranslationElicitation_eng-prolific,3.2.4,Win32,60,5dae0ea2a0e1f7001526ac22,1,0,98,89,1,97
,,,,,,,,,,,,,,,,,,,,,,,,,,,,,,,,,,,,,,,,,,1.631999969,p,P,FALSE,,,,,,,90,pollo,Spanish,Sounds/spa_pollo.mp3,2020-06-04_16h58.14.846,TranslationElicitation_eng-prolific,3.2.4,Win32,60,5dae0ea2a0e1f7001526ac22,1,0,98,85,1,97
,,,,,,,,,,,,,,,,,,,,,,,,,,,,,,,,,,,,,,,,,,1.815000057,o,PO,FALSE,,,,,,,90,pollo,Spanish,Sounds/spa_pollo.mp3,2020-06-04_16h58.14.846,TranslationElicitation_eng-prolific,3.2.4,Win32,60,5dae0ea2a0e1f7001526ac22,1,0,98,85,1,97
,,,,,,,,,,,,,,,,,,,,,,,,,,,,,,,,,,,,,,,,,,1.947999954,y,POY,FALSE,,,,,,,90,pollo,Spanish,Sounds/spa_pollo.mp3,2020-06-04_16h58.14.846,TranslationElicitation_eng-prolific,3.2.4,Win32,60,5dae0ea2a0e1f7001526ac22,1,0,98,85,1,97
,,,,,,,,,,,,,,,,,,,,,,,,,,,,,,,,,,,,,,,,,,1.997999907,o,POYO,FALSE,,,,,,,90,pollo,Spanish,Sounds/spa_pollo.mp3,2020-06-04_16h58.14.846,TranslationElicitation_eng-prolific,3.2.4,Win32,60,5dae0ea2a0e1f7001526ac22,1,0,98,85,1,97
,,,,,,,,,,,,,,,,,,,,,,,,,,,,,,,,,,,,,,,,,2.34800005,2.34800005,return,POYO,FALSE,,,,,,,90,pollo,Spanish,Sounds/spa_pollo.mp3,2020-06-04_16h58.14.846,TranslationElicitation_eng-prolific,3.2.4,Win32,60,5dae0ea2a0e1f7001526ac22,1,0,98,85,1,97
,,,,,,,,,,,,,,,,,,,,,,,,,,,,,,,,,,,,,,,,,,,,,,,,,,,,90,pollo,Spanish,Sounds/spa_pollo.mp3,2020-06-04_16h58.14.846,TranslationElicitation_eng-prolific,3.2.4,Win32,60,5dae0ea2a0e1f7001526ac22,1,0,98,85,1,97
,,,,,,,,,,,,,,,,,,,,,,,,,,,,,,,,,,,,,,,,,,1.799000025,r,R,FALSE,,,,,,,38,frambuesa,Spanish,Sounds/spa_frambuesa.mp3,2020-06-04_16h58.14.846,TranslationElicitation_eng-prolific,3.2.4,Win32,60,5dae0ea2a0e1f7001526ac22,1,0,98,34,1,97
,,,,,,,,,,,,,,,,,,,,,,,,,,,,,,,,,,,,,,,,,,1.999000072,a,RA,FALSE,,,,,,,38,frambuesa,Spanish,Sounds/spa_frambuesa.mp3,2020-06-04_16h58.14.846,TranslationElicitation_eng-prolific,3.2.4,Win32,60,5dae0ea2a0e1f7001526ac22,1,0,98,34,1,97
,,,,,,,,,,,,,,,,,,,,,,,,,,,,,,,,,,,,,,,,,,2.098999977,s,RAS,FALSE,,,,,,,38,frambuesa,Spanish,Sounds/spa_frambuesa.mp3,2020-06-04_16h58.14.846,TranslationElicitation_eng-prolific,3.2.4,Win32,60,5dae0ea2a0e1f7001526ac22,1,0,98,34,1,97
,,,,,,,,,,,,,,,,,,,,,,,,,,,,,,,,,,,,,,,,,,2.184000015,p,RASP,FALSE,,,,,,,38,frambuesa,Spanish,Sounds/spa_frambuesa.mp3,2020-06-04_16h58.14.846,TranslationElicitation_eng-prolific,3.2.4,Win32,60,5dae0ea2a0e1f7001526ac22,1,0,98,34,1,97
,,,,,,,,,,,,,,,,,,,,,,,,,,,,,,,,,,,,,,,,,,2.36500001,b,RASPB,FALSE,,,,,,,38,frambuesa,Spanish,Sounds/spa_frambuesa.mp3,2020-06-04_16h58.14.846,TranslationElicitation_eng-prolific,3.2.4,Win32,60,5dae0ea2a0e1f7001526ac22,1,0,98,34,1,97
,,,,,,,,,,,,,,,,,,,,,,,,,,,,,,,,,,,,,,,,,,2.48300004,e,RASPBE,FALSE,,,,,,,38,frambuesa,Spanish,Sounds/spa_frambuesa.mp3,2020-06-04_16h58.14.846,TranslationElicitation_eng-prolific,3.2.4,Win32,60,5dae0ea2a0e1f7001526ac22,1,0,98,34,1,97
,,,,,,,,,,,,,,,,,,,,,,,,,,,,,,,,,,,,,,,,,,2.51699996,r,RASPBER,FALSE,,,,,,,38,frambuesa,Spanish,Sounds/spa_frambuesa.mp3,2020-06-04_16h58.14.846,TranslationElicitation_eng-prolific,3.2.4,Win32,60,5dae0ea2a0e1f7001526ac22,1,0,98,34,1,97
,,,,,,,,,,,,,,,,,,,,,,,,,,,,,,,,,,,,,,,,,,2.76699996,r,RASPBERR,FALSE,,,,,,,38,frambuesa,Spanish,Sounds/spa_frambuesa.mp3,2020-06-04_16h58.14.846,TranslationElicitation_eng-prolific,3.2.4,Win32,60,5dae0ea2a0e1f7001526ac22,1,0,98,34,1,97
,,,,,,,,,,,,,,,,,,,,,,,,,,,,,,,,,,,,,,,,,,2.86500001,y,RASPBERRY,FALSE,,,,,,,38,frambuesa,Spanish,Sounds/spa_frambuesa.mp3,2020-06-04_16h58.14.846,TranslationElicitation_eng-prolific,3.2.4,Win32,60,5dae0ea2a0e1f7001526ac22,1,0,98,34,1,97
,,,,,,,,,,,,,,,,,,,,,,,,,,,,,,,,,,,,,,,,,3.148000002,3.148000002,return,RASPBERRY,FALSE,,,,,,,38,frambuesa,Spanish,Sounds/spa_frambuesa.mp3,2020-06-04_16h58.14.846,TranslationElicitation_eng-prolific,3.2.4,Win32,60,5dae0ea2a0e1f7001526ac22,1,0,98,34,1,97
,,,,,,,,,,,,,,,,,,,,,,,,,,,,,,,,,,,,,,,,,,,,,,,,,,,,38,frambuesa,Spanish,Sounds/spa_frambuesa.mp3,2020-06-04_16h58.14.846,TranslationElicitation_eng-prolific,3.2.4,Win32,60,5dae0ea2a0e1f7001526ac22,1,0,98,34,1,97
,,,,,,,,,,,,,,,,,,,,,,,,,,,,,,,,,,,,,,,,,,2.046000004,d,D,FALSE,,,,,,,10,botella,Spanish,Sounds/spa_botella.mp3,2020-06-04_16h58.14.846,TranslationElicitation_eng-prolific,3.2.4,Win32,60,5dae0ea2a0e1f7001526ac22,1,0,98,8,1,97
,,,,,,,,,,,,,,,,,,,,,,,,,,,,,,,,,,,,,,,,,,2.144999981,o,DO,FALSE,,,,,,,10,botella,Spanish,Sounds/spa_botella.mp3,2020-06-04_16h58.14.846,TranslationElicitation_eng-prolific,3.2.4,Win32,60,5dae0ea2a0e1f7001526ac22,1,0,98,8,1,97
,,,,,,,,,,,,,,,,,,,,,,,,,,,,,,,,,,,,,,,,,,2.261999846,o,DOO,FALSE,,,,,,,10,botella,Spanish,Sounds/spa_botella.mp3,2020-06-04_16h58.14.846,TranslationElicitation_eng-prolific,3.2.4,Win32,60,5dae0ea2a0e1f7001526ac22,1,0,98,8,1,97
,,,,,,,,,,,,,,,,,,,,,,,,,,,,,,,,,,,,,,,,,,2.34499979,r,DOOR,FALSE,,,,,,,10,botella,Spanish,Sounds/spa_botella.mp3,2020-06-04_16h58.14.846,TranslationElicitation_eng-prolific,3.2.4,Win32,60,5dae0ea2a0e1f7001526ac22,1,0,98,8,1,97
,,,,,,,,,,,,,,,,,,,,,,,,,,,,,,,,,,,,,,,,,2.428999901,2.428999901,return,DOOR,FALSE,,,,,,,10,botella,Spanish,Sounds/spa_botella.mp3,2020-06-04_16h58.14.846,TranslationElicitation_eng-prolific,3.2.4,Win32,60,5dae0ea2a0e1f7001526ac22,1,0,98,8,1,97
,,,,,,,,,,,,,,,,,,,,,,,,,,,,,,,,,,,,,,,,,,,,,,,,,,,,10,botella,Spanish,Sounds/spa_botella.mp3,2020-06-04_16h58.14.846,TranslationElicitation_eng-prolific,3.2.4,Win32,60,5dae0ea2a0e1f7001526ac22,1,0,98,8,1,97
,,,,,,,,,,,,,,,,,,,,,,,,,,,,,,,,,,,,,,,,,,2.463999987,m,M,FALSE,,,,,,,39,gafas,Spanish,Sounds/spa_gafas.mp3,2020-06-04_16h58.14.846,TranslationElicitation_eng-prolific,3.2.4,Win32,60,5dae0ea2a0e1f7001526ac22,1,0,98,35,1,97
,,,,,,,,,,,,,,,,,,,,,,,,,,,,,,,,,,,,,,,,,,2.61500001,e,ME,FALSE,,,,,,,39,gafas,Spanish,Sounds/spa_gafas.mp3,2020-06-04_16h58.14.846,TranslationElicitation_eng-prolific,3.2.4,Win32,60,5dae0ea2a0e1f7001526ac22,1,0,98,35,1,97
,,,,,,,,,,,,,,,,,,,,,,,,,,,,,,,,,,,,,,,,,,2.697000027,n,MEN,FALSE,,,,,,,39,gafas,Spanish,Sounds/spa_gafas.mp3,2020-06-04_16h58.14.846,TranslationElicitation_eng-prolific,3.2.4,Win32,60,5dae0ea2a0e1f7001526ac22,1,0,98,35,1,97
,,,,,,,,,,,,,,,,,,,,,,,,,,,,,,,,,,,,,,,,,3.032999992,3.032999992,return,MEN,FALSE,,,,,,,39,gafas,Spanish,Sounds/spa_gafas.mp3,2020-06-04_16h58.14.846,TranslationElicitation_eng-prolific,3.2.4,Win32,60,5dae0ea2a0e1f7001526ac22,1,0,98,35,1,97
,,,,,,,,,,,,,,,,,,,,,,,,,,,,,,,,,,,,,,,,,,,,,,,,,,,,39,gafas,Spanish,Sounds/spa_gafas.mp3,2020-06-04_16h58.14.846,TranslationElicitation_eng-prolific,3.2.4,Win32,60,5dae0ea2a0e1f7001526ac22,1,0,98,35,1,97
,,,,,,,,,,,,,,,,,,,,,,,,,,,,,,,,,,,,,,,,,,1.884000063,b,B,FALSE,,,,,,,83,pez,Spanish,Sounds/spa_pez.mp3,2020-06-04_16h58.14.846,TranslationElicitation_eng-prolific,3.2.4,Win32,60,5dae0ea2a0e1f7001526ac22,1,0,98,78,1,97
,,,,,,,,,,,,,,,,,,,,,,,,,,,,,,,,,,,,,,,,,,1.967000008,a,BA,FALSE,,,,,,,83,pez,Spanish,Sounds/spa_pez.mp3,2020-06-04_16h58.14.846,TranslationElicitation_eng-prolific,3.2.4,Win32,60,5dae0ea2a0e1f7001526ac22,1,0,98,78,1,97
,,,,,,,,,,,,,,,,,,,,,,,,,,,,,,,,,,,,,,,,,,2.034000158,b,BAB,FALSE,,,,,,,83,pez,Spanish,Sounds/spa_pez.mp3,2020-06-04_16h58.14.846,TranslationElicitation_eng-prolific,3.2.4,Win32,60,5dae0ea2a0e1f7001526ac22,1,0,98,78,1,97
,,,,,,,,,,,,,,,,,,,,,,,,,,,,,,,,,,,,,,,,,,2.183000088,y,BABY,FALSE,,,,,,,83,pez,Spanish,Sounds/spa_pez.mp3,2020-06-04_16h58.14.846,TranslationElicitation_eng-prolific,3.2.4,Win32,60,5dae0ea2a0e1f7001526ac22,1,0,98,78,1,97
,,,,,,,,,,,,,,,,,,,,,,,,,,,,,,,,,,,,,,,,,2.51699996,2.51699996,return,BABY,FALSE,,,,,,,83,pez,Spanish,Sounds/spa_pez.mp3,2020-06-04_16h58.14.846,TranslationElicitation_eng-prolific,3.2.4,Win32,60,5dae0ea2a0e1f7001526ac22,1,0,98,78,1,97
,,,,,,,,,,,,,,,,,,,,,,,,,,,,,,,,,,,,,,,,,,,,,,,,,,,,83,pez,Spanish,Sounds/spa_pez.mp3,2020-06-04_16h58.14.846,TranslationElicitation_eng-prolific,3.2.4,Win32,60,5dae0ea2a0e1f7001526ac22,1,0,98,78,1,97
,,,,,,,,,,,,,,,,,,,,,,,,,,,,,,,,,,,,,,,,,,1.549999952,p,P,FALSE,,,,,,,87,platano,Spanish,Sounds/spa_platano.mp3,2020-06-04_16h58.14.846,TranslationElicitation_eng-prolific,3.2.4,Win32,60,5dae0ea2a0e1f7001526ac22,1,0,98,82,1,97
,,,,,,,,,,,,,,,,,,,,,,,,,,,,,,,,,,,,,,,,,,1.682999849,l,PL,FALSE,,,,,,,87,platano,Spanish,Sounds/spa_platano.mp3,2020-06-04_16h58.14.846,TranslationElicitation_eng-prolific,3.2.4,Win32,60,5dae0ea2a0e1f7001526ac22,1,0,98,82,1,97
,,,,,,,,,,,,,,,,,,,,,,,,,,,,,,,,,,,,,,,,,,1.75,a,PLA,FALSE,,,,,,,87,platano,Spanish,Sounds/spa_platano.mp3,2020-06-04_16h58.14.846,TranslationElicitation_eng-prolific,3.2.4,Win32,60,5dae0ea2a0e1f7001526ac22,1,0,98,82,1,97
,,,,,,,,,,,,,,,,,,,,,,,,,,,,,,,,,,,,,,,,,,1.866999865,t,PLAT,FALSE,,,,,,,87,platano,Spanish,Sounds/spa_platano.mp3,2020-06-04_16h58.14.846,TranslationElicitation_eng-prolific,3.2.4,Win32,60,5dae0ea2a0e1f7001526ac22,1,0,98,82,1,97
,,,,,,,,,,,,,,,,,,,,,,,,,,,,,,,,,,,,,,,,,,1.98300004,i,PLATI,FALSE,,,,,,,87,platano,Spanish,Sounds/spa_platano.mp3,2020-06-04_16h58.14.846,TranslationElicitation_eng-prolific,3.2.4,Win32,60,5dae0ea2a0e1f7001526ac22,1,0,98,82,1,97
,,,,,,,,,,,,,,,,,,,,,,,,,,,,,,,,,,,,,,,,,,2.434000015,n,PLATIN,FALSE,,,,,,,87,platano,Spanish,Sounds/spa_platano.mp3,2020-06-04_16h58.14.846,TranslationElicitation_eng-prolific,3.2.4,Win32,60,5dae0ea2a0e1f7001526ac22,1,0,98,82,1,97
,,,,,,,,,,,,,,,,,,,,,,,,,,,,,,,,,,,,,,,,,,2.601999998,u,PLATINU,FALSE,,,,,,,87,platano,Spanish,Sounds/spa_platano.mp3,2020-06-04_16h58.14.846,TranslationElicitation_eng-prolific,3.2.4,Win32,60,5dae0ea2a0e1f7001526ac22,1,0,98,82,1,97
,,,,,,,,,,,,,,,,,,,,,,,,,,,,,,,,,,,,,,,,,,2.734999895,m,PLATINUM,FALSE,,,,,,,87,platano,Spanish,Sounds/spa_platano.mp3,2020-06-04_16h58.14.846,TranslationElicitation_eng-prolific,3.2.4,Win32,60,5dae0ea2a0e1f7001526ac22,1,0,98,82,1,97
,,,,,,,,,,,,,,,,,,,,,,,,,,,,,,,,,,,,,,,,,3.059000015,3.059000015,return,PLATINUM,FALSE,,,,,,,87,platano,Spanish,Sounds/spa_platano.mp3,2020-06-04_16h58.14.846,TranslationElicitation_eng-prolific,3.2.4,Win32,60,5dae0ea2a0e1f7001526ac22,1,0,98,82,1,97
,,,,,,,,,,,,,,,,,,,,,,,,,,,,,,,,,,,,,,,,,,,,,,,,,,,,87,platano,Spanish,Sounds/spa_platano.mp3,2020-06-04_16h58.14.846,TranslationElicitation_eng-prolific,3.2.4,Win32,60,5dae0ea2a0e1f7001526ac22,1,0,98,82,1,97
,,,,,,,,,,,,,,,,,,,,,,,,,,,,,,,,,,,,,,,,,,2.064999819,s,S,FALSE,,,,,,,2,avestruz,Spanish,Sounds/spa_avestruz.mp3,2020-06-04_16h58.14.846,TranslationElicitation_eng-prolific,3.2.4,Win32,60,5dae0ea2a0e1f7001526ac22,1,0,98,0,1,97
,,,,,,,,,,,,,,,,,,,,,,,,,,,,,,,,,,,,,,,,,,2.198999882,t,ST,FALSE,,,,,,,2,avestruz,Spanish,Sounds/spa_avestruz.mp3,2020-06-04_16h58.14.846,TranslationElicitation_eng-prolific,3.2.4,Win32,60,5dae0ea2a0e1f7001526ac22,1,0,98,0,1,97
,,,,,,,,,,,,,,,,,,,,,,,,,,,,,,,,,,,,,,,,,,2.248999834,r,STR,FALSE,,,,,,,2,avestruz,Spanish,Sounds/spa_avestruz.mp3,2020-06-04_16h58.14.846,TranslationElicitation_eng-prolific,3.2.4,Win32,60,5dae0ea2a0e1f7001526ac22,1,0,98,0,1,97
,,,,,,,,,,,,,,,,,,,,,,,,,,,,,,,,,,,,,,,,,,2.332000017,u,STRU,FALSE,,,,,,,2,avestruz,Spanish,Sounds/spa_avestruz.mp3,2020-06-04_16h58.14.846,TranslationElicitation_eng-prolific,3.2.4,Win32,60,5dae0ea2a0e1f7001526ac22,1,0,98,0,1,97
,,,,,,,,,,,,,,,,,,,,,,,,,,,,,,,,,,,,,,,,,,2.431999922,d,STRUD,FALSE,,,,,,,2,avestruz,Spanish,Sounds/spa_avestruz.mp3,2020-06-04_16h58.14.846,TranslationElicitation_eng-prolific,3.2.4,Win32,60,5dae0ea2a0e1f7001526ac22,1,0,98,0,1,97
,,,,,,,,,,,,,,,,,,,,,,,,,,,,,,,,,,,,,,,,,,2.531999826,e,STRUDE,FALSE,,,,,,,2,avestruz,Spanish,Sounds/spa_avestruz.mp3,2020-06-04_16h58.14.846,TranslationElicitation_eng-prolific,3.2.4,Win32,60,5dae0ea2a0e1f7001526ac22,1,0,98,0,1,97
,,,,,,,,,,,,,,,,,,,,,,,,,,,,,,,,,,,,,,,,,,2.61500001,l,STRUDEL,FALSE,,,,,,,2,avestruz,Spanish,Sounds/spa_avestruz.mp3,2020-06-04_16h58.14.846,TranslationElicitation_eng-prolific,3.2.4,Win32,60,5dae0ea2a0e1f7001526ac22,1,0,98,0,1,97
,,,,,,,,,,,,,,,,,,,,,,,,,,,,,,,,,,,,,,,,,2.750999928,2.750999928,return,STRUDEL,FALSE,,,,,,,2,avestruz,Spanish,Sounds/spa_avestruz.mp3,2020-06-04_16h58.14.846,TranslationElicitation_eng-prolific,3.2.4,Win32,60,5dae0ea2a0e1f7001526ac22,1,0,98,0,1,97
,,,,,,,,,,,,,,,,,,,,,,,,,,,,,,,,,,,,,,,,,,,,,,,,,,,,2,avestruz,Spanish,Sounds/spa_avestruz.mp3,2020-06-04_16h58.14.846,TranslationElicitation_eng-prolific,3.2.4,Win32,60,5dae0ea2a0e1f7001526ac22,1,0,98,0,1,97
,,,,,,,,,,,,,,,,,,,,,,,,,,,,,,,,,,,,,,,,,,1.549000025,b,B,FALSE,,,,,,,6,boca,Spanish,Sounds/spa_boca.mp3,2020-06-04_16h58.14.846,TranslationElicitation_eng-prolific,3.2.4,Win32,60,5dae0ea2a0e1f7001526ac22,1,0,98,4,1,97
,,,,,,,,,,,,,,,,,,,,,,,,,,,,,,,,,,,,,,,,,,1.752000093,o,BO,FALSE,,,,,,,6,boca,Spanish,Sounds/spa_boca.mp3,2020-06-04_16h58.14.846,TranslationElicitation_eng-prolific,3.2.4,Win32,60,5dae0ea2a0e1f7001526ac22,1,0,98,4,1,97
,,,,,,,,,,,,,,,,,,,,,,,,,,,,,,,,,,,,,,,,,,1.866000175,o,BOO,FALSE,,,,,,,6,boca,Spanish,Sounds/spa_boca.mp3,2020-06-04_16h58.14.846,TranslationElicitation_eng-prolific,3.2.4,Win32,60,5dae0ea2a0e1f7001526ac22,1,0,98,4,1,97
,,,,,,,,,,,,,,,,,,,,,,,,,,,,,,,,,,,,,,,,,,2.007000208,k,BOOK,FALSE,,,,,,,6,boca,Spanish,Sounds/spa_boca.mp3,2020-06-04_16h58.14.846,TranslationElicitation_eng-prolific,3.2.4,Win32,60,5dae0ea2a0e1f7001526ac22,1,0,98,4,1,97
,,,,,,,,,,,,,,,,,,,,,,,,,,,,,,,,,,,,,,,,,2.19900012,2.19900012,return,BOOK,FALSE,,,,,,,6,boca,Spanish,Sounds/spa_boca.mp3,2020-06-04_16h58.14.846,TranslationElicitation_eng-prolific,3.2.4,Win32,60,5dae0ea2a0e1f7001526ac22,1,0,98,4,1,97
,,,,,,,,,,,,,,,,,,,,,,,,,,,,,,,,,,,,,,,,,,,,,,,,,,,,6,boca,Spanish,Sounds/spa_boca.mp3,2020-06-04_16h58.14.846,TranslationElicitation_eng-prolific,3.2.4,Win32,60,5dae0ea2a0e1f7001526ac22,1,0,98,4,1,97
,,,,,,,,,,,,,,,,,,,,,,,,,,,,,,,,,,,,,,,,,,1.232999802,l,L,FALSE,,,,,,,51,ladrillo,Spanish,Sounds/spa_ladrillo.mp3,2020-06-04_16h58.14.846,TranslationElicitation_eng-prolific,3.2.4,Win32,60,5dae0ea2a0e1f7001526ac22,1,0,98,47,1,97
,,,,,,,,,,,,,,,,,,,,,,,,,,,,,,,,,,,,,,,,,,1.381999969,i,LI,FALSE,,,,,,,51,ladrillo,Spanish,Sounds/spa_ladrillo.mp3,2020-06-04_16h58.14.846,TranslationElicitation_eng-prolific,3.2.4,Win32,60,5dae0ea2a0e1f7001526ac22,1,0,98,47,1,97
,,,,,,,,,,,,,,,,,,,,,,,,,,,,,,,,,,,,,,,,,,1.515999794,b,LIB,FALSE,,,,,,,51,ladrillo,Spanish,Sounds/spa_ladrillo.mp3,2020-06-04_16h58.14.846,TranslationElicitation_eng-prolific,3.2.4,Win32,60,5dae0ea2a0e1f7001526ac22,1,0,98,47,1,97
,,,,,,,,,,,,,,,,,,,,,,,,,,,,,,,,,,,,,,,,,,1.582999945,r,LIBR,FALSE,,,,,,,51,ladrillo,Spanish,Sounds/spa_ladrillo.mp3,2020-06-04_16h58.14.846,TranslationElicitation_eng-prolific,3.2.4,Win32,60,5dae0ea2a0e1f7001526ac22,1,0,98,47,1,97
,,,,,,,,,,,,,,,,,,,,,,,,,,,,,,,,,,,,,,,,,,1.732999802,a,LIBRA,FALSE,,,,,,,51,ladrillo,Spanish,Sounds/spa_ladrillo.mp3,2020-06-04_16h58.14.846,TranslationElicitation_eng-prolific,3.2.4,Win32,60,5dae0ea2a0e1f7001526ac22,1,0,98,47,1,97
,,,,,,,,,,,,,,,,,,,,,,,,,,,,,,,,,,,,,,,,,,1.784999847,r,LIBRAR,FALSE,,,,,,,51,ladrillo,Spanish,Sounds/spa_ladrillo.mp3,2020-06-04_16h58.14.846,TranslationElicitation_eng-prolific,3.2.4,Win32,60,5dae0ea2a0e1f7001526ac22,1,0,98,47,1,97
,,,,,,,,,,,,,,,,,,,,,,,,,,,,,,,,,,,,,,,,,,1.898999929,y,LIBRARY,FALSE,,,,,,,51,ladrillo,Spanish,Sounds/spa_ladrillo.mp3,2020-06-04_16h58.14.846,TranslationElicitation_eng-prolific,3.2.4,Win32,60,5dae0ea2a0e1f7001526ac22,1,0,98,47,1,97
,,,,,,,,,,,,,,,,,,,,,,,,,,,,,,,,,,,,,,,,,2.164999962,2.164999962,return,LIBRARY,FALSE,,,,,,,51,ladrillo,Spanish,Sounds/spa_ladrillo.mp3,2020-06-04_16h58.14.846,TranslationElicitation_eng-prolific,3.2.4,Win32,60,5dae0ea2a0e1f7001526ac22,1,0,98,47,1,97
,,,,,,,,,,,,,,,,,,,,,,,,,,,,,,,,,,,,,,,,,,,,,,,,,,,,51,ladrillo,Spanish,Sounds/spa_ladrillo.mp3,2020-06-04_16h58.14.846,TranslationElicitation_eng-prolific,3.2.4,Win32,60,5dae0ea2a0e1f7001526ac22,1,0,98,47,1,97
,,,,,,,,,,,,,,,,,,,,,,,,,,,,,,,,,,,,,,,,,,1.516000032,l,L,FALSE,,,,,,,57,loro,Spanish,Sounds/spa_loro.mp3,2020-06-04_16h58.14.846,TranslationElicitation_eng-prolific,3.2.4,Win32,60,5dae0ea2a0e1f7001526ac22,1,0,98,53,1,97
,,,,,,,,,,,,,,,,,,,,,,,,,,,,,,,,,,,,,,,,,,1.648999929,o,LO,FALSE,,,,,,,57,loro,Spanish,Sounds/spa_loro.mp3,2020-06-04_16h58.14.846,TranslationElicitation_eng-prolific,3.2.4,Win32,60,5dae0ea2a0e1f7001526ac22,1,0,98,53,1,97
,,,,,,,,,,,,,,,,,,,,,,,,,,,,,,,,,,,,,,,,,,1.715999842,r,LOR,FALSE,,,,,,,57,loro,Spanish,Sounds/spa_loro.mp3,2020-06-04_16h58.14.846,TranslationElicitation_eng-prolific,3.2.4,Win32,60,5dae0ea2a0e1f7001526ac22,1,0,98,53,1,97
,,,,,,,,,,,,,,,,,,,,,,,,,,,,,,,,,,,,,,,,,,1.865999937,d,LORD,FALSE,,,,,,,57,loro,Spanish,Sounds/spa_loro.mp3,2020-06-04_16h58.14.846,TranslationElicitation_eng-prolific,3.2.4,Win32,60,5dae0ea2a0e1f7001526ac22,1,0,98,53,1,97
,,,,,,,,,,,,,,,,,,,,,,,,,,,,,,,,,,,,,,,,,1.981999874,1.981999874,return,LORD,FALSE,,,,,,,57,loro,Spanish,Sounds/spa_loro.mp3,2020-06-04_16h58.14.846,TranslationElicitation_eng-prolific,3.2.4,Win32,60,5dae0ea2a0e1f7001526ac22,1,0,98,53,1,97
,,,,,,,,,,,,,,,,,,,,,,,,,,,,,,,,,,,,,,,,,,,,,,,,,,,,57,loro,Spanish,Sounds/spa_loro.mp3,2020-06-04_16h58.14.846,TranslationElicitation_eng-prolific,3.2.4,Win32,60,5dae0ea2a0e1f7001526ac22,1,0,98,53,1,97
,,,,,,,,,,,,,,,,,,,,,,,,,,,,,,,,,,,,,,,,,,1.567000151,b,B,FALSE,,,,,,,13,buho,Spanish,Sounds/spa_buho.mp3,2020-06-04_16h58.14.846,TranslationElicitation_eng-prolific,3.2.4,Win32,60,5dae0ea2a0e1f7001526ac22,1,0,98,11,1,97
,,,,,,,,,,,,,,,,,,,,,,,,,,,,,,,,,,,,,,,,,,1.749000072,a,BA,FALSE,,,,,,,13,buho,Spanish,Sounds/spa_buho.mp3,2020-06-04_16h58.14.846,TranslationElicitation_eng-prolific,3.2.4,Win32,60,5dae0ea2a0e1f7001526ac22,1,0,98,11,1,97
,,,,,,,,,,,,,,,,,,,,,,,,,,,,,,,,,,,,,,,,,,1.815999985,l,BAL,FALSE,,,,,,,13,buho,Spanish,Sounds/spa_buho.mp3,2020-06-04_16h58.14.846,TranslationElicitation_eng-prolific,3.2.4,Win32,60,5dae0ea2a0e1f7001526ac22,1,0,98,11,1,97
,,,,,,,,,,,,,,,,,,,,,,,,,,,,,,,,,,,,,,,,,,1.916000128,l,BALL,FALSE,,,,,,,13,buho,Spanish,Sounds/spa_buho.mp3,2020-06-04_16h58.14.846,TranslationElicitation_eng-prolific,3.2.4,Win32,60,5dae0ea2a0e1f7001526ac22,1,0,98,11,1,97
,,,,,,,,,,,,,,,,,,,,,,,,,,,,,,,,,,,,,,,,,2.032999992,2.032999992,return,BALL,FALSE,,,,,,,13,buho,Spanish,Sounds/spa_buho.mp3,2020-06-04_16h58.14.846,TranslationElicitation_eng-prolific,3.2.4,Win32,60,5dae0ea2a0e1f7001526ac22,1,0,98,11,1,97
,,,,,,,,,,,,,,,,,,,,,,,,,,,,,,,,,,,,,,,,,,,,,,,,,,,,13,buho,Spanish,Sounds/spa_buho.mp3,2020-06-04_16h58.14.846,TranslationElicitation_eng-prolific,3.2.4,Win32,60,5dae0ea2a0e1f7001526ac22,1,0,98,11,1,97
,,,,,,,,,,,,,,,,,,,,,,,,,,,,,,,,,,,,,,,,,,1.599999905,d,D,FALSE,,,,,,,92,sandwich,Spanish,Sounds/spa_sandwich.mp3,2020-06-04_16h58.14.846,TranslationElicitation_eng-prolific,3.2.4,Win32,60,5dae0ea2a0e1f7001526ac22,1,0,98,87,1,97
,,,,,,,,,,,,,,,,,,,,,,,,,,,,,,,,,,,,,,,,,,2.082999945,backspace,,TRUE,,,,,,,92,sandwich,Spanish,Sounds/spa_sandwich.mp3,2020-06-04_16h58.14.846,TranslationElicitation_eng-prolific,3.2.4,Win32,60,5dae0ea2a0e1f7001526ac22,1,0,98,87,1,97
,,,,,,,,,,,,,,,,,,,,,,,,,,,,,,,,,,,,,,,,,,2.23300004,s,S,TRUE,,,,,,,92,sandwich,Spanish,Sounds/spa_sandwich.mp3,2020-06-04_16h58.14.846,TranslationElicitation_eng-prolific,3.2.4,Win32,60,5dae0ea2a0e1f7001526ac22,1,0,98,87,1,97
,,,,,,,,,,,,,,,,,,,,,,,,,,,,,,,,,,,,,,,,,,2.299000025,a,SA,TRUE,,,,,,,92,sandwich,Spanish,Sounds/spa_sandwich.mp3,2020-06-04_16h58.14.846,TranslationElicitation_eng-prolific,3.2.4,Win32,60,5dae0ea2a0e1f7001526ac22,1,0,98,87,1,97
,,,,,,,,,,,,,,,,,,,,,,,,,,,,,,,,,,,,,,,,,,2.398999929,n,SAN,TRUE,,,,,,,92,sandwich,Spanish,Sounds/spa_sandwich.mp3,2020-06-04_16h58.14.846,TranslationElicitation_eng-prolific,3.2.4,Win32,60,5dae0ea2a0e1f7001526ac22,1,0,98,87,1,97
,,,,,,,,,,,,,,,,,,,,,,,,,,,,,,,,,,,,,,,,,,2.48300004,d,SAND,TRUE,,,,,,,92,sandwich,Spanish,Sounds/spa_sandwich.mp3,2020-06-04_16h58.14.846,TranslationElicitation_eng-prolific,3.2.4,Win32,60,5dae0ea2a0e1f7001526ac22,1,0,98,87,1,97
,,,,,,,,,,,,,,,,,,,,,,,,,,,,,,,,,,,,,,,,,,2.898999929,w,SANDW,TRUE,,,,,,,92,sandwich,Spanish,Sounds/spa_sandwich.mp3,2020-06-04_16h58.14.846,TranslationElicitation_eng-prolific,3.2.4,Win32,60,5dae0ea2a0e1f7001526ac22,1,0,98,87,1,97
,,,,,,,,,,,,,,,,,,,,,,,,,,,,,,,,,,,,,,,,,,2.999000072,i,SANDWI,TRUE,,,,,,,92,sandwich,Spanish,Sounds/spa_sandwich.mp3,2020-06-04_16h58.14.846,TranslationElicitation_eng-prolific,3.2.4,Win32,60,5dae0ea2a0e1f7001526ac22,1,0,98,87,1,97
,,,,,,,,,,,,,,,,,,,,,,,,,,,,,,,,,,,,,,,,,,3.131999969,c,SANDWIC,TRUE,,,,,,,92,sandwich,Spanish,Sounds/spa_sandwich.mp3,2020-06-04_16h58.14.846,TranslationElicitation_eng-prolific,3.2.4,Win32,60,5dae0ea2a0e1f7001526ac22,1,0,98,87,1,97
,,,,,,,,,,,,,,,,,,,,,,,,,,,,,,,,,,,,,,,,,,3.181999922,h,SANDWICH,TRUE,,,,,,,92,sandwich,Spanish,Sounds/spa_sandwich.mp3,2020-06-04_16h58.14.846,TranslationElicitation_eng-prolific,3.2.4,Win32,60,5dae0ea2a0e1f7001526ac22,1,0,98,87,1,97
,,,,,,,,,,,,,,,,,,,,,,,,,,,,,,,,,,,,,,,,,3.41899991,3.41899991,return,SANDWICH,TRUE,,,,,,,92,sandwich,Spanish,Sounds/spa_sandwich.mp3,2020-06-04_16h58.14.846,TranslationElicitation_eng-prolific,3.2.4,Win32,60,5dae0ea2a0e1f7001526ac22,1,0,98,87,1,97
,,,,,,,,,,,,,,,,,,,,,,,,,,,,,,,,,,,,,,,,,,,,,,,,,,,,92,sandwich,Spanish,Sounds/spa_sandwich.mp3,2020-06-04_16h58.14.846,TranslationElicitation_eng-prolific,3.2.4,Win32,60,5dae0ea2a0e1f7001526ac22,1,0,98,87,1,97
,,,,,,,,,,,,,,,,,,,,,,,,,,,,,,,,,,,,,,,,,,3.180000067,l,L,FALSE,,,,,,,5,bici,Spanish,Sounds/spa_bici.mp3,2020-06-04_16h58.14.846,TranslationElicitation_eng-prolific,3.2.4,Win32,60,5dae0ea2a0e1f7001526ac22,1,0,98,3,1,97
,,,,,,,,,,,,,,,,,,,,,,,,,,,,,,,,,,,,,,,,,,3.264000177,e,LE,FALSE,,,,,,,5,bici,Spanish,Sounds/spa_bici.mp3,2020-06-04_16h58.14.846,TranslationElicitation_eng-prolific,3.2.4,Win32,60,5dae0ea2a0e1f7001526ac22,1,0,98,3,1,97
,,,,,,,,,,,,,,,,,,,,,,,,,,,,,,,,,,,,,,,,,,3.34800005,t,LET,FALSE,,,,,,,5,bici,Spanish,Sounds/spa_bici.mp3,2020-06-04_16h58.14.846,TranslationElicitation_eng-prolific,3.2.4,Win32,60,5dae0ea2a0e1f7001526ac22,1,0,98,3,1,97
,,,,,,,,,,,,,,,,,,,,,,,,,,,,,,,,,,,,,,,,,,3.467000008,t,LETT,FALSE,,,,,,,5,bici,Spanish,Sounds/spa_bici.mp3,2020-06-04_16h58.14.846,TranslationElicitation_eng-prolific,3.2.4,Win32,60,5dae0ea2a0e1f7001526ac22,1,0,98,3,1,97
,,,,,,,,,,,,,,,,,,,,,,,,,,,,,,,,,,,,,,,,,,3.580000162,e,LETTE,FALSE,,,,,,,5,bici,Spanish,Sounds/spa_bici.mp3,2020-06-04_16h58.14.846,TranslationElicitation_eng-prolific,3.2.4,Win32,60,5dae0ea2a0e1f7001526ac22,1,0,98,3,1,97
,,,,,,,,,,,,,,,,,,,,,,,,,,,,,,,,,,,,,,,,,,3.664000034,r,LETTER,FALSE,,,,,,,5,bici,Spanish,Sounds/spa_bici.mp3,2020-06-04_16h58.14.846,TranslationElicitation_eng-prolific,3.2.4,Win32,60,5dae0ea2a0e1f7001526ac22,1,0,98,3,1,97
,,,,,,,,,,,,,,,,,,,,,,,,,,,,,,,,,,,,,,,,,3.782000065,3.782000065,return,LETTER,FALSE,,,,,,,5,bici,Spanish,Sounds/spa_bici.mp3,2020-06-04_16h58.14.846,TranslationElicitation_eng-prolific,3.2.4,Win32,60,5dae0ea2a0e1f7001526ac22,1,0,98,3,1,97
,,,,,,,,,,,,,,,,,,,,,,,,,,,,,,,,,,,,,,,,,,,,,,,,,,,,5,bici,Spanish,Sounds/spa_bici.mp3,2020-06-04_16h58.14.846,TranslationElicitation_eng-prolific,3.2.4,Win32,60,5dae0ea2a0e1f7001526ac22,1,0,98,3,1,97
,,,,,,,,,,,,,,,,,,,,,,,,,,,,,,,,,,,,,,,,,,1.282000065,a,A,FALSE,,,,,,,17,calcetin,Spanish,Sounds/spa_calcetin.mp3,2020-06-04_16h58.14.846,TranslationElicitation_eng-prolific,3.2.4,Win32,60,5dae0ea2a0e1f7001526ac22,1,0,98,15,1,97
,,,,,,,,,,,,,,,,,,,,,,,,,,,,,,,,,,,,,,,,,,1.881000042,backspace,,TRUE,,,,,,,17,calcetin,Spanish,Sounds/spa_calcetin.mp3,2020-06-04_16h58.14.846,TranslationElicitation_eng-prolific,3.2.4,Win32,60,5dae0ea2a0e1f7001526ac22,1,0,98,15,1,97
,,,,,,,,,,,,,,,,,,,,,,,,,,,,,,,,,,,,,,,,,,1.997999907,c,C,TRUE,,,,,,,17,calcetin,Spanish,Sounds/spa_calcetin.mp3,2020-06-04_16h58.14.846,TranslationElicitation_eng-prolific,3.2.4,Win32,60,5dae0ea2a0e1f7001526ac22,1,0,98,15,1,97
,,,,,,,,,,,,,,,,,,,,,,,,,,,,,,,,,,,,,,,,,,2.114000082,a,CA,TRUE,,,,,,,17,calcetin,Spanish,Sounds/spa_calcetin.mp3,2020-06-04_16h58.14.846,TranslationElicitation_eng-prolific,3.2.4,Win32,60,5dae0ea2a0e1f7001526ac22,1,0,98,15,1,97
,,,,,,,,,,,,,,,,,,,,,,,,,,,,,,,,,,,,,,,,,,2.213999987,f,CAF,TRUE,,,,,,,17,calcetin,Spanish,Sounds/spa_calcetin.mp3,2020-06-04_16h58.14.846,TranslationElicitation_eng-prolific,3.2.4,Win32,60,5dae0ea2a0e1f7001526ac22,1,0,98,15,1,97
,,,,,,,,,,,,,,,,,,,,,,,,,,,,,,,,,,,,,,,,,,2.297999859,e,CAFE,TRUE,,,,,,,17,calcetin,Spanish,Sounds/spa_calcetin.mp3,2020-06-04_16h58.14.846,TranslationElicitation_eng-prolific,3.2.4,Win32,60,5dae0ea2a0e1f7001526ac22,1,0,98,15,1,97
