consentKey.keys,consentKey.rt,languageL1Key.keys,languageL1Key.rt,languageL2,languageL2OralKey.keys,languageL2OralKey.rt,languageL2WrittenKey.keys,languageL2WrittenKey.rt,languageL3,languageL3OralKey.keys,languageL3OralKey.rt,languageL3WrittenKey.keys,languageL3WrittenKey.rt,languageCatalanOralKey.keys,languageCatalanOralKey.rt,languageCatalanWrittenKey.keys,languageCatalanWrittenKey.rt,languageCatalanTimeKey.keys,languageCatalanTimeKey.rt,languageSpanishOralKey.keys,languageSpanishOralKey.rt,languageSpanishWrittenKey.keys,languageSpanishWrittenKey.rt,languageSpanishTimeKey.keys,languageSpanishTimeKey.rt,age,demoSexKey.keys,demoSexKey.rt,demoEducationKey.keys,demoEducationKey.rt,city,demoVisionKey.keys,demoVisionKey.rt,demoLanguageKey.keys,demoLanguageKey.rt,setupLocationKey.keys,setupLocationKey.rt,setupNoiseKey.keys,setupNoiseKey.rt,instructionsKeys.keys,instructionsKeys.rt,keyPressed,keyPressTime,inputText,error,trialsPracticeSpanish.thisRepN,trialsPracticeSpanish.thisTrialN,trialsPracticeSpanish.thisN,trialsPracticeSpanish.thisIndex,trialsPracticeSpanish.ran,trialsPracticeSpanish.order,trial_id,word,test_language,soundfile,date,expName,psychopyVersion,OS,frameRate,participant,trialOffset,trialsSpanish.thisRepN,trialsSpanish.thisTrialN,trialsSpanish.thisN,trialsSpanish.thisIndex,trialsSpanish.ran,trialsSpanish.order
space,0.584000111,e,1.437000036, NO,1,1.355999947,1,4.78399992,NO,1,3.898999929,1,1.348999739,1,1.313999891,1,1.062999964,1,1.5,1,5.944999933,1,0.760999918,1,0.803999901,20,f,1.119999886,4,3.230000019,PORTSMOUTH,y,1.830999851,n,1.214999914,1,1.885999918,2,1.020999908,space,0.879999876,b,3.365999937,B,FALSE,1,0,5,0,1,4,1,arbol,Spanish,Sounds/spa_arbol.mp3,2020-06-04_18h38.16.523,TranslationElicitation_eng-prolific,3.2.4,MacIntel,60,5dd693492b033b61545beaee,,,,,,,
,,,,,,,,,,,,,,,,,,,,,,,,,,,,,,,,,,,,,,,,,,a,3.717999935,BA,FALSE,1,0,5,0,1,4,1,arbol,Spanish,Sounds/spa_arbol.mp3,2020-06-04_18h38.16.523,TranslationElicitation_eng-prolific,3.2.4,MacIntel,60,5dd693492b033b61545beaee,,,,,,,
,,,,,,,,,,,,,,,,,,,,,,,,,,,,,,,,,,,,,,,,,,l,3.866999865,BAL,FALSE,1,0,5,0,1,4,1,arbol,Spanish,Sounds/spa_arbol.mp3,2020-06-04_18h38.16.523,TranslationElicitation_eng-prolific,3.2.4,MacIntel,60,5dd693492b033b61545beaee,,,,,,,
,,,,,,,,,,,,,,,,,,,,,,,,,,,,,,,,,,,,,,,,,,l,4.016000032,BALL,FALSE,1,0,5,0,1,4,1,arbol,Spanish,Sounds/spa_arbol.mp3,2020-06-04_18h38.16.523,TranslationElicitation_eng-prolific,3.2.4,MacIntel,60,5dd693492b033b61545beaee,,,,,,,
,,,,,,,,,,,,,,,,,,,,,,,,,,,,,,,,,,,,,,,,,,return,4.149999857,BALL,FALSE,1,0,5,0,1,4,1,arbol,Spanish,Sounds/spa_arbol.mp3,2020-06-04_18h38.16.523,TranslationElicitation_eng-prolific,3.2.4,MacIntel,60,5dd693492b033b61545beaee,4.149999857,,,,,,
,,,,,,,,,,,,,,,,,,,,,,,,,,,,,,,,,,,,,,,,,,,,,,1,0,5,0,1,4,1,arbol,Spanish,Sounds/spa_arbol.mp3,2020-06-04_18h38.16.523,TranslationElicitation_eng-prolific,3.2.4,MacIntel,60,5dd693492b033b61545beaee,,,,,,,
,,,,,,,,,,,,,,,,,,,,,,,,,,,,,,,,,,,,,,,,,,o,1.567000151,O,FALSE,1,0,5,1,1,4,30,corona,Spanish,Sounds/spa_corona.mp3,2020-06-04_18h38.16.523,TranslationElicitation_eng-prolific,3.2.4,MacIntel,60,5dd693492b033b61545beaee,,,,,,,
,,,,,,,,,,,,,,,,,,,,,,,,,,,,,,,,,,,,,,,,,,r,1.651000023,OR,FALSE,1,0,5,1,1,4,30,corona,Spanish,Sounds/spa_corona.mp3,2020-06-04_18h38.16.523,TranslationElicitation_eng-prolific,3.2.4,MacIntel,60,5dd693492b033b61545beaee,,,,,,,
,,,,,,,,,,,,,,,,,,,,,,,,,,,,,,,,,,,,,,,,,,backspace,2.601000071,O,TRUE,1,0,5,1,1,4,30,corona,Spanish,Sounds/spa_corona.mp3,2020-06-04_18h38.16.523,TranslationElicitation_eng-prolific,3.2.4,MacIntel,60,5dd693492b033b61545beaee,,,,,,,
,,,,,,,,,,,,,,,,,,,,,,,,,,,,,,,,,,,,,,,,,,backspace,2.75,,TRUE,1,0,5,1,1,4,30,corona,Spanish,Sounds/spa_corona.mp3,2020-06-04_18h38.16.523,TranslationElicitation_eng-prolific,3.2.4,MacIntel,60,5dd693492b033b61545beaee,,,,,,,
,,,,,,,,,,,,,,,,,,,,,,,,,,,,,,,,,,,,,,,,,,c,2.900000095,C,TRUE,1,0,5,1,1,4,30,corona,Spanish,Sounds/spa_corona.mp3,2020-06-04_18h38.16.523,TranslationElicitation_eng-prolific,3.2.4,MacIntel,60,5dd693492b033b61545beaee,,,,,,,
,,,,,,,,,,,,,,,,,,,,,,,,,,,,,,,,,,,,,,,,,,o,2.968000174,CO,TRUE,1,0,5,1,1,4,30,corona,Spanish,Sounds/spa_corona.mp3,2020-06-04_18h38.16.523,TranslationElicitation_eng-prolific,3.2.4,MacIntel,60,5dd693492b033b61545beaee,,,,,,,
,,,,,,,,,,,,,,,,,,,,,,,,,,,,,,,,,,,,,,,,,,o,3.201000214,COO,TRUE,1,0,5,1,1,4,30,corona,Spanish,Sounds/spa_corona.mp3,2020-06-04_18h38.16.523,TranslationElicitation_eng-prolific,3.2.4,MacIntel,60,5dd693492b033b61545beaee,,,,,,,
,,,,,,,,,,,,,,,,,,,,,,,,,,,,,,,,,,,,,,,,,,n,3.383000135,COON,TRUE,1,0,5,1,1,4,30,corona,Spanish,Sounds/spa_corona.mp3,2020-06-04_18h38.16.523,TranslationElicitation_eng-prolific,3.2.4,MacIntel,60,5dd693492b033b61545beaee,,,,,,,
,,,,,,,,,,,,,,,,,,,,,,,,,,,,,,,,,,,,,,,,,,backspace,3.651000023,COO,TRUE,1,0,5,1,1,4,30,corona,Spanish,Sounds/spa_corona.mp3,2020-06-04_18h38.16.523,TranslationElicitation_eng-prolific,3.2.4,MacIntel,60,5dd693492b033b61545beaee,,,,,,,
,,,,,,,,,,,,,,,,,,,,,,,,,,,,,,,,,,,,,,,,,,backspace,3.800000191,CO,TRUE,1,0,5,1,1,4,30,corona,Spanish,Sounds/spa_corona.mp3,2020-06-04_18h38.16.523,TranslationElicitation_eng-prolific,3.2.4,MacIntel,60,5dd693492b033b61545beaee,,,,,,,
,,,,,,,,,,,,,,,,,,,,,,,,,,,,,,,,,,,,,,,,,,r,3.950000048,COR,TRUE,1,0,5,1,1,4,30,corona,Spanish,Sounds/spa_corona.mp3,2020-06-04_18h38.16.523,TranslationElicitation_eng-prolific,3.2.4,MacIntel,60,5dd693492b033b61545beaee,,,,,,,
,,,,,,,,,,,,,,,,,,,,,,,,,,,,,,,,,,,,,,,,,,o,4.050000191,CORO,TRUE,1,0,5,1,1,4,30,corona,Spanish,Sounds/spa_corona.mp3,2020-06-04_18h38.16.523,TranslationElicitation_eng-prolific,3.2.4,MacIntel,60,5dd693492b033b61545beaee,,,,,,,
,,,,,,,,,,,,,,,,,,,,,,,,,,,,,,,,,,,,,,,,,,n,4.218000174,CORON,TRUE,1,0,5,1,1,4,30,corona,Spanish,Sounds/spa_corona.mp3,2020-06-04_18h38.16.523,TranslationElicitation_eng-prolific,3.2.4,MacIntel,60,5dd693492b033b61545beaee,,,,,,,
,,,,,,,,,,,,,,,,,,,,,,,,,,,,,,,,,,,,,,,,,,a,4.301000118,CORONA,TRUE,1,0,5,1,1,4,30,corona,Spanish,Sounds/spa_corona.mp3,2020-06-04_18h38.16.523,TranslationElicitation_eng-prolific,3.2.4,MacIntel,60,5dd693492b033b61545beaee,,,,,,,
,,,,,,,,,,,,,,,,,,,,,,,,,,,,,,,,,,,,,,,,,,return,4.751000166,CORONA,TRUE,1,0,5,1,1,4,30,corona,Spanish,Sounds/spa_corona.mp3,2020-06-04_18h38.16.523,TranslationElicitation_eng-prolific,3.2.4,MacIntel,60,5dd693492b033b61545beaee,4.751000166,,,,,,
,,,,,,,,,,,,,,,,,,,,,,,,,,,,,,,,,,,,,,,,,,,,,,1,0,5,1,1,4,30,corona,Spanish,Sounds/spa_corona.mp3,2020-06-04_18h38.16.523,TranslationElicitation_eng-prolific,3.2.4,MacIntel,60,5dd693492b033b61545beaee,,,,,,,
,,,,,,,,,,,,,,,,,,,,,,,,,,,,,,,,,,,,,,,,,,i,1.599999905,I,FALSE,1,0,5,4,1,4,96,tigre,Spanish,Sounds/spa_tigre.mp3,2020-06-04_18h38.16.523,TranslationElicitation_eng-prolific,3.2.4,MacIntel,60,5dd693492b033b61545beaee,,,,,,,
,,,,,,,,,,,,,,,,,,,,,,,,,,,,,,,,,,,,,,,,,,backspace,1.983999968,,TRUE,1,0,5,4,1,4,96,tigre,Spanish,Sounds/spa_tigre.mp3,2020-06-04_18h38.16.523,TranslationElicitation_eng-prolific,3.2.4,MacIntel,60,5dd693492b033b61545beaee,,,,,,,
,,,,,,,,,,,,,,,,,,,,,,,,,,,,,,,,,,,,,,,,,,backspace,2.115999937,,TRUE,1,0,5,4,1,4,96,tigre,Spanish,Sounds/spa_tigre.mp3,2020-06-04_18h38.16.523,TranslationElicitation_eng-prolific,3.2.4,MacIntel,60,5dd693492b033b61545beaee,,,,,,,
,,,,,,,,,,,,,,,,,,,,,,,,,,,,,,,,,,,,,,,,,,e,2.200999975,E,TRUE,1,0,5,4,1,4,96,tigre,Spanish,Sounds/spa_tigre.mp3,2020-06-04_18h38.16.523,TranslationElicitation_eng-prolific,3.2.4,MacIntel,60,5dd693492b033b61545beaee,,,,,,,
,,,,,,,,,,,,,,,,,,,,,,,,,,,,,,,,,,,,,,,,,,n,2.415999889,EN,TRUE,1,0,5,4,1,4,96,tigre,Spanish,Sounds/spa_tigre.mp3,2020-06-04_18h38.16.523,TranslationElicitation_eng-prolific,3.2.4,MacIntel,60,5dd693492b033b61545beaee,,,,,,,
,,,,,,,,,,,,,,,,,,,,,,,,,,,,,,,,,,,,,,,,,,g,3.03399992,ENG,TRUE,1,0,5,4,1,4,96,tigre,Spanish,Sounds/spa_tigre.mp3,2020-06-04_18h38.16.523,TranslationElicitation_eng-prolific,3.2.4,MacIntel,60,5dd693492b033b61545beaee,,,,,,,
,,,,,,,,,,,,,,,,,,,,,,,,,,,,,,,,,,,,,,,,,,l,3.184999943,ENGL,TRUE,1,0,5,4,1,4,96,tigre,Spanish,Sounds/spa_tigre.mp3,2020-06-04_18h38.16.523,TranslationElicitation_eng-prolific,3.2.4,MacIntel,60,5dd693492b033b61545beaee,,,,,,,
,,,,,,,,,,,,,,,,,,,,,,,,,,,,,,,,,,,,,,,,,,a,3.250999928,ENGLA,TRUE,1,0,5,4,1,4,96,tigre,Spanish,Sounds/spa_tigre.mp3,2020-06-04_18h38.16.523,TranslationElicitation_eng-prolific,3.2.4,MacIntel,60,5dd693492b033b61545beaee,,,,,,,
,,,,,,,,,,,,,,,,,,,,,,,,,,,,,,,,,,,,,,,,,,n,3.349999905,ENGLAN,TRUE,1,0,5,4,1,4,96,tigre,Spanish,Sounds/spa_tigre.mp3,2020-06-04_18h38.16.523,TranslationElicitation_eng-prolific,3.2.4,MacIntel,60,5dd693492b033b61545beaee,,,,,,,
,,,,,,,,,,,,,,,,,,,,,,,,,,,,,,,,,,,,,,,,,,d,3.417999983,ENGLAND,TRUE,1,0,5,4,1,4,96,tigre,Spanish,Sounds/spa_tigre.mp3,2020-06-04_18h38.16.523,TranslationElicitation_eng-prolific,3.2.4,MacIntel,60,5dd693492b033b61545beaee,,,,,,,
,,,,,,,,,,,,,,,,,,,,,,,,,,,,,,,,,,,,,,,,,,return,3.585999966,ENGLAND,TRUE,1,0,5,4,1,4,96,tigre,Spanish,Sounds/spa_tigre.mp3,2020-06-04_18h38.16.523,TranslationElicitation_eng-prolific,3.2.4,MacIntel,60,5dd693492b033b61545beaee,3.585999966,,,,,,
,,,,,,,,,,,,,,,,,,,,,,,,,,,,,,,,,,,,,,,,,,,,,,1,0,5,4,1,4,96,tigre,Spanish,Sounds/spa_tigre.mp3,2020-06-04_18h38.16.523,TranslationElicitation_eng-prolific,3.2.4,MacIntel,60,5dd693492b033b61545beaee,,,,,,,
,,,,,,,,,,,,,,,,,,,,,,,,,,,,,,,,,,,,,,,,,,h,1.648000002,H,FALSE,1,0,5,3,1,4,70,ola,Spanish,Sounds/spa_ola.mp3,2020-06-04_18h38.16.523,TranslationElicitation_eng-prolific,3.2.4,MacIntel,60,5dd693492b033b61545beaee,,,,,,,
,,,,,,,,,,,,,,,,,,,,,,,,,,,,,,,,,,,,,,,,,,e,1.982999802,HE,FALSE,1,0,5,3,1,4,70,ola,Spanish,Sounds/spa_ola.mp3,2020-06-04_18h38.16.523,TranslationElicitation_eng-prolific,3.2.4,MacIntel,60,5dd693492b033b61545beaee,,,,,,,
,,,,,,,,,,,,,,,,,,,,,,,,,,,,,,,,,,,,,,,,,,l,2.031999826,HEL,FALSE,1,0,5,3,1,4,70,ola,Spanish,Sounds/spa_ola.mp3,2020-06-04_18h38.16.523,TranslationElicitation_eng-prolific,3.2.4,MacIntel,60,5dd693492b033b61545beaee,,,,,,,
,,,,,,,,,,,,,,,,,,,,,,,,,,,,,,,,,,,,,,,,,,l,2.181999922,HELL,FALSE,1,0,5,3,1,4,70,ola,Spanish,Sounds/spa_ola.mp3,2020-06-04_18h38.16.523,TranslationElicitation_eng-prolific,3.2.4,MacIntel,60,5dd693492b033b61545beaee,,,,,,,
,,,,,,,,,,,,,,,,,,,,,,,,,,,,,,,,,,,,,,,,,,o,2.315999985,HELLO,FALSE,1,0,5,3,1,4,70,ola,Spanish,Sounds/spa_ola.mp3,2020-06-04_18h38.16.523,TranslationElicitation_eng-prolific,3.2.4,MacIntel,60,5dd693492b033b61545beaee,,,,,,,
,,,,,,,,,,,,,,,,,,,,,,,,,,,,,,,,,,,,,,,,,,return,2.431999922,HELLO,FALSE,1,0,5,3,1,4,70,ola,Spanish,Sounds/spa_ola.mp3,2020-06-04_18h38.16.523,TranslationElicitation_eng-prolific,3.2.4,MacIntel,60,5dd693492b033b61545beaee,2.431999922,,,,,,
,,,,,,,,,,,,,,,,,,,,,,,,,,,,,,,,,,,,,,,,,,,,,,1,0,5,3,1,4,70,ola,Spanish,Sounds/spa_ola.mp3,2020-06-04_18h38.16.523,TranslationElicitation_eng-prolific,3.2.4,MacIntel,60,5dd693492b033b61545beaee,,,,,,,
,,,,,,,,,,,,,,,,,,,,,,,,,,,,,,,,,,,,,,,,,,j,1.184000015,J,FALSE,1,0,5,2,1,4,26,chaqueta,Spanish,Sounds/spa_chaqueta.mp3,2020-06-04_18h38.16.523,TranslationElicitation_eng-prolific,3.2.4,MacIntel,60,5dd693492b033b61545beaee,,,,,,,
,,,,,,,,,,,,,,,,,,,,,,,,,,,,,,,,,,,,,,,,,,a,1.249000072,JA,FALSE,1,0,5,2,1,4,26,chaqueta,Spanish,Sounds/spa_chaqueta.mp3,2020-06-04_18h38.16.523,TranslationElicitation_eng-prolific,3.2.4,MacIntel,60,5dd693492b033b61545beaee,,,,,,,
,,,,,,,,,,,,,,,,,,,,,,,,,,,,,,,,,,,,,,,,,,c,1.46600008,JAC,FALSE,1,0,5,2,1,4,26,chaqueta,Spanish,Sounds/spa_chaqueta.mp3,2020-06-04_18h38.16.523,TranslationElicitation_eng-prolific,3.2.4,MacIntel,60,5dd693492b033b61545beaee,,,,,,,
,,,,,,,,,,,,,,,,,,,,,,,,,,,,,,,,,,,,,,,,,,k,1.584000111,JACK,FALSE,1,0,5,2,1,4,26,chaqueta,Spanish,Sounds/spa_chaqueta.mp3,2020-06-04_18h38.16.523,TranslationElicitation_eng-prolific,3.2.4,MacIntel,60,5dd693492b033b61545beaee,,,,,,,
,,,,,,,,,,,,,,,,,,,,,,,,,,,,,,,,,,,,,,,,,,e,1.782999992,JACKE,FALSE,1,0,5,2,1,4,26,chaqueta,Spanish,Sounds/spa_chaqueta.mp3,2020-06-04_18h38.16.523,TranslationElicitation_eng-prolific,3.2.4,MacIntel,60,5dd693492b033b61545beaee,,,,,,,
,,,,,,,,,,,,,,,,,,,,,,,,,,,,,,,,,,,,,,,,,,t,1.982000113,JACKET,FALSE,1,0,5,2,1,4,26,chaqueta,Spanish,Sounds/spa_chaqueta.mp3,2020-06-04_18h38.16.523,TranslationElicitation_eng-prolific,3.2.4,MacIntel,60,5dd693492b033b61545beaee,,,,,,,
,,,,,,,,,,,,,,,,,,,,,,,,,,,,,,,,,,,,,,,,,,return,2.148999929,JACKET,FALSE,1,0,5,2,1,4,26,chaqueta,Spanish,Sounds/spa_chaqueta.mp3,2020-06-04_18h38.16.523,TranslationElicitation_eng-prolific,3.2.4,MacIntel,60,5dd693492b033b61545beaee,2.148999929,,,,,,
,,,,,,,,,,,,,,,,,,,,,,,,,,,,,,,,,,,,,,,,,,,,,,1,0,5,2,1,4,26,chaqueta,Spanish,Sounds/spa_chaqueta.mp3,2020-06-04_18h38.16.523,TranslationElicitation_eng-prolific,3.2.4,MacIntel,60,5dd693492b033b61545beaee,,,,,,,
,,,,,,,,,,,,,,,,,,,,,,,,,,,,,,,,,,,,,,,,,,b,1.98300004,B,FALSE,,,,,,,20,caracol,Spanish,Sounds/spa_caracol.mp3,2020-06-04_18h38.16.523,TranslationElicitation_eng-prolific,3.2.4,MacIntel,60,5dd693492b033b61545beaee,,1,0,98,18,1,97
,,,,,,,,,,,,,,,,,,,,,,,,,,,,,,,,,,,,,,,,,,a,2.065000057,BA,FALSE,,,,,,,20,caracol,Spanish,Sounds/spa_caracol.mp3,2020-06-04_18h38.16.523,TranslationElicitation_eng-prolific,3.2.4,MacIntel,60,5dd693492b033b61545beaee,,1,0,98,18,1,97
,,,,,,,,,,,,,,,,,,,,,,,,,,,,,,,,,,,,,,,,,,k,2.200000048,BAK,FALSE,,,,,,,20,caracol,Spanish,Sounds/spa_caracol.mp3,2020-06-04_18h38.16.523,TranslationElicitation_eng-prolific,3.2.4,MacIntel,60,5dd693492b033b61545beaee,,1,0,98,18,1,97
,,,,,,,,,,,,,,,,,,,,,,,,,,,,,,,,,,,,,,,,,,backspace,2.666000128,BA,TRUE,,,,,,,20,caracol,Spanish,Sounds/spa_caracol.mp3,2020-06-04_18h38.16.523,TranslationElicitation_eng-prolific,3.2.4,MacIntel,60,5dd693492b033b61545beaee,,1,0,98,18,1,97
,,,,,,,,,,,,,,,,,,,,,,,,,,,,,,,,,,,,,,,,,,l,2.98300004,BAL,TRUE,,,,,,,20,caracol,Spanish,Sounds/spa_caracol.mp3,2020-06-04_18h38.16.523,TranslationElicitation_eng-prolific,3.2.4,MacIntel,60,5dd693492b033b61545beaee,,1,0,98,18,1,97
,,,,,,,,,,,,,,,,,,,,,,,,,,,,,,,,,,,,,,,,,,l,3.133000135,BALL,TRUE,,,,,,,20,caracol,Spanish,Sounds/spa_caracol.mp3,2020-06-04_18h38.16.523,TranslationElicitation_eng-prolific,3.2.4,MacIntel,60,5dd693492b033b61545beaee,,1,0,98,18,1,97
,,,,,,,,,,,,,,,,,,,,,,,,,,,,,,,,,,,,,,,,,,return,3.299000025,BALL,TRUE,,,,,,,20,caracol,Spanish,Sounds/spa_caracol.mp3,2020-06-04_18h38.16.523,TranslationElicitation_eng-prolific,3.2.4,MacIntel,60,5dd693492b033b61545beaee,3.299000025,1,0,98,18,1,97
,,,,,,,,,,,,,,,,,,,,,,,,,,,,,,,,,,,,,,,,,,,,,,,,,,,,20,caracol,Spanish,Sounds/spa_caracol.mp3,2020-06-04_18h38.16.523,TranslationElicitation_eng-prolific,3.2.4,MacIntel,60,5dd693492b033b61545beaee,,1,0,98,18,1,97
,,,,,,,,,,,,,,,,,,,,,,,,,,,,,,,,,,,,,,,,,,c,5.138000011,C,FALSE,,,,,,,103,zanahoria,Spanish,Sounds/spa_zanahoria.mp3,2020-06-04_18h38.16.523,TranslationElicitation_eng-prolific,3.2.4,MacIntel,60,5dd693492b033b61545beaee,,1,0,98,97,1,97
,,,,,,,,,,,,,,,,,,,,,,,,,,,,,,,,,,,,,,,,,,o,5.256000042,CO,FALSE,,,,,,,103,zanahoria,Spanish,Sounds/spa_zanahoria.mp3,2020-06-04_18h38.16.523,TranslationElicitation_eng-prolific,3.2.4,MacIntel,60,5dd693492b033b61545beaee,,1,0,98,97,1,97
,,,,,,,,,,,,,,,,,,,,,,,,,,,,,,,,,,,,,,,,,,r,5.340000153,COR,FALSE,,,,,,,103,zanahoria,Spanish,Sounds/spa_zanahoria.mp3,2020-06-04_18h38.16.523,TranslationElicitation_eng-prolific,3.2.4,MacIntel,60,5dd693492b033b61545beaee,,1,0,98,97,1,97
,,,,,,,,,,,,,,,,,,,,,,,,,,,,,,,,,,,,,,,,,,o,5.455000162,CORO,FALSE,,,,,,,103,zanahoria,Spanish,Sounds/spa_zanahoria.mp3,2020-06-04_18h38.16.523,TranslationElicitation_eng-prolific,3.2.4,MacIntel,60,5dd693492b033b61545beaee,,1,0,98,97,1,97
,,,,,,,,,,,,,,,,,,,,,,,,,,,,,,,,,,,,,,,,,,n,5.588999987,CORON,FALSE,,,,,,,103,zanahoria,Spanish,Sounds/spa_zanahoria.mp3,2020-06-04_18h38.16.523,TranslationElicitation_eng-prolific,3.2.4,MacIntel,60,5dd693492b033b61545beaee,,1,0,98,97,1,97
,,,,,,,,,,,,,,,,,,,,,,,,,,,,,,,,,,,,,,,,,,a,5.703999996,CORONA,FALSE,,,,,,,103,zanahoria,Spanish,Sounds/spa_zanahoria.mp3,2020-06-04_18h38.16.523,TranslationElicitation_eng-prolific,3.2.4,MacIntel,60,5dd693492b033b61545beaee,,1,0,98,97,1,97
,,,,,,,,,,,,,,,,,,,,,,,,,,,,,,,,,,,,,,,,,,return,5.838999987,CORONA,FALSE,,,,,,,103,zanahoria,Spanish,Sounds/spa_zanahoria.mp3,2020-06-04_18h38.16.523,TranslationElicitation_eng-prolific,3.2.4,MacIntel,60,5dd693492b033b61545beaee,5.838999987,1,0,98,97,1,97
,,,,,,,,,,,,,,,,,,,,,,,,,,,,,,,,,,,,,,,,,,,,,,,,,,,,103,zanahoria,Spanish,Sounds/spa_zanahoria.mp3,2020-06-04_18h38.16.523,TranslationElicitation_eng-prolific,3.2.4,MacIntel,60,5dd693492b033b61545beaee,,1,0,98,97,1,97
,,,,,,,,,,,,,,,,,,,,,,,,,,,,,,,,,,,,,,,,,,l,2.963000059,L,FALSE,,,,,,,57,loro,Spanish,Sounds/spa_loro.mp3,2020-06-04_18h38.16.523,TranslationElicitation_eng-prolific,3.2.4,MacIntel,60,5dd693492b033b61545beaee,,1,0,98,53,1,97
,,,,,,,,,,,,,,,,,,,,,,,,,,,,,,,,,,,,,,,,,,a,3.078000069,LA,FALSE,,,,,,,57,loro,Spanish,Sounds/spa_loro.mp3,2020-06-04_18h38.16.523,TranslationElicitation_eng-prolific,3.2.4,MacIntel,60,5dd693492b033b61545beaee,,1,0,98,53,1,97
,,,,,,,,,,,,,,,,,,,,,,,,,,,,,,,,,,,,,,,,,,w,3.210999966,LAW,FALSE,,,,,,,57,loro,Spanish,Sounds/spa_loro.mp3,2020-06-04_18h38.16.523,TranslationElicitation_eng-prolific,3.2.4,MacIntel,60,5dd693492b033b61545beaee,,1,0,98,53,1,97
,,,,,,,,,,,,,,,,,,,,,,,,,,,,,,,,,,,,,,,,,,n,4.092999935,LAWN,FALSE,,,,,,,57,loro,Spanish,Sounds/spa_loro.mp3,2020-06-04_18h38.16.523,TranslationElicitation_eng-prolific,3.2.4,MacIntel,60,5dd693492b033b61545beaee,,1,0,98,53,1,97
,,,,,,,,,,,,,,,,,,,,,,,,,,,,,,,,,,,,,,,,,,n,4.292999983,LAWNN,FALSE,,,,,,,57,loro,Spanish,Sounds/spa_loro.mp3,2020-06-04_18h38.16.523,TranslationElicitation_eng-prolific,3.2.4,MacIntel,60,5dd693492b033b61545beaee,,1,0,98,53,1,97
,,,,,,,,,,,,,,,,,,,,,,,,,,,,,,,,,,,,,,,,,,backspace,4.608999968,LAWN,TRUE,,,,,,,57,loro,Spanish,Sounds/spa_loro.mp3,2020-06-04_18h38.16.523,TranslationElicitation_eng-prolific,3.2.4,MacIntel,60,5dd693492b033b61545beaee,,1,0,98,53,1,97
,,,,,,,,,,,,,,,,,,,,,,,,,,,,,,,,,,,,,,,,,,return,4.858999968,LAWN,TRUE,,,,,,,57,loro,Spanish,Sounds/spa_loro.mp3,2020-06-04_18h38.16.523,TranslationElicitation_eng-prolific,3.2.4,MacIntel,60,5dd693492b033b61545beaee,4.858999968,1,0,98,53,1,97
,,,,,,,,,,,,,,,,,,,,,,,,,,,,,,,,,,,,,,,,,,,,,,,,,,,,57,loro,Spanish,Sounds/spa_loro.mp3,2020-06-04_18h38.16.523,TranslationElicitation_eng-prolific,3.2.4,MacIntel,60,5dd693492b033b61545beaee,,1,0,98,53,1,97
,,,,,,,,,,,,,,,,,,,,,,,,,,,,,,,,,,,,,,,,,,l,1.294999838,L,FALSE,,,,,,,89,pluma,Spanish,Sounds/spa_pluma.mp3,2020-06-04_18h38.16.523,TranslationElicitation_eng-prolific,3.2.4,MacIntel,60,5dd693492b033b61545beaee,,1,0,98,84,1,97
,,,,,,,,,,,,,,,,,,,,,,,,,,,,,,,,,,,,,,,,,,backspace,1.911999941,,TRUE,,,,,,,89,pluma,Spanish,Sounds/spa_pluma.mp3,2020-06-04_18h38.16.523,TranslationElicitation_eng-prolific,3.2.4,MacIntel,60,5dd693492b033b61545beaee,,1,0,98,84,1,97
,,,,,,,,,,,,,,,,,,,,,,,,,,,,,,,,,,,,,,,,,,l,2.111999989,L,TRUE,,,,,,,89,pluma,Spanish,Sounds/spa_pluma.mp3,2020-06-04_18h38.16.523,TranslationElicitation_eng-prolific,3.2.4,MacIntel,60,5dd693492b033b61545beaee,,1,0,98,84,1,97
,,,,,,,,,,,,,,,,,,,,,,,,,,,,,,,,,,,,,,,,,,backspace,2.376999855,,TRUE,,,,,,,89,pluma,Spanish,Sounds/spa_pluma.mp3,2020-06-04_18h38.16.523,TranslationElicitation_eng-prolific,3.2.4,MacIntel,60,5dd693492b033b61545beaee,,1,0,98,84,1,97
,,,,,,,,,,,,,,,,,,,,,,,,,,,,,,,,,,,,,,,,,,b,2.82799983,B,TRUE,,,,,,,89,pluma,Spanish,Sounds/spa_pluma.mp3,2020-06-04_18h38.16.523,TranslationElicitation_eng-prolific,3.2.4,MacIntel,60,5dd693492b033b61545beaee,,1,0,98,84,1,97
,,,,,,,,,,,,,,,,,,,,,,,,,,,,,,,,,,,,,,,,,,backspace,3.144999981,,TRUE,,,,,,,89,pluma,Spanish,Sounds/spa_pluma.mp3,2020-06-04_18h38.16.523,TranslationElicitation_eng-prolific,3.2.4,MacIntel,60,5dd693492b033b61545beaee,,1,0,98,84,1,97
,,,,,,,,,,,,,,,,,,,,,,,,,,,,,,,,,,,,,,,,,,backspace,3.31099987,,TRUE,,,,,,,89,pluma,Spanish,Sounds/spa_pluma.mp3,2020-06-04_18h38.16.523,TranslationElicitation_eng-prolific,3.2.4,MacIntel,60,5dd693492b033b61545beaee,,1,0,98,84,1,97
,,,,,,,,,,,,,,,,,,,,,,,,,,,,,,,,,,,,,,,,,,b,4.241999865,B,TRUE,,,,,,,89,pluma,Spanish,Sounds/spa_pluma.mp3,2020-06-04_18h38.16.523,TranslationElicitation_eng-prolific,3.2.4,MacIntel,60,5dd693492b033b61545beaee,,1,0,98,84,1,97
,,,,,,,,,,,,,,,,,,,,,,,,,,,,,,,,,,,,,,,,,,l,4.625999928,BL,TRUE,,,,,,,89,pluma,Spanish,Sounds/spa_pluma.mp3,2020-06-04_18h38.16.523,TranslationElicitation_eng-prolific,3.2.4,MacIntel,60,5dd693492b033b61545beaee,,1,0,98,84,1,97
,,,,,,,,,,,,,,,,,,,,,,,,,,,,,,,,,,,,,,,,,,backspace,5.242999792,B,TRUE,,,,,,,89,pluma,Spanish,Sounds/spa_pluma.mp3,2020-06-04_18h38.16.523,TranslationElicitation_eng-prolific,3.2.4,MacIntel,60,5dd693492b033b61545beaee,,1,0,98,84,1,97
,,,,,,,,,,,,,,,,,,,,,,,,,,,,,,,,,,,,,,,,,,backspace,5.407999992,,TRUE,,,,,,,89,pluma,Spanish,Sounds/spa_pluma.mp3,2020-06-04_18h38.16.523,TranslationElicitation_eng-prolific,3.2.4,MacIntel,60,5dd693492b033b61545beaee,,1,0,98,84,1,97
,,,,,,,,,,,,,,,,,,,,,,,,,,,,,,,,,,,,,,,,,,b,5.673999786,B,TRUE,,,,,,,89,pluma,Spanish,Sounds/spa_pluma.mp3,2020-06-04_18h38.16.523,TranslationElicitation_eng-prolific,3.2.4,MacIntel,60,5dd693492b033b61545beaee,,1,0,98,84,1,97
,,,,,,,,,,,,,,,,,,,,,,,,,,,,,,,,,,,,,,,,,,l,5.873999834,BL,TRUE,,,,,,,89,pluma,Spanish,Sounds/spa_pluma.mp3,2020-06-04_18h38.16.523,TranslationElicitation_eng-prolific,3.2.4,MacIntel,60,5dd693492b033b61545beaee,,1,0,98,84,1,97
,,,,,,,,,,,,,,,,,,,,,,,,,,,,,,,,,,,,,,,,,,backspace,6.040999889,B,TRUE,,,,,,,89,pluma,Spanish,Sounds/spa_pluma.mp3,2020-06-04_18h38.16.523,TranslationElicitation_eng-prolific,3.2.4,MacIntel,60,5dd693492b033b61545beaee,,1,0,98,84,1,97
,,,,,,,,,,,,,,,,,,,,,,,,,,,,,,,,,,,,,,,,,,backspace,6.207999945,,TRUE,,,,,,,89,pluma,Spanish,Sounds/spa_pluma.mp3,2020-06-04_18h38.16.523,TranslationElicitation_eng-prolific,3.2.4,MacIntel,60,5dd693492b033b61545beaee,,1,0,98,84,1,97
,,,,,,,,,,,,,,,,,,,,,,,,,,,,,,,,,,,,,,,,,,b,6.339999914,B,TRUE,,,,,,,89,pluma,Spanish,Sounds/spa_pluma.mp3,2020-06-04_18h38.16.523,TranslationElicitation_eng-prolific,3.2.4,MacIntel,60,5dd693492b033b61545beaee,,1,0,98,84,1,97
,,,,,,,,,,,,,,,,,,,,,,,,,,,,,,,,,,,,,,,,,,l,6.673999786,BL,TRUE,,,,,,,89,pluma,Spanish,Sounds/spa_pluma.mp3,2020-06-04_18h38.16.523,TranslationElicitation_eng-prolific,3.2.4,MacIntel,60,5dd693492b033b61545beaee,,1,0,98,84,1,97
,,,,,,,,,,,,,,,,,,,,,,,,,,,,,,,,,,,,,,,,,,o,6.875,BLO,TRUE,,,,,,,89,pluma,Spanish,Sounds/spa_pluma.mp3,2020-06-04_18h38.16.523,TranslationElicitation_eng-prolific,3.2.4,MacIntel,60,5dd693492b033b61545beaee,,1,0,98,84,1,97
,,,,,,,,,,,,,,,,,,,,,,,,,,,,,,,,,,,,,,,,,,o,7.023999929,BLOO,TRUE,,,,,,,89,pluma,Spanish,Sounds/spa_pluma.mp3,2020-06-04_18h38.16.523,TranslationElicitation_eng-prolific,3.2.4,MacIntel,60,5dd693492b033b61545beaee,,1,0,98,84,1,97
,,,,,,,,,,,,,,,,,,,,,,,,,,,,,,,,,,,,,,,,,,backspace,7.273000002,BLO,TRUE,,,,,,,89,pluma,Spanish,Sounds/spa_pluma.mp3,2020-06-04_18h38.16.523,TranslationElicitation_eng-prolific,3.2.4,MacIntel,60,5dd693492b033b61545beaee,,1,0,98,84,1,97
,,,,,,,,,,,,,,,,,,,,,,,,,,,,,,,,,,,,,,,,,,backspace,7.439999819,BL,TRUE,,,,,,,89,pluma,Spanish,Sounds/spa_pluma.mp3,2020-06-04_18h38.16.523,TranslationElicitation_eng-prolific,3.2.4,MacIntel,60,5dd693492b033b61545beaee,,1,0,98,84,1,97
,,,,,,,,,,,,,,,,,,,,,,,,,,,,,,,,,,,,,,,,,,backspace,7.572999954,B,TRUE,,,,,,,89,pluma,Spanish,Sounds/spa_pluma.mp3,2020-06-04_18h38.16.523,TranslationElicitation_eng-prolific,3.2.4,MacIntel,60,5dd693492b033b61545beaee,,1,0,98,84,1,97
,,,,,,,,,,,,,,,,,,,,,,,,,,,,,,,,,,,,,,,,,,backspace,9.454999924,,TRUE,,,,,,,89,pluma,Spanish,Sounds/spa_pluma.mp3,2020-06-04_18h38.16.523,TranslationElicitation_eng-prolific,3.2.4,MacIntel,60,5dd693492b033b61545beaee,,1,0,98,84,1,97
,,,,,,,,,,,,,,,,,,,,,,,,,,,,,,,,,,,,,,,,,,g,9.571999788,G,TRUE,,,,,,,89,pluma,Spanish,Sounds/spa_pluma.mp3,2020-06-04_18h38.16.523,TranslationElicitation_eng-prolific,3.2.4,MacIntel,60,5dd693492b033b61545beaee,,1,0,98,84,1,97
,,,,,,,,,,,,,,,,,,,,,,,,,,,,,,,,,,,,,,,,,,l,9.687999964,GL,TRUE,,,,,,,89,pluma,Spanish,Sounds/spa_pluma.mp3,2020-06-04_18h38.16.523,TranslationElicitation_eng-prolific,3.2.4,MacIntel,60,5dd693492b033b61545beaee,,1,0,98,84,1,97
,,,,,,,,,,,,,,,,,,,,,,,,,,,,,,,,,,,,,,,,,,o,9.838999987,GLO,TRUE,,,,,,,89,pluma,Spanish,Sounds/spa_pluma.mp3,2020-06-04_18h38.16.523,TranslationElicitation_eng-prolific,3.2.4,MacIntel,60,5dd693492b033b61545beaee,,1,0,98,84,1,97
,,,,,,,,,,,,,,,,,,,,,,,,,,,,,,,,,,,,,,,,,,w,9.970999956,GLOW,TRUE,,,,,,,89,pluma,Spanish,Sounds/spa_pluma.mp3,2020-06-04_18h38.16.523,TranslationElicitation_eng-prolific,3.2.4,MacIntel,60,5dd693492b033b61545beaee,,1,0,98,84,1,97
,,,,,,,,,,,,,,,,,,,,,,,,,,,,,,,,,,,,,,,,,,backspace,10.08699989,GLO,TRUE,,,,,,,89,pluma,Spanish,Sounds/spa_pluma.mp3,2020-06-04_18h38.16.523,TranslationElicitation_eng-prolific,3.2.4,MacIntel,60,5dd693492b033b61545beaee,,1,0,98,84,1,97
,,,,,,,,,,,,,,,,,,,,,,,,,,,,,,,,,,,,,,,,,,backspace,10.22099996,GL,TRUE,,,,,,,89,pluma,Spanish,Sounds/spa_pluma.mp3,2020-06-04_18h38.16.523,TranslationElicitation_eng-prolific,3.2.4,MacIntel,60,5dd693492b033b61545beaee,,1,0,98,84,1,97
,,,,,,,,,,,,,,,,,,,,,,,,,,,,,,,,,,,,,,,,,,backspace,10.35500002,G,TRUE,,,,,,,89,pluma,Spanish,Sounds/spa_pluma.mp3,2020-06-04_18h38.16.523,TranslationElicitation_eng-prolific,3.2.4,MacIntel,60,5dd693492b033b61545beaee,,1,0,98,84,1,97
,,,,,,,,,,,,,,,,,,,,,,,,,,,,,,,,,,,,,,,,,,backspace,10.48699999,,TRUE,,,,,,,89,pluma,Spanish,Sounds/spa_pluma.mp3,2020-06-04_18h38.16.523,TranslationElicitation_eng-prolific,3.2.4,MacIntel,60,5dd693492b033b61545beaee,,1,0,98,84,1,97
,,,,,,,,,,,,,,,,,,,,,,,,,,,,,,,,,,,,,,,,,,f,10.65399981,F,TRUE,,,,,,,89,pluma,Spanish,Sounds/spa_pluma.mp3,2020-06-04_18h38.16.523,TranslationElicitation_eng-prolific,3.2.4,MacIntel,60,5dd693492b033b61545beaee,,1,0,98,84,1,97
,,,,,,,,,,,,,,,,,,,,,,,,,,,,,,,,,,,,,,,,,,l,10.75399995,FL,TRUE,,,,,,,89,pluma,Spanish,Sounds/spa_pluma.mp3,2020-06-04_18h38.16.523,TranslationElicitation_eng-prolific,3.2.4,MacIntel,60,5dd693492b033b61545beaee,,1,0,98,84,1,97
,,,,,,,,,,,,,,,,,,,,,,,,,,,,,,,,,,,,,,,,,,o,10.90399981,FLO,TRUE,,,,,,,89,pluma,Spanish,Sounds/spa_pluma.mp3,2020-06-04_18h38.16.523,TranslationElicitation_eng-prolific,3.2.4,MacIntel,60,5dd693492b033b61545beaee,,1,0,98,84,1,97
,,,,,,,,,,,,,,,,,,,,,,,,,,,,,,,,,,,,,,,,,,w,10.98699999,FLOW,TRUE,,,,,,,89,pluma,Spanish,Sounds/spa_pluma.mp3,2020-06-04_18h38.16.523,TranslationElicitation_eng-prolific,3.2.4,MacIntel,60,5dd693492b033b61545beaee,,1,0,98,84,1,97
,,,,,,,,,,,,,,,,,,,,,,,,,,,,,,,,,,,,,,,,,,e,11.07099986,FLOWE,TRUE,,,,,,,89,pluma,Spanish,Sounds/spa_pluma.mp3,2020-06-04_18h38.16.523,TranslationElicitation_eng-prolific,3.2.4,MacIntel,60,5dd693492b033b61545beaee,,1,0,98,84,1,97
,,,,,,,,,,,,,,,,,,,,,,,,,,,,,,,,,,,,,,,,,,r,11.25299978,FLOWER,TRUE,,,,,,,89,pluma,Spanish,Sounds/spa_pluma.mp3,2020-06-04_18h38.16.523,TranslationElicitation_eng-prolific,3.2.4,MacIntel,60,5dd693492b033b61545beaee,,1,0,98,84,1,97
,,,,,,,,,,,,,,,,,,,,,,,,,,,,,,,,,,,,,,,,,,return,11.50499988,FLOWER,TRUE,,,,,,,89,pluma,Spanish,Sounds/spa_pluma.mp3,2020-06-04_18h38.16.523,TranslationElicitation_eng-prolific,3.2.4,MacIntel,60,5dd693492b033b61545beaee,11.50499988,1,0,98,84,1,97
,,,,,,,,,,,,,,,,,,,,,,,,,,,,,,,,,,,,,,,,,,,,,,,,,,,,89,pluma,Spanish,Sounds/spa_pluma.mp3,2020-06-04_18h38.16.523,TranslationElicitation_eng-prolific,3.2.4,MacIntel,60,5dd693492b033b61545beaee,,1,0,98,84,1,97
,,,,,,,,,,,,,,,,,,,,,,,,,,,,,,,,,,,,,,,,,,f,2.264999866,F,FALSE,,,,,,,37,flor,Spanish,Sounds/spa_flor.mp3,2020-06-04_18h38.16.523,TranslationElicitation_eng-prolific,3.2.4,MacIntel,60,5dd693492b033b61545beaee,,1,0,98,33,1,97
,,,,,,,,,,,,,,,,,,,,,,,,,,,,,,,,,,,,,,,,,,l,2.381999969,FL,FALSE,,,,,,,37,flor,Spanish,Sounds/spa_flor.mp3,2020-06-04_18h38.16.523,TranslationElicitation_eng-prolific,3.2.4,MacIntel,60,5dd693492b033b61545beaee,,1,0,98,33,1,97
,,,,,,,,,,,,,,,,,,,,,,,,,,,,,,,,,,,,,,,,,,o,2.532000065,FLO,FALSE,,,,,,,37,flor,Spanish,Sounds/spa_flor.mp3,2020-06-04_18h38.16.523,TranslationElicitation_eng-prolific,3.2.4,MacIntel,60,5dd693492b033b61545beaee,,1,0,98,33,1,97
,,,,,,,,,,,,,,,,,,,,,,,,,,,,,,,,,,,,,,,,,,o,2.631000042,FLOO,FALSE,,,,,,,37,flor,Spanish,Sounds/spa_flor.mp3,2020-06-04_18h38.16.523,TranslationElicitation_eng-prolific,3.2.4,MacIntel,60,5dd693492b033b61545beaee,,1,0,98,33,1,97
,,,,,,,,,,,,,,,,,,,,,,,,,,,,,,,,,,,,,,,,,,r,2.731999874,FLOOR,FALSE,,,,,,,37,flor,Spanish,Sounds/spa_flor.mp3,2020-06-04_18h38.16.523,TranslationElicitation_eng-prolific,3.2.4,MacIntel,60,5dd693492b033b61545beaee,,1,0,98,33,1,97
,,,,,,,,,,,,,,,,,,,,,,,,,,,,,,,,,,,,,,,,,,return,3.230000019,FLOOR,FALSE,,,,,,,37,flor,Spanish,Sounds/spa_flor.mp3,2020-06-04_18h38.16.523,TranslationElicitation_eng-prolific,3.2.4,MacIntel,60,5dd693492b033b61545beaee,3.230000019,1,0,98,33,1,97
,,,,,,,,,,,,,,,,,,,,,,,,,,,,,,,,,,,,,,,,,,,,,,,,,,,,37,flor,Spanish,Sounds/spa_flor.mp3,2020-06-04_18h38.16.523,TranslationElicitation_eng-prolific,3.2.4,MacIntel,60,5dd693492b033b61545beaee,,1,0,98,33,1,97
,,,,,,,,,,,,,,,,,,,,,,,,,,,,,,,,,,,,,,,,,,return,6.164999962,,FALSE,,,,,,,7,bocadillo,Spanish,Sounds/spa_bocadillo.mp3,2020-06-04_18h38.16.523,TranslationElicitation_eng-prolific,3.2.4,MacIntel,60,5dd693492b033b61545beaee,6.164999962,1,0,98,5,1,97
,,,,,,,,,,,,,,,,,,,,,,,,,,,,,,,,,,,,,,,,,,,,,,,,,,,,7,bocadillo,Spanish,Sounds/spa_bocadillo.mp3,2020-06-04_18h38.16.523,TranslationElicitation_eng-prolific,3.2.4,MacIntel,60,5dd693492b033b61545beaee,,1,0,98,5,1,97
,,,,,,,,,,,,,,,,,,,,,,,,,,,,,,,,,,,,,,,,,,m,7.981999874,M,FALSE,,,,,,,32,cuchara,Spanish,Sounds/spa_cuchara.mp3,2020-06-04_18h38.16.523,TranslationElicitation_eng-prolific,3.2.4,MacIntel,60,5dd693492b033b61545beaee,,1,0,98,28,1,97
,,,,,,,,,,,,,,,,,,,,,,,,,,,,,,,,,,,,,,,,,,s,8.197999954,MS,FALSE,,,,,,,32,cuchara,Spanish,Sounds/spa_cuchara.mp3,2020-06-04_18h38.16.523,TranslationElicitation_eng-prolific,3.2.4,MacIntel,60,5dd693492b033b61545beaee,,1,0,98,28,1,97
,,,,,,,,,,,,,,,,,,,,,,,,,,,,,,,,,,,,,,,,,,s,8.398999929,MSS,FALSE,,,,,,,32,cuchara,Spanish,Sounds/spa_cuchara.mp3,2020-06-04_18h38.16.523,TranslationElicitation_eng-prolific,3.2.4,MacIntel,60,5dd693492b033b61545beaee,,1,0,98,28,1,97
,,,,,,,,,,,,,,,,,,,,,,,,,,,,,,,,,,,,,,,,,,backspace,8.532000065,MS,TRUE,,,,,,,32,cuchara,Spanish,Sounds/spa_cuchara.mp3,2020-06-04_18h38.16.523,TranslationElicitation_eng-prolific,3.2.4,MacIntel,60,5dd693492b033b61545beaee,,1,0,98,28,1,97
,,,,,,,,,,,,,,,,,,,,,,,,,,,,,,,,,,,,,,,,,,backspace,8.700000048,M,TRUE,,,,,,,32,cuchara,Spanish,Sounds/spa_cuchara.mp3,2020-06-04_18h38.16.523,TranslationElicitation_eng-prolific,3.2.4,MacIntel,60,5dd693492b033b61545beaee,,1,0,98,28,1,97
,,,,,,,,,,,,,,,,,,,,,,,,,,,,,,,,,,,,,,,,,,backspace,8.848999977,,TRUE,,,,,,,32,cuchara,Spanish,Sounds/spa_cuchara.mp3,2020-06-04_18h38.16.523,TranslationElicitation_eng-prolific,3.2.4,MacIntel,60,5dd693492b033b61545beaee,,1,0,98,28,1,97
,,,,,,,,,,,,,,,,,,,,,,,,,,,,,,,,,,,,,,,,,,m,9.366999865,M,TRUE,,,,,,,32,cuchara,Spanish,Sounds/spa_cuchara.mp3,2020-06-04_18h38.16.523,TranslationElicitation_eng-prolific,3.2.4,MacIntel,60,5dd693492b033b61545beaee,,1,0,98,28,1,97
,,,,,,,,,,,,,,,,,,,,,,,,,,,,,,,,,,,,,,,,,,u,9.882999897,MU,TRUE,,,,,,,32,cuchara,Spanish,Sounds/spa_cuchara.mp3,2020-06-04_18h38.16.523,TranslationElicitation_eng-prolific,3.2.4,MacIntel,60,5dd693492b033b61545beaee,,1,0,98,28,1,97
,,,,,,,,,,,,,,,,,,,,,,,,,,,,,,,,,,,,,,,,,,s,10.04999995,MUS,TRUE,,,,,,,32,cuchara,Spanish,Sounds/spa_cuchara.mp3,2020-06-04_18h38.16.523,TranslationElicitation_eng-prolific,3.2.4,MacIntel,60,5dd693492b033b61545beaee,,1,0,98,28,1,97
,,,,,,,,,,,,,,,,,,,,,,,,,,,,,,,,,,,,,,,,,,h,10.14899993,MUSH,TRUE,,,,,,,32,cuchara,Spanish,Sounds/spa_cuchara.mp3,2020-06-04_18h38.16.523,TranslationElicitation_eng-prolific,3.2.4,MacIntel,60,5dd693492b033b61545beaee,,1,0,98,28,1,97
,,,,,,,,,,,,,,,,,,,,,,,,,,,,,,,,,,,,,,,,,,backspace,10.61500001,MUS,TRUE,,,,,,,32,cuchara,Spanish,Sounds/spa_cuchara.mp3,2020-06-04_18h38.16.523,TranslationElicitation_eng-prolific,3.2.4,MacIntel,60,5dd693492b033b61545beaee,,1,0,98,28,1,97
,,,,,,,,,,,,,,,,,,,,,,,,,,,,,,,,,,,,,,,,,,backspace,10.74900007,MU,TRUE,,,,,,,32,cuchara,Spanish,Sounds/spa_cuchara.mp3,2020-06-04_18h38.16.523,TranslationElicitation_eng-prolific,3.2.4,MacIntel,60,5dd693492b033b61545beaee,,1,0,98,28,1,97
,,,,,,,,,,,,,,,,,,,,,,,,,,,,,,,,,,,,,,,,,,backspace,10.88199997,M,TRUE,,,,,,,32,cuchara,Spanish,Sounds/spa_cuchara.mp3,2020-06-04_18h38.16.523,TranslationElicitation_eng-prolific,3.2.4,MacIntel,60,5dd693492b033b61545beaee,,1,0,98,28,1,97
,,,,,,,,,,,,,,,,,,,,,,,,,,,,,,,,,,,,,,,,,,backspace,11.01600003,,TRUE,,,,,,,32,cuchara,Spanish,Sounds/spa_cuchara.mp3,2020-06-04_18h38.16.523,TranslationElicitation_eng-prolific,3.2.4,MacIntel,60,5dd693492b033b61545beaee,,1,0,98,28,1,97
,,,,,,,,,,,,,,,,,,,,,,,,,,,,,,,,,,,,,,,,,,c,13.43300009,C,TRUE,,,,,,,32,cuchara,Spanish,Sounds/spa_cuchara.mp3,2020-06-04_18h38.16.523,TranslationElicitation_eng-prolific,3.2.4,MacIntel,60,5dd693492b033b61545beaee,,1,0,98,28,1,97
,,,,,,,,,,,,,,,,,,,,,,,,,,,,,,,,,,,,,,,,,,h,13.59899998,CH,TRUE,,,,,,,32,cuchara,Spanish,Sounds/spa_cuchara.mp3,2020-06-04_18h38.16.523,TranslationElicitation_eng-prolific,3.2.4,MacIntel,60,5dd693492b033b61545beaee,,1,0,98,28,1,97
,,,,,,,,,,,,,,,,,,,,,,,,,,,,,,,,,,,,,,,,,,e,13.68199992,CHE,TRUE,,,,,,,32,cuchara,Spanish,Sounds/spa_cuchara.mp3,2020-06-04_18h38.16.523,TranslationElicitation_eng-prolific,3.2.4,MacIntel,60,5dd693492b033b61545beaee,,1,0,98,28,1,97
,,,,,,,,,,,,,,,,,,,,,,,,,,,,,,,,,,,,,,,,,,e,13.83299994,CHEE,TRUE,,,,,,,32,cuchara,Spanish,Sounds/spa_cuchara.mp3,2020-06-04_18h38.16.523,TranslationElicitation_eng-prolific,3.2.4,MacIntel,60,5dd693492b033b61545beaee,,1,0,98,28,1,97
,,,,,,,,,,,,,,,,,,,,,,,,,,,,,,,,,,,,,,,,,,a,14.01499987,CHEEA,TRUE,,,,,,,32,cuchara,Spanish,Sounds/spa_cuchara.mp3,2020-06-04_18h38.16.523,TranslationElicitation_eng-prolific,3.2.4,MacIntel,60,5dd693492b033b61545beaee,,1,0,98,28,1,97
,,,,,,,,,,,,,,,,,,,,,,,,,,,,,,,,,,,,,,,,,,e,14.18199992,CHEEAE,TRUE,,,,,,,32,cuchara,Spanish,Sounds/spa_cuchara.mp3,2020-06-04_18h38.16.523,TranslationElicitation_eng-prolific,3.2.4,MacIntel,60,5dd693492b033b61545beaee,,1,0,98,28,1,97
,,,,,,,,,,,,,,,,,,,,,,,,,,,,,,,,,,,,,,,,,,backspace,14.39999986,CHEEA,TRUE,,,,,,,32,cuchara,Spanish,Sounds/spa_cuchara.mp3,2020-06-04_18h38.16.523,TranslationElicitation_eng-prolific,3.2.4,MacIntel,60,5dd693492b033b61545beaee,,1,0,98,28,1,97
,,,,,,,,,,,,,,,,,,,,,,,,,,,,,,,,,,,,,,,,,,backspace,14.54999995,CHEE,TRUE,,,,,,,32,cuchara,Spanish,Sounds/spa_cuchara.mp3,2020-06-04_18h38.16.523,TranslationElicitation_eng-prolific,3.2.4,MacIntel,60,5dd693492b033b61545beaee,,1,0,98,28,1,97
,,,,,,,,,,,,,,,,,,,,,,,,,,,,,,,,,,,,,,,,,,s,14.64899993,CHEES,TRUE,,,,,,,32,cuchara,Spanish,Sounds/spa_cuchara.mp3,2020-06-04_18h38.16.523,TranslationElicitation_eng-prolific,3.2.4,MacIntel,60,5dd693492b033b61545beaee,,1,0,98,28,1,97
,,,,,,,,,,,,,,,,,,,,,,,,,,,,,,,,,,,,,,,,,,e,14.84800005,CHEESE,TRUE,,,,,,,32,cuchara,Spanish,Sounds/spa_cuchara.mp3,2020-06-04_18h38.16.523,TranslationElicitation_eng-prolific,3.2.4,MacIntel,60,5dd693492b033b61545beaee,,1,0,98,28,1,97
,,,,,,,,,,,,,,,,,,,,,,,,,,,,,,,,,,,,,,,,,,return,15.51600003,CHEESE,TRUE,,,,,,,32,cuchara,Spanish,Sounds/spa_cuchara.mp3,2020-06-04_18h38.16.523,TranslationElicitation_eng-prolific,3.2.4,MacIntel,60,5dd693492b033b61545beaee,15.51600003,1,0,98,28,1,97
,,,,,,,,,,,,,,,,,,,,,,,,,,,,,,,,,,,,,,,,,,,,,,,,,,,,32,cuchara,Spanish,Sounds/spa_cuchara.mp3,2020-06-04_18h38.16.523,TranslationElicitation_eng-prolific,3.2.4,MacIntel,60,5dd693492b033b61545beaee,,1,0,98,28,1,97
,,,,,,,,,,,,,,,,,,,,,,,,,,,,,,,,,,,,,,,,,,m,3.251000166,M,FALSE,,,,,,,59,mano,Spanish,Sounds/spa_mano.mp3,2020-06-04_18h38.16.523,TranslationElicitation_eng-prolific,3.2.4,MacIntel,60,5dd693492b033b61545beaee,,1,0,98,55,1,97
,,,,,,,,,,,,,,,,,,,,,,,,,,,,,,,,,,,,,,,,,,a,3.300000191,MA,FALSE,,,,,,,59,mano,Spanish,Sounds/spa_mano.mp3,2020-06-04_18h38.16.523,TranslationElicitation_eng-prolific,3.2.4,MacIntel,60,5dd693492b033b61545beaee,,1,0,98,55,1,97
,,,,,,,,,,,,,,,,,,,,,,,,,,,,,,,,,,,,,,,,,,n,3.401000023,MAN,FALSE,,,,,,,59,mano,Spanish,Sounds/spa_mano.mp3,2020-06-04_18h38.16.523,TranslationElicitation_eng-prolific,3.2.4,MacIntel,60,5dd693492b033b61545beaee,,1,0,98,55,1,97
,,,,,,,,,,,,,,,,,,,,,,,,,,,,,,,,,,,,,,,,,,return,6.867000103,MAN,FALSE,,,,,,,59,mano,Spanish,Sounds/spa_mano.mp3,2020-06-04_18h38.16.523,TranslationElicitation_eng-prolific,3.2.4,MacIntel,60,5dd693492b033b61545beaee,6.867000103,1,0,98,55,1,97
,,,,,,,,,,,,,,,,,,,,,,,,,,,,,,,,,,,,,,,,,,,,,,,,,,,,59,mano,Spanish,Sounds/spa_mano.mp3,2020-06-04_18h38.16.523,TranslationElicitation_eng-prolific,3.2.4,MacIntel,60,5dd693492b033b61545beaee,,1,0,98,55,1,97
,,,,,,,,,,,,,,,,,,,,,,,,,,,,,,,,,,,,,,,,,,b,3.680999994,B,FALSE,,,,,,,3,barco,Spanish,Sounds/spa_barco.mp3,2020-06-04_18h38.16.523,TranslationElicitation_eng-prolific,3.2.4,MacIntel,60,5dd693492b033b61545beaee,,1,0,98,1,1,97
,,,,,,,,,,,,,,,,,,,,,,,,,,,,,,,,,,,,,,,,,,a,3.731999874,BA,FALSE,,,,,,,3,barco,Spanish,Sounds/spa_barco.mp3,2020-06-04_18h38.16.523,TranslationElicitation_eng-prolific,3.2.4,MacIntel,60,5dd693492b033b61545beaee,,1,0,98,1,1,97
,,,,,,,,,,,,,,,,,,,,,,,,,,,,,,,,,,,,,,,,,,r,3.898000002,BAR,FALSE,,,,,,,3,barco,Spanish,Sounds/spa_barco.mp3,2020-06-04_18h38.16.523,TranslationElicitation_eng-prolific,3.2.4,MacIntel,60,5dd693492b033b61545beaee,,1,0,98,1,1,97
,,,,,,,,,,,,,,,,,,,,,,,,,,,,,,,,,,,,,,,,,,c,4.082000017,BARC,FALSE,,,,,,,3,barco,Spanish,Sounds/spa_barco.mp3,2020-06-04_18h38.16.523,TranslationElicitation_eng-prolific,3.2.4,MacIntel,60,5dd693492b033b61545beaee,,1,0,98,1,1,97
,,,,,,,,,,,,,,,,,,,,,,,,,,,,,,,,,,,,,,,,,,o,4.198999882,BARCO,FALSE,,,,,,,3,barco,Spanish,Sounds/spa_barco.mp3,2020-06-04_18h38.16.523,TranslationElicitation_eng-prolific,3.2.4,MacIntel,60,5dd693492b033b61545beaee,,1,0,98,1,1,97
,,,,,,,,,,,,,,,,,,,,,,,,,,,,,,,,,,,,,,,,,,d,4.332999945,BARCOD,FALSE,,,,,,,3,barco,Spanish,Sounds/spa_barco.mp3,2020-06-04_18h38.16.523,TranslationElicitation_eng-prolific,3.2.4,MacIntel,60,5dd693492b033b61545beaee,,1,0,98,1,1,97
,,,,,,,,,,,,,,,,,,,,,,,,,,,,,,,,,,,,,,,,,,e,4.532999992,BARCODE,FALSE,,,,,,,3,barco,Spanish,Sounds/spa_barco.mp3,2020-06-04_18h38.16.523,TranslationElicitation_eng-prolific,3.2.4,MacIntel,60,5dd693492b033b61545beaee,,1,0,98,1,1,97
,,,,,,,,,,,,,,,,,,,,,,,,,,,,,,,,,,,,,,,,,,return,4.765999794,BARCODE,FALSE,,,,,,,3,barco,Spanish,Sounds/spa_barco.mp3,2020-06-04_18h38.16.523,TranslationElicitation_eng-prolific,3.2.4,MacIntel,60,5dd693492b033b61545beaee,4.765999794,1,0,98,1,1,97
,,,,,,,,,,,,,,,,,,,,,,,,,,,,,,,,,,,,,,,,,,,,,,,,,,,,3,barco,Spanish,Sounds/spa_barco.mp3,2020-06-04_18h38.16.523,TranslationElicitation_eng-prolific,3.2.4,MacIntel,60,5dd693492b033b61545beaee,,1,0,98,1,1,97
,,,,,,,,,,,,,,,,,,,,,,,,,,,,,,,,,,,,,,,,,,s,3.334000111,S,FALSE,,,,,,,2,avestruz,Spanish,Sounds/spa_avestruz.mp3,2020-06-04_18h38.16.523,TranslationElicitation_eng-prolific,3.2.4,MacIntel,60,5dd693492b033b61545beaee,,1,0,98,0,1,97
,,,,,,,,,,,,,,,,,,,,,,,,,,,,,,,,,,,,,,,,,,t,3.73300004,ST,FALSE,,,,,,,2,avestruz,Spanish,Sounds/spa_avestruz.mp3,2020-06-04_18h38.16.523,TranslationElicitation_eng-prolific,3.2.4,MacIntel,60,5dd693492b033b61545beaee,,1,0,98,0,1,97
,,,,,,,,,,,,,,,,,,,,,,,,,,,,,,,,,,,,,,,,,,a,4.151000023,STA,FALSE,,,,,,,2,avestruz,Spanish,Sounds/spa_avestruz.mp3,2020-06-04_18h38.16.523,TranslationElicitation_eng-prolific,3.2.4,MacIntel,60,5dd693492b033b61545beaee,,1,0,98,0,1,97
,,,,,,,,,,,,,,,,,,,,,,,,,,,,,,,,,,,,,,,,,,w,4.367000103,STAW,FALSE,,,,,,,2,avestruz,Spanish,Sounds/spa_avestruz.mp3,2020-06-04_18h38.16.523,TranslationElicitation_eng-prolific,3.2.4,MacIntel,60,5dd693492b033b61545beaee,,1,0,98,0,1,97
,,,,,,,,,,,,,,,,,,,,,,,,,,,,,,,,,,,,,,,,,,s,4.585000038,STAWS,FALSE,,,,,,,2,avestruz,Spanish,Sounds/spa_avestruz.mp3,2020-06-04_18h38.16.523,TranslationElicitation_eng-prolific,3.2.4,MacIntel,60,5dd693492b033b61545beaee,,1,0,98,0,1,97
,,,,,,,,,,,,,,,,,,,,,,,,,,,,,,,,,,,,,,,,,,return,4.818000078,STAWS,FALSE,,,,,,,2,avestruz,Spanish,Sounds/spa_avestruz.mp3,2020-06-04_18h38.16.523,TranslationElicitation_eng-prolific,3.2.4,MacIntel,60,5dd693492b033b61545beaee,4.818000078,1,0,98,0,1,97
,,,,,,,,,,,,,,,,,,,,,,,,,,,,,,,,,,,,,,,,,,,,,,,,,,,,2,avestruz,Spanish,Sounds/spa_avestruz.mp3,2020-06-04_18h38.16.523,TranslationElicitation_eng-prolific,3.2.4,MacIntel,60,5dd693492b033b61545beaee,,1,0,98,0,1,97
,,,,,,,,,,,,,,,,,,,,,,,,,,,,,,,,,,,,,,,,,,m,6.866999865,M,FALSE,,,,,,,61,mariposa,Spanish,Sounds/spa_mariposa.mp3,2020-06-04_18h38.16.523,TranslationElicitation_eng-prolific,3.2.4,MacIntel,60,5dd693492b033b61545beaee,,1,0,98,57,1,97
,,,,,,,,,,,,,,,,,,,,,,,,,,,,,,,,,,,,,,,,,,s,7.23300004,MS,FALSE,,,,,,,61,mariposa,Spanish,Sounds/spa_mariposa.mp3,2020-06-04_18h38.16.523,TranslationElicitation_eng-prolific,3.2.4,MacIntel,60,5dd693492b033b61545beaee,,1,0,98,57,1,97
,,,,,,,,,,,,,,,,,,,,,,,,,,,,,,,,,,,,,,,,,,backspace,7.832999945,M,TRUE,,,,,,,61,mariposa,Spanish,Sounds/spa_mariposa.mp3,2020-06-04_18h38.16.523,TranslationElicitation_eng-prolific,3.2.4,MacIntel,60,5dd693492b033b61545beaee,,1,0,98,57,1,97
,,,,,,,,,,,,,,,,,,,,,,,,,,,,,,,,,,,,,,,,,,z,8.049000025,MZ,TRUE,,,,,,,61,mariposa,Spanish,Sounds/spa_mariposa.mp3,2020-06-04_18h38.16.523,TranslationElicitation_eng-prolific,3.2.4,MacIntel,60,5dd693492b033b61545beaee,,1,0,98,57,1,97
,,,,,,,,,,,,,,,,,,,,,,,,,,,,,,,,,,,,,,,,,,backspace,8.398999929,M,TRUE,,,,,,,61,mariposa,Spanish,Sounds/spa_mariposa.mp3,2020-06-04_18h38.16.523,TranslationElicitation_eng-prolific,3.2.4,MacIntel,60,5dd693492b033b61545beaee,,1,0,98,57,1,97
,,,,,,,,,,,,,,,,,,,,,,,,,,,,,,,,,,,,,,,,,,a,8.53399992,MA,TRUE,,,,,,,61,mariposa,Spanish,Sounds/spa_mariposa.mp3,2020-06-04_18h38.16.523,TranslationElicitation_eng-prolific,3.2.4,MacIntel,60,5dd693492b033b61545beaee,,1,0,98,57,1,97
,,,,,,,,,,,,,,,,,,,,,,,,,,,,,,,,,,,,,,,,,,r,8.698999882,MAR,TRUE,,,,,,,61,mariposa,Spanish,Sounds/spa_mariposa.mp3,2020-06-04_18h38.16.523,TranslationElicitation_eng-prolific,3.2.4,MacIntel,60,5dd693492b033b61545beaee,,1,0,98,57,1,97
,,,,,,,,,,,,,,,,,,,,,,,,,,,,,,,,,,,,,,,,,,r,8.865999937,MARR,TRUE,,,,,,,61,mariposa,Spanish,Sounds/spa_mariposa.mp3,2020-06-04_18h38.16.523,TranslationElicitation_eng-prolific,3.2.4,MacIntel,60,5dd693492b033b61545beaee,,1,0,98,57,1,97
,,,,,,,,,,,,,,,,,,,,,,,,,,,,,,,,,,,,,,,,,,i,8.984999895,MARRI,TRUE,,,,,,,61,mariposa,Spanish,Sounds/spa_mariposa.mp3,2020-06-04_18h38.16.523,TranslationElicitation_eng-prolific,3.2.4,MacIntel,60,5dd693492b033b61545beaee,,1,0,98,57,1,97
,,,,,,,,,,,,,,,,,,,,,,,,,,,,,,,,,,,,,,,,,,a,9.101000071,MARRIA,TRUE,,,,,,,61,mariposa,Spanish,Sounds/spa_mariposa.mp3,2020-06-04_18h38.16.523,TranslationElicitation_eng-prolific,3.2.4,MacIntel,60,5dd693492b033b61545beaee,,1,0,98,57,1,97
,,,,,,,,,,,,,,,,,,,,,,,,,,,,,,,,,,,,,,,,,,e,9.349999905,MARRIAE,TRUE,,,,,,,61,mariposa,Spanish,Sounds/spa_mariposa.mp3,2020-06-04_18h38.16.523,TranslationElicitation_eng-prolific,3.2.4,MacIntel,60,5dd693492b033b61545beaee,,1,0,98,57,1,97
,,,,,,,,,,,,,,,,,,,,,,,,,,,,,,,,,,,,,,,,,,backspace,9.75,MARRIA,TRUE,,,,,,,61,mariposa,Spanish,Sounds/spa_mariposa.mp3,2020-06-04_18h38.16.523,TranslationElicitation_eng-prolific,3.2.4,MacIntel,60,5dd693492b033b61545beaee,,1,0,98,57,1,97
,,,,,,,,,,,,,,,,,,,,,,,,,,,,,,,,,,,,,,,,,,g,9.868000031,MARRIAG,TRUE,,,,,,,61,mariposa,Spanish,Sounds/spa_mariposa.mp3,2020-06-04_18h38.16.523,TranslationElicitation_eng-prolific,3.2.4,MacIntel,60,5dd693492b033b61545beaee,,1,0,98,57,1,97
,,,,,,,,,,,,,,,,,,,,,,,,,,,,,,,,,,,,,,,,,,e,9.96600008,MARRIAGE,TRUE,,,,,,,61,mariposa,Spanish,Sounds/spa_mariposa.mp3,2020-06-04_18h38.16.523,TranslationElicitation_eng-prolific,3.2.4,MacIntel,60,5dd693492b033b61545beaee,,1,0,98,57,1,97
,,,,,,,,,,,,,,,,,,,,,,,,,,,,,,,,,,,,,,,,,,return,10.44300008,MARRIAGE,TRUE,,,,,,,61,mariposa,Spanish,Sounds/spa_mariposa.mp3,2020-06-04_18h38.16.523,TranslationElicitation_eng-prolific,3.2.4,MacIntel,60,5dd693492b033b61545beaee,10.44300008,1,0,98,57,1,97
,,,,,,,,,,,,,,,,,,,,,,,,,,,,,,,,,,,,,,,,,,,,,,,,,,,,61,mariposa,Spanish,Sounds/spa_mariposa.mp3,2020-06-04_18h38.16.523,TranslationElicitation_eng-prolific,3.2.4,MacIntel,60,5dd693492b033b61545beaee,,1,0,98,57,1,97
,,,,,,,,,,,,,,,,,,,,,,,,,,,,,,,,,,,,,,,,,,o,3.217999935,O,FALSE,,,,,,,68,naranja,Spanish,Sounds/spa_naranja.mp3,2020-06-04_18h38.16.523,TranslationElicitation_eng-prolific,3.2.4,MacIntel,60,5dd693492b033b61545beaee,,1,0,98,64,1,97
,,,,,,,,,,,,,,,,,,,,,,,,,,,,,,,,,,,,,,,,,,r,3.31799984,OR,FALSE,,,,,,,68,naranja,Spanish,Sounds/spa_naranja.mp3,2020-06-04_18h38.16.523,TranslationElicitation_eng-prolific,3.2.4,MacIntel,60,5dd693492b033b61545beaee,,1,0,98,64,1,97
,,,,,,,,,,,,,,,,,,,,,,,,,,,,,,,,,,,,,,,,,,a,3.500999928,ORA,FALSE,,,,,,,68,naranja,Spanish,Sounds/spa_naranja.mp3,2020-06-04_18h38.16.523,TranslationElicitation_eng-prolific,3.2.4,MacIntel,60,5dd693492b033b61545beaee,,1,0,98,64,1,97
,,,,,,,,,,,,,,,,,,,,,,,,,,,,,,,,,,,,,,,,,,n,3.566999912,ORAN,FALSE,,,,,,,68,naranja,Spanish,Sounds/spa_naranja.mp3,2020-06-04_18h38.16.523,TranslationElicitation_eng-prolific,3.2.4,MacIntel,60,5dd693492b033b61545beaee,,1,0,98,64,1,97
,,,,,,,,,,,,,,,,,,,,,,,,,,,,,,,,,,,,,,,,,,g,3.733999968,ORANG,FALSE,,,,,,,68,naranja,Spanish,Sounds/spa_naranja.mp3,2020-06-04_18h38.16.523,TranslationElicitation_eng-prolific,3.2.4,MacIntel,60,5dd693492b033b61545beaee,,1,0,98,64,1,97
,,,,,,,,,,,,,,,,,,,,,,,,,,,,,,,,,,,,,,,,,,e,3.833999872,ORANGE,FALSE,,,,,,,68,naranja,Spanish,Sounds/spa_naranja.mp3,2020-06-04_18h38.16.523,TranslationElicitation_eng-prolific,3.2.4,MacIntel,60,5dd693492b033b61545beaee,,1,0,98,64,1,97
,,,,,,,,,,,,,,,,,,,,,,,,,,,,,,,,,,,,,,,,,,return,4.551999807,ORANGE,FALSE,,,,,,,68,naranja,Spanish,Sounds/spa_naranja.mp3,2020-06-04_18h38.16.523,TranslationElicitation_eng-prolific,3.2.4,MacIntel,60,5dd693492b033b61545beaee,4.551999807,1,0,98,64,1,97
,,,,,,,,,,,,,,,,,,,,,,,,,,,,,,,,,,,,,,,,,,,,,,,,,,,,68,naranja,Spanish,Sounds/spa_naranja.mp3,2020-06-04_18h38.16.523,TranslationElicitation_eng-prolific,3.2.4,MacIntel,60,5dd693492b033b61545beaee,,1,0,98,64,1,97
,,,,,,,,,,,,,,,,,,,,,,,,,,,,,,,,,,,,,,,,,,return,3.233999968,,FALSE,,,,,,,41,gallina,Spanish,Sounds/spa_gallina.mp3,2020-06-04_18h38.16.523,TranslationElicitation_eng-prolific,3.2.4,MacIntel,60,5dd693492b033b61545beaee,3.233999968,1,0,98,37,1,97
,,,,,,,,,,,,,,,,,,,,,,,,,,,,,,,,,,,,,,,,,,,,,,,,,,,,41,gallina,Spanish,Sounds/spa_gallina.mp3,2020-06-04_18h38.16.523,TranslationElicitation_eng-prolific,3.2.4,MacIntel,60,5dd693492b033b61545beaee,,1,0,98,37,1,97
,,,,,,,,,,,,,,,,,,,,,,,,,,,,,,,,,,,,,,,,,,c,3.25,C,FALSE,,,,,,,35,esponja,Spanish,Sounds/spa_esponja.mp3,2020-06-04_18h38.16.523,TranslationElicitation_eng-prolific,3.2.4,MacIntel,60,5dd693492b033b61545beaee,,1,0,98,31,1,97
,,,,,,,,,,,,,,,,,,,,,,,,,,,,,,,,,,,,,,,,,,a,3.450000048,CA,FALSE,,,,,,,35,esponja,Spanish,Sounds/spa_esponja.mp3,2020-06-04_18h38.16.523,TranslationElicitation_eng-prolific,3.2.4,MacIntel,60,5dd693492b033b61545beaee,,1,0,98,31,1,97
,,,,,,,,,,,,,,,,,,,,,,,,,,,,,,,,,,,,,,,,,,r,3.532999992,CAR,FALSE,,,,,,,35,esponja,Spanish,Sounds/spa_esponja.mp3,2020-06-04_18h38.16.523,TranslationElicitation_eng-prolific,3.2.4,MacIntel,60,5dd693492b033b61545beaee,,1,0,98,31,1,97
,,,,,,,,,,,,,,,,,,,,,,,,,,,,,,,,,,,,,,,,,,return,3.717000008,CAR,FALSE,,,,,,,35,esponja,Spanish,Sounds/spa_esponja.mp3,2020-06-04_18h38.16.523,TranslationElicitation_eng-prolific,3.2.4,MacIntel,60,5dd693492b033b61545beaee,3.717000008,1,0,98,31,1,97
,,,,,,,,,,,,,,,,,,,,,,,,,,,,,,,,,,,,,,,,,,,,,,,,,,,,35,esponja,Spanish,Sounds/spa_esponja.mp3,2020-06-04_18h38.16.523,TranslationElicitation_eng-prolific,3.2.4,MacIntel,60,5dd693492b033b61545beaee,,1,0,98,31,1,97
,,,,,,,,,,,,,,,,,,,,,,,,,,,,,,,,,,,,,,,,,,c,4.881999969,C,FALSE,,,,,,,80,pato,Spanish,Sounds/spa_pato.mp3,2020-06-04_18h38.16.523,TranslationElicitation_eng-prolific,3.2.4,MacIntel,60,5dd693492b033b61545beaee,,1,0,98,75,1,97
,,,,,,,,,,,,,,,,,,,,,,,,,,,,,,,,,,,,,,,,,,o,4.982000113,CO,FALSE,,,,,,,80,pato,Spanish,Sounds/spa_pato.mp3,2020-06-04_18h38.16.523,TranslationElicitation_eng-prolific,3.2.4,MacIntel,60,5dd693492b033b61545beaee,,1,0,98,75,1,97
,,,,,,,,,,,,,,,,,,,,,,,,,,,,,,,,,,,,,,,,,,d,5.183000088,COD,FALSE,,,,,,,80,pato,Spanish,Sounds/spa_pato.mp3,2020-06-04_18h38.16.523,TranslationElicitation_eng-prolific,3.2.4,MacIntel,60,5dd693492b033b61545beaee,,1,0,98,75,1,97
,,,,,,,,,,,,,,,,,,,,,,,,,,,,,,,,,,,,,,,,,,backspace,5.598999977,CO,TRUE,,,,,,,80,pato,Spanish,Sounds/spa_pato.mp3,2020-06-04_18h38.16.523,TranslationElicitation_eng-prolific,3.2.4,MacIntel,60,5dd693492b033b61545beaee,,1,0,98,75,1,97
,,,,,,,,,,,,,,,,,,,,,,,,,,,,,,,,,,,,,,,,,,l,5.883000135,COL,TRUE,,,,,,,80,pato,Spanish,Sounds/spa_pato.mp3,2020-06-04_18h38.16.523,TranslationElicitation_eng-prolific,3.2.4,MacIntel,60,5dd693492b033b61545beaee,,1,0,98,75,1,97
,,,,,,,,,,,,,,,,,,,,,,,,,,,,,,,,,,,,,,,,,,d,6.01699996,COLD,TRUE,,,,,,,80,pato,Spanish,Sounds/spa_pato.mp3,2020-06-04_18h38.16.523,TranslationElicitation_eng-prolific,3.2.4,MacIntel,60,5dd693492b033b61545beaee,,1,0,98,75,1,97
,,,,,,,,,,,,,,,,,,,,,,,,,,,,,,,,,,,,,,,,,,return,6.315999985,COLD,TRUE,,,,,,,80,pato,Spanish,Sounds/spa_pato.mp3,2020-06-04_18h38.16.523,TranslationElicitation_eng-prolific,3.2.4,MacIntel,60,5dd693492b033b61545beaee,6.315999985,1,0,98,75,1,97
,,,,,,,,,,,,,,,,,,,,,,,,,,,,,,,,,,,,,,,,,,,,,,,,,,,,80,pato,Spanish,Sounds/spa_pato.mp3,2020-06-04_18h38.16.523,TranslationElicitation_eng-prolific,3.2.4,MacIntel,60,5dd693492b033b61545beaee,,1,0,98,75,1,97
,,,,,,,,,,,,,,,,,,,,,,,,,,,,,,,,,,,,,,,,,,k,2.819000006,K,FALSE,,,,,,,15,caballo,Spanish,Sounds/spa_caballo.mp3,2020-06-04_18h38.16.523,TranslationElicitation_eng-prolific,3.2.4,MacIntel,60,5dd693492b033b61545beaee,,1,0,98,13,1,97
,,,,,,,,,,,,,,,,,,,,,,,,,,,,,,,,,,,,,,,,,,a,2.917000055,KA,FALSE,,,,,,,15,caballo,Spanish,Sounds/spa_caballo.mp3,2020-06-04_18h38.16.523,TranslationElicitation_eng-prolific,3.2.4,MacIntel,60,5dd693492b033b61545beaee,,1,0,98,13,1,97
,,,,,,,,,,,,,,,,,,,,,,,,,,,,,,,,,,,,,,,,,,w,3.035000086,KAW,FALSE,,,,,,,15,caballo,Spanish,Sounds/spa_caballo.mp3,2020-06-04_18h38.16.523,TranslationElicitation_eng-prolific,3.2.4,MacIntel,60,5dd693492b033b61545beaee,,1,0,98,13,1,97
,,,,,,,,,,,,,,,,,,,,,,,,,,,,,,,,,,,,,,,,,,a,3.252000093,KAWA,FALSE,,,,,,,15,caballo,Spanish,Sounds/spa_caballo.mp3,2020-06-04_18h38.16.523,TranslationElicitation_eng-prolific,3.2.4,MacIntel,60,5dd693492b033b61545beaee,,1,0,98,13,1,97
,,,,,,,,,,,,,,,,,,,,,,,,,,,,,,,,,,,,,,,,,,i,3.35800004,KAWAI,FALSE,,,,,,,15,caballo,Spanish,Sounds/spa_caballo.mp3,2020-06-04_18h38.16.523,TranslationElicitation_eng-prolific,3.2.4,MacIntel,60,5dd693492b033b61545beaee,,1,0,98,13,1,97
,,,,,,,,,,,,,,,,,,,,,,,,,,,,,,,,,,,,,,,,,,i,3.584000111,KAWAII,FALSE,,,,,,,15,caballo,Spanish,Sounds/spa_caballo.mp3,2020-06-04_18h38.16.523,TranslationElicitation_eng-prolific,3.2.4,MacIntel,60,5dd693492b033b61545beaee,,1,0,98,13,1,97
,,,,,,,,,,,,,,,,,,,,,,,,,,,,,,,,,,,,,,,,,,return,4.034000158,KAWAII,FALSE,,,,,,,15,caballo,Spanish,Sounds/spa_caballo.mp3,2020-06-04_18h38.16.523,TranslationElicitation_eng-prolific,3.2.4,MacIntel,60,5dd693492b033b61545beaee,4.034000158,1,0,98,13,1,97
,,,,,,,,,,,,,,,,,,,,,,,,,,,,,,,,,,,,,,,,,,,,,,,,,,,,15,caballo,Spanish,Sounds/spa_caballo.mp3,2020-06-04_18h38.16.523,TranslationElicitation_eng-prolific,3.2.4,MacIntel,60,5dd693492b033b61545beaee,,1,0,98,13,1,97
,,,,,,,,,,,,,,,,,,,,,,,,,,,,,,,,,,,,,,,,,,l,2.532999992,L,FALSE,,,,,,,56,libro,Spanish,Sounds/spa_libro.mp3,2020-06-04_18h38.16.523,TranslationElicitation_eng-prolific,3.2.4,MacIntel,60,5dd693492b033b61545beaee,,1,0,98,52,1,97
,,,,,,,,,,,,,,,,,,,,,,,,,,,,,,,,,,,,,,,,,,i,2.700000048,LI,FALSE,,,,,,,56,libro,Spanish,Sounds/spa_libro.mp3,2020-06-04_18h38.16.523,TranslationElicitation_eng-prolific,3.2.4,MacIntel,60,5dd693492b033b61545beaee,,1,0,98,52,1,97
,,,,,,,,,,,,,,,,,,,,,,,,,,,,,,,,,,,,,,,,,,b,2.898999929,LIB,FALSE,,,,,,,56,libro,Spanish,Sounds/spa_libro.mp3,2020-06-04_18h38.16.523,TranslationElicitation_eng-prolific,3.2.4,MacIntel,60,5dd693492b033b61545beaee,,1,0,98,52,1,97
,,,,,,,,,,,,,,,,,,,,,,,,,,,,,,,,,,,,,,,,,,r,3.032999992,LIBR,FALSE,,,,,,,56,libro,Spanish,Sounds/spa_libro.mp3,2020-06-04_18h38.16.523,TranslationElicitation_eng-prolific,3.2.4,MacIntel,60,5dd693492b033b61545beaee,,1,0,98,52,1,97
,,,,,,,,,,,,,,,,,,,,,,,,,,,,,,,,,,,,,,,,,,a,3.282999992,LIBRA,FALSE,,,,,,,56,libro,Spanish,Sounds/spa_libro.mp3,2020-06-04_18h38.16.523,TranslationElicitation_eng-prolific,3.2.4,MacIntel,60,5dd693492b033b61545beaee,,1,0,98,52,1,97
,,,,,,,,,,,,,,,,,,,,,,,,,,,,,,,,,,,,,,,,,,return,3.483999968,LIBRA,FALSE,,,,,,,56,libro,Spanish,Sounds/spa_libro.mp3,2020-06-04_18h38.16.523,TranslationElicitation_eng-prolific,3.2.4,MacIntel,60,5dd693492b033b61545beaee,3.483999968,1,0,98,52,1,97
,,,,,,,,,,,,,,,,,,,,,,,,,,,,,,,,,,,,,,,,,,,,,,,,,,,,56,libro,Spanish,Sounds/spa_libro.mp3,2020-06-04_18h38.16.523,TranslationElicitation_eng-prolific,3.2.4,MacIntel,60,5dd693492b033b61545beaee,,1,0,98,52,1,97
,,,,,,,,,,,,,,,,,,,,,,,,,,,,,,,,,,,,,,,,,,o,1.434999943,O,FALSE,,,,,,,99,tomate,Spanish,Sounds/spa_tomate.mp3,2020-06-04_18h38.16.523,TranslationElicitation_eng-prolific,3.2.4,MacIntel,60,5dd693492b033b61545beaee,,1,0,98,93,1,97
,,,,,,,,,,,,,,,,,,,,,,,,,,,,,,,,,,,,,,,,,,backspace,1.835000038,,TRUE,,,,,,,99,tomate,Spanish,Sounds/spa_tomate.mp3,2020-06-04_18h38.16.523,TranslationElicitation_eng-prolific,3.2.4,MacIntel,60,5dd693492b033b61545beaee,,1,0,98,93,1,97
,,,,,,,,,,,,,,,,,,,,,,,,,,,,,,,,,,,,,,,,,,t,1.98300004,T,TRUE,,,,,,,99,tomate,Spanish,Sounds/spa_tomate.mp3,2020-06-04_18h38.16.523,TranslationElicitation_eng-prolific,3.2.4,MacIntel,60,5dd693492b033b61545beaee,,1,0,98,93,1,97
,,,,,,,,,,,,,,,,,,,,,,,,,,,,,,,,,,,,,,,,,,o,2.017999887,TO,TRUE,,,,,,,99,tomate,Spanish,Sounds/spa_tomate.mp3,2020-06-04_18h38.16.523,TranslationElicitation_eng-prolific,3.2.4,MacIntel,60,5dd693492b033b61545beaee,,1,0,98,93,1,97
,,,,,,,,,,,,,,,,,,,,,,,,,,,,,,,,,,,,,,,,,,m,2.233999968,TOM,TRUE,,,,,,,99,tomate,Spanish,Sounds/spa_tomate.mp3,2020-06-04_18h38.16.523,TranslationElicitation_eng-prolific,3.2.4,MacIntel,60,5dd693492b033b61545beaee,,1,0,98,93,1,97
,,,,,,,,,,,,,,,,,,,,,,,,,,,,,,,,,,,,,,,,,,a,2.350999832,TOMA,TRUE,,,,,,,99,tomate,Spanish,Sounds/spa_tomate.mp3,2020-06-04_18h38.16.523,TranslationElicitation_eng-prolific,3.2.4,MacIntel,60,5dd693492b033b61545beaee,,1,0,98,93,1,97
,,,,,,,,,,,,,,,,,,,,,,,,,,,,,,,,,,,,,,,,,,o,2.534999847,TOMAO,TRUE,,,,,,,99,tomate,Spanish,Sounds/spa_tomate.mp3,2020-06-04_18h38.16.523,TranslationElicitation_eng-prolific,3.2.4,MacIntel,60,5dd693492b033b61545beaee,,1,0,98,93,1,97
,,,,,,,,,,,,,,,,,,,,,,,,,,,,,,,,,,,,,,,,,,backspace,2.934000015,TOMA,TRUE,,,,,,,99,tomate,Spanish,Sounds/spa_tomate.mp3,2020-06-04_18h38.16.523,TranslationElicitation_eng-prolific,3.2.4,MacIntel,60,5dd693492b033b61545beaee,,1,0,98,93,1,97
,,,,,,,,,,,,,,,,,,,,,,,,,,,,,,,,,,,,,,,,,,t,3.073999882,TOMAT,TRUE,,,,,,,99,tomate,Spanish,Sounds/spa_tomate.mp3,2020-06-04_18h38.16.523,TranslationElicitation_eng-prolific,3.2.4,MacIntel,60,5dd693492b033b61545beaee,,1,0,98,93,1,97
,,,,,,,,,,,,,,,,,,,,,,,,,,,,,,,,,,,,,,,,,,o,3.200999975,TOMATO,TRUE,,,,,,,99,tomate,Spanish,Sounds/spa_tomate.mp3,2020-06-04_18h38.16.523,TranslationElicitation_eng-prolific,3.2.4,MacIntel,60,5dd693492b033b61545beaee,,1,0,98,93,1,97
,,,,,,,,,,,,,,,,,,,,,,,,,,,,,,,,,,,,,,,,,,r,3.368000031,TOMATOR,TRUE,,,,,,,99,tomate,Spanish,Sounds/spa_tomate.mp3,2020-06-04_18h38.16.523,TranslationElicitation_eng-prolific,3.2.4,MacIntel,60,5dd693492b033b61545beaee,,1,0,98,93,1,97
,,,,,,,,,,,,,,,,,,,,,,,,,,,,,,,,,,,,,,,,,,backspace,3.733999968,TOMATO,TRUE,,,,,,,99,tomate,Spanish,Sounds/spa_tomate.mp3,2020-06-04_18h38.16.523,TranslationElicitation_eng-prolific,3.2.4,MacIntel,60,5dd693492b033b61545beaee,,1,0,98,93,1,97
,,,,,,,,,,,,,,,,,,,,,,,,,,,,,,,,,,,,,,,,,,return,4.284999847,TOMATO,TRUE,,,,,,,99,tomate,Spanish,Sounds/spa_tomate.mp3,2020-06-04_18h38.16.523,TranslationElicitation_eng-prolific,3.2.4,MacIntel,60,5dd693492b033b61545beaee,4.284999847,1,0,98,93,1,97
,,,,,,,,,,,,,,,,,,,,,,,,,,,,,,,,,,,,,,,,,,,,,,,,,,,,99,tomate,Spanish,Sounds/spa_tomate.mp3,2020-06-04_18h38.16.523,TranslationElicitation_eng-prolific,3.2.4,MacIntel,60,5dd693492b033b61545beaee,,1,0,98,93,1,97
,,,,,,,,,,,,,,,,,,,,,,,,,,,,,,,,,,,,,,,,,,b,2.28399992,B,FALSE,,,,,,,102,ventana,Spanish,Sounds/spa_ventana.mp3,2020-06-04_18h38.16.523,TranslationElicitation_eng-prolific,3.2.4,MacIntel,60,5dd693492b033b61545beaee,,1,0,98,96,1,97
,,,,,,,,,,,,,,,,,,,,,,,,,,,,,,,,,,,,,,,,,,a,2.434000015,BA,FALSE,,,,,,,102,ventana,Spanish,Sounds/spa_ventana.mp3,2020-06-04_18h38.16.523,TranslationElicitation_eng-prolific,3.2.4,MacIntel,60,5dd693492b033b61545beaee,,1,0,98,96,1,97
,,,,,,,,,,,,,,,,,,,,,,,,,,,,,,,,,,,,,,,,,,n,2.566999912,BAN,FALSE,,,,,,,102,ventana,Spanish,Sounds/spa_ventana.mp3,2020-06-04_18h38.16.523,TranslationElicitation_eng-prolific,3.2.4,MacIntel,60,5dd693492b033b61545beaee,,1,0,98,96,1,97
,,,,,,,,,,,,,,,,,,,,,,,,,,,,,,,,,,,,,,,,,,a,2.666000128,BANA,FALSE,,,,,,,102,ventana,Spanish,Sounds/spa_ventana.mp3,2020-06-04_18h38.16.523,TranslationElicitation_eng-prolific,3.2.4,MacIntel,60,5dd693492b033b61545beaee,,1,0,98,96,1,97
,,,,,,,,,,,,,,,,,,,,,,,,,,,,,,,,,,,,,,,,,,n,3.801000118,BANAN,FALSE,,,,,,,102,ventana,Spanish,Sounds/spa_ventana.mp3,2020-06-04_18h38.16.523,TranslationElicitation_eng-prolific,3.2.4,MacIntel,60,5dd693492b033b61545beaee,,1,0,98,96,1,97
,,,,,,,,,,,,,,,,,,,,,,,,,,,,,,,,,,,,,,,,,,a,3.916000128,BANANA,FALSE,,,,,,,102,ventana,Spanish,Sounds/spa_ventana.mp3,2020-06-04_18h38.16.523,TranslationElicitation_eng-prolific,3.2.4,MacIntel,60,5dd693492b033b61545beaee,,1,0,98,96,1,97
,,,,,,,,,,,,,,,,,,,,,,,,,,,,,,,,,,,,,,,,,,return,4.301000118,BANANA,FALSE,,,,,,,102,ventana,Spanish,Sounds/spa_ventana.mp3,2020-06-04_18h38.16.523,TranslationElicitation_eng-prolific,3.2.4,MacIntel,60,5dd693492b033b61545beaee,4.301000118,1,0,98,96,1,97
,,,,,,,,,,,,,,,,,,,,,,,,,,,,,,,,,,,,,,,,,,,,,,,,,,,,102,ventana,Spanish,Sounds/spa_ventana.mp3,2020-06-04_18h38.16.523,TranslationElicitation_eng-prolific,3.2.4,MacIntel,60,5dd693492b033b61545beaee,,1,0,98,96,1,97
,,,,,,,,,,,,,,,,,,,,,,,,,,,,,,,,,,,,,,,,,,p,1.717000008,P,FALSE,,,,,,,77,pantalon,Spanish,Sounds/spa_pantalon.mp3,2020-06-04_18h38.16.523,TranslationElicitation_eng-prolific,3.2.4,MacIntel,60,5dd693492b033b61545beaee,,1,0,98,72,1,97
,,,,,,,,,,,,,,,,,,,,,,,,,,,,,,,,,,,,,,,,,,a,1.883999825,PA,FALSE,,,,,,,77,pantalon,Spanish,Sounds/spa_pantalon.mp3,2020-06-04_18h38.16.523,TranslationElicitation_eng-prolific,3.2.4,MacIntel,60,5dd693492b033b61545beaee,,1,0,98,72,1,97
,,,,,,,,,,,,,,,,,,,,,,,,,,,,,,,,,,,,,,,,,,n,2.015999794,PAN,FALSE,,,,,,,77,pantalon,Spanish,Sounds/spa_pantalon.mp3,2020-06-04_18h38.16.523,TranslationElicitation_eng-prolific,3.2.4,MacIntel,60,5dd693492b033b61545beaee,,1,0,98,72,1,97
,,,,,,,,,,,,,,,,,,,,,,,,,,,,,,,,,,,,,,,,,,t,2.333999872,PANT,FALSE,,,,,,,77,pantalon,Spanish,Sounds/spa_pantalon.mp3,2020-06-04_18h38.16.523,TranslationElicitation_eng-prolific,3.2.4,MacIntel,60,5dd693492b033b61545beaee,,1,0,98,72,1,97
,,,,,,,,,,,,,,,,,,,,,,,,,,,,,,,,,,,,,,,,,,o,2.449999809,PANTO,FALSE,,,,,,,77,pantalon,Spanish,Sounds/spa_pantalon.mp3,2020-06-04_18h38.16.523,TranslationElicitation_eng-prolific,3.2.4,MacIntel,60,5dd693492b033b61545beaee,,1,0,98,72,1,97
,,,,,,,,,,,,,,,,,,,,,,,,,,,,,,,,,,,,,,,,,,backspace,2.699999809,PANT,TRUE,,,,,,,77,pantalon,Spanish,Sounds/spa_pantalon.mp3,2020-06-04_18h38.16.523,TranslationElicitation_eng-prolific,3.2.4,MacIntel,60,5dd693492b033b61545beaee,,1,0,98,72,1,97
,,,,,,,,,,,,,,,,,,,,,,,,,,,,,,,,,,,,,,,,,,a,2.78399992,PANTA,TRUE,,,,,,,77,pantalon,Spanish,Sounds/spa_pantalon.mp3,2020-06-04_18h38.16.523,TranslationElicitation_eng-prolific,3.2.4,MacIntel,60,5dd693492b033b61545beaee,,1,0,98,72,1,97
,,,,,,,,,,,,,,,,,,,,,,,,,,,,,,,,,,,,,,,,,,l,3.105000019,PANTAL,TRUE,,,,,,,77,pantalon,Spanish,Sounds/spa_pantalon.mp3,2020-06-04_18h38.16.523,TranslationElicitation_eng-prolific,3.2.4,MacIntel,60,5dd693492b033b61545beaee,,1,0,98,72,1,97
,,,,,,,,,,,,,,,,,,,,,,,,,,,,,,,,,,,,,,,,,,o,3.31799984,PANTALO,TRUE,,,,,,,77,pantalon,Spanish,Sounds/spa_pantalon.mp3,2020-06-04_18h38.16.523,TranslationElicitation_eng-prolific,3.2.4,MacIntel,60,5dd693492b033b61545beaee,,1,0,98,72,1,97
,,,,,,,,,,,,,,,,,,,,,,,,,,,,,,,,,,,,,,,,,,o,3.449999809,PANTALOO,TRUE,,,,,,,77,pantalon,Spanish,Sounds/spa_pantalon.mp3,2020-06-04_18h38.16.523,TranslationElicitation_eng-prolific,3.2.4,MacIntel,60,5dd693492b033b61545beaee,,1,0,98,72,1,97
,,,,,,,,,,,,,,,,,,,,,,,,,,,,,,,,,,,,,,,,,,n,3.983999968,PANTALOON,TRUE,,,,,,,77,pantalon,Spanish,Sounds/spa_pantalon.mp3,2020-06-04_18h38.16.523,TranslationElicitation_eng-prolific,3.2.4,MacIntel,60,5dd693492b033b61545beaee,,1,0,98,72,1,97
,,,,,,,,,,,,,,,,,,,,,,,,,,,,,,,,,,,,,,,,,,backspace,4.982999802,PANTALOO,TRUE,,,,,,,77,pantalon,Spanish,Sounds/spa_pantalon.mp3,2020-06-04_18h38.16.523,TranslationElicitation_eng-prolific,3.2.4,MacIntel,60,5dd693492b033b61545beaee,,1,0,98,72,1,97
,,,,,,,,,,,,,,,,,,,,,,,,,,,,,,,,,,,,,,,,,,backspace,5.482999802,PANTALO,TRUE,,,,,,,77,pantalon,Spanish,Sounds/spa_pantalon.mp3,2020-06-04_18h38.16.523,TranslationElicitation_eng-prolific,3.2.4,MacIntel,60,5dd693492b033b61545beaee,,1,0,98,72,1,97
,,,,,,,,,,,,,,,,,,,,,,,,,,,,,,,,,,,,,,,,,,backspace,5.573999882,PANTAL,TRUE,,,,,,,77,pantalon,Spanish,Sounds/spa_pantalon.mp3,2020-06-04_18h38.16.523,TranslationElicitation_eng-prolific,3.2.4,MacIntel,60,5dd693492b033b61545beaee,,1,0,98,72,1,97
,,,,,,,,,,,,,,,,,,,,,,,,,,,,,,,,,,,,,,,,,,backspace,5.649999857,PANTA,TRUE,,,,,,,77,pantalon,Spanish,Sounds/spa_pantalon.mp3,2020-06-04_18h38.16.523,TranslationElicitation_eng-prolific,3.2.4,MacIntel,60,5dd693492b033b61545beaee,,1,0,98,72,1,97
,,,,,,,,,,,,,,,,,,,,,,,,,,,,,,,,,,,,,,,,,,backspace,5.733999968,PANT,TRUE,,,,,,,77,pantalon,Spanish,Sounds/spa_pantalon.mp3,2020-06-04_18h38.16.523,TranslationElicitation_eng-prolific,3.2.4,MacIntel,60,5dd693492b033b61545beaee,,1,0,98,72,1,97
,,,,,,,,,,,,,,,,,,,,,,,,,,,,,,,,,,,,,,,,,,backspace,5.816999912,PAN,TRUE,,,,,,,77,pantalon,Spanish,Sounds/spa_pantalon.mp3,2020-06-04_18h38.16.523,TranslationElicitation_eng-prolific,3.2.4,MacIntel,60,5dd693492b033b61545beaee,,1,0,98,72,1,97
,,,,,,,,,,,,,,,,,,,,,,,,,,,,,,,,,,,,,,,,,,backspace,5.901000023,PA,TRUE,,,,,,,77,pantalon,Spanish,Sounds/spa_pantalon.mp3,2020-06-04_18h38.16.523,TranslationElicitation_eng-prolific,3.2.4,MacIntel,60,5dd693492b033b61545beaee,,1,0,98,72,1,97
,,,,,,,,,,,,,,,,,,,,,,,,,,,,,,,,,,,,,,,,,,backspace,5.983999968,P,TRUE,,,,,,,77,pantalon,Spanish,Sounds/spa_pantalon.mp3,2020-06-04_18h38.16.523,TranslationElicitation_eng-prolific,3.2.4,MacIntel,60,5dd693492b033b61545beaee,,1,0,98,72,1,97
,,,,,,,,,,,,,,,,,,,,,,,,,,,,,,,,,,,,,,,,,,backspace,6.066999912,,TRUE,,,,,,,77,pantalon,Spanish,Sounds/spa_pantalon.mp3,2020-06-04_18h38.16.523,TranslationElicitation_eng-prolific,3.2.4,MacIntel,60,5dd693492b033b61545beaee,,1,0,98,72,1,97
,,,,,,,,,,,,,,,,,,,,,,,,,,,,,,,,,,,,,,,,,,backspace,6.151000023,,TRUE,,,,,,,77,pantalon,Spanish,Sounds/spa_pantalon.mp3,2020-06-04_18h38.16.523,TranslationElicitation_eng-prolific,3.2.4,MacIntel,60,5dd693492b033b61545beaee,,1,0,98,72,1,97
,,,,,,,,,,,,,,,,,,,,,,,,,,,,,,,,,,,,,,,,,,backspace,6.232999802,,TRUE,,,,,,,77,pantalon,Spanish,Sounds/spa_pantalon.mp3,2020-06-04_18h38.16.523,TranslationElicitation_eng-prolific,3.2.4,MacIntel,60,5dd693492b033b61545beaee,,1,0,98,72,1,97
,,,,,,,,,,,,,,,,,,,,,,,,,,,,,,,,,,,,,,,,,,u,6.53399992,U,TRUE,,,,,,,77,pantalon,Spanish,Sounds/spa_pantalon.mp3,2020-06-04_18h38.16.523,TranslationElicitation_eng-prolific,3.2.4,MacIntel,60,5dd693492b033b61545beaee,,1,0,98,72,1,97
,,,,,,,,,,,,,,,,,,,,,,,,,,,,,,,,,,,,,,,,,,n,6.717999935,UN,TRUE,,,,,,,77,pantalon,Spanish,Sounds/spa_pantalon.mp3,2020-06-04_18h38.16.523,TranslationElicitation_eng-prolific,3.2.4,MacIntel,60,5dd693492b033b61545beaee,,1,0,98,72,1,97
,,,,,,,,,,,,,,,,,,,,,,,,,,,,,,,,,,,,,,,,,,d,6.833999872,UND,TRUE,,,,,,,77,pantalon,Spanish,Sounds/spa_pantalon.mp3,2020-06-04_18h38.16.523,TranslationElicitation_eng-prolific,3.2.4,MacIntel,60,5dd693492b033b61545beaee,,1,0,98,72,1,97
,,,,,,,,,,,,,,,,,,,,,,,,,,,,,,,,,,,,,,,,,,e,6.983999968,UNDE,TRUE,,,,,,,77,pantalon,Spanish,Sounds/spa_pantalon.mp3,2020-06-04_18h38.16.523,TranslationElicitation_eng-prolific,3.2.4,MacIntel,60,5dd693492b033b61545beaee,,1,0,98,72,1,97
,,,,,,,,,,,,,,,,,,,,,,,,,,,,,,,,,,,,,,,,,,r,7.065999985,UNDER,TRUE,,,,,,,77,pantalon,Spanish,Sounds/spa_pantalon.mp3,2020-06-04_18h38.16.523,TranslationElicitation_eng-prolific,3.2.4,MacIntel,60,5dd693492b033b61545beaee,,1,0,98,72,1,97
,,,,,,,,,,,,,,,,,,,,,,,,,,,,,,,,,,,,,,,,,,w,7.232999802,UNDERW,TRUE,,,,,,,77,pantalon,Spanish,Sounds/spa_pantalon.mp3,2020-06-04_18h38.16.523,TranslationElicitation_eng-prolific,3.2.4,MacIntel,60,5dd693492b033b61545beaee,,1,0,98,72,1,97
,,,,,,,,,,,,,,,,,,,,,,,,,,,,,,,,,,,,,,,,,,e,7.365999937,UNDERWE,TRUE,,,,,,,77,pantalon,Spanish,Sounds/spa_pantalon.mp3,2020-06-04_18h38.16.523,TranslationElicitation_eng-prolific,3.2.4,MacIntel,60,5dd693492b033b61545beaee,,1,0,98,72,1,97
,,,,,,,,,,,,,,,,,,,,,,,,,,,,,,,,,,,,,,,,,,a,7.600999832,UNDERWEA,TRUE,,,,,,,77,pantalon,Spanish,Sounds/spa_pantalon.mp3,2020-06-04_18h38.16.523,TranslationElicitation_eng-prolific,3.2.4,MacIntel,60,5dd693492b033b61545beaee,,1,0,98,72,1,97
,,,,,,,,,,,,,,,,,,,,,,,,,,,,,,,,,,,,,,,,,,r,7.75,UNDERWEAR,TRUE,,,,,,,77,pantalon,Spanish,Sounds/spa_pantalon.mp3,2020-06-04_18h38.16.523,TranslationElicitation_eng-prolific,3.2.4,MacIntel,60,5dd693492b033b61545beaee,,1,0,98,72,1,97
,,,,,,,,,,,,,,,,,,,,,,,,,,,,,,,,,,,,,,,,,,return,8.001999855,UNDERWEAR,TRUE,,,,,,,77,pantalon,Spanish,Sounds/spa_pantalon.mp3,2020-06-04_18h38.16.523,TranslationElicitation_eng-prolific,3.2.4,MacIntel,60,5dd693492b033b61545beaee,8.001999855,1,0,98,72,1,97
,,,,,,,,,,,,,,,,,,,,,,,,,,,,,,,,,,,,,,,,,,,,,,,,,,,,77,pantalon,Spanish,Sounds/spa_pantalon.mp3,2020-06-04_18h38.16.523,TranslationElicitation_eng-prolific,3.2.4,MacIntel,60,5dd693492b033b61545beaee,,1,0,98,72,1,97
,,,,,,,,,,,,,,,,,,,,,,,,,,,,,,,,,,,,,,,,,,l,1.849999905,L,FALSE,,,,,,,51,ladrillo,Spanish,Sounds/spa_ladrillo.mp3,2020-06-04_18h38.16.523,TranslationElicitation_eng-prolific,3.2.4,MacIntel,60,5dd693492b033b61545beaee,,1,0,98,47,1,97
,,,,,,,,,,,,,,,,,,,,,,,,,,,,,,,,,,,,,,,,,,i,2.051999807,LI,FALSE,,,,,,,51,ladrillo,Spanish,Sounds/spa_ladrillo.mp3,2020-06-04_18h38.16.523,TranslationElicitation_eng-prolific,3.2.4,MacIntel,60,5dd693492b033b61545beaee,,1,0,98,47,1,97
,,,,,,,,,,,,,,,,,,,,,,,,,,,,,,,,,,,,,,,,,,b,2.350999832,LIB,FALSE,,,,,,,51,ladrillo,Spanish,Sounds/spa_ladrillo.mp3,2020-06-04_18h38.16.523,TranslationElicitation_eng-prolific,3.2.4,MacIntel,60,5dd693492b033b61545beaee,,1,0,98,47,1,97
,,,,,,,,,,,,,,,,,,,,,,,,,,,,,,,,,,,,,,,,,,r,2.566999912,LIBR,FALSE,,,,,,,51,ladrillo,Spanish,Sounds/spa_ladrillo.mp3,2020-06-04_18h38.16.523,TranslationElicitation_eng-prolific,3.2.4,MacIntel,60,5dd693492b033b61545beaee,,1,0,98,47,1,97
,,,,,,,,,,,,,,,,,,,,,,,,,,,,,,,,,,,,,,,,,,a,2.750999928,LIBRA,FALSE,,,,,,,51,ladrillo,Spanish,Sounds/spa_ladrillo.mp3,2020-06-04_18h38.16.523,TranslationElicitation_eng-prolific,3.2.4,MacIntel,60,5dd693492b033b61545beaee,,1,0,98,47,1,97
,,,,,,,,,,,,,,,,,,,,,,,,,,,,,,,,,,,,,,,,,,r,2.916999817,LIBRAR,FALSE,,,,,,,51,ladrillo,Spanish,Sounds/spa_ladrillo.mp3,2020-06-04_18h38.16.523,TranslationElicitation_eng-prolific,3.2.4,MacIntel,60,5dd693492b033b61545beaee,,1,0,98,47,1,97
,,,,,,,,,,,,,,,,,,,,,,,,,,,,,,,,,,,,,,,,,,y,3.017999887,LIBRARY,FALSE,,,,,,,51,ladrillo,Spanish,Sounds/spa_ladrillo.mp3,2020-06-04_18h38.16.523,TranslationElicitation_eng-prolific,3.2.4,MacIntel,60,5dd693492b033b61545beaee,,1,0,98,47,1,97
,,,,,,,,,,,,,,,,,,,,,,,,,,,,,,,,,,,,,,,,,,return,3.368999958,LIBRARY,FALSE,,,,,,,51,ladrillo,Spanish,Sounds/spa_ladrillo.mp3,2020-06-04_18h38.16.523,TranslationElicitation_eng-prolific,3.2.4,MacIntel,60,5dd693492b033b61545beaee,3.368999958,1,0,98,47,1,97
,,,,,,,,,,,,,,,,,,,,,,,,,,,,,,,,,,,,,,,,,,,,,,,,,,,,51,ladrillo,Spanish,Sounds/spa_ladrillo.mp3,2020-06-04_18h38.16.523,TranslationElicitation_eng-prolific,3.2.4,MacIntel,60,5dd693492b033b61545beaee,,1,0,98,47,1,97
,,,,,,,,,,,,,,,,,,,,,,,,,,,,,,,,,,,,,,,,,,d,5.382999897,D,FALSE,,,,,,,65,mono,Spanish,Sounds/spa_mono.mp3,2020-06-04_18h38.16.523,TranslationElicitation_eng-prolific,3.2.4,MacIntel,60,5dd693492b033b61545beaee,,1,0,98,61,1,97
,,,,,,,,,,,,,,,,,,,,,,,,,,,,,,,,,,,,,,,,,,i,5.482999802,DI,FALSE,,,,,,,65,mono,Spanish,Sounds/spa_mono.mp3,2020-06-04_18h38.16.523,TranslationElicitation_eng-prolific,3.2.4,MacIntel,60,5dd693492b033b61545beaee,,1,0,98,61,1,97
,,,,,,,,,,,,,,,,,,,,,,,,,,,,,,,,,,,,,,,,,,s,5.582999945,DIS,FALSE,,,,,,,65,mono,Spanish,Sounds/spa_mono.mp3,2020-06-04_18h38.16.523,TranslationElicitation_eng-prolific,3.2.4,MacIntel,60,5dd693492b033b61545beaee,,1,0,98,61,1,97
,,,,,,,,,,,,,,,,,,,,,,,,,,,,,,,,,,,,,,,,,,e,5.782999992,DISE,FALSE,,,,,,,65,mono,Spanish,Sounds/spa_mono.mp3,2020-06-04_18h38.16.523,TranslationElicitation_eng-prolific,3.2.4,MacIntel,60,5dd693492b033b61545beaee,,1,0,98,61,1,97
,,,,,,,,,,,,,,,,,,,,,,,,,,,,,,,,,,,,,,,,,,a,5.915999889,DISEA,FALSE,,,,,,,65,mono,Spanish,Sounds/spa_mono.mp3,2020-06-04_18h38.16.523,TranslationElicitation_eng-prolific,3.2.4,MacIntel,60,5dd693492b033b61545beaee,,1,0,98,61,1,97
,,,,,,,,,,,,,,,,,,,,,,,,,,,,,,,,,,,,,,,,,,s,6.049999952,DISEAS,FALSE,,,,,,,65,mono,Spanish,Sounds/spa_mono.mp3,2020-06-04_18h38.16.523,TranslationElicitation_eng-prolific,3.2.4,MacIntel,60,5dd693492b033b61545beaee,,1,0,98,61,1,97
,,,,,,,,,,,,,,,,,,,,,,,,,,,,,,,,,,,,,,,,,,e,6.234999895,DISEASE,FALSE,,,,,,,65,mono,Spanish,Sounds/spa_mono.mp3,2020-06-04_18h38.16.523,TranslationElicitation_eng-prolific,3.2.4,MacIntel,60,5dd693492b033b61545beaee,,1,0,98,61,1,97
,,,,,,,,,,,,,,,,,,,,,,,,,,,,,,,,,,,,,,,,,,return,6.416999817,DISEASE,FALSE,,,,,,,65,mono,Spanish,Sounds/spa_mono.mp3,2020-06-04_18h38.16.523,TranslationElicitation_eng-prolific,3.2.4,MacIntel,60,5dd693492b033b61545beaee,6.416999817,1,0,98,61,1,97
,,,,,,,,,,,,,,,,,,,,,,,,,,,,,,,,,,,,,,,,,,,,,,,,,,,,65,mono,Spanish,Sounds/spa_mono.mp3,2020-06-04_18h38.16.523,TranslationElicitation_eng-prolific,3.2.4,MacIntel,60,5dd693492b033b61545beaee,,1,0,98,61,1,97
,,,,,,,,,,,,,,,,,,,,,,,,,,,,,,,,,,,,,,,,,,b,1.75,B,FALSE,,,,,,,13,buho,Spanish,Sounds/spa_buho.mp3,2020-06-04_18h38.16.523,TranslationElicitation_eng-prolific,3.2.4,MacIntel,60,5dd693492b033b61545beaee,,1,0,98,11,1,97
,,,,,,,,,,,,,,,,,,,,,,,,,,,,,,,,,,,,,,,,,,a,1.950999975,BA,FALSE,,,,,,,13,buho,Spanish,Sounds/spa_buho.mp3,2020-06-04_18h38.16.523,TranslationElicitation_eng-prolific,3.2.4,MacIntel,60,5dd693492b033b61545beaee,,1,0,98,11,1,97
,,,,,,,,,,,,,,,,,,,,,,,,,,,,,,,,,,,,,,,,,,l,2.034000158,BAL,FALSE,,,,,,,13,buho,Spanish,Sounds/spa_buho.mp3,2020-06-04_18h38.16.523,TranslationElicitation_eng-prolific,3.2.4,MacIntel,60,5dd693492b033b61545beaee,,1,0,98,11,1,97
,,,,,,,,,,,,,,,,,,,,,,,,,,,,,,,,,,,,,,,,,,l,2.184000015,BALL,FALSE,,,,,,,13,buho,Spanish,Sounds/spa_buho.mp3,2020-06-04_18h38.16.523,TranslationElicitation_eng-prolific,3.2.4,MacIntel,60,5dd693492b033b61545beaee,,1,0,98,11,1,97
,,,,,,,,,,,,,,,,,,,,,,,,,,,,,,,,,,,,,,,,,,return,2.502000093,BALL,FALSE,,,,,,,13,buho,Spanish,Sounds/spa_buho.mp3,2020-06-04_18h38.16.523,TranslationElicitation_eng-prolific,3.2.4,MacIntel,60,5dd693492b033b61545beaee,2.502000093,1,0,98,11,1,97
,,,,,,,,,,,,,,,,,,,,,,,,,,,,,,,,,,,,,,,,,,,,,,,,,,,,13,buho,Spanish,Sounds/spa_buho.mp3,2020-06-04_18h38.16.523,TranslationElicitation_eng-prolific,3.2.4,MacIntel,60,5dd693492b033b61545beaee,,1,0,98,11,1,97
,,,,,,,,,,,,,,,,,,,,,,,,,,,,,,,,,,,,,,,,,,g,2.833000183,G,FALSE,,,,,,,29,coche,Spanish,Sounds/spa_coche.mp3,2020-06-04_18h38.16.523,TranslationElicitation_eng-prolific,3.2.4,MacIntel,60,5dd693492b033b61545beaee,,1,0,98,26,1,97
,,,,,,,,,,,,,,,,,,,,,,,,,,,,,,,,,,,,,,,,,,n,3.049999952,GN,FALSE,,,,,,,29,coche,Spanish,Sounds/spa_coche.mp3,2020-06-04_18h38.16.523,TranslationElicitation_eng-prolific,3.2.4,MacIntel,60,5dd693492b033b61545beaee,,1,0,98,26,1,97
,,,,,,,,,,,,,,,,,,,,,,,,,,,,,,,,,,,,,,,,,,o,3.251000166,GNO,FALSE,,,,,,,29,coche,Spanish,Sounds/spa_coche.mp3,2020-06-04_18h38.16.523,TranslationElicitation_eng-prolific,3.2.4,MacIntel,60,5dd693492b033b61545beaee,,1,0,98,26,1,97
,,,,,,,,,,,,,,,,,,,,,,,,,,,,,,,,,,,,,,,,,,c,3.350000143,GNOC,FALSE,,,,,,,29,coche,Spanish,Sounds/spa_coche.mp3,2020-06-04_18h38.16.523,TranslationElicitation_eng-prolific,3.2.4,MacIntel,60,5dd693492b033b61545beaee,,1,0,98,26,1,97
,,,,,,,,,,,,,,,,,,,,,,,,,,,,,,,,,,,,,,,,,,i,3.48300004,GNOCI,FALSE,,,,,,,29,coche,Spanish,Sounds/spa_coche.mp3,2020-06-04_18h38.16.523,TranslationElicitation_eng-prolific,3.2.4,MacIntel,60,5dd693492b033b61545beaee,,1,0,98,26,1,97
,,,,,,,,,,,,,,,,,,,,,,,,,,,,,,,,,,,,,,,,,,backspace,3.983999968,GNOC,TRUE,,,,,,,29,coche,Spanish,Sounds/spa_coche.mp3,2020-06-04_18h38.16.523,TranslationElicitation_eng-prolific,3.2.4,MacIntel,60,5dd693492b033b61545beaee,,1,0,98,26,1,97
,,,,,,,,,,,,,,,,,,,,,,,,,,,,,,,,,,,,,,,,,,c,4.433000088,GNOCC,TRUE,,,,,,,29,coche,Spanish,Sounds/spa_coche.mp3,2020-06-04_18h38.16.523,TranslationElicitation_eng-prolific,3.2.4,MacIntel,60,5dd693492b033b61545beaee,,1,0,98,26,1,97
,,,,,,,,,,,,,,,,,,,,,,,,,,,,,,,,,,,,,,,,,,backspace,5.200999975,GNOC,TRUE,,,,,,,29,coche,Spanish,Sounds/spa_coche.mp3,2020-06-04_18h38.16.523,TranslationElicitation_eng-prolific,3.2.4,MacIntel,60,5dd693492b033b61545beaee,,1,0,98,26,1,97
,,,,,,,,,,,,,,,,,,,,,,,,,,,,,,,,,,,,,,,,,,h,5.501000166,GNOCH,TRUE,,,,,,,29,coche,Spanish,Sounds/spa_coche.mp3,2020-06-04_18h38.16.523,TranslationElicitation_eng-prolific,3.2.4,MacIntel,60,5dd693492b033b61545beaee,,1,0,98,26,1,97
,,,,,,,,,,,,,,,,,,,,,,,,,,,,,,,,,,,,,,,,,,i,5.667999983,GNOCHI,TRUE,,,,,,,29,coche,Spanish,Sounds/spa_coche.mp3,2020-06-04_18h38.16.523,TranslationElicitation_eng-prolific,3.2.4,MacIntel,60,5dd693492b033b61545beaee,,1,0,98,26,1,97
,,,,,,,,,,,,,,,,,,,,,,,,,,,,,,,,,,,,,,,,,,return,6.018000126,GNOCHI,TRUE,,,,,,,29,coche,Spanish,Sounds/spa_coche.mp3,2020-06-04_18h38.16.523,TranslationElicitation_eng-prolific,3.2.4,MacIntel,60,5dd693492b033b61545beaee,6.018000126,1,0,98,26,1,97
,,,,,,,,,,,,,,,,,,,,,,,,,,,,,,,,,,,,,,,,,,,,,,,,,,,,29,coche,Spanish,Sounds/spa_coche.mp3,2020-06-04_18h38.16.523,TranslationElicitation_eng-prolific,3.2.4,MacIntel,60,5dd693492b033b61545beaee,,1,0,98,26,1,97
,,,,,,,,,,,,,,,,,,,,,,,,,,,,,,,,,,,,,,,,,,g,2.932999849,G,FALSE,,,,,,,46,grifo,Spanish,Sounds/spa_grifo.mp3,2020-06-04_18h38.16.523,TranslationElicitation_eng-prolific,3.2.4,MacIntel,60,5dd693492b033b61545beaee,,1,0,98,42,1,97
,,,,,,,,,,,,,,,,,,,,,,,,,,,,,,,,,,,,,,,,,,backspace,3.618999958,,TRUE,,,,,,,46,grifo,Spanish,Sounds/spa_grifo.mp3,2020-06-04_18h38.16.523,TranslationElicitation_eng-prolific,3.2.4,MacIntel,60,5dd693492b033b61545beaee,,1,0,98,42,1,97
,,,,,,,,,,,,,,,,,,,,,,,,,,,,,,,,,,,,,,,,,,g,5.065999985,G,TRUE,,,,,,,46,grifo,Spanish,Sounds/spa_grifo.mp3,2020-06-04_18h38.16.523,TranslationElicitation_eng-prolific,3.2.4,MacIntel,60,5dd693492b033b61545beaee,,1,0,98,42,1,97
,,,,,,,,,,,,,,,,,,,,,,,,,,,,,,,,,,,,,,,,,,r,5.200000048,GR,TRUE,,,,,,,46,grifo,Spanish,Sounds/spa_grifo.mp3,2020-06-04_18h38.16.523,TranslationElicitation_eng-prolific,3.2.4,MacIntel,60,5dd693492b033b61545beaee,,1,0,98,42,1,97
,,,,,,,,,,,,,,,,,,,,,,,,,,,,,,,,,,,,,,,,,,a,5.382999897,GRA,TRUE,,,,,,,46,grifo,Spanish,Sounds/spa_grifo.mp3,2020-06-04_18h38.16.523,TranslationElicitation_eng-prolific,3.2.4,MacIntel,60,5dd693492b033b61545beaee,,1,0,98,42,1,97
,,,,,,,,,,,,,,,,,,,,,,,,,,,,,,,,,,,,,,,,,,s,5.483999968,GRAS,TRUE,,,,,,,46,grifo,Spanish,Sounds/spa_grifo.mp3,2020-06-04_18h38.16.523,TranslationElicitation_eng-prolific,3.2.4,MacIntel,60,5dd693492b033b61545beaee,,1,0,98,42,1,97
,,,,,,,,,,,,,,,,,,,,,,,,,,,,,,,,,,,,,,,,,,s,5.633999825,GRASS,TRUE,,,,,,,46,grifo,Spanish,Sounds/spa_grifo.mp3,2020-06-04_18h38.16.523,TranslationElicitation_eng-prolific,3.2.4,MacIntel,60,5dd693492b033b61545beaee,,1,0,98,42,1,97
,,,,,,,,,,,,,,,,,,,,,,,,,,,,,,,,,,,,,,,,,,return,5.950000048,GRASS,TRUE,,,,,,,46,grifo,Spanish,Sounds/spa_grifo.mp3,2020-06-04_18h38.16.523,TranslationElicitation_eng-prolific,3.2.4,MacIntel,60,5dd693492b033b61545beaee,5.950000048,1,0,98,42,1,97
,,,,,,,,,,,,,,,,,,,,,,,,,,,,,,,,,,,,,,,,,,,,,,,,,,,,46,grifo,Spanish,Sounds/spa_grifo.mp3,2020-06-04_18h38.16.523,TranslationElicitation_eng-prolific,3.2.4,MacIntel,60,5dd693492b033b61545beaee,,1,0,98,42,1,97
,,,,,,,,,,,,,,,,,,,,,,,,,,,,,,,,,,,,,,,,,,b,2.05099988,B,FALSE,,,,,,,6,boca,Spanish,Sounds/spa_boca.mp3,2020-06-04_18h38.16.523,TranslationElicitation_eng-prolific,3.2.4,MacIntel,60,5dd693492b033b61545beaee,,1,0,98,4,1,97
,,,,,,,,,,,,,,,,,,,,,,,,,,,,,,,,,,,,,,,,,,o,2.183999777,BO,FALSE,,,,,,,6,boca,Spanish,Sounds/spa_boca.mp3,2020-06-04_18h38.16.523,TranslationElicitation_eng-prolific,3.2.4,MacIntel,60,5dd693492b033b61545beaee,,1,0,98,4,1,97
,,,,,,,,,,,,,,,,,,,,,,,,,,,,,,,,,,,,,,,,,,o,2.31799984,BOO,FALSE,,,,,,,6,boca,Spanish,Sounds/spa_boca.mp3,2020-06-04_18h38.16.523,TranslationElicitation_eng-prolific,3.2.4,MacIntel,60,5dd693492b033b61545beaee,,1,0,98,4,1,97
,,,,,,,,,,,,,,,,,,,,,,,,,,,,,,,,,,,,,,,,,,k,2.467000008,BOOK,FALSE,,,,,,,6,boca,Spanish,Sounds/spa_boca.mp3,2020-06-04_18h38.16.523,TranslationElicitation_eng-prolific,3.2.4,MacIntel,60,5dd693492b033b61545beaee,,1,0,98,4,1,97
,,,,,,,,,,,,,,,,,,,,,,,,,,,,,,,,,,,,,,,,,,return,2.734999895,BOOK,FALSE,,,,,,,6,boca,Spanish,Sounds/spa_boca.mp3,2020-06-04_18h38.16.523,TranslationElicitation_eng-prolific,3.2.4,MacIntel,60,5dd693492b033b61545beaee,2.734999895,1,0,98,4,1,97
,,,,,,,,,,,,,,,,,,,,,,,,,,,,,,,,,,,,,,,,,,,,,,,,,,,,6,boca,Spanish,Sounds/spa_boca.mp3,2020-06-04_18h38.16.523,TranslationElicitation_eng-prolific,3.2.4,MacIntel,60,5dd693492b033b61545beaee,,1,0,98,4,1,97
,,,,,,,,,,,,,,,,,,,,,,,,,,,,,,,,,,,,,,,,,,return,1.934000015,,FALSE,,,,,,,31,cubo,Spanish,Sounds/spa_cubo.mp3,2020-06-04_18h38.16.523,TranslationElicitation_eng-prolific,3.2.4,MacIntel,60,5dd693492b033b61545beaee,1.934000015,1,0,98,27,1,97
,,,,,,,,,,,,,,,,,,,,,,,,,,,,,,,,,,,,,,,,,,,,,,,,,,,,31,cubo,Spanish,Sounds/spa_cubo.mp3,2020-06-04_18h38.16.523,TranslationElicitation_eng-prolific,3.2.4,MacIntel,60,5dd693492b033b61545beaee,,1,0,98,27,1,97
,,,,,,,,,,,,,,,,,,,,,,,,,,,,,,,,,,,,,,,,,,g,1.299000025,G,FALSE,,,,,,,47,guitarra,Spanish,Sounds/spa_guitarra.mp3,2020-06-04_18h38.16.523,TranslationElicitation_eng-prolific,3.2.4,MacIntel,60,5dd693492b033b61545beaee,,1,0,98,43,1,97
,,,,,,,,,,,,,,,,,,,,,,,,,,,,,,,,,,,,,,,,,,u,1.398000002,GU,FALSE,,,,,,,47,guitarra,Spanish,Sounds/spa_guitarra.mp3,2020-06-04_18h38.16.523,TranslationElicitation_eng-prolific,3.2.4,MacIntel,60,5dd693492b033b61545beaee,,1,0,98,43,1,97
,,,,,,,,,,,,,,,,,,,,,,,,,,,,,,,,,,,,,,,,,,i,1.549000025,GUI,FALSE,,,,,,,47,guitarra,Spanish,Sounds/spa_guitarra.mp3,2020-06-04_18h38.16.523,TranslationElicitation_eng-prolific,3.2.4,MacIntel,60,5dd693492b033b61545beaee,,1,0,98,43,1,97
,,,,,,,,,,,,,,,,,,,,,,,,,,,,,,,,,,,,,,,,,,t,1.582000017,GUIT,FALSE,,,,,,,47,guitarra,Spanish,Sounds/spa_guitarra.mp3,2020-06-04_18h38.16.523,TranslationElicitation_eng-prolific,3.2.4,MacIntel,60,5dd693492b033b61545beaee,,1,0,98,43,1,97
,,,,,,,,,,,,,,,,,,,,,,,,,,,,,,,,,,,,,,,,,,a,1.849999905,GUITA,FALSE,,,,,,,47,guitarra,Spanish,Sounds/spa_guitarra.mp3,2020-06-04_18h38.16.523,TranslationElicitation_eng-prolific,3.2.4,MacIntel,60,5dd693492b033b61545beaee,,1,0,98,43,1,97
,,,,,,,,,,,,,,,,,,,,,,,,,,,,,,,,,,,,,,,,,,r,2.032000065,GUITAR,FALSE,,,,,,,47,guitarra,Spanish,Sounds/spa_guitarra.mp3,2020-06-04_18h38.16.523,TranslationElicitation_eng-prolific,3.2.4,MacIntel,60,5dd693492b033b61545beaee,,1,0,98,43,1,97
,,,,,,,,,,,,,,,,,,,,,,,,,,,,,,,,,,,,,,,,,,return,2.164999962,GUITAR,FALSE,,,,,,,47,guitarra,Spanish,Sounds/spa_guitarra.mp3,2020-06-04_18h38.16.523,TranslationElicitation_eng-prolific,3.2.4,MacIntel,60,5dd693492b033b61545beaee,2.164999962,1,0,98,43,1,97
,,,,,,,,,,,,,,,,,,,,,,,,,,,,,,,,,,,,,,,,,,,,,,,,,,,,47,guitarra,Spanish,Sounds/spa_guitarra.mp3,2020-06-04_18h38.16.523,TranslationElicitation_eng-prolific,3.2.4,MacIntel,60,5dd693492b033b61545beaee,,1,0,98,43,1,97
,,,,,,,,,,,,,,,,,,,,,,,,,,,,,,,,,,,,,,,,,,b,7.250999928,B,FALSE,,,,,,,52,lapiz,Spanish,Sounds/spa_lapiz.mp3,2020-06-04_18h38.16.523,TranslationElicitation_eng-prolific,3.2.4,MacIntel,60,5dd693492b033b61545beaee,,1,0,98,48,1,97
,,,,,,,,,,,,,,,,,,,,,,,,,,,,,,,,,,,,,,,,,,backspace,7.585000038,,TRUE,,,,,,,52,lapiz,Spanish,Sounds/spa_lapiz.mp3,2020-06-04_18h38.16.523,TranslationElicitation_eng-prolific,3.2.4,MacIntel,60,5dd693492b033b61545beaee,,1,0,98,48,1,97
,,,,,,,,,,,,,,,,,,,,,,,,,,,,,,,,,,,,,,,,,,r,18.55299997,R,TRUE,,,,,,,52,lapiz,Spanish,Sounds/spa_lapiz.mp3,2020-06-04_18h38.16.523,TranslationElicitation_eng-prolific,3.2.4,MacIntel,60,5dd693492b033b61545beaee,,1,0,98,48,1,97
,,,,,,,,,,,,,,,,,,,,,,,,,,,,,,,,,,,,,,,,,,a,18.75300002,RA,TRUE,,,,,,,52,lapiz,Spanish,Sounds/spa_lapiz.mp3,2020-06-04_18h38.16.523,TranslationElicitation_eng-prolific,3.2.4,MacIntel,60,5dd693492b033b61545beaee,,1,0,98,48,1,97
,,,,,,,,,,,,,,,,,,,,,,,,,,,,,,,,,,,,,,,,,,b,18.83700013,RAB,TRUE,,,,,,,52,lapiz,Spanish,Sounds/spa_lapiz.mp3,2020-06-04_18h38.16.523,TranslationElicitation_eng-prolific,3.2.4,MacIntel,60,5dd693492b033b61545beaee,,1,0,98,48,1,97
,,,,,,,,,,,,,,,,,,,,,,,,,,,,,,,,,,,,,,,,,,b,18.98699999,RABB,TRUE,,,,,,,52,lapiz,Spanish,Sounds/spa_lapiz.mp3,2020-06-04_18h38.16.523,TranslationElicitation_eng-prolific,3.2.4,MacIntel,60,5dd693492b033b61545beaee,,1,0,98,48,1,97
,,,,,,,,,,,,,,,,,,,,,,,,,,,,,,,,,,,,,,,,,,i,19.16799998,RABBI,TRUE,,,,,,,52,lapiz,Spanish,Sounds/spa_lapiz.mp3,2020-06-04_18h38.16.523,TranslationElicitation_eng-prolific,3.2.4,MacIntel,60,5dd693492b033b61545beaee,,1,0,98,48,1,97
,,,,,,,,,,,,,,,,,,,,,,,,,,,,,,,,,,,,,,,,,,t,19.23600006,RABBIT,TRUE,,,,,,,52,lapiz,Spanish,Sounds/spa_lapiz.mp3,2020-06-04_18h38.16.523,TranslationElicitation_eng-prolific,3.2.4,MacIntel,60,5dd693492b033b61545beaee,,1,0,98,48,1,97
,,,,,,,,,,,,,,,,,,,,,,,,,,,,,,,,,,,,,,,,,,return,19.58500004,RABBIT,TRUE,,,,,,,52,lapiz,Spanish,Sounds/spa_lapiz.mp3,2020-06-04_18h38.16.523,TranslationElicitation_eng-prolific,3.2.4,MacIntel,60,5dd693492b033b61545beaee,19.58500004,1,0,98,48,1,97
,,,,,,,,,,,,,,,,,,,,,,,,,,,,,,,,,,,,,,,,,,,,,,,,,,,,52,lapiz,Spanish,Sounds/spa_lapiz.mp3,2020-06-04_18h38.16.523,TranslationElicitation_eng-prolific,3.2.4,MacIntel,60,5dd693492b033b61545beaee,,1,0,98,48,1,97
,,,,,,,,,,,,,,,,,,,,,,,,,,,,,,,,,,,,,,,,,,o,2.067000151,O,FALSE,,,,,,,71,ombligo,Spanish,Sounds/spa_ombligo.mp3,2020-06-04_18h38.16.523,TranslationElicitation_eng-prolific,3.2.4,MacIntel,60,5dd693492b033b61545beaee,,1,0,98,66,1,97
,,,,,,,,,,,,,,,,,,,,,,,,,,,,,,,,,,,,,,,,,,m,2.268000126,OM,FALSE,,,,,,,71,ombligo,Spanish,Sounds/spa_ombligo.mp3,2020-06-04_18h38.16.523,TranslationElicitation_eng-prolific,3.2.4,MacIntel,60,5dd693492b033b61545beaee,,1,0,98,66,1,97
,,,,,,,,,,,,,,,,,,,,,,,,,,,,,,,,,,,,,,,,,,n,2.433000088,OMN,FALSE,,,,,,,71,ombligo,Spanish,Sounds/spa_ombligo.mp3,2020-06-04_18h38.16.523,TranslationElicitation_eng-prolific,3.2.4,MacIntel,60,5dd693492b033b61545beaee,,1,0,98,66,1,97
,,,,,,,,,,,,,,,,,,,,,,,,,,,,,,,,,,,,,,,,,,o,2.651000023,OMNO,FALSE,,,,,,,71,ombligo,Spanish,Sounds/spa_ombligo.mp3,2020-06-04_18h38.16.523,TranslationElicitation_eng-prolific,3.2.4,MacIntel,60,5dd693492b033b61545beaee,,1,0,98,66,1,97
,,,,,,,,,,,,,,,,,,,,,,,,,,,,,,,,,,,,,,,,,,v,2.766000032,OMNOV,FALSE,,,,,,,71,ombligo,Spanish,Sounds/spa_ombligo.mp3,2020-06-04_18h38.16.523,TranslationElicitation_eng-prolific,3.2.4,MacIntel,60,5dd693492b033b61545beaee,,1,0,98,66,1,97
,,,,,,,,,,,,,,,,,,,,,,,,,,,,,,,,,,,,,,,,,,p,2.967999935,OMNOVP,FALSE,,,,,,,71,ombligo,Spanish,Sounds/spa_ombligo.mp3,2020-06-04_18h38.16.523,TranslationElicitation_eng-prolific,3.2.4,MacIntel,60,5dd693492b033b61545beaee,,1,0,98,66,1,97
,,,,,,,,,,,,,,,,,,,,,,,,,,,,,,,,,,,,,,,,,,backspace,3.150000095,OMNOV,TRUE,,,,,,,71,ombligo,Spanish,Sounds/spa_ombligo.mp3,2020-06-04_18h38.16.523,TranslationElicitation_eng-prolific,3.2.4,MacIntel,60,5dd693492b033b61545beaee,,1,0,98,66,1,97
,,,,,,,,,,,,,,,,,,,,,,,,,,,,,,,,,,,,,,,,,,backspace,3.301000118,OMNO,TRUE,,,,,,,71,ombligo,Spanish,Sounds/spa_ombligo.mp3,2020-06-04_18h38.16.523,TranslationElicitation_eng-prolific,3.2.4,MacIntel,60,5dd693492b033b61545beaee,,1,0,98,66,1,97
,,,,,,,,,,,,,,,,,,,,,,,,,,,,,,,,,,,,,,,,,,backspace,3.442000151,OMN,TRUE,,,,,,,71,ombligo,Spanish,Sounds/spa_ombligo.mp3,2020-06-04_18h38.16.523,TranslationElicitation_eng-prolific,3.2.4,MacIntel,60,5dd693492b033b61545beaee,,1,0,98,66,1,97
,,,,,,,,,,,,,,,,,,,,,,,,,,,,,,,,,,,,,,,,,,i,3.63499999,OMNI,TRUE,,,,,,,71,ombligo,Spanish,Sounds/spa_ombligo.mp3,2020-06-04_18h38.16.523,TranslationElicitation_eng-prolific,3.2.4,MacIntel,60,5dd693492b033b61545beaee,,1,0,98,66,1,97
,,,,,,,,,,,,,,,,,,,,,,,,,,,,,,,,,,,,,,,,,,v,4.151000023,OMNIV,TRUE,,,,,,,71,ombligo,Spanish,Sounds/spa_ombligo.mp3,2020-06-04_18h38.16.523,TranslationElicitation_eng-prolific,3.2.4,MacIntel,60,5dd693492b033b61545beaee,,1,0,98,66,1,97
,,,,,,,,,,,,,,,,,,,,,,,,,,,,,,,,,,,,,,,,,,o,4.518000126,OMNIVO,TRUE,,,,,,,71,ombligo,Spanish,Sounds/spa_ombligo.mp3,2020-06-04_18h38.16.523,TranslationElicitation_eng-prolific,3.2.4,MacIntel,60,5dd693492b033b61545beaee,,1,0,98,66,1,97
,,,,,,,,,,,,,,,,,,,,,,,,,,,,,,,,,,,,,,,,,,r,4.666000128,OMNIVOR,TRUE,,,,,,,71,ombligo,Spanish,Sounds/spa_ombligo.mp3,2020-06-04_18h38.16.523,TranslationElicitation_eng-prolific,3.2.4,MacIntel,60,5dd693492b033b61545beaee,,1,0,98,66,1,97
,,,,,,,,,,,,,,,,,,,,,,,,,,,,,,,,,,,,,,,,,,e,4.76699996,OMNIVORE,TRUE,,,,,,,71,ombligo,Spanish,Sounds/spa_ombligo.mp3,2020-06-04_18h38.16.523,TranslationElicitation_eng-prolific,3.2.4,MacIntel,60,5dd693492b033b61545beaee,,1,0,98,66,1,97
,,,,,,,,,,,,,,,,,,,,,,,,,,,,,,,,,,,,,,,,,,return,10.16700006,OMNIVORE,TRUE,,,,,,,71,ombligo,Spanish,Sounds/spa_ombligo.mp3,2020-06-04_18h38.16.523,TranslationElicitation_eng-prolific,3.2.4,MacIntel,60,5dd693492b033b61545beaee,10.16700006,1,0,98,66,1,97
,,,,,,,,,,,,,,,,,,,,,,,,,,,,,,,,,,,,,,,,,,,,,,,,,,,,71,ombligo,Spanish,Sounds/spa_ombligo.mp3,2020-06-04_18h38.16.523,TranslationElicitation_eng-prolific,3.2.4,MacIntel,60,5dd693492b033b61545beaee,,1,0,98,66,1,97
,,,,,,,,,,,,,,,,,,,,,,,,,,,,,,,,,,,,,,,,,,d,2.332000017,D,FALSE,,,,,,,33,dedo,Spanish,Sounds/spa_dedo.mp3,2020-06-04_18h38.16.523,TranslationElicitation_eng-prolific,3.2.4,MacIntel,60,5dd693492b033b61545beaee,,1,0,98,29,1,97
,,,,,,,,,,,,,,,,,,,,,,,,,,,,,,,,,,,,,,,,,,backspace,2.582999945,,TRUE,,,,,,,33,dedo,Spanish,Sounds/spa_dedo.mp3,2020-06-04_18h38.16.523,TranslationElicitation_eng-prolific,3.2.4,MacIntel,60,5dd693492b033b61545beaee,,1,0,98,29,1,97
,,,,,,,,,,,,,,,,,,,,,,,,,,,,,,,,,,,,,,,,,,f,2.664999962,F,TRUE,,,,,,,33,dedo,Spanish,Sounds/spa_dedo.mp3,2020-06-04_18h38.16.523,TranslationElicitation_eng-prolific,3.2.4,MacIntel,60,5dd693492b033b61545beaee,,1,0,98,29,1,97
,,,,,,,,,,,,,,,,,,,,,,,,,,,,,,,,,,,,,,,,,,r,2.798999786,FR,TRUE,,,,,,,33,dedo,Spanish,Sounds/spa_dedo.mp3,2020-06-04_18h38.16.523,TranslationElicitation_eng-prolific,3.2.4,MacIntel,60,5dd693492b033b61545beaee,,1,0,98,29,1,97
,,,,,,,,,,,,,,,,,,,,,,,,,,,,,,,,,,,,,,,,,,i,2.832000017,FRI,TRUE,,,,,,,33,dedo,Spanish,Sounds/spa_dedo.mp3,2020-06-04_18h38.16.523,TranslationElicitation_eng-prolific,3.2.4,MacIntel,60,5dd693492b033b61545beaee,,1,0,98,29,1,97
,,,,,,,,,,,,,,,,,,,,,,,,,,,,,,,,,,,,,,,,,,e,2.981999874,FRIE,TRUE,,,,,,,33,dedo,Spanish,Sounds/spa_dedo.mp3,2020-06-04_18h38.16.523,TranslationElicitation_eng-prolific,3.2.4,MacIntel,60,5dd693492b033b61545beaee,,1,0,98,29,1,97
,,,,,,,,,,,,,,,,,,,,,,,,,,,,,,,,,,,,,,,,,,n,3.082999945,FRIEN,TRUE,,,,,,,33,dedo,Spanish,Sounds/spa_dedo.mp3,2020-06-04_18h38.16.523,TranslationElicitation_eng-prolific,3.2.4,MacIntel,60,5dd693492b033b61545beaee,,1,0,98,29,1,97
,,,,,,,,,,,,,,,,,,,,,,,,,,,,,,,,,,,,,,,,,,d,3.217000008,FRIEND,TRUE,,,,,,,33,dedo,Spanish,Sounds/spa_dedo.mp3,2020-06-04_18h38.16.523,TranslationElicitation_eng-prolific,3.2.4,MacIntel,60,5dd693492b033b61545beaee,,1,0,98,29,1,97
,,,,,,,,,,,,,,,,,,,,,,,,,,,,,,,,,,,,,,,,,,return,3.482999802,FRIEND,TRUE,,,,,,,33,dedo,Spanish,Sounds/spa_dedo.mp3,2020-06-04_18h38.16.523,TranslationElicitation_eng-prolific,3.2.4,MacIntel,60,5dd693492b033b61545beaee,3.482999802,1,0,98,29,1,97
,,,,,,,,,,,,,,,,,,,,,,,,,,,,,,,,,,,,,,,,,,,,,,,,,,,,33,dedo,Spanish,Sounds/spa_dedo.mp3,2020-06-04_18h38.16.523,TranslationElicitation_eng-prolific,3.2.4,MacIntel,60,5dd693492b033b61545beaee,,1,0,98,29,1,97
,,,,,,,,,,,,,,,,,,,,,,,,,,,,,,,,,,,,,,,,,,c,1.266000032,C,FALSE,,,,,,,27,chocolate,Spanish,Sounds/spa_chocolate.mp3,2020-06-04_18h38.16.523,TranslationElicitation_eng-prolific,3.2.4,MacIntel,60,5dd693492b033b61545beaee,,1,0,98,24,1,97
,,,,,,,,,,,,,,,,,,,,,,,,,,,,,,,,,,,,,,,,,,h,1.367000103,CH,FALSE,,,,,,,27,chocolate,Spanish,Sounds/spa_chocolate.mp3,2020-06-04_18h38.16.523,TranslationElicitation_eng-prolific,3.2.4,MacIntel,60,5dd693492b033b61545beaee,,1,0,98,24,1,97
,,,,,,,,,,,,,,,,,,,,,,,,,,,,,,,,,,,,,,,,,,o,1.600000143,CHO,FALSE,,,,,,,27,chocolate,Spanish,Sounds/spa_chocolate.mp3,2020-06-04_18h38.16.523,TranslationElicitation_eng-prolific,3.2.4,MacIntel,60,5dd693492b033b61545beaee,,1,0,98,24,1,97
,,,,,,,,,,,,,,,,,,,,,,,,,,,,,,,,,,,,,,,,,,c,1.766000032,CHOC,FALSE,,,,,,,27,chocolate,Spanish,Sounds/spa_chocolate.mp3,2020-06-04_18h38.16.523,TranslationElicitation_eng-prolific,3.2.4,MacIntel,60,5dd693492b033b61545beaee,,1,0,98,24,1,97
,,,,,,,,,,,,,,,,,,,,,,,,,,,,,,,,,,,,,,,,,,k,1.900000095,CHOCK,FALSE,,,,,,,27,chocolate,Spanish,Sounds/spa_chocolate.mp3,2020-06-04_18h38.16.523,TranslationElicitation_eng-prolific,3.2.4,MacIntel,60,5dd693492b033b61545beaee,,1,0,98,24,1,97
,,,,,,,,,,,,,,,,,,,,,,,,,,,,,,,,,,,,,,,,,,backspace,2.382000208,CHOC,TRUE,,,,,,,27,chocolate,Spanish,Sounds/spa_chocolate.mp3,2020-06-04_18h38.16.523,TranslationElicitation_eng-prolific,3.2.4,MacIntel,60,5dd693492b033b61545beaee,,1,0,98,24,1,97
,,,,,,,,,,,,,,,,,,,,,,,,,,,,,,,,,,,,,,,,,,o,2.583000183,CHOCO,TRUE,,,,,,,27,chocolate,Spanish,Sounds/spa_chocolate.mp3,2020-06-04_18h38.16.523,TranslationElicitation_eng-prolific,3.2.4,MacIntel,60,5dd693492b033b61545beaee,,1,0,98,24,1,97
,,,,,,,,,,,,,,,,,,,,,,,,,,,,,,,,,,,,,,,,,,l,2.73300004,CHOCOL,TRUE,,,,,,,27,chocolate,Spanish,Sounds/spa_chocolate.mp3,2020-06-04_18h38.16.523,TranslationElicitation_eng-prolific,3.2.4,MacIntel,60,5dd693492b033b61545beaee,,1,0,98,24,1,97
,,,,,,,,,,,,,,,,,,,,,,,,,,,,,,,,,,,,,,,,,,a,2.817000151,CHOCOLA,TRUE,,,,,,,27,chocolate,Spanish,Sounds/spa_chocolate.mp3,2020-06-04_18h38.16.523,TranslationElicitation_eng-prolific,3.2.4,MacIntel,60,5dd693492b033b61545beaee,,1,0,98,24,1,97
,,,,,,,,,,,,,,,,,,,,,,,,,,,,,,,,,,,,,,,,,,t,3.016000032,CHOCOLAT,TRUE,,,,,,,27,chocolate,Spanish,Sounds/spa_chocolate.mp3,2020-06-04_18h38.16.523,TranslationElicitation_eng-prolific,3.2.4,MacIntel,60,5dd693492b033b61545beaee,,1,0,98,24,1,97
,,,,,,,,,,,,,,,,,,,,,,,,,,,,,,,,,,,,,,,,,,e,3.315999985,CHOCOLATE,TRUE,,,,,,,27,chocolate,Spanish,Sounds/spa_chocolate.mp3,2020-06-04_18h38.16.523,TranslationElicitation_eng-prolific,3.2.4,MacIntel,60,5dd693492b033b61545beaee,,1,0,98,24,1,97
,,,,,,,,,,,,,,,,,,,,,,,,,,,,,,,,,,,,,,,,,,return,3.567000151,CHOCOLATE,TRUE,,,,,,,27,chocolate,Spanish,Sounds/spa_chocolate.mp3,2020-06-04_18h38.16.523,TranslationElicitation_eng-prolific,3.2.4,MacIntel,60,5dd693492b033b61545beaee,3.567000151,1,0,98,24,1,97
,,,,,,,,,,,,,,,,,,,,,,,,,,,,,,,,,,,,,,,,,,,,,,,,,,,,27,chocolate,Spanish,Sounds/spa_chocolate.mp3,2020-06-04_18h38.16.523,TranslationElicitation_eng-prolific,3.2.4,MacIntel,60,5dd693492b033b61545beaee,,1,0,98,24,1,97
,,,,,,,,,,,,,,,,,,,,,,,,,,,,,,,,,,,,,,,,,,e,1.418000221,E,FALSE,,,,,,,34,ensalada,Spanish,Sounds/spa_ensalada.mp3,2020-06-04_18h38.16.523,TranslationElicitation_eng-prolific,3.2.4,MacIntel,60,5dd693492b033b61545beaee,,1,0,98,30,1,97
,,,,,,,,,,,,,,,,,,,,,,,,,,,,,,,,,,,,,,,,,,n,1.601000071,EN,FALSE,,,,,,,34,ensalada,Spanish,Sounds/spa_ensalada.mp3,2020-06-04_18h38.16.523,TranslationElicitation_eng-prolific,3.2.4,MacIntel,60,5dd693492b033b61545beaee,,1,0,98,30,1,97
,,,,,,,,,,,,,,,,,,,,,,,,,,,,,,,,,,,,,,,,,,c,1.685000181,ENC,FALSE,,,,,,,34,ensalada,Spanish,Sounds/spa_ensalada.mp3,2020-06-04_18h38.16.523,TranslationElicitation_eng-prolific,3.2.4,MacIntel,60,5dd693492b033b61545beaee,,1,0,98,30,1,97
,,,,,,,,,,,,,,,,,,,,,,,,,,,,,,,,,,,,,,,,,,h,1.768000126,ENCH,FALSE,,,,,,,34,ensalada,Spanish,Sounds/spa_ensalada.mp3,2020-06-04_18h38.16.523,TranslationElicitation_eng-prolific,3.2.4,MacIntel,60,5dd693492b033b61545beaee,,1,0,98,30,1,97
,,,,,,,,,,,,,,,,,,,,,,,,,,,,,,,,,,,,,,,,,,i,1.935000181,ENCHI,FALSE,,,,,,,34,ensalada,Spanish,Sounds/spa_ensalada.mp3,2020-06-04_18h38.16.523,TranslationElicitation_eng-prolific,3.2.4,MacIntel,60,5dd693492b033b61545beaee,,1,0,98,30,1,97
,,,,,,,,,,,,,,,,,,,,,,,,,,,,,,,,,,,,,,,,,,l,2.234000206,ENCHIL,FALSE,,,,,,,34,ensalada,Spanish,Sounds/spa_ensalada.mp3,2020-06-04_18h38.16.523,TranslationElicitation_eng-prolific,3.2.4,MacIntel,60,5dd693492b033b61545beaee,,1,0,98,30,1,97
,,,,,,,,,,,,,,,,,,,,,,,,,,,,,,,,,,,,,,,,,,a,2.601000071,ENCHILA,FALSE,,,,,,,34,ensalada,Spanish,Sounds/spa_ensalada.mp3,2020-06-04_18h38.16.523,TranslationElicitation_eng-prolific,3.2.4,MacIntel,60,5dd693492b033b61545beaee,,1,0,98,30,1,97
,,,,,,,,,,,,,,,,,,,,,,,,,,,,,,,,,,,,,,,,,,d,2.768000126,ENCHILAD,FALSE,,,,,,,34,ensalada,Spanish,Sounds/spa_ensalada.mp3,2020-06-04_18h38.16.523,TranslationElicitation_eng-prolific,3.2.4,MacIntel,60,5dd693492b033b61545beaee,,1,0,98,30,1,97
,,,,,,,,,,,,,,,,,,,,,,,,,,,,,,,,,,,,,,,,,,a,2.901000023,ENCHILADA,FALSE,,,,,,,34,ensalada,Spanish,Sounds/spa_ensalada.mp3,2020-06-04_18h38.16.523,TranslationElicitation_eng-prolific,3.2.4,MacIntel,60,5dd693492b033b61545beaee,,1,0,98,30,1,97
,,,,,,,,,,,,,,,,,,,,,,,,,,,,,,,,,,,,,,,,,,return,3.119000196,ENCHILADA,FALSE,,,,,,,34,ensalada,Spanish,Sounds/spa_ensalada.mp3,2020-06-04_18h38.16.523,TranslationElicitation_eng-prolific,3.2.4,MacIntel,60,5dd693492b033b61545beaee,3.119000196,1,0,98,30,1,97
,,,,,,,,,,,,,,,,,,,,,,,,,,,,,,,,,,,,,,,,,,,,,,,,,,,,34,ensalada,Spanish,Sounds/spa_ensalada.mp3,2020-06-04_18h38.16.523,TranslationElicitation_eng-prolific,3.2.4,MacIntel,60,5dd693492b033b61545beaee,,1,0,98,30,1,97
,,,,,,,,,,,,,,,,,,,,,,,,,,,,,,,,,,,,,,,,,,m,2.200000048,M,FALSE,,,,,,,53,leche,Spanish,Sounds/spa_leche.mp3,2020-06-04_18h38.16.523,TranslationElicitation_eng-prolific,3.2.4,MacIntel,60,5dd693492b033b61545beaee,,1,0,98,49,1,97
,,,,,,,,,,,,,,,,,,,,,,,,,,,,,,,,,,,,,,,,,,i,2.334000111,MI,FALSE,,,,,,,53,leche,Spanish,Sounds/spa_leche.mp3,2020-06-04_18h38.16.523,TranslationElicitation_eng-prolific,3.2.4,MacIntel,60,5dd693492b033b61545beaee,,1,0,98,49,1,97
,,,,,,,,,,,,,,,,,,,,,,,,,,,,,,,,,,,,,,,,,,l,2.516000032,MIL,FALSE,,,,,,,53,leche,Spanish,Sounds/spa_leche.mp3,2020-06-04_18h38.16.523,TranslationElicitation_eng-prolific,3.2.4,MacIntel,60,5dd693492b033b61545beaee,,1,0,98,49,1,97
,,,,,,,,,,,,,,,,,,,,,,,,,,,,,,,,,,,,,,,,,,k,2.650000095,MILK,FALSE,,,,,,,53,leche,Spanish,Sounds/spa_leche.mp3,2020-06-04_18h38.16.523,TranslationElicitation_eng-prolific,3.2.4,MacIntel,60,5dd693492b033b61545beaee,,1,0,98,49,1,97
,,,,,,,,,,,,,,,,,,,,,,,,,,,,,,,,,,,,,,,,,,return,2.850000143,MILK,FALSE,,,,,,,53,leche,Spanish,Sounds/spa_leche.mp3,2020-06-04_18h38.16.523,TranslationElicitation_eng-prolific,3.2.4,MacIntel,60,5dd693492b033b61545beaee,2.850000143,1,0,98,49,1,97
,,,,,,,,,,,,,,,,,,,,,,,,,,,,,,,,,,,,,,,,,,,,,,,,,,,,53,leche,Spanish,Sounds/spa_leche.mp3,2020-06-04_18h38.16.523,TranslationElicitation_eng-prolific,3.2.4,MacIntel,60,5dd693492b033b61545beaee,,1,0,98,49,1,97
,,,,,,,,,,,,,,,,,,,,,,,,,,,,,,,,,,,,,,,,,,g,3.016000032,G,FALSE,,,,,,,101,tren,Spanish,Sounds/spa_tren.mp3,2020-06-04_18h38.16.523,TranslationElicitation_eng-prolific,3.2.4,MacIntel,60,5dd693492b033b61545beaee,,1,0,98,95,1,97
,,,,,,,,,,,,,,,,,,,,,,,,,,,,,,,,,,,,,,,,,,r,3.118000031,GR,FALSE,,,,,,,101,tren,Spanish,Sounds/spa_tren.mp3,2020-06-04_18h38.16.523,TranslationElicitation_eng-prolific,3.2.4,MacIntel,60,5dd693492b033b61545beaee,,1,0,98,95,1,97
,,,,,,,,,,,,,,,,,,,,,,,,,,,,,,,,,,,,,,,,,,e,3.200000048,GRE,FALSE,,,,,,,101,tren,Spanish,Sounds/spa_tren.mp3,2020-06-04_18h38.16.523,TranslationElicitation_eng-prolific,3.2.4,MacIntel,60,5dd693492b033b61545beaee,,1,0,98,95,1,97
,,,,,,,,,,,,,,,,,,,,,,,,,,,,,,,,,,,,,,,,,,e,3.549999952,GREE,FALSE,,,,,,,101,tren,Spanish,Sounds/spa_tren.mp3,2020-06-04_18h38.16.523,TranslationElicitation_eng-prolific,3.2.4,MacIntel,60,5dd693492b033b61545beaee,,1,0,98,95,1,97
,,,,,,,,,,,,,,,,,,,,,,,,,,,,,,,,,,,,,,,,,,n,3.75,GREEN,FALSE,,,,,,,101,tren,Spanish,Sounds/spa_tren.mp3,2020-06-04_18h38.16.523,TranslationElicitation_eng-prolific,3.2.4,MacIntel,60,5dd693492b033b61545beaee,,1,0,98,95,1,97
,,,,,,,,,,,,,,,,,,,,,,,,,,,,,,,,,,,,,,,,,,s,3.818000078,GREENS,FALSE,,,,,,,101,tren,Spanish,Sounds/spa_tren.mp3,2020-06-04_18h38.16.523,TranslationElicitation_eng-prolific,3.2.4,MacIntel,60,5dd693492b033b61545beaee,,1,0,98,95,1,97
,,,,,,,,,,,,,,,,,,,,,,,,,,,,,,,,,,,,,,,,,,return,4.717000008,GREENS,FALSE,,,,,,,101,tren,Spanish,Sounds/spa_tren.mp3,2020-06-04_18h38.16.523,TranslationElicitation_eng-prolific,3.2.4,MacIntel,60,5dd693492b033b61545beaee,4.717000008,1,0,98,95,1,97
,,,,,,,,,,,,,,,,,,,,,,,,,,,,,,,,,,,,,,,,,,,,,,,,,,,,101,tren,Spanish,Sounds/spa_tren.mp3,2020-06-04_18h38.16.523,TranslationElicitation_eng-prolific,3.2.4,MacIntel,60,5dd693492b033b61545beaee,,1,0,98,95,1,97
,,,,,,,,,,,,,,,,,,,,,,,,,,,,,,,,,,,,,,,,,,h,2.900000095,H,FALSE,,,,,,,36,estrella,Spanish,Sounds/spa_estrella.mp3,2020-06-04_18h38.16.523,TranslationElicitation_eng-prolific,3.2.4,MacIntel,60,5dd693492b033b61545beaee,,1,0,98,32,1,97
,,,,,,,,,,,,,,,,,,,,,,,,,,,,,,,,,,,,,,,,,,backspace,3.233999968,,TRUE,,,,,,,36,estrella,Spanish,Sounds/spa_estrella.mp3,2020-06-04_18h38.16.523,TranslationElicitation_eng-prolific,3.2.4,MacIntel,60,5dd693492b033b61545beaee,,1,0,98,32,1,97
,,,,,,,,,,,,,,,,,,,,,,,,,,,,,,,,,,,,,,,,,,h,3.933000088,H,TRUE,,,,,,,36,estrella,Spanish,Sounds/spa_estrella.mp3,2020-06-04_18h38.16.523,TranslationElicitation_eng-prolific,3.2.4,MacIntel,60,5dd693492b033b61545beaee,,1,0,98,32,1,97
,,,,,,,,,,,,,,,,,,,,,,,,,,,,,,,,,,,,,,,,,,c,4.000999928,HC,TRUE,,,,,,,36,estrella,Spanish,Sounds/spa_estrella.mp3,2020-06-04_18h38.16.523,TranslationElicitation_eng-prolific,3.2.4,MacIntel,60,5dd693492b033b61545beaee,,1,0,98,32,1,97
,,,,,,,,,,,,,,,,,,,,,,,,,,,,,,,,,,,,,,,,,,backspace,4.25,H,TRUE,,,,,,,36,estrella,Spanish,Sounds/spa_estrella.mp3,2020-06-04_18h38.16.523,TranslationElicitation_eng-prolific,3.2.4,MacIntel,60,5dd693492b033b61545beaee,,1,0,98,32,1,97
,,,,,,,,,,,,,,,,,,,,,,,,,,,,,,,,,,,,,,,,,,backspace,4.382999897,,TRUE,,,,,,,36,estrella,Spanish,Sounds/spa_estrella.mp3,2020-06-04_18h38.16.523,TranslationElicitation_eng-prolific,3.2.4,MacIntel,60,5dd693492b033b61545beaee,,1,0,98,32,1,97
,,,,,,,,,,,,,,,,,,,,,,,,,,,,,,,,,,,,,,,,,,backspace,4.516000032,,TRUE,,,,,,,36,estrella,Spanish,Sounds/spa_estrella.mp3,2020-06-04_18h38.16.523,TranslationElicitation_eng-prolific,3.2.4,MacIntel,60,5dd693492b033b61545beaee,,1,0,98,32,1,97
,,,,,,,,,,,,,,,,,,,,,,,,,,,,,,,,,,,,,,,,,,e,6.815999985,E,TRUE,,,,,,,36,estrella,Spanish,Sounds/spa_estrella.mp3,2020-06-04_18h38.16.523,TranslationElicitation_eng-prolific,3.2.4,MacIntel,60,5dd693492b033b61545beaee,,1,0,98,32,1,97
,,,,,,,,,,,,,,,,,,,,,,,,,,,,,,,,,,,,,,,,,,s,7.117000103,ES,TRUE,,,,,,,36,estrella,Spanish,Sounds/spa_estrella.mp3,2020-06-04_18h38.16.523,TranslationElicitation_eng-prolific,3.2.4,MacIntel,60,5dd693492b033b61545beaee,,1,0,98,32,1,97
,,,,,,,,,,,,,,,,,,,,,,,,,,,,,,,,,,,,,,,,,,p,7.316999912,ESP,TRUE,,,,,,,36,estrella,Spanish,Sounds/spa_estrella.mp3,2020-06-04_18h38.16.523,TranslationElicitation_eng-prolific,3.2.4,MacIntel,60,5dd693492b033b61545beaee,,1,0,98,32,1,97
,,,,,,,,,,,,,,,,,,,,,,,,,,,,,,,,,,,,,,,,,,l,7.516000032,ESPL,TRUE,,,,,,,36,estrella,Spanish,Sounds/spa_estrella.mp3,2020-06-04_18h38.16.523,TranslationElicitation_eng-prolific,3.2.4,MacIntel,60,5dd693492b033b61545beaee,,1,0,98,32,1,97
,,,,,,,,,,,,,,,,,,,,,,,,,,,,,,,,,,,,,,,,,,a,7.650000095,ESPLA,TRUE,,,,,,,36,estrella,Spanish,Sounds/spa_estrella.mp3,2020-06-04_18h38.16.523,TranslationElicitation_eng-prolific,3.2.4,MacIntel,60,5dd693492b033b61545beaee,,1,0,98,32,1,97
