consentKey.keys,consentKey.rt,languageL1Key.keys,languageL1Key.rt,languageL2,languageL2OralKey.keys,languageL2OralKey.rt,languageL2WrittenKey.keys,languageL2WrittenKey.rt,languageL3OralKey.keys,languageL3OralKey.rt,languageL3WrittenKey.keys,languageL3WrittenKey.rt,languageCatalanOralKey.keys,languageCatalanOralKey.rt,languageCatalanWrittenKey.keys,languageCatalanWrittenKey.rt,languageCatalanTimeKey.keys,languageCatalanTimeKey.rt,languageSpanishOralKey.keys,languageSpanishOralKey.rt,languageSpanishWrittenKey.keys,languageSpanishWrittenKey.rt,languageSpanishTimeKey.keys,languageSpanishTimeKey.rt,age,demoSexKey.keys,demoSexKey.rt,demoEducationKey.keys,demoEducationKey.rt,city,demoVisionKey.keys,demoVisionKey.rt,demoLanguageKey.keys,demoLanguageKey.rt,setupLocationKey.keys,setupLocationKey.rt,setupNoiseKey.keys,setupNoiseKey.rt,instructionsKeys.keys,instructionsKeys.rt,keyPressed,keyPressTime,inputText,error,trialsPracticeCatalan.thisRepN,trialsPracticeCatalan.thisTrialN,trialsPracticeCatalan.thisN,trialsPracticeCatalan.thisIndex,trialsPracticeCatalan.ran,trialsPracticeCatalan.order,trial_id,word,test_language,soundfile,date,expName,psychopyVersion,OS,frameRate,participant,trialOffset,trialsCatalan.thisRepN,trialsCatalan.thisTrialN,trialsCatalan.thisN,trialsCatalan.thisIndex,trialsCatalan.ran,trialsCatalan.order
space,3.058000088,e,2.805999994,,,,,,,,,,1,11.91499996,1,7.799999952,1,6.250999928,2,5.304999828,1,3.164000034,1,7.023000002,25,m,2.047999859,3,6.129000187,RNORTHAMPTON,y,4.078999996,n,2.765000105,1,2.879999876,1,4.128999949,space,19.45599985,t,9.246000051,T,FALSE,1,0,5,2,1,4,147,jaqueta,Catalan,Sounds/cat_jaqueta.mp3,2020-06-05_16h20.39.976,TranslationElicitation_eng-prolific,3.2.4,Win32,60,5e0ce0bbda6bad4819153380,,,,,,,
,,,,,,,,,,,,,,,,,,,,,,,,,,,,,,,,,,,,,,,,,e,9.397000074,TE,FALSE,1,0,5,2,1,4,147,jaqueta,Catalan,Sounds/cat_jaqueta.mp3,2020-06-05_16h20.39.976,TranslationElicitation_eng-prolific,3.2.4,Win32,60,5e0ce0bbda6bad4819153380,,,,,,,
,,,,,,,,,,,,,,,,,,,,,,,,,,,,,,,,,,,,,,,,,n,9.463000059,TEN,FALSE,1,0,5,2,1,4,147,jaqueta,Catalan,Sounds/cat_jaqueta.mp3,2020-06-05_16h20.39.976,TranslationElicitation_eng-prolific,3.2.4,Win32,60,5e0ce0bbda6bad4819153380,,,,,,,
,,,,,,,,,,,,,,,,,,,,,,,,,,,,,,,,,,,,,,,,,n,9.595999956,TENN,FALSE,1,0,5,2,1,4,147,jaqueta,Catalan,Sounds/cat_jaqueta.mp3,2020-06-05_16h20.39.976,TranslationElicitation_eng-prolific,3.2.4,Win32,60,5e0ce0bbda6bad4819153380,,,,,,,
,,,,,,,,,,,,,,,,,,,,,,,,,,,,,,,,,,,,,,,,,i,9.711999893,TENNI,FALSE,1,0,5,2,1,4,147,jaqueta,Catalan,Sounds/cat_jaqueta.mp3,2020-06-05_16h20.39.976,TranslationElicitation_eng-prolific,3.2.4,Win32,60,5e0ce0bbda6bad4819153380,,,,,,,
,,,,,,,,,,,,,,,,,,,,,,,,,,,,,,,,,,,,,,,,,s,9.861999989,TENNIS,FALSE,1,0,5,2,1,4,147,jaqueta,Catalan,Sounds/cat_jaqueta.mp3,2020-06-05_16h20.39.976,TranslationElicitation_eng-prolific,3.2.4,Win32,60,5e0ce0bbda6bad4819153380,,,,,,,
,,,,,,,,,,,,,,,,,,,,,,,,,,,,,,,,,,,,,,,,,return,10.64599991,TENNIS,FALSE,1,0,5,2,1,4,147,jaqueta,Catalan,Sounds/cat_jaqueta.mp3,2020-06-05_16h20.39.976,TranslationElicitation_eng-prolific,3.2.4,Win32,60,5e0ce0bbda6bad4819153380,10.64599991,,,,,,
,,,,,,,,,,,,,,,,,,,,,,,,,,,,,,,,,,,,,,,,,,,,,1,0,5,2,1,4,147,jaqueta,Catalan,Sounds/cat_jaqueta.mp3,2020-06-05_16h20.39.976,TranslationElicitation_eng-prolific,3.2.4,Win32,60,5e0ce0bbda6bad4819153380,,,,,,,
,,,,,,,,,,,,,,,,,,,,,,,,,,,,,,,,,,,,,,,,,b,3.58100009,B,FALSE,1,0,5,1,1,4,126,corona,Catalan,Sounds/cat_corona.mp3,2020-06-05_16h20.39.976,TranslationElicitation_eng-prolific,3.2.4,Win32,60,5e0ce0bbda6bad4819153380,,,,,,,
,,,,,,,,,,,,,,,,,,,,,,,,,,,,,,,,,,,,,,,,,e,3.680999994,BE,FALSE,1,0,5,1,1,4,126,corona,Catalan,Sounds/cat_corona.mp3,2020-06-05_16h20.39.976,TranslationElicitation_eng-prolific,3.2.4,Win32,60,5e0ce0bbda6bad4819153380,,,,,,,
,,,,,,,,,,,,,,,,,,,,,,,,,,,,,,,,,,,,,,,,,e,3.81400013,BEE,FALSE,1,0,5,1,1,4,126,corona,Catalan,Sounds/cat_corona.mp3,2020-06-05_16h20.39.976,TranslationElicitation_eng-prolific,3.2.4,Win32,60,5e0ce0bbda6bad4819153380,,,,,,,
,,,,,,,,,,,,,,,,,,,,,,,,,,,,,,,,,,,,,,,,,r,3.947000027,BEER,FALSE,1,0,5,1,1,4,126,corona,Catalan,Sounds/cat_corona.mp3,2020-06-05_16h20.39.976,TranslationElicitation_eng-prolific,3.2.4,Win32,60,5e0ce0bbda6bad4819153380,,,,,,,
,,,,,,,,,,,,,,,,,,,,,,,,,,,,,,,,,,,,,,,,,return,4.664000034,BEER,FALSE,1,0,5,1,1,4,126,corona,Catalan,Sounds/cat_corona.mp3,2020-06-05_16h20.39.976,TranslationElicitation_eng-prolific,3.2.4,Win32,60,5e0ce0bbda6bad4819153380,4.664000034,,,,,,
,,,,,,,,,,,,,,,,,,,,,,,,,,,,,,,,,,,,,,,,,,,,,1,0,5,1,1,4,126,corona,Catalan,Sounds/cat_corona.mp3,2020-06-05_16h20.39.976,TranslationElicitation_eng-prolific,3.2.4,Win32,60,5e0ce0bbda6bad4819153380,,,,,,,
,,,,,,,,,,,,,,,,,,,,,,,,,,,,,,,,,,,,,,,,,t,2.798000097,T,FALSE,1,0,5,4,1,4,179,tigre,Catalan,Sounds/cat_tigre.mp3,2020-06-05_16h20.39.976,TranslationElicitation_eng-prolific,3.2.4,Win32,60,5e0ce0bbda6bad4819153380,,,,,,,
,,,,,,,,,,,,,,,,,,,,,,,,,,,,,,,,,,,,,,,,,i,2.916000128,TI,FALSE,1,0,5,4,1,4,179,tigre,Catalan,Sounds/cat_tigre.mp3,2020-06-05_16h20.39.976,TranslationElicitation_eng-prolific,3.2.4,Win32,60,5e0ce0bbda6bad4819153380,,,,,,,
,,,,,,,,,,,,,,,,,,,,,,,,,,,,,,,,,,,,,,,,,g,3.01699996,TIG,FALSE,1,0,5,4,1,4,179,tigre,Catalan,Sounds/cat_tigre.mp3,2020-06-05_16h20.39.976,TranslationElicitation_eng-prolific,3.2.4,Win32,60,5e0ce0bbda6bad4819153380,,,,,,,
,,,,,,,,,,,,,,,,,,,,,,,,,,,,,,,,,,,,,,,,,e,3.18200016,TIGE,FALSE,1,0,5,4,1,4,179,tigre,Catalan,Sounds/cat_tigre.mp3,2020-06-05_16h20.39.976,TranslationElicitation_eng-prolific,3.2.4,Win32,60,5e0ce0bbda6bad4819153380,,,,,,,
,,,,,,,,,,,,,,,,,,,,,,,,,,,,,,,,,,,,,,,,,r,3.249000072,TIGER,FALSE,1,0,5,4,1,4,179,tigre,Catalan,Sounds/cat_tigre.mp3,2020-06-05_16h20.39.976,TranslationElicitation_eng-prolific,3.2.4,Win32,60,5e0ce0bbda6bad4819153380,,,,,,,
,,,,,,,,,,,,,,,,,,,,,,,,,,,,,,,,,,,,,,,,,return,3.69900012,TIGER,FALSE,1,0,5,4,1,4,179,tigre,Catalan,Sounds/cat_tigre.mp3,2020-06-05_16h20.39.976,TranslationElicitation_eng-prolific,3.2.4,Win32,60,5e0ce0bbda6bad4819153380,3.69900012,,,,,,
,,,,,,,,,,,,,,,,,,,,,,,,,,,,,,,,,,,,,,,,,,,,,1,0,5,4,1,4,179,tigre,Catalan,Sounds/cat_tigre.mp3,2020-06-05_16h20.39.976,TranslationElicitation_eng-prolific,3.2.4,Win32,60,5e0ce0bbda6bad4819153380,,,,,,,
,,,,,,,,,,,,,,,,,,,,,,,,,,,,,,,,,,,,,,,,,m,6.86500001,M,FALSE,1,0,5,3,1,4,159,onada,Catalan,Sounds/cat_onada.mp3,2020-06-05_16h20.39.976,TranslationElicitation_eng-prolific,3.2.4,Win32,60,5e0ce0bbda6bad4819153380,,,,,,,
,,,,,,,,,,,,,,,,,,,,,,,,,,,,,,,,,,,,,,,,,o,6.964000225,MO,FALSE,1,0,5,3,1,4,159,onada,Catalan,Sounds/cat_onada.mp3,2020-06-05_16h20.39.976,TranslationElicitation_eng-prolific,3.2.4,Win32,60,5e0ce0bbda6bad4819153380,,,,,,,
,,,,,,,,,,,,,,,,,,,,,,,,,,,,,,,,,,,,,,,,,t,7.08100009,MOT,FALSE,1,0,5,3,1,4,159,onada,Catalan,Sounds/cat_onada.mp3,2020-06-05_16h20.39.976,TranslationElicitation_eng-prolific,3.2.4,Win32,60,5e0ce0bbda6bad4819153380,,,,,,,
,,,,,,,,,,,,,,,,,,,,,,,,,,,,,,,,,,,,,,,,,h,7.215000153,MOTH,FALSE,1,0,5,3,1,4,159,onada,Catalan,Sounds/cat_onada.mp3,2020-06-05_16h20.39.976,TranslationElicitation_eng-prolific,3.2.4,Win32,60,5e0ce0bbda6bad4819153380,,,,,,,
,,,,,,,,,,,,,,,,,,,,,,,,,,,,,,,,,,,,,,,,,e,7.34800005,MOTHE,FALSE,1,0,5,3,1,4,159,onada,Catalan,Sounds/cat_onada.mp3,2020-06-05_16h20.39.976,TranslationElicitation_eng-prolific,3.2.4,Win32,60,5e0ce0bbda6bad4819153380,,,,,,,
,,,,,,,,,,,,,,,,,,,,,,,,,,,,,,,,,,,,,,,,,r,7.964000225,MOTHER,FALSE,1,0,5,3,1,4,159,onada,Catalan,Sounds/cat_onada.mp3,2020-06-05_16h20.39.976,TranslationElicitation_eng-prolific,3.2.4,Win32,60,5e0ce0bbda6bad4819153380,,,,,,,
,,,,,,,,,,,,,,,,,,,,,,,,,,,,,,,,,,,,,,,,,return,8.864000082,MOTHER,FALSE,1,0,5,3,1,4,159,onada,Catalan,Sounds/cat_onada.mp3,2020-06-05_16h20.39.976,TranslationElicitation_eng-prolific,3.2.4,Win32,60,5e0ce0bbda6bad4819153380,8.864000082,,,,,,
,,,,,,,,,,,,,,,,,,,,,,,,,,,,,,,,,,,,,,,,,,,,,1,0,5,3,1,4,159,onada,Catalan,Sounds/cat_onada.mp3,2020-06-05_16h20.39.976,TranslationElicitation_eng-prolific,3.2.4,Win32,60,5e0ce0bbda6bad4819153380,,,,,,,
,,,,,,,,,,,,,,,,,,,,,,,,,,,,,,,,,,,,,,,,,b,2.48300004,B,FALSE,1,0,5,0,1,4,109,arbre,Catalan,Sounds/cat_arbre.mp3,2020-06-05_16h20.39.976,TranslationElicitation_eng-prolific,3.2.4,Win32,60,5e0ce0bbda6bad4819153380,,,,,,,
,,,,,,,,,,,,,,,,,,,,,,,,,,,,,,,,,,,,,,,,,r,2.582999945,BR,FALSE,1,0,5,0,1,4,109,arbre,Catalan,Sounds/cat_arbre.mp3,2020-06-05_16h20.39.976,TranslationElicitation_eng-prolific,3.2.4,Win32,60,5e0ce0bbda6bad4819153380,,,,,,,
,,,,,,,,,,,,,,,,,,,,,,,,,,,,,,,,,,,,,,,,,o,2.648999929,BRO,FALSE,1,0,5,0,1,4,109,arbre,Catalan,Sounds/cat_arbre.mp3,2020-06-05_16h20.39.976,TranslationElicitation_eng-prolific,3.2.4,Win32,60,5e0ce0bbda6bad4819153380,,,,,,,
,,,,,,,,,,,,,,,,,,,,,,,,,,,,,,,,,,,,,,,,,t,2.76699996,BROT,FALSE,1,0,5,0,1,4,109,arbre,Catalan,Sounds/cat_arbre.mp3,2020-06-05_16h20.39.976,TranslationElicitation_eng-prolific,3.2.4,Win32,60,5e0ce0bbda6bad4819153380,,,,,,,
,,,,,,,,,,,,,,,,,,,,,,,,,,,,,,,,,,,,,,,,,h,2.848999977,BROTH,FALSE,1,0,5,0,1,4,109,arbre,Catalan,Sounds/cat_arbre.mp3,2020-06-05_16h20.39.976,TranslationElicitation_eng-prolific,3.2.4,Win32,60,5e0ce0bbda6bad4819153380,,,,,,,
,,,,,,,,,,,,,,,,,,,,,,,,,,,,,,,,,,,,,,,,,e,2.931999922,BROTHE,FALSE,1,0,5,0,1,4,109,arbre,Catalan,Sounds/cat_arbre.mp3,2020-06-05_16h20.39.976,TranslationElicitation_eng-prolific,3.2.4,Win32,60,5e0ce0bbda6bad4819153380,,,,,,,
,,,,,,,,,,,,,,,,,,,,,,,,,,,,,,,,,,,,,,,,,r,2.98300004,BROTHER,FALSE,1,0,5,0,1,4,109,arbre,Catalan,Sounds/cat_arbre.mp3,2020-06-05_16h20.39.976,TranslationElicitation_eng-prolific,3.2.4,Win32,60,5e0ce0bbda6bad4819153380,,,,,,,
,,,,,,,,,,,,,,,,,,,,,,,,,,,,,,,,,,,,,,,,,return,3.266000032,BROTHER,FALSE,1,0,5,0,1,4,109,arbre,Catalan,Sounds/cat_arbre.mp3,2020-06-05_16h20.39.976,TranslationElicitation_eng-prolific,3.2.4,Win32,60,5e0ce0bbda6bad4819153380,3.266000032,,,,,,
,,,,,,,,,,,,,,,,,,,,,,,,,,,,,,,,,,,,,,,,,,,,,1,0,5,0,1,4,109,arbre,Catalan,Sounds/cat_arbre.mp3,2020-06-05_16h20.39.976,TranslationElicitation_eng-prolific,3.2.4,Win32,60,5e0ce0bbda6bad4819153380,,,,,,,
,,,,,,,,,,,,,,,,,,,,,,,,,,,,,,,,,,,,,,,,,c,4.48300004,C,FALSE,,,,,,,138,galeta,Catalan,Sounds/cat_galeta.mp3,2020-06-05_16h20.39.976,TranslationElicitation_eng-prolific,3.2.4,Win32,60,5e0ce0bbda6bad4819153380,,1,0,81,32,1,80
,,,,,,,,,,,,,,,,,,,,,,,,,,,,,,,,,,,,,,,,,o,4.584000111,CO,FALSE,,,,,,,138,galeta,Catalan,Sounds/cat_galeta.mp3,2020-06-05_16h20.39.976,TranslationElicitation_eng-prolific,3.2.4,Win32,60,5e0ce0bbda6bad4819153380,,1,0,81,32,1,80
,,,,,,,,,,,,,,,,,,,,,,,,,,,,,,,,,,,,,,,,,l,4.782000065,COL,FALSE,,,,,,,138,galeta,Catalan,Sounds/cat_galeta.mp3,2020-06-05_16h20.39.976,TranslationElicitation_eng-prolific,3.2.4,Win32,60,5e0ce0bbda6bad4819153380,,1,0,81,32,1,80
,,,,,,,,,,,,,,,,,,,,,,,,,,,,,,,,,,,,,,,,,l,4.882999897,COLL,FALSE,,,,,,,138,galeta,Catalan,Sounds/cat_galeta.mp3,2020-06-05_16h20.39.976,TranslationElicitation_eng-prolific,3.2.4,Win32,60,5e0ce0bbda6bad4819153380,,1,0,81,32,1,80
,,,,,,,,,,,,,,,,,,,,,,,,,,,,,,,,,,,,,,,,,e,5.016000032,COLLE,FALSE,,,,,,,138,galeta,Catalan,Sounds/cat_galeta.mp3,2020-06-05_16h20.39.976,TranslationElicitation_eng-prolific,3.2.4,Win32,60,5e0ce0bbda6bad4819153380,,1,0,81,32,1,80
,,,,,,,,,,,,,,,,,,,,,,,,,,,,,,,,,,,,,,,,,c,5.164999962,COLLEC,FALSE,,,,,,,138,galeta,Catalan,Sounds/cat_galeta.mp3,2020-06-05_16h20.39.976,TranslationElicitation_eng-prolific,3.2.4,Win32,60,5e0ce0bbda6bad4819153380,,1,0,81,32,1,80
,,,,,,,,,,,,,,,,,,,,,,,,,,,,,,,,,,,,,,,,,t,5.482000113,COLLECT,FALSE,,,,,,,138,galeta,Catalan,Sounds/cat_galeta.mp3,2020-06-05_16h20.39.976,TranslationElicitation_eng-prolific,3.2.4,Win32,60,5e0ce0bbda6bad4819153380,,1,0,81,32,1,80
,,,,,,,,,,,,,,,,,,,,,,,,,,,,,,,,,,,,,,,,,return,5.815000057,COLLECT,FALSE,,,,,,,138,galeta,Catalan,Sounds/cat_galeta.mp3,2020-06-05_16h20.39.976,TranslationElicitation_eng-prolific,3.2.4,Win32,60,5e0ce0bbda6bad4819153380,5.815000057,1,0,81,32,1,80
,,,,,,,,,,,,,,,,,,,,,,,,,,,,,,,,,,,,,,,,,,,,,,,,,,,138,galeta,Catalan,Sounds/cat_galeta.mp3,2020-06-05_16h20.39.976,TranslationElicitation_eng-prolific,3.2.4,Win32,60,5e0ce0bbda6bad4819153380,,1,0,81,32,1,80
,,,,,,,,,,,,,,,,,,,,,,,,,,,,,,,,,,,,,,,,,g,3.480999947,G,FALSE,,,,,,,145,got,Catalan,Sounds/cat_got.mp3,2020-06-05_16h20.39.976,TranslationElicitation_eng-prolific,3.2.4,Win32,60,5e0ce0bbda6bad4819153380,,1,0,81,39,1,80
,,,,,,,,,,,,,,,,,,,,,,,,,,,,,,,,,,,,,,,,,o,3.631000042,GO,FALSE,,,,,,,145,got,Catalan,Sounds/cat_got.mp3,2020-06-05_16h20.39.976,TranslationElicitation_eng-prolific,3.2.4,Win32,60,5e0ce0bbda6bad4819153380,,1,0,81,39,1,80
,,,,,,,,,,,,,,,,,,,,,,,,,,,,,,,,,,,,,,,,,d,3.763999939,GOD,FALSE,,,,,,,145,got,Catalan,Sounds/cat_got.mp3,2020-06-05_16h20.39.976,TranslationElicitation_eng-prolific,3.2.4,Win32,60,5e0ce0bbda6bad4819153380,,1,0,81,39,1,80
,,,,,,,,,,,,,,,,,,,,,,,,,,,,,,,,,,,,,,,,,return,4.06400013,GOD,FALSE,,,,,,,145,got,Catalan,Sounds/cat_got.mp3,2020-06-05_16h20.39.976,TranslationElicitation_eng-prolific,3.2.4,Win32,60,5e0ce0bbda6bad4819153380,4.06400013,1,0,81,39,1,80
,,,,,,,,,,,,,,,,,,,,,,,,,,,,,,,,,,,,,,,,,,,,,,,,,,,145,got,Catalan,Sounds/cat_got.mp3,2020-06-05_16h20.39.976,TranslationElicitation_eng-prolific,3.2.4,Win32,60,5e0ce0bbda6bad4819153380,,1,0,81,39,1,80
,,,,,,,,,,,,,,,,,,,,,,,,,,,,,,,,,,,,,,,,,f,4.879999876,F,FALSE,,,,,,,123,cavall,Catalan,Sounds/cat_cavall.mp3,2020-06-05_16h20.39.976,TranslationElicitation_eng-prolific,3.2.4,Win32,60,5e0ce0bbda6bad4819153380,,1,0,81,18,1,80
,,,,,,,,,,,,,,,,,,,,,,,,,,,,,,,,,,,,,,,,,a,5.080999851,FA,FALSE,,,,,,,123,cavall,Catalan,Sounds/cat_cavall.mp3,2020-06-05_16h20.39.976,TranslationElicitation_eng-prolific,3.2.4,Win32,60,5e0ce0bbda6bad4819153380,,1,0,81,18,1,80
,,,,,,,,,,,,,,,,,,,,,,,,,,,,,,,,,,,,,,,,,s,5.180000067,FAS,FALSE,,,,,,,123,cavall,Catalan,Sounds/cat_cavall.mp3,2020-06-05_16h20.39.976,TranslationElicitation_eng-prolific,3.2.4,Win32,60,5e0ce0bbda6bad4819153380,,1,0,81,18,1,80
,,,,,,,,,,,,,,,,,,,,,,,,,,,,,,,,,,,,,,,,,t,5.463000059,FAST,FALSE,,,,,,,123,cavall,Catalan,Sounds/cat_cavall.mp3,2020-06-05_16h20.39.976,TranslationElicitation_eng-prolific,3.2.4,Win32,60,5e0ce0bbda6bad4819153380,,1,0,81,18,1,80
,,,,,,,,,,,,,,,,,,,,,,,,,,,,,,,,,,,,,,,,,return,5.779999971,FAST,FALSE,,,,,,,123,cavall,Catalan,Sounds/cat_cavall.mp3,2020-06-05_16h20.39.976,TranslationElicitation_eng-prolific,3.2.4,Win32,60,5e0ce0bbda6bad4819153380,5.779999971,1,0,81,18,1,80
,,,,,,,,,,,,,,,,,,,,,,,,,,,,,,,,,,,,,,,,,,,,,,,,,,,123,cavall,Catalan,Sounds/cat_cavall.mp3,2020-06-05_16h20.39.976,TranslationElicitation_eng-prolific,3.2.4,Win32,60,5e0ce0bbda6bad4819153380,,1,0,81,18,1,80
,,,,,,,,,,,,,,,,,,,,,,,,,,,,,,,,,,,,,,,,,w,4.497999907,W,FALSE,,,,,,,105,aigua,Catalan,Sounds/cat_aigua.mp3,2020-06-05_16h20.39.976,TranslationElicitation_eng-prolific,3.2.4,Win32,60,5e0ce0bbda6bad4819153380,,1,0,81,1,1,80
,,,,,,,,,,,,,,,,,,,,,,,,,,,,,,,,,,,,,,,,,h,4.98300004,WH,FALSE,,,,,,,105,aigua,Catalan,Sounds/cat_aigua.mp3,2020-06-05_16h20.39.976,TranslationElicitation_eng-prolific,3.2.4,Win32,60,5e0ce0bbda6bad4819153380,,1,0,81,1,1,80
,,,,,,,,,,,,,,,,,,,,,,,,,,,,,,,,,,,,,,,,,y,5.282000065,WHY,FALSE,,,,,,,105,aigua,Catalan,Sounds/cat_aigua.mp3,2020-06-05_16h20.39.976,TranslationElicitation_eng-prolific,3.2.4,Win32,60,5e0ce0bbda6bad4819153380,,1,0,81,1,1,80
,,,,,,,,,,,,,,,,,,,,,,,,,,,,,,,,,,,,,,,,,return,5.647000074,WHY,FALSE,,,,,,,105,aigua,Catalan,Sounds/cat_aigua.mp3,2020-06-05_16h20.39.976,TranslationElicitation_eng-prolific,3.2.4,Win32,60,5e0ce0bbda6bad4819153380,5.647000074,1,0,81,1,1,80
,,,,,,,,,,,,,,,,,,,,,,,,,,,,,,,,,,,,,,,,,,,,,,,,,,,105,aigua,Catalan,Sounds/cat_aigua.mp3,2020-06-05_16h20.39.976,TranslationElicitation_eng-prolific,3.2.4,Win32,60,5e0ce0bbda6bad4819153380,,1,0,81,1,1,80
,,,,,,,,,,,,,,,,,,,,,,,,,,,,,,,,,,,,,,,,,h,4.664999962,H,FALSE,,,,,,,141,gerd,Catalan,Sounds/cat_gerd.mp3,2020-06-05_16h20.39.976,TranslationElicitation_eng-prolific,3.2.4,Win32,60,5e0ce0bbda6bad4819153380,,1,0,81,35,1,80
,,,,,,,,,,,,,,,,,,,,,,,,,,,,,,,,,,,,,,,,,a,4.799000025,HA,FALSE,,,,,,,141,gerd,Catalan,Sounds/cat_gerd.mp3,2020-06-05_16h20.39.976,TranslationElicitation_eng-prolific,3.2.4,Win32,60,5e0ce0bbda6bad4819153380,,1,0,81,35,1,80
,,,,,,,,,,,,,,,,,,,,,,,,,,,,,,,,,,,,,,,,,i,4.964999914,HAI,FALSE,,,,,,,141,gerd,Catalan,Sounds/cat_gerd.mp3,2020-06-05_16h20.39.976,TranslationElicitation_eng-prolific,3.2.4,Win32,60,5e0ce0bbda6bad4819153380,,1,0,81,35,1,80
,,,,,,,,,,,,,,,,,,,,,,,,,,,,,,,,,,,,,,,,,r,5.368000031,HAIR,FALSE,,,,,,,141,gerd,Catalan,Sounds/cat_gerd.mp3,2020-06-05_16h20.39.976,TranslationElicitation_eng-prolific,3.2.4,Win32,60,5e0ce0bbda6bad4819153380,,1,0,81,35,1,80
,,,,,,,,,,,,,,,,,,,,,,,,,,,,,,,,,,,,,,,,,return,5.664999962,HAIR,FALSE,,,,,,,141,gerd,Catalan,Sounds/cat_gerd.mp3,2020-06-05_16h20.39.976,TranslationElicitation_eng-prolific,3.2.4,Win32,60,5e0ce0bbda6bad4819153380,5.664999962,1,0,81,35,1,80
,,,,,,,,,,,,,,,,,,,,,,,,,,,,,,,,,,,,,,,,,,,,,,,,,,,141,gerd,Catalan,Sounds/cat_gerd.mp3,2020-06-05_16h20.39.976,TranslationElicitation_eng-prolific,3.2.4,Win32,60,5e0ce0bbda6bad4819153380,,1,0,81,35,1,80
,,,,,,,,,,,,,,,,,,,,,,,,,,,,,,,,,,,,,,,,,f,4.11500001,F,FALSE,,,,,,,135,formiga,Catalan,Sounds/cat_formiga.mp3,2020-06-05_16h20.39.976,TranslationElicitation_eng-prolific,3.2.4,Win32,60,5e0ce0bbda6bad4819153380,,1,0,81,29,1,80
,,,,,,,,,,,,,,,,,,,,,,,,,,,,,,,,,,,,,,,,,o,4.182999849,FO,FALSE,,,,,,,135,formiga,Catalan,Sounds/cat_formiga.mp3,2020-06-05_16h20.39.976,TranslationElicitation_eng-prolific,3.2.4,Win32,60,5e0ce0bbda6bad4819153380,,1,0,81,29,1,80
,,,,,,,,,,,,,,,,,,,,,,,,,,,,,,,,,,,,,,,,,o,4.315000057,FOO,FALSE,,,,,,,135,formiga,Catalan,Sounds/cat_formiga.mp3,2020-06-05_16h20.39.976,TranslationElicitation_eng-prolific,3.2.4,Win32,60,5e0ce0bbda6bad4819153380,,1,0,81,29,1,80
,,,,,,,,,,,,,,,,,,,,,,,,,,,,,,,,,,,,,,,,,d,4.414999962,FOOD,FALSE,,,,,,,135,formiga,Catalan,Sounds/cat_formiga.mp3,2020-06-05_16h20.39.976,TranslationElicitation_eng-prolific,3.2.4,Win32,60,5e0ce0bbda6bad4819153380,,1,0,81,29,1,80
,,,,,,,,,,,,,,,,,,,,,,,,,,,,,,,,,,,,,,,,,return,4.664999962,FOOD,FALSE,,,,,,,135,formiga,Catalan,Sounds/cat_formiga.mp3,2020-06-05_16h20.39.976,TranslationElicitation_eng-prolific,3.2.4,Win32,60,5e0ce0bbda6bad4819153380,4.664999962,1,0,81,29,1,80
,,,,,,,,,,,,,,,,,,,,,,,,,,,,,,,,,,,,,,,,,,,,,,,,,,,135,formiga,Catalan,Sounds/cat_formiga.mp3,2020-06-05_16h20.39.976,TranslationElicitation_eng-prolific,3.2.4,Win32,60,5e0ce0bbda6bad4819153380,,1,0,81,29,1,80
,,,,,,,,,,,,,,,,,,,,,,,,,,,,,,,,,,,,,,,,,b,4.115999937,B,FALSE,,,,,,,116,bolquer,Catalan,Sounds/cat_bolquer.mp3,2020-06-05_16h20.39.976,TranslationElicitation_eng-prolific,3.2.4,Win32,60,5e0ce0bbda6bad4819153380,,1,0,81,11,1,80
,,,,,,,,,,,,,,,,,,,,,,,,,,,,,,,,,,,,,,,,,i,4.198999882,BI,FALSE,,,,,,,116,bolquer,Catalan,Sounds/cat_bolquer.mp3,2020-06-05_16h20.39.976,TranslationElicitation_eng-prolific,3.2.4,Win32,60,5e0ce0bbda6bad4819153380,,1,0,81,11,1,80
,,,,,,,,,,,,,,,,,,,,,,,,,,,,,,,,,,,,,,,,,g,4.299000025,BIG,FALSE,,,,,,,116,bolquer,Catalan,Sounds/cat_bolquer.mp3,2020-06-05_16h20.39.976,TranslationElicitation_eng-prolific,3.2.4,Win32,60,5e0ce0bbda6bad4819153380,,1,0,81,11,1,80
,,,,,,,,,,,,,,,,,,,,,,,,,,,,,,,,,,,,,,,,,return,4.697999954,BIG,FALSE,,,,,,,116,bolquer,Catalan,Sounds/cat_bolquer.mp3,2020-06-05_16h20.39.976,TranslationElicitation_eng-prolific,3.2.4,Win32,60,5e0ce0bbda6bad4819153380,4.697999954,1,0,81,11,1,80
,,,,,,,,,,,,,,,,,,,,,,,,,,,,,,,,,,,,,,,,,,,,,,,,,,,116,bolquer,Catalan,Sounds/cat_bolquer.mp3,2020-06-05_16h20.39.976,TranslationElicitation_eng-prolific,3.2.4,Win32,60,5e0ce0bbda6bad4819153380,,1,0,81,11,1,80
,,,,,,,,,,,,,,,,,,,,,,,,,,,,,,,,,,,,,,,,,b,5.513999939,B,FALSE,,,,,,,170,ploma,Catalan,Sounds/cat_ploma.mp3,2020-06-05_16h20.39.976,TranslationElicitation_eng-prolific,3.2.4,Win32,60,5e0ce0bbda6bad4819153380,,1,0,81,62,1,80
,,,,,,,,,,,,,,,,,,,,,,,,,,,,,,,,,,,,,,,,,r,5.565000057,BR,FALSE,,,,,,,170,ploma,Catalan,Sounds/cat_ploma.mp3,2020-06-05_16h20.39.976,TranslationElicitation_eng-prolific,3.2.4,Win32,60,5e0ce0bbda6bad4819153380,,1,0,81,62,1,80
,,,,,,,,,,,,,,,,,,,,,,,,,,,,,,,,,,,,,,,,,e,5.730999947,BRE,FALSE,,,,,,,170,ploma,Catalan,Sounds/cat_ploma.mp3,2020-06-05_16h20.39.976,TranslationElicitation_eng-prolific,3.2.4,Win32,60,5e0ce0bbda6bad4819153380,,1,0,81,62,1,80
,,,,,,,,,,,,,,,,,,,,,,,,,,,,,,,,,,,,,,,,,a,5.914000034,BREA,FALSE,,,,,,,170,ploma,Catalan,Sounds/cat_ploma.mp3,2020-06-05_16h20.39.976,TranslationElicitation_eng-prolific,3.2.4,Win32,60,5e0ce0bbda6bad4819153380,,1,0,81,62,1,80
,,,,,,,,,,,,,,,,,,,,,,,,,,,,,,,,,,,,,,,,,d,6.013999939,BREAD,FALSE,,,,,,,170,ploma,Catalan,Sounds/cat_ploma.mp3,2020-06-05_16h20.39.976,TranslationElicitation_eng-prolific,3.2.4,Win32,60,5e0ce0bbda6bad4819153380,,1,0,81,62,1,80
,,,,,,,,,,,,,,,,,,,,,,,,,,,,,,,,,,,,,,,,,return,6.197000027,BREAD,FALSE,,,,,,,170,ploma,Catalan,Sounds/cat_ploma.mp3,2020-06-05_16h20.39.976,TranslationElicitation_eng-prolific,3.2.4,Win32,60,5e0ce0bbda6bad4819153380,6.197000027,1,0,81,62,1,80
,,,,,,,,,,,,,,,,,,,,,,,,,,,,,,,,,,,,,,,,,,,,,,,,,,,170,ploma,Catalan,Sounds/cat_ploma.mp3,2020-06-05_16h20.39.976,TranslationElicitation_eng-prolific,3.2.4,Win32,60,5e0ce0bbda6bad4819153380,,1,0,81,62,1,80
,,,,,,,,,,,,,,,,,,,,,,,,,,,,,,,,,,,,,,,,,m,2.549000025,M,FALSE,,,,,,,155,moneda,Catalan,Sounds/cat_moneda.mp3,2020-06-05_16h20.39.976,TranslationElicitation_eng-prolific,3.2.4,Win32,60,5e0ce0bbda6bad4819153380,,1,0,81,48,1,80
,,,,,,,,,,,,,,,,,,,,,,,,,,,,,,,,,,,,,,,,,o,2.649000168,MO,FALSE,,,,,,,155,moneda,Catalan,Sounds/cat_moneda.mp3,2020-06-05_16h20.39.976,TranslationElicitation_eng-prolific,3.2.4,Win32,60,5e0ce0bbda6bad4819153380,,1,0,81,48,1,80
,,,,,,,,,,,,,,,,,,,,,,,,,,,,,,,,,,,,,,,,,t,2.782000065,MOT,FALSE,,,,,,,155,moneda,Catalan,Sounds/cat_moneda.mp3,2020-06-05_16h20.39.976,TranslationElicitation_eng-prolific,3.2.4,Win32,60,5e0ce0bbda6bad4819153380,,1,0,81,48,1,80
,,,,,,,,,,,,,,,,,,,,,,,,,,,,,,,,,,,,,,,,,h,2.898000002,MOTH,FALSE,,,,,,,155,moneda,Catalan,Sounds/cat_moneda.mp3,2020-06-05_16h20.39.976,TranslationElicitation_eng-prolific,3.2.4,Win32,60,5e0ce0bbda6bad4819153380,,1,0,81,48,1,80
,,,,,,,,,,,,,,,,,,,,,,,,,,,,,,,,,,,,,,,,,e,2.982000113,MOTHE,FALSE,,,,,,,155,moneda,Catalan,Sounds/cat_moneda.mp3,2020-06-05_16h20.39.976,TranslationElicitation_eng-prolific,3.2.4,Win32,60,5e0ce0bbda6bad4819153380,,1,0,81,48,1,80
,,,,,,,,,,,,,,,,,,,,,,,,,,,,,,,,,,,,,,,,,r,3.031000137,MOTHER,FALSE,,,,,,,155,moneda,Catalan,Sounds/cat_moneda.mp3,2020-06-05_16h20.39.976,TranslationElicitation_eng-prolific,3.2.4,Win32,60,5e0ce0bbda6bad4819153380,,1,0,81,48,1,80
,,,,,,,,,,,,,,,,,,,,,,,,,,,,,,,,,,,,,,,,,return,3.1650002,MOTHER,FALSE,,,,,,,155,moneda,Catalan,Sounds/cat_moneda.mp3,2020-06-05_16h20.39.976,TranslationElicitation_eng-prolific,3.2.4,Win32,60,5e0ce0bbda6bad4819153380,3.1650002,1,0,81,48,1,80
,,,,,,,,,,,,,,,,,,,,,,,,,,,,,,,,,,,,,,,,,,,,,,,,,,,155,moneda,Catalan,Sounds/cat_moneda.mp3,2020-06-05_16h20.39.976,TranslationElicitation_eng-prolific,3.2.4,Win32,60,5e0ce0bbda6bad4819153380,,1,0,81,48,1,80
,,,,,,,,,,,,,,,,,,,,,,,,,,,,,,,,,,,,,,,,,d,7.748000145,D,FALSE,,,,,,,153,mico,Catalan,Sounds/cat_mico.mp3,2020-06-05_16h20.39.976,TranslationElicitation_eng-prolific,3.2.4,Win32,60,5e0ce0bbda6bad4819153380,,1,0,81,46,1,80
,,,,,,,,,,,,,,,,,,,,,,,,,,,,,,,,,,,,,,,,,d,7.998000145,DD,FALSE,,,,,,,153,mico,Catalan,Sounds/cat_mico.mp3,2020-06-05_16h20.39.976,TranslationElicitation_eng-prolific,3.2.4,Win32,60,5e0ce0bbda6bad4819153380,,1,0,81,46,1,80
,,,,,,,,,,,,,,,,,,,,,,,,,,,,,,,,,,,,,,,,,backspace,8.46600008,D,TRUE,,,,,,,153,mico,Catalan,Sounds/cat_mico.mp3,2020-06-05_16h20.39.976,TranslationElicitation_eng-prolific,3.2.4,Win32,60,5e0ce0bbda6bad4819153380,,1,0,81,46,1,80
,,,,,,,,,,,,,,,,,,,,,,,,,,,,,,,,,,,,,,,,,a,8.631000042,DA,TRUE,,,,,,,153,mico,Catalan,Sounds/cat_mico.mp3,2020-06-05_16h20.39.976,TranslationElicitation_eng-prolific,3.2.4,Win32,60,5e0ce0bbda6bad4819153380,,1,0,81,46,1,80
,,,,,,,,,,,,,,,,,,,,,,,,,,,,,,,,,,,,,,,,,d,8.680999994,DAD,TRUE,,,,,,,153,mico,Catalan,Sounds/cat_mico.mp3,2020-06-05_16h20.39.976,TranslationElicitation_eng-prolific,3.2.4,Win32,60,5e0ce0bbda6bad4819153380,,1,0,81,46,1,80
,,,,,,,,,,,,,,,,,,,,,,,,,,,,,,,,,,,,,,,,,return,9.013999939,DAD,TRUE,,,,,,,153,mico,Catalan,Sounds/cat_mico.mp3,2020-06-05_16h20.39.976,TranslationElicitation_eng-prolific,3.2.4,Win32,60,5e0ce0bbda6bad4819153380,9.013999939,1,0,81,46,1,80
,,,,,,,,,,,,,,,,,,,,,,,,,,,,,,,,,,,,,,,,,,,,,,,,,,,153,mico,Catalan,Sounds/cat_mico.mp3,2020-06-05_16h20.39.976,TranslationElicitation_eng-prolific,3.2.4,Win32,60,5e0ce0bbda6bad4819153380,,1,0,81,46,1,80
,,,,,,,,,,,,,,,,,,,,,,,,,,,,,,,,,,,,,,,,,f,4.33100009,F,FALSE,,,,,,,137,fulla,Catalan,Sounds/cat_fulla.mp3,2020-06-05_16h20.39.976,TranslationElicitation_eng-prolific,3.2.4,Win32,60,5e0ce0bbda6bad4819153380,,1,0,81,31,1,80
,,,,,,,,,,,,,,,,,,,,,,,,,,,,,,,,,,,,,,,,,u,4.448000193,FU,FALSE,,,,,,,137,fulla,Catalan,Sounds/cat_fulla.mp3,2020-06-05_16h20.39.976,TranslationElicitation_eng-prolific,3.2.4,Win32,60,5e0ce0bbda6bad4819153380,,1,0,81,31,1,80
,,,,,,,,,,,,,,,,,,,,,,,,,,,,,,,,,,,,,,,,,l,4.582000017,FUL,FALSE,,,,,,,137,fulla,Catalan,Sounds/cat_fulla.mp3,2020-06-05_16h20.39.976,TranslationElicitation_eng-prolific,3.2.4,Win32,60,5e0ce0bbda6bad4819153380,,1,0,81,31,1,80
,,,,,,,,,,,,,,,,,,,,,,,,,,,,,,,,,,,,,,,,,l,4.748000145,FULL,FALSE,,,,,,,137,fulla,Catalan,Sounds/cat_fulla.mp3,2020-06-05_16h20.39.976,TranslationElicitation_eng-prolific,3.2.4,Win32,60,5e0ce0bbda6bad4819153380,,1,0,81,31,1,80
,,,,,,,,,,,,,,,,,,,,,,,,,,,,,,,,,,,,,,,,,return,5.06400013,FULL,FALSE,,,,,,,137,fulla,Catalan,Sounds/cat_fulla.mp3,2020-06-05_16h20.39.976,TranslationElicitation_eng-prolific,3.2.4,Win32,60,5e0ce0bbda6bad4819153380,5.06400013,1,0,81,31,1,80
,,,,,,,,,,,,,,,,,,,,,,,,,,,,,,,,,,,,,,,,,,,,,,,,,,,137,fulla,Catalan,Sounds/cat_fulla.mp3,2020-06-05_16h20.39.976,TranslationElicitation_eng-prolific,3.2.4,Win32,60,5e0ce0bbda6bad4819153380,,1,0,81,31,1,80
,,,,,,,,,,,,,,,,,,,,,,,,,,,,,,,,,,,,,,,,,c,5.06400013,C,FALSE,,,,,,,127,cotxe,Catalan,Sounds/cat_cotxe.mp3,2020-06-05_16h20.39.976,TranslationElicitation_eng-prolific,3.2.4,Win32,60,5e0ce0bbda6bad4819153380,,1,0,81,21,1,80
,,,,,,,,,,,,,,,,,,,,,,,,,,,,,,,,,,,,,,,,,h,5.197999954,CH,FALSE,,,,,,,127,cotxe,Catalan,Sounds/cat_cotxe.mp3,2020-06-05_16h20.39.976,TranslationElicitation_eng-prolific,3.2.4,Win32,60,5e0ce0bbda6bad4819153380,,1,0,81,21,1,80
,,,,,,,,,,,,,,,,,,,,,,,,,,,,,,,,,,,,,,,,,e,5.29700017,CHE,FALSE,,,,,,,127,cotxe,Catalan,Sounds/cat_cotxe.mp3,2020-06-05_16h20.39.976,TranslationElicitation_eng-prolific,3.2.4,Win32,60,5e0ce0bbda6bad4819153380,,1,0,81,21,1,80
,,,,,,,,,,,,,,,,,,,,,,,,,,,,,,,,,,,,,,,,,e,5.447000027,CHEE,FALSE,,,,,,,127,cotxe,Catalan,Sounds/cat_cotxe.mp3,2020-06-05_16h20.39.976,TranslationElicitation_eng-prolific,3.2.4,Win32,60,5e0ce0bbda6bad4819153380,,1,0,81,21,1,80
,,,,,,,,,,,,,,,,,,,,,,,,,,,,,,,,,,,,,,,,,s,5.597000122,CHEES,FALSE,,,,,,,127,cotxe,Catalan,Sounds/cat_cotxe.mp3,2020-06-05_16h20.39.976,TranslationElicitation_eng-prolific,3.2.4,Win32,60,5e0ce0bbda6bad4819153380,,1,0,81,21,1,80
,,,,,,,,,,,,,,,,,,,,,,,,,,,,,,,,,,,,,,,,,e,5.782000065,CHEESE,FALSE,,,,,,,127,cotxe,Catalan,Sounds/cat_cotxe.mp3,2020-06-05_16h20.39.976,TranslationElicitation_eng-prolific,3.2.4,Win32,60,5e0ce0bbda6bad4819153380,,1,0,81,21,1,80
,,,,,,,,,,,,,,,,,,,,,,,,,,,,,,,,,,,,,,,,,return,5.930999994,CHEESE,FALSE,,,,,,,127,cotxe,Catalan,Sounds/cat_cotxe.mp3,2020-06-05_16h20.39.976,TranslationElicitation_eng-prolific,3.2.4,Win32,60,5e0ce0bbda6bad4819153380,5.930999994,1,0,81,21,1,80
,,,,,,,,,,,,,,,,,,,,,,,,,,,,,,,,,,,,,,,,,,,,,,,,,,,127,cotxe,Catalan,Sounds/cat_cotxe.mp3,2020-06-05_16h20.39.976,TranslationElicitation_eng-prolific,3.2.4,Win32,60,5e0ce0bbda6bad4819153380,,1,0,81,21,1,80
,,,,,,,,,,,,,,,,,,,,,,,,,,,,,,,,,,,,,,,,,a,4.915999889,A,FALSE,,,,,,,128,cuc,Catalan,Sounds/cat_cuc.mp3,2020-06-05_16h20.39.976,TranslationElicitation_eng-prolific,3.2.4,Win32,60,5e0ce0bbda6bad4819153380,,1,0,81,22,1,80
,,,,,,,,,,,,,,,,,,,,,,,,,,,,,,,,,,,,,,,,,n,5.016000032,AN,FALSE,,,,,,,128,cuc,Catalan,Sounds/cat_cuc.mp3,2020-06-05_16h20.39.976,TranslationElicitation_eng-prolific,3.2.4,Win32,60,5e0ce0bbda6bad4819153380,,1,0,81,22,1,80
,,,,,,,,,,,,,,,,,,,,,,,,,,,,,,,,,,,,,,,,,i,5.065999985,ANI,FALSE,,,,,,,128,cuc,Catalan,Sounds/cat_cuc.mp3,2020-06-05_16h20.39.976,TranslationElicitation_eng-prolific,3.2.4,Win32,60,5e0ce0bbda6bad4819153380,,1,0,81,22,1,80
,,,,,,,,,,,,,,,,,,,,,,,,,,,,,,,,,,,,,,,,,m,5.214999914,ANIM,FALSE,,,,,,,128,cuc,Catalan,Sounds/cat_cuc.mp3,2020-06-05_16h20.39.976,TranslationElicitation_eng-prolific,3.2.4,Win32,60,5e0ce0bbda6bad4819153380,,1,0,81,22,1,80
,,,,,,,,,,,,,,,,,,,,,,,,,,,,,,,,,,,,,,,,,a,5.332000017,ANIMA,FALSE,,,,,,,128,cuc,Catalan,Sounds/cat_cuc.mp3,2020-06-05_16h20.39.976,TranslationElicitation_eng-prolific,3.2.4,Win32,60,5e0ce0bbda6bad4819153380,,1,0,81,22,1,80
,,,,,,,,,,,,,,,,,,,,,,,,,,,,,,,,,,,,,,,,,l,5.415999889,ANIMAL,FALSE,,,,,,,128,cuc,Catalan,Sounds/cat_cuc.mp3,2020-06-05_16h20.39.976,TranslationElicitation_eng-prolific,3.2.4,Win32,60,5e0ce0bbda6bad4819153380,,1,0,81,22,1,80
,,,,,,,,,,,,,,,,,,,,,,,,,,,,,,,,,,,,,,,,,return,5.697999954,ANIMAL,FALSE,,,,,,,128,cuc,Catalan,Sounds/cat_cuc.mp3,2020-06-05_16h20.39.976,TranslationElicitation_eng-prolific,3.2.4,Win32,60,5e0ce0bbda6bad4819153380,5.697999954,1,0,81,22,1,80
,,,,,,,,,,,,,,,,,,,,,,,,,,,,,,,,,,,,,,,,,,,,,,,,,,,128,cuc,Catalan,Sounds/cat_cuc.mp3,2020-06-05_16h20.39.976,TranslationElicitation_eng-prolific,3.2.4,Win32,60,5e0ce0bbda6bad4819153380,,1,0,81,22,1,80
,,,,,,,,,,,,,,,,,,,,,,,,,,,,,,,,,,,,,,,,,o,2.282000065,O,FALSE,,,,,,,178,taronja,Catalan,Sounds/cat_taronja.mp3,2020-06-05_16h20.39.976,TranslationElicitation_eng-prolific,3.2.4,Win32,60,5e0ce0bbda6bad4819153380,,1,0,81,70,1,80
,,,,,,,,,,,,,,,,,,,,,,,,,,,,,,,,,,,,,,,,,r,2.350000143,OR,FALSE,,,,,,,178,taronja,Catalan,Sounds/cat_taronja.mp3,2020-06-05_16h20.39.976,TranslationElicitation_eng-prolific,3.2.4,Win32,60,5e0ce0bbda6bad4819153380,,1,0,81,70,1,80
,,,,,,,,,,,,,,,,,,,,,,,,,,,,,,,,,,,,,,,,,a,2.532999992,ORA,FALSE,,,,,,,178,taronja,Catalan,Sounds/cat_taronja.mp3,2020-06-05_16h20.39.976,TranslationElicitation_eng-prolific,3.2.4,Win32,60,5e0ce0bbda6bad4819153380,,1,0,81,70,1,80
,,,,,,,,,,,,,,,,,,,,,,,,,,,,,,,,,,,,,,,,,n,2.666000128,ORAN,FALSE,,,,,,,178,taronja,Catalan,Sounds/cat_taronja.mp3,2020-06-05_16h20.39.976,TranslationElicitation_eng-prolific,3.2.4,Win32,60,5e0ce0bbda6bad4819153380,,1,0,81,70,1,80
,,,,,,,,,,,,,,,,,,,,,,,,,,,,,,,,,,,,,,,,,g,2.766000032,ORANG,FALSE,,,,,,,178,taronja,Catalan,Sounds/cat_taronja.mp3,2020-06-05_16h20.39.976,TranslationElicitation_eng-prolific,3.2.4,Win32,60,5e0ce0bbda6bad4819153380,,1,0,81,70,1,80
,,,,,,,,,,,,,,,,,,,,,,,,,,,,,,,,,,,,,,,,,e,2.898999929,ORANGE,FALSE,,,,,,,178,taronja,Catalan,Sounds/cat_taronja.mp3,2020-06-05_16h20.39.976,TranslationElicitation_eng-prolific,3.2.4,Win32,60,5e0ce0bbda6bad4819153380,,1,0,81,70,1,80
,,,,,,,,,,,,,,,,,,,,,,,,,,,,,,,,,,,,,,,,,return,3.082000017,ORANGE,FALSE,,,,,,,178,taronja,Catalan,Sounds/cat_taronja.mp3,2020-06-05_16h20.39.976,TranslationElicitation_eng-prolific,3.2.4,Win32,60,5e0ce0bbda6bad4819153380,3.082000017,1,0,81,70,1,80
,,,,,,,,,,,,,,,,,,,,,,,,,,,,,,,,,,,,,,,,,,,,,,,,,,,178,taronja,Catalan,Sounds/cat_taronja.mp3,2020-06-05_16h20.39.976,TranslationElicitation_eng-prolific,3.2.4,Win32,60,5e0ce0bbda6bad4819153380,,1,0,81,70,1,80
,,,,,,,,,,,,,,,,,,,,,,,,,,,,,,,,,,,,,,,,,h,6.430999994,H,FALSE,,,,,,,118,bou,Catalan,Sounds/cat_bou.mp3,2020-06-05_16h20.39.976,TranslationElicitation_eng-prolific,3.2.4,Win32,60,5e0ce0bbda6bad4819153380,,1,0,81,13,1,80
,,,,,,,,,,,,,,,,,,,,,,,,,,,,,,,,,,,,,,,,,i,6.531000137,HI,FALSE,,,,,,,118,bou,Catalan,Sounds/cat_bou.mp3,2020-06-05_16h20.39.976,TranslationElicitation_eng-prolific,3.2.4,Win32,60,5e0ce0bbda6bad4819153380,,1,0,81,13,1,80
,,,,,,,,,,,,,,,,,,,,,,,,,,,,,,,,,,,,,,,,,backspace,7.246999979,H,TRUE,,,,,,,118,bou,Catalan,Sounds/cat_bou.mp3,2020-06-05_16h20.39.976,TranslationElicitation_eng-prolific,3.2.4,Win32,60,5e0ce0bbda6bad4819153380,,1,0,81,13,1,80
,,,,,,,,,,,,,,,,,,,,,,,,,,,,,,,,,,,,,,,,,backspace,7.447000027,,TRUE,,,,,,,118,bou,Catalan,Sounds/cat_bou.mp3,2020-06-05_16h20.39.976,TranslationElicitation_eng-prolific,3.2.4,Win32,60,5e0ce0bbda6bad4819153380,,1,0,81,13,1,80
,,,,,,,,,,,,,,,,,,,,,,,,,,,,,,,,,,,,,,,,,backspace,7.596000195,,TRUE,,,,,,,118,bou,Catalan,Sounds/cat_bou.mp3,2020-06-05_16h20.39.976,TranslationElicitation_eng-prolific,3.2.4,Win32,60,5e0ce0bbda6bad4819153380,,1,0,81,13,1,80
,,,,,,,,,,,,,,,,,,,,,,,,,,,,,,,,,,,,,,,,,n,8.296000004,N,TRUE,,,,,,,118,bou,Catalan,Sounds/cat_bou.mp3,2020-06-05_16h20.39.976,TranslationElicitation_eng-prolific,3.2.4,Win32,60,5e0ce0bbda6bad4819153380,,1,0,81,13,1,80
,,,,,,,,,,,,,,,,,,,,,,,,,,,,,,,,,,,,,,,,,o,8.81400013,NO,TRUE,,,,,,,118,bou,Catalan,Sounds/cat_bou.mp3,2020-06-05_16h20.39.976,TranslationElicitation_eng-prolific,3.2.4,Win32,60,5e0ce0bbda6bad4819153380,,1,0,81,13,1,80
,,,,,,,,,,,,,,,,,,,,,,,,,,,,,,,,,,,,,,,,,return,9.130000114,NO,TRUE,,,,,,,118,bou,Catalan,Sounds/cat_bou.mp3,2020-06-05_16h20.39.976,TranslationElicitation_eng-prolific,3.2.4,Win32,60,5e0ce0bbda6bad4819153380,9.130000114,1,0,81,13,1,80
,,,,,,,,,,,,,,,,,,,,,,,,,,,,,,,,,,,,,,,,,,,,,,,,,,,118,bou,Catalan,Sounds/cat_bou.mp3,2020-06-05_16h20.39.976,TranslationElicitation_eng-prolific,3.2.4,Win32,60,5e0ce0bbda6bad4819153380,,1,0,81,13,1,80
,,,,,,,,,,,,,,,,,,,,,,,,,,,,,,,,,,,,,,,,,t,2.814999819,T,FALSE,,,,,,,183,tren,Catalan,Sounds/cat_tren.mp3,2020-06-05_16h20.39.976,TranslationElicitation_eng-prolific,3.2.4,Win32,60,5e0ce0bbda6bad4819153380,,1,0,81,74,1,80
,,,,,,,,,,,,,,,,,,,,,,,,,,,,,,,,,,,,,,,,,r,2.964999914,TR,FALSE,,,,,,,183,tren,Catalan,Sounds/cat_tren.mp3,2020-06-05_16h20.39.976,TranslationElicitation_eng-prolific,3.2.4,Win32,60,5e0ce0bbda6bad4819153380,,1,0,81,74,1,80
,,,,,,,,,,,,,,,,,,,,,,,,,,,,,,,,,,,,,,,,,a,3.21999979,TRA,FALSE,,,,,,,183,tren,Catalan,Sounds/cat_tren.mp3,2020-06-05_16h20.39.976,TranslationElicitation_eng-prolific,3.2.4,Win32,60,5e0ce0bbda6bad4819153380,,1,0,81,74,1,80
,,,,,,,,,,,,,,,,,,,,,,,,,,,,,,,,,,,,,,,,,i,3.281999826,TRAI,FALSE,,,,,,,183,tren,Catalan,Sounds/cat_tren.mp3,2020-06-05_16h20.39.976,TranslationElicitation_eng-prolific,3.2.4,Win32,60,5e0ce0bbda6bad4819153380,,1,0,81,74,1,80
,,,,,,,,,,,,,,,,,,,,,,,,,,,,,,,,,,,,,,,,,n,3.348999977,TRAIN,FALSE,,,,,,,183,tren,Catalan,Sounds/cat_tren.mp3,2020-06-05_16h20.39.976,TranslationElicitation_eng-prolific,3.2.4,Win32,60,5e0ce0bbda6bad4819153380,,1,0,81,74,1,80
,,,,,,,,,,,,,,,,,,,,,,,,,,,,,,,,,,,,,,,,,return,3.832000017,TRAIN,FALSE,,,,,,,183,tren,Catalan,Sounds/cat_tren.mp3,2020-06-05_16h20.39.976,TranslationElicitation_eng-prolific,3.2.4,Win32,60,5e0ce0bbda6bad4819153380,3.832000017,1,0,81,74,1,80
,,,,,,,,,,,,,,,,,,,,,,,,,,,,,,,,,,,,,,,,,,,,,,,,,,,183,tren,Catalan,Sounds/cat_tren.mp3,2020-06-05_16h20.39.976,TranslationElicitation_eng-prolific,3.2.4,Win32,60,5e0ce0bbda6bad4819153380,,1,0,81,74,1,80
,,,,,,,,,,,,,,,,,,,,,,,,,,,,,,,,,,,,,,,,,c,1.549999952,C,FALSE,,,,,,,122,casa,Catalan,Sounds/cat_casa.mp3,2020-06-05_16h20.39.976,TranslationElicitation_eng-prolific,3.2.4,Win32,60,5e0ce0bbda6bad4819153380,,1,0,81,17,1,80
,,,,,,,,,,,,,,,,,,,,,,,,,,,,,,,,,,,,,,,,,a,1.717000008,CA,FALSE,,,,,,,122,casa,Catalan,Sounds/cat_casa.mp3,2020-06-05_16h20.39.976,TranslationElicitation_eng-prolific,3.2.4,Win32,60,5e0ce0bbda6bad4819153380,,1,0,81,17,1,80
,,,,,,,,,,,,,,,,,,,,,,,,,,,,,,,,,,,,,,,,,r,1.851000071,CAR,FALSE,,,,,,,122,casa,Catalan,Sounds/cat_casa.mp3,2020-06-05_16h20.39.976,TranslationElicitation_eng-prolific,3.2.4,Win32,60,5e0ce0bbda6bad4819153380,,1,0,81,17,1,80
,,,,,,,,,,,,,,,,,,,,,,,,,,,,,,,,,,,,,,,,,return,2.100000143,CAR,FALSE,,,,,,,122,casa,Catalan,Sounds/cat_casa.mp3,2020-06-05_16h20.39.976,TranslationElicitation_eng-prolific,3.2.4,Win32,60,5e0ce0bbda6bad4819153380,2.100000143,1,0,81,17,1,80
,,,,,,,,,,,,,,,,,,,,,,,,,,,,,,,,,,,,,,,,,,,,,,,,,,,122,casa,Catalan,Sounds/cat_casa.mp3,2020-06-05_16h20.39.976,TranslationElicitation_eng-prolific,3.2.4,Win32,60,5e0ce0bbda6bad4819153380,,1,0,81,17,1,80
,,,,,,,,,,,,,,,,,,,,,,,,,,,,,,,,,,,,,,,,,l,2.75,L,FALSE,,,,,,,149,llibre,Catalan,Sounds/cat_llibre.mp3,2020-06-05_16h20.39.976,TranslationElicitation_eng-prolific,3.2.4,Win32,60,5e0ce0bbda6bad4819153380,,1,0,81,42,1,80
,,,,,,,,,,,,,,,,,,,,,,,,,,,,,,,,,,,,,,,,,i,2.950000048,LI,FALSE,,,,,,,149,llibre,Catalan,Sounds/cat_llibre.mp3,2020-06-05_16h20.39.976,TranslationElicitation_eng-prolific,3.2.4,Win32,60,5e0ce0bbda6bad4819153380,,1,0,81,42,1,80
,,,,,,,,,,,,,,,,,,,,,,,,,,,,,,,,,,,,,,,,,r,3.183000088,LIR,FALSE,,,,,,,149,llibre,Catalan,Sounds/cat_llibre.mp3,2020-06-05_16h20.39.976,TranslationElicitation_eng-prolific,3.2.4,Win32,60,5e0ce0bbda6bad4819153380,,1,0,81,42,1,80
,,,,,,,,,,,,,,,,,,,,,,,,,,,,,,,,,,,,,,,,,b,3.366000175,LIRB,FALSE,,,,,,,149,llibre,Catalan,Sounds/cat_llibre.mp3,2020-06-05_16h20.39.976,TranslationElicitation_eng-prolific,3.2.4,Win32,60,5e0ce0bbda6bad4819153380,,1,0,81,42,1,80
,,,,,,,,,,,,,,,,,,,,,,,,,,,,,,,,,,,,,,,,,backspace,3.633000135,LIR,TRUE,,,,,,,149,llibre,Catalan,Sounds/cat_llibre.mp3,2020-06-05_16h20.39.976,TranslationElicitation_eng-prolific,3.2.4,Win32,60,5e0ce0bbda6bad4819153380,,1,0,81,42,1,80
,,,,,,,,,,,,,,,,,,,,,,,,,,,,,,,,,,,,,,,,,backspace,3.94900012,LI,TRUE,,,,,,,149,llibre,Catalan,Sounds/cat_llibre.mp3,2020-06-05_16h20.39.976,TranslationElicitation_eng-prolific,3.2.4,Win32,60,5e0ce0bbda6bad4819153380,,1,0,81,42,1,80
,,,,,,,,,,,,,,,,,,,,,,,,,,,,,,,,,,,,,,,,,b,4.232000113,LIB,TRUE,,,,,,,149,llibre,Catalan,Sounds/cat_llibre.mp3,2020-06-05_16h20.39.976,TranslationElicitation_eng-prolific,3.2.4,Win32,60,5e0ce0bbda6bad4819153380,,1,0,81,42,1,80
,,,,,,,,,,,,,,,,,,,,,,,,,,,,,,,,,,,,,,,,,r,4.368000031,LIBR,TRUE,,,,,,,149,llibre,Catalan,Sounds/cat_llibre.mp3,2020-06-05_16h20.39.976,TranslationElicitation_eng-prolific,3.2.4,Win32,60,5e0ce0bbda6bad4819153380,,1,0,81,42,1,80
,,,,,,,,,,,,,,,,,,,,,,,,,,,,,,,,,,,,,,,,,a,4.549000025,LIBRA,TRUE,,,,,,,149,llibre,Catalan,Sounds/cat_llibre.mp3,2020-06-05_16h20.39.976,TranslationElicitation_eng-prolific,3.2.4,Win32,60,5e0ce0bbda6bad4819153380,,1,0,81,42,1,80
,,,,,,,,,,,,,,,,,,,,,,,,,,,,,,,,,,,,,,,,,r,4.69900012,LIBRAR,TRUE,,,,,,,149,llibre,Catalan,Sounds/cat_llibre.mp3,2020-06-05_16h20.39.976,TranslationElicitation_eng-prolific,3.2.4,Win32,60,5e0ce0bbda6bad4819153380,,1,0,81,42,1,80
,,,,,,,,,,,,,,,,,,,,,,,,,,,,,,,,,,,,,,,,,y,4.815999985,LIBRARY,TRUE,,,,,,,149,llibre,Catalan,Sounds/cat_llibre.mp3,2020-06-05_16h20.39.976,TranslationElicitation_eng-prolific,3.2.4,Win32,60,5e0ce0bbda6bad4819153380,,1,0,81,42,1,80
,,,,,,,,,,,,,,,,,,,,,,,,,,,,,,,,,,,,,,,,,return,5.098999977,LIBRARY,TRUE,,,,,,,149,llibre,Catalan,Sounds/cat_llibre.mp3,2020-06-05_16h20.39.976,TranslationElicitation_eng-prolific,3.2.4,Win32,60,5e0ce0bbda6bad4819153380,5.098999977,1,0,81,42,1,80
,,,,,,,,,,,,,,,,,,,,,,,,,,,,,,,,,,,,,,,,,,,,,,,,,,,149,llibre,Catalan,Sounds/cat_llibre.mp3,2020-06-05_16h20.39.976,TranslationElicitation_eng-prolific,3.2.4,Win32,60,5e0ce0bbda6bad4819153380,,1,0,81,42,1,80
,,,,,,,,,,,,,,,,,,,,,,,,,,,,,,,,,,,,,,,,,p,6.380000114,P,FALSE,,,,,,,165,pernil,Catalan,Sounds/cat_pernil.mp3,2020-06-05_16h20.39.976,TranslationElicitation_eng-prolific,3.2.4,Win32,60,5e0ce0bbda6bad4819153380,,1,0,81,57,1,80
,,,,,,,,,,,,,,,,,,,,,,,,,,,,,,,,,,,,,,,,,h,6.448000193,PH,FALSE,,,,,,,165,pernil,Catalan,Sounds/cat_pernil.mp3,2020-06-05_16h20.39.976,TranslationElicitation_eng-prolific,3.2.4,Win32,60,5e0ce0bbda6bad4819153380,,1,0,81,57,1,80
,,,,,,,,,,,,,,,,,,,,,,,,,,,,,,,,,,,,,,,,,o,6.580000162,PHO,FALSE,,,,,,,165,pernil,Catalan,Sounds/cat_pernil.mp3,2020-06-05_16h20.39.976,TranslationElicitation_eng-prolific,3.2.4,Win32,60,5e0ce0bbda6bad4819153380,,1,0,81,57,1,80
,,,,,,,,,,,,,,,,,,,,,,,,,,,,,,,,,,,,,,,,,n,6.631000042,PHON,FALSE,,,,,,,165,pernil,Catalan,Sounds/cat_pernil.mp3,2020-06-05_16h20.39.976,TranslationElicitation_eng-prolific,3.2.4,Win32,60,5e0ce0bbda6bad4819153380,,1,0,81,57,1,80
,,,,,,,,,,,,,,,,,,,,,,,,,,,,,,,,,,,,,,,,,e,6.764000177,PHONE,FALSE,,,,,,,165,pernil,Catalan,Sounds/cat_pernil.mp3,2020-06-05_16h20.39.976,TranslationElicitation_eng-prolific,3.2.4,Win32,60,5e0ce0bbda6bad4819153380,,1,0,81,57,1,80
,,,,,,,,,,,,,,,,,,,,,,,,,,,,,,,,,,,,,,,,,return,6.981000185,PHONE,FALSE,,,,,,,165,pernil,Catalan,Sounds/cat_pernil.mp3,2020-06-05_16h20.39.976,TranslationElicitation_eng-prolific,3.2.4,Win32,60,5e0ce0bbda6bad4819153380,6.981000185,1,0,81,57,1,80
,,,,,,,,,,,,,,,,,,,,,,,,,,,,,,,,,,,,,,,,,,,,,,,,,,,165,pernil,Catalan,Sounds/cat_pernil.mp3,2020-06-05_16h20.39.976,TranslationElicitation_eng-prolific,3.2.4,Win32,60,5e0ce0bbda6bad4819153380,,1,0,81,57,1,80
,,,,,,,,,,,,,,,,,,,,,,,,,,,,,,,,,,,,,,,,,y,2.649000168,Y,FALSE,,,,,,,152,ma,Catalan,Sounds/cat_ma.mp3,2020-06-05_16h20.39.976,TranslationElicitation_eng-prolific,3.2.4,Win32,60,5e0ce0bbda6bad4819153380,,1,0,81,45,1,80
,,,,,,,,,,,,,,,,,,,,,,,,,,,,,,,,,,,,,,,,,e,2.715000153,YE,FALSE,,,,,,,152,ma,Catalan,Sounds/cat_ma.mp3,2020-06-05_16h20.39.976,TranslationElicitation_eng-prolific,3.2.4,Win32,60,5e0ce0bbda6bad4819153380,,1,0,81,45,1,80
,,,,,,,,,,,,,,,,,,,,,,,,,,,,,,,,,,,,,,,,,s,2.899000168,YES,FALSE,,,,,,,152,ma,Catalan,Sounds/cat_ma.mp3,2020-06-05_16h20.39.976,TranslationElicitation_eng-prolific,3.2.4,Win32,60,5e0ce0bbda6bad4819153380,,1,0,81,45,1,80
,,,,,,,,,,,,,,,,,,,,,,,,,,,,,,,,,,,,,,,,,return,3.083000183,YES,FALSE,,,,,,,152,ma,Catalan,Sounds/cat_ma.mp3,2020-06-05_16h20.39.976,TranslationElicitation_eng-prolific,3.2.4,Win32,60,5e0ce0bbda6bad4819153380,3.083000183,1,0,81,45,1,80
,,,,,,,,,,,,,,,,,,,,,,,,,,,,,,,,,,,,,,,,,,,,,,,,,,,152,ma,Catalan,Sounds/cat_ma.mp3,2020-06-05_16h20.39.976,TranslationElicitation_eng-prolific,3.2.4,Win32,60,5e0ce0bbda6bad4819153380,,1,0,81,45,1,80
,,,,,,,,,,,,,,,,,,,,,,,,,,,,,,,,,,,,,,,,,n,3.014999866,N,FALSE,,,,,,,169,plat,Catalan,Sounds/cat_plat.mp3,2020-06-05_16h20.39.976,TranslationElicitation_eng-prolific,3.2.4,Win32,60,5e0ce0bbda6bad4819153380,,1,0,81,61,1,80
,,,,,,,,,,,,,,,,,,,,,,,,,,,,,,,,,,,,,,,,,o,3.115999937,NO,FALSE,,,,,,,169,plat,Catalan,Sounds/cat_plat.mp3,2020-06-05_16h20.39.976,TranslationElicitation_eng-prolific,3.2.4,Win32,60,5e0ce0bbda6bad4819153380,,1,0,81,61,1,80
,,,,,,,,,,,,,,,,,,,,,,,,,,,,,,,,,,,,,,,,,return,3.414999962,NO,FALSE,,,,,,,169,plat,Catalan,Sounds/cat_plat.mp3,2020-06-05_16h20.39.976,TranslationElicitation_eng-prolific,3.2.4,Win32,60,5e0ce0bbda6bad4819153380,3.414999962,1,0,81,61,1,80
,,,,,,,,,,,,,,,,,,,,,,,,,,,,,,,,,,,,,,,,,,,,,,,,,,,169,plat,Catalan,Sounds/cat_plat.mp3,2020-06-05_16h20.39.976,TranslationElicitation_eng-prolific,3.2.4,Win32,60,5e0ce0bbda6bad4819153380,,1,0,81,61,1,80
,,,,,,,,,,,,,,,,,,,,,,,,,,,,,,,,,,,,,,,,,b,2.182999849,B,FALSE,,,,,,,113,boca,Catalan,Sounds/cat_boca.mp3,2020-06-05_16h20.39.976,TranslationElicitation_eng-prolific,3.2.4,Win32,60,5e0ce0bbda6bad4819153380,,1,0,81,8,1,80
,,,,,,,,,,,,,,,,,,,,,,,,,,,,,,,,,,,,,,,,,o,2.248999834,BO,FALSE,,,,,,,113,boca,Catalan,Sounds/cat_boca.mp3,2020-06-05_16h20.39.976,TranslationElicitation_eng-prolific,3.2.4,Win32,60,5e0ce0bbda6bad4819153380,,1,0,81,8,1,80
,,,,,,,,,,,,,,,,,,,,,,,,,,,,,,,,,,,,,,,,,o,2.381999969,BOO,FALSE,,,,,,,113,boca,Catalan,Sounds/cat_boca.mp3,2020-06-05_16h20.39.976,TranslationElicitation_eng-prolific,3.2.4,Win32,60,5e0ce0bbda6bad4819153380,,1,0,81,8,1,80
,,,,,,,,,,,,,,,,,,,,,,,,,,,,,,,,,,,,,,,,,k,2.463999987,BOOK,FALSE,,,,,,,113,boca,Catalan,Sounds/cat_boca.mp3,2020-06-05_16h20.39.976,TranslationElicitation_eng-prolific,3.2.4,Win32,60,5e0ce0bbda6bad4819153380,,1,0,81,8,1,80
,,,,,,,,,,,,,,,,,,,,,,,,,,,,,,,,,,,,,,,,,return,2.731999874,BOOK,FALSE,,,,,,,113,boca,Catalan,Sounds/cat_boca.mp3,2020-06-05_16h20.39.976,TranslationElicitation_eng-prolific,3.2.4,Win32,60,5e0ce0bbda6bad4819153380,2.731999874,1,0,81,8,1,80
,,,,,,,,,,,,,,,,,,,,,,,,,,,,,,,,,,,,,,,,,,,,,,,,,,,113,boca,Catalan,Sounds/cat_boca.mp3,2020-06-05_16h20.39.976,TranslationElicitation_eng-prolific,3.2.4,Win32,60,5e0ce0bbda6bad4819153380,,1,0,81,8,1,80
,,,,,,,,,,,,,,,,,,,,,,,,,,,,,,,,,,,,,,,,,m,1.815000057,M,FALSE,,,,,,,160,orella,Catalan,Sounds/cat_orella.mp3,2020-06-05_16h20.39.976,TranslationElicitation_eng-prolific,3.2.4,Win32,60,5e0ce0bbda6bad4819153380,,1,0,81,52,1,80
,,,,,,,,,,,,,,,,,,,,,,,,,,,,,,,,,,,,,,,,,o,1.915999889,MO,FALSE,,,,,,,160,orella,Catalan,Sounds/cat_orella.mp3,2020-06-05_16h20.39.976,TranslationElicitation_eng-prolific,3.2.4,Win32,60,5e0ce0bbda6bad4819153380,,1,0,81,52,1,80
,,,,,,,,,,,,,,,,,,,,,,,,,,,,,,,,,,,,,,,,,t,2.016000032,MOT,FALSE,,,,,,,160,orella,Catalan,Sounds/cat_orella.mp3,2020-06-05_16h20.39.976,TranslationElicitation_eng-prolific,3.2.4,Win32,60,5e0ce0bbda6bad4819153380,,1,0,81,52,1,80
,,,,,,,,,,,,,,,,,,,,,,,,,,,,,,,,,,,,,,,,,h,2.164999962,MOTH,FALSE,,,,,,,160,orella,Catalan,Sounds/cat_orella.mp3,2020-06-05_16h20.39.976,TranslationElicitation_eng-prolific,3.2.4,Win32,60,5e0ce0bbda6bad4819153380,,1,0,81,52,1,80
,,,,,,,,,,,,,,,,,,,,,,,,,,,,,,,,,,,,,,,,,e,2.26699996,MOTHE,FALSE,,,,,,,160,orella,Catalan,Sounds/cat_orella.mp3,2020-06-05_16h20.39.976,TranslationElicitation_eng-prolific,3.2.4,Win32,60,5e0ce0bbda6bad4819153380,,1,0,81,52,1,80
,,,,,,,,,,,,,,,,,,,,,,,,,,,,,,,,,,,,,,,,,r,2.315999985,MOTHER,FALSE,,,,,,,160,orella,Catalan,Sounds/cat_orella.mp3,2020-06-05_16h20.39.976,TranslationElicitation_eng-prolific,3.2.4,Win32,60,5e0ce0bbda6bad4819153380,,1,0,81,52,1,80
,,,,,,,,,,,,,,,,,,,,,,,,,,,,,,,,,,,,,,,,,return,2.549000025,MOTHER,FALSE,,,,,,,160,orella,Catalan,Sounds/cat_orella.mp3,2020-06-05_16h20.39.976,TranslationElicitation_eng-prolific,3.2.4,Win32,60,5e0ce0bbda6bad4819153380,2.549000025,1,0,81,52,1,80
,,,,,,,,,,,,,,,,,,,,,,,,,,,,,,,,,,,,,,,,,,,,,,,,,,,160,orella,Catalan,Sounds/cat_orella.mp3,2020-06-05_16h20.39.976,TranslationElicitation_eng-prolific,3.2.4,Win32,60,5e0ce0bbda6bad4819153380,,1,0,81,52,1,80
,,,,,,,,,,,,,,,,,,,,,,,,,,,,,,,,,,,,,,,,,r,4.881999969,R,FALSE,,,,,,,134,flor,Catalan,Sounds/cat_flor.mp3,2020-06-05_16h20.39.976,TranslationElicitation_eng-prolific,3.2.4,Win32,60,5e0ce0bbda6bad4819153380,,1,0,81,28,1,80
,,,,,,,,,,,,,,,,,,,,,,,,,,,,,,,,,,,,,,,,,a,5.047999859,RA,FALSE,,,,,,,134,flor,Catalan,Sounds/cat_flor.mp3,2020-06-05_16h20.39.976,TranslationElicitation_eng-prolific,3.2.4,Win32,60,5e0ce0bbda6bad4819153380,,1,0,81,28,1,80
,,,,,,,,,,,,,,,,,,,,,,,,,,,,,,,,,,,,,,,,,i,5.11500001,RAI,FALSE,,,,,,,134,flor,Catalan,Sounds/cat_flor.mp3,2020-06-05_16h20.39.976,TranslationElicitation_eng-prolific,3.2.4,Win32,60,5e0ce0bbda6bad4819153380,,1,0,81,28,1,80
,,,,,,,,,,,,,,,,,,,,,,,,,,,,,,,,,,,,,,,,,n,5.181999922,RAIN,FALSE,,,,,,,134,flor,Catalan,Sounds/cat_flor.mp3,2020-06-05_16h20.39.976,TranslationElicitation_eng-prolific,3.2.4,Win32,60,5e0ce0bbda6bad4819153380,,1,0,81,28,1,80
,,,,,,,,,,,,,,,,,,,,,,,,,,,,,,,,,,,,,,,,,return,5.480999947,RAIN,FALSE,,,,,,,134,flor,Catalan,Sounds/cat_flor.mp3,2020-06-05_16h20.39.976,TranslationElicitation_eng-prolific,3.2.4,Win32,60,5e0ce0bbda6bad4819153380,5.480999947,1,0,81,28,1,80
,,,,,,,,,,,,,,,,,,,,,,,,,,,,,,,,,,,,,,,,,,,,,,,,,,,134,flor,Catalan,Sounds/cat_flor.mp3,2020-06-05_16h20.39.976,TranslationElicitation_eng-prolific,3.2.4,Win32,60,5e0ce0bbda6bad4819153380,,1,0,81,28,1,80
,,,,,,,,,,,,,,,,,,,,,,,,,,,,,,,,,,,,,,,,,h,5.131000042,H,FALSE,,,,,,,158,nas,Catalan,Sounds/cat_nas.mp3,2020-06-05_16h20.39.976,TranslationElicitation_eng-prolific,3.2.4,Win32,60,5e0ce0bbda6bad4819153380,,1,0,81,51,1,80
,,,,,,,,,,,,,,,,,,,,,,,,,,,,,,,,,,,,,,,,,i,5.230999947,HI,FALSE,,,,,,,158,nas,Catalan,Sounds/cat_nas.mp3,2020-06-05_16h20.39.976,TranslationElicitation_eng-prolific,3.2.4,Win32,60,5e0ce0bbda6bad4819153380,,1,0,81,51,1,80
,,,,,,,,,,,,,,,,,,,,,,,,,,,,,,,,,,,,,,,,,return,5.513999939,HI,FALSE,,,,,,,158,nas,Catalan,Sounds/cat_nas.mp3,2020-06-05_16h20.39.976,TranslationElicitation_eng-prolific,3.2.4,Win32,60,5e0ce0bbda6bad4819153380,5.513999939,1,0,81,51,1,80
,,,,,,,,,,,,,,,,,,,,,,,,,,,,,,,,,,,,,,,,,,,,,,,,,,,158,nas,Catalan,Sounds/cat_nas.mp3,2020-06-05_16h20.39.976,TranslationElicitation_eng-prolific,3.2.4,Win32,60,5e0ce0bbda6bad4819153380,,1,0,81,51,1,80
,,,,,,,,,,,,,,,,,,,,,,,,,,,,,,,,,,,,,,,,,e,7.230000019,E,FALSE,,,,,,,136,forquilla,Catalan,Sounds/cat_forquilla.mp3,2020-06-05_16h20.39.976,TranslationElicitation_eng-prolific,3.2.4,Win32,60,5e0ce0bbda6bad4819153380,,1,0,81,30,1,80
,,,,,,,,,,,,,,,,,,,,,,,,,,,,,,,,,,,,,,,,,a,7.447000027,EA,FALSE,,,,,,,136,forquilla,Catalan,Sounds/cat_forquilla.mp3,2020-06-05_16h20.39.976,TranslationElicitation_eng-prolific,3.2.4,Win32,60,5e0ce0bbda6bad4819153380,,1,0,81,30,1,80
,,,,,,,,,,,,,,,,,,,,,,,,,,,,,,,,,,,,,,,,,t,7.713999987,EAT,FALSE,,,,,,,136,forquilla,Catalan,Sounds/cat_forquilla.mp3,2020-06-05_16h20.39.976,TranslationElicitation_eng-prolific,3.2.4,Win32,60,5e0ce0bbda6bad4819153380,,1,0,81,30,1,80
,,,,,,,,,,,,,,,,,,,,,,,,,,,,,,,,,,,,,,,,,return,7.945999861,EAT,FALSE,,,,,,,136,forquilla,Catalan,Sounds/cat_forquilla.mp3,2020-06-05_16h20.39.976,TranslationElicitation_eng-prolific,3.2.4,Win32,60,5e0ce0bbda6bad4819153380,7.945999861,1,0,81,30,1,80
,,,,,,,,,,,,,,,,,,,,,,,,,,,,,,,,,,,,,,,,,,,,,,,,,,,136,forquilla,Catalan,Sounds/cat_forquilla.mp3,2020-06-05_16h20.39.976,TranslationElicitation_eng-prolific,3.2.4,Win32,60,5e0ce0bbda6bad4819153380,,1,0,81,30,1,80
,,,,,,,,,,,,,,,,,,,,,,,,,,,,,,,,,,,,,,,,,n,5.947999954,N,FALSE,,,,,,,140,gat,Catalan,Sounds/cat_gat.mp3,2020-06-05_16h20.39.976,TranslationElicitation_eng-prolific,3.2.4,Win32,60,5e0ce0bbda6bad4819153380,,1,0,81,34,1,80
,,,,,,,,,,,,,,,,,,,,,,,,,,,,,,,,,,,,,,,,,o,6.131999969,NO,FALSE,,,,,,,140,gat,Catalan,Sounds/cat_gat.mp3,2020-06-05_16h20.39.976,TranslationElicitation_eng-prolific,3.2.4,Win32,60,5e0ce0bbda6bad4819153380,,1,0,81,34,1,80
,,,,,,,,,,,,,,,,,,,,,,,,,,,,,,,,,,,,,,,,,backspace,6.565000057,N,TRUE,,,,,,,140,gat,Catalan,Sounds/cat_gat.mp3,2020-06-05_16h20.39.976,TranslationElicitation_eng-prolific,3.2.4,Win32,60,5e0ce0bbda6bad4819153380,,1,0,81,34,1,80
,,,,,,,,,,,,,,,,,,,,,,,,,,,,,,,,,,,,,,,,,backspace,6.765000105,,TRUE,,,,,,,140,gat,Catalan,Sounds/cat_gat.mp3,2020-06-05_16h20.39.976,TranslationElicitation_eng-prolific,3.2.4,Win32,60,5e0ce0bbda6bad4819153380,,1,0,81,34,1,80
,,,,,,,,,,,,,,,,,,,,,,,,,,,,,,,,,,,,,,,,,w,8.230999947,W,TRUE,,,,,,,140,gat,Catalan,Sounds/cat_gat.mp3,2020-06-05_16h20.39.976,TranslationElicitation_eng-prolific,3.2.4,Win32,60,5e0ce0bbda6bad4819153380,,1,0,81,34,1,80
,,,,,,,,,,,,,,,,,,,,,,,,,,,,,,,,,,,,,,,,,i,8.33100009,WI,TRUE,,,,,,,140,gat,Catalan,Sounds/cat_gat.mp3,2020-06-05_16h20.39.976,TranslationElicitation_eng-prolific,3.2.4,Win32,60,5e0ce0bbda6bad4819153380,,1,0,81,34,1,80
,,,,,,,,,,,,,,,,,,,,,,,,,,,,,,,,,,,,,,,,,n,8.434999943,WIN,TRUE,,,,,,,140,gat,Catalan,Sounds/cat_gat.mp3,2020-06-05_16h20.39.976,TranslationElicitation_eng-prolific,3.2.4,Win32,60,5e0ce0bbda6bad4819153380,,1,0,81,34,1,80
,,,,,,,,,,,,,,,,,,,,,,,,,,,,,,,,,,,,,,,,,d,8.529999971,WIND,TRUE,,,,,,,140,gat,Catalan,Sounds/cat_gat.mp3,2020-06-05_16h20.39.976,TranslationElicitation_eng-prolific,3.2.4,Win32,60,5e0ce0bbda6bad4819153380,,1,0,81,34,1,80
,,,,,,,,,,,,,,,,,,,,,,,,,,,,,,,,,,,,,,,,,return,8.746999979,WIND,TRUE,,,,,,,140,gat,Catalan,Sounds/cat_gat.mp3,2020-06-05_16h20.39.976,TranslationElicitation_eng-prolific,3.2.4,Win32,60,5e0ce0bbda6bad4819153380,8.746999979,1,0,81,34,1,80
,,,,,,,,,,,,,,,,,,,,,,,,,,,,,,,,,,,,,,,,,,,,,,,,,,,140,gat,Catalan,Sounds/cat_gat.mp3,2020-06-05_16h20.39.976,TranslationElicitation_eng-prolific,3.2.4,Win32,60,5e0ce0bbda6bad4819153380,,1,0,81,34,1,80
,,,,,,,,,,,,,,,,,,,,,,,,,,,,,,,,,,,,,,,,,f,3.131999969,F,FALSE,,,,,,,172,poma,Catalan,Sounds/cat_poma.mp3,2020-06-05_16h20.39.976,TranslationElicitation_eng-prolific,3.2.4,Win32,60,5e0ce0bbda6bad4819153380,,1,0,81,64,1,80
,,,,,,,,,,,,,,,,,,,,,,,,,,,,,,,,,,,,,,,,,r,3.280999899,FR,FALSE,,,,,,,172,poma,Catalan,Sounds/cat_poma.mp3,2020-06-05_16h20.39.976,TranslationElicitation_eng-prolific,3.2.4,Win32,60,5e0ce0bbda6bad4819153380,,1,0,81,64,1,80
,,,,,,,,,,,,,,,,,,,,,,,,,,,,,,,,,,,,,,,,,u,3.330999851,FRU,FALSE,,,,,,,172,poma,Catalan,Sounds/cat_poma.mp3,2020-06-05_16h20.39.976,TranslationElicitation_eng-prolific,3.2.4,Win32,60,5e0ce0bbda6bad4819153380,,1,0,81,64,1,80
,,,,,,,,,,,,,,,,,,,,,,,,,,,,,,,,,,,,,,,,,i,3.398000002,FRUI,FALSE,,,,,,,172,poma,Catalan,Sounds/cat_poma.mp3,2020-06-05_16h20.39.976,TranslationElicitation_eng-prolific,3.2.4,Win32,60,5e0ce0bbda6bad4819153380,,1,0,81,64,1,80
,,,,,,,,,,,,,,,,,,,,,,,,,,,,,,,,,,,,,,,,,t,3.515999794,FRUIT,FALSE,,,,,,,172,poma,Catalan,Sounds/cat_poma.mp3,2020-06-05_16h20.39.976,TranslationElicitation_eng-prolific,3.2.4,Win32,60,5e0ce0bbda6bad4819153380,,1,0,81,64,1,80
,,,,,,,,,,,,,,,,,,,,,,,,,,,,,,,,,,,,,,,,,return,3.747999907,FRUIT,FALSE,,,,,,,172,poma,Catalan,Sounds/cat_poma.mp3,2020-06-05_16h20.39.976,TranslationElicitation_eng-prolific,3.2.4,Win32,60,5e0ce0bbda6bad4819153380,3.747999907,1,0,81,64,1,80
,,,,,,,,,,,,,,,,,,,,,,,,,,,,,,,,,,,,,,,,,,,,,,,,,,,172,poma,Catalan,Sounds/cat_poma.mp3,2020-06-05_16h20.39.976,TranslationElicitation_eng-prolific,3.2.4,Win32,60,5e0ce0bbda6bad4819153380,,1,0,81,64,1,80
,,,,,,,,,,,,,,,,,,,,,,,,,,,,,,,,,,,,,,,,,b,6.631000042,B,FALSE,,,,,,,108,ampolla,Catalan,Sounds/cat_ampolla.mp3,2020-06-05_16h20.39.976,TranslationElicitation_eng-prolific,3.2.4,Win32,60,5e0ce0bbda6bad4819153380,,1,0,81,4,1,80
,,,,,,,,,,,,,,,,,,,,,,,,,,,,,,,,,,,,,,,,,o,6.714999914,BO,FALSE,,,,,,,108,ampolla,Catalan,Sounds/cat_ampolla.mp3,2020-06-05_16h20.39.976,TranslationElicitation_eng-prolific,3.2.4,Win32,60,5e0ce0bbda6bad4819153380,,1,0,81,4,1,80
,,,,,,,,,,,,,,,,,,,,,,,,,,,,,,,,,,,,,,,,,y,6.847999811,BOY,FALSE,,,,,,,108,ampolla,Catalan,Sounds/cat_ampolla.mp3,2020-06-05_16h20.39.976,TranslationElicitation_eng-prolific,3.2.4,Win32,60,5e0ce0bbda6bad4819153380,,1,0,81,4,1,80
,,,,,,,,,,,,,,,,,,,,,,,,,,,,,,,,,,,,,,,,,return,7.047999859,BOY,FALSE,,,,,,,108,ampolla,Catalan,Sounds/cat_ampolla.mp3,2020-06-05_16h20.39.976,TranslationElicitation_eng-prolific,3.2.4,Win32,60,5e0ce0bbda6bad4819153380,7.047999859,1,0,81,4,1,80
,,,,,,,,,,,,,,,,,,,,,,,,,,,,,,,,,,,,,,,,,,,,,,,,,,,108,ampolla,Catalan,Sounds/cat_ampolla.mp3,2020-06-05_16h20.39.976,TranslationElicitation_eng-prolific,3.2.4,Win32,60,5e0ce0bbda6bad4819153380,,1,0,81,4,1,80
,,,,,,,,,,,,,,,,,,,,,,,,,,,,,,,,,,,,,,,,,s,2.064999819,S,FALSE,,,,,,,121,camisa,Catalan,Sounds/cat_camisa.mp3,2020-06-05_16h20.39.976,TranslationElicitation_eng-prolific,3.2.4,Win32,60,5e0ce0bbda6bad4819153380,,1,0,81,16,1,80
,,,,,,,,,,,,,,,,,,,,,,,,,,,,,,,,,,,,,,,,,i,2.180999994,SI,FALSE,,,,,,,121,camisa,Catalan,Sounds/cat_camisa.mp3,2020-06-05_16h20.39.976,TranslationElicitation_eng-prolific,3.2.4,Win32,60,5e0ce0bbda6bad4819153380,,1,0,81,16,1,80
,,,,,,,,,,,,,,,,,,,,,,,,,,,,,,,,,,,,,,,,,s,2.231999874,SIS,FALSE,,,,,,,121,camisa,Catalan,Sounds/cat_camisa.mp3,2020-06-05_16h20.39.976,TranslationElicitation_eng-prolific,3.2.4,Win32,60,5e0ce0bbda6bad4819153380,,1,0,81,16,1,80
,,,,,,,,,,,,,,,,,,,,,,,,,,,,,,,,,,,,,,,,,t,2.447999954,SIST,FALSE,,,,,,,121,camisa,Catalan,Sounds/cat_camisa.mp3,2020-06-05_16h20.39.976,TranslationElicitation_eng-prolific,3.2.4,Win32,60,5e0ce0bbda6bad4819153380,,1,0,81,16,1,80
,,,,,,,,,,,,,,,,,,,,,,,,,,,,,,,,,,,,,,,,,e,2.596999884,SISTE,FALSE,,,,,,,121,camisa,Catalan,Sounds/cat_camisa.mp3,2020-06-05_16h20.39.976,TranslationElicitation_eng-prolific,3.2.4,Win32,60,5e0ce0bbda6bad4819153380,,1,0,81,16,1,80
,,,,,,,,,,,,,,,,,,,,,,,,,,,,,,,,,,,,,,,,,r,2.663999796,SISTER,FALSE,,,,,,,121,camisa,Catalan,Sounds/cat_camisa.mp3,2020-06-05_16h20.39.976,TranslationElicitation_eng-prolific,3.2.4,Win32,60,5e0ce0bbda6bad4819153380,,1,0,81,16,1,80
,,,,,,,,,,,,,,,,,,,,,,,,,,,,,,,,,,,,,,,,,return,2.797999859,SISTER,FALSE,,,,,,,121,camisa,Catalan,Sounds/cat_camisa.mp3,2020-06-05_16h20.39.976,TranslationElicitation_eng-prolific,3.2.4,Win32,60,5e0ce0bbda6bad4819153380,2.797999859,1,0,81,16,1,80
,,,,,,,,,,,,,,,,,,,,,,,,,,,,,,,,,,,,,,,,,,,,,,,,,,,121,camisa,Catalan,Sounds/cat_camisa.mp3,2020-06-05_16h20.39.976,TranslationElicitation_eng-prolific,3.2.4,Win32,60,5e0ce0bbda6bad4819153380,,1,0,81,16,1,80
,,,,,,,,,,,,,,,,,,,,,,,,,,,,,,,,,,,,,,,,,p,6.513999939,P,FALSE,,,,,,,187,vaixell,Catalan,Sounds/cat_vaixell.mp3,2020-06-05_16h20.39.976,TranslationElicitation_eng-prolific,3.2.4,Win32,60,5e0ce0bbda6bad4819153380,,1,0,81,78,1,80
,,,,,,,,,,,,,,,,,,,,,,,,,,,,,,,,,,,,,,,,,a,6.613000154,PA,FALSE,,,,,,,187,vaixell,Catalan,Sounds/cat_vaixell.mp3,2020-06-05_16h20.39.976,TranslationElicitation_eng-prolific,3.2.4,Win32,60,5e0ce0bbda6bad4819153380,,1,0,81,78,1,80
,,,,,,,,,,,,,,,,,,,,,,,,,,,,,,,,,,,,,,,,,s,6.663000107,PAS,FALSE,,,,,,,187,vaixell,Catalan,Sounds/cat_vaixell.mp3,2020-06-05_16h20.39.976,TranslationElicitation_eng-prolific,3.2.4,Win32,60,5e0ce0bbda6bad4819153380,,1,0,81,78,1,80
,,,,,,,,,,,,,,,,,,,,,,,,,,,,,,,,,,,,,,,,,t,6.881000042,PAST,FALSE,,,,,,,187,vaixell,Catalan,Sounds/cat_vaixell.mp3,2020-06-05_16h20.39.976,TranslationElicitation_eng-prolific,3.2.4,Win32,60,5e0ce0bbda6bad4819153380,,1,0,81,78,1,80
,,,,,,,,,,,,,,,,,,,,,,,,,,,,,,,,,,,,,,,,,a,7.164000034,PASTA,FALSE,,,,,,,187,vaixell,Catalan,Sounds/cat_vaixell.mp3,2020-06-05_16h20.39.976,TranslationElicitation_eng-prolific,3.2.4,Win32,60,5e0ce0bbda6bad4819153380,,1,0,81,78,1,80
,,,,,,,,,,,,,,,,,,,,,,,,,,,,,,,,,,,,,,,,,return,7.430000067,PASTA,FALSE,,,,,,,187,vaixell,Catalan,Sounds/cat_vaixell.mp3,2020-06-05_16h20.39.976,TranslationElicitation_eng-prolific,3.2.4,Win32,60,5e0ce0bbda6bad4819153380,7.430000067,1,0,81,78,1,80
,,,,,,,,,,,,,,,,,,,,,,,,,,,,,,,,,,,,,,,,,,,,,,,,,,,187,vaixell,Catalan,Sounds/cat_vaixell.mp3,2020-06-05_16h20.39.976,TranslationElicitation_eng-prolific,3.2.4,Win32,60,5e0ce0bbda6bad4819153380,,1,0,81,78,1,80
,,,,,,,,,,,,,,,,,,,,,,,,,,,,,,,,,,,,,,,,,g,1.967000008,G,FALSE,,,,,,,161,ovella,Catalan,Sounds/cat_ovella.mp3,2020-06-05_16h20.39.976,TranslationElicitation_eng-prolific,3.2.4,Win32,60,5e0ce0bbda6bad4819153380,,1,0,81,53,1,80
,,,,,,,,,,,,,,,,,,,,,,,,,,,,,,,,,,,,,,,,,r,2.133999825,GR,FALSE,,,,,,,161,ovella,Catalan,Sounds/cat_ovella.mp3,2020-06-05_16h20.39.976,TranslationElicitation_eng-prolific,3.2.4,Win32,60,5e0ce0bbda6bad4819153380,,1,0,81,53,1,80
,,,,,,,,,,,,,,,,,,,,,,,,,,,,,,,,,,,,,,,,,a,2.299999952,GRA,FALSE,,,,,,,161,ovella,Catalan,Sounds/cat_ovella.mp3,2020-06-05_16h20.39.976,TranslationElicitation_eng-prolific,3.2.4,Win32,60,5e0ce0bbda6bad4819153380,,1,0,81,53,1,80
,,,,,,,,,,,,,,,,,,,,,,,,,,,,,,,,,,,,,,,,,n,2.449999809,GRAN,FALSE,,,,,,,161,ovella,Catalan,Sounds/cat_ovella.mp3,2020-06-05_16h20.39.976,TranslationElicitation_eng-prolific,3.2.4,Win32,60,5e0ce0bbda6bad4819153380,,1,0,81,53,1,80
,,,,,,,,,,,,,,,,,,,,,,,,,,,,,,,,,,,,,,,,,d,2.5,GRAND,FALSE,,,,,,,161,ovella,Catalan,Sounds/cat_ovella.mp3,2020-06-05_16h20.39.976,TranslationElicitation_eng-prolific,3.2.4,Win32,60,5e0ce0bbda6bad4819153380,,1,0,81,53,1,80
,,,,,,,,,,,,,,,,,,,,,,,,,,,,,,,,,,,,,,,,,m,2.75,GRANDM,FALSE,,,,,,,161,ovella,Catalan,Sounds/cat_ovella.mp3,2020-06-05_16h20.39.976,TranslationElicitation_eng-prolific,3.2.4,Win32,60,5e0ce0bbda6bad4819153380,,1,0,81,53,1,80
,,,,,,,,,,,,,,,,,,,,,,,,,,,,,,,,,,,,,,,,,o,3.0849998,GRANDMO,FALSE,,,,,,,161,ovella,Catalan,Sounds/cat_ovella.mp3,2020-06-05_16h20.39.976,TranslationElicitation_eng-prolific,3.2.4,Win32,60,5e0ce0bbda6bad4819153380,,1,0,81,53,1,80
,,,,,,,,,,,,,,,,,,,,,,,,,,,,,,,,,,,,,,,,,t,3.232999802,GRANDMOT,FALSE,,,,,,,161,ovella,Catalan,Sounds/cat_ovella.mp3,2020-06-05_16h20.39.976,TranslationElicitation_eng-prolific,3.2.4,Win32,60,5e0ce0bbda6bad4819153380,,1,0,81,53,1,80
,,,,,,,,,,,,,,,,,,,,,,,,,,,,,,,,,,,,,,,,,h,3.350999832,GRANDMOTH,FALSE,,,,,,,161,ovella,Catalan,Sounds/cat_ovella.mp3,2020-06-05_16h20.39.976,TranslationElicitation_eng-prolific,3.2.4,Win32,60,5e0ce0bbda6bad4819153380,,1,0,81,53,1,80
,,,,,,,,,,,,,,,,,,,,,,,,,,,,,,,,,,,,,,,,,e,3.417999983,GRANDMOTHE,FALSE,,,,,,,161,ovella,Catalan,Sounds/cat_ovella.mp3,2020-06-05_16h20.39.976,TranslationElicitation_eng-prolific,3.2.4,Win32,60,5e0ce0bbda6bad4819153380,,1,0,81,53,1,80
,,,,,,,,,,,,,,,,,,,,,,,,,,,,,,,,,,,,,,,,,r,3.45299983,GRANDMOTHER,FALSE,,,,,,,161,ovella,Catalan,Sounds/cat_ovella.mp3,2020-06-05_16h20.39.976,TranslationElicitation_eng-prolific,3.2.4,Win32,60,5e0ce0bbda6bad4819153380,,1,0,81,53,1,80
,,,,,,,,,,,,,,,,,,,,,,,,,,,,,,,,,,,,,,,,,return,3.666999817,GRANDMOTHER,FALSE,,,,,,,161,ovella,Catalan,Sounds/cat_ovella.mp3,2020-06-05_16h20.39.976,TranslationElicitation_eng-prolific,3.2.4,Win32,60,5e0ce0bbda6bad4819153380,3.666999817,1,0,81,53,1,80
,,,,,,,,,,,,,,,,,,,,,,,,,,,,,,,,,,,,,,,,,,,,,,,,,,,161,ovella,Catalan,Sounds/cat_ovella.mp3,2020-06-05_16h20.39.976,TranslationElicitation_eng-prolific,3.2.4,Win32,60,5e0ce0bbda6bad4819153380,,1,0,81,53,1,80
,,,,,,,,,,,,,,,,,,,,,,,,,,,,,,,,,,,,,,,,,p,2.68200016,P,FALSE,,,,,,,133,estruc,Catalan,Sounds/cat_estruc.mp3,2020-06-05_16h20.39.976,TranslationElicitation_eng-prolific,3.2.4,Win32,60,5e0ce0bbda6bad4819153380,,1,0,81,27,1,80
,,,,,,,,,,,,,,,,,,,,,,,,,,,,,,,,,,,,,,,,,o,2.781000137,PO,FALSE,,,,,,,133,estruc,Catalan,Sounds/cat_estruc.mp3,2020-06-05_16h20.39.976,TranslationElicitation_eng-prolific,3.2.4,Win32,60,5e0ce0bbda6bad4819153380,,1,0,81,27,1,80
,,,,,,,,,,,,,,,,,,,,,,,,,,,,,,,,,,,,,,,,,l,2.96600008,POL,FALSE,,,,,,,133,estruc,Catalan,Sounds/cat_estruc.mp3,2020-06-05_16h20.39.976,TranslationElicitation_eng-prolific,3.2.4,Win32,60,5e0ce0bbda6bad4819153380,,1,0,81,27,1,80
,,,,,,,,,,,,,,,,,,,,,,,,,,,,,,,,,,,,,,,,,i,3.148000002,POLI,FALSE,,,,,,,133,estruc,Catalan,Sounds/cat_estruc.mp3,2020-06-05_16h20.39.976,TranslationElicitation_eng-prolific,3.2.4,Win32,60,5e0ce0bbda6bad4819153380,,1,0,81,27,1,80
,,,,,,,,,,,,,,,,,,,,,,,,,,,,,,,,,,,,,,,,,c,3.248000145,POLIC,FALSE,,,,,,,133,estruc,Catalan,Sounds/cat_estruc.mp3,2020-06-05_16h20.39.976,TranslationElicitation_eng-prolific,3.2.4,Win32,60,5e0ce0bbda6bad4819153380,,1,0,81,27,1,80
,,,,,,,,,,,,,,,,,,,,,,,,,,,,,,,,,,,,,,,,,e,3.364000082,POLICE,FALSE,,,,,,,133,estruc,Catalan,Sounds/cat_estruc.mp3,2020-06-05_16h20.39.976,TranslationElicitation_eng-prolific,3.2.4,Win32,60,5e0ce0bbda6bad4819153380,,1,0,81,27,1,80
,,,,,,,,,,,,,,,,,,,,,,,,,,,,,,,,,,,,,,,,,return,3.531000137,POLICE,FALSE,,,,,,,133,estruc,Catalan,Sounds/cat_estruc.mp3,2020-06-05_16h20.39.976,TranslationElicitation_eng-prolific,3.2.4,Win32,60,5e0ce0bbda6bad4819153380,3.531000137,1,0,81,27,1,80
,,,,,,,,,,,,,,,,,,,,,,,,,,,,,,,,,,,,,,,,,,,,,,,,,,,133,estruc,Catalan,Sounds/cat_estruc.mp3,2020-06-05_16h20.39.976,TranslationElicitation_eng-prolific,3.2.4,Win32,60,5e0ce0bbda6bad4819153380,,1,0,81,27,1,80
,,,,,,,,,,,,,,,,,,,,,,,,,,,,,,,,,,,,,,,,,s,2.049000025,S,FALSE,,,,,,,124,cirera,Catalan,Sounds/cat_cirera.mp3,2020-06-05_16h20.39.976,TranslationElicitation_eng-prolific,3.2.4,Win32,60,5e0ce0bbda6bad4819153380,,1,0,81,19,1,80
,,,,,,,,,,,,,,,,,,,,,,,,,,,,,,,,,,,,,,,,,i,2.165999889,SI,FALSE,,,,,,,124,cirera,Catalan,Sounds/cat_cirera.mp3,2020-06-05_16h20.39.976,TranslationElicitation_eng-prolific,3.2.4,Win32,60,5e0ce0bbda6bad4819153380,,1,0,81,19,1,80
,,,,,,,,,,,,,,,,,,,,,,,,,,,,,,,,,,,,,,,,,g,2.282999992,SIG,FALSE,,,,,,,124,cirera,Catalan,Sounds/cat_cirera.mp3,2020-06-05_16h20.39.976,TranslationElicitation_eng-prolific,3.2.4,Win32,60,5e0ce0bbda6bad4819153380,,1,0,81,19,1,80
,,,,,,,,,,,,,,,,,,,,,,,,,,,,,,,,,,,,,,,,,n,2.398000002,SIGN,FALSE,,,,,,,124,cirera,Catalan,Sounds/cat_cirera.mp3,2020-06-05_16h20.39.976,TranslationElicitation_eng-prolific,3.2.4,Win32,60,5e0ce0bbda6bad4819153380,,1,0,81,19,1,80
,,,,,,,,,,,,,,,,,,,,,,,,,,,,,,,,,,,,,,,,,a,2.549000025,SIGNA,FALSE,,,,,,,124,cirera,Catalan,Sounds/cat_cirera.mp3,2020-06-05_16h20.39.976,TranslationElicitation_eng-prolific,3.2.4,Win32,60,5e0ce0bbda6bad4819153380,,1,0,81,19,1,80
,,,,,,,,,,,,,,,,,,,,,,,,,,,,,,,,,,,,,,,,,l,2.632999897,SIGNAL,FALSE,,,,,,,124,cirera,Catalan,Sounds/cat_cirera.mp3,2020-06-05_16h20.39.976,TranslationElicitation_eng-prolific,3.2.4,Win32,60,5e0ce0bbda6bad4819153380,,1,0,81,19,1,80
,,,,,,,,,,,,,,,,,,,,,,,,,,,,,,,,,,,,,,,,,return,2.84800005,SIGNAL,FALSE,,,,,,,124,cirera,Catalan,Sounds/cat_cirera.mp3,2020-06-05_16h20.39.976,TranslationElicitation_eng-prolific,3.2.4,Win32,60,5e0ce0bbda6bad4819153380,2.84800005,1,0,81,19,1,80
,,,,,,,,,,,,,,,,,,,,,,,,,,,,,,,,,,,,,,,,,,,,,,,,,,,124,cirera,Catalan,Sounds/cat_cirera.mp3,2020-06-05_16h20.39.976,TranslationElicitation_eng-prolific,3.2.4,Win32,60,5e0ce0bbda6bad4819153380,,1,0,81,19,1,80
,,,,,,,,,,,,,,,,,,,,,,,,,,,,,,,,,,,,,,,,,m,3.299999952,M,FALSE,,,,,,,180,tisores,Catalan,Sounds/cat_tisores.mp3,2020-06-05_16h20.39.976,TranslationElicitation_eng-prolific,3.2.4,Win32,60,5e0ce0bbda6bad4819153380,,1,0,81,71,1,80
,,,,,,,,,,,,,,,,,,,,,,,,,,,,,,,,,,,,,,,,,u,3.465999842,MU,FALSE,,,,,,,180,tisores,Catalan,Sounds/cat_tisores.mp3,2020-06-05_16h20.39.976,TranslationElicitation_eng-prolific,3.2.4,Win32,60,5e0ce0bbda6bad4819153380,,1,0,81,71,1,80
,,,,,,,,,,,,,,,,,,,,,,,,,,,,,,,,,,,,,,,,,s,3.548999786,MUS,FALSE,,,,,,,180,tisores,Catalan,Sounds/cat_tisores.mp3,2020-06-05_16h20.39.976,TranslationElicitation_eng-prolific,3.2.4,Win32,60,5e0ce0bbda6bad4819153380,,1,0,81,71,1,80
,,,,,,,,,,,,,,,,,,,,,,,,,,,,,,,,,,,,,,,,,i,3.656999826,MUSI,FALSE,,,,,,,180,tisores,Catalan,Sounds/cat_tisores.mp3,2020-06-05_16h20.39.976,TranslationElicitation_eng-prolific,3.2.4,Win32,60,5e0ce0bbda6bad4819153380,,1,0,81,71,1,80
,,,,,,,,,,,,,,,,,,,,,,,,,,,,,,,,,,,,,,,,,c,3.731999874,MUSIC,FALSE,,,,,,,180,tisores,Catalan,Sounds/cat_tisores.mp3,2020-06-05_16h20.39.976,TranslationElicitation_eng-prolific,3.2.4,Win32,60,5e0ce0bbda6bad4819153380,,1,0,81,71,1,80
,,,,,,,,,,,,,,,,,,,,,,,,,,,,,,,,,,,,,,,,,return,3.882999897,MUSIC,FALSE,,,,,,,180,tisores,Catalan,Sounds/cat_tisores.mp3,2020-06-05_16h20.39.976,TranslationElicitation_eng-prolific,3.2.4,Win32,60,5e0ce0bbda6bad4819153380,3.882999897,1,0,81,71,1,80
,,,,,,,,,,,,,,,,,,,,,,,,,,,,,,,,,,,,,,,,,,,,,,,,,,,180,tisores,Catalan,Sounds/cat_tisores.mp3,2020-06-05_16h20.39.976,TranslationElicitation_eng-prolific,3.2.4,Win32,60,5e0ce0bbda6bad4819153380,,1,0,81,71,1,80
,,,,,,,,,,,,,,,,,,,,,,,,,,,,,,,,,,,,,,,,,c,1.631999969,C,FALSE,,,,,,,188,xocolata,Catalan,Sounds/cat_xocolata.mp3,2020-06-05_16h20.39.976,TranslationElicitation_eng-prolific,3.2.4,Win32,60,5e0ce0bbda6bad4819153380,,1,0,81,79,1,80
,,,,,,,,,,,,,,,,,,,,,,,,,,,,,,,,,,,,,,,,,h,1.715999842,CH,FALSE,,,,,,,188,xocolata,Catalan,Sounds/cat_xocolata.mp3,2020-06-05_16h20.39.976,TranslationElicitation_eng-prolific,3.2.4,Win32,60,5e0ce0bbda6bad4819153380,,1,0,81,79,1,80
,,,,,,,,,,,,,,,,,,,,,,,,,,,,,,,,,,,,,,,,,o,1.883999825,CHO,FALSE,,,,,,,188,xocolata,Catalan,Sounds/cat_xocolata.mp3,2020-06-05_16h20.39.976,TranslationElicitation_eng-prolific,3.2.4,Win32,60,5e0ce0bbda6bad4819153380,,1,0,81,79,1,80
,,,,,,,,,,,,,,,,,,,,,,,,,,,,,,,,,,,,,,,,,c,1.965999842,CHOC,FALSE,,,,,,,188,xocolata,Catalan,Sounds/cat_xocolata.mp3,2020-06-05_16h20.39.976,TranslationElicitation_eng-prolific,3.2.4,Win32,60,5e0ce0bbda6bad4819153380,,1,0,81,79,1,80
,,,,,,,,,,,,,,,,,,,,,,,,,,,,,,,,,,,,,,,,,o,2.098999977,CHOCO,FALSE,,,,,,,188,xocolata,Catalan,Sounds/cat_xocolata.mp3,2020-06-05_16h20.39.976,TranslationElicitation_eng-prolific,3.2.4,Win32,60,5e0ce0bbda6bad4819153380,,1,0,81,79,1,80
,,,,,,,,,,,,,,,,,,,,,,,,,,,,,,,,,,,,,,,,,l,2.299999952,CHOCOL,FALSE,,,,,,,188,xocolata,Catalan,Sounds/cat_xocolata.mp3,2020-06-05_16h20.39.976,TranslationElicitation_eng-prolific,3.2.4,Win32,60,5e0ce0bbda6bad4819153380,,1,0,81,79,1,80
,,,,,,,,,,,,,,,,,,,,,,,,,,,,,,,,,,,,,,,,,a,2.398999929,CHOCOLA,FALSE,,,,,,,188,xocolata,Catalan,Sounds/cat_xocolata.mp3,2020-06-05_16h20.39.976,TranslationElicitation_eng-prolific,3.2.4,Win32,60,5e0ce0bbda6bad4819153380,,1,0,81,79,1,80
,,,,,,,,,,,,,,,,,,,,,,,,,,,,,,,,,,,,,,,,,backspace,3.281999826,CHOCOL,TRUE,,,,,,,188,xocolata,Catalan,Sounds/cat_xocolata.mp3,2020-06-05_16h20.39.976,TranslationElicitation_eng-prolific,3.2.4,Win32,60,5e0ce0bbda6bad4819153380,,1,0,81,79,1,80
,,,,,,,,,,,,,,,,,,,,,,,,,,,,,,,,,,,,,,,,,a,6.61500001,CHOCOLA,TRUE,,,,,,,188,xocolata,Catalan,Sounds/cat_xocolata.mp3,2020-06-05_16h20.39.976,TranslationElicitation_eng-prolific,3.2.4,Win32,60,5e0ce0bbda6bad4819153380,,1,0,81,79,1,80
,,,,,,,,,,,,,,,,,,,,,,,,,,,,,,,,,,,,,,,,,t,6.863999844,CHOCOLAT,TRUE,,,,,,,188,xocolata,Catalan,Sounds/cat_xocolata.mp3,2020-06-05_16h20.39.976,TranslationElicitation_eng-prolific,3.2.4,Win32,60,5e0ce0bbda6bad4819153380,,1,0,81,79,1,80
,,,,,,,,,,,,,,,,,,,,,,,,,,,,,,,,,,,,,,,,,e,6.980999947,CHOCOLATE,TRUE,,,,,,,188,xocolata,Catalan,Sounds/cat_xocolata.mp3,2020-06-05_16h20.39.976,TranslationElicitation_eng-prolific,3.2.4,Win32,60,5e0ce0bbda6bad4819153380,,1,0,81,79,1,80
,,,,,,,,,,,,,,,,,,,,,,,,,,,,,,,,,,,,,,,,,return,8.697999954,CHOCOLATE,TRUE,,,,,,,188,xocolata,Catalan,Sounds/cat_xocolata.mp3,2020-06-05_16h20.39.976,TranslationElicitation_eng-prolific,3.2.4,Win32,60,5e0ce0bbda6bad4819153380,8.697999954,1,0,81,79,1,80
,,,,,,,,,,,,,,,,,,,,,,,,,,,,,,,,,,,,,,,,,,,,,,,,,,,188,xocolata,Catalan,Sounds/cat_xocolata.mp3,2020-06-05_16h20.39.976,TranslationElicitation_eng-prolific,3.2.4,Win32,60,5e0ce0bbda6bad4819153380,,1,0,81,79,1,80
,,,,,,,,,,,,,,,,,,,,,,,,,,,,,,,,,,,,,,,,,p,4.332000017,P,FALSE,,,,,,,154,mirall,Catalan,Sounds/cat_mirall.mp3,2020-06-05_16h20.39.976,TranslationElicitation_eng-prolific,3.2.4,Win32,60,5e0ce0bbda6bad4819153380,,1,0,81,47,1,80
,,,,,,,,,,,,,,,,,,,,,,,,,,,,,,,,,,,,,,,,,e,4.413999796,PE,FALSE,,,,,,,154,mirall,Catalan,Sounds/cat_mirall.mp3,2020-06-05_16h20.39.976,TranslationElicitation_eng-prolific,3.2.4,Win32,60,5e0ce0bbda6bad4819153380,,1,0,81,47,1,80
,,,,,,,,,,,,,,,,,,,,,,,,,,,,,,,,,,,,,,,,,t,4.597999811,PET,FALSE,,,,,,,154,mirall,Catalan,Sounds/cat_mirall.mp3,2020-06-05_16h20.39.976,TranslationElicitation_eng-prolific,3.2.4,Win32,60,5e0ce0bbda6bad4819153380,,1,0,81,47,1,80
,,,,,,,,,,,,,,,,,,,,,,,,,,,,,,,,,,,,,,,,,r,4.747999907,PETR,FALSE,,,,,,,154,mirall,Catalan,Sounds/cat_mirall.mp3,2020-06-05_16h20.39.976,TranslationElicitation_eng-prolific,3.2.4,Win32,60,5e0ce0bbda6bad4819153380,,1,0,81,47,1,80
,,,,,,,,,,,,,,,,,,,,,,,,,,,,,,,,,,,,,,,,,o,4.798999786,PETRO,FALSE,,,,,,,154,mirall,Catalan,Sounds/cat_mirall.mp3,2020-06-05_16h20.39.976,TranslationElicitation_eng-prolific,3.2.4,Win32,60,5e0ce0bbda6bad4819153380,,1,0,81,47,1,80
,,,,,,,,,,,,,,,,,,,,,,,,,,,,,,,,,,,,,,,,,l,4.964999914,PETROL,FALSE,,,,,,,154,mirall,Catalan,Sounds/cat_mirall.mp3,2020-06-05_16h20.39.976,TranslationElicitation_eng-prolific,3.2.4,Win32,60,5e0ce0bbda6bad4819153380,,1,0,81,47,1,80
,,,,,,,,,,,,,,,,,,,,,,,,,,,,,,,,,,,,,,,,,return,5.164999962,PETROL,FALSE,,,,,,,154,mirall,Catalan,Sounds/cat_mirall.mp3,2020-06-05_16h20.39.976,TranslationElicitation_eng-prolific,3.2.4,Win32,60,5e0ce0bbda6bad4819153380,5.164999962,1,0,81,47,1,80
,,,,,,,,,,,,,,,,,,,,,,,,,,,,,,,,,,,,,,,,,,,,,,,,,,,154,mirall,Catalan,Sounds/cat_mirall.mp3,2020-06-05_16h20.39.976,TranslationElicitation_eng-prolific,3.2.4,Win32,60,5e0ce0bbda6bad4819153380,,1,0,81,47,1,80
,,,,,,,,,,,,,,,,,,,,,,,,,,,,,,,,,,,,,,,,,d,2.381999969,D,FALSE,,,,,,,162,pa,Catalan,Sounds/cat_pa.mp3,2020-06-05_16h20.39.976,TranslationElicitation_eng-prolific,3.2.4,Win32,60,5e0ce0bbda6bad4819153380,,1,0,81,54,1,80
,,,,,,,,,,,,,,,,,,,,,,,,,,,,,,,,,,,,,,,,,a,2.530999899,DA,FALSE,,,,,,,162,pa,Catalan,Sounds/cat_pa.mp3,2020-06-05_16h20.39.976,TranslationElicitation_eng-prolific,3.2.4,Win32,60,5e0ce0bbda6bad4819153380,,1,0,81,54,1,80
,,,,,,,,,,,,,,,,,,,,,,,,,,,,,,,,,,,,,,,,,d,2.882999897,DAD,FALSE,,,,,,,162,pa,Catalan,Sounds/cat_pa.mp3,2020-06-05_16h20.39.976,TranslationElicitation_eng-prolific,3.2.4,Win32,60,5e0ce0bbda6bad4819153380,,1,0,81,54,1,80
,,,,,,,,,,,,,,,,,,,,,,,,,,,,,,,,,,,,,,,,,return,3.080999851,DAD,FALSE,,,,,,,162,pa,Catalan,Sounds/cat_pa.mp3,2020-06-05_16h20.39.976,TranslationElicitation_eng-prolific,3.2.4,Win32,60,5e0ce0bbda6bad4819153380,3.080999851,1,0,81,54,1,80
,,,,,,,,,,,,,,,,,,,,,,,,,,,,,,,,,,,,,,,,,,,,,,,,,,,162,pa,Catalan,Sounds/cat_pa.mp3,2020-06-05_16h20.39.976,TranslationElicitation_eng-prolific,3.2.4,Win32,60,5e0ce0bbda6bad4819153380,,1,0,81,54,1,80
,,,,,,,,,,,,,,,,,,,,,,,,,,,,,,,,,,,,,,,,,m,1.997999907,M,FALSE,,,,,,,104,abella,Catalan,Sounds/cat_abella.mp3,2020-06-05_16h20.39.976,TranslationElicitation_eng-prolific,3.2.4,Win32,60,5e0ce0bbda6bad4819153380,,1,0,81,0,1,80
,,,,,,,,,,,,,,,,,,,,,,,,,,,,,,,,,,,,,,,,,o,2.097999811,MO,FALSE,,,,,,,104,abella,Catalan,Sounds/cat_abella.mp3,2020-06-05_16h20.39.976,TranslationElicitation_eng-prolific,3.2.4,Win32,60,5e0ce0bbda6bad4819153380,,1,0,81,0,1,80
,,,,,,,,,,,,,,,,,,,,,,,,,,,,,,,,,,,,,,,,,t,2.197999954,MOT,FALSE,,,,,,,104,abella,Catalan,Sounds/cat_abella.mp3,2020-06-05_16h20.39.976,TranslationElicitation_eng-prolific,3.2.4,Win32,60,5e0ce0bbda6bad4819153380,,1,0,81,0,1,80
,,,,,,,,,,,,,,,,,,,,,,,,,,,,,,,,,,,,,,,,,h,2.330999851,MOTH,FALSE,,,,,,,104,abella,Catalan,Sounds/cat_abella.mp3,2020-06-05_16h20.39.976,TranslationElicitation_eng-prolific,3.2.4,Win32,60,5e0ce0bbda6bad4819153380,,1,0,81,0,1,80
,,,,,,,,,,,,,,,,,,,,,,,,,,,,,,,,,,,,,,,,,e,2.36500001,MOTHE,FALSE,,,,,,,104,abella,Catalan,Sounds/cat_abella.mp3,2020-06-05_16h20.39.976,TranslationElicitation_eng-prolific,3.2.4,Win32,60,5e0ce0bbda6bad4819153380,,1,0,81,0,1,80
,,,,,,,,,,,,,,,,,,,,,,,,,,,,,,,,,,,,,,,,,r,2.398000002,MOTHER,FALSE,,,,,,,104,abella,Catalan,Sounds/cat_abella.mp3,2020-06-05_16h20.39.976,TranslationElicitation_eng-prolific,3.2.4,Win32,60,5e0ce0bbda6bad4819153380,,1,0,81,0,1,80
,,,,,,,,,,,,,,,,,,,,,,,,,,,,,,,,,,,,,,,,,return,2.563999891,MOTHER,FALSE,,,,,,,104,abella,Catalan,Sounds/cat_abella.mp3,2020-06-05_16h20.39.976,TranslationElicitation_eng-prolific,3.2.4,Win32,60,5e0ce0bbda6bad4819153380,2.563999891,1,0,81,0,1,80
,,,,,,,,,,,,,,,,,,,,,,,,,,,,,,,,,,,,,,,,,,,,,,,,,,,104,abella,Catalan,Sounds/cat_abella.mp3,2020-06-05_16h20.39.976,TranslationElicitation_eng-prolific,3.2.4,Win32,60,5e0ce0bbda6bad4819153380,,1,0,81,0,1,80
,,,,,,,,,,,,,,,,,,,,,,,,,,,,,,,,,,,,,,,,,s,2.649000168,S,FALSE,,,,,,,177,sol,Catalan,Sounds/cat_sol.mp3,2020-06-05_16h20.39.976,TranslationElicitation_eng-prolific,3.2.4,Win32,60,5e0ce0bbda6bad4819153380,,1,0,81,69,1,80
,,,,,,,,,,,,,,,,,,,,,,,,,,,,,,,,,,,,,,,,,u,2.732000113,SU,FALSE,,,,,,,177,sol,Catalan,Sounds/cat_sol.mp3,2020-06-05_16h20.39.976,TranslationElicitation_eng-prolific,3.2.4,Win32,60,5e0ce0bbda6bad4819153380,,1,0,81,69,1,80
,,,,,,,,,,,,,,,,,,,,,,,,,,,,,,,,,,,,,,,,,n,2.832000017,SUN,FALSE,,,,,,,177,sol,Catalan,Sounds/cat_sol.mp3,2020-06-05_16h20.39.976,TranslationElicitation_eng-prolific,3.2.4,Win32,60,5e0ce0bbda6bad4819153380,,1,0,81,69,1,80
,,,,,,,,,,,,,,,,,,,,,,,,,,,,,,,,,,,,,,,,,return,3.082000017,SUN,FALSE,,,,,,,177,sol,Catalan,Sounds/cat_sol.mp3,2020-06-05_16h20.39.976,TranslationElicitation_eng-prolific,3.2.4,Win32,60,5e0ce0bbda6bad4819153380,3.082000017,1,0,81,69,1,80
,,,,,,,,,,,,,,,,,,,,,,,,,,,,,,,,,,,,,,,,,,,,,,,,,,,177,sol,Catalan,Sounds/cat_sol.mp3,2020-06-05_16h20.39.976,TranslationElicitation_eng-prolific,3.2.4,Win32,60,5e0ce0bbda6bad4819153380,,1,0,81,69,1,80
,,,,,,,,,,,,,,,,,,,,,,,,,,,,,,,,,,,,,,,,,o,9.818000078,O,FALSE,,,,,,,184,ull,Catalan,Sounds/cat_ull.mp3,2020-06-05_16h20.39.976,TranslationElicitation_eng-prolific,3.2.4,Win32,60,5e0ce0bbda6bad4819153380,,1,0,81,75,1,80
,,,,,,,,,,,,,,,,,,,,,,,,,,,,,,,,,,,,,,,,,i,9.913000107,OI,FALSE,,,,,,,184,ull,Catalan,Sounds/cat_ull.mp3,2020-06-05_16h20.39.976,TranslationElicitation_eng-prolific,3.2.4,Win32,60,5e0ce0bbda6bad4819153380,,1,0,81,75,1,80
,,,,,,,,,,,,,,,,,,,,,,,,,,,,,,,,,,,,,,,,,l,10.046,OIL,FALSE,,,,,,,184,ull,Catalan,Sounds/cat_ull.mp3,2020-06-05_16h20.39.976,TranslationElicitation_eng-prolific,3.2.4,Win32,60,5e0ce0bbda6bad4819153380,,1,0,81,75,1,80
,,,,,,,,,,,,,,,,,,,,,,,,,,,,,,,,,,,,,,,,,return,10.34600019,OIL,FALSE,,,,,,,184,ull,Catalan,Sounds/cat_ull.mp3,2020-06-05_16h20.39.976,TranslationElicitation_eng-prolific,3.2.4,Win32,60,5e0ce0bbda6bad4819153380,10.34600019,1,0,81,75,1,80
,,,,,,,,,,,,,,,,,,,,,,,,,,,,,,,,,,,,,,,,,,,,,,,,,,,184,ull,Catalan,Sounds/cat_ull.mp3,2020-06-05_16h20.39.976,TranslationElicitation_eng-prolific,3.2.4,Win32,60,5e0ce0bbda6bad4819153380,,1,0,81,75,1,80
,,,,,,,,,,,,,,,,,,,,,,,,,,,,,,,,,,,,,,,,,c,2.764999866,C,FALSE,,,,,,,125,colom,Catalan,Sounds/cat_colom.mp3,2020-06-05_16h20.39.976,TranslationElicitation_eng-prolific,3.2.4,Win32,60,5e0ce0bbda6bad4819153380,,1,0,81,20,1,80
,,,,,,,,,,,,,,,,,,,,,,,,,,,,,,,,,,,,,,,,,o,2.865999937,CO,FALSE,,,,,,,125,colom,Catalan,Sounds/cat_colom.mp3,2020-06-05_16h20.39.976,TranslationElicitation_eng-prolific,3.2.4,Win32,60,5e0ce0bbda6bad4819153380,,1,0,81,20,1,80
,,,,,,,,,,,,,,,,,,,,,,,,,,,,,,,,,,,,,,,,,m,2.932999849,COM,FALSE,,,,,,,125,colom,Catalan,Sounds/cat_colom.mp3,2020-06-05_16h20.39.976,TranslationElicitation_eng-prolific,3.2.4,Win32,60,5e0ce0bbda6bad4819153380,,1,0,81,20,1,80
,,,,,,,,,,,,,,,,,,,,,,,,,,,,,,,,,,,,,,,,,b,3.066999912,COMB,FALSE,,,,,,,125,colom,Catalan,Sounds/cat_colom.mp3,2020-06-05_16h20.39.976,TranslationElicitation_eng-prolific,3.2.4,Win32,60,5e0ce0bbda6bad4819153380,,1,0,81,20,1,80
,,,,,,,,,,,,,,,,,,,,,,,,,,,,,,,,,,,,,,,,,return,3.247999907,COMB,FALSE,,,,,,,125,colom,Catalan,Sounds/cat_colom.mp3,2020-06-05_16h20.39.976,TranslationElicitation_eng-prolific,3.2.4,Win32,60,5e0ce0bbda6bad4819153380,3.247999907,1,0,81,20,1,80
,,,,,,,,,,,,,,,,,,,,,,,,,,,,,,,,,,,,,,,,,,,,,,,,,,,125,colom,Catalan,Sounds/cat_colom.mp3,2020-06-05_16h20.39.976,TranslationElicitation_eng-prolific,3.2.4,Win32,60,5e0ce0bbda6bad4819153380,,1,0,81,20,1,80
,,,,,,,,,,,,,,,,,,,,,,,,,,,,,,,,,,,,,,,,,s,4.632999897,S,FALSE,,,,,,,111,bibero,Catalan,Sounds/cat_bibero.mp3,2020-06-05_16h20.39.976,TranslationElicitation_eng-prolific,3.2.4,Win32,60,5e0ce0bbda6bad4819153380,,1,0,81,6,1,80
,,,,,,,,,,,,,,,,,,,,,,,,,,,,,,,,,,,,,,,,,o,4.881999969,SO,FALSE,,,,,,,111,bibero,Catalan,Sounds/cat_bibero.mp3,2020-06-05_16h20.39.976,TranslationElicitation_eng-prolific,3.2.4,Win32,60,5e0ce0bbda6bad4819153380,,1,0,81,6,1,80
,,,,,,,,,,,,,,,,,,,,,,,,,,,,,,,,,,,,,,,,,n,4.948999882,SON,FALSE,,,,,,,111,bibero,Catalan,Sounds/cat_bibero.mp3,2020-06-05_16h20.39.976,TranslationElicitation_eng-prolific,3.2.4,Win32,60,5e0ce0bbda6bad4819153380,,1,0,81,6,1,80
,,,,,,,,,,,,,,,,,,,,,,,,,,,,,,,,,,,,,,,,,g,5.016000032,SONG,FALSE,,,,,,,111,bibero,Catalan,Sounds/cat_bibero.mp3,2020-06-05_16h20.39.976,TranslationElicitation_eng-prolific,3.2.4,Win32,60,5e0ce0bbda6bad4819153380,,1,0,81,6,1,80
,,,,,,,,,,,,,,,,,,,,,,,,,,,,,,,,,,,,,,,,,return,5.213999987,SONG,FALSE,,,,,,,111,bibero,Catalan,Sounds/cat_bibero.mp3,2020-06-05_16h20.39.976,TranslationElicitation_eng-prolific,3.2.4,Win32,60,5e0ce0bbda6bad4819153380,5.213999987,1,0,81,6,1,80
,,,,,,,,,,,,,,,,,,,,,,,,,,,,,,,,,,,,,,,,,,,,,,,,,,,111,bibero,Catalan,Sounds/cat_bibero.mp3,2020-06-05_16h20.39.976,TranslationElicitation_eng-prolific,3.2.4,Win32,60,5e0ce0bbda6bad4819153380,,1,0,81,6,1,80
,,,,,,,,,,,,,,,,,,,,,,,,,,,,,,,,,,,,,,,,,t,3.847999811,T,FALSE,,,,,,,181,tobogan,Catalan,Sounds/cat_tobogan.mp3,2020-06-05_16h20.39.976,TranslationElicitation_eng-prolific,3.2.4,Win32,60,5e0ce0bbda6bad4819153380,,1,0,81,72,1,80
,,,,,,,,,,,,,,,,,,,,,,,,,,,,,,,,,,,,,,,,,o,3.997999907,TO,FALSE,,,,,,,181,tobogan,Catalan,Sounds/cat_tobogan.mp3,2020-06-05_16h20.39.976,TranslationElicitation_eng-prolific,3.2.4,Win32,60,5e0ce0bbda6bad4819153380,,1,0,81,72,1,80
,,,,,,,,,,,,,,,,,,,,,,,,,,,,,,,,,,,,,,,,,b,4.264999866,TOB,FALSE,,,,,,,181,tobogan,Catalan,Sounds/cat_tobogan.mp3,2020-06-05_16h20.39.976,TranslationElicitation_eng-prolific,3.2.4,Win32,60,5e0ce0bbda6bad4819153380,,1,0,81,72,1,80
,,,,,,,,,,,,,,,,,,,,,,,,,,,,,,,,,,,,,,,,,o,4.346999884,TOBO,FALSE,,,,,,,181,tobogan,Catalan,Sounds/cat_tobogan.mp3,2020-06-05_16h20.39.976,TranslationElicitation_eng-prolific,3.2.4,Win32,60,5e0ce0bbda6bad4819153380,,1,0,81,72,1,80
,,,,,,,,,,,,,,,,,,,,,,,,,,,,,,,,,,,,,,,,,g,4.465999842,TOBOG,FALSE,,,,,,,181,tobogan,Catalan,Sounds/cat_tobogan.mp3,2020-06-05_16h20.39.976,TranslationElicitation_eng-prolific,3.2.4,Win32,60,5e0ce0bbda6bad4819153380,,1,0,81,72,1,80
,,,,,,,,,,,,,,,,,,,,,,,,,,,,,,,,,,,,,,,,,a,4.730999947,TOBOGA,FALSE,,,,,,,181,tobogan,Catalan,Sounds/cat_tobogan.mp3,2020-06-05_16h20.39.976,TranslationElicitation_eng-prolific,3.2.4,Win32,60,5e0ce0bbda6bad4819153380,,1,0,81,72,1,80
,,,,,,,,,,,,,,,,,,,,,,,,,,,,,,,,,,,,,,,,,n,4.829999924,TOBOGAN,FALSE,,,,,,,181,tobogan,Catalan,Sounds/cat_tobogan.mp3,2020-06-05_16h20.39.976,TranslationElicitation_eng-prolific,3.2.4,Win32,60,5e0ce0bbda6bad4819153380,,1,0,81,72,1,80
,,,,,,,,,,,,,,,,,,,,,,,,,,,,,,,,,,,,,,,,,return,5.213999987,TOBOGAN,FALSE,,,,,,,181,tobogan,Catalan,Sounds/cat_tobogan.mp3,2020-06-05_16h20.39.976,TranslationElicitation_eng-prolific,3.2.4,Win32,60,5e0ce0bbda6bad4819153380,5.213999987,1,0,81,72,1,80
,,,,,,,,,,,,,,,,,,,,,,,,,,,,,,,,,,,,,,,,,,,,,,,,,,,181,tobogan,Catalan,Sounds/cat_tobogan.mp3,2020-06-05_16h20.39.976,TranslationElicitation_eng-prolific,3.2.4,Win32,60,5e0ce0bbda6bad4819153380,,1,0,81,72,1,80
,,,,,,,,,,,,,,,,,,,,,,,,,,,,,,,,,,,,,,,,,a,2.583000183,A,FALSE,,,,,,,176,samarreta,Catalan,Sounds/cat_samarreta.mp3,2020-06-05_16h20.39.976,TranslationElicitation_eng-prolific,3.2.4,Win32,60,5e0ce0bbda6bad4819153380,,1,0,81,68,1,80
,,,,,,,,,,,,,,,,,,,,,,,,,,,,,,,,,,,,,,,,,l,2.69900012,AL,FALSE,,,,,,,176,samarreta,Catalan,Sounds/cat_samarreta.mp3,2020-06-05_16h20.39.976,TranslationElicitation_eng-prolific,3.2.4,Win32,60,5e0ce0bbda6bad4819153380,,1,0,81,68,1,80
,,,,,,,,,,,,,,,,,,,,,,,,,,,,,,,,,,,,,,,,,c,2.834000111,ALC,FALSE,,,,,,,176,samarreta,Catalan,Sounds/cat_samarreta.mp3,2020-06-05_16h20.39.976,TranslationElicitation_eng-prolific,3.2.4,Win32,60,5e0ce0bbda6bad4819153380,,1,0,81,68,1,80
,,,,,,,,,,,,,,,,,,,,,,,,,,,,,,,,,,,,,,,,,o,2.950000048,ALCO,FALSE,,,,,,,176,samarreta,Catalan,Sounds/cat_samarreta.mp3,2020-06-05_16h20.39.976,TranslationElicitation_eng-prolific,3.2.4,Win32,60,5e0ce0bbda6bad4819153380,,1,0,81,68,1,80
,,,,,,,,,,,,,,,,,,,,,,,,,,,,,,,,,,,,,,,,,h,3.166000128,ALCOH,FALSE,,,,,,,176,samarreta,Catalan,Sounds/cat_samarreta.mp3,2020-06-05_16h20.39.976,TranslationElicitation_eng-prolific,3.2.4,Win32,60,5e0ce0bbda6bad4819153380,,1,0,81,68,1,80
,,,,,,,,,,,,,,,,,,,,,,,,,,,,,,,,,,,,,,,,,o,3.315999985,ALCOHO,FALSE,,,,,,,176,samarreta,Catalan,Sounds/cat_samarreta.mp3,2020-06-05_16h20.39.976,TranslationElicitation_eng-prolific,3.2.4,Win32,60,5e0ce0bbda6bad4819153380,,1,0,81,68,1,80
,,,,,,,,,,,,,,,,,,,,,,,,,,,,,,,,,,,,,,,,,l,3.48300004,ALCOHOL,FALSE,,,,,,,176,samarreta,Catalan,Sounds/cat_samarreta.mp3,2020-06-05_16h20.39.976,TranslationElicitation_eng-prolific,3.2.4,Win32,60,5e0ce0bbda6bad4819153380,,1,0,81,68,1,80
,,,,,,,,,,,,,,,,,,,,,,,,,,,,,,,,,,,,,,,,,return,3.69900012,ALCOHOL,FALSE,,,,,,,176,samarreta,Catalan,Sounds/cat_samarreta.mp3,2020-06-05_16h20.39.976,TranslationElicitation_eng-prolific,3.2.4,Win32,60,5e0ce0bbda6bad4819153380,3.69900012,1,0,81,68,1,80
,,,,,,,,,,,,,,,,,,,,,,,,,,,,,,,,,,,,,,,,,,,,,,,,,,,176,samarreta,Catalan,Sounds/cat_samarreta.mp3,2020-06-05_16h20.39.976,TranslationElicitation_eng-prolific,3.2.4,Win32,60,5e0ce0bbda6bad4819153380,,1,0,81,68,1,80
,,,,,,,,,,,,,,,,,,,,,,,,,,,,,,,,,,,,,,,,,g,1.382999897,G,FALSE,,,,,,,146,guitarra,Catalan,Sounds/cat_guitarra.mp3,2020-06-05_16h20.39.976,TranslationElicitation_eng-prolific,3.2.4,Win32,60,5e0ce0bbda6bad4819153380,,1,0,81,40,1,80
,,,,,,,,,,,,,,,,,,,,,,,,,,,,,,,,,,,,,,,,,u,1.499000072,GU,FALSE,,,,,,,146,guitarra,Catalan,Sounds/cat_guitarra.mp3,2020-06-05_16h20.39.976,TranslationElicitation_eng-prolific,3.2.4,Win32,60,5e0ce0bbda6bad4819153380,,1,0,81,40,1,80
,,,,,,,,,,,,,,,,,,,,,,,,,,,,,,,,,,,,,,,,,i,1.582000017,GUI,FALSE,,,,,,,146,guitarra,Catalan,Sounds/cat_guitarra.mp3,2020-06-05_16h20.39.976,TranslationElicitation_eng-prolific,3.2.4,Win32,60,5e0ce0bbda6bad4819153380,,1,0,81,40,1,80
,,,,,,,,,,,,,,,,,,,,,,,,,,,,,,,,,,,,,,,,,t,1.649999857,GUIT,FALSE,,,,,,,146,guitarra,Catalan,Sounds/cat_guitarra.mp3,2020-06-05_16h20.39.976,TranslationElicitation_eng-prolific,3.2.4,Win32,60,5e0ce0bbda6bad4819153380,,1,0,81,40,1,80
,,,,,,,,,,,,,,,,,,,,,,,,,,,,,,,,,,,,,,,,,a,1.865999937,GUITA,FALSE,,,,,,,146,guitarra,Catalan,Sounds/cat_guitarra.mp3,2020-06-05_16h20.39.976,TranslationElicitation_eng-prolific,3.2.4,Win32,60,5e0ce0bbda6bad4819153380,,1,0,81,40,1,80
,,,,,,,,,,,,,,,,,,,,,,,,,,,,,,,,,,,,,,,,,r,2.065000057,GUITAR,FALSE,,,,,,,146,guitarra,Catalan,Sounds/cat_guitarra.mp3,2020-06-05_16h20.39.976,TranslationElicitation_eng-prolific,3.2.4,Win32,60,5e0ce0bbda6bad4819153380,,1,0,81,40,1,80
,,,,,,,,,,,,,,,,,,,,,,,,,,,,,,,,,,,,,,,,,return,2.266000032,GUITAR,FALSE,,,,,,,146,guitarra,Catalan,Sounds/cat_guitarra.mp3,2020-06-05_16h20.39.976,TranslationElicitation_eng-prolific,3.2.4,Win32,60,5e0ce0bbda6bad4819153380,2.266000032,1,0,81,40,1,80
,,,,,,,,,,,,,,,,,,,,,,,,,,,,,,,,,,,,,,,,,,,,,,,,,,,146,guitarra,Catalan,Sounds/cat_guitarra.mp3,2020-06-05_16h20.39.976,TranslationElicitation_eng-prolific,3.2.4,Win32,60,5e0ce0bbda6bad4819153380,,1,0,81,40,1,80
,,,,,,,,,,,,,,,,,,,,,,,,,,,,,,,,,,,,,,,,,c,4.548000097,C,FALSE,,,,,,,186,ungla,Catalan,Sounds/cat_ungla.mp3,2020-06-05_16h20.39.976,TranslationElicitation_eng-prolific,3.2.4,Win32,60,5e0ce0bbda6bad4819153380,,1,0,81,77,1,80
,,,,,,,,,,,,,,,,,,,,,,,,,,,,,,,,,,,,,,,,,a,4.650000095,CA,FALSE,,,,,,,186,ungla,Catalan,Sounds/cat_ungla.mp3,2020-06-05_16h20.39.976,TranslationElicitation_eng-prolific,3.2.4,Win32,60,5e0ce0bbda6bad4819153380,,1,0,81,77,1,80
,,,,,,,,,,,,,,,,,,,,,,,,,,,,,,,,,,,,,,,,,r,4.799000025,CAR,FALSE,,,,,,,186,ungla,Catalan,Sounds/cat_ungla.mp3,2020-06-05_16h20.39.976,TranslationElicitation_eng-prolific,3.2.4,Win32,60,5e0ce0bbda6bad4819153380,,1,0,81,77,1,80
,,,,,,,,,,,,,,,,,,,,,,,,,,,,,,,,,,,,,,,,,return,4.998000145,CAR,FALSE,,,,,,,186,ungla,Catalan,Sounds/cat_ungla.mp3,2020-06-05_16h20.39.976,TranslationElicitation_eng-prolific,3.2.4,Win32,60,5e0ce0bbda6bad4819153380,4.998000145,1,0,81,77,1,80
,,,,,,,,,,,,,,,,,,,,,,,,,,,,,,,,,,,,,,,,,,,,,,,,,,,186,ungla,Catalan,Sounds/cat_ungla.mp3,2020-06-05_16h20.39.976,TranslationElicitation_eng-prolific,3.2.4,Win32,60,5e0ce0bbda6bad4819153380,,1,0,81,77,1,80
,,,,,,,,,,,,,,,,,,,,,,,,,,,,,,,,,,,,,,,,,m,2.098999977,M,FALSE,,,,,,,151,lluna,Catalan,Sounds/cat_lluna.mp3,2020-06-05_16h20.39.976,TranslationElicitation_eng-prolific,3.2.4,Win32,60,5e0ce0bbda6bad4819153380,,1,0,81,44,1,80
,,,,,,,,,,,,,,,,,,,,,,,,,,,,,,,,,,,,,,,,,o,2.249000072,MO,FALSE,,,,,,,151,lluna,Catalan,Sounds/cat_lluna.mp3,2020-06-05_16h20.39.976,TranslationElicitation_eng-prolific,3.2.4,Win32,60,5e0ce0bbda6bad4819153380,,1,0,81,44,1,80
,,,,,,,,,,,,,,,,,,,,,,,,,,,,,,,,,,,,,,,,,o,2.398999929,MOO,FALSE,,,,,,,151,lluna,Catalan,Sounds/cat_lluna.mp3,2020-06-05_16h20.39.976,TranslationElicitation_eng-prolific,3.2.4,Win32,60,5e0ce0bbda6bad4819153380,,1,0,81,44,1,80
,,,,,,,,,,,,,,,,,,,,,,,,,,,,,,,,,,,,,,,,,n,2.465999842,MOON,FALSE,,,,,,,151,lluna,Catalan,Sounds/cat_lluna.mp3,2020-06-05_16h20.39.976,TranslationElicitation_eng-prolific,3.2.4,Win32,60,5e0ce0bbda6bad4819153380,,1,0,81,44,1,80
,,,,,,,,,,,,,,,,,,,,,,,,,,,,,,,,,,,,,,,,,return,2.816999912,MOON,FALSE,,,,,,,151,lluna,Catalan,Sounds/cat_lluna.mp3,2020-06-05_16h20.39.976,TranslationElicitation_eng-prolific,3.2.4,Win32,60,5e0ce0bbda6bad4819153380,2.816999912,1,0,81,44,1,80
,,,,,,,,,,,,,,,,,,,,,,,,,,,,,,,,,,,,,,,,,,,,,,,,,,,151,lluna,Catalan,Sounds/cat_lluna.mp3,2020-06-05_16h20.39.976,TranslationElicitation_eng-prolific,3.2.4,Win32,60,5e0ce0bbda6bad4819153380,,1,0,81,44,1,80
,,,,,,,,,,,,,,,,,,,,,,,,,,,,,,,,,,,,,,,,,p,1.76699996,P,FALSE,,,,,,,168,planta,Catalan,Sounds/cat_planta.mp3,2020-06-05_16h20.39.976,TranslationElicitation_eng-prolific,3.2.4,Win32,60,5e0ce0bbda6bad4819153380,,1,0,81,60,1,80
,,,,,,,,,,,,,,,,,,,,,,,,,,,,,,,,,,,,,,,,,l,1.798999786,PL,FALSE,,,,,,,168,planta,Catalan,Sounds/cat_planta.mp3,2020-06-05_16h20.39.976,TranslationElicitation_eng-prolific,3.2.4,Win32,60,5e0ce0bbda6bad4819153380,,1,0,81,60,1,80
,,,,,,,,,,,,,,,,,,,,,,,,,,,,,,,,,,,,,,,,,a,1.934000015,PLA,FALSE,,,,,,,168,planta,Catalan,Sounds/cat_planta.mp3,2020-06-05_16h20.39.976,TranslationElicitation_eng-prolific,3.2.4,Win32,60,5e0ce0bbda6bad4819153380,,1,0,81,60,1,80
,,,,,,,,,,,,,,,,,,,,,,,,,,,,,,,,,,,,,,,,,n,2.116999865,PLAN,FALSE,,,,,,,168,planta,Catalan,Sounds/cat_planta.mp3,2020-06-05_16h20.39.976,TranslationElicitation_eng-prolific,3.2.4,Win32,60,5e0ce0bbda6bad4819153380,,1,0,81,60,1,80
,,,,,,,,,,,,,,,,,,,,,,,,,,,,,,,,,,,,,,,,,t,2.228999853,PLANT,FALSE,,,,,,,168,planta,Catalan,Sounds/cat_planta.mp3,2020-06-05_16h20.39.976,TranslationElicitation_eng-prolific,3.2.4,Win32,60,5e0ce0bbda6bad4819153380,,1,0,81,60,1,80
,,,,,,,,,,,,,,,,,,,,,,,,,,,,,,,,,,,,,,,,,return,2.431999922,PLANT,FALSE,,,,,,,168,planta,Catalan,Sounds/cat_planta.mp3,2020-06-05_16h20.39.976,TranslationElicitation_eng-prolific,3.2.4,Win32,60,5e0ce0bbda6bad4819153380,2.431999922,1,0,81,60,1,80
,,,,,,,,,,,,,,,,,,,,,,,,,,,,,,,,,,,,,,,,,,,,,,,,,,,168,planta,Catalan,Sounds/cat_planta.mp3,2020-06-05_16h20.39.976,TranslationElicitation_eng-prolific,3.2.4,Win32,60,5e0ce0bbda6bad4819153380,,1,0,81,60,1,80
,,,,,,,,,,,,,,,,,,,,,,,,,,,,,,,,,,,,,,,,,z,2.016000032,Z,FALSE,,,,,,,189,zebra,Catalan,Sounds/cat_zebra.mp3,2020-06-05_16h20.39.976,TranslationElicitation_eng-prolific,3.2.4,Win32,60,5e0ce0bbda6bad4819153380,,1,0,81,80,1,80
,,,,,,,,,,,,,,,,,,,,,,,,,,,,,,,,,,,,,,,,,e,2.25,ZE,FALSE,,,,,,,189,zebra,Catalan,Sounds/cat_zebra.mp3,2020-06-05_16h20.39.976,TranslationElicitation_eng-prolific,3.2.4,Win32,60,5e0ce0bbda6bad4819153380,,1,0,81,80,1,80
,,,,,,,,,,,,,,,,,,,,,,,,,,,,,,,,,,,,,,,,,b,2.348999977,ZEB,FALSE,,,,,,,189,zebra,Catalan,Sounds/cat_zebra.mp3,2020-06-05_16h20.39.976,TranslationElicitation_eng-prolific,3.2.4,Win32,60,5e0ce0bbda6bad4819153380,,1,0,81,80,1,80
,,,,,,,,,,,,,,,,,,,,,,,,,,,,,,,,,,,,,,,,,r,2.43200016,ZEBR,FALSE,,,,,,,189,zebra,Catalan,Sounds/cat_zebra.mp3,2020-06-05_16h20.39.976,TranslationElicitation_eng-prolific,3.2.4,Win32,60,5e0ce0bbda6bad4819153380,,1,0,81,80,1,80
,,,,,,,,,,,,,,,,,,,,,,,,,,,,,,,,,,,,,,,,,a,2.615999937,ZEBRA,FALSE,,,,,,,189,zebra,Catalan,Sounds/cat_zebra.mp3,2020-06-05_16h20.39.976,TranslationElicitation_eng-prolific,3.2.4,Win32,60,5e0ce0bbda6bad4819153380,,1,0,81,80,1,80
,,,,,,,,,,,,,,,,,,,,,,,,,,,,,,,,,,,,,,,,,return,2.766000032,ZEBRA,FALSE,,,,,,,189,zebra,Catalan,Sounds/cat_zebra.mp3,2020-06-05_16h20.39.976,TranslationElicitation_eng-prolific,3.2.4,Win32,60,5e0ce0bbda6bad4819153380,2.766000032,1,0,81,80,1,80
,,,,,,,,,,,,,,,,,,,,,,,,,,,,,,,,,,,,,,,,,,,,,,,,,,,189,zebra,Catalan,Sounds/cat_zebra.mp3,2020-06-05_16h20.39.976,TranslationElicitation_eng-prolific,3.2.4,Win32,60,5e0ce0bbda6bad4819153380,,1,0,81,80,1,80
,,,,,,,,,,,,,,,,,,,,,,,,,,,,,,,,,,,,,,,,,g,4.247999907,G,FALSE,,,,,,,143,globus,Catalan,Sounds/cat_globus.mp3,2020-06-05_16h20.39.976,TranslationElicitation_eng-prolific,3.2.4,Win32,60,5e0ce0bbda6bad4819153380,,1,0,81,37,1,80
,,,,,,,,,,,,,,,,,,,,,,,,,,,,,,,,,,,,,,,,,l,4.31400013,GL,FALSE,,,,,,,143,globus,Catalan,Sounds/cat_globus.mp3,2020-06-05_16h20.39.976,TranslationElicitation_eng-prolific,3.2.4,Win32,60,5e0ce0bbda6bad4819153380,,1,0,81,37,1,80
,,,,,,,,,,,,,,,,,,,,,,,,,,,,,,,,,,,,,,,,,o,4.464999914,GLO,FALSE,,,,,,,143,globus,Catalan,Sounds/cat_globus.mp3,2020-06-05_16h20.39.976,TranslationElicitation_eng-prolific,3.2.4,Win32,60,5e0ce0bbda6bad4819153380,,1,0,81,37,1,80
,,,,,,,,,,,,,,,,,,,,,,,,,,,,,,,,,,,,,,,,,b,5.213999987,GLOB,FALSE,,,,,,,143,globus,Catalan,Sounds/cat_globus.mp3,2020-06-05_16h20.39.976,TranslationElicitation_eng-prolific,3.2.4,Win32,60,5e0ce0bbda6bad4819153380,,1,0,81,37,1,80
,,,,,,,,,,,,,,,,,,,,,,,,,,,,,,,,,,,,,,,,,e,5.398000002,GLOBE,FALSE,,,,,,,143,globus,Catalan,Sounds/cat_globus.mp3,2020-06-05_16h20.39.976,TranslationElicitation_eng-prolific,3.2.4,Win32,60,5e0ce0bbda6bad4819153380,,1,0,81,37,1,80
,,,,,,,,,,,,,,,,,,,,,,,,,,,,,,,,,,,,,,,,,return,5.697999954,GLOBE,FALSE,,,,,,,143,globus,Catalan,Sounds/cat_globus.mp3,2020-06-05_16h20.39.976,TranslationElicitation_eng-prolific,3.2.4,Win32,60,5e0ce0bbda6bad4819153380,5.697999954,1,0,81,37,1,80
,,,,,,,,,,,,,,,,,,,,,,,,,,,,,,,,,,,,,,,,,,,,,,,,,,,143,globus,Catalan,Sounds/cat_globus.mp3,2020-06-05_16h20.39.976,TranslationElicitation_eng-prolific,3.2.4,Win32,60,5e0ce0bbda6bad4819153380,,1,0,81,37,1,80
,,,,,,,,,,,,,,,,,,,,,,,,,,,,,,,,,,,,,,,,,c,5.113000154,C,FALSE,,,,,,,120,cama,Catalan,Sounds/cat_cama.mp3,2020-06-05_16h20.39.976,TranslationElicitation_eng-prolific,3.2.4,Win32,60,5e0ce0bbda6bad4819153380,,1,0,81,15,1,80
,,,,,,,,,,,,,,,,,,,,,,,,,,,,,,,,,,,,,,,,,a,5.447000027,CA,FALSE,,,,,,,120,cama,Catalan,Sounds/cat_cama.mp3,2020-06-05_16h20.39.976,TranslationElicitation_eng-prolific,3.2.4,Win32,60,5e0ce0bbda6bad4819153380,,1,0,81,15,1,80
,,,,,,,,,,,,,,,,,,,,,,,,,,,,,,,,,,,,,,,,,m,6.630000114,CAM,FALSE,,,,,,,120,cama,Catalan,Sounds/cat_cama.mp3,2020-06-05_16h20.39.976,TranslationElicitation_eng-prolific,3.2.4,Win32,60,5e0ce0bbda6bad4819153380,,1,0,81,15,1,80
,,,,,,,,,,,,,,,,,,,,,,,,,,,,,,,,,,,,,,,,,e,6.713000059,CAME,FALSE,,,,,,,120,cama,Catalan,Sounds/cat_cama.mp3,2020-06-05_16h20.39.976,TranslationElicitation_eng-prolific,3.2.4,Win32,60,5e0ce0bbda6bad4819153380,,1,0,81,15,1,80
,,,,,,,,,,,,,,,,,,,,,,,,,,,,,,,,,,,,,,,,,l,6.796000004,CAMEL,FALSE,,,,,,,120,cama,Catalan,Sounds/cat_cama.mp3,2020-06-05_16h20.39.976,TranslationElicitation_eng-prolific,3.2.4,Win32,60,5e0ce0bbda6bad4819153380,,1,0,81,15,1,80
,,,,,,,,,,,,,,,,,,,,,,,,,,,,,,,,,,,,,,,,,return,6.996000051,CAMEL,FALSE,,,,,,,120,cama,Catalan,Sounds/cat_cama.mp3,2020-06-05_16h20.39.976,TranslationElicitation_eng-prolific,3.2.4,Win32,60,5e0ce0bbda6bad4819153380,6.996000051,1,0,81,15,1,80
,,,,,,,,,,,,,,,,,,,,,,,,,,,,,,,,,,,,,,,,,,,,,,,,,,,120,cama,Catalan,Sounds/cat_cama.mp3,2020-06-05_16h20.39.976,TranslationElicitation_eng-prolific,3.2.4,Win32,60,5e0ce0bbda6bad4819153380,,1,0,81,15,1,80
,,,,,,,,,,,,,,,,,,,,,,,,,,,,,,,,,,,,,,,,,a,9.746000051,A,FALSE,,,,,,,130,entrepa,Catalan,Sounds/cat_entrepa.mp3,2020-06-05_16h20.39.976,TranslationElicitation_eng-prolific,3.2.4,Win32,60,5e0ce0bbda6bad4819153380,,1,0,81,24,1,80
,,,,,,,,,,,,,,,,,,,,,,,,,,,,,,,,,,,,,,,,,n,9.763000011,AN,FALSE,,,,,,,130,entrepa,Catalan,Sounds/cat_entrepa.mp3,2020-06-05_16h20.39.976,TranslationElicitation_eng-prolific,3.2.4,Win32,60,5e0ce0bbda6bad4819153380,,1,0,81,24,1,80
,,,,,,,,,,,,,,,,,,,,,,,,,,,,,,,,,,,,,,,,,i,9.895999908,ANI,FALSE,,,,,,,130,entrepa,Catalan,Sounds/cat_entrepa.mp3,2020-06-05_16h20.39.976,TranslationElicitation_eng-prolific,3.2.4,Win32,60,5e0ce0bbda6bad4819153380,,1,0,81,24,1,80
,,,,,,,,,,,,,,,,,,,,,,,,,,,,,,,,,,,,,,,,,m,10.0309999,ANIM,FALSE,,,,,,,130,entrepa,Catalan,Sounds/cat_entrepa.mp3,2020-06-05_16h20.39.976,TranslationElicitation_eng-prolific,3.2.4,Win32,60,5e0ce0bbda6bad4819153380,,1,0,81,24,1,80
,,,,,,,,,,,,,,,,,,,,,,,,,,,,,,,,,,,,,,,,,a,10.24600005,ANIMA,FALSE,,,,,,,130,entrepa,Catalan,Sounds/cat_entrepa.mp3,2020-06-05_16h20.39.976,TranslationElicitation_eng-prolific,3.2.4,Win32,60,5e0ce0bbda6bad4819153380,,1,0,81,24,1,80
,,,,,,,,,,,,,,,,,,,,,,,,,,,,,,,,,,,,,,,,,l,10.36299992,ANIMAL,FALSE,,,,,,,130,entrepa,Catalan,Sounds/cat_entrepa.mp3,2020-06-05_16h20.39.976,TranslationElicitation_eng-prolific,3.2.4,Win32,60,5e0ce0bbda6bad4819153380,,1,0,81,24,1,80
,,,,,,,,,,,,,,,,,,,,,,,,,,,,,,,,,,,,,,,,,return,10.58100009,ANIMAL,FALSE,,,,,,,130,entrepa,Catalan,Sounds/cat_entrepa.mp3,2020-06-05_16h20.39.976,TranslationElicitation_eng-prolific,3.2.4,Win32,60,5e0ce0bbda6bad4819153380,10.58100009,1,0,81,24,1,80
,,,,,,,,,,,,,,,,,,,,,,,,,,,,,,,,,,,,,,,,,,,,,,,,,,,130,entrepa,Catalan,Sounds/cat_entrepa.mp3,2020-06-05_16h20.39.976,TranslationElicitation_eng-prolific,3.2.4,Win32,60,5e0ce0bbda6bad4819153380,,1,0,81,24,1,80
,,,,,,,,,,,,,,,,,,,,,,,,,,,,,,,,,,,,,,,,,m,2.348999977,M,FALSE,,,,,,,157,mussol,Catalan,Sounds/cat_mussol.mp3,2020-06-05_16h20.39.976,TranslationElicitation_eng-prolific,3.2.4,Win32,60,5e0ce0bbda6bad4819153380,,1,0,81,50,1,80
,,,,,,,,,,,,,,,,,,,,,,,,,,,,,,,,,,,,,,,,,u,2.565000057,MU,FALSE,,,,,,,157,mussol,Catalan,Sounds/cat_mussol.mp3,2020-06-05_16h20.39.976,TranslationElicitation_eng-prolific,3.2.4,Win32,60,5e0ce0bbda6bad4819153380,,1,0,81,50,1,80
,,,,,,,,,,,,,,,,,,,,,,,,,,,,,,,,,,,,,,,,,s,2.59800005,MUS,FALSE,,,,,,,157,mussol,Catalan,Sounds/cat_mussol.mp3,2020-06-05_16h20.39.976,TranslationElicitation_eng-prolific,3.2.4,Win32,60,5e0ce0bbda6bad4819153380,,1,0,81,50,1,80
,,,,,,,,,,,,,,,,,,,,,,,,,,,,,,,,,,,,,,,,,c,2.782000065,MUSC,FALSE,,,,,,,157,mussol,Catalan,Sounds/cat_mussol.mp3,2020-06-05_16h20.39.976,TranslationElicitation_eng-prolific,3.2.4,Win32,60,5e0ce0bbda6bad4819153380,,1,0,81,50,1,80
,,,,,,,,,,,,,,,,,,,,,,,,,,,,,,,,,,,,,,,,,l,2.893000126,MUSCL,FALSE,,,,,,,157,mussol,Catalan,Sounds/cat_mussol.mp3,2020-06-05_16h20.39.976,TranslationElicitation_eng-prolific,3.2.4,Win32,60,5e0ce0bbda6bad4819153380,,1,0,81,50,1,80
,,,,,,,,,,,,,,,,,,,,,,,,,,,,,,,,,,,,,,,,,e,3.015000105,MUSCLE,FALSE,,,,,,,157,mussol,Catalan,Sounds/cat_mussol.mp3,2020-06-05_16h20.39.976,TranslationElicitation_eng-prolific,3.2.4,Win32,60,5e0ce0bbda6bad4819153380,,1,0,81,50,1,80
,,,,,,,,,,,,,,,,,,,,,,,,,,,,,,,,,,,,,,,,,return,3.4150002,MUSCLE,FALSE,,,,,,,157,mussol,Catalan,Sounds/cat_mussol.mp3,2020-06-05_16h20.39.976,TranslationElicitation_eng-prolific,3.2.4,Win32,60,5e0ce0bbda6bad4819153380,3.4150002,1,0,81,50,1,80
,,,,,,,,,,,,,,,,,,,,,,,,,,,,,,,,,,,,,,,,,,,,,,,,,,,157,mussol,Catalan,Sounds/cat_mussol.mp3,2020-06-05_16h20.39.976,TranslationElicitation_eng-prolific,3.2.4,Win32,60,5e0ce0bbda6bad4819153380,,1,0,81,50,1,80
,,,,,,,,,,,,,,,,,,,,,,,,,,,,,,,,,,,,,,,,,b,1.614999771,B,FALSE,,,,,,,115,bolet,Catalan,Sounds/cat_bolet.mp3,2020-06-05_16h20.39.976,TranslationElicitation_eng-prolific,3.2.4,Win32,60,5e0ce0bbda6bad4819153380,,1,0,81,10,1,80
,,,,,,,,,,,,,,,,,,,,,,,,,,,,,,,,,,,,,,,,,a,1.899999857,BA,FALSE,,,,,,,115,bolet,Catalan,Sounds/cat_bolet.mp3,2020-06-05_16h20.39.976,TranslationElicitation_eng-prolific,3.2.4,Win32,60,5e0ce0bbda6bad4819153380,,1,0,81,10,1,80
,,,,,,,,,,,,,,,,,,,,,,,,,,,,,,,,,,,,,,,,,l,1.998999834,BAL,FALSE,,,,,,,115,bolet,Catalan,Sounds/cat_bolet.mp3,2020-06-05_16h20.39.976,TranslationElicitation_eng-prolific,3.2.4,Win32,60,5e0ce0bbda6bad4819153380,,1,0,81,10,1,80
,,,,,,,,,,,,,,,,,,,,,,,,,,,,,,,,,,,,,,,,,l,2.100999832,BALL,FALSE,,,,,,,115,bolet,Catalan,Sounds/cat_bolet.mp3,2020-06-05_16h20.39.976,TranslationElicitation_eng-prolific,3.2.4,Win32,60,5e0ce0bbda6bad4819153380,,1,0,81,10,1,80
,,,,,,,,,,,,,,,,,,,,,,,,,,,,,,,,,,,,,,,,,return,2.331999779,BALL,FALSE,,,,,,,115,bolet,Catalan,Sounds/cat_bolet.mp3,2020-06-05_16h20.39.976,TranslationElicitation_eng-prolific,3.2.4,Win32,60,5e0ce0bbda6bad4819153380,2.331999779,1,0,81,10,1,80
,,,,,,,,,,,,,,,,,,,,,,,,,,,,,,,,,,,,,,,,,,,,,,,,,,,115,bolet,Catalan,Sounds/cat_bolet.mp3,2020-06-05_16h20.39.976,TranslationElicitation_eng-prolific,3.2.4,Win32,60,5e0ce0bbda6bad4819153380,,1,0,81,10,1,80
,,,,,,,,,,,,,,,,,,,,,,,,,,,,,,,,,,,,,,,,,b,1.76699996,B,FALSE,,,,,,,114,bol,Catalan,Sounds/cat_bol.mp3,2020-06-05_16h20.39.976,TranslationElicitation_eng-prolific,3.2.4,Win32,60,5e0ce0bbda6bad4819153380,,1,0,81,9,1,80
,,,,,,,,,,,,,,,,,,,,,,,,,,,,,,,,,,,,,,,,,a,2.000999928,BA,FALSE,,,,,,,114,bol,Catalan,Sounds/cat_bol.mp3,2020-06-05_16h20.39.976,TranslationElicitation_eng-prolific,3.2.4,Win32,60,5e0ce0bbda6bad4819153380,,1,0,81,9,1,80
,,,,,,,,,,,,,,,,,,,,,,,,,,,,,,,,,,,,,,,,,l,2.084000111,BAL,FALSE,,,,,,,114,bol,Catalan,Sounds/cat_bol.mp3,2020-06-05_16h20.39.976,TranslationElicitation_eng-prolific,3.2.4,Win32,60,5e0ce0bbda6bad4819153380,,1,0,81,9,1,80
,,,,,,,,,,,,,,,,,,,,,,,,,,,,,,,,,,,,,,,,,l,2.200999975,BALL,FALSE,,,,,,,114,bol,Catalan,Sounds/cat_bol.mp3,2020-06-05_16h20.39.976,TranslationElicitation_eng-prolific,3.2.4,Win32,60,5e0ce0bbda6bad4819153380,,1,0,81,9,1,80
,,,,,,,,,,,,,,,,,,,,,,,,,,,,,,,,,,,,,,,,,return,2.348999977,BALL,FALSE,,,,,,,114,bol,Catalan,Sounds/cat_bol.mp3,2020-06-05_16h20.39.976,TranslationElicitation_eng-prolific,3.2.4,Win32,60,5e0ce0bbda6bad4819153380,2.348999977,1,0,81,9,1,80
,,,,,,,,,,,,,,,,,,,,,,,,,,,,,,,,,,,,,,,,,,,,,,,,,,,114,bol,Catalan,Sounds/cat_bol.mp3,2020-06-05_16h20.39.976,TranslationElicitation_eng-prolific,3.2.4,Win32,60,5e0ce0bbda6bad4819153380,,1,0,81,9,1,80
