consentKey.keys,consentKey.rt,languageL1Key.keys,languageL1Key.rt,languageL2,languageL2OralKey.keys,languageL2OralKey.rt,languageL2WrittenKey.keys,languageL2WrittenKey.rt,languageL3OralKey.keys,languageL3OralKey.rt,languageL3WrittenKey.keys,languageL3WrittenKey.rt,languageCatalanOralKey.keys,languageCatalanOralKey.rt,languageCatalanWrittenKey.keys,languageCatalanWrittenKey.rt,languageCatalanTimeKey.keys,languageCatalanTimeKey.rt,languageSpanishOralKey.keys,languageSpanishOralKey.rt,languageSpanishWrittenKey.keys,languageSpanishWrittenKey.rt,languageSpanishTimeKey.keys,languageSpanishTimeKey.rt,age,demoSexKey.keys,demoSexKey.rt,demoEducationKey.keys,demoEducationKey.rt,city,demoVisionKey.keys,demoVisionKey.rt,demoLanguageKey.keys,demoLanguageKey.rt,setupLocationKey.keys,setupLocationKey.rt,setupNoiseKey.keys,setupNoiseKey.rt,instructionsKeys.keys,instructionsKeys.rt,keyPressed,keyPressTime,inputText,error,trialsPracticeSpanish.thisRepN,trialsPracticeSpanish.thisTrialN,trialsPracticeSpanish.thisN,trialsPracticeSpanish.thisIndex,trialsPracticeSpanish.ran,trialsPracticeSpanish.order,trial_id,word,test_language,soundfile,date,expName,psychopyVersion,OS,frameRate,participant,trialOffset,trialsSpanish.thisRepN,trialsSpanish.thisTrialN,trialsSpanish.thisN,trialsSpanish.thisIndex,trialsSpanish.ran,trialsSpanish.order
space,1.300000191,e,3.980000257,,,,,,,,,,1,9.817000151,1,3.510000229,1,2.834000349,1,11.12700009,1,3.002000332,1,1.377000093,20,f,1.396000147,3,3.535000086,LEICESTER,y,2.787000179,n,2.683000088,1,2.433000088,2,7.976000071,space,14.46700025,c,7.516000032,C,FALSE,1,0,5,1,1,4,30,corona,Spanish,Sounds/spa_corona.mp3,2020-06-05_16h20.28.080,TranslationElicitation_eng-prolific,3.2.4,Win32,60,5e2c9acdcd89c82c3a1321ae,,,,,,,
,,,,,,,,,,,,,,,,,,,,,,,,,,,,,,,,,,,,,,,,,o,7.664999962,CO,FALSE,1,0,5,1,1,4,30,corona,Spanish,Sounds/spa_corona.mp3,2020-06-05_16h20.28.080,TranslationElicitation_eng-prolific,3.2.4,Win32,60,5e2c9acdcd89c82c3a1321ae,,,,,,,
,,,,,,,,,,,,,,,,,,,,,,,,,,,,,,,,,,,,,,,,,r,10.53200006,COR,FALSE,1,0,5,1,1,4,30,corona,Spanish,Sounds/spa_corona.mp3,2020-06-05_16h20.28.080,TranslationElicitation_eng-prolific,3.2.4,Win32,60,5e2c9acdcd89c82c3a1321ae,,,,,,,
,,,,,,,,,,,,,,,,,,,,,,,,,,,,,,,,,,,,,,,,,o,10.61500001,CORO,FALSE,1,0,5,1,1,4,30,corona,Spanish,Sounds/spa_corona.mp3,2020-06-05_16h20.28.080,TranslationElicitation_eng-prolific,3.2.4,Win32,60,5e2c9acdcd89c82c3a1321ae,,,,,,,
,,,,,,,,,,,,,,,,,,,,,,,,,,,,,,,,,,,,,,,,,n,10.73200011,CORON,FALSE,1,0,5,1,1,4,30,corona,Spanish,Sounds/spa_corona.mp3,2020-06-05_16h20.28.080,TranslationElicitation_eng-prolific,3.2.4,Win32,60,5e2c9acdcd89c82c3a1321ae,,,,,,,
,,,,,,,,,,,,,,,,,,,,,,,,,,,,,,,,,,,,,,,,,a,10.84800005,CORONA,FALSE,1,0,5,1,1,4,30,corona,Spanish,Sounds/spa_corona.mp3,2020-06-05_16h20.28.080,TranslationElicitation_eng-prolific,3.2.4,Win32,60,5e2c9acdcd89c82c3a1321ae,,,,,,,
,,,,,,,,,,,,,,,,,,,,,,,,,,,,,,,,,,,,,,,,,return,11.5150001,CORONA,FALSE,1,0,5,1,1,4,30,corona,Spanish,Sounds/spa_corona.mp3,2020-06-05_16h20.28.080,TranslationElicitation_eng-prolific,3.2.4,Win32,60,5e2c9acdcd89c82c3a1321ae,11.5150001,,,,,,
,,,,,,,,,,,,,,,,,,,,,,,,,,,,,,,,,,,,,,,,,,,,,1,0,5,1,1,4,30,corona,Spanish,Sounds/spa_corona.mp3,2020-06-05_16h20.28.080,TranslationElicitation_eng-prolific,3.2.4,Win32,60,5e2c9acdcd89c82c3a1321ae,,,,,,,
,,,,,,,,,,,,,,,,,,,,,,,,,,,,,,,,,,,,,,,,,d,18.51399994,D,FALSE,1,0,5,4,1,4,96,tigre,Spanish,Sounds/spa_tigre.mp3,2020-06-05_16h20.28.080,TranslationElicitation_eng-prolific,3.2.4,Win32,60,5e2c9acdcd89c82c3a1321ae,,,,,,,
,,,,,,,,,,,,,,,,,,,,,,,,,,,,,,,,,,,,,,,,,e,18.61399984,DE,FALSE,1,0,5,4,1,4,96,tigre,Spanish,Sounds/spa_tigre.mp3,2020-06-05_16h20.28.080,TranslationElicitation_eng-prolific,3.2.4,Win32,60,5e2c9acdcd89c82c3a1321ae,,,,,,,
,,,,,,,,,,,,,,,,,,,,,,,,,,,,,,,,,,,,,,,,,g,18.69799995,DEG,FALSE,1,0,5,4,1,4,96,tigre,Spanish,Sounds/spa_tigre.mp3,2020-06-05_16h20.28.080,TranslationElicitation_eng-prolific,3.2.4,Win32,60,5e2c9acdcd89c82c3a1321ae,,,,,,,
,,,,,,,,,,,,,,,,,,,,,,,,,,,,,,,,,,,,,,,,,r,18.79799986,DEGR,FALSE,1,0,5,4,1,4,96,tigre,Spanish,Sounds/spa_tigre.mp3,2020-06-05_16h20.28.080,TranslationElicitation_eng-prolific,3.2.4,Win32,60,5e2c9acdcd89c82c3a1321ae,,,,,,,
,,,,,,,,,,,,,,,,,,,,,,,,,,,,,,,,,,,,,,,,,e,18.84800005,DEGRE,FALSE,1,0,5,4,1,4,96,tigre,Spanish,Sounds/spa_tigre.mp3,2020-06-05_16h20.28.080,TranslationElicitation_eng-prolific,3.2.4,Win32,60,5e2c9acdcd89c82c3a1321ae,,,,,,,
,,,,,,,,,,,,,,,,,,,,,,,,,,,,,,,,,,,,,,,,,a,19.0309999,DEGREA,FALSE,1,0,5,4,1,4,96,tigre,Spanish,Sounds/spa_tigre.mp3,2020-06-05_16h20.28.080,TranslationElicitation_eng-prolific,3.2.4,Win32,60,5e2c9acdcd89c82c3a1321ae,,,,,,,
,,,,,,,,,,,,,,,,,,,,,,,,,,,,,,,,,,,,,,,,,d,19.14700007,DEGREAD,FALSE,1,0,5,4,1,4,96,tigre,Spanish,Sounds/spa_tigre.mp3,2020-06-05_16h20.28.080,TranslationElicitation_eng-prolific,3.2.4,Win32,60,5e2c9acdcd89c82c3a1321ae,,,,,,,
,,,,,,,,,,,,,,,,,,,,,,,,,,,,,,,,,,,,,,,,,e,19.26399994,DEGREADE,FALSE,1,0,5,4,1,4,96,tigre,Spanish,Sounds/spa_tigre.mp3,2020-06-05_16h20.28.080,TranslationElicitation_eng-prolific,3.2.4,Win32,60,5e2c9acdcd89c82c3a1321ae,,,,,,,
,,,,,,,,,,,,,,,,,,,,,,,,,,,,,,,,,,,,,,,,,backspace,19.54799986,DEGREAD,TRUE,1,0,5,4,1,4,96,tigre,Spanish,Sounds/spa_tigre.mp3,2020-06-05_16h20.28.080,TranslationElicitation_eng-prolific,3.2.4,Win32,60,5e2c9acdcd89c82c3a1321ae,,,,,,,
,,,,,,,,,,,,,,,,,,,,,,,,,,,,,,,,,,,,,,,,,backspace,19.71399999,DEGREA,TRUE,1,0,5,4,1,4,96,tigre,Spanish,Sounds/spa_tigre.mp3,2020-06-05_16h20.28.080,TranslationElicitation_eng-prolific,3.2.4,Win32,60,5e2c9acdcd89c82c3a1321ae,,,,,,,
,,,,,,,,,,,,,,,,,,,,,,,,,,,,,,,,,,,,,,,,,backspace,19.88100004,DEGRE,TRUE,1,0,5,4,1,4,96,tigre,Spanish,Sounds/spa_tigre.mp3,2020-06-05_16h20.28.080,TranslationElicitation_eng-prolific,3.2.4,Win32,60,5e2c9acdcd89c82c3a1321ae,,,,,,,
,,,,,,,,,,,,,,,,,,,,,,,,,,,,,,,,,,,,,,,,,backspace,20.0309999,DEGR,TRUE,1,0,5,4,1,4,96,tigre,Spanish,Sounds/spa_tigre.mp3,2020-06-05_16h20.28.080,TranslationElicitation_eng-prolific,3.2.4,Win32,60,5e2c9acdcd89c82c3a1321ae,,,,,,,
,,,,,,,,,,,,,,,,,,,,,,,,,,,,,,,,,,,,,,,,,a,20.29799986,DEGRA,TRUE,1,0,5,4,1,4,96,tigre,Spanish,Sounds/spa_tigre.mp3,2020-06-05_16h20.28.080,TranslationElicitation_eng-prolific,3.2.4,Win32,60,5e2c9acdcd89c82c3a1321ae,,,,,,,
,,,,,,,,,,,,,,,,,,,,,,,,,,,,,,,,,,,,,,,,,d,20.46399999,DEGRAD,TRUE,1,0,5,4,1,4,96,tigre,Spanish,Sounds/spa_tigre.mp3,2020-06-05_16h20.28.080,TranslationElicitation_eng-prolific,3.2.4,Win32,60,5e2c9acdcd89c82c3a1321ae,,,,,,,
,,,,,,,,,,,,,,,,,,,,,,,,,,,,,,,,,,,,,,,,,e,20.54699993,DEGRADE,TRUE,1,0,5,4,1,4,96,tigre,Spanish,Sounds/spa_tigre.mp3,2020-06-05_16h20.28.080,TranslationElicitation_eng-prolific,3.2.4,Win32,60,5e2c9acdcd89c82c3a1321ae,,,,,,,
,,,,,,,,,,,,,,,,,,,,,,,,,,,,,,,,,,,,,,,,,return,21.48000002,DEGRADE,TRUE,1,0,5,4,1,4,96,tigre,Spanish,Sounds/spa_tigre.mp3,2020-06-05_16h20.28.080,TranslationElicitation_eng-prolific,3.2.4,Win32,60,5e2c9acdcd89c82c3a1321ae,21.48000002,,,,,,
,,,,,,,,,,,,,,,,,,,,,,,,,,,,,,,,,,,,,,,,,,,,,1,0,5,4,1,4,96,tigre,Spanish,Sounds/spa_tigre.mp3,2020-06-05_16h20.28.080,TranslationElicitation_eng-prolific,3.2.4,Win32,60,5e2c9acdcd89c82c3a1321ae,,,,,,,
,,,,,,,,,,,,,,,,,,,,,,,,,,,,,,,,,,,,,,,,,n,28.49799991,N,FALSE,1,0,5,0,1,4,1,arbol,Spanish,Sounds/spa_arbol.mp3,2020-06-05_16h20.28.080,TranslationElicitation_eng-prolific,3.2.4,Win32,60,5e2c9acdcd89c82c3a1321ae,,,,,,,
,,,,,,,,,,,,,,,,,,,,,,,,,,,,,,,,,,,,,,,,,a,28.796,NA,FALSE,1,0,5,0,1,4,1,arbol,Spanish,Sounds/spa_arbol.mp3,2020-06-05_16h20.28.080,TranslationElicitation_eng-prolific,3.2.4,Win32,60,5e2c9acdcd89c82c3a1321ae,,,,,,,
,,,,,,,,,,,,,,,,,,,,,,,,,,,,,,,,,,,,,,,,,r,28.96300006,NAR,FALSE,1,0,5,0,1,4,1,arbol,Spanish,Sounds/spa_arbol.mp3,2020-06-05_16h20.28.080,TranslationElicitation_eng-prolific,3.2.4,Win32,60,5e2c9acdcd89c82c3a1321ae,,,,,,,
,,,,,,,,,,,,,,,,,,,,,,,,,,,,,,,,,,,,,,,,,w,29.22900009,NARW,FALSE,1,0,5,0,1,4,1,arbol,Spanish,Sounds/spa_arbol.mp3,2020-06-05_16h20.28.080,TranslationElicitation_eng-prolific,3.2.4,Win32,60,5e2c9acdcd89c82c3a1321ae,,,,,,,
,,,,,,,,,,,,,,,,,,,,,,,,,,,,,,,,,,,,,,,,,h,29.31200004,NARWH,FALSE,1,0,5,0,1,4,1,arbol,Spanish,Sounds/spa_arbol.mp3,2020-06-05_16h20.28.080,TranslationElicitation_eng-prolific,3.2.4,Win32,60,5e2c9acdcd89c82c3a1321ae,,,,,,,
,,,,,,,,,,,,,,,,,,,,,,,,,,,,,,,,,,,,,,,,,a,29.41199994,NARWHA,FALSE,1,0,5,0,1,4,1,arbol,Spanish,Sounds/spa_arbol.mp3,2020-06-05_16h20.28.080,TranslationElicitation_eng-prolific,3.2.4,Win32,60,5e2c9acdcd89c82c3a1321ae,,,,,,,
,,,,,,,,,,,,,,,,,,,,,,,,,,,,,,,,,,,,,,,,,l,29.77900004,NARWHAL,FALSE,1,0,5,0,1,4,1,arbol,Spanish,Sounds/spa_arbol.mp3,2020-06-05_16h20.28.080,TranslationElicitation_eng-prolific,3.2.4,Win32,60,5e2c9acdcd89c82c3a1321ae,,,,,,,
,,,,,,,,,,,,,,,,,,,,,,,,,,,,,,,,,,,,,,,,,return,30.03500009,NARWHAL,FALSE,1,0,5,0,1,4,1,arbol,Spanish,Sounds/spa_arbol.mp3,2020-06-05_16h20.28.080,TranslationElicitation_eng-prolific,3.2.4,Win32,60,5e2c9acdcd89c82c3a1321ae,30.03500009,,,,,,
,,,,,,,,,,,,,,,,,,,,,,,,,,,,,,,,,,,,,,,,,,,,,1,0,5,0,1,4,1,arbol,Spanish,Sounds/spa_arbol.mp3,2020-06-05_16h20.28.080,TranslationElicitation_eng-prolific,3.2.4,Win32,60,5e2c9acdcd89c82c3a1321ae,,,,,,,
,,,,,,,,,,,,,,,,,,,,,,,,,,,,,,,,,,,,,,,,,j,1.582999945,J,FALSE,1,0,5,2,1,4,26,chaqueta,Spanish,Sounds/spa_chaqueta.mp3,2020-06-05_16h20.28.080,TranslationElicitation_eng-prolific,3.2.4,Win32,60,5e2c9acdcd89c82c3a1321ae,,,,,,,
,,,,,,,,,,,,,,,,,,,,,,,,,,,,,,,,,,,,,,,,,a,1.632999897,JA,FALSE,1,0,5,2,1,4,26,chaqueta,Spanish,Sounds/spa_chaqueta.mp3,2020-06-05_16h20.28.080,TranslationElicitation_eng-prolific,3.2.4,Win32,60,5e2c9acdcd89c82c3a1321ae,,,,,,,
,,,,,,,,,,,,,,,,,,,,,,,,,,,,,,,,,,,,,,,,,c,1.799000025,JAC,FALSE,1,0,5,2,1,4,26,chaqueta,Spanish,Sounds/spa_chaqueta.mp3,2020-06-05_16h20.28.080,TranslationElicitation_eng-prolific,3.2.4,Win32,60,5e2c9acdcd89c82c3a1321ae,,,,,,,
,,,,,,,,,,,,,,,,,,,,,,,,,,,,,,,,,,,,,,,,,backspace,2.132999897,JA,TRUE,1,0,5,2,1,4,26,chaqueta,Spanish,Sounds/spa_chaqueta.mp3,2020-06-05_16h20.28.080,TranslationElicitation_eng-prolific,3.2.4,Win32,60,5e2c9acdcd89c82c3a1321ae,,,,,,,
,,,,,,,,,,,,,,,,,,,,,,,,,,,,,,,,,,,,,,,,,k,2.315999985,JAK,TRUE,1,0,5,2,1,4,26,chaqueta,Spanish,Sounds/spa_chaqueta.mp3,2020-06-05_16h20.28.080,TranslationElicitation_eng-prolific,3.2.4,Win32,60,5e2c9acdcd89c82c3a1321ae,,,,,,,
,,,,,,,,,,,,,,,,,,,,,,,,,,,,,,,,,,,,,,,,,backspace,2.582999945,JA,TRUE,1,0,5,2,1,4,26,chaqueta,Spanish,Sounds/spa_chaqueta.mp3,2020-06-05_16h20.28.080,TranslationElicitation_eng-prolific,3.2.4,Win32,60,5e2c9acdcd89c82c3a1321ae,,,,,,,
,,,,,,,,,,,,,,,,,,,,,,,,,,,,,,,,,,,,,,,,,c,2.73300004,JAC,TRUE,1,0,5,2,1,4,26,chaqueta,Spanish,Sounds/spa_chaqueta.mp3,2020-06-05_16h20.28.080,TranslationElicitation_eng-prolific,3.2.4,Win32,60,5e2c9acdcd89c82c3a1321ae,,,,,,,
,,,,,,,,,,,,,,,,,,,,,,,,,,,,,,,,,,,,,,,,,k,2.782999992,JACK,TRUE,1,0,5,2,1,4,26,chaqueta,Spanish,Sounds/spa_chaqueta.mp3,2020-06-05_16h20.28.080,TranslationElicitation_eng-prolific,3.2.4,Win32,60,5e2c9acdcd89c82c3a1321ae,,,,,,,
,,,,,,,,,,,,,,,,,,,,,,,,,,,,,,,,,,,,,,,,,e,2.915999889,JACKE,TRUE,1,0,5,2,1,4,26,chaqueta,Spanish,Sounds/spa_chaqueta.mp3,2020-06-05_16h20.28.080,TranslationElicitation_eng-prolific,3.2.4,Win32,60,5e2c9acdcd89c82c3a1321ae,,,,,,,
,,,,,,,,,,,,,,,,,,,,,,,,,,,,,,,,,,,,,,,,,t,3.032999992,JACKET,TRUE,1,0,5,2,1,4,26,chaqueta,Spanish,Sounds/spa_chaqueta.mp3,2020-06-05_16h20.28.080,TranslationElicitation_eng-prolific,3.2.4,Win32,60,5e2c9acdcd89c82c3a1321ae,,,,,,,
,,,,,,,,,,,,,,,,,,,,,,,,,,,,,,,,,,,,,,,,,return,3.315999985,JACKET,TRUE,1,0,5,2,1,4,26,chaqueta,Spanish,Sounds/spa_chaqueta.mp3,2020-06-05_16h20.28.080,TranslationElicitation_eng-prolific,3.2.4,Win32,60,5e2c9acdcd89c82c3a1321ae,3.315999985,,,,,,
,,,,,,,,,,,,,,,,,,,,,,,,,,,,,,,,,,,,,,,,,,,,,1,0,5,2,1,4,26,chaqueta,Spanish,Sounds/spa_chaqueta.mp3,2020-06-05_16h20.28.080,TranslationElicitation_eng-prolific,3.2.4,Win32,60,5e2c9acdcd89c82c3a1321ae,,,,,,,
,,,,,,,,,,,,,,,,,,,,,,,,,,,,,,,,,,,,,,,,,h,1.832999945,H,FALSE,1,0,5,3,1,4,70,ola,Spanish,Sounds/spa_ola.mp3,2020-06-05_16h20.28.080,TranslationElicitation_eng-prolific,3.2.4,Win32,60,5e2c9acdcd89c82c3a1321ae,,,,,,,
,,,,,,,,,,,,,,,,,,,,,,,,,,,,,,,,,,,,,,,,,e,1.96600008,HE,FALSE,1,0,5,3,1,4,70,ola,Spanish,Sounds/spa_ola.mp3,2020-06-05_16h20.28.080,TranslationElicitation_eng-prolific,3.2.4,Win32,60,5e2c9acdcd89c82c3a1321ae,,,,,,,
,,,,,,,,,,,,,,,,,,,,,,,,,,,,,,,,,,,,,,,,,l,2.266000032,HEL,FALSE,1,0,5,3,1,4,70,ola,Spanish,Sounds/spa_ola.mp3,2020-06-05_16h20.28.080,TranslationElicitation_eng-prolific,3.2.4,Win32,60,5e2c9acdcd89c82c3a1321ae,,,,,,,
,,,,,,,,,,,,,,,,,,,,,,,,,,,,,,,,,,,,,,,,,l,2.433000088,HELL,FALSE,1,0,5,3,1,4,70,ola,Spanish,Sounds/spa_ola.mp3,2020-06-05_16h20.28.080,TranslationElicitation_eng-prolific,3.2.4,Win32,60,5e2c9acdcd89c82c3a1321ae,,,,,,,
,,,,,,,,,,,,,,,,,,,,,,,,,,,,,,,,,,,,,,,,,o,2.582999945,HELLO,FALSE,1,0,5,3,1,4,70,ola,Spanish,Sounds/spa_ola.mp3,2020-06-05_16h20.28.080,TranslationElicitation_eng-prolific,3.2.4,Win32,60,5e2c9acdcd89c82c3a1321ae,,,,,,,
,,,,,,,,,,,,,,,,,,,,,,,,,,,,,,,,,,,,,,,,,return,2.898999929,HELLO,FALSE,1,0,5,3,1,4,70,ola,Spanish,Sounds/spa_ola.mp3,2020-06-05_16h20.28.080,TranslationElicitation_eng-prolific,3.2.4,Win32,60,5e2c9acdcd89c82c3a1321ae,2.898999929,,,,,,
,,,,,,,,,,,,,,,,,,,,,,,,,,,,,,,,,,,,,,,,,,,,,1,0,5,3,1,4,70,ola,Spanish,Sounds/spa_ola.mp3,2020-06-05_16h20.28.080,TranslationElicitation_eng-prolific,3.2.4,Win32,60,5e2c9acdcd89c82c3a1321ae,,,,,,,
,,,,,,,,,,,,,,,,,,,,,,,,,,,,,,,,,,,,,,,,,m,2.73300004,M,FALSE,,,,,,,59,mano,Spanish,Sounds/spa_mano.mp3,2020-06-05_16h20.28.080,TranslationElicitation_eng-prolific,3.2.4,Win32,60,5e2c9acdcd89c82c3a1321ae,,1,0,98,55,1,97
,,,,,,,,,,,,,,,,,,,,,,,,,,,,,,,,,,,,,,,,,a,2.832999945,MA,FALSE,,,,,,,59,mano,Spanish,Sounds/spa_mano.mp3,2020-06-05_16h20.28.080,TranslationElicitation_eng-prolific,3.2.4,Win32,60,5e2c9acdcd89c82c3a1321ae,,1,0,98,55,1,97
,,,,,,,,,,,,,,,,,,,,,,,,,,,,,,,,,,,,,,,,,n,2.950000048,MAN,FALSE,,,,,,,59,mano,Spanish,Sounds/spa_mano.mp3,2020-06-05_16h20.28.080,TranslationElicitation_eng-prolific,3.2.4,Win32,60,5e2c9acdcd89c82c3a1321ae,,1,0,98,55,1,97
,,,,,,,,,,,,,,,,,,,,,,,,,,,,,,,,,,,,,,,,,return,3.25,MAN,FALSE,,,,,,,59,mano,Spanish,Sounds/spa_mano.mp3,2020-06-05_16h20.28.080,TranslationElicitation_eng-prolific,3.2.4,Win32,60,5e2c9acdcd89c82c3a1321ae,3.25,1,0,98,55,1,97
,,,,,,,,,,,,,,,,,,,,,,,,,,,,,,,,,,,,,,,,,,,,,,,,,,,59,mano,Spanish,Sounds/spa_mano.mp3,2020-06-05_16h20.28.080,TranslationElicitation_eng-prolific,3.2.4,Win32,60,5e2c9acdcd89c82c3a1321ae,,1,0,98,55,1,97
,,,,,,,,,,,,,,,,,,,,,,,,,,,,,,,,,,,,,,,,,s,7.098999977,S,FALSE,,,,,,,31,cubo,Spanish,Sounds/spa_cubo.mp3,2020-06-05_16h20.28.080,TranslationElicitation_eng-prolific,3.2.4,Win32,60,5e2c9acdcd89c82c3a1321ae,,1,0,98,27,1,97
,,,,,,,,,,,,,,,,,,,,,,,,,,,,,,,,,,,,,,,,,p,7.19900012,SP,FALSE,,,,,,,31,cubo,Spanish,Sounds/spa_cubo.mp3,2020-06-05_16h20.28.080,TranslationElicitation_eng-prolific,3.2.4,Win32,60,5e2c9acdcd89c82c3a1321ae,,1,0,98,27,1,97
,,,,,,,,,,,,,,,,,,,,,,,,,,,,,,,,,,,,,,,,,o,7.315000057,SPO,FALSE,,,,,,,31,cubo,Spanish,Sounds/spa_cubo.mp3,2020-06-05_16h20.28.080,TranslationElicitation_eng-prolific,3.2.4,Win32,60,5e2c9acdcd89c82c3a1321ae,,1,0,98,27,1,97
,,,,,,,,,,,,,,,,,,,,,,,,,,,,,,,,,,,,,,,,,r,7.381999969,SPOR,FALSE,,,,,,,31,cubo,Spanish,Sounds/spa_cubo.mp3,2020-06-05_16h20.28.080,TranslationElicitation_eng-prolific,3.2.4,Win32,60,5e2c9acdcd89c82c3a1321ae,,1,0,98,27,1,97
,,,,,,,,,,,,,,,,,,,,,,,,,,,,,,,,,,,,,,,,,t,7.565000057,SPORT,FALSE,,,,,,,31,cubo,Spanish,Sounds/spa_cubo.mp3,2020-06-05_16h20.28.080,TranslationElicitation_eng-prolific,3.2.4,Win32,60,5e2c9acdcd89c82c3a1321ae,,1,0,98,27,1,97
,,,,,,,,,,,,,,,,,,,,,,,,,,,,,,,,,,,,,,,,,return,7.779000044,SPORT,FALSE,,,,,,,31,cubo,Spanish,Sounds/spa_cubo.mp3,2020-06-05_16h20.28.080,TranslationElicitation_eng-prolific,3.2.4,Win32,60,5e2c9acdcd89c82c3a1321ae,7.779000044,1,0,98,27,1,97
,,,,,,,,,,,,,,,,,,,,,,,,,,,,,,,,,,,,,,,,,,,,,,,,,,,31,cubo,Spanish,Sounds/spa_cubo.mp3,2020-06-05_16h20.28.080,TranslationElicitation_eng-prolific,3.2.4,Win32,60,5e2c9acdcd89c82c3a1321ae,,1,0,98,27,1,97
,,,,,,,,,,,,,,,,,,,,,,,,,,,,,,,,,,,,,,,,,c,12.33200002,C,FALSE,,,,,,,69,nariz,Spanish,Sounds/spa_nariz.mp3,2020-06-05_16h20.28.080,TranslationElicitation_eng-prolific,3.2.4,Win32,60,5e2c9acdcd89c82c3a1321ae,,1,0,98,65,1,97
,,,,,,,,,,,,,,,,,,,,,,,,,,,,,,,,,,,,,,,,,o,12.44799995,CO,FALSE,,,,,,,69,nariz,Spanish,Sounds/spa_nariz.mp3,2020-06-05_16h20.28.080,TranslationElicitation_eng-prolific,3.2.4,Win32,60,5e2c9acdcd89c82c3a1321ae,,1,0,98,65,1,97
,,,,,,,,,,,,,,,,,,,,,,,,,,,,,,,,,,,,,,,,,l,12.63199997,COL,FALSE,,,,,,,69,nariz,Spanish,Sounds/spa_nariz.mp3,2020-06-05_16h20.28.080,TranslationElicitation_eng-prolific,3.2.4,Win32,60,5e2c9acdcd89c82c3a1321ae,,1,0,98,65,1,97
,,,,,,,,,,,,,,,,,,,,,,,,,,,,,,,,,,,,,,,,,o,12.79099989,COLO,FALSE,,,,,,,69,nariz,Spanish,Sounds/spa_nariz.mp3,2020-06-05_16h20.28.080,TranslationElicitation_eng-prolific,3.2.4,Win32,60,5e2c9acdcd89c82c3a1321ae,,1,0,98,65,1,97
,,,,,,,,,,,,,,,,,,,,,,,,,,,,,,,,,,,,,,,,,u,12.88100004,COLOU,FALSE,,,,,,,69,nariz,Spanish,Sounds/spa_nariz.mp3,2020-06-05_16h20.28.080,TranslationElicitation_eng-prolific,3.2.4,Win32,60,5e2c9acdcd89c82c3a1321ae,,1,0,98,65,1,97
,,,,,,,,,,,,,,,,,,,,,,,,,,,,,,,,,,,,,,,,,r,12.96499991,COLOUR,FALSE,,,,,,,69,nariz,Spanish,Sounds/spa_nariz.mp3,2020-06-05_16h20.28.080,TranslationElicitation_eng-prolific,3.2.4,Win32,60,5e2c9acdcd89c82c3a1321ae,,1,0,98,65,1,97
,,,,,,,,,,,,,,,,,,,,,,,,,,,,,,,,,,,,,,,,,return,13.36500001,COLOUR,FALSE,,,,,,,69,nariz,Spanish,Sounds/spa_nariz.mp3,2020-06-05_16h20.28.080,TranslationElicitation_eng-prolific,3.2.4,Win32,60,5e2c9acdcd89c82c3a1321ae,13.36500001,1,0,98,65,1,97
,,,,,,,,,,,,,,,,,,,,,,,,,,,,,,,,,,,,,,,,,,,,,,,,,,,69,nariz,Spanish,Sounds/spa_nariz.mp3,2020-06-05_16h20.28.080,TranslationElicitation_eng-prolific,3.2.4,Win32,60,5e2c9acdcd89c82c3a1321ae,,1,0,98,65,1,97
,,,,,,,,,,,,,,,,,,,,,,,,,,,,,,,,,,,,,,,,,t,4.115999937,T,FALSE,,,,,,,95,tenedor,Spanish,Sounds/spa_tenedor.mp3,2020-06-05_16h20.28.080,TranslationElicitation_eng-prolific,3.2.4,Win32,60,5e2c9acdcd89c82c3a1321ae,,1,0,98,90,1,97
,,,,,,,,,,,,,,,,,,,,,,,,,,,,,,,,,,,,,,,,,e,4.299000025,TE,FALSE,,,,,,,95,tenedor,Spanish,Sounds/spa_tenedor.mp3,2020-06-05_16h20.28.080,TranslationElicitation_eng-prolific,3.2.4,Win32,60,5e2c9acdcd89c82c3a1321ae,,1,0,98,90,1,97
,,,,,,,,,,,,,,,,,,,,,,,,,,,,,,,,,,,,,,,,,n,4.398999929,TEN,FALSE,,,,,,,95,tenedor,Spanish,Sounds/spa_tenedor.mp3,2020-06-05_16h20.28.080,TranslationElicitation_eng-prolific,3.2.4,Win32,60,5e2c9acdcd89c82c3a1321ae,,1,0,98,90,1,97
,,,,,,,,,,,,,,,,,,,,,,,,,,,,,,,,,,,,,,,,,n,4.549000025,TENN,FALSE,,,,,,,95,tenedor,Spanish,Sounds/spa_tenedor.mp3,2020-06-05_16h20.28.080,TranslationElicitation_eng-prolific,3.2.4,Win32,60,5e2c9acdcd89c82c3a1321ae,,1,0,98,90,1,97
,,,,,,,,,,,,,,,,,,,,,,,,,,,,,,,,,,,,,,,,,i,4.615999937,TENNI,FALSE,,,,,,,95,tenedor,Spanish,Sounds/spa_tenedor.mp3,2020-06-05_16h20.28.080,TranslationElicitation_eng-prolific,3.2.4,Win32,60,5e2c9acdcd89c82c3a1321ae,,1,0,98,90,1,97
,,,,,,,,,,,,,,,,,,,,,,,,,,,,,,,,,,,,,,,,,s,4.665999889,TENNIS,FALSE,,,,,,,95,tenedor,Spanish,Sounds/spa_tenedor.mp3,2020-06-05_16h20.28.080,TranslationElicitation_eng-prolific,3.2.4,Win32,60,5e2c9acdcd89c82c3a1321ae,,1,0,98,90,1,97
,,,,,,,,,,,,,,,,,,,,,,,,,,,,,,,,,,,,,,,,,return,4.948999882,TENNIS,FALSE,,,,,,,95,tenedor,Spanish,Sounds/spa_tenedor.mp3,2020-06-05_16h20.28.080,TranslationElicitation_eng-prolific,3.2.4,Win32,60,5e2c9acdcd89c82c3a1321ae,4.948999882,1,0,98,90,1,97
,,,,,,,,,,,,,,,,,,,,,,,,,,,,,,,,,,,,,,,,,,,,,,,,,,,95,tenedor,Spanish,Sounds/spa_tenedor.mp3,2020-06-05_16h20.28.080,TranslationElicitation_eng-prolific,3.2.4,Win32,60,5e2c9acdcd89c82c3a1321ae,,1,0,98,90,1,97
,,,,,,,,,,,,,,,,,,,,,,,,,,,,,,,,,,,,,,,,,c,4.23300004,C,FALSE,,,,,,,97,tijeras,Spanish,Sounds/spa_tijeras.mp3,2020-06-05_16h20.28.080,TranslationElicitation_eng-prolific,3.2.4,Win32,60,5e2c9acdcd89c82c3a1321ae,,1,0,98,91,1,97
,,,,,,,,,,,,,,,,,,,,,,,,,,,,,,,,,,,,,,,,,i,4.366000175,CI,FALSE,,,,,,,97,tijeras,Spanish,Sounds/spa_tijeras.mp3,2020-06-05_16h20.28.080,TranslationElicitation_eng-prolific,3.2.4,Win32,60,5e2c9acdcd89c82c3a1321ae,,1,0,98,91,1,97
,,,,,,,,,,,,,,,,,,,,,,,,,,,,,,,,,,,,,,,,,t,4.499000072,CIT,FALSE,,,,,,,97,tijeras,Spanish,Sounds/spa_tijeras.mp3,2020-06-05_16h20.28.080,TranslationElicitation_eng-prolific,3.2.4,Win32,60,5e2c9acdcd89c82c3a1321ae,,1,0,98,91,1,97
,,,,,,,,,,,,,,,,,,,,,,,,,,,,,,,,,,,,,,,,,y,4.599000216,CITY,FALSE,,,,,,,97,tijeras,Spanish,Sounds/spa_tijeras.mp3,2020-06-05_16h20.28.080,TranslationElicitation_eng-prolific,3.2.4,Win32,60,5e2c9acdcd89c82c3a1321ae,,1,0,98,91,1,97
,,,,,,,,,,,,,,,,,,,,,,,,,,,,,,,,,,,,,,,,,return,5.016000032,CITY,FALSE,,,,,,,97,tijeras,Spanish,Sounds/spa_tijeras.mp3,2020-06-05_16h20.28.080,TranslationElicitation_eng-prolific,3.2.4,Win32,60,5e2c9acdcd89c82c3a1321ae,5.016000032,1,0,98,91,1,97
,,,,,,,,,,,,,,,,,,,,,,,,,,,,,,,,,,,,,,,,,,,,,,,,,,,97,tijeras,Spanish,Sounds/spa_tijeras.mp3,2020-06-05_16h20.28.080,TranslationElicitation_eng-prolific,3.2.4,Win32,60,5e2c9acdcd89c82c3a1321ae,,1,0,98,91,1,97
,,,,,,,,,,,,,,,,,,,,,,,,,,,,,,,,,,,,,,,,,s,17.41600013,S,FALSE,,,,,,,72,osito,Spanish,Sounds/spa_osito.mp3,2020-06-05_16h20.28.080,TranslationElicitation_eng-prolific,3.2.4,Win32,60,5e2c9acdcd89c82c3a1321ae,,1,0,98,67,1,97
,,,,,,,,,,,,,,,,,,,,,,,,,,,,,,,,,,,,,,,,,c,17.61400008,SC,FALSE,,,,,,,72,osito,Spanish,Sounds/spa_osito.mp3,2020-06-05_16h20.28.080,TranslationElicitation_eng-prolific,3.2.4,Win32,60,5e2c9acdcd89c82c3a1321ae,,1,0,98,67,1,97
,,,,,,,,,,,,,,,,,,,,,,,,,,,,,,,,,,,,,,,,,h,17.71399999,SCH,FALSE,,,,,,,72,osito,Spanish,Sounds/spa_osito.mp3,2020-06-05_16h20.28.080,TranslationElicitation_eng-prolific,3.2.4,Win32,60,5e2c9acdcd89c82c3a1321ae,,1,0,98,67,1,97
,,,,,,,,,,,,,,,,,,,,,,,,,,,,,,,,,,,,,,,,,o,17.94700003,SCHO,FALSE,,,,,,,72,osito,Spanish,Sounds/spa_osito.mp3,2020-06-05_16h20.28.080,TranslationElicitation_eng-prolific,3.2.4,Win32,60,5e2c9acdcd89c82c3a1321ae,,1,0,98,67,1,97
,,,,,,,,,,,,,,,,,,,,,,,,,,,,,,,,,,,,,,,,,o,18.09700012,SCHOO,FALSE,,,,,,,72,osito,Spanish,Sounds/spa_osito.mp3,2020-06-05_16h20.28.080,TranslationElicitation_eng-prolific,3.2.4,Win32,60,5e2c9acdcd89c82c3a1321ae,,1,0,98,67,1,97
,,,,,,,,,,,,,,,,,,,,,,,,,,,,,,,,,,,,,,,,,l,18.26400018,SCHOOL,FALSE,,,,,,,72,osito,Spanish,Sounds/spa_osito.mp3,2020-06-05_16h20.28.080,TranslationElicitation_eng-prolific,3.2.4,Win32,60,5e2c9acdcd89c82c3a1321ae,,1,0,98,67,1,97
,,,,,,,,,,,,,,,,,,,,,,,,,,,,,,,,,,,,,,,,,return,18.48100019,SCHOOL,FALSE,,,,,,,72,osito,Spanish,Sounds/spa_osito.mp3,2020-06-05_16h20.28.080,TranslationElicitation_eng-prolific,3.2.4,Win32,60,5e2c9acdcd89c82c3a1321ae,18.48100019,1,0,98,67,1,97
,,,,,,,,,,,,,,,,,,,,,,,,,,,,,,,,,,,,,,,,,,,,,,,,,,,72,osito,Spanish,Sounds/spa_osito.mp3,2020-06-05_16h20.28.080,TranslationElicitation_eng-prolific,3.2.4,Win32,60,5e2c9acdcd89c82c3a1321ae,,1,0,98,67,1,97
,,,,,,,,,,,,,,,,,,,,,,,,,,,,,,,,,,,,,,,,,b,7.381999969,B,FALSE,,,,,,,20,caracol,Spanish,Sounds/spa_caracol.mp3,2020-06-05_16h20.28.080,TranslationElicitation_eng-prolific,3.2.4,Win32,60,5e2c9acdcd89c82c3a1321ae,,1,0,98,18,1,97
,,,,,,,,,,,,,,,,,,,,,,,,,,,,,,,,,,,,,,,,,r,7.514999866,BR,FALSE,,,,,,,20,caracol,Spanish,Sounds/spa_caracol.mp3,2020-06-05_16h20.28.080,TranslationElicitation_eng-prolific,3.2.4,Win32,60,5e2c9acdcd89c82c3a1321ae,,1,0,98,18,1,97
,,,,,,,,,,,,,,,,,,,,,,,,,,,,,,,,,,,,,,,,,e,7.564999819,BRE,FALSE,,,,,,,20,caracol,Spanish,Sounds/spa_caracol.mp3,2020-06-05_16h20.28.080,TranslationElicitation_eng-prolific,3.2.4,Win32,60,5e2c9acdcd89c82c3a1321ae,,1,0,98,18,1,97
,,,,,,,,,,,,,,,,,,,,,,,,,,,,,,,,,,,,,,,,,a,7.731999874,BREA,FALSE,,,,,,,20,caracol,Spanish,Sounds/spa_caracol.mp3,2020-06-05_16h20.28.080,TranslationElicitation_eng-prolific,3.2.4,Win32,60,5e2c9acdcd89c82c3a1321ae,,1,0,98,18,1,97
,,,,,,,,,,,,,,,,,,,,,,,,,,,,,,,,,,,,,,,,,k,7.831999779,BREAK,FALSE,,,,,,,20,caracol,Spanish,Sounds/spa_caracol.mp3,2020-06-05_16h20.28.080,TranslationElicitation_eng-prolific,3.2.4,Win32,60,5e2c9acdcd89c82c3a1321ae,,1,0,98,18,1,97
,,,,,,,,,,,,,,,,,,,,,,,,,,,,,,,,,,,,,,,,,f,7.899999857,BREAKF,FALSE,,,,,,,20,caracol,Spanish,Sounds/spa_caracol.mp3,2020-06-05_16h20.28.080,TranslationElicitation_eng-prolific,3.2.4,Win32,60,5e2c9acdcd89c82c3a1321ae,,1,0,98,18,1,97
,,,,,,,,,,,,,,,,,,,,,,,,,,,,,,,,,,,,,,,,,a,8.048999786,BREAKFA,FALSE,,,,,,,20,caracol,Spanish,Sounds/spa_caracol.mp3,2020-06-05_16h20.28.080,TranslationElicitation_eng-prolific,3.2.4,Win32,60,5e2c9acdcd89c82c3a1321ae,,1,0,98,18,1,97
,,,,,,,,,,,,,,,,,,,,,,,,,,,,,,,,,,,,,,,,,s,8.148999929,BREAKFAS,FALSE,,,,,,,20,caracol,Spanish,Sounds/spa_caracol.mp3,2020-06-05_16h20.28.080,TranslationElicitation_eng-prolific,3.2.4,Win32,60,5e2c9acdcd89c82c3a1321ae,,1,0,98,18,1,97
,,,,,,,,,,,,,,,,,,,,,,,,,,,,,,,,,,,,,,,,,t,8.365999937,BREAKFAST,FALSE,,,,,,,20,caracol,Spanish,Sounds/spa_caracol.mp3,2020-06-05_16h20.28.080,TranslationElicitation_eng-prolific,3.2.4,Win32,60,5e2c9acdcd89c82c3a1321ae,,1,0,98,18,1,97
,,,,,,,,,,,,,,,,,,,,,,,,,,,,,,,,,,,,,,,,,return,8.532999992,BREAKFAST,FALSE,,,,,,,20,caracol,Spanish,Sounds/spa_caracol.mp3,2020-06-05_16h20.28.080,TranslationElicitation_eng-prolific,3.2.4,Win32,60,5e2c9acdcd89c82c3a1321ae,8.532999992,1,0,98,18,1,97
,,,,,,,,,,,,,,,,,,,,,,,,,,,,,,,,,,,,,,,,,,,,,,,,,,,20,caracol,Spanish,Sounds/spa_caracol.mp3,2020-06-05_16h20.28.080,TranslationElicitation_eng-prolific,3.2.4,Win32,60,5e2c9acdcd89c82c3a1321ae,,1,0,98,18,1,97
,,,,,,,,,,,,,,,,,,,,,,,,,,,,,,,,,,,,,,,,,h,27.62899995,H,FALSE,,,,,,,91,puerta,Spanish,Sounds/spa_puerta.mp3,2020-06-05_16h20.28.080,TranslationElicitation_eng-prolific,3.2.4,Win32,60,5e2c9acdcd89c82c3a1321ae,,1,0,98,86,1,97
,,,,,,,,,,,,,,,,,,,,,,,,,,,,,,,,,,,,,,,,,o,28.09499979,HO,FALSE,,,,,,,91,puerta,Spanish,Sounds/spa_puerta.mp3,2020-06-05_16h20.28.080,TranslationElicitation_eng-prolific,3.2.4,Win32,60,5e2c9acdcd89c82c3a1321ae,,1,0,98,86,1,97
,,,,,,,,,,,,,,,,,,,,,,,,,,,,,,,,,,,,,,,,,u,28.19499993,HOU,FALSE,,,,,,,91,puerta,Spanish,Sounds/spa_puerta.mp3,2020-06-05_16h20.28.080,TranslationElicitation_eng-prolific,3.2.4,Win32,60,5e2c9acdcd89c82c3a1321ae,,1,0,98,86,1,97
,,,,,,,,,,,,,,,,,,,,,,,,,,,,,,,,,,,,,,,,,s,28.87899995,HOUS,FALSE,,,,,,,91,puerta,Spanish,Sounds/spa_puerta.mp3,2020-06-05_16h20.28.080,TranslationElicitation_eng-prolific,3.2.4,Win32,60,5e2c9acdcd89c82c3a1321ae,,1,0,98,86,1,97
,,,,,,,,,,,,,,,,,,,,,,,,,,,,,,,,,,,,,,,,,e,28.99499989,HOUSE,FALSE,,,,,,,91,puerta,Spanish,Sounds/spa_puerta.mp3,2020-06-05_16h20.28.080,TranslationElicitation_eng-prolific,3.2.4,Win32,60,5e2c9acdcd89c82c3a1321ae,,1,0,98,86,1,97
,,,,,,,,,,,,,,,,,,,,,,,,,,,,,,,,,,,,,,,,,return,29.36199999,HOUSE,FALSE,,,,,,,91,puerta,Spanish,Sounds/spa_puerta.mp3,2020-06-05_16h20.28.080,TranslationElicitation_eng-prolific,3.2.4,Win32,60,5e2c9acdcd89c82c3a1321ae,29.36199999,1,0,98,86,1,97
,,,,,,,,,,,,,,,,,,,,,,,,,,,,,,,,,,,,,,,,,,,,,,,,,,,91,puerta,Spanish,Sounds/spa_puerta.mp3,2020-06-05_16h20.28.080,TranslationElicitation_eng-prolific,3.2.4,Win32,60,5e2c9acdcd89c82c3a1321ae,,1,0,98,86,1,97
,,,,,,,,,,,,,,,,,,,,,,,,,,,,,,,,,,,,,,,,,c,6.781999826,C,FALSE,,,,,,,19,camiseta,Spanish,Sounds/spa_camiseta.mp3,2020-06-05_16h20.28.080,TranslationElicitation_eng-prolific,3.2.4,Win32,60,5e2c9acdcd89c82c3a1321ae,,1,0,98,17,1,97
,,,,,,,,,,,,,,,,,,,,,,,,,,,,,,,,,,,,,,,,,a,6.898999929,CA,FALSE,,,,,,,19,camiseta,Spanish,Sounds/spa_camiseta.mp3,2020-06-05_16h20.28.080,TranslationElicitation_eng-prolific,3.2.4,Win32,60,5e2c9acdcd89c82c3a1321ae,,1,0,98,17,1,97
,,,,,,,,,,,,,,,,,,,,,,,,,,,,,,,,,,,,,,,,,m,7.031999826,CAM,FALSE,,,,,,,19,camiseta,Spanish,Sounds/spa_camiseta.mp3,2020-06-05_16h20.28.080,TranslationElicitation_eng-prolific,3.2.4,Win32,60,5e2c9acdcd89c82c3a1321ae,,1,0,98,17,1,97
,,,,,,,,,,,,,,,,,,,,,,,,,,,,,,,,,,,,,,,,,e,7.098999977,CAME,FALSE,,,,,,,19,camiseta,Spanish,Sounds/spa_camiseta.mp3,2020-06-05_16h20.28.080,TranslationElicitation_eng-prolific,3.2.4,Win32,60,5e2c9acdcd89c82c3a1321ae,,1,0,98,17,1,97
,,,,,,,,,,,,,,,,,,,,,,,,,,,,,,,,,,,,,,,,,l,7.248999834,CAMEL,FALSE,,,,,,,19,camiseta,Spanish,Sounds/spa_camiseta.mp3,2020-06-05_16h20.28.080,TranslationElicitation_eng-prolific,3.2.4,Win32,60,5e2c9acdcd89c82c3a1321ae,,1,0,98,17,1,97
,,,,,,,,,,,,,,,,,,,,,,,,,,,,,,,,,,,,,,,,,return,7.531999826,CAMEL,FALSE,,,,,,,19,camiseta,Spanish,Sounds/spa_camiseta.mp3,2020-06-05_16h20.28.080,TranslationElicitation_eng-prolific,3.2.4,Win32,60,5e2c9acdcd89c82c3a1321ae,7.531999826,1,0,98,17,1,97
,,,,,,,,,,,,,,,,,,,,,,,,,,,,,,,,,,,,,,,,,,,,,,,,,,,19,camiseta,Spanish,Sounds/spa_camiseta.mp3,2020-06-05_16h20.28.080,TranslationElicitation_eng-prolific,3.2.4,Win32,60,5e2c9acdcd89c82c3a1321ae,,1,0,98,17,1,97
,,,,,,,,,,,,,,,,,,,,,,,,,,,,,,,,,,,,,,,,,h,2.050000191,H,FALSE,,,,,,,41,gallina,Spanish,Sounds/spa_gallina.mp3,2020-06-05_16h20.28.080,TranslationElicitation_eng-prolific,3.2.4,Win32,60,5e2c9acdcd89c82c3a1321ae,,1,0,98,37,1,97
,,,,,,,,,,,,,,,,,,,,,,,,,,,,,,,,,,,,,,,,,y,2.200000048,HY,FALSE,,,,,,,41,gallina,Spanish,Sounds/spa_gallina.mp3,2020-06-05_16h20.28.080,TranslationElicitation_eng-prolific,3.2.4,Win32,60,5e2c9acdcd89c82c3a1321ae,,1,0,98,37,1,97
,,,,,,,,,,,,,,,,,,,,,,,,,,,,,,,,,,,,,,,,,e,2.366000175,HYE,FALSE,,,,,,,41,gallina,Spanish,Sounds/spa_gallina.mp3,2020-06-05_16h20.28.080,TranslationElicitation_eng-prolific,3.2.4,Win32,60,5e2c9acdcd89c82c3a1321ae,,1,0,98,37,1,97
,,,,,,,,,,,,,,,,,,,,,,,,,,,,,,,,,,,,,,,,,n,2.486000061,HYEN,FALSE,,,,,,,41,gallina,Spanish,Sounds/spa_gallina.mp3,2020-06-05_16h20.28.080,TranslationElicitation_eng-prolific,3.2.4,Win32,60,5e2c9acdcd89c82c3a1321ae,,1,0,98,37,1,97
,,,,,,,,,,,,,,,,,,,,,,,,,,,,,,,,,,,,,,,,,a,2.565999985,HYENA,FALSE,,,,,,,41,gallina,Spanish,Sounds/spa_gallina.mp3,2020-06-05_16h20.28.080,TranslationElicitation_eng-prolific,3.2.4,Win32,60,5e2c9acdcd89c82c3a1321ae,,1,0,98,37,1,97
,,,,,,,,,,,,,,,,,,,,,,,,,,,,,,,,,,,,,,,,,return,3.032999992,HYENA,FALSE,,,,,,,41,gallina,Spanish,Sounds/spa_gallina.mp3,2020-06-05_16h20.28.080,TranslationElicitation_eng-prolific,3.2.4,Win32,60,5e2c9acdcd89c82c3a1321ae,3.032999992,1,0,98,37,1,97
,,,,,,,,,,,,,,,,,,,,,,,,,,,,,,,,,,,,,,,,,,,,,,,,,,,41,gallina,Spanish,Sounds/spa_gallina.mp3,2020-06-05_16h20.28.080,TranslationElicitation_eng-prolific,3.2.4,Win32,60,5e2c9acdcd89c82c3a1321ae,,1,0,98,37,1,97
,,,,,,,,,,,,,,,,,,,,,,,,,,,,,,,,,,,,,,,,,b,2.766000032,B,FALSE,,,,,,,44,gorrion,Spanish,Sounds/spa_gorrion.mp3,2020-06-05_16h20.28.080,TranslationElicitation_eng-prolific,3.2.4,Win32,60,5e2c9acdcd89c82c3a1321ae,,1,0,98,40,1,97
,,,,,,,,,,,,,,,,,,,,,,,,,,,,,,,,,,,,,,,,,r,2.900000095,BR,FALSE,,,,,,,44,gorrion,Spanish,Sounds/spa_gorrion.mp3,2020-06-05_16h20.28.080,TranslationElicitation_eng-prolific,3.2.4,Win32,60,5e2c9acdcd89c82c3a1321ae,,1,0,98,40,1,97
,,,,,,,,,,,,,,,,,,,,,,,,,,,,,,,,,,,,,,,,,o,3.032999992,BRO,FALSE,,,,,,,44,gorrion,Spanish,Sounds/spa_gorrion.mp3,2020-06-05_16h20.28.080,TranslationElicitation_eng-prolific,3.2.4,Win32,60,5e2c9acdcd89c82c3a1321ae,,1,0,98,40,1,97
,,,,,,,,,,,,,,,,,,,,,,,,,,,,,,,,,,,,,,,,,w,3.116000175,BROW,FALSE,,,,,,,44,gorrion,Spanish,Sounds/spa_gorrion.mp3,2020-06-05_16h20.28.080,TranslationElicitation_eng-prolific,3.2.4,Win32,60,5e2c9acdcd89c82c3a1321ae,,1,0,98,40,1,97
,,,,,,,,,,,,,,,,,,,,,,,,,,,,,,,,,,,,,,,,,n,3.21600008,BROWN,FALSE,,,,,,,44,gorrion,Spanish,Sounds/spa_gorrion.mp3,2020-06-05_16h20.28.080,TranslationElicitation_eng-prolific,3.2.4,Win32,60,5e2c9acdcd89c82c3a1321ae,,1,0,98,40,1,97
,,,,,,,,,,,,,,,,,,,,,,,,,,,,,,,,,,,,,,,,,return,3.565999985,BROWN,FALSE,,,,,,,44,gorrion,Spanish,Sounds/spa_gorrion.mp3,2020-06-05_16h20.28.080,TranslationElicitation_eng-prolific,3.2.4,Win32,60,5e2c9acdcd89c82c3a1321ae,3.565999985,1,0,98,40,1,97
,,,,,,,,,,,,,,,,,,,,,,,,,,,,,,,,,,,,,,,,,,,,,,,,,,,44,gorrion,Spanish,Sounds/spa_gorrion.mp3,2020-06-05_16h20.28.080,TranslationElicitation_eng-prolific,3.2.4,Win32,60,5e2c9acdcd89c82c3a1321ae,,1,0,98,40,1,97
,,,,,,,,,,,,,,,,,,,,,,,,,,,,,,,,,,,,,,,,,l,1.616000175,L,FALSE,,,,,,,54,lengua,Spanish,Sounds/spa_lengua.mp3,2020-06-05_16h20.28.080,TranslationElicitation_eng-prolific,3.2.4,Win32,60,5e2c9acdcd89c82c3a1321ae,,1,0,98,50,1,97
,,,,,,,,,,,,,,,,,,,,,,,,,,,,,,,,,,,,,,,,,a,1.766000032,LA,FALSE,,,,,,,54,lengua,Spanish,Sounds/spa_lengua.mp3,2020-06-05_16h20.28.080,TranslationElicitation_eng-prolific,3.2.4,Win32,60,5e2c9acdcd89c82c3a1321ae,,1,0,98,50,1,97
,,,,,,,,,,,,,,,,,,,,,,,,,,,,,,,,,,,,,,,,,n,1.883000135,LAN,FALSE,,,,,,,54,lengua,Spanish,Sounds/spa_lengua.mp3,2020-06-05_16h20.28.080,TranslationElicitation_eng-prolific,3.2.4,Win32,60,5e2c9acdcd89c82c3a1321ae,,1,0,98,50,1,97
,,,,,,,,,,,,,,,,,,,,,,,,,,,,,,,,,,,,,,,,,g,1.98300004,LANG,FALSE,,,,,,,54,lengua,Spanish,Sounds/spa_lengua.mp3,2020-06-05_16h20.28.080,TranslationElicitation_eng-prolific,3.2.4,Win32,60,5e2c9acdcd89c82c3a1321ae,,1,0,98,50,1,97
,,,,,,,,,,,,,,,,,,,,,,,,,,,,,,,,,,,,,,,,,u,2.083000183,LANGU,FALSE,,,,,,,54,lengua,Spanish,Sounds/spa_lengua.mp3,2020-06-05_16h20.28.080,TranslationElicitation_eng-prolific,3.2.4,Win32,60,5e2c9acdcd89c82c3a1321ae,,1,0,98,50,1,97
,,,,,,,,,,,,,,,,,,,,,,,,,,,,,,,,,,,,,,,,,a,2.201000214,LANGUA,FALSE,,,,,,,54,lengua,Spanish,Sounds/spa_lengua.mp3,2020-06-05_16h20.28.080,TranslationElicitation_eng-prolific,3.2.4,Win32,60,5e2c9acdcd89c82c3a1321ae,,1,0,98,50,1,97
,,,,,,,,,,,,,,,,,,,,,,,,,,,,,,,,,,,,,,,,,g,2.282999992,LANGUAG,FALSE,,,,,,,54,lengua,Spanish,Sounds/spa_lengua.mp3,2020-06-05_16h20.28.080,TranslationElicitation_eng-prolific,3.2.4,Win32,60,5e2c9acdcd89c82c3a1321ae,,1,0,98,50,1,97
,,,,,,,,,,,,,,,,,,,,,,,,,,,,,,,,,,,,,,,,,e,2.350000143,LANGUAGE,FALSE,,,,,,,54,lengua,Spanish,Sounds/spa_lengua.mp3,2020-06-05_16h20.28.080,TranslationElicitation_eng-prolific,3.2.4,Win32,60,5e2c9acdcd89c82c3a1321ae,,1,0,98,50,1,97
,,,,,,,,,,,,,,,,,,,,,,,,,,,,,,,,,,,,,,,,,return,3.599000216,LANGUAGE,FALSE,,,,,,,54,lengua,Spanish,Sounds/spa_lengua.mp3,2020-06-05_16h20.28.080,TranslationElicitation_eng-prolific,3.2.4,Win32,60,5e2c9acdcd89c82c3a1321ae,3.599000216,1,0,98,50,1,97
,,,,,,,,,,,,,,,,,,,,,,,,,,,,,,,,,,,,,,,,,,,,,,,,,,,54,lengua,Spanish,Sounds/spa_lengua.mp3,2020-06-05_16h20.28.080,TranslationElicitation_eng-prolific,3.2.4,Win32,60,5e2c9acdcd89c82c3a1321ae,,1,0,98,50,1,97
,,,,,,,,,,,,,,,,,,,,,,,,,,,,,,,,,,,,,,,,,s,3.431999922,S,FALSE,,,,,,,100,toro,Spanish,Sounds/spa_toro.mp3,2020-06-05_16h20.28.080,TranslationElicitation_eng-prolific,3.2.4,Win32,60,5e2c9acdcd89c82c3a1321ae,,1,0,98,94,1,97
,,,,,,,,,,,,,,,,,,,,,,,,,,,,,,,,,,,,,,,,,u,3.516000032,SU,FALSE,,,,,,,100,toro,Spanish,Sounds/spa_toro.mp3,2020-06-05_16h20.28.080,TranslationElicitation_eng-prolific,3.2.4,Win32,60,5e2c9acdcd89c82c3a1321ae,,1,0,98,94,1,97
,,,,,,,,,,,,,,,,,,,,,,,,,,,,,,,,,,,,,,,,,n,3.598999977,SUN,FALSE,,,,,,,100,toro,Spanish,Sounds/spa_toro.mp3,2020-06-05_16h20.28.080,TranslationElicitation_eng-prolific,3.2.4,Win32,60,5e2c9acdcd89c82c3a1321ae,,1,0,98,94,1,97
,,,,,,,,,,,,,,,,,,,,,,,,,,,,,,,,,,,,,,,,,return,4.014999866,SUN,FALSE,,,,,,,100,toro,Spanish,Sounds/spa_toro.mp3,2020-06-05_16h20.28.080,TranslationElicitation_eng-prolific,3.2.4,Win32,60,5e2c9acdcd89c82c3a1321ae,4.014999866,1,0,98,94,1,97
,,,,,,,,,,,,,,,,,,,,,,,,,,,,,,,,,,,,,,,,,,,,,,,,,,,100,toro,Spanish,Sounds/spa_toro.mp3,2020-06-05_16h20.28.080,TranslationElicitation_eng-prolific,3.2.4,Win32,60,5e2c9acdcd89c82c3a1321ae,,1,0,98,94,1,97
,,,,,,,,,,,,,,,,,,,,,,,,,,,,,,,,,,,,,,,,,p,6.899000168,P,FALSE,,,,,,,17,calcetin,Spanish,Sounds/spa_calcetin.mp3,2020-06-05_16h20.28.080,TranslationElicitation_eng-prolific,3.2.4,Win32,60,5e2c9acdcd89c82c3a1321ae,,1,0,98,15,1,97
,,,,,,,,,,,,,,,,,,,,,,,,,,,,,,,,,,,,,,,,,h,7.133000135,PH,FALSE,,,,,,,17,calcetin,Spanish,Sounds/spa_calcetin.mp3,2020-06-05_16h20.28.080,TranslationElicitation_eng-prolific,3.2.4,Win32,60,5e2c9acdcd89c82c3a1321ae,,1,0,98,15,1,97
,,,,,,,,,,,,,,,,,,,,,,,,,,,,,,,,,,,,,,,,,a,7.249000072,PHA,FALSE,,,,,,,17,calcetin,Spanish,Sounds/spa_calcetin.mp3,2020-06-05_16h20.28.080,TranslationElicitation_eng-prolific,3.2.4,Win32,60,5e2c9acdcd89c82c3a1321ae,,1,0,98,15,1,97
,,,,,,,,,,,,,,,,,,,,,,,,,,,,,,,,,,,,,,,,,r,7.348999977,PHAR,FALSE,,,,,,,17,calcetin,Spanish,Sounds/spa_calcetin.mp3,2020-06-05_16h20.28.080,TranslationElicitation_eng-prolific,3.2.4,Win32,60,5e2c9acdcd89c82c3a1321ae,,1,0,98,15,1,97
,,,,,,,,,,,,,,,,,,,,,,,,,,,,,,,,,,,,,,,,,m,7.43200016,PHARM,FALSE,,,,,,,17,calcetin,Spanish,Sounds/spa_calcetin.mp3,2020-06-05_16h20.28.080,TranslationElicitation_eng-prolific,3.2.4,Win32,60,5e2c9acdcd89c82c3a1321ae,,1,0,98,15,1,97
,,,,,,,,,,,,,,,,,,,,,,,,,,,,,,,,,,,,,,,,,a,7.532999992,PHARMA,FALSE,,,,,,,17,calcetin,Spanish,Sounds/spa_calcetin.mp3,2020-06-05_16h20.28.080,TranslationElicitation_eng-prolific,3.2.4,Win32,60,5e2c9acdcd89c82c3a1321ae,,1,0,98,15,1,97
,,,,,,,,,,,,,,,,,,,,,,,,,,,,,,,,,,,,,,,,,c,7.68200016,PHARMAC,FALSE,,,,,,,17,calcetin,Spanish,Sounds/spa_calcetin.mp3,2020-06-05_16h20.28.080,TranslationElicitation_eng-prolific,3.2.4,Win32,60,5e2c9acdcd89c82c3a1321ae,,1,0,98,15,1,97
,,,,,,,,,,,,,,,,,,,,,,,,,,,,,,,,,,,,,,,,,backspace,7.999000072,PHARMA,TRUE,,,,,,,17,calcetin,Spanish,Sounds/spa_calcetin.mp3,2020-06-05_16h20.28.080,TranslationElicitation_eng-prolific,3.2.4,Win32,60,5e2c9acdcd89c82c3a1321ae,,1,0,98,15,1,97
,,,,,,,,,,,,,,,,,,,,,,,,,,,,,,,,,,,,,,,,,backspace,8.532000065,PHARM,TRUE,,,,,,,17,calcetin,Spanish,Sounds/spa_calcetin.mp3,2020-06-05_16h20.28.080,TranslationElicitation_eng-prolific,3.2.4,Win32,60,5e2c9acdcd89c82c3a1321ae,,1,0,98,15,1,97
,,,,,,,,,,,,,,,,,,,,,,,,,,,,,,,,,,,,,,,,,backspace,8.565999985,PHAR,TRUE,,,,,,,17,calcetin,Spanish,Sounds/spa_calcetin.mp3,2020-06-05_16h20.28.080,TranslationElicitation_eng-prolific,3.2.4,Win32,60,5e2c9acdcd89c82c3a1321ae,,1,0,98,15,1,97
,,,,,,,,,,,,,,,,,,,,,,,,,,,,,,,,,,,,,,,,,backspace,8.598999977,PHA,TRUE,,,,,,,17,calcetin,Spanish,Sounds/spa_calcetin.mp3,2020-06-05_16h20.28.080,TranslationElicitation_eng-prolific,3.2.4,Win32,60,5e2c9acdcd89c82c3a1321ae,,1,0,98,15,1,97
,,,,,,,,,,,,,,,,,,,,,,,,,,,,,,,,,,,,,,,,,backspace,8.649000168,PH,TRUE,,,,,,,17,calcetin,Spanish,Sounds/spa_calcetin.mp3,2020-06-05_16h20.28.080,TranslationElicitation_eng-prolific,3.2.4,Win32,60,5e2c9acdcd89c82c3a1321ae,,1,0,98,15,1,97
,,,,,,,,,,,,,,,,,,,,,,,,,,,,,,,,,,,,,,,,,backspace,8.68200016,P,TRUE,,,,,,,17,calcetin,Spanish,Sounds/spa_calcetin.mp3,2020-06-05_16h20.28.080,TranslationElicitation_eng-prolific,3.2.4,Win32,60,5e2c9acdcd89c82c3a1321ae,,1,0,98,15,1,97
,,,,,,,,,,,,,,,,,,,,,,,,,,,,,,,,,,,,,,,,,backspace,8.71600008,,TRUE,,,,,,,17,calcetin,Spanish,Sounds/spa_calcetin.mp3,2020-06-05_16h20.28.080,TranslationElicitation_eng-prolific,3.2.4,Win32,60,5e2c9acdcd89c82c3a1321ae,,1,0,98,15,1,97
,,,,,,,,,,,,,,,,,,,,,,,,,,,,,,,,,,,,,,,,,backspace,8.749000072,,TRUE,,,,,,,17,calcetin,Spanish,Sounds/spa_calcetin.mp3,2020-06-05_16h20.28.080,TranslationElicitation_eng-prolific,3.2.4,Win32,60,5e2c9acdcd89c82c3a1321ae,,1,0,98,15,1,97
,,,,,,,,,,,,,,,,,,,,,,,,,,,,,,,,,,,,,,,,,backspace,8.799000025,,TRUE,,,,,,,17,calcetin,Spanish,Sounds/spa_calcetin.mp3,2020-06-05_16h20.28.080,TranslationElicitation_eng-prolific,3.2.4,Win32,60,5e2c9acdcd89c82c3a1321ae,,1,0,98,15,1,97
,,,,,,,,,,,,,,,,,,,,,,,,,,,,,,,,,,,,,,,,,p,14.03200006,P,TRUE,,,,,,,17,calcetin,Spanish,Sounds/spa_calcetin.mp3,2020-06-05_16h20.28.080,TranslationElicitation_eng-prolific,3.2.4,Win32,60,5e2c9acdcd89c82c3a1321ae,,1,0,98,15,1,97
,,,,,,,,,,,,,,,,,,,,,,,,,,,,,,,,,,,,,,,,,h,14.28200006,PH,TRUE,,,,,,,17,calcetin,Spanish,Sounds/spa_calcetin.mp3,2020-06-05_16h20.28.080,TranslationElicitation_eng-prolific,3.2.4,Win32,60,5e2c9acdcd89c82c3a1321ae,,1,0,98,15,1,97
,,,,,,,,,,,,,,,,,,,,,,,,,,,,,,,,,,,,,,,,,a,14.36500001,PHA,TRUE,,,,,,,17,calcetin,Spanish,Sounds/spa_calcetin.mp3,2020-06-05_16h20.28.080,TranslationElicitation_eng-prolific,3.2.4,Win32,60,5e2c9acdcd89c82c3a1321ae,,1,0,98,15,1,97
,,,,,,,,,,,,,,,,,,,,,,,,,,,,,,,,,,,,,,,,,r,14.46500015,PHAR,TRUE,,,,,,,17,calcetin,Spanish,Sounds/spa_calcetin.mp3,2020-06-05_16h20.28.080,TranslationElicitation_eng-prolific,3.2.4,Win32,60,5e2c9acdcd89c82c3a1321ae,,1,0,98,15,1,97
,,,,,,,,,,,,,,,,,,,,,,,,,,,,,,,,,,,,,,,,,m,14.56500006,PHARM,TRUE,,,,,,,17,calcetin,Spanish,Sounds/spa_calcetin.mp3,2020-06-05_16h20.28.080,TranslationElicitation_eng-prolific,3.2.4,Win32,60,5e2c9acdcd89c82c3a1321ae,,1,0,98,15,1,97
,,,,,,,,,,,,,,,,,,,,,,,,,,,,,,,,,,,,,,,,,a,14.63199997,PHARMA,TRUE,,,,,,,17,calcetin,Spanish,Sounds/spa_calcetin.mp3,2020-06-05_16h20.28.080,TranslationElicitation_eng-prolific,3.2.4,Win32,60,5e2c9acdcd89c82c3a1321ae,,1,0,98,15,1,97
,,,,,,,,,,,,,,,,,,,,,,,,,,,,,,,,,,,,,,,,,c,14.7980001,PHARMAC,TRUE,,,,,,,17,calcetin,Spanish,Sounds/spa_calcetin.mp3,2020-06-05_16h20.28.080,TranslationElicitation_eng-prolific,3.2.4,Win32,60,5e2c9acdcd89c82c3a1321ae,,1,0,98,15,1,97
,,,,,,,,,,,,,,,,,,,,,,,,,,,,,,,,,,,,,,,,,y,14.88600016,PHARMACY,TRUE,,,,,,,17,calcetin,Spanish,Sounds/spa_calcetin.mp3,2020-06-05_16h20.28.080,TranslationElicitation_eng-prolific,3.2.4,Win32,60,5e2c9acdcd89c82c3a1321ae,,1,0,98,15,1,97
,,,,,,,,,,,,,,,,,,,,,,,,,,,,,,,,,,,,,,,,,return,19.0150001,PHARMACY,TRUE,,,,,,,17,calcetin,Spanish,Sounds/spa_calcetin.mp3,2020-06-05_16h20.28.080,TranslationElicitation_eng-prolific,3.2.4,Win32,60,5e2c9acdcd89c82c3a1321ae,19.0150001,1,0,98,15,1,97
,,,,,,,,,,,,,,,,,,,,,,,,,,,,,,,,,,,,,,,,,,,,,,,,,,,17,calcetin,Spanish,Sounds/spa_calcetin.mp3,2020-06-05_16h20.28.080,TranslationElicitation_eng-prolific,3.2.4,Win32,60,5e2c9acdcd89c82c3a1321ae,,1,0,98,15,1,97
,,,,,,,,,,,,,,,,,,,,,,,,,,,,,,,,,,,,,,,,,m,5.548000097,M,FALSE,,,,,,,64,moneda,Spanish,Sounds/spa_moneda.mp3,2020-06-05_16h20.28.080,TranslationElicitation_eng-prolific,3.2.4,Win32,60,5e2c9acdcd89c82c3a1321ae,,1,0,98,60,1,97
,,,,,,,,,,,,,,,,,,,,,,,,,,,,,,,,,,,,,,,,,o,5.664999962,MO,FALSE,,,,,,,64,moneda,Spanish,Sounds/spa_moneda.mp3,2020-06-05_16h20.28.080,TranslationElicitation_eng-prolific,3.2.4,Win32,60,5e2c9acdcd89c82c3a1321ae,,1,0,98,60,1,97
,,,,,,,,,,,,,,,,,,,,,,,,,,,,,,,,,,,,,,,,,n,5.782000065,MON,FALSE,,,,,,,64,moneda,Spanish,Sounds/spa_moneda.mp3,2020-06-05_16h20.28.080,TranslationElicitation_eng-prolific,3.2.4,Win32,60,5e2c9acdcd89c82c3a1321ae,,1,0,98,60,1,97
,,,,,,,,,,,,,,,,,,,,,,,,,,,,,,,,,,,,,,,,,i,5.881999969,MONI,FALSE,,,,,,,64,moneda,Spanish,Sounds/spa_moneda.mp3,2020-06-05_16h20.28.080,TranslationElicitation_eng-prolific,3.2.4,Win32,60,5e2c9acdcd89c82c3a1321ae,,1,0,98,60,1,97
,,,,,,,,,,,,,,,,,,,,,,,,,,,,,,,,,,,,,,,,,t,5.981999874,MONIT,FALSE,,,,,,,64,moneda,Spanish,Sounds/spa_moneda.mp3,2020-06-05_16h20.28.080,TranslationElicitation_eng-prolific,3.2.4,Win32,60,5e2c9acdcd89c82c3a1321ae,,1,0,98,60,1,97
,,,,,,,,,,,,,,,,,,,,,,,,,,,,,,,,,,,,,,,,,o,6.09800005,MONITO,FALSE,,,,,,,64,moneda,Spanish,Sounds/spa_moneda.mp3,2020-06-05_16h20.28.080,TranslationElicitation_eng-prolific,3.2.4,Win32,60,5e2c9acdcd89c82c3a1321ae,,1,0,98,60,1,97
,,,,,,,,,,,,,,,,,,,,,,,,,,,,,,,,,,,,,,,,,r,6.214999914,MONITOR,FALSE,,,,,,,64,moneda,Spanish,Sounds/spa_moneda.mp3,2020-06-05_16h20.28.080,TranslationElicitation_eng-prolific,3.2.4,Win32,60,5e2c9acdcd89c82c3a1321ae,,1,0,98,60,1,97
,,,,,,,,,,,,,,,,,,,,,,,,,,,,,,,,,,,,,,,,,return,6.681999922,MONITOR,FALSE,,,,,,,64,moneda,Spanish,Sounds/spa_moneda.mp3,2020-06-05_16h20.28.080,TranslationElicitation_eng-prolific,3.2.4,Win32,60,5e2c9acdcd89c82c3a1321ae,6.681999922,1,0,98,60,1,97
,,,,,,,,,,,,,,,,,,,,,,,,,,,,,,,,,,,,,,,,,,,,,,,,,,,64,moneda,Spanish,Sounds/spa_moneda.mp3,2020-06-05_16h20.28.080,TranslationElicitation_eng-prolific,3.2.4,Win32,60,5e2c9acdcd89c82c3a1321ae,,1,0,98,60,1,97
,,,,,,,,,,,,,,,,,,,,,,,,,,,,,,,,,,,,,,,,,d,2.749000072,D,FALSE,,,,,,,18,camisa,Spanish,Sounds/spa_camisa.mp3,2020-06-05_16h20.28.080,TranslationElicitation_eng-prolific,3.2.4,Win32,60,5e2c9acdcd89c82c3a1321ae,,1,0,98,16,1,97
,,,,,,,,,,,,,,,,,,,,,,,,,,,,,,,,,,,,,,,,,a,2.899000168,DA,FALSE,,,,,,,18,camisa,Spanish,Sounds/spa_camisa.mp3,2020-06-05_16h20.28.080,TranslationElicitation_eng-prolific,3.2.4,Win32,60,5e2c9acdcd89c82c3a1321ae,,1,0,98,16,1,97
,,,,,,,,,,,,,,,,,,,,,,,,,,,,,,,,,,,,,,,,,u,3.016000032,DAU,FALSE,,,,,,,18,camisa,Spanish,Sounds/spa_camisa.mp3,2020-06-05_16h20.28.080,TranslationElicitation_eng-prolific,3.2.4,Win32,60,5e2c9acdcd89c82c3a1321ae,,1,0,98,16,1,97
,,,,,,,,,,,,,,,,,,,,,,,,,,,,,,,,,,,,,,,,,g,3.21600008,DAUG,FALSE,,,,,,,18,camisa,Spanish,Sounds/spa_camisa.mp3,2020-06-05_16h20.28.080,TranslationElicitation_eng-prolific,3.2.4,Win32,60,5e2c9acdcd89c82c3a1321ae,,1,0,98,16,1,97
,,,,,,,,,,,,,,,,,,,,,,,,,,,,,,,,,,,,,,,,,h,3.282000065,DAUGH,FALSE,,,,,,,18,camisa,Spanish,Sounds/spa_camisa.mp3,2020-06-05_16h20.28.080,TranslationElicitation_eng-prolific,3.2.4,Win32,60,5e2c9acdcd89c82c3a1321ae,,1,0,98,16,1,97
,,,,,,,,,,,,,,,,,,,,,,,,,,,,,,,,,,,,,,,,,t,3.46600008,DAUGHT,FALSE,,,,,,,18,camisa,Spanish,Sounds/spa_camisa.mp3,2020-06-05_16h20.28.080,TranslationElicitation_eng-prolific,3.2.4,Win32,60,5e2c9acdcd89c82c3a1321ae,,1,0,98,16,1,97
,,,,,,,,,,,,,,,,,,,,,,,,,,,,,,,,,,,,,,,,,e,3.598999977,DAUGHTE,FALSE,,,,,,,18,camisa,Spanish,Sounds/spa_camisa.mp3,2020-06-05_16h20.28.080,TranslationElicitation_eng-prolific,3.2.4,Win32,60,5e2c9acdcd89c82c3a1321ae,,1,0,98,16,1,97
,,,,,,,,,,,,,,,,,,,,,,,,,,,,,,,,,,,,,,,,,r,3.683000088,DAUGHTER,FALSE,,,,,,,18,camisa,Spanish,Sounds/spa_camisa.mp3,2020-06-05_16h20.28.080,TranslationElicitation_eng-prolific,3.2.4,Win32,60,5e2c9acdcd89c82c3a1321ae,,1,0,98,16,1,97
,,,,,,,,,,,,,,,,,,,,,,,,,,,,,,,,,,,,,,,,,return,3.848999977,DAUGHTER,FALSE,,,,,,,18,camisa,Spanish,Sounds/spa_camisa.mp3,2020-06-05_16h20.28.080,TranslationElicitation_eng-prolific,3.2.4,Win32,60,5e2c9acdcd89c82c3a1321ae,3.848999977,1,0,98,16,1,97
,,,,,,,,,,,,,,,,,,,,,,,,,,,,,,,,,,,,,,,,,,,,,,,,,,,18,camisa,Spanish,Sounds/spa_camisa.mp3,2020-06-05_16h20.28.080,TranslationElicitation_eng-prolific,3.2.4,Win32,60,5e2c9acdcd89c82c3a1321ae,,1,0,98,16,1,97
,,,,,,,,,,,,,,,,,,,,,,,,,,,,,,,,,,,,,,,,,f,2.400000095,F,FALSE,,,,,,,37,flor,Spanish,Sounds/spa_flor.mp3,2020-06-05_16h20.28.080,TranslationElicitation_eng-prolific,3.2.4,Win32,60,5e2c9acdcd89c82c3a1321ae,,1,0,98,33,1,97
,,,,,,,,,,,,,,,,,,,,,,,,,,,,,,,,,,,,,,,,,l,2.532999992,FL,FALSE,,,,,,,37,flor,Spanish,Sounds/spa_flor.mp3,2020-06-05_16h20.28.080,TranslationElicitation_eng-prolific,3.2.4,Win32,60,5e2c9acdcd89c82c3a1321ae,,1,0,98,33,1,97
,,,,,,,,,,,,,,,,,,,,,,,,,,,,,,,,,,,,,,,,,o,2.700000048,FLO,FALSE,,,,,,,37,flor,Spanish,Sounds/spa_flor.mp3,2020-06-05_16h20.28.080,TranslationElicitation_eng-prolific,3.2.4,Win32,60,5e2c9acdcd89c82c3a1321ae,,1,0,98,33,1,97
,,,,,,,,,,,,,,,,,,,,,,,,,,,,,,,,,,,,,,,,,o,2.850000143,FLOO,FALSE,,,,,,,37,flor,Spanish,Sounds/spa_flor.mp3,2020-06-05_16h20.28.080,TranslationElicitation_eng-prolific,3.2.4,Win32,60,5e2c9acdcd89c82c3a1321ae,,1,0,98,33,1,97
,,,,,,,,,,,,,,,,,,,,,,,,,,,,,,,,,,,,,,,,,r,2.883000135,FLOOR,FALSE,,,,,,,37,flor,Spanish,Sounds/spa_flor.mp3,2020-06-05_16h20.28.080,TranslationElicitation_eng-prolific,3.2.4,Win32,60,5e2c9acdcd89c82c3a1321ae,,1,0,98,33,1,97
,,,,,,,,,,,,,,,,,,,,,,,,,,,,,,,,,,,,,,,,,return,3.116000175,FLOOR,FALSE,,,,,,,37,flor,Spanish,Sounds/spa_flor.mp3,2020-06-05_16h20.28.080,TranslationElicitation_eng-prolific,3.2.4,Win32,60,5e2c9acdcd89c82c3a1321ae,3.116000175,1,0,98,33,1,97
,,,,,,,,,,,,,,,,,,,,,,,,,,,,,,,,,,,,,,,,,,,,,,,,,,,37,flor,Spanish,Sounds/spa_flor.mp3,2020-06-05_16h20.28.080,TranslationElicitation_eng-prolific,3.2.4,Win32,60,5e2c9acdcd89c82c3a1321ae,,1,0,98,33,1,97
,,,,,,,,,,,,,,,,,,,,,,,,,,,,,,,,,,,,,,,,,g,1.434000015,G,FALSE,,,,,,,47,guitarra,Spanish,Sounds/spa_guitarra.mp3,2020-06-05_16h20.28.080,TranslationElicitation_eng-prolific,3.2.4,Win32,60,5e2c9acdcd89c82c3a1321ae,,1,0,98,43,1,97
,,,,,,,,,,,,,,,,,,,,,,,,,,,,,,,,,,,,,,,,,u,1.482999802,GU,FALSE,,,,,,,47,guitarra,Spanish,Sounds/spa_guitarra.mp3,2020-06-05_16h20.28.080,TranslationElicitation_eng-prolific,3.2.4,Win32,60,5e2c9acdcd89c82c3a1321ae,,1,0,98,43,1,97
,,,,,,,,,,,,,,,,,,,,,,,,,,,,,,,,,,,,,,,,,i,1.599999905,GUI,FALSE,,,,,,,47,guitarra,Spanish,Sounds/spa_guitarra.mp3,2020-06-05_16h20.28.080,TranslationElicitation_eng-prolific,3.2.4,Win32,60,5e2c9acdcd89c82c3a1321ae,,1,0,98,43,1,97
,,,,,,,,,,,,,,,,,,,,,,,,,,,,,,,,,,,,,,,,,t,1.666999817,GUIT,FALSE,,,,,,,47,guitarra,Spanish,Sounds/spa_guitarra.mp3,2020-06-05_16h20.28.080,TranslationElicitation_eng-prolific,3.2.4,Win32,60,5e2c9acdcd89c82c3a1321ae,,1,0,98,43,1,97
,,,,,,,,,,,,,,,,,,,,,,,,,,,,,,,,,,,,,,,,,a,1.832999945,GUITA,FALSE,,,,,,,47,guitarra,Spanish,Sounds/spa_guitarra.mp3,2020-06-05_16h20.28.080,TranslationElicitation_eng-prolific,3.2.4,Win32,60,5e2c9acdcd89c82c3a1321ae,,1,0,98,43,1,97
,,,,,,,,,,,,,,,,,,,,,,,,,,,,,,,,,,,,,,,,,r,1.932999849,GUITAR,FALSE,,,,,,,47,guitarra,Spanish,Sounds/spa_guitarra.mp3,2020-06-05_16h20.28.080,TranslationElicitation_eng-prolific,3.2.4,Win32,60,5e2c9acdcd89c82c3a1321ae,,1,0,98,43,1,97
,,,,,,,,,,,,,,,,,,,,,,,,,,,,,,,,,,,,,,,,,return,2.099999905,GUITAR,FALSE,,,,,,,47,guitarra,Spanish,Sounds/spa_guitarra.mp3,2020-06-05_16h20.28.080,TranslationElicitation_eng-prolific,3.2.4,Win32,60,5e2c9acdcd89c82c3a1321ae,2.099999905,1,0,98,43,1,97
,,,,,,,,,,,,,,,,,,,,,,,,,,,,,,,,,,,,,,,,,,,,,,,,,,,47,guitarra,Spanish,Sounds/spa_guitarra.mp3,2020-06-05_16h20.28.080,TranslationElicitation_eng-prolific,3.2.4,Win32,60,5e2c9acdcd89c82c3a1321ae,,1,0,98,43,1,97
,,,,,,,,,,,,,,,,,,,,,,,,,,,,,,,,,,,,,,,,,b,5.44900012,B,FALSE,,,,,,,6,boca,Spanish,Sounds/spa_boca.mp3,2020-06-05_16h20.28.080,TranslationElicitation_eng-prolific,3.2.4,Win32,60,5e2c9acdcd89c82c3a1321ae,,1,0,98,4,1,97
,,,,,,,,,,,,,,,,,,,,,,,,,,,,,,,,,,,,,,,,,l,5.598999977,BL,FALSE,,,,,,,6,boca,Spanish,Sounds/spa_boca.mp3,2020-06-05_16h20.28.080,TranslationElicitation_eng-prolific,3.2.4,Win32,60,5e2c9acdcd89c82c3a1321ae,,1,0,98,4,1,97
,,,,,,,,,,,,,,,,,,,,,,,,,,,,,,,,,,,,,,,,,u,5.749000072,BLU,FALSE,,,,,,,6,boca,Spanish,Sounds/spa_boca.mp3,2020-06-05_16h20.28.080,TranslationElicitation_eng-prolific,3.2.4,Win32,60,5e2c9acdcd89c82c3a1321ae,,1,0,98,4,1,97
,,,,,,,,,,,,,,,,,,,,,,,,,,,,,,,,,,,,,,,,,e,5.799000025,BLUE,FALSE,,,,,,,6,boca,Spanish,Sounds/spa_boca.mp3,2020-06-05_16h20.28.080,TranslationElicitation_eng-prolific,3.2.4,Win32,60,5e2c9acdcd89c82c3a1321ae,,1,0,98,4,1,97
,,,,,,,,,,,,,,,,,,,,,,,,,,,,,,,,,,,,,,,,,return,6.832000017,BLUE,FALSE,,,,,,,6,boca,Spanish,Sounds/spa_boca.mp3,2020-06-05_16h20.28.080,TranslationElicitation_eng-prolific,3.2.4,Win32,60,5e2c9acdcd89c82c3a1321ae,6.832000017,1,0,98,4,1,97
,,,,,,,,,,,,,,,,,,,,,,,,,,,,,,,,,,,,,,,,,,,,,,,,,,,6,boca,Spanish,Sounds/spa_boca.mp3,2020-06-05_16h20.28.080,TranslationElicitation_eng-prolific,3.2.4,Win32,60,5e2c9acdcd89c82c3a1321ae,,1,0,98,4,1,97
,,,,,,,,,,,,,,,,,,,,,,,,,,,,,,,,,,,,,,,,,b,1.96600008,B,FALSE,,,,,,,12,brazo,Spanish,Sounds/spa_brazo.mp3,2020-06-05_16h20.28.080,TranslationElicitation_eng-prolific,3.2.4,Win32,60,5e2c9acdcd89c82c3a1321ae,,1,0,98,10,1,97
,,,,,,,,,,,,,,,,,,,,,,,,,,,,,,,,,,,,,,,,,r,2.032999992,BR,FALSE,,,,,,,12,brazo,Spanish,Sounds/spa_brazo.mp3,2020-06-05_16h20.28.080,TranslationElicitation_eng-prolific,3.2.4,Win32,60,5e2c9acdcd89c82c3a1321ae,,1,0,98,10,1,97
,,,,,,,,,,,,,,,,,,,,,,,,,,,,,,,,,,,,,,,,,a,2.200000048,BRA,FALSE,,,,,,,12,brazo,Spanish,Sounds/spa_brazo.mp3,2020-06-05_16h20.28.080,TranslationElicitation_eng-prolific,3.2.4,Win32,60,5e2c9acdcd89c82c3a1321ae,,1,0,98,10,1,97
,,,,,,,,,,,,,,,,,,,,,,,,,,,,,,,,,,,,,,,,,s,2.266000032,BRAS,FALSE,,,,,,,12,brazo,Spanish,Sounds/spa_brazo.mp3,2020-06-05_16h20.28.080,TranslationElicitation_eng-prolific,3.2.4,Win32,60,5e2c9acdcd89c82c3a1321ae,,1,0,98,10,1,97
,,,,,,,,,,,,,,,,,,,,,,,,,,,,,,,,,,,,,,,,,s,2.450000048,BRASS,FALSE,,,,,,,12,brazo,Spanish,Sounds/spa_brazo.mp3,2020-06-05_16h20.28.080,TranslationElicitation_eng-prolific,3.2.4,Win32,60,5e2c9acdcd89c82c3a1321ae,,1,0,98,10,1,97
,,,,,,,,,,,,,,,,,,,,,,,,,,,,,,,,,,,,,,,,,return,2.622999907,BRASS,FALSE,,,,,,,12,brazo,Spanish,Sounds/spa_brazo.mp3,2020-06-05_16h20.28.080,TranslationElicitation_eng-prolific,3.2.4,Win32,60,5e2c9acdcd89c82c3a1321ae,2.622999907,1,0,98,10,1,97
,,,,,,,,,,,,,,,,,,,,,,,,,,,,,,,,,,,,,,,,,,,,,,,,,,,12,brazo,Spanish,Sounds/spa_brazo.mp3,2020-06-05_16h20.28.080,TranslationElicitation_eng-prolific,3.2.4,Win32,60,5e2c9acdcd89c82c3a1321ae,,1,0,98,10,1,97
,,,,,,,,,,,,,,,,,,,,,,,,,,,,,,,,,,,,,,,,,p,7.032999992,P,FALSE,,,,,,,15,caballo,Spanish,Sounds/spa_caballo.mp3,2020-06-05_16h20.28.080,TranslationElicitation_eng-prolific,3.2.4,Win32,60,5e2c9acdcd89c82c3a1321ae,,1,0,98,13,1,97
,,,,,,,,,,,,,,,,,,,,,,,,,,,,,,,,,,,,,,,,,e,7.133000135,PE,FALSE,,,,,,,15,caballo,Spanish,Sounds/spa_caballo.mp3,2020-06-05_16h20.28.080,TranslationElicitation_eng-prolific,3.2.4,Win32,60,5e2c9acdcd89c82c3a1321ae,,1,0,98,13,1,97
,,,,,,,,,,,,,,,,,,,,,,,,,,,,,,,,,,,,,,,,,p,7.282999992,PEP,FALSE,,,,,,,15,caballo,Spanish,Sounds/spa_caballo.mp3,2020-06-05_16h20.28.080,TranslationElicitation_eng-prolific,3.2.4,Win32,60,5e2c9acdcd89c82c3a1321ae,,1,0,98,13,1,97
,,,,,,,,,,,,,,,,,,,,,,,,,,,,,,,,,,,,,,,,,p,7.433000088,PEPP,FALSE,,,,,,,15,caballo,Spanish,Sounds/spa_caballo.mp3,2020-06-05_16h20.28.080,TranslationElicitation_eng-prolific,3.2.4,Win32,60,5e2c9acdcd89c82c3a1321ae,,1,0,98,13,1,97
,,,,,,,,,,,,,,,,,,,,,,,,,,,,,,,,,,,,,,,,,e,7.48300004,PEPPE,FALSE,,,,,,,15,caballo,Spanish,Sounds/spa_caballo.mp3,2020-06-05_16h20.28.080,TranslationElicitation_eng-prolific,3.2.4,Win32,60,5e2c9acdcd89c82c3a1321ae,,1,0,98,13,1,97
,,,,,,,,,,,,,,,,,,,,,,,,,,,,,,,,,,,,,,,,,r,7.565999985,PEPPER,FALSE,,,,,,,15,caballo,Spanish,Sounds/spa_caballo.mp3,2020-06-05_16h20.28.080,TranslationElicitation_eng-prolific,3.2.4,Win32,60,5e2c9acdcd89c82c3a1321ae,,1,0,98,13,1,97
,,,,,,,,,,,,,,,,,,,,,,,,,,,,,,,,,,,,,,,,,return,7.848999977,PEPPER,FALSE,,,,,,,15,caballo,Spanish,Sounds/spa_caballo.mp3,2020-06-05_16h20.28.080,TranslationElicitation_eng-prolific,3.2.4,Win32,60,5e2c9acdcd89c82c3a1321ae,7.848999977,1,0,98,13,1,97
,,,,,,,,,,,,,,,,,,,,,,,,,,,,,,,,,,,,,,,,,,,,,,,,,,,15,caballo,Spanish,Sounds/spa_caballo.mp3,2020-06-05_16h20.28.080,TranslationElicitation_eng-prolific,3.2.4,Win32,60,5e2c9acdcd89c82c3a1321ae,,1,0,98,13,1,97
,,,,,,,,,,,,,,,,,,,,,,,,,,,,,,,,,,,,,,,,,o,3.68200016,O,FALSE,,,,,,,68,naranja,Spanish,Sounds/spa_naranja.mp3,2020-06-05_16h20.28.080,TranslationElicitation_eng-prolific,3.2.4,Win32,60,5e2c9acdcd89c82c3a1321ae,,1,0,98,64,1,97
,,,,,,,,,,,,,,,,,,,,,,,,,,,,,,,,,,,,,,,,,r,3.782000065,OR,FALSE,,,,,,,68,naranja,Spanish,Sounds/spa_naranja.mp3,2020-06-05_16h20.28.080,TranslationElicitation_eng-prolific,3.2.4,Win32,60,5e2c9acdcd89c82c3a1321ae,,1,0,98,64,1,97
,,,,,,,,,,,,,,,,,,,,,,,,,,,,,,,,,,,,,,,,,a,3.916000128,ORA,FALSE,,,,,,,68,naranja,Spanish,Sounds/spa_naranja.mp3,2020-06-05_16h20.28.080,TranslationElicitation_eng-prolific,3.2.4,Win32,60,5e2c9acdcd89c82c3a1321ae,,1,0,98,64,1,97
,,,,,,,,,,,,,,,,,,,,,,,,,,,,,,,,,,,,,,,,,n,4,ORAN,FALSE,,,,,,,68,naranja,Spanish,Sounds/spa_naranja.mp3,2020-06-05_16h20.28.080,TranslationElicitation_eng-prolific,3.2.4,Win32,60,5e2c9acdcd89c82c3a1321ae,,1,0,98,64,1,97
,,,,,,,,,,,,,,,,,,,,,,,,,,,,,,,,,,,,,,,,,g,4.098999977,ORANG,FALSE,,,,,,,68,naranja,Spanish,Sounds/spa_naranja.mp3,2020-06-05_16h20.28.080,TranslationElicitation_eng-prolific,3.2.4,Win32,60,5e2c9acdcd89c82c3a1321ae,,1,0,98,64,1,97
,,,,,,,,,,,,,,,,,,,,,,,,,,,,,,,,,,,,,,,,,e,4.19900012,ORANGE,FALSE,,,,,,,68,naranja,Spanish,Sounds/spa_naranja.mp3,2020-06-05_16h20.28.080,TranslationElicitation_eng-prolific,3.2.4,Win32,60,5e2c9acdcd89c82c3a1321ae,,1,0,98,64,1,97
,,,,,,,,,,,,,,,,,,,,,,,,,,,,,,,,,,,,,,,,,return,4.399000168,ORANGE,FALSE,,,,,,,68,naranja,Spanish,Sounds/spa_naranja.mp3,2020-06-05_16h20.28.080,TranslationElicitation_eng-prolific,3.2.4,Win32,60,5e2c9acdcd89c82c3a1321ae,4.399000168,1,0,98,64,1,97
,,,,,,,,,,,,,,,,,,,,,,,,,,,,,,,,,,,,,,,,,,,,,,,,,,,68,naranja,Spanish,Sounds/spa_naranja.mp3,2020-06-05_16h20.28.080,TranslationElicitation_eng-prolific,3.2.4,Win32,60,5e2c9acdcd89c82c3a1321ae,,1,0,98,64,1,97
,,,,,,,,,,,,,,,,,,,,,,,,,,,,,,,,,,,,,,,,,p,3.732999802,P,FALSE,,,,,,,22,cepillo,Spanish,Sounds/spa_cepillo.mp3,2020-06-05_16h20.28.080,TranslationElicitation_eng-prolific,3.2.4,Win32,60,5e2c9acdcd89c82c3a1321ae,,1,0,98,20,1,97
,,,,,,,,,,,,,,,,,,,,,,,,,,,,,,,,,,,,,,,,,e,3.815999985,PE,FALSE,,,,,,,22,cepillo,Spanish,Sounds/spa_cepillo.mp3,2020-06-05_16h20.28.080,TranslationElicitation_eng-prolific,3.2.4,Win32,60,5e2c9acdcd89c82c3a1321ae,,1,0,98,20,1,97
,,,,,,,,,,,,,,,,,,,,,,,,,,,,,,,,,,,,,,,,,n,3.983999968,PEN,FALSE,,,,,,,22,cepillo,Spanish,Sounds/spa_cepillo.mp3,2020-06-05_16h20.28.080,TranslationElicitation_eng-prolific,3.2.4,Win32,60,5e2c9acdcd89c82c3a1321ae,,1,0,98,20,1,97
,,,,,,,,,,,,,,,,,,,,,,,,,,,,,,,,,,,,,,,,,return,4.248999834,PEN,FALSE,,,,,,,22,cepillo,Spanish,Sounds/spa_cepillo.mp3,2020-06-05_16h20.28.080,TranslationElicitation_eng-prolific,3.2.4,Win32,60,5e2c9acdcd89c82c3a1321ae,4.248999834,1,0,98,20,1,97
,,,,,,,,,,,,,,,,,,,,,,,,,,,,,,,,,,,,,,,,,,,,,,,,,,,22,cepillo,Spanish,Sounds/spa_cepillo.mp3,2020-06-05_16h20.28.080,TranslationElicitation_eng-prolific,3.2.4,Win32,60,5e2c9acdcd89c82c3a1321ae,,1,0,98,20,1,97
,,,,,,,,,,,,,,,,,,,,,,,,,,,,,,,,,,,,,,,,,h,6.366000175,H,FALSE,,,,,,,83,pez,Spanish,Sounds/spa_pez.mp3,2020-06-05_16h20.28.080,TranslationElicitation_eng-prolific,3.2.4,Win32,60,5e2c9acdcd89c82c3a1321ae,,1,0,98,78,1,97
,,,,,,,,,,,,,,,,,,,,,,,,,,,,,,,,,,,,,,,,,o,6.516000032,HO,FALSE,,,,,,,83,pez,Spanish,Sounds/spa_pez.mp3,2020-06-05_16h20.28.080,TranslationElicitation_eng-prolific,3.2.4,Win32,60,5e2c9acdcd89c82c3a1321ae,,1,0,98,78,1,97
,,,,,,,,,,,,,,,,,,,,,,,,,,,,,,,,,,,,,,,,,u,6.583000183,HOU,FALSE,,,,,,,83,pez,Spanish,Sounds/spa_pez.mp3,2020-06-05_16h20.28.080,TranslationElicitation_eng-prolific,3.2.4,Win32,60,5e2c9acdcd89c82c3a1321ae,,1,0,98,78,1,97
,,,,,,,,,,,,,,,,,,,,,,,,,,,,,,,,,,,,,,,,,s,6.633000135,HOUS,FALSE,,,,,,,83,pez,Spanish,Sounds/spa_pez.mp3,2020-06-05_16h20.28.080,TranslationElicitation_eng-prolific,3.2.4,Win32,60,5e2c9acdcd89c82c3a1321ae,,1,0,98,78,1,97
,,,,,,,,,,,,,,,,,,,,,,,,,,,,,,,,,,,,,,,,,e,6.782999992,HOUSE,FALSE,,,,,,,83,pez,Spanish,Sounds/spa_pez.mp3,2020-06-05_16h20.28.080,TranslationElicitation_eng-prolific,3.2.4,Win32,60,5e2c9acdcd89c82c3a1321ae,,1,0,98,78,1,97
,,,,,,,,,,,,,,,,,,,,,,,,,,,,,,,,,,,,,,,,,backspace,7.249000072,HOUS,TRUE,,,,,,,83,pez,Spanish,Sounds/spa_pez.mp3,2020-06-05_16h20.28.080,TranslationElicitation_eng-prolific,3.2.4,Win32,60,5e2c9acdcd89c82c3a1321ae,,1,0,98,78,1,97
,,,,,,,,,,,,,,,,,,,,,,,,,,,,,,,,,,,,,,,,,backspace,7.416000128,HOU,TRUE,,,,,,,83,pez,Spanish,Sounds/spa_pez.mp3,2020-06-05_16h20.28.080,TranslationElicitation_eng-prolific,3.2.4,Win32,60,5e2c9acdcd89c82c3a1321ae,,1,0,98,78,1,97
,,,,,,,,,,,,,,,,,,,,,,,,,,,,,,,,,,,,,,,,,backspace,7.583000183,HO,TRUE,,,,,,,83,pez,Spanish,Sounds/spa_pez.mp3,2020-06-05_16h20.28.080,TranslationElicitation_eng-prolific,3.2.4,Win32,60,5e2c9acdcd89c82c3a1321ae,,1,0,98,78,1,97
,,,,,,,,,,,,,,,,,,,,,,,,,,,,,,,,,,,,,,,,,m,7.766000032,HOM,TRUE,,,,,,,83,pez,Spanish,Sounds/spa_pez.mp3,2020-06-05_16h20.28.080,TranslationElicitation_eng-prolific,3.2.4,Win32,60,5e2c9acdcd89c82c3a1321ae,,1,0,98,78,1,97
,,,,,,,,,,,,,,,,,,,,,,,,,,,,,,,,,,,,,,,,,e,7.899000168,HOME,TRUE,,,,,,,83,pez,Spanish,Sounds/spa_pez.mp3,2020-06-05_16h20.28.080,TranslationElicitation_eng-prolific,3.2.4,Win32,60,5e2c9acdcd89c82c3a1321ae,,1,0,98,78,1,97
,,,,,,,,,,,,,,,,,,,,,,,,,,,,,,,,,,,,,,,,,return,8.232000113,HOME,TRUE,,,,,,,83,pez,Spanish,Sounds/spa_pez.mp3,2020-06-05_16h20.28.080,TranslationElicitation_eng-prolific,3.2.4,Win32,60,5e2c9acdcd89c82c3a1321ae,8.232000113,1,0,98,78,1,97
,,,,,,,,,,,,,,,,,,,,,,,,,,,,,,,,,,,,,,,,,,,,,,,,,,,83,pez,Spanish,Sounds/spa_pez.mp3,2020-06-05_16h20.28.080,TranslationElicitation_eng-prolific,3.2.4,Win32,60,5e2c9acdcd89c82c3a1321ae,,1,0,98,78,1,97
,,,,,,,,,,,,,,,,,,,,,,,,,,,,,,,,,,,,,,,,,c,1.299999952,C,FALSE,,,,,,,27,chocolate,Spanish,Sounds/spa_chocolate.mp3,2020-06-05_16h20.28.080,TranslationElicitation_eng-prolific,3.2.4,Win32,60,5e2c9acdcd89c82c3a1321ae,,1,0,98,24,1,97
,,,,,,,,,,,,,,,,,,,,,,,,,,,,,,,,,,,,,,,,,h,1.399999857,CH,FALSE,,,,,,,27,chocolate,Spanish,Sounds/spa_chocolate.mp3,2020-06-05_16h20.28.080,TranslationElicitation_eng-prolific,3.2.4,Win32,60,5e2c9acdcd89c82c3a1321ae,,1,0,98,24,1,97
,,,,,,,,,,,,,,,,,,,,,,,,,,,,,,,,,,,,,,,,,o,1.48300004,CHO,FALSE,,,,,,,27,chocolate,Spanish,Sounds/spa_chocolate.mp3,2020-06-05_16h20.28.080,TranslationElicitation_eng-prolific,3.2.4,Win32,60,5e2c9acdcd89c82c3a1321ae,,1,0,98,24,1,97
,,,,,,,,,,,,,,,,,,,,,,,,,,,,,,,,,,,,,,,,,o,1.717000008,CHOO,FALSE,,,,,,,27,chocolate,Spanish,Sounds/spa_chocolate.mp3,2020-06-05_16h20.28.080,TranslationElicitation_eng-prolific,3.2.4,Win32,60,5e2c9acdcd89c82c3a1321ae,,1,0,98,24,1,97
,,,,,,,,,,,,,,,,,,,,,,,,,,,,,,,,,,,,,,,,,backspace,2.23300004,CHO,TRUE,,,,,,,27,chocolate,Spanish,Sounds/spa_chocolate.mp3,2020-06-05_16h20.28.080,TranslationElicitation_eng-prolific,3.2.4,Win32,60,5e2c9acdcd89c82c3a1321ae,,1,0,98,24,1,97
,,,,,,,,,,,,,,,,,,,,,,,,,,,,,,,,,,,,,,,,,c,2.382999897,CHOC,TRUE,,,,,,,27,chocolate,Spanish,Sounds/spa_chocolate.mp3,2020-06-05_16h20.28.080,TranslationElicitation_eng-prolific,3.2.4,Win32,60,5e2c9acdcd89c82c3a1321ae,,1,0,98,24,1,97
,,,,,,,,,,,,,,,,,,,,,,,,,,,,,,,,,,,,,,,,,o,2.5,CHOCO,TRUE,,,,,,,27,chocolate,Spanish,Sounds/spa_chocolate.mp3,2020-06-05_16h20.28.080,TranslationElicitation_eng-prolific,3.2.4,Win32,60,5e2c9acdcd89c82c3a1321ae,,1,0,98,24,1,97
,,,,,,,,,,,,,,,,,,,,,,,,,,,,,,,,,,,,,,,,,l,2.700000048,CHOCOL,TRUE,,,,,,,27,chocolate,Spanish,Sounds/spa_chocolate.mp3,2020-06-05_16h20.28.080,TranslationElicitation_eng-prolific,3.2.4,Win32,60,5e2c9acdcd89c82c3a1321ae,,1,0,98,24,1,97
,,,,,,,,,,,,,,,,,,,,,,,,,,,,,,,,,,,,,,,,,a,2.782999992,CHOCOLA,TRUE,,,,,,,27,chocolate,Spanish,Sounds/spa_chocolate.mp3,2020-06-05_16h20.28.080,TranslationElicitation_eng-prolific,3.2.4,Win32,60,5e2c9acdcd89c82c3a1321ae,,1,0,98,24,1,97
,,,,,,,,,,,,,,,,,,,,,,,,,,,,,,,,,,,,,,,,,t,2.932999849,CHOCOLAT,TRUE,,,,,,,27,chocolate,Spanish,Sounds/spa_chocolate.mp3,2020-06-05_16h20.28.080,TranslationElicitation_eng-prolific,3.2.4,Win32,60,5e2c9acdcd89c82c3a1321ae,,1,0,98,24,1,97
,,,,,,,,,,,,,,,,,,,,,,,,,,,,,,,,,,,,,,,,,e,3.01699996,CHOCOLATE,TRUE,,,,,,,27,chocolate,Spanish,Sounds/spa_chocolate.mp3,2020-06-05_16h20.28.080,TranslationElicitation_eng-prolific,3.2.4,Win32,60,5e2c9acdcd89c82c3a1321ae,,1,0,98,24,1,97
,,,,,,,,,,,,,,,,,,,,,,,,,,,,,,,,,,,,,,,,,return,3.215999842,CHOCOLATE,TRUE,,,,,,,27,chocolate,Spanish,Sounds/spa_chocolate.mp3,2020-06-05_16h20.28.080,TranslationElicitation_eng-prolific,3.2.4,Win32,60,5e2c9acdcd89c82c3a1321ae,3.215999842,1,0,98,24,1,97
,,,,,,,,,,,,,,,,,,,,,,,,,,,,,,,,,,,,,,,,,,,,,,,,,,,27,chocolate,Spanish,Sounds/spa_chocolate.mp3,2020-06-05_16h20.28.080,TranslationElicitation_eng-prolific,3.2.4,Win32,60,5e2c9acdcd89c82c3a1321ae,,1,0,98,24,1,97
,,,,,,,,,,,,,,,,,,,,,,,,,,,,,,,,,,,,,,,,,y,32.89499998,Y,FALSE,,,,,,,73,oveja,Spanish,Sounds/spa_oveja.mp3,2020-06-05_16h20.28.080,TranslationElicitation_eng-prolific,3.2.4,Win32,60,5e2c9acdcd89c82c3a1321ae,,1,0,98,68,1,97
,,,,,,,,,,,,,,,,,,,,,,,,,,,,,,,,,,,,,,,,,e,33.01199985,YE,FALSE,,,,,,,73,oveja,Spanish,Sounds/spa_oveja.mp3,2020-06-05_16h20.28.080,TranslationElicitation_eng-prolific,3.2.4,Win32,60,5e2c9acdcd89c82c3a1321ae,,1,0,98,68,1,97
,,,,,,,,,,,,,,,,,,,,,,,,,,,,,,,,,,,,,,,,,l,33.16199994,YEL,FALSE,,,,,,,73,oveja,Spanish,Sounds/spa_oveja.mp3,2020-06-05_16h20.28.080,TranslationElicitation_eng-prolific,3.2.4,Win32,60,5e2c9acdcd89c82c3a1321ae,,1,0,98,68,1,97
,,,,,,,,,,,,,,,,,,,,,,,,,,,,,,,,,,,,,,,,,l,33.31200004,YELL,FALSE,,,,,,,73,oveja,Spanish,Sounds/spa_oveja.mp3,2020-06-05_16h20.28.080,TranslationElicitation_eng-prolific,3.2.4,Win32,60,5e2c9acdcd89c82c3a1321ae,,1,0,98,68,1,97
,,,,,,,,,,,,,,,,,,,,,,,,,,,,,,,,,,,,,,,,,w,33.46199989,YELLW,FALSE,,,,,,,73,oveja,Spanish,Sounds/spa_oveja.mp3,2020-06-05_16h20.28.080,TranslationElicitation_eng-prolific,3.2.4,Win32,60,5e2c9acdcd89c82c3a1321ae,,1,0,98,68,1,97
,,,,,,,,,,,,,,,,,,,,,,,,,,,,,,,,,,,,,,,,,o,33.49499989,YELLWO,FALSE,,,,,,,73,oveja,Spanish,Sounds/spa_oveja.mp3,2020-06-05_16h20.28.080,TranslationElicitation_eng-prolific,3.2.4,Win32,60,5e2c9acdcd89c82c3a1321ae,,1,0,98,68,1,97
,,,,,,,,,,,,,,,,,,,,,,,,,,,,,,,,,,,,,,,,,backspace,33.77799988,YELLW,TRUE,,,,,,,73,oveja,Spanish,Sounds/spa_oveja.mp3,2020-06-05_16h20.28.080,TranslationElicitation_eng-prolific,3.2.4,Win32,60,5e2c9acdcd89c82c3a1321ae,,1,0,98,68,1,97
,,,,,,,,,,,,,,,,,,,,,,,,,,,,,,,,,,,,,,,,,backspace,33.94499993,YELL,TRUE,,,,,,,73,oveja,Spanish,Sounds/spa_oveja.mp3,2020-06-05_16h20.28.080,TranslationElicitation_eng-prolific,3.2.4,Win32,60,5e2c9acdcd89c82c3a1321ae,,1,0,98,68,1,97
,,,,,,,,,,,,,,,,,,,,,,,,,,,,,,,,,,,,,,,,,o,34.079,YELLO,TRUE,,,,,,,73,oveja,Spanish,Sounds/spa_oveja.mp3,2020-06-05_16h20.28.080,TranslationElicitation_eng-prolific,3.2.4,Win32,60,5e2c9acdcd89c82c3a1321ae,,1,0,98,68,1,97
,,,,,,,,,,,,,,,,,,,,,,,,,,,,,,,,,,,,,,,,,w,34.12800002,YELLOW,TRUE,,,,,,,73,oveja,Spanish,Sounds/spa_oveja.mp3,2020-06-05_16h20.28.080,TranslationElicitation_eng-prolific,3.2.4,Win32,60,5e2c9acdcd89c82c3a1321ae,,1,0,98,68,1,97
,,,,,,,,,,,,,,,,,,,,,,,,,,,,,,,,,,,,,,,,,return,34.34500003,YELLOW,TRUE,,,,,,,73,oveja,Spanish,Sounds/spa_oveja.mp3,2020-06-05_16h20.28.080,TranslationElicitation_eng-prolific,3.2.4,Win32,60,5e2c9acdcd89c82c3a1321ae,34.34500003,1,0,98,68,1,97
,,,,,,,,,,,,,,,,,,,,,,,,,,,,,,,,,,,,,,,,,,,,,,,,,,,73,oveja,Spanish,Sounds/spa_oveja.mp3,2020-06-05_16h20.28.080,TranslationElicitation_eng-prolific,3.2.4,Win32,60,5e2c9acdcd89c82c3a1321ae,,1,0,98,68,1,97
,,,,,,,,,,,,,,,,,,,,,,,,,,,,,,,,,,,,,,,,,z,2.016000032,Z,FALSE,,,,,,,21,cebra,Spanish,Sounds/spa_cebra.mp3,2020-06-05_16h20.28.080,TranslationElicitation_eng-prolific,3.2.4,Win32,60,5e2c9acdcd89c82c3a1321ae,,1,0,98,19,1,97
,,,,,,,,,,,,,,,,,,,,,,,,,,,,,,,,,,,,,,,,,e,2.182999849,ZE,FALSE,,,,,,,21,cebra,Spanish,Sounds/spa_cebra.mp3,2020-06-05_16h20.28.080,TranslationElicitation_eng-prolific,3.2.4,Win32,60,5e2c9acdcd89c82c3a1321ae,,1,0,98,19,1,97
,,,,,,,,,,,,,,,,,,,,,,,,,,,,,,,,,,,,,,,,,r,2.299999952,ZER,FALSE,,,,,,,21,cebra,Spanish,Sounds/spa_cebra.mp3,2020-06-05_16h20.28.080,TranslationElicitation_eng-prolific,3.2.4,Win32,60,5e2c9acdcd89c82c3a1321ae,,1,0,98,19,1,97
,,,,,,,,,,,,,,,,,,,,,,,,,,,,,,,,,,,,,,,,,b,2.383999825,ZERB,FALSE,,,,,,,21,cebra,Spanish,Sounds/spa_cebra.mp3,2020-06-05_16h20.28.080,TranslationElicitation_eng-prolific,3.2.4,Win32,60,5e2c9acdcd89c82c3a1321ae,,1,0,98,19,1,97
,,,,,,,,,,,,,,,,,,,,,,,,,,,,,,,,,,,,,,,,,backspace,2.73300004,ZER,TRUE,,,,,,,21,cebra,Spanish,Sounds/spa_cebra.mp3,2020-06-05_16h20.28.080,TranslationElicitation_eng-prolific,3.2.4,Win32,60,5e2c9acdcd89c82c3a1321ae,,1,0,98,19,1,97
,,,,,,,,,,,,,,,,,,,,,,,,,,,,,,,,,,,,,,,,,backspace,2.882999897,ZE,TRUE,,,,,,,21,cebra,Spanish,Sounds/spa_cebra.mp3,2020-06-05_16h20.28.080,TranslationElicitation_eng-prolific,3.2.4,Win32,60,5e2c9acdcd89c82c3a1321ae,,1,0,98,19,1,97
,,,,,,,,,,,,,,,,,,,,,,,,,,,,,,,,,,,,,,,,,b,3.085000038,ZEB,TRUE,,,,,,,21,cebra,Spanish,Sounds/spa_cebra.mp3,2020-06-05_16h20.28.080,TranslationElicitation_eng-prolific,3.2.4,Win32,60,5e2c9acdcd89c82c3a1321ae,,1,0,98,19,1,97
,,,,,,,,,,,,,,,,,,,,,,,,,,,,,,,,,,,,,,,,,r,3.145999908,ZEBR,TRUE,,,,,,,21,cebra,Spanish,Sounds/spa_cebra.mp3,2020-06-05_16h20.28.080,TranslationElicitation_eng-prolific,3.2.4,Win32,60,5e2c9acdcd89c82c3a1321ae,,1,0,98,19,1,97
,,,,,,,,,,,,,,,,,,,,,,,,,,,,,,,,,,,,,,,,,a,3.25,ZEBRA,TRUE,,,,,,,21,cebra,Spanish,Sounds/spa_cebra.mp3,2020-06-05_16h20.28.080,TranslationElicitation_eng-prolific,3.2.4,Win32,60,5e2c9acdcd89c82c3a1321ae,,1,0,98,19,1,97
,,,,,,,,,,,,,,,,,,,,,,,,,,,,,,,,,,,,,,,,,return,3.432999849,ZEBRA,TRUE,,,,,,,21,cebra,Spanish,Sounds/spa_cebra.mp3,2020-06-05_16h20.28.080,TranslationElicitation_eng-prolific,3.2.4,Win32,60,5e2c9acdcd89c82c3a1321ae,3.432999849,1,0,98,19,1,97
,,,,,,,,,,,,,,,,,,,,,,,,,,,,,,,,,,,,,,,,,,,,,,,,,,,21,cebra,Spanish,Sounds/spa_cebra.mp3,2020-06-05_16h20.28.080,TranslationElicitation_eng-prolific,3.2.4,Win32,60,5e2c9acdcd89c82c3a1321ae,,1,0,98,19,1,97
,,,,,,,,,,,,,,,,,,,,,,,,,,,,,,,,,,,,,,,,,p,3.700000048,P,FALSE,,,,,,,76,panal,Spanish,Sounds/spa_panal.mp3,2020-06-05_16h20.28.080,TranslationElicitation_eng-prolific,3.2.4,Win32,60,5e2c9acdcd89c82c3a1321ae,,1,0,98,71,1,97
,,,,,,,,,,,,,,,,,,,,,,,,,,,,,,,,,,,,,,,,,a,3.866000175,PA,FALSE,,,,,,,76,panal,Spanish,Sounds/spa_panal.mp3,2020-06-05_16h20.28.080,TranslationElicitation_eng-prolific,3.2.4,Win32,60,5e2c9acdcd89c82c3a1321ae,,1,0,98,71,1,97
,,,,,,,,,,,,,,,,,,,,,,,,,,,,,,,,,,,,,,,,,n,3.98300004,PAN,FALSE,,,,,,,76,panal,Spanish,Sounds/spa_panal.mp3,2020-06-05_16h20.28.080,TranslationElicitation_eng-prolific,3.2.4,Win32,60,5e2c9acdcd89c82c3a1321ae,,1,0,98,71,1,97
,,,,,,,,,,,,,,,,,,,,,,,,,,,,,,,,,,,,,,,,,c,4.116000175,PANC,FALSE,,,,,,,76,panal,Spanish,Sounds/spa_panal.mp3,2020-06-05_16h20.28.080,TranslationElicitation_eng-prolific,3.2.4,Win32,60,5e2c9acdcd89c82c3a1321ae,,1,0,98,71,1,97
,,,,,,,,,,,,,,,,,,,,,,,,,,,,,,,,,,,,,,,,,a,4.282999992,PANCA,FALSE,,,,,,,76,panal,Spanish,Sounds/spa_panal.mp3,2020-06-05_16h20.28.080,TranslationElicitation_eng-prolific,3.2.4,Win32,60,5e2c9acdcd89c82c3a1321ae,,1,0,98,71,1,97
,,,,,,,,,,,,,,,,,,,,,,,,,,,,,,,,,,,,,,,,,k,4.350000143,PANCAK,FALSE,,,,,,,76,panal,Spanish,Sounds/spa_panal.mp3,2020-06-05_16h20.28.080,TranslationElicitation_eng-prolific,3.2.4,Win32,60,5e2c9acdcd89c82c3a1321ae,,1,0,98,71,1,97
,,,,,,,,,,,,,,,,,,,,,,,,,,,,,,,,,,,,,,,,,e,4.450000048,PANCAKE,FALSE,,,,,,,76,panal,Spanish,Sounds/spa_panal.mp3,2020-06-05_16h20.28.080,TranslationElicitation_eng-prolific,3.2.4,Win32,60,5e2c9acdcd89c82c3a1321ae,,1,0,98,71,1,97
,,,,,,,,,,,,,,,,,,,,,,,,,,,,,,,,,,,,,,,,,return,4.633000135,PANCAKE,FALSE,,,,,,,76,panal,Spanish,Sounds/spa_panal.mp3,2020-06-05_16h20.28.080,TranslationElicitation_eng-prolific,3.2.4,Win32,60,5e2c9acdcd89c82c3a1321ae,4.633000135,1,0,98,71,1,97
,,,,,,,,,,,,,,,,,,,,,,,,,,,,,,,,,,,,,,,,,,,,,,,,,,,76,panal,Spanish,Sounds/spa_panal.mp3,2020-06-05_16h20.28.080,TranslationElicitation_eng-prolific,3.2.4,Win32,60,5e2c9acdcd89c82c3a1321ae,,1,0,98,71,1,97
,,,,,,,,,,,,,,,,,,,,,,,,,,,,,,,,,,,,,,,,,m,1.349999905,M,FALSE,,,,,,,67,muneca,Spanish,Sounds/spa_muneca.mp3,2020-06-05_16h20.28.080,TranslationElicitation_eng-prolific,3.2.4,Win32,60,5e2c9acdcd89c82c3a1321ae,,1,0,98,63,1,97
,,,,,,,,,,,,,,,,,,,,,,,,,,,,,,,,,,,,,,,,,o,1.632999897,MO,FALSE,,,,,,,67,muneca,Spanish,Sounds/spa_muneca.mp3,2020-06-05_16h20.28.080,TranslationElicitation_eng-prolific,3.2.4,Win32,60,5e2c9acdcd89c82c3a1321ae,,1,0,98,63,1,97
,,,,,,,,,,,,,,,,,,,,,,,,,,,,,,,,,,,,,,,,,o,1.799999952,MOO,FALSE,,,,,,,67,muneca,Spanish,Sounds/spa_muneca.mp3,2020-06-05_16h20.28.080,TranslationElicitation_eng-prolific,3.2.4,Win32,60,5e2c9acdcd89c82c3a1321ae,,1,0,98,63,1,97
,,,,,,,,,,,,,,,,,,,,,,,,,,,,,,,,,,,,,,,,,n,1.865999937,MOON,FALSE,,,,,,,67,muneca,Spanish,Sounds/spa_muneca.mp3,2020-06-05_16h20.28.080,TranslationElicitation_eng-prolific,3.2.4,Win32,60,5e2c9acdcd89c82c3a1321ae,,1,0,98,63,1,97
,,,,,,,,,,,,,,,,,,,,,,,,,,,,,,,,,,,,,,,,,return,2.149999857,MOON,FALSE,,,,,,,67,muneca,Spanish,Sounds/spa_muneca.mp3,2020-06-05_16h20.28.080,TranslationElicitation_eng-prolific,3.2.4,Win32,60,5e2c9acdcd89c82c3a1321ae,2.149999857,1,0,98,63,1,97
,,,,,,,,,,,,,,,,,,,,,,,,,,,,,,,,,,,,,,,,,,,,,,,,,,,67,muneca,Spanish,Sounds/spa_muneca.mp3,2020-06-05_16h20.28.080,TranslationElicitation_eng-prolific,3.2.4,Win32,60,5e2c9acdcd89c82c3a1321ae,,1,0,98,63,1,97
,,,,,,,,,,,,,,,,,,,,,,,,,,,,,,,,,,,,,,,,,s,9.032000065,S,FALSE,,,,,,,101,tren,Spanish,Sounds/spa_tren.mp3,2020-06-05_16h20.28.080,TranslationElicitation_eng-prolific,3.2.4,Win32,60,5e2c9acdcd89c82c3a1321ae,,1,0,98,95,1,97
,,,,,,,,,,,,,,,,,,,,,,,,,,,,,,,,,,,,,,,,,o,9.116000175,SO,FALSE,,,,,,,101,tren,Spanish,Sounds/spa_tren.mp3,2020-06-05_16h20.28.080,TranslationElicitation_eng-prolific,3.2.4,Win32,60,5e2c9acdcd89c82c3a1321ae,,1,0,98,95,1,97
,,,,,,,,,,,,,,,,,,,,,,,,,,,,,,,,,,,,,,,,,u,9.232000113,SOU,FALSE,,,,,,,101,tren,Spanish,Sounds/spa_tren.mp3,2020-06-05_16h20.28.080,TranslationElicitation_eng-prolific,3.2.4,Win32,60,5e2c9acdcd89c82c3a1321ae,,1,0,98,95,1,97
,,,,,,,,,,,,,,,,,,,,,,,,,,,,,,,,,,,,,,,,,n,9.43200016,SOUN,FALSE,,,,,,,101,tren,Spanish,Sounds/spa_tren.mp3,2020-06-05_16h20.28.080,TranslationElicitation_eng-prolific,3.2.4,Win32,60,5e2c9acdcd89c82c3a1321ae,,1,0,98,95,1,97
,,,,,,,,,,,,,,,,,,,,,,,,,,,,,,,,,,,,,,,,,d,9.515000105,SOUND,FALSE,,,,,,,101,tren,Spanish,Sounds/spa_tren.mp3,2020-06-05_16h20.28.080,TranslationElicitation_eng-prolific,3.2.4,Win32,60,5e2c9acdcd89c82c3a1321ae,,1,0,98,95,1,97
,,,,,,,,,,,,,,,,,,,,,,,,,,,,,,,,,,,,,,,,,return,9.715000153,SOUND,FALSE,,,,,,,101,tren,Spanish,Sounds/spa_tren.mp3,2020-06-05_16h20.28.080,TranslationElicitation_eng-prolific,3.2.4,Win32,60,5e2c9acdcd89c82c3a1321ae,9.715000153,1,0,98,95,1,97
,,,,,,,,,,,,,,,,,,,,,,,,,,,,,,,,,,,,,,,,,,,,,,,,,,,101,tren,Spanish,Sounds/spa_tren.mp3,2020-06-05_16h20.28.080,TranslationElicitation_eng-prolific,3.2.4,Win32,60,5e2c9acdcd89c82c3a1321ae,,1,0,98,95,1,97
,,,,,,,,,,,,,,,,,,,,,,,,,,,,,,,,,,,,,,,,,c,1.532000065,C,FALSE,,,,,,,16,caja,Spanish,Sounds/spa_caja.mp3,2020-06-05_16h20.28.080,TranslationElicitation_eng-prolific,3.2.4,Win32,60,5e2c9acdcd89c82c3a1321ae,,1,0,98,14,1,97
,,,,,,,,,,,,,,,,,,,,,,,,,,,,,,,,,,,,,,,,,a,1.86500001,CA,FALSE,,,,,,,16,caja,Spanish,Sounds/spa_caja.mp3,2020-06-05_16h20.28.080,TranslationElicitation_eng-prolific,3.2.4,Win32,60,5e2c9acdcd89c82c3a1321ae,,1,0,98,14,1,97
,,,,,,,,,,,,,,,,,,,,,,,,,,,,,,,,,,,,,,,,,r,1.96600008,CAR,FALSE,,,,,,,16,caja,Spanish,Sounds/spa_caja.mp3,2020-06-05_16h20.28.080,TranslationElicitation_eng-prolific,3.2.4,Win32,60,5e2c9acdcd89c82c3a1321ae,,1,0,98,14,1,97
,,,,,,,,,,,,,,,,,,,,,,,,,,,,,,,,,,,,,,,,,return,2.198999882,CAR,FALSE,,,,,,,16,caja,Spanish,Sounds/spa_caja.mp3,2020-06-05_16h20.28.080,TranslationElicitation_eng-prolific,3.2.4,Win32,60,5e2c9acdcd89c82c3a1321ae,2.198999882,1,0,98,14,1,97
,,,,,,,,,,,,,,,,,,,,,,,,,,,,,,,,,,,,,,,,,,,,,,,,,,,16,caja,Spanish,Sounds/spa_caja.mp3,2020-06-05_16h20.28.080,TranslationElicitation_eng-prolific,3.2.4,Win32,60,5e2c9acdcd89c82c3a1321ae,,1,0,98,14,1,97
,,,,,,,,,,,,,,,,,,,,,,,,,,,,,,,,,,,,,,,,,b,4.649000168,B,FALSE,,,,,,,5,bici,Spanish,Sounds/spa_bici.mp3,2020-06-05_16h20.28.080,TranslationElicitation_eng-prolific,3.2.4,Win32,60,5e2c9acdcd89c82c3a1321ae,,1,0,98,3,1,97
,,,,,,,,,,,,,,,,,,,,,,,,,,,,,,,,,,,,,,,,,a,4.767000198,BA,FALSE,,,,,,,5,bici,Spanish,Sounds/spa_bici.mp3,2020-06-05_16h20.28.080,TranslationElicitation_eng-prolific,3.2.4,Win32,60,5e2c9acdcd89c82c3a1321ae,,1,0,98,3,1,97
,,,,,,,,,,,,,,,,,,,,,,,,,,,,,,,,,,,,,,,,,b,4.882000208,BAB,FALSE,,,,,,,5,bici,Spanish,Sounds/spa_bici.mp3,2020-06-05_16h20.28.080,TranslationElicitation_eng-prolific,3.2.4,Win32,60,5e2c9acdcd89c82c3a1321ae,,1,0,98,3,1,97
,,,,,,,,,,,,,,,,,,,,,,,,,,,,,,,,,,,,,,,,,y,4.917000055,BABY,FALSE,,,,,,,5,bici,Spanish,Sounds/spa_bici.mp3,2020-06-05_16h20.28.080,TranslationElicitation_eng-prolific,3.2.4,Win32,60,5e2c9acdcd89c82c3a1321ae,,1,0,98,3,1,97
,,,,,,,,,,,,,,,,,,,,,,,,,,,,,,,,,,,,,,,,,return,5.265000105,BABY,FALSE,,,,,,,5,bici,Spanish,Sounds/spa_bici.mp3,2020-06-05_16h20.28.080,TranslationElicitation_eng-prolific,3.2.4,Win32,60,5e2c9acdcd89c82c3a1321ae,5.265000105,1,0,98,3,1,97
,,,,,,,,,,,,,,,,,,,,,,,,,,,,,,,,,,,,,,,,,,,,,,,,,,,5,bici,Spanish,Sounds/spa_bici.mp3,2020-06-05_16h20.28.080,TranslationElicitation_eng-prolific,3.2.4,Win32,60,5e2c9acdcd89c82c3a1321ae,,1,0,98,3,1,97
,,,,,,,,,,,,,,,,,,,,,,,,,,,,,,,,,,,,,,,,,t,2.73300004,T,FALSE,,,,,,,23,cerdo,Spanish,Sounds/spa_cerdo.mp3,2020-06-05_16h20.28.080,TranslationElicitation_eng-prolific,3.2.4,Win32,60,5e2c9acdcd89c82c3a1321ae,,1,0,98,21,1,97
,,,,,,,,,,,,,,,,,,,,,,,,,,,,,,,,,,,,,,,,,h,2.782999992,TH,FALSE,,,,,,,23,cerdo,Spanish,Sounds/spa_cerdo.mp3,2020-06-05_16h20.28.080,TranslationElicitation_eng-prolific,3.2.4,Win32,60,5e2c9acdcd89c82c3a1321ae,,1,0,98,21,1,97
,,,,,,,,,,,,,,,,,,,,,,,,,,,,,,,,,,,,,,,,,r,2.96600008,THR,FALSE,,,,,,,23,cerdo,Spanish,Sounds/spa_cerdo.mp3,2020-06-05_16h20.28.080,TranslationElicitation_eng-prolific,3.2.4,Win32,60,5e2c9acdcd89c82c3a1321ae,,1,0,98,21,1,97
,,,,,,,,,,,,,,,,,,,,,,,,,,,,,,,,,,,,,,,,,backspace,3.299999952,TH,TRUE,,,,,,,23,cerdo,Spanish,Sounds/spa_cerdo.mp3,2020-06-05_16h20.28.080,TranslationElicitation_eng-prolific,3.2.4,Win32,60,5e2c9acdcd89c82c3a1321ae,,1,0,98,21,1,97
,,,,,,,,,,,,,,,,,,,,,,,,,,,,,,,,,,,,,,,,,i,3.46600008,THI,TRUE,,,,,,,23,cerdo,Spanish,Sounds/spa_cerdo.mp3,2020-06-05_16h20.28.080,TranslationElicitation_eng-prolific,3.2.4,Win32,60,5e2c9acdcd89c82c3a1321ae,,1,0,98,21,1,97
,,,,,,,,,,,,,,,,,,,,,,,,,,,,,,,,,,,,,,,,,r,3.51699996,THIR,TRUE,,,,,,,23,cerdo,Spanish,Sounds/spa_cerdo.mp3,2020-06-05_16h20.28.080,TranslationElicitation_eng-prolific,3.2.4,Win32,60,5e2c9acdcd89c82c3a1321ae,,1,0,98,21,1,97
,,,,,,,,,,,,,,,,,,,,,,,,,,,,,,,,,,,,,,,,,t,3.700000048,THIRT,TRUE,,,,,,,23,cerdo,Spanish,Sounds/spa_cerdo.mp3,2020-06-05_16h20.28.080,TranslationElicitation_eng-prolific,3.2.4,Win32,60,5e2c9acdcd89c82c3a1321ae,,1,0,98,21,1,97
,,,,,,,,,,,,,,,,,,,,,,,,,,,,,,,,,,,,,,,,,e,3.815999985,THIRTE,TRUE,,,,,,,23,cerdo,Spanish,Sounds/spa_cerdo.mp3,2020-06-05_16h20.28.080,TranslationElicitation_eng-prolific,3.2.4,Win32,60,5e2c9acdcd89c82c3a1321ae,,1,0,98,21,1,97
,,,,,,,,,,,,,,,,,,,,,,,,,,,,,,,,,,,,,,,,,e,3.98300004,THIRTEE,TRUE,,,,,,,23,cerdo,Spanish,Sounds/spa_cerdo.mp3,2020-06-05_16h20.28.080,TranslationElicitation_eng-prolific,3.2.4,Win32,60,5e2c9acdcd89c82c3a1321ae,,1,0,98,21,1,97
,,,,,,,,,,,,,,,,,,,,,,,,,,,,,,,,,,,,,,,,,n,4.049999952,THIRTEEN,TRUE,,,,,,,23,cerdo,Spanish,Sounds/spa_cerdo.mp3,2020-06-05_16h20.28.080,TranslationElicitation_eng-prolific,3.2.4,Win32,60,5e2c9acdcd89c82c3a1321ae,,1,0,98,21,1,97
,,,,,,,,,,,,,,,,,,,,,,,,,,,,,,,,,,,,,,,,,return,4.332999945,THIRTEEN,TRUE,,,,,,,23,cerdo,Spanish,Sounds/spa_cerdo.mp3,2020-06-05_16h20.28.080,TranslationElicitation_eng-prolific,3.2.4,Win32,60,5e2c9acdcd89c82c3a1321ae,4.332999945,1,0,98,21,1,97
,,,,,,,,,,,,,,,,,,,,,,,,,,,,,,,,,,,,,,,,,,,,,,,,,,,23,cerdo,Spanish,Sounds/spa_cerdo.mp3,2020-06-05_16h20.28.080,TranslationElicitation_eng-prolific,3.2.4,Win32,60,5e2c9acdcd89c82c3a1321ae,,1,0,98,21,1,97
,,,,,,,,,,,,,,,,,,,,,,,,,,,,,,,,,,,,,,,,,s,4.315999985,S,FALSE,,,,,,,40,galleta,Spanish,Sounds/spa_galleta.mp3,2020-06-05_16h20.28.080,TranslationElicitation_eng-prolific,3.2.4,Win32,60,5e2c9acdcd89c82c3a1321ae,,1,0,98,36,1,97
,,,,,,,,,,,,,,,,,,,,,,,,,,,,,,,,,,,,,,,,,w,4.416000128,SW,FALSE,,,,,,,40,galleta,Spanish,Sounds/spa_galleta.mp3,2020-06-05_16h20.28.080,TranslationElicitation_eng-prolific,3.2.4,Win32,60,5e2c9acdcd89c82c3a1321ae,,1,0,98,36,1,97
,,,,,,,,,,,,,,,,,,,,,,,,,,,,,,,,,,,,,,,,,i,4.516000032,SWI,FALSE,,,,,,,40,galleta,Spanish,Sounds/spa_galleta.mp3,2020-06-05_16h20.28.080,TranslationElicitation_eng-prolific,3.2.4,Win32,60,5e2c9acdcd89c82c3a1321ae,,1,0,98,36,1,97
,,,,,,,,,,,,,,,,,,,,,,,,,,,,,,,,,,,,,,,,,m,4.616000175,SWIM,FALSE,,,,,,,40,galleta,Spanish,Sounds/spa_galleta.mp3,2020-06-05_16h20.28.080,TranslationElicitation_eng-prolific,3.2.4,Win32,60,5e2c9acdcd89c82c3a1321ae,,1,0,98,36,1,97
,,,,,,,,,,,,,,,,,,,,,,,,,,,,,,,,,,,,,,,,,m,4.815999985,SWIMM,FALSE,,,,,,,40,galleta,Spanish,Sounds/spa_galleta.mp3,2020-06-05_16h20.28.080,TranslationElicitation_eng-prolific,3.2.4,Win32,60,5e2c9acdcd89c82c3a1321ae,,1,0,98,36,1,97
,,,,,,,,,,,,,,,,,,,,,,,,,,,,,,,,,,,,,,,,,i,4.933000088,SWIMMI,FALSE,,,,,,,40,galleta,Spanish,Sounds/spa_galleta.mp3,2020-06-05_16h20.28.080,TranslationElicitation_eng-prolific,3.2.4,Win32,60,5e2c9acdcd89c82c3a1321ae,,1,0,98,36,1,97
,,,,,,,,,,,,,,,,,,,,,,,,,,,,,,,,,,,,,,,,,n,5.032999992,SWIMMIN,FALSE,,,,,,,40,galleta,Spanish,Sounds/spa_galleta.mp3,2020-06-05_16h20.28.080,TranslationElicitation_eng-prolific,3.2.4,Win32,60,5e2c9acdcd89c82c3a1321ae,,1,0,98,36,1,97
,,,,,,,,,,,,,,,,,,,,,,,,,,,,,,,,,,,,,,,,,g,5.151000023,SWIMMING,FALSE,,,,,,,40,galleta,Spanish,Sounds/spa_galleta.mp3,2020-06-05_16h20.28.080,TranslationElicitation_eng-prolific,3.2.4,Win32,60,5e2c9acdcd89c82c3a1321ae,,1,0,98,36,1,97
,,,,,,,,,,,,,,,,,,,,,,,,,,,,,,,,,,,,,,,,,return,5.333000183,SWIMMING,FALSE,,,,,,,40,galleta,Spanish,Sounds/spa_galleta.mp3,2020-06-05_16h20.28.080,TranslationElicitation_eng-prolific,3.2.4,Win32,60,5e2c9acdcd89c82c3a1321ae,5.333000183,1,0,98,36,1,97
,,,,,,,,,,,,,,,,,,,,,,,,,,,,,,,,,,,,,,,,,,,,,,,,,,,40,galleta,Spanish,Sounds/spa_galleta.mp3,2020-06-05_16h20.28.080,TranslationElicitation_eng-prolific,3.2.4,Win32,60,5e2c9acdcd89c82c3a1321ae,,1,0,98,36,1,97
,,,,,,,,,,,,,,,,,,,,,,,,,,,,,,,,,,,,,,,,,l,6.093999863,L,FALSE,,,,,,,52,lapiz,Spanish,Sounds/spa_lapiz.mp3,2020-06-05_16h20.28.080,TranslationElicitation_eng-prolific,3.2.4,Win32,60,5e2c9acdcd89c82c3a1321ae,,1,0,98,48,1,97
,,,,,,,,,,,,,,,,,,,,,,,,,,,,,,,,,,,,,,,,,a,6.231999874,LA,FALSE,,,,,,,52,lapiz,Spanish,Sounds/spa_lapiz.mp3,2020-06-05_16h20.28.080,TranslationElicitation_eng-prolific,3.2.4,Win32,60,5e2c9acdcd89c82c3a1321ae,,1,0,98,48,1,97
,,,,,,,,,,,,,,,,,,,,,,,,,,,,,,,,,,,,,,,,,p,6.298999786,LAP,FALSE,,,,,,,52,lapiz,Spanish,Sounds/spa_lapiz.mp3,2020-06-05_16h20.28.080,TranslationElicitation_eng-prolific,3.2.4,Win32,60,5e2c9acdcd89c82c3a1321ae,,1,0,98,48,1,97
,,,,,,,,,,,,,,,,,,,,,,,,,,,,,,,,,,,,,,,,,i,6.481999874,LAPI,FALSE,,,,,,,52,lapiz,Spanish,Sounds/spa_lapiz.mp3,2020-06-05_16h20.28.080,TranslationElicitation_eng-prolific,3.2.4,Win32,60,5e2c9acdcd89c82c3a1321ae,,1,0,98,48,1,97
,,,,,,,,,,,,,,,,,,,,,,,,,,,,,,,,,,,,,,,,,z,6.514999866,LAPIZ,FALSE,,,,,,,52,lapiz,Spanish,Sounds/spa_lapiz.mp3,2020-06-05_16h20.28.080,TranslationElicitation_eng-prolific,3.2.4,Win32,60,5e2c9acdcd89c82c3a1321ae,,1,0,98,48,1,97
,,,,,,,,,,,,,,,,,,,,,,,,,,,,,,,,,,,,,,,,,backspace,7.181999922,LAPI,TRUE,,,,,,,52,lapiz,Spanish,Sounds/spa_lapiz.mp3,2020-06-05_16h20.28.080,TranslationElicitation_eng-prolific,3.2.4,Win32,60,5e2c9acdcd89c82c3a1321ae,,1,0,98,48,1,97
,,,,,,,,,,,,,,,,,,,,,,,,,,,,,,,,,,,,,,,,,s,7.414999962,LAPIS,TRUE,,,,,,,52,lapiz,Spanish,Sounds/spa_lapiz.mp3,2020-06-05_16h20.28.080,TranslationElicitation_eng-prolific,3.2.4,Win32,60,5e2c9acdcd89c82c3a1321ae,,1,0,98,48,1,97
,,,,,,,,,,,,,,,,,,,,,,,,,,,,,,,,,,,,,,,,,backspace,8.464999914,LAPI,TRUE,,,,,,,52,lapiz,Spanish,Sounds/spa_lapiz.mp3,2020-06-05_16h20.28.080,TranslationElicitation_eng-prolific,3.2.4,Win32,60,5e2c9acdcd89c82c3a1321ae,,1,0,98,48,1,97
,,,,,,,,,,,,,,,,,,,,,,,,,,,,,,,,,,,,,,,,,backspace,8.714999914,LAP,TRUE,,,,,,,52,lapiz,Spanish,Sounds/spa_lapiz.mp3,2020-06-05_16h20.28.080,TranslationElicitation_eng-prolific,3.2.4,Win32,60,5e2c9acdcd89c82c3a1321ae,,1,0,98,48,1,97
,,,,,,,,,,,,,,,,,,,,,,,,,,,,,,,,,,,,,,,,,backspace,8.881999969,LA,TRUE,,,,,,,52,lapiz,Spanish,Sounds/spa_lapiz.mp3,2020-06-05_16h20.28.080,TranslationElicitation_eng-prolific,3.2.4,Win32,60,5e2c9acdcd89c82c3a1321ae,,1,0,98,48,1,97
,,,,,,,,,,,,,,,,,,,,,,,,,,,,,,,,,,,,,,,,,backspace,9.047999859,L,TRUE,,,,,,,52,lapiz,Spanish,Sounds/spa_lapiz.mp3,2020-06-05_16h20.28.080,TranslationElicitation_eng-prolific,3.2.4,Win32,60,5e2c9acdcd89c82c3a1321ae,,1,0,98,48,1,97
,,,,,,,,,,,,,,,,,,,,,,,,,,,,,,,,,,,,,,,,,backspace,9.197999954,,TRUE,,,,,,,52,lapiz,Spanish,Sounds/spa_lapiz.mp3,2020-06-05_16h20.28.080,TranslationElicitation_eng-prolific,3.2.4,Win32,60,5e2c9acdcd89c82c3a1321ae,,1,0,98,48,1,97
,,,,,,,,,,,,,,,,,,,,,,,,,,,,,,,,,,,,,,,,,g,12.93099999,G,TRUE,,,,,,,52,lapiz,Spanish,Sounds/spa_lapiz.mp3,2020-06-05_16h20.28.080,TranslationElicitation_eng-prolific,3.2.4,Win32,60,5e2c9acdcd89c82c3a1321ae,,1,0,98,48,1,97
,,,,,,,,,,,,,,,,,,,,,,,,,,,,,,,,,,,,,,,,,e,13.0309999,GE,TRUE,,,,,,,52,lapiz,Spanish,Sounds/spa_lapiz.mp3,2020-06-05_16h20.28.080,TranslationElicitation_eng-prolific,3.2.4,Win32,60,5e2c9acdcd89c82c3a1321ae,,1,0,98,48,1,97
,,,,,,,,,,,,,,,,,,,,,,,,,,,,,,,,,,,,,,,,,m,13.148,GEM,TRUE,,,,,,,52,lapiz,Spanish,Sounds/spa_lapiz.mp3,2020-06-05_16h20.28.080,TranslationElicitation_eng-prolific,3.2.4,Win32,60,5e2c9acdcd89c82c3a1321ae,,1,0,98,48,1,97
,,,,,,,,,,,,,,,,,,,,,,,,,,,,,,,,,,,,,,,,,return,13.68099999,GEM,TRUE,,,,,,,52,lapiz,Spanish,Sounds/spa_lapiz.mp3,2020-06-05_16h20.28.080,TranslationElicitation_eng-prolific,3.2.4,Win32,60,5e2c9acdcd89c82c3a1321ae,13.68099999,1,0,98,48,1,97
,,,,,,,,,,,,,,,,,,,,,,,,,,,,,,,,,,,,,,,,,,,,,,,,,,,52,lapiz,Spanish,Sounds/spa_lapiz.mp3,2020-06-05_16h20.28.080,TranslationElicitation_eng-prolific,3.2.4,Win32,60,5e2c9acdcd89c82c3a1321ae,,1,0,98,48,1,97
,,,,,,,,,,,,,,,,,,,,,,,,,,,,,,,,,,,,,,,,,n,3.767999887,N,FALSE,,,,,,,85,pierna,Spanish,Sounds/spa_pierna.mp3,2020-06-05_16h20.28.080,TranslationElicitation_eng-prolific,3.2.4,Win32,60,5e2c9acdcd89c82c3a1321ae,,1,0,98,80,1,97
,,,,,,,,,,,,,,,,,,,,,,,,,,,,,,,,,,,,,,,,,i,3.852999926,NI,FALSE,,,,,,,85,pierna,Spanish,Sounds/spa_pierna.mp3,2020-06-05_16h20.28.080,TranslationElicitation_eng-prolific,3.2.4,Win32,60,5e2c9acdcd89c82c3a1321ae,,1,0,98,80,1,97
,,,,,,,,,,,,,,,,,,,,,,,,,,,,,,,,,,,,,,,,,g,3.981999874,NIG,FALSE,,,,,,,85,pierna,Spanish,Sounds/spa_pierna.mp3,2020-06-05_16h20.28.080,TranslationElicitation_eng-prolific,3.2.4,Win32,60,5e2c9acdcd89c82c3a1321ae,,1,0,98,80,1,97
,,,,,,,,,,,,,,,,,,,,,,,,,,,,,,,,,,,,,,,,,h,4.082999945,NIGH,FALSE,,,,,,,85,pierna,Spanish,Sounds/spa_pierna.mp3,2020-06-05_16h20.28.080,TranslationElicitation_eng-prolific,3.2.4,Win32,60,5e2c9acdcd89c82c3a1321ae,,1,0,98,80,1,97
,,,,,,,,,,,,,,,,,,,,,,,,,,,,,,,,,,,,,,,,,t,4.181999922,NIGHT,FALSE,,,,,,,85,pierna,Spanish,Sounds/spa_pierna.mp3,2020-06-05_16h20.28.080,TranslationElicitation_eng-prolific,3.2.4,Win32,60,5e2c9acdcd89c82c3a1321ae,,1,0,98,80,1,97
,,,,,,,,,,,,,,,,,,,,,,,,,,,,,,,,,,,,,,,,,return,4.963999987,NIGHT,FALSE,,,,,,,85,pierna,Spanish,Sounds/spa_pierna.mp3,2020-06-05_16h20.28.080,TranslationElicitation_eng-prolific,3.2.4,Win32,60,5e2c9acdcd89c82c3a1321ae,4.963999987,1,0,98,80,1,97
,,,,,,,,,,,,,,,,,,,,,,,,,,,,,,,,,,,,,,,,,,,,,,,,,,,85,pierna,Spanish,Sounds/spa_pierna.mp3,2020-06-05_16h20.28.080,TranslationElicitation_eng-prolific,3.2.4,Win32,60,5e2c9acdcd89c82c3a1321ae,,1,0,98,80,1,97
,,,,,,,,,,,,,,,,,,,,,,,,,,,,,,,,,,,,,,,,,p,3.21600008,P,FALSE,,,,,,,75,pan,Spanish,Sounds/spa_pan.mp3,2020-06-05_16h20.28.080,TranslationElicitation_eng-prolific,3.2.4,Win32,60,5e2c9acdcd89c82c3a1321ae,,1,0,98,70,1,97
,,,,,,,,,,,,,,,,,,,,,,,,,,,,,,,,,,,,,,,,,a,3.348999977,PA,FALSE,,,,,,,75,pan,Spanish,Sounds/spa_pan.mp3,2020-06-05_16h20.28.080,TranslationElicitation_eng-prolific,3.2.4,Win32,60,5e2c9acdcd89c82c3a1321ae,,1,0,98,70,1,97
,,,,,,,,,,,,,,,,,,,,,,,,,,,,,,,,,,,,,,,,,n,3.44900012,PAN,FALSE,,,,,,,75,pan,Spanish,Sounds/spa_pan.mp3,2020-06-05_16h20.28.080,TranslationElicitation_eng-prolific,3.2.4,Win32,60,5e2c9acdcd89c82c3a1321ae,,1,0,98,70,1,97
,,,,,,,,,,,,,,,,,,,,,,,,,,,,,,,,,,,,,,,,,return,3.94900012,PAN,FALSE,,,,,,,75,pan,Spanish,Sounds/spa_pan.mp3,2020-06-05_16h20.28.080,TranslationElicitation_eng-prolific,3.2.4,Win32,60,5e2c9acdcd89c82c3a1321ae,3.94900012,1,0,98,70,1,97
,,,,,,,,,,,,,,,,,,,,,,,,,,,,,,,,,,,,,,,,,,,,,,,,,,,75,pan,Spanish,Sounds/spa_pan.mp3,2020-06-05_16h20.28.080,TranslationElicitation_eng-prolific,3.2.4,Win32,60,5e2c9acdcd89c82c3a1321ae,,1,0,98,70,1,97
,,,,,,,,,,,,,,,,,,,,,,,,,,,,,,,,,,,,,,,,,b,1.766000032,B,FALSE,,,,,,,8,bol,Spanish,Sounds/spa_bol.mp3,2020-06-05_16h20.28.080,TranslationElicitation_eng-prolific,3.2.4,Win32,60,5e2c9acdcd89c82c3a1321ae,,1,0,98,6,1,97
,,,,,,,,,,,,,,,,,,,,,,,,,,,,,,,,,,,,,,,,,o,1.932999849,BO,FALSE,,,,,,,8,bol,Spanish,Sounds/spa_bol.mp3,2020-06-05_16h20.28.080,TranslationElicitation_eng-prolific,3.2.4,Win32,60,5e2c9acdcd89c82c3a1321ae,,1,0,98,6,1,97
,,,,,,,,,,,,,,,,,,,,,,,,,,,,,,,,,,,,,,,,,w,2.049999952,BOW,FALSE,,,,,,,8,bol,Spanish,Sounds/spa_bol.mp3,2020-06-05_16h20.28.080,TranslationElicitation_eng-prolific,3.2.4,Win32,60,5e2c9acdcd89c82c3a1321ae,,1,0,98,6,1,97
,,,,,,,,,,,,,,,,,,,,,,,,,,,,,,,,,,,,,,,,,l,2.133999825,BOWL,FALSE,,,,,,,8,bol,Spanish,Sounds/spa_bol.mp3,2020-06-05_16h20.28.080,TranslationElicitation_eng-prolific,3.2.4,Win32,60,5e2c9acdcd89c82c3a1321ae,,1,0,98,6,1,97
,,,,,,,,,,,,,,,,,,,,,,,,,,,,,,,,,,,,,,,,,return,2.582999945,BOWL,FALSE,,,,,,,8,bol,Spanish,Sounds/spa_bol.mp3,2020-06-05_16h20.28.080,TranslationElicitation_eng-prolific,3.2.4,Win32,60,5e2c9acdcd89c82c3a1321ae,2.582999945,1,0,98,6,1,97
,,,,,,,,,,,,,,,,,,,,,,,,,,,,,,,,,,,,,,,,,,,,,,,,,,,8,bol,Spanish,Sounds/spa_bol.mp3,2020-06-05_16h20.28.080,TranslationElicitation_eng-prolific,3.2.4,Win32,60,5e2c9acdcd89c82c3a1321ae,,1,0,98,6,1,97
,,,,,,,,,,,,,,,,,,,,,,,,,,,,,,,,,,,,,,,,,y,2.549000025,Y,FALSE,,,,,,,28,cielo,Spanish,Sounds/spa_cielo.mp3,2020-06-05_16h20.28.080,TranslationElicitation_eng-prolific,3.2.4,Win32,60,5e2c9acdcd89c82c3a1321ae,,1,0,98,25,1,97
,,,,,,,,,,,,,,,,,,,,,,,,,,,,,,,,,,,,,,,,,e,2.749000072,YE,FALSE,,,,,,,28,cielo,Spanish,Sounds/spa_cielo.mp3,2020-06-05_16h20.28.080,TranslationElicitation_eng-prolific,3.2.4,Win32,60,5e2c9acdcd89c82c3a1321ae,,1,0,98,25,1,97
,,,,,,,,,,,,,,,,,,,,,,,,,,,,,,,,,,,,,,,,,l,2.848999977,YEL,FALSE,,,,,,,28,cielo,Spanish,Sounds/spa_cielo.mp3,2020-06-05_16h20.28.080,TranslationElicitation_eng-prolific,3.2.4,Win32,60,5e2c9acdcd89c82c3a1321ae,,1,0,98,25,1,97
,,,,,,,,,,,,,,,,,,,,,,,,,,,,,,,,,,,,,,,,,l,2.98300004,YELL,FALSE,,,,,,,28,cielo,Spanish,Sounds/spa_cielo.mp3,2020-06-05_16h20.28.080,TranslationElicitation_eng-prolific,3.2.4,Win32,60,5e2c9acdcd89c82c3a1321ae,,1,0,98,25,1,97
,,,,,,,,,,,,,,,,,,,,,,,,,,,,,,,,,,,,,,,,,o,3.165999889,YELLO,FALSE,,,,,,,28,cielo,Spanish,Sounds/spa_cielo.mp3,2020-06-05_16h20.28.080,TranslationElicitation_eng-prolific,3.2.4,Win32,60,5e2c9acdcd89c82c3a1321ae,,1,0,98,25,1,97
,,,,,,,,,,,,,,,,,,,,,,,,,,,,,,,,,,,,,,,,,w,3.348999977,YELLOW,FALSE,,,,,,,28,cielo,Spanish,Sounds/spa_cielo.mp3,2020-06-05_16h20.28.080,TranslationElicitation_eng-prolific,3.2.4,Win32,60,5e2c9acdcd89c82c3a1321ae,,1,0,98,25,1,97
,,,,,,,,,,,,,,,,,,,,,,,,,,,,,,,,,,,,,,,,,return,4.036999941,YELLOW,FALSE,,,,,,,28,cielo,Spanish,Sounds/spa_cielo.mp3,2020-06-05_16h20.28.080,TranslationElicitation_eng-prolific,3.2.4,Win32,60,5e2c9acdcd89c82c3a1321ae,4.036999941,1,0,98,25,1,97
,,,,,,,,,,,,,,,,,,,,,,,,,,,,,,,,,,,,,,,,,,,,,,,,,,,28,cielo,Spanish,Sounds/spa_cielo.mp3,2020-06-05_16h20.28.080,TranslationElicitation_eng-prolific,3.2.4,Win32,60,5e2c9acdcd89c82c3a1321ae,,1,0,98,25,1,97
,,,,,,,,,,,,,,,,,,,,,,,,,,,,,,,,,,,,,,,,,f,2.615999937,F,FALSE,,,,,,,50,jirafa,Spanish,Sounds/spa_jirafa.mp3,2020-06-05_16h20.28.080,TranslationElicitation_eng-prolific,3.2.4,Win32,60,5e2c9acdcd89c82c3a1321ae,,1,0,98,46,1,97
,,,,,,,,,,,,,,,,,,,,,,,,,,,,,,,,,,,,,,,,,a,2.782000065,FA,FALSE,,,,,,,50,jirafa,Spanish,Sounds/spa_jirafa.mp3,2020-06-05_16h20.28.080,TranslationElicitation_eng-prolific,3.2.4,Win32,60,5e2c9acdcd89c82c3a1321ae,,1,0,98,46,1,97
,,,,,,,,,,,,,,,,,,,,,,,,,,,,,,,,,,,,,,,,,t,2.948999882,FAT,FALSE,,,,,,,50,jirafa,Spanish,Sounds/spa_jirafa.mp3,2020-06-05_16h20.28.080,TranslationElicitation_eng-prolific,3.2.4,Win32,60,5e2c9acdcd89c82c3a1321ae,,1,0,98,46,1,97
,,,,,,,,,,,,,,,,,,,,,,,,,,,,,,,,,,,,,,,,,h,3.065999985,FATH,FALSE,,,,,,,50,jirafa,Spanish,Sounds/spa_jirafa.mp3,2020-06-05_16h20.28.080,TranslationElicitation_eng-prolific,3.2.4,Win32,60,5e2c9acdcd89c82c3a1321ae,,1,0,98,46,1,97
,,,,,,,,,,,,,,,,,,,,,,,,,,,,,,,,,,,,,,,,,e,3.115999937,FATHE,FALSE,,,,,,,50,jirafa,Spanish,Sounds/spa_jirafa.mp3,2020-06-05_16h20.28.080,TranslationElicitation_eng-prolific,3.2.4,Win32,60,5e2c9acdcd89c82c3a1321ae,,1,0,98,46,1,97
,,,,,,,,,,,,,,,,,,,,,,,,,,,,,,,,,,,,,,,,,r,3.21600008,FATHER,FALSE,,,,,,,50,jirafa,Spanish,Sounds/spa_jirafa.mp3,2020-06-05_16h20.28.080,TranslationElicitation_eng-prolific,3.2.4,Win32,60,5e2c9acdcd89c82c3a1321ae,,1,0,98,46,1,97
,,,,,,,,,,,,,,,,,,,,,,,,,,,,,,,,,,,,,,,,,return,3.431999922,FATHER,FALSE,,,,,,,50,jirafa,Spanish,Sounds/spa_jirafa.mp3,2020-06-05_16h20.28.080,TranslationElicitation_eng-prolific,3.2.4,Win32,60,5e2c9acdcd89c82c3a1321ae,3.431999922,1,0,98,46,1,97
,,,,,,,,,,,,,,,,,,,,,,,,,,,,,,,,,,,,,,,,,,,,,,,,,,,50,jirafa,Spanish,Sounds/spa_jirafa.mp3,2020-06-05_16h20.28.080,TranslationElicitation_eng-prolific,3.2.4,Win32,60,5e2c9acdcd89c82c3a1321ae,,1,0,98,46,1,97
,,,,,,,,,,,,,,,,,,,,,,,,,,,,,,,,,,,,,,,,,c,2.683000088,C,FALSE,,,,,,,29,coche,Spanish,Sounds/spa_coche.mp3,2020-06-05_16h20.28.080,TranslationElicitation_eng-prolific,3.2.4,Win32,60,5e2c9acdcd89c82c3a1321ae,,1,0,98,26,1,97
,,,,,,,,,,,,,,,,,,,,,,,,,,,,,,,,,,,,,,,,,o,2.782999992,CO,FALSE,,,,,,,29,coche,Spanish,Sounds/spa_coche.mp3,2020-06-05_16h20.28.080,TranslationElicitation_eng-prolific,3.2.4,Win32,60,5e2c9acdcd89c82c3a1321ae,,1,0,98,26,1,97
,,,,,,,,,,,,,,,,,,,,,,,,,,,,,,,,,,,,,,,,,a,2.867000103,COA,FALSE,,,,,,,29,coche,Spanish,Sounds/spa_coche.mp3,2020-06-05_16h20.28.080,TranslationElicitation_eng-prolific,3.2.4,Win32,60,5e2c9acdcd89c82c3a1321ae,,1,0,98,26,1,97
,,,,,,,,,,,,,,,,,,,,,,,,,,,,,,,,,,,,,,,,,c,2.98300004,COAC,FALSE,,,,,,,29,coche,Spanish,Sounds/spa_coche.mp3,2020-06-05_16h20.28.080,TranslationElicitation_eng-prolific,3.2.4,Win32,60,5e2c9acdcd89c82c3a1321ae,,1,0,98,26,1,97
,,,,,,,,,,,,,,,,,,,,,,,,,,,,,,,,,,,,,,,,,h,3.065999985,COACH,FALSE,,,,,,,29,coche,Spanish,Sounds/spa_coche.mp3,2020-06-05_16h20.28.080,TranslationElicitation_eng-prolific,3.2.4,Win32,60,5e2c9acdcd89c82c3a1321ae,,1,0,98,26,1,97
,,,,,,,,,,,,,,,,,,,,,,,,,,,,,,,,,,,,,,,,,return,3.366000175,COACH,FALSE,,,,,,,29,coche,Spanish,Sounds/spa_coche.mp3,2020-06-05_16h20.28.080,TranslationElicitation_eng-prolific,3.2.4,Win32,60,5e2c9acdcd89c82c3a1321ae,3.366000175,1,0,98,26,1,97
,,,,,,,,,,,,,,,,,,,,,,,,,,,,,,,,,,,,,,,,,,,,,,,,,,,29,coche,Spanish,Sounds/spa_coche.mp3,2020-06-05_16h20.28.080,TranslationElicitation_eng-prolific,3.2.4,Win32,60,5e2c9acdcd89c82c3a1321ae,,1,0,98,26,1,97
,,,,,,,,,,,,,,,,,,,,,,,,,,,,,,,,,,,,,,,,,r,9.86500001,R,FALSE,,,,,,,60,manzana,Spanish,Sounds/spa_manzana.mp3,2020-06-05_16h20.28.080,TranslationElicitation_eng-prolific,3.2.4,Win32,60,5e2c9acdcd89c82c3a1321ae,,1,0,98,56,1,97
,,,,,,,,,,,,,,,,,,,,,,,,,,,,,,,,,,,,,,,,,a,9.964999914,RA,FALSE,,,,,,,60,manzana,Spanish,Sounds/spa_manzana.mp3,2020-06-05_16h20.28.080,TranslationElicitation_eng-prolific,3.2.4,Win32,60,5e2c9acdcd89c82c3a1321ae,,1,0,98,56,1,97
,,,,,,,,,,,,,,,,,,,,,,,,,,,,,,,,,,,,,,,,,i,10.06500006,RAI,FALSE,,,,,,,60,manzana,Spanish,Sounds/spa_manzana.mp3,2020-06-05_16h20.28.080,TranslationElicitation_eng-prolific,3.2.4,Win32,60,5e2c9acdcd89c82c3a1321ae,,1,0,98,56,1,97
,,,,,,,,,,,,,,,,,,,,,,,,,,,,,,,,,,,,,,,,,n,10.13100004,RAIN,FALSE,,,,,,,60,manzana,Spanish,Sounds/spa_manzana.mp3,2020-06-05_16h20.28.080,TranslationElicitation_eng-prolific,3.2.4,Win32,60,5e2c9acdcd89c82c3a1321ae,,1,0,98,56,1,97
,,,,,,,,,,,,,,,,,,,,,,,,,,,,,,,,,,,,,,,,,return,10.44799995,RAIN,FALSE,,,,,,,60,manzana,Spanish,Sounds/spa_manzana.mp3,2020-06-05_16h20.28.080,TranslationElicitation_eng-prolific,3.2.4,Win32,60,5e2c9acdcd89c82c3a1321ae,10.44799995,1,0,98,56,1,97
,,,,,,,,,,,,,,,,,,,,,,,,,,,,,,,,,,,,,,,,,,,,,,,,,,,60,manzana,Spanish,Sounds/spa_manzana.mp3,2020-06-05_16h20.28.080,TranslationElicitation_eng-prolific,3.2.4,Win32,60,5e2c9acdcd89c82c3a1321ae,,1,0,98,56,1,97
,,,,,,,,,,,,,,,,,,,,,,,,,,,,,,,,,,,,,,,,,d,7.94900012,D,FALSE,,,,,,,3,barco,Spanish,Sounds/spa_barco.mp3,2020-06-05_16h20.28.080,TranslationElicitation_eng-prolific,3.2.4,Win32,60,5e2c9acdcd89c82c3a1321ae,,1,0,98,1,1,97
,,,,,,,,,,,,,,,,,,,,,,,,,,,,,,,,,,,,,,,,,o,8.049000025,DO,FALSE,,,,,,,3,barco,Spanish,Sounds/spa_barco.mp3,2020-06-05_16h20.28.080,TranslationElicitation_eng-prolific,3.2.4,Win32,60,5e2c9acdcd89c82c3a1321ae,,1,0,98,1,1,97
,,,,,,,,,,,,,,,,,,,,,,,,,,,,,,,,,,,,,,,,,g,8.166000128,DOG,FALSE,,,,,,,3,barco,Spanish,Sounds/spa_barco.mp3,2020-06-05_16h20.28.080,TranslationElicitation_eng-prolific,3.2.4,Win32,60,5e2c9acdcd89c82c3a1321ae,,1,0,98,1,1,97
,,,,,,,,,,,,,,,,,,,,,,,,,,,,,,,,,,,,,,,,,return,8.565000057,DOG,FALSE,,,,,,,3,barco,Spanish,Sounds/spa_barco.mp3,2020-06-05_16h20.28.080,TranslationElicitation_eng-prolific,3.2.4,Win32,60,5e2c9acdcd89c82c3a1321ae,8.565000057,1,0,98,1,1,97
,,,,,,,,,,,,,,,,,,,,,,,,,,,,,,,,,,,,,,,,,,,,,,,,,,,3,barco,Spanish,Sounds/spa_barco.mp3,2020-06-05_16h20.28.080,TranslationElicitation_eng-prolific,3.2.4,Win32,60,5e2c9acdcd89c82c3a1321ae,,1,0,98,1,1,97
,,,,,,,,,,,,,,,,,,,,,,,,,,,,,,,,,,,,,,,,,o,2.700000048,O,FALSE,,,,,,,45,gorro,Spanish,Sounds/spa_gorro.mp3,2020-06-05_16h20.28.080,TranslationElicitation_eng-prolific,3.2.4,Win32,60,5e2c9acdcd89c82c3a1321ae,,1,0,98,41,1,97
,,,,,,,,,,,,,,,,,,,,,,,,,,,,,,,,,,,,,,,,,r,2.799999952,OR,FALSE,,,,,,,45,gorro,Spanish,Sounds/spa_gorro.mp3,2020-06-05_16h20.28.080,TranslationElicitation_eng-prolific,3.2.4,Win32,60,5e2c9acdcd89c82c3a1321ae,,1,0,98,41,1,97
,,,,,,,,,,,,,,,,,,,,,,,,,,,,,,,,,,,,,,,,,a,2.932999849,ORA,FALSE,,,,,,,45,gorro,Spanish,Sounds/spa_gorro.mp3,2020-06-05_16h20.28.080,TranslationElicitation_eng-prolific,3.2.4,Win32,60,5e2c9acdcd89c82c3a1321ae,,1,0,98,41,1,97
,,,,,,,,,,,,,,,,,,,,,,,,,,,,,,,,,,,,,,,,,n,3.03399992,ORAN,FALSE,,,,,,,45,gorro,Spanish,Sounds/spa_gorro.mp3,2020-06-05_16h20.28.080,TranslationElicitation_eng-prolific,3.2.4,Win32,60,5e2c9acdcd89c82c3a1321ae,,1,0,98,41,1,97
,,,,,,,,,,,,,,,,,,,,,,,,,,,,,,,,,,,,,,,,,g,3.118000031,ORANG,FALSE,,,,,,,45,gorro,Spanish,Sounds/spa_gorro.mp3,2020-06-05_16h20.28.080,TranslationElicitation_eng-prolific,3.2.4,Win32,60,5e2c9acdcd89c82c3a1321ae,,1,0,98,41,1,97
,,,,,,,,,,,,,,,,,,,,,,,,,,,,,,,,,,,,,,,,,e,3.23300004,ORANGE,FALSE,,,,,,,45,gorro,Spanish,Sounds/spa_gorro.mp3,2020-06-05_16h20.28.080,TranslationElicitation_eng-prolific,3.2.4,Win32,60,5e2c9acdcd89c82c3a1321ae,,1,0,98,41,1,97
,,,,,,,,,,,,,,,,,,,,,,,,,,,,,,,,,,,,,,,,,return,3.48300004,ORANGE,FALSE,,,,,,,45,gorro,Spanish,Sounds/spa_gorro.mp3,2020-06-05_16h20.28.080,TranslationElicitation_eng-prolific,3.2.4,Win32,60,5e2c9acdcd89c82c3a1321ae,3.48300004,1,0,98,41,1,97
,,,,,,,,,,,,,,,,,,,,,,,,,,,,,,,,,,,,,,,,,,,,,,,,,,,45,gorro,Spanish,Sounds/spa_gorro.mp3,2020-06-05_16h20.28.080,TranslationElicitation_eng-prolific,3.2.4,Win32,60,5e2c9acdcd89c82c3a1321ae,,1,0,98,41,1,97
,,,,,,,,,,,,,,,,,,,,,,,,,,,,,,,,,,,,,,,,,s,2.432999849,S,FALSE,,,,,,,92,sandwich,Spanish,Sounds/spa_sandwich.mp3,2020-06-05_16h20.28.080,TranslationElicitation_eng-prolific,3.2.4,Win32,60,5e2c9acdcd89c82c3a1321ae,,1,0,98,87,1,97
,,,,,,,,,,,,,,,,,,,,,,,,,,,,,,,,,,,,,,,,,a,2.532999992,SA,FALSE,,,,,,,92,sandwich,Spanish,Sounds/spa_sandwich.mp3,2020-06-05_16h20.28.080,TranslationElicitation_eng-prolific,3.2.4,Win32,60,5e2c9acdcd89c82c3a1321ae,,1,0,98,87,1,97
,,,,,,,,,,,,,,,,,,,,,,,,,,,,,,,,,,,,,,,,,n,2.699999809,SAN,FALSE,,,,,,,92,sandwich,Spanish,Sounds/spa_sandwich.mp3,2020-06-05_16h20.28.080,TranslationElicitation_eng-prolific,3.2.4,Win32,60,5e2c9acdcd89c82c3a1321ae,,1,0,98,87,1,97
,,,,,,,,,,,,,,,,,,,,,,,,,,,,,,,,,,,,,,,,,d,2.732999802,SAND,FALSE,,,,,,,92,sandwich,Spanish,Sounds/spa_sandwich.mp3,2020-06-05_16h20.28.080,TranslationElicitation_eng-prolific,3.2.4,Win32,60,5e2c9acdcd89c82c3a1321ae,,1,0,98,87,1,97
,,,,,,,,,,,,,,,,,,,,,,,,,,,,,,,,,,,,,,,,,i,3,SANDI,FALSE,,,,,,,92,sandwich,Spanish,Sounds/spa_sandwich.mp3,2020-06-05_16h20.28.080,TranslationElicitation_eng-prolific,3.2.4,Win32,60,5e2c9acdcd89c82c3a1321ae,,1,0,98,87,1,97
,,,,,,,,,,,,,,,,,,,,,,,,,,,,,,,,,,,,,,,,,w,3.115999937,SANDIW,FALSE,,,,,,,92,sandwich,Spanish,Sounds/spa_sandwich.mp3,2020-06-05_16h20.28.080,TranslationElicitation_eng-prolific,3.2.4,Win32,60,5e2c9acdcd89c82c3a1321ae,,1,0,98,87,1,97
,,,,,,,,,,,,,,,,,,,,,,,,,,,,,,,,,,,,,,,,,c,3.299999952,SANDIWC,FALSE,,,,,,,92,sandwich,Spanish,Sounds/spa_sandwich.mp3,2020-06-05_16h20.28.080,TranslationElicitation_eng-prolific,3.2.4,Win32,60,5e2c9acdcd89c82c3a1321ae,,1,0,98,87,1,97
,,,,,,,,,,,,,,,,,,,,,,,,,,,,,,,,,,,,,,,,,h,3.415999889,SANDIWCH,FALSE,,,,,,,92,sandwich,Spanish,Sounds/spa_sandwich.mp3,2020-06-05_16h20.28.080,TranslationElicitation_eng-prolific,3.2.4,Win32,60,5e2c9acdcd89c82c3a1321ae,,1,0,98,87,1,97
,,,,,,,,,,,,,,,,,,,,,,,,,,,,,,,,,,,,,,,,,backspace,3.666999817,SANDIWC,TRUE,,,,,,,92,sandwich,Spanish,Sounds/spa_sandwich.mp3,2020-06-05_16h20.28.080,TranslationElicitation_eng-prolific,3.2.4,Win32,60,5e2c9acdcd89c82c3a1321ae,,1,0,98,87,1,97
