consentKey.keys,consentKey.rt,languageL1Key.keys,languageL1Key.rt,languageL2,languageL2OralKey.keys,languageL2OralKey.rt,languageL2WrittenKey.keys,languageL2WrittenKey.rt,languageL3OralKey.keys,languageL3OralKey.rt,languageL3WrittenKey.keys,languageL3WrittenKey.rt,languageCatalanOralKey.keys,languageCatalanOralKey.rt,languageCatalanWrittenKey.keys,languageCatalanWrittenKey.rt,languageCatalanTimeKey.keys,languageCatalanTimeKey.rt,languageSpanishOralKey.keys,languageSpanishOralKey.rt,languageSpanishWrittenKey.keys,languageSpanishWrittenKey.rt,languageSpanishTimeKey.keys,languageSpanishTimeKey.rt,age,demoSexKey.keys,demoSexKey.rt,demoEducationKey.keys,demoEducationKey.rt,city,demoVisionKey.keys,demoVisionKey.rt,demoLanguageKey.keys,demoLanguageKey.rt,setupLocationKey.keys,setupLocationKey.rt,setupNoiseKey.keys,setupNoiseKey.rt,instructionsKeys.keys,instructionsKeys.rt,keyPressed,keyPressTime,inputText,error,trialsPracticeSpanish.thisRepN,trialsPracticeSpanish.thisTrialN,trialsPracticeSpanish.thisN,trialsPracticeSpanish.thisIndex,trialsPracticeSpanish.ran,trialsPracticeSpanish.order,trial_id,word,test_language,soundfile,date,expName,psychopyVersion,OS,frameRate,participant,trialOffset,trialsSpanish.thisRepN,trialsSpanish.thisTrialN,trialsSpanish.thisN,trialsSpanish.thisIndex,trialsSpanish.ran,trialsSpanish.order
space,0.518999815,e,3.203999996,,,,,,,,,,1,5.215999842,1,2.917999983,1,6.493000031,2,2.74000001,2,2.74000001,1,7.308000088,20,f,1.541000128,3,5.101999998,LONDON,y,2.911000013,y,3.662999868,1,2.086999893,2,3.228999853,space,17.07999992,h,1.75,H,FALSE,1,0,5,3,1,4,70,ola,Spanish,Sounds/spa_ola.mp3,2020-06-24_16h56.41.467,TranslationElicitation_eng-prolific,3.2.4,MacIntel,60,5e32a996077089274299680f,,,,,,,
,,,,,,,,,,,,,,,,,,,,,,,,,,,,,,,,,,,,,,,,,e,1.885999918,HE,FALSE,1,0,5,3,1,4,70,ola,Spanish,Sounds/spa_ola.mp3,2020-06-24_16h56.41.467,TranslationElicitation_eng-prolific,3.2.4,MacIntel,60,5e32a996077089274299680f,,,,,,,
,,,,,,,,,,,,,,,,,,,,,,,,,,,,,,,,,,,,,,,,,l,2.002000093,HEL,FALSE,1,0,5,3,1,4,70,ola,Spanish,Sounds/spa_ola.mp3,2020-06-24_16h56.41.467,TranslationElicitation_eng-prolific,3.2.4,MacIntel,60,5e32a996077089274299680f,,,,,,,
,,,,,,,,,,,,,,,,,,,,,,,,,,,,,,,,,,,,,,,,,l,2.150000095,HELL,FALSE,1,0,5,3,1,4,70,ola,Spanish,Sounds/spa_ola.mp3,2020-06-24_16h56.41.467,TranslationElicitation_eng-prolific,3.2.4,MacIntel,60,5e32a996077089274299680f,,,,,,,
,,,,,,,,,,,,,,,,,,,,,,,,,,,,,,,,,,,,,,,,,o,2.335000038,HELLO,FALSE,1,0,5,3,1,4,70,ola,Spanish,Sounds/spa_ola.mp3,2020-06-24_16h56.41.467,TranslationElicitation_eng-prolific,3.2.4,MacIntel,60,5e32a996077089274299680f,,,,,,,
,,,,,,,,,,,,,,,,,,,,,,,,,,,,,,,,,,,,,,,,,return,2.599999905,HELLO,FALSE,1,0,5,3,1,4,70,ola,Spanish,Sounds/spa_ola.mp3,2020-06-24_16h56.41.467,TranslationElicitation_eng-prolific,3.2.4,MacIntel,60,5e32a996077089274299680f,2.599999905,,,,,,
,,,,,,,,,,,,,,,,,,,,,,,,,,,,,,,,,,,,,,,,,,,,,1,0,5,3,1,4,70,ola,Spanish,Sounds/spa_ola.mp3,2020-06-24_16h56.41.467,TranslationElicitation_eng-prolific,3.2.4,MacIntel,60,5e32a996077089274299680f,,,,,,,
,,,,,,,,,,,,,,,,,,,,,,,,,,,,,,,,,,,,,,,,,h,3.234999895,H,FALSE,1,0,5,0,1,4,1,arbol,Spanish,Sounds/spa_arbol.mp3,2020-06-24_16h56.41.467,TranslationElicitation_eng-prolific,3.2.4,MacIntel,60,5e32a996077089274299680f,,,,,,,
,,,,,,,,,,,,,,,,,,,,,,,,,,,,,,,,,,,,,,,,,o,3.386999846,HO,FALSE,1,0,5,0,1,4,1,arbol,Spanish,Sounds/spa_arbol.mp3,2020-06-24_16h56.41.467,TranslationElicitation_eng-prolific,3.2.4,MacIntel,60,5e32a996077089274299680f,,,,,,,
,,,,,,,,,,,,,,,,,,,,,,,,,,,,,,,,,,,,,,,,,r,3.500999928,HOR,FALSE,1,0,5,0,1,4,1,arbol,Spanish,Sounds/spa_arbol.mp3,2020-06-24_16h56.41.467,TranslationElicitation_eng-prolific,3.2.4,MacIntel,60,5e32a996077089274299680f,,,,,,,
,,,,,,,,,,,,,,,,,,,,,,,,,,,,,,,,,,,,,,,,,r,3.654999971,HORR,FALSE,1,0,5,0,1,4,1,arbol,Spanish,Sounds/spa_arbol.mp3,2020-06-24_16h56.41.467,TranslationElicitation_eng-prolific,3.2.4,MacIntel,60,5e32a996077089274299680f,,,,,,,
,,,,,,,,,,,,,,,,,,,,,,,,,,,,,,,,,,,,,,,,,i,3.718999863,HORRI,FALSE,1,0,5,0,1,4,1,arbol,Spanish,Sounds/spa_arbol.mp3,2020-06-24_16h56.41.467,TranslationElicitation_eng-prolific,3.2.4,MacIntel,60,5e32a996077089274299680f,,,,,,,
,,,,,,,,,,,,,,,,,,,,,,,,,,,,,,,,,,,,,,,,,b,3.90199995,HORRIB,FALSE,1,0,5,0,1,4,1,arbol,Spanish,Sounds/spa_arbol.mp3,2020-06-24_16h56.41.467,TranslationElicitation_eng-prolific,3.2.4,MacIntel,60,5e32a996077089274299680f,,,,,,,
,,,,,,,,,,,,,,,,,,,,,,,,,,,,,,,,,,,,,,,,,l,3.986999989,HORRIBL,FALSE,1,0,5,0,1,4,1,arbol,Spanish,Sounds/spa_arbol.mp3,2020-06-24_16h56.41.467,TranslationElicitation_eng-prolific,3.2.4,MacIntel,60,5e32a996077089274299680f,,,,,,,
,,,,,,,,,,,,,,,,,,,,,,,,,,,,,,,,,,,,,,,,,e,4.136999846,HORRIBLE,FALSE,1,0,5,0,1,4,1,arbol,Spanish,Sounds/spa_arbol.mp3,2020-06-24_16h56.41.467,TranslationElicitation_eng-prolific,3.2.4,MacIntel,60,5e32a996077089274299680f,,,,,,,
,,,,,,,,,,,,,,,,,,,,,,,,,,,,,,,,,,,,,,,,,return,4.403999805,HORRIBLE,FALSE,1,0,5,0,1,4,1,arbol,Spanish,Sounds/spa_arbol.mp3,2020-06-24_16h56.41.467,TranslationElicitation_eng-prolific,3.2.4,MacIntel,60,5e32a996077089274299680f,4.403999805,,,,,,
,,,,,,,,,,,,,,,,,,,,,,,,,,,,,,,,,,,,,,,,,,,,,1,0,5,0,1,4,1,arbol,Spanish,Sounds/spa_arbol.mp3,2020-06-24_16h56.41.467,TranslationElicitation_eng-prolific,3.2.4,MacIntel,60,5e32a996077089274299680f,,,,,,,
,,,,,,,,,,,,,,,,,,,,,,,,,,,,,,,,,,,,,,,,,c,2.790999889,C,FALSE,1,0,5,2,1,4,26,chaqueta,Spanish,Sounds/spa_chaqueta.mp3,2020-06-24_16h56.41.467,TranslationElicitation_eng-prolific,3.2.4,MacIntel,60,5e32a996077089274299680f,,,,,,,
,,,,,,,,,,,,,,,,,,,,,,,,,,,,,,,,,,,,,,,,,h,2.901000023,CH,FALSE,1,0,5,2,1,4,26,chaqueta,Spanish,Sounds/spa_chaqueta.mp3,2020-06-24_16h56.41.467,TranslationElicitation_eng-prolific,3.2.4,MacIntel,60,5e32a996077089274299680f,,,,,,,
,,,,,,,,,,,,,,,,,,,,,,,,,,,,,,,,,,,,,,,,,i,2.967999935,CHI,FALSE,1,0,5,2,1,4,26,chaqueta,Spanish,Sounds/spa_chaqueta.mp3,2020-06-24_16h56.41.467,TranslationElicitation_eng-prolific,3.2.4,MacIntel,60,5e32a996077089274299680f,,,,,,,
,,,,,,,,,,,,,,,,,,,,,,,,,,,,,,,,,,,,,,,,,l,3.034999847,CHIL,FALSE,1,0,5,2,1,4,26,chaqueta,Spanish,Sounds/spa_chaqueta.mp3,2020-06-24_16h56.41.467,TranslationElicitation_eng-prolific,3.2.4,MacIntel,60,5e32a996077089274299680f,,,,,,,
,,,,,,,,,,,,,,,,,,,,,,,,,,,,,,,,,,,,,,,,,d,3.154000044,CHILD,FALSE,1,0,5,2,1,4,26,chaqueta,Spanish,Sounds/spa_chaqueta.mp3,2020-06-24_16h56.41.467,TranslationElicitation_eng-prolific,3.2.4,MacIntel,60,5e32a996077089274299680f,,,,,,,
,,,,,,,,,,,,,,,,,,,,,,,,,,,,,,,,,,,,,,,,,return,3.323999882,CHILD,FALSE,1,0,5,2,1,4,26,chaqueta,Spanish,Sounds/spa_chaqueta.mp3,2020-06-24_16h56.41.467,TranslationElicitation_eng-prolific,3.2.4,MacIntel,60,5e32a996077089274299680f,3.323999882,,,,,,
,,,,,,,,,,,,,,,,,,,,,,,,,,,,,,,,,,,,,,,,,,,,,1,0,5,2,1,4,26,chaqueta,Spanish,Sounds/spa_chaqueta.mp3,2020-06-24_16h56.41.467,TranslationElicitation_eng-prolific,3.2.4,MacIntel,60,5e32a996077089274299680f,,,,,,,
,,,,,,,,,,,,,,,,,,,,,,,,,,,,,,,,,,,,,,,,,c,3.673999786,C,FALSE,1,0,5,1,1,4,30,corona,Spanish,Sounds/spa_corona.mp3,2020-06-24_16h56.41.467,TranslationElicitation_eng-prolific,3.2.4,MacIntel,60,5e32a996077089274299680f,,,,,,,
,,,,,,,,,,,,,,,,,,,,,,,,,,,,,,,,,,,,,,,,,o,3.803999901,CO,FALSE,1,0,5,1,1,4,30,corona,Spanish,Sounds/spa_corona.mp3,2020-06-24_16h56.41.467,TranslationElicitation_eng-prolific,3.2.4,MacIntel,60,5e32a996077089274299680f,,,,,,,
,,,,,,,,,,,,,,,,,,,,,,,,,,,,,,,,,,,,,,,,,r,3.919999838,COR,FALSE,1,0,5,1,1,4,30,corona,Spanish,Sounds/spa_corona.mp3,2020-06-24_16h56.41.467,TranslationElicitation_eng-prolific,3.2.4,MacIntel,60,5e32a996077089274299680f,,,,,,,
,,,,,,,,,,,,,,,,,,,,,,,,,,,,,,,,,,,,,,,,,o,4.019999981,CORO,FALSE,1,0,5,1,1,4,30,corona,Spanish,Sounds/spa_corona.mp3,2020-06-24_16h56.41.467,TranslationElicitation_eng-prolific,3.2.4,MacIntel,60,5e32a996077089274299680f,,,,,,,
,,,,,,,,,,,,,,,,,,,,,,,,,,,,,,,,,,,,,,,,,n,4.171999931,CORON,FALSE,1,0,5,1,1,4,30,corona,Spanish,Sounds/spa_corona.mp3,2020-06-24_16h56.41.467,TranslationElicitation_eng-prolific,3.2.4,MacIntel,60,5e32a996077089274299680f,,,,,,,
,,,,,,,,,,,,,,,,,,,,,,,,,,,,,,,,,,,,,,,,,a,4.269999981,CORONA,FALSE,1,0,5,1,1,4,30,corona,Spanish,Sounds/spa_corona.mp3,2020-06-24_16h56.41.467,TranslationElicitation_eng-prolific,3.2.4,MacIntel,60,5e32a996077089274299680f,,,,,,,
,,,,,,,,,,,,,,,,,,,,,,,,,,,,,,,,,,,,,,,,,return,4.662999868,CORONA,FALSE,1,0,5,1,1,4,30,corona,Spanish,Sounds/spa_corona.mp3,2020-06-24_16h56.41.467,TranslationElicitation_eng-prolific,3.2.4,MacIntel,60,5e32a996077089274299680f,4.662999868,,,,,,
,,,,,,,,,,,,,,,,,,,,,,,,,,,,,,,,,,,,,,,,,,,,,1,0,5,1,1,4,30,corona,Spanish,Sounds/spa_corona.mp3,2020-06-24_16h56.41.467,TranslationElicitation_eng-prolific,3.2.4,MacIntel,60,5e32a996077089274299680f,,,,,,,
,,,,,,,,,,,,,,,,,,,,,,,,,,,,,,,,,,,,,,,,,t,2.384000063,T,FALSE,1,0,5,4,1,4,96,tigre,Spanish,Sounds/spa_tigre.mp3,2020-06-24_16h56.41.467,TranslationElicitation_eng-prolific,3.2.4,MacIntel,60,5e32a996077089274299680f,,,,,,,
,,,,,,,,,,,,,,,,,,,,,,,,,,,,,,,,,,,,,,,,,i,2.483999968,TI,FALSE,1,0,5,4,1,4,96,tigre,Spanish,Sounds/spa_tigre.mp3,2020-06-24_16h56.41.467,TranslationElicitation_eng-prolific,3.2.4,MacIntel,60,5e32a996077089274299680f,,,,,,,
,,,,,,,,,,,,,,,,,,,,,,,,,,,,,,,,,,,,,,,,,g,2.601999998,TIG,FALSE,1,0,5,4,1,4,96,tigre,Spanish,Sounds/spa_tigre.mp3,2020-06-24_16h56.41.467,TranslationElicitation_eng-prolific,3.2.4,MacIntel,60,5e32a996077089274299680f,,,,,,,
,,,,,,,,,,,,,,,,,,,,,,,,,,,,,,,,,,,,,,,,,e,2.786000013,TIGE,FALSE,1,0,5,4,1,4,96,tigre,Spanish,Sounds/spa_tigre.mp3,2020-06-24_16h56.41.467,TranslationElicitation_eng-prolific,3.2.4,MacIntel,60,5e32a996077089274299680f,,,,,,,
,,,,,,,,,,,,,,,,,,,,,,,,,,,,,,,,,,,,,,,,,r,2.875,TIGER,FALSE,1,0,5,4,1,4,96,tigre,Spanish,Sounds/spa_tigre.mp3,2020-06-24_16h56.41.467,TranslationElicitation_eng-prolific,3.2.4,MacIntel,60,5e32a996077089274299680f,,,,,,,
,,,,,,,,,,,,,,,,,,,,,,,,,,,,,,,,,,,,,,,,,return,3.111999989,TIGER,FALSE,1,0,5,4,1,4,96,tigre,Spanish,Sounds/spa_tigre.mp3,2020-06-24_16h56.41.467,TranslationElicitation_eng-prolific,3.2.4,MacIntel,60,5e32a996077089274299680f,3.111999989,,,,,,
,,,,,,,,,,,,,,,,,,,,,,,,,,,,,,,,,,,,,,,,,,,,,1,0,5,4,1,4,96,tigre,Spanish,Sounds/spa_tigre.mp3,2020-06-24_16h56.41.467,TranslationElicitation_eng-prolific,3.2.4,MacIntel,60,5e32a996077089274299680f,,,,,,,
,,,,,,,,,,,,,,,,,,,,,,,,,,,,,,,,,,,,,,,,,p,1.703000069,P,FALSE,,,,,,,10,botella,Spanish,Sounds/spa_botella.mp3,2020-06-24_16h56.41.467,TranslationElicitation_eng-prolific,3.2.4,MacIntel,60,5e32a996077089274299680f,,1,0,98,8,1,97
,,,,,,,,,,,,,,,,,,,,,,,,,,,,,,,,,,,,,,,,,o,1.772000074,PO,FALSE,,,,,,,10,botella,Spanish,Sounds/spa_botella.mp3,2020-06-24_16h56.41.467,TranslationElicitation_eng-prolific,3.2.4,MacIntel,60,5e32a996077089274299680f,,1,0,98,8,1,97
,,,,,,,,,,,,,,,,,,,,,,,,,,,,,,,,,,,,,,,,,t,1.853999853,POT,FALSE,,,,,,,10,botella,Spanish,Sounds/spa_botella.mp3,2020-06-24_16h56.41.467,TranslationElicitation_eng-prolific,3.2.4,MacIntel,60,5e32a996077089274299680f,,1,0,98,8,1,97
,,,,,,,,,,,,,,,,,,,,,,,,,,,,,,,,,,,,,,,,,a,2.019999981,POTA,FALSE,,,,,,,10,botella,Spanish,Sounds/spa_botella.mp3,2020-06-24_16h56.41.467,TranslationElicitation_eng-prolific,3.2.4,MacIntel,60,5e32a996077089274299680f,,1,0,98,8,1,97
,,,,,,,,,,,,,,,,,,,,,,,,,,,,,,,,,,,,,,,,,t,2.134000063,POTAT,FALSE,,,,,,,10,botella,Spanish,Sounds/spa_botella.mp3,2020-06-24_16h56.41.467,TranslationElicitation_eng-prolific,3.2.4,MacIntel,60,5e32a996077089274299680f,,1,0,98,8,1,97
,,,,,,,,,,,,,,,,,,,,,,,,,,,,,,,,,,,,,,,,,o,2.236000061,POTATO,FALSE,,,,,,,10,botella,Spanish,Sounds/spa_botella.mp3,2020-06-24_16h56.41.467,TranslationElicitation_eng-prolific,3.2.4,MacIntel,60,5e32a996077089274299680f,,1,0,98,8,1,97
,,,,,,,,,,,,,,,,,,,,,,,,,,,,,,,,,,,,,,,,,r,2.371999979,POTATOR,FALSE,,,,,,,10,botella,Spanish,Sounds/spa_botella.mp3,2020-06-24_16h56.41.467,TranslationElicitation_eng-prolific,3.2.4,MacIntel,60,5e32a996077089274299680f,,1,0,98,8,1,97
,,,,,,,,,,,,,,,,,,,,,,,,,,,,,,,,,,,,,,,,,backspace,2.776000023,POTATO,TRUE,,,,,,,10,botella,Spanish,Sounds/spa_botella.mp3,2020-06-24_16h56.41.467,TranslationElicitation_eng-prolific,3.2.4,MacIntel,60,5e32a996077089274299680f,,1,0,98,8,1,97
,,,,,,,,,,,,,,,,,,,,,,,,,,,,,,,,,,,,,,,,,e,2.839999914,POTATOE,TRUE,,,,,,,10,botella,Spanish,Sounds/spa_botella.mp3,2020-06-24_16h56.41.467,TranslationElicitation_eng-prolific,3.2.4,MacIntel,60,5e32a996077089274299680f,,1,0,98,8,1,97
,,,,,,,,,,,,,,,,,,,,,,,,,,,,,,,,,,,,,,,,,return,3.322000027,POTATOE,TRUE,,,,,,,10,botella,Spanish,Sounds/spa_botella.mp3,2020-06-24_16h56.41.467,TranslationElicitation_eng-prolific,3.2.4,MacIntel,60,5e32a996077089274299680f,3.322000027,1,0,98,8,1,97
,,,,,,,,,,,,,,,,,,,,,,,,,,,,,,,,,,,,,,,,,,,,,,,,,,,10,botella,Spanish,Sounds/spa_botella.mp3,2020-06-24_16h56.41.467,TranslationElicitation_eng-prolific,3.2.4,MacIntel,60,5e32a996077089274299680f,,1,0,98,8,1,97
,,,,,,,,,,,,,,,,,,,,,,,,,,,,,,,,,,,,,,,,,e,12.20600009,E,FALSE,,,,,,,35,esponja,Spanish,Sounds/spa_esponja.mp3,2020-06-24_16h56.41.467,TranslationElicitation_eng-prolific,3.2.4,MacIntel,60,5e32a996077089274299680f,,1,0,98,31,1,97
,,,,,,,,,,,,,,,,,,,,,,,,,,,,,,,,,,,,,,,,,s,12.36199999,ES,FALSE,,,,,,,35,esponja,Spanish,Sounds/spa_esponja.mp3,2020-06-24_16h56.41.467,TranslationElicitation_eng-prolific,3.2.4,MacIntel,60,5e32a996077089274299680f,,1,0,98,31,1,97
,,,,,,,,,,,,,,,,,,,,,,,,,,,,,,,,,,,,,,,,,p,13.01200008,ESP,FALSE,,,,,,,35,esponja,Spanish,Sounds/spa_esponja.mp3,2020-06-24_16h56.41.467,TranslationElicitation_eng-prolific,3.2.4,MacIntel,60,5e32a996077089274299680f,,1,0,98,31,1,97
,,,,,,,,,,,,,,,,,,,,,,,,,,,,,,,,,,,,,,,,,e,13.09700012,ESPE,FALSE,,,,,,,35,esponja,Spanish,Sounds/spa_esponja.mp3,2020-06-24_16h56.41.467,TranslationElicitation_eng-prolific,3.2.4,MacIntel,60,5e32a996077089274299680f,,1,0,98,31,1,97
,,,,,,,,,,,,,,,,,,,,,,,,,,,,,,,,,,,,,,,,,c,13.43000007,ESPEC,FALSE,,,,,,,35,esponja,Spanish,Sounds/spa_esponja.mp3,2020-06-24_16h56.41.467,TranslationElicitation_eng-prolific,3.2.4,MacIntel,60,5e32a996077089274299680f,,1,0,98,31,1,97
,,,,,,,,,,,,,,,,,,,,,,,,,,,,,,,,,,,,,,,,,i,13.99300003,ESPECI,FALSE,,,,,,,35,esponja,Spanish,Sounds/spa_esponja.mp3,2020-06-24_16h56.41.467,TranslationElicitation_eng-prolific,3.2.4,MacIntel,60,5e32a996077089274299680f,,1,0,98,31,1,97
,,,,,,,,,,,,,,,,,,,,,,,,,,,,,,,,,,,,,,,,,a,14.10899997,ESPECIA,FALSE,,,,,,,35,esponja,Spanish,Sounds/spa_esponja.mp3,2020-06-24_16h56.41.467,TranslationElicitation_eng-prolific,3.2.4,MacIntel,60,5e32a996077089274299680f,,1,0,98,31,1,97
,,,,,,,,,,,,,,,,,,,,,,,,,,,,,,,,,,,,,,,,,l,14.204,ESPECIAL,FALSE,,,,,,,35,esponja,Spanish,Sounds/spa_esponja.mp3,2020-06-24_16h56.41.467,TranslationElicitation_eng-prolific,3.2.4,MacIntel,60,5e32a996077089274299680f,,1,0,98,31,1,97
,,,,,,,,,,,,,,,,,,,,,,,,,,,,,,,,,,,,,,,,,l,14.36100006,ESPECIALL,FALSE,,,,,,,35,esponja,Spanish,Sounds/spa_esponja.mp3,2020-06-24_16h56.41.467,TranslationElicitation_eng-prolific,3.2.4,MacIntel,60,5e32a996077089274299680f,,1,0,98,31,1,97
,,,,,,,,,,,,,,,,,,,,,,,,,,,,,,,,,,,,,,,,,y,14.48799992,ESPECIALLY,FALSE,,,,,,,35,esponja,Spanish,Sounds/spa_esponja.mp3,2020-06-24_16h56.41.467,TranslationElicitation_eng-prolific,3.2.4,MacIntel,60,5e32a996077089274299680f,,1,0,98,31,1,97
,,,,,,,,,,,,,,,,,,,,,,,,,,,,,,,,,,,,,,,,,return,14.71799994,ESPECIALLY,FALSE,,,,,,,35,esponja,Spanish,Sounds/spa_esponja.mp3,2020-06-24_16h56.41.467,TranslationElicitation_eng-prolific,3.2.4,MacIntel,60,5e32a996077089274299680f,14.71799994,1,0,98,31,1,97
,,,,,,,,,,,,,,,,,,,,,,,,,,,,,,,,,,,,,,,,,,,,,,,,,,,35,esponja,Spanish,Sounds/spa_esponja.mp3,2020-06-24_16h56.41.467,TranslationElicitation_eng-prolific,3.2.4,MacIntel,60,5e32a996077089274299680f,,1,0,98,31,1,97
,,,,,,,,,,,,,,,,,,,,,,,,,,,,,,,,,,,,,,,,,t,1.986000061,T,FALSE,,,,,,,101,tren,Spanish,Sounds/spa_tren.mp3,2020-06-24_16h56.41.467,TranslationElicitation_eng-prolific,3.2.4,MacIntel,60,5e32a996077089274299680f,,1,0,98,95,1,97
,,,,,,,,,,,,,,,,,,,,,,,,,,,,,,,,,,,,,,,,,r,2.14199996,TR,FALSE,,,,,,,101,tren,Spanish,Sounds/spa_tren.mp3,2020-06-24_16h56.41.467,TranslationElicitation_eng-prolific,3.2.4,MacIntel,60,5e32a996077089274299680f,,1,0,98,95,1,97
,,,,,,,,,,,,,,,,,,,,,,,,,,,,,,,,,,,,,,,,,a,2.270999908,TRA,FALSE,,,,,,,101,tren,Spanish,Sounds/spa_tren.mp3,2020-06-24_16h56.41.467,TranslationElicitation_eng-prolific,3.2.4,MacIntel,60,5e32a996077089274299680f,,1,0,98,95,1,97
,,,,,,,,,,,,,,,,,,,,,,,,,,,,,,,,,,,,,,,,,i,2.335999966,TRAI,FALSE,,,,,,,101,tren,Spanish,Sounds/spa_tren.mp3,2020-06-24_16h56.41.467,TranslationElicitation_eng-prolific,3.2.4,MacIntel,60,5e32a996077089274299680f,,1,0,98,95,1,97
,,,,,,,,,,,,,,,,,,,,,,,,,,,,,,,,,,,,,,,,,n,2.40199995,TRAIN,FALSE,,,,,,,101,tren,Spanish,Sounds/spa_tren.mp3,2020-06-24_16h56.41.467,TranslationElicitation_eng-prolific,3.2.4,MacIntel,60,5e32a996077089274299680f,,1,0,98,95,1,97
,,,,,,,,,,,,,,,,,,,,,,,,,,,,,,,,,,,,,,,,,return,2.618000031,TRAIN,FALSE,,,,,,,101,tren,Spanish,Sounds/spa_tren.mp3,2020-06-24_16h56.41.467,TranslationElicitation_eng-prolific,3.2.4,MacIntel,60,5e32a996077089274299680f,2.618000031,1,0,98,95,1,97
,,,,,,,,,,,,,,,,,,,,,,,,,,,,,,,,,,,,,,,,,,,,,,,,,,,101,tren,Spanish,Sounds/spa_tren.mp3,2020-06-24_16h56.41.467,TranslationElicitation_eng-prolific,3.2.4,MacIntel,60,5e32a996077089274299680f,,1,0,98,95,1,97
,,,,,,,,,,,,,,,,,,,,,,,,,,,,,,,,,,,,,,,,,l,2.368999958,L,FALSE,,,,,,,52,lapiz,Spanish,Sounds/spa_lapiz.mp3,2020-06-24_16h56.41.467,TranslationElicitation_eng-prolific,3.2.4,MacIntel,60,5e32a996077089274299680f,,1,0,98,48,1,97
,,,,,,,,,,,,,,,,,,,,,,,,,,,,,,,,,,,,,,,,,a,2.434000015,LA,FALSE,,,,,,,52,lapiz,Spanish,Sounds/spa_lapiz.mp3,2020-06-24_16h56.41.467,TranslationElicitation_eng-prolific,3.2.4,MacIntel,60,5e32a996077089274299680f,,1,0,98,48,1,97
,,,,,,,,,,,,,,,,,,,,,,,,,,,,,,,,,,,,,,,,,p,2.603999853,LAP,FALSE,,,,,,,52,lapiz,Spanish,Sounds/spa_lapiz.mp3,2020-06-24_16h56.41.467,TranslationElicitation_eng-prolific,3.2.4,MacIntel,60,5e32a996077089274299680f,,1,0,98,48,1,97
,,,,,,,,,,,,,,,,,,,,,,,,,,,,,,,,,,,,,,,,,t,3.513000011,LAPT,FALSE,,,,,,,52,lapiz,Spanish,Sounds/spa_lapiz.mp3,2020-06-24_16h56.41.467,TranslationElicitation_eng-prolific,3.2.4,MacIntel,60,5e32a996077089274299680f,,1,0,98,48,1,97
,,,,,,,,,,,,,,,,,,,,,,,,,,,,,,,,,,,,,,,,,o,3.601999998,LAPTO,FALSE,,,,,,,52,lapiz,Spanish,Sounds/spa_lapiz.mp3,2020-06-24_16h56.41.467,TranslationElicitation_eng-prolific,3.2.4,MacIntel,60,5e32a996077089274299680f,,1,0,98,48,1,97
,,,,,,,,,,,,,,,,,,,,,,,,,,,,,,,,,,,,,,,,,p,3.662999868,LAPTOP,FALSE,,,,,,,52,lapiz,Spanish,Sounds/spa_lapiz.mp3,2020-06-24_16h56.41.467,TranslationElicitation_eng-prolific,3.2.4,MacIntel,60,5e32a996077089274299680f,,1,0,98,48,1,97
,,,,,,,,,,,,,,,,,,,,,,,,,,,,,,,,,,,,,,,,,return,4.109999895,LAPTOP,FALSE,,,,,,,52,lapiz,Spanish,Sounds/spa_lapiz.mp3,2020-06-24_16h56.41.467,TranslationElicitation_eng-prolific,3.2.4,MacIntel,60,5e32a996077089274299680f,4.109999895,1,0,98,48,1,97
,,,,,,,,,,,,,,,,,,,,,,,,,,,,,,,,,,,,,,,,,,,,,,,,,,,52,lapiz,Spanish,Sounds/spa_lapiz.mp3,2020-06-24_16h56.41.467,TranslationElicitation_eng-prolific,3.2.4,MacIntel,60,5e32a996077089274299680f,,1,0,98,48,1,97
,,,,,,,,,,,,,,,,,,,,,,,,,,,,,,,,,,,,,,,,,t,1.501000166,T,FALSE,,,,,,,77,pantalon,Spanish,Sounds/spa_pantalon.mp3,2020-06-24_16h56.41.467,TranslationElicitation_eng-prolific,3.2.4,MacIntel,60,5e32a996077089274299680f,,1,0,98,72,1,97
,,,,,,,,,,,,,,,,,,,,,,,,,,,,,,,,,,,,,,,,,r,1.666000128,TR,FALSE,,,,,,,77,pantalon,Spanish,Sounds/spa_pantalon.mp3,2020-06-24_16h56.41.467,TranslationElicitation_eng-prolific,3.2.4,MacIntel,60,5e32a996077089274299680f,,1,0,98,72,1,97
,,,,,,,,,,,,,,,,,,,,,,,,,,,,,,,,,,,,,,,,,o,1.769000053,TRO,FALSE,,,,,,,77,pantalon,Spanish,Sounds/spa_pantalon.mp3,2020-06-24_16h56.41.467,TranslationElicitation_eng-prolific,3.2.4,MacIntel,60,5e32a996077089274299680f,,1,0,98,72,1,97
,,,,,,,,,,,,,,,,,,,,,,,,,,,,,,,,,,,,,,,,,u,1.867000103,TROU,FALSE,,,,,,,77,pantalon,Spanish,Sounds/spa_pantalon.mp3,2020-06-24_16h56.41.467,TranslationElicitation_eng-prolific,3.2.4,MacIntel,60,5e32a996077089274299680f,,1,0,98,72,1,97
,,,,,,,,,,,,,,,,,,,,,,,,,,,,,,,,,,,,,,,,,s,2.001000166,TROUS,FALSE,,,,,,,77,pantalon,Spanish,Sounds/spa_pantalon.mp3,2020-06-24_16h56.41.467,TranslationElicitation_eng-prolific,3.2.4,MacIntel,60,5e32a996077089274299680f,,1,0,98,72,1,97
,,,,,,,,,,,,,,,,,,,,,,,,,,,,,,,,,,,,,,,,,e,2.187000036,TROUSE,FALSE,,,,,,,77,pantalon,Spanish,Sounds/spa_pantalon.mp3,2020-06-24_16h56.41.467,TranslationElicitation_eng-prolific,3.2.4,MacIntel,60,5e32a996077089274299680f,,1,0,98,72,1,97
,,,,,,,,,,,,,,,,,,,,,,,,,,,,,,,,,,,,,,,,,r,2.257000208,TROUSER,FALSE,,,,,,,77,pantalon,Spanish,Sounds/spa_pantalon.mp3,2020-06-24_16h56.41.467,TranslationElicitation_eng-prolific,3.2.4,MacIntel,60,5e32a996077089274299680f,,1,0,98,72,1,97
,,,,,,,,,,,,,,,,,,,,,,,,,,,,,,,,,,,,,,,,,s,2.450000048,TROUSERS,FALSE,,,,,,,77,pantalon,Spanish,Sounds/spa_pantalon.mp3,2020-06-24_16h56.41.467,TranslationElicitation_eng-prolific,3.2.4,MacIntel,60,5e32a996077089274299680f,,1,0,98,72,1,97
,,,,,,,,,,,,,,,,,,,,,,,,,,,,,,,,,,,,,,,,,return,2.606000185,TROUSERS,FALSE,,,,,,,77,pantalon,Spanish,Sounds/spa_pantalon.mp3,2020-06-24_16h56.41.467,TranslationElicitation_eng-prolific,3.2.4,MacIntel,60,5e32a996077089274299680f,2.606000185,1,0,98,72,1,97
,,,,,,,,,,,,,,,,,,,,,,,,,,,,,,,,,,,,,,,,,,,,,,,,,,,77,pantalon,Spanish,Sounds/spa_pantalon.mp3,2020-06-24_16h56.41.467,TranslationElicitation_eng-prolific,3.2.4,MacIntel,60,5e32a996077089274299680f,,1,0,98,72,1,97
,,,,,,,,,,,,,,,,,,,,,,,,,,,,,,,,,,,,,,,,,d,3.109999895,D,FALSE,,,,,,,53,leche,Spanish,Sounds/spa_leche.mp3,2020-06-24_16h56.41.467,TranslationElicitation_eng-prolific,3.2.4,MacIntel,60,5e32a996077089274299680f,,1,0,98,49,1,97
,,,,,,,,,,,,,,,,,,,,,,,,,,,,,,,,,,,,,,,,,r,3.277999878,DR,FALSE,,,,,,,53,leche,Spanish,Sounds/spa_leche.mp3,2020-06-24_16h56.41.467,TranslationElicitation_eng-prolific,3.2.4,MacIntel,60,5e32a996077089274299680f,,1,0,98,49,1,97
,,,,,,,,,,,,,,,,,,,,,,,,,,,,,,,,,,,,,,,,,i,3.450000048,DRI,FALSE,,,,,,,53,leche,Spanish,Sounds/spa_leche.mp3,2020-06-24_16h56.41.467,TranslationElicitation_eng-prolific,3.2.4,MacIntel,60,5e32a996077089274299680f,,1,0,98,49,1,97
,,,,,,,,,,,,,,,,,,,,,,,,,,,,,,,,,,,,,,,,,n,3.552999973,DRIN,FALSE,,,,,,,53,leche,Spanish,Sounds/spa_leche.mp3,2020-06-24_16h56.41.467,TranslationElicitation_eng-prolific,3.2.4,MacIntel,60,5e32a996077089274299680f,,1,0,98,49,1,97
,,,,,,,,,,,,,,,,,,,,,,,,,,,,,,,,,,,,,,,,,k,3.660000086,DRINK,FALSE,,,,,,,53,leche,Spanish,Sounds/spa_leche.mp3,2020-06-24_16h56.41.467,TranslationElicitation_eng-prolific,3.2.4,MacIntel,60,5e32a996077089274299680f,,1,0,98,49,1,97
,,,,,,,,,,,,,,,,,,,,,,,,,,,,,,,,,,,,,,,,,return,3.98300004,DRINK,FALSE,,,,,,,53,leche,Spanish,Sounds/spa_leche.mp3,2020-06-24_16h56.41.467,TranslationElicitation_eng-prolific,3.2.4,MacIntel,60,5e32a996077089274299680f,3.98300004,1,0,98,49,1,97
,,,,,,,,,,,,,,,,,,,,,,,,,,,,,,,,,,,,,,,,,,,,,,,,,,,53,leche,Spanish,Sounds/spa_leche.mp3,2020-06-24_16h56.41.467,TranslationElicitation_eng-prolific,3.2.4,MacIntel,60,5e32a996077089274299680f,,1,0,98,49,1,97
,,,,,,,,,,,,,,,,,,,,,,,,,,,,,,,,,,,,,,,,,b,1.67599988,B,FALSE,,,,,,,11,boton,Spanish,Sounds/spa_boton.mp3,2020-06-24_16h56.41.467,TranslationElicitation_eng-prolific,3.2.4,MacIntel,60,5e32a996077089274299680f,,1,0,98,9,1,97
,,,,,,,,,,,,,,,,,,,,,,,,,,,,,,,,,,,,,,,,,u,1.921999931,BU,FALSE,,,,,,,11,boton,Spanish,Sounds/spa_boton.mp3,2020-06-24_16h56.41.467,TranslationElicitation_eng-prolific,3.2.4,MacIntel,60,5e32a996077089274299680f,,1,0,98,9,1,97
,,,,,,,,,,,,,,,,,,,,,,,,,,,,,,,,,,,,,,,,,t,2.069999933,BUT,FALSE,,,,,,,11,boton,Spanish,Sounds/spa_boton.mp3,2020-06-24_16h56.41.467,TranslationElicitation_eng-prolific,3.2.4,MacIntel,60,5e32a996077089274299680f,,1,0,98,9,1,97
,,,,,,,,,,,,,,,,,,,,,,,,,,,,,,,,,,,,,,,,,t,2.238999844,BUTT,FALSE,,,,,,,11,boton,Spanish,Sounds/spa_boton.mp3,2020-06-24_16h56.41.467,TranslationElicitation_eng-prolific,3.2.4,MacIntel,60,5e32a996077089274299680f,,1,0,98,9,1,97
,,,,,,,,,,,,,,,,,,,,,,,,,,,,,,,,,,,,,,,,,o,2.303999901,BUTTO,FALSE,,,,,,,11,boton,Spanish,Sounds/spa_boton.mp3,2020-06-24_16h56.41.467,TranslationElicitation_eng-prolific,3.2.4,MacIntel,60,5e32a996077089274299680f,,1,0,98,9,1,97
,,,,,,,,,,,,,,,,,,,,,,,,,,,,,,,,,,,,,,,,,n,2.687999964,BUTTON,FALSE,,,,,,,11,boton,Spanish,Sounds/spa_boton.mp3,2020-06-24_16h56.41.467,TranslationElicitation_eng-prolific,3.2.4,MacIntel,60,5e32a996077089274299680f,,1,0,98,9,1,97
,,,,,,,,,,,,,,,,,,,,,,,,,,,,,,,,,,,,,,,,,return,3.016000032,BUTTON,FALSE,,,,,,,11,boton,Spanish,Sounds/spa_boton.mp3,2020-06-24_16h56.41.467,TranslationElicitation_eng-prolific,3.2.4,MacIntel,60,5e32a996077089274299680f,3.016000032,1,0,98,9,1,97
,,,,,,,,,,,,,,,,,,,,,,,,,,,,,,,,,,,,,,,,,,,,,,,,,,,11,boton,Spanish,Sounds/spa_boton.mp3,2020-06-24_16h56.41.467,TranslationElicitation_eng-prolific,3.2.4,MacIntel,60,5e32a996077089274299680f,,1,0,98,9,1,97
,,,,,,,,,,,,,,,,,,,,,,,,,,,,,,,,,,,,,,,,,t,2.272000074,T,FALSE,,,,,,,100,toro,Spanish,Sounds/spa_toro.mp3,2020-06-24_16h56.41.467,TranslationElicitation_eng-prolific,3.2.4,MacIntel,60,5e32a996077089274299680f,,1,0,98,94,1,97
,,,,,,,,,,,,,,,,,,,,,,,,,,,,,,,,,,,,,,,,,o,2.360000134,TO,FALSE,,,,,,,100,toro,Spanish,Sounds/spa_toro.mp3,2020-06-24_16h56.41.467,TranslationElicitation_eng-prolific,3.2.4,MacIntel,60,5e32a996077089274299680f,,1,0,98,94,1,97
,,,,,,,,,,,,,,,,,,,,,,,,,,,,,,,,,,,,,,,,,r,2.463999987,TOR,FALSE,,,,,,,100,toro,Spanish,Sounds/spa_toro.mp3,2020-06-24_16h56.41.467,TranslationElicitation_eng-prolific,3.2.4,MacIntel,60,5e32a996077089274299680f,,1,0,98,94,1,97
,,,,,,,,,,,,,,,,,,,,,,,,,,,,,,,,,,,,,,,,,s,2.690999985,TORS,FALSE,,,,,,,100,toro,Spanish,Sounds/spa_toro.mp3,2020-06-24_16h56.41.467,TranslationElicitation_eng-prolific,3.2.4,MacIntel,60,5e32a996077089274299680f,,1,0,98,94,1,97
,,,,,,,,,,,,,,,,,,,,,,,,,,,,,,,,,,,,,,,,,o,2.822999954,TORSO,FALSE,,,,,,,100,toro,Spanish,Sounds/spa_toro.mp3,2020-06-24_16h56.41.467,TranslationElicitation_eng-prolific,3.2.4,MacIntel,60,5e32a996077089274299680f,,1,0,98,94,1,97
,,,,,,,,,,,,,,,,,,,,,,,,,,,,,,,,,,,,,,,,,return,3.03399992,TORSO,FALSE,,,,,,,100,toro,Spanish,Sounds/spa_toro.mp3,2020-06-24_16h56.41.467,TranslationElicitation_eng-prolific,3.2.4,MacIntel,60,5e32a996077089274299680f,3.03399992,1,0,98,94,1,97
,,,,,,,,,,,,,,,,,,,,,,,,,,,,,,,,,,,,,,,,,,,,,,,,,,,100,toro,Spanish,Sounds/spa_toro.mp3,2020-06-24_16h56.41.467,TranslationElicitation_eng-prolific,3.2.4,MacIntel,60,5e32a996077089274299680f,,1,0,98,94,1,97
,,,,,,,,,,,,,,,,,,,,,,,,,,,,,,,,,,,,,,,,,b,1.671999931,B,FALSE,,,,,,,85,pierna,Spanish,Sounds/spa_pierna.mp3,2020-06-24_16h56.41.467,TranslationElicitation_eng-prolific,3.2.4,MacIntel,60,5e32a996077089274299680f,,1,0,98,80,1,97
,,,,,,,,,,,,,,,,,,,,,,,,,,,,,,,,,,,,,,,,,e,1.77699995,BE,FALSE,,,,,,,85,pierna,Spanish,Sounds/spa_pierna.mp3,2020-06-24_16h56.41.467,TranslationElicitation_eng-prolific,3.2.4,MacIntel,60,5e32a996077089274299680f,,1,0,98,80,1,97
,,,,,,,,,,,,,,,,,,,,,,,,,,,,,,,,,,,,,,,,,e,1.962000132,BEE,FALSE,,,,,,,85,pierna,Spanish,Sounds/spa_pierna.mp3,2020-06-24_16h56.41.467,TranslationElicitation_eng-prolific,3.2.4,MacIntel,60,5e32a996077089274299680f,,1,0,98,80,1,97
,,,,,,,,,,,,,,,,,,,,,,,,,,,,,,,,,,,,,,,,,r,2.02699995,BEER,FALSE,,,,,,,85,pierna,Spanish,Sounds/spa_pierna.mp3,2020-06-24_16h56.41.467,TranslationElicitation_eng-prolific,3.2.4,MacIntel,60,5e32a996077089274299680f,,1,0,98,80,1,97
,,,,,,,,,,,,,,,,,,,,,,,,,,,,,,,,,,,,,,,,,return,2.134000063,BEER,FALSE,,,,,,,85,pierna,Spanish,Sounds/spa_pierna.mp3,2020-06-24_16h56.41.467,TranslationElicitation_eng-prolific,3.2.4,MacIntel,60,5e32a996077089274299680f,2.134000063,1,0,98,80,1,97
,,,,,,,,,,,,,,,,,,,,,,,,,,,,,,,,,,,,,,,,,,,,,,,,,,,85,pierna,Spanish,Sounds/spa_pierna.mp3,2020-06-24_16h56.41.467,TranslationElicitation_eng-prolific,3.2.4,MacIntel,60,5e32a996077089274299680f,,1,0,98,80,1,97
,,,,,,,,,,,,,,,,,,,,,,,,,,,,,,,,,,,,,,,,,u,1.138000011,U,FALSE,,,,,,,47,guitarra,Spanish,Sounds/spa_guitarra.mp3,2020-06-24_16h56.41.467,TranslationElicitation_eng-prolific,3.2.4,MacIntel,60,5e32a996077089274299680f,,1,0,98,43,1,97
,,,,,,,,,,,,,,,,,,,,,,,,,,,,,,,,,,,,,,,,,i,1.305999994,UI,FALSE,,,,,,,47,guitarra,Spanish,Sounds/spa_guitarra.mp3,2020-06-24_16h56.41.467,TranslationElicitation_eng-prolific,3.2.4,MacIntel,60,5e32a996077089274299680f,,1,0,98,43,1,97
,,,,,,,,,,,,,,,,,,,,,,,,,,,,,,,,,,,,,,,,,t,1.346000195,UIT,FALSE,,,,,,,47,guitarra,Spanish,Sounds/spa_guitarra.mp3,2020-06-24_16h56.41.467,TranslationElicitation_eng-prolific,3.2.4,MacIntel,60,5e32a996077089274299680f,,1,0,98,43,1,97
,,,,,,,,,,,,,,,,,,,,,,,,,,,,,,,,,,,,,,,,,a,1.508000135,UITA,FALSE,,,,,,,47,guitarra,Spanish,Sounds/spa_guitarra.mp3,2020-06-24_16h56.41.467,TranslationElicitation_eng-prolific,3.2.4,MacIntel,60,5e32a996077089274299680f,,1,0,98,43,1,97
,,,,,,,,,,,,,,,,,,,,,,,,,,,,,,,,,,,,,,,,,r,1.578000069,UITAR,FALSE,,,,,,,47,guitarra,Spanish,Sounds/spa_guitarra.mp3,2020-06-24_16h56.41.467,TranslationElicitation_eng-prolific,3.2.4,MacIntel,60,5e32a996077089274299680f,,1,0,98,43,1,97
,,,,,,,,,,,,,,,,,,,,,,,,,,,,,,,,,,,,,,,,,backspace,1.82400012,UITA,TRUE,,,,,,,47,guitarra,Spanish,Sounds/spa_guitarra.mp3,2020-06-24_16h56.41.467,TranslationElicitation_eng-prolific,3.2.4,MacIntel,60,5e32a996077089274299680f,,1,0,98,43,1,97
,,,,,,,,,,,,,,,,,,,,,,,,,,,,,,,,,,,,,,,,,backspace,1.965000153,UIT,TRUE,,,,,,,47,guitarra,Spanish,Sounds/spa_guitarra.mp3,2020-06-24_16h56.41.467,TranslationElicitation_eng-prolific,3.2.4,MacIntel,60,5e32a996077089274299680f,,1,0,98,43,1,97
,,,,,,,,,,,,,,,,,,,,,,,,,,,,,,,,,,,,,,,,,backspace,2.125,UI,TRUE,,,,,,,47,guitarra,Spanish,Sounds/spa_guitarra.mp3,2020-06-24_16h56.41.467,TranslationElicitation_eng-prolific,3.2.4,MacIntel,60,5e32a996077089274299680f,,1,0,98,43,1,97
,,,,,,,,,,,,,,,,,,,,,,,,,,,,,,,,,,,,,,,,,backspace,2.292000055,U,TRUE,,,,,,,47,guitarra,Spanish,Sounds/spa_guitarra.mp3,2020-06-24_16h56.41.467,TranslationElicitation_eng-prolific,3.2.4,MacIntel,60,5e32a996077089274299680f,,1,0,98,43,1,97
,,,,,,,,,,,,,,,,,,,,,,,,,,,,,,,,,,,,,,,,,backspace,2.526000023,,TRUE,,,,,,,47,guitarra,Spanish,Sounds/spa_guitarra.mp3,2020-06-24_16h56.41.467,TranslationElicitation_eng-prolific,3.2.4,MacIntel,60,5e32a996077089274299680f,,1,0,98,43,1,97
,,,,,,,,,,,,,,,,,,,,,,,,,,,,,,,,,,,,,,,,,g,2.563000202,G,TRUE,,,,,,,47,guitarra,Spanish,Sounds/spa_guitarra.mp3,2020-06-24_16h56.41.467,TranslationElicitation_eng-prolific,3.2.4,MacIntel,60,5e32a996077089274299680f,,1,0,98,43,1,97
,,,,,,,,,,,,,,,,,,,,,,,,,,,,,,,,,,,,,,,,,u,2.721000195,GU,TRUE,,,,,,,47,guitarra,Spanish,Sounds/spa_guitarra.mp3,2020-06-24_16h56.41.467,TranslationElicitation_eng-prolific,3.2.4,MacIntel,60,5e32a996077089274299680f,,1,0,98,43,1,97
,,,,,,,,,,,,,,,,,,,,,,,,,,,,,,,,,,,,,,,,,i,3.171000004,GUI,TRUE,,,,,,,47,guitarra,Spanish,Sounds/spa_guitarra.mp3,2020-06-24_16h56.41.467,TranslationElicitation_eng-prolific,3.2.4,MacIntel,60,5e32a996077089274299680f,,1,0,98,43,1,97
,,,,,,,,,,,,,,,,,,,,,,,,,,,,,,,,,,,,,,,,,r,3.481000185,GUIR,TRUE,,,,,,,47,guitarra,Spanish,Sounds/spa_guitarra.mp3,2020-06-24_16h56.41.467,TranslationElicitation_eng-prolific,3.2.4,MacIntel,60,5e32a996077089274299680f,,1,0,98,43,1,97
,,,,,,,,,,,,,,,,,,,,,,,,,,,,,,,,,,,,,,,,,a,3.639000177,GUIRA,TRUE,,,,,,,47,guitarra,Spanish,Sounds/spa_guitarra.mp3,2020-06-24_16h56.41.467,TranslationElicitation_eng-prolific,3.2.4,MacIntel,60,5e32a996077089274299680f,,1,0,98,43,1,97
,,,,,,,,,,,,,,,,,,,,,,,,,,,,,,,,,,,,,,,,,backspace,3.941000223,GUIR,TRUE,,,,,,,47,guitarra,Spanish,Sounds/spa_guitarra.mp3,2020-06-24_16h56.41.467,TranslationElicitation_eng-prolific,3.2.4,MacIntel,60,5e32a996077089274299680f,,1,0,98,43,1,97
,,,,,,,,,,,,,,,,,,,,,,,,,,,,,,,,,,,,,,,,,backspace,4.104000092,GUI,TRUE,,,,,,,47,guitarra,Spanish,Sounds/spa_guitarra.mp3,2020-06-24_16h56.41.467,TranslationElicitation_eng-prolific,3.2.4,MacIntel,60,5e32a996077089274299680f,,1,0,98,43,1,97
,,,,,,,,,,,,,,,,,,,,,,,,,,,,,,,,,,,,,,,,,t,4.203000069,GUIT,TRUE,,,,,,,47,guitarra,Spanish,Sounds/spa_guitarra.mp3,2020-06-24_16h56.41.467,TranslationElicitation_eng-prolific,3.2.4,MacIntel,60,5e32a996077089274299680f,,1,0,98,43,1,97
,,,,,,,,,,,,,,,,,,,,,,,,,,,,,,,,,,,,,,,,,a,4.32400012,GUITA,TRUE,,,,,,,47,guitarra,Spanish,Sounds/spa_guitarra.mp3,2020-06-24_16h56.41.467,TranslationElicitation_eng-prolific,3.2.4,MacIntel,60,5e32a996077089274299680f,,1,0,98,43,1,97
,,,,,,,,,,,,,,,,,,,,,,,,,,,,,,,,,,,,,,,,,r,4.389000177,GUITAR,TRUE,,,,,,,47,guitarra,Spanish,Sounds/spa_guitarra.mp3,2020-06-24_16h56.41.467,TranslationElicitation_eng-prolific,3.2.4,MacIntel,60,5e32a996077089274299680f,,1,0,98,43,1,97
,,,,,,,,,,,,,,,,,,,,,,,,,,,,,,,,,,,,,,,,,return,4.582000017,GUITAR,TRUE,,,,,,,47,guitarra,Spanish,Sounds/spa_guitarra.mp3,2020-06-24_16h56.41.467,TranslationElicitation_eng-prolific,3.2.4,MacIntel,60,5e32a996077089274299680f,4.582000017,1,0,98,43,1,97
,,,,,,,,,,,,,,,,,,,,,,,,,,,,,,,,,,,,,,,,,,,,,,,,,,,47,guitarra,Spanish,Sounds/spa_guitarra.mp3,2020-06-24_16h56.41.467,TranslationElicitation_eng-prolific,3.2.4,MacIntel,60,5e32a996077089274299680f,,1,0,98,43,1,97
,,,,,,,,,,,,,,,,,,,,,,,,,,,,,,,,,,,,,,,,,c,6.359999895,C,FALSE,,,,,,,32,cuchara,Spanish,Sounds/spa_cuchara.mp3,2020-06-24_16h56.41.467,TranslationElicitation_eng-prolific,3.2.4,MacIntel,60,5e32a996077089274299680f,,1,0,98,28,1,97
,,,,,,,,,,,,,,,,,,,,,,,,,,,,,,,,,,,,,,,,,l,6.421000004,CL,FALSE,,,,,,,32,cuchara,Spanish,Sounds/spa_cuchara.mp3,2020-06-24_16h56.41.467,TranslationElicitation_eng-prolific,3.2.4,MacIntel,60,5e32a996077089274299680f,,1,0,98,28,1,97
,,,,,,,,,,,,,,,,,,,,,,,,,,,,,,,,,,,,,,,,,o,6.487999916,CLO,FALSE,,,,,,,32,cuchara,Spanish,Sounds/spa_cuchara.mp3,2020-06-24_16h56.41.467,TranslationElicitation_eng-prolific,3.2.4,MacIntel,60,5e32a996077089274299680f,,1,0,98,28,1,97
,,,,,,,,,,,,,,,,,,,,,,,,,,,,,,,,,,,,,,,,,t,6.599999905,CLOT,FALSE,,,,,,,32,cuchara,Spanish,Sounds/spa_cuchara.mp3,2020-06-24_16h56.41.467,TranslationElicitation_eng-prolific,3.2.4,MacIntel,60,5e32a996077089274299680f,,1,0,98,28,1,97
,,,,,,,,,,,,,,,,,,,,,,,,,,,,,,,,,,,,,,,,,h,6.789000034,CLOTH,FALSE,,,,,,,32,cuchara,Spanish,Sounds/spa_cuchara.mp3,2020-06-24_16h56.41.467,TranslationElicitation_eng-prolific,3.2.4,MacIntel,60,5e32a996077089274299680f,,1,0,98,28,1,97
,,,,,,,,,,,,,,,,,,,,,,,,,,,,,,,,,,,,,,,,,s,6.958999872,CLOTHS,FALSE,,,,,,,32,cuchara,Spanish,Sounds/spa_cuchara.mp3,2020-06-24_16h56.41.467,TranslationElicitation_eng-prolific,3.2.4,MacIntel,60,5e32a996077089274299680f,,1,0,98,28,1,97
,,,,,,,,,,,,,,,,,,,,,,,,,,,,,,,,,,,,,,,,,return,7.042999983,CLOTHS,FALSE,,,,,,,32,cuchara,Spanish,Sounds/spa_cuchara.mp3,2020-06-24_16h56.41.467,TranslationElicitation_eng-prolific,3.2.4,MacIntel,60,5e32a996077089274299680f,7.042999983,1,0,98,28,1,97
,,,,,,,,,,,,,,,,,,,,,,,,,,,,,,,,,,,,,,,,,,,,,,,,,,,32,cuchara,Spanish,Sounds/spa_cuchara.mp3,2020-06-24_16h56.41.467,TranslationElicitation_eng-prolific,3.2.4,MacIntel,60,5e32a996077089274299680f,,1,0,98,28,1,97
,,,,,,,,,,,,,,,,,,,,,,,,,,,,,,,,,,,,,,,,,c,11.70599985,C,FALSE,,,,,,,40,galleta,Spanish,Sounds/spa_galleta.mp3,2020-06-24_16h56.41.467,TranslationElicitation_eng-prolific,3.2.4,MacIntel,60,5e32a996077089274299680f,,1,0,98,36,1,97
,,,,,,,,,,,,,,,,,,,,,,,,,,,,,,,,,,,,,,,,,h,11.82200003,CH,FALSE,,,,,,,40,galleta,Spanish,Sounds/spa_galleta.mp3,2020-06-24_16h56.41.467,TranslationElicitation_eng-prolific,3.2.4,MacIntel,60,5e32a996077089274299680f,,1,0,98,36,1,97
,,,,,,,,,,,,,,,,,,,,,,,,,,,,,,,,,,,,,,,,,a,11.94099998,CHA,FALSE,,,,,,,40,galleta,Spanish,Sounds/spa_galleta.mp3,2020-06-24_16h56.41.467,TranslationElicitation_eng-prolific,3.2.4,MacIntel,60,5e32a996077089274299680f,,1,0,98,36,1,97
,,,,,,,,,,,,,,,,,,,,,,,,,,,,,,,,,,,,,,,,,i,12.04299998,CHAI,FALSE,,,,,,,40,galleta,Spanish,Sounds/spa_galleta.mp3,2020-06-24_16h56.41.467,TranslationElicitation_eng-prolific,3.2.4,MacIntel,60,5e32a996077089274299680f,,1,0,98,36,1,97
,,,,,,,,,,,,,,,,,,,,,,,,,,,,,,,,,,,,,,,,,backspace,12.34399986,CHA,TRUE,,,,,,,40,galleta,Spanish,Sounds/spa_galleta.mp3,2020-06-24_16h56.41.467,TranslationElicitation_eng-prolific,3.2.4,MacIntel,60,5e32a996077089274299680f,,1,0,98,36,1,97
,,,,,,,,,,,,,,,,,,,,,,,,,,,,,,,,,,,,,,,,,backspace,12.5079999,CH,TRUE,,,,,,,40,galleta,Spanish,Sounds/spa_galleta.mp3,2020-06-24_16h56.41.467,TranslationElicitation_eng-prolific,3.2.4,MacIntel,60,5e32a996077089274299680f,,1,0,98,36,1,97
,,,,,,,,,,,,,,,,,,,,,,,,,,,,,,,,,,,,,,,,,backspace,12.648,C,TRUE,,,,,,,40,galleta,Spanish,Sounds/spa_galleta.mp3,2020-06-24_16h56.41.467,TranslationElicitation_eng-prolific,3.2.4,MacIntel,60,5e32a996077089274299680f,,1,0,98,36,1,97
,,,,,,,,,,,,,,,,,,,,,,,,,,,,,,,,,,,,,,,,,backspace,14.20899987,,TRUE,,,,,,,40,galleta,Spanish,Sounds/spa_galleta.mp3,2020-06-24_16h56.41.467,TranslationElicitation_eng-prolific,3.2.4,MacIntel,60,5e32a996077089274299680f,,1,0,98,36,1,97
,,,,,,,,,,,,,,,,,,,,,,,,,,,,,,,,,,,,,,,,,c,14.55900002,C,TRUE,,,,,,,40,galleta,Spanish,Sounds/spa_galleta.mp3,2020-06-24_16h56.41.467,TranslationElicitation_eng-prolific,3.2.4,MacIntel,60,5e32a996077089274299680f,,1,0,98,36,1,97
,,,,,,,,,,,,,,,,,,,,,,,,,,,,,,,,,,,,,,,,,h,14.67799997,CH,TRUE,,,,,,,40,galleta,Spanish,Sounds/spa_galleta.mp3,2020-06-24_16h56.41.467,TranslationElicitation_eng-prolific,3.2.4,MacIntel,60,5e32a996077089274299680f,,1,0,98,36,1,97
,,,,,,,,,,,,,,,,,,,,,,,,,,,,,,,,,,,,,,,,,a,14.77099991,CHA,TRUE,,,,,,,40,galleta,Spanish,Sounds/spa_galleta.mp3,2020-06-24_16h56.41.467,TranslationElicitation_eng-prolific,3.2.4,MacIntel,60,5e32a996077089274299680f,,1,0,98,36,1,97
,,,,,,,,,,,,,,,,,,,,,,,,,,,,,,,,,,,,,,,,,i,14.89299989,CHAI,TRUE,,,,,,,40,galleta,Spanish,Sounds/spa_galleta.mp3,2020-06-24_16h56.41.467,TranslationElicitation_eng-prolific,3.2.4,MacIntel,60,5e32a996077089274299680f,,1,0,98,36,1,97
,,,,,,,,,,,,,,,,,,,,,,,,,,,,,,,,,,,,,,,,,r,14.99399996,CHAIR,TRUE,,,,,,,40,galleta,Spanish,Sounds/spa_galleta.mp3,2020-06-24_16h56.41.467,TranslationElicitation_eng-prolific,3.2.4,MacIntel,60,5e32a996077089274299680f,,1,0,98,36,1,97
,,,,,,,,,,,,,,,,,,,,,,,,,,,,,,,,,,,,,,,,,return,15.20499992,CHAIR,TRUE,,,,,,,40,galleta,Spanish,Sounds/spa_galleta.mp3,2020-06-24_16h56.41.467,TranslationElicitation_eng-prolific,3.2.4,MacIntel,60,5e32a996077089274299680f,15.20499992,1,0,98,36,1,97
,,,,,,,,,,,,,,,,,,,,,,,,,,,,,,,,,,,,,,,,,,,,,,,,,,,40,galleta,Spanish,Sounds/spa_galleta.mp3,2020-06-24_16h56.41.467,TranslationElicitation_eng-prolific,3.2.4,MacIntel,60,5e32a996077089274299680f,,1,0,98,36,1,97
,,,,,,,,,,,,,,,,,,,,,,,,,,,,,,,,,,,,,,,,,b,3.562000036,B,FALSE,,,,,,,13,buho,Spanish,Sounds/spa_buho.mp3,2020-06-24_16h56.41.467,TranslationElicitation_eng-prolific,3.2.4,MacIntel,60,5e32a996077089274299680f,,1,0,98,11,1,97
,,,,,,,,,,,,,,,,,,,,,,,,,,,,,,,,,,,,,,,,,u,3.803999901,BU,FALSE,,,,,,,13,buho,Spanish,Sounds/spa_buho.mp3,2020-06-24_16h56.41.467,TranslationElicitation_eng-prolific,3.2.4,MacIntel,60,5e32a996077089274299680f,,1,0,98,11,1,97
,,,,,,,,,,,,,,,,,,,,,,,,,,,,,,,,,,,,,,,,,l,4.148000002,BUL,FALSE,,,,,,,13,buho,Spanish,Sounds/spa_buho.mp3,2020-06-24_16h56.41.467,TranslationElicitation_eng-prolific,3.2.4,MacIntel,60,5e32a996077089274299680f,,1,0,98,11,1,97
,,,,,,,,,,,,,,,,,,,,,,,,,,,,,,,,,,,,,,,,,l,4.562000036,BULL,FALSE,,,,,,,13,buho,Spanish,Sounds/spa_buho.mp3,2020-06-24_16h56.41.467,TranslationElicitation_eng-prolific,3.2.4,MacIntel,60,5e32a996077089274299680f,,1,0,98,11,1,97
,,,,,,,,,,,,,,,,,,,,,,,,,,,,,,,,,,,,,,,,,return,5.006999969,BULL,FALSE,,,,,,,13,buho,Spanish,Sounds/spa_buho.mp3,2020-06-24_16h56.41.467,TranslationElicitation_eng-prolific,3.2.4,MacIntel,60,5e32a996077089274299680f,5.006999969,1,0,98,11,1,97
,,,,,,,,,,,,,,,,,,,,,,,,,,,,,,,,,,,,,,,,,,,,,,,,,,,13,buho,Spanish,Sounds/spa_buho.mp3,2020-06-24_16h56.41.467,TranslationElicitation_eng-prolific,3.2.4,MacIntel,60,5e32a996077089274299680f,,1,0,98,11,1,97
,,,,,,,,,,,,,,,,,,,,,,,,,,,,,,,,,,,,,,,,,b,3.223999977,B,FALSE,,,,,,,91,puerta,Spanish,Sounds/spa_puerta.mp3,2020-06-24_16h56.41.467,TranslationElicitation_eng-prolific,3.2.4,MacIntel,60,5e32a996077089274299680f,,1,0,98,86,1,97
,,,,,,,,,,,,,,,,,,,,,,,,,,,,,,,,,,,,,,,,,u,3.453999996,BU,FALSE,,,,,,,91,puerta,Spanish,Sounds/spa_puerta.mp3,2020-06-24_16h56.41.467,TranslationElicitation_eng-prolific,3.2.4,MacIntel,60,5e32a996077089274299680f,,1,0,98,86,1,97
,,,,,,,,,,,,,,,,,,,,,,,,,,,,,,,,,,,,,,,,,t,3.661000013,BUT,FALSE,,,,,,,91,puerta,Spanish,Sounds/spa_puerta.mp3,2020-06-24_16h56.41.467,TranslationElicitation_eng-prolific,3.2.4,MacIntel,60,5e32a996077089274299680f,,1,0,98,86,1,97
,,,,,,,,,,,,,,,,,,,,,,,,,,,,,,,,,,,,,,,,,return,3.895999908,BUT,FALSE,,,,,,,91,puerta,Spanish,Sounds/spa_puerta.mp3,2020-06-24_16h56.41.467,TranslationElicitation_eng-prolific,3.2.4,MacIntel,60,5e32a996077089274299680f,3.895999908,1,0,98,86,1,97
,,,,,,,,,,,,,,,,,,,,,,,,,,,,,,,,,,,,,,,,,,,,,,,,,,,91,puerta,Spanish,Sounds/spa_puerta.mp3,2020-06-24_16h56.41.467,TranslationElicitation_eng-prolific,3.2.4,MacIntel,60,5e32a996077089274299680f,,1,0,98,86,1,97
,,,,,,,,,,,,,,,,,,,,,,,,,,,,,,,,,,,,,,,,,t,1.91899991,T,FALSE,,,,,,,18,camisa,Spanish,Sounds/spa_camisa.mp3,2020-06-24_16h56.41.467,TranslationElicitation_eng-prolific,3.2.4,MacIntel,60,5e32a996077089274299680f,,1,0,98,16,1,97
,,,,,,,,,,,,,,,,,,,,,,,,,,,,,,,,,,,,,,,,,o,2.068000078,TO,FALSE,,,,,,,18,camisa,Spanish,Sounds/spa_camisa.mp3,2020-06-24_16h56.41.467,TranslationElicitation_eng-prolific,3.2.4,MacIntel,60,5e32a996077089274299680f,,1,0,98,16,1,97
,,,,,,,,,,,,,,,,,,,,,,,,,,,,,,,,,,,,,,,,,p,2.137000084,TOP,FALSE,,,,,,,18,camisa,Spanish,Sounds/spa_camisa.mp3,2020-06-24_16h56.41.467,TranslationElicitation_eng-prolific,3.2.4,MacIntel,60,5e32a996077089274299680f,,1,0,98,16,1,97
,,,,,,,,,,,,,,,,,,,,,,,,,,,,,,,,,,,,,,,,,return,2.388000011,TOP,FALSE,,,,,,,18,camisa,Spanish,Sounds/spa_camisa.mp3,2020-06-24_16h56.41.467,TranslationElicitation_eng-prolific,3.2.4,MacIntel,60,5e32a996077089274299680f,2.388000011,1,0,98,16,1,97
,,,,,,,,,,,,,,,,,,,,,,,,,,,,,,,,,,,,,,,,,,,,,,,,,,,18,camisa,Spanish,Sounds/spa_camisa.mp3,2020-06-24_16h56.41.467,TranslationElicitation_eng-prolific,3.2.4,MacIntel,60,5e32a996077089274299680f,,1,0,98,16,1,97
,,,,,,,,,,,,,,,,,,,,,,,,,,,,,,,,,,,,,,,,,m,3.233999968,M,FALSE,,,,,,,60,manzana,Spanish,Sounds/spa_manzana.mp3,2020-06-24_16h56.41.467,TranslationElicitation_eng-prolific,3.2.4,MacIntel,60,5e32a996077089274299680f,,1,0,98,56,1,97
,,,,,,,,,,,,,,,,,,,,,,,,,,,,,,,,,,,,,,,,,o,3.351999998,MO,FALSE,,,,,,,60,manzana,Spanish,Sounds/spa_manzana.mp3,2020-06-24_16h56.41.467,TranslationElicitation_eng-prolific,3.2.4,MacIntel,60,5e32a996077089274299680f,,1,0,98,56,1,97
,,,,,,,,,,,,,,,,,,,,,,,,,,,,,,,,,,,,,,,,,n,3.538000107,MON,FALSE,,,,,,,60,manzana,Spanish,Sounds/spa_manzana.mp3,2020-06-24_16h56.41.467,TranslationElicitation_eng-prolific,3.2.4,MacIntel,60,5e32a996077089274299680f,,1,0,98,56,1,97
,,,,,,,,,,,,,,,,,,,,,,,,,,,,,,,,,,,,,,,,,backspace,3.967999935,MO,TRUE,,,,,,,60,manzana,Spanish,Sounds/spa_manzana.mp3,2020-06-24_16h56.41.467,TranslationElicitation_eng-prolific,3.2.4,MacIntel,60,5e32a996077089274299680f,,1,0,98,56,1,97
,,,,,,,,,,,,,,,,,,,,,,,,,,,,,,,,,,,,,,,,,r,4.101999998,MOR,TRUE,,,,,,,60,manzana,Spanish,Sounds/spa_manzana.mp3,2020-06-24_16h56.41.467,TranslationElicitation_eng-prolific,3.2.4,MacIntel,60,5e32a996077089274299680f,,1,0,98,56,1,97
,,,,,,,,,,,,,,,,,,,,,,,,,,,,,,,,,,,,,,,,,n,4.197000027,MORN,TRUE,,,,,,,60,manzana,Spanish,Sounds/spa_manzana.mp3,2020-06-24_16h56.41.467,TranslationElicitation_eng-prolific,3.2.4,MacIntel,60,5e32a996077089274299680f,,1,0,98,56,1,97
,,,,,,,,,,,,,,,,,,,,,,,,,,,,,,,,,,,,,,,,,i,4.309999943,MORNI,TRUE,,,,,,,60,manzana,Spanish,Sounds/spa_manzana.mp3,2020-06-24_16h56.41.467,TranslationElicitation_eng-prolific,3.2.4,MacIntel,60,5e32a996077089274299680f,,1,0,98,56,1,97
,,,,,,,,,,,,,,,,,,,,,,,,,,,,,,,,,,,,,,,,,n,4.420000076,MORNIN,TRUE,,,,,,,60,manzana,Spanish,Sounds/spa_manzana.mp3,2020-06-24_16h56.41.467,TranslationElicitation_eng-prolific,3.2.4,MacIntel,60,5e32a996077089274299680f,,1,0,98,56,1,97
,,,,,,,,,,,,,,,,,,,,,,,,,,,,,,,,,,,,,,,,,g,4.621000051,MORNING,TRUE,,,,,,,60,manzana,Spanish,Sounds/spa_manzana.mp3,2020-06-24_16h56.41.467,TranslationElicitation_eng-prolific,3.2.4,MacIntel,60,5e32a996077089274299680f,,1,0,98,56,1,97
,,,,,,,,,,,,,,,,,,,,,,,,,,,,,,,,,,,,,,,,,backspace,4.916000128,MORNIN,TRUE,,,,,,,60,manzana,Spanish,Sounds/spa_manzana.mp3,2020-06-24_16h56.41.467,TranslationElicitation_eng-prolific,3.2.4,MacIntel,60,5e32a996077089274299680f,,1,0,98,56,1,97
,,,,,,,,,,,,,,,,,,,,,,,,,,,,,,,,,,,,,,,,,backspace,5.062000036,MORNI,TRUE,,,,,,,60,manzana,Spanish,Sounds/spa_manzana.mp3,2020-06-24_16h56.41.467,TranslationElicitation_eng-prolific,3.2.4,MacIntel,60,5e32a996077089274299680f,,1,0,98,56,1,97
,,,,,,,,,,,,,,,,,,,,,,,,,,,,,,,,,,,,,,,,,backspace,5.210999966,MORN,TRUE,,,,,,,60,manzana,Spanish,Sounds/spa_manzana.mp3,2020-06-24_16h56.41.467,TranslationElicitation_eng-prolific,3.2.4,MacIntel,60,5e32a996077089274299680f,,1,0,98,56,1,97
,,,,,,,,,,,,,,,,,,,,,,,,,,,,,,,,,,,,,,,,,backspace,5.368999958,MOR,TRUE,,,,,,,60,manzana,Spanish,Sounds/spa_manzana.mp3,2020-06-24_16h56.41.467,TranslationElicitation_eng-prolific,3.2.4,MacIntel,60,5e32a996077089274299680f,,1,0,98,56,1,97
,,,,,,,,,,,,,,,,,,,,,,,,,,,,,,,,,,,,,,,,,backspace,5.532999992,MO,TRUE,,,,,,,60,manzana,Spanish,Sounds/spa_manzana.mp3,2020-06-24_16h56.41.467,TranslationElicitation_eng-prolific,3.2.4,MacIntel,60,5e32a996077089274299680f,,1,0,98,56,1,97
,,,,,,,,,,,,,,,,,,,,,,,,,,,,,,,,,,,,,,,,,backspace,5.703999996,M,TRUE,,,,,,,60,manzana,Spanish,Sounds/spa_manzana.mp3,2020-06-24_16h56.41.467,TranslationElicitation_eng-prolific,3.2.4,MacIntel,60,5e32a996077089274299680f,,1,0,98,56,1,97
,,,,,,,,,,,,,,,,,,,,,,,,,,,,,,,,,,,,,,,,,u,5.907000065,MU,TRUE,,,,,,,60,manzana,Spanish,Sounds/spa_manzana.mp3,2020-06-24_16h56.41.467,TranslationElicitation_eng-prolific,3.2.4,MacIntel,60,5e32a996077089274299680f,,1,0,98,56,1,97
,,,,,,,,,,,,,,,,,,,,,,,,,,,,,,,,,,,,,,,,,backspace,6.282999992,M,TRUE,,,,,,,60,manzana,Spanish,Sounds/spa_manzana.mp3,2020-06-24_16h56.41.467,TranslationElicitation_eng-prolific,3.2.4,MacIntel,60,5e32a996077089274299680f,,1,0,98,56,1,97
,,,,,,,,,,,,,,,,,,,,,,,,,,,,,,,,,,,,,,,,,u,6.588000059,MU,TRUE,,,,,,,60,manzana,Spanish,Sounds/spa_manzana.mp3,2020-06-24_16h56.41.467,TranslationElicitation_eng-prolific,3.2.4,MacIntel,60,5e32a996077089274299680f,,1,0,98,56,1,97
,,,,,,,,,,,,,,,,,,,,,,,,,,,,,,,,,,,,,,,,,backspace,6.937000036,M,TRUE,,,,,,,60,manzana,Spanish,Sounds/spa_manzana.mp3,2020-06-24_16h56.41.467,TranslationElicitation_eng-prolific,3.2.4,MacIntel,60,5e32a996077089274299680f,,1,0,98,56,1,97
,,,,,,,,,,,,,,,,,,,,,,,,,,,,,,,,,,,,,,,,,o,7.200999975,MO,TRUE,,,,,,,60,manzana,Spanish,Sounds/spa_manzana.mp3,2020-06-24_16h56.41.467,TranslationElicitation_eng-prolific,3.2.4,MacIntel,60,5e32a996077089274299680f,,1,0,98,56,1,97
,,,,,,,,,,,,,,,,,,,,,,,,,,,,,,,,,,,,,,,,,u,7.318000078,MOU,TRUE,,,,,,,60,manzana,Spanish,Sounds/spa_manzana.mp3,2020-06-24_16h56.41.467,TranslationElicitation_eng-prolific,3.2.4,MacIntel,60,5e32a996077089274299680f,,1,0,98,56,1,97
,,,,,,,,,,,,,,,,,,,,,,,,,,,,,,,,,,,,,,,,,t,7.38499999,MOUT,TRUE,,,,,,,60,manzana,Spanish,Sounds/spa_manzana.mp3,2020-06-24_16h56.41.467,TranslationElicitation_eng-prolific,3.2.4,MacIntel,60,5e32a996077089274299680f,,1,0,98,56,1,97
,,,,,,,,,,,,,,,,,,,,,,,,,,,,,,,,,,,,,,,,,a,7.551000118,MOUTA,TRUE,,,,,,,60,manzana,Spanish,Sounds/spa_manzana.mp3,2020-06-24_16h56.41.467,TranslationElicitation_eng-prolific,3.2.4,MacIntel,60,5e32a996077089274299680f,,1,0,98,56,1,97
,,,,,,,,,,,,,,,,,,,,,,,,,,,,,,,,,,,,,,,,,i,7.618000031,MOUTAI,TRUE,,,,,,,60,manzana,Spanish,Sounds/spa_manzana.mp3,2020-06-24_16h56.41.467,TranslationElicitation_eng-prolific,3.2.4,MacIntel,60,5e32a996077089274299680f,,1,0,98,56,1,97
,,,,,,,,,,,,,,,,,,,,,,,,,,,,,,,,,,,,,,,,,n,7.719000101,MOUTAIN,TRUE,,,,,,,60,manzana,Spanish,Sounds/spa_manzana.mp3,2020-06-24_16h56.41.467,TranslationElicitation_eng-prolific,3.2.4,MacIntel,60,5e32a996077089274299680f,,1,0,98,56,1,97
,,,,,,,,,,,,,,,,,,,,,,,,,,,,,,,,,,,,,,,,,return,8.051000118,MOUTAIN,TRUE,,,,,,,60,manzana,Spanish,Sounds/spa_manzana.mp3,2020-06-24_16h56.41.467,TranslationElicitation_eng-prolific,3.2.4,MacIntel,60,5e32a996077089274299680f,8.051000118,1,0,98,56,1,97
,,,,,,,,,,,,,,,,,,,,,,,,,,,,,,,,,,,,,,,,,,,,,,,,,,,60,manzana,Spanish,Sounds/spa_manzana.mp3,2020-06-24_16h56.41.467,TranslationElicitation_eng-prolific,3.2.4,MacIntel,60,5e32a996077089274299680f,,1,0,98,56,1,97
,,,,,,,,,,,,,,,,,,,,,,,,,,,,,,,,,,,,,,,,,c,1.96600008,C,FALSE,,,,,,,29,coche,Spanish,Sounds/spa_coche.mp3,2020-06-24_16h56.41.467,TranslationElicitation_eng-prolific,3.2.4,MacIntel,60,5e32a996077089274299680f,,1,0,98,26,1,97
,,,,,,,,,,,,,,,,,,,,,,,,,,,,,,,,,,,,,,,,,o,2.051000118,CO,FALSE,,,,,,,29,coche,Spanish,Sounds/spa_coche.mp3,2020-06-24_16h56.41.467,TranslationElicitation_eng-prolific,3.2.4,MacIntel,60,5e32a996077089274299680f,,1,0,98,26,1,97
,,,,,,,,,,,,,,,,,,,,,,,,,,,,,,,,,,,,,,,,,a,2.13499999,COA,FALSE,,,,,,,29,coche,Spanish,Sounds/spa_coche.mp3,2020-06-24_16h56.41.467,TranslationElicitation_eng-prolific,3.2.4,MacIntel,60,5e32a996077089274299680f,,1,0,98,26,1,97
,,,,,,,,,,,,,,,,,,,,,,,,,,,,,,,,,,,,,,,,,c,2.285000086,COAC,FALSE,,,,,,,29,coche,Spanish,Sounds/spa_coche.mp3,2020-06-24_16h56.41.467,TranslationElicitation_eng-prolific,3.2.4,MacIntel,60,5e32a996077089274299680f,,1,0,98,26,1,97
,,,,,,,,,,,,,,,,,,,,,,,,,,,,,,,,,,,,,,,,,backspace,2.610000134,COA,TRUE,,,,,,,29,coche,Spanish,Sounds/spa_coche.mp3,2020-06-24_16h56.41.467,TranslationElicitation_eng-prolific,3.2.4,MacIntel,60,5e32a996077089274299680f,,1,0,98,26,1,97
,,,,,,,,,,,,,,,,,,,,,,,,,,,,,,,,,,,,,,,,,backspace,2.785000086,CO,TRUE,,,,,,,29,coche,Spanish,Sounds/spa_coche.mp3,2020-06-24_16h56.41.467,TranslationElicitation_eng-prolific,3.2.4,MacIntel,60,5e32a996077089274299680f,,1,0,98,26,1,97
,,,,,,,,,,,,,,,,,,,,,,,,,,,,,,,,,,,,,,,,,backspace,2.950000048,C,TRUE,,,,,,,29,coche,Spanish,Sounds/spa_coche.mp3,2020-06-24_16h56.41.467,TranslationElicitation_eng-prolific,3.2.4,MacIntel,60,5e32a996077089274299680f,,1,0,98,26,1,97
,,,,,,,,,,,,,,,,,,,,,,,,,,,,,,,,,,,,,,,,,a,2.983999968,CA,TRUE,,,,,,,29,coche,Spanish,Sounds/spa_coche.mp3,2020-06-24_16h56.41.467,TranslationElicitation_eng-prolific,3.2.4,MacIntel,60,5e32a996077089274299680f,,1,0,98,26,1,97
,,,,,,,,,,,,,,,,,,,,,,,,,,,,,,,,,,,,,,,,,r,3.051000118,CAR,TRUE,,,,,,,29,coche,Spanish,Sounds/spa_coche.mp3,2020-06-24_16h56.41.467,TranslationElicitation_eng-prolific,3.2.4,MacIntel,60,5e32a996077089274299680f,,1,0,98,26,1,97
,,,,,,,,,,,,,,,,,,,,,,,,,,,,,,,,,,,,,,,,,return,3.27699995,CAR,TRUE,,,,,,,29,coche,Spanish,Sounds/spa_coche.mp3,2020-06-24_16h56.41.467,TranslationElicitation_eng-prolific,3.2.4,MacIntel,60,5e32a996077089274299680f,3.27699995,1,0,98,26,1,97
,,,,,,,,,,,,,,,,,,,,,,,,,,,,,,,,,,,,,,,,,,,,,,,,,,,29,coche,Spanish,Sounds/spa_coche.mp3,2020-06-24_16h56.41.467,TranslationElicitation_eng-prolific,3.2.4,MacIntel,60,5e32a996077089274299680f,,1,0,98,26,1,97
,,,,,,,,,,,,,,,,,,,,,,,,,,,,,,,,,,,,,,,,,s,2.503000021,S,FALSE,,,,,,,65,mono,Spanish,Sounds/spa_mono.mp3,2020-06-24_16h56.41.467,TranslationElicitation_eng-prolific,3.2.4,MacIntel,60,5e32a996077089274299680f,,1,0,98,61,1,97
,,,,,,,,,,,,,,,,,,,,,,,,,,,,,,,,,,,,,,,,,i,2.570000172,SI,FALSE,,,,,,,65,mono,Spanish,Sounds/spa_mono.mp3,2020-06-24_16h56.41.467,TranslationElicitation_eng-prolific,3.2.4,MacIntel,60,5e32a996077089274299680f,,1,0,98,61,1,97
,,,,,,,,,,,,,,,,,,,,,,,,,,,,,,,,,,,,,,,,,n,2.667999983,SIN,FALSE,,,,,,,65,mono,Spanish,Sounds/spa_mono.mp3,2020-06-24_16h56.41.467,TranslationElicitation_eng-prolific,3.2.4,MacIntel,60,5e32a996077089274299680f,,1,0,98,61,1,97
,,,,,,,,,,,,,,,,,,,,,,,,,,,,,,,,,,,,,,,,,g,2.756000042,SING,FALSE,,,,,,,65,mono,Spanish,Sounds/spa_mono.mp3,2020-06-24_16h56.41.467,TranslationElicitation_eng-prolific,3.2.4,MacIntel,60,5e32a996077089274299680f,,1,0,98,61,1,97
,,,,,,,,,,,,,,,,,,,,,,,,,,,,,,,,,,,,,,,,,l,2.861000061,SINGL,FALSE,,,,,,,65,mono,Spanish,Sounds/spa_mono.mp3,2020-06-24_16h56.41.467,TranslationElicitation_eng-prolific,3.2.4,MacIntel,60,5e32a996077089274299680f,,1,0,98,61,1,97
,,,,,,,,,,,,,,,,,,,,,,,,,,,,,,,,,,,,,,,,,e,2.926000118,SINGLE,FALSE,,,,,,,65,mono,Spanish,Sounds/spa_mono.mp3,2020-06-24_16h56.41.467,TranslationElicitation_eng-prolific,3.2.4,MacIntel,60,5e32a996077089274299680f,,1,0,98,61,1,97
,,,,,,,,,,,,,,,,,,,,,,,,,,,,,,,,,,,,,,,,,return,3.126000166,SINGLE,FALSE,,,,,,,65,mono,Spanish,Sounds/spa_mono.mp3,2020-06-24_16h56.41.467,TranslationElicitation_eng-prolific,3.2.4,MacIntel,60,5e32a996077089274299680f,3.126000166,1,0,98,61,1,97
,,,,,,,,,,,,,,,,,,,,,,,,,,,,,,,,,,,,,,,,,,,,,,,,,,,65,mono,Spanish,Sounds/spa_mono.mp3,2020-06-24_16h56.41.467,TranslationElicitation_eng-prolific,3.2.4,MacIntel,60,5e32a996077089274299680f,,1,0,98,61,1,97
,,,,,,,,,,,,,,,,,,,,,,,,,,,,,,,,,,,,,,,,,p,1.753000021,P,FALSE,,,,,,,81,pelota,Spanish,Sounds/spa_pelota.mp3,2020-06-24_16h56.41.467,TranslationElicitation_eng-prolific,3.2.4,MacIntel,60,5e32a996077089274299680f,,1,0,98,76,1,97
,,,,,,,,,,,,,,,,,,,,,,,,,,,,,,,,,,,,,,,,,e,1.887000084,PE,FALSE,,,,,,,81,pelota,Spanish,Sounds/spa_pelota.mp3,2020-06-24_16h56.41.467,TranslationElicitation_eng-prolific,3.2.4,MacIntel,60,5e32a996077089274299680f,,1,0,98,76,1,97
,,,,,,,,,,,,,,,,,,,,,,,,,,,,,,,,,,,,,,,,,l,1.984999895,PEL,FALSE,,,,,,,81,pelota,Spanish,Sounds/spa_pelota.mp3,2020-06-24_16h56.41.467,TranslationElicitation_eng-prolific,3.2.4,MacIntel,60,5e32a996077089274299680f,,1,0,98,76,1,97
,,,,,,,,,,,,,,,,,,,,,,,,,,,,,,,,,,,,,,,,,i,2.099999905,PELI,FALSE,,,,,,,81,pelota,Spanish,Sounds/spa_pelota.mp3,2020-06-24_16h56.41.467,TranslationElicitation_eng-prolific,3.2.4,MacIntel,60,5e32a996077089274299680f,,1,0,98,76,1,97
,,,,,,,,,,,,,,,,,,,,,,,,,,,,,,,,,,,,,,,,,c,2.210999966,PELIC,FALSE,,,,,,,81,pelota,Spanish,Sounds/spa_pelota.mp3,2020-06-24_16h56.41.467,TranslationElicitation_eng-prolific,3.2.4,MacIntel,60,5e32a996077089274299680f,,1,0,98,76,1,97
,,,,,,,,,,,,,,,,,,,,,,,,,,,,,,,,,,,,,,,,,a,2.323999882,PELICA,FALSE,,,,,,,81,pelota,Spanish,Sounds/spa_pelota.mp3,2020-06-24_16h56.41.467,TranslationElicitation_eng-prolific,3.2.4,MacIntel,60,5e32a996077089274299680f,,1,0,98,76,1,97
,,,,,,,,,,,,,,,,,,,,,,,,,,,,,,,,,,,,,,,,,n,2.42599988,PELICAN,FALSE,,,,,,,81,pelota,Spanish,Sounds/spa_pelota.mp3,2020-06-24_16h56.41.467,TranslationElicitation_eng-prolific,3.2.4,MacIntel,60,5e32a996077089274299680f,,1,0,98,76,1,97
,,,,,,,,,,,,,,,,,,,,,,,,,,,,,,,,,,,,,,,,,return,3.14199996,PELICAN,FALSE,,,,,,,81,pelota,Spanish,Sounds/spa_pelota.mp3,2020-06-24_16h56.41.467,TranslationElicitation_eng-prolific,3.2.4,MacIntel,60,5e32a996077089274299680f,3.14199996,1,0,98,76,1,97
,,,,,,,,,,,,,,,,,,,,,,,,,,,,,,,,,,,,,,,,,,,,,,,,,,,81,pelota,Spanish,Sounds/spa_pelota.mp3,2020-06-24_16h56.41.467,TranslationElicitation_eng-prolific,3.2.4,MacIntel,60,5e32a996077089274299680f,,1,0,98,76,1,97
,,,,,,,,,,,,,,,,,,,,,,,,,,,,,,,,,,,,,,,,,l,2.18599987,L,FALSE,,,,,,,51,ladrillo,Spanish,Sounds/spa_ladrillo.mp3,2020-06-24_16h56.41.467,TranslationElicitation_eng-prolific,3.2.4,MacIntel,60,5e32a996077089274299680f,,1,0,98,47,1,97
,,,,,,,,,,,,,,,,,,,,,,,,,,,,,,,,,,,,,,,,,a,2.281999826,LA,FALSE,,,,,,,51,ladrillo,Spanish,Sounds/spa_ladrillo.mp3,2020-06-24_16h56.41.467,TranslationElicitation_eng-prolific,3.2.4,MacIntel,60,5e32a996077089274299680f,,1,0,98,47,1,97
,,,,,,,,,,,,,,,,,,,,,,,,,,,,,,,,,,,,,,,,,b,2.434000015,LAB,FALSE,,,,,,,51,ladrillo,Spanish,Sounds/spa_ladrillo.mp3,2020-06-24_16h56.41.467,TranslationElicitation_eng-prolific,3.2.4,MacIntel,60,5e32a996077089274299680f,,1,0,98,47,1,97
,,,,,,,,,,,,,,,,,,,,,,,,,,,,,,,,,,,,,,,,,return,2.704999924,LAB,FALSE,,,,,,,51,ladrillo,Spanish,Sounds/spa_ladrillo.mp3,2020-06-24_16h56.41.467,TranslationElicitation_eng-prolific,3.2.4,MacIntel,60,5e32a996077089274299680f,2.704999924,1,0,98,47,1,97
,,,,,,,,,,,,,,,,,,,,,,,,,,,,,,,,,,,,,,,,,,,,,,,,,,,51,ladrillo,Spanish,Sounds/spa_ladrillo.mp3,2020-06-24_16h56.41.467,TranslationElicitation_eng-prolific,3.2.4,MacIntel,60,5e32a996077089274299680f,,1,0,98,47,1,97
,,,,,,,,,,,,,,,,,,,,,,,,,,,,,,,,,,,,,,,,,s,1.786000013,S,FALSE,,,,,,,93,sol,Spanish,Sounds/spa_sol.mp3,2020-06-24_16h56.41.467,TranslationElicitation_eng-prolific,3.2.4,MacIntel,60,5e32a996077089274299680f,,1,0,98,88,1,97
,,,,,,,,,,,,,,,,,,,,,,,,,,,,,,,,,,,,,,,,,u,1.882999897,SU,FALSE,,,,,,,93,sol,Spanish,Sounds/spa_sol.mp3,2020-06-24_16h56.41.467,TranslationElicitation_eng-prolific,3.2.4,MacIntel,60,5e32a996077089274299680f,,1,0,98,88,1,97
,,,,,,,,,,,,,,,,,,,,,,,,,,,,,,,,,,,,,,,,,n,1.98300004,SUN,FALSE,,,,,,,93,sol,Spanish,Sounds/spa_sol.mp3,2020-06-24_16h56.41.467,TranslationElicitation_eng-prolific,3.2.4,MacIntel,60,5e32a996077089274299680f,,1,0,98,88,1,97
,,,,,,,,,,,,,,,,,,,,,,,,,,,,,,,,,,,,,,,,,return,2.249000072,SUN,FALSE,,,,,,,93,sol,Spanish,Sounds/spa_sol.mp3,2020-06-24_16h56.41.467,TranslationElicitation_eng-prolific,3.2.4,MacIntel,60,5e32a996077089274299680f,2.249000072,1,0,98,88,1,97
,,,,,,,,,,,,,,,,,,,,,,,,,,,,,,,,,,,,,,,,,,,,,,,,,,,93,sol,Spanish,Sounds/spa_sol.mp3,2020-06-24_16h56.41.467,TranslationElicitation_eng-prolific,3.2.4,MacIntel,60,5e32a996077089274299680f,,1,0,98,88,1,97
,,,,,,,,,,,,,,,,,,,,,,,,,,,,,,,,,,,,,,,,,c,1.138999939,C,FALSE,,,,,,,27,chocolate,Spanish,Sounds/spa_chocolate.mp3,2020-06-24_16h56.41.467,TranslationElicitation_eng-prolific,3.2.4,MacIntel,60,5e32a996077089274299680f,,1,0,98,24,1,97
,,,,,,,,,,,,,,,,,,,,,,,,,,,,,,,,,,,,,,,,,h,1.236000061,CH,FALSE,,,,,,,27,chocolate,Spanish,Sounds/spa_chocolate.mp3,2020-06-24_16h56.41.467,TranslationElicitation_eng-prolific,3.2.4,MacIntel,60,5e32a996077089274299680f,,1,0,98,24,1,97
,,,,,,,,,,,,,,,,,,,,,,,,,,,,,,,,,,,,,,,,,o,1.335000038,CHO,FALSE,,,,,,,27,chocolate,Spanish,Sounds/spa_chocolate.mp3,2020-06-24_16h56.41.467,TranslationElicitation_eng-prolific,3.2.4,MacIntel,60,5e32a996077089274299680f,,1,0,98,24,1,97
,,,,,,,,,,,,,,,,,,,,,,,,,,,,,,,,,,,,,,,,,c,1.486000061,CHOC,FALSE,,,,,,,27,chocolate,Spanish,Sounds/spa_chocolate.mp3,2020-06-24_16h56.41.467,TranslationElicitation_eng-prolific,3.2.4,MacIntel,60,5e32a996077089274299680f,,1,0,98,24,1,97
,,,,,,,,,,,,,,,,,,,,,,,,,,,,,,,,,,,,,,,,,o,1.549999952,CHOCO,FALSE,,,,,,,27,chocolate,Spanish,Sounds/spa_chocolate.mp3,2020-06-24_16h56.41.467,TranslationElicitation_eng-prolific,3.2.4,MacIntel,60,5e32a996077089274299680f,,1,0,98,24,1,97
,,,,,,,,,,,,,,,,,,,,,,,,,,,,,,,,,,,,,,,,,l,1.752000093,CHOCOL,FALSE,,,,,,,27,chocolate,Spanish,Sounds/spa_chocolate.mp3,2020-06-24_16h56.41.467,TranslationElicitation_eng-prolific,3.2.4,MacIntel,60,5e32a996077089274299680f,,1,0,98,24,1,97
,,,,,,,,,,,,,,,,,,,,,,,,,,,,,,,,,,,,,,,,,a,1.835000038,CHOCOLA,FALSE,,,,,,,27,chocolate,Spanish,Sounds/spa_chocolate.mp3,2020-06-24_16h56.41.467,TranslationElicitation_eng-prolific,3.2.4,MacIntel,60,5e32a996077089274299680f,,1,0,98,24,1,97
,,,,,,,,,,,,,,,,,,,,,,,,,,,,,,,,,,,,,,,,,t,1.957999945,CHOCOLAT,FALSE,,,,,,,27,chocolate,Spanish,Sounds/spa_chocolate.mp3,2020-06-24_16h56.41.467,TranslationElicitation_eng-prolific,3.2.4,MacIntel,60,5e32a996077089274299680f,,1,0,98,24,1,97
,,,,,,,,,,,,,,,,,,,,,,,,,,,,,,,,,,,,,,,,,e,2.054000139,CHOCOLATE,FALSE,,,,,,,27,chocolate,Spanish,Sounds/spa_chocolate.mp3,2020-06-24_16h56.41.467,TranslationElicitation_eng-prolific,3.2.4,MacIntel,60,5e32a996077089274299680f,,1,0,98,24,1,97
,,,,,,,,,,,,,,,,,,,,,,,,,,,,,,,,,,,,,,,,,return,2.822999954,CHOCOLATE,FALSE,,,,,,,27,chocolate,Spanish,Sounds/spa_chocolate.mp3,2020-06-24_16h56.41.467,TranslationElicitation_eng-prolific,3.2.4,MacIntel,60,5e32a996077089274299680f,2.822999954,1,0,98,24,1,97
,,,,,,,,,,,,,,,,,,,,,,,,,,,,,,,,,,,,,,,,,,,,,,,,,,,27,chocolate,Spanish,Sounds/spa_chocolate.mp3,2020-06-24_16h56.41.467,TranslationElicitation_eng-prolific,3.2.4,MacIntel,60,5e32a996077089274299680f,,1,0,98,24,1,97
,,,,,,,,,,,,,,,,,,,,,,,,,,,,,,,,,,,,,,,,,p,1.867000103,P,FALSE,,,,,,,86,pingino,Spanish,Sounds/spa_pinguino.mp3,2020-06-24_16h56.41.467,TranslationElicitation_eng-prolific,3.2.4,MacIntel,60,5e32a996077089274299680f,,1,0,98,81,1,97
,,,,,,,,,,,,,,,,,,,,,,,,,,,,,,,,,,,,,,,,,e,1.953000069,PE,FALSE,,,,,,,86,pingino,Spanish,Sounds/spa_pinguino.mp3,2020-06-24_16h56.41.467,TranslationElicitation_eng-prolific,3.2.4,MacIntel,60,5e32a996077089274299680f,,1,0,98,81,1,97
,,,,,,,,,,,,,,,,,,,,,,,,,,,,,,,,,,,,,,,,,n,2.036999941,PEN,FALSE,,,,,,,86,pingino,Spanish,Sounds/spa_pinguino.mp3,2020-06-24_16h56.41.467,TranslationElicitation_eng-prolific,3.2.4,MacIntel,60,5e32a996077089274299680f,,1,0,98,81,1,97
,,,,,,,,,,,,,,,,,,,,,,,,,,,,,,,,,,,,,,,,,g,2.177000046,PENG,FALSE,,,,,,,86,pingino,Spanish,Sounds/spa_pinguino.mp3,2020-06-24_16h56.41.467,TranslationElicitation_eng-prolific,3.2.4,MacIntel,60,5e32a996077089274299680f,,1,0,98,81,1,97
,,,,,,,,,,,,,,,,,,,,,,,,,,,,,,,,,,,,,,,,,i,2.239000082,PENGI,FALSE,,,,,,,86,pingino,Spanish,Sounds/spa_pinguino.mp3,2020-06-24_16h56.41.467,TranslationElicitation_eng-prolific,3.2.4,MacIntel,60,5e32a996077089274299680f,,1,0,98,81,1,97
,,,,,,,,,,,,,,,,,,,,,,,,,,,,,,,,,,,,,,,,,o,2.35800004,PENGIO,FALSE,,,,,,,86,pingino,Spanish,Sounds/spa_pinguino.mp3,2020-06-24_16h56.41.467,TranslationElicitation_eng-prolific,3.2.4,MacIntel,60,5e32a996077089274299680f,,1,0,98,81,1,97
,,,,,,,,,,,,,,,,,,,,,,,,,,,,,,,,,,,,,,,,,n,2.440000057,PENGION,FALSE,,,,,,,86,pingino,Spanish,Sounds/spa_pinguino.mp3,2020-06-24_16h56.41.467,TranslationElicitation_eng-prolific,3.2.4,MacIntel,60,5e32a996077089274299680f,,1,0,98,81,1,97
,,,,,,,,,,,,,,,,,,,,,,,,,,,,,,,,,,,,,,,,,backspace,2.90199995,PENGIO,TRUE,,,,,,,86,pingino,Spanish,Sounds/spa_pinguino.mp3,2020-06-24_16h56.41.467,TranslationElicitation_eng-prolific,3.2.4,MacIntel,60,5e32a996077089274299680f,,1,0,98,81,1,97
,,,,,,,,,,,,,,,,,,,,,,,,,,,,,,,,,,,,,,,,,backspace,3.035000086,PENGI,TRUE,,,,,,,86,pingino,Spanish,Sounds/spa_pinguino.mp3,2020-06-24_16h56.41.467,TranslationElicitation_eng-prolific,3.2.4,MacIntel,60,5e32a996077089274299680f,,1,0,98,81,1,97
,,,,,,,,,,,,,,,,,,,,,,,,,,,,,,,,,,,,,,,,,backspace,3.217000008,PENG,TRUE,,,,,,,86,pingino,Spanish,Sounds/spa_pinguino.mp3,2020-06-24_16h56.41.467,TranslationElicitation_eng-prolific,3.2.4,MacIntel,60,5e32a996077089274299680f,,1,0,98,81,1,97
,,,,,,,,,,,,,,,,,,,,,,,,,,,,,,,,,,,,,,,,,u,3.618999958,PENGU,TRUE,,,,,,,86,pingino,Spanish,Sounds/spa_pinguino.mp3,2020-06-24_16h56.41.467,TranslationElicitation_eng-prolific,3.2.4,MacIntel,60,5e32a996077089274299680f,,1,0,98,81,1,97
,,,,,,,,,,,,,,,,,,,,,,,,,,,,,,,,,,,,,,,,,i,3.694999933,PENGUI,TRUE,,,,,,,86,pingino,Spanish,Sounds/spa_pinguino.mp3,2020-06-24_16h56.41.467,TranslationElicitation_eng-prolific,3.2.4,MacIntel,60,5e32a996077089274299680f,,1,0,98,81,1,97
,,,,,,,,,,,,,,,,,,,,,,,,,,,,,,,,,,,,,,,,,n,3.848999977,PENGUIN,TRUE,,,,,,,86,pingino,Spanish,Sounds/spa_pinguino.mp3,2020-06-24_16h56.41.467,TranslationElicitation_eng-prolific,3.2.4,MacIntel,60,5e32a996077089274299680f,,1,0,98,81,1,97
,,,,,,,,,,,,,,,,,,,,,,,,,,,,,,,,,,,,,,,,,return,4.349999905,PENGUIN,TRUE,,,,,,,86,pingino,Spanish,Sounds/spa_pinguino.mp3,2020-06-24_16h56.41.467,TranslationElicitation_eng-prolific,3.2.4,MacIntel,60,5e32a996077089274299680f,4.349999905,1,0,98,81,1,97
,,,,,,,,,,,,,,,,,,,,,,,,,,,,,,,,,,,,,,,,,,,,,,,,,,,86,pingino,Spanish,Sounds/spa_pinguino.mp3,2020-06-24_16h56.41.467,TranslationElicitation_eng-prolific,3.2.4,MacIntel,60,5e32a996077089274299680f,,1,0,98,81,1,97
,,,,,,,,,,,,,,,,,,,,,,,,,,,,,,,,,,,,,,,,,c,7.202000141,C,FALSE,,,,,,,31,cubo,Spanish,Sounds/spa_cubo.mp3,2020-06-24_16h56.41.467,TranslationElicitation_eng-prolific,3.2.4,MacIntel,60,5e32a996077089274299680f,,1,0,98,27,1,97
,,,,,,,,,,,,,,,,,,,,,,,,,,,,,,,,,,,,,,,,,u,7.354000092,CU,FALSE,,,,,,,31,cubo,Spanish,Sounds/spa_cubo.mp3,2020-06-24_16h56.41.467,TranslationElicitation_eng-prolific,3.2.4,MacIntel,60,5e32a996077089274299680f,,1,0,98,27,1,97
,,,,,,,,,,,,,,,,,,,,,,,,,,,,,,,,,,,,,,,,,r,7.453000069,CUR,FALSE,,,,,,,31,cubo,Spanish,Sounds/spa_cubo.mp3,2020-06-24_16h56.41.467,TranslationElicitation_eng-prolific,3.2.4,MacIntel,60,5e32a996077089274299680f,,1,0,98,27,1,97
,,,,,,,,,,,,,,,,,,,,,,,,,,,,,,,,,,,,,,,,,backspace,8.003000021,CU,TRUE,,,,,,,31,cubo,Spanish,Sounds/spa_cubo.mp3,2020-06-24_16h56.41.467,TranslationElicitation_eng-prolific,3.2.4,MacIntel,60,5e32a996077089274299680f,,1,0,98,27,1,97
,,,,,,,,,,,,,,,,,,,,,,,,,,,,,,,,,,,,,,,,,backspace,8.156000137,C,TRUE,,,,,,,31,cubo,Spanish,Sounds/spa_cubo.mp3,2020-06-24_16h56.41.467,TranslationElicitation_eng-prolific,3.2.4,MacIntel,60,5e32a996077089274299680f,,1,0,98,27,1,97
,,,,,,,,,,,,,,,,,,,,,,,,,,,,,,,,,,,,,,,,,backspace,8.321000099,,TRUE,,,,,,,31,cubo,Spanish,Sounds/spa_cubo.mp3,2020-06-24_16h56.41.467,TranslationElicitation_eng-prolific,3.2.4,MacIntel,60,5e32a996077089274299680f,,1,0,98,27,1,97
,,,,,,,,,,,,,,,,,,,,,,,,,,,,,,,,,,,,,,,,,b,12.67200017,B,TRUE,,,,,,,31,cubo,Spanish,Sounds/spa_cubo.mp3,2020-06-24_16h56.41.467,TranslationElicitation_eng-prolific,3.2.4,MacIntel,60,5e32a996077089274299680f,,1,0,98,27,1,97
,,,,,,,,,,,,,,,,,,,,,,,,,,,,,,,,,,,,,,,,,u,12.80500007,BU,TRUE,,,,,,,31,cubo,Spanish,Sounds/spa_cubo.mp3,2020-06-24_16h56.41.467,TranslationElicitation_eng-prolific,3.2.4,MacIntel,60,5e32a996077089274299680f,,1,0,98,27,1,97
,,,,,,,,,,,,,,,,,,,,,,,,,,,,,,,,,,,,,,,,,t,12.95700002,BUT,TRUE,,,,,,,31,cubo,Spanish,Sounds/spa_cubo.mp3,2020-06-24_16h56.41.467,TranslationElicitation_eng-prolific,3.2.4,MacIntel,60,5e32a996077089274299680f,,1,0,98,27,1,97
,,,,,,,,,,,,,,,,,,,,,,,,,,,,,,,,,,,,,,,,,return,13.07200003,BUT,TRUE,,,,,,,31,cubo,Spanish,Sounds/spa_cubo.mp3,2020-06-24_16h56.41.467,TranslationElicitation_eng-prolific,3.2.4,MacIntel,60,5e32a996077089274299680f,13.07200003,1,0,98,27,1,97
,,,,,,,,,,,,,,,,,,,,,,,,,,,,,,,,,,,,,,,,,,,,,,,,,,,31,cubo,Spanish,Sounds/spa_cubo.mp3,2020-06-24_16h56.41.467,TranslationElicitation_eng-prolific,3.2.4,MacIntel,60,5e32a996077089274299680f,,1,0,98,27,1,97
,,,,,,,,,,,,,,,,,,,,,,,,,,,,,,,,,,,,,,,,,t,1.684000015,T,FALSE,,,,,,,23,cerdo,Spanish,Sounds/spa_cerdo.mp3,2020-06-24_16h56.41.467,TranslationElicitation_eng-prolific,3.2.4,MacIntel,60,5e32a996077089274299680f,,1,0,98,21,1,97
,,,,,,,,,,,,,,,,,,,,,,,,,,,,,,,,,,,,,,,,,h,1.751999855,TH,FALSE,,,,,,,23,cerdo,Spanish,Sounds/spa_cerdo.mp3,2020-06-24_16h56.41.467,TranslationElicitation_eng-prolific,3.2.4,MacIntel,60,5e32a996077089274299680f,,1,0,98,21,1,97
,,,,,,,,,,,,,,,,,,,,,,,,,,,,,,,,,,,,,,,,,u,1.853999853,THU,FALSE,,,,,,,23,cerdo,Spanish,Sounds/spa_cerdo.mp3,2020-06-24_16h56.41.467,TranslationElicitation_eng-prolific,3.2.4,MacIntel,60,5e32a996077089274299680f,,1,0,98,21,1,97
,,,,,,,,,,,,,,,,,,,,,,,,,,,,,,,,,,,,,,,,,r,1.950999975,THUR,FALSE,,,,,,,23,cerdo,Spanish,Sounds/spa_cerdo.mp3,2020-06-24_16h56.41.467,TranslationElicitation_eng-prolific,3.2.4,MacIntel,60,5e32a996077089274299680f,,1,0,98,21,1,97
,,,,,,,,,,,,,,,,,,,,,,,,,,,,,,,,,,,,,,,,,s,2.373999834,THURS,FALSE,,,,,,,23,cerdo,Spanish,Sounds/spa_cerdo.mp3,2020-06-24_16h56.41.467,TranslationElicitation_eng-prolific,3.2.4,MacIntel,60,5e32a996077089274299680f,,1,0,98,21,1,97
,,,,,,,,,,,,,,,,,,,,,,,,,,,,,,,,,,,,,,,,,d,2.585999966,THURSD,FALSE,,,,,,,23,cerdo,Spanish,Sounds/spa_cerdo.mp3,2020-06-24_16h56.41.467,TranslationElicitation_eng-prolific,3.2.4,MacIntel,60,5e32a996077089274299680f,,1,0,98,21,1,97
,,,,,,,,,,,,,,,,,,,,,,,,,,,,,,,,,,,,,,,,,a,2.653999805,THURSDA,FALSE,,,,,,,23,cerdo,Spanish,Sounds/spa_cerdo.mp3,2020-06-24_16h56.41.467,TranslationElicitation_eng-prolific,3.2.4,MacIntel,60,5e32a996077089274299680f,,1,0,98,21,1,97
,,,,,,,,,,,,,,,,,,,,,,,,,,,,,,,,,,,,,,,,,y,3.027999878,THURSDAY,FALSE,,,,,,,23,cerdo,Spanish,Sounds/spa_cerdo.mp3,2020-06-24_16h56.41.467,TranslationElicitation_eng-prolific,3.2.4,MacIntel,60,5e32a996077089274299680f,,1,0,98,21,1,97
,,,,,,,,,,,,,,,,,,,,,,,,,,,,,,,,,,,,,,,,,return,3.579999924,THURSDAY,FALSE,,,,,,,23,cerdo,Spanish,Sounds/spa_cerdo.mp3,2020-06-24_16h56.41.467,TranslationElicitation_eng-prolific,3.2.4,MacIntel,60,5e32a996077089274299680f,3.579999924,1,0,98,21,1,97
,,,,,,,,,,,,,,,,,,,,,,,,,,,,,,,,,,,,,,,,,,,,,,,,,,,23,cerdo,Spanish,Sounds/spa_cerdo.mp3,2020-06-24_16h56.41.467,TranslationElicitation_eng-prolific,3.2.4,MacIntel,60,5e32a996077089274299680f,,1,0,98,21,1,97
,,,,,,,,,,,,,,,,,,,,,,,,,,,,,,,,,,,,,,,,,n,2.197000027,N,FALSE,,,,,,,57,loro,Spanish,Sounds/spa_loro.mp3,2020-06-24_16h56.41.467,TranslationElicitation_eng-prolific,3.2.4,MacIntel,60,5e32a996077089274299680f,,1,0,98,53,1,97
,,,,,,,,,,,,,,,,,,,,,,,,,,,,,,,,,,,,,,,,,e,2.218000174,NE,FALSE,,,,,,,57,loro,Spanish,Sounds/spa_loro.mp3,2020-06-24_16h56.41.467,TranslationElicitation_eng-prolific,3.2.4,MacIntel,60,5e32a996077089274299680f,,1,0,98,53,1,97
,,,,,,,,,,,,,,,,,,,,,,,,,,,,,,,,,,,,,,,,,x,2.448000193,NEX,FALSE,,,,,,,57,loro,Spanish,Sounds/spa_loro.mp3,2020-06-24_16h56.41.467,TranslationElicitation_eng-prolific,3.2.4,MacIntel,60,5e32a996077089274299680f,,1,0,98,53,1,97
,,,,,,,,,,,,,,,,,,,,,,,,,,,,,,,,,,,,,,,,,t,2.649000168,NEXT,FALSE,,,,,,,57,loro,Spanish,Sounds/spa_loro.mp3,2020-06-24_16h56.41.467,TranslationElicitation_eng-prolific,3.2.4,MacIntel,60,5e32a996077089274299680f,,1,0,98,53,1,97
,,,,,,,,,,,,,,,,,,,,,,,,,,,,,,,,,,,,,,,,,return,2.850000143,NEXT,FALSE,,,,,,,57,loro,Spanish,Sounds/spa_loro.mp3,2020-06-24_16h56.41.467,TranslationElicitation_eng-prolific,3.2.4,MacIntel,60,5e32a996077089274299680f,2.850000143,1,0,98,53,1,97
,,,,,,,,,,,,,,,,,,,,,,,,,,,,,,,,,,,,,,,,,,,,,,,,,,,57,loro,Spanish,Sounds/spa_loro.mp3,2020-06-24_16h56.41.467,TranslationElicitation_eng-prolific,3.2.4,MacIntel,60,5e32a996077089274299680f,,1,0,98,53,1,97
,,,,,,,,,,,,,,,,,,,,,,,,,,,,,,,,,,,,,,,,,t,2.501999855,T,FALSE,,,,,,,38,frambuesa,Spanish,Sounds/spa_frambuesa.mp3,2020-06-24_16h56.41.467,TranslationElicitation_eng-prolific,3.2.4,MacIntel,60,5e32a996077089274299680f,,1,0,98,34,1,97
,,,,,,,,,,,,,,,,,,,,,,,,,,,,,,,,,,,,,,,,,r,2.669999838,TR,FALSE,,,,,,,38,frambuesa,Spanish,Sounds/spa_frambuesa.mp3,2020-06-24_16h56.41.467,TranslationElicitation_eng-prolific,3.2.4,MacIntel,60,5e32a996077089274299680f,,1,0,98,34,1,97
,,,,,,,,,,,,,,,,,,,,,,,,,,,,,,,,,,,,,,,,,a,2.768999815,TRA,FALSE,,,,,,,38,frambuesa,Spanish,Sounds/spa_frambuesa.mp3,2020-06-24_16h56.41.467,TranslationElicitation_eng-prolific,3.2.4,MacIntel,60,5e32a996077089274299680f,,1,0,98,34,1,97
,,,,,,,,,,,,,,,,,,,,,,,,,,,,,,,,,,,,,,,,,m,2.868999958,TRAM,FALSE,,,,,,,38,frambuesa,Spanish,Sounds/spa_frambuesa.mp3,2020-06-24_16h56.41.467,TranslationElicitation_eng-prolific,3.2.4,MacIntel,60,5e32a996077089274299680f,,1,0,98,34,1,97
,,,,,,,,,,,,,,,,,,,,,,,,,,,,,,,,,,,,,,,,,p,3.036000013,TRAMP,FALSE,,,,,,,38,frambuesa,Spanish,Sounds/spa_frambuesa.mp3,2020-06-24_16h56.41.467,TranslationElicitation_eng-prolific,3.2.4,MacIntel,60,5e32a996077089274299680f,,1,0,98,34,1,97
,,,,,,,,,,,,,,,,,,,,,,,,,,,,,,,,,,,,,,,,,l,3.251999855,TRAMPL,FALSE,,,,,,,38,frambuesa,Spanish,Sounds/spa_frambuesa.mp3,2020-06-24_16h56.41.467,TranslationElicitation_eng-prolific,3.2.4,MacIntel,60,5e32a996077089274299680f,,1,0,98,34,1,97
,,,,,,,,,,,,,,,,,,,,,,,,,,,,,,,,,,,,,,,,,backspace,3.697999954,TRAMP,TRUE,,,,,,,38,frambuesa,Spanish,Sounds/spa_frambuesa.mp3,2020-06-24_16h56.41.467,TranslationElicitation_eng-prolific,3.2.4,MacIntel,60,5e32a996077089274299680f,,1,0,98,34,1,97
,,,,,,,,,,,,,,,,,,,,,,,,,,,,,,,,,,,,,,,,,o,3.886999846,TRAMPO,TRUE,,,,,,,38,frambuesa,Spanish,Sounds/spa_frambuesa.mp3,2020-06-24_16h56.41.467,TranslationElicitation_eng-prolific,3.2.4,MacIntel,60,5e32a996077089274299680f,,1,0,98,34,1,97
,,,,,,,,,,,,,,,,,,,,,,,,,,,,,,,,,,,,,,,,,l,4.088999987,TRAMPOL,TRUE,,,,,,,38,frambuesa,Spanish,Sounds/spa_frambuesa.mp3,2020-06-24_16h56.41.467,TranslationElicitation_eng-prolific,3.2.4,MacIntel,60,5e32a996077089274299680f,,1,0,98,34,1,97
,,,,,,,,,,,,,,,,,,,,,,,,,,,,,,,,,,,,,,,,,i,4.244999886,TRAMPOLI,TRUE,,,,,,,38,frambuesa,Spanish,Sounds/spa_frambuesa.mp3,2020-06-24_16h56.41.467,TranslationElicitation_eng-prolific,3.2.4,MacIntel,60,5e32a996077089274299680f,,1,0,98,34,1,97
,,,,,,,,,,,,,,,,,,,,,,,,,,,,,,,,,,,,,,,,,n,4.337999821,TRAMPOLIN,TRUE,,,,,,,38,frambuesa,Spanish,Sounds/spa_frambuesa.mp3,2020-06-24_16h56.41.467,TranslationElicitation_eng-prolific,3.2.4,MacIntel,60,5e32a996077089274299680f,,1,0,98,34,1,97
,,,,,,,,,,,,,,,,,,,,,,,,,,,,,,,,,,,,,,,,,e,4.399999857,TRAMPOLINE,TRUE,,,,,,,38,frambuesa,Spanish,Sounds/spa_frambuesa.mp3,2020-06-24_16h56.41.467,TranslationElicitation_eng-prolific,3.2.4,MacIntel,60,5e32a996077089274299680f,,1,0,98,34,1,97
,,,,,,,,,,,,,,,,,,,,,,,,,,,,,,,,,,,,,,,,,return,4.694999933,TRAMPOLINE,TRUE,,,,,,,38,frambuesa,Spanish,Sounds/spa_frambuesa.mp3,2020-06-24_16h56.41.467,TranslationElicitation_eng-prolific,3.2.4,MacIntel,60,5e32a996077089274299680f,4.694999933,1,0,98,34,1,97
,,,,,,,,,,,,,,,,,,,,,,,,,,,,,,,,,,,,,,,,,,,,,,,,,,,38,frambuesa,Spanish,Sounds/spa_frambuesa.mp3,2020-06-24_16h56.41.467,TranslationElicitation_eng-prolific,3.2.4,MacIntel,60,5e32a996077089274299680f,,1,0,98,34,1,97
,,,,,,,,,,,,,,,,,,,,,,,,,,,,,,,,,,,,,,,,,d,2.625,D,FALSE,,,,,,,4,biberon,Spanish,Sounds/spa_biberon.mp3,2020-06-24_16h56.41.467,TranslationElicitation_eng-prolific,3.2.4,MacIntel,60,5e32a996077089274299680f,,1,0,98,2,1,97
,,,,,,,,,,,,,,,,,,,,,,,,,,,,,,,,,,,,,,,,,r,2.789000034,DR,FALSE,,,,,,,4,biberon,Spanish,Sounds/spa_biberon.mp3,2020-06-24_16h56.41.467,TranslationElicitation_eng-prolific,3.2.4,MacIntel,60,5e32a996077089274299680f,,1,0,98,2,1,97
,,,,,,,,,,,,,,,,,,,,,,,,,,,,,,,,,,,,,,,,,i,2.886000156,DRI,FALSE,,,,,,,4,biberon,Spanish,Sounds/spa_biberon.mp3,2020-06-24_16h56.41.467,TranslationElicitation_eng-prolific,3.2.4,MacIntel,60,5e32a996077089274299680f,,1,0,98,2,1,97
,,,,,,,,,,,,,,,,,,,,,,,,,,,,,,,,,,,,,,,,,n,3.103000164,DRIN,FALSE,,,,,,,4,biberon,Spanish,Sounds/spa_biberon.mp3,2020-06-24_16h56.41.467,TranslationElicitation_eng-prolific,3.2.4,MacIntel,60,5e32a996077089274299680f,,1,0,98,2,1,97
,,,,,,,,,,,,,,,,,,,,,,,,,,,,,,,,,,,,,,,,,k,3.758000135,DRINK,FALSE,,,,,,,4,biberon,Spanish,Sounds/spa_biberon.mp3,2020-06-24_16h56.41.467,TranslationElicitation_eng-prolific,3.2.4,MacIntel,60,5e32a996077089274299680f,,1,0,98,2,1,97
,,,,,,,,,,,,,,,,,,,,,,,,,,,,,,,,,,,,,,,,,return,3.993000031,DRINK,FALSE,,,,,,,4,biberon,Spanish,Sounds/spa_biberon.mp3,2020-06-24_16h56.41.467,TranslationElicitation_eng-prolific,3.2.4,MacIntel,60,5e32a996077089274299680f,3.993000031,1,0,98,2,1,97
,,,,,,,,,,,,,,,,,,,,,,,,,,,,,,,,,,,,,,,,,,,,,,,,,,,4,biberon,Spanish,Sounds/spa_biberon.mp3,2020-06-24_16h56.41.467,TranslationElicitation_eng-prolific,3.2.4,MacIntel,60,5e32a996077089274299680f,,1,0,98,2,1,97
,,,,,,,,,,,,,,,,,,,,,,,,,,,,,,,,,,,,,,,,,f,1.851999998,F,FALSE,,,,,,,71,ombligo,Spanish,Sounds/spa_ombligo.mp3,2020-06-24_16h56.41.467,TranslationElicitation_eng-prolific,3.2.4,MacIntel,60,5e32a996077089274299680f,,1,0,98,66,1,97
,,,,,,,,,,,,,,,,,,,,,,,,,,,,,,,,,,,,,,,,,r,2.016000032,FR,FALSE,,,,,,,71,ombligo,Spanish,Sounds/spa_ombligo.mp3,2020-06-24_16h56.41.467,TranslationElicitation_eng-prolific,3.2.4,MacIntel,60,5e32a996077089274299680f,,1,0,98,66,1,97
,,,,,,,,,,,,,,,,,,,,,,,,,,,,,,,,,,,,,,,,,i,2.253000021,FRI,FALSE,,,,,,,71,ombligo,Spanish,Sounds/spa_ombligo.mp3,2020-06-24_16h56.41.467,TranslationElicitation_eng-prolific,3.2.4,MacIntel,60,5e32a996077089274299680f,,1,0,98,66,1,97
,,,,,,,,,,,,,,,,,,,,,,,,,,,,,,,,,,,,,,,,,n,2.328999996,FRIN,FALSE,,,,,,,71,ombligo,Spanish,Sounds/spa_ombligo.mp3,2020-06-24_16h56.41.467,TranslationElicitation_eng-prolific,3.2.4,MacIntel,60,5e32a996077089274299680f,,1,0,98,66,1,97
,,,,,,,,,,,,,,,,,,,,,,,,,,,,,,,,,,,,,,,,,d,2.486999989,FRIND,FALSE,,,,,,,71,ombligo,Spanish,Sounds/spa_ombligo.mp3,2020-06-24_16h56.41.467,TranslationElicitation_eng-prolific,3.2.4,MacIntel,60,5e32a996077089274299680f,,1,0,98,66,1,97
,,,,,,,,,,,,,,,,,,,,,,,,,,,,,,,,,,,,,,,,,s,2.592000008,FRINDS,FALSE,,,,,,,71,ombligo,Spanish,Sounds/spa_ombligo.mp3,2020-06-24_16h56.41.467,TranslationElicitation_eng-prolific,3.2.4,MacIntel,60,5e32a996077089274299680f,,1,0,98,66,1,97
,,,,,,,,,,,,,,,,,,,,,,,,,,,,,,,,,,,,,,,,,backspace,3.282000065,FRIND,TRUE,,,,,,,71,ombligo,Spanish,Sounds/spa_ombligo.mp3,2020-06-24_16h56.41.467,TranslationElicitation_eng-prolific,3.2.4,MacIntel,60,5e32a996077089274299680f,,1,0,98,66,1,97
,,,,,,,,,,,,,,,,,,,,,,,,,,,,,,,,,,,,,,,,,backspace,3.450000048,FRIN,TRUE,,,,,,,71,ombligo,Spanish,Sounds/spa_ombligo.mp3,2020-06-24_16h56.41.467,TranslationElicitation_eng-prolific,3.2.4,MacIntel,60,5e32a996077089274299680f,,1,0,98,66,1,97
,,,,,,,,,,,,,,,,,,,,,,,,,,,,,,,,,,,,,,,,,backspace,3.532999992,FRI,TRUE,,,,,,,71,ombligo,Spanish,Sounds/spa_ombligo.mp3,2020-06-24_16h56.41.467,TranslationElicitation_eng-prolific,3.2.4,MacIntel,60,5e32a996077089274299680f,,1,0,98,66,1,97
,,,,,,,,,,,,,,,,,,,,,,,,,,,,,,,,,,,,,,,,,backspace,3.723999977,FR,TRUE,,,,,,,71,ombligo,Spanish,Sounds/spa_ombligo.mp3,2020-06-24_16h56.41.467,TranslationElicitation_eng-prolific,3.2.4,MacIntel,60,5e32a996077089274299680f,,1,0,98,66,1,97
,,,,,,,,,,,,,,,,,,,,,,,,,,,,,,,,,,,,,,,,,e,3.870000124,FRE,TRUE,,,,,,,71,ombligo,Spanish,Sounds/spa_ombligo.mp3,2020-06-24_16h56.41.467,TranslationElicitation_eng-prolific,3.2.4,MacIntel,60,5e32a996077089274299680f,,1,0,98,66,1,97
,,,,,,,,,,,,,,,,,,,,,,,,,,,,,,,,,,,,,,,,,backspace,4.411000013,FR,TRUE,,,,,,,71,ombligo,Spanish,Sounds/spa_ombligo.mp3,2020-06-24_16h56.41.467,TranslationElicitation_eng-prolific,3.2.4,MacIntel,60,5e32a996077089274299680f,,1,0,98,66,1,97
,,,,,,,,,,,,,,,,,,,,,,,,,,,,,,,,,,,,,,,,,i,4.607000113,FRI,TRUE,,,,,,,71,ombligo,Spanish,Sounds/spa_ombligo.mp3,2020-06-24_16h56.41.467,TranslationElicitation_eng-prolific,3.2.4,MacIntel,60,5e32a996077089274299680f,,1,0,98,66,1,97
,,,,,,,,,,,,,,,,,,,,,,,,,,,,,,,,,,,,,,,,,e,4.680000067,FRIE,TRUE,,,,,,,71,ombligo,Spanish,Sounds/spa_ombligo.mp3,2020-06-24_16h56.41.467,TranslationElicitation_eng-prolific,3.2.4,MacIntel,60,5e32a996077089274299680f,,1,0,98,66,1,97
,,,,,,,,,,,,,,,,,,,,,,,,,,,,,,,,,,,,,,,,,n,4.791000128,FRIEN,TRUE,,,,,,,71,ombligo,Spanish,Sounds/spa_ombligo.mp3,2020-06-24_16h56.41.467,TranslationElicitation_eng-prolific,3.2.4,MacIntel,60,5e32a996077089274299680f,,1,0,98,66,1,97
,,,,,,,,,,,,,,,,,,,,,,,,,,,,,,,,,,,,,,,,,d,4.901000023,FRIEND,TRUE,,,,,,,71,ombligo,Spanish,Sounds/spa_ombligo.mp3,2020-06-24_16h56.41.467,TranslationElicitation_eng-prolific,3.2.4,MacIntel,60,5e32a996077089274299680f,,1,0,98,66,1,97
,,,,,,,,,,,,,,,,,,,,,,,,,,,,,,,,,,,,,,,,,return,5.529000044,FRIEND,TRUE,,,,,,,71,ombligo,Spanish,Sounds/spa_ombligo.mp3,2020-06-24_16h56.41.467,TranslationElicitation_eng-prolific,3.2.4,MacIntel,60,5e32a996077089274299680f,5.529000044,1,0,98,66,1,97
,,,,,,,,,,,,,,,,,,,,,,,,,,,,,,,,,,,,,,,,,,,,,,,,,,,71,ombligo,Spanish,Sounds/spa_ombligo.mp3,2020-06-24_16h56.41.467,TranslationElicitation_eng-prolific,3.2.4,MacIntel,60,5e32a996077089274299680f,,1,0,98,66,1,97
,,,,,,,,,,,,,,,,,,,,,,,,,,,,,,,,,,,,,,,,,a,2.684000015,A,FALSE,,,,,,,48,gusano,Spanish,Sounds/spa_gusano.mp3,2020-06-24_16h56.41.467,TranslationElicitation_eng-prolific,3.2.4,MacIntel,60,5e32a996077089274299680f,,1,0,98,44,1,97
,,,,,,,,,,,,,,,,,,,,,,,,,,,,,,,,,,,,,,,,,n,2.75,AN,FALSE,,,,,,,48,gusano,Spanish,Sounds/spa_gusano.mp3,2020-06-24_16h56.41.467,TranslationElicitation_eng-prolific,3.2.4,MacIntel,60,5e32a996077089274299680f,,1,0,98,44,1,97
,,,,,,,,,,,,,,,,,,,,,,,,,,,,,,,,,,,,,,,,,i,2.871999979,ANI,FALSE,,,,,,,48,gusano,Spanish,Sounds/spa_gusano.mp3,2020-06-24_16h56.41.467,TranslationElicitation_eng-prolific,3.2.4,MacIntel,60,5e32a996077089274299680f,,1,0,98,44,1,97
,,,,,,,,,,,,,,,,,,,,,,,,,,,,,,,,,,,,,,,,,a,3.210999966,ANIA,FALSE,,,,,,,48,gusano,Spanish,Sounds/spa_gusano.mp3,2020-06-24_16h56.41.467,TranslationElicitation_eng-prolific,3.2.4,MacIntel,60,5e32a996077089274299680f,,1,0,98,44,1,97
,,,,,,,,,,,,,,,,,,,,,,,,,,,,,,,,,,,,,,,,,backspace,3.74000001,ANI,TRUE,,,,,,,48,gusano,Spanish,Sounds/spa_gusano.mp3,2020-06-24_16h56.41.467,TranslationElicitation_eng-prolific,3.2.4,MacIntel,60,5e32a996077089274299680f,,1,0,98,44,1,97
,,,,,,,,,,,,,,,,,,,,,,,,,,,,,,,,,,,,,,,,,m,3.953999996,ANIM,TRUE,,,,,,,48,gusano,Spanish,Sounds/spa_gusano.mp3,2020-06-24_16h56.41.467,TranslationElicitation_eng-prolific,3.2.4,MacIntel,60,5e32a996077089274299680f,,1,0,98,44,1,97
,,,,,,,,,,,,,,,,,,,,,,,,,,,,,,,,,,,,,,,,,a,4.069999933,ANIMA,TRUE,,,,,,,48,gusano,Spanish,Sounds/spa_gusano.mp3,2020-06-24_16h56.41.467,TranslationElicitation_eng-prolific,3.2.4,MacIntel,60,5e32a996077089274299680f,,1,0,98,44,1,97
,,,,,,,,,,,,,,,,,,,,,,,,,,,,,,,,,,,,,,,,,l,4.194000006,ANIMAL,TRUE,,,,,,,48,gusano,Spanish,Sounds/spa_gusano.mp3,2020-06-24_16h56.41.467,TranslationElicitation_eng-prolific,3.2.4,MacIntel,60,5e32a996077089274299680f,,1,0,98,44,1,97
,,,,,,,,,,,,,,,,,,,,,,,,,,,,,,,,,,,,,,,,,return,4.690000057,ANIMAL,TRUE,,,,,,,48,gusano,Spanish,Sounds/spa_gusano.mp3,2020-06-24_16h56.41.467,TranslationElicitation_eng-prolific,3.2.4,MacIntel,60,5e32a996077089274299680f,4.690000057,1,0,98,44,1,97
,,,,,,,,,,,,,,,,,,,,,,,,,,,,,,,,,,,,,,,,,,,,,,,,,,,48,gusano,Spanish,Sounds/spa_gusano.mp3,2020-06-24_16h56.41.467,TranslationElicitation_eng-prolific,3.2.4,MacIntel,60,5e32a996077089274299680f,,1,0,98,44,1,97
,,,,,,,,,,,,,,,,,,,,,,,,,,,,,,,,,,,,,,,,,h,2.785000086,H,FALSE,,,,,,,72,osito,Spanish,Sounds/spa_osito.mp3,2020-06-24_16h56.41.467,TranslationElicitation_eng-prolific,3.2.4,MacIntel,60,5e32a996077089274299680f,,1,0,98,67,1,97
,,,,,,,,,,,,,,,,,,,,,,,,,,,,,,,,,,,,,,,,,o,2.88499999,HO,FALSE,,,,,,,72,osito,Spanish,Sounds/spa_osito.mp3,2020-06-24_16h56.41.467,TranslationElicitation_eng-prolific,3.2.4,MacIntel,60,5e32a996077089274299680f,,1,0,98,67,1,97
,,,,,,,,,,,,,,,,,,,,,,,,,,,,,,,,,,,,,,,,,u,2.986999989,HOU,FALSE,,,,,,,72,osito,Spanish,Sounds/spa_osito.mp3,2020-06-24_16h56.41.467,TranslationElicitation_eng-prolific,3.2.4,MacIntel,60,5e32a996077089274299680f,,1,0,98,67,1,97
,,,,,,,,,,,,,,,,,,,,,,,,,,,,,,,,,,,,,,,,,s,3.022000074,HOUS,FALSE,,,,,,,72,osito,Spanish,Sounds/spa_osito.mp3,2020-06-24_16h56.41.467,TranslationElicitation_eng-prolific,3.2.4,MacIntel,60,5e32a996077089274299680f,,1,0,98,67,1,97
,,,,,,,,,,,,,,,,,,,,,,,,,,,,,,,,,,,,,,,,,e,3.200000048,HOUSE,FALSE,,,,,,,72,osito,Spanish,Sounds/spa_osito.mp3,2020-06-24_16h56.41.467,TranslationElicitation_eng-prolific,3.2.4,MacIntel,60,5e32a996077089274299680f,,1,0,98,67,1,97
,,,,,,,,,,,,,,,,,,,,,,,,,,,,,,,,,,,,,,,,,return,3.404999971,HOUSE,FALSE,,,,,,,72,osito,Spanish,Sounds/spa_osito.mp3,2020-06-24_16h56.41.467,TranslationElicitation_eng-prolific,3.2.4,MacIntel,60,5e32a996077089274299680f,3.404999971,1,0,98,67,1,97
,,,,,,,,,,,,,,,,,,,,,,,,,,,,,,,,,,,,,,,,,,,,,,,,,,,72,osito,Spanish,Sounds/spa_osito.mp3,2020-06-24_16h56.41.467,TranslationElicitation_eng-prolific,3.2.4,MacIntel,60,5e32a996077089274299680f,,1,0,98,67,1,97
,,,,,,,,,,,,,,,,,,,,,,,,,,,,,,,,,,,,,,,,,e,2.849000216,E,FALSE,,,,,,,73,oveja,Spanish,Sounds/spa_oveja.mp3,2020-06-24_16h56.41.467,TranslationElicitation_eng-prolific,3.2.4,MacIntel,60,5e32a996077089274299680f,,1,0,98,68,1,97
,,,,,,,,,,,,,,,,,,,,,,,,,,,,,,,,,,,,,,,,,a,2.950000048,EA,FALSE,,,,,,,73,oveja,Spanish,Sounds/spa_oveja.mp3,2020-06-24_16h56.41.467,TranslationElicitation_eng-prolific,3.2.4,MacIntel,60,5e32a996077089274299680f,,1,0,98,68,1,97
,,,,,,,,,,,,,,,,,,,,,,,,,,,,,,,,,,,,,,,,,r,3.016000032,EAR,FALSE,,,,,,,73,oveja,Spanish,Sounds/spa_oveja.mp3,2020-06-24_16h56.41.467,TranslationElicitation_eng-prolific,3.2.4,MacIntel,60,5e32a996077089274299680f,,1,0,98,68,1,97
,,,,,,,,,,,,,,,,,,,,,,,,,,,,,,,,,,,,,,,,,s,3.333000183,EARS,FALSE,,,,,,,73,oveja,Spanish,Sounds/spa_oveja.mp3,2020-06-24_16h56.41.467,TranslationElicitation_eng-prolific,3.2.4,MacIntel,60,5e32a996077089274299680f,,1,0,98,68,1,97
,,,,,,,,,,,,,,,,,,,,,,,,,,,,,,,,,,,,,,,,,return,3.992000103,EARS,FALSE,,,,,,,73,oveja,Spanish,Sounds/spa_oveja.mp3,2020-06-24_16h56.41.467,TranslationElicitation_eng-prolific,3.2.4,MacIntel,60,5e32a996077089274299680f,3.992000103,1,0,98,68,1,97
,,,,,,,,,,,,,,,,,,,,,,,,,,,,,,,,,,,,,,,,,,,,,,,,,,,73,oveja,Spanish,Sounds/spa_oveja.mp3,2020-06-24_16h56.41.467,TranslationElicitation_eng-prolific,3.2.4,MacIntel,60,5e32a996077089274299680f,,1,0,98,68,1,97
,,,,,,,,,,,,,,,,,,,,,,,,,,,,,,,,,,,,,,,,,c,3.291999817,C,FALSE,,,,,,,20,caracol,Spanish,Sounds/spa_caracol.mp3,2020-06-24_16h56.41.467,TranslationElicitation_eng-prolific,3.2.4,MacIntel,60,5e32a996077089274299680f,,1,0,98,18,1,97
,,,,,,,,,,,,,,,,,,,,,,,,,,,,,,,,,,,,,,,,,a,3.552999973,CA,FALSE,,,,,,,20,caracol,Spanish,Sounds/spa_caracol.mp3,2020-06-24_16h56.41.467,TranslationElicitation_eng-prolific,3.2.4,MacIntel,60,5e32a996077089274299680f,,1,0,98,18,1,97
,,,,,,,,,,,,,,,,,,,,,,,,,,,,,,,,,,,,,,,,,backspace,4.194999933,C,TRUE,,,,,,,20,caracol,Spanish,Sounds/spa_caracol.mp3,2020-06-24_16h56.41.467,TranslationElicitation_eng-prolific,3.2.4,MacIntel,60,5e32a996077089274299680f,,1,0,98,18,1,97
,,,,,,,,,,,,,,,,,,,,,,,,,,,,,,,,,,,,,,,,,backspace,4.355000019,,TRUE,,,,,,,20,caracol,Spanish,Sounds/spa_caracol.mp3,2020-06-24_16h56.41.467,TranslationElicitation_eng-prolific,3.2.4,MacIntel,60,5e32a996077089274299680f,,1,0,98,18,1,97
,,,,,,,,,,,,,,,,,,,,,,,,,,,,,,,,,,,,,,,,,s,4.482999802,S,TRUE,,,,,,,20,caracol,Spanish,Sounds/spa_caracol.mp3,2020-06-24_16h56.41.467,TranslationElicitation_eng-prolific,3.2.4,MacIntel,60,5e32a996077089274299680f,,1,0,98,18,1,97
,,,,,,,,,,,,,,,,,,,,,,,,,,,,,,,,,,,,,,,,,p,4.597999811,SP,TRUE,,,,,,,20,caracol,Spanish,Sounds/spa_caracol.mp3,2020-06-24_16h56.41.467,TranslationElicitation_eng-prolific,3.2.4,MacIntel,60,5e32a996077089274299680f,,1,0,98,18,1,97
,,,,,,,,,,,,,,,,,,,,,,,,,,,,,,,,,,,,,,,,,e,4.690999985,SPE,TRUE,,,,,,,20,caracol,Spanish,Sounds/spa_caracol.mp3,2020-06-24_16h56.41.467,TranslationElicitation_eng-prolific,3.2.4,MacIntel,60,5e32a996077089274299680f,,1,0,98,18,1,97
,,,,,,,,,,,,,,,,,,,,,,,,,,,,,,,,,,,,,,,,,a,4.722999811,SPEA,TRUE,,,,,,,20,caracol,Spanish,Sounds/spa_caracol.mp3,2020-06-24_16h56.41.467,TranslationElicitation_eng-prolific,3.2.4,MacIntel,60,5e32a996077089274299680f,,1,0,98,18,1,97
,,,,,,,,,,,,,,,,,,,,,,,,,,,,,,,,,,,,,,,,,l,4.774999857,SPEAL,TRUE,,,,,,,20,caracol,Spanish,Sounds/spa_caracol.mp3,2020-06-24_16h56.41.467,TranslationElicitation_eng-prolific,3.2.4,MacIntel,60,5e32a996077089274299680f,,1,0,98,18,1,97
,,,,,,,,,,,,,,,,,,,,,,,,,,,,,,,,,,,,,,,,,n,5.059999943,SPEALN,TRUE,,,,,,,20,caracol,Spanish,Sounds/spa_caracol.mp3,2020-06-24_16h56.41.467,TranslationElicitation_eng-prolific,3.2.4,MacIntel,60,5e32a996077089274299680f,,1,0,98,18,1,97
,,,,,,,,,,,,,,,,,,,,,,,,,,,,,,,,,,,,,,,,,backspace,5.379999876,SPEAL,TRUE,,,,,,,20,caracol,Spanish,Sounds/spa_caracol.mp3,2020-06-24_16h56.41.467,TranslationElicitation_eng-prolific,3.2.4,MacIntel,60,5e32a996077089274299680f,,1,0,98,18,1,97
,,,,,,,,,,,,,,,,,,,,,,,,,,,,,,,,,,,,,,,,,backspace,5.50999999,SPEA,TRUE,,,,,,,20,caracol,Spanish,Sounds/spa_caracol.mp3,2020-06-24_16h56.41.467,TranslationElicitation_eng-prolific,3.2.4,MacIntel,60,5e32a996077089274299680f,,1,0,98,18,1,97
,,,,,,,,,,,,,,,,,,,,,,,,,,,,,,,,,,,,,,,,,k,5.79399991,SPEAK,TRUE,,,,,,,20,caracol,Spanish,Sounds/spa_caracol.mp3,2020-06-24_16h56.41.467,TranslationElicitation_eng-prolific,3.2.4,MacIntel,60,5e32a996077089274299680f,,1,0,98,18,1,97
,,,,,,,,,,,,,,,,,,,,,,,,,,,,,,,,,,,,,,,,,i,6.032999992,SPEAKI,TRUE,,,,,,,20,caracol,Spanish,Sounds/spa_caracol.mp3,2020-06-24_16h56.41.467,TranslationElicitation_eng-prolific,3.2.4,MacIntel,60,5e32a996077089274299680f,,1,0,98,18,1,97
,,,,,,,,,,,,,,,,,,,,,,,,,,,,,,,,,,,,,,,,,g,6.123999834,SPEAKIG,TRUE,,,,,,,20,caracol,Spanish,Sounds/spa_caracol.mp3,2020-06-24_16h56.41.467,TranslationElicitation_eng-prolific,3.2.4,MacIntel,60,5e32a996077089274299680f,,1,0,98,18,1,97
,,,,,,,,,,,,,,,,,,,,,,,,,,,,,,,,,,,,,,,,,backspace,6.784999847,SPEAKI,TRUE,,,,,,,20,caracol,Spanish,Sounds/spa_caracol.mp3,2020-06-24_16h56.41.467,TranslationElicitation_eng-prolific,3.2.4,MacIntel,60,5e32a996077089274299680f,,1,0,98,18,1,97
,,,,,,,,,,,,,,,,,,,,,,,,,,,,,,,,,,,,,,,,,n,7.070999861,SPEAKIN,TRUE,,,,,,,20,caracol,Spanish,Sounds/spa_caracol.mp3,2020-06-24_16h56.41.467,TranslationElicitation_eng-prolific,3.2.4,MacIntel,60,5e32a996077089274299680f,,1,0,98,18,1,97
,,,,,,,,,,,,,,,,,,,,,,,,,,,,,,,,,,,,,,,,,g,7.179999828,SPEAKING,TRUE,,,,,,,20,caracol,Spanish,Sounds/spa_caracol.mp3,2020-06-24_16h56.41.467,TranslationElicitation_eng-prolific,3.2.4,MacIntel,60,5e32a996077089274299680f,,1,0,98,18,1,97
,,,,,,,,,,,,,,,,,,,,,,,,,,,,,,,,,,,,,,,,,return,7.411999941,SPEAKING,TRUE,,,,,,,20,caracol,Spanish,Sounds/spa_caracol.mp3,2020-06-24_16h56.41.467,TranslationElicitation_eng-prolific,3.2.4,MacIntel,60,5e32a996077089274299680f,7.411999941,1,0,98,18,1,97
,,,,,,,,,,,,,,,,,,,,,,,,,,,,,,,,,,,,,,,,,,,,,,,,,,,20,caracol,Spanish,Sounds/spa_caracol.mp3,2020-06-24_16h56.41.467,TranslationElicitation_eng-prolific,3.2.4,MacIntel,60,5e32a996077089274299680f,,1,0,98,18,1,97
,,,,,,,,,,,,,,,,,,,,,,,,,,,,,,,,,,,,,,,,,s,1.534999847,S,FALSE,,,,,,,92,sandwich,Spanish,Sounds/spa_sandwich.mp3,2020-06-24_16h56.41.467,TranslationElicitation_eng-prolific,3.2.4,MacIntel,60,5e32a996077089274299680f,,1,0,98,87,1,97
,,,,,,,,,,,,,,,,,,,,,,,,,,,,,,,,,,,,,,,,,a,1.651000023,SA,FALSE,,,,,,,92,sandwich,Spanish,Sounds/spa_sandwich.mp3,2020-06-24_16h56.41.467,TranslationElicitation_eng-prolific,3.2.4,MacIntel,60,5e32a996077089274299680f,,1,0,98,87,1,97
,,,,,,,,,,,,,,,,,,,,,,,,,,,,,,,,,,,,,,,,,d,1.797999859,SAD,FALSE,,,,,,,92,sandwich,Spanish,Sounds/spa_sandwich.mp3,2020-06-24_16h56.41.467,TranslationElicitation_eng-prolific,3.2.4,MacIntel,60,5e32a996077089274299680f,,1,0,98,87,1,97
,,,,,,,,,,,,,,,,,,,,,,,,,,,,,,,,,,,,,,,,,backspace,2.652999878,SA,TRUE,,,,,,,92,sandwich,Spanish,Sounds/spa_sandwich.mp3,2020-06-24_16h56.41.467,TranslationElicitation_eng-prolific,3.2.4,MacIntel,60,5e32a996077089274299680f,,1,0,98,87,1,97
,,,,,,,,,,,,,,,,,,,,,,,,,,,,,,,,,,,,,,,,,n,2.822000027,SAN,TRUE,,,,,,,92,sandwich,Spanish,Sounds/spa_sandwich.mp3,2020-06-24_16h56.41.467,TranslationElicitation_eng-prolific,3.2.4,MacIntel,60,5e32a996077089274299680f,,1,0,98,87,1,97
,,,,,,,,,,,,,,,,,,,,,,,,,,,,,,,,,,,,,,,,,d,2.919999838,SAND,TRUE,,,,,,,92,sandwich,Spanish,Sounds/spa_sandwich.mp3,2020-06-24_16h56.41.467,TranslationElicitation_eng-prolific,3.2.4,MacIntel,60,5e32a996077089274299680f,,1,0,98,87,1,97
,,,,,,,,,,,,,,,,,,,,,,,,,,,,,,,,,,,,,,,,,w,3.14199996,SANDW,TRUE,,,,,,,92,sandwich,Spanish,Sounds/spa_sandwich.mp3,2020-06-24_16h56.41.467,TranslationElicitation_eng-prolific,3.2.4,MacIntel,60,5e32a996077089274299680f,,1,0,98,87,1,97
,,,,,,,,,,,,,,,,,,,,,,,,,,,,,,,,,,,,,,,,,h,3.269000053,SANDWH,TRUE,,,,,,,92,sandwich,Spanish,Sounds/spa_sandwich.mp3,2020-06-24_16h56.41.467,TranslationElicitation_eng-prolific,3.2.4,MacIntel,60,5e32a996077089274299680f,,1,0,98,87,1,97
,,,,,,,,,,,,,,,,,,,,,,,,,,,,,,,,,,,,,,,,,i,3.329999924,SANDWHI,TRUE,,,,,,,92,sandwich,Spanish,Sounds/spa_sandwich.mp3,2020-06-24_16h56.41.467,TranslationElicitation_eng-prolific,3.2.4,MacIntel,60,5e32a996077089274299680f,,1,0,98,87,1,97
,,,,,,,,,,,,,,,,,,,,,,,,,,,,,,,,,,,,,,,,,backspace,3.648999929,SANDWH,TRUE,,,,,,,92,sandwich,Spanish,Sounds/spa_sandwich.mp3,2020-06-24_16h56.41.467,TranslationElicitation_eng-prolific,3.2.4,MacIntel,60,5e32a996077089274299680f,,1,0,98,87,1,97
,,,,,,,,,,,,,,,,,,,,,,,,,,,,,,,,,,,,,,,,,backspace,3.786999941,SANDW,TRUE,,,,,,,92,sandwich,Spanish,Sounds/spa_sandwich.mp3,2020-06-24_16h56.41.467,TranslationElicitation_eng-prolific,3.2.4,MacIntel,60,5e32a996077089274299680f,,1,0,98,87,1,97
,,,,,,,,,,,,,,,,,,,,,,,,,,,,,,,,,,,,,,,,,i,3.986999989,SANDWI,TRUE,,,,,,,92,sandwich,Spanish,Sounds/spa_sandwich.mp3,2020-06-24_16h56.41.467,TranslationElicitation_eng-prolific,3.2.4,MacIntel,60,5e32a996077089274299680f,,1,0,98,87,1,97
,,,,,,,,,,,,,,,,,,,,,,,,,,,,,,,,,,,,,,,,,c,4.118000031,SANDWIC,TRUE,,,,,,,92,sandwich,Spanish,Sounds/spa_sandwich.mp3,2020-06-24_16h56.41.467,TranslationElicitation_eng-prolific,3.2.4,MacIntel,60,5e32a996077089274299680f,,1,0,98,87,1,97
,,,,,,,,,,,,,,,,,,,,,,,,,,,,,,,,,,,,,,,,,h,4.17599988,SANDWICH,TRUE,,,,,,,92,sandwich,Spanish,Sounds/spa_sandwich.mp3,2020-06-24_16h56.41.467,TranslationElicitation_eng-prolific,3.2.4,MacIntel,60,5e32a996077089274299680f,,1,0,98,87,1,97
,,,,,,,,,,,,,,,,,,,,,,,,,,,,,,,,,,,,,,,,,return,4.832999945,SANDWICH,TRUE,,,,,,,92,sandwich,Spanish,Sounds/spa_sandwich.mp3,2020-06-24_16h56.41.467,TranslationElicitation_eng-prolific,3.2.4,MacIntel,60,5e32a996077089274299680f,4.832999945,1,0,98,87,1,97
,,,,,,,,,,,,,,,,,,,,,,,,,,,,,,,,,,,,,,,,,,,,,,,,,,,92,sandwich,Spanish,Sounds/spa_sandwich.mp3,2020-06-24_16h56.41.467,TranslationElicitation_eng-prolific,3.2.4,MacIntel,60,5e32a996077089274299680f,,1,0,98,87,1,97
,,,,,,,,,,,,,,,,,,,,,,,,,,,,,,,,,,,,,,,,,d,2.115999937,D,FALSE,,,,,,,82,perro,Spanish,Sounds/spa_perro.mp3,2020-06-24_16h56.41.467,TranslationElicitation_eng-prolific,3.2.4,MacIntel,60,5e32a996077089274299680f,,1,0,98,77,1,97
,,,,,,,,,,,,,,,,,,,,,,,,,,,,,,,,,,,,,,,,,o,2.184000015,DO,FALSE,,,,,,,82,perro,Spanish,Sounds/spa_perro.mp3,2020-06-24_16h56.41.467,TranslationElicitation_eng-prolific,3.2.4,MacIntel,60,5e32a996077089274299680f,,1,0,98,77,1,97
,,,,,,,,,,,,,,,,,,,,,,,,,,,,,,,,,,,,,,,,,g,2.335999966,DOG,FALSE,,,,,,,82,perro,Spanish,Sounds/spa_perro.mp3,2020-06-24_16h56.41.467,TranslationElicitation_eng-prolific,3.2.4,MacIntel,60,5e32a996077089274299680f,,1,0,98,77,1,97
,,,,,,,,,,,,,,,,,,,,,,,,,,,,,,,,,,,,,,,,,return,2.741999865,DOG,FALSE,,,,,,,82,perro,Spanish,Sounds/spa_perro.mp3,2020-06-24_16h56.41.467,TranslationElicitation_eng-prolific,3.2.4,MacIntel,60,5e32a996077089274299680f,2.741999865,1,0,98,77,1,97
,,,,,,,,,,,,,,,,,,,,,,,,,,,,,,,,,,,,,,,,,,,,,,,,,,,82,perro,Spanish,Sounds/spa_perro.mp3,2020-06-24_16h56.41.467,TranslationElicitation_eng-prolific,3.2.4,MacIntel,60,5e32a996077089274299680f,,1,0,98,77,1,97
,,,,,,,,,,,,,,,,,,,,,,,,,,,,,,,,,,,,,,,,,c,3.190999985,C,FALSE,,,,,,,28,cielo,Spanish,Sounds/spa_cielo.mp3,2020-06-24_16h56.41.467,TranslationElicitation_eng-prolific,3.2.4,MacIntel,60,5e32a996077089274299680f,,1,0,98,25,1,97
,,,,,,,,,,,,,,,,,,,,,,,,,,,,,,,,,,,,,,,,,o,3.271999836,CO,FALSE,,,,,,,28,cielo,Spanish,Sounds/spa_cielo.mp3,2020-06-24_16h56.41.467,TranslationElicitation_eng-prolific,3.2.4,MacIntel,60,5e32a996077089274299680f,,1,0,98,25,1,97
,,,,,,,,,,,,,,,,,,,,,,,,,,,,,,,,,,,,,,,,,l,3.432999849,COL,FALSE,,,,,,,28,cielo,Spanish,Sounds/spa_cielo.mp3,2020-06-24_16h56.41.467,TranslationElicitation_eng-prolific,3.2.4,MacIntel,60,5e32a996077089274299680f,,1,0,98,25,1,97
,,,,,,,,,,,,,,,,,,,,,,,,,,,,,,,,,,,,,,,,,d,3.536000013,COLD,FALSE,,,,,,,28,cielo,Spanish,Sounds/spa_cielo.mp3,2020-06-24_16h56.41.467,TranslationElicitation_eng-prolific,3.2.4,MacIntel,60,5e32a996077089274299680f,,1,0,98,25,1,97
,,,,,,,,,,,,,,,,,,,,,,,,,,,,,,,,,,,,,,,,,return,3.666999817,COLD,FALSE,,,,,,,28,cielo,Spanish,Sounds/spa_cielo.mp3,2020-06-24_16h56.41.467,TranslationElicitation_eng-prolific,3.2.4,MacIntel,60,5e32a996077089274299680f,3.666999817,1,0,98,25,1,97
,,,,,,,,,,,,,,,,,,,,,,,,,,,,,,,,,,,,,,,,,,,,,,,,,,,28,cielo,Spanish,Sounds/spa_cielo.mp3,2020-06-24_16h56.41.467,TranslationElicitation_eng-prolific,3.2.4,MacIntel,60,5e32a996077089274299680f,,1,0,98,25,1,97
,,,,,,,,,,,,,,,,,,,,,,,,,,,,,,,,,,,,,,,,,c,6.755000114,C,FALSE,,,,,,,94,tambor,Spanish,Sounds/spa_tambor.mp3,2020-06-24_16h56.41.467,TranslationElicitation_eng-prolific,3.2.4,MacIntel,60,5e32a996077089274299680f,,1,0,98,89,1,97
,,,,,,,,,,,,,,,,,,,,,,,,,,,,,,,,,,,,,,,,,o,6.907000065,CO,FALSE,,,,,,,94,tambor,Spanish,Sounds/spa_tambor.mp3,2020-06-24_16h56.41.467,TranslationElicitation_eng-prolific,3.2.4,MacIntel,60,5e32a996077089274299680f,,1,0,98,89,1,97
,,,,,,,,,,,,,,,,,,,,,,,,,,,,,,,,,,,,,,,,,w,6.973999977,COW,FALSE,,,,,,,94,tambor,Spanish,Sounds/spa_tambor.mp3,2020-06-24_16h56.41.467,TranslationElicitation_eng-prolific,3.2.4,MacIntel,60,5e32a996077089274299680f,,1,0,98,89,1,97
,,,,,,,,,,,,,,,,,,,,,,,,,,,,,,,,,,,,,,,,,return,7.244000196,COW,FALSE,,,,,,,94,tambor,Spanish,Sounds/spa_tambor.mp3,2020-06-24_16h56.41.467,TranslationElicitation_eng-prolific,3.2.4,MacIntel,60,5e32a996077089274299680f,7.244000196,1,0,98,89,1,97
,,,,,,,,,,,,,,,,,,,,,,,,,,,,,,,,,,,,,,,,,,,,,,,,,,,94,tambor,Spanish,Sounds/spa_tambor.mp3,2020-06-24_16h56.41.467,TranslationElicitation_eng-prolific,3.2.4,MacIntel,60,5e32a996077089274299680f,,1,0,98,89,1,97
,,,,,,,,,,,,,,,,,,,,,,,,,,,,,,,,,,,,,,,,,b,1.950000048,B,FALSE,,,,,,,8,bol,Spanish,Sounds/spa_bol.mp3,2020-06-24_16h56.41.467,TranslationElicitation_eng-prolific,3.2.4,MacIntel,60,5e32a996077089274299680f,,1,0,98,6,1,97
,,,,,,,,,,,,,,,,,,,,,,,,,,,,,,,,,,,,,,,,,u,2.15199995,BU,FALSE,,,,,,,8,bol,Spanish,Sounds/spa_bol.mp3,2020-06-24_16h56.41.467,TranslationElicitation_eng-prolific,3.2.4,MacIntel,60,5e32a996077089274299680f,,1,0,98,6,1,97
,,,,,,,,,,,,,,,,,,,,,,,,,,,,,,,,,,,,,,,,,backspace,2.618999958,B,TRUE,,,,,,,8,bol,Spanish,Sounds/spa_bol.mp3,2020-06-24_16h56.41.467,TranslationElicitation_eng-prolific,3.2.4,MacIntel,60,5e32a996077089274299680f,,1,0,98,6,1,97
,,,,,,,,,,,,,,,,,,,,,,,,,,,,,,,,,,,,,,,,,a,2.759000063,BA,TRUE,,,,,,,8,bol,Spanish,Sounds/spa_bol.mp3,2020-06-24_16h56.41.467,TranslationElicitation_eng-prolific,3.2.4,MacIntel,60,5e32a996077089274299680f,,1,0,98,6,1,97
,,,,,,,,,,,,,,,,,,,,,,,,,,,,,,,,,,,,,,,,,l,3.345999956,BAL,TRUE,,,,,,,8,bol,Spanish,Sounds/spa_bol.mp3,2020-06-24_16h56.41.467,TranslationElicitation_eng-prolific,3.2.4,MacIntel,60,5e32a996077089274299680f,,1,0,98,6,1,97
,,,,,,,,,,,,,,,,,,,,,,,,,,,,,,,,,,,,,,,,,l,3.493000031,BALL,TRUE,,,,,,,8,bol,Spanish,Sounds/spa_bol.mp3,2020-06-24_16h56.41.467,TranslationElicitation_eng-prolific,3.2.4,MacIntel,60,5e32a996077089274299680f,,1,0,98,6,1,97
,,,,,,,,,,,,,,,,,,,,,,,,,,,,,,,,,,,,,,,,,return,3.720999956,BALL,TRUE,,,,,,,8,bol,Spanish,Sounds/spa_bol.mp3,2020-06-24_16h56.41.467,TranslationElicitation_eng-prolific,3.2.4,MacIntel,60,5e32a996077089274299680f,3.720999956,1,0,98,6,1,97
,,,,,,,,,,,,,,,,,,,,,,,,,,,,,,,,,,,,,,,,,,,,,,,,,,,8,bol,Spanish,Sounds/spa_bol.mp3,2020-06-24_16h56.41.467,TranslationElicitation_eng-prolific,3.2.4,MacIntel,60,5e32a996077089274299680f,,1,0,98,6,1,97
,,,,,,,,,,,,,,,,,,,,,,,,,,,,,,,,,,,,,,,,,i,3.184999943,I,FALSE,,,,,,,44,gorrion,Spanish,Sounds/spa_gorrion.mp3,2020-06-24_16h56.41.467,TranslationElicitation_eng-prolific,3.2.4,MacIntel,60,5e32a996077089274299680f,,1,0,98,40,1,97
,,,,,,,,,,,,,,,,,,,,,,,,,,,,,,,,,,,,,,,,,n,3.303999901,IN,FALSE,,,,,,,44,gorrion,Spanish,Sounds/spa_gorrion.mp3,2020-06-24_16h56.41.467,TranslationElicitation_eng-prolific,3.2.4,MacIntel,60,5e32a996077089274299680f,,1,0,98,40,1,97
,,,,,,,,,,,,,,,,,,,,,,,,,,,,,,,,,,,,,,,,,t,3.470000029,INT,FALSE,,,,,,,44,gorrion,Spanish,Sounds/spa_gorrion.mp3,2020-06-24_16h56.41.467,TranslationElicitation_eng-prolific,3.2.4,MacIntel,60,5e32a996077089274299680f,,1,0,98,40,1,97
,,,,,,,,,,,,,,,,,,,,,,,,,,,,,,,,,,,,,,,,,r,3.628999949,INTR,FALSE,,,,,,,44,gorrion,Spanish,Sounds/spa_gorrion.mp3,2020-06-24_16h56.41.467,TranslationElicitation_eng-prolific,3.2.4,MacIntel,60,5e32a996077089274299680f,,1,0,98,40,1,97
,,,,,,,,,,,,,,,,,,,,,,,,,,,,,,,,,,,,,,,,,backspace,3.869999886,INT,TRUE,,,,,,,44,gorrion,Spanish,Sounds/spa_gorrion.mp3,2020-06-24_16h56.41.467,TranslationElicitation_eng-prolific,3.2.4,MacIntel,60,5e32a996077089274299680f,,1,0,98,40,1,97
,,,,,,,,,,,,,,,,,,,,,,,,,,,,,,,,,,,,,,,,,backspace,4.039999962,IN,TRUE,,,,,,,44,gorrion,Spanish,Sounds/spa_gorrion.mp3,2020-06-24_16h56.41.467,TranslationElicitation_eng-prolific,3.2.4,MacIntel,60,5e32a996077089274299680f,,1,0,98,40,1,97
,,,,,,,,,,,,,,,,,,,,,,,,,,,,,,,,,,,,,,,,,s,4.171000004,INS,TRUE,,,,,,,44,gorrion,Spanish,Sounds/spa_gorrion.mp3,2020-06-24_16h56.41.467,TranslationElicitation_eng-prolific,3.2.4,MacIntel,60,5e32a996077089274299680f,,1,0,98,40,1,97
,,,,,,,,,,,,,,,,,,,,,,,,,,,,,,,,,,,,,,,,,t,4.329999924,INST,TRUE,,,,,,,44,gorrion,Spanish,Sounds/spa_gorrion.mp3,2020-06-24_16h56.41.467,TranslationElicitation_eng-prolific,3.2.4,MacIntel,60,5e32a996077089274299680f,,1,0,98,40,1,97
