consentKey.keys,consentKey.rt,languageL1Key.keys,languageL1Key.rt,languageL2,languageL2OralKey.keys,languageL2OralKey.rt,languageL2WrittenKey.keys,languageL2WrittenKey.rt,languageL3OralKey.keys,languageL3OralKey.rt,languageL3WrittenKey.keys,languageL3WrittenKey.rt,languageCatalanOralKey.keys,languageCatalanOralKey.rt,languageCatalanWrittenKey.keys,languageCatalanWrittenKey.rt,languageCatalanTimeKey.keys,languageCatalanTimeKey.rt,languageSpanishOralKey.keys,languageSpanishOralKey.rt,languageSpanishWrittenKey.keys,languageSpanishWrittenKey.rt,languageSpanishTimeKey.keys,languageSpanishTimeKey.rt,age,demoSexKey.keys,demoSexKey.rt,demoEducationKey.keys,demoEducationKey.rt,city,demoVisionKey.keys,demoVisionKey.rt,demoLanguageKey.keys,demoLanguageKey.rt,setupLocationKey.keys,setupLocationKey.rt,setupNoiseKey.keys,setupNoiseKey.rt,instructionsKeys.keys,instructionsKeys.rt,keyPressed,keyPressTime,inputText,error,trialsPracticeSpanish.thisRepN,trialsPracticeSpanish.thisTrialN,trialsPracticeSpanish.thisN,trialsPracticeSpanish.thisIndex,trialsPracticeSpanish.ran,trialsPracticeSpanish.order,trial_id,word,test_language,soundfile,date,expName,psychopyVersion,OS,frameRate,participant,trialOffset,trialsSpanish.thisRepN,trialsSpanish.thisTrialN,trialsSpanish.thisN,trialsSpanish.thisIndex,trialsSpanish.ran,trialsSpanish.order
space,2.723999977,e,3.129999876,,,,,,,,,,1,4.331999779,1,1.38499999,1,2.907999992,1,1.483999968,1,0.462999821,1,0.975999832,19,m,3.84100008,3,19.523,LONDON,y,6.907999754,n,2.512999773,1,2.047999859,1,1.856999874,space,15.41599989,j,2.430000067,J,FALSE,1,0,5,2,1,4,26,chaqueta,Spanish,Sounds/spa_chaqueta.mp3,2020-06-11_10h31.05.948,TranslationElicitation_eng-prolific,3.2.4,Win32,60,5e3878bdb7fe58049b837ea9,,,,,,,
,,,,,,,,,,,,,,,,,,,,,,,,,,,,,,,,,,,,,,,,,a,2.54700017,JA,FALSE,1,0,5,2,1,4,26,chaqueta,Spanish,Sounds/spa_chaqueta.mp3,2020-06-11_10h31.05.948,TranslationElicitation_eng-prolific,3.2.4,Win32,60,5e3878bdb7fe58049b837ea9,,,,,,,
,,,,,,,,,,,,,,,,,,,,,,,,,,,,,,,,,,,,,,,,,c,2.614000082,JAC,FALSE,1,0,5,2,1,4,26,chaqueta,Spanish,Sounds/spa_chaqueta.mp3,2020-06-11_10h31.05.948,TranslationElicitation_eng-prolific,3.2.4,Win32,60,5e3878bdb7fe58049b837ea9,,,,,,,
,,,,,,,,,,,,,,,,,,,,,,,,,,,,,,,,,,,,,,,,,k,2.746000051,JACK,FALSE,1,0,5,2,1,4,26,chaqueta,Spanish,Sounds/spa_chaqueta.mp3,2020-06-11_10h31.05.948,TranslationElicitation_eng-prolific,3.2.4,Win32,60,5e3878bdb7fe58049b837ea9,,,,,,,
,,,,,,,,,,,,,,,,,,,,,,,,,,,,,,,,,,,,,,,,,e,2.919000149,JACKE,FALSE,1,0,5,2,1,4,26,chaqueta,Spanish,Sounds/spa_chaqueta.mp3,2020-06-11_10h31.05.948,TranslationElicitation_eng-prolific,3.2.4,Win32,60,5e3878bdb7fe58049b837ea9,,,,,,,
,,,,,,,,,,,,,,,,,,,,,,,,,,,,,,,,,,,,,,,,,t,3.02699995,JACKET,FALSE,1,0,5,2,1,4,26,chaqueta,Spanish,Sounds/spa_chaqueta.mp3,2020-06-11_10h31.05.948,TranslationElicitation_eng-prolific,3.2.4,Win32,60,5e3878bdb7fe58049b837ea9,,,,,,,
,,,,,,,,,,,,,,,,,,,,,,,,,,,,,,,,,,,,,,,,,return,3.366000175,JACKET,FALSE,1,0,5,2,1,4,26,chaqueta,Spanish,Sounds/spa_chaqueta.mp3,2020-06-11_10h31.05.948,TranslationElicitation_eng-prolific,3.2.4,Win32,60,5e3878bdb7fe58049b837ea9,3.366000175,,,,,,
,,,,,,,,,,,,,,,,,,,,,,,,,,,,,,,,,,,,,,,,,,,,,1,0,5,2,1,4,26,chaqueta,Spanish,Sounds/spa_chaqueta.mp3,2020-06-11_10h31.05.948,TranslationElicitation_eng-prolific,3.2.4,Win32,60,5e3878bdb7fe58049b837ea9,,,,,,,
,,,,,,,,,,,,,,,,,,,,,,,,,,,,,,,,,,,,,,,,,w,1.915999889,W,FALSE,1,0,5,0,1,4,1,arbol,Spanish,Sounds/spa_arbol.mp3,2020-06-11_10h31.05.948,TranslationElicitation_eng-prolific,3.2.4,Win32,60,5e3878bdb7fe58049b837ea9,,,,,,,
,,,,,,,,,,,,,,,,,,,,,,,,,,,,,,,,,,,,,,,,,a,2.005999804,WA,FALSE,1,0,5,0,1,4,1,arbol,Spanish,Sounds/spa_arbol.mp3,2020-06-11_10h31.05.948,TranslationElicitation_eng-prolific,3.2.4,Win32,60,5e3878bdb7fe58049b837ea9,,,,,,,
,,,,,,,,,,,,,,,,,,,,,,,,,,,,,,,,,,,,,,,,,l,2.133999825,WAL,FALSE,1,0,5,0,1,4,1,arbol,Spanish,Sounds/spa_arbol.mp3,2020-06-11_10h31.05.948,TranslationElicitation_eng-prolific,3.2.4,Win32,60,5e3878bdb7fe58049b837ea9,,,,,,,
,,,,,,,,,,,,,,,,,,,,,,,,,,,,,,,,,,,,,,,,,l,2.287999868,WALL,FALSE,1,0,5,0,1,4,1,arbol,Spanish,Sounds/spa_arbol.mp3,2020-06-11_10h31.05.948,TranslationElicitation_eng-prolific,3.2.4,Win32,60,5e3878bdb7fe58049b837ea9,,,,,,,
,,,,,,,,,,,,,,,,,,,,,,,,,,,,,,,,,,,,,,,,,return,2.5,WALL,FALSE,1,0,5,0,1,4,1,arbol,Spanish,Sounds/spa_arbol.mp3,2020-06-11_10h31.05.948,TranslationElicitation_eng-prolific,3.2.4,Win32,60,5e3878bdb7fe58049b837ea9,2.5,,,,,,
,,,,,,,,,,,,,,,,,,,,,,,,,,,,,,,,,,,,,,,,,,,,,1,0,5,0,1,4,1,arbol,Spanish,Sounds/spa_arbol.mp3,2020-06-11_10h31.05.948,TranslationElicitation_eng-prolific,3.2.4,Win32,60,5e3878bdb7fe58049b837ea9,,,,,,,
,,,,,,,,,,,,,,,,,,,,,,,,,,,,,,,,,,,,,,,,,t,2.503999949,T,FALSE,1,0,5,4,1,4,96,tigre,Spanish,Sounds/spa_tigre.mp3,2020-06-11_10h31.05.948,TranslationElicitation_eng-prolific,3.2.4,Win32,60,5e3878bdb7fe58049b837ea9,,,,,,,
,,,,,,,,,,,,,,,,,,,,,,,,,,,,,,,,,,,,,,,,,i,2.57799983,TI,FALSE,1,0,5,4,1,4,96,tigre,Spanish,Sounds/spa_tigre.mp3,2020-06-11_10h31.05.948,TranslationElicitation_eng-prolific,3.2.4,Win32,60,5e3878bdb7fe58049b837ea9,,,,,,,
,,,,,,,,,,,,,,,,,,,,,,,,,,,,,,,,,,,,,,,,,g,2.830999851,TIG,FALSE,1,0,5,4,1,4,96,tigre,Spanish,Sounds/spa_tigre.mp3,2020-06-11_10h31.05.948,TranslationElicitation_eng-prolific,3.2.4,Win32,60,5e3878bdb7fe58049b837ea9,,,,,,,
,,,,,,,,,,,,,,,,,,,,,,,,,,,,,,,,,,,,,,,,,e,2.837999821,TIGE,FALSE,1,0,5,4,1,4,96,tigre,Spanish,Sounds/spa_tigre.mp3,2020-06-11_10h31.05.948,TranslationElicitation_eng-prolific,3.2.4,Win32,60,5e3878bdb7fe58049b837ea9,,,,,,,
,,,,,,,,,,,,,,,,,,,,,,,,,,,,,,,,,,,,,,,,,r,2.914999962,TIGER,FALSE,1,0,5,4,1,4,96,tigre,Spanish,Sounds/spa_tigre.mp3,2020-06-11_10h31.05.948,TranslationElicitation_eng-prolific,3.2.4,Win32,60,5e3878bdb7fe58049b837ea9,,,,,,,
,,,,,,,,,,,,,,,,,,,,,,,,,,,,,,,,,,,,,,,,,return,3.239999771,TIGER,FALSE,1,0,5,4,1,4,96,tigre,Spanish,Sounds/spa_tigre.mp3,2020-06-11_10h31.05.948,TranslationElicitation_eng-prolific,3.2.4,Win32,60,5e3878bdb7fe58049b837ea9,3.239999771,,,,,,
,,,,,,,,,,,,,,,,,,,,,,,,,,,,,,,,,,,,,,,,,,,,,1,0,5,4,1,4,96,tigre,Spanish,Sounds/spa_tigre.mp3,2020-06-11_10h31.05.948,TranslationElicitation_eng-prolific,3.2.4,Win32,60,5e3878bdb7fe58049b837ea9,,,,,,,
,,,,,,,,,,,,,,,,,,,,,,,,,,,,,,,,,,,,,,,,,h,1.68900013,H,FALSE,1,0,5,3,1,4,70,ola,Spanish,Sounds/spa_ola.mp3,2020-06-11_10h31.05.948,TranslationElicitation_eng-prolific,3.2.4,Win32,60,5e3878bdb7fe58049b837ea9,,,,,,,
,,,,,,,,,,,,,,,,,,,,,,,,,,,,,,,,,,,,,,,,,e,1.884000063,HE,FALSE,1,0,5,3,1,4,70,ola,Spanish,Sounds/spa_ola.mp3,2020-06-11_10h31.05.948,TranslationElicitation_eng-prolific,3.2.4,Win32,60,5e3878bdb7fe58049b837ea9,,,,,,,
,,,,,,,,,,,,,,,,,,,,,,,,,,,,,,,,,,,,,,,,,l,1.96600008,HEL,FALSE,1,0,5,3,1,4,70,ola,Spanish,Sounds/spa_ola.mp3,2020-06-11_10h31.05.948,TranslationElicitation_eng-prolific,3.2.4,Win32,60,5e3878bdb7fe58049b837ea9,,,,,,,
,,,,,,,,,,,,,,,,,,,,,,,,,,,,,,,,,,,,,,,,,l,2.094000101,HELL,FALSE,1,0,5,3,1,4,70,ola,Spanish,Sounds/spa_ola.mp3,2020-06-11_10h31.05.948,TranslationElicitation_eng-prolific,3.2.4,Win32,60,5e3878bdb7fe58049b837ea9,,,,,,,
,,,,,,,,,,,,,,,,,,,,,,,,,,,,,,,,,,,,,,,,,o,2.235000134,HELLO,FALSE,1,0,5,3,1,4,70,ola,Spanish,Sounds/spa_ola.mp3,2020-06-11_10h31.05.948,TranslationElicitation_eng-prolific,3.2.4,Win32,60,5e3878bdb7fe58049b837ea9,,,,,,,
,,,,,,,,,,,,,,,,,,,,,,,,,,,,,,,,,,,,,,,,,return,2.510999918,HELLO,FALSE,1,0,5,3,1,4,70,ola,Spanish,Sounds/spa_ola.mp3,2020-06-11_10h31.05.948,TranslationElicitation_eng-prolific,3.2.4,Win32,60,5e3878bdb7fe58049b837ea9,2.510999918,,,,,,
,,,,,,,,,,,,,,,,,,,,,,,,,,,,,,,,,,,,,,,,,,,,,1,0,5,3,1,4,70,ola,Spanish,Sounds/spa_ola.mp3,2020-06-11_10h31.05.948,TranslationElicitation_eng-prolific,3.2.4,Win32,60,5e3878bdb7fe58049b837ea9,,,,,,,
,,,,,,,,,,,,,,,,,,,,,,,,,,,,,,,,,,,,,,,,,b,1.748000145,B,FALSE,1,0,5,1,1,4,30,corona,Spanish,Sounds/spa_corona.mp3,2020-06-11_10h31.05.948,TranslationElicitation_eng-prolific,3.2.4,Win32,60,5e3878bdb7fe58049b837ea9,,,,,,,
,,,,,,,,,,,,,,,,,,,,,,,,,,,,,,,,,,,,,,,,,e,1.803000212,BE,FALSE,1,0,5,1,1,4,30,corona,Spanish,Sounds/spa_corona.mp3,2020-06-11_10h31.05.948,TranslationElicitation_eng-prolific,3.2.4,Win32,60,5e3878bdb7fe58049b837ea9,,,,,,,
,,,,,,,,,,,,,,,,,,,,,,,,,,,,,,,,,,,,,,,,,e,1.963000059,BEE,FALSE,1,0,5,1,1,4,30,corona,Spanish,Sounds/spa_corona.mp3,2020-06-11_10h31.05.948,TranslationElicitation_eng-prolific,3.2.4,Win32,60,5e3878bdb7fe58049b837ea9,,,,,,,
,,,,,,,,,,,,,,,,,,,,,,,,,,,,,,,,,,,,,,,,,r,2.063000202,BEER,FALSE,1,0,5,1,1,4,30,corona,Spanish,Sounds/spa_corona.mp3,2020-06-11_10h31.05.948,TranslationElicitation_eng-prolific,3.2.4,Win32,60,5e3878bdb7fe58049b837ea9,,,,,,,
,,,,,,,,,,,,,,,,,,,,,,,,,,,,,,,,,,,,,,,,,return,2.224000216,BEER,FALSE,1,0,5,1,1,4,30,corona,Spanish,Sounds/spa_corona.mp3,2020-06-11_10h31.05.948,TranslationElicitation_eng-prolific,3.2.4,Win32,60,5e3878bdb7fe58049b837ea9,2.224000216,,,,,,
,,,,,,,,,,,,,,,,,,,,,,,,,,,,,,,,,,,,,,,,,,,,,1,0,5,1,1,4,30,corona,Spanish,Sounds/spa_corona.mp3,2020-06-11_10h31.05.948,TranslationElicitation_eng-prolific,3.2.4,Win32,60,5e3878bdb7fe58049b837ea9,,,,,,,
,,,,,,,,,,,,,,,,,,,,,,,,,,,,,,,,,,,,,,,,,s,2.087000132,S,FALSE,,,,,,,2,avestruz,Spanish,Sounds/spa_avestruz.mp3,2020-06-11_10h31.05.948,TranslationElicitation_eng-prolific,3.2.4,Win32,60,5e3878bdb7fe58049b837ea9,,1,0,98,0,1,97
,,,,,,,,,,,,,,,,,,,,,,,,,,,,,,,,,,,,,,,,,t,2.556999922,ST,FALSE,,,,,,,2,avestruz,Spanish,Sounds/spa_avestruz.mp3,2020-06-11_10h31.05.948,TranslationElicitation_eng-prolific,3.2.4,Win32,60,5e3878bdb7fe58049b837ea9,,1,0,98,0,1,97
,,,,,,,,,,,,,,,,,,,,,,,,,,,,,,,,,,,,,,,,,r,2.993999958,STR,FALSE,,,,,,,2,avestruz,Spanish,Sounds/spa_avestruz.mp3,2020-06-11_10h31.05.948,TranslationElicitation_eng-prolific,3.2.4,Win32,60,5e3878bdb7fe58049b837ea9,,1,0,98,0,1,97
,,,,,,,,,,,,,,,,,,,,,,,,,,,,,,,,,,,,,,,,,a,3.078999996,STRA,FALSE,,,,,,,2,avestruz,Spanish,Sounds/spa_avestruz.mp3,2020-06-11_10h31.05.948,TranslationElicitation_eng-prolific,3.2.4,Win32,60,5e3878bdb7fe58049b837ea9,,1,0,98,0,1,97
,,,,,,,,,,,,,,,,,,,,,,,,,,,,,,,,,,,,,,,,,w,3.19900012,STRAW,FALSE,,,,,,,2,avestruz,Spanish,Sounds/spa_avestruz.mp3,2020-06-11_10h31.05.948,TranslationElicitation_eng-prolific,3.2.4,Win32,60,5e3878bdb7fe58049b837ea9,,1,0,98,0,1,97
,,,,,,,,,,,,,,,,,,,,,,,,,,,,,,,,,,,,,,,,,return,3.498000145,STRAW,FALSE,,,,,,,2,avestruz,Spanish,Sounds/spa_avestruz.mp3,2020-06-11_10h31.05.948,TranslationElicitation_eng-prolific,3.2.4,Win32,60,5e3878bdb7fe58049b837ea9,3.498000145,1,0,98,0,1,97
,,,,,,,,,,,,,,,,,,,,,,,,,,,,,,,,,,,,,,,,,,,,,,,,,,,2,avestruz,Spanish,Sounds/spa_avestruz.mp3,2020-06-11_10h31.05.948,TranslationElicitation_eng-prolific,3.2.4,Win32,60,5e3878bdb7fe58049b837ea9,,1,0,98,0,1,97
,,,,,,,,,,,,,,,,,,,,,,,,,,,,,,,,,,,,,,,,,m,1.870000124,M,FALSE,,,,,,,67,muneca,Spanish,Sounds/spa_muneca.mp3,2020-06-11_10h31.05.948,TranslationElicitation_eng-prolific,3.2.4,Win32,60,5e3878bdb7fe58049b837ea9,,1,0,98,63,1,97
,,,,,,,,,,,,,,,,,,,,,,,,,,,,,,,,,,,,,,,,,o,2.058000088,MO,FALSE,,,,,,,67,muneca,Spanish,Sounds/spa_muneca.mp3,2020-06-11_10h31.05.948,TranslationElicitation_eng-prolific,3.2.4,Win32,60,5e3878bdb7fe58049b837ea9,,1,0,98,63,1,97
,,,,,,,,,,,,,,,,,,,,,,,,,,,,,,,,,,,,,,,,,r,2.17200017,MOR,FALSE,,,,,,,67,muneca,Spanish,Sounds/spa_muneca.mp3,2020-06-11_10h31.05.948,TranslationElicitation_eng-prolific,3.2.4,Win32,60,5e3878bdb7fe58049b837ea9,,1,0,98,63,1,97
,,,,,,,,,,,,,,,,,,,,,,,,,,,,,,,,,,,,,,,,,n,2.278000116,MORN,FALSE,,,,,,,67,muneca,Spanish,Sounds/spa_muneca.mp3,2020-06-11_10h31.05.948,TranslationElicitation_eng-prolific,3.2.4,Win32,60,5e3878bdb7fe58049b837ea9,,1,0,98,63,1,97
,,,,,,,,,,,,,,,,,,,,,,,,,,,,,,,,,,,,,,,,,i,2.488000154,MORNI,FALSE,,,,,,,67,muneca,Spanish,Sounds/spa_muneca.mp3,2020-06-11_10h31.05.948,TranslationElicitation_eng-prolific,3.2.4,Win32,60,5e3878bdb7fe58049b837ea9,,1,0,98,63,1,97
,,,,,,,,,,,,,,,,,,,,,,,,,,,,,,,,,,,,,,,,,n,2.546000004,MORNIN,FALSE,,,,,,,67,muneca,Spanish,Sounds/spa_muneca.mp3,2020-06-11_10h31.05.948,TranslationElicitation_eng-prolific,3.2.4,Win32,60,5e3878bdb7fe58049b837ea9,,1,0,98,63,1,97
,,,,,,,,,,,,,,,,,,,,,,,,,,,,,,,,,,,,,,,,,g,2.685000181,MORNING,FALSE,,,,,,,67,muneca,Spanish,Sounds/spa_muneca.mp3,2020-06-11_10h31.05.948,TranslationElicitation_eng-prolific,3.2.4,Win32,60,5e3878bdb7fe58049b837ea9,,1,0,98,63,1,97
,,,,,,,,,,,,,,,,,,,,,,,,,,,,,,,,,,,,,,,,,return,2.994000196,MORNING,FALSE,,,,,,,67,muneca,Spanish,Sounds/spa_muneca.mp3,2020-06-11_10h31.05.948,TranslationElicitation_eng-prolific,3.2.4,Win32,60,5e3878bdb7fe58049b837ea9,2.994000196,1,0,98,63,1,97
,,,,,,,,,,,,,,,,,,,,,,,,,,,,,,,,,,,,,,,,,,,,,,,,,,,67,muneca,Spanish,Sounds/spa_muneca.mp3,2020-06-11_10h31.05.948,TranslationElicitation_eng-prolific,3.2.4,Win32,60,5e3878bdb7fe58049b837ea9,,1,0,98,63,1,97
,,,,,,,,,,,,,,,,,,,,,,,,,,,,,,,,,,,,,,,,,t,3.478000164,T,FALSE,,,,,,,39,gafas,Spanish,Sounds/spa_gafas.mp3,2020-06-11_10h31.05.948,TranslationElicitation_eng-prolific,3.2.4,Win32,60,5e3878bdb7fe58049b837ea9,,1,0,98,35,1,97
,,,,,,,,,,,,,,,,,,,,,,,,,,,,,,,,,,,,,,,,,r,3.637000084,TR,FALSE,,,,,,,39,gafas,Spanish,Sounds/spa_gafas.mp3,2020-06-11_10h31.05.948,TranslationElicitation_eng-prolific,3.2.4,Win32,60,5e3878bdb7fe58049b837ea9,,1,0,98,35,1,97
,,,,,,,,,,,,,,,,,,,,,,,,,,,,,,,,,,,,,,,,,a,3.72300005,TRA,FALSE,,,,,,,39,gafas,Spanish,Sounds/spa_gafas.mp3,2020-06-11_10h31.05.948,TranslationElicitation_eng-prolific,3.2.4,Win32,60,5e3878bdb7fe58049b837ea9,,1,0,98,35,1,97
,,,,,,,,,,,,,,,,,,,,,,,,,,,,,,,,,,,,,,,,,i,3.914000034,TRAI,FALSE,,,,,,,39,gafas,Spanish,Sounds/spa_gafas.mp3,2020-06-11_10h31.05.948,TranslationElicitation_eng-prolific,3.2.4,Win32,60,5e3878bdb7fe58049b837ea9,,1,0,98,35,1,97
,,,,,,,,,,,,,,,,,,,,,,,,,,,,,,,,,,,,,,,,,n,4.179000139,TRAIN,FALSE,,,,,,,39,gafas,Spanish,Sounds/spa_gafas.mp3,2020-06-11_10h31.05.948,TranslationElicitation_eng-prolific,3.2.4,Win32,60,5e3878bdb7fe58049b837ea9,,1,0,98,35,1,97
,,,,,,,,,,,,,,,,,,,,,,,,,,,,,,,,,,,,,,,,,return,4.332000017,TRAIN,FALSE,,,,,,,39,gafas,Spanish,Sounds/spa_gafas.mp3,2020-06-11_10h31.05.948,TranslationElicitation_eng-prolific,3.2.4,Win32,60,5e3878bdb7fe58049b837ea9,4.332000017,1,0,98,35,1,97
,,,,,,,,,,,,,,,,,,,,,,,,,,,,,,,,,,,,,,,,,,,,,,,,,,,39,gafas,Spanish,Sounds/spa_gafas.mp3,2020-06-11_10h31.05.948,TranslationElicitation_eng-prolific,3.2.4,Win32,60,5e3878bdb7fe58049b837ea9,,1,0,98,35,1,97
,,,,,,,,,,,,,,,,,,,,,,,,,,,,,,,,,,,,,,,,,b,4.066000223,B,FALSE,,,,,,,5,bici,Spanish,Sounds/spa_bici.mp3,2020-06-11_10h31.05.948,TranslationElicitation_eng-prolific,3.2.4,Win32,60,5e3878bdb7fe58049b837ea9,,1,0,98,3,1,97
,,,,,,,,,,,,,,,,,,,,,,,,,,,,,,,,,,,,,,,,,e,4.278000116,BE,FALSE,,,,,,,5,bici,Spanish,Sounds/spa_bici.mp3,2020-06-11_10h31.05.948,TranslationElicitation_eng-prolific,3.2.4,Win32,60,5e3878bdb7fe58049b837ea9,,1,0,98,3,1,97
,,,,,,,,,,,,,,,,,,,,,,,,,,,,,,,,,,,,,,,,,e,4.462000132,BEE,FALSE,,,,,,,5,bici,Spanish,Sounds/spa_bici.mp3,2020-06-11_10h31.05.948,TranslationElicitation_eng-prolific,3.2.4,Win32,60,5e3878bdb7fe58049b837ea9,,1,0,98,3,1,97
,,,,,,,,,,,,,,,,,,,,,,,,,,,,,,,,,,,,,,,,,s,4.636000156,BEES,FALSE,,,,,,,5,bici,Spanish,Sounds/spa_bici.mp3,2020-06-11_10h31.05.948,TranslationElicitation_eng-prolific,3.2.4,Win32,60,5e3878bdb7fe58049b837ea9,,1,0,98,3,1,97
,,,,,,,,,,,,,,,,,,,,,,,,,,,,,,,,,,,,,,,,,return,4.747000217,BEES,FALSE,,,,,,,5,bici,Spanish,Sounds/spa_bici.mp3,2020-06-11_10h31.05.948,TranslationElicitation_eng-prolific,3.2.4,Win32,60,5e3878bdb7fe58049b837ea9,4.747000217,1,0,98,3,1,97
,,,,,,,,,,,,,,,,,,,,,,,,,,,,,,,,,,,,,,,,,,,,,,,,,,,5,bici,Spanish,Sounds/spa_bici.mp3,2020-06-11_10h31.05.948,TranslationElicitation_eng-prolific,3.2.4,Win32,60,5e3878bdb7fe58049b837ea9,,1,0,98,3,1,97
,,,,,,,,,,,,,,,,,,,,,,,,,,,,,,,,,,,,,,,,,f,1.487999916,F,FALSE,,,,,,,37,flor,Spanish,Sounds/spa_flor.mp3,2020-06-11_10h31.05.948,TranslationElicitation_eng-prolific,3.2.4,Win32,60,5e3878bdb7fe58049b837ea9,,1,0,98,33,1,97
,,,,,,,,,,,,,,,,,,,,,,,,,,,,,,,,,,,,,,,,,l,1.52699995,FL,FALSE,,,,,,,37,flor,Spanish,Sounds/spa_flor.mp3,2020-06-11_10h31.05.948,TranslationElicitation_eng-prolific,3.2.4,Win32,60,5e3878bdb7fe58049b837ea9,,1,0,98,33,1,97
,,,,,,,,,,,,,,,,,,,,,,,,,,,,,,,,,,,,,,,,,o,1.698999882,FLO,FALSE,,,,,,,37,flor,Spanish,Sounds/spa_flor.mp3,2020-06-11_10h31.05.948,TranslationElicitation_eng-prolific,3.2.4,Win32,60,5e3878bdb7fe58049b837ea9,,1,0,98,33,1,97
,,,,,,,,,,,,,,,,,,,,,,,,,,,,,,,,,,,,,,,,,w,1.743999958,FLOW,FALSE,,,,,,,37,flor,Spanish,Sounds/spa_flor.mp3,2020-06-11_10h31.05.948,TranslationElicitation_eng-prolific,3.2.4,Win32,60,5e3878bdb7fe58049b837ea9,,1,0,98,33,1,97
,,,,,,,,,,,,,,,,,,,,,,,,,,,,,,,,,,,,,,,,,e,1.81099987,FLOWE,FALSE,,,,,,,37,flor,Spanish,Sounds/spa_flor.mp3,2020-06-11_10h31.05.948,TranslationElicitation_eng-prolific,3.2.4,Win32,60,5e3878bdb7fe58049b837ea9,,1,0,98,33,1,97
,,,,,,,,,,,,,,,,,,,,,,,,,,,,,,,,,,,,,,,,,r,1.990999937,FLOWER,FALSE,,,,,,,37,flor,Spanish,Sounds/spa_flor.mp3,2020-06-11_10h31.05.948,TranslationElicitation_eng-prolific,3.2.4,Win32,60,5e3878bdb7fe58049b837ea9,,1,0,98,33,1,97
,,,,,,,,,,,,,,,,,,,,,,,,,,,,,,,,,,,,,,,,,return,2.102999926,FLOWER,FALSE,,,,,,,37,flor,Spanish,Sounds/spa_flor.mp3,2020-06-11_10h31.05.948,TranslationElicitation_eng-prolific,3.2.4,Win32,60,5e3878bdb7fe58049b837ea9,2.102999926,1,0,98,33,1,97
,,,,,,,,,,,,,,,,,,,,,,,,,,,,,,,,,,,,,,,,,,,,,,,,,,,37,flor,Spanish,Sounds/spa_flor.mp3,2020-06-11_10h31.05.948,TranslationElicitation_eng-prolific,3.2.4,Win32,60,5e3878bdb7fe58049b837ea9,,1,0,98,33,1,97
,,,,,,,,,,,,,,,,,,,,,,,,,,,,,,,,,,,,,,,,,g,2.435000181,G,FALSE,,,,,,,85,pierna,Spanish,Sounds/spa_pierna.mp3,2020-06-11_10h31.05.948,TranslationElicitation_eng-prolific,3.2.4,Win32,60,5e3878bdb7fe58049b837ea9,,1,0,98,80,1,97
,,,,,,,,,,,,,,,,,,,,,,,,,,,,,,,,,,,,,,,,,o,2.505000114,GO,FALSE,,,,,,,85,pierna,Spanish,Sounds/spa_pierna.mp3,2020-06-11_10h31.05.948,TranslationElicitation_eng-prolific,3.2.4,Win32,60,5e3878bdb7fe58049b837ea9,,1,0,98,80,1,97
,,,,,,,,,,,,,,,,,,,,,,,,,,,,,,,,,,,,,,,,,o,2.63499999,GOO,FALSE,,,,,,,85,pierna,Spanish,Sounds/spa_pierna.mp3,2020-06-11_10h31.05.948,TranslationElicitation_eng-prolific,3.2.4,Win32,60,5e3878bdb7fe58049b837ea9,,1,0,98,80,1,97
,,,,,,,,,,,,,,,,,,,,,,,,,,,,,,,,,,,,,,,,,t,2.733999968,GOOT,FALSE,,,,,,,85,pierna,Spanish,Sounds/spa_pierna.mp3,2020-06-11_10h31.05.948,TranslationElicitation_eng-prolific,3.2.4,Win32,60,5e3878bdb7fe58049b837ea9,,1,0,98,80,1,97
,,,,,,,,,,,,,,,,,,,,,,,,,,,,,,,,,,,,,,,,,return,2.880000114,GOOT,FALSE,,,,,,,85,pierna,Spanish,Sounds/spa_pierna.mp3,2020-06-11_10h31.05.948,TranslationElicitation_eng-prolific,3.2.4,Win32,60,5e3878bdb7fe58049b837ea9,2.880000114,1,0,98,80,1,97
,,,,,,,,,,,,,,,,,,,,,,,,,,,,,,,,,,,,,,,,,,,,,,,,,,,85,pierna,Spanish,Sounds/spa_pierna.mp3,2020-06-11_10h31.05.948,TranslationElicitation_eng-prolific,3.2.4,Win32,60,5e3878bdb7fe58049b837ea9,,1,0,98,80,1,97
,,,,,,,,,,,,,,,,,,,,,,,,,,,,,,,,,,,,,,,,,t,3.257999897,T,FALSE,,,,,,,91,puerta,Spanish,Sounds/spa_puerta.mp3,2020-06-11_10h31.05.948,TranslationElicitation_eng-prolific,3.2.4,Win32,60,5e3878bdb7fe58049b837ea9,,1,0,98,86,1,97
,,,,,,,,,,,,,,,,,,,,,,,,,,,,,,,,,,,,,,,,,a,3.411000013,TA,FALSE,,,,,,,91,puerta,Spanish,Sounds/spa_puerta.mp3,2020-06-11_10h31.05.948,TranslationElicitation_eng-prolific,3.2.4,Win32,60,5e3878bdb7fe58049b837ea9,,1,0,98,86,1,97
,,,,,,,,,,,,,,,,,,,,,,,,,,,,,,,,,,,,,,,,,n,4.011999846,TAN,FALSE,,,,,,,91,puerta,Spanish,Sounds/spa_puerta.mp3,2020-06-11_10h31.05.948,TranslationElicitation_eng-prolific,3.2.4,Win32,60,5e3878bdb7fe58049b837ea9,,1,0,98,86,1,97
,,,,,,,,,,,,,,,,,,,,,,,,,,,,,,,,,,,,,,,,,backspace,4.444999933,TA,TRUE,,,,,,,91,puerta,Spanish,Sounds/spa_puerta.mp3,2020-06-11_10h31.05.948,TranslationElicitation_eng-prolific,3.2.4,Win32,60,5e3878bdb7fe58049b837ea9,,1,0,98,86,1,97
,,,,,,,,,,,,,,,,,,,,,,,,,,,,,,,,,,,,,,,,,b,4.71999979,TAB,TRUE,,,,,,,91,puerta,Spanish,Sounds/spa_puerta.mp3,2020-06-11_10h31.05.948,TranslationElicitation_eng-prolific,3.2.4,Win32,60,5e3878bdb7fe58049b837ea9,,1,0,98,86,1,97
,,,,,,,,,,,,,,,,,,,,,,,,,,,,,,,,,,,,,,,,,l,4.807999849,TABL,TRUE,,,,,,,91,puerta,Spanish,Sounds/spa_puerta.mp3,2020-06-11_10h31.05.948,TranslationElicitation_eng-prolific,3.2.4,Win32,60,5e3878bdb7fe58049b837ea9,,1,0,98,86,1,97
,,,,,,,,,,,,,,,,,,,,,,,,,,,,,,,,,,,,,,,,,e,4.911000013,TABLE,TRUE,,,,,,,91,puerta,Spanish,Sounds/spa_puerta.mp3,2020-06-11_10h31.05.948,TranslationElicitation_eng-prolific,3.2.4,Win32,60,5e3878bdb7fe58049b837ea9,,1,0,98,86,1,97
,,,,,,,,,,,,,,,,,,,,,,,,,,,,,,,,,,,,,,,,,return,5.037999868,TABLE,TRUE,,,,,,,91,puerta,Spanish,Sounds/spa_puerta.mp3,2020-06-11_10h31.05.948,TranslationElicitation_eng-prolific,3.2.4,Win32,60,5e3878bdb7fe58049b837ea9,5.037999868,1,0,98,86,1,97
,,,,,,,,,,,,,,,,,,,,,,,,,,,,,,,,,,,,,,,,,,,,,,,,,,,91,puerta,Spanish,Sounds/spa_puerta.mp3,2020-06-11_10h31.05.948,TranslationElicitation_eng-prolific,3.2.4,Win32,60,5e3878bdb7fe58049b837ea9,,1,0,98,86,1,97
,,,,,,,,,,,,,,,,,,,,,,,,,,,,,,,,,,,,,,,,,o,1.342000008,O,FALSE,,,,,,,99,tomate,Spanish,Sounds/spa_tomate.mp3,2020-06-11_10h31.05.948,TranslationElicitation_eng-prolific,3.2.4,Win32,60,5e3878bdb7fe58049b837ea9,,1,0,98,93,1,97
,,,,,,,,,,,,,,,,,,,,,,,,,,,,,,,,,,,,,,,,,m,1.50999999,OM,FALSE,,,,,,,99,tomate,Spanish,Sounds/spa_tomate.mp3,2020-06-11_10h31.05.948,TranslationElicitation_eng-prolific,3.2.4,Win32,60,5e3878bdb7fe58049b837ea9,,1,0,98,93,1,97
,,,,,,,,,,,,,,,,,,,,,,,,,,,,,,,,,,,,,,,,,t,1.639000177,OMT,FALSE,,,,,,,99,tomate,Spanish,Sounds/spa_tomate.mp3,2020-06-11_10h31.05.948,TranslationElicitation_eng-prolific,3.2.4,Win32,60,5e3878bdb7fe58049b837ea9,,1,0,98,93,1,97
,,,,,,,,,,,,,,,,,,,,,,,,,,,,,,,,,,,,,,,,,a,1.851999998,OMTA,FALSE,,,,,,,99,tomate,Spanish,Sounds/spa_tomate.mp3,2020-06-11_10h31.05.948,TranslationElicitation_eng-prolific,3.2.4,Win32,60,5e3878bdb7fe58049b837ea9,,1,0,98,93,1,97
,,,,,,,,,,,,,,,,,,,,,,,,,,,,,,,,,,,,,,,,,backspace,2.103000164,OMT,TRUE,,,,,,,99,tomate,Spanish,Sounds/spa_tomate.mp3,2020-06-11_10h31.05.948,TranslationElicitation_eng-prolific,3.2.4,Win32,60,5e3878bdb7fe58049b837ea9,,1,0,98,93,1,97
,,,,,,,,,,,,,,,,,,,,,,,,,,,,,,,,,,,,,,,,,backspace,2.257000208,OM,TRUE,,,,,,,99,tomate,Spanish,Sounds/spa_tomate.mp3,2020-06-11_10h31.05.948,TranslationElicitation_eng-prolific,3.2.4,Win32,60,5e3878bdb7fe58049b837ea9,,1,0,98,93,1,97
,,,,,,,,,,,,,,,,,,,,,,,,,,,,,,,,,,,,,,,,,backspace,2.396000147,O,TRUE,,,,,,,99,tomate,Spanish,Sounds/spa_tomate.mp3,2020-06-11_10h31.05.948,TranslationElicitation_eng-prolific,3.2.4,Win32,60,5e3878bdb7fe58049b837ea9,,1,0,98,93,1,97
,,,,,,,,,,,,,,,,,,,,,,,,,,,,,,,,,,,,,,,,,backspace,2.534000158,,TRUE,,,,,,,99,tomate,Spanish,Sounds/spa_tomate.mp3,2020-06-11_10h31.05.948,TranslationElicitation_eng-prolific,3.2.4,Win32,60,5e3878bdb7fe58049b837ea9,,1,0,98,93,1,97
,,,,,,,,,,,,,,,,,,,,,,,,,,,,,,,,,,,,,,,,,t,2.955000162,T,TRUE,,,,,,,99,tomate,Spanish,Sounds/spa_tomate.mp3,2020-06-11_10h31.05.948,TranslationElicitation_eng-prolific,3.2.4,Win32,60,5e3878bdb7fe58049b837ea9,,1,0,98,93,1,97
,,,,,,,,,,,,,,,,,,,,,,,,,,,,,,,,,,,,,,,,,o,3.015000105,TO,TRUE,,,,,,,99,tomate,Spanish,Sounds/spa_tomate.mp3,2020-06-11_10h31.05.948,TranslationElicitation_eng-prolific,3.2.4,Win32,60,5e3878bdb7fe58049b837ea9,,1,0,98,93,1,97
,,,,,,,,,,,,,,,,,,,,,,,,,,,,,,,,,,,,,,,,,m,3.18200016,TOM,TRUE,,,,,,,99,tomate,Spanish,Sounds/spa_tomate.mp3,2020-06-11_10h31.05.948,TranslationElicitation_eng-prolific,3.2.4,Win32,60,5e3878bdb7fe58049b837ea9,,1,0,98,93,1,97
,,,,,,,,,,,,,,,,,,,,,,,,,,,,,,,,,,,,,,,,,a,3.263000011,TOMA,TRUE,,,,,,,99,tomate,Spanish,Sounds/spa_tomate.mp3,2020-06-11_10h31.05.948,TranslationElicitation_eng-prolific,3.2.4,Win32,60,5e3878bdb7fe58049b837ea9,,1,0,98,93,1,97
,,,,,,,,,,,,,,,,,,,,,,,,,,,,,,,,,,,,,,,,,t,3.327000141,TOMAT,TRUE,,,,,,,99,tomate,Spanish,Sounds/spa_tomate.mp3,2020-06-11_10h31.05.948,TranslationElicitation_eng-prolific,3.2.4,Win32,60,5e3878bdb7fe58049b837ea9,,1,0,98,93,1,97
,,,,,,,,,,,,,,,,,,,,,,,,,,,,,,,,,,,,,,,,,o,3.430999994,TOMATO,TRUE,,,,,,,99,tomate,Spanish,Sounds/spa_tomate.mp3,2020-06-11_10h31.05.948,TranslationElicitation_eng-prolific,3.2.4,Win32,60,5e3878bdb7fe58049b837ea9,,1,0,98,93,1,97
,,,,,,,,,,,,,,,,,,,,,,,,,,,,,,,,,,,,,,,,,return,3.769000053,TOMATO,TRUE,,,,,,,99,tomate,Spanish,Sounds/spa_tomate.mp3,2020-06-11_10h31.05.948,TranslationElicitation_eng-prolific,3.2.4,Win32,60,5e3878bdb7fe58049b837ea9,3.769000053,1,0,98,93,1,97
,,,,,,,,,,,,,,,,,,,,,,,,,,,,,,,,,,,,,,,,,,,,,,,,,,,99,tomate,Spanish,Sounds/spa_tomate.mp3,2020-06-11_10h31.05.948,TranslationElicitation_eng-prolific,3.2.4,Win32,60,5e3878bdb7fe58049b837ea9,,1,0,98,93,1,97
,,,,,,,,,,,,,,,,,,,,,,,,,,,,,,,,,,,,,,,,,l,2.526000023,L,FALSE,,,,,,,57,loro,Spanish,Sounds/spa_loro.mp3,2020-06-11_10h31.05.948,TranslationElicitation_eng-prolific,3.2.4,Win32,60,5e3878bdb7fe58049b837ea9,,1,0,98,53,1,97
,,,,,,,,,,,,,,,,,,,,,,,,,,,,,,,,,,,,,,,,,o,2.750999928,LO,FALSE,,,,,,,57,loro,Spanish,Sounds/spa_loro.mp3,2020-06-11_10h31.05.948,TranslationElicitation_eng-prolific,3.2.4,Win32,60,5e3878bdb7fe58049b837ea9,,1,0,98,53,1,97
,,,,,,,,,,,,,,,,,,,,,,,,,,,,,,,,,,,,,,,,,u,2.947999954,LOU,FALSE,,,,,,,57,loro,Spanish,Sounds/spa_loro.mp3,2020-06-11_10h31.05.948,TranslationElicitation_eng-prolific,3.2.4,Win32,60,5e3878bdb7fe58049b837ea9,,1,0,98,53,1,97
,,,,,,,,,,,,,,,,,,,,,,,,,,,,,,,,,,,,,,,,,d,3.029999971,LOUD,FALSE,,,,,,,57,loro,Spanish,Sounds/spa_loro.mp3,2020-06-11_10h31.05.948,TranslationElicitation_eng-prolific,3.2.4,Win32,60,5e3878bdb7fe58049b837ea9,,1,0,98,53,1,97
,,,,,,,,,,,,,,,,,,,,,,,,,,,,,,,,,,,,,,,,,return,3.302000046,LOUD,FALSE,,,,,,,57,loro,Spanish,Sounds/spa_loro.mp3,2020-06-11_10h31.05.948,TranslationElicitation_eng-prolific,3.2.4,Win32,60,5e3878bdb7fe58049b837ea9,3.302000046,1,0,98,53,1,97
,,,,,,,,,,,,,,,,,,,,,,,,,,,,,,,,,,,,,,,,,,,,,,,,,,,57,loro,Spanish,Sounds/spa_loro.mp3,2020-06-11_10h31.05.948,TranslationElicitation_eng-prolific,3.2.4,Win32,60,5e3878bdb7fe58049b837ea9,,1,0,98,53,1,97
,,,,,,,,,,,,,,,,,,,,,,,,,,,,,,,,,,,,,,,,,s,2.036999941,S,FALSE,,,,,,,93,sol,Spanish,Sounds/spa_sol.mp3,2020-06-11_10h31.05.948,TranslationElicitation_eng-prolific,3.2.4,Win32,60,5e3878bdb7fe58049b837ea9,,1,0,98,88,1,97
,,,,,,,,,,,,,,,,,,,,,,,,,,,,,,,,,,,,,,,,,u,2.171999931,SU,FALSE,,,,,,,93,sol,Spanish,Sounds/spa_sol.mp3,2020-06-11_10h31.05.948,TranslationElicitation_eng-prolific,3.2.4,Win32,60,5e3878bdb7fe58049b837ea9,,1,0,98,88,1,97
,,,,,,,,,,,,,,,,,,,,,,,,,,,,,,,,,,,,,,,,,n,2.383999825,SUN,FALSE,,,,,,,93,sol,Spanish,Sounds/spa_sol.mp3,2020-06-11_10h31.05.948,TranslationElicitation_eng-prolific,3.2.4,Win32,60,5e3878bdb7fe58049b837ea9,,1,0,98,88,1,97
,,,,,,,,,,,,,,,,,,,,,,,,,,,,,,,,,,,,,,,,,return,2.681999922,SUN,FALSE,,,,,,,93,sol,Spanish,Sounds/spa_sol.mp3,2020-06-11_10h31.05.948,TranslationElicitation_eng-prolific,3.2.4,Win32,60,5e3878bdb7fe58049b837ea9,2.681999922,1,0,98,88,1,97
,,,,,,,,,,,,,,,,,,,,,,,,,,,,,,,,,,,,,,,,,,,,,,,,,,,93,sol,Spanish,Sounds/spa_sol.mp3,2020-06-11_10h31.05.948,TranslationElicitation_eng-prolific,3.2.4,Win32,60,5e3878bdb7fe58049b837ea9,,1,0,98,88,1,97
,,,,,,,,,,,,,,,,,,,,,,,,,,,,,,,,,,,,,,,,,p,3.237999916,P,FALSE,,,,,,,72,osito,Spanish,Sounds/spa_osito.mp3,2020-06-11_10h31.05.948,TranslationElicitation_eng-prolific,3.2.4,Win32,60,5e3878bdb7fe58049b837ea9,,1,0,98,67,1,97
,,,,,,,,,,,,,,,,,,,,,,,,,,,,,,,,,,,,,,,,,l,3.35800004,PL,FALSE,,,,,,,72,osito,Spanish,Sounds/spa_osito.mp3,2020-06-11_10h31.05.948,TranslationElicitation_eng-prolific,3.2.4,Win32,60,5e3878bdb7fe58049b837ea9,,1,0,98,67,1,97
,,,,,,,,,,,,,,,,,,,,,,,,,,,,,,,,,,,,,,,,,a,3.411000013,PLA,FALSE,,,,,,,72,osito,Spanish,Sounds/spa_osito.mp3,2020-06-11_10h31.05.948,TranslationElicitation_eng-prolific,3.2.4,Win32,60,5e3878bdb7fe58049b837ea9,,1,0,98,67,1,97
,,,,,,,,,,,,,,,,,,,,,,,,,,,,,,,,,,,,,,,,,c,3.555999994,PLAC,FALSE,,,,,,,72,osito,Spanish,Sounds/spa_osito.mp3,2020-06-11_10h31.05.948,TranslationElicitation_eng-prolific,3.2.4,Win32,60,5e3878bdb7fe58049b837ea9,,1,0,98,67,1,97
,,,,,,,,,,,,,,,,,,,,,,,,,,,,,,,,,,,,,,,,,e,3.680999994,PLACE,FALSE,,,,,,,72,osito,Spanish,Sounds/spa_osito.mp3,2020-06-11_10h31.05.948,TranslationElicitation_eng-prolific,3.2.4,Win32,60,5e3878bdb7fe58049b837ea9,,1,0,98,67,1,97
,,,,,,,,,,,,,,,,,,,,,,,,,,,,,,,,,,,,,,,,,return,4.03399992,PLACE,FALSE,,,,,,,72,osito,Spanish,Sounds/spa_osito.mp3,2020-06-11_10h31.05.948,TranslationElicitation_eng-prolific,3.2.4,Win32,60,5e3878bdb7fe58049b837ea9,4.03399992,1,0,98,67,1,97
,,,,,,,,,,,,,,,,,,,,,,,,,,,,,,,,,,,,,,,,,,,,,,,,,,,72,osito,Spanish,Sounds/spa_osito.mp3,2020-06-11_10h31.05.948,TranslationElicitation_eng-prolific,3.2.4,Win32,60,5e3878bdb7fe58049b837ea9,,1,0,98,67,1,97
,,,,,,,,,,,,,,,,,,,,,,,,,,,,,,,,,,,,,,,,,a,5.514999866,A,FALSE,,,,,,,44,gorrion,Spanish,Sounds/spa_gorrion.mp3,2020-06-11_10h31.05.948,TranslationElicitation_eng-prolific,3.2.4,Win32,60,5e3878bdb7fe58049b837ea9,,1,0,98,40,1,97
,,,,,,,,,,,,,,,,,,,,,,,,,,,,,,,,,,,,,,,,,d,5.569000006,AD,FALSE,,,,,,,44,gorrion,Spanish,Sounds/spa_gorrion.mp3,2020-06-11_10h31.05.948,TranslationElicitation_eng-prolific,3.2.4,Win32,60,5e3878bdb7fe58049b837ea9,,1,0,98,40,1,97
,,,,,,,,,,,,,,,,,,,,,,,,,,,,,,,,,,,,,,,,,backspace,5.922999859,A,TRUE,,,,,,,44,gorrion,Spanish,Sounds/spa_gorrion.mp3,2020-06-11_10h31.05.948,TranslationElicitation_eng-prolific,3.2.4,Win32,60,5e3878bdb7fe58049b837ea9,,1,0,98,40,1,97
,,,,,,,,,,,,,,,,,,,,,,,,,,,,,,,,,,,,,,,,,backspace,6.085999966,,TRUE,,,,,,,44,gorrion,Spanish,Sounds/spa_gorrion.mp3,2020-06-11_10h31.05.948,TranslationElicitation_eng-prolific,3.2.4,Win32,60,5e3878bdb7fe58049b837ea9,,1,0,98,40,1,97
,,,,,,,,,,,,,,,,,,,,,,,,,,,,,,,,,,,,,,,,,backspace,6.278999805,,TRUE,,,,,,,44,gorrion,Spanish,Sounds/spa_gorrion.mp3,2020-06-11_10h31.05.948,TranslationElicitation_eng-prolific,3.2.4,Win32,60,5e3878bdb7fe58049b837ea9,,1,0,98,40,1,97
,,,,,,,,,,,,,,,,,,,,,,,,,,,,,,,,,,,,,,,,,backspace,7.201999903,,TRUE,,,,,,,44,gorrion,Spanish,Sounds/spa_gorrion.mp3,2020-06-11_10h31.05.948,TranslationElicitation_eng-prolific,3.2.4,Win32,60,5e3878bdb7fe58049b837ea9,,1,0,98,40,1,97
,,,,,,,,,,,,,,,,,,,,,,,,,,,,,,,,,,,,,,,,,backspace,7.348999977,,TRUE,,,,,,,44,gorrion,Spanish,Sounds/spa_gorrion.mp3,2020-06-11_10h31.05.948,TranslationElicitation_eng-prolific,3.2.4,Win32,60,5e3878bdb7fe58049b837ea9,,1,0,98,40,1,97
,,,,,,,,,,,,,,,,,,,,,,,,,,,,,,,,,,,,,,,,,p,7.751999855,P,TRUE,,,,,,,44,gorrion,Spanish,Sounds/spa_gorrion.mp3,2020-06-11_10h31.05.948,TranslationElicitation_eng-prolific,3.2.4,Win32,60,5e3878bdb7fe58049b837ea9,,1,0,98,40,1,97
,,,,,,,,,,,,,,,,,,,,,,,,,,,,,,,,,,,,,,,,,l,7.842000008,PL,TRUE,,,,,,,44,gorrion,Spanish,Sounds/spa_gorrion.mp3,2020-06-11_10h31.05.948,TranslationElicitation_eng-prolific,3.2.4,Win32,60,5e3878bdb7fe58049b837ea9,,1,0,98,40,1,97
,,,,,,,,,,,,,,,,,,,,,,,,,,,,,,,,,,,,,,,,,a,7.878999949,PLA,TRUE,,,,,,,44,gorrion,Spanish,Sounds/spa_gorrion.mp3,2020-06-11_10h31.05.948,TranslationElicitation_eng-prolific,3.2.4,Win32,60,5e3878bdb7fe58049b837ea9,,1,0,98,40,1,97
,,,,,,,,,,,,,,,,,,,,,,,,,,,,,,,,,,,,,,,,,c,8.012999773,PLAC,TRUE,,,,,,,44,gorrion,Spanish,Sounds/spa_gorrion.mp3,2020-06-11_10h31.05.948,TranslationElicitation_eng-prolific,3.2.4,Win32,60,5e3878bdb7fe58049b837ea9,,1,0,98,40,1,97
,,,,,,,,,,,,,,,,,,,,,,,,,,,,,,,,,,,,,,,,,e,8.15199995,PLACE,TRUE,,,,,,,44,gorrion,Spanish,Sounds/spa_gorrion.mp3,2020-06-11_10h31.05.948,TranslationElicitation_eng-prolific,3.2.4,Win32,60,5e3878bdb7fe58049b837ea9,,1,0,98,40,1,97
,,,,,,,,,,,,,,,,,,,,,,,,,,,,,,,,,,,,,,,,,return,8.742999792,PLACE,TRUE,,,,,,,44,gorrion,Spanish,Sounds/spa_gorrion.mp3,2020-06-11_10h31.05.948,TranslationElicitation_eng-prolific,3.2.4,Win32,60,5e3878bdb7fe58049b837ea9,8.742999792,1,0,98,40,1,97
,,,,,,,,,,,,,,,,,,,,,,,,,,,,,,,,,,,,,,,,,,,,,,,,,,,44,gorrion,Spanish,Sounds/spa_gorrion.mp3,2020-06-11_10h31.05.948,TranslationElicitation_eng-prolific,3.2.4,Win32,60,5e3878bdb7fe58049b837ea9,,1,0,98,40,1,97
,,,,,,,,,,,,,,,,,,,,,,,,,,,,,,,,,,,,,,,,,c,6.980999947,C,FALSE,,,,,,,61,mariposa,Spanish,Sounds/spa_mariposa.mp3,2020-06-11_10h31.05.948,TranslationElicitation_eng-prolific,3.2.4,Win32,60,5e3878bdb7fe58049b837ea9,,1,0,98,57,1,97
,,,,,,,,,,,,,,,,,,,,,,,,,,,,,,,,,,,,,,,,,h,7.049999952,CH,FALSE,,,,,,,61,mariposa,Spanish,Sounds/spa_mariposa.mp3,2020-06-11_10h31.05.948,TranslationElicitation_eng-prolific,3.2.4,Win32,60,5e3878bdb7fe58049b837ea9,,1,0,98,57,1,97
,,,,,,,,,,,,,,,,,,,,,,,,,,,,,,,,,,,,,,,,,a,7.161000013,CHA,FALSE,,,,,,,61,mariposa,Spanish,Sounds/spa_mariposa.mp3,2020-06-11_10h31.05.948,TranslationElicitation_eng-prolific,3.2.4,Win32,60,5e3878bdb7fe58049b837ea9,,1,0,98,57,1,97
,,,,,,,,,,,,,,,,,,,,,,,,,,,,,,,,,,,,,,,,,i,7.244999886,CHAI,FALSE,,,,,,,61,mariposa,Spanish,Sounds/spa_mariposa.mp3,2020-06-11_10h31.05.948,TranslationElicitation_eng-prolific,3.2.4,Win32,60,5e3878bdb7fe58049b837ea9,,1,0,98,57,1,97
,,,,,,,,,,,,,,,,,,,,,,,,,,,,,,,,,,,,,,,,,r,7.388000011,CHAIR,FALSE,,,,,,,61,mariposa,Spanish,Sounds/spa_mariposa.mp3,2020-06-11_10h31.05.948,TranslationElicitation_eng-prolific,3.2.4,Win32,60,5e3878bdb7fe58049b837ea9,,1,0,98,57,1,97
,,,,,,,,,,,,,,,,,,,,,,,,,,,,,,,,,,,,,,,,,return,8.195999861,CHAIR,FALSE,,,,,,,61,mariposa,Spanish,Sounds/spa_mariposa.mp3,2020-06-11_10h31.05.948,TranslationElicitation_eng-prolific,3.2.4,Win32,60,5e3878bdb7fe58049b837ea9,8.195999861,1,0,98,57,1,97
,,,,,,,,,,,,,,,,,,,,,,,,,,,,,,,,,,,,,,,,,,,,,,,,,,,61,mariposa,Spanish,Sounds/spa_mariposa.mp3,2020-06-11_10h31.05.948,TranslationElicitation_eng-prolific,3.2.4,Win32,60,5e3878bdb7fe58049b837ea9,,1,0,98,57,1,97
,,,,,,,,,,,,,,,,,,,,,,,,,,,,,,,,,,,,,,,,,b,3.95600009,B,FALSE,,,,,,,7,bocadillo,Spanish,Sounds/spa_bocadillo.mp3,2020-06-11_10h31.05.948,TranslationElicitation_eng-prolific,3.2.4,Win32,60,5e3878bdb7fe58049b837ea9,,1,0,98,5,1,97
,,,,,,,,,,,,,,,,,,,,,,,,,,,,,,,,,,,,,,,,,o,4.215000153,BO,FALSE,,,,,,,7,bocadillo,Spanish,Sounds/spa_bocadillo.mp3,2020-06-11_10h31.05.948,TranslationElicitation_eng-prolific,3.2.4,Win32,60,5e3878bdb7fe58049b837ea9,,1,0,98,5,1,97
,,,,,,,,,,,,,,,,,,,,,,,,,,,,,,,,,,,,,,,,,o,4.332000017,BOO,FALSE,,,,,,,7,bocadillo,Spanish,Sounds/spa_bocadillo.mp3,2020-06-11_10h31.05.948,TranslationElicitation_eng-prolific,3.2.4,Win32,60,5e3878bdb7fe58049b837ea9,,1,0,98,5,1,97
,,,,,,,,,,,,,,,,,,,,,,,,,,,,,,,,,,,,,,,,,k,4.454999924,BOOK,FALSE,,,,,,,7,bocadillo,Spanish,Sounds/spa_bocadillo.mp3,2020-06-11_10h31.05.948,TranslationElicitation_eng-prolific,3.2.4,Win32,60,5e3878bdb7fe58049b837ea9,,1,0,98,5,1,97
,,,,,,,,,,,,,,,,,,,,,,,,,,,,,,,,,,,,,,,,,s,4.633000135,BOOKS,FALSE,,,,,,,7,bocadillo,Spanish,Sounds/spa_bocadillo.mp3,2020-06-11_10h31.05.948,TranslationElicitation_eng-prolific,3.2.4,Win32,60,5e3878bdb7fe58049b837ea9,,1,0,98,5,1,97
,,,,,,,,,,,,,,,,,,,,,,,,,,,,,,,,,,,,,,,,,t,4.832999945,BOOKST,FALSE,,,,,,,7,bocadillo,Spanish,Sounds/spa_bocadillo.mp3,2020-06-11_10h31.05.948,TranslationElicitation_eng-prolific,3.2.4,Win32,60,5e3878bdb7fe58049b837ea9,,1,0,98,5,1,97
,,,,,,,,,,,,,,,,,,,,,,,,,,,,,,,,,,,,,,,,,o,4.940000057,BOOKSTO,FALSE,,,,,,,7,bocadillo,Spanish,Sounds/spa_bocadillo.mp3,2020-06-11_10h31.05.948,TranslationElicitation_eng-prolific,3.2.4,Win32,60,5e3878bdb7fe58049b837ea9,,1,0,98,5,1,97
,,,,,,,,,,,,,,,,,,,,,,,,,,,,,,,,,,,,,,,,,r,5.067000151,BOOKSTOR,FALSE,,,,,,,7,bocadillo,Spanish,Sounds/spa_bocadillo.mp3,2020-06-11_10h31.05.948,TranslationElicitation_eng-prolific,3.2.4,Win32,60,5e3878bdb7fe58049b837ea9,,1,0,98,5,1,97
,,,,,,,,,,,,,,,,,,,,,,,,,,,,,,,,,,,,,,,,,e,5.187999964,BOOKSTORE,FALSE,,,,,,,7,bocadillo,Spanish,Sounds/spa_bocadillo.mp3,2020-06-11_10h31.05.948,TranslationElicitation_eng-prolific,3.2.4,Win32,60,5e3878bdb7fe58049b837ea9,,1,0,98,5,1,97
,,,,,,,,,,,,,,,,,,,,,,,,,,,,,,,,,,,,,,,,,return,5.371000051,BOOKSTORE,FALSE,,,,,,,7,bocadillo,Spanish,Sounds/spa_bocadillo.mp3,2020-06-11_10h31.05.948,TranslationElicitation_eng-prolific,3.2.4,Win32,60,5e3878bdb7fe58049b837ea9,5.371000051,1,0,98,5,1,97
,,,,,,,,,,,,,,,,,,,,,,,,,,,,,,,,,,,,,,,,,,,,,,,,,,,7,bocadillo,Spanish,Sounds/spa_bocadillo.mp3,2020-06-11_10h31.05.948,TranslationElicitation_eng-prolific,3.2.4,Win32,60,5e3878bdb7fe58049b837ea9,,1,0,98,5,1,97
,,,,,,,,,,,,,,,,,,,,,,,,,,,,,,,,,,,,,,,,,b,1.467999935,B,FALSE,,,,,,,10,botella,Spanish,Sounds/spa_botella.mp3,2020-06-11_10h31.05.948,TranslationElicitation_eng-prolific,3.2.4,Win32,60,5e3878bdb7fe58049b837ea9,,1,0,98,8,1,97
,,,,,,,,,,,,,,,,,,,,,,,,,,,,,,,,,,,,,,,,,o,1.577000141,BO,FALSE,,,,,,,10,botella,Spanish,Sounds/spa_botella.mp3,2020-06-11_10h31.05.948,TranslationElicitation_eng-prolific,3.2.4,Win32,60,5e3878bdb7fe58049b837ea9,,1,0,98,8,1,97
,,,,,,,,,,,,,,,,,,,,,,,,,,,,,,,,,,,,,,,,,t,1.726000071,BOT,FALSE,,,,,,,10,botella,Spanish,Sounds/spa_botella.mp3,2020-06-11_10h31.05.948,TranslationElicitation_eng-prolific,3.2.4,Win32,60,5e3878bdb7fe58049b837ea9,,1,0,98,8,1,97
,,,,,,,,,,,,,,,,,,,,,,,,,,,,,,,,,,,,,,,,,t,1.857000113,BOTT,FALSE,,,,,,,10,botella,Spanish,Sounds/spa_botella.mp3,2020-06-11_10h31.05.948,TranslationElicitation_eng-prolific,3.2.4,Win32,60,5e3878bdb7fe58049b837ea9,,1,0,98,8,1,97
,,,,,,,,,,,,,,,,,,,,,,,,,,,,,,,,,,,,,,,,,l,1.934999943,BOTTL,FALSE,,,,,,,10,botella,Spanish,Sounds/spa_botella.mp3,2020-06-11_10h31.05.948,TranslationElicitation_eng-prolific,3.2.4,Win32,60,5e3878bdb7fe58049b837ea9,,1,0,98,8,1,97
,,,,,,,,,,,,,,,,,,,,,,,,,,,,,,,,,,,,,,,,,e,2.010999918,BOTTLE,FALSE,,,,,,,10,botella,Spanish,Sounds/spa_botella.mp3,2020-06-11_10h31.05.948,TranslationElicitation_eng-prolific,3.2.4,Win32,60,5e3878bdb7fe58049b837ea9,,1,0,98,8,1,97
,,,,,,,,,,,,,,,,,,,,,,,,,,,,,,,,,,,,,,,,,return,2.147000074,BOTTLE,FALSE,,,,,,,10,botella,Spanish,Sounds/spa_botella.mp3,2020-06-11_10h31.05.948,TranslationElicitation_eng-prolific,3.2.4,Win32,60,5e3878bdb7fe58049b837ea9,2.147000074,1,0,98,8,1,97
,,,,,,,,,,,,,,,,,,,,,,,,,,,,,,,,,,,,,,,,,,,,,,,,,,,10,botella,Spanish,Sounds/spa_botella.mp3,2020-06-11_10h31.05.948,TranslationElicitation_eng-prolific,3.2.4,Win32,60,5e3878bdb7fe58049b837ea9,,1,0,98,8,1,97
,,,,,,,,,,,,,,,,,,,,,,,,,,,,,,,,,,,,,,,,,l,1.569000006,L,FALSE,,,,,,,52,lapiz,Spanish,Sounds/spa_lapiz.mp3,2020-06-11_10h31.05.948,TranslationElicitation_eng-prolific,3.2.4,Win32,60,5e3878bdb7fe58049b837ea9,,1,0,98,48,1,97
,,,,,,,,,,,,,,,,,,,,,,,,,,,,,,,,,,,,,,,,,a,1.662999868,LA,FALSE,,,,,,,52,lapiz,Spanish,Sounds/spa_lapiz.mp3,2020-06-11_10h31.05.948,TranslationElicitation_eng-prolific,3.2.4,Win32,60,5e3878bdb7fe58049b837ea9,,1,0,98,48,1,97
,,,,,,,,,,,,,,,,,,,,,,,,,,,,,,,,,,,,,,,,,p,1.745999813,LAP,FALSE,,,,,,,52,lapiz,Spanish,Sounds/spa_lapiz.mp3,2020-06-11_10h31.05.948,TranslationElicitation_eng-prolific,3.2.4,Win32,60,5e3878bdb7fe58049b837ea9,,1,0,98,48,1,97
,,,,,,,,,,,,,,,,,,,,,,,,,,,,,,,,,,,,,,,,,t,2.901000023,LAPT,FALSE,,,,,,,52,lapiz,Spanish,Sounds/spa_lapiz.mp3,2020-06-11_10h31.05.948,TranslationElicitation_eng-prolific,3.2.4,Win32,60,5e3878bdb7fe58049b837ea9,,1,0,98,48,1,97
,,,,,,,,,,,,,,,,,,,,,,,,,,,,,,,,,,,,,,,,,o,2.95299983,LAPTO,FALSE,,,,,,,52,lapiz,Spanish,Sounds/spa_lapiz.mp3,2020-06-11_10h31.05.948,TranslationElicitation_eng-prolific,3.2.4,Win32,60,5e3878bdb7fe58049b837ea9,,1,0,98,48,1,97
,,,,,,,,,,,,,,,,,,,,,,,,,,,,,,,,,,,,,,,,,p,3.039000034,LAPTOP,FALSE,,,,,,,52,lapiz,Spanish,Sounds/spa_lapiz.mp3,2020-06-11_10h31.05.948,TranslationElicitation_eng-prolific,3.2.4,Win32,60,5e3878bdb7fe58049b837ea9,,1,0,98,48,1,97
,,,,,,,,,,,,,,,,,,,,,,,,,,,,,,,,,,,,,,,,,return,3.339999914,LAPTOP,FALSE,,,,,,,52,lapiz,Spanish,Sounds/spa_lapiz.mp3,2020-06-11_10h31.05.948,TranslationElicitation_eng-prolific,3.2.4,Win32,60,5e3878bdb7fe58049b837ea9,3.339999914,1,0,98,48,1,97
,,,,,,,,,,,,,,,,,,,,,,,,,,,,,,,,,,,,,,,,,,,,,,,,,,,52,lapiz,Spanish,Sounds/spa_lapiz.mp3,2020-06-11_10h31.05.948,TranslationElicitation_eng-prolific,3.2.4,Win32,60,5e3878bdb7fe58049b837ea9,,1,0,98,48,1,97
,,,,,,,,,,,,,,,,,,,,,,,,,,,,,,,,,,,,,,,,,c,1.88499999,C,FALSE,,,,,,,42,gato,Spanish,Sounds/spa_gato.mp3,2020-06-11_10h31.05.948,TranslationElicitation_eng-prolific,3.2.4,Win32,60,5e3878bdb7fe58049b837ea9,,1,0,98,38,1,97
,,,,,,,,,,,,,,,,,,,,,,,,,,,,,,,,,,,,,,,,,a,1.962999821,CA,FALSE,,,,,,,42,gato,Spanish,Sounds/spa_gato.mp3,2020-06-11_10h31.05.948,TranslationElicitation_eng-prolific,3.2.4,Win32,60,5e3878bdb7fe58049b837ea9,,1,0,98,38,1,97
,,,,,,,,,,,,,,,,,,,,,,,,,,,,,,,,,,,,,,,,,k,2.087999821,CAK,FALSE,,,,,,,42,gato,Spanish,Sounds/spa_gato.mp3,2020-06-11_10h31.05.948,TranslationElicitation_eng-prolific,3.2.4,Win32,60,5e3878bdb7fe58049b837ea9,,1,0,98,38,1,97
,,,,,,,,,,,,,,,,,,,,,,,,,,,,,,,,,,,,,,,,,e,2.197999954,CAKE,FALSE,,,,,,,42,gato,Spanish,Sounds/spa_gato.mp3,2020-06-11_10h31.05.948,TranslationElicitation_eng-prolific,3.2.4,Win32,60,5e3878bdb7fe58049b837ea9,,1,0,98,38,1,97
,,,,,,,,,,,,,,,,,,,,,,,,,,,,,,,,,,,,,,,,,return,2.362999916,CAKE,FALSE,,,,,,,42,gato,Spanish,Sounds/spa_gato.mp3,2020-06-11_10h31.05.948,TranslationElicitation_eng-prolific,3.2.4,Win32,60,5e3878bdb7fe58049b837ea9,2.362999916,1,0,98,38,1,97
,,,,,,,,,,,,,,,,,,,,,,,,,,,,,,,,,,,,,,,,,,,,,,,,,,,42,gato,Spanish,Sounds/spa_gato.mp3,2020-06-11_10h31.05.948,TranslationElicitation_eng-prolific,3.2.4,Win32,60,5e3878bdb7fe58049b837ea9,,1,0,98,38,1,97
,,,,,,,,,,,,,,,,,,,,,,,,,,,,,,,,,,,,,,,,,p,2.133000135,P,FALSE,,,,,,,102,ventana,Spanish,Sounds/spa_ventana.mp3,2020-06-11_10h31.05.948,TranslationElicitation_eng-prolific,3.2.4,Win32,60,5e3878bdb7fe58049b837ea9,,1,0,98,96,1,97
,,,,,,,,,,,,,,,,,,,,,,,,,,,,,,,,,,,,,,,,,i,2.328000069,PI,FALSE,,,,,,,102,ventana,Spanish,Sounds/spa_ventana.mp3,2020-06-11_10h31.05.948,TranslationElicitation_eng-prolific,3.2.4,Win32,60,5e3878bdb7fe58049b837ea9,,1,0,98,96,1,97
,,,,,,,,,,,,,,,,,,,,,,,,,,,,,,,,,,,,,,,,,n,2.523000002,PIN,FALSE,,,,,,,102,ventana,Spanish,Sounds/spa_ventana.mp3,2020-06-11_10h31.05.948,TranslationElicitation_eng-prolific,3.2.4,Win32,60,5e3878bdb7fe58049b837ea9,,1,0,98,96,1,97
,,,,,,,,,,,,,,,,,,,,,,,,,,,,,,,,,,,,,,,,,a,2.686000109,PINA,FALSE,,,,,,,102,ventana,Spanish,Sounds/spa_ventana.mp3,2020-06-11_10h31.05.948,TranslationElicitation_eng-prolific,3.2.4,Win32,60,5e3878bdb7fe58049b837ea9,,1,0,98,96,1,97
,,,,,,,,,,,,,,,,,,,,,,,,,,,,,,,,,,,,,,,,,t,2.752000093,PINAT,FALSE,,,,,,,102,ventana,Spanish,Sounds/spa_ventana.mp3,2020-06-11_10h31.05.948,TranslationElicitation_eng-prolific,3.2.4,Win32,60,5e3878bdb7fe58049b837ea9,,1,0,98,96,1,97
,,,,,,,,,,,,,,,,,,,,,,,,,,,,,,,,,,,,,,,,,a,2.82400012,PINATA,FALSE,,,,,,,102,ventana,Spanish,Sounds/spa_ventana.mp3,2020-06-11_10h31.05.948,TranslationElicitation_eng-prolific,3.2.4,Win32,60,5e3878bdb7fe58049b837ea9,,1,0,98,96,1,97
,,,,,,,,,,,,,,,,,,,,,,,,,,,,,,,,,,,,,,,,,return,3.076000214,PINATA,FALSE,,,,,,,102,ventana,Spanish,Sounds/spa_ventana.mp3,2020-06-11_10h31.05.948,TranslationElicitation_eng-prolific,3.2.4,Win32,60,5e3878bdb7fe58049b837ea9,3.076000214,1,0,98,96,1,97
,,,,,,,,,,,,,,,,,,,,,,,,,,,,,,,,,,,,,,,,,,,,,,,,,,,102,ventana,Spanish,Sounds/spa_ventana.mp3,2020-06-11_10h31.05.948,TranslationElicitation_eng-prolific,3.2.4,Win32,60,5e3878bdb7fe58049b837ea9,,1,0,98,96,1,97
,,,,,,,,,,,,,,,,,,,,,,,,,,,,,,,,,,,,,,,,,p,1.342000008,P,FALSE,,,,,,,79,patata,Spanish,Sounds/spa_patata.mp3,2020-06-11_10h31.05.948,TranslationElicitation_eng-prolific,3.2.4,Win32,60,5e3878bdb7fe58049b837ea9,,1,0,98,74,1,97
,,,,,,,,,,,,,,,,,,,,,,,,,,,,,,,,,,,,,,,,,o,1.432999849,PO,FALSE,,,,,,,79,patata,Spanish,Sounds/spa_patata.mp3,2020-06-11_10h31.05.948,TranslationElicitation_eng-prolific,3.2.4,Win32,60,5e3878bdb7fe58049b837ea9,,1,0,98,74,1,97
,,,,,,,,,,,,,,,,,,,,,,,,,,,,,,,,,,,,,,,,,t,1.618999958,POT,FALSE,,,,,,,79,patata,Spanish,Sounds/spa_patata.mp3,2020-06-11_10h31.05.948,TranslationElicitation_eng-prolific,3.2.4,Win32,60,5e3878bdb7fe58049b837ea9,,1,0,98,74,1,97
,,,,,,,,,,,,,,,,,,,,,,,,,,,,,,,,,,,,,,,,,a,1.767999887,POTA,FALSE,,,,,,,79,patata,Spanish,Sounds/spa_patata.mp3,2020-06-11_10h31.05.948,TranslationElicitation_eng-prolific,3.2.4,Win32,60,5e3878bdb7fe58049b837ea9,,1,0,98,74,1,97
,,,,,,,,,,,,,,,,,,,,,,,,,,,,,,,,,,,,,,,,,t,1.845999956,POTAT,FALSE,,,,,,,79,patata,Spanish,Sounds/spa_patata.mp3,2020-06-11_10h31.05.948,TranslationElicitation_eng-prolific,3.2.4,Win32,60,5e3878bdb7fe58049b837ea9,,1,0,98,74,1,97
,,,,,,,,,,,,,,,,,,,,,,,,,,,,,,,,,,,,,,,,,o,1.898999929,POTATO,FALSE,,,,,,,79,patata,Spanish,Sounds/spa_patata.mp3,2020-06-11_10h31.05.948,TranslationElicitation_eng-prolific,3.2.4,Win32,60,5e3878bdb7fe58049b837ea9,,1,0,98,74,1,97
,,,,,,,,,,,,,,,,,,,,,,,,,,,,,,,,,,,,,,,,,return,2.200000048,POTATO,FALSE,,,,,,,79,patata,Spanish,Sounds/spa_patata.mp3,2020-06-11_10h31.05.948,TranslationElicitation_eng-prolific,3.2.4,Win32,60,5e3878bdb7fe58049b837ea9,2.200000048,1,0,98,74,1,97
,,,,,,,,,,,,,,,,,,,,,,,,,,,,,,,,,,,,,,,,,,,,,,,,,,,79,patata,Spanish,Sounds/spa_patata.mp3,2020-06-11_10h31.05.948,TranslationElicitation_eng-prolific,3.2.4,Win32,60,5e3878bdb7fe58049b837ea9,,1,0,98,74,1,97
,,,,,,,,,,,,,,,,,,,,,,,,,,,,,,,,,,,,,,,,,s,2.141000032,S,FALSE,,,,,,,38,frambuesa,Spanish,Sounds/spa_frambuesa.mp3,2020-06-11_10h31.05.948,TranslationElicitation_eng-prolific,3.2.4,Win32,60,5e3878bdb7fe58049b837ea9,,1,0,98,34,1,97
,,,,,,,,,,,,,,,,,,,,,,,,,,,,,,,,,,,,,,,,,t,2.210999966,ST,FALSE,,,,,,,38,frambuesa,Spanish,Sounds/spa_frambuesa.mp3,2020-06-11_10h31.05.948,TranslationElicitation_eng-prolific,3.2.4,Win32,60,5e3878bdb7fe58049b837ea9,,1,0,98,34,1,97
,,,,,,,,,,,,,,,,,,,,,,,,,,,,,,,,,,,,,,,,,a,2.320999861,STA,FALSE,,,,,,,38,frambuesa,Spanish,Sounds/spa_frambuesa.mp3,2020-06-11_10h31.05.948,TranslationElicitation_eng-prolific,3.2.4,Win32,60,5e3878bdb7fe58049b837ea9,,1,0,98,34,1,97
,,,,,,,,,,,,,,,,,,,,,,,,,,,,,,,,,,,,,,,,,r,2.374000072,STAR,FALSE,,,,,,,38,frambuesa,Spanish,Sounds/spa_frambuesa.mp3,2020-06-11_10h31.05.948,TranslationElicitation_eng-prolific,3.2.4,Win32,60,5e3878bdb7fe58049b837ea9,,1,0,98,34,1,97
,,,,,,,,,,,,,,,,,,,,,,,,,,,,,,,,,,,,,,,,,w,2.54399991,STARW,FALSE,,,,,,,38,frambuesa,Spanish,Sounds/spa_frambuesa.mp3,2020-06-11_10h31.05.948,TranslationElicitation_eng-prolific,3.2.4,Win32,60,5e3878bdb7fe58049b837ea9,,1,0,98,34,1,97
,,,,,,,,,,,,,,,,,,,,,,,,,,,,,,,,,,,,,,,,,backspace,3.229000092,STAR,TRUE,,,,,,,38,frambuesa,Spanish,Sounds/spa_frambuesa.mp3,2020-06-11_10h31.05.948,TranslationElicitation_eng-prolific,3.2.4,Win32,60,5e3878bdb7fe58049b837ea9,,1,0,98,34,1,97
,,,,,,,,,,,,,,,,,,,,,,,,,,,,,,,,,,,,,,,,,backspace,3.371999979,STA,TRUE,,,,,,,38,frambuesa,Spanish,Sounds/spa_frambuesa.mp3,2020-06-11_10h31.05.948,TranslationElicitation_eng-prolific,3.2.4,Win32,60,5e3878bdb7fe58049b837ea9,,1,0,98,34,1,97
,,,,,,,,,,,,,,,,,,,,,,,,,,,,,,,,,,,,,,,,,backspace,3.526000023,ST,TRUE,,,,,,,38,frambuesa,Spanish,Sounds/spa_frambuesa.mp3,2020-06-11_10h31.05.948,TranslationElicitation_eng-prolific,3.2.4,Win32,60,5e3878bdb7fe58049b837ea9,,1,0,98,34,1,97
,,,,,,,,,,,,,,,,,,,,,,,,,,,,,,,,,,,,,,,,,r,4.43599987,STR,TRUE,,,,,,,38,frambuesa,Spanish,Sounds/spa_frambuesa.mp3,2020-06-11_10h31.05.948,TranslationElicitation_eng-prolific,3.2.4,Win32,60,5e3878bdb7fe58049b837ea9,,1,0,98,34,1,97
,,,,,,,,,,,,,,,,,,,,,,,,,,,,,,,,,,,,,,,,,a,4.52699995,STRA,TRUE,,,,,,,38,frambuesa,Spanish,Sounds/spa_frambuesa.mp3,2020-06-11_10h31.05.948,TranslationElicitation_eng-prolific,3.2.4,Win32,60,5e3878bdb7fe58049b837ea9,,1,0,98,34,1,97
,,,,,,,,,,,,,,,,,,,,,,,,,,,,,,,,,,,,,,,,,w,4.65199995,STRAW,TRUE,,,,,,,38,frambuesa,Spanish,Sounds/spa_frambuesa.mp3,2020-06-11_10h31.05.948,TranslationElicitation_eng-prolific,3.2.4,Win32,60,5e3878bdb7fe58049b837ea9,,1,0,98,34,1,97
,,,,,,,,,,,,,,,,,,,,,,,,,,,,,,,,,,,,,,,,,b,5.013000011,STRAWB,TRUE,,,,,,,38,frambuesa,Spanish,Sounds/spa_frambuesa.mp3,2020-06-11_10h31.05.948,TranslationElicitation_eng-prolific,3.2.4,Win32,60,5e3878bdb7fe58049b837ea9,,1,0,98,34,1,97
,,,,,,,,,,,,,,,,,,,,,,,,,,,,,,,,,,,,,,,,,e,5.088999987,STRAWBE,TRUE,,,,,,,38,frambuesa,Spanish,Sounds/spa_frambuesa.mp3,2020-06-11_10h31.05.948,TranslationElicitation_eng-prolific,3.2.4,Win32,60,5e3878bdb7fe58049b837ea9,,1,0,98,34,1,97
,,,,,,,,,,,,,,,,,,,,,,,,,,,,,,,,,,,,,,,,,r,5.329999924,STRAWBER,TRUE,,,,,,,38,frambuesa,Spanish,Sounds/spa_frambuesa.mp3,2020-06-11_10h31.05.948,TranslationElicitation_eng-prolific,3.2.4,Win32,60,5e3878bdb7fe58049b837ea9,,1,0,98,34,1,97
,,,,,,,,,,,,,,,,,,,,,,,,,,,,,,,,,,,,,,,,,r,5.447999954,STRAWBERR,TRUE,,,,,,,38,frambuesa,Spanish,Sounds/spa_frambuesa.mp3,2020-06-11_10h31.05.948,TranslationElicitation_eng-prolific,3.2.4,Win32,60,5e3878bdb7fe58049b837ea9,,1,0,98,34,1,97
,,,,,,,,,,,,,,,,,,,,,,,,,,,,,,,,,,,,,,,,,y,5.524999857,STRAWBERRY,TRUE,,,,,,,38,frambuesa,Spanish,Sounds/spa_frambuesa.mp3,2020-06-11_10h31.05.948,TranslationElicitation_eng-prolific,3.2.4,Win32,60,5e3878bdb7fe58049b837ea9,,1,0,98,34,1,97
,,,,,,,,,,,,,,,,,,,,,,,,,,,,,,,,,,,,,,,,,return,6.178999901,STRAWBERRY,TRUE,,,,,,,38,frambuesa,Spanish,Sounds/spa_frambuesa.mp3,2020-06-11_10h31.05.948,TranslationElicitation_eng-prolific,3.2.4,Win32,60,5e3878bdb7fe58049b837ea9,6.178999901,1,0,98,34,1,97
,,,,,,,,,,,,,,,,,,,,,,,,,,,,,,,,,,,,,,,,,,,,,,,,,,,38,frambuesa,Spanish,Sounds/spa_frambuesa.mp3,2020-06-11_10h31.05.948,TranslationElicitation_eng-prolific,3.2.4,Win32,60,5e3878bdb7fe58049b837ea9,,1,0,98,34,1,97
,,,,,,,,,,,,,,,,,,,,,,,,,,,,,,,,,,,,,,,,,o,2.007000208,O,FALSE,,,,,,,68,naranja,Spanish,Sounds/spa_naranja.mp3,2020-06-11_10h31.05.948,TranslationElicitation_eng-prolific,3.2.4,Win32,60,5e3878bdb7fe58049b837ea9,,1,0,98,64,1,97
,,,,,,,,,,,,,,,,,,,,,,,,,,,,,,,,,,,,,,,,,r,2.067000151,OR,FALSE,,,,,,,68,naranja,Spanish,Sounds/spa_naranja.mp3,2020-06-11_10h31.05.948,TranslationElicitation_eng-prolific,3.2.4,Win32,60,5e3878bdb7fe58049b837ea9,,1,0,98,64,1,97
,,,,,,,,,,,,,,,,,,,,,,,,,,,,,,,,,,,,,,,,,a,2.210000038,ORA,FALSE,,,,,,,68,naranja,Spanish,Sounds/spa_naranja.mp3,2020-06-11_10h31.05.948,TranslationElicitation_eng-prolific,3.2.4,Win32,60,5e3878bdb7fe58049b837ea9,,1,0,98,64,1,97
,,,,,,,,,,,,,,,,,,,,,,,,,,,,,,,,,,,,,,,,,n,2.264000177,ORAN,FALSE,,,,,,,68,naranja,Spanish,Sounds/spa_naranja.mp3,2020-06-11_10h31.05.948,TranslationElicitation_eng-prolific,3.2.4,Win32,60,5e3878bdb7fe58049b837ea9,,1,0,98,64,1,97
,,,,,,,,,,,,,,,,,,,,,,,,,,,,,,,,,,,,,,,,,g,2.436000109,ORANG,FALSE,,,,,,,68,naranja,Spanish,Sounds/spa_naranja.mp3,2020-06-11_10h31.05.948,TranslationElicitation_eng-prolific,3.2.4,Win32,60,5e3878bdb7fe58049b837ea9,,1,0,98,64,1,97
,,,,,,,,,,,,,,,,,,,,,,,,,,,,,,,,,,,,,,,,,e,2.509000063,ORANGE,FALSE,,,,,,,68,naranja,Spanish,Sounds/spa_naranja.mp3,2020-06-11_10h31.05.948,TranslationElicitation_eng-prolific,3.2.4,Win32,60,5e3878bdb7fe58049b837ea9,,1,0,98,64,1,97
,,,,,,,,,,,,,,,,,,,,,,,,,,,,,,,,,,,,,,,,,return,2.770000219,ORANGE,FALSE,,,,,,,68,naranja,Spanish,Sounds/spa_naranja.mp3,2020-06-11_10h31.05.948,TranslationElicitation_eng-prolific,3.2.4,Win32,60,5e3878bdb7fe58049b837ea9,2.770000219,1,0,98,64,1,97
,,,,,,,,,,,,,,,,,,,,,,,,,,,,,,,,,,,,,,,,,,,,,,,,,,,68,naranja,Spanish,Sounds/spa_naranja.mp3,2020-06-11_10h31.05.948,TranslationElicitation_eng-prolific,3.2.4,Win32,60,5e3878bdb7fe58049b837ea9,,1,0,98,64,1,97
,,,,,,,,,,,,,,,,,,,,,,,,,,,,,,,,,,,,,,,,,b,3.328999996,B,FALSE,,,,,,,13,buho,Spanish,Sounds/spa_buho.mp3,2020-06-11_10h31.05.948,TranslationElicitation_eng-prolific,3.2.4,Win32,60,5e3878bdb7fe58049b837ea9,,1,0,98,11,1,97
,,,,,,,,,,,,,,,,,,,,,,,,,,,,,,,,,,,,,,,,,a,3.681999922,BA,FALSE,,,,,,,13,buho,Spanish,Sounds/spa_buho.mp3,2020-06-11_10h31.05.948,TranslationElicitation_eng-prolific,3.2.4,Win32,60,5e3878bdb7fe58049b837ea9,,1,0,98,11,1,97
,,,,,,,,,,,,,,,,,,,,,,,,,,,,,,,,,,,,,,,,,l,3.756999969,BAL,FALSE,,,,,,,13,buho,Spanish,Sounds/spa_buho.mp3,2020-06-11_10h31.05.948,TranslationElicitation_eng-prolific,3.2.4,Win32,60,5e3878bdb7fe58049b837ea9,,1,0,98,11,1,97
,,,,,,,,,,,,,,,,,,,,,,,,,,,,,,,,,,,,,,,,,l,3.865999937,BALL,FALSE,,,,,,,13,buho,Spanish,Sounds/spa_buho.mp3,2020-06-11_10h31.05.948,TranslationElicitation_eng-prolific,3.2.4,Win32,60,5e3878bdb7fe58049b837ea9,,1,0,98,11,1,97
,,,,,,,,,,,,,,,,,,,,,,,,,,,,,,,,,,,,,,,,,return,4.069999933,BALL,FALSE,,,,,,,13,buho,Spanish,Sounds/spa_buho.mp3,2020-06-11_10h31.05.948,TranslationElicitation_eng-prolific,3.2.4,Win32,60,5e3878bdb7fe58049b837ea9,4.069999933,1,0,98,11,1,97
,,,,,,,,,,,,,,,,,,,,,,,,,,,,,,,,,,,,,,,,,,,,,,,,,,,13,buho,Spanish,Sounds/spa_buho.mp3,2020-06-11_10h31.05.948,TranslationElicitation_eng-prolific,3.2.4,Win32,60,5e3878bdb7fe58049b837ea9,,1,0,98,11,1,97
,,,,,,,,,,,,,,,,,,,,,,,,,,,,,,,,,,,,,,,,,c,1.89199996,C,FALSE,,,,,,,16,caja,Spanish,Sounds/spa_caja.mp3,2020-06-11_10h31.05.948,TranslationElicitation_eng-prolific,3.2.4,Win32,60,5e3878bdb7fe58049b837ea9,,1,0,98,14,1,97
,,,,,,,,,,,,,,,,,,,,,,,,,,,,,,,,,,,,,,,,,a,1.953999996,CA,FALSE,,,,,,,16,caja,Spanish,Sounds/spa_caja.mp3,2020-06-11_10h31.05.948,TranslationElicitation_eng-prolific,3.2.4,Win32,60,5e3878bdb7fe58049b837ea9,,1,0,98,14,1,97
,,,,,,,,,,,,,,,,,,,,,,,,,,,,,,,,,,,,,,,,,r,2.069999933,CAR,FALSE,,,,,,,16,caja,Spanish,Sounds/spa_caja.mp3,2020-06-11_10h31.05.948,TranslationElicitation_eng-prolific,3.2.4,Win32,60,5e3878bdb7fe58049b837ea9,,1,0,98,14,1,97
,,,,,,,,,,,,,,,,,,,,,,,,,,,,,,,,,,,,,,,,,return,2.23300004,CAR,FALSE,,,,,,,16,caja,Spanish,Sounds/spa_caja.mp3,2020-06-11_10h31.05.948,TranslationElicitation_eng-prolific,3.2.4,Win32,60,5e3878bdb7fe58049b837ea9,2.23300004,1,0,98,14,1,97
,,,,,,,,,,,,,,,,,,,,,,,,,,,,,,,,,,,,,,,,,,,,,,,,,,,16,caja,Spanish,Sounds/spa_caja.mp3,2020-06-11_10h31.05.948,TranslationElicitation_eng-prolific,3.2.4,Win32,60,5e3878bdb7fe58049b837ea9,,1,0,98,14,1,97
,,,,,,,,,,,,,,,,,,,,,,,,,,,,,,,,,,,,,,,,,p,1.655999899,P,FALSE,,,,,,,84,pie,Spanish,Sounds/spa_pie.mp3,2020-06-11_10h31.05.948,TranslationElicitation_eng-prolific,3.2.4,Win32,60,5e3878bdb7fe58049b837ea9,,1,0,98,79,1,97
,,,,,,,,,,,,,,,,,,,,,,,,,,,,,,,,,,,,,,,,,backspace,2.085000038,,TRUE,,,,,,,84,pie,Spanish,Sounds/spa_pie.mp3,2020-06-11_10h31.05.948,TranslationElicitation_eng-prolific,3.2.4,Win32,60,5e3878bdb7fe58049b837ea9,,1,0,98,79,1,97
,,,,,,,,,,,,,,,,,,,,,,,,,,,,,,,,,,,,,,,,,f,2.277999878,F,TRUE,,,,,,,84,pie,Spanish,Sounds/spa_pie.mp3,2020-06-11_10h31.05.948,TranslationElicitation_eng-prolific,3.2.4,Win32,60,5e3878bdb7fe58049b837ea9,,1,0,98,79,1,97
,,,,,,,,,,,,,,,,,,,,,,,,,,,,,,,,,,,,,,,,,o,2.388000011,FO,TRUE,,,,,,,84,pie,Spanish,Sounds/spa_pie.mp3,2020-06-11_10h31.05.948,TranslationElicitation_eng-prolific,3.2.4,Win32,60,5e3878bdb7fe58049b837ea9,,1,0,98,79,1,97
,,,,,,,,,,,,,,,,,,,,,,,,,,,,,,,,,,,,,,,,,o,2.530999899,FOO,TRUE,,,,,,,84,pie,Spanish,Sounds/spa_pie.mp3,2020-06-11_10h31.05.948,TranslationElicitation_eng-prolific,3.2.4,Win32,60,5e3878bdb7fe58049b837ea9,,1,0,98,79,1,97
,,,,,,,,,,,,,,,,,,,,,,,,,,,,,,,,,,,,,,,,,t,2.592999935,FOOT,TRUE,,,,,,,84,pie,Spanish,Sounds/spa_pie.mp3,2020-06-11_10h31.05.948,TranslationElicitation_eng-prolific,3.2.4,Win32,60,5e3878bdb7fe58049b837ea9,,1,0,98,79,1,97
,,,,,,,,,,,,,,,,,,,,,,,,,,,,,,,,,,,,,,,,,return,2.753999949,FOOT,TRUE,,,,,,,84,pie,Spanish,Sounds/spa_pie.mp3,2020-06-11_10h31.05.948,TranslationElicitation_eng-prolific,3.2.4,Win32,60,5e3878bdb7fe58049b837ea9,2.753999949,1,0,98,79,1,97
,,,,,,,,,,,,,,,,,,,,,,,,,,,,,,,,,,,,,,,,,,,,,,,,,,,84,pie,Spanish,Sounds/spa_pie.mp3,2020-06-11_10h31.05.948,TranslationElicitation_eng-prolific,3.2.4,Win32,60,5e3878bdb7fe58049b837ea9,,1,0,98,79,1,97
,,,,,,,,,,,,,,,,,,,,,,,,,,,,,,,,,,,,,,,,,l,1.625,L,FALSE,,,,,,,54,lengua,Spanish,Sounds/spa_lengua.mp3,2020-06-11_10h31.05.948,TranslationElicitation_eng-prolific,3.2.4,Win32,60,5e3878bdb7fe58049b837ea9,,1,0,98,50,1,97
,,,,,,,,,,,,,,,,,,,,,,,,,,,,,,,,,,,,,,,,,e,1.756999969,LE,FALSE,,,,,,,54,lengua,Spanish,Sounds/spa_lengua.mp3,2020-06-11_10h31.05.948,TranslationElicitation_eng-prolific,3.2.4,Win32,60,5e3878bdb7fe58049b837ea9,,1,0,98,50,1,97
,,,,,,,,,,,,,,,,,,,,,,,,,,,,,,,,,,,,,,,,,g,1.824999809,LEG,FALSE,,,,,,,54,lengua,Spanish,Sounds/spa_lengua.mp3,2020-06-11_10h31.05.948,TranslationElicitation_eng-prolific,3.2.4,Win32,60,5e3878bdb7fe58049b837ea9,,1,0,98,50,1,97
,,,,,,,,,,,,,,,,,,,,,,,,,,,,,,,,,,,,,,,,,return,2.062999964,LEG,FALSE,,,,,,,54,lengua,Spanish,Sounds/spa_lengua.mp3,2020-06-11_10h31.05.948,TranslationElicitation_eng-prolific,3.2.4,Win32,60,5e3878bdb7fe58049b837ea9,2.062999964,1,0,98,50,1,97
,,,,,,,,,,,,,,,,,,,,,,,,,,,,,,,,,,,,,,,,,,,,,,,,,,,54,lengua,Spanish,Sounds/spa_lengua.mp3,2020-06-11_10h31.05.948,TranslationElicitation_eng-prolific,3.2.4,Win32,60,5e3878bdb7fe58049b837ea9,,1,0,98,50,1,97
,,,,,,,,,,,,,,,,,,,,,,,,,,,,,,,,,,,,,,,,,m,2.243999958,M,FALSE,,,,,,,58,luna,Spanish,Sounds/spa_luna.mp3,2020-06-11_10h31.05.948,TranslationElicitation_eng-prolific,3.2.4,Win32,60,5e3878bdb7fe58049b837ea9,,1,0,98,54,1,97
,,,,,,,,,,,,,,,,,,,,,,,,,,,,,,,,,,,,,,,,,o,2.440999985,MO,FALSE,,,,,,,58,luna,Spanish,Sounds/spa_luna.mp3,2020-06-11_10h31.05.948,TranslationElicitation_eng-prolific,3.2.4,Win32,60,5e3878bdb7fe58049b837ea9,,1,0,98,54,1,97
,,,,,,,,,,,,,,,,,,,,,,,,,,,,,,,,,,,,,,,,,o,2.56099987,MOO,FALSE,,,,,,,58,luna,Spanish,Sounds/spa_luna.mp3,2020-06-11_10h31.05.948,TranslationElicitation_eng-prolific,3.2.4,Win32,60,5e3878bdb7fe58049b837ea9,,1,0,98,54,1,97
,,,,,,,,,,,,,,,,,,,,,,,,,,,,,,,,,,,,,,,,,n,2.661000013,MOON,FALSE,,,,,,,58,luna,Spanish,Sounds/spa_luna.mp3,2020-06-11_10h31.05.948,TranslationElicitation_eng-prolific,3.2.4,Win32,60,5e3878bdb7fe58049b837ea9,,1,0,98,54,1,97
,,,,,,,,,,,,,,,,,,,,,,,,,,,,,,,,,,,,,,,,,return,2.82799983,MOON,FALSE,,,,,,,58,luna,Spanish,Sounds/spa_luna.mp3,2020-06-11_10h31.05.948,TranslationElicitation_eng-prolific,3.2.4,Win32,60,5e3878bdb7fe58049b837ea9,2.82799983,1,0,98,54,1,97
,,,,,,,,,,,,,,,,,,,,,,,,,,,,,,,,,,,,,,,,,,,,,,,,,,,58,luna,Spanish,Sounds/spa_luna.mp3,2020-06-11_10h31.05.948,TranslationElicitation_eng-prolific,3.2.4,Win32,60,5e3878bdb7fe58049b837ea9,,1,0,98,54,1,97
,,,,,,,,,,,,,,,,,,,,,,,,,,,,,,,,,,,,,,,,,n,5.241999865,N,FALSE,,,,,,,62,martillo,Spanish,Sounds/spa_martillo.mp3,2020-06-11_10h31.05.948,TranslationElicitation_eng-prolific,3.2.4,Win32,60,5e3878bdb7fe58049b837ea9,,1,0,98,58,1,97
,,,,,,,,,,,,,,,,,,,,,,,,,,,,,,,,,,,,,,,,,a,5.311999798,NA,FALSE,,,,,,,62,martillo,Spanish,Sounds/spa_martillo.mp3,2020-06-11_10h31.05.948,TranslationElicitation_eng-prolific,3.2.4,Win32,60,5e3878bdb7fe58049b837ea9,,1,0,98,58,1,97
,,,,,,,,,,,,,,,,,,,,,,,,,,,,,,,,,,,,,,,,,m,5.40899992,NAM,FALSE,,,,,,,62,martillo,Spanish,Sounds/spa_martillo.mp3,2020-06-11_10h31.05.948,TranslationElicitation_eng-prolific,3.2.4,Win32,60,5e3878bdb7fe58049b837ea9,,1,0,98,58,1,97
,,,,,,,,,,,,,,,,,,,,,,,,,,,,,,,,,,,,,,,,,backspace,6.064999819,NA,TRUE,,,,,,,62,martillo,Spanish,Sounds/spa_martillo.mp3,2020-06-11_10h31.05.948,TranslationElicitation_eng-prolific,3.2.4,Win32,60,5e3878bdb7fe58049b837ea9,,1,0,98,58,1,97
,,,,,,,,,,,,,,,,,,,,,,,,,,,,,,,,,,,,,,,,,backspace,6.296999931,N,TRUE,,,,,,,62,martillo,Spanish,Sounds/spa_martillo.mp3,2020-06-11_10h31.05.948,TranslationElicitation_eng-prolific,3.2.4,Win32,60,5e3878bdb7fe58049b837ea9,,1,0,98,58,1,97
,,,,,,,,,,,,,,,,,,,,,,,,,,,,,,,,,,,,,,,,,backspace,6.518999815,,TRUE,,,,,,,62,martillo,Spanish,Sounds/spa_martillo.mp3,2020-06-11_10h31.05.948,TranslationElicitation_eng-prolific,3.2.4,Win32,60,5e3878bdb7fe58049b837ea9,,1,0,98,58,1,97
,,,,,,,,,,,,,,,,,,,,,,,,,,,,,,,,,,,,,,,,,backspace,6.720999956,,TRUE,,,,,,,62,martillo,Spanish,Sounds/spa_martillo.mp3,2020-06-11_10h31.05.948,TranslationElicitation_eng-prolific,3.2.4,Win32,60,5e3878bdb7fe58049b837ea9,,1,0,98,58,1,97
,,,,,,,,,,,,,,,,,,,,,,,,,,,,,,,,,,,,,,,,,backspace,6.936999798,,TRUE,,,,,,,62,martillo,Spanish,Sounds/spa_martillo.mp3,2020-06-11_10h31.05.948,TranslationElicitation_eng-prolific,3.2.4,Win32,60,5e3878bdb7fe58049b837ea9,,1,0,98,58,1,97
,,,,,,,,,,,,,,,,,,,,,,,,,,,,,,,,,,,,,,,,,backspace,7.118999958,,TRUE,,,,,,,62,martillo,Spanish,Sounds/spa_martillo.mp3,2020-06-11_10h31.05.948,TranslationElicitation_eng-prolific,3.2.4,Win32,60,5e3878bdb7fe58049b837ea9,,1,0,98,58,1,97
,,,,,,,,,,,,,,,,,,,,,,,,,,,,,,,,,,,,,,,,,backspace,7.304999828,,TRUE,,,,,,,62,martillo,Spanish,Sounds/spa_martillo.mp3,2020-06-11_10h31.05.948,TranslationElicitation_eng-prolific,3.2.4,Win32,60,5e3878bdb7fe58049b837ea9,,1,0,98,58,1,97
,,,,,,,,,,,,,,,,,,,,,,,,,,,,,,,,,,,,,,,,,m,7.740999937,M,TRUE,,,,,,,62,martillo,Spanish,Sounds/spa_martillo.mp3,2020-06-11_10h31.05.948,TranslationElicitation_eng-prolific,3.2.4,Win32,60,5e3878bdb7fe58049b837ea9,,1,0,98,58,1,97
,,,,,,,,,,,,,,,,,,,,,,,,,,,,,,,,,,,,,,,,,a,7.842999935,MA,TRUE,,,,,,,62,martillo,Spanish,Sounds/spa_martillo.mp3,2020-06-11_10h31.05.948,TranslationElicitation_eng-prolific,3.2.4,Win32,60,5e3878bdb7fe58049b837ea9,,1,0,98,58,1,97
,,,,,,,,,,,,,,,,,,,,,,,,,,,,,,,,,,,,,,,,,r,7.921999931,MAR,TRUE,,,,,,,62,martillo,Spanish,Sounds/spa_martillo.mp3,2020-06-11_10h31.05.948,TranslationElicitation_eng-prolific,3.2.4,Win32,60,5e3878bdb7fe58049b837ea9,,1,0,98,58,1,97
,,,,,,,,,,,,,,,,,,,,,,,,,,,,,,,,,,,,,,,,,r,8.0849998,MARR,TRUE,,,,,,,62,martillo,Spanish,Sounds/spa_martillo.mp3,2020-06-11_10h31.05.948,TranslationElicitation_eng-prolific,3.2.4,Win32,60,5e3878bdb7fe58049b837ea9,,1,0,98,58,1,97
,,,,,,,,,,,,,,,,,,,,,,,,,,,,,,,,,,,,,,,,,a,8.237999916,MARRA,TRUE,,,,,,,62,martillo,Spanish,Sounds/spa_martillo.mp3,2020-06-11_10h31.05.948,TranslationElicitation_eng-prolific,3.2.4,Win32,60,5e3878bdb7fe58049b837ea9,,1,0,98,58,1,97
,,,,,,,,,,,,,,,,,,,,,,,,,,,,,,,,,,,,,,,,,i,8.270999908,MARRAI,TRUE,,,,,,,62,martillo,Spanish,Sounds/spa_martillo.mp3,2020-06-11_10h31.05.948,TranslationElicitation_eng-prolific,3.2.4,Win32,60,5e3878bdb7fe58049b837ea9,,1,0,98,58,1,97
,,,,,,,,,,,,,,,,,,,,,,,,,,,,,,,,,,,,,,,,,g,8.544999838,MARRAIG,TRUE,,,,,,,62,martillo,Spanish,Sounds/spa_martillo.mp3,2020-06-11_10h31.05.948,TranslationElicitation_eng-prolific,3.2.4,Win32,60,5e3878bdb7fe58049b837ea9,,1,0,98,58,1,97
,,,,,,,,,,,,,,,,,,,,,,,,,,,,,,,,,,,,,,,,,e,8.609999895,MARRAIGE,TRUE,,,,,,,62,martillo,Spanish,Sounds/spa_martillo.mp3,2020-06-11_10h31.05.948,TranslationElicitation_eng-prolific,3.2.4,Win32,60,5e3878bdb7fe58049b837ea9,,1,0,98,58,1,97
,,,,,,,,,,,,,,,,,,,,,,,,,,,,,,,,,,,,,,,,,return,8.949999809,MARRAIGE,TRUE,,,,,,,62,martillo,Spanish,Sounds/spa_martillo.mp3,2020-06-11_10h31.05.948,TranslationElicitation_eng-prolific,3.2.4,Win32,60,5e3878bdb7fe58049b837ea9,8.949999809,1,0,98,58,1,97
,,,,,,,,,,,,,,,,,,,,,,,,,,,,,,,,,,,,,,,,,,,,,,,,,,,62,martillo,Spanish,Sounds/spa_martillo.mp3,2020-06-11_10h31.05.948,TranslationElicitation_eng-prolific,3.2.4,Win32,60,5e3878bdb7fe58049b837ea9,,1,0,98,58,1,97
,,,,,,,,,,,,,,,,,,,,,,,,,,,,,,,,,,,,,,,,,c,3.57799983,C,FALSE,,,,,,,49,hormiga,Spanish,Sounds/spa_hormiga.mp3,2020-06-11_10h31.05.948,TranslationElicitation_eng-prolific,3.2.4,Win32,60,5e3878bdb7fe58049b837ea9,,1,0,98,45,1,97
,,,,,,,,,,,,,,,,,,,,,,,,,,,,,,,,,,,,,,,,,o,3.678999901,CO,FALSE,,,,,,,49,hormiga,Spanish,Sounds/spa_hormiga.mp3,2020-06-11_10h31.05.948,TranslationElicitation_eng-prolific,3.2.4,Win32,60,5e3878bdb7fe58049b837ea9,,1,0,98,45,1,97
,,,,,,,,,,,,,,,,,,,,,,,,,,,,,,,,,,,,,,,,,f,3.831999779,COF,FALSE,,,,,,,49,hormiga,Spanish,Sounds/spa_hormiga.mp3,2020-06-11_10h31.05.948,TranslationElicitation_eng-prolific,3.2.4,Win32,60,5e3878bdb7fe58049b837ea9,,1,0,98,45,1,97
,,,,,,,,,,,,,,,,,,,,,,,,,,,,,,,,,,,,,,,,,f,3.972999811,COFF,FALSE,,,,,,,49,hormiga,Spanish,Sounds/spa_hormiga.mp3,2020-06-11_10h31.05.948,TranslationElicitation_eng-prolific,3.2.4,Win32,60,5e3878bdb7fe58049b837ea9,,1,0,98,45,1,97
,,,,,,,,,,,,,,,,,,,,,,,,,,,,,,,,,,,,,,,,,e,4.059000015,COFFE,FALSE,,,,,,,49,hormiga,Spanish,Sounds/spa_hormiga.mp3,2020-06-11_10h31.05.948,TranslationElicitation_eng-prolific,3.2.4,Win32,60,5e3878bdb7fe58049b837ea9,,1,0,98,45,1,97
,,,,,,,,,,,,,,,,,,,,,,,,,,,,,,,,,,,,,,,,,return,4.148999929,COFFE,FALSE,,,,,,,49,hormiga,Spanish,Sounds/spa_hormiga.mp3,2020-06-11_10h31.05.948,TranslationElicitation_eng-prolific,3.2.4,Win32,60,5e3878bdb7fe58049b837ea9,4.148999929,1,0,98,45,1,97
,,,,,,,,,,,,,,,,,,,,,,,,,,,,,,,,,,,,,,,,,,,,,,,,,,,49,hormiga,Spanish,Sounds/spa_hormiga.mp3,2020-06-11_10h31.05.948,TranslationElicitation_eng-prolific,3.2.4,Win32,60,5e3878bdb7fe58049b837ea9,,1,0,98,45,1,97
,,,,,,,,,,,,,,,,,,,,,,,,,,,,,,,,,,,,,,,,,c,2.395999908,C,FALSE,,,,,,,19,camiseta,Spanish,Sounds/spa_camiseta.mp3,2020-06-11_10h31.05.948,TranslationElicitation_eng-prolific,3.2.4,Win32,60,5e3878bdb7fe58049b837ea9,,1,0,98,17,1,97
,,,,,,,,,,,,,,,,,,,,,,,,,,,,,,,,,,,,,,,,,a,2.463000059,CA,FALSE,,,,,,,19,camiseta,Spanish,Sounds/spa_camiseta.mp3,2020-06-11_10h31.05.948,TranslationElicitation_eng-prolific,3.2.4,Win32,60,5e3878bdb7fe58049b837ea9,,1,0,98,17,1,97
,,,,,,,,,,,,,,,,,,,,,,,,,,,,,,,,,,,,,,,,,m,2.546999931,CAM,FALSE,,,,,,,19,camiseta,Spanish,Sounds/spa_camiseta.mp3,2020-06-11_10h31.05.948,TranslationElicitation_eng-prolific,3.2.4,Win32,60,5e3878bdb7fe58049b837ea9,,1,0,98,17,1,97
,,,,,,,,,,,,,,,,,,,,,,,,,,,,,,,,,,,,,,,,,e,2.737999916,CAME,FALSE,,,,,,,19,camiseta,Spanish,Sounds/spa_camiseta.mp3,2020-06-11_10h31.05.948,TranslationElicitation_eng-prolific,3.2.4,Win32,60,5e3878bdb7fe58049b837ea9,,1,0,98,17,1,97
,,,,,,,,,,,,,,,,,,,,,,,,,,,,,,,,,,,,,,,,,l,2.760999918,CAMEL,FALSE,,,,,,,19,camiseta,Spanish,Sounds/spa_camiseta.mp3,2020-06-11_10h31.05.948,TranslationElicitation_eng-prolific,3.2.4,Win32,60,5e3878bdb7fe58049b837ea9,,1,0,98,17,1,97
,,,,,,,,,,,,,,,,,,,,,,,,,,,,,,,,,,,,,,,,,return,3.815999985,CAMEL,FALSE,,,,,,,19,camiseta,Spanish,Sounds/spa_camiseta.mp3,2020-06-11_10h31.05.948,TranslationElicitation_eng-prolific,3.2.4,Win32,60,5e3878bdb7fe58049b837ea9,3.815999985,1,0,98,17,1,97
,,,,,,,,,,,,,,,,,,,,,,,,,,,,,,,,,,,,,,,,,,,,,,,,,,,19,camiseta,Spanish,Sounds/spa_camiseta.mp3,2020-06-11_10h31.05.948,TranslationElicitation_eng-prolific,3.2.4,Win32,60,5e3878bdb7fe58049b837ea9,,1,0,98,17,1,97
,,,,,,,,,,,,,,,,,,,,,,,,,,,,,,,,,,,,,,,,,s,4.111999989,S,FALSE,,,,,,,103,zanahoria,Spanish,Sounds/spa_zanahoria.mp3,2020-06-11_10h31.05.948,TranslationElicitation_eng-prolific,3.2.4,Win32,60,5e3878bdb7fe58049b837ea9,,1,0,98,97,1,97
,,,,,,,,,,,,,,,,,,,,,,,,,,,,,,,,,,,,,,,,,u,4.208000183,SU,FALSE,,,,,,,103,zanahoria,Spanish,Sounds/spa_zanahoria.mp3,2020-06-11_10h31.05.948,TranslationElicitation_eng-prolific,3.2.4,Win32,60,5e3878bdb7fe58049b837ea9,,1,0,98,97,1,97
,,,,,,,,,,,,,,,,,,,,,,,,,,,,,,,,,,,,,,,,,n,4.440999985,SUN,FALSE,,,,,,,103,zanahoria,Spanish,Sounds/spa_zanahoria.mp3,2020-06-11_10h31.05.948,TranslationElicitation_eng-prolific,3.2.4,Win32,60,5e3878bdb7fe58049b837ea9,,1,0,98,97,1,97
,,,,,,,,,,,,,,,,,,,,,,,,,,,,,,,,,,,,,,,,,l,4.712000132,SUNL,FALSE,,,,,,,103,zanahoria,Spanish,Sounds/spa_zanahoria.mp3,2020-06-11_10h31.05.948,TranslationElicitation_eng-prolific,3.2.4,Win32,60,5e3878bdb7fe58049b837ea9,,1,0,98,97,1,97
,,,,,,,,,,,,,,,,,,,,,,,,,,,,,,,,,,,,,,,,,i,4.894999981,SUNLI,FALSE,,,,,,,103,zanahoria,Spanish,Sounds/spa_zanahoria.mp3,2020-06-11_10h31.05.948,TranslationElicitation_eng-prolific,3.2.4,Win32,60,5e3878bdb7fe58049b837ea9,,1,0,98,97,1,97
,,,,,,,,,,,,,,,,,,,,,,,,,,,,,,,,,,,,,,,,,g,5.012000084,SUNLIG,FALSE,,,,,,,103,zanahoria,Spanish,Sounds/spa_zanahoria.mp3,2020-06-11_10h31.05.948,TranslationElicitation_eng-prolific,3.2.4,Win32,60,5e3878bdb7fe58049b837ea9,,1,0,98,97,1,97
,,,,,,,,,,,,,,,,,,,,,,,,,,,,,,,,,,,,,,,,,h,5.105000019,SUNLIGH,FALSE,,,,,,,103,zanahoria,Spanish,Sounds/spa_zanahoria.mp3,2020-06-11_10h31.05.948,TranslationElicitation_eng-prolific,3.2.4,Win32,60,5e3878bdb7fe58049b837ea9,,1,0,98,97,1,97
,,,,,,,,,,,,,,,,,,,,,,,,,,,,,,,,,,,,,,,,,t,5.209000111,SUNLIGHT,FALSE,,,,,,,103,zanahoria,Spanish,Sounds/spa_zanahoria.mp3,2020-06-11_10h31.05.948,TranslationElicitation_eng-prolific,3.2.4,Win32,60,5e3878bdb7fe58049b837ea9,,1,0,98,97,1,97
,,,,,,,,,,,,,,,,,,,,,,,,,,,,,,,,,,,,,,,,,return,5.448000193,SUNLIGHT,FALSE,,,,,,,103,zanahoria,Spanish,Sounds/spa_zanahoria.mp3,2020-06-11_10h31.05.948,TranslationElicitation_eng-prolific,3.2.4,Win32,60,5e3878bdb7fe58049b837ea9,5.448000193,1,0,98,97,1,97
,,,,,,,,,,,,,,,,,,,,,,,,,,,,,,,,,,,,,,,,,,,,,,,,,,,103,zanahoria,Spanish,Sounds/spa_zanahoria.mp3,2020-06-11_10h31.05.948,TranslationElicitation_eng-prolific,3.2.4,Win32,60,5e3878bdb7fe58049b837ea9,,1,0,98,97,1,97
,,,,,,,,,,,,,,,,,,,,,,,,,,,,,,,,,,,,,,,,,s,22.20700002,S,FALSE,,,,,,,73,oveja,Spanish,Sounds/spa_oveja.mp3,2020-06-11_10h31.05.948,TranslationElicitation_eng-prolific,3.2.4,Win32,60,5e3878bdb7fe58049b837ea9,,1,0,98,68,1,97
,,,,,,,,,,,,,,,,,,,,,,,,,,,,,,,,,,,,,,,,,t,22.27699995,ST,FALSE,,,,,,,73,oveja,Spanish,Sounds/spa_oveja.mp3,2020-06-11_10h31.05.948,TranslationElicitation_eng-prolific,3.2.4,Win32,60,5e3878bdb7fe58049b837ea9,,1,0,98,68,1,97
,,,,,,,,,,,,,,,,,,,,,,,,,,,,,,,,,,,,,,,,,a,22.32599998,STA,FALSE,,,,,,,73,oveja,Spanish,Sounds/spa_oveja.mp3,2020-06-11_10h31.05.948,TranslationElicitation_eng-prolific,3.2.4,Win32,60,5e3878bdb7fe58049b837ea9,,1,0,98,68,1,97
,,,,,,,,,,,,,,,,,,,,,,,,,,,,,,,,,,,,,,,,,t,22.81399989,STAT,FALSE,,,,,,,73,oveja,Spanish,Sounds/spa_oveja.mp3,2020-06-11_10h31.05.948,TranslationElicitation_eng-prolific,3.2.4,Win32,60,5e3878bdb7fe58049b837ea9,,1,0,98,68,1,97
,,,,,,,,,,,,,,,,,,,,,,,,,,,,,,,,,,,,,,,,,i,22.89700007,STATI,FALSE,,,,,,,73,oveja,Spanish,Sounds/spa_oveja.mp3,2020-06-11_10h31.05.948,TranslationElicitation_eng-prolific,3.2.4,Win32,60,5e3878bdb7fe58049b837ea9,,1,0,98,68,1,97
,,,,,,,,,,,,,,,,,,,,,,,,,,,,,,,,,,,,,,,,,o,23.00200009,STATIO,FALSE,,,,,,,73,oveja,Spanish,Sounds/spa_oveja.mp3,2020-06-11_10h31.05.948,TranslationElicitation_eng-prolific,3.2.4,Win32,60,5e3878bdb7fe58049b837ea9,,1,0,98,68,1,97
,,,,,,,,,,,,,,,,,,,,,,,,,,,,,,,,,,,,,,,,,n,23.07999992,STATION,FALSE,,,,,,,73,oveja,Spanish,Sounds/spa_oveja.mp3,2020-06-11_10h31.05.948,TranslationElicitation_eng-prolific,3.2.4,Win32,60,5e3878bdb7fe58049b837ea9,,1,0,98,68,1,97
,,,,,,,,,,,,,,,,,,,,,,,,,,,,,,,,,,,,,,,,,return,23.68199992,STATION,FALSE,,,,,,,73,oveja,Spanish,Sounds/spa_oveja.mp3,2020-06-11_10h31.05.948,TranslationElicitation_eng-prolific,3.2.4,Win32,60,5e3878bdb7fe58049b837ea9,23.68199992,1,0,98,68,1,97
,,,,,,,,,,,,,,,,,,,,,,,,,,,,,,,,,,,,,,,,,,,,,,,,,,,73,oveja,Spanish,Sounds/spa_oveja.mp3,2020-06-11_10h31.05.948,TranslationElicitation_eng-prolific,3.2.4,Win32,60,5e3878bdb7fe58049b837ea9,,1,0,98,68,1,97
,,,,,,,,,,,,,,,,,,,,,,,,,,,,,,,,,,,,,,,,,s,5.332000017,S,FALSE,,,,,,,22,cepillo,Spanish,Sounds/spa_cepillo.mp3,2020-06-11_10h31.05.948,TranslationElicitation_eng-prolific,3.2.4,Win32,60,5e3878bdb7fe58049b837ea9,,1,0,98,20,1,97
,,,,,,,,,,,,,,,,,,,,,,,,,,,,,,,,,,,,,,,,,l,5.427000046,SL,FALSE,,,,,,,22,cepillo,Spanish,Sounds/spa_cepillo.mp3,2020-06-11_10h31.05.948,TranslationElicitation_eng-prolific,3.2.4,Win32,60,5e3878bdb7fe58049b837ea9,,1,0,98,20,1,97
,,,,,,,,,,,,,,,,,,,,,,,,,,,,,,,,,,,,,,,,,e,5.54399991,SLE,FALSE,,,,,,,22,cepillo,Spanish,Sounds/spa_cepillo.mp3,2020-06-11_10h31.05.948,TranslationElicitation_eng-prolific,3.2.4,Win32,60,5e3878bdb7fe58049b837ea9,,1,0,98,20,1,97
,,,,,,,,,,,,,,,,,,,,,,,,,,,,,,,,,,,,,,,,,e,5.671000004,SLEE,FALSE,,,,,,,22,cepillo,Spanish,Sounds/spa_cepillo.mp3,2020-06-11_10h31.05.948,TranslationElicitation_eng-prolific,3.2.4,Win32,60,5e3878bdb7fe58049b837ea9,,1,0,98,20,1,97
,,,,,,,,,,,,,,,,,,,,,,,,,,,,,,,,,,,,,,,,,p,5.773999929,SLEEP,FALSE,,,,,,,22,cepillo,Spanish,Sounds/spa_cepillo.mp3,2020-06-11_10h31.05.948,TranslationElicitation_eng-prolific,3.2.4,Win32,60,5e3878bdb7fe58049b837ea9,,1,0,98,20,1,97
,,,,,,,,,,,,,,,,,,,,,,,,,,,,,,,,,,,,,,,,,i,5.983999968,SLEEPI,FALSE,,,,,,,22,cepillo,Spanish,Sounds/spa_cepillo.mp3,2020-06-11_10h31.05.948,TranslationElicitation_eng-prolific,3.2.4,Win32,60,5e3878bdb7fe58049b837ea9,,1,0,98,20,1,97
,,,,,,,,,,,,,,,,,,,,,,,,,,,,,,,,,,,,,,,,,n,6.229000092,SLEEPIN,FALSE,,,,,,,22,cepillo,Spanish,Sounds/spa_cepillo.mp3,2020-06-11_10h31.05.948,TranslationElicitation_eng-prolific,3.2.4,Win32,60,5e3878bdb7fe58049b837ea9,,1,0,98,20,1,97
,,,,,,,,,,,,,,,,,,,,,,,,,,,,,,,,,,,,,,,,,g,6.326999903,SLEEPING,FALSE,,,,,,,22,cepillo,Spanish,Sounds/spa_cepillo.mp3,2020-06-11_10h31.05.948,TranslationElicitation_eng-prolific,3.2.4,Win32,60,5e3878bdb7fe58049b837ea9,,1,0,98,20,1,97
,,,,,,,,,,,,,,,,,,,,,,,,,,,,,,,,,,,,,,,,,return,6.618999958,SLEEPING,FALSE,,,,,,,22,cepillo,Spanish,Sounds/spa_cepillo.mp3,2020-06-11_10h31.05.948,TranslationElicitation_eng-prolific,3.2.4,Win32,60,5e3878bdb7fe58049b837ea9,6.618999958,1,0,98,20,1,97
,,,,,,,,,,,,,,,,,,,,,,,,,,,,,,,,,,,,,,,,,,,,,,,,,,,22,cepillo,Spanish,Sounds/spa_cepillo.mp3,2020-06-11_10h31.05.948,TranslationElicitation_eng-prolific,3.2.4,Win32,60,5e3878bdb7fe58049b837ea9,,1,0,98,20,1,97
,,,,,,,,,,,,,,,,,,,,,,,,,,,,,,,,,,,,,,,,,t,2.676000118,T,FALSE,,,,,,,97,tijeras,Spanish,Sounds/spa_tijeras.mp3,2020-06-11_10h31.05.948,TranslationElicitation_eng-prolific,3.2.4,Win32,60,5e3878bdb7fe58049b837ea9,,1,0,98,91,1,97
,,,,,,,,,,,,,,,,,,,,,,,,,,,,,,,,,,,,,,,,,e,2.761000156,TE,FALSE,,,,,,,97,tijeras,Spanish,Sounds/spa_tijeras.mp3,2020-06-11_10h31.05.948,TranslationElicitation_eng-prolific,3.2.4,Win32,60,5e3878bdb7fe58049b837ea9,,1,0,98,91,1,97
,,,,,,,,,,,,,,,,,,,,,,,,,,,,,,,,,,,,,,,,,r,2.838000059,TER,FALSE,,,,,,,97,tijeras,Spanish,Sounds/spa_tijeras.mp3,2020-06-11_10h31.05.948,TranslationElicitation_eng-prolific,3.2.4,Win32,60,5e3878bdb7fe58049b837ea9,,1,0,98,91,1,97
,,,,,,,,,,,,,,,,,,,,,,,,,,,,,,,,,,,,,,,,,backspace,3.219000101,TE,TRUE,,,,,,,97,tijeras,Spanish,Sounds/spa_tijeras.mp3,2020-06-11_10h31.05.948,TranslationElicitation_eng-prolific,3.2.4,Win32,60,5e3878bdb7fe58049b837ea9,,1,0,98,91,1,97
,,,,,,,,,,,,,,,,,,,,,,,,,,,,,,,,,,,,,,,,,backspace,3.357000113,T,TRUE,,,,,,,97,tijeras,Spanish,Sounds/spa_tijeras.mp3,2020-06-11_10h31.05.948,TranslationElicitation_eng-prolific,3.2.4,Win32,60,5e3878bdb7fe58049b837ea9,,1,0,98,91,1,97
,,,,,,,,,,,,,,,,,,,,,,,,,,,,,,,,,,,,,,,,,e,3.930999994,TE,TRUE,,,,,,,97,tijeras,Spanish,Sounds/spa_tijeras.mp3,2020-06-11_10h31.05.948,TranslationElicitation_eng-prolific,3.2.4,Win32,60,5e3878bdb7fe58049b837ea9,,1,0,98,91,1,97
,,,,,,,,,,,,,,,,,,,,,,,,,,,,,,,,,,,,,,,,,a,4.044000149,TEA,TRUE,,,,,,,97,tijeras,Spanish,Sounds/spa_tijeras.mp3,2020-06-11_10h31.05.948,TranslationElicitation_eng-prolific,3.2.4,Win32,60,5e3878bdb7fe58049b837ea9,,1,0,98,91,1,97
,,,,,,,,,,,,,,,,,,,,,,,,,,,,,,,,,,,,,,,,,c,4.252000093,TEAC,TRUE,,,,,,,97,tijeras,Spanish,Sounds/spa_tijeras.mp3,2020-06-11_10h31.05.948,TranslationElicitation_eng-prolific,3.2.4,Win32,60,5e3878bdb7fe58049b837ea9,,1,0,98,91,1,97
,,,,,,,,,,,,,,,,,,,,,,,,,,,,,,,,,,,,,,,,,h,4.378000021,TEACH,TRUE,,,,,,,97,tijeras,Spanish,Sounds/spa_tijeras.mp3,2020-06-11_10h31.05.948,TranslationElicitation_eng-prolific,3.2.4,Win32,60,5e3878bdb7fe58049b837ea9,,1,0,98,91,1,97
,,,,,,,,,,,,,,,,,,,,,,,,,,,,,,,,,,,,,,,,,e,4.478000164,TEACHE,TRUE,,,,,,,97,tijeras,Spanish,Sounds/spa_tijeras.mp3,2020-06-11_10h31.05.948,TranslationElicitation_eng-prolific,3.2.4,Win32,60,5e3878bdb7fe58049b837ea9,,1,0,98,91,1,97
,,,,,,,,,,,,,,,,,,,,,,,,,,,,,,,,,,,,,,,,,r,4.502000093,TEACHER,TRUE,,,,,,,97,tijeras,Spanish,Sounds/spa_tijeras.mp3,2020-06-11_10h31.05.948,TranslationElicitation_eng-prolific,3.2.4,Win32,60,5e3878bdb7fe58049b837ea9,,1,0,98,91,1,97
,,,,,,,,,,,,,,,,,,,,,,,,,,,,,,,,,,,,,,,,,s,4.705000162,TEACHERS,TRUE,,,,,,,97,tijeras,Spanish,Sounds/spa_tijeras.mp3,2020-06-11_10h31.05.948,TranslationElicitation_eng-prolific,3.2.4,Win32,60,5e3878bdb7fe58049b837ea9,,1,0,98,91,1,97
,,,,,,,,,,,,,,,,,,,,,,,,,,,,,,,,,,,,,,,,,return,4.823000193,TEACHERS,TRUE,,,,,,,97,tijeras,Spanish,Sounds/spa_tijeras.mp3,2020-06-11_10h31.05.948,TranslationElicitation_eng-prolific,3.2.4,Win32,60,5e3878bdb7fe58049b837ea9,4.823000193,1,0,98,91,1,97
,,,,,,,,,,,,,,,,,,,,,,,,,,,,,,,,,,,,,,,,,,,,,,,,,,,97,tijeras,Spanish,Sounds/spa_tijeras.mp3,2020-06-11_10h31.05.948,TranslationElicitation_eng-prolific,3.2.4,Win32,60,5e3878bdb7fe58049b837ea9,,1,0,98,91,1,97
,,,,,,,,,,,,,,,,,,,,,,,,,,,,,,,,,,,,,,,,,o,3.512000084,O,FALSE,,,,,,,65,mono,Spanish,Sounds/spa_mono.mp3,2020-06-11_10h31.05.948,TranslationElicitation_eng-prolific,3.2.4,Win32,60,5e3878bdb7fe58049b837ea9,,1,0,98,61,1,97
,,,,,,,,,,,,,,,,,,,,,,,,,,,,,,,,,,,,,,,,,n,3.657000065,ON,FALSE,,,,,,,65,mono,Spanish,Sounds/spa_mono.mp3,2020-06-11_10h31.05.948,TranslationElicitation_eng-prolific,3.2.4,Win32,60,5e3878bdb7fe58049b837ea9,,1,0,98,61,1,97
,,,,,,,,,,,,,,,,,,,,,,,,,,,,,,,,,,,,,,,,,l,3.769999981,ONL,FALSE,,,,,,,65,mono,Spanish,Sounds/spa_mono.mp3,2020-06-11_10h31.05.948,TranslationElicitation_eng-prolific,3.2.4,Win32,60,5e3878bdb7fe58049b837ea9,,1,0,98,61,1,97
,,,,,,,,,,,,,,,,,,,,,,,,,,,,,,,,,,,,,,,,,y,3.983999968,ONLY,FALSE,,,,,,,65,mono,Spanish,Sounds/spa_mono.mp3,2020-06-11_10h31.05.948,TranslationElicitation_eng-prolific,3.2.4,Win32,60,5e3878bdb7fe58049b837ea9,,1,0,98,61,1,97
,,,,,,,,,,,,,,,,,,,,,,,,,,,,,,,,,,,,,,,,,return,4.134000063,ONLY,FALSE,,,,,,,65,mono,Spanish,Sounds/spa_mono.mp3,2020-06-11_10h31.05.948,TranslationElicitation_eng-prolific,3.2.4,Win32,60,5e3878bdb7fe58049b837ea9,4.134000063,1,0,98,61,1,97
,,,,,,,,,,,,,,,,,,,,,,,,,,,,,,,,,,,,,,,,,,,,,,,,,,,65,mono,Spanish,Sounds/spa_mono.mp3,2020-06-11_10h31.05.948,TranslationElicitation_eng-prolific,3.2.4,Win32,60,5e3878bdb7fe58049b837ea9,,1,0,98,61,1,97
,,,,,,,,,,,,,,,,,,,,,,,,,,,,,,,,,,,,,,,,,r,2.088999987,R,FALSE,,,,,,,77,pantalon,Spanish,Sounds/spa_pantalon.mp3,2020-06-11_10h31.05.948,TranslationElicitation_eng-prolific,3.2.4,Win32,60,5e3878bdb7fe58049b837ea9,,1,0,98,72,1,97
,,,,,,,,,,,,,,,,,,,,,,,,,,,,,,,,,,,,,,,,,backspace,2.370000124,,TRUE,,,,,,,77,pantalon,Spanish,Sounds/spa_pantalon.mp3,2020-06-11_10h31.05.948,TranslationElicitation_eng-prolific,3.2.4,Win32,60,5e3878bdb7fe58049b837ea9,,1,0,98,72,1,97
,,,,,,,,,,,,,,,,,,,,,,,,,,,,,,,,,,,,,,,,,t,2.453000069,T,TRUE,,,,,,,77,pantalon,Spanish,Sounds/spa_pantalon.mp3,2020-06-11_10h31.05.948,TranslationElicitation_eng-prolific,3.2.4,Win32,60,5e3878bdb7fe58049b837ea9,,1,0,98,72,1,97
,,,,,,,,,,,,,,,,,,,,,,,,,,,,,,,,,,,,,,,,,r,2.502000093,TR,TRUE,,,,,,,77,pantalon,Spanish,Sounds/spa_pantalon.mp3,2020-06-11_10h31.05.948,TranslationElicitation_eng-prolific,3.2.4,Win32,60,5e3878bdb7fe58049b837ea9,,1,0,98,72,1,97
,,,,,,,,,,,,,,,,,,,,,,,,,,,,,,,,,,,,,,,,,o,2.648999929,TRO,TRUE,,,,,,,77,pantalon,Spanish,Sounds/spa_pantalon.mp3,2020-06-11_10h31.05.948,TranslationElicitation_eng-prolific,3.2.4,Win32,60,5e3878bdb7fe58049b837ea9,,1,0,98,72,1,97
,,,,,,,,,,,,,,,,,,,,,,,,,,,,,,,,,,,,,,,,,u,2.877000093,TROU,TRUE,,,,,,,77,pantalon,Spanish,Sounds/spa_pantalon.mp3,2020-06-11_10h31.05.948,TranslationElicitation_eng-prolific,3.2.4,Win32,60,5e3878bdb7fe58049b837ea9,,1,0,98,72,1,97
,,,,,,,,,,,,,,,,,,,,,,,,,,,,,,,,,,,,,,,,,s,2.947999954,TROUS,TRUE,,,,,,,77,pantalon,Spanish,Sounds/spa_pantalon.mp3,2020-06-11_10h31.05.948,TranslationElicitation_eng-prolific,3.2.4,Win32,60,5e3878bdb7fe58049b837ea9,,1,0,98,72,1,97
,,,,,,,,,,,,,,,,,,,,,,,,,,,,,,,,,,,,,,,,,e,3.144999981,TROUSE,TRUE,,,,,,,77,pantalon,Spanish,Sounds/spa_pantalon.mp3,2020-06-11_10h31.05.948,TranslationElicitation_eng-prolific,3.2.4,Win32,60,5e3878bdb7fe58049b837ea9,,1,0,98,72,1,97
,,,,,,,,,,,,,,,,,,,,,,,,,,,,,,,,,,,,,,,,,r,3.203999996,TROUSER,TRUE,,,,,,,77,pantalon,Spanish,Sounds/spa_pantalon.mp3,2020-06-11_10h31.05.948,TranslationElicitation_eng-prolific,3.2.4,Win32,60,5e3878bdb7fe58049b837ea9,,1,0,98,72,1,97
,,,,,,,,,,,,,,,,,,,,,,,,,,,,,,,,,,,,,,,,,s,3.372999907,TROUSERS,TRUE,,,,,,,77,pantalon,Spanish,Sounds/spa_pantalon.mp3,2020-06-11_10h31.05.948,TranslationElicitation_eng-prolific,3.2.4,Win32,60,5e3878bdb7fe58049b837ea9,,1,0,98,72,1,97
,,,,,,,,,,,,,,,,,,,,,,,,,,,,,,,,,,,,,,,,,return,3.480000019,TROUSERS,TRUE,,,,,,,77,pantalon,Spanish,Sounds/spa_pantalon.mp3,2020-06-11_10h31.05.948,TranslationElicitation_eng-prolific,3.2.4,Win32,60,5e3878bdb7fe58049b837ea9,3.480000019,1,0,98,72,1,97
,,,,,,,,,,,,,,,,,,,,,,,,,,,,,,,,,,,,,,,,,,,,,,,,,,,77,pantalon,Spanish,Sounds/spa_pantalon.mp3,2020-06-11_10h31.05.948,TranslationElicitation_eng-prolific,3.2.4,Win32,60,5e3878bdb7fe58049b837ea9,,1,0,98,72,1,97
,,,,,,,,,,,,,,,,,,,,,,,,,,,,,,,,,,,,,,,,,h,1.928999901,H,FALSE,,,,,,,82,perro,Spanish,Sounds/spa_perro.mp3,2020-06-11_10h31.05.948,TranslationElicitation_eng-prolific,3.2.4,Win32,60,5e3878bdb7fe58049b837ea9,,1,0,98,77,1,97
,,,,,,,,,,,,,,,,,,,,,,,,,,,,,,,,,,,,,,,,,a,2.030999899,HA,FALSE,,,,,,,82,perro,Spanish,Sounds/spa_perro.mp3,2020-06-11_10h31.05.948,TranslationElicitation_eng-prolific,3.2.4,Win32,60,5e3878bdb7fe58049b837ea9,,1,0,98,77,1,97
,,,,,,,,,,,,,,,,,,,,,,,,,,,,,,,,,,,,,,,,,t,2.172999859,HAT,FALSE,,,,,,,82,perro,Spanish,Sounds/spa_perro.mp3,2020-06-11_10h31.05.948,TranslationElicitation_eng-prolific,3.2.4,Win32,60,5e3878bdb7fe58049b837ea9,,1,0,98,77,1,97
,,,,,,,,,,,,,,,,,,,,,,,,,,,,,,,,,,,,,,,,,return,2.636999846,HAT,FALSE,,,,,,,82,perro,Spanish,Sounds/spa_perro.mp3,2020-06-11_10h31.05.948,TranslationElicitation_eng-prolific,3.2.4,Win32,60,5e3878bdb7fe58049b837ea9,2.636999846,1,0,98,77,1,97
,,,,,,,,,,,,,,,,,,,,,,,,,,,,,,,,,,,,,,,,,,,,,,,,,,,82,perro,Spanish,Sounds/spa_perro.mp3,2020-06-11_10h31.05.948,TranslationElicitation_eng-prolific,3.2.4,Win32,60,5e3878bdb7fe58049b837ea9,,1,0,98,77,1,97
,,,,,,,,,,,,,,,,,,,,,,,,,,,,,,,,,,,,,,,,,t,2.155999899,T,FALSE,,,,,,,14,burro,Spanish,Sounds/spa_burro.mp3,2020-06-11_10h31.05.948,TranslationElicitation_eng-prolific,3.2.4,Win32,60,5e3878bdb7fe58049b837ea9,,1,0,98,12,1,97
,,,,,,,,,,,,,,,,,,,,,,,,,,,,,,,,,,,,,,,,,a,2.256000042,TA,FALSE,,,,,,,14,burro,Spanish,Sounds/spa_burro.mp3,2020-06-11_10h31.05.948,TranslationElicitation_eng-prolific,3.2.4,Win32,60,5e3878bdb7fe58049b837ea9,,1,0,98,12,1,97
,,,,,,,,,,,,,,,,,,,,,,,,,,,,,,,,,,,,,,,,,b,2.279999971,TAB,FALSE,,,,,,,14,burro,Spanish,Sounds/spa_burro.mp3,2020-06-11_10h31.05.948,TranslationElicitation_eng-prolific,3.2.4,Win32,60,5e3878bdb7fe58049b837ea9,,1,0,98,12,1,97
,,,,,,,,,,,,,,,,,,,,,,,,,,,,,,,,,,,,,,,,,l,3.036999941,TABL,FALSE,,,,,,,14,burro,Spanish,Sounds/spa_burro.mp3,2020-06-11_10h31.05.948,TranslationElicitation_eng-prolific,3.2.4,Win32,60,5e3878bdb7fe58049b837ea9,,1,0,98,12,1,97
,,,,,,,,,,,,,,,,,,,,,,,,,,,,,,,,,,,,,,,,,e,3.121999979,TABLE,FALSE,,,,,,,14,burro,Spanish,Sounds/spa_burro.mp3,2020-06-11_10h31.05.948,TranslationElicitation_eng-prolific,3.2.4,Win32,60,5e3878bdb7fe58049b837ea9,,1,0,98,12,1,97
,,,,,,,,,,,,,,,,,,,,,,,,,,,,,,,,,,,,,,,,,backspace,3.861000061,TABL,TRUE,,,,,,,14,burro,Spanish,Sounds/spa_burro.mp3,2020-06-11_10h31.05.948,TranslationElicitation_eng-prolific,3.2.4,Win32,60,5e3878bdb7fe58049b837ea9,,1,0,98,12,1,97
,,,,,,,,,,,,,,,,,,,,,,,,,,,,,,,,,,,,,,,,,backspace,4.030999899,TAB,TRUE,,,,,,,14,burro,Spanish,Sounds/spa_burro.mp3,2020-06-11_10h31.05.948,TranslationElicitation_eng-prolific,3.2.4,Win32,60,5e3878bdb7fe58049b837ea9,,1,0,98,12,1,97
,,,,,,,,,,,,,,,,,,,,,,,,,,,,,,,,,,,,,,,,,backspace,4.214999914,TA,TRUE,,,,,,,14,burro,Spanish,Sounds/spa_burro.mp3,2020-06-11_10h31.05.948,TranslationElicitation_eng-prolific,3.2.4,Win32,60,5e3878bdb7fe58049b837ea9,,1,0,98,12,1,97
,,,,,,,,,,,,,,,,,,,,,,,,,,,,,,,,,,,,,,,,,backspace,4.366999865,T,TRUE,,,,,,,14,burro,Spanish,Sounds/spa_burro.mp3,2020-06-11_10h31.05.948,TranslationElicitation_eng-prolific,3.2.4,Win32,60,5e3878bdb7fe58049b837ea9,,1,0,98,12,1,97
,,,,,,,,,,,,,,,,,,,,,,,,,,,,,,,,,,,,,,,,,backspace,4.631000042,,TRUE,,,,,,,14,burro,Spanish,Sounds/spa_burro.mp3,2020-06-11_10h31.05.948,TranslationElicitation_eng-prolific,3.2.4,Win32,60,5e3878bdb7fe58049b837ea9,,1,0,98,12,1,97
,,,,,,,,,,,,,,,,,,,,,,,,,,,,,,,,,,,,,,,,,o,5,O,TRUE,,,,,,,14,burro,Spanish,Sounds/spa_burro.mp3,2020-06-11_10h31.05.948,TranslationElicitation_eng-prolific,3.2.4,Win32,60,5e3878bdb7fe58049b837ea9,,1,0,98,12,1,97
,,,,,,,,,,,,,,,,,,,,,,,,,,,,,,,,,,,,,,,,,f,5.191999912,OF,TRUE,,,,,,,14,burro,Spanish,Sounds/spa_burro.mp3,2020-06-11_10h31.05.948,TranslationElicitation_eng-prolific,3.2.4,Win32,60,5e3878bdb7fe58049b837ea9,,1,0,98,12,1,97
,,,,,,,,,,,,,,,,,,,,,,,,,,,,,,,,,,,,,,,,,f,5.359999895,OFF,TRUE,,,,,,,14,burro,Spanish,Sounds/spa_burro.mp3,2020-06-11_10h31.05.948,TranslationElicitation_eng-prolific,3.2.4,Win32,60,5e3878bdb7fe58049b837ea9,,1,0,98,12,1,97
,,,,,,,,,,,,,,,,,,,,,,,,,,,,,,,,,,,,,,,,,i,5.513000011,OFFI,TRUE,,,,,,,14,burro,Spanish,Sounds/spa_burro.mp3,2020-06-11_10h31.05.948,TranslationElicitation_eng-prolific,3.2.4,Win32,60,5e3878bdb7fe58049b837ea9,,1,0,98,12,1,97
,,,,,,,,,,,,,,,,,,,,,,,,,,,,,,,,,,,,,,,,,c,5.573999882,OFFIC,TRUE,,,,,,,14,burro,Spanish,Sounds/spa_burro.mp3,2020-06-11_10h31.05.948,TranslationElicitation_eng-prolific,3.2.4,Win32,60,5e3878bdb7fe58049b837ea9,,1,0,98,12,1,97
,,,,,,,,,,,,,,,,,,,,,,,,,,,,,,,,,,,,,,,,,e,5.678999901,OFFICE,TRUE,,,,,,,14,burro,Spanish,Sounds/spa_burro.mp3,2020-06-11_10h31.05.948,TranslationElicitation_eng-prolific,3.2.4,Win32,60,5e3878bdb7fe58049b837ea9,,1,0,98,12,1,97
,,,,,,,,,,,,,,,,,,,,,,,,,,,,,,,,,,,,,,,,,return,5.85800004,OFFICE,TRUE,,,,,,,14,burro,Spanish,Sounds/spa_burro.mp3,2020-06-11_10h31.05.948,TranslationElicitation_eng-prolific,3.2.4,Win32,60,5e3878bdb7fe58049b837ea9,5.85800004,1,0,98,12,1,97
,,,,,,,,,,,,,,,,,,,,,,,,,,,,,,,,,,,,,,,,,,,,,,,,,,,14,burro,Spanish,Sounds/spa_burro.mp3,2020-06-11_10h31.05.948,TranslationElicitation_eng-prolific,3.2.4,Win32,60,5e3878bdb7fe58049b837ea9,,1,0,98,12,1,97
,,,,,,,,,,,,,,,,,,,,,,,,,,,,,,,,,,,,,,,,,t,5.128999949,T,FALSE,,,,,,,40,galleta,Spanish,Sounds/spa_galleta.mp3,2020-06-11_10h31.05.948,TranslationElicitation_eng-prolific,3.2.4,Win32,60,5e3878bdb7fe58049b837ea9,,1,0,98,36,1,97
,,,,,,,,,,,,,,,,,,,,,,,,,,,,,,,,,,,,,,,,,r,5.34800005,TR,FALSE,,,,,,,40,galleta,Spanish,Sounds/spa_galleta.mp3,2020-06-11_10h31.05.948,TranslationElicitation_eng-prolific,3.2.4,Win32,60,5e3878bdb7fe58049b837ea9,,1,0,98,36,1,97
,,,,,,,,,,,,,,,,,,,,,,,,,,,,,,,,,,,,,,,,,a,5.440999985,TRA,FALSE,,,,,,,40,galleta,Spanish,Sounds/spa_galleta.mp3,2020-06-11_10h31.05.948,TranslationElicitation_eng-prolific,3.2.4,Win32,60,5e3878bdb7fe58049b837ea9,,1,0,98,36,1,97
,,,,,,,,,,,,,,,,,,,,,,,,,,,,,,,,,,,,,,,,,m,5.519000053,TRAM,FALSE,,,,,,,40,galleta,Spanish,Sounds/spa_galleta.mp3,2020-06-11_10h31.05.948,TranslationElicitation_eng-prolific,3.2.4,Win32,60,5e3878bdb7fe58049b837ea9,,1,0,98,36,1,97
,,,,,,,,,,,,,,,,,,,,,,,,,,,,,,,,,,,,,,,,,return,5.740999937,TRAM,FALSE,,,,,,,40,galleta,Spanish,Sounds/spa_galleta.mp3,2020-06-11_10h31.05.948,TranslationElicitation_eng-prolific,3.2.4,Win32,60,5e3878bdb7fe58049b837ea9,5.740999937,1,0,98,36,1,97
,,,,,,,,,,,,,,,,,,,,,,,,,,,,,,,,,,,,,,,,,,,,,,,,,,,40,galleta,Spanish,Sounds/spa_galleta.mp3,2020-06-11_10h31.05.948,TranslationElicitation_eng-prolific,3.2.4,Win32,60,5e3878bdb7fe58049b837ea9,,1,0,98,36,1,97
,,,,,,,,,,,,,,,,,,,,,,,,,,,,,,,,,,,,,,,,,g,1.987999916,G,FALSE,,,,,,,46,grifo,Spanish,Sounds/spa_grifo.mp3,2020-06-11_10h31.05.948,TranslationElicitation_eng-prolific,3.2.4,Win32,60,5e3878bdb7fe58049b837ea9,,1,0,98,42,1,97
,,,,,,,,,,,,,,,,,,,,,,,,,,,,,,,,,,,,,,,,,r,2.05099988,GR,FALSE,,,,,,,46,grifo,Spanish,Sounds/spa_grifo.mp3,2020-06-11_10h31.05.948,TranslationElicitation_eng-prolific,3.2.4,Win32,60,5e3878bdb7fe58049b837ea9,,1,0,98,42,1,97
,,,,,,,,,,,,,,,,,,,,,,,,,,,,,,,,,,,,,,,,,e,2.098999977,GRE,FALSE,,,,,,,46,grifo,Spanish,Sounds/spa_grifo.mp3,2020-06-11_10h31.05.948,TranslationElicitation_eng-prolific,3.2.4,Win32,60,5e3878bdb7fe58049b837ea9,,1,0,98,42,1,97
,,,,,,,,,,,,,,,,,,,,,,,,,,,,,,,,,,,,,,,,,y,2.212999821,GREY,FALSE,,,,,,,46,grifo,Spanish,Sounds/spa_grifo.mp3,2020-06-11_10h31.05.948,TranslationElicitation_eng-prolific,3.2.4,Win32,60,5e3878bdb7fe58049b837ea9,,1,0,98,42,1,97
,,,,,,,,,,,,,,,,,,,,,,,,,,,,,,,,,,,,,,,,,return,2.483999968,GREY,FALSE,,,,,,,46,grifo,Spanish,Sounds/spa_grifo.mp3,2020-06-11_10h31.05.948,TranslationElicitation_eng-prolific,3.2.4,Win32,60,5e3878bdb7fe58049b837ea9,2.483999968,1,0,98,42,1,97
,,,,,,,,,,,,,,,,,,,,,,,,,,,,,,,,,,,,,,,,,,,,,,,,,,,46,grifo,Spanish,Sounds/spa_grifo.mp3,2020-06-11_10h31.05.948,TranslationElicitation_eng-prolific,3.2.4,Win32,60,5e3878bdb7fe58049b837ea9,,1,0,98,42,1,97
,,,,,,,,,,,,,,,,,,,,,,,,,,,,,,,,,,,,,,,,,n,1.683999777,N,FALSE,,,,,,,86,pingino,Spanish,Sounds/spa_pinguino.mp3,2020-06-11_10h31.05.948,TranslationElicitation_eng-prolific,3.2.4,Win32,60,5e3878bdb7fe58049b837ea9,,1,0,98,81,1,97
,,,,,,,,,,,,,,,,,,,,,,,,,,,,,,,,,,,,,,,,,g,1.902999878,NG,FALSE,,,,,,,86,pingino,Spanish,Sounds/spa_pinguino.mp3,2020-06-11_10h31.05.948,TranslationElicitation_eng-prolific,3.2.4,Win32,60,5e3878bdb7fe58049b837ea9,,1,0,98,81,1,97
,,,,,,,,,,,,,,,,,,,,,,,,,,,,,,,,,,,,,,,,,u,2.5849998,NGU,FALSE,,,,,,,86,pingino,Spanish,Sounds/spa_pinguino.mp3,2020-06-11_10h31.05.948,TranslationElicitation_eng-prolific,3.2.4,Win32,60,5e3878bdb7fe58049b837ea9,,1,0,98,81,1,97
,,,,,,,,,,,,,,,,,,,,,,,,,,,,,,,,,,,,,,,,,i,2.66899991,NGUI,FALSE,,,,,,,86,pingino,Spanish,Sounds/spa_pinguino.mp3,2020-06-11_10h31.05.948,TranslationElicitation_eng-prolific,3.2.4,Win32,60,5e3878bdb7fe58049b837ea9,,1,0,98,81,1,97
,,,,,,,,,,,,,,,,,,,,,,,,,,,,,,,,,,,,,,,,,backspace,3.047999859,NGU,TRUE,,,,,,,86,pingino,Spanish,Sounds/spa_pinguino.mp3,2020-06-11_10h31.05.948,TranslationElicitation_eng-prolific,3.2.4,Win32,60,5e3878bdb7fe58049b837ea9,,1,0,98,81,1,97
,,,,,,,,,,,,,,,,,,,,,,,,,,,,,,,,,,,,,,,,,backspace,3.14199996,NG,TRUE,,,,,,,86,pingino,Spanish,Sounds/spa_pinguino.mp3,2020-06-11_10h31.05.948,TranslationElicitation_eng-prolific,3.2.4,Win32,60,5e3878bdb7fe58049b837ea9,,1,0,98,81,1,97
,,,,,,,,,,,,,,,,,,,,,,,,,,,,,,,,,,,,,,,,,backspace,3.236999989,N,TRUE,,,,,,,86,pingino,Spanish,Sounds/spa_pinguino.mp3,2020-06-11_10h31.05.948,TranslationElicitation_eng-prolific,3.2.4,Win32,60,5e3878bdb7fe58049b837ea9,,1,0,98,81,1,97
,,,,,,,,,,,,,,,,,,,,,,,,,,,,,,,,,,,,,,,,,backspace,3.322999954,,TRUE,,,,,,,86,pingino,Spanish,Sounds/spa_pinguino.mp3,2020-06-11_10h31.05.948,TranslationElicitation_eng-prolific,3.2.4,Win32,60,5e3878bdb7fe58049b837ea9,,1,0,98,81,1,97
,,,,,,,,,,,,,,,,,,,,,,,,,,,,,,,,,,,,,,,,,backspace,3.407999992,,TRUE,,,,,,,86,pingino,Spanish,Sounds/spa_pinguino.mp3,2020-06-11_10h31.05.948,TranslationElicitation_eng-prolific,3.2.4,Win32,60,5e3878bdb7fe58049b837ea9,,1,0,98,81,1,97
,,,,,,,,,,,,,,,,,,,,,,,,,,,,,,,,,,,,,,,,,backspace,3.481999874,,TRUE,,,,,,,86,pingino,Spanish,Sounds/spa_pinguino.mp3,2020-06-11_10h31.05.948,TranslationElicitation_eng-prolific,3.2.4,Win32,60,5e3878bdb7fe58049b837ea9,,1,0,98,81,1,97
,,,,,,,,,,,,,,,,,,,,,,,,,,,,,,,,,,,,,,,,,p,3.875,P,TRUE,,,,,,,86,pingino,Spanish,Sounds/spa_pinguino.mp3,2020-06-11_10h31.05.948,TranslationElicitation_eng-prolific,3.2.4,Win32,60,5e3878bdb7fe58049b837ea9,,1,0,98,81,1,97
,,,,,,,,,,,,,,,,,,,,,,,,,,,,,,,,,,,,,,,,,e,4.017999887,PE,TRUE,,,,,,,86,pingino,Spanish,Sounds/spa_pinguino.mp3,2020-06-11_10h31.05.948,TranslationElicitation_eng-prolific,3.2.4,Win32,60,5e3878bdb7fe58049b837ea9,,1,0,98,81,1,97
,,,,,,,,,,,,,,,,,,,,,,,,,,,,,,,,,,,,,,,,,n,4.14199996,PEN,TRUE,,,,,,,86,pingino,Spanish,Sounds/spa_pinguino.mp3,2020-06-11_10h31.05.948,TranslationElicitation_eng-prolific,3.2.4,Win32,60,5e3878bdb7fe58049b837ea9,,1,0,98,81,1,97
,,,,,,,,,,,,,,,,,,,,,,,,,,,,,,,,,,,,,,,,,u,4.849999905,PENU,TRUE,,,,,,,86,pingino,Spanish,Sounds/spa_pinguino.mp3,2020-06-11_10h31.05.948,TranslationElicitation_eng-prolific,3.2.4,Win32,60,5e3878bdb7fe58049b837ea9,,1,0,98,81,1,97
,,,,,,,,,,,,,,,,,,,,,,,,,,,,,,,,,,,,,,,,,backspace,5.309999943,PEN,TRUE,,,,,,,86,pingino,Spanish,Sounds/spa_pinguino.mp3,2020-06-11_10h31.05.948,TranslationElicitation_eng-prolific,3.2.4,Win32,60,5e3878bdb7fe58049b837ea9,,1,0,98,81,1,97
,,,,,,,,,,,,,,,,,,,,,,,,,,,,,,,,,,,,,,,,,g,5.739999771,PENG,TRUE,,,,,,,86,pingino,Spanish,Sounds/spa_pinguino.mp3,2020-06-11_10h31.05.948,TranslationElicitation_eng-prolific,3.2.4,Win32,60,5e3878bdb7fe58049b837ea9,,1,0,98,81,1,97
,,,,,,,,,,,,,,,,,,,,,,,,,,,,,,,,,,,,,,,,,u,5.837999821,PENGU,TRUE,,,,,,,86,pingino,Spanish,Sounds/spa_pinguino.mp3,2020-06-11_10h31.05.948,TranslationElicitation_eng-prolific,3.2.4,Win32,60,5e3878bdb7fe58049b837ea9,,1,0,98,81,1,97
,,,,,,,,,,,,,,,,,,,,,,,,,,,,,,,,,,,,,,,,,i,5.94299984,PENGUI,TRUE,,,,,,,86,pingino,Spanish,Sounds/spa_pinguino.mp3,2020-06-11_10h31.05.948,TranslationElicitation_eng-prolific,3.2.4,Win32,60,5e3878bdb7fe58049b837ea9,,1,0,98,81,1,97
,,,,,,,,,,,,,,,,,,,,,,,,,,,,,,,,,,,,,,,,,space,6.165999889,PENGUI ,TRUE,,,,,,,86,pingino,Spanish,Sounds/spa_pinguino.mp3,2020-06-11_10h31.05.948,TranslationElicitation_eng-prolific,3.2.4,Win32,60,5e3878bdb7fe58049b837ea9,,1,0,98,81,1,97
,,,,,,,,,,,,,,,,,,,,,,,,,,,,,,,,,,,,,,,,,n,6.927999973,PENGUI N,TRUE,,,,,,,86,pingino,Spanish,Sounds/spa_pinguino.mp3,2020-06-11_10h31.05.948,TranslationElicitation_eng-prolific,3.2.4,Win32,60,5e3878bdb7fe58049b837ea9,,1,0,98,81,1,97
,,,,,,,,,,,,,,,,,,,,,,,,,,,,,,,,,,,,,,,,,backspace,7.461999893,PENGUI ,TRUE,,,,,,,86,pingino,Spanish,Sounds/spa_pinguino.mp3,2020-06-11_10h31.05.948,TranslationElicitation_eng-prolific,3.2.4,Win32,60,5e3878bdb7fe58049b837ea9,,1,0,98,81,1,97
,,,,,,,,,,,,,,,,,,,,,,,,,,,,,,,,,,,,,,,,,backspace,7.590999842,PENGUI,TRUE,,,,,,,86,pingino,Spanish,Sounds/spa_pinguino.mp3,2020-06-11_10h31.05.948,TranslationElicitation_eng-prolific,3.2.4,Win32,60,5e3878bdb7fe58049b837ea9,,1,0,98,81,1,97
,,,,,,,,,,,,,,,,,,,,,,,,,,,,,,,,,,,,,,,,,n,7.670999765,PENGUIN,TRUE,,,,,,,86,pingino,Spanish,Sounds/spa_pinguino.mp3,2020-06-11_10h31.05.948,TranslationElicitation_eng-prolific,3.2.4,Win32,60,5e3878bdb7fe58049b837ea9,,1,0,98,81,1,97
,,,,,,,,,,,,,,,,,,,,,,,,,,,,,,,,,,,,,,,,,return,7.946999788,PENGUIN,TRUE,,,,,,,86,pingino,Spanish,Sounds/spa_pinguino.mp3,2020-06-11_10h31.05.948,TranslationElicitation_eng-prolific,3.2.4,Win32,60,5e3878bdb7fe58049b837ea9,7.946999788,1,0,98,81,1,97
,,,,,,,,,,,,,,,,,,,,,,,,,,,,,,,,,,,,,,,,,,,,,,,,,,,86,pingino,Spanish,Sounds/spa_pinguino.mp3,2020-06-11_10h31.05.948,TranslationElicitation_eng-prolific,3.2.4,Win32,60,5e3878bdb7fe58049b837ea9,,1,0,98,81,1,97
,,,,,,,,,,,,,,,,,,,,,,,,,,,,,,,,,,,,,,,,,o,1.375999928,O,FALSE,,,,,,,90,pollo,Spanish,Sounds/spa_pollo.mp3,2020-06-11_10h31.05.948,TranslationElicitation_eng-prolific,3.2.4,Win32,60,5e3878bdb7fe58049b837ea9,,1,0,98,85,1,97
,,,,,,,,,,,,,,,,,,,,,,,,,,,,,,,,,,,,,,,,,s,1.447999954,OS,FALSE,,,,,,,90,pollo,Spanish,Sounds/spa_pollo.mp3,2020-06-11_10h31.05.948,TranslationElicitation_eng-prolific,3.2.4,Win32,60,5e3878bdb7fe58049b837ea9,,1,0,98,85,1,97
,,,,,,,,,,,,,,,,,,,,,,,,,,,,,,,,,,,,,,,,,t,1.661999941,OST,FALSE,,,,,,,90,pollo,Spanish,Sounds/spa_pollo.mp3,2020-06-11_10h31.05.948,TranslationElicitation_eng-prolific,3.2.4,Win32,60,5e3878bdb7fe58049b837ea9,,1,0,98,85,1,97
,,,,,,,,,,,,,,,,,,,,,,,,,,,,,,,,,,,,,,,,,return,1.754999876,OST,FALSE,,,,,,,90,pollo,Spanish,Sounds/spa_pollo.mp3,2020-06-11_10h31.05.948,TranslationElicitation_eng-prolific,3.2.4,Win32,60,5e3878bdb7fe58049b837ea9,1.754999876,1,0,98,85,1,97
,,,,,,,,,,,,,,,,,,,,,,,,,,,,,,,,,,,,,,,,,,,,,,,,,,,90,pollo,Spanish,Sounds/spa_pollo.mp3,2020-06-11_10h31.05.948,TranslationElicitation_eng-prolific,3.2.4,Win32,60,5e3878bdb7fe58049b837ea9,,1,0,98,85,1,97
,,,,,,,,,,,,,,,,,,,,,,,,,,,,,,,,,,,,,,,,,c,4.463999987,C,FALSE,,,,,,,17,calcetin,Spanish,Sounds/spa_calcetin.mp3,2020-06-11_10h31.05.948,TranslationElicitation_eng-prolific,3.2.4,Win32,60,5e3878bdb7fe58049b837ea9,,1,0,98,15,1,97
,,,,,,,,,,,,,,,,,,,,,,,,,,,,,,,,,,,,,,,,,a,4.596999884,CA,FALSE,,,,,,,17,calcetin,Spanish,Sounds/spa_calcetin.mp3,2020-06-11_10h31.05.948,TranslationElicitation_eng-prolific,3.2.4,Win32,60,5e3878bdb7fe58049b837ea9,,1,0,98,15,1,97
,,,,,,,,,,,,,,,,,,,,,,,,,,,,,,,,,,,,,,,,,r,4.875999928,CAR,FALSE,,,,,,,17,calcetin,Spanish,Sounds/spa_calcetin.mp3,2020-06-11_10h31.05.948,TranslationElicitation_eng-prolific,3.2.4,Win32,60,5e3878bdb7fe58049b837ea9,,1,0,98,15,1,97
,,,,,,,,,,,,,,,,,,,,,,,,,,,,,,,,,,,,,,,,,backspace,6.652999878,CA,TRUE,,,,,,,17,calcetin,Spanish,Sounds/spa_calcetin.mp3,2020-06-11_10h31.05.948,TranslationElicitation_eng-prolific,3.2.4,Win32,60,5e3878bdb7fe58049b837ea9,,1,0,98,15,1,97
,,,,,,,,,,,,,,,,,,,,,,,,,,,,,,,,,,,,,,,,,backspace,6.874000072,C,TRUE,,,,,,,17,calcetin,Spanish,Sounds/spa_calcetin.mp3,2020-06-11_10h31.05.948,TranslationElicitation_eng-prolific,3.2.4,Win32,60,5e3878bdb7fe58049b837ea9,,1,0,98,15,1,97
,,,,,,,,,,,,,,,,,,,,,,,,,,,,,,,,,,,,,,,,,backspace,7.078999996,,TRUE,,,,,,,17,calcetin,Spanish,Sounds/spa_calcetin.mp3,2020-06-11_10h31.05.948,TranslationElicitation_eng-prolific,3.2.4,Win32,60,5e3878bdb7fe58049b837ea9,,1,0,98,15,1,97
,,,,,,,,,,,,,,,,,,,,,,,,,,,,,,,,,,,,,,,,,backspace,7.243999958,,TRUE,,,,,,,17,calcetin,Spanish,Sounds/spa_calcetin.mp3,2020-06-11_10h31.05.948,TranslationElicitation_eng-prolific,3.2.4,Win32,60,5e3878bdb7fe58049b837ea9,,1,0,98,15,1,97
,,,,,,,,,,,,,,,,,,,,,,,,,,,,,,,,,,,,,,,,,backspace,7.438999891,,TRUE,,,,,,,17,calcetin,Spanish,Sounds/spa_calcetin.mp3,2020-06-11_10h31.05.948,TranslationElicitation_eng-prolific,3.2.4,Win32,60,5e3878bdb7fe58049b837ea9,,1,0,98,15,1,97
,,,,,,,,,,,,,,,,,,,,,,,,,,,,,,,,,,,,,,,,,backspace,7.622999907,,TRUE,,,,,,,17,calcetin,Spanish,Sounds/spa_calcetin.mp3,2020-06-11_10h31.05.948,TranslationElicitation_eng-prolific,3.2.4,Win32,60,5e3878bdb7fe58049b837ea9,,1,0,98,15,1,97
,,,,,,,,,,,,,,,,,,,,,,,,,,,,,,,,,,,,,,,,,backspace,7.816999912,,TRUE,,,,,,,17,calcetin,Spanish,Sounds/spa_calcetin.mp3,2020-06-11_10h31.05.948,TranslationElicitation_eng-prolific,3.2.4,Win32,60,5e3878bdb7fe58049b837ea9,,1,0,98,15,1,97
,,,,,,,,,,,,,,,,,,,,,,,,,,,,,,,,,,,,,,,,,c,8.940999985,C,TRUE,,,,,,,17,calcetin,Spanish,Sounds/spa_calcetin.mp3,2020-06-11_10h31.05.948,TranslationElicitation_eng-prolific,3.2.4,Win32,60,5e3878bdb7fe58049b837ea9,,1,0,98,15,1,97
,,,,,,,,,,,,,,,,,,,,,,,,,,,,,,,,,,,,,,,,,a,9.062999964,CA,TRUE,,,,,,,17,calcetin,Spanish,Sounds/spa_calcetin.mp3,2020-06-11_10h31.05.948,TranslationElicitation_eng-prolific,3.2.4,Win32,60,5e3878bdb7fe58049b837ea9,,1,0,98,15,1,97
,,,,,,,,,,,,,,,,,,,,,,,,,,,,,,,,,,,,,,,,,r,9.28399992,CAR,TRUE,,,,,,,17,calcetin,Spanish,Sounds/spa_calcetin.mp3,2020-06-11_10h31.05.948,TranslationElicitation_eng-prolific,3.2.4,Win32,60,5e3878bdb7fe58049b837ea9,,1,0,98,15,1,97
,,,,,,,,,,,,,,,,,,,,,,,,,,,,,,,,,,,,,,,,,t,9.500999928,CART,TRUE,,,,,,,17,calcetin,Spanish,Sounds/spa_calcetin.mp3,2020-06-11_10h31.05.948,TranslationElicitation_eng-prolific,3.2.4,Win32,60,5e3878bdb7fe58049b837ea9,,1,0,98,15,1,97
,,,,,,,,,,,,,,,,,,,,,,,,,,,,,,,,,,,,,,,,,h,9.585999966,CARTH,TRUE,,,,,,,17,calcetin,Spanish,Sounds/spa_calcetin.mp3,2020-06-11_10h31.05.948,TranslationElicitation_eng-prolific,3.2.4,Win32,60,5e3878bdb7fe58049b837ea9,,1,0,98,15,1,97
,,,,,,,,,,,,,,,,,,,,,,,,,,,,,,,,,,,,,,,,,o,9.832999945,CARTHO,TRUE,,,,,,,17,calcetin,Spanish,Sounds/spa_calcetin.mp3,2020-06-11_10h31.05.948,TranslationElicitation_eng-prolific,3.2.4,Win32,60,5e3878bdb7fe58049b837ea9,,1,0,98,15,1,97
,,,,,,,,,,,,,,,,,,,,,,,,,,,,,,,,,,,,,,,,,g,10.1500001,CARTHOG,TRUE,,,,,,,17,calcetin,Spanish,Sounds/spa_calcetin.mp3,2020-06-11_10h31.05.948,TranslationElicitation_eng-prolific,3.2.4,Win32,60,5e3878bdb7fe58049b837ea9,,1,0,98,15,1,97
,,,,,,,,,,,,,,,,,,,,,,,,,,,,,,,,,,,,,,,,,i,10.22900009,CARTHOGI,TRUE,,,,,,,17,calcetin,Spanish,Sounds/spa_calcetin.mp3,2020-06-11_10h31.05.948,TranslationElicitation_eng-prolific,3.2.4,Win32,60,5e3878bdb7fe58049b837ea9,,1,0,98,15,1,97
,,,,,,,,,,,,,,,,,,,,,,,,,,,,,,,,,,,,,,,,,n,10.421,CARTHOGIN,TRUE,,,,,,,17,calcetin,Spanish,Sounds/spa_calcetin.mp3,2020-06-11_10h31.05.948,TranslationElicitation_eng-prolific,3.2.4,Win32,60,5e3878bdb7fe58049b837ea9,,1,0,98,15,1,97
,,,,,,,,,,,,,,,,,,,,,,,,,,,,,,,,,,,,,,,,,s,10.45499992,CARTHOGINS,TRUE,,,,,,,17,calcetin,Spanish,Sounds/spa_calcetin.mp3,2020-06-11_10h31.05.948,TranslationElicitation_eng-prolific,3.2.4,Win32,60,5e3878bdb7fe58049b837ea9,,1,0,98,15,1,97
,,,,,,,,,,,,,,,,,,,,,,,,,,,,,,,,,,,,,,,,,backspace,12.49600005,CARTHOGIN,TRUE,,,,,,,17,calcetin,Spanish,Sounds/spa_calcetin.mp3,2020-06-11_10h31.05.948,TranslationElicitation_eng-prolific,3.2.4,Win32,60,5e3878bdb7fe58049b837ea9,,1,0,98,15,1,97
,,,,,,,,,,,,,,,,,,,,,,,,,,,,,,,,,,,,,,,,,backspace,12.71000004,CARTHOGI,TRUE,,,,,,,17,calcetin,Spanish,Sounds/spa_calcetin.mp3,2020-06-11_10h31.05.948,TranslationElicitation_eng-prolific,3.2.4,Win32,60,5e3878bdb7fe58049b837ea9,,1,0,98,15,1,97
,,,,,,,,,,,,,,,,,,,,,,,,,,,,,,,,,,,,,,,,,backspace,12.9230001,CARTHOG,TRUE,,,,,,,17,calcetin,Spanish,Sounds/spa_calcetin.mp3,2020-06-11_10h31.05.948,TranslationElicitation_eng-prolific,3.2.4,Win32,60,5e3878bdb7fe58049b837ea9,,1,0,98,15,1,97
,,,,,,,,,,,,,,,,,,,,,,,,,,,,,,,,,,,,,,,,,e,13.75699997,CARTHOGE,TRUE,,,,,,,17,calcetin,Spanish,Sounds/spa_calcetin.mp3,2020-06-11_10h31.05.948,TranslationElicitation_eng-prolific,3.2.4,Win32,60,5e3878bdb7fe58049b837ea9,,1,0,98,15,1,97
