consentKey.keys,consentKey.rt,languageL1Key.keys,languageL1Key.rt,languageL2,languageL2OralKey.keys,languageL2OralKey.rt,languageL2WrittenKey.keys,languageL2WrittenKey.rt,languageL3OralKey.keys,languageL3OralKey.rt,languageL3WrittenKey.keys,languageL3WrittenKey.rt,languageCatalanOralKey.keys,languageCatalanOralKey.rt,languageCatalanWrittenKey.keys,languageCatalanWrittenKey.rt,languageCatalanTimeKey.keys,languageCatalanTimeKey.rt,languageSpanishOralKey.keys,languageSpanishOralKey.rt,languageSpanishWrittenKey.keys,languageSpanishWrittenKey.rt,languageSpanishTimeKey.keys,languageSpanishTimeKey.rt,age,demoSexKey.keys,demoSexKey.rt,demoEducationKey.keys,demoEducationKey.rt,city,demoVisionKey.keys,demoVisionKey.rt,demoLanguageKey.keys,demoLanguageKey.rt,setupLocationKey.keys,setupLocationKey.rt,setupNoiseKey.keys,setupNoiseKey.rt,instructionsKeys.keys,instructionsKeys.rt,keyPressed,keyPressTime,inputText,error,trialsPracticeSpanish.thisRepN,trialsPracticeSpanish.thisTrialN,trialsPracticeSpanish.thisN,trialsPracticeSpanish.thisIndex,trialsPracticeSpanish.ran,trialsPracticeSpanish.order,trial_id,word,test_language,soundfile,date,expName,psychopyVersion,OS,frameRate,participant,trialOffset,trialsSpanish.thisRepN,trialsSpanish.thisTrialN,trialsSpanish.thisN,trialsSpanish.thisIndex,trialsSpanish.ran,trialsSpanish.order
space,0.477999926,e,2.582999945,,,,,,,,,,1,4.878999949,1,4.801999807,1,3.018999815,1,3.548000097,1,0.983999968,1,0.680999994,24,f,4.884000063,4,4.172999859,MANCHESTER,y,5.127999783,n,4.605999947,1,2.196999788,1,1.73699975,space,11.37199998,j,11.86399984,J,FALSE,1,0,5,2,1,4,26,chaqueta,Spanish,Sounds/spa_chaqueta.mp3,2020-06-04_21h14.10.671,TranslationElicitation_eng-prolific,3.2.4,MacIntel,60,5e52fa4bc6506d30c686471e,,,,,,,
,,,,,,,,,,,,,,,,,,,,,,,,,,,,,,,,,,,,,,,,,a,12.0309999,JA,FALSE,1,0,5,2,1,4,26,chaqueta,Spanish,Sounds/spa_chaqueta.mp3,2020-06-04_21h14.10.671,TranslationElicitation_eng-prolific,3.2.4,MacIntel,60,5e52fa4bc6506d30c686471e,,,,,,,
,,,,,,,,,,,,,,,,,,,,,,,,,,,,,,,,,,,,,,,,,c,12.2329998,JAC,FALSE,1,0,5,2,1,4,26,chaqueta,Spanish,Sounds/spa_chaqueta.mp3,2020-06-04_21h14.10.671,TranslationElicitation_eng-prolific,3.2.4,MacIntel,60,5e52fa4bc6506d30c686471e,,,,,,,
,,,,,,,,,,,,,,,,,,,,,,,,,,,,,,,,,,,,,,,,,k,12.31499982,JACK,FALSE,1,0,5,2,1,4,26,chaqueta,Spanish,Sounds/spa_chaqueta.mp3,2020-06-04_21h14.10.671,TranslationElicitation_eng-prolific,3.2.4,MacIntel,60,5e52fa4bc6506d30c686471e,,,,,,,
,,,,,,,,,,,,,,,,,,,,,,,,,,,,,,,,,,,,,,,,,e,12.43400002,JACKE,FALSE,1,0,5,2,1,4,26,chaqueta,Spanish,Sounds/spa_chaqueta.mp3,2020-06-04_21h14.10.671,TranslationElicitation_eng-prolific,3.2.4,MacIntel,60,5e52fa4bc6506d30c686471e,,,,,,,
,,,,,,,,,,,,,,,,,,,,,,,,,,,,,,,,,,,,,,,,,t,12.56699991,JACKET,FALSE,1,0,5,2,1,4,26,chaqueta,Spanish,Sounds/spa_chaqueta.mp3,2020-06-04_21h14.10.671,TranslationElicitation_eng-prolific,3.2.4,MacIntel,60,5e52fa4bc6506d30c686471e,,,,,,,
,,,,,,,,,,,,,,,,,,,,,,,,,,,,,,,,,,,,,,,,,return,13.26899981,JACKET,FALSE,1,0,5,2,1,4,26,chaqueta,Spanish,Sounds/spa_chaqueta.mp3,2020-06-04_21h14.10.671,TranslationElicitation_eng-prolific,3.2.4,MacIntel,60,5e52fa4bc6506d30c686471e,13.26899981,,,,,,
,,,,,,,,,,,,,,,,,,,,,,,,,,,,,,,,,,,,,,,,,,,,,1,0,5,2,1,4,26,chaqueta,Spanish,Sounds/spa_chaqueta.mp3,2020-06-04_21h14.10.671,TranslationElicitation_eng-prolific,3.2.4,MacIntel,60,5e52fa4bc6506d30c686471e,,,,,,,
,,,,,,,,,,,,,,,,,,,,,,,,,,,,,,,,,,,,,,,,,b,2.407000065,B,FALSE,1,0,5,3,1,4,70,ola,Spanish,Sounds/spa_ola.mp3,2020-06-04_21h14.10.671,TranslationElicitation_eng-prolific,3.2.4,MacIntel,60,5e52fa4bc6506d30c686471e,,,,,,,
,,,,,,,,,,,,,,,,,,,,,,,,,,,,,,,,,,,,,,,,,o,2.523000002,BO,FALSE,1,0,5,3,1,4,70,ola,Spanish,Sounds/spa_ola.mp3,2020-06-04_21h14.10.671,TranslationElicitation_eng-prolific,3.2.4,MacIntel,60,5e52fa4bc6506d30c686471e,,,,,,,
,,,,,,,,,,,,,,,,,,,,,,,,,,,,,,,,,,,,,,,,,y,2.655999899,BOY,FALSE,1,0,5,3,1,4,70,ola,Spanish,Sounds/spa_ola.mp3,2020-06-04_21h14.10.671,TranslationElicitation_eng-prolific,3.2.4,MacIntel,60,5e52fa4bc6506d30c686471e,,,,,,,
,,,,,,,,,,,,,,,,,,,,,,,,,,,,,,,,,,,,,,,,,backspace,5.062999964,BO,TRUE,1,0,5,3,1,4,70,ola,Spanish,Sounds/spa_ola.mp3,2020-06-04_21h14.10.671,TranslationElicitation_eng-prolific,3.2.4,MacIntel,60,5e52fa4bc6506d30c686471e,,,,,,,
,,,,,,,,,,,,,,,,,,,,,,,,,,,,,,,,,,,,,,,,,backspace,5.247999907,B,TRUE,1,0,5,3,1,4,70,ola,Spanish,Sounds/spa_ola.mp3,2020-06-04_21h14.10.671,TranslationElicitation_eng-prolific,3.2.4,MacIntel,60,5e52fa4bc6506d30c686471e,,,,,,,
,,,,,,,,,,,,,,,,,,,,,,,,,,,,,,,,,,,,,,,,,backspace,5.381000042,,TRUE,1,0,5,3,1,4,70,ola,Spanish,Sounds/spa_ola.mp3,2020-06-04_21h14.10.671,TranslationElicitation_eng-prolific,3.2.4,MacIntel,60,5e52fa4bc6506d30c686471e,,,,,,,
,,,,,,,,,,,,,,,,,,,,,,,,,,,,,,,,,,,,,,,,,backspace,5.516000032,,TRUE,1,0,5,3,1,4,70,ola,Spanish,Sounds/spa_ola.mp3,2020-06-04_21h14.10.671,TranslationElicitation_eng-prolific,3.2.4,MacIntel,60,5e52fa4bc6506d30c686471e,,,,,,,
,,,,,,,,,,,,,,,,,,,,,,,,,,,,,,,,,,,,,,,,,h,8.940000057,H,TRUE,1,0,5,3,1,4,70,ola,Spanish,Sounds/spa_ola.mp3,2020-06-04_21h14.10.671,TranslationElicitation_eng-prolific,3.2.4,MacIntel,60,5e52fa4bc6506d30c686471e,,,,,,,
,,,,,,,,,,,,,,,,,,,,,,,,,,,,,,,,,,,,,,,,,i,9.058000088,HI,TRUE,1,0,5,3,1,4,70,ola,Spanish,Sounds/spa_ola.mp3,2020-06-04_21h14.10.671,TranslationElicitation_eng-prolific,3.2.4,MacIntel,60,5e52fa4bc6506d30c686471e,,,,,,,
,,,,,,,,,,,,,,,,,,,,,,,,,,,,,,,,,,,,,,,,,return,9.342000008,HI,TRUE,1,0,5,3,1,4,70,ola,Spanish,Sounds/spa_ola.mp3,2020-06-04_21h14.10.671,TranslationElicitation_eng-prolific,3.2.4,MacIntel,60,5e52fa4bc6506d30c686471e,9.342000008,,,,,,
,,,,,,,,,,,,,,,,,,,,,,,,,,,,,,,,,,,,,,,,,,,,,1,0,5,3,1,4,70,ola,Spanish,Sounds/spa_ola.mp3,2020-06-04_21h14.10.671,TranslationElicitation_eng-prolific,3.2.4,MacIntel,60,5e52fa4bc6506d30c686471e,,,,,,,
,,,,,,,,,,,,,,,,,,,,,,,,,,,,,,,,,,,,,,,,,c,1.552000046,C,FALSE,1,0,5,1,1,4,30,corona,Spanish,Sounds/spa_corona.mp3,2020-06-04_21h14.10.671,TranslationElicitation_eng-prolific,3.2.4,MacIntel,60,5e52fa4bc6506d30c686471e,,,,,,,
,,,,,,,,,,,,,,,,,,,,,,,,,,,,,,,,,,,,,,,,,o,1.686000109,CO,FALSE,1,0,5,1,1,4,30,corona,Spanish,Sounds/spa_corona.mp3,2020-06-04_21h14.10.671,TranslationElicitation_eng-prolific,3.2.4,MacIntel,60,5e52fa4bc6506d30c686471e,,,,,,,
,,,,,,,,,,,,,,,,,,,,,,,,,,,,,,,,,,,,,,,,,r,1.819000006,COR,FALSE,1,0,5,1,1,4,30,corona,Spanish,Sounds/spa_corona.mp3,2020-06-04_21h14.10.671,TranslationElicitation_eng-prolific,3.2.4,MacIntel,60,5e52fa4bc6506d30c686471e,,,,,,,
,,,,,,,,,,,,,,,,,,,,,,,,,,,,,,,,,,,,,,,,,o,1.920000076,CORO,FALSE,1,0,5,1,1,4,30,corona,Spanish,Sounds/spa_corona.mp3,2020-06-04_21h14.10.671,TranslationElicitation_eng-prolific,3.2.4,MacIntel,60,5e52fa4bc6506d30c686471e,,,,,,,
,,,,,,,,,,,,,,,,,,,,,,,,,,,,,,,,,,,,,,,,,n,2.138000011,CORON,FALSE,1,0,5,1,1,4,30,corona,Spanish,Sounds/spa_corona.mp3,2020-06-04_21h14.10.671,TranslationElicitation_eng-prolific,3.2.4,MacIntel,60,5e52fa4bc6506d30c686471e,,,,,,,
,,,,,,,,,,,,,,,,,,,,,,,,,,,,,,,,,,,,,,,,,a,2.203999996,CORONA,FALSE,1,0,5,1,1,4,30,corona,Spanish,Sounds/spa_corona.mp3,2020-06-04_21h14.10.671,TranslationElicitation_eng-prolific,3.2.4,MacIntel,60,5e52fa4bc6506d30c686471e,,,,,,,
,,,,,,,,,,,,,,,,,,,,,,,,,,,,,,,,,,,,,,,,,return,2.503999949,CORONA,FALSE,1,0,5,1,1,4,30,corona,Spanish,Sounds/spa_corona.mp3,2020-06-04_21h14.10.671,TranslationElicitation_eng-prolific,3.2.4,MacIntel,60,5e52fa4bc6506d30c686471e,2.503999949,,,,,,
,,,,,,,,,,,,,,,,,,,,,,,,,,,,,,,,,,,,,,,,,,,,,1,0,5,1,1,4,30,corona,Spanish,Sounds/spa_corona.mp3,2020-06-04_21h14.10.671,TranslationElicitation_eng-prolific,3.2.4,MacIntel,60,5e52fa4bc6506d30c686471e,,,,,,,
,,,,,,,,,,,,,,,,,,,,,,,,,,,,,,,,,,,,,,,,,t,3.006999969,T,FALSE,1,0,5,4,1,4,96,tigre,Spanish,Sounds/spa_tigre.mp3,2020-06-04_21h14.10.671,TranslationElicitation_eng-prolific,3.2.4,MacIntel,60,5e52fa4bc6506d30c686471e,,,,,,,
,,,,,,,,,,,,,,,,,,,,,,,,,,,,,,,,,,,,,,,,,i,3.157000065,TI,FALSE,1,0,5,4,1,4,96,tigre,Spanish,Sounds/spa_tigre.mp3,2020-06-04_21h14.10.671,TranslationElicitation_eng-prolific,3.2.4,MacIntel,60,5e52fa4bc6506d30c686471e,,,,,,,
,,,,,,,,,,,,,,,,,,,,,,,,,,,,,,,,,,,,,,,,,g,3.492000103,TIG,FALSE,1,0,5,4,1,4,96,tigre,Spanish,Sounds/spa_tigre.mp3,2020-06-04_21h14.10.671,TranslationElicitation_eng-prolific,3.2.4,MacIntel,60,5e52fa4bc6506d30c686471e,,,,,,,
,,,,,,,,,,,,,,,,,,,,,,,,,,,,,,,,,,,,,,,,,e,3.657999992,TIGE,FALSE,1,0,5,4,1,4,96,tigre,Spanish,Sounds/spa_tigre.mp3,2020-06-04_21h14.10.671,TranslationElicitation_eng-prolific,3.2.4,MacIntel,60,5e52fa4bc6506d30c686471e,,,,,,,
,,,,,,,,,,,,,,,,,,,,,,,,,,,,,,,,,,,,,,,,,r,3.743000031,TIGER,FALSE,1,0,5,4,1,4,96,tigre,Spanish,Sounds/spa_tigre.mp3,2020-06-04_21h14.10.671,TranslationElicitation_eng-prolific,3.2.4,MacIntel,60,5e52fa4bc6506d30c686471e,,,,,,,
,,,,,,,,,,,,,,,,,,,,,,,,,,,,,,,,,,,,,,,,,return,3.957999945,TIGER,FALSE,1,0,5,4,1,4,96,tigre,Spanish,Sounds/spa_tigre.mp3,2020-06-04_21h14.10.671,TranslationElicitation_eng-prolific,3.2.4,MacIntel,60,5e52fa4bc6506d30c686471e,3.957999945,,,,,,
,,,,,,,,,,,,,,,,,,,,,,,,,,,,,,,,,,,,,,,,,,,,,1,0,5,4,1,4,96,tigre,Spanish,Sounds/spa_tigre.mp3,2020-06-04_21h14.10.671,TranslationElicitation_eng-prolific,3.2.4,MacIntel,60,5e52fa4bc6506d30c686471e,,,,,,,
,,,,,,,,,,,,,,,,,,,,,,,,,,,,,,,,,,,,,,,,,h,3.375,H,FALSE,1,0,5,0,1,4,1,arbol,Spanish,Sounds/spa_arbol.mp3,2020-06-04_21h14.10.671,TranslationElicitation_eng-prolific,3.2.4,MacIntel,60,5e52fa4bc6506d30c686471e,,,,,,,
,,,,,,,,,,,,,,,,,,,,,,,,,,,,,,,,,,,,,,,,,a,3.458999872,HA,FALSE,1,0,5,0,1,4,1,arbol,Spanish,Sounds/spa_arbol.mp3,2020-06-04_21h14.10.671,TranslationElicitation_eng-prolific,3.2.4,MacIntel,60,5e52fa4bc6506d30c686471e,,,,,,,
,,,,,,,,,,,,,,,,,,,,,,,,,,,,,,,,,,,,,,,,,r,3.625999928,HAR,FALSE,1,0,5,0,1,4,1,arbol,Spanish,Sounds/spa_arbol.mp3,2020-06-04_21h14.10.671,TranslationElicitation_eng-prolific,3.2.4,MacIntel,60,5e52fa4bc6506d30c686471e,,,,,,,
,,,,,,,,,,,,,,,,,,,,,,,,,,,,,,,,,,,,,,,,,b,3.826999903,HARB,FALSE,1,0,5,0,1,4,1,arbol,Spanish,Sounds/spa_arbol.mp3,2020-06-04_21h14.10.671,TranslationElicitation_eng-prolific,3.2.4,MacIntel,60,5e52fa4bc6506d30c686471e,,,,,,,
,,,,,,,,,,,,,,,,,,,,,,,,,,,,,,,,,,,,,,,,,o,3.92599988,HARBO,FALSE,1,0,5,0,1,4,1,arbol,Spanish,Sounds/spa_arbol.mp3,2020-06-04_21h14.10.671,TranslationElicitation_eng-prolific,3.2.4,MacIntel,60,5e52fa4bc6506d30c686471e,,,,,,,
,,,,,,,,,,,,,,,,,,,,,,,,,,,,,,,,,,,,,,,,,u,4.108999968,HARBOU,FALSE,1,0,5,0,1,4,1,arbol,Spanish,Sounds/spa_arbol.mp3,2020-06-04_21h14.10.671,TranslationElicitation_eng-prolific,3.2.4,MacIntel,60,5e52fa4bc6506d30c686471e,,,,,,,
,,,,,,,,,,,,,,,,,,,,,,,,,,,,,,,,,,,,,,,,,r,4.243999958,HARBOUR,FALSE,1,0,5,0,1,4,1,arbol,Spanish,Sounds/spa_arbol.mp3,2020-06-04_21h14.10.671,TranslationElicitation_eng-prolific,3.2.4,MacIntel,60,5e52fa4bc6506d30c686471e,,,,,,,
,,,,,,,,,,,,,,,,,,,,,,,,,,,,,,,,,,,,,,,,,return,4.812000036,HARBOUR,FALSE,1,0,5,0,1,4,1,arbol,Spanish,Sounds/spa_arbol.mp3,2020-06-04_21h14.10.671,TranslationElicitation_eng-prolific,3.2.4,MacIntel,60,5e52fa4bc6506d30c686471e,4.812000036,,,,,,
,,,,,,,,,,,,,,,,,,,,,,,,,,,,,,,,,,,,,,,,,,,,,1,0,5,0,1,4,1,arbol,Spanish,Sounds/spa_arbol.mp3,2020-06-04_21h14.10.671,TranslationElicitation_eng-prolific,3.2.4,MacIntel,60,5e52fa4bc6506d30c686471e,,,,,,,
,,,,,,,,,,,,,,,,,,,,,,,,,,,,,,,,,,,,,,,,,s,19.10000014,S,FALSE,,,,,,,35,esponja,Spanish,Sounds/spa_esponja.mp3,2020-06-04_21h14.10.671,TranslationElicitation_eng-prolific,3.2.4,MacIntel,60,5e52fa4bc6506d30c686471e,,1,0,98,31,1,97
,,,,,,,,,,,,,,,,,,,,,,,,,,,,,,,,,,,,,,,,,p,19.20200014,SP,FALSE,,,,,,,35,esponja,Spanish,Sounds/spa_esponja.mp3,2020-06-04_21h14.10.671,TranslationElicitation_eng-prolific,3.2.4,MacIntel,60,5e52fa4bc6506d30c686471e,,1,0,98,31,1,97
,,,,,,,,,,,,,,,,,,,,,,,,,,,,,,,,,,,,,,,,,u,19.4690001,SPU,FALSE,,,,,,,35,esponja,Spanish,Sounds/spa_esponja.mp3,2020-06-04_21h14.10.671,TranslationElicitation_eng-prolific,3.2.4,MacIntel,60,5e52fa4bc6506d30c686471e,,1,0,98,31,1,97
,,,,,,,,,,,,,,,,,,,,,,,,,,,,,,,,,,,,,,,,,n,19.83500004,SPUN,FALSE,,,,,,,35,esponja,Spanish,Sounds/spa_esponja.mp3,2020-06-04_21h14.10.671,TranslationElicitation_eng-prolific,3.2.4,MacIntel,60,5e52fa4bc6506d30c686471e,,1,0,98,31,1,97
,,,,,,,,,,,,,,,,,,,,,,,,,,,,,,,,,,,,,,,,,k,20.03699994,SPUNK,FALSE,,,,,,,35,esponja,Spanish,Sounds/spa_esponja.mp3,2020-06-04_21h14.10.671,TranslationElicitation_eng-prolific,3.2.4,MacIntel,60,5e52fa4bc6506d30c686471e,,1,0,98,31,1,97
,,,,,,,,,,,,,,,,,,,,,,,,,,,,,,,,,,,,,,,,,return,20.30400014,SPUNK,FALSE,,,,,,,35,esponja,Spanish,Sounds/spa_esponja.mp3,2020-06-04_21h14.10.671,TranslationElicitation_eng-prolific,3.2.4,MacIntel,60,5e52fa4bc6506d30c686471e,20.30400014,1,0,98,31,1,97
,,,,,,,,,,,,,,,,,,,,,,,,,,,,,,,,,,,,,,,,,,,,,,,,,,,35,esponja,Spanish,Sounds/spa_esponja.mp3,2020-06-04_21h14.10.671,TranslationElicitation_eng-prolific,3.2.4,MacIntel,60,5e52fa4bc6506d30c686471e,,1,0,98,31,1,97
,,,,,,,,,,,,,,,,,,,,,,,,,,,,,,,,,,,,,,,,,y,8.036999941,Y,FALSE,,,,,,,90,pollo,Spanish,Sounds/spa_pollo.mp3,2020-06-04_21h14.10.671,TranslationElicitation_eng-prolific,3.2.4,MacIntel,60,5e52fa4bc6506d30c686471e,,1,0,98,85,1,97
,,,,,,,,,,,,,,,,,,,,,,,,,,,,,,,,,,,,,,,,,o,8.18599987,YO,FALSE,,,,,,,90,pollo,Spanish,Sounds/spa_pollo.mp3,2020-06-04_21h14.10.671,TranslationElicitation_eng-prolific,3.2.4,MacIntel,60,5e52fa4bc6506d30c686471e,,1,0,98,85,1,97
,,,,,,,,,,,,,,,,,,,,,,,,,,,,,,,,,,,,,,,,,space,8.371000051,YO ,FALSE,,,,,,,90,pollo,Spanish,Sounds/spa_pollo.mp3,2020-06-04_21h14.10.671,TranslationElicitation_eng-prolific,3.2.4,MacIntel,60,5e52fa4bc6506d30c686471e,,1,0,98,85,1,97
,,,,,,,,,,,,,,,,,,,,,,,,,,,,,,,,,,,,,,,,,y,8.572000027,YO Y,FALSE,,,,,,,90,pollo,Spanish,Sounds/spa_pollo.mp3,2020-06-04_21h14.10.671,TranslationElicitation_eng-prolific,3.2.4,MacIntel,60,5e52fa4bc6506d30c686471e,,1,0,98,85,1,97
,,,,,,,,,,,,,,,,,,,,,,,,,,,,,,,,,,,,,,,,,o,8.637000084,YO YO,FALSE,,,,,,,90,pollo,Spanish,Sounds/spa_pollo.mp3,2020-06-04_21h14.10.671,TranslationElicitation_eng-prolific,3.2.4,MacIntel,60,5e52fa4bc6506d30c686471e,,1,0,98,85,1,97
,,,,,,,,,,,,,,,,,,,,,,,,,,,,,,,,,,,,,,,,,space,8.772000074,YO YO ,FALSE,,,,,,,90,pollo,Spanish,Sounds/spa_pollo.mp3,2020-06-04_21h14.10.671,TranslationElicitation_eng-prolific,3.2.4,MacIntel,60,5e52fa4bc6506d30c686471e,,1,0,98,85,1,97
,,,,,,,,,,,,,,,,,,,,,,,,,,,,,,,,,,,,,,,,,return,9.155999899,YO YO ,FALSE,,,,,,,90,pollo,Spanish,Sounds/spa_pollo.mp3,2020-06-04_21h14.10.671,TranslationElicitation_eng-prolific,3.2.4,MacIntel,60,5e52fa4bc6506d30c686471e,9.155999899,1,0,98,85,1,97
,,,,,,,,,,,,,,,,,,,,,,,,,,,,,,,,,,,,,,,,,,,,,,,,,,,90,pollo,Spanish,Sounds/spa_pollo.mp3,2020-06-04_21h14.10.671,TranslationElicitation_eng-prolific,3.2.4,MacIntel,60,5e52fa4bc6506d30c686471e,,1,0,98,85,1,97
,,,,,,,,,,,,,,,,,,,,,,,,,,,,,,,,,,,,,,,,,m,2.120999813,M,FALSE,,,,,,,66,moto,Spanish,Sounds/spa_moto.mp3,2020-06-04_21h14.10.671,TranslationElicitation_eng-prolific,3.2.4,MacIntel,60,5e52fa4bc6506d30c686471e,,1,0,98,62,1,97
,,,,,,,,,,,,,,,,,,,,,,,,,,,,,,,,,,,,,,,,,u,2.304999828,MU,FALSE,,,,,,,66,moto,Spanish,Sounds/spa_moto.mp3,2020-06-04_21h14.10.671,TranslationElicitation_eng-prolific,3.2.4,MacIntel,60,5e52fa4bc6506d30c686471e,,1,0,98,62,1,97
,,,,,,,,,,,,,,,,,,,,,,,,,,,,,,,,,,,,,,,,,r,2.438999891,MUR,FALSE,,,,,,,66,moto,Spanish,Sounds/spa_moto.mp3,2020-06-04_21h14.10.671,TranslationElicitation_eng-prolific,3.2.4,MacIntel,60,5e52fa4bc6506d30c686471e,,1,0,98,62,1,97
,,,,,,,,,,,,,,,,,,,,,,,,,,,,,,,,,,,,,,,,,d,2.589999914,MURD,FALSE,,,,,,,66,moto,Spanish,Sounds/spa_moto.mp3,2020-06-04_21h14.10.671,TranslationElicitation_eng-prolific,3.2.4,MacIntel,60,5e52fa4bc6506d30c686471e,,1,0,98,62,1,97
,,,,,,,,,,,,,,,,,,,,,,,,,,,,,,,,,,,,,,,,,d,2.955999851,MURDD,FALSE,,,,,,,66,moto,Spanish,Sounds/spa_moto.mp3,2020-06-04_21h14.10.671,TranslationElicitation_eng-prolific,3.2.4,MacIntel,60,5e52fa4bc6506d30c686471e,,1,0,98,62,1,97
,,,,,,,,,,,,,,,,,,,,,,,,,,,,,,,,,,,,,,,,,e,3.139999866,MURDDE,FALSE,,,,,,,66,moto,Spanish,Sounds/spa_moto.mp3,2020-06-04_21h14.10.671,TranslationElicitation_eng-prolific,3.2.4,MacIntel,60,5e52fa4bc6506d30c686471e,,1,0,98,62,1,97
,,,,,,,,,,,,,,,,,,,,,,,,,,,,,,,,,,,,,,,,,r,3.240999937,MURDDER,FALSE,,,,,,,66,moto,Spanish,Sounds/spa_moto.mp3,2020-06-04_21h14.10.671,TranslationElicitation_eng-prolific,3.2.4,MacIntel,60,5e52fa4bc6506d30c686471e,,1,0,98,62,1,97
,,,,,,,,,,,,,,,,,,,,,,,,,,,,,,,,,,,,,,,,,backspace,3.507999897,MURDDE,TRUE,,,,,,,66,moto,Spanish,Sounds/spa_moto.mp3,2020-06-04_21h14.10.671,TranslationElicitation_eng-prolific,3.2.4,MacIntel,60,5e52fa4bc6506d30c686471e,,1,0,98,62,1,97
,,,,,,,,,,,,,,,,,,,,,,,,,,,,,,,,,,,,,,,,,backspace,3.657999992,MURDD,TRUE,,,,,,,66,moto,Spanish,Sounds/spa_moto.mp3,2020-06-04_21h14.10.671,TranslationElicitation_eng-prolific,3.2.4,MacIntel,60,5e52fa4bc6506d30c686471e,,1,0,98,62,1,97
,,,,,,,,,,,,,,,,,,,,,,,,,,,,,,,,,,,,,,,,,backspace,3.875,MURD,TRUE,,,,,,,66,moto,Spanish,Sounds/spa_moto.mp3,2020-06-04_21h14.10.671,TranslationElicitation_eng-prolific,3.2.4,MacIntel,60,5e52fa4bc6506d30c686471e,,1,0,98,62,1,97
,,,,,,,,,,,,,,,,,,,,,,,,,,,,,,,,,,,,,,,,,backspace,3.9599998,MUR,TRUE,,,,,,,66,moto,Spanish,Sounds/spa_moto.mp3,2020-06-04_21h14.10.671,TranslationElicitation_eng-prolific,3.2.4,MacIntel,60,5e52fa4bc6506d30c686471e,,1,0,98,62,1,97
,,,,,,,,,,,,,,,,,,,,,,,,,,,,,,,,,,,,,,,,,e,4.008999825,MURE,TRUE,,,,,,,66,moto,Spanish,Sounds/spa_moto.mp3,2020-06-04_21h14.10.671,TranslationElicitation_eng-prolific,3.2.4,MacIntel,60,5e52fa4bc6506d30c686471e,,1,0,98,62,1,97
,,,,,,,,,,,,,,,,,,,,,,,,,,,,,,,,,,,,,,,,,r,4.092999935,MURER,TRUE,,,,,,,66,moto,Spanish,Sounds/spa_moto.mp3,2020-06-04_21h14.10.671,TranslationElicitation_eng-prolific,3.2.4,MacIntel,60,5e52fa4bc6506d30c686471e,,1,0,98,62,1,97
,,,,,,,,,,,,,,,,,,,,,,,,,,,,,,,,,,,,,,,,,backspace,4.57799983,MURE,TRUE,,,,,,,66,moto,Spanish,Sounds/spa_moto.mp3,2020-06-04_21h14.10.671,TranslationElicitation_eng-prolific,3.2.4,MacIntel,60,5e52fa4bc6506d30c686471e,,1,0,98,62,1,97
,,,,,,,,,,,,,,,,,,,,,,,,,,,,,,,,,,,,,,,,,backspace,4.677999973,MUR,TRUE,,,,,,,66,moto,Spanish,Sounds/spa_moto.mp3,2020-06-04_21h14.10.671,TranslationElicitation_eng-prolific,3.2.4,MacIntel,60,5e52fa4bc6506d30c686471e,,1,0,98,62,1,97
,,,,,,,,,,,,,,,,,,,,,,,,,,,,,,,,,,,,,,,,,d,4.877999783,MURD,TRUE,,,,,,,66,moto,Spanish,Sounds/spa_moto.mp3,2020-06-04_21h14.10.671,TranslationElicitation_eng-prolific,3.2.4,MacIntel,60,5e52fa4bc6506d30c686471e,,1,0,98,62,1,97
,,,,,,,,,,,,,,,,,,,,,,,,,,,,,,,,,,,,,,,,,e,5.178999901,MURDE,TRUE,,,,,,,66,moto,Spanish,Sounds/spa_moto.mp3,2020-06-04_21h14.10.671,TranslationElicitation_eng-prolific,3.2.4,MacIntel,60,5e52fa4bc6506d30c686471e,,1,0,98,62,1,97
,,,,,,,,,,,,,,,,,,,,,,,,,,,,,,,,,,,,,,,,,r,5.279999971,MURDER,TRUE,,,,,,,66,moto,Spanish,Sounds/spa_moto.mp3,2020-06-04_21h14.10.671,TranslationElicitation_eng-prolific,3.2.4,MacIntel,60,5e52fa4bc6506d30c686471e,,1,0,98,62,1,97
,,,,,,,,,,,,,,,,,,,,,,,,,,,,,,,,,,,,,,,,,return,6.449999809,MURDER,TRUE,,,,,,,66,moto,Spanish,Sounds/spa_moto.mp3,2020-06-04_21h14.10.671,TranslationElicitation_eng-prolific,3.2.4,MacIntel,60,5e52fa4bc6506d30c686471e,6.449999809,1,0,98,62,1,97
,,,,,,,,,,,,,,,,,,,,,,,,,,,,,,,,,,,,,,,,,,,,,,,,,,,66,moto,Spanish,Sounds/spa_moto.mp3,2020-06-04_21h14.10.671,TranslationElicitation_eng-prolific,3.2.4,MacIntel,60,5e52fa4bc6506d30c686471e,,1,0,98,62,1,97
,,,,,,,,,,,,,,,,,,,,,,,,,,,,,,,,,,,,,,,,,h,5.177999973,H,FALSE,,,,,,,41,gallina,Spanish,Sounds/spa_gallina.mp3,2020-06-04_21h14.10.671,TranslationElicitation_eng-prolific,3.2.4,MacIntel,60,5e52fa4bc6506d30c686471e,,1,0,98,37,1,97
,,,,,,,,,,,,,,,,,,,,,,,,,,,,,,,,,,,,,,,,,y,5.345999956,HY,FALSE,,,,,,,41,gallina,Spanish,Sounds/spa_gallina.mp3,2020-06-04_21h14.10.671,TranslationElicitation_eng-prolific,3.2.4,MacIntel,60,5e52fa4bc6506d30c686471e,,1,0,98,37,1,97
,,,,,,,,,,,,,,,,,,,,,,,,,,,,,,,,,,,,,,,,,e,5.528999805,HYE,FALSE,,,,,,,41,gallina,Spanish,Sounds/spa_gallina.mp3,2020-06-04_21h14.10.671,TranslationElicitation_eng-prolific,3.2.4,MacIntel,60,5e52fa4bc6506d30c686471e,,1,0,98,37,1,97
,,,,,,,,,,,,,,,,,,,,,,,,,,,,,,,,,,,,,,,,,n,5.662999868,HYEN,FALSE,,,,,,,41,gallina,Spanish,Sounds/spa_gallina.mp3,2020-06-04_21h14.10.671,TranslationElicitation_eng-prolific,3.2.4,MacIntel,60,5e52fa4bc6506d30c686471e,,1,0,98,37,1,97
,,,,,,,,,,,,,,,,,,,,,,,,,,,,,,,,,,,,,,,,,a,5.898000002,HYENA,FALSE,,,,,,,41,gallina,Spanish,Sounds/spa_gallina.mp3,2020-06-04_21h14.10.671,TranslationElicitation_eng-prolific,3.2.4,MacIntel,60,5e52fa4bc6506d30c686471e,,1,0,98,37,1,97
,,,,,,,,,,,,,,,,,,,,,,,,,,,,,,,,,,,,,,,,,return,6.298999786,HYENA,FALSE,,,,,,,41,gallina,Spanish,Sounds/spa_gallina.mp3,2020-06-04_21h14.10.671,TranslationElicitation_eng-prolific,3.2.4,MacIntel,60,5e52fa4bc6506d30c686471e,6.298999786,1,0,98,37,1,97
,,,,,,,,,,,,,,,,,,,,,,,,,,,,,,,,,,,,,,,,,,,,,,,,,,,41,gallina,Spanish,Sounds/spa_gallina.mp3,2020-06-04_21h14.10.671,TranslationElicitation_eng-prolific,3.2.4,MacIntel,60,5e52fa4bc6506d30c686471e,,1,0,98,37,1,97
,,,,,,,,,,,,,,,,,,,,,,,,,,,,,,,,,,,,,,,,,p,1.335999966,P,FALSE,,,,,,,85,pierna,Spanish,Sounds/spa_pierna.mp3,2020-06-04_21h14.10.671,TranslationElicitation_eng-prolific,3.2.4,MacIntel,60,5e52fa4bc6506d30c686471e,,1,0,98,80,1,97
,,,,,,,,,,,,,,,,,,,,,,,,,,,,,,,,,,,,,,,,,i,1.555000067,PI,FALSE,,,,,,,85,pierna,Spanish,Sounds/spa_pierna.mp3,2020-06-04_21h14.10.671,TranslationElicitation_eng-prolific,3.2.4,MacIntel,60,5e52fa4bc6506d30c686471e,,1,0,98,80,1,97
,,,,,,,,,,,,,,,,,,,,,,,,,,,,,,,,,,,,,,,,,a,1.703999996,PIA,FALSE,,,,,,,85,pierna,Spanish,Sounds/spa_pierna.mp3,2020-06-04_21h14.10.671,TranslationElicitation_eng-prolific,3.2.4,MacIntel,60,5e52fa4bc6506d30c686471e,,1,0,98,80,1,97
,,,,,,,,,,,,,,,,,,,,,,,,,,,,,,,,,,,,,,,,,n,1.772000074,PIAN,FALSE,,,,,,,85,pierna,Spanish,Sounds/spa_pierna.mp3,2020-06-04_21h14.10.671,TranslationElicitation_eng-prolific,3.2.4,MacIntel,60,5e52fa4bc6506d30c686471e,,1,0,98,80,1,97
,,,,,,,,,,,,,,,,,,,,,,,,,,,,,,,,,,,,,,,,,o,1.954999924,PIANO,FALSE,,,,,,,85,pierna,Spanish,Sounds/spa_pierna.mp3,2020-06-04_21h14.10.671,TranslationElicitation_eng-prolific,3.2.4,MacIntel,60,5e52fa4bc6506d30c686471e,,1,0,98,80,1,97
,,,,,,,,,,,,,,,,,,,,,,,,,,,,,,,,,,,,,,,,,return,2.20600009,PIANO,FALSE,,,,,,,85,pierna,Spanish,Sounds/spa_pierna.mp3,2020-06-04_21h14.10.671,TranslationElicitation_eng-prolific,3.2.4,MacIntel,60,5e52fa4bc6506d30c686471e,2.20600009,1,0,98,80,1,97
,,,,,,,,,,,,,,,,,,,,,,,,,,,,,,,,,,,,,,,,,,,,,,,,,,,85,pierna,Spanish,Sounds/spa_pierna.mp3,2020-06-04_21h14.10.671,TranslationElicitation_eng-prolific,3.2.4,MacIntel,60,5e52fa4bc6506d30c686471e,,1,0,98,80,1,97
,,,,,,,,,,,,,,,,,,,,,,,,,,,,,,,,,,,,,,,,,b,7.635999918,B,FALSE,,,,,,,74,pajaro,Spanish,Sounds/spa_pajaro.mp3,2020-06-04_21h14.10.671,TranslationElicitation_eng-prolific,3.2.4,MacIntel,60,5e52fa4bc6506d30c686471e,,1,0,98,69,1,97
,,,,,,,,,,,,,,,,,,,,,,,,,,,,,,,,,,,,,,,,,o,7.835000038,BO,FALSE,,,,,,,74,pajaro,Spanish,Sounds/spa_pajaro.mp3,2020-06-04_21h14.10.671,TranslationElicitation_eng-prolific,3.2.4,MacIntel,60,5e52fa4bc6506d30c686471e,,1,0,98,69,1,97
,,,,,,,,,,,,,,,,,,,,,,,,,,,,,,,,,,,,,,,,,o,7.968999863,BOO,FALSE,,,,,,,74,pajaro,Spanish,Sounds/spa_pajaro.mp3,2020-06-04_21h14.10.671,TranslationElicitation_eng-prolific,3.2.4,MacIntel,60,5e52fa4bc6506d30c686471e,,1,0,98,69,1,97
,,,,,,,,,,,,,,,,,,,,,,,,,,,,,,,,,,,,,,,,,k,8.088000059,BOOK,FALSE,,,,,,,74,pajaro,Spanish,Sounds/spa_pajaro.mp3,2020-06-04_21h14.10.671,TranslationElicitation_eng-prolific,3.2.4,MacIntel,60,5e52fa4bc6506d30c686471e,,1,0,98,69,1,97
,,,,,,,,,,,,,,,,,,,,,,,,,,,,,,,,,,,,,,,,,return,8.320999861,BOOK,FALSE,,,,,,,74,pajaro,Spanish,Sounds/spa_pajaro.mp3,2020-06-04_21h14.10.671,TranslationElicitation_eng-prolific,3.2.4,MacIntel,60,5e52fa4bc6506d30c686471e,8.320999861,1,0,98,69,1,97
,,,,,,,,,,,,,,,,,,,,,,,,,,,,,,,,,,,,,,,,,,,,,,,,,,,74,pajaro,Spanish,Sounds/spa_pajaro.mp3,2020-06-04_21h14.10.671,TranslationElicitation_eng-prolific,3.2.4,MacIntel,60,5e52fa4bc6506d30c686471e,,1,0,98,69,1,97
,,,,,,,,,,,,,,,,,,,,,,,,,,,,,,,,,,,,,,,,,c,2.541000128,C,FALSE,,,,,,,19,camiseta,Spanish,Sounds/spa_camiseta.mp3,2020-06-04_21h14.10.671,TranslationElicitation_eng-prolific,3.2.4,MacIntel,60,5e52fa4bc6506d30c686471e,,1,0,98,17,1,97
,,,,,,,,,,,,,,,,,,,,,,,,,,,,,,,,,,,,,,,,,a,2.70600009,CA,FALSE,,,,,,,19,camiseta,Spanish,Sounds/spa_camiseta.mp3,2020-06-04_21h14.10.671,TranslationElicitation_eng-prolific,3.2.4,MacIntel,60,5e52fa4bc6506d30c686471e,,1,0,98,17,1,97
,,,,,,,,,,,,,,,,,,,,,,,,,,,,,,,,,,,,,,,,,m,2.80700016,CAM,FALSE,,,,,,,19,camiseta,Spanish,Sounds/spa_camiseta.mp3,2020-06-04_21h14.10.671,TranslationElicitation_eng-prolific,3.2.4,MacIntel,60,5e52fa4bc6506d30c686471e,,1,0,98,17,1,97
,,,,,,,,,,,,,,,,,,,,,,,,,,,,,,,,,,,,,,,,,i,2.973999977,CAMI,FALSE,,,,,,,19,camiseta,Spanish,Sounds/spa_camiseta.mp3,2020-06-04_21h14.10.671,TranslationElicitation_eng-prolific,3.2.4,MacIntel,60,5e52fa4bc6506d30c686471e,,1,0,98,17,1,97
,,,,,,,,,,,,,,,,,,,,,,,,,,,,,,,,,,,,,,,,,s,3.041000128,CAMIS,FALSE,,,,,,,19,camiseta,Spanish,Sounds/spa_camiseta.mp3,2020-06-04_21h14.10.671,TranslationElicitation_eng-prolific,3.2.4,MacIntel,60,5e52fa4bc6506d30c686471e,,1,0,98,17,1,97
,,,,,,,,,,,,,,,,,,,,,,,,,,,,,,,,,,,,,,,,,o,3.175000191,CAMISO,FALSE,,,,,,,19,camiseta,Spanish,Sounds/spa_camiseta.mp3,2020-06-04_21h14.10.671,TranslationElicitation_eng-prolific,3.2.4,MacIntel,60,5e52fa4bc6506d30c686471e,,1,0,98,17,1,97
,,,,,,,,,,,,,,,,,,,,,,,,,,,,,,,,,,,,,,,,,l,3.275000095,CAMISOL,FALSE,,,,,,,19,camiseta,Spanish,Sounds/spa_camiseta.mp3,2020-06-04_21h14.10.671,TranslationElicitation_eng-prolific,3.2.4,MacIntel,60,5e52fa4bc6506d30c686471e,,1,0,98,17,1,97
,,,,,,,,,,,,,,,,,,,,,,,,,,,,,,,,,,,,,,,,,e,3.492000103,CAMISOLE,FALSE,,,,,,,19,camiseta,Spanish,Sounds/spa_camiseta.mp3,2020-06-04_21h14.10.671,TranslationElicitation_eng-prolific,3.2.4,MacIntel,60,5e52fa4bc6506d30c686471e,,1,0,98,17,1,97
,,,,,,,,,,,,,,,,,,,,,,,,,,,,,,,,,,,,,,,,,return,3.743000031,CAMISOLE,FALSE,,,,,,,19,camiseta,Spanish,Sounds/spa_camiseta.mp3,2020-06-04_21h14.10.671,TranslationElicitation_eng-prolific,3.2.4,MacIntel,60,5e52fa4bc6506d30c686471e,3.743000031,1,0,98,17,1,97
,,,,,,,,,,,,,,,,,,,,,,,,,,,,,,,,,,,,,,,,,,,,,,,,,,,19,camiseta,Spanish,Sounds/spa_camiseta.mp3,2020-06-04_21h14.10.671,TranslationElicitation_eng-prolific,3.2.4,MacIntel,60,5e52fa4bc6506d30c686471e,,1,0,98,17,1,97
,,,,,,,,,,,,,,,,,,,,,,,,,,,,,,,,,,,,,,,,,s,1.503999949,S,FALSE,,,,,,,36,estrella,Spanish,Sounds/spa_estrella.mp3,2020-06-04_21h14.10.671,TranslationElicitation_eng-prolific,3.2.4,MacIntel,60,5e52fa4bc6506d30c686471e,,1,0,98,32,1,97
,,,,,,,,,,,,,,,,,,,,,,,,,,,,,,,,,,,,,,,,,t,1.738000154,ST,FALSE,,,,,,,36,estrella,Spanish,Sounds/spa_estrella.mp3,2020-06-04_21h14.10.671,TranslationElicitation_eng-prolific,3.2.4,MacIntel,60,5e52fa4bc6506d30c686471e,,1,0,98,32,1,97
,,,,,,,,,,,,,,,,,,,,,,,,,,,,,,,,,,,,,,,,,r,1.822000027,STR,FALSE,,,,,,,36,estrella,Spanish,Sounds/spa_estrella.mp3,2020-06-04_21h14.10.671,TranslationElicitation_eng-prolific,3.2.4,MacIntel,60,5e52fa4bc6506d30c686471e,,1,0,98,32,1,97
,,,,,,,,,,,,,,,,,,,,,,,,,,,,,,,,,,,,,,,,,backspace,2.273000002,ST,TRUE,,,,,,,36,estrella,Spanish,Sounds/spa_estrella.mp3,2020-06-04_21h14.10.671,TranslationElicitation_eng-prolific,3.2.4,MacIntel,60,5e52fa4bc6506d30c686471e,,1,0,98,32,1,97
,,,,,,,,,,,,,,,,,,,,,,,,,,,,,,,,,,,,,,,,,backspace,2.406000137,S,TRUE,,,,,,,36,estrella,Spanish,Sounds/spa_estrella.mp3,2020-06-04_21h14.10.671,TranslationElicitation_eng-prolific,3.2.4,MacIntel,60,5e52fa4bc6506d30c686471e,,1,0,98,32,1,97
,,,,,,,,,,,,,,,,,,,,,,,,,,,,,,,,,,,,,,,,,backspace,2.556999922,,TRUE,,,,,,,36,estrella,Spanish,Sounds/spa_estrella.mp3,2020-06-04_21h14.10.671,TranslationElicitation_eng-prolific,3.2.4,MacIntel,60,5e52fa4bc6506d30c686471e,,1,0,98,32,1,97
,,,,,,,,,,,,,,,,,,,,,,,,,,,,,,,,,,,,,,,,,a,2.68900013,A,TRUE,,,,,,,36,estrella,Spanish,Sounds/spa_estrella.mp3,2020-06-04_21h14.10.671,TranslationElicitation_eng-prolific,3.2.4,MacIntel,60,5e52fa4bc6506d30c686471e,,1,0,98,32,1,97
,,,,,,,,,,,,,,,,,,,,,,,,,,,,,,,,,,,,,,,,,u,2.857000113,AU,TRUE,,,,,,,36,estrella,Spanish,Sounds/spa_estrella.mp3,2020-06-04_21h14.10.671,TranslationElicitation_eng-prolific,3.2.4,MacIntel,60,5e52fa4bc6506d30c686471e,,1,0,98,32,1,97
,,,,,,,,,,,,,,,,,,,,,,,,,,,,,,,,,,,,,,,,,s,3.056999922,AUS,TRUE,,,,,,,36,estrella,Spanish,Sounds/spa_estrella.mp3,2020-06-04_21h14.10.671,TranslationElicitation_eng-prolific,3.2.4,MacIntel,60,5e52fa4bc6506d30c686471e,,1,0,98,32,1,97
,,,,,,,,,,,,,,,,,,,,,,,,,,,,,,,,,,,,,,,,,t,3.291000128,AUST,TRUE,,,,,,,36,estrella,Spanish,Sounds/spa_estrella.mp3,2020-06-04_21h14.10.671,TranslationElicitation_eng-prolific,3.2.4,MacIntel,60,5e52fa4bc6506d30c686471e,,1,0,98,32,1,97
,,,,,,,,,,,,,,,,,,,,,,,,,,,,,,,,,,,,,,,,,r,3.442000151,AUSTR,TRUE,,,,,,,36,estrella,Spanish,Sounds/spa_estrella.mp3,2020-06-04_21h14.10.671,TranslationElicitation_eng-prolific,3.2.4,MacIntel,60,5e52fa4bc6506d30c686471e,,1,0,98,32,1,97
,,,,,,,,,,,,,,,,,,,,,,,,,,,,,,,,,,,,,,,,,a,3.643000126,AUSTRA,TRUE,,,,,,,36,estrella,Spanish,Sounds/spa_estrella.mp3,2020-06-04_21h14.10.671,TranslationElicitation_eng-prolific,3.2.4,MacIntel,60,5e52fa4bc6506d30c686471e,,1,0,98,32,1,97
,,,,,,,,,,,,,,,,,,,,,,,,,,,,,,,,,,,,,,,,,l,3.726000071,AUSTRAL,TRUE,,,,,,,36,estrella,Spanish,Sounds/spa_estrella.mp3,2020-06-04_21h14.10.671,TranslationElicitation_eng-prolific,3.2.4,MacIntel,60,5e52fa4bc6506d30c686471e,,1,0,98,32,1,97
,,,,,,,,,,,,,,,,,,,,,,,,,,,,,,,,,,,,,,,,,i,3.858999968,AUSTRALI,TRUE,,,,,,,36,estrella,Spanish,Sounds/spa_estrella.mp3,2020-06-04_21h14.10.671,TranslationElicitation_eng-prolific,3.2.4,MacIntel,60,5e52fa4bc6506d30c686471e,,1,0,98,32,1,97
,,,,,,,,,,,,,,,,,,,,,,,,,,,,,,,,,,,,,,,,,a,3.960000038,AUSTRALIA,TRUE,,,,,,,36,estrella,Spanish,Sounds/spa_estrella.mp3,2020-06-04_21h14.10.671,TranslationElicitation_eng-prolific,3.2.4,MacIntel,60,5e52fa4bc6506d30c686471e,,1,0,98,32,1,97
,,,,,,,,,,,,,,,,,,,,,,,,,,,,,,,,,,,,,,,,,return,4.194000006,AUSTRALIA,TRUE,,,,,,,36,estrella,Spanish,Sounds/spa_estrella.mp3,2020-06-04_21h14.10.671,TranslationElicitation_eng-prolific,3.2.4,MacIntel,60,5e52fa4bc6506d30c686471e,4.194000006,1,0,98,32,1,97
,,,,,,,,,,,,,,,,,,,,,,,,,,,,,,,,,,,,,,,,,,,,,,,,,,,36,estrella,Spanish,Sounds/spa_estrella.mp3,2020-06-04_21h14.10.671,TranslationElicitation_eng-prolific,3.2.4,MacIntel,60,5e52fa4bc6506d30c686471e,,1,0,98,32,1,97
,,,,,,,,,,,,,,,,,,,,,,,,,,,,,,,,,,,,,,,,,p,4.161000013,P,FALSE,,,,,,,91,puerta,Spanish,Sounds/spa_puerta.mp3,2020-06-04_21h14.10.671,TranslationElicitation_eng-prolific,3.2.4,MacIntel,60,5e52fa4bc6506d30c686471e,,1,0,98,86,1,97
,,,,,,,,,,,,,,,,,,,,,,,,,,,,,,,,,,,,,,,,,r,4.263000011,PR,FALSE,,,,,,,91,puerta,Spanish,Sounds/spa_puerta.mp3,2020-06-04_21h14.10.671,TranslationElicitation_eng-prolific,3.2.4,MacIntel,60,5e52fa4bc6506d30c686471e,,1,0,98,86,1,97
,,,,,,,,,,,,,,,,,,,,,,,,,,,,,,,,,,,,,,,,,e,4.378000021,PRE,FALSE,,,,,,,91,puerta,Spanish,Sounds/spa_puerta.mp3,2020-06-04_21h14.10.671,TranslationElicitation_eng-prolific,3.2.4,MacIntel,60,5e52fa4bc6506d30c686471e,,1,0,98,86,1,97
,,,,,,,,,,,,,,,,,,,,,,,,,,,,,,,,,,,,,,,,,t,4.512000084,PRET,FALSE,,,,,,,91,puerta,Spanish,Sounds/spa_puerta.mp3,2020-06-04_21h14.10.671,TranslationElicitation_eng-prolific,3.2.4,MacIntel,60,5e52fa4bc6506d30c686471e,,1,0,98,86,1,97
,,,,,,,,,,,,,,,,,,,,,,,,,,,,,,,,,,,,,,,,,t,4.667000055,PRETT,FALSE,,,,,,,91,puerta,Spanish,Sounds/spa_puerta.mp3,2020-06-04_21h14.10.671,TranslationElicitation_eng-prolific,3.2.4,MacIntel,60,5e52fa4bc6506d30c686471e,,1,0,98,86,1,97
,,,,,,,,,,,,,,,,,,,,,,,,,,,,,,,,,,,,,,,,,y,4.812999964,PRETTY,FALSE,,,,,,,91,puerta,Spanish,Sounds/spa_puerta.mp3,2020-06-04_21h14.10.671,TranslationElicitation_eng-prolific,3.2.4,MacIntel,60,5e52fa4bc6506d30c686471e,,1,0,98,86,1,97
,,,,,,,,,,,,,,,,,,,,,,,,,,,,,,,,,,,,,,,,,return,4.946000099,PRETTY,FALSE,,,,,,,91,puerta,Spanish,Sounds/spa_puerta.mp3,2020-06-04_21h14.10.671,TranslationElicitation_eng-prolific,3.2.4,MacIntel,60,5e52fa4bc6506d30c686471e,4.946000099,1,0,98,86,1,97
,,,,,,,,,,,,,,,,,,,,,,,,,,,,,,,,,,,,,,,,,,,,,,,,,,,91,puerta,Spanish,Sounds/spa_puerta.mp3,2020-06-04_21h14.10.671,TranslationElicitation_eng-prolific,3.2.4,MacIntel,60,5e52fa4bc6506d30c686471e,,1,0,98,86,1,97
,,,,,,,,,,,,,,,,,,,,,,,,,,,,,,,,,,,,,,,,,l,1.352999926,L,FALSE,,,,,,,87,platano,Spanish,Sounds/spa_platano.mp3,2020-06-04_21h14.10.671,TranslationElicitation_eng-prolific,3.2.4,MacIntel,60,5e52fa4bc6506d30c686471e,,1,0,98,82,1,97
,,,,,,,,,,,,,,,,,,,,,,,,,,,,,,,,,,,,,,,,,a,1.470999956,LA,FALSE,,,,,,,87,platano,Spanish,Sounds/spa_platano.mp3,2020-06-04_21h14.10.671,TranslationElicitation_eng-prolific,3.2.4,MacIntel,60,5e52fa4bc6506d30c686471e,,1,0,98,82,1,97
,,,,,,,,,,,,,,,,,,,,,,,,,,,,,,,,,,,,,,,,,t,1.704999924,LAT,FALSE,,,,,,,87,platano,Spanish,Sounds/spa_platano.mp3,2020-06-04_21h14.10.671,TranslationElicitation_eng-prolific,3.2.4,MacIntel,60,5e52fa4bc6506d30c686471e,,1,0,98,82,1,97
,,,,,,,,,,,,,,,,,,,,,,,,,,,,,,,,,,,,,,,,,i,1.921999931,LATI,FALSE,,,,,,,87,platano,Spanish,Sounds/spa_platano.mp3,2020-06-04_21h14.10.671,TranslationElicitation_eng-prolific,3.2.4,MacIntel,60,5e52fa4bc6506d30c686471e,,1,0,98,82,1,97
,,,,,,,,,,,,,,,,,,,,,,,,,,,,,,,,,,,,,,,,,n,2.104999781,LATIN,FALSE,,,,,,,87,platano,Spanish,Sounds/spa_platano.mp3,2020-06-04_21h14.10.671,TranslationElicitation_eng-prolific,3.2.4,MacIntel,60,5e52fa4bc6506d30c686471e,,1,0,98,82,1,97
,,,,,,,,,,,,,,,,,,,,,,,,,,,,,,,,,,,,,,,,,return,2.440999985,LATIN,FALSE,,,,,,,87,platano,Spanish,Sounds/spa_platano.mp3,2020-06-04_21h14.10.671,TranslationElicitation_eng-prolific,3.2.4,MacIntel,60,5e52fa4bc6506d30c686471e,2.440999985,1,0,98,82,1,97
,,,,,,,,,,,,,,,,,,,,,,,,,,,,,,,,,,,,,,,,,,,,,,,,,,,87,platano,Spanish,Sounds/spa_platano.mp3,2020-06-04_21h14.10.671,TranslationElicitation_eng-prolific,3.2.4,MacIntel,60,5e52fa4bc6506d30c686471e,,1,0,98,82,1,97
,,,,,,,,,,,,,,,,,,,,,,,,,,,,,,,,,,,,,,,,,t,1.805000067,T,FALSE,,,,,,,12,brazo,Spanish,Sounds/spa_brazo.mp3,2020-06-04_21h14.10.671,TranslationElicitation_eng-prolific,3.2.4,MacIntel,60,5e52fa4bc6506d30c686471e,,1,0,98,10,1,97
,,,,,,,,,,,,,,,,,,,,,,,,,,,,,,,,,,,,,,,,,h,1.954999924,TH,FALSE,,,,,,,12,brazo,Spanish,Sounds/spa_brazo.mp3,2020-06-04_21h14.10.671,TranslationElicitation_eng-prolific,3.2.4,MacIntel,60,5e52fa4bc6506d30c686471e,,1,0,98,10,1,97
,,,,,,,,,,,,,,,,,,,,,,,,,,,,,,,,,,,,,,,,,a,2.088999987,THA,FALSE,,,,,,,12,brazo,Spanish,Sounds/spa_brazo.mp3,2020-06-04_21h14.10.671,TranslationElicitation_eng-prolific,3.2.4,MacIntel,60,5e52fa4bc6506d30c686471e,,1,0,98,10,1,97
,,,,,,,,,,,,,,,,,,,,,,,,,,,,,,,,,,,,,,,,,n,2.207000017,THAN,FALSE,,,,,,,12,brazo,Spanish,Sounds/spa_brazo.mp3,2020-06-04_21h14.10.671,TranslationElicitation_eng-prolific,3.2.4,MacIntel,60,5e52fa4bc6506d30c686471e,,1,0,98,10,1,97
,,,,,,,,,,,,,,,,,,,,,,,,,,,,,,,,,,,,,,,,,k,2.374000072,THANK,FALSE,,,,,,,12,brazo,Spanish,Sounds/spa_brazo.mp3,2020-06-04_21h14.10.671,TranslationElicitation_eng-prolific,3.2.4,MacIntel,60,5e52fa4bc6506d30c686471e,,1,0,98,10,1,97
,,,,,,,,,,,,,,,,,,,,,,,,,,,,,,,,,,,,,,,,,s,2.438999891,THANKS,FALSE,,,,,,,12,brazo,Spanish,Sounds/spa_brazo.mp3,2020-06-04_21h14.10.671,TranslationElicitation_eng-prolific,3.2.4,MacIntel,60,5e52fa4bc6506d30c686471e,,1,0,98,10,1,97
,,,,,,,,,,,,,,,,,,,,,,,,,,,,,,,,,,,,,,,,,return,2.625,THANKS,FALSE,,,,,,,12,brazo,Spanish,Sounds/spa_brazo.mp3,2020-06-04_21h14.10.671,TranslationElicitation_eng-prolific,3.2.4,MacIntel,60,5e52fa4bc6506d30c686471e,2.625,1,0,98,10,1,97
,,,,,,,,,,,,,,,,,,,,,,,,,,,,,,,,,,,,,,,,,,,,,,,,,,,12,brazo,Spanish,Sounds/spa_brazo.mp3,2020-06-04_21h14.10.671,TranslationElicitation_eng-prolific,3.2.4,MacIntel,60,5e52fa4bc6506d30c686471e,,1,0,98,10,1,97
,,,,,,,,,,,,,,,,,,,,,,,,,,,,,,,,,,,,,,,,,m,1.419999838,M,FALSE,,,,,,,58,luna,Spanish,Sounds/spa_luna.mp3,2020-06-04_21h14.10.671,TranslationElicitation_eng-prolific,3.2.4,MacIntel,60,5e52fa4bc6506d30c686471e,,1,0,98,54,1,97
,,,,,,,,,,,,,,,,,,,,,,,,,,,,,,,,,,,,,,,,,o,1.66899991,MO,FALSE,,,,,,,58,luna,Spanish,Sounds/spa_luna.mp3,2020-06-04_21h14.10.671,TranslationElicitation_eng-prolific,3.2.4,MacIntel,60,5e52fa4bc6506d30c686471e,,1,0,98,54,1,97
,,,,,,,,,,,,,,,,,,,,,,,,,,,,,,,,,,,,,,,,,o,1.802999973,MOO,FALSE,,,,,,,58,luna,Spanish,Sounds/spa_luna.mp3,2020-06-04_21h14.10.671,TranslationElicitation_eng-prolific,3.2.4,MacIntel,60,5e52fa4bc6506d30c686471e,,1,0,98,54,1,97
,,,,,,,,,,,,,,,,,,,,,,,,,,,,,,,,,,,,,,,,,n,2.003000021,MOON,FALSE,,,,,,,58,luna,Spanish,Sounds/spa_luna.mp3,2020-06-04_21h14.10.671,TranslationElicitation_eng-prolific,3.2.4,MacIntel,60,5e52fa4bc6506d30c686471e,,1,0,98,54,1,97
,,,,,,,,,,,,,,,,,,,,,,,,,,,,,,,,,,,,,,,,,return,2.220999956,MOON,FALSE,,,,,,,58,luna,Spanish,Sounds/spa_luna.mp3,2020-06-04_21h14.10.671,TranslationElicitation_eng-prolific,3.2.4,MacIntel,60,5e52fa4bc6506d30c686471e,2.220999956,1,0,98,54,1,97
,,,,,,,,,,,,,,,,,,,,,,,,,,,,,,,,,,,,,,,,,,,,,,,,,,,58,luna,Spanish,Sounds/spa_luna.mp3,2020-06-04_21h14.10.671,TranslationElicitation_eng-prolific,3.2.4,MacIntel,60,5e52fa4bc6506d30c686471e,,1,0,98,54,1,97
,,,,,,,,,,,,,,,,,,,,,,,,,,,,,,,,,,,,,,,,,m,2.023000002,M,FALSE,,,,,,,63,mesa,Spanish,Sounds/spa_mesa.mp3,2020-06-04_21h14.10.671,TranslationElicitation_eng-prolific,3.2.4,MacIntel,60,5e52fa4bc6506d30c686471e,,1,0,98,59,1,97
,,,,,,,,,,,,,,,,,,,,,,,,,,,,,,,,,,,,,,,,,r,2.240999937,MR,FALSE,,,,,,,63,mesa,Spanish,Sounds/spa_mesa.mp3,2020-06-04_21h14.10.671,TranslationElicitation_eng-prolific,3.2.4,MacIntel,60,5e52fa4bc6506d30c686471e,,1,0,98,59,1,97
,,,,,,,,,,,,,,,,,,,,,,,,,,,,,,,,,,,,,,,,,backspace,2.557999849,M,TRUE,,,,,,,63,mesa,Spanish,Sounds/spa_mesa.mp3,2020-06-04_21h14.10.671,TranslationElicitation_eng-prolific,3.2.4,MacIntel,60,5e52fa4bc6506d30c686471e,,1,0,98,59,1,97
,,,,,,,,,,,,,,,,,,,,,,,,,,,,,,,,,,,,,,,,,e,2.65899992,ME,TRUE,,,,,,,63,mesa,Spanish,Sounds/spa_mesa.mp3,2020-06-04_21h14.10.671,TranslationElicitation_eng-prolific,3.2.4,MacIntel,60,5e52fa4bc6506d30c686471e,,1,0,98,59,1,97
,,,,,,,,,,,,,,,,,,,,,,,,,,,,,,,,,,,,,,,,,return,2.825999975,ME,TRUE,,,,,,,63,mesa,Spanish,Sounds/spa_mesa.mp3,2020-06-04_21h14.10.671,TranslationElicitation_eng-prolific,3.2.4,MacIntel,60,5e52fa4bc6506d30c686471e,2.825999975,1,0,98,59,1,97
,,,,,,,,,,,,,,,,,,,,,,,,,,,,,,,,,,,,,,,,,,,,,,,,,,,63,mesa,Spanish,Sounds/spa_mesa.mp3,2020-06-04_21h14.10.671,TranslationElicitation_eng-prolific,3.2.4,MacIntel,60,5e52fa4bc6506d30c686471e,,1,0,98,59,1,97
,,,,,,,,,,,,,,,,,,,,,,,,,,,,,,,,,,,,,,,,,c,1.270999908,C,FALSE,,,,,,,27,chocolate,Spanish,Sounds/spa_chocolate.mp3,2020-06-04_21h14.10.671,TranslationElicitation_eng-prolific,3.2.4,MacIntel,60,5e52fa4bc6506d30c686471e,,1,0,98,24,1,97
,,,,,,,,,,,,,,,,,,,,,,,,,,,,,,,,,,,,,,,,,h,1.388000011,CH,FALSE,,,,,,,27,chocolate,Spanish,Sounds/spa_chocolate.mp3,2020-06-04_21h14.10.671,TranslationElicitation_eng-prolific,3.2.4,MacIntel,60,5e52fa4bc6506d30c686471e,,1,0,98,24,1,97
,,,,,,,,,,,,,,,,,,,,,,,,,,,,,,,,,,,,,,,,,o,1.588000059,CHO,FALSE,,,,,,,27,chocolate,Spanish,Sounds/spa_chocolate.mp3,2020-06-04_21h14.10.671,TranslationElicitation_eng-prolific,3.2.4,MacIntel,60,5e52fa4bc6506d30c686471e,,1,0,98,24,1,97
,,,,,,,,,,,,,,,,,,,,,,,,,,,,,,,,,,,,,,,,,c,1.72300005,CHOC,FALSE,,,,,,,27,chocolate,Spanish,Sounds/spa_chocolate.mp3,2020-06-04_21h14.10.671,TranslationElicitation_eng-prolific,3.2.4,MacIntel,60,5e52fa4bc6506d30c686471e,,1,0,98,24,1,97
,,,,,,,,,,,,,,,,,,,,,,,,,,,,,,,,,,,,,,,,,o,1.822000027,CHOCO,FALSE,,,,,,,27,chocolate,Spanish,Sounds/spa_chocolate.mp3,2020-06-04_21h14.10.671,TranslationElicitation_eng-prolific,3.2.4,MacIntel,60,5e52fa4bc6506d30c686471e,,1,0,98,24,1,97
,,,,,,,,,,,,,,,,,,,,,,,,,,,,,,,,,,,,,,,,,l,2.09100008,CHOCOL,FALSE,,,,,,,27,chocolate,Spanish,Sounds/spa_chocolate.mp3,2020-06-04_21h14.10.671,TranslationElicitation_eng-prolific,3.2.4,MacIntel,60,5e52fa4bc6506d30c686471e,,1,0,98,24,1,97
,,,,,,,,,,,,,,,,,,,,,,,,,,,,,,,,,,,,,,,,,backspace,2.724999905,CHOCO,TRUE,,,,,,,27,chocolate,Spanish,Sounds/spa_chocolate.mp3,2020-06-04_21h14.10.671,TranslationElicitation_eng-prolific,3.2.4,MacIntel,60,5e52fa4bc6506d30c686471e,,1,0,98,24,1,97
,,,,,,,,,,,,,,,,,,,,,,,,,,,,,,,,,,,,,,,,,l,3.176000118,CHOCOL,TRUE,,,,,,,27,chocolate,Spanish,Sounds/spa_chocolate.mp3,2020-06-04_21h14.10.671,TranslationElicitation_eng-prolific,3.2.4,MacIntel,60,5e52fa4bc6506d30c686471e,,1,0,98,24,1,97
,,,,,,,,,,,,,,,,,,,,,,,,,,,,,,,,,,,,,,,,,a,3.292999983,CHOCOLA,TRUE,,,,,,,27,chocolate,Spanish,Sounds/spa_chocolate.mp3,2020-06-04_21h14.10.671,TranslationElicitation_eng-prolific,3.2.4,MacIntel,60,5e52fa4bc6506d30c686471e,,1,0,98,24,1,97
,,,,,,,,,,,,,,,,,,,,,,,,,,,,,,,,,,,,,,,,,t,3.459000111,CHOCOLAT,TRUE,,,,,,,27,chocolate,Spanish,Sounds/spa_chocolate.mp3,2020-06-04_21h14.10.671,TranslationElicitation_eng-prolific,3.2.4,MacIntel,60,5e52fa4bc6506d30c686471e,,1,0,98,24,1,97
,,,,,,,,,,,,,,,,,,,,,,,,,,,,,,,,,,,,,,,,,e,3.561000109,CHOCOLATE,TRUE,,,,,,,27,chocolate,Spanish,Sounds/spa_chocolate.mp3,2020-06-04_21h14.10.671,TranslationElicitation_eng-prolific,3.2.4,MacIntel,60,5e52fa4bc6506d30c686471e,,1,0,98,24,1,97
,,,,,,,,,,,,,,,,,,,,,,,,,,,,,,,,,,,,,,,,,space,3.726999998,CHOCOLATE ,TRUE,,,,,,,27,chocolate,Spanish,Sounds/spa_chocolate.mp3,2020-06-04_21h14.10.671,TranslationElicitation_eng-prolific,3.2.4,MacIntel,60,5e52fa4bc6506d30c686471e,,1,0,98,24,1,97
,,,,,,,,,,,,,,,,,,,,,,,,,,,,,,,,,,,,,,,,,backspace,4.177999973,CHOCOLATE,TRUE,,,,,,,27,chocolate,Spanish,Sounds/spa_chocolate.mp3,2020-06-04_21h14.10.671,TranslationElicitation_eng-prolific,3.2.4,MacIntel,60,5e52fa4bc6506d30c686471e,,1,0,98,24,1,97
,,,,,,,,,,,,,,,,,,,,,,,,,,,,,,,,,,,,,,,,,return,4.395999908,CHOCOLATE,TRUE,,,,,,,27,chocolate,Spanish,Sounds/spa_chocolate.mp3,2020-06-04_21h14.10.671,TranslationElicitation_eng-prolific,3.2.4,MacIntel,60,5e52fa4bc6506d30c686471e,4.395999908,1,0,98,24,1,97
,,,,,,,,,,,,,,,,,,,,,,,,,,,,,,,,,,,,,,,,,,,,,,,,,,,27,chocolate,Spanish,Sounds/spa_chocolate.mp3,2020-06-04_21h14.10.671,TranslationElicitation_eng-prolific,3.2.4,MacIntel,60,5e52fa4bc6506d30c686471e,,1,0,98,24,1,97
,,,,,,,,,,,,,,,,,,,,,,,,,,,,,,,,,,,,,,,,,g,6.582000017,G,FALSE,,,,,,,39,gafas,Spanish,Sounds/spa_gafas.mp3,2020-06-04_21h14.10.671,TranslationElicitation_eng-prolific,3.2.4,MacIntel,60,5e52fa4bc6506d30c686471e,,1,0,98,35,1,97
,,,,,,,,,,,,,,,,,,,,,,,,,,,,,,,,,,,,,,,,,backspace,6.983999968,,TRUE,,,,,,,39,gafas,Spanish,Sounds/spa_gafas.mp3,2020-06-04_21h14.10.671,TranslationElicitation_eng-prolific,3.2.4,MacIntel,60,5e52fa4bc6506d30c686471e,,1,0,98,35,1,97
,,,,,,,,,,,,,,,,,,,,,,,,,,,,,,,,,,,,,,,,,h,7.16899991,H,TRUE,,,,,,,39,gafas,Spanish,Sounds/spa_gafas.mp3,2020-06-04_21h14.10.671,TranslationElicitation_eng-prolific,3.2.4,MacIntel,60,5e52fa4bc6506d30c686471e,,1,0,98,35,1,97
,,,,,,,,,,,,,,,,,,,,,,,,,,,,,,,,,,,,,,,,,o,7.234999895,HO,TRUE,,,,,,,39,gafas,Spanish,Sounds/spa_gafas.mp3,2020-06-04_21h14.10.671,TranslationElicitation_eng-prolific,3.2.4,MacIntel,60,5e52fa4bc6506d30c686471e,,1,0,98,35,1,97
,,,,,,,,,,,,,,,,,,,,,,,,,,,,,,,,,,,,,,,,,u,7.417999983,HOU,TRUE,,,,,,,39,gafas,Spanish,Sounds/spa_gafas.mp3,2020-06-04_21h14.10.671,TranslationElicitation_eng-prolific,3.2.4,MacIntel,60,5e52fa4bc6506d30c686471e,,1,0,98,35,1,97
,,,,,,,,,,,,,,,,,,,,,,,,,,,,,,,,,,,,,,,,,s,7.968999863,HOUS,TRUE,,,,,,,39,gafas,Spanish,Sounds/spa_gafas.mp3,2020-06-04_21h14.10.671,TranslationElicitation_eng-prolific,3.2.4,MacIntel,60,5e52fa4bc6506d30c686471e,,1,0,98,35,1,97
,,,,,,,,,,,,,,,,,,,,,,,,,,,,,,,,,,,,,,,,,e,8.171000004,HOUSE,TRUE,,,,,,,39,gafas,Spanish,Sounds/spa_gafas.mp3,2020-06-04_21h14.10.671,TranslationElicitation_eng-prolific,3.2.4,MacIntel,60,5e52fa4bc6506d30c686471e,,1,0,98,35,1,97
,,,,,,,,,,,,,,,,,,,,,,,,,,,,,,,,,,,,,,,,,return,8.403999805,HOUSE,TRUE,,,,,,,39,gafas,Spanish,Sounds/spa_gafas.mp3,2020-06-04_21h14.10.671,TranslationElicitation_eng-prolific,3.2.4,MacIntel,60,5e52fa4bc6506d30c686471e,8.403999805,1,0,98,35,1,97
,,,,,,,,,,,,,,,,,,,,,,,,,,,,,,,,,,,,,,,,,,,,,,,,,,,39,gafas,Spanish,Sounds/spa_gafas.mp3,2020-06-04_21h14.10.671,TranslationElicitation_eng-prolific,3.2.4,MacIntel,60,5e52fa4bc6506d30c686471e,,1,0,98,35,1,97
,,,,,,,,,,,,,,,,,,,,,,,,,,,,,,,,,,,,,,,,,t,3.657999992,T,FALSE,,,,,,,33,dedo,Spanish,Sounds/spa_dedo.mp3,2020-06-04_21h14.10.671,TranslationElicitation_eng-prolific,3.2.4,MacIntel,60,5e52fa4bc6506d30c686471e,,1,0,98,29,1,97
,,,,,,,,,,,,,,,,,,,,,,,,,,,,,,,,,,,,,,,,,a,3.842999935,TA,FALSE,,,,,,,33,dedo,Spanish,Sounds/spa_dedo.mp3,2020-06-04_21h14.10.671,TranslationElicitation_eng-prolific,3.2.4,MacIntel,60,5e52fa4bc6506d30c686471e,,1,0,98,29,1,97
,,,,,,,,,,,,,,,,,,,,,,,,,,,,,,,,,,,,,,,,,b,4.008999825,TAB,FALSE,,,,,,,33,dedo,Spanish,Sounds/spa_dedo.mp3,2020-06-04_21h14.10.671,TranslationElicitation_eng-prolific,3.2.4,MacIntel,60,5e52fa4bc6506d30c686471e,,1,0,98,29,1,97
,,,,,,,,,,,,,,,,,,,,,,,,,,,,,,,,,,,,,,,,,l,4.126999855,TABL,FALSE,,,,,,,33,dedo,Spanish,Sounds/spa_dedo.mp3,2020-06-04_21h14.10.671,TranslationElicitation_eng-prolific,3.2.4,MacIntel,60,5e52fa4bc6506d30c686471e,,1,0,98,29,1,97
,,,,,,,,,,,,,,,,,,,,,,,,,,,,,,,,,,,,,,,,,e,4.57799983,TABLE,FALSE,,,,,,,33,dedo,Spanish,Sounds/spa_dedo.mp3,2020-06-04_21h14.10.671,TranslationElicitation_eng-prolific,3.2.4,MacIntel,60,5e52fa4bc6506d30c686471e,,1,0,98,29,1,97
,,,,,,,,,,,,,,,,,,,,,,,,,,,,,,,,,,,,,,,,,return,4.745999813,TABLE,FALSE,,,,,,,33,dedo,Spanish,Sounds/spa_dedo.mp3,2020-06-04_21h14.10.671,TranslationElicitation_eng-prolific,3.2.4,MacIntel,60,5e52fa4bc6506d30c686471e,4.745999813,1,0,98,29,1,97
,,,,,,,,,,,,,,,,,,,,,,,,,,,,,,,,,,,,,,,,,,,,,,,,,,,33,dedo,Spanish,Sounds/spa_dedo.mp3,2020-06-04_21h14.10.671,TranslationElicitation_eng-prolific,3.2.4,MacIntel,60,5e52fa4bc6506d30c686471e,,1,0,98,29,1,97
,,,,,,,,,,,,,,,,,,,,,,,,,,,,,,,,,,,,,,,,,n,4.211999893,N,FALSE,,,,,,,69,nariz,Spanish,Sounds/spa_nariz.mp3,2020-06-04_21h14.10.671,TranslationElicitation_eng-prolific,3.2.4,MacIntel,60,5e52fa4bc6506d30c686471e,,1,0,98,65,1,97
,,,,,,,,,,,,,,,,,,,,,,,,,,,,,,,,,,,,,,,,,i,4.344000101,NI,FALSE,,,,,,,69,nariz,Spanish,Sounds/spa_nariz.mp3,2020-06-04_21h14.10.671,TranslationElicitation_eng-prolific,3.2.4,MacIntel,60,5e52fa4bc6506d30c686471e,,1,0,98,65,1,97
,,,,,,,,,,,,,,,,,,,,,,,,,,,,,,,,,,,,,,,,,g,4.463000059,NIG,FALSE,,,,,,,69,nariz,Spanish,Sounds/spa_nariz.mp3,2020-06-04_21h14.10.671,TranslationElicitation_eng-prolific,3.2.4,MacIntel,60,5e52fa4bc6506d30c686471e,,1,0,98,65,1,97
,,,,,,,,,,,,,,,,,,,,,,,,,,,,,,,,,,,,,,,,,h,4.545000076,NIGH,FALSE,,,,,,,69,nariz,Spanish,Sounds/spa_nariz.mp3,2020-06-04_21h14.10.671,TranslationElicitation_eng-prolific,3.2.4,MacIntel,60,5e52fa4bc6506d30c686471e,,1,0,98,65,1,97
,,,,,,,,,,,,,,,,,,,,,,,,,,,,,,,,,,,,,,,,,t,4.645999908,NIGHT,FALSE,,,,,,,69,nariz,Spanish,Sounds/spa_nariz.mp3,2020-06-04_21h14.10.671,TranslationElicitation_eng-prolific,3.2.4,MacIntel,60,5e52fa4bc6506d30c686471e,,1,0,98,65,1,97
,,,,,,,,,,,,,,,,,,,,,,,,,,,,,,,,,,,,,,,,,space,5.071000099,NIGHT ,FALSE,,,,,,,69,nariz,Spanish,Sounds/spa_nariz.mp3,2020-06-04_21h14.10.671,TranslationElicitation_eng-prolific,3.2.4,MacIntel,60,5e52fa4bc6506d30c686471e,,1,0,98,65,1,97
,,,,,,,,,,,,,,,,,,,,,,,,,,,,,,,,,,,,,,,,,t,5.130000114,NIGHT T,FALSE,,,,,,,69,nariz,Spanish,Sounds/spa_nariz.mp3,2020-06-04_21h14.10.671,TranslationElicitation_eng-prolific,3.2.4,MacIntel,60,5e52fa4bc6506d30c686471e,,1,0,98,65,1,97
,,,,,,,,,,,,,,,,,,,,,,,,,,,,,,,,,,,,,,,,,i,5.213999987,NIGHT TI,FALSE,,,,,,,69,nariz,Spanish,Sounds/spa_nariz.mp3,2020-06-04_21h14.10.671,TranslationElicitation_eng-prolific,3.2.4,MacIntel,60,5e52fa4bc6506d30c686471e,,1,0,98,65,1,97
,,,,,,,,,,,,,,,,,,,,,,,,,,,,,,,,,,,,,,,,,m,5.364000082,NIGHT TIM,FALSE,,,,,,,69,nariz,Spanish,Sounds/spa_nariz.mp3,2020-06-04_21h14.10.671,TranslationElicitation_eng-prolific,3.2.4,MacIntel,60,5e52fa4bc6506d30c686471e,,1,0,98,65,1,97
,,,,,,,,,,,,,,,,,,,,,,,,,,,,,,,,,,,,,,,,,e,5.447000027,NIGHT TIME,FALSE,,,,,,,69,nariz,Spanish,Sounds/spa_nariz.mp3,2020-06-04_21h14.10.671,TranslationElicitation_eng-prolific,3.2.4,MacIntel,60,5e52fa4bc6506d30c686471e,,1,0,98,65,1,97
,,,,,,,,,,,,,,,,,,,,,,,,,,,,,,,,,,,,,,,,,return,5.598999977,NIGHT TIME,FALSE,,,,,,,69,nariz,Spanish,Sounds/spa_nariz.mp3,2020-06-04_21h14.10.671,TranslationElicitation_eng-prolific,3.2.4,MacIntel,60,5e52fa4bc6506d30c686471e,5.598999977,1,0,98,65,1,97
,,,,,,,,,,,,,,,,,,,,,,,,,,,,,,,,,,,,,,,,,,,,,,,,,,,69,nariz,Spanish,Sounds/spa_nariz.mp3,2020-06-04_21h14.10.671,TranslationElicitation_eng-prolific,3.2.4,MacIntel,60,5e52fa4bc6506d30c686471e,,1,0,98,65,1,97
,,,,,,,,,,,,,,,,,,,,,,,,,,,,,,,,,,,,,,,,,p,1.821000099,P,FALSE,,,,,,,86,pingüino,Spanish,Sounds/spa_pinguino.mp3,2020-06-04_21h14.10.671,TranslationElicitation_eng-prolific,3.2.4,MacIntel,60,5e52fa4bc6506d30c686471e,,1,0,98,81,1,97
,,,,,,,,,,,,,,,,,,,,,,,,,,,,,,,,,,,,,,,,,e,2.020999908,PE,FALSE,,,,,,,86,pingüino,Spanish,Sounds/spa_pinguino.mp3,2020-06-04_21h14.10.671,TranslationElicitation_eng-prolific,3.2.4,MacIntel,60,5e52fa4bc6506d30c686471e,,1,0,98,81,1,97
,,,,,,,,,,,,,,,,,,,,,,,,,,,,,,,,,,,,,,,,,n,2.155999899,PEN,FALSE,,,,,,,86,pingüino,Spanish,Sounds/spa_pinguino.mp3,2020-06-04_21h14.10.671,TranslationElicitation_eng-prolific,3.2.4,MacIntel,60,5e52fa4bc6506d30c686471e,,1,0,98,81,1,97
,,,,,,,,,,,,,,,,,,,,,,,,,,,,,,,,,,,,,,,,,g,2.421999931,PENG,FALSE,,,,,,,86,pingüino,Spanish,Sounds/spa_pinguino.mp3,2020-06-04_21h14.10.671,TranslationElicitation_eng-prolific,3.2.4,MacIntel,60,5e52fa4bc6506d30c686471e,,1,0,98,81,1,97
,,,,,,,,,,,,,,,,,,,,,,,,,,,,,,,,,,,,,,,,,u,2.588999987,PENGU,FALSE,,,,,,,86,pingüino,Spanish,Sounds/spa_pinguino.mp3,2020-06-04_21h14.10.671,TranslationElicitation_eng-prolific,3.2.4,MacIntel,60,5e52fa4bc6506d30c686471e,,1,0,98,81,1,97
,,,,,,,,,,,,,,,,,,,,,,,,,,,,,,,,,,,,,,,,,i,3.105999947,PENGUI,FALSE,,,,,,,86,pingüino,Spanish,Sounds/spa_pinguino.mp3,2020-06-04_21h14.10.671,TranslationElicitation_eng-prolific,3.2.4,MacIntel,60,5e52fa4bc6506d30c686471e,,1,0,98,81,1,97
,,,,,,,,,,,,,,,,,,,,,,,,,,,,,,,,,,,,,,,,,m,3.256999969,PENGUIM,FALSE,,,,,,,86,pingüino,Spanish,Sounds/spa_pinguino.mp3,2020-06-04_21h14.10.671,TranslationElicitation_eng-prolific,3.2.4,MacIntel,60,5e52fa4bc6506d30c686471e,,1,0,98,81,1,97
,,,,,,,,,,,,,,,,,,,,,,,,,,,,,,,,,,,,,,,,,backspace,3.993000031,PENGUI,TRUE,,,,,,,86,pingüino,Spanish,Sounds/spa_pinguino.mp3,2020-06-04_21h14.10.671,TranslationElicitation_eng-prolific,3.2.4,MacIntel,60,5e52fa4bc6506d30c686471e,,1,0,98,81,1,97
,,,,,,,,,,,,,,,,,,,,,,,,,,,,,,,,,,,,,,,,,n,4.042000055,PENGUIN,TRUE,,,,,,,86,pingüino,Spanish,Sounds/spa_pinguino.mp3,2020-06-04_21h14.10.671,TranslationElicitation_eng-prolific,3.2.4,MacIntel,60,5e52fa4bc6506d30c686471e,,1,0,98,81,1,97
,,,,,,,,,,,,,,,,,,,,,,,,,,,,,,,,,,,,,,,,,o,4.154999971,PENGUINO,TRUE,,,,,,,86,pingüino,Spanish,Sounds/spa_pinguino.mp3,2020-06-04_21h14.10.671,TranslationElicitation_eng-prolific,3.2.4,MacIntel,60,5e52fa4bc6506d30c686471e,,1,0,98,81,1,97
,,,,,,,,,,,,,,,,,,,,,,,,,,,,,,,,,,,,,,,,,backspace,4.54399991,PENGUIN,TRUE,,,,,,,86,pingüino,Spanish,Sounds/spa_pinguino.mp3,2020-06-04_21h14.10.671,TranslationElicitation_eng-prolific,3.2.4,MacIntel,60,5e52fa4bc6506d30c686471e,,1,0,98,81,1,97
,,,,,,,,,,,,,,,,,,,,,,,,,,,,,,,,,,,,,,,,,return,5.730999947,PENGUIN,TRUE,,,,,,,86,pingüino,Spanish,Sounds/spa_pinguino.mp3,2020-06-04_21h14.10.671,TranslationElicitation_eng-prolific,3.2.4,MacIntel,60,5e52fa4bc6506d30c686471e,5.730999947,1,0,98,81,1,97
,,,,,,,,,,,,,,,,,,,,,,,,,,,,,,,,,,,,,,,,,,,,,,,,,,,86,pingüino,Spanish,Sounds/spa_pinguino.mp3,2020-06-04_21h14.10.671,TranslationElicitation_eng-prolific,3.2.4,MacIntel,60,5e52fa4bc6506d30c686471e,,1,0,98,81,1,97
,,,,,,,,,,,,,,,,,,,,,,,,,,,,,,,,,,,,,,,,,c,6.049999952,C,FALSE,,,,,,,16,caja,Spanish,Sounds/spa_caja.mp3,2020-06-04_21h14.10.671,TranslationElicitation_eng-prolific,3.2.4,MacIntel,60,5e52fa4bc6506d30c686471e,,1,0,98,14,1,97
,,,,,,,,,,,,,,,,,,,,,,,,,,,,,,,,,,,,,,,,,a,6.184000015,CA,FALSE,,,,,,,16,caja,Spanish,Sounds/spa_caja.mp3,2020-06-04_21h14.10.671,TranslationElicitation_eng-prolific,3.2.4,MacIntel,60,5e52fa4bc6506d30c686471e,,1,0,98,14,1,97
,,,,,,,,,,,,,,,,,,,,,,,,,,,,,,,,,,,,,,,,,r,6.332999945,CAR,FALSE,,,,,,,16,caja,Spanish,Sounds/spa_caja.mp3,2020-06-04_21h14.10.671,TranslationElicitation_eng-prolific,3.2.4,MacIntel,60,5e52fa4bc6506d30c686471e,,1,0,98,14,1,97
,,,,,,,,,,,,,,,,,,,,,,,,,,,,,,,,,,,,,,,,,return,6.551000118,CAR,FALSE,,,,,,,16,caja,Spanish,Sounds/spa_caja.mp3,2020-06-04_21h14.10.671,TranslationElicitation_eng-prolific,3.2.4,MacIntel,60,5e52fa4bc6506d30c686471e,6.551000118,1,0,98,14,1,97
,,,,,,,,,,,,,,,,,,,,,,,,,,,,,,,,,,,,,,,,,,,,,,,,,,,16,caja,Spanish,Sounds/spa_caja.mp3,2020-06-04_21h14.10.671,TranslationElicitation_eng-prolific,3.2.4,MacIntel,60,5e52fa4bc6506d30c686471e,,1,0,98,14,1,97
,,,,,,,,,,,,,,,,,,,,,,,,,,,,,,,,,,,,,,,,,p,2.589999914,P,FALSE,,,,,,,80,pato,Spanish,Sounds/spa_pato.mp3,2020-06-04_21h14.10.671,TranslationElicitation_eng-prolific,3.2.4,MacIntel,60,5e52fa4bc6506d30c686471e,,1,0,98,75,1,97
,,,,,,,,,,,,,,,,,,,,,,,,,,,,,,,,,,,,,,,,,a,2.656999826,PA,FALSE,,,,,,,80,pato,Spanish,Sounds/spa_pato.mp3,2020-06-04_21h14.10.671,TranslationElicitation_eng-prolific,3.2.4,MacIntel,60,5e52fa4bc6506d30c686471e,,1,0,98,75,1,97
,,,,,,,,,,,,,,,,,,,,,,,,,,,,,,,,,,,,,,,,,i,2.923999786,PAI,FALSE,,,,,,,80,pato,Spanish,Sounds/spa_pato.mp3,2020-06-04_21h14.10.671,TranslationElicitation_eng-prolific,3.2.4,MacIntel,60,5e52fa4bc6506d30c686471e,,1,0,98,75,1,97
,,,,,,,,,,,,,,,,,,,,,,,,,,,,,,,,,,,,,,,,,backspace,3.190999985,PA,TRUE,,,,,,,80,pato,Spanish,Sounds/spa_pato.mp3,2020-06-04_21h14.10.671,TranslationElicitation_eng-prolific,3.2.4,MacIntel,60,5e52fa4bc6506d30c686471e,,1,0,98,75,1,97
,,,,,,,,,,,,,,,,,,,,,,,,,,,,,,,,,,,,,,,,,t,3.258999825,PAT,TRUE,,,,,,,80,pato,Spanish,Sounds/spa_pato.mp3,2020-06-04_21h14.10.671,TranslationElicitation_eng-prolific,3.2.4,MacIntel,60,5e52fa4bc6506d30c686471e,,1,0,98,75,1,97
,,,,,,,,,,,,,,,,,,,,,,,,,,,,,,,,,,,,,,,,,o,3.423999786,PATO,TRUE,,,,,,,80,pato,Spanish,Sounds/spa_pato.mp3,2020-06-04_21h14.10.671,TranslationElicitation_eng-prolific,3.2.4,MacIntel,60,5e52fa4bc6506d30c686471e,,1,0,98,75,1,97
,,,,,,,,,,,,,,,,,,,,,,,,,,,,,,,,,,,,,,,,,backspace,3.776000023,PAT,TRUE,,,,,,,80,pato,Spanish,Sounds/spa_pato.mp3,2020-06-04_21h14.10.671,TranslationElicitation_eng-prolific,3.2.4,MacIntel,60,5e52fa4bc6506d30c686471e,,1,0,98,75,1,97
,,,,,,,,,,,,,,,,,,,,,,,,,,,,,,,,,,,,,,,,,i,3.941999912,PATI,TRUE,,,,,,,80,pato,Spanish,Sounds/spa_pato.mp3,2020-06-04_21h14.10.671,TranslationElicitation_eng-prolific,3.2.4,MacIntel,60,5e52fa4bc6506d30c686471e,,1,0,98,75,1,97
,,,,,,,,,,,,,,,,,,,,,,,,,,,,,,,,,,,,,,,,,o,4.110999823,PATIO,TRUE,,,,,,,80,pato,Spanish,Sounds/spa_pato.mp3,2020-06-04_21h14.10.671,TranslationElicitation_eng-prolific,3.2.4,MacIntel,60,5e52fa4bc6506d30c686471e,,1,0,98,75,1,97
,,,,,,,,,,,,,,,,,,,,,,,,,,,,,,,,,,,,,,,,,return,4.32799983,PATIO,TRUE,,,,,,,80,pato,Spanish,Sounds/spa_pato.mp3,2020-06-04_21h14.10.671,TranslationElicitation_eng-prolific,3.2.4,MacIntel,60,5e52fa4bc6506d30c686471e,4.32799983,1,0,98,75,1,97
,,,,,,,,,,,,,,,,,,,,,,,,,,,,,,,,,,,,,,,,,,,,,,,,,,,80,pato,Spanish,Sounds/spa_pato.mp3,2020-06-04_21h14.10.671,TranslationElicitation_eng-prolific,3.2.4,MacIntel,60,5e52fa4bc6506d30c686471e,,1,0,98,75,1,97
,,,,,,,,,,,,,,,,,,,,,,,,,,,,,,,,,,,,,,,,,f,30.96599984,F,FALSE,,,,,,,50,jirafa,Spanish,Sounds/spa_jirafa.mp3,2020-06-04_21h14.10.671,TranslationElicitation_eng-prolific,3.2.4,MacIntel,60,5e52fa4bc6506d30c686471e,,1,0,98,46,1,97
,,,,,,,,,,,,,,,,,,,,,,,,,,,,,,,,,,,,,,,,,a,31.14999986,FA,FALSE,,,,,,,50,jirafa,Spanish,Sounds/spa_jirafa.mp3,2020-06-04_21h14.10.671,TranslationElicitation_eng-prolific,3.2.4,MacIntel,60,5e52fa4bc6506d30c686471e,,1,0,98,46,1,97
,,,,,,,,,,,,,,,,,,,,,,,,,,,,,,,,,,,,,,,,,r,31.28499985,FAR,FALSE,,,,,,,50,jirafa,Spanish,Sounds/spa_jirafa.mp3,2020-06-04_21h14.10.671,TranslationElicitation_eng-prolific,3.2.4,MacIntel,60,5e52fa4bc6506d30c686471e,,1,0,98,46,1,97
,,,,,,,,,,,,,,,,,,,,,,,,,,,,,,,,,,,,,,,,,return,31.46899986,FAR,FALSE,,,,,,,50,jirafa,Spanish,Sounds/spa_jirafa.mp3,2020-06-04_21h14.10.671,TranslationElicitation_eng-prolific,3.2.4,MacIntel,60,5e52fa4bc6506d30c686471e,31.46899986,1,0,98,46,1,97
,,,,,,,,,,,,,,,,,,,,,,,,,,,,,,,,,,,,,,,,,,,,,,,,,,,50,jirafa,Spanish,Sounds/spa_jirafa.mp3,2020-06-04_21h14.10.671,TranslationElicitation_eng-prolific,3.2.4,MacIntel,60,5e52fa4bc6506d30c686471e,,1,0,98,46,1,97
,,,,,,,,,,,,,,,,,,,,,,,,,,,,,,,,,,,,,,,,,b,10.12899995,B,FALSE,,,,,,,5,bici,Spanish,Sounds/spa_bici.mp3,2020-06-04_21h14.10.671,TranslationElicitation_eng-prolific,3.2.4,MacIntel,60,5e52fa4bc6506d30c686471e,,1,0,98,3,1,97
,,,,,,,,,,,,,,,,,,,,,,,,,,,,,,,,,,,,,,,,,u,10.30999994,BU,FALSE,,,,,,,5,bici,Spanish,Sounds/spa_bici.mp3,2020-06-04_21h14.10.671,TranslationElicitation_eng-prolific,3.2.4,MacIntel,60,5e52fa4bc6506d30c686471e,,1,0,98,3,1,97
,,,,,,,,,,,,,,,,,,,,,,,,,,,,,,,,,,,,,,,,,s,10.41199994,BUS,FALSE,,,,,,,5,bici,Spanish,Sounds/spa_bici.mp3,2020-06-04_21h14.10.671,TranslationElicitation_eng-prolific,3.2.4,MacIntel,60,5e52fa4bc6506d30c686471e,,1,0,98,3,1,97
,,,,,,,,,,,,,,,,,,,,,,,,,,,,,,,,,,,,,,,,,y,10.51099992,BUSY,FALSE,,,,,,,5,bici,Spanish,Sounds/spa_bici.mp3,2020-06-04_21h14.10.671,TranslationElicitation_eng-prolific,3.2.4,MacIntel,60,5e52fa4bc6506d30c686471e,,1,0,98,3,1,97
,,,,,,,,,,,,,,,,,,,,,,,,,,,,,,,,,,,,,,,,,return,10.77799988,BUSY,FALSE,,,,,,,5,bici,Spanish,Sounds/spa_bici.mp3,2020-06-04_21h14.10.671,TranslationElicitation_eng-prolific,3.2.4,MacIntel,60,5e52fa4bc6506d30c686471e,10.77799988,1,0,98,3,1,97
,,,,,,,,,,,,,,,,,,,,,,,,,,,,,,,,,,,,,,,,,,,,,,,,,,,5,bici,Spanish,Sounds/spa_bici.mp3,2020-06-04_21h14.10.671,TranslationElicitation_eng-prolific,3.2.4,MacIntel,60,5e52fa4bc6506d30c686471e,,1,0,98,3,1,97
,,,,,,,,,,,,,,,,,,,,,,,,,,,,,,,,,,,,,,,,,l,2.671999931,L,FALSE,,,,,,,71,ombligo,Spanish,Sounds/spa_ombligo.mp3,2020-06-04_21h14.10.671,TranslationElicitation_eng-prolific,3.2.4,MacIntel,60,5e52fa4bc6506d30c686471e,,1,0,98,66,1,97
,,,,,,,,,,,,,,,,,,,,,,,,,,,,,,,,,,,,,,,,,o,2.807999849,LO,FALSE,,,,,,,71,ombligo,Spanish,Sounds/spa_ombligo.mp3,2020-06-04_21h14.10.671,TranslationElicitation_eng-prolific,3.2.4,MacIntel,60,5e52fa4bc6506d30c686471e,,1,0,98,66,1,97
,,,,,,,,,,,,,,,,,,,,,,,,,,,,,,,,,,,,,,,,,n,3.007999897,LON,FALSE,,,,,,,71,ombligo,Spanish,Sounds/spa_ombligo.mp3,2020-06-04_21h14.10.671,TranslationElicitation_eng-prolific,3.2.4,MacIntel,60,5e52fa4bc6506d30c686471e,,1,0,98,66,1,97
,,,,,,,,,,,,,,,,,,,,,,,,,,,,,,,,,,,,,,,,,g,3.157999992,LONG,FALSE,,,,,,,71,ombligo,Spanish,Sounds/spa_ombligo.mp3,2020-06-04_21h14.10.671,TranslationElicitation_eng-prolific,3.2.4,MacIntel,60,5e52fa4bc6506d30c686471e,,1,0,98,66,1,97
,,,,,,,,,,,,,,,,,,,,,,,,,,,,,,,,,,,,,,,,,return,3.340999842,LONG,FALSE,,,,,,,71,ombligo,Spanish,Sounds/spa_ombligo.mp3,2020-06-04_21h14.10.671,TranslationElicitation_eng-prolific,3.2.4,MacIntel,60,5e52fa4bc6506d30c686471e,3.340999842,1,0,98,66,1,97
,,,,,,,,,,,,,,,,,,,,,,,,,,,,,,,,,,,,,,,,,,,,,,,,,,,71,ombligo,Spanish,Sounds/spa_ombligo.mp3,2020-06-04_21h14.10.671,TranslationElicitation_eng-prolific,3.2.4,MacIntel,60,5e52fa4bc6506d30c686471e,,1,0,98,66,1,97
,,,,,,,,,,,,,,,,,,,,,,,,,,,,,,,,,,,,,,,,,l,1.534999847,L,FALSE,,,,,,,57,loro,Spanish,Sounds/spa_loro.mp3,2020-06-04_21h14.10.671,TranslationElicitation_eng-prolific,3.2.4,MacIntel,60,5e52fa4bc6506d30c686471e,,1,0,98,53,1,97
,,,,,,,,,,,,,,,,,,,,,,,,,,,,,,,,,,,,,,,,,o,1.70299983,LO,FALSE,,,,,,,57,loro,Spanish,Sounds/spa_loro.mp3,2020-06-04_21h14.10.671,TranslationElicitation_eng-prolific,3.2.4,MacIntel,60,5e52fa4bc6506d30c686471e,,1,0,98,53,1,97
,,,,,,,,,,,,,,,,,,,,,,,,,,,,,,,,,,,,,,,,,a,1.836999893,LOA,FALSE,,,,,,,57,loro,Spanish,Sounds/spa_loro.mp3,2020-06-04_21h14.10.671,TranslationElicitation_eng-prolific,3.2.4,MacIntel,60,5e52fa4bc6506d30c686471e,,1,0,98,53,1,97
,,,,,,,,,,,,,,,,,,,,,,,,,,,,,,,,,,,,,,,,,d,2.037999868,LOAD,FALSE,,,,,,,57,loro,Spanish,Sounds/spa_loro.mp3,2020-06-04_21h14.10.671,TranslationElicitation_eng-prolific,3.2.4,MacIntel,60,5e52fa4bc6506d30c686471e,,1,0,98,53,1,97
,,,,,,,,,,,,,,,,,,,,,,,,,,,,,,,,,,,,,,,,,return,2.289000034,LOAD,FALSE,,,,,,,57,loro,Spanish,Sounds/spa_loro.mp3,2020-06-04_21h14.10.671,TranslationElicitation_eng-prolific,3.2.4,MacIntel,60,5e52fa4bc6506d30c686471e,2.289000034,1,0,98,53,1,97
,,,,,,,,,,,,,,,,,,,,,,,,,,,,,,,,,,,,,,,,,,,,,,,,,,,57,loro,Spanish,Sounds/spa_loro.mp3,2020-06-04_21h14.10.671,TranslationElicitation_eng-prolific,3.2.4,MacIntel,60,5e52fa4bc6506d30c686471e,,1,0,98,53,1,97
,,,,,,,,,,,,,,,,,,,,,,,,,,,,,,,,,,,,,,,,,y,1.386000156,Y,FALSE,,,,,,,84,pie,Spanish,Sounds/spa_pie.mp3,2020-06-04_21h14.10.671,TranslationElicitation_eng-prolific,3.2.4,MacIntel,60,5e52fa4bc6506d30c686471e,,1,0,98,79,1,97
,,,,,,,,,,,,,,,,,,,,,,,,,,,,,,,,,,,,,,,,,e,1.486999989,YE,FALSE,,,,,,,84,pie,Spanish,Sounds/spa_pie.mp3,2020-06-04_21h14.10.671,TranslationElicitation_eng-prolific,3.2.4,MacIntel,60,5e52fa4bc6506d30c686471e,,1,0,98,79,1,97
,,,,,,,,,,,,,,,,,,,,,,,,,,,,,,,,,,,,,,,,,s,1.637000084,YES,FALSE,,,,,,,84,pie,Spanish,Sounds/spa_pie.mp3,2020-06-04_21h14.10.671,TranslationElicitation_eng-prolific,3.2.4,MacIntel,60,5e52fa4bc6506d30c686471e,,1,0,98,79,1,97
,,,,,,,,,,,,,,,,,,,,,,,,,,,,,,,,,,,,,,,,,return,1.753000021,YES,FALSE,,,,,,,84,pie,Spanish,Sounds/spa_pie.mp3,2020-06-04_21h14.10.671,TranslationElicitation_eng-prolific,3.2.4,MacIntel,60,5e52fa4bc6506d30c686471e,1.753000021,1,0,98,79,1,97
,,,,,,,,,,,,,,,,,,,,,,,,,,,,,,,,,,,,,,,,,,,,,,,,,,,84,pie,Spanish,Sounds/spa_pie.mp3,2020-06-04_21h14.10.671,TranslationElicitation_eng-prolific,3.2.4,MacIntel,60,5e52fa4bc6506d30c686471e,,1,0,98,79,1,97
,,,,,,,,,,,,,,,,,,,,,,,,,,,,,,,,,,,,,,,,,k,2.054999828,K,FALSE,,,,,,,40,galleta,Spanish,Sounds/spa_galleta.mp3,2020-06-04_21h14.10.671,TranslationElicitation_eng-prolific,3.2.4,MacIntel,60,5e52fa4bc6506d30c686471e,,1,0,98,36,1,97
,,,,,,,,,,,,,,,,,,,,,,,,,,,,,,,,,,,,,,,,,i,2.220999956,KI,FALSE,,,,,,,40,galleta,Spanish,Sounds/spa_galleta.mp3,2020-06-04_21h14.10.671,TranslationElicitation_eng-prolific,3.2.4,MacIntel,60,5e52fa4bc6506d30c686471e,,1,0,98,36,1,97
,,,,,,,,,,,,,,,,,,,,,,,,,,,,,,,,,,,,,,,,,t,2.303999901,KIT,FALSE,,,,,,,40,galleta,Spanish,Sounds/spa_galleta.mp3,2020-06-04_21h14.10.671,TranslationElicitation_eng-prolific,3.2.4,MacIntel,60,5e52fa4bc6506d30c686471e,,1,0,98,36,1,97
,,,,,,,,,,,,,,,,,,,,,,,,,,,,,,,,,,,,,,,,,e,2.438999891,KITE,FALSE,,,,,,,40,galleta,Spanish,Sounds/spa_galleta.mp3,2020-06-04_21h14.10.671,TranslationElicitation_eng-prolific,3.2.4,MacIntel,60,5e52fa4bc6506d30c686471e,,1,0,98,36,1,97
,,,,,,,,,,,,,,,,,,,,,,,,,,,,,,,,,,,,,,,,,return,2.566999912,KITE,FALSE,,,,,,,40,galleta,Spanish,Sounds/spa_galleta.mp3,2020-06-04_21h14.10.671,TranslationElicitation_eng-prolific,3.2.4,MacIntel,60,5e52fa4bc6506d30c686471e,2.566999912,1,0,98,36,1,97
,,,,,,,,,,,,,,,,,,,,,,,,,,,,,,,,,,,,,,,,,,,,,,,,,,,40,galleta,Spanish,Sounds/spa_galleta.mp3,2020-06-04_21h14.10.671,TranslationElicitation_eng-prolific,3.2.4,MacIntel,60,5e52fa4bc6506d30c686471e,,1,0,98,36,1,97
,,,,,,,,,,,,,,,,,,,,,,,,,,,,,,,,,,,,,,,,,a,1.720999956,A,FALSE,,,,,,,92,sandwich,Spanish,Sounds/spa_sandwich.mp3,2020-06-04_21h14.10.671,TranslationElicitation_eng-prolific,3.2.4,MacIntel,60,5e52fa4bc6506d30c686471e,,1,0,98,87,1,97
,,,,,,,,,,,,,,,,,,,,,,,,,,,,,,,,,,,,,,,,,n,1.822999954,AN,FALSE,,,,,,,92,sandwich,Spanish,Sounds/spa_sandwich.mp3,2020-06-04_21h14.10.671,TranslationElicitation_eng-prolific,3.2.4,MacIntel,60,5e52fa4bc6506d30c686471e,,1,0,98,87,1,97
,,,,,,,,,,,,,,,,,,,,,,,,,,,,,,,,,,,,,,,,,d,1.921000004,AND,FALSE,,,,,,,92,sandwich,Spanish,Sounds/spa_sandwich.mp3,2020-06-04_21h14.10.671,TranslationElicitation_eng-prolific,3.2.4,MacIntel,60,5e52fa4bc6506d30c686471e,,1,0,98,87,1,97
,,,,,,,,,,,,,,,,,,,,,,,,,,,,,,,,,,,,,,,,,backspace,2.273000002,AN,TRUE,,,,,,,92,sandwich,Spanish,Sounds/spa_sandwich.mp3,2020-06-04_21h14.10.671,TranslationElicitation_eng-prolific,3.2.4,MacIntel,60,5e52fa4bc6506d30c686471e,,1,0,98,87,1,97
,,,,,,,,,,,,,,,,,,,,,,,,,,,,,,,,,,,,,,,,,backspace,2.406000137,A,TRUE,,,,,,,92,sandwich,Spanish,Sounds/spa_sandwich.mp3,2020-06-04_21h14.10.671,TranslationElicitation_eng-prolific,3.2.4,MacIntel,60,5e52fa4bc6506d30c686471e,,1,0,98,87,1,97
,,,,,,,,,,,,,,,,,,,,,,,,,,,,,,,,,,,,,,,,,backspace,2.524000168,,TRUE,,,,,,,92,sandwich,Spanish,Sounds/spa_sandwich.mp3,2020-06-04_21h14.10.671,TranslationElicitation_eng-prolific,3.2.4,MacIntel,60,5e52fa4bc6506d30c686471e,,1,0,98,87,1,97
,,,,,,,,,,,,,,,,,,,,,,,,,,,,,,,,,,,,,,,,,backspace,2.657000065,,TRUE,,,,,,,92,sandwich,Spanish,Sounds/spa_sandwich.mp3,2020-06-04_21h14.10.671,TranslationElicitation_eng-prolific,3.2.4,MacIntel,60,5e52fa4bc6506d30c686471e,,1,0,98,87,1,97
,,,,,,,,,,,,,,,,,,,,,,,,,,,,,,,,,,,,,,,,,s,2.72300005,S,TRUE,,,,,,,92,sandwich,Spanish,Sounds/spa_sandwich.mp3,2020-06-04_21h14.10.671,TranslationElicitation_eng-prolific,3.2.4,MacIntel,60,5e52fa4bc6506d30c686471e,,1,0,98,87,1,97
,,,,,,,,,,,,,,,,,,,,,,,,,,,,,,,,,,,,,,,,,a,2.840000153,SA,TRUE,,,,,,,92,sandwich,Spanish,Sounds/spa_sandwich.mp3,2020-06-04_21h14.10.671,TranslationElicitation_eng-prolific,3.2.4,MacIntel,60,5e52fa4bc6506d30c686471e,,1,0,98,87,1,97
,,,,,,,,,,,,,,,,,,,,,,,,,,,,,,,,,,,,,,,,,n,2.96600008,SAN,TRUE,,,,,,,92,sandwich,Spanish,Sounds/spa_sandwich.mp3,2020-06-04_21h14.10.671,TranslationElicitation_eng-prolific,3.2.4,MacIntel,60,5e52fa4bc6506d30c686471e,,1,0,98,87,1,97
,,,,,,,,,,,,,,,,,,,,,,,,,,,,,,,,,,,,,,,,,d,3.042000055,SAND,TRUE,,,,,,,92,sandwich,Spanish,Sounds/spa_sandwich.mp3,2020-06-04_21h14.10.671,TranslationElicitation_eng-prolific,3.2.4,MacIntel,60,5e52fa4bc6506d30c686471e,,1,0,98,87,1,97
,,,,,,,,,,,,,,,,,,,,,,,,,,,,,,,,,,,,,,,,,w,3.276000023,SANDW,TRUE,,,,,,,92,sandwich,Spanish,Sounds/spa_sandwich.mp3,2020-06-04_21h14.10.671,TranslationElicitation_eng-prolific,3.2.4,MacIntel,60,5e52fa4bc6506d30c686471e,,1,0,98,87,1,97
,,,,,,,,,,,,,,,,,,,,,,,,,,,,,,,,,,,,,,,,,i,3.39199996,SANDWI,TRUE,,,,,,,92,sandwich,Spanish,Sounds/spa_sandwich.mp3,2020-06-04_21h14.10.671,TranslationElicitation_eng-prolific,3.2.4,MacIntel,60,5e52fa4bc6506d30c686471e,,1,0,98,87,1,97
,,,,,,,,,,,,,,,,,,,,,,,,,,,,,,,,,,,,,,,,,c,3.50999999,SANDWIC,TRUE,,,,,,,92,sandwich,Spanish,Sounds/spa_sandwich.mp3,2020-06-04_21h14.10.671,TranslationElicitation_eng-prolific,3.2.4,MacIntel,60,5e52fa4bc6506d30c686471e,,1,0,98,87,1,97
,,,,,,,,,,,,,,,,,,,,,,,,,,,,,,,,,,,,,,,,,h,3.593000174,SANDWICH,TRUE,,,,,,,92,sandwich,Spanish,Sounds/spa_sandwich.mp3,2020-06-04_21h14.10.671,TranslationElicitation_eng-prolific,3.2.4,MacIntel,60,5e52fa4bc6506d30c686471e,,1,0,98,87,1,97
,,,,,,,,,,,,,,,,,,,,,,,,,,,,,,,,,,,,,,,,,return,4.562999964,SANDWICH,TRUE,,,,,,,92,sandwich,Spanish,Sounds/spa_sandwich.mp3,2020-06-04_21h14.10.671,TranslationElicitation_eng-prolific,3.2.4,MacIntel,60,5e52fa4bc6506d30c686471e,4.562999964,1,0,98,87,1,97
,,,,,,,,,,,,,,,,,,,,,,,,,,,,,,,,,,,,,,,,,,,,,,,,,,,92,sandwich,Spanish,Sounds/spa_sandwich.mp3,2020-06-04_21h14.10.671,TranslationElicitation_eng-prolific,3.2.4,MacIntel,60,5e52fa4bc6506d30c686471e,,1,0,98,87,1,97
,,,,,,,,,,,,,,,,,,,,,,,,,,,,,,,,,,,,,,,,,b,1.686000109,B,FALSE,,,,,,,6,boca,Spanish,Sounds/spa_boca.mp3,2020-06-04_21h14.10.671,TranslationElicitation_eng-prolific,3.2.4,MacIntel,60,5e52fa4bc6506d30c686471e,,1,0,98,4,1,97
,,,,,,,,,,,,,,,,,,,,,,,,,,,,,,,,,,,,,,,,,o,1.802999973,BO,FALSE,,,,,,,6,boca,Spanish,Sounds/spa_boca.mp3,2020-06-04_21h14.10.671,TranslationElicitation_eng-prolific,3.2.4,MacIntel,60,5e52fa4bc6506d30c686471e,,1,0,98,4,1,97
,,,,,,,,,,,,,,,,,,,,,,,,,,,,,,,,,,,,,,,,,o,1.921000004,BOO,FALSE,,,,,,,6,boca,Spanish,Sounds/spa_boca.mp3,2020-06-04_21h14.10.671,TranslationElicitation_eng-prolific,3.2.4,MacIntel,60,5e52fa4bc6506d30c686471e,,1,0,98,4,1,97
,,,,,,,,,,,,,,,,,,,,,,,,,,,,,,,,,,,,,,,,,k,2.070000172,BOOK,FALSE,,,,,,,6,boca,Spanish,Sounds/spa_boca.mp3,2020-06-04_21h14.10.671,TranslationElicitation_eng-prolific,3.2.4,MacIntel,60,5e52fa4bc6506d30c686471e,,1,0,98,4,1,97
,,,,,,,,,,,,,,,,,,,,,,,,,,,,,,,,,,,,,,,,,return,2.305000067,BOOK,FALSE,,,,,,,6,boca,Spanish,Sounds/spa_boca.mp3,2020-06-04_21h14.10.671,TranslationElicitation_eng-prolific,3.2.4,MacIntel,60,5e52fa4bc6506d30c686471e,2.305000067,1,0,98,4,1,97
,,,,,,,,,,,,,,,,,,,,,,,,,,,,,,,,,,,,,,,,,,,,,,,,,,,6,boca,Spanish,Sounds/spa_boca.mp3,2020-06-04_21h14.10.671,TranslationElicitation_eng-prolific,3.2.4,MacIntel,60,5e52fa4bc6506d30c686471e,,1,0,98,4,1,97
,,,,,,,,,,,,,,,,,,,,,,,,,,,,,,,,,,,,,,,,,p,1.167999983,P,FALSE,,,,,,,75,pan,Spanish,Sounds/spa_pan.mp3,2020-06-04_21h14.10.671,TranslationElicitation_eng-prolific,3.2.4,MacIntel,60,5e52fa4bc6506d30c686471e,,1,0,98,70,1,97
,,,,,,,,,,,,,,,,,,,,,,,,,,,,,,,,,,,,,,,,,a,1.302000046,PA,FALSE,,,,,,,75,pan,Spanish,Sounds/spa_pan.mp3,2020-06-04_21h14.10.671,TranslationElicitation_eng-prolific,3.2.4,MacIntel,60,5e52fa4bc6506d30c686471e,,1,0,98,70,1,97
,,,,,,,,,,,,,,,,,,,,,,,,,,,,,,,,,,,,,,,,,n,1.403000116,PAN,FALSE,,,,,,,75,pan,Spanish,Sounds/spa_pan.mp3,2020-06-04_21h14.10.671,TranslationElicitation_eng-prolific,3.2.4,MacIntel,60,5e52fa4bc6506d30c686471e,,1,0,98,70,1,97
,,,,,,,,,,,,,,,,,,,,,,,,,,,,,,,,,,,,,,,,,return,1.620000124,PAN,FALSE,,,,,,,75,pan,Spanish,Sounds/spa_pan.mp3,2020-06-04_21h14.10.671,TranslationElicitation_eng-prolific,3.2.4,MacIntel,60,5e52fa4bc6506d30c686471e,1.620000124,1,0,98,70,1,97
,,,,,,,,,,,,,,,,,,,,,,,,,,,,,,,,,,,,,,,,,,,,,,,,,,,75,pan,Spanish,Sounds/spa_pan.mp3,2020-06-04_21h14.10.671,TranslationElicitation_eng-prolific,3.2.4,MacIntel,60,5e52fa4bc6506d30c686471e,,1,0,98,70,1,97
,,,,,,,,,,,,,,,,,,,,,,,,,,,,,,,,,,,,,,,,,d,1.001999855,D,FALSE,,,,,,,100,toro,Spanish,Sounds/spa_toro.mp3,2020-06-04_21h14.10.671,TranslationElicitation_eng-prolific,3.2.4,MacIntel,60,5e52fa4bc6506d30c686471e,,1,0,98,94,1,97
,,,,,,,,,,,,,,,,,,,,,,,,,,,,,,,,,,,,,,,,,o,1.085999966,DO,FALSE,,,,,,,100,toro,Spanish,Sounds/spa_toro.mp3,2020-06-04_21h14.10.671,TranslationElicitation_eng-prolific,3.2.4,MacIntel,60,5e52fa4bc6506d30c686471e,,1,0,98,94,1,97
,,,,,,,,,,,,,,,,,,,,,,,,,,,,,,,,,,,,,,,,,o,1.201999903,DOO,FALSE,,,,,,,100,toro,Spanish,Sounds/spa_toro.mp3,2020-06-04_21h14.10.671,TranslationElicitation_eng-prolific,3.2.4,MacIntel,60,5e52fa4bc6506d30c686471e,,1,0,98,94,1,97
,,,,,,,,,,,,,,,,,,,,,,,,,,,,,,,,,,,,,,,,,r,1.302999973,DOOR,FALSE,,,,,,,100,toro,Spanish,Sounds/spa_toro.mp3,2020-06-04_21h14.10.671,TranslationElicitation_eng-prolific,3.2.4,MacIntel,60,5e52fa4bc6506d30c686471e,,1,0,98,94,1,97
,,,,,,,,,,,,,,,,,,,,,,,,,,,,,,,,,,,,,,,,,return,1.45299983,DOOR,FALSE,,,,,,,100,toro,Spanish,Sounds/spa_toro.mp3,2020-06-04_21h14.10.671,TranslationElicitation_eng-prolific,3.2.4,MacIntel,60,5e52fa4bc6506d30c686471e,1.45299983,1,0,98,94,1,97
,,,,,,,,,,,,,,,,,,,,,,,,,,,,,,,,,,,,,,,,,,,,,,,,,,,100,toro,Spanish,Sounds/spa_toro.mp3,2020-06-04_21h14.10.671,TranslationElicitation_eng-prolific,3.2.4,MacIntel,60,5e52fa4bc6506d30c686471e,,1,0,98,94,1,97
,,,,,,,,,,,,,,,,,,,,,,,,,,,,,,,,,,,,,,,,,b,2.74000001,B,FALSE,,,,,,,43,globo,Spanish,Sounds/spa_globo.mp3,2020-06-04_21h14.10.671,TranslationElicitation_eng-prolific,3.2.4,MacIntel,60,5e52fa4bc6506d30c686471e,,1,0,98,39,1,97
,,,,,,,,,,,,,,,,,,,,,,,,,,,,,,,,,,,,,,,,,l,2.823999882,BL,FALSE,,,,,,,43,globo,Spanish,Sounds/spa_globo.mp3,2020-06-04_21h14.10.671,TranslationElicitation_eng-prolific,3.2.4,MacIntel,60,5e52fa4bc6506d30c686471e,,1,0,98,39,1,97
,,,,,,,,,,,,,,,,,,,,,,,,,,,,,,,,,,,,,,,,,o,2.955999851,BLO,FALSE,,,,,,,43,globo,Spanish,Sounds/spa_globo.mp3,2020-06-04_21h14.10.671,TranslationElicitation_eng-prolific,3.2.4,MacIntel,60,5e52fa4bc6506d30c686471e,,1,0,98,39,1,97
,,,,,,,,,,,,,,,,,,,,,,,,,,,,,,,,,,,,,,,,,b,3.056999922,BLOB,FALSE,,,,,,,43,globo,Spanish,Sounds/spa_globo.mp3,2020-06-04_21h14.10.671,TranslationElicitation_eng-prolific,3.2.4,MacIntel,60,5e52fa4bc6506d30c686471e,,1,0,98,39,1,97
,,,,,,,,,,,,,,,,,,,,,,,,,,,,,,,,,,,,,,,,,return,3.257999897,BLOB,FALSE,,,,,,,43,globo,Spanish,Sounds/spa_globo.mp3,2020-06-04_21h14.10.671,TranslationElicitation_eng-prolific,3.2.4,MacIntel,60,5e52fa4bc6506d30c686471e,3.257999897,1,0,98,39,1,97
,,,,,,,,,,,,,,,,,,,,,,,,,,,,,,,,,,,,,,,,,,,,,,,,,,,43,globo,Spanish,Sounds/spa_globo.mp3,2020-06-04_21h14.10.671,TranslationElicitation_eng-prolific,3.2.4,MacIntel,60,5e52fa4bc6506d30c686471e,,1,0,98,39,1,97
,,,,,,,,,,,,,,,,,,,,,,,,,,,,,,,,,,,,,,,,,o,1.152999878,O,FALSE,,,,,,,64,moneda,Spanish,Sounds/spa_moneda.mp3,2020-06-04_21h14.10.671,TranslationElicitation_eng-prolific,3.2.4,MacIntel,60,5e52fa4bc6506d30c686471e,,1,0,98,60,1,97
,,,,,,,,,,,,,,,,,,,,,,,,,,,,,,,,,,,,,,,,,n,1.337999821,ON,FALSE,,,,,,,64,moneda,Spanish,Sounds/spa_moneda.mp3,2020-06-04_21h14.10.671,TranslationElicitation_eng-prolific,3.2.4,MacIntel,60,5e52fa4bc6506d30c686471e,,1,0,98,60,1,97
,,,,,,,,,,,,,,,,,,,,,,,,,,,,,,,,,,,,,,,,,e,1.486999989,ONE,FALSE,,,,,,,64,moneda,Spanish,Sounds/spa_moneda.mp3,2020-06-04_21h14.10.671,TranslationElicitation_eng-prolific,3.2.4,MacIntel,60,5e52fa4bc6506d30c686471e,,1,0,98,60,1,97
,,,,,,,,,,,,,,,,,,,,,,,,,,,,,,,,,,,,,,,,,backspace,1.606999874,ON,TRUE,,,,,,,64,moneda,Spanish,Sounds/spa_moneda.mp3,2020-06-04_21h14.10.671,TranslationElicitation_eng-prolific,3.2.4,MacIntel,60,5e52fa4bc6506d30c686471e,,1,0,98,60,1,97
,,,,,,,,,,,,,,,,,,,,,,,,,,,,,,,,,,,,,,,,,backspace,1.755999804,O,TRUE,,,,,,,64,moneda,Spanish,Sounds/spa_moneda.mp3,2020-06-04_21h14.10.671,TranslationElicitation_eng-prolific,3.2.4,MacIntel,60,5e52fa4bc6506d30c686471e,,1,0,98,60,1,97
,,,,,,,,,,,,,,,,,,,,,,,,,,,,,,,,,,,,,,,,,backspace,1.888999939,,TRUE,,,,,,,64,moneda,Spanish,Sounds/spa_moneda.mp3,2020-06-04_21h14.10.671,TranslationElicitation_eng-prolific,3.2.4,MacIntel,60,5e52fa4bc6506d30c686471e,,1,0,98,60,1,97
,,,,,,,,,,,,,,,,,,,,,,,,,,,,,,,,,,,,,,,,,m,2.155999899,M,TRUE,,,,,,,64,moneda,Spanish,Sounds/spa_moneda.mp3,2020-06-04_21h14.10.671,TranslationElicitation_eng-prolific,3.2.4,MacIntel,60,5e52fa4bc6506d30c686471e,,1,0,98,60,1,97
,,,,,,,,,,,,,,,,,,,,,,,,,,,,,,,,,,,,,,,,,o,2.307999849,MO,TRUE,,,,,,,64,moneda,Spanish,Sounds/spa_moneda.mp3,2020-06-04_21h14.10.671,TranslationElicitation_eng-prolific,3.2.4,MacIntel,60,5e52fa4bc6506d30c686471e,,1,0,98,60,1,97
,,,,,,,,,,,,,,,,,,,,,,,,,,,,,,,,,,,,,,,,,n,2.457999945,MON,TRUE,,,,,,,64,moneda,Spanish,Sounds/spa_moneda.mp3,2020-06-04_21h14.10.671,TranslationElicitation_eng-prolific,3.2.4,MacIntel,60,5e52fa4bc6506d30c686471e,,1,0,98,60,1,97
,,,,,,,,,,,,,,,,,,,,,,,,,,,,,,,,,,,,,,,,,e,2.540999889,MONE,TRUE,,,,,,,64,moneda,Spanish,Sounds/spa_moneda.mp3,2020-06-04_21h14.10.671,TranslationElicitation_eng-prolific,3.2.4,MacIntel,60,5e52fa4bc6506d30c686471e,,1,0,98,60,1,97
,,,,,,,,,,,,,,,,,,,,,,,,,,,,,,,,,,,,,,,,,y,2.707999945,MONEY,TRUE,,,,,,,64,moneda,Spanish,Sounds/spa_moneda.mp3,2020-06-04_21h14.10.671,TranslationElicitation_eng-prolific,3.2.4,MacIntel,60,5e52fa4bc6506d30c686471e,,1,0,98,60,1,97
,,,,,,,,,,,,,,,,,,,,,,,,,,,,,,,,,,,,,,,,,return,2.858999968,MONEY,TRUE,,,,,,,64,moneda,Spanish,Sounds/spa_moneda.mp3,2020-06-04_21h14.10.671,TranslationElicitation_eng-prolific,3.2.4,MacIntel,60,5e52fa4bc6506d30c686471e,2.858999968,1,0,98,60,1,97
,,,,,,,,,,,,,,,,,,,,,,,,,,,,,,,,,,,,,,,,,,,,,,,,,,,64,moneda,Spanish,Sounds/spa_moneda.mp3,2020-06-04_21h14.10.671,TranslationElicitation_eng-prolific,3.2.4,MacIntel,60,5e52fa4bc6506d30c686471e,,1,0,98,60,1,97
,,,,,,,,,,,,,,,,,,,,,,,,,,,,,,,,,,,,,,,,,a,6.667999983,A,FALSE,,,,,,,73,oveja,Spanish,Sounds/spa_oveja.mp3,2020-06-04_21h14.10.671,TranslationElicitation_eng-prolific,3.2.4,MacIntel,60,5e52fa4bc6506d30c686471e,,1,0,98,68,1,97
,,,,,,,,,,,,,,,,,,,,,,,,,,,,,,,,,,,,,,,,,b,6.752000093,AB,FALSE,,,,,,,73,oveja,Spanish,Sounds/spa_oveja.mp3,2020-06-04_21h14.10.671,TranslationElicitation_eng-prolific,3.2.4,MacIntel,60,5e52fa4bc6506d30c686471e,,1,0,98,68,1,97
,,,,,,,,,,,,,,,,,,,,,,,,,,,,,,,,,,,,,,,,,v,7.018000126,ABV,FALSE,,,,,,,73,oveja,Spanish,Sounds/spa_oveja.mp3,2020-06-04_21h14.10.671,TranslationElicitation_eng-prolific,3.2.4,MacIntel,60,5e52fa4bc6506d30c686471e,,1,0,98,68,1,97
,,,,,,,,,,,,,,,,,,,,,,,,,,,,,,,,,,,,,,,,,backspace,7.353000164,AB,TRUE,,,,,,,73,oveja,Spanish,Sounds/spa_oveja.mp3,2020-06-04_21h14.10.671,TranslationElicitation_eng-prolific,3.2.4,MacIntel,60,5e52fa4bc6506d30c686471e,,1,0,98,68,1,97
,,,,,,,,,,,,,,,,,,,,,,,,,,,,,,,,,,,,,,,,,o,7.486999989,ABO,TRUE,,,,,,,73,oveja,Spanish,Sounds/spa_oveja.mp3,2020-06-04_21h14.10.671,TranslationElicitation_eng-prolific,3.2.4,MacIntel,60,5e52fa4bc6506d30c686471e,,1,0,98,68,1,97
,,,,,,,,,,,,,,,,,,,,,,,,,,,,,,,,,,,,,,,,,v,7.537000179,ABOV,TRUE,,,,,,,73,oveja,Spanish,Sounds/spa_oveja.mp3,2020-06-04_21h14.10.671,TranslationElicitation_eng-prolific,3.2.4,MacIntel,60,5e52fa4bc6506d30c686471e,,1,0,98,68,1,97
,,,,,,,,,,,,,,,,,,,,,,,,,,,,,,,,,,,,,,,,,e,7.637000084,ABOVE,TRUE,,,,,,,73,oveja,Spanish,Sounds/spa_oveja.mp3,2020-06-04_21h14.10.671,TranslationElicitation_eng-prolific,3.2.4,MacIntel,60,5e52fa4bc6506d30c686471e,,1,0,98,68,1,97
,,,,,,,,,,,,,,,,,,,,,,,,,,,,,,,,,,,,,,,,,return,7.854000092,ABOVE,TRUE,,,,,,,73,oveja,Spanish,Sounds/spa_oveja.mp3,2020-06-04_21h14.10.671,TranslationElicitation_eng-prolific,3.2.4,MacIntel,60,5e52fa4bc6506d30c686471e,7.854000092,1,0,98,68,1,97
,,,,,,,,,,,,,,,,,,,,,,,,,,,,,,,,,,,,,,,,,,,,,,,,,,,73,oveja,Spanish,Sounds/spa_oveja.mp3,2020-06-04_21h14.10.671,TranslationElicitation_eng-prolific,3.2.4,MacIntel,60,5e52fa4bc6506d30c686471e,,1,0,98,68,1,97
,,,,,,,,,,,,,,,,,,,,,,,,,,,,,,,,,,,,,,,,,m,4.762000084,M,FALSE,,,,,,,65,mono,Spanish,Sounds/spa_mono.mp3,2020-06-04_21h14.10.671,TranslationElicitation_eng-prolific,3.2.4,MacIntel,60,5e52fa4bc6506d30c686471e,,1,0,98,61,1,97
,,,,,,,,,,,,,,,,,,,,,,,,,,,,,,,,,,,,,,,,,o,5.011000156,MO,FALSE,,,,,,,65,mono,Spanish,Sounds/spa_mono.mp3,2020-06-04_21h14.10.671,TranslationElicitation_eng-prolific,3.2.4,MacIntel,60,5e52fa4bc6506d30c686471e,,1,0,98,61,1,97
,,,,,,,,,,,,,,,,,,,,,,,,,,,,,,,,,,,,,,,,,n,5.179000139,MON,FALSE,,,,,,,65,mono,Spanish,Sounds/spa_mono.mp3,2020-06-04_21h14.10.671,TranslationElicitation_eng-prolific,3.2.4,MacIntel,60,5e52fa4bc6506d30c686471e,,1,0,98,61,1,97
,,,,,,,,,,,,,,,,,,,,,,,,,,,,,,,,,,,,,,,,,o,5.279999971,MONO,FALSE,,,,,,,65,mono,Spanish,Sounds/spa_mono.mp3,2020-06-04_21h14.10.671,TranslationElicitation_eng-prolific,3.2.4,MacIntel,60,5e52fa4bc6506d30c686471e,,1,0,98,61,1,97
,,,,,,,,,,,,,,,,,,,,,,,,,,,,,,,,,,,,,,,,,backspace,6.818000078,MON,TRUE,,,,,,,65,mono,Spanish,Sounds/spa_mono.mp3,2020-06-04_21h14.10.671,TranslationElicitation_eng-prolific,3.2.4,MacIntel,60,5e52fa4bc6506d30c686471e,,1,0,98,61,1,97
,,,,,,,,,,,,,,,,,,,,,,,,,,,,,,,,,,,,,,,,,backspace,7.034000158,MO,TRUE,,,,,,,65,mono,Spanish,Sounds/spa_mono.mp3,2020-06-04_21h14.10.671,TranslationElicitation_eng-prolific,3.2.4,MacIntel,60,5e52fa4bc6506d30c686471e,,1,0,98,61,1,97
,,,,,,,,,,,,,,,,,,,,,,,,,,,,,,,,,,,,,,,,,backspace,7.217999935,M,TRUE,,,,,,,65,mono,Spanish,Sounds/spa_mono.mp3,2020-06-04_21h14.10.671,TranslationElicitation_eng-prolific,3.2.4,MacIntel,60,5e52fa4bc6506d30c686471e,,1,0,98,61,1,97
,,,,,,,,,,,,,,,,,,,,,,,,,,,,,,,,,,,,,,,,,o,14.18700004,MO,TRUE,,,,,,,65,mono,Spanish,Sounds/spa_mono.mp3,2020-06-04_21h14.10.671,TranslationElicitation_eng-prolific,3.2.4,MacIntel,60,5e52fa4bc6506d30c686471e,,1,0,98,61,1,97
,,,,,,,,,,,,,,,,,,,,,,,,,,,,,,,,,,,,,,,,,n,14.28699994,MON,TRUE,,,,,,,65,mono,Spanish,Sounds/spa_mono.mp3,2020-06-04_21h14.10.671,TranslationElicitation_eng-prolific,3.2.4,MacIntel,60,5e52fa4bc6506d30c686471e,,1,0,98,61,1,97
,,,,,,,,,,,,,,,,,,,,,,,,,,,,,,,,,,,,,,,,,o,14.38700008,MONO,TRUE,,,,,,,65,mono,Spanish,Sounds/spa_mono.mp3,2020-06-04_21h14.10.671,TranslationElicitation_eng-prolific,3.2.4,MacIntel,60,5e52fa4bc6506d30c686471e,,1,0,98,61,1,97
,,,,,,,,,,,,,,,,,,,,,,,,,,,,,,,,,,,,,,,,,return,14.58899999,MONO,TRUE,,,,,,,65,mono,Spanish,Sounds/spa_mono.mp3,2020-06-04_21h14.10.671,TranslationElicitation_eng-prolific,3.2.4,MacIntel,60,5e52fa4bc6506d30c686471e,14.58899999,1,0,98,61,1,97
,,,,,,,,,,,,,,,,,,,,,,,,,,,,,,,,,,,,,,,,,,,,,,,,,,,65,mono,Spanish,Sounds/spa_mono.mp3,2020-06-04_21h14.10.671,TranslationElicitation_eng-prolific,3.2.4,MacIntel,60,5e52fa4bc6506d30c686471e,,1,0,98,61,1,97
,,,,,,,,,,,,,,,,,,,,,,,,,,,,,,,,,,,,,,,,,l,6.865999937,L,FALSE,,,,,,,67,muneca,Spanish,Sounds/spa_muneca.mp3,2020-06-04_21h14.10.671,TranslationElicitation_eng-prolific,3.2.4,MacIntel,60,5e52fa4bc6506d30c686471e,,1,0,98,63,1,97
,,,,,,,,,,,,,,,,,,,,,,,,,,,,,,,,,,,,,,,,,o,6.986000061,LO,FALSE,,,,,,,67,muneca,Spanish,Sounds/spa_muneca.mp3,2020-06-04_21h14.10.671,TranslationElicitation_eng-prolific,3.2.4,MacIntel,60,5e52fa4bc6506d30c686471e,,1,0,98,63,1,97
,,,,,,,,,,,,,,,,,,,,,,,,,,,,,,,,,,,,,,,,,t,7.068000078,LOT,FALSE,,,,,,,67,muneca,Spanish,Sounds/spa_muneca.mp3,2020-06-04_21h14.10.671,TranslationElicitation_eng-prolific,3.2.4,MacIntel,60,5e52fa4bc6506d30c686471e,,1,0,98,63,1,97
,,,,,,,,,,,,,,,,,,,,,,,,,,,,,,,,,,,,,,,,,s,7.252000093,LOTS,FALSE,,,,,,,67,muneca,Spanish,Sounds/spa_muneca.mp3,2020-06-04_21h14.10.671,TranslationElicitation_eng-prolific,3.2.4,MacIntel,60,5e52fa4bc6506d30c686471e,,1,0,98,63,1,97
,,,,,,,,,,,,,,,,,,,,,,,,,,,,,,,,,,,,,,,,,space,7.385999918,LOTS ,FALSE,,,,,,,67,muneca,Spanish,Sounds/spa_muneca.mp3,2020-06-04_21h14.10.671,TranslationElicitation_eng-prolific,3.2.4,MacIntel,60,5e52fa4bc6506d30c686471e,,1,0,98,63,1,97
,,,,,,,,,,,,,,,,,,,,,,,,,,,,,,,,,,,,,,,,,o,7.502000093,LOTS O,FALSE,,,,,,,67,muneca,Spanish,Sounds/spa_muneca.mp3,2020-06-04_21h14.10.671,TranslationElicitation_eng-prolific,3.2.4,MacIntel,60,5e52fa4bc6506d30c686471e,,1,0,98,63,1,97
,,,,,,,,,,,,,,,,,,,,,,,,,,,,,,,,,,,,,,,,,f,7.585999966,LOTS OF,FALSE,,,,,,,67,muneca,Spanish,Sounds/spa_muneca.mp3,2020-06-04_21h14.10.671,TranslationElicitation_eng-prolific,3.2.4,MacIntel,60,5e52fa4bc6506d30c686471e,,1,0,98,63,1,97
,,,,,,,,,,,,,,,,,,,,,,,,,,,,,,,,,,,,,,,,,space,7.65199995,LOTS OF ,FALSE,,,,,,,67,muneca,Spanish,Sounds/spa_muneca.mp3,2020-06-04_21h14.10.671,TranslationElicitation_eng-prolific,3.2.4,MacIntel,60,5e52fa4bc6506d30c686471e,,1,0,98,63,1,97
,,,,,,,,,,,,,,,,,,,,,,,,,,,,,,,,,,,,,,,,,m,7.785000086,LOTS OF M,FALSE,,,,,,,67,muneca,Spanish,Sounds/spa_muneca.mp3,2020-06-04_21h14.10.671,TranslationElicitation_eng-prolific,3.2.4,MacIntel,60,5e52fa4bc6506d30c686471e,,1,0,98,63,1,97
,,,,,,,,,,,,,,,,,,,,,,,,,,,,,,,,,,,,,,,,,o,7.973999977,LOTS OF MO,FALSE,,,,,,,67,muneca,Spanish,Sounds/spa_muneca.mp3,2020-06-04_21h14.10.671,TranslationElicitation_eng-prolific,3.2.4,MacIntel,60,5e52fa4bc6506d30c686471e,,1,0,98,63,1,97
,,,,,,,,,,,,,,,,,,,,,,,,,,,,,,,,,,,,,,,,,n,8.171000004,LOTS OF MON,FALSE,,,,,,,67,muneca,Spanish,Sounds/spa_muneca.mp3,2020-06-04_21h14.10.671,TranslationElicitation_eng-prolific,3.2.4,MacIntel,60,5e52fa4bc6506d30c686471e,,1,0,98,63,1,97
,,,,,,,,,,,,,,,,,,,,,,,,,,,,,,,,,,,,,,,,,e,8.271000147,LOTS OF MONE,FALSE,,,,,,,67,muneca,Spanish,Sounds/spa_muneca.mp3,2020-06-04_21h14.10.671,TranslationElicitation_eng-prolific,3.2.4,MacIntel,60,5e52fa4bc6506d30c686471e,,1,0,98,63,1,97
,,,,,,,,,,,,,,,,,,,,,,,,,,,,,,,,,,,,,,,,,y,8.437999964,LOTS OF MONEY,FALSE,,,,,,,67,muneca,Spanish,Sounds/spa_muneca.mp3,2020-06-04_21h14.10.671,TranslationElicitation_eng-prolific,3.2.4,MacIntel,60,5e52fa4bc6506d30c686471e,,1,0,98,63,1,97
,,,,,,,,,,,,,,,,,,,,,,,,,,,,,,,,,,,,,,,,,return,8.571000099,LOTS OF MONEY,FALSE,,,,,,,67,muneca,Spanish,Sounds/spa_muneca.mp3,2020-06-04_21h14.10.671,TranslationElicitation_eng-prolific,3.2.4,MacIntel,60,5e52fa4bc6506d30c686471e,8.571000099,1,0,98,63,1,97
,,,,,,,,,,,,,,,,,,,,,,,,,,,,,,,,,,,,,,,,,,,,,,,,,,,67,muneca,Spanish,Sounds/spa_muneca.mp3,2020-06-04_21h14.10.671,TranslationElicitation_eng-prolific,3.2.4,MacIntel,60,5e52fa4bc6506d30c686471e,,1,0,98,63,1,97
,,,,,,,,,,,,,,,,,,,,,,,,,,,,,,,,,,,,,,,,,m,1.737999916,M,FALSE,,,,,,,59,mano,Spanish,Sounds/spa_mano.mp3,2020-06-04_21h14.10.671,TranslationElicitation_eng-prolific,3.2.4,MacIntel,60,5e52fa4bc6506d30c686471e,,1,0,98,55,1,97
,,,,,,,,,,,,,,,,,,,,,,,,,,,,,,,,,,,,,,,,,a,1.838999987,MA,FALSE,,,,,,,59,mano,Spanish,Sounds/spa_mano.mp3,2020-06-04_21h14.10.671,TranslationElicitation_eng-prolific,3.2.4,MacIntel,60,5e52fa4bc6506d30c686471e,,1,0,98,55,1,97
,,,,,,,,,,,,,,,,,,,,,,,,,,,,,,,,,,,,,,,,,n,1.921999931,MAN,FALSE,,,,,,,59,mano,Spanish,Sounds/spa_mano.mp3,2020-06-04_21h14.10.671,TranslationElicitation_eng-prolific,3.2.4,MacIntel,60,5e52fa4bc6506d30c686471e,,1,0,98,55,1,97
,,,,,,,,,,,,,,,,,,,,,,,,,,,,,,,,,,,,,,,,,return,2.138999939,MAN,FALSE,,,,,,,59,mano,Spanish,Sounds/spa_mano.mp3,2020-06-04_21h14.10.671,TranslationElicitation_eng-prolific,3.2.4,MacIntel,60,5e52fa4bc6506d30c686471e,2.138999939,1,0,98,55,1,97
,,,,,,,,,,,,,,,,,,,,,,,,,,,,,,,,,,,,,,,,,,,,,,,,,,,59,mano,Spanish,Sounds/spa_mano.mp3,2020-06-04_21h14.10.671,TranslationElicitation_eng-prolific,3.2.4,MacIntel,60,5e52fa4bc6506d30c686471e,,1,0,98,55,1,97
,,,,,,,,,,,,,,,,,,,,,,,,,,,,,,,,,,,,,,,,,s,3.457999945,S,FALSE,,,,,,,103,zanahoria,Spanish,Sounds/spa_zanahoria.mp3,2020-06-04_21h14.10.671,TranslationElicitation_eng-prolific,3.2.4,MacIntel,60,5e52fa4bc6506d30c686471e,,1,0,98,97,1,97
,,,,,,,,,,,,,,,,,,,,,,,,,,,,,,,,,,,,,,,,,a,3.776000023,SA,FALSE,,,,,,,103,zanahoria,Spanish,Sounds/spa_zanahoria.mp3,2020-06-04_21h14.10.671,TranslationElicitation_eng-prolific,3.2.4,MacIntel,60,5e52fa4bc6506d30c686471e,,1,0,98,97,1,97
,,,,,,,,,,,,,,,,,,,,,,,,,,,,,,,,,,,,,,,,,n,4.00999999,SAN,FALSE,,,,,,,103,zanahoria,Spanish,Sounds/spa_zanahoria.mp3,2020-06-04_21h14.10.671,TranslationElicitation_eng-prolific,3.2.4,MacIntel,60,5e52fa4bc6506d30c686471e,,1,0,98,97,1,97
,,,,,,,,,,,,,,,,,,,,,,,,,,,,,,,,,,,,,,,,,d,4.092999935,SAND,FALSE,,,,,,,103,zanahoria,Spanish,Sounds/spa_zanahoria.mp3,2020-06-04_21h14.10.671,TranslationElicitation_eng-prolific,3.2.4,MacIntel,60,5e52fa4bc6506d30c686471e,,1,0,98,97,1,97
,,,,,,,,,,,,,,,,,,,,,,,,,,,,,,,,,,,,,,,,,return,4.377000093,SAND,FALSE,,,,,,,103,zanahoria,Spanish,Sounds/spa_zanahoria.mp3,2020-06-04_21h14.10.671,TranslationElicitation_eng-prolific,3.2.4,MacIntel,60,5e52fa4bc6506d30c686471e,4.377000093,1,0,98,97,1,97
,,,,,,,,,,,,,,,,,,,,,,,,,,,,,,,,,,,,,,,,,,,,,,,,,,,103,zanahoria,Spanish,Sounds/spa_zanahoria.mp3,2020-06-04_21h14.10.671,TranslationElicitation_eng-prolific,3.2.4,MacIntel,60,5e52fa4bc6506d30c686471e,,1,0,98,97,1,97
,,,,,,,,,,,,,,,,,,,,,,,,,,,,,,,,,,,,,,,,,m,1.251999855,M,FALSE,,,,,,,61,mariposa,Spanish,Sounds/spa_mariposa.mp3,2020-06-04_21h14.10.671,TranslationElicitation_eng-prolific,3.2.4,MacIntel,60,5e52fa4bc6506d30c686471e,,1,0,98,57,1,97
,,,,,,,,,,,,,,,,,,,,,,,,,,,,,,,,,,,,,,,,,a,1.386999846,MA,FALSE,,,,,,,61,mariposa,Spanish,Sounds/spa_mariposa.mp3,2020-06-04_21h14.10.671,TranslationElicitation_eng-prolific,3.2.4,MacIntel,60,5e52fa4bc6506d30c686471e,,1,0,98,57,1,97
,,,,,,,,,,,,,,,,,,,,,,,,,,,,,,,,,,,,,,,,,r,1.588999987,MAR,FALSE,,,,,,,61,mariposa,Spanish,Sounds/spa_mariposa.mp3,2020-06-04_21h14.10.671,TranslationElicitation_eng-prolific,3.2.4,MacIntel,60,5e52fa4bc6506d30c686471e,,1,0,98,57,1,97
,,,,,,,,,,,,,,,,,,,,,,,,,,,,,,,,,,,,,,,,,r,1.720999956,MARR,FALSE,,,,,,,61,mariposa,Spanish,Sounds/spa_mariposa.mp3,2020-06-04_21h14.10.671,TranslationElicitation_eng-prolific,3.2.4,MacIntel,60,5e52fa4bc6506d30c686471e,,1,0,98,57,1,97
,,,,,,,,,,,,,,,,,,,,,,,,,,,,,,,,,,,,,,,,,i,1.787999868,MARRI,FALSE,,,,,,,61,mariposa,Spanish,Sounds/spa_mariposa.mp3,2020-06-04_21h14.10.671,TranslationElicitation_eng-prolific,3.2.4,MacIntel,60,5e52fa4bc6506d30c686471e,,1,0,98,57,1,97
,,,,,,,,,,,,,,,,,,,,,,,,,,,,,,,,,,,,,,,,,a,1.904999971,MARRIA,FALSE,,,,,,,61,mariposa,Spanish,Sounds/spa_mariposa.mp3,2020-06-04_21h14.10.671,TranslationElicitation_eng-prolific,3.2.4,MacIntel,60,5e52fa4bc6506d30c686471e,,1,0,98,57,1,97
,,,,,,,,,,,,,,,,,,,,,,,,,,,,,,,,,,,,,,,,,g,2.118999958,MARRIAG,FALSE,,,,,,,61,mariposa,Spanish,Sounds/spa_mariposa.mp3,2020-06-04_21h14.10.671,TranslationElicitation_eng-prolific,3.2.4,MacIntel,60,5e52fa4bc6506d30c686471e,,1,0,98,57,1,97
,,,,,,,,,,,,,,,,,,,,,,,,,,,,,,,,,,,,,,,,,e,2.305999994,MARRIAGE,FALSE,,,,,,,61,mariposa,Spanish,Sounds/spa_mariposa.mp3,2020-06-04_21h14.10.671,TranslationElicitation_eng-prolific,3.2.4,MacIntel,60,5e52fa4bc6506d30c686471e,,1,0,98,57,1,97
,,,,,,,,,,,,,,,,,,,,,,,,,,,,,,,,,,,,,,,,,return,2.422999859,MARRIAGE,FALSE,,,,,,,61,mariposa,Spanish,Sounds/spa_mariposa.mp3,2020-06-04_21h14.10.671,TranslationElicitation_eng-prolific,3.2.4,MacIntel,60,5e52fa4bc6506d30c686471e,2.422999859,1,0,98,57,1,97
,,,,,,,,,,,,,,,,,,,,,,,,,,,,,,,,,,,,,,,,,,,,,,,,,,,61,mariposa,Spanish,Sounds/spa_mariposa.mp3,2020-06-04_21h14.10.671,TranslationElicitation_eng-prolific,3.2.4,MacIntel,60,5e52fa4bc6506d30c686471e,,1,0,98,57,1,97
,,,,,,,,,,,,,,,,,,,,,,,,,,,,,,,,,,,,,,,,,s,3.041000128,S,FALSE,,,,,,,34,ensalada,Spanish,Sounds/spa_ensalada.mp3,2020-06-04_21h14.10.671,TranslationElicitation_eng-prolific,3.2.4,MacIntel,60,5e52fa4bc6506d30c686471e,,1,0,98,30,1,97
,,,,,,,,,,,,,,,,,,,,,,,,,,,,,,,,,,,,,,,,,s,3.190999985,SS,FALSE,,,,,,,34,ensalada,Spanish,Sounds/spa_ensalada.mp3,2020-06-04_21h14.10.671,TranslationElicitation_eng-prolific,3.2.4,MacIntel,60,5e52fa4bc6506d30c686471e,,1,0,98,30,1,97
,,,,,,,,,,,,,,,,,,,,,,,,,,,,,,,,,,,,,,,,,backspace,3.675000191,S,TRUE,,,,,,,34,ensalada,Spanish,Sounds/spa_ensalada.mp3,2020-06-04_21h14.10.671,TranslationElicitation_eng-prolific,3.2.4,MacIntel,60,5e52fa4bc6506d30c686471e,,1,0,98,30,1,97
,,,,,,,,,,,,,,,,,,,,,,,,,,,,,,,,,,,,,,,,,a,3.777000189,SA,TRUE,,,,,,,34,ensalada,Spanish,Sounds/spa_ensalada.mp3,2020-06-04_21h14.10.671,TranslationElicitation_eng-prolific,3.2.4,MacIntel,60,5e52fa4bc6506d30c686471e,,1,0,98,30,1,97
,,,,,,,,,,,,,,,,,,,,,,,,,,,,,,,,,,,,,,,,,l,3.910000086,SAL,TRUE,,,,,,,34,ensalada,Spanish,Sounds/spa_ensalada.mp3,2020-06-04_21h14.10.671,TranslationElicitation_eng-prolific,3.2.4,MacIntel,60,5e52fa4bc6506d30c686471e,,1,0,98,30,1,97
,,,,,,,,,,,,,,,,,,,,,,,,,,,,,,,,,,,,,,,,,a,3.993999958,SALA,TRUE,,,,,,,34,ensalada,Spanish,Sounds/spa_ensalada.mp3,2020-06-04_21h14.10.671,TranslationElicitation_eng-prolific,3.2.4,MacIntel,60,5e52fa4bc6506d30c686471e,,1,0,98,30,1,97
,,,,,,,,,,,,,,,,,,,,,,,,,,,,,,,,,,,,,,,,,d,4.077000141,SALAD,TRUE,,,,,,,34,ensalada,Spanish,Sounds/spa_ensalada.mp3,2020-06-04_21h14.10.671,TranslationElicitation_eng-prolific,3.2.4,MacIntel,60,5e52fa4bc6506d30c686471e,,1,0,98,30,1,97
,,,,,,,,,,,,,,,,,,,,,,,,,,,,,,,,,,,,,,,,,return,4.273000002,SALAD,TRUE,,,,,,,34,ensalada,Spanish,Sounds/spa_ensalada.mp3,2020-06-04_21h14.10.671,TranslationElicitation_eng-prolific,3.2.4,MacIntel,60,5e52fa4bc6506d30c686471e,4.273000002,1,0,98,30,1,97
,,,,,,,,,,,,,,,,,,,,,,,,,,,,,,,,,,,,,,,,,,,,,,,,,,,34,ensalada,Spanish,Sounds/spa_ensalada.mp3,2020-06-04_21h14.10.671,TranslationElicitation_eng-prolific,3.2.4,MacIntel,60,5e52fa4bc6506d30c686471e,,1,0,98,30,1,97
,,,,,,,,,,,,,,,,,,,,,,,,,,,,,,,,,,,,,,,,,c,4.012000084,C,FALSE,,,,,,,23,cerdo,Spanish,Sounds/spa_cerdo.mp3,2020-06-04_21h14.10.671,TranslationElicitation_eng-prolific,3.2.4,MacIntel,60,5e52fa4bc6506d30c686471e,,1,0,98,21,1,97
,,,,,,,,,,,,,,,,,,,,,,,,,,,,,,,,,,,,,,,,,o,4.111999989,CO,FALSE,,,,,,,23,cerdo,Spanish,Sounds/spa_cerdo.mp3,2020-06-04_21h14.10.671,TranslationElicitation_eng-prolific,3.2.4,MacIntel,60,5e52fa4bc6506d30c686471e,,1,0,98,21,1,97
,,,,,,,,,,,,,,,,,,,,,,,,,,,,,,,,,,,,,,,,,l,4.246000051,COL,FALSE,,,,,,,23,cerdo,Spanish,Sounds/spa_cerdo.mp3,2020-06-04_21h14.10.671,TranslationElicitation_eng-prolific,3.2.4,MacIntel,60,5e52fa4bc6506d30c686471e,,1,0,98,21,1,97
,,,,,,,,,,,,,,,,,,,,,,,,,,,,,,,,,,,,,,,,,d,4.328000069,COLD,FALSE,,,,,,,23,cerdo,Spanish,Sounds/spa_cerdo.mp3,2020-06-04_21h14.10.671,TranslationElicitation_eng-prolific,3.2.4,MacIntel,60,5e52fa4bc6506d30c686471e,,1,0,98,21,1,97
,,,,,,,,,,,,,,,,,,,,,,,,,,,,,,,,,,,,,,,,,return,4.84100008,COLD,FALSE,,,,,,,23,cerdo,Spanish,Sounds/spa_cerdo.mp3,2020-06-04_21h14.10.671,TranslationElicitation_eng-prolific,3.2.4,MacIntel,60,5e52fa4bc6506d30c686471e,4.84100008,1,0,98,21,1,97
,,,,,,,,,,,,,,,,,,,,,,,,,,,,,,,,,,,,,,,,,,,,,,,,,,,23,cerdo,Spanish,Sounds/spa_cerdo.mp3,2020-06-04_21h14.10.671,TranslationElicitation_eng-prolific,3.2.4,MacIntel,60,5e52fa4bc6506d30c686471e,,1,0,98,21,1,97
,,,,,,,,,,,,,,,,,,,,,,,,,,,,,,,,,,,,,,,,,c,3.024000168,C,FALSE,,,,,,,17,calcetin,Spanish,Sounds/spa_calcetin.mp3,2020-06-04_21h14.10.671,TranslationElicitation_eng-prolific,3.2.4,MacIntel,60,5e52fa4bc6506d30c686471e,,1,0,98,15,1,97
,,,,,,,,,,,,,,,,,,,,,,,,,,,,,,,,,,,,,,,,,a,3.192000151,CA,FALSE,,,,,,,17,calcetin,Spanish,Sounds/spa_calcetin.mp3,2020-06-04_21h14.10.671,TranslationElicitation_eng-prolific,3.2.4,MacIntel,60,5e52fa4bc6506d30c686471e,,1,0,98,15,1,97
,,,,,,,,,,,,,,,,,,,,,,,,,,,,,,,,,,,,,,,,,f,3.661000013,CAF,FALSE,,,,,,,17,calcetin,Spanish,Sounds/spa_calcetin.mp3,2020-06-04_21h14.10.671,TranslationElicitation_eng-prolific,3.2.4,MacIntel,60,5e52fa4bc6506d30c686471e,,1,0,98,15,1,97
,,,,,,,,,,,,,,,,,,,,,,,,,,,,,,,,,,,,,,,,,f,4.226999998,CAFF,FALSE,,,,,,,17,calcetin,Spanish,Sounds/spa_calcetin.mp3,2020-06-04_21h14.10.671,TranslationElicitation_eng-prolific,3.2.4,MacIntel,60,5e52fa4bc6506d30c686471e,,1,0,98,15,1,97
,,,,,,,,,,,,,,,,,,,,,,,,,,,,,,,,,,,,,,,,,backspace,5.397000074,CAF,TRUE,,,,,,,17,calcetin,Spanish,Sounds/spa_calcetin.mp3,2020-06-04_21h14.10.671,TranslationElicitation_eng-prolific,3.2.4,MacIntel,60,5e52fa4bc6506d30c686471e,,1,0,98,15,1,97
,,,,,,,,,,,,,,,,,,,,,,,,,,,,,,,,,,,,,,,,,f,6.133000135,CAFF,TRUE,,,,,,,17,calcetin,Spanish,Sounds/spa_calcetin.mp3,2020-06-04_21h14.10.671,TranslationElicitation_eng-prolific,3.2.4,MacIntel,60,5e52fa4bc6506d30c686471e,,1,0,98,15,1,97
,,,,,,,,,,,,,,,,,,,,,,,,,,,,,,,,,,,,,,,,,backspace,6.517000198,CAF,TRUE,,,,,,,17,calcetin,Spanish,Sounds/spa_calcetin.mp3,2020-06-04_21h14.10.671,TranslationElicitation_eng-prolific,3.2.4,MacIntel,60,5e52fa4bc6506d30c686471e,,1,0,98,15,1,97
,,,,,,,,,,,,,,,,,,,,,,,,,,,,,,,,,,,,,,,,,e,6.583000183,CAFE,TRUE,,,,,,,17,calcetin,Spanish,Sounds/spa_calcetin.mp3,2020-06-04_21h14.10.671,TranslationElicitation_eng-prolific,3.2.4,MacIntel,60,5e52fa4bc6506d30c686471e,,1,0,98,15,1,97
,,,,,,,,,,,,,,,,,,,,,,,,,,,,,,,,,,,,,,,,,t,7.604000092,CAFET,TRUE,,,,,,,17,calcetin,Spanish,Sounds/spa_calcetin.mp3,2020-06-04_21h14.10.671,TranslationElicitation_eng-prolific,3.2.4,MacIntel,60,5e52fa4bc6506d30c686471e,,1,0,98,15,1,97
,,,,,,,,,,,,,,,,,,,,,,,,,,,,,,,,,,,,,,,,,i,7.737000227,CAFETI,TRUE,,,,,,,17,calcetin,Spanish,Sounds/spa_calcetin.mp3,2020-06-04_21h14.10.671,TranslationElicitation_eng-prolific,3.2.4,MacIntel,60,5e52fa4bc6506d30c686471e,,1,0,98,15,1,97
,,,,,,,,,,,,,,,,,,,,,,,,,,,,,,,,,,,,,,,,,e,7.871000051,CAFETIE,TRUE,,,,,,,17,calcetin,Spanish,Sounds/spa_calcetin.mp3,2020-06-04_21h14.10.671,TranslationElicitation_eng-prolific,3.2.4,MacIntel,60,5e52fa4bc6506d30c686471e,,1,0,98,15,1,97
,,,,,,,,,,,,,,,,,,,,,,,,,,,,,,,,,,,,,,,,,e,8.289000034,CAFETIEE,TRUE,,,,,,,17,calcetin,Spanish,Sounds/spa_calcetin.mp3,2020-06-04_21h14.10.671,TranslationElicitation_eng-prolific,3.2.4,MacIntel,60,5e52fa4bc6506d30c686471e,,1,0,98,15,1,97
,,,,,,,,,,,,,,,,,,,,,,,,,,,,,,,,,,,,,,,,,r,8.42200017,CAFETIEER,TRUE,,,,,,,17,calcetin,Spanish,Sounds/spa_calcetin.mp3,2020-06-04_21h14.10.671,TranslationElicitation_eng-prolific,3.2.4,MacIntel,60,5e52fa4bc6506d30c686471e,,1,0,98,15,1,97
,,,,,,,,,,,,,,,,,,,,,,,,,,,,,,,,,,,,,,,,,backspace,8.656000137,CAFETIEE,TRUE,,,,,,,17,calcetin,Spanish,Sounds/spa_calcetin.mp3,2020-06-04_21h14.10.671,TranslationElicitation_eng-prolific,3.2.4,MacIntel,60,5e52fa4bc6506d30c686471e,,1,0,98,15,1,97
,,,,,,,,,,,,,,,,,,,,,,,,,,,,,,,,,,,,,,,,,backspace,8.789000034,CAFETIE,TRUE,,,,,,,17,calcetin,Spanish,Sounds/spa_calcetin.mp3,2020-06-04_21h14.10.671,TranslationElicitation_eng-prolific,3.2.4,MacIntel,60,5e52fa4bc6506d30c686471e,,1,0,98,15,1,97
,,,,,,,,,,,,,,,,,,,,,,,,,,,,,,,,,,,,,,,,,r,8.856000185,CAFETIER,TRUE,,,,,,,17,calcetin,Spanish,Sounds/spa_calcetin.mp3,2020-06-04_21h14.10.671,TranslationElicitation_eng-prolific,3.2.4,MacIntel,60,5e52fa4bc6506d30c686471e,,1,0,98,15,1,97
,,,,,,,,,,,,,,,,,,,,,,,,,,,,,,,,,,,,,,,,,r,8.975000143,CAFETIERR,TRUE,,,,,,,17,calcetin,Spanish,Sounds/spa_calcetin.mp3,2020-06-04_21h14.10.671,TranslationElicitation_eng-prolific,3.2.4,MacIntel,60,5e52fa4bc6506d30c686471e,,1,0,98,15,1,97
,,,,,,,,,,,,,,,,,,,,,,,,,,,,,,,,,,,,,,,,,e,9.058000088,CAFETIERRE,TRUE,,,,,,,17,calcetin,Spanish,Sounds/spa_calcetin.mp3,2020-06-04_21h14.10.671,TranslationElicitation_eng-prolific,3.2.4,MacIntel,60,5e52fa4bc6506d30c686471e,,1,0,98,15,1,97
,,,,,,,,,,,,,,,,,,,,,,,,,,,,,,,,,,,,,,,,,return,9.275000095,CAFETIERRE,TRUE,,,,,,,17,calcetin,Spanish,Sounds/spa_calcetin.mp3,2020-06-04_21h14.10.671,TranslationElicitation_eng-prolific,3.2.4,MacIntel,60,5e52fa4bc6506d30c686471e,9.275000095,1,0,98,15,1,97
,,,,,,,,,,,,,,,,,,,,,,,,,,,,,,,,,,,,,,,,,,,,,,,,,,,17,calcetin,Spanish,Sounds/spa_calcetin.mp3,2020-06-04_21h14.10.671,TranslationElicitation_eng-prolific,3.2.4,MacIntel,60,5e52fa4bc6506d30c686471e,,1,0,98,15,1,97
,,,,,,,,,,,,,,,,,,,,,,,,,,,,,,,,,,,,,,,,,m,1.101999998,M,FALSE,,,,,,,62,martillo,Spanish,Sounds/spa_martillo.mp3,2020-06-04_21h14.10.671,TranslationElicitation_eng-prolific,3.2.4,MacIntel,60,5e52fa4bc6506d30c686471e,,1,0,98,58,1,97
,,,,,,,,,,,,,,,,,,,,,,,,,,,,,,,,,,,,,,,,,a,1.200999975,MA,FALSE,,,,,,,62,martillo,Spanish,Sounds/spa_martillo.mp3,2020-06-04_21h14.10.671,TranslationElicitation_eng-prolific,3.2.4,MacIntel,60,5e52fa4bc6506d30c686471e,,1,0,98,58,1,97
,,,,,,,,,,,,,,,,,,,,,,,,,,,,,,,,,,,,,,,,,r,1.403000116,MAR,FALSE,,,,,,,62,martillo,Spanish,Sounds/spa_martillo.mp3,2020-06-04_21h14.10.671,TranslationElicitation_eng-prolific,3.2.4,MacIntel,60,5e52fa4bc6506d30c686471e,,1,0,98,58,1,97
,,,,,,,,,,,,,,,,,,,,,,,,,,,,,,,,,,,,,,,,,t,1.654000044,MART,FALSE,,,,,,,62,martillo,Spanish,Sounds/spa_martillo.mp3,2020-06-04_21h14.10.671,TranslationElicitation_eng-prolific,3.2.4,MacIntel,60,5e52fa4bc6506d30c686471e,,1,0,98,58,1,97
,,,,,,,,,,,,,,,,,,,,,,,,,,,,,,,,,,,,,,,,,i,1.753999949,MARTI,FALSE,,,,,,,62,martillo,Spanish,Sounds/spa_martillo.mp3,2020-06-04_21h14.10.671,TranslationElicitation_eng-prolific,3.2.4,MacIntel,60,5e52fa4bc6506d30c686471e,,1,0,98,58,1,97
,,,,,,,,,,,,,,,,,,,,,,,,,,,,,,,,,,,,,,,,,n,1.970999956,MARTIN,FALSE,,,,,,,62,martillo,Spanish,Sounds/spa_martillo.mp3,2020-06-04_21h14.10.671,TranslationElicitation_eng-prolific,3.2.4,MacIntel,60,5e52fa4bc6506d30c686471e,,1,0,98,58,1,97
,,,,,,,,,,,,,,,,,,,,,,,,,,,,,,,,,,,,,,,,,i,2.138000011,MARTINI,FALSE,,,,,,,62,martillo,Spanish,Sounds/spa_martillo.mp3,2020-06-04_21h14.10.671,TranslationElicitation_eng-prolific,3.2.4,MacIntel,60,5e52fa4bc6506d30c686471e,,1,0,98,58,1,97
,,,,,,,,,,,,,,,,,,,,,,,,,,,,,,,,,,,,,,,,,s,2.305000067,MARTINIS,FALSE,,,,,,,62,martillo,Spanish,Sounds/spa_martillo.mp3,2020-06-04_21h14.10.671,TranslationElicitation_eng-prolific,3.2.4,MacIntel,60,5e52fa4bc6506d30c686471e,,1,0,98,58,1,97
,,,,,,,,,,,,,,,,,,,,,,,,,,,,,,,,,,,,,,,,,return,2.704999924,MARTINIS,FALSE,,,,,,,62,martillo,Spanish,Sounds/spa_martillo.mp3,2020-06-04_21h14.10.671,TranslationElicitation_eng-prolific,3.2.4,MacIntel,60,5e52fa4bc6506d30c686471e,2.704999924,1,0,98,58,1,97
,,,,,,,,,,,,,,,,,,,,,,,,,,,,,,,,,,,,,,,,,,,,,,,,,,,62,martillo,Spanish,Sounds/spa_martillo.mp3,2020-06-04_21h14.10.671,TranslationElicitation_eng-prolific,3.2.4,MacIntel,60,5e52fa4bc6506d30c686471e,,1,0,98,58,1,97
,,,,,,,,,,,,,,,,,,,,,,,,,,,,,,,,,,,,,,,,,c,2.273000002,C,FALSE,,,,,,,15,caballo,Spanish,Sounds/spa_caballo.mp3,2020-06-04_21h14.10.671,TranslationElicitation_eng-prolific,3.2.4,MacIntel,60,5e52fa4bc6506d30c686471e,,1,0,98,13,1,97
,,,,,,,,,,,,,,,,,,,,,,,,,,,,,,,,,,,,,,,,,i,2.402999878,CI,FALSE,,,,,,,15,caballo,Spanish,Sounds/spa_caballo.mp3,2020-06-04_21h14.10.671,TranslationElicitation_eng-prolific,3.2.4,MacIntel,60,5e52fa4bc6506d30c686471e,,1,0,98,13,1,97
,,,,,,,,,,,,,,,,,,,,,,,,,,,,,,,,,,,,,,,,,a,2.523999929,CIA,FALSE,,,,,,,15,caballo,Spanish,Sounds/spa_caballo.mp3,2020-06-04_21h14.10.671,TranslationElicitation_eng-prolific,3.2.4,MacIntel,60,5e52fa4bc6506d30c686471e,,1,0,98,13,1,97
,,,,,,,,,,,,,,,,,,,,,,,,,,,,,,,,,,,,,,,,,b,2.639999866,CIAB,FALSE,,,,,,,15,caballo,Spanish,Sounds/spa_caballo.mp3,2020-06-04_21h14.10.671,TranslationElicitation_eng-prolific,3.2.4,MacIntel,60,5e52fa4bc6506d30c686471e,,1,0,98,13,1,97
