consentKey.keys,consentKey.rt,languageL1Key.keys,languageL1Key.rt,languageL2,languageL2OralKey.keys,languageL2OralKey.rt,languageL2WrittenKey.keys,languageL2WrittenKey.rt,languageL3OralKey.keys,languageL3OralKey.rt,languageL3WrittenKey.keys,languageL3WrittenKey.rt,languageCatalanOralKey.keys,languageCatalanOralKey.rt,languageCatalanWrittenKey.keys,languageCatalanWrittenKey.rt,languageCatalanTimeKey.keys,languageCatalanTimeKey.rt,languageSpanishOralKey.keys,languageSpanishOralKey.rt,languageSpanishWrittenKey.keys,languageSpanishWrittenKey.rt,languageSpanishTimeKey.keys,languageSpanishTimeKey.rt,age,demoSexKey.keys,demoSexKey.rt,demoEducationKey.keys,demoEducationKey.rt,city,demoVisionKey.keys,demoVisionKey.rt,demoLanguageKey.keys,demoLanguageKey.rt,setupLocationKey.keys,setupLocationKey.rt,setupNoiseKey.keys,setupNoiseKey.rt,instructionsKeys.keys,instructionsKeys.rt,keyPressed,keyPressTime,inputText,error,trialsPracticeSpanish.thisRepN,trialsPracticeSpanish.thisTrialN,trialsPracticeSpanish.thisN,trialsPracticeSpanish.thisIndex,trialsPracticeSpanish.ran,trialsPracticeSpanish.order,trial_id,word,test_language,soundfile,date,expName,psychopyVersion,OS,frameRate,participant,trialOffset,trialsSpanish.thisRepN,trialsSpanish.thisTrialN,trialsSpanish.thisN,trialsSpanish.thisIndex,trialsSpanish.ran,trialsSpanish.order
space,1.431999922,e,4.700000048,,,,,,,,,,1,5.438000202,1,7.475000143,1,7.475999832,2,4.763999939,1,4.821000099,1,2.960999966,25,f,1.74000001,3,5.345000029,HULL,y,3.519999981,n,3.32400012,1,3.05700016,1,5.38499999,space,11.97300005,h,5.894999981,H,FALSE,1,0,5,0,1,4,1,arbol,Spanish,Sounds/spa_arbol.mp3,2020-06-05_15h35.02.201,TranslationElicitation_eng-prolific,3.2.4,Win32,60,5e60db57fdef8001c1fdc6f7,,,,,,,
,,,,,,,,,,,,,,,,,,,,,,,,,,,,,,,,,,,,,,,,,e,6.09499979,HE,FALSE,1,0,5,0,1,4,1,arbol,Spanish,Sounds/spa_arbol.mp3,2020-06-05_15h35.02.201,TranslationElicitation_eng-prolific,3.2.4,Win32,60,5e60db57fdef8001c1fdc6f7,,,,,,,
,,,,,,,,,,,,,,,,,,,,,,,,,,,,,,,,,,,,,,,,,backspace,6.896999836,H,TRUE,1,0,5,0,1,4,1,arbol,Spanish,Sounds/spa_arbol.mp3,2020-06-05_15h35.02.201,TranslationElicitation_eng-prolific,3.2.4,Win32,60,5e60db57fdef8001c1fdc6f7,,,,,,,
,,,,,,,,,,,,,,,,,,,,,,,,,,,,,,,,,,,,,,,,,backspace,7.130999804,,TRUE,1,0,5,0,1,4,1,arbol,Spanish,Sounds/spa_arbol.mp3,2020-06-05_15h35.02.201,TranslationElicitation_eng-prolific,3.2.4,Win32,60,5e60db57fdef8001c1fdc6f7,,,,,,,
,,,,,,,,,,,,,,,,,,,,,,,,,,,,,,,,,,,,,,,,,w,12.5079999,W,TRUE,1,0,5,0,1,4,1,arbol,Spanish,Sounds/spa_arbol.mp3,2020-06-05_15h35.02.201,TranslationElicitation_eng-prolific,3.2.4,Win32,60,5e60db57fdef8001c1fdc6f7,,,,,,,
,,,,,,,,,,,,,,,,,,,,,,,,,,,,,,,,,,,,,,,,,a,12.70799994,WA,TRUE,1,0,5,0,1,4,1,arbol,Spanish,Sounds/spa_arbol.mp3,2020-06-05_15h35.02.201,TranslationElicitation_eng-prolific,3.2.4,Win32,60,5e60db57fdef8001c1fdc6f7,,,,,,,
,,,,,,,,,,,,,,,,,,,,,,,,,,,,,,,,,,,,,,,,,t,12.79099989,WAT,TRUE,1,0,5,0,1,4,1,arbol,Spanish,Sounds/spa_arbol.mp3,2020-06-05_15h35.02.201,TranslationElicitation_eng-prolific,3.2.4,Win32,60,5e60db57fdef8001c1fdc6f7,,,,,,,
,,,,,,,,,,,,,,,,,,,,,,,,,,,,,,,,,,,,,,,,,e,12.95899987,WATE,TRUE,1,0,5,0,1,4,1,arbol,Spanish,Sounds/spa_arbol.mp3,2020-06-05_15h35.02.201,TranslationElicitation_eng-prolific,3.2.4,Win32,60,5e60db57fdef8001c1fdc6f7,,,,,,,
,,,,,,,,,,,,,,,,,,,,,,,,,,,,,,,,,,,,,,,,,r,13.10899997,WATER,TRUE,1,0,5,0,1,4,1,arbol,Spanish,Sounds/spa_arbol.mp3,2020-06-05_15h35.02.201,TranslationElicitation_eng-prolific,3.2.4,Win32,60,5e60db57fdef8001c1fdc6f7,,,,,,,
,,,,,,,,,,,,,,,,,,,,,,,,,,,,,,,,,,,,,,,,,return,13.7099998,WATER,TRUE,1,0,5,0,1,4,1,arbol,Spanish,Sounds/spa_arbol.mp3,2020-06-05_15h35.02.201,TranslationElicitation_eng-prolific,3.2.4,Win32,60,5e60db57fdef8001c1fdc6f7,13.7099998,,,,,,
,,,,,,,,,,,,,,,,,,,,,,,,,,,,,,,,,,,,,,,,,,,,,1,0,5,0,1,4,1,arbol,Spanish,Sounds/spa_arbol.mp3,2020-06-05_15h35.02.201,TranslationElicitation_eng-prolific,3.2.4,Win32,60,5e60db57fdef8001c1fdc6f7,,,,,,,
,,,,,,,,,,,,,,,,,,,,,,,,,,,,,,,,,,,,,,,,,b,10.31999993,B,FALSE,1,0,5,3,1,4,70,ola,Spanish,Sounds/spa_ola.mp3,2020-06-05_15h35.02.201,TranslationElicitation_eng-prolific,3.2.4,Win32,60,5e60db57fdef8001c1fdc6f7,,,,,,,
,,,,,,,,,,,,,,,,,,,,,,,,,,,,,,,,,,,,,,,,,a,10.48699999,BA,FALSE,1,0,5,3,1,4,70,ola,Spanish,Sounds/spa_ola.mp3,2020-06-05_15h35.02.201,TranslationElicitation_eng-prolific,3.2.4,Win32,60,5e60db57fdef8001c1fdc6f7,,,,,,,
,,,,,,,,,,,,,,,,,,,,,,,,,,,,,,,,,,,,,,,,,l,10.87100005,BAL,FALSE,1,0,5,3,1,4,70,ola,Spanish,Sounds/spa_ola.mp3,2020-06-05_15h35.02.201,TranslationElicitation_eng-prolific,3.2.4,Win32,60,5e60db57fdef8001c1fdc6f7,,,,,,,
,,,,,,,,,,,,,,,,,,,,,,,,,,,,,,,,,,,,,,,,,l,11.02099991,BALL,FALSE,1,0,5,3,1,4,70,ola,Spanish,Sounds/spa_ola.mp3,2020-06-05_15h35.02.201,TranslationElicitation_eng-prolific,3.2.4,Win32,60,5e60db57fdef8001c1fdc6f7,,,,,,,
,,,,,,,,,,,,,,,,,,,,,,,,,,,,,,,,,,,,,,,,,return,11.30500007,BALL,FALSE,1,0,5,3,1,4,70,ola,Spanish,Sounds/spa_ola.mp3,2020-06-05_15h35.02.201,TranslationElicitation_eng-prolific,3.2.4,Win32,60,5e60db57fdef8001c1fdc6f7,11.30500007,,,,,,
,,,,,,,,,,,,,,,,,,,,,,,,,,,,,,,,,,,,,,,,,,,,,1,0,5,3,1,4,70,ola,Spanish,Sounds/spa_ola.mp3,2020-06-05_15h35.02.201,TranslationElicitation_eng-prolific,3.2.4,Win32,60,5e60db57fdef8001c1fdc6f7,,,,,,,
,,,,,,,,,,,,,,,,,,,,,,,,,,,,,,,,,,,,,,,,,f,10.73699999,F,FALSE,1,0,5,2,1,4,26,chaqueta,Spanish,Sounds/spa_chaqueta.mp3,2020-06-05_15h35.02.201,TranslationElicitation_eng-prolific,3.2.4,Win32,60,5e60db57fdef8001c1fdc6f7,,,,,,,
,,,,,,,,,,,,,,,,,,,,,,,,,,,,,,,,,,,,,,,,,o,11.82300019,FO,FALSE,1,0,5,2,1,4,26,chaqueta,Spanish,Sounds/spa_chaqueta.mp3,2020-06-05_15h35.02.201,TranslationElicitation_eng-prolific,3.2.4,Win32,60,5e60db57fdef8001c1fdc6f7,,,,,,,
,,,,,,,,,,,,,,,,,,,,,,,,,,,,,,,,,,,,,,,,,o,12.00600004,FOO,FALSE,1,0,5,2,1,4,26,chaqueta,Spanish,Sounds/spa_chaqueta.mp3,2020-06-05_15h35.02.201,TranslationElicitation_eng-prolific,3.2.4,Win32,60,5e60db57fdef8001c1fdc6f7,,,,,,,
,,,,,,,,,,,,,,,,,,,,,,,,,,,,,,,,,,,,,,,,,d,12.22399998,FOOD,FALSE,1,0,5,2,1,4,26,chaqueta,Spanish,Sounds/spa_chaqueta.mp3,2020-06-05_15h35.02.201,TranslationElicitation_eng-prolific,3.2.4,Win32,60,5e60db57fdef8001c1fdc6f7,,,,,,,
,,,,,,,,,,,,,,,,,,,,,,,,,,,,,,,,,,,,,,,,,return,12.67400002,FOOD,FALSE,1,0,5,2,1,4,26,chaqueta,Spanish,Sounds/spa_chaqueta.mp3,2020-06-05_15h35.02.201,TranslationElicitation_eng-prolific,3.2.4,Win32,60,5e60db57fdef8001c1fdc6f7,12.67400002,,,,,,
,,,,,,,,,,,,,,,,,,,,,,,,,,,,,,,,,,,,,,,,,,,,,1,0,5,2,1,4,26,chaqueta,Spanish,Sounds/spa_chaqueta.mp3,2020-06-05_15h35.02.201,TranslationElicitation_eng-prolific,3.2.4,Win32,60,5e60db57fdef8001c1fdc6f7,,,,,,,
,,,,,,,,,,,,,,,,,,,,,,,,,,,,,,,,,,,,,,,,,b,2.355000019,B,FALSE,1,0,5,1,1,4,30,corona,Spanish,Sounds/spa_corona.mp3,2020-06-05_15h35.02.201,TranslationElicitation_eng-prolific,3.2.4,Win32,60,5e60db57fdef8001c1fdc6f7,,,,,,,
,,,,,,,,,,,,,,,,,,,,,,,,,,,,,,,,,,,,,,,,,e,2.487999916,BE,FALSE,1,0,5,1,1,4,30,corona,Spanish,Sounds/spa_corona.mp3,2020-06-05_15h35.02.201,TranslationElicitation_eng-prolific,3.2.4,Win32,60,5e60db57fdef8001c1fdc6f7,,,,,,,
,,,,,,,,,,,,,,,,,,,,,,,,,,,,,,,,,,,,,,,,,e,2.772000074,BEE,FALSE,1,0,5,1,1,4,30,corona,Spanish,Sounds/spa_corona.mp3,2020-06-05_15h35.02.201,TranslationElicitation_eng-prolific,3.2.4,Win32,60,5e60db57fdef8001c1fdc6f7,,,,,,,
,,,,,,,,,,,,,,,,,,,,,,,,,,,,,,,,,,,,,,,,,r,2.95600009,BEER,FALSE,1,0,5,1,1,4,30,corona,Spanish,Sounds/spa_corona.mp3,2020-06-05_15h35.02.201,TranslationElicitation_eng-prolific,3.2.4,Win32,60,5e60db57fdef8001c1fdc6f7,,,,,,,
,,,,,,,,,,,,,,,,,,,,,,,,,,,,,,,,,,,,,,,,,return,3.907999992,BEER,FALSE,1,0,5,1,1,4,30,corona,Spanish,Sounds/spa_corona.mp3,2020-06-05_15h35.02.201,TranslationElicitation_eng-prolific,3.2.4,Win32,60,5e60db57fdef8001c1fdc6f7,3.907999992,,,,,,
,,,,,,,,,,,,,,,,,,,,,,,,,,,,,,,,,,,,,,,,,,,,,1,0,5,1,1,4,30,corona,Spanish,Sounds/spa_corona.mp3,2020-06-05_15h35.02.201,TranslationElicitation_eng-prolific,3.2.4,Win32,60,5e60db57fdef8001c1fdc6f7,,,,,,,
,,,,,,,,,,,,,,,,,,,,,,,,,,,,,,,,,,,,,,,,,c,16.66499996,C,FALSE,1,0,5,4,1,4,96,tigre,Spanish,Sounds/spa_tigre.mp3,2020-06-05_15h35.02.201,TranslationElicitation_eng-prolific,3.2.4,Win32,60,5e60db57fdef8001c1fdc6f7,,,,,,,
,,,,,,,,,,,,,,,,,,,,,,,,,,,,,,,,,,,,,,,,,o,16.76499987,CO,FALSE,1,0,5,4,1,4,96,tigre,Spanish,Sounds/spa_tigre.mp3,2020-06-05_15h35.02.201,TranslationElicitation_eng-prolific,3.2.4,Win32,60,5e60db57fdef8001c1fdc6f7,,,,,,,
,,,,,,,,,,,,,,,,,,,,,,,,,,,,,,,,,,,,,,,,,f,16.89899993,COF,FALSE,1,0,5,4,1,4,96,tigre,Spanish,Sounds/spa_tigre.mp3,2020-06-05_15h35.02.201,TranslationElicitation_eng-prolific,3.2.4,Win32,60,5e60db57fdef8001c1fdc6f7,,,,,,,
,,,,,,,,,,,,,,,,,,,,,,,,,,,,,,,,,,,,,,,,,f,17.04899979,COFF,FALSE,1,0,5,4,1,4,96,tigre,Spanish,Sounds/spa_tigre.mp3,2020-06-05_15h35.02.201,TranslationElicitation_eng-prolific,3.2.4,Win32,60,5e60db57fdef8001c1fdc6f7,,,,,,,
,,,,,,,,,,,,,,,,,,,,,,,,,,,,,,,,,,,,,,,,,e,17.2329998,COFFE,FALSE,1,0,5,4,1,4,96,tigre,Spanish,Sounds/spa_tigre.mp3,2020-06-05_15h35.02.201,TranslationElicitation_eng-prolific,3.2.4,Win32,60,5e60db57fdef8001c1fdc6f7,,,,,,,
,,,,,,,,,,,,,,,,,,,,,,,,,,,,,,,,,,,,,,,,,e,17.36599994,COFFEE,FALSE,1,0,5,4,1,4,96,tigre,Spanish,Sounds/spa_tigre.mp3,2020-06-05_15h35.02.201,TranslationElicitation_eng-prolific,3.2.4,Win32,60,5e60db57fdef8001c1fdc6f7,,,,,,,
,,,,,,,,,,,,,,,,,,,,,,,,,,,,,,,,,,,,,,,,,return,17.69999981,COFFEE,FALSE,1,0,5,4,1,4,96,tigre,Spanish,Sounds/spa_tigre.mp3,2020-06-05_15h35.02.201,TranslationElicitation_eng-prolific,3.2.4,Win32,60,5e60db57fdef8001c1fdc6f7,17.69999981,,,,,,
,,,,,,,,,,,,,,,,,,,,,,,,,,,,,,,,,,,,,,,,,,,,,1,0,5,4,1,4,96,tigre,Spanish,Sounds/spa_tigre.mp3,2020-06-05_15h35.02.201,TranslationElicitation_eng-prolific,3.2.4,Win32,60,5e60db57fdef8001c1fdc6f7,,,,,,,
,,,,,,,,,,,,,,,,,,,,,,,,,,,,,,,,,,,,,,,,,n,3.49000001,N,FALSE,,,,,,,13,buho,Spanish,Sounds/spa_buho.mp3,2020-06-05_15h35.02.201,TranslationElicitation_eng-prolific,3.2.4,Win32,60,5e60db57fdef8001c1fdc6f7,,1,0,98,11,1,97
,,,,,,,,,,,,,,,,,,,,,,,,,,,,,,,,,,,,,,,,,o,3.622999907,NO,FALSE,,,,,,,13,buho,Spanish,Sounds/spa_buho.mp3,2020-06-05_15h35.02.201,TranslationElicitation_eng-prolific,3.2.4,Win32,60,5e60db57fdef8001c1fdc6f7,,1,0,98,11,1,97
,,,,,,,,,,,,,,,,,,,,,,,,,,,,,,,,,,,,,,,,,return,4.040999889,NO,FALSE,,,,,,,13,buho,Spanish,Sounds/spa_buho.mp3,2020-06-05_15h35.02.201,TranslationElicitation_eng-prolific,3.2.4,Win32,60,5e60db57fdef8001c1fdc6f7,4.040999889,1,0,98,11,1,97
,,,,,,,,,,,,,,,,,,,,,,,,,,,,,,,,,,,,,,,,,,,,,,,,,,,13,buho,Spanish,Sounds/spa_buho.mp3,2020-06-05_15h35.02.201,TranslationElicitation_eng-prolific,3.2.4,Win32,60,5e60db57fdef8001c1fdc6f7,,1,0,98,11,1,97
,,,,,,,,,,,,,,,,,,,,,,,,,,,,,,,,,,,,,,,,,y,6.210999966,Y,FALSE,,,,,,,24,cereza,Spanish,Sounds/spa_cereza.mp3,2020-06-05_15h35.02.201,TranslationElicitation_eng-prolific,3.2.4,Win32,60,5e60db57fdef8001c1fdc6f7,,1,0,98,22,1,97
,,,,,,,,,,,,,,,,,,,,,,,,,,,,,,,,,,,,,,,,,e,6.361999989,YE,FALSE,,,,,,,24,cereza,Spanish,Sounds/spa_cereza.mp3,2020-06-05_15h35.02.201,TranslationElicitation_eng-prolific,3.2.4,Win32,60,5e60db57fdef8001c1fdc6f7,,1,0,98,22,1,97
,,,,,,,,,,,,,,,,,,,,,,,,,,,,,,,,,,,,,,,,,s,6.546000004,YES,FALSE,,,,,,,24,cereza,Spanish,Sounds/spa_cereza.mp3,2020-06-05_15h35.02.201,TranslationElicitation_eng-prolific,3.2.4,Win32,60,5e60db57fdef8001c1fdc6f7,,1,0,98,22,1,97
,,,,,,,,,,,,,,,,,,,,,,,,,,,,,,,,,,,,,,,,,space,6.578999996,YES ,FALSE,,,,,,,24,cereza,Spanish,Sounds/spa_cereza.mp3,2020-06-05_15h35.02.201,TranslationElicitation_eng-prolific,3.2.4,Win32,60,5e60db57fdef8001c1fdc6f7,,1,0,98,22,1,97
,,,,,,,,,,,,,,,,,,,,,,,,,,,,,,,,,,,,,,,,,p,6.796000004,YES P,FALSE,,,,,,,24,cereza,Spanish,Sounds/spa_cereza.mp3,2020-06-05_15h35.02.201,TranslationElicitation_eng-prolific,3.2.4,Win32,60,5e60db57fdef8001c1fdc6f7,,1,0,98,22,1,97
,,,,,,,,,,,,,,,,,,,,,,,,,,,,,,,,,,,,,,,,,l,6.878999949,YES PL,FALSE,,,,,,,24,cereza,Spanish,Sounds/spa_cereza.mp3,2020-06-05_15h35.02.201,TranslationElicitation_eng-prolific,3.2.4,Win32,60,5e60db57fdef8001c1fdc6f7,,1,0,98,22,1,97
,,,,,,,,,,,,,,,,,,,,,,,,,,,,,,,,,,,,,,,,,e,6.963000059,YES PLE,FALSE,,,,,,,24,cereza,Spanish,Sounds/spa_cereza.mp3,2020-06-05_15h35.02.201,TranslationElicitation_eng-prolific,3.2.4,Win32,60,5e60db57fdef8001c1fdc6f7,,1,0,98,22,1,97
,,,,,,,,,,,,,,,,,,,,,,,,,,,,,,,,,,,,,,,,,a,7.163000107,YES PLEA,FALSE,,,,,,,24,cereza,Spanish,Sounds/spa_cereza.mp3,2020-06-05_15h35.02.201,TranslationElicitation_eng-prolific,3.2.4,Win32,60,5e60db57fdef8001c1fdc6f7,,1,0,98,22,1,97
,,,,,,,,,,,,,,,,,,,,,,,,,,,,,,,,,,,,,,,,,s,7.313999891,YES PLEAS,FALSE,,,,,,,24,cereza,Spanish,Sounds/spa_cereza.mp3,2020-06-05_15h35.02.201,TranslationElicitation_eng-prolific,3.2.4,Win32,60,5e60db57fdef8001c1fdc6f7,,1,0,98,22,1,97
,,,,,,,,,,,,,,,,,,,,,,,,,,,,,,,,,,,,,,,,,e,7.480999947,YES PLEASE,FALSE,,,,,,,24,cereza,Spanish,Sounds/spa_cereza.mp3,2020-06-05_15h35.02.201,TranslationElicitation_eng-prolific,3.2.4,Win32,60,5e60db57fdef8001c1fdc6f7,,1,0,98,22,1,97
,,,,,,,,,,,,,,,,,,,,,,,,,,,,,,,,,,,,,,,,,return,7.713999987,YES PLEASE,FALSE,,,,,,,24,cereza,Spanish,Sounds/spa_cereza.mp3,2020-06-05_15h35.02.201,TranslationElicitation_eng-prolific,3.2.4,Win32,60,5e60db57fdef8001c1fdc6f7,7.713999987,1,0,98,22,1,97
,,,,,,,,,,,,,,,,,,,,,,,,,,,,,,,,,,,,,,,,,,,,,,,,,,,24,cereza,Spanish,Sounds/spa_cereza.mp3,2020-06-05_15h35.02.201,TranslationElicitation_eng-prolific,3.2.4,Win32,60,5e60db57fdef8001c1fdc6f7,,1,0,98,22,1,97
,,,,,,,,,,,,,,,,,,,,,,,,,,,,,,,,,,,,,,,,,g,2.453999996,G,FALSE,,,,,,,46,grifo,Spanish,Sounds/spa_grifo.mp3,2020-06-05_15h35.02.201,TranslationElicitation_eng-prolific,3.2.4,Win32,60,5e60db57fdef8001c1fdc6f7,,1,0,98,42,1,97
,,,,,,,,,,,,,,,,,,,,,,,,,,,,,,,,,,,,,,,,,r,2.671000004,GR,FALSE,,,,,,,46,grifo,Spanish,Sounds/spa_grifo.mp3,2020-06-05_15h35.02.201,TranslationElicitation_eng-prolific,3.2.4,Win32,60,5e60db57fdef8001c1fdc6f7,,1,0,98,42,1,97
,,,,,,,,,,,,,,,,,,,,,,,,,,,,,,,,,,,,,,,,,i,2.754999876,GRI,FALSE,,,,,,,46,grifo,Spanish,Sounds/spa_grifo.mp3,2020-06-05_15h35.02.201,TranslationElicitation_eng-prolific,3.2.4,Win32,60,5e60db57fdef8001c1fdc6f7,,1,0,98,42,1,97
,,,,,,,,,,,,,,,,,,,,,,,,,,,,,,,,,,,,,,,,,e,2.871000051,GRIE,FALSE,,,,,,,46,grifo,Spanish,Sounds/spa_grifo.mp3,2020-06-05_15h35.02.201,TranslationElicitation_eng-prolific,3.2.4,Win32,60,5e60db57fdef8001c1fdc6f7,,1,0,98,42,1,97
,,,,,,,,,,,,,,,,,,,,,,,,,,,,,,,,,,,,,,,,,f,3.188999891,GRIEF,FALSE,,,,,,,46,grifo,Spanish,Sounds/spa_grifo.mp3,2020-06-05_15h35.02.201,TranslationElicitation_eng-prolific,3.2.4,Win32,60,5e60db57fdef8001c1fdc6f7,,1,0,98,42,1,97
,,,,,,,,,,,,,,,,,,,,,,,,,,,,,,,,,,,,,,,,,return,3.555999994,GRIEF,FALSE,,,,,,,46,grifo,Spanish,Sounds/spa_grifo.mp3,2020-06-05_15h35.02.201,TranslationElicitation_eng-prolific,3.2.4,Win32,60,5e60db57fdef8001c1fdc6f7,3.555999994,1,0,98,42,1,97
,,,,,,,,,,,,,,,,,,,,,,,,,,,,,,,,,,,,,,,,,,,,,,,,,,,46,grifo,Spanish,Sounds/spa_grifo.mp3,2020-06-05_15h35.02.201,TranslationElicitation_eng-prolific,3.2.4,Win32,60,5e60db57fdef8001c1fdc6f7,,1,0,98,42,1,97
,,,,,,,,,,,,,,,,,,,,,,,,,,,,,,,,,,,,,,,,,l,1.869999886,L,FALSE,,,,,,,87,platano,Spanish,Sounds/spa_platano.mp3,2020-06-05_15h35.02.201,TranslationElicitation_eng-prolific,3.2.4,Win32,60,5e60db57fdef8001c1fdc6f7,,1,0,98,82,1,97
,,,,,,,,,,,,,,,,,,,,,,,,,,,,,,,,,,,,,,,,,a,2.053999901,LA,FALSE,,,,,,,87,platano,Spanish,Sounds/spa_platano.mp3,2020-06-05_15h35.02.201,TranslationElicitation_eng-prolific,3.2.4,Win32,60,5e60db57fdef8001c1fdc6f7,,1,0,98,82,1,97
,,,,,,,,,,,,,,,,,,,,,,,,,,,,,,,,,,,,,,,,,t,2.337999821,LAT,FALSE,,,,,,,87,platano,Spanish,Sounds/spa_platano.mp3,2020-06-05_15h35.02.201,TranslationElicitation_eng-prolific,3.2.4,Win32,60,5e60db57fdef8001c1fdc6f7,,1,0,98,82,1,97
,,,,,,,,,,,,,,,,,,,,,,,,,,,,,,,,,,,,,,,,,i,2.521999836,LATI,FALSE,,,,,,,87,platano,Spanish,Sounds/spa_platano.mp3,2020-06-05_15h35.02.201,TranslationElicitation_eng-prolific,3.2.4,Win32,60,5e60db57fdef8001c1fdc6f7,,1,0,98,82,1,97
,,,,,,,,,,,,,,,,,,,,,,,,,,,,,,,,,,,,,,,,,n,2.654999971,LATIN,FALSE,,,,,,,87,platano,Spanish,Sounds/spa_platano.mp3,2020-06-05_15h35.02.201,TranslationElicitation_eng-prolific,3.2.4,Win32,60,5e60db57fdef8001c1fdc6f7,,1,0,98,82,1,97
,,,,,,,,,,,,,,,,,,,,,,,,,,,,,,,,,,,,,,,,,o,2.988999844,LATINO,FALSE,,,,,,,87,platano,Spanish,Sounds/spa_platano.mp3,2020-06-05_15h35.02.201,TranslationElicitation_eng-prolific,3.2.4,Win32,60,5e60db57fdef8001c1fdc6f7,,1,0,98,82,1,97
,,,,,,,,,,,,,,,,,,,,,,,,,,,,,,,,,,,,,,,,,backspace,4.541999817,LATIN,TRUE,,,,,,,87,platano,Spanish,Sounds/spa_platano.mp3,2020-06-05_15h35.02.201,TranslationElicitation_eng-prolific,3.2.4,Win32,60,5e60db57fdef8001c1fdc6f7,,1,0,98,82,1,97
,,,,,,,,,,,,,,,,,,,,,,,,,,,,,,,,,,,,,,,,,return,4.9599998,LATIN,TRUE,,,,,,,87,platano,Spanish,Sounds/spa_platano.mp3,2020-06-05_15h35.02.201,TranslationElicitation_eng-prolific,3.2.4,Win32,60,5e60db57fdef8001c1fdc6f7,4.9599998,1,0,98,82,1,97
,,,,,,,,,,,,,,,,,,,,,,,,,,,,,,,,,,,,,,,,,,,,,,,,,,,87,platano,Spanish,Sounds/spa_platano.mp3,2020-06-05_15h35.02.201,TranslationElicitation_eng-prolific,3.2.4,Win32,60,5e60db57fdef8001c1fdc6f7,,1,0,98,82,1,97
,,,,,,,,,,,,,,,,,,,,,,,,,,,,,,,,,,,,,,,,,r,10.48600006,R,FALSE,,,,,,,45,gorro,Spanish,Sounds/spa_gorro.mp3,2020-06-05_15h35.02.201,TranslationElicitation_eng-prolific,3.2.4,Win32,60,5e60db57fdef8001c1fdc6f7,,1,0,98,41,1,97
,,,,,,,,,,,,,,,,,,,,,,,,,,,,,,,,,,,,,,,,,o,10.63700008,RO,FALSE,,,,,,,45,gorro,Spanish,Sounds/spa_gorro.mp3,2020-06-05_15h35.02.201,TranslationElicitation_eng-prolific,3.2.4,Win32,60,5e60db57fdef8001c1fdc6f7,,1,0,98,41,1,97
,,,,,,,,,,,,,,,,,,,,,,,,,,,,,,,,,,,,,,,,,p,10.76999998,ROP,FALSE,,,,,,,45,gorro,Spanish,Sounds/spa_gorro.mp3,2020-06-05_15h35.02.201,TranslationElicitation_eng-prolific,3.2.4,Win32,60,5e60db57fdef8001c1fdc6f7,,1,0,98,41,1,97
,,,,,,,,,,,,,,,,,,,,,,,,,,,,,,,,,,,,,,,,,e,10.93700004,ROPE,FALSE,,,,,,,45,gorro,Spanish,Sounds/spa_gorro.mp3,2020-06-05_15h35.02.201,TranslationElicitation_eng-prolific,3.2.4,Win32,60,5e60db57fdef8001c1fdc6f7,,1,0,98,41,1,97
,,,,,,,,,,,,,,,,,,,,,,,,,,,,,,,,,,,,,,,,,return,11.27099991,ROPE,FALSE,,,,,,,45,gorro,Spanish,Sounds/spa_gorro.mp3,2020-06-05_15h35.02.201,TranslationElicitation_eng-prolific,3.2.4,Win32,60,5e60db57fdef8001c1fdc6f7,11.27099991,1,0,98,41,1,97
,,,,,,,,,,,,,,,,,,,,,,,,,,,,,,,,,,,,,,,,,,,,,,,,,,,45,gorro,Spanish,Sounds/spa_gorro.mp3,2020-06-05_15h35.02.201,TranslationElicitation_eng-prolific,3.2.4,Win32,60,5e60db57fdef8001c1fdc6f7,,1,0,98,41,1,97
,,,,,,,,,,,,,,,,,,,,,,,,,,,,,,,,,,,,,,,,,b,4.32400012,B,FALSE,,,,,,,83,pez,Spanish,Sounds/spa_pez.mp3,2020-06-05_15h35.02.201,TranslationElicitation_eng-prolific,3.2.4,Win32,60,5e60db57fdef8001c1fdc6f7,,1,0,98,78,1,97
,,,,,,,,,,,,,,,,,,,,,,,,,,,,,,,,,,,,,,,,,r,4.508000135,BR,FALSE,,,,,,,83,pez,Spanish,Sounds/spa_pez.mp3,2020-06-05_15h35.02.201,TranslationElicitation_eng-prolific,3.2.4,Win32,60,5e60db57fdef8001c1fdc6f7,,1,0,98,78,1,97
,,,,,,,,,,,,,,,,,,,,,,,,,,,,,,,,,,,,,,,,,e,4.709000111,BRE,FALSE,,,,,,,83,pez,Spanish,Sounds/spa_pez.mp3,2020-06-05_15h35.02.201,TranslationElicitation_eng-prolific,3.2.4,Win32,60,5e60db57fdef8001c1fdc6f7,,1,0,98,78,1,97
,,,,,,,,,,,,,,,,,,,,,,,,,,,,,,,,,,,,,,,,,a,4.909000158,BREA,FALSE,,,,,,,83,pez,Spanish,Sounds/spa_pez.mp3,2020-06-05_15h35.02.201,TranslationElicitation_eng-prolific,3.2.4,Win32,60,5e60db57fdef8001c1fdc6f7,,1,0,98,78,1,97
,,,,,,,,,,,,,,,,,,,,,,,,,,,,,,,,,,,,,,,,,d,5.093000174,BREAD,FALSE,,,,,,,83,pez,Spanish,Sounds/spa_pez.mp3,2020-06-05_15h35.02.201,TranslationElicitation_eng-prolific,3.2.4,Win32,60,5e60db57fdef8001c1fdc6f7,,1,0,98,78,1,97
,,,,,,,,,,,,,,,,,,,,,,,,,,,,,,,,,,,,,,,,,return,5.360000134,BREAD,FALSE,,,,,,,83,pez,Spanish,Sounds/spa_pez.mp3,2020-06-05_15h35.02.201,TranslationElicitation_eng-prolific,3.2.4,Win32,60,5e60db57fdef8001c1fdc6f7,5.360000134,1,0,98,78,1,97
,,,,,,,,,,,,,,,,,,,,,,,,,,,,,,,,,,,,,,,,,,,,,,,,,,,83,pez,Spanish,Sounds/spa_pez.mp3,2020-06-05_15h35.02.201,TranslationElicitation_eng-prolific,3.2.4,Win32,60,5e60db57fdef8001c1fdc6f7,,1,0,98,78,1,97
,,,,,,,,,,,,,,,,,,,,,,,,,,,,,,,,,,,,,,,,,d,4.442000151,D,FALSE,,,,,,,9,boli,Spanish,Sounds/spa_boli.mp3,2020-06-05_15h35.02.201,TranslationElicitation_eng-prolific,3.2.4,Win32,60,5e60db57fdef8001c1fdc6f7,,1,0,98,7,1,97
,,,,,,,,,,,,,,,,,,,,,,,,,,,,,,,,,,,,,,,,,a,4.643000126,DA,FALSE,,,,,,,9,boli,Spanish,Sounds/spa_boli.mp3,2020-06-05_15h35.02.201,TranslationElicitation_eng-prolific,3.2.4,Win32,60,5e60db57fdef8001c1fdc6f7,,1,0,98,7,1,97
,,,,,,,,,,,,,,,,,,,,,,,,,,,,,,,,,,,,,,,,,n,4.726000071,DAN,FALSE,,,,,,,9,boli,Spanish,Sounds/spa_boli.mp3,2020-06-05_15h35.02.201,TranslationElicitation_eng-prolific,3.2.4,Win32,60,5e60db57fdef8001c1fdc6f7,,1,0,98,7,1,97
,,,,,,,,,,,,,,,,,,,,,,,,,,,,,,,,,,,,,,,,,c,4.876000166,DANC,FALSE,,,,,,,9,boli,Spanish,Sounds/spa_boli.mp3,2020-06-05_15h35.02.201,TranslationElicitation_eng-prolific,3.2.4,Win32,60,5e60db57fdef8001c1fdc6f7,,1,0,98,7,1,97
,,,,,,,,,,,,,,,,,,,,,,,,,,,,,,,,,,,,,,,,,e,5.060000181,DANCE,FALSE,,,,,,,9,boli,Spanish,Sounds/spa_boli.mp3,2020-06-05_15h35.02.201,TranslationElicitation_eng-prolific,3.2.4,Win32,60,5e60db57fdef8001c1fdc6f7,,1,0,98,7,1,97
,,,,,,,,,,,,,,,,,,,,,,,,,,,,,,,,,,,,,,,,,return,5.410000086,DANCE,FALSE,,,,,,,9,boli,Spanish,Sounds/spa_boli.mp3,2020-06-05_15h35.02.201,TranslationElicitation_eng-prolific,3.2.4,Win32,60,5e60db57fdef8001c1fdc6f7,5.410000086,1,0,98,7,1,97
,,,,,,,,,,,,,,,,,,,,,,,,,,,,,,,,,,,,,,,,,,,,,,,,,,,9,boli,Spanish,Sounds/spa_boli.mp3,2020-06-05_15h35.02.201,TranslationElicitation_eng-prolific,3.2.4,Win32,60,5e60db57fdef8001c1fdc6f7,,1,0,98,7,1,97
,,,,,,,,,,,,,,,,,,,,,,,,,,,,,,,,,,,,,,,,,g,1.670000076,G,FALSE,,,,,,,47,guitarra,Spanish,Sounds/spa_guitarra.mp3,2020-06-05_15h35.02.201,TranslationElicitation_eng-prolific,3.2.4,Win32,60,5e60db57fdef8001c1fdc6f7,,1,0,98,43,1,97
,,,,,,,,,,,,,,,,,,,,,,,,,,,,,,,,,,,,,,,,,u,1.852999926,GU,FALSE,,,,,,,47,guitarra,Spanish,Sounds/spa_guitarra.mp3,2020-06-05_15h35.02.201,TranslationElicitation_eng-prolific,3.2.4,Win32,60,5e60db57fdef8001c1fdc6f7,,1,0,98,43,1,97
,,,,,,,,,,,,,,,,,,,,,,,,,,,,,,,,,,,,,,,,,i,1.902999878,GUI,FALSE,,,,,,,47,guitarra,Spanish,Sounds/spa_guitarra.mp3,2020-06-05_15h35.02.201,TranslationElicitation_eng-prolific,3.2.4,Win32,60,5e60db57fdef8001c1fdc6f7,,1,0,98,43,1,97
,,,,,,,,,,,,,,,,,,,,,,,,,,,,,,,,,,,,,,,,,t,2.052999973,GUIT,FALSE,,,,,,,47,guitarra,Spanish,Sounds/spa_guitarra.mp3,2020-06-05_15h35.02.201,TranslationElicitation_eng-prolific,3.2.4,Win32,60,5e60db57fdef8001c1fdc6f7,,1,0,98,43,1,97
,,,,,,,,,,,,,,,,,,,,,,,,,,,,,,,,,,,,,,,,,a,2.421000004,GUITA,FALSE,,,,,,,47,guitarra,Spanish,Sounds/spa_guitarra.mp3,2020-06-05_15h35.02.201,TranslationElicitation_eng-prolific,3.2.4,Win32,60,5e60db57fdef8001c1fdc6f7,,1,0,98,43,1,97
,,,,,,,,,,,,,,,,,,,,,,,,,,,,,,,,,,,,,,,,,r,2.654999971,GUITAR,FALSE,,,,,,,47,guitarra,Spanish,Sounds/spa_guitarra.mp3,2020-06-05_15h35.02.201,TranslationElicitation_eng-prolific,3.2.4,Win32,60,5e60db57fdef8001c1fdc6f7,,1,0,98,43,1,97
,,,,,,,,,,,,,,,,,,,,,,,,,,,,,,,,,,,,,,,,,return,3.022000074,GUITAR,FALSE,,,,,,,47,guitarra,Spanish,Sounds/spa_guitarra.mp3,2020-06-05_15h35.02.201,TranslationElicitation_eng-prolific,3.2.4,Win32,60,5e60db57fdef8001c1fdc6f7,3.022000074,1,0,98,43,1,97
,,,,,,,,,,,,,,,,,,,,,,,,,,,,,,,,,,,,,,,,,,,,,,,,,,,47,guitarra,Spanish,Sounds/spa_guitarra.mp3,2020-06-05_15h35.02.201,TranslationElicitation_eng-prolific,3.2.4,Win32,60,5e60db57fdef8001c1fdc6f7,,1,0,98,43,1,97
,,,,,,,,,,,,,,,,,,,,,,,,,,,,,,,,,,,,,,,,,p,1.335999966,P,FALSE,,,,,,,10,botella,Spanish,Sounds/spa_botella.mp3,2020-06-05_15h35.02.201,TranslationElicitation_eng-prolific,3.2.4,Win32,60,5e60db57fdef8001c1fdc6f7,,1,0,98,8,1,97
,,,,,,,,,,,,,,,,,,,,,,,,,,,,,,,,,,,,,,,,,o,1.453000069,PO,FALSE,,,,,,,10,botella,Spanish,Sounds/spa_botella.mp3,2020-06-05_15h35.02.201,TranslationElicitation_eng-prolific,3.2.4,Win32,60,5e60db57fdef8001c1fdc6f7,,1,0,98,8,1,97
,,,,,,,,,,,,,,,,,,,,,,,,,,,,,,,,,,,,,,,,,t,1.670000076,POT,FALSE,,,,,,,10,botella,Spanish,Sounds/spa_botella.mp3,2020-06-05_15h35.02.201,TranslationElicitation_eng-prolific,3.2.4,Win32,60,5e60db57fdef8001c1fdc6f7,,1,0,98,8,1,97
,,,,,,,,,,,,,,,,,,,,,,,,,,,,,,,,,,,,,,,,,a,1.953999996,POTA,FALSE,,,,,,,10,botella,Spanish,Sounds/spa_botella.mp3,2020-06-05_15h35.02.201,TranslationElicitation_eng-prolific,3.2.4,Win32,60,5e60db57fdef8001c1fdc6f7,,1,0,98,8,1,97
,,,,,,,,,,,,,,,,,,,,,,,,,,,,,,,,,,,,,,,,,t,2.171000004,POTAT,FALSE,,,,,,,10,botella,Spanish,Sounds/spa_botella.mp3,2020-06-05_15h35.02.201,TranslationElicitation_eng-prolific,3.2.4,Win32,60,5e60db57fdef8001c1fdc6f7,,1,0,98,8,1,97
,,,,,,,,,,,,,,,,,,,,,,,,,,,,,,,,,,,,,,,,,o,2.271000147,POTATO,FALSE,,,,,,,10,botella,Spanish,Sounds/spa_botella.mp3,2020-06-05_15h35.02.201,TranslationElicitation_eng-prolific,3.2.4,Win32,60,5e60db57fdef8001c1fdc6f7,,1,0,98,8,1,97
,,,,,,,,,,,,,,,,,,,,,,,,,,,,,,,,,,,,,,,,,return,2.621999979,POTATO,FALSE,,,,,,,10,botella,Spanish,Sounds/spa_botella.mp3,2020-06-05_15h35.02.201,TranslationElicitation_eng-prolific,3.2.4,Win32,60,5e60db57fdef8001c1fdc6f7,2.621999979,1,0,98,8,1,97
,,,,,,,,,,,,,,,,,,,,,,,,,,,,,,,,,,,,,,,,,,,,,,,,,,,10,botella,Spanish,Sounds/spa_botella.mp3,2020-06-05_15h35.02.201,TranslationElicitation_eng-prolific,3.2.4,Win32,60,5e60db57fdef8001c1fdc6f7,,1,0,98,8,1,97
,,,,,,,,,,,,,,,,,,,,,,,,,,,,,,,,,,,,,,,,,f,1.68599987,F,FALSE,,,,,,,37,flor,Spanish,Sounds/spa_flor.mp3,2020-06-05_15h35.02.201,TranslationElicitation_eng-prolific,3.2.4,Win32,60,5e60db57fdef8001c1fdc6f7,,1,0,98,33,1,97
,,,,,,,,,,,,,,,,,,,,,,,,,,,,,,,,,,,,,,,,,l,1.836999893,FL,FALSE,,,,,,,37,flor,Spanish,Sounds/spa_flor.mp3,2020-06-05_15h35.02.201,TranslationElicitation_eng-prolific,3.2.4,Win32,60,5e60db57fdef8001c1fdc6f7,,1,0,98,33,1,97
,,,,,,,,,,,,,,,,,,,,,,,,,,,,,,,,,,,,,,,,,o,2.019999981,FLO,FALSE,,,,,,,37,flor,Spanish,Sounds/spa_flor.mp3,2020-06-05_15h35.02.201,TranslationElicitation_eng-prolific,3.2.4,Win32,60,5e60db57fdef8001c1fdc6f7,,1,0,98,33,1,97
,,,,,,,,,,,,,,,,,,,,,,,,,,,,,,,,,,,,,,,,,o,2.187000036,FLOO,FALSE,,,,,,,37,flor,Spanish,Sounds/spa_flor.mp3,2020-06-05_15h35.02.201,TranslationElicitation_eng-prolific,3.2.4,Win32,60,5e60db57fdef8001c1fdc6f7,,1,0,98,33,1,97
,,,,,,,,,,,,,,,,,,,,,,,,,,,,,,,,,,,,,,,,,r,2.253999949,FLOOR,FALSE,,,,,,,37,flor,Spanish,Sounds/spa_flor.mp3,2020-06-05_15h35.02.201,TranslationElicitation_eng-prolific,3.2.4,Win32,60,5e60db57fdef8001c1fdc6f7,,1,0,98,33,1,97
,,,,,,,,,,,,,,,,,,,,,,,,,,,,,,,,,,,,,,,,,return,2.571000099,FLOOR,FALSE,,,,,,,37,flor,Spanish,Sounds/spa_flor.mp3,2020-06-05_15h35.02.201,TranslationElicitation_eng-prolific,3.2.4,Win32,60,5e60db57fdef8001c1fdc6f7,2.571000099,1,0,98,33,1,97
,,,,,,,,,,,,,,,,,,,,,,,,,,,,,,,,,,,,,,,,,,,,,,,,,,,37,flor,Spanish,Sounds/spa_flor.mp3,2020-06-05_15h35.02.201,TranslationElicitation_eng-prolific,3.2.4,Win32,60,5e60db57fdef8001c1fdc6f7,,1,0,98,33,1,97
,,,,,,,,,,,,,,,,,,,,,,,,,,,,,,,,,,,,,,,,,f,4.258000135,F,FALSE,,,,,,,71,ombligo,Spanish,Sounds/spa_ombligo.mp3,2020-06-05_15h35.02.201,TranslationElicitation_eng-prolific,3.2.4,Win32,60,5e60db57fdef8001c1fdc6f7,,1,0,98,66,1,97
,,,,,,,,,,,,,,,,,,,,,,,,,,,,,,,,,,,,,,,,,r,4.40899992,FR,FALSE,,,,,,,71,ombligo,Spanish,Sounds/spa_ombligo.mp3,2020-06-05_15h35.02.201,TranslationElicitation_eng-prolific,3.2.4,Win32,60,5e60db57fdef8001c1fdc6f7,,1,0,98,66,1,97
,,,,,,,,,,,,,,,,,,,,,,,,,,,,,,,,,,,,,,,,,i,4.509000063,FRI,FALSE,,,,,,,71,ombligo,Spanish,Sounds/spa_ombligo.mp3,2020-06-05_15h35.02.201,TranslationElicitation_eng-prolific,3.2.4,Win32,60,5e60db57fdef8001c1fdc6f7,,1,0,98,66,1,97
,,,,,,,,,,,,,,,,,,,,,,,,,,,,,,,,,,,,,,,,,e,4.64199996,FRIE,FALSE,,,,,,,71,ombligo,Spanish,Sounds/spa_ombligo.mp3,2020-06-05_15h35.02.201,TranslationElicitation_eng-prolific,3.2.4,Win32,60,5e60db57fdef8001c1fdc6f7,,1,0,98,66,1,97
,,,,,,,,,,,,,,,,,,,,,,,,,,,,,,,,,,,,,,,,,n,4.759000063,FRIEN,FALSE,,,,,,,71,ombligo,Spanish,Sounds/spa_ombligo.mp3,2020-06-05_15h35.02.201,TranslationElicitation_eng-prolific,3.2.4,Win32,60,5e60db57fdef8001c1fdc6f7,,1,0,98,66,1,97
,,,,,,,,,,,,,,,,,,,,,,,,,,,,,,,,,,,,,,,,,d,4.926000118,FRIEND,FALSE,,,,,,,71,ombligo,Spanish,Sounds/spa_ombligo.mp3,2020-06-05_15h35.02.201,TranslationElicitation_eng-prolific,3.2.4,Win32,60,5e60db57fdef8001c1fdc6f7,,1,0,98,66,1,97
,,,,,,,,,,,,,,,,,,,,,,,,,,,,,,,,,,,,,,,,,return,5.243999958,FRIEND,FALSE,,,,,,,71,ombligo,Spanish,Sounds/spa_ombligo.mp3,2020-06-05_15h35.02.201,TranslationElicitation_eng-prolific,3.2.4,Win32,60,5e60db57fdef8001c1fdc6f7,5.243999958,1,0,98,66,1,97
,,,,,,,,,,,,,,,,,,,,,,,,,,,,,,,,,,,,,,,,,,,,,,,,,,,71,ombligo,Spanish,Sounds/spa_ombligo.mp3,2020-06-05_15h35.02.201,TranslationElicitation_eng-prolific,3.2.4,Win32,60,5e60db57fdef8001c1fdc6f7,,1,0,98,66,1,97
,,,,,,,,,,,,,,,,,,,,,,,,,,,,,,,,,,,,,,,,,a,5.108999968,A,FALSE,,,,,,,40,galleta,Spanish,Sounds/spa_galleta.mp3,2020-06-05_15h35.02.201,TranslationElicitation_eng-prolific,3.2.4,Win32,60,5e60db57fdef8001c1fdc6f7,,1,0,98,36,1,97
,,,,,,,,,,,,,,,,,,,,,,,,,,,,,,,,,,,,,,,,,u,5.226000071,AU,FALSE,,,,,,,40,galleta,Spanish,Sounds/spa_galleta.mp3,2020-06-05_15h35.02.201,TranslationElicitation_eng-prolific,3.2.4,Win32,60,5e60db57fdef8001c1fdc6f7,,1,0,98,36,1,97
,,,,,,,,,,,,,,,,,,,,,,,,,,,,,,,,,,,,,,,,,n,5.342999935,AUN,FALSE,,,,,,,40,galleta,Spanish,Sounds/spa_galleta.mp3,2020-06-05_15h35.02.201,TranslationElicitation_eng-prolific,3.2.4,Win32,60,5e60db57fdef8001c1fdc6f7,,1,0,98,36,1,97
,,,,,,,,,,,,,,,,,,,,,,,,,,,,,,,,,,,,,,,,,t,5.493999958,AUNT,FALSE,,,,,,,40,galleta,Spanish,Sounds/spa_galleta.mp3,2020-06-05_15h35.02.201,TranslationElicitation_eng-prolific,3.2.4,Win32,60,5e60db57fdef8001c1fdc6f7,,1,0,98,36,1,97
,,,,,,,,,,,,,,,,,,,,,,,,,,,,,,,,,,,,,,,,,return,9.066999912,AUNT,FALSE,,,,,,,40,galleta,Spanish,Sounds/spa_galleta.mp3,2020-06-05_15h35.02.201,TranslationElicitation_eng-prolific,3.2.4,Win32,60,5e60db57fdef8001c1fdc6f7,9.066999912,1,0,98,36,1,97
,,,,,,,,,,,,,,,,,,,,,,,,,,,,,,,,,,,,,,,,,,,,,,,,,,,40,galleta,Spanish,Sounds/spa_galleta.mp3,2020-06-05_15h35.02.201,TranslationElicitation_eng-prolific,3.2.4,Win32,60,5e60db57fdef8001c1fdc6f7,,1,0,98,36,1,97
,,,,,,,,,,,,,,,,,,,,,,,,,,,,,,,,,,,,,,,,,g,112.8999999,G,FALSE,,,,,,,59,mano,Spanish,Sounds/spa_mano.mp3,2020-06-05_15h35.02.201,TranslationElicitation_eng-prolific,3.2.4,Win32,60,5e60db57fdef8001c1fdc6f7,,1,0,98,55,1,97
,,,,,,,,,,,,,,,,,,,,,,,,,,,,,,,,,,,,,,,,,r,113.0839999,GR,FALSE,,,,,,,59,mano,Spanish,Sounds/spa_mano.mp3,2020-06-05_15h35.02.201,TranslationElicitation_eng-prolific,3.2.4,Win32,60,5e60db57fdef8001c1fdc6f7,,1,0,98,55,1,97
,,,,,,,,,,,,,,,,,,,,,,,,,,,,,,,,,,,,,,,,,a,113.368,GRA,FALSE,,,,,,,59,mano,Spanish,Sounds/spa_mano.mp3,2020-06-05_15h35.02.201,TranslationElicitation_eng-prolific,3.2.4,Win32,60,5e60db57fdef8001c1fdc6f7,,1,0,98,55,1,97
,,,,,,,,,,,,,,,,,,,,,,,,,,,,,,,,,,,,,,,,,i,113.451,GRAI,FALSE,,,,,,,59,mano,Spanish,Sounds/spa_mano.mp3,2020-06-05_15h35.02.201,TranslationElicitation_eng-prolific,3.2.4,Win32,60,5e60db57fdef8001c1fdc6f7,,1,0,98,55,1,97
,,,,,,,,,,,,,,,,,,,,,,,,,,,,,,,,,,,,,,,,,n,113.5350001,GRAIN,FALSE,,,,,,,59,mano,Spanish,Sounds/spa_mano.mp3,2020-06-05_15h35.02.201,TranslationElicitation_eng-prolific,3.2.4,Win32,60,5e60db57fdef8001c1fdc6f7,,1,0,98,55,1,97
,,,,,,,,,,,,,,,,,,,,,,,,,,,,,,,,,,,,,,,,,return,113.869,GRAIN,FALSE,,,,,,,59,mano,Spanish,Sounds/spa_mano.mp3,2020-06-05_15h35.02.201,TranslationElicitation_eng-prolific,3.2.4,Win32,60,5e60db57fdef8001c1fdc6f7,113.869,1,0,98,55,1,97
,,,,,,,,,,,,,,,,,,,,,,,,,,,,,,,,,,,,,,,,,,,,,,,,,,,59,mano,Spanish,Sounds/spa_mano.mp3,2020-06-05_15h35.02.201,TranslationElicitation_eng-prolific,3.2.4,Win32,60,5e60db57fdef8001c1fdc6f7,,1,0,98,55,1,97
,,,,,,,,,,,,,,,,,,,,,,,,,,,,,,,,,,,,,,,,,t,2.771999836,T,FALSE,,,,,,,94,tambor,Spanish,Sounds/spa_tambor.mp3,2020-06-05_15h35.02.201,TranslationElicitation_eng-prolific,3.2.4,Win32,60,5e60db57fdef8001c1fdc6f7,,1,0,98,89,1,97
,,,,,,,,,,,,,,,,,,,,,,,,,,,,,,,,,,,,,,,,,a,3.155999899,TA,FALSE,,,,,,,94,tambor,Spanish,Sounds/spa_tambor.mp3,2020-06-05_15h35.02.201,TranslationElicitation_eng-prolific,3.2.4,Win32,60,5e60db57fdef8001c1fdc6f7,,1,0,98,89,1,97
,,,,,,,,,,,,,,,,,,,,,,,,,,,,,,,,,,,,,,,,,m,3.305999994,TAM,FALSE,,,,,,,94,tambor,Spanish,Sounds/spa_tambor.mp3,2020-06-05_15h35.02.201,TranslationElicitation_eng-prolific,3.2.4,Win32,60,5e60db57fdef8001c1fdc6f7,,1,0,98,89,1,97
,,,,,,,,,,,,,,,,,,,,,,,,,,,,,,,,,,,,,,,,,b,3.455999851,TAMB,FALSE,,,,,,,94,tambor,Spanish,Sounds/spa_tambor.mp3,2020-06-05_15h35.02.201,TranslationElicitation_eng-prolific,3.2.4,Win32,60,5e60db57fdef8001c1fdc6f7,,1,0,98,89,1,97
,,,,,,,,,,,,,,,,,,,,,,,,,,,,,,,,,,,,,,,,,o,3.572999954,TAMBO,FALSE,,,,,,,94,tambor,Spanish,Sounds/spa_tambor.mp3,2020-06-05_15h35.02.201,TranslationElicitation_eng-prolific,3.2.4,Win32,60,5e60db57fdef8001c1fdc6f7,,1,0,98,89,1,97
,,,,,,,,,,,,,,,,,,,,,,,,,,,,,,,,,,,,,,,,,u,3.672999859,TAMBOU,FALSE,,,,,,,94,tambor,Spanish,Sounds/spa_tambor.mp3,2020-06-05_15h35.02.201,TranslationElicitation_eng-prolific,3.2.4,Win32,60,5e60db57fdef8001c1fdc6f7,,1,0,98,89,1,97
,,,,,,,,,,,,,,,,,,,,,,,,,,,,,,,,,,,,,,,,,r,3.823999882,TAMBOUR,FALSE,,,,,,,94,tambor,Spanish,Sounds/spa_tambor.mp3,2020-06-05_15h35.02.201,TranslationElicitation_eng-prolific,3.2.4,Win32,60,5e60db57fdef8001c1fdc6f7,,1,0,98,89,1,97
,,,,,,,,,,,,,,,,,,,,,,,,,,,,,,,,,,,,,,,,,i,3.906999826,TAMBOURI,FALSE,,,,,,,94,tambor,Spanish,Sounds/spa_tambor.mp3,2020-06-05_15h35.02.201,TranslationElicitation_eng-prolific,3.2.4,Win32,60,5e60db57fdef8001c1fdc6f7,,1,0,98,89,1,97
,,,,,,,,,,,,,,,,,,,,,,,,,,,,,,,,,,,,,,,,,n,4.006999969,TAMBOURIN,FALSE,,,,,,,94,tambor,Spanish,Sounds/spa_tambor.mp3,2020-06-05_15h35.02.201,TranslationElicitation_eng-prolific,3.2.4,Win32,60,5e60db57fdef8001c1fdc6f7,,1,0,98,89,1,97
,,,,,,,,,,,,,,,,,,,,,,,,,,,,,,,,,,,,,,,,,e,4.107999802,TAMBOURINE,FALSE,,,,,,,94,tambor,Spanish,Sounds/spa_tambor.mp3,2020-06-05_15h35.02.201,TranslationElicitation_eng-prolific,3.2.4,Win32,60,5e60db57fdef8001c1fdc6f7,,1,0,98,89,1,97
,,,,,,,,,,,,,,,,,,,,,,,,,,,,,,,,,,,,,,,,,return,4.441999912,TAMBOURINE,FALSE,,,,,,,94,tambor,Spanish,Sounds/spa_tambor.mp3,2020-06-05_15h35.02.201,TranslationElicitation_eng-prolific,3.2.4,Win32,60,5e60db57fdef8001c1fdc6f7,4.441999912,1,0,98,89,1,97
,,,,,,,,,,,,,,,,,,,,,,,,,,,,,,,,,,,,,,,,,,,,,,,,,,,94,tambor,Spanish,Sounds/spa_tambor.mp3,2020-06-05_15h35.02.201,TranslationElicitation_eng-prolific,3.2.4,Win32,60,5e60db57fdef8001c1fdc6f7,,1,0,98,89,1,97
,,,,,,,,,,,,,,,,,,,,,,,,,,,,,,,,,,,,,,,,,g,1.836999893,G,FALSE,,,,,,,43,globo,Spanish,Sounds/spa_globo.mp3,2020-06-05_15h35.02.201,TranslationElicitation_eng-prolific,3.2.4,Win32,60,5e60db57fdef8001c1fdc6f7,,1,0,98,39,1,97
,,,,,,,,,,,,,,,,,,,,,,,,,,,,,,,,,,,,,,,,,l,2.019999981,GL,FALSE,,,,,,,43,globo,Spanish,Sounds/spa_globo.mp3,2020-06-05_15h35.02.201,TranslationElicitation_eng-prolific,3.2.4,Win32,60,5e60db57fdef8001c1fdc6f7,,1,0,98,39,1,97
,,,,,,,,,,,,,,,,,,,,,,,,,,,,,,,,,,,,,,,,,o,2.120999813,GLO,FALSE,,,,,,,43,globo,Spanish,Sounds/spa_globo.mp3,2020-06-05_15h35.02.201,TranslationElicitation_eng-prolific,3.2.4,Win32,60,5e60db57fdef8001c1fdc6f7,,1,0,98,39,1,97
,,,,,,,,,,,,,,,,,,,,,,,,,,,,,,,,,,,,,,,,,b,2.320999861,GLOB,FALSE,,,,,,,43,globo,Spanish,Sounds/spa_globo.mp3,2020-06-05_15h35.02.201,TranslationElicitation_eng-prolific,3.2.4,Win32,60,5e60db57fdef8001c1fdc6f7,,1,0,98,39,1,97
,,,,,,,,,,,,,,,,,,,,,,,,,,,,,,,,,,,,,,,,,a,2.654999971,GLOBA,FALSE,,,,,,,43,globo,Spanish,Sounds/spa_globo.mp3,2020-06-05_15h35.02.201,TranslationElicitation_eng-prolific,3.2.4,Win32,60,5e60db57fdef8001c1fdc6f7,,1,0,98,39,1,97
,,,,,,,,,,,,,,,,,,,,,,,,,,,,,,,,,,,,,,,,,l,2.855000019,GLOBAL,FALSE,,,,,,,43,globo,Spanish,Sounds/spa_globo.mp3,2020-06-05_15h35.02.201,TranslationElicitation_eng-prolific,3.2.4,Win32,60,5e60db57fdef8001c1fdc6f7,,1,0,98,39,1,97
,,,,,,,,,,,,,,,,,,,,,,,,,,,,,,,,,,,,,,,,,return,3.088999987,GLOBAL,FALSE,,,,,,,43,globo,Spanish,Sounds/spa_globo.mp3,2020-06-05_15h35.02.201,TranslationElicitation_eng-prolific,3.2.4,Win32,60,5e60db57fdef8001c1fdc6f7,3.088999987,1,0,98,39,1,97
,,,,,,,,,,,,,,,,,,,,,,,,,,,,,,,,,,,,,,,,,,,,,,,,,,,43,globo,Spanish,Sounds/spa_globo.mp3,2020-06-05_15h35.02.201,TranslationElicitation_eng-prolific,3.2.4,Win32,60,5e60db57fdef8001c1fdc6f7,,1,0,98,39,1,97
,,,,,,,,,,,,,,,,,,,,,,,,,,,,,,,,,,,,,,,,,c,3.874000072,C,FALSE,,,,,,,4,biberon,Spanish,Sounds/spa_biberon.mp3,2020-06-05_15h35.02.201,TranslationElicitation_eng-prolific,3.2.4,Win32,60,5e60db57fdef8001c1fdc6f7,,1,0,98,2,1,97
,,,,,,,,,,,,,,,,,,,,,,,,,,,,,,,,,,,,,,,,,u,3.958000183,CU,FALSE,,,,,,,4,biberon,Spanish,Sounds/spa_biberon.mp3,2020-06-05_15h35.02.201,TranslationElicitation_eng-prolific,3.2.4,Win32,60,5e60db57fdef8001c1fdc6f7,,1,0,98,2,1,97
,,,,,,,,,,,,,,,,,,,,,,,,,,,,,,,,,,,,,,,,,r,4.108999968,CUR,FALSE,,,,,,,4,biberon,Spanish,Sounds/spa_biberon.mp3,2020-06-05_15h35.02.201,TranslationElicitation_eng-prolific,3.2.4,Win32,60,5e60db57fdef8001c1fdc6f7,,1,0,98,2,1,97
,,,,,,,,,,,,,,,,,,,,,,,,,,,,,,,,,,,,,,,,,r,4.241000175,CURR,FALSE,,,,,,,4,biberon,Spanish,Sounds/spa_biberon.mp3,2020-06-05_15h35.02.201,TranslationElicitation_eng-prolific,3.2.4,Win32,60,5e60db57fdef8001c1fdc6f7,,1,0,98,2,1,97
,,,,,,,,,,,,,,,,,,,,,,,,,,,,,,,,,,,,,,,,,y,4.425000191,CURRY,FALSE,,,,,,,4,biberon,Spanish,Sounds/spa_biberon.mp3,2020-06-05_15h35.02.201,TranslationElicitation_eng-prolific,3.2.4,Win32,60,5e60db57fdef8001c1fdc6f7,,1,0,98,2,1,97
,,,,,,,,,,,,,,,,,,,,,,,,,,,,,,,,,,,,,,,,,return,4.559000015,CURRY,FALSE,,,,,,,4,biberon,Spanish,Sounds/spa_biberon.mp3,2020-06-05_15h35.02.201,TranslationElicitation_eng-prolific,3.2.4,Win32,60,5e60db57fdef8001c1fdc6f7,4.559000015,1,0,98,2,1,97
,,,,,,,,,,,,,,,,,,,,,,,,,,,,,,,,,,,,,,,,,,,,,,,,,,,4,biberon,Spanish,Sounds/spa_biberon.mp3,2020-06-05_15h35.02.201,TranslationElicitation_eng-prolific,3.2.4,Win32,60,5e60db57fdef8001c1fdc6f7,,1,0,98,2,1,97
,,,,,,,,,,,,,,,,,,,,,,,,,,,,,,,,,,,,,,,,,b,4.35800004,B,FALSE,,,,,,,74,pajaro,Spanish,Sounds/spa_pajaro.mp3,2020-06-05_15h35.02.201,TranslationElicitation_eng-prolific,3.2.4,Win32,60,5e60db57fdef8001c1fdc6f7,,1,0,98,69,1,97
,,,,,,,,,,,,,,,,,,,,,,,,,,,,,,,,,,,,,,,,,a,4.507999897,BA,FALSE,,,,,,,74,pajaro,Spanish,Sounds/spa_pajaro.mp3,2020-06-05_15h35.02.201,TranslationElicitation_eng-prolific,3.2.4,Win32,60,5e60db57fdef8001c1fdc6f7,,1,0,98,69,1,97
,,,,,,,,,,,,,,,,,,,,,,,,,,,,,,,,,,,,,,,,,c,4.741999865,BAC,FALSE,,,,,,,74,pajaro,Spanish,Sounds/spa_pajaro.mp3,2020-06-05_15h35.02.201,TranslationElicitation_eng-prolific,3.2.4,Win32,60,5e60db57fdef8001c1fdc6f7,,1,0,98,69,1,97
,,,,,,,,,,,,,,,,,,,,,,,,,,,,,,,,,,,,,,,,,k,4.875999928,BACK,FALSE,,,,,,,74,pajaro,Spanish,Sounds/spa_pajaro.mp3,2020-06-05_15h35.02.201,TranslationElicitation_eng-prolific,3.2.4,Win32,60,5e60db57fdef8001c1fdc6f7,,1,0,98,69,1,97
,,,,,,,,,,,,,,,,,,,,,,,,,,,,,,,,,,,,,,,,,p,5.059000015,BACKP,FALSE,,,,,,,74,pajaro,Spanish,Sounds/spa_pajaro.mp3,2020-06-05_15h35.02.201,TranslationElicitation_eng-prolific,3.2.4,Win32,60,5e60db57fdef8001c1fdc6f7,,1,0,98,69,1,97
,,,,,,,,,,,,,,,,,,,,,,,,,,,,,,,,,,,,,,,,,a,5.243000031,BACKPA,FALSE,,,,,,,74,pajaro,Spanish,Sounds/spa_pajaro.mp3,2020-06-05_15h35.02.201,TranslationElicitation_eng-prolific,3.2.4,Win32,60,5e60db57fdef8001c1fdc6f7,,1,0,98,69,1,97
,,,,,,,,,,,,,,,,,,,,,,,,,,,,,,,,,,,,,,,,,c,5.493999958,BACKPAC,FALSE,,,,,,,74,pajaro,Spanish,Sounds/spa_pajaro.mp3,2020-06-05_15h35.02.201,TranslationElicitation_eng-prolific,3.2.4,Win32,60,5e60db57fdef8001c1fdc6f7,,1,0,98,69,1,97
,,,,,,,,,,,,,,,,,,,,,,,,,,,,,,,,,,,,,,,,,k,5.609999895,BACKPACK,FALSE,,,,,,,74,pajaro,Spanish,Sounds/spa_pajaro.mp3,2020-06-05_15h35.02.201,TranslationElicitation_eng-prolific,3.2.4,Win32,60,5e60db57fdef8001c1fdc6f7,,1,0,98,69,1,97
,,,,,,,,,,,,,,,,,,,,,,,,,,,,,,,,,,,,,,,,,return,5.927999973,BACKPACK,FALSE,,,,,,,74,pajaro,Spanish,Sounds/spa_pajaro.mp3,2020-06-05_15h35.02.201,TranslationElicitation_eng-prolific,3.2.4,Win32,60,5e60db57fdef8001c1fdc6f7,5.927999973,1,0,98,69,1,97
,,,,,,,,,,,,,,,,,,,,,,,,,,,,,,,,,,,,,,,,,,,,,,,,,,,74,pajaro,Spanish,Sounds/spa_pajaro.mp3,2020-06-05_15h35.02.201,TranslationElicitation_eng-prolific,3.2.4,Win32,60,5e60db57fdef8001c1fdc6f7,,1,0,98,69,1,97
,,,,,,,,,,,,,,,,,,,,,,,,,,,,,,,,,,,,,,,,,f,9.03399992,F,FALSE,,,,,,,79,patata,Spanish,Sounds/spa_patata.mp3,2020-06-05_15h35.02.201,TranslationElicitation_eng-prolific,3.2.4,Win32,60,5e60db57fdef8001c1fdc6f7,,1,0,98,74,1,97
,,,,,,,,,,,,,,,,,,,,,,,,,,,,,,,,,,,,,,,,,i,9.451999903,FI,FALSE,,,,,,,79,patata,Spanish,Sounds/spa_patata.mp3,2020-06-05_15h35.02.201,TranslationElicitation_eng-prolific,3.2.4,Win32,60,5e60db57fdef8001c1fdc6f7,,1,0,98,74,1,97
,,,,,,,,,,,,,,,,,,,,,,,,,,,,,,,,,,,,,,,,,t,9.885999918,FIT,FALSE,,,,,,,79,patata,Spanish,Sounds/spa_patata.mp3,2020-06-05_15h35.02.201,TranslationElicitation_eng-prolific,3.2.4,Win32,60,5e60db57fdef8001c1fdc6f7,,1,0,98,74,1,97
,,,,,,,,,,,,,,,,,,,,,,,,,,,,,,,,,,,,,,,,,a,10.5539999,FITA,FALSE,,,,,,,79,patata,Spanish,Sounds/spa_patata.mp3,2020-06-05_15h35.02.201,TranslationElicitation_eng-prolific,3.2.4,Win32,60,5e60db57fdef8001c1fdc6f7,,1,0,98,74,1,97
,,,,,,,,,,,,,,,,,,,,,,,,,,,,,,,,,,,,,,,,,t,10.95499992,FITAT,FALSE,,,,,,,79,patata,Spanish,Sounds/spa_patata.mp3,2020-06-05_15h35.02.201,TranslationElicitation_eng-prolific,3.2.4,Win32,60,5e60db57fdef8001c1fdc6f7,,1,0,98,74,1,97
,,,,,,,,,,,,,,,,,,,,,,,,,,,,,,,,,,,,,,,,,a,11.32199979,FITATA,FALSE,,,,,,,79,patata,Spanish,Sounds/spa_patata.mp3,2020-06-05_15h35.02.201,TranslationElicitation_eng-prolific,3.2.4,Win32,60,5e60db57fdef8001c1fdc6f7,,1,0,98,74,1,97
,,,,,,,,,,,,,,,,,,,,,,,,,,,,,,,,,,,,,,,,,return,12.12399983,FITATA,FALSE,,,,,,,79,patata,Spanish,Sounds/spa_patata.mp3,2020-06-05_15h35.02.201,TranslationElicitation_eng-prolific,3.2.4,Win32,60,5e60db57fdef8001c1fdc6f7,12.12399983,1,0,98,74,1,97
,,,,,,,,,,,,,,,,,,,,,,,,,,,,,,,,,,,,,,,,,,,,,,,,,,,79,patata,Spanish,Sounds/spa_patata.mp3,2020-06-05_15h35.02.201,TranslationElicitation_eng-prolific,3.2.4,Win32,60,5e60db57fdef8001c1fdc6f7,,1,0,98,74,1,97
,,,,,,,,,,,,,,,,,,,,,,,,,,,,,,,,,,,,,,,,,c,3.121999979,C,FALSE,,,,,,,38,frambuesa,Spanish,Sounds/spa_frambuesa.mp3,2020-06-05_15h35.02.201,TranslationElicitation_eng-prolific,3.2.4,Win32,60,5e60db57fdef8001c1fdc6f7,,1,0,98,34,1,97
,,,,,,,,,,,,,,,,,,,,,,,,,,,,,,,,,,,,,,,,,a,3.322000027,CA,FALSE,,,,,,,38,frambuesa,Spanish,Sounds/spa_frambuesa.mp3,2020-06-05_15h35.02.201,TranslationElicitation_eng-prolific,3.2.4,Win32,60,5e60db57fdef8001c1fdc6f7,,1,0,98,34,1,97
,,,,,,,,,,,,,,,,,,,,,,,,,,,,,,,,,,,,,,,,,k,3.422999859,CAK,FALSE,,,,,,,38,frambuesa,Spanish,Sounds/spa_frambuesa.mp3,2020-06-05_15h35.02.201,TranslationElicitation_eng-prolific,3.2.4,Win32,60,5e60db57fdef8001c1fdc6f7,,1,0,98,34,1,97
,,,,,,,,,,,,,,,,,,,,,,,,,,,,,,,,,,,,,,,,,e,3.555999994,CAKE,FALSE,,,,,,,38,frambuesa,Spanish,Sounds/spa_frambuesa.mp3,2020-06-05_15h35.02.201,TranslationElicitation_eng-prolific,3.2.4,Win32,60,5e60db57fdef8001c1fdc6f7,,1,0,98,34,1,97
,,,,,,,,,,,,,,,,,,,,,,,,,,,,,,,,,,,,,,,,,return,3.661999941,CAKE,FALSE,,,,,,,38,frambuesa,Spanish,Sounds/spa_frambuesa.mp3,2020-06-05_15h35.02.201,TranslationElicitation_eng-prolific,3.2.4,Win32,60,5e60db57fdef8001c1fdc6f7,3.661999941,1,0,98,34,1,97
,,,,,,,,,,,,,,,,,,,,,,,,,,,,,,,,,,,,,,,,,,,,,,,,,,,38,frambuesa,Spanish,Sounds/spa_frambuesa.mp3,2020-06-05_15h35.02.201,TranslationElicitation_eng-prolific,3.2.4,Win32,60,5e60db57fdef8001c1fdc6f7,,1,0,98,34,1,97
,,,,,,,,,,,,,,,,,,,,,,,,,,,,,,,,,,,,,,,,,f,6.864000082,F,FALSE,,,,,,,21,cebra,Spanish,Sounds/spa_cebra.mp3,2020-06-05_15h35.02.201,TranslationElicitation_eng-prolific,3.2.4,Win32,60,5e60db57fdef8001c1fdc6f7,,1,0,98,19,1,97
,,,,,,,,,,,,,,,,,,,,,,,,,,,,,,,,,,,,,,,,,a,7.09800005,FA,FALSE,,,,,,,21,cebra,Spanish,Sounds/spa_cebra.mp3,2020-06-05_15h35.02.201,TranslationElicitation_eng-prolific,3.2.4,Win32,60,5e60db57fdef8001c1fdc6f7,,1,0,98,19,1,97
,,,,,,,,,,,,,,,,,,,,,,,,,,,,,,,,,,,,,,,,,v,7.315000057,FAV,FALSE,,,,,,,21,cebra,Spanish,Sounds/spa_cebra.mp3,2020-06-05_15h35.02.201,TranslationElicitation_eng-prolific,3.2.4,Win32,60,5e60db57fdef8001c1fdc6f7,,1,0,98,19,1,97
,,,,,,,,,,,,,,,,,,,,,,,,,,,,,,,,,,,,,,,,,o,7.415999889,FAVO,FALSE,,,,,,,21,cebra,Spanish,Sounds/spa_cebra.mp3,2020-06-05_15h35.02.201,TranslationElicitation_eng-prolific,3.2.4,Win32,60,5e60db57fdef8001c1fdc6f7,,1,0,98,19,1,97
,,,,,,,,,,,,,,,,,,,,,,,,,,,,,,,,,,,,,,,,,u,7.480999947,FAVOU,FALSE,,,,,,,21,cebra,Spanish,Sounds/spa_cebra.mp3,2020-06-05_15h35.02.201,TranslationElicitation_eng-prolific,3.2.4,Win32,60,5e60db57fdef8001c1fdc6f7,,1,0,98,19,1,97
,,,,,,,,,,,,,,,,,,,,,,,,,,,,,,,,,,,,,,,,,r,7.681999922,FAVOUR,FALSE,,,,,,,21,cebra,Spanish,Sounds/spa_cebra.mp3,2020-06-05_15h35.02.201,TranslationElicitation_eng-prolific,3.2.4,Win32,60,5e60db57fdef8001c1fdc6f7,,1,0,98,19,1,97
,,,,,,,,,,,,,,,,,,,,,,,,,,,,,,,,,,,,,,,,,i,7.815000057,FAVOURI,FALSE,,,,,,,21,cebra,Spanish,Sounds/spa_cebra.mp3,2020-06-05_15h35.02.201,TranslationElicitation_eng-prolific,3.2.4,Win32,60,5e60db57fdef8001c1fdc6f7,,1,0,98,19,1,97
,,,,,,,,,,,,,,,,,,,,,,,,,,,,,,,,,,,,,,,,,t,7.96600008,FAVOURIT,FALSE,,,,,,,21,cebra,Spanish,Sounds/spa_cebra.mp3,2020-06-05_15h35.02.201,TranslationElicitation_eng-prolific,3.2.4,Win32,60,5e60db57fdef8001c1fdc6f7,,1,0,98,19,1,97
,,,,,,,,,,,,,,,,,,,,,,,,,,,,,,,,,,,,,,,,,e,8.150000095,FAVOURITE,FALSE,,,,,,,21,cebra,Spanish,Sounds/spa_cebra.mp3,2020-06-05_15h35.02.201,TranslationElicitation_eng-prolific,3.2.4,Win32,60,5e60db57fdef8001c1fdc6f7,,1,0,98,19,1,97
,,,,,,,,,,,,,,,,,,,,,,,,,,,,,,,,,,,,,,,,,return,8.266000032,FAVOURITE,FALSE,,,,,,,21,cebra,Spanish,Sounds/spa_cebra.mp3,2020-06-05_15h35.02.201,TranslationElicitation_eng-prolific,3.2.4,Win32,60,5e60db57fdef8001c1fdc6f7,8.266000032,1,0,98,19,1,97
,,,,,,,,,,,,,,,,,,,,,,,,,,,,,,,,,,,,,,,,,,,,,,,,,,,21,cebra,Spanish,Sounds/spa_cebra.mp3,2020-06-05_15h35.02.201,TranslationElicitation_eng-prolific,3.2.4,Win32,60,5e60db57fdef8001c1fdc6f7,,1,0,98,19,1,97
,,,,,,,,,,,,,,,,,,,,,,,,,,,,,,,,,,,,,,,,,b,5.060000181,B,FALSE,,,,,,,72,osito,Spanish,Sounds/spa_osito.mp3,2020-06-05_15h35.02.201,TranslationElicitation_eng-prolific,3.2.4,Win32,60,5e60db57fdef8001c1fdc6f7,,1,0,98,67,1,97
,,,,,,,,,,,,,,,,,,,,,,,,,,,,,,,,,,,,,,,,,i,5.25999999,BI,FALSE,,,,,,,72,osito,Spanish,Sounds/spa_osito.mp3,2020-06-05_15h35.02.201,TranslationElicitation_eng-prolific,3.2.4,Win32,60,5e60db57fdef8001c1fdc6f7,,1,0,98,67,1,97
,,,,,,,,,,,,,,,,,,,,,,,,,,,,,,,,,,,,,,,,,s,5.511000156,BIS,FALSE,,,,,,,72,osito,Spanish,Sounds/spa_osito.mp3,2020-06-05_15h35.02.201,TranslationElicitation_eng-prolific,3.2.4,Win32,60,5e60db57fdef8001c1fdc6f7,,1,0,98,67,1,97
,,,,,,,,,,,,,,,,,,,,,,,,,,,,,,,,,,,,,,,,,c,5.695000172,BISC,FALSE,,,,,,,72,osito,Spanish,Sounds/spa_osito.mp3,2020-06-05_15h35.02.201,TranslationElicitation_eng-prolific,3.2.4,Win32,60,5e60db57fdef8001c1fdc6f7,,1,0,98,67,1,97
,,,,,,,,,,,,,,,,,,,,,,,,,,,,,,,,,,,,,,,,,u,5.845000029,BISCU,FALSE,,,,,,,72,osito,Spanish,Sounds/spa_osito.mp3,2020-06-05_15h35.02.201,TranslationElicitation_eng-prolific,3.2.4,Win32,60,5e60db57fdef8001c1fdc6f7,,1,0,98,67,1,97
,,,,,,,,,,,,,,,,,,,,,,,,,,,,,,,,,,,,,,,,,i,5.979000092,BISCUI,FALSE,,,,,,,72,osito,Spanish,Sounds/spa_osito.mp3,2020-06-05_15h35.02.201,TranslationElicitation_eng-prolific,3.2.4,Win32,60,5e60db57fdef8001c1fdc6f7,,1,0,98,67,1,97
,,,,,,,,,,,,,,,,,,,,,,,,,,,,,,,,,,,,,,,,,t,6.111999989,BISCUIT,FALSE,,,,,,,72,osito,Spanish,Sounds/spa_osito.mp3,2020-06-05_15h35.02.201,TranslationElicitation_eng-prolific,3.2.4,Win32,60,5e60db57fdef8001c1fdc6f7,,1,0,98,67,1,97
,,,,,,,,,,,,,,,,,,,,,,,,,,,,,,,,,,,,,,,,,return,6.296000004,BISCUIT,FALSE,,,,,,,72,osito,Spanish,Sounds/spa_osito.mp3,2020-06-05_15h35.02.201,TranslationElicitation_eng-prolific,3.2.4,Win32,60,5e60db57fdef8001c1fdc6f7,6.296000004,1,0,98,67,1,97
,,,,,,,,,,,,,,,,,,,,,,,,,,,,,,,,,,,,,,,,,,,,,,,,,,,72,osito,Spanish,Sounds/spa_osito.mp3,2020-06-05_15h35.02.201,TranslationElicitation_eng-prolific,3.2.4,Win32,60,5e60db57fdef8001c1fdc6f7,,1,0,98,67,1,97
,,,,,,,,,,,,,,,,,,,,,,,,,,,,,,,,,,,,,,,,,w,3.289000034,W,FALSE,,,,,,,22,cepillo,Spanish,Sounds/spa_cepillo.mp3,2020-06-05_15h35.02.201,TranslationElicitation_eng-prolific,3.2.4,Win32,60,5e60db57fdef8001c1fdc6f7,,1,0,98,20,1,97
,,,,,,,,,,,,,,,,,,,,,,,,,,,,,,,,,,,,,,,,,a,3.49000001,WA,FALSE,,,,,,,22,cepillo,Spanish,Sounds/spa_cepillo.mp3,2020-06-05_15h35.02.201,TranslationElicitation_eng-prolific,3.2.4,Win32,60,5e60db57fdef8001c1fdc6f7,,1,0,98,20,1,97
,,,,,,,,,,,,,,,,,,,,,,,,,,,,,,,,,,,,,,,,,r,3.690000057,WAR,FALSE,,,,,,,22,cepillo,Spanish,Sounds/spa_cepillo.mp3,2020-06-05_15h35.02.201,TranslationElicitation_eng-prolific,3.2.4,Win32,60,5e60db57fdef8001c1fdc6f7,,1,0,98,20,1,97
,,,,,,,,,,,,,,,,,,,,,,,,,,,,,,,,,,,,,,,,,m,3.773999929,WARM,FALSE,,,,,,,22,cepillo,Spanish,Sounds/spa_cepillo.mp3,2020-06-05_15h35.02.201,TranslationElicitation_eng-prolific,3.2.4,Win32,60,5e60db57fdef8001c1fdc6f7,,1,0,98,20,1,97
,,,,,,,,,,,,,,,,,,,,,,,,,,,,,,,,,,,,,,,,,return,4.006999969,WARM,FALSE,,,,,,,22,cepillo,Spanish,Sounds/spa_cepillo.mp3,2020-06-05_15h35.02.201,TranslationElicitation_eng-prolific,3.2.4,Win32,60,5e60db57fdef8001c1fdc6f7,4.006999969,1,0,98,20,1,97
,,,,,,,,,,,,,,,,,,,,,,,,,,,,,,,,,,,,,,,,,,,,,,,,,,,22,cepillo,Spanish,Sounds/spa_cepillo.mp3,2020-06-05_15h35.02.201,TranslationElicitation_eng-prolific,3.2.4,Win32,60,5e60db57fdef8001c1fdc6f7,,1,0,98,20,1,97
,,,,,,,,,,,,,,,,,,,,,,,,,,,,,,,,,,,,,,,,,c,1.886999846,C,FALSE,,,,,,,27,chocolate,Spanish,Sounds/spa_chocolate.mp3,2020-06-05_15h35.02.201,TranslationElicitation_eng-prolific,3.2.4,Win32,60,5e60db57fdef8001c1fdc6f7,,1,0,98,24,1,97
,,,,,,,,,,,,,,,,,,,,,,,,,,,,,,,,,,,,,,,,,h,2.037999868,CH,FALSE,,,,,,,27,chocolate,Spanish,Sounds/spa_chocolate.mp3,2020-06-05_15h35.02.201,TranslationElicitation_eng-prolific,3.2.4,Win32,60,5e60db57fdef8001c1fdc6f7,,1,0,98,24,1,97
,,,,,,,,,,,,,,,,,,,,,,,,,,,,,,,,,,,,,,,,,o,2.220999956,CHO,FALSE,,,,,,,27,chocolate,Spanish,Sounds/spa_chocolate.mp3,2020-06-05_15h35.02.201,TranslationElicitation_eng-prolific,3.2.4,Win32,60,5e60db57fdef8001c1fdc6f7,,1,0,98,24,1,97
,,,,,,,,,,,,,,,,,,,,,,,,,,,,,,,,,,,,,,,,,c,2.471999884,CHOC,FALSE,,,,,,,27,chocolate,Spanish,Sounds/spa_chocolate.mp3,2020-06-05_15h35.02.201,TranslationElicitation_eng-prolific,3.2.4,Win32,60,5e60db57fdef8001c1fdc6f7,,1,0,98,24,1,97
,,,,,,,,,,,,,,,,,,,,,,,,,,,,,,,,,,,,,,,,,o,2.539000034,CHOCO,FALSE,,,,,,,27,chocolate,Spanish,Sounds/spa_chocolate.mp3,2020-06-05_15h35.02.201,TranslationElicitation_eng-prolific,3.2.4,Win32,60,5e60db57fdef8001c1fdc6f7,,1,0,98,24,1,97
,,,,,,,,,,,,,,,,,,,,,,,,,,,,,,,,,,,,,,,,,l,2.756000042,CHOCOL,FALSE,,,,,,,27,chocolate,Spanish,Sounds/spa_chocolate.mp3,2020-06-05_15h35.02.201,TranslationElicitation_eng-prolific,3.2.4,Win32,60,5e60db57fdef8001c1fdc6f7,,1,0,98,24,1,97
,,,,,,,,,,,,,,,,,,,,,,,,,,,,,,,,,,,,,,,,,a,3.039999962,CHOCOLA,FALSE,,,,,,,27,chocolate,Spanish,Sounds/spa_chocolate.mp3,2020-06-05_15h35.02.201,TranslationElicitation_eng-prolific,3.2.4,Win32,60,5e60db57fdef8001c1fdc6f7,,1,0,98,24,1,97
,,,,,,,,,,,,,,,,,,,,,,,,,,,,,,,,,,,,,,,,,t,3.389999866,CHOCOLAT,FALSE,,,,,,,27,chocolate,Spanish,Sounds/spa_chocolate.mp3,2020-06-05_15h35.02.201,TranslationElicitation_eng-prolific,3.2.4,Win32,60,5e60db57fdef8001c1fdc6f7,,1,0,98,24,1,97
,,,,,,,,,,,,,,,,,,,,,,,,,,,,,,,,,,,,,,,,,e,3.590999842,CHOCOLATE,FALSE,,,,,,,27,chocolate,Spanish,Sounds/spa_chocolate.mp3,2020-06-05_15h35.02.201,TranslationElicitation_eng-prolific,3.2.4,Win32,60,5e60db57fdef8001c1fdc6f7,,1,0,98,24,1,97
,,,,,,,,,,,,,,,,,,,,,,,,,,,,,,,,,,,,,,,,,return,3.723999977,CHOCOLATE,FALSE,,,,,,,27,chocolate,Spanish,Sounds/spa_chocolate.mp3,2020-06-05_15h35.02.201,TranslationElicitation_eng-prolific,3.2.4,Win32,60,5e60db57fdef8001c1fdc6f7,3.723999977,1,0,98,24,1,97
,,,,,,,,,,,,,,,,,,,,,,,,,,,,,,,,,,,,,,,,,,,,,,,,,,,27,chocolate,Spanish,Sounds/spa_chocolate.mp3,2020-06-05_15h35.02.201,TranslationElicitation_eng-prolific,3.2.4,Win32,60,5e60db57fdef8001c1fdc6f7,,1,0,98,24,1,97
,,,,,,,,,,,,,,,,,,,,,,,,,,,,,,,,,,,,,,,,,m,8.116000175,M,FALSE,,,,,,,65,mono,Spanish,Sounds/spa_mono.mp3,2020-06-05_15h35.02.201,TranslationElicitation_eng-prolific,3.2.4,Win32,60,5e60db57fdef8001c1fdc6f7,,1,0,98,61,1,97
,,,,,,,,,,,,,,,,,,,,,,,,,,,,,,,,,,,,,,,,,o,8.166000128,MO,FALSE,,,,,,,65,mono,Spanish,Sounds/spa_mono.mp3,2020-06-05_15h35.02.201,TranslationElicitation_eng-prolific,3.2.4,Win32,60,5e60db57fdef8001c1fdc6f7,,1,0,98,61,1,97
,,,,,,,,,,,,,,,,,,,,,,,,,,,,,,,,,,,,,,,,,r,8.350000143,MOR,FALSE,,,,,,,65,mono,Spanish,Sounds/spa_mono.mp3,2020-06-05_15h35.02.201,TranslationElicitation_eng-prolific,3.2.4,Win32,60,5e60db57fdef8001c1fdc6f7,,1,0,98,61,1,97
,,,,,,,,,,,,,,,,,,,,,,,,,,,,,,,,,,,,,,,,,e,8.5,MORE,FALSE,,,,,,,65,mono,Spanish,Sounds/spa_mono.mp3,2020-06-05_15h35.02.201,TranslationElicitation_eng-prolific,3.2.4,Win32,60,5e60db57fdef8001c1fdc6f7,,1,0,98,61,1,97
,,,,,,,,,,,,,,,,,,,,,,,,,,,,,,,,,,,,,,,,,return,8.934000015,MORE,FALSE,,,,,,,65,mono,Spanish,Sounds/spa_mono.mp3,2020-06-05_15h35.02.201,TranslationElicitation_eng-prolific,3.2.4,Win32,60,5e60db57fdef8001c1fdc6f7,8.934000015,1,0,98,61,1,97
,,,,,,,,,,,,,,,,,,,,,,,,,,,,,,,,,,,,,,,,,,,,,,,,,,,65,mono,Spanish,Sounds/spa_mono.mp3,2020-06-05_15h35.02.201,TranslationElicitation_eng-prolific,3.2.4,Win32,60,5e60db57fdef8001c1fdc6f7,,1,0,98,61,1,97
,,,,,,,,,,,,,,,,,,,,,,,,,,,,,,,,,,,,,,,,,s,3.039000034,S,FALSE,,,,,,,76,panal,Spanish,Sounds/spa_panal.mp3,2020-06-05_15h35.02.201,TranslationElicitation_eng-prolific,3.2.4,Win32,60,5e60db57fdef8001c1fdc6f7,,1,0,98,71,1,97
,,,,,,,,,,,,,,,,,,,,,,,,,,,,,,,,,,,,,,,,,p,3.188999891,SP,FALSE,,,,,,,76,panal,Spanish,Sounds/spa_panal.mp3,2020-06-05_15h35.02.201,TranslationElicitation_eng-prolific,3.2.4,Win32,60,5e60db57fdef8001c1fdc6f7,,1,0,98,71,1,97
,,,,,,,,,,,,,,,,,,,,,,,,,,,,,,,,,,,,,,,,,a,3.322999954,SPA,FALSE,,,,,,,76,panal,Spanish,Sounds/spa_panal.mp3,2020-06-05_15h35.02.201,TranslationElicitation_eng-prolific,3.2.4,Win32,60,5e60db57fdef8001c1fdc6f7,,1,0,98,71,1,97
,,,,,,,,,,,,,,,,,,,,,,,,,,,,,,,,,,,,,,,,,n,3.523000002,SPAN,FALSE,,,,,,,76,panal,Spanish,Sounds/spa_panal.mp3,2020-06-05_15h35.02.201,TranslationElicitation_eng-prolific,3.2.4,Win32,60,5e60db57fdef8001c1fdc6f7,,1,0,98,71,1,97
,,,,,,,,,,,,,,,,,,,,,,,,,,,,,,,,,,,,,,,,,i,3.641000032,SPANI,FALSE,,,,,,,76,panal,Spanish,Sounds/spa_panal.mp3,2020-06-05_15h35.02.201,TranslationElicitation_eng-prolific,3.2.4,Win32,60,5e60db57fdef8001c1fdc6f7,,1,0,98,71,1,97
,,,,,,,,,,,,,,,,,,,,,,,,,,,,,,,,,,,,,,,,,s,4.09100008,SPANIS,FALSE,,,,,,,76,panal,Spanish,Sounds/spa_panal.mp3,2020-06-05_15h35.02.201,TranslationElicitation_eng-prolific,3.2.4,Win32,60,5e60db57fdef8001c1fdc6f7,,1,0,98,71,1,97
,,,,,,,,,,,,,,,,,,,,,,,,,,,,,,,,,,,,,,,,,h,4.224999905,SPANISH,FALSE,,,,,,,76,panal,Spanish,Sounds/spa_panal.mp3,2020-06-05_15h35.02.201,TranslationElicitation_eng-prolific,3.2.4,Win32,60,5e60db57fdef8001c1fdc6f7,,1,0,98,71,1,97
,,,,,,,,,,,,,,,,,,,,,,,,,,,,,,,,,,,,,,,,,return,4.509000063,SPANISH,FALSE,,,,,,,76,panal,Spanish,Sounds/spa_panal.mp3,2020-06-05_15h35.02.201,TranslationElicitation_eng-prolific,3.2.4,Win32,60,5e60db57fdef8001c1fdc6f7,4.509000063,1,0,98,71,1,97
,,,,,,,,,,,,,,,,,,,,,,,,,,,,,,,,,,,,,,,,,,,,,,,,,,,76,panal,Spanish,Sounds/spa_panal.mp3,2020-06-05_15h35.02.201,TranslationElicitation_eng-prolific,3.2.4,Win32,60,5e60db57fdef8001c1fdc6f7,,1,0,98,71,1,97
,,,,,,,,,,,,,,,,,,,,,,,,,,,,,,,,,,,,,,,,,u,6.345000029,U,FALSE,,,,,,,12,brazo,Spanish,Sounds/spa_brazo.mp3,2020-06-05_15h35.02.201,TranslationElicitation_eng-prolific,3.2.4,Win32,60,5e60db57fdef8001c1fdc6f7,,1,0,98,10,1,97
,,,,,,,,,,,,,,,,,,,,,,,,,,,,,,,,,,,,,,,,,n,6.479000092,UN,FALSE,,,,,,,12,brazo,Spanish,Sounds/spa_brazo.mp3,2020-06-05_15h35.02.201,TranslationElicitation_eng-prolific,3.2.4,Win32,60,5e60db57fdef8001c1fdc6f7,,1,0,98,10,1,97
,,,,,,,,,,,,,,,,,,,,,,,,,,,,,,,,,,,,,,,,,d,6.662000179,UND,FALSE,,,,,,,12,brazo,Spanish,Sounds/spa_brazo.mp3,2020-06-05_15h35.02.201,TranslationElicitation_eng-prolific,3.2.4,Win32,60,5e60db57fdef8001c1fdc6f7,,1,0,98,10,1,97
,,,,,,,,,,,,,,,,,,,,,,,,,,,,,,,,,,,,,,,,,e,6.863000154,UNDE,FALSE,,,,,,,12,brazo,Spanish,Sounds/spa_brazo.mp3,2020-06-05_15h35.02.201,TranslationElicitation_eng-prolific,3.2.4,Win32,60,5e60db57fdef8001c1fdc6f7,,1,0,98,10,1,97
,,,,,,,,,,,,,,,,,,,,,,,,,,,,,,,,,,,,,,,,,r,7.04700017,UNDER,FALSE,,,,,,,12,brazo,Spanish,Sounds/spa_brazo.mp3,2020-06-05_15h35.02.201,TranslationElicitation_eng-prolific,3.2.4,Win32,60,5e60db57fdef8001c1fdc6f7,,1,0,98,10,1,97
,,,,,,,,,,,,,,,,,,,,,,,,,,,,,,,,,,,,,,,,,w,7.246999979,UNDERW,FALSE,,,,,,,12,brazo,Spanish,Sounds/spa_brazo.mp3,2020-06-05_15h35.02.201,TranslationElicitation_eng-prolific,3.2.4,Win32,60,5e60db57fdef8001c1fdc6f7,,1,0,98,10,1,97
,,,,,,,,,,,,,,,,,,,,,,,,,,,,,,,,,,,,,,,,,e,7.397000074,UNDERWE,FALSE,,,,,,,12,brazo,Spanish,Sounds/spa_brazo.mp3,2020-06-05_15h35.02.201,TranslationElicitation_eng-prolific,3.2.4,Win32,60,5e60db57fdef8001c1fdc6f7,,1,0,98,10,1,97
,,,,,,,,,,,,,,,,,,,,,,,,,,,,,,,,,,,,,,,,,a,7.614000082,UNDERWEA,FALSE,,,,,,,12,brazo,Spanish,Sounds/spa_brazo.mp3,2020-06-05_15h35.02.201,TranslationElicitation_eng-prolific,3.2.4,Win32,60,5e60db57fdef8001c1fdc6f7,,1,0,98,10,1,97
,,,,,,,,,,,,,,,,,,,,,,,,,,,,,,,,,,,,,,,,,r,7.898000002,UNDERWEAR,FALSE,,,,,,,12,brazo,Spanish,Sounds/spa_brazo.mp3,2020-06-05_15h35.02.201,TranslationElicitation_eng-prolific,3.2.4,Win32,60,5e60db57fdef8001c1fdc6f7,,1,0,98,10,1,97
,,,,,,,,,,,,,,,,,,,,,,,,,,,,,,,,,,,,,,,,,return,8.049000025,UNDERWEAR,FALSE,,,,,,,12,brazo,Spanish,Sounds/spa_brazo.mp3,2020-06-05_15h35.02.201,TranslationElicitation_eng-prolific,3.2.4,Win32,60,5e60db57fdef8001c1fdc6f7,8.049000025,1,0,98,10,1,97
,,,,,,,,,,,,,,,,,,,,,,,,,,,,,,,,,,,,,,,,,,,,,,,,,,,12,brazo,Spanish,Sounds/spa_brazo.mp3,2020-06-05_15h35.02.201,TranslationElicitation_eng-prolific,3.2.4,Win32,60,5e60db57fdef8001c1fdc6f7,,1,0,98,10,1,97
,,,,,,,,,,,,,,,,,,,,,,,,,,,,,,,,,,,,,,,,,p,2.136999846,P,FALSE,,,,,,,86,pingino,Spanish,Sounds/spa_pinguino.mp3,2020-06-05_15h35.02.201,TranslationElicitation_eng-prolific,3.2.4,Win32,60,5e60db57fdef8001c1fdc6f7,,1,0,98,81,1,97
,,,,,,,,,,,,,,,,,,,,,,,,,,,,,,,,,,,,,,,,,e,2.286999941,PE,FALSE,,,,,,,86,pingino,Spanish,Sounds/spa_pinguino.mp3,2020-06-05_15h35.02.201,TranslationElicitation_eng-prolific,3.2.4,Win32,60,5e60db57fdef8001c1fdc6f7,,1,0,98,81,1,97
,,,,,,,,,,,,,,,,,,,,,,,,,,,,,,,,,,,,,,,,,n,2.487999916,PEN,FALSE,,,,,,,86,pingino,Spanish,Sounds/spa_pinguino.mp3,2020-06-05_15h35.02.201,TranslationElicitation_eng-prolific,3.2.4,Win32,60,5e60db57fdef8001c1fdc6f7,,1,0,98,81,1,97
,,,,,,,,,,,,,,,,,,,,,,,,,,,,,,,,,,,,,,,,,g,2.621999979,PENG,FALSE,,,,,,,86,pingino,Spanish,Sounds/spa_pinguino.mp3,2020-06-05_15h35.02.201,TranslationElicitation_eng-prolific,3.2.4,Win32,60,5e60db57fdef8001c1fdc6f7,,1,0,98,81,1,97
,,,,,,,,,,,,,,,,,,,,,,,,,,,,,,,,,,,,,,,,,u,2.704999924,PENGU,FALSE,,,,,,,86,pingino,Spanish,Sounds/spa_pinguino.mp3,2020-06-05_15h35.02.201,TranslationElicitation_eng-prolific,3.2.4,Win32,60,5e60db57fdef8001c1fdc6f7,,1,0,98,81,1,97
,,,,,,,,,,,,,,,,,,,,,,,,,,,,,,,,,,,,,,,,,i,2.888999939,PENGUI,FALSE,,,,,,,86,pingino,Spanish,Sounds/spa_pinguino.mp3,2020-06-05_15h35.02.201,TranslationElicitation_eng-prolific,3.2.4,Win32,60,5e60db57fdef8001c1fdc6f7,,1,0,98,81,1,97
,,,,,,,,,,,,,,,,,,,,,,,,,,,,,,,,,,,,,,,,,n,2.983999968,PENGUIN,FALSE,,,,,,,86,pingino,Spanish,Sounds/spa_pinguino.mp3,2020-06-05_15h35.02.201,TranslationElicitation_eng-prolific,3.2.4,Win32,60,5e60db57fdef8001c1fdc6f7,,1,0,98,81,1,97
,,,,,,,,,,,,,,,,,,,,,,,,,,,,,,,,,,,,,,,,,return,3.940999985,PENGUIN,FALSE,,,,,,,86,pingino,Spanish,Sounds/spa_pinguino.mp3,2020-06-05_15h35.02.201,TranslationElicitation_eng-prolific,3.2.4,Win32,60,5e60db57fdef8001c1fdc6f7,3.940999985,1,0,98,81,1,97
,,,,,,,,,,,,,,,,,,,,,,,,,,,,,,,,,,,,,,,,,,,,,,,,,,,86,pingino,Spanish,Sounds/spa_pinguino.mp3,2020-06-05_15h35.02.201,TranslationElicitation_eng-prolific,3.2.4,Win32,60,5e60db57fdef8001c1fdc6f7,,1,0,98,81,1,97
,,,,,,,,,,,,,,,,,,,,,,,,,,,,,,,,,,,,,,,,,c,8.883000135,C,FALSE,,,,,,,17,calcetin,Spanish,Sounds/spa_calcetin.mp3,2020-06-05_15h35.02.201,TranslationElicitation_eng-prolific,3.2.4,Win32,60,5e60db57fdef8001c1fdc6f7,,1,0,98,15,1,97
,,,,,,,,,,,,,,,,,,,,,,,,,,,,,,,,,,,,,,,,,a,9.134000063,CA,FALSE,,,,,,,17,calcetin,Spanish,Sounds/spa_calcetin.mp3,2020-06-05_15h35.02.201,TranslationElicitation_eng-prolific,3.2.4,Win32,60,5e60db57fdef8001c1fdc6f7,,1,0,98,15,1,97
,,,,,,,,,,,,,,,,,,,,,,,,,,,,,,,,,,,,,,,,,r,9.351000071,CAR,FALSE,,,,,,,17,calcetin,Spanish,Sounds/spa_calcetin.mp3,2020-06-05_15h35.02.201,TranslationElicitation_eng-prolific,3.2.4,Win32,60,5e60db57fdef8001c1fdc6f7,,1,0,98,15,1,97
,,,,,,,,,,,,,,,,,,,,,,,,,,,,,,,,,,,,,,,,,return,9.484000206,CAR,FALSE,,,,,,,17,calcetin,Spanish,Sounds/spa_calcetin.mp3,2020-06-05_15h35.02.201,TranslationElicitation_eng-prolific,3.2.4,Win32,60,5e60db57fdef8001c1fdc6f7,9.484000206,1,0,98,15,1,97
,,,,,,,,,,,,,,,,,,,,,,,,,,,,,,,,,,,,,,,,,,,,,,,,,,,17,calcetin,Spanish,Sounds/spa_calcetin.mp3,2020-06-05_15h35.02.201,TranslationElicitation_eng-prolific,3.2.4,Win32,60,5e60db57fdef8001c1fdc6f7,,1,0,98,15,1,97
,,,,,,,,,,,,,,,,,,,,,,,,,,,,,,,,,,,,,,,,,d,28.25500011,D,FALSE,,,,,,,33,dedo,Spanish,Sounds/spa_dedo.mp3,2020-06-05_15h35.02.201,TranslationElicitation_eng-prolific,3.2.4,Win32,60,5e60db57fdef8001c1fdc6f7,,1,0,98,29,1,97
,,,,,,,,,,,,,,,,,,,,,,,,,,,,,,,,,,,,,,,,,i,28.38800001,DI,FALSE,,,,,,,33,dedo,Spanish,Sounds/spa_dedo.mp3,2020-06-05_15h35.02.201,TranslationElicitation_eng-prolific,3.2.4,Win32,60,5e60db57fdef8001c1fdc6f7,,1,0,98,29,1,97
,,,,,,,,,,,,,,,,,,,,,,,,,,,,,,,,,,,,,,,,,c,28.53900003,DIC,FALSE,,,,,,,33,dedo,Spanish,Sounds/spa_dedo.mp3,2020-06-05_15h35.02.201,TranslationElicitation_eng-prolific,3.2.4,Win32,60,5e60db57fdef8001c1fdc6f7,,1,0,98,29,1,97
,,,,,,,,,,,,,,,,,,,,,,,,,,,,,,,,,,,,,,,,,e,28.73900008,DICE,FALSE,,,,,,,33,dedo,Spanish,Sounds/spa_dedo.mp3,2020-06-05_15h35.02.201,TranslationElicitation_eng-prolific,3.2.4,Win32,60,5e60db57fdef8001c1fdc6f7,,1,0,98,29,1,97
,,,,,,,,,,,,,,,,,,,,,,,,,,,,,,,,,,,,,,,,,return,28.9230001,DICE,FALSE,,,,,,,33,dedo,Spanish,Sounds/spa_dedo.mp3,2020-06-05_15h35.02.201,TranslationElicitation_eng-prolific,3.2.4,Win32,60,5e60db57fdef8001c1fdc6f7,28.9230001,1,0,98,29,1,97
,,,,,,,,,,,,,,,,,,,,,,,,,,,,,,,,,,,,,,,,,,,,,,,,,,,33,dedo,Spanish,Sounds/spa_dedo.mp3,2020-06-05_15h35.02.201,TranslationElicitation_eng-prolific,3.2.4,Win32,60,5e60db57fdef8001c1fdc6f7,,1,0,98,29,1,97
,,,,,,,,,,,,,,,,,,,,,,,,,,,,,,,,,,,,,,,,,c,7.748000145,C,FALSE,,,,,,,56,libro,Spanish,Sounds/spa_libro.mp3,2020-06-05_15h35.02.201,TranslationElicitation_eng-prolific,3.2.4,Win32,60,5e60db57fdef8001c1fdc6f7,,1,0,98,52,1,97
,,,,,,,,,,,,,,,,,,,,,,,,,,,,,,,,,,,,,,,,,o,7.86500001,CO,FALSE,,,,,,,56,libro,Spanish,Sounds/spa_libro.mp3,2020-06-05_15h35.02.201,TranslationElicitation_eng-prolific,3.2.4,Win32,60,5e60db57fdef8001c1fdc6f7,,1,0,98,52,1,97
,,,,,,,,,,,,,,,,,,,,,,,,,,,,,,,,,,,,,,,,,s,8.015000105,COS,FALSE,,,,,,,56,libro,Spanish,Sounds/spa_libro.mp3,2020-06-05_15h35.02.201,TranslationElicitation_eng-prolific,3.2.4,Win32,60,5e60db57fdef8001c1fdc6f7,,1,0,98,52,1,97
,,,,,,,,,,,,,,,,,,,,,,,,,,,,,,,,,,,,,,,,,t,8.23300004,COST,FALSE,,,,,,,56,libro,Spanish,Sounds/spa_libro.mp3,2020-06-05_15h35.02.201,TranslationElicitation_eng-prolific,3.2.4,Win32,60,5e60db57fdef8001c1fdc6f7,,1,0,98,52,1,97
,,,,,,,,,,,,,,,,,,,,,,,,,,,,,,,,,,,,,,,,,return,8.5,COST,FALSE,,,,,,,56,libro,Spanish,Sounds/spa_libro.mp3,2020-06-05_15h35.02.201,TranslationElicitation_eng-prolific,3.2.4,Win32,60,5e60db57fdef8001c1fdc6f7,8.5,1,0,98,52,1,97
,,,,,,,,,,,,,,,,,,,,,,,,,,,,,,,,,,,,,,,,,,,,,,,,,,,56,libro,Spanish,Sounds/spa_libro.mp3,2020-06-05_15h35.02.201,TranslationElicitation_eng-prolific,3.2.4,Win32,60,5e60db57fdef8001c1fdc6f7,,1,0,98,52,1,97
,,,,,,,,,,,,,,,,,,,,,,,,,,,,,,,,,,,,,,,,,c,2.120000124,C,FALSE,,,,,,,15,caballo,Spanish,Sounds/spa_caballo.mp3,2020-06-05_15h35.02.201,TranslationElicitation_eng-prolific,3.2.4,Win32,60,5e60db57fdef8001c1fdc6f7,,1,0,98,13,1,97
,,,,,,,,,,,,,,,,,,,,,,,,,,,,,,,,,,,,,,,,,u,2.336999893,CU,FALSE,,,,,,,15,caballo,Spanish,Sounds/spa_caballo.mp3,2020-06-05_15h35.02.201,TranslationElicitation_eng-prolific,3.2.4,Win32,60,5e60db57fdef8001c1fdc6f7,,1,0,98,13,1,97
,,,,,,,,,,,,,,,,,,,,,,,,,,,,,,,,,,,,,,,,,t,2.495000124,CUT,FALSE,,,,,,,15,caballo,Spanish,Sounds/spa_caballo.mp3,2020-06-05_15h35.02.201,TranslationElicitation_eng-prolific,3.2.4,Win32,60,5e60db57fdef8001c1fdc6f7,,1,0,98,13,1,97
,,,,,,,,,,,,,,,,,,,,,,,,,,,,,,,,,,,,,,,,,e,2.687999964,CUTE,FALSE,,,,,,,15,caballo,Spanish,Sounds/spa_caballo.mp3,2020-06-05_15h35.02.201,TranslationElicitation_eng-prolific,3.2.4,Win32,60,5e60db57fdef8001c1fdc6f7,,1,0,98,13,1,97
,,,,,,,,,,,,,,,,,,,,,,,,,,,,,,,,,,,,,,,,,return,2.904999971,CUTE,FALSE,,,,,,,15,caballo,Spanish,Sounds/spa_caballo.mp3,2020-06-05_15h35.02.201,TranslationElicitation_eng-prolific,3.2.4,Win32,60,5e60db57fdef8001c1fdc6f7,2.904999971,1,0,98,13,1,97
,,,,,,,,,,,,,,,,,,,,,,,,,,,,,,,,,,,,,,,,,,,,,,,,,,,15,caballo,Spanish,Sounds/spa_caballo.mp3,2020-06-05_15h35.02.201,TranslationElicitation_eng-prolific,3.2.4,Win32,60,5e60db57fdef8001c1fdc6f7,,1,0,98,13,1,97
,,,,,,,,,,,,,,,,,,,,,,,,,,,,,,,,,,,,,,,,,p,2.971999884,P,FALSE,,,,,,,77,pantalon,Spanish,Sounds/spa_pantalon.mp3,2020-06-05_15h35.02.201,TranslationElicitation_eng-prolific,3.2.4,Win32,60,5e60db57fdef8001c1fdc6f7,,1,0,98,72,1,97
,,,,,,,,,,,,,,,,,,,,,,,,,,,,,,,,,,,,,,,,,a,3.138999939,PA,FALSE,,,,,,,77,pantalon,Spanish,Sounds/spa_pantalon.mp3,2020-06-05_15h35.02.201,TranslationElicitation_eng-prolific,3.2.4,Win32,60,5e60db57fdef8001c1fdc6f7,,1,0,98,72,1,97
,,,,,,,,,,,,,,,,,,,,,,,,,,,,,,,,,,,,,,,,,n,3.305999994,PAN,FALSE,,,,,,,77,pantalon,Spanish,Sounds/spa_pantalon.mp3,2020-06-05_15h35.02.201,TranslationElicitation_eng-prolific,3.2.4,Win32,60,5e60db57fdef8001c1fdc6f7,,1,0,98,72,1,97
,,,,,,,,,,,,,,,,,,,,,,,,,,,,,,,,,,,,,,,,,t,3.422999859,PANT,FALSE,,,,,,,77,pantalon,Spanish,Sounds/spa_pantalon.mp3,2020-06-05_15h35.02.201,TranslationElicitation_eng-prolific,3.2.4,Win32,60,5e60db57fdef8001c1fdc6f7,,1,0,98,72,1,97
,,,,,,,,,,,,,,,,,,,,,,,,,,,,,,,,,,,,,,,,,s,3.72300005,PANTS,FALSE,,,,,,,77,pantalon,Spanish,Sounds/spa_pantalon.mp3,2020-06-05_15h35.02.201,TranslationElicitation_eng-prolific,3.2.4,Win32,60,5e60db57fdef8001c1fdc6f7,,1,0,98,72,1,97
,,,,,,,,,,,,,,,,,,,,,,,,,,,,,,,,,,,,,,,,,return,3.906999826,PANTS,FALSE,,,,,,,77,pantalon,Spanish,Sounds/spa_pantalon.mp3,2020-06-05_15h35.02.201,TranslationElicitation_eng-prolific,3.2.4,Win32,60,5e60db57fdef8001c1fdc6f7,3.906999826,1,0,98,72,1,97
,,,,,,,,,,,,,,,,,,,,,,,,,,,,,,,,,,,,,,,,,,,,,,,,,,,77,pantalon,Spanish,Sounds/spa_pantalon.mp3,2020-06-05_15h35.02.201,TranslationElicitation_eng-prolific,3.2.4,Win32,60,5e60db57fdef8001c1fdc6f7,,1,0,98,72,1,97
,,,,,,,,,,,,,,,,,,,,,,,,,,,,,,,,,,,,,,,,,t,14.3269999,T,FALSE,,,,,,,101,tren,Spanish,Sounds/spa_tren.mp3,2020-06-05_15h35.02.201,TranslationElicitation_eng-prolific,3.2.4,Win32,60,5e60db57fdef8001c1fdc6f7,,1,0,98,95,1,97
,,,,,,,,,,,,,,,,,,,,,,,,,,,,,,,,,,,,,,,,,r,14.51099992,TR,FALSE,,,,,,,101,tren,Spanish,Sounds/spa_tren.mp3,2020-06-05_15h35.02.201,TranslationElicitation_eng-prolific,3.2.4,Win32,60,5e60db57fdef8001c1fdc6f7,,1,0,98,95,1,97
,,,,,,,,,,,,,,,,,,,,,,,,,,,,,,,,,,,,,,,,,e,14.71200013,TRE,FALSE,,,,,,,101,tren,Spanish,Sounds/spa_tren.mp3,2020-06-05_15h35.02.201,TranslationElicitation_eng-prolific,3.2.4,Win32,60,5e60db57fdef8001c1fdc6f7,,1,0,98,95,1,97
,,,,,,,,,,,,,,,,,,,,,,,,,,,,,,,,,,,,,,,,,n,14.84500003,TREN,FALSE,,,,,,,101,tren,Spanish,Sounds/spa_tren.mp3,2020-06-05_15h35.02.201,TranslationElicitation_eng-prolific,3.2.4,Win32,60,5e60db57fdef8001c1fdc6f7,,1,0,98,95,1,97
,,,,,,,,,,,,,,,,,,,,,,,,,,,,,,,,,,,,,,,,,d,14.92900014,TREND,FALSE,,,,,,,101,tren,Spanish,Sounds/spa_tren.mp3,2020-06-05_15h35.02.201,TranslationElicitation_eng-prolific,3.2.4,Win32,60,5e60db57fdef8001c1fdc6f7,,1,0,98,95,1,97
,,,,,,,,,,,,,,,,,,,,,,,,,,,,,,,,,,,,,,,,,y,15.14599991,TRENDY,FALSE,,,,,,,101,tren,Spanish,Sounds/spa_tren.mp3,2020-06-05_15h35.02.201,TranslationElicitation_eng-prolific,3.2.4,Win32,60,5e60db57fdef8001c1fdc6f7,,1,0,98,95,1,97
,,,,,,,,,,,,,,,,,,,,,,,,,,,,,,,,,,,,,,,,,return,15.24600005,TRENDY,FALSE,,,,,,,101,tren,Spanish,Sounds/spa_tren.mp3,2020-06-05_15h35.02.201,TranslationElicitation_eng-prolific,3.2.4,Win32,60,5e60db57fdef8001c1fdc6f7,15.24600005,1,0,98,95,1,97
,,,,,,,,,,,,,,,,,,,,,,,,,,,,,,,,,,,,,,,,,,,,,,,,,,,101,tren,Spanish,Sounds/spa_tren.mp3,2020-06-05_15h35.02.201,TranslationElicitation_eng-prolific,3.2.4,Win32,60,5e60db57fdef8001c1fdc6f7,,1,0,98,95,1,97
,,,,,,,,,,,,,,,,,,,,,,,,,,,,,,,,,,,,,,,,,l,20.20600009,L,FALSE,,,,,,,91,puerta,Spanish,Sounds/spa_puerta.mp3,2020-06-05_15h35.02.201,TranslationElicitation_eng-prolific,3.2.4,Win32,60,5e60db57fdef8001c1fdc6f7,,1,0,98,86,1,97
,,,,,,,,,,,,,,,,,,,,,,,,,,,,,,,,,,,,,,,,,a,20.35600019,LA,FALSE,,,,,,,91,puerta,Spanish,Sounds/spa_puerta.mp3,2020-06-05_15h35.02.201,TranslationElicitation_eng-prolific,3.2.4,Win32,60,5e60db57fdef8001c1fdc6f7,,1,0,98,86,1,97
,,,,,,,,,,,,,,,,,,,,,,,,,,,,,,,,,,,,,,,,,backspace,21.45800018,L,TRUE,,,,,,,91,puerta,Spanish,Sounds/spa_puerta.mp3,2020-06-05_15h35.02.201,TranslationElicitation_eng-prolific,3.2.4,Win32,60,5e60db57fdef8001c1fdc6f7,,1,0,98,86,1,97
,,,,,,,,,,,,,,,,,,,,,,,,,,,,,,,,,,,,,,,,,a,21.84200001,LA,TRUE,,,,,,,91,puerta,Spanish,Sounds/spa_puerta.mp3,2020-06-05_15h35.02.201,TranslationElicitation_eng-prolific,3.2.4,Win32,60,5e60db57fdef8001c1fdc6f7,,1,0,98,86,1,97
,,,,,,,,,,,,,,,,,,,,,,,,,,,,,,,,,,,,,,,,,c,22.15900016,LAC,TRUE,,,,,,,91,puerta,Spanish,Sounds/spa_puerta.mp3,2020-06-05_15h35.02.201,TranslationElicitation_eng-prolific,3.2.4,Win32,60,5e60db57fdef8001c1fdc6f7,,1,0,98,86,1,97
,,,,,,,,,,,,,,,,,,,,,,,,,,,,,,,,,,,,,,,,,k,22.25800014,LACK,TRUE,,,,,,,91,puerta,Spanish,Sounds/spa_puerta.mp3,2020-06-05_15h35.02.201,TranslationElicitation_eng-prolific,3.2.4,Win32,60,5e60db57fdef8001c1fdc6f7,,1,0,98,86,1,97
,,,,,,,,,,,,,,,,,,,,,,,,,,,,,,,,,,,,,,,,,i,22.41000009,LACKI,TRUE,,,,,,,91,puerta,Spanish,Sounds/spa_puerta.mp3,2020-06-05_15h35.02.201,TranslationElicitation_eng-prolific,3.2.4,Win32,60,5e60db57fdef8001c1fdc6f7,,1,0,98,86,1,97
,,,,,,,,,,,,,,,,,,,,,,,,,,,,,,,,,,,,,,,,,n,22.54300022,LACKIN,TRUE,,,,,,,91,puerta,Spanish,Sounds/spa_puerta.mp3,2020-06-05_15h35.02.201,TranslationElicitation_eng-prolific,3.2.4,Win32,60,5e60db57fdef8001c1fdc6f7,,1,0,98,86,1,97
,,,,,,,,,,,,,,,,,,,,,,,,,,,,,,,,,,,,,,,,,g,22.62700009,LACKING,TRUE,,,,,,,91,puerta,Spanish,Sounds/spa_puerta.mp3,2020-06-05_15h35.02.201,TranslationElicitation_eng-prolific,3.2.4,Win32,60,5e60db57fdef8001c1fdc6f7,,1,0,98,86,1,97
,,,,,,,,,,,,,,,,,,,,,,,,,,,,,,,,,,,,,,,,,return,22.81000018,LACKING,TRUE,,,,,,,91,puerta,Spanish,Sounds/spa_puerta.mp3,2020-06-05_15h35.02.201,TranslationElicitation_eng-prolific,3.2.4,Win32,60,5e60db57fdef8001c1fdc6f7,22.81000018,1,0,98,86,1,97
,,,,,,,,,,,,,,,,,,,,,,,,,,,,,,,,,,,,,,,,,,,,,,,,,,,91,puerta,Spanish,Sounds/spa_puerta.mp3,2020-06-05_15h35.02.201,TranslationElicitation_eng-prolific,3.2.4,Win32,60,5e60db57fdef8001c1fdc6f7,,1,0,98,86,1,97
,,,,,,,,,,,,,,,,,,,,,,,,,,,,,,,,,,,,,,,,,m,2.269999981,M,FALSE,,,,,,,58,luna,Spanish,Sounds/spa_luna.mp3,2020-06-05_15h35.02.201,TranslationElicitation_eng-prolific,3.2.4,Win32,60,5e60db57fdef8001c1fdc6f7,,1,0,98,54,1,97
,,,,,,,,,,,,,,,,,,,,,,,,,,,,,,,,,,,,,,,,,o,2.421000004,MO,FALSE,,,,,,,58,luna,Spanish,Sounds/spa_luna.mp3,2020-06-05_15h35.02.201,TranslationElicitation_eng-prolific,3.2.4,Win32,60,5e60db57fdef8001c1fdc6f7,,1,0,98,54,1,97
,,,,,,,,,,,,,,,,,,,,,,,,,,,,,,,,,,,,,,,,,o,2.570999861,MOO,FALSE,,,,,,,58,luna,Spanish,Sounds/spa_luna.mp3,2020-06-05_15h35.02.201,TranslationElicitation_eng-prolific,3.2.4,Win32,60,5e60db57fdef8001c1fdc6f7,,1,0,98,54,1,97
,,,,,,,,,,,,,,,,,,,,,,,,,,,,,,,,,,,,,,,,,n,2.720999956,MOON,FALSE,,,,,,,58,luna,Spanish,Sounds/spa_luna.mp3,2020-06-05_15h35.02.201,TranslationElicitation_eng-prolific,3.2.4,Win32,60,5e60db57fdef8001c1fdc6f7,,1,0,98,54,1,97
,,,,,,,,,,,,,,,,,,,,,,,,,,,,,,,,,,,,,,,,,return,3.355999947,MOON,FALSE,,,,,,,58,luna,Spanish,Sounds/spa_luna.mp3,2020-06-05_15h35.02.201,TranslationElicitation_eng-prolific,3.2.4,Win32,60,5e60db57fdef8001c1fdc6f7,3.355999947,1,0,98,54,1,97
,,,,,,,,,,,,,,,,,,,,,,,,,,,,,,,,,,,,,,,,,,,,,,,,,,,58,luna,Spanish,Sounds/spa_luna.mp3,2020-06-05_15h35.02.201,TranslationElicitation_eng-prolific,3.2.4,Win32,60,5e60db57fdef8001c1fdc6f7,,1,0,98,54,1,97
,,,,,,,,,,,,,,,,,,,,,,,,,,,,,,,,,,,,,,,,,p,10.38600016,P,FALSE,,,,,,,84,pie,Spanish,Sounds/spa_pie.mp3,2020-06-05_15h35.02.201,TranslationElicitation_eng-prolific,3.2.4,Win32,60,5e60db57fdef8001c1fdc6f7,,1,0,98,79,1,97
,,,,,,,,,,,,,,,,,,,,,,,,,,,,,,,,,,,,,,,,,o,10.67000008,PO,FALSE,,,,,,,84,pie,Spanish,Sounds/spa_pie.mp3,2020-06-05_15h35.02.201,TranslationElicitation_eng-prolific,3.2.4,Win32,60,5e60db57fdef8001c1fdc6f7,,1,0,98,79,1,97
,,,,,,,,,,,,,,,,,,,,,,,,,,,,,,,,,,,,,,,,,o,10.8210001,POO,FALSE,,,,,,,84,pie,Spanish,Sounds/spa_pie.mp3,2020-06-05_15h35.02.201,TranslationElicitation_eng-prolific,3.2.4,Win32,60,5e60db57fdef8001c1fdc6f7,,1,0,98,79,1,97
,,,,,,,,,,,,,,,,,,,,,,,,,,,,,,,,,,,,,,,,,r,10.954,POOR,FALSE,,,,,,,84,pie,Spanish,Sounds/spa_pie.mp3,2020-06-05_15h35.02.201,TranslationElicitation_eng-prolific,3.2.4,Win32,60,5e60db57fdef8001c1fdc6f7,,1,0,98,79,1,97
,,,,,,,,,,,,,,,,,,,,,,,,,,,,,,,,,,,,,,,,,return,11.08800006,POOR,FALSE,,,,,,,84,pie,Spanish,Sounds/spa_pie.mp3,2020-06-05_15h35.02.201,TranslationElicitation_eng-prolific,3.2.4,Win32,60,5e60db57fdef8001c1fdc6f7,11.08800006,1,0,98,79,1,97
,,,,,,,,,,,,,,,,,,,,,,,,,,,,,,,,,,,,,,,,,,,,,,,,,,,84,pie,Spanish,Sounds/spa_pie.mp3,2020-06-05_15h35.02.201,TranslationElicitation_eng-prolific,3.2.4,Win32,60,5e60db57fdef8001c1fdc6f7,,1,0,98,79,1,97
,,,,,,,,,,,,,,,,,,,,,,,,,,,,,,,,,,,,,,,,,s,18.46899986,S,FALSE,,,,,,,35,esponja,Spanish,Sounds/spa_esponja.mp3,2020-06-05_15h35.02.201,TranslationElicitation_eng-prolific,3.2.4,Win32,60,5e60db57fdef8001c1fdc6f7,,1,0,98,31,1,97
,,,,,,,,,,,,,,,,,,,,,,,,,,,,,,,,,,,,,,,,,p,18.53600001,SP,FALSE,,,,,,,35,esponja,Spanish,Sounds/spa_esponja.mp3,2020-06-05_15h35.02.201,TranslationElicitation_eng-prolific,3.2.4,Win32,60,5e60db57fdef8001c1fdc6f7,,1,0,98,31,1,97
,,,,,,,,,,,,,,,,,,,,,,,,,,,,,,,,,,,,,,,,,e,18.70300007,SPE,FALSE,,,,,,,35,esponja,Spanish,Sounds/spa_esponja.mp3,2020-06-05_15h35.02.201,TranslationElicitation_eng-prolific,3.2.4,Win32,60,5e60db57fdef8001c1fdc6f7,,1,0,98,31,1,97
,,,,,,,,,,,,,,,,,,,,,,,,,,,,,,,,,,,,,,,,,a,18.90299988,SPEA,FALSE,,,,,,,35,esponja,Spanish,Sounds/spa_esponja.mp3,2020-06-05_15h35.02.201,TranslationElicitation_eng-prolific,3.2.4,Win32,60,5e60db57fdef8001c1fdc6f7,,1,0,98,31,1,97
,,,,,,,,,,,,,,,,,,,,,,,,,,,,,,,,,,,,,,,,,k,18.95300007,SPEAK,FALSE,,,,,,,35,esponja,Spanish,Sounds/spa_esponja.mp3,2020-06-05_15h35.02.201,TranslationElicitation_eng-prolific,3.2.4,Win32,60,5e60db57fdef8001c1fdc6f7,,1,0,98,31,1,97
,,,,,,,,,,,,,,,,,,,,,,,,,,,,,,,,,,,,,,,,,i,19.05299997,SPEAKI,FALSE,,,,,,,35,esponja,Spanish,Sounds/spa_esponja.mp3,2020-06-05_15h35.02.201,TranslationElicitation_eng-prolific,3.2.4,Win32,60,5e60db57fdef8001c1fdc6f7,,1,0,98,31,1,97
,,,,,,,,,,,,,,,,,,,,,,,,,,,,,,,,,,,,,,,,,n,19.18700004,SPEAKIN,FALSE,,,,,,,35,esponja,Spanish,Sounds/spa_esponja.mp3,2020-06-05_15h35.02.201,TranslationElicitation_eng-prolific,3.2.4,Win32,60,5e60db57fdef8001c1fdc6f7,,1,0,98,31,1,97
,,,,,,,,,,,,,,,,,,,,,,,,,,,,,,,,,,,,,,,,,g,19.25399995,SPEAKING,FALSE,,,,,,,35,esponja,Spanish,Sounds/spa_esponja.mp3,2020-06-05_15h35.02.201,TranslationElicitation_eng-prolific,3.2.4,Win32,60,5e60db57fdef8001c1fdc6f7,,1,0,98,31,1,97
,,,,,,,,,,,,,,,,,,,,,,,,,,,,,,,,,,,,,,,,,return,19.38800001,SPEAKING,FALSE,,,,,,,35,esponja,Spanish,Sounds/spa_esponja.mp3,2020-06-05_15h35.02.201,TranslationElicitation_eng-prolific,3.2.4,Win32,60,5e60db57fdef8001c1fdc6f7,19.38800001,1,0,98,31,1,97
,,,,,,,,,,,,,,,,,,,,,,,,,,,,,,,,,,,,,,,,,,,,,,,,,,,35,esponja,Spanish,Sounds/spa_esponja.mp3,2020-06-05_15h35.02.201,TranslationElicitation_eng-prolific,3.2.4,Win32,60,5e60db57fdef8001c1fdc6f7,,1,0,98,31,1,97
,,,,,,,,,,,,,,,,,,,,,,,,,,,,,,,,,,,,,,,,,t,1.601999998,T,FALSE,,,,,,,99,tomate,Spanish,Sounds/spa_tomate.mp3,2020-06-05_15h35.02.201,TranslationElicitation_eng-prolific,3.2.4,Win32,60,5e60db57fdef8001c1fdc6f7,,1,0,98,93,1,97
,,,,,,,,,,,,,,,,,,,,,,,,,,,,,,,,,,,,,,,,,o,1.686000109,TO,FALSE,,,,,,,99,tomate,Spanish,Sounds/spa_tomate.mp3,2020-06-05_15h35.02.201,TranslationElicitation_eng-prolific,3.2.4,Win32,60,5e60db57fdef8001c1fdc6f7,,1,0,98,93,1,97
,,,,,,,,,,,,,,,,,,,,,,,,,,,,,,,,,,,,,,,,,m,1.820000172,TOM,FALSE,,,,,,,99,tomate,Spanish,Sounds/spa_tomate.mp3,2020-06-05_15h35.02.201,TranslationElicitation_eng-prolific,3.2.4,Win32,60,5e60db57fdef8001c1fdc6f7,,1,0,98,93,1,97
,,,,,,,,,,,,,,,,,,,,,,,,,,,,,,,,,,,,,,,,,a,1.986000061,TOMA,FALSE,,,,,,,99,tomate,Spanish,Sounds/spa_tomate.mp3,2020-06-05_15h35.02.201,TranslationElicitation_eng-prolific,3.2.4,Win32,60,5e60db57fdef8001c1fdc6f7,,1,0,98,93,1,97
,,,,,,,,,,,,,,,,,,,,,,,,,,,,,,,,,,,,,,,,,t,2.203999996,TOMAT,FALSE,,,,,,,99,tomate,Spanish,Sounds/spa_tomate.mp3,2020-06-05_15h35.02.201,TranslationElicitation_eng-prolific,3.2.4,Win32,60,5e60db57fdef8001c1fdc6f7,,1,0,98,93,1,97
,,,,,,,,,,,,,,,,,,,,,,,,,,,,,,,,,,,,,,,,,o,2.287000179,TOMATO,FALSE,,,,,,,99,tomate,Spanish,Sounds/spa_tomate.mp3,2020-06-05_15h35.02.201,TranslationElicitation_eng-prolific,3.2.4,Win32,60,5e60db57fdef8001c1fdc6f7,,1,0,98,93,1,97
,,,,,,,,,,,,,,,,,,,,,,,,,,,,,,,,,,,,,,,,,return,2.486999989,TOMATO,FALSE,,,,,,,99,tomate,Spanish,Sounds/spa_tomate.mp3,2020-06-05_15h35.02.201,TranslationElicitation_eng-prolific,3.2.4,Win32,60,5e60db57fdef8001c1fdc6f7,2.486999989,1,0,98,93,1,97
,,,,,,,,,,,,,,,,,,,,,,,,,,,,,,,,,,,,,,,,,,,,,,,,,,,99,tomate,Spanish,Sounds/spa_tomate.mp3,2020-06-05_15h35.02.201,TranslationElicitation_eng-prolific,3.2.4,Win32,60,5e60db57fdef8001c1fdc6f7,,1,0,98,93,1,97
,,,,,,,,,,,,,,,,,,,,,,,,,,,,,,,,,,,,,,,,,l,8.21600008,L,FALSE,,,,,,,55,leon,Spanish,Sounds/spa_leon.mp3,2020-06-05_15h35.02.201,TranslationElicitation_eng-prolific,3.2.4,Win32,60,5e60db57fdef8001c1fdc6f7,,1,0,98,51,1,97
,,,,,,,,,,,,,,,,,,,,,,,,,,,,,,,,,,,,,,,,,i,8.417000055,LI,FALSE,,,,,,,55,leon,Spanish,Sounds/spa_leon.mp3,2020-06-05_15h35.02.201,TranslationElicitation_eng-prolific,3.2.4,Win32,60,5e60db57fdef8001c1fdc6f7,,1,0,98,51,1,97
,,,,,,,,,,,,,,,,,,,,,,,,,,,,,,,,,,,,,,,,,o,8.549999952,LIO,FALSE,,,,,,,55,leon,Spanish,Sounds/spa_leon.mp3,2020-06-05_15h35.02.201,TranslationElicitation_eng-prolific,3.2.4,Win32,60,5e60db57fdef8001c1fdc6f7,,1,0,98,51,1,97
,,,,,,,,,,,,,,,,,,,,,,,,,,,,,,,,,,,,,,,,,n,8.717000008,LION,FALSE,,,,,,,55,leon,Spanish,Sounds/spa_leon.mp3,2020-06-05_15h35.02.201,TranslationElicitation_eng-prolific,3.2.4,Win32,60,5e60db57fdef8001c1fdc6f7,,1,0,98,51,1,97
,,,,,,,,,,,,,,,,,,,,,,,,,,,,,,,,,,,,,,,,,return,8.933000088,LION,FALSE,,,,,,,55,leon,Spanish,Sounds/spa_leon.mp3,2020-06-05_15h35.02.201,TranslationElicitation_eng-prolific,3.2.4,Win32,60,5e60db57fdef8001c1fdc6f7,8.933000088,1,0,98,51,1,97
,,,,,,,,,,,,,,,,,,,,,,,,,,,,,,,,,,,,,,,,,,,,,,,,,,,55,leon,Spanish,Sounds/spa_leon.mp3,2020-06-05_15h35.02.201,TranslationElicitation_eng-prolific,3.2.4,Win32,60,5e60db57fdef8001c1fdc6f7,,1,0,98,51,1,97
,,,,,,,,,,,,,,,,,,,,,,,,,,,,,,,,,,,,,,,,,b,22.1099999,B,FALSE,,,,,,,103,zanahoria,Spanish,Sounds/spa_zanahoria.mp3,2020-06-05_15h35.02.201,TranslationElicitation_eng-prolific,3.2.4,Win32,60,5e60db57fdef8001c1fdc6f7,,1,0,98,97,1,97
,,,,,,,,,,,,,,,,,,,,,,,,,,,,,,,,,,,,,,,,,r,22.24299979,BR,FALSE,,,,,,,103,zanahoria,Spanish,Sounds/spa_zanahoria.mp3,2020-06-05_15h35.02.201,TranslationElicitation_eng-prolific,3.2.4,Win32,60,5e60db57fdef8001c1fdc6f7,,1,0,98,97,1,97
,,,,,,,,,,,,,,,,,,,,,,,,,,,,,,,,,,,,,,,,,e,22.42699981,BRE,FALSE,,,,,,,103,zanahoria,Spanish,Sounds/spa_zanahoria.mp3,2020-06-05_15h35.02.201,TranslationElicitation_eng-prolific,3.2.4,Win32,60,5e60db57fdef8001c1fdc6f7,,1,0,98,97,1,97
,,,,,,,,,,,,,,,,,,,,,,,,,,,,,,,,,,,,,,,,,a,22.62999988,BREA,FALSE,,,,,,,103,zanahoria,Spanish,Sounds/spa_zanahoria.mp3,2020-06-05_15h35.02.201,TranslationElicitation_eng-prolific,3.2.4,Win32,60,5e60db57fdef8001c1fdc6f7,,1,0,98,97,1,97
,,,,,,,,,,,,,,,,,,,,,,,,,,,,,,,,,,,,,,,,,k,22.74099994,BREAK,FALSE,,,,,,,103,zanahoria,Spanish,Sounds/spa_zanahoria.mp3,2020-06-05_15h35.02.201,TranslationElicitation_eng-prolific,3.2.4,Win32,60,5e60db57fdef8001c1fdc6f7,,1,0,98,97,1,97
,,,,,,,,,,,,,,,,,,,,,,,,,,,,,,,,,,,,,,,,,f,22.87799978,BREAKF,FALSE,,,,,,,103,zanahoria,Spanish,Sounds/spa_zanahoria.mp3,2020-06-05_15h35.02.201,TranslationElicitation_eng-prolific,3.2.4,Win32,60,5e60db57fdef8001c1fdc6f7,,1,0,98,97,1,97
,,,,,,,,,,,,,,,,,,,,,,,,,,,,,,,,,,,,,,,,,a,23.09499979,BREAKFA,FALSE,,,,,,,103,zanahoria,Spanish,Sounds/spa_zanahoria.mp3,2020-06-05_15h35.02.201,TranslationElicitation_eng-prolific,3.2.4,Win32,60,5e60db57fdef8001c1fdc6f7,,1,0,98,97,1,97
,,,,,,,,,,,,,,,,,,,,,,,,,,,,,,,,,,,,,,,,,s,23.24499989,BREAKFAS,FALSE,,,,,,,103,zanahoria,Spanish,Sounds/spa_zanahoria.mp3,2020-06-05_15h35.02.201,TranslationElicitation_eng-prolific,3.2.4,Win32,60,5e60db57fdef8001c1fdc6f7,,1,0,98,97,1,97
,,,,,,,,,,,,,,,,,,,,,,,,,,,,,,,,,,,,,,,,,t,23.44499993,BREAKFAST,FALSE,,,,,,,103,zanahoria,Spanish,Sounds/spa_zanahoria.mp3,2020-06-05_15h35.02.201,TranslationElicitation_eng-prolific,3.2.4,Win32,60,5e60db57fdef8001c1fdc6f7,,1,0,98,97,1,97
,,,,,,,,,,,,,,,,,,,,,,,,,,,,,,,,,,,,,,,,,return,23.579,BREAKFAST,FALSE,,,,,,,103,zanahoria,Spanish,Sounds/spa_zanahoria.mp3,2020-06-05_15h35.02.201,TranslationElicitation_eng-prolific,3.2.4,Win32,60,5e60db57fdef8001c1fdc6f7,23.579,1,0,98,97,1,97
,,,,,,,,,,,,,,,,,,,,,,,,,,,,,,,,,,,,,,,,,,,,,,,,,,,103,zanahoria,Spanish,Sounds/spa_zanahoria.mp3,2020-06-05_15h35.02.201,TranslationElicitation_eng-prolific,3.2.4,Win32,60,5e60db57fdef8001c1fdc6f7,,1,0,98,97,1,97
,,,,,,,,,,,,,,,,,,,,,,,,,,,,,,,,,,,,,,,,,f,20.07299995,F,FALSE,,,,,,,67,muneca,Spanish,Sounds/spa_muneca.mp3,2020-06-05_15h35.02.201,TranslationElicitation_eng-prolific,3.2.4,Win32,60,5e60db57fdef8001c1fdc6f7,,1,0,98,63,1,97
,,,,,,,,,,,,,,,,,,,,,,,,,,,,,,,,,,,,,,,,,r,20.25699997,FR,FALSE,,,,,,,67,muneca,Spanish,Sounds/spa_muneca.mp3,2020-06-05_15h35.02.201,TranslationElicitation_eng-prolific,3.2.4,Win32,60,5e60db57fdef8001c1fdc6f7,,1,0,98,63,1,97
,,,,,,,,,,,,,,,,,,,,,,,,,,,,,,,,,,,,,,,,,i,20.55700016,FRI,FALSE,,,,,,,67,muneca,Spanish,Sounds/spa_muneca.mp3,2020-06-05_15h35.02.201,TranslationElicitation_eng-prolific,3.2.4,Win32,60,5e60db57fdef8001c1fdc6f7,,1,0,98,63,1,97
,,,,,,,,,,,,,,,,,,,,,,,,,,,,,,,,,,,,,,,,,e,20.94099998,FRIE,FALSE,,,,,,,67,muneca,Spanish,Sounds/spa_muneca.mp3,2020-06-05_15h35.02.201,TranslationElicitation_eng-prolific,3.2.4,Win32,60,5e60db57fdef8001c1fdc6f7,,1,0,98,63,1,97
,,,,,,,,,,,,,,,,,,,,,,,,,,,,,,,,,,,,,,,,,n,21.22500014,FRIEN,FALSE,,,,,,,67,muneca,Spanish,Sounds/spa_muneca.mp3,2020-06-05_15h35.02.201,TranslationElicitation_eng-prolific,3.2.4,Win32,60,5e60db57fdef8001c1fdc6f7,,1,0,98,63,1,97
,,,,,,,,,,,,,,,,,,,,,,,,,,,,,,,,,,,,,,,,,d,21.55900002,FRIEND,FALSE,,,,,,,67,muneca,Spanish,Sounds/spa_muneca.mp3,2020-06-05_15h35.02.201,TranslationElicitation_eng-prolific,3.2.4,Win32,60,5e60db57fdef8001c1fdc6f7,,1,0,98,63,1,97
,,,,,,,,,,,,,,,,,,,,,,,,,,,,,,,,,,,,,,,,,return,21.99300003,FRIEND,FALSE,,,,,,,67,muneca,Spanish,Sounds/spa_muneca.mp3,2020-06-05_15h35.02.201,TranslationElicitation_eng-prolific,3.2.4,Win32,60,5e60db57fdef8001c1fdc6f7,21.99300003,1,0,98,63,1,97
,,,,,,,,,,,,,,,,,,,,,,,,,,,,,,,,,,,,,,,,,,,,,,,,,,,67,muneca,Spanish,Sounds/spa_muneca.mp3,2020-06-05_15h35.02.201,TranslationElicitation_eng-prolific,3.2.4,Win32,60,5e60db57fdef8001c1fdc6f7,,1,0,98,63,1,97
,,,,,,,,,,,,,,,,,,,,,,,,,,,,,,,,,,,,,,,,,t,11.97299981,T,FALSE,,,,,,,48,gusano,Spanish,Sounds/spa_gusano.mp3,2020-06-05_15h35.02.201,TranslationElicitation_eng-prolific,3.2.4,Win32,60,5e60db57fdef8001c1fdc6f7,,1,0,98,44,1,97
,,,,,,,,,,,,,,,,,,,,,,,,,,,,,,,,,,,,,,,,,r,12.15699983,TR,FALSE,,,,,,,48,gusano,Spanish,Sounds/spa_gusano.mp3,2020-06-05_15h35.02.201,TranslationElicitation_eng-prolific,3.2.4,Win32,60,5e60db57fdef8001c1fdc6f7,,1,0,98,44,1,97
,,,,,,,,,,,,,,,,,,,,,,,,,,,,,,,,,,,,,,,,,a,12.375,TRA,FALSE,,,,,,,48,gusano,Spanish,Sounds/spa_gusano.mp3,2020-06-05_15h35.02.201,TranslationElicitation_eng-prolific,3.2.4,Win32,60,5e60db57fdef8001c1fdc6f7,,1,0,98,44,1,97
,,,,,,,,,,,,,,,,,,,,,,,,,,,,,,,,,,,,,,,,,f,12.59099984,TRAF,FALSE,,,,,,,48,gusano,Spanish,Sounds/spa_gusano.mp3,2020-06-05_15h35.02.201,TranslationElicitation_eng-prolific,3.2.4,Win32,60,5e60db57fdef8001c1fdc6f7,,1,0,98,44,1,97
,,,,,,,,,,,,,,,,,,,,,,,,,,,,,,,,,,,,,,,,,f,12.7249999,TRAFF,FALSE,,,,,,,48,gusano,Spanish,Sounds/spa_gusano.mp3,2020-06-05_15h35.02.201,TranslationElicitation_eng-prolific,3.2.4,Win32,60,5e60db57fdef8001c1fdc6f7,,1,0,98,44,1,97
,,,,,,,,,,,,,,,,,,,,,,,,,,,,,,,,,,,,,,,,,i,12.79099989,TRAFFI,FALSE,,,,,,,48,gusano,Spanish,Sounds/spa_gusano.mp3,2020-06-05_15h35.02.201,TranslationElicitation_eng-prolific,3.2.4,Win32,60,5e60db57fdef8001c1fdc6f7,,1,0,98,44,1,97
,,,,,,,,,,,,,,,,,,,,,,,,,,,,,,,,,,,,,,,,,c,12.94199991,TRAFFIC,FALSE,,,,,,,48,gusano,Spanish,Sounds/spa_gusano.mp3,2020-06-05_15h35.02.201,TranslationElicitation_eng-prolific,3.2.4,Win32,60,5e60db57fdef8001c1fdc6f7,,1,0,98,44,1,97
,,,,,,,,,,,,,,,,,,,,,,,,,,,,,,,,,,,,,,,,,return,13.09200001,TRAFFIC,FALSE,,,,,,,48,gusano,Spanish,Sounds/spa_gusano.mp3,2020-06-05_15h35.02.201,TranslationElicitation_eng-prolific,3.2.4,Win32,60,5e60db57fdef8001c1fdc6f7,13.09200001,1,0,98,44,1,97
,,,,,,,,,,,,,,,,,,,,,,,,,,,,,,,,,,,,,,,,,,,,,,,,,,,48,gusano,Spanish,Sounds/spa_gusano.mp3,2020-06-05_15h35.02.201,TranslationElicitation_eng-prolific,3.2.4,Win32,60,5e60db57fdef8001c1fdc6f7,,1,0,98,44,1,97
,,,,,,,,,,,,,,,,,,,,,,,,,,,,,,,,,,,,,,,,,l,3.423000097,L,FALSE,,,,,,,57,loro,Spanish,Sounds/spa_loro.mp3,2020-06-05_15h35.02.201,TranslationElicitation_eng-prolific,3.2.4,Win32,60,5e60db57fdef8001c1fdc6f7,,1,0,98,53,1,97
,,,,,,,,,,,,,,,,,,,,,,,,,,,,,,,,,,,,,,,,,o,3.506999969,LO,FALSE,,,,,,,57,loro,Spanish,Sounds/spa_loro.mp3,2020-06-05_15h35.02.201,TranslationElicitation_eng-prolific,3.2.4,Win32,60,5e60db57fdef8001c1fdc6f7,,1,0,98,53,1,97
,,,,,,,,,,,,,,,,,,,,,,,,,,,,,,,,,,,,,,,,,r,3.707000017,LOR,FALSE,,,,,,,57,loro,Spanish,Sounds/spa_loro.mp3,2020-06-05_15h35.02.201,TranslationElicitation_eng-prolific,3.2.4,Win32,60,5e60db57fdef8001c1fdc6f7,,1,0,98,53,1,97
,,,,,,,,,,,,,,,,,,,,,,,,,,,,,,,,,,,,,,,,,d,3.891000032,LORD,FALSE,,,,,,,57,loro,Spanish,Sounds/spa_loro.mp3,2020-06-05_15h35.02.201,TranslationElicitation_eng-prolific,3.2.4,Win32,60,5e60db57fdef8001c1fdc6f7,,1,0,98,53,1,97
,,,,,,,,,,,,,,,,,,,,,,,,,,,,,,,,,,,,,,,,,return,4.058000088,LORD,FALSE,,,,,,,57,loro,Spanish,Sounds/spa_loro.mp3,2020-06-05_15h35.02.201,TranslationElicitation_eng-prolific,3.2.4,Win32,60,5e60db57fdef8001c1fdc6f7,4.058000088,1,0,98,53,1,97
,,,,,,,,,,,,,,,,,,,,,,,,,,,,,,,,,,,,,,,,,,,,,,,,,,,57,loro,Spanish,Sounds/spa_loro.mp3,2020-06-05_15h35.02.201,TranslationElicitation_eng-prolific,3.2.4,Win32,60,5e60db57fdef8001c1fdc6f7,,1,0,98,53,1,97
,,,,,,,,,,,,,,,,,,,,,,,,,,,,,,,,,,,,,,,,,l,1.218999863,L,FALSE,,,,,,,53,leche,Spanish,Sounds/spa_leche.mp3,2020-06-05_15h35.02.201,TranslationElicitation_eng-prolific,3.2.4,Win32,60,5e60db57fdef8001c1fdc6f7,,1,0,98,49,1,97
,,,,,,,,,,,,,,,,,,,,,,,,,,,,,,,,,,,,,,,,,a,1.368999958,LA,FALSE,,,,,,,53,leche,Spanish,Sounds/spa_leche.mp3,2020-06-05_15h35.02.201,TranslationElicitation_eng-prolific,3.2.4,Win32,60,5e60db57fdef8001c1fdc6f7,,1,0,98,49,1,97
,,,,,,,,,,,,,,,,,,,,,,,,,,,,,,,,,,,,,,,,,d,1.569999933,LAD,FALSE,,,,,,,53,leche,Spanish,Sounds/spa_leche.mp3,2020-06-05_15h35.02.201,TranslationElicitation_eng-prolific,3.2.4,Win32,60,5e60db57fdef8001c1fdc6f7,,1,0,98,49,1,97
,,,,,,,,,,,,,,,,,,,,,,,,,,,,,,,,,,,,,,,,,y,1.786999941,LADY,FALSE,,,,,,,53,leche,Spanish,Sounds/spa_leche.mp3,2020-06-05_15h35.02.201,TranslationElicitation_eng-prolific,3.2.4,Win32,60,5e60db57fdef8001c1fdc6f7,,1,0,98,49,1,97
,,,,,,,,,,,,,,,,,,,,,,,,,,,,,,,,,,,,,,,,,return,2.036999941,LADY,FALSE,,,,,,,53,leche,Spanish,Sounds/spa_leche.mp3,2020-06-05_15h35.02.201,TranslationElicitation_eng-prolific,3.2.4,Win32,60,5e60db57fdef8001c1fdc6f7,2.036999941,1,0,98,49,1,97
,,,,,,,,,,,,,,,,,,,,,,,,,,,,,,,,,,,,,,,,,,,,,,,,,,,53,leche,Spanish,Sounds/spa_leche.mp3,2020-06-05_15h35.02.201,TranslationElicitation_eng-prolific,3.2.4,Win32,60,5e60db57fdef8001c1fdc6f7,,1,0,98,49,1,97
,,,,,,,,,,,,,,,,,,,,,,,,,,,,,,,,,,,,,,,,,s,3.657000065,S,FALSE,,,,,,,7,bocadillo,Spanish,Sounds/spa_bocadillo.mp3,2020-06-05_15h35.02.201,TranslationElicitation_eng-prolific,3.2.4,Win32,60,5e60db57fdef8001c1fdc6f7,,1,0,98,5,1,97
,,,,,,,,,,,,,,,,,,,,,,,,,,,,,,,,,,,,,,,,,h,3.80700016,SH,FALSE,,,,,,,7,bocadillo,Spanish,Sounds/spa_bocadillo.mp3,2020-06-05_15h35.02.201,TranslationElicitation_eng-prolific,3.2.4,Win32,60,5e60db57fdef8001c1fdc6f7,,1,0,98,5,1,97
,,,,,,,,,,,,,,,,,,,,,,,,,,,,,,,,,,,,,,,,,i,3.907999992,SHI,FALSE,,,,,,,7,bocadillo,Spanish,Sounds/spa_bocadillo.mp3,2020-06-05_15h35.02.201,TranslationElicitation_eng-prolific,3.2.4,Win32,60,5e60db57fdef8001c1fdc6f7,,1,0,98,5,1,97
,,,,,,,,,,,,,,,,,,,,,,,,,,,,,,,,,,,,,,,,,p,4.459000111,SHIP,FALSE,,,,,,,7,bocadillo,Spanish,Sounds/spa_bocadillo.mp3,2020-06-05_15h35.02.201,TranslationElicitation_eng-prolific,3.2.4,Win32,60,5e60db57fdef8001c1fdc6f7,,1,0,98,5,1,97
,,,,,,,,,,,,,,,,,,,,,,,,,,,,,,,,,,,,,,,,,return,4.726000071,SHIP,FALSE,,,,,,,7,bocadillo,Spanish,Sounds/spa_bocadillo.mp3,2020-06-05_15h35.02.201,TranslationElicitation_eng-prolific,3.2.4,Win32,60,5e60db57fdef8001c1fdc6f7,4.726000071,1,0,98,5,1,97
,,,,,,,,,,,,,,,,,,,,,,,,,,,,,,,,,,,,,,,,,,,,,,,,,,,7,bocadillo,Spanish,Sounds/spa_bocadillo.mp3,2020-06-05_15h35.02.201,TranslationElicitation_eng-prolific,3.2.4,Win32,60,5e60db57fdef8001c1fdc6f7,,1,0,98,5,1,97
,,,,,,,,,,,,,,,,,,,,,,,,,,,,,,,,,,,,,,,,,s,1.652999878,S,FALSE,,,,,,,92,sandwich,Spanish,Sounds/spa_sandwich.mp3,2020-06-05_15h35.02.201,TranslationElicitation_eng-prolific,3.2.4,Win32,60,5e60db57fdef8001c1fdc6f7,,1,0,98,87,1,97
,,,,,,,,,,,,,,,,,,,,,,,,,,,,,,,,,,,,,,,,,a,1.836999893,SA,FALSE,,,,,,,92,sandwich,Spanish,Sounds/spa_sandwich.mp3,2020-06-05_15h35.02.201,TranslationElicitation_eng-prolific,3.2.4,Win32,60,5e60db57fdef8001c1fdc6f7,,1,0,98,87,1,97
,,,,,,,,,,,,,,,,,,,,,,,,,,,,,,,,,,,,,,,,,n,1.970000029,SAN,FALSE,,,,,,,92,sandwich,Spanish,Sounds/spa_sandwich.mp3,2020-06-05_15h35.02.201,TranslationElicitation_eng-prolific,3.2.4,Win32,60,5e60db57fdef8001c1fdc6f7,,1,0,98,87,1,97
,,,,,,,,,,,,,,,,,,,,,,,,,,,,,,,,,,,,,,,,,w,2.171000004,SANW,FALSE,,,,,,,92,sandwich,Spanish,Sounds/spa_sandwich.mp3,2020-06-05_15h35.02.201,TranslationElicitation_eng-prolific,3.2.4,Win32,60,5e60db57fdef8001c1fdc6f7,,1,0,98,87,1,97
,,,,,,,,,,,,,,,,,,,,,,,,,,,,,,,,,,,,,,,,,i,2.270999908,SANWI,FALSE,,,,,,,92,sandwich,Spanish,Sounds/spa_sandwich.mp3,2020-06-05_15h35.02.201,TranslationElicitation_eng-prolific,3.2.4,Win32,60,5e60db57fdef8001c1fdc6f7,,1,0,98,87,1,97
,,,,,,,,,,,,,,,,,,,,,,,,,,,,,,,,,,,,,,,,,c,2.421000004,SANWIC,FALSE,,,,,,,92,sandwich,Spanish,Sounds/spa_sandwich.mp3,2020-06-05_15h35.02.201,TranslationElicitation_eng-prolific,3.2.4,Win32,60,5e60db57fdef8001c1fdc6f7,,1,0,98,87,1,97
,,,,,,,,,,,,,,,,,,,,,,,,,,,,,,,,,,,,,,,,,h,2.487999916,SANWICH,FALSE,,,,,,,92,sandwich,Spanish,Sounds/spa_sandwich.mp3,2020-06-05_15h35.02.201,TranslationElicitation_eng-prolific,3.2.4,Win32,60,5e60db57fdef8001c1fdc6f7,,1,0,98,87,1,97
,,,,,,,,,,,,,,,,,,,,,,,,,,,,,,,,,,,,,,,,,backspace,3.222999811,SANWIC,TRUE,,,,,,,92,sandwich,Spanish,Sounds/spa_sandwich.mp3,2020-06-05_15h35.02.201,TranslationElicitation_eng-prolific,3.2.4,Win32,60,5e60db57fdef8001c1fdc6f7,,1,0,98,87,1,97
,,,,,,,,,,,,,,,,,,,,,,,,,,,,,,,,,,,,,,,,,backspace,3.422999859,SANWI,TRUE,,,,,,,92,sandwich,Spanish,Sounds/spa_sandwich.mp3,2020-06-05_15h35.02.201,TranslationElicitation_eng-prolific,3.2.4,Win32,60,5e60db57fdef8001c1fdc6f7,,1,0,98,87,1,97
,,,,,,,,,,,,,,,,,,,,,,,,,,,,,,,,,,,,,,,,,backspace,3.589999914,SANW,TRUE,,,,,,,92,sandwich,Spanish,Sounds/spa_sandwich.mp3,2020-06-05_15h35.02.201,TranslationElicitation_eng-prolific,3.2.4,Win32,60,5e60db57fdef8001c1fdc6f7,,1,0,98,87,1,97
,,,,,,,,,,,,,,,,,,,,,,,,,,,,,,,,,,,,,,,,,backspace,3.74000001,SAN,TRUE,,,,,,,92,sandwich,Spanish,Sounds/spa_sandwich.mp3,2020-06-05_15h35.02.201,TranslationElicitation_eng-prolific,3.2.4,Win32,60,5e60db57fdef8001c1fdc6f7,,1,0,98,87,1,97
,,,,,,,,,,,,,,,,,,,,,,,,,,,,,,,,,,,,,,,,,d,4.557999849,SAND,TRUE,,,,,,,92,sandwich,Spanish,Sounds/spa_sandwich.mp3,2020-06-05_15h35.02.201,TranslationElicitation_eng-prolific,3.2.4,Win32,60,5e60db57fdef8001c1fdc6f7,,1,0,98,87,1,97
,,,,,,,,,,,,,,,,,,,,,,,,,,,,,,,,,,,,,,,,,w,4.741999865,SANDW,TRUE,,,,,,,92,sandwich,Spanish,Sounds/spa_sandwich.mp3,2020-06-05_15h35.02.201,TranslationElicitation_eng-prolific,3.2.4,Win32,60,5e60db57fdef8001c1fdc6f7,,1,0,98,87,1,97
,,,,,,,,,,,,,,,,,,,,,,,,,,,,,,,,,,,,,,,,,i,4.825999975,SANDWI,TRUE,,,,,,,92,sandwich,Spanish,Sounds/spa_sandwich.mp3,2020-06-05_15h35.02.201,TranslationElicitation_eng-prolific,3.2.4,Win32,60,5e60db57fdef8001c1fdc6f7,,1,0,98,87,1,97
,,,,,,,,,,,,,,,,,,,,,,,,,,,,,,,,,,,,,,,,,c,4.993000031,SANDWIC,TRUE,,,,,,,92,sandwich,Spanish,Sounds/spa_sandwich.mp3,2020-06-05_15h35.02.201,TranslationElicitation_eng-prolific,3.2.4,Win32,60,5e60db57fdef8001c1fdc6f7,,1,0,98,87,1,97
,,,,,,,,,,,,,,,,,,,,,,,,,,,,,,,,,,,,,,,,,h,5.059000015,SANDWICH,TRUE,,,,,,,92,sandwich,Spanish,Sounds/spa_sandwich.mp3,2020-06-05_15h35.02.201,TranslationElicitation_eng-prolific,3.2.4,Win32,60,5e60db57fdef8001c1fdc6f7,,1,0,98,87,1,97
,,,,,,,,,,,,,,,,,,,,,,,,,,,,,,,,,,,,,,,,,return,5.359999895,SANDWICH,TRUE,,,,,,,92,sandwich,Spanish,Sounds/spa_sandwich.mp3,2020-06-05_15h35.02.201,TranslationElicitation_eng-prolific,3.2.4,Win32,60,5e60db57fdef8001c1fdc6f7,5.359999895,1,0,98,87,1,97
,,,,,,,,,,,,,,,,,,,,,,,,,,,,,,,,,,,,,,,,,,,,,,,,,,,92,sandwich,Spanish,Sounds/spa_sandwich.mp3,2020-06-05_15h35.02.201,TranslationElicitation_eng-prolific,3.2.4,Win32,60,5e60db57fdef8001c1fdc6f7,,1,0,98,87,1,97
,,,,,,,,,,,,,,,,,,,,,,,,,,,,,,,,,,,,,,,,,b,2.220999956,B,FALSE,,,,,,,102,ventana,Spanish,Sounds/spa_ventana.mp3,2020-06-05_15h35.02.201,TranslationElicitation_eng-prolific,3.2.4,Win32,60,5e60db57fdef8001c1fdc6f7,,1,0,98,96,1,97
,,,,,,,,,,,,,,,,,,,,,,,,,,,,,,,,,,,,,,,,,a,2.355000019,BA,FALSE,,,,,,,102,ventana,Spanish,Sounds/spa_ventana.mp3,2020-06-05_15h35.02.201,TranslationElicitation_eng-prolific,3.2.4,Win32,60,5e60db57fdef8001c1fdc6f7,,1,0,98,96,1,97
,,,,,,,,,,,,,,,,,,,,,,,,,,,,,,,,,,,,,,,,,n,2.471999884,BAN,FALSE,,,,,,,102,ventana,Spanish,Sounds/spa_ventana.mp3,2020-06-05_15h35.02.201,TranslationElicitation_eng-prolific,3.2.4,Win32,60,5e60db57fdef8001c1fdc6f7,,1,0,98,96,1,97
,,,,,,,,,,,,,,,,,,,,,,,,,,,,,,,,,,,,,,,,,a,2.587999821,BANA,FALSE,,,,,,,102,ventana,Spanish,Sounds/spa_ventana.mp3,2020-06-05_15h35.02.201,TranslationElicitation_eng-prolific,3.2.4,Win32,60,5e60db57fdef8001c1fdc6f7,,1,0,98,96,1,97
,,,,,,,,,,,,,,,,,,,,,,,,,,,,,,,,,,,,,,,,,n,2.688999891,BANAN,FALSE,,,,,,,102,ventana,Spanish,Sounds/spa_ventana.mp3,2020-06-05_15h35.02.201,TranslationElicitation_eng-prolific,3.2.4,Win32,60,5e60db57fdef8001c1fdc6f7,,1,0,98,96,1,97
,,,,,,,,,,,,,,,,,,,,,,,,,,,,,,,,,,,,,,,,,a,3.172999859,BANANA,FALSE,,,,,,,102,ventana,Spanish,Sounds/spa_ventana.mp3,2020-06-05_15h35.02.201,TranslationElicitation_eng-prolific,3.2.4,Win32,60,5e60db57fdef8001c1fdc6f7,,1,0,98,96,1,97
,,,,,,,,,,,,,,,,,,,,,,,,,,,,,,,,,,,,,,,,,return,3.506999969,BANANA,FALSE,,,,,,,102,ventana,Spanish,Sounds/spa_ventana.mp3,2020-06-05_15h35.02.201,TranslationElicitation_eng-prolific,3.2.4,Win32,60,5e60db57fdef8001c1fdc6f7,3.506999969,1,0,98,96,1,97
,,,,,,,,,,,,,,,,,,,,,,,,,,,,,,,,,,,,,,,,,,,,,,,,,,,102,ventana,Spanish,Sounds/spa_ventana.mp3,2020-06-05_15h35.02.201,TranslationElicitation_eng-prolific,3.2.4,Win32,60,5e60db57fdef8001c1fdc6f7,,1,0,98,96,1,97
,,,,,,,,,,,,,,,,,,,,,,,,,,,,,,,,,,,,,,,,,g,12.32400012,G,FALSE,,,,,,,44,gorrion,Spanish,Sounds/spa_gorrion.mp3,2020-06-05_15h35.02.201,TranslationElicitation_eng-prolific,3.2.4,Win32,60,5e60db57fdef8001c1fdc6f7,,1,0,98,40,1,97
,,,,,,,,,,,,,,,,,,,,,,,,,,,,,,,,,,,,,,,,,o,12.42400002,GO,FALSE,,,,,,,44,gorrion,Spanish,Sounds/spa_gorrion.mp3,2020-06-05_15h35.02.201,TranslationElicitation_eng-prolific,3.2.4,Win32,60,5e60db57fdef8001c1fdc6f7,,1,0,98,40,1,97
,,,,,,,,,,,,,,,,,,,,,,,,,,,,,,,,,,,,,,,,,r,12.5400002,GOR,FALSE,,,,,,,44,gorrion,Spanish,Sounds/spa_gorrion.mp3,2020-06-05_15h35.02.201,TranslationElicitation_eng-prolific,3.2.4,Win32,60,5e60db57fdef8001c1fdc6f7,,1,0,98,40,1,97
,,,,,,,,,,,,,,,,,,,,,,,,,,,,,,,,,,,,,,,,,y,12.74100018,GORY,FALSE,,,,,,,44,gorrion,Spanish,Sounds/spa_gorrion.mp3,2020-06-05_15h35.02.201,TranslationElicitation_eng-prolific,3.2.4,Win32,60,5e60db57fdef8001c1fdc6f7,,1,0,98,40,1,97
,,,,,,,,,,,,,,,,,,,,,,,,,,,,,,,,,,,,,,,,,return,13.15799999,GORY,FALSE,,,,,,,44,gorrion,Spanish,Sounds/spa_gorrion.mp3,2020-06-05_15h35.02.201,TranslationElicitation_eng-prolific,3.2.4,Win32,60,5e60db57fdef8001c1fdc6f7,13.15799999,1,0,98,40,1,97
,,,,,,,,,,,,,,,,,,,,,,,,,,,,,,,,,,,,,,,,,,,,,,,,,,,44,gorrion,Spanish,Sounds/spa_gorrion.mp3,2020-06-05_15h35.02.201,TranslationElicitation_eng-prolific,3.2.4,Win32,60,5e60db57fdef8001c1fdc6f7,,1,0,98,40,1,97
,,,,,,,,,,,,,,,,,,,,,,,,,,,,,,,,,,,,,,,,,b,2.070000172,B,FALSE,,,,,,,89,pluma,Spanish,Sounds/spa_pluma.mp3,2020-06-05_15h35.02.201,TranslationElicitation_eng-prolific,3.2.4,Win32,60,5e60db57fdef8001c1fdc6f7,,1,0,98,84,1,97
,,,,,,,,,,,,,,,,,,,,,,,,,,,,,,,,,,,,,,,,,l,2.120000124,BL,FALSE,,,,,,,89,pluma,Spanish,Sounds/spa_pluma.mp3,2020-06-05_15h35.02.201,TranslationElicitation_eng-prolific,3.2.4,Win32,60,5e60db57fdef8001c1fdc6f7,,1,0,98,84,1,97
,,,,,,,,,,,,,,,,,,,,,,,,,,,,,,,,,,,,,,,,,o,2.304000139,BLO,FALSE,,,,,,,89,pluma,Spanish,Sounds/spa_pluma.mp3,2020-06-05_15h35.02.201,TranslationElicitation_eng-prolific,3.2.4,Win32,60,5e60db57fdef8001c1fdc6f7,,1,0,98,84,1,97
,,,,,,,,,,,,,,,,,,,,,,,,,,,,,,,,,,,,,,,,,o,2.453999996,BLOO,FALSE,,,,,,,89,pluma,Spanish,Sounds/spa_pluma.mp3,2020-06-05_15h35.02.201,TranslationElicitation_eng-prolific,3.2.4,Win32,60,5e60db57fdef8001c1fdc6f7,,1,0,98,84,1,97
,,,,,,,,,,,,,,,,,,,,,,,,,,,,,,,,,,,,,,,,,m,2.609000206,BLOOM,FALSE,,,,,,,89,pluma,Spanish,Sounds/spa_pluma.mp3,2020-06-05_15h35.02.201,TranslationElicitation_eng-prolific,3.2.4,Win32,60,5e60db57fdef8001c1fdc6f7,,1,0,98,84,1,97
,,,,,,,,,,,,,,,,,,,,,,,,,,,,,,,,,,,,,,,,,e,2.705000162,BLOOME,FALSE,,,,,,,89,pluma,Spanish,Sounds/spa_pluma.mp3,2020-06-05_15h35.02.201,TranslationElicitation_eng-prolific,3.2.4,Win32,60,5e60db57fdef8001c1fdc6f7,,1,0,98,84,1,97
,,,,,,,,,,,,,,,,,,,,,,,,,,,,,,,,,,,,,,,,,r,2.838000059,BLOOMER,FALSE,,,,,,,89,pluma,Spanish,Sounds/spa_pluma.mp3,2020-06-05_15h35.02.201,TranslationElicitation_eng-prolific,3.2.4,Win32,60,5e60db57fdef8001c1fdc6f7,,1,0,98,84,1,97
,,,,,,,,,,,,,,,,,,,,,,,,,,,,,,,,,,,,,,,,,s,3.088999987,BLOOMERS,FALSE,,,,,,,89,pluma,Spanish,Sounds/spa_pluma.mp3,2020-06-05_15h35.02.201,TranslationElicitation_eng-prolific,3.2.4,Win32,60,5e60db57fdef8001c1fdc6f7,,1,0,98,84,1,97
,,,,,,,,,,,,,,,,,,,,,,,,,,,,,,,,,,,,,,,,,return,3.323000193,BLOOMERS,FALSE,,,,,,,89,pluma,Spanish,Sounds/spa_pluma.mp3,2020-06-05_15h35.02.201,TranslationElicitation_eng-prolific,3.2.4,Win32,60,5e60db57fdef8001c1fdc6f7,3.323000193,1,0,98,84,1,97
,,,,,,,,,,,,,,,,,,,,,,,,,,,,,,,,,,,,,,,,,,,,,,,,,,,89,pluma,Spanish,Sounds/spa_pluma.mp3,2020-06-05_15h35.02.201,TranslationElicitation_eng-prolific,3.2.4,Win32,60,5e60db57fdef8001c1fdc6f7,,1,0,98,84,1,97
,,,,,,,,,,,,,,,,,,,,,,,,,,,,,,,,,,,,,,,,,k,2.486999989,K,FALSE,,,,,,,29,coche,Spanish,Sounds/spa_coche.mp3,2020-06-05_15h35.02.201,TranslationElicitation_eng-prolific,3.2.4,Win32,60,5e60db57fdef8001c1fdc6f7,,1,0,98,26,1,97
,,,,,,,,,,,,,,,,,,,,,,,,,,,,,,,,,,,,,,,,,e,2.588000059,KE,FALSE,,,,,,,29,coche,Spanish,Sounds/spa_coche.mp3,2020-06-05_15h35.02.201,TranslationElicitation_eng-prolific,3.2.4,Win32,60,5e60db57fdef8001c1fdc6f7,,1,0,98,26,1,97
,,,,,,,,,,,,,,,,,,,,,,,,,,,,,,,,,,,,,,,,,y,2.855000019,KEY,FALSE,,,,,,,29,coche,Spanish,Sounds/spa_coche.mp3,2020-06-05_15h35.02.201,TranslationElicitation_eng-prolific,3.2.4,Win32,60,5e60db57fdef8001c1fdc6f7,,1,0,98,26,1,97
