consentKey.keys,consentKey.rt,languageL1Key.keys,languageL1Key.rt,languageL2,languageL2OralKey.keys,languageL2OralKey.rt,languageL2WrittenKey.keys,languageL2WrittenKey.rt,languageL3,languageL3OralKey.keys,languageL3OralKey.rt,languageL3WrittenKey.keys,languageL3WrittenKey.rt,languageCatalanOralKey.keys,languageCatalanOralKey.rt,languageCatalanWrittenKey.keys,languageCatalanWrittenKey.rt,languageCatalanTimeKey.keys,languageCatalanTimeKey.rt,languageSpanishOralKey.keys,languageSpanishOralKey.rt,languageSpanishWrittenKey.keys,languageSpanishWrittenKey.rt,languageSpanishTimeKey.keys,languageSpanishTimeKey.rt,age,demoSexKey.keys,demoSexKey.rt,demoEducationKey.keys,demoEducationKey.rt,city,demoVisionKey.keys,demoVisionKey.rt,demoLanguageKey.keys,demoLanguageKey.rt,setupLocationKey.keys,setupLocationKey.rt,setupNoiseKey.keys,setupNoiseKey.rt,instructionsKeys.keys,instructionsKeys.rt,keyPressed,keyPressTime,inputText,error,trialsPracticeSpanish.thisRepN,trialsPracticeSpanish.thisTrialN,trialsPracticeSpanish.thisN,trialsPracticeSpanish.thisIndex,trialsPracticeSpanish.ran,trialsPracticeSpanish.order,trial_id,word,test_language,soundfile,date,expName,psychopyVersion,OS,frameRate,participant,trialOffset,trialsSpanish.thisRepN,trialsSpanish.thisTrialN,trialsSpanish.thisN,trialsSpanish.thisIndex,trialsSpanish.ran,trialsSpanish.order
space,1.437000275,e,2.336000204, ,1,10.57500005,1,1.898000002,,,,,,1,2.703000069,1,1.879000187,1,2.820000172,1,1.934000254,1,1.039000273,1,0.876000166,18,m,1.389000177,3,3.104000092,HALSTEAD,y,2.258000135,n,1.87100029,1,2.909000158,2,2.766000032,space,12.24700022,h,3.269999981,H,FALSE,1,0,5,3,1,4,70,ola,Spanish,Sounds/spa_ola.mp3,2020-06-24_17h57.42.669,TranslationElicitation_eng-prolific-spa,3.2.4,Win32,60,5e642125757e611ae1a52811,,,,,,,
,,,,,,,,,,,,,,,,,,,,,,,,,,,,,,,,,,,,,,,,,,e,3.636999846,HE,FALSE,1,0,5,3,1,4,70,ola,Spanish,Sounds/spa_ola.mp3,2020-06-24_17h57.42.669,TranslationElicitation_eng-prolific-spa,3.2.4,Win32,60,5e642125757e611ae1a52811,,,,,,,
,,,,,,,,,,,,,,,,,,,,,,,,,,,,,,,,,,,,,,,,,,l,3.970999956,HEL,FALSE,1,0,5,3,1,4,70,ola,Spanish,Sounds/spa_ola.mp3,2020-06-24_17h57.42.669,TranslationElicitation_eng-prolific-spa,3.2.4,Win32,60,5e642125757e611ae1a52811,,,,,,,
,,,,,,,,,,,,,,,,,,,,,,,,,,,,,,,,,,,,,,,,,,l,4.138000011,HELL,FALSE,1,0,5,3,1,4,70,ola,Spanish,Sounds/spa_ola.mp3,2020-06-24_17h57.42.669,TranslationElicitation_eng-prolific-spa,3.2.4,Win32,60,5e642125757e611ae1a52811,,,,,,,
,,,,,,,,,,,,,,,,,,,,,,,,,,,,,,,,,,,,,,,,,,o,4.320999861,HELLO,FALSE,1,0,5,3,1,4,70,ola,Spanish,Sounds/spa_ola.mp3,2020-06-24_17h57.42.669,TranslationElicitation_eng-prolific-spa,3.2.4,Win32,60,5e642125757e611ae1a52811,,,,,,,
,,,,,,,,,,,,,,,,,,,,,,,,,,,,,,,,,,,,,,,,,,return,4.504999876,HELLO,FALSE,1,0,5,3,1,4,70,ola,Spanish,Sounds/spa_ola.mp3,2020-06-24_17h57.42.669,TranslationElicitation_eng-prolific-spa,3.2.4,Win32,60,5e642125757e611ae1a52811,4.504999876,,,,,,
,,,,,,,,,,,,,,,,,,,,,,,,,,,,,,,,,,,,,,,,,,,,,,1,0,5,3,1,4,70,ola,Spanish,Sounds/spa_ola.mp3,2020-06-24_17h57.42.669,TranslationElicitation_eng-prolific-spa,3.2.4,Win32,60,5e642125757e611ae1a52811,,,,,,,
,,,,,,,,,,,,,,,,,,,,,,,,,,,,,,,,,,,,,,,,,,h,3.052999973,H,FALSE,1,0,5,0,1,4,1,arbol,Spanish,Sounds/spa_arbol.mp3,2020-06-24_17h57.42.669,TranslationElicitation_eng-prolific-spa,3.2.4,Win32,60,5e642125757e611ae1a52811,,,,,,,
,,,,,,,,,,,,,,,,,,,,,,,,,,,,,,,,,,,,,,,,,,o,3.235999823,HO,FALSE,1,0,5,0,1,4,1,arbol,Spanish,Sounds/spa_arbol.mp3,2020-06-24_17h57.42.669,TranslationElicitation_eng-prolific-spa,3.2.4,Win32,60,5e642125757e611ae1a52811,,,,,,,
,,,,,,,,,,,,,,,,,,,,,,,,,,,,,,,,,,,,,,,,,,w,3.369999886,HOW,FALSE,1,0,5,0,1,4,1,arbol,Spanish,Sounds/spa_arbol.mp3,2020-06-24_17h57.42.669,TranslationElicitation_eng-prolific-spa,3.2.4,Win32,60,5e642125757e611ae1a52811,,,,,,,
,,,,,,,,,,,,,,,,,,,,,,,,,,,,,,,,,,,,,,,,,,space,3.436999798,HOW ,FALSE,1,0,5,0,1,4,1,arbol,Spanish,Sounds/spa_arbol.mp3,2020-06-24_17h57.42.669,TranslationElicitation_eng-prolific-spa,3.2.4,Win32,60,5e642125757e611ae1a52811,,,,,,,
,,,,,,,,,,,,,,,,,,,,,,,,,,,,,,,,,,,,,,,,,,a,3.569999933,HOW A,FALSE,1,0,5,0,1,4,1,arbol,Spanish,Sounds/spa_arbol.mp3,2020-06-24_17h57.42.669,TranslationElicitation_eng-prolific-spa,3.2.4,Win32,60,5e642125757e611ae1a52811,,,,,,,
,,,,,,,,,,,,,,,,,,,,,,,,,,,,,,,,,,,,,,,,,,r,3.636999846,HOW AR,FALSE,1,0,5,0,1,4,1,arbol,Spanish,Sounds/spa_arbol.mp3,2020-06-24_17h57.42.669,TranslationElicitation_eng-prolific-spa,3.2.4,Win32,60,5e642125757e611ae1a52811,,,,,,,
,,,,,,,,,,,,,,,,,,,,,,,,,,,,,,,,,,,,,,,,,,e,3.686999798,HOW ARE,FALSE,1,0,5,0,1,4,1,arbol,Spanish,Sounds/spa_arbol.mp3,2020-06-24_17h57.42.669,TranslationElicitation_eng-prolific-spa,3.2.4,Win32,60,5e642125757e611ae1a52811,,,,,,,
,,,,,,,,,,,,,,,,,,,,,,,,,,,,,,,,,,,,,,,,,,space,3.71999979,HOW ARE ,FALSE,1,0,5,0,1,4,1,arbol,Spanish,Sounds/spa_arbol.mp3,2020-06-24_17h57.42.669,TranslationElicitation_eng-prolific-spa,3.2.4,Win32,60,5e642125757e611ae1a52811,,,,,,,
,,,,,,,,,,,,,,,,,,,,,,,,,,,,,,,,,,,,,,,,,,y,3.869999886,HOW ARE Y,FALSE,1,0,5,0,1,4,1,arbol,Spanish,Sounds/spa_arbol.mp3,2020-06-24_17h57.42.669,TranslationElicitation_eng-prolific-spa,3.2.4,Win32,60,5e642125757e611ae1a52811,,,,,,,
,,,,,,,,,,,,,,,,,,,,,,,,,,,,,,,,,,,,,,,,,,o,3.936999798,HOW ARE YO,FALSE,1,0,5,0,1,4,1,arbol,Spanish,Sounds/spa_arbol.mp3,2020-06-24_17h57.42.669,TranslationElicitation_eng-prolific-spa,3.2.4,Win32,60,5e642125757e611ae1a52811,,,,,,,
,,,,,,,,,,,,,,,,,,,,,,,,,,,,,,,,,,,,,,,,,,u,3.986999989,HOW ARE YOU,FALSE,1,0,5,0,1,4,1,arbol,Spanish,Sounds/spa_arbol.mp3,2020-06-24_17h57.42.669,TranslationElicitation_eng-prolific-spa,3.2.4,Win32,60,5e642125757e611ae1a52811,,,,,,,
,,,,,,,,,,,,,,,,,,,,,,,,,,,,,,,,,,,,,,,,,,return,4.203999996,HOW ARE YOU,FALSE,1,0,5,0,1,4,1,arbol,Spanish,Sounds/spa_arbol.mp3,2020-06-24_17h57.42.669,TranslationElicitation_eng-prolific-spa,3.2.4,Win32,60,5e642125757e611ae1a52811,4.203999996,,,,,,
,,,,,,,,,,,,,,,,,,,,,,,,,,,,,,,,,,,,,,,,,,,,,,1,0,5,0,1,4,1,arbol,Spanish,Sounds/spa_arbol.mp3,2020-06-24_17h57.42.669,TranslationElicitation_eng-prolific-spa,3.2.4,Win32,60,5e642125757e611ae1a52811,,,,,,,
,,,,,,,,,,,,,,,,,,,,,,,,,,,,,,,,,,,,,,,,,,d,2.269000053,D,FALSE,1,0,5,4,1,4,96,tigre,Spanish,Sounds/spa_tigre.mp3,2020-06-24_17h57.42.669,TranslationElicitation_eng-prolific-spa,3.2.4,Win32,60,5e642125757e611ae1a52811,,,,,,,
,,,,,,,,,,,,,,,,,,,,,,,,,,,,,,,,,,,,,,,,,,o,2.351999998,DO,FALSE,1,0,5,4,1,4,96,tigre,Spanish,Sounds/spa_tigre.mp3,2020-06-24_17h57.42.669,TranslationElicitation_eng-prolific-spa,3.2.4,Win32,60,5e642125757e611ae1a52811,,,,,,,
,,,,,,,,,,,,,,,,,,,,,,,,,,,,,,,,,,,,,,,,,,i,2.536000013,DOI,FALSE,1,0,5,4,1,4,96,tigre,Spanish,Sounds/spa_tigre.mp3,2020-06-24_17h57.42.669,TranslationElicitation_eng-prolific-spa,3.2.4,Win32,60,5e642125757e611ae1a52811,,,,,,,
,,,,,,,,,,,,,,,,,,,,,,,,,,,,,,,,,,,,,,,,,,n,2.552999973,DOIN,FALSE,1,0,5,4,1,4,96,tigre,Spanish,Sounds/spa_tigre.mp3,2020-06-24_17h57.42.669,TranslationElicitation_eng-prolific-spa,3.2.4,Win32,60,5e642125757e611ae1a52811,,,,,,,
,,,,,,,,,,,,,,,,,,,,,,,,,,,,,,,,,,,,,,,,,,g,2.618999958,DOING,FALSE,1,0,5,4,1,4,96,tigre,Spanish,Sounds/spa_tigre.mp3,2020-06-24_17h57.42.669,TranslationElicitation_eng-prolific-spa,3.2.4,Win32,60,5e642125757e611ae1a52811,,,,,,,
,,,,,,,,,,,,,,,,,,,,,,,,,,,,,,,,,,,,,,,,,,space,2.736000061,DOING ,FALSE,1,0,5,4,1,4,96,tigre,Spanish,Sounds/spa_tigre.mp3,2020-06-24_17h57.42.669,TranslationElicitation_eng-prolific-spa,3.2.4,Win32,60,5e642125757e611ae1a52811,,,,,,,
,,,,,,,,,,,,,,,,,,,,,,,,,,,,,,,,,,,,,,,,,,g,2.802999973,DOING G,FALSE,1,0,5,4,1,4,96,tigre,Spanish,Sounds/spa_tigre.mp3,2020-06-24_17h57.42.669,TranslationElicitation_eng-prolific-spa,3.2.4,Win32,60,5e642125757e611ae1a52811,,,,,,,
,,,,,,,,,,,,,,,,,,,,,,,,,,,,,,,,,,,,,,,,,,r,2.852999926,DOING GR,FALSE,1,0,5,4,1,4,96,tigre,Spanish,Sounds/spa_tigre.mp3,2020-06-24_17h57.42.669,TranslationElicitation_eng-prolific-spa,3.2.4,Win32,60,5e642125757e611ae1a52811,,,,,,,
,,,,,,,,,,,,,,,,,,,,,,,,,,,,,,,,,,,,,,,,,,e,3.036000013,DOING GRE,FALSE,1,0,5,4,1,4,96,tigre,Spanish,Sounds/spa_tigre.mp3,2020-06-24_17h57.42.669,TranslationElicitation_eng-prolific-spa,3.2.4,Win32,60,5e642125757e611ae1a52811,,,,,,,
,,,,,,,,,,,,,,,,,,,,,,,,,,,,,,,,,,,,,,,,,,a,3.119999886,DOING GREA,FALSE,1,0,5,4,1,4,96,tigre,Spanish,Sounds/spa_tigre.mp3,2020-06-24_17h57.42.669,TranslationElicitation_eng-prolific-spa,3.2.4,Win32,60,5e642125757e611ae1a52811,,,,,,,
,,,,,,,,,,,,,,,,,,,,,,,,,,,,,,,,,,,,,,,,,,t,3.220000029,DOING GREAT,FALSE,1,0,5,4,1,4,96,tigre,Spanish,Sounds/spa_tigre.mp3,2020-06-24_17h57.42.669,TranslationElicitation_eng-prolific-spa,3.2.4,Win32,60,5e642125757e611ae1a52811,,,,,,,
,,,,,,,,,,,,,,,,,,,,,,,,,,,,,,,,,,,,,,,,,,return,3.319999933,DOING GREAT,FALSE,1,0,5,4,1,4,96,tigre,Spanish,Sounds/spa_tigre.mp3,2020-06-24_17h57.42.669,TranslationElicitation_eng-prolific-spa,3.2.4,Win32,60,5e642125757e611ae1a52811,3.319999933,,,,,,
,,,,,,,,,,,,,,,,,,,,,,,,,,,,,,,,,,,,,,,,,,,,,,1,0,5,4,1,4,96,tigre,Spanish,Sounds/spa_tigre.mp3,2020-06-24_17h57.42.669,TranslationElicitation_eng-prolific-spa,3.2.4,Win32,60,5e642125757e611ae1a52811,,,,,,,
,,,,,,,,,,,,,,,,,,,,,,,,,,,,,,,,,,,,,,,,,,a,1.835000038,A,FALSE,1,0,5,2,1,4,26,chaqueta,Spanish,Sounds/spa_chaqueta.mp3,2020-06-24_17h57.42.669,TranslationElicitation_eng-prolific-spa,3.2.4,Win32,60,5e642125757e611ae1a52811,,,,,,,
,,,,,,,,,,,,,,,,,,,,,,,,,,,,,,,,,,,,,,,,,,n,3.486999989,AN,FALSE,1,0,5,2,1,4,26,chaqueta,Spanish,Sounds/spa_chaqueta.mp3,2020-06-24_17h57.42.669,TranslationElicitation_eng-prolific-spa,3.2.4,Win32,60,5e642125757e611ae1a52811,,,,,,,
,,,,,,,,,,,,,,,,,,,,,,,,,,,,,,,,,,,,,,,,,,d,3.604000092,AND,FALSE,1,0,5,2,1,4,26,chaqueta,Spanish,Sounds/spa_chaqueta.mp3,2020-06-24_17h57.42.669,TranslationElicitation_eng-prolific-spa,3.2.4,Win32,60,5e642125757e611ae1a52811,,,,,,,
,,,,,,,,,,,,,,,,,,,,,,,,,,,,,,,,,,,,,,,,,,space,3.687000036,AND ,FALSE,1,0,5,2,1,4,26,chaqueta,Spanish,Sounds/spa_chaqueta.mp3,2020-06-24_17h57.42.669,TranslationElicitation_eng-prolific-spa,3.2.4,Win32,60,5e642125757e611ae1a52811,,,,,,,
,,,,,,,,,,,,,,,,,,,,,,,,,,,,,,,,,,,,,,,,,,y,3.804000139,AND Y,FALSE,1,0,5,2,1,4,26,chaqueta,Spanish,Sounds/spa_chaqueta.mp3,2020-06-24_17h57.42.669,TranslationElicitation_eng-prolific-spa,3.2.4,Win32,60,5e642125757e611ae1a52811,,,,,,,
,,,,,,,,,,,,,,,,,,,,,,,,,,,,,,,,,,,,,,,,,,o,3.870000124,AND YO,FALSE,1,0,5,2,1,4,26,chaqueta,Spanish,Sounds/spa_chaqueta.mp3,2020-06-24_17h57.42.669,TranslationElicitation_eng-prolific-spa,3.2.4,Win32,60,5e642125757e611ae1a52811,,,,,,,
,,,,,,,,,,,,,,,,,,,,,,,,,,,,,,,,,,,,,,,,,,u,3.921000004,AND YOU,FALSE,1,0,5,2,1,4,26,chaqueta,Spanish,Sounds/spa_chaqueta.mp3,2020-06-24_17h57.42.669,TranslationElicitation_eng-prolific-spa,3.2.4,Win32,60,5e642125757e611ae1a52811,,,,,,,
,,,,,,,,,,,,,,,,,,,,,,,,,,,,,,,,,,,,,,,,,,backspace,4.488000154,AND YO,TRUE,1,0,5,2,1,4,26,chaqueta,Spanish,Sounds/spa_chaqueta.mp3,2020-06-24_17h57.42.669,TranslationElicitation_eng-prolific-spa,3.2.4,Win32,60,5e642125757e611ae1a52811,,,,,,,
,,,,,,,,,,,,,,,,,,,,,,,,,,,,,,,,,,,,,,,,,,backspace,4.989000082,AND Y,TRUE,1,0,5,2,1,4,26,chaqueta,Spanish,Sounds/spa_chaqueta.mp3,2020-06-24_17h57.42.669,TranslationElicitation_eng-prolific-spa,3.2.4,Win32,60,5e642125757e611ae1a52811,,,,,,,
,,,,,,,,,,,,,,,,,,,,,,,,,,,,,,,,,,,,,,,,,,backspace,5.022000074,AND ,TRUE,1,0,5,2,1,4,26,chaqueta,Spanish,Sounds/spa_chaqueta.mp3,2020-06-24_17h57.42.669,TranslationElicitation_eng-prolific-spa,3.2.4,Win32,60,5e642125757e611ae1a52811,,,,,,,
,,,,,,,,,,,,,,,,,,,,,,,,,,,,,,,,,,,,,,,,,,backspace,5.055000067,AND,TRUE,1,0,5,2,1,4,26,chaqueta,Spanish,Sounds/spa_chaqueta.mp3,2020-06-24_17h57.42.669,TranslationElicitation_eng-prolific-spa,3.2.4,Win32,60,5e642125757e611ae1a52811,,,,,,,
,,,,,,,,,,,,,,,,,,,,,,,,,,,,,,,,,,,,,,,,,,backspace,5.088000059,AN,TRUE,1,0,5,2,1,4,26,chaqueta,Spanish,Sounds/spa_chaqueta.mp3,2020-06-24_17h57.42.669,TranslationElicitation_eng-prolific-spa,3.2.4,Win32,60,5e642125757e611ae1a52811,,,,,,,
,,,,,,,,,,,,,,,,,,,,,,,,,,,,,,,,,,,,,,,,,,backspace,5.122000217,A,TRUE,1,0,5,2,1,4,26,chaqueta,Spanish,Sounds/spa_chaqueta.mp3,2020-06-24_17h57.42.669,TranslationElicitation_eng-prolific-spa,3.2.4,Win32,60,5e642125757e611ae1a52811,,,,,,,
,,,,,,,,,,,,,,,,,,,,,,,,,,,,,,,,,,,,,,,,,,backspace,5.15500021,,TRUE,1,0,5,2,1,4,26,chaqueta,Spanish,Sounds/spa_chaqueta.mp3,2020-06-24_17h57.42.669,TranslationElicitation_eng-prolific-spa,3.2.4,Win32,60,5e642125757e611ae1a52811,,,,,,,
,,,,,,,,,,,,,,,,,,,,,,,,,,,,,,,,,,,,,,,,,,backspace,5.188000202,,TRUE,1,0,5,2,1,4,26,chaqueta,Spanish,Sounds/spa_chaqueta.mp3,2020-06-24_17h57.42.669,TranslationElicitation_eng-prolific-spa,3.2.4,Win32,60,5e642125757e611ae1a52811,,,,,,,
,,,,,,,,,,,,,,,,,,,,,,,,,,,,,,,,,,,,,,,,,,backspace,5.222000122,,TRUE,1,0,5,2,1,4,26,chaqueta,Spanish,Sounds/spa_chaqueta.mp3,2020-06-24_17h57.42.669,TranslationElicitation_eng-prolific-spa,3.2.4,Win32,60,5e642125757e611ae1a52811,,,,,,,
,,,,,,,,,,,,,,,,,,,,,,,,,,,,,,,,,,,,,,,,,,backspace,5.255000114,,TRUE,1,0,5,2,1,4,26,chaqueta,Spanish,Sounds/spa_chaqueta.mp3,2020-06-24_17h57.42.669,TranslationElicitation_eng-prolific-spa,3.2.4,Win32,60,5e642125757e611ae1a52811,,,,,,,
,,,,,,,,,,,,,,,,,,,,,,,,,,,,,,,,,,,,,,,,,,n,7.007000208,N,TRUE,1,0,5,2,1,4,26,chaqueta,Spanish,Sounds/spa_chaqueta.mp3,2020-06-24_17h57.42.669,TranslationElicitation_eng-prolific-spa,3.2.4,Win32,60,5e642125757e611ae1a52811,,,,,,,
,,,,,,,,,,,,,,,,,,,,,,,,,,,,,,,,,,,,,,,,,,o,7.05700016,NO,TRUE,1,0,5,2,1,4,26,chaqueta,Spanish,Sounds/spa_chaqueta.mp3,2020-06-24_17h57.42.669,TranslationElicitation_eng-prolific-spa,3.2.4,Win32,60,5e642125757e611ae1a52811,,,,,,,
,,,,,,,,,,,,,,,,,,,,,,,,,,,,,,,,,,,,,,,,,,t,7.141000032,NOT,TRUE,1,0,5,2,1,4,26,chaqueta,Spanish,Sounds/spa_chaqueta.mp3,2020-06-24_17h57.42.669,TranslationElicitation_eng-prolific-spa,3.2.4,Win32,60,5e642125757e611ae1a52811,,,,,,,
,,,,,,,,,,,,,,,,,,,,,,,,,,,,,,,,,,,,,,,,,,space,7.241000175,NOT ,TRUE,1,0,5,2,1,4,26,chaqueta,Spanish,Sounds/spa_chaqueta.mp3,2020-06-24_17h57.42.669,TranslationElicitation_eng-prolific-spa,3.2.4,Win32,60,5e642125757e611ae1a52811,,,,,,,
,,,,,,,,,,,,,,,,,,,,,,,,,,,,,,,,,,,,,,,,,,s,7.34100008,NOT S,TRUE,1,0,5,2,1,4,26,chaqueta,Spanish,Sounds/spa_chaqueta.mp3,2020-06-24_17h57.42.669,TranslationElicitation_eng-prolific-spa,3.2.4,Win32,60,5e642125757e611ae1a52811,,,,,,,
,,,,,,,,,,,,,,,,,,,,,,,,,,,,,,,,,,,,,,,,,,u,7.391000032,NOT SU,TRUE,1,0,5,2,1,4,26,chaqueta,Spanish,Sounds/spa_chaqueta.mp3,2020-06-24_17h57.42.669,TranslationElicitation_eng-prolific-spa,3.2.4,Win32,60,5e642125757e611ae1a52811,,,,,,,
,,,,,,,,,,,,,,,,,,,,,,,,,,,,,,,,,,,,,,,,,,r,7.457000017,NOT SUR,TRUE,1,0,5,2,1,4,26,chaqueta,Spanish,Sounds/spa_chaqueta.mp3,2020-06-24_17h57.42.669,TranslationElicitation_eng-prolific-spa,3.2.4,Win32,60,5e642125757e611ae1a52811,,,,,,,
,,,,,,,,,,,,,,,,,,,,,,,,,,,,,,,,,,,,,,,,,,e,7.558000088,NOT SURE,TRUE,1,0,5,2,1,4,26,chaqueta,Spanish,Sounds/spa_chaqueta.mp3,2020-06-24_17h57.42.669,TranslationElicitation_eng-prolific-spa,3.2.4,Win32,60,5e642125757e611ae1a52811,,,,,,,
,,,,,,,,,,,,,,,,,,,,,,,,,,,,,,,,,,,,,,,,,,return,7.641000032,NOT SURE,TRUE,1,0,5,2,1,4,26,chaqueta,Spanish,Sounds/spa_chaqueta.mp3,2020-06-24_17h57.42.669,TranslationElicitation_eng-prolific-spa,3.2.4,Win32,60,5e642125757e611ae1a52811,7.641000032,,,,,,
,,,,,,,,,,,,,,,,,,,,,,,,,,,,,,,,,,,,,,,,,,,,,,1,0,5,2,1,4,26,chaqueta,Spanish,Sounds/spa_chaqueta.mp3,2020-06-24_17h57.42.669,TranslationElicitation_eng-prolific-spa,3.2.4,Win32,60,5e642125757e611ae1a52811,,,,,,,
,,,,,,,,,,,,,,,,,,,,,,,,,,,,,,,,,,,,,,,,,,c,2.251999855,C,FALSE,1,0,5,1,1,4,30,corona,Spanish,Sounds/spa_corona.mp3,2020-06-24_17h57.42.669,TranslationElicitation_eng-prolific-spa,3.2.4,Win32,60,5e642125757e611ae1a52811,,,,,,,
,,,,,,,,,,,,,,,,,,,,,,,,,,,,,,,,,,,,,,,,,,o,2.40199995,CO,FALSE,1,0,5,1,1,4,30,corona,Spanish,Sounds/spa_corona.mp3,2020-06-24_17h57.42.669,TranslationElicitation_eng-prolific-spa,3.2.4,Win32,60,5e642125757e611ae1a52811,,,,,,,
,,,,,,,,,,,,,,,,,,,,,,,,,,,,,,,,,,,,,,,,,,r,2.518999815,COR,FALSE,1,0,5,1,1,4,30,corona,Spanish,Sounds/spa_corona.mp3,2020-06-24_17h57.42.669,TranslationElicitation_eng-prolific-spa,3.2.4,Win32,60,5e642125757e611ae1a52811,,,,,,,
,,,,,,,,,,,,,,,,,,,,,,,,,,,,,,,,,,,,,,,,,,o,2.635999918,CORO,FALSE,1,0,5,1,1,4,30,corona,Spanish,Sounds/spa_corona.mp3,2020-06-24_17h57.42.669,TranslationElicitation_eng-prolific-spa,3.2.4,Win32,60,5e642125757e611ae1a52811,,,,,,,
,,,,,,,,,,,,,,,,,,,,,,,,,,,,,,,,,,,,,,,,,,n,2.68599987,CORON,FALSE,1,0,5,1,1,4,30,corona,Spanish,Sounds/spa_corona.mp3,2020-06-24_17h57.42.669,TranslationElicitation_eng-prolific-spa,3.2.4,Win32,60,5e642125757e611ae1a52811,,,,,,,
,,,,,,,,,,,,,,,,,,,,,,,,,,,,,,,,,,,,,,,,,,a,2.753000021,CORONA,FALSE,1,0,5,1,1,4,30,corona,Spanish,Sounds/spa_corona.mp3,2020-06-24_17h57.42.669,TranslationElicitation_eng-prolific-spa,3.2.4,Win32,60,5e642125757e611ae1a52811,,,,,,,
,,,,,,,,,,,,,,,,,,,,,,,,,,,,,,,,,,,,,,,,,,return,2.902999878,CORONA,FALSE,1,0,5,1,1,4,30,corona,Spanish,Sounds/spa_corona.mp3,2020-06-24_17h57.42.669,TranslationElicitation_eng-prolific-spa,3.2.4,Win32,60,5e642125757e611ae1a52811,2.902999878,,,,,,
,,,,,,,,,,,,,,,,,,,,,,,,,,,,,,,,,,,,,,,,,,,,,,1,0,5,1,1,4,30,corona,Spanish,Sounds/spa_corona.mp3,2020-06-24_17h57.42.669,TranslationElicitation_eng-prolific-spa,3.2.4,Win32,60,5e642125757e611ae1a52811,,,,,,,
,,,,,,,,,,,,,,,,,,,,,,,,,,,,,,,,,,,,,,,,,,c,2.519000053,C,FALSE,,,,,,,20,caracol,Spanish,Sounds/spa_caracol.mp3,2020-06-24_17h57.42.669,TranslationElicitation_eng-prolific-spa,3.2.4,Win32,60,5e642125757e611ae1a52811,,1,0,98,18,1,97
,,,,,,,,,,,,,,,,,,,,,,,,,,,,,,,,,,,,,,,,,,a,2.636000156,CA,FALSE,,,,,,,20,caracol,Spanish,Sounds/spa_caracol.mp3,2020-06-24_17h57.42.669,TranslationElicitation_eng-prolific-spa,3.2.4,Win32,60,5e642125757e611ae1a52811,,1,0,98,18,1,97
,,,,,,,,,,,,,,,,,,,,,,,,,,,,,,,,,,,,,,,,,,t,2.752000093,CAT,FALSE,,,,,,,20,caracol,Spanish,Sounds/spa_caracol.mp3,2020-06-24_17h57.42.669,TranslationElicitation_eng-prolific-spa,3.2.4,Win32,60,5e642125757e611ae1a52811,,1,0,98,18,1,97
,,,,,,,,,,,,,,,,,,,,,,,,,,,,,,,,,,,,,,,,,,a,2.868999958,CATA,FALSE,,,,,,,20,caracol,Spanish,Sounds/spa_caracol.mp3,2020-06-24_17h57.42.669,TranslationElicitation_eng-prolific-spa,3.2.4,Win32,60,5e642125757e611ae1a52811,,1,0,98,18,1,97
,,,,,,,,,,,,,,,,,,,,,,,,,,,,,,,,,,,,,,,,,,c,3.069000006,CATAC,FALSE,,,,,,,20,caracol,Spanish,Sounds/spa_caracol.mp3,2020-06-24_17h57.42.669,TranslationElicitation_eng-prolific-spa,3.2.4,Win32,60,5e642125757e611ae1a52811,,1,0,98,18,1,97
,,,,,,,,,,,,,,,,,,,,,,,,,,,,,,,,,,,,,,,,,,o,3.169000149,CATACO,FALSE,,,,,,,20,caracol,Spanish,Sounds/spa_caracol.mp3,2020-06-24_17h57.42.669,TranslationElicitation_eng-prolific-spa,3.2.4,Win32,60,5e642125757e611ae1a52811,,1,0,98,18,1,97
,,,,,,,,,,,,,,,,,,,,,,,,,,,,,,,,,,,,,,,,,,m,3.219000101,CATACOM,FALSE,,,,,,,20,caracol,Spanish,Sounds/spa_caracol.mp3,2020-06-24_17h57.42.669,TranslationElicitation_eng-prolific-spa,3.2.4,Win32,60,5e642125757e611ae1a52811,,1,0,98,18,1,97
,,,,,,,,,,,,,,,,,,,,,,,,,,,,,,,,,,,,,,,,,,b,3.286000013,CATACOMB,FALSE,,,,,,,20,caracol,Spanish,Sounds/spa_caracol.mp3,2020-06-24_17h57.42.669,TranslationElicitation_eng-prolific-spa,3.2.4,Win32,60,5e642125757e611ae1a52811,,1,0,98,18,1,97
,,,,,,,,,,,,,,,,,,,,,,,,,,,,,,,,,,,,,,,,,,return,3.436000109,CATACOMB,FALSE,,,,,,,20,caracol,Spanish,Sounds/spa_caracol.mp3,2020-06-24_17h57.42.669,TranslationElicitation_eng-prolific-spa,3.2.4,Win32,60,5e642125757e611ae1a52811,3.436000109,1,0,98,18,1,97
,,,,,,,,,,,,,,,,,,,,,,,,,,,,,,,,,,,,,,,,,,,,,,,,,,,,20,caracol,Spanish,Sounds/spa_caracol.mp3,2020-06-24_17h57.42.669,TranslationElicitation_eng-prolific-spa,3.2.4,Win32,60,5e642125757e611ae1a52811,,1,0,98,18,1,97
,,,,,,,,,,,,,,,,,,,,,,,,,,,,,,,,,,,,,,,,,,l,2.019000053,L,FALSE,,,,,,,55,leon,Spanish,Sounds/spa_leon.mp3,2020-06-24_17h57.42.669,TranslationElicitation_eng-prolific-spa,3.2.4,Win32,60,5e642125757e611ae1a52811,,1,0,98,51,1,97
,,,,,,,,,,,,,,,,,,,,,,,,,,,,,,,,,,,,,,,,,,e,2.135999918,LE,FALSE,,,,,,,55,leon,Spanish,Sounds/spa_leon.mp3,2020-06-24_17h57.42.669,TranslationElicitation_eng-prolific-spa,3.2.4,Win32,60,5e642125757e611ae1a52811,,1,0,98,51,1,97
,,,,,,,,,,,,,,,,,,,,,,,,,,,,,,,,,,,,,,,,,,o,2.236000061,LEO,FALSE,,,,,,,55,leon,Spanish,Sounds/spa_leon.mp3,2020-06-24_17h57.42.669,TranslationElicitation_eng-prolific-spa,3.2.4,Win32,60,5e642125757e611ae1a52811,,1,0,98,51,1,97
,,,,,,,,,,,,,,,,,,,,,,,,,,,,,,,,,,,,,,,,,,n,2.302999973,LEON,FALSE,,,,,,,55,leon,Spanish,Sounds/spa_leon.mp3,2020-06-24_17h57.42.669,TranslationElicitation_eng-prolific-spa,3.2.4,Win32,60,5e642125757e611ae1a52811,,1,0,98,51,1,97
,,,,,,,,,,,,,,,,,,,,,,,,,,,,,,,,,,,,,,,,,,return,2.506999969,LEON,FALSE,,,,,,,55,leon,Spanish,Sounds/spa_leon.mp3,2020-06-24_17h57.42.669,TranslationElicitation_eng-prolific-spa,3.2.4,Win32,60,5e642125757e611ae1a52811,2.506999969,1,0,98,51,1,97
,,,,,,,,,,,,,,,,,,,,,,,,,,,,,,,,,,,,,,,,,,,,,,,,,,,,55,leon,Spanish,Sounds/spa_leon.mp3,2020-06-24_17h57.42.669,TranslationElicitation_eng-prolific-spa,3.2.4,Win32,60,5e642125757e611ae1a52811,,1,0,98,51,1,97
,,,,,,,,,,,,,,,,,,,,,,,,,,,,,,,,,,,,,,,,,,c,2.035000086,C,FALSE,,,,,,,90,pollo,Spanish,Sounds/spa_pollo.mp3,2020-06-24_17h57.42.669,TranslationElicitation_eng-prolific-spa,3.2.4,Win32,60,5e642125757e611ae1a52811,,1,0,98,85,1,97
,,,,,,,,,,,,,,,,,,,,,,,,,,,,,,,,,,,,,,,,,,h,2.13499999,CH,FALSE,,,,,,,90,pollo,Spanish,Sounds/spa_pollo.mp3,2020-06-24_17h57.42.669,TranslationElicitation_eng-prolific-spa,3.2.4,Win32,60,5e642125757e611ae1a52811,,1,0,98,85,1,97
,,,,,,,,,,,,,,,,,,,,,,,,,,,,,,,,,,,,,,,,,,i,2.169000149,CHI,FALSE,,,,,,,90,pollo,Spanish,Sounds/spa_pollo.mp3,2020-06-24_17h57.42.669,TranslationElicitation_eng-prolific-spa,3.2.4,Win32,60,5e642125757e611ae1a52811,,1,0,98,85,1,97
,,,,,,,,,,,,,,,,,,,,,,,,,,,,,,,,,,,,,,,,,,c,2.286000013,CHIC,FALSE,,,,,,,90,pollo,Spanish,Sounds/spa_pollo.mp3,2020-06-24_17h57.42.669,TranslationElicitation_eng-prolific-spa,3.2.4,Win32,60,5e642125757e611ae1a52811,,1,0,98,85,1,97
,,,,,,,,,,,,,,,,,,,,,,,,,,,,,,,,,,,,,,,,,,k,2.369000196,CHICK,FALSE,,,,,,,90,pollo,Spanish,Sounds/spa_pollo.mp3,2020-06-24_17h57.42.669,TranslationElicitation_eng-prolific-spa,3.2.4,Win32,60,5e642125757e611ae1a52811,,1,0,98,85,1,97
,,,,,,,,,,,,,,,,,,,,,,,,,,,,,,,,,,,,,,,,,,e,2.452000141,CHICKE,FALSE,,,,,,,90,pollo,Spanish,Sounds/spa_pollo.mp3,2020-06-24_17h57.42.669,TranslationElicitation_eng-prolific-spa,3.2.4,Win32,60,5e642125757e611ae1a52811,,1,0,98,85,1,97
,,,,,,,,,,,,,,,,,,,,,,,,,,,,,,,,,,,,,,,,,,n,2.536000013,CHICKEN,FALSE,,,,,,,90,pollo,Spanish,Sounds/spa_pollo.mp3,2020-06-24_17h57.42.669,TranslationElicitation_eng-prolific-spa,3.2.4,Win32,60,5e642125757e611ae1a52811,,1,0,98,85,1,97
,,,,,,,,,,,,,,,,,,,,,,,,,,,,,,,,,,,,,,,,,,return,2.719000101,CHICKEN,FALSE,,,,,,,90,pollo,Spanish,Sounds/spa_pollo.mp3,2020-06-24_17h57.42.669,TranslationElicitation_eng-prolific-spa,3.2.4,Win32,60,5e642125757e611ae1a52811,2.719000101,1,0,98,85,1,97
,,,,,,,,,,,,,,,,,,,,,,,,,,,,,,,,,,,,,,,,,,,,,,,,,,,,90,pollo,Spanish,Sounds/spa_pollo.mp3,2020-06-24_17h57.42.669,TranslationElicitation_eng-prolific-spa,3.2.4,Win32,60,5e642125757e611ae1a52811,,1,0,98,85,1,97
,,,,,,,,,,,,,,,,,,,,,,,,,,,,,,,,,,,,,,,,,,d,2.820000172,D,FALSE,,,,,,,84,pie,Spanish,Sounds/spa_pie.mp3,2020-06-24_17h57.42.669,TranslationElicitation_eng-prolific-spa,3.2.4,Win32,60,5e642125757e611ae1a52811,,1,0,98,79,1,97
,,,,,,,,,,,,,,,,,,,,,,,,,,,,,,,,,,,,,,,,,,a,2.903000116,DA,FALSE,,,,,,,84,pie,Spanish,Sounds/spa_pie.mp3,2020-06-24_17h57.42.669,TranslationElicitation_eng-prolific-spa,3.2.4,Win32,60,5e642125757e611ae1a52811,,1,0,98,79,1,97
,,,,,,,,,,,,,,,,,,,,,,,,,,,,,,,,,,,,,,,,,,y,3.036999941,DAY,FALSE,,,,,,,84,pie,Spanish,Sounds/spa_pie.mp3,2020-06-24_17h57.42.669,TranslationElicitation_eng-prolific-spa,3.2.4,Win32,60,5e642125757e611ae1a52811,,1,0,98,79,1,97
,,,,,,,,,,,,,,,,,,,,,,,,,,,,,,,,,,,,,,,,,,return,3.154000044,DAY,FALSE,,,,,,,84,pie,Spanish,Sounds/spa_pie.mp3,2020-06-24_17h57.42.669,TranslationElicitation_eng-prolific-spa,3.2.4,Win32,60,5e642125757e611ae1a52811,3.154000044,1,0,98,79,1,97
,,,,,,,,,,,,,,,,,,,,,,,,,,,,,,,,,,,,,,,,,,,,,,,,,,,,84,pie,Spanish,Sounds/spa_pie.mp3,2020-06-24_17h57.42.669,TranslationElicitation_eng-prolific-spa,3.2.4,Win32,60,5e642125757e611ae1a52811,,1,0,98,79,1,97
,,,,,,,,,,,,,,,,,,,,,,,,,,,,,,,,,,,,,,,,,,p,1.468000174,P,FALSE,,,,,,,10,botella,Spanish,Sounds/spa_botella.mp3,2020-06-24_17h57.42.669,TranslationElicitation_eng-prolific-spa,3.2.4,Win32,60,5e642125757e611ae1a52811,,1,0,98,8,1,97
,,,,,,,,,,,,,,,,,,,,,,,,,,,,,,,,,,,,,,,,,,o,1.634000063,PO,FALSE,,,,,,,10,botella,Spanish,Sounds/spa_botella.mp3,2020-06-24_17h57.42.669,TranslationElicitation_eng-prolific-spa,3.2.4,Win32,60,5e642125757e611ae1a52811,,1,0,98,8,1,97
,,,,,,,,,,,,,,,,,,,,,,,,,,,,,,,,,,,,,,,,,,t,1.700999975,POT,FALSE,,,,,,,10,botella,Spanish,Sounds/spa_botella.mp3,2020-06-24_17h57.42.669,TranslationElicitation_eng-prolific-spa,3.2.4,Win32,60,5e642125757e611ae1a52811,,1,0,98,8,1,97
,,,,,,,,,,,,,,,,,,,,,,,,,,,,,,,,,,,,,,,,,,a,1.785000086,POTA,FALSE,,,,,,,10,botella,Spanish,Sounds/spa_botella.mp3,2020-06-24_17h57.42.669,TranslationElicitation_eng-prolific-spa,3.2.4,Win32,60,5e642125757e611ae1a52811,,1,0,98,8,1,97
,,,,,,,,,,,,,,,,,,,,,,,,,,,,,,,,,,,,,,,,,,t,1.904000044,POTAT,FALSE,,,,,,,10,botella,Spanish,Sounds/spa_botella.mp3,2020-06-24_17h57.42.669,TranslationElicitation_eng-prolific-spa,3.2.4,Win32,60,5e642125757e611ae1a52811,,1,0,98,8,1,97
,,,,,,,,,,,,,,,,,,,,,,,,,,,,,,,,,,,,,,,,,,o,1.935000181,POTATO,FALSE,,,,,,,10,botella,Spanish,Sounds/spa_botella.mp3,2020-06-24_17h57.42.669,TranslationElicitation_eng-prolific-spa,3.2.4,Win32,60,5e642125757e611ae1a52811,,1,0,98,8,1,97
,,,,,,,,,,,,,,,,,,,,,,,,,,,,,,,,,,,,,,,,,,return,2.13499999,POTATO,FALSE,,,,,,,10,botella,Spanish,Sounds/spa_botella.mp3,2020-06-24_17h57.42.669,TranslationElicitation_eng-prolific-spa,3.2.4,Win32,60,5e642125757e611ae1a52811,2.13499999,1,0,98,8,1,97
,,,,,,,,,,,,,,,,,,,,,,,,,,,,,,,,,,,,,,,,,,,,,,,,,,,,10,botella,Spanish,Sounds/spa_botella.mp3,2020-06-24_17h57.42.669,TranslationElicitation_eng-prolific-spa,3.2.4,Win32,60,5e642125757e611ae1a52811,,1,0,98,8,1,97
,,,,,,,,,,,,,,,,,,,,,,,,,,,,,,,,,,,,,,,,,,c,4.387000084,C,FALSE,,,,,,,18,camisa,Spanish,Sounds/spa_camisa.mp3,2020-06-24_17h57.42.669,TranslationElicitation_eng-prolific-spa,3.2.4,Win32,60,5e642125757e611ae1a52811,,1,0,98,16,1,97
,,,,,,,,,,,,,,,,,,,,,,,,,,,,,,,,,,,,,,,,,,a,4.470000029,CA,FALSE,,,,,,,18,camisa,Spanish,Sounds/spa_camisa.mp3,2020-06-24_17h57.42.669,TranslationElicitation_eng-prolific-spa,3.2.4,Win32,60,5e642125757e611ae1a52811,,1,0,98,16,1,97
,,,,,,,,,,,,,,,,,,,,,,,,,,,,,,,,,,,,,,,,,,m,4.553999901,CAM,FALSE,,,,,,,18,camisa,Spanish,Sounds/spa_camisa.mp3,2020-06-24_17h57.42.669,TranslationElicitation_eng-prolific-spa,3.2.4,Win32,60,5e642125757e611ae1a52811,,1,0,98,16,1,97
,,,,,,,,,,,,,,,,,,,,,,,,,,,,,,,,,,,,,,,,,,i,4.654000044,CAMI,FALSE,,,,,,,18,camisa,Spanish,Sounds/spa_camisa.mp3,2020-06-24_17h57.42.669,TranslationElicitation_eng-prolific-spa,3.2.4,Win32,60,5e642125757e611ae1a52811,,1,0,98,16,1,97
,,,,,,,,,,,,,,,,,,,,,,,,,,,,,,,,,,,,,,,,,,l,4.871000051,CAMIL,FALSE,,,,,,,18,camisa,Spanish,Sounds/spa_camisa.mp3,2020-06-24_17h57.42.669,TranslationElicitation_eng-prolific-spa,3.2.4,Win32,60,5e642125757e611ae1a52811,,1,0,98,16,1,97
,,,,,,,,,,,,,,,,,,,,,,,,,,,,,,,,,,,,,,,,,,l,5.003999949,CAMILL,FALSE,,,,,,,18,camisa,Spanish,Sounds/spa_camisa.mp3,2020-06-24_17h57.42.669,TranslationElicitation_eng-prolific-spa,3.2.4,Win32,60,5e642125757e611ae1a52811,,1,0,98,16,1,97
,,,,,,,,,,,,,,,,,,,,,,,,,,,,,,,,,,,,,,,,,,a,5.086999893,CAMILLA,FALSE,,,,,,,18,camisa,Spanish,Sounds/spa_camisa.mp3,2020-06-24_17h57.42.669,TranslationElicitation_eng-prolific-spa,3.2.4,Win32,60,5e642125757e611ae1a52811,,1,0,98,16,1,97
,,,,,,,,,,,,,,,,,,,,,,,,,,,,,,,,,,,,,,,,,,return,5.288000107,CAMILLA,FALSE,,,,,,,18,camisa,Spanish,Sounds/spa_camisa.mp3,2020-06-24_17h57.42.669,TranslationElicitation_eng-prolific-spa,3.2.4,Win32,60,5e642125757e611ae1a52811,5.288000107,1,0,98,16,1,97
,,,,,,,,,,,,,,,,,,,,,,,,,,,,,,,,,,,,,,,,,,,,,,,,,,,,18,camisa,Spanish,Sounds/spa_camisa.mp3,2020-06-24_17h57.42.669,TranslationElicitation_eng-prolific-spa,3.2.4,Win32,60,5e642125757e611ae1a52811,,1,0,98,16,1,97
,,,,,,,,,,,,,,,,,,,,,,,,,,,,,,,,,,,,,,,,,,p,2.184999943,P,FALSE,,,,,,,88,plato,Spanish,Sounds/spa_plato.mp3,2020-06-24_17h57.42.669,TranslationElicitation_eng-prolific-spa,3.2.4,Win32,60,5e642125757e611ae1a52811,,1,0,98,83,1,97
,,,,,,,,,,,,,,,,,,,,,,,,,,,,,,,,,,,,,,,,,,a,2.38499999,PA,FALSE,,,,,,,88,plato,Spanish,Sounds/spa_plato.mp3,2020-06-24_17h57.42.669,TranslationElicitation_eng-prolific-spa,3.2.4,Win32,60,5e642125757e611ae1a52811,,1,0,98,83,1,97
,,,,,,,,,,,,,,,,,,,,,,,,,,,,,,,,,,,,,,,,,,n,2.601999998,PAN,FALSE,,,,,,,88,plato,Spanish,Sounds/spa_plato.mp3,2020-06-24_17h57.42.669,TranslationElicitation_eng-prolific-spa,3.2.4,Win32,60,5e642125757e611ae1a52811,,1,0,98,83,1,97
,,,,,,,,,,,,,,,,,,,,,,,,,,,,,,,,,,,,,,,,,,backspace,2.953000069,PA,TRUE,,,,,,,88,plato,Spanish,Sounds/spa_plato.mp3,2020-06-24_17h57.42.669,TranslationElicitation_eng-prolific-spa,3.2.4,Win32,60,5e642125757e611ae1a52811,,1,0,98,83,1,97
,,,,,,,,,,,,,,,,,,,,,,,,,,,,,,,,,,,,,,,,,,backspace,3.085999966,P,TRUE,,,,,,,88,plato,Spanish,Sounds/spa_plato.mp3,2020-06-24_17h57.42.669,TranslationElicitation_eng-prolific-spa,3.2.4,Win32,60,5e642125757e611ae1a52811,,1,0,98,83,1,97
,,,,,,,,,,,,,,,,,,,,,,,,,,,,,,,,,,,,,,,,,,l,3.352999926,PL,TRUE,,,,,,,88,plato,Spanish,Sounds/spa_plato.mp3,2020-06-24_17h57.42.669,TranslationElicitation_eng-prolific-spa,3.2.4,Win32,60,5e642125757e611ae1a52811,,1,0,98,83,1,97
,,,,,,,,,,,,,,,,,,,,,,,,,,,,,,,,,,,,,,,,,,a,3.43599987,PLA,TRUE,,,,,,,88,plato,Spanish,Sounds/spa_plato.mp3,2020-06-24_17h57.42.669,TranslationElicitation_eng-prolific-spa,3.2.4,Win32,60,5e642125757e611ae1a52811,,1,0,98,83,1,97
,,,,,,,,,,,,,,,,,,,,,,,,,,,,,,,,,,,,,,,,,,n,3.519999981,PLAN,TRUE,,,,,,,88,plato,Spanish,Sounds/spa_plato.mp3,2020-06-24_17h57.42.669,TranslationElicitation_eng-prolific-spa,3.2.4,Win32,60,5e642125757e611ae1a52811,,1,0,98,83,1,97
,,,,,,,,,,,,,,,,,,,,,,,,,,,,,,,,,,,,,,,,,,e,3.619999886,PLANE,TRUE,,,,,,,88,plato,Spanish,Sounds/spa_plato.mp3,2020-06-24_17h57.42.669,TranslationElicitation_eng-prolific-spa,3.2.4,Win32,60,5e642125757e611ae1a52811,,1,0,98,83,1,97
,,,,,,,,,,,,,,,,,,,,,,,,,,,,,,,,,,,,,,,,,,t,3.687000036,PLANET,TRUE,,,,,,,88,plato,Spanish,Sounds/spa_plato.mp3,2020-06-24_17h57.42.669,TranslationElicitation_eng-prolific-spa,3.2.4,Win32,60,5e642125757e611ae1a52811,,1,0,98,83,1,97
,,,,,,,,,,,,,,,,,,,,,,,,,,,,,,,,,,,,,,,,,,return,3.786999941,PLANET,TRUE,,,,,,,88,plato,Spanish,Sounds/spa_plato.mp3,2020-06-24_17h57.42.669,TranslationElicitation_eng-prolific-spa,3.2.4,Win32,60,5e642125757e611ae1a52811,3.786999941,1,0,98,83,1,97
,,,,,,,,,,,,,,,,,,,,,,,,,,,,,,,,,,,,,,,,,,,,,,,,,,,,88,plato,Spanish,Sounds/spa_plato.mp3,2020-06-24_17h57.42.669,TranslationElicitation_eng-prolific-spa,3.2.4,Win32,60,5e642125757e611ae1a52811,,1,0,98,83,1,97
,,,,,,,,,,,,,,,,,,,,,,,,,,,,,,,,,,,,,,,,,,o,2.369000196,O,FALSE,,,,,,,71,ombligo,Spanish,Sounds/spa_ombligo.mp3,2020-06-24_17h57.42.669,TranslationElicitation_eng-prolific-spa,3.2.4,Win32,60,5e642125757e611ae1a52811,,1,0,98,66,1,97
,,,,,,,,,,,,,,,,,,,,,,,,,,,,,,,,,,,,,,,,,,m,2.402000189,OM,FALSE,,,,,,,71,ombligo,Spanish,Sounds/spa_ombligo.mp3,2020-06-24_17h57.42.669,TranslationElicitation_eng-prolific-spa,3.2.4,Win32,60,5e642125757e611ae1a52811,,1,0,98,66,1,97
,,,,,,,,,,,,,,,,,,,,,,,,,,,,,,,,,,,,,,,,,,n,2.59100008,OMN,FALSE,,,,,,,71,ombligo,Spanish,Sounds/spa_ombligo.mp3,2020-06-24_17h57.42.669,TranslationElicitation_eng-prolific-spa,3.2.4,Win32,60,5e642125757e611ae1a52811,,1,0,98,66,1,97
,,,,,,,,,,,,,,,,,,,,,,,,,,,,,,,,,,,,,,,,,,i,2.619000196,OMNI,FALSE,,,,,,,71,ombligo,Spanish,Sounds/spa_ombligo.mp3,2020-06-24_17h57.42.669,TranslationElicitation_eng-prolific-spa,3.2.4,Win32,60,5e642125757e611ae1a52811,,1,0,98,66,1,97
,,,,,,,,,,,,,,,,,,,,,,,,,,,,,,,,,,,,,,,,,,v,2.736000061,OMNIV,FALSE,,,,,,,71,ombligo,Spanish,Sounds/spa_ombligo.mp3,2020-06-24_17h57.42.669,TranslationElicitation_eng-prolific-spa,3.2.4,Win32,60,5e642125757e611ae1a52811,,1,0,98,66,1,97
,,,,,,,,,,,,,,,,,,,,,,,,,,,,,,,,,,,,,,,,,,o,2.819000006,OMNIVO,FALSE,,,,,,,71,ombligo,Spanish,Sounds/spa_ombligo.mp3,2020-06-24_17h57.42.669,TranslationElicitation_eng-prolific-spa,3.2.4,Win32,60,5e642125757e611ae1a52811,,1,0,98,66,1,97
,,,,,,,,,,,,,,,,,,,,,,,,,,,,,,,,,,,,,,,,,,r,2.919000149,OMNIVOR,FALSE,,,,,,,71,ombligo,Spanish,Sounds/spa_ombligo.mp3,2020-06-24_17h57.42.669,TranslationElicitation_eng-prolific-spa,3.2.4,Win32,60,5e642125757e611ae1a52811,,1,0,98,66,1,97
,,,,,,,,,,,,,,,,,,,,,,,,,,,,,,,,,,,,,,,,,,e,3.019999981,OMNIVORE,FALSE,,,,,,,71,ombligo,Spanish,Sounds/spa_ombligo.mp3,2020-06-24_17h57.42.669,TranslationElicitation_eng-prolific-spa,3.2.4,Win32,60,5e642125757e611ae1a52811,,1,0,98,66,1,97
,,,,,,,,,,,,,,,,,,,,,,,,,,,,,,,,,,,,,,,,,,return,3.069000006,OMNIVORE,FALSE,,,,,,,71,ombligo,Spanish,Sounds/spa_ombligo.mp3,2020-06-24_17h57.42.669,TranslationElicitation_eng-prolific-spa,3.2.4,Win32,60,5e642125757e611ae1a52811,3.069000006,1,0,98,66,1,97
,,,,,,,,,,,,,,,,,,,,,,,,,,,,,,,,,,,,,,,,,,,,,,,,,,,,71,ombligo,Spanish,Sounds/spa_ombligo.mp3,2020-06-24_17h57.42.669,TranslationElicitation_eng-prolific-spa,3.2.4,Win32,60,5e642125757e611ae1a52811,,1,0,98,66,1,97
,,,,,,,,,,,,,,,,,,,,,,,,,,,,,,,,,,,,,,,,,,m,1.734999895,M,FALSE,,,,,,,62,martillo,Spanish,Sounds/spa_martillo.mp3,2020-06-24_17h57.42.669,TranslationElicitation_eng-prolific-spa,3.2.4,Win32,60,5e642125757e611ae1a52811,,1,0,98,58,1,97
,,,,,,,,,,,,,,,,,,,,,,,,,,,,,,,,,,,,,,,,,,a,1.868000031,MA,FALSE,,,,,,,62,martillo,Spanish,Sounds/spa_martillo.mp3,2020-06-24_17h57.42.669,TranslationElicitation_eng-prolific-spa,3.2.4,Win32,60,5e642125757e611ae1a52811,,1,0,98,58,1,97
,,,,,,,,,,,,,,,,,,,,,,,,,,,,,,,,,,,,,,,,,,r,1.984999895,MAR,FALSE,,,,,,,62,martillo,Spanish,Sounds/spa_martillo.mp3,2020-06-24_17h57.42.669,TranslationElicitation_eng-prolific-spa,3.2.4,Win32,60,5e642125757e611ae1a52811,,1,0,98,58,1,97
,,,,,,,,,,,,,,,,,,,,,,,,,,,,,,,,,,,,,,,,,,t,2.569999933,MART,FALSE,,,,,,,62,martillo,Spanish,Sounds/spa_martillo.mp3,2020-06-24_17h57.42.669,TranslationElicitation_eng-prolific-spa,3.2.4,Win32,60,5e642125757e611ae1a52811,,1,0,98,58,1,97
,,,,,,,,,,,,,,,,,,,,,,,,,,,,,,,,,,,,,,,,,,i,2.686000109,MARTI,FALSE,,,,,,,62,martillo,Spanish,Sounds/spa_martillo.mp3,2020-06-24_17h57.42.669,TranslationElicitation_eng-prolific-spa,3.2.4,Win32,60,5e642125757e611ae1a52811,,1,0,98,58,1,97
,,,,,,,,,,,,,,,,,,,,,,,,,,,,,,,,,,,,,,,,,,n,2.769000053,MARTIN,FALSE,,,,,,,62,martillo,Spanish,Sounds/spa_martillo.mp3,2020-06-24_17h57.42.669,TranslationElicitation_eng-prolific-spa,3.2.4,Win32,60,5e642125757e611ae1a52811,,1,0,98,58,1,97
,,,,,,,,,,,,,,,,,,,,,,,,,,,,,,,,,,,,,,,,,,i,2.885999918,MARTINI,FALSE,,,,,,,62,martillo,Spanish,Sounds/spa_martillo.mp3,2020-06-24_17h57.42.669,TranslationElicitation_eng-prolific-spa,3.2.4,Win32,60,5e642125757e611ae1a52811,,1,0,98,58,1,97
,,,,,,,,,,,,,,,,,,,,,,,,,,,,,,,,,,,,,,,,,,return,3.135999918,MARTINI,FALSE,,,,,,,62,martillo,Spanish,Sounds/spa_martillo.mp3,2020-06-24_17h57.42.669,TranslationElicitation_eng-prolific-spa,3.2.4,Win32,60,5e642125757e611ae1a52811,3.135999918,1,0,98,58,1,97
,,,,,,,,,,,,,,,,,,,,,,,,,,,,,,,,,,,,,,,,,,,,,,,,,,,,62,martillo,Spanish,Sounds/spa_martillo.mp3,2020-06-24_17h57.42.669,TranslationElicitation_eng-prolific-spa,3.2.4,Win32,60,5e642125757e611ae1a52811,,1,0,98,58,1,97
,,,,,,,,,,,,,,,,,,,,,,,,,,,,,,,,,,,,,,,,,,o,6.088999987,O,FALSE,,,,,,,49,hormiga,Spanish,Sounds/spa_hormiga.mp3,2020-06-24_17h57.42.669,TranslationElicitation_eng-prolific-spa,3.2.4,Win32,60,5e642125757e611ae1a52811,,1,0,98,45,1,97
,,,,,,,,,,,,,,,,,,,,,,,,,,,,,,,,,,,,,,,,,,r,6.422999859,OR,FALSE,,,,,,,49,hormiga,Spanish,Sounds/spa_hormiga.mp3,2020-06-24_17h57.42.669,TranslationElicitation_eng-prolific-spa,3.2.4,Win32,60,5e642125757e611ae1a52811,,1,0,98,45,1,97
,,,,,,,,,,,,,,,,,,,,,,,,,,,,,,,,,,,,,,,,,,return,6.639999866,OR,FALSE,,,,,,,49,hormiga,Spanish,Sounds/spa_hormiga.mp3,2020-06-24_17h57.42.669,TranslationElicitation_eng-prolific-spa,3.2.4,Win32,60,5e642125757e611ae1a52811,6.639999866,1,0,98,45,1,97
,,,,,,,,,,,,,,,,,,,,,,,,,,,,,,,,,,,,,,,,,,,,,,,,,,,,49,hormiga,Spanish,Sounds/spa_hormiga.mp3,2020-06-24_17h57.42.669,TranslationElicitation_eng-prolific-spa,3.2.4,Win32,60,5e642125757e611ae1a52811,,1,0,98,45,1,97
,,,,,,,,,,,,,,,,,,,,,,,,,,,,,,,,,,,,,,,,,,o,2.43599987,O,FALSE,,,,,,,6,boca,Spanish,Sounds/spa_boca.mp3,2020-06-24_17h57.42.669,TranslationElicitation_eng-prolific-spa,3.2.4,Win32,60,5e642125757e611ae1a52811,,1,0,98,4,1,97
,,,,,,,,,,,,,,,,,,,,,,,,,,,,,,,,,,,,,,,,,,backspace,2.802999973,,TRUE,,,,,,,6,boca,Spanish,Sounds/spa_boca.mp3,2020-06-24_17h57.42.669,TranslationElicitation_eng-prolific-spa,3.2.4,Win32,60,5e642125757e611ae1a52811,,1,0,98,4,1,97
,,,,,,,,,,,,,,,,,,,,,,,,,,,,,,,,,,,,,,,,,,b,2.93599987,B,TRUE,,,,,,,6,boca,Spanish,Sounds/spa_boca.mp3,2020-06-24_17h57.42.669,TranslationElicitation_eng-prolific-spa,3.2.4,Win32,60,5e642125757e611ae1a52811,,1,0,98,4,1,97
,,,,,,,,,,,,,,,,,,,,,,,,,,,,,,,,,,,,,,,,,,o,3.035999775,BO,TRUE,,,,,,,6,boca,Spanish,Sounds/spa_boca.mp3,2020-06-24_17h57.42.669,TranslationElicitation_eng-prolific-spa,3.2.4,Win32,60,5e642125757e611ae1a52811,,1,0,98,4,1,97
,,,,,,,,,,,,,,,,,,,,,,,,,,,,,,,,,,,,,,,,,,o,3.236999989,BOO,TRUE,,,,,,,6,boca,Spanish,Sounds/spa_boca.mp3,2020-06-24_17h57.42.669,TranslationElicitation_eng-prolific-spa,3.2.4,Win32,60,5e642125757e611ae1a52811,,1,0,98,4,1,97
,,,,,,,,,,,,,,,,,,,,,,,,,,,,,,,,,,,,,,,,,,k,3.286999941,BOOK,TRUE,,,,,,,6,boca,Spanish,Sounds/spa_boca.mp3,2020-06-24_17h57.42.669,TranslationElicitation_eng-prolific-spa,3.2.4,Win32,60,5e642125757e611ae1a52811,,1,0,98,4,1,97
,,,,,,,,,,,,,,,,,,,,,,,,,,,,,,,,,,,,,,,,,,return,3.519999981,BOOK,TRUE,,,,,,,6,boca,Spanish,Sounds/spa_boca.mp3,2020-06-24_17h57.42.669,TranslationElicitation_eng-prolific-spa,3.2.4,Win32,60,5e642125757e611ae1a52811,3.519999981,1,0,98,4,1,97
,,,,,,,,,,,,,,,,,,,,,,,,,,,,,,,,,,,,,,,,,,,,,,,,,,,,6,boca,Spanish,Sounds/spa_boca.mp3,2020-06-24_17h57.42.669,TranslationElicitation_eng-prolific-spa,3.2.4,Win32,60,5e642125757e611ae1a52811,,1,0,98,4,1,97
,,,,,,,,,,,,,,,,,,,,,,,,,,,,,,,,,,,,,,,,,,b,2.118999958,B,FALSE,,,,,,,13,buho,Spanish,Sounds/spa_buho.mp3,2020-06-24_17h57.42.669,TranslationElicitation_eng-prolific-spa,3.2.4,Win32,60,5e642125757e611ae1a52811,,1,0,98,11,1,97
,,,,,,,,,,,,,,,,,,,,,,,,,,,,,,,,,,,,,,,,,,o,2.335999966,BO,FALSE,,,,,,,13,buho,Spanish,Sounds/spa_buho.mp3,2020-06-24_17h57.42.669,TranslationElicitation_eng-prolific-spa,3.2.4,Win32,60,5e642125757e611ae1a52811,,1,0,98,11,1,97
,,,,,,,,,,,,,,,,,,,,,,,,,,,,,,,,,,,,,,,,,,w,2.720000029,BOW,FALSE,,,,,,,13,buho,Spanish,Sounds/spa_buho.mp3,2020-06-24_17h57.42.669,TranslationElicitation_eng-prolific-spa,3.2.4,Win32,60,5e642125757e611ae1a52811,,1,0,98,11,1,97
,,,,,,,,,,,,,,,,,,,,,,,,,,,,,,,,,,,,,,,,,,return,2.920000076,BOW,FALSE,,,,,,,13,buho,Spanish,Sounds/spa_buho.mp3,2020-06-24_17h57.42.669,TranslationElicitation_eng-prolific-spa,3.2.4,Win32,60,5e642125757e611ae1a52811,2.920000076,1,0,98,11,1,97
,,,,,,,,,,,,,,,,,,,,,,,,,,,,,,,,,,,,,,,,,,,,,,,,,,,,13,buho,Spanish,Sounds/spa_buho.mp3,2020-06-24_17h57.42.669,TranslationElicitation_eng-prolific-spa,3.2.4,Win32,60,5e642125757e611ae1a52811,,1,0,98,11,1,97
,,,,,,,,,,,,,,,,,,,,,,,,,,,,,,,,,,,,,,,,,,s,1.818000078,S,FALSE,,,,,,,93,sol,Spanish,Sounds/spa_sol.mp3,2020-06-24_17h57.42.669,TranslationElicitation_eng-prolific-spa,3.2.4,Win32,60,5e642125757e611ae1a52811,,1,0,98,88,1,97
,,,,,,,,,,,,,,,,,,,,,,,,,,,,,,,,,,,,,,,,,,o,1.951999903,SO,FALSE,,,,,,,93,sol,Spanish,Sounds/spa_sol.mp3,2020-06-24_17h57.42.669,TranslationElicitation_eng-prolific-spa,3.2.4,Win32,60,5e642125757e611ae1a52811,,1,0,98,88,1,97
,,,,,,,,,,,,,,,,,,,,,,,,,,,,,,,,,,,,,,,,,,u,2.019000053,SOU,FALSE,,,,,,,93,sol,Spanish,Sounds/spa_sol.mp3,2020-06-24_17h57.42.669,TranslationElicitation_eng-prolific-spa,3.2.4,Win32,60,5e642125757e611ae1a52811,,1,0,98,88,1,97
,,,,,,,,,,,,,,,,,,,,,,,,,,,,,,,,,,,,,,,,,,l,2.13499999,SOUL,FALSE,,,,,,,93,sol,Spanish,Sounds/spa_sol.mp3,2020-06-24_17h57.42.669,TranslationElicitation_eng-prolific-spa,3.2.4,Win32,60,5e642125757e611ae1a52811,,1,0,98,88,1,97
,,,,,,,,,,,,,,,,,,,,,,,,,,,,,,,,,,,,,,,,,,return,2.351999998,SOUL,FALSE,,,,,,,93,sol,Spanish,Sounds/spa_sol.mp3,2020-06-24_17h57.42.669,TranslationElicitation_eng-prolific-spa,3.2.4,Win32,60,5e642125757e611ae1a52811,2.351999998,1,0,98,88,1,97
,,,,,,,,,,,,,,,,,,,,,,,,,,,,,,,,,,,,,,,,,,,,,,,,,,,,93,sol,Spanish,Sounds/spa_sol.mp3,2020-06-24_17h57.42.669,TranslationElicitation_eng-prolific-spa,3.2.4,Win32,60,5e642125757e611ae1a52811,,1,0,98,88,1,97
,,,,,,,,,,,,,,,,,,,,,,,,,,,,,,,,,,,,,,,,,,p,1.969000101,P,FALSE,,,,,,,87,platano,Spanish,Sounds/spa_platano.mp3,2020-06-24_17h57.42.669,TranslationElicitation_eng-prolific-spa,3.2.4,Win32,60,5e642125757e611ae1a52811,,1,0,98,82,1,97
,,,,,,,,,,,,,,,,,,,,,,,,,,,,,,,,,,,,,,,,,,l,2.186000109,PL,FALSE,,,,,,,87,platano,Spanish,Sounds/spa_platano.mp3,2020-06-24_17h57.42.669,TranslationElicitation_eng-prolific-spa,3.2.4,Win32,60,5e642125757e611ae1a52811,,1,0,98,82,1,97
,,,,,,,,,,,,,,,,,,,,,,,,,,,,,,,,,,,,,,,,,,a,3.170000076,PLA,FALSE,,,,,,,87,platano,Spanish,Sounds/spa_platano.mp3,2020-06-24_17h57.42.669,TranslationElicitation_eng-prolific-spa,3.2.4,Win32,60,5e642125757e611ae1a52811,,1,0,98,82,1,97
,,,,,,,,,,,,,,,,,,,,,,,,,,,,,,,,,,,,,,,,,,i,4.071000099,PLAI,FALSE,,,,,,,87,platano,Spanish,Sounds/spa_platano.mp3,2020-06-24_17h57.42.669,TranslationElicitation_eng-prolific-spa,3.2.4,Win32,60,5e642125757e611ae1a52811,,1,0,98,82,1,97
,,,,,,,,,,,,,,,,,,,,,,,,,,,,,,,,,,,,,,,,,,t,4.187999964,PLAIT,FALSE,,,,,,,87,platano,Spanish,Sounds/spa_platano.mp3,2020-06-24_17h57.42.669,TranslationElicitation_eng-prolific-spa,3.2.4,Win32,60,5e642125757e611ae1a52811,,1,0,98,82,1,97
,,,,,,,,,,,,,,,,,,,,,,,,,,,,,,,,,,,,,,,,,,return,4.437999964,PLAIT,FALSE,,,,,,,87,platano,Spanish,Sounds/spa_platano.mp3,2020-06-24_17h57.42.669,TranslationElicitation_eng-prolific-spa,3.2.4,Win32,60,5e642125757e611ae1a52811,4.437999964,1,0,98,82,1,97
,,,,,,,,,,,,,,,,,,,,,,,,,,,,,,,,,,,,,,,,,,,,,,,,,,,,87,platano,Spanish,Sounds/spa_platano.mp3,2020-06-24_17h57.42.669,TranslationElicitation_eng-prolific-spa,3.2.4,Win32,60,5e642125757e611ae1a52811,,1,0,98,82,1,97
,,,,,,,,,,,,,,,,,,,,,,,,,,,,,,,,,,,,,,,,,,g,1.55099988,G,FALSE,,,,,,,46,grifo,Spanish,Sounds/spa_grifo.mp3,2020-06-24_17h57.42.669,TranslationElicitation_eng-prolific-spa,3.2.4,Win32,60,5e642125757e611ae1a52811,,1,0,98,42,1,97
,,,,,,,,,,,,,,,,,,,,,,,,,,,,,,,,,,,,,,,,,,r,1.80099988,GR,FALSE,,,,,,,46,grifo,Spanish,Sounds/spa_grifo.mp3,2020-06-24_17h57.42.669,TranslationElicitation_eng-prolific-spa,3.2.4,Win32,60,5e642125757e611ae1a52811,,1,0,98,42,1,97
,,,,,,,,,,,,,,,,,,,,,,,,,,,,,,,,,,,,,,,,,,i,1.901000023,GRI,FALSE,,,,,,,46,grifo,Spanish,Sounds/spa_grifo.mp3,2020-06-24_17h57.42.669,TranslationElicitation_eng-prolific-spa,3.2.4,Win32,60,5e642125757e611ae1a52811,,1,0,98,42,1,97
,,,,,,,,,,,,,,,,,,,,,,,,,,,,,,,,,,,,,,,,,,e,1.983999968,GRIE,FALSE,,,,,,,46,grifo,Spanish,Sounds/spa_grifo.mp3,2020-06-24_17h57.42.669,TranslationElicitation_eng-prolific-spa,3.2.4,Win32,60,5e642125757e611ae1a52811,,1,0,98,42,1,97
,,,,,,,,,,,,,,,,,,,,,,,,,,,,,,,,,,,,,,,,,,f,2.03399992,GRIEF,FALSE,,,,,,,46,grifo,Spanish,Sounds/spa_grifo.mp3,2020-06-24_17h57.42.669,TranslationElicitation_eng-prolific-spa,3.2.4,Win32,60,5e642125757e611ae1a52811,,1,0,98,42,1,97
,,,,,,,,,,,,,,,,,,,,,,,,,,,,,,,,,,,,,,,,,,return,2.151000023,GRIEF,FALSE,,,,,,,46,grifo,Spanish,Sounds/spa_grifo.mp3,2020-06-24_17h57.42.669,TranslationElicitation_eng-prolific-spa,3.2.4,Win32,60,5e642125757e611ae1a52811,2.151000023,1,0,98,42,1,97
,,,,,,,,,,,,,,,,,,,,,,,,,,,,,,,,,,,,,,,,,,,,,,,,,,,,46,grifo,Spanish,Sounds/spa_grifo.mp3,2020-06-24_17h57.42.669,TranslationElicitation_eng-prolific-spa,3.2.4,Win32,60,5e642125757e611ae1a52811,,1,0,98,42,1,97
,,,,,,,,,,,,,,,,,,,,,,,,,,,,,,,,,,,,,,,,,,c,1.467999935,C,FALSE,,,,,,,27,chocolate,Spanish,Sounds/spa_chocolate.mp3,2020-06-24_17h57.42.669,TranslationElicitation_eng-prolific-spa,3.2.4,Win32,60,5e642125757e611ae1a52811,,1,0,98,24,1,97
,,,,,,,,,,,,,,,,,,,,,,,,,,,,,,,,,,,,,,,,,,h,1.552000046,CH,FALSE,,,,,,,27,chocolate,Spanish,Sounds/spa_chocolate.mp3,2020-06-24_17h57.42.669,TranslationElicitation_eng-prolific-spa,3.2.4,Win32,60,5e642125757e611ae1a52811,,1,0,98,24,1,97
,,,,,,,,,,,,,,,,,,,,,,,,,,,,,,,,,,,,,,,,,,o,1.568000078,CHO,FALSE,,,,,,,27,chocolate,Spanish,Sounds/spa_chocolate.mp3,2020-06-24_17h57.42.669,TranslationElicitation_eng-prolific-spa,3.2.4,Win32,60,5e642125757e611ae1a52811,,1,0,98,24,1,97
,,,,,,,,,,,,,,,,,,,,,,,,,,,,,,,,,,,,,,,,,,c,1.702000141,CHOC,FALSE,,,,,,,27,chocolate,Spanish,Sounds/spa_chocolate.mp3,2020-06-24_17h57.42.669,TranslationElicitation_eng-prolific-spa,3.2.4,Win32,60,5e642125757e611ae1a52811,,1,0,98,24,1,97
,,,,,,,,,,,,,,,,,,,,,,,,,,,,,,,,,,,,,,,,,,o,1.752000093,CHOCO,FALSE,,,,,,,27,chocolate,Spanish,Sounds/spa_chocolate.mp3,2020-06-24_17h57.42.669,TranslationElicitation_eng-prolific-spa,3.2.4,Win32,60,5e642125757e611ae1a52811,,1,0,98,24,1,97
,,,,,,,,,,,,,,,,,,,,,,,,,,,,,,,,,,,,,,,,,,l,1.934999943,CHOCOL,FALSE,,,,,,,27,chocolate,Spanish,Sounds/spa_chocolate.mp3,2020-06-24_17h57.42.669,TranslationElicitation_eng-prolific-spa,3.2.4,Win32,60,5e642125757e611ae1a52811,,1,0,98,24,1,97
,,,,,,,,,,,,,,,,,,,,,,,,,,,,,,,,,,,,,,,,,,a,2.002000093,CHOCOLA,FALSE,,,,,,,27,chocolate,Spanish,Sounds/spa_chocolate.mp3,2020-06-24_17h57.42.669,TranslationElicitation_eng-prolific-spa,3.2.4,Win32,60,5e642125757e611ae1a52811,,1,0,98,24,1,97
,,,,,,,,,,,,,,,,,,,,,,,,,,,,,,,,,,,,,,,,,,t,2.069000006,CHOCOLAT,FALSE,,,,,,,27,chocolate,Spanish,Sounds/spa_chocolate.mp3,2020-06-24_17h57.42.669,TranslationElicitation_eng-prolific-spa,3.2.4,Win32,60,5e642125757e611ae1a52811,,1,0,98,24,1,97
,,,,,,,,,,,,,,,,,,,,,,,,,,,,,,,,,,,,,,,,,,e,2.118999958,CHOCOLATE,FALSE,,,,,,,27,chocolate,Spanish,Sounds/spa_chocolate.mp3,2020-06-24_17h57.42.669,TranslationElicitation_eng-prolific-spa,3.2.4,Win32,60,5e642125757e611ae1a52811,,1,0,98,24,1,97
,,,,,,,,,,,,,,,,,,,,,,,,,,,,,,,,,,,,,,,,,,return,2.204999924,CHOCOLATE,FALSE,,,,,,,27,chocolate,Spanish,Sounds/spa_chocolate.mp3,2020-06-24_17h57.42.669,TranslationElicitation_eng-prolific-spa,3.2.4,Win32,60,5e642125757e611ae1a52811,2.204999924,1,0,98,24,1,97
,,,,,,,,,,,,,,,,,,,,,,,,,,,,,,,,,,,,,,,,,,,,,,,,,,,,27,chocolate,Spanish,Sounds/spa_chocolate.mp3,2020-06-24_17h57.42.669,TranslationElicitation_eng-prolific-spa,3.2.4,Win32,60,5e642125757e611ae1a52811,,1,0,98,24,1,97
,,,,,,,,,,,,,,,,,,,,,,,,,,,,,,,,,,,,,,,,,,p,4.654000044,P,FALSE,,,,,,,61,mariposa,Spanish,Sounds/spa_mariposa.mp3,2020-06-24_17h57.42.669,TranslationElicitation_eng-prolific-spa,3.2.4,Win32,60,5e642125757e611ae1a52811,,1,0,98,57,1,97
,,,,,,,,,,,,,,,,,,,,,,,,,,,,,,,,,,,,,,,,,,o,4.937999964,PO,FALSE,,,,,,,61,mariposa,Spanish,Sounds/spa_mariposa.mp3,2020-06-24_17h57.42.669,TranslationElicitation_eng-prolific-spa,3.2.4,Win32,60,5e642125757e611ae1a52811,,1,0,98,57,1,97
,,,,,,,,,,,,,,,,,,,,,,,,,,,,,,,,,,,,,,,,,,s,5.154999971,POS,FALSE,,,,,,,61,mariposa,Spanish,Sounds/spa_mariposa.mp3,2020-06-24_17h57.42.669,TranslationElicitation_eng-prolific-spa,3.2.4,Win32,60,5e642125757e611ae1a52811,,1,0,98,57,1,97
,,,,,,,,,,,,,,,,,,,,,,,,,,,,,,,,,,,,,,,,,,e,5.388000011,POSE,FALSE,,,,,,,61,mariposa,Spanish,Sounds/spa_mariposa.mp3,2020-06-24_17h57.42.669,TranslationElicitation_eng-prolific-spa,3.2.4,Win32,60,5e642125757e611ae1a52811,,1,0,98,57,1,97
,,,,,,,,,,,,,,,,,,,,,,,,,,,,,,,,,,,,,,,,,,r,5.472000122,POSER,FALSE,,,,,,,61,mariposa,Spanish,Sounds/spa_mariposa.mp3,2020-06-24_17h57.42.669,TranslationElicitation_eng-prolific-spa,3.2.4,Win32,60,5e642125757e611ae1a52811,,1,0,98,57,1,97
,,,,,,,,,,,,,,,,,,,,,,,,,,,,,,,,,,,,,,,,,,return,5.671999931,POSER,FALSE,,,,,,,61,mariposa,Spanish,Sounds/spa_mariposa.mp3,2020-06-24_17h57.42.669,TranslationElicitation_eng-prolific-spa,3.2.4,Win32,60,5e642125757e611ae1a52811,5.671999931,1,0,98,57,1,97
,,,,,,,,,,,,,,,,,,,,,,,,,,,,,,,,,,,,,,,,,,,,,,,,,,,,61,mariposa,Spanish,Sounds/spa_mariposa.mp3,2020-06-24_17h57.42.669,TranslationElicitation_eng-prolific-spa,3.2.4,Win32,60,5e642125757e611ae1a52811,,1,0,98,57,1,97
,,,,,,,,,,,,,,,,,,,,,,,,,,,,,,,,,,,,,,,,,,p,1.802000046,P,FALSE,,,,,,,86,pingüino,Spanish,Sounds/spa_pinguino.mp3,2020-06-24_17h57.42.669,TranslationElicitation_eng-prolific-spa,3.2.4,Win32,60,5e642125757e611ae1a52811,,1,0,98,81,1,97
,,,,,,,,,,,,,,,,,,,,,,,,,,,,,,,,,,,,,,,,,,e,1.917999983,PE,FALSE,,,,,,,86,pingüino,Spanish,Sounds/spa_pinguino.mp3,2020-06-24_17h57.42.669,TranslationElicitation_eng-prolific-spa,3.2.4,Win32,60,5e642125757e611ae1a52811,,1,0,98,81,1,97
,,,,,,,,,,,,,,,,,,,,,,,,,,,,,,,,,,,,,,,,,,n,2.034999847,PEN,FALSE,,,,,,,86,pingüino,Spanish,Sounds/spa_pinguino.mp3,2020-06-24_17h57.42.669,TranslationElicitation_eng-prolific-spa,3.2.4,Win32,60,5e642125757e611ae1a52811,,1,0,98,81,1,97
,,,,,,,,,,,,,,,,,,,,,,,,,,,,,,,,,,,,,,,,,,g,2.118999958,PENG,FALSE,,,,,,,86,pingüino,Spanish,Sounds/spa_pinguino.mp3,2020-06-24_17h57.42.669,TranslationElicitation_eng-prolific-spa,3.2.4,Win32,60,5e642125757e611ae1a52811,,1,0,98,81,1,97
,,,,,,,,,,,,,,,,,,,,,,,,,,,,,,,,,,,,,,,,,,u,2.184999943,PENGU,FALSE,,,,,,,86,pingüino,Spanish,Sounds/spa_pinguino.mp3,2020-06-24_17h57.42.669,TranslationElicitation_eng-prolific-spa,3.2.4,Win32,60,5e642125757e611ae1a52811,,1,0,98,81,1,97
,,,,,,,,,,,,,,,,,,,,,,,,,,,,,,,,,,,,,,,,,,i,2.368999958,PENGUI,FALSE,,,,,,,86,pingüino,Spanish,Sounds/spa_pinguino.mp3,2020-06-24_17h57.42.669,TranslationElicitation_eng-prolific-spa,3.2.4,Win32,60,5e642125757e611ae1a52811,,1,0,98,81,1,97
,,,,,,,,,,,,,,,,,,,,,,,,,,,,,,,,,,,,,,,,,,n,2.41899991,PENGUIN,FALSE,,,,,,,86,pingüino,Spanish,Sounds/spa_pinguino.mp3,2020-06-24_17h57.42.669,TranslationElicitation_eng-prolific-spa,3.2.4,Win32,60,5e642125757e611ae1a52811,,1,0,98,81,1,97
,,,,,,,,,,,,,,,,,,,,,,,,,,,,,,,,,,,,,,,,,,return,2.636999846,PENGUIN,FALSE,,,,,,,86,pingüino,Spanish,Sounds/spa_pinguino.mp3,2020-06-24_17h57.42.669,TranslationElicitation_eng-prolific-spa,3.2.4,Win32,60,5e642125757e611ae1a52811,2.636999846,1,0,98,81,1,97
,,,,,,,,,,,,,,,,,,,,,,,,,,,,,,,,,,,,,,,,,,,,,,,,,,,,86,pingüino,Spanish,Sounds/spa_pinguino.mp3,2020-06-24_17h57.42.669,TranslationElicitation_eng-prolific-spa,3.2.4,Win32,60,5e642125757e611ae1a52811,,1,0,98,81,1,97
,,,,,,,,,,,,,,,,,,,,,,,,,,,,,,,,,,,,,,,,,,n,4.671000004,N,FALSE,,,,,,,15,caballo,Spanish,Sounds/spa_caballo.mp3,2020-06-24_17h57.42.669,TranslationElicitation_eng-prolific-spa,3.2.4,Win32,60,5e642125757e611ae1a52811,,1,0,98,13,1,97
,,,,,,,,,,,,,,,,,,,,,,,,,,,,,,,,,,,,,,,,,,a,4.788000107,NA,FALSE,,,,,,,15,caballo,Spanish,Sounds/spa_caballo.mp3,2020-06-24_17h57.42.669,TranslationElicitation_eng-prolific-spa,3.2.4,Win32,60,5e642125757e611ae1a52811,,1,0,98,13,1,97
,,,,,,,,,,,,,,,,,,,,,,,,,,,,,,,,,,,,,,,,,,return,5.105000019,NA,FALSE,,,,,,,15,caballo,Spanish,Sounds/spa_caballo.mp3,2020-06-24_17h57.42.669,TranslationElicitation_eng-prolific-spa,3.2.4,Win32,60,5e642125757e611ae1a52811,5.105000019,1,0,98,13,1,97
,,,,,,,,,,,,,,,,,,,,,,,,,,,,,,,,,,,,,,,,,,,,,,,,,,,,15,caballo,Spanish,Sounds/spa_caballo.mp3,2020-06-24_17h57.42.669,TranslationElicitation_eng-prolific-spa,3.2.4,Win32,60,5e642125757e611ae1a52811,,1,0,98,13,1,97
,,,,,,,,,,,,,,,,,,,,,,,,,,,,,,,,,,,,,,,,,,t,1.951999903,T,FALSE,,,,,,,101,tren,Spanish,Sounds/spa_tren.mp3,2020-06-24_17h57.42.669,TranslationElicitation_eng-prolific-spa,3.2.4,Win32,60,5e642125757e611ae1a52811,,1,0,98,95,1,97
,,,,,,,,,,,,,,,,,,,,,,,,,,,,,,,,,,,,,,,,,,r,2.118999958,TR,FALSE,,,,,,,101,tren,Spanish,Sounds/spa_tren.mp3,2020-06-24_17h57.42.669,TranslationElicitation_eng-prolific-spa,3.2.4,Win32,60,5e642125757e611ae1a52811,,1,0,98,95,1,97
,,,,,,,,,,,,,,,,,,,,,,,,,,,,,,,,,,,,,,,,,,e,2.184999943,TRE,FALSE,,,,,,,101,tren,Spanish,Sounds/spa_tren.mp3,2020-06-24_17h57.42.669,TranslationElicitation_eng-prolific-spa,3.2.4,Win32,60,5e642125757e611ae1a52811,,1,0,98,95,1,97
,,,,,,,,,,,,,,,,,,,,,,,,,,,,,,,,,,,,,,,,,,n,2.268999815,TREN,FALSE,,,,,,,101,tren,Spanish,Sounds/spa_tren.mp3,2020-06-24_17h57.42.669,TranslationElicitation_eng-prolific-spa,3.2.4,Win32,60,5e642125757e611ae1a52811,,1,0,98,95,1,97
,,,,,,,,,,,,,,,,,,,,,,,,,,,,,,,,,,,,,,,,,,d,2.351999998,TREND,FALSE,,,,,,,101,tren,Spanish,Sounds/spa_tren.mp3,2020-06-24_17h57.42.669,TranslationElicitation_eng-prolific-spa,3.2.4,Win32,60,5e642125757e611ae1a52811,,1,0,98,95,1,97
,,,,,,,,,,,,,,,,,,,,,,,,,,,,,,,,,,,,,,,,,,backspace,2.819000006,TREN,TRUE,,,,,,,101,tren,Spanish,Sounds/spa_tren.mp3,2020-06-24_17h57.42.669,TranslationElicitation_eng-prolific-spa,3.2.4,Win32,60,5e642125757e611ae1a52811,,1,0,98,95,1,97
,,,,,,,,,,,,,,,,,,,,,,,,,,,,,,,,,,,,,,,,,,backspace,2.985999823,TRE,TRUE,,,,,,,101,tren,Spanish,Sounds/spa_tren.mp3,2020-06-24_17h57.42.669,TranslationElicitation_eng-prolific-spa,3.2.4,Win32,60,5e642125757e611ae1a52811,,1,0,98,95,1,97
,,,,,,,,,,,,,,,,,,,,,,,,,,,,,,,,,,,,,,,,,,backspace,3.119999886,TR,TRUE,,,,,,,101,tren,Spanish,Sounds/spa_tren.mp3,2020-06-24_17h57.42.669,TranslationElicitation_eng-prolific-spa,3.2.4,Win32,60,5e642125757e611ae1a52811,,1,0,98,95,1,97
,,,,,,,,,,,,,,,,,,,,,,,,,,,,,,,,,,,,,,,,,,a,3.286999941,TRA,TRUE,,,,,,,101,tren,Spanish,Sounds/spa_tren.mp3,2020-06-24_17h57.42.669,TranslationElicitation_eng-prolific-spa,3.2.4,Win32,60,5e642125757e611ae1a52811,,1,0,98,95,1,97
,,,,,,,,,,,,,,,,,,,,,,,,,,,,,,,,,,,,,,,,,,i,3.436999798,TRAI,TRUE,,,,,,,101,tren,Spanish,Sounds/spa_tren.mp3,2020-06-24_17h57.42.669,TranslationElicitation_eng-prolific-spa,3.2.4,Win32,60,5e642125757e611ae1a52811,,1,0,98,95,1,97
,,,,,,,,,,,,,,,,,,,,,,,,,,,,,,,,,,,,,,,,,,n,3.519999981,TRAIN,TRUE,,,,,,,101,tren,Spanish,Sounds/spa_tren.mp3,2020-06-24_17h57.42.669,TranslationElicitation_eng-prolific-spa,3.2.4,Win32,60,5e642125757e611ae1a52811,,1,0,98,95,1,97
,,,,,,,,,,,,,,,,,,,,,,,,,,,,,,,,,,,,,,,,,,return,3.836999893,TRAIN,TRUE,,,,,,,101,tren,Spanish,Sounds/spa_tren.mp3,2020-06-24_17h57.42.669,TranslationElicitation_eng-prolific-spa,3.2.4,Win32,60,5e642125757e611ae1a52811,3.836999893,1,0,98,95,1,97
,,,,,,,,,,,,,,,,,,,,,,,,,,,,,,,,,,,,,,,,,,,,,,,,,,,,101,tren,Spanish,Sounds/spa_tren.mp3,2020-06-24_17h57.42.669,TranslationElicitation_eng-prolific-spa,3.2.4,Win32,60,5e642125757e611ae1a52811,,1,0,98,95,1,97
,,,,,,,,,,,,,,,,,,,,,,,,,,,,,,,,,,,,,,,,,,t,4.503999949,T,FALSE,,,,,,,89,pluma,Spanish,Sounds/spa_pluma.mp3,2020-06-24_17h57.42.669,TranslationElicitation_eng-prolific-spa,3.2.4,Win32,60,5e642125757e611ae1a52811,,1,0,98,84,1,97
,,,,,,,,,,,,,,,,,,,,,,,,,,,,,,,,,,,,,,,,,,u,4.636999846,TU,FALSE,,,,,,,89,pluma,Spanish,Sounds/spa_pluma.mp3,2020-06-24_17h57.42.669,TranslationElicitation_eng-prolific-spa,3.2.4,Win32,60,5e642125757e611ae1a52811,,1,0,98,84,1,97
,,,,,,,,,,,,,,,,,,,,,,,,,,,,,,,,,,,,,,,,,,backspace,4.970999956,T,TRUE,,,,,,,89,pluma,Spanish,Sounds/spa_pluma.mp3,2020-06-24_17h57.42.669,TranslationElicitation_eng-prolific-spa,3.2.4,Win32,60,5e642125757e611ae1a52811,,1,0,98,84,1,97
,,,,,,,,,,,,,,,,,,,,,,,,,,,,,,,,,,,,,,,,,,m,5.355000019,TM,TRUE,,,,,,,89,pluma,Spanish,Sounds/spa_pluma.mp3,2020-06-24_17h57.42.669,TranslationElicitation_eng-prolific-spa,3.2.4,Win32,60,5e642125757e611ae1a52811,,1,0,98,84,1,97
,,,,,,,,,,,,,,,,,,,,,,,,,,,,,,,,,,,,,,,,,,backspace,5.654999971,T,TRUE,,,,,,,89,pluma,Spanish,Sounds/spa_pluma.mp3,2020-06-24_17h57.42.669,TranslationElicitation_eng-prolific-spa,3.2.4,Win32,60,5e642125757e611ae1a52811,,1,0,98,84,1,97
,,,,,,,,,,,,,,,,,,,,,,,,,,,,,,,,,,,,,,,,,,u,5.888999939,TU,TRUE,,,,,,,89,pluma,Spanish,Sounds/spa_pluma.mp3,2020-06-24_17h57.42.669,TranslationElicitation_eng-prolific-spa,3.2.4,Win32,60,5e642125757e611ae1a52811,,1,0,98,84,1,97
,,,,,,,,,,,,,,,,,,,,,,,,,,,,,,,,,,,,,,,,,,m,6.004999876,TUM,TRUE,,,,,,,89,pluma,Spanish,Sounds/spa_pluma.mp3,2020-06-24_17h57.42.669,TranslationElicitation_eng-prolific-spa,3.2.4,Win32,60,5e642125757e611ae1a52811,,1,0,98,84,1,97
,,,,,,,,,,,,,,,,,,,,,,,,,,,,,,,,,,,,,,,,,,o,6.138999939,TUMO,TRUE,,,,,,,89,pluma,Spanish,Sounds/spa_pluma.mp3,2020-06-24_17h57.42.669,TranslationElicitation_eng-prolific-spa,3.2.4,Win32,60,5e642125757e611ae1a52811,,1,0,98,84,1,97
,,,,,,,,,,,,,,,,,,,,,,,,,,,,,,,,,,,,,,,,,,u,6.221999884,TUMOU,TRUE,,,,,,,89,pluma,Spanish,Sounds/spa_pluma.mp3,2020-06-24_17h57.42.669,TranslationElicitation_eng-prolific-spa,3.2.4,Win32,60,5e642125757e611ae1a52811,,1,0,98,84,1,97
,,,,,,,,,,,,,,,,,,,,,,,,,,,,,,,,,,,,,,,,,,r,6.271999836,TUMOUR,TRUE,,,,,,,89,pluma,Spanish,Sounds/spa_pluma.mp3,2020-06-24_17h57.42.669,TranslationElicitation_eng-prolific-spa,3.2.4,Win32,60,5e642125757e611ae1a52811,,1,0,98,84,1,97
,,,,,,,,,,,,,,,,,,,,,,,,,,,,,,,,,,,,,,,,,,return,6.388999939,TUMOUR,TRUE,,,,,,,89,pluma,Spanish,Sounds/spa_pluma.mp3,2020-06-24_17h57.42.669,TranslationElicitation_eng-prolific-spa,3.2.4,Win32,60,5e642125757e611ae1a52811,6.388999939,1,0,98,84,1,97
,,,,,,,,,,,,,,,,,,,,,,,,,,,,,,,,,,,,,,,,,,,,,,,,,,,,89,pluma,Spanish,Sounds/spa_pluma.mp3,2020-06-24_17h57.42.669,TranslationElicitation_eng-prolific-spa,3.2.4,Win32,60,5e642125757e611ae1a52811,,1,0,98,84,1,97
,,,,,,,,,,,,,,,,,,,,,,,,,,,,,,,,,,,,,,,,,,g,5.154999971,G,FALSE,,,,,,,44,gorrion,Spanish,Sounds/spa_gorrion.mp3,2020-06-24_17h57.42.669,TranslationElicitation_eng-prolific-spa,3.2.4,Win32,60,5e642125757e611ae1a52811,,1,0,98,40,1,97
,,,,,,,,,,,,,,,,,,,,,,,,,,,,,,,,,,,,,,,,,,o,5.322000027,GO,FALSE,,,,,,,44,gorrion,Spanish,Sounds/spa_gorrion.mp3,2020-06-24_17h57.42.669,TranslationElicitation_eng-prolific-spa,3.2.4,Win32,60,5e642125757e611ae1a52811,,1,0,98,40,1,97
,,,,,,,,,,,,,,,,,,,,,,,,,,,,,,,,,,,,,,,,,,r,5.43900013,GOR,FALSE,,,,,,,44,gorrion,Spanish,Sounds/spa_gorrion.mp3,2020-06-24_17h57.42.669,TranslationElicitation_eng-prolific-spa,3.2.4,Win32,60,5e642125757e611ae1a52811,,1,0,98,40,1,97
,,,,,,,,,,,,,,,,,,,,,,,,,,,,,,,,,,,,,,,,,,i,5.539000034,GORI,FALSE,,,,,,,44,gorrion,Spanish,Sounds/spa_gorrion.mp3,2020-06-24_17h57.42.669,TranslationElicitation_eng-prolific-spa,3.2.4,Win32,60,5e642125757e611ae1a52811,,1,0,98,40,1,97
,,,,,,,,,,,,,,,,,,,,,,,,,,,,,,,,,,,,,,,,,,l,5.723999977,GORIL,FALSE,,,,,,,44,gorrion,Spanish,Sounds/spa_gorrion.mp3,2020-06-24_17h57.42.669,TranslationElicitation_eng-prolific-spa,3.2.4,Win32,60,5e642125757e611ae1a52811,,1,0,98,40,1,97
,,,,,,,,,,,,,,,,,,,,,,,,,,,,,,,,,,,,,,,,,,l,5.855999947,GORILL,FALSE,,,,,,,44,gorrion,Spanish,Sounds/spa_gorrion.mp3,2020-06-24_17h57.42.669,TranslationElicitation_eng-prolific-spa,3.2.4,Win32,60,5e642125757e611ae1a52811,,1,0,98,40,1,97
,,,,,,,,,,,,,,,,,,,,,,,,,,,,,,,,,,,,,,,,,,a,5.906000137,GORILLA,FALSE,,,,,,,44,gorrion,Spanish,Sounds/spa_gorrion.mp3,2020-06-24_17h57.42.669,TranslationElicitation_eng-prolific-spa,3.2.4,Win32,60,5e642125757e611ae1a52811,,1,0,98,40,1,97
,,,,,,,,,,,,,,,,,,,,,,,,,,,,,,,,,,,,,,,,,,return,6.058000088,GORILLA,FALSE,,,,,,,44,gorrion,Spanish,Sounds/spa_gorrion.mp3,2020-06-24_17h57.42.669,TranslationElicitation_eng-prolific-spa,3.2.4,Win32,60,5e642125757e611ae1a52811,6.058000088,1,0,98,40,1,97
,,,,,,,,,,,,,,,,,,,,,,,,,,,,,,,,,,,,,,,,,,,,,,,,,,,,44,gorrion,Spanish,Sounds/spa_gorrion.mp3,2020-06-24_17h57.42.669,TranslationElicitation_eng-prolific-spa,3.2.4,Win32,60,5e642125757e611ae1a52811,,1,0,98,40,1,97
,,,,,,,,,,,,,,,,,,,,,,,,,,,,,,,,,,,,,,,,,,c,1.786000013,C,FALSE,,,,,,,42,gato,Spanish,Sounds/spa_gato.mp3,2020-06-24_17h57.42.669,TranslationElicitation_eng-prolific-spa,3.2.4,Win32,60,5e642125757e611ae1a52811,,1,0,98,38,1,97
,,,,,,,,,,,,,,,,,,,,,,,,,,,,,,,,,,,,,,,,,,a,1.851999998,CA,FALSE,,,,,,,42,gato,Spanish,Sounds/spa_gato.mp3,2020-06-24_17h57.42.669,TranslationElicitation_eng-prolific-spa,3.2.4,Win32,60,5e642125757e611ae1a52811,,1,0,98,38,1,97
,,,,,,,,,,,,,,,,,,,,,,,,,,,,,,,,,,,,,,,,,,k,1.968999863,CAK,FALSE,,,,,,,42,gato,Spanish,Sounds/spa_gato.mp3,2020-06-24_17h57.42.669,TranslationElicitation_eng-prolific-spa,3.2.4,Win32,60,5e642125757e611ae1a52811,,1,0,98,38,1,97
,,,,,,,,,,,,,,,,,,,,,,,,,,,,,,,,,,,,,,,,,,e,2.069000006,CAKE,FALSE,,,,,,,42,gato,Spanish,Sounds/spa_gato.mp3,2020-06-24_17h57.42.669,TranslationElicitation_eng-prolific-spa,3.2.4,Win32,60,5e642125757e611ae1a52811,,1,0,98,38,1,97
,,,,,,,,,,,,,,,,,,,,,,,,,,,,,,,,,,,,,,,,,,return,2.402999878,CAKE,FALSE,,,,,,,42,gato,Spanish,Sounds/spa_gato.mp3,2020-06-24_17h57.42.669,TranslationElicitation_eng-prolific-spa,3.2.4,Win32,60,5e642125757e611ae1a52811,2.402999878,1,0,98,38,1,97
,,,,,,,,,,,,,,,,,,,,,,,,,,,,,,,,,,,,,,,,,,,,,,,,,,,,42,gato,Spanish,Sounds/spa_gato.mp3,2020-06-24_17h57.42.669,TranslationElicitation_eng-prolific-spa,3.2.4,Win32,60,5e642125757e611ae1a52811,,1,0,98,38,1,97
,,,,,,,,,,,,,,,,,,,,,,,,,,,,,,,,,,,,,,,,,,g,1.450999975,G,FALSE,,,,,,,47,guitarra,Spanish,Sounds/spa_guitarra.mp3,2020-06-24_17h57.42.669,TranslationElicitation_eng-prolific-spa,3.2.4,Win32,60,5e642125757e611ae1a52811,,1,0,98,43,1,97
,,,,,,,,,,,,,,,,,,,,,,,,,,,,,,,,,,,,,,,,,,u,1.551000118,GU,FALSE,,,,,,,47,guitarra,Spanish,Sounds/spa_guitarra.mp3,2020-06-24_17h57.42.669,TranslationElicitation_eng-prolific-spa,3.2.4,Win32,60,5e642125757e611ae1a52811,,1,0,98,43,1,97
,,,,,,,,,,,,,,,,,,,,,,,,,,,,,,,,,,,,,,,,,,i,1.618000031,GUI,FALSE,,,,,,,47,guitarra,Spanish,Sounds/spa_guitarra.mp3,2020-06-24_17h57.42.669,TranslationElicitation_eng-prolific-spa,3.2.4,Win32,60,5e642125757e611ae1a52811,,1,0,98,43,1,97
,,,,,,,,,,,,,,,,,,,,,,,,,,,,,,,,,,,,,,,,,,t,1.685000181,GUIT,FALSE,,,,,,,47,guitarra,Spanish,Sounds/spa_guitarra.mp3,2020-06-24_17h57.42.669,TranslationElicitation_eng-prolific-spa,3.2.4,Win32,60,5e642125757e611ae1a52811,,1,0,98,43,1,97
,,,,,,,,,,,,,,,,,,,,,,,,,,,,,,,,,,,,,,,,,,a,1.785000086,GUITA,FALSE,,,,,,,47,guitarra,Spanish,Sounds/spa_guitarra.mp3,2020-06-24_17h57.42.669,TranslationElicitation_eng-prolific-spa,3.2.4,Win32,60,5e642125757e611ae1a52811,,1,0,98,43,1,97
,,,,,,,,,,,,,,,,,,,,,,,,,,,,,,,,,,,,,,,,,,r,1.851999998,GUITAR,FALSE,,,,,,,47,guitarra,Spanish,Sounds/spa_guitarra.mp3,2020-06-24_17h57.42.669,TranslationElicitation_eng-prolific-spa,3.2.4,Win32,60,5e642125757e611ae1a52811,,1,0,98,43,1,97
,,,,,,,,,,,,,,,,,,,,,,,,,,,,,,,,,,,,,,,,,,return,1.952000141,GUITAR,FALSE,,,,,,,47,guitarra,Spanish,Sounds/spa_guitarra.mp3,2020-06-24_17h57.42.669,TranslationElicitation_eng-prolific-spa,3.2.4,Win32,60,5e642125757e611ae1a52811,1.952000141,1,0,98,43,1,97
,,,,,,,,,,,,,,,,,,,,,,,,,,,,,,,,,,,,,,,,,,,,,,,,,,,,47,guitarra,Spanish,Sounds/spa_guitarra.mp3,2020-06-24_17h57.42.669,TranslationElicitation_eng-prolific-spa,3.2.4,Win32,60,5e642125757e611ae1a52811,,1,0,98,43,1,97
,,,,,,,,,,,,,,,,,,,,,,,,,,,,,,,,,,,,,,,,,,l,1.967999935,L,FALSE,,,,,,,51,ladrillo,Spanish,Sounds/spa_ladrillo.mp3,2020-06-24_17h57.42.669,TranslationElicitation_eng-prolific-spa,3.2.4,Win32,60,5e642125757e611ae1a52811,,1,0,98,47,1,97
,,,,,,,,,,,,,,,,,,,,,,,,,,,,,,,,,,,,,,,,,,a,2.068000078,LA,FALSE,,,,,,,51,ladrillo,Spanish,Sounds/spa_ladrillo.mp3,2020-06-24_17h57.42.669,TranslationElicitation_eng-prolific-spa,3.2.4,Win32,60,5e642125757e611ae1a52811,,1,0,98,47,1,97
,,,,,,,,,,,,,,,,,,,,,,,,,,,,,,,,,,,,,,,,,,r,2.184999943,LAR,FALSE,,,,,,,51,ladrillo,Spanish,Sounds/spa_ladrillo.mp3,2020-06-24_17h57.42.669,TranslationElicitation_eng-prolific-spa,3.2.4,Win32,60,5e642125757e611ae1a52811,,1,0,98,47,1,97
,,,,,,,,,,,,,,,,,,,,,,,,,,,,,,,,,,,,,,,,,,d,2.319000006,LARD,FALSE,,,,,,,51,ladrillo,Spanish,Sounds/spa_ladrillo.mp3,2020-06-24_17h57.42.669,TranslationElicitation_eng-prolific-spa,3.2.4,Win32,60,5e642125757e611ae1a52811,,1,0,98,47,1,97
,,,,,,,,,,,,,,,,,,,,,,,,,,,,,,,,,,,,,,,,,,return,2.41899991,LARD,FALSE,,,,,,,51,ladrillo,Spanish,Sounds/spa_ladrillo.mp3,2020-06-24_17h57.42.669,TranslationElicitation_eng-prolific-spa,3.2.4,Win32,60,5e642125757e611ae1a52811,2.41899991,1,0,98,47,1,97
,,,,,,,,,,,,,,,,,,,,,,,,,,,,,,,,,,,,,,,,,,,,,,,,,,,,51,ladrillo,Spanish,Sounds/spa_ladrillo.mp3,2020-06-24_17h57.42.669,TranslationElicitation_eng-prolific-spa,3.2.4,Win32,60,5e642125757e611ae1a52811,,1,0,98,47,1,97
,,,,,,,,,,,,,,,,,,,,,,,,,,,,,,,,,,,,,,,,,,l,1.934999943,L,FALSE,,,,,,,57,loro,Spanish,Sounds/spa_loro.mp3,2020-06-24_17h57.42.669,TranslationElicitation_eng-prolific-spa,3.2.4,Win32,60,5e642125757e611ae1a52811,,1,0,98,53,1,97
,,,,,,,,,,,,,,,,,,,,,,,,,,,,,,,,,,,,,,,,,,o,2.118000031,LO,FALSE,,,,,,,57,loro,Spanish,Sounds/spa_loro.mp3,2020-06-24_17h57.42.669,TranslationElicitation_eng-prolific-spa,3.2.4,Win32,60,5e642125757e611ae1a52811,,1,0,98,53,1,97
,,,,,,,,,,,,,,,,,,,,,,,,,,,,,,,,,,,,,,,,,,r,2.218999863,LOR,FALSE,,,,,,,57,loro,Spanish,Sounds/spa_loro.mp3,2020-06-24_17h57.42.669,TranslationElicitation_eng-prolific-spa,3.2.4,Win32,60,5e642125757e611ae1a52811,,1,0,98,53,1,97
,,,,,,,,,,,,,,,,,,,,,,,,,,,,,,,,,,,,,,,,,,d,2.41899991,LORD,FALSE,,,,,,,57,loro,Spanish,Sounds/spa_loro.mp3,2020-06-24_17h57.42.669,TranslationElicitation_eng-prolific-spa,3.2.4,Win32,60,5e642125757e611ae1a52811,,1,0,98,53,1,97
,,,,,,,,,,,,,,,,,,,,,,,,,,,,,,,,,,,,,,,,,,return,2.484999895,LORD,FALSE,,,,,,,57,loro,Spanish,Sounds/spa_loro.mp3,2020-06-24_17h57.42.669,TranslationElicitation_eng-prolific-spa,3.2.4,Win32,60,5e642125757e611ae1a52811,2.484999895,1,0,98,53,1,97
,,,,,,,,,,,,,,,,,,,,,,,,,,,,,,,,,,,,,,,,,,,,,,,,,,,,57,loro,Spanish,Sounds/spa_loro.mp3,2020-06-24_17h57.42.669,TranslationElicitation_eng-prolific-spa,3.2.4,Win32,60,5e642125757e611ae1a52811,,1,0,98,53,1,97
,,,,,,,,,,,,,,,,,,,,,,,,,,,,,,,,,,,,,,,,,,f,1.967999935,F,FALSE,,,,,,,37,flor,Spanish,Sounds/spa_flor.mp3,2020-06-24_17h57.42.669,TranslationElicitation_eng-prolific-spa,3.2.4,Win32,60,5e642125757e611ae1a52811,,1,0,98,33,1,97
,,,,,,,,,,,,,,,,,,,,,,,,,,,,,,,,,,,,,,,,,,l,2.052000046,FL,FALSE,,,,,,,37,flor,Spanish,Sounds/spa_flor.mp3,2020-06-24_17h57.42.669,TranslationElicitation_eng-prolific-spa,3.2.4,Win32,60,5e642125757e611ae1a52811,,1,0,98,33,1,97
,,,,,,,,,,,,,,,,,,,,,,,,,,,,,,,,,,,,,,,,,,o,2.218999863,FLO,FALSE,,,,,,,37,flor,Spanish,Sounds/spa_flor.mp3,2020-06-24_17h57.42.669,TranslationElicitation_eng-prolific-spa,3.2.4,Win32,60,5e642125757e611ae1a52811,,1,0,98,33,1,97
,,,,,,,,,,,,,,,,,,,,,,,,,,,,,,,,,,,,,,,,,,o,2.351999998,FLOO,FALSE,,,,,,,37,flor,Spanish,Sounds/spa_flor.mp3,2020-06-24_17h57.42.669,TranslationElicitation_eng-prolific-spa,3.2.4,Win32,60,5e642125757e611ae1a52811,,1,0,98,33,1,97
,,,,,,,,,,,,,,,,,,,,,,,,,,,,,,,,,,,,,,,,,,r,2.434999943,FLOOR,FALSE,,,,,,,37,flor,Spanish,Sounds/spa_flor.mp3,2020-06-24_17h57.42.669,TranslationElicitation_eng-prolific-spa,3.2.4,Win32,60,5e642125757e611ae1a52811,,1,0,98,33,1,97
,,,,,,,,,,,,,,,,,,,,,,,,,,,,,,,,,,,,,,,,,,return,2.585000038,FLOOR,FALSE,,,,,,,37,flor,Spanish,Sounds/spa_flor.mp3,2020-06-24_17h57.42.669,TranslationElicitation_eng-prolific-spa,3.2.4,Win32,60,5e642125757e611ae1a52811,2.585000038,1,0,98,33,1,97
,,,,,,,,,,,,,,,,,,,,,,,,,,,,,,,,,,,,,,,,,,,,,,,,,,,,37,flor,Spanish,Sounds/spa_flor.mp3,2020-06-24_17h57.42.669,TranslationElicitation_eng-prolific-spa,3.2.4,Win32,60,5e642125757e611ae1a52811,,1,0,98,33,1,97
,,,,,,,,,,,,,,,,,,,,,,,,,,,,,,,,,,,,,,,,,,n,3.069000006,N,FALSE,,,,,,,45,gorro,Spanish,Sounds/spa_gorro.mp3,2020-06-24_17h57.42.669,TranslationElicitation_eng-prolific-spa,3.2.4,Win32,60,5e642125757e611ae1a52811,,1,0,98,41,1,97
,,,,,,,,,,,,,,,,,,,,,,,,,,,,,,,,,,,,,,,,,,a,3.153000116,NA,FALSE,,,,,,,45,gorro,Spanish,Sounds/spa_gorro.mp3,2020-06-24_17h57.42.669,TranslationElicitation_eng-prolific-spa,3.2.4,Win32,60,5e642125757e611ae1a52811,,1,0,98,41,1,97
,,,,,,,,,,,,,,,,,,,,,,,,,,,,,,,,,,,,,,,,,,return,3.286000013,NA,FALSE,,,,,,,45,gorro,Spanish,Sounds/spa_gorro.mp3,2020-06-24_17h57.42.669,TranslationElicitation_eng-prolific-spa,3.2.4,Win32,60,5e642125757e611ae1a52811,3.286000013,1,0,98,41,1,97
,,,,,,,,,,,,,,,,,,,,,,,,,,,,,,,,,,,,,,,,,,,,,,,,,,,,45,gorro,Spanish,Sounds/spa_gorro.mp3,2020-06-24_17h57.42.669,TranslationElicitation_eng-prolific-spa,3.2.4,Win32,60,5e642125757e611ae1a52811,,1,0,98,41,1,97
,,,,,,,,,,,,,,,,,,,,,,,,,,,,,,,,,,,,,,,,,,n,3.20299983,N,FALSE,,,,,,,40,galleta,Spanish,Sounds/spa_galleta.mp3,2020-06-24_17h57.42.669,TranslationElicitation_eng-prolific-spa,3.2.4,Win32,60,5e642125757e611ae1a52811,,1,0,98,36,1,97
,,,,,,,,,,,,,,,,,,,,,,,,,,,,,,,,,,,,,,,,,,a,3.269999981,NA,FALSE,,,,,,,40,galleta,Spanish,Sounds/spa_galleta.mp3,2020-06-24_17h57.42.669,TranslationElicitation_eng-prolific-spa,3.2.4,Win32,60,5e642125757e611ae1a52811,,1,0,98,36,1,97
,,,,,,,,,,,,,,,,,,,,,,,,,,,,,,,,,,,,,,,,,,return,3.486999989,NA,FALSE,,,,,,,40,galleta,Spanish,Sounds/spa_galleta.mp3,2020-06-24_17h57.42.669,TranslationElicitation_eng-prolific-spa,3.2.4,Win32,60,5e642125757e611ae1a52811,3.486999989,1,0,98,36,1,97
,,,,,,,,,,,,,,,,,,,,,,,,,,,,,,,,,,,,,,,,,,,,,,,,,,,,40,galleta,Spanish,Sounds/spa_galleta.mp3,2020-06-24_17h57.42.669,TranslationElicitation_eng-prolific-spa,3.2.4,Win32,60,5e642125757e611ae1a52811,,1,0,98,36,1,97
,,,,,,,,,,,,,,,,,,,,,,,,,,,,,,,,,,,,,,,,,,n,5.994999886,N,FALSE,,,,,,,80,pato,Spanish,Sounds/spa_pato.mp3,2020-06-24_17h57.42.669,TranslationElicitation_eng-prolific-spa,3.2.4,Win32,60,5e642125757e611ae1a52811,,1,0,98,75,1,97
,,,,,,,,,,,,,,,,,,,,,,,,,,,,,,,,,,,,,,,,,,a,6.072999954,NA,FALSE,,,,,,,80,pato,Spanish,Sounds/spa_pato.mp3,2020-06-24_17h57.42.669,TranslationElicitation_eng-prolific-spa,3.2.4,Win32,60,5e642125757e611ae1a52811,,1,0,98,75,1,97
,,,,,,,,,,,,,,,,,,,,,,,,,,,,,,,,,,,,,,,,,,return,6.322999954,NA,FALSE,,,,,,,80,pato,Spanish,Sounds/spa_pato.mp3,2020-06-24_17h57.42.669,TranslationElicitation_eng-prolific-spa,3.2.4,Win32,60,5e642125757e611ae1a52811,6.322999954,1,0,98,75,1,97
,,,,,,,,,,,,,,,,,,,,,,,,,,,,,,,,,,,,,,,,,,,,,,,,,,,,80,pato,Spanish,Sounds/spa_pato.mp3,2020-06-24_17h57.42.669,TranslationElicitation_eng-prolific-spa,3.2.4,Win32,60,5e642125757e611ae1a52811,,1,0,98,75,1,97
,,,,,,,,,,,,,,,,,,,,,,,,,,,,,,,,,,,,,,,,,,b,1.969000101,B,FALSE,,,,,,,8,bol,Spanish,Sounds/spa_bol.mp3,2020-06-24_17h57.42.669,TranslationElicitation_eng-prolific-spa,3.2.4,Win32,60,5e642125757e611ae1a52811,,1,0,98,6,1,97
,,,,,,,,,,,,,,,,,,,,,,,,,,,,,,,,,,,,,,,,,,a,2.119000196,BA,FALSE,,,,,,,8,bol,Spanish,Sounds/spa_bol.mp3,2020-06-24_17h57.42.669,TranslationElicitation_eng-prolific-spa,3.2.4,Win32,60,5e642125757e611ae1a52811,,1,0,98,6,1,97
,,,,,,,,,,,,,,,,,,,,,,,,,,,,,,,,,,,,,,,,,,l,2.236000061,BAL,FALSE,,,,,,,8,bol,Spanish,Sounds/spa_bol.mp3,2020-06-24_17h57.42.669,TranslationElicitation_eng-prolific-spa,3.2.4,Win32,60,5e642125757e611ae1a52811,,1,0,98,6,1,97
,,,,,,,,,,,,,,,,,,,,,,,,,,,,,,,,,,,,,,,,,,l,2.386000156,BALL,FALSE,,,,,,,8,bol,Spanish,Sounds/spa_bol.mp3,2020-06-24_17h57.42.669,TranslationElicitation_eng-prolific-spa,3.2.4,Win32,60,5e642125757e611ae1a52811,,1,0,98,6,1,97
,,,,,,,,,,,,,,,,,,,,,,,,,,,,,,,,,,,,,,,,,,return,2.619000196,BALL,FALSE,,,,,,,8,bol,Spanish,Sounds/spa_bol.mp3,2020-06-24_17h57.42.669,TranslationElicitation_eng-prolific-spa,3.2.4,Win32,60,5e642125757e611ae1a52811,2.619000196,1,0,98,6,1,97
,,,,,,,,,,,,,,,,,,,,,,,,,,,,,,,,,,,,,,,,,,,,,,,,,,,,8,bol,Spanish,Sounds/spa_bol.mp3,2020-06-24_17h57.42.669,TranslationElicitation_eng-prolific-spa,3.2.4,Win32,60,5e642125757e611ae1a52811,,1,0,98,6,1,97
,,,,,,,,,,,,,,,,,,,,,,,,,,,,,,,,,,,,,,,,,,e,4.003999949,E,FALSE,,,,,,,97,tijeras,Spanish,Sounds/spa_tijeras.mp3,2020-06-24_17h57.42.669,TranslationElicitation_eng-prolific-spa,3.2.4,Win32,60,5e642125757e611ae1a52811,,1,0,98,91,1,97
,,,,,,,,,,,,,,,,,,,,,,,,,,,,,,,,,,,,,,,,,,y,4.138000011,EY,FALSE,,,,,,,97,tijeras,Spanish,Sounds/spa_tijeras.mp3,2020-06-24_17h57.42.669,TranslationElicitation_eng-prolific-spa,3.2.4,Win32,60,5e642125757e611ae1a52811,,1,0,98,91,1,97
,,,,,,,,,,,,,,,,,,,,,,,,,,,,,,,,,,,,,,,,,,e,4.237999916,EYE,FALSE,,,,,,,97,tijeras,Spanish,Sounds/spa_tijeras.mp3,2020-06-24_17h57.42.669,TranslationElicitation_eng-prolific-spa,3.2.4,Win32,60,5e642125757e611ae1a52811,,1,0,98,91,1,97
,,,,,,,,,,,,,,,,,,,,,,,,,,,,,,,,,,,,,,,,,,s,4.305000067,EYES,FALSE,,,,,,,97,tijeras,Spanish,Sounds/spa_tijeras.mp3,2020-06-24_17h57.42.669,TranslationElicitation_eng-prolific-spa,3.2.4,Win32,60,5e642125757e611ae1a52811,,1,0,98,91,1,97
,,,,,,,,,,,,,,,,,,,,,,,,,,,,,,,,,,,,,,,,,,return,4.404999971,EYES,FALSE,,,,,,,97,tijeras,Spanish,Sounds/spa_tijeras.mp3,2020-06-24_17h57.42.669,TranslationElicitation_eng-prolific-spa,3.2.4,Win32,60,5e642125757e611ae1a52811,4.404999971,1,0,98,91,1,97
,,,,,,,,,,,,,,,,,,,,,,,,,,,,,,,,,,,,,,,,,,,,,,,,,,,,97,tijeras,Spanish,Sounds/spa_tijeras.mp3,2020-06-24_17h57.42.669,TranslationElicitation_eng-prolific-spa,3.2.4,Win32,60,5e642125757e611ae1a52811,,1,0,98,91,1,97
,,,,,,,,,,,,,,,,,,,,,,,,,,,,,,,,,,,,,,,,,,m,3.653000116,M,FALSE,,,,,,,33,dedo,Spanish,Sounds/spa_dedo.mp3,2020-06-24_17h57.42.669,TranslationElicitation_eng-prolific-spa,3.2.4,Win32,60,5e642125757e611ae1a52811,,1,0,98,29,1,97
,,,,,,,,,,,,,,,,,,,,,,,,,,,,,,,,,,,,,,,,,,y,3.769999981,MY,FALSE,,,,,,,33,dedo,Spanish,Sounds/spa_dedo.mp3,2020-06-24_17h57.42.669,TranslationElicitation_eng-prolific-spa,3.2.4,Win32,60,5e642125757e611ae1a52811,,1,0,98,29,1,97
,,,,,,,,,,,,,,,,,,,,,,,,,,,,,,,,,,,,,,,,,,space,3.887000084,MY ,FALSE,,,,,,,33,dedo,Spanish,Sounds/spa_dedo.mp3,2020-06-24_17h57.42.669,TranslationElicitation_eng-prolific-spa,3.2.4,Win32,60,5e642125757e611ae1a52811,,1,0,98,29,1,97
,,,,,,,,,,,,,,,,,,,,,,,,,,,,,,,,,,,,,,,,,,f,4.003999949,MY F,FALSE,,,,,,,33,dedo,Spanish,Sounds/spa_dedo.mp3,2020-06-24_17h57.42.669,TranslationElicitation_eng-prolific-spa,3.2.4,Win32,60,5e642125757e611ae1a52811,,1,0,98,29,1,97
,,,,,,,,,,,,,,,,,,,,,,,,,,,,,,,,,,,,,,,,,,r,4.121000051,MY FR,FALSE,,,,,,,33,dedo,Spanish,Sounds/spa_dedo.mp3,2020-06-24_17h57.42.669,TranslationElicitation_eng-prolific-spa,3.2.4,Win32,60,5e642125757e611ae1a52811,,1,0,98,29,1,97
,,,,,,,,,,,,,,,,,,,,,,,,,,,,,,,,,,,,,,,,,,i,4.220999956,MY FRI,FALSE,,,,,,,33,dedo,Spanish,Sounds/spa_dedo.mp3,2020-06-24_17h57.42.669,TranslationElicitation_eng-prolific-spa,3.2.4,Win32,60,5e642125757e611ae1a52811,,1,0,98,29,1,97
,,,,,,,,,,,,,,,,,,,,,,,,,,,,,,,,,,,,,,,,,,e,4.308000088,MY FRIE,FALSE,,,,,,,33,dedo,Spanish,Sounds/spa_dedo.mp3,2020-06-24_17h57.42.669,TranslationElicitation_eng-prolific-spa,3.2.4,Win32,60,5e642125757e611ae1a52811,,1,0,98,29,1,97
,,,,,,,,,,,,,,,,,,,,,,,,,,,,,,,,,,,,,,,,,,n,4.404000044,MY FRIEN,FALSE,,,,,,,33,dedo,Spanish,Sounds/spa_dedo.mp3,2020-06-24_17h57.42.669,TranslationElicitation_eng-prolific-spa,3.2.4,Win32,60,5e642125757e611ae1a52811,,1,0,98,29,1,97
,,,,,,,,,,,,,,,,,,,,,,,,,,,,,,,,,,,,,,,,,,d,4.470999956,MY FRIEND,FALSE,,,,,,,33,dedo,Spanish,Sounds/spa_dedo.mp3,2020-06-24_17h57.42.669,TranslationElicitation_eng-prolific-spa,3.2.4,Win32,60,5e642125757e611ae1a52811,,1,0,98,29,1,97
,,,,,,,,,,,,,,,,,,,,,,,,,,,,,,,,,,,,,,,,,,s,4.538000107,MY FRIENDS,FALSE,,,,,,,33,dedo,Spanish,Sounds/spa_dedo.mp3,2020-06-24_17h57.42.669,TranslationElicitation_eng-prolific-spa,3.2.4,Win32,60,5e642125757e611ae1a52811,,1,0,98,29,1,97
,,,,,,,,,,,,,,,,,,,,,,,,,,,,,,,,,,,,,,,,,,return,4.638000011,MY FRIENDS,FALSE,,,,,,,33,dedo,Spanish,Sounds/spa_dedo.mp3,2020-06-24_17h57.42.669,TranslationElicitation_eng-prolific-spa,3.2.4,Win32,60,5e642125757e611ae1a52811,4.638000011,1,0,98,29,1,97
,,,,,,,,,,,,,,,,,,,,,,,,,,,,,,,,,,,,,,,,,,,,,,,,,,,,33,dedo,Spanish,Sounds/spa_dedo.mp3,2020-06-24_17h57.42.669,TranslationElicitation_eng-prolific-spa,3.2.4,Win32,60,5e642125757e611ae1a52811,,1,0,98,29,1,97
,,,,,,,,,,,,,,,,,,,,,,,,,,,,,,,,,,,,,,,,,,n,2.768999815,N,FALSE,,,,,,,50,jirafa,Spanish,Sounds/spa_jirafa.mp3,2020-06-24_17h57.42.669,TranslationElicitation_eng-prolific-spa,3.2.4,Win32,60,5e642125757e611ae1a52811,,1,0,98,46,1,97
,,,,,,,,,,,,,,,,,,,,,,,,,,,,,,,,,,,,,,,,,,a,3.135999918,NA,FALSE,,,,,,,50,jirafa,Spanish,Sounds/spa_jirafa.mp3,2020-06-24_17h57.42.669,TranslationElicitation_eng-prolific-spa,3.2.4,Win32,60,5e642125757e611ae1a52811,,1,0,98,46,1,97
,,,,,,,,,,,,,,,,,,,,,,,,,,,,,,,,,,,,,,,,,,return,3.485999823,NA,FALSE,,,,,,,50,jirafa,Spanish,Sounds/spa_jirafa.mp3,2020-06-24_17h57.42.669,TranslationElicitation_eng-prolific-spa,3.2.4,Win32,60,5e642125757e611ae1a52811,3.485999823,1,0,98,46,1,97
,,,,,,,,,,,,,,,,,,,,,,,,,,,,,,,,,,,,,,,,,,,,,,,,,,,,50,jirafa,Spanish,Sounds/spa_jirafa.mp3,2020-06-24_17h57.42.669,TranslationElicitation_eng-prolific-spa,3.2.4,Win32,60,5e642125757e611ae1a52811,,1,0,98,46,1,97
,,,,,,,,,,,,,,,,,,,,,,,,,,,,,,,,,,,,,,,,,,p,2.218999863,P,FALSE,,,,,,,81,pelota,Spanish,Sounds/spa_pelota.mp3,2020-06-24_17h57.42.669,TranslationElicitation_eng-prolific-spa,3.2.4,Win32,60,5e642125757e611ae1a52811,,1,0,98,76,1,97
,,,,,,,,,,,,,,,,,,,,,,,,,,,,,,,,,,,,,,,,,,i,2.302999973,PI,FALSE,,,,,,,81,pelota,Spanish,Sounds/spa_pelota.mp3,2020-06-24_17h57.42.669,TranslationElicitation_eng-prolific-spa,3.2.4,Win32,60,5e642125757e611ae1a52811,,1,0,98,76,1,97
,,,,,,,,,,,,,,,,,,,,,,,,,,,,,,,,,,,,,,,,,,l,2.45299983,PIL,FALSE,,,,,,,81,pelota,Spanish,Sounds/spa_pelota.mp3,2020-06-24_17h57.42.669,TranslationElicitation_eng-prolific-spa,3.2.4,Win32,60,5e642125757e611ae1a52811,,1,0,98,76,1,97
,,,,,,,,,,,,,,,,,,,,,,,,,,,,,,,,,,,,,,,,,,o,2.602999926,PILO,FALSE,,,,,,,81,pelota,Spanish,Sounds/spa_pelota.mp3,2020-06-24_17h57.42.669,TranslationElicitation_eng-prolific-spa,3.2.4,Win32,60,5e642125757e611ae1a52811,,1,0,98,76,1,97
,,,,,,,,,,,,,,,,,,,,,,,,,,,,,,,,,,,,,,,,,,t,2.68599987,PILOT,FALSE,,,,,,,81,pelota,Spanish,Sounds/spa_pelota.mp3,2020-06-24_17h57.42.669,TranslationElicitation_eng-prolific-spa,3.2.4,Win32,60,5e642125757e611ae1a52811,,1,0,98,76,1,97
,,,,,,,,,,,,,,,,,,,,,,,,,,,,,,,,,,,,,,,,,,return,2.836999893,PILOT,FALSE,,,,,,,81,pelota,Spanish,Sounds/spa_pelota.mp3,2020-06-24_17h57.42.669,TranslationElicitation_eng-prolific-spa,3.2.4,Win32,60,5e642125757e611ae1a52811,2.836999893,1,0,98,76,1,97
,,,,,,,,,,,,,,,,,,,,,,,,,,,,,,,,,,,,,,,,,,,,,,,,,,,,81,pelota,Spanish,Sounds/spa_pelota.mp3,2020-06-24_17h57.42.669,TranslationElicitation_eng-prolific-spa,3.2.4,Win32,60,5e642125757e611ae1a52811,,1,0,98,76,1,97
,,,,,,,,,,,,,,,,,,,,,,,,,,,,,,,,,,,,,,,,,,n,2.252000093,N,FALSE,,,,,,,22,cepillo,Spanish,Sounds/spa_cepillo.mp3,2020-06-24_17h57.42.669,TranslationElicitation_eng-prolific-spa,3.2.4,Win32,60,5e642125757e611ae1a52811,,1,0,98,20,1,97
,,,,,,,,,,,,,,,,,,,,,,,,,,,,,,,,,,,,,,,,,,a,2.319000006,NA,FALSE,,,,,,,22,cepillo,Spanish,Sounds/spa_cepillo.mp3,2020-06-24_17h57.42.669,TranslationElicitation_eng-prolific-spa,3.2.4,Win32,60,5e642125757e611ae1a52811,,1,0,98,20,1,97
,,,,,,,,,,,,,,,,,,,,,,,,,,,,,,,,,,,,,,,,,,return,2.469000101,NA,FALSE,,,,,,,22,cepillo,Spanish,Sounds/spa_cepillo.mp3,2020-06-24_17h57.42.669,TranslationElicitation_eng-prolific-spa,3.2.4,Win32,60,5e642125757e611ae1a52811,2.469000101,1,0,98,20,1,97
,,,,,,,,,,,,,,,,,,,,,,,,,,,,,,,,,,,,,,,,,,,,,,,,,,,,22,cepillo,Spanish,Sounds/spa_cepillo.mp3,2020-06-24_17h57.42.669,TranslationElicitation_eng-prolific-spa,3.2.4,Win32,60,5e642125757e611ae1a52811,,1,0,98,20,1,97
,,,,,,,,,,,,,,,,,,,,,,,,,,,,,,,,,,,,,,,,,,k,2.536000013,K,FALSE,,,,,,,67,muneca,Spanish,Sounds/spa_muneca.mp3,2020-06-24_17h57.42.669,TranslationElicitation_eng-prolific-spa,3.2.4,Win32,60,5e642125757e611ae1a52811,,1,0,98,63,1,97
,,,,,,,,,,,,,,,,,,,,,,,,,,,,,,,,,,,,,,,,,,o,2.569000006,KO,FALSE,,,,,,,67,muneca,Spanish,Sounds/spa_muneca.mp3,2020-06-24_17h57.42.669,TranslationElicitation_eng-prolific-spa,3.2.4,Win32,60,5e642125757e611ae1a52811,,1,0,98,63,1,97
,,,,,,,,,,,,,,,,,,,,,,,,,,,,,,,,,,,,,,,,,,backspace,3.103000164,K,TRUE,,,,,,,67,muneca,Spanish,Sounds/spa_muneca.mp3,2020-06-24_17h57.42.669,TranslationElicitation_eng-prolific-spa,3.2.4,Win32,60,5e642125757e611ae1a52811,,1,0,98,63,1,97
,,,,,,,,,,,,,,,,,,,,,,,,,,,,,,,,,,,,,,,,,,backspace,3.269999981,,TRUE,,,,,,,67,muneca,Spanish,Sounds/spa_muneca.mp3,2020-06-24_17h57.42.669,TranslationElicitation_eng-prolific-spa,3.2.4,Win32,60,5e642125757e611ae1a52811,,1,0,98,63,1,97
,,,,,,,,,,,,,,,,,,,,,,,,,,,,,,,,,,,,,,,,,,m,3.503000021,M,TRUE,,,,,,,67,muneca,Spanish,Sounds/spa_muneca.mp3,2020-06-24_17h57.42.669,TranslationElicitation_eng-prolific-spa,3.2.4,Win32,60,5e642125757e611ae1a52811,,1,0,98,63,1,97
,,,,,,,,,,,,,,,,,,,,,,,,,,,,,,,,,,,,,,,,,,o,3.569999933,MO,TRUE,,,,,,,67,muneca,Spanish,Sounds/spa_muneca.mp3,2020-06-24_17h57.42.669,TranslationElicitation_eng-prolific-spa,3.2.4,Win32,60,5e642125757e611ae1a52811,,1,0,98,63,1,97
,,,,,,,,,,,,,,,,,,,,,,,,,,,,,,,,,,,,,,,,,,n,3.703000069,MON,TRUE,,,,,,,67,muneca,Spanish,Sounds/spa_muneca.mp3,2020-06-24_17h57.42.669,TranslationElicitation_eng-prolific-spa,3.2.4,Win32,60,5e642125757e611ae1a52811,,1,0,98,63,1,97
,,,,,,,,,,,,,,,,,,,,,,,,,,,,,,,,,,,,,,,,,,i,3.786999941,MONI,TRUE,,,,,,,67,muneca,Spanish,Sounds/spa_muneca.mp3,2020-06-24_17h57.42.669,TranslationElicitation_eng-prolific-spa,3.2.4,Win32,60,5e642125757e611ae1a52811,,1,0,98,63,1,97
,,,,,,,,,,,,,,,,,,,,,,,,,,,,,,,,,,,,,,,,,,c,3.887000084,MONIC,TRUE,,,,,,,67,muneca,Spanish,Sounds/spa_muneca.mp3,2020-06-24_17h57.42.669,TranslationElicitation_eng-prolific-spa,3.2.4,Win32,60,5e642125757e611ae1a52811,,1,0,98,63,1,97
,,,,,,,,,,,,,,,,,,,,,,,,,,,,,,,,,,,,,,,,,,a,3.953999996,MONICA,TRUE,,,,,,,67,muneca,Spanish,Sounds/spa_muneca.mp3,2020-06-24_17h57.42.669,TranslationElicitation_eng-prolific-spa,3.2.4,Win32,60,5e642125757e611ae1a52811,,1,0,98,63,1,97
,,,,,,,,,,,,,,,,,,,,,,,,,,,,,,,,,,,,,,,,,,return,4.137000084,MONICA,TRUE,,,,,,,67,muneca,Spanish,Sounds/spa_muneca.mp3,2020-06-24_17h57.42.669,TranslationElicitation_eng-prolific-spa,3.2.4,Win32,60,5e642125757e611ae1a52811,4.137000084,1,0,98,63,1,97
,,,,,,,,,,,,,,,,,,,,,,,,,,,,,,,,,,,,,,,,,,,,,,,,,,,,67,muneca,Spanish,Sounds/spa_muneca.mp3,2020-06-24_17h57.42.669,TranslationElicitation_eng-prolific-spa,3.2.4,Win32,60,5e642125757e611ae1a52811,,1,0,98,63,1,97
,,,,,,,,,,,,,,,,,,,,,,,,,,,,,,,,,,,,,,,,,,l,4.921000004,L,FALSE,,,,,,,56,libro,Spanish,Sounds/spa_libro.mp3,2020-06-24_17h57.42.669,TranslationElicitation_eng-prolific-spa,3.2.4,Win32,60,5e642125757e611ae1a52811,,1,0,98,52,1,97
,,,,,,,,,,,,,,,,,,,,,,,,,,,,,,,,,,,,,,,,,,i,5.154000044,LI,FALSE,,,,,,,56,libro,Spanish,Sounds/spa_libro.mp3,2020-06-24_17h57.42.669,TranslationElicitation_eng-prolific-spa,3.2.4,Win32,60,5e642125757e611ae1a52811,,1,0,98,52,1,97
,,,,,,,,,,,,,,,,,,,,,,,,,,,,,,,,,,,,,,,,,,b,5.188000202,LIB,FALSE,,,,,,,56,libro,Spanish,Sounds/spa_libro.mp3,2020-06-24_17h57.42.669,TranslationElicitation_eng-prolific-spa,3.2.4,Win32,60,5e642125757e611ae1a52811,,1,0,98,52,1,97
,,,,,,,,,,,,,,,,,,,,,,,,,,,,,,,,,,,,,,,,,,r,5.238000154,LIBR,FALSE,,,,,,,56,libro,Spanish,Sounds/spa_libro.mp3,2020-06-24_17h57.42.669,TranslationElicitation_eng-prolific-spa,3.2.4,Win32,60,5e642125757e611ae1a52811,,1,0,98,52,1,97
,,,,,,,,,,,,,,,,,,,,,,,,,,,,,,,,,,,,,,,,,,a,5.321000099,LIBRA,FALSE,,,,,,,56,libro,Spanish,Sounds/spa_libro.mp3,2020-06-24_17h57.42.669,TranslationElicitation_eng-prolific-spa,3.2.4,Win32,60,5e642125757e611ae1a52811,,1,0,98,52,1,97
,,,,,,,,,,,,,,,,,,,,,,,,,,,,,,,,,,,,,,,,,,return,5.938000202,LIBRA,FALSE,,,,,,,56,libro,Spanish,Sounds/spa_libro.mp3,2020-06-24_17h57.42.669,TranslationElicitation_eng-prolific-spa,3.2.4,Win32,60,5e642125757e611ae1a52811,5.938000202,1,0,98,52,1,97
,,,,,,,,,,,,,,,,,,,,,,,,,,,,,,,,,,,,,,,,,,,,,,,,,,,,56,libro,Spanish,Sounds/spa_libro.mp3,2020-06-24_17h57.42.669,TranslationElicitation_eng-prolific-spa,3.2.4,Win32,60,5e642125757e611ae1a52811,,1,0,98,52,1,97
,,,,,,,,,,,,,,,,,,,,,,,,,,,,,,,,,,,,,,,,,,m,3.736999989,M,FALSE,,,,,,,63,mesa,Spanish,Sounds/spa_mesa.mp3,2020-06-24_17h57.42.669,TranslationElicitation_eng-prolific-spa,3.2.4,Win32,60,5e642125757e611ae1a52811,,1,0,98,59,1,97
,,,,,,,,,,,,,,,,,,,,,,,,,,,,,,,,,,,,,,,,,,e,3.837000132,ME,FALSE,,,,,,,63,mesa,Spanish,Sounds/spa_mesa.mp3,2020-06-24_17h57.42.669,TranslationElicitation_eng-prolific-spa,3.2.4,Win32,60,5e642125757e611ae1a52811,,1,0,98,59,1,97
,,,,,,,,,,,,,,,,,,,,,,,,,,,,,,,,,,,,,,,,,,s,4.003999949,MES,FALSE,,,,,,,63,mesa,Spanish,Sounds/spa_mesa.mp3,2020-06-24_17h57.42.669,TranslationElicitation_eng-prolific-spa,3.2.4,Win32,60,5e642125757e611ae1a52811,,1,0,98,59,1,97
,,,,,,,,,,,,,,,,,,,,,,,,,,,,,,,,,,,,,,,,,,a,4.120000124,MESA,FALSE,,,,,,,63,mesa,Spanish,Sounds/spa_mesa.mp3,2020-06-24_17h57.42.669,TranslationElicitation_eng-prolific-spa,3.2.4,Win32,60,5e642125757e611ae1a52811,,1,0,98,59,1,97
,,,,,,,,,,,,,,,,,,,,,,,,,,,,,,,,,,,,,,,,,,return,4.453999996,MESA,FALSE,,,,,,,63,mesa,Spanish,Sounds/spa_mesa.mp3,2020-06-24_17h57.42.669,TranslationElicitation_eng-prolific-spa,3.2.4,Win32,60,5e642125757e611ae1a52811,4.453999996,1,0,98,59,1,97
,,,,,,,,,,,,,,,,,,,,,,,,,,,,,,,,,,,,,,,,,,,,,,,,,,,,63,mesa,Spanish,Sounds/spa_mesa.mp3,2020-06-24_17h57.42.669,TranslationElicitation_eng-prolific-spa,3.2.4,Win32,60,5e642125757e611ae1a52811,,1,0,98,59,1,97
,,,,,,,,,,,,,,,,,,,,,,,,,,,,,,,,,,,,,,,,,,p,2.301999807,P,FALSE,,,,,,,77,pantalon,Spanish,Sounds/spa_pantalon.mp3,2020-06-24_17h57.42.669,TranslationElicitation_eng-prolific-spa,3.2.4,Win32,60,5e642125757e611ae1a52811,,1,0,98,72,1,97
,,,,,,,,,,,,,,,,,,,,,,,,,,,,,,,,,,,,,,,,,,a,2.41899991,PA,FALSE,,,,,,,77,pantalon,Spanish,Sounds/spa_pantalon.mp3,2020-06-24_17h57.42.669,TranslationElicitation_eng-prolific-spa,3.2.4,Win32,60,5e642125757e611ae1a52811,,1,0,98,72,1,97
,,,,,,,,,,,,,,,,,,,,,,,,,,,,,,,,,,,,,,,,,,n,2.485999823,PAN,FALSE,,,,,,,77,pantalon,Spanish,Sounds/spa_pantalon.mp3,2020-06-24_17h57.42.669,TranslationElicitation_eng-prolific-spa,3.2.4,Win32,60,5e642125757e611ae1a52811,,1,0,98,72,1,97
,,,,,,,,,,,,,,,,,,,,,,,,,,,,,,,,,,,,,,,,,,t,2.569000006,PANT,FALSE,,,,,,,77,pantalon,Spanish,Sounds/spa_pantalon.mp3,2020-06-24_17h57.42.669,TranslationElicitation_eng-prolific-spa,3.2.4,Win32,60,5e642125757e611ae1a52811,,1,0,98,72,1,97
,,,,,,,,,,,,,,,,,,,,,,,,,,,,,,,,,,,,,,,,,,s,2.635999918,PANTS,FALSE,,,,,,,77,pantalon,Spanish,Sounds/spa_pantalon.mp3,2020-06-24_17h57.42.669,TranslationElicitation_eng-prolific-spa,3.2.4,Win32,60,5e642125757e611ae1a52811,,1,0,98,72,1,97
,,,,,,,,,,,,,,,,,,,,,,,,,,,,,,,,,,,,,,,,,,return,2.735999823,PANTS,FALSE,,,,,,,77,pantalon,Spanish,Sounds/spa_pantalon.mp3,2020-06-24_17h57.42.669,TranslationElicitation_eng-prolific-spa,3.2.4,Win32,60,5e642125757e611ae1a52811,2.735999823,1,0,98,72,1,97
,,,,,,,,,,,,,,,,,,,,,,,,,,,,,,,,,,,,,,,,,,,,,,,,,,,,77,pantalon,Spanish,Sounds/spa_pantalon.mp3,2020-06-24_17h57.42.669,TranslationElicitation_eng-prolific-spa,3.2.4,Win32,60,5e642125757e611ae1a52811,,1,0,98,72,1,97
,,,,,,,,,,,,,,,,,,,,,,,,,,,,,,,,,,,,,,,,,,p,1.934999943,P,FALSE,,,,,,,60,manzana,Spanish,Sounds/spa_manzana.mp3,2020-06-24_17h57.42.669,TranslationElicitation_eng-prolific-spa,3.2.4,Win32,60,5e642125757e611ae1a52811,,1,0,98,56,1,97
,,,,,,,,,,,,,,,,,,,,,,,,,,,,,,,,,,,,,,,,,,a,2.051999807,PA,FALSE,,,,,,,60,manzana,Spanish,Sounds/spa_manzana.mp3,2020-06-24_17h57.42.669,TranslationElicitation_eng-prolific-spa,3.2.4,Win32,60,5e642125757e611ae1a52811,,1,0,98,56,1,97
,,,,,,,,,,,,,,,,,,,,,,,,,,,,,,,,,,,,,,,,,,n,2.15199995,PAN,FALSE,,,,,,,60,manzana,Spanish,Sounds/spa_manzana.mp3,2020-06-24_17h57.42.669,TranslationElicitation_eng-prolific-spa,3.2.4,Win32,60,5e642125757e611ae1a52811,,1,0,98,56,1,97
,,,,,,,,,,,,,,,,,,,,,,,,,,,,,,,,,,,,,,,,,,t,2.251999855,PANT,FALSE,,,,,,,60,manzana,Spanish,Sounds/spa_manzana.mp3,2020-06-24_17h57.42.669,TranslationElicitation_eng-prolific-spa,3.2.4,Win32,60,5e642125757e611ae1a52811,,1,0,98,56,1,97
,,,,,,,,,,,,,,,,,,,,,,,,,,,,,,,,,,,,,,,,,,h,2.352999926,PANTH,FALSE,,,,,,,60,manzana,Spanish,Sounds/spa_manzana.mp3,2020-06-24_17h57.42.669,TranslationElicitation_eng-prolific-spa,3.2.4,Win32,60,5e642125757e611ae1a52811,,1,0,98,56,1,97
,,,,,,,,,,,,,,,,,,,,,,,,,,,,,,,,,,,,,,,,,,e,2.385999918,PANTHE,FALSE,,,,,,,60,manzana,Spanish,Sounds/spa_manzana.mp3,2020-06-24_17h57.42.669,TranslationElicitation_eng-prolific-spa,3.2.4,Win32,60,5e642125757e611ae1a52811,,1,0,98,56,1,97
,,,,,,,,,,,,,,,,,,,,,,,,,,,,,,,,,,,,,,,,,,r,2.43599987,PANTHER,FALSE,,,,,,,60,manzana,Spanish,Sounds/spa_manzana.mp3,2020-06-24_17h57.42.669,TranslationElicitation_eng-prolific-spa,3.2.4,Win32,60,5e642125757e611ae1a52811,,1,0,98,56,1,97
,,,,,,,,,,,,,,,,,,,,,,,,,,,,,,,,,,,,,,,,,,return,2.536000013,PANTHER,FALSE,,,,,,,60,manzana,Spanish,Sounds/spa_manzana.mp3,2020-06-24_17h57.42.669,TranslationElicitation_eng-prolific-spa,3.2.4,Win32,60,5e642125757e611ae1a52811,2.536000013,1,0,98,56,1,97
,,,,,,,,,,,,,,,,,,,,,,,,,,,,,,,,,,,,,,,,,,,,,,,,,,,,60,manzana,Spanish,Sounds/spa_manzana.mp3,2020-06-24_17h57.42.669,TranslationElicitation_eng-prolific-spa,3.2.4,Win32,60,5e642125757e611ae1a52811,,1,0,98,56,1,97
,,,,,,,,,,,,,,,,,,,,,,,,,,,,,,,,,,,,,,,,,,b,2.201999903,B,FALSE,,,,,,,102,ventana,Spanish,Sounds/spa_ventana.mp3,2020-06-24_17h57.42.669,TranslationElicitation_eng-prolific-spa,3.2.4,Win32,60,5e642125757e611ae1a52811,,1,0,98,96,1,97
,,,,,,,,,,,,,,,,,,,,,,,,,,,,,,,,,,,,,,,,,,a,2.302000046,BA,FALSE,,,,,,,102,ventana,Spanish,Sounds/spa_ventana.mp3,2020-06-24_17h57.42.669,TranslationElicitation_eng-prolific-spa,3.2.4,Win32,60,5e642125757e611ae1a52811,,1,0,98,96,1,97
,,,,,,,,,,,,,,,,,,,,,,,,,,,,,,,,,,,,,,,,,,n,2.443000078,BAN,FALSE,,,,,,,102,ventana,Spanish,Sounds/spa_ventana.mp3,2020-06-24_17h57.42.669,TranslationElicitation_eng-prolific-spa,3.2.4,Win32,60,5e642125757e611ae1a52811,,1,0,98,96,1,97
,,,,,,,,,,,,,,,,,,,,,,,,,,,,,,,,,,,,,,,,,,d,2.536000013,BAND,FALSE,,,,,,,102,ventana,Spanish,Sounds/spa_ventana.mp3,2020-06-24_17h57.42.669,TranslationElicitation_eng-prolific-spa,3.2.4,Win32,60,5e642125757e611ae1a52811,,1,0,98,96,1,97
,,,,,,,,,,,,,,,,,,,,,,,,,,,,,,,,,,,,,,,,,,a,2.585999966,BANDA,FALSE,,,,,,,102,ventana,Spanish,Sounds/spa_ventana.mp3,2020-06-24_17h57.42.669,TranslationElicitation_eng-prolific-spa,3.2.4,Win32,60,5e642125757e611ae1a52811,,1,0,98,96,1,97
,,,,,,,,,,,,,,,,,,,,,,,,,,,,,,,,,,,,,,,,,,n,2.68599987,BANDAN,FALSE,,,,,,,102,ventana,Spanish,Sounds/spa_ventana.mp3,2020-06-24_17h57.42.669,TranslationElicitation_eng-prolific-spa,3.2.4,Win32,60,5e642125757e611ae1a52811,,1,0,98,96,1,97
,,,,,,,,,,,,,,,,,,,,,,,,,,,,,,,,,,,,,,,,,,a,2.753000021,BANDANA,FALSE,,,,,,,102,ventana,Spanish,Sounds/spa_ventana.mp3,2020-06-24_17h57.42.669,TranslationElicitation_eng-prolific-spa,3.2.4,Win32,60,5e642125757e611ae1a52811,,1,0,98,96,1,97
,,,,,,,,,,,,,,,,,,,,,,,,,,,,,,,,,,,,,,,,,,return,2.920000076,BANDANA,FALSE,,,,,,,102,ventana,Spanish,Sounds/spa_ventana.mp3,2020-06-24_17h57.42.669,TranslationElicitation_eng-prolific-spa,3.2.4,Win32,60,5e642125757e611ae1a52811,2.920000076,1,0,98,96,1,97
,,,,,,,,,,,,,,,,,,,,,,,,,,,,,,,,,,,,,,,,,,,,,,,,,,,,102,ventana,Spanish,Sounds/spa_ventana.mp3,2020-06-24_17h57.42.669,TranslationElicitation_eng-prolific-spa,3.2.4,Win32,60,5e642125757e611ae1a52811,,1,0,98,96,1,97
,,,,,,,,,,,,,,,,,,,,,,,,,,,,,,,,,,,,,,,,,,m,6.655999899,M,FALSE,,,,,,,48,gusano,Spanish,Sounds/spa_gusano.mp3,2020-06-24_17h57.42.669,TranslationElicitation_eng-prolific-spa,3.2.4,Win32,60,5e642125757e611ae1a52811,,1,0,98,44,1,97
,,,,,,,,,,,,,,,,,,,,,,,,,,,,,,,,,,,,,,,,,,e,6.705999851,ME,FALSE,,,,,,,48,gusano,Spanish,Sounds/spa_gusano.mp3,2020-06-24_17h57.42.669,TranslationElicitation_eng-prolific-spa,3.2.4,Win32,60,5e642125757e611ae1a52811,,1,0,98,44,1,97
,,,,,,,,,,,,,,,,,,,,,,,,,,,,,,,,,,,,,,,,,,x,7.056999922,MEX,FALSE,,,,,,,48,gusano,Spanish,Sounds/spa_gusano.mp3,2020-06-24_17h57.42.669,TranslationElicitation_eng-prolific-spa,3.2.4,Win32,60,5e642125757e611ae1a52811,,1,0,98,44,1,97
,,,,,,,,,,,,,,,,,,,,,,,,,,,,,,,,,,,,,,,,,,i,7.157000065,MEXI,FALSE,,,,,,,48,gusano,Spanish,Sounds/spa_gusano.mp3,2020-06-24_17h57.42.669,TranslationElicitation_eng-prolific-spa,3.2.4,Win32,60,5e642125757e611ae1a52811,,1,0,98,44,1,97
,,,,,,,,,,,,,,,,,,,,,,,,,,,,,,,,,,,,,,,,,,c,7.256999969,MEXIC,FALSE,,,,,,,48,gusano,Spanish,Sounds/spa_gusano.mp3,2020-06-24_17h57.42.669,TranslationElicitation_eng-prolific-spa,3.2.4,Win32,60,5e642125757e611ae1a52811,,1,0,98,44,1,97
,,,,,,,,,,,,,,,,,,,,,,,,,,,,,,,,,,,,,,,,,,o,7.356999874,MEXICO,FALSE,,,,,,,48,gusano,Spanish,Sounds/spa_gusano.mp3,2020-06-24_17h57.42.669,TranslationElicitation_eng-prolific-spa,3.2.4,Win32,60,5e642125757e611ae1a52811,,1,0,98,44,1,97
,,,,,,,,,,,,,,,,,,,,,,,,,,,,,,,,,,,,,,,,,,return,7.506999969,MEXICO,FALSE,,,,,,,48,gusano,Spanish,Sounds/spa_gusano.mp3,2020-06-24_17h57.42.669,TranslationElicitation_eng-prolific-spa,3.2.4,Win32,60,5e642125757e611ae1a52811,7.506999969,1,0,98,44,1,97
,,,,,,,,,,,,,,,,,,,,,,,,,,,,,,,,,,,,,,,,,,,,,,,,,,,,48,gusano,Spanish,Sounds/spa_gusano.mp3,2020-06-24_17h57.42.669,TranslationElicitation_eng-prolific-spa,3.2.4,Win32,60,5e642125757e611ae1a52811,,1,0,98,44,1,97
,,,,,,,,,,,,,,,,,,,,,,,,,,,,,,,,,,,,,,,,,,n,1.952000141,N,FALSE,,,,,,,68,naranja,Spanish,Sounds/spa_naranja.mp3,2020-06-24_17h57.42.669,TranslationElicitation_eng-prolific-spa,3.2.4,Win32,60,5e642125757e611ae1a52811,,1,0,98,64,1,97
,,,,,,,,,,,,,,,,,,,,,,,,,,,,,,,,,,,,,,,,,,a,2.085999966,NA,FALSE,,,,,,,68,naranja,Spanish,Sounds/spa_naranja.mp3,2020-06-24_17h57.42.669,TranslationElicitation_eng-prolific-spa,3.2.4,Win32,60,5e642125757e611ae1a52811,,1,0,98,64,1,97
,,,,,,,,,,,,,,,,,,,,,,,,,,,,,,,,,,,,,,,,,,return,2.219000101,NA,FALSE,,,,,,,68,naranja,Spanish,Sounds/spa_naranja.mp3,2020-06-24_17h57.42.669,TranslationElicitation_eng-prolific-spa,3.2.4,Win32,60,5e642125757e611ae1a52811,2.219000101,1,0,98,64,1,97
,,,,,,,,,,,,,,,,,,,,,,,,,,,,,,,,,,,,,,,,,,,,,,,,,,,,68,naranja,Spanish,Sounds/spa_naranja.mp3,2020-06-24_17h57.42.669,TranslationElicitation_eng-prolific-spa,3.2.4,Win32,60,5e642125757e611ae1a52811,,1,0,98,64,1,97
,,,,,,,,,,,,,,,,,,,,,,,,,,,,,,,,,,,,,,,,,,b,2.802999973,B,FALSE,,,,,,,12,brazo,Spanish,Sounds/spa_brazo.mp3,2020-06-24_17h57.42.669,TranslationElicitation_eng-prolific-spa,3.2.4,Win32,60,5e642125757e611ae1a52811,,1,0,98,10,1,97
,,,,,,,,,,,,,,,,,,,,,,,,,,,,,,,,,,,,,,,,,,l,3.319999933,BL,FALSE,,,,,,,12,brazo,Spanish,Sounds/spa_brazo.mp3,2020-06-24_17h57.42.669,TranslationElicitation_eng-prolific-spa,3.2.4,Win32,60,5e642125757e611ae1a52811,,1,0,98,10,1,97
,,,,,,,,,,,,,,,,,,,,,,,,,,,,,,,,,,,,,,,,,,a,3.453999996,BLA,FALSE,,,,,,,12,brazo,Spanish,Sounds/spa_brazo.mp3,2020-06-24_17h57.42.669,TranslationElicitation_eng-prolific-spa,3.2.4,Win32,60,5e642125757e611ae1a52811,,1,0,98,10,1,97
,,,,,,,,,,,,,,,,,,,,,,,,,,,,,,,,,,,,,,,,,,s,3.536999941,BLAS,FALSE,,,,,,,12,brazo,Spanish,Sounds/spa_brazo.mp3,2020-06-24_17h57.42.669,TranslationElicitation_eng-prolific-spa,3.2.4,Win32,60,5e642125757e611ae1a52811,,1,0,98,10,1,97
,,,,,,,,,,,,,,,,,,,,,,,,,,,,,,,,,,,,,,,,,,o,3.753999949,BLASO,FALSE,,,,,,,12,brazo,Spanish,Sounds/spa_brazo.mp3,2020-06-24_17h57.42.669,TranslationElicitation_eng-prolific-spa,3.2.4,Win32,60,5e642125757e611ae1a52811,,1,0,98,10,1,97
,,,,,,,,,,,,,,,,,,,,,,,,,,,,,,,,,,,,,,,,,,return,3.953999996,BLASO,FALSE,,,,,,,12,brazo,Spanish,Sounds/spa_brazo.mp3,2020-06-24_17h57.42.669,TranslationElicitation_eng-prolific-spa,3.2.4,Win32,60,5e642125757e611ae1a52811,3.953999996,1,0,98,10,1,97
,,,,,,,,,,,,,,,,,,,,,,,,,,,,,,,,,,,,,,,,,,,,,,,,,,,,12,brazo,Spanish,Sounds/spa_brazo.mp3,2020-06-24_17h57.42.669,TranslationElicitation_eng-prolific-spa,3.2.4,Win32,60,5e642125757e611ae1a52811,,1,0,98,10,1,97
,,,,,,,,,,,,,,,,,,,,,,,,,,,,,,,,,,,,,,,,,,c,1.869000196,C,FALSE,,,,,,,31,cubo,Spanish,Sounds/spa_cubo.mp3,2020-06-24_17h57.42.669,TranslationElicitation_eng-prolific-spa,3.2.4,Win32,60,5e642125757e611ae1a52811,,1,0,98,27,1,97
,,,,,,,,,,,,,,,,,,,,,,,,,,,,,,,,,,,,,,,,,,o,1.952000141,CO,FALSE,,,,,,,31,cubo,Spanish,Sounds/spa_cubo.mp3,2020-06-24_17h57.42.669,TranslationElicitation_eng-prolific-spa,3.2.4,Win32,60,5e642125757e611ae1a52811,,1,0,98,27,1,97
,,,,,,,,,,,,,,,,,,,,,,,,,,,,,,,,,,,,,,,,,,b,2.019000053,COB,FALSE,,,,,,,31,cubo,Spanish,Sounds/spa_cubo.mp3,2020-06-24_17h57.42.669,TranslationElicitation_eng-prolific-spa,3.2.4,Win32,60,5e642125757e611ae1a52811,,1,0,98,27,1,97
,,,,,,,,,,,,,,,,,,,,,,,,,,,,,,,,,,,,,,,,,,a,2.152000189,COBA,FALSE,,,,,,,31,cubo,Spanish,Sounds/spa_cubo.mp3,2020-06-24_17h57.42.669,TranslationElicitation_eng-prolific-spa,3.2.4,Win32,60,5e642125757e611ae1a52811,,1,0,98,27,1,97
,,,,,,,,,,,,,,,,,,,,,,,,,,,,,,,,,,,,,,,,,,l,2.236000061,COBAL,FALSE,,,,,,,31,cubo,Spanish,Sounds/spa_cubo.mp3,2020-06-24_17h57.42.669,TranslationElicitation_eng-prolific-spa,3.2.4,Win32,60,5e642125757e611ae1a52811,,1,0,98,27,1,97
,,,,,,,,,,,,,,,,,,,,,,,,,,,,,,,,,,,,,,,,,,t,2.369000196,COBALT,FALSE,,,,,,,31,cubo,Spanish,Sounds/spa_cubo.mp3,2020-06-24_17h57.42.669,TranslationElicitation_eng-prolific-spa,3.2.4,Win32,60,5e642125757e611ae1a52811,,1,0,98,27,1,97
,,,,,,,,,,,,,,,,,,,,,,,,,,,,,,,,,,,,,,,,,,return,2.70600009,COBALT,FALSE,,,,,,,31,cubo,Spanish,Sounds/spa_cubo.mp3,2020-06-24_17h57.42.669,TranslationElicitation_eng-prolific-spa,3.2.4,Win32,60,5e642125757e611ae1a52811,2.70600009,1,0,98,27,1,97
,,,,,,,,,,,,,,,,,,,,,,,,,,,,,,,,,,,,,,,,,,,,,,,,,,,,31,cubo,Spanish,Sounds/spa_cubo.mp3,2020-06-24_17h57.42.669,TranslationElicitation_eng-prolific-spa,3.2.4,Win32,60,5e642125757e611ae1a52811,,1,0,98,27,1,97
,,,,,,,,,,,,,,,,,,,,,,,,,,,,,,,,,,,,,,,,,,c,1.401000023,C,FALSE,,,,,,,16,caja,Spanish,Sounds/spa_caja.mp3,2020-06-24_17h57.42.669,TranslationElicitation_eng-prolific-spa,3.2.4,Win32,60,5e642125757e611ae1a52811,,1,0,98,14,1,97
,,,,,,,,,,,,,,,,,,,,,,,,,,,,,,,,,,,,,,,,,,a,1.551000118,CA,FALSE,,,,,,,16,caja,Spanish,Sounds/spa_caja.mp3,2020-06-24_17h57.42.669,TranslationElicitation_eng-prolific-spa,3.2.4,Win32,60,5e642125757e611ae1a52811,,1,0,98,14,1,97
,,,,,,,,,,,,,,,,,,,,,,,,,,,,,,,,,,,,,,,,,,r,1.652000189,CAR,FALSE,,,,,,,16,caja,Spanish,Sounds/spa_caja.mp3,2020-06-24_17h57.42.669,TranslationElicitation_eng-prolific-spa,3.2.4,Win32,60,5e642125757e611ae1a52811,,1,0,98,14,1,97
,,,,,,,,,,,,,,,,,,,,,,,,,,,,,,,,,,,,,,,,,,return,1.768000126,CAR,FALSE,,,,,,,16,caja,Spanish,Sounds/spa_caja.mp3,2020-06-24_17h57.42.669,TranslationElicitation_eng-prolific-spa,3.2.4,Win32,60,5e642125757e611ae1a52811,1.768000126,1,0,98,14,1,97
,,,,,,,,,,,,,,,,,,,,,,,,,,,,,,,,,,,,,,,,,,,,,,,,,,,,16,caja,Spanish,Sounds/spa_caja.mp3,2020-06-24_17h57.42.669,TranslationElicitation_eng-prolific-spa,3.2.4,Win32,60,5e642125757e611ae1a52811,,1,0,98,14,1,97
,,,,,,,,,,,,,,,,,,,,,,,,,,,,,,,,,,,,,,,,,,p,1.736000061,P,FALSE,,,,,,,72,osito,Spanish,Sounds/spa_osito.mp3,2020-06-24_17h57.42.669,TranslationElicitation_eng-prolific-spa,3.2.4,Win32,60,5e642125757e611ae1a52811,,1,0,98,67,1,97
,,,,,,,,,,,,,,,,,,,,,,,,,,,,,,,,,,,,,,,,,,r,1.868999958,PR,FALSE,,,,,,,72,osito,Spanish,Sounds/spa_osito.mp3,2020-06-24_17h57.42.669,TranslationElicitation_eng-prolific-spa,3.2.4,Win32,60,5e642125757e611ae1a52811,,1,0,98,67,1,97
,,,,,,,,,,,,,,,,,,,,,,,,,,,,,,,,,,,,,,,,,,o,2.036000013,PRO,FALSE,,,,,,,72,osito,Spanish,Sounds/spa_osito.mp3,2020-06-24_17h57.42.669,TranslationElicitation_eng-prolific-spa,3.2.4,Win32,60,5e642125757e611ae1a52811,,1,0,98,67,1,97
,,,,,,,,,,,,,,,,,,,,,,,,,,,,,,,,,,,,,,,,,,s,2.653000116,PROS,FALSE,,,,,,,72,osito,Spanish,Sounds/spa_osito.mp3,2020-06-24_17h57.42.669,TranslationElicitation_eng-prolific-spa,3.2.4,Win32,60,5e642125757e611ae1a52811,,1,0,98,67,1,97
,,,,,,,,,,,,,,,,,,,,,,,,,,,,,,,,,,,,,,,,,,c,2.887000084,PROSC,FALSE,,,,,,,72,osito,Spanish,Sounds/spa_osito.mp3,2020-06-24_17h57.42.669,TranslationElicitation_eng-prolific-spa,3.2.4,Win32,60,5e642125757e611ae1a52811,,1,0,98,67,1,97
,,,,,,,,,,,,,,,,,,,,,,,,,,,,,,,,,,,,,,,,,,e,3.087000132,PROSCE,FALSE,,,,,,,72,osito,Spanish,Sounds/spa_osito.mp3,2020-06-24_17h57.42.669,TranslationElicitation_eng-prolific-spa,3.2.4,Win32,60,5e642125757e611ae1a52811,,1,0,98,67,1,97
,,,,,,,,,,,,,,,,,,,,,,,,,,,,,,,,,,,,,,,,,,t,3.269999981,PROSCET,FALSE,,,,,,,72,osito,Spanish,Sounds/spa_osito.mp3,2020-06-24_17h57.42.669,TranslationElicitation_eng-prolific-spa,3.2.4,Win32,60,5e642125757e611ae1a52811,,1,0,98,67,1,97
,,,,,,,,,,,,,,,,,,,,,,,,,,,,,,,,,,,,,,,,,,o,3.354000092,PROSCETO,FALSE,,,,,,,72,osito,Spanish,Sounds/spa_osito.mp3,2020-06-24_17h57.42.669,TranslationElicitation_eng-prolific-spa,3.2.4,Win32,60,5e642125757e611ae1a52811,,1,0,98,67,1,97
,,,,,,,,,,,,,,,,,,,,,,,,,,,,,,,,,,,,,,,,,,return,3.571000099,PROSCETO,FALSE,,,,,,,72,osito,Spanish,Sounds/spa_osito.mp3,2020-06-24_17h57.42.669,TranslationElicitation_eng-prolific-spa,3.2.4,Win32,60,5e642125757e611ae1a52811,3.571000099,1,0,98,67,1,97
