consentKey.keys,consentKey.rt,languageL1Key.keys,languageL1Key.rt,languageL2,languageL2OralKey.keys,languageL2OralKey.rt,languageL2WrittenKey.keys,languageL2WrittenKey.rt,languageL3OralKey.keys,languageL3OralKey.rt,languageL3WrittenKey.keys,languageL3WrittenKey.rt,languageCatalanOralKey.keys,languageCatalanOralKey.rt,languageCatalanWrittenKey.keys,languageCatalanWrittenKey.rt,languageCatalanTimeKey.keys,languageCatalanTimeKey.rt,languageSpanishOralKey.keys,languageSpanishOralKey.rt,languageSpanishWrittenKey.keys,languageSpanishWrittenKey.rt,languageSpanishTimeKey.keys,languageSpanishTimeKey.rt,age,demoSexKey.keys,demoSexKey.rt,demoEducationKey.keys,demoEducationKey.rt,city,demoVisionKey.keys,demoVisionKey.rt,demoLanguageKey.keys,demoLanguageKey.rt,setupLocationKey.keys,setupLocationKey.rt,setupNoiseKey.keys,setupNoiseKey.rt,instructionsKeys.keys,instructionsKeys.rt,keyPressed,keyPressTime,inputText,error,trialsPracticeSpanish.thisRepN,trialsPracticeSpanish.thisTrialN,trialsPracticeSpanish.thisN,trialsPracticeSpanish.thisIndex,trialsPracticeSpanish.ran,trialsPracticeSpanish.order,trial_id,word,test_language,soundfile,date,expName,psychopyVersion,OS,frameRate,participant,trialOffset,trialsSpanish.thisRepN,trialsSpanish.thisTrialN,trialsSpanish.thisN,trialsSpanish.thisIndex,trialsSpanish.ran,trialsSpanish.order
space,1.851999998,e,3.058000088,,,,,,,,,,1,3.705999851,1,2.992000103,1,12.23899984,2,2.730000019,1,5.379999876,2,3.25999999,24,m,2.321000099,4,2.588999987,LEEDS,y,2.697000027,n,2.177999973,1,2.292000055,1,4.894999981,space,12.22300005,h,1.982000113,H,FALSE,1,0,5,3,1,4,70,ola,Spanish,Sounds/spa_ola.mp3,2020-06-08_18h10.09.378,TranslationElicitation_eng-prolific,3.2.4,Win32,60,5e6571b32013562f77434b40,,,,,,,
,,,,,,,,,,,,,,,,,,,,,,,,,,,,,,,,,,,,,,,,,e,2.68200016,HE,FALSE,1,0,5,3,1,4,70,ola,Spanish,Sounds/spa_ola.mp3,2020-06-08_18h10.09.378,TranslationElicitation_eng-prolific,3.2.4,Win32,60,5e6571b32013562f77434b40,,,,,,,
,,,,,,,,,,,,,,,,,,,,,,,,,,,,,,,,,,,,,,,,,l,2.881999969,HEL,FALSE,1,0,5,3,1,4,70,ola,Spanish,Sounds/spa_ola.mp3,2020-06-08_18h10.09.378,TranslationElicitation_eng-prolific,3.2.4,Win32,60,5e6571b32013562f77434b40,,,,,,,
,,,,,,,,,,,,,,,,,,,,,,,,,,,,,,,,,,,,,,,,,l,3.032000065,HELL,FALSE,1,0,5,3,1,4,70,ola,Spanish,Sounds/spa_ola.mp3,2020-06-08_18h10.09.378,TranslationElicitation_eng-prolific,3.2.4,Win32,60,5e6571b32013562f77434b40,,,,,,,
,,,,,,,,,,,,,,,,,,,,,,,,,,,,,,,,,,,,,,,,,o,3.248000145,HELLO,FALSE,1,0,5,3,1,4,70,ola,Spanish,Sounds/spa_ola.mp3,2020-06-08_18h10.09.378,TranslationElicitation_eng-prolific,3.2.4,Win32,60,5e6571b32013562f77434b40,,,,,,,
,,,,,,,,,,,,,,,,,,,,,,,,,,,,,,,,,,,,,,,,,return,3.86500001,HELLO,FALSE,1,0,5,3,1,4,70,ola,Spanish,Sounds/spa_ola.mp3,2020-06-08_18h10.09.378,TranslationElicitation_eng-prolific,3.2.4,Win32,60,5e6571b32013562f77434b40,3.86500001,,,,,,
,,,,,,,,,,,,,,,,,,,,,,,,,,,,,,,,,,,,,,,,,,,,,1,0,5,3,1,4,70,ola,Spanish,Sounds/spa_ola.mp3,2020-06-08_18h10.09.378,TranslationElicitation_eng-prolific,3.2.4,Win32,60,5e6571b32013562f77434b40,,,,,,,
,,,,,,,,,,,,,,,,,,,,,,,,,,,,,,,,,,,,,,,,,t,2.282000065,T,FALSE,1,0,5,4,1,4,96,tigre,Spanish,Sounds/spa_tigre.mp3,2020-06-08_18h10.09.378,TranslationElicitation_eng-prolific,3.2.4,Win32,60,5e6571b32013562f77434b40,,,,,,,
,,,,,,,,,,,,,,,,,,,,,,,,,,,,,,,,,,,,,,,,,i,2.414999962,TI,FALSE,1,0,5,4,1,4,96,tigre,Spanish,Sounds/spa_tigre.mp3,2020-06-08_18h10.09.378,TranslationElicitation_eng-prolific,3.2.4,Win32,60,5e6571b32013562f77434b40,,,,,,,
,,,,,,,,,,,,,,,,,,,,,,,,,,,,,,,,,,,,,,,,,g,2.61500001,TIG,FALSE,1,0,5,4,1,4,96,tigre,Spanish,Sounds/spa_tigre.mp3,2020-06-08_18h10.09.378,TranslationElicitation_eng-prolific,3.2.4,Win32,60,5e6571b32013562f77434b40,,,,,,,
,,,,,,,,,,,,,,,,,,,,,,,,,,,,,,,,,,,,,,,,,e,2.947999954,TIGE,FALSE,1,0,5,4,1,4,96,tigre,Spanish,Sounds/spa_tigre.mp3,2020-06-08_18h10.09.378,TranslationElicitation_eng-prolific,3.2.4,Win32,60,5e6571b32013562f77434b40,,,,,,,
,,,,,,,,,,,,,,,,,,,,,,,,,,,,,,,,,,,,,,,,,r,3.032000065,TIGER,FALSE,1,0,5,4,1,4,96,tigre,Spanish,Sounds/spa_tigre.mp3,2020-06-08_18h10.09.378,TranslationElicitation_eng-prolific,3.2.4,Win32,60,5e6571b32013562f77434b40,,,,,,,
,,,,,,,,,,,,,,,,,,,,,,,,,,,,,,,,,,,,,,,,,return,3.364000082,TIGER,FALSE,1,0,5,4,1,4,96,tigre,Spanish,Sounds/spa_tigre.mp3,2020-06-08_18h10.09.378,TranslationElicitation_eng-prolific,3.2.4,Win32,60,5e6571b32013562f77434b40,3.364000082,,,,,,
,,,,,,,,,,,,,,,,,,,,,,,,,,,,,,,,,,,,,,,,,,,,,1,0,5,4,1,4,96,tigre,Spanish,Sounds/spa_tigre.mp3,2020-06-08_18h10.09.378,TranslationElicitation_eng-prolific,3.2.4,Win32,60,5e6571b32013562f77434b40,,,,,,,
,,,,,,,,,,,,,,,,,,,,,,,,,,,,,,,,,,,,,,,,,h,7.329999924,H,FALSE,1,0,5,0,1,4,1,arbol,Spanish,Sounds/spa_arbol.mp3,2020-06-08_18h10.09.378,TranslationElicitation_eng-prolific,3.2.4,Win32,60,5e6571b32013562f77434b40,,,,,,,
,,,,,,,,,,,,,,,,,,,,,,,,,,,,,,,,,,,,,,,,,a,7.447000027,HA,FALSE,1,0,5,0,1,4,1,arbol,Spanish,Sounds/spa_arbol.mp3,2020-06-08_18h10.09.378,TranslationElicitation_eng-prolific,3.2.4,Win32,60,5e6571b32013562f77434b40,,,,,,,
,,,,,,,,,,,,,,,,,,,,,,,,,,,,,,,,,,,,,,,,,l,7.612999916,HAL,FALSE,1,0,5,0,1,4,1,arbol,Spanish,Sounds/spa_arbol.mp3,2020-06-08_18h10.09.378,TranslationElicitation_eng-prolific,3.2.4,Win32,60,5e6571b32013562f77434b40,,,,,,,
,,,,,,,,,,,,,,,,,,,,,,,,,,,,,,,,,,,,,,,,,e,7.746999979,HALE,FALSE,1,0,5,0,1,4,1,arbol,Spanish,Sounds/spa_arbol.mp3,2020-06-08_18h10.09.378,TranslationElicitation_eng-prolific,3.2.4,Win32,60,5e6571b32013562f77434b40,,,,,,,
,,,,,,,,,,,,,,,,,,,,,,,,,,,,,,,,,,,,,,,,,backspace,8.246000051,HAL,TRUE,1,0,5,0,1,4,1,arbol,Spanish,Sounds/spa_arbol.mp3,2020-06-08_18h10.09.378,TranslationElicitation_eng-prolific,3.2.4,Win32,60,5e6571b32013562f77434b40,,,,,,,
,,,,,,,,,,,,,,,,,,,,,,,,,,,,,,,,,,,,,,,,,backspace,8.395999908,HA,TRUE,1,0,5,0,1,4,1,arbol,Spanish,Sounds/spa_arbol.mp3,2020-06-08_18h10.09.378,TranslationElicitation_eng-prolific,3.2.4,Win32,60,5e6571b32013562f77434b40,,,,,,,
,,,,,,,,,,,,,,,,,,,,,,,,,,,,,,,,,,,,,,,,,backspace,8.562999964,H,TRUE,1,0,5,0,1,4,1,arbol,Spanish,Sounds/spa_arbol.mp3,2020-06-08_18h10.09.378,TranslationElicitation_eng-prolific,3.2.4,Win32,60,5e6571b32013562f77434b40,,,,,,,
,,,,,,,,,,,,,,,,,,,,,,,,,,,,,,,,,,,,,,,,,backspace,8.695999861,,TRUE,1,0,5,0,1,4,1,arbol,Spanish,Sounds/spa_arbol.mp3,2020-06-08_18h10.09.378,TranslationElicitation_eng-prolific,3.2.4,Win32,60,5e6571b32013562f77434b40,,,,,,,
,,,,,,,,,,,,,,,,,,,,,,,,,,,,,,,,,,,,,,,,,w,9.112999916,W,TRUE,1,0,5,0,1,4,1,arbol,Spanish,Sounds/spa_arbol.mp3,2020-06-08_18h10.09.378,TranslationElicitation_eng-prolific,3.2.4,Win32,60,5e6571b32013562f77434b40,,,,,,,
,,,,,,,,,,,,,,,,,,,,,,,,,,,,,,,,,,,,,,,,,h,9.378999949,WH,TRUE,1,0,5,0,1,4,1,arbol,Spanish,Sounds/spa_arbol.mp3,2020-06-08_18h10.09.378,TranslationElicitation_eng-prolific,3.2.4,Win32,60,5e6571b32013562f77434b40,,,,,,,
,,,,,,,,,,,,,,,,,,,,,,,,,,,,,,,,,,,,,,,,,a,9.512000084,WHA,TRUE,1,0,5,0,1,4,1,arbol,Spanish,Sounds/spa_arbol.mp3,2020-06-08_18h10.09.378,TranslationElicitation_eng-prolific,3.2.4,Win32,60,5e6571b32013562f77434b40,,,,,,,
,,,,,,,,,,,,,,,,,,,,,,,,,,,,,,,,,,,,,,,,,l,9.695999861,WHAL,TRUE,1,0,5,0,1,4,1,arbol,Spanish,Sounds/spa_arbol.mp3,2020-06-08_18h10.09.378,TranslationElicitation_eng-prolific,3.2.4,Win32,60,5e6571b32013562f77434b40,,,,,,,
,,,,,,,,,,,,,,,,,,,,,,,,,,,,,,,,,,,,,,,,,e,9.861999989,WHALE,TRUE,1,0,5,0,1,4,1,arbol,Spanish,Sounds/spa_arbol.mp3,2020-06-08_18h10.09.378,TranslationElicitation_eng-prolific,3.2.4,Win32,60,5e6571b32013562f77434b40,,,,,,,
,,,,,,,,,,,,,,,,,,,,,,,,,,,,,,,,,,,,,,,,,return,10.24600005,WHALE,TRUE,1,0,5,0,1,4,1,arbol,Spanish,Sounds/spa_arbol.mp3,2020-06-08_18h10.09.378,TranslationElicitation_eng-prolific,3.2.4,Win32,60,5e6571b32013562f77434b40,10.24600005,,,,,,
,,,,,,,,,,,,,,,,,,,,,,,,,,,,,,,,,,,,,,,,,,,,,1,0,5,0,1,4,1,arbol,Spanish,Sounds/spa_arbol.mp3,2020-06-08_18h10.09.378,TranslationElicitation_eng-prolific,3.2.4,Win32,60,5e6571b32013562f77434b40,,,,,,,
,,,,,,,,,,,,,,,,,,,,,,,,,,,,,,,,,,,,,,,,,j,5.362999916,J,FALSE,1,0,5,2,1,4,26,chaqueta,Spanish,Sounds/spa_chaqueta.mp3,2020-06-08_18h10.09.378,TranslationElicitation_eng-prolific,3.2.4,Win32,60,5e6571b32013562f77434b40,,,,,,,
,,,,,,,,,,,,,,,,,,,,,,,,,,,,,,,,,,,,,,,,,a,5.445999861,JA,FALSE,1,0,5,2,1,4,26,chaqueta,Spanish,Sounds/spa_chaqueta.mp3,2020-06-08_18h10.09.378,TranslationElicitation_eng-prolific,3.2.4,Win32,60,5e6571b32013562f77434b40,,,,,,,
,,,,,,,,,,,,,,,,,,,,,,,,,,,,,,,,,,,,,,,,,c,5.612999916,JAC,FALSE,1,0,5,2,1,4,26,chaqueta,Spanish,Sounds/spa_chaqueta.mp3,2020-06-08_18h10.09.378,TranslationElicitation_eng-prolific,3.2.4,Win32,60,5e6571b32013562f77434b40,,,,,,,
,,,,,,,,,,,,,,,,,,,,,,,,,,,,,,,,,,,,,,,,,k,5.730000019,JACK,FALSE,1,0,5,2,1,4,26,chaqueta,Spanish,Sounds/spa_chaqueta.mp3,2020-06-08_18h10.09.378,TranslationElicitation_eng-prolific,3.2.4,Win32,60,5e6571b32013562f77434b40,,,,,,,
,,,,,,,,,,,,,,,,,,,,,,,,,,,,,,,,,,,,,,,,,e,5.895999908,JACKE,FALSE,1,0,5,2,1,4,26,chaqueta,Spanish,Sounds/spa_chaqueta.mp3,2020-06-08_18h10.09.378,TranslationElicitation_eng-prolific,3.2.4,Win32,60,5e6571b32013562f77434b40,,,,,,,
,,,,,,,,,,,,,,,,,,,,,,,,,,,,,,,,,,,,,,,,,t,6.046000004,JACKET,FALSE,1,0,5,2,1,4,26,chaqueta,Spanish,Sounds/spa_chaqueta.mp3,2020-06-08_18h10.09.378,TranslationElicitation_eng-prolific,3.2.4,Win32,60,5e6571b32013562f77434b40,,,,,,,
,,,,,,,,,,,,,,,,,,,,,,,,,,,,,,,,,,,,,,,,,return,6.429999828,JACKET,FALSE,1,0,5,2,1,4,26,chaqueta,Spanish,Sounds/spa_chaqueta.mp3,2020-06-08_18h10.09.378,TranslationElicitation_eng-prolific,3.2.4,Win32,60,5e6571b32013562f77434b40,6.429999828,,,,,,
,,,,,,,,,,,,,,,,,,,,,,,,,,,,,,,,,,,,,,,,,,,,,1,0,5,2,1,4,26,chaqueta,Spanish,Sounds/spa_chaqueta.mp3,2020-06-08_18h10.09.378,TranslationElicitation_eng-prolific,3.2.4,Win32,60,5e6571b32013562f77434b40,,,,,,,
,,,,,,,,,,,,,,,,,,,,,,,,,,,,,,,,,,,,,,,,,b,1.815000057,B,FALSE,1,0,5,1,1,4,30,corona,Spanish,Sounds/spa_corona.mp3,2020-06-08_18h10.09.378,TranslationElicitation_eng-prolific,3.2.4,Win32,60,5e6571b32013562f77434b40,,,,,,,
,,,,,,,,,,,,,,,,,,,,,,,,,,,,,,,,,,,,,,,,,e,2.148000002,BE,FALSE,1,0,5,1,1,4,30,corona,Spanish,Sounds/spa_corona.mp3,2020-06-08_18h10.09.378,TranslationElicitation_eng-prolific,3.2.4,Win32,60,5e6571b32013562f77434b40,,,,,,,
,,,,,,,,,,,,,,,,,,,,,,,,,,,,,,,,,,,,,,,,,e,2.298000097,BEE,FALSE,1,0,5,1,1,4,30,corona,Spanish,Sounds/spa_corona.mp3,2020-06-08_18h10.09.378,TranslationElicitation_eng-prolific,3.2.4,Win32,60,5e6571b32013562f77434b40,,,,,,,
,,,,,,,,,,,,,,,,,,,,,,,,,,,,,,,,,,,,,,,,,r,2.381000042,BEER,FALSE,1,0,5,1,1,4,30,corona,Spanish,Sounds/spa_corona.mp3,2020-06-08_18h10.09.378,TranslationElicitation_eng-prolific,3.2.4,Win32,60,5e6571b32013562f77434b40,,,,,,,
,,,,,,,,,,,,,,,,,,,,,,,,,,,,,,,,,,,,,,,,,backspace,3.164000034,BEE,TRUE,1,0,5,1,1,4,30,corona,Spanish,Sounds/spa_corona.mp3,2020-06-08_18h10.09.378,TranslationElicitation_eng-prolific,3.2.4,Win32,60,5e6571b32013562f77434b40,,,,,,,
,,,,,,,,,,,,,,,,,,,,,,,,,,,,,,,,,,,,,,,,,backspace,3.347000122,BE,TRUE,1,0,5,1,1,4,30,corona,Spanish,Sounds/spa_corona.mp3,2020-06-08_18h10.09.378,TranslationElicitation_eng-prolific,3.2.4,Win32,60,5e6571b32013562f77434b40,,,,,,,
,,,,,,,,,,,,,,,,,,,,,,,,,,,,,,,,,,,,,,,,,backspace,3.514000177,B,TRUE,1,0,5,1,1,4,30,corona,Spanish,Sounds/spa_corona.mp3,2020-06-08_18h10.09.378,TranslationElicitation_eng-prolific,3.2.4,Win32,60,5e6571b32013562f77434b40,,,,,,,
,,,,,,,,,,,,,,,,,,,,,,,,,,,,,,,,,,,,,,,,,backspace,3.664000034,,TRUE,1,0,5,1,1,4,30,corona,Spanish,Sounds/spa_corona.mp3,2020-06-08_18h10.09.378,TranslationElicitation_eng-prolific,3.2.4,Win32,60,5e6571b32013562f77434b40,,,,,,,
,,,,,,,,,,,,,,,,,,,,,,,,,,,,,,,,,,,,,,,,,c,4.114000082,C,TRUE,1,0,5,1,1,4,30,corona,Spanish,Sounds/spa_corona.mp3,2020-06-08_18h10.09.378,TranslationElicitation_eng-prolific,3.2.4,Win32,60,5e6571b32013562f77434b40,,,,,,,
,,,,,,,,,,,,,,,,,,,,,,,,,,,,,,,,,,,,,,,,,r,4.313000202,CR,TRUE,1,0,5,1,1,4,30,corona,Spanish,Sounds/spa_corona.mp3,2020-06-08_18h10.09.378,TranslationElicitation_eng-prolific,3.2.4,Win32,60,5e6571b32013562f77434b40,,,,,,,
,,,,,,,,,,,,,,,,,,,,,,,,,,,,,,,,,,,,,,,,,o,4.529999971,CRO,TRUE,1,0,5,1,1,4,30,corona,Spanish,Sounds/spa_corona.mp3,2020-06-08_18h10.09.378,TranslationElicitation_eng-prolific,3.2.4,Win32,60,5e6571b32013562f77434b40,,,,,,,
,,,,,,,,,,,,,,,,,,,,,,,,,,,,,,,,,,,,,,,,,w,4.613000154,CROW,TRUE,1,0,5,1,1,4,30,corona,Spanish,Sounds/spa_corona.mp3,2020-06-08_18h10.09.378,TranslationElicitation_eng-prolific,3.2.4,Win32,60,5e6571b32013562f77434b40,,,,,,,
,,,,,,,,,,,,,,,,,,,,,,,,,,,,,,,,,,,,,,,,,n,4.79700017,CROWN,TRUE,1,0,5,1,1,4,30,corona,Spanish,Sounds/spa_corona.mp3,2020-06-08_18h10.09.378,TranslationElicitation_eng-prolific,3.2.4,Win32,60,5e6571b32013562f77434b40,,,,,,,
,,,,,,,,,,,,,,,,,,,,,,,,,,,,,,,,,,,,,,,,,return,5.180000067,CROWN,TRUE,1,0,5,1,1,4,30,corona,Spanish,Sounds/spa_corona.mp3,2020-06-08_18h10.09.378,TranslationElicitation_eng-prolific,3.2.4,Win32,60,5e6571b32013562f77434b40,5.180000067,,,,,,
,,,,,,,,,,,,,,,,,,,,,,,,,,,,,,,,,,,,,,,,,,,,,1,0,5,1,1,4,30,corona,Spanish,Sounds/spa_corona.mp3,2020-06-08_18h10.09.378,TranslationElicitation_eng-prolific,3.2.4,Win32,60,5e6571b32013562f77434b40,,,,,,,
,,,,,,,,,,,,,,,,,,,,,,,,,,,,,,,,,,,,,,,,,b,2.648000002,B,FALSE,,,,,,,3,barco,Spanish,Sounds/spa_barco.mp3,2020-06-08_18h10.09.378,TranslationElicitation_eng-prolific,3.2.4,Win32,60,5e6571b32013562f77434b40,,1,0,98,1,1,97
,,,,,,,,,,,,,,,,,,,,,,,,,,,,,,,,,,,,,,,,,a,2.797999859,BA,FALSE,,,,,,,3,barco,Spanish,Sounds/spa_barco.mp3,2020-06-08_18h10.09.378,TranslationElicitation_eng-prolific,3.2.4,Win32,60,5e6571b32013562f77434b40,,1,0,98,1,1,97
,,,,,,,,,,,,,,,,,,,,,,,,,,,,,,,,,,,,,,,,,r,3.197999954,BAR,FALSE,,,,,,,3,barco,Spanish,Sounds/spa_barco.mp3,2020-06-08_18h10.09.378,TranslationElicitation_eng-prolific,3.2.4,Win32,60,5e6571b32013562f77434b40,,1,0,98,1,1,97
,,,,,,,,,,,,,,,,,,,,,,,,,,,,,,,,,,,,,,,,,k,3.36500001,BARK,FALSE,,,,,,,3,barco,Spanish,Sounds/spa_barco.mp3,2020-06-08_18h10.09.378,TranslationElicitation_eng-prolific,3.2.4,Win32,60,5e6571b32013562f77434b40,,1,0,98,1,1,97
,,,,,,,,,,,,,,,,,,,,,,,,,,,,,,,,,,,,,,,,,return,3.997999907,BARK,FALSE,,,,,,,3,barco,Spanish,Sounds/spa_barco.mp3,2020-06-08_18h10.09.378,TranslationElicitation_eng-prolific,3.2.4,Win32,60,5e6571b32013562f77434b40,3.997999907,1,0,98,1,1,97
,,,,,,,,,,,,,,,,,,,,,,,,,,,,,,,,,,,,,,,,,,,,,,,,,,,3,barco,Spanish,Sounds/spa_barco.mp3,2020-06-08_18h10.09.378,TranslationElicitation_eng-prolific,3.2.4,Win32,60,5e6571b32013562f77434b40,,1,0,98,1,1,97
,,,,,,,,,,,,,,,,,,,,,,,,,,,,,,,,,,,,,,,,,b,3.36500001,B,FALSE,,,,,,,36,estrella,Spanish,Sounds/spa_estrella.mp3,2020-06-08_18h10.09.378,TranslationElicitation_eng-prolific,3.2.4,Win32,60,5e6571b32013562f77434b40,,1,0,98,32,1,97
,,,,,,,,,,,,,,,,,,,,,,,,,,,,,,,,,,,,,,,,,e,3.498000145,BE,FALSE,,,,,,,36,estrella,Spanish,Sounds/spa_estrella.mp3,2020-06-08_18h10.09.378,TranslationElicitation_eng-prolific,3.2.4,Win32,60,5e6571b32013562f77434b40,,1,0,98,32,1,97
,,,,,,,,,,,,,,,,,,,,,,,,,,,,,,,,,,,,,,,,,e,3.648000002,BEE,FALSE,,,,,,,36,estrella,Spanish,Sounds/spa_estrella.mp3,2020-06-08_18h10.09.378,TranslationElicitation_eng-prolific,3.2.4,Win32,60,5e6571b32013562f77434b40,,1,0,98,32,1,97
,,,,,,,,,,,,,,,,,,,,,,,,,,,,,,,,,,,,,,,,,r,3.83100009,BEER,FALSE,,,,,,,36,estrella,Spanish,Sounds/spa_estrella.mp3,2020-06-08_18h10.09.378,TranslationElicitation_eng-prolific,3.2.4,Win32,60,5e6571b32013562f77434b40,,1,0,98,32,1,97
,,,,,,,,,,,,,,,,,,,,,,,,,,,,,,,,,,,,,,,,,return,4.131000042,BEER,FALSE,,,,,,,36,estrella,Spanish,Sounds/spa_estrella.mp3,2020-06-08_18h10.09.378,TranslationElicitation_eng-prolific,3.2.4,Win32,60,5e6571b32013562f77434b40,4.131000042,1,0,98,32,1,97
,,,,,,,,,,,,,,,,,,,,,,,,,,,,,,,,,,,,,,,,,,,,,,,,,,,36,estrella,Spanish,Sounds/spa_estrella.mp3,2020-06-08_18h10.09.378,TranslationElicitation_eng-prolific,3.2.4,Win32,60,5e6571b32013562f77434b40,,1,0,98,32,1,97
,,,,,,,,,,,,,,,,,,,,,,,,,,,,,,,,,,,,,,,,,t,7.546999931,T,FALSE,,,,,,,39,gafas,Spanish,Sounds/spa_gafas.mp3,2020-06-08_18h10.09.378,TranslationElicitation_eng-prolific,3.2.4,Win32,60,5e6571b32013562f77434b40,,1,0,98,35,1,97
,,,,,,,,,,,,,,,,,,,,,,,,,,,,,,,,,,,,,,,,,r,7.730000019,TR,FALSE,,,,,,,39,gafas,Spanish,Sounds/spa_gafas.mp3,2020-06-08_18h10.09.378,TranslationElicitation_eng-prolific,3.2.4,Win32,60,5e6571b32013562f77434b40,,1,0,98,35,1,97
,,,,,,,,,,,,,,,,,,,,,,,,,,,,,,,,,,,,,,,,,a,7.879999876,TRA,FALSE,,,,,,,39,gafas,Spanish,Sounds/spa_gafas.mp3,2020-06-08_18h10.09.378,TranslationElicitation_eng-prolific,3.2.4,Win32,60,5e6571b32013562f77434b40,,1,0,98,35,1,97
,,,,,,,,,,,,,,,,,,,,,,,,,,,,,,,,,,,,,,,,,i,8.162999868,TRAI,FALSE,,,,,,,39,gafas,Spanish,Sounds/spa_gafas.mp3,2020-06-08_18h10.09.378,TranslationElicitation_eng-prolific,3.2.4,Win32,60,5e6571b32013562f77434b40,,1,0,98,35,1,97
,,,,,,,,,,,,,,,,,,,,,,,,,,,,,,,,,,,,,,,,,n,8.230000019,TRAIN,FALSE,,,,,,,39,gafas,Spanish,Sounds/spa_gafas.mp3,2020-06-08_18h10.09.378,TranslationElicitation_eng-prolific,3.2.4,Win32,60,5e6571b32013562f77434b40,,1,0,98,35,1,97
,,,,,,,,,,,,,,,,,,,,,,,,,,,,,,,,,,,,,,,,,return,8.629999876,TRAIN,FALSE,,,,,,,39,gafas,Spanish,Sounds/spa_gafas.mp3,2020-06-08_18h10.09.378,TranslationElicitation_eng-prolific,3.2.4,Win32,60,5e6571b32013562f77434b40,8.629999876,1,0,98,35,1,97
,,,,,,,,,,,,,,,,,,,,,,,,,,,,,,,,,,,,,,,,,,,,,,,,,,,39,gafas,Spanish,Sounds/spa_gafas.mp3,2020-06-08_18h10.09.378,TranslationElicitation_eng-prolific,3.2.4,Win32,60,5e6571b32013562f77434b40,,1,0,98,35,1,97
,,,,,,,,,,,,,,,,,,,,,,,,,,,,,,,,,,,,,,,,,t,2.198999882,T,FALSE,,,,,,,101,tren,Spanish,Sounds/spa_tren.mp3,2020-06-08_18h10.09.378,TranslationElicitation_eng-prolific,3.2.4,Win32,60,5e6571b32013562f77434b40,,1,0,98,95,1,97
,,,,,,,,,,,,,,,,,,,,,,,,,,,,,,,,,,,,,,,,,r,2.348999977,TR,FALSE,,,,,,,101,tren,Spanish,Sounds/spa_tren.mp3,2020-06-08_18h10.09.378,TranslationElicitation_eng-prolific,3.2.4,Win32,60,5e6571b32013562f77434b40,,1,0,98,95,1,97
,,,,,,,,,,,,,,,,,,,,,,,,,,,,,,,,,,,,,,,,,a,2.516000032,TRA,FALSE,,,,,,,101,tren,Spanish,Sounds/spa_tren.mp3,2020-06-08_18h10.09.378,TranslationElicitation_eng-prolific,3.2.4,Win32,60,5e6571b32013562f77434b40,,1,0,98,95,1,97
,,,,,,,,,,,,,,,,,,,,,,,,,,,,,,,,,,,,,,,,,i,2.648999929,TRAI,FALSE,,,,,,,101,tren,Spanish,Sounds/spa_tren.mp3,2020-06-08_18h10.09.378,TranslationElicitation_eng-prolific,3.2.4,Win32,60,5e6571b32013562f77434b40,,1,0,98,95,1,97
,,,,,,,,,,,,,,,,,,,,,,,,,,,,,,,,,,,,,,,,,n,2.749000072,TRAIN,FALSE,,,,,,,101,tren,Spanish,Sounds/spa_tren.mp3,2020-06-08_18h10.09.378,TranslationElicitation_eng-prolific,3.2.4,Win32,60,5e6571b32013562f77434b40,,1,0,98,95,1,97
,,,,,,,,,,,,,,,,,,,,,,,,,,,,,,,,,,,,,,,,,return,3.016000032,TRAIN,FALSE,,,,,,,101,tren,Spanish,Sounds/spa_tren.mp3,2020-06-08_18h10.09.378,TranslationElicitation_eng-prolific,3.2.4,Win32,60,5e6571b32013562f77434b40,3.016000032,1,0,98,95,1,97
,,,,,,,,,,,,,,,,,,,,,,,,,,,,,,,,,,,,,,,,,,,,,,,,,,,101,tren,Spanish,Sounds/spa_tren.mp3,2020-06-08_18h10.09.378,TranslationElicitation_eng-prolific,3.2.4,Win32,60,5e6571b32013562f77434b40,,1,0,98,95,1,97
,,,,,,,,,,,,,,,,,,,,,,,,,,,,,,,,,,,,,,,,,s,1.799000025,S,FALSE,,,,,,,93,sol,Spanish,Sounds/spa_sol.mp3,2020-06-08_18h10.09.378,TranslationElicitation_eng-prolific,3.2.4,Win32,60,5e6571b32013562f77434b40,,1,0,98,88,1,97
,,,,,,,,,,,,,,,,,,,,,,,,,,,,,,,,,,,,,,,,,u,2.066000223,SU,FALSE,,,,,,,93,sol,Spanish,Sounds/spa_sol.mp3,2020-06-08_18h10.09.378,TranslationElicitation_eng-prolific,3.2.4,Win32,60,5e6571b32013562f77434b40,,1,0,98,88,1,97
,,,,,,,,,,,,,,,,,,,,,,,,,,,,,,,,,,,,,,,,,n,2.166000128,SUN,FALSE,,,,,,,93,sol,Spanish,Sounds/spa_sol.mp3,2020-06-08_18h10.09.378,TranslationElicitation_eng-prolific,3.2.4,Win32,60,5e6571b32013562f77434b40,,1,0,98,88,1,97
,,,,,,,,,,,,,,,,,,,,,,,,,,,,,,,,,,,,,,,,,return,2.46600008,SUN,FALSE,,,,,,,93,sol,Spanish,Sounds/spa_sol.mp3,2020-06-08_18h10.09.378,TranslationElicitation_eng-prolific,3.2.4,Win32,60,5e6571b32013562f77434b40,2.46600008,1,0,98,88,1,97
,,,,,,,,,,,,,,,,,,,,,,,,,,,,,,,,,,,,,,,,,,,,,,,,,,,93,sol,Spanish,Sounds/spa_sol.mp3,2020-06-08_18h10.09.378,TranslationElicitation_eng-prolific,3.2.4,Win32,60,5e6571b32013562f77434b40,,1,0,98,88,1,97
,,,,,,,,,,,,,,,,,,,,,,,,,,,,,,,,,,,,,,,,,s,4.930999994,S,FALSE,,,,,,,51,ladrillo,Spanish,Sounds/spa_ladrillo.mp3,2020-06-08_18h10.09.378,TranslationElicitation_eng-prolific,3.2.4,Win32,60,5e6571b32013562f77434b40,,1,0,98,47,1,97
,,,,,,,,,,,,,,,,,,,,,,,,,,,,,,,,,,,,,,,,,t,5.148000002,ST,FALSE,,,,,,,51,ladrillo,Spanish,Sounds/spa_ladrillo.mp3,2020-06-08_18h10.09.378,TranslationElicitation_eng-prolific,3.2.4,Win32,60,5e6571b32013562f77434b40,,1,0,98,47,1,97
,,,,,,,,,,,,,,,,,,,,,,,,,,,,,,,,,,,,,,,,,r,5.297999859,STR,FALSE,,,,,,,51,ladrillo,Spanish,Sounds/spa_ladrillo.mp3,2020-06-08_18h10.09.378,TranslationElicitation_eng-prolific,3.2.4,Win32,60,5e6571b32013562f77434b40,,1,0,98,47,1,97
,,,,,,,,,,,,,,,,,,,,,,,,,,,,,,,,,,,,,,,,,e,5.59800005,STRE,FALSE,,,,,,,51,ladrillo,Spanish,Sounds/spa_ladrillo.mp3,2020-06-08_18h10.09.378,TranslationElicitation_eng-prolific,3.2.4,Win32,60,5e6571b32013562f77434b40,,1,0,98,47,1,97
,,,,,,,,,,,,,,,,,,,,,,,,,,,,,,,,,,,,,,,,,e,5.763999939,STREE,FALSE,,,,,,,51,ladrillo,Spanish,Sounds/spa_ladrillo.mp3,2020-06-08_18h10.09.378,TranslationElicitation_eng-prolific,3.2.4,Win32,60,5e6571b32013562f77434b40,,1,0,98,47,1,97
,,,,,,,,,,,,,,,,,,,,,,,,,,,,,,,,,,,,,,,,,t,5.897000074,STREET,FALSE,,,,,,,51,ladrillo,Spanish,Sounds/spa_ladrillo.mp3,2020-06-08_18h10.09.378,TranslationElicitation_eng-prolific,3.2.4,Win32,60,5e6571b32013562f77434b40,,1,0,98,47,1,97
,,,,,,,,,,,,,,,,,,,,,,,,,,,,,,,,,,,,,,,,,return,6.381000042,STREET,FALSE,,,,,,,51,ladrillo,Spanish,Sounds/spa_ladrillo.mp3,2020-06-08_18h10.09.378,TranslationElicitation_eng-prolific,3.2.4,Win32,60,5e6571b32013562f77434b40,6.381000042,1,0,98,47,1,97
,,,,,,,,,,,,,,,,,,,,,,,,,,,,,,,,,,,,,,,,,,,,,,,,,,,51,ladrillo,Spanish,Sounds/spa_ladrillo.mp3,2020-06-08_18h10.09.378,TranslationElicitation_eng-prolific,3.2.4,Win32,60,5e6571b32013562f77434b40,,1,0,98,47,1,97
,,,,,,,,,,,,,,,,,,,,,,,,,,,,,,,,,,,,,,,,,z,1.764999866,Z,FALSE,,,,,,,21,cebra,Spanish,Sounds/spa_cebra.mp3,2020-06-08_18h10.09.378,TranslationElicitation_eng-prolific,3.2.4,Win32,60,5e6571b32013562f77434b40,,1,0,98,19,1,97
,,,,,,,,,,,,,,,,,,,,,,,,,,,,,,,,,,,,,,,,,e,1.980999947,ZE,FALSE,,,,,,,21,cebra,Spanish,Sounds/spa_cebra.mp3,2020-06-08_18h10.09.378,TranslationElicitation_eng-prolific,3.2.4,Win32,60,5e6571b32013562f77434b40,,1,0,98,19,1,97
,,,,,,,,,,,,,,,,,,,,,,,,,,,,,,,,,,,,,,,,,b,2.214999914,ZEB,FALSE,,,,,,,21,cebra,Spanish,Sounds/spa_cebra.mp3,2020-06-08_18h10.09.378,TranslationElicitation_eng-prolific,3.2.4,Win32,60,5e6571b32013562f77434b40,,1,0,98,19,1,97
,,,,,,,,,,,,,,,,,,,,,,,,,,,,,,,,,,,,,,,,,r,2.314999819,ZEBR,FALSE,,,,,,,21,cebra,Spanish,Sounds/spa_cebra.mp3,2020-06-08_18h10.09.378,TranslationElicitation_eng-prolific,3.2.4,Win32,60,5e6571b32013562f77434b40,,1,0,98,19,1,97
,,,,,,,,,,,,,,,,,,,,,,,,,,,,,,,,,,,,,,,,,a,2.447999954,ZEBRA,FALSE,,,,,,,21,cebra,Spanish,Sounds/spa_cebra.mp3,2020-06-08_18h10.09.378,TranslationElicitation_eng-prolific,3.2.4,Win32,60,5e6571b32013562f77434b40,,1,0,98,19,1,97
,,,,,,,,,,,,,,,,,,,,,,,,,,,,,,,,,,,,,,,,,return,2.648000002,ZEBRA,FALSE,,,,,,,21,cebra,Spanish,Sounds/spa_cebra.mp3,2020-06-08_18h10.09.378,TranslationElicitation_eng-prolific,3.2.4,Win32,60,5e6571b32013562f77434b40,2.648000002,1,0,98,19,1,97
,,,,,,,,,,,,,,,,,,,,,,,,,,,,,,,,,,,,,,,,,,,,,,,,,,,21,cebra,Spanish,Sounds/spa_cebra.mp3,2020-06-08_18h10.09.378,TranslationElicitation_eng-prolific,3.2.4,Win32,60,5e6571b32013562f77434b40,,1,0,98,19,1,97
,,,,,,,,,,,,,,,,,,,,,,,,,,,,,,,,,,,,,,,,,s,2.747999907,S,FALSE,,,,,,,25,cesta,Spanish,Sounds/spa_cesta.mp3,2020-06-08_18h10.09.378,TranslationElicitation_eng-prolific,3.2.4,Win32,60,5e6571b32013562f77434b40,,1,0,98,23,1,97
,,,,,,,,,,,,,,,,,,,,,,,,,,,,,,,,,,,,,,,,,l,3.047999859,SL,FALSE,,,,,,,25,cesta,Spanish,Sounds/spa_cesta.mp3,2020-06-08_18h10.09.378,TranslationElicitation_eng-prolific,3.2.4,Win32,60,5e6571b32013562f77434b40,,1,0,98,23,1,97
,,,,,,,,,,,,,,,,,,,,,,,,,,,,,,,,,,,,,,,,,e,3.180999994,SLE,FALSE,,,,,,,25,cesta,Spanish,Sounds/spa_cesta.mp3,2020-06-08_18h10.09.378,TranslationElicitation_eng-prolific,3.2.4,Win32,60,5e6571b32013562f77434b40,,1,0,98,23,1,97
,,,,,,,,,,,,,,,,,,,,,,,,,,,,,,,,,,,,,,,,,e,3.314999819,SLEE,FALSE,,,,,,,25,cesta,Spanish,Sounds/spa_cesta.mp3,2020-06-08_18h10.09.378,TranslationElicitation_eng-prolific,3.2.4,Win32,60,5e6571b32013562f77434b40,,1,0,98,23,1,97
,,,,,,,,,,,,,,,,,,,,,,,,,,,,,,,,,,,,,,,,,p,3.413999796,SLEEP,FALSE,,,,,,,25,cesta,Spanish,Sounds/spa_cesta.mp3,2020-06-08_18h10.09.378,TranslationElicitation_eng-prolific,3.2.4,Win32,60,5e6571b32013562f77434b40,,1,0,98,23,1,97
,,,,,,,,,,,,,,,,,,,,,,,,,,,,,,,,,,,,,,,,,return,3.630999804,SLEEP,FALSE,,,,,,,25,cesta,Spanish,Sounds/spa_cesta.mp3,2020-06-08_18h10.09.378,TranslationElicitation_eng-prolific,3.2.4,Win32,60,5e6571b32013562f77434b40,3.630999804,1,0,98,23,1,97
,,,,,,,,,,,,,,,,,,,,,,,,,,,,,,,,,,,,,,,,,,,,,,,,,,,25,cesta,Spanish,Sounds/spa_cesta.mp3,2020-06-08_18h10.09.378,TranslationElicitation_eng-prolific,3.2.4,Win32,60,5e6571b32013562f77434b40,,1,0,98,23,1,97
,,,,,,,,,,,,,,,,,,,,,,,,,,,,,,,,,,,,,,,,,s,3.815000057,S,FALSE,,,,,,,22,cepillo,Spanish,Sounds/spa_cepillo.mp3,2020-06-08_18h10.09.378,TranslationElicitation_eng-prolific,3.2.4,Win32,60,5e6571b32013562f77434b40,,1,0,98,20,1,97
,,,,,,,,,,,,,,,,,,,,,,,,,,,,,,,,,,,,,,,,,p,3.998000145,SP,FALSE,,,,,,,22,cepillo,Spanish,Sounds/spa_cepillo.mp3,2020-06-08_18h10.09.378,TranslationElicitation_eng-prolific,3.2.4,Win32,60,5e6571b32013562f77434b40,,1,0,98,20,1,97
,,,,,,,,,,,,,,,,,,,,,,,,,,,,,,,,,,,,,,,,,e,4.131000042,SPE,FALSE,,,,,,,22,cepillo,Spanish,Sounds/spa_cepillo.mp3,2020-06-08_18h10.09.378,TranslationElicitation_eng-prolific,3.2.4,Win32,60,5e6571b32013562f77434b40,,1,0,98,20,1,97
,,,,,,,,,,,,,,,,,,,,,,,,,,,,,,,,,,,,,,,,,i,4.281000137,SPEI,FALSE,,,,,,,22,cepillo,Spanish,Sounds/spa_cepillo.mp3,2020-06-08_18h10.09.378,TranslationElicitation_eng-prolific,3.2.4,Win32,60,5e6571b32013562f77434b40,,1,0,98,20,1,97
,,,,,,,,,,,,,,,,,,,,,,,,,,,,,,,,,,,,,,,,,a,4.36500001,SPEIA,FALSE,,,,,,,22,cepillo,Spanish,Sounds/spa_cepillo.mp3,2020-06-08_18h10.09.378,TranslationElicitation_eng-prolific,3.2.4,Win32,60,5e6571b32013562f77434b40,,1,0,98,20,1,97
,,,,,,,,,,,,,,,,,,,,,,,,,,,,,,,,,,,,,,,,,backspace,4.997000217,SPEI,TRUE,,,,,,,22,cepillo,Spanish,Sounds/spa_cepillo.mp3,2020-06-08_18h10.09.378,TranslationElicitation_eng-prolific,3.2.4,Win32,60,5e6571b32013562f77434b40,,1,0,98,20,1,97
,,,,,,,,,,,,,,,,,,,,,,,,,,,,,,,,,,,,,,,,,backspace,5.180999994,SPE,TRUE,,,,,,,22,cepillo,Spanish,Sounds/spa_cepillo.mp3,2020-06-08_18h10.09.378,TranslationElicitation_eng-prolific,3.2.4,Win32,60,5e6571b32013562f77434b40,,1,0,98,20,1,97
,,,,,,,,,,,,,,,,,,,,,,,,,,,,,,,,,,,,,,,,,backspace,5.347000122,SP,TRUE,,,,,,,22,cepillo,Spanish,Sounds/spa_cepillo.mp3,2020-06-08_18h10.09.378,TranslationElicitation_eng-prolific,3.2.4,Win32,60,5e6571b32013562f77434b40,,1,0,98,20,1,97
,,,,,,,,,,,,,,,,,,,,,,,,,,,,,,,,,,,,,,,,,backspace,5.497000217,S,TRUE,,,,,,,22,cepillo,Spanish,Sounds/spa_cepillo.mp3,2020-06-08_18h10.09.378,TranslationElicitation_eng-prolific,3.2.4,Win32,60,5e6571b32013562f77434b40,,1,0,98,20,1,97
,,,,,,,,,,,,,,,,,,,,,,,,,,,,,,,,,,,,,,,,,e,5.764000177,SE,TRUE,,,,,,,22,cepillo,Spanish,Sounds/spa_cepillo.mp3,2020-06-08_18h10.09.378,TranslationElicitation_eng-prolific,3.2.4,Win32,60,5e6571b32013562f77434b40,,1,0,98,20,1,97
,,,,,,,,,,,,,,,,,,,,,,,,,,,,,,,,,,,,,,,,,p,6.230000019,SEP,TRUE,,,,,,,22,cepillo,Spanish,Sounds/spa_cepillo.mp3,2020-06-08_18h10.09.378,TranslationElicitation_eng-prolific,3.2.4,Win32,60,5e6571b32013562f77434b40,,1,0,98,20,1,97
,,,,,,,,,,,,,,,,,,,,,,,,,,,,,,,,,,,,,,,,,i,6.497000217,SEPI,TRUE,,,,,,,22,cepillo,Spanish,Sounds/spa_cepillo.mp3,2020-06-08_18h10.09.378,TranslationElicitation_eng-prolific,3.2.4,Win32,60,5e6571b32013562f77434b40,,1,0,98,20,1,97
,,,,,,,,,,,,,,,,,,,,,,,,,,,,,,,,,,,,,,,,,a,6.613000154,SEPIA,TRUE,,,,,,,22,cepillo,Spanish,Sounds/spa_cepillo.mp3,2020-06-08_18h10.09.378,TranslationElicitation_eng-prolific,3.2.4,Win32,60,5e6571b32013562f77434b40,,1,0,98,20,1,97
,,,,,,,,,,,,,,,,,,,,,,,,,,,,,,,,,,,,,,,,,return,6.813000202,SEPIA,TRUE,,,,,,,22,cepillo,Spanish,Sounds/spa_cepillo.mp3,2020-06-08_18h10.09.378,TranslationElicitation_eng-prolific,3.2.4,Win32,60,5e6571b32013562f77434b40,6.813000202,1,0,98,20,1,97
,,,,,,,,,,,,,,,,,,,,,,,,,,,,,,,,,,,,,,,,,,,,,,,,,,,22,cepillo,Spanish,Sounds/spa_cepillo.mp3,2020-06-08_18h10.09.378,TranslationElicitation_eng-prolific,3.2.4,Win32,60,5e6571b32013562f77434b40,,1,0,98,20,1,97
,,,,,,,,,,,,,,,,,,,,,,,,,,,,,,,,,,,,,,,,,c,3.197999954,C,FALSE,,,,,,,31,cubo,Spanish,Sounds/spa_cubo.mp3,2020-06-08_18h10.09.378,TranslationElicitation_eng-prolific,3.2.4,Win32,60,5e6571b32013562f77434b40,,1,0,98,27,1,97
,,,,,,,,,,,,,,,,,,,,,,,,,,,,,,,,,,,,,,,,,o,3.431999922,CO,FALSE,,,,,,,31,cubo,Spanish,Sounds/spa_cubo.mp3,2020-06-08_18h10.09.378,TranslationElicitation_eng-prolific,3.2.4,Win32,60,5e6571b32013562f77434b40,,1,0,98,27,1,97
,,,,,,,,,,,,,,,,,,,,,,,,,,,,,,,,,,,,,,,,,w,3.531999826,COW,FALSE,,,,,,,31,cubo,Spanish,Sounds/spa_cubo.mp3,2020-06-08_18h10.09.378,TranslationElicitation_eng-prolific,3.2.4,Win32,60,5e6571b32013562f77434b40,,1,0,98,27,1,97
,,,,,,,,,,,,,,,,,,,,,,,,,,,,,,,,,,,,,,,,,e,3.731999874,COWE,FALSE,,,,,,,31,cubo,Spanish,Sounds/spa_cubo.mp3,2020-06-08_18h10.09.378,TranslationElicitation_eng-prolific,3.2.4,Win32,60,5e6571b32013562f77434b40,,1,0,98,27,1,97
,,,,,,,,,,,,,,,,,,,,,,,,,,,,,,,,,,,,,,,,,r,3.914999962,COWER,FALSE,,,,,,,31,cubo,Spanish,Sounds/spa_cubo.mp3,2020-06-08_18h10.09.378,TranslationElicitation_eng-prolific,3.2.4,Win32,60,5e6571b32013562f77434b40,,1,0,98,27,1,97
,,,,,,,,,,,,,,,,,,,,,,,,,,,,,,,,,,,,,,,,,return,4.097999811,COWER,FALSE,,,,,,,31,cubo,Spanish,Sounds/spa_cubo.mp3,2020-06-08_18h10.09.378,TranslationElicitation_eng-prolific,3.2.4,Win32,60,5e6571b32013562f77434b40,4.097999811,1,0,98,27,1,97
,,,,,,,,,,,,,,,,,,,,,,,,,,,,,,,,,,,,,,,,,,,,,,,,,,,31,cubo,Spanish,Sounds/spa_cubo.mp3,2020-06-08_18h10.09.378,TranslationElicitation_eng-prolific,3.2.4,Win32,60,5e6571b32013562f77434b40,,1,0,98,27,1,97
,,,,,,,,,,,,,,,,,,,,,,,,,,,,,,,,,,,,,,,,,t,2.648000002,T,FALSE,,,,,,,23,cerdo,Spanish,Sounds/spa_cerdo.mp3,2020-06-08_18h10.09.378,TranslationElicitation_eng-prolific,3.2.4,Win32,60,5e6571b32013562f77434b40,,1,0,98,21,1,97
,,,,,,,,,,,,,,,,,,,,,,,,,,,,,,,,,,,,,,,,,h,2.948000193,TH,FALSE,,,,,,,23,cerdo,Spanish,Sounds/spa_cerdo.mp3,2020-06-08_18h10.09.378,TranslationElicitation_eng-prolific,3.2.4,Win32,60,5e6571b32013562f77434b40,,1,0,98,21,1,97
,,,,,,,,,,,,,,,,,,,,,,,,,,,,,,,,,,,,,,,,,i,3.132000208,THI,FALSE,,,,,,,23,cerdo,Spanish,Sounds/spa_cerdo.mp3,2020-06-08_18h10.09.378,TranslationElicitation_eng-prolific,3.2.4,Win32,60,5e6571b32013562f77434b40,,1,0,98,21,1,97
,,,,,,,,,,,,,,,,,,,,,,,,,,,,,,,,,,,,,,,,,r,3.215000153,THIR,FALSE,,,,,,,23,cerdo,Spanish,Sounds/spa_cerdo.mp3,2020-06-08_18h10.09.378,TranslationElicitation_eng-prolific,3.2.4,Win32,60,5e6571b32013562f77434b40,,1,0,98,21,1,97
,,,,,,,,,,,,,,,,,,,,,,,,,,,,,,,,,,,,,,,,,d,3.465000153,THIRD,FALSE,,,,,,,23,cerdo,Spanish,Sounds/spa_cerdo.mp3,2020-06-08_18h10.09.378,TranslationElicitation_eng-prolific,3.2.4,Win32,60,5e6571b32013562f77434b40,,1,0,98,21,1,97
,,,,,,,,,,,,,,,,,,,,,,,,,,,,,,,,,,,,,,,,,return,3.680999994,THIRD,FALSE,,,,,,,23,cerdo,Spanish,Sounds/spa_cerdo.mp3,2020-06-08_18h10.09.378,TranslationElicitation_eng-prolific,3.2.4,Win32,60,5e6571b32013562f77434b40,3.680999994,1,0,98,21,1,97
,,,,,,,,,,,,,,,,,,,,,,,,,,,,,,,,,,,,,,,,,,,,,,,,,,,23,cerdo,Spanish,Sounds/spa_cerdo.mp3,2020-06-08_18h10.09.378,TranslationElicitation_eng-prolific,3.2.4,Win32,60,5e6571b32013562f77434b40,,1,0,98,21,1,97
,,,,,,,,,,,,,,,,,,,,,,,,,,,,,,,,,,,,,,,,,o,1.349000216,O,FALSE,,,,,,,99,tomate,Spanish,Sounds/spa_tomate.mp3,2020-06-08_18h10.09.378,TranslationElicitation_eng-prolific,3.2.4,Win32,60,5e6571b32013562f77434b40,,1,0,98,93,1,97
,,,,,,,,,,,,,,,,,,,,,,,,,,,,,,,,,,,,,,,,,a,1.532000065,OA,FALSE,,,,,,,99,tomate,Spanish,Sounds/spa_tomate.mp3,2020-06-08_18h10.09.378,TranslationElicitation_eng-prolific,3.2.4,Win32,60,5e6571b32013562f77434b40,,1,0,98,93,1,97
,,,,,,,,,,,,,,,,,,,,,,,,,,,,,,,,,,,,,,,,,m,1.582000017,OAM,FALSE,,,,,,,99,tomate,Spanish,Sounds/spa_tomate.mp3,2020-06-08_18h10.09.378,TranslationElicitation_eng-prolific,3.2.4,Win32,60,5e6571b32013562f77434b40,,1,0,98,93,1,97
,,,,,,,,,,,,,,,,,,,,,,,,,,,,,,,,,,,,,,,,,backspace,1.982000113,OA,TRUE,,,,,,,99,tomate,Spanish,Sounds/spa_tomate.mp3,2020-06-08_18h10.09.378,TranslationElicitation_eng-prolific,3.2.4,Win32,60,5e6571b32013562f77434b40,,1,0,98,93,1,97
,,,,,,,,,,,,,,,,,,,,,,,,,,,,,,,,,,,,,,,,,backspace,2.149000168,O,TRUE,,,,,,,99,tomate,Spanish,Sounds/spa_tomate.mp3,2020-06-08_18h10.09.378,TranslationElicitation_eng-prolific,3.2.4,Win32,60,5e6571b32013562f77434b40,,1,0,98,93,1,97
,,,,,,,,,,,,,,,,,,,,,,,,,,,,,,,,,,,,,,,,,backspace,2.282000065,,TRUE,,,,,,,99,tomate,Spanish,Sounds/spa_tomate.mp3,2020-06-08_18h10.09.378,TranslationElicitation_eng-prolific,3.2.4,Win32,60,5e6571b32013562f77434b40,,1,0,98,93,1,97
,,,,,,,,,,,,,,,,,,,,,,,,,,,,,,,,,,,,,,,,,t,2.44900012,T,TRUE,,,,,,,99,tomate,Spanish,Sounds/spa_tomate.mp3,2020-06-08_18h10.09.378,TranslationElicitation_eng-prolific,3.2.4,Win32,60,5e6571b32013562f77434b40,,1,0,98,93,1,97
,,,,,,,,,,,,,,,,,,,,,,,,,,,,,,,,,,,,,,,,,o,2.565000057,TO,TRUE,,,,,,,99,tomate,Spanish,Sounds/spa_tomate.mp3,2020-06-08_18h10.09.378,TranslationElicitation_eng-prolific,3.2.4,Win32,60,5e6571b32013562f77434b40,,1,0,98,93,1,97
,,,,,,,,,,,,,,,,,,,,,,,,,,,,,,,,,,,,,,,,,m,2.68200016,TOM,TRUE,,,,,,,99,tomate,Spanish,Sounds/spa_tomate.mp3,2020-06-08_18h10.09.378,TranslationElicitation_eng-prolific,3.2.4,Win32,60,5e6571b32013562f77434b40,,1,0,98,93,1,97
,,,,,,,,,,,,,,,,,,,,,,,,,,,,,,,,,,,,,,,,,a,3.180999994,TOMA,TRUE,,,,,,,99,tomate,Spanish,Sounds/spa_tomate.mp3,2020-06-08_18h10.09.378,TranslationElicitation_eng-prolific,3.2.4,Win32,60,5e6571b32013562f77434b40,,1,0,98,93,1,97
,,,,,,,,,,,,,,,,,,,,,,,,,,,,,,,,,,,,,,,,,t,3.398000002,TOMAT,TRUE,,,,,,,99,tomate,Spanish,Sounds/spa_tomate.mp3,2020-06-08_18h10.09.378,TranslationElicitation_eng-prolific,3.2.4,Win32,60,5e6571b32013562f77434b40,,1,0,98,93,1,97
,,,,,,,,,,,,,,,,,,,,,,,,,,,,,,,,,,,,,,,,,o,3.515000105,TOMATO,TRUE,,,,,,,99,tomate,Spanish,Sounds/spa_tomate.mp3,2020-06-08_18h10.09.378,TranslationElicitation_eng-prolific,3.2.4,Win32,60,5e6571b32013562f77434b40,,1,0,98,93,1,97
,,,,,,,,,,,,,,,,,,,,,,,,,,,,,,,,,,,,,,,,,return,3.781000137,TOMATO,TRUE,,,,,,,99,tomate,Spanish,Sounds/spa_tomate.mp3,2020-06-08_18h10.09.378,TranslationElicitation_eng-prolific,3.2.4,Win32,60,5e6571b32013562f77434b40,3.781000137,1,0,98,93,1,97
,,,,,,,,,,,,,,,,,,,,,,,,,,,,,,,,,,,,,,,,,,,,,,,,,,,99,tomate,Spanish,Sounds/spa_tomate.mp3,2020-06-08_18h10.09.378,TranslationElicitation_eng-prolific,3.2.4,Win32,60,5e6571b32013562f77434b40,,1,0,98,93,1,97
,,,,,,,,,,,,,,,,,,,,,,,,,,,,,,,,,,,,,,,,,p,1.565999985,P,FALSE,,,,,,,75,pan,Spanish,Sounds/spa_pan.mp3,2020-06-08_18h10.09.378,TranslationElicitation_eng-prolific,3.2.4,Win32,60,5e6571b32013562f77434b40,,1,0,98,70,1,97
,,,,,,,,,,,,,,,,,,,,,,,,,,,,,,,,,,,,,,,,,a,1.731999874,PA,FALSE,,,,,,,75,pan,Spanish,Sounds/spa_pan.mp3,2020-06-08_18h10.09.378,TranslationElicitation_eng-prolific,3.2.4,Win32,60,5e6571b32013562f77434b40,,1,0,98,70,1,97
,,,,,,,,,,,,,,,,,,,,,,,,,,,,,,,,,,,,,,,,,n,2.549000025,PAN,FALSE,,,,,,,75,pan,Spanish,Sounds/spa_pan.mp3,2020-06-08_18h10.09.378,TranslationElicitation_eng-prolific,3.2.4,Win32,60,5e6571b32013562f77434b40,,1,0,98,70,1,97
,,,,,,,,,,,,,,,,,,,,,,,,,,,,,,,,,,,,,,,,,backspace,2.832000017,PA,TRUE,,,,,,,75,pan,Spanish,Sounds/spa_pan.mp3,2020-06-08_18h10.09.378,TranslationElicitation_eng-prolific,3.2.4,Win32,60,5e6571b32013562f77434b40,,1,0,98,70,1,97
,,,,,,,,,,,,,,,,,,,,,,,,,,,,,,,,,,,,,,,,,i,3.431999922,PAI,TRUE,,,,,,,75,pan,Spanish,Sounds/spa_pan.mp3,2020-06-08_18h10.09.378,TranslationElicitation_eng-prolific,3.2.4,Win32,60,5e6571b32013562f77434b40,,1,0,98,70,1,97
,,,,,,,,,,,,,,,,,,,,,,,,,,,,,,,,,,,,,,,,,backspace,3.782000065,PA,TRUE,,,,,,,75,pan,Spanish,Sounds/spa_pan.mp3,2020-06-08_18h10.09.378,TranslationElicitation_eng-prolific,3.2.4,Win32,60,5e6571b32013562f77434b40,,1,0,98,70,1,97
,,,,,,,,,,,,,,,,,,,,,,,,,,,,,,,,,,,,,,,,,backspace,3.914999962,P,TRUE,,,,,,,75,pan,Spanish,Sounds/spa_pan.mp3,2020-06-08_18h10.09.378,TranslationElicitation_eng-prolific,3.2.4,Win32,60,5e6571b32013562f77434b40,,1,0,98,70,1,97
,,,,,,,,,,,,,,,,,,,,,,,,,,,,,,,,,,,,,,,,,backspace,4.047999859,,TRUE,,,,,,,75,pan,Spanish,Sounds/spa_pan.mp3,2020-06-08_18h10.09.378,TranslationElicitation_eng-prolific,3.2.4,Win32,60,5e6571b32013562f77434b40,,1,0,98,70,1,97
,,,,,,,,,,,,,,,,,,,,,,,,,,,,,,,,,,,,,,,,,b,4.730999947,B,TRUE,,,,,,,75,pan,Spanish,Sounds/spa_pan.mp3,2020-06-08_18h10.09.378,TranslationElicitation_eng-prolific,3.2.4,Win32,60,5e6571b32013562f77434b40,,1,0,98,70,1,97
,,,,,,,,,,,,,,,,,,,,,,,,,,,,,,,,,,,,,,,,,r,4.813999891,BR,TRUE,,,,,,,75,pan,Spanish,Sounds/spa_pan.mp3,2020-06-08_18h10.09.378,TranslationElicitation_eng-prolific,3.2.4,Win32,60,5e6571b32013562f77434b40,,1,0,98,70,1,97
,,,,,,,,,,,,,,,,,,,,,,,,,,,,,,,,,,,,,,,,,e,4.914000034,BRE,TRUE,,,,,,,75,pan,Spanish,Sounds/spa_pan.mp3,2020-06-08_18h10.09.378,TranslationElicitation_eng-prolific,3.2.4,Win32,60,5e6571b32013562f77434b40,,1,0,98,70,1,97
,,,,,,,,,,,,,,,,,,,,,,,,,,,,,,,,,,,,,,,,,a,5.029999971,BREA,TRUE,,,,,,,75,pan,Spanish,Sounds/spa_pan.mp3,2020-06-08_18h10.09.378,TranslationElicitation_eng-prolific,3.2.4,Win32,60,5e6571b32013562f77434b40,,1,0,98,70,1,97
,,,,,,,,,,,,,,,,,,,,,,,,,,,,,,,,,,,,,,,,,d,5.164999962,BREAD,TRUE,,,,,,,75,pan,Spanish,Sounds/spa_pan.mp3,2020-06-08_18h10.09.378,TranslationElicitation_eng-prolific,3.2.4,Win32,60,5e6571b32013562f77434b40,,1,0,98,70,1,97
,,,,,,,,,,,,,,,,,,,,,,,,,,,,,,,,,,,,,,,,,return,5.329999924,BREAD,TRUE,,,,,,,75,pan,Spanish,Sounds/spa_pan.mp3,2020-06-08_18h10.09.378,TranslationElicitation_eng-prolific,3.2.4,Win32,60,5e6571b32013562f77434b40,5.329999924,1,0,98,70,1,97
,,,,,,,,,,,,,,,,,,,,,,,,,,,,,,,,,,,,,,,,,,,,,,,,,,,75,pan,Spanish,Sounds/spa_pan.mp3,2020-06-08_18h10.09.378,TranslationElicitation_eng-prolific,3.2.4,Win32,60,5e6571b32013562f77434b40,,1,0,98,70,1,97
,,,,,,,,,,,,,,,,,,,,,,,,,,,,,,,,,,,,,,,,,a,1.498000145,A,FALSE,,,,,,,100,toro,Spanish,Sounds/spa_toro.mp3,2020-06-08_18h10.09.378,TranslationElicitation_eng-prolific,3.2.4,Win32,60,5e6571b32013562f77434b40,,1,0,98,94,1,97
,,,,,,,,,,,,,,,,,,,,,,,,,,,,,,,,,,,,,,,,,l,1.648000002,AL,FALSE,,,,,,,100,toro,Spanish,Sounds/spa_toro.mp3,2020-06-08_18h10.09.378,TranslationElicitation_eng-prolific,3.2.4,Win32,60,5e6571b32013562f77434b40,,1,0,98,94,1,97
,,,,,,,,,,,,,,,,,,,,,,,,,,,,,,,,,,,,,,,,,l,1.798000097,ALL,FALSE,,,,,,,100,toro,Spanish,Sounds/spa_toro.mp3,2020-06-08_18h10.09.378,TranslationElicitation_eng-prolific,3.2.4,Win32,60,5e6571b32013562f77434b40,,1,0,98,94,1,97
,,,,,,,,,,,,,,,,,,,,,,,,,,,,,,,,,,,,,,,,,return,2.148000002,ALL,FALSE,,,,,,,100,toro,Spanish,Sounds/spa_toro.mp3,2020-06-08_18h10.09.378,TranslationElicitation_eng-prolific,3.2.4,Win32,60,5e6571b32013562f77434b40,2.148000002,1,0,98,94,1,97
,,,,,,,,,,,,,,,,,,,,,,,,,,,,,,,,,,,,,,,,,,,,,,,,,,,100,toro,Spanish,Sounds/spa_toro.mp3,2020-06-08_18h10.09.378,TranslationElicitation_eng-prolific,3.2.4,Win32,60,5e6571b32013562f77434b40,,1,0,98,94,1,97
,,,,,,,,,,,,,,,,,,,,,,,,,,,,,,,,,,,,,,,,,s,2.499000072,S,FALSE,,,,,,,40,galleta,Spanish,Sounds/spa_galleta.mp3,2020-06-08_18h10.09.378,TranslationElicitation_eng-prolific,3.2.4,Win32,60,5e6571b32013562f77434b40,,1,0,98,36,1,97
,,,,,,,,,,,,,,,,,,,,,,,,,,,,,,,,,,,,,,,,,w,2.748000145,SW,FALSE,,,,,,,40,galleta,Spanish,Sounds/spa_galleta.mp3,2020-06-08_18h10.09.378,TranslationElicitation_eng-prolific,3.2.4,Win32,60,5e6571b32013562f77434b40,,1,0,98,36,1,97
,,,,,,,,,,,,,,,,,,,,,,,,,,,,,,,,,,,,,,,,,o,3.11500001,SWO,FALSE,,,,,,,40,galleta,Spanish,Sounds/spa_galleta.mp3,2020-06-08_18h10.09.378,TranslationElicitation_eng-prolific,3.2.4,Win32,60,5e6571b32013562f77434b40,,1,0,98,36,1,97
,,,,,,,,,,,,,,,,,,,,,,,,,,,,,,,,,,,,,,,,,r,3.198000193,SWOR,FALSE,,,,,,,40,galleta,Spanish,Sounds/spa_galleta.mp3,2020-06-08_18h10.09.378,TranslationElicitation_eng-prolific,3.2.4,Win32,60,5e6571b32013562f77434b40,,1,0,98,36,1,97
,,,,,,,,,,,,,,,,,,,,,,,,,,,,,,,,,,,,,,,,,d,3.36500001,SWORD,FALSE,,,,,,,40,galleta,Spanish,Sounds/spa_galleta.mp3,2020-06-08_18h10.09.378,TranslationElicitation_eng-prolific,3.2.4,Win32,60,5e6571b32013562f77434b40,,1,0,98,36,1,97
,,,,,,,,,,,,,,,,,,,,,,,,,,,,,,,,,,,,,,,,,backspace,4.597000122,SWOR,TRUE,,,,,,,40,galleta,Spanish,Sounds/spa_galleta.mp3,2020-06-08_18h10.09.378,TranslationElicitation_eng-prolific,3.2.4,Win32,60,5e6571b32013562f77434b40,,1,0,98,36,1,97
,,,,,,,,,,,,,,,,,,,,,,,,,,,,,,,,,,,,,,,,,d,5.381000042,SWORD,TRUE,,,,,,,40,galleta,Spanish,Sounds/spa_galleta.mp3,2020-06-08_18h10.09.378,TranslationElicitation_eng-prolific,3.2.4,Win32,60,5e6571b32013562f77434b40,,1,0,98,36,1,97
,,,,,,,,,,,,,,,,,,,,,,,,,,,,,,,,,,,,,,,,,return,5.514000177,SWORD,TRUE,,,,,,,40,galleta,Spanish,Sounds/spa_galleta.mp3,2020-06-08_18h10.09.378,TranslationElicitation_eng-prolific,3.2.4,Win32,60,5e6571b32013562f77434b40,5.514000177,1,0,98,36,1,97
,,,,,,,,,,,,,,,,,,,,,,,,,,,,,,,,,,,,,,,,,,,,,,,,,,,40,galleta,Spanish,Sounds/spa_galleta.mp3,2020-06-08_18h10.09.378,TranslationElicitation_eng-prolific,3.2.4,Win32,60,5e6571b32013562f77434b40,,1,0,98,36,1,97
,,,,,,,,,,,,,,,,,,,,,,,,,,,,,,,,,,,,,,,,,s,2.214999914,S,FALSE,,,,,,,65,mono,Spanish,Sounds/spa_mono.mp3,2020-06-08_18h10.09.378,TranslationElicitation_eng-prolific,3.2.4,Win32,60,5e6571b32013562f77434b40,,1,0,98,61,1,97
,,,,,,,,,,,,,,,,,,,,,,,,,,,,,,,,,,,,,,,,,i,2.34800005,SI,FALSE,,,,,,,65,mono,Spanish,Sounds/spa_mono.mp3,2020-06-08_18h10.09.378,TranslationElicitation_eng-prolific,3.2.4,Win32,60,5e6571b32013562f77434b40,,1,0,98,61,1,97
,,,,,,,,,,,,,,,,,,,,,,,,,,,,,,,,,,,,,,,,,n,2.430999994,SIN,FALSE,,,,,,,65,mono,Spanish,Sounds/spa_mono.mp3,2020-06-08_18h10.09.378,TranslationElicitation_eng-prolific,3.2.4,Win32,60,5e6571b32013562f77434b40,,1,0,98,61,1,97
,,,,,,,,,,,,,,,,,,,,,,,,,,,,,,,,,,,,,,,,,g,2.530999899,SING,FALSE,,,,,,,65,mono,Spanish,Sounds/spa_mono.mp3,2020-06-08_18h10.09.378,TranslationElicitation_eng-prolific,3.2.4,Win32,60,5e6571b32013562f77434b40,,1,0,98,61,1,97
,,,,,,,,,,,,,,,,,,,,,,,,,,,,,,,,,,,,,,,,,l,2.664999962,SINGL,FALSE,,,,,,,65,mono,Spanish,Sounds/spa_mono.mp3,2020-06-08_18h10.09.378,TranslationElicitation_eng-prolific,3.2.4,Win32,60,5e6571b32013562f77434b40,,1,0,98,61,1,97
,,,,,,,,,,,,,,,,,,,,,,,,,,,,,,,,,,,,,,,,,e,2.730999947,SINGLE,FALSE,,,,,,,65,mono,Spanish,Sounds/spa_mono.mp3,2020-06-08_18h10.09.378,TranslationElicitation_eng-prolific,3.2.4,Win32,60,5e6571b32013562f77434b40,,1,0,98,61,1,97
,,,,,,,,,,,,,,,,,,,,,,,,,,,,,,,,,,,,,,,,,return,3.213999987,SINGLE,FALSE,,,,,,,65,mono,Spanish,Sounds/spa_mono.mp3,2020-06-08_18h10.09.378,TranslationElicitation_eng-prolific,3.2.4,Win32,60,5e6571b32013562f77434b40,3.213999987,1,0,98,61,1,97
,,,,,,,,,,,,,,,,,,,,,,,,,,,,,,,,,,,,,,,,,,,,,,,,,,,65,mono,Spanish,Sounds/spa_mono.mp3,2020-06-08_18h10.09.378,TranslationElicitation_eng-prolific,3.2.4,Win32,60,5e6571b32013562f77434b40,,1,0,98,61,1,97
,,,,,,,,,,,,,,,,,,,,,,,,,,,,,,,,,,,,,,,,,space,9.978999853, ,FALSE,,,,,,,44,gorrion,Spanish,Sounds/spa_gorrion.mp3,2020-06-08_18h10.09.378,TranslationElicitation_eng-prolific,3.2.4,Win32,60,5e6571b32013562f77434b40,,1,0,98,40,1,97
,,,,,,,,,,,,,,,,,,,,,,,,,,,,,,,,,,,,,,,,,c,19.07500005, C,FALSE,,,,,,,44,gorrion,Spanish,Sounds/spa_gorrion.mp3,2020-06-08_18h10.09.378,TranslationElicitation_eng-prolific,3.2.4,Win32,60,5e6571b32013562f77434b40,,1,0,98,40,1,97
,,,,,,,,,,,,,,,,,,,,,,,,,,,,,,,,,,,,,,,,,o,19.20799994, CO,FALSE,,,,,,,44,gorrion,Spanish,Sounds/spa_gorrion.mp3,2020-06-08_18h10.09.378,TranslationElicitation_eng-prolific,3.2.4,Win32,60,5e6571b32013562f77434b40,,1,0,98,40,1,97
,,,,,,,,,,,,,,,,,,,,,,,,,,,,,,,,,,,,,,,,,r,19.34099984, COR,FALSE,,,,,,,44,gorrion,Spanish,Sounds/spa_gorrion.mp3,2020-06-08_18h10.09.378,TranslationElicitation_eng-prolific,3.2.4,Win32,60,5e6571b32013562f77434b40,,1,0,98,40,1,97
,,,,,,,,,,,,,,,,,,,,,,,,,,,,,,,,,,,,,,,,,r,19.4749999, CORR,FALSE,,,,,,,44,gorrion,Spanish,Sounds/spa_gorrion.mp3,2020-06-08_18h10.09.378,TranslationElicitation_eng-prolific,3.2.4,Win32,60,5e6571b32013562f77434b40,,1,0,98,40,1,97
,,,,,,,,,,,,,,,,,,,,,,,,,,,,,,,,,,,,,,,,,a,19.625, CORRA,FALSE,,,,,,,44,gorrion,Spanish,Sounds/spa_gorrion.mp3,2020-06-08_18h10.09.378,TranslationElicitation_eng-prolific,3.2.4,Win32,60,5e6571b32013562f77434b40,,1,0,98,40,1,97
,,,,,,,,,,,,,,,,,,,,,,,,,,,,,,,,,,,,,,,,,y,19.79099989, CORRAY,FALSE,,,,,,,44,gorrion,Spanish,Sounds/spa_gorrion.mp3,2020-06-08_18h10.09.378,TranslationElicitation_eng-prolific,3.2.4,Win32,60,5e6571b32013562f77434b40,,1,0,98,40,1,97
,,,,,,,,,,,,,,,,,,,,,,,,,,,,,,,,,,,,,,,,,space,19.94099998, CORRAY ,FALSE,,,,,,,44,gorrion,Spanish,Sounds/spa_gorrion.mp3,2020-06-08_18h10.09.378,TranslationElicitation_eng-prolific,3.2.4,Win32,60,5e6571b32013562f77434b40,,1,0,98,40,1,97
,,,,,,,,,,,,,,,,,,,,,,,,,,,,,,,,,,,,,,,,,backspace,20.35699987, CORRAY,TRUE,,,,,,,44,gorrion,Spanish,Sounds/spa_gorrion.mp3,2020-06-08_18h10.09.378,TranslationElicitation_eng-prolific,3.2.4,Win32,60,5e6571b32013562f77434b40,,1,0,98,40,1,97
,,,,,,,,,,,,,,,,,,,,,,,,,,,,,,,,,,,,,,,,,backspace,20.54099989, CORRA,TRUE,,,,,,,44,gorrion,Spanish,Sounds/spa_gorrion.mp3,2020-06-08_18h10.09.378,TranslationElicitation_eng-prolific,3.2.4,Win32,60,5e6571b32013562f77434b40,,1,0,98,40,1,97
,,,,,,,,,,,,,,,,,,,,,,,,,,,,,,,,,,,,,,,,,backspace,20.92400002, CORR,TRUE,,,,,,,44,gorrion,Spanish,Sounds/spa_gorrion.mp3,2020-06-08_18h10.09.378,TranslationElicitation_eng-prolific,3.2.4,Win32,60,5e6571b32013562f77434b40,,1,0,98,40,1,97
,,,,,,,,,,,,,,,,,,,,,,,,,,,,,,,,,,,,,,,,,backspace,21.05699992, COR,TRUE,,,,,,,44,gorrion,Spanish,Sounds/spa_gorrion.mp3,2020-06-08_18h10.09.378,TranslationElicitation_eng-prolific,3.2.4,Win32,60,5e6571b32013562f77434b40,,1,0,98,40,1,97
,,,,,,,,,,,,,,,,,,,,,,,,,,,,,,,,,,,,,,,,,backspace,21.20700002, CO,TRUE,,,,,,,44,gorrion,Spanish,Sounds/spa_gorrion.mp3,2020-06-08_18h10.09.378,TranslationElicitation_eng-prolific,3.2.4,Win32,60,5e6571b32013562f77434b40,,1,0,98,40,1,97
,,,,,,,,,,,,,,,,,,,,,,,,,,,,,,,,,,,,,,,,,backspace,21.80699992, C,TRUE,,,,,,,44,gorrion,Spanish,Sounds/spa_gorrion.mp3,2020-06-08_18h10.09.378,TranslationElicitation_eng-prolific,3.2.4,Win32,60,5e6571b32013562f77434b40,,1,0,98,40,1,97
,,,,,,,,,,,,,,,,,,,,,,,,,,,,,,,,,,,,,,,,,backspace,21.97399998, ,TRUE,,,,,,,44,gorrion,Spanish,Sounds/spa_gorrion.mp3,2020-06-08_18h10.09.378,TranslationElicitation_eng-prolific,3.2.4,Win32,60,5e6571b32013562f77434b40,,1,0,98,40,1,97
,,,,,,,,,,,,,,,,,,,,,,,,,,,,,,,,,,,,,,,,,c,23.37299991, C,TRUE,,,,,,,44,gorrion,Spanish,Sounds/spa_gorrion.mp3,2020-06-08_18h10.09.378,TranslationElicitation_eng-prolific,3.2.4,Win32,60,5e6571b32013562f77434b40,,1,0,98,40,1,97
,,,,,,,,,,,,,,,,,,,,,,,,,,,,,,,,,,,,,,,,,r,23.6559999, CR,TRUE,,,,,,,44,gorrion,Spanish,Sounds/spa_gorrion.mp3,2020-06-08_18h10.09.378,TranslationElicitation_eng-prolific,3.2.4,Win32,60,5e6571b32013562f77434b40,,1,0,98,40,1,97
,,,,,,,,,,,,,,,,,,,,,,,,,,,,,,,,,,,,,,,,,a,23.78900003, CRA,TRUE,,,,,,,44,gorrion,Spanish,Sounds/spa_gorrion.mp3,2020-06-08_18h10.09.378,TranslationElicitation_eng-prolific,3.2.4,Win32,60,5e6571b32013562f77434b40,,1,0,98,40,1,97
,,,,,,,,,,,,,,,,,,,,,,,,,,,,,,,,,,,,,,,,,y,24.75499988, CRAY,TRUE,,,,,,,44,gorrion,Spanish,Sounds/spa_gorrion.mp3,2020-06-08_18h10.09.378,TranslationElicitation_eng-prolific,3.2.4,Win32,60,5e6571b32013562f77434b40,,1,0,98,40,1,97
,,,,,,,,,,,,,,,,,,,,,,,,,,,,,,,,,,,,,,,,,o,24.95599985, CRAYO,TRUE,,,,,,,44,gorrion,Spanish,Sounds/spa_gorrion.mp3,2020-06-08_18h10.09.378,TranslationElicitation_eng-prolific,3.2.4,Win32,60,5e6571b32013562f77434b40,,1,0,98,40,1,97
,,,,,,,,,,,,,,,,,,,,,,,,,,,,,,,,,,,,,,,,,n,25.03900003, CRAYON,TRUE,,,,,,,44,gorrion,Spanish,Sounds/spa_gorrion.mp3,2020-06-08_18h10.09.378,TranslationElicitation_eng-prolific,3.2.4,Win32,60,5e6571b32013562f77434b40,,1,0,98,40,1,97
,,,,,,,,,,,,,,,,,,,,,,,,,,,,,,,,,,,,,,,,,return,25.26300001, CRAYON,TRUE,,,,,,,44,gorrion,Spanish,Sounds/spa_gorrion.mp3,2020-06-08_18h10.09.378,TranslationElicitation_eng-prolific,3.2.4,Win32,60,5e6571b32013562f77434b40,25.26300001,1,0,98,40,1,97
,,,,,,,,,,,,,,,,,,,,,,,,,,,,,,,,,,,,,,,,,,,,,,,,,,,44,gorrion,Spanish,Sounds/spa_gorrion.mp3,2020-06-08_18h10.09.378,TranslationElicitation_eng-prolific,3.2.4,Win32,60,5e6571b32013562f77434b40,,1,0,98,40,1,97
,,,,,,,,,,,,,,,,,,,,,,,,,,,,,,,,,,,,,,,,,t,2.315000057,T,FALSE,,,,,,,77,pantalon,Spanish,Sounds/spa_pantalon.mp3,2020-06-08_18h10.09.378,TranslationElicitation_eng-prolific,3.2.4,Win32,60,5e6571b32013562f77434b40,,1,0,98,72,1,97
,,,,,,,,,,,,,,,,,,,,,,,,,,,,,,,,,,,,,,,,,r,2.482000113,TR,FALSE,,,,,,,77,pantalon,Spanish,Sounds/spa_pantalon.mp3,2020-06-08_18h10.09.378,TranslationElicitation_eng-prolific,3.2.4,Win32,60,5e6571b32013562f77434b40,,1,0,98,72,1,97
,,,,,,,,,,,,,,,,,,,,,,,,,,,,,,,,,,,,,,,,,o,2.648000002,TRO,FALSE,,,,,,,77,pantalon,Spanish,Sounds/spa_pantalon.mp3,2020-06-08_18h10.09.378,TranslationElicitation_eng-prolific,3.2.4,Win32,60,5e6571b32013562f77434b40,,1,0,98,72,1,97
,,,,,,,,,,,,,,,,,,,,,,,,,,,,,,,,,,,,,,,,,u,2.881999969,TROU,FALSE,,,,,,,77,pantalon,Spanish,Sounds/spa_pantalon.mp3,2020-06-08_18h10.09.378,TranslationElicitation_eng-prolific,3.2.4,Win32,60,5e6571b32013562f77434b40,,1,0,98,72,1,97
,,,,,,,,,,,,,,,,,,,,,,,,,,,,,,,,,,,,,,,,,s,2.965000153,TROUS,FALSE,,,,,,,77,pantalon,Spanish,Sounds/spa_pantalon.mp3,2020-06-08_18h10.09.378,TranslationElicitation_eng-prolific,3.2.4,Win32,60,5e6571b32013562f77434b40,,1,0,98,72,1,97
,,,,,,,,,,,,,,,,,,,,,,,,,,,,,,,,,,,,,,,,,e,3.11500001,TROUSE,FALSE,,,,,,,77,pantalon,Spanish,Sounds/spa_pantalon.mp3,2020-06-08_18h10.09.378,TranslationElicitation_eng-prolific,3.2.4,Win32,60,5e6571b32013562f77434b40,,1,0,98,72,1,97
,,,,,,,,,,,,,,,,,,,,,,,,,,,,,,,,,,,,,,,,,r,3.265000105,TROUSER,FALSE,,,,,,,77,pantalon,Spanish,Sounds/spa_pantalon.mp3,2020-06-08_18h10.09.378,TranslationElicitation_eng-prolific,3.2.4,Win32,60,5e6571b32013562f77434b40,,1,0,98,72,1,97
,,,,,,,,,,,,,,,,,,,,,,,,,,,,,,,,,,,,,,,,,s,3.499000072,TROUSERS,FALSE,,,,,,,77,pantalon,Spanish,Sounds/spa_pantalon.mp3,2020-06-08_18h10.09.378,TranslationElicitation_eng-prolific,3.2.4,Win32,60,5e6571b32013562f77434b40,,1,0,98,72,1,97
,,,,,,,,,,,,,,,,,,,,,,,,,,,,,,,,,,,,,,,,,return,3.648000002,TROUSERS,FALSE,,,,,,,77,pantalon,Spanish,Sounds/spa_pantalon.mp3,2020-06-08_18h10.09.378,TranslationElicitation_eng-prolific,3.2.4,Win32,60,5e6571b32013562f77434b40,3.648000002,1,0,98,72,1,97
,,,,,,,,,,,,,,,,,,,,,,,,,,,,,,,,,,,,,,,,,,,,,,,,,,,77,pantalon,Spanish,Sounds/spa_pantalon.mp3,2020-06-08_18h10.09.378,TranslationElicitation_eng-prolific,3.2.4,Win32,60,5e6571b32013562f77434b40,,1,0,98,72,1,97
,,,,,,,,,,,,,,,,,,,,,,,,,,,,,,,,,,,,,,,,,h,3.36500001,H,FALSE,,,,,,,19,camiseta,Spanish,Sounds/spa_camiseta.mp3,2020-06-08_18h10.09.378,TranslationElicitation_eng-prolific,3.2.4,Win32,60,5e6571b32013562f77434b40,,1,0,98,17,1,97
,,,,,,,,,,,,,,,,,,,,,,,,,,,,,,,,,,,,,,,,,o,3.515000105,HO,FALSE,,,,,,,19,camiseta,Spanish,Sounds/spa_camiseta.mp3,2020-06-08_18h10.09.378,TranslationElicitation_eng-prolific,3.2.4,Win32,60,5e6571b32013562f77434b40,,1,0,98,17,1,97
,,,,,,,,,,,,,,,,,,,,,,,,,,,,,,,,,,,,,,,,,backspace,4.06400013,H,TRUE,,,,,,,19,camiseta,Spanish,Sounds/spa_camiseta.mp3,2020-06-08_18h10.09.378,TranslationElicitation_eng-prolific,3.2.4,Win32,60,5e6571b32013562f77434b40,,1,0,98,17,1,97
,,,,,,,,,,,,,,,,,,,,,,,,,,,,,,,,,,,,,,,,,backspace,4.213999987,,TRUE,,,,,,,19,camiseta,Spanish,Sounds/spa_camiseta.mp3,2020-06-08_18h10.09.378,TranslationElicitation_eng-prolific,3.2.4,Win32,60,5e6571b32013562f77434b40,,1,0,98,17,1,97
,,,,,,,,,,,,,,,,,,,,,,,,,,,,,,,,,,,,,,,,,s,6.413000107,S,TRUE,,,,,,,19,camiseta,Spanish,Sounds/spa_camiseta.mp3,2020-06-08_18h10.09.378,TranslationElicitation_eng-prolific,3.2.4,Win32,60,5e6571b32013562f77434b40,,1,0,98,17,1,97
,,,,,,,,,,,,,,,,,,,,,,,,,,,,,,,,,,,,,,,,,e,6.597000122,SE,TRUE,,,,,,,19,camiseta,Spanish,Sounds/spa_camiseta.mp3,2020-06-08_18h10.09.378,TranslationElicitation_eng-prolific,3.2.4,Win32,60,5e6571b32013562f77434b40,,1,0,98,17,1,97
,,,,,,,,,,,,,,,,,,,,,,,,,,,,,,,,,,,,,,,,,a,6.730000019,SEA,TRUE,,,,,,,19,camiseta,Spanish,Sounds/spa_camiseta.mp3,2020-06-08_18h10.09.378,TranslationElicitation_eng-prolific,3.2.4,Win32,60,5e6571b32013562f77434b40,,1,0,98,17,1,97
,,,,,,,,,,,,,,,,,,,,,,,,,,,,,,,,,,,,,,,,,t,6.896000147,SEAT,TRUE,,,,,,,19,camiseta,Spanish,Sounds/spa_camiseta.mp3,2020-06-08_18h10.09.378,TranslationElicitation_eng-prolific,3.2.4,Win32,60,5e6571b32013562f77434b40,,1,0,98,17,1,97
,,,,,,,,,,,,,,,,,,,,,,,,,,,,,,,,,,,,,,,,,return,7.04700017,SEAT,TRUE,,,,,,,19,camiseta,Spanish,Sounds/spa_camiseta.mp3,2020-06-08_18h10.09.378,TranslationElicitation_eng-prolific,3.2.4,Win32,60,5e6571b32013562f77434b40,7.04700017,1,0,98,17,1,97
,,,,,,,,,,,,,,,,,,,,,,,,,,,,,,,,,,,,,,,,,,,,,,,,,,,19,camiseta,Spanish,Sounds/spa_camiseta.mp3,2020-06-08_18h10.09.378,TranslationElicitation_eng-prolific,3.2.4,Win32,60,5e6571b32013562f77434b40,,1,0,98,17,1,97
,,,,,,,,,,,,,,,,,,,,,,,,,,,,,,,,,,,,,,,,,m,1.732000113,M,FALSE,,,,,,,66,moto,Spanish,Sounds/spa_moto.mp3,2020-06-08_18h10.09.378,TranslationElicitation_eng-prolific,3.2.4,Win32,60,5e6571b32013562f77434b40,,1,0,98,62,1,97
,,,,,,,,,,,,,,,,,,,,,,,,,,,,,,,,,,,,,,,,,o,1.848999977,MO,FALSE,,,,,,,66,moto,Spanish,Sounds/spa_moto.mp3,2020-06-08_18h10.09.378,TranslationElicitation_eng-prolific,3.2.4,Win32,60,5e6571b32013562f77434b40,,1,0,98,62,1,97
,,,,,,,,,,,,,,,,,,,,,,,,,,,,,,,,,,,,,,,,,t,1.982000113,MOT,FALSE,,,,,,,66,moto,Spanish,Sounds/spa_moto.mp3,2020-06-08_18h10.09.378,TranslationElicitation_eng-prolific,3.2.4,Win32,60,5e6571b32013562f77434b40,,1,0,98,62,1,97
,,,,,,,,,,,,,,,,,,,,,,,,,,,,,,,,,,,,,,,,,o,2.299000025,MOTO,FALSE,,,,,,,66,moto,Spanish,Sounds/spa_moto.mp3,2020-06-08_18h10.09.378,TranslationElicitation_eng-prolific,3.2.4,Win32,60,5e6571b32013562f77434b40,,1,0,98,62,1,97
,,,,,,,,,,,,,,,,,,,,,,,,,,,,,,,,,,,,,,,,,r,2.43200016,MOTOR,FALSE,,,,,,,66,moto,Spanish,Sounds/spa_moto.mp3,2020-06-08_18h10.09.378,TranslationElicitation_eng-prolific,3.2.4,Win32,60,5e6571b32013562f77434b40,,1,0,98,62,1,97
,,,,,,,,,,,,,,,,,,,,,,,,,,,,,,,,,,,,,,,,,b,3.786000013,MOTORB,FALSE,,,,,,,66,moto,Spanish,Sounds/spa_moto.mp3,2020-06-08_18h10.09.378,TranslationElicitation_eng-prolific,3.2.4,Win32,60,5e6571b32013562f77434b40,,1,0,98,62,1,97
,,,,,,,,,,,,,,,,,,,,,,,,,,,,,,,,,,,,,,,,,i,4.164999962,MOTORBI,FALSE,,,,,,,66,moto,Spanish,Sounds/spa_moto.mp3,2020-06-08_18h10.09.378,TranslationElicitation_eng-prolific,3.2.4,Win32,60,5e6571b32013562f77434b40,,1,0,98,62,1,97
,,,,,,,,,,,,,,,,,,,,,,,,,,,,,,,,,,,,,,,,,k,4.332000017,MOTORBIK,FALSE,,,,,,,66,moto,Spanish,Sounds/spa_moto.mp3,2020-06-08_18h10.09.378,TranslationElicitation_eng-prolific,3.2.4,Win32,60,5e6571b32013562f77434b40,,1,0,98,62,1,97
,,,,,,,,,,,,,,,,,,,,,,,,,,,,,,,,,,,,,,,,,e,4.447999954,MOTORBIKE,FALSE,,,,,,,66,moto,Spanish,Sounds/spa_moto.mp3,2020-06-08_18h10.09.378,TranslationElicitation_eng-prolific,3.2.4,Win32,60,5e6571b32013562f77434b40,,1,0,98,62,1,97
,,,,,,,,,,,,,,,,,,,,,,,,,,,,,,,,,,,,,,,,,return,4.748000145,MOTORBIKE,FALSE,,,,,,,66,moto,Spanish,Sounds/spa_moto.mp3,2020-06-08_18h10.09.378,TranslationElicitation_eng-prolific,3.2.4,Win32,60,5e6571b32013562f77434b40,4.748000145,1,0,98,62,1,97
,,,,,,,,,,,,,,,,,,,,,,,,,,,,,,,,,,,,,,,,,,,,,,,,,,,66,moto,Spanish,Sounds/spa_moto.mp3,2020-06-08_18h10.09.378,TranslationElicitation_eng-prolific,3.2.4,Win32,60,5e6571b32013562f77434b40,,1,0,98,62,1,97
,,,,,,,,,,,,,,,,,,,,,,,,,,,,,,,,,,,,,,,,,t,2.215999842,T,FALSE,,,,,,,97,tijeras,Spanish,Sounds/spa_tijeras.mp3,2020-06-08_18h10.09.378,TranslationElicitation_eng-prolific,3.2.4,Win32,60,5e6571b32013562f77434b40,,1,0,98,91,1,97
,,,,,,,,,,,,,,,,,,,,,,,,,,,,,,,,,,,,,,,,,h,2.348999977,TH,FALSE,,,,,,,97,tijeras,Spanish,Sounds/spa_tijeras.mp3,2020-06-08_18h10.09.378,TranslationElicitation_eng-prolific,3.2.4,Win32,60,5e6571b32013562f77434b40,,1,0,98,91,1,97
,,,,,,,,,,,,,,,,,,,,,,,,,,,,,,,,,,,,,,,,,e,2.448999882,THE,FALSE,,,,,,,97,tijeras,Spanish,Sounds/spa_tijeras.mp3,2020-06-08_18h10.09.378,TranslationElicitation_eng-prolific,3.2.4,Win32,60,5e6571b32013562f77434b40,,1,0,98,91,1,97
,,,,,,,,,,,,,,,,,,,,,,,,,,,,,,,,,,,,,,,,,space,2.531999826,THE ,FALSE,,,,,,,97,tijeras,Spanish,Sounds/spa_tijeras.mp3,2020-06-08_18h10.09.378,TranslationElicitation_eng-prolific,3.2.4,Win32,60,5e6571b32013562f77434b40,,1,0,98,91,1,97
,,,,,,,,,,,,,,,,,,,,,,,,,,,,,,,,,,,,,,,,,h,2.832000017,THE H,FALSE,,,,,,,97,tijeras,Spanish,Sounds/spa_tijeras.mp3,2020-06-08_18h10.09.378,TranslationElicitation_eng-prolific,3.2.4,Win32,60,5e6571b32013562f77434b40,,1,0,98,91,1,97
,,,,,,,,,,,,,,,,,,,,,,,,,,,,,,,,,,,,,,,,,i,2.998999834,THE HI,FALSE,,,,,,,97,tijeras,Spanish,Sounds/spa_tijeras.mp3,2020-06-08_18h10.09.378,TranslationElicitation_eng-prolific,3.2.4,Win32,60,5e6571b32013562f77434b40,,1,0,98,91,1,97
,,,,,,,,,,,,,,,,,,,,,,,,,,,,,,,,,,,,,,,,,l,3.198999882,THE HIL,FALSE,,,,,,,97,tijeras,Spanish,Sounds/spa_tijeras.mp3,2020-06-08_18h10.09.378,TranslationElicitation_eng-prolific,3.2.4,Win32,60,5e6571b32013562f77434b40,,1,0,98,91,1,97
,,,,,,,,,,,,,,,,,,,,,,,,,,,,,,,,,,,,,,,,,l,3.314999819,THE HILL,FALSE,,,,,,,97,tijeras,Spanish,Sounds/spa_tijeras.mp3,2020-06-08_18h10.09.378,TranslationElicitation_eng-prolific,3.2.4,Win32,60,5e6571b32013562f77434b40,,1,0,98,91,1,97
,,,,,,,,,,,,,,,,,,,,,,,,,,,,,,,,,,,,,,,,,s,3.464999914,THE HILLS,FALSE,,,,,,,97,tijeras,Spanish,Sounds/spa_tijeras.mp3,2020-06-08_18h10.09.378,TranslationElicitation_eng-prolific,3.2.4,Win32,60,5e6571b32013562f77434b40,,1,0,98,91,1,97
,,,,,,,,,,,,,,,,,,,,,,,,,,,,,,,,,,,,,,,,,return,3.61500001,THE HILLS,FALSE,,,,,,,97,tijeras,Spanish,Sounds/spa_tijeras.mp3,2020-06-08_18h10.09.378,TranslationElicitation_eng-prolific,3.2.4,Win32,60,5e6571b32013562f77434b40,3.61500001,1,0,98,91,1,97
,,,,,,,,,,,,,,,,,,,,,,,,,,,,,,,,,,,,,,,,,,,,,,,,,,,97,tijeras,Spanish,Sounds/spa_tijeras.mp3,2020-06-08_18h10.09.378,TranslationElicitation_eng-prolific,3.2.4,Win32,60,5e6571b32013562f77434b40,,1,0,98,91,1,97
,,,,,,,,,,,,,,,,,,,,,,,,,,,,,,,,,,,,,,,,,p,1.450000048,P,FALSE,,,,,,,79,patata,Spanish,Sounds/spa_patata.mp3,2020-06-08_18h10.09.378,TranslationElicitation_eng-prolific,3.2.4,Win32,60,5e6571b32013562f77434b40,,1,0,98,74,1,97
,,,,,,,,,,,,,,,,,,,,,,,,,,,,,,,,,,,,,,,,,a,1.532999992,PA,FALSE,,,,,,,79,patata,Spanish,Sounds/spa_patata.mp3,2020-06-08_18h10.09.378,TranslationElicitation_eng-prolific,3.2.4,Win32,60,5e6571b32013562f77434b40,,1,0,98,74,1,97
,,,,,,,,,,,,,,,,,,,,,,,,,,,,,,,,,,,,,,,,,t,1.782999992,PAT,FALSE,,,,,,,79,patata,Spanish,Sounds/spa_patata.mp3,2020-06-08_18h10.09.378,TranslationElicitation_eng-prolific,3.2.4,Win32,60,5e6571b32013562f77434b40,,1,0,98,74,1,97
,,,,,,,,,,,,,,,,,,,,,,,,,,,,,,,,,,,,,,,,,a,1.933000088,PATA,FALSE,,,,,,,79,patata,Spanish,Sounds/spa_patata.mp3,2020-06-08_18h10.09.378,TranslationElicitation_eng-prolific,3.2.4,Win32,60,5e6571b32013562f77434b40,,1,0,98,74,1,97
,,,,,,,,,,,,,,,,,,,,,,,,,,,,,,,,,,,,,,,,,backspace,2.282999992,PAT,TRUE,,,,,,,79,patata,Spanish,Sounds/spa_patata.mp3,2020-06-08_18h10.09.378,TranslationElicitation_eng-prolific,3.2.4,Win32,60,5e6571b32013562f77434b40,,1,0,98,74,1,97
,,,,,,,,,,,,,,,,,,,,,,,,,,,,,,,,,,,,,,,,,backspace,2.44900012,PA,TRUE,,,,,,,79,patata,Spanish,Sounds/spa_patata.mp3,2020-06-08_18h10.09.378,TranslationElicitation_eng-prolific,3.2.4,Win32,60,5e6571b32013562f77434b40,,1,0,98,74,1,97
,,,,,,,,,,,,,,,,,,,,,,,,,,,,,,,,,,,,,,,,,backspace,2.565999985,P,TRUE,,,,,,,79,patata,Spanish,Sounds/spa_patata.mp3,2020-06-08_18h10.09.378,TranslationElicitation_eng-prolific,3.2.4,Win32,60,5e6571b32013562f77434b40,,1,0,98,74,1,97
,,,,,,,,,,,,,,,,,,,,,,,,,,,,,,,,,,,,,,,,,p,2.848999977,PP,TRUE,,,,,,,79,patata,Spanish,Sounds/spa_patata.mp3,2020-06-08_18h10.09.378,TranslationElicitation_eng-prolific,3.2.4,Win32,60,5e6571b32013562f77434b40,,1,0,98,74,1,97
,,,,,,,,,,,,,,,,,,,,,,,,,,,,,,,,,,,,,,,,,backspace,3.19900012,P,TRUE,,,,,,,79,patata,Spanish,Sounds/spa_patata.mp3,2020-06-08_18h10.09.378,TranslationElicitation_eng-prolific,3.2.4,Win32,60,5e6571b32013562f77434b40,,1,0,98,74,1,97
,,,,,,,,,,,,,,,,,,,,,,,,,,,,,,,,,,,,,,,,,o,3.416000128,PO,TRUE,,,,,,,79,patata,Spanish,Sounds/spa_patata.mp3,2020-06-08_18h10.09.378,TranslationElicitation_eng-prolific,3.2.4,Win32,60,5e6571b32013562f77434b40,,1,0,98,74,1,97
,,,,,,,,,,,,,,,,,,,,,,,,,,,,,,,,,,,,,,,,,t,3.515000105,POT,TRUE,,,,,,,79,patata,Spanish,Sounds/spa_patata.mp3,2020-06-08_18h10.09.378,TranslationElicitation_eng-prolific,3.2.4,Win32,60,5e6571b32013562f77434b40,,1,0,98,74,1,97
,,,,,,,,,,,,,,,,,,,,,,,,,,,,,,,,,,,,,,,,,a,3.832000017,POTA,TRUE,,,,,,,79,patata,Spanish,Sounds/spa_patata.mp3,2020-06-08_18h10.09.378,TranslationElicitation_eng-prolific,3.2.4,Win32,60,5e6571b32013562f77434b40,,1,0,98,74,1,97
,,,,,,,,,,,,,,,,,,,,,,,,,,,,,,,,,,,,,,,,,t,3.982000113,POTAT,TRUE,,,,,,,79,patata,Spanish,Sounds/spa_patata.mp3,2020-06-08_18h10.09.378,TranslationElicitation_eng-prolific,3.2.4,Win32,60,5e6571b32013562f77434b40,,1,0,98,74,1,97
,,,,,,,,,,,,,,,,,,,,,,,,,,,,,,,,,,,,,,,,,p,4.482000113,POTATP,TRUE,,,,,,,79,patata,Spanish,Sounds/spa_patata.mp3,2020-06-08_18h10.09.378,TranslationElicitation_eng-prolific,3.2.4,Win32,60,5e6571b32013562f77434b40,,1,0,98,74,1,97
,,,,,,,,,,,,,,,,,,,,,,,,,,,,,,,,,,,,,,,,,backspace,4.86500001,POTAT,TRUE,,,,,,,79,patata,Spanish,Sounds/spa_patata.mp3,2020-06-08_18h10.09.378,TranslationElicitation_eng-prolific,3.2.4,Win32,60,5e6571b32013562f77434b40,,1,0,98,74,1,97
,,,,,,,,,,,,,,,,,,,,,,,,,,,,,,,,,,,,,,,,,o,5.164999962,POTATO,TRUE,,,,,,,79,patata,Spanish,Sounds/spa_patata.mp3,2020-06-08_18h10.09.378,TranslationElicitation_eng-prolific,3.2.4,Win32,60,5e6571b32013562f77434b40,,1,0,98,74,1,97
,,,,,,,,,,,,,,,,,,,,,,,,,,,,,,,,,,,,,,,,,return,5.398000002,POTATO,TRUE,,,,,,,79,patata,Spanish,Sounds/spa_patata.mp3,2020-06-08_18h10.09.378,TranslationElicitation_eng-prolific,3.2.4,Win32,60,5e6571b32013562f77434b40,5.398000002,1,0,98,74,1,97
,,,,,,,,,,,,,,,,,,,,,,,,,,,,,,,,,,,,,,,,,,,,,,,,,,,79,patata,Spanish,Sounds/spa_patata.mp3,2020-06-08_18h10.09.378,TranslationElicitation_eng-prolific,3.2.4,Win32,60,5e6571b32013562f77434b40,,1,0,98,74,1,97
,,,,,,,,,,,,,,,,,,,,,,,,,,,,,,,,,,,,,,,,,p,2.631999969,P,FALSE,,,,,,,72,osito,Spanish,Sounds/spa_osito.mp3,2020-06-08_18h10.09.378,TranslationElicitation_eng-prolific,3.2.4,Win32,60,5e6571b32013562f77434b40,,1,0,98,67,1,97
,,,,,,,,,,,,,,,,,,,,,,,,,,,,,,,,,,,,,,,,,o,2.832000017,PO,FALSE,,,,,,,72,osito,Spanish,Sounds/spa_osito.mp3,2020-06-08_18h10.09.378,TranslationElicitation_eng-prolific,3.2.4,Win32,60,5e6571b32013562f77434b40,,1,0,98,67,1,97
,,,,,,,,,,,,,,,,,,,,,,,,,,,,,,,,,,,,,,,,,s,2.965000153,POS,FALSE,,,,,,,72,osito,Spanish,Sounds/spa_osito.mp3,2020-06-08_18h10.09.378,TranslationElicitation_eng-prolific,3.2.4,Win32,60,5e6571b32013562f77434b40,,1,0,98,67,1,97
,,,,,,,,,,,,,,,,,,,,,,,,,,,,,,,,,,,,,,,,,s,3.11500001,POSS,FALSE,,,,,,,72,osito,Spanish,Sounds/spa_osito.mp3,2020-06-08_18h10.09.378,TranslationElicitation_eng-prolific,3.2.4,Win32,60,5e6571b32013562f77434b40,,1,0,98,67,1,97
,,,,,,,,,,,,,,,,,,,,,,,,,,,,,,,,,,,,,,,,,i,3.198000193,POSSI,FALSE,,,,,,,72,osito,Spanish,Sounds/spa_osito.mp3,2020-06-08_18h10.09.378,TranslationElicitation_eng-prolific,3.2.4,Win32,60,5e6571b32013562f77434b40,,1,0,98,67,1,97
,,,,,,,,,,,,,,,,,,,,,,,,,,,,,,,,,,,,,,,,,b,3.381999969,POSSIB,FALSE,,,,,,,72,osito,Spanish,Sounds/spa_osito.mp3,2020-06-08_18h10.09.378,TranslationElicitation_eng-prolific,3.2.4,Win32,60,5e6571b32013562f77434b40,,1,0,98,67,1,97
,,,,,,,,,,,,,,,,,,,,,,,,,,,,,,,,,,,,,,,,,i,3.514000177,POSSIBI,FALSE,,,,,,,72,osito,Spanish,Sounds/spa_osito.mp3,2020-06-08_18h10.09.378,TranslationElicitation_eng-prolific,3.2.4,Win32,60,5e6571b32013562f77434b40,,1,0,98,67,1,97
,,,,,,,,,,,,,,,,,,,,,,,,,,,,,,,,,,,,,,,,,l,3.698000193,POSSIBIL,FALSE,,,,,,,72,osito,Spanish,Sounds/spa_osito.mp3,2020-06-08_18h10.09.378,TranslationElicitation_eng-prolific,3.2.4,Win32,60,5e6571b32013562f77434b40,,1,0,98,67,1,97
,,,,,,,,,,,,,,,,,,,,,,,,,,,,,,,,,,,,,,,,,i,3.864000082,POSSIBILI,FALSE,,,,,,,72,osito,Spanish,Sounds/spa_osito.mp3,2020-06-08_18h10.09.378,TranslationElicitation_eng-prolific,3.2.4,Win32,60,5e6571b32013562f77434b40,,1,0,98,67,1,97
,,,,,,,,,,,,,,,,,,,,,,,,,,,,,,,,,,,,,,,,,t,3.981000185,POSSIBILIT,FALSE,,,,,,,72,osito,Spanish,Sounds/spa_osito.mp3,2020-06-08_18h10.09.378,TranslationElicitation_eng-prolific,3.2.4,Win32,60,5e6571b32013562f77434b40,,1,0,98,67,1,97
,,,,,,,,,,,,,,,,,,,,,,,,,,,,,,,,,,,,,,,,,y,4.164000034,POSSIBILITY,FALSE,,,,,,,72,osito,Spanish,Sounds/spa_osito.mp3,2020-06-08_18h10.09.378,TranslationElicitation_eng-prolific,3.2.4,Win32,60,5e6571b32013562f77434b40,,1,0,98,67,1,97
,,,,,,,,,,,,,,,,,,,,,,,,,,,,,,,,,,,,,,,,,return,4.246999979,POSSIBILITY,FALSE,,,,,,,72,osito,Spanish,Sounds/spa_osito.mp3,2020-06-08_18h10.09.378,TranslationElicitation_eng-prolific,3.2.4,Win32,60,5e6571b32013562f77434b40,4.246999979,1,0,98,67,1,97
,,,,,,,,,,,,,,,,,,,,,,,,,,,,,,,,,,,,,,,,,,,,,,,,,,,72,osito,Spanish,Sounds/spa_osito.mp3,2020-06-08_18h10.09.378,TranslationElicitation_eng-prolific,3.2.4,Win32,60,5e6571b32013562f77434b40,,1,0,98,67,1,97
,,,,,,,,,,,,,,,,,,,,,,,,,,,,,,,,,,,,,,,,,s,3.61500001,S,FALSE,,,,,,,28,cielo,Spanish,Sounds/spa_cielo.mp3,2020-06-08_18h10.09.378,TranslationElicitation_eng-prolific,3.2.4,Win32,60,5e6571b32013562f77434b40,,1,0,98,25,1,97
,,,,,,,,,,,,,,,,,,,,,,,,,,,,,,,,,,,,,,,,,o,3.83100009,SO,FALSE,,,,,,,28,cielo,Spanish,Sounds/spa_cielo.mp3,2020-06-08_18h10.09.378,TranslationElicitation_eng-prolific,3.2.4,Win32,60,5e6571b32013562f77434b40,,1,0,98,25,1,97
,,,,,,,,,,,,,,,,,,,,,,,,,,,,,,,,,,,,,,,,,r,3.981000185,SOR,FALSE,,,,,,,28,cielo,Spanish,Sounds/spa_cielo.mp3,2020-06-08_18h10.09.378,TranslationElicitation_eng-prolific,3.2.4,Win32,60,5e6571b32013562f77434b40,,1,0,98,25,1,97
,,,,,,,,,,,,,,,,,,,,,,,,,,,,,,,,,,,,,,,,,r,4.11500001,SORR,FALSE,,,,,,,28,cielo,Spanish,Sounds/spa_cielo.mp3,2020-06-08_18h10.09.378,TranslationElicitation_eng-prolific,3.2.4,Win32,60,5e6571b32013562f77434b40,,1,0,98,25,1,97
,,,,,,,,,,,,,,,,,,,,,,,,,,,,,,,,,,,,,,,,,y,4.248000145,SORRY,FALSE,,,,,,,28,cielo,Spanish,Sounds/spa_cielo.mp3,2020-06-08_18h10.09.378,TranslationElicitation_eng-prolific,3.2.4,Win32,60,5e6571b32013562f77434b40,,1,0,98,25,1,97
,,,,,,,,,,,,,,,,,,,,,,,,,,,,,,,,,,,,,,,,,return,4.748000145,SORRY,FALSE,,,,,,,28,cielo,Spanish,Sounds/spa_cielo.mp3,2020-06-08_18h10.09.378,TranslationElicitation_eng-prolific,3.2.4,Win32,60,5e6571b32013562f77434b40,4.748000145,1,0,98,25,1,97
,,,,,,,,,,,,,,,,,,,,,,,,,,,,,,,,,,,,,,,,,,,,,,,,,,,28,cielo,Spanish,Sounds/spa_cielo.mp3,2020-06-08_18h10.09.378,TranslationElicitation_eng-prolific,3.2.4,Win32,60,5e6571b32013562f77434b40,,1,0,98,25,1,97
,,,,,,,,,,,,,,,,,,,,,,,,,,,,,,,,,,,,,,,,,b,6.680000067,B,FALSE,,,,,,,9,boli,Spanish,Sounds/spa_boli.mp3,2020-06-08_18h10.09.378,TranslationElicitation_eng-prolific,3.2.4,Win32,60,5e6571b32013562f77434b40,,1,0,98,7,1,97
,,,,,,,,,,,,,,,,,,,,,,,,,,,,,,,,,,,,,,,,,a,6.796999931,BA,FALSE,,,,,,,9,boli,Spanish,Sounds/spa_boli.mp3,2020-06-08_18h10.09.378,TranslationElicitation_eng-prolific,3.2.4,Win32,60,5e6571b32013562f77434b40,,1,0,98,7,1,97
,,,,,,,,,,,,,,,,,,,,,,,,,,,,,,,,,,,,,,,,,backspace,7.180000067,B,TRUE,,,,,,,9,boli,Spanish,Sounds/spa_boli.mp3,2020-06-08_18h10.09.378,TranslationElicitation_eng-prolific,3.2.4,Win32,60,5e6571b32013562f77434b40,,1,0,98,7,1,97
,,,,,,,,,,,,,,,,,,,,,,,,,,,,,,,,,,,,,,,,,backspace,7.312999964,,TRUE,,,,,,,9,boli,Spanish,Sounds/spa_boli.mp3,2020-06-08_18h10.09.378,TranslationElicitation_eng-prolific,3.2.4,Win32,60,5e6571b32013562f77434b40,,1,0,98,7,1,97
,,,,,,,,,,,,,,,,,,,,,,,,,,,,,,,,,,,,,,,,,b,9.845000029,B,TRUE,,,,,,,9,boli,Spanish,Sounds/spa_boli.mp3,2020-06-08_18h10.09.378,TranslationElicitation_eng-prolific,3.2.4,Win32,60,5e6571b32013562f77434b40,,1,0,98,7,1,97
,,,,,,,,,,,,,,,,,,,,,,,,,,,,,,,,,,,,,,,,,a,10.06200004,BA,TRUE,,,,,,,9,boli,Spanish,Sounds/spa_boli.mp3,2020-06-08_18h10.09.378,TranslationElicitation_eng-prolific,3.2.4,Win32,60,5e6571b32013562f77434b40,,1,0,98,7,1,97
,,,,,,,,,,,,,,,,,,,,,,,,,,,,,,,,,,,,,,,,,l,10.16100001,BAL,TRUE,,,,,,,9,boli,Spanish,Sounds/spa_boli.mp3,2020-06-08_18h10.09.378,TranslationElicitation_eng-prolific,3.2.4,Win32,60,5e6571b32013562f77434b40,,1,0,98,7,1,97
,,,,,,,,,,,,,,,,,,,,,,,,,,,,,,,,,,,,,,,,,i,10.36100006,BALI,TRUE,,,,,,,9,boli,Spanish,Sounds/spa_boli.mp3,2020-06-08_18h10.09.378,TranslationElicitation_eng-prolific,3.2.4,Win32,60,5e6571b32013562f77434b40,,1,0,98,7,1,97
,,,,,,,,,,,,,,,,,,,,,,,,,,,,,,,,,,,,,,,,,return,10.77799988,BALI,TRUE,,,,,,,9,boli,Spanish,Sounds/spa_boli.mp3,2020-06-08_18h10.09.378,TranslationElicitation_eng-prolific,3.2.4,Win32,60,5e6571b32013562f77434b40,10.77799988,1,0,98,7,1,97
,,,,,,,,,,,,,,,,,,,,,,,,,,,,,,,,,,,,,,,,,,,,,,,,,,,9,boli,Spanish,Sounds/spa_boli.mp3,2020-06-08_18h10.09.378,TranslationElicitation_eng-prolific,3.2.4,Win32,60,5e6571b32013562f77434b40,,1,0,98,7,1,97
,,,,,,,,,,,,,,,,,,,,,,,,,,,,,,,,,,,,,,,,,o,1.36500001,O,FALSE,,,,,,,68,naranja,Spanish,Sounds/spa_naranja.mp3,2020-06-08_18h10.09.378,TranslationElicitation_eng-prolific,3.2.4,Win32,60,5e6571b32013562f77434b40,,1,0,98,64,1,97
,,,,,,,,,,,,,,,,,,,,,,,,,,,,,,,,,,,,,,,,,r,1.549000025,OR,FALSE,,,,,,,68,naranja,Spanish,Sounds/spa_naranja.mp3,2020-06-08_18h10.09.378,TranslationElicitation_eng-prolific,3.2.4,Win32,60,5e6571b32013562f77434b40,,1,0,98,64,1,97
,,,,,,,,,,,,,,,,,,,,,,,,,,,,,,,,,,,,,,,,,a,1.715000153,ORA,FALSE,,,,,,,68,naranja,Spanish,Sounds/spa_naranja.mp3,2020-06-08_18h10.09.378,TranslationElicitation_eng-prolific,3.2.4,Win32,60,5e6571b32013562f77434b40,,1,0,98,64,1,97
,,,,,,,,,,,,,,,,,,,,,,,,,,,,,,,,,,,,,,,,,n,1.815000057,ORAN,FALSE,,,,,,,68,naranja,Spanish,Sounds/spa_naranja.mp3,2020-06-08_18h10.09.378,TranslationElicitation_eng-prolific,3.2.4,Win32,60,5e6571b32013562f77434b40,,1,0,98,64,1,97
,,,,,,,,,,,,,,,,,,,,,,,,,,,,,,,,,,,,,,,,,g,2.015000105,ORANG,FALSE,,,,,,,68,naranja,Spanish,Sounds/spa_naranja.mp3,2020-06-08_18h10.09.378,TranslationElicitation_eng-prolific,3.2.4,Win32,60,5e6571b32013562f77434b40,,1,0,98,64,1,97
,,,,,,,,,,,,,,,,,,,,,,,,,,,,,,,,,,,,,,,,,e,2.11500001,ORANGE,FALSE,,,,,,,68,naranja,Spanish,Sounds/spa_naranja.mp3,2020-06-08_18h10.09.378,TranslationElicitation_eng-prolific,3.2.4,Win32,60,5e6571b32013562f77434b40,,1,0,98,64,1,97
,,,,,,,,,,,,,,,,,,,,,,,,,,,,,,,,,,,,,,,,,return,2.265000105,ORANGE,FALSE,,,,,,,68,naranja,Spanish,Sounds/spa_naranja.mp3,2020-06-08_18h10.09.378,TranslationElicitation_eng-prolific,3.2.4,Win32,60,5e6571b32013562f77434b40,2.265000105,1,0,98,64,1,97
,,,,,,,,,,,,,,,,,,,,,,,,,,,,,,,,,,,,,,,,,,,,,,,,,,,68,naranja,Spanish,Sounds/spa_naranja.mp3,2020-06-08_18h10.09.378,TranslationElicitation_eng-prolific,3.2.4,Win32,60,5e6571b32013562f77434b40,,1,0,98,64,1,97
,,,,,,,,,,,,,,,,,,,,,,,,,,,,,,,,,,,,,,,,,l,2.931999922,L,FALSE,,,,,,,57,loro,Spanish,Sounds/spa_loro.mp3,2020-06-08_18h10.09.378,TranslationElicitation_eng-prolific,3.2.4,Win32,60,5e6571b32013562f77434b40,,1,0,98,53,1,97
,,,,,,,,,,,,,,,,,,,,,,,,,,,,,,,,,,,,,,,,,backspace,3.898000002,,TRUE,,,,,,,57,loro,Spanish,Sounds/spa_loro.mp3,2020-06-08_18h10.09.378,TranslationElicitation_eng-prolific,3.2.4,Win32,60,5e6571b32013562f77434b40,,1,0,98,53,1,97
,,,,,,,,,,,,,,,,,,,,,,,,,,,,,,,,,,,,,,,,,l,8.178999901,L,TRUE,,,,,,,57,loro,Spanish,Sounds/spa_loro.mp3,2020-06-08_18h10.09.378,TranslationElicitation_eng-prolific,3.2.4,Win32,60,5e6571b32013562f77434b40,,1,0,98,53,1,97
,,,,,,,,,,,,,,,,,,,,,,,,,,,,,,,,,,,,,,,,,a,9.478999853,LA,TRUE,,,,,,,57,loro,Spanish,Sounds/spa_loro.mp3,2020-06-08_18h10.09.378,TranslationElicitation_eng-prolific,3.2.4,Win32,60,5e6571b32013562f77434b40,,1,0,98,53,1,97
,,,,,,,,,,,,,,,,,,,,,,,,,,,,,,,,,,,,,,,,,w,9.628999949,LAW,TRUE,,,,,,,57,loro,Spanish,Sounds/spa_loro.mp3,2020-06-08_18h10.09.378,TranslationElicitation_eng-prolific,3.2.4,Win32,60,5e6571b32013562f77434b40,,1,0,98,53,1,97
,,,,,,,,,,,,,,,,,,,,,,,,,,,,,,,,,,,,,,,,,return,9.994999886,LAW,TRUE,,,,,,,57,loro,Spanish,Sounds/spa_loro.mp3,2020-06-08_18h10.09.378,TranslationElicitation_eng-prolific,3.2.4,Win32,60,5e6571b32013562f77434b40,9.994999886,1,0,98,53,1,97
,,,,,,,,,,,,,,,,,,,,,,,,,,,,,,,,,,,,,,,,,,,,,,,,,,,57,loro,Spanish,Sounds/spa_loro.mp3,2020-06-08_18h10.09.378,TranslationElicitation_eng-prolific,3.2.4,Win32,60,5e6571b32013562f77434b40,,1,0,98,53,1,97
,,,,,,,,,,,,,,,,,,,,,,,,,,,,,,,,,,,,,,,,,b,2.1650002,B,FALSE,,,,,,,71,ombligo,Spanish,Sounds/spa_ombligo.mp3,2020-06-08_18h10.09.378,TranslationElicitation_eng-prolific,3.2.4,Win32,60,5e6571b32013562f77434b40,,1,0,98,66,1,97
,,,,,,,,,,,,,,,,,,,,,,,,,,,,,,,,,,,,,,,,,r,2.282000065,BR,FALSE,,,,,,,71,ombligo,Spanish,Sounds/spa_ombligo.mp3,2020-06-08_18h10.09.378,TranslationElicitation_eng-prolific,3.2.4,Win32,60,5e6571b32013562f77434b40,,1,0,98,66,1,97
,,,,,,,,,,,,,,,,,,,,,,,,,,,,,,,,,,,,,,,,,o,2.381999969,BRO,FALSE,,,,,,,71,ombligo,Spanish,Sounds/spa_ombligo.mp3,2020-06-08_18h10.09.378,TranslationElicitation_eng-prolific,3.2.4,Win32,60,5e6571b32013562f77434b40,,1,0,98,66,1,97
,,,,,,,,,,,,,,,,,,,,,,,,,,,,,,,,,,,,,,,,,t,2.499000072,BROT,FALSE,,,,,,,71,ombligo,Spanish,Sounds/spa_ombligo.mp3,2020-06-08_18h10.09.378,TranslationElicitation_eng-prolific,3.2.4,Win32,60,5e6571b32013562f77434b40,,1,0,98,66,1,97
,,,,,,,,,,,,,,,,,,,,,,,,,,,,,,,,,,,,,,,,,h,2.588000059,BROTH,FALSE,,,,,,,71,ombligo,Spanish,Sounds/spa_ombligo.mp3,2020-06-08_18h10.09.378,TranslationElicitation_eng-prolific,3.2.4,Win32,60,5e6571b32013562f77434b40,,1,0,98,66,1,97
,,,,,,,,,,,,,,,,,,,,,,,,,,,,,,,,,,,,,,,,,e,2.748000145,BROTHE,FALSE,,,,,,,71,ombligo,Spanish,Sounds/spa_ombligo.mp3,2020-06-08_18h10.09.378,TranslationElicitation_eng-prolific,3.2.4,Win32,60,5e6571b32013562f77434b40,,1,0,98,66,1,97
,,,,,,,,,,,,,,,,,,,,,,,,,,,,,,,,,,,,,,,,,r,2.881999969,BROTHER,FALSE,,,,,,,71,ombligo,Spanish,Sounds/spa_ombligo.mp3,2020-06-08_18h10.09.378,TranslationElicitation_eng-prolific,3.2.4,Win32,60,5e6571b32013562f77434b40,,1,0,98,66,1,97
,,,,,,,,,,,,,,,,,,,,,,,,,,,,,,,,,,,,,,,,,s,3.065000057,BROTHERS,FALSE,,,,,,,71,ombligo,Spanish,Sounds/spa_ombligo.mp3,2020-06-08_18h10.09.378,TranslationElicitation_eng-prolific,3.2.4,Win32,60,5e6571b32013562f77434b40,,1,0,98,66,1,97
,,,,,,,,,,,,,,,,,,,,,,,,,,,,,,,,,,,,,,,,,return,3.203999996,BROTHERS,FALSE,,,,,,,71,ombligo,Spanish,Sounds/spa_ombligo.mp3,2020-06-08_18h10.09.378,TranslationElicitation_eng-prolific,3.2.4,Win32,60,5e6571b32013562f77434b40,3.203999996,1,0,98,66,1,97
,,,,,,,,,,,,,,,,,,,,,,,,,,,,,,,,,,,,,,,,,,,,,,,,,,,71,ombligo,Spanish,Sounds/spa_ombligo.mp3,2020-06-08_18h10.09.378,TranslationElicitation_eng-prolific,3.2.4,Win32,60,5e6571b32013562f77434b40,,1,0,98,66,1,97
,,,,,,,,,,,,,,,,,,,,,,,,,,,,,,,,,,,,,,,,,c,2.214999914,C,FALSE,,,,,,,41,gallina,Spanish,Sounds/spa_gallina.mp3,2020-06-08_18h10.09.378,TranslationElicitation_eng-prolific,3.2.4,Win32,60,5e6571b32013562f77434b40,,1,0,98,37,1,97
,,,,,,,,,,,,,,,,,,,,,,,,,,,,,,,,,,,,,,,,,a,2.331999779,CA,FALSE,,,,,,,41,gallina,Spanish,Sounds/spa_gallina.mp3,2020-06-08_18h10.09.378,TranslationElicitation_eng-prolific,3.2.4,Win32,60,5e6571b32013562f77434b40,,1,0,98,37,1,97
,,,,,,,,,,,,,,,,,,,,,,,,,,,,,,,,,,,,,,,,,y,2.681999922,CAY,FALSE,,,,,,,41,gallina,Spanish,Sounds/spa_gallina.mp3,2020-06-08_18h10.09.378,TranslationElicitation_eng-prolific,3.2.4,Win32,60,5e6571b32013562f77434b40,,1,0,98,37,1,97
,,,,,,,,,,,,,,,,,,,,,,,,,,,,,,,,,,,,,,,,,n,2.847999811,CAYN,FALSE,,,,,,,41,gallina,Spanish,Sounds/spa_gallina.mp3,2020-06-08_18h10.09.378,TranslationElicitation_eng-prolific,3.2.4,Win32,60,5e6571b32013562f77434b40,,1,0,98,37,1,97
,,,,,,,,,,,,,,,,,,,,,,,,,,,,,,,,,,,,,,,,,backspace,3.197999954,CAY,TRUE,,,,,,,41,gallina,Spanish,Sounds/spa_gallina.mp3,2020-06-08_18h10.09.378,TranslationElicitation_eng-prolific,3.2.4,Win32,60,5e6571b32013562f77434b40,,1,0,98,37,1,97
,,,,,,,,,,,,,,,,,,,,,,,,,,,,,,,,,,,,,,,,,e,3.36500001,CAYE,TRUE,,,,,,,41,gallina,Spanish,Sounds/spa_gallina.mp3,2020-06-08_18h10.09.378,TranslationElicitation_eng-prolific,3.2.4,Win32,60,5e6571b32013562f77434b40,,1,0,98,37,1,97
,,,,,,,,,,,,,,,,,,,,,,,,,,,,,,,,,,,,,,,,,n,3.530999899,CAYEN,TRUE,,,,,,,41,gallina,Spanish,Sounds/spa_gallina.mp3,2020-06-08_18h10.09.378,TranslationElicitation_eng-prolific,3.2.4,Win32,60,5e6571b32013562f77434b40,,1,0,98,37,1,97
,,,,,,,,,,,,,,,,,,,,,,,,,,,,,,,,,,,,,,,,,n,3.664999962,CAYENN,TRUE,,,,,,,41,gallina,Spanish,Sounds/spa_gallina.mp3,2020-06-08_18h10.09.378,TranslationElicitation_eng-prolific,3.2.4,Win32,60,5e6571b32013562f77434b40,,1,0,98,37,1,97
,,,,,,,,,,,,,,,,,,,,,,,,,,,,,,,,,,,,,,,,,e,3.797999859,CAYENNE,TRUE,,,,,,,41,gallina,Spanish,Sounds/spa_gallina.mp3,2020-06-08_18h10.09.378,TranslationElicitation_eng-prolific,3.2.4,Win32,60,5e6571b32013562f77434b40,,1,0,98,37,1,97
,,,,,,,,,,,,,,,,,,,,,,,,,,,,,,,,,,,,,,,,,return,3.964999914,CAYENNE,TRUE,,,,,,,41,gallina,Spanish,Sounds/spa_gallina.mp3,2020-06-08_18h10.09.378,TranslationElicitation_eng-prolific,3.2.4,Win32,60,5e6571b32013562f77434b40,3.964999914,1,0,98,37,1,97
,,,,,,,,,,,,,,,,,,,,,,,,,,,,,,,,,,,,,,,,,,,,,,,,,,,41,gallina,Spanish,Sounds/spa_gallina.mp3,2020-06-08_18h10.09.378,TranslationElicitation_eng-prolific,3.2.4,Win32,60,5e6571b32013562f77434b40,,1,0,98,37,1,97
,,,,,,,,,,,,,,,,,,,,,,,,,,,,,,,,,,,,,,,,,g,4.11500001,G,FALSE,,,,,,,50,jirafa,Spanish,Sounds/spa_jirafa.mp3,2020-06-08_18h10.09.378,TranslationElicitation_eng-prolific,3.2.4,Win32,60,5e6571b32013562f77434b40,,1,0,98,46,1,97
,,,,,,,,,,,,,,,,,,,,,,,,,,,,,,,,,,,,,,,,,i,4.247999907,GI,FALSE,,,,,,,50,jirafa,Spanish,Sounds/spa_jirafa.mp3,2020-06-08_18h10.09.378,TranslationElicitation_eng-prolific,3.2.4,Win32,60,5e6571b32013562f77434b40,,1,0,98,46,1,97
,,,,,,,,,,,,,,,,,,,,,,,,,,,,,,,,,,,,,,,,,r,4.830999851,GIR,FALSE,,,,,,,50,jirafa,Spanish,Sounds/spa_jirafa.mp3,2020-06-08_18h10.09.378,TranslationElicitation_eng-prolific,3.2.4,Win32,60,5e6571b32013562f77434b40,,1,0,98,46,1,97
,,,,,,,,,,,,,,,,,,,,,,,,,,,,,,,,,,,,,,,,,a,4.980999947,GIRA,FALSE,,,,,,,50,jirafa,Spanish,Sounds/spa_jirafa.mp3,2020-06-08_18h10.09.378,TranslationElicitation_eng-prolific,3.2.4,Win32,60,5e6571b32013562f77434b40,,1,0,98,46,1,97
,,,,,,,,,,,,,,,,,,,,,,,,,,,,,,,,,,,,,,,,,f,5.148999929,GIRAF,FALSE,,,,,,,50,jirafa,Spanish,Sounds/spa_jirafa.mp3,2020-06-08_18h10.09.378,TranslationElicitation_eng-prolific,3.2.4,Win32,60,5e6571b32013562f77434b40,,1,0,98,46,1,97
,,,,,,,,,,,,,,,,,,,,,,,,,,,,,,,,,,,,,,,,,f,5.282999992,GIRAFF,FALSE,,,,,,,50,jirafa,Spanish,Sounds/spa_jirafa.mp3,2020-06-08_18h10.09.378,TranslationElicitation_eng-prolific,3.2.4,Win32,60,5e6571b32013562f77434b40,,1,0,98,46,1,97
,,,,,,,,,,,,,,,,,,,,,,,,,,,,,,,,,,,,,,,,,e,5.413999796,GIRAFFE,FALSE,,,,,,,50,jirafa,Spanish,Sounds/spa_jirafa.mp3,2020-06-08_18h10.09.378,TranslationElicitation_eng-prolific,3.2.4,Win32,60,5e6571b32013562f77434b40,,1,0,98,46,1,97
,,,,,,,,,,,,,,,,,,,,,,,,,,,,,,,,,,,,,,,,,return,5.563999891,GIRAFFE,FALSE,,,,,,,50,jirafa,Spanish,Sounds/spa_jirafa.mp3,2020-06-08_18h10.09.378,TranslationElicitation_eng-prolific,3.2.4,Win32,60,5e6571b32013562f77434b40,5.563999891,1,0,98,46,1,97
,,,,,,,,,,,,,,,,,,,,,,,,,,,,,,,,,,,,,,,,,,,,,,,,,,,50,jirafa,Spanish,Sounds/spa_jirafa.mp3,2020-06-08_18h10.09.378,TranslationElicitation_eng-prolific,3.2.4,Win32,60,5e6571b32013562f77434b40,,1,0,98,46,1,97
,,,,,,,,,,,,,,,,,,,,,,,,,,,,,,,,,,,,,,,,,s,2.148999929,S,FALSE,,,,,,,103,zanahoria,Spanish,Sounds/spa_zanahoria.mp3,2020-06-08_18h10.09.378,TranslationElicitation_eng-prolific,3.2.4,Win32,60,5e6571b32013562f77434b40,,1,0,98,97,1,97
,,,,,,,,,,,,,,,,,,,,,,,,,,,,,,,,,,,,,,,,,a,2.181999922,SA,FALSE,,,,,,,103,zanahoria,Spanish,Sounds/spa_zanahoria.mp3,2020-06-08_18h10.09.378,TranslationElicitation_eng-prolific,3.2.4,Win32,60,5e6571b32013562f77434b40,,1,0,98,97,1,97
,,,,,,,,,,,,,,,,,,,,,,,,,,,,,,,,,,,,,,,,,backspace,2.84800005,S,TRUE,,,,,,,103,zanahoria,Spanish,Sounds/spa_zanahoria.mp3,2020-06-08_18h10.09.378,TranslationElicitation_eng-prolific,3.2.4,Win32,60,5e6571b32013562f77434b40,,1,0,98,97,1,97
,,,,,,,,,,,,,,,,,,,,,,,,,,,,,,,,,,,,,,,,,backspace,3.015000105,,TRUE,,,,,,,103,zanahoria,Spanish,Sounds/spa_zanahoria.mp3,2020-06-08_18h10.09.378,TranslationElicitation_eng-prolific,3.2.4,Win32,60,5e6571b32013562f77434b40,,1,0,98,97,1,97
,,,,,,,,,,,,,,,,,,,,,,,,,,,,,,,,,,,,,,,,,a,4.09800005,A,TRUE,,,,,,,103,zanahoria,Spanish,Sounds/spa_zanahoria.mp3,2020-06-08_18h10.09.378,TranslationElicitation_eng-prolific,3.2.4,Win32,60,5e6571b32013562f77434b40,,1,0,98,97,1,97
,,,,,,,,,,,,,,,,,,,,,,,,,,,,,,,,,,,,,,,,,s,4.180999994,AS,TRUE,,,,,,,103,zanahoria,Spanish,Sounds/spa_zanahoria.mp3,2020-06-08_18h10.09.378,TranslationElicitation_eng-prolific,3.2.4,Win32,60,5e6571b32013562f77434b40,,1,0,98,97,1,97
,,,,,,,,,,,,,,,,,,,,,,,,,,,,,,,,,,,,,,,,,n,4.34800005,ASN,TRUE,,,,,,,103,zanahoria,Spanish,Sounds/spa_zanahoria.mp3,2020-06-08_18h10.09.378,TranslationElicitation_eng-prolific,3.2.4,Win32,60,5e6571b32013562f77434b40,,1,0,98,97,1,97
,,,,,,,,,,,,,,,,,,,,,,,,,,,,,,,,,,,,,,,,,t,4.59800005,ASNT,TRUE,,,,,,,103,zanahoria,Spanish,Sounds/spa_zanahoria.mp3,2020-06-08_18h10.09.378,TranslationElicitation_eng-prolific,3.2.4,Win32,60,5e6571b32013562f77434b40,,1,0,98,97,1,97
,,,,,,,,,,,,,,,,,,,,,,,,,,,,,,,,,,,,,,,,,backspace,5.046999931,ASN,TRUE,,,,,,,103,zanahoria,Spanish,Sounds/spa_zanahoria.mp3,2020-06-08_18h10.09.378,TranslationElicitation_eng-prolific,3.2.4,Win32,60,5e6571b32013562f77434b40,,1,0,98,97,1,97
,,,,,,,,,,,,,,,,,,,,,,,,,,,,,,,,,,,,,,,,,backspace,5.213999987,AS,TRUE,,,,,,,103,zanahoria,Spanish,Sounds/spa_zanahoria.mp3,2020-06-08_18h10.09.378,TranslationElicitation_eng-prolific,3.2.4,Win32,60,5e6571b32013562f77434b40,,1,0,98,97,1,97
,,,,,,,,,,,,,,,,,,,,,,,,,,,,,,,,,,,,,,,,,backspace,5.364000082,A,TRUE,,,,,,,103,zanahoria,Spanish,Sounds/spa_zanahoria.mp3,2020-06-08_18h10.09.378,TranslationElicitation_eng-prolific,3.2.4,Win32,60,5e6571b32013562f77434b40,,1,0,98,97,1,97
,,,,,,,,,,,,,,,,,,,,,,,,,,,,,,,,,,,,,,,,,backspace,5.529999971,,TRUE,,,,,,,103,zanahoria,Spanish,Sounds/spa_zanahoria.mp3,2020-06-08_18h10.09.378,TranslationElicitation_eng-prolific,3.2.4,Win32,60,5e6571b32013562f77434b40,,1,0,98,97,1,97
,,,,,,,,,,,,,,,,,,,,,,,,,,,,,,,,,,,,,,,,,backspace,5.664000034,,TRUE,,,,,,,103,zanahoria,Spanish,Sounds/spa_zanahoria.mp3,2020-06-08_18h10.09.378,TranslationElicitation_eng-prolific,3.2.4,Win32,60,5e6571b32013562f77434b40,,1,0,98,97,1,97
,,,,,,,,,,,,,,,,,,,,,,,,,,,,,,,,,,,,,,,,,s,7.097000122,S,TRUE,,,,,,,103,zanahoria,Spanish,Sounds/spa_zanahoria.mp3,2020-06-08_18h10.09.378,TranslationElicitation_eng-prolific,3.2.4,Win32,60,5e6571b32013562f77434b40,,1,0,98,97,1,97
,,,,,,,,,,,,,,,,,,,,,,,,,,,,,,,,,,,,,,,,,a,7.197000027,SA,TRUE,,,,,,,103,zanahoria,Spanish,Sounds/spa_zanahoria.mp3,2020-06-08_18h10.09.378,TranslationElicitation_eng-prolific,3.2.4,Win32,60,5e6571b32013562f77434b40,,1,0,98,97,1,97
,,,,,,,,,,,,,,,,,,,,,,,,,,,,,,,,,,,,,,,,,i,7.378999949,SAI,TRUE,,,,,,,103,zanahoria,Spanish,Sounds/spa_zanahoria.mp3,2020-06-08_18h10.09.378,TranslationElicitation_eng-prolific,3.2.4,Win32,60,5e6571b32013562f77434b40,,1,0,98,97,1,97
,,,,,,,,,,,,,,,,,,,,,,,,,,,,,,,,,,,,,,,,,n,7.463000059,SAIN,TRUE,,,,,,,103,zanahoria,Spanish,Sounds/spa_zanahoria.mp3,2020-06-08_18h10.09.378,TranslationElicitation_eng-prolific,3.2.4,Win32,60,5e6571b32013562f77434b40,,1,0,98,97,1,97
,,,,,,,,,,,,,,,,,,,,,,,,,,,,,,,,,,,,,,,,,t,7.595999956,SAINT,TRUE,,,,,,,103,zanahoria,Spanish,Sounds/spa_zanahoria.mp3,2020-06-08_18h10.09.378,TranslationElicitation_eng-prolific,3.2.4,Win32,60,5e6571b32013562f77434b40,,1,0,98,97,1,97
,,,,,,,,,,,,,,,,,,,,,,,,,,,,,,,,,,,,,,,,,return,8.196000099,SAINT,TRUE,,,,,,,103,zanahoria,Spanish,Sounds/spa_zanahoria.mp3,2020-06-08_18h10.09.378,TranslationElicitation_eng-prolific,3.2.4,Win32,60,5e6571b32013562f77434b40,8.196000099,1,0,98,97,1,97
,,,,,,,,,,,,,,,,,,,,,,,,,,,,,,,,,,,,,,,,,,,,,,,,,,,103,zanahoria,Spanish,Sounds/spa_zanahoria.mp3,2020-06-08_18h10.09.378,TranslationElicitation_eng-prolific,3.2.4,Win32,60,5e6571b32013562f77434b40,,1,0,98,97,1,97
,,,,,,,,,,,,,,,,,,,,,,,,,,,,,,,,,,,,,,,,,b,3.963999987,B,FALSE,,,,,,,4,biberon,Spanish,Sounds/spa_biberon.mp3,2020-06-08_18h10.09.378,TranslationElicitation_eng-prolific,3.2.4,Win32,60,5e6571b32013562f77434b40,,1,0,98,2,1,97
,,,,,,,,,,,,,,,,,,,,,,,,,,,,,,,,,,,,,,,,,a,4.113999844,BA,FALSE,,,,,,,4,biberon,Spanish,Sounds/spa_biberon.mp3,2020-06-08_18h10.09.378,TranslationElicitation_eng-prolific,3.2.4,Win32,60,5e6571b32013562f77434b40,,1,0,98,2,1,97
,,,,,,,,,,,,,,,,,,,,,,,,,,,,,,,,,,,,,,,,,backspace,5.213999987,B,TRUE,,,,,,,4,biberon,Spanish,Sounds/spa_biberon.mp3,2020-06-08_18h10.09.378,TranslationElicitation_eng-prolific,3.2.4,Win32,60,5e6571b32013562f77434b40,,1,0,98,2,1,97
,,,,,,,,,,,,,,,,,,,,,,,,,,,,,,,,,,,,,,,,,backspace,5.329999924,,TRUE,,,,,,,4,biberon,Spanish,Sounds/spa_biberon.mp3,2020-06-08_18h10.09.378,TranslationElicitation_eng-prolific,3.2.4,Win32,60,5e6571b32013562f77434b40,,1,0,98,2,1,97
,,,,,,,,,,,,,,,,,,,,,,,,,,,,,,,,,,,,,,,,,t,5.496999979,T,TRUE,,,,,,,4,biberon,Spanish,Sounds/spa_biberon.mp3,2020-06-08_18h10.09.378,TranslationElicitation_eng-prolific,3.2.4,Win32,60,5e6571b32013562f77434b40,,1,0,98,2,1,97
,,,,,,,,,,,,,,,,,,,,,,,,,,,,,,,,,,,,,,,,,o,5.582000017,TO,TRUE,,,,,,,4,biberon,Spanish,Sounds/spa_biberon.mp3,2020-06-08_18h10.09.378,TranslationElicitation_eng-prolific,3.2.4,Win32,60,5e6571b32013562f77434b40,,1,0,98,2,1,97
,,,,,,,,,,,,,,,,,,,,,,,,,,,,,,,,,,,,,,,,,d,5.779999971,TOD,TRUE,,,,,,,4,biberon,Spanish,Sounds/spa_biberon.mp3,2020-06-08_18h10.09.378,TranslationElicitation_eng-prolific,3.2.4,Win32,60,5e6571b32013562f77434b40,,1,0,98,2,1,97
,,,,,,,,,,,,,,,,,,,,,,,,,,,,,,,,,,,,,,,,,d,5.929999828,TODD,TRUE,,,,,,,4,biberon,Spanish,Sounds/spa_biberon.mp3,2020-06-08_18h10.09.378,TranslationElicitation_eng-prolific,3.2.4,Win32,60,5e6571b32013562f77434b40,,1,0,98,2,1,97
,,,,,,,,,,,,,,,,,,,,,,,,,,,,,,,,,,,,,,,,,l,6.129999876,TODDL,TRUE,,,,,,,4,biberon,Spanish,Sounds/spa_biberon.mp3,2020-06-08_18h10.09.378,TranslationElicitation_eng-prolific,3.2.4,Win32,60,5e6571b32013562f77434b40,,1,0,98,2,1,97
,,,,,,,,,,,,,,,,,,,,,,,,,,,,,,,,,,,,,,,,,e,6.279999971,TODDLE,TRUE,,,,,,,4,biberon,Spanish,Sounds/spa_biberon.mp3,2020-06-08_18h10.09.378,TranslationElicitation_eng-prolific,3.2.4,Win32,60,5e6571b32013562f77434b40,,1,0,98,2,1,97
,,,,,,,,,,,,,,,,,,,,,,,,,,,,,,,,,,,,,,,,,r,6.346999884,TODDLER,TRUE,,,,,,,4,biberon,Spanish,Sounds/spa_biberon.mp3,2020-06-08_18h10.09.378,TranslationElicitation_eng-prolific,3.2.4,Win32,60,5e6571b32013562f77434b40,,1,0,98,2,1,97
,,,,,,,,,,,,,,,,,,,,,,,,,,,,,,,,,,,,,,,,,return,6.513000011,TODDLER,TRUE,,,,,,,4,biberon,Spanish,Sounds/spa_biberon.mp3,2020-06-08_18h10.09.378,TranslationElicitation_eng-prolific,3.2.4,Win32,60,5e6571b32013562f77434b40,6.513000011,1,0,98,2,1,97
,,,,,,,,,,,,,,,,,,,,,,,,,,,,,,,,,,,,,,,,,,,,,,,,,,,4,biberon,Spanish,Sounds/spa_biberon.mp3,2020-06-08_18h10.09.378,TranslationElicitation_eng-prolific,3.2.4,Win32,60,5e6571b32013562f77434b40,,1,0,98,2,1,97
,,,,,,,,,,,,,,,,,,,,,,,,,,,,,,,,,,,,,,,,,a,2.947999954,A,FALSE,,,,,,,62,martillo,Spanish,Sounds/spa_martillo.mp3,2020-06-08_18h10.09.378,TranslationElicitation_eng-prolific,3.2.4,Win32,60,5e6571b32013562f77434b40,,1,0,98,58,1,97
,,,,,,,,,,,,,,,,,,,,,,,,,,,,,,,,,,,,,,,,,m,2.964999914,AM,FALSE,,,,,,,62,martillo,Spanish,Sounds/spa_martillo.mp3,2020-06-08_18h10.09.378,TranslationElicitation_eng-prolific,3.2.4,Win32,60,5e6571b32013562f77434b40,,1,0,98,58,1,97
,,,,,,,,,,,,,,,,,,,,,,,,,,,,,,,,,,,,,,,,,backspace,3.547999859,A,TRUE,,,,,,,62,martillo,Spanish,Sounds/spa_martillo.mp3,2020-06-08_18h10.09.378,TranslationElicitation_eng-prolific,3.2.4,Win32,60,5e6571b32013562f77434b40,,1,0,98,58,1,97
,,,,,,,,,,,,,,,,,,,,,,,,,,,,,,,,,,,,,,,,,backspace,3.697999954,,TRUE,,,,,,,62,martillo,Spanish,Sounds/spa_martillo.mp3,2020-06-08_18h10.09.378,TranslationElicitation_eng-prolific,3.2.4,Win32,60,5e6571b32013562f77434b40,,1,0,98,58,1,97
,,,,,,,,,,,,,,,,,,,,,,,,,,,,,,,,,,,,,,,,,w,5.996999979,W,TRUE,,,,,,,62,martillo,Spanish,Sounds/spa_martillo.mp3,2020-06-08_18h10.09.378,TranslationElicitation_eng-prolific,3.2.4,Win32,60,5e6571b32013562f77434b40,,1,0,98,58,1,97
,,,,,,,,,,,,,,,,,,,,,,,,,,,,,,,,,,,,,,,,,e,6.146999836,WE,TRUE,,,,,,,62,martillo,Spanish,Sounds/spa_martillo.mp3,2020-06-08_18h10.09.378,TranslationElicitation_eng-prolific,3.2.4,Win32,60,5e6571b32013562f77434b40,,1,0,98,58,1,97
,,,,,,,,,,,,,,,,,,,,,,,,,,,,,,,,,,,,,,,,,d,6.296999931,WED,TRUE,,,,,,,62,martillo,Spanish,Sounds/spa_martillo.mp3,2020-06-08_18h10.09.378,TranslationElicitation_eng-prolific,3.2.4,Win32,60,5e6571b32013562f77434b40,,1,0,98,58,1,97
,,,,,,,,,,,,,,,,,,,,,,,,,,,,,,,,,,,,,,,,,n,6.462999821,WEDN,TRUE,,,,,,,62,martillo,Spanish,Sounds/spa_martillo.mp3,2020-06-08_18h10.09.378,TranslationElicitation_eng-prolific,3.2.4,Win32,60,5e6571b32013562f77434b40,,1,0,98,58,1,97
,,,,,,,,,,,,,,,,,,,,,,,,,,,,,,,,,,,,,,,,,e,6.546999931,WEDNE,TRUE,,,,,,,62,martillo,Spanish,Sounds/spa_martillo.mp3,2020-06-08_18h10.09.378,TranslationElicitation_eng-prolific,3.2.4,Win32,60,5e6571b32013562f77434b40,,1,0,98,58,1,97
,,,,,,,,,,,,,,,,,,,,,,,,,,,,,,,,,,,,,,,,,s,6.696999788,WEDNES,TRUE,,,,,,,62,martillo,Spanish,Sounds/spa_martillo.mp3,2020-06-08_18h10.09.378,TranslationElicitation_eng-prolific,3.2.4,Win32,60,5e6571b32013562f77434b40,,1,0,98,58,1,97
,,,,,,,,,,,,,,,,,,,,,,,,,,,,,,,,,,,,,,,,,d,6.846999884,WEDNESD,TRUE,,,,,,,62,martillo,Spanish,Sounds/spa_martillo.mp3,2020-06-08_18h10.09.378,TranslationElicitation_eng-prolific,3.2.4,Win32,60,5e6571b32013562f77434b40,,1,0,98,58,1,97
,,,,,,,,,,,,,,,,,,,,,,,,,,,,,,,,,,,,,,,,,a,6.980999947,WEDNESDA,TRUE,,,,,,,62,martillo,Spanish,Sounds/spa_martillo.mp3,2020-06-08_18h10.09.378,TranslationElicitation_eng-prolific,3.2.4,Win32,60,5e6571b32013562f77434b40,,1,0,98,58,1,97
,,,,,,,,,,,,,,,,,,,,,,,,,,,,,,,,,,,,,,,,,y,7.279999971,WEDNESDAY,TRUE,,,,,,,62,martillo,Spanish,Sounds/spa_martillo.mp3,2020-06-08_18h10.09.378,TranslationElicitation_eng-prolific,3.2.4,Win32,60,5e6571b32013562f77434b40,,1,0,98,58,1,97
,,,,,,,,,,,,,,,,,,,,,,,,,,,,,,,,,,,,,,,,,return,7.445999861,WEDNESDAY,TRUE,,,,,,,62,martillo,Spanish,Sounds/spa_martillo.mp3,2020-06-08_18h10.09.378,TranslationElicitation_eng-prolific,3.2.4,Win32,60,5e6571b32013562f77434b40,7.445999861,1,0,98,58,1,97
,,,,,,,,,,,,,,,,,,,,,,,,,,,,,,,,,,,,,,,,,,,,,,,,,,,62,martillo,Spanish,Sounds/spa_martillo.mp3,2020-06-08_18h10.09.378,TranslationElicitation_eng-prolific,3.2.4,Win32,60,5e6571b32013562f77434b40,,1,0,98,58,1,97
,,,,,,,,,,,,,,,,,,,,,,,,,,,,,,,,,,,,,,,,,s,2.265000105,S,FALSE,,,,,,,35,esponja,Spanish,Sounds/spa_esponja.mp3,2020-06-08_18h10.09.378,TranslationElicitation_eng-prolific,3.2.4,Win32,60,5e6571b32013562f77434b40,,1,0,98,31,1,97
,,,,,,,,,,,,,,,,,,,,,,,,,,,,,,,,,,,,,,,,,p,2.549000025,SP,FALSE,,,,,,,35,esponja,Spanish,Sounds/spa_esponja.mp3,2020-06-08_18h10.09.378,TranslationElicitation_eng-prolific,3.2.4,Win32,60,5e6571b32013562f77434b40,,1,0,98,31,1,97
,,,,,,,,,,,,,,,,,,,,,,,,,,,,,,,,,,,,,,,,,a,2.69900012,SPA,FALSE,,,,,,,35,esponja,Spanish,Sounds/spa_esponja.mp3,2020-06-08_18h10.09.378,TranslationElicitation_eng-prolific,3.2.4,Win32,60,5e6571b32013562f77434b40,,1,0,98,31,1,97
,,,,,,,,,,,,,,,,,,,,,,,,,,,,,,,,,,,,,,,,,n,2.947999954,SPAN,FALSE,,,,,,,35,esponja,Spanish,Sounds/spa_esponja.mp3,2020-06-08_18h10.09.378,TranslationElicitation_eng-prolific,3.2.4,Win32,60,5e6571b32013562f77434b40,,1,0,98,31,1,97
,,,,,,,,,,,,,,,,,,,,,,,,,,,,,,,,,,,,,,,,,i,3.065000057,SPANI,FALSE,,,,,,,35,esponja,Spanish,Sounds/spa_esponja.mp3,2020-06-08_18h10.09.378,TranslationElicitation_eng-prolific,3.2.4,Win32,60,5e6571b32013562f77434b40,,1,0,98,31,1,97
,,,,,,,,,,,,,,,,,,,,,,,,,,,,,,,,,,,,,,,,,s,3.215000153,SPANIS,FALSE,,,,,,,35,esponja,Spanish,Sounds/spa_esponja.mp3,2020-06-08_18h10.09.378,TranslationElicitation_eng-prolific,3.2.4,Win32,60,5e6571b32013562f77434b40,,1,0,98,31,1,97
,,,,,,,,,,,,,,,,,,,,,,,,,,,,,,,,,,,,,,,,,h,3.332000017,SPANISH,FALSE,,,,,,,35,esponja,Spanish,Sounds/spa_esponja.mp3,2020-06-08_18h10.09.378,TranslationElicitation_eng-prolific,3.2.4,Win32,60,5e6571b32013562f77434b40,,1,0,98,31,1,97
,,,,,,,,,,,,,,,,,,,,,,,,,,,,,,,,,,,,,,,,,return,3.631999969,SPANISH,FALSE,,,,,,,35,esponja,Spanish,Sounds/spa_esponja.mp3,2020-06-08_18h10.09.378,TranslationElicitation_eng-prolific,3.2.4,Win32,60,5e6571b32013562f77434b40,3.631999969,1,0,98,31,1,97
,,,,,,,,,,,,,,,,,,,,,,,,,,,,,,,,,,,,,,,,,,,,,,,,,,,35,esponja,Spanish,Sounds/spa_esponja.mp3,2020-06-08_18h10.09.378,TranslationElicitation_eng-prolific,3.2.4,Win32,60,5e6571b32013562f77434b40,,1,0,98,31,1,97
,,,,,,,,,,,,,,,,,,,,,,,,,,,,,,,,,,,,,,,,,c,1.165999889,C,FALSE,,,,,,,27,chocolate,Spanish,Sounds/spa_chocolate.mp3,2020-06-08_18h10.09.378,TranslationElicitation_eng-prolific,3.2.4,Win32,60,5e6571b32013562f77434b40,,1,0,98,24,1,97
,,,,,,,,,,,,,,,,,,,,,,,,,,,,,,,,,,,,,,,,,h,1.732000113,CH,FALSE,,,,,,,27,chocolate,Spanish,Sounds/spa_chocolate.mp3,2020-06-08_18h10.09.378,TranslationElicitation_eng-prolific,3.2.4,Win32,60,5e6571b32013562f77434b40,,1,0,98,24,1,97
,,,,,,,,,,,,,,,,,,,,,,,,,,,,,,,,,,,,,,,,,o,1.999000072,CHO,FALSE,,,,,,,27,chocolate,Spanish,Sounds/spa_chocolate.mp3,2020-06-08_18h10.09.378,TranslationElicitation_eng-prolific,3.2.4,Win32,60,5e6571b32013562f77434b40,,1,0,98,24,1,97
,,,,,,,,,,,,,,,,,,,,,,,,,,,,,,,,,,,,,,,,,l,2.282000065,CHOL,FALSE,,,,,,,27,chocolate,Spanish,Sounds/spa_chocolate.mp3,2020-06-08_18h10.09.378,TranslationElicitation_eng-prolific,3.2.4,Win32,60,5e6571b32013562f77434b40,,1,0,98,24,1,97
,,,,,,,,,,,,,,,,,,,,,,,,,,,,,,,,,,,,,,,,,backspace,2.698999882,CHO,TRUE,,,,,,,27,chocolate,Spanish,Sounds/spa_chocolate.mp3,2020-06-08_18h10.09.378,TranslationElicitation_eng-prolific,3.2.4,Win32,60,5e6571b32013562f77434b40,,1,0,98,24,1,97
,,,,,,,,,,,,,,,,,,,,,,,,,,,,,,,,,,,,,,,,,c,2.832000017,CHOC,TRUE,,,,,,,27,chocolate,Spanish,Sounds/spa_chocolate.mp3,2020-06-08_18h10.09.378,TranslationElicitation_eng-prolific,3.2.4,Win32,60,5e6571b32013562f77434b40,,1,0,98,24,1,97
,,,,,,,,,,,,,,,,,,,,,,,,,,,,,,,,,,,,,,,,,o,2.982000113,CHOCO,TRUE,,,,,,,27,chocolate,Spanish,Sounds/spa_chocolate.mp3,2020-06-08_18h10.09.378,TranslationElicitation_eng-prolific,3.2.4,Win32,60,5e6571b32013562f77434b40,,1,0,98,24,1,97
,,,,,,,,,,,,,,,,,,,,,,,,,,,,,,,,,,,,,,,,,l,3.181999922,CHOCOL,TRUE,,,,,,,27,chocolate,Spanish,Sounds/spa_chocolate.mp3,2020-06-08_18h10.09.378,TranslationElicitation_eng-prolific,3.2.4,Win32,60,5e6571b32013562f77434b40,,1,0,98,24,1,97
,,,,,,,,,,,,,,,,,,,,,,,,,,,,,,,,,,,,,,,,,a,3.265000105,CHOCOLA,TRUE,,,,,,,27,chocolate,Spanish,Sounds/spa_chocolate.mp3,2020-06-08_18h10.09.378,TranslationElicitation_eng-prolific,3.2.4,Win32,60,5e6571b32013562f77434b40,,1,0,98,24,1,97
,,,,,,,,,,,,,,,,,,,,,,,,,,,,,,,,,,,,,,,,,t,3.565000057,CHOCOLAT,TRUE,,,,,,,27,chocolate,Spanish,Sounds/spa_chocolate.mp3,2020-06-08_18h10.09.378,TranslationElicitation_eng-prolific,3.2.4,Win32,60,5e6571b32013562f77434b40,,1,0,98,24,1,97
,,,,,,,,,,,,,,,,,,,,,,,,,,,,,,,,,,,,,,,,,e,3.681999922,CHOCOLATE,TRUE,,,,,,,27,chocolate,Spanish,Sounds/spa_chocolate.mp3,2020-06-08_18h10.09.378,TranslationElicitation_eng-prolific,3.2.4,Win32,60,5e6571b32013562f77434b40,,1,0,98,24,1,97
,,,,,,,,,,,,,,,,,,,,,,,,,,,,,,,,,,,,,,,,,return,4.34800005,CHOCOLATE,TRUE,,,,,,,27,chocolate,Spanish,Sounds/spa_chocolate.mp3,2020-06-08_18h10.09.378,TranslationElicitation_eng-prolific,3.2.4,Win32,60,5e6571b32013562f77434b40,4.34800005,1,0,98,24,1,97
,,,,,,,,,,,,,,,,,,,,,,,,,,,,,,,,,,,,,,,,,,,,,,,,,,,27,chocolate,Spanish,Sounds/spa_chocolate.mp3,2020-06-08_18h10.09.378,TranslationElicitation_eng-prolific,3.2.4,Win32,60,5e6571b32013562f77434b40,,1,0,98,24,1,97
,,,,,,,,,,,,,,,,,,,,,,,,,,,,,,,,,,,,,,,,,h,3.264999866,H,FALSE,,,,,,,32,cuchara,Spanish,Sounds/spa_cuchara.mp3,2020-06-08_18h10.09.378,TranslationElicitation_eng-prolific,3.2.4,Win32,60,5e6571b32013562f77434b40,,1,0,98,28,1,97
,,,,,,,,,,,,,,,,,,,,,,,,,,,,,,,,,,,,,,,,,i,3.36500001,HI,FALSE,,,,,,,32,cuchara,Spanish,Sounds/spa_cuchara.mp3,2020-06-08_18h10.09.378,TranslationElicitation_eng-prolific,3.2.4,Win32,60,5e6571b32013562f77434b40,,1,0,98,28,1,97
,,,,,,,,,,,,,,,,,,,,,,,,,,,,,,,,,,,,,,,,,return,3.713999987,HI,FALSE,,,,,,,32,cuchara,Spanish,Sounds/spa_cuchara.mp3,2020-06-08_18h10.09.378,TranslationElicitation_eng-prolific,3.2.4,Win32,60,5e6571b32013562f77434b40,3.713999987,1,0,98,28,1,97
,,,,,,,,,,,,,,,,,,,,,,,,,,,,,,,,,,,,,,,,,,,,,,,,,,,32,cuchara,Spanish,Sounds/spa_cuchara.mp3,2020-06-08_18h10.09.378,TranslationElicitation_eng-prolific,3.2.4,Win32,60,5e6571b32013562f77434b40,,1,0,98,28,1,97
,,,,,,,,,,,,,,,,,,,,,,,,,,,,,,,,,,,,,,,,,l,1.48300004,L,FALSE,,,,,,,55,leon,Spanish,Sounds/spa_leon.mp3,2020-06-08_18h10.09.378,TranslationElicitation_eng-prolific,3.2.4,Win32,60,5e6571b32013562f77434b40,,1,0,98,51,1,97
,,,,,,,,,,,,,,,,,,,,,,,,,,,,,,,,,,,,,,,,,i,1.648999929,LI,FALSE,,,,,,,55,leon,Spanish,Sounds/spa_leon.mp3,2020-06-08_18h10.09.378,TranslationElicitation_eng-prolific,3.2.4,Win32,60,5e6571b32013562f77434b40,,1,0,98,51,1,97
,,,,,,,,,,,,,,,,,,,,,,,,,,,,,,,,,,,,,,,,,o,1.832999945,LIO,FALSE,,,,,,,55,leon,Spanish,Sounds/spa_leon.mp3,2020-06-08_18h10.09.378,TranslationElicitation_eng-prolific,3.2.4,Win32,60,5e6571b32013562f77434b40,,1,0,98,51,1,97
,,,,,,,,,,,,,,,,,,,,,,,,,,,,,,,,,,,,,,,,,n,1.915999889,LION,FALSE,,,,,,,55,leon,Spanish,Sounds/spa_leon.mp3,2020-06-08_18h10.09.378,TranslationElicitation_eng-prolific,3.2.4,Win32,60,5e6571b32013562f77434b40,,1,0,98,51,1,97
,,,,,,,,,,,,,,,,,,,,,,,,,,,,,,,,,,,,,,,,,return,2.198999882,LION,FALSE,,,,,,,55,leon,Spanish,Sounds/spa_leon.mp3,2020-06-08_18h10.09.378,TranslationElicitation_eng-prolific,3.2.4,Win32,60,5e6571b32013562f77434b40,2.198999882,1,0,98,51,1,97
,,,,,,,,,,,,,,,,,,,,,,,,,,,,,,,,,,,,,,,,,,,,,,,,,,,55,leon,Spanish,Sounds/spa_leon.mp3,2020-06-08_18h10.09.378,TranslationElicitation_eng-prolific,3.2.4,Win32,60,5e6571b32013562f77434b40,,1,0,98,51,1,97
,,,,,,,,,,,,,,,,,,,,,,,,,,,,,,,,,,,,,,,,,f,1.43200016,F,FALSE,,,,,,,37,flor,Spanish,Sounds/spa_flor.mp3,2020-06-08_18h10.09.378,TranslationElicitation_eng-prolific,3.2.4,Win32,60,5e6571b32013562f77434b40,,1,0,98,33,1,97
,,,,,,,,,,,,,,,,,,,,,,,,,,,,,,,,,,,,,,,,,l,1.549000025,FL,FALSE,,,,,,,37,flor,Spanish,Sounds/spa_flor.mp3,2020-06-08_18h10.09.378,TranslationElicitation_eng-prolific,3.2.4,Win32,60,5e6571b32013562f77434b40,,1,0,98,33,1,97
,,,,,,,,,,,,,,,,,,,,,,,,,,,,,,,,,,,,,,,,,o,1.71600008,FLO,FALSE,,,,,,,37,flor,Spanish,Sounds/spa_flor.mp3,2020-06-08_18h10.09.378,TranslationElicitation_eng-prolific,3.2.4,Win32,60,5e6571b32013562f77434b40,,1,0,98,33,1,97
,,,,,,,,,,,,,,,,,,,,,,,,,,,,,,,,,,,,,,,,,w,1.815999985,FLOW,FALSE,,,,,,,37,flor,Spanish,Sounds/spa_flor.mp3,2020-06-08_18h10.09.378,TranslationElicitation_eng-prolific,3.2.4,Win32,60,5e6571b32013562f77434b40,,1,0,98,33,1,97
,,,,,,,,,,,,,,,,,,,,,,,,,,,,,,,,,,,,,,,,,e,2.015000105,FLOWE,FALSE,,,,,,,37,flor,Spanish,Sounds/spa_flor.mp3,2020-06-08_18h10.09.378,TranslationElicitation_eng-prolific,3.2.4,Win32,60,5e6571b32013562f77434b40,,1,0,98,33,1,97
,,,,,,,,,,,,,,,,,,,,,,,,,,,,,,,,,,,,,,,,,r,2.18200016,FLOWER,FALSE,,,,,,,37,flor,Spanish,Sounds/spa_flor.mp3,2020-06-08_18h10.09.378,TranslationElicitation_eng-prolific,3.2.4,Win32,60,5e6571b32013562f77434b40,,1,0,98,33,1,97
,,,,,,,,,,,,,,,,,,,,,,,,,,,,,,,,,,,,,,,,,return,2.381999969,FLOWER,FALSE,,,,,,,37,flor,Spanish,Sounds/spa_flor.mp3,2020-06-08_18h10.09.378,TranslationElicitation_eng-prolific,3.2.4,Win32,60,5e6571b32013562f77434b40,2.381999969,1,0,98,33,1,97
,,,,,,,,,,,,,,,,,,,,,,,,,,,,,,,,,,,,,,,,,,,,,,,,,,,37,flor,Spanish,Sounds/spa_flor.mp3,2020-06-08_18h10.09.378,TranslationElicitation_eng-prolific,3.2.4,Win32,60,5e6571b32013562f77434b40,,1,0,98,33,1,97
