consentKey.keys,consentKey.rt,languageL1Key.keys,languageL1Key.rt,languageL2,languageL2OralKey.keys,languageL2OralKey.rt,languageL2WrittenKey.keys,languageL2WrittenKey.rt,languageL3OralKey.keys,languageL3OralKey.rt,languageL3WrittenKey.keys,languageL3WrittenKey.rt,languageCatalanOralKey.keys,languageCatalanOralKey.rt,languageCatalanWrittenKey.keys,languageCatalanWrittenKey.rt,languageCatalanTimeKey.keys,languageCatalanTimeKey.rt,languageSpanishOralKey.keys,languageSpanishOralKey.rt,languageSpanishWrittenKey.keys,languageSpanishWrittenKey.rt,languageSpanishTimeKey.keys,languageSpanishTimeKey.rt,age,demoSexKey.keys,demoSexKey.rt,demoEducationKey.keys,demoEducationKey.rt,city,demoVisionKey.keys,demoVisionKey.rt,demoLanguageKey.keys,demoLanguageKey.rt,setupLocationKey.keys,setupLocationKey.rt,setupNoiseKey.keys,setupNoiseKey.rt,instructionsKeys.keys,instructionsKeys.rt,keyPressed,keyPressTime,inputText,error,trialsPracticeSpanish.thisRepN,trialsPracticeSpanish.thisTrialN,trialsPracticeSpanish.thisN,trialsPracticeSpanish.thisIndex,trialsPracticeSpanish.ran,trialsPracticeSpanish.order,trial_id,word,test_language,soundfile,date,expName,psychopyVersion,OS,frameRate,participant,trialOffset,trialsSpanish.thisRepN,trialsSpanish.thisTrialN,trialsSpanish.thisN,trialsSpanish.thisIndex,trialsSpanish.ran,trialsSpanish.order
space,2.203999996,e,3.235000134,,,,,,,,,,1,9.873999834,1,4.572000027,1,6.684000015,2,6.23300004,2,4.362999916,1,2.710000038,24,f,1.542000055,4,5.06799984,BARNSTAPLE,y,4.916000128,n,4.415999889,1,2.31400013,2,5.490999937,space,20.84300017,h,1.747999907,H,FALSE,1,0,5,3,1,4,70,ola,Spanish,Sounds/spa_ola.mp3,2020-06-24_18h00.02.190,TranslationElicitation_eng-prolific-spa,3.2.4,Win32,60,5e71e92d7c127310819224be,,,,,,,
,,,,,,,,,,,,,,,,,,,,,,,,,,,,,,,,,,,,,,,,,o,1.950000048,HO,FALSE,1,0,5,3,1,4,70,ola,Spanish,Sounds/spa_ola.mp3,2020-06-24_18h00.02.190,TranslationElicitation_eng-prolific-spa,3.2.4,Win32,60,5e71e92d7c127310819224be,,,,,,,
,,,,,,,,,,,,,,,,,,,,,,,,,,,,,,,,,,,,,,,,,backspace,2.430999994,H,TRUE,1,0,5,3,1,4,70,ola,Spanish,Sounds/spa_ola.mp3,2020-06-24_18h00.02.190,TranslationElicitation_eng-prolific-spa,3.2.4,Win32,60,5e71e92d7c127310819224be,,,,,,,
,,,,,,,,,,,,,,,,,,,,,,,,,,,,,,,,,,,,,,,,,backspace,2.580999851,,TRUE,1,0,5,3,1,4,70,ola,Spanish,Sounds/spa_ola.mp3,2020-06-24_18h00.02.190,TranslationElicitation_eng-prolific-spa,3.2.4,Win32,60,5e71e92d7c127310819224be,,,,,,,
,,,,,,,,,,,,,,,,,,,,,,,,,,,,,,,,,,,,,,,,,h,3.013999939,H,TRUE,1,0,5,3,1,4,70,ola,Spanish,Sounds/spa_ola.mp3,2020-06-24_18h00.02.190,TranslationElicitation_eng-prolific-spa,3.2.4,Win32,60,5e71e92d7c127310819224be,,,,,,,
,,,,,,,,,,,,,,,,,,,,,,,,,,,,,,,,,,,,,,,,,l,3.230000019,HL,TRUE,1,0,5,3,1,4,70,ola,Spanish,Sounds/spa_ola.mp3,2020-06-24_18h00.02.190,TranslationElicitation_eng-prolific-spa,3.2.4,Win32,60,5e71e92d7c127310819224be,,,,,,,
,,,,,,,,,,,,,,,,,,,,,,,,,,,,,,,,,,,,,,,,,backspace,3.714999914,H,TRUE,1,0,5,3,1,4,70,ola,Spanish,Sounds/spa_ola.mp3,2020-06-24_18h00.02.190,TranslationElicitation_eng-prolific-spa,3.2.4,Win32,60,5e71e92d7c127310819224be,,,,,,,
,,,,,,,,,,,,,,,,,,,,,,,,,,,,,,,,,,,,,,,,,e,3.864000082,HE,TRUE,1,0,5,3,1,4,70,ola,Spanish,Sounds/spa_ola.mp3,2020-06-24_18h00.02.190,TranslationElicitation_eng-prolific-spa,3.2.4,Win32,60,5e71e92d7c127310819224be,,,,,,,
,,,,,,,,,,,,,,,,,,,,,,,,,,,,,,,,,,,,,,,,,l,3.963000059,HEL,TRUE,1,0,5,3,1,4,70,ola,Spanish,Sounds/spa_ola.mp3,2020-06-24_18h00.02.190,TranslationElicitation_eng-prolific-spa,3.2.4,Win32,60,5e71e92d7c127310819224be,,,,,,,
,,,,,,,,,,,,,,,,,,,,,,,,,,,,,,,,,,,,,,,,,l,4.112999916,HELL,TRUE,1,0,5,3,1,4,70,ola,Spanish,Sounds/spa_ola.mp3,2020-06-24_18h00.02.190,TranslationElicitation_eng-prolific-spa,3.2.4,Win32,60,5e71e92d7c127310819224be,,,,,,,
,,,,,,,,,,,,,,,,,,,,,,,,,,,,,,,,,,,,,,,,,o,4.279999971,HELLO,TRUE,1,0,5,3,1,4,70,ola,Spanish,Sounds/spa_ola.mp3,2020-06-24_18h00.02.190,TranslationElicitation_eng-prolific-spa,3.2.4,Win32,60,5e71e92d7c127310819224be,,,,,,,
,,,,,,,,,,,,,,,,,,,,,,,,,,,,,,,,,,,,,,,,,return,4.842999935,HELLO,TRUE,1,0,5,3,1,4,70,ola,Spanish,Sounds/spa_ola.mp3,2020-06-24_18h00.02.190,TranslationElicitation_eng-prolific-spa,3.2.4,Win32,60,5e71e92d7c127310819224be,4.842999935,,,,,,
,,,,,,,,,,,,,,,,,,,,,,,,,,,,,,,,,,,,,,,,,,,,,1,0,5,3,1,4,70,ola,Spanish,Sounds/spa_ola.mp3,2020-06-24_18h00.02.190,TranslationElicitation_eng-prolific-spa,3.2.4,Win32,60,5e71e92d7c127310819224be,,,,,,,
,,,,,,,,,,,,,,,,,,,,,,,,,,,,,,,,,,,,,,,,,h,1.44900012,H,FALSE,1,0,5,2,1,4,26,chaqueta,Spanish,Sounds/spa_chaqueta.mp3,2020-06-24_18h00.02.190,TranslationElicitation_eng-prolific-spa,3.2.4,Win32,60,5e71e92d7c127310819224be,,,,,,,
,,,,,,,,,,,,,,,,,,,,,,,,,,,,,,,,,,,,,,,,,o,1.61500001,HO,FALSE,1,0,5,2,1,4,26,chaqueta,Spanish,Sounds/spa_chaqueta.mp3,2020-06-24_18h00.02.190,TranslationElicitation_eng-prolific-spa,3.2.4,Win32,60,5e71e92d7c127310819224be,,,,,,,
,,,,,,,,,,,,,,,,,,,,,,,,,,,,,,,,,,,,,,,,,w,1.698000193,HOW,FALSE,1,0,5,2,1,4,26,chaqueta,Spanish,Sounds/spa_chaqueta.mp3,2020-06-24_18h00.02.190,TranslationElicitation_eng-prolific-spa,3.2.4,Win32,60,5e71e92d7c127310819224be,,,,,,,
,,,,,,,,,,,,,,,,,,,,,,,,,,,,,,,,,,,,,,,,,space,1.849000216,HOW ,FALSE,1,0,5,2,1,4,26,chaqueta,Spanish,Sounds/spa_chaqueta.mp3,2020-06-24_18h00.02.190,TranslationElicitation_eng-prolific-spa,3.2.4,Win32,60,5e71e92d7c127310819224be,,,,,,,
,,,,,,,,,,,,,,,,,,,,,,,,,,,,,,,,,,,,,,,,,a,1.898000002,HOW A,FALSE,1,0,5,2,1,4,26,chaqueta,Spanish,Sounds/spa_chaqueta.mp3,2020-06-24_18h00.02.190,TranslationElicitation_eng-prolific-spa,3.2.4,Win32,60,5e71e92d7c127310819224be,,,,,,,
,,,,,,,,,,,,,,,,,,,,,,,,,,,,,,,,,,,,,,,,,r,1.982000113,HOW AR,FALSE,1,0,5,2,1,4,26,chaqueta,Spanish,Sounds/spa_chaqueta.mp3,2020-06-24_18h00.02.190,TranslationElicitation_eng-prolific-spa,3.2.4,Win32,60,5e71e92d7c127310819224be,,,,,,,
,,,,,,,,,,,,,,,,,,,,,,,,,,,,,,,,,,,,,,,,,e,2.032999992,HOW ARE,FALSE,1,0,5,2,1,4,26,chaqueta,Spanish,Sounds/spa_chaqueta.mp3,2020-06-24_18h00.02.190,TranslationElicitation_eng-prolific-spa,3.2.4,Win32,60,5e71e92d7c127310819224be,,,,,,,
,,,,,,,,,,,,,,,,,,,,,,,,,,,,,,,,,,,,,,,,,space,2.132000208,HOW ARE ,FALSE,1,0,5,2,1,4,26,chaqueta,Spanish,Sounds/spa_chaqueta.mp3,2020-06-24_18h00.02.190,TranslationElicitation_eng-prolific-spa,3.2.4,Win32,60,5e71e92d7c127310819224be,,,,,,,
,,,,,,,,,,,,,,,,,,,,,,,,,,,,,,,,,,,,,,,,,y,2.232000113,HOW ARE Y,FALSE,1,0,5,2,1,4,26,chaqueta,Spanish,Sounds/spa_chaqueta.mp3,2020-06-24_18h00.02.190,TranslationElicitation_eng-prolific-spa,3.2.4,Win32,60,5e71e92d7c127310819224be,,,,,,,
,,,,,,,,,,,,,,,,,,,,,,,,,,,,,,,,,,,,,,,,,o,2.298000097,HOW ARE YO,FALSE,1,0,5,2,1,4,26,chaqueta,Spanish,Sounds/spa_chaqueta.mp3,2020-06-24_18h00.02.190,TranslationElicitation_eng-prolific-spa,3.2.4,Win32,60,5e71e92d7c127310819224be,,,,,,,
,,,,,,,,,,,,,,,,,,,,,,,,,,,,,,,,,,,,,,,,,u,2.381000042,HOW ARE YOU,FALSE,1,0,5,2,1,4,26,chaqueta,Spanish,Sounds/spa_chaqueta.mp3,2020-06-24_18h00.02.190,TranslationElicitation_eng-prolific-spa,3.2.4,Win32,60,5e71e92d7c127310819224be,,,,,,,
,,,,,,,,,,,,,,,,,,,,,,,,,,,,,,,,,,,,,,,,,return,2.83100009,HOW ARE YOU,FALSE,1,0,5,2,1,4,26,chaqueta,Spanish,Sounds/spa_chaqueta.mp3,2020-06-24_18h00.02.190,TranslationElicitation_eng-prolific-spa,3.2.4,Win32,60,5e71e92d7c127310819224be,2.83100009,,,,,,
,,,,,,,,,,,,,,,,,,,,,,,,,,,,,,,,,,,,,,,,,,,,,1,0,5,2,1,4,26,chaqueta,Spanish,Sounds/spa_chaqueta.mp3,2020-06-24_18h00.02.190,TranslationElicitation_eng-prolific-spa,3.2.4,Win32,60,5e71e92d7c127310819224be,,,,,,,
,,,,,,,,,,,,,,,,,,,,,,,,,,,,,,,,,,,,,,,,,c,2.162999868,C,FALSE,1,0,5,1,1,4,30,corona,Spanish,Sounds/spa_corona.mp3,2020-06-24_18h00.02.190,TranslationElicitation_eng-prolific-spa,3.2.4,Win32,60,5e71e92d7c127310819224be,,,,,,,
,,,,,,,,,,,,,,,,,,,,,,,,,,,,,,,,,,,,,,,,,o,2.312999964,CO,FALSE,1,0,5,1,1,4,30,corona,Spanish,Sounds/spa_corona.mp3,2020-06-24_18h00.02.190,TranslationElicitation_eng-prolific-spa,3.2.4,Win32,60,5e71e92d7c127310819224be,,,,,,,
,,,,,,,,,,,,,,,,,,,,,,,,,,,,,,,,,,,,,,,,,r,2.462999821,COR,FALSE,1,0,5,1,1,4,30,corona,Spanish,Sounds/spa_corona.mp3,2020-06-24_18h00.02.190,TranslationElicitation_eng-prolific-spa,3.2.4,Win32,60,5e71e92d7c127310819224be,,,,,,,
,,,,,,,,,,,,,,,,,,,,,,,,,,,,,,,,,,,,,,,,,o,2.612999916,CORO,FALSE,1,0,5,1,1,4,30,corona,Spanish,Sounds/spa_corona.mp3,2020-06-24_18h00.02.190,TranslationElicitation_eng-prolific-spa,3.2.4,Win32,60,5e71e92d7c127310819224be,,,,,,,
,,,,,,,,,,,,,,,,,,,,,,,,,,,,,,,,,,,,,,,,,n,2.796000004,CORON,FALSE,1,0,5,1,1,4,30,corona,Spanish,Sounds/spa_corona.mp3,2020-06-24_18h00.02.190,TranslationElicitation_eng-prolific-spa,3.2.4,Win32,60,5e71e92d7c127310819224be,,,,,,,
,,,,,,,,,,,,,,,,,,,,,,,,,,,,,,,,,,,,,,,,,a,2.929999828,CORONA,FALSE,1,0,5,1,1,4,30,corona,Spanish,Sounds/spa_corona.mp3,2020-06-24_18h00.02.190,TranslationElicitation_eng-prolific-spa,3.2.4,Win32,60,5e71e92d7c127310819224be,,,,,,,
,,,,,,,,,,,,,,,,,,,,,,,,,,,,,,,,,,,,,,,,,return,3.129999876,CORONA,FALSE,1,0,5,1,1,4,30,corona,Spanish,Sounds/spa_corona.mp3,2020-06-24_18h00.02.190,TranslationElicitation_eng-prolific-spa,3.2.4,Win32,60,5e71e92d7c127310819224be,3.129999876,,,,,,
,,,,,,,,,,,,,,,,,,,,,,,,,,,,,,,,,,,,,,,,,,,,,1,0,5,1,1,4,30,corona,Spanish,Sounds/spa_corona.mp3,2020-06-24_18h00.02.190,TranslationElicitation_eng-prolific-spa,3.2.4,Win32,60,5e71e92d7c127310819224be,,,,,,,
,,,,,,,,,,,,,,,,,,,,,,,,,,,,,,,,,,,,,,,,,t,2.548000097,T,FALSE,1,0,5,4,1,4,96,tigre,Spanish,Sounds/spa_tigre.mp3,2020-06-24_18h00.02.190,TranslationElicitation_eng-prolific-spa,3.2.4,Win32,60,5e71e92d7c127310819224be,,,,,,,
,,,,,,,,,,,,,,,,,,,,,,,,,,,,,,,,,,,,,,,,,i,2.715000153,TI,FALSE,1,0,5,4,1,4,96,tigre,Spanish,Sounds/spa_tigre.mp3,2020-06-24_18h00.02.190,TranslationElicitation_eng-prolific-spa,3.2.4,Win32,60,5e71e92d7c127310819224be,,,,,,,
,,,,,,,,,,,,,,,,,,,,,,,,,,,,,,,,,,,,,,,,,g,2.799000025,TIG,FALSE,1,0,5,4,1,4,96,tigre,Spanish,Sounds/spa_tigre.mp3,2020-06-24_18h00.02.190,TranslationElicitation_eng-prolific-spa,3.2.4,Win32,60,5e71e92d7c127310819224be,,,,,,,
,,,,,,,,,,,,,,,,,,,,,,,,,,,,,,,,,,,,,,,,,e,3.015000105,TIGE,FALSE,1,0,5,4,1,4,96,tigre,Spanish,Sounds/spa_tigre.mp3,2020-06-24_18h00.02.190,TranslationElicitation_eng-prolific-spa,3.2.4,Win32,60,5e71e92d7c127310819224be,,,,,,,
,,,,,,,,,,,,,,,,,,,,,,,,,,,,,,,,,,,,,,,,,r,3.101000071,TIGER,FALSE,1,0,5,4,1,4,96,tigre,Spanish,Sounds/spa_tigre.mp3,2020-06-24_18h00.02.190,TranslationElicitation_eng-prolific-spa,3.2.4,Win32,60,5e71e92d7c127310819224be,,,,,,,
,,,,,,,,,,,,,,,,,,,,,,,,,,,,,,,,,,,,,,,,,return,3.248000145,TIGER,FALSE,1,0,5,4,1,4,96,tigre,Spanish,Sounds/spa_tigre.mp3,2020-06-24_18h00.02.190,TranslationElicitation_eng-prolific-spa,3.2.4,Win32,60,5e71e92d7c127310819224be,3.248000145,,,,,,
,,,,,,,,,,,,,,,,,,,,,,,,,,,,,,,,,,,,,,,,,,,,,1,0,5,4,1,4,96,tigre,Spanish,Sounds/spa_tigre.mp3,2020-06-24_18h00.02.190,TranslationElicitation_eng-prolific-spa,3.2.4,Win32,60,5e71e92d7c127310819224be,,,,,,,
,,,,,,,,,,,,,,,,,,,,,,,,,,,,,,,,,,,,,,,,,backspace,4.896999836,,TRUE,1,0,5,0,1,4,1,arbol,Spanish,Sounds/spa_arbol.mp3,2020-06-24_18h00.02.190,TranslationElicitation_eng-prolific-spa,3.2.4,Win32,60,5e71e92d7c127310819224be,,,,,,,
,,,,,,,,,,,,,,,,,,,,,,,,,,,,,,,,,,,,,,,,,f,10.64499998,F,TRUE,1,0,5,0,1,4,1,arbol,Spanish,Sounds/spa_arbol.mp3,2020-06-24_18h00.02.190,TranslationElicitation_eng-prolific-spa,3.2.4,Win32,60,5e71e92d7c127310819224be,,,,,,,
,,,,,,,,,,,,,,,,,,,,,,,,,,,,,,,,,,,,,,,,,i,10.8119998,FI,TRUE,1,0,5,0,1,4,1,arbol,Spanish,Sounds/spa_arbol.mp3,2020-06-24_18h00.02.190,TranslationElicitation_eng-prolific-spa,3.2.4,Win32,60,5e71e92d7c127310819224be,,,,,,,
,,,,,,,,,,,,,,,,,,,,,,,,,,,,,,,,,,,,,,,,,r,10.91199994,FIR,TRUE,1,0,5,0,1,4,1,arbol,Spanish,Sounds/spa_arbol.mp3,2020-06-24_18h00.02.190,TranslationElicitation_eng-prolific-spa,3.2.4,Win32,60,5e71e92d7c127310819224be,,,,,,,
,,,,,,,,,,,,,,,,,,,,,,,,,,,,,,,,,,,,,,,,,e,11.01499987,FIRE,TRUE,1,0,5,0,1,4,1,arbol,Spanish,Sounds/spa_arbol.mp3,2020-06-24_18h00.02.190,TranslationElicitation_eng-prolific-spa,3.2.4,Win32,60,5e71e92d7c127310819224be,,,,,,,
,,,,,,,,,,,,,,,,,,,,,,,,,,,,,,,,,,,,,,,,,b,11.18099999,FIREB,TRUE,1,0,5,0,1,4,1,arbol,Spanish,Sounds/spa_arbol.mp3,2020-06-24_18h00.02.190,TranslationElicitation_eng-prolific-spa,3.2.4,Win32,60,5e71e92d7c127310819224be,,,,,,,
,,,,,,,,,,,,,,,,,,,,,,,,,,,,,,,,,,,,,,,,,a,11.34499979,FIREBA,TRUE,1,0,5,0,1,4,1,arbol,Spanish,Sounds/spa_arbol.mp3,2020-06-24_18h00.02.190,TranslationElicitation_eng-prolific-spa,3.2.4,Win32,60,5e71e92d7c127310819224be,,,,,,,
,,,,,,,,,,,,,,,,,,,,,,,,,,,,,,,,,,,,,,,,,l,11.42799997,FIREBAL,TRUE,1,0,5,0,1,4,1,arbol,Spanish,Sounds/spa_arbol.mp3,2020-06-24_18h00.02.190,TranslationElicitation_eng-prolific-spa,3.2.4,Win32,60,5e71e92d7c127310819224be,,,,,,,
,,,,,,,,,,,,,,,,,,,,,,,,,,,,,,,,,,,,,,,,,l,11.5619998,FIREBALL,TRUE,1,0,5,0,1,4,1,arbol,Spanish,Sounds/spa_arbol.mp3,2020-06-24_18h00.02.190,TranslationElicitation_eng-prolific-spa,3.2.4,Win32,60,5e71e92d7c127310819224be,,,,,,,
,,,,,,,,,,,,,,,,,,,,,,,,,,,,,,,,,,,,,,,,,return,12.07799983,FIREBALL,TRUE,1,0,5,0,1,4,1,arbol,Spanish,Sounds/spa_arbol.mp3,2020-06-24_18h00.02.190,TranslationElicitation_eng-prolific-spa,3.2.4,Win32,60,5e71e92d7c127310819224be,12.07799983,,,,,,
,,,,,,,,,,,,,,,,,,,,,,,,,,,,,,,,,,,,,,,,,,,,,1,0,5,0,1,4,1,arbol,Spanish,Sounds/spa_arbol.mp3,2020-06-24_18h00.02.190,TranslationElicitation_eng-prolific-spa,3.2.4,Win32,60,5e71e92d7c127310819224be,,,,,,,
,,,,,,,,,,,,,,,,,,,,,,,,,,,,,,,,,,,,,,,,,s,3.132999897,S,FALSE,,,,,,,28,cielo,Spanish,Sounds/spa_cielo.mp3,2020-06-24_18h00.02.190,TranslationElicitation_eng-prolific-spa,3.2.4,Win32,60,5e71e92d7c127310819224be,,1,0,98,25,1,97
,,,,,,,,,,,,,,,,,,,,,,,,,,,,,,,,,,,,,,,,,l,3.447000027,SL,FALSE,,,,,,,28,cielo,Spanish,Sounds/spa_cielo.mp3,2020-06-24_18h00.02.190,TranslationElicitation_eng-prolific-spa,3.2.4,Win32,60,5e71e92d7c127310819224be,,1,0,98,25,1,97
,,,,,,,,,,,,,,,,,,,,,,,,,,,,,,,,,,,,,,,,,e,3.680999994,SLE,FALSE,,,,,,,28,cielo,Spanish,Sounds/spa_cielo.mp3,2020-06-24_18h00.02.190,TranslationElicitation_eng-prolific-spa,3.2.4,Win32,60,5e71e92d7c127310819224be,,1,0,98,25,1,97
,,,,,,,,,,,,,,,,,,,,,,,,,,,,,,,,,,,,,,,,,e,3.829999924,SLEE,FALSE,,,,,,,28,cielo,Spanish,Sounds/spa_cielo.mp3,2020-06-24_18h00.02.190,TranslationElicitation_eng-prolific-spa,3.2.4,Win32,60,5e71e92d7c127310819224be,,1,0,98,25,1,97
,,,,,,,,,,,,,,,,,,,,,,,,,,,,,,,,,,,,,,,,,p,3.932999849,SLEEP,FALSE,,,,,,,28,cielo,Spanish,Sounds/spa_cielo.mp3,2020-06-24_18h00.02.190,TranslationElicitation_eng-prolific-spa,3.2.4,Win32,60,5e71e92d7c127310819224be,,1,0,98,25,1,97
,,,,,,,,,,,,,,,,,,,,,,,,,,,,,,,,,,,,,,,,,return,4.363999844,SLEEP,FALSE,,,,,,,28,cielo,Spanish,Sounds/spa_cielo.mp3,2020-06-24_18h00.02.190,TranslationElicitation_eng-prolific-spa,3.2.4,Win32,60,5e71e92d7c127310819224be,4.363999844,1,0,98,25,1,97
,,,,,,,,,,,,,,,,,,,,,,,,,,,,,,,,,,,,,,,,,,,,,,,,,,,28,cielo,Spanish,Sounds/spa_cielo.mp3,2020-06-24_18h00.02.190,TranslationElicitation_eng-prolific-spa,3.2.4,Win32,60,5e71e92d7c127310819224be,,1,0,98,25,1,97
,,,,,,,,,,,,,,,,,,,,,,,,,,,,,,,,,,,,,,,,,b,2.84800005,B,FALSE,,,,,,,9,boli,Spanish,Sounds/spa_boli.mp3,2020-06-24_18h00.02.190,TranslationElicitation_eng-prolific-spa,3.2.4,Win32,60,5e71e92d7c127310819224be,,1,0,98,7,1,97
,,,,,,,,,,,,,,,,,,,,,,,,,,,,,,,,,,,,,,,,,a,2.980999947,BA,FALSE,,,,,,,9,boli,Spanish,Sounds/spa_boli.mp3,2020-06-24_18h00.02.190,TranslationElicitation_eng-prolific-spa,3.2.4,Win32,60,5e71e92d7c127310819224be,,1,0,98,7,1,97
,,,,,,,,,,,,,,,,,,,,,,,,,,,,,,,,,,,,,,,,,l,3.08100009,BAL,FALSE,,,,,,,9,boli,Spanish,Sounds/spa_boli.mp3,2020-06-24_18h00.02.190,TranslationElicitation_eng-prolific-spa,3.2.4,Win32,60,5e71e92d7c127310819224be,,1,0,98,7,1,97
,,,,,,,,,,,,,,,,,,,,,,,,,,,,,,,,,,,,,,,,,l,3.230999947,BALL,FALSE,,,,,,,9,boli,Spanish,Sounds/spa_boli.mp3,2020-06-24_18h00.02.190,TranslationElicitation_eng-prolific-spa,3.2.4,Win32,60,5e71e92d7c127310819224be,,1,0,98,7,1,97
,,,,,,,,,,,,,,,,,,,,,,,,,,,,,,,,,,,,,,,,,return,3.498000145,BALL,FALSE,,,,,,,9,boli,Spanish,Sounds/spa_boli.mp3,2020-06-24_18h00.02.190,TranslationElicitation_eng-prolific-spa,3.2.4,Win32,60,5e71e92d7c127310819224be,3.498000145,1,0,98,7,1,97
,,,,,,,,,,,,,,,,,,,,,,,,,,,,,,,,,,,,,,,,,,,,,,,,,,,9,boli,Spanish,Sounds/spa_boli.mp3,2020-06-24_18h00.02.190,TranslationElicitation_eng-prolific-spa,3.2.4,Win32,60,5e71e92d7c127310819224be,,1,0,98,7,1,97
,,,,,,,,,,,,,,,,,,,,,,,,,,,,,,,,,,,,,,,,,m,1.730999947,M,FALSE,,,,,,,60,manzana,Spanish,Sounds/spa_manzana.mp3,2020-06-24_18h00.02.190,TranslationElicitation_eng-prolific-spa,3.2.4,Win32,60,5e71e92d7c127310819224be,,1,0,98,56,1,97
,,,,,,,,,,,,,,,,,,,,,,,,,,,,,,,,,,,,,,,,,o,1.930999994,MO,FALSE,,,,,,,60,manzana,Spanish,Sounds/spa_manzana.mp3,2020-06-24_18h00.02.190,TranslationElicitation_eng-prolific-spa,3.2.4,Win32,60,5e71e92d7c127310819224be,,1,0,98,56,1,97
,,,,,,,,,,,,,,,,,,,,,,,,,,,,,,,,,,,,,,,,,r,2.263999939,MOR,FALSE,,,,,,,60,manzana,Spanish,Sounds/spa_manzana.mp3,2020-06-24_18h00.02.190,TranslationElicitation_eng-prolific-spa,3.2.4,Win32,60,5e71e92d7c127310819224be,,1,0,98,56,1,97
,,,,,,,,,,,,,,,,,,,,,,,,,,,,,,,,,,,,,,,,,n,2.398000002,MORN,FALSE,,,,,,,60,manzana,Spanish,Sounds/spa_manzana.mp3,2020-06-24_18h00.02.190,TranslationElicitation_eng-prolific-spa,3.2.4,Win32,60,5e71e92d7c127310819224be,,1,0,98,56,1,97
,,,,,,,,,,,,,,,,,,,,,,,,,,,,,,,,,,,,,,,,,i,2.480999947,MORNI,FALSE,,,,,,,60,manzana,Spanish,Sounds/spa_manzana.mp3,2020-06-24_18h00.02.190,TranslationElicitation_eng-prolific-spa,3.2.4,Win32,60,5e71e92d7c127310819224be,,1,0,98,56,1,97
,,,,,,,,,,,,,,,,,,,,,,,,,,,,,,,,,,,,,,,,,n,2.621000051,MORNIN,FALSE,,,,,,,60,manzana,Spanish,Sounds/spa_manzana.mp3,2020-06-24_18h00.02.190,TranslationElicitation_eng-prolific-spa,3.2.4,Win32,60,5e71e92d7c127310819224be,,1,0,98,56,1,97
,,,,,,,,,,,,,,,,,,,,,,,,,,,,,,,,,,,,,,,,,g,2.684000015,MORNING,FALSE,,,,,,,60,manzana,Spanish,Sounds/spa_manzana.mp3,2020-06-24_18h00.02.190,TranslationElicitation_eng-prolific-spa,3.2.4,Win32,60,5e71e92d7c127310819224be,,1,0,98,56,1,97
,,,,,,,,,,,,,,,,,,,,,,,,,,,,,,,,,,,,,,,,,return,2.846999884,MORNING,FALSE,,,,,,,60,manzana,Spanish,Sounds/spa_manzana.mp3,2020-06-24_18h00.02.190,TranslationElicitation_eng-prolific-spa,3.2.4,Win32,60,5e71e92d7c127310819224be,2.846999884,1,0,98,56,1,97
,,,,,,,,,,,,,,,,,,,,,,,,,,,,,,,,,,,,,,,,,,,,,,,,,,,60,manzana,Spanish,Sounds/spa_manzana.mp3,2020-06-24_18h00.02.190,TranslationElicitation_eng-prolific-spa,3.2.4,Win32,60,5e71e92d7c127310819224be,,1,0,98,56,1,97
,,,,,,,,,,,,,,,,,,,,,,,,,,,,,,,,,,,,,,,,,o,3.230999947,O,FALSE,,,,,,,97,tijeras,Spanish,Sounds/spa_tijeras.mp3,2020-06-24_18h00.02.190,TranslationElicitation_eng-prolific-spa,3.2.4,Win32,60,5e71e92d7c127310819224be,,1,0,98,91,1,97
,,,,,,,,,,,,,,,,,,,,,,,,,,,,,,,,,,,,,,,,,w,3.362999916,OW,FALSE,,,,,,,97,tijeras,Spanish,Sounds/spa_tijeras.mp3,2020-06-24_18h00.02.190,TranslationElicitation_eng-prolific-spa,3.2.4,Win32,60,5e71e92d7c127310819224be,,1,0,98,91,1,97
,,,,,,,,,,,,,,,,,,,,,,,,,,,,,,,,,,,,,,,,,backspace,3.763000011,O,TRUE,,,,,,,97,tijeras,Spanish,Sounds/spa_tijeras.mp3,2020-06-24_18h00.02.190,TranslationElicitation_eng-prolific-spa,3.2.4,Win32,60,5e71e92d7c127310819224be,,1,0,98,91,1,97
,,,,,,,,,,,,,,,,,,,,,,,,,,,,,,,,,,,,,,,,,backspace,3.897000074,,TRUE,,,,,,,97,tijeras,Spanish,Sounds/spa_tijeras.mp3,2020-06-24_18h00.02.190,TranslationElicitation_eng-prolific-spa,3.2.4,Win32,60,5e71e92d7c127310819224be,,1,0,98,91,1,97
,,,,,,,,,,,,,,,,,,,,,,,,,,,,,,,,,,,,,,,,,h,4.196000099,H,TRUE,,,,,,,97,tijeras,Spanish,Sounds/spa_tijeras.mp3,2020-06-24_18h00.02.190,TranslationElicitation_eng-prolific-spa,3.2.4,Win32,60,5e71e92d7c127310819224be,,1,0,98,91,1,97
,,,,,,,,,,,,,,,,,,,,,,,,,,,,,,,,,,,,,,,,,o,4.345999956,HO,TRUE,,,,,,,97,tijeras,Spanish,Sounds/spa_tijeras.mp3,2020-06-24_18h00.02.190,TranslationElicitation_eng-prolific-spa,3.2.4,Win32,60,5e71e92d7c127310819224be,,1,0,98,91,1,97
,,,,,,,,,,,,,,,,,,,,,,,,,,,,,,,,,,,,,,,,,w,4.895999908,HOW,TRUE,,,,,,,97,tijeras,Spanish,Sounds/spa_tijeras.mp3,2020-06-24_18h00.02.190,TranslationElicitation_eng-prolific-spa,3.2.4,Win32,60,5e71e92d7c127310819224be,,1,0,98,91,1,97
,,,,,,,,,,,,,,,,,,,,,,,,,,,,,,,,,,,,,,,,,space,5.129999876,HOW ,TRUE,,,,,,,97,tijeras,Spanish,Sounds/spa_tijeras.mp3,2020-06-24_18h00.02.190,TranslationElicitation_eng-prolific-spa,3.2.4,Win32,60,5e71e92d7c127310819224be,,1,0,98,91,1,97
,,,,,,,,,,,,,,,,,,,,,,,,,,,,,,,,,,,,,,,,,a,5.229000092,HOW A,TRUE,,,,,,,97,tijeras,Spanish,Sounds/spa_tijeras.mp3,2020-06-24_18h00.02.190,TranslationElicitation_eng-prolific-spa,3.2.4,Win32,60,5e71e92d7c127310819224be,,1,0,98,91,1,97
,,,,,,,,,,,,,,,,,,,,,,,,,,,,,,,,,,,,,,,,,r,5.315000057,HOW AR,TRUE,,,,,,,97,tijeras,Spanish,Sounds/spa_tijeras.mp3,2020-06-24_18h00.02.190,TranslationElicitation_eng-prolific-spa,3.2.4,Win32,60,5e71e92d7c127310819224be,,1,0,98,91,1,97
,,,,,,,,,,,,,,,,,,,,,,,,,,,,,,,,,,,,,,,,,e,5.394999981,HOW ARE,TRUE,,,,,,,97,tijeras,Spanish,Sounds/spa_tijeras.mp3,2020-06-24_18h00.02.190,TranslationElicitation_eng-prolific-spa,3.2.4,Win32,60,5e71e92d7c127310819224be,,1,0,98,91,1,97
,,,,,,,,,,,,,,,,,,,,,,,,,,,,,,,,,,,,,,,,,space,5.479000092,HOW ARE ,TRUE,,,,,,,97,tijeras,Spanish,Sounds/spa_tijeras.mp3,2020-06-24_18h00.02.190,TranslationElicitation_eng-prolific-spa,3.2.4,Win32,60,5e71e92d7c127310819224be,,1,0,98,91,1,97
,,,,,,,,,,,,,,,,,,,,,,,,,,,,,,,,,,,,,,,,,y,5.611999989,HOW ARE Y,TRUE,,,,,,,97,tijeras,Spanish,Sounds/spa_tijeras.mp3,2020-06-24_18h00.02.190,TranslationElicitation_eng-prolific-spa,3.2.4,Win32,60,5e71e92d7c127310819224be,,1,0,98,91,1,97
,,,,,,,,,,,,,,,,,,,,,,,,,,,,,,,,,,,,,,,,,o,5.711999893,HOW ARE YO,TRUE,,,,,,,97,tijeras,Spanish,Sounds/spa_tijeras.mp3,2020-06-24_18h00.02.190,TranslationElicitation_eng-prolific-spa,3.2.4,Win32,60,5e71e92d7c127310819224be,,1,0,98,91,1,97
,,,,,,,,,,,,,,,,,,,,,,,,,,,,,,,,,,,,,,,,,u,5.828999996,HOW ARE YOU,TRUE,,,,,,,97,tijeras,Spanish,Sounds/spa_tijeras.mp3,2020-06-24_18h00.02.190,TranslationElicitation_eng-prolific-spa,3.2.4,Win32,60,5e71e92d7c127310819224be,,1,0,98,91,1,97
,,,,,,,,,,,,,,,,,,,,,,,,,,,,,,,,,,,,,,,,,backspace,6.361999989,HOW ARE YO,TRUE,,,,,,,97,tijeras,Spanish,Sounds/spa_tijeras.mp3,2020-06-24_18h00.02.190,TranslationElicitation_eng-prolific-spa,3.2.4,Win32,60,5e71e92d7c127310819224be,,1,0,98,91,1,97
,,,,,,,,,,,,,,,,,,,,,,,,,,,,,,,,,,,,,,,,,backspace,6.510999918,HOW ARE Y,TRUE,,,,,,,97,tijeras,Spanish,Sounds/spa_tijeras.mp3,2020-06-24_18h00.02.190,TranslationElicitation_eng-prolific-spa,3.2.4,Win32,60,5e71e92d7c127310819224be,,1,0,98,91,1,97
,,,,,,,,,,,,,,,,,,,,,,,,,,,,,,,,,,,,,,,,,backspace,6.677999973,HOW ARE ,TRUE,,,,,,,97,tijeras,Spanish,Sounds/spa_tijeras.mp3,2020-06-24_18h00.02.190,TranslationElicitation_eng-prolific-spa,3.2.4,Win32,60,5e71e92d7c127310819224be,,1,0,98,91,1,97
,,,,,,,,,,,,,,,,,,,,,,,,,,,,,,,,,,,,,,,,,backspace,6.828000069,HOW ARE,TRUE,,,,,,,97,tijeras,Spanish,Sounds/spa_tijeras.mp3,2020-06-24_18h00.02.190,TranslationElicitation_eng-prolific-spa,3.2.4,Win32,60,5e71e92d7c127310819224be,,1,0,98,91,1,97
,,,,,,,,,,,,,,,,,,,,,,,,,,,,,,,,,,,,,,,,,backspace,6.977999926,HOW AR,TRUE,,,,,,,97,tijeras,Spanish,Sounds/spa_tijeras.mp3,2020-06-24_18h00.02.190,TranslationElicitation_eng-prolific-spa,3.2.4,Win32,60,5e71e92d7c127310819224be,,1,0,98,91,1,97
,,,,,,,,,,,,,,,,,,,,,,,,,,,,,,,,,,,,,,,,,backspace,7.144999981,HOW A,TRUE,,,,,,,97,tijeras,Spanish,Sounds/spa_tijeras.mp3,2020-06-24_18h00.02.190,TranslationElicitation_eng-prolific-spa,3.2.4,Win32,60,5e71e92d7c127310819224be,,1,0,98,91,1,97
,,,,,,,,,,,,,,,,,,,,,,,,,,,,,,,,,,,,,,,,,backspace,7.328000069,HOW ,TRUE,,,,,,,97,tijeras,Spanish,Sounds/spa_tijeras.mp3,2020-06-24_18h00.02.190,TranslationElicitation_eng-prolific-spa,3.2.4,Win32,60,5e71e92d7c127310819224be,,1,0,98,91,1,97
,,,,,,,,,,,,,,,,,,,,,,,,,,,,,,,,,,,,,,,,,o,7.83100009,HOW O,TRUE,,,,,,,97,tijeras,Spanish,Sounds/spa_tijeras.mp3,2020-06-24_18h00.02.190,TranslationElicitation_eng-prolific-spa,3.2.4,Win32,60,5e71e92d7c127310819224be,,1,0,98,91,1,97
,,,,,,,,,,,,,,,,,,,,,,,,,,,,,,,,,,,,,,,,,l,7.993999958,HOW OL,TRUE,,,,,,,97,tijeras,Spanish,Sounds/spa_tijeras.mp3,2020-06-24_18h00.02.190,TranslationElicitation_eng-prolific-spa,3.2.4,Win32,60,5e71e92d7c127310819224be,,1,0,98,91,1,97
,,,,,,,,,,,,,,,,,,,,,,,,,,,,,,,,,,,,,,,,,d,8.06099987,HOW OLD,TRUE,,,,,,,97,tijeras,Spanish,Sounds/spa_tijeras.mp3,2020-06-24_18h00.02.190,TranslationElicitation_eng-prolific-spa,3.2.4,Win32,60,5e71e92d7c127310819224be,,1,0,98,91,1,97
,,,,,,,,,,,,,,,,,,,,,,,,,,,,,,,,,,,,,,,,,space,8.177999973,HOW OLD ,TRUE,,,,,,,97,tijeras,Spanish,Sounds/spa_tijeras.mp3,2020-06-24_18h00.02.190,TranslationElicitation_eng-prolific-spa,3.2.4,Win32,60,5e71e92d7c127310819224be,,1,0,98,91,1,97
,,,,,,,,,,,,,,,,,,,,,,,,,,,,,,,,,,,,,,,,,a,8.210999966,HOW OLD A,TRUE,,,,,,,97,tijeras,Spanish,Sounds/spa_tijeras.mp3,2020-06-24_18h00.02.190,TranslationElicitation_eng-prolific-spa,3.2.4,Win32,60,5e71e92d7c127310819224be,,1,0,98,91,1,97
,,,,,,,,,,,,,,,,,,,,,,,,,,,,,,,,,,,,,,,,,r,8.29399991,HOW OLD AR,TRUE,,,,,,,97,tijeras,Spanish,Sounds/spa_tijeras.mp3,2020-06-24_18h00.02.190,TranslationElicitation_eng-prolific-spa,3.2.4,Win32,60,5e71e92d7c127310819224be,,1,0,98,91,1,97
,,,,,,,,,,,,,,,,,,,,,,,,,,,,,,,,,,,,,,,,,e,8.344000101,HOW OLD ARE,TRUE,,,,,,,97,tijeras,Spanish,Sounds/spa_tijeras.mp3,2020-06-24_18h00.02.190,TranslationElicitation_eng-prolific-spa,3.2.4,Win32,60,5e71e92d7c127310819224be,,1,0,98,91,1,97
,,,,,,,,,,,,,,,,,,,,,,,,,,,,,,,,,,,,,,,,,space,8.444000006,HOW OLD ARE ,TRUE,,,,,,,97,tijeras,Spanish,Sounds/spa_tijeras.mp3,2020-06-24_18h00.02.190,TranslationElicitation_eng-prolific-spa,3.2.4,Win32,60,5e71e92d7c127310819224be,,1,0,98,91,1,97
,,,,,,,,,,,,,,,,,,,,,,,,,,,,,,,,,,,,,,,,,y,8.546000004,HOW OLD ARE Y,TRUE,,,,,,,97,tijeras,Spanish,Sounds/spa_tijeras.mp3,2020-06-24_18h00.02.190,TranslationElicitation_eng-prolific-spa,3.2.4,Win32,60,5e71e92d7c127310819224be,,1,0,98,91,1,97
,,,,,,,,,,,,,,,,,,,,,,,,,,,,,,,,,,,,,,,,,o,8.627000093,HOW OLD ARE YO,TRUE,,,,,,,97,tijeras,Spanish,Sounds/spa_tijeras.mp3,2020-06-24_18h00.02.190,TranslationElicitation_eng-prolific-spa,3.2.4,Win32,60,5e71e92d7c127310819224be,,1,0,98,91,1,97
,,,,,,,,,,,,,,,,,,,,,,,,,,,,,,,,,,,,,,,,,u,8.743999958,HOW OLD ARE YOU,TRUE,,,,,,,97,tijeras,Spanish,Sounds/spa_tijeras.mp3,2020-06-24_18h00.02.190,TranslationElicitation_eng-prolific-spa,3.2.4,Win32,60,5e71e92d7c127310819224be,,1,0,98,91,1,97
,,,,,,,,,,,,,,,,,,,,,,,,,,,,,,,,,,,,,,,,,return,9.144000053,HOW OLD ARE YOU,TRUE,,,,,,,97,tijeras,Spanish,Sounds/spa_tijeras.mp3,2020-06-24_18h00.02.190,TranslationElicitation_eng-prolific-spa,3.2.4,Win32,60,5e71e92d7c127310819224be,9.144000053,1,0,98,91,1,97
,,,,,,,,,,,,,,,,,,,,,,,,,,,,,,,,,,,,,,,,,,,,,,,,,,,97,tijeras,Spanish,Sounds/spa_tijeras.mp3,2020-06-24_18h00.02.190,TranslationElicitation_eng-prolific-spa,3.2.4,Win32,60,5e71e92d7c127310819224be,,1,0,98,91,1,97
,,,,,,,,,,,,,,,,,,,,,,,,,,,,,,,,,,,,,,,,,c,6.279000044,C,FALSE,,,,,,,41,gallina,Spanish,Sounds/spa_gallina.mp3,2020-06-24_18h00.02.190,TranslationElicitation_eng-prolific-spa,3.2.4,Win32,60,5e71e92d7c127310819224be,,1,0,98,37,1,97
,,,,,,,,,,,,,,,,,,,,,,,,,,,,,,,,,,,,,,,,,a,6.345999956,CA,FALSE,,,,,,,41,gallina,Spanish,Sounds/spa_gallina.mp3,2020-06-24_18h00.02.190,TranslationElicitation_eng-prolific-spa,3.2.4,Win32,60,5e71e92d7c127310819224be,,1,0,98,37,1,97
,,,,,,,,,,,,,,,,,,,,,,,,,,,,,,,,,,,,,,,,,f,7.229000092,CAF,FALSE,,,,,,,41,gallina,Spanish,Sounds/spa_gallina.mp3,2020-06-24_18h00.02.190,TranslationElicitation_eng-prolific-spa,3.2.4,Win32,60,5e71e92d7c127310819224be,,1,0,98,37,1,97
,,,,,,,,,,,,,,,,,,,,,,,,,,,,,,,,,,,,,,,,,e,8.247999907,CAFE,FALSE,,,,,,,41,gallina,Spanish,Sounds/spa_gallina.mp3,2020-06-24_18h00.02.190,TranslationElicitation_eng-prolific-spa,3.2.4,Win32,60,5e71e92d7c127310819224be,,1,0,98,37,1,97
,,,,,,,,,,,,,,,,,,,,,,,,,,,,,,,,,,,,,,,,,return,8.364000082,CAFE,FALSE,,,,,,,41,gallina,Spanish,Sounds/spa_gallina.mp3,2020-06-24_18h00.02.190,TranslationElicitation_eng-prolific-spa,3.2.4,Win32,60,5e71e92d7c127310819224be,8.364000082,1,0,98,37,1,97
,,,,,,,,,,,,,,,,,,,,,,,,,,,,,,,,,,,,,,,,,,,,,,,,,,,41,gallina,Spanish,Sounds/spa_gallina.mp3,2020-06-24_18h00.02.190,TranslationElicitation_eng-prolific-spa,3.2.4,Win32,60,5e71e92d7c127310819224be,,1,0,98,37,1,97
,,,,,,,,,,,,,,,,,,,,,,,,,,,,,,,,,,,,,,,,,b,1.681999922,B,FALSE,,,,,,,11,boton,Spanish,Sounds/spa_boton.mp3,2020-06-24_18h00.02.190,TranslationElicitation_eng-prolific-spa,3.2.4,Win32,60,5e71e92d7c127310819224be,,1,0,98,9,1,97
,,,,,,,,,,,,,,,,,,,,,,,,,,,,,,,,,,,,,,,,,u,1.84800005,BU,FALSE,,,,,,,11,boton,Spanish,Sounds/spa_boton.mp3,2020-06-24_18h00.02.190,TranslationElicitation_eng-prolific-spa,3.2.4,Win32,60,5e71e92d7c127310819224be,,1,0,98,9,1,97
,,,,,,,,,,,,,,,,,,,,,,,,,,,,,,,,,,,,,,,,,t,2.016000032,BUT,FALSE,,,,,,,11,boton,Spanish,Sounds/spa_boton.mp3,2020-06-24_18h00.02.190,TranslationElicitation_eng-prolific-spa,3.2.4,Win32,60,5e71e92d7c127310819224be,,1,0,98,9,1,97
,,,,,,,,,,,,,,,,,,,,,,,,,,,,,,,,,,,,,,,,,t,2.181999922,BUTT,FALSE,,,,,,,11,boton,Spanish,Sounds/spa_boton.mp3,2020-06-24_18h00.02.190,TranslationElicitation_eng-prolific-spa,3.2.4,Win32,60,5e71e92d7c127310819224be,,1,0,98,9,1,97
,,,,,,,,,,,,,,,,,,,,,,,,,,,,,,,,,,,,,,,,,o,2.315000057,BUTTO,FALSE,,,,,,,11,boton,Spanish,Sounds/spa_boton.mp3,2020-06-24_18h00.02.190,TranslationElicitation_eng-prolific-spa,3.2.4,Win32,60,5e71e92d7c127310819224be,,1,0,98,9,1,97
,,,,,,,,,,,,,,,,,,,,,,,,,,,,,,,,,,,,,,,,,n,2.431999922,BUTTON,FALSE,,,,,,,11,boton,Spanish,Sounds/spa_boton.mp3,2020-06-24_18h00.02.190,TranslationElicitation_eng-prolific-spa,3.2.4,Win32,60,5e71e92d7c127310819224be,,1,0,98,9,1,97
,,,,,,,,,,,,,,,,,,,,,,,,,,,,,,,,,,,,,,,,,return,2.717000008,BUTTON,FALSE,,,,,,,11,boton,Spanish,Sounds/spa_boton.mp3,2020-06-24_18h00.02.190,TranslationElicitation_eng-prolific-spa,3.2.4,Win32,60,5e71e92d7c127310819224be,2.717000008,1,0,98,9,1,97
,,,,,,,,,,,,,,,,,,,,,,,,,,,,,,,,,,,,,,,,,,,,,,,,,,,11,boton,Spanish,Sounds/spa_boton.mp3,2020-06-24_18h00.02.190,TranslationElicitation_eng-prolific-spa,3.2.4,Win32,60,5e71e92d7c127310819224be,,1,0,98,9,1,97
,,,,,,,,,,,,,,,,,,,,,,,,,,,,,,,,,,,,,,,,,f,1.599999905,F,FALSE,,,,,,,37,flor,Spanish,Sounds/spa_flor.mp3,2020-06-24_18h00.02.190,TranslationElicitation_eng-prolific-spa,3.2.4,Win32,60,5e71e92d7c127310819224be,,1,0,98,33,1,97
,,,,,,,,,,,,,,,,,,,,,,,,,,,,,,,,,,,,,,,,,l,1.832999945,FL,FALSE,,,,,,,37,flor,Spanish,Sounds/spa_flor.mp3,2020-06-24_18h00.02.190,TranslationElicitation_eng-prolific-spa,3.2.4,Win32,60,5e71e92d7c127310819224be,,1,0,98,33,1,97
,,,,,,,,,,,,,,,,,,,,,,,,,,,,,,,,,,,,,,,,,o,2.032999992,FLO,FALSE,,,,,,,37,flor,Spanish,Sounds/spa_flor.mp3,2020-06-24_18h00.02.190,TranslationElicitation_eng-prolific-spa,3.2.4,Win32,60,5e71e92d7c127310819224be,,1,0,98,33,1,97
,,,,,,,,,,,,,,,,,,,,,,,,,,,,,,,,,,,,,,,,,o,2.165999889,FLOO,FALSE,,,,,,,37,flor,Spanish,Sounds/spa_flor.mp3,2020-06-24_18h00.02.190,TranslationElicitation_eng-prolific-spa,3.2.4,Win32,60,5e71e92d7c127310819224be,,1,0,98,33,1,97
,,,,,,,,,,,,,,,,,,,,,,,,,,,,,,,,,,,,,,,,,r,2.282999992,FLOOR,FALSE,,,,,,,37,flor,Spanish,Sounds/spa_flor.mp3,2020-06-24_18h00.02.190,TranslationElicitation_eng-prolific-spa,3.2.4,Win32,60,5e71e92d7c127310819224be,,1,0,98,33,1,97
,,,,,,,,,,,,,,,,,,,,,,,,,,,,,,,,,,,,,,,,,return,3.516000032,FLOOR,FALSE,,,,,,,37,flor,Spanish,Sounds/spa_flor.mp3,2020-06-24_18h00.02.190,TranslationElicitation_eng-prolific-spa,3.2.4,Win32,60,5e71e92d7c127310819224be,3.516000032,1,0,98,33,1,97
,,,,,,,,,,,,,,,,,,,,,,,,,,,,,,,,,,,,,,,,,,,,,,,,,,,37,flor,Spanish,Sounds/spa_flor.mp3,2020-06-24_18h00.02.190,TranslationElicitation_eng-prolific-spa,3.2.4,Win32,60,5e71e92d7c127310819224be,,1,0,98,33,1,97
,,,,,,,,,,,,,,,,,,,,,,,,,,,,,,,,,,,,,,,,,c,2.498999834,C,FALSE,,,,,,,40,galleta,Spanish,Sounds/spa_galleta.mp3,2020-06-24_18h00.02.190,TranslationElicitation_eng-prolific-spa,3.2.4,Win32,60,5e71e92d7c127310819224be,,1,0,98,36,1,97
,,,,,,,,,,,,,,,,,,,,,,,,,,,,,,,,,,,,,,,,,a,2.682999849,CA,FALSE,,,,,,,40,galleta,Spanish,Sounds/spa_galleta.mp3,2020-06-24_18h00.02.190,TranslationElicitation_eng-prolific-spa,3.2.4,Win32,60,5e71e92d7c127310819224be,,1,0,98,36,1,97
,,,,,,,,,,,,,,,,,,,,,,,,,,,,,,,,,,,,,,,,,f,2.748999834,CAF,FALSE,,,,,,,40,galleta,Spanish,Sounds/spa_galleta.mp3,2020-06-24_18h00.02.190,TranslationElicitation_eng-prolific-spa,3.2.4,Win32,60,5e71e92d7c127310819224be,,1,0,98,36,1,97
,,,,,,,,,,,,,,,,,,,,,,,,,,,,,,,,,,,,,,,,,e,2.848999977,CAFE,FALSE,,,,,,,40,galleta,Spanish,Sounds/spa_galleta.mp3,2020-06-24_18h00.02.190,TranslationElicitation_eng-prolific-spa,3.2.4,Win32,60,5e71e92d7c127310819224be,,1,0,98,36,1,97
,,,,,,,,,,,,,,,,,,,,,,,,,,,,,,,,,,,,,,,,,return,3.031999826,CAFE,FALSE,,,,,,,40,galleta,Spanish,Sounds/spa_galleta.mp3,2020-06-24_18h00.02.190,TranslationElicitation_eng-prolific-spa,3.2.4,Win32,60,5e71e92d7c127310819224be,3.031999826,1,0,98,36,1,97
,,,,,,,,,,,,,,,,,,,,,,,,,,,,,,,,,,,,,,,,,,,,,,,,,,,40,galleta,Spanish,Sounds/spa_galleta.mp3,2020-06-24_18h00.02.190,TranslationElicitation_eng-prolific-spa,3.2.4,Win32,60,5e71e92d7c127310819224be,,1,0,98,36,1,97
,,,,,,,,,,,,,,,,,,,,,,,,,,,,,,,,,,,,,,,,,f,1.413000107,F,FALSE,,,,,,,21,cebra,Spanish,Sounds/spa_cebra.mp3,2020-06-24_18h00.02.190,TranslationElicitation_eng-prolific-spa,3.2.4,Win32,60,5e71e92d7c127310819224be,,1,0,98,19,1,97
,,,,,,,,,,,,,,,,,,,,,,,,,,,,,,,,,,,,,,,,,a,1.513000011,FA,FALSE,,,,,,,21,cebra,Spanish,Sounds/spa_cebra.mp3,2020-06-24_18h00.02.190,TranslationElicitation_eng-prolific-spa,3.2.4,Win32,60,5e71e92d7c127310819224be,,1,0,98,19,1,97
,,,,,,,,,,,,,,,,,,,,,,,,,,,,,,,,,,,,,,,,,v,1.762000084,FAV,FALSE,,,,,,,21,cebra,Spanish,Sounds/spa_cebra.mp3,2020-06-24_18h00.02.190,TranslationElicitation_eng-prolific-spa,3.2.4,Win32,60,5e71e92d7c127310819224be,,1,0,98,19,1,97
,,,,,,,,,,,,,,,,,,,,,,,,,,,,,,,,,,,,,,,,,o,1.963000059,FAVO,FALSE,,,,,,,21,cebra,Spanish,Sounds/spa_cebra.mp3,2020-06-24_18h00.02.190,TranslationElicitation_eng-prolific-spa,3.2.4,Win32,60,5e71e92d7c127310819224be,,1,0,98,19,1,97
,,,,,,,,,,,,,,,,,,,,,,,,,,,,,,,,,,,,,,,,,u,2.111999989,FAVOU,FALSE,,,,,,,21,cebra,Spanish,Sounds/spa_cebra.mp3,2020-06-24_18h00.02.190,TranslationElicitation_eng-prolific-spa,3.2.4,Win32,60,5e71e92d7c127310819224be,,1,0,98,19,1,97
,,,,,,,,,,,,,,,,,,,,,,,,,,,,,,,,,,,,,,,,,r,2.361999989,FAVOUR,FALSE,,,,,,,21,cebra,Spanish,Sounds/spa_cebra.mp3,2020-06-24_18h00.02.190,TranslationElicitation_eng-prolific-spa,3.2.4,Win32,60,5e71e92d7c127310819224be,,1,0,98,19,1,97
,,,,,,,,,,,,,,,,,,,,,,,,,,,,,,,,,,,,,,,,,i,2.462000132,FAVOURI,FALSE,,,,,,,21,cebra,Spanish,Sounds/spa_cebra.mp3,2020-06-24_18h00.02.190,TranslationElicitation_eng-prolific-spa,3.2.4,Win32,60,5e71e92d7c127310819224be,,1,0,98,19,1,97
,,,,,,,,,,,,,,,,,,,,,,,,,,,,,,,,,,,,,,,,,t,2.611999989,FAVOURIT,FALSE,,,,,,,21,cebra,Spanish,Sounds/spa_cebra.mp3,2020-06-24_18h00.02.190,TranslationElicitation_eng-prolific-spa,3.2.4,Win32,60,5e71e92d7c127310819224be,,1,0,98,19,1,97
,,,,,,,,,,,,,,,,,,,,,,,,,,,,,,,,,,,,,,,,,e,2.680999994,FAVOURITE,FALSE,,,,,,,21,cebra,Spanish,Sounds/spa_cebra.mp3,2020-06-24_18h00.02.190,TranslationElicitation_eng-prolific-spa,3.2.4,Win32,60,5e71e92d7c127310819224be,,1,0,98,19,1,97
,,,,,,,,,,,,,,,,,,,,,,,,,,,,,,,,,,,,,,,,,return,3.195000172,FAVOURITE,FALSE,,,,,,,21,cebra,Spanish,Sounds/spa_cebra.mp3,2020-06-24_18h00.02.190,TranslationElicitation_eng-prolific-spa,3.2.4,Win32,60,5e71e92d7c127310819224be,3.195000172,1,0,98,19,1,97
,,,,,,,,,,,,,,,,,,,,,,,,,,,,,,,,,,,,,,,,,,,,,,,,,,,21,cebra,Spanish,Sounds/spa_cebra.mp3,2020-06-24_18h00.02.190,TranslationElicitation_eng-prolific-spa,3.2.4,Win32,60,5e71e92d7c127310819224be,,1,0,98,19,1,97
,,,,,,,,,,,,,,,,,,,,,,,,,,,,,,,,,,,,,,,,,t,2.201999903,T,FALSE,,,,,,,51,ladrillo,Spanish,Sounds/spa_ladrillo.mp3,2020-06-24_18h00.02.190,TranslationElicitation_eng-prolific-spa,3.2.4,Win32,60,5e71e92d7c127310819224be,,1,0,98,47,1,97
,,,,,,,,,,,,,,,,,,,,,,,,,,,,,,,,,,,,,,,,,o,2.314999819,TO,FALSE,,,,,,,51,ladrillo,Spanish,Sounds/spa_ladrillo.mp3,2020-06-24_18h00.02.190,TranslationElicitation_eng-prolific-spa,3.2.4,Win32,60,5e71e92d7c127310819224be,,1,0,98,47,1,97
,,,,,,,,,,,,,,,,,,,,,,,,,,,,,,,,,,,,,,,,,i,2.431999922,TOI,FALSE,,,,,,,51,ladrillo,Spanish,Sounds/spa_ladrillo.mp3,2020-06-24_18h00.02.190,TranslationElicitation_eng-prolific-spa,3.2.4,Win32,60,5e71e92d7c127310819224be,,1,0,98,47,1,97
,,,,,,,,,,,,,,,,,,,,,,,,,,,,,,,,,,,,,,,,,l,2.565999985,TOIL,FALSE,,,,,,,51,ladrillo,Spanish,Sounds/spa_ladrillo.mp3,2020-06-24_18h00.02.190,TranslationElicitation_eng-prolific-spa,3.2.4,Win32,60,5e71e92d7c127310819224be,,1,0,98,47,1,97
,,,,,,,,,,,,,,,,,,,,,,,,,,,,,,,,,,,,,,,,,e,2.682999849,TOILE,FALSE,,,,,,,51,ladrillo,Spanish,Sounds/spa_ladrillo.mp3,2020-06-24_18h00.02.190,TranslationElicitation_eng-prolific-spa,3.2.4,Win32,60,5e71e92d7c127310819224be,,1,0,98,47,1,97
,,,,,,,,,,,,,,,,,,,,,,,,,,,,,,,,,,,,,,,,,t,2.764999866,TOILET,FALSE,,,,,,,51,ladrillo,Spanish,Sounds/spa_ladrillo.mp3,2020-06-24_18h00.02.190,TranslationElicitation_eng-prolific-spa,3.2.4,Win32,60,5e71e92d7c127310819224be,,1,0,98,47,1,97
,,,,,,,,,,,,,,,,,,,,,,,,,,,,,,,,,,,,,,,,,return,2.881999969,TOILET,FALSE,,,,,,,51,ladrillo,Spanish,Sounds/spa_ladrillo.mp3,2020-06-24_18h00.02.190,TranslationElicitation_eng-prolific-spa,3.2.4,Win32,60,5e71e92d7c127310819224be,2.881999969,1,0,98,47,1,97
,,,,,,,,,,,,,,,,,,,,,,,,,,,,,,,,,,,,,,,,,,,,,,,,,,,51,ladrillo,Spanish,Sounds/spa_ladrillo.mp3,2020-06-24_18h00.02.190,TranslationElicitation_eng-prolific-spa,3.2.4,Win32,60,5e71e92d7c127310819224be,,1,0,98,47,1,97
,,,,,,,,,,,,,,,,,,,,,,,,,,,,,,,,,,,,,,,,,m,4.797999859,M,FALSE,,,,,,,61,mariposa,Spanish,Sounds/spa_mariposa.mp3,2020-06-24_18h00.02.190,TranslationElicitation_eng-prolific-spa,3.2.4,Win32,60,5e71e92d7c127310819224be,,1,0,98,57,1,97
,,,,,,,,,,,,,,,,,,,,,,,,,,,,,,,,,,,,,,,,,a,4.913999796,MA,FALSE,,,,,,,61,mariposa,Spanish,Sounds/spa_mariposa.mp3,2020-06-24_18h00.02.190,TranslationElicitation_eng-prolific-spa,3.2.4,Win32,60,5e71e92d7c127310819224be,,1,0,98,57,1,97
,,,,,,,,,,,,,,,,,,,,,,,,,,,,,,,,,,,,,,,,,r,5.013999939,MAR,FALSE,,,,,,,61,mariposa,Spanish,Sounds/spa_mariposa.mp3,2020-06-24_18h00.02.190,TranslationElicitation_eng-prolific-spa,3.2.4,Win32,60,5e71e92d7c127310819224be,,1,0,98,57,1,97
,,,,,,,,,,,,,,,,,,,,,,,,,,,,,,,,,,,,,,,,,r,5.213999987,MARR,FALSE,,,,,,,61,mariposa,Spanish,Sounds/spa_mariposa.mp3,2020-06-24_18h00.02.190,TranslationElicitation_eng-prolific-spa,3.2.4,Win32,60,5e71e92d7c127310819224be,,1,0,98,57,1,97
,,,,,,,,,,,,,,,,,,,,,,,,,,,,,,,,,,,,,,,,,i,5.463999987,MARRI,FALSE,,,,,,,61,mariposa,Spanish,Sounds/spa_mariposa.mp3,2020-06-24_18h00.02.190,TranslationElicitation_eng-prolific-spa,3.2.4,Win32,60,5e71e92d7c127310819224be,,1,0,98,57,1,97
,,,,,,,,,,,,,,,,,,,,,,,,,,,,,,,,,,,,,,,,,e,5.731999874,MARRIE,FALSE,,,,,,,61,mariposa,Spanish,Sounds/spa_mariposa.mp3,2020-06-24_18h00.02.190,TranslationElicitation_eng-prolific-spa,3.2.4,Win32,60,5e71e92d7c127310819224be,,1,0,98,57,1,97
,,,,,,,,,,,,,,,,,,,,,,,,,,,,,,,,,,,,,,,,,d,5.963999987,MARRIED,FALSE,,,,,,,61,mariposa,Spanish,Sounds/spa_mariposa.mp3,2020-06-24_18h00.02.190,TranslationElicitation_eng-prolific-spa,3.2.4,Win32,60,5e71e92d7c127310819224be,,1,0,98,57,1,97
,,,,,,,,,,,,,,,,,,,,,,,,,,,,,,,,,,,,,,,,,return,6.063999891,MARRIED,FALSE,,,,,,,61,mariposa,Spanish,Sounds/spa_mariposa.mp3,2020-06-24_18h00.02.190,TranslationElicitation_eng-prolific-spa,3.2.4,Win32,60,5e71e92d7c127310819224be,6.063999891,1,0,98,57,1,97
,,,,,,,,,,,,,,,,,,,,,,,,,,,,,,,,,,,,,,,,,,,,,,,,,,,61,mariposa,Spanish,Sounds/spa_mariposa.mp3,2020-06-24_18h00.02.190,TranslationElicitation_eng-prolific-spa,3.2.4,Win32,60,5e71e92d7c127310819224be,,1,0,98,57,1,97
,,,,,,,,,,,,,,,,,,,,,,,,,,,,,,,,,,,,,,,,,l,4.932999849,L,FALSE,,,,,,,4,biberon,Spanish,Sounds/spa_biberon.mp3,2020-06-24_18h00.02.190,TranslationElicitation_eng-prolific-spa,3.2.4,Win32,60,5e71e92d7c127310819224be,,1,0,98,2,1,97
,,,,,,,,,,,,,,,,,,,,,,,,,,,,,,,,,,,,,,,,,i,5.080999851,LI,FALSE,,,,,,,4,biberon,Spanish,Sounds/spa_biberon.mp3,2020-06-24_18h00.02.190,TranslationElicitation_eng-prolific-spa,3.2.4,Win32,60,5e71e92d7c127310819224be,,1,0,98,2,1,97
,,,,,,,,,,,,,,,,,,,,,,,,,,,,,,,,,,,,,,,,,v,5.214999914,LIV,FALSE,,,,,,,4,biberon,Spanish,Sounds/spa_biberon.mp3,2020-06-24_18h00.02.190,TranslationElicitation_eng-prolific-spa,3.2.4,Win32,60,5e71e92d7c127310819224be,,1,0,98,2,1,97
,,,,,,,,,,,,,,,,,,,,,,,,,,,,,,,,,,,,,,,,,e,5.363999844,LIVE,FALSE,,,,,,,4,biberon,Spanish,Sounds/spa_biberon.mp3,2020-06-24_18h00.02.190,TranslationElicitation_eng-prolific-spa,3.2.4,Win32,60,5e71e92d7c127310819224be,,1,0,98,2,1,97
,,,,,,,,,,,,,,,,,,,,,,,,,,,,,,,,,,,,,,,,,return,5.780999899,LIVE,FALSE,,,,,,,4,biberon,Spanish,Sounds/spa_biberon.mp3,2020-06-24_18h00.02.190,TranslationElicitation_eng-prolific-spa,3.2.4,Win32,60,5e71e92d7c127310819224be,5.780999899,1,0,98,2,1,97
,,,,,,,,,,,,,,,,,,,,,,,,,,,,,,,,,,,,,,,,,,,,,,,,,,,4,biberon,Spanish,Sounds/spa_biberon.mp3,2020-06-24_18h00.02.190,TranslationElicitation_eng-prolific-spa,3.2.4,Win32,60,5e71e92d7c127310819224be,,1,0,98,2,1,97
,,,,,,,,,,,,,,,,,,,,,,,,,,,,,,,,,,,,,,,,,c,4.381999969,C,FALSE,,,,,,,52,lapiz,Spanish,Sounds/spa_lapiz.mp3,2020-06-24_18h00.02.190,TranslationElicitation_eng-prolific-spa,3.2.4,Win32,60,5e71e92d7c127310819224be,,1,0,98,48,1,97
,,,,,,,,,,,,,,,,,,,,,,,,,,,,,,,,,,,,,,,,,a,4.414999962,CA,FALSE,,,,,,,52,lapiz,Spanish,Sounds/spa_lapiz.mp3,2020-06-24_18h00.02.190,TranslationElicitation_eng-prolific-spa,3.2.4,Win32,60,5e71e92d7c127310819224be,,1,0,98,48,1,97
,,,,,,,,,,,,,,,,,,,,,,,,,,,,,,,,,,,,,,,,,k,4.548000097,CAK,FALSE,,,,,,,52,lapiz,Spanish,Sounds/spa_lapiz.mp3,2020-06-24_18h00.02.190,TranslationElicitation_eng-prolific-spa,3.2.4,Win32,60,5e71e92d7c127310819224be,,1,0,98,48,1,97
,,,,,,,,,,,,,,,,,,,,,,,,,,,,,,,,,,,,,,,,,e,4.914000034,CAKE,FALSE,,,,,,,52,lapiz,Spanish,Sounds/spa_lapiz.mp3,2020-06-24_18h00.02.190,TranslationElicitation_eng-prolific-spa,3.2.4,Win32,60,5e71e92d7c127310819224be,,1,0,98,48,1,97
,,,,,,,,,,,,,,,,,,,,,,,,,,,,,,,,,,,,,,,,,return,4.998000145,CAKE,FALSE,,,,,,,52,lapiz,Spanish,Sounds/spa_lapiz.mp3,2020-06-24_18h00.02.190,TranslationElicitation_eng-prolific-spa,3.2.4,Win32,60,5e71e92d7c127310819224be,4.998000145,1,0,98,48,1,97
,,,,,,,,,,,,,,,,,,,,,,,,,,,,,,,,,,,,,,,,,,,,,,,,,,,52,lapiz,Spanish,Sounds/spa_lapiz.mp3,2020-06-24_18h00.02.190,TranslationElicitation_eng-prolific-spa,3.2.4,Win32,60,5e71e92d7c127310819224be,,1,0,98,48,1,97
,,,,,,,,,,,,,,,,,,,,,,,,,,,,,,,,,,,,,,,,,l,2.747999907,L,FALSE,,,,,,,91,puerta,Spanish,Sounds/spa_puerta.mp3,2020-06-24_18h00.02.190,TranslationElicitation_eng-prolific-spa,3.2.4,Win32,60,5e71e92d7c127310819224be,,1,0,98,86,1,97
,,,,,,,,,,,,,,,,,,,,,,,,,,,,,,,,,,,,,,,,,e,2.881999969,LE,FALSE,,,,,,,91,puerta,Spanish,Sounds/spa_puerta.mp3,2020-06-24_18h00.02.190,TranslationElicitation_eng-prolific-spa,3.2.4,Win32,60,5e71e92d7c127310819224be,,1,0,98,86,1,97
,,,,,,,,,,,,,,,,,,,,,,,,,,,,,,,,,,,,,,,,,f,2.967000008,LEF,FALSE,,,,,,,91,puerta,Spanish,Sounds/spa_puerta.mp3,2020-06-24_18h00.02.190,TranslationElicitation_eng-prolific-spa,3.2.4,Win32,60,5e71e92d7c127310819224be,,1,0,98,86,1,97
,,,,,,,,,,,,,,,,,,,,,,,,,,,,,,,,,,,,,,,,,t,3.180999994,LEFT,FALSE,,,,,,,91,puerta,Spanish,Sounds/spa_puerta.mp3,2020-06-24_18h00.02.190,TranslationElicitation_eng-prolific-spa,3.2.4,Win32,60,5e71e92d7c127310819224be,,1,0,98,86,1,97
,,,,,,,,,,,,,,,,,,,,,,,,,,,,,,,,,,,,,,,,,return,3.297999859,LEFT,FALSE,,,,,,,91,puerta,Spanish,Sounds/spa_puerta.mp3,2020-06-24_18h00.02.190,TranslationElicitation_eng-prolific-spa,3.2.4,Win32,60,5e71e92d7c127310819224be,3.297999859,1,0,98,86,1,97
,,,,,,,,,,,,,,,,,,,,,,,,,,,,,,,,,,,,,,,,,,,,,,,,,,,91,puerta,Spanish,Sounds/spa_puerta.mp3,2020-06-24_18h00.02.190,TranslationElicitation_eng-prolific-spa,3.2.4,Win32,60,5e71e92d7c127310819224be,,1,0,98,86,1,97
,,,,,,,,,,,,,,,,,,,,,,,,,,,,,,,,,,,,,,,,,l,2.764999866,L,FALSE,,,,,,,7,bocadillo,Spanish,Sounds/spa_bocadillo.mp3,2020-06-24_18h00.02.190,TranslationElicitation_eng-prolific-spa,3.2.4,Win32,60,5e71e92d7c127310819224be,,1,0,98,5,1,97
,,,,,,,,,,,,,,,,,,,,,,,,,,,,,,,,,,,,,,,,,i,2.945999861,LI,FALSE,,,,,,,7,bocadillo,Spanish,Sounds/spa_bocadillo.mp3,2020-06-24_18h00.02.190,TranslationElicitation_eng-prolific-spa,3.2.4,Win32,60,5e71e92d7c127310819224be,,1,0,98,5,1,97
,,,,,,,,,,,,,,,,,,,,,,,,,,,,,,,,,,,,,,,,,b,3.082000017,LIB,FALSE,,,,,,,7,bocadillo,Spanish,Sounds/spa_bocadillo.mp3,2020-06-24_18h00.02.190,TranslationElicitation_eng-prolific-spa,3.2.4,Win32,60,5e71e92d7c127310819224be,,1,0,98,5,1,97
,,,,,,,,,,,,,,,,,,,,,,,,,,,,,,,,,,,,,,,,,r,3.362999916,LIBR,FALSE,,,,,,,7,bocadillo,Spanish,Sounds/spa_bocadillo.mp3,2020-06-24_18h00.02.190,TranslationElicitation_eng-prolific-spa,3.2.4,Win32,60,5e71e92d7c127310819224be,,1,0,98,5,1,97
,,,,,,,,,,,,,,,,,,,,,,,,,,,,,,,,,,,,,,,,,a,3.464999914,LIBRA,FALSE,,,,,,,7,bocadillo,Spanish,Sounds/spa_bocadillo.mp3,2020-06-24_18h00.02.190,TranslationElicitation_eng-prolific-spa,3.2.4,Win32,60,5e71e92d7c127310819224be,,1,0,98,5,1,97
,,,,,,,,,,,,,,,,,,,,,,,,,,,,,,,,,,,,,,,,,r,3.595999956,LIBRAR,FALSE,,,,,,,7,bocadillo,Spanish,Sounds/spa_bocadillo.mp3,2020-06-24_18h00.02.190,TranslationElicitation_eng-prolific-spa,3.2.4,Win32,60,5e71e92d7c127310819224be,,1,0,98,5,1,97
,,,,,,,,,,,,,,,,,,,,,,,,,,,,,,,,,,,,,,,,,y,3.815000057,LIBRARY,FALSE,,,,,,,7,bocadillo,Spanish,Sounds/spa_bocadillo.mp3,2020-06-24_18h00.02.190,TranslationElicitation_eng-prolific-spa,3.2.4,Win32,60,5e71e92d7c127310819224be,,1,0,98,5,1,97
,,,,,,,,,,,,,,,,,,,,,,,,,,,,,,,,,,,,,,,,,return,3.911999941,LIBRARY,FALSE,,,,,,,7,bocadillo,Spanish,Sounds/spa_bocadillo.mp3,2020-06-24_18h00.02.190,TranslationElicitation_eng-prolific-spa,3.2.4,Win32,60,5e71e92d7c127310819224be,3.911999941,1,0,98,5,1,97
,,,,,,,,,,,,,,,,,,,,,,,,,,,,,,,,,,,,,,,,,,,,,,,,,,,7,bocadillo,Spanish,Sounds/spa_bocadillo.mp3,2020-06-24_18h00.02.190,TranslationElicitation_eng-prolific-spa,3.2.4,Win32,60,5e71e92d7c127310819224be,,1,0,98,5,1,97
,,,,,,,,,,,,,,,,,,,,,,,,,,,,,,,,,,,,,,,,,g,8.062999964,G,FALSE,,,,,,,45,gorro,Spanish,Sounds/spa_gorro.mp3,2020-06-24_18h00.02.190,TranslationElicitation_eng-prolific-spa,3.2.4,Win32,60,5e71e92d7c127310819224be,,1,0,98,41,1,97
,,,,,,,,,,,,,,,,,,,,,,,,,,,,,,,,,,,,,,,,,r,8.312999964,GR,FALSE,,,,,,,45,gorro,Spanish,Sounds/spa_gorro.mp3,2020-06-24_18h00.02.190,TranslationElicitation_eng-prolific-spa,3.2.4,Win32,60,5e71e92d7c127310819224be,,1,0,98,41,1,97
,,,,,,,,,,,,,,,,,,,,,,,,,,,,,,,,,,,,,,,,,a,8.397000074,GRA,FALSE,,,,,,,45,gorro,Spanish,Sounds/spa_gorro.mp3,2020-06-24_18h00.02.190,TranslationElicitation_eng-prolific-spa,3.2.4,Win32,60,5e71e92d7c127310819224be,,1,0,98,41,1,97
,,,,,,,,,,,,,,,,,,,,,,,,,,,,,,,,,,,,,,,,,s,8.56400013,GRAS,FALSE,,,,,,,45,gorro,Spanish,Sounds/spa_gorro.mp3,2020-06-24_18h00.02.190,TranslationElicitation_eng-prolific-spa,3.2.4,Win32,60,5e71e92d7c127310819224be,,1,0,98,41,1,97
,,,,,,,,,,,,,,,,,,,,,,,,,,,,,,,,,,,,,,,,,s,8.746000051,GRASS,FALSE,,,,,,,45,gorro,Spanish,Sounds/spa_gorro.mp3,2020-06-24_18h00.02.190,TranslationElicitation_eng-prolific-spa,3.2.4,Win32,60,5e71e92d7c127310819224be,,1,0,98,41,1,97
,,,,,,,,,,,,,,,,,,,,,,,,,,,,,,,,,,,,,,,,,return,8.963000059,GRASS,FALSE,,,,,,,45,gorro,Spanish,Sounds/spa_gorro.mp3,2020-06-24_18h00.02.190,TranslationElicitation_eng-prolific-spa,3.2.4,Win32,60,5e71e92d7c127310819224be,8.963000059,1,0,98,41,1,97
,,,,,,,,,,,,,,,,,,,,,,,,,,,,,,,,,,,,,,,,,,,,,,,,,,,45,gorro,Spanish,Sounds/spa_gorro.mp3,2020-06-24_18h00.02.190,TranslationElicitation_eng-prolific-spa,3.2.4,Win32,60,5e71e92d7c127310819224be,,1,0,98,41,1,97
,,,,,,,,,,,,,,,,,,,,,,,,,,,,,,,,,,,,,,,,,u,1.698999882,U,FALSE,,,,,,,36,estrella,Spanish,Sounds/spa_estrella.mp3,2020-06-24_18h00.02.190,TranslationElicitation_eng-prolific-spa,3.2.4,Win32,60,5e71e92d7c127310819224be,,1,0,98,32,1,97
,,,,,,,,,,,,,,,,,,,,,,,,,,,,,,,,,,,,,,,,,s,1.865999937,US,FALSE,,,,,,,36,estrella,Spanish,Sounds/spa_estrella.mp3,2020-06-24_18h00.02.190,TranslationElicitation_eng-prolific-spa,3.2.4,Win32,60,5e71e92d7c127310819224be,,1,0,98,32,1,97
,,,,,,,,,,,,,,,,,,,,,,,,,,,,,,,,,,,,,,,,,t,2.032000065,UST,FALSE,,,,,,,36,estrella,Spanish,Sounds/spa_estrella.mp3,2020-06-24_18h00.02.190,TranslationElicitation_eng-prolific-spa,3.2.4,Win32,60,5e71e92d7c127310819224be,,1,0,98,32,1,97
,,,,,,,,,,,,,,,,,,,,,,,,,,,,,,,,,,,,,,,,,r,2.266000032,USTR,FALSE,,,,,,,36,estrella,Spanish,Sounds/spa_estrella.mp3,2020-06-24_18h00.02.190,TranslationElicitation_eng-prolific-spa,3.2.4,Win32,60,5e71e92d7c127310819224be,,1,0,98,32,1,97
,,,,,,,,,,,,,,,,,,,,,,,,,,,,,,,,,,,,,,,,,a,2.415999889,USTRA,FALSE,,,,,,,36,estrella,Spanish,Sounds/spa_estrella.mp3,2020-06-24_18h00.02.190,TranslationElicitation_eng-prolific-spa,3.2.4,Win32,60,5e71e92d7c127310819224be,,1,0,98,32,1,97
,,,,,,,,,,,,,,,,,,,,,,,,,,,,,,,,,,,,,,,,,backspace,3.065000057,USTR,TRUE,,,,,,,36,estrella,Spanish,Sounds/spa_estrella.mp3,2020-06-24_18h00.02.190,TranslationElicitation_eng-prolific-spa,3.2.4,Win32,60,5e71e92d7c127310819224be,,1,0,98,32,1,97
,,,,,,,,,,,,,,,,,,,,,,,,,,,,,,,,,,,,,,,,,backspace,3.266000032,UST,TRUE,,,,,,,36,estrella,Spanish,Sounds/spa_estrella.mp3,2020-06-24_18h00.02.190,TranslationElicitation_eng-prolific-spa,3.2.4,Win32,60,5e71e92d7c127310819224be,,1,0,98,32,1,97
,,,,,,,,,,,,,,,,,,,,,,,,,,,,,,,,,,,,,,,,,backspace,3.417999983,US,TRUE,,,,,,,36,estrella,Spanish,Sounds/spa_estrella.mp3,2020-06-24_18h00.02.190,TranslationElicitation_eng-prolific-spa,3.2.4,Win32,60,5e71e92d7c127310819224be,,1,0,98,32,1,97
,,,,,,,,,,,,,,,,,,,,,,,,,,,,,,,,,,,,,,,,,backspace,3.598999977,U,TRUE,,,,,,,36,estrella,Spanish,Sounds/spa_estrella.mp3,2020-06-24_18h00.02.190,TranslationElicitation_eng-prolific-spa,3.2.4,Win32,60,5e71e92d7c127310819224be,,1,0,98,32,1,97
,,,,,,,,,,,,,,,,,,,,,,,,,,,,,,,,,,,,,,,,,backspace,3.81799984,,TRUE,,,,,,,36,estrella,Spanish,Sounds/spa_estrella.mp3,2020-06-24_18h00.02.190,TranslationElicitation_eng-prolific-spa,3.2.4,Win32,60,5e71e92d7c127310819224be,,1,0,98,32,1,97
,,,,,,,,,,,,,,,,,,,,,,,,,,,,,,,,,,,,,,,,,a,4.898000002,A,TRUE,,,,,,,36,estrella,Spanish,Sounds/spa_estrella.mp3,2020-06-24_18h00.02.190,TranslationElicitation_eng-prolific-spa,3.2.4,Win32,60,5e71e92d7c127310819224be,,1,0,98,32,1,97
,,,,,,,,,,,,,,,,,,,,,,,,,,,,,,,,,,,,,,,,,u,5.065000057,AU,TRUE,,,,,,,36,estrella,Spanish,Sounds/spa_estrella.mp3,2020-06-24_18h00.02.190,TranslationElicitation_eng-prolific-spa,3.2.4,Win32,60,5e71e92d7c127310819224be,,1,0,98,32,1,97
,,,,,,,,,,,,,,,,,,,,,,,,,,,,,,,,,,,,,,,,,s,5.264999866,AUS,TRUE,,,,,,,36,estrella,Spanish,Sounds/spa_estrella.mp3,2020-06-24_18h00.02.190,TranslationElicitation_eng-prolific-spa,3.2.4,Win32,60,5e71e92d7c127310819224be,,1,0,98,32,1,97
,,,,,,,,,,,,,,,,,,,,,,,,,,,,,,,,,,,,,,,,,t,6.230999947,AUST,TRUE,,,,,,,36,estrella,Spanish,Sounds/spa_estrella.mp3,2020-06-24_18h00.02.190,TranslationElicitation_eng-prolific-spa,3.2.4,Win32,60,5e71e92d7c127310819224be,,1,0,98,32,1,97
,,,,,,,,,,,,,,,,,,,,,,,,,,,,,,,,,,,,,,,,,r,6.631000042,AUSTR,TRUE,,,,,,,36,estrella,Spanish,Sounds/spa_estrella.mp3,2020-06-24_18h00.02.190,TranslationElicitation_eng-prolific-spa,3.2.4,Win32,60,5e71e92d7c127310819224be,,1,0,98,32,1,97
,,,,,,,,,,,,,,,,,,,,,,,,,,,,,,,,,,,,,,,,,a,6.813999891,AUSTRA,TRUE,,,,,,,36,estrella,Spanish,Sounds/spa_estrella.mp3,2020-06-24_18h00.02.190,TranslationElicitation_eng-prolific-spa,3.2.4,Win32,60,5e71e92d7c127310819224be,,1,0,98,32,1,97
,,,,,,,,,,,,,,,,,,,,,,,,,,,,,,,,,,,,,,,,,l,7.029999971,AUSTRAL,TRUE,,,,,,,36,estrella,Spanish,Sounds/spa_estrella.mp3,2020-06-24_18h00.02.190,TranslationElicitation_eng-prolific-spa,3.2.4,Win32,60,5e71e92d7c127310819224be,,1,0,98,32,1,97
,,,,,,,,,,,,,,,,,,,,,,,,,,,,,,,,,,,,,,,,,i,7.246999979,AUSTRALI,TRUE,,,,,,,36,estrella,Spanish,Sounds/spa_estrella.mp3,2020-06-24_18h00.02.190,TranslationElicitation_eng-prolific-spa,3.2.4,Win32,60,5e71e92d7c127310819224be,,1,0,98,32,1,97
,,,,,,,,,,,,,,,,,,,,,,,,,,,,,,,,,,,,,,,,,a,7.415999889,AUSTRALIA,TRUE,,,,,,,36,estrella,Spanish,Sounds/spa_estrella.mp3,2020-06-24_18h00.02.190,TranslationElicitation_eng-prolific-spa,3.2.4,Win32,60,5e71e92d7c127310819224be,,1,0,98,32,1,97
,,,,,,,,,,,,,,,,,,,,,,,,,,,,,,,,,,,,,,,,,return,7.746999979,AUSTRALIA,TRUE,,,,,,,36,estrella,Spanish,Sounds/spa_estrella.mp3,2020-06-24_18h00.02.190,TranslationElicitation_eng-prolific-spa,3.2.4,Win32,60,5e71e92d7c127310819224be,7.746999979,1,0,98,32,1,97
,,,,,,,,,,,,,,,,,,,,,,,,,,,,,,,,,,,,,,,,,,,,,,,,,,,36,estrella,Spanish,Sounds/spa_estrella.mp3,2020-06-24_18h00.02.190,TranslationElicitation_eng-prolific-spa,3.2.4,Win32,60,5e71e92d7c127310819224be,,1,0,98,32,1,97
,,,,,,,,,,,,,,,,,,,,,,,,,,,,,,,,,,,,,,,,,h,7.762000084,H,FALSE,,,,,,,50,jirafa,Spanish,Sounds/spa_jirafa.mp3,2020-06-24_18h00.02.190,TranslationElicitation_eng-prolific-spa,3.2.4,Win32,60,5e71e92d7c127310819224be,,1,0,98,46,1,97
,,,,,,,,,,,,,,,,,,,,,,,,,,,,,,,,,,,,,,,,,i,7.828000069,HI,FALSE,,,,,,,50,jirafa,Spanish,Sounds/spa_jirafa.mp3,2020-06-24_18h00.02.190,TranslationElicitation_eng-prolific-spa,3.2.4,Win32,60,5e71e92d7c127310819224be,,1,0,98,46,1,97
,,,,,,,,,,,,,,,,,,,,,,,,,,,,,,,,,,,,,,,,,return,8.194999933,HI,FALSE,,,,,,,50,jirafa,Spanish,Sounds/spa_jirafa.mp3,2020-06-24_18h00.02.190,TranslationElicitation_eng-prolific-spa,3.2.4,Win32,60,5e71e92d7c127310819224be,8.194999933,1,0,98,46,1,97
,,,,,,,,,,,,,,,,,,,,,,,,,,,,,,,,,,,,,,,,,,,,,,,,,,,50,jirafa,Spanish,Sounds/spa_jirafa.mp3,2020-06-24_18h00.02.190,TranslationElicitation_eng-prolific-spa,3.2.4,Win32,60,5e71e92d7c127310819224be,,1,0,98,46,1,97
,,,,,,,,,,,,,,,,,,,,,,,,,,,,,,,,,,,,,,,,,m,1.383000135,M,FALSE,,,,,,,99,tomate,Spanish,Sounds/spa_tomate.mp3,2020-06-24_18h00.02.190,TranslationElicitation_eng-prolific-spa,3.2.4,Win32,60,5e71e92d7c127310819224be,,1,0,98,93,1,97
,,,,,,,,,,,,,,,,,,,,,,,,,,,,,,,,,,,,,,,,,a,1.69900012,MA,FALSE,,,,,,,99,tomate,Spanish,Sounds/spa_tomate.mp3,2020-06-24_18h00.02.190,TranslationElicitation_eng-prolific-spa,3.2.4,Win32,60,5e71e92d7c127310819224be,,1,0,98,93,1,97
,,,,,,,,,,,,,,,,,,,,,,,,,,,,,,,,,,,,,,,,,backspace,2.215000153,M,TRUE,,,,,,,99,tomate,Spanish,Sounds/spa_tomate.mp3,2020-06-24_18h00.02.190,TranslationElicitation_eng-prolific-spa,3.2.4,Win32,60,5e71e92d7c127310819224be,,1,0,98,93,1,97
,,,,,,,,,,,,,,,,,,,,,,,,,,,,,,,,,,,,,,,,,backspace,2.382000208,,TRUE,,,,,,,99,tomate,Spanish,Sounds/spa_tomate.mp3,2020-06-24_18h00.02.190,TranslationElicitation_eng-prolific-spa,3.2.4,Win32,60,5e71e92d7c127310819224be,,1,0,98,93,1,97
,,,,,,,,,,,,,,,,,,,,,,,,,,,,,,,,,,,,,,,,,o,2.765000105,O,TRUE,,,,,,,99,tomate,Spanish,Sounds/spa_tomate.mp3,2020-06-24_18h00.02.190,TranslationElicitation_eng-prolific-spa,3.2.4,Win32,60,5e71e92d7c127310819224be,,1,0,98,93,1,97
,,,,,,,,,,,,,,,,,,,,,,,,,,,,,,,,,,,,,,,,,backspace,3.09800005,,TRUE,,,,,,,99,tomate,Spanish,Sounds/spa_tomate.mp3,2020-06-24_18h00.02.190,TranslationElicitation_eng-prolific-spa,3.2.4,Win32,60,5e71e92d7c127310819224be,,1,0,98,93,1,97
,,,,,,,,,,,,,,,,,,,,,,,,,,,,,,,,,,,,,,,,,t,3.315000057,T,TRUE,,,,,,,99,tomate,Spanish,Sounds/spa_tomate.mp3,2020-06-24_18h00.02.190,TranslationElicitation_eng-prolific-spa,3.2.4,Win32,60,5e71e92d7c127310819224be,,1,0,98,93,1,97
,,,,,,,,,,,,,,,,,,,,,,,,,,,,,,,,,,,,,,,,,o,3.4150002,TO,TRUE,,,,,,,99,tomate,Spanish,Sounds/spa_tomate.mp3,2020-06-24_18h00.02.190,TranslationElicitation_eng-prolific-spa,3.2.4,Win32,60,5e71e92d7c127310819224be,,1,0,98,93,1,97
,,,,,,,,,,,,,,,,,,,,,,,,,,,,,,,,,,,,,,,,,m,3.515000105,TOM,TRUE,,,,,,,99,tomate,Spanish,Sounds/spa_tomate.mp3,2020-06-24_18h00.02.190,TranslationElicitation_eng-prolific-spa,3.2.4,Win32,60,5e71e92d7c127310819224be,,1,0,98,93,1,97
,,,,,,,,,,,,,,,,,,,,,,,,,,,,,,,,,,,,,,,,,a,3.832000017,TOMA,TRUE,,,,,,,99,tomate,Spanish,Sounds/spa_tomate.mp3,2020-06-24_18h00.02.190,TranslationElicitation_eng-prolific-spa,3.2.4,Win32,60,5e71e92d7c127310819224be,,1,0,98,93,1,97
,,,,,,,,,,,,,,,,,,,,,,,,,,,,,,,,,,,,,,,,,t,4.6650002,TOMAT,TRUE,,,,,,,99,tomate,Spanish,Sounds/spa_tomate.mp3,2020-06-24_18h00.02.190,TranslationElicitation_eng-prolific-spa,3.2.4,Win32,60,5e71e92d7c127310819224be,,1,0,98,93,1,97
,,,,,,,,,,,,,,,,,,,,,,,,,,,,,,,,,,,,,,,,,o,4.764000177,TOMATO,TRUE,,,,,,,99,tomate,Spanish,Sounds/spa_tomate.mp3,2020-06-24_18h00.02.190,TranslationElicitation_eng-prolific-spa,3.2.4,Win32,60,5e71e92d7c127310819224be,,1,0,98,93,1,97
,,,,,,,,,,,,,,,,,,,,,,,,,,,,,,,,,,,,,,,,,return,5.197000027,TOMATO,TRUE,,,,,,,99,tomate,Spanish,Sounds/spa_tomate.mp3,2020-06-24_18h00.02.190,TranslationElicitation_eng-prolific-spa,3.2.4,Win32,60,5e71e92d7c127310819224be,5.197000027,1,0,98,93,1,97
,,,,,,,,,,,,,,,,,,,,,,,,,,,,,,,,,,,,,,,,,,,,,,,,,,,99,tomate,Spanish,Sounds/spa_tomate.mp3,2020-06-24_18h00.02.190,TranslationElicitation_eng-prolific-spa,3.2.4,Win32,60,5e71e92d7c127310819224be,,1,0,98,93,1,97
,,,,,,,,,,,,,,,,,,,,,,,,,,,,,,,,,,,,,,,,,b,1.44900012,B,FALSE,,,,,,,84,pie,Spanish,Sounds/spa_pie.mp3,2020-06-24_18h00.02.190,TranslationElicitation_eng-prolific-spa,3.2.4,Win32,60,5e71e92d7c127310819224be,,1,0,98,79,1,97
,,,,,,,,,,,,,,,,,,,,,,,,,,,,,,,,,,,,,,,,,e,2.149000168,BE,FALSE,,,,,,,84,pie,Spanish,Sounds/spa_pie.mp3,2020-06-24_18h00.02.190,TranslationElicitation_eng-prolific-spa,3.2.4,Win32,60,5e71e92d7c127310819224be,,1,0,98,79,1,97
,,,,,,,,,,,,,,,,,,,,,,,,,,,,,,,,,,,,,,,,,e,3.384000063,BEE,FALSE,,,,,,,84,pie,Spanish,Sounds/spa_pie.mp3,2020-06-24_18h00.02.190,TranslationElicitation_eng-prolific-spa,3.2.4,Win32,60,5e71e92d7c127310819224be,,1,0,98,79,1,97
,,,,,,,,,,,,,,,,,,,,,,,,,,,,,,,,,,,,,,,,,r,3.448000193,BEER,FALSE,,,,,,,84,pie,Spanish,Sounds/spa_pie.mp3,2020-06-24_18h00.02.190,TranslationElicitation_eng-prolific-spa,3.2.4,Win32,60,5e71e92d7c127310819224be,,1,0,98,79,1,97
,,,,,,,,,,,,,,,,,,,,,,,,,,,,,,,,,,,,,,,,,return,3.6650002,BEER,FALSE,,,,,,,84,pie,Spanish,Sounds/spa_pie.mp3,2020-06-24_18h00.02.190,TranslationElicitation_eng-prolific-spa,3.2.4,Win32,60,5e71e92d7c127310819224be,3.6650002,1,0,98,79,1,97
,,,,,,,,,,,,,,,,,,,,,,,,,,,,,,,,,,,,,,,,,,,,,,,,,,,84,pie,Spanish,Sounds/spa_pie.mp3,2020-06-24_18h00.02.190,TranslationElicitation_eng-prolific-spa,3.2.4,Win32,60,5e71e92d7c127310819224be,,1,0,98,79,1,97
,,,,,,,,,,,,,,,,,,,,,,,,,,,,,,,,,,,,,,,,,g,2.749000072,G,FALSE,,,,,,,94,tambor,Spanish,Sounds/spa_tambor.mp3,2020-06-24_18h00.02.190,TranslationElicitation_eng-prolific-spa,3.2.4,Win32,60,5e71e92d7c127310819224be,,1,0,98,89,1,97
,,,,,,,,,,,,,,,,,,,,,,,,,,,,,,,,,,,,,,,,,o,2.897000074,GO,FALSE,,,,,,,94,tambor,Spanish,Sounds/spa_tambor.mp3,2020-06-24_18h00.02.190,TranslationElicitation_eng-prolific-spa,3.2.4,Win32,60,5e71e92d7c127310819224be,,1,0,98,89,1,97
,,,,,,,,,,,,,,,,,,,,,,,,,,,,,,,,,,,,,,,,,o,3.046999931,GOO,FALSE,,,,,,,94,tambor,Spanish,Sounds/spa_tambor.mp3,2020-06-24_18h00.02.190,TranslationElicitation_eng-prolific-spa,3.2.4,Win32,60,5e71e92d7c127310819224be,,1,0,98,89,1,97
,,,,,,,,,,,,,,,,,,,,,,,,,,,,,,,,,,,,,,,,,d,3.164000034,GOOD,FALSE,,,,,,,94,tambor,Spanish,Sounds/spa_tambor.mp3,2020-06-24_18h00.02.190,TranslationElicitation_eng-prolific-spa,3.2.4,Win32,60,5e71e92d7c127310819224be,,1,0,98,89,1,97
,,,,,,,,,,,,,,,,,,,,,,,,,,,,,,,,,,,,,,,,,return,3.313999891,GOOD,FALSE,,,,,,,94,tambor,Spanish,Sounds/spa_tambor.mp3,2020-06-24_18h00.02.190,TranslationElicitation_eng-prolific-spa,3.2.4,Win32,60,5e71e92d7c127310819224be,3.313999891,1,0,98,89,1,97
,,,,,,,,,,,,,,,,,,,,,,,,,,,,,,,,,,,,,,,,,,,,,,,,,,,94,tambor,Spanish,Sounds/spa_tambor.mp3,2020-06-24_18h00.02.190,TranslationElicitation_eng-prolific-spa,3.2.4,Win32,60,5e71e92d7c127310819224be,,1,0,98,89,1,97
,,,,,,,,,,,,,,,,,,,,,,,,,,,,,,,,,,,,,,,,,m,1.848999977,M,FALSE,,,,,,,65,mono,Spanish,Sounds/spa_mono.mp3,2020-06-24_18h00.02.190,TranslationElicitation_eng-prolific-spa,3.2.4,Win32,60,5e71e92d7c127310819224be,,1,0,98,61,1,97
,,,,,,,,,,,,,,,,,,,,,,,,,,,,,,,,,,,,,,,,,o,1.93200016,MO,FALSE,,,,,,,65,mono,Spanish,Sounds/spa_mono.mp3,2020-06-24_18h00.02.190,TranslationElicitation_eng-prolific-spa,3.2.4,Win32,60,5e71e92d7c127310819224be,,1,0,98,61,1,97
,,,,,,,,,,,,,,,,,,,,,,,,,,,,,,,,,,,,,,,,,r,2.11500001,MOR,FALSE,,,,,,,65,mono,Spanish,Sounds/spa_mono.mp3,2020-06-24_18h00.02.190,TranslationElicitation_eng-prolific-spa,3.2.4,Win32,60,5e71e92d7c127310819224be,,1,0,98,61,1,97
,,,,,,,,,,,,,,,,,,,,,,,,,,,,,,,,,,,,,,,,,n,2.215000153,MORN,FALSE,,,,,,,65,mono,Spanish,Sounds/spa_mono.mp3,2020-06-24_18h00.02.190,TranslationElicitation_eng-prolific-spa,3.2.4,Win32,60,5e71e92d7c127310819224be,,1,0,98,61,1,97
,,,,,,,,,,,,,,,,,,,,,,,,,,,,,,,,,,,,,,,,,i,2.315000057,MORNI,FALSE,,,,,,,65,mono,Spanish,Sounds/spa_mono.mp3,2020-06-24_18h00.02.190,TranslationElicitation_eng-prolific-spa,3.2.4,Win32,60,5e71e92d7c127310819224be,,1,0,98,61,1,97
,,,,,,,,,,,,,,,,,,,,,,,,,,,,,,,,,,,,,,,,,n,2.450000048,MORNIN,FALSE,,,,,,,65,mono,Spanish,Sounds/spa_mono.mp3,2020-06-24_18h00.02.190,TranslationElicitation_eng-prolific-spa,3.2.4,Win32,60,5e71e92d7c127310819224be,,1,0,98,61,1,97
,,,,,,,,,,,,,,,,,,,,,,,,,,,,,,,,,,,,,,,,,g,2.58100009,MORNING,FALSE,,,,,,,65,mono,Spanish,Sounds/spa_mono.mp3,2020-06-24_18h00.02.190,TranslationElicitation_eng-prolific-spa,3.2.4,Win32,60,5e71e92d7c127310819224be,,1,0,98,61,1,97
,,,,,,,,,,,,,,,,,,,,,,,,,,,,,,,,,,,,,,,,,return,2.715000153,MORNING,FALSE,,,,,,,65,mono,Spanish,Sounds/spa_mono.mp3,2020-06-24_18h00.02.190,TranslationElicitation_eng-prolific-spa,3.2.4,Win32,60,5e71e92d7c127310819224be,2.715000153,1,0,98,61,1,97
,,,,,,,,,,,,,,,,,,,,,,,,,,,,,,,,,,,,,,,,,,,,,,,,,,,65,mono,Spanish,Sounds/spa_mono.mp3,2020-06-24_18h00.02.190,TranslationElicitation_eng-prolific-spa,3.2.4,Win32,60,5e71e92d7c127310819224be,,1,0,98,61,1,97
,,,,,,,,,,,,,,,,,,,,,,,,,,,,,,,,,,,,,,,,,s,3.763999939,S,FALSE,,,,,,,35,esponja,Spanish,Sounds/spa_esponja.mp3,2020-06-24_18h00.02.190,TranslationElicitation_eng-prolific-spa,3.2.4,Win32,60,5e71e92d7c127310819224be,,1,0,98,31,1,97
,,,,,,,,,,,,,,,,,,,,,,,,,,,,,,,,,,,,,,,,,p,3.864000082,SP,FALSE,,,,,,,35,esponja,Spanish,Sounds/spa_esponja.mp3,2020-06-24_18h00.02.190,TranslationElicitation_eng-prolific-spa,3.2.4,Win32,60,5e71e92d7c127310819224be,,1,0,98,31,1,97
,,,,,,,,,,,,,,,,,,,,,,,,,,,,,,,,,,,,,,,,,a,4.029999971,SPA,FALSE,,,,,,,35,esponja,Spanish,Sounds/spa_esponja.mp3,2020-06-24_18h00.02.190,TranslationElicitation_eng-prolific-spa,3.2.4,Win32,60,5e71e92d7c127310819224be,,1,0,98,31,1,97
,,,,,,,,,,,,,,,,,,,,,,,,,,,,,,,,,,,,,,,,,n,4.112999916,SPAN,FALSE,,,,,,,35,esponja,Spanish,Sounds/spa_esponja.mp3,2020-06-24_18h00.02.190,TranslationElicitation_eng-prolific-spa,3.2.4,Win32,60,5e71e92d7c127310819224be,,1,0,98,31,1,97
,,,,,,,,,,,,,,,,,,,,,,,,,,,,,,,,,,,,,,,,,k,4.164000034,SPANK,FALSE,,,,,,,35,esponja,Spanish,Sounds/spa_esponja.mp3,2020-06-24_18h00.02.190,TranslationElicitation_eng-prolific-spa,3.2.4,Win32,60,5e71e92d7c127310819224be,,1,0,98,31,1,97
,,,,,,,,,,,,,,,,,,,,,,,,,,,,,,,,,,,,,,,,,return,4.413000107,SPANK,FALSE,,,,,,,35,esponja,Spanish,Sounds/spa_esponja.mp3,2020-06-24_18h00.02.190,TranslationElicitation_eng-prolific-spa,3.2.4,Win32,60,5e71e92d7c127310819224be,4.413000107,1,0,98,31,1,97
,,,,,,,,,,,,,,,,,,,,,,,,,,,,,,,,,,,,,,,,,,,,,,,,,,,35,esponja,Spanish,Sounds/spa_esponja.mp3,2020-06-24_18h00.02.190,TranslationElicitation_eng-prolific-spa,3.2.4,Win32,60,5e71e92d7c127310819224be,,1,0,98,31,1,97
,,,,,,,,,,,,,,,,,,,,,,,,,,,,,,,,,,,,,,,,,b,2.898999929,B,FALSE,,,,,,,6,boca,Spanish,Sounds/spa_boca.mp3,2020-06-24_18h00.02.190,TranslationElicitation_eng-prolific-spa,3.2.4,Win32,60,5e71e92d7c127310819224be,,1,0,98,4,1,97
,,,,,,,,,,,,,,,,,,,,,,,,,,,,,,,,,,,,,,,,,backspace,3.398999929,,TRUE,,,,,,,6,boca,Spanish,Sounds/spa_boca.mp3,2020-06-24_18h00.02.190,TranslationElicitation_eng-prolific-spa,3.2.4,Win32,60,5e71e92d7c127310819224be,,1,0,98,4,1,97
,,,,,,,,,,,,,,,,,,,,,,,,,,,,,,,,,,,,,,,,,g,3.598999977,G,TRUE,,,,,,,6,boca,Spanish,Sounds/spa_boca.mp3,2020-06-24_18h00.02.190,TranslationElicitation_eng-prolific-spa,3.2.4,Win32,60,5e71e92d7c127310819224be,,1,0,98,4,1,97
,,,,,,,,,,,,,,,,,,,,,,,,,,,,,,,,,,,,,,,,,o,3.681999922,GO,TRUE,,,,,,,6,boca,Spanish,Sounds/spa_boca.mp3,2020-06-24_18h00.02.190,TranslationElicitation_eng-prolific-spa,3.2.4,Win32,60,5e71e92d7c127310819224be,,1,0,98,4,1,97
,,,,,,,,,,,,,,,,,,,,,,,,,,,,,,,,,,,,,,,,,o,3.847999811,GOO,TRUE,,,,,,,6,boca,Spanish,Sounds/spa_boca.mp3,2020-06-24_18h00.02.190,TranslationElicitation_eng-prolific-spa,3.2.4,Win32,60,5e71e92d7c127310819224be,,1,0,98,4,1,97
,,,,,,,,,,,,,,,,,,,,,,,,,,,,,,,,,,,,,,,,,d,4.347999811,GOOD,TRUE,,,,,,,6,boca,Spanish,Sounds/spa_boca.mp3,2020-06-24_18h00.02.190,TranslationElicitation_eng-prolific-spa,3.2.4,Win32,60,5e71e92d7c127310819224be,,1,0,98,4,1,97
,,,,,,,,,,,,,,,,,,,,,,,,,,,,,,,,,,,,,,,,,return,4.980999947,GOOD,TRUE,,,,,,,6,boca,Spanish,Sounds/spa_boca.mp3,2020-06-24_18h00.02.190,TranslationElicitation_eng-prolific-spa,3.2.4,Win32,60,5e71e92d7c127310819224be,4.980999947,1,0,98,4,1,97
,,,,,,,,,,,,,,,,,,,,,,,,,,,,,,,,,,,,,,,,,,,,,,,,,,,6,boca,Spanish,Sounds/spa_boca.mp3,2020-06-24_18h00.02.190,TranslationElicitation_eng-prolific-spa,3.2.4,Win32,60,5e71e92d7c127310819224be,,1,0,98,4,1,97
,,,,,,,,,,,,,,,,,,,,,,,,,,,,,,,,,,,,,,,,,g,4.51699996,G,FALSE,,,,,,,46,grifo,Spanish,Sounds/spa_grifo.mp3,2020-06-24_18h00.02.190,TranslationElicitation_eng-prolific-spa,3.2.4,Win32,60,5e71e92d7c127310819224be,,1,0,98,42,1,97
,,,,,,,,,,,,,,,,,,,,,,,,,,,,,,,,,,,,,,,,,r,4.713999987,GR,FALSE,,,,,,,46,grifo,Spanish,Sounds/spa_grifo.mp3,2020-06-24_18h00.02.190,TranslationElicitation_eng-prolific-spa,3.2.4,Win32,60,5e71e92d7c127310819224be,,1,0,98,42,1,97
,,,,,,,,,,,,,,,,,,,,,,,,,,,,,,,,,,,,,,,,,e,5.230999947,GRE,FALSE,,,,,,,46,grifo,Spanish,Sounds/spa_grifo.mp3,2020-06-24_18h00.02.190,TranslationElicitation_eng-prolific-spa,3.2.4,Win32,60,5e71e92d7c127310819224be,,1,0,98,42,1,97
,,,,,,,,,,,,,,,,,,,,,,,,,,,,,,,,,,,,,,,,,e,5.381000042,GREE,FALSE,,,,,,,46,grifo,Spanish,Sounds/spa_grifo.mp3,2020-06-24_18h00.02.190,TranslationElicitation_eng-prolific-spa,3.2.4,Win32,60,5e71e92d7c127310819224be,,1,0,98,42,1,97
,,,,,,,,,,,,,,,,,,,,,,,,,,,,,,,,,,,,,,,,,d,5.549000025,GREED,FALSE,,,,,,,46,grifo,Spanish,Sounds/spa_grifo.mp3,2020-06-24_18h00.02.190,TranslationElicitation_eng-prolific-spa,3.2.4,Win32,60,5e71e92d7c127310819224be,,1,0,98,42,1,97
,,,,,,,,,,,,,,,,,,,,,,,,,,,,,,,,,,,,,,,,,return,5.648999929,GREED,FALSE,,,,,,,46,grifo,Spanish,Sounds/spa_grifo.mp3,2020-06-24_18h00.02.190,TranslationElicitation_eng-prolific-spa,3.2.4,Win32,60,5e71e92d7c127310819224be,5.648999929,1,0,98,42,1,97
,,,,,,,,,,,,,,,,,,,,,,,,,,,,,,,,,,,,,,,,,,,,,,,,,,,46,grifo,Spanish,Sounds/spa_grifo.mp3,2020-06-24_18h00.02.190,TranslationElicitation_eng-prolific-spa,3.2.4,Win32,60,5e71e92d7c127310819224be,,1,0,98,42,1,97
,,,,,,,,,,,,,,,,,,,,,,,,,,,,,,,,,,,,,,,,,h,4.013999939,H,FALSE,,,,,,,24,cereza,Spanish,Sounds/spa_cereza.mp3,2020-06-24_18h00.02.190,TranslationElicitation_eng-prolific-spa,3.2.4,Win32,60,5e71e92d7c127310819224be,,1,0,98,22,1,97
,,,,,,,,,,,,,,,,,,,,,,,,,,,,,,,,,,,,,,,,,backspace,4.822999954,,TRUE,,,,,,,24,cereza,Spanish,Sounds/spa_cereza.mp3,2020-06-24_18h00.02.190,TranslationElicitation_eng-prolific-spa,3.2.4,Win32,60,5e71e92d7c127310819224be,,1,0,98,22,1,97
,,,,,,,,,,,,,,,,,,,,,,,,,,,,,,,,,,,,,,,,,t,5.105999947,T,TRUE,,,,,,,24,cereza,Spanish,Sounds/spa_cereza.mp3,2020-06-24_18h00.02.190,TranslationElicitation_eng-prolific-spa,3.2.4,Win32,60,5e71e92d7c127310819224be,,1,0,98,22,1,97
,,,,,,,,,,,,,,,,,,,,,,,,,,,,,,,,,,,,,,,,,h,5.188999891,TH,TRUE,,,,,,,24,cereza,Spanish,Sounds/spa_cereza.mp3,2020-06-24_18h00.02.190,TranslationElicitation_eng-prolific-spa,3.2.4,Win32,60,5e71e92d7c127310819224be,,1,0,98,22,1,97
,,,,,,,,,,,,,,,,,,,,,,,,,,,,,,,,,,,,,,,,,e,5.822000027,THE,TRUE,,,,,,,24,cereza,Spanish,Sounds/spa_cereza.mp3,2020-06-24_18h00.02.190,TranslationElicitation_eng-prolific-spa,3.2.4,Win32,60,5e71e92d7c127310819224be,,1,0,98,22,1,97
,,,,,,,,,,,,,,,,,,,,,,,,,,,,,,,,,,,,,,,,,r,5.938999891,THER,TRUE,,,,,,,24,cereza,Spanish,Sounds/spa_cereza.mp3,2020-06-24_18h00.02.190,TranslationElicitation_eng-prolific-spa,3.2.4,Win32,60,5e71e92d7c127310819224be,,1,0,98,22,1,97
,,,,,,,,,,,,,,,,,,,,,,,,,,,,,,,,,,,,,,,,,e,6.204999924,THERE,TRUE,,,,,,,24,cereza,Spanish,Sounds/spa_cereza.mp3,2020-06-24_18h00.02.190,TranslationElicitation_eng-prolific-spa,3.2.4,Win32,60,5e71e92d7c127310819224be,,1,0,98,22,1,97
,,,,,,,,,,,,,,,,,,,,,,,,,,,,,,,,,,,,,,,,,s,6.507999897,THERES,TRUE,,,,,,,24,cereza,Spanish,Sounds/spa_cereza.mp3,2020-06-24_18h00.02.190,TranslationElicitation_eng-prolific-spa,3.2.4,Win32,60,5e71e92d7c127310819224be,,1,0,98,22,1,97
,,,,,,,,,,,,,,,,,,,,,,,,,,,,,,,,,,,,,,,,,a,6.621999979,THERESA,TRUE,,,,,,,24,cereza,Spanish,Sounds/spa_cereza.mp3,2020-06-24_18h00.02.190,TranslationElicitation_eng-prolific-spa,3.2.4,Win32,60,5e71e92d7c127310819224be,,1,0,98,22,1,97
,,,,,,,,,,,,,,,,,,,,,,,,,,,,,,,,,,,,,,,,,return,6.822000027,THERESA,TRUE,,,,,,,24,cereza,Spanish,Sounds/spa_cereza.mp3,2020-06-24_18h00.02.190,TranslationElicitation_eng-prolific-spa,3.2.4,Win32,60,5e71e92d7c127310819224be,6.822000027,1,0,98,22,1,97
,,,,,,,,,,,,,,,,,,,,,,,,,,,,,,,,,,,,,,,,,,,,,,,,,,,24,cereza,Spanish,Sounds/spa_cereza.mp3,2020-06-24_18h00.02.190,TranslationElicitation_eng-prolific-spa,3.2.4,Win32,60,5e71e92d7c127310819224be,,1,0,98,22,1,97
,,,,,,,,,,,,,,,,,,,,,,,,,,,,,,,,,,,,,,,,,p,1.265999794,P,FALSE,,,,,,,89,pluma,Spanish,Sounds/spa_pluma.mp3,2020-06-24_18h00.02.190,TranslationElicitation_eng-prolific-spa,3.2.4,Win32,60,5e71e92d7c127310819224be,,1,0,98,84,1,97
,,,,,,,,,,,,,,,,,,,,,,,,,,,,,,,,,,,,,,,,,l,1.549000025,PL,FALSE,,,,,,,89,pluma,Spanish,Sounds/spa_pluma.mp3,2020-06-24_18h00.02.190,TranslationElicitation_eng-prolific-spa,3.2.4,Win32,60,5e71e92d7c127310819224be,,1,0,98,84,1,97
,,,,,,,,,,,,,,,,,,,,,,,,,,,,,,,,,,,,,,,,,o,1.764999866,PLO,FALSE,,,,,,,89,pluma,Spanish,Sounds/spa_pluma.mp3,2020-06-24_18h00.02.190,TranslationElicitation_eng-prolific-spa,3.2.4,Win32,60,5e71e92d7c127310819224be,,1,0,98,84,1,97
,,,,,,,,,,,,,,,,,,,,,,,,,,,,,,,,,,,,,,,,,o,1.931999922,PLOO,FALSE,,,,,,,89,pluma,Spanish,Sounds/spa_pluma.mp3,2020-06-24_18h00.02.190,TranslationElicitation_eng-prolific-spa,3.2.4,Win32,60,5e71e92d7c127310819224be,,1,0,98,84,1,97
,,,,,,,,,,,,,,,,,,,,,,,,,,,,,,,,,,,,,,,,,m,2.131999969,PLOOM,FALSE,,,,,,,89,pluma,Spanish,Sounds/spa_pluma.mp3,2020-06-24_18h00.02.190,TranslationElicitation_eng-prolific-spa,3.2.4,Win32,60,5e71e92d7c127310819224be,,1,0,98,84,1,97
,,,,,,,,,,,,,,,,,,,,,,,,,,,,,,,,,,,,,,,,,return,2.898000002,PLOOM,FALSE,,,,,,,89,pluma,Spanish,Sounds/spa_pluma.mp3,2020-06-24_18h00.02.190,TranslationElicitation_eng-prolific-spa,3.2.4,Win32,60,5e71e92d7c127310819224be,2.898000002,1,0,98,84,1,97
,,,,,,,,,,,,,,,,,,,,,,,,,,,,,,,,,,,,,,,,,,,,,,,,,,,89,pluma,Spanish,Sounds/spa_pluma.mp3,2020-06-24_18h00.02.190,TranslationElicitation_eng-prolific-spa,3.2.4,Win32,60,5e71e92d7c127310819224be,,1,0,98,84,1,97
,,,,,,,,,,,,,,,,,,,,,,,,,,,,,,,,,,,,,,,,,l,4.312999964,L,FALSE,,,,,,,57,loro,Spanish,Sounds/spa_loro.mp3,2020-06-24_18h00.02.190,TranslationElicitation_eng-prolific-spa,3.2.4,Win32,60,5e71e92d7c127310819224be,,1,0,98,53,1,97
,,,,,,,,,,,,,,,,,,,,,,,,,,,,,,,,,,,,,,,,,o,4.546999931,LO,FALSE,,,,,,,57,loro,Spanish,Sounds/spa_loro.mp3,2020-06-24_18h00.02.190,TranslationElicitation_eng-prolific-spa,3.2.4,Win32,60,5e71e92d7c127310819224be,,1,0,98,53,1,97
,,,,,,,,,,,,,,,,,,,,,,,,,,,,,,,,,,,,,,,,,r,4.896000147,LOR,FALSE,,,,,,,57,loro,Spanish,Sounds/spa_loro.mp3,2020-06-24_18h00.02.190,TranslationElicitation_eng-prolific-spa,3.2.4,Win32,60,5e71e92d7c127310819224be,,1,0,98,53,1,97
,,,,,,,,,,,,,,,,,,,,,,,,,,,,,,,,,,,,,,,,,o,5.312000036,LORO,FALSE,,,,,,,57,loro,Spanish,Sounds/spa_loro.mp3,2020-06-24_18h00.02.190,TranslationElicitation_eng-prolific-spa,3.2.4,Win32,60,5e71e92d7c127310819224be,,1,0,98,53,1,97
,,,,,,,,,,,,,,,,,,,,,,,,,,,,,,,,,,,,,,,,,return,5.545000076,LORO,FALSE,,,,,,,57,loro,Spanish,Sounds/spa_loro.mp3,2020-06-24_18h00.02.190,TranslationElicitation_eng-prolific-spa,3.2.4,Win32,60,5e71e92d7c127310819224be,5.545000076,1,0,98,53,1,97
,,,,,,,,,,,,,,,,,,,,,,,,,,,,,,,,,,,,,,,,,,,,,,,,,,,57,loro,Spanish,Sounds/spa_loro.mp3,2020-06-24_18h00.02.190,TranslationElicitation_eng-prolific-spa,3.2.4,Win32,60,5e71e92d7c127310819224be,,1,0,98,53,1,97
,,,,,,,,,,,,,,,,,,,,,,,,,,,,,,,,,,,,,,,,,g,4.184000015,G,FALSE,,,,,,,44,gorrion,Spanish,Sounds/spa_gorrion.mp3,2020-06-24_18h00.02.190,TranslationElicitation_eng-prolific-spa,3.2.4,Win32,60,5e71e92d7c127310819224be,,1,0,98,40,1,97
,,,,,,,,,,,,,,,,,,,,,,,,,,,,,,,,,,,,,,,,,o,4.614000082,GO,FALSE,,,,,,,44,gorrion,Spanish,Sounds/spa_gorrion.mp3,2020-06-24_18h00.02.190,TranslationElicitation_eng-prolific-spa,3.2.4,Win32,60,5e71e92d7c127310819224be,,1,0,98,40,1,97
,,,,,,,,,,,,,,,,,,,,,,,,,,,,,,,,,,,,,,,,,r,6.312999964,GOR,FALSE,,,,,,,44,gorrion,Spanish,Sounds/spa_gorrion.mp3,2020-06-24_18h00.02.190,TranslationElicitation_eng-prolific-spa,3.2.4,Win32,60,5e71e92d7c127310819224be,,1,0,98,40,1,97
,,,,,,,,,,,,,,,,,,,,,,,,,,,,,,,,,,,,,,,,,d,6.529999971,GORD,FALSE,,,,,,,44,gorrion,Spanish,Sounds/spa_gorrion.mp3,2020-06-24_18h00.02.190,TranslationElicitation_eng-prolific-spa,3.2.4,Win32,60,5e71e92d7c127310819224be,,1,0,98,40,1,97
,,,,,,,,,,,,,,,,,,,,,,,,,,,,,,,,,,,,,,,,,o,6.613000154,GORDO,FALSE,,,,,,,44,gorrion,Spanish,Sounds/spa_gorrion.mp3,2020-06-24_18h00.02.190,TranslationElicitation_eng-prolific-spa,3.2.4,Win32,60,5e71e92d7c127310819224be,,1,0,98,40,1,97
,,,,,,,,,,,,,,,,,,,,,,,,,,,,,,,,,,,,,,,,,n,6.713000059,GORDON,FALSE,,,,,,,44,gorrion,Spanish,Sounds/spa_gorrion.mp3,2020-06-24_18h00.02.190,TranslationElicitation_eng-prolific-spa,3.2.4,Win32,60,5e71e92d7c127310819224be,,1,0,98,40,1,97
,,,,,,,,,,,,,,,,,,,,,,,,,,,,,,,,,,,,,,,,,return,7.065000057,GORDON,FALSE,,,,,,,44,gorrion,Spanish,Sounds/spa_gorrion.mp3,2020-06-24_18h00.02.190,TranslationElicitation_eng-prolific-spa,3.2.4,Win32,60,5e71e92d7c127310819224be,7.065000057,1,0,98,40,1,97
,,,,,,,,,,,,,,,,,,,,,,,,,,,,,,,,,,,,,,,,,,,,,,,,,,,44,gorrion,Spanish,Sounds/spa_gorrion.mp3,2020-06-24_18h00.02.190,TranslationElicitation_eng-prolific-spa,3.2.4,Win32,60,5e71e92d7c127310819224be,,1,0,98,40,1,97
,,,,,,,,,,,,,,,,,,,,,,,,,,,,,,,,,,,,,,,,,s,1.732000113,S,FALSE,,,,,,,93,sol,Spanish,Sounds/spa_sol.mp3,2020-06-24_18h00.02.190,TranslationElicitation_eng-prolific-spa,3.2.4,Win32,60,5e71e92d7c127310819224be,,1,0,98,88,1,97
,,,,,,,,,,,,,,,,,,,,,,,,,,,,,,,,,,,,,,,,,u,1.899000168,SU,FALSE,,,,,,,93,sol,Spanish,Sounds/spa_sol.mp3,2020-06-24_18h00.02.190,TranslationElicitation_eng-prolific-spa,3.2.4,Win32,60,5e71e92d7c127310819224be,,1,0,98,88,1,97
,,,,,,,,,,,,,,,,,,,,,,,,,,,,,,,,,,,,,,,,,n,2.18200016,SUN,FALSE,,,,,,,93,sol,Spanish,Sounds/spa_sol.mp3,2020-06-24_18h00.02.190,TranslationElicitation_eng-prolific-spa,3.2.4,Win32,60,5e71e92d7c127310819224be,,1,0,98,88,1,97
,,,,,,,,,,,,,,,,,,,,,,,,,,,,,,,,,,,,,,,,,return,3.065000057,SUN,FALSE,,,,,,,93,sol,Spanish,Sounds/spa_sol.mp3,2020-06-24_18h00.02.190,TranslationElicitation_eng-prolific-spa,3.2.4,Win32,60,5e71e92d7c127310819224be,3.065000057,1,0,98,88,1,97
,,,,,,,,,,,,,,,,,,,,,,,,,,,,,,,,,,,,,,,,,,,,,,,,,,,93,sol,Spanish,Sounds/spa_sol.mp3,2020-06-24_18h00.02.190,TranslationElicitation_eng-prolific-spa,3.2.4,Win32,60,5e71e92d7c127310819224be,,1,0,98,88,1,97
,,,,,,,,,,,,,,,,,,,,,,,,,,,,,,,,,,,,,,,,,l,1.315999985,L,FALSE,,,,,,,87,platano,Spanish,Sounds/spa_platano.mp3,2020-06-24_18h00.02.190,TranslationElicitation_eng-prolific-spa,3.2.4,Win32,60,5e71e92d7c127310819224be,,1,0,98,82,1,97
,,,,,,,,,,,,,,,,,,,,,,,,,,,,,,,,,,,,,,,,,a,1.44900012,LA,FALSE,,,,,,,87,platano,Spanish,Sounds/spa_platano.mp3,2020-06-24_18h00.02.190,TranslationElicitation_eng-prolific-spa,3.2.4,Win32,60,5e71e92d7c127310819224be,,1,0,98,82,1,97
,,,,,,,,,,,,,,,,,,,,,,,,,,,,,,,,,,,,,,,,,t,1.535000086,LAT,FALSE,,,,,,,87,platano,Spanish,Sounds/spa_platano.mp3,2020-06-24_18h00.02.190,TranslationElicitation_eng-prolific-spa,3.2.4,Win32,60,5e71e92d7c127310819224be,,1,0,98,82,1,97
,,,,,,,,,,,,,,,,,,,,,,,,,,,,,,,,,,,,,,,,,i,2.131999969,LATI,FALSE,,,,,,,87,platano,Spanish,Sounds/spa_platano.mp3,2020-06-24_18h00.02.190,TranslationElicitation_eng-prolific-spa,3.2.4,Win32,60,5e71e92d7c127310819224be,,1,0,98,82,1,97
,,,,,,,,,,,,,,,,,,,,,,,,,,,,,,,,,,,,,,,,,n,2.25,LATIN,FALSE,,,,,,,87,platano,Spanish,Sounds/spa_platano.mp3,2020-06-24_18h00.02.190,TranslationElicitation_eng-prolific-spa,3.2.4,Win32,60,5e71e92d7c127310819224be,,1,0,98,82,1,97
,,,,,,,,,,,,,,,,,,,,,,,,,,,,,,,,,,,,,,,,,return,2.541000128,LATIN,FALSE,,,,,,,87,platano,Spanish,Sounds/spa_platano.mp3,2020-06-24_18h00.02.190,TranslationElicitation_eng-prolific-spa,3.2.4,Win32,60,5e71e92d7c127310819224be,2.541000128,1,0,98,82,1,97
,,,,,,,,,,,,,,,,,,,,,,,,,,,,,,,,,,,,,,,,,,,,,,,,,,,87,platano,Spanish,Sounds/spa_platano.mp3,2020-06-24_18h00.02.190,TranslationElicitation_eng-prolific-spa,3.2.4,Win32,60,5e71e92d7c127310819224be,,1,0,98,82,1,97
,,,,,,,,,,,,,,,,,,,,,,,,,,,,,,,,,,,,,,,,,p,2.615999937,P,FALSE,,,,,,,10,botella,Spanish,Sounds/spa_botella.mp3,2020-06-24_18h00.02.190,TranslationElicitation_eng-prolific-spa,3.2.4,Win32,60,5e71e92d7c127310819224be,,1,0,98,8,1,97
,,,,,,,,,,,,,,,,,,,,,,,,,,,,,,,,,,,,,,,,,o,2.747999907,PO,FALSE,,,,,,,10,botella,Spanish,Sounds/spa_botella.mp3,2020-06-24_18h00.02.190,TranslationElicitation_eng-prolific-spa,3.2.4,Win32,60,5e71e92d7c127310819224be,,1,0,98,8,1,97
,,,,,,,,,,,,,,,,,,,,,,,,,,,,,,,,,,,,,,,,,t,3.247999907,POT,FALSE,,,,,,,10,botella,Spanish,Sounds/spa_botella.mp3,2020-06-24_18h00.02.190,TranslationElicitation_eng-prolific-spa,3.2.4,Win32,60,5e71e92d7c127310819224be,,1,0,98,8,1,97
,,,,,,,,,,,,,,,,,,,,,,,,,,,,,,,,,,,,,,,,,a,3.497999907,POTA,FALSE,,,,,,,10,botella,Spanish,Sounds/spa_botella.mp3,2020-06-24_18h00.02.190,TranslationElicitation_eng-prolific-spa,3.2.4,Win32,60,5e71e92d7c127310819224be,,1,0,98,8,1,97
,,,,,,,,,,,,,,,,,,,,,,,,,,,,,,,,,,,,,,,,,t,3.616999865,POTAT,FALSE,,,,,,,10,botella,Spanish,Sounds/spa_botella.mp3,2020-06-24_18h00.02.190,TranslationElicitation_eng-prolific-spa,3.2.4,Win32,60,5e71e92d7c127310819224be,,1,0,98,8,1,97
,,,,,,,,,,,,,,,,,,,,,,,,,,,,,,,,,,,,,,,,,p,3.931999922,POTATP,FALSE,,,,,,,10,botella,Spanish,Sounds/spa_botella.mp3,2020-06-24_18h00.02.190,TranslationElicitation_eng-prolific-spa,3.2.4,Win32,60,5e71e92d7c127310819224be,,1,0,98,8,1,97
,,,,,,,,,,,,,,,,,,,,,,,,,,,,,,,,,,,,,,,,,return,4.200000048,POTATP,FALSE,,,,,,,10,botella,Spanish,Sounds/spa_botella.mp3,2020-06-24_18h00.02.190,TranslationElicitation_eng-prolific-spa,3.2.4,Win32,60,5e71e92d7c127310819224be,4.200000048,1,0,98,8,1,97
,,,,,,,,,,,,,,,,,,,,,,,,,,,,,,,,,,,,,,,,,,,,,,,,,,,10,botella,Spanish,Sounds/spa_botella.mp3,2020-06-24_18h00.02.190,TranslationElicitation_eng-prolific-spa,3.2.4,Win32,60,5e71e92d7c127310819224be,,1,0,98,8,1,97
,,,,,,,,,,,,,,,,,,,,,,,,,,,,,,,,,,,,,,,,,t,2.414999962,T,FALSE,,,,,,,100,toro,Spanish,Sounds/spa_toro.mp3,2020-06-24_18h00.02.190,TranslationElicitation_eng-prolific-spa,3.2.4,Win32,60,5e71e92d7c127310819224be,,1,0,98,94,1,97
,,,,,,,,,,,,,,,,,,,,,,,,,,,,,,,,,,,,,,,,,o,2.582000017,TO,FALSE,,,,,,,100,toro,Spanish,Sounds/spa_toro.mp3,2020-06-24_18h00.02.190,TranslationElicitation_eng-prolific-spa,3.2.4,Win32,60,5e71e92d7c127310819224be,,1,0,98,94,1,97
,,,,,,,,,,,,,,,,,,,,,,,,,,,,,,,,,,,,,,,,,r,2.799000025,TOR,FALSE,,,,,,,100,toro,Spanish,Sounds/spa_toro.mp3,2020-06-24_18h00.02.190,TranslationElicitation_eng-prolific-spa,3.2.4,Win32,60,5e71e92d7c127310819224be,,1,0,98,94,1,97
,,,,,,,,,,,,,,,,,,,,,,,,,,,,,,,,,,,,,,,,,r,2.948999882,TORR,FALSE,,,,,,,100,toro,Spanish,Sounds/spa_toro.mp3,2020-06-24_18h00.02.190,TranslationElicitation_eng-prolific-spa,3.2.4,Win32,60,5e71e92d7c127310819224be,,1,0,98,94,1,97
,,,,,,,,,,,,,,,,,,,,,,,,,,,,,,,,,,,,,,,,,o,3.049000025,TORRO,FALSE,,,,,,,100,toro,Spanish,Sounds/spa_toro.mp3,2020-06-24_18h00.02.190,TranslationElicitation_eng-prolific-spa,3.2.4,Win32,60,5e71e92d7c127310819224be,,1,0,98,94,1,97
,,,,,,,,,,,,,,,,,,,,,,,,,,,,,,,,,,,,,,,,,return,3.697999954,TORRO,FALSE,,,,,,,100,toro,Spanish,Sounds/spa_toro.mp3,2020-06-24_18h00.02.190,TranslationElicitation_eng-prolific-spa,3.2.4,Win32,60,5e71e92d7c127310819224be,3.697999954,1,0,98,94,1,97
,,,,,,,,,,,,,,,,,,,,,,,,,,,,,,,,,,,,,,,,,,,,,,,,,,,100,toro,Spanish,Sounds/spa_toro.mp3,2020-06-24_18h00.02.190,TranslationElicitation_eng-prolific-spa,3.2.4,Win32,60,5e71e92d7c127310819224be,,1,0,98,94,1,97
,,,,,,,,,,,,,,,,,,,,,,,,,,,,,,,,,,,,,,,,,b,1.482000113,B,FALSE,,,,,,,3,barco,Spanish,Sounds/spa_barco.mp3,2020-06-24_18h00.02.190,TranslationElicitation_eng-prolific-spa,3.2.4,Win32,60,5e71e92d7c127310819224be,,1,0,98,1,1,97
,,,,,,,,,,,,,,,,,,,,,,,,,,,,,,,,,,,,,,,,,a,1.730999947,BA,FALSE,,,,,,,3,barco,Spanish,Sounds/spa_barco.mp3,2020-06-24_18h00.02.190,TranslationElicitation_eng-prolific-spa,3.2.4,Win32,60,5e71e92d7c127310819224be,,1,0,98,1,1,97
,,,,,,,,,,,,,,,,,,,,,,,,,,,,,,,,,,,,,,,,,r,1.832000017,BAR,FALSE,,,,,,,3,barco,Spanish,Sounds/spa_barco.mp3,2020-06-24_18h00.02.190,TranslationElicitation_eng-prolific-spa,3.2.4,Win32,60,5e71e92d7c127310819224be,,1,0,98,1,1,97
,,,,,,,,,,,,,,,,,,,,,,,,,,,,,,,,,,,,,,,,,c,2.167999983,BARC,FALSE,,,,,,,3,barco,Spanish,Sounds/spa_barco.mp3,2020-06-24_18h00.02.190,TranslationElicitation_eng-prolific-spa,3.2.4,Win32,60,5e71e92d7c127310819224be,,1,0,98,1,1,97
,,,,,,,,,,,,,,,,,,,,,,,,,,,,,,,,,,,,,,,,,o,2.34800005,BARCO,FALSE,,,,,,,3,barco,Spanish,Sounds/spa_barco.mp3,2020-06-24_18h00.02.190,TranslationElicitation_eng-prolific-spa,3.2.4,Win32,60,5e71e92d7c127310819224be,,1,0,98,1,1,97
,,,,,,,,,,,,,,,,,,,,,,,,,,,,,,,,,,,,,,,,,d,2.584000111,BARCOD,FALSE,,,,,,,3,barco,Spanish,Sounds/spa_barco.mp3,2020-06-24_18h00.02.190,TranslationElicitation_eng-prolific-spa,3.2.4,Win32,60,5e71e92d7c127310819224be,,1,0,98,1,1,97
,,,,,,,,,,,,,,,,,,,,,,,,,,,,,,,,,,,,,,,,,e,2.657999992,BARCODE,FALSE,,,,,,,3,barco,Spanish,Sounds/spa_barco.mp3,2020-06-24_18h00.02.190,TranslationElicitation_eng-prolific-spa,3.2.4,Win32,60,5e71e92d7c127310819224be,,1,0,98,1,1,97
,,,,,,,,,,,,,,,,,,,,,,,,,,,,,,,,,,,,,,,,,return,2.914000034,BARCODE,FALSE,,,,,,,3,barco,Spanish,Sounds/spa_barco.mp3,2020-06-24_18h00.02.190,TranslationElicitation_eng-prolific-spa,3.2.4,Win32,60,5e71e92d7c127310819224be,2.914000034,1,0,98,1,1,97
,,,,,,,,,,,,,,,,,,,,,,,,,,,,,,,,,,,,,,,,,,,,,,,,,,,3,barco,Spanish,Sounds/spa_barco.mp3,2020-06-24_18h00.02.190,TranslationElicitation_eng-prolific-spa,3.2.4,Win32,60,5e71e92d7c127310819224be,,1,0,98,1,1,97
,,,,,,,,,,,,,,,,,,,,,,,,,,,,,,,,,,,,,,,,,b,2.796000004,B,FALSE,,,,,,,8,bol,Spanish,Sounds/spa_bol.mp3,2020-06-24_18h00.02.190,TranslationElicitation_eng-prolific-spa,3.2.4,Win32,60,5e71e92d7c127310819224be,,1,0,98,6,1,97
,,,,,,,,,,,,,,,,,,,,,,,,,,,,,,,,,,,,,,,,,a,3.279000044,BA,FALSE,,,,,,,8,bol,Spanish,Sounds/spa_bol.mp3,2020-06-24_18h00.02.190,TranslationElicitation_eng-prolific-spa,3.2.4,Win32,60,5e71e92d7c127310819224be,,1,0,98,6,1,97
,,,,,,,,,,,,,,,,,,,,,,,,,,,,,,,,,,,,,,,,,l,3.678999901,BAL,FALSE,,,,,,,8,bol,Spanish,Sounds/spa_bol.mp3,2020-06-24_18h00.02.190,TranslationElicitation_eng-prolific-spa,3.2.4,Win32,60,5e71e92d7c127310819224be,,1,0,98,6,1,97
,,,,,,,,,,,,,,,,,,,,,,,,,,,,,,,,,,,,,,,,,l,3.845999956,BALL,FALSE,,,,,,,8,bol,Spanish,Sounds/spa_bol.mp3,2020-06-24_18h00.02.190,TranslationElicitation_eng-prolific-spa,3.2.4,Win32,60,5e71e92d7c127310819224be,,1,0,98,6,1,97
,,,,,,,,,,,,,,,,,,,,,,,,,,,,,,,,,,,,,,,,,return,4.927999973,BALL,FALSE,,,,,,,8,bol,Spanish,Sounds/spa_bol.mp3,2020-06-24_18h00.02.190,TranslationElicitation_eng-prolific-spa,3.2.4,Win32,60,5e71e92d7c127310819224be,4.927999973,1,0,98,6,1,97
,,,,,,,,,,,,,,,,,,,,,,,,,,,,,,,,,,,,,,,,,,,,,,,,,,,8,bol,Spanish,Sounds/spa_bol.mp3,2020-06-24_18h00.02.190,TranslationElicitation_eng-prolific-spa,3.2.4,Win32,60,5e71e92d7c127310819224be,,1,0,98,6,1,97
,,,,,,,,,,,,,,,,,,,,,,,,,,,,,,,,,,,,,,,,,b,2.133000135,B,FALSE,,,,,,,81,pelota,Spanish,Sounds/spa_pelota.mp3,2020-06-24_18h00.02.190,TranslationElicitation_eng-prolific-spa,3.2.4,Win32,60,5e71e92d7c127310819224be,,1,0,98,76,1,97
,,,,,,,,,,,,,,,,,,,,,,,,,,,,,,,,,,,,,,,,,i,2.21600008,BI,FALSE,,,,,,,81,pelota,Spanish,Sounds/spa_pelota.mp3,2020-06-24_18h00.02.190,TranslationElicitation_eng-prolific-spa,3.2.4,Win32,60,5e71e92d7c127310819224be,,1,0,98,76,1,97
,,,,,,,,,,,,,,,,,,,,,,,,,,,,,,,,,,,,,,,,,k,2.416000128,BIK,FALSE,,,,,,,81,pelota,Spanish,Sounds/spa_pelota.mp3,2020-06-24_18h00.02.190,TranslationElicitation_eng-prolific-spa,3.2.4,Win32,60,5e71e92d7c127310819224be,,1,0,98,76,1,97
,,,,,,,,,,,,,,,,,,,,,,,,,,,,,,,,,,,,,,,,,e,2.532000065,BIKE,FALSE,,,,,,,81,pelota,Spanish,Sounds/spa_pelota.mp3,2020-06-24_18h00.02.190,TranslationElicitation_eng-prolific-spa,3.2.4,Win32,60,5e71e92d7c127310819224be,,1,0,98,76,1,97
,,,,,,,,,,,,,,,,,,,,,,,,,,,,,,,,,,,,,,,,,return,2.69900012,BIKE,FALSE,,,,,,,81,pelota,Spanish,Sounds/spa_pelota.mp3,2020-06-24_18h00.02.190,TranslationElicitation_eng-prolific-spa,3.2.4,Win32,60,5e71e92d7c127310819224be,2.69900012,1,0,98,76,1,97
,,,,,,,,,,,,,,,,,,,,,,,,,,,,,,,,,,,,,,,,,,,,,,,,,,,81,pelota,Spanish,Sounds/spa_pelota.mp3,2020-06-24_18h00.02.190,TranslationElicitation_eng-prolific-spa,3.2.4,Win32,60,5e71e92d7c127310819224be,,1,0,98,76,1,97
,,,,,,,,,,,,,,,,,,,,,,,,,,,,,,,,,,,,,,,,,t,2.281999826,T,FALSE,,,,,,,53,leche,Spanish,Sounds/spa_leche.mp3,2020-06-24_18h00.02.190,TranslationElicitation_eng-prolific-spa,3.2.4,Win32,60,5e71e92d7c127310819224be,,1,0,98,49,1,97
,,,,,,,,,,,,,,,,,,,,,,,,,,,,,,,,,,,,,,,,,e,2.531999826,TE,FALSE,,,,,,,53,leche,Spanish,Sounds/spa_leche.mp3,2020-06-24_18h00.02.190,TranslationElicitation_eng-prolific-spa,3.2.4,Win32,60,5e71e92d7c127310819224be,,1,0,98,49,1,97
,,,,,,,,,,,,,,,,,,,,,,,,,,,,,,,,,,,,,,,,,a,2.61500001,TEA,FALSE,,,,,,,53,leche,Spanish,Sounds/spa_leche.mp3,2020-06-24_18h00.02.190,TranslationElicitation_eng-prolific-spa,3.2.4,Win32,60,5e71e92d7c127310819224be,,1,0,98,49,1,97
,,,,,,,,,,,,,,,,,,,,,,,,,,,,,,,,,,,,,,,,,return,2.730999947,TEA,FALSE,,,,,,,53,leche,Spanish,Sounds/spa_leche.mp3,2020-06-24_18h00.02.190,TranslationElicitation_eng-prolific-spa,3.2.4,Win32,60,5e71e92d7c127310819224be,2.730999947,1,0,98,49,1,97
,,,,,,,,,,,,,,,,,,,,,,,,,,,,,,,,,,,,,,,,,,,,,,,,,,,53,leche,Spanish,Sounds/spa_leche.mp3,2020-06-24_18h00.02.190,TranslationElicitation_eng-prolific-spa,3.2.4,Win32,60,5e71e92d7c127310819224be,,1,0,98,49,1,97
,,,,,,,,,,,,,,,,,,,,,,,,,,,,,,,,,,,,,,,,,d,2.897000074,D,FALSE,,,,,,,38,frambuesa,Spanish,Sounds/spa_frambuesa.mp3,2020-06-24_18h00.02.190,TranslationElicitation_eng-prolific-spa,3.2.4,Win32,60,5e71e92d7c127310819224be,,1,0,98,34,1,97
,,,,,,,,,,,,,,,,,,,,,,,,,,,,,,,,,,,,,,,,,a,3.050000191,DA,FALSE,,,,,,,38,frambuesa,Spanish,Sounds/spa_frambuesa.mp3,2020-06-24_18h00.02.190,TranslationElicitation_eng-prolific-spa,3.2.4,Win32,60,5e71e92d7c127310819224be,,1,0,98,34,1,97
,,,,,,,,,,,,,,,,,,,,,,,,,,,,,,,,,,,,,,,,,n,3.430000067,DAN,FALSE,,,,,,,38,frambuesa,Spanish,Sounds/spa_frambuesa.mp3,2020-06-24_18h00.02.190,TranslationElicitation_eng-prolific-spa,3.2.4,Win32,60,5e71e92d7c127310819224be,,1,0,98,34,1,97
,,,,,,,,,,,,,,,,,,,,,,,,,,,,,,,,,,,,,,,,,c,3.597000122,DANC,FALSE,,,,,,,38,frambuesa,Spanish,Sounds/spa_frambuesa.mp3,2020-06-24_18h00.02.190,TranslationElicitation_eng-prolific-spa,3.2.4,Win32,60,5e71e92d7c127310819224be,,1,0,98,34,1,97
,,,,,,,,,,,,,,,,,,,,,,,,,,,,,,,,,,,,,,,,,e,3.713000059,DANCE,FALSE,,,,,,,38,frambuesa,Spanish,Sounds/spa_frambuesa.mp3,2020-06-24_18h00.02.190,TranslationElicitation_eng-prolific-spa,3.2.4,Win32,60,5e71e92d7c127310819224be,,1,0,98,34,1,97
,,,,,,,,,,,,,,,,,,,,,,,,,,,,,,,,,,,,,,,,,return,3.796000004,DANCE,FALSE,,,,,,,38,frambuesa,Spanish,Sounds/spa_frambuesa.mp3,2020-06-24_18h00.02.190,TranslationElicitation_eng-prolific-spa,3.2.4,Win32,60,5e71e92d7c127310819224be,3.796000004,1,0,98,34,1,97
,,,,,,,,,,,,,,,,,,,,,,,,,,,,,,,,,,,,,,,,,,,,,,,,,,,38,frambuesa,Spanish,Sounds/spa_frambuesa.mp3,2020-06-24_18h00.02.190,TranslationElicitation_eng-prolific-spa,3.2.4,Win32,60,5e71e92d7c127310819224be,,1,0,98,34,1,97
,,,,,,,,,,,,,,,,,,,,,,,,,,,,,,,,,,,,,,,,,b,2.317000151,B,FALSE,,,,,,,90,pollo,Spanish,Sounds/spa_pollo.mp3,2020-06-24_18h00.02.190,TranslationElicitation_eng-prolific-spa,3.2.4,Win32,60,5e71e92d7c127310819224be,,1,0,98,85,1,97
,,,,,,,,,,,,,,,,,,,,,,,,,,,,,,,,,,,,,,,,,e,2.452000141,BE,FALSE,,,,,,,90,pollo,Spanish,Sounds/spa_pollo.mp3,2020-06-24_18h00.02.190,TranslationElicitation_eng-prolific-spa,3.2.4,Win32,60,5e71e92d7c127310819224be,,1,0,98,85,1,97
,,,,,,,,,,,,,,,,,,,,,,,,,,,,,,,,,,,,,,,,,c,3.032999992,BEC,FALSE,,,,,,,90,pollo,Spanish,Sounds/spa_pollo.mp3,2020-06-24_18h00.02.190,TranslationElicitation_eng-prolific-spa,3.2.4,Win32,60,5e71e92d7c127310819224be,,1,0,98,85,1,97
,,,,,,,,,,,,,,,,,,,,,,,,,,,,,,,,,,,,,,,,,backspace,3.532000065,BE,TRUE,,,,,,,90,pollo,Spanish,Sounds/spa_pollo.mp3,2020-06-24_18h00.02.190,TranslationElicitation_eng-prolific-spa,3.2.4,Win32,60,5e71e92d7c127310819224be,,1,0,98,85,1,97
,,,,,,,,,,,,,,,,,,,,,,,,,,,,,,,,,,,,,,,,,a,3.69900012,BEA,TRUE,,,,,,,90,pollo,Spanish,Sounds/spa_pollo.mp3,2020-06-24_18h00.02.190,TranslationElicitation_eng-prolific-spa,3.2.4,Win32,60,5e71e92d7c127310819224be,,1,0,98,85,1,97
,,,,,,,,,,,,,,,,,,,,,,,,,,,,,,,,,,,,,,,,,c,3.784000158,BEAC,TRUE,,,,,,,90,pollo,Spanish,Sounds/spa_pollo.mp3,2020-06-24_18h00.02.190,TranslationElicitation_eng-prolific-spa,3.2.4,Win32,60,5e71e92d7c127310819224be,,1,0,98,85,1,97
,,,,,,,,,,,,,,,,,,,,,,,,,,,,,,,,,,,,,,,,,h,3.93200016,BEACH,TRUE,,,,,,,90,pollo,Spanish,Sounds/spa_pollo.mp3,2020-06-24_18h00.02.190,TranslationElicitation_eng-prolific-spa,3.2.4,Win32,60,5e71e92d7c127310819224be,,1,0,98,85,1,97
,,,,,,,,,,,,,,,,,,,,,,,,,,,,,,,,,,,,,,,,,return,4.215000153,BEACH,TRUE,,,,,,,90,pollo,Spanish,Sounds/spa_pollo.mp3,2020-06-24_18h00.02.190,TranslationElicitation_eng-prolific-spa,3.2.4,Win32,60,5e71e92d7c127310819224be,4.215000153,1,0,98,85,1,97
,,,,,,,,,,,,,,,,,,,,,,,,,,,,,,,,,,,,,,,,,,,,,,,,,,,90,pollo,Spanish,Sounds/spa_pollo.mp3,2020-06-24_18h00.02.190,TranslationElicitation_eng-prolific-spa,3.2.4,Win32,60,5e71e92d7c127310819224be,,1,0,98,85,1,97
,,,,,,,,,,,,,,,,,,,,,,,,,,,,,,,,,,,,,,,,,h,1.450999975,H,FALSE,,,,,,,63,mesa,Spanish,Sounds/spa_mesa.mp3,2020-06-24_18h00.02.190,TranslationElicitation_eng-prolific-spa,3.2.4,Win32,60,5e71e92d7c127310819224be,,1,0,98,59,1,97
,,,,,,,,,,,,,,,,,,,,,,,,,,,,,,,,,,,,,,,,,o,1.648999929,HO,FALSE,,,,,,,63,mesa,Spanish,Sounds/spa_mesa.mp3,2020-06-24_18h00.02.190,TranslationElicitation_eng-prolific-spa,3.2.4,Win32,60,5e71e92d7c127310819224be,,1,0,98,59,1,97
,,,,,,,,,,,,,,,,,,,,,,,,,,,,,,,,,,,,,,,,,u,1.766000032,HOU,FALSE,,,,,,,63,mesa,Spanish,Sounds/spa_mesa.mp3,2020-06-24_18h00.02.190,TranslationElicitation_eng-prolific-spa,3.2.4,Win32,60,5e71e92d7c127310819224be,,1,0,98,59,1,97
,,,,,,,,,,,,,,,,,,,,,,,,,,,,,,,,,,,,,,,,,s,1.799000025,HOUS,FALSE,,,,,,,63,mesa,Spanish,Sounds/spa_mesa.mp3,2020-06-24_18h00.02.190,TranslationElicitation_eng-prolific-spa,3.2.4,Win32,60,5e71e92d7c127310819224be,,1,0,98,59,1,97
,,,,,,,,,,,,,,,,,,,,,,,,,,,,,,,,,,,,,,,,,e,1.931999922,HOUSE,FALSE,,,,,,,63,mesa,Spanish,Sounds/spa_mesa.mp3,2020-06-24_18h00.02.190,TranslationElicitation_eng-prolific-spa,3.2.4,Win32,60,5e71e92d7c127310819224be,,1,0,98,59,1,97
,,,,,,,,,,,,,,,,,,,,,,,,,,,,,,,,,,,,,,,,,return,2.148000002,HOUSE,FALSE,,,,,,,63,mesa,Spanish,Sounds/spa_mesa.mp3,2020-06-24_18h00.02.190,TranslationElicitation_eng-prolific-spa,3.2.4,Win32,60,5e71e92d7c127310819224be,2.148000002,1,0,98,59,1,97
,,,,,,,,,,,,,,,,,,,,,,,,,,,,,,,,,,,,,,,,,,,,,,,,,,,63,mesa,Spanish,Sounds/spa_mesa.mp3,2020-06-24_18h00.02.190,TranslationElicitation_eng-prolific-spa,3.2.4,Win32,60,5e71e92d7c127310819224be,,1,0,98,59,1,97
,,,,,,,,,,,,,,,,,,,,,,,,,,,,,,,,,,,,,,,,,g,2.415999889,G,FALSE,,,,,,,95,tenedor,Spanish,Sounds/spa_tenedor.mp3,2020-06-24_18h00.02.190,TranslationElicitation_eng-prolific-spa,3.2.4,Win32,60,5e71e92d7c127310819224be,,1,0,98,90,1,97
,,,,,,,,,,,,,,,,,,,,,,,,,,,,,,,,,,,,,,,,,o,2.633999825,GO,FALSE,,,,,,,95,tenedor,Spanish,Sounds/spa_tenedor.mp3,2020-06-24_18h00.02.190,TranslationElicitation_eng-prolific-spa,3.2.4,Win32,60,5e71e92d7c127310819224be,,1,0,98,90,1,97
,,,,,,,,,,,,,,,,,,,,,,,,,,,,,,,,,,,,,,,,,o,2.815999985,GOO,FALSE,,,,,,,95,tenedor,Spanish,Sounds/spa_tenedor.mp3,2020-06-24_18h00.02.190,TranslationElicitation_eng-prolific-spa,3.2.4,Win32,60,5e71e92d7c127310819224be,,1,0,98,90,1,97
,,,,,,,,,,,,,,,,,,,,,,,,,,,,,,,,,,,,,,,,,backspace,3.181999922,GO,TRUE,,,,,,,95,tenedor,Spanish,Sounds/spa_tenedor.mp3,2020-06-24_18h00.02.190,TranslationElicitation_eng-prolific-spa,3.2.4,Win32,60,5e71e92d7c127310819224be,,1,0,98,90,1,97
,,,,,,,,,,,,,,,,,,,,,,,,,,,,,,,,,,,,,,,,,backspace,3.335000038,G,TRUE,,,,,,,95,tenedor,Spanish,Sounds/spa_tenedor.mp3,2020-06-24_18h00.02.190,TranslationElicitation_eng-prolific-spa,3.2.4,Win32,60,5e71e92d7c127310819224be,,1,0,98,90,1,97
,,,,,,,,,,,,,,,,,,,,,,,,,,,,,,,,,,,,,,,,,backspace,3.531999826,,TRUE,,,,,,,95,tenedor,Spanish,Sounds/spa_tenedor.mp3,2020-06-24_18h00.02.190,TranslationElicitation_eng-prolific-spa,3.2.4,Win32,60,5e71e92d7c127310819224be,,1,0,98,90,1,97
,,,,,,,,,,,,,,,,,,,,,,,,,,,,,,,,,,,,,,,,,v,3.849999905,V,TRUE,,,,,,,95,tenedor,Spanish,Sounds/spa_tenedor.mp3,2020-06-24_18h00.02.190,TranslationElicitation_eng-prolific-spa,3.2.4,Win32,60,5e71e92d7c127310819224be,,1,0,98,90,1,97
,,,,,,,,,,,,,,,,,,,,,,,,,,,,,,,,,,,,,,,,,e,4.082000017,VE,TRUE,,,,,,,95,tenedor,Spanish,Sounds/spa_tenedor.mp3,2020-06-24_18h00.02.190,TranslationElicitation_eng-prolific-spa,3.2.4,Win32,60,5e71e92d7c127310819224be,,1,0,98,90,1,97
,,,,,,,,,,,,,,,,,,,,,,,,,,,,,,,,,,,,,,,,,r,4.181999922,VER,TRUE,,,,,,,95,tenedor,Spanish,Sounds/spa_tenedor.mp3,2020-06-24_18h00.02.190,TranslationElicitation_eng-prolific-spa,3.2.4,Win32,60,5e71e92d7c127310819224be,,1,0,98,90,1,97
,,,,,,,,,,,,,,,,,,,,,,,,,,,,,,,,,,,,,,,,,y,4.281999826,VERY,TRUE,,,,,,,95,tenedor,Spanish,Sounds/spa_tenedor.mp3,2020-06-24_18h00.02.190,TranslationElicitation_eng-prolific-spa,3.2.4,Win32,60,5e71e92d7c127310819224be,,1,0,98,90,1,97
,,,,,,,,,,,,,,,,,,,,,,,,,,,,,,,,,,,,,,,,,space,4.381999969,VERY ,TRUE,,,,,,,95,tenedor,Spanish,Sounds/spa_tenedor.mp3,2020-06-24_18h00.02.190,TranslationElicitation_eng-prolific-spa,3.2.4,Win32,60,5e71e92d7c127310819224be,,1,0,98,90,1,97
,,,,,,,,,,,,,,,,,,,,,,,,,,,,,,,,,,,,,,,,,g,4.481999874,VERY G,TRUE,,,,,,,95,tenedor,Spanish,Sounds/spa_tenedor.mp3,2020-06-24_18h00.02.190,TranslationElicitation_eng-prolific-spa,3.2.4,Win32,60,5e71e92d7c127310819224be,,1,0,98,90,1,97
,,,,,,,,,,,,,,,,,,,,,,,,,,,,,,,,,,,,,,,,,o,4.55099988,VERY GO,TRUE,,,,,,,95,tenedor,Spanish,Sounds/spa_tenedor.mp3,2020-06-24_18h00.02.190,TranslationElicitation_eng-prolific-spa,3.2.4,Win32,60,5e71e92d7c127310819224be,,1,0,98,90,1,97
,,,,,,,,,,,,,,,,,,,,,,,,,,,,,,,,,,,,,,,,,o,4.697999954,VERY GOO,TRUE,,,,,,,95,tenedor,Spanish,Sounds/spa_tenedor.mp3,2020-06-24_18h00.02.190,TranslationElicitation_eng-prolific-spa,3.2.4,Win32,60,5e71e92d7c127310819224be,,1,0,98,90,1,97
,,,,,,,,,,,,,,,,,,,,,,,,,,,,,,,,,,,,,,,,,d,4.815000057,VERY GOOD,TRUE,,,,,,,95,tenedor,Spanish,Sounds/spa_tenedor.mp3,2020-06-24_18h00.02.190,TranslationElicitation_eng-prolific-spa,3.2.4,Win32,60,5e71e92d7c127310819224be,,1,0,98,90,1,97
,,,,,,,,,,,,,,,,,,,,,,,,,,,,,,,,,,,,,,,,,return,4.930999994,VERY GOOD,TRUE,,,,,,,95,tenedor,Spanish,Sounds/spa_tenedor.mp3,2020-06-24_18h00.02.190,TranslationElicitation_eng-prolific-spa,3.2.4,Win32,60,5e71e92d7c127310819224be,4.930999994,1,0,98,90,1,97
,,,,,,,,,,,,,,,,,,,,,,,,,,,,,,,,,,,,,,,,,,,,,,,,,,,95,tenedor,Spanish,Sounds/spa_tenedor.mp3,2020-06-24_18h00.02.190,TranslationElicitation_eng-prolific-spa,3.2.4,Win32,60,5e71e92d7c127310819224be,,1,0,98,90,1,97
,,,,,,,,,,,,,,,,,,,,,,,,,,,,,,,,,,,,,,,,,t,5.813999891,T,FALSE,,,,,,,23,cerdo,Spanish,Sounds/spa_cerdo.mp3,2020-06-24_18h00.02.190,TranslationElicitation_eng-prolific-spa,3.2.4,Win32,60,5e71e92d7c127310819224be,,1,0,98,21,1,97
,,,,,,,,,,,,,,,,,,,,,,,,,,,,,,,,,,,,,,,,,h,5.980999947,TH,FALSE,,,,,,,23,cerdo,Spanish,Sounds/spa_cerdo.mp3,2020-06-24_18h00.02.190,TranslationElicitation_eng-prolific-spa,3.2.4,Win32,60,5e71e92d7c127310819224be,,1,0,98,21,1,97
,,,,,,,,,,,,,,,,,,,,,,,,,,,,,,,,,,,,,,,,,backspace,8.328999996,T,TRUE,,,,,,,23,cerdo,Spanish,Sounds/spa_cerdo.mp3,2020-06-24_18h00.02.190,TranslationElicitation_eng-prolific-spa,3.2.4,Win32,60,5e71e92d7c127310819224be,,1,0,98,21,1,97
,,,,,,,,,,,,,,,,,,,,,,,,,,,,,,,,,,,,,,,,,backspace,8.463000059,,TRUE,,,,,,,23,cerdo,Spanish,Sounds/spa_cerdo.mp3,2020-06-24_18h00.02.190,TranslationElicitation_eng-prolific-spa,3.2.4,Win32,60,5e71e92d7c127310819224be,,1,0,98,21,1,97
,,,,,,,,,,,,,,,,,,,,,,,,,,,,,,,,,,,,,,,,,t,9.595999956,T,TRUE,,,,,,,23,cerdo,Spanish,Sounds/spa_cerdo.mp3,2020-06-24_18h00.02.190,TranslationElicitation_eng-prolific-spa,3.2.4,Win32,60,5e71e92d7c127310819224be,,1,0,98,21,1,97
,,,,,,,,,,,,,,,,,,,,,,,,,,,,,,,,,,,,,,,,,h,9.779000044,TH,TRUE,,,,,,,23,cerdo,Spanish,Sounds/spa_cerdo.mp3,2020-06-24_18h00.02.190,TranslationElicitation_eng-prolific-spa,3.2.4,Win32,60,5e71e92d7c127310819224be,,1,0,98,21,1,97
,,,,,,,,,,,,,,,,,,,,,,,,,,,,,,,,,,,,,,,,,i,9.928999901,THI,TRUE,,,,,,,23,cerdo,Spanish,Sounds/spa_cerdo.mp3,2020-06-24_18h00.02.190,TranslationElicitation_eng-prolific-spa,3.2.4,Win32,60,5e71e92d7c127310819224be,,1,0,98,21,1,97
,,,,,,,,,,,,,,,,,,,,,,,,,,,,,,,,,,,,,,,,,n,10.079,THIN,TRUE,,,,,,,23,cerdo,Spanish,Sounds/spa_cerdo.mp3,2020-06-24_18h00.02.190,TranslationElicitation_eng-prolific-spa,3.2.4,Win32,60,5e71e92d7c127310819224be,,1,0,98,21,1,97
,,,,,,,,,,,,,,,,,,,,,,,,,,,,,,,,,,,,,,,,,return,10.329,THIN,TRUE,,,,,,,23,cerdo,Spanish,Sounds/spa_cerdo.mp3,2020-06-24_18h00.02.190,TranslationElicitation_eng-prolific-spa,3.2.4,Win32,60,5e71e92d7c127310819224be,10.329,1,0,98,21,1,97
,,,,,,,,,,,,,,,,,,,,,,,,,,,,,,,,,,,,,,,,,,,,,,,,,,,23,cerdo,Spanish,Sounds/spa_cerdo.mp3,2020-06-24_18h00.02.190,TranslationElicitation_eng-prolific-spa,3.2.4,Win32,60,5e71e92d7c127310819224be,,1,0,98,21,1,97
,,,,,,,,,,,,,,,,,,,,,,,,,,,,,,,,,,,,,,,,,n,3.332999945,N,FALSE,,,,,,,69,nariz,Spanish,Sounds/spa_nariz.mp3,2020-06-24_18h00.02.190,TranslationElicitation_eng-prolific-spa,3.2.4,Win32,60,5e71e92d7c127310819224be,,1,0,98,65,1,97
,,,,,,,,,,,,,,,,,,,,,,,,,,,,,,,,,,,,,,,,,i,3.514999866,NI,FALSE,,,,,,,69,nariz,Spanish,Sounds/spa_nariz.mp3,2020-06-24_18h00.02.190,TranslationElicitation_eng-prolific-spa,3.2.4,Win32,60,5e71e92d7c127310819224be,,1,0,98,65,1,97
,,,,,,,,,,,,,,,,,,,,,,,,,,,,,,,,,,,,,,,,,e,3.700000048,NIE,FALSE,,,,,,,69,nariz,Spanish,Sounds/spa_nariz.mp3,2020-06-24_18h00.02.190,TranslationElicitation_eng-prolific-spa,3.2.4,Win32,60,5e71e92d7c127310819224be,,1,0,98,65,1,97
,,,,,,,,,,,,,,,,,,,,,,,,,,,,,,,,,,,,,,,,,v,3.930999994,NIEV,FALSE,,,,,,,69,nariz,Spanish,Sounds/spa_nariz.mp3,2020-06-24_18h00.02.190,TranslationElicitation_eng-prolific-spa,3.2.4,Win32,60,5e71e92d7c127310819224be,,1,0,98,65,1,97
,,,,,,,,,,,,,,,,,,,,,,,,,,,,,,,,,,,,,,,,,e,4.047999859,NIEVE,FALSE,,,,,,,69,nariz,Spanish,Sounds/spa_nariz.mp3,2020-06-24_18h00.02.190,TranslationElicitation_eng-prolific-spa,3.2.4,Win32,60,5e71e92d7c127310819224be,,1,0,98,65,1,97
,,,,,,,,,,,,,,,,,,,,,,,,,,,,,,,,,,,,,,,,,return,4.247999907,NIEVE,FALSE,,,,,,,69,nariz,Spanish,Sounds/spa_nariz.mp3,2020-06-24_18h00.02.190,TranslationElicitation_eng-prolific-spa,3.2.4,Win32,60,5e71e92d7c127310819224be,4.247999907,1,0,98,65,1,97
,,,,,,,,,,,,,,,,,,,,,,,,,,,,,,,,,,,,,,,,,,,,,,,,,,,69,nariz,Spanish,Sounds/spa_nariz.mp3,2020-06-24_18h00.02.190,TranslationElicitation_eng-prolific-spa,3.2.4,Win32,60,5e71e92d7c127310819224be,,1,0,98,65,1,97
,,,,,,,,,,,,,,,,,,,,,,,,,,,,,,,,,,,,,,,,,d,2.798000097,D,FALSE,,,,,,,33,dedo,Spanish,Sounds/spa_dedo.mp3,2020-06-24_18h00.02.190,TranslationElicitation_eng-prolific-spa,3.2.4,Win32,60,5e71e92d7c127310819224be,,1,0,98,29,1,97
,,,,,,,,,,,,,,,,,,,,,,,,,,,,,,,,,,,,,,,,,i,2.914999962,DI,FALSE,,,,,,,33,dedo,Spanish,Sounds/spa_dedo.mp3,2020-06-24_18h00.02.190,TranslationElicitation_eng-prolific-spa,3.2.4,Win32,60,5e71e92d7c127310819224be,,1,0,98,29,1,97
,,,,,,,,,,,,,,,,,,,,,,,,,,,,,,,,,,,,,,,,,d,3.134000063,DID,FALSE,,,,,,,33,dedo,Spanish,Sounds/spa_dedo.mp3,2020-06-24_18h00.02.190,TranslationElicitation_eng-prolific-spa,3.2.4,Win32,60,5e71e92d7c127310819224be,,1,0,98,29,1,97
