consentKey.keys,consentKey.rt,languageL1Key.keys,languageL1Key.rt,languageL2,languageL2OralKey.keys,languageL2OralKey.rt,languageL2WrittenKey.keys,languageL2WrittenKey.rt,languageL3OralKey.keys,languageL3OralKey.rt,languageL3WrittenKey.keys,languageL3WrittenKey.rt,languageCatalanOralKey.keys,languageCatalanOralKey.rt,languageCatalanWrittenKey.keys,languageCatalanWrittenKey.rt,languageCatalanTimeKey.keys,languageCatalanTimeKey.rt,languageSpanishOralKey.keys,languageSpanishOralKey.rt,languageSpanishWrittenKey.keys,languageSpanishWrittenKey.rt,languageSpanishTimeKey.keys,languageSpanishTimeKey.rt,age,demoSexKey.keys,demoSexKey.rt,demoEducationKey.keys,demoEducationKey.rt,city,demoVisionKey.keys,demoVisionKey.rt,demoLanguageKey.keys,demoLanguageKey.rt,setupLocationKey.keys,setupLocationKey.rt,setupNoiseKey.keys,setupNoiseKey.rt,instructionsKeys.keys,instructionsKeys.rt,keyPressed,keyPressTime,inputText,error,trialsPracticeCatalan.thisRepN,trialsPracticeCatalan.thisTrialN,trialsPracticeCatalan.thisN,trialsPracticeCatalan.thisIndex,trialsPracticeCatalan.ran,trialsPracticeCatalan.order,trial_id,word,test_language,soundfile,date,expName,psychopyVersion,OS,frameRate,participant,trialOffset,trialsCatalan.thisRepN,trialsCatalan.thisTrialN,trialsCatalan.thisN,trialsCatalan.thisIndex,trialsCatalan.ran,trialsCatalan.order
space,4.76699996,e,5.951000214,,,,,,,,,,1,9.576000214,1,6.063000202,1,9.994000196,1,18.13100028,1,5.202000141,1,5.634000063,21,f,2.474000216,4,5.49600029,STRATFORD,y,5.436000109,n,2.359000206,1,3.358000278,2,6.884000063,space,23.4610002,space,6.332000017, ,FALSE,1,0,5,1,1,4,126,corona,Catalan,Sounds/cat_corona.mp3,2020-06-04_18h02.40.686,TranslationElicitation_eng-prolific,3.2.4,MacIntel,60,5e73ed268c8f27364de746c5,,,,,,,
,,,,,,,,,,,,,,,,,,,,,,,,,,,,,,,,,,,,,,,,,return,8.187000036, ,FALSE,1,0,5,1,1,4,126,corona,Catalan,Sounds/cat_corona.mp3,2020-06-04_18h02.40.686,TranslationElicitation_eng-prolific,3.2.4,MacIntel,60,5e73ed268c8f27364de746c5,8.187000036,,,,,,
,,,,,,,,,,,,,,,,,,,,,,,,,,,,,,,,,,,,,,,,,,,,,1,0,5,1,1,4,126,corona,Catalan,Sounds/cat_corona.mp3,2020-06-04_18h02.40.686,TranslationElicitation_eng-prolific,3.2.4,MacIntel,60,5e73ed268c8f27364de746c5,,,,,,,
,,,,,,,,,,,,,,,,,,,,,,,,,,,,,,,,,,,,,,,,,h,2.289999962,H,FALSE,1,0,5,3,1,4,159,onada,Catalan,Sounds/cat_onada.mp3,2020-06-04_18h02.40.686,TranslationElicitation_eng-prolific,3.2.4,MacIntel,60,5e73ed268c8f27364de746c5,,,,,,,
,,,,,,,,,,,,,,,,,,,,,,,,,,,,,,,,,,,,,,,,,backspace,3.77699995,,TRUE,1,0,5,3,1,4,159,onada,Catalan,Sounds/cat_onada.mp3,2020-06-04_18h02.40.686,TranslationElicitation_eng-prolific,3.2.4,MacIntel,60,5e73ed268c8f27364de746c5,,,,,,,
,,,,,,,,,,,,,,,,,,,,,,,,,,,,,,,,,,,,,,,,,h,12.51799989,H,TRUE,1,0,5,3,1,4,159,onada,Catalan,Sounds/cat_onada.mp3,2020-06-04_18h02.40.686,TranslationElicitation_eng-prolific,3.2.4,MacIntel,60,5e73ed268c8f27364de746c5,,,,,,,
,,,,,,,,,,,,,,,,,,,,,,,,,,,,,,,,,,,,,,,,,backspace,18.46600008,,TRUE,1,0,5,3,1,4,159,onada,Catalan,Sounds/cat_onada.mp3,2020-06-04_18h02.40.686,TranslationElicitation_eng-prolific,3.2.4,MacIntel,60,5e73ed268c8f27364de746c5,,,,,,,
,,,,,,,,,,,,,,,,,,,,,,,,,,,,,,,,,,,,,,,,,s,18.95000005,S,TRUE,1,0,5,3,1,4,159,onada,Catalan,Sounds/cat_onada.mp3,2020-06-04_18h02.40.686,TranslationElicitation_eng-prolific,3.2.4,MacIntel,60,5e73ed268c8f27364de746c5,,,,,,,
,,,,,,,,,,,,,,,,,,,,,,,,,,,,,,,,,,,,,,,,,backspace,19.58699989,,TRUE,1,0,5,3,1,4,159,onada,Catalan,Sounds/cat_onada.mp3,2020-06-04_18h02.40.686,TranslationElicitation_eng-prolific,3.2.4,MacIntel,60,5e73ed268c8f27364de746c5,,,,,,,
,,,,,,,,,,,,,,,,,,,,,,,,,,,,,,,,,,,,,,,,,c,20.06999993,C,TRUE,1,0,5,3,1,4,159,onada,Catalan,Sounds/cat_onada.mp3,2020-06-04_18h02.40.686,TranslationElicitation_eng-prolific,3.2.4,MacIntel,60,5e73ed268c8f27364de746c5,,,,,,,
,,,,,,,,,,,,,,,,,,,,,,,,,,,,,,,,,,,,,,,,,u,20.30500007,CU,TRUE,1,0,5,3,1,4,159,onada,Catalan,Sounds/cat_onada.mp3,2020-06-04_18h02.40.686,TranslationElicitation_eng-prolific,3.2.4,MacIntel,60,5e73ed268c8f27364de746c5,,,,,,,
,,,,,,,,,,,,,,,,,,,,,,,,,,,,,,,,,,,,,,,,,t,20.99000001,CUT,TRUE,1,0,5,3,1,4,159,onada,Catalan,Sounds/cat_onada.mp3,2020-06-04_18h02.40.686,TranslationElicitation_eng-prolific,3.2.4,MacIntel,60,5e73ed268c8f27364de746c5,,,,,,,
,,,,,,,,,,,,,,,,,,,,,,,,,,,,,,,,,,,,,,,,,e,21.4230001,CUTE,TRUE,1,0,5,3,1,4,159,onada,Catalan,Sounds/cat_onada.mp3,2020-06-04_18h02.40.686,TranslationElicitation_eng-prolific,3.2.4,MacIntel,60,5e73ed268c8f27364de746c5,,,,,,,
,,,,,,,,,,,,,,,,,,,,,,,,,,,,,,,,,,,,,,,,,return,21.79200006,CUTE,TRUE,1,0,5,3,1,4,159,onada,Catalan,Sounds/cat_onada.mp3,2020-06-04_18h02.40.686,TranslationElicitation_eng-prolific,3.2.4,MacIntel,60,5e73ed268c8f27364de746c5,21.79200006,,,,,,
,,,,,,,,,,,,,,,,,,,,,,,,,,,,,,,,,,,,,,,,,,,,,1,0,5,3,1,4,159,onada,Catalan,Sounds/cat_onada.mp3,2020-06-04_18h02.40.686,TranslationElicitation_eng-prolific,3.2.4,MacIntel,60,5e73ed268c8f27364de746c5,,,,,,,
,,,,,,,,,,,,,,,,,,,,,,,,,,,,,,,,,,,,,,,,,d,5.177999973,D,FALSE,1,0,5,4,1,4,179,tigre,Catalan,Sounds/cat_tigre.mp3,2020-06-04_18h02.40.686,TranslationElicitation_eng-prolific,3.2.4,MacIntel,60,5e73ed268c8f27364de746c5,,,,,,,
,,,,,,,,,,,,,,,,,,,,,,,,,,,,,,,,,,,,,,,,,e,7.651000023,DE,FALSE,1,0,5,4,1,4,179,tigre,Catalan,Sounds/cat_tigre.mp3,2020-06-04_18h02.40.686,TranslationElicitation_eng-prolific,3.2.4,MacIntel,60,5e73ed268c8f27364de746c5,,,,,,,
,,,,,,,,,,,,,,,,,,,,,,,,,,,,,,,,,,,,,,,,,l,7.819000006,DEL,FALSE,1,0,5,4,1,4,179,tigre,Catalan,Sounds/cat_tigre.mp3,2020-06-04_18h02.40.686,TranslationElicitation_eng-prolific,3.2.4,MacIntel,60,5e73ed268c8f27364de746c5,,,,,,,
,,,,,,,,,,,,,,,,,,,,,,,,,,,,,,,,,,,,,,,,,i,8.102999926,DELI,FALSE,1,0,5,4,1,4,179,tigre,Catalan,Sounds/cat_tigre.mp3,2020-06-04_18h02.40.686,TranslationElicitation_eng-prolific,3.2.4,MacIntel,60,5e73ed268c8f27364de746c5,,,,,,,
,,,,,,,,,,,,,,,,,,,,,,,,,,,,,,,,,,,,,,,,,return,9.506999969,DELI,FALSE,1,0,5,4,1,4,179,tigre,Catalan,Sounds/cat_tigre.mp3,2020-06-04_18h02.40.686,TranslationElicitation_eng-prolific,3.2.4,MacIntel,60,5e73ed268c8f27364de746c5,9.506999969,,,,,,
,,,,,,,,,,,,,,,,,,,,,,,,,,,,,,,,,,,,,,,,,,,,,1,0,5,4,1,4,179,tigre,Catalan,Sounds/cat_tigre.mp3,2020-06-04_18h02.40.686,TranslationElicitation_eng-prolific,3.2.4,MacIntel,60,5e73ed268c8f27364de746c5,,,,,,,
,,,,,,,,,,,,,,,,,,,,,,,,,,,,,,,,,,,,,,,,,h,3.208999872,H,FALSE,1,0,5,0,1,4,109,arbre,Catalan,Sounds/cat_arbre.mp3,2020-06-04_18h02.40.686,TranslationElicitation_eng-prolific,3.2.4,MacIntel,60,5e73ed268c8f27364de746c5,,,,,,,
,,,,,,,,,,,,,,,,,,,,,,,,,,,,,,,,,,,,,,,,,a,3.358999968,HA,FALSE,1,0,5,0,1,4,109,arbre,Catalan,Sounds/cat_arbre.mp3,2020-06-04_18h02.40.686,TranslationElicitation_eng-prolific,3.2.4,MacIntel,60,5e73ed268c8f27364de746c5,,,,,,,
,,,,,,,,,,,,,,,,,,,,,,,,,,,,,,,,,,,,,,,,,r,3.777999878,HAR,FALSE,1,0,5,0,1,4,109,arbre,Catalan,Sounds/cat_arbre.mp3,2020-06-04_18h02.40.686,TranslationElicitation_eng-prolific,3.2.4,MacIntel,60,5e73ed268c8f27364de746c5,,,,,,,
,,,,,,,,,,,,,,,,,,,,,,,,,,,,,,,,,,,,,,,,,b,4.328999996,HARB,FALSE,1,0,5,0,1,4,109,arbre,Catalan,Sounds/cat_arbre.mp3,2020-06-04_18h02.40.686,TranslationElicitation_eng-prolific,3.2.4,MacIntel,60,5e73ed268c8f27364de746c5,,,,,,,
,,,,,,,,,,,,,,,,,,,,,,,,,,,,,,,,,,,,,,,,,o,4.796000004,HARBO,FALSE,1,0,5,0,1,4,109,arbre,Catalan,Sounds/cat_arbre.mp3,2020-06-04_18h02.40.686,TranslationElicitation_eng-prolific,3.2.4,MacIntel,60,5e73ed268c8f27364de746c5,,,,,,,
,,,,,,,,,,,,,,,,,,,,,,,,,,,,,,,,,,,,,,,,,u,5.096999884,HARBOU,FALSE,1,0,5,0,1,4,109,arbre,Catalan,Sounds/cat_arbre.mp3,2020-06-04_18h02.40.686,TranslationElicitation_eng-prolific,3.2.4,MacIntel,60,5e73ed268c8f27364de746c5,,,,,,,
,,,,,,,,,,,,,,,,,,,,,,,,,,,,,,,,,,,,,,,,,r,5.382999897,HARBOUR,FALSE,1,0,5,0,1,4,109,arbre,Catalan,Sounds/cat_arbre.mp3,2020-06-04_18h02.40.686,TranslationElicitation_eng-prolific,3.2.4,MacIntel,60,5e73ed268c8f27364de746c5,,,,,,,
,,,,,,,,,,,,,,,,,,,,,,,,,,,,,,,,,,,,,,,,,return,5.882999897,HARBOUR,FALSE,1,0,5,0,1,4,109,arbre,Catalan,Sounds/cat_arbre.mp3,2020-06-04_18h02.40.686,TranslationElicitation_eng-prolific,3.2.4,MacIntel,60,5e73ed268c8f27364de746c5,5.882999897,,,,,,
,,,,,,,,,,,,,,,,,,,,,,,,,,,,,,,,,,,,,,,,,,,,,1,0,5,0,1,4,109,arbre,Catalan,Sounds/cat_arbre.mp3,2020-06-04_18h02.40.686,TranslationElicitation_eng-prolific,3.2.4,MacIntel,60,5e73ed268c8f27364de746c5,,,,,,,
,,,,,,,,,,,,,,,,,,,,,,,,,,,,,,,,,,,,,,,,,m,4.078000069,M,FALSE,1,0,5,2,1,4,147,jaqueta,Catalan,Sounds/cat_jaqueta.mp3,2020-06-04_18h02.40.686,TranslationElicitation_eng-prolific,3.2.4,MacIntel,60,5e73ed268c8f27364de746c5,,,,,,,
,,,,,,,,,,,,,,,,,,,,,,,,,,,,,,,,,,,,,,,,,i,4.379000187,MI,FALSE,1,0,5,2,1,4,147,jaqueta,Catalan,Sounds/cat_jaqueta.mp3,2020-06-04_18h02.40.686,TranslationElicitation_eng-prolific,3.2.4,MacIntel,60,5e73ed268c8f27364de746c5,,,,,,,
,,,,,,,,,,,,,,,,,,,,,,,,,,,,,,,,,,,,,,,,,l,4.677999973,MIL,FALSE,1,0,5,2,1,4,147,jaqueta,Catalan,Sounds/cat_jaqueta.mp3,2020-06-04_18h02.40.686,TranslationElicitation_eng-prolific,3.2.4,MacIntel,60,5e73ed268c8f27364de746c5,,,,,,,
,,,,,,,,,,,,,,,,,,,,,,,,,,,,,,,,,,,,,,,,,k,4.894999981,MILK,FALSE,1,0,5,2,1,4,147,jaqueta,Catalan,Sounds/cat_jaqueta.mp3,2020-06-04_18h02.40.686,TranslationElicitation_eng-prolific,3.2.4,MacIntel,60,5e73ed268c8f27364de746c5,,,,,,,
,,,,,,,,,,,,,,,,,,,,,,,,,,,,,,,,,,,,,,,,,return,5.312999964,MILK,FALSE,1,0,5,2,1,4,147,jaqueta,Catalan,Sounds/cat_jaqueta.mp3,2020-06-04_18h02.40.686,TranslationElicitation_eng-prolific,3.2.4,MacIntel,60,5e73ed268c8f27364de746c5,5.312999964,,,,,,
,,,,,,,,,,,,,,,,,,,,,,,,,,,,,,,,,,,,,,,,,,,,,1,0,5,2,1,4,147,jaqueta,Catalan,Sounds/cat_jaqueta.mp3,2020-06-04_18h02.40.686,TranslationElicitation_eng-prolific,3.2.4,MacIntel,60,5e73ed268c8f27364de746c5,,,,,,,
,,,,,,,,,,,,,,,,,,,,,,,,,,,,,,,,,,,,,,,,,p,3.974999905,P,FALSE,,,,,,,175,raspall,Catalan,Sounds/cat_raspall.mp3,2020-06-04_18h02.40.686,TranslationElicitation_eng-prolific,3.2.4,MacIntel,60,5e73ed268c8f27364de746c5,,1,0,81,67,1,80
,,,,,,,,,,,,,,,,,,,,,,,,,,,,,,,,,,,,,,,,,r,4.260999918,PR,FALSE,,,,,,,175,raspall,Catalan,Sounds/cat_raspall.mp3,2020-06-04_18h02.40.686,TranslationElicitation_eng-prolific,3.2.4,MacIntel,60,5e73ed268c8f27364de746c5,,1,0,81,67,1,80
,,,,,,,,,,,,,,,,,,,,,,,,,,,,,,,,,,,,,,,,,o,4.510999918,PRO,FALSE,,,,,,,175,raspall,Catalan,Sounds/cat_raspall.mp3,2020-06-04_18h02.40.686,TranslationElicitation_eng-prolific,3.2.4,MacIntel,60,5e73ed268c8f27364de746c5,,1,0,81,67,1,80
,,,,,,,,,,,,,,,,,,,,,,,,,,,,,,,,,,,,,,,,,t,4.643999815,PROT,FALSE,,,,,,,175,raspall,Catalan,Sounds/cat_raspall.mp3,2020-06-04_18h02.40.686,TranslationElicitation_eng-prolific,3.2.4,MacIntel,60,5e73ed268c8f27364de746c5,,1,0,81,67,1,80
,,,,,,,,,,,,,,,,,,,,,,,,,,,,,,,,,,,,,,,,,e,4.944999933,PROTE,FALSE,,,,,,,175,raspall,Catalan,Sounds/cat_raspall.mp3,2020-06-04_18h02.40.686,TranslationElicitation_eng-prolific,3.2.4,MacIntel,60,5e73ed268c8f27364de746c5,,1,0,81,67,1,80
,,,,,,,,,,,,,,,,,,,,,,,,,,,,,,,,,,,,,,,,,s,5.246999979,PROTES,FALSE,,,,,,,175,raspall,Catalan,Sounds/cat_raspall.mp3,2020-06-04_18h02.40.686,TranslationElicitation_eng-prolific,3.2.4,MacIntel,60,5e73ed268c8f27364de746c5,,1,0,81,67,1,80
,,,,,,,,,,,,,,,,,,,,,,,,,,,,,,,,,,,,,,,,,t,6.25,PROTEST,FALSE,,,,,,,175,raspall,Catalan,Sounds/cat_raspall.mp3,2020-06-04_18h02.40.686,TranslationElicitation_eng-prolific,3.2.4,MacIntel,60,5e73ed268c8f27364de746c5,,1,0,81,67,1,80
,,,,,,,,,,,,,,,,,,,,,,,,,,,,,,,,,,,,,,,,,return,6.465999842,PROTEST,FALSE,,,,,,,175,raspall,Catalan,Sounds/cat_raspall.mp3,2020-06-04_18h02.40.686,TranslationElicitation_eng-prolific,3.2.4,MacIntel,60,5e73ed268c8f27364de746c5,6.465999842,1,0,81,67,1,80
,,,,,,,,,,,,,,,,,,,,,,,,,,,,,,,,,,,,,,,,,,,,,,,,,,,175,raspall,Catalan,Sounds/cat_raspall.mp3,2020-06-04_18h02.40.686,TranslationElicitation_eng-prolific,3.2.4,MacIntel,60,5e73ed268c8f27364de746c5,,1,0,81,67,1,80
,,,,,,,,,,,,,,,,,,,,,,,,,,,,,,,,,,,,,,,,,f,6.082999945,F,FALSE,,,,,,,135,formiga,Catalan,Sounds/cat_formiga.mp3,2020-06-04_18h02.40.686,TranslationElicitation_eng-prolific,3.2.4,MacIntel,60,5e73ed268c8f27364de746c5,,1,0,81,29,1,80
,,,,,,,,,,,,,,,,,,,,,,,,,,,,,,,,,,,,,,,,,r,6.282000065,FR,FALSE,,,,,,,135,formiga,Catalan,Sounds/cat_formiga.mp3,2020-06-04_18h02.40.686,TranslationElicitation_eng-prolific,3.2.4,MacIntel,60,5e73ed268c8f27364de746c5,,1,0,81,29,1,80
,,,,,,,,,,,,,,,,,,,,,,,,,,,,,,,,,,,,,,,,,u,6.44900012,FRU,FALSE,,,,,,,135,formiga,Catalan,Sounds/cat_formiga.mp3,2020-06-04_18h02.40.686,TranslationElicitation_eng-prolific,3.2.4,MacIntel,60,5e73ed268c8f27364de746c5,,1,0,81,29,1,80
,,,,,,,,,,,,,,,,,,,,,,,,,,,,,,,,,,,,,,,,,i,6.63499999,FRUI,FALSE,,,,,,,135,formiga,Catalan,Sounds/cat_formiga.mp3,2020-06-04_18h02.40.686,TranslationElicitation_eng-prolific,3.2.4,MacIntel,60,5e73ed268c8f27364de746c5,,1,0,81,29,1,80
,,,,,,,,,,,,,,,,,,,,,,,,,,,,,,,,,,,,,,,,,t,6.78399992,FRUIT,FALSE,,,,,,,135,formiga,Catalan,Sounds/cat_formiga.mp3,2020-06-04_18h02.40.686,TranslationElicitation_eng-prolific,3.2.4,MacIntel,60,5e73ed268c8f27364de746c5,,1,0,81,29,1,80
,,,,,,,,,,,,,,,,,,,,,,,,,,,,,,,,,,,,,,,,,return,7.03399992,FRUIT,FALSE,,,,,,,135,formiga,Catalan,Sounds/cat_formiga.mp3,2020-06-04_18h02.40.686,TranslationElicitation_eng-prolific,3.2.4,MacIntel,60,5e73ed268c8f27364de746c5,7.03399992,1,0,81,29,1,80
,,,,,,,,,,,,,,,,,,,,,,,,,,,,,,,,,,,,,,,,,,,,,,,,,,,135,formiga,Catalan,Sounds/cat_formiga.mp3,2020-06-04_18h02.40.686,TranslationElicitation_eng-prolific,3.2.4,MacIntel,60,5e73ed268c8f27364de746c5,,1,0,81,29,1,80
,,,,,,,,,,,,,,,,,,,,,,,,,,,,,,,,,,,,,,,,,w,2.088999987,W,FALSE,,,,,,,114,bol,Catalan,Sounds/cat_bol.mp3,2020-06-04_18h02.40.686,TranslationElicitation_eng-prolific,3.2.4,MacIntel,60,5e73ed268c8f27364de746c5,,1,0,81,9,1,80
,,,,,,,,,,,,,,,,,,,,,,,,,,,,,,,,,,,,,,,,,a,2.412000179,WA,FALSE,,,,,,,114,bol,Catalan,Sounds/cat_bol.mp3,2020-06-04_18h02.40.686,TranslationElicitation_eng-prolific,3.2.4,MacIntel,60,5e73ed268c8f27364de746c5,,1,0,81,9,1,80
,,,,,,,,,,,,,,,,,,,,,,,,,,,,,,,,,,,,,,,,,l,2.575000048,WAL,FALSE,,,,,,,114,bol,Catalan,Sounds/cat_bol.mp3,2020-06-04_18h02.40.686,TranslationElicitation_eng-prolific,3.2.4,MacIntel,60,5e73ed268c8f27364de746c5,,1,0,81,9,1,80
,,,,,,,,,,,,,,,,,,,,,,,,,,,,,,,,,,,,,,,,,l,2.723999977,WALL,FALSE,,,,,,,114,bol,Catalan,Sounds/cat_bol.mp3,2020-06-04_18h02.40.686,TranslationElicitation_eng-prolific,3.2.4,MacIntel,60,5e73ed268c8f27364de746c5,,1,0,81,9,1,80
,,,,,,,,,,,,,,,,,,,,,,,,,,,,,,,,,,,,,,,,,return,3.075999975,WALL,FALSE,,,,,,,114,bol,Catalan,Sounds/cat_bol.mp3,2020-06-04_18h02.40.686,TranslationElicitation_eng-prolific,3.2.4,MacIntel,60,5e73ed268c8f27364de746c5,3.075999975,1,0,81,9,1,80
,,,,,,,,,,,,,,,,,,,,,,,,,,,,,,,,,,,,,,,,,,,,,,,,,,,114,bol,Catalan,Sounds/cat_bol.mp3,2020-06-04_18h02.40.686,TranslationElicitation_eng-prolific,3.2.4,MacIntel,60,5e73ed268c8f27364de746c5,,1,0,81,9,1,80
,,,,,,,,,,,,,,,,,,,,,,,,,,,,,,,,,,,,,,,,,m,1.387000084,M,FALSE,,,,,,,156,moto,Catalan,Sounds/cat_moto.mp3,2020-06-04_18h02.40.686,TranslationElicitation_eng-prolific,3.2.4,MacIntel,60,5e73ed268c8f27364de746c5,,1,0,81,49,1,80
,,,,,,,,,,,,,,,,,,,,,,,,,,,,,,,,,,,,,,,,,o,1.588000059,MO,FALSE,,,,,,,156,moto,Catalan,Sounds/cat_moto.mp3,2020-06-04_18h02.40.686,TranslationElicitation_eng-prolific,3.2.4,MacIntel,60,5e73ed268c8f27364de746c5,,1,0,81,49,1,80
,,,,,,,,,,,,,,,,,,,,,,,,,,,,,,,,,,,,,,,,,u,1.838000059,MOU,FALSE,,,,,,,156,moto,Catalan,Sounds/cat_moto.mp3,2020-06-04_18h02.40.686,TranslationElicitation_eng-prolific,3.2.4,MacIntel,60,5e73ed268c8f27364de746c5,,1,0,81,49,1,80
,,,,,,,,,,,,,,,,,,,,,,,,,,,,,,,,,,,,,,,,,n,2.039000034,MOUN,FALSE,,,,,,,156,moto,Catalan,Sounds/cat_moto.mp3,2020-06-04_18h02.40.686,TranslationElicitation_eng-prolific,3.2.4,MacIntel,60,5e73ed268c8f27364de746c5,,1,0,81,49,1,80
,,,,,,,,,,,,,,,,,,,,,,,,,,,,,,,,,,,,,,,,,t,2.207000017,MOUNT,FALSE,,,,,,,156,moto,Catalan,Sounds/cat_moto.mp3,2020-06-04_18h02.40.686,TranslationElicitation_eng-prolific,3.2.4,MacIntel,60,5e73ed268c8f27364de746c5,,1,0,81,49,1,80
,,,,,,,,,,,,,,,,,,,,,,,,,,,,,,,,,,,,,,,,,a,2.539000034,MOUNTA,FALSE,,,,,,,156,moto,Catalan,Sounds/cat_moto.mp3,2020-06-04_18h02.40.686,TranslationElicitation_eng-prolific,3.2.4,MacIntel,60,5e73ed268c8f27364de746c5,,1,0,81,49,1,80
,,,,,,,,,,,,,,,,,,,,,,,,,,,,,,,,,,,,,,,,,i,2.60800004,MOUNTAI,FALSE,,,,,,,156,moto,Catalan,Sounds/cat_moto.mp3,2020-06-04_18h02.40.686,TranslationElicitation_eng-prolific,3.2.4,MacIntel,60,5e73ed268c8f27364de746c5,,1,0,81,49,1,80
,,,,,,,,,,,,,,,,,,,,,,,,,,,,,,,,,,,,,,,,,n,2.756999969,MOUNTAIN,FALSE,,,,,,,156,moto,Catalan,Sounds/cat_moto.mp3,2020-06-04_18h02.40.686,TranslationElicitation_eng-prolific,3.2.4,MacIntel,60,5e73ed268c8f27364de746c5,,1,0,81,49,1,80
,,,,,,,,,,,,,,,,,,,,,,,,,,,,,,,,,,,,,,,,,return,3.125999928,MOUNTAIN,FALSE,,,,,,,156,moto,Catalan,Sounds/cat_moto.mp3,2020-06-04_18h02.40.686,TranslationElicitation_eng-prolific,3.2.4,MacIntel,60,5e73ed268c8f27364de746c5,3.125999928,1,0,81,49,1,80
,,,,,,,,,,,,,,,,,,,,,,,,,,,,,,,,,,,,,,,,,,,,,,,,,,,156,moto,Catalan,Sounds/cat_moto.mp3,2020-06-04_18h02.40.686,TranslationElicitation_eng-prolific,3.2.4,MacIntel,60,5e73ed268c8f27364de746c5,,1,0,81,49,1,80
,,,,,,,,,,,,,,,,,,,,,,,,,,,,,,,,,,,,,,,,,l,2.823999882,L,FALSE,,,,,,,185,ulleres,Catalan,Sounds/cat_ulleres.mp3,2020-06-04_18h02.40.686,TranslationElicitation_eng-prolific,3.2.4,MacIntel,60,5e73ed268c8f27364de746c5,,1,0,81,76,1,80
,,,,,,,,,,,,,,,,,,,,,,,,,,,,,,,,,,,,,,,,,d,3.223999977,LD,FALSE,,,,,,,185,ulleres,Catalan,Sounds/cat_ulleres.mp3,2020-06-04_18h02.40.686,TranslationElicitation_eng-prolific,3.2.4,MacIntel,60,5e73ed268c8f27364de746c5,,1,0,81,76,1,80
,,,,,,,,,,,,,,,,,,,,,,,,,,,,,,,,,,,,,,,,,y,3.345999956,LDY,FALSE,,,,,,,185,ulleres,Catalan,Sounds/cat_ulleres.mp3,2020-06-04_18h02.40.686,TranslationElicitation_eng-prolific,3.2.4,MacIntel,60,5e73ed268c8f27364de746c5,,1,0,81,76,1,80
,,,,,,,,,,,,,,,,,,,,,,,,,,,,,,,,,,,,,,,,,s,3.493999958,LDYS,FALSE,,,,,,,185,ulleres,Catalan,Sounds/cat_ulleres.mp3,2020-06-04_18h02.40.686,TranslationElicitation_eng-prolific,3.2.4,MacIntel,60,5e73ed268c8f27364de746c5,,1,0,81,76,1,80
,,,,,,,,,,,,,,,,,,,,,,,,,,,,,,,,,,,,,,,,,backspace,3.861000061,LDY,TRUE,,,,,,,185,ulleres,Catalan,Sounds/cat_ulleres.mp3,2020-06-04_18h02.40.686,TranslationElicitation_eng-prolific,3.2.4,MacIntel,60,5e73ed268c8f27364de746c5,,1,0,81,76,1,80
,,,,,,,,,,,,,,,,,,,,,,,,,,,,,,,,,,,,,,,,,backspace,4.029000044,LD,TRUE,,,,,,,185,ulleres,Catalan,Sounds/cat_ulleres.mp3,2020-06-04_18h02.40.686,TranslationElicitation_eng-prolific,3.2.4,MacIntel,60,5e73ed268c8f27364de746c5,,1,0,81,76,1,80
,,,,,,,,,,,,,,,,,,,,,,,,,,,,,,,,,,,,,,,,,backspace,4.183000088,L,TRUE,,,,,,,185,ulleres,Catalan,Sounds/cat_ulleres.mp3,2020-06-04_18h02.40.686,TranslationElicitation_eng-prolific,3.2.4,MacIntel,60,5e73ed268c8f27364de746c5,,1,0,81,76,1,80
,,,,,,,,,,,,,,,,,,,,,,,,,,,,,,,,,,,,,,,,,a,4.476999998,LA,TRUE,,,,,,,185,ulleres,Catalan,Sounds/cat_ulleres.mp3,2020-06-04_18h02.40.686,TranslationElicitation_eng-prolific,3.2.4,MacIntel,60,5e73ed268c8f27364de746c5,,1,0,81,76,1,80
,,,,,,,,,,,,,,,,,,,,,,,,,,,,,,,,,,,,,,,,,d,4.864000082,LAD,TRUE,,,,,,,185,ulleres,Catalan,Sounds/cat_ulleres.mp3,2020-06-04_18h02.40.686,TranslationElicitation_eng-prolific,3.2.4,MacIntel,60,5e73ed268c8f27364de746c5,,1,0,81,76,1,80
,,,,,,,,,,,,,,,,,,,,,,,,,,,,,,,,,,,,,,,,,e,5.129999876,LADE,TRUE,,,,,,,185,ulleres,Catalan,Sounds/cat_ulleres.mp3,2020-06-04_18h02.40.686,TranslationElicitation_eng-prolific,3.2.4,MacIntel,60,5e73ed268c8f27364de746c5,,1,0,81,76,1,80
,,,,,,,,,,,,,,,,,,,,,,,,,,,,,,,,,,,,,,,,,backspace,5.480000019,LAD,TRUE,,,,,,,185,ulleres,Catalan,Sounds/cat_ulleres.mp3,2020-06-04_18h02.40.686,TranslationElicitation_eng-prolific,3.2.4,MacIntel,60,5e73ed268c8f27364de746c5,,1,0,81,76,1,80
,,,,,,,,,,,,,,,,,,,,,,,,,,,,,,,,,,,,,,,,,i,5.749000072,LADI,TRUE,,,,,,,185,ulleres,Catalan,Sounds/cat_ulleres.mp3,2020-06-04_18h02.40.686,TranslationElicitation_eng-prolific,3.2.4,MacIntel,60,5e73ed268c8f27364de746c5,,1,0,81,76,1,80
,,,,,,,,,,,,,,,,,,,,,,,,,,,,,,,,,,,,,,,,,e,5.934999943,LADIE,TRUE,,,,,,,185,ulleres,Catalan,Sounds/cat_ulleres.mp3,2020-06-04_18h02.40.686,TranslationElicitation_eng-prolific,3.2.4,MacIntel,60,5e73ed268c8f27364de746c5,,1,0,81,76,1,80
,,,,,,,,,,,,,,,,,,,,,,,,,,,,,,,,,,,,,,,,,s,6.131999969,LADIES,TRUE,,,,,,,185,ulleres,Catalan,Sounds/cat_ulleres.mp3,2020-06-04_18h02.40.686,TranslationElicitation_eng-prolific,3.2.4,MacIntel,60,5e73ed268c8f27364de746c5,,1,0,81,76,1,80
,,,,,,,,,,,,,,,,,,,,,,,,,,,,,,,,,,,,,,,,,return,6.282999992,LADIES,TRUE,,,,,,,185,ulleres,Catalan,Sounds/cat_ulleres.mp3,2020-06-04_18h02.40.686,TranslationElicitation_eng-prolific,3.2.4,MacIntel,60,5e73ed268c8f27364de746c5,6.282999992,1,0,81,76,1,80
,,,,,,,,,,,,,,,,,,,,,,,,,,,,,,,,,,,,,,,,,,,,,,,,,,,185,ulleres,Catalan,Sounds/cat_ulleres.mp3,2020-06-04_18h02.40.686,TranslationElicitation_eng-prolific,3.2.4,MacIntel,60,5e73ed268c8f27364de746c5,,1,0,81,76,1,80
,,,,,,,,,,,,,,,,,,,,,,,,,,,,,,,,,,,,,,,,,p,1.319000006,P,FALSE,,,,,,,164,patata,Catalan,Sounds/cat_patata.mp3,2020-06-04_18h02.40.686,TranslationElicitation_eng-prolific,3.2.4,MacIntel,60,5e73ed268c8f27364de746c5,,1,0,81,56,1,80
,,,,,,,,,,,,,,,,,,,,,,,,,,,,,,,,,,,,,,,,,o,1.537999868,PO,FALSE,,,,,,,164,patata,Catalan,Sounds/cat_patata.mp3,2020-06-04_18h02.40.686,TranslationElicitation_eng-prolific,3.2.4,MacIntel,60,5e73ed268c8f27364de746c5,,1,0,81,56,1,80
,,,,,,,,,,,,,,,,,,,,,,,,,,,,,,,,,,,,,,,,,t,1.786999941,POT,FALSE,,,,,,,164,patata,Catalan,Sounds/cat_patata.mp3,2020-06-04_18h02.40.686,TranslationElicitation_eng-prolific,3.2.4,MacIntel,60,5e73ed268c8f27364de746c5,,1,0,81,56,1,80
,,,,,,,,,,,,,,,,,,,,,,,,,,,,,,,,,,,,,,,,,a,2.407999992,POTA,FALSE,,,,,,,164,patata,Catalan,Sounds/cat_patata.mp3,2020-06-04_18h02.40.686,TranslationElicitation_eng-prolific,3.2.4,MacIntel,60,5e73ed268c8f27364de746c5,,1,0,81,56,1,80
,,,,,,,,,,,,,,,,,,,,,,,,,,,,,,,,,,,,,,,,,t,3.042999983,POTAT,FALSE,,,,,,,164,patata,Catalan,Sounds/cat_patata.mp3,2020-06-04_18h02.40.686,TranslationElicitation_eng-prolific,3.2.4,MacIntel,60,5e73ed268c8f27364de746c5,,1,0,81,56,1,80
,,,,,,,,,,,,,,,,,,,,,,,,,,,,,,,,,,,,,,,,,o,3.243999958,POTATO,FALSE,,,,,,,164,patata,Catalan,Sounds/cat_patata.mp3,2020-06-04_18h02.40.686,TranslationElicitation_eng-prolific,3.2.4,MacIntel,60,5e73ed268c8f27364de746c5,,1,0,81,56,1,80
,,,,,,,,,,,,,,,,,,,,,,,,,,,,,,,,,,,,,,,,,e,3.493999958,POTATOE,FALSE,,,,,,,164,patata,Catalan,Sounds/cat_patata.mp3,2020-06-04_18h02.40.686,TranslationElicitation_eng-prolific,3.2.4,MacIntel,60,5e73ed268c8f27364de746c5,,1,0,81,56,1,80
,,,,,,,,,,,,,,,,,,,,,,,,,,,,,,,,,,,,,,,,,return,3.912999868,POTATOE,FALSE,,,,,,,164,patata,Catalan,Sounds/cat_patata.mp3,2020-06-04_18h02.40.686,TranslationElicitation_eng-prolific,3.2.4,MacIntel,60,5e73ed268c8f27364de746c5,3.912999868,1,0,81,56,1,80
,,,,,,,,,,,,,,,,,,,,,,,,,,,,,,,,,,,,,,,,,,,,,,,,,,,164,patata,Catalan,Sounds/cat_patata.mp3,2020-06-04_18h02.40.686,TranslationElicitation_eng-prolific,3.2.4,MacIntel,60,5e73ed268c8f27364de746c5,,1,0,81,56,1,80
,,,,,,,,,,,,,,,,,,,,,,,,,,,,,,,,,,,,,,,,,m,2.388000011,M,FALSE,,,,,,,107,amanida,Catalan,Sounds/cat_amanida.mp3,2020-06-04_18h02.40.686,TranslationElicitation_eng-prolific,3.2.4,MacIntel,60,5e73ed268c8f27364de746c5,,1,0,81,3,1,80
,,,,,,,,,,,,,,,,,,,,,,,,,,,,,,,,,,,,,,,,,o,2.539999962,MO,FALSE,,,,,,,107,amanida,Catalan,Sounds/cat_amanida.mp3,2020-06-04_18h02.40.686,TranslationElicitation_eng-prolific,3.2.4,MacIntel,60,5e73ed268c8f27364de746c5,,1,0,81,3,1,80
,,,,,,,,,,,,,,,,,,,,,,,,,,,,,,,,,,,,,,,,,n,2.738999844,MON,FALSE,,,,,,,107,amanida,Catalan,Sounds/cat_amanida.mp3,2020-06-04_18h02.40.686,TranslationElicitation_eng-prolific,3.2.4,MacIntel,60,5e73ed268c8f27364de746c5,,1,0,81,3,1,80
,,,,,,,,,,,,,,,,,,,,,,,,,,,,,,,,,,,,,,,,,e,2.944000006,MONE,FALSE,,,,,,,107,amanida,Catalan,Sounds/cat_amanida.mp3,2020-06-04_18h02.40.686,TranslationElicitation_eng-prolific,3.2.4,MacIntel,60,5e73ed268c8f27364de746c5,,1,0,81,3,1,80
,,,,,,,,,,,,,,,,,,,,,,,,,,,,,,,,,,,,,,,,,y,3.089999914,MONEY,FALSE,,,,,,,107,amanida,Catalan,Sounds/cat_amanida.mp3,2020-06-04_18h02.40.686,TranslationElicitation_eng-prolific,3.2.4,MacIntel,60,5e73ed268c8f27364de746c5,,1,0,81,3,1,80
,,,,,,,,,,,,,,,,,,,,,,,,,,,,,,,,,,,,,,,,,return,3.609999895,MONEY,FALSE,,,,,,,107,amanida,Catalan,Sounds/cat_amanida.mp3,2020-06-04_18h02.40.686,TranslationElicitation_eng-prolific,3.2.4,MacIntel,60,5e73ed268c8f27364de746c5,3.609999895,1,0,81,3,1,80
,,,,,,,,,,,,,,,,,,,,,,,,,,,,,,,,,,,,,,,,,,,,,,,,,,,107,amanida,Catalan,Sounds/cat_amanida.mp3,2020-06-04_18h02.40.686,TranslationElicitation_eng-prolific,3.2.4,MacIntel,60,5e73ed268c8f27364de746c5,,1,0,81,3,1,80
,,,,,,,,,,,,,,,,,,,,,,,,,,,,,,,,,,,,,,,,,h,6.570000172,H,FALSE,,,,,,,171,pollastre,Catalan,Sounds/cat_pollastre.mp3,2020-06-04_18h02.40.686,TranslationElicitation_eng-prolific,3.2.4,MacIntel,60,5e73ed268c8f27364de746c5,,1,0,81,63,1,80
,,,,,,,,,,,,,,,,,,,,,,,,,,,,,,,,,,,,,,,,,o,7.019000053,HO,FALSE,,,,,,,171,pollastre,Catalan,Sounds/cat_pollastre.mp3,2020-06-04_18h02.40.686,TranslationElicitation_eng-prolific,3.2.4,MacIntel,60,5e73ed268c8f27364de746c5,,1,0,81,63,1,80
,,,,,,,,,,,,,,,,,,,,,,,,,,,,,,,,,,,,,,,,,o,7.187000036,HOO,FALSE,,,,,,,171,pollastre,Catalan,Sounds/cat_pollastre.mp3,2020-06-04_18h02.40.686,TranslationElicitation_eng-prolific,3.2.4,MacIntel,60,5e73ed268c8f27364de746c5,,1,0,81,63,1,80
,,,,,,,,,,,,,,,,,,,,,,,,,,,,,,,,,,,,,,,,,p,7.437000036,HOOP,FALSE,,,,,,,171,pollastre,Catalan,Sounds/cat_pollastre.mp3,2020-06-04_18h02.40.686,TranslationElicitation_eng-prolific,3.2.4,MacIntel,60,5e73ed268c8f27364de746c5,,1,0,81,63,1,80
,,,,,,,,,,,,,,,,,,,,,,,,,,,,,,,,,,,,,,,,,return,7.760000229,HOOP,FALSE,,,,,,,171,pollastre,Catalan,Sounds/cat_pollastre.mp3,2020-06-04_18h02.40.686,TranslationElicitation_eng-prolific,3.2.4,MacIntel,60,5e73ed268c8f27364de746c5,7.760000229,1,0,81,63,1,80
,,,,,,,,,,,,,,,,,,,,,,,,,,,,,,,,,,,,,,,,,,,,,,,,,,,171,pollastre,Catalan,Sounds/cat_pollastre.mp3,2020-06-04_18h02.40.686,TranslationElicitation_eng-prolific,3.2.4,MacIntel,60,5e73ed268c8f27364de746c5,,1,0,81,63,1,80
,,,,,,,,,,,,,,,,,,,,,,,,,,,,,,,,,,,,,,,,,space,2.338000059, ,FALSE,,,,,,,130,entrepa,Catalan,Sounds/cat_entrepa.mp3,2020-06-04_18h02.40.686,TranslationElicitation_eng-prolific,3.2.4,MacIntel,60,5e73ed268c8f27364de746c5,,1,0,81,24,1,80
,,,,,,,,,,,,,,,,,,,,,,,,,,,,,,,,,,,,,,,,,space,3.040999889,  ,FALSE,,,,,,,130,entrepa,Catalan,Sounds/cat_entrepa.mp3,2020-06-04_18h02.40.686,TranslationElicitation_eng-prolific,3.2.4,MacIntel,60,5e73ed268c8f27364de746c5,,1,0,81,24,1,80
,,,,,,,,,,,,,,,,,,,,,,,,,,,,,,,,,,,,,,,,,p,16.00900006,  P,FALSE,,,,,,,130,entrepa,Catalan,Sounds/cat_entrepa.mp3,2020-06-04_18h02.40.686,TranslationElicitation_eng-prolific,3.2.4,MacIntel,60,5e73ed268c8f27364de746c5,,1,0,81,24,1,80
,,,,,,,,,,,,,,,,,,,,,,,,,,,,,,,,,,,,,,,,,a,16.29200006,  PA,FALSE,,,,,,,130,entrepa,Catalan,Sounds/cat_entrepa.mp3,2020-06-04_18h02.40.686,TranslationElicitation_eng-prolific,3.2.4,MacIntel,60,5e73ed268c8f27364de746c5,,1,0,81,24,1,80
,,,,,,,,,,,,,,,,,,,,,,,,,,,,,,,,,,,,,,,,,t,16.49399996,  PAT,FALSE,,,,,,,130,entrepa,Catalan,Sounds/cat_entrepa.mp3,2020-06-04_18h02.40.686,TranslationElicitation_eng-prolific,3.2.4,MacIntel,60,5e73ed268c8f27364de746c5,,1,0,81,24,1,80
,,,,,,,,,,,,,,,,,,,,,,,,,,,,,,,,,,,,,,,,,h,16.71000004,  PATH,FALSE,,,,,,,130,entrepa,Catalan,Sounds/cat_entrepa.mp3,2020-06-04_18h02.40.686,TranslationElicitation_eng-prolific,3.2.4,MacIntel,60,5e73ed268c8f27364de746c5,,1,0,81,24,1,80
,,,,,,,,,,,,,,,,,,,,,,,,,,,,,,,,,,,,,,,,,return,17.16100001,  PATH,FALSE,,,,,,,130,entrepa,Catalan,Sounds/cat_entrepa.mp3,2020-06-04_18h02.40.686,TranslationElicitation_eng-prolific,3.2.4,MacIntel,60,5e73ed268c8f27364de746c5,17.16100001,1,0,81,24,1,80
,,,,,,,,,,,,,,,,,,,,,,,,,,,,,,,,,,,,,,,,,,,,,,,,,,,130,entrepa,Catalan,Sounds/cat_entrepa.mp3,2020-06-04_18h02.40.686,TranslationElicitation_eng-prolific,3.2.4,MacIntel,60,5e73ed268c8f27364de746c5,,1,0,81,24,1,80
,,,,,,,,,,,,,,,,,,,,,,,,,,,,,,,,,,,,,,,,,b,3.994000196,B,FALSE,,,,,,,187,vaixell,Catalan,Sounds/cat_vaixell.mp3,2020-06-04_18h02.40.686,TranslationElicitation_eng-prolific,3.2.4,MacIntel,60,5e73ed268c8f27364de746c5,,1,0,81,78,1,80
,,,,,,,,,,,,,,,,,,,,,,,,,,,,,,,,,,,,,,,,,u,4.160000086,BU,FALSE,,,,,,,187,vaixell,Catalan,Sounds/cat_vaixell.mp3,2020-06-04_18h02.40.686,TranslationElicitation_eng-prolific,3.2.4,MacIntel,60,5e73ed268c8f27364de746c5,,1,0,81,78,1,80
,,,,,,,,,,,,,,,,,,,,,,,,,,,,,,,,,,,,,,,,,s,4.861000061,BUS,FALSE,,,,,,,187,vaixell,Catalan,Sounds/cat_vaixell.mp3,2020-06-04_18h02.40.686,TranslationElicitation_eng-prolific,3.2.4,MacIntel,60,5e73ed268c8f27364de746c5,,1,0,81,78,1,80
,,,,,,,,,,,,,,,,,,,,,,,,,,,,,,,,,,,,,,,,,h,5.012000084,BUSH,FALSE,,,,,,,187,vaixell,Catalan,Sounds/cat_vaixell.mp3,2020-06-04_18h02.40.686,TranslationElicitation_eng-prolific,3.2.4,MacIntel,60,5e73ed268c8f27364de746c5,,1,0,81,78,1,80
,,,,,,,,,,,,,,,,,,,,,,,,,,,,,,,,,,,,,,,,,return,5.364000082,BUSH,FALSE,,,,,,,187,vaixell,Catalan,Sounds/cat_vaixell.mp3,2020-06-04_18h02.40.686,TranslationElicitation_eng-prolific,3.2.4,MacIntel,60,5e73ed268c8f27364de746c5,5.364000082,1,0,81,78,1,80
,,,,,,,,,,,,,,,,,,,,,,,,,,,,,,,,,,,,,,,,,,,,,,,,,,,187,vaixell,Catalan,Sounds/cat_vaixell.mp3,2020-06-04_18h02.40.686,TranslationElicitation_eng-prolific,3.2.4,MacIntel,60,5e73ed268c8f27364de746c5,,1,0,81,78,1,80
,,,,,,,,,,,,,,,,,,,,,,,,,,,,,,,,,,,,,,,,,b,1.236999989,B,FALSE,,,,,,,110,berenar,Catalan,Sounds/cat_berenar.mp3,2020-06-04_18h02.40.686,TranslationElicitation_eng-prolific,3.2.4,MacIntel,60,5e73ed268c8f27364de746c5,,1,0,81,5,1,80
,,,,,,,,,,,,,,,,,,,,,,,,,,,,,,,,,,,,,,,,,a,1.788000107,BA,FALSE,,,,,,,110,berenar,Catalan,Sounds/cat_berenar.mp3,2020-06-04_18h02.40.686,TranslationElicitation_eng-prolific,3.2.4,MacIntel,60,5e73ed268c8f27364de746c5,,1,0,81,5,1,80
,,,,,,,,,,,,,,,,,,,,,,,,,,,,,,,,,,,,,,,,,n,1.954999924,BAN,FALSE,,,,,,,110,berenar,Catalan,Sounds/cat_berenar.mp3,2020-06-04_18h02.40.686,TranslationElicitation_eng-prolific,3.2.4,MacIntel,60,5e73ed268c8f27364de746c5,,1,0,81,5,1,80
,,,,,,,,,,,,,,,,,,,,,,,,,,,,,,,,,,,,,,,,,a,2.055999994,BANA,FALSE,,,,,,,110,berenar,Catalan,Sounds/cat_berenar.mp3,2020-06-04_18h02.40.686,TranslationElicitation_eng-prolific,3.2.4,MacIntel,60,5e73ed268c8f27364de746c5,,1,0,81,5,1,80
,,,,,,,,,,,,,,,,,,,,,,,,,,,,,,,,,,,,,,,,,n,2.940000057,BANAN,FALSE,,,,,,,110,berenar,Catalan,Sounds/cat_berenar.mp3,2020-06-04_18h02.40.686,TranslationElicitation_eng-prolific,3.2.4,MacIntel,60,5e73ed268c8f27364de746c5,,1,0,81,5,1,80
,,,,,,,,,,,,,,,,,,,,,,,,,,,,,,,,,,,,,,,,,a,3.09100008,BANANA,FALSE,,,,,,,110,berenar,Catalan,Sounds/cat_berenar.mp3,2020-06-04_18h02.40.686,TranslationElicitation_eng-prolific,3.2.4,MacIntel,60,5e73ed268c8f27364de746c5,,1,0,81,5,1,80
,,,,,,,,,,,,,,,,,,,,,,,,,,,,,,,,,,,,,,,,,return,3.457999945,BANANA,FALSE,,,,,,,110,berenar,Catalan,Sounds/cat_berenar.mp3,2020-06-04_18h02.40.686,TranslationElicitation_eng-prolific,3.2.4,MacIntel,60,5e73ed268c8f27364de746c5,3.457999945,1,0,81,5,1,80
,,,,,,,,,,,,,,,,,,,,,,,,,,,,,,,,,,,,,,,,,,,,,,,,,,,110,berenar,Catalan,Sounds/cat_berenar.mp3,2020-06-04_18h02.40.686,TranslationElicitation_eng-prolific,3.2.4,MacIntel,60,5e73ed268c8f27364de746c5,,1,0,81,5,1,80
,,,,,,,,,,,,,,,,,,,,,,,,,,,,,,,,,,,,,,,,,i,1.369000196,I,FALSE,,,,,,,108,ampolla,Catalan,Sounds/cat_ampolla.mp3,2020-06-04_18h02.40.686,TranslationElicitation_eng-prolific,3.2.4,MacIntel,60,5e73ed268c8f27364de746c5,,1,0,81,4,1,80
,,,,,,,,,,,,,,,,,,,,,,,,,,,,,,,,,,,,,,,,,m,1.585000038,IM,FALSE,,,,,,,108,ampolla,Catalan,Sounds/cat_ampolla.mp3,2020-06-04_18h02.40.686,TranslationElicitation_eng-prolific,3.2.4,MacIntel,60,5e73ed268c8f27364de746c5,,1,0,81,4,1,80
,,,,,,,,,,,,,,,,,,,,,,,,,,,,,,,,,,,,,,,,,p,1.803000212,IMP,FALSE,,,,,,,108,ampolla,Catalan,Sounds/cat_ampolla.mp3,2020-06-04_18h02.40.686,TranslationElicitation_eng-prolific,3.2.4,MacIntel,60,5e73ed268c8f27364de746c5,,1,0,81,4,1,80
,,,,,,,,,,,,,,,,,,,,,,,,,,,,,,,,,,,,,,,,,o,2.019999981,IMPO,FALSE,,,,,,,108,ampolla,Catalan,Sounds/cat_ampolla.mp3,2020-06-04_18h02.40.686,TranslationElicitation_eng-prolific,3.2.4,MacIntel,60,5e73ed268c8f27364de746c5,,1,0,81,4,1,80
,,,,,,,,,,,,,,,,,,,,,,,,,,,,,,,,,,,,,,,,,r,2.17200017,IMPOR,FALSE,,,,,,,108,ampolla,Catalan,Sounds/cat_ampolla.mp3,2020-06-04_18h02.40.686,TranslationElicitation_eng-prolific,3.2.4,MacIntel,60,5e73ed268c8f27364de746c5,,1,0,81,4,1,80
,,,,,,,,,,,,,,,,,,,,,,,,,,,,,,,,,,,,,,,,,t,2.389000177,IMPORT,FALSE,,,,,,,108,ampolla,Catalan,Sounds/cat_ampolla.mp3,2020-06-04_18h02.40.686,TranslationElicitation_eng-prolific,3.2.4,MacIntel,60,5e73ed268c8f27364de746c5,,1,0,81,4,1,80
,,,,,,,,,,,,,,,,,,,,,,,,,,,,,,,,,,,,,,,,,return,2.588000059,IMPORT,FALSE,,,,,,,108,ampolla,Catalan,Sounds/cat_ampolla.mp3,2020-06-04_18h02.40.686,TranslationElicitation_eng-prolific,3.2.4,MacIntel,60,5e73ed268c8f27364de746c5,2.588000059,1,0,81,4,1,80
,,,,,,,,,,,,,,,,,,,,,,,,,,,,,,,,,,,,,,,,,,,,,,,,,,,108,ampolla,Catalan,Sounds/cat_ampolla.mp3,2020-06-04_18h02.40.686,TranslationElicitation_eng-prolific,3.2.4,MacIntel,60,5e73ed268c8f27364de746c5,,1,0,81,4,1,80
,,,,,,,,,,,,,,,,,,,,,,,,,,,,,,,,,,,,,,,,,s,2.504999876,S,FALSE,,,,,,,177,sol,Catalan,Sounds/cat_sol.mp3,2020-06-04_18h02.40.686,TranslationElicitation_eng-prolific,3.2.4,MacIntel,60,5e73ed268c8f27364de746c5,,1,0,81,69,1,80
,,,,,,,,,,,,,,,,,,,,,,,,,,,,,,,,,,,,,,,,,w,3.559000015,SW,FALSE,,,,,,,177,sol,Catalan,Sounds/cat_sol.mp3,2020-06-04_18h02.40.686,TranslationElicitation_eng-prolific,3.2.4,MacIntel,60,5e73ed268c8f27364de746c5,,1,0,81,69,1,80
,,,,,,,,,,,,,,,,,,,,,,,,,,,,,,,,,,,,,,,,,backspace,3.976999998,S,TRUE,,,,,,,177,sol,Catalan,Sounds/cat_sol.mp3,2020-06-04_18h02.40.686,TranslationElicitation_eng-prolific,3.2.4,MacIntel,60,5e73ed268c8f27364de746c5,,1,0,81,69,1,80
,,,,,,,,,,,,,,,,,,,,,,,,,,,,,,,,,,,,,,,,,e,4.14199996,SE,TRUE,,,,,,,177,sol,Catalan,Sounds/cat_sol.mp3,2020-06-04_18h02.40.686,TranslationElicitation_eng-prolific,3.2.4,MacIntel,60,5e73ed268c8f27364de746c5,,1,0,81,69,1,80
,,,,,,,,,,,,,,,,,,,,,,,,,,,,,,,,,,,,,,,,,l,4.31099987,SEL,TRUE,,,,,,,177,sol,Catalan,Sounds/cat_sol.mp3,2020-06-04_18h02.40.686,TranslationElicitation_eng-prolific,3.2.4,MacIntel,60,5e73ed268c8f27364de746c5,,1,0,81,69,1,80
,,,,,,,,,,,,,,,,,,,,,,,,,,,,,,,,,,,,,,,,,l,4.460000038,SELL,TRUE,,,,,,,177,sol,Catalan,Sounds/cat_sol.mp3,2020-06-04_18h02.40.686,TranslationElicitation_eng-prolific,3.2.4,MacIntel,60,5e73ed268c8f27364de746c5,,1,0,81,69,1,80
,,,,,,,,,,,,,,,,,,,,,,,,,,,,,,,,,,,,,,,,,return,4.878999949,SELL,TRUE,,,,,,,177,sol,Catalan,Sounds/cat_sol.mp3,2020-06-04_18h02.40.686,TranslationElicitation_eng-prolific,3.2.4,MacIntel,60,5e73ed268c8f27364de746c5,4.878999949,1,0,81,69,1,80
,,,,,,,,,,,,,,,,,,,,,,,,,,,,,,,,,,,,,,,,,,,,,,,,,,,177,sol,Catalan,Sounds/cat_sol.mp3,2020-06-04_18h02.40.686,TranslationElicitation_eng-prolific,3.2.4,MacIntel,60,5e73ed268c8f27364de746c5,,1,0,81,69,1,80
,,,,,,,,,,,,,,,,,,,,,,,,,,,,,,,,,,,,,,,,,w,5.133000135,W,FALSE,,,,,,,180,tisores,Catalan,Sounds/cat_tisores.mp3,2020-06-04_18h02.40.686,TranslationElicitation_eng-prolific,3.2.4,MacIntel,60,5e73ed268c8f27364de746c5,,1,0,81,71,1,80
,,,,,,,,,,,,,,,,,,,,,,,,,,,,,,,,,,,,,,,,,h,5.249000072,WH,FALSE,,,,,,,180,tisores,Catalan,Sounds/cat_tisores.mp3,2020-06-04_18h02.40.686,TranslationElicitation_eng-prolific,3.2.4,MacIntel,60,5e73ed268c8f27364de746c5,,1,0,81,71,1,80
,,,,,,,,,,,,,,,,,,,,,,,,,,,,,,,,,,,,,,,,,o,5.44900012,WHO,FALSE,,,,,,,180,tisores,Catalan,Sounds/cat_tisores.mp3,2020-06-04_18h02.40.686,TranslationElicitation_eng-prolific,3.2.4,MacIntel,60,5e73ed268c8f27364de746c5,,1,0,81,71,1,80
,,,,,,,,,,,,,,,,,,,,,,,,,,,,,,,,,,,,,,,,,r,5.565000057,WHOR,FALSE,,,,,,,180,tisores,Catalan,Sounds/cat_tisores.mp3,2020-06-04_18h02.40.686,TranslationElicitation_eng-prolific,3.2.4,MacIntel,60,5e73ed268c8f27364de746c5,,1,0,81,71,1,80
,,,,,,,,,,,,,,,,,,,,,,,,,,,,,,,,,,,,,,,,,e,5.784000158,WHORE,FALSE,,,,,,,180,tisores,Catalan,Sounds/cat_tisores.mp3,2020-06-04_18h02.40.686,TranslationElicitation_eng-prolific,3.2.4,MacIntel,60,5e73ed268c8f27364de746c5,,1,0,81,71,1,80
,,,,,,,,,,,,,,,,,,,,,,,,,,,,,,,,,,,,,,,,,return,5.960000038,WHORE,FALSE,,,,,,,180,tisores,Catalan,Sounds/cat_tisores.mp3,2020-06-04_18h02.40.686,TranslationElicitation_eng-prolific,3.2.4,MacIntel,60,5e73ed268c8f27364de746c5,5.960000038,1,0,81,71,1,80
,,,,,,,,,,,,,,,,,,,,,,,,,,,,,,,,,,,,,,,,,,,,,,,,,,,180,tisores,Catalan,Sounds/cat_tisores.mp3,2020-06-04_18h02.40.686,TranslationElicitation_eng-prolific,3.2.4,MacIntel,60,5e73ed268c8f27364de746c5,,1,0,81,71,1,80
,,,,,,,,,,,,,,,,,,,,,,,,,,,,,,,,,,,,,,,,,g,1.703999996,G,FALSE,,,,,,,143,globus,Catalan,Sounds/cat_globus.mp3,2020-06-04_18h02.40.686,TranslationElicitation_eng-prolific,3.2.4,MacIntel,60,5e73ed268c8f27364de746c5,,1,0,81,37,1,80
,,,,,,,,,,,,,,,,,,,,,,,,,,,,,,,,,,,,,,,,,l,2.021000147,GL,FALSE,,,,,,,143,globus,Catalan,Sounds/cat_globus.mp3,2020-06-04_18h02.40.686,TranslationElicitation_eng-prolific,3.2.4,MacIntel,60,5e73ed268c8f27364de746c5,,1,0,81,37,1,80
,,,,,,,,,,,,,,,,,,,,,,,,,,,,,,,,,,,,,,,,,o,2.220999956,GLO,FALSE,,,,,,,143,globus,Catalan,Sounds/cat_globus.mp3,2020-06-04_18h02.40.686,TranslationElicitation_eng-prolific,3.2.4,MacIntel,60,5e73ed268c8f27364de746c5,,1,0,81,37,1,80
,,,,,,,,,,,,,,,,,,,,,,,,,,,,,,,,,,,,,,,,,b,2.707000017,GLOB,FALSE,,,,,,,143,globus,Catalan,Sounds/cat_globus.mp3,2020-06-04_18h02.40.686,TranslationElicitation_eng-prolific,3.2.4,MacIntel,60,5e73ed268c8f27364de746c5,,1,0,81,37,1,80
,,,,,,,,,,,,,,,,,,,,,,,,,,,,,,,,,,,,,,,,,a,2.973999977,GLOBA,FALSE,,,,,,,143,globus,Catalan,Sounds/cat_globus.mp3,2020-06-04_18h02.40.686,TranslationElicitation_eng-prolific,3.2.4,MacIntel,60,5e73ed268c8f27364de746c5,,1,0,81,37,1,80
,,,,,,,,,,,,,,,,,,,,,,,,,,,,,,,,,,,,,,,,,l,3.140000105,GLOBAL,FALSE,,,,,,,143,globus,Catalan,Sounds/cat_globus.mp3,2020-06-04_18h02.40.686,TranslationElicitation_eng-prolific,3.2.4,MacIntel,60,5e73ed268c8f27364de746c5,,1,0,81,37,1,80
,,,,,,,,,,,,,,,,,,,,,,,,,,,,,,,,,,,,,,,,,return,3.476000071,GLOBAL,FALSE,,,,,,,143,globus,Catalan,Sounds/cat_globus.mp3,2020-06-04_18h02.40.686,TranslationElicitation_eng-prolific,3.2.4,MacIntel,60,5e73ed268c8f27364de746c5,3.476000071,1,0,81,37,1,80
,,,,,,,,,,,,,,,,,,,,,,,,,,,,,,,,,,,,,,,,,,,,,,,,,,,143,globus,Catalan,Sounds/cat_globus.mp3,2020-06-04_18h02.40.686,TranslationElicitation_eng-prolific,3.2.4,MacIntel,60,5e73ed268c8f27364de746c5,,1,0,81,37,1,80
,,,,,,,,,,,,,,,,,,,,,,,,,,,,,,,,,,,,,,,,,m,1.871000051,M,FALSE,,,,,,,170,ploma,Catalan,Sounds/cat_ploma.mp3,2020-06-04_18h02.40.686,TranslationElicitation_eng-prolific,3.2.4,MacIntel,60,5e73ed268c8f27364de746c5,,1,0,81,62,1,80
,,,,,,,,,,,,,,,,,,,,,,,,,,,,,,,,,,,,,,,,,a,2.019999981,MA,FALSE,,,,,,,170,ploma,Catalan,Sounds/cat_ploma.mp3,2020-06-04_18h02.40.686,TranslationElicitation_eng-prolific,3.2.4,MacIntel,60,5e73ed268c8f27364de746c5,,1,0,81,62,1,80
,,,,,,,,,,,,,,,,,,,,,,,,,,,,,,,,,,,,,,,,,n,2.136999846,MAN,FALSE,,,,,,,170,ploma,Catalan,Sounds/cat_ploma.mp3,2020-06-04_18h02.40.686,TranslationElicitation_eng-prolific,3.2.4,MacIntel,60,5e73ed268c8f27364de746c5,,1,0,81,62,1,80
,,,,,,,,,,,,,,,,,,,,,,,,,,,,,,,,,,,,,,,,,return,2.371000051,MAN,FALSE,,,,,,,170,ploma,Catalan,Sounds/cat_ploma.mp3,2020-06-04_18h02.40.686,TranslationElicitation_eng-prolific,3.2.4,MacIntel,60,5e73ed268c8f27364de746c5,2.371000051,1,0,81,62,1,80
,,,,,,,,,,,,,,,,,,,,,,,,,,,,,,,,,,,,,,,,,,,,,,,,,,,170,ploma,Catalan,Sounds/cat_ploma.mp3,2020-06-04_18h02.40.686,TranslationElicitation_eng-prolific,3.2.4,MacIntel,60,5e73ed268c8f27364de746c5,,1,0,81,62,1,80
,,,,,,,,,,,,,,,,,,,,,,,,,,,,,,,,,,,,,,,,,w,2.372999907,W,FALSE,,,,,,,161,ovella,Catalan,Sounds/cat_ovella.mp3,2020-06-04_18h02.40.686,TranslationElicitation_eng-prolific,3.2.4,MacIntel,60,5e73ed268c8f27364de746c5,,1,0,81,53,1,80
,,,,,,,,,,,,,,,,,,,,,,,,,,,,,,,,,,,,,,,,,e,2.556999922,WE,FALSE,,,,,,,161,ovella,Catalan,Sounds/cat_ovella.mp3,2020-06-04_18h02.40.686,TranslationElicitation_eng-prolific,3.2.4,MacIntel,60,5e73ed268c8f27364de746c5,,1,0,81,53,1,80
,,,,,,,,,,,,,,,,,,,,,,,,,,,,,,,,,,,,,,,,,l,2.691999912,WEL,FALSE,,,,,,,161,ovella,Catalan,Sounds/cat_ovella.mp3,2020-06-04_18h02.40.686,TranslationElicitation_eng-prolific,3.2.4,MacIntel,60,5e73ed268c8f27364de746c5,,1,0,81,53,1,80
,,,,,,,,,,,,,,,,,,,,,,,,,,,,,,,,,,,,,,,,,l,2.840999842,WELL,FALSE,,,,,,,161,ovella,Catalan,Sounds/cat_ovella.mp3,2020-06-04_18h02.40.686,TranslationElicitation_eng-prolific,3.2.4,MacIntel,60,5e73ed268c8f27364de746c5,,1,0,81,53,1,80
,,,,,,,,,,,,,,,,,,,,,,,,,,,,,,,,,,,,,,,,,return,3.074999809,WELL,FALSE,,,,,,,161,ovella,Catalan,Sounds/cat_ovella.mp3,2020-06-04_18h02.40.686,TranslationElicitation_eng-prolific,3.2.4,MacIntel,60,5e73ed268c8f27364de746c5,3.074999809,1,0,81,53,1,80
,,,,,,,,,,,,,,,,,,,,,,,,,,,,,,,,,,,,,,,,,,,,,,,,,,,161,ovella,Catalan,Sounds/cat_ovella.mp3,2020-06-04_18h02.40.686,TranslationElicitation_eng-prolific,3.2.4,MacIntel,60,5e73ed268c8f27364de746c5,,1,0,81,53,1,80
,,,,,,,,,,,,,,,,,,,,,,,,,,,,,,,,,,,,,,,,,t,1.236000061,T,FALSE,,,,,,,182,tomaquet,Catalan,Sounds/cat_tomaquet.mp3,2020-06-04_18h02.40.686,TranslationElicitation_eng-prolific,3.2.4,MacIntel,60,5e73ed268c8f27364de746c5,,1,0,81,73,1,80
,,,,,,,,,,,,,,,,,,,,,,,,,,,,,,,,,,,,,,,,,o,1.386000156,TO,FALSE,,,,,,,182,tomaquet,Catalan,Sounds/cat_tomaquet.mp3,2020-06-04_18h02.40.686,TranslationElicitation_eng-prolific,3.2.4,MacIntel,60,5e73ed268c8f27364de746c5,,1,0,81,73,1,80
,,,,,,,,,,,,,,,,,,,,,,,,,,,,,,,,,,,,,,,,,m,1.572000027,TOM,FALSE,,,,,,,182,tomaquet,Catalan,Sounds/cat_tomaquet.mp3,2020-06-04_18h02.40.686,TranslationElicitation_eng-prolific,3.2.4,MacIntel,60,5e73ed268c8f27364de746c5,,1,0,81,73,1,80
,,,,,,,,,,,,,,,,,,,,,,,,,,,,,,,,,,,,,,,,,a,1.738000154,TOMA,FALSE,,,,,,,182,tomaquet,Catalan,Sounds/cat_tomaquet.mp3,2020-06-04_18h02.40.686,TranslationElicitation_eng-prolific,3.2.4,MacIntel,60,5e73ed268c8f27364de746c5,,1,0,81,73,1,80
,,,,,,,,,,,,,,,,,,,,,,,,,,,,,,,,,,,,,,,,,n,1.95600009,TOMAN,FALSE,,,,,,,182,tomaquet,Catalan,Sounds/cat_tomaquet.mp3,2020-06-04_18h02.40.686,TranslationElicitation_eng-prolific,3.2.4,MacIntel,60,5e73ed268c8f27364de746c5,,1,0,81,73,1,80
,,,,,,,,,,,,,,,,,,,,,,,,,,,,,,,,,,,,,,,,,backspace,2.357000113,TOMA,TRUE,,,,,,,182,tomaquet,Catalan,Sounds/cat_tomaquet.mp3,2020-06-04_18h02.40.686,TranslationElicitation_eng-prolific,3.2.4,MacIntel,60,5e73ed268c8f27364de746c5,,1,0,81,73,1,80
,,,,,,,,,,,,,,,,,,,,,,,,,,,,,,,,,,,,,,,,,t,2.742000103,TOMAT,TRUE,,,,,,,182,tomaquet,Catalan,Sounds/cat_tomaquet.mp3,2020-06-04_18h02.40.686,TranslationElicitation_eng-prolific,3.2.4,MacIntel,60,5e73ed268c8f27364de746c5,,1,0,81,73,1,80
,,,,,,,,,,,,,,,,,,,,,,,,,,,,,,,,,,,,,,,,,o,2.89199996,TOMATO,TRUE,,,,,,,182,tomaquet,Catalan,Sounds/cat_tomaquet.mp3,2020-06-04_18h02.40.686,TranslationElicitation_eng-prolific,3.2.4,MacIntel,60,5e73ed268c8f27364de746c5,,1,0,81,73,1,80
,,,,,,,,,,,,,,,,,,,,,,,,,,,,,,,,,,,,,,,,,return,3.275000095,TOMATO,TRUE,,,,,,,182,tomaquet,Catalan,Sounds/cat_tomaquet.mp3,2020-06-04_18h02.40.686,TranslationElicitation_eng-prolific,3.2.4,MacIntel,60,5e73ed268c8f27364de746c5,3.275000095,1,0,81,73,1,80
,,,,,,,,,,,,,,,,,,,,,,,,,,,,,,,,,,,,,,,,,,,,,,,,,,,182,tomaquet,Catalan,Sounds/cat_tomaquet.mp3,2020-06-04_18h02.40.686,TranslationElicitation_eng-prolific,3.2.4,MacIntel,60,5e73ed268c8f27364de746c5,,1,0,81,73,1,80
,,,,,,,,,,,,,,,,,,,,,,,,,,,,,,,,,,,,,,,,,l,1.602999926,L,FALSE,,,,,,,149,llibre,Catalan,Sounds/cat_llibre.mp3,2020-06-04_18h02.40.686,TranslationElicitation_eng-prolific,3.2.4,MacIntel,60,5e73ed268c8f27364de746c5,,1,0,81,42,1,80
,,,,,,,,,,,,,,,,,,,,,,,,,,,,,,,,,,,,,,,,,i,1.838000059,LI,FALSE,,,,,,,149,llibre,Catalan,Sounds/cat_llibre.mp3,2020-06-04_18h02.40.686,TranslationElicitation_eng-prolific,3.2.4,MacIntel,60,5e73ed268c8f27364de746c5,,1,0,81,42,1,80
,,,,,,,,,,,,,,,,,,,,,,,,,,,,,,,,,,,,,,,,,b,2.039999962,LIB,FALSE,,,,,,,149,llibre,Catalan,Sounds/cat_llibre.mp3,2020-06-04_18h02.40.686,TranslationElicitation_eng-prolific,3.2.4,MacIntel,60,5e73ed268c8f27364de746c5,,1,0,81,42,1,80
,,,,,,,,,,,,,,,,,,,,,,,,,,,,,,,,,,,,,,,,,r,2.339999914,LIBR,FALSE,,,,,,,149,llibre,Catalan,Sounds/cat_llibre.mp3,2020-06-04_18h02.40.686,TranslationElicitation_eng-prolific,3.2.4,MacIntel,60,5e73ed268c8f27364de746c5,,1,0,81,42,1,80
,,,,,,,,,,,,,,,,,,,,,,,,,,,,,,,,,,,,,,,,,a,2.606999874,LIBRA,FALSE,,,,,,,149,llibre,Catalan,Sounds/cat_llibre.mp3,2020-06-04_18h02.40.686,TranslationElicitation_eng-prolific,3.2.4,MacIntel,60,5e73ed268c8f27364de746c5,,1,0,81,42,1,80
,,,,,,,,,,,,,,,,,,,,,,,,,,,,,,,,,,,,,,,,,return,2.792000055,LIBRA,FALSE,,,,,,,149,llibre,Catalan,Sounds/cat_llibre.mp3,2020-06-04_18h02.40.686,TranslationElicitation_eng-prolific,3.2.4,MacIntel,60,5e73ed268c8f27364de746c5,2.792000055,1,0,81,42,1,80
,,,,,,,,,,,,,,,,,,,,,,,,,,,,,,,,,,,,,,,,,,,,,,,,,,,149,llibre,Catalan,Sounds/cat_llibre.mp3,2020-06-04_18h02.40.686,TranslationElicitation_eng-prolific,3.2.4,MacIntel,60,5e73ed268c8f27364de746c5,,1,0,81,42,1,80
,,,,,,,,,,,,,,,,,,,,,,,,,,,,,,,,,,,,,,,,,w,4.794000149,W,FALSE,,,,,,,105,aigua,Catalan,Sounds/cat_aigua.mp3,2020-06-04_18h02.40.686,TranslationElicitation_eng-prolific,3.2.4,MacIntel,60,5e73ed268c8f27364de746c5,,1,0,81,1,1,80
,,,,,,,,,,,,,,,,,,,,,,,,,,,,,,,,,,,,,,,,,a,5.080000162,WA,FALSE,,,,,,,105,aigua,Catalan,Sounds/cat_aigua.mp3,2020-06-04_18h02.40.686,TranslationElicitation_eng-prolific,3.2.4,MacIntel,60,5e73ed268c8f27364de746c5,,1,0,81,1,1,80
,,,,,,,,,,,,,,,,,,,,,,,,,,,,,,,,,,,,,,,,,n,5.247000217,WAN,FALSE,,,,,,,105,aigua,Catalan,Sounds/cat_aigua.mp3,2020-06-04_18h02.40.686,TranslationElicitation_eng-prolific,3.2.4,MacIntel,60,5e73ed268c8f27364de746c5,,1,0,81,1,1,80
,,,,,,,,,,,,,,,,,,,,,,,,,,,,,,,,,,,,,,,,,t,6.549000025,WANT,FALSE,,,,,,,105,aigua,Catalan,Sounds/cat_aigua.mp3,2020-06-04_18h02.40.686,TranslationElicitation_eng-prolific,3.2.4,MacIntel,60,5e73ed268c8f27364de746c5,,1,0,81,1,1,80
,,,,,,,,,,,,,,,,,,,,,,,,,,,,,,,,,,,,,,,,,return,6.767000198,WANT,FALSE,,,,,,,105,aigua,Catalan,Sounds/cat_aigua.mp3,2020-06-04_18h02.40.686,TranslationElicitation_eng-prolific,3.2.4,MacIntel,60,5e73ed268c8f27364de746c5,6.767000198,1,0,81,1,1,80
,,,,,,,,,,,,,,,,,,,,,,,,,,,,,,,,,,,,,,,,,,,,,,,,,,,105,aigua,Catalan,Sounds/cat_aigua.mp3,2020-06-04_18h02.40.686,TranslationElicitation_eng-prolific,3.2.4,MacIntel,60,5e73ed268c8f27364de746c5,,1,0,81,1,1,80
,,,,,,,,,,,,,,,,,,,,,,,,,,,,,,,,,,,,,,,,,l,2.625,L,FALSE,,,,,,,148,lleo,Catalan,Sounds/cat_lleo.mp3,2020-06-04_18h02.40.686,TranslationElicitation_eng-prolific,3.2.4,MacIntel,60,5e73ed268c8f27364de746c5,,1,0,81,41,1,80
,,,,,,,,,,,,,,,,,,,,,,,,,,,,,,,,,,,,,,,,,o,2.876000166,LO,FALSE,,,,,,,148,lleo,Catalan,Sounds/cat_lleo.mp3,2020-06-04_18h02.40.686,TranslationElicitation_eng-prolific,3.2.4,MacIntel,60,5e73ed268c8f27364de746c5,,1,0,81,41,1,80
,,,,,,,,,,,,,,,,,,,,,,,,,,,,,,,,,,,,,,,,,r,3.059000015,LOR,FALSE,,,,,,,148,lleo,Catalan,Sounds/cat_lleo.mp3,2020-06-04_18h02.40.686,TranslationElicitation_eng-prolific,3.2.4,MacIntel,60,5e73ed268c8f27364de746c5,,1,0,81,41,1,80
,,,,,,,,,,,,,,,,,,,,,,,,,,,,,,,,,,,,,,,,,e,3.376000166,LORE,FALSE,,,,,,,148,lleo,Catalan,Sounds/cat_lleo.mp3,2020-06-04_18h02.40.686,TranslationElicitation_eng-prolific,3.2.4,MacIntel,60,5e73ed268c8f27364de746c5,,1,0,81,41,1,80
,,,,,,,,,,,,,,,,,,,,,,,,,,,,,,,,,,,,,,,,,return,3.660000086,LORE,FALSE,,,,,,,148,lleo,Catalan,Sounds/cat_lleo.mp3,2020-06-04_18h02.40.686,TranslationElicitation_eng-prolific,3.2.4,MacIntel,60,5e73ed268c8f27364de746c5,3.660000086,1,0,81,41,1,80
,,,,,,,,,,,,,,,,,,,,,,,,,,,,,,,,,,,,,,,,,,,,,,,,,,,148,lleo,Catalan,Sounds/cat_lleo.mp3,2020-06-04_18h02.40.686,TranslationElicitation_eng-prolific,3.2.4,MacIntel,60,5e73ed268c8f27364de746c5,,1,0,81,41,1,80
,,,,,,,,,,,,,,,,,,,,,,,,,,,,,,,,,,,,,,,,,f,1.921000004,F,FALSE,,,,,,,169,plat,Catalan,Sounds/cat_plat.mp3,2020-06-04_18h02.40.686,TranslationElicitation_eng-prolific,3.2.4,MacIntel,60,5e73ed268c8f27364de746c5,,1,0,81,61,1,80
,,,,,,,,,,,,,,,,,,,,,,,,,,,,,,,,,,,,,,,,,l,2.037999868,FL,FALSE,,,,,,,169,plat,Catalan,Sounds/cat_plat.mp3,2020-06-04_18h02.40.686,TranslationElicitation_eng-prolific,3.2.4,MacIntel,60,5e73ed268c8f27364de746c5,,1,0,81,61,1,80
,,,,,,,,,,,,,,,,,,,,,,,,,,,,,,,,,,,,,,,,,y,2.273999929,FLY,FALSE,,,,,,,169,plat,Catalan,Sounds/cat_plat.mp3,2020-06-04_18h02.40.686,TranslationElicitation_eng-prolific,3.2.4,MacIntel,60,5e73ed268c8f27364de746c5,,1,0,81,61,1,80
,,,,,,,,,,,,,,,,,,,,,,,,,,,,,,,,,,,,,,,,,return,2.441999912,FLY,FALSE,,,,,,,169,plat,Catalan,Sounds/cat_plat.mp3,2020-06-04_18h02.40.686,TranslationElicitation_eng-prolific,3.2.4,MacIntel,60,5e73ed268c8f27364de746c5,2.441999912,1,0,81,61,1,80
,,,,,,,,,,,,,,,,,,,,,,,,,,,,,,,,,,,,,,,,,,,,,,,,,,,169,plat,Catalan,Sounds/cat_plat.mp3,2020-06-04_18h02.40.686,TranslationElicitation_eng-prolific,3.2.4,MacIntel,60,5e73ed268c8f27364de746c5,,1,0,81,61,1,80
,,,,,,,,,,,,,,,,,,,,,,,,,,,,,,,,,,,,,,,,,n,3.325999975,N,FALSE,,,,,,,158,nas,Catalan,Sounds/cat_nas.mp3,2020-06-04_18h02.40.686,TranslationElicitation_eng-prolific,3.2.4,MacIntel,60,5e73ed268c8f27364de746c5,,1,0,81,51,1,80
,,,,,,,,,,,,,,,,,,,,,,,,,,,,,,,,,,,,,,,,,o,3.509000063,NO,FALSE,,,,,,,158,nas,Catalan,Sounds/cat_nas.mp3,2020-06-04_18h02.40.686,TranslationElicitation_eng-prolific,3.2.4,MacIntel,60,5e73ed268c8f27364de746c5,,1,0,81,51,1,80
,,,,,,,,,,,,,,,,,,,,,,,,,,,,,,,,,,,,,,,,,backspace,4.130000114,N,TRUE,,,,,,,158,nas,Catalan,Sounds/cat_nas.mp3,2020-06-04_18h02.40.686,TranslationElicitation_eng-prolific,3.2.4,MacIntel,60,5e73ed268c8f27364de746c5,,1,0,81,51,1,80
,,,,,,,,,,,,,,,,,,,,,,,,,,,,,,,,,,,,,,,,,backspace,4.296000004,,TRUE,,,,,,,158,nas,Catalan,Sounds/cat_nas.mp3,2020-06-04_18h02.40.686,TranslationElicitation_eng-prolific,3.2.4,MacIntel,60,5e73ed268c8f27364de746c5,,1,0,81,51,1,80
,,,,,,,,,,,,,,,,,,,,,,,,,,,,,,,,,,,,,,,,,y,5.381999969,Y,TRUE,,,,,,,158,nas,Catalan,Sounds/cat_nas.mp3,2020-06-04_18h02.40.686,TranslationElicitation_eng-prolific,3.2.4,MacIntel,60,5e73ed268c8f27364de746c5,,1,0,81,51,1,80
,,,,,,,,,,,,,,,,,,,,,,,,,,,,,,,,,,,,,,,,,e,5.625,YE,TRUE,,,,,,,158,nas,Catalan,Sounds/cat_nas.mp3,2020-06-04_18h02.40.686,TranslationElicitation_eng-prolific,3.2.4,MacIntel,60,5e73ed268c8f27364de746c5,,1,0,81,51,1,80
,,,,,,,,,,,,,,,,,,,,,,,,,,,,,,,,,,,,,,,,,s,5.86500001,YES,TRUE,,,,,,,158,nas,Catalan,Sounds/cat_nas.mp3,2020-06-04_18h02.40.686,TranslationElicitation_eng-prolific,3.2.4,MacIntel,60,5e73ed268c8f27364de746c5,,1,0,81,51,1,80
,,,,,,,,,,,,,,,,,,,,,,,,,,,,,,,,,,,,,,,,,return,5.982000113,YES,TRUE,,,,,,,158,nas,Catalan,Sounds/cat_nas.mp3,2020-06-04_18h02.40.686,TranslationElicitation_eng-prolific,3.2.4,MacIntel,60,5e73ed268c8f27364de746c5,5.982000113,1,0,81,51,1,80
,,,,,,,,,,,,,,,,,,,,,,,,,,,,,,,,,,,,,,,,,,,,,,,,,,,158,nas,Catalan,Sounds/cat_nas.mp3,2020-06-04_18h02.40.686,TranslationElicitation_eng-prolific,3.2.4,MacIntel,60,5e73ed268c8f27364de746c5,,1,0,81,51,1,80
,,,,,,,,,,,,,,,,,,,,,,,,,,,,,,,,,,,,,,,,,c,3.057999849,C,FALSE,,,,,,,121,camisa,Catalan,Sounds/cat_camisa.mp3,2020-06-04_18h02.40.686,TranslationElicitation_eng-prolific,3.2.4,MacIntel,60,5e73ed268c8f27364de746c5,,1,0,81,16,1,80
,,,,,,,,,,,,,,,,,,,,,,,,,,,,,,,,,,,,,,,,,o,3.207999945,CO,FALSE,,,,,,,121,camisa,Catalan,Sounds/cat_camisa.mp3,2020-06-04_18h02.40.686,TranslationElicitation_eng-prolific,3.2.4,MacIntel,60,5e73ed268c8f27364de746c5,,1,0,81,16,1,80
,,,,,,,,,,,,,,,,,,,,,,,,,,,,,,,,,,,,,,,,,m,3.744999886,COM,FALSE,,,,,,,121,camisa,Catalan,Sounds/cat_camisa.mp3,2020-06-04_18h02.40.686,TranslationElicitation_eng-prolific,3.2.4,MacIntel,60,5e73ed268c8f27364de746c5,,1,0,81,16,1,80
,,,,,,,,,,,,,,,,,,,,,,,,,,,,,,,,,,,,,,,,,e,3.927999973,COME,FALSE,,,,,,,121,camisa,Catalan,Sounds/cat_camisa.mp3,2020-06-04_18h02.40.686,TranslationElicitation_eng-prolific,3.2.4,MacIntel,60,5e73ed268c8f27364de746c5,,1,0,81,16,1,80
,,,,,,,,,,,,,,,,,,,,,,,,,,,,,,,,,,,,,,,,,return,4.095999956,COME,FALSE,,,,,,,121,camisa,Catalan,Sounds/cat_camisa.mp3,2020-06-04_18h02.40.686,TranslationElicitation_eng-prolific,3.2.4,MacIntel,60,5e73ed268c8f27364de746c5,4.095999956,1,0,81,16,1,80
,,,,,,,,,,,,,,,,,,,,,,,,,,,,,,,,,,,,,,,,,,,,,,,,,,,121,camisa,Catalan,Sounds/cat_camisa.mp3,2020-06-04_18h02.40.686,TranslationElicitation_eng-prolific,3.2.4,MacIntel,60,5e73ed268c8f27364de746c5,,1,0,81,16,1,80
,,,,,,,,,,,,,,,,,,,,,,,,,,,,,,,,,,,,,,,,,w,1.873000145,W,FALSE,,,,,,,181,tobogan,Catalan,Sounds/cat_tobogan.mp3,2020-06-04_18h02.40.686,TranslationElicitation_eng-prolific,3.2.4,MacIntel,60,5e73ed268c8f27364de746c5,,1,0,81,72,1,80
,,,,,,,,,,,,,,,,,,,,,,,,,,,,,,,,,,,,,,,,,a,2.105999947,WA,FALSE,,,,,,,181,tobogan,Catalan,Sounds/cat_tobogan.mp3,2020-06-04_18h02.40.686,TranslationElicitation_eng-prolific,3.2.4,MacIntel,60,5e73ed268c8f27364de746c5,,1,0,81,72,1,80
,,,,,,,,,,,,,,,,,,,,,,,,,,,,,,,,,,,,,,,,,n,2.230999947,WAN,FALSE,,,,,,,181,tobogan,Catalan,Sounds/cat_tobogan.mp3,2020-06-04_18h02.40.686,TranslationElicitation_eng-prolific,3.2.4,MacIntel,60,5e73ed268c8f27364de746c5,,1,0,81,72,1,80
,,,,,,,,,,,,,,,,,,,,,,,,,,,,,,,,,,,,,,,,,t,2.457999945,WANT,FALSE,,,,,,,181,tobogan,Catalan,Sounds/cat_tobogan.mp3,2020-06-04_18h02.40.686,TranslationElicitation_eng-prolific,3.2.4,MacIntel,60,5e73ed268c8f27364de746c5,,1,0,81,72,1,80
,,,,,,,,,,,,,,,,,,,,,,,,,,,,,,,,,,,,,,,,,return,2.60800004,WANT,FALSE,,,,,,,181,tobogan,Catalan,Sounds/cat_tobogan.mp3,2020-06-04_18h02.40.686,TranslationElicitation_eng-prolific,3.2.4,MacIntel,60,5e73ed268c8f27364de746c5,2.60800004,1,0,81,72,1,80
,,,,,,,,,,,,,,,,,,,,,,,,,,,,,,,,,,,,,,,,,,,,,,,,,,,181,tobogan,Catalan,Sounds/cat_tobogan.mp3,2020-06-04_18h02.40.686,TranslationElicitation_eng-prolific,3.2.4,MacIntel,60,5e73ed268c8f27364de746c5,,1,0,81,72,1,80
,,,,,,,,,,,,,,,,,,,,,,,,,,,,,,,,,,,,,,,,,p,1.420000076,P,FALSE,,,,,,,163,papallona,Catalan,Sounds/cat_papallona.mp3,2020-06-04_18h02.40.686,TranslationElicitation_eng-prolific,3.2.4,MacIntel,60,5e73ed268c8f27364de746c5,,1,0,81,55,1,80
,,,,,,,,,,,,,,,,,,,,,,,,,,,,,,,,,,,,,,,,,a,1.602999926,PA,FALSE,,,,,,,163,papallona,Catalan,Sounds/cat_papallona.mp3,2020-06-04_18h02.40.686,TranslationElicitation_eng-prolific,3.2.4,MacIntel,60,5e73ed268c8f27364de746c5,,1,0,81,55,1,80
,,,,,,,,,,,,,,,,,,,,,,,,,,,,,,,,,,,,,,,,,p,1.70600009,PAP,FALSE,,,,,,,163,papallona,Catalan,Sounds/cat_papallona.mp3,2020-06-04_18h02.40.686,TranslationElicitation_eng-prolific,3.2.4,MacIntel,60,5e73ed268c8f27364de746c5,,1,0,81,55,1,80
,,,,,,,,,,,,,,,,,,,,,,,,,,,,,,,,,,,,,,,,,a,1.871999979,PAPA,FALSE,,,,,,,163,papallona,Catalan,Sounds/cat_papallona.mp3,2020-06-04_18h02.40.686,TranslationElicitation_eng-prolific,3.2.4,MacIntel,60,5e73ed268c8f27364de746c5,,1,0,81,55,1,80
,,,,,,,,,,,,,,,,,,,,,,,,,,,,,,,,,,,,,,,,,return,2.072000027,PAPA,FALSE,,,,,,,163,papallona,Catalan,Sounds/cat_papallona.mp3,2020-06-04_18h02.40.686,TranslationElicitation_eng-prolific,3.2.4,MacIntel,60,5e73ed268c8f27364de746c5,2.072000027,1,0,81,55,1,80
,,,,,,,,,,,,,,,,,,,,,,,,,,,,,,,,,,,,,,,,,,,,,,,,,,,163,papallona,Catalan,Sounds/cat_papallona.mp3,2020-06-04_18h02.40.686,TranslationElicitation_eng-prolific,3.2.4,MacIntel,60,5e73ed268c8f27364de746c5,,1,0,81,55,1,80
,,,,,,,,,,,,,,,,,,,,,,,,,,,,,,,,,,,,,,,,,b,2.805999994,B,FALSE,,,,,,,168,planta,Catalan,Sounds/cat_planta.mp3,2020-06-04_18h02.40.686,TranslationElicitation_eng-prolific,3.2.4,MacIntel,60,5e73ed268c8f27364de746c5,,1,0,81,60,1,80
,,,,,,,,,,,,,,,,,,,,,,,,,,,,,,,,,,,,,,,,,l,3.14199996,BL,FALSE,,,,,,,168,planta,Catalan,Sounds/cat_planta.mp3,2020-06-04_18h02.40.686,TranslationElicitation_eng-prolific,3.2.4,MacIntel,60,5e73ed268c8f27364de746c5,,1,0,81,60,1,80
,,,,,,,,,,,,,,,,,,,,,,,,,,,,,,,,,,,,,,,,,a,3.35800004,BLA,FALSE,,,,,,,168,planta,Catalan,Sounds/cat_planta.mp3,2020-06-04_18h02.40.686,TranslationElicitation_eng-prolific,3.2.4,MacIntel,60,5e73ed268c8f27364de746c5,,1,0,81,60,1,80
,,,,,,,,,,,,,,,,,,,,,,,,,,,,,,,,,,,,,,,,,c,3.625,BLAC,FALSE,,,,,,,168,planta,Catalan,Sounds/cat_planta.mp3,2020-06-04_18h02.40.686,TranslationElicitation_eng-prolific,3.2.4,MacIntel,60,5e73ed268c8f27364de746c5,,1,0,81,60,1,80
,,,,,,,,,,,,,,,,,,,,,,,,,,,,,,,,,,,,,,,,,k,3.776000023,BLACK,FALSE,,,,,,,168,planta,Catalan,Sounds/cat_planta.mp3,2020-06-04_18h02.40.686,TranslationElicitation_eng-prolific,3.2.4,MacIntel,60,5e73ed268c8f27364de746c5,,1,0,81,60,1,80
,,,,,,,,,,,,,,,,,,,,,,,,,,,,,,,,,,,,,,,,,return,4.029000044,BLACK,FALSE,,,,,,,168,planta,Catalan,Sounds/cat_planta.mp3,2020-06-04_18h02.40.686,TranslationElicitation_eng-prolific,3.2.4,MacIntel,60,5e73ed268c8f27364de746c5,4.029000044,1,0,81,60,1,80
,,,,,,,,,,,,,,,,,,,,,,,,,,,,,,,,,,,,,,,,,,,,,,,,,,,168,planta,Catalan,Sounds/cat_planta.mp3,2020-06-04_18h02.40.686,TranslationElicitation_eng-prolific,3.2.4,MacIntel,60,5e73ed268c8f27364de746c5,,1,0,81,60,1,80
,,,,,,,,,,,,,,,,,,,,,,,,,,,,,,,,,,,,,,,,,r,1.569999933,R,FALSE,,,,,,,131,esponja,Catalan,Sounds/cat_esponja.mp3,2020-06-04_18h02.40.686,TranslationElicitation_eng-prolific,3.2.4,MacIntel,60,5e73ed268c8f27364de746c5,,1,0,81,25,1,80
,,,,,,,,,,,,,,,,,,,,,,,,,,,,,,,,,,,,,,,,,e,1.786999941,RE,FALSE,,,,,,,131,esponja,Catalan,Sounds/cat_esponja.mp3,2020-06-04_18h02.40.686,TranslationElicitation_eng-prolific,3.2.4,MacIntel,60,5e73ed268c8f27364de746c5,,1,0,81,25,1,80
,,,,,,,,,,,,,,,,,,,,,,,,,,,,,,,,,,,,,,,,,s,2.003000021,RES,FALSE,,,,,,,131,esponja,Catalan,Sounds/cat_esponja.mp3,2020-06-04_18h02.40.686,TranslationElicitation_eng-prolific,3.2.4,MacIntel,60,5e73ed268c8f27364de746c5,,1,0,81,25,1,80
,,,,,,,,,,,,,,,,,,,,,,,,,,,,,,,,,,,,,,,,,p,2.120000124,RESP,FALSE,,,,,,,131,esponja,Catalan,Sounds/cat_esponja.mp3,2020-06-04_18h02.40.686,TranslationElicitation_eng-prolific,3.2.4,MacIntel,60,5e73ed268c8f27364de746c5,,1,0,81,25,1,80
,,,,,,,,,,,,,,,,,,,,,,,,,,,,,,,,,,,,,,,,,o,2.353000164,RESPO,FALSE,,,,,,,131,esponja,Catalan,Sounds/cat_esponja.mp3,2020-06-04_18h02.40.686,TranslationElicitation_eng-prolific,3.2.4,MacIntel,60,5e73ed268c8f27364de746c5,,1,0,81,25,1,80
,,,,,,,,,,,,,,,,,,,,,,,,,,,,,,,,,,,,,,,,,n,2.489000082,RESPON,FALSE,,,,,,,131,esponja,Catalan,Sounds/cat_esponja.mp3,2020-06-04_18h02.40.686,TranslationElicitation_eng-prolific,3.2.4,MacIntel,60,5e73ed268c8f27364de746c5,,1,0,81,25,1,80
,,,,,,,,,,,,,,,,,,,,,,,,,,,,,,,,,,,,,,,,,d,3.06400013,RESPOND,FALSE,,,,,,,131,esponja,Catalan,Sounds/cat_esponja.mp3,2020-06-04_18h02.40.686,TranslationElicitation_eng-prolific,3.2.4,MacIntel,60,5e73ed268c8f27364de746c5,,1,0,81,25,1,80
,,,,,,,,,,,,,,,,,,,,,,,,,,,,,,,,,,,,,,,,,return,3.476000071,RESPOND,FALSE,,,,,,,131,esponja,Catalan,Sounds/cat_esponja.mp3,2020-06-04_18h02.40.686,TranslationElicitation_eng-prolific,3.2.4,MacIntel,60,5e73ed268c8f27364de746c5,3.476000071,1,0,81,25,1,80
,,,,,,,,,,,,,,,,,,,,,,,,,,,,,,,,,,,,,,,,,,,,,,,,,,,131,esponja,Catalan,Sounds/cat_esponja.mp3,2020-06-04_18h02.40.686,TranslationElicitation_eng-prolific,3.2.4,MacIntel,60,5e73ed268c8f27364de746c5,,1,0,81,25,1,80
,,,,,,,,,,,,,,,,,,,,,,,,,,,,,,,,,,,,,,,,,b,1.519999981,B,FALSE,,,,,,,118,bou,Catalan,Sounds/cat_bou.mp3,2020-06-04_18h02.40.686,TranslationElicitation_eng-prolific,3.2.4,MacIntel,60,5e73ed268c8f27364de746c5,,1,0,81,13,1,80
,,,,,,,,,,,,,,,,,,,,,,,,,,,,,,,,,,,,,,,,,o,1.703999996,BO,FALSE,,,,,,,118,bou,Catalan,Sounds/cat_bou.mp3,2020-06-04_18h02.40.686,TranslationElicitation_eng-prolific,3.2.4,MacIntel,60,5e73ed268c8f27364de746c5,,1,0,81,13,1,80
,,,,,,,,,,,,,,,,,,,,,,,,,,,,,,,,,,,,,,,,,w,1.888999939,BOW,FALSE,,,,,,,118,bou,Catalan,Sounds/cat_bou.mp3,2020-06-04_18h02.40.686,TranslationElicitation_eng-prolific,3.2.4,MacIntel,60,5e73ed268c8f27364de746c5,,1,0,81,13,1,80
,,,,,,,,,,,,,,,,,,,,,,,,,,,,,,,,,,,,,,,,,return,2.022000074,BOW,FALSE,,,,,,,118,bou,Catalan,Sounds/cat_bou.mp3,2020-06-04_18h02.40.686,TranslationElicitation_eng-prolific,3.2.4,MacIntel,60,5e73ed268c8f27364de746c5,2.022000074,1,0,81,13,1,80
,,,,,,,,,,,,,,,,,,,,,,,,,,,,,,,,,,,,,,,,,,,,,,,,,,,118,bou,Catalan,Sounds/cat_bou.mp3,2020-06-04_18h02.40.686,TranslationElicitation_eng-prolific,3.2.4,MacIntel,60,5e73ed268c8f27364de746c5,,1,0,81,13,1,80
,,,,,,,,,,,,,,,,,,,,,,,,,,,,,,,,,,,,,,,,,b,1.237000227,B,FALSE,,,,,,,155,moneda,Catalan,Sounds/cat_moneda.mp3,2020-06-04_18h02.40.686,TranslationElicitation_eng-prolific,3.2.4,MacIntel,60,5e73ed268c8f27364de746c5,,1,0,81,48,1,80
,,,,,,,,,,,,,,,,,,,,,,,,,,,,,,,,,,,,,,,,,r,1.440000057,BR,FALSE,,,,,,,155,moneda,Catalan,Sounds/cat_moneda.mp3,2020-06-04_18h02.40.686,TranslationElicitation_eng-prolific,3.2.4,MacIntel,60,5e73ed268c8f27364de746c5,,1,0,81,48,1,80
,,,,,,,,,,,,,,,,,,,,,,,,,,,,,,,,,,,,,,,,,u,1.622000217,BRU,FALSE,,,,,,,155,moneda,Catalan,Sounds/cat_moneda.mp3,2020-06-04_18h02.40.686,TranslationElicitation_eng-prolific,3.2.4,MacIntel,60,5e73ed268c8f27364de746c5,,1,0,81,48,1,80
,,,,,,,,,,,,,,,,,,,,,,,,,,,,,,,,,,,,,,,,,n,1.805000067,BRUN,FALSE,,,,,,,155,moneda,Catalan,Sounds/cat_moneda.mp3,2020-06-04_18h02.40.686,TranslationElicitation_eng-prolific,3.2.4,MacIntel,60,5e73ed268c8f27364de746c5,,1,0,81,48,1,80
,,,,,,,,,,,,,,,,,,,,,,,,,,,,,,,,,,,,,,,,,e,1.95600009,BRUNE,FALSE,,,,,,,155,moneda,Catalan,Sounds/cat_moneda.mp3,2020-06-04_18h02.40.686,TranslationElicitation_eng-prolific,3.2.4,MacIntel,60,5e73ed268c8f27364de746c5,,1,0,81,48,1,80
,,,,,,,,,,,,,,,,,,,,,,,,,,,,,,,,,,,,,,,,,t,2.141000032,BRUNET,FALSE,,,,,,,155,moneda,Catalan,Sounds/cat_moneda.mp3,2020-06-04_18h02.40.686,TranslationElicitation_eng-prolific,3.2.4,MacIntel,60,5e73ed268c8f27364de746c5,,1,0,81,48,1,80
,,,,,,,,,,,,,,,,,,,,,,,,,,,,,,,,,,,,,,,,,t,2.24000001,BRUNETT,FALSE,,,,,,,155,moneda,Catalan,Sounds/cat_moneda.mp3,2020-06-04_18h02.40.686,TranslationElicitation_eng-prolific,3.2.4,MacIntel,60,5e73ed268c8f27364de746c5,,1,0,81,48,1,80
,,,,,,,,,,,,,,,,,,,,,,,,,,,,,,,,,,,,,,,,,e,2.357000113,BRUNETTE,FALSE,,,,,,,155,moneda,Catalan,Sounds/cat_moneda.mp3,2020-06-04_18h02.40.686,TranslationElicitation_eng-prolific,3.2.4,MacIntel,60,5e73ed268c8f27364de746c5,,1,0,81,48,1,80
,,,,,,,,,,,,,,,,,,,,,,,,,,,,,,,,,,,,,,,,,return,2.592000008,BRUNETTE,FALSE,,,,,,,155,moneda,Catalan,Sounds/cat_moneda.mp3,2020-06-04_18h02.40.686,TranslationElicitation_eng-prolific,3.2.4,MacIntel,60,5e73ed268c8f27364de746c5,2.592000008,1,0,81,48,1,80
,,,,,,,,,,,,,,,,,,,,,,,,,,,,,,,,,,,,,,,,,,,,,,,,,,,155,moneda,Catalan,Sounds/cat_moneda.mp3,2020-06-04_18h02.40.686,TranslationElicitation_eng-prolific,3.2.4,MacIntel,60,5e73ed268c8f27364de746c5,,1,0,81,48,1,80
,,,,,,,,,,,,,,,,,,,,,,,,,,,,,,,,,,,,,,,,,o,1.601999998,O,FALSE,,,,,,,125,colom,Catalan,Sounds/cat_colom.mp3,2020-06-04_18h02.40.686,TranslationElicitation_eng-prolific,3.2.4,MacIntel,60,5e73ed268c8f27364de746c5,,1,0,81,20,1,80
,,,,,,,,,,,,,,,,,,,,,,,,,,,,,,,,,,,,,,,,,l,1.801999807,OL,FALSE,,,,,,,125,colom,Catalan,Sounds/cat_colom.mp3,2020-06-04_18h02.40.686,TranslationElicitation_eng-prolific,3.2.4,MacIntel,60,5e73ed268c8f27364de746c5,,1,0,81,20,1,80
,,,,,,,,,,,,,,,,,,,,,,,,,,,,,,,,,,,,,,,,,o,1.91899991,OLO,FALSE,,,,,,,125,colom,Catalan,Sounds/cat_colom.mp3,2020-06-04_18h02.40.686,TranslationElicitation_eng-prolific,3.2.4,MacIntel,60,5e73ed268c8f27364de746c5,,1,0,81,20,1,80
,,,,,,,,,,,,,,,,,,,,,,,,,,,,,,,,,,,,,,,,,n,2.220000029,OLON,FALSE,,,,,,,125,colom,Catalan,Sounds/cat_colom.mp3,2020-06-04_18h02.40.686,TranslationElicitation_eng-prolific,3.2.4,MacIntel,60,5e73ed268c8f27364de746c5,,1,0,81,20,1,80
,,,,,,,,,,,,,,,,,,,,,,,,,,,,,,,,,,,,,,,,,backspace,2.804999828,OLO,TRUE,,,,,,,125,colom,Catalan,Sounds/cat_colom.mp3,2020-06-04_18h02.40.686,TranslationElicitation_eng-prolific,3.2.4,MacIntel,60,5e73ed268c8f27364de746c5,,1,0,81,20,1,80
,,,,,,,,,,,,,,,,,,,,,,,,,,,,,,,,,,,,,,,,,backspace,2.971999884,OL,TRUE,,,,,,,125,colom,Catalan,Sounds/cat_colom.mp3,2020-06-04_18h02.40.686,TranslationElicitation_eng-prolific,3.2.4,MacIntel,60,5e73ed268c8f27364de746c5,,1,0,81,20,1,80
,,,,,,,,,,,,,,,,,,,,,,,,,,,,,,,,,,,,,,,,,backspace,3.141000032,O,TRUE,,,,,,,125,colom,Catalan,Sounds/cat_colom.mp3,2020-06-04_18h02.40.686,TranslationElicitation_eng-prolific,3.2.4,MacIntel,60,5e73ed268c8f27364de746c5,,1,0,81,20,1,80
,,,,,,,,,,,,,,,,,,,,,,,,,,,,,,,,,,,,,,,,,backspace,3.289000034,,TRUE,,,,,,,125,colom,Catalan,Sounds/cat_colom.mp3,2020-06-04_18h02.40.686,TranslationElicitation_eng-prolific,3.2.4,MacIntel,60,5e73ed268c8f27364de746c5,,1,0,81,20,1,80
,,,,,,,,,,,,,,,,,,,,,,,,,,,,,,,,,,,,,,,,,c,3.825999975,C,TRUE,,,,,,,125,colom,Catalan,Sounds/cat_colom.mp3,2020-06-04_18h02.40.686,TranslationElicitation_eng-prolific,3.2.4,MacIntel,60,5e73ed268c8f27364de746c5,,1,0,81,20,1,80
,,,,,,,,,,,,,,,,,,,,,,,,,,,,,,,,,,,,,,,,,o,4.008999825,CO,TRUE,,,,,,,125,colom,Catalan,Sounds/cat_colom.mp3,2020-06-04_18h02.40.686,TranslationElicitation_eng-prolific,3.2.4,MacIntel,60,5e73ed268c8f27364de746c5,,1,0,81,20,1,80
,,,,,,,,,,,,,,,,,,,,,,,,,,,,,,,,,,,,,,,,,l,4.176999807,COL,TRUE,,,,,,,125,colom,Catalan,Sounds/cat_colom.mp3,2020-06-04_18h02.40.686,TranslationElicitation_eng-prolific,3.2.4,MacIntel,60,5e73ed268c8f27364de746c5,,1,0,81,20,1,80
,,,,,,,,,,,,,,,,,,,,,,,,,,,,,,,,,,,,,,,,,o,4.342000008,COLO,TRUE,,,,,,,125,colom,Catalan,Sounds/cat_colom.mp3,2020-06-04_18h02.40.686,TranslationElicitation_eng-prolific,3.2.4,MacIntel,60,5e73ed268c8f27364de746c5,,1,0,81,20,1,80
,,,,,,,,,,,,,,,,,,,,,,,,,,,,,,,,,,,,,,,,,n,4.510999918,COLON,TRUE,,,,,,,125,colom,Catalan,Sounds/cat_colom.mp3,2020-06-04_18h02.40.686,TranslationElicitation_eng-prolific,3.2.4,MacIntel,60,5e73ed268c8f27364de746c5,,1,0,81,20,1,80
,,,,,,,,,,,,,,,,,,,,,,,,,,,,,,,,,,,,,,,,,return,4.778999805,COLON,TRUE,,,,,,,125,colom,Catalan,Sounds/cat_colom.mp3,2020-06-04_18h02.40.686,TranslationElicitation_eng-prolific,3.2.4,MacIntel,60,5e73ed268c8f27364de746c5,4.778999805,1,0,81,20,1,80
,,,,,,,,,,,,,,,,,,,,,,,,,,,,,,,,,,,,,,,,,,,,,,,,,,,125,colom,Catalan,Sounds/cat_colom.mp3,2020-06-04_18h02.40.686,TranslationElicitation_eng-prolific,3.2.4,MacIntel,60,5e73ed268c8f27364de746c5,,1,0,81,20,1,80
,,,,,,,,,,,,,,,,,,,,,,,,,,,,,,,,,,,,,,,,,o,1.505000114,O,FALSE,,,,,,,116,bolquer,Catalan,Sounds/cat_bolquer.mp3,2020-06-04_18h02.40.686,TranslationElicitation_eng-prolific,3.2.4,MacIntel,60,5e73ed268c8f27364de746c5,,1,0,81,11,1,80
,,,,,,,,,,,,,,,,,,,,,,,,,,,,,,,,,,,,,,,,,u,1.738000154,OU,FALSE,,,,,,,116,bolquer,Catalan,Sounds/cat_bolquer.mp3,2020-06-04_18h02.40.686,TranslationElicitation_eng-prolific,3.2.4,MacIntel,60,5e73ed268c8f27364de746c5,,1,0,81,11,1,80
,,,,,,,,,,,,,,,,,,,,,,,,,,,,,,,,,,,,,,,,,q,2.256000042,OUQ,FALSE,,,,,,,116,bolquer,Catalan,Sounds/cat_bolquer.mp3,2020-06-04_18h02.40.686,TranslationElicitation_eng-prolific,3.2.4,MacIntel,60,5e73ed268c8f27364de746c5,,1,0,81,11,1,80
,,,,,,,,,,,,,,,,,,,,,,,,,,,,,,,,,,,,,,,,,u,2.59100008,OUQU,FALSE,,,,,,,116,bolquer,Catalan,Sounds/cat_bolquer.mp3,2020-06-04_18h02.40.686,TranslationElicitation_eng-prolific,3.2.4,MacIntel,60,5e73ed268c8f27364de746c5,,1,0,81,11,1,80
,,,,,,,,,,,,,,,,,,,,,,,,,,,,,,,,,,,,,,,,,backspace,3.393000126,OUQ,TRUE,,,,,,,116,bolquer,Catalan,Sounds/cat_bolquer.mp3,2020-06-04_18h02.40.686,TranslationElicitation_eng-prolific,3.2.4,MacIntel,60,5e73ed268c8f27364de746c5,,1,0,81,11,1,80
,,,,,,,,,,,,,,,,,,,,,,,,,,,,,,,,,,,,,,,,,backspace,3.527000189,OU,TRUE,,,,,,,116,bolquer,Catalan,Sounds/cat_bolquer.mp3,2020-06-04_18h02.40.686,TranslationElicitation_eng-prolific,3.2.4,MacIntel,60,5e73ed268c8f27364de746c5,,1,0,81,11,1,80
,,,,,,,,,,,,,,,,,,,,,,,,,,,,,,,,,,,,,,,,,backspace,3.678000212,O,TRUE,,,,,,,116,bolquer,Catalan,Sounds/cat_bolquer.mp3,2020-06-04_18h02.40.686,TranslationElicitation_eng-prolific,3.2.4,MacIntel,60,5e73ed268c8f27364de746c5,,1,0,81,11,1,80
,,,,,,,,,,,,,,,,,,,,,,,,,,,,,,,,,,,,,,,,,backspace,3.812000036,,TRUE,,,,,,,116,bolquer,Catalan,Sounds/cat_bolquer.mp3,2020-06-04_18h02.40.686,TranslationElicitation_eng-prolific,3.2.4,MacIntel,60,5e73ed268c8f27364de746c5,,1,0,81,11,1,80
,,,,,,,,,,,,,,,,,,,,,,,,,,,,,,,,,,,,,,,,,b,4.447000027,B,TRUE,,,,,,,116,bolquer,Catalan,Sounds/cat_bolquer.mp3,2020-06-04_18h02.40.686,TranslationElicitation_eng-prolific,3.2.4,MacIntel,60,5e73ed268c8f27364de746c5,,1,0,81,11,1,80
,,,,,,,,,,,,,,,,,,,,,,,,,,,,,,,,,,,,,,,,,o,4.68900013,BO,TRUE,,,,,,,116,bolquer,Catalan,Sounds/cat_bolquer.mp3,2020-06-04_18h02.40.686,TranslationElicitation_eng-prolific,3.2.4,MacIntel,60,5e73ed268c8f27364de746c5,,1,0,81,11,1,80
,,,,,,,,,,,,,,,,,,,,,,,,,,,,,,,,,,,,,,,,,u,4.864000082,BOU,TRUE,,,,,,,116,bolquer,Catalan,Sounds/cat_bolquer.mp3,2020-06-04_18h02.40.686,TranslationElicitation_eng-prolific,3.2.4,MacIntel,60,5e73ed268c8f27364de746c5,,1,0,81,11,1,80
,,,,,,,,,,,,,,,,,,,,,,,,,,,,,,,,,,,,,,,,,q,5.4150002,BOUQ,TRUE,,,,,,,116,bolquer,Catalan,Sounds/cat_bolquer.mp3,2020-06-04_18h02.40.686,TranslationElicitation_eng-prolific,3.2.4,MacIntel,60,5e73ed268c8f27364de746c5,,1,0,81,11,1,80
,,,,,,,,,,,,,,,,,,,,,,,,,,,,,,,,,,,,,,,,,e,5.866000175,BOUQE,TRUE,,,,,,,116,bolquer,Catalan,Sounds/cat_bolquer.mp3,2020-06-04_18h02.40.686,TranslationElicitation_eng-prolific,3.2.4,MacIntel,60,5e73ed268c8f27364de746c5,,1,0,81,11,1,80
,,,,,,,,,,,,,,,,,,,,,,,,,,,,,,,,,,,,,,,,,u,6.351000071,BOUQEU,TRUE,,,,,,,116,bolquer,Catalan,Sounds/cat_bolquer.mp3,2020-06-04_18h02.40.686,TranslationElicitation_eng-prolific,3.2.4,MacIntel,60,5e73ed268c8f27364de746c5,,1,0,81,11,1,80
,,,,,,,,,,,,,,,,,,,,,,,,,,,,,,,,,,,,,,,,,r,6.870000124,BOUQEUR,TRUE,,,,,,,116,bolquer,Catalan,Sounds/cat_bolquer.mp3,2020-06-04_18h02.40.686,TranslationElicitation_eng-prolific,3.2.4,MacIntel,60,5e73ed268c8f27364de746c5,,1,0,81,11,1,80
,,,,,,,,,,,,,,,,,,,,,,,,,,,,,,,,,,,,,,,,,backspace,8.340000153,BOUQEU,TRUE,,,,,,,116,bolquer,Catalan,Sounds/cat_bolquer.mp3,2020-06-04_18h02.40.686,TranslationElicitation_eng-prolific,3.2.4,MacIntel,60,5e73ed268c8f27364de746c5,,1,0,81,11,1,80
,,,,,,,,,,,,,,,,,,,,,,,,,,,,,,,,,,,,,,,,,t,8.5400002,BOUQEUT,TRUE,,,,,,,116,bolquer,Catalan,Sounds/cat_bolquer.mp3,2020-06-04_18h02.40.686,TranslationElicitation_eng-prolific,3.2.4,MacIntel,60,5e73ed268c8f27364de746c5,,1,0,81,11,1,80
,,,,,,,,,,,,,,,,,,,,,,,,,,,,,,,,,,,,,,,,,return,8.758000135,BOUQEUT,TRUE,,,,,,,116,bolquer,Catalan,Sounds/cat_bolquer.mp3,2020-06-04_18h02.40.686,TranslationElicitation_eng-prolific,3.2.4,MacIntel,60,5e73ed268c8f27364de746c5,8.758000135,1,0,81,11,1,80
,,,,,,,,,,,,,,,,,,,,,,,,,,,,,,,,,,,,,,,,,,,,,,,,,,,116,bolquer,Catalan,Sounds/cat_bolquer.mp3,2020-06-04_18h02.40.686,TranslationElicitation_eng-prolific,3.2.4,MacIntel,60,5e73ed268c8f27364de746c5,,1,0,81,11,1,80
,,,,,,,,,,,,,,,,,,,,,,,,,,,,,,,,,,,,,,,,,b,3.817000151,B,FALSE,,,,,,,111,bibero,Catalan,Sounds/cat_bibero.mp3,2020-06-04_18h02.40.686,TranslationElicitation_eng-prolific,3.2.4,MacIntel,60,5e73ed268c8f27364de746c5,,1,0,81,6,1,80
,,,,,,,,,,,,,,,,,,,,,,,,,,,,,,,,,,,,,,,,,a,3.976999998,BA,FALSE,,,,,,,111,bibero,Catalan,Sounds/cat_bibero.mp3,2020-06-04_18h02.40.686,TranslationElicitation_eng-prolific,3.2.4,MacIntel,60,5e73ed268c8f27364de746c5,,1,0,81,6,1,80
,,,,,,,,,,,,,,,,,,,,,,,,,,,,,,,,,,,,,,,,,l,4.144000053,BAL,FALSE,,,,,,,111,bibero,Catalan,Sounds/cat_bibero.mp3,2020-06-04_18h02.40.686,TranslationElicitation_eng-prolific,3.2.4,MacIntel,60,5e73ed268c8f27364de746c5,,1,0,81,6,1,80
,,,,,,,,,,,,,,,,,,,,,,,,,,,,,,,,,,,,,,,,,l,4.294000149,BALL,FALSE,,,,,,,111,bibero,Catalan,Sounds/cat_bibero.mp3,2020-06-04_18h02.40.686,TranslationElicitation_eng-prolific,3.2.4,MacIntel,60,5e73ed268c8f27364de746c5,,1,0,81,6,1,80
,,,,,,,,,,,,,,,,,,,,,,,,,,,,,,,,,,,,,,,,,return,4.565999985,BALL,FALSE,,,,,,,111,bibero,Catalan,Sounds/cat_bibero.mp3,2020-06-04_18h02.40.686,TranslationElicitation_eng-prolific,3.2.4,MacIntel,60,5e73ed268c8f27364de746c5,4.565999985,1,0,81,6,1,80
,,,,,,,,,,,,,,,,,,,,,,,,,,,,,,,,,,,,,,,,,,,,,,,,,,,111,bibero,Catalan,Sounds/cat_bibero.mp3,2020-06-04_18h02.40.686,TranslationElicitation_eng-prolific,3.2.4,MacIntel,60,5e73ed268c8f27364de746c5,,1,0,81,6,1,80
,,,,,,,,,,,,,,,,,,,,,,,,,,,,,,,,,,,,,,,,,b,3.50999999,B,FALSE,,,,,,,178,taronja,Catalan,Sounds/cat_taronja.mp3,2020-06-04_18h02.40.686,TranslationElicitation_eng-prolific,3.2.4,MacIntel,60,5e73ed268c8f27364de746c5,,1,0,81,70,1,80
,,,,,,,,,,,,,,,,,,,,,,,,,,,,,,,,,,,,,,,,,i,3.629000187,BI,FALSE,,,,,,,178,taronja,Catalan,Sounds/cat_taronja.mp3,2020-06-04_18h02.40.686,TranslationElicitation_eng-prolific,3.2.4,MacIntel,60,5e73ed268c8f27364de746c5,,1,0,81,70,1,80
,,,,,,,,,,,,,,,,,,,,,,,,,,,,,,,,,,,,,,,,,g,3.845000029,BIG,FALSE,,,,,,,178,taronja,Catalan,Sounds/cat_taronja.mp3,2020-06-04_18h02.40.686,TranslationElicitation_eng-prolific,3.2.4,MacIntel,60,5e73ed268c8f27364de746c5,,1,0,81,70,1,80
,,,,,,,,,,,,,,,,,,,,,,,,,,,,,,,,,,,,,,,,,return,4.095999956,BIG,FALSE,,,,,,,178,taronja,Catalan,Sounds/cat_taronja.mp3,2020-06-04_18h02.40.686,TranslationElicitation_eng-prolific,3.2.4,MacIntel,60,5e73ed268c8f27364de746c5,4.095999956,1,0,81,70,1,80
,,,,,,,,,,,,,,,,,,,,,,,,,,,,,,,,,,,,,,,,,,,,,,,,,,,178,taronja,Catalan,Sounds/cat_taronja.mp3,2020-06-04_18h02.40.686,TranslationElicitation_eng-prolific,3.2.4,MacIntel,60,5e73ed268c8f27364de746c5,,1,0,81,70,1,80
,,,,,,,,,,,,,,,,,,,,,,,,,,,,,,,,,,,,,,,,,m,3.209000111,M,FALSE,,,,,,,152,ma,Catalan,Sounds/cat_ma.mp3,2020-06-04_18h02.40.686,TranslationElicitation_eng-prolific,3.2.4,MacIntel,60,5e73ed268c8f27364de746c5,,1,0,81,45,1,80
,,,,,,,,,,,,,,,,,,,,,,,,,,,,,,,,,,,,,,,,,u,3.542999983,MU,FALSE,,,,,,,152,ma,Catalan,Sounds/cat_ma.mp3,2020-06-04_18h02.40.686,TranslationElicitation_eng-prolific,3.2.4,MacIntel,60,5e73ed268c8f27364de746c5,,1,0,81,45,1,80
,,,,,,,,,,,,,,,,,,,,,,,,,,,,,,,,,,,,,,,,,m,3.745000124,MUM,FALSE,,,,,,,152,ma,Catalan,Sounds/cat_ma.mp3,2020-06-04_18h02.40.686,TranslationElicitation_eng-prolific,3.2.4,MacIntel,60,5e73ed268c8f27364de746c5,,1,0,81,45,1,80
,,,,,,,,,,,,,,,,,,,,,,,,,,,,,,,,,,,,,,,,,return,4.04399991,MUM,FALSE,,,,,,,152,ma,Catalan,Sounds/cat_ma.mp3,2020-06-04_18h02.40.686,TranslationElicitation_eng-prolific,3.2.4,MacIntel,60,5e73ed268c8f27364de746c5,4.04399991,1,0,81,45,1,80
,,,,,,,,,,,,,,,,,,,,,,,,,,,,,,,,,,,,,,,,,,,,,,,,,,,152,ma,Catalan,Sounds/cat_ma.mp3,2020-06-04_18h02.40.686,TranslationElicitation_eng-prolific,3.2.4,MacIntel,60,5e73ed268c8f27364de746c5,,1,0,81,45,1,80
,,,,,,,,,,,,,,,,,,,,,,,,,,,,,,,,,,,,,,,,,g,3.593000174,G,FALSE,,,,,,,139,galleda,Catalan,Sounds/cat_galleda.mp3,2020-06-04_18h02.40.686,TranslationElicitation_eng-prolific,3.2.4,MacIntel,60,5e73ed268c8f27364de746c5,,1,0,81,33,1,80
,,,,,,,,,,,,,,,,,,,,,,,,,,,,,,,,,,,,,,,,,r,3.893000126,GR,FALSE,,,,,,,139,galleda,Catalan,Sounds/cat_galleda.mp3,2020-06-04_18h02.40.686,TranslationElicitation_eng-prolific,3.2.4,MacIntel,60,5e73ed268c8f27364de746c5,,1,0,81,33,1,80
,,,,,,,,,,,,,,,,,,,,,,,,,,,,,,,,,,,,,,,,,a,4.144000053,GRA,FALSE,,,,,,,139,galleda,Catalan,Sounds/cat_galleda.mp3,2020-06-04_18h02.40.686,TranslationElicitation_eng-prolific,3.2.4,MacIntel,60,5e73ed268c8f27364de746c5,,1,0,81,33,1,80
,,,,,,,,,,,,,,,,,,,,,,,,,,,,,,,,,,,,,,,,,n,4.310000181,GRAN,FALSE,,,,,,,139,galleda,Catalan,Sounds/cat_galleda.mp3,2020-06-04_18h02.40.686,TranslationElicitation_eng-prolific,3.2.4,MacIntel,60,5e73ed268c8f27364de746c5,,1,0,81,33,1,80
,,,,,,,,,,,,,,,,,,,,,,,,,,,,,,,,,,,,,,,,,s,4.461000204,GRANS,FALSE,,,,,,,139,galleda,Catalan,Sounds/cat_galleda.mp3,2020-06-04_18h02.40.686,TranslationElicitation_eng-prolific,3.2.4,MacIntel,60,5e73ed268c8f27364de746c5,,1,0,81,33,1,80
,,,,,,,,,,,,,,,,,,,,,,,,,,,,,,,,,,,,,,,,,backspace,5.078999996,GRAN,TRUE,,,,,,,139,galleda,Catalan,Sounds/cat_galleda.mp3,2020-06-04_18h02.40.686,TranslationElicitation_eng-prolific,3.2.4,MacIntel,60,5e73ed268c8f27364de746c5,,1,0,81,33,1,80
,,,,,,,,,,,,,,,,,,,,,,,,,,,,,,,,,,,,,,,,,d,5.448000193,GRAND,TRUE,,,,,,,139,galleda,Catalan,Sounds/cat_galleda.mp3,2020-06-04_18h02.40.686,TranslationElicitation_eng-prolific,3.2.4,MacIntel,60,5e73ed268c8f27364de746c5,,1,0,81,33,1,80
,,,,,,,,,,,,,,,,,,,,,,,,,,,,,,,,,,,,,,,,,return,5.700000048,GRAND,TRUE,,,,,,,139,galleda,Catalan,Sounds/cat_galleda.mp3,2020-06-04_18h02.40.686,TranslationElicitation_eng-prolific,3.2.4,MacIntel,60,5e73ed268c8f27364de746c5,5.700000048,1,0,81,33,1,80
,,,,,,,,,,,,,,,,,,,,,,,,,,,,,,,,,,,,,,,,,,,,,,,,,,,139,galleda,Catalan,Sounds/cat_galleda.mp3,2020-06-04_18h02.40.686,TranslationElicitation_eng-prolific,3.2.4,MacIntel,60,5e73ed268c8f27364de746c5,,1,0,81,33,1,80
,,,,,,,,,,,,,,,,,,,,,,,,,,,,,,,,,,,,,,,,,g,1.855000019,G,FALSE,,,,,,,145,got,Catalan,Sounds/cat_got.mp3,2020-06-04_18h02.40.686,TranslationElicitation_eng-prolific,3.2.4,MacIntel,60,5e73ed268c8f27364de746c5,,1,0,81,39,1,80
,,,,,,,,,,,,,,,,,,,,,,,,,,,,,,,,,,,,,,,,,o,2.004000187,GO,FALSE,,,,,,,145,got,Catalan,Sounds/cat_got.mp3,2020-06-04_18h02.40.686,TranslationElicitation_eng-prolific,3.2.4,MacIntel,60,5e73ed268c8f27364de746c5,,1,0,81,39,1,80
,,,,,,,,,,,,,,,,,,,,,,,,,,,,,,,,,,,,,,,,,d,2.17200017,GOD,FALSE,,,,,,,145,got,Catalan,Sounds/cat_got.mp3,2020-06-04_18h02.40.686,TranslationElicitation_eng-prolific,3.2.4,MacIntel,60,5e73ed268c8f27364de746c5,,1,0,81,39,1,80
,,,,,,,,,,,,,,,,,,,,,,,,,,,,,,,,,,,,,,,,,return,2.30700016,GOD,FALSE,,,,,,,145,got,Catalan,Sounds/cat_got.mp3,2020-06-04_18h02.40.686,TranslationElicitation_eng-prolific,3.2.4,MacIntel,60,5e73ed268c8f27364de746c5,2.30700016,1,0,81,39,1,80
,,,,,,,,,,,,,,,,,,,,,,,,,,,,,,,,,,,,,,,,,,,,,,,,,,,145,got,Catalan,Sounds/cat_got.mp3,2020-06-04_18h02.40.686,TranslationElicitation_eng-prolific,3.2.4,MacIntel,60,5e73ed268c8f27364de746c5,,1,0,81,39,1,80
,,,,,,,,,,,,,,,,,,,,,,,,,,,,,,,,,,,,,,,,,t,1.72300005,T,FALSE,,,,,,,183,tren,Catalan,Sounds/cat_tren.mp3,2020-06-04_18h02.40.686,TranslationElicitation_eng-prolific,3.2.4,MacIntel,60,5e73ed268c8f27364de746c5,,1,0,81,74,1,80
,,,,,,,,,,,,,,,,,,,,,,,,,,,,,,,,,,,,,,,,,r,1.924000025,TR,FALSE,,,,,,,183,tren,Catalan,Sounds/cat_tren.mp3,2020-06-04_18h02.40.686,TranslationElicitation_eng-prolific,3.2.4,MacIntel,60,5e73ed268c8f27364de746c5,,1,0,81,74,1,80
,,,,,,,,,,,,,,,,,,,,,,,,,,,,,,,,,,,,,,,,,e,2.20600009,TRE,FALSE,,,,,,,183,tren,Catalan,Sounds/cat_tren.mp3,2020-06-04_18h02.40.686,TranslationElicitation_eng-prolific,3.2.4,MacIntel,60,5e73ed268c8f27364de746c5,,1,0,81,74,1,80
,,,,,,,,,,,,,,,,,,,,,,,,,,,,,,,,,,,,,,,,,n,2.423000097,TREN,FALSE,,,,,,,183,tren,Catalan,Sounds/cat_tren.mp3,2020-06-04_18h02.40.686,TranslationElicitation_eng-prolific,3.2.4,MacIntel,60,5e73ed268c8f27364de746c5,,1,0,81,74,1,80
,,,,,,,,,,,,,,,,,,,,,,,,,,,,,,,,,,,,,,,,,d,3.243000031,TREND,FALSE,,,,,,,183,tren,Catalan,Sounds/cat_tren.mp3,2020-06-04_18h02.40.686,TranslationElicitation_eng-prolific,3.2.4,MacIntel,60,5e73ed268c8f27364de746c5,,1,0,81,74,1,80
,,,,,,,,,,,,,,,,,,,,,,,,,,,,,,,,,,,,,,,,,return,3.40899992,TREND,FALSE,,,,,,,183,tren,Catalan,Sounds/cat_tren.mp3,2020-06-04_18h02.40.686,TranslationElicitation_eng-prolific,3.2.4,MacIntel,60,5e73ed268c8f27364de746c5,3.40899992,1,0,81,74,1,80
,,,,,,,,,,,,,,,,,,,,,,,,,,,,,,,,,,,,,,,,,,,,,,,,,,,183,tren,Catalan,Sounds/cat_tren.mp3,2020-06-04_18h02.40.686,TranslationElicitation_eng-prolific,3.2.4,MacIntel,60,5e73ed268c8f27364de746c5,,1,0,81,74,1,80
,,,,,,,,,,,,,,,,,,,,,,,,,,,,,,,,,,,,,,,,,c,3.242000103,C,FALSE,,,,,,,119,caixa,Catalan,Sounds/cat_caixa.mp3,2020-06-04_18h02.40.686,TranslationElicitation_eng-prolific,3.2.4,MacIntel,60,5e73ed268c8f27364de746c5,,1,0,81,14,1,80
,,,,,,,,,,,,,,,,,,,,,,,,,,,,,,,,,,,,,,,,,a,3.626000166,CA,FALSE,,,,,,,119,caixa,Catalan,Sounds/cat_caixa.mp3,2020-06-04_18h02.40.686,TranslationElicitation_eng-prolific,3.2.4,MacIntel,60,5e73ed268c8f27364de746c5,,1,0,81,14,1,80
,,,,,,,,,,,,,,,,,,,,,,,,,,,,,,,,,,,,,,,,,s,3.844000101,CAS,FALSE,,,,,,,119,caixa,Catalan,Sounds/cat_caixa.mp3,2020-06-04_18h02.40.686,TranslationElicitation_eng-prolific,3.2.4,MacIntel,60,5e73ed268c8f27364de746c5,,1,0,81,14,1,80
,,,,,,,,,,,,,,,,,,,,,,,,,,,,,,,,,,,,,,,,,h,3.978000164,CASH,FALSE,,,,,,,119,caixa,Catalan,Sounds/cat_caixa.mp3,2020-06-04_18h02.40.686,TranslationElicitation_eng-prolific,3.2.4,MacIntel,60,5e73ed268c8f27364de746c5,,1,0,81,14,1,80
,,,,,,,,,,,,,,,,,,,,,,,,,,,,,,,,,,,,,,,,,return,4.263000011,CASH,FALSE,,,,,,,119,caixa,Catalan,Sounds/cat_caixa.mp3,2020-06-04_18h02.40.686,TranslationElicitation_eng-prolific,3.2.4,MacIntel,60,5e73ed268c8f27364de746c5,4.263000011,1,0,81,14,1,80
,,,,,,,,,,,,,,,,,,,,,,,,,,,,,,,,,,,,,,,,,,,,,,,,,,,119,caixa,Catalan,Sounds/cat_caixa.mp3,2020-06-04_18h02.40.686,TranslationElicitation_eng-prolific,3.2.4,MacIntel,60,5e73ed268c8f27364de746c5,,1,0,81,14,1,80
,,,,,,,,,,,,,,,,,,,,,,,,,,,,,,,,,,,,,,,,,f,1.352999926,F,FALSE,,,,,,,134,flor,Catalan,Sounds/cat_flor.mp3,2020-06-04_18h02.40.686,TranslationElicitation_eng-prolific,3.2.4,MacIntel,60,5e73ed268c8f27364de746c5,,1,0,81,28,1,80
,,,,,,,,,,,,,,,,,,,,,,,,,,,,,,,,,,,,,,,,,l,1.520999908,FL,FALSE,,,,,,,134,flor,Catalan,Sounds/cat_flor.mp3,2020-06-04_18h02.40.686,TranslationElicitation_eng-prolific,3.2.4,MacIntel,60,5e73ed268c8f27364de746c5,,1,0,81,28,1,80
,,,,,,,,,,,,,,,,,,,,,,,,,,,,,,,,,,,,,,,,,o,1.688999891,FLO,FALSE,,,,,,,134,flor,Catalan,Sounds/cat_flor.mp3,2020-06-04_18h02.40.686,TranslationElicitation_eng-prolific,3.2.4,MacIntel,60,5e73ed268c8f27364de746c5,,1,0,81,28,1,80
,,,,,,,,,,,,,,,,,,,,,,,,,,,,,,,,,,,,,,,,,w,1.837999821,FLOW,FALSE,,,,,,,134,flor,Catalan,Sounds/cat_flor.mp3,2020-06-04_18h02.40.686,TranslationElicitation_eng-prolific,3.2.4,MacIntel,60,5e73ed268c8f27364de746c5,,1,0,81,28,1,80
,,,,,,,,,,,,,,,,,,,,,,,,,,,,,,,,,,,,,,,,,return,1.954999924,FLOW,FALSE,,,,,,,134,flor,Catalan,Sounds/cat_flor.mp3,2020-06-04_18h02.40.686,TranslationElicitation_eng-prolific,3.2.4,MacIntel,60,5e73ed268c8f27364de746c5,1.954999924,1,0,81,28,1,80
,,,,,,,,,,,,,,,,,,,,,,,,,,,,,,,,,,,,,,,,,,,,,,,,,,,134,flor,Catalan,Sounds/cat_flor.mp3,2020-06-04_18h02.40.686,TranslationElicitation_eng-prolific,3.2.4,MacIntel,60,5e73ed268c8f27364de746c5,,1,0,81,28,1,80
,,,,,,,,,,,,,,,,,,,,,,,,,,,,,,,,,,,,,,,,,d,3.161000013,D,FALSE,,,,,,,162,pa,Catalan,Sounds/cat_pa.mp3,2020-06-04_18h02.40.686,TranslationElicitation_eng-prolific,3.2.4,MacIntel,60,5e73ed268c8f27364de746c5,,1,0,81,54,1,80
,,,,,,,,,,,,,,,,,,,,,,,,,,,,,,,,,,,,,,,,,a,3.358999968,DA,FALSE,,,,,,,162,pa,Catalan,Sounds/cat_pa.mp3,2020-06-04_18h02.40.686,TranslationElicitation_eng-prolific,3.2.4,MacIntel,60,5e73ed268c8f27364de746c5,,1,0,81,54,1,80
,,,,,,,,,,,,,,,,,,,,,,,,,,,,,,,,,,,,,,,,,d,3.56099987,DAD,FALSE,,,,,,,162,pa,Catalan,Sounds/cat_pa.mp3,2020-06-04_18h02.40.686,TranslationElicitation_eng-prolific,3.2.4,MacIntel,60,5e73ed268c8f27364de746c5,,1,0,81,54,1,80
,,,,,,,,,,,,,,,,,,,,,,,,,,,,,,,,,,,,,,,,,return,3.677000046,DAD,FALSE,,,,,,,162,pa,Catalan,Sounds/cat_pa.mp3,2020-06-04_18h02.40.686,TranslationElicitation_eng-prolific,3.2.4,MacIntel,60,5e73ed268c8f27364de746c5,3.677000046,1,0,81,54,1,80
,,,,,,,,,,,,,,,,,,,,,,,,,,,,,,,,,,,,,,,,,,,,,,,,,,,162,pa,Catalan,Sounds/cat_pa.mp3,2020-06-04_18h02.40.686,TranslationElicitation_eng-prolific,3.2.4,MacIntel,60,5e73ed268c8f27364de746c5,,1,0,81,54,1,80
,,,,,,,,,,,,,,,,,,,,,,,,,,,,,,,,,,,,,,,,,s,3.560000181,S,FALSE,,,,,,,133,estruc,Catalan,Sounds/cat_estruc.mp3,2020-06-04_18h02.40.686,TranslationElicitation_eng-prolific,3.2.4,MacIntel,60,5e73ed268c8f27364de746c5,,1,0,81,27,1,80
,,,,,,,,,,,,,,,,,,,,,,,,,,,,,,,,,,,,,,,,,t,3.827000141,ST,FALSE,,,,,,,133,estruc,Catalan,Sounds/cat_estruc.mp3,2020-06-04_18h02.40.686,TranslationElicitation_eng-prolific,3.2.4,MacIntel,60,5e73ed268c8f27364de746c5,,1,0,81,27,1,80
,,,,,,,,,,,,,,,,,,,,,,,,,,,,,,,,,,,,,,,,,e,4.429000139,STE,FALSE,,,,,,,133,estruc,Catalan,Sounds/cat_estruc.mp3,2020-06-04_18h02.40.686,TranslationElicitation_eng-prolific,3.2.4,MacIntel,60,5e73ed268c8f27364de746c5,,1,0,81,27,1,80
,,,,,,,,,,,,,,,,,,,,,,,,,,,,,,,,,,,,,,,,,w,4.597000122,STEW,FALSE,,,,,,,133,estruc,Catalan,Sounds/cat_estruc.mp3,2020-06-04_18h02.40.686,TranslationElicitation_eng-prolific,3.2.4,MacIntel,60,5e73ed268c8f27364de746c5,,1,0,81,27,1,80
,,,,,,,,,,,,,,,,,,,,,,,,,,,,,,,,,,,,,,,,,return,4.746999979,STEW,FALSE,,,,,,,133,estruc,Catalan,Sounds/cat_estruc.mp3,2020-06-04_18h02.40.686,TranslationElicitation_eng-prolific,3.2.4,MacIntel,60,5e73ed268c8f27364de746c5,4.746999979,1,0,81,27,1,80
,,,,,,,,,,,,,,,,,,,,,,,,,,,,,,,,,,,,,,,,,,,,,,,,,,,133,estruc,Catalan,Sounds/cat_estruc.mp3,2020-06-04_18h02.40.686,TranslationElicitation_eng-prolific,3.2.4,MacIntel,60,5e73ed268c8f27364de746c5,,1,0,81,27,1,80
,,,,,,,,,,,,,,,,,,,,,,,,,,,,,,,,,,,,,,,,,l,2.723999977,L,FALSE,,,,,,,151,lluna,Catalan,Sounds/cat_lluna.mp3,2020-06-04_18h02.40.686,TranslationElicitation_eng-prolific,3.2.4,MacIntel,60,5e73ed268c8f27364de746c5,,1,0,81,44,1,80
,,,,,,,,,,,,,,,,,,,,,,,,,,,,,,,,,,,,,,,,,u,2.940000057,LU,FALSE,,,,,,,151,lluna,Catalan,Sounds/cat_lluna.mp3,2020-06-04_18h02.40.686,TranslationElicitation_eng-prolific,3.2.4,MacIntel,60,5e73ed268c8f27364de746c5,,1,0,81,44,1,80
,,,,,,,,,,,,,,,,,,,,,,,,,,,,,,,,,,,,,,,,,n,3.125,LUN,FALSE,,,,,,,151,lluna,Catalan,Sounds/cat_lluna.mp3,2020-06-04_18h02.40.686,TranslationElicitation_eng-prolific,3.2.4,MacIntel,60,5e73ed268c8f27364de746c5,,1,0,81,44,1,80
,,,,,,,,,,,,,,,,,,,,,,,,,,,,,,,,,,,,,,,,,a,3.276000023,LUNA,FALSE,,,,,,,151,lluna,Catalan,Sounds/cat_lluna.mp3,2020-06-04_18h02.40.686,TranslationElicitation_eng-prolific,3.2.4,MacIntel,60,5e73ed268c8f27364de746c5,,1,0,81,44,1,80
,,,,,,,,,,,,,,,,,,,,,,,,,,,,,,,,,,,,,,,,,r,3.677999973,LUNAR,FALSE,,,,,,,151,lluna,Catalan,Sounds/cat_lluna.mp3,2020-06-04_18h02.40.686,TranslationElicitation_eng-prolific,3.2.4,MacIntel,60,5e73ed268c8f27364de746c5,,1,0,81,44,1,80
,,,,,,,,,,,,,,,,,,,,,,,,,,,,,,,,,,,,,,,,,return,9.410000086,LUNAR,FALSE,,,,,,,151,lluna,Catalan,Sounds/cat_lluna.mp3,2020-06-04_18h02.40.686,TranslationElicitation_eng-prolific,3.2.4,MacIntel,60,5e73ed268c8f27364de746c5,9.410000086,1,0,81,44,1,80
,,,,,,,,,,,,,,,,,,,,,,,,,,,,,,,,,,,,,,,,,,,,,,,,,,,151,lluna,Catalan,Sounds/cat_lluna.mp3,2020-06-04_18h02.40.686,TranslationElicitation_eng-prolific,3.2.4,MacIntel,60,5e73ed268c8f27364de746c5,,1,0,81,44,1,80
,,,,,,,,,,,,,,,,,,,,,,,,,,,,,,,,,,,,,,,,,m,1.888000011,M,FALSE,,,,,,,104,abella,Catalan,Sounds/cat_abella.mp3,2020-06-04_18h02.40.686,TranslationElicitation_eng-prolific,3.2.4,MacIntel,60,5e73ed268c8f27364de746c5,,1,0,81,0,1,80
,,,,,,,,,,,,,,,,,,,,,,,,,,,,,,,,,,,,,,,,,a,2.022000074,MA,FALSE,,,,,,,104,abella,Catalan,Sounds/cat_abella.mp3,2020-06-04_18h02.40.686,TranslationElicitation_eng-prolific,3.2.4,MacIntel,60,5e73ed268c8f27364de746c5,,1,0,81,0,1,80
,,,,,,,,,,,,,,,,,,,,,,,,,,,,,,,,,,,,,,,,,m,2.355999947,MAM,FALSE,,,,,,,104,abella,Catalan,Sounds/cat_abella.mp3,2020-06-04_18h02.40.686,TranslationElicitation_eng-prolific,3.2.4,MacIntel,60,5e73ed268c8f27364de746c5,,1,0,81,0,1,80
,,,,,,,,,,,,,,,,,,,,,,,,,,,,,,,,,,,,,,,,,backspace,2.891000032,MA,TRUE,,,,,,,104,abella,Catalan,Sounds/cat_abella.mp3,2020-06-04_18h02.40.686,TranslationElicitation_eng-prolific,3.2.4,MacIntel,60,5e73ed268c8f27364de746c5,,1,0,81,0,1,80
,,,,,,,,,,,,,,,,,,,,,,,,,,,,,,,,,,,,,,,,,backspace,3.09100008,M,TRUE,,,,,,,104,abella,Catalan,Sounds/cat_abella.mp3,2020-06-04_18h02.40.686,TranslationElicitation_eng-prolific,3.2.4,MacIntel,60,5e73ed268c8f27364de746c5,,1,0,81,0,1,80
,,,,,,,,,,,,,,,,,,,,,,,,,,,,,,,,,,,,,,,,,backspace,3.275000095,,TRUE,,,,,,,104,abella,Catalan,Sounds/cat_abella.mp3,2020-06-04_18h02.40.686,TranslationElicitation_eng-prolific,3.2.4,MacIntel,60,5e73ed268c8f27364de746c5,,1,0,81,0,1,80
,,,,,,,,,,,,,,,,,,,,,,,,,,,,,,,,,,,,,,,,,f,8.839999914,F,TRUE,,,,,,,104,abella,Catalan,Sounds/cat_abella.mp3,2020-06-04_18h02.40.686,TranslationElicitation_eng-prolific,3.2.4,MacIntel,60,5e73ed268c8f27364de746c5,,1,0,81,0,1,80
,,,,,,,,,,,,,,,,,,,,,,,,,,,,,,,,,,,,,,,,,a,9.09100008,FA,TRUE,,,,,,,104,abella,Catalan,Sounds/cat_abella.mp3,2020-06-04_18h02.40.686,TranslationElicitation_eng-prolific,3.2.4,MacIntel,60,5e73ed268c8f27364de746c5,,1,0,81,0,1,80
,,,,,,,,,,,,,,,,,,,,,,,,,,,,,,,,,,,,,,,,,m,9.224999905,FAM,TRUE,,,,,,,104,abella,Catalan,Sounds/cat_abella.mp3,2020-06-04_18h02.40.686,TranslationElicitation_eng-prolific,3.2.4,MacIntel,60,5e73ed268c8f27364de746c5,,1,0,81,0,1,80
,,,,,,,,,,,,,,,,,,,,,,,,,,,,,,,,,,,,,,,,,i,9.509000063,FAMI,TRUE,,,,,,,104,abella,Catalan,Sounds/cat_abella.mp3,2020-06-04_18h02.40.686,TranslationElicitation_eng-prolific,3.2.4,MacIntel,60,5e73ed268c8f27364de746c5,,1,0,81,0,1,80
,,,,,,,,,,,,,,,,,,,,,,,,,,,,,,,,,,,,,,,,,l,9.892999887,FAMIL,TRUE,,,,,,,104,abella,Catalan,Sounds/cat_abella.mp3,2020-06-04_18h02.40.686,TranslationElicitation_eng-prolific,3.2.4,MacIntel,60,5e73ed268c8f27364de746c5,,1,0,81,0,1,80
,,,,,,,,,,,,,,,,,,,,,,,,,,,,,,,,,,,,,,,,,y,12.26600003,FAMILY,TRUE,,,,,,,104,abella,Catalan,Sounds/cat_abella.mp3,2020-06-04_18h02.40.686,TranslationElicitation_eng-prolific,3.2.4,MacIntel,60,5e73ed268c8f27364de746c5,,1,0,81,0,1,80
,,,,,,,,,,,,,,,,,,,,,,,,,,,,,,,,,,,,,,,,,backspace,12.67299986,FAMIL,TRUE,,,,,,,104,abella,Catalan,Sounds/cat_abella.mp3,2020-06-04_18h02.40.686,TranslationElicitation_eng-prolific,3.2.4,MacIntel,60,5e73ed268c8f27364de746c5,,1,0,81,0,1,80
,,,,,,,,,,,,,,,,,,,,,,,,,,,,,,,,,,,,,,,,,backspace,13.16899991,FAMI,TRUE,,,,,,,104,abella,Catalan,Sounds/cat_abella.mp3,2020-06-04_18h02.40.686,TranslationElicitation_eng-prolific,3.2.4,MacIntel,60,5e73ed268c8f27364de746c5,,1,0,81,0,1,80
,,,,,,,,,,,,,,,,,,,,,,,,,,,,,,,,,,,,,,,,,backspace,13.25399995,FAM,TRUE,,,,,,,104,abella,Catalan,Sounds/cat_abella.mp3,2020-06-04_18h02.40.686,TranslationElicitation_eng-prolific,3.2.4,MacIntel,60,5e73ed268c8f27364de746c5,,1,0,81,0,1,80
,,,,,,,,,,,,,,,,,,,,,,,,,,,,,,,,,,,,,,,,,backspace,13.33299994,FA,TRUE,,,,,,,104,abella,Catalan,Sounds/cat_abella.mp3,2020-06-04_18h02.40.686,TranslationElicitation_eng-prolific,3.2.4,MacIntel,60,5e73ed268c8f27364de746c5,,1,0,81,0,1,80
,,,,,,,,,,,,,,,,,,,,,,,,,,,,,,,,,,,,,,,,,backspace,13.63599992,F,TRUE,,,,,,,104,abella,Catalan,Sounds/cat_abella.mp3,2020-06-04_18h02.40.686,TranslationElicitation_eng-prolific,3.2.4,MacIntel,60,5e73ed268c8f27364de746c5,,1,0,81,0,1,80
,,,,,,,,,,,,,,,,,,,,,,,,,,,,,,,,,,,,,,,,,backspace,13.95499992,,TRUE,,,,,,,104,abella,Catalan,Sounds/cat_abella.mp3,2020-06-04_18h02.40.686,TranslationElicitation_eng-prolific,3.2.4,MacIntel,60,5e73ed268c8f27364de746c5,,1,0,81,0,1,80
,,,,,,,,,,,,,,,,,,,,,,,,,,,,,,,,,,,,,,,,,p,21.5079999,P,TRUE,,,,,,,104,abella,Catalan,Sounds/cat_abella.mp3,2020-06-04_18h02.40.686,TranslationElicitation_eng-prolific,3.2.4,MacIntel,60,5e73ed268c8f27364de746c5,,1,0,81,0,1,80
,,,,,,,,,,,,,,,,,,,,,,,,,,,,,,,,,,,,,,,,,a,21.7579999,PA,TRUE,,,,,,,104,abella,Catalan,Sounds/cat_abella.mp3,2020-06-04_18h02.40.686,TranslationElicitation_eng-prolific,3.2.4,MacIntel,60,5e73ed268c8f27364de746c5,,1,0,81,0,1,80
,,,,,,,,,,,,,,,,,,,,,,,,,,,,,,,,,,,,,,,,,backspace,23.04500008,P,TRUE,,,,,,,104,abella,Catalan,Sounds/cat_abella.mp3,2020-06-04_18h02.40.686,TranslationElicitation_eng-prolific,3.2.4,MacIntel,60,5e73ed268c8f27364de746c5,,1,0,81,0,1,80
,,,,,,,,,,,,,,,,,,,,,,,,,,,,,,,,,,,,,,,,,backspace,23.19700003,,TRUE,,,,,,,104,abella,Catalan,Sounds/cat_abella.mp3,2020-06-04_18h02.40.686,TranslationElicitation_eng-prolific,3.2.4,MacIntel,60,5e73ed268c8f27364de746c5,,1,0,81,0,1,80
,,,,,,,,,,,,,,,,,,,,,,,,,,,,,,,,,,,,,,,,,m,23.41499996,M,TRUE,,,,,,,104,abella,Catalan,Sounds/cat_abella.mp3,2020-06-04_18h02.40.686,TranslationElicitation_eng-prolific,3.2.4,MacIntel,60,5e73ed268c8f27364de746c5,,1,0,81,0,1,80
,,,,,,,,,,,,,,,,,,,,,,,,,,,,,,,,,,,,,,,,,u,23.63100004,MU,TRUE,,,,,,,104,abella,Catalan,Sounds/cat_abella.mp3,2020-06-04_18h02.40.686,TranslationElicitation_eng-prolific,3.2.4,MacIntel,60,5e73ed268c8f27364de746c5,,1,0,81,0,1,80
,,,,,,,,,,,,,,,,,,,,,,,,,,,,,,,,,,,,,,,,,m,24.06500006,MUM,TRUE,,,,,,,104,abella,Catalan,Sounds/cat_abella.mp3,2020-06-04_18h02.40.686,TranslationElicitation_eng-prolific,3.2.4,MacIntel,60,5e73ed268c8f27364de746c5,,1,0,81,0,1,80
,,,,,,,,,,,,,,,,,,,,,,,,,,,,,,,,,,,,,,,,,return,24.3499999,MUM,TRUE,,,,,,,104,abella,Catalan,Sounds/cat_abella.mp3,2020-06-04_18h02.40.686,TranslationElicitation_eng-prolific,3.2.4,MacIntel,60,5e73ed268c8f27364de746c5,24.3499999,1,0,81,0,1,80
,,,,,,,,,,,,,,,,,,,,,,,,,,,,,,,,,,,,,,,,,,,,,,,,,,,104,abella,Catalan,Sounds/cat_abella.mp3,2020-06-04_18h02.40.686,TranslationElicitation_eng-prolific,3.2.4,MacIntel,60,5e73ed268c8f27364de746c5,,1,0,81,0,1,80
,,,,,,,,,,,,,,,,,,,,,,,,,,,,,,,,,,,,,,,,,a,1.500999928,A,FALSE,,,,,,,132,estrella,Catalan,Sounds/cat_estrella.mp3,2020-06-04_18h02.40.686,TranslationElicitation_eng-prolific,3.2.4,MacIntel,60,5e73ed268c8f27364de746c5,,1,0,81,26,1,80
,,,,,,,,,,,,,,,,,,,,,,,,,,,,,,,,,,,,,,,,,u,1.717999935,AU,FALSE,,,,,,,132,estrella,Catalan,Sounds/cat_estrella.mp3,2020-06-04_18h02.40.686,TranslationElicitation_eng-prolific,3.2.4,MacIntel,60,5e73ed268c8f27364de746c5,,1,0,81,26,1,80
,,,,,,,,,,,,,,,,,,,,,,,,,,,,,,,,,,,,,,,,,s,1.921000004,AUS,FALSE,,,,,,,132,estrella,Catalan,Sounds/cat_estrella.mp3,2020-06-04_18h02.40.686,TranslationElicitation_eng-prolific,3.2.4,MacIntel,60,5e73ed268c8f27364de746c5,,1,0,81,26,1,80
,,,,,,,,,,,,,,,,,,,,,,,,,,,,,,,,,,,,,,,,,t,2.171000004,AUST,FALSE,,,,,,,132,estrella,Catalan,Sounds/cat_estrella.mp3,2020-06-04_18h02.40.686,TranslationElicitation_eng-prolific,3.2.4,MacIntel,60,5e73ed268c8f27364de746c5,,1,0,81,26,1,80
,,,,,,,,,,,,,,,,,,,,,,,,,,,,,,,,,,,,,,,,,r,2.388999939,AUSTR,FALSE,,,,,,,132,estrella,Catalan,Sounds/cat_estrella.mp3,2020-06-04_18h02.40.686,TranslationElicitation_eng-prolific,3.2.4,MacIntel,60,5e73ed268c8f27364de746c5,,1,0,81,26,1,80
,,,,,,,,,,,,,,,,,,,,,,,,,,,,,,,,,,,,,,,,,a,2.671000004,AUSTRA,FALSE,,,,,,,132,estrella,Catalan,Sounds/cat_estrella.mp3,2020-06-04_18h02.40.686,TranslationElicitation_eng-prolific,3.2.4,MacIntel,60,5e73ed268c8f27364de746c5,,1,0,81,26,1,80
,,,,,,,,,,,,,,,,,,,,,,,,,,,,,,,,,,,,,,,,,i,2.757999897,AUSTRAI,FALSE,,,,,,,132,estrella,Catalan,Sounds/cat_estrella.mp3,2020-06-04_18h02.40.686,TranslationElicitation_eng-prolific,3.2.4,MacIntel,60,5e73ed268c8f27364de746c5,,1,0,81,26,1,80
,,,,,,,,,,,,,,,,,,,,,,,,,,,,,,,,,,,,,,,,,l,2.954999924,AUSTRAIL,FALSE,,,,,,,132,estrella,Catalan,Sounds/cat_estrella.mp3,2020-06-04_18h02.40.686,TranslationElicitation_eng-prolific,3.2.4,MacIntel,60,5e73ed268c8f27364de746c5,,1,0,81,26,1,80
,,,,,,,,,,,,,,,,,,,,,,,,,,,,,,,,,,,,,,,,,i,3.122999907,AUSTRAILI,FALSE,,,,,,,132,estrella,Catalan,Sounds/cat_estrella.mp3,2020-06-04_18h02.40.686,TranslationElicitation_eng-prolific,3.2.4,MacIntel,60,5e73ed268c8f27364de746c5,,1,0,81,26,1,80
,,,,,,,,,,,,,,,,,,,,,,,,,,,,,,,,,,,,,,,,,a,3.239999771,AUSTRAILIA,FALSE,,,,,,,132,estrella,Catalan,Sounds/cat_estrella.mp3,2020-06-04_18h02.40.686,TranslationElicitation_eng-prolific,3.2.4,MacIntel,60,5e73ed268c8f27364de746c5,,1,0,81,26,1,80
,,,,,,,,,,,,,,,,,,,,,,,,,,,,,,,,,,,,,,,,,return,3.474999905,AUSTRAILIA,FALSE,,,,,,,132,estrella,Catalan,Sounds/cat_estrella.mp3,2020-06-04_18h02.40.686,TranslationElicitation_eng-prolific,3.2.4,MacIntel,60,5e73ed268c8f27364de746c5,3.474999905,1,0,81,26,1,80
,,,,,,,,,,,,,,,,,,,,,,,,,,,,,,,,,,,,,,,,,,,,,,,,,,,132,estrella,Catalan,Sounds/cat_estrella.mp3,2020-06-04_18h02.40.686,TranslationElicitation_eng-prolific,3.2.4,MacIntel,60,5e73ed268c8f27364de746c5,,1,0,81,26,1,80
,,,,,,,,,,,,,,,,,,,,,,,,,,,,,,,,,,,,,,,,,q,2.525000095,Q,FALSE,,,,,,,146,guitarra,Catalan,Sounds/cat_guitarra.mp3,2020-06-04_18h02.40.686,TranslationElicitation_eng-prolific,3.2.4,MacIntel,60,5e73ed268c8f27364de746c5,,1,0,81,40,1,80
,,,,,,,,,,,,,,,,,,,,,,,,,,,,,,,,,,,,,,,,,u,2.740999937,QU,FALSE,,,,,,,146,guitarra,Catalan,Sounds/cat_guitarra.mp3,2020-06-04_18h02.40.686,TranslationElicitation_eng-prolific,3.2.4,MacIntel,60,5e73ed268c8f27364de746c5,,1,0,81,40,1,80
,,,,,,,,,,,,,,,,,,,,,,,,,,,,,,,,,,,,,,,,,i,2.907999992,QUI,FALSE,,,,,,,146,guitarra,Catalan,Sounds/cat_guitarra.mp3,2020-06-04_18h02.40.686,TranslationElicitation_eng-prolific,3.2.4,MacIntel,60,5e73ed268c8f27364de746c5,,1,0,81,40,1,80
,,,,,,,,,,,,,,,,,,,,,,,,,,,,,,,,,,,,,,,,,t,3.174999952,QUIT,FALSE,,,,,,,146,guitarra,Catalan,Sounds/cat_guitarra.mp3,2020-06-04_18h02.40.686,TranslationElicitation_eng-prolific,3.2.4,MacIntel,60,5e73ed268c8f27364de746c5,,1,0,81,40,1,80
,,,,,,,,,,,,,,,,,,,,,,,,,,,,,,,,,,,,,,,,,a,3.358999968,QUITA,FALSE,,,,,,,146,guitarra,Catalan,Sounds/cat_guitarra.mp3,2020-06-04_18h02.40.686,TranslationElicitation_eng-prolific,3.2.4,MacIntel,60,5e73ed268c8f27364de746c5,,1,0,81,40,1,80
,,,,,,,,,,,,,,,,,,,,,,,,,,,,,,,,,,,,,,,,,r,3.627000093,QUITAR,FALSE,,,,,,,146,guitarra,Catalan,Sounds/cat_guitarra.mp3,2020-06-04_18h02.40.686,TranslationElicitation_eng-prolific,3.2.4,MacIntel,60,5e73ed268c8f27364de746c5,,1,0,81,40,1,80
,,,,,,,,,,,,,,,,,,,,,,,,,,,,,,,,,,,,,,,,,backspace,4.661999941,QUITA,TRUE,,,,,,,146,guitarra,Catalan,Sounds/cat_guitarra.mp3,2020-06-04_18h02.40.686,TranslationElicitation_eng-prolific,3.2.4,MacIntel,60,5e73ed268c8f27364de746c5,,1,0,81,40,1,80
,,,,,,,,,,,,,,,,,,,,,,,,,,,,,,,,,,,,,,,,,backspace,5.174999952,QUIT,TRUE,,,,,,,146,guitarra,Catalan,Sounds/cat_guitarra.mp3,2020-06-04_18h02.40.686,TranslationElicitation_eng-prolific,3.2.4,MacIntel,60,5e73ed268c8f27364de746c5,,1,0,81,40,1,80
,,,,,,,,,,,,,,,,,,,,,,,,,,,,,,,,,,,,,,,,,backspace,5.246999979,QUI,TRUE,,,,,,,146,guitarra,Catalan,Sounds/cat_guitarra.mp3,2020-06-04_18h02.40.686,TranslationElicitation_eng-prolific,3.2.4,MacIntel,60,5e73ed268c8f27364de746c5,,1,0,81,40,1,80
,,,,,,,,,,,,,,,,,,,,,,,,,,,,,,,,,,,,,,,,,backspace,5.332999945,QU,TRUE,,,,,,,146,guitarra,Catalan,Sounds/cat_guitarra.mp3,2020-06-04_18h02.40.686,TranslationElicitation_eng-prolific,3.2.4,MacIntel,60,5e73ed268c8f27364de746c5,,1,0,81,40,1,80
,,,,,,,,,,,,,,,,,,,,,,,,,,,,,,,,,,,,,,,,,backspace,5.516000032,Q,TRUE,,,,,,,146,guitarra,Catalan,Sounds/cat_guitarra.mp3,2020-06-04_18h02.40.686,TranslationElicitation_eng-prolific,3.2.4,MacIntel,60,5e73ed268c8f27364de746c5,,1,0,81,40,1,80
,,,,,,,,,,,,,,,,,,,,,,,,,,,,,,,,,,,,,,,,,backspace,5.717000008,,TRUE,,,,,,,146,guitarra,Catalan,Sounds/cat_guitarra.mp3,2020-06-04_18h02.40.686,TranslationElicitation_eng-prolific,3.2.4,MacIntel,60,5e73ed268c8f27364de746c5,,1,0,81,40,1,80
,,,,,,,,,,,,,,,,,,,,,,,,,,,,,,,,,,,,,,,,,g,6.736000061,G,TRUE,,,,,,,146,guitarra,Catalan,Sounds/cat_guitarra.mp3,2020-06-04_18h02.40.686,TranslationElicitation_eng-prolific,3.2.4,MacIntel,60,5e73ed268c8f27364de746c5,,1,0,81,40,1,80
,,,,,,,,,,,,,,,,,,,,,,,,,,,,,,,,,,,,,,,,,u,6.920000076,GU,TRUE,,,,,,,146,guitarra,Catalan,Sounds/cat_guitarra.mp3,2020-06-04_18h02.40.686,TranslationElicitation_eng-prolific,3.2.4,MacIntel,60,5e73ed268c8f27364de746c5,,1,0,81,40,1,80
,,,,,,,,,,,,,,,,,,,,,,,,,,,,,,,,,,,,,,,,,i,7.120000124,GUI,TRUE,,,,,,,146,guitarra,Catalan,Sounds/cat_guitarra.mp3,2020-06-04_18h02.40.686,TranslationElicitation_eng-prolific,3.2.4,MacIntel,60,5e73ed268c8f27364de746c5,,1,0,81,40,1,80
,,,,,,,,,,,,,,,,,,,,,,,,,,,,,,,,,,,,,,,,,t,7.355000019,GUIT,TRUE,,,,,,,146,guitarra,Catalan,Sounds/cat_guitarra.mp3,2020-06-04_18h02.40.686,TranslationElicitation_eng-prolific,3.2.4,MacIntel,60,5e73ed268c8f27364de746c5,,1,0,81,40,1,80
,,,,,,,,,,,,,,,,,,,,,,,,,,,,,,,,,,,,,,,,,a,7.717000008,GUITA,TRUE,,,,,,,146,guitarra,Catalan,Sounds/cat_guitarra.mp3,2020-06-04_18h02.40.686,TranslationElicitation_eng-prolific,3.2.4,MacIntel,60,5e73ed268c8f27364de746c5,,1,0,81,40,1,80
,,,,,,,,,,,,,,,,,,,,,,,,,,,,,,,,,,,,,,,,,r,7.970999956,GUITAR,TRUE,,,,,,,146,guitarra,Catalan,Sounds/cat_guitarra.mp3,2020-06-04_18h02.40.686,TranslationElicitation_eng-prolific,3.2.4,MacIntel,60,5e73ed268c8f27364de746c5,,1,0,81,40,1,80
,,,,,,,,,,,,,,,,,,,,,,,,,,,,,,,,,,,,,,,,,return,8.17200017,GUITAR,TRUE,,,,,,,146,guitarra,Catalan,Sounds/cat_guitarra.mp3,2020-06-04_18h02.40.686,TranslationElicitation_eng-prolific,3.2.4,MacIntel,60,5e73ed268c8f27364de746c5,8.17200017,1,0,81,40,1,80
,,,,,,,,,,,,,,,,,,,,,,,,,,,,,,,,,,,,,,,,,,,,,,,,,,,146,guitarra,Catalan,Sounds/cat_guitarra.mp3,2020-06-04_18h02.40.686,TranslationElicitation_eng-prolific,3.2.4,MacIntel,60,5e73ed268c8f27364de746c5,,1,0,81,40,1,80
,,,,,,,,,,,,,,,,,,,,,,,,,,,,,,,,,,,,,,,,,e,1.568000078,E,FALSE,,,,,,,167,pingui,Catalan,Sounds/cat_pingui.mp3,2020-06-04_18h02.40.686,TranslationElicitation_eng-prolific,3.2.4,MacIntel,60,5e73ed268c8f27364de746c5,,1,0,81,59,1,80
,,,,,,,,,,,,,,,,,,,,,,,,,,,,,,,,,,,,,,,,,n,1.736000061,EN,FALSE,,,,,,,167,pingui,Catalan,Sounds/cat_pingui.mp3,2020-06-04_18h02.40.686,TranslationElicitation_eng-prolific,3.2.4,MacIntel,60,5e73ed268c8f27364de746c5,,1,0,81,59,1,80
,,,,,,,,,,,,,,,,,,,,,,,,,,,,,,,,,,,,,,,,,g,2.052999973,ENG,FALSE,,,,,,,167,pingui,Catalan,Sounds/cat_pingui.mp3,2020-06-04_18h02.40.686,TranslationElicitation_eng-prolific,3.2.4,MacIntel,60,5e73ed268c8f27364de746c5,,1,0,81,59,1,80
,,,,,,,,,,,,,,,,,,,,,,,,,,,,,,,,,,,,,,,,,u,2.60800004,ENGU,FALSE,,,,,,,167,pingui,Catalan,Sounds/cat_pingui.mp3,2020-06-04_18h02.40.686,TranslationElicitation_eng-prolific,3.2.4,MacIntel,60,5e73ed268c8f27364de746c5,,1,0,81,59,1,80
,,,,,,,,,,,,,,,,,,,,,,,,,,,,,,,,,,,,,,,,,backspace,2.904999971,ENG,TRUE,,,,,,,167,pingui,Catalan,Sounds/cat_pingui.mp3,2020-06-04_18h02.40.686,TranslationElicitation_eng-prolific,3.2.4,MacIntel,60,5e73ed268c8f27364de746c5,,1,0,81,59,1,80
