consentKey.keys,consentKey.rt,languageL1Key.keys,languageL1Key.rt,languageL2,languageL2OralKey.keys,languageL2OralKey.rt,languageL2WrittenKey.keys,languageL2WrittenKey.rt,languageL3OralKey.keys,languageL3OralKey.rt,languageL3WrittenKey.keys,languageL3WrittenKey.rt,languageCatalanOralKey.keys,languageCatalanOralKey.rt,languageCatalanWrittenKey.keys,languageCatalanWrittenKey.rt,languageCatalanTimeKey.keys,languageCatalanTimeKey.rt,languageSpanishOralKey.keys,languageSpanishOralKey.rt,languageSpanishWrittenKey.keys,languageSpanishWrittenKey.rt,languageSpanishTimeKey.keys,languageSpanishTimeKey.rt,age,demoSexKey.keys,demoSexKey.rt,demoEducationKey.keys,demoEducationKey.rt,city,demoVisionKey.keys,demoVisionKey.rt,demoLanguageKey.keys,demoLanguageKey.rt,setupLocationKey.keys,setupLocationKey.rt,setupNoiseKey.keys,setupNoiseKey.rt,instructionsKeys.keys,instructionsKeys.rt,keyPressed,keyPressTime,inputText,error,trialsPracticeSpanish.thisRepN,trialsPracticeSpanish.thisTrialN,trialsPracticeSpanish.thisN,trialsPracticeSpanish.thisIndex,trialsPracticeSpanish.ran,trialsPracticeSpanish.order,trial_id,word,test_language,soundfile,date,expName,psychopyVersion,OS,frameRate,participant,trialOffset,trialsSpanish.thisRepN,trialsSpanish.thisTrialN,trialsSpanish.thisN,trialsSpanish.thisIndex,trialsSpanish.ran,trialsSpanish.order
space,4.247999907,e,4.888000011,,,,,,,,,,1,11.81600022,1,5.775000095,1,6.480999947,1,7.151000023,1,3.981000185,1,5.00999999,19,f,3.029999971,3,4.68200016,KENT,y,21.02200007,n,4.05700016,1,3.781000137,1,6.686000109,space,17.03500009,s,4.597999811,S,FALSE,1,0,5,2,1,4,26,chaqueta,Spanish,Sounds/spa_chaqueta.mp3,2020-06-05_16h22.52.600,TranslationElicitation_eng-prolific,3.2.4,Win32,60,5e788a0aecd8c5000980308e,,,,,,,
,,,,,,,,,,,,,,,,,,,,,,,,,,,,,,,,,,,,,,,,,i,4.767999887,SI,FALSE,1,0,5,2,1,4,26,chaqueta,Spanish,Sounds/spa_chaqueta.mp3,2020-06-05_16h22.52.600,TranslationElicitation_eng-prolific,3.2.4,Win32,60,5e788a0aecd8c5000980308e,,,,,,,
,,,,,,,,,,,,,,,,,,,,,,,,,,,,,,,,,,,,,,,,,s,4.899999857,SIS,FALSE,1,0,5,2,1,4,26,chaqueta,Spanish,Sounds/spa_chaqueta.mp3,2020-06-05_16h22.52.600,TranslationElicitation_eng-prolific,3.2.4,Win32,60,5e788a0aecd8c5000980308e,,,,,,,
,,,,,,,,,,,,,,,,,,,,,,,,,,,,,,,,,,,,,,,,,t,5.388999939,SIST,FALSE,1,0,5,2,1,4,26,chaqueta,Spanish,Sounds/spa_chaqueta.mp3,2020-06-05_16h22.52.600,TranslationElicitation_eng-prolific,3.2.4,Win32,60,5e788a0aecd8c5000980308e,,,,,,,
,,,,,,,,,,,,,,,,,,,,,,,,,,,,,,,,,,,,,,,,,e,5.507999897,SISTE,FALSE,1,0,5,2,1,4,26,chaqueta,Spanish,Sounds/spa_chaqueta.mp3,2020-06-05_16h22.52.600,TranslationElicitation_eng-prolific,3.2.4,Win32,60,5e788a0aecd8c5000980308e,,,,,,,
,,,,,,,,,,,,,,,,,,,,,,,,,,,,,,,,,,,,,,,,,r,5.639999866,SISTER,FALSE,1,0,5,2,1,4,26,chaqueta,Spanish,Sounds/spa_chaqueta.mp3,2020-06-05_16h22.52.600,TranslationElicitation_eng-prolific,3.2.4,Win32,60,5e788a0aecd8c5000980308e,,,,,,,
,,,,,,,,,,,,,,,,,,,,,,,,,,,,,,,,,,,,,,,,,return,6.526000023,SISTER,FALSE,1,0,5,2,1,4,26,chaqueta,Spanish,Sounds/spa_chaqueta.mp3,2020-06-05_16h22.52.600,TranslationElicitation_eng-prolific,3.2.4,Win32,60,5e788a0aecd8c5000980308e,6.526000023,,,,,,
,,,,,,,,,,,,,,,,,,,,,,,,,,,,,,,,,,,,,,,,,,,,,1,0,5,2,1,4,26,chaqueta,Spanish,Sounds/spa_chaqueta.mp3,2020-06-05_16h22.52.600,TranslationElicitation_eng-prolific,3.2.4,Win32,60,5e788a0aecd8c5000980308e,,,,,,,
,,,,,,,,,,,,,,,,,,,,,,,,,,,,,,,,,,,,,,,,,t,2.853999853,T,FALSE,1,0,5,4,1,4,96,tigre,Spanish,Sounds/spa_tigre.mp3,2020-06-05_16h22.52.600,TranslationElicitation_eng-prolific,3.2.4,Win32,60,5e788a0aecd8c5000980308e,,,,,,,
,,,,,,,,,,,,,,,,,,,,,,,,,,,,,,,,,,,,,,,,,e,3.180999994,TE,FALSE,1,0,5,4,1,4,96,tigre,Spanish,Sounds/spa_tigre.mp3,2020-06-05_16h22.52.600,TranslationElicitation_eng-prolific,3.2.4,Win32,60,5e788a0aecd8c5000980308e,,,,,,,
,,,,,,,,,,,,,,,,,,,,,,,,,,,,,,,,,,,,,,,,,a,3.252999783,TEA,FALSE,1,0,5,4,1,4,96,tigre,Spanish,Sounds/spa_tigre.mp3,2020-06-05_16h22.52.600,TranslationElicitation_eng-prolific,3.2.4,Win32,60,5e788a0aecd8c5000980308e,,,,,,,
,,,,,,,,,,,,,,,,,,,,,,,,,,,,,,,,,,,,,,,,,b,3.424999952,TEAB,FALSE,1,0,5,4,1,4,96,tigre,Spanish,Sounds/spa_tigre.mp3,2020-06-05_16h22.52.600,TranslationElicitation_eng-prolific,3.2.4,Win32,60,5e788a0aecd8c5000980308e,,,,,,,
,,,,,,,,,,,,,,,,,,,,,,,,,,,,,,,,,,,,,,,,,a,4.405999899,TEABA,FALSE,1,0,5,4,1,4,96,tigre,Spanish,Sounds/spa_tigre.mp3,2020-06-05_16h22.52.600,TranslationElicitation_eng-prolific,3.2.4,Win32,60,5e788a0aecd8c5000980308e,,,,,,,
,,,,,,,,,,,,,,,,,,,,,,,,,,,,,,,,,,,,,,,,,g,4.59499979,TEABAG,FALSE,1,0,5,4,1,4,96,tigre,Spanish,Sounds/spa_tigre.mp3,2020-06-05_16h22.52.600,TranslationElicitation_eng-prolific,3.2.4,Win32,60,5e788a0aecd8c5000980308e,,,,,,,
,,,,,,,,,,,,,,,,,,,,,,,,,,,,,,,,,,,,,,,,,return,5.441999912,TEABAG,FALSE,1,0,5,4,1,4,96,tigre,Spanish,Sounds/spa_tigre.mp3,2020-06-05_16h22.52.600,TranslationElicitation_eng-prolific,3.2.4,Win32,60,5e788a0aecd8c5000980308e,5.441999912,,,,,,
,,,,,,,,,,,,,,,,,,,,,,,,,,,,,,,,,,,,,,,,,,,,,1,0,5,4,1,4,96,tigre,Spanish,Sounds/spa_tigre.mp3,2020-06-05_16h22.52.600,TranslationElicitation_eng-prolific,3.2.4,Win32,60,5e788a0aecd8c5000980308e,,,,,,,
,,,,,,,,,,,,,,,,,,,,,,,,,,,,,,,,,,,,,,,,,c,2.388000011,C,FALSE,1,0,5,1,1,4,30,corona,Spanish,Sounds/spa_corona.mp3,2020-06-05_16h22.52.600,TranslationElicitation_eng-prolific,3.2.4,Win32,60,5e788a0aecd8c5000980308e,,,,,,,
,,,,,,,,,,,,,,,,,,,,,,,,,,,,,,,,,,,,,,,,,o,2.622999907,CO,FALSE,1,0,5,1,1,4,30,corona,Spanish,Sounds/spa_corona.mp3,2020-06-05_16h22.52.600,TranslationElicitation_eng-prolific,3.2.4,Win32,60,5e788a0aecd8c5000980308e,,,,,,,
,,,,,,,,,,,,,,,,,,,,,,,,,,,,,,,,,,,,,,,,,r,2.836999893,COR,FALSE,1,0,5,1,1,4,30,corona,Spanish,Sounds/spa_corona.mp3,2020-06-05_16h22.52.600,TranslationElicitation_eng-prolific,3.2.4,Win32,60,5e788a0aecd8c5000980308e,,,,,,,
,,,,,,,,,,,,,,,,,,,,,,,,,,,,,,,,,,,,,,,,,o,2.980000019,CORO,FALSE,1,0,5,1,1,4,30,corona,Spanish,Sounds/spa_corona.mp3,2020-06-05_16h22.52.600,TranslationElicitation_eng-prolific,3.2.4,Win32,60,5e788a0aecd8c5000980308e,,,,,,,
,,,,,,,,,,,,,,,,,,,,,,,,,,,,,,,,,,,,,,,,,n,3.138000011,CORON,FALSE,1,0,5,1,1,4,30,corona,Spanish,Sounds/spa_corona.mp3,2020-06-05_16h22.52.600,TranslationElicitation_eng-prolific,3.2.4,Win32,60,5e788a0aecd8c5000980308e,,,,,,,
,,,,,,,,,,,,,,,,,,,,,,,,,,,,,,,,,,,,,,,,,a,3.27699995,CORONA,FALSE,1,0,5,1,1,4,30,corona,Spanish,Sounds/spa_corona.mp3,2020-06-05_16h22.52.600,TranslationElicitation_eng-prolific,3.2.4,Win32,60,5e788a0aecd8c5000980308e,,,,,,,
,,,,,,,,,,,,,,,,,,,,,,,,,,,,,,,,,,,,,,,,,v,3.90199995,CORONAV,FALSE,1,0,5,1,1,4,30,corona,Spanish,Sounds/spa_corona.mp3,2020-06-05_16h22.52.600,TranslationElicitation_eng-prolific,3.2.4,Win32,60,5e788a0aecd8c5000980308e,,,,,,,
,,,,,,,,,,,,,,,,,,,,,,,,,,,,,,,,,,,,,,,,,i,4.226999998,CORONAVI,FALSE,1,0,5,1,1,4,30,corona,Spanish,Sounds/spa_corona.mp3,2020-06-05_16h22.52.600,TranslationElicitation_eng-prolific,3.2.4,Win32,60,5e788a0aecd8c5000980308e,,,,,,,
,,,,,,,,,,,,,,,,,,,,,,,,,,,,,,,,,,,,,,,,,r,6.125,CORONAVIR,FALSE,1,0,5,1,1,4,30,corona,Spanish,Sounds/spa_corona.mp3,2020-06-05_16h22.52.600,TranslationElicitation_eng-prolific,3.2.4,Win32,60,5e788a0aecd8c5000980308e,,,,,,,
,,,,,,,,,,,,,,,,,,,,,,,,,,,,,,,,,,,,,,,,,u,6.290999889,CORONAVIRU,FALSE,1,0,5,1,1,4,30,corona,Spanish,Sounds/spa_corona.mp3,2020-06-05_16h22.52.600,TranslationElicitation_eng-prolific,3.2.4,Win32,60,5e788a0aecd8c5000980308e,,,,,,,
,,,,,,,,,,,,,,,,,,,,,,,,,,,,,,,,,,,,,,,,,s,6.40199995,CORONAVIRUS,FALSE,1,0,5,1,1,4,30,corona,Spanish,Sounds/spa_corona.mp3,2020-06-05_16h22.52.600,TranslationElicitation_eng-prolific,3.2.4,Win32,60,5e788a0aecd8c5000980308e,,,,,,,
,,,,,,,,,,,,,,,,,,,,,,,,,,,,,,,,,,,,,,,,,return,7.102999926,CORONAVIRUS,FALSE,1,0,5,1,1,4,30,corona,Spanish,Sounds/spa_corona.mp3,2020-06-05_16h22.52.600,TranslationElicitation_eng-prolific,3.2.4,Win32,60,5e788a0aecd8c5000980308e,7.102999926,,,,,,
,,,,,,,,,,,,,,,,,,,,,,,,,,,,,,,,,,,,,,,,,,,,,1,0,5,1,1,4,30,corona,Spanish,Sounds/spa_corona.mp3,2020-06-05_16h22.52.600,TranslationElicitation_eng-prolific,3.2.4,Win32,60,5e788a0aecd8c5000980308e,,,,,,,
,,,,,,,,,,,,,,,,,,,,,,,,,,,,,,,,,,,,,,,,,w,2.115999937,W,FALSE,1,0,5,0,1,4,1,arbol,Spanish,Sounds/spa_arbol.mp3,2020-06-05_16h22.52.600,TranslationElicitation_eng-prolific,3.2.4,Win32,60,5e788a0aecd8c5000980308e,,,,,,,
,,,,,,,,,,,,,,,,,,,,,,,,,,,,,,,,,,,,,,,,,a,2.382999897,WA,FALSE,1,0,5,0,1,4,1,arbol,Spanish,Sounds/spa_arbol.mp3,2020-06-05_16h22.52.600,TranslationElicitation_eng-prolific,3.2.4,Win32,60,5e788a0aecd8c5000980308e,,,,,,,
,,,,,,,,,,,,,,,,,,,,,,,,,,,,,,,,,,,,,,,,,l,2.648999929,WAL,FALSE,1,0,5,0,1,4,1,arbol,Spanish,Sounds/spa_arbol.mp3,2020-06-05_16h22.52.600,TranslationElicitation_eng-prolific,3.2.4,Win32,60,5e788a0aecd8c5000980308e,,,,,,,
,,,,,,,,,,,,,,,,,,,,,,,,,,,,,,,,,,,,,,,,,l,3.031999826,WALL,FALSE,1,0,5,0,1,4,1,arbol,Spanish,Sounds/spa_arbol.mp3,2020-06-05_16h22.52.600,TranslationElicitation_eng-prolific,3.2.4,Win32,60,5e788a0aecd8c5000980308e,,,,,,,
,,,,,,,,,,,,,,,,,,,,,,,,,,,,,,,,,,,,,,,,,return,3.767999887,WALL,FALSE,1,0,5,0,1,4,1,arbol,Spanish,Sounds/spa_arbol.mp3,2020-06-05_16h22.52.600,TranslationElicitation_eng-prolific,3.2.4,Win32,60,5e788a0aecd8c5000980308e,3.767999887,,,,,,
,,,,,,,,,,,,,,,,,,,,,,,,,,,,,,,,,,,,,,,,,,,,,1,0,5,0,1,4,1,arbol,Spanish,Sounds/spa_arbol.mp3,2020-06-05_16h22.52.600,TranslationElicitation_eng-prolific,3.2.4,Win32,60,5e788a0aecd8c5000980308e,,,,,,,
,,,,,,,,,,,,,,,,,,,,,,,,,,,,,,,,,,,,,,,,,h,3.099999905,H,FALSE,1,0,5,3,1,4,70,ola,Spanish,Sounds/spa_ola.mp3,2020-06-05_16h22.52.600,TranslationElicitation_eng-prolific,3.2.4,Win32,60,5e788a0aecd8c5000980308e,,,,,,,
,,,,,,,,,,,,,,,,,,,,,,,,,,,,,,,,,,,,,,,,,e,3.301999807,HE,FALSE,1,0,5,3,1,4,70,ola,Spanish,Sounds/spa_ola.mp3,2020-06-05_16h22.52.600,TranslationElicitation_eng-prolific,3.2.4,Win32,60,5e788a0aecd8c5000980308e,,,,,,,
,,,,,,,,,,,,,,,,,,,,,,,,,,,,,,,,,,,,,,,,,l,3.531999826,HEL,FALSE,1,0,5,3,1,4,70,ola,Spanish,Sounds/spa_ola.mp3,2020-06-05_16h22.52.600,TranslationElicitation_eng-prolific,3.2.4,Win32,60,5e788a0aecd8c5000980308e,,,,,,,
,,,,,,,,,,,,,,,,,,,,,,,,,,,,,,,,,,,,,,,,,l,3.677999973,HELL,FALSE,1,0,5,3,1,4,70,ola,Spanish,Sounds/spa_ola.mp3,2020-06-05_16h22.52.600,TranslationElicitation_eng-prolific,3.2.4,Win32,60,5e788a0aecd8c5000980308e,,,,,,,
,,,,,,,,,,,,,,,,,,,,,,,,,,,,,,,,,,,,,,,,,o,3.923999786,HELLO,FALSE,1,0,5,3,1,4,70,ola,Spanish,Sounds/spa_ola.mp3,2020-06-05_16h22.52.600,TranslationElicitation_eng-prolific,3.2.4,Win32,60,5e788a0aecd8c5000980308e,,,,,,,
,,,,,,,,,,,,,,,,,,,,,,,,,,,,,,,,,,,,,,,,,return,4.717000008,HELLO,FALSE,1,0,5,3,1,4,70,ola,Spanish,Sounds/spa_ola.mp3,2020-06-05_16h22.52.600,TranslationElicitation_eng-prolific,3.2.4,Win32,60,5e788a0aecd8c5000980308e,4.717000008,,,,,,
,,,,,,,,,,,,,,,,,,,,,,,,,,,,,,,,,,,,,,,,,,,,,1,0,5,3,1,4,70,ola,Spanish,Sounds/spa_ola.mp3,2020-06-05_16h22.52.600,TranslationElicitation_eng-prolific,3.2.4,Win32,60,5e788a0aecd8c5000980308e,,,,,,,
,,,,,,,,,,,,,,,,,,,,,,,,,,,,,,,,,,,,,,,,,b,2.032999992,B,FALSE,,,,,,,8,bol,Spanish,Sounds/spa_bol.mp3,2020-06-05_16h22.52.600,TranslationElicitation_eng-prolific,3.2.4,Win32,60,5e788a0aecd8c5000980308e,,1,0,98,6,1,97
,,,,,,,,,,,,,,,,,,,,,,,,,,,,,,,,,,,,,,,,,a,2.286999941,BA,FALSE,,,,,,,8,bol,Spanish,Sounds/spa_bol.mp3,2020-06-05_16h22.52.600,TranslationElicitation_eng-prolific,3.2.4,Win32,60,5e788a0aecd8c5000980308e,,1,0,98,6,1,97
,,,,,,,,,,,,,,,,,,,,,,,,,,,,,,,,,,,,,,,,,l,2.565999985,BAL,FALSE,,,,,,,8,bol,Spanish,Sounds/spa_bol.mp3,2020-06-05_16h22.52.600,TranslationElicitation_eng-prolific,3.2.4,Win32,60,5e788a0aecd8c5000980308e,,1,0,98,6,1,97
,,,,,,,,,,,,,,,,,,,,,,,,,,,,,,,,,,,,,,,,,l,2.804999828,BALL,FALSE,,,,,,,8,bol,Spanish,Sounds/spa_bol.mp3,2020-06-05_16h22.52.600,TranslationElicitation_eng-prolific,3.2.4,Win32,60,5e788a0aecd8c5000980308e,,1,0,98,6,1,97
,,,,,,,,,,,,,,,,,,,,,,,,,,,,,,,,,,,,,,,,,return,3.961999893,BALL,FALSE,,,,,,,8,bol,Spanish,Sounds/spa_bol.mp3,2020-06-05_16h22.52.600,TranslationElicitation_eng-prolific,3.2.4,Win32,60,5e788a0aecd8c5000980308e,3.961999893,1,0,98,6,1,97
,,,,,,,,,,,,,,,,,,,,,,,,,,,,,,,,,,,,,,,,,,,,,,,,,,,8,bol,Spanish,Sounds/spa_bol.mp3,2020-06-05_16h22.52.600,TranslationElicitation_eng-prolific,3.2.4,Win32,60,5e788a0aecd8c5000980308e,,1,0,98,6,1,97
,,,,,,,,,,,,,,,,,,,,,,,,,,,,,,,,,,,,,,,,,b,4.636999846,B,FALSE,,,,,,,14,burro,Spanish,Sounds/spa_burro.mp3,2020-06-05_16h22.52.600,TranslationElicitation_eng-prolific,3.2.4,Win32,60,5e788a0aecd8c5000980308e,,1,0,98,12,1,97
,,,,,,,,,,,,,,,,,,,,,,,,,,,,,,,,,,,,,,,,,o,5.31799984,BO,FALSE,,,,,,,14,burro,Spanish,Sounds/spa_burro.mp3,2020-06-05_16h22.52.600,TranslationElicitation_eng-prolific,3.2.4,Win32,60,5e788a0aecd8c5000980308e,,1,0,98,12,1,97
,,,,,,,,,,,,,,,,,,,,,,,,,,,,,,,,,,,,,,,,,n,5.485999823,BON,FALSE,,,,,,,14,burro,Spanish,Sounds/spa_burro.mp3,2020-06-05_16h22.52.600,TranslationElicitation_eng-prolific,3.2.4,Win32,60,5e788a0aecd8c5000980308e,,1,0,98,12,1,97
,,,,,,,,,,,,,,,,,,,,,,,,,,,,,,,,,,,,,,,,,c,5.986999989,BONC,FALSE,,,,,,,14,burro,Spanish,Sounds/spa_burro.mp3,2020-06-05_16h22.52.600,TranslationElicitation_eng-prolific,3.2.4,Win32,60,5e788a0aecd8c5000980308e,,1,0,98,12,1,97
,,,,,,,,,,,,,,,,,,,,,,,,,,,,,,,,,,,,,,,,,e,6.071999788,BONCE,FALSE,,,,,,,14,burro,Spanish,Sounds/spa_burro.mp3,2020-06-05_16h22.52.600,TranslationElicitation_eng-prolific,3.2.4,Win32,60,5e788a0aecd8c5000980308e,,1,0,98,12,1,97
,,,,,,,,,,,,,,,,,,,,,,,,,,,,,,,,,,,,,,,,,backspace,7.43599987,BONC,TRUE,,,,,,,14,burro,Spanish,Sounds/spa_burro.mp3,2020-06-05_16h22.52.600,TranslationElicitation_eng-prolific,3.2.4,Win32,60,5e788a0aecd8c5000980308e,,1,0,98,12,1,97
,,,,,,,,,,,,,,,,,,,,,,,,,,,,,,,,,,,,,,,,,backspace,7.806999922,BON,TRUE,,,,,,,14,burro,Spanish,Sounds/spa_burro.mp3,2020-06-05_16h22.52.600,TranslationElicitation_eng-prolific,3.2.4,Win32,60,5e788a0aecd8c5000980308e,,1,0,98,12,1,97
,,,,,,,,,,,,,,,,,,,,,,,,,,,,,,,,,,,,,,,,,backspace,8.244999886,BO,TRUE,,,,,,,14,burro,Spanish,Sounds/spa_burro.mp3,2020-06-05_16h22.52.600,TranslationElicitation_eng-prolific,3.2.4,Win32,60,5e788a0aecd8c5000980308e,,1,0,98,12,1,97
,,,,,,,,,,,,,,,,,,,,,,,,,,,,,,,,,,,,,,,,,u,8.700999975,BOU,TRUE,,,,,,,14,burro,Spanish,Sounds/spa_burro.mp3,2020-06-05_16h22.52.600,TranslationElicitation_eng-prolific,3.2.4,Win32,60,5e788a0aecd8c5000980308e,,1,0,98,12,1,97
,,,,,,,,,,,,,,,,,,,,,,,,,,,,,,,,,,,,,,,,,n,9.002999783,BOUN,TRUE,,,,,,,14,burro,Spanish,Sounds/spa_burro.mp3,2020-06-05_16h22.52.600,TranslationElicitation_eng-prolific,3.2.4,Win32,60,5e788a0aecd8c5000980308e,,1,0,98,12,1,97
,,,,,,,,,,,,,,,,,,,,,,,,,,,,,,,,,,,,,,,,,c,9.379999876,BOUNC,TRUE,,,,,,,14,burro,Spanish,Sounds/spa_burro.mp3,2020-06-05_16h22.52.600,TranslationElicitation_eng-prolific,3.2.4,Win32,60,5e788a0aecd8c5000980308e,,1,0,98,12,1,97
,,,,,,,,,,,,,,,,,,,,,,,,,,,,,,,,,,,,,,,,,e,9.588999987,BOUNCE,TRUE,,,,,,,14,burro,Spanish,Sounds/spa_burro.mp3,2020-06-05_16h22.52.600,TranslationElicitation_eng-prolific,3.2.4,Win32,60,5e788a0aecd8c5000980308e,,1,0,98,12,1,97
,,,,,,,,,,,,,,,,,,,,,,,,,,,,,,,,,,,,,,,,,return,10.57799983,BOUNCE,TRUE,,,,,,,14,burro,Spanish,Sounds/spa_burro.mp3,2020-06-05_16h22.52.600,TranslationElicitation_eng-prolific,3.2.4,Win32,60,5e788a0aecd8c5000980308e,10.57799983,1,0,98,12,1,97
,,,,,,,,,,,,,,,,,,,,,,,,,,,,,,,,,,,,,,,,,,,,,,,,,,,14,burro,Spanish,Sounds/spa_burro.mp3,2020-06-05_16h22.52.600,TranslationElicitation_eng-prolific,3.2.4,Win32,60,5e788a0aecd8c5000980308e,,1,0,98,12,1,97
,,,,,,,,,,,,,,,,,,,,,,,,,,,,,,,,,,,,,,,,,b,3.25999999,B,FALSE,,,,,,,81,pelota,Spanish,Sounds/spa_pelota.mp3,2020-06-05_16h22.52.600,TranslationElicitation_eng-prolific,3.2.4,Win32,60,5e788a0aecd8c5000980308e,,1,0,98,76,1,97
,,,,,,,,,,,,,,,,,,,,,,,,,,,,,,,,,,,,,,,,,a,3.489000082,BA,FALSE,,,,,,,81,pelota,Spanish,Sounds/spa_pelota.mp3,2020-06-05_16h22.52.600,TranslationElicitation_eng-prolific,3.2.4,Win32,60,5e788a0aecd8c5000980308e,,1,0,98,76,1,97
,,,,,,,,,,,,,,,,,,,,,,,,,,,,,,,,,,,,,,,,,l,3.773999929,BAL,FALSE,,,,,,,81,pelota,Spanish,Sounds/spa_pelota.mp3,2020-06-05_16h22.52.600,TranslationElicitation_eng-prolific,3.2.4,Win32,60,5e788a0aecd8c5000980308e,,1,0,98,76,1,97
,,,,,,,,,,,,,,,,,,,,,,,,,,,,,,,,,,,,,,,,,l,3.979000092,BALL,FALSE,,,,,,,81,pelota,Spanish,Sounds/spa_pelota.mp3,2020-06-05_16h22.52.600,TranslationElicitation_eng-prolific,3.2.4,Win32,60,5e788a0aecd8c5000980308e,,1,0,98,76,1,97
,,,,,,,,,,,,,,,,,,,,,,,,,,,,,,,,,,,,,,,,,o,4.855999947,BALLO,FALSE,,,,,,,81,pelota,Spanish,Sounds/spa_pelota.mp3,2020-06-05_16h22.52.600,TranslationElicitation_eng-prolific,3.2.4,Win32,60,5e788a0aecd8c5000980308e,,1,0,98,76,1,97
,,,,,,,,,,,,,,,,,,,,,,,,,,,,,,,,,,,,,,,,,o,5.025000095,BALLOO,FALSE,,,,,,,81,pelota,Spanish,Sounds/spa_pelota.mp3,2020-06-05_16h22.52.600,TranslationElicitation_eng-prolific,3.2.4,Win32,60,5e788a0aecd8c5000980308e,,1,0,98,76,1,97
,,,,,,,,,,,,,,,,,,,,,,,,,,,,,,,,,,,,,,,,,n,5.39199996,BALLOON,FALSE,,,,,,,81,pelota,Spanish,Sounds/spa_pelota.mp3,2020-06-05_16h22.52.600,TranslationElicitation_eng-prolific,3.2.4,Win32,60,5e788a0aecd8c5000980308e,,1,0,98,76,1,97
,,,,,,,,,,,,,,,,,,,,,,,,,,,,,,,,,,,,,,,,,backspace,6.48300004,BALLOO,TRUE,,,,,,,81,pelota,Spanish,Sounds/spa_pelota.mp3,2020-06-05_16h22.52.600,TranslationElicitation_eng-prolific,3.2.4,Win32,60,5e788a0aecd8c5000980308e,,1,0,98,76,1,97
,,,,,,,,,,,,,,,,,,,,,,,,,,,,,,,,,,,,,,,,,backspace,6.713999987,BALLO,TRUE,,,,,,,81,pelota,Spanish,Sounds/spa_pelota.mp3,2020-06-05_16h22.52.600,TranslationElicitation_eng-prolific,3.2.4,Win32,60,5e788a0aecd8c5000980308e,,1,0,98,76,1,97
,,,,,,,,,,,,,,,,,,,,,,,,,,,,,,,,,,,,,,,,,backspace,6.986999989,BALL,TRUE,,,,,,,81,pelota,Spanish,Sounds/spa_pelota.mp3,2020-06-05_16h22.52.600,TranslationElicitation_eng-prolific,3.2.4,Win32,60,5e788a0aecd8c5000980308e,,1,0,98,76,1,97
,,,,,,,,,,,,,,,,,,,,,,,,,,,,,,,,,,,,,,,,,backspace,7.381999969,BAL,TRUE,,,,,,,81,pelota,Spanish,Sounds/spa_pelota.mp3,2020-06-05_16h22.52.600,TranslationElicitation_eng-prolific,3.2.4,Win32,60,5e788a0aecd8c5000980308e,,1,0,98,76,1,97
,,,,,,,,,,,,,,,,,,,,,,,,,,,,,,,,,,,,,,,,,o,7.871999979,BALO,TRUE,,,,,,,81,pelota,Spanish,Sounds/spa_pelota.mp3,2020-06-05_16h22.52.600,TranslationElicitation_eng-prolific,3.2.4,Win32,60,5e788a0aecd8c5000980308e,,1,0,98,76,1,97
,,,,,,,,,,,,,,,,,,,,,,,,,,,,,,,,,,,,,,,,,o,8.013000011,BALOO,TRUE,,,,,,,81,pelota,Spanish,Sounds/spa_pelota.mp3,2020-06-05_16h22.52.600,TranslationElicitation_eng-prolific,3.2.4,Win32,60,5e788a0aecd8c5000980308e,,1,0,98,76,1,97
,,,,,,,,,,,,,,,,,,,,,,,,,,,,,,,,,,,,,,,,,n,8.503999949,BALOON,TRUE,,,,,,,81,pelota,Spanish,Sounds/spa_pelota.mp3,2020-06-05_16h22.52.600,TranslationElicitation_eng-prolific,3.2.4,Win32,60,5e788a0aecd8c5000980308e,,1,0,98,76,1,97
,,,,,,,,,,,,,,,,,,,,,,,,,,,,,,,,,,,,,,,,,backspace,9.823999882,BALOO,TRUE,,,,,,,81,pelota,Spanish,Sounds/spa_pelota.mp3,2020-06-05_16h22.52.600,TranslationElicitation_eng-prolific,3.2.4,Win32,60,5e788a0aecd8c5000980308e,,1,0,98,76,1,97
,,,,,,,,,,,,,,,,,,,,,,,,,,,,,,,,,,,,,,,,,backspace,10.02999997,BALO,TRUE,,,,,,,81,pelota,Spanish,Sounds/spa_pelota.mp3,2020-06-05_16h22.52.600,TranslationElicitation_eng-prolific,3.2.4,Win32,60,5e788a0aecd8c5000980308e,,1,0,98,76,1,97
,,,,,,,,,,,,,,,,,,,,,,,,,,,,,,,,,,,,,,,,,backspace,10.28299999,BAL,TRUE,,,,,,,81,pelota,Spanish,Sounds/spa_pelota.mp3,2020-06-05_16h22.52.600,TranslationElicitation_eng-prolific,3.2.4,Win32,60,5e788a0aecd8c5000980308e,,1,0,98,76,1,97
,,,,,,,,,,,,,,,,,,,,,,,,,,,,,,,,,,,,,,,,,l,11.05500007,BALL,TRUE,,,,,,,81,pelota,Spanish,Sounds/spa_pelota.mp3,2020-06-05_16h22.52.600,TranslationElicitation_eng-prolific,3.2.4,Win32,60,5e788a0aecd8c5000980308e,,1,0,98,76,1,97
,,,,,,,,,,,,,,,,,,,,,,,,,,,,,,,,,,,,,,,,,o,11.29399991,BALLO,TRUE,,,,,,,81,pelota,Spanish,Sounds/spa_pelota.mp3,2020-06-05_16h22.52.600,TranslationElicitation_eng-prolific,3.2.4,Win32,60,5e788a0aecd8c5000980308e,,1,0,98,76,1,97
,,,,,,,,,,,,,,,,,,,,,,,,,,,,,,,,,,,,,,,,,o,11.43799996,BALLOO,TRUE,,,,,,,81,pelota,Spanish,Sounds/spa_pelota.mp3,2020-06-05_16h22.52.600,TranslationElicitation_eng-prolific,3.2.4,Win32,60,5e788a0aecd8c5000980308e,,1,0,98,76,1,97
,,,,,,,,,,,,,,,,,,,,,,,,,,,,,,,,,,,,,,,,,n,11.64400005,BALLOON,TRUE,,,,,,,81,pelota,Spanish,Sounds/spa_pelota.mp3,2020-06-05_16h22.52.600,TranslationElicitation_eng-prolific,3.2.4,Win32,60,5e788a0aecd8c5000980308e,,1,0,98,76,1,97
,,,,,,,,,,,,,,,,,,,,,,,,,,,,,,,,,,,,,,,,,return,12.84699988,BALLOON,TRUE,,,,,,,81,pelota,Spanish,Sounds/spa_pelota.mp3,2020-06-05_16h22.52.600,TranslationElicitation_eng-prolific,3.2.4,Win32,60,5e788a0aecd8c5000980308e,12.84699988,1,0,98,76,1,97
,,,,,,,,,,,,,,,,,,,,,,,,,,,,,,,,,,,,,,,,,,,,,,,,,,,81,pelota,Spanish,Sounds/spa_pelota.mp3,2020-06-05_16h22.52.600,TranslationElicitation_eng-prolific,3.2.4,Win32,60,5e788a0aecd8c5000980308e,,1,0,98,76,1,97
,,,,,,,,,,,,,,,,,,,,,,,,,,,,,,,,,,,,,,,,,b,1.848999977,B,FALSE,,,,,,,89,pluma,Spanish,Sounds/spa_pluma.mp3,2020-06-05_16h22.52.600,TranslationElicitation_eng-prolific,3.2.4,Win32,60,5e788a0aecd8c5000980308e,,1,0,98,84,1,97
,,,,,,,,,,,,,,,,,,,,,,,,,,,,,,,,,,,,,,,,,l,2.348999977,BL,FALSE,,,,,,,89,pluma,Spanish,Sounds/spa_pluma.mp3,2020-06-05_16h22.52.600,TranslationElicitation_eng-prolific,3.2.4,Win32,60,5e788a0aecd8c5000980308e,,1,0,98,84,1,97
,,,,,,,,,,,,,,,,,,,,,,,,,,,,,,,,,,,,,,,,,u,2.63499999,BLU,FALSE,,,,,,,89,pluma,Spanish,Sounds/spa_pluma.mp3,2020-06-05_16h22.52.600,TranslationElicitation_eng-prolific,3.2.4,Win32,60,5e788a0aecd8c5000980308e,,1,0,98,84,1,97
,,,,,,,,,,,,,,,,,,,,,,,,,,,,,,,,,,,,,,,,,e,2.749000072,BLUE,FALSE,,,,,,,89,pluma,Spanish,Sounds/spa_pluma.mp3,2020-06-05_16h22.52.600,TranslationElicitation_eng-prolific,3.2.4,Win32,60,5e788a0aecd8c5000980308e,,1,0,98,84,1,97
,,,,,,,,,,,,,,,,,,,,,,,,,,,,,,,,,,,,,,,,,return,3.575000048,BLUE,FALSE,,,,,,,89,pluma,Spanish,Sounds/spa_pluma.mp3,2020-06-05_16h22.52.600,TranslationElicitation_eng-prolific,3.2.4,Win32,60,5e788a0aecd8c5000980308e,3.575000048,1,0,98,84,1,97
,,,,,,,,,,,,,,,,,,,,,,,,,,,,,,,,,,,,,,,,,,,,,,,,,,,89,pluma,Spanish,Sounds/spa_pluma.mp3,2020-06-05_16h22.52.600,TranslationElicitation_eng-prolific,3.2.4,Win32,60,5e788a0aecd8c5000980308e,,1,0,98,84,1,97
,,,,,,,,,,,,,,,,,,,,,,,,,,,,,,,,,,,,,,,,,o,2.899000168,O,FALSE,,,,,,,72,osito,Spanish,Sounds/spa_osito.mp3,2020-06-05_16h22.52.600,TranslationElicitation_eng-prolific,3.2.4,Win32,60,5e788a0aecd8c5000980308e,,1,0,98,67,1,97
,,,,,,,,,,,,,,,,,,,,,,,,,,,,,,,,,,,,,,,,,r,3.231000185,OR,FALSE,,,,,,,72,osito,Spanish,Sounds/spa_osito.mp3,2020-06-05_16h22.52.600,TranslationElicitation_eng-prolific,3.2.4,Win32,60,5e788a0aecd8c5000980308e,,1,0,98,67,1,97
,,,,,,,,,,,,,,,,,,,,,,,,,,,,,,,,,,,,,,,,,a,3.397000074,ORA,FALSE,,,,,,,72,osito,Spanish,Sounds/spa_osito.mp3,2020-06-05_16h22.52.600,TranslationElicitation_eng-prolific,3.2.4,Win32,60,5e788a0aecd8c5000980308e,,1,0,98,67,1,97
,,,,,,,,,,,,,,,,,,,,,,,,,,,,,,,,,,,,,,,,,n,3.695000172,ORAN,FALSE,,,,,,,72,osito,Spanish,Sounds/spa_osito.mp3,2020-06-05_16h22.52.600,TranslationElicitation_eng-prolific,3.2.4,Win32,60,5e788a0aecd8c5000980308e,,1,0,98,67,1,97
,,,,,,,,,,,,,,,,,,,,,,,,,,,,,,,,,,,,,,,,,g,3.93200016,ORANG,FALSE,,,,,,,72,osito,Spanish,Sounds/spa_osito.mp3,2020-06-05_16h22.52.600,TranslationElicitation_eng-prolific,3.2.4,Win32,60,5e788a0aecd8c5000980308e,,1,0,98,67,1,97
,,,,,,,,,,,,,,,,,,,,,,,,,,,,,,,,,,,,,,,,,e,4.03000021,ORANGE,FALSE,,,,,,,72,osito,Spanish,Sounds/spa_osito.mp3,2020-06-05_16h22.52.600,TranslationElicitation_eng-prolific,3.2.4,Win32,60,5e788a0aecd8c5000980308e,,1,0,98,67,1,97
,,,,,,,,,,,,,,,,,,,,,,,,,,,,,,,,,,,,,,,,,return,4.874000072,ORANGE,FALSE,,,,,,,72,osito,Spanish,Sounds/spa_osito.mp3,2020-06-05_16h22.52.600,TranslationElicitation_eng-prolific,3.2.4,Win32,60,5e788a0aecd8c5000980308e,4.874000072,1,0,98,67,1,97
,,,,,,,,,,,,,,,,,,,,,,,,,,,,,,,,,,,,,,,,,,,,,,,,,,,72,osito,Spanish,Sounds/spa_osito.mp3,2020-06-05_16h22.52.600,TranslationElicitation_eng-prolific,3.2.4,Win32,60,5e788a0aecd8c5000980308e,,1,0,98,67,1,97
,,,,,,,,,,,,,,,,,,,,,,,,,,,,,,,,,,,,,,,,,h,2,H,FALSE,,,,,,,97,tijeras,Spanish,Sounds/spa_tijeras.mp3,2020-06-05_16h22.52.600,TranslationElicitation_eng-prolific,3.2.4,Win32,60,5e788a0aecd8c5000980308e,,1,0,98,91,1,97
,,,,,,,,,,,,,,,,,,,,,,,,,,,,,,,,,,,,,,,,,a,2.121000051,HA,FALSE,,,,,,,97,tijeras,Spanish,Sounds/spa_tijeras.mp3,2020-06-05_16h22.52.600,TranslationElicitation_eng-prolific,3.2.4,Win32,60,5e788a0aecd8c5000980308e,,1,0,98,91,1,97
,,,,,,,,,,,,,,,,,,,,,,,,,,,,,,,,,,,,,,,,,i,2.299999952,HAI,FALSE,,,,,,,97,tijeras,Spanish,Sounds/spa_tijeras.mp3,2020-06-05_16h22.52.600,TranslationElicitation_eng-prolific,3.2.4,Win32,60,5e788a0aecd8c5000980308e,,1,0,98,91,1,97
,,,,,,,,,,,,,,,,,,,,,,,,,,,,,,,,,,,,,,,,,r,2.483999968,HAIR,FALSE,,,,,,,97,tijeras,Spanish,Sounds/spa_tijeras.mp3,2020-06-05_16h22.52.600,TranslationElicitation_eng-prolific,3.2.4,Win32,60,5e788a0aecd8c5000980308e,,1,0,98,91,1,97
,,,,,,,,,,,,,,,,,,,,,,,,,,,,,,,,,,,,,,,,,return,3.133999825,HAIR,FALSE,,,,,,,97,tijeras,Spanish,Sounds/spa_tijeras.mp3,2020-06-05_16h22.52.600,TranslationElicitation_eng-prolific,3.2.4,Win32,60,5e788a0aecd8c5000980308e,3.133999825,1,0,98,91,1,97
,,,,,,,,,,,,,,,,,,,,,,,,,,,,,,,,,,,,,,,,,,,,,,,,,,,97,tijeras,Spanish,Sounds/spa_tijeras.mp3,2020-06-05_16h22.52.600,TranslationElicitation_eng-prolific,3.2.4,Win32,60,5e788a0aecd8c5000980308e,,1,0,98,91,1,97
,,,,,,,,,,,,,,,,,,,,,,,,,,,,,,,,,,,,,,,,,l,1.70600009,L,FALSE,,,,,,,54,lengua,Spanish,Sounds/spa_lengua.mp3,2020-06-05_16h22.52.600,TranslationElicitation_eng-prolific,3.2.4,Win32,60,5e788a0aecd8c5000980308e,,1,0,98,50,1,97
,,,,,,,,,,,,,,,,,,,,,,,,,,,,,,,,,,,,,,,,,a,2.383000135,LA,FALSE,,,,,,,54,lengua,Spanish,Sounds/spa_lengua.mp3,2020-06-05_16h22.52.600,TranslationElicitation_eng-prolific,3.2.4,Win32,60,5e788a0aecd8c5000980308e,,1,0,98,50,1,97
,,,,,,,,,,,,,,,,,,,,,,,,,,,,,,,,,,,,,,,,,n,2.535000086,LAN,FALSE,,,,,,,54,lengua,Spanish,Sounds/spa_lengua.mp3,2020-06-05_16h22.52.600,TranslationElicitation_eng-prolific,3.2.4,Win32,60,5e788a0aecd8c5000980308e,,1,0,98,50,1,97
,,,,,,,,,,,,,,,,,,,,,,,,,,,,,,,,,,,,,,,,,g,2.782999992,LANG,FALSE,,,,,,,54,lengua,Spanish,Sounds/spa_lengua.mp3,2020-06-05_16h22.52.600,TranslationElicitation_eng-prolific,3.2.4,Win32,60,5e788a0aecd8c5000980308e,,1,0,98,50,1,97
,,,,,,,,,,,,,,,,,,,,,,,,,,,,,,,,,,,,,,,,,u,3.073000193,LANGU,FALSE,,,,,,,54,lengua,Spanish,Sounds/spa_lengua.mp3,2020-06-05_16h22.52.600,TranslationElicitation_eng-prolific,3.2.4,Win32,60,5e788a0aecd8c5000980308e,,1,0,98,50,1,97
,,,,,,,,,,,,,,,,,,,,,,,,,,,,,,,,,,,,,,,,,a,3.244000196,LANGUA,FALSE,,,,,,,54,lengua,Spanish,Sounds/spa_lengua.mp3,2020-06-05_16h22.52.600,TranslationElicitation_eng-prolific,3.2.4,Win32,60,5e788a0aecd8c5000980308e,,1,0,98,50,1,97
,,,,,,,,,,,,,,,,,,,,,,,,,,,,,,,,,,,,,,,,,g,3.390000105,LANGUAG,FALSE,,,,,,,54,lengua,Spanish,Sounds/spa_lengua.mp3,2020-06-05_16h22.52.600,TranslationElicitation_eng-prolific,3.2.4,Win32,60,5e788a0aecd8c5000980308e,,1,0,98,50,1,97
,,,,,,,,,,,,,,,,,,,,,,,,,,,,,,,,,,,,,,,,,e,3.605000019,LANGUAGE,FALSE,,,,,,,54,lengua,Spanish,Sounds/spa_lengua.mp3,2020-06-05_16h22.52.600,TranslationElicitation_eng-prolific,3.2.4,Win32,60,5e788a0aecd8c5000980308e,,1,0,98,50,1,97
,,,,,,,,,,,,,,,,,,,,,,,,,,,,,,,,,,,,,,,,,return,4.549000025,LANGUAGE,FALSE,,,,,,,54,lengua,Spanish,Sounds/spa_lengua.mp3,2020-06-05_16h22.52.600,TranslationElicitation_eng-prolific,3.2.4,Win32,60,5e788a0aecd8c5000980308e,4.549000025,1,0,98,50,1,97
,,,,,,,,,,,,,,,,,,,,,,,,,,,,,,,,,,,,,,,,,,,,,,,,,,,54,lengua,Spanish,Sounds/spa_lengua.mp3,2020-06-05_16h22.52.600,TranslationElicitation_eng-prolific,3.2.4,Win32,60,5e788a0aecd8c5000980308e,,1,0,98,50,1,97
,,,,,,,,,,,,,,,,,,,,,,,,,,,,,,,,,,,,,,,,,e,1.965999842,E,FALSE,,,,,,,34,ensalada,Spanish,Sounds/spa_ensalada.mp3,2020-06-05_16h22.52.600,TranslationElicitation_eng-prolific,3.2.4,Win32,60,5e788a0aecd8c5000980308e,,1,0,98,30,1,97
,,,,,,,,,,,,,,,,,,,,,,,,,,,,,,,,,,,,,,,,,n,2.299000025,EN,FALSE,,,,,,,34,ensalada,Spanish,Sounds/spa_ensalada.mp3,2020-06-05_16h22.52.600,TranslationElicitation_eng-prolific,3.2.4,Win32,60,5e788a0aecd8c5000980308e,,1,0,98,30,1,97
,,,,,,,,,,,,,,,,,,,,,,,,,,,,,,,,,,,,,,,,,c,2.5,ENC,FALSE,,,,,,,34,ensalada,Spanish,Sounds/spa_ensalada.mp3,2020-06-05_16h22.52.600,TranslationElicitation_eng-prolific,3.2.4,Win32,60,5e788a0aecd8c5000980308e,,1,0,98,30,1,97
,,,,,,,,,,,,,,,,,,,,,,,,,,,,,,,,,,,,,,,,,h,2.633999825,ENCH,FALSE,,,,,,,34,ensalada,Spanish,Sounds/spa_ensalada.mp3,2020-06-05_16h22.52.600,TranslationElicitation_eng-prolific,3.2.4,Win32,60,5e788a0aecd8c5000980308e,,1,0,98,30,1,97
,,,,,,,,,,,,,,,,,,,,,,,,,,,,,,,,,,,,,,,,,a,2.832999945,ENCHA,FALSE,,,,,,,34,ensalada,Spanish,Sounds/spa_ensalada.mp3,2020-06-05_16h22.52.600,TranslationElicitation_eng-prolific,3.2.4,Win32,60,5e788a0aecd8c5000980308e,,1,0,98,30,1,97
,,,,,,,,,,,,,,,,,,,,,,,,,,,,,,,,,,,,,,,,,l,3.01699996,ENCHAL,FALSE,,,,,,,34,ensalada,Spanish,Sounds/spa_ensalada.mp3,2020-06-05_16h22.52.600,TranslationElicitation_eng-prolific,3.2.4,Win32,60,5e788a0aecd8c5000980308e,,1,0,98,30,1,97
,,,,,,,,,,,,,,,,,,,,,,,,,,,,,,,,,,,,,,,,,l,3.241999865,ENCHALL,FALSE,,,,,,,34,ensalada,Spanish,Sounds/spa_ensalada.mp3,2020-06-05_16h22.52.600,TranslationElicitation_eng-prolific,3.2.4,Win32,60,5e788a0aecd8c5000980308e,,1,0,98,30,1,97
,,,,,,,,,,,,,,,,,,,,,,,,,,,,,,,,,,,,,,,,,backspace,4.865999937,ENCHAL,TRUE,,,,,,,34,ensalada,Spanish,Sounds/spa_ensalada.mp3,2020-06-05_16h22.52.600,TranslationElicitation_eng-prolific,3.2.4,Win32,60,5e788a0aecd8c5000980308e,,1,0,98,30,1,97
,,,,,,,,,,,,,,,,,,,,,,,,,,,,,,,,,,,,,,,,,backspace,5.103999853,ENCHA,TRUE,,,,,,,34,ensalada,Spanish,Sounds/spa_ensalada.mp3,2020-06-05_16h22.52.600,TranslationElicitation_eng-prolific,3.2.4,Win32,60,5e788a0aecd8c5000980308e,,1,0,98,30,1,97
,,,,,,,,,,,,,,,,,,,,,,,,,,,,,,,,,,,,,,,,,backspace,5.273000002,ENCH,TRUE,,,,,,,34,ensalada,Spanish,Sounds/spa_ensalada.mp3,2020-06-05_16h22.52.600,TranslationElicitation_eng-prolific,3.2.4,Win32,60,5e788a0aecd8c5000980308e,,1,0,98,30,1,97
,,,,,,,,,,,,,,,,,,,,,,,,,,,,,,,,,,,,,,,,,backspace,5.498999834,ENC,TRUE,,,,,,,34,ensalada,Spanish,Sounds/spa_ensalada.mp3,2020-06-05_16h22.52.600,TranslationElicitation_eng-prolific,3.2.4,Win32,60,5e788a0aecd8c5000980308e,,1,0,98,30,1,97
,,,,,,,,,,,,,,,,,,,,,,,,,,,,,,,,,,,,,,,,,backspace,5.70299983,EN,TRUE,,,,,,,34,ensalada,Spanish,Sounds/spa_ensalada.mp3,2020-06-05_16h22.52.600,TranslationElicitation_eng-prolific,3.2.4,Win32,60,5e788a0aecd8c5000980308e,,1,0,98,30,1,97
,,,,,,,,,,,,,,,,,,,,,,,,,,,,,,,,,,,,,,,,,backspace,5.955999851,E,TRUE,,,,,,,34,ensalada,Spanish,Sounds/spa_ensalada.mp3,2020-06-05_16h22.52.600,TranslationElicitation_eng-prolific,3.2.4,Win32,60,5e788a0aecd8c5000980308e,,1,0,98,30,1,97
,,,,,,,,,,,,,,,,,,,,,,,,,,,,,,,,,,,,,,,,,backspace,6.315999985,,TRUE,,,,,,,34,ensalada,Spanish,Sounds/spa_ensalada.mp3,2020-06-05_16h22.52.600,TranslationElicitation_eng-prolific,3.2.4,Win32,60,5e788a0aecd8c5000980308e,,1,0,98,30,1,97
,,,,,,,,,,,,,,,,,,,,,,,,,,,,,,,,,,,,,,,,,f,6.832999945,F,TRUE,,,,,,,34,ensalada,Spanish,Sounds/spa_ensalada.mp3,2020-06-05_16h22.52.600,TranslationElicitation_eng-prolific,3.2.4,Win32,60,5e788a0aecd8c5000980308e,,1,0,98,30,1,97
,,,,,,,,,,,,,,,,,,,,,,,,,,,,,,,,,,,,,,,,,a,6.998999834,FA,TRUE,,,,,,,34,ensalada,Spanish,Sounds/spa_ensalada.mp3,2020-06-05_16h22.52.600,TranslationElicitation_eng-prolific,3.2.4,Win32,60,5e788a0aecd8c5000980308e,,1,0,98,30,1,97
,,,,,,,,,,,,,,,,,,,,,,,,,,,,,,,,,,,,,,,,,j,7.386999846,FAJ,TRUE,,,,,,,34,ensalada,Spanish,Sounds/spa_ensalada.mp3,2020-06-05_16h22.52.600,TranslationElicitation_eng-prolific,3.2.4,Win32,60,5e788a0aecd8c5000980308e,,1,0,98,30,1,97
,,,,,,,,,,,,,,,,,,,,,,,,,,,,,,,,,,,,,,,,,i,7.825999975,FAJI,TRUE,,,,,,,34,ensalada,Spanish,Sounds/spa_ensalada.mp3,2020-06-05_16h22.52.600,TranslationElicitation_eng-prolific,3.2.4,Win32,60,5e788a0aecd8c5000980308e,,1,0,98,30,1,97
,,,,,,,,,,,,,,,,,,,,,,,,,,,,,,,,,,,,,,,,,t,8.187000036,FAJIT,TRUE,,,,,,,34,ensalada,Spanish,Sounds/spa_ensalada.mp3,2020-06-05_16h22.52.600,TranslationElicitation_eng-prolific,3.2.4,Win32,60,5e788a0aecd8c5000980308e,,1,0,98,30,1,97
,,,,,,,,,,,,,,,,,,,,,,,,,,,,,,,,,,,,,,,,,a,8.319000006,FAJITA,TRUE,,,,,,,34,ensalada,Spanish,Sounds/spa_ensalada.mp3,2020-06-05_16h22.52.600,TranslationElicitation_eng-prolific,3.2.4,Win32,60,5e788a0aecd8c5000980308e,,1,0,98,30,1,97
,,,,,,,,,,,,,,,,,,,,,,,,,,,,,,,,,,,,,,,,,return,9.396999836,FAJITA,TRUE,,,,,,,34,ensalada,Spanish,Sounds/spa_ensalada.mp3,2020-06-05_16h22.52.600,TranslationElicitation_eng-prolific,3.2.4,Win32,60,5e788a0aecd8c5000980308e,9.396999836,1,0,98,30,1,97
,,,,,,,,,,,,,,,,,,,,,,,,,,,,,,,,,,,,,,,,,,,,,,,,,,,34,ensalada,Spanish,Sounds/spa_ensalada.mp3,2020-06-05_16h22.52.600,TranslationElicitation_eng-prolific,3.2.4,Win32,60,5e788a0aecd8c5000980308e,,1,0,98,30,1,97
,,,,,,,,,,,,,,,,,,,,,,,,,,,,,,,,,,,,,,,,,b,1.850000143,B,FALSE,,,,,,,6,boca,Spanish,Sounds/spa_boca.mp3,2020-06-05_16h22.52.600,TranslationElicitation_eng-prolific,3.2.4,Win32,60,5e788a0aecd8c5000980308e,,1,0,98,4,1,97
,,,,,,,,,,,,,,,,,,,,,,,,,,,,,,,,,,,,,,,,,o,2.434000015,BO,FALSE,,,,,,,6,boca,Spanish,Sounds/spa_boca.mp3,2020-06-05_16h22.52.600,TranslationElicitation_eng-prolific,3.2.4,Win32,60,5e788a0aecd8c5000980308e,,1,0,98,4,1,97
,,,,,,,,,,,,,,,,,,,,,,,,,,,,,,,,,,,,,,,,,o,2.617000103,BOO,FALSE,,,,,,,6,boca,Spanish,Sounds/spa_boca.mp3,2020-06-05_16h22.52.600,TranslationElicitation_eng-prolific,3.2.4,Win32,60,5e788a0aecd8c5000980308e,,1,0,98,4,1,97
,,,,,,,,,,,,,,,,,,,,,,,,,,,,,,,,,,,,,,,,,k,2.817000151,BOOK,FALSE,,,,,,,6,boca,Spanish,Sounds/spa_boca.mp3,2020-06-05_16h22.52.600,TranslationElicitation_eng-prolific,3.2.4,Win32,60,5e788a0aecd8c5000980308e,,1,0,98,4,1,97
,,,,,,,,,,,,,,,,,,,,,,,,,,,,,,,,,,,,,,,,,return,3.513000011,BOOK,FALSE,,,,,,,6,boca,Spanish,Sounds/spa_boca.mp3,2020-06-05_16h22.52.600,TranslationElicitation_eng-prolific,3.2.4,Win32,60,5e788a0aecd8c5000980308e,3.513000011,1,0,98,4,1,97
,,,,,,,,,,,,,,,,,,,,,,,,,,,,,,,,,,,,,,,,,,,,,,,,,,,6,boca,Spanish,Sounds/spa_boca.mp3,2020-06-05_16h22.52.600,TranslationElicitation_eng-prolific,3.2.4,Win32,60,5e788a0aecd8c5000980308e,,1,0,98,4,1,97
,,,,,,,,,,,,,,,,,,,,,,,,,,,,,,,,,,,,,,,,,b,1.971999884,B,FALSE,,,,,,,5,bici,Spanish,Sounds/spa_bici.mp3,2020-06-05_16h22.52.600,TranslationElicitation_eng-prolific,3.2.4,Win32,60,5e788a0aecd8c5000980308e,,1,0,98,3,1,97
,,,,,,,,,,,,,,,,,,,,,,,,,,,,,,,,,,,,,,,,,e,2.18599987,BE,FALSE,,,,,,,5,bici,Spanish,Sounds/spa_bici.mp3,2020-06-05_16h22.52.600,TranslationElicitation_eng-prolific,3.2.4,Win32,60,5e788a0aecd8c5000980308e,,1,0,98,3,1,97
,,,,,,,,,,,,,,,,,,,,,,,,,,,,,,,,,,,,,,,,,e,2.40199995,BEE,FALSE,,,,,,,5,bici,Spanish,Sounds/spa_bici.mp3,2020-06-05_16h22.52.600,TranslationElicitation_eng-prolific,3.2.4,Win32,60,5e788a0aecd8c5000980308e,,1,0,98,3,1,97
,,,,,,,,,,,,,,,,,,,,,,,,,,,,,,,,,,,,,,,,,return,3.15199995,BEE,FALSE,,,,,,,5,bici,Spanish,Sounds/spa_bici.mp3,2020-06-05_16h22.52.600,TranslationElicitation_eng-prolific,3.2.4,Win32,60,5e788a0aecd8c5000980308e,3.15199995,1,0,98,3,1,97
,,,,,,,,,,,,,,,,,,,,,,,,,,,,,,,,,,,,,,,,,,,,,,,,,,,5,bici,Spanish,Sounds/spa_bici.mp3,2020-06-05_16h22.52.600,TranslationElicitation_eng-prolific,3.2.4,Win32,60,5e788a0aecd8c5000980308e,,1,0,98,3,1,97
,,,,,,,,,,,,,,,,,,,,,,,,,,,,,,,,,,,,,,,,,c,1.765999794,C,FALSE,,,,,,,27,chocolate,Spanish,Sounds/spa_chocolate.mp3,2020-06-05_16h22.52.600,TranslationElicitation_eng-prolific,3.2.4,Win32,60,5e788a0aecd8c5000980308e,,1,0,98,24,1,97
,,,,,,,,,,,,,,,,,,,,,,,,,,,,,,,,,,,,,,,,,h,1.873999834,CH,FALSE,,,,,,,27,chocolate,Spanish,Sounds/spa_chocolate.mp3,2020-06-05_16h22.52.600,TranslationElicitation_eng-prolific,3.2.4,Win32,60,5e788a0aecd8c5000980308e,,1,0,98,24,1,97
,,,,,,,,,,,,,,,,,,,,,,,,,,,,,,,,,,,,,,,,,o,2.167999983,CHO,FALSE,,,,,,,27,chocolate,Spanish,Sounds/spa_chocolate.mp3,2020-06-05_16h22.52.600,TranslationElicitation_eng-prolific,3.2.4,Win32,60,5e788a0aecd8c5000980308e,,1,0,98,24,1,97
,,,,,,,,,,,,,,,,,,,,,,,,,,,,,,,,,,,,,,,,,c,2.352999926,CHOC,FALSE,,,,,,,27,chocolate,Spanish,Sounds/spa_chocolate.mp3,2020-06-05_16h22.52.600,TranslationElicitation_eng-prolific,3.2.4,Win32,60,5e788a0aecd8c5000980308e,,1,0,98,24,1,97
,,,,,,,,,,,,,,,,,,,,,,,,,,,,,,,,,,,,,,,,,o,2.467000008,CHOCO,FALSE,,,,,,,27,chocolate,Spanish,Sounds/spa_chocolate.mp3,2020-06-05_16h22.52.600,TranslationElicitation_eng-prolific,3.2.4,Win32,60,5e788a0aecd8c5000980308e,,1,0,98,24,1,97
,,,,,,,,,,,,,,,,,,,,,,,,,,,,,,,,,,,,,,,,,l,2.698999882,CHOCOL,FALSE,,,,,,,27,chocolate,Spanish,Sounds/spa_chocolate.mp3,2020-06-05_16h22.52.600,TranslationElicitation_eng-prolific,3.2.4,Win32,60,5e788a0aecd8c5000980308e,,1,0,98,24,1,97
,,,,,,,,,,,,,,,,,,,,,,,,,,,,,,,,,,,,,,,,,a,2.788999796,CHOCOLA,FALSE,,,,,,,27,chocolate,Spanish,Sounds/spa_chocolate.mp3,2020-06-05_16h22.52.600,TranslationElicitation_eng-prolific,3.2.4,Win32,60,5e788a0aecd8c5000980308e,,1,0,98,24,1,97
,,,,,,,,,,,,,,,,,,,,,,,,,,,,,,,,,,,,,,,,,t,2.954999924,CHOCOLAT,FALSE,,,,,,,27,chocolate,Spanish,Sounds/spa_chocolate.mp3,2020-06-05_16h22.52.600,TranslationElicitation_eng-prolific,3.2.4,Win32,60,5e788a0aecd8c5000980308e,,1,0,98,24,1,97
,,,,,,,,,,,,,,,,,,,,,,,,,,,,,,,,,,,,,,,,,e,3.099999905,CHOCOLATE,FALSE,,,,,,,27,chocolate,Spanish,Sounds/spa_chocolate.mp3,2020-06-05_16h22.52.600,TranslationElicitation_eng-prolific,3.2.4,Win32,60,5e788a0aecd8c5000980308e,,1,0,98,24,1,97
,,,,,,,,,,,,,,,,,,,,,,,,,,,,,,,,,,,,,,,,,return,4.031999826,CHOCOLATE,FALSE,,,,,,,27,chocolate,Spanish,Sounds/spa_chocolate.mp3,2020-06-05_16h22.52.600,TranslationElicitation_eng-prolific,3.2.4,Win32,60,5e788a0aecd8c5000980308e,4.031999826,1,0,98,24,1,97
,,,,,,,,,,,,,,,,,,,,,,,,,,,,,,,,,,,,,,,,,,,,,,,,,,,27,chocolate,Spanish,Sounds/spa_chocolate.mp3,2020-06-05_16h22.52.600,TranslationElicitation_eng-prolific,3.2.4,Win32,60,5e788a0aecd8c5000980308e,,1,0,98,24,1,97
,,,,,,,,,,,,,,,,,,,,,,,,,,,,,,,,,,,,,,,,,b,4.204999924,B,FALSE,,,,,,,102,ventana,Spanish,Sounds/spa_ventana.mp3,2020-06-05_16h22.52.600,TranslationElicitation_eng-prolific,3.2.4,Win32,60,5e788a0aecd8c5000980308e,,1,0,98,96,1,97
,,,,,,,,,,,,,,,,,,,,,,,,,,,,,,,,,,,,,,,,,a,4.368000031,BA,FALSE,,,,,,,102,ventana,Spanish,Sounds/spa_ventana.mp3,2020-06-05_16h22.52.600,TranslationElicitation_eng-prolific,3.2.4,Win32,60,5e788a0aecd8c5000980308e,,1,0,98,96,1,97
,,,,,,,,,,,,,,,,,,,,,,,,,,,,,,,,,,,,,,,,,n,4.563999891,BAN,FALSE,,,,,,,102,ventana,Spanish,Sounds/spa_ventana.mp3,2020-06-05_16h22.52.600,TranslationElicitation_eng-prolific,3.2.4,Win32,60,5e788a0aecd8c5000980308e,,1,0,98,96,1,97
,,,,,,,,,,,,,,,,,,,,,,,,,,,,,,,,,,,,,,,,,a,4.727999926,BANA,FALSE,,,,,,,102,ventana,Spanish,Sounds/spa_ventana.mp3,2020-06-05_16h22.52.600,TranslationElicitation_eng-prolific,3.2.4,Win32,60,5e788a0aecd8c5000980308e,,1,0,98,96,1,97
,,,,,,,,,,,,,,,,,,,,,,,,,,,,,,,,,,,,,,,,,d,4.98300004,BANAD,FALSE,,,,,,,102,ventana,Spanish,Sounds/spa_ventana.mp3,2020-06-05_16h22.52.600,TranslationElicitation_eng-prolific,3.2.4,Win32,60,5e788a0aecd8c5000980308e,,1,0,98,96,1,97
,,,,,,,,,,,,,,,,,,,,,,,,,,,,,,,,,,,,,,,,,a,5.42599988,BANADA,FALSE,,,,,,,102,ventana,Spanish,Sounds/spa_ventana.mp3,2020-06-05_16h22.52.600,TranslationElicitation_eng-prolific,3.2.4,Win32,60,5e788a0aecd8c5000980308e,,1,0,98,96,1,97
,,,,,,,,,,,,,,,,,,,,,,,,,,,,,,,,,,,,,,,,,n,5.56099987,BANADAN,FALSE,,,,,,,102,ventana,Spanish,Sounds/spa_ventana.mp3,2020-06-05_16h22.52.600,TranslationElicitation_eng-prolific,3.2.4,Win32,60,5e788a0aecd8c5000980308e,,1,0,98,96,1,97
,,,,,,,,,,,,,,,,,,,,,,,,,,,,,,,,,,,,,,,,,a,5.70600009,BANADANA,FALSE,,,,,,,102,ventana,Spanish,Sounds/spa_ventana.mp3,2020-06-05_16h22.52.600,TranslationElicitation_eng-prolific,3.2.4,Win32,60,5e788a0aecd8c5000980308e,,1,0,98,96,1,97
,,,,,,,,,,,,,,,,,,,,,,,,,,,,,,,,,,,,,,,,,backspace,8.263000011,BANADAN,TRUE,,,,,,,102,ventana,Spanish,Sounds/spa_ventana.mp3,2020-06-05_16h22.52.600,TranslationElicitation_eng-prolific,3.2.4,Win32,60,5e788a0aecd8c5000980308e,,1,0,98,96,1,97
,,,,,,,,,,,,,,,,,,,,,,,,,,,,,,,,,,,,,,,,,backspace,8.480999947,BANADA,TRUE,,,,,,,102,ventana,Spanish,Sounds/spa_ventana.mp3,2020-06-05_16h22.52.600,TranslationElicitation_eng-prolific,3.2.4,Win32,60,5e788a0aecd8c5000980308e,,1,0,98,96,1,97
,,,,,,,,,,,,,,,,,,,,,,,,,,,,,,,,,,,,,,,,,backspace,8.67599988,BANAD,TRUE,,,,,,,102,ventana,Spanish,Sounds/spa_ventana.mp3,2020-06-05_16h22.52.600,TranslationElicitation_eng-prolific,3.2.4,Win32,60,5e788a0aecd8c5000980308e,,1,0,98,96,1,97
,,,,,,,,,,,,,,,,,,,,,,,,,,,,,,,,,,,,,,,,,backspace,8.897000074,BANA,TRUE,,,,,,,102,ventana,Spanish,Sounds/spa_ventana.mp3,2020-06-05_16h22.52.600,TranslationElicitation_eng-prolific,3.2.4,Win32,60,5e788a0aecd8c5000980308e,,1,0,98,96,1,97
,,,,,,,,,,,,,,,,,,,,,,,,,,,,,,,,,,,,,,,,,backspace,9.246999979,BAN,TRUE,,,,,,,102,ventana,Spanish,Sounds/spa_ventana.mp3,2020-06-05_16h22.52.600,TranslationElicitation_eng-prolific,3.2.4,Win32,60,5e788a0aecd8c5000980308e,,1,0,98,96,1,97
,,,,,,,,,,,,,,,,,,,,,,,,,,,,,,,,,,,,,,,,,d,9.683000088,BAND,TRUE,,,,,,,102,ventana,Spanish,Sounds/spa_ventana.mp3,2020-06-05_16h22.52.600,TranslationElicitation_eng-prolific,3.2.4,Win32,60,5e788a0aecd8c5000980308e,,1,0,98,96,1,97
,,,,,,,,,,,,,,,,,,,,,,,,,,,,,,,,,,,,,,,,,a,9.921000004,BANDA,TRUE,,,,,,,102,ventana,Spanish,Sounds/spa_ventana.mp3,2020-06-05_16h22.52.600,TranslationElicitation_eng-prolific,3.2.4,Win32,60,5e788a0aecd8c5000980308e,,1,0,98,96,1,97
,,,,,,,,,,,,,,,,,,,,,,,,,,,,,,,,,,,,,,,,,n,10.30200005,BANDAN,TRUE,,,,,,,102,ventana,Spanish,Sounds/spa_ventana.mp3,2020-06-05_16h22.52.600,TranslationElicitation_eng-prolific,3.2.4,Win32,60,5e788a0aecd8c5000980308e,,1,0,98,96,1,97
,,,,,,,,,,,,,,,,,,,,,,,,,,,,,,,,,,,,,,,,,a,10.81999993,BANDANA,TRUE,,,,,,,102,ventana,Spanish,Sounds/spa_ventana.mp3,2020-06-05_16h22.52.600,TranslationElicitation_eng-prolific,3.2.4,Win32,60,5e788a0aecd8c5000980308e,,1,0,98,96,1,97
,,,,,,,,,,,,,,,,,,,,,,,,,,,,,,,,,,,,,,,,,return,11.56699991,BANDANA,TRUE,,,,,,,102,ventana,Spanish,Sounds/spa_ventana.mp3,2020-06-05_16h22.52.600,TranslationElicitation_eng-prolific,3.2.4,Win32,60,5e788a0aecd8c5000980308e,11.56699991,1,0,98,96,1,97
,,,,,,,,,,,,,,,,,,,,,,,,,,,,,,,,,,,,,,,,,,,,,,,,,,,102,ventana,Spanish,Sounds/spa_ventana.mp3,2020-06-05_16h22.52.600,TranslationElicitation_eng-prolific,3.2.4,Win32,60,5e788a0aecd8c5000980308e,,1,0,98,96,1,97
,,,,,,,,,,,,,,,,,,,,,,,,,,,,,,,,,,,,,,,,,g,3.294000149,G,FALSE,,,,,,,84,pie,Spanish,Sounds/spa_pie.mp3,2020-06-05_16h22.52.600,TranslationElicitation_eng-prolific,3.2.4,Win32,60,5e788a0aecd8c5000980308e,,1,0,98,79,1,97
,,,,,,,,,,,,,,,,,,,,,,,,,,,,,,,,,,,,,,,,,o,3.728000164,GO,FALSE,,,,,,,84,pie,Spanish,Sounds/spa_pie.mp3,2020-06-05_16h22.52.600,TranslationElicitation_eng-prolific,3.2.4,Win32,60,5e788a0aecd8c5000980308e,,1,0,98,79,1,97
,,,,,,,,,,,,,,,,,,,,,,,,,,,,,,,,,,,,,,,,,o,3.889000177,GOO,FALSE,,,,,,,84,pie,Spanish,Sounds/spa_pie.mp3,2020-06-05_16h22.52.600,TranslationElicitation_eng-prolific,3.2.4,Win32,60,5e788a0aecd8c5000980308e,,1,0,98,79,1,97
,,,,,,,,,,,,,,,,,,,,,,,,,,,,,,,,,,,,,,,,,d,4.259000063,GOOD,FALSE,,,,,,,84,pie,Spanish,Sounds/spa_pie.mp3,2020-06-05_16h22.52.600,TranslationElicitation_eng-prolific,3.2.4,Win32,60,5e788a0aecd8c5000980308e,,1,0,98,79,1,97
,,,,,,,,,,,,,,,,,,,,,,,,,,,,,,,,,,,,,,,,,return,5.636000156,GOOD,FALSE,,,,,,,84,pie,Spanish,Sounds/spa_pie.mp3,2020-06-05_16h22.52.600,TranslationElicitation_eng-prolific,3.2.4,Win32,60,5e788a0aecd8c5000980308e,5.636000156,1,0,98,79,1,97
,,,,,,,,,,,,,,,,,,,,,,,,,,,,,,,,,,,,,,,,,,,,,,,,,,,84,pie,Spanish,Sounds/spa_pie.mp3,2020-06-05_16h22.52.600,TranslationElicitation_eng-prolific,3.2.4,Win32,60,5e788a0aecd8c5000980308e,,1,0,98,79,1,97
,,,,,,,,,,,,,,,,,,,,,,,,,,,,,,,,,,,,,,,,,s,3.686000109,S,FALSE,,,,,,,91,puerta,Spanish,Sounds/spa_puerta.mp3,2020-06-05_16h22.52.600,TranslationElicitation_eng-prolific,3.2.4,Win32,60,5e788a0aecd8c5000980308e,,1,0,98,86,1,97
,,,,,,,,,,,,,,,,,,,,,,,,,,,,,,,,,,,,,,,,,t,3.950000048,ST,FALSE,,,,,,,91,puerta,Spanish,Sounds/spa_puerta.mp3,2020-06-05_16h22.52.600,TranslationElicitation_eng-prolific,3.2.4,Win32,60,5e788a0aecd8c5000980308e,,1,0,98,86,1,97
,,,,,,,,,,,,,,,,,,,,,,,,,,,,,,,,,,,,,,,,,o,4.511000156,STO,FALSE,,,,,,,91,puerta,Spanish,Sounds/spa_puerta.mp3,2020-06-05_16h22.52.600,TranslationElicitation_eng-prolific,3.2.4,Win32,60,5e788a0aecd8c5000980308e,,1,0,98,86,1,97
,,,,,,,,,,,,,,,,,,,,,,,,,,,,,,,,,,,,,,,,,p,4.740999937,STOP,FALSE,,,,,,,91,puerta,Spanish,Sounds/spa_puerta.mp3,2020-06-05_16h22.52.600,TranslationElicitation_eng-prolific,3.2.4,Win32,60,5e788a0aecd8c5000980308e,,1,0,98,86,1,97
,,,,,,,,,,,,,,,,,,,,,,,,,,,,,,,,,,,,,,,,,return,5.761000156,STOP,FALSE,,,,,,,91,puerta,Spanish,Sounds/spa_puerta.mp3,2020-06-05_16h22.52.600,TranslationElicitation_eng-prolific,3.2.4,Win32,60,5e788a0aecd8c5000980308e,5.761000156,1,0,98,86,1,97
,,,,,,,,,,,,,,,,,,,,,,,,,,,,,,,,,,,,,,,,,,,,,,,,,,,91,puerta,Spanish,Sounds/spa_puerta.mp3,2020-06-05_16h22.52.600,TranslationElicitation_eng-prolific,3.2.4,Win32,60,5e788a0aecd8c5000980308e,,1,0,98,86,1,97
,,,,,,,,,,,,,,,,,,,,,,,,,,,,,,,,,,,,,,,,,l,3.159000158,L,FALSE,,,,,,,55,leon,Spanish,Sounds/spa_leon.mp3,2020-06-05_16h22.52.600,TranslationElicitation_eng-prolific,3.2.4,Win32,60,5e788a0aecd8c5000980308e,,1,0,98,51,1,97
,,,,,,,,,,,,,,,,,,,,,,,,,,,,,,,,,,,,,,,,,i,3.417000055,LI,FALSE,,,,,,,55,leon,Spanish,Sounds/spa_leon.mp3,2020-06-05_16h22.52.600,TranslationElicitation_eng-prolific,3.2.4,Win32,60,5e788a0aecd8c5000980308e,,1,0,98,51,1,97
,,,,,,,,,,,,,,,,,,,,,,,,,,,,,,,,,,,,,,,,,m,3.607000113,LIM,FALSE,,,,,,,55,leon,Spanish,Sounds/spa_leon.mp3,2020-06-05_16h22.52.600,TranslationElicitation_eng-prolific,3.2.4,Win32,60,5e788a0aecd8c5000980308e,,1,0,98,51,1,97
,,,,,,,,,,,,,,,,,,,,,,,,,,,,,,,,,,,,,,,,,e,3.873000145,LIME,FALSE,,,,,,,55,leon,Spanish,Sounds/spa_leon.mp3,2020-06-05_16h22.52.600,TranslationElicitation_eng-prolific,3.2.4,Win32,60,5e788a0aecd8c5000980308e,,1,0,98,51,1,97
,,,,,,,,,,,,,,,,,,,,,,,,,,,,,,,,,,,,,,,,,return,4.926000118,LIME,FALSE,,,,,,,55,leon,Spanish,Sounds/spa_leon.mp3,2020-06-05_16h22.52.600,TranslationElicitation_eng-prolific,3.2.4,Win32,60,5e788a0aecd8c5000980308e,4.926000118,1,0,98,51,1,97
,,,,,,,,,,,,,,,,,,,,,,,,,,,,,,,,,,,,,,,,,,,,,,,,,,,55,leon,Spanish,Sounds/spa_leon.mp3,2020-06-05_16h22.52.600,TranslationElicitation_eng-prolific,3.2.4,Win32,60,5e788a0aecd8c5000980308e,,1,0,98,51,1,97
,,,,,,,,,,,,,,,,,,,,,,,,,,,,,,,,,,,,,,,,,c,2.170000076,C,FALSE,,,,,,,18,camisa,Spanish,Sounds/spa_camisa.mp3,2020-06-05_16h22.52.600,TranslationElicitation_eng-prolific,3.2.4,Win32,60,5e788a0aecd8c5000980308e,,1,0,98,16,1,97
,,,,,,,,,,,,,,,,,,,,,,,,,,,,,,,,,,,,,,,,,o,2.315000057,CO,FALSE,,,,,,,18,camisa,Spanish,Sounds/spa_camisa.mp3,2020-06-05_16h22.52.600,TranslationElicitation_eng-prolific,3.2.4,Win32,60,5e788a0aecd8c5000980308e,,1,0,98,16,1,97
,,,,,,,,,,,,,,,,,,,,,,,,,,,,,,,,,,,,,,,,,m,2.493000031,COM,FALSE,,,,,,,18,camisa,Spanish,Sounds/spa_camisa.mp3,2020-06-05_16h22.52.600,TranslationElicitation_eng-prolific,3.2.4,Win32,60,5e788a0aecd8c5000980308e,,1,0,98,16,1,97
,,,,,,,,,,,,,,,,,,,,,,,,,,,,,,,,,,,,,,,,,e,2.643000126,COME,FALSE,,,,,,,18,camisa,Spanish,Sounds/spa_camisa.mp3,2020-06-05_16h22.52.600,TranslationElicitation_eng-prolific,3.2.4,Win32,60,5e788a0aecd8c5000980308e,,1,0,98,16,1,97
,,,,,,,,,,,,,,,,,,,,,,,,,,,,,,,,,,,,,,,,,return,3.630000114,COME,FALSE,,,,,,,18,camisa,Spanish,Sounds/spa_camisa.mp3,2020-06-05_16h22.52.600,TranslationElicitation_eng-prolific,3.2.4,Win32,60,5e788a0aecd8c5000980308e,3.630000114,1,0,98,16,1,97
,,,,,,,,,,,,,,,,,,,,,,,,,,,,,,,,,,,,,,,,,,,,,,,,,,,18,camisa,Spanish,Sounds/spa_camisa.mp3,2020-06-05_16h22.52.600,TranslationElicitation_eng-prolific,3.2.4,Win32,60,5e788a0aecd8c5000980308e,,1,0,98,16,1,97
,,,,,,,,,,,,,,,,,,,,,,,,,,,,,,,,,,,,,,,,,t,2.877000093,T,FALSE,,,,,,,77,pantalon,Spanish,Sounds/spa_pantalon.mp3,2020-06-05_16h22.52.600,TranslationElicitation_eng-prolific,3.2.4,Win32,60,5e788a0aecd8c5000980308e,,1,0,98,72,1,97
,,,,,,,,,,,,,,,,,,,,,,,,,,,,,,,,,,,,,,,,,r,3.059999943,TR,FALSE,,,,,,,77,pantalon,Spanish,Sounds/spa_pantalon.mp3,2020-06-05_16h22.52.600,TranslationElicitation_eng-prolific,3.2.4,Win32,60,5e788a0aecd8c5000980308e,,1,0,98,72,1,97
,,,,,,,,,,,,,,,,,,,,,,,,,,,,,,,,,,,,,,,,,o,3.243000031,TRO,FALSE,,,,,,,77,pantalon,Spanish,Sounds/spa_pantalon.mp3,2020-06-05_16h22.52.600,TranslationElicitation_eng-prolific,3.2.4,Win32,60,5e788a0aecd8c5000980308e,,1,0,98,72,1,97
,,,,,,,,,,,,,,,,,,,,,,,,,,,,,,,,,,,,,,,,,u,3.437000036,TROU,FALSE,,,,,,,77,pantalon,Spanish,Sounds/spa_pantalon.mp3,2020-06-05_16h22.52.600,TranslationElicitation_eng-prolific,3.2.4,Win32,60,5e788a0aecd8c5000980308e,,1,0,98,72,1,97
,,,,,,,,,,,,,,,,,,,,,,,,,,,,,,,,,,,,,,,,,s,3.571000099,TROUS,FALSE,,,,,,,77,pantalon,Spanish,Sounds/spa_pantalon.mp3,2020-06-05_16h22.52.600,TranslationElicitation_eng-prolific,3.2.4,Win32,60,5e788a0aecd8c5000980308e,,1,0,98,72,1,97
,,,,,,,,,,,,,,,,,,,,,,,,,,,,,,,,,,,,,,,,,e,3.773000002,TROUSE,FALSE,,,,,,,77,pantalon,Spanish,Sounds/spa_pantalon.mp3,2020-06-05_16h22.52.600,TranslationElicitation_eng-prolific,3.2.4,Win32,60,5e788a0aecd8c5000980308e,,1,0,98,72,1,97
,,,,,,,,,,,,,,,,,,,,,,,,,,,,,,,,,,,,,,,,,r,4.058000088,TROUSER,FALSE,,,,,,,77,pantalon,Spanish,Sounds/spa_pantalon.mp3,2020-06-05_16h22.52.600,TranslationElicitation_eng-prolific,3.2.4,Win32,60,5e788a0aecd8c5000980308e,,1,0,98,72,1,97
,,,,,,,,,,,,,,,,,,,,,,,,,,,,,,,,,,,,,,,,,s,4.322000027,TROUSERS,FALSE,,,,,,,77,pantalon,Spanish,Sounds/spa_pantalon.mp3,2020-06-05_16h22.52.600,TranslationElicitation_eng-prolific,3.2.4,Win32,60,5e788a0aecd8c5000980308e,,1,0,98,72,1,97
,,,,,,,,,,,,,,,,,,,,,,,,,,,,,,,,,,,,,,,,,return,4.990999937,TROUSERS,FALSE,,,,,,,77,pantalon,Spanish,Sounds/spa_pantalon.mp3,2020-06-05_16h22.52.600,TranslationElicitation_eng-prolific,3.2.4,Win32,60,5e788a0aecd8c5000980308e,4.990999937,1,0,98,72,1,97
,,,,,,,,,,,,,,,,,,,,,,,,,,,,,,,,,,,,,,,,,,,,,,,,,,,77,pantalon,Spanish,Sounds/spa_pantalon.mp3,2020-06-05_16h22.52.600,TranslationElicitation_eng-prolific,3.2.4,Win32,60,5e788a0aecd8c5000980308e,,1,0,98,72,1,97
,,,,,,,,,,,,,,,,,,,,,,,,,,,,,,,,,,,,,,,,,s,1.651000023,S,FALSE,,,,,,,92,sandwich,Spanish,Sounds/spa_sandwich.mp3,2020-06-05_16h22.52.600,TranslationElicitation_eng-prolific,3.2.4,Win32,60,5e788a0aecd8c5000980308e,,1,0,98,87,1,97
,,,,,,,,,,,,,,,,,,,,,,,,,,,,,,,,,,,,,,,,,a,1.879999876,SA,FALSE,,,,,,,92,sandwich,Spanish,Sounds/spa_sandwich.mp3,2020-06-05_16h22.52.600,TranslationElicitation_eng-prolific,3.2.4,Win32,60,5e788a0aecd8c5000980308e,,1,0,98,87,1,97
,,,,,,,,,,,,,,,,,,,,,,,,,,,,,,,,,,,,,,,,,n,2.030999899,SAN,FALSE,,,,,,,92,sandwich,Spanish,Sounds/spa_sandwich.mp3,2020-06-05_16h22.52.600,TranslationElicitation_eng-prolific,3.2.4,Win32,60,5e788a0aecd8c5000980308e,,1,0,98,87,1,97
,,,,,,,,,,,,,,,,,,,,,,,,,,,,,,,,,,,,,,,,,d,2.149999857,SAND,FALSE,,,,,,,92,sandwich,Spanish,Sounds/spa_sandwich.mp3,2020-06-05_16h22.52.600,TranslationElicitation_eng-prolific,3.2.4,Win32,60,5e788a0aecd8c5000980308e,,1,0,98,87,1,97
,,,,,,,,,,,,,,,,,,,,,,,,,,,,,,,,,,,,,,,,,w,2.602999926,SANDW,FALSE,,,,,,,92,sandwich,Spanish,Sounds/spa_sandwich.mp3,2020-06-05_16h22.52.600,TranslationElicitation_eng-prolific,3.2.4,Win32,60,5e788a0aecd8c5000980308e,,1,0,98,87,1,97
,,,,,,,,,,,,,,,,,,,,,,,,,,,,,,,,,,,,,,,,,i,2.726000071,SANDWI,FALSE,,,,,,,92,sandwich,Spanish,Sounds/spa_sandwich.mp3,2020-06-05_16h22.52.600,TranslationElicitation_eng-prolific,3.2.4,Win32,60,5e788a0aecd8c5000980308e,,1,0,98,87,1,97
,,,,,,,,,,,,,,,,,,,,,,,,,,,,,,,,,,,,,,,,,c,2.895999908,SANDWIC,FALSE,,,,,,,92,sandwich,Spanish,Sounds/spa_sandwich.mp3,2020-06-05_16h22.52.600,TranslationElicitation_eng-prolific,3.2.4,Win32,60,5e788a0aecd8c5000980308e,,1,0,98,87,1,97
,,,,,,,,,,,,,,,,,,,,,,,,,,,,,,,,,,,,,,,,,h,3.016000032,SANDWICH,FALSE,,,,,,,92,sandwich,Spanish,Sounds/spa_sandwich.mp3,2020-06-05_16h22.52.600,TranslationElicitation_eng-prolific,3.2.4,Win32,60,5e788a0aecd8c5000980308e,,1,0,98,87,1,97
,,,,,,,,,,,,,,,,,,,,,,,,,,,,,,,,,,,,,,,,,return,3.884000063,SANDWICH,FALSE,,,,,,,92,sandwich,Spanish,Sounds/spa_sandwich.mp3,2020-06-05_16h22.52.600,TranslationElicitation_eng-prolific,3.2.4,Win32,60,5e788a0aecd8c5000980308e,3.884000063,1,0,98,87,1,97
,,,,,,,,,,,,,,,,,,,,,,,,,,,,,,,,,,,,,,,,,,,,,,,,,,,92,sandwich,Spanish,Sounds/spa_sandwich.mp3,2020-06-05_16h22.52.600,TranslationElicitation_eng-prolific,3.2.4,Win32,60,5e788a0aecd8c5000980308e,,1,0,98,87,1,97
,,,,,,,,,,,,,,,,,,,,,,,,,,,,,,,,,,,,,,,,,e,2.488999844,E,FALSE,,,,,,,4,biberon,Spanish,Sounds/spa_biberon.mp3,2020-06-05_16h22.52.600,TranslationElicitation_eng-prolific,3.2.4,Win32,60,5e788a0aecd8c5000980308e,,1,0,98,2,1,97
,,,,,,,,,,,,,,,,,,,,,,,,,,,,,,,,,,,,,,,,,a,2.769999981,EA,FALSE,,,,,,,4,biberon,Spanish,Sounds/spa_biberon.mp3,2020-06-05_16h22.52.600,TranslationElicitation_eng-prolific,3.2.4,Win32,60,5e788a0aecd8c5000980308e,,1,0,98,2,1,97
,,,,,,,,,,,,,,,,,,,,,,,,,,,,,,,,,,,,,,,,,r,2.986000061,EAR,FALSE,,,,,,,4,biberon,Spanish,Sounds/spa_biberon.mp3,2020-06-05_16h22.52.600,TranslationElicitation_eng-prolific,3.2.4,Win32,60,5e788a0aecd8c5000980308e,,1,0,98,2,1,97
,,,,,,,,,,,,,,,,,,,,,,,,,,,,,,,,,,,,,,,,,r,3.157000065,EARR,FALSE,,,,,,,4,biberon,Spanish,Sounds/spa_biberon.mp3,2020-06-05_16h22.52.600,TranslationElicitation_eng-prolific,3.2.4,Win32,60,5e788a0aecd8c5000980308e,,1,0,98,2,1,97
,,,,,,,,,,,,,,,,,,,,,,,,,,,,,,,,,,,,,,,,,i,3.731999874,EARRI,FALSE,,,,,,,4,biberon,Spanish,Sounds/spa_biberon.mp3,2020-06-05_16h22.52.600,TranslationElicitation_eng-prolific,3.2.4,Win32,60,5e788a0aecd8c5000980308e,,1,0,98,2,1,97
,,,,,,,,,,,,,,,,,,,,,,,,,,,,,,,,,,,,,,,,,n,3.881999969,EARRIN,FALSE,,,,,,,4,biberon,Spanish,Sounds/spa_biberon.mp3,2020-06-05_16h22.52.600,TranslationElicitation_eng-prolific,3.2.4,Win32,60,5e788a0aecd8c5000980308e,,1,0,98,2,1,97
,,,,,,,,,,,,,,,,,,,,,,,,,,,,,,,,,,,,,,,,,g,3.964999914,EARRING,FALSE,,,,,,,4,biberon,Spanish,Sounds/spa_biberon.mp3,2020-06-05_16h22.52.600,TranslationElicitation_eng-prolific,3.2.4,Win32,60,5e788a0aecd8c5000980308e,,1,0,98,2,1,97
,,,,,,,,,,,,,,,,,,,,,,,,,,,,,,,,,,,,,,,,,return,4.927999973,EARRING,FALSE,,,,,,,4,biberon,Spanish,Sounds/spa_biberon.mp3,2020-06-05_16h22.52.600,TranslationElicitation_eng-prolific,3.2.4,Win32,60,5e788a0aecd8c5000980308e,4.927999973,1,0,98,2,1,97
,,,,,,,,,,,,,,,,,,,,,,,,,,,,,,,,,,,,,,,,,,,,,,,,,,,4,biberon,Spanish,Sounds/spa_biberon.mp3,2020-06-05_16h22.52.600,TranslationElicitation_eng-prolific,3.2.4,Win32,60,5e788a0aecd8c5000980308e,,1,0,98,2,1,97
,,,,,,,,,,,,,,,,,,,,,,,,,,,,,,,,,,,,,,,,,s,3.92599988,S,FALSE,,,,,,,103,zanahoria,Spanish,Sounds/spa_zanahoria.mp3,2020-06-05_16h22.52.600,TranslationElicitation_eng-prolific,3.2.4,Win32,60,5e788a0aecd8c5000980308e,,1,0,98,97,1,97
,,,,,,,,,,,,,,,,,,,,,,,,,,,,,,,,,,,,,,,,,a,4.115999937,SA,FALSE,,,,,,,103,zanahoria,Spanish,Sounds/spa_zanahoria.mp3,2020-06-05_16h22.52.600,TranslationElicitation_eng-prolific,3.2.4,Win32,60,5e788a0aecd8c5000980308e,,1,0,98,97,1,97
,,,,,,,,,,,,,,,,,,,,,,,,,,,,,,,,,,,,,,,,,n,4.252999783,SAN,FALSE,,,,,,,103,zanahoria,Spanish,Sounds/spa_zanahoria.mp3,2020-06-05_16h22.52.600,TranslationElicitation_eng-prolific,3.2.4,Win32,60,5e788a0aecd8c5000980308e,,1,0,98,97,1,97
,,,,,,,,,,,,,,,,,,,,,,,,,,,,,,,,,,,,,,,,,d,4.4599998,SAND,FALSE,,,,,,,103,zanahoria,Spanish,Sounds/spa_zanahoria.mp3,2020-06-05_16h22.52.600,TranslationElicitation_eng-prolific,3.2.4,Win32,60,5e788a0aecd8c5000980308e,,1,0,98,97,1,97
,,,,,,,,,,,,,,,,,,,,,,,,,,,,,,,,,,,,,,,,,return,5.034999847,SAND,FALSE,,,,,,,103,zanahoria,Spanish,Sounds/spa_zanahoria.mp3,2020-06-05_16h22.52.600,TranslationElicitation_eng-prolific,3.2.4,Win32,60,5e788a0aecd8c5000980308e,5.034999847,1,0,98,97,1,97
,,,,,,,,,,,,,,,,,,,,,,,,,,,,,,,,,,,,,,,,,,,,,,,,,,,103,zanahoria,Spanish,Sounds/spa_zanahoria.mp3,2020-06-05_16h22.52.600,TranslationElicitation_eng-prolific,3.2.4,Win32,60,5e788a0aecd8c5000980308e,,1,0,98,97,1,97
,,,,,,,,,,,,,,,,,,,,,,,,,,,,,,,,,,,,,,,,,c,4.878000021,C,FALSE,,,,,,,71,ombligo,Spanish,Sounds/spa_ombligo.mp3,2020-06-05_16h22.52.600,TranslationElicitation_eng-prolific,3.2.4,Win32,60,5e788a0aecd8c5000980308e,,1,0,98,66,1,97
,,,,,,,,,,,,,,,,,,,,,,,,,,,,,,,,,,,,,,,,,a,5.157000065,CA,FALSE,,,,,,,71,ombligo,Spanish,Sounds/spa_ombligo.mp3,2020-06-05_16h22.52.600,TranslationElicitation_eng-prolific,3.2.4,Win32,60,5e788a0aecd8c5000980308e,,1,0,98,66,1,97
,,,,,,,,,,,,,,,,,,,,,,,,,,,,,,,,,,,,,,,,,k,5.312000036,CAK,FALSE,,,,,,,71,ombligo,Spanish,Sounds/spa_ombligo.mp3,2020-06-05_16h22.52.600,TranslationElicitation_eng-prolific,3.2.4,Win32,60,5e788a0aecd8c5000980308e,,1,0,98,66,1,97
,,,,,,,,,,,,,,,,,,,,,,,,,,,,,,,,,,,,,,,,,e,5.440999985,CAKE,FALSE,,,,,,,71,ombligo,Spanish,Sounds/spa_ombligo.mp3,2020-06-05_16h22.52.600,TranslationElicitation_eng-prolific,3.2.4,Win32,60,5e788a0aecd8c5000980308e,,1,0,98,66,1,97
,,,,,,,,,,,,,,,,,,,,,,,,,,,,,,,,,,,,,,,,,return,6.101000071,CAKE,FALSE,,,,,,,71,ombligo,Spanish,Sounds/spa_ombligo.mp3,2020-06-05_16h22.52.600,TranslationElicitation_eng-prolific,3.2.4,Win32,60,5e788a0aecd8c5000980308e,6.101000071,1,0,98,66,1,97
,,,,,,,,,,,,,,,,,,,,,,,,,,,,,,,,,,,,,,,,,,,,,,,,,,,71,ombligo,Spanish,Sounds/spa_ombligo.mp3,2020-06-05_16h22.52.600,TranslationElicitation_eng-prolific,3.2.4,Win32,60,5e788a0aecd8c5000980308e,,1,0,98,66,1,97
,,,,,,,,,,,,,,,,,,,,,,,,,,,,,,,,,,,,,,,,,b,3.599999905,B,FALSE,,,,,,,12,brazo,Spanish,Sounds/spa_brazo.mp3,2020-06-05_16h22.52.600,TranslationElicitation_eng-prolific,3.2.4,Win32,60,5e788a0aecd8c5000980308e,,1,0,98,10,1,97
,,,,,,,,,,,,,,,,,,,,,,,,,,,,,,,,,,,,,,,,,a,3.710999966,BA,FALSE,,,,,,,12,brazo,Spanish,Sounds/spa_brazo.mp3,2020-06-05_16h22.52.600,TranslationElicitation_eng-prolific,3.2.4,Win32,60,5e788a0aecd8c5000980308e,,1,0,98,10,1,97
,,,,,,,,,,,,,,,,,,,,,,,,,,,,,,,,,,,,,,,,,d,3.943000078,BAD,FALSE,,,,,,,12,brazo,Spanish,Sounds/spa_brazo.mp3,2020-06-05_16h22.52.600,TranslationElicitation_eng-prolific,3.2.4,Win32,60,5e788a0aecd8c5000980308e,,1,0,98,10,1,97
,,,,,,,,,,,,,,,,,,,,,,,,,,,,,,,,,,,,,,,,,return,4.730000019,BAD,FALSE,,,,,,,12,brazo,Spanish,Sounds/spa_brazo.mp3,2020-06-05_16h22.52.600,TranslationElicitation_eng-prolific,3.2.4,Win32,60,5e788a0aecd8c5000980308e,4.730000019,1,0,98,10,1,97
,,,,,,,,,,,,,,,,,,,,,,,,,,,,,,,,,,,,,,,,,,,,,,,,,,,12,brazo,Spanish,Sounds/spa_brazo.mp3,2020-06-05_16h22.52.600,TranslationElicitation_eng-prolific,3.2.4,Win32,60,5e788a0aecd8c5000980308e,,1,0,98,10,1,97
,,,,,,,,,,,,,,,,,,,,,,,,,,,,,,,,,,,,,,,,,b,7.348999977,B,FALSE,,,,,,,7,bocadillo,Spanish,Sounds/spa_bocadillo.mp3,2020-06-05_16h22.52.600,TranslationElicitation_eng-prolific,3.2.4,Win32,60,5e788a0aecd8c5000980308e,,1,0,98,5,1,97
,,,,,,,,,,,,,,,,,,,,,,,,,,,,,,,,,,,,,,,,,backspace,8.96600008,,TRUE,,,,,,,7,bocadillo,Spanish,Sounds/spa_bocadillo.mp3,2020-06-05_16h22.52.600,TranslationElicitation_eng-prolific,3.2.4,Win32,60,5e788a0aecd8c5000980308e,,1,0,98,5,1,97
,,,,,,,,,,,,,,,,,,,,,,,,,,,,,,,,,,,,,,,,,l,9.151000023,L,TRUE,,,,,,,7,bocadillo,Spanish,Sounds/spa_bocadillo.mp3,2020-06-05_16h22.52.600,TranslationElicitation_eng-prolific,3.2.4,Win32,60,5e788a0aecd8c5000980308e,,1,0,98,5,1,97
,,,,,,,,,,,,,,,,,,,,,,,,,,,,,,,,,,,,,,,,,i,9.391000032,LI,TRUE,,,,,,,7,bocadillo,Spanish,Sounds/spa_bocadillo.mp3,2020-06-05_16h22.52.600,TranslationElicitation_eng-prolific,3.2.4,Win32,60,5e788a0aecd8c5000980308e,,1,0,98,5,1,97
,,,,,,,,,,,,,,,,,,,,,,,,,,,,,,,,,,,,,,,,,b,9.595000029,LIB,TRUE,,,,,,,7,bocadillo,Spanish,Sounds/spa_bocadillo.mp3,2020-06-05_16h22.52.600,TranslationElicitation_eng-prolific,3.2.4,Win32,60,5e788a0aecd8c5000980308e,,1,0,98,5,1,97
,,,,,,,,,,,,,,,,,,,,,,,,,,,,,,,,,,,,,,,,,r,9.724999905,LIBR,TRUE,,,,,,,7,bocadillo,Spanish,Sounds/spa_bocadillo.mp3,2020-06-05_16h22.52.600,TranslationElicitation_eng-prolific,3.2.4,Win32,60,5e788a0aecd8c5000980308e,,1,0,98,5,1,97
,,,,,,,,,,,,,,,,,,,,,,,,,,,,,,,,,,,,,,,,,a,9.993999958,LIBRA,TRUE,,,,,,,7,bocadillo,Spanish,Sounds/spa_bocadillo.mp3,2020-06-05_16h22.52.600,TranslationElicitation_eng-prolific,3.2.4,Win32,60,5e788a0aecd8c5000980308e,,1,0,98,5,1,97
,,,,,,,,,,,,,,,,,,,,,,,,,,,,,,,,,,,,,,,,,r,10.17499995,LIBRAR,TRUE,,,,,,,7,bocadillo,Spanish,Sounds/spa_bocadillo.mp3,2020-06-05_16h22.52.600,TranslationElicitation_eng-prolific,3.2.4,Win32,60,5e788a0aecd8c5000980308e,,1,0,98,5,1,97
,,,,,,,,,,,,,,,,,,,,,,,,,,,,,,,,,,,,,,,,,y,10.47799993,LIBRARY,TRUE,,,,,,,7,bocadillo,Spanish,Sounds/spa_bocadillo.mp3,2020-06-05_16h22.52.600,TranslationElicitation_eng-prolific,3.2.4,Win32,60,5e788a0aecd8c5000980308e,,1,0,98,5,1,97
,,,,,,,,,,,,,,,,,,,,,,,,,,,,,,,,,,,,,,,,,return,11.852,LIBRARY,TRUE,,,,,,,7,bocadillo,Spanish,Sounds/spa_bocadillo.mp3,2020-06-05_16h22.52.600,TranslationElicitation_eng-prolific,3.2.4,Win32,60,5e788a0aecd8c5000980308e,11.852,1,0,98,5,1,97
,,,,,,,,,,,,,,,,,,,,,,,,,,,,,,,,,,,,,,,,,,,,,,,,,,,7,bocadillo,Spanish,Sounds/spa_bocadillo.mp3,2020-06-05_16h22.52.600,TranslationElicitation_eng-prolific,3.2.4,Win32,60,5e788a0aecd8c5000980308e,,1,0,98,5,1,97
,,,,,,,,,,,,,,,,,,,,,,,,,,,,,,,,,,,,,,,,,f,1.539000034,F,FALSE,,,,,,,37,flor,Spanish,Sounds/spa_flor.mp3,2020-06-05_16h22.52.600,TranslationElicitation_eng-prolific,3.2.4,Win32,60,5e788a0aecd8c5000980308e,,1,0,98,33,1,97
,,,,,,,,,,,,,,,,,,,,,,,,,,,,,,,,,,,,,,,,,l,1.754999876,FL,FALSE,,,,,,,37,flor,Spanish,Sounds/spa_flor.mp3,2020-06-05_16h22.52.600,TranslationElicitation_eng-prolific,3.2.4,Win32,60,5e788a0aecd8c5000980308e,,1,0,98,33,1,97
,,,,,,,,,,,,,,,,,,,,,,,,,,,,,,,,,,,,,,,,,o,2.012000084,FLO,FALSE,,,,,,,37,flor,Spanish,Sounds/spa_flor.mp3,2020-06-05_16h22.52.600,TranslationElicitation_eng-prolific,3.2.4,Win32,60,5e788a0aecd8c5000980308e,,1,0,98,33,1,97
,,,,,,,,,,,,,,,,,,,,,,,,,,,,,,,,,,,,,,,,,o,2.105000019,FLOO,FALSE,,,,,,,37,flor,Spanish,Sounds/spa_flor.mp3,2020-06-05_16h22.52.600,TranslationElicitation_eng-prolific,3.2.4,Win32,60,5e788a0aecd8c5000980308e,,1,0,98,33,1,97
,,,,,,,,,,,,,,,,,,,,,,,,,,,,,,,,,,,,,,,,,r,2.204999924,FLOOR,FALSE,,,,,,,37,flor,Spanish,Sounds/spa_flor.mp3,2020-06-05_16h22.52.600,TranslationElicitation_eng-prolific,3.2.4,Win32,60,5e788a0aecd8c5000980308e,,1,0,98,33,1,97
,,,,,,,,,,,,,,,,,,,,,,,,,,,,,,,,,,,,,,,,,return,2.86500001,FLOOR,FALSE,,,,,,,37,flor,Spanish,Sounds/spa_flor.mp3,2020-06-05_16h22.52.600,TranslationElicitation_eng-prolific,3.2.4,Win32,60,5e788a0aecd8c5000980308e,2.86500001,1,0,98,33,1,97
,,,,,,,,,,,,,,,,,,,,,,,,,,,,,,,,,,,,,,,,,,,,,,,,,,,37,flor,Spanish,Sounds/spa_flor.mp3,2020-06-05_16h22.52.600,TranslationElicitation_eng-prolific,3.2.4,Win32,60,5e788a0aecd8c5000980308e,,1,0,98,33,1,97
,,,,,,,,,,,,,,,,,,,,,,,,,,,,,,,,,,,,,,,,,b,3.707999945,B,FALSE,,,,,,,74,pajaro,Spanish,Sounds/spa_pajaro.mp3,2020-06-05_16h22.52.600,TranslationElicitation_eng-prolific,3.2.4,Win32,60,5e788a0aecd8c5000980308e,,1,0,98,69,1,97
,,,,,,,,,,,,,,,,,,,,,,,,,,,,,,,,,,,,,,,,,e,3.907999992,BE,FALSE,,,,,,,74,pajaro,Spanish,Sounds/spa_pajaro.mp3,2020-06-05_16h22.52.600,TranslationElicitation_eng-prolific,3.2.4,Win32,60,5e788a0aecd8c5000980308e,,1,0,98,69,1,97
,,,,,,,,,,,,,,,,,,,,,,,,,,,,,,,,,,,,,,,,,n,4.061000109,BEN,FALSE,,,,,,,74,pajaro,Spanish,Sounds/spa_pajaro.mp3,2020-06-05_16h22.52.600,TranslationElicitation_eng-prolific,3.2.4,Win32,60,5e788a0aecd8c5000980308e,,1,0,98,69,1,97
,,,,,,,,,,,,,,,,,,,,,,,,,,,,,,,,,,,,,,,,,c,4.279999971,BENC,FALSE,,,,,,,74,pajaro,Spanish,Sounds/spa_pajaro.mp3,2020-06-05_16h22.52.600,TranslationElicitation_eng-prolific,3.2.4,Win32,60,5e788a0aecd8c5000980308e,,1,0,98,69,1,97
,,,,,,,,,,,,,,,,,,,,,,,,,,,,,,,,,,,,,,,,,h,4.342999935,BENCH,FALSE,,,,,,,74,pajaro,Spanish,Sounds/spa_pajaro.mp3,2020-06-05_16h22.52.600,TranslationElicitation_eng-prolific,3.2.4,Win32,60,5e788a0aecd8c5000980308e,,1,0,98,69,1,97
,,,,,,,,,,,,,,,,,,,,,,,,,,,,,,,,,,,,,,,,,return,5.115999937,BENCH,FALSE,,,,,,,74,pajaro,Spanish,Sounds/spa_pajaro.mp3,2020-06-05_16h22.52.600,TranslationElicitation_eng-prolific,3.2.4,Win32,60,5e788a0aecd8c5000980308e,5.115999937,1,0,98,69,1,97
,,,,,,,,,,,,,,,,,,,,,,,,,,,,,,,,,,,,,,,,,,,,,,,,,,,74,pajaro,Spanish,Sounds/spa_pajaro.mp3,2020-06-05_16h22.52.600,TranslationElicitation_eng-prolific,3.2.4,Win32,60,5e788a0aecd8c5000980308e,,1,0,98,69,1,97
,,,,,,,,,,,,,,,,,,,,,,,,,,,,,,,,,,,,,,,,,c,2.86500001,C,FALSE,,,,,,,19,camiseta,Spanish,Sounds/spa_camiseta.mp3,2020-06-05_16h22.52.600,TranslationElicitation_eng-prolific,3.2.4,Win32,60,5e788a0aecd8c5000980308e,,1,0,98,17,1,97
,,,,,,,,,,,,,,,,,,,,,,,,,,,,,,,,,,,,,,,,,a,3.232000113,CA,FALSE,,,,,,,19,camiseta,Spanish,Sounds/spa_camiseta.mp3,2020-06-05_16h22.52.600,TranslationElicitation_eng-prolific,3.2.4,Win32,60,5e788a0aecd8c5000980308e,,1,0,98,17,1,97
,,,,,,,,,,,,,,,,,,,,,,,,,,,,,,,,,,,,,,,,,r,3.443000078,CAR,FALSE,,,,,,,19,camiseta,Spanish,Sounds/spa_camiseta.mp3,2020-06-05_16h22.52.600,TranslationElicitation_eng-prolific,3.2.4,Win32,60,5e788a0aecd8c5000980308e,,1,0,98,17,1,97
,,,,,,,,,,,,,,,,,,,,,,,,,,,,,,,,,,,,,,,,,d,3.68200016,CARD,FALSE,,,,,,,19,camiseta,Spanish,Sounds/spa_camiseta.mp3,2020-06-05_16h22.52.600,TranslationElicitation_eng-prolific,3.2.4,Win32,60,5e788a0aecd8c5000980308e,,1,0,98,17,1,97
,,,,,,,,,,,,,,,,,,,,,,,,,,,,,,,,,,,,,,,,,i,3.84800005,CARDI,FALSE,,,,,,,19,camiseta,Spanish,Sounds/spa_camiseta.mp3,2020-06-05_16h22.52.600,TranslationElicitation_eng-prolific,3.2.4,Win32,60,5e788a0aecd8c5000980308e,,1,0,98,17,1,97
,,,,,,,,,,,,,,,,,,,,,,,,,,,,,,,,,,,,,,,,,g,4.292000055,CARDIG,FALSE,,,,,,,19,camiseta,Spanish,Sounds/spa_camiseta.mp3,2020-06-05_16h22.52.600,TranslationElicitation_eng-prolific,3.2.4,Win32,60,5e788a0aecd8c5000980308e,,1,0,98,17,1,97
,,,,,,,,,,,,,,,,,,,,,,,,,,,,,,,,,,,,,,,,,a,4.409000158,CARDIGA,FALSE,,,,,,,19,camiseta,Spanish,Sounds/spa_camiseta.mp3,2020-06-05_16h22.52.600,TranslationElicitation_eng-prolific,3.2.4,Win32,60,5e788a0aecd8c5000980308e,,1,0,98,17,1,97
,,,,,,,,,,,,,,,,,,,,,,,,,,,,,,,,,,,,,,,,,n,4.539000034,CARDIGAN,FALSE,,,,,,,19,camiseta,Spanish,Sounds/spa_camiseta.mp3,2020-06-05_16h22.52.600,TranslationElicitation_eng-prolific,3.2.4,Win32,60,5e788a0aecd8c5000980308e,,1,0,98,17,1,97
,,,,,,,,,,,,,,,,,,,,,,,,,,,,,,,,,,,,,,,,,return,6.048000097,CARDIGAN,FALSE,,,,,,,19,camiseta,Spanish,Sounds/spa_camiseta.mp3,2020-06-05_16h22.52.600,TranslationElicitation_eng-prolific,3.2.4,Win32,60,5e788a0aecd8c5000980308e,6.048000097,1,0,98,17,1,97
,,,,,,,,,,,,,,,,,,,,,,,,,,,,,,,,,,,,,,,,,,,,,,,,,,,19,camiseta,Spanish,Sounds/spa_camiseta.mp3,2020-06-05_16h22.52.600,TranslationElicitation_eng-prolific,3.2.4,Win32,60,5e788a0aecd8c5000980308e,,1,0,98,17,1,97
,,,,,,,,,,,,,,,,,,,,,,,,,,,,,,,,,,,,,,,,,b,2.572000027,B,FALSE,,,,,,,11,boton,Spanish,Sounds/spa_boton.mp3,2020-06-05_16h22.52.600,TranslationElicitation_eng-prolific,3.2.4,Win32,60,5e788a0aecd8c5000980308e,,1,0,98,9,1,97
,,,,,,,,,,,,,,,,,,,,,,,,,,,,,,,,,,,,,,,,,u,2.923000097,BU,FALSE,,,,,,,11,boton,Spanish,Sounds/spa_boton.mp3,2020-06-05_16h22.52.600,TranslationElicitation_eng-prolific,3.2.4,Win32,60,5e788a0aecd8c5000980308e,,1,0,98,9,1,97
,,,,,,,,,,,,,,,,,,,,,,,,,,,,,,,,,,,,,,,,,t,3.139000177,BUT,FALSE,,,,,,,11,boton,Spanish,Sounds/spa_boton.mp3,2020-06-05_16h22.52.600,TranslationElicitation_eng-prolific,3.2.4,Win32,60,5e788a0aecd8c5000980308e,,1,0,98,9,1,97
,,,,,,,,,,,,,,,,,,,,,,,,,,,,,,,,,,,,,,,,,t,3.299000025,BUTT,FALSE,,,,,,,11,boton,Spanish,Sounds/spa_boton.mp3,2020-06-05_16h22.52.600,TranslationElicitation_eng-prolific,3.2.4,Win32,60,5e788a0aecd8c5000980308e,,1,0,98,9,1,97
,,,,,,,,,,,,,,,,,,,,,,,,,,,,,,,,,,,,,,,,,o,3.400000095,BUTTO,FALSE,,,,,,,11,boton,Spanish,Sounds/spa_boton.mp3,2020-06-05_16h22.52.600,TranslationElicitation_eng-prolific,3.2.4,Win32,60,5e788a0aecd8c5000980308e,,1,0,98,9,1,97
,,,,,,,,,,,,,,,,,,,,,,,,,,,,,,,,,,,,,,,,,n,3.570000172,BUTTON,FALSE,,,,,,,11,boton,Spanish,Sounds/spa_boton.mp3,2020-06-05_16h22.52.600,TranslationElicitation_eng-prolific,3.2.4,Win32,60,5e788a0aecd8c5000980308e,,1,0,98,9,1,97
,,,,,,,,,,,,,,,,,,,,,,,,,,,,,,,,,,,,,,,,,return,4.31400013,BUTTON,FALSE,,,,,,,11,boton,Spanish,Sounds/spa_boton.mp3,2020-06-05_16h22.52.600,TranslationElicitation_eng-prolific,3.2.4,Win32,60,5e788a0aecd8c5000980308e,4.31400013,1,0,98,9,1,97
,,,,,,,,,,,,,,,,,,,,,,,,,,,,,,,,,,,,,,,,,,,,,,,,,,,11,boton,Spanish,Sounds/spa_boton.mp3,2020-06-05_16h22.52.600,TranslationElicitation_eng-prolific,3.2.4,Win32,60,5e788a0aecd8c5000980308e,,1,0,98,9,1,97
,,,,,,,,,,,,,,,,,,,,,,,,,,,,,,,,,,,,,,,,,g,2.052999973,G,FALSE,,,,,,,42,gato,Spanish,Sounds/spa_gato.mp3,2020-06-05_16h22.52.600,TranslationElicitation_eng-prolific,3.2.4,Win32,60,5e788a0aecd8c5000980308e,,1,0,98,38,1,97
,,,,,,,,,,,,,,,,,,,,,,,,,,,,,,,,,,,,,,,,,a,2.167999983,GA,FALSE,,,,,,,42,gato,Spanish,Sounds/spa_gato.mp3,2020-06-05_16h22.52.600,TranslationElicitation_eng-prolific,3.2.4,Win32,60,5e788a0aecd8c5000980308e,,1,0,98,38,1,97
,,,,,,,,,,,,,,,,,,,,,,,,,,,,,,,,,,,,,,,,,t,2.268000126,GAT,FALSE,,,,,,,42,gato,Spanish,Sounds/spa_gato.mp3,2020-06-05_16h22.52.600,TranslationElicitation_eng-prolific,3.2.4,Win32,60,5e788a0aecd8c5000980308e,,1,0,98,38,1,97
,,,,,,,,,,,,,,,,,,,,,,,,,,,,,,,,,,,,,,,,,e,2.367000103,GATE,FALSE,,,,,,,42,gato,Spanish,Sounds/spa_gato.mp3,2020-06-05_16h22.52.600,TranslationElicitation_eng-prolific,3.2.4,Win32,60,5e788a0aecd8c5000980308e,,1,0,98,38,1,97
,,,,,,,,,,,,,,,,,,,,,,,,,,,,,,,,,,,,,,,,,return,3.052999973,GATE,FALSE,,,,,,,42,gato,Spanish,Sounds/spa_gato.mp3,2020-06-05_16h22.52.600,TranslationElicitation_eng-prolific,3.2.4,Win32,60,5e788a0aecd8c5000980308e,3.052999973,1,0,98,38,1,97
,,,,,,,,,,,,,,,,,,,,,,,,,,,,,,,,,,,,,,,,,,,,,,,,,,,42,gato,Spanish,Sounds/spa_gato.mp3,2020-06-05_16h22.52.600,TranslationElicitation_eng-prolific,3.2.4,Win32,60,5e788a0aecd8c5000980308e,,1,0,98,38,1,97
,,,,,,,,,,,,,,,,,,,,,,,,,,,,,,,,,,,,,,,,,b,3.45600009,B,FALSE,,,,,,,51,ladrillo,Spanish,Sounds/spa_ladrillo.mp3,2020-06-05_16h22.52.600,TranslationElicitation_eng-prolific,3.2.4,Win32,60,5e788a0aecd8c5000980308e,,1,0,98,47,1,97
,,,,,,,,,,,,,,,,,,,,,,,,,,,,,,,,,,,,,,,,,a,3.604000092,BA,FALSE,,,,,,,51,ladrillo,Spanish,Sounds/spa_ladrillo.mp3,2020-06-05_16h22.52.600,TranslationElicitation_eng-prolific,3.2.4,Win32,60,5e788a0aecd8c5000980308e,,1,0,98,47,1,97
,,,,,,,,,,,,,,,,,,,,,,,,,,,,,,,,,,,,,,,,,g,3.943000078,BAG,FALSE,,,,,,,51,ladrillo,Spanish,Sounds/spa_ladrillo.mp3,2020-06-05_16h22.52.600,TranslationElicitation_eng-prolific,3.2.4,Win32,60,5e788a0aecd8c5000980308e,,1,0,98,47,1,97
,,,,,,,,,,,,,,,,,,,,,,,,,,,,,,,,,,,,,,,,,return,5.282999992,BAG,FALSE,,,,,,,51,ladrillo,Spanish,Sounds/spa_ladrillo.mp3,2020-06-05_16h22.52.600,TranslationElicitation_eng-prolific,3.2.4,Win32,60,5e788a0aecd8c5000980308e,5.282999992,1,0,98,47,1,97
,,,,,,,,,,,,,,,,,,,,,,,,,,,,,,,,,,,,,,,,,,,,,,,,,,,51,ladrillo,Spanish,Sounds/spa_ladrillo.mp3,2020-06-05_16h22.52.600,TranslationElicitation_eng-prolific,3.2.4,Win32,60,5e788a0aecd8c5000980308e,,1,0,98,47,1,97
,,,,,,,,,,,,,,,,,,,,,,,,,,,,,,,,,,,,,,,,,p,2.333999872,P,FALSE,,,,,,,86,pingino,Spanish,Sounds/spa_pinguino.mp3,2020-06-05_16h22.52.600,TranslationElicitation_eng-prolific,3.2.4,Win32,60,5e788a0aecd8c5000980308e,,1,0,98,81,1,97
,,,,,,,,,,,,,,,,,,,,,,,,,,,,,,,,,,,,,,,,,a,2.654999971,PA,FALSE,,,,,,,86,pingino,Spanish,Sounds/spa_pinguino.mp3,2020-06-05_16h22.52.600,TranslationElicitation_eng-prolific,3.2.4,Win32,60,5e788a0aecd8c5000980308e,,1,0,98,81,1,97
,,,,,,,,,,,,,,,,,,,,,,,,,,,,,,,,,,,,,,,,,s,3.030999899,PAS,FALSE,,,,,,,86,pingino,Spanish,Sounds/spa_pinguino.mp3,2020-06-05_16h22.52.600,TranslationElicitation_eng-prolific,3.2.4,Win32,60,5e788a0aecd8c5000980308e,,1,0,98,81,1,97
,,,,,,,,,,,,,,,,,,,,,,,,,,,,,,,,,,,,,,,,,t,3.359999895,PAST,FALSE,,,,,,,86,pingino,Spanish,Sounds/spa_pinguino.mp3,2020-06-05_16h22.52.600,TranslationElicitation_eng-prolific,3.2.4,Win32,60,5e788a0aecd8c5000980308e,,1,0,98,81,1,97
,,,,,,,,,,,,,,,,,,,,,,,,,,,,,,,,,,,,,,,,,s,3.498999834,PASTS,FALSE,,,,,,,86,pingino,Spanish,Sounds/spa_pinguino.mp3,2020-06-05_16h22.52.600,TranslationElicitation_eng-prolific,3.2.4,Win32,60,5e788a0aecd8c5000980308e,,1,0,98,81,1,97
,,,,,,,,,,,,,,,,,,,,,,,,,,,,,,,,,,,,,,,,,backspace,4.223999977,PAST,TRUE,,,,,,,86,pingino,Spanish,Sounds/spa_pinguino.mp3,2020-06-05_16h22.52.600,TranslationElicitation_eng-prolific,3.2.4,Win32,60,5e788a0aecd8c5000980308e,,1,0,98,81,1,97
,,,,,,,,,,,,,,,,,,,,,,,,,,,,,,,,,,,,,,,,,a,4.343999863,PASTA,TRUE,,,,,,,86,pingino,Spanish,Sounds/spa_pinguino.mp3,2020-06-05_16h22.52.600,TranslationElicitation_eng-prolific,3.2.4,Win32,60,5e788a0aecd8c5000980308e,,1,0,98,81,1,97
,,,,,,,,,,,,,,,,,,,,,,,,,,,,,,,,,,,,,,,,,return,5.011999846,PASTA,TRUE,,,,,,,86,pingino,Spanish,Sounds/spa_pinguino.mp3,2020-06-05_16h22.52.600,TranslationElicitation_eng-prolific,3.2.4,Win32,60,5e788a0aecd8c5000980308e,5.011999846,1,0,98,81,1,97
,,,,,,,,,,,,,,,,,,,,,,,,,,,,,,,,,,,,,,,,,,,,,,,,,,,86,pingino,Spanish,Sounds/spa_pinguino.mp3,2020-06-05_16h22.52.600,TranslationElicitation_eng-prolific,3.2.4,Win32,60,5e788a0aecd8c5000980308e,,1,0,98,81,1,97
,,,,,,,,,,,,,,,,,,,,,,,,,,,,,,,,,,,,,,,,,c,3.256000042,C,FALSE,,,,,,,35,esponja,Spanish,Sounds/spa_esponja.mp3,2020-06-05_16h22.52.600,TranslationElicitation_eng-prolific,3.2.4,Win32,60,5e788a0aecd8c5000980308e,,1,0,98,31,1,97
,,,,,,,,,,,,,,,,,,,,,,,,,,,,,,,,,,,,,,,,,a,3.866999865,CA,FALSE,,,,,,,35,esponja,Spanish,Sounds/spa_esponja.mp3,2020-06-05_16h22.52.600,TranslationElicitation_eng-prolific,3.2.4,Win32,60,5e788a0aecd8c5000980308e,,1,0,98,31,1,97
,,,,,,,,,,,,,,,,,,,,,,,,,,,,,,,,,,,,,,,,,r,4.398000002,CAR,FALSE,,,,,,,35,esponja,Spanish,Sounds/spa_esponja.mp3,2020-06-05_16h22.52.600,TranslationElicitation_eng-prolific,3.2.4,Win32,60,5e788a0aecd8c5000980308e,,1,0,98,31,1,97
,,,,,,,,,,,,,,,,,,,,,,,,,,,,,,,,,,,,,,,,,return,5.093999863,CAR,FALSE,,,,,,,35,esponja,Spanish,Sounds/spa_esponja.mp3,2020-06-05_16h22.52.600,TranslationElicitation_eng-prolific,3.2.4,Win32,60,5e788a0aecd8c5000980308e,5.093999863,1,0,98,31,1,97
,,,,,,,,,,,,,,,,,,,,,,,,,,,,,,,,,,,,,,,,,,,,,,,,,,,35,esponja,Spanish,Sounds/spa_esponja.mp3,2020-06-05_16h22.52.600,TranslationElicitation_eng-prolific,3.2.4,Win32,60,5e788a0aecd8c5000980308e,,1,0,98,31,1,97
,,,,,,,,,,,,,,,,,,,,,,,,,,,,,,,,,,,,,,,,,b,2.032999992,B,FALSE,,,,,,,9,boli,Spanish,Sounds/spa_boli.mp3,2020-06-05_16h22.52.600,TranslationElicitation_eng-prolific,3.2.4,Win32,60,5e788a0aecd8c5000980308e,,1,0,98,7,1,97
,,,,,,,,,,,,,,,,,,,,,,,,,,,,,,,,,,,,,,,,,a,2.74000001,BA,FALSE,,,,,,,9,boli,Spanish,Sounds/spa_boli.mp3,2020-06-05_16h22.52.600,TranslationElicitation_eng-prolific,3.2.4,Win32,60,5e788a0aecd8c5000980308e,,1,0,98,7,1,97
,,,,,,,,,,,,,,,,,,,,,,,,,,,,,,,,,,,,,,,,,l,3.075999975,BAL,FALSE,,,,,,,9,boli,Spanish,Sounds/spa_boli.mp3,2020-06-05_16h22.52.600,TranslationElicitation_eng-prolific,3.2.4,Win32,60,5e788a0aecd8c5000980308e,,1,0,98,7,1,97
,,,,,,,,,,,,,,,,,,,,,,,,,,,,,,,,,,,,,,,,,l,3.363000154,BALL,FALSE,,,,,,,9,boli,Spanish,Sounds/spa_boli.mp3,2020-06-05_16h22.52.600,TranslationElicitation_eng-prolific,3.2.4,Win32,60,5e788a0aecd8c5000980308e,,1,0,98,7,1,97
,,,,,,,,,,,,,,,,,,,,,,,,,,,,,,,,,,,,,,,,,return,4.159000158,BALL,FALSE,,,,,,,9,boli,Spanish,Sounds/spa_boli.mp3,2020-06-05_16h22.52.600,TranslationElicitation_eng-prolific,3.2.4,Win32,60,5e788a0aecd8c5000980308e,4.159000158,1,0,98,7,1,97
,,,,,,,,,,,,,,,,,,,,,,,,,,,,,,,,,,,,,,,,,,,,,,,,,,,9,boli,Spanish,Sounds/spa_boli.mp3,2020-06-05_16h22.52.600,TranslationElicitation_eng-prolific,3.2.4,Win32,60,5e788a0aecd8c5000980308e,,1,0,98,7,1,97
,,,,,,,,,,,,,,,,,,,,,,,,,,,,,,,,,,,,,,,,,m,1.778999805,M,FALSE,,,,,,,64,moneda,Spanish,Sounds/spa_moneda.mp3,2020-06-05_16h22.52.600,TranslationElicitation_eng-prolific,3.2.4,Win32,60,5e788a0aecd8c5000980308e,,1,0,98,60,1,97
,,,,,,,,,,,,,,,,,,,,,,,,,,,,,,,,,,,,,,,,,o,1.950999975,MO,FALSE,,,,,,,64,moneda,Spanish,Sounds/spa_moneda.mp3,2020-06-05_16h22.52.600,TranslationElicitation_eng-prolific,3.2.4,Win32,60,5e788a0aecd8c5000980308e,,1,0,98,60,1,97
,,,,,,,,,,,,,,,,,,,,,,,,,,,,,,,,,,,,,,,,,n,2.138000011,MON,FALSE,,,,,,,64,moneda,Spanish,Sounds/spa_moneda.mp3,2020-06-05_16h22.52.600,TranslationElicitation_eng-prolific,3.2.4,Win32,60,5e788a0aecd8c5000980308e,,1,0,98,60,1,97
,,,,,,,,,,,,,,,,,,,,,,,,,,,,,,,,,,,,,,,,,e,2.255999804,MONE,FALSE,,,,,,,64,moneda,Spanish,Sounds/spa_moneda.mp3,2020-06-05_16h22.52.600,TranslationElicitation_eng-prolific,3.2.4,Win32,60,5e788a0aecd8c5000980308e,,1,0,98,60,1,97
,,,,,,,,,,,,,,,,,,,,,,,,,,,,,,,,,,,,,,,,,y,2.355999947,MONEY,FALSE,,,,,,,64,moneda,Spanish,Sounds/spa_moneda.mp3,2020-06-05_16h22.52.600,TranslationElicitation_eng-prolific,3.2.4,Win32,60,5e788a0aecd8c5000980308e,,1,0,98,60,1,97
,,,,,,,,,,,,,,,,,,,,,,,,,,,,,,,,,,,,,,,,,return,3.215999842,MONEY,FALSE,,,,,,,64,moneda,Spanish,Sounds/spa_moneda.mp3,2020-06-05_16h22.52.600,TranslationElicitation_eng-prolific,3.2.4,Win32,60,5e788a0aecd8c5000980308e,3.215999842,1,0,98,60,1,97
,,,,,,,,,,,,,,,,,,,,,,,,,,,,,,,,,,,,,,,,,,,,,,,,,,,64,moneda,Spanish,Sounds/spa_moneda.mp3,2020-06-05_16h22.52.600,TranslationElicitation_eng-prolific,3.2.4,Win32,60,5e788a0aecd8c5000980308e,,1,0,98,60,1,97
,,,,,,,,,,,,,,,,,,,,,,,,,,,,,,,,,,,,,,,,,b,5.798000097,B,FALSE,,,,,,,85,pierna,Spanish,Sounds/spa_pierna.mp3,2020-06-05_16h22.52.600,TranslationElicitation_eng-prolific,3.2.4,Win32,60,5e788a0aecd8c5000980308e,,1,0,98,80,1,97
,,,,,,,,,,,,,,,,,,,,,,,,,,,,,,,,,,,,,,,,,r,5.999000072,BR,FALSE,,,,,,,85,pierna,Spanish,Sounds/spa_pierna.mp3,2020-06-05_16h22.52.600,TranslationElicitation_eng-prolific,3.2.4,Win32,60,5e788a0aecd8c5000980308e,,1,0,98,80,1,97
,,,,,,,,,,,,,,,,,,,,,,,,,,,,,,,,,,,,,,,,,i,6.538000107,BRI,FALSE,,,,,,,85,pierna,Spanish,Sounds/spa_pierna.mp3,2020-06-05_16h22.52.600,TranslationElicitation_eng-prolific,3.2.4,Win32,60,5e788a0aecd8c5000980308e,,1,0,98,80,1,97
,,,,,,,,,,,,,,,,,,,,,,,,,,,,,,,,,,,,,,,,,l,6.802999973,BRIL,FALSE,,,,,,,85,pierna,Spanish,Sounds/spa_pierna.mp3,2020-06-05_16h22.52.600,TranslationElicitation_eng-prolific,3.2.4,Win32,60,5e788a0aecd8c5000980308e,,1,0,98,80,1,97
,,,,,,,,,,,,,,,,,,,,,,,,,,,,,,,,,,,,,,,,,l,6.982000113,BRILL,FALSE,,,,,,,85,pierna,Spanish,Sounds/spa_pierna.mp3,2020-06-05_16h22.52.600,TranslationElicitation_eng-prolific,3.2.4,Win32,60,5e788a0aecd8c5000980308e,,1,0,98,80,1,97
,,,,,,,,,,,,,,,,,,,,,,,,,,,,,,,,,,,,,,,,,i,7.187999964,BRILLI,FALSE,,,,,,,85,pierna,Spanish,Sounds/spa_pierna.mp3,2020-06-05_16h22.52.600,TranslationElicitation_eng-prolific,3.2.4,Win32,60,5e788a0aecd8c5000980308e,,1,0,98,80,1,97
,,,,,,,,,,,,,,,,,,,,,,,,,,,,,,,,,,,,,,,,,a,7.345000029,BRILLIA,FALSE,,,,,,,85,pierna,Spanish,Sounds/spa_pierna.mp3,2020-06-05_16h22.52.600,TranslationElicitation_eng-prolific,3.2.4,Win32,60,5e788a0aecd8c5000980308e,,1,0,98,80,1,97
,,,,,,,,,,,,,,,,,,,,,,,,,,,,,,,,,,,,,,,,,n,7.423000097,BRILLIAN,FALSE,,,,,,,85,pierna,Spanish,Sounds/spa_pierna.mp3,2020-06-05_16h22.52.600,TranslationElicitation_eng-prolific,3.2.4,Win32,60,5e788a0aecd8c5000980308e,,1,0,98,80,1,97
,,,,,,,,,,,,,,,,,,,,,,,,,,,,,,,,,,,,,,,,,t,7.618000031,BRILLIANT,FALSE,,,,,,,85,pierna,Spanish,Sounds/spa_pierna.mp3,2020-06-05_16h22.52.600,TranslationElicitation_eng-prolific,3.2.4,Win32,60,5e788a0aecd8c5000980308e,,1,0,98,80,1,97
,,,,,,,,,,,,,,,,,,,,,,,,,,,,,,,,,,,,,,,,,return,8.812000036,BRILLIANT,FALSE,,,,,,,85,pierna,Spanish,Sounds/spa_pierna.mp3,2020-06-05_16h22.52.600,TranslationElicitation_eng-prolific,3.2.4,Win32,60,5e788a0aecd8c5000980308e,8.812000036,1,0,98,80,1,97
,,,,,,,,,,,,,,,,,,,,,,,,,,,,,,,,,,,,,,,,,,,,,,,,,,,85,pierna,Spanish,Sounds/spa_pierna.mp3,2020-06-05_16h22.52.600,TranslationElicitation_eng-prolific,3.2.4,Win32,60,5e788a0aecd8c5000980308e,,1,0,98,80,1,97
,,,,,,,,,,,,,,,,,,,,,,,,,,,,,,,,,,,,,,,,,s,1.604000092,S,FALSE,,,,,,,25,cesta,Spanish,Sounds/spa_cesta.mp3,2020-06-05_16h22.52.600,TranslationElicitation_eng-prolific,3.2.4,Win32,60,5e788a0aecd8c5000980308e,,1,0,98,23,1,97
,,,,,,,,,,,,,,,,,,,,,,,,,,,,,,,,,,,,,,,,,i,1.819000006,SI,FALSE,,,,,,,25,cesta,Spanish,Sounds/spa_cesta.mp3,2020-06-05_16h22.52.600,TranslationElicitation_eng-prolific,3.2.4,Win32,60,5e788a0aecd8c5000980308e,,1,0,98,23,1,97
,,,,,,,,,,,,,,,,,,,,,,,,,,,,,,,,,,,,,,,,,s,1.906000137,SIS,FALSE,,,,,,,25,cesta,Spanish,Sounds/spa_cesta.mp3,2020-06-05_16h22.52.600,TranslationElicitation_eng-prolific,3.2.4,Win32,60,5e788a0aecd8c5000980308e,,1,0,98,23,1,97
,,,,,,,,,,,,,,,,,,,,,,,,,,,,,,,,,,,,,,,,,t,2.107000113,SIST,FALSE,,,,,,,25,cesta,Spanish,Sounds/spa_cesta.mp3,2020-06-05_16h22.52.600,TranslationElicitation_eng-prolific,3.2.4,Win32,60,5e788a0aecd8c5000980308e,,1,0,98,23,1,97
,,,,,,,,,,,,,,,,,,,,,,,,,,,,,,,,,,,,,,,,,e,2.242000103,SISTE,FALSE,,,,,,,25,cesta,Spanish,Sounds/spa_cesta.mp3,2020-06-05_16h22.52.600,TranslationElicitation_eng-prolific,3.2.4,Win32,60,5e788a0aecd8c5000980308e,,1,0,98,23,1,97
,,,,,,,,,,,,,,,,,,,,,,,,,,,,,,,,,,,,,,,,,r,2.41899991,SISTER,FALSE,,,,,,,25,cesta,Spanish,Sounds/spa_cesta.mp3,2020-06-05_16h22.52.600,TranslationElicitation_eng-prolific,3.2.4,Win32,60,5e788a0aecd8c5000980308e,,1,0,98,23,1,97
,,,,,,,,,,,,,,,,,,,,,,,,,,,,,,,,,,,,,,,,,return,3.180999994,SISTER,FALSE,,,,,,,25,cesta,Spanish,Sounds/spa_cesta.mp3,2020-06-05_16h22.52.600,TranslationElicitation_eng-prolific,3.2.4,Win32,60,5e788a0aecd8c5000980308e,3.180999994,1,0,98,23,1,97
,,,,,,,,,,,,,,,,,,,,,,,,,,,,,,,,,,,,,,,,,,,,,,,,,,,25,cesta,Spanish,Sounds/spa_cesta.mp3,2020-06-05_16h22.52.600,TranslationElicitation_eng-prolific,3.2.4,Win32,60,5e788a0aecd8c5000980308e,,1,0,98,23,1,97
,,,,,,,,,,,,,,,,,,,,,,,,,,,,,,,,,,,,,,,,,b,4.669000149,B,FALSE,,,,,,,3,barco,Spanish,Sounds/spa_barco.mp3,2020-06-05_16h22.52.600,TranslationElicitation_eng-prolific,3.2.4,Win32,60,5e788a0aecd8c5000980308e,,1,0,98,1,1,97
,,,,,,,,,,,,,,,,,,,,,,,,,,,,,,,,,,,,,,,,,r,4.921000004,BR,FALSE,,,,,,,3,barco,Spanish,Sounds/spa_barco.mp3,2020-06-05_16h22.52.600,TranslationElicitation_eng-prolific,3.2.4,Win32,60,5e788a0aecd8c5000980308e,,1,0,98,1,1,97
,,,,,,,,,,,,,,,,,,,,,,,,,,,,,,,,,,,,,,,,,a,5.202000141,BRA,FALSE,,,,,,,3,barco,Spanish,Sounds/spa_barco.mp3,2020-06-05_16h22.52.600,TranslationElicitation_eng-prolific,3.2.4,Win32,60,5e788a0aecd8c5000980308e,,1,0,98,1,1,97
,,,,,,,,,,,,,,,,,,,,,,,,,,,,,,,,,,,,,,,,,k,5.363000154,BRAK,FALSE,,,,,,,3,barco,Spanish,Sounds/spa_barco.mp3,2020-06-05_16h22.52.600,TranslationElicitation_eng-prolific,3.2.4,Win32,60,5e788a0aecd8c5000980308e,,1,0,98,1,1,97
,,,,,,,,,,,,,,,,,,,,,,,,,,,,,,,,,,,,,,,,,e,5.460999966,BRAKE,FALSE,,,,,,,3,barco,Spanish,Sounds/spa_barco.mp3,2020-06-05_16h22.52.600,TranslationElicitation_eng-prolific,3.2.4,Win32,60,5e788a0aecd8c5000980308e,,1,0,98,1,1,97
,,,,,,,,,,,,,,,,,,,,,,,,,,,,,,,,,,,,,,,,,return,6.239000082,BRAKE,FALSE,,,,,,,3,barco,Spanish,Sounds/spa_barco.mp3,2020-06-05_16h22.52.600,TranslationElicitation_eng-prolific,3.2.4,Win32,60,5e788a0aecd8c5000980308e,6.239000082,1,0,98,1,1,97
,,,,,,,,,,,,,,,,,,,,,,,,,,,,,,,,,,,,,,,,,,,,,,,,,,,3,barco,Spanish,Sounds/spa_barco.mp3,2020-06-05_16h22.52.600,TranslationElicitation_eng-prolific,3.2.4,Win32,60,5e788a0aecd8c5000980308e,,1,0,98,1,1,97
,,,,,,,,,,,,,,,,,,,,,,,,,,,,,,,,,,,,,,,,,m,3.992000103,M,FALSE,,,,,,,62,martillo,Spanish,Sounds/spa_martillo.mp3,2020-06-05_16h22.52.600,TranslationElicitation_eng-prolific,3.2.4,Win32,60,5e788a0aecd8c5000980308e,,1,0,98,58,1,97
,,,,,,,,,,,,,,,,,,,,,,,,,,,,,,,,,,,,,,,,,a,4.197000027,MA,FALSE,,,,,,,62,martillo,Spanish,Sounds/spa_martillo.mp3,2020-06-05_16h22.52.600,TranslationElicitation_eng-prolific,3.2.4,Win32,60,5e788a0aecd8c5000980308e,,1,0,98,58,1,97
,,,,,,,,,,,,,,,,,,,,,,,,,,,,,,,,,,,,,,,,,r,4.47300005,MAR,FALSE,,,,,,,62,martillo,Spanish,Sounds/spa_martillo.mp3,2020-06-05_16h22.52.600,TranslationElicitation_eng-prolific,3.2.4,Win32,60,5e788a0aecd8c5000980308e,,1,0,98,58,1,97
,,,,,,,,,,,,,,,,,,,,,,,,,,,,,,,,,,,,,,,,,t,4.758000135,MART,FALSE,,,,,,,62,martillo,Spanish,Sounds/spa_martillo.mp3,2020-06-05_16h22.52.600,TranslationElicitation_eng-prolific,3.2.4,Win32,60,5e788a0aecd8c5000980308e,,1,0,98,58,1,97
,,,,,,,,,,,,,,,,,,,,,,,,,,,,,,,,,,,,,,,,,i,4.923000097,MARTI,FALSE,,,,,,,62,martillo,Spanish,Sounds/spa_martillo.mp3,2020-06-05_16h22.52.600,TranslationElicitation_eng-prolific,3.2.4,Win32,60,5e788a0aecd8c5000980308e,,1,0,98,58,1,97
,,,,,,,,,,,,,,,,,,,,,,,,,,,,,,,,,,,,,,,,,n,5.095999956,MARTIN,FALSE,,,,,,,62,martillo,Spanish,Sounds/spa_martillo.mp3,2020-06-05_16h22.52.600,TranslationElicitation_eng-prolific,3.2.4,Win32,60,5e788a0aecd8c5000980308e,,1,0,98,58,1,97
,,,,,,,,,,,,,,,,,,,,,,,,,,,,,,,,,,,,,,,,,i,5.240999937,MARTINI,FALSE,,,,,,,62,martillo,Spanish,Sounds/spa_martillo.mp3,2020-06-05_16h22.52.600,TranslationElicitation_eng-prolific,3.2.4,Win32,60,5e788a0aecd8c5000980308e,,1,0,98,58,1,97
,,,,,,,,,,,,,,,,,,,,,,,,,,,,,,,,,,,,,,,,,return,6.000999928,MARTINI,FALSE,,,,,,,62,martillo,Spanish,Sounds/spa_martillo.mp3,2020-06-05_16h22.52.600,TranslationElicitation_eng-prolific,3.2.4,Win32,60,5e788a0aecd8c5000980308e,6.000999928,1,0,98,58,1,97
,,,,,,,,,,,,,,,,,,,,,,,,,,,,,,,,,,,,,,,,,,,,,,,,,,,62,martillo,Spanish,Sounds/spa_martillo.mp3,2020-06-05_16h22.52.600,TranslationElicitation_eng-prolific,3.2.4,Win32,60,5e788a0aecd8c5000980308e,,1,0,98,58,1,97
,,,,,,,,,,,,,,,,,,,,,,,,,,,,,,,,,,,,,,,,,m,2.292999983,M,FALSE,,,,,,,65,mono,Spanish,Sounds/spa_mono.mp3,2020-06-05_16h22.52.600,TranslationElicitation_eng-prolific,3.2.4,Win32,60,5e788a0aecd8c5000980308e,,1,0,98,61,1,97
,,,,,,,,,,,,,,,,,,,,,,,,,,,,,,,,,,,,,,,,,o,2.512000084,MO,FALSE,,,,,,,65,mono,Spanish,Sounds/spa_mono.mp3,2020-06-05_16h22.52.600,TranslationElicitation_eng-prolific,3.2.4,Win32,60,5e788a0aecd8c5000980308e,,1,0,98,61,1,97
,,,,,,,,,,,,,,,,,,,,,,,,,,,,,,,,,,,,,,,,,a,2.642999887,MOA,FALSE,,,,,,,65,mono,Spanish,Sounds/spa_mono.mp3,2020-06-05_16h22.52.600,TranslationElicitation_eng-prolific,3.2.4,Win32,60,5e788a0aecd8c5000980308e,,1,0,98,61,1,97
,,,,,,,,,,,,,,,,,,,,,,,,,,,,,,,,,,,,,,,,,n,2.724999905,MOAN,FALSE,,,,,,,65,mono,Spanish,Sounds/spa_mono.mp3,2020-06-05_16h22.52.600,TranslationElicitation_eng-prolific,3.2.4,Win32,60,5e788a0aecd8c5000980308e,,1,0,98,61,1,97
,,,,,,,,,,,,,,,,,,,,,,,,,,,,,,,,,,,,,,,,,return,3.91899991,MOAN,FALSE,,,,,,,65,mono,Spanish,Sounds/spa_mono.mp3,2020-06-05_16h22.52.600,TranslationElicitation_eng-prolific,3.2.4,Win32,60,5e788a0aecd8c5000980308e,3.91899991,1,0,98,61,1,97
,,,,,,,,,,,,,,,,,,,,,,,,,,,,,,,,,,,,,,,,,,,,,,,,,,,65,mono,Spanish,Sounds/spa_mono.mp3,2020-06-05_16h22.52.600,TranslationElicitation_eng-prolific,3.2.4,Win32,60,5e788a0aecd8c5000980308e,,1,0,98,61,1,97
,,,,,,,,,,,,,,,,,,,,,,,,,,,,,,,,,,,,,,,,,p,1.752000093,P,FALSE,,,,,,,10,botella,Spanish,Sounds/spa_botella.mp3,2020-06-05_16h22.52.600,TranslationElicitation_eng-prolific,3.2.4,Win32,60,5e788a0aecd8c5000980308e,,1,0,98,8,1,97
,,,,,,,,,,,,,,,,,,,,,,,,,,,,,,,,,,,,,,,,,o,2.184000015,PO,FALSE,,,,,,,10,botella,Spanish,Sounds/spa_botella.mp3,2020-06-05_16h22.52.600,TranslationElicitation_eng-prolific,3.2.4,Win32,60,5e788a0aecd8c5000980308e,,1,0,98,8,1,97
,,,,,,,,,,,,,,,,,,,,,,,,,,,,,,,,,,,,,,,,,t,2.504000187,POT,FALSE,,,,,,,10,botella,Spanish,Sounds/spa_botella.mp3,2020-06-05_16h22.52.600,TranslationElicitation_eng-prolific,3.2.4,Win32,60,5e788a0aecd8c5000980308e,,1,0,98,8,1,97
,,,,,,,,,,,,,,,,,,,,,,,,,,,,,,,,,,,,,,,,,a,2.817000151,POTA,FALSE,,,,,,,10,botella,Spanish,Sounds/spa_botella.mp3,2020-06-05_16h22.52.600,TranslationElicitation_eng-prolific,3.2.4,Win32,60,5e788a0aecd8c5000980308e,,1,0,98,8,1,97
,,,,,,,,,,,,,,,,,,,,,,,,,,,,,,,,,,,,,,,,,t,3.104000092,POTAT,FALSE,,,,,,,10,botella,Spanish,Sounds/spa_botella.mp3,2020-06-05_16h22.52.600,TranslationElicitation_eng-prolific,3.2.4,Win32,60,5e788a0aecd8c5000980308e,,1,0,98,8,1,97
,,,,,,,,,,,,,,,,,,,,,,,,,,,,,,,,,,,,,,,,,o,3.838000059,POTATO,FALSE,,,,,,,10,botella,Spanish,Sounds/spa_botella.mp3,2020-06-05_16h22.52.600,TranslationElicitation_eng-prolific,3.2.4,Win32,60,5e788a0aecd8c5000980308e,,1,0,98,8,1,97
,,,,,,,,,,,,,,,,,,,,,,,,,,,,,,,,,,,,,,,,,return,4.493000031,POTATO,FALSE,,,,,,,10,botella,Spanish,Sounds/spa_botella.mp3,2020-06-05_16h22.52.600,TranslationElicitation_eng-prolific,3.2.4,Win32,60,5e788a0aecd8c5000980308e,4.493000031,1,0,98,8,1,97
,,,,,,,,,,,,,,,,,,,,,,,,,,,,,,,,,,,,,,,,,,,,,,,,,,,10,botella,Spanish,Sounds/spa_botella.mp3,2020-06-05_16h22.52.600,TranslationElicitation_eng-prolific,3.2.4,Win32,60,5e788a0aecd8c5000980308e,,1,0,98,8,1,97
,,,,,,,,,,,,,,,,,,,,,,,,,,,,,,,,,,,,,,,,,m,2.136000156,M,FALSE,,,,,,,58,luna,Spanish,Sounds/spa_luna.mp3,2020-06-05_16h22.52.600,TranslationElicitation_eng-prolific,3.2.4,Win32,60,5e788a0aecd8c5000980308e,,1,0,98,54,1,97
,,,,,,,,,,,,,,,,,,,,,,,,,,,,,,,,,,,,,,,,,o,2.368999958,MO,FALSE,,,,,,,58,luna,Spanish,Sounds/spa_luna.mp3,2020-06-05_16h22.52.600,TranslationElicitation_eng-prolific,3.2.4,Win32,60,5e788a0aecd8c5000980308e,,1,0,98,54,1,97
,,,,,,,,,,,,,,,,,,,,,,,,,,,,,,,,,,,,,,,,,o,2.551000118,MOO,FALSE,,,,,,,58,luna,Spanish,Sounds/spa_luna.mp3,2020-06-05_16h22.52.600,TranslationElicitation_eng-prolific,3.2.4,Win32,60,5e788a0aecd8c5000980308e,,1,0,98,54,1,97
,,,,,,,,,,,,,,,,,,,,,,,,,,,,,,,,,,,,,,,,,n,2.75,MOON,FALSE,,,,,,,58,luna,Spanish,Sounds/spa_luna.mp3,2020-06-05_16h22.52.600,TranslationElicitation_eng-prolific,3.2.4,Win32,60,5e788a0aecd8c5000980308e,,1,0,98,54,1,97
,,,,,,,,,,,,,,,,,,,,,,,,,,,,,,,,,,,,,,,,,return,3.457000017,MOON,FALSE,,,,,,,58,luna,Spanish,Sounds/spa_luna.mp3,2020-06-05_16h22.52.600,TranslationElicitation_eng-prolific,3.2.4,Win32,60,5e788a0aecd8c5000980308e,3.457000017,1,0,98,54,1,97
,,,,,,,,,,,,,,,,,,,,,,,,,,,,,,,,,,,,,,,,,,,,,,,,,,,58,luna,Spanish,Sounds/spa_luna.mp3,2020-06-05_16h22.52.600,TranslationElicitation_eng-prolific,3.2.4,Win32,60,5e788a0aecd8c5000980308e,,1,0,98,54,1,97
,,,,,,,,,,,,,,,,,,,,,,,,,,,,,,,,,,,,,,,,,g,2.135999918,G,FALSE,,,,,,,45,gorro,Spanish,Sounds/spa_gorro.mp3,2020-06-05_16h22.52.600,TranslationElicitation_eng-prolific,3.2.4,Win32,60,5e788a0aecd8c5000980308e,,1,0,98,41,1,97
,,,,,,,,,,,,,,,,,,,,,,,,,,,,,,,,,,,,,,,,,o,2.555000067,GO,FALSE,,,,,,,45,gorro,Spanish,Sounds/spa_gorro.mp3,2020-06-05_16h22.52.600,TranslationElicitation_eng-prolific,3.2.4,Win32,60,5e788a0aecd8c5000980308e,,1,0,98,41,1,97
,,,,,,,,,,,,,,,,,,,,,,,,,,,,,,,,,,,,,,,,,a,2.70600009,GOA,FALSE,,,,,,,45,gorro,Spanish,Sounds/spa_gorro.mp3,2020-06-05_16h22.52.600,TranslationElicitation_eng-prolific,3.2.4,Win32,60,5e788a0aecd8c5000980308e,,1,0,98,41,1,97
,,,,,,,,,,,,,,,,,,,,,,,,,,,,,,,,,,,,,,,,,t,3.763000011,GOAT,FALSE,,,,,,,45,gorro,Spanish,Sounds/spa_gorro.mp3,2020-06-05_16h22.52.600,TranslationElicitation_eng-prolific,3.2.4,Win32,60,5e788a0aecd8c5000980308e,,1,0,98,41,1,97
,,,,,,,,,,,,,,,,,,,,,,,,,,,,,,,,,,,,,,,,,return,4.312000036,GOAT,FALSE,,,,,,,45,gorro,Spanish,Sounds/spa_gorro.mp3,2020-06-05_16h22.52.600,TranslationElicitation_eng-prolific,3.2.4,Win32,60,5e788a0aecd8c5000980308e,4.312000036,1,0,98,41,1,97
,,,,,,,,,,,,,,,,,,,,,,,,,,,,,,,,,,,,,,,,,,,,,,,,,,,45,gorro,Spanish,Sounds/spa_gorro.mp3,2020-06-05_16h22.52.600,TranslationElicitation_eng-prolific,3.2.4,Win32,60,5e788a0aecd8c5000980308e,,1,0,98,41,1,97
,,,,,,,,,,,,,,,,,,,,,,,,,,,,,,,,,,,,,,,,,w,8.326999903,W,FALSE,,,,,,,50,jirafa,Spanish,Sounds/spa_jirafa.mp3,2020-06-05_16h22.52.600,TranslationElicitation_eng-prolific,3.2.4,Win32,60,5e788a0aecd8c5000980308e,,1,0,98,46,1,97
,,,,,,,,,,,,,,,,,,,,,,,,,,,,,,,,,,,,,,,,,o,8.506999969,WO,FALSE,,,,,,,50,jirafa,Spanish,Sounds/spa_jirafa.mp3,2020-06-05_16h22.52.600,TranslationElicitation_eng-prolific,3.2.4,Win32,60,5e788a0aecd8c5000980308e,,1,0,98,46,1,97
,,,,,,,,,,,,,,,,,,,,,,,,,,,,,,,,,,,,,,,,,r,8.710000038,WOR,FALSE,,,,,,,50,jirafa,Spanish,Sounds/spa_jirafa.mp3,2020-06-05_16h22.52.600,TranslationElicitation_eng-prolific,3.2.4,Win32,60,5e788a0aecd8c5000980308e,,1,0,98,46,1,97
,,,,,,,,,,,,,,,,,,,,,,,,,,,,,,,,,,,,,,,,,k,8.872999907,WORK,FALSE,,,,,,,50,jirafa,Spanish,Sounds/spa_jirafa.mp3,2020-06-05_16h22.52.600,TranslationElicitation_eng-prolific,3.2.4,Win32,60,5e788a0aecd8c5000980308e,,1,0,98,46,1,97
,,,,,,,,,,,,,,,,,,,,,,,,,,,,,,,,,,,,,,,,,return,9.654000044,WORK,FALSE,,,,,,,50,jirafa,Spanish,Sounds/spa_jirafa.mp3,2020-06-05_16h22.52.600,TranslationElicitation_eng-prolific,3.2.4,Win32,60,5e788a0aecd8c5000980308e,9.654000044,1,0,98,46,1,97
,,,,,,,,,,,,,,,,,,,,,,,,,,,,,,,,,,,,,,,,,,,,,,,,,,,50,jirafa,Spanish,Sounds/spa_jirafa.mp3,2020-06-05_16h22.52.600,TranslationElicitation_eng-prolific,3.2.4,Win32,60,5e788a0aecd8c5000980308e,,1,0,98,46,1,97
,,,,,,,,,,,,,,,,,,,,,,,,,,,,,,,,,,,,,,,,,m,2.184000015,M,FALSE,,,,,,,63,mesa,Spanish,Sounds/spa_mesa.mp3,2020-06-05_16h22.52.600,TranslationElicitation_eng-prolific,3.2.4,Win32,60,5e788a0aecd8c5000980308e,,1,0,98,59,1,97
,,,,,,,,,,,,,,,,,,,,,,,,,,,,,,,,,,,,,,,,,e,2.299000025,ME,FALSE,,,,,,,63,mesa,Spanish,Sounds/spa_mesa.mp3,2020-06-05_16h22.52.600,TranslationElicitation_eng-prolific,3.2.4,Win32,60,5e788a0aecd8c5000980308e,,1,0,98,59,1,97
,,,,,,,,,,,,,,,,,,,,,,,,,,,,,,,,,,,,,,,,,s,2.532999992,MES,FALSE,,,,,,,63,mesa,Spanish,Sounds/spa_mesa.mp3,2020-06-05_16h22.52.600,TranslationElicitation_eng-prolific,3.2.4,Win32,60,5e788a0aecd8c5000980308e,,1,0,98,59,1,97
,,,,,,,,,,,,,,,,,,,,,,,,,,,,,,,,,,,,,,,,,s,2.73300004,MESS,FALSE,,,,,,,63,mesa,Spanish,Sounds/spa_mesa.mp3,2020-06-05_16h22.52.600,TranslationElicitation_eng-prolific,3.2.4,Win32,60,5e788a0aecd8c5000980308e,,1,0,98,59,1,97
,,,,,,,,,,,,,,,,,,,,,,,,,,,,,,,,,,,,,,,,,return,3.430999994,MESS,FALSE,,,,,,,63,mesa,Spanish,Sounds/spa_mesa.mp3,2020-06-05_16h22.52.600,TranslationElicitation_eng-prolific,3.2.4,Win32,60,5e788a0aecd8c5000980308e,3.430999994,1,0,98,59,1,97
,,,,,,,,,,,,,,,,,,,,,,,,,,,,,,,,,,,,,,,,,,,,,,,,,,,63,mesa,Spanish,Sounds/spa_mesa.mp3,2020-06-05_16h22.52.600,TranslationElicitation_eng-prolific,3.2.4,Win32,60,5e788a0aecd8c5000980308e,,1,0,98,59,1,97
,,,,,,,,,,,,,,,,,,,,,,,,,,,,,,,,,,,,,,,,,f,2.218000174,F,FALSE,,,,,,,61,mariposa,Spanish,Sounds/spa_mariposa.mp3,2020-06-05_16h22.52.600,TranslationElicitation_eng-prolific,3.2.4,Win32,60,5e788a0aecd8c5000980308e,,1,0,98,57,1,97
,,,,,,,,,,,,,,,,,,,,,,,,,,,,,,,,,,,,,,,,,l,2.34800005,FL,FALSE,,,,,,,61,mariposa,Spanish,Sounds/spa_mariposa.mp3,2020-06-05_16h22.52.600,TranslationElicitation_eng-prolific,3.2.4,Win32,60,5e788a0aecd8c5000980308e,,1,0,98,57,1,97
,,,,,,,,,,,,,,,,,,,,,,,,,,,,,,,,,,,,,,,,,o,2.572000027,FLO,FALSE,,,,,,,61,mariposa,Spanish,Sounds/spa_mariposa.mp3,2020-06-05_16h22.52.600,TranslationElicitation_eng-prolific,3.2.4,Win32,60,5e788a0aecd8c5000980308e,,1,0,98,57,1,97
,,,,,,,,,,,,,,,,,,,,,,,,,,,,,,,,,,,,,,,,,w,2.715000153,FLOW,FALSE,,,,,,,61,mariposa,Spanish,Sounds/spa_mariposa.mp3,2020-06-05_16h22.52.600,TranslationElicitation_eng-prolific,3.2.4,Win32,60,5e788a0aecd8c5000980308e,,1,0,98,57,1,97
,,,,,,,,,,,,,,,,,,,,,,,,,,,,,,,,,,,,,,,,,e,2.988000154,FLOWE,FALSE,,,,,,,61,mariposa,Spanish,Sounds/spa_mariposa.mp3,2020-06-05_16h22.52.600,TranslationElicitation_eng-prolific,3.2.4,Win32,60,5e788a0aecd8c5000980308e,,1,0,98,57,1,97
,,,,,,,,,,,,,,,,,,,,,,,,,,,,,,,,,,,,,,,,,r,3.183000088,FLOWER,FALSE,,,,,,,61,mariposa,Spanish,Sounds/spa_mariposa.mp3,2020-06-05_16h22.52.600,TranslationElicitation_eng-prolific,3.2.4,Win32,60,5e788a0aecd8c5000980308e,,1,0,98,57,1,97
,,,,,,,,,,,,,,,,,,,,,,,,,,,,,,,,,,,,,,,,,return,3.75,FLOWER,FALSE,,,,,,,61,mariposa,Spanish,Sounds/spa_mariposa.mp3,2020-06-05_16h22.52.600,TranslationElicitation_eng-prolific,3.2.4,Win32,60,5e788a0aecd8c5000980308e,3.75,1,0,98,57,1,97
,,,,,,,,,,,,,,,,,,,,,,,,,,,,,,,,,,,,,,,,,,,,,,,,,,,61,mariposa,Spanish,Sounds/spa_mariposa.mp3,2020-06-05_16h22.52.600,TranslationElicitation_eng-prolific,3.2.4,Win32,60,5e788a0aecd8c5000980308e,,1,0,98,57,1,97
,,,,,,,,,,,,,,,,,,,,,,,,,,,,,,,,,,,,,,,,,s,1.891000032,S,FALSE,,,,,,,93,sol,Spanish,Sounds/spa_sol.mp3,2020-06-05_16h22.52.600,TranslationElicitation_eng-prolific,3.2.4,Win32,60,5e788a0aecd8c5000980308e,,1,0,98,88,1,97
,,,,,,,,,,,,,,,,,,,,,,,,,,,,,,,,,,,,,,,,,o,2.003000021,SO,FALSE,,,,,,,93,sol,Spanish,Sounds/spa_sol.mp3,2020-06-05_16h22.52.600,TranslationElicitation_eng-prolific,3.2.4,Win32,60,5e788a0aecd8c5000980308e,,1,0,98,88,1,97
,,,,,,,,,,,,,,,,,,,,,,,,,,,,,,,,,,,,,,,,,l,2.203999996,SOL,FALSE,,,,,,,93,sol,Spanish,Sounds/spa_sol.mp3,2020-06-05_16h22.52.600,TranslationElicitation_eng-prolific,3.2.4,Win32,60,5e788a0aecd8c5000980308e,,1,0,98,88,1,97
,,,,,,,,,,,,,,,,,,,,,,,,,,,,,,,,,,,,,,,,,e,2.268000126,SOLE,FALSE,,,,,,,93,sol,Spanish,Sounds/spa_sol.mp3,2020-06-05_16h22.52.600,TranslationElicitation_eng-prolific,3.2.4,Win32,60,5e788a0aecd8c5000980308e,,1,0,98,88,1,97
,,,,,,,,,,,,,,,,,,,,,,,,,,,,,,,,,,,,,,,,,return,3.700000048,SOLE,FALSE,,,,,,,93,sol,Spanish,Sounds/spa_sol.mp3,2020-06-05_16h22.52.600,TranslationElicitation_eng-prolific,3.2.4,Win32,60,5e788a0aecd8c5000980308e,3.700000048,1,0,98,88,1,97
,,,,,,,,,,,,,,,,,,,,,,,,,,,,,,,,,,,,,,,,,,,,,,,,,,,93,sol,Spanish,Sounds/spa_sol.mp3,2020-06-05_16h22.52.600,TranslationElicitation_eng-prolific,3.2.4,Win32,60,5e788a0aecd8c5000980308e,,1,0,98,88,1,97
,,,,,,,,,,,,,,,,,,,,,,,,,,,,,,,,,,,,,,,,,f,1.955999851,F,FALSE,,,,,,,49,hormiga,Spanish,Sounds/spa_hormiga.mp3,2020-06-05_16h22.52.600,TranslationElicitation_eng-prolific,3.2.4,Win32,60,5e788a0aecd8c5000980308e,,1,0,98,45,1,97
,,,,,,,,,,,,,,,,,,,,,,,,,,,,,,,,,,,,,,,,,r,2.302999973,FR,FALSE,,,,,,,49,hormiga,Spanish,Sounds/spa_hormiga.mp3,2020-06-05_16h22.52.600,TranslationElicitation_eng-prolific,3.2.4,Win32,60,5e788a0aecd8c5000980308e,,1,0,98,45,1,97
,,,,,,,,,,,,,,,,,,,,,,,,,,,,,,,,,,,,,,,,,i,2.430999994,FRI,FALSE,,,,,,,49,hormiga,Spanish,Sounds/spa_hormiga.mp3,2020-06-05_16h22.52.600,TranslationElicitation_eng-prolific,3.2.4,Win32,60,5e788a0aecd8c5000980308e,,1,0,98,45,1,97
,,,,,,,,,,,,,,,,,,,,,,,,,,,,,,,,,,,,,,,,,e,2.576999903,FRIE,FALSE,,,,,,,49,hormiga,Spanish,Sounds/spa_hormiga.mp3,2020-06-05_16h22.52.600,TranslationElicitation_eng-prolific,3.2.4,Win32,60,5e788a0aecd8c5000980308e,,1,0,98,45,1,97
,,,,,,,,,,,,,,,,,,,,,,,,,,,,,,,,,,,,,,,,,n,2.708999872,FRIEN,FALSE,,,,,,,49,hormiga,Spanish,Sounds/spa_hormiga.mp3,2020-06-05_16h22.52.600,TranslationElicitation_eng-prolific,3.2.4,Win32,60,5e788a0aecd8c5000980308e,,1,0,98,45,1,97
,,,,,,,,,,,,,,,,,,,,,,,,,,,,,,,,,,,,,,,,,d,2.845999956,FRIEND,FALSE,,,,,,,49,hormiga,Spanish,Sounds/spa_hormiga.mp3,2020-06-05_16h22.52.600,TranslationElicitation_eng-prolific,3.2.4,Win32,60,5e788a0aecd8c5000980308e,,1,0,98,45,1,97
,,,,,,,,,,,,,,,,,,,,,,,,,,,,,,,,,,,,,,,,,return,3.660999775,FRIEND,FALSE,,,,,,,49,hormiga,Spanish,Sounds/spa_hormiga.mp3,2020-06-05_16h22.52.600,TranslationElicitation_eng-prolific,3.2.4,Win32,60,5e788a0aecd8c5000980308e,3.660999775,1,0,98,45,1,97
,,,,,,,,,,,,,,,,,,,,,,,,,,,,,,,,,,,,,,,,,,,,,,,,,,,49,hormiga,Spanish,Sounds/spa_hormiga.mp3,2020-06-05_16h22.52.600,TranslationElicitation_eng-prolific,3.2.4,Win32,60,5e788a0aecd8c5000980308e,,1,0,98,45,1,97
,,,,,,,,,,,,,,,,,,,,,,,,,,,,,,,,,,,,,,,,,l,1.896000147,L,FALSE,,,,,,,53,leche,Spanish,Sounds/spa_leche.mp3,2020-06-05_16h22.52.600,TranslationElicitation_eng-prolific,3.2.4,Win32,60,5e788a0aecd8c5000980308e,,1,0,98,49,1,97
,,,,,,,,,,,,,,,,,,,,,,,,,,,,,,,,,,,,,,,,,e,2.096000195,LE,FALSE,,,,,,,53,leche,Spanish,Sounds/spa_leche.mp3,2020-06-05_16h22.52.600,TranslationElicitation_eng-prolific,3.2.4,Win32,60,5e788a0aecd8c5000980308e,,1,0,98,49,1,97
,,,,,,,,,,,,,,,,,,,,,,,,,,,,,,,,,,,,,,,,,c,2.312000036,LEC,FALSE,,,,,,,53,leche,Spanish,Sounds/spa_leche.mp3,2020-06-05_16h22.52.600,TranslationElicitation_eng-prolific,3.2.4,Win32,60,5e788a0aecd8c5000980308e,,1,0,98,49,1,97
,,,,,,,,,,,,,,,,,,,,,,,,,,,,,,,,,,,,,,,,,t,2.465000153,LECT,FALSE,,,,,,,53,leche,Spanish,Sounds/spa_leche.mp3,2020-06-05_16h22.52.600,TranslationElicitation_eng-prolific,3.2.4,Win32,60,5e788a0aecd8c5000980308e,,1,0,98,49,1,97
,,,,,,,,,,,,,,,,,,,,,,,,,,,,,,,,,,,,,,,,,u,2.648000002,LECTU,FALSE,,,,,,,53,leche,Spanish,Sounds/spa_leche.mp3,2020-06-05_16h22.52.600,TranslationElicitation_eng-prolific,3.2.4,Win32,60,5e788a0aecd8c5000980308e,,1,0,98,49,1,97
,,,,,,,,,,,,,,,,,,,,,,,,,,,,,,,,,,,,,,,,,r,2.731000185,LECTUR,FALSE,,,,,,,53,leche,Spanish,Sounds/spa_leche.mp3,2020-06-05_16h22.52.600,TranslationElicitation_eng-prolific,3.2.4,Win32,60,5e788a0aecd8c5000980308e,,1,0,98,49,1,97
,,,,,,,,,,,,,,,,,,,,,,,,,,,,,,,,,,,,,,,,,e,2.946000099,LECTURE,FALSE,,,,,,,53,leche,Spanish,Sounds/spa_leche.mp3,2020-06-05_16h22.52.600,TranslationElicitation_eng-prolific,3.2.4,Win32,60,5e788a0aecd8c5000980308e,,1,0,98,49,1,97
,,,,,,,,,,,,,,,,,,,,,,,,,,,,,,,,,,,,,,,,,return,4.458000183,LECTURE,FALSE,,,,,,,53,leche,Spanish,Sounds/spa_leche.mp3,2020-06-05_16h22.52.600,TranslationElicitation_eng-prolific,3.2.4,Win32,60,5e788a0aecd8c5000980308e,4.458000183,1,0,98,49,1,97
,,,,,,,,,,,,,,,,,,,,,,,,,,,,,,,,,,,,,,,,,,,,,,,,,,,53,leche,Spanish,Sounds/spa_leche.mp3,2020-06-05_16h22.52.600,TranslationElicitation_eng-prolific,3.2.4,Win32,60,5e788a0aecd8c5000980308e,,1,0,98,49,1,97
