consentKey.keys,consentKey.rt,languageL1Key.keys,languageL1Key.rt,languageL2,languageL2OralKey.keys,languageL2OralKey.rt,languageL2WrittenKey.keys,languageL2WrittenKey.rt,languageL3OralKey.keys,languageL3OralKey.rt,languageL3WrittenKey.keys,languageL3WrittenKey.rt,languageCatalanOralKey.keys,languageCatalanOralKey.rt,languageCatalanWrittenKey.keys,languageCatalanWrittenKey.rt,languageCatalanTimeKey.keys,languageCatalanTimeKey.rt,languageSpanishOralKey.keys,languageSpanishOralKey.rt,languageSpanishWrittenKey.keys,languageSpanishWrittenKey.rt,languageSpanishTimeKey.keys,languageSpanishTimeKey.rt,age,demoSexKey.keys,demoSexKey.rt,demoEducationKey.keys,demoEducationKey.rt,city,demoVisionKey.keys,demoVisionKey.rt,demoLanguageKey.keys,demoLanguageKey.rt,setupLocationKey.keys,setupLocationKey.rt,setupNoiseKey.keys,setupNoiseKey.rt,instructionsKeys.keys,instructionsKeys.rt,keyPressed,keyPressTime,inputText,error,trialsPracticeCatalan.thisRepN,trialsPracticeCatalan.thisTrialN,trialsPracticeCatalan.thisN,trialsPracticeCatalan.thisIndex,trialsPracticeCatalan.ran,trialsPracticeCatalan.order,trial_id,word,test_language,soundfile,date,expName,psychopyVersion,OS,frameRate,participant,trialOffset,trialsCatalan.thisRepN,trialsCatalan.thisTrialN,trialsCatalan.thisN,trialsCatalan.thisIndex,trialsCatalan.ran,trialsCatalan.order
space,2.308000088,e,2.820999861,,,,,,,,,,1,6.587999821,1,1.774999857,1,4.441999912,1,2.846999884,1,1.510999918,1,1.921000004,24,m,1.59800005,3,3.732999802,MILTONSPACEKEYNES,y,6.579999924,n,3.076999903,1,2.36500001,2,2.786000013,space,18.15199995,space,22.46200013, ,FALSE,1,0,5,3,1,4,159,onada,Catalan,Sounds/cat_onada.mp3,2020-06-05_16h23.55.322,TranslationElicitation_eng-prolific,3.2.4,Win32,60,5e7b804f9379140478c688da,,,,,,,
,,,,,,,,,,,,,,,,,,,,,,,,,,,,,,,,,,,,,,,,,return,26.0940001, ,FALSE,1,0,5,3,1,4,159,onada,Catalan,Sounds/cat_onada.mp3,2020-06-05_16h23.55.322,TranslationElicitation_eng-prolific,3.2.4,Win32,60,5e7b804f9379140478c688da,26.0940001,,,,,,
,,,,,,,,,,,,,,,,,,,,,,,,,,,,,,,,,,,,,,,,,,,,,1,0,5,3,1,4,159,onada,Catalan,Sounds/cat_onada.mp3,2020-06-05_16h23.55.322,TranslationElicitation_eng-prolific,3.2.4,Win32,60,5e7b804f9379140478c688da,,,,,,,
,,,,,,,,,,,,,,,,,,,,,,,,,,,,,,,,,,,,,,,,,return,10.87000012,,FALSE,1,0,5,4,1,4,179,tigre,Catalan,Sounds/cat_tigre.mp3,2020-06-05_16h23.55.322,TranslationElicitation_eng-prolific,3.2.4,Win32,60,5e7b804f9379140478c688da,10.87000012,,,,,,
,,,,,,,,,,,,,,,,,,,,,,,,,,,,,,,,,,,,,,,,,,,,,1,0,5,4,1,4,179,tigre,Catalan,Sounds/cat_tigre.mp3,2020-06-05_16h23.55.322,TranslationElicitation_eng-prolific,3.2.4,Win32,60,5e7b804f9379140478c688da,,,,,,,
,,,,,,,,,,,,,,,,,,,,,,,,,,,,,,,,,,,,,,,,,j,2.899999857,J,FALSE,1,0,5,0,1,4,109,arbre,Catalan,Sounds/cat_arbre.mp3,2020-06-05_16h23.55.322,TranslationElicitation_eng-prolific,3.2.4,Win32,60,5e7b804f9379140478c688da,,,,,,,
,,,,,,,,,,,,,,,,,,,,,,,,,,,,,,,,,,,,,,,,,backspace,3.927999973,,TRUE,1,0,5,0,1,4,109,arbre,Catalan,Sounds/cat_arbre.mp3,2020-06-05_16h23.55.322,TranslationElicitation_eng-prolific,3.2.4,Win32,60,5e7b804f9379140478c688da,,,,,,,
,,,,,,,,,,,,,,,,,,,,,,,,,,,,,,,,,,,,,,,,,space,9.89199996, ,TRUE,1,0,5,0,1,4,109,arbre,Catalan,Sounds/cat_arbre.mp3,2020-06-05_16h23.55.322,TranslationElicitation_eng-prolific,3.2.4,Win32,60,5e7b804f9379140478c688da,,,,,,,
,,,,,,,,,,,,,,,,,,,,,,,,,,,,,,,,,,,,,,,,,c,14.2579999, C,TRUE,1,0,5,0,1,4,109,arbre,Catalan,Sounds/cat_arbre.mp3,2020-06-05_16h23.55.322,TranslationElicitation_eng-prolific,3.2.4,Win32,60,5e7b804f9379140478c688da,,,,,,,
,,,,,,,,,,,,,,,,,,,,,,,,,,,,,,,,,,,,,,,,,a,14.57399988, CA,TRUE,1,0,5,0,1,4,109,arbre,Catalan,Sounds/cat_arbre.mp3,2020-06-05_16h23.55.322,TranslationElicitation_eng-prolific,3.2.4,Win32,60,5e7b804f9379140478c688da,,,,,,,
,,,,,,,,,,,,,,,,,,,,,,,,,,,,,,,,,,,,,,,,,n,14.70799994, CAN,TRUE,1,0,5,0,1,4,109,arbre,Catalan,Sounds/cat_arbre.mp3,2020-06-05_16h23.55.322,TranslationElicitation_eng-prolific,3.2.4,Win32,60,5e7b804f9379140478c688da,,,,,,,
,,,,,,,,,,,,,,,,,,,,,,,,,,,,,,,,,,,,,,,,,t,14.96299982, CANT,TRUE,1,0,5,0,1,4,109,arbre,Catalan,Sounds/cat_arbre.mp3,2020-06-05_16h23.55.322,TranslationElicitation_eng-prolific,3.2.4,Win32,60,5e7b804f9379140478c688da,,,,,,,
,,,,,,,,,,,,,,,,,,,,,,,,,,,,,,,,,,,,,,,,,space,15.34099984, CANT ,TRUE,1,0,5,0,1,4,109,arbre,Catalan,Sounds/cat_arbre.mp3,2020-06-05_16h23.55.322,TranslationElicitation_eng-prolific,3.2.4,Win32,60,5e7b804f9379140478c688da,,,,,,,
,,,,,,,,,,,,,,,,,,,,,,,,,,,,,,,,,,,,,,,,,h,15.66299987, CANT H,TRUE,1,0,5,0,1,4,109,arbre,Catalan,Sounds/cat_arbre.mp3,2020-06-05_16h23.55.322,TranslationElicitation_eng-prolific,3.2.4,Win32,60,5e7b804f9379140478c688da,,,,,,,
,,,,,,,,,,,,,,,,,,,,,,,,,,,,,,,,,,,,,,,,,e,15.82399988, CANT HE,TRUE,1,0,5,0,1,4,109,arbre,Catalan,Sounds/cat_arbre.mp3,2020-06-05_16h23.55.322,TranslationElicitation_eng-prolific,3.2.4,Win32,60,5e7b804f9379140478c688da,,,,,,,
,,,,,,,,,,,,,,,,,,,,,,,,,,,,,,,,,,,,,,,,,a,16.14099979, CANT HEA,TRUE,1,0,5,0,1,4,109,arbre,Catalan,Sounds/cat_arbre.mp3,2020-06-05_16h23.55.322,TranslationElicitation_eng-prolific,3.2.4,Win32,60,5e7b804f9379140478c688da,,,,,,,
,,,,,,,,,,,,,,,,,,,,,,,,,,,,,,,,,,,,,,,,,r,16.42599988, CANT HEAR,TRUE,1,0,5,0,1,4,109,arbre,Catalan,Sounds/cat_arbre.mp3,2020-06-05_16h23.55.322,TranslationElicitation_eng-prolific,3.2.4,Win32,60,5e7b804f9379140478c688da,,,,,,,
,,,,,,,,,,,,,,,,,,,,,,,,,,,,,,,,,,,,,,,,,return,16.77399993, CANT HEAR,TRUE,1,0,5,0,1,4,109,arbre,Catalan,Sounds/cat_arbre.mp3,2020-06-05_16h23.55.322,TranslationElicitation_eng-prolific,3.2.4,Win32,60,5e7b804f9379140478c688da,16.77399993,,,,,,
,,,,,,,,,,,,,,,,,,,,,,,,,,,,,,,,,,,,,,,,,,,,,1,0,5,0,1,4,109,arbre,Catalan,Sounds/cat_arbre.mp3,2020-06-05_16h23.55.322,TranslationElicitation_eng-prolific,3.2.4,Win32,60,5e7b804f9379140478c688da,,,,,,,
,,,,,,,,,,,,,,,,,,,,,,,,,,,,,,,,,,,,,,,,,c,46.47799993,C,FALSE,1,0,5,2,1,4,147,jaqueta,Catalan,Sounds/cat_jaqueta.mp3,2020-06-05_16h23.55.322,TranslationElicitation_eng-prolific,3.2.4,Win32,60,5e7b804f9379140478c688da,,,,,,,
,,,,,,,,,,,,,,,,,,,,,,,,,,,,,,,,,,,,,,,,,a,46.79199982,CA,FALSE,1,0,5,2,1,4,147,jaqueta,Catalan,Sounds/cat_jaqueta.mp3,2020-06-05_16h23.55.322,TranslationElicitation_eng-prolific,3.2.4,Win32,60,5e7b804f9379140478c688da,,,,,,,
,,,,,,,,,,,,,,,,,,,,,,,,,,,,,,,,,,,,,,,,,backspace,48.375,C,TRUE,1,0,5,2,1,4,147,jaqueta,Catalan,Sounds/cat_jaqueta.mp3,2020-06-05_16h23.55.322,TranslationElicitation_eng-prolific,3.2.4,Win32,60,5e7b804f9379140478c688da,,,,,,,
,,,,,,,,,,,,,,,,,,,,,,,,,,,,,,,,,,,,,,,,,backspace,48.55899978,,TRUE,1,0,5,2,1,4,147,jaqueta,Catalan,Sounds/cat_jaqueta.mp3,2020-06-05_16h23.55.322,TranslationElicitation_eng-prolific,3.2.4,Win32,60,5e7b804f9379140478c688da,,,,,,,
,,,,,,,,,,,,,,,,,,,,,,,,,,,,,,,,,,,,,,,,,backspace,48.72599983,,TRUE,1,0,5,2,1,4,147,jaqueta,Catalan,Sounds/cat_jaqueta.mp3,2020-06-05_16h23.55.322,TranslationElicitation_eng-prolific,3.2.4,Win32,60,5e7b804f9379140478c688da,,,,,,,
,,,,,,,,,,,,,,,,,,,,,,,,,,,,,,,,,,,,,,,,,p,49.35899997,P,TRUE,1,0,5,2,1,4,147,jaqueta,Catalan,Sounds/cat_jaqueta.mp3,2020-06-05_16h23.55.322,TranslationElicitation_eng-prolific,3.2.4,Win32,60,5e7b804f9379140478c688da,,,,,,,
,,,,,,,,,,,,,,,,,,,,,,,,,,,,,,,,,,,,,,,,,o,49.45899987,PO,TRUE,1,0,5,2,1,4,147,jaqueta,Catalan,Sounds/cat_jaqueta.mp3,2020-06-05_16h23.55.322,TranslationElicitation_eng-prolific,3.2.4,Win32,60,5e7b804f9379140478c688da,,,,,,,
,,,,,,,,,,,,,,,,,,,,,,,,,,,,,,,,,,,,,,,,,t,49.86099982,POT,TRUE,1,0,5,2,1,4,147,jaqueta,Catalan,Sounds/cat_jaqueta.mp3,2020-06-05_16h23.55.322,TranslationElicitation_eng-prolific,3.2.4,Win32,60,5e7b804f9379140478c688da,,,,,,,
,,,,,,,,,,,,,,,,,,,,,,,,,,,,,,,,,,,,,,,,,a,50.17499995,POTA,TRUE,1,0,5,2,1,4,147,jaqueta,Catalan,Sounds/cat_jaqueta.mp3,2020-06-05_16h23.55.322,TranslationElicitation_eng-prolific,3.2.4,Win32,60,5e7b804f9379140478c688da,,,,,,,
,,,,,,,,,,,,,,,,,,,,,,,,,,,,,,,,,,,,,,,,,t,50.79099989,POTAT,TRUE,1,0,5,2,1,4,147,jaqueta,Catalan,Sounds/cat_jaqueta.mp3,2020-06-05_16h23.55.322,TranslationElicitation_eng-prolific,3.2.4,Win32,60,5e7b804f9379140478c688da,,,,,,,
,,,,,,,,,,,,,,,,,,,,,,,,,,,,,,,,,,,,,,,,,o,51.5079999,POTATO,TRUE,1,0,5,2,1,4,147,jaqueta,Catalan,Sounds/cat_jaqueta.mp3,2020-06-05_16h23.55.322,TranslationElicitation_eng-prolific,3.2.4,Win32,60,5e7b804f9379140478c688da,,,,,,,
,,,,,,,,,,,,,,,,,,,,,,,,,,,,,,,,,,,,,,,,,return,51.94299984,POTATO,TRUE,1,0,5,2,1,4,147,jaqueta,Catalan,Sounds/cat_jaqueta.mp3,2020-06-05_16h23.55.322,TranslationElicitation_eng-prolific,3.2.4,Win32,60,5e7b804f9379140478c688da,51.94299984,,,,,,
,,,,,,,,,,,,,,,,,,,,,,,,,,,,,,,,,,,,,,,,,,,,,1,0,5,2,1,4,147,jaqueta,Catalan,Sounds/cat_jaqueta.mp3,2020-06-05_16h23.55.322,TranslationElicitation_eng-prolific,3.2.4,Win32,60,5e7b804f9379140478c688da,,,,,,,
,,,,,,,,,,,,,,,,,,,,,,,,,,,,,,,,,,,,,,,,,space,3.815999985, ,FALSE,1,0,5,1,1,4,126,corona,Catalan,Sounds/cat_corona.mp3,2020-06-05_16h23.55.322,TranslationElicitation_eng-prolific,3.2.4,Win32,60,5e7b804f9379140478c688da,,,,,,,
,,,,,,,,,,,,,,,,,,,,,,,,,,,,,,,,,,,,,,,,,k,21.02999997, K,FALSE,1,0,5,1,1,4,126,corona,Catalan,Sounds/cat_corona.mp3,2020-06-05_16h23.55.322,TranslationElicitation_eng-prolific,3.2.4,Win32,60,5e7b804f9379140478c688da,,,,,,,
,,,,,,,,,,,,,,,,,,,,,,,,,,,,,,,,,,,,,,,,,backspace,22.22899985, ,TRUE,1,0,5,1,1,4,126,corona,Catalan,Sounds/cat_corona.mp3,2020-06-05_16h23.55.322,TranslationElicitation_eng-prolific,3.2.4,Win32,60,5e7b804f9379140478c688da,,,,,,,
,,,,,,,,,,,,,,,,,,,,,,,,,,,,,,,,,,,,,,,,,space,24.14400005,  ,TRUE,1,0,5,1,1,4,126,corona,Catalan,Sounds/cat_corona.mp3,2020-06-05_16h23.55.322,TranslationElicitation_eng-prolific,3.2.4,Win32,60,5e7b804f9379140478c688da,,,,,,,
,,,,,,,,,,,,,,,,,,,,,,,,,,,,,,,,,,,,,,,,,k,24.59299994,  K,TRUE,1,0,5,1,1,4,126,corona,Catalan,Sounds/cat_corona.mp3,2020-06-05_16h23.55.322,TranslationElicitation_eng-prolific,3.2.4,Win32,60,5e7b804f9379140478c688da,,,,,,,
,,,,,,,,,,,,,,,,,,,,,,,,,,,,,,,,,,,,,,,,,space,24.727,  K ,TRUE,1,0,5,1,1,4,126,corona,Catalan,Sounds/cat_corona.mp3,2020-06-05_16h23.55.322,TranslationElicitation_eng-prolific,3.2.4,Win32,60,5e7b804f9379140478c688da,,,,,,,
,,,,,,,,,,,,,,,,,,,,,,,,,,,,,,,,,,,,,,,,,backspace,25.44299984,  K,TRUE,1,0,5,1,1,4,126,corona,Catalan,Sounds/cat_corona.mp3,2020-06-05_16h23.55.322,TranslationElicitation_eng-prolific,3.2.4,Win32,60,5e7b804f9379140478c688da,,,,,,,
,,,,,,,,,,,,,,,,,,,,,,,,,,,,,,,,,,,,,,,,,backspace,25.74499989,  ,TRUE,1,0,5,1,1,4,126,corona,Catalan,Sounds/cat_corona.mp3,2020-06-05_16h23.55.322,TranslationElicitation_eng-prolific,3.2.4,Win32,60,5e7b804f9379140478c688da,,,,,,,
,,,,,,,,,,,,,,,,,,,,,,,,,,,,,,,,,,,,,,,,,c,28.64400005,  C,TRUE,1,0,5,1,1,4,126,corona,Catalan,Sounds/cat_corona.mp3,2020-06-05_16h23.55.322,TranslationElicitation_eng-prolific,3.2.4,Win32,60,5e7b804f9379140478c688da,,,,,,,
,,,,,,,,,,,,,,,,,,,,,,,,,,,,,,,,,,,,,,,,,a,28.94400001,  CA,TRUE,1,0,5,1,1,4,126,corona,Catalan,Sounds/cat_corona.mp3,2020-06-05_16h23.55.322,TranslationElicitation_eng-prolific,3.2.4,Win32,60,5e7b804f9379140478c688da,,,,,,,
,,,,,,,,,,,,,,,,,,,,,,,,,,,,,,,,,,,,,,,,,n,29.05999994,  CAN,TRUE,1,0,5,1,1,4,126,corona,Catalan,Sounds/cat_corona.mp3,2020-06-05_16h23.55.322,TranslationElicitation_eng-prolific,3.2.4,Win32,60,5e7b804f9379140478c688da,,,,,,,
,,,,,,,,,,,,,,,,,,,,,,,,,,,,,,,,,,,,,,,,,t,29.3269999,  CANT,TRUE,1,0,5,1,1,4,126,corona,Catalan,Sounds/cat_corona.mp3,2020-06-05_16h23.55.322,TranslationElicitation_eng-prolific,3.2.4,Win32,60,5e7b804f9379140478c688da,,,,,,,
,,,,,,,,,,,,,,,,,,,,,,,,,,,,,,,,,,,,,,,,,space,29.46000004,  CANT ,TRUE,1,0,5,1,1,4,126,corona,Catalan,Sounds/cat_corona.mp3,2020-06-05_16h23.55.322,TranslationElicitation_eng-prolific,3.2.4,Win32,60,5e7b804f9379140478c688da,,,,,,,
,,,,,,,,,,,,,,,,,,,,,,,,,,,,,,,,,,,,,,,,,h,29.65999985,  CANT H,TRUE,1,0,5,1,1,4,126,corona,Catalan,Sounds/cat_corona.mp3,2020-06-05_16h23.55.322,TranslationElicitation_eng-prolific,3.2.4,Win32,60,5e7b804f9379140478c688da,,,,,,,
,,,,,,,,,,,,,,,,,,,,,,,,,,,,,,,,,,,,,,,,,r,29.87599993,  CANT HR,TRUE,1,0,5,1,1,4,126,corona,Catalan,Sounds/cat_corona.mp3,2020-06-05_16h23.55.322,TranslationElicitation_eng-prolific,3.2.4,Win32,60,5e7b804f9379140478c688da,,,,,,,
,,,,,,,,,,,,,,,,,,,,,,,,,,,,,,,,,,,,,,,,,backspace,30.36199999,  CANT H,TRUE,1,0,5,1,1,4,126,corona,Catalan,Sounds/cat_corona.mp3,2020-06-05_16h23.55.322,TranslationElicitation_eng-prolific,3.2.4,Win32,60,5e7b804f9379140478c688da,,,,,,,
,,,,,,,,,,,,,,,,,,,,,,,,,,,,,,,,,,,,,,,,,e,30.53900003,  CANT HE,TRUE,1,0,5,1,1,4,126,corona,Catalan,Sounds/cat_corona.mp3,2020-06-05_16h23.55.322,TranslationElicitation_eng-prolific,3.2.4,Win32,60,5e7b804f9379140478c688da,,,,,,,
,,,,,,,,,,,,,,,,,,,,,,,,,,,,,,,,,,,,,,,,,s,30.80900002,  CANT HES,TRUE,1,0,5,1,1,4,126,corona,Catalan,Sounds/cat_corona.mp3,2020-06-05_16h23.55.322,TranslationElicitation_eng-prolific,3.2.4,Win32,60,5e7b804f9379140478c688da,,,,,,,
,,,,,,,,,,,,,,,,,,,,,,,,,,,,,,,,,,,,,,,,,r,31.27600002,  CANT HESR,TRUE,1,0,5,1,1,4,126,corona,Catalan,Sounds/cat_corona.mp3,2020-06-05_16h23.55.322,TranslationElicitation_eng-prolific,3.2.4,Win32,60,5e7b804f9379140478c688da,,,,,,,
,,,,,,,,,,,,,,,,,,,,,,,,,,,,,,,,,,,,,,,,,backspace,31.92599988,  CANT HES,TRUE,1,0,5,1,1,4,126,corona,Catalan,Sounds/cat_corona.mp3,2020-06-05_16h23.55.322,TranslationElicitation_eng-prolific,3.2.4,Win32,60,5e7b804f9379140478c688da,,,,,,,
,,,,,,,,,,,,,,,,,,,,,,,,,,,,,,,,,,,,,,,,,backspace,32.07599998,  CANT HE,TRUE,1,0,5,1,1,4,126,corona,Catalan,Sounds/cat_corona.mp3,2020-06-05_16h23.55.322,TranslationElicitation_eng-prolific,3.2.4,Win32,60,5e7b804f9379140478c688da,,,,,,,
,,,,,,,,,,,,,,,,,,,,,,,,,,,,,,,,,,,,,,,,,a,32.6099999,  CANT HEA,TRUE,1,0,5,1,1,4,126,corona,Catalan,Sounds/cat_corona.mp3,2020-06-05_16h23.55.322,TranslationElicitation_eng-prolific,3.2.4,Win32,60,5e7b804f9379140478c688da,,,,,,,
,,,,,,,,,,,,,,,,,,,,,,,,,,,,,,,,,,,,,,,,,r,32.79299998,  CANT HEAR,TRUE,1,0,5,1,1,4,126,corona,Catalan,Sounds/cat_corona.mp3,2020-06-05_16h23.55.322,TranslationElicitation_eng-prolific,3.2.4,Win32,60,5e7b804f9379140478c688da,,,,,,,
,,,,,,,,,,,,,,,,,,,,,,,,,,,,,,,,,,,,,,,,,return,33.45899987,  CANT HEAR,TRUE,1,0,5,1,1,4,126,corona,Catalan,Sounds/cat_corona.mp3,2020-06-05_16h23.55.322,TranslationElicitation_eng-prolific,3.2.4,Win32,60,5e7b804f9379140478c688da,33.45899987,,,,,,
,,,,,,,,,,,,,,,,,,,,,,,,,,,,,,,,,,,,,,,,,,,,,1,0,5,1,1,4,126,corona,Catalan,Sounds/cat_corona.mp3,2020-06-05_16h23.55.322,TranslationElicitation_eng-prolific,3.2.4,Win32,60,5e7b804f9379140478c688da,,,,,,,
,,,,,,,,,,,,,,,,,,,,,,,,,,,,,,,,,,,,,,,,,n,4.096000195,N,FALSE,,,,,,,139,galleda,Catalan,Sounds/cat_galleda.mp3,2020-06-05_16h23.55.322,TranslationElicitation_eng-prolific,3.2.4,Win32,60,5e7b804f9379140478c688da,,1,0,81,33,1,80
,,,,,,,,,,,,,,,,,,,,,,,,,,,,,,,,,,,,,,,,,o,4.363000154,NO,FALSE,,,,,,,139,galleda,Catalan,Sounds/cat_galleda.mp3,2020-06-05_16h23.55.322,TranslationElicitation_eng-prolific,3.2.4,Win32,60,5e7b804f9379140478c688da,,1,0,81,33,1,80
,,,,,,,,,,,,,,,,,,,,,,,,,,,,,,,,,,,,,,,,,return,5.013000011,NO,FALSE,,,,,,,139,galleda,Catalan,Sounds/cat_galleda.mp3,2020-06-05_16h23.55.322,TranslationElicitation_eng-prolific,3.2.4,Win32,60,5e7b804f9379140478c688da,5.013000011,1,0,81,33,1,80
,,,,,,,,,,,,,,,,,,,,,,,,,,,,,,,,,,,,,,,,,,,,,,,,,,,139,galleda,Catalan,Sounds/cat_galleda.mp3,2020-06-05_16h23.55.322,TranslationElicitation_eng-prolific,3.2.4,Win32,60,5e7b804f9379140478c688da,,1,0,81,33,1,80
,,,,,,,,,,,,,,,,,,,,,,,,,,,,,,,,,,,,,,,,,e,8.280999899,E,FALSE,,,,,,,115,bolet,Catalan,Sounds/cat_bolet.mp3,2020-06-05_16h23.55.322,TranslationElicitation_eng-prolific,3.2.4,Win32,60,5e7b804f9379140478c688da,,1,0,81,10,1,80
,,,,,,,,,,,,,,,,,,,,,,,,,,,,,,,,,,,,,,,,,n,8.381000042,EN,FALSE,,,,,,,115,bolet,Catalan,Sounds/cat_bolet.mp3,2020-06-05_16h23.55.322,TranslationElicitation_eng-prolific,3.2.4,Win32,60,5e7b804f9379140478c688da,,1,0,81,10,1,80
,,,,,,,,,,,,,,,,,,,,,,,,,,,,,,,,,,,,,,,,,j,8.646999836,ENJ,FALSE,,,,,,,115,bolet,Catalan,Sounds/cat_bolet.mp3,2020-06-05_16h23.55.322,TranslationElicitation_eng-prolific,3.2.4,Win32,60,5e7b804f9379140478c688da,,1,0,81,10,1,80
,,,,,,,,,,,,,,,,,,,,,,,,,,,,,,,,,,,,,,,,,i,8.796999931,ENJI,FALSE,,,,,,,115,bolet,Catalan,Sounds/cat_bolet.mp3,2020-06-05_16h23.55.322,TranslationElicitation_eng-prolific,3.2.4,Win32,60,5e7b804f9379140478c688da,,1,0,81,10,1,80
,,,,,,,,,,,,,,,,,,,,,,,,,,,,,,,,,,,,,,,,,backspace,9.330999851,ENJ,TRUE,,,,,,,115,bolet,Catalan,Sounds/cat_bolet.mp3,2020-06-05_16h23.55.322,TranslationElicitation_eng-prolific,3.2.4,Win32,60,5e7b804f9379140478c688da,,1,0,81,10,1,80
,,,,,,,,,,,,,,,,,,,,,,,,,,,,,,,,,,,,,,,,,o,9.881000042,ENJO,TRUE,,,,,,,115,bolet,Catalan,Sounds/cat_bolet.mp3,2020-06-05_16h23.55.322,TranslationElicitation_eng-prolific,3.2.4,Win32,60,5e7b804f9379140478c688da,,1,0,81,10,1,80
,,,,,,,,,,,,,,,,,,,,,,,,,,,,,,,,,,,,,,,,,y,10.04999995,ENJOY,TRUE,,,,,,,115,bolet,Catalan,Sounds/cat_bolet.mp3,2020-06-05_16h23.55.322,TranslationElicitation_eng-prolific,3.2.4,Win32,60,5e7b804f9379140478c688da,,1,0,81,10,1,80
,,,,,,,,,,,,,,,,,,,,,,,,,,,,,,,,,,,,,,,,,return,10.72799993,ENJOY,TRUE,,,,,,,115,bolet,Catalan,Sounds/cat_bolet.mp3,2020-06-05_16h23.55.322,TranslationElicitation_eng-prolific,3.2.4,Win32,60,5e7b804f9379140478c688da,10.72799993,1,0,81,10,1,80
,,,,,,,,,,,,,,,,,,,,,,,,,,,,,,,,,,,,,,,,,,,,,,,,,,,115,bolet,Catalan,Sounds/cat_bolet.mp3,2020-06-05_16h23.55.322,TranslationElicitation_eng-prolific,3.2.4,Win32,60,5e7b804f9379140478c688da,,1,0,81,10,1,80
,,,,,,,,,,,,,,,,,,,,,,,,,,,,,,,,,,,,,,,,,w,2.398999929,W,FALSE,,,,,,,122,casa,Catalan,Sounds/cat_casa.mp3,2020-06-05_16h23.55.322,TranslationElicitation_eng-prolific,3.2.4,Win32,60,5e7b804f9379140478c688da,,1,0,81,17,1,80
,,,,,,,,,,,,,,,,,,,,,,,,,,,,,,,,,,,,,,,,,h,2.880999804,WH,FALSE,,,,,,,122,casa,Catalan,Sounds/cat_casa.mp3,2020-06-05_16h23.55.322,TranslationElicitation_eng-prolific,3.2.4,Win32,60,5e7b804f9379140478c688da,,1,0,81,17,1,80
,,,,,,,,,,,,,,,,,,,,,,,,,,,,,,,,,,,,,,,,,a,3.412999868,WHA,FALSE,,,,,,,122,casa,Catalan,Sounds/cat_casa.mp3,2020-06-05_16h23.55.322,TranslationElicitation_eng-prolific,3.2.4,Win32,60,5e7b804f9379140478c688da,,1,0,81,17,1,80
,,,,,,,,,,,,,,,,,,,,,,,,,,,,,,,,,,,,,,,,,t,3.812999964,WHAT,FALSE,,,,,,,122,casa,Catalan,Sounds/cat_casa.mp3,2020-06-05_16h23.55.322,TranslationElicitation_eng-prolific,3.2.4,Win32,60,5e7b804f9379140478c688da,,1,0,81,17,1,80
,,,,,,,,,,,,,,,,,,,,,,,,,,,,,,,,,,,,,,,,,return,6.695999861,WHAT,FALSE,,,,,,,122,casa,Catalan,Sounds/cat_casa.mp3,2020-06-05_16h23.55.322,TranslationElicitation_eng-prolific,3.2.4,Win32,60,5e7b804f9379140478c688da,6.695999861,1,0,81,17,1,80
,,,,,,,,,,,,,,,,,,,,,,,,,,,,,,,,,,,,,,,,,,,,,,,,,,,122,casa,Catalan,Sounds/cat_casa.mp3,2020-06-05_16h23.55.322,TranslationElicitation_eng-prolific,3.2.4,Win32,60,5e7b804f9379140478c688da,,1,0,81,17,1,80
,,,,,,,,,,,,,,,,,,,,,,,,,,,,,,,,,,,,,,,,,b,2.68200016,B,FALSE,,,,,,,118,bou,Catalan,Sounds/cat_bou.mp3,2020-06-05_16h23.55.322,TranslationElicitation_eng-prolific,3.2.4,Win32,60,5e7b804f9379140478c688da,,1,0,81,13,1,80
,,,,,,,,,,,,,,,,,,,,,,,,,,,,,,,,,,,,,,,,,a,3.149000168,BA,FALSE,,,,,,,118,bou,Catalan,Sounds/cat_bou.mp3,2020-06-05_16h23.55.322,TranslationElicitation_eng-prolific,3.2.4,Win32,60,5e7b804f9379140478c688da,,1,0,81,13,1,80
,,,,,,,,,,,,,,,,,,,,,,,,,,,,,,,,,,,,,,,,,l,3.799000025,BAL,FALSE,,,,,,,118,bou,Catalan,Sounds/cat_bou.mp3,2020-06-05_16h23.55.322,TranslationElicitation_eng-prolific,3.2.4,Win32,60,5e7b804f9379140478c688da,,1,0,81,13,1,80
,,,,,,,,,,,,,,,,,,,,,,,,,,,,,,,,,,,,,,,,,l,4.298000097,BALL,FALSE,,,,,,,118,bou,Catalan,Sounds/cat_bou.mp3,2020-06-05_16h23.55.322,TranslationElicitation_eng-prolific,3.2.4,Win32,60,5e7b804f9379140478c688da,,1,0,81,13,1,80
,,,,,,,,,,,,,,,,,,,,,,,,,,,,,,,,,,,,,,,,,return,4.847000122,BALL,FALSE,,,,,,,118,bou,Catalan,Sounds/cat_bou.mp3,2020-06-05_16h23.55.322,TranslationElicitation_eng-prolific,3.2.4,Win32,60,5e7b804f9379140478c688da,4.847000122,1,0,81,13,1,80
,,,,,,,,,,,,,,,,,,,,,,,,,,,,,,,,,,,,,,,,,,,,,,,,,,,118,bou,Catalan,Sounds/cat_bou.mp3,2020-06-05_16h23.55.322,TranslationElicitation_eng-prolific,3.2.4,Win32,60,5e7b804f9379140478c688da,,1,0,81,13,1,80
,,,,,,,,,,,,,,,,,,,,,,,,,,,,,,,,,,,,,,,,,h,3.600000143,H,FALSE,,,,,,,104,abella,Catalan,Sounds/cat_abella.mp3,2020-06-05_16h23.55.322,TranslationElicitation_eng-prolific,3.2.4,Win32,60,5e7b804f9379140478c688da,,1,0,81,0,1,80
,,,,,,,,,,,,,,,,,,,,,,,,,,,,,,,,,,,,,,,,,o,3.815999985,HO,FALSE,,,,,,,104,abella,Catalan,Sounds/cat_abella.mp3,2020-06-05_16h23.55.322,TranslationElicitation_eng-prolific,3.2.4,Win32,60,5e7b804f9379140478c688da,,1,0,81,0,1,80
,,,,,,,,,,,,,,,,,,,,,,,,,,,,,,,,,,,,,,,,,w,3.952000141,HOW,FALSE,,,,,,,104,abella,Catalan,Sounds/cat_abella.mp3,2020-06-05_16h23.55.322,TranslationElicitation_eng-prolific,3.2.4,Win32,60,5e7b804f9379140478c688da,,1,0,81,0,1,80
,,,,,,,,,,,,,,,,,,,,,,,,,,,,,,,,,,,,,,,,,space,4.100000143,HOW ,FALSE,,,,,,,104,abella,Catalan,Sounds/cat_abella.mp3,2020-06-05_16h23.55.322,TranslationElicitation_eng-prolific,3.2.4,Win32,60,5e7b804f9379140478c688da,,1,0,81,0,1,80
,,,,,,,,,,,,,,,,,,,,,,,,,,,,,,,,,,,,,,,,,a,4.200000048,HOW A,FALSE,,,,,,,104,abella,Catalan,Sounds/cat_abella.mp3,2020-06-05_16h23.55.322,TranslationElicitation_eng-prolific,3.2.4,Win32,60,5e7b804f9379140478c688da,,1,0,81,0,1,80
,,,,,,,,,,,,,,,,,,,,,,,,,,,,,,,,,,,,,,,,,r,4.46600008,HOW AR,FALSE,,,,,,,104,abella,Catalan,Sounds/cat_abella.mp3,2020-06-05_16h23.55.322,TranslationElicitation_eng-prolific,3.2.4,Win32,60,5e7b804f9379140478c688da,,1,0,81,0,1,80
,,,,,,,,,,,,,,,,,,,,,,,,,,,,,,,,,,,,,,,,,e,4.649000168,HOW ARE,FALSE,,,,,,,104,abella,Catalan,Sounds/cat_abella.mp3,2020-06-05_16h23.55.322,TranslationElicitation_eng-prolific,3.2.4,Win32,60,5e7b804f9379140478c688da,,1,0,81,0,1,80
,,,,,,,,,,,,,,,,,,,,,,,,,,,,,,,,,,,,,,,,,space,4.733999968,HOW ARE ,FALSE,,,,,,,104,abella,Catalan,Sounds/cat_abella.mp3,2020-06-05_16h23.55.322,TranslationElicitation_eng-prolific,3.2.4,Win32,60,5e7b804f9379140478c688da,,1,0,81,0,1,80
,,,,,,,,,,,,,,,,,,,,,,,,,,,,,,,,,,,,,,,,,y,4.96600008,HOW ARE Y,FALSE,,,,,,,104,abella,Catalan,Sounds/cat_abella.mp3,2020-06-05_16h23.55.322,TranslationElicitation_eng-prolific,3.2.4,Win32,60,5e7b804f9379140478c688da,,1,0,81,0,1,80
,,,,,,,,,,,,,,,,,,,,,,,,,,,,,,,,,,,,,,,,,o,4.999000072,HOW ARE YO,FALSE,,,,,,,104,abella,Catalan,Sounds/cat_abella.mp3,2020-06-05_16h23.55.322,TranslationElicitation_eng-prolific,3.2.4,Win32,60,5e7b804f9379140478c688da,,1,0,81,0,1,80
,,,,,,,,,,,,,,,,,,,,,,,,,,,,,,,,,,,,,,,,,u,5.166000128,HOW ARE YOU,FALSE,,,,,,,104,abella,Catalan,Sounds/cat_abella.mp3,2020-06-05_16h23.55.322,TranslationElicitation_eng-prolific,3.2.4,Win32,60,5e7b804f9379140478c688da,,1,0,81,0,1,80
,,,,,,,,,,,,,,,,,,,,,,,,,,,,,,,,,,,,,,,,,return,5.884000063,HOW ARE YOU,FALSE,,,,,,,104,abella,Catalan,Sounds/cat_abella.mp3,2020-06-05_16h23.55.322,TranslationElicitation_eng-prolific,3.2.4,Win32,60,5e7b804f9379140478c688da,5.884000063,1,0,81,0,1,80
,,,,,,,,,,,,,,,,,,,,,,,,,,,,,,,,,,,,,,,,,,,,,,,,,,,104,abella,Catalan,Sounds/cat_abella.mp3,2020-06-05_16h23.55.322,TranslationElicitation_eng-prolific,3.2.4,Win32,60,5e7b804f9379140478c688da,,1,0,81,0,1,80
,,,,,,,,,,,,,,,,,,,,,,,,,,,,,,,,,,,,,,,,,z,2.680999994,Z,FALSE,,,,,,,189,zebra,Catalan,Sounds/cat_zebra.mp3,2020-06-05_16h23.55.322,TranslationElicitation_eng-prolific,3.2.4,Win32,60,5e7b804f9379140478c688da,,1,0,81,80,1,80
,,,,,,,,,,,,,,,,,,,,,,,,,,,,,,,,,,,,,,,,,e,2.964999914,ZE,FALSE,,,,,,,189,zebra,Catalan,Sounds/cat_zebra.mp3,2020-06-05_16h23.55.322,TranslationElicitation_eng-prolific,3.2.4,Win32,60,5e7b804f9379140478c688da,,1,0,81,80,1,80
,,,,,,,,,,,,,,,,,,,,,,,,,,,,,,,,,,,,,,,,,b,3.298000097,ZEB,FALSE,,,,,,,189,zebra,Catalan,Sounds/cat_zebra.mp3,2020-06-05_16h23.55.322,TranslationElicitation_eng-prolific,3.2.4,Win32,60,5e7b804f9379140478c688da,,1,0,81,80,1,80
,,,,,,,,,,,,,,,,,,,,,,,,,,,,,,,,,,,,,,,,,r,3.417000055,ZEBR,FALSE,,,,,,,189,zebra,Catalan,Sounds/cat_zebra.mp3,2020-06-05_16h23.55.322,TranslationElicitation_eng-prolific,3.2.4,Win32,60,5e7b804f9379140478c688da,,1,0,81,80,1,80
,,,,,,,,,,,,,,,,,,,,,,,,,,,,,,,,,,,,,,,,,a,3.683000088,ZEBRA,FALSE,,,,,,,189,zebra,Catalan,Sounds/cat_zebra.mp3,2020-06-05_16h23.55.322,TranslationElicitation_eng-prolific,3.2.4,Win32,60,5e7b804f9379140478c688da,,1,0,81,80,1,80
,,,,,,,,,,,,,,,,,,,,,,,,,,,,,,,,,,,,,,,,,return,3.997999907,ZEBRA,FALSE,,,,,,,189,zebra,Catalan,Sounds/cat_zebra.mp3,2020-06-05_16h23.55.322,TranslationElicitation_eng-prolific,3.2.4,Win32,60,5e7b804f9379140478c688da,3.997999907,1,0,81,80,1,80
,,,,,,,,,,,,,,,,,,,,,,,,,,,,,,,,,,,,,,,,,,,,,,,,,,,189,zebra,Catalan,Sounds/cat_zebra.mp3,2020-06-05_16h23.55.322,TranslationElicitation_eng-prolific,3.2.4,Win32,60,5e7b804f9379140478c688da,,1,0,81,80,1,80
,,,,,,,,,,,,,,,,,,,,,,,,,,,,,,,,,,,,,,,,,p,3.935000181,P,FALSE,,,,,,,162,pa,Catalan,Sounds/cat_pa.mp3,2020-06-05_16h23.55.322,TranslationElicitation_eng-prolific,3.2.4,Win32,60,5e7b804f9379140478c688da,,1,0,81,54,1,80
,,,,,,,,,,,,,,,,,,,,,,,,,,,,,,,,,,,,,,,,,a,4.139000177,PA,FALSE,,,,,,,162,pa,Catalan,Sounds/cat_pa.mp3,2020-06-05_16h23.55.322,TranslationElicitation_eng-prolific,3.2.4,Win32,60,5e7b804f9379140478c688da,,1,0,81,54,1,80
,,,,,,,,,,,,,,,,,,,,,,,,,,,,,,,,,,,,,,,,,h,5.132000208,PAH,FALSE,,,,,,,162,pa,Catalan,Sounds/cat_pa.mp3,2020-06-05_16h23.55.322,TranslationElicitation_eng-prolific,3.2.4,Win32,60,5e7b804f9379140478c688da,,1,0,81,54,1,80
,,,,,,,,,,,,,,,,,,,,,,,,,,,,,,,,,,,,,,,,,return,5.749000072,PAH,FALSE,,,,,,,162,pa,Catalan,Sounds/cat_pa.mp3,2020-06-05_16h23.55.322,TranslationElicitation_eng-prolific,3.2.4,Win32,60,5e7b804f9379140478c688da,5.749000072,1,0,81,54,1,80
,,,,,,,,,,,,,,,,,,,,,,,,,,,,,,,,,,,,,,,,,,,,,,,,,,,162,pa,Catalan,Sounds/cat_pa.mp3,2020-06-05_16h23.55.322,TranslationElicitation_eng-prolific,3.2.4,Win32,60,5e7b804f9379140478c688da,,1,0,81,54,1,80
,,,,,,,,,,,,,,,,,,,,,,,,,,,,,,,,,,,,,,,,,w,2.566999912,W,FALSE,,,,,,,105,aigua,Catalan,Sounds/cat_aigua.mp3,2020-06-05_16h23.55.322,TranslationElicitation_eng-prolific,3.2.4,Win32,60,5e7b804f9379140478c688da,,1,0,81,1,1,80
,,,,,,,,,,,,,,,,,,,,,,,,,,,,,,,,,,,,,,,,,a,2.866999865,WA,FALSE,,,,,,,105,aigua,Catalan,Sounds/cat_aigua.mp3,2020-06-05_16h23.55.322,TranslationElicitation_eng-prolific,3.2.4,Win32,60,5e7b804f9379140478c688da,,1,0,81,1,1,80
,,,,,,,,,,,,,,,,,,,,,,,,,,,,,,,,,,,,,,,,,t,3.036000013,WAT,FALSE,,,,,,,105,aigua,Catalan,Sounds/cat_aigua.mp3,2020-06-05_16h23.55.322,TranslationElicitation_eng-prolific,3.2.4,Win32,60,5e7b804f9379140478c688da,,1,0,81,1,1,80
,,,,,,,,,,,,,,,,,,,,,,,,,,,,,,,,,,,,,,,,,e,3.184999943,WATE,FALSE,,,,,,,105,aigua,Catalan,Sounds/cat_aigua.mp3,2020-06-05_16h23.55.322,TranslationElicitation_eng-prolific,3.2.4,Win32,60,5e7b804f9379140478c688da,,1,0,81,1,1,80
,,,,,,,,,,,,,,,,,,,,,,,,,,,,,,,,,,,,,,,,,r,3.417000055,WATER,FALSE,,,,,,,105,aigua,Catalan,Sounds/cat_aigua.mp3,2020-06-05_16h23.55.322,TranslationElicitation_eng-prolific,3.2.4,Win32,60,5e7b804f9379140478c688da,,1,0,81,1,1,80
,,,,,,,,,,,,,,,,,,,,,,,,,,,,,,,,,,,,,,,,,return,3.734999895,WATER,FALSE,,,,,,,105,aigua,Catalan,Sounds/cat_aigua.mp3,2020-06-05_16h23.55.322,TranslationElicitation_eng-prolific,3.2.4,Win32,60,5e7b804f9379140478c688da,3.734999895,1,0,81,1,1,80
,,,,,,,,,,,,,,,,,,,,,,,,,,,,,,,,,,,,,,,,,,,,,,,,,,,105,aigua,Catalan,Sounds/cat_aigua.mp3,2020-06-05_16h23.55.322,TranslationElicitation_eng-prolific,3.2.4,Win32,60,5e7b804f9379140478c688da,,1,0,81,1,1,80
,,,,,,,,,,,,,,,,,,,,,,,,,,,,,,,,,,,,,,,,,p,5.748000145,P,FALSE,,,,,,,165,pernil,Catalan,Sounds/cat_pernil.mp3,2020-06-05_16h23.55.322,TranslationElicitation_eng-prolific,3.2.4,Win32,60,5e7b804f9379140478c688da,,1,0,81,57,1,80
,,,,,,,,,,,,,,,,,,,,,,,,,,,,,,,,,,,,,,,,,a,5.865999937,PA,FALSE,,,,,,,165,pernil,Catalan,Sounds/cat_pernil.mp3,2020-06-05_16h23.55.322,TranslationElicitation_eng-prolific,3.2.4,Win32,60,5e7b804f9379140478c688da,,1,0,81,57,1,80
,,,,,,,,,,,,,,,,,,,,,,,,,,,,,,,,,,,,,,,,,n,6.09800005,PAN,FALSE,,,,,,,165,pernil,Catalan,Sounds/cat_pernil.mp3,2020-06-05_16h23.55.322,TranslationElicitation_eng-prolific,3.2.4,Win32,60,5e7b804f9379140478c688da,,1,0,81,57,1,80
,,,,,,,,,,,,,,,,,,,,,,,,,,,,,,,,,,,,,,,,,i,6.763999939,PANI,FALSE,,,,,,,165,pernil,Catalan,Sounds/cat_pernil.mp3,2020-06-05_16h23.55.322,TranslationElicitation_eng-prolific,3.2.4,Win32,60,5e7b804f9379140478c688da,,1,0,81,57,1,80
,,,,,,,,,,,,,,,,,,,,,,,,,,,,,,,,,,,,,,,,,n,6.914000034,PANIN,FALSE,,,,,,,165,pernil,Catalan,Sounds/cat_pernil.mp3,2020-06-05_16h23.55.322,TranslationElicitation_eng-prolific,3.2.4,Win32,60,5e7b804f9379140478c688da,,1,0,81,57,1,80
,,,,,,,,,,,,,,,,,,,,,,,,,,,,,,,,,,,,,,,,,i,9.062999964,PANINI,FALSE,,,,,,,165,pernil,Catalan,Sounds/cat_pernil.mp3,2020-06-05_16h23.55.322,TranslationElicitation_eng-prolific,3.2.4,Win32,60,5e7b804f9379140478c688da,,1,0,81,57,1,80
,,,,,,,,,,,,,,,,,,,,,,,,,,,,,,,,,,,,,,,,,return,9.779999971,PANINI,FALSE,,,,,,,165,pernil,Catalan,Sounds/cat_pernil.mp3,2020-06-05_16h23.55.322,TranslationElicitation_eng-prolific,3.2.4,Win32,60,5e7b804f9379140478c688da,9.779999971,1,0,81,57,1,80
,,,,,,,,,,,,,,,,,,,,,,,,,,,,,,,,,,,,,,,,,,,,,,,,,,,165,pernil,Catalan,Sounds/cat_pernil.mp3,2020-06-05_16h23.55.322,TranslationElicitation_eng-prolific,3.2.4,Win32,60,5e7b804f9379140478c688da,,1,0,81,57,1,80
,,,,,,,,,,,,,,,,,,,,,,,,,,,,,,,,,,,,,,,,,b,3.333999872,B,FALSE,,,,,,,171,pollastre,Catalan,Sounds/cat_pollastre.mp3,2020-06-05_16h23.55.322,TranslationElicitation_eng-prolific,3.2.4,Win32,60,5e7b804f9379140478c688da,,1,0,81,63,1,80
,,,,,,,,,,,,,,,,,,,,,,,,,,,,,,,,,,,,,,,,,r,3.450999975,BR,FALSE,,,,,,,171,pollastre,Catalan,Sounds/cat_pollastre.mp3,2020-06-05_16h23.55.322,TranslationElicitation_eng-prolific,3.2.4,Win32,60,5e7b804f9379140478c688da,,1,0,81,63,1,80
,,,,,,,,,,,,,,,,,,,,,,,,,,,,,,,,,,,,,,,,,e,4.200999975,BRE,FALSE,,,,,,,171,pollastre,Catalan,Sounds/cat_pollastre.mp3,2020-06-05_16h23.55.322,TranslationElicitation_eng-prolific,3.2.4,Win32,60,5e7b804f9379140478c688da,,1,0,81,63,1,80
,,,,,,,,,,,,,,,,,,,,,,,,,,,,,,,,,,,,,,,,,a,4.699999809,BREA,FALSE,,,,,,,171,pollastre,Catalan,Sounds/cat_pollastre.mp3,2020-06-05_16h23.55.322,TranslationElicitation_eng-prolific,3.2.4,Win32,60,5e7b804f9379140478c688da,,1,0,81,63,1,80
,,,,,,,,,,,,,,,,,,,,,,,,,,,,,,,,,,,,,,,,,s,4.950999975,BREAS,FALSE,,,,,,,171,pollastre,Catalan,Sounds/cat_pollastre.mp3,2020-06-05_16h23.55.322,TranslationElicitation_eng-prolific,3.2.4,Win32,60,5e7b804f9379140478c688da,,1,0,81,63,1,80
,,,,,,,,,,,,,,,,,,,,,,,,,,,,,,,,,,,,,,,,,t,5.700999975,BREAST,FALSE,,,,,,,171,pollastre,Catalan,Sounds/cat_pollastre.mp3,2020-06-05_16h23.55.322,TranslationElicitation_eng-prolific,3.2.4,Win32,60,5e7b804f9379140478c688da,,1,0,81,63,1,80
,,,,,,,,,,,,,,,,,,,,,,,,,,,,,,,,,,,,,,,,,return,6.080999851,BREAST,FALSE,,,,,,,171,pollastre,Catalan,Sounds/cat_pollastre.mp3,2020-06-05_16h23.55.322,TranslationElicitation_eng-prolific,3.2.4,Win32,60,5e7b804f9379140478c688da,6.080999851,1,0,81,63,1,80
,,,,,,,,,,,,,,,,,,,,,,,,,,,,,,,,,,,,,,,,,,,,,,,,,,,171,pollastre,Catalan,Sounds/cat_pollastre.mp3,2020-06-05_16h23.55.322,TranslationElicitation_eng-prolific,3.2.4,Win32,60,5e7b804f9379140478c688da,,1,0,81,63,1,80
,,,,,,,,,,,,,,,,,,,,,,,,,,,,,,,,,,,,,,,,,s,3.148999929,S,FALSE,,,,,,,133,estruc,Catalan,Sounds/cat_estruc.mp3,2020-06-05_16h23.55.322,TranslationElicitation_eng-prolific,3.2.4,Win32,60,5e7b804f9379140478c688da,,1,0,81,27,1,80
,,,,,,,,,,,,,,,,,,,,,,,,,,,,,,,,,,,,,,,,,t,3.631999969,ST,FALSE,,,,,,,133,estruc,Catalan,Sounds/cat_estruc.mp3,2020-06-05_16h23.55.322,TranslationElicitation_eng-prolific,3.2.4,Win32,60,5e7b804f9379140478c688da,,1,0,81,27,1,80
,,,,,,,,,,,,,,,,,,,,,,,,,,,,,,,,,,,,,,,,,r,3.848999977,STR,FALSE,,,,,,,133,estruc,Catalan,Sounds/cat_estruc.mp3,2020-06-05_16h23.55.322,TranslationElicitation_eng-prolific,3.2.4,Win32,60,5e7b804f9379140478c688da,,1,0,81,27,1,80
,,,,,,,,,,,,,,,,,,,,,,,,,,,,,,,,,,,,,,,,,a,4.414000034,STRA,FALSE,,,,,,,133,estruc,Catalan,Sounds/cat_estruc.mp3,2020-06-05_16h23.55.322,TranslationElicitation_eng-prolific,3.2.4,Win32,60,5e7b804f9379140478c688da,,1,0,81,27,1,80
,,,,,,,,,,,,,,,,,,,,,,,,,,,,,,,,,,,,,,,,,w,4.614000082,STRAW,FALSE,,,,,,,133,estruc,Catalan,Sounds/cat_estruc.mp3,2020-06-05_16h23.55.322,TranslationElicitation_eng-prolific,3.2.4,Win32,60,5e7b804f9379140478c688da,,1,0,81,27,1,80
,,,,,,,,,,,,,,,,,,,,,,,,,,,,,,,,,,,,,,,,,return,6.096999884,STRAW,FALSE,,,,,,,133,estruc,Catalan,Sounds/cat_estruc.mp3,2020-06-05_16h23.55.322,TranslationElicitation_eng-prolific,3.2.4,Win32,60,5e7b804f9379140478c688da,6.096999884,1,0,81,27,1,80
,,,,,,,,,,,,,,,,,,,,,,,,,,,,,,,,,,,,,,,,,,,,,,,,,,,133,estruc,Catalan,Sounds/cat_estruc.mp3,2020-06-05_16h23.55.322,TranslationElicitation_eng-prolific,3.2.4,Win32,60,5e7b804f9379140478c688da,,1,0,81,27,1,80
,,,,,,,,,,,,,,,,,,,,,,,,,,,,,,,,,,,,,,,,,j,2.963999987,J,FALSE,,,,,,,141,gerd,Catalan,Sounds/cat_gerd.mp3,2020-06-05_16h23.55.322,TranslationElicitation_eng-prolific,3.2.4,Win32,60,5e7b804f9379140478c688da,,1,0,81,35,1,80
,,,,,,,,,,,,,,,,,,,,,,,,,,,,,,,,,,,,,,,,,a,3.09800005,JA,FALSE,,,,,,,141,gerd,Catalan,Sounds/cat_gerd.mp3,2020-06-05_16h23.55.322,TranslationElicitation_eng-prolific,3.2.4,Win32,60,5e7b804f9379140478c688da,,1,0,81,35,1,80
,,,,,,,,,,,,,,,,,,,,,,,,,,,,,,,,,,,,,,,,,m,3.180999994,JAM,FALSE,,,,,,,141,gerd,Catalan,Sounds/cat_gerd.mp3,2020-06-05_16h23.55.322,TranslationElicitation_eng-prolific,3.2.4,Win32,60,5e7b804f9379140478c688da,,1,0,81,35,1,80
,,,,,,,,,,,,,,,,,,,,,,,,,,,,,,,,,,,,,,,,,return,3.730999947,JAM,FALSE,,,,,,,141,gerd,Catalan,Sounds/cat_gerd.mp3,2020-06-05_16h23.55.322,TranslationElicitation_eng-prolific,3.2.4,Win32,60,5e7b804f9379140478c688da,3.730999947,1,0,81,35,1,80
,,,,,,,,,,,,,,,,,,,,,,,,,,,,,,,,,,,,,,,,,,,,,,,,,,,141,gerd,Catalan,Sounds/cat_gerd.mp3,2020-06-05_16h23.55.322,TranslationElicitation_eng-prolific,3.2.4,Win32,60,5e7b804f9379140478c688da,,1,0,81,35,1,80
,,,,,,,,,,,,,,,,,,,,,,,,,,,,,,,,,,,,,,,,,m,2.332999945,M,FALSE,,,,,,,152,ma,Catalan,Sounds/cat_ma.mp3,2020-06-05_16h23.55.322,TranslationElicitation_eng-prolific,3.2.4,Win32,60,5e7b804f9379140478c688da,,1,0,81,45,1,80
,,,,,,,,,,,,,,,,,,,,,,,,,,,,,,,,,,,,,,,,,a,2.865999937,MA,FALSE,,,,,,,152,ma,Catalan,Sounds/cat_ma.mp3,2020-06-05_16h23.55.322,TranslationElicitation_eng-prolific,3.2.4,Win32,60,5e7b804f9379140478c688da,,1,0,81,45,1,80
,,,,,,,,,,,,,,,,,,,,,,,,,,,,,,,,,,,,,,,,,return,3.835999966,MA,FALSE,,,,,,,152,ma,Catalan,Sounds/cat_ma.mp3,2020-06-05_16h23.55.322,TranslationElicitation_eng-prolific,3.2.4,Win32,60,5e7b804f9379140478c688da,3.835999966,1,0,81,45,1,80
,,,,,,,,,,,,,,,,,,,,,,,,,,,,,,,,,,,,,,,,,,,,,,,,,,,152,ma,Catalan,Sounds/cat_ma.mp3,2020-06-05_16h23.55.322,TranslationElicitation_eng-prolific,3.2.4,Win32,60,5e7b804f9379140478c688da,,1,0,81,45,1,80
,,,,,,,,,,,,,,,,,,,,,,,,,,,,,,,,,,,,,,,,,n,2.164999962,N,FALSE,,,,,,,112,bici,Catalan,Sounds/cat_bici.mp3,2020-06-05_16h23.55.322,TranslationElicitation_eng-prolific,3.2.4,Win32,60,5e7b804f9379140478c688da,,1,0,81,7,1,80
,,,,,,,,,,,,,,,,,,,,,,,,,,,,,,,,,,,,,,,,,u,2.230999947,NU,FALSE,,,,,,,112,bici,Catalan,Sounds/cat_bici.mp3,2020-06-05_16h23.55.322,TranslationElicitation_eng-prolific,3.2.4,Win32,60,5e7b804f9379140478c688da,,1,0,81,7,1,80
,,,,,,,,,,,,,,,,,,,,,,,,,,,,,,,,,,,,,,,,,s,2.547999859,NUS,FALSE,,,,,,,112,bici,Catalan,Sounds/cat_bici.mp3,2020-06-05_16h23.55.322,TranslationElicitation_eng-prolific,3.2.4,Win32,60,5e7b804f9379140478c688da,,1,0,81,7,1,80
,,,,,,,,,,,,,,,,,,,,,,,,,,,,,,,,,,,,,,,,,y,2.714999914,NUSY,FALSE,,,,,,,112,bici,Catalan,Sounds/cat_bici.mp3,2020-06-05_16h23.55.322,TranslationElicitation_eng-prolific,3.2.4,Win32,60,5e7b804f9379140478c688da,,1,0,81,7,1,80
,,,,,,,,,,,,,,,,,,,,,,,,,,,,,,,,,,,,,,,,,backspace,3.36500001,NUS,TRUE,,,,,,,112,bici,Catalan,Sounds/cat_bici.mp3,2020-06-05_16h23.55.322,TranslationElicitation_eng-prolific,3.2.4,Win32,60,5e7b804f9379140478c688da,,1,0,81,7,1,80
,,,,,,,,,,,,,,,,,,,,,,,,,,,,,,,,,,,,,,,,,backspace,3.497999907,NU,TRUE,,,,,,,112,bici,Catalan,Sounds/cat_bici.mp3,2020-06-05_16h23.55.322,TranslationElicitation_eng-prolific,3.2.4,Win32,60,5e7b804f9379140478c688da,,1,0,81,7,1,80
,,,,,,,,,,,,,,,,,,,,,,,,,,,,,,,,,,,,,,,,,backspace,3.714999914,N,TRUE,,,,,,,112,bici,Catalan,Sounds/cat_bici.mp3,2020-06-05_16h23.55.322,TranslationElicitation_eng-prolific,3.2.4,Win32,60,5e7b804f9379140478c688da,,1,0,81,7,1,80
,,,,,,,,,,,,,,,,,,,,,,,,,,,,,,,,,,,,,,,,,backspace,3.865999937,,TRUE,,,,,,,112,bici,Catalan,Sounds/cat_bici.mp3,2020-06-05_16h23.55.322,TranslationElicitation_eng-prolific,3.2.4,Win32,60,5e7b804f9379140478c688da,,1,0,81,7,1,80
,,,,,,,,,,,,,,,,,,,,,,,,,,,,,,,,,,,,,,,,,backspace,3.965999842,,TRUE,,,,,,,112,bici,Catalan,Sounds/cat_bici.mp3,2020-06-05_16h23.55.322,TranslationElicitation_eng-prolific,3.2.4,Win32,60,5e7b804f9379140478c688da,,1,0,81,7,1,80
,,,,,,,,,,,,,,,,,,,,,,,,,,,,,,,,,,,,,,,,,b,4.697999954,B,TRUE,,,,,,,112,bici,Catalan,Sounds/cat_bici.mp3,2020-06-05_16h23.55.322,TranslationElicitation_eng-prolific,3.2.4,Win32,60,5e7b804f9379140478c688da,,1,0,81,7,1,80
,,,,,,,,,,,,,,,,,,,,,,,,,,,,,,,,,,,,,,,,,u,5.148000002,BU,TRUE,,,,,,,112,bici,Catalan,Sounds/cat_bici.mp3,2020-06-05_16h23.55.322,TranslationElicitation_eng-prolific,3.2.4,Win32,60,5e7b804f9379140478c688da,,1,0,81,7,1,80
,,,,,,,,,,,,,,,,,,,,,,,,,,,,,,,,,,,,,,,,,y,5.414000034,BUY,TRUE,,,,,,,112,bici,Catalan,Sounds/cat_bici.mp3,2020-06-05_16h23.55.322,TranslationElicitation_eng-prolific,3.2.4,Win32,60,5e7b804f9379140478c688da,,1,0,81,7,1,80
,,,,,,,,,,,,,,,,,,,,,,,,,,,,,,,,,,,,,,,,,backspace,6.230999947,BU,TRUE,,,,,,,112,bici,Catalan,Sounds/cat_bici.mp3,2020-06-05_16h23.55.322,TranslationElicitation_eng-prolific,3.2.4,Win32,60,5e7b804f9379140478c688da,,1,0,81,7,1,80
,,,,,,,,,,,,,,,,,,,,,,,,,,,,,,,,,,,,,,,,,s,6.430999994,BUS,TRUE,,,,,,,112,bici,Catalan,Sounds/cat_bici.mp3,2020-06-05_16h23.55.322,TranslationElicitation_eng-prolific,3.2.4,Win32,60,5e7b804f9379140478c688da,,1,0,81,7,1,80
,,,,,,,,,,,,,,,,,,,,,,,,,,,,,,,,,,,,,,,,,y,6.631000042,BUSY,TRUE,,,,,,,112,bici,Catalan,Sounds/cat_bici.mp3,2020-06-05_16h23.55.322,TranslationElicitation_eng-prolific,3.2.4,Win32,60,5e7b804f9379140478c688da,,1,0,81,7,1,80
,,,,,,,,,,,,,,,,,,,,,,,,,,,,,,,,,,,,,,,,,return,7.264999866,BUSY,TRUE,,,,,,,112,bici,Catalan,Sounds/cat_bici.mp3,2020-06-05_16h23.55.322,TranslationElicitation_eng-prolific,3.2.4,Win32,60,5e7b804f9379140478c688da,7.264999866,1,0,81,7,1,80
,,,,,,,,,,,,,,,,,,,,,,,,,,,,,,,,,,,,,,,,,,,,,,,,,,,112,bici,Catalan,Sounds/cat_bici.mp3,2020-06-05_16h23.55.322,TranslationElicitation_eng-prolific,3.2.4,Win32,60,5e7b804f9379140478c688da,,1,0,81,7,1,80
,,,,,,,,,,,,,,,,,,,,,,,,,,,,,,,,,,,,,,,,,a,2.09800005,A,FALSE,,,,,,,132,estrella,Catalan,Sounds/cat_estrella.mp3,2020-06-05_16h23.55.322,TranslationElicitation_eng-prolific,3.2.4,Win32,60,5e7b804f9379140478c688da,,1,0,81,26,1,80
,,,,,,,,,,,,,,,,,,,,,,,,,,,,,,,,,,,,,,,,,u,2.647000074,AU,FALSE,,,,,,,132,estrella,Catalan,Sounds/cat_estrella.mp3,2020-06-05_16h23.55.322,TranslationElicitation_eng-prolific,3.2.4,Win32,60,5e7b804f9379140478c688da,,1,0,81,26,1,80
,,,,,,,,,,,,,,,,,,,,,,,,,,,,,,,,,,,,,,,,,s,3.129999876,AUS,FALSE,,,,,,,132,estrella,Catalan,Sounds/cat_estrella.mp3,2020-06-05_16h23.55.322,TranslationElicitation_eng-prolific,3.2.4,Win32,60,5e7b804f9379140478c688da,,1,0,81,26,1,80
,,,,,,,,,,,,,,,,,,,,,,,,,,,,,,,,,,,,,,,,,t,3.496999979,AUST,FALSE,,,,,,,132,estrella,Catalan,Sounds/cat_estrella.mp3,2020-06-05_16h23.55.322,TranslationElicitation_eng-prolific,3.2.4,Win32,60,5e7b804f9379140478c688da,,1,0,81,26,1,80
,,,,,,,,,,,,,,,,,,,,,,,,,,,,,,,,,,,,,,,,,r,3.825999975,AUSTR,FALSE,,,,,,,132,estrella,Catalan,Sounds/cat_estrella.mp3,2020-06-05_16h23.55.322,TranslationElicitation_eng-prolific,3.2.4,Win32,60,5e7b804f9379140478c688da,,1,0,81,26,1,80
,,,,,,,,,,,,,,,,,,,,,,,,,,,,,,,,,,,,,,,,,a,4.589999914,AUSTRA,FALSE,,,,,,,132,estrella,Catalan,Sounds/cat_estrella.mp3,2020-06-05_16h23.55.322,TranslationElicitation_eng-prolific,3.2.4,Win32,60,5e7b804f9379140478c688da,,1,0,81,26,1,80
,,,,,,,,,,,,,,,,,,,,,,,,,,,,,,,,,,,,,,,,,i,5.162999868,AUSTRAI,FALSE,,,,,,,132,estrella,Catalan,Sounds/cat_estrella.mp3,2020-06-05_16h23.55.322,TranslationElicitation_eng-prolific,3.2.4,Win32,60,5e7b804f9379140478c688da,,1,0,81,26,1,80
,,,,,,,,,,,,,,,,,,,,,,,,,,,,,,,,,,,,,,,,,l,5.496000051,AUSTRAIL,FALSE,,,,,,,132,estrella,Catalan,Sounds/cat_estrella.mp3,2020-06-05_16h23.55.322,TranslationElicitation_eng-prolific,3.2.4,Win32,60,5e7b804f9379140478c688da,,1,0,81,26,1,80
,,,,,,,,,,,,,,,,,,,,,,,,,,,,,,,,,,,,,,,,,l,5.645999908,AUSTRAILL,FALSE,,,,,,,132,estrella,Catalan,Sounds/cat_estrella.mp3,2020-06-05_16h23.55.322,TranslationElicitation_eng-prolific,3.2.4,Win32,60,5e7b804f9379140478c688da,,1,0,81,26,1,80
,,,,,,,,,,,,,,,,,,,,,,,,,,,,,,,,,,,,,,,,,i,5.905999899,AUSTRAILLI,FALSE,,,,,,,132,estrella,Catalan,Sounds/cat_estrella.mp3,2020-06-05_16h23.55.322,TranslationElicitation_eng-prolific,3.2.4,Win32,60,5e7b804f9379140478c688da,,1,0,81,26,1,80
,,,,,,,,,,,,,,,,,,,,,,,,,,,,,,,,,,,,,,,,,backspace,7.26699996,AUSTRAILL,TRUE,,,,,,,132,estrella,Catalan,Sounds/cat_estrella.mp3,2020-06-05_16h23.55.322,TranslationElicitation_eng-prolific,3.2.4,Win32,60,5e7b804f9379140478c688da,,1,0,81,26,1,80
,,,,,,,,,,,,,,,,,,,,,,,,,,,,,,,,,,,,,,,,,backspace,7.479000092,AUSTRAIL,TRUE,,,,,,,132,estrella,Catalan,Sounds/cat_estrella.mp3,2020-06-05_16h23.55.322,TranslationElicitation_eng-prolific,3.2.4,Win32,60,5e7b804f9379140478c688da,,1,0,81,26,1,80
,,,,,,,,,,,,,,,,,,,,,,,,,,,,,,,,,,,,,,,,,i,8.128999949,AUSTRAILI,TRUE,,,,,,,132,estrella,Catalan,Sounds/cat_estrella.mp3,2020-06-05_16h23.55.322,TranslationElicitation_eng-prolific,3.2.4,Win32,60,5e7b804f9379140478c688da,,1,0,81,26,1,80
,,,,,,,,,,,,,,,,,,,,,,,,,,,,,,,,,,,,,,,,,a,8.730000019,AUSTRAILIA,TRUE,,,,,,,132,estrella,Catalan,Sounds/cat_estrella.mp3,2020-06-05_16h23.55.322,TranslationElicitation_eng-prolific,3.2.4,Win32,60,5e7b804f9379140478c688da,,1,0,81,26,1,80
,,,,,,,,,,,,,,,,,,,,,,,,,,,,,,,,,,,,,,,,,return,9.911000013,AUSTRAILIA,TRUE,,,,,,,132,estrella,Catalan,Sounds/cat_estrella.mp3,2020-06-05_16h23.55.322,TranslationElicitation_eng-prolific,3.2.4,Win32,60,5e7b804f9379140478c688da,9.911000013,1,0,81,26,1,80
,,,,,,,,,,,,,,,,,,,,,,,,,,,,,,,,,,,,,,,,,,,,,,,,,,,132,estrella,Catalan,Sounds/cat_estrella.mp3,2020-06-05_16h23.55.322,TranslationElicitation_eng-prolific,3.2.4,Win32,60,5e7b804f9379140478c688da,,1,0,81,26,1,80
,,,,,,,,,,,,,,,,,,,,,,,,,,,,,,,,,,,,,,,,,m,4.947000027,M,FALSE,,,,,,,154,mirall,Catalan,Sounds/cat_mirall.mp3,2020-06-05_16h23.55.322,TranslationElicitation_eng-prolific,3.2.4,Win32,60,5e7b804f9379140478c688da,,1,0,81,47,1,80
,,,,,,,,,,,,,,,,,,,,,,,,,,,,,,,,,,,,,,,,,i,5.013000011,MI,FALSE,,,,,,,154,mirall,Catalan,Sounds/cat_mirall.mp3,2020-06-05_16h23.55.322,TranslationElicitation_eng-prolific,3.2.4,Win32,60,5e7b804f9379140478c688da,,1,0,81,47,1,80
,,,,,,,,,,,,,,,,,,,,,,,,,,,,,,,,,,,,,,,,,l,5.230000019,MIL,FALSE,,,,,,,154,mirall,Catalan,Sounds/cat_mirall.mp3,2020-06-05_16h23.55.322,TranslationElicitation_eng-prolific,3.2.4,Win32,60,5e7b804f9379140478c688da,,1,0,81,47,1,80
,,,,,,,,,,,,,,,,,,,,,,,,,,,,,,,,,,,,,,,,,a,5.662999868,MILA,FALSE,,,,,,,154,mirall,Catalan,Sounds/cat_mirall.mp3,2020-06-05_16h23.55.322,TranslationElicitation_eng-prolific,3.2.4,Win32,60,5e7b804f9379140478c688da,,1,0,81,47,1,80
,,,,,,,,,,,,,,,,,,,,,,,,,,,,,,,,,,,,,,,,,n,5.84800005,MILAN,FALSE,,,,,,,154,mirall,Catalan,Sounds/cat_mirall.mp3,2020-06-05_16h23.55.322,TranslationElicitation_eng-prolific,3.2.4,Win32,60,5e7b804f9379140478c688da,,1,0,81,47,1,80
,,,,,,,,,,,,,,,,,,,,,,,,,,,,,,,,,,,,,,,,,backspace,6.513000011,MILA,TRUE,,,,,,,154,mirall,Catalan,Sounds/cat_mirall.mp3,2020-06-05_16h23.55.322,TranslationElicitation_eng-prolific,3.2.4,Win32,60,5e7b804f9379140478c688da,,1,0,81,47,1,80
,,,,,,,,,,,,,,,,,,,,,,,,,,,,,,,,,,,,,,,,,backspace,6.664999962,MIL,TRUE,,,,,,,154,mirall,Catalan,Sounds/cat_mirall.mp3,2020-06-05_16h23.55.322,TranslationElicitation_eng-prolific,3.2.4,Win32,60,5e7b804f9379140478c688da,,1,0,81,47,1,80
,,,,,,,,,,,,,,,,,,,,,,,,,,,,,,,,,,,,,,,,,backspace,6.80099988,MI,TRUE,,,,,,,154,mirall,Catalan,Sounds/cat_mirall.mp3,2020-06-05_16h23.55.322,TranslationElicitation_eng-prolific,3.2.4,Win32,60,5e7b804f9379140478c688da,,1,0,81,47,1,80
,,,,,,,,,,,,,,,,,,,,,,,,,,,,,,,,,,,,,,,,,backspace,6.960000038,M,TRUE,,,,,,,154,mirall,Catalan,Sounds/cat_mirall.mp3,2020-06-05_16h23.55.322,TranslationElicitation_eng-prolific,3.2.4,Win32,60,5e7b804f9379140478c688da,,1,0,81,47,1,80
,,,,,,,,,,,,,,,,,,,,,,,,,,,,,,,,,,,,,,,,,backspace,7.135999918,,TRUE,,,,,,,154,mirall,Catalan,Sounds/cat_mirall.mp3,2020-06-05_16h23.55.322,TranslationElicitation_eng-prolific,3.2.4,Win32,60,5e7b804f9379140478c688da,,1,0,81,47,1,80
,,,,,,,,,,,,,,,,,,,,,,,,,,,,,,,,,,,,,,,,,m,7.678999901,M,TRUE,,,,,,,154,mirall,Catalan,Sounds/cat_mirall.mp3,2020-06-05_16h23.55.322,TranslationElicitation_eng-prolific,3.2.4,Win32,60,5e7b804f9379140478c688da,,1,0,81,47,1,80
,,,,,,,,,,,,,,,,,,,,,,,,,,,,,,,,,,,,,,,,,e,7.828999996,ME,TRUE,,,,,,,154,mirall,Catalan,Sounds/cat_mirall.mp3,2020-06-05_16h23.55.322,TranslationElicitation_eng-prolific,3.2.4,Win32,60,5e7b804f9379140478c688da,,1,0,81,47,1,80
,,,,,,,,,,,,,,,,,,,,,,,,,,,,,,,,,,,,,,,,,r,8.129999876,MER,TRUE,,,,,,,154,mirall,Catalan,Sounds/cat_mirall.mp3,2020-06-05_16h23.55.322,TranslationElicitation_eng-prolific,3.2.4,Win32,60,5e7b804f9379140478c688da,,1,0,81,47,1,80
,,,,,,,,,,,,,,,,,,,,,,,,,,,,,,,,,,,,,,,,,r,8.296000004,MERR,TRUE,,,,,,,154,mirall,Catalan,Sounds/cat_mirall.mp3,2020-06-05_16h23.55.322,TranslationElicitation_eng-prolific,3.2.4,Win32,60,5e7b804f9379140478c688da,,1,0,81,47,1,80
,,,,,,,,,,,,,,,,,,,,,,,,,,,,,,,,,,,,,,,,,y,8.895999908,MERRY,TRUE,,,,,,,154,mirall,Catalan,Sounds/cat_mirall.mp3,2020-06-05_16h23.55.322,TranslationElicitation_eng-prolific,3.2.4,Win32,60,5e7b804f9379140478c688da,,1,0,81,47,1,80
,,,,,,,,,,,,,,,,,,,,,,,,,,,,,,,,,,,,,,,,,return,9.011999846,MERRY,TRUE,,,,,,,154,mirall,Catalan,Sounds/cat_mirall.mp3,2020-06-05_16h23.55.322,TranslationElicitation_eng-prolific,3.2.4,Win32,60,5e7b804f9379140478c688da,9.011999846,1,0,81,47,1,80
,,,,,,,,,,,,,,,,,,,,,,,,,,,,,,,,,,,,,,,,,,,,,,,,,,,154,mirall,Catalan,Sounds/cat_mirall.mp3,2020-06-05_16h23.55.322,TranslationElicitation_eng-prolific,3.2.4,Win32,60,5e7b804f9379140478c688da,,1,0,81,47,1,80
,,,,,,,,,,,,,,,,,,,,,,,,,,,,,,,,,,,,,,,,,f,2.36500001,F,FALSE,,,,,,,137,fulla,Catalan,Sounds/cat_fulla.mp3,2020-06-05_16h23.55.322,TranslationElicitation_eng-prolific,3.2.4,Win32,60,5e7b804f9379140478c688da,,1,0,81,31,1,80
,,,,,,,,,,,,,,,,,,,,,,,,,,,,,,,,,,,,,,,,,o,2.482000113,FO,FALSE,,,,,,,137,fulla,Catalan,Sounds/cat_fulla.mp3,2020-06-05_16h23.55.322,TranslationElicitation_eng-prolific,3.2.4,Win32,60,5e7b804f9379140478c688da,,1,0,81,31,1,80
,,,,,,,,,,,,,,,,,,,,,,,,,,,,,,,,,,,,,,,,,o,2.582000017,FOO,FALSE,,,,,,,137,fulla,Catalan,Sounds/cat_fulla.mp3,2020-06-05_16h23.55.322,TranslationElicitation_eng-prolific,3.2.4,Win32,60,5e7b804f9379140478c688da,,1,0,81,31,1,80
,,,,,,,,,,,,,,,,,,,,,,,,,,,,,,,,,,,,,,,,,l,2.714999914,FOOL,FALSE,,,,,,,137,fulla,Catalan,Sounds/cat_fulla.mp3,2020-06-05_16h23.55.322,TranslationElicitation_eng-prolific,3.2.4,Win32,60,5e7b804f9379140478c688da,,1,0,81,31,1,80
,,,,,,,,,,,,,,,,,,,,,,,,,,,,,,,,,,,,,,,,,return,3.447999954,FOOL,FALSE,,,,,,,137,fulla,Catalan,Sounds/cat_fulla.mp3,2020-06-05_16h23.55.322,TranslationElicitation_eng-prolific,3.2.4,Win32,60,5e7b804f9379140478c688da,3.447999954,1,0,81,31,1,80
,,,,,,,,,,,,,,,,,,,,,,,,,,,,,,,,,,,,,,,,,,,,,,,,,,,137,fulla,Catalan,Sounds/cat_fulla.mp3,2020-06-05_16h23.55.322,TranslationElicitation_eng-prolific,3.2.4,Win32,60,5e7b804f9379140478c688da,,1,0,81,31,1,80
,,,,,,,,,,,,,,,,,,,,,,,,,,,,,,,,,,,,,,,,,g,8.779999971,G,FALSE,,,,,,,117,boto,Catalan,Sounds/cat_boto.mp3,2020-06-05_16h23.55.322,TranslationElicitation_eng-prolific,3.2.4,Win32,60,5e7b804f9379140478c688da,,1,0,81,12,1,80
,,,,,,,,,,,,,,,,,,,,,,,,,,,,,,,,,,,,,,,,,o,8.879999876,GO,FALSE,,,,,,,117,boto,Catalan,Sounds/cat_boto.mp3,2020-06-05_16h23.55.322,TranslationElicitation_eng-prolific,3.2.4,Win32,60,5e7b804f9379140478c688da,,1,0,81,12,1,80
,,,,,,,,,,,,,,,,,,,,,,,,,,,,,,,,,,,,,,,,,o,8.996999979,GOO,FALSE,,,,,,,117,boto,Catalan,Sounds/cat_boto.mp3,2020-06-05_16h23.55.322,TranslationElicitation_eng-prolific,3.2.4,Win32,60,5e7b804f9379140478c688da,,1,0,81,12,1,80
,,,,,,,,,,,,,,,,,,,,,,,,,,,,,,,,,,,,,,,,,backspace,9.513000011,GO,TRUE,,,,,,,117,boto,Catalan,Sounds/cat_boto.mp3,2020-06-05_16h23.55.322,TranslationElicitation_eng-prolific,3.2.4,Win32,60,5e7b804f9379140478c688da,,1,0,81,12,1,80
,,,,,,,,,,,,,,,,,,,,,,,,,,,,,,,,,,,,,,,,,backspace,9.865999937,G,TRUE,,,,,,,117,boto,Catalan,Sounds/cat_boto.mp3,2020-06-05_16h23.55.322,TranslationElicitation_eng-prolific,3.2.4,Win32,60,5e7b804f9379140478c688da,,1,0,81,12,1,80
,,,,,,,,,,,,,,,,,,,,,,,,,,,,,,,,,,,,,,,,,backspace,10.02999997,,TRUE,,,,,,,117,boto,Catalan,Sounds/cat_boto.mp3,2020-06-05_16h23.55.322,TranslationElicitation_eng-prolific,3.2.4,Win32,60,5e7b804f9379140478c688da,,1,0,81,12,1,80
,,,,,,,,,,,,,,,,,,,,,,,,,,,,,,,,,,,,,,,,,backspace,10.18299985,,TRUE,,,,,,,117,boto,Catalan,Sounds/cat_boto.mp3,2020-06-05_16h23.55.322,TranslationElicitation_eng-prolific,3.2.4,Win32,60,5e7b804f9379140478c688da,,1,0,81,12,1,80
,,,,,,,,,,,,,,,,,,,,,,,,,,,,,,,,,,,,,,,,,l,11.64700007,L,TRUE,,,,,,,117,boto,Catalan,Sounds/cat_boto.mp3,2020-06-05_16h23.55.322,TranslationElicitation_eng-prolific,3.2.4,Win32,60,5e7b804f9379140478c688da,,1,0,81,12,1,80
,,,,,,,,,,,,,,,,,,,,,,,,,,,,,,,,,,,,,,,,,q,12.148,LQ,TRUE,,,,,,,117,boto,Catalan,Sounds/cat_boto.mp3,2020-06-05_16h23.55.322,TranslationElicitation_eng-prolific,3.2.4,Win32,60,5e7b804f9379140478c688da,,1,0,81,12,1,80
,,,,,,,,,,,,,,,,,,,,,,,,,,,,,,,,,,,,,,,,,u,12.33099985,LQU,TRUE,,,,,,,117,boto,Catalan,Sounds/cat_boto.mp3,2020-06-05_16h23.55.322,TranslationElicitation_eng-prolific,3.2.4,Win32,60,5e7b804f9379140478c688da,,1,0,81,12,1,80
,,,,,,,,,,,,,,,,,,,,,,,,,,,,,,,,,,,,,,,,,i,12.4289999,LQUI,TRUE,,,,,,,117,boto,Catalan,Sounds/cat_boto.mp3,2020-06-05_16h23.55.322,TranslationElicitation_eng-prolific,3.2.4,Win32,60,5e7b804f9379140478c688da,,1,0,81,12,1,80
,,,,,,,,,,,,,,,,,,,,,,,,,,,,,,,,,,,,,,,,,backspace,13.02900004,LQU,TRUE,,,,,,,117,boto,Catalan,Sounds/cat_boto.mp3,2020-06-05_16h23.55.322,TranslationElicitation_eng-prolific,3.2.4,Win32,60,5e7b804f9379140478c688da,,1,0,81,12,1,80
,,,,,,,,,,,,,,,,,,,,,,,,,,,,,,,,,,,,,,,,,backspace,13.16400003,LQ,TRUE,,,,,,,117,boto,Catalan,Sounds/cat_boto.mp3,2020-06-05_16h23.55.322,TranslationElicitation_eng-prolific,3.2.4,Win32,60,5e7b804f9379140478c688da,,1,0,81,12,1,80
,,,,,,,,,,,,,,,,,,,,,,,,,,,,,,,,,,,,,,,,,backspace,13.31799984,L,TRUE,,,,,,,117,boto,Catalan,Sounds/cat_boto.mp3,2020-06-05_16h23.55.322,TranslationElicitation_eng-prolific,3.2.4,Win32,60,5e7b804f9379140478c688da,,1,0,81,12,1,80
,,,,,,,,,,,,,,,,,,,,,,,,,,,,,,,,,,,,,,,,,i,13.9289999,LI,TRUE,,,,,,,117,boto,Catalan,Sounds/cat_boto.mp3,2020-06-05_16h23.55.322,TranslationElicitation_eng-prolific,3.2.4,Win32,60,5e7b804f9379140478c688da,,1,0,81,12,1,80
,,,,,,,,,,,,,,,,,,,,,,,,,,,,,,,,,,,,,,,,,q,14.74600005,LIQ,TRUE,,,,,,,117,boto,Catalan,Sounds/cat_boto.mp3,2020-06-05_16h23.55.322,TranslationElicitation_eng-prolific,3.2.4,Win32,60,5e7b804f9379140478c688da,,1,0,81,12,1,80
,,,,,,,,,,,,,,,,,,,,,,,,,,,,,,,,,,,,,,,,,u,14.829,LIQU,TRUE,,,,,,,117,boto,Catalan,Sounds/cat_boto.mp3,2020-06-05_16h23.55.322,TranslationElicitation_eng-prolific,3.2.4,Win32,60,5e7b804f9379140478c688da,,1,0,81,12,1,80
,,,,,,,,,,,,,,,,,,,,,,,,,,,,,,,,,,,,,,,,,i,14.89899993,LIQUI,TRUE,,,,,,,117,boto,Catalan,Sounds/cat_boto.mp3,2020-06-05_16h23.55.322,TranslationElicitation_eng-prolific,3.2.4,Win32,60,5e7b804f9379140478c688da,,1,0,81,12,1,80
,,,,,,,,,,,,,,,,,,,,,,,,,,,,,,,,,,,,,,,,,d,15.14700007,LIQUID,TRUE,,,,,,,117,boto,Catalan,Sounds/cat_boto.mp3,2020-06-05_16h23.55.322,TranslationElicitation_eng-prolific,3.2.4,Win32,60,5e7b804f9379140478c688da,,1,0,81,12,1,80
,,,,,,,,,,,,,,,,,,,,,,,,,,,,,,,,,,,,,,,,,return,15.47899985,LIQUID,TRUE,,,,,,,117,boto,Catalan,Sounds/cat_boto.mp3,2020-06-05_16h23.55.322,TranslationElicitation_eng-prolific,3.2.4,Win32,60,5e7b804f9379140478c688da,15.47899985,1,0,81,12,1,80
,,,,,,,,,,,,,,,,,,,,,,,,,,,,,,,,,,,,,,,,,,,,,,,,,,,117,boto,Catalan,Sounds/cat_boto.mp3,2020-06-05_16h23.55.322,TranslationElicitation_eng-prolific,3.2.4,Win32,60,5e7b804f9379140478c688da,,1,0,81,12,1,80
,,,,,,,,,,,,,,,,,,,,,,,,,,,,,,,,,,,,,,,,,u,5.030999899,U,FALSE,,,,,,,127,cotxe,Catalan,Sounds/cat_cotxe.mp3,2020-06-05_16h23.55.322,TranslationElicitation_eng-prolific,3.2.4,Win32,60,5e7b804f9379140478c688da,,1,0,81,21,1,80
,,,,,,,,,,,,,,,,,,,,,,,,,,,,,,,,,,,,,,,,,n,5.148000002,UN,FALSE,,,,,,,127,cotxe,Catalan,Sounds/cat_cotxe.mp3,2020-06-05_16h23.55.322,TranslationElicitation_eng-prolific,3.2.4,Win32,60,5e7b804f9379140478c688da,,1,0,81,21,1,80
,,,,,,,,,,,,,,,,,,,,,,,,,,,,,,,,,,,,,,,,,d,5.481999874,UND,FALSE,,,,,,,127,cotxe,Catalan,Sounds/cat_cotxe.mp3,2020-06-05_16h23.55.322,TranslationElicitation_eng-prolific,3.2.4,Win32,60,5e7b804f9379140478c688da,,1,0,81,21,1,80
,,,,,,,,,,,,,,,,,,,,,,,,,,,,,,,,,,,,,,,,,e,5.680999994,UNDE,FALSE,,,,,,,127,cotxe,Catalan,Sounds/cat_cotxe.mp3,2020-06-05_16h23.55.322,TranslationElicitation_eng-prolific,3.2.4,Win32,60,5e7b804f9379140478c688da,,1,0,81,21,1,80
,,,,,,,,,,,,,,,,,,,,,,,,,,,,,,,,,,,,,,,,,r,5.898000002,UNDER,FALSE,,,,,,,127,cotxe,Catalan,Sounds/cat_cotxe.mp3,2020-06-05_16h23.55.322,TranslationElicitation_eng-prolific,3.2.4,Win32,60,5e7b804f9379140478c688da,,1,0,81,21,1,80
,,,,,,,,,,,,,,,,,,,,,,,,,,,,,,,,,,,,,,,,,s,6.530999899,UNDERS,FALSE,,,,,,,127,cotxe,Catalan,Sounds/cat_cotxe.mp3,2020-06-05_16h23.55.322,TranslationElicitation_eng-prolific,3.2.4,Win32,60,5e7b804f9379140478c688da,,1,0,81,21,1,80
,,,,,,,,,,,,,,,,,,,,,,,,,,,,,,,,,,,,,,,,,t,6.830999851,UNDERST,FALSE,,,,,,,127,cotxe,Catalan,Sounds/cat_cotxe.mp3,2020-06-05_16h23.55.322,TranslationElicitation_eng-prolific,3.2.4,Win32,60,5e7b804f9379140478c688da,,1,0,81,21,1,80
,,,,,,,,,,,,,,,,,,,,,,,,,,,,,,,,,,,,,,,,,o,7.064999819,UNDERSTO,FALSE,,,,,,,127,cotxe,Catalan,Sounds/cat_cotxe.mp3,2020-06-05_16h23.55.322,TranslationElicitation_eng-prolific,3.2.4,Win32,60,5e7b804f9379140478c688da,,1,0,81,21,1,80
,,,,,,,,,,,,,,,,,,,,,,,,,,,,,,,,,,,,,,,,,o,7.214999914,UNDERSTOO,FALSE,,,,,,,127,cotxe,Catalan,Sounds/cat_cotxe.mp3,2020-06-05_16h23.55.322,TranslationElicitation_eng-prolific,3.2.4,Win32,60,5e7b804f9379140478c688da,,1,0,81,21,1,80
,,,,,,,,,,,,,,,,,,,,,,,,,,,,,,,,,,,,,,,,,f,7.813999891,UNDERSTOOF,FALSE,,,,,,,127,cotxe,Catalan,Sounds/cat_cotxe.mp3,2020-06-05_16h23.55.322,TranslationElicitation_eng-prolific,3.2.4,Win32,60,5e7b804f9379140478c688da,,1,0,81,21,1,80
,,,,,,,,,,,,,,,,,,,,,,,,,,,,,,,,,,,,,,,,,return,8.016000032,UNDERSTOOF,FALSE,,,,,,,127,cotxe,Catalan,Sounds/cat_cotxe.mp3,2020-06-05_16h23.55.322,TranslationElicitation_eng-prolific,3.2.4,Win32,60,5e7b804f9379140478c688da,8.016000032,1,0,81,21,1,80
,,,,,,,,,,,,,,,,,,,,,,,,,,,,,,,,,,,,,,,,,,,,,,,,,,,127,cotxe,Catalan,Sounds/cat_cotxe.mp3,2020-06-05_16h23.55.322,TranslationElicitation_eng-prolific,3.2.4,Win32,60,5e7b804f9379140478c688da,,1,0,81,21,1,80
,,,,,,,,,,,,,,,,,,,,,,,,,,,,,,,,,,,,,,,,,s,2.930999994,S,FALSE,,,,,,,124,cirera,Catalan,Sounds/cat_cirera.mp3,2020-06-05_16h23.55.322,TranslationElicitation_eng-prolific,3.2.4,Win32,60,5e7b804f9379140478c688da,,1,0,81,19,1,80
,,,,,,,,,,,,,,,,,,,,,,,,,,,,,,,,,,,,,,,,,e,3.148000002,SE,FALSE,,,,,,,124,cirera,Catalan,Sounds/cat_cirera.mp3,2020-06-05_16h23.55.322,TranslationElicitation_eng-prolific,3.2.4,Win32,60,5e7b804f9379140478c688da,,1,0,81,19,1,80
,,,,,,,,,,,,,,,,,,,,,,,,,,,,,,,,,,,,,,,,,r,3.417999983,SER,FALSE,,,,,,,124,cirera,Catalan,Sounds/cat_cirera.mp3,2020-06-05_16h23.55.322,TranslationElicitation_eng-prolific,3.2.4,Win32,60,5e7b804f9379140478c688da,,1,0,81,19,1,80
,,,,,,,,,,,,,,,,,,,,,,,,,,,,,,,,,,,,,,,,,i,4.230999947,SERI,FALSE,,,,,,,124,cirera,Catalan,Sounds/cat_cirera.mp3,2020-06-05_16h23.55.322,TranslationElicitation_eng-prolific,3.2.4,Win32,60,5e7b804f9379140478c688da,,1,0,81,19,1,80
,,,,,,,,,,,,,,,,,,,,,,,,,,,,,,,,,,,,,,,,,o,4.330999851,SERIO,FALSE,,,,,,,124,cirera,Catalan,Sounds/cat_cirera.mp3,2020-06-05_16h23.55.322,TranslationElicitation_eng-prolific,3.2.4,Win32,60,5e7b804f9379140478c688da,,1,0,81,19,1,80
,,,,,,,,,,,,,,,,,,,,,,,,,,,,,,,,,,,,,,,,,u,4.496999979,SERIOU,FALSE,,,,,,,124,cirera,Catalan,Sounds/cat_cirera.mp3,2020-06-05_16h23.55.322,TranslationElicitation_eng-prolific,3.2.4,Win32,60,5e7b804f9379140478c688da,,1,0,81,19,1,80
,,,,,,,,,,,,,,,,,,,,,,,,,,,,,,,,,,,,,,,,,s,5.013999939,SERIOUS,FALSE,,,,,,,124,cirera,Catalan,Sounds/cat_cirera.mp3,2020-06-05_16h23.55.322,TranslationElicitation_eng-prolific,3.2.4,Win32,60,5e7b804f9379140478c688da,,1,0,81,19,1,80
,,,,,,,,,,,,,,,,,,,,,,,,,,,,,,,,,,,,,,,,,return,5.146999836,SERIOUS,FALSE,,,,,,,124,cirera,Catalan,Sounds/cat_cirera.mp3,2020-06-05_16h23.55.322,TranslationElicitation_eng-prolific,3.2.4,Win32,60,5e7b804f9379140478c688da,5.146999836,1,0,81,19,1,80
,,,,,,,,,,,,,,,,,,,,,,,,,,,,,,,,,,,,,,,,,,,,,,,,,,,124,cirera,Catalan,Sounds/cat_cirera.mp3,2020-06-05_16h23.55.322,TranslationElicitation_eng-prolific,3.2.4,Win32,60,5e7b804f9379140478c688da,,1,0,81,19,1,80
,,,,,,,,,,,,,,,,,,,,,,,,,,,,,,,,,,,,,,,,,r,2.932999849,R,FALSE,,,,,,,175,raspall,Catalan,Sounds/cat_raspall.mp3,2020-06-05_16h23.55.322,TranslationElicitation_eng-prolific,3.2.4,Win32,60,5e7b804f9379140478c688da,,1,0,81,67,1,80
,,,,,,,,,,,,,,,,,,,,,,,,,,,,,,,,,,,,,,,,,e,3.14199996,RE,FALSE,,,,,,,175,raspall,Catalan,Sounds/cat_raspall.mp3,2020-06-05_16h23.55.322,TranslationElicitation_eng-prolific,3.2.4,Win32,60,5e7b804f9379140478c688da,,1,0,81,67,1,80
,,,,,,,,,,,,,,,,,,,,,,,,,,,,,,,,,,,,,,,,,s,3.400999784,RES,FALSE,,,,,,,175,raspall,Catalan,Sounds/cat_raspall.mp3,2020-06-05_16h23.55.322,TranslationElicitation_eng-prolific,3.2.4,Win32,60,5e7b804f9379140478c688da,,1,0,81,67,1,80
,,,,,,,,,,,,,,,,,,,,,,,,,,,,,,,,,,,,,,,,,p,3.63499999,RESP,FALSE,,,,,,,175,raspall,Catalan,Sounds/cat_raspall.mp3,2020-06-05_16h23.55.322,TranslationElicitation_eng-prolific,3.2.4,Win32,60,5e7b804f9379140478c688da,,1,0,81,67,1,80
,,,,,,,,,,,,,,,,,,,,,,,,,,,,,,,,,,,,,,,,,e,3.823999882,RESPE,FALSE,,,,,,,175,raspall,Catalan,Sounds/cat_raspall.mp3,2020-06-05_16h23.55.322,TranslationElicitation_eng-prolific,3.2.4,Win32,60,5e7b804f9379140478c688da,,1,0,81,67,1,80
,,,,,,,,,,,,,,,,,,,,,,,,,,,,,,,,,,,,,,,,,c,4.157999992,RESPEC,FALSE,,,,,,,175,raspall,Catalan,Sounds/cat_raspall.mp3,2020-06-05_16h23.55.322,TranslationElicitation_eng-prolific,3.2.4,Win32,60,5e7b804f9379140478c688da,,1,0,81,67,1,80
,,,,,,,,,,,,,,,,,,,,,,,,,,,,,,,,,,,,,,,,,t,4.5,RESPECT,FALSE,,,,,,,175,raspall,Catalan,Sounds/cat_raspall.mp3,2020-06-05_16h23.55.322,TranslationElicitation_eng-prolific,3.2.4,Win32,60,5e7b804f9379140478c688da,,1,0,81,67,1,80
,,,,,,,,,,,,,,,,,,,,,,,,,,,,,,,,,,,,,,,,,return,4.941999912,RESPECT,FALSE,,,,,,,175,raspall,Catalan,Sounds/cat_raspall.mp3,2020-06-05_16h23.55.322,TranslationElicitation_eng-prolific,3.2.4,Win32,60,5e7b804f9379140478c688da,4.941999912,1,0,81,67,1,80
,,,,,,,,,,,,,,,,,,,,,,,,,,,,,,,,,,,,,,,,,,,,,,,,,,,175,raspall,Catalan,Sounds/cat_raspall.mp3,2020-06-05_16h23.55.322,TranslationElicitation_eng-prolific,3.2.4,Win32,60,5e7b804f9379140478c688da,,1,0,81,67,1,80
,,,,,,,,,,,,,,,,,,,,,,,,,,,,,,,,,,,,,,,,,h,3.150000095,H,FALSE,,,,,,,181,tobogan,Catalan,Sounds/cat_tobogan.mp3,2020-06-05_16h23.55.322,TranslationElicitation_eng-prolific,3.2.4,Win32,60,5e7b804f9379140478c688da,,1,0,81,72,1,80
,,,,,,,,,,,,,,,,,,,,,,,,,,,,,,,,,,,,,,,,,a,3.328999996,HA,FALSE,,,,,,,181,tobogan,Catalan,Sounds/cat_tobogan.mp3,2020-06-05_16h23.55.322,TranslationElicitation_eng-prolific,3.2.4,Win32,60,5e7b804f9379140478c688da,,1,0,81,72,1,80
,,,,,,,,,,,,,,,,,,,,,,,,,,,,,,,,,,,,,,,,,p,3.786999941,HAP,FALSE,,,,,,,181,tobogan,Catalan,Sounds/cat_tobogan.mp3,2020-06-05_16h23.55.322,TranslationElicitation_eng-prolific,3.2.4,Win32,60,5e7b804f9379140478c688da,,1,0,81,72,1,80
,,,,,,,,,,,,,,,,,,,,,,,,,,,,,,,,,,,,,,,,,p,3.957000017,HAPP,FALSE,,,,,,,181,tobogan,Catalan,Sounds/cat_tobogan.mp3,2020-06-05_16h23.55.322,TranslationElicitation_eng-prolific,3.2.4,Win32,60,5e7b804f9379140478c688da,,1,0,81,72,1,80
,,,,,,,,,,,,,,,,,,,,,,,,,,,,,,,,,,,,,,,,,y,4.085999966,HAPPY,FALSE,,,,,,,181,tobogan,Catalan,Sounds/cat_tobogan.mp3,2020-06-05_16h23.55.322,TranslationElicitation_eng-prolific,3.2.4,Win32,60,5e7b804f9379140478c688da,,1,0,81,72,1,80
,,,,,,,,,,,,,,,,,,,,,,,,,,,,,,,,,,,,,,,,,return,5.357000113,HAPPY,FALSE,,,,,,,181,tobogan,Catalan,Sounds/cat_tobogan.mp3,2020-06-05_16h23.55.322,TranslationElicitation_eng-prolific,3.2.4,Win32,60,5e7b804f9379140478c688da,5.357000113,1,0,81,72,1,80
,,,,,,,,,,,,,,,,,,,,,,,,,,,,,,,,,,,,,,,,,,,,,,,,,,,181,tobogan,Catalan,Sounds/cat_tobogan.mp3,2020-06-05_16h23.55.322,TranslationElicitation_eng-prolific,3.2.4,Win32,60,5e7b804f9379140478c688da,,1,0,81,72,1,80
,,,,,,,,,,,,,,,,,,,,,,,,,,,,,,,,,,,,,,,,,d,3.345000029,D,FALSE,,,,,,,129,dit,Catalan,Sounds/cat_dit.mp3,2020-06-05_16h23.55.322,TranslationElicitation_eng-prolific,3.2.4,Win32,60,5e7b804f9379140478c688da,,1,0,81,23,1,80
,,,,,,,,,,,,,,,,,,,,,,,,,,,,,,,,,,,,,,,,,i,3.495000124,DI,FALSE,,,,,,,129,dit,Catalan,Sounds/cat_dit.mp3,2020-06-05_16h23.55.322,TranslationElicitation_eng-prolific,3.2.4,Win32,60,5e7b804f9379140478c688da,,1,0,81,23,1,80
,,,,,,,,,,,,,,,,,,,,,,,,,,,,,,,,,,,,,,,,,d,3.868000031,DID,FALSE,,,,,,,129,dit,Catalan,Sounds/cat_dit.mp3,2020-06-05_16h23.55.322,TranslationElicitation_eng-prolific,3.2.4,Win32,60,5e7b804f9379140478c688da,,1,0,81,23,1,80
,,,,,,,,,,,,,,,,,,,,,,,,,,,,,,,,,,,,,,,,,return,4.406000137,DID,FALSE,,,,,,,129,dit,Catalan,Sounds/cat_dit.mp3,2020-06-05_16h23.55.322,TranslationElicitation_eng-prolific,3.2.4,Win32,60,5e7b804f9379140478c688da,4.406000137,1,0,81,23,1,80
,,,,,,,,,,,,,,,,,,,,,,,,,,,,,,,,,,,,,,,,,,,,,,,,,,,129,dit,Catalan,Sounds/cat_dit.mp3,2020-06-05_16h23.55.322,TranslationElicitation_eng-prolific,3.2.4,Win32,60,5e7b804f9379140478c688da,,1,0,81,23,1,80
,,,,,,,,,,,,,,,,,,,,,,,,,,,,,,,,,,,,,,,,,g,1.983999968,G,FALSE,,,,,,,119,caixa,Catalan,Sounds/cat_caixa.mp3,2020-06-05_16h23.55.322,TranslationElicitation_eng-prolific,3.2.4,Win32,60,5e7b804f9379140478c688da,,1,0,81,14,1,80
,,,,,,,,,,,,,,,,,,,,,,,,,,,,,,,,,,,,,,,,,o,2.152000189,GO,FALSE,,,,,,,119,caixa,Catalan,Sounds/cat_caixa.mp3,2020-06-05_16h23.55.322,TranslationElicitation_eng-prolific,3.2.4,Win32,60,5e7b804f9379140478c688da,,1,0,81,14,1,80
,,,,,,,,,,,,,,,,,,,,,,,,,,,,,,,,,,,,,,,,,s,2.502000093,GOS,FALSE,,,,,,,119,caixa,Catalan,Sounds/cat_caixa.mp3,2020-06-05_16h23.55.322,TranslationElicitation_eng-prolific,3.2.4,Win32,60,5e7b804f9379140478c688da,,1,0,81,14,1,80
,,,,,,,,,,,,,,,,,,,,,,,,,,,,,,,,,,,,,,,,,h,2.867000103,GOSH,FALSE,,,,,,,119,caixa,Catalan,Sounds/cat_caixa.mp3,2020-06-05_16h23.55.322,TranslationElicitation_eng-prolific,3.2.4,Win32,60,5e7b804f9379140478c688da,,1,0,81,14,1,80
,,,,,,,,,,,,,,,,,,,,,,,,,,,,,,,,,,,,,,,,,backspace,3.46600008,GOS,TRUE,,,,,,,119,caixa,Catalan,Sounds/cat_caixa.mp3,2020-06-05_16h23.55.322,TranslationElicitation_eng-prolific,3.2.4,Win32,60,5e7b804f9379140478c688da,,1,0,81,14,1,80
,,,,,,,,,,,,,,,,,,,,,,,,,,,,,,,,,,,,,,,,,backspace,3.619000196,GO,TRUE,,,,,,,119,caixa,Catalan,Sounds/cat_caixa.mp3,2020-06-05_16h23.55.322,TranslationElicitation_eng-prolific,3.2.4,Win32,60,5e7b804f9379140478c688da,,1,0,81,14,1,80
,,,,,,,,,,,,,,,,,,,,,,,,,,,,,,,,,,,,,,,,,backspace,3.768000126,G,TRUE,,,,,,,119,caixa,Catalan,Sounds/cat_caixa.mp3,2020-06-05_16h23.55.322,TranslationElicitation_eng-prolific,3.2.4,Win32,60,5e7b804f9379140478c688da,,1,0,81,14,1,80
,,,,,,,,,,,,,,,,,,,,,,,,,,,,,,,,,,,,,,,,,backspace,4.015000105,,TRUE,,,,,,,119,caixa,Catalan,Sounds/cat_caixa.mp3,2020-06-05_16h23.55.322,TranslationElicitation_eng-prolific,3.2.4,Win32,60,5e7b804f9379140478c688da,,1,0,81,14,1,80
,,,,,,,,,,,,,,,,,,,,,,,,,,,,,,,,,,,,,,,,,w,4.633000135,W,TRUE,,,,,,,119,caixa,Catalan,Sounds/cat_caixa.mp3,2020-06-05_16h23.55.322,TranslationElicitation_eng-prolific,3.2.4,Win32,60,5e7b804f9379140478c688da,,1,0,81,14,1,80
,,,,,,,,,,,,,,,,,,,,,,,,,,,,,,,,,,,,,,,,,o,4.998000145,WO,TRUE,,,,,,,119,caixa,Catalan,Sounds/cat_caixa.mp3,2020-06-05_16h23.55.322,TranslationElicitation_eng-prolific,3.2.4,Win32,60,5e7b804f9379140478c688da,,1,0,81,14,1,80
,,,,,,,,,,,,,,,,,,,,,,,,,,,,,,,,,,,,,,,,,u,5.131999969,WOU,TRUE,,,,,,,119,caixa,Catalan,Sounds/cat_caixa.mp3,2020-06-05_16h23.55.322,TranslationElicitation_eng-prolific,3.2.4,Win32,60,5e7b804f9379140478c688da,,1,0,81,14,1,80
,,,,,,,,,,,,,,,,,,,,,,,,,,,,,,,,,,,,,,,,,n,5.371000051,WOUN,TRUE,,,,,,,119,caixa,Catalan,Sounds/cat_caixa.mp3,2020-06-05_16h23.55.322,TranslationElicitation_eng-prolific,3.2.4,Win32,60,5e7b804f9379140478c688da,,1,0,81,14,1,80
,,,,,,,,,,,,,,,,,,,,,,,,,,,,,,,,,,,,,,,,,d,5.516000032,WOUND,TRUE,,,,,,,119,caixa,Catalan,Sounds/cat_caixa.mp3,2020-06-05_16h23.55.322,TranslationElicitation_eng-prolific,3.2.4,Win32,60,5e7b804f9379140478c688da,,1,0,81,14,1,80
,,,,,,,,,,,,,,,,,,,,,,,,,,,,,,,,,,,,,,,,,apostrophe,5.898000002,WOUND',TRUE,,,,,,,119,caixa,Catalan,Sounds/cat_caixa.mp3,2020-06-05_16h23.55.322,TranslationElicitation_eng-prolific,3.2.4,Win32,60,5e7b804f9379140478c688da,,1,0,81,14,1,80
,,,,,,,,,,,,,,,,,,,,,,,,,,,,,,,,,,,,,,,,,backspace,6.832000017,WOUND,TRUE,,,,,,,119,caixa,Catalan,Sounds/cat_caixa.mp3,2020-06-05_16h23.55.322,TranslationElicitation_eng-prolific,3.2.4,Win32,60,5e7b804f9379140478c688da,,1,0,81,14,1,80
,,,,,,,,,,,,,,,,,,,,,,,,,,,,,,,,,,,,,,,,,return,6.998000145,WOUND,TRUE,,,,,,,119,caixa,Catalan,Sounds/cat_caixa.mp3,2020-06-05_16h23.55.322,TranslationElicitation_eng-prolific,3.2.4,Win32,60,5e7b804f9379140478c688da,6.998000145,1,0,81,14,1,80
,,,,,,,,,,,,,,,,,,,,,,,,,,,,,,,,,,,,,,,,,,,,,,,,,,,119,caixa,Catalan,Sounds/cat_caixa.mp3,2020-06-05_16h23.55.322,TranslationElicitation_eng-prolific,3.2.4,Win32,60,5e7b804f9379140478c688da,,1,0,81,14,1,80
,,,,,,,,,,,,,,,,,,,,,,,,,,,,,,,,,,,,,,,,,c,1.780999899,C,FALSE,,,,,,,188,xocolata,Catalan,Sounds/cat_xocolata.mp3,2020-06-05_16h23.55.322,TranslationElicitation_eng-prolific,3.2.4,Win32,60,5e7b804f9379140478c688da,,1,0,81,79,1,80
,,,,,,,,,,,,,,,,,,,,,,,,,,,,,,,,,,,,,,,,,h,1.930999994,CH,FALSE,,,,,,,188,xocolata,Catalan,Sounds/cat_xocolata.mp3,2020-06-05_16h23.55.322,TranslationElicitation_eng-prolific,3.2.4,Win32,60,5e7b804f9379140478c688da,,1,0,81,79,1,80
,,,,,,,,,,,,,,,,,,,,,,,,,,,,,,,,,,,,,,,,,o,2.131999969,CHO,FALSE,,,,,,,188,xocolata,Catalan,Sounds/cat_xocolata.mp3,2020-06-05_16h23.55.322,TranslationElicitation_eng-prolific,3.2.4,Win32,60,5e7b804f9379140478c688da,,1,0,81,79,1,80
,,,,,,,,,,,,,,,,,,,,,,,,,,,,,,,,,,,,,,,,,c,2.314999819,CHOC,FALSE,,,,,,,188,xocolata,Catalan,Sounds/cat_xocolata.mp3,2020-06-05_16h23.55.322,TranslationElicitation_eng-prolific,3.2.4,Win32,60,5e7b804f9379140478c688da,,1,0,81,79,1,80
,,,,,,,,,,,,,,,,,,,,,,,,,,,,,,,,,,,,,,,,,o,2.447999954,CHOCO,FALSE,,,,,,,188,xocolata,Catalan,Sounds/cat_xocolata.mp3,2020-06-05_16h23.55.322,TranslationElicitation_eng-prolific,3.2.4,Win32,60,5e7b804f9379140478c688da,,1,0,81,79,1,80
,,,,,,,,,,,,,,,,,,,,,,,,,,,,,,,,,,,,,,,,,l,2.646999836,CHOCOL,FALSE,,,,,,,188,xocolata,Catalan,Sounds/cat_xocolata.mp3,2020-06-05_16h23.55.322,TranslationElicitation_eng-prolific,3.2.4,Win32,60,5e7b804f9379140478c688da,,1,0,81,79,1,80
,,,,,,,,,,,,,,,,,,,,,,,,,,,,,,,,,,,,,,,,,a,2.813999891,CHOCOLA,FALSE,,,,,,,188,xocolata,Catalan,Sounds/cat_xocolata.mp3,2020-06-05_16h23.55.322,TranslationElicitation_eng-prolific,3.2.4,Win32,60,5e7b804f9379140478c688da,,1,0,81,79,1,80
,,,,,,,,,,,,,,,,,,,,,,,,,,,,,,,,,,,,,,,,,t,2.998999834,CHOCOLAT,FALSE,,,,,,,188,xocolata,Catalan,Sounds/cat_xocolata.mp3,2020-06-05_16h23.55.322,TranslationElicitation_eng-prolific,3.2.4,Win32,60,5e7b804f9379140478c688da,,1,0,81,79,1,80
,,,,,,,,,,,,,,,,,,,,,,,,,,,,,,,,,,,,,,,,,e,3.179999828,CHOCOLATE,FALSE,,,,,,,188,xocolata,Catalan,Sounds/cat_xocolata.mp3,2020-06-05_16h23.55.322,TranslationElicitation_eng-prolific,3.2.4,Win32,60,5e7b804f9379140478c688da,,1,0,81,79,1,80
,,,,,,,,,,,,,,,,,,,,,,,,,,,,,,,,,,,,,,,,,return,3.611999989,CHOCOLATE,FALSE,,,,,,,188,xocolata,Catalan,Sounds/cat_xocolata.mp3,2020-06-05_16h23.55.322,TranslationElicitation_eng-prolific,3.2.4,Win32,60,5e7b804f9379140478c688da,3.611999989,1,0,81,79,1,80
,,,,,,,,,,,,,,,,,,,,,,,,,,,,,,,,,,,,,,,,,,,,,,,,,,,188,xocolata,Catalan,Sounds/cat_xocolata.mp3,2020-06-05_16h23.55.322,TranslationElicitation_eng-prolific,3.2.4,Win32,60,5e7b804f9379140478c688da,,1,0,81,79,1,80
,,,,,,,,,,,,,,,,,,,,,,,,,,,,,,,,,,,,,,,,,b,1.748999834,B,FALSE,,,,,,,110,berenar,Catalan,Sounds/cat_berenar.mp3,2020-06-05_16h23.55.322,TranslationElicitation_eng-prolific,3.2.4,Win32,60,5e7b804f9379140478c688da,,1,0,81,5,1,80
,,,,,,,,,,,,,,,,,,,,,,,,,,,,,,,,,,,,,,,,,a,1.86500001,BA,FALSE,,,,,,,110,berenar,Catalan,Sounds/cat_berenar.mp3,2020-06-05_16h23.55.322,TranslationElicitation_eng-prolific,3.2.4,Win32,60,5e7b804f9379140478c688da,,1,0,81,5,1,80
,,,,,,,,,,,,,,,,,,,,,,,,,,,,,,,,,,,,,,,,,n,2.014999866,BAN,FALSE,,,,,,,110,berenar,Catalan,Sounds/cat_berenar.mp3,2020-06-05_16h23.55.322,TranslationElicitation_eng-prolific,3.2.4,Win32,60,5e7b804f9379140478c688da,,1,0,81,5,1,80
,,,,,,,,,,,,,,,,,,,,,,,,,,,,,,,,,,,,,,,,,a,2.164999962,BANA,FALSE,,,,,,,110,berenar,Catalan,Sounds/cat_berenar.mp3,2020-06-05_16h23.55.322,TranslationElicitation_eng-prolific,3.2.4,Win32,60,5e7b804f9379140478c688da,,1,0,81,5,1,80
,,,,,,,,,,,,,,,,,,,,,,,,,,,,,,,,,,,,,,,,,n,2.28399992,BANAN,FALSE,,,,,,,110,berenar,Catalan,Sounds/cat_berenar.mp3,2020-06-05_16h23.55.322,TranslationElicitation_eng-prolific,3.2.4,Win32,60,5e7b804f9379140478c688da,,1,0,81,5,1,80
,,,,,,,,,,,,,,,,,,,,,,,,,,,,,,,,,,,,,,,,,a,2.483999968,BANANA,FALSE,,,,,,,110,berenar,Catalan,Sounds/cat_berenar.mp3,2020-06-05_16h23.55.322,TranslationElicitation_eng-prolific,3.2.4,Win32,60,5e7b804f9379140478c688da,,1,0,81,5,1,80
,,,,,,,,,,,,,,,,,,,,,,,,,,,,,,,,,,,,,,,,,return,3.663999796,BANANA,FALSE,,,,,,,110,berenar,Catalan,Sounds/cat_berenar.mp3,2020-06-05_16h23.55.322,TranslationElicitation_eng-prolific,3.2.4,Win32,60,5e7b804f9379140478c688da,3.663999796,1,0,81,5,1,80
,,,,,,,,,,,,,,,,,,,,,,,,,,,,,,,,,,,,,,,,,,,,,,,,,,,110,berenar,Catalan,Sounds/cat_berenar.mp3,2020-06-05_16h23.55.322,TranslationElicitation_eng-prolific,3.2.4,Win32,60,5e7b804f9379140478c688da,,1,0,81,5,1,80
,,,,,,,,,,,,,,,,,,,,,,,,,,,,,,,,,,,,,,,,,g,3.017000198,G,FALSE,,,,,,,149,llibre,Catalan,Sounds/cat_llibre.mp3,2020-06-05_16h23.55.322,TranslationElicitation_eng-prolific,3.2.4,Win32,60,5e7b804f9379140478c688da,,1,0,81,42,1,80
,,,,,,,,,,,,,,,,,,,,,,,,,,,,,,,,,,,,,,,,,l,3.169000149,GL,FALSE,,,,,,,149,llibre,Catalan,Sounds/cat_llibre.mp3,2020-06-05_16h23.55.322,TranslationElicitation_eng-prolific,3.2.4,Win32,60,5e7b804f9379140478c688da,,1,0,81,42,1,80
,,,,,,,,,,,,,,,,,,,,,,,,,,,,,,,,,,,,,,,,,e,3.436000109,GLE,FALSE,,,,,,,149,llibre,Catalan,Sounds/cat_llibre.mp3,2020-06-05_16h23.55.322,TranslationElicitation_eng-prolific,3.2.4,Win32,60,5e7b804f9379140478c688da,,1,0,81,42,1,80
,,,,,,,,,,,,,,,,,,,,,,,,,,,,,,,,,,,,,,,,,e,3.587000132,GLEE,FALSE,,,,,,,149,llibre,Catalan,Sounds/cat_llibre.mp3,2020-06-05_16h23.55.322,TranslationElicitation_eng-prolific,3.2.4,Win32,60,5e7b804f9379140478c688da,,1,0,81,42,1,80
,,,,,,,,,,,,,,,,,,,,,,,,,,,,,,,,,,,,,,,,,return,3.751000166,GLEE,FALSE,,,,,,,149,llibre,Catalan,Sounds/cat_llibre.mp3,2020-06-05_16h23.55.322,TranslationElicitation_eng-prolific,3.2.4,Win32,60,5e7b804f9379140478c688da,3.751000166,1,0,81,42,1,80
,,,,,,,,,,,,,,,,,,,,,,,,,,,,,,,,,,,,,,,,,,,,,,,,,,,149,llibre,Catalan,Sounds/cat_llibre.mp3,2020-06-05_16h23.55.322,TranslationElicitation_eng-prolific,3.2.4,Win32,60,5e7b804f9379140478c688da,,1,0,81,42,1,80
,,,,,,,,,,,,,,,,,,,,,,,,,,,,,,,,,,,,,,,,,p,1.881999969,P,FALSE,,,,,,,164,patata,Catalan,Sounds/cat_patata.mp3,2020-06-05_16h23.55.322,TranslationElicitation_eng-prolific,3.2.4,Win32,60,5e7b804f9379140478c688da,,1,0,81,56,1,80
,,,,,,,,,,,,,,,,,,,,,,,,,,,,,,,,,,,,,,,,,o,1.948999882,PO,FALSE,,,,,,,164,patata,Catalan,Sounds/cat_patata.mp3,2020-06-05_16h23.55.322,TranslationElicitation_eng-prolific,3.2.4,Win32,60,5e7b804f9379140478c688da,,1,0,81,56,1,80
,,,,,,,,,,,,,,,,,,,,,,,,,,,,,,,,,,,,,,,,,t,2.431999922,POT,FALSE,,,,,,,164,patata,Catalan,Sounds/cat_patata.mp3,2020-06-05_16h23.55.322,TranslationElicitation_eng-prolific,3.2.4,Win32,60,5e7b804f9379140478c688da,,1,0,81,56,1,80
,,,,,,,,,,,,,,,,,,,,,,,,,,,,,,,,,,,,,,,,,a,2.531999826,POTA,FALSE,,,,,,,164,patata,Catalan,Sounds/cat_patata.mp3,2020-06-05_16h23.55.322,TranslationElicitation_eng-prolific,3.2.4,Win32,60,5e7b804f9379140478c688da,,1,0,81,56,1,80
,,,,,,,,,,,,,,,,,,,,,,,,,,,,,,,,,,,,,,,,,t,2.649999857,POTAT,FALSE,,,,,,,164,patata,Catalan,Sounds/cat_patata.mp3,2020-06-05_16h23.55.322,TranslationElicitation_eng-prolific,3.2.4,Win32,60,5e7b804f9379140478c688da,,1,0,81,56,1,80
,,,,,,,,,,,,,,,,,,,,,,,,,,,,,,,,,,,,,,,,,o,3.332000017,POTATO,FALSE,,,,,,,164,patata,Catalan,Sounds/cat_patata.mp3,2020-06-05_16h23.55.322,TranslationElicitation_eng-prolific,3.2.4,Win32,60,5e7b804f9379140478c688da,,1,0,81,56,1,80
,,,,,,,,,,,,,,,,,,,,,,,,,,,,,,,,,,,,,,,,,return,3.786000013,POTATO,FALSE,,,,,,,164,patata,Catalan,Sounds/cat_patata.mp3,2020-06-05_16h23.55.322,TranslationElicitation_eng-prolific,3.2.4,Win32,60,5e7b804f9379140478c688da,3.786000013,1,0,81,56,1,80
,,,,,,,,,,,,,,,,,,,,,,,,,,,,,,,,,,,,,,,,,,,,,,,,,,,164,patata,Catalan,Sounds/cat_patata.mp3,2020-06-05_16h23.55.322,TranslationElicitation_eng-prolific,3.2.4,Win32,60,5e7b804f9379140478c688da,,1,0,81,56,1,80
,,,,,,,,,,,,,,,,,,,,,,,,,,,,,,,,,,,,,,,,,c,2.049000025,C,FALSE,,,,,,,125,colom,Catalan,Sounds/cat_colom.mp3,2020-06-05_16h23.55.322,TranslationElicitation_eng-prolific,3.2.4,Win32,60,5e7b804f9379140478c688da,,1,0,81,20,1,80
,,,,,,,,,,,,,,,,,,,,,,,,,,,,,,,,,,,,,,,,,o,2.268000126,CO,FALSE,,,,,,,125,colom,Catalan,Sounds/cat_colom.mp3,2020-06-05_16h23.55.322,TranslationElicitation_eng-prolific,3.2.4,Win32,60,5e7b804f9379140478c688da,,1,0,81,20,1,80
,,,,,,,,,,,,,,,,,,,,,,,,,,,,,,,,,,,,,,,,,g,2.565999985,COG,FALSE,,,,,,,125,colom,Catalan,Sounds/cat_colom.mp3,2020-06-05_16h23.55.322,TranslationElicitation_eng-prolific,3.2.4,Win32,60,5e7b804f9379140478c688da,,1,0,81,20,1,80
,,,,,,,,,,,,,,,,,,,,,,,,,,,,,,,,,,,,,,,,,backspace,3.549000025,CO,TRUE,,,,,,,125,colom,Catalan,Sounds/cat_colom.mp3,2020-06-05_16h23.55.322,TranslationElicitation_eng-prolific,3.2.4,Win32,60,5e7b804f9379140478c688da,,1,0,81,20,1,80
,,,,,,,,,,,,,,,,,,,,,,,,,,,,,,,,,,,,,,,,,l,3.898999929,COL,TRUE,,,,,,,125,colom,Catalan,Sounds/cat_colom.mp3,2020-06-05_16h23.55.322,TranslationElicitation_eng-prolific,3.2.4,Win32,60,5e7b804f9379140478c688da,,1,0,81,20,1,80
,,,,,,,,,,,,,,,,,,,,,,,,,,,,,,,,,,,,,,,,,o,4.118999958,COLO,TRUE,,,,,,,125,colom,Catalan,Sounds/cat_colom.mp3,2020-06-05_16h23.55.322,TranslationElicitation_eng-prolific,3.2.4,Win32,60,5e7b804f9379140478c688da,,1,0,81,20,1,80
,,,,,,,,,,,,,,,,,,,,,,,,,,,,,,,,,,,,,,,,,f,4.373000145,COLOF,TRUE,,,,,,,125,colom,Catalan,Sounds/cat_colom.mp3,2020-06-05_16h23.55.322,TranslationElicitation_eng-prolific,3.2.4,Win32,60,5e7b804f9379140478c688da,,1,0,81,20,1,80
,,,,,,,,,,,,,,,,,,,,,,,,,,,,,,,,,,,,,,,,,backspace,4.986000061,COLO,TRUE,,,,,,,125,colom,Catalan,Sounds/cat_colom.mp3,2020-06-05_16h23.55.322,TranslationElicitation_eng-prolific,3.2.4,Win32,60,5e7b804f9379140478c688da,,1,0,81,20,1,80
,,,,,,,,,,,,,,,,,,,,,,,,,,,,,,,,,,,,,,,,,g,5.148999929,COLOG,TRUE,,,,,,,125,colom,Catalan,Sounds/cat_colom.mp3,2020-06-05_16h23.55.322,TranslationElicitation_eng-prolific,3.2.4,Win32,60,5e7b804f9379140478c688da,,1,0,81,20,1,80
,,,,,,,,,,,,,,,,,,,,,,,,,,,,,,,,,,,,,,,,,n,5.749000072,COLOGN,TRUE,,,,,,,125,colom,Catalan,Sounds/cat_colom.mp3,2020-06-05_16h23.55.322,TranslationElicitation_eng-prolific,3.2.4,Win32,60,5e7b804f9379140478c688da,,1,0,81,20,1,80
,,,,,,,,,,,,,,,,,,,,,,,,,,,,,,,,,,,,,,,,,e,5.917999983,COLOGNE,TRUE,,,,,,,125,colom,Catalan,Sounds/cat_colom.mp3,2020-06-05_16h23.55.322,TranslationElicitation_eng-prolific,3.2.4,Win32,60,5e7b804f9379140478c688da,,1,0,81,20,1,80
,,,,,,,,,,,,,,,,,,,,,,,,,,,,,,,,,,,,,,,,,return,6.365999937,COLOGNE,TRUE,,,,,,,125,colom,Catalan,Sounds/cat_colom.mp3,2020-06-05_16h23.55.322,TranslationElicitation_eng-prolific,3.2.4,Win32,60,5e7b804f9379140478c688da,6.365999937,1,0,81,20,1,80
,,,,,,,,,,,,,,,,,,,,,,,,,,,,,,,,,,,,,,,,,,,,,,,,,,,125,colom,Catalan,Sounds/cat_colom.mp3,2020-06-05_16h23.55.322,TranslationElicitation_eng-prolific,3.2.4,Win32,60,5e7b804f9379140478c688da,,1,0,81,20,1,80
,,,,,,,,,,,,,,,,,,,,,,,,,,,,,,,,,,,,,,,,,w,2.213000059,W,FALSE,,,,,,,155,moneda,Catalan,Sounds/cat_moneda.mp3,2020-06-05_16h23.55.322,TranslationElicitation_eng-prolific,3.2.4,Win32,60,5e7b804f9379140478c688da,,1,0,81,48,1,80
,,,,,,,,,,,,,,,,,,,,,,,,,,,,,,,,,,,,,,,,,e,2.463999987,WE,FALSE,,,,,,,155,moneda,Catalan,Sounds/cat_moneda.mp3,2020-06-05_16h23.55.322,TranslationElicitation_eng-prolific,3.2.4,Win32,60,5e7b804f9379140478c688da,,1,0,81,48,1,80
,,,,,,,,,,,,,,,,,,,,,,,,,,,,,,,,,,,,,,,,,a,2.697000027,WEA,FALSE,,,,,,,155,moneda,Catalan,Sounds/cat_moneda.mp3,2020-06-05_16h23.55.322,TranslationElicitation_eng-prolific,3.2.4,Win32,60,5e7b804f9379140478c688da,,1,0,81,48,1,80
,,,,,,,,,,,,,,,,,,,,,,,,,,,,,,,,,,,,,,,,,t,2.829999924,WEAT,FALSE,,,,,,,155,moneda,Catalan,Sounds/cat_moneda.mp3,2020-06-05_16h23.55.322,TranslationElicitation_eng-prolific,3.2.4,Win32,60,5e7b804f9379140478c688da,,1,0,81,48,1,80
,,,,,,,,,,,,,,,,,,,,,,,,,,,,,,,,,,,,,,,,,h,3.000999928,WEATH,FALSE,,,,,,,155,moneda,Catalan,Sounds/cat_moneda.mp3,2020-06-05_16h23.55.322,TranslationElicitation_eng-prolific,3.2.4,Win32,60,5e7b804f9379140478c688da,,1,0,81,48,1,80
,,,,,,,,,,,,,,,,,,,,,,,,,,,,,,,,,,,,,,,,,e,3.084000111,WEATHE,FALSE,,,,,,,155,moneda,Catalan,Sounds/cat_moneda.mp3,2020-06-05_16h23.55.322,TranslationElicitation_eng-prolific,3.2.4,Win32,60,5e7b804f9379140478c688da,,1,0,81,48,1,80
,,,,,,,,,,,,,,,,,,,,,,,,,,,,,,,,,,,,,,,,,r,3.28399992,WEATHER,FALSE,,,,,,,155,moneda,Catalan,Sounds/cat_moneda.mp3,2020-06-05_16h23.55.322,TranslationElicitation_eng-prolific,3.2.4,Win32,60,5e7b804f9379140478c688da,,1,0,81,48,1,80
,,,,,,,,,,,,,,,,,,,,,,,,,,,,,,,,,,,,,,,,,return,3.529999971,WEATHER,FALSE,,,,,,,155,moneda,Catalan,Sounds/cat_moneda.mp3,2020-06-05_16h23.55.322,TranslationElicitation_eng-prolific,3.2.4,Win32,60,5e7b804f9379140478c688da,3.529999971,1,0,81,48,1,80
,,,,,,,,,,,,,,,,,,,,,,,,,,,,,,,,,,,,,,,,,,,,,,,,,,,155,moneda,Catalan,Sounds/cat_moneda.mp3,2020-06-05_16h23.55.322,TranslationElicitation_eng-prolific,3.2.4,Win32,60,5e7b804f9379140478c688da,,1,0,81,48,1,80
,,,,,,,,,,,,,,,,,,,,,,,,,,,,,,,,,,,,,,,,,t,2.753999949,T,FALSE,,,,,,,183,tren,Catalan,Sounds/cat_tren.mp3,2020-06-05_16h23.55.322,TranslationElicitation_eng-prolific,3.2.4,Win32,60,5e7b804f9379140478c688da,,1,0,81,74,1,80
,,,,,,,,,,,,,,,,,,,,,,,,,,,,,,,,,,,,,,,,,e,3.034000158,TE,FALSE,,,,,,,183,tren,Catalan,Sounds/cat_tren.mp3,2020-06-05_16h23.55.322,TranslationElicitation_eng-prolific,3.2.4,Win32,60,5e7b804f9379140478c688da,,1,0,81,74,1,80
,,,,,,,,,,,,,,,,,,,,,,,,,,,,,,,,,,,,,,,,,n,3.13499999,TEN,FALSE,,,,,,,183,tren,Catalan,Sounds/cat_tren.mp3,2020-06-05_16h23.55.322,TranslationElicitation_eng-prolific,3.2.4,Win32,60,5e7b804f9379140478c688da,,1,0,81,74,1,80
,,,,,,,,,,,,,,,,,,,,,,,,,,,,,,,,,,,,,,,,,return,3.732000113,TEN,FALSE,,,,,,,183,tren,Catalan,Sounds/cat_tren.mp3,2020-06-05_16h23.55.322,TranslationElicitation_eng-prolific,3.2.4,Win32,60,5e7b804f9379140478c688da,3.732000113,1,0,81,74,1,80
,,,,,,,,,,,,,,,,,,,,,,,,,,,,,,,,,,,,,,,,,,,,,,,,,,,183,tren,Catalan,Sounds/cat_tren.mp3,2020-06-05_16h23.55.322,TranslationElicitation_eng-prolific,3.2.4,Win32,60,5e7b804f9379140478c688da,,1,0,81,74,1,80
,,,,,,,,,,,,,,,,,,,,,,,,,,,,,,,,,,,,,,,,,g,1.75,G,FALSE,,,,,,,146,guitarra,Catalan,Sounds/cat_guitarra.mp3,2020-06-05_16h23.55.322,TranslationElicitation_eng-prolific,3.2.4,Win32,60,5e7b804f9379140478c688da,,1,0,81,40,1,80
,,,,,,,,,,,,,,,,,,,,,,,,,,,,,,,,,,,,,,,,,u,1.917000055,GU,FALSE,,,,,,,146,guitarra,Catalan,Sounds/cat_guitarra.mp3,2020-06-05_16h23.55.322,TranslationElicitation_eng-prolific,3.2.4,Win32,60,5e7b804f9379140478c688da,,1,0,81,40,1,80
,,,,,,,,,,,,,,,,,,,,,,,,,,,,,,,,,,,,,,,,,i,2.023999929,GUI,FALSE,,,,,,,146,guitarra,Catalan,Sounds/cat_guitarra.mp3,2020-06-05_16h23.55.322,TranslationElicitation_eng-prolific,3.2.4,Win32,60,5e7b804f9379140478c688da,,1,0,81,40,1,80
,,,,,,,,,,,,,,,,,,,,,,,,,,,,,,,,,,,,,,,,,t,2.400000095,GUIT,FALSE,,,,,,,146,guitarra,Catalan,Sounds/cat_guitarra.mp3,2020-06-05_16h23.55.322,TranslationElicitation_eng-prolific,3.2.4,Win32,60,5e7b804f9379140478c688da,,1,0,81,40,1,80
,,,,,,,,,,,,,,,,,,,,,,,,,,,,,,,,,,,,,,,,,a,2.598999977,GUITA,FALSE,,,,,,,146,guitarra,Catalan,Sounds/cat_guitarra.mp3,2020-06-05_16h23.55.322,TranslationElicitation_eng-prolific,3.2.4,Win32,60,5e7b804f9379140478c688da,,1,0,81,40,1,80
,,,,,,,,,,,,,,,,,,,,,,,,,,,,,,,,,,,,,,,,,r,2.717000008,GUITAR,FALSE,,,,,,,146,guitarra,Catalan,Sounds/cat_guitarra.mp3,2020-06-05_16h23.55.322,TranslationElicitation_eng-prolific,3.2.4,Win32,60,5e7b804f9379140478c688da,,1,0,81,40,1,80
,,,,,,,,,,,,,,,,,,,,,,,,,,,,,,,,,,,,,,,,,return,3.348999977,GUITAR,FALSE,,,,,,,146,guitarra,Catalan,Sounds/cat_guitarra.mp3,2020-06-05_16h23.55.322,TranslationElicitation_eng-prolific,3.2.4,Win32,60,5e7b804f9379140478c688da,3.348999977,1,0,81,40,1,80
,,,,,,,,,,,,,,,,,,,,,,,,,,,,,,,,,,,,,,,,,,,,,,,,,,,146,guitarra,Catalan,Sounds/cat_guitarra.mp3,2020-06-05_16h23.55.322,TranslationElicitation_eng-prolific,3.2.4,Win32,60,5e7b804f9379140478c688da,,1,0,81,40,1,80
,,,,,,,,,,,,,,,,,,,,,,,,,,,,,,,,,,,,,,,,,n,3.650000095,N,FALSE,,,,,,,158,nas,Catalan,Sounds/cat_nas.mp3,2020-06-05_16h23.55.322,TranslationElicitation_eng-prolific,3.2.4,Win32,60,5e7b804f9379140478c688da,,1,0,81,51,1,80
,,,,,,,,,,,,,,,,,,,,,,,,,,,,,,,,,,,,,,,,,o,3.887000084,NO,FALSE,,,,,,,158,nas,Catalan,Sounds/cat_nas.mp3,2020-06-05_16h23.55.322,TranslationElicitation_eng-prolific,3.2.4,Win32,60,5e7b804f9379140478c688da,,1,0,81,51,1,80
,,,,,,,,,,,,,,,,,,,,,,,,,,,,,,,,,,,,,,,,,s,4.598999977,NOS,FALSE,,,,,,,158,nas,Catalan,Sounds/cat_nas.mp3,2020-06-05_16h23.55.322,TranslationElicitation_eng-prolific,3.2.4,Win32,60,5e7b804f9379140478c688da,,1,0,81,51,1,80
,,,,,,,,,,,,,,,,,,,,,,,,,,,,,,,,,,,,,,,,,e,4.786000013,NOSE,FALSE,,,,,,,158,nas,Catalan,Sounds/cat_nas.mp3,2020-06-05_16h23.55.322,TranslationElicitation_eng-prolific,3.2.4,Win32,60,5e7b804f9379140478c688da,,1,0,81,51,1,80
,,,,,,,,,,,,,,,,,,,,,,,,,,,,,,,,,,,,,,,,,return,5.200999975,NOSE,FALSE,,,,,,,158,nas,Catalan,Sounds/cat_nas.mp3,2020-06-05_16h23.55.322,TranslationElicitation_eng-prolific,3.2.4,Win32,60,5e7b804f9379140478c688da,5.200999975,1,0,81,51,1,80
,,,,,,,,,,,,,,,,,,,,,,,,,,,,,,,,,,,,,,,,,,,,,,,,,,,158,nas,Catalan,Sounds/cat_nas.mp3,2020-06-05_16h23.55.322,TranslationElicitation_eng-prolific,3.2.4,Win32,60,5e7b804f9379140478c688da,,1,0,81,51,1,80
,,,,,,,,,,,,,,,,,,,,,,,,,,,,,,,,,,,,,,,,,b,3.148000002,B,FALSE,,,,,,,116,bolquer,Catalan,Sounds/cat_bolquer.mp3,2020-06-05_16h23.55.322,TranslationElicitation_eng-prolific,3.2.4,Win32,60,5e7b804f9379140478c688da,,1,0,81,11,1,80
,,,,,,,,,,,,,,,,,,,,,,,,,,,,,,,,,,,,,,,,,o,3.33100009,BO,FALSE,,,,,,,116,bolquer,Catalan,Sounds/cat_bolquer.mp3,2020-06-05_16h23.55.322,TranslationElicitation_eng-prolific,3.2.4,Win32,60,5e7b804f9379140478c688da,,1,0,81,11,1,80
,,,,,,,,,,,,,,,,,,,,,,,,,,,,,,,,,,,,,,,,,u,3.414000034,BOU,FALSE,,,,,,,116,bolquer,Catalan,Sounds/cat_bolquer.mp3,2020-06-05_16h23.55.322,TranslationElicitation_eng-prolific,3.2.4,Win32,60,5e7b804f9379140478c688da,,1,0,81,11,1,80
,,,,,,,,,,,,,,,,,,,,,,,,,,,,,,,,,,,,,,,,,q,3.967000008,BOUQ,FALSE,,,,,,,116,bolquer,Catalan,Sounds/cat_bolquer.mp3,2020-06-05_16h23.55.322,TranslationElicitation_eng-prolific,3.2.4,Win32,60,5e7b804f9379140478c688da,,1,0,81,11,1,80
,,,,,,,,,,,,,,,,,,,,,,,,,,,,,,,,,,,,,,,,,u,4.480999947,BOUQU,FALSE,,,,,,,116,bolquer,Catalan,Sounds/cat_bolquer.mp3,2020-06-05_16h23.55.322,TranslationElicitation_eng-prolific,3.2.4,Win32,60,5e7b804f9379140478c688da,,1,0,81,11,1,80
,,,,,,,,,,,,,,,,,,,,,,,,,,,,,,,,,,,,,,,,,e,4.565000057,BOUQUE,FALSE,,,,,,,116,bolquer,Catalan,Sounds/cat_bolquer.mp3,2020-06-05_16h23.55.322,TranslationElicitation_eng-prolific,3.2.4,Win32,60,5e7b804f9379140478c688da,,1,0,81,11,1,80
,,,,,,,,,,,,,,,,,,,,,,,,,,,,,,,,,,,,,,,,,t,4.954999924,BOUQUET,FALSE,,,,,,,116,bolquer,Catalan,Sounds/cat_bolquer.mp3,2020-06-05_16h23.55.322,TranslationElicitation_eng-prolific,3.2.4,Win32,60,5e7b804f9379140478c688da,,1,0,81,11,1,80
,,,,,,,,,,,,,,,,,,,,,,,,,,,,,,,,,,,,,,,,,return,5.421000004,BOUQUET,FALSE,,,,,,,116,bolquer,Catalan,Sounds/cat_bolquer.mp3,2020-06-05_16h23.55.322,TranslationElicitation_eng-prolific,3.2.4,Win32,60,5e7b804f9379140478c688da,5.421000004,1,0,81,11,1,80
,,,,,,,,,,,,,,,,,,,,,,,,,,,,,,,,,,,,,,,,,,,,,,,,,,,116,bolquer,Catalan,Sounds/cat_bolquer.mp3,2020-06-05_16h23.55.322,TranslationElicitation_eng-prolific,3.2.4,Win32,60,5e7b804f9379140478c688da,,1,0,81,11,1,80
,,,,,,,,,,,,,,,,,,,,,,,,,,,,,,,,,,,,,,,,,g,2.386999846,G,FALSE,,,,,,,123,cavall,Catalan,Sounds/cat_cavall.mp3,2020-06-05_16h23.55.322,TranslationElicitation_eng-prolific,3.2.4,Win32,60,5e7b804f9379140478c688da,,1,0,81,18,1,80
,,,,,,,,,,,,,,,,,,,,,,,,,,,,,,,,,,,,,,,,,a,2.470000029,GA,FALSE,,,,,,,123,cavall,Catalan,Sounds/cat_cavall.mp3,2020-06-05_16h23.55.322,TranslationElicitation_eng-prolific,3.2.4,Win32,60,5e7b804f9379140478c688da,,1,0,81,18,1,80
,,,,,,,,,,,,,,,,,,,,,,,,,,,,,,,,,,,,,,,,,r,2.652999878,GAR,FALSE,,,,,,,123,cavall,Catalan,Sounds/cat_cavall.mp3,2020-06-05_16h23.55.322,TranslationElicitation_eng-prolific,3.2.4,Win32,60,5e7b804f9379140478c688da,,1,0,81,18,1,80
,,,,,,,,,,,,,,,,,,,,,,,,,,,,,,,,,,,,,,,,,a,2.734999895,GARA,FALSE,,,,,,,123,cavall,Catalan,Sounds/cat_cavall.mp3,2020-06-05_16h23.55.322,TranslationElicitation_eng-prolific,3.2.4,Win32,60,5e7b804f9379140478c688da,,1,0,81,18,1,80
,,,,,,,,,,,,,,,,,,,,,,,,,,,,,,,,,,,,,,,,,g,3.052999973,GARAG,FALSE,,,,,,,123,cavall,Catalan,Sounds/cat_cavall.mp3,2020-06-05_16h23.55.322,TranslationElicitation_eng-prolific,3.2.4,Win32,60,5e7b804f9379140478c688da,,1,0,81,18,1,80
,,,,,,,,,,,,,,,,,,,,,,,,,,,,,,,,,,,,,,,,,e,3.18599987,GARAGE,FALSE,,,,,,,123,cavall,Catalan,Sounds/cat_cavall.mp3,2020-06-05_16h23.55.322,TranslationElicitation_eng-prolific,3.2.4,Win32,60,5e7b804f9379140478c688da,,1,0,81,18,1,80
,,,,,,,,,,,,,,,,,,,,,,,,,,,,,,,,,,,,,,,,,return,3.682999849,GARAGE,FALSE,,,,,,,123,cavall,Catalan,Sounds/cat_cavall.mp3,2020-06-05_16h23.55.322,TranslationElicitation_eng-prolific,3.2.4,Win32,60,5e7b804f9379140478c688da,3.682999849,1,0,81,18,1,80
,,,,,,,,,,,,,,,,,,,,,,,,,,,,,,,,,,,,,,,,,,,,,,,,,,,123,cavall,Catalan,Sounds/cat_cavall.mp3,2020-06-05_16h23.55.322,TranslationElicitation_eng-prolific,3.2.4,Win32,60,5e7b804f9379140478c688da,,1,0,81,18,1,80
,,,,,,,,,,,,,,,,,,,,,,,,,,,,,,,,,,,,,,,,,l,1.84800005,L,FALSE,,,,,,,107,amanida,Catalan,Sounds/cat_amanida.mp3,2020-06-05_16h23.55.322,TranslationElicitation_eng-prolific,3.2.4,Win32,60,5e7b804f9379140478c688da,,1,0,81,3,1,80
,,,,,,,,,,,,,,,,,,,,,,,,,,,,,,,,,,,,,,,,,e,2.01699996,LE,FALSE,,,,,,,107,amanida,Catalan,Sounds/cat_amanida.mp3,2020-06-05_16h23.55.322,TranslationElicitation_eng-prolific,3.2.4,Win32,60,5e7b804f9379140478c688da,,1,0,81,3,1,80
,,,,,,,,,,,,,,,,,,,,,,,,,,,,,,,,,,,,,,,,,m,2.214999914,LEM,FALSE,,,,,,,107,amanida,Catalan,Sounds/cat_amanida.mp3,2020-06-05_16h23.55.322,TranslationElicitation_eng-prolific,3.2.4,Win32,60,5e7b804f9379140478c688da,,1,0,81,3,1,80
,,,,,,,,,,,,,,,,,,,,,,,,,,,,,,,,,,,,,,,,,o,2.298000097,LEMO,FALSE,,,,,,,107,amanida,Catalan,Sounds/cat_amanida.mp3,2020-06-05_16h23.55.322,TranslationElicitation_eng-prolific,3.2.4,Win32,60,5e7b804f9379140478c688da,,1,0,81,3,1,80
,,,,,,,,,,,,,,,,,,,,,,,,,,,,,,,,,,,,,,,,,n,2.497999907,LEMON,FALSE,,,,,,,107,amanida,Catalan,Sounds/cat_amanida.mp3,2020-06-05_16h23.55.322,TranslationElicitation_eng-prolific,3.2.4,Win32,60,5e7b804f9379140478c688da,,1,0,81,3,1,80
,,,,,,,,,,,,,,,,,,,,,,,,,,,,,,,,,,,,,,,,,o,2.68599987,LEMONO,FALSE,,,,,,,107,amanida,Catalan,Sounds/cat_amanida.mp3,2020-06-05_16h23.55.322,TranslationElicitation_eng-prolific,3.2.4,Win32,60,5e7b804f9379140478c688da,,1,0,81,3,1,80
,,,,,,,,,,,,,,,,,,,,,,,,,,,,,,,,,,,,,,,,,n,2.720000029,LEMONON,FALSE,,,,,,,107,amanida,Catalan,Sounds/cat_amanida.mp3,2020-06-05_16h23.55.322,TranslationElicitation_eng-prolific,3.2.4,Win32,60,5e7b804f9379140478c688da,,1,0,81,3,1,80
,,,,,,,,,,,,,,,,,,,,,,,,,,,,,,,,,,,,,,,,,backspace,3.280999899,LEMONO,TRUE,,,,,,,107,amanida,Catalan,Sounds/cat_amanida.mp3,2020-06-05_16h23.55.322,TranslationElicitation_eng-prolific,3.2.4,Win32,60,5e7b804f9379140478c688da,,1,0,81,3,1,80
,,,,,,,,,,,,,,,,,,,,,,,,,,,,,,,,,,,,,,,,,backspace,3.773000002,LEMON,TRUE,,,,,,,107,amanida,Catalan,Sounds/cat_amanida.mp3,2020-06-05_16h23.55.322,TranslationElicitation_eng-prolific,3.2.4,Win32,60,5e7b804f9379140478c688da,,1,0,81,3,1,80
,,,,,,,,,,,,,,,,,,,,,,,,,,,,,,,,,,,,,,,,,a,4.124000072,LEMONA,TRUE,,,,,,,107,amanida,Catalan,Sounds/cat_amanida.mp3,2020-06-05_16h23.55.322,TranslationElicitation_eng-prolific,3.2.4,Win32,60,5e7b804f9379140478c688da,,1,0,81,3,1,80
,,,,,,,,,,,,,,,,,,,,,,,,,,,,,,,,,,,,,,,,,i,4.356999874,LEMONAI,TRUE,,,,,,,107,amanida,Catalan,Sounds/cat_amanida.mp3,2020-06-05_16h23.55.322,TranslationElicitation_eng-prolific,3.2.4,Win32,60,5e7b804f9379140478c688da,,1,0,81,3,1,80
,,,,,,,,,,,,,,,,,,,,,,,,,,,,,,,,,,,,,,,,,d,4.655999899,LEMONAID,TRUE,,,,,,,107,amanida,Catalan,Sounds/cat_amanida.mp3,2020-06-05_16h23.55.322,TranslationElicitation_eng-prolific,3.2.4,Win32,60,5e7b804f9379140478c688da,,1,0,81,3,1,80
,,,,,,,,,,,,,,,,,,,,,,,,,,,,,,,,,,,,,,,,,e,4.907999992,LEMONAIDE,TRUE,,,,,,,107,amanida,Catalan,Sounds/cat_amanida.mp3,2020-06-05_16h23.55.322,TranslationElicitation_eng-prolific,3.2.4,Win32,60,5e7b804f9379140478c688da,,1,0,81,3,1,80
,,,,,,,,,,,,,,,,,,,,,,,,,,,,,,,,,,,,,,,,,backspace,5.374000072,LEMONAID,TRUE,,,,,,,107,amanida,Catalan,Sounds/cat_amanida.mp3,2020-06-05_16h23.55.322,TranslationElicitation_eng-prolific,3.2.4,Win32,60,5e7b804f9379140478c688da,,1,0,81,3,1,80
,,,,,,,,,,,,,,,,,,,,,,,,,,,,,,,,,,,,,,,,,backspace,5.555999994,LEMONAI,TRUE,,,,,,,107,amanida,Catalan,Sounds/cat_amanida.mp3,2020-06-05_16h23.55.322,TranslationElicitation_eng-prolific,3.2.4,Win32,60,5e7b804f9379140478c688da,,1,0,81,3,1,80
,,,,,,,,,,,,,,,,,,,,,,,,,,,,,,,,,,,,,,,,,backspace,5.673000097,LEMONA,TRUE,,,,,,,107,amanida,Catalan,Sounds/cat_amanida.mp3,2020-06-05_16h23.55.322,TranslationElicitation_eng-prolific,3.2.4,Win32,60,5e7b804f9379140478c688da,,1,0,81,3,1,80
,,,,,,,,,,,,,,,,,,,,,,,,,,,,,,,,,,,,,,,,,d,5.940000057,LEMONAD,TRUE,,,,,,,107,amanida,Catalan,Sounds/cat_amanida.mp3,2020-06-05_16h23.55.322,TranslationElicitation_eng-prolific,3.2.4,Win32,60,5e7b804f9379140478c688da,,1,0,81,3,1,80
,,,,,,,,,,,,,,,,,,,,,,,,,,,,,,,,,,,,,,,,,e,6.039999962,LEMONADE,TRUE,,,,,,,107,amanida,Catalan,Sounds/cat_amanida.mp3,2020-06-05_16h23.55.322,TranslationElicitation_eng-prolific,3.2.4,Win32,60,5e7b804f9379140478c688da,,1,0,81,3,1,80
,,,,,,,,,,,,,,,,,,,,,,,,,,,,,,,,,,,,,,,,,return,6.61500001,LEMONADE,TRUE,,,,,,,107,amanida,Catalan,Sounds/cat_amanida.mp3,2020-06-05_16h23.55.322,TranslationElicitation_eng-prolific,3.2.4,Win32,60,5e7b804f9379140478c688da,6.61500001,1,0,81,3,1,80
,,,,,,,,,,,,,,,,,,,,,,,,,,,,,,,,,,,,,,,,,,,,,,,,,,,107,amanida,Catalan,Sounds/cat_amanida.mp3,2020-06-05_16h23.55.322,TranslationElicitation_eng-prolific,3.2.4,Win32,60,5e7b804f9379140478c688da,,1,0,81,3,1,80
,,,,,,,,,,,,,,,,,,,,,,,,,,,,,,,,,,,,,,,,,g,2.215999842,G,FALSE,,,,,,,145,got,Catalan,Sounds/cat_got.mp3,2020-06-05_16h23.55.322,TranslationElicitation_eng-prolific,3.2.4,Win32,60,5e7b804f9379140478c688da,,1,0,81,39,1,80
,,,,,,,,,,,,,,,,,,,,,,,,,,,,,,,,,,,,,,,,,o,2.315999985,GO,FALSE,,,,,,,145,got,Catalan,Sounds/cat_got.mp3,2020-06-05_16h23.55.322,TranslationElicitation_eng-prolific,3.2.4,Win32,60,5e7b804f9379140478c688da,,1,0,81,39,1,80
,,,,,,,,,,,,,,,,,,,,,,,,,,,,,,,,,,,,,,,,,d,2.532999992,GOD,FALSE,,,,,,,145,got,Catalan,Sounds/cat_got.mp3,2020-06-05_16h23.55.322,TranslationElicitation_eng-prolific,3.2.4,Win32,60,5e7b804f9379140478c688da,,1,0,81,39,1,80
,,,,,,,,,,,,,,,,,,,,,,,,,,,,,,,,,,,,,,,,,return,2.916999817,GOD,FALSE,,,,,,,145,got,Catalan,Sounds/cat_got.mp3,2020-06-05_16h23.55.322,TranslationElicitation_eng-prolific,3.2.4,Win32,60,5e7b804f9379140478c688da,2.916999817,1,0,81,39,1,80
,,,,,,,,,,,,,,,,,,,,,,,,,,,,,,,,,,,,,,,,,,,,,,,,,,,145,got,Catalan,Sounds/cat_got.mp3,2020-06-05_16h23.55.322,TranslationElicitation_eng-prolific,3.2.4,Win32,60,5e7b804f9379140478c688da,,1,0,81,39,1,80
,,,,,,,,,,,,,,,,,,,,,,,,,,,,,,,,,,,,,,,,,a,2.817000151,A,FALSE,,,,,,,176,samarreta,Catalan,Sounds/cat_samarreta.mp3,2020-06-05_16h23.55.322,TranslationElicitation_eng-prolific,3.2.4,Win32,60,5e7b804f9379140478c688da,,1,0,81,68,1,80
,,,,,,,,,,,,,,,,,,,,,,,,,,,,,,,,,,,,,,,,,m,2.899000168,AM,FALSE,,,,,,,176,samarreta,Catalan,Sounds/cat_samarreta.mp3,2020-06-05_16h23.55.322,TranslationElicitation_eng-prolific,3.2.4,Win32,60,5e7b804f9379140478c688da,,1,0,81,68,1,80
,,,,,,,,,,,,,,,,,,,,,,,,,,,,,,,,,,,,,,,,,m,3.049000025,AMM,FALSE,,,,,,,176,samarreta,Catalan,Sounds/cat_samarreta.mp3,2020-06-05_16h23.55.322,TranslationElicitation_eng-prolific,3.2.4,Win32,60,5e7b804f9379140478c688da,,1,0,81,68,1,80
,,,,,,,,,,,,,,,,,,,,,,,,,,,,,,,,,,,,,,,,,e,3.532999992,AMME,FALSE,,,,,,,176,samarreta,Catalan,Sounds/cat_samarreta.mp3,2020-06-05_16h23.55.322,TranslationElicitation_eng-prolific,3.2.4,Win32,60,5e7b804f9379140478c688da,,1,0,81,68,1,80
,,,,,,,,,,,,,,,,,,,,,,,,,,,,,,,,,,,,,,,,,r,3.75,AMMER,FALSE,,,,,,,176,samarreta,Catalan,Sounds/cat_samarreta.mp3,2020-06-05_16h23.55.322,TranslationElicitation_eng-prolific,3.2.4,Win32,60,5e7b804f9379140478c688da,,1,0,81,68,1,80
,,,,,,,,,,,,,,,,,,,,,,,,,,,,,,,,,,,,,,,,,e,3.965000153,AMMERE,FALSE,,,,,,,176,samarreta,Catalan,Sounds/cat_samarreta.mp3,2020-06-05_16h23.55.322,TranslationElicitation_eng-prolific,3.2.4,Win32,60,5e7b804f9379140478c688da,,1,0,81,68,1,80
,,,,,,,,,,,,,,,,,,,,,,,,,,,,,,,,,,,,,,,,,t,4.338999987,AMMERET,FALSE,,,,,,,176,samarreta,Catalan,Sounds/cat_samarreta.mp3,2020-06-05_16h23.55.322,TranslationElicitation_eng-prolific,3.2.4,Win32,60,5e7b804f9379140478c688da,,1,0,81,68,1,80
,,,,,,,,,,,,,,,,,,,,,,,,,,,,,,,,,,,,,,,,,t,4.730000019,AMMERETT,FALSE,,,,,,,176,samarreta,Catalan,Sounds/cat_samarreta.mp3,2020-06-05_16h23.55.322,TranslationElicitation_eng-prolific,3.2.4,Win32,60,5e7b804f9379140478c688da,,1,0,81,68,1,80
,,,,,,,,,,,,,,,,,,,,,,,,,,,,,,,,,,,,,,,,,t,5.417999983,AMMERETTT,FALSE,,,,,,,176,samarreta,Catalan,Sounds/cat_samarreta.mp3,2020-06-05_16h23.55.322,TranslationElicitation_eng-prolific,3.2.4,Win32,60,5e7b804f9379140478c688da,,1,0,81,68,1,80
,,,,,,,,,,,,,,,,,,,,,,,,,,,,,,,,,,,,,,,,,o,5.600000143,AMMERETTTO,FALSE,,,,,,,176,samarreta,Catalan,Sounds/cat_samarreta.mp3,2020-06-05_16h23.55.322,TranslationElicitation_eng-prolific,3.2.4,Win32,60,5e7b804f9379140478c688da,,1,0,81,68,1,80
,,,,,,,,,,,,,,,,,,,,,,,,,,,,,,,,,,,,,,,,,backspace,6.149000168,AMMERETTT,TRUE,,,,,,,176,samarreta,Catalan,Sounds/cat_samarreta.mp3,2020-06-05_16h23.55.322,TranslationElicitation_eng-prolific,3.2.4,Win32,60,5e7b804f9379140478c688da,,1,0,81,68,1,80
,,,,,,,,,,,,,,,,,,,,,,,,,,,,,,,,,,,,,,,,,backspace,6.334000111,AMMERETT,TRUE,,,,,,,176,samarreta,Catalan,Sounds/cat_samarreta.mp3,2020-06-05_16h23.55.322,TranslationElicitation_eng-prolific,3.2.4,Win32,60,5e7b804f9379140478c688da,,1,0,81,68,1,80
,,,,,,,,,,,,,,,,,,,,,,,,,,,,,,,,,,,,,,,,,o,7.150000095,AMMERETTO,TRUE,,,,,,,176,samarreta,Catalan,Sounds/cat_samarreta.mp3,2020-06-05_16h23.55.322,TranslationElicitation_eng-prolific,3.2.4,Win32,60,5e7b804f9379140478c688da,,1,0,81,68,1,80
,,,,,,,,,,,,,,,,,,,,,,,,,,,,,,,,,,,,,,,,,return,7.34800005,AMMERETTO,TRUE,,,,,,,176,samarreta,Catalan,Sounds/cat_samarreta.mp3,2020-06-05_16h23.55.322,TranslationElicitation_eng-prolific,3.2.4,Win32,60,5e7b804f9379140478c688da,7.34800005,1,0,81,68,1,80
,,,,,,,,,,,,,,,,,,,,,,,,,,,,,,,,,,,,,,,,,,,,,,,,,,,176,samarreta,Catalan,Sounds/cat_samarreta.mp3,2020-06-05_16h23.55.322,TranslationElicitation_eng-prolific,3.2.4,Win32,60,5e7b804f9379140478c688da,,1,0,81,68,1,80
,,,,,,,,,,,,,,,,,,,,,,,,,,,,,,,,,,,,,,,,,g,2.6650002,G,FALSE,,,,,,,144,gorra,Catalan,Sounds/cat_gorra.mp3,2020-06-05_16h23.55.322,TranslationElicitation_eng-prolific,3.2.4,Win32,60,5e7b804f9379140478c688da,,1,0,81,38,1,80
,,,,,,,,,,,,,,,,,,,,,,,,,,,,,,,,,,,,,,,,,o,2.765000105,GO,FALSE,,,,,,,144,gorra,Catalan,Sounds/cat_gorra.mp3,2020-06-05_16h23.55.322,TranslationElicitation_eng-prolific,3.2.4,Win32,60,5e7b804f9379140478c688da,,1,0,81,38,1,80
,,,,,,,,,,,,,,,,,,,,,,,,,,,,,,,,,,,,,,,,,r,2.93200016,GOR,FALSE,,,,,,,144,gorra,Catalan,Sounds/cat_gorra.mp3,2020-06-05_16h23.55.322,TranslationElicitation_eng-prolific,3.2.4,Win32,60,5e7b804f9379140478c688da,,1,0,81,38,1,80
,,,,,,,,,,,,,,,,,,,,,,,,,,,,,,,,,,,,,,,,,e,3.167000055,GORE,FALSE,,,,,,,144,gorra,Catalan,Sounds/cat_gorra.mp3,2020-06-05_16h23.55.322,TranslationElicitation_eng-prolific,3.2.4,Win32,60,5e7b804f9379140478c688da,,1,0,81,38,1,80
,,,,,,,,,,,,,,,,,,,,,,,,,,,,,,,,,,,,,,,,,return,3.284000158,GORE,FALSE,,,,,,,144,gorra,Catalan,Sounds/cat_gorra.mp3,2020-06-05_16h23.55.322,TranslationElicitation_eng-prolific,3.2.4,Win32,60,5e7b804f9379140478c688da,3.284000158,1,0,81,38,1,80
,,,,,,,,,,,,,,,,,,,,,,,,,,,,,,,,,,,,,,,,,,,,,,,,,,,144,gorra,Catalan,Sounds/cat_gorra.mp3,2020-06-05_16h23.55.322,TranslationElicitation_eng-prolific,3.2.4,Win32,60,5e7b804f9379140478c688da,,1,0,81,38,1,80
,,,,,,,,,,,,,,,,,,,,,,,,,,,,,,,,,,,,,,,,,p,1.96600008,P,FALSE,,,,,,,173,porc,Catalan,Sounds/cat_porc.mp3,2020-06-05_16h23.55.322,TranslationElicitation_eng-prolific,3.2.4,Win32,60,5e7b804f9379140478c688da,,1,0,81,65,1,80
,,,,,,,,,,,,,,,,,,,,,,,,,,,,,,,,,,,,,,,,,o,2.016000032,PO,FALSE,,,,,,,173,porc,Catalan,Sounds/cat_porc.mp3,2020-06-05_16h23.55.322,TranslationElicitation_eng-prolific,3.2.4,Win32,60,5e7b804f9379140478c688da,,1,0,81,65,1,80
,,,,,,,,,,,,,,,,,,,,,,,,,,,,,,,,,,,,,,,,,r,2.367000103,POR,FALSE,,,,,,,173,porc,Catalan,Sounds/cat_porc.mp3,2020-06-05_16h23.55.322,TranslationElicitation_eng-prolific,3.2.4,Win32,60,5e7b804f9379140478c688da,,1,0,81,65,1,80
,,,,,,,,,,,,,,,,,,,,,,,,,,,,,,,,,,,,,,,,,j,2.534000158,PORJ,FALSE,,,,,,,173,porc,Catalan,Sounds/cat_porc.mp3,2020-06-05_16h23.55.322,TranslationElicitation_eng-prolific,3.2.4,Win32,60,5e7b804f9379140478c688da,,1,0,81,65,1,80
,,,,,,,,,,,,,,,,,,,,,,,,,,,,,,,,,,,,,,,,,backspace,3.33100009,POR,TRUE,,,,,,,173,porc,Catalan,Sounds/cat_porc.mp3,2020-06-05_16h23.55.322,TranslationElicitation_eng-prolific,3.2.4,Win32,60,5e7b804f9379140478c688da,,1,0,81,65,1,80
,,,,,,,,,,,,,,,,,,,,,,,,,,,,,,,,,,,,,,,,,k,3.680999994,PORK,TRUE,,,,,,,173,porc,Catalan,Sounds/cat_porc.mp3,2020-06-05_16h23.55.322,TranslationElicitation_eng-prolific,3.2.4,Win32,60,5e7b804f9379140478c688da,,1,0,81,65,1,80
,,,,,,,,,,,,,,,,,,,,,,,,,,,,,,,,,,,,,,,,,return,4,PORK,TRUE,,,,,,,173,porc,Catalan,Sounds/cat_porc.mp3,2020-06-05_16h23.55.322,TranslationElicitation_eng-prolific,3.2.4,Win32,60,5e7b804f9379140478c688da,4,1,0,81,65,1,80
,,,,,,,,,,,,,,,,,,,,,,,,,,,,,,,,,,,,,,,,,,,,,,,,,,,173,porc,Catalan,Sounds/cat_porc.mp3,2020-06-05_16h23.55.322,TranslationElicitation_eng-prolific,3.2.4,Win32,60,5e7b804f9379140478c688da,,1,0,81,65,1,80
,,,,,,,,,,,,,,,,,,,,,,,,,,,,,,,,,,,,,,,,,o,1.648999929,O,FALSE,,,,,,,185,ulleres,Catalan,Sounds/cat_ulleres.mp3,2020-06-05_16h23.55.322,TranslationElicitation_eng-prolific,3.2.4,Win32,60,5e7b804f9379140478c688da,,1,0,81,76,1,80
,,,,,,,,,,,,,,,,,,,,,,,,,,,,,,,,,,,,,,,,,i,1.71600008,OI,FALSE,,,,,,,185,ulleres,Catalan,Sounds/cat_ulleres.mp3,2020-06-05_16h23.55.322,TranslationElicitation_eng-prolific,3.2.4,Win32,60,5e7b804f9379140478c688da,,1,0,81,76,1,80
,,,,,,,,,,,,,,,,,,,,,,,,,,,,,,,,,,,,,,,,,l,1.933000088,OIL,FALSE,,,,,,,185,ulleres,Catalan,Sounds/cat_ulleres.mp3,2020-06-05_16h23.55.322,TranslationElicitation_eng-prolific,3.2.4,Win32,60,5e7b804f9379140478c688da,,1,0,81,76,1,80
