consentKey.keys,consentKey.rt,languageL1Key.keys,languageL1Key.rt,languageL2,languageL2OralKey.keys,languageL2OralKey.rt,languageL2WrittenKey.keys,languageL2WrittenKey.rt,languageL3OralKey.keys,languageL3OralKey.rt,languageL3WrittenKey.keys,languageL3WrittenKey.rt,languageCatalanOralKey.keys,languageCatalanOralKey.rt,languageCatalanWrittenKey.keys,languageCatalanWrittenKey.rt,languageCatalanTimeKey.keys,languageCatalanTimeKey.rt,languageSpanishOralKey.keys,languageSpanishOralKey.rt,languageSpanishWrittenKey.keys,languageSpanishWrittenKey.rt,languageSpanishTimeKey.keys,languageSpanishTimeKey.rt,age,demoSexKey.keys,demoSexKey.rt,demoEducationKey.keys,demoEducationKey.rt,city,demoVisionKey.keys,demoVisionKey.rt,demoLanguageKey.keys,demoLanguageKey.rt,setupLocationKey.keys,setupLocationKey.rt,setupNoiseKey.keys,setupNoiseKey.rt,instructionsKeys.keys,instructionsKeys.rt,keyPressed,keyPressTime,inputText,error,trialsPracticeCatalan.thisRepN,trialsPracticeCatalan.thisTrialN,trialsPracticeCatalan.thisN,trialsPracticeCatalan.thisIndex,trialsPracticeCatalan.ran,trialsPracticeCatalan.order,trial_id,word,test_language,soundfile,date,expName,psychopyVersion,OS,frameRate,participant,trialOffset,trialsCatalan.thisRepN,trialsCatalan.thisTrialN,trialsCatalan.thisN,trialsCatalan.thisIndex,trialsCatalan.ran,trialsCatalan.order
space,3.194999933,e,2.688999891,,,,,,,,,,1,4.485999823,1,2.273000002,1,6.039999962,1,6.81400013,1,1.029000044,1,2.157999992,20,m,2.546000004,3,4.29399991,MANCHESTER,y,2.078000069,n,1.749000072,1,2.373999834,1,3.458999872,space,16.09200001,o,2.565999985,O,FALSE,1,0,5,3,1,4,159,onada,Catalan,Sounds/cat_onada.mp3,2020-06-04_21h25.38.765,TranslationElicitation_eng-prolific,3.2.4,Linux x86_64,60,5e7d34b1a7cdf60009521d2a,,,,,,,
,,,,,,,,,,,,,,,,,,,,,,,,,,,,,,,,,,,,,,,,,n,2.670000076,ON,FALSE,1,0,5,3,1,4,159,onada,Catalan,Sounds/cat_onada.mp3,2020-06-04_21h25.38.765,TranslationElicitation_eng-prolific,3.2.4,Linux x86_64,60,5e7d34b1a7cdf60009521d2a,,,,,,,
,,,,,,,,,,,,,,,,,,,,,,,,,,,,,,,,,,,,,,,,,e,2.786000013,ONE,FALSE,1,0,5,3,1,4,159,onada,Catalan,Sounds/cat_onada.mp3,2020-06-04_21h25.38.765,TranslationElicitation_eng-prolific,3.2.4,Linux x86_64,60,5e7d34b1a7cdf60009521d2a,,,,,,,
,,,,,,,,,,,,,,,,,,,,,,,,,,,,,,,,,,,,,,,,,return,2.985000134,ONE,FALSE,1,0,5,3,1,4,159,onada,Catalan,Sounds/cat_onada.mp3,2020-06-04_21h25.38.765,TranslationElicitation_eng-prolific,3.2.4,Linux x86_64,60,5e7d34b1a7cdf60009521d2a,2.985000134,,,,,,
,,,,,,,,,,,,,,,,,,,,,,,,,,,,,,,,,,,,,,,,,,,,,1,0,5,3,1,4,159,onada,Catalan,Sounds/cat_onada.mp3,2020-06-04_21h25.38.765,TranslationElicitation_eng-prolific,3.2.4,Linux x86_64,60,5e7d34b1a7cdf60009521d2a,,,,,,,
,,,,,,,,,,,,,,,,,,,,,,,,,,,,,,,,,,,,,,,,,j,2.082999945,J,FALSE,1,0,5,2,1,4,147,jaqueta,Catalan,Sounds/cat_jaqueta.mp3,2020-06-04_21h25.38.765,TranslationElicitation_eng-prolific,3.2.4,Linux x86_64,60,5e7d34b1a7cdf60009521d2a,,,,,,,
,,,,,,,,,,,,,,,,,,,,,,,,,,,,,,,,,,,,,,,,,a,2.183000088,JA,FALSE,1,0,5,2,1,4,147,jaqueta,Catalan,Sounds/cat_jaqueta.mp3,2020-06-04_21h25.38.765,TranslationElicitation_eng-prolific,3.2.4,Linux x86_64,60,5e7d34b1a7cdf60009521d2a,,,,,,,
,,,,,,,,,,,,,,,,,,,,,,,,,,,,,,,,,,,,,,,,,c,2.365999937,JAC,FALSE,1,0,5,2,1,4,147,jaqueta,Catalan,Sounds/cat_jaqueta.mp3,2020-06-04_21h25.38.765,TranslationElicitation_eng-prolific,3.2.4,Linux x86_64,60,5e7d34b1a7cdf60009521d2a,,,,,,,
,,,,,,,,,,,,,,,,,,,,,,,,,,,,,,,,,,,,,,,,,k,2.588999987,JACK,FALSE,1,0,5,2,1,4,147,jaqueta,Catalan,Sounds/cat_jaqueta.mp3,2020-06-04_21h25.38.765,TranslationElicitation_eng-prolific,3.2.4,Linux x86_64,60,5e7d34b1a7cdf60009521d2a,,,,,,,
,,,,,,,,,,,,,,,,,,,,,,,,,,,,,,,,,,,,,,,,,e,2.702000141,JACKE,FALSE,1,0,5,2,1,4,147,jaqueta,Catalan,Sounds/cat_jaqueta.mp3,2020-06-04_21h25.38.765,TranslationElicitation_eng-prolific,3.2.4,Linux x86_64,60,5e7d34b1a7cdf60009521d2a,,,,,,,
,,,,,,,,,,,,,,,,,,,,,,,,,,,,,,,,,,,,,,,,,t,2.782999992,JACKET,FALSE,1,0,5,2,1,4,147,jaqueta,Catalan,Sounds/cat_jaqueta.mp3,2020-06-04_21h25.38.765,TranslationElicitation_eng-prolific,3.2.4,Linux x86_64,60,5e7d34b1a7cdf60009521d2a,,,,,,,
,,,,,,,,,,,,,,,,,,,,,,,,,,,,,,,,,,,,,,,,,return,3.034000158,JACKET,FALSE,1,0,5,2,1,4,147,jaqueta,Catalan,Sounds/cat_jaqueta.mp3,2020-06-04_21h25.38.765,TranslationElicitation_eng-prolific,3.2.4,Linux x86_64,60,5e7d34b1a7cdf60009521d2a,3.034000158,,,,,,
,,,,,,,,,,,,,,,,,,,,,,,,,,,,,,,,,,,,,,,,,,,,,1,0,5,2,1,4,147,jaqueta,Catalan,Sounds/cat_jaqueta.mp3,2020-06-04_21h25.38.765,TranslationElicitation_eng-prolific,3.2.4,Linux x86_64,60,5e7d34b1a7cdf60009521d2a,,,,,,,
,,,,,,,,,,,,,,,,,,,,,,,,,,,,,,,,,,,,,,,,,m,4.984000206,M,FALSE,1,0,5,1,1,4,126,corona,Catalan,Sounds/cat_corona.mp3,2020-06-04_21h25.38.765,TranslationElicitation_eng-prolific,3.2.4,Linux x86_64,60,5e7d34b1a7cdf60009521d2a,,,,,,,
,,,,,,,,,,,,,,,,,,,,,,,,,,,,,,,,,,,,,,,,,o,5.084000111,MO,FALSE,1,0,5,1,1,4,126,corona,Catalan,Sounds/cat_corona.mp3,2020-06-04_21h25.38.765,TranslationElicitation_eng-prolific,3.2.4,Linux x86_64,60,5e7d34b1a7cdf60009521d2a,,,,,,,
,,,,,,,,,,,,,,,,,,,,,,,,,,,,,,,,,,,,,,,,,n,5.236999989,MON,FALSE,1,0,5,1,1,4,126,corona,Catalan,Sounds/cat_corona.mp3,2020-06-04_21h25.38.765,TranslationElicitation_eng-prolific,3.2.4,Linux x86_64,60,5e7d34b1a7cdf60009521d2a,,,,,,,
,,,,,,,,,,,,,,,,,,,,,,,,,,,,,,,,,,,,,,,,,e,5.347000122,MONE,FALSE,1,0,5,1,1,4,126,corona,Catalan,Sounds/cat_corona.mp3,2020-06-04_21h25.38.765,TranslationElicitation_eng-prolific,3.2.4,Linux x86_64,60,5e7d34b1a7cdf60009521d2a,,,,,,,
,,,,,,,,,,,,,,,,,,,,,,,,,,,,,,,,,,,,,,,,,y,5.470000029,MONEY,FALSE,1,0,5,1,1,4,126,corona,Catalan,Sounds/cat_corona.mp3,2020-06-04_21h25.38.765,TranslationElicitation_eng-prolific,3.2.4,Linux x86_64,60,5e7d34b1a7cdf60009521d2a,,,,,,,
,,,,,,,,,,,,,,,,,,,,,,,,,,,,,,,,,,,,,,,,,return,5.684000015,MONEY,FALSE,1,0,5,1,1,4,126,corona,Catalan,Sounds/cat_corona.mp3,2020-06-04_21h25.38.765,TranslationElicitation_eng-prolific,3.2.4,Linux x86_64,60,5e7d34b1a7cdf60009521d2a,5.684000015,,,,,,
,,,,,,,,,,,,,,,,,,,,,,,,,,,,,,,,,,,,,,,,,,,,,1,0,5,1,1,4,126,corona,Catalan,Sounds/cat_corona.mp3,2020-06-04_21h25.38.765,TranslationElicitation_eng-prolific,3.2.4,Linux x86_64,60,5e7d34b1a7cdf60009521d2a,,,,,,,
,,,,,,,,,,,,,,,,,,,,,,,,,,,,,,,,,,,,,,,,,h,6.203000069,H,FALSE,1,0,5,0,1,4,109,arbre,Catalan,Sounds/cat_arbre.mp3,2020-06-04_21h25.38.765,TranslationElicitation_eng-prolific,3.2.4,Linux x86_64,60,5e7d34b1a7cdf60009521d2a,,,,,,,
,,,,,,,,,,,,,,,,,,,,,,,,,,,,,,,,,,,,,,,,,a,6.350000143,HA,FALSE,1,0,5,0,1,4,109,arbre,Catalan,Sounds/cat_arbre.mp3,2020-06-04_21h25.38.765,TranslationElicitation_eng-prolific,3.2.4,Linux x86_64,60,5e7d34b1a7cdf60009521d2a,,,,,,,
,,,,,,,,,,,,,,,,,,,,,,,,,,,,,,,,,,,,,,,,,r,6.400000095,HAR,FALSE,1,0,5,0,1,4,109,arbre,Catalan,Sounds/cat_arbre.mp3,2020-06-04_21h25.38.765,TranslationElicitation_eng-prolific,3.2.4,Linux x86_64,60,5e7d34b1a7cdf60009521d2a,,,,,,,
,,,,,,,,,,,,,,,,,,,,,,,,,,,,,,,,,,,,,,,,,b,6.569000006,HARB,FALSE,1,0,5,0,1,4,109,arbre,Catalan,Sounds/cat_arbre.mp3,2020-06-04_21h25.38.765,TranslationElicitation_eng-prolific,3.2.4,Linux x86_64,60,5e7d34b1a7cdf60009521d2a,,,,,,,
,,,,,,,,,,,,,,,,,,,,,,,,,,,,,,,,,,,,,,,,,i,6.667000055,HARBI,FALSE,1,0,5,0,1,4,109,arbre,Catalan,Sounds/cat_arbre.mp3,2020-06-04_21h25.38.765,TranslationElicitation_eng-prolific,3.2.4,Linux x86_64,60,5e7d34b1a7cdf60009521d2a,,,,,,,
,,,,,,,,,,,,,,,,,,,,,,,,,,,,,,,,,,,,,,,,,backspace,7.100000143,HARB,TRUE,1,0,5,0,1,4,109,arbre,Catalan,Sounds/cat_arbre.mp3,2020-06-04_21h25.38.765,TranslationElicitation_eng-prolific,3.2.4,Linux x86_64,60,5e7d34b1a7cdf60009521d2a,,,,,,,
,,,,,,,,,,,,,,,,,,,,,,,,,,,,,,,,,,,,,,,,,o,7.340000153,HARBO,TRUE,1,0,5,0,1,4,109,arbre,Catalan,Sounds/cat_arbre.mp3,2020-06-04_21h25.38.765,TranslationElicitation_eng-prolific,3.2.4,Linux x86_64,60,5e7d34b1a7cdf60009521d2a,,,,,,,
,,,,,,,,,,,,,,,,,,,,,,,,,,,,,,,,,,,,,,,,,u,7.567000151,HARBOU,TRUE,1,0,5,0,1,4,109,arbre,Catalan,Sounds/cat_arbre.mp3,2020-06-04_21h25.38.765,TranslationElicitation_eng-prolific,3.2.4,Linux x86_64,60,5e7d34b1a7cdf60009521d2a,,,,,,,
,,,,,,,,,,,,,,,,,,,,,,,,,,,,,,,,,,,,,,,,,r,7.717000008,HARBOUR,TRUE,1,0,5,0,1,4,109,arbre,Catalan,Sounds/cat_arbre.mp3,2020-06-04_21h25.38.765,TranslationElicitation_eng-prolific,3.2.4,Linux x86_64,60,5e7d34b1a7cdf60009521d2a,,,,,,,
,,,,,,,,,,,,,,,,,,,,,,,,,,,,,,,,,,,,,,,,,return,7.785000086,HARBOUR,TRUE,1,0,5,0,1,4,109,arbre,Catalan,Sounds/cat_arbre.mp3,2020-06-04_21h25.38.765,TranslationElicitation_eng-prolific,3.2.4,Linux x86_64,60,5e7d34b1a7cdf60009521d2a,7.785000086,,,,,,
,,,,,,,,,,,,,,,,,,,,,,,,,,,,,,,,,,,,,,,,,,,,,1,0,5,0,1,4,109,arbre,Catalan,Sounds/cat_arbre.mp3,2020-06-04_21h25.38.765,TranslationElicitation_eng-prolific,3.2.4,Linux x86_64,60,5e7d34b1a7cdf60009521d2a,,,,,,,
,,,,,,,,,,,,,,,,,,,,,,,,,,,,,,,,,,,,,,,,,t,2.982999802,T,FALSE,1,0,5,4,1,4,179,tigre,Catalan,Sounds/cat_tigre.mp3,2020-06-04_21h25.38.765,TranslationElicitation_eng-prolific,3.2.4,Linux x86_64,60,5e7d34b1a7cdf60009521d2a,,,,,,,
,,,,,,,,,,,,,,,,,,,,,,,,,,,,,,,,,,,,,,,,,i,3.099999905,TI,FALSE,1,0,5,4,1,4,179,tigre,Catalan,Sounds/cat_tigre.mp3,2020-06-04_21h25.38.765,TranslationElicitation_eng-prolific,3.2.4,Linux x86_64,60,5e7d34b1a7cdf60009521d2a,,,,,,,
,,,,,,,,,,,,,,,,,,,,,,,,,,,,,,,,,,,,,,,,,g,3.183999777,TIG,FALSE,1,0,5,4,1,4,179,tigre,Catalan,Sounds/cat_tigre.mp3,2020-06-04_21h25.38.765,TranslationElicitation_eng-prolific,3.2.4,Linux x86_64,60,5e7d34b1a7cdf60009521d2a,,,,,,,
,,,,,,,,,,,,,,,,,,,,,,,,,,,,,,,,,,,,,,,,,e,3.31799984,TIGE,FALSE,1,0,5,4,1,4,179,tigre,Catalan,Sounds/cat_tigre.mp3,2020-06-04_21h25.38.765,TranslationElicitation_eng-prolific,3.2.4,Linux x86_64,60,5e7d34b1a7cdf60009521d2a,,,,,,,
,,,,,,,,,,,,,,,,,,,,,,,,,,,,,,,,,,,,,,,,,r,3.365999937,TIGER,FALSE,1,0,5,4,1,4,179,tigre,Catalan,Sounds/cat_tigre.mp3,2020-06-04_21h25.38.765,TranslationElicitation_eng-prolific,3.2.4,Linux x86_64,60,5e7d34b1a7cdf60009521d2a,,,,,,,
,,,,,,,,,,,,,,,,,,,,,,,,,,,,,,,,,,,,,,,,,return,3.465999842,TIGER,FALSE,1,0,5,4,1,4,179,tigre,Catalan,Sounds/cat_tigre.mp3,2020-06-04_21h25.38.765,TranslationElicitation_eng-prolific,3.2.4,Linux x86_64,60,5e7d34b1a7cdf60009521d2a,3.465999842,,,,,,
,,,,,,,,,,,,,,,,,,,,,,,,,,,,,,,,,,,,,,,,,,,,,1,0,5,4,1,4,179,tigre,Catalan,Sounds/cat_tigre.mp3,2020-06-04_21h25.38.765,TranslationElicitation_eng-prolific,3.2.4,Linux x86_64,60,5e7d34b1a7cdf60009521d2a,,,,,,,
,,,,,,,,,,,,,,,,,,,,,,,,,,,,,,,,,,,,,,,,,c,4.429999828,C,FALSE,,,,,,,121,camisa,Catalan,Sounds/cat_camisa.mp3,2020-06-04_21h25.38.765,TranslationElicitation_eng-prolific,3.2.4,Linux x86_64,60,5e7d34b1a7cdf60009521d2a,,1,0,81,16,1,80
,,,,,,,,,,,,,,,,,,,,,,,,,,,,,,,,,,,,,,,,,a,4.502999783,CA,FALSE,,,,,,,121,camisa,Catalan,Sounds/cat_camisa.mp3,2020-06-04_21h25.38.765,TranslationElicitation_eng-prolific,3.2.4,Linux x86_64,60,5e7d34b1a7cdf60009521d2a,,1,0,81,16,1,80
,,,,,,,,,,,,,,,,,,,,,,,,,,,,,,,,,,,,,,,,,m,4.549999952,CAM,FALSE,,,,,,,121,camisa,Catalan,Sounds/cat_camisa.mp3,2020-06-04_21h25.38.765,TranslationElicitation_eng-prolific,3.2.4,Linux x86_64,60,5e7d34b1a7cdf60009521d2a,,1,0,81,16,1,80
,,,,,,,,,,,,,,,,,,,,,,,,,,,,,,,,,,,,,,,,,i,4.671999931,CAMI,FALSE,,,,,,,121,camisa,Catalan,Sounds/cat_camisa.mp3,2020-06-04_21h25.38.765,TranslationElicitation_eng-prolific,3.2.4,Linux x86_64,60,5e7d34b1a7cdf60009521d2a,,1,0,81,16,1,80
,,,,,,,,,,,,,,,,,,,,,,,,,,,,,,,,,,,,,,,,,s,4.859999895,CAMIS,FALSE,,,,,,,121,camisa,Catalan,Sounds/cat_camisa.mp3,2020-06-04_21h25.38.765,TranslationElicitation_eng-prolific,3.2.4,Linux x86_64,60,5e7d34b1a7cdf60009521d2a,,1,0,81,16,1,80
,,,,,,,,,,,,,,,,,,,,,,,,,,,,,,,,,,,,,,,,,o,4.978999853,CAMISO,FALSE,,,,,,,121,camisa,Catalan,Sounds/cat_camisa.mp3,2020-06-04_21h25.38.765,TranslationElicitation_eng-prolific,3.2.4,Linux x86_64,60,5e7d34b1a7cdf60009521d2a,,1,0,81,16,1,80
,,,,,,,,,,,,,,,,,,,,,,,,,,,,,,,,,,,,,,,,,l,5.153999805,CAMISOL,FALSE,,,,,,,121,camisa,Catalan,Sounds/cat_camisa.mp3,2020-06-04_21h25.38.765,TranslationElicitation_eng-prolific,3.2.4,Linux x86_64,60,5e7d34b1a7cdf60009521d2a,,1,0,81,16,1,80
,,,,,,,,,,,,,,,,,,,,,,,,,,,,,,,,,,,,,,,,,e,5.330999851,CAMISOLE,FALSE,,,,,,,121,camisa,Catalan,Sounds/cat_camisa.mp3,2020-06-04_21h25.38.765,TranslationElicitation_eng-prolific,3.2.4,Linux x86_64,60,5e7d34b1a7cdf60009521d2a,,1,0,81,16,1,80
,,,,,,,,,,,,,,,,,,,,,,,,,,,,,,,,,,,,,,,,,return,5.451999903,CAMISOLE,FALSE,,,,,,,121,camisa,Catalan,Sounds/cat_camisa.mp3,2020-06-04_21h25.38.765,TranslationElicitation_eng-prolific,3.2.4,Linux x86_64,60,5e7d34b1a7cdf60009521d2a,5.451999903,1,0,81,16,1,80
,,,,,,,,,,,,,,,,,,,,,,,,,,,,,,,,,,,,,,,,,,,,,,,,,,,121,camisa,Catalan,Sounds/cat_camisa.mp3,2020-06-04_21h25.38.765,TranslationElicitation_eng-prolific,3.2.4,Linux x86_64,60,5e7d34b1a7cdf60009521d2a,,1,0,81,16,1,80
,,,,,,,,,,,,,,,,,,,,,,,,,,,,,,,,,,,,,,,,,s,6.01699996,S,FALSE,,,,,,,187,vaixell,Catalan,Sounds/cat_vaixell.mp3,2020-06-04_21h25.38.765,TranslationElicitation_eng-prolific,3.2.4,Linux x86_64,60,5e7d34b1a7cdf60009521d2a,,1,0,81,78,1,80
,,,,,,,,,,,,,,,,,,,,,,,,,,,,,,,,,,,,,,,,,e,6.099999905,SE,FALSE,,,,,,,187,vaixell,Catalan,Sounds/cat_vaixell.mp3,2020-06-04_21h25.38.765,TranslationElicitation_eng-prolific,3.2.4,Linux x86_64,60,5e7d34b1a7cdf60009521d2a,,1,0,81,78,1,80
,,,,,,,,,,,,,,,,,,,,,,,,,,,,,,,,,,,,,,,,,a,6.28399992,SEA,FALSE,,,,,,,187,vaixell,Catalan,Sounds/cat_vaixell.mp3,2020-06-04_21h25.38.765,TranslationElicitation_eng-prolific,3.2.4,Linux x86_64,60,5e7d34b1a7cdf60009521d2a,,1,0,81,78,1,80
,,,,,,,,,,,,,,,,,,,,,,,,,,,,,,,,,,,,,,,,,s,6.522000074,SEAS,FALSE,,,,,,,187,vaixell,Catalan,Sounds/cat_vaixell.mp3,2020-06-04_21h25.38.765,TranslationElicitation_eng-prolific,3.2.4,Linux x86_64,60,5e7d34b1a7cdf60009521d2a,,1,0,81,78,1,80
,,,,,,,,,,,,,,,,,,,,,,,,,,,,,,,,,,,,,,,,,h,6.717999935,SEASH,FALSE,,,,,,,187,vaixell,Catalan,Sounds/cat_vaixell.mp3,2020-06-04_21h25.38.765,TranslationElicitation_eng-prolific,3.2.4,Linux x86_64,60,5e7d34b1a7cdf60009521d2a,,1,0,81,78,1,80
,,,,,,,,,,,,,,,,,,,,,,,,,,,,,,,,,,,,,,,,,e,6.816999912,SEASHE,FALSE,,,,,,,187,vaixell,Catalan,Sounds/cat_vaixell.mp3,2020-06-04_21h25.38.765,TranslationElicitation_eng-prolific,3.2.4,Linux x86_64,60,5e7d34b1a7cdf60009521d2a,,1,0,81,78,1,80
,,,,,,,,,,,,,,,,,,,,,,,,,,,,,,,,,,,,,,,,,l,6.933000088,SEASHEL,FALSE,,,,,,,187,vaixell,Catalan,Sounds/cat_vaixell.mp3,2020-06-04_21h25.38.765,TranslationElicitation_eng-prolific,3.2.4,Linux x86_64,60,5e7d34b1a7cdf60009521d2a,,1,0,81,78,1,80
,,,,,,,,,,,,,,,,,,,,,,,,,,,,,,,,,,,,,,,,,l,7.040999889,SEASHELL,FALSE,,,,,,,187,vaixell,Catalan,Sounds/cat_vaixell.mp3,2020-06-04_21h25.38.765,TranslationElicitation_eng-prolific,3.2.4,Linux x86_64,60,5e7d34b1a7cdf60009521d2a,,1,0,81,78,1,80
,,,,,,,,,,,,,,,,,,,,,,,,,,,,,,,,,,,,,,,,,return,7.200999975,SEASHELL,FALSE,,,,,,,187,vaixell,Catalan,Sounds/cat_vaixell.mp3,2020-06-04_21h25.38.765,TranslationElicitation_eng-prolific,3.2.4,Linux x86_64,60,5e7d34b1a7cdf60009521d2a,7.200999975,1,0,81,78,1,80
,,,,,,,,,,,,,,,,,,,,,,,,,,,,,,,,,,,,,,,,,,,,,,,,,,,187,vaixell,Catalan,Sounds/cat_vaixell.mp3,2020-06-04_21h25.38.765,TranslationElicitation_eng-prolific,3.2.4,Linux x86_64,60,5e7d34b1a7cdf60009521d2a,,1,0,81,78,1,80
,,,,,,,,,,,,,,,,,,,,,,,,,,,,,,,,,,,,,,,,,f,4.811000109,F,FALSE,,,,,,,134,flor,Catalan,Sounds/cat_flor.mp3,2020-06-04_21h25.38.765,TranslationElicitation_eng-prolific,3.2.4,Linux x86_64,60,5e7d34b1a7cdf60009521d2a,,1,0,81,28,1,80
,,,,,,,,,,,,,,,,,,,,,,,,,,,,,,,,,,,,,,,,,l,4.91899991,FL,FALSE,,,,,,,134,flor,Catalan,Sounds/cat_flor.mp3,2020-06-04_21h25.38.765,TranslationElicitation_eng-prolific,3.2.4,Linux x86_64,60,5e7d34b1a7cdf60009521d2a,,1,0,81,28,1,80
,,,,,,,,,,,,,,,,,,,,,,,,,,,,,,,,,,,,,,,,,o,5.084000111,FLO,FALSE,,,,,,,134,flor,Catalan,Sounds/cat_flor.mp3,2020-06-04_21h25.38.765,TranslationElicitation_eng-prolific,3.2.4,Linux x86_64,60,5e7d34b1a7cdf60009521d2a,,1,0,81,28,1,80
,,,,,,,,,,,,,,,,,,,,,,,,,,,,,,,,,,,,,,,,,w,5.135999918,FLOW,FALSE,,,,,,,134,flor,Catalan,Sounds/cat_flor.mp3,2020-06-04_21h25.38.765,TranslationElicitation_eng-prolific,3.2.4,Linux x86_64,60,5e7d34b1a7cdf60009521d2a,,1,0,81,28,1,80
,,,,,,,,,,,,,,,,,,,,,,,,,,,,,,,,,,,,,,,,,return,5.328999996,FLOW,FALSE,,,,,,,134,flor,Catalan,Sounds/cat_flor.mp3,2020-06-04_21h25.38.765,TranslationElicitation_eng-prolific,3.2.4,Linux x86_64,60,5e7d34b1a7cdf60009521d2a,5.328999996,1,0,81,28,1,80
,,,,,,,,,,,,,,,,,,,,,,,,,,,,,,,,,,,,,,,,,,,,,,,,,,,134,flor,Catalan,Sounds/cat_flor.mp3,2020-06-04_21h25.38.765,TranslationElicitation_eng-prolific,3.2.4,Linux x86_64,60,5e7d34b1a7cdf60009521d2a,,1,0,81,28,1,80
,,,,,,,,,,,,,,,,,,,,,,,,,,,,,,,,,,,,,,,,,t,10.76999998,T,FALSE,,,,,,,185,ulleres,Catalan,Sounds/cat_ulleres.mp3,2020-06-04_21h25.38.765,TranslationElicitation_eng-prolific,3.2.4,Linux x86_64,60,5e7d34b1a7cdf60009521d2a,,1,0,81,76,1,80
,,,,,,,,,,,,,,,,,,,,,,,,,,,,,,,,,,,,,,,,,i,10.89899993,TI,FALSE,,,,,,,185,ulleres,Catalan,Sounds/cat_ulleres.mp3,2020-06-04_21h25.38.765,TranslationElicitation_eng-prolific,3.2.4,Linux x86_64,60,5e7d34b1a7cdf60009521d2a,,1,0,81,76,1,80
,,,,,,,,,,,,,,,,,,,,,,,,,,,,,,,,,,,,,,,,,g,10.98399997,TIG,FALSE,,,,,,,185,ulleres,Catalan,Sounds/cat_ulleres.mp3,2020-06-04_21h25.38.765,TranslationElicitation_eng-prolific,3.2.4,Linux x86_64,60,5e7d34b1a7cdf60009521d2a,,1,0,81,76,1,80
,,,,,,,,,,,,,,,,,,,,,,,,,,,,,,,,,,,,,,,,,h,11.08299994,TIGH,FALSE,,,,,,,185,ulleres,Catalan,Sounds/cat_ulleres.mp3,2020-06-04_21h25.38.765,TranslationElicitation_eng-prolific,3.2.4,Linux x86_64,60,5e7d34b1a7cdf60009521d2a,,1,0,81,76,1,80
,,,,,,,,,,,,,,,,,,,,,,,,,,,,,,,,,,,,,,,,,t,11.16599989,TIGHT,FALSE,,,,,,,185,ulleres,Catalan,Sounds/cat_ulleres.mp3,2020-06-04_21h25.38.765,TranslationElicitation_eng-prolific,3.2.4,Linux x86_64,60,5e7d34b1a7cdf60009521d2a,,1,0,81,76,1,80
,,,,,,,,,,,,,,,,,,,,,,,,,,,,,,,,,,,,,,,,,s,11.26699996,TIGHTS,FALSE,,,,,,,185,ulleres,Catalan,Sounds/cat_ulleres.mp3,2020-06-04_21h25.38.765,TranslationElicitation_eng-prolific,3.2.4,Linux x86_64,60,5e7d34b1a7cdf60009521d2a,,1,0,81,76,1,80
,,,,,,,,,,,,,,,,,,,,,,,,,,,,,,,,,,,,,,,,,return,11.40099978,TIGHTS,FALSE,,,,,,,185,ulleres,Catalan,Sounds/cat_ulleres.mp3,2020-06-04_21h25.38.765,TranslationElicitation_eng-prolific,3.2.4,Linux x86_64,60,5e7d34b1a7cdf60009521d2a,11.40099978,1,0,81,76,1,80
,,,,,,,,,,,,,,,,,,,,,,,,,,,,,,,,,,,,,,,,,,,,,,,,,,,185,ulleres,Catalan,Sounds/cat_ulleres.mp3,2020-06-04_21h25.38.765,TranslationElicitation_eng-prolific,3.2.4,Linux x86_64,60,5e7d34b1a7cdf60009521d2a,,1,0,81,76,1,80
,,,,,,,,,,,,,,,,,,,,,,,,,,,,,,,,,,,,,,,,,p,5.049999952,P,FALSE,,,,,,,169,plat,Catalan,Sounds/cat_plat.mp3,2020-06-04_21h25.38.765,TranslationElicitation_eng-prolific,3.2.4,Linux x86_64,60,5e7d34b1a7cdf60009521d2a,,1,0,81,61,1,80
,,,,,,,,,,,,,,,,,,,,,,,,,,,,,,,,,,,,,,,,,l,5.15199995,PL,FALSE,,,,,,,169,plat,Catalan,Sounds/cat_plat.mp3,2020-06-04_21h25.38.765,TranslationElicitation_eng-prolific,3.2.4,Linux x86_64,60,5e7d34b1a7cdf60009521d2a,,1,0,81,61,1,80
,,,,,,,,,,,,,,,,,,,,,,,,,,,,,,,,,,,,,,,,,a,5.322000027,PLA,FALSE,,,,,,,169,plat,Catalan,Sounds/cat_plat.mp3,2020-06-04_21h25.38.765,TranslationElicitation_eng-prolific,3.2.4,Linux x86_64,60,5e7d34b1a7cdf60009521d2a,,1,0,81,61,1,80
,,,,,,,,,,,,,,,,,,,,,,,,,,,,,,,,,,,,,,,,,q,6.476000071,PLAQ,FALSE,,,,,,,169,plat,Catalan,Sounds/cat_plat.mp3,2020-06-04_21h25.38.765,TranslationElicitation_eng-prolific,3.2.4,Linux x86_64,60,5e7d34b1a7cdf60009521d2a,,1,0,81,61,1,80
,,,,,,,,,,,,,,,,,,,,,,,,,,,,,,,,,,,,,,,,,u,6.565999985,PLAQU,FALSE,,,,,,,169,plat,Catalan,Sounds/cat_plat.mp3,2020-06-04_21h25.38.765,TranslationElicitation_eng-prolific,3.2.4,Linux x86_64,60,5e7d34b1a7cdf60009521d2a,,1,0,81,61,1,80
,,,,,,,,,,,,,,,,,,,,,,,,,,,,,,,,,,,,,,,,,e,6.700999975,PLAQUE,FALSE,,,,,,,169,plat,Catalan,Sounds/cat_plat.mp3,2020-06-04_21h25.38.765,TranslationElicitation_eng-prolific,3.2.4,Linux x86_64,60,5e7d34b1a7cdf60009521d2a,,1,0,81,61,1,80
,,,,,,,,,,,,,,,,,,,,,,,,,,,,,,,,,,,,,,,,,return,7.281000137,PLAQUE,FALSE,,,,,,,169,plat,Catalan,Sounds/cat_plat.mp3,2020-06-04_21h25.38.765,TranslationElicitation_eng-prolific,3.2.4,Linux x86_64,60,5e7d34b1a7cdf60009521d2a,7.281000137,1,0,81,61,1,80
,,,,,,,,,,,,,,,,,,,,,,,,,,,,,,,,,,,,,,,,,,,,,,,,,,,169,plat,Catalan,Sounds/cat_plat.mp3,2020-06-04_21h25.38.765,TranslationElicitation_eng-prolific,3.2.4,Linux x86_64,60,5e7d34b1a7cdf60009521d2a,,1,0,81,61,1,80
,,,,,,,,,,,,,,,,,,,,,,,,,,,,,,,,,,,,,,,,,m,12.4690001,M,FALSE,,,,,,,153,mico,Catalan,Sounds/cat_mico.mp3,2020-06-04_21h25.38.765,TranslationElicitation_eng-prolific,3.2.4,Linux x86_64,60,5e7d34b1a7cdf60009521d2a,,1,0,81,46,1,80
,,,,,,,,,,,,,,,,,,,,,,,,,,,,,,,,,,,,,,,,,i,12.57800007,MI,FALSE,,,,,,,153,mico,Catalan,Sounds/cat_mico.mp3,2020-06-04_21h25.38.765,TranslationElicitation_eng-prolific,3.2.4,Linux x86_64,60,5e7d34b1a7cdf60009521d2a,,1,0,81,46,1,80
,,,,,,,,,,,,,,,,,,,,,,,,,,,,,,,,,,,,,,,,,c,12.67700005,MIC,FALSE,,,,,,,153,mico,Catalan,Sounds/cat_mico.mp3,2020-06-04_21h25.38.765,TranslationElicitation_eng-prolific,3.2.4,Linux x86_64,60,5e7d34b1a7cdf60009521d2a,,1,0,81,46,1,80
,,,,,,,,,,,,,,,,,,,,,,,,,,,,,,,,,,,,,,,,,r,12.80000019,MICR,FALSE,,,,,,,153,mico,Catalan,Sounds/cat_mico.mp3,2020-06-04_21h25.38.765,TranslationElicitation_eng-prolific,3.2.4,Linux x86_64,60,5e7d34b1a7cdf60009521d2a,,1,0,81,46,1,80
,,,,,,,,,,,,,,,,,,,,,,,,,,,,,,,,,,,,,,,,,p,13.06600022,MICRP,FALSE,,,,,,,153,mico,Catalan,Sounds/cat_mico.mp3,2020-06-04_21h25.38.765,TranslationElicitation_eng-prolific,3.2.4,Linux x86_64,60,5e7d34b1a7cdf60009521d2a,,1,0,81,46,1,80
,,,,,,,,,,,,,,,,,,,,,,,,,,,,,,,,,,,,,,,,,backspace,13.63400006,MICR,TRUE,,,,,,,153,mico,Catalan,Sounds/cat_mico.mp3,2020-06-04_21h25.38.765,TranslationElicitation_eng-prolific,3.2.4,Linux x86_64,60,5e7d34b1a7cdf60009521d2a,,1,0,81,46,1,80
,,,,,,,,,,,,,,,,,,,,,,,,,,,,,,,,,,,,,,,,,o,13.89300013,MICRO,TRUE,,,,,,,153,mico,Catalan,Sounds/cat_mico.mp3,2020-06-04_21h25.38.765,TranslationElicitation_eng-prolific,3.2.4,Linux x86_64,60,5e7d34b1a7cdf60009521d2a,,1,0,81,46,1,80
,,,,,,,,,,,,,,,,,,,,,,,,,,,,,,,,,,,,,,,,,p,14.13400006,MICROP,TRUE,,,,,,,153,mico,Catalan,Sounds/cat_mico.mp3,2020-06-04_21h25.38.765,TranslationElicitation_eng-prolific,3.2.4,Linux x86_64,60,5e7d34b1a7cdf60009521d2a,,1,0,81,46,1,80
,,,,,,,,,,,,,,,,,,,,,,,,,,,,,,,,,,,,,,,,,h,14.31600022,MICROPH,TRUE,,,,,,,153,mico,Catalan,Sounds/cat_mico.mp3,2020-06-04_21h25.38.765,TranslationElicitation_eng-prolific,3.2.4,Linux x86_64,60,5e7d34b1a7cdf60009521d2a,,1,0,81,46,1,80
,,,,,,,,,,,,,,,,,,,,,,,,,,,,,,,,,,,,,,,,,o,14.43600011,MICROPHO,TRUE,,,,,,,153,mico,Catalan,Sounds/cat_mico.mp3,2020-06-04_21h25.38.765,TranslationElicitation_eng-prolific,3.2.4,Linux x86_64,60,5e7d34b1a7cdf60009521d2a,,1,0,81,46,1,80
,,,,,,,,,,,,,,,,,,,,,,,,,,,,,,,,,,,,,,,,,n,14.51900005,MICROPHON,TRUE,,,,,,,153,mico,Catalan,Sounds/cat_mico.mp3,2020-06-04_21h25.38.765,TranslationElicitation_eng-prolific,3.2.4,Linux x86_64,60,5e7d34b1a7cdf60009521d2a,,1,0,81,46,1,80
,,,,,,,,,,,,,,,,,,,,,,,,,,,,,,,,,,,,,,,,,e,14.63400006,MICROPHONE,TRUE,,,,,,,153,mico,Catalan,Sounds/cat_mico.mp3,2020-06-04_21h25.38.765,TranslationElicitation_eng-prolific,3.2.4,Linux x86_64,60,5e7d34b1a7cdf60009521d2a,,1,0,81,46,1,80
,,,,,,,,,,,,,,,,,,,,,,,,,,,,,,,,,,,,,,,,,return,14.73300004,MICROPHONE,TRUE,,,,,,,153,mico,Catalan,Sounds/cat_mico.mp3,2020-06-04_21h25.38.765,TranslationElicitation_eng-prolific,3.2.4,Linux x86_64,60,5e7d34b1a7cdf60009521d2a,14.73300004,1,0,81,46,1,80
,,,,,,,,,,,,,,,,,,,,,,,,,,,,,,,,,,,,,,,,,,,,,,,,,,,153,mico,Catalan,Sounds/cat_mico.mp3,2020-06-04_21h25.38.765,TranslationElicitation_eng-prolific,3.2.4,Linux x86_64,60,5e7d34b1a7cdf60009521d2a,,1,0,81,46,1,80
,,,,,,,,,,,,,,,,,,,,,,,,,,,,,,,,,,,,,,,,,d,11.80000019,D,FALSE,,,,,,,176,samarreta,Catalan,Sounds/cat_samarreta.mp3,2020-06-04_21h25.38.765,TranslationElicitation_eng-prolific,3.2.4,Linux x86_64,60,5e7d34b1a7cdf60009521d2a,,1,0,81,68,1,80
,,,,,,,,,,,,,,,,,,,,,,,,,,,,,,,,,,,,,,,,,n,12.09900022,DN,FALSE,,,,,,,176,samarreta,Catalan,Sounds/cat_samarreta.mp3,2020-06-04_21h25.38.765,TranslationElicitation_eng-prolific,3.2.4,Linux x86_64,60,5e7d34b1a7cdf60009521d2a,,1,0,81,68,1,80
,,,,,,,,,,,,,,,,,,,,,,,,,,,,,,,,,,,,,,,,,c,12.20000005,DNC,FALSE,,,,,,,176,samarreta,Catalan,Sounds/cat_samarreta.mp3,2020-06-04_21h25.38.765,TranslationElicitation_eng-prolific,3.2.4,Linux x86_64,60,5e7d34b1a7cdf60009521d2a,,1,0,81,68,1,80
,,,,,,,,,,,,,,,,,,,,,,,,,,,,,,,,,,,,,,,,,backspace,12.56100011,DN,TRUE,,,,,,,176,samarreta,Catalan,Sounds/cat_samarreta.mp3,2020-06-04_21h25.38.765,TranslationElicitation_eng-prolific,3.2.4,Linux x86_64,60,5e7d34b1a7cdf60009521d2a,,1,0,81,68,1,80
,,,,,,,,,,,,,,,,,,,,,,,,,,,,,,,,,,,,,,,,,backspace,12.67800021,D,TRUE,,,,,,,176,samarreta,Catalan,Sounds/cat_samarreta.mp3,2020-06-04_21h25.38.765,TranslationElicitation_eng-prolific,3.2.4,Linux x86_64,60,5e7d34b1a7cdf60009521d2a,,1,0,81,68,1,80
,,,,,,,,,,,,,,,,,,,,,,,,,,,,,,,,,,,,,,,,,a,12.77200007,DA,TRUE,,,,,,,176,samarreta,Catalan,Sounds/cat_samarreta.mp3,2020-06-04_21h25.38.765,TranslationElicitation_eng-prolific,3.2.4,Linux x86_64,60,5e7d34b1a7cdf60009521d2a,,1,0,81,68,1,80
,,,,,,,,,,,,,,,,,,,,,,,,,,,,,,,,,,,,,,,,,c,13.06000018,DAC,TRUE,,,,,,,176,samarreta,Catalan,Sounds/cat_samarreta.mp3,2020-06-04_21h25.38.765,TranslationElicitation_eng-prolific,3.2.4,Linux x86_64,60,5e7d34b1a7cdf60009521d2a,,1,0,81,68,1,80
,,,,,,,,,,,,,,,,,,,,,,,,,,,,,,,,,,,,,,,,,backspace,13.32500005,DA,TRUE,,,,,,,176,samarreta,Catalan,Sounds/cat_samarreta.mp3,2020-06-04_21h25.38.765,TranslationElicitation_eng-prolific,3.2.4,Linux x86_64,60,5e7d34b1a7cdf60009521d2a,,1,0,81,68,1,80
,,,,,,,,,,,,,,,,,,,,,,,,,,,,,,,,,,,,,,,,,n,13.52100015,DAN,TRUE,,,,,,,176,samarreta,Catalan,Sounds/cat_samarreta.mp3,2020-06-04_21h25.38.765,TranslationElicitation_eng-prolific,3.2.4,Linux x86_64,60,5e7d34b1a7cdf60009521d2a,,1,0,81,68,1,80
,,,,,,,,,,,,,,,,,,,,,,,,,,,,,,,,,,,,,,,,,c,13.60100007,DANC,TRUE,,,,,,,176,samarreta,Catalan,Sounds/cat_samarreta.mp3,2020-06-04_21h25.38.765,TranslationElicitation_eng-prolific,3.2.4,Linux x86_64,60,5e7d34b1a7cdf60009521d2a,,1,0,81,68,1,80
,,,,,,,,,,,,,,,,,,,,,,,,,,,,,,,,,,,,,,,,,i,13.63400006,DANCI,TRUE,,,,,,,176,samarreta,Catalan,Sounds/cat_samarreta.mp3,2020-06-04_21h25.38.765,TranslationElicitation_eng-prolific,3.2.4,Linux x86_64,60,5e7d34b1a7cdf60009521d2a,,1,0,81,68,1,80
,,,,,,,,,,,,,,,,,,,,,,,,,,,,,,,,,,,,,,,,,n,13.71700001,DANCIN,TRUE,,,,,,,176,samarreta,Catalan,Sounds/cat_samarreta.mp3,2020-06-04_21h25.38.765,TranslationElicitation_eng-prolific,3.2.4,Linux x86_64,60,5e7d34b1a7cdf60009521d2a,,1,0,81,68,1,80
,,,,,,,,,,,,,,,,,,,,,,,,,,,,,,,,,,,,,,,,,g,13.80000019,DANCING,TRUE,,,,,,,176,samarreta,Catalan,Sounds/cat_samarreta.mp3,2020-06-04_21h25.38.765,TranslationElicitation_eng-prolific,3.2.4,Linux x86_64,60,5e7d34b1a7cdf60009521d2a,,1,0,81,68,1,80
,,,,,,,,,,,,,,,,,,,,,,,,,,,,,,,,,,,,,,,,,return,14.2670002,DANCING,TRUE,,,,,,,176,samarreta,Catalan,Sounds/cat_samarreta.mp3,2020-06-04_21h25.38.765,TranslationElicitation_eng-prolific,3.2.4,Linux x86_64,60,5e7d34b1a7cdf60009521d2a,14.2670002,1,0,81,68,1,80
,,,,,,,,,,,,,,,,,,,,,,,,,,,,,,,,,,,,,,,,,,,,,,,,,,,176,samarreta,Catalan,Sounds/cat_samarreta.mp3,2020-06-04_21h25.38.765,TranslationElicitation_eng-prolific,3.2.4,Linux x86_64,60,5e7d34b1a7cdf60009521d2a,,1,0,81,68,1,80
,,,,,,,,,,,,,,,,,,,,,,,,,,,,,,,,,,,,,,,,,w,2.665999889,W,FALSE,,,,,,,161,ovella,Catalan,Sounds/cat_ovella.mp3,2020-06-04_21h25.38.765,TranslationElicitation_eng-prolific,3.2.4,Linux x86_64,60,5e7d34b1a7cdf60009521d2a,,1,0,81,53,1,80
,,,,,,,,,,,,,,,,,,,,,,,,,,,,,,,,,,,,,,,,,e,2.715999842,WE,FALSE,,,,,,,161,ovella,Catalan,Sounds/cat_ovella.mp3,2020-06-04_21h25.38.765,TranslationElicitation_eng-prolific,3.2.4,Linux x86_64,60,5e7d34b1a7cdf60009521d2a,,1,0,81,53,1,80
,,,,,,,,,,,,,,,,,,,,,,,,,,,,,,,,,,,,,,,,,l,2.848999977,WEL,FALSE,,,,,,,161,ovella,Catalan,Sounds/cat_ovella.mp3,2020-06-04_21h25.38.765,TranslationElicitation_eng-prolific,3.2.4,Linux x86_64,60,5e7d34b1a7cdf60009521d2a,,1,0,81,53,1,80
,,,,,,,,,,,,,,,,,,,,,,,,,,,,,,,,,,,,,,,,,l,2.948999882,WELL,FALSE,,,,,,,161,ovella,Catalan,Sounds/cat_ovella.mp3,2020-06-04_21h25.38.765,TranslationElicitation_eng-prolific,3.2.4,Linux x86_64,60,5e7d34b1a7cdf60009521d2a,,1,0,81,53,1,80
,,,,,,,,,,,,,,,,,,,,,,,,,,,,,,,,,,,,,,,,,return,3.101999998,WELL,FALSE,,,,,,,161,ovella,Catalan,Sounds/cat_ovella.mp3,2020-06-04_21h25.38.765,TranslationElicitation_eng-prolific,3.2.4,Linux x86_64,60,5e7d34b1a7cdf60009521d2a,3.101999998,1,0,81,53,1,80
,,,,,,,,,,,,,,,,,,,,,,,,,,,,,,,,,,,,,,,,,,,,,,,,,,,161,ovella,Catalan,Sounds/cat_ovella.mp3,2020-06-04_21h25.38.765,TranslationElicitation_eng-prolific,3.2.4,Linux x86_64,60,5e7d34b1a7cdf60009521d2a,,1,0,81,53,1,80
,,,,,,,,,,,,,,,,,,,,,,,,,,,,,,,,,,,,,,,,,h,4.634000063,H,FALSE,,,,,,,184,ull,Catalan,Sounds/cat_ull.mp3,2020-06-04_21h25.38.765,TranslationElicitation_eng-prolific,3.2.4,Linux x86_64,60,5e7d34b1a7cdf60009521d2a,,1,0,81,75,1,80
,,,,,,,,,,,,,,,,,,,,,,,,,,,,,,,,,,,,,,,,,a,4.715000153,HA,FALSE,,,,,,,184,ull,Catalan,Sounds/cat_ull.mp3,2020-06-04_21h25.38.765,TranslationElicitation_eng-prolific,3.2.4,Linux x86_64,60,5e7d34b1a7cdf60009521d2a,,1,0,81,75,1,80
,,,,,,,,,,,,,,,,,,,,,,,,,,,,,,,,,,,,,,,,,l,4.815999985,HAL,FALSE,,,,,,,184,ull,Catalan,Sounds/cat_ull.mp3,2020-06-04_21h25.38.765,TranslationElicitation_eng-prolific,3.2.4,Linux x86_64,60,5e7d34b1a7cdf60009521d2a,,1,0,81,75,1,80
,,,,,,,,,,,,,,,,,,,,,,,,,,,,,,,,,,,,,,,,,l,4.96600008,HALL,FALSE,,,,,,,184,ull,Catalan,Sounds/cat_ull.mp3,2020-06-04_21h25.38.765,TranslationElicitation_eng-prolific,3.2.4,Linux x86_64,60,5e7d34b1a7cdf60009521d2a,,1,0,81,75,1,80
,,,,,,,,,,,,,,,,,,,,,,,,,,,,,,,,,,,,,,,,,return,5.282999992,HALL,FALSE,,,,,,,184,ull,Catalan,Sounds/cat_ull.mp3,2020-06-04_21h25.38.765,TranslationElicitation_eng-prolific,3.2.4,Linux x86_64,60,5e7d34b1a7cdf60009521d2a,5.282999992,1,0,81,75,1,80
,,,,,,,,,,,,,,,,,,,,,,,,,,,,,,,,,,,,,,,,,,,,,,,,,,,184,ull,Catalan,Sounds/cat_ull.mp3,2020-06-04_21h25.38.765,TranslationElicitation_eng-prolific,3.2.4,Linux x86_64,60,5e7d34b1a7cdf60009521d2a,,1,0,81,75,1,80
,,,,,,,,,,,,,,,,,,,,,,,,,,,,,,,,,,,,,,,,,s,7.26699996,S,FALSE,,,,,,,154,mirall,Catalan,Sounds/cat_mirall.mp3,2020-06-04_21h25.38.765,TranslationElicitation_eng-prolific,3.2.4,Linux x86_64,60,5e7d34b1a7cdf60009521d2a,,1,0,81,47,1,80
,,,,,,,,,,,,,,,,,,,,,,,,,,,,,,,,,,,,,,,,,h,7.467000008,SH,FALSE,,,,,,,154,mirall,Catalan,Sounds/cat_mirall.mp3,2020-06-04_21h25.38.765,TranslationElicitation_eng-prolific,3.2.4,Linux x86_64,60,5e7d34b1a7cdf60009521d2a,,1,0,81,47,1,80
,,,,,,,,,,,,,,,,,,,,,,,,,,,,,,,,,,,,,,,,,i,7.541000128,SHI,FALSE,,,,,,,154,mirall,Catalan,Sounds/cat_mirall.mp3,2020-06-04_21h25.38.765,TranslationElicitation_eng-prolific,3.2.4,Linux x86_64,60,5e7d34b1a7cdf60009521d2a,,1,0,81,47,1,80
,,,,,,,,,,,,,,,,,,,,,,,,,,,,,,,,,,,,,,,,,n,7.690000057,SHIN,FALSE,,,,,,,154,mirall,Catalan,Sounds/cat_mirall.mp3,2020-06-04_21h25.38.765,TranslationElicitation_eng-prolific,3.2.4,Linux x86_64,60,5e7d34b1a7cdf60009521d2a,,1,0,81,47,1,80
,,,,,,,,,,,,,,,,,,,,,,,,,,,,,,,,,,,,,,,,,y,7.75,SHINY,FALSE,,,,,,,154,mirall,Catalan,Sounds/cat_mirall.mp3,2020-06-04_21h25.38.765,TranslationElicitation_eng-prolific,3.2.4,Linux x86_64,60,5e7d34b1a7cdf60009521d2a,,1,0,81,47,1,80
,,,,,,,,,,,,,,,,,,,,,,,,,,,,,,,,,,,,,,,,,return,7.905999899,SHINY,FALSE,,,,,,,154,mirall,Catalan,Sounds/cat_mirall.mp3,2020-06-04_21h25.38.765,TranslationElicitation_eng-prolific,3.2.4,Linux x86_64,60,5e7d34b1a7cdf60009521d2a,7.905999899,1,0,81,47,1,80
,,,,,,,,,,,,,,,,,,,,,,,,,,,,,,,,,,,,,,,,,,,,,,,,,,,154,mirall,Catalan,Sounds/cat_mirall.mp3,2020-06-04_21h25.38.765,TranslationElicitation_eng-prolific,3.2.4,Linux x86_64,60,5e7d34b1a7cdf60009521d2a,,1,0,81,47,1,80
,,,,,,,,,,,,,,,,,,,,,,,,,,,,,,,,,,,,,,,,,l,2.31099987,L,FALSE,,,,,,,170,ploma,Catalan,Sounds/cat_ploma.mp3,2020-06-04_21h25.38.765,TranslationElicitation_eng-prolific,3.2.4,Linux x86_64,60,5e7d34b1a7cdf60009521d2a,,1,0,81,62,1,80
,,,,,,,,,,,,,,,,,,,,,,,,,,,,,,,,,,,,,,,,,e,2.415999889,LE,FALSE,,,,,,,170,ploma,Catalan,Sounds/cat_ploma.mp3,2020-06-04_21h25.38.765,TranslationElicitation_eng-prolific,3.2.4,Linux x86_64,60,5e7d34b1a7cdf60009521d2a,,1,0,81,62,1,80
,,,,,,,,,,,,,,,,,,,,,,,,,,,,,,,,,,,,,,,,,a,2.5,LEA,FALSE,,,,,,,170,ploma,Catalan,Sounds/cat_ploma.mp3,2020-06-04_21h25.38.765,TranslationElicitation_eng-prolific,3.2.4,Linux x86_64,60,5e7d34b1a7cdf60009521d2a,,1,0,81,62,1,80
,,,,,,,,,,,,,,,,,,,,,,,,,,,,,,,,,,,,,,,,,d,2.582999945,LEAD,FALSE,,,,,,,170,ploma,Catalan,Sounds/cat_ploma.mp3,2020-06-04_21h25.38.765,TranslationElicitation_eng-prolific,3.2.4,Linux x86_64,60,5e7d34b1a7cdf60009521d2a,,1,0,81,62,1,80
,,,,,,,,,,,,,,,,,,,,,,,,,,,,,,,,,,,,,,,,,return,2.732999802,LEAD,FALSE,,,,,,,170,ploma,Catalan,Sounds/cat_ploma.mp3,2020-06-04_21h25.38.765,TranslationElicitation_eng-prolific,3.2.4,Linux x86_64,60,5e7d34b1a7cdf60009521d2a,2.732999802,1,0,81,62,1,80
,,,,,,,,,,,,,,,,,,,,,,,,,,,,,,,,,,,,,,,,,,,,,,,,,,,170,ploma,Catalan,Sounds/cat_ploma.mp3,2020-06-04_21h25.38.765,TranslationElicitation_eng-prolific,3.2.4,Linux x86_64,60,5e7d34b1a7cdf60009521d2a,,1,0,81,62,1,80
,,,,,,,,,,,,,,,,,,,,,,,,,,,,,,,,,,,,,,,,,b,7.682999849,B,FALSE,,,,,,,117,boto,Catalan,Sounds/cat_boto.mp3,2020-06-04_21h25.38.765,TranslationElicitation_eng-prolific,3.2.4,Linux x86_64,60,5e7d34b1a7cdf60009521d2a,,1,0,81,12,1,80
,,,,,,,,,,,,,,,,,,,,,,,,,,,,,,,,,,,,,,,,,u,7.782999992,BU,FALSE,,,,,,,117,boto,Catalan,Sounds/cat_boto.mp3,2020-06-04_21h25.38.765,TranslationElicitation_eng-prolific,3.2.4,Linux x86_64,60,5e7d34b1a7cdf60009521d2a,,1,0,81,12,1,80
,,,,,,,,,,,,,,,,,,,,,,,,,,,,,,,,,,,,,,,,,t,7.924000025,BUT,FALSE,,,,,,,117,boto,Catalan,Sounds/cat_boto.mp3,2020-06-04_21h25.38.765,TranslationElicitation_eng-prolific,3.2.4,Linux x86_64,60,5e7d34b1a7cdf60009521d2a,,1,0,81,12,1,80
,,,,,,,,,,,,,,,,,,,,,,,,,,,,,,,,,,,,,,,,,t,8.062000036,BUTT,FALSE,,,,,,,117,boto,Catalan,Sounds/cat_boto.mp3,2020-06-04_21h25.38.765,TranslationElicitation_eng-prolific,3.2.4,Linux x86_64,60,5e7d34b1a7cdf60009521d2a,,1,0,81,12,1,80
,,,,,,,,,,,,,,,,,,,,,,,,,,,,,,,,,,,,,,,,,o,8.182999849,BUTTO,FALSE,,,,,,,117,boto,Catalan,Sounds/cat_boto.mp3,2020-06-04_21h25.38.765,TranslationElicitation_eng-prolific,3.2.4,Linux x86_64,60,5e7d34b1a7cdf60009521d2a,,1,0,81,12,1,80
,,,,,,,,,,,,,,,,,,,,,,,,,,,,,,,,,,,,,,,,,c,8.266000032,BUTTOC,FALSE,,,,,,,117,boto,Catalan,Sounds/cat_boto.mp3,2020-06-04_21h25.38.765,TranslationElicitation_eng-prolific,3.2.4,Linux x86_64,60,5e7d34b1a7cdf60009521d2a,,1,0,81,12,1,80
,,,,,,,,,,,,,,,,,,,,,,,,,,,,,,,,,,,,,,,,,s,8.417000055,BUTTOCS,FALSE,,,,,,,117,boto,Catalan,Sounds/cat_boto.mp3,2020-06-04_21h25.38.765,TranslationElicitation_eng-prolific,3.2.4,Linux x86_64,60,5e7d34b1a7cdf60009521d2a,,1,0,81,12,1,80
,,,,,,,,,,,,,,,,,,,,,,,,,,,,,,,,,,,,,,,,,backspace,8.754999876,BUTTOC,TRUE,,,,,,,117,boto,Catalan,Sounds/cat_boto.mp3,2020-06-04_21h25.38.765,TranslationElicitation_eng-prolific,3.2.4,Linux x86_64,60,5e7d34b1a7cdf60009521d2a,,1,0,81,12,1,80
,,,,,,,,,,,,,,,,,,,,,,,,,,,,,,,,,,,,,,,,,k,9.632999897,BUTTOCK,TRUE,,,,,,,117,boto,Catalan,Sounds/cat_boto.mp3,2020-06-04_21h25.38.765,TranslationElicitation_eng-prolific,3.2.4,Linux x86_64,60,5e7d34b1a7cdf60009521d2a,,1,0,81,12,1,80
,,,,,,,,,,,,,,,,,,,,,,,,,,,,,,,,,,,,,,,,,s,9.756999969,BUTTOCKS,TRUE,,,,,,,117,boto,Catalan,Sounds/cat_boto.mp3,2020-06-04_21h25.38.765,TranslationElicitation_eng-prolific,3.2.4,Linux x86_64,60,5e7d34b1a7cdf60009521d2a,,1,0,81,12,1,80
,,,,,,,,,,,,,,,,,,,,,,,,,,,,,,,,,,,,,,,,,return,9.963999987,BUTTOCKS,TRUE,,,,,,,117,boto,Catalan,Sounds/cat_boto.mp3,2020-06-04_21h25.38.765,TranslationElicitation_eng-prolific,3.2.4,Linux x86_64,60,5e7d34b1a7cdf60009521d2a,9.963999987,1,0,81,12,1,80
,,,,,,,,,,,,,,,,,,,,,,,,,,,,,,,,,,,,,,,,,,,,,,,,,,,117,boto,Catalan,Sounds/cat_boto.mp3,2020-06-04_21h25.38.765,TranslationElicitation_eng-prolific,3.2.4,Linux x86_64,60,5e7d34b1a7cdf60009521d2a,,1,0,81,12,1,80
,,,,,,,,,,,,,,,,,,,,,,,,,,,,,,,,,,,,,,,,,c,1.899000168,C,FALSE,,,,,,,188,xocolata,Catalan,Sounds/cat_xocolata.mp3,2020-06-04_21h25.38.765,TranslationElicitation_eng-prolific,3.2.4,Linux x86_64,60,5e7d34b1a7cdf60009521d2a,,1,0,81,79,1,80
,,,,,,,,,,,,,,,,,,,,,,,,,,,,,,,,,,,,,,,,,h,2.031000137,CH,FALSE,,,,,,,188,xocolata,Catalan,Sounds/cat_xocolata.mp3,2020-06-04_21h25.38.765,TranslationElicitation_eng-prolific,3.2.4,Linux x86_64,60,5e7d34b1a7cdf60009521d2a,,1,0,81,79,1,80
,,,,,,,,,,,,,,,,,,,,,,,,,,,,,,,,,,,,,,,,,o,2.131999969,CHO,FALSE,,,,,,,188,xocolata,Catalan,Sounds/cat_xocolata.mp3,2020-06-04_21h25.38.765,TranslationElicitation_eng-prolific,3.2.4,Linux x86_64,60,5e7d34b1a7cdf60009521d2a,,1,0,81,79,1,80
,,,,,,,,,,,,,,,,,,,,,,,,,,,,,,,,,,,,,,,,,c,2.279999971,CHOC,FALSE,,,,,,,188,xocolata,Catalan,Sounds/cat_xocolata.mp3,2020-06-04_21h25.38.765,TranslationElicitation_eng-prolific,3.2.4,Linux x86_64,60,5e7d34b1a7cdf60009521d2a,,1,0,81,79,1,80
,,,,,,,,,,,,,,,,,,,,,,,,,,,,,,,,,,,,,,,,,o,2.358999968,CHOCO,FALSE,,,,,,,188,xocolata,Catalan,Sounds/cat_xocolata.mp3,2020-06-04_21h25.38.765,TranslationElicitation_eng-prolific,3.2.4,Linux x86_64,60,5e7d34b1a7cdf60009521d2a,,1,0,81,79,1,80
,,,,,,,,,,,,,,,,,,,,,,,,,,,,,,,,,,,,,,,,,l,2.680999994,CHOCOL,FALSE,,,,,,,188,xocolata,Catalan,Sounds/cat_xocolata.mp3,2020-06-04_21h25.38.765,TranslationElicitation_eng-prolific,3.2.4,Linux x86_64,60,5e7d34b1a7cdf60009521d2a,,1,0,81,79,1,80
,,,,,,,,,,,,,,,,,,,,,,,,,,,,,,,,,,,,,,,,,a,2.769999981,CHOCOLA,FALSE,,,,,,,188,xocolata,Catalan,Sounds/cat_xocolata.mp3,2020-06-04_21h25.38.765,TranslationElicitation_eng-prolific,3.2.4,Linux x86_64,60,5e7d34b1a7cdf60009521d2a,,1,0,81,79,1,80
,,,,,,,,,,,,,,,,,,,,,,,,,,,,,,,,,,,,,,,,,t,2.906000137,CHOCOLAT,FALSE,,,,,,,188,xocolata,Catalan,Sounds/cat_xocolata.mp3,2020-06-04_21h25.38.765,TranslationElicitation_eng-prolific,3.2.4,Linux x86_64,60,5e7d34b1a7cdf60009521d2a,,1,0,81,79,1,80
,,,,,,,,,,,,,,,,,,,,,,,,,,,,,,,,,,,,,,,,,e,2.975000143,CHOCOLATE,FALSE,,,,,,,188,xocolata,Catalan,Sounds/cat_xocolata.mp3,2020-06-04_21h25.38.765,TranslationElicitation_eng-prolific,3.2.4,Linux x86_64,60,5e7d34b1a7cdf60009521d2a,,1,0,81,79,1,80
,,,,,,,,,,,,,,,,,,,,,,,,,,,,,,,,,,,,,,,,,return,3.305999994,CHOCOLATE,FALSE,,,,,,,188,xocolata,Catalan,Sounds/cat_xocolata.mp3,2020-06-04_21h25.38.765,TranslationElicitation_eng-prolific,3.2.4,Linux x86_64,60,5e7d34b1a7cdf60009521d2a,3.305999994,1,0,81,79,1,80
,,,,,,,,,,,,,,,,,,,,,,,,,,,,,,,,,,,,,,,,,,,,,,,,,,,188,xocolata,Catalan,Sounds/cat_xocolata.mp3,2020-06-04_21h25.38.765,TranslationElicitation_eng-prolific,3.2.4,Linux x86_64,60,5e7d34b1a7cdf60009521d2a,,1,0,81,79,1,80
,,,,,,,,,,,,,,,,,,,,,,,,,,,,,,,,,,,,,,,,,c,5.739000082,C,FALSE,,,,,,,120,cama,Catalan,Sounds/cat_cama.mp3,2020-06-04_21h25.38.765,TranslationElicitation_eng-prolific,3.2.4,Linux x86_64,60,5e7d34b1a7cdf60009521d2a,,1,0,81,15,1,80
,,,,,,,,,,,,,,,,,,,,,,,,,,,,,,,,,,,,,,,,,a,5.811000109,CA,FALSE,,,,,,,120,cama,Catalan,Sounds/cat_cama.mp3,2020-06-04_21h25.38.765,TranslationElicitation_eng-prolific,3.2.4,Linux x86_64,60,5e7d34b1a7cdf60009521d2a,,1,0,81,15,1,80
,,,,,,,,,,,,,,,,,,,,,,,,,,,,,,,,,,,,,,,,,l,5.942000151,CAL,FALSE,,,,,,,120,cama,Catalan,Sounds/cat_cama.mp3,2020-06-04_21h25.38.765,TranslationElicitation_eng-prolific,3.2.4,Linux x86_64,60,5e7d34b1a7cdf60009521d2a,,1,0,81,15,1,80
,,,,,,,,,,,,,,,,,,,,,,,,,,,,,,,,,,,,,,,,,m,6.083000183,CALM,FALSE,,,,,,,120,cama,Catalan,Sounds/cat_cama.mp3,2020-06-04_21h25.38.765,TranslationElicitation_eng-prolific,3.2.4,Linux x86_64,60,5e7d34b1a7cdf60009521d2a,,1,0,81,15,1,80
,,,,,,,,,,,,,,,,,,,,,,,,,,,,,,,,,,,,,,,,,return,6.315000057,CALM,FALSE,,,,,,,120,cama,Catalan,Sounds/cat_cama.mp3,2020-06-04_21h25.38.765,TranslationElicitation_eng-prolific,3.2.4,Linux x86_64,60,5e7d34b1a7cdf60009521d2a,6.315000057,1,0,81,15,1,80
,,,,,,,,,,,,,,,,,,,,,,,,,,,,,,,,,,,,,,,,,,,,,,,,,,,120,cama,Catalan,Sounds/cat_cama.mp3,2020-06-04_21h25.38.765,TranslationElicitation_eng-prolific,3.2.4,Linux x86_64,60,5e7d34b1a7cdf60009521d2a,,1,0,81,15,1,80
,,,,,,,,,,,,,,,,,,,,,,,,,,,,,,,,,,,,,,,,,t,7.01699996,T,FALSE,,,,,,,130,entrepa,Catalan,Sounds/cat_entrepa.mp3,2020-06-04_21h25.38.765,TranslationElicitation_eng-prolific,3.2.4,Linux x86_64,60,5e7d34b1a7cdf60009521d2a,,1,0,81,24,1,80
,,,,,,,,,,,,,,,,,,,,,,,,,,,,,,,,,,,,,,,,,o,7.467000008,TO,FALSE,,,,,,,130,entrepa,Catalan,Sounds/cat_entrepa.mp3,2020-06-04_21h25.38.765,TranslationElicitation_eng-prolific,3.2.4,Linux x86_64,60,5e7d34b1a7cdf60009521d2a,,1,0,81,24,1,80
,,,,,,,,,,,,,,,,,,,,,,,,,,,,,,,,,,,,,,,,,space,7.667000055,TO ,FALSE,,,,,,,130,entrepa,Catalan,Sounds/cat_entrepa.mp3,2020-06-04_21h25.38.765,TranslationElicitation_eng-prolific,3.2.4,Linux x86_64,60,5e7d34b1a7cdf60009521d2a,,1,0,81,24,1,80
,,,,,,,,,,,,,,,,,,,,,,,,,,,,,,,,,,,,,,,,,t,7.73300004,TO T,FALSE,,,,,,,130,entrepa,Catalan,Sounds/cat_entrepa.mp3,2020-06-04_21h25.38.765,TranslationElicitation_eng-prolific,3.2.4,Linux x86_64,60,5e7d34b1a7cdf60009521d2a,,1,0,81,24,1,80
,,,,,,,,,,,,,,,,,,,,,,,,,,,,,,,,,,,,,,,,,r,7.808000088,TO TR,FALSE,,,,,,,130,entrepa,Catalan,Sounds/cat_entrepa.mp3,2020-06-04_21h25.38.765,TranslationElicitation_eng-prolific,3.2.4,Linux x86_64,60,5e7d34b1a7cdf60009521d2a,,1,0,81,24,1,80
,,,,,,,,,,,,,,,,,,,,,,,,,,,,,,,,,,,,,,,,,a,7.97300005,TO TRA,FALSE,,,,,,,130,entrepa,Catalan,Sounds/cat_entrepa.mp3,2020-06-04_21h25.38.765,TranslationElicitation_eng-prolific,3.2.4,Linux x86_64,60,5e7d34b1a7cdf60009521d2a,,1,0,81,24,1,80
,,,,,,,,,,,,,,,,,,,,,,,,,,,,,,,,,,,,,,,,,p,8.051000118,TO TRAP,FALSE,,,,,,,130,entrepa,Catalan,Sounds/cat_entrepa.mp3,2020-06-04_21h25.38.765,TranslationElicitation_eng-prolific,3.2.4,Linux x86_64,60,5e7d34b1a7cdf60009521d2a,,1,0,81,24,1,80
,,,,,,,,,,,,,,,,,,,,,,,,,,,,,,,,,,,,,,,,,return,8.288000107,TO TRAP,FALSE,,,,,,,130,entrepa,Catalan,Sounds/cat_entrepa.mp3,2020-06-04_21h25.38.765,TranslationElicitation_eng-prolific,3.2.4,Linux x86_64,60,5e7d34b1a7cdf60009521d2a,8.288000107,1,0,81,24,1,80
,,,,,,,,,,,,,,,,,,,,,,,,,,,,,,,,,,,,,,,,,,,,,,,,,,,130,entrepa,Catalan,Sounds/cat_entrepa.mp3,2020-06-04_21h25.38.765,TranslationElicitation_eng-prolific,3.2.4,Linux x86_64,60,5e7d34b1a7cdf60009521d2a,,1,0,81,24,1,80
,,,,,,,,,,,,,,,,,,,,,,,,,,,,,,,,,,,,,,,,,p,2.632999897,P,FALSE,,,,,,,172,poma,Catalan,Sounds/cat_poma.mp3,2020-06-04_21h25.38.765,TranslationElicitation_eng-prolific,3.2.4,Linux x86_64,60,5e7d34b1a7cdf60009521d2a,,1,0,81,64,1,80
,,,,,,,,,,,,,,,,,,,,,,,,,,,,,,,,,,,,,,,,,o,2.816999912,PO,FALSE,,,,,,,172,poma,Catalan,Sounds/cat_poma.mp3,2020-06-04_21h25.38.765,TranslationElicitation_eng-prolific,3.2.4,Linux x86_64,60,5e7d34b1a7cdf60009521d2a,,1,0,81,64,1,80
,,,,,,,,,,,,,,,,,,,,,,,,,,,,,,,,,,,,,,,,,t,2.948999882,POT,FALSE,,,,,,,172,poma,Catalan,Sounds/cat_poma.mp3,2020-06-04_21h25.38.765,TranslationElicitation_eng-prolific,3.2.4,Linux x86_64,60,5e7d34b1a7cdf60009521d2a,,1,0,81,64,1,80
,,,,,,,,,,,,,,,,,,,,,,,,,,,,,,,,,,,,,,,,,a,3.072999954,POTA,FALSE,,,,,,,172,poma,Catalan,Sounds/cat_poma.mp3,2020-06-04_21h25.38.765,TranslationElicitation_eng-prolific,3.2.4,Linux x86_64,60,5e7d34b1a7cdf60009521d2a,,1,0,81,64,1,80
,,,,,,,,,,,,,,,,,,,,,,,,,,,,,,,,,,,,,,,,,t,3.165999889,POTAT,FALSE,,,,,,,172,poma,Catalan,Sounds/cat_poma.mp3,2020-06-04_21h25.38.765,TranslationElicitation_eng-prolific,3.2.4,Linux x86_64,60,5e7d34b1a7cdf60009521d2a,,1,0,81,64,1,80
,,,,,,,,,,,,,,,,,,,,,,,,,,,,,,,,,,,,,,,,,o,3.266000032,POTATO,FALSE,,,,,,,172,poma,Catalan,Sounds/cat_poma.mp3,2020-06-04_21h25.38.765,TranslationElicitation_eng-prolific,3.2.4,Linux x86_64,60,5e7d34b1a7cdf60009521d2a,,1,0,81,64,1,80
,,,,,,,,,,,,,,,,,,,,,,,,,,,,,,,,,,,,,,,,,return,3.431999922,POTATO,FALSE,,,,,,,172,poma,Catalan,Sounds/cat_poma.mp3,2020-06-04_21h25.38.765,TranslationElicitation_eng-prolific,3.2.4,Linux x86_64,60,5e7d34b1a7cdf60009521d2a,3.431999922,1,0,81,64,1,80
,,,,,,,,,,,,,,,,,,,,,,,,,,,,,,,,,,,,,,,,,,,,,,,,,,,172,poma,Catalan,Sounds/cat_poma.mp3,2020-06-04_21h25.38.765,TranslationElicitation_eng-prolific,3.2.4,Linux x86_64,60,5e7d34b1a7cdf60009521d2a,,1,0,81,64,1,80
,,,,,,,,,,,,,,,,,,,,,,,,,,,,,,,,,,,,,,,,,b,3.712000132,B,FALSE,,,,,,,116,bolquer,Catalan,Sounds/cat_bolquer.mp3,2020-06-04_21h25.38.765,TranslationElicitation_eng-prolific,3.2.4,Linux x86_64,60,5e7d34b1a7cdf60009521d2a,,1,0,81,11,1,80
,,,,,,,,,,,,,,,,,,,,,,,,,,,,,,,,,,,,,,,,,a,3.842000008,BA,FALSE,,,,,,,116,bolquer,Catalan,Sounds/cat_bolquer.mp3,2020-06-04_21h25.38.765,TranslationElicitation_eng-prolific,3.2.4,Linux x86_64,60,5e7d34b1a7cdf60009521d2a,,1,0,81,11,1,80
,,,,,,,,,,,,,,,,,,,,,,,,,,,,,,,,,,,,,,,,,l,3.965000153,BAL,FALSE,,,,,,,116,bolquer,Catalan,Sounds/cat_bolquer.mp3,2020-06-04_21h25.38.765,TranslationElicitation_eng-prolific,3.2.4,Linux x86_64,60,5e7d34b1a7cdf60009521d2a,,1,0,81,11,1,80
,,,,,,,,,,,,,,,,,,,,,,,,,,,,,,,,,,,,,,,,,l,4.072999954,BALL,FALSE,,,,,,,116,bolquer,Catalan,Sounds/cat_bolquer.mp3,2020-06-04_21h25.38.765,TranslationElicitation_eng-prolific,3.2.4,Linux x86_64,60,5e7d34b1a7cdf60009521d2a,,1,0,81,11,1,80
,,,,,,,,,,,,,,,,,,,,,,,,,,,,,,,,,,,,,,,,,return,4.278000116,BALL,FALSE,,,,,,,116,bolquer,Catalan,Sounds/cat_bolquer.mp3,2020-06-04_21h25.38.765,TranslationElicitation_eng-prolific,3.2.4,Linux x86_64,60,5e7d34b1a7cdf60009521d2a,4.278000116,1,0,81,11,1,80
,,,,,,,,,,,,,,,,,,,,,,,,,,,,,,,,,,,,,,,,,,,,,,,,,,,116,bolquer,Catalan,Sounds/cat_bolquer.mp3,2020-06-04_21h25.38.765,TranslationElicitation_eng-prolific,3.2.4,Linux x86_64,60,5e7d34b1a7cdf60009521d2a,,1,0,81,11,1,80
,,,,,,,,,,,,,,,,,,,,,,,,,,,,,,,,,,,,,,,,,n,8.788999796,N,FALSE,,,,,,,165,pernil,Catalan,Sounds/cat_pernil.mp3,2020-06-04_21h25.38.765,TranslationElicitation_eng-prolific,3.2.4,Linux x86_64,60,5e7d34b1a7cdf60009521d2a,,1,0,81,57,1,80
,,,,,,,,,,,,,,,,,,,,,,,,,,,,,,,,,,,,,,,,,e,8.92599988,NE,FALSE,,,,,,,165,pernil,Catalan,Sounds/cat_pernil.mp3,2020-06-04_21h25.38.765,TranslationElicitation_eng-prolific,3.2.4,Linux x86_64,60,5e7d34b1a7cdf60009521d2a,,1,0,81,57,1,80
,,,,,,,,,,,,,,,,,,,,,,,,,,,,,,,,,,,,,,,,,c,9.079999924,NEC,FALSE,,,,,,,165,pernil,Catalan,Sounds/cat_pernil.mp3,2020-06-04_21h25.38.765,TranslationElicitation_eng-prolific,3.2.4,Linux x86_64,60,5e7d34b1a7cdf60009521d2a,,1,0,81,57,1,80
,,,,,,,,,,,,,,,,,,,,,,,,,,,,,,,,,,,,,,,,,k,9.233999968,NECK,FALSE,,,,,,,165,pernil,Catalan,Sounds/cat_pernil.mp3,2020-06-04_21h25.38.765,TranslationElicitation_eng-prolific,3.2.4,Linux x86_64,60,5e7d34b1a7cdf60009521d2a,,1,0,81,57,1,80
,,,,,,,,,,,,,,,,,,,,,,,,,,,,,,,,,,,,,,,,,t,9.375,NECKT,FALSE,,,,,,,165,pernil,Catalan,Sounds/cat_pernil.mp3,2020-06-04_21h25.38.765,TranslationElicitation_eng-prolific,3.2.4,Linux x86_64,60,5e7d34b1a7cdf60009521d2a,,1,0,81,57,1,80
,,,,,,,,,,,,,,,,,,,,,,,,,,,,,,,,,,,,,,,,,i,9.444999933,NECKTI,FALSE,,,,,,,165,pernil,Catalan,Sounds/cat_pernil.mp3,2020-06-04_21h25.38.765,TranslationElicitation_eng-prolific,3.2.4,Linux x86_64,60,5e7d34b1a7cdf60009521d2a,,1,0,81,57,1,80
,,,,,,,,,,,,,,,,,,,,,,,,,,,,,,,,,,,,,,,,,e,9.537999868,NECKTIE,FALSE,,,,,,,165,pernil,Catalan,Sounds/cat_pernil.mp3,2020-06-04_21h25.38.765,TranslationElicitation_eng-prolific,3.2.4,Linux x86_64,60,5e7d34b1a7cdf60009521d2a,,1,0,81,57,1,80
,,,,,,,,,,,,,,,,,,,,,,,,,,,,,,,,,,,,,,,,,return,9.75,NECKTIE,FALSE,,,,,,,165,pernil,Catalan,Sounds/cat_pernil.mp3,2020-06-04_21h25.38.765,TranslationElicitation_eng-prolific,3.2.4,Linux x86_64,60,5e7d34b1a7cdf60009521d2a,9.75,1,0,81,57,1,80
,,,,,,,,,,,,,,,,,,,,,,,,,,,,,,,,,,,,,,,,,,,,,,,,,,,165,pernil,Catalan,Sounds/cat_pernil.mp3,2020-06-04_21h25.38.765,TranslationElicitation_eng-prolific,3.2.4,Linux x86_64,60,5e7d34b1a7cdf60009521d2a,,1,0,81,57,1,80
,,,,,,,,,,,,,,,,,,,,,,,,,,,,,,,,,,,,,,,,,t,11.70299983,T,FALSE,,,,,,,139,galleda,Catalan,Sounds/cat_galleda.mp3,2020-06-04_21h25.38.765,TranslationElicitation_eng-prolific,3.2.4,Linux x86_64,60,5e7d34b1a7cdf60009521d2a,,1,0,81,33,1,80
,,,,,,,,,,,,,,,,,,,,,,,,,,,,,,,,,,,,,,,,,i,11.79999995,TI,FALSE,,,,,,,139,galleda,Catalan,Sounds/cat_galleda.mp3,2020-06-04_21h25.38.765,TranslationElicitation_eng-prolific,3.2.4,Linux x86_64,60,5e7d34b1a7cdf60009521d2a,,1,0,81,33,1,80
,,,,,,,,,,,,,,,,,,,,,,,,,,,,,,,,,,,,,,,,,e,11.8829999,TIE,FALSE,,,,,,,139,galleda,Catalan,Sounds/cat_galleda.mp3,2020-06-04_21h25.38.765,TranslationElicitation_eng-prolific,3.2.4,Linux x86_64,60,5e7d34b1a7cdf60009521d2a,,1,0,81,33,1,80
,,,,,,,,,,,,,,,,,,,,,,,,,,,,,,,,,,,,,,,,,return,12.1099999,TIE,FALSE,,,,,,,139,galleda,Catalan,Sounds/cat_galleda.mp3,2020-06-04_21h25.38.765,TranslationElicitation_eng-prolific,3.2.4,Linux x86_64,60,5e7d34b1a7cdf60009521d2a,12.1099999,1,0,81,33,1,80
,,,,,,,,,,,,,,,,,,,,,,,,,,,,,,,,,,,,,,,,,,,,,,,,,,,139,galleda,Catalan,Sounds/cat_galleda.mp3,2020-06-04_21h25.38.765,TranslationElicitation_eng-prolific,3.2.4,Linux x86_64,60,5e7d34b1a7cdf60009521d2a,,1,0,81,33,1,80
,,,,,,,,,,,,,,,,,,,,,,,,,,,,,,,,,,,,,,,,,l,3.637000084,L,FALSE,,,,,,,144,gorra,Catalan,Sounds/cat_gorra.mp3,2020-06-04_21h25.38.765,TranslationElicitation_eng-prolific,3.2.4,Linux x86_64,60,5e7d34b1a7cdf60009521d2a,,1,0,81,38,1,80
,,,,,,,,,,,,,,,,,,,,,,,,,,,,,,,,,,,,,,,,,a,3.736000061,LA,FALSE,,,,,,,144,gorra,Catalan,Sounds/cat_gorra.mp3,2020-06-04_21h25.38.765,TranslationElicitation_eng-prolific,3.2.4,Linux x86_64,60,5e7d34b1a7cdf60009521d2a,,1,0,81,38,1,80
,,,,,,,,,,,,,,,,,,,,,,,,,,,,,,,,,,,,,,,,,r,3.775000095,LAR,FALSE,,,,,,,144,gorra,Catalan,Sounds/cat_gorra.mp3,2020-06-04_21h25.38.765,TranslationElicitation_eng-prolific,3.2.4,Linux x86_64,60,5e7d34b1a7cdf60009521d2a,,1,0,81,38,1,80
,,,,,,,,,,,,,,,,,,,,,,,,,,,,,,,,,,,,,,,,,g,3.901000023,LARG,FALSE,,,,,,,144,gorra,Catalan,Sounds/cat_gorra.mp3,2020-06-04_21h25.38.765,TranslationElicitation_eng-prolific,3.2.4,Linux x86_64,60,5e7d34b1a7cdf60009521d2a,,1,0,81,38,1,80
,,,,,,,,,,,,,,,,,,,,,,,,,,,,,,,,,,,,,,,,,e,3.967000008,LARGE,FALSE,,,,,,,144,gorra,Catalan,Sounds/cat_gorra.mp3,2020-06-04_21h25.38.765,TranslationElicitation_eng-prolific,3.2.4,Linux x86_64,60,5e7d34b1a7cdf60009521d2a,,1,0,81,38,1,80
,,,,,,,,,,,,,,,,,,,,,,,,,,,,,,,,,,,,,,,,,return,4.082999945,LARGE,FALSE,,,,,,,144,gorra,Catalan,Sounds/cat_gorra.mp3,2020-06-04_21h25.38.765,TranslationElicitation_eng-prolific,3.2.4,Linux x86_64,60,5e7d34b1a7cdf60009521d2a,4.082999945,1,0,81,38,1,80
,,,,,,,,,,,,,,,,,,,,,,,,,,,,,,,,,,,,,,,,,,,,,,,,,,,144,gorra,Catalan,Sounds/cat_gorra.mp3,2020-06-04_21h25.38.765,TranslationElicitation_eng-prolific,3.2.4,Linux x86_64,60,5e7d34b1a7cdf60009521d2a,,1,0,81,38,1,80
,,,,,,,,,,,,,,,,,,,,,,,,,,,,,,,,,,,,,,,,,b,2.532999992,B,FALSE,,,,,,,149,llibre,Catalan,Sounds/cat_llibre.mp3,2020-06-04_21h25.38.765,TranslationElicitation_eng-prolific,3.2.4,Linux x86_64,60,5e7d34b1a7cdf60009521d2a,,1,0,81,42,1,80
,,,,,,,,,,,,,,,,,,,,,,,,,,,,,,,,,,,,,,,,,o,2.76699996,BO,FALSE,,,,,,,149,llibre,Catalan,Sounds/cat_llibre.mp3,2020-06-04_21h25.38.765,TranslationElicitation_eng-prolific,3.2.4,Linux x86_64,60,5e7d34b1a7cdf60009521d2a,,1,0,81,42,1,80
,,,,,,,,,,,,,,,,,,,,,,,,,,,,,,,,,,,,,,,,,o,2.883000135,BOO,FALSE,,,,,,,149,llibre,Catalan,Sounds/cat_llibre.mp3,2020-06-04_21h25.38.765,TranslationElicitation_eng-prolific,3.2.4,Linux x86_64,60,5e7d34b1a7cdf60009521d2a,,1,0,81,42,1,80
,,,,,,,,,,,,,,,,,,,,,,,,,,,,,,,,,,,,,,,,,k,3.004000187,BOOK,FALSE,,,,,,,149,llibre,Catalan,Sounds/cat_llibre.mp3,2020-06-04_21h25.38.765,TranslationElicitation_eng-prolific,3.2.4,Linux x86_64,60,5e7d34b1a7cdf60009521d2a,,1,0,81,42,1,80
,,,,,,,,,,,,,,,,,,,,,,,,,,,,,,,,,,,,,,,,,return,3.251000166,BOOK,FALSE,,,,,,,149,llibre,Catalan,Sounds/cat_llibre.mp3,2020-06-04_21h25.38.765,TranslationElicitation_eng-prolific,3.2.4,Linux x86_64,60,5e7d34b1a7cdf60009521d2a,3.251000166,1,0,81,42,1,80
,,,,,,,,,,,,,,,,,,,,,,,,,,,,,,,,,,,,,,,,,,,,,,,,,,,149,llibre,Catalan,Sounds/cat_llibre.mp3,2020-06-04_21h25.38.765,TranslationElicitation_eng-prolific,3.2.4,Linux x86_64,60,5e7d34b1a7cdf60009521d2a,,1,0,81,42,1,80
,,,,,,,,,,,,,,,,,,,,,,,,,,,,,,,,,,,,,,,,,p,1.933000088,P,FALSE,,,,,,,174,porta,Catalan,Sounds/cat_porta.mp3,2020-06-04_21h25.38.765,TranslationElicitation_eng-prolific,3.2.4,Linux x86_64,60,5e7d34b1a7cdf60009521d2a,,1,0,81,66,1,80
,,,,,,,,,,,,,,,,,,,,,,,,,,,,,,,,,,,,,,,,,o,2.01699996,PO,FALSE,,,,,,,174,porta,Catalan,Sounds/cat_porta.mp3,2020-06-04_21h25.38.765,TranslationElicitation_eng-prolific,3.2.4,Linux x86_64,60,5e7d34b1a7cdf60009521d2a,,1,0,81,66,1,80
,,,,,,,,,,,,,,,,,,,,,,,,,,,,,,,,,,,,,,,,,r,2.052000046,POR,FALSE,,,,,,,174,porta,Catalan,Sounds/cat_porta.mp3,2020-06-04_21h25.38.765,TranslationElicitation_eng-prolific,3.2.4,Linux x86_64,60,5e7d34b1a7cdf60009521d2a,,1,0,81,66,1,80
,,,,,,,,,,,,,,,,,,,,,,,,,,,,,,,,,,,,,,,,,t,2.100000143,PORT,FALSE,,,,,,,174,porta,Catalan,Sounds/cat_porta.mp3,2020-06-04_21h25.38.765,TranslationElicitation_eng-prolific,3.2.4,Linux x86_64,60,5e7d34b1a7cdf60009521d2a,,1,0,81,66,1,80
,,,,,,,,,,,,,,,,,,,,,,,,,,,,,,,,,,,,,,,,,return,2.184000015,PORT,FALSE,,,,,,,174,porta,Catalan,Sounds/cat_porta.mp3,2020-06-04_21h25.38.765,TranslationElicitation_eng-prolific,3.2.4,Linux x86_64,60,5e7d34b1a7cdf60009521d2a,2.184000015,1,0,81,66,1,80
,,,,,,,,,,,,,,,,,,,,,,,,,,,,,,,,,,,,,,,,,,,,,,,,,,,174,porta,Catalan,Sounds/cat_porta.mp3,2020-06-04_21h25.38.765,TranslationElicitation_eng-prolific,3.2.4,Linux x86_64,60,5e7d34b1a7cdf60009521d2a,,1,0,81,66,1,80
,,,,,,,,,,,,,,,,,,,,,,,,,,,,,,,,,,,,,,,,,m,1.717000008,M,FALSE,,,,,,,151,lluna,Catalan,Sounds/cat_lluna.mp3,2020-06-04_21h25.38.765,TranslationElicitation_eng-prolific,3.2.4,Linux x86_64,60,5e7d34b1a7cdf60009521d2a,,1,0,81,44,1,80
,,,,,,,,,,,,,,,,,,,,,,,,,,,,,,,,,,,,,,,,,o,1.816999912,MO,FALSE,,,,,,,151,lluna,Catalan,Sounds/cat_lluna.mp3,2020-06-04_21h25.38.765,TranslationElicitation_eng-prolific,3.2.4,Linux x86_64,60,5e7d34b1a7cdf60009521d2a,,1,0,81,44,1,80
,,,,,,,,,,,,,,,,,,,,,,,,,,,,,,,,,,,,,,,,,o,1.950000048,MOO,FALSE,,,,,,,151,lluna,Catalan,Sounds/cat_lluna.mp3,2020-06-04_21h25.38.765,TranslationElicitation_eng-prolific,3.2.4,Linux x86_64,60,5e7d34b1a7cdf60009521d2a,,1,0,81,44,1,80
,,,,,,,,,,,,,,,,,,,,,,,,,,,,,,,,,,,,,,,,,n,2.03399992,MOON,FALSE,,,,,,,151,lluna,Catalan,Sounds/cat_lluna.mp3,2020-06-04_21h25.38.765,TranslationElicitation_eng-prolific,3.2.4,Linux x86_64,60,5e7d34b1a7cdf60009521d2a,,1,0,81,44,1,80
,,,,,,,,,,,,,,,,,,,,,,,,,,,,,,,,,,,,,,,,,return,2.193000078,MOON,FALSE,,,,,,,151,lluna,Catalan,Sounds/cat_lluna.mp3,2020-06-04_21h25.38.765,TranslationElicitation_eng-prolific,3.2.4,Linux x86_64,60,5e7d34b1a7cdf60009521d2a,2.193000078,1,0,81,44,1,80
,,,,,,,,,,,,,,,,,,,,,,,,,,,,,,,,,,,,,,,,,,,,,,,,,,,151,lluna,Catalan,Sounds/cat_lluna.mp3,2020-06-04_21h25.38.765,TranslationElicitation_eng-prolific,3.2.4,Linux x86_64,60,5e7d34b1a7cdf60009521d2a,,1,0,81,44,1,80
,,,,,,,,,,,,,,,,,,,,,,,,,,,,,,,,,,,,,,,,,m,2.73300004,M,FALSE,,,,,,,157,mussol,Catalan,Sounds/cat_mussol.mp3,2020-06-04_21h25.38.765,TranslationElicitation_eng-prolific,3.2.4,Linux x86_64,60,5e7d34b1a7cdf60009521d2a,,1,0,81,50,1,80
,,,,,,,,,,,,,,,,,,,,,,,,,,,,,,,,,,,,,,,,,u,2.933000088,MU,FALSE,,,,,,,157,mussol,Catalan,Sounds/cat_mussol.mp3,2020-06-04_21h25.38.765,TranslationElicitation_eng-prolific,3.2.4,Linux x86_64,60,5e7d34b1a7cdf60009521d2a,,1,0,81,50,1,80
,,,,,,,,,,,,,,,,,,,,,,,,,,,,,,,,,,,,,,,,,s,3.01699996,MUS,FALSE,,,,,,,157,mussol,Catalan,Sounds/cat_mussol.mp3,2020-06-04_21h25.38.765,TranslationElicitation_eng-prolific,3.2.4,Linux x86_64,60,5e7d34b1a7cdf60009521d2a,,1,0,81,50,1,80
,,,,,,,,,,,,,,,,,,,,,,,,,,,,,,,,,,,,,,,,,s,3.184000015,MUSS,FALSE,,,,,,,157,mussol,Catalan,Sounds/cat_mussol.mp3,2020-06-04_21h25.38.765,TranslationElicitation_eng-prolific,3.2.4,Linux x86_64,60,5e7d34b1a7cdf60009521d2a,,1,0,81,50,1,80
,,,,,,,,,,,,,,,,,,,,,,,,,,,,,,,,,,,,,,,,,e,3.392999887,MUSSE,FALSE,,,,,,,157,mussol,Catalan,Sounds/cat_mussol.mp3,2020-06-04_21h25.38.765,TranslationElicitation_eng-prolific,3.2.4,Linux x86_64,60,5e7d34b1a7cdf60009521d2a,,1,0,81,50,1,80
,,,,,,,,,,,,,,,,,,,,,,,,,,,,,,,,,,,,,,,,,l,3.453999996,MUSSEL,FALSE,,,,,,,157,mussol,Catalan,Sounds/cat_mussol.mp3,2020-06-04_21h25.38.765,TranslationElicitation_eng-prolific,3.2.4,Linux x86_64,60,5e7d34b1a7cdf60009521d2a,,1,0,81,50,1,80
,,,,,,,,,,,,,,,,,,,,,,,,,,,,,,,,,,,,,,,,,backspace,3.930000067,MUSSE,TRUE,,,,,,,157,mussol,Catalan,Sounds/cat_mussol.mp3,2020-06-04_21h25.38.765,TranslationElicitation_eng-prolific,3.2.4,Linux x86_64,60,5e7d34b1a7cdf60009521d2a,,1,0,81,50,1,80
,,,,,,,,,,,,,,,,,,,,,,,,,,,,,,,,,,,,,,,,,l,4.319000006,MUSSEL,TRUE,,,,,,,157,mussol,Catalan,Sounds/cat_mussol.mp3,2020-06-04_21h25.38.765,TranslationElicitation_eng-prolific,3.2.4,Linux x86_64,60,5e7d34b1a7cdf60009521d2a,,1,0,81,50,1,80
,,,,,,,,,,,,,,,,,,,,,,,,,,,,,,,,,,,,,,,,,return,4.642999887,MUSSEL,TRUE,,,,,,,157,mussol,Catalan,Sounds/cat_mussol.mp3,2020-06-04_21h25.38.765,TranslationElicitation_eng-prolific,3.2.4,Linux x86_64,60,5e7d34b1a7cdf60009521d2a,4.642999887,1,0,81,50,1,80
,,,,,,,,,,,,,,,,,,,,,,,,,,,,,,,,,,,,,,,,,,,,,,,,,,,157,mussol,Catalan,Sounds/cat_mussol.mp3,2020-06-04_21h25.38.765,TranslationElicitation_eng-prolific,3.2.4,Linux x86_64,60,5e7d34b1a7cdf60009521d2a,,1,0,81,50,1,80
,,,,,,,,,,,,,,,,,,,,,,,,,,,,,,,,,,,,,,,,,d,10.43300009,D,FALSE,,,,,,,129,dit,Catalan,Sounds/cat_dit.mp3,2020-06-04_21h25.38.765,TranslationElicitation_eng-prolific,3.2.4,Linux x86_64,60,5e7d34b1a7cdf60009521d2a,,1,0,81,23,1,80
,,,,,,,,,,,,,,,,,,,,,,,,,,,,,,,,,,,,,,,,,e,10.61600018,DE,FALSE,,,,,,,129,dit,Catalan,Sounds/cat_dit.mp3,2020-06-04_21h25.38.765,TranslationElicitation_eng-prolific,3.2.4,Linux x86_64,60,5e7d34b1a7cdf60009521d2a,,1,0,81,23,1,80
,,,,,,,,,,,,,,,,,,,,,,,,,,,,,,,,,,,,,,,,,e,10.74600005,DEE,FALSE,,,,,,,129,dit,Catalan,Sounds/cat_dit.mp3,2020-06-04_21h25.38.765,TranslationElicitation_eng-prolific,3.2.4,Linux x86_64,60,5e7d34b1a7cdf60009521d2a,,1,0,81,23,1,80
,,,,,,,,,,,,,,,,,,,,,,,,,,,,,,,,,,,,,,,,,d,10.82600021,DEED,FALSE,,,,,,,129,dit,Catalan,Sounds/cat_dit.mp3,2020-06-04_21h25.38.765,TranslationElicitation_eng-prolific,3.2.4,Linux x86_64,60,5e7d34b1a7cdf60009521d2a,,1,0,81,23,1,80
,,,,,,,,,,,,,,,,,,,,,,,,,,,,,,,,,,,,,,,,,return,10.97300005,DEED,FALSE,,,,,,,129,dit,Catalan,Sounds/cat_dit.mp3,2020-06-04_21h25.38.765,TranslationElicitation_eng-prolific,3.2.4,Linux x86_64,60,5e7d34b1a7cdf60009521d2a,10.97300005,1,0,81,23,1,80
,,,,,,,,,,,,,,,,,,,,,,,,,,,,,,,,,,,,,,,,,,,,,,,,,,,129,dit,Catalan,Sounds/cat_dit.mp3,2020-06-04_21h25.38.765,TranslationElicitation_eng-prolific,3.2.4,Linux x86_64,60,5e7d34b1a7cdf60009521d2a,,1,0,81,23,1,80
,,,,,,,,,,,,,,,,,,,,,,,,,,,,,,,,,,,,,,,,,t,2.96600008,T,FALSE,,,,,,,181,tobogan,Catalan,Sounds/cat_tobogan.mp3,2020-06-04_21h25.38.765,TranslationElicitation_eng-prolific,3.2.4,Linux x86_64,60,5e7d34b1a7cdf60009521d2a,,1,0,81,72,1,80
,,,,,,,,,,,,,,,,,,,,,,,,,,,,,,,,,,,,,,,,,o,3.066000223,TO,FALSE,,,,,,,181,tobogan,Catalan,Sounds/cat_tobogan.mp3,2020-06-04_21h25.38.765,TranslationElicitation_eng-prolific,3.2.4,Linux x86_64,60,5e7d34b1a7cdf60009521d2a,,1,0,81,72,1,80
,,,,,,,,,,,,,,,,,,,,,,,,,,,,,,,,,,,,,,,,,b,3.23300004,TOB,FALSE,,,,,,,181,tobogan,Catalan,Sounds/cat_tobogan.mp3,2020-06-04_21h25.38.765,TranslationElicitation_eng-prolific,3.2.4,Linux x86_64,60,5e7d34b1a7cdf60009521d2a,,1,0,81,72,1,80
,,,,,,,,,,,,,,,,,,,,,,,,,,,,,,,,,,,,,,,,,o,3.381000042,TOBO,FALSE,,,,,,,181,tobogan,Catalan,Sounds/cat_tobogan.mp3,2020-06-04_21h25.38.765,TranslationElicitation_eng-prolific,3.2.4,Linux x86_64,60,5e7d34b1a7cdf60009521d2a,,1,0,81,72,1,80
,,,,,,,,,,,,,,,,,,,,,,,,,,,,,,,,,,,,,,,,,g,3.501000166,TOBOG,FALSE,,,,,,,181,tobogan,Catalan,Sounds/cat_tobogan.mp3,2020-06-04_21h25.38.765,TranslationElicitation_eng-prolific,3.2.4,Linux x86_64,60,5e7d34b1a7cdf60009521d2a,,1,0,81,72,1,80
,,,,,,,,,,,,,,,,,,,,,,,,,,,,,,,,,,,,,,,,,g,3.617000103,TOBOGG,FALSE,,,,,,,181,tobogan,Catalan,Sounds/cat_tobogan.mp3,2020-06-04_21h25.38.765,TranslationElicitation_eng-prolific,3.2.4,Linux x86_64,60,5e7d34b1a7cdf60009521d2a,,1,0,81,72,1,80
,,,,,,,,,,,,,,,,,,,,,,,,,,,,,,,,,,,,,,,,,a,3.774000168,TOBOGGA,FALSE,,,,,,,181,tobogan,Catalan,Sounds/cat_tobogan.mp3,2020-06-04_21h25.38.765,TranslationElicitation_eng-prolific,3.2.4,Linux x86_64,60,5e7d34b1a7cdf60009521d2a,,1,0,81,72,1,80
,,,,,,,,,,,,,,,,,,,,,,,,,,,,,,,,,,,,,,,,,n,3.846000195,TOBOGGAN,FALSE,,,,,,,181,tobogan,Catalan,Sounds/cat_tobogan.mp3,2020-06-04_21h25.38.765,TranslationElicitation_eng-prolific,3.2.4,Linux x86_64,60,5e7d34b1a7cdf60009521d2a,,1,0,81,72,1,80
,,,,,,,,,,,,,,,,,,,,,,,,,,,,,,,,,,,,,,,,,return,4.072000027,TOBOGGAN,FALSE,,,,,,,181,tobogan,Catalan,Sounds/cat_tobogan.mp3,2020-06-04_21h25.38.765,TranslationElicitation_eng-prolific,3.2.4,Linux x86_64,60,5e7d34b1a7cdf60009521d2a,4.072000027,1,0,81,72,1,80
,,,,,,,,,,,,,,,,,,,,,,,,,,,,,,,,,,,,,,,,,,,,,,,,,,,181,tobogan,Catalan,Sounds/cat_tobogan.mp3,2020-06-04_21h25.38.765,TranslationElicitation_eng-prolific,3.2.4,Linux x86_64,60,5e7d34b1a7cdf60009521d2a,,1,0,81,72,1,80
,,,,,,,,,,,,,,,,,,,,,,,,,,,,,,,,,,,,,,,,,t,5.065999985,T,FALSE,,,,,,,104,abella,Catalan,Sounds/cat_abella.mp3,2020-06-04_21h25.38.765,TranslationElicitation_eng-prolific,3.2.4,Linux x86_64,60,5e7d34b1a7cdf60009521d2a,,1,0,81,0,1,80
,,,,,,,,,,,,,,,,,,,,,,,,,,,,,,,,,,,,,,,,,r,5.134000063,TR,FALSE,,,,,,,104,abella,Catalan,Sounds/cat_abella.mp3,2020-06-04_21h25.38.765,TranslationElicitation_eng-prolific,3.2.4,Linux x86_64,60,5e7d34b1a7cdf60009521d2a,,1,0,81,0,1,80
,,,,,,,,,,,,,,,,,,,,,,,,,,,,,,,,,,,,,,,,,a,5.23300004,TRA,FALSE,,,,,,,104,abella,Catalan,Sounds/cat_abella.mp3,2020-06-04_21h25.38.765,TranslationElicitation_eng-prolific,3.2.4,Linux x86_64,60,5e7d34b1a7cdf60009521d2a,,1,0,81,0,1,80
,,,,,,,,,,,,,,,,,,,,,,,,,,,,,,,,,,,,,,,,,v,5.399999857,TRAV,FALSE,,,,,,,104,abella,Catalan,Sounds/cat_abella.mp3,2020-06-04_21h25.38.765,TranslationElicitation_eng-prolific,3.2.4,Linux x86_64,60,5e7d34b1a7cdf60009521d2a,,1,0,81,0,1,80
,,,,,,,,,,,,,,,,,,,,,,,,,,,,,,,,,,,,,,,,,e,5.460999966,TRAVE,FALSE,,,,,,,104,abella,Catalan,Sounds/cat_abella.mp3,2020-06-04_21h25.38.765,TranslationElicitation_eng-prolific,3.2.4,Linux x86_64,60,5e7d34b1a7cdf60009521d2a,,1,0,81,0,1,80
,,,,,,,,,,,,,,,,,,,,,,,,,,,,,,,,,,,,,,,,,l,5.536999941,TRAVEL,FALSE,,,,,,,104,abella,Catalan,Sounds/cat_abella.mp3,2020-06-04_21h25.38.765,TranslationElicitation_eng-prolific,3.2.4,Linux x86_64,60,5e7d34b1a7cdf60009521d2a,,1,0,81,0,1,80
,,,,,,,,,,,,,,,,,,,,,,,,,,,,,,,,,,,,,,,,,return,5.753999949,TRAVEL,FALSE,,,,,,,104,abella,Catalan,Sounds/cat_abella.mp3,2020-06-04_21h25.38.765,TranslationElicitation_eng-prolific,3.2.4,Linux x86_64,60,5e7d34b1a7cdf60009521d2a,5.753999949,1,0,81,0,1,80
,,,,,,,,,,,,,,,,,,,,,,,,,,,,,,,,,,,,,,,,,,,,,,,,,,,104,abella,Catalan,Sounds/cat_abella.mp3,2020-06-04_21h25.38.765,TranslationElicitation_eng-prolific,3.2.4,Linux x86_64,60,5e7d34b1a7cdf60009521d2a,,1,0,81,0,1,80
,,,,,,,,,,,,,,,,,,,,,,,,,,,,,,,,,,,,,,,,,f,5.915999889,F,FALSE,,,,,,,137,fulla,Catalan,Sounds/cat_fulla.mp3,2020-06-04_21h25.38.765,TranslationElicitation_eng-prolific,3.2.4,Linux x86_64,60,5e7d34b1a7cdf60009521d2a,,1,0,81,31,1,80
,,,,,,,,,,,,,,,,,,,,,,,,,,,,,,,,,,,,,,,,,u,6.049999952,FU,FALSE,,,,,,,137,fulla,Catalan,Sounds/cat_fulla.mp3,2020-06-04_21h25.38.765,TranslationElicitation_eng-prolific,3.2.4,Linux x86_64,60,5e7d34b1a7cdf60009521d2a,,1,0,81,31,1,80
,,,,,,,,,,,,,,,,,,,,,,,,,,,,,,,,,,,,,,,,,l,6.215999842,FUL,FALSE,,,,,,,137,fulla,Catalan,Sounds/cat_fulla.mp3,2020-06-04_21h25.38.765,TranslationElicitation_eng-prolific,3.2.4,Linux x86_64,60,5e7d34b1a7cdf60009521d2a,,1,0,81,31,1,80
,,,,,,,,,,,,,,,,,,,,,,,,,,,,,,,,,,,,,,,,,l,6.332999945,FULL,FALSE,,,,,,,137,fulla,Catalan,Sounds/cat_fulla.mp3,2020-06-04_21h25.38.765,TranslationElicitation_eng-prolific,3.2.4,Linux x86_64,60,5e7d34b1a7cdf60009521d2a,,1,0,81,31,1,80
,,,,,,,,,,,,,,,,,,,,,,,,,,,,,,,,,,,,,,,,,return,6.799999952,FULL,FALSE,,,,,,,137,fulla,Catalan,Sounds/cat_fulla.mp3,2020-06-04_21h25.38.765,TranslationElicitation_eng-prolific,3.2.4,Linux x86_64,60,5e7d34b1a7cdf60009521d2a,6.799999952,1,0,81,31,1,80
,,,,,,,,,,,,,,,,,,,,,,,,,,,,,,,,,,,,,,,,,,,,,,,,,,,137,fulla,Catalan,Sounds/cat_fulla.mp3,2020-06-04_21h25.38.765,TranslationElicitation_eng-prolific,3.2.4,Linux x86_64,60,5e7d34b1a7cdf60009521d2a,,1,0,81,31,1,80
,,,,,,,,,,,,,,,,,,,,,,,,,,,,,,,,,,,,,,,,,m,18.07400012,M,FALSE,,,,,,,110,berenar,Catalan,Sounds/cat_berenar.mp3,2020-06-04_21h25.38.765,TranslationElicitation_eng-prolific,3.2.4,Linux x86_64,60,5e7d34b1a7cdf60009521d2a,,1,0,81,5,1,80
,,,,,,,,,,,,,,,,,,,,,,,,,,,,,,,,,,,,,,,,,e,18.5,ME,FALSE,,,,,,,110,berenar,Catalan,Sounds/cat_berenar.mp3,2020-06-04_21h25.38.765,TranslationElicitation_eng-prolific,3.2.4,Linux x86_64,60,5e7d34b1a7cdf60009521d2a,,1,0,81,5,1,80
,,,,,,,,,,,,,,,,,,,,,,,,,,,,,,,,,,,,,,,,,s,18.6730001,MES,FALSE,,,,,,,110,berenar,Catalan,Sounds/cat_berenar.mp3,2020-06-04_21h25.38.765,TranslationElicitation_eng-prolific,3.2.4,Linux x86_64,60,5e7d34b1a7cdf60009521d2a,,1,0,81,5,1,80
,,,,,,,,,,,,,,,,,,,,,,,,,,,,,,,,,,,,,,,,,s,18.8269999,MESS,FALSE,,,,,,,110,berenar,Catalan,Sounds/cat_berenar.mp3,2020-06-04_21h25.38.765,TranslationElicitation_eng-prolific,3.2.4,Linux x86_64,60,5e7d34b1a7cdf60009521d2a,,1,0,81,5,1,80
,,,,,,,,,,,,,,,,,,,,,,,,,,,,,,,,,,,,,,,,,y,18.86100006,MESSY,FALSE,,,,,,,110,berenar,Catalan,Sounds/cat_berenar.mp3,2020-06-04_21h25.38.765,TranslationElicitation_eng-prolific,3.2.4,Linux x86_64,60,5e7d34b1a7cdf60009521d2a,,1,0,81,5,1,80
,,,,,,,,,,,,,,,,,,,,,,,,,,,,,,,,,,,,,,,,,return,19.1329999,MESSY,FALSE,,,,,,,110,berenar,Catalan,Sounds/cat_berenar.mp3,2020-06-04_21h25.38.765,TranslationElicitation_eng-prolific,3.2.4,Linux x86_64,60,5e7d34b1a7cdf60009521d2a,19.1329999,1,0,81,5,1,80
,,,,,,,,,,,,,,,,,,,,,,,,,,,,,,,,,,,,,,,,,,,,,,,,,,,110,berenar,Catalan,Sounds/cat_berenar.mp3,2020-06-04_21h25.38.765,TranslationElicitation_eng-prolific,3.2.4,Linux x86_64,60,5e7d34b1a7cdf60009521d2a,,1,0,81,5,1,80
,,,,,,,,,,,,,,,,,,,,,,,,,,,,,,,,,,,,,,,,,c,9.753000021,C,FALSE,,,,,,,182,tomaquet,Catalan,Sounds/cat_tomaquet.mp3,2020-06-04_21h25.38.765,TranslationElicitation_eng-prolific,3.2.4,Linux x86_64,60,5e7d34b1a7cdf60009521d2a,,1,0,81,73,1,80
,,,,,,,,,,,,,,,,,,,,,,,,,,,,,,,,,,,,,,,,,l,9.832999945,CL,FALSE,,,,,,,182,tomaquet,Catalan,Sounds/cat_tomaquet.mp3,2020-06-04_21h25.38.765,TranslationElicitation_eng-prolific,3.2.4,Linux x86_64,60,5e7d34b1a7cdf60009521d2a,,1,0,81,73,1,80
,,,,,,,,,,,,,,,,,,,,,,,,,,,,,,,,,,,,,,,,,o,10.01300001,CLO,FALSE,,,,,,,182,tomaquet,Catalan,Sounds/cat_tomaquet.mp3,2020-06-04_21h25.38.765,TranslationElicitation_eng-prolific,3.2.4,Linux x86_64,60,5e7d34b1a7cdf60009521d2a,,1,0,81,73,1,80
,,,,,,,,,,,,,,,,,,,,,,,,,,,,,,,,,,,,,,,,,t,10.15799999,CLOT,FALSE,,,,,,,182,tomaquet,Catalan,Sounds/cat_tomaquet.mp3,2020-06-04_21h25.38.765,TranslationElicitation_eng-prolific,3.2.4,Linux x86_64,60,5e7d34b1a7cdf60009521d2a,,1,0,81,73,1,80
,,,,,,,,,,,,,,,,,,,,,,,,,,,,,,,,,,,,,,,,,h,10.30200005,CLOTH,FALSE,,,,,,,182,tomaquet,Catalan,Sounds/cat_tomaquet.mp3,2020-06-04_21h25.38.765,TranslationElicitation_eng-prolific,3.2.4,Linux x86_64,60,5e7d34b1a7cdf60009521d2a,,1,0,81,73,1,80
,,,,,,,,,,,,,,,,,,,,,,,,,,,,,,,,,,,,,,,,,n,10.38499999,CLOTHN,FALSE,,,,,,,182,tomaquet,Catalan,Sounds/cat_tomaquet.mp3,2020-06-04_21h25.38.765,TranslationElicitation_eng-prolific,3.2.4,Linux x86_64,60,5e7d34b1a7cdf60009521d2a,,1,0,81,73,1,80
,,,,,,,,,,,,,,,,,,,,,,,,,,,,,,,,,,,,,,,,,g,10.45000005,CLOTHNG,FALSE,,,,,,,182,tomaquet,Catalan,Sounds/cat_tomaquet.mp3,2020-06-04_21h25.38.765,TranslationElicitation_eng-prolific,3.2.4,Linux x86_64,60,5e7d34b1a7cdf60009521d2a,,1,0,81,73,1,80
,,,,,,,,,,,,,,,,,,,,,,,,,,,,,,,,,,,,,,,,,return,10.6329999,CLOTHNG,FALSE,,,,,,,182,tomaquet,Catalan,Sounds/cat_tomaquet.mp3,2020-06-04_21h25.38.765,TranslationElicitation_eng-prolific,3.2.4,Linux x86_64,60,5e7d34b1a7cdf60009521d2a,10.6329999,1,0,81,73,1,80
,,,,,,,,,,,,,,,,,,,,,,,,,,,,,,,,,,,,,,,,,,,,,,,,,,,182,tomaquet,Catalan,Sounds/cat_tomaquet.mp3,2020-06-04_21h25.38.765,TranslationElicitation_eng-prolific,3.2.4,Linux x86_64,60,5e7d34b1a7cdf60009521d2a,,1,0,81,73,1,80
,,,,,,,,,,,,,,,,,,,,,,,,,,,,,,,,,,,,,,,,,m,7.316000223,M,FALSE,,,,,,,156,moto,Catalan,Sounds/cat_moto.mp3,2020-06-04_21h25.38.765,TranslationElicitation_eng-prolific,3.2.4,Linux x86_64,60,5e7d34b1a7cdf60009521d2a,,1,0,81,49,1,80
,,,,,,,,,,,,,,,,,,,,,,,,,,,,,,,,,,,,,,,,,o,7.44900012,MO,FALSE,,,,,,,156,moto,Catalan,Sounds/cat_moto.mp3,2020-06-04_21h25.38.765,TranslationElicitation_eng-prolific,3.2.4,Linux x86_64,60,5e7d34b1a7cdf60009521d2a,,1,0,81,49,1,80
,,,,,,,,,,,,,,,,,,,,,,,,,,,,,,,,,,,,,,,,,t,7.775000095,MOT,FALSE,,,,,,,156,moto,Catalan,Sounds/cat_moto.mp3,2020-06-04_21h25.38.765,TranslationElicitation_eng-prolific,3.2.4,Linux x86_64,60,5e7d34b1a7cdf60009521d2a,,1,0,81,49,1,80
,,,,,,,,,,,,,,,,,,,,,,,,,,,,,,,,,,,,,,,,,t,7.908000231,MOTT,FALSE,,,,,,,156,moto,Catalan,Sounds/cat_moto.mp3,2020-06-04_21h25.38.765,TranslationElicitation_eng-prolific,3.2.4,Linux x86_64,60,5e7d34b1a7cdf60009521d2a,,1,0,81,49,1,80
,,,,,,,,,,,,,,,,,,,,,,,,,,,,,,,,,,,,,,,,,o,8,MOTTO,FALSE,,,,,,,156,moto,Catalan,Sounds/cat_moto.mp3,2020-06-04_21h25.38.765,TranslationElicitation_eng-prolific,3.2.4,Linux x86_64,60,5e7d34b1a7cdf60009521d2a,,1,0,81,49,1,80
,,,,,,,,,,,,,,,,,,,,,,,,,,,,,,,,,,,,,,,,,return,8.166000128,MOTTO,FALSE,,,,,,,156,moto,Catalan,Sounds/cat_moto.mp3,2020-06-04_21h25.38.765,TranslationElicitation_eng-prolific,3.2.4,Linux x86_64,60,5e7d34b1a7cdf60009521d2a,8.166000128,1,0,81,49,1,80
,,,,,,,,,,,,,,,,,,,,,,,,,,,,,,,,,,,,,,,,,,,,,,,,,,,156,moto,Catalan,Sounds/cat_moto.mp3,2020-06-04_21h25.38.765,TranslationElicitation_eng-prolific,3.2.4,Linux x86_64,60,5e7d34b1a7cdf60009521d2a,,1,0,81,49,1,80
,,,,,,,,,,,,,,,,,,,,,,,,,,,,,,,,,,,,,,,,,g,1.833999872,G,FALSE,,,,,,,146,guitarra,Catalan,Sounds/cat_guitarra.mp3,2020-06-04_21h25.38.765,TranslationElicitation_eng-prolific,3.2.4,Linux x86_64,60,5e7d34b1a7cdf60009521d2a,,1,0,81,40,1,80
,,,,,,,,,,,,,,,,,,,,,,,,,,,,,,,,,,,,,,,,,i,2.128000021,GI,FALSE,,,,,,,146,guitarra,Catalan,Sounds/cat_guitarra.mp3,2020-06-04_21h25.38.765,TranslationElicitation_eng-prolific,3.2.4,Linux x86_64,60,5e7d34b1a7cdf60009521d2a,,1,0,81,40,1,80
,,,,,,,,,,,,,,,,,,,,,,,,,,,,,,,,,,,,,,,,,backspace,2.48300004,G,TRUE,,,,,,,146,guitarra,Catalan,Sounds/cat_guitarra.mp3,2020-06-04_21h25.38.765,TranslationElicitation_eng-prolific,3.2.4,Linux x86_64,60,5e7d34b1a7cdf60009521d2a,,1,0,81,40,1,80
,,,,,,,,,,,,,,,,,,,,,,,,,,,,,,,,,,,,,,,,,u,2.683000088,GU,TRUE,,,,,,,146,guitarra,Catalan,Sounds/cat_guitarra.mp3,2020-06-04_21h25.38.765,TranslationElicitation_eng-prolific,3.2.4,Linux x86_64,60,5e7d34b1a7cdf60009521d2a,,1,0,81,40,1,80
,,,,,,,,,,,,,,,,,,,,,,,,,,,,,,,,,,,,,,,,,i,2.76699996,GUI,TRUE,,,,,,,146,guitarra,Catalan,Sounds/cat_guitarra.mp3,2020-06-04_21h25.38.765,TranslationElicitation_eng-prolific,3.2.4,Linux x86_64,60,5e7d34b1a7cdf60009521d2a,,1,0,81,40,1,80
,,,,,,,,,,,,,,,,,,,,,,,,,,,,,,,,,,,,,,,,,t,2.835000038,GUIT,TRUE,,,,,,,146,guitarra,Catalan,Sounds/cat_guitarra.mp3,2020-06-04_21h25.38.765,TranslationElicitation_eng-prolific,3.2.4,Linux x86_64,60,5e7d34b1a7cdf60009521d2a,,1,0,81,40,1,80
,,,,,,,,,,,,,,,,,,,,,,,,,,,,,,,,,,,,,,,,,a,2.977999926,GUITA,TRUE,,,,,,,146,guitarra,Catalan,Sounds/cat_guitarra.mp3,2020-06-04_21h25.38.765,TranslationElicitation_eng-prolific,3.2.4,Linux x86_64,60,5e7d34b1a7cdf60009521d2a,,1,0,81,40,1,80
,,,,,,,,,,,,,,,,,,,,,,,,,,,,,,,,,,,,,,,,,r,3.187000036,GUITAR,TRUE,,,,,,,146,guitarra,Catalan,Sounds/cat_guitarra.mp3,2020-06-04_21h25.38.765,TranslationElicitation_eng-prolific,3.2.4,Linux x86_64,60,5e7d34b1a7cdf60009521d2a,,1,0,81,40,1,80
,,,,,,,,,,,,,,,,,,,,,,,,,,,,,,,,,,,,,,,,,return,3.384000063,GUITAR,TRUE,,,,,,,146,guitarra,Catalan,Sounds/cat_guitarra.mp3,2020-06-04_21h25.38.765,TranslationElicitation_eng-prolific,3.2.4,Linux x86_64,60,5e7d34b1a7cdf60009521d2a,3.384000063,1,0,81,40,1,80
,,,,,,,,,,,,,,,,,,,,,,,,,,,,,,,,,,,,,,,,,,,,,,,,,,,146,guitarra,Catalan,Sounds/cat_guitarra.mp3,2020-06-04_21h25.38.765,TranslationElicitation_eng-prolific,3.2.4,Linux x86_64,60,5e7d34b1a7cdf60009521d2a,,1,0,81,40,1,80
,,,,,,,,,,,,,,,,,,,,,,,,,,,,,,,,,,,,,,,,,c,7.601000071,C,FALSE,,,,,,,107,amanida,Catalan,Sounds/cat_amanida.mp3,2020-06-04_21h25.38.765,TranslationElicitation_eng-prolific,3.2.4,Linux x86_64,60,5e7d34b1a7cdf60009521d2a,,1,0,81,3,1,80
,,,,,,,,,,,,,,,,,,,,,,,,,,,,,,,,,,,,,,,,,r,7.818000078,CR,FALSE,,,,,,,107,amanida,Catalan,Sounds/cat_amanida.mp3,2020-06-04_21h25.38.765,TranslationElicitation_eng-prolific,3.2.4,Linux x86_64,60,5e7d34b1a7cdf60009521d2a,,1,0,81,3,1,80
,,,,,,,,,,,,,,,,,,,,,,,,,,,,,,,,,,,,,,,,,i,8.109000206,CRI,FALSE,,,,,,,107,amanida,Catalan,Sounds/cat_amanida.mp3,2020-06-04_21h25.38.765,TranslationElicitation_eng-prolific,3.2.4,Linux x86_64,60,5e7d34b1a7cdf60009521d2a,,1,0,81,3,1,80
,,,,,,,,,,,,,,,,,,,,,,,,,,,,,,,,,,,,,,,,,backspace,8.348999977,CR,TRUE,,,,,,,107,amanida,Catalan,Sounds/cat_amanida.mp3,2020-06-04_21h25.38.765,TranslationElicitation_eng-prolific,3.2.4,Linux x86_64,60,5e7d34b1a7cdf60009521d2a,,1,0,81,3,1,80
,,,,,,,,,,,,,,,,,,,,,,,,,,,,,,,,,,,,,,,,,backspace,8.412000179,C,TRUE,,,,,,,107,amanida,Catalan,Sounds/cat_amanida.mp3,2020-06-04_21h25.38.765,TranslationElicitation_eng-prolific,3.2.4,Linux x86_64,60,5e7d34b1a7cdf60009521d2a,,1,0,81,3,1,80
,,,,,,,,,,,,,,,,,,,,,,,,,,,,,,,,,,,,,,,,,i,8.586000204,CI,TRUE,,,,,,,107,amanida,Catalan,Sounds/cat_amanida.mp3,2020-06-04_21h25.38.765,TranslationElicitation_eng-prolific,3.2.4,Linux x86_64,60,5e7d34b1a7cdf60009521d2a,,1,0,81,3,1,80
,,,,,,,,,,,,,,,,,,,,,,,,,,,,,,,,,,,,,,,,,r,8.652000189,CIR,TRUE,,,,,,,107,amanida,Catalan,Sounds/cat_amanida.mp3,2020-06-04_21h25.38.765,TranslationElicitation_eng-prolific,3.2.4,Linux x86_64,60,5e7d34b1a7cdf60009521d2a,,1,0,81,3,1,80
,,,,,,,,,,,,,,,,,,,,,,,,,,,,,,,,,,,,,,,,,c,8.834000111,CIRC,TRUE,,,,,,,107,amanida,Catalan,Sounds/cat_amanida.mp3,2020-06-04_21h25.38.765,TranslationElicitation_eng-prolific,3.2.4,Linux x86_64,60,5e7d34b1a7cdf60009521d2a,,1,0,81,3,1,80
,,,,,,,,,,,,,,,,,,,,,,,,,,,,,,,,,,,,,,,,,l,8.88499999,CIRCL,TRUE,,,,,,,107,amanida,Catalan,Sounds/cat_amanida.mp3,2020-06-04_21h25.38.765,TranslationElicitation_eng-prolific,3.2.4,Linux x86_64,60,5e7d34b1a7cdf60009521d2a,,1,0,81,3,1,80
,,,,,,,,,,,,,,,,,,,,,,,,,,,,,,,,,,,,,,,,,e,8.950999975,CIRCLE,TRUE,,,,,,,107,amanida,Catalan,Sounds/cat_amanida.mp3,2020-06-04_21h25.38.765,TranslationElicitation_eng-prolific,3.2.4,Linux x86_64,60,5e7d34b1a7cdf60009521d2a,,1,0,81,3,1,80
,,,,,,,,,,,,,,,,,,,,,,,,,,,,,,,,,,,,,,,,,return,10.20600009,CIRCLE,TRUE,,,,,,,107,amanida,Catalan,Sounds/cat_amanida.mp3,2020-06-04_21h25.38.765,TranslationElicitation_eng-prolific,3.2.4,Linux x86_64,60,5e7d34b1a7cdf60009521d2a,10.20600009,1,0,81,3,1,80
,,,,,,,,,,,,,,,,,,,,,,,,,,,,,,,,,,,,,,,,,,,,,,,,,,,107,amanida,Catalan,Sounds/cat_amanida.mp3,2020-06-04_21h25.38.765,TranslationElicitation_eng-prolific,3.2.4,Linux x86_64,60,5e7d34b1a7cdf60009521d2a,,1,0,81,3,1,80
,,,,,,,,,,,,,,,,,,,,,,,,,,,,,,,,,,,,,,,,,e,6.950000048,E,FALSE,,,,,,,160,orella,Catalan,Sounds/cat_orella.mp3,2020-06-04_21h25.38.765,TranslationElicitation_eng-prolific,3.2.4,Linux x86_64,60,5e7d34b1a7cdf60009521d2a,,1,0,81,52,1,80
,,,,,,,,,,,,,,,,,,,,,,,,,,,,,,,,,,,,,,,,,a,7.149000168,EA,FALSE,,,,,,,160,orella,Catalan,Sounds/cat_orella.mp3,2020-06-04_21h25.38.765,TranslationElicitation_eng-prolific,3.2.4,Linux x86_64,60,5e7d34b1a7cdf60009521d2a,,1,0,81,52,1,80
,,,,,,,,,,,,,,,,,,,,,,,,,,,,,,,,,,,,,,,,,r,7.18900013,EAR,FALSE,,,,,,,160,orella,Catalan,Sounds/cat_orella.mp3,2020-06-04_21h25.38.765,TranslationElicitation_eng-prolific,3.2.4,Linux x86_64,60,5e7d34b1a7cdf60009521d2a,,1,0,81,52,1,80
,,,,,,,,,,,,,,,,,,,,,,,,,,,,,,,,,,,,,,,,,return,7.607000113,EAR,FALSE,,,,,,,160,orella,Catalan,Sounds/cat_orella.mp3,2020-06-04_21h25.38.765,TranslationElicitation_eng-prolific,3.2.4,Linux x86_64,60,5e7d34b1a7cdf60009521d2a,7.607000113,1,0,81,52,1,80
,,,,,,,,,,,,,,,,,,,,,,,,,,,,,,,,,,,,,,,,,,,,,,,,,,,160,orella,Catalan,Sounds/cat_orella.mp3,2020-06-04_21h25.38.765,TranslationElicitation_eng-prolific,3.2.4,Linux x86_64,60,5e7d34b1a7cdf60009521d2a,,1,0,81,52,1,80
,,,,,,,,,,,,,,,,,,,,,,,,,,,,,,,,,,,,,,,,,b,6.164000034,B,FALSE,,,,,,,148,lleo,Catalan,Sounds/cat_lleo.mp3,2020-06-04_21h25.38.765,TranslationElicitation_eng-prolific,3.2.4,Linux x86_64,60,5e7d34b1a7cdf60009521d2a,,1,0,81,41,1,80
,,,,,,,,,,,,,,,,,,,,,,,,,,,,,,,,,,,,,,,,,o,6.302999973,BO,FALSE,,,,,,,148,lleo,Catalan,Sounds/cat_lleo.mp3,2020-06-04_21h25.38.765,TranslationElicitation_eng-prolific,3.2.4,Linux x86_64,60,5e7d34b1a7cdf60009521d2a,,1,0,81,41,1,80
,,,,,,,,,,,,,,,,,,,,,,,,,,,,,,,,,,,,,,,,,a,6.349999905,BOA,FALSE,,,,,,,148,lleo,Catalan,Sounds/cat_lleo.mp3,2020-06-04_21h25.38.765,TranslationElicitation_eng-prolific,3.2.4,Linux x86_64,60,5e7d34b1a7cdf60009521d2a,,1,0,81,41,1,80
,,,,,,,,,,,,,,,,,,,,,,,,,,,,,,,,,,,,,,,,,t,6.450999975,BOAT,FALSE,,,,,,,148,lleo,Catalan,Sounds/cat_lleo.mp3,2020-06-04_21h25.38.765,TranslationElicitation_eng-prolific,3.2.4,Linux x86_64,60,5e7d34b1a7cdf60009521d2a,,1,0,81,41,1,80
,,,,,,,,,,,,,,,,,,,,,,,,,,,,,,,,,,,,,,,,,return,6.582999945,BOAT,FALSE,,,,,,,148,lleo,Catalan,Sounds/cat_lleo.mp3,2020-06-04_21h25.38.765,TranslationElicitation_eng-prolific,3.2.4,Linux x86_64,60,5e7d34b1a7cdf60009521d2a,6.582999945,1,0,81,41,1,80
,,,,,,,,,,,,,,,,,,,,,,,,,,,,,,,,,,,,,,,,,,,,,,,,,,,148,lleo,Catalan,Sounds/cat_lleo.mp3,2020-06-04_21h25.38.765,TranslationElicitation_eng-prolific,3.2.4,Linux x86_64,60,5e7d34b1a7cdf60009521d2a,,1,0,81,41,1,80
,,,,,,,,,,,,,,,,,,,,,,,,,,,,,,,,,,,,,,,,,m,7.084000111,M,FALSE,,,,,,,135,formiga,Catalan,Sounds/cat_formiga.mp3,2020-06-04_21h25.38.765,TranslationElicitation_eng-prolific,3.2.4,Linux x86_64,60,5e7d34b1a7cdf60009521d2a,,1,0,81,29,1,80
,,,,,,,,,,,,,,,,,,,,,,,,,,,,,,,,,,,,,,,,,i,7.239000082,MI,FALSE,,,,,,,135,formiga,Catalan,Sounds/cat_formiga.mp3,2020-06-04_21h25.38.765,TranslationElicitation_eng-prolific,3.2.4,Linux x86_64,60,5e7d34b1a7cdf60009521d2a,,1,0,81,29,1,80
,,,,,,,,,,,,,,,,,,,,,,,,,,,,,,,,,,,,,,,,,n,7.319000006,MIN,FALSE,,,,,,,135,formiga,Catalan,Sounds/cat_formiga.mp3,2020-06-04_21h25.38.765,TranslationElicitation_eng-prolific,3.2.4,Linux x86_64,60,5e7d34b1a7cdf60009521d2a,,1,0,81,29,1,80
,,,,,,,,,,,,,,,,,,,,,,,,,,,,,,,,,,,,,,,,,e,7.40199995,MINE,FALSE,,,,,,,135,formiga,Catalan,Sounds/cat_formiga.mp3,2020-06-04_21h25.38.765,TranslationElicitation_eng-prolific,3.2.4,Linux x86_64,60,5e7d34b1a7cdf60009521d2a,,1,0,81,29,1,80
,,,,,,,,,,,,,,,,,,,,,,,,,,,,,,,,,,,,,,,,,r,7.467000008,MINER,FALSE,,,,,,,135,formiga,Catalan,Sounds/cat_formiga.mp3,2020-06-04_21h25.38.765,TranslationElicitation_eng-prolific,3.2.4,Linux x86_64,60,5e7d34b1a7cdf60009521d2a,,1,0,81,29,1,80
,,,,,,,,,,,,,,,,,,,,,,,,,,,,,,,,,,,,,,,,,a,7.595999956,MINERA,FALSE,,,,,,,135,formiga,Catalan,Sounds/cat_formiga.mp3,2020-06-04_21h25.38.765,TranslationElicitation_eng-prolific,3.2.4,Linux x86_64,60,5e7d34b1a7cdf60009521d2a,,1,0,81,29,1,80
,,,,,,,,,,,,,,,,,,,,,,,,,,,,,,,,,,,,,,,,,l,7.663000107,MINERAL,FALSE,,,,,,,135,formiga,Catalan,Sounds/cat_formiga.mp3,2020-06-04_21h25.38.765,TranslationElicitation_eng-prolific,3.2.4,Linux x86_64,60,5e7d34b1a7cdf60009521d2a,,1,0,81,29,1,80
,,,,,,,,,,,,,,,,,,,,,,,,,,,,,,,,,,,,,,,,,return,7.838999987,MINERAL,FALSE,,,,,,,135,formiga,Catalan,Sounds/cat_formiga.mp3,2020-06-04_21h25.38.765,TranslationElicitation_eng-prolific,3.2.4,Linux x86_64,60,5e7d34b1a7cdf60009521d2a,7.838999987,1,0,81,29,1,80
,,,,,,,,,,,,,,,,,,,,,,,,,,,,,,,,,,,,,,,,,,,,,,,,,,,135,formiga,Catalan,Sounds/cat_formiga.mp3,2020-06-04_21h25.38.765,TranslationElicitation_eng-prolific,3.2.4,Linux x86_64,60,5e7d34b1a7cdf60009521d2a,,1,0,81,29,1,80
,,,,,,,,,,,,,,,,,,,,,,,,,,,,,,,,,,,,,,,,,s,3.782999992,S,FALSE,,,,,,,180,tisores,Catalan,Sounds/cat_tisores.mp3,2020-06-04_21h25.38.765,TranslationElicitation_eng-prolific,3.2.4,Linux x86_64,60,5e7d34b1a7cdf60009521d2a,,1,0,81,71,1,80
,,,,,,,,,,,,,,,,,,,,,,,,,,,,,,,,,,,,,,,,,h,3.845999956,SH,FALSE,,,,,,,180,tisores,Catalan,Sounds/cat_tisores.mp3,2020-06-04_21h25.38.765,TranslationElicitation_eng-prolific,3.2.4,Linux x86_64,60,5e7d34b1a7cdf60009521d2a,,1,0,81,71,1,80
,,,,,,,,,,,,,,,,,,,,,,,,,,,,,,,,,,,,,,,,,o,3.947000027,SHO,FALSE,,,,,,,180,tisores,Catalan,Sounds/cat_tisores.mp3,2020-06-04_21h25.38.765,TranslationElicitation_eng-prolific,3.2.4,Linux x86_64,60,5e7d34b1a7cdf60009521d2a,,1,0,81,71,1,80
,,,,,,,,,,,,,,,,,,,,,,,,,,,,,,,,,,,,,,,,,e,3.994999886,SHOE,FALSE,,,,,,,180,tisores,Catalan,Sounds/cat_tisores.mp3,2020-06-04_21h25.38.765,TranslationElicitation_eng-prolific,3.2.4,Linux x86_64,60,5e7d34b1a7cdf60009521d2a,,1,0,81,71,1,80
,,,,,,,,,,,,,,,,,,,,,,,,,,,,,,,,,,,,,,,,,s,4.169999838,SHOES,FALSE,,,,,,,180,tisores,Catalan,Sounds/cat_tisores.mp3,2020-06-04_21h25.38.765,TranslationElicitation_eng-prolific,3.2.4,Linux x86_64,60,5e7d34b1a7cdf60009521d2a,,1,0,81,71,1,80
,,,,,,,,,,,,,,,,,,,,,,,,,,,,,,,,,,,,,,,,,return,4.253000021,SHOES,FALSE,,,,,,,180,tisores,Catalan,Sounds/cat_tisores.mp3,2020-06-04_21h25.38.765,TranslationElicitation_eng-prolific,3.2.4,Linux x86_64,60,5e7d34b1a7cdf60009521d2a,4.253000021,1,0,81,71,1,80
,,,,,,,,,,,,,,,,,,,,,,,,,,,,,,,,,,,,,,,,,,,,,,,,,,,180,tisores,Catalan,Sounds/cat_tisores.mp3,2020-06-04_21h25.38.765,TranslationElicitation_eng-prolific,3.2.4,Linux x86_64,60,5e7d34b1a7cdf60009521d2a,,1,0,81,71,1,80
,,,,,,,,,,,,,,,,,,,,,,,,,,,,,,,,,,,,,,,,,c,5.182999849,C,FALSE,,,,,,,112,bici,Catalan,Sounds/cat_bici.mp3,2020-06-04_21h25.38.765,TranslationElicitation_eng-prolific,3.2.4,Linux x86_64,60,5e7d34b1a7cdf60009521d2a,,1,0,81,7,1,80
,,,,,,,,,,,,,,,,,,,,,,,,,,,,,,,,,,,,,,,,,h,5.3349998,CH,FALSE,,,,,,,112,bici,Catalan,Sounds/cat_bici.mp3,2020-06-04_21h25.38.765,TranslationElicitation_eng-prolific,3.2.4,Linux x86_64,60,5e7d34b1a7cdf60009521d2a,,1,0,81,7,1,80
,,,,,,,,,,,,,,,,,,,,,,,,,,,,,,,,,,,,,,,,,e,5.399999857,CHE,FALSE,,,,,,,112,bici,Catalan,Sounds/cat_bici.mp3,2020-06-04_21h25.38.765,TranslationElicitation_eng-prolific,3.2.4,Linux x86_64,60,5e7d34b1a7cdf60009521d2a,,1,0,81,7,1,80
,,,,,,,,,,,,,,,,,,,,,,,,,,,,,,,,,,,,,,,,,e,5.56099987,CHEE,FALSE,,,,,,,112,bici,Catalan,Sounds/cat_bici.mp3,2020-06-04_21h25.38.765,TranslationElicitation_eng-prolific,3.2.4,Linux x86_64,60,5e7d34b1a7cdf60009521d2a,,1,0,81,7,1,80
,,,,,,,,,,,,,,,,,,,,,,,,,,,,,,,,,,,,,,,,,s,5.689999819,CHEES,FALSE,,,,,,,112,bici,Catalan,Sounds/cat_bici.mp3,2020-06-04_21h25.38.765,TranslationElicitation_eng-prolific,3.2.4,Linux x86_64,60,5e7d34b1a7cdf60009521d2a,,1,0,81,7,1,80
,,,,,,,,,,,,,,,,,,,,,,,,,,,,,,,,,,,,,,,,,return,5.869999886,CHEES,FALSE,,,,,,,112,bici,Catalan,Sounds/cat_bici.mp3,2020-06-04_21h25.38.765,TranslationElicitation_eng-prolific,3.2.4,Linux x86_64,60,5e7d34b1a7cdf60009521d2a,5.869999886,1,0,81,7,1,80
,,,,,,,,,,,,,,,,,,,,,,,,,,,,,,,,,,,,,,,,,,,,,,,,,,,112,bici,Catalan,Sounds/cat_bici.mp3,2020-06-04_21h25.38.765,TranslationElicitation_eng-prolific,3.2.4,Linux x86_64,60,5e7d34b1a7cdf60009521d2a,,1,0,81,7,1,80
,,,,,,,,,,,,,,,,,,,,,,,,,,,,,,,,,,,,,,,,,p,4,P,FALSE,,,,,,,111,bibero,Catalan,Sounds/cat_bibero.mp3,2020-06-04_21h25.38.765,TranslationElicitation_eng-prolific,3.2.4,Linux x86_64,60,5e7d34b1a7cdf60009521d2a,,1,0,81,6,1,80
,,,,,,,,,,,,,,,,,,,,,,,,,,,,,,,,,,,,,,,,,e,4.184000015,PE,FALSE,,,,,,,111,bibero,Catalan,Sounds/cat_bibero.mp3,2020-06-04_21h25.38.765,TranslationElicitation_eng-prolific,3.2.4,Linux x86_64,60,5e7d34b1a7cdf60009521d2a,,1,0,81,6,1,80
,,,,,,,,,,,,,,,,,,,,,,,,,,,,,,,,,,,,,,,,,n,4.299999952,PEN,FALSE,,,,,,,111,bibero,Catalan,Sounds/cat_bibero.mp3,2020-06-04_21h25.38.765,TranslationElicitation_eng-prolific,3.2.4,Linux x86_64,60,5e7d34b1a7cdf60009521d2a,,1,0,81,6,1,80
,,,,,,,,,,,,,,,,,,,,,,,,,,,,,,,,,,,,,,,,,return,4.605999947,PEN,FALSE,,,,,,,111,bibero,Catalan,Sounds/cat_bibero.mp3,2020-06-04_21h25.38.765,TranslationElicitation_eng-prolific,3.2.4,Linux x86_64,60,5e7d34b1a7cdf60009521d2a,4.605999947,1,0,81,6,1,80
,,,,,,,,,,,,,,,,,,,,,,,,,,,,,,,,,,,,,,,,,,,,,,,,,,,111,bibero,Catalan,Sounds/cat_bibero.mp3,2020-06-04_21h25.38.765,TranslationElicitation_eng-prolific,3.2.4,Linux x86_64,60,5e7d34b1a7cdf60009521d2a,,1,0,81,6,1,80
,,,,,,,,,,,,,,,,,,,,,,,,,,,,,,,,,,,,,,,,,h,15.41899991,H,FALSE,,,,,,,158,nas,Catalan,Sounds/cat_nas.mp3,2020-06-04_21h25.38.765,TranslationElicitation_eng-prolific,3.2.4,Linux x86_64,60,5e7d34b1a7cdf60009521d2a,,1,0,81,51,1,80
,,,,,,,,,,,,,,,,,,,,,,,,,,,,,,,,,,,,,,,,,a,15.44999981,HA,FALSE,,,,,,,158,nas,Catalan,Sounds/cat_nas.mp3,2020-06-04_21h25.38.765,TranslationElicitation_eng-prolific,3.2.4,Linux x86_64,60,5e7d34b1a7cdf60009521d2a,,1,0,81,51,1,80
,,,,,,,,,,,,,,,,,,,,,,,,,,,,,,,,,,,,,,,,,t,15.54999995,HAT,FALSE,,,,,,,158,nas,Catalan,Sounds/cat_nas.mp3,2020-06-04_21h25.38.765,TranslationElicitation_eng-prolific,3.2.4,Linux x86_64,60,5e7d34b1a7cdf60009521d2a,,1,0,81,51,1,80
,,,,,,,,,,,,,,,,,,,,,,,,,,,,,,,,,,,,,,,,,return,15.82999992,HAT,FALSE,,,,,,,158,nas,Catalan,Sounds/cat_nas.mp3,2020-06-04_21h25.38.765,TranslationElicitation_eng-prolific,3.2.4,Linux x86_64,60,5e7d34b1a7cdf60009521d2a,15.82999992,1,0,81,51,1,80
,,,,,,,,,,,,,,,,,,,,,,,,,,,,,,,,,,,,,,,,,,,,,,,,,,,158,nas,Catalan,Sounds/cat_nas.mp3,2020-06-04_21h25.38.765,TranslationElicitation_eng-prolific,3.2.4,Linux x86_64,60,5e7d34b1a7cdf60009521d2a,,1,0,81,51,1,80
,,,,,,,,,,,,,,,,,,,,,,,,,,,,,,,,,,,,,,,,,p,1.644000053,P,FALSE,,,,,,,164,patata,Catalan,Sounds/cat_patata.mp3,2020-06-04_21h25.38.765,TranslationElicitation_eng-prolific,3.2.4,Linux x86_64,60,5e7d34b1a7cdf60009521d2a,,1,0,81,56,1,80
,,,,,,,,,,,,,,,,,,,,,,,,,,,,,,,,,,,,,,,,,o,1.727999926,PO,FALSE,,,,,,,164,patata,Catalan,Sounds/cat_patata.mp3,2020-06-04_21h25.38.765,TranslationElicitation_eng-prolific,3.2.4,Linux x86_64,60,5e7d34b1a7cdf60009521d2a,,1,0,81,56,1,80
,,,,,,,,,,,,,,,,,,,,,,,,,,,,,,,,,,,,,,,,,t,1.843999863,POT,FALSE,,,,,,,164,patata,Catalan,Sounds/cat_patata.mp3,2020-06-04_21h25.38.765,TranslationElicitation_eng-prolific,3.2.4,Linux x86_64,60,5e7d34b1a7cdf60009521d2a,,1,0,81,56,1,80
,,,,,,,,,,,,,,,,,,,,,,,,,,,,,,,,,,,,,,,,,a,1.944000006,POTA,FALSE,,,,,,,164,patata,Catalan,Sounds/cat_patata.mp3,2020-06-04_21h25.38.765,TranslationElicitation_eng-prolific,3.2.4,Linux x86_64,60,5e7d34b1a7cdf60009521d2a,,1,0,81,56,1,80
,,,,,,,,,,,,,,,,,,,,,,,,,,,,,,,,,,,,,,,,,t,2.02699995,POTAT,FALSE,,,,,,,164,patata,Catalan,Sounds/cat_patata.mp3,2020-06-04_21h25.38.765,TranslationElicitation_eng-prolific,3.2.4,Linux x86_64,60,5e7d34b1a7cdf60009521d2a,,1,0,81,56,1,80
,,,,,,,,,,,,,,,,,,,,,,,,,,,,,,,,,,,,,,,,,o,2.118000031,POTATO,FALSE,,,,,,,164,patata,Catalan,Sounds/cat_patata.mp3,2020-06-04_21h25.38.765,TranslationElicitation_eng-prolific,3.2.4,Linux x86_64,60,5e7d34b1a7cdf60009521d2a,,1,0,81,56,1,80
,,,,,,,,,,,,,,,,,,,,,,,,,,,,,,,,,,,,,,,,,return,2.29399991,POTATO,FALSE,,,,,,,164,patata,Catalan,Sounds/cat_patata.mp3,2020-06-04_21h25.38.765,TranslationElicitation_eng-prolific,3.2.4,Linux x86_64,60,5e7d34b1a7cdf60009521d2a,2.29399991,1,0,81,56,1,80
,,,,,,,,,,,,,,,,,,,,,,,,,,,,,,,,,,,,,,,,,,,,,,,,,,,164,patata,Catalan,Sounds/cat_patata.mp3,2020-06-04_21h25.38.765,TranslationElicitation_eng-prolific,3.2.4,Linux x86_64,60,5e7d34b1a7cdf60009521d2a,,1,0,81,56,1,80
,,,,,,,,,,,,,,,,,,,,,,,,,,,,,,,,,,,,,,,,,p,9.881000042,P,FALSE,,,,,,,163,papallona,Catalan,Sounds/cat_papallona.mp3,2020-06-04_21h25.38.765,TranslationElicitation_eng-prolific,3.2.4,Linux x86_64,60,5e7d34b1a7cdf60009521d2a,,1,0,81,55,1,80
,,,,,,,,,,,,,,,,,,,,,,,,,,,,,,,,,,,,,,,,,a,10.04799986,PA,FALSE,,,,,,,163,papallona,Catalan,Sounds/cat_papallona.mp3,2020-06-04_21h25.38.765,TranslationElicitation_eng-prolific,3.2.4,Linux x86_64,60,5e7d34b1a7cdf60009521d2a,,1,0,81,55,1,80
,,,,,,,,,,,,,,,,,,,,,,,,,,,,,,,,,,,,,,,,,y,10.16499996,PAY,FALSE,,,,,,,163,papallona,Catalan,Sounds/cat_papallona.mp3,2020-06-04_21h25.38.765,TranslationElicitation_eng-prolific,3.2.4,Linux x86_64,60,5e7d34b1a7cdf60009521d2a,,1,0,81,55,1,80
,,,,,,,,,,,,,,,,,,,,,,,,,,,,,,,,,,,,,,,,,a,10.227,PAYA,FALSE,,,,,,,163,papallona,Catalan,Sounds/cat_papallona.mp3,2020-06-04_21h25.38.765,TranslationElicitation_eng-prolific,3.2.4,Linux x86_64,60,5e7d34b1a7cdf60009521d2a,,1,0,81,55,1,80
,,,,,,,,,,,,,,,,,,,,,,,,,,,,,,,,,,,,,,,,,backspace,10.898,PAY,TRUE,,,,,,,163,papallona,Catalan,Sounds/cat_papallona.mp3,2020-06-04_21h25.38.765,TranslationElicitation_eng-prolific,3.2.4,Linux x86_64,60,5e7d34b1a7cdf60009521d2a,,1,0,81,55,1,80
,,,,,,,,,,,,,,,,,,,,,,,,,,,,,,,,,,,,,,,,,backspace,11.02900004,PA,TRUE,,,,,,,163,papallona,Catalan,Sounds/cat_papallona.mp3,2020-06-04_21h25.38.765,TranslationElicitation_eng-prolific,3.2.4,Linux x86_64,60,5e7d34b1a7cdf60009521d2a,,1,0,81,55,1,80
,,,,,,,,,,,,,,,,,,,,,,,,,,,,,,,,,,,,,,,,,p,11.25,PAP,TRUE,,,,,,,163,papallona,Catalan,Sounds/cat_papallona.mp3,2020-06-04_21h25.38.765,TranslationElicitation_eng-prolific,3.2.4,Linux x86_64,60,5e7d34b1a7cdf60009521d2a,,1,0,81,55,1,80
,,,,,,,,,,,,,,,,,,,,,,,,,,,,,,,,,,,,,,,,,a,11.33200002,PAPA,TRUE,,,,,,,163,papallona,Catalan,Sounds/cat_papallona.mp3,2020-06-04_21h25.38.765,TranslationElicitation_eng-prolific,3.2.4,Linux x86_64,60,5e7d34b1a7cdf60009521d2a,,1,0,81,55,1,80
,,,,,,,,,,,,,,,,,,,,,,,,,,,,,,,,,,,,,,,,,y,11.54799986,PAPAY,TRUE,,,,,,,163,papallona,Catalan,Sounds/cat_papallona.mp3,2020-06-04_21h25.38.765,TranslationElicitation_eng-prolific,3.2.4,Linux x86_64,60,5e7d34b1a7cdf60009521d2a,,1,0,81,55,1,80
,,,,,,,,,,,,,,,,,,,,,,,,,,,,,,,,,,,,,,,,,a,11.63100004,PAPAYA,TRUE,,,,,,,163,papallona,Catalan,Sounds/cat_papallona.mp3,2020-06-04_21h25.38.765,TranslationElicitation_eng-prolific,3.2.4,Linux x86_64,60,5e7d34b1a7cdf60009521d2a,,1,0,81,55,1,80
,,,,,,,,,,,,,,,,,,,,,,,,,,,,,,,,,,,,,,,,,return,11.8039999,PAPAYA,TRUE,,,,,,,163,papallona,Catalan,Sounds/cat_papallona.mp3,2020-06-04_21h25.38.765,TranslationElicitation_eng-prolific,3.2.4,Linux x86_64,60,5e7d34b1a7cdf60009521d2a,11.8039999,1,0,81,55,1,80
,,,,,,,,,,,,,,,,,,,,,,,,,,,,,,,,,,,,,,,,,,,,,,,,,,,163,papallona,Catalan,Sounds/cat_papallona.mp3,2020-06-04_21h25.38.765,TranslationElicitation_eng-prolific,3.2.4,Linux x86_64,60,5e7d34b1a7cdf60009521d2a,,1,0,81,55,1,80
,,,,,,,,,,,,,,,,,,,,,,,,,,,,,,,,,,,,,,,,,t,2.115999937,T,FALSE,,,,,,,183,tren,Catalan,Sounds/cat_tren.mp3,2020-06-04_21h25.38.765,TranslationElicitation_eng-prolific,3.2.4,Linux x86_64,60,5e7d34b1a7cdf60009521d2a,,1,0,81,74,1,80
,,,,,,,,,,,,,,,,,,,,,,,,,,,,,,,,,,,,,,,,,r,2.182999849,TR,FALSE,,,,,,,183,tren,Catalan,Sounds/cat_tren.mp3,2020-06-04_21h25.38.765,TranslationElicitation_eng-prolific,3.2.4,Linux x86_64,60,5e7d34b1a7cdf60009521d2a,,1,0,81,74,1,80
,,,,,,,,,,,,,,,,,,,,,,,,,,,,,,,,,,,,,,,,,a,2.332999945,TRA,FALSE,,,,,,,183,tren,Catalan,Sounds/cat_tren.mp3,2020-06-04_21h25.38.765,TranslationElicitation_eng-prolific,3.2.4,Linux x86_64,60,5e7d34b1a7cdf60009521d2a,,1,0,81,74,1,80
,,,,,,,,,,,,,,,,,,,,,,,,,,,,,,,,,,,,,,,,,i,2.432999849,TRAI,FALSE,,,,,,,183,tren,Catalan,Sounds/cat_tren.mp3,2020-06-04_21h25.38.765,TranslationElicitation_eng-prolific,3.2.4,Linux x86_64,60,5e7d34b1a7cdf60009521d2a,,1,0,81,74,1,80
,,,,,,,,,,,,,,,,,,,,,,,,,,,,,,,,,,,,,,,,,n,2.519999981,TRAIN,FALSE,,,,,,,183,tren,Catalan,Sounds/cat_tren.mp3,2020-06-04_21h25.38.765,TranslationElicitation_eng-prolific,3.2.4,Linux x86_64,60,5e7d34b1a7cdf60009521d2a,,1,0,81,74,1,80
,,,,,,,,,,,,,,,,,,,,,,,,,,,,,,,,,,,,,,,,,return,2.799999952,TRAIN,FALSE,,,,,,,183,tren,Catalan,Sounds/cat_tren.mp3,2020-06-04_21h25.38.765,TranslationElicitation_eng-prolific,3.2.4,Linux x86_64,60,5e7d34b1a7cdf60009521d2a,2.799999952,1,0,81,74,1,80
,,,,,,,,,,,,,,,,,,,,,,,,,,,,,,,,,,,,,,,,,,,,,,,,,,,183,tren,Catalan,Sounds/cat_tren.mp3,2020-06-04_21h25.38.765,TranslationElicitation_eng-prolific,3.2.4,Linux x86_64,60,5e7d34b1a7cdf60009521d2a,,1,0,81,74,1,80
,,,,,,,,,,,,,,,,,,,,,,,,,,,,,,,,,,,,,,,,,m,9.105999947,M,FALSE,,,,,,,108,ampolla,Catalan,Sounds/cat_ampolla.mp3,2020-06-04_21h25.38.765,TranslationElicitation_eng-prolific,3.2.4,Linux x86_64,60,5e7d34b1a7cdf60009521d2a,,1,0,81,4,1,80
,,,,,,,,,,,,,,,,,,,,,,,,,,,,,,,,,,,,,,,,,a,9.250999928,MA,FALSE,,,,,,,108,ampolla,Catalan,Sounds/cat_ampolla.mp3,2020-06-04_21h25.38.765,TranslationElicitation_eng-prolific,3.2.4,Linux x86_64,60,5e7d34b1a7cdf60009521d2a,,1,0,81,4,1,80
,,,,,,,,,,,,,,,,,,,,,,,,,,,,,,,,,,,,,,,,,e,9.38499999,MAE,FALSE,,,,,,,108,ampolla,Catalan,Sounds/cat_ampolla.mp3,2020-06-04_21h25.38.765,TranslationElicitation_eng-prolific,3.2.4,Linux x86_64,60,5e7d34b1a7cdf60009521d2a,,1,0,81,4,1,80
,,,,,,,,,,,,,,,,,,,,,,,,,,,,,,,,,,,,,,,,,backspace,9.666999817,MA,TRUE,,,,,,,108,ampolla,Catalan,Sounds/cat_ampolla.mp3,2020-06-04_21h25.38.765,TranslationElicitation_eng-prolific,3.2.4,Linux x86_64,60,5e7d34b1a7cdf60009521d2a,,1,0,81,4,1,80
,,,,,,,,,,,,,,,,,,,,,,,,,,,,,,,,,,,,,,,,,backspace,9.777999878,M,TRUE,,,,,,,108,ampolla,Catalan,Sounds/cat_ampolla.mp3,2020-06-04_21h25.38.765,TranslationElicitation_eng-prolific,3.2.4,Linux x86_64,60,5e7d34b1a7cdf60009521d2a,,1,0,81,4,1,80
,,,,,,,,,,,,,,,,,,,,,,,,,,,,,,,,,,,,,,,,,e,9.863999844,ME,TRUE,,,,,,,108,ampolla,Catalan,Sounds/cat_ampolla.mp3,2020-06-04_21h25.38.765,TranslationElicitation_eng-prolific,3.2.4,Linux x86_64,60,5e7d34b1a7cdf60009521d2a,,1,0,81,4,1,80
,,,,,,,,,,,,,,,,,,,,,,,,,,,,,,,,,,,,,,,,,a,9.911999941,MEA,TRUE,,,,,,,108,ampolla,Catalan,Sounds/cat_ampolla.mp3,2020-06-04_21h25.38.765,TranslationElicitation_eng-prolific,3.2.4,Linux x86_64,60,5e7d34b1a7cdf60009521d2a,,1,0,81,4,1,80
,,,,,,,,,,,,,,,,,,,,,,,,,,,,,,,,,,,,,,,,,t,10.10099983,MEAT,TRUE,,,,,,,108,ampolla,Catalan,Sounds/cat_ampolla.mp3,2020-06-04_21h25.38.765,TranslationElicitation_eng-prolific,3.2.4,Linux x86_64,60,5e7d34b1a7cdf60009521d2a,,1,0,81,4,1,80
,,,,,,,,,,,,,,,,,,,,,,,,,,,,,,,,,,,,,,,,,return,10.38499999,MEAT,TRUE,,,,,,,108,ampolla,Catalan,Sounds/cat_ampolla.mp3,2020-06-04_21h25.38.765,TranslationElicitation_eng-prolific,3.2.4,Linux x86_64,60,5e7d34b1a7cdf60009521d2a,10.38499999,1,0,81,4,1,80
,,,,,,,,,,,,,,,,,,,,,,,,,,,,,,,,,,,,,,,,,,,,,,,,,,,108,ampolla,Catalan,Sounds/cat_ampolla.mp3,2020-06-04_21h25.38.765,TranslationElicitation_eng-prolific,3.2.4,Linux x86_64,60,5e7d34b1a7cdf60009521d2a,,1,0,81,4,1,80
,,,,,,,,,,,,,,,,,,,,,,,,,,,,,,,,,,,,,,,,,o,6.301000118,O,FALSE,,,,,,,186,ungla,Catalan,Sounds/cat_ungla.mp3,2020-06-04_21h25.38.765,TranslationElicitation_eng-prolific,3.2.4,Linux x86_64,60,5e7d34b1a7cdf60009521d2a,,1,0,81,77,1,80
,,,,,,,,,,,,,,,,,,,,,,,,,,,,,,,,,,,,,,,,,backspace,6.633000135,,TRUE,,,,,,,186,ungla,Catalan,Sounds/cat_ungla.mp3,2020-06-04_21h25.38.765,TranslationElicitation_eng-prolific,3.2.4,Linux x86_64,60,5e7d34b1a7cdf60009521d2a,,1,0,81,77,1,80
,,,,,,,,,,,,,,,,,,,,,,,,,,,,,,,,,,,,,,,,,r,6.717000008,R,TRUE,,,,,,,186,ungla,Catalan,Sounds/cat_ungla.mp3,2020-06-04_21h25.38.765,TranslationElicitation_eng-prolific,3.2.4,Linux x86_64,60,5e7d34b1a7cdf60009521d2a,,1,0,81,77,1,80
,,,,,,,,,,,,,,,,,,,,,,,,,,,,,,,,,,,,,,,,,o,6.882000208,RO,TRUE,,,,,,,186,ungla,Catalan,Sounds/cat_ungla.mp3,2020-06-04_21h25.38.765,TranslationElicitation_eng-prolific,3.2.4,Linux x86_64,60,5e7d34b1a7cdf60009521d2a,,1,0,81,77,1,80
,,,,,,,,,,,,,,,,,,,,,,,,,,,,,,,,,,,,,,,,,c,6.981000185,ROC,TRUE,,,,,,,186,ungla,Catalan,Sounds/cat_ungla.mp3,2020-06-04_21h25.38.765,TranslationElicitation_eng-prolific,3.2.4,Linux x86_64,60,5e7d34b1a7cdf60009521d2a,,1,0,81,77,1,80
,,,,,,,,,,,,,,,,,,,,,,,,,,,,,,,,,,,,,,,,,k,7.116000175,ROCK,TRUE,,,,,,,186,ungla,Catalan,Sounds/cat_ungla.mp3,2020-06-04_21h25.38.765,TranslationElicitation_eng-prolific,3.2.4,Linux x86_64,60,5e7d34b1a7cdf60009521d2a,,1,0,81,77,1,80
,,,,,,,,,,,,,,,,,,,,,,,,,,,,,,,,,,,,,,,,,e,7.550000191,ROCKE,TRUE,,,,,,,186,ungla,Catalan,Sounds/cat_ungla.mp3,2020-06-04_21h25.38.765,TranslationElicitation_eng-prolific,3.2.4,Linux x86_64,60,5e7d34b1a7cdf60009521d2a,,1,0,81,77,1,80
,,,,,,,,,,,,,,,,,,,,,,,,,,,,,,,,,,,,,,,,,t,7.650000095,ROCKET,TRUE,,,,,,,186,ungla,Catalan,Sounds/cat_ungla.mp3,2020-06-04_21h25.38.765,TranslationElicitation_eng-prolific,3.2.4,Linux x86_64,60,5e7d34b1a7cdf60009521d2a,,1,0,81,77,1,80
,,,,,,,,,,,,,,,,,,,,,,,,,,,,,,,,,,,,,,,,,return,7.838000059,ROCKET,TRUE,,,,,,,186,ungla,Catalan,Sounds/cat_ungla.mp3,2020-06-04_21h25.38.765,TranslationElicitation_eng-prolific,3.2.4,Linux x86_64,60,5e7d34b1a7cdf60009521d2a,7.838000059,1,0,81,77,1,80
,,,,,,,,,,,,,,,,,,,,,,,,,,,,,,,,,,,,,,,,,,,,,,,,,,,186,ungla,Catalan,Sounds/cat_ungla.mp3,2020-06-04_21h25.38.765,TranslationElicitation_eng-prolific,3.2.4,Linux x86_64,60,5e7d34b1a7cdf60009521d2a,,1,0,81,77,1,80
,,,,,,,,,,,,,,,,,,,,,,,,,,,,,,,,,,,,,,,,,p,17.23600006,P,FALSE,,,,,,,138,galeta,Catalan,Sounds/cat_galeta.mp3,2020-06-04_21h25.38.765,TranslationElicitation_eng-prolific,3.2.4,Linux x86_64,60,5e7d34b1a7cdf60009521d2a,,1,0,81,32,1,80
,,,,,,,,,,,,,,,,,,,,,,,,,,,,,,,,,,,,,,,,,a,17.36599994,PA,FALSE,,,,,,,138,galeta,Catalan,Sounds/cat_galeta.mp3,2020-06-04_21h25.38.765,TranslationElicitation_eng-prolific,3.2.4,Linux x86_64,60,5e7d34b1a7cdf60009521d2a,,1,0,81,32,1,80
,,,,,,,,,,,,,,,,,,,,,,,,,,,,,,,,,,,,,,,,,n,17.46700001,PAN,FALSE,,,,,,,138,galeta,Catalan,Sounds/cat_galeta.mp3,2020-06-04_21h25.38.765,TranslationElicitation_eng-prolific,3.2.4,Linux x86_64,60,5e7d34b1a7cdf60009521d2a,,1,0,81,32,1,80
,,,,,,,,,,,,,,,,,,,,,,,,,,,,,,,,,,,,,,,,,t,17.58399987,PANT,FALSE,,,,,,,138,galeta,Catalan,Sounds/cat_galeta.mp3,2020-06-04_21h25.38.765,TranslationElicitation_eng-prolific,3.2.4,Linux x86_64,60,5e7d34b1a7cdf60009521d2a,,1,0,81,32,1,80
,,,,,,,,,,,,,,,,,,,,,,,,,,,,,,,,,,,,,,,,,s,17.67799997,PANTS,FALSE,,,,,,,138,galeta,Catalan,Sounds/cat_galeta.mp3,2020-06-04_21h25.38.765,TranslationElicitation_eng-prolific,3.2.4,Linux x86_64,60,5e7d34b1a7cdf60009521d2a,,1,0,81,32,1,80
,,,,,,,,,,,,,,,,,,,,,,,,,,,,,,,,,,,,,,,,,return,17.86199999,PANTS,FALSE,,,,,,,138,galeta,Catalan,Sounds/cat_galeta.mp3,2020-06-04_21h25.38.765,TranslationElicitation_eng-prolific,3.2.4,Linux x86_64,60,5e7d34b1a7cdf60009521d2a,17.86199999,1,0,81,32,1,80
,,,,,,,,,,,,,,,,,,,,,,,,,,,,,,,,,,,,,,,,,,,,,,,,,,,138,galeta,Catalan,Sounds/cat_galeta.mp3,2020-06-04_21h25.38.765,TranslationElicitation_eng-prolific,3.2.4,Linux x86_64,60,5e7d34b1a7cdf60009521d2a,,1,0,81,32,1,80
,,,,,,,,,,,,,,,,,,,,,,,,,,,,,,,,,,,,,,,,,j,19.23700023,J,FALSE,,,,,,,106,aixeta,Catalan,Sounds/cat_aixeta.mp3,2020-06-04_21h25.38.765,TranslationElicitation_eng-prolific,3.2.4,Linux x86_64,60,5e7d34b1a7cdf60009521d2a,,1,0,81,2,1,80
,,,,,,,,,,,,,,,,,,,,,,,,,,,,,,,,,,,,,,,,,a,19.34900022,JA,FALSE,,,,,,,106,aixeta,Catalan,Sounds/cat_aixeta.mp3,2020-06-04_21h25.38.765,TranslationElicitation_eng-prolific,3.2.4,Linux x86_64,60,5e7d34b1a7cdf60009521d2a,,1,0,81,2,1,80
,,,,,,,,,,,,,,,,,,,,,,,,,,,,,,,,,,,,,,,,,c,19.46800017,JAC,FALSE,,,,,,,106,aixeta,Catalan,Sounds/cat_aixeta.mp3,2020-06-04_21h25.38.765,TranslationElicitation_eng-prolific,3.2.4,Linux x86_64,60,5e7d34b1a7cdf60009521d2a,,1,0,81,2,1,80
,,,,,,,,,,,,,,,,,,,,,,,,,,,,,,,,,,,,,,,,,k,19.51800013,JACK,FALSE,,,,,,,106,aixeta,Catalan,Sounds/cat_aixeta.mp3,2020-06-04_21h25.38.765,TranslationElicitation_eng-prolific,3.2.4,Linux x86_64,60,5e7d34b1a7cdf60009521d2a,,1,0,81,2,1,80
,,,,,,,,,,,,,,,,,,,,,,,,,,,,,,,,,,,,,,,,,e,19.73200011,JACKE,FALSE,,,,,,,106,aixeta,Catalan,Sounds/cat_aixeta.mp3,2020-06-04_21h25.38.765,TranslationElicitation_eng-prolific,3.2.4,Linux x86_64,60,5e7d34b1a7cdf60009521d2a,,1,0,81,2,1,80
,,,,,,,,,,,,,,,,,,,,,,,,,,,,,,,,,,,,,,,,,t,19.87100005,JACKET,FALSE,,,,,,,106,aixeta,Catalan,Sounds/cat_aixeta.mp3,2020-06-04_21h25.38.765,TranslationElicitation_eng-prolific,3.2.4,Linux x86_64,60,5e7d34b1a7cdf60009521d2a,,1,0,81,2,1,80
,,,,,,,,,,,,,,,,,,,,,,,,,,,,,,,,,,,,,,,,,return,20.07000017,JACKET,FALSE,,,,,,,106,aixeta,Catalan,Sounds/cat_aixeta.mp3,2020-06-04_21h25.38.765,TranslationElicitation_eng-prolific,3.2.4,Linux x86_64,60,5e7d34b1a7cdf60009521d2a,20.07000017,1,0,81,2,1,80
,,,,,,,,,,,,,,,,,,,,,,,,,,,,,,,,,,,,,,,,,,,,,,,,,,,106,aixeta,Catalan,Sounds/cat_aixeta.mp3,2020-06-04_21h25.38.765,TranslationElicitation_eng-prolific,3.2.4,Linux x86_64,60,5e7d34b1a7cdf60009521d2a,,1,0,81,2,1,80
,,,,,,,,,,,,,,,,,,,,,,,,,,,,,,,,,,,,,,,,,s,7.973999977,S,FALSE,,,,,,,128,cuc,Catalan,Sounds/cat_cuc.mp3,2020-06-04_21h25.38.765,TranslationElicitation_eng-prolific,3.2.4,Linux x86_64,60,5e7d34b1a7cdf60009521d2a,,1,0,81,22,1,80
,,,,,,,,,,,,,,,,,,,,,,,,,,,,,,,,,,,,,,,,,o,8.066999912,SO,FALSE,,,,,,,128,cuc,Catalan,Sounds/cat_cuc.mp3,2020-06-04_21h25.38.765,TranslationElicitation_eng-prolific,3.2.4,Linux x86_64,60,5e7d34b1a7cdf60009521d2a,,1,0,81,22,1,80
