consentKey.keys,consentKey.rt,languageL1Key.keys,languageL1Key.rt,languageL2,languageL2OralKey.keys,languageL2OralKey.rt,languageL2WrittenKey.keys,languageL2WrittenKey.rt,languageL3OralKey.keys,languageL3OralKey.rt,languageL3WrittenKey.keys,languageL3WrittenKey.rt,languageCatalanOralKey.keys,languageCatalanOralKey.rt,languageCatalanWrittenKey.keys,languageCatalanWrittenKey.rt,languageCatalanTimeKey.keys,languageCatalanTimeKey.rt,languageSpanishOralKey.keys,languageSpanishOralKey.rt,languageSpanishWrittenKey.keys,languageSpanishWrittenKey.rt,languageSpanishTimeKey.keys,languageSpanishTimeKey.rt,age,demoSexKey.keys,demoSexKey.rt,demoEducationKey.keys,demoEducationKey.rt,city,demoVisionKey.keys,demoVisionKey.rt,demoLanguageKey.keys,demoLanguageKey.rt,setupLocationKey.keys,setupLocationKey.rt,setupNoiseKey.keys,setupNoiseKey.rt,instructionsKeys.keys,instructionsKeys.rt,keyPressed,keyPressTime,inputText,error,trialsPracticeCatalan.thisRepN,trialsPracticeCatalan.thisTrialN,trialsPracticeCatalan.thisN,trialsPracticeCatalan.thisIndex,trialsPracticeCatalan.ran,trialsPracticeCatalan.order,trial_id,word,test_language,soundfile,date,expName,psychopyVersion,OS,frameRate,participant,trialOffset,trialsCatalan.thisRepN,trialsCatalan.thisTrialN,trialsCatalan.thisN,trialsCatalan.thisIndex,trialsCatalan.ran,trialsCatalan.order
space,9.385999918,e,9.380999804,,,,,,,,,,2,8.663000107,1,7.516000032,1,7.20299983,2,5.845000029,2,9.26699996,1,8.943999767,21,f,1.640999794,4,5.801999807,AYLESBURY,y,4.252000093,n,3.332999945,1,2.875,1,6.292999983,space,19.90499997,d,18.30200005,D,FALSE,1,0,5,4,1,4,179,tigre,Catalan,Sounds/cat_tigre.mp3,2020-06-05_15h36.42.777,TranslationElicitation_eng-prolific,3.2.4,Linux x86_64,60,5e811195ec31d30008690bcd,,,,,,,
,,,,,,,,,,,,,,,,,,,,,,,,,,,,,,,,,,,,,,,,,i,19.06900001,DI,FALSE,1,0,5,4,1,4,179,tigre,Catalan,Sounds/cat_tigre.mp3,2020-06-05_15h36.42.777,TranslationElicitation_eng-prolific,3.2.4,Linux x86_64,60,5e811195ec31d30008690bcd,,,,,,,
,,,,,,,,,,,,,,,,,,,,,,,,,,,,,,,,,,,,,,,,,g,19.33599997,DIG,FALSE,1,0,5,4,1,4,179,tigre,Catalan,Sounds/cat_tigre.mp3,2020-06-05_15h36.42.777,TranslationElicitation_eng-prolific,3.2.4,Linux x86_64,60,5e811195ec31d30008690bcd,,,,,,,
,,,,,,,,,,,,,,,,,,,,,,,,,,,,,,,,,,,,,,,,,g,19.48600006,DIGG,FALSE,1,0,5,4,1,4,179,tigre,Catalan,Sounds/cat_tigre.mp3,2020-06-05_15h36.42.777,TranslationElicitation_eng-prolific,3.2.4,Linux x86_64,60,5e811195ec31d30008690bcd,,,,,,,
,,,,,,,,,,,,,,,,,,,,,,,,,,,,,,,,,,,,,,,,,e,19.55200005,DIGGE,FALSE,1,0,5,4,1,4,179,tigre,Catalan,Sounds/cat_tigre.mp3,2020-06-05_15h36.42.777,TranslationElicitation_eng-prolific,3.2.4,Linux x86_64,60,5e811195ec31d30008690bcd,,,,,,,
,,,,,,,,,,,,,,,,,,,,,,,,,,,,,,,,,,,,,,,,,r,19.73600006,DIGGER,FALSE,1,0,5,4,1,4,179,tigre,Catalan,Sounds/cat_tigre.mp3,2020-06-05_15h36.42.777,TranslationElicitation_eng-prolific,3.2.4,Linux x86_64,60,5e811195ec31d30008690bcd,,,,,,,
,,,,,,,,,,,,,,,,,,,,,,,,,,,,,,,,,,,,,,,,,return,21.11899996,DIGGER,FALSE,1,0,5,4,1,4,179,tigre,Catalan,Sounds/cat_tigre.mp3,2020-06-05_15h36.42.777,TranslationElicitation_eng-prolific,3.2.4,Linux x86_64,60,5e811195ec31d30008690bcd,21.11899996,,,,,,
,,,,,,,,,,,,,,,,,,,,,,,,,,,,,,,,,,,,,,,,,,,,,1,0,5,4,1,4,179,tigre,Catalan,Sounds/cat_tigre.mp3,2020-06-05_15h36.42.777,TranslationElicitation_eng-prolific,3.2.4,Linux x86_64,60,5e811195ec31d30008690bcd,,,,,,,
,,,,,,,,,,,,,,,,,,,,,,,,,,,,,,,,,,,,,,,,,a,8.500999928,A,FALSE,1,0,5,3,1,4,159,onada,Catalan,Sounds/cat_onada.mp3,2020-06-05_15h36.42.777,TranslationElicitation_eng-prolific,3.2.4,Linux x86_64,60,5e811195ec31d30008690bcd,,,,,,,
,,,,,,,,,,,,,,,,,,,,,,,,,,,,,,,,,,,,,,,,,space,8.684000015,A ,FALSE,1,0,5,3,1,4,159,onada,Catalan,Sounds/cat_onada.mp3,2020-06-05_15h36.42.777,TranslationElicitation_eng-prolific,3.2.4,Linux x86_64,60,5e811195ec31d30008690bcd,,,,,,,
,,,,,,,,,,,,,,,,,,,,,,,,,,,,,,,,,,,,,,,,,w,9.132999897,A W,FALSE,1,0,5,3,1,4,159,onada,Catalan,Sounds/cat_onada.mp3,2020-06-05_15h36.42.777,TranslationElicitation_eng-prolific,3.2.4,Linux x86_64,60,5e811195ec31d30008690bcd,,,,,,,
,,,,,,,,,,,,,,,,,,,,,,,,,,,,,,,,,,,,,,,,,o,9.284999847,A WO,FALSE,1,0,5,3,1,4,159,onada,Catalan,Sounds/cat_onada.mp3,2020-06-05_15h36.42.777,TranslationElicitation_eng-prolific,3.2.4,Linux x86_64,60,5e811195ec31d30008690bcd,,,,,,,
,,,,,,,,,,,,,,,,,,,,,,,,,,,,,,,,,,,,,,,,,r,9.416999817,A WOR,FALSE,1,0,5,3,1,4,159,onada,Catalan,Sounds/cat_onada.mp3,2020-06-05_15h36.42.777,TranslationElicitation_eng-prolific,3.2.4,Linux x86_64,60,5e811195ec31d30008690bcd,,,,,,,
,,,,,,,,,,,,,,,,,,,,,,,,,,,,,,,,,,,,,,,,,r,9.583999872,A WORR,FALSE,1,0,5,3,1,4,159,onada,Catalan,Sounds/cat_onada.mp3,2020-06-05_15h36.42.777,TranslationElicitation_eng-prolific,3.2.4,Linux x86_64,60,5e811195ec31d30008690bcd,,,,,,,
,,,,,,,,,,,,,,,,,,,,,,,,,,,,,,,,,,,,,,,,,backspace,10.91699982,A WOR,TRUE,1,0,5,3,1,4,159,onada,Catalan,Sounds/cat_onada.mp3,2020-06-05_15h36.42.777,TranslationElicitation_eng-prolific,3.2.4,Linux x86_64,60,5e811195ec31d30008690bcd,,,,,,,
,,,,,,,,,,,,,,,,,,,,,,,,,,,,,,,,,,,,,,,,,backspace,11.06799984,A WO,TRUE,1,0,5,3,1,4,159,onada,Catalan,Sounds/cat_onada.mp3,2020-06-05_15h36.42.777,TranslationElicitation_eng-prolific,3.2.4,Linux x86_64,60,5e811195ec31d30008690bcd,,,,,,,
,,,,,,,,,,,,,,,,,,,,,,,,,,,,,,,,,,,,,,,,,backspace,11.21799994,A W,TRUE,1,0,5,3,1,4,159,onada,Catalan,Sounds/cat_onada.mp3,2020-06-05_15h36.42.777,TranslationElicitation_eng-prolific,3.2.4,Linux x86_64,60,5e811195ec31d30008690bcd,,,,,,,
,,,,,,,,,,,,,,,,,,,,,,,,,,,,,,,,,,,,,,,,,backspace,11.352,A ,TRUE,1,0,5,3,1,4,159,onada,Catalan,Sounds/cat_onada.mp3,2020-06-05_15h36.42.777,TranslationElicitation_eng-prolific,3.2.4,Linux x86_64,60,5e811195ec31d30008690bcd,,,,,,,
,,,,,,,,,,,,,,,,,,,,,,,,,,,,,,,,,,,,,,,,,backspace,11.50099993,A,TRUE,1,0,5,3,1,4,159,onada,Catalan,Sounds/cat_onada.mp3,2020-06-05_15h36.42.777,TranslationElicitation_eng-prolific,3.2.4,Linux x86_64,60,5e811195ec31d30008690bcd,,,,,,,
,,,,,,,,,,,,,,,,,,,,,,,,,,,,,,,,,,,,,,,,,backspace,12.00099993,,TRUE,1,0,5,3,1,4,159,onada,Catalan,Sounds/cat_onada.mp3,2020-06-05_15h36.42.777,TranslationElicitation_eng-prolific,3.2.4,Linux x86_64,60,5e811195ec31d30008690bcd,,,,,,,
,,,,,,,,,,,,,,,,,,,,,,,,,,,,,,,,,,,,,,,,,a,14.21799994,A,TRUE,1,0,5,3,1,4,159,onada,Catalan,Sounds/cat_onada.mp3,2020-06-05_15h36.42.777,TranslationElicitation_eng-prolific,3.2.4,Linux x86_64,60,5e811195ec31d30008690bcd,,,,,,,
,,,,,,,,,,,,,,,,,,,,,,,,,,,,,,,,,,,,,,,,,space,14.36800003,A ,TRUE,1,0,5,3,1,4,159,onada,Catalan,Sounds/cat_onada.mp3,2020-06-05_15h36.42.777,TranslationElicitation_eng-prolific,3.2.4,Linux x86_64,60,5e811195ec31d30008690bcd,,,,,,,
,,,,,,,,,,,,,,,,,,,,,,,,,,,,,,,,,,,,,,,,,p,14.56799984,A P,TRUE,1,0,5,3,1,4,159,onada,Catalan,Sounds/cat_onada.mp3,2020-06-05_15h36.42.777,TranslationElicitation_eng-prolific,3.2.4,Linux x86_64,60,5e811195ec31d30008690bcd,,,,,,,
,,,,,,,,,,,,,,,,,,,,,,,,,,,,,,,,,,,,,,,,,r,14.65100002,A PR,TRUE,1,0,5,3,1,4,159,onada,Catalan,Sounds/cat_onada.mp3,2020-06-05_15h36.42.777,TranslationElicitation_eng-prolific,3.2.4,Linux x86_64,60,5e811195ec31d30008690bcd,,,,,,,
,,,,,,,,,,,,,,,,,,,,,,,,,,,,,,,,,,,,,,,,,o,14.76799989,A PRO,TRUE,1,0,5,3,1,4,159,onada,Catalan,Sounds/cat_onada.mp3,2020-06-05_15h36.42.777,TranslationElicitation_eng-prolific,3.2.4,Linux x86_64,60,5e811195ec31d30008690bcd,,,,,,,
,,,,,,,,,,,,,,,,,,,,,,,,,,,,,,,,,,,,,,,,,b,15.28399992,A PROB,TRUE,1,0,5,3,1,4,159,onada,Catalan,Sounds/cat_onada.mp3,2020-06-05_15h36.42.777,TranslationElicitation_eng-prolific,3.2.4,Linux x86_64,60,5e811195ec31d30008690bcd,,,,,,,
,,,,,,,,,,,,,,,,,,,,,,,,,,,,,,,,,,,,,,,,,l,15.602,A PROBL,TRUE,1,0,5,3,1,4,159,onada,Catalan,Sounds/cat_onada.mp3,2020-06-05_15h36.42.777,TranslationElicitation_eng-prolific,3.2.4,Linux x86_64,60,5e811195ec31d30008690bcd,,,,,,,
,,,,,,,,,,,,,,,,,,,,,,,,,,,,,,,,,,,,,,,,,e,15.70499992,A PROBLE,TRUE,1,0,5,3,1,4,159,onada,Catalan,Sounds/cat_onada.mp3,2020-06-05_15h36.42.777,TranslationElicitation_eng-prolific,3.2.4,Linux x86_64,60,5e811195ec31d30008690bcd,,,,,,,
,,,,,,,,,,,,,,,,,,,,,,,,,,,,,,,,,,,,,,,,,m,15.81799984,A PROBLEM,TRUE,1,0,5,3,1,4,159,onada,Catalan,Sounds/cat_onada.mp3,2020-06-05_15h36.42.777,TranslationElicitation_eng-prolific,3.2.4,Linux x86_64,60,5e811195ec31d30008690bcd,,,,,,,
,,,,,,,,,,,,,,,,,,,,,,,,,,,,,,,,,,,,,,,,,return,16.50199986,A PROBLEM,TRUE,1,0,5,3,1,4,159,onada,Catalan,Sounds/cat_onada.mp3,2020-06-05_15h36.42.777,TranslationElicitation_eng-prolific,3.2.4,Linux x86_64,60,5e811195ec31d30008690bcd,16.50199986,,,,,,
,,,,,,,,,,,,,,,,,,,,,,,,,,,,,,,,,,,,,,,,,,,,,1,0,5,3,1,4,159,onada,Catalan,Sounds/cat_onada.mp3,2020-06-05_15h36.42.777,TranslationElicitation_eng-prolific,3.2.4,Linux x86_64,60,5e811195ec31d30008690bcd,,,,,,,
,,,,,,,,,,,,,,,,,,,,,,,,,,,,,,,,,,,,,,,,,h,11.14100003,H,FALSE,1,0,5,0,1,4,109,arbre,Catalan,Sounds/cat_arbre.mp3,2020-06-05_15h36.42.777,TranslationElicitation_eng-prolific,3.2.4,Linux x86_64,60,5e811195ec31d30008690bcd,,,,,,,
,,,,,,,,,,,,,,,,,,,,,,,,,,,,,,,,,,,,,,,,,a,11.28400016,HA,FALSE,1,0,5,0,1,4,109,arbre,Catalan,Sounds/cat_arbre.mp3,2020-06-05_15h36.42.777,TranslationElicitation_eng-prolific,3.2.4,Linux x86_64,60,5e811195ec31d30008690bcd,,,,,,,
,,,,,,,,,,,,,,,,,,,,,,,,,,,,,,,,,,,,,,,,,r,11.40199995,HAR,FALSE,1,0,5,0,1,4,109,arbre,Catalan,Sounds/cat_arbre.mp3,2020-06-05_15h36.42.777,TranslationElicitation_eng-prolific,3.2.4,Linux x86_64,60,5e811195ec31d30008690bcd,,,,,,,
,,,,,,,,,,,,,,,,,,,,,,,,,,,,,,,,,,,,,,,,,d,11.51800013,HARD,FALSE,1,0,5,0,1,4,109,arbre,Catalan,Sounds/cat_arbre.mp3,2020-06-05_15h36.42.777,TranslationElicitation_eng-prolific,3.2.4,Linux x86_64,60,5e811195ec31d30008690bcd,,,,,,,
,,,,,,,,,,,,,,,,,,,,,,,,,,,,,,,,,,,,,,,,,e,11.66900015,HARDE,FALSE,1,0,5,0,1,4,109,arbre,Catalan,Sounds/cat_arbre.mp3,2020-06-05_15h36.42.777,TranslationElicitation_eng-prolific,3.2.4,Linux x86_64,60,5e811195ec31d30008690bcd,,,,,,,
,,,,,,,,,,,,,,,,,,,,,,,,,,,,,,,,,,,,,,,,,r,11.81900001,HARDER,FALSE,1,0,5,0,1,4,109,arbre,Catalan,Sounds/cat_arbre.mp3,2020-06-05_15h36.42.777,TranslationElicitation_eng-prolific,3.2.4,Linux x86_64,60,5e811195ec31d30008690bcd,,,,,,,
,,,,,,,,,,,,,,,,,,,,,,,,,,,,,,,,,,,,,,,,,return,12.06900001,HARDER,FALSE,1,0,5,0,1,4,109,arbre,Catalan,Sounds/cat_arbre.mp3,2020-06-05_15h36.42.777,TranslationElicitation_eng-prolific,3.2.4,Linux x86_64,60,5e811195ec31d30008690bcd,12.06900001,,,,,,
,,,,,,,,,,,,,,,,,,,,,,,,,,,,,,,,,,,,,,,,,,,,,1,0,5,0,1,4,109,arbre,Catalan,Sounds/cat_arbre.mp3,2020-06-05_15h36.42.777,TranslationElicitation_eng-prolific,3.2.4,Linux x86_64,60,5e811195ec31d30008690bcd,,,,,,,
,,,,,,,,,,,,,,,,,,,,,,,,,,,,,,,,,,,,,,,,,return,13.82000017,,FALSE,1,0,5,1,1,4,126,corona,Catalan,Sounds/cat_corona.mp3,2020-06-05_15h36.42.777,TranslationElicitation_eng-prolific,3.2.4,Linux x86_64,60,5e811195ec31d30008690bcd,13.82000017,,,,,,
,,,,,,,,,,,,,,,,,,,,,,,,,,,,,,,,,,,,,,,,,,,,,1,0,5,1,1,4,126,corona,Catalan,Sounds/cat_corona.mp3,2020-06-05_15h36.42.777,TranslationElicitation_eng-prolific,3.2.4,Linux x86_64,60,5e811195ec31d30008690bcd,,,,,,,
,,,,,,,,,,,,,,,,,,,,,,,,,,,,,,,,,,,,,,,,,j,1.916000128,J,FALSE,1,0,5,2,1,4,147,jaqueta,Catalan,Sounds/cat_jaqueta.mp3,2020-06-05_15h36.42.777,TranslationElicitation_eng-prolific,3.2.4,Linux x86_64,60,5e811195ec31d30008690bcd,,,,,,,
,,,,,,,,,,,,,,,,,,,,,,,,,,,,,,,,,,,,,,,,,a,2,JA,FALSE,1,0,5,2,1,4,147,jaqueta,Catalan,Sounds/cat_jaqueta.mp3,2020-06-05_15h36.42.777,TranslationElicitation_eng-prolific,3.2.4,Linux x86_64,60,5e811195ec31d30008690bcd,,,,,,,
,,,,,,,,,,,,,,,,,,,,,,,,,,,,,,,,,,,,,,,,,c,2.19900012,JAC,FALSE,1,0,5,2,1,4,147,jaqueta,Catalan,Sounds/cat_jaqueta.mp3,2020-06-05_15h36.42.777,TranslationElicitation_eng-prolific,3.2.4,Linux x86_64,60,5e811195ec31d30008690bcd,,,,,,,
,,,,,,,,,,,,,,,,,,,,,,,,,,,,,,,,,,,,,,,,,k,2.282000065,JACK,FALSE,1,0,5,2,1,4,147,jaqueta,Catalan,Sounds/cat_jaqueta.mp3,2020-06-05_15h36.42.777,TranslationElicitation_eng-prolific,3.2.4,Linux x86_64,60,5e811195ec31d30008690bcd,,,,,,,
,,,,,,,,,,,,,,,,,,,,,,,,,,,,,,,,,,,,,,,,,e,2.5,JACKE,FALSE,1,0,5,2,1,4,147,jaqueta,Catalan,Sounds/cat_jaqueta.mp3,2020-06-05_15h36.42.777,TranslationElicitation_eng-prolific,3.2.4,Linux x86_64,60,5e811195ec31d30008690bcd,,,,,,,
,,,,,,,,,,,,,,,,,,,,,,,,,,,,,,,,,,,,,,,,,t,2.615999937,JACKET,FALSE,1,0,5,2,1,4,147,jaqueta,Catalan,Sounds/cat_jaqueta.mp3,2020-06-05_15h36.42.777,TranslationElicitation_eng-prolific,3.2.4,Linux x86_64,60,5e811195ec31d30008690bcd,,,,,,,
,,,,,,,,,,,,,,,,,,,,,,,,,,,,,,,,,,,,,,,,,return,3.183000088,JACKET,FALSE,1,0,5,2,1,4,147,jaqueta,Catalan,Sounds/cat_jaqueta.mp3,2020-06-05_15h36.42.777,TranslationElicitation_eng-prolific,3.2.4,Linux x86_64,60,5e811195ec31d30008690bcd,3.183000088,,,,,,
,,,,,,,,,,,,,,,,,,,,,,,,,,,,,,,,,,,,,,,,,,,,,1,0,5,2,1,4,147,jaqueta,Catalan,Sounds/cat_jaqueta.mp3,2020-06-05_15h36.42.777,TranslationElicitation_eng-prolific,3.2.4,Linux x86_64,60,5e811195ec31d30008690bcd,,,,,,,
,,,,,,,,,,,,,,,,,,,,,,,,,,,,,,,,,,,,,,,,,t,3.90199995,T,FALSE,,,,,,,120,cama,Catalan,Sounds/cat_cama.mp3,2020-06-05_15h36.42.777,TranslationElicitation_eng-prolific,3.2.4,Linux x86_64,60,5e811195ec31d30008690bcd,,1,0,81,15,1,80
,,,,,,,,,,,,,,,,,,,,,,,,,,,,,,,,,,,,,,,,,o,3.983999968,TO,FALSE,,,,,,,120,cama,Catalan,Sounds/cat_cama.mp3,2020-06-05_15h36.42.777,TranslationElicitation_eng-prolific,3.2.4,Linux x86_64,60,5e811195ec31d30008690bcd,,1,0,81,15,1,80
,,,,,,,,,,,,,,,,,,,,,,,,,,,,,,,,,,,,,,,,,p,4.167000055,TOP,FALSE,,,,,,,120,cama,Catalan,Sounds/cat_cama.mp3,2020-06-05_15h36.42.777,TranslationElicitation_eng-prolific,3.2.4,Linux x86_64,60,5e811195ec31d30008690bcd,,1,0,81,15,1,80
,,,,,,,,,,,,,,,,,,,,,,,,,,,,,,,,,,,,,,,,,return,6.702000141,TOP,FALSE,,,,,,,120,cama,Catalan,Sounds/cat_cama.mp3,2020-06-05_15h36.42.777,TranslationElicitation_eng-prolific,3.2.4,Linux x86_64,60,5e811195ec31d30008690bcd,6.702000141,1,0,81,15,1,80
,,,,,,,,,,,,,,,,,,,,,,,,,,,,,,,,,,,,,,,,,,,,,,,,,,,120,cama,Catalan,Sounds/cat_cama.mp3,2020-06-05_15h36.42.777,TranslationElicitation_eng-prolific,3.2.4,Linux x86_64,60,5e811195ec31d30008690bcd,,1,0,81,15,1,80
,,,,,,,,,,,,,,,,,,,,,,,,,,,,,,,,,,,,,,,,,b,1.848999977,B,FALSE,,,,,,,117,boto,Catalan,Sounds/cat_boto.mp3,2020-06-05_15h36.42.777,TranslationElicitation_eng-prolific,3.2.4,Linux x86_64,60,5e811195ec31d30008690bcd,,1,0,81,12,1,80
,,,,,,,,,,,,,,,,,,,,,,,,,,,,,,,,,,,,,,,,,o,1.998999834,BO,FALSE,,,,,,,117,boto,Catalan,Sounds/cat_boto.mp3,2020-06-05_15h36.42.777,TranslationElicitation_eng-prolific,3.2.4,Linux x86_64,60,5e811195ec31d30008690bcd,,1,0,81,12,1,80
,,,,,,,,,,,,,,,,,,,,,,,,,,,,,,,,,,,,,,,,,o,2.132999897,BOO,FALSE,,,,,,,117,boto,Catalan,Sounds/cat_boto.mp3,2020-06-05_15h36.42.777,TranslationElicitation_eng-prolific,3.2.4,Linux x86_64,60,5e811195ec31d30008690bcd,,1,0,81,12,1,80
,,,,,,,,,,,,,,,,,,,,,,,,,,,,,,,,,,,,,,,,,t,2.232999802,BOOT,FALSE,,,,,,,117,boto,Catalan,Sounds/cat_boto.mp3,2020-06-05_15h36.42.777,TranslationElicitation_eng-prolific,3.2.4,Linux x86_64,60,5e811195ec31d30008690bcd,,1,0,81,12,1,80
,,,,,,,,,,,,,,,,,,,,,,,,,,,,,,,,,,,,,,,,,s,2.582999945,BOOTS,FALSE,,,,,,,117,boto,Catalan,Sounds/cat_boto.mp3,2020-06-05_15h36.42.777,TranslationElicitation_eng-prolific,3.2.4,Linux x86_64,60,5e811195ec31d30008690bcd,,1,0,81,12,1,80
,,,,,,,,,,,,,,,,,,,,,,,,,,,,,,,,,,,,,,,,,backspace,3.186999798,BOOT,TRUE,,,,,,,117,boto,Catalan,Sounds/cat_boto.mp3,2020-06-05_15h36.42.777,TranslationElicitation_eng-prolific,3.2.4,Linux x86_64,60,5e811195ec31d30008690bcd,,1,0,81,12,1,80
,,,,,,,,,,,,,,,,,,,,,,,,,,,,,,,,,,,,,,,,,return,4.51699996,BOOT,TRUE,,,,,,,117,boto,Catalan,Sounds/cat_boto.mp3,2020-06-05_15h36.42.777,TranslationElicitation_eng-prolific,3.2.4,Linux x86_64,60,5e811195ec31d30008690bcd,4.51699996,1,0,81,12,1,80
,,,,,,,,,,,,,,,,,,,,,,,,,,,,,,,,,,,,,,,,,,,,,,,,,,,117,boto,Catalan,Sounds/cat_boto.mp3,2020-06-05_15h36.42.777,TranslationElicitation_eng-prolific,3.2.4,Linux x86_64,60,5e811195ec31d30008690bcd,,1,0,81,12,1,80
,,,,,,,,,,,,,,,,,,,,,,,,,,,,,,,,,,,,,,,,,h,4.953000069,H,FALSE,,,,,,,166,peu,Catalan,Sounds/cat_peu.mp3,2020-06-05_15h36.42.777,TranslationElicitation_eng-prolific,3.2.4,Linux x86_64,60,5e811195ec31d30008690bcd,,1,0,81,58,1,80
,,,,,,,,,,,,,,,,,,,,,,,,,,,,,,,,,,,,,,,,,a,5.068000078,HA,FALSE,,,,,,,166,peu,Catalan,Sounds/cat_peu.mp3,2020-06-05_15h36.42.777,TranslationElicitation_eng-prolific,3.2.4,Linux x86_64,60,5e811195ec31d30008690bcd,,1,0,81,58,1,80
,,,,,,,,,,,,,,,,,,,,,,,,,,,,,,,,,,,,,,,,,i,5.151000023,HAI,FALSE,,,,,,,166,peu,Catalan,Sounds/cat_peu.mp3,2020-06-05_15h36.42.777,TranslationElicitation_eng-prolific,3.2.4,Linux x86_64,60,5e811195ec31d30008690bcd,,1,0,81,58,1,80
,,,,,,,,,,,,,,,,,,,,,,,,,,,,,,,,,,,,,,,,,r,5.334000111,HAIR,FALSE,,,,,,,166,peu,Catalan,Sounds/cat_peu.mp3,2020-06-05_15h36.42.777,TranslationElicitation_eng-prolific,3.2.4,Linux x86_64,60,5e811195ec31d30008690bcd,,1,0,81,58,1,80
,,,,,,,,,,,,,,,,,,,,,,,,,,,,,,,,,,,,,,,,,return,14.30500007,HAIR,FALSE,,,,,,,166,peu,Catalan,Sounds/cat_peu.mp3,2020-06-05_15h36.42.777,TranslationElicitation_eng-prolific,3.2.4,Linux x86_64,60,5e811195ec31d30008690bcd,14.30500007,1,0,81,58,1,80
,,,,,,,,,,,,,,,,,,,,,,,,,,,,,,,,,,,,,,,,,,,,,,,,,,,166,peu,Catalan,Sounds/cat_peu.mp3,2020-06-05_15h36.42.777,TranslationElicitation_eng-prolific,3.2.4,Linux x86_64,60,5e811195ec31d30008690bcd,,1,0,81,58,1,80
,,,,,,,,,,,,,,,,,,,,,,,,,,,,,,,,,,,,,,,,,s,7.395999908,S,FALSE,,,,,,,138,galeta,Catalan,Sounds/cat_galeta.mp3,2020-06-05_15h36.42.777,TranslationElicitation_eng-prolific,3.2.4,Linux x86_64,60,5e811195ec31d30008690bcd,,1,0,81,32,1,80
,,,,,,,,,,,,,,,,,,,,,,,,,,,,,,,,,,,,,,,,,h,7.48300004,SH,FALSE,,,,,,,138,galeta,Catalan,Sounds/cat_galeta.mp3,2020-06-05_15h36.42.777,TranslationElicitation_eng-prolific,3.2.4,Linux x86_64,60,5e811195ec31d30008690bcd,,1,0,81,32,1,80
,,,,,,,,,,,,,,,,,,,,,,,,,,,,,,,,,,,,,,,,,o,7.816999912,SHO,FALSE,,,,,,,138,galeta,Catalan,Sounds/cat_galeta.mp3,2020-06-05_15h36.42.777,TranslationElicitation_eng-prolific,3.2.4,Linux x86_64,60,5e811195ec31d30008690bcd,,1,0,81,32,1,80
,,,,,,,,,,,,,,,,,,,,,,,,,,,,,,,,,,,,,,,,,e,7.902999878,SHOE,FALSE,,,,,,,138,galeta,Catalan,Sounds/cat_galeta.mp3,2020-06-05_15h36.42.777,TranslationElicitation_eng-prolific,3.2.4,Linux x86_64,60,5e811195ec31d30008690bcd,,1,0,81,32,1,80
,,,,,,,,,,,,,,,,,,,,,,,,,,,,,,,,,,,,,,,,,return,8.883999825,SHOE,FALSE,,,,,,,138,galeta,Catalan,Sounds/cat_galeta.mp3,2020-06-05_15h36.42.777,TranslationElicitation_eng-prolific,3.2.4,Linux x86_64,60,5e811195ec31d30008690bcd,8.883999825,1,0,81,32,1,80
,,,,,,,,,,,,,,,,,,,,,,,,,,,,,,,,,,,,,,,,,,,,,,,,,,,138,galeta,Catalan,Sounds/cat_galeta.mp3,2020-06-05_15h36.42.777,TranslationElicitation_eng-prolific,3.2.4,Linux x86_64,60,5e811195ec31d30008690bcd,,1,0,81,32,1,80
,,,,,,,,,,,,,,,,,,,,,,,,,,,,,,,,,,,,,,,,,c,4.834000111,C,FALSE,,,,,,,140,gat,Catalan,Sounds/cat_gat.mp3,2020-06-05_15h36.42.777,TranslationElicitation_eng-prolific,3.2.4,Linux x86_64,60,5e811195ec31d30008690bcd,,1,0,81,34,1,80
,,,,,,,,,,,,,,,,,,,,,,,,,,,,,,,,,,,,,,,,,o,4.984000206,CO,FALSE,,,,,,,140,gat,Catalan,Sounds/cat_gat.mp3,2020-06-05_15h36.42.777,TranslationElicitation_eng-prolific,3.2.4,Linux x86_64,60,5e811195ec31d30008690bcd,,1,0,81,34,1,80
,,,,,,,,,,,,,,,,,,,,,,,,,,,,,,,,,,,,,,,,,a,5.134000063,COA,FALSE,,,,,,,140,gat,Catalan,Sounds/cat_gat.mp3,2020-06-05_15h36.42.777,TranslationElicitation_eng-prolific,3.2.4,Linux x86_64,60,5e811195ec31d30008690bcd,,1,0,81,34,1,80
,,,,,,,,,,,,,,,,,,,,,,,,,,,,,,,,,,,,,,,,,t,5.283000231,COAT,FALSE,,,,,,,140,gat,Catalan,Sounds/cat_gat.mp3,2020-06-05_15h36.42.777,TranslationElicitation_eng-prolific,3.2.4,Linux x86_64,60,5e811195ec31d30008690bcd,,1,0,81,34,1,80
,,,,,,,,,,,,,,,,,,,,,,,,,,,,,,,,,,,,,,,,,return,5.821000099,COAT,FALSE,,,,,,,140,gat,Catalan,Sounds/cat_gat.mp3,2020-06-05_15h36.42.777,TranslationElicitation_eng-prolific,3.2.4,Linux x86_64,60,5e811195ec31d30008690bcd,5.821000099,1,0,81,34,1,80
,,,,,,,,,,,,,,,,,,,,,,,,,,,,,,,,,,,,,,,,,,,,,,,,,,,140,gat,Catalan,Sounds/cat_gat.mp3,2020-06-05_15h36.42.777,TranslationElicitation_eng-prolific,3.2.4,Linux x86_64,60,5e811195ec31d30008690bcd,,1,0,81,34,1,80
,,,,,,,,,,,,,,,,,,,,,,,,,,,,,,,,,,,,,,,,,s,3.717999935,S,FALSE,,,,,,,139,galleda,Catalan,Sounds/cat_galleda.mp3,2020-06-05_15h36.42.777,TranslationElicitation_eng-prolific,3.2.4,Linux x86_64,60,5e811195ec31d30008690bcd,,1,0,81,33,1,80
,,,,,,,,,,,,,,,,,,,,,,,,,,,,,,,,,,,,,,,,,h,3.867000103,SH,FALSE,,,,,,,139,galleda,Catalan,Sounds/cat_galleda.mp3,2020-06-05_15h36.42.777,TranslationElicitation_eng-prolific,3.2.4,Linux x86_64,60,5e811195ec31d30008690bcd,,1,0,81,33,1,80
,,,,,,,,,,,,,,,,,,,,,,,,,,,,,,,,,,,,,,,,,o,4.082999945,SHO,FALSE,,,,,,,139,galleda,Catalan,Sounds/cat_galleda.mp3,2020-06-05_15h36.42.777,TranslationElicitation_eng-prolific,3.2.4,Linux x86_64,60,5e811195ec31d30008690bcd,,1,0,81,33,1,80
,,,,,,,,,,,,,,,,,,,,,,,,,,,,,,,,,,,,,,,,,e,4.200000048,SHOE,FALSE,,,,,,,139,galleda,Catalan,Sounds/cat_galleda.mp3,2020-06-05_15h36.42.777,TranslationElicitation_eng-prolific,3.2.4,Linux x86_64,60,5e811195ec31d30008690bcd,,1,0,81,33,1,80
,,,,,,,,,,,,,,,,,,,,,,,,,,,,,,,,,,,,,,,,,return,4.582999945,SHOE,FALSE,,,,,,,139,galleda,Catalan,Sounds/cat_galleda.mp3,2020-06-05_15h36.42.777,TranslationElicitation_eng-prolific,3.2.4,Linux x86_64,60,5e811195ec31d30008690bcd,4.582999945,1,0,81,33,1,80
,,,,,,,,,,,,,,,,,,,,,,,,,,,,,,,,,,,,,,,,,,,,,,,,,,,139,galleda,Catalan,Sounds/cat_galleda.mp3,2020-06-05_15h36.42.777,TranslationElicitation_eng-prolific,3.2.4,Linux x86_64,60,5e811195ec31d30008690bcd,,1,0,81,33,1,80
,,,,,,,,,,,,,,,,,,,,,,,,,,,,,,,,,,,,,,,,,d,2.717000008,D,FALSE,,,,,,,111,bibero,Catalan,Sounds/cat_bibero.mp3,2020-06-05_15h36.42.777,TranslationElicitation_eng-prolific,3.2.4,Linux x86_64,60,5e811195ec31d30008690bcd,,1,0,81,6,1,80
,,,,,,,,,,,,,,,,,,,,,,,,,,,,,,,,,,,,,,,,,r,2.888999939,DR,FALSE,,,,,,,111,bibero,Catalan,Sounds/cat_bibero.mp3,2020-06-05_15h36.42.777,TranslationElicitation_eng-prolific,3.2.4,Linux x86_64,60,5e811195ec31d30008690bcd,,1,0,81,6,1,80
,,,,,,,,,,,,,,,,,,,,,,,,,,,,,,,,,,,,,,,,,i,2.967000008,DRI,FALSE,,,,,,,111,bibero,Catalan,Sounds/cat_bibero.mp3,2020-06-05_15h36.42.777,TranslationElicitation_eng-prolific,3.2.4,Linux x86_64,60,5e811195ec31d30008690bcd,,1,0,81,6,1,80
,,,,,,,,,,,,,,,,,,,,,,,,,,,,,,,,,,,,,,,,,n,3.149999857,DRIN,FALSE,,,,,,,111,bibero,Catalan,Sounds/cat_bibero.mp3,2020-06-05_15h36.42.777,TranslationElicitation_eng-prolific,3.2.4,Linux x86_64,60,5e811195ec31d30008690bcd,,1,0,81,6,1,80
,,,,,,,,,,,,,,,,,,,,,,,,,,,,,,,,,,,,,,,,,k,3.289999962,DRINK,FALSE,,,,,,,111,bibero,Catalan,Sounds/cat_bibero.mp3,2020-06-05_15h36.42.777,TranslationElicitation_eng-prolific,3.2.4,Linux x86_64,60,5e811195ec31d30008690bcd,,1,0,81,6,1,80
,,,,,,,,,,,,,,,,,,,,,,,,,,,,,,,,,,,,,,,,,return,3.934000015,DRINK,FALSE,,,,,,,111,bibero,Catalan,Sounds/cat_bibero.mp3,2020-06-05_15h36.42.777,TranslationElicitation_eng-prolific,3.2.4,Linux x86_64,60,5e811195ec31d30008690bcd,3.934000015,1,0,81,6,1,80
,,,,,,,,,,,,,,,,,,,,,,,,,,,,,,,,,,,,,,,,,,,,,,,,,,,111,bibero,Catalan,Sounds/cat_bibero.mp3,2020-06-05_15h36.42.777,TranslationElicitation_eng-prolific,3.2.4,Linux x86_64,60,5e811195ec31d30008690bcd,,1,0,81,6,1,80
,,,,,,,,,,,,,,,,,,,,,,,,,,,,,,,,,,,,,,,,,m,1.649999857,M,FALSE,,,,,,,119,caixa,Catalan,Sounds/cat_caixa.mp3,2020-06-05_15h36.42.777,TranslationElicitation_eng-prolific,3.2.4,Linux x86_64,60,5e811195ec31d30008690bcd,,1,0,81,14,1,80
,,,,,,,,,,,,,,,,,,,,,,,,,,,,,,,,,,,,,,,,,o,1.815999985,MO,FALSE,,,,,,,119,caixa,Catalan,Sounds/cat_caixa.mp3,2020-06-05_15h36.42.777,TranslationElicitation_eng-prolific,3.2.4,Linux x86_64,60,5e811195ec31d30008690bcd,,1,0,81,14,1,80
,,,,,,,,,,,,,,,,,,,,,,,,,,,,,,,,,,,,,,,,,n,1.949999809,MON,FALSE,,,,,,,119,caixa,Catalan,Sounds/cat_caixa.mp3,2020-06-05_15h36.42.777,TranslationElicitation_eng-prolific,3.2.4,Linux x86_64,60,5e811195ec31d30008690bcd,,1,0,81,14,1,80
,,,,,,,,,,,,,,,,,,,,,,,,,,,,,,,,,,,,,,,,,e,2.082999945,MONE,FALSE,,,,,,,119,caixa,Catalan,Sounds/cat_caixa.mp3,2020-06-05_15h36.42.777,TranslationElicitation_eng-prolific,3.2.4,Linux x86_64,60,5e811195ec31d30008690bcd,,1,0,81,14,1,80
,,,,,,,,,,,,,,,,,,,,,,,,,,,,,,,,,,,,,,,,,y,2.166999817,MONEY,FALSE,,,,,,,119,caixa,Catalan,Sounds/cat_caixa.mp3,2020-06-05_15h36.42.777,TranslationElicitation_eng-prolific,3.2.4,Linux x86_64,60,5e811195ec31d30008690bcd,,1,0,81,14,1,80
,,,,,,,,,,,,,,,,,,,,,,,,,,,,,,,,,,,,,,,,,backspace,4.157999992,MONE,TRUE,,,,,,,119,caixa,Catalan,Sounds/cat_caixa.mp3,2020-06-05_15h36.42.777,TranslationElicitation_eng-prolific,3.2.4,Linux x86_64,60,5e811195ec31d30008690bcd,,1,0,81,14,1,80
,,,,,,,,,,,,,,,,,,,,,,,,,,,,,,,,,,,,,,,,,backspace,4.332999945,MON,TRUE,,,,,,,119,caixa,Catalan,Sounds/cat_caixa.mp3,2020-06-05_15h36.42.777,TranslationElicitation_eng-prolific,3.2.4,Linux x86_64,60,5e811195ec31d30008690bcd,,1,0,81,14,1,80
,,,,,,,,,,,,,,,,,,,,,,,,,,,,,,,,,,,,,,,,,e,5.017999887,MONE,TRUE,,,,,,,119,caixa,Catalan,Sounds/cat_caixa.mp3,2020-06-05_15h36.42.777,TranslationElicitation_eng-prolific,3.2.4,Linux x86_64,60,5e811195ec31d30008690bcd,,1,0,81,14,1,80
,,,,,,,,,,,,,,,,,,,,,,,,,,,,,,,,,,,,,,,,,y,5.107999802,MONEY,TRUE,,,,,,,119,caixa,Catalan,Sounds/cat_caixa.mp3,2020-06-05_15h36.42.777,TranslationElicitation_eng-prolific,3.2.4,Linux x86_64,60,5e811195ec31d30008690bcd,,1,0,81,14,1,80
,,,,,,,,,,,,,,,,,,,,,,,,,,,,,,,,,,,,,,,,,return,5.353999853,MONEY,TRUE,,,,,,,119,caixa,Catalan,Sounds/cat_caixa.mp3,2020-06-05_15h36.42.777,TranslationElicitation_eng-prolific,3.2.4,Linux x86_64,60,5e811195ec31d30008690bcd,5.353999853,1,0,81,14,1,80
,,,,,,,,,,,,,,,,,,,,,,,,,,,,,,,,,,,,,,,,,,,,,,,,,,,119,caixa,Catalan,Sounds/cat_caixa.mp3,2020-06-05_15h36.42.777,TranslationElicitation_eng-prolific,3.2.4,Linux x86_64,60,5e811195ec31d30008690bcd,,1,0,81,14,1,80
,,,,,,,,,,,,,,,,,,,,,,,,,,,,,,,,,,,,,,,,,p,1.500999928,P,FALSE,,,,,,,164,patata,Catalan,Sounds/cat_patata.mp3,2020-06-05_15h36.42.777,TranslationElicitation_eng-prolific,3.2.4,Linux x86_64,60,5e811195ec31d30008690bcd,,1,0,81,56,1,80
,,,,,,,,,,,,,,,,,,,,,,,,,,,,,,,,,,,,,,,,,o,1.651000023,PO,FALSE,,,,,,,164,patata,Catalan,Sounds/cat_patata.mp3,2020-06-05_15h36.42.777,TranslationElicitation_eng-prolific,3.2.4,Linux x86_64,60,5e811195ec31d30008690bcd,,1,0,81,56,1,80
,,,,,,,,,,,,,,,,,,,,,,,,,,,,,,,,,,,,,,,,,t,1.88499999,POT,FALSE,,,,,,,164,patata,Catalan,Sounds/cat_patata.mp3,2020-06-05_15h36.42.777,TranslationElicitation_eng-prolific,3.2.4,Linux x86_64,60,5e811195ec31d30008690bcd,,1,0,81,56,1,80
,,,,,,,,,,,,,,,,,,,,,,,,,,,,,,,,,,,,,,,,,a,2.032999992,POTA,FALSE,,,,,,,164,patata,Catalan,Sounds/cat_patata.mp3,2020-06-05_15h36.42.777,TranslationElicitation_eng-prolific,3.2.4,Linux x86_64,60,5e811195ec31d30008690bcd,,1,0,81,56,1,80
,,,,,,,,,,,,,,,,,,,,,,,,,,,,,,,,,,,,,,,,,t,2.134000063,POTAT,FALSE,,,,,,,164,patata,Catalan,Sounds/cat_patata.mp3,2020-06-05_15h36.42.777,TranslationElicitation_eng-prolific,3.2.4,Linux x86_64,60,5e811195ec31d30008690bcd,,1,0,81,56,1,80
,,,,,,,,,,,,,,,,,,,,,,,,,,,,,,,,,,,,,,,,,o,2.818000078,POTATO,FALSE,,,,,,,164,patata,Catalan,Sounds/cat_patata.mp3,2020-06-05_15h36.42.777,TranslationElicitation_eng-prolific,3.2.4,Linux x86_64,60,5e811195ec31d30008690bcd,,1,0,81,56,1,80
,,,,,,,,,,,,,,,,,,,,,,,,,,,,,,,,,,,,,,,,,return,3.368000031,POTATO,FALSE,,,,,,,164,patata,Catalan,Sounds/cat_patata.mp3,2020-06-05_15h36.42.777,TranslationElicitation_eng-prolific,3.2.4,Linux x86_64,60,5e811195ec31d30008690bcd,3.368000031,1,0,81,56,1,80
,,,,,,,,,,,,,,,,,,,,,,,,,,,,,,,,,,,,,,,,,,,,,,,,,,,164,patata,Catalan,Sounds/cat_patata.mp3,2020-06-05_15h36.42.777,TranslationElicitation_eng-prolific,3.2.4,Linux x86_64,60,5e811195ec31d30008690bcd,,1,0,81,56,1,80
,,,,,,,,,,,,,,,,,,,,,,,,,,,,,,,,,,,,,,,,,b,2.417000055,B,FALSE,,,,,,,106,aixeta,Catalan,Sounds/cat_aixeta.mp3,2020-06-05_15h36.42.777,TranslationElicitation_eng-prolific,3.2.4,Linux x86_64,60,5e811195ec31d30008690bcd,,1,0,81,2,1,80
,,,,,,,,,,,,,,,,,,,,,,,,,,,,,,,,,,,,,,,,,r,2.632999897,BR,FALSE,,,,,,,106,aixeta,Catalan,Sounds/cat_aixeta.mp3,2020-06-05_15h36.42.777,TranslationElicitation_eng-prolific,3.2.4,Linux x86_64,60,5e811195ec31d30008690bcd,,1,0,81,2,1,80
,,,,,,,,,,,,,,,,,,,,,,,,,,,,,,,,,,,,,,,,,u,2.818000078,BRU,FALSE,,,,,,,106,aixeta,Catalan,Sounds/cat_aixeta.mp3,2020-06-05_15h36.42.777,TranslationElicitation_eng-prolific,3.2.4,Linux x86_64,60,5e811195ec31d30008690bcd,,1,0,81,2,1,80
,,,,,,,,,,,,,,,,,,,,,,,,,,,,,,,,,,,,,,,,,s,2.986999989,BRUS,FALSE,,,,,,,106,aixeta,Catalan,Sounds/cat_aixeta.mp3,2020-06-05_15h36.42.777,TranslationElicitation_eng-prolific,3.2.4,Linux x86_64,60,5e811195ec31d30008690bcd,,1,0,81,2,1,80
,,,,,,,,,,,,,,,,,,,,,,,,,,,,,,,,,,,,,,,,,c,3.752000093,BRUSC,FALSE,,,,,,,106,aixeta,Catalan,Sounds/cat_aixeta.mp3,2020-06-05_15h36.42.777,TranslationElicitation_eng-prolific,3.2.4,Linux x86_64,60,5e811195ec31d30008690bcd,,1,0,81,2,1,80
,,,,,,,,,,,,,,,,,,,,,,,,,,,,,,,,,,,,,,,,,h,4.083999872,BRUSCH,FALSE,,,,,,,106,aixeta,Catalan,Sounds/cat_aixeta.mp3,2020-06-05_15h36.42.777,TranslationElicitation_eng-prolific,3.2.4,Linux x86_64,60,5e811195ec31d30008690bcd,,1,0,81,2,1,80
,,,,,,,,,,,,,,,,,,,,,,,,,,,,,,,,,,,,,,,,,backspace,4.437999964,BRUSC,TRUE,,,,,,,106,aixeta,Catalan,Sounds/cat_aixeta.mp3,2020-06-05_15h36.42.777,TranslationElicitation_eng-prolific,3.2.4,Linux x86_64,60,5e811195ec31d30008690bcd,,1,0,81,2,1,80
,,,,,,,,,,,,,,,,,,,,,,,,,,,,,,,,,,,,,,,,,backspace,4.583999872,BRUS,TRUE,,,,,,,106,aixeta,Catalan,Sounds/cat_aixeta.mp3,2020-06-05_15h36.42.777,TranslationElicitation_eng-prolific,3.2.4,Linux x86_64,60,5e811195ec31d30008690bcd,,1,0,81,2,1,80
,,,,,,,,,,,,,,,,,,,,,,,,,,,,,,,,,,,,,,,,,h,4.799999952,BRUSH,TRUE,,,,,,,106,aixeta,Catalan,Sounds/cat_aixeta.mp3,2020-06-05_15h36.42.777,TranslationElicitation_eng-prolific,3.2.4,Linux x86_64,60,5e811195ec31d30008690bcd,,1,0,81,2,1,80
,,,,,,,,,,,,,,,,,,,,,,,,,,,,,,,,,,,,,,,,,backspace,5.884000063,BRUS,TRUE,,,,,,,106,aixeta,Catalan,Sounds/cat_aixeta.mp3,2020-06-05_15h36.42.777,TranslationElicitation_eng-prolific,3.2.4,Linux x86_64,60,5e811195ec31d30008690bcd,,1,0,81,2,1,80
,,,,,,,,,,,,,,,,,,,,,,,,,,,,,,,,,,,,,,,,,backspace,6.068000078,BRU,TRUE,,,,,,,106,aixeta,Catalan,Sounds/cat_aixeta.mp3,2020-06-05_15h36.42.777,TranslationElicitation_eng-prolific,3.2.4,Linux x86_64,60,5e811195ec31d30008690bcd,,1,0,81,2,1,80
,,,,,,,,,,,,,,,,,,,,,,,,,,,,,,,,,,,,,,,,,c,6.26699996,BRUC,TRUE,,,,,,,106,aixeta,Catalan,Sounds/cat_aixeta.mp3,2020-06-05_15h36.42.777,TranslationElicitation_eng-prolific,3.2.4,Linux x86_64,60,5e811195ec31d30008690bcd,,1,0,81,2,1,80
,,,,,,,,,,,,,,,,,,,,,,,,,,,,,,,,,,,,,,,,,h,6.785000086,BRUCH,TRUE,,,,,,,106,aixeta,Catalan,Sounds/cat_aixeta.mp3,2020-06-05_15h36.42.777,TranslationElicitation_eng-prolific,3.2.4,Linux x86_64,60,5e811195ec31d30008690bcd,,1,0,81,2,1,80
,,,,,,,,,,,,,,,,,,,,,,,,,,,,,,,,,,,,,,,,,e,7.417000055,BRUCHE,TRUE,,,,,,,106,aixeta,Catalan,Sounds/cat_aixeta.mp3,2020-06-05_15h36.42.777,TranslationElicitation_eng-prolific,3.2.4,Linux x86_64,60,5e811195ec31d30008690bcd,,1,0,81,2,1,80
,,,,,,,,,,,,,,,,,,,,,,,,,,,,,,,,,,,,,,,,,t,7.670000076,BRUCHET,TRUE,,,,,,,106,aixeta,Catalan,Sounds/cat_aixeta.mp3,2020-06-05_15h36.42.777,TranslationElicitation_eng-prolific,3.2.4,Linux x86_64,60,5e811195ec31d30008690bcd,,1,0,81,2,1,80
,,,,,,,,,,,,,,,,,,,,,,,,,,,,,,,,,,,,,,,,,t,7.819000006,BRUCHETT,TRUE,,,,,,,106,aixeta,Catalan,Sounds/cat_aixeta.mp3,2020-06-05_15h36.42.777,TranslationElicitation_eng-prolific,3.2.4,Linux x86_64,60,5e811195ec31d30008690bcd,,1,0,81,2,1,80
,,,,,,,,,,,,,,,,,,,,,,,,,,,,,,,,,,,,,,,,,a,7.911000013,BRUCHETTA,TRUE,,,,,,,106,aixeta,Catalan,Sounds/cat_aixeta.mp3,2020-06-05_15h36.42.777,TranslationElicitation_eng-prolific,3.2.4,Linux x86_64,60,5e811195ec31d30008690bcd,,1,0,81,2,1,80
,,,,,,,,,,,,,,,,,,,,,,,,,,,,,,,,,,,,,,,,,return,8.434999943,BRUCHETTA,TRUE,,,,,,,106,aixeta,Catalan,Sounds/cat_aixeta.mp3,2020-06-05_15h36.42.777,TranslationElicitation_eng-prolific,3.2.4,Linux x86_64,60,5e811195ec31d30008690bcd,8.434999943,1,0,81,2,1,80
,,,,,,,,,,,,,,,,,,,,,,,,,,,,,,,,,,,,,,,,,,,,,,,,,,,106,aixeta,Catalan,Sounds/cat_aixeta.mp3,2020-06-05_15h36.42.777,TranslationElicitation_eng-prolific,3.2.4,Linux x86_64,60,5e811195ec31d30008690bcd,,1,0,81,2,1,80
,,,,,,,,,,,,,,,,,,,,,,,,,,,,,,,,,,,,,,,,,w,2.400000095,W,FALSE,,,,,,,105,aigua,Catalan,Sounds/cat_aigua.mp3,2020-06-05_15h36.42.777,TranslationElicitation_eng-prolific,3.2.4,Linux x86_64,60,5e811195ec31d30008690bcd,,1,0,81,1,1,80
,,,,,,,,,,,,,,,,,,,,,,,,,,,,,,,,,,,,,,,,,a,2.582999945,WA,FALSE,,,,,,,105,aigua,Catalan,Sounds/cat_aigua.mp3,2020-06-05_15h36.42.777,TranslationElicitation_eng-prolific,3.2.4,Linux x86_64,60,5e811195ec31d30008690bcd,,1,0,81,1,1,80
,,,,,,,,,,,,,,,,,,,,,,,,,,,,,,,,,,,,,,,,,t,2.650000095,WAT,FALSE,,,,,,,105,aigua,Catalan,Sounds/cat_aigua.mp3,2020-06-05_15h36.42.777,TranslationElicitation_eng-prolific,3.2.4,Linux x86_64,60,5e811195ec31d30008690bcd,,1,0,81,1,1,80
,,,,,,,,,,,,,,,,,,,,,,,,,,,,,,,,,,,,,,,,,e,2.801000118,WATE,FALSE,,,,,,,105,aigua,Catalan,Sounds/cat_aigua.mp3,2020-06-05_15h36.42.777,TranslationElicitation_eng-prolific,3.2.4,Linux x86_64,60,5e811195ec31d30008690bcd,,1,0,81,1,1,80
,,,,,,,,,,,,,,,,,,,,,,,,,,,,,,,,,,,,,,,,,r,2.987999916,WATER,FALSE,,,,,,,105,aigua,Catalan,Sounds/cat_aigua.mp3,2020-06-05_15h36.42.777,TranslationElicitation_eng-prolific,3.2.4,Linux x86_64,60,5e811195ec31d30008690bcd,,1,0,81,1,1,80
,,,,,,,,,,,,,,,,,,,,,,,,,,,,,,,,,,,,,,,,,return,3.183000088,WATER,FALSE,,,,,,,105,aigua,Catalan,Sounds/cat_aigua.mp3,2020-06-05_15h36.42.777,TranslationElicitation_eng-prolific,3.2.4,Linux x86_64,60,5e811195ec31d30008690bcd,3.183000088,1,0,81,1,1,80
,,,,,,,,,,,,,,,,,,,,,,,,,,,,,,,,,,,,,,,,,,,,,,,,,,,105,aigua,Catalan,Sounds/cat_aigua.mp3,2020-06-05_15h36.42.777,TranslationElicitation_eng-prolific,3.2.4,Linux x86_64,60,5e811195ec31d30008690bcd,,1,0,81,1,1,80
,,,,,,,,,,,,,,,,,,,,,,,,,,,,,,,,,,,,,,,,,b,2.016000032,B,FALSE,,,,,,,115,bolet,Catalan,Sounds/cat_bolet.mp3,2020-06-05_15h36.42.777,TranslationElicitation_eng-prolific,3.2.4,Linux x86_64,60,5e811195ec31d30008690bcd,,1,0,81,10,1,80
,,,,,,,,,,,,,,,,,,,,,,,,,,,,,,,,,,,,,,,,,o,2.268000126,BO,FALSE,,,,,,,115,bolet,Catalan,Sounds/cat_bolet.mp3,2020-06-05_15h36.42.777,TranslationElicitation_eng-prolific,3.2.4,Linux x86_64,60,5e811195ec31d30008690bcd,,1,0,81,10,1,80
,,,,,,,,,,,,,,,,,,,,,,,,,,,,,,,,,,,,,,,,,o,2.416000128,BOO,FALSE,,,,,,,115,bolet,Catalan,Sounds/cat_bolet.mp3,2020-06-05_15h36.42.777,TranslationElicitation_eng-prolific,3.2.4,Linux x86_64,60,5e811195ec31d30008690bcd,,1,0,81,10,1,80
,,,,,,,,,,,,,,,,,,,,,,,,,,,,,,,,,,,,,,,,,t,2.516000032,BOOT,FALSE,,,,,,,115,bolet,Catalan,Sounds/cat_bolet.mp3,2020-06-05_15h36.42.777,TranslationElicitation_eng-prolific,3.2.4,Linux x86_64,60,5e811195ec31d30008690bcd,,1,0,81,10,1,80
,,,,,,,,,,,,,,,,,,,,,,,,,,,,,,,,,,,,,,,,,return,2.914999962,BOOT,FALSE,,,,,,,115,bolet,Catalan,Sounds/cat_bolet.mp3,2020-06-05_15h36.42.777,TranslationElicitation_eng-prolific,3.2.4,Linux x86_64,60,5e811195ec31d30008690bcd,2.914999962,1,0,81,10,1,80
,,,,,,,,,,,,,,,,,,,,,,,,,,,,,,,,,,,,,,,,,,,,,,,,,,,115,bolet,Catalan,Sounds/cat_bolet.mp3,2020-06-05_15h36.42.777,TranslationElicitation_eng-prolific,3.2.4,Linux x86_64,60,5e811195ec31d30008690bcd,,1,0,81,10,1,80
,,,,,,,,,,,,,,,,,,,,,,,,,,,,,,,,,,,,,,,,,t,3.51699996,T,FALSE,,,,,,,150,lloro,Catalan,Sounds/cat_lloro.mp3,2020-06-05_15h36.42.777,TranslationElicitation_eng-prolific,3.2.4,Linux x86_64,60,5e811195ec31d30008690bcd,,1,0,81,43,1,80
,,,,,,,,,,,,,,,,,,,,,,,,,,,,,,,,,,,,,,,,,r,3.599999905,TR,FALSE,,,,,,,150,lloro,Catalan,Sounds/cat_lloro.mp3,2020-06-05_15h36.42.777,TranslationElicitation_eng-prolific,3.2.4,Linux x86_64,60,5e811195ec31d30008690bcd,,1,0,81,43,1,80
,,,,,,,,,,,,,,,,,,,,,,,,,,,,,,,,,,,,,,,,,e,3.799999952,TRE,FALSE,,,,,,,150,lloro,Catalan,Sounds/cat_lloro.mp3,2020-06-05_15h36.42.777,TranslationElicitation_eng-prolific,3.2.4,Linux x86_64,60,5e811195ec31d30008690bcd,,1,0,81,43,1,80
,,,,,,,,,,,,,,,,,,,,,,,,,,,,,,,,,,,,,,,,,e,3.950000048,TREE,FALSE,,,,,,,150,lloro,Catalan,Sounds/cat_lloro.mp3,2020-06-05_15h36.42.777,TranslationElicitation_eng-prolific,3.2.4,Linux x86_64,60,5e811195ec31d30008690bcd,,1,0,81,43,1,80
,,,,,,,,,,,,,,,,,,,,,,,,,,,,,,,,,,,,,,,,,return,4,TREE,FALSE,,,,,,,150,lloro,Catalan,Sounds/cat_lloro.mp3,2020-06-05_15h36.42.777,TranslationElicitation_eng-prolific,3.2.4,Linux x86_64,60,5e811195ec31d30008690bcd,4,1,0,81,43,1,80
,,,,,,,,,,,,,,,,,,,,,,,,,,,,,,,,,,,,,,,,,,,,,,,,,,,150,lloro,Catalan,Sounds/cat_lloro.mp3,2020-06-05_15h36.42.777,TranslationElicitation_eng-prolific,3.2.4,Linux x86_64,60,5e811195ec31d30008690bcd,,1,0,81,43,1,80
,,,,,,,,,,,,,,,,,,,,,,,,,,,,,,,,,,,,,,,,,a,2.900000095,A,FALSE,,,,,,,175,raspall,Catalan,Sounds/cat_raspall.mp3,2020-06-05_15h36.42.777,TranslationElicitation_eng-prolific,3.2.4,Linux x86_64,60,5e811195ec31d30008690bcd,,1,0,81,67,1,80
,,,,,,,,,,,,,,,,,,,,,,,,,,,,,,,,,,,,,,,,,s,3.133000135,AS,FALSE,,,,,,,175,raspall,Catalan,Sounds/cat_raspall.mp3,2020-06-05_15h36.42.777,TranslationElicitation_eng-prolific,3.2.4,Linux x86_64,60,5e811195ec31d30008690bcd,,1,0,81,67,1,80
,,,,,,,,,,,,,,,,,,,,,,,,,,,,,,,,,,,,,,,,,p,3.268000126,ASP,FALSE,,,,,,,175,raspall,Catalan,Sounds/cat_raspall.mp3,2020-06-05_15h36.42.777,TranslationElicitation_eng-prolific,3.2.4,Linux x86_64,60,5e811195ec31d30008690bcd,,1,0,81,67,1,80
,,,,,,,,,,,,,,,,,,,,,,,,,,,,,,,,,,,,,,,,,a,3.419000149,ASPA,FALSE,,,,,,,175,raspall,Catalan,Sounds/cat_raspall.mp3,2020-06-05_15h36.42.777,TranslationElicitation_eng-prolific,3.2.4,Linux x86_64,60,5e811195ec31d30008690bcd,,1,0,81,67,1,80
,,,,,,,,,,,,,,,,,,,,,,,,,,,,,,,,,,,,,,,,,r,3.799999952,ASPAR,FALSE,,,,,,,175,raspall,Catalan,Sounds/cat_raspall.mp3,2020-06-05_15h36.42.777,TranslationElicitation_eng-prolific,3.2.4,Linux x86_64,60,5e811195ec31d30008690bcd,,1,0,81,67,1,80
,,,,,,,,,,,,,,,,,,,,,,,,,,,,,,,,,,,,,,,,,a,4.082999945,ASPARA,FALSE,,,,,,,175,raspall,Catalan,Sounds/cat_raspall.mp3,2020-06-05_15h36.42.777,TranslationElicitation_eng-prolific,3.2.4,Linux x86_64,60,5e811195ec31d30008690bcd,,1,0,81,67,1,80
,,,,,,,,,,,,,,,,,,,,,,,,,,,,,,,,,,,,,,,,,g,4.472000122,ASPARAG,FALSE,,,,,,,175,raspall,Catalan,Sounds/cat_raspall.mp3,2020-06-05_15h36.42.777,TranslationElicitation_eng-prolific,3.2.4,Linux x86_64,60,5e811195ec31d30008690bcd,,1,0,81,67,1,80
,,,,,,,,,,,,,,,,,,,,,,,,,,,,,,,,,,,,,,,,,u,4.584000111,ASPARAGU,FALSE,,,,,,,175,raspall,Catalan,Sounds/cat_raspall.mp3,2020-06-05_15h36.42.777,TranslationElicitation_eng-prolific,3.2.4,Linux x86_64,60,5e811195ec31d30008690bcd,,1,0,81,67,1,80
,,,,,,,,,,,,,,,,,,,,,,,,,,,,,,,,,,,,,,,,,s,4.720999956,ASPARAGUS,FALSE,,,,,,,175,raspall,Catalan,Sounds/cat_raspall.mp3,2020-06-05_15h36.42.777,TranslationElicitation_eng-prolific,3.2.4,Linux x86_64,60,5e811195ec31d30008690bcd,,1,0,81,67,1,80
,,,,,,,,,,,,,,,,,,,,,,,,,,,,,,,,,,,,,,,,,return,5.53399992,ASPARAGUS,FALSE,,,,,,,175,raspall,Catalan,Sounds/cat_raspall.mp3,2020-06-05_15h36.42.777,TranslationElicitation_eng-prolific,3.2.4,Linux x86_64,60,5e811195ec31d30008690bcd,5.53399992,1,0,81,67,1,80
,,,,,,,,,,,,,,,,,,,,,,,,,,,,,,,,,,,,,,,,,,,,,,,,,,,175,raspall,Catalan,Sounds/cat_raspall.mp3,2020-06-05_15h36.42.777,TranslationElicitation_eng-prolific,3.2.4,Linux x86_64,60,5e811195ec31d30008690bcd,,1,0,81,67,1,80
,,,,,,,,,,,,,,,,,,,,,,,,,,,,,,,,,,,,,,,,,g,2.449999809,G,FALSE,,,,,,,186,ungla,Catalan,Sounds/cat_ungla.mp3,2020-06-05_15h36.42.777,TranslationElicitation_eng-prolific,3.2.4,Linux x86_64,60,5e811195ec31d30008690bcd,,1,0,81,77,1,80
,,,,,,,,,,,,,,,,,,,,,,,,,,,,,,,,,,,,,,,,,l,2.833999872,GL,FALSE,,,,,,,186,ungla,Catalan,Sounds/cat_ungla.mp3,2020-06-05_15h36.42.777,TranslationElicitation_eng-prolific,3.2.4,Linux x86_64,60,5e811195ec31d30008690bcd,,1,0,81,77,1,80
,,,,,,,,,,,,,,,,,,,,,,,,,,,,,,,,,,,,,,,,,a,3.034999847,GLA,FALSE,,,,,,,186,ungla,Catalan,Sounds/cat_ungla.mp3,2020-06-05_15h36.42.777,TranslationElicitation_eng-prolific,3.2.4,Linux x86_64,60,5e811195ec31d30008690bcd,,1,0,81,77,1,80
,,,,,,,,,,,,,,,,,,,,,,,,,,,,,,,,,,,,,,,,,s,3.215999842,GLAS,FALSE,,,,,,,186,ungla,Catalan,Sounds/cat_ungla.mp3,2020-06-05_15h36.42.777,TranslationElicitation_eng-prolific,3.2.4,Linux x86_64,60,5e811195ec31d30008690bcd,,1,0,81,77,1,80
,,,,,,,,,,,,,,,,,,,,,,,,,,,,,,,,,,,,,,,,,s,3.766000032,GLASS,FALSE,,,,,,,186,ungla,Catalan,Sounds/cat_ungla.mp3,2020-06-05_15h36.42.777,TranslationElicitation_eng-prolific,3.2.4,Linux x86_64,60,5e811195ec31d30008690bcd,,1,0,81,77,1,80
,,,,,,,,,,,,,,,,,,,,,,,,,,,,,,,,,,,,,,,,,backspace,4.717000008,GLAS,TRUE,,,,,,,186,ungla,Catalan,Sounds/cat_ungla.mp3,2020-06-05_15h36.42.777,TranslationElicitation_eng-prolific,3.2.4,Linux x86_64,60,5e811195ec31d30008690bcd,,1,0,81,77,1,80
,,,,,,,,,,,,,,,,,,,,,,,,,,,,,,,,,,,,,,,,,backspace,5.215999842,GLA,TRUE,,,,,,,186,ungla,Catalan,Sounds/cat_ungla.mp3,2020-06-05_15h36.42.777,TranslationElicitation_eng-prolific,3.2.4,Linux x86_64,60,5e811195ec31d30008690bcd,,1,0,81,77,1,80
,,,,,,,,,,,,,,,,,,,,,,,,,,,,,,,,,,,,,,,,,backspace,5.268999815,GL,TRUE,,,,,,,186,ungla,Catalan,Sounds/cat_ungla.mp3,2020-06-05_15h36.42.777,TranslationElicitation_eng-prolific,3.2.4,Linux x86_64,60,5e811195ec31d30008690bcd,,1,0,81,77,1,80
,,,,,,,,,,,,,,,,,,,,,,,,,,,,,,,,,,,,,,,,,backspace,5.319999933,G,TRUE,,,,,,,186,ungla,Catalan,Sounds/cat_ungla.mp3,2020-06-05_15h36.42.777,TranslationElicitation_eng-prolific,3.2.4,Linux x86_64,60,5e811195ec31d30008690bcd,,1,0,81,77,1,80
,,,,,,,,,,,,,,,,,,,,,,,,,,,,,,,,,,,,,,,,,backspace,5.396999836,,TRUE,,,,,,,186,ungla,Catalan,Sounds/cat_ungla.mp3,2020-06-05_15h36.42.777,TranslationElicitation_eng-prolific,3.2.4,Linux x86_64,60,5e811195ec31d30008690bcd,,1,0,81,77,1,80
,,,,,,,,,,,,,,,,,,,,,,,,,,,,,,,,,,,,,,,,,backspace,5.432999849,,TRUE,,,,,,,186,ungla,Catalan,Sounds/cat_ungla.mp3,2020-06-05_15h36.42.777,TranslationElicitation_eng-prolific,3.2.4,Linux x86_64,60,5e811195ec31d30008690bcd,,1,0,81,77,1,80
,,,,,,,,,,,,,,,,,,,,,,,,,,,,,,,,,,,,,,,,,a,5.717000008,A,TRUE,,,,,,,186,ungla,Catalan,Sounds/cat_ungla.mp3,2020-06-05_15h36.42.777,TranslationElicitation_eng-prolific,3.2.4,Linux x86_64,60,5e811195ec31d30008690bcd,,1,0,81,77,1,80
,,,,,,,,,,,,,,,,,,,,,,,,,,,,,,,,,,,,,,,,,space,5.807999849,A ,TRUE,,,,,,,186,ungla,Catalan,Sounds/cat_ungla.mp3,2020-06-05_15h36.42.777,TranslationElicitation_eng-prolific,3.2.4,Linux x86_64,60,5e811195ec31d30008690bcd,,1,0,81,77,1,80
,,,,,,,,,,,,,,,,,,,,,,,,,,,,,,,,,,,,,,,,,g,6.184000015,A G,TRUE,,,,,,,186,ungla,Catalan,Sounds/cat_ungla.mp3,2020-06-05_15h36.42.777,TranslationElicitation_eng-prolific,3.2.4,Linux x86_64,60,5e811195ec31d30008690bcd,,1,0,81,77,1,80
,,,,,,,,,,,,,,,,,,,,,,,,,,,,,,,,,,,,,,,,,l,6.366999865,A GL,TRUE,,,,,,,186,ungla,Catalan,Sounds/cat_ungla.mp3,2020-06-05_15h36.42.777,TranslationElicitation_eng-prolific,3.2.4,Linux x86_64,60,5e811195ec31d30008690bcd,,1,0,81,77,1,80
,,,,,,,,,,,,,,,,,,,,,,,,,,,,,,,,,,,,,,,,,a,6.51699996,A GLA,TRUE,,,,,,,186,ungla,Catalan,Sounds/cat_ungla.mp3,2020-06-05_15h36.42.777,TranslationElicitation_eng-prolific,3.2.4,Linux x86_64,60,5e811195ec31d30008690bcd,,1,0,81,77,1,80
,,,,,,,,,,,,,,,,,,,,,,,,,,,,,,,,,,,,,,,,,s,6.733999968,A GLAS,TRUE,,,,,,,186,ungla,Catalan,Sounds/cat_ungla.mp3,2020-06-05_15h36.42.777,TranslationElicitation_eng-prolific,3.2.4,Linux x86_64,60,5e811195ec31d30008690bcd,,1,0,81,77,1,80
,,,,,,,,,,,,,,,,,,,,,,,,,,,,,,,,,,,,,,,,,s,6.866999865,A GLASS,TRUE,,,,,,,186,ungla,Catalan,Sounds/cat_ungla.mp3,2020-06-05_15h36.42.777,TranslationElicitation_eng-prolific,3.2.4,Linux x86_64,60,5e811195ec31d30008690bcd,,1,0,81,77,1,80
,,,,,,,,,,,,,,,,,,,,,,,,,,,,,,,,,,,,,,,,,return,7.171000004,A GLASS,TRUE,,,,,,,186,ungla,Catalan,Sounds/cat_ungla.mp3,2020-06-05_15h36.42.777,TranslationElicitation_eng-prolific,3.2.4,Linux x86_64,60,5e811195ec31d30008690bcd,7.171000004,1,0,81,77,1,80
,,,,,,,,,,,,,,,,,,,,,,,,,,,,,,,,,,,,,,,,,,,,,,,,,,,186,ungla,Catalan,Sounds/cat_ungla.mp3,2020-06-05_15h36.42.777,TranslationElicitation_eng-prolific,3.2.4,Linux x86_64,60,5e811195ec31d30008690bcd,,1,0,81,77,1,80
,,,,,,,,,,,,,,,,,,,,,,,,,,,,,,,,,,,,,,,,,b,2.598999977,B,FALSE,,,,,,,187,vaixell,Catalan,Sounds/cat_vaixell.mp3,2020-06-05_15h36.42.777,TranslationElicitation_eng-prolific,3.2.4,Linux x86_64,60,5e811195ec31d30008690bcd,,1,0,81,78,1,80
,,,,,,,,,,,,,,,,,,,,,,,,,,,,,,,,,,,,,,,,,u,2.715999842,BU,FALSE,,,,,,,187,vaixell,Catalan,Sounds/cat_vaixell.mp3,2020-06-05_15h36.42.777,TranslationElicitation_eng-prolific,3.2.4,Linux x86_64,60,5e811195ec31d30008690bcd,,1,0,81,78,1,80
,,,,,,,,,,,,,,,,,,,,,,,,,,,,,,,,,,,,,,,,,s,2.849999905,BUS,FALSE,,,,,,,187,vaixell,Catalan,Sounds/cat_vaixell.mp3,2020-06-05_15h36.42.777,TranslationElicitation_eng-prolific,3.2.4,Linux x86_64,60,5e811195ec31d30008690bcd,,1,0,81,78,1,80
,,,,,,,,,,,,,,,,,,,,,,,,,,,,,,,,,,,,,,,,,h,2.915999889,BUSH,FALSE,,,,,,,187,vaixell,Catalan,Sounds/cat_vaixell.mp3,2020-06-05_15h36.42.777,TranslationElicitation_eng-prolific,3.2.4,Linux x86_64,60,5e811195ec31d30008690bcd,,1,0,81,78,1,80
,,,,,,,,,,,,,,,,,,,,,,,,,,,,,,,,,,,,,,,,,y,3.287999868,BUSHY,FALSE,,,,,,,187,vaixell,Catalan,Sounds/cat_vaixell.mp3,2020-06-05_15h36.42.777,TranslationElicitation_eng-prolific,3.2.4,Linux x86_64,60,5e811195ec31d30008690bcd,,1,0,81,78,1,80
,,,,,,,,,,,,,,,,,,,,,,,,,,,,,,,,,,,,,,,,,return,3.666999817,BUSHY,FALSE,,,,,,,187,vaixell,Catalan,Sounds/cat_vaixell.mp3,2020-06-05_15h36.42.777,TranslationElicitation_eng-prolific,3.2.4,Linux x86_64,60,5e811195ec31d30008690bcd,3.666999817,1,0,81,78,1,80
,,,,,,,,,,,,,,,,,,,,,,,,,,,,,,,,,,,,,,,,,,,,,,,,,,,187,vaixell,Catalan,Sounds/cat_vaixell.mp3,2020-06-05_15h36.42.777,TranslationElicitation_eng-prolific,3.2.4,Linux x86_64,60,5e811195ec31d30008690bcd,,1,0,81,78,1,80
,,,,,,,,,,,,,,,,,,,,,,,,,,,,,,,,,,,,,,,,,t,9.351000071,T,FALSE,,,,,,,180,tisores,Catalan,Sounds/cat_tisores.mp3,2020-06-05_15h36.42.777,TranslationElicitation_eng-prolific,3.2.4,Linux x86_64,60,5e811195ec31d30008690bcd,,1,0,81,71,1,80
,,,,,,,,,,,,,,,,,,,,,,,,,,,,,,,,,,,,,,,,,o,9.767000198,TO,FALSE,,,,,,,180,tisores,Catalan,Sounds/cat_tisores.mp3,2020-06-05_15h36.42.777,TranslationElicitation_eng-prolific,3.2.4,Linux x86_64,60,5e811195ec31d30008690bcd,,1,0,81,71,1,80
,,,,,,,,,,,,,,,,,,,,,,,,,,,,,,,,,,,,,,,,,m,9.968000174,TOM,FALSE,,,,,,,180,tisores,Catalan,Sounds/cat_tisores.mp3,2020-06-05_15h36.42.777,TranslationElicitation_eng-prolific,3.2.4,Linux x86_64,60,5e811195ec31d30008690bcd,,1,0,81,71,1,80
,,,,,,,,,,,,,,,,,,,,,,,,,,,,,,,,,,,,,,,,,o,10.148,TOMO,FALSE,,,,,,,180,tisores,Catalan,Sounds/cat_tisores.mp3,2020-06-05_15h36.42.777,TranslationElicitation_eng-prolific,3.2.4,Linux x86_64,60,5e811195ec31d30008690bcd,,1,0,81,71,1,80
,,,,,,,,,,,,,,,,,,,,,,,,,,,,,,,,,,,,,,,,,backspace,10.96800017,TOM,TRUE,,,,,,,180,tisores,Catalan,Sounds/cat_tisores.mp3,2020-06-05_15h36.42.777,TranslationElicitation_eng-prolific,3.2.4,Linux x86_64,60,5e811195ec31d30008690bcd,,1,0,81,71,1,80
,,,,,,,,,,,,,,,,,,,,,,,,,,,,,,,,,,,,,,,,,backspace,11.47300005,TO,TRUE,,,,,,,180,tisores,Catalan,Sounds/cat_tisores.mp3,2020-06-05_15h36.42.777,TranslationElicitation_eng-prolific,3.2.4,Linux x86_64,60,5e811195ec31d30008690bcd,,1,0,81,71,1,80
,,,,,,,,,,,,,,,,,,,,,,,,,,,,,,,,,,,,,,,,,backspace,11.51900005,T,TRUE,,,,,,,180,tisores,Catalan,Sounds/cat_tisores.mp3,2020-06-05_15h36.42.777,TranslationElicitation_eng-prolific,3.2.4,Linux x86_64,60,5e811195ec31d30008690bcd,,1,0,81,71,1,80
,,,,,,,,,,,,,,,,,,,,,,,,,,,,,,,,,,,,,,,,,backspace,11.56800008,,TRUE,,,,,,,180,tisores,Catalan,Sounds/cat_tisores.mp3,2020-06-05_15h36.42.777,TranslationElicitation_eng-prolific,3.2.4,Linux x86_64,60,5e811195ec31d30008690bcd,,1,0,81,71,1,80
,,,,,,,,,,,,,,,,,,,,,,,,,,,,,,,,,,,,,,,,,backspace,11.61800003,,TRUE,,,,,,,180,tisores,Catalan,Sounds/cat_tisores.mp3,2020-06-05_15h36.42.777,TranslationElicitation_eng-prolific,3.2.4,Linux x86_64,60,5e811195ec31d30008690bcd,,1,0,81,71,1,80
,,,,,,,,,,,,,,,,,,,,,,,,,,,,,,,,,,,,,,,,,backspace,11.66800022,,TRUE,,,,,,,180,tisores,Catalan,Sounds/cat_tisores.mp3,2020-06-05_15h36.42.777,TranslationElicitation_eng-prolific,3.2.4,Linux x86_64,60,5e811195ec31d30008690bcd,,1,0,81,71,1,80
,,,,,,,,,,,,,,,,,,,,,,,,,,,,,,,,,,,,,,,,,backspace,11.71800017,,TRUE,,,,,,,180,tisores,Catalan,Sounds/cat_tisores.mp3,2020-06-05_15h36.42.777,TranslationElicitation_eng-prolific,3.2.4,Linux x86_64,60,5e811195ec31d30008690bcd,,1,0,81,71,1,80
,,,,,,,,,,,,,,,,,,,,,,,,,,,,,,,,,,,,,,,,,backspace,11.76800013,,TRUE,,,,,,,180,tisores,Catalan,Sounds/cat_tisores.mp3,2020-06-05_15h36.42.777,TranslationElicitation_eng-prolific,3.2.4,Linux x86_64,60,5e811195ec31d30008690bcd,,1,0,81,71,1,80
,,,,,,,,,,,,,,,,,,,,,,,,,,,,,,,,,,,,,,,,,backspace,11.81800008,,TRUE,,,,,,,180,tisores,Catalan,Sounds/cat_tisores.mp3,2020-06-05_15h36.42.777,TranslationElicitation_eng-prolific,3.2.4,Linux x86_64,60,5e811195ec31d30008690bcd,,1,0,81,71,1,80
,,,,,,,,,,,,,,,,,,,,,,,,,,,,,,,,,,,,,,,,,y,12.06800008,Y,TRUE,,,,,,,180,tisores,Catalan,Sounds/cat_tisores.mp3,2020-06-05_15h36.42.777,TranslationElicitation_eng-prolific,3.2.4,Linux x86_64,60,5e811195ec31d30008690bcd,,1,0,81,71,1,80
,,,,,,,,,,,,,,,,,,,,,,,,,,,,,,,,,,,,,,,,,e,12.15300012,YE,TRUE,,,,,,,180,tisores,Catalan,Sounds/cat_tisores.mp3,2020-06-05_15h36.42.777,TranslationElicitation_eng-prolific,3.2.4,Linux x86_64,60,5e811195ec31d30008690bcd,,1,0,81,71,1,80
,,,,,,,,,,,,,,,,,,,,,,,,,,,,,,,,,,,,,,,,,s,12.32300019,YES,TRUE,,,,,,,180,tisores,Catalan,Sounds/cat_tisores.mp3,2020-06-05_15h36.42.777,TranslationElicitation_eng-prolific,3.2.4,Linux x86_64,60,5e811195ec31d30008690bcd,,1,0,81,71,1,80
,,,,,,,,,,,,,,,,,,,,,,,,,,,,,,,,,,,,,,,,,t,12.37000012,YEST,TRUE,,,,,,,180,tisores,Catalan,Sounds/cat_tisores.mp3,2020-06-05_15h36.42.777,TranslationElicitation_eng-prolific,3.2.4,Linux x86_64,60,5e811195ec31d30008690bcd,,1,0,81,71,1,80
,,,,,,,,,,,,,,,,,,,,,,,,,,,,,,,,,,,,,,,,,e,12.55100012,YESTE,TRUE,,,,,,,180,tisores,Catalan,Sounds/cat_tisores.mp3,2020-06-05_15h36.42.777,TranslationElicitation_eng-prolific,3.2.4,Linux x86_64,60,5e811195ec31d30008690bcd,,1,0,81,71,1,80
,,,,,,,,,,,,,,,,,,,,,,,,,,,,,,,,,,,,,,,,,r,12.68500018,YESTER,TRUE,,,,,,,180,tisores,Catalan,Sounds/cat_tisores.mp3,2020-06-05_15h36.42.777,TranslationElicitation_eng-prolific,3.2.4,Linux x86_64,60,5e811195ec31d30008690bcd,,1,0,81,71,1,80
,,,,,,,,,,,,,,,,,,,,,,,,,,,,,,,,,,,,,,,,,d,12.77100015,YESTERD,TRUE,,,,,,,180,tisores,Catalan,Sounds/cat_tisores.mp3,2020-06-05_15h36.42.777,TranslationElicitation_eng-prolific,3.2.4,Linux x86_64,60,5e811195ec31d30008690bcd,,1,0,81,71,1,80
,,,,,,,,,,,,,,,,,,,,,,,,,,,,,,,,,,,,,,,,,a,12.95500016,YESTERDA,TRUE,,,,,,,180,tisores,Catalan,Sounds/cat_tisores.mp3,2020-06-05_15h36.42.777,TranslationElicitation_eng-prolific,3.2.4,Linux x86_64,60,5e811195ec31d30008690bcd,,1,0,81,71,1,80
,,,,,,,,,,,,,,,,,,,,,,,,,,,,,,,,,,,,,,,,,y,13.5710001,YESTERDAY,TRUE,,,,,,,180,tisores,Catalan,Sounds/cat_tisores.mp3,2020-06-05_15h36.42.777,TranslationElicitation_eng-prolific,3.2.4,Linux x86_64,60,5e811195ec31d30008690bcd,,1,0,81,71,1,80
,,,,,,,,,,,,,,,,,,,,,,,,,,,,,,,,,,,,,,,,,return,13.98800015,YESTERDAY,TRUE,,,,,,,180,tisores,Catalan,Sounds/cat_tisores.mp3,2020-06-05_15h36.42.777,TranslationElicitation_eng-prolific,3.2.4,Linux x86_64,60,5e811195ec31d30008690bcd,13.98800015,1,0,81,71,1,80
,,,,,,,,,,,,,,,,,,,,,,,,,,,,,,,,,,,,,,,,,,,,,,,,,,,180,tisores,Catalan,Sounds/cat_tisores.mp3,2020-06-05_15h36.42.777,TranslationElicitation_eng-prolific,3.2.4,Linux x86_64,60,5e811195ec31d30008690bcd,,1,0,81,71,1,80
,,,,,,,,,,,,,,,,,,,,,,,,,,,,,,,,,,,,,,,,,g,1.183000088,G,FALSE,,,,,,,146,guitarra,Catalan,Sounds/cat_guitarra.mp3,2020-06-05_15h36.42.777,TranslationElicitation_eng-prolific,3.2.4,Linux x86_64,60,5e811195ec31d30008690bcd,,1,0,81,40,1,80
,,,,,,,,,,,,,,,,,,,,,,,,,,,,,,,,,,,,,,,,,u,1.332999945,GU,FALSE,,,,,,,146,guitarra,Catalan,Sounds/cat_guitarra.mp3,2020-06-05_15h36.42.777,TranslationElicitation_eng-prolific,3.2.4,Linux x86_64,60,5e811195ec31d30008690bcd,,1,0,81,40,1,80
,,,,,,,,,,,,,,,,,,,,,,,,,,,,,,,,,,,,,,,,,i,1.5,GUI,FALSE,,,,,,,146,guitarra,Catalan,Sounds/cat_guitarra.mp3,2020-06-05_15h36.42.777,TranslationElicitation_eng-prolific,3.2.4,Linux x86_64,60,5e811195ec31d30008690bcd,,1,0,81,40,1,80
,,,,,,,,,,,,,,,,,,,,,,,,,,,,,,,,,,,,,,,,,t,1.700000048,GUIT,FALSE,,,,,,,146,guitarra,Catalan,Sounds/cat_guitarra.mp3,2020-06-05_15h36.42.777,TranslationElicitation_eng-prolific,3.2.4,Linux x86_64,60,5e811195ec31d30008690bcd,,1,0,81,40,1,80
,,,,,,,,,,,,,,,,,,,,,,,,,,,,,,,,,,,,,,,,,a,1.816999912,GUITA,FALSE,,,,,,,146,guitarra,Catalan,Sounds/cat_guitarra.mp3,2020-06-05_15h36.42.777,TranslationElicitation_eng-prolific,3.2.4,Linux x86_64,60,5e811195ec31d30008690bcd,,1,0,81,40,1,80
,,,,,,,,,,,,,,,,,,,,,,,,,,,,,,,,,,,,,,,,,r,1.900000095,GUITAR,FALSE,,,,,,,146,guitarra,Catalan,Sounds/cat_guitarra.mp3,2020-06-05_15h36.42.777,TranslationElicitation_eng-prolific,3.2.4,Linux x86_64,60,5e811195ec31d30008690bcd,,1,0,81,40,1,80
,,,,,,,,,,,,,,,,,,,,,,,,,,,,,,,,,,,,,,,,,return,2.299999952,GUITAR,FALSE,,,,,,,146,guitarra,Catalan,Sounds/cat_guitarra.mp3,2020-06-05_15h36.42.777,TranslationElicitation_eng-prolific,3.2.4,Linux x86_64,60,5e811195ec31d30008690bcd,2.299999952,1,0,81,40,1,80
,,,,,,,,,,,,,,,,,,,,,,,,,,,,,,,,,,,,,,,,,,,,,,,,,,,146,guitarra,Catalan,Sounds/cat_guitarra.mp3,2020-06-05_15h36.42.777,TranslationElicitation_eng-prolific,3.2.4,Linux x86_64,60,5e811195ec31d30008690bcd,,1,0,81,40,1,80
,,,,,,,,,,,,,,,,,,,,,,,,,,,,,,,,,,,,,,,,,d,5.967000008,D,FALSE,,,,,,,181,tobogan,Catalan,Sounds/cat_tobogan.mp3,2020-06-05_15h36.42.777,TranslationElicitation_eng-prolific,3.2.4,Linux x86_64,60,5e811195ec31d30008690bcd,,1,0,81,72,1,80
,,,,,,,,,,,,,,,,,,,,,,,,,,,,,,,,,,,,,,,,,r,6.13499999,DR,FALSE,,,,,,,181,tobogan,Catalan,Sounds/cat_tobogan.mp3,2020-06-05_15h36.42.777,TranslationElicitation_eng-prolific,3.2.4,Linux x86_64,60,5e811195ec31d30008690bcd,,1,0,81,72,1,80
,,,,,,,,,,,,,,,,,,,,,,,,,,,,,,,,,,,,,,,,,u,6.184999943,DRU,FALSE,,,,,,,181,tobogan,Catalan,Sounds/cat_tobogan.mp3,2020-06-05_15h36.42.777,TranslationElicitation_eng-prolific,3.2.4,Linux x86_64,60,5e811195ec31d30008690bcd,,1,0,81,72,1,80
,,,,,,,,,,,,,,,,,,,,,,,,,,,,,,,,,,,,,,,,,m,6.368000031,DRUM,FALSE,,,,,,,181,tobogan,Catalan,Sounds/cat_tobogan.mp3,2020-06-05_15h36.42.777,TranslationElicitation_eng-prolific,3.2.4,Linux x86_64,60,5e811195ec31d30008690bcd,,1,0,81,72,1,80
,,,,,,,,,,,,,,,,,,,,,,,,,,,,,,,,,,,,,,,,,return,6.618999958,DRUM,FALSE,,,,,,,181,tobogan,Catalan,Sounds/cat_tobogan.mp3,2020-06-05_15h36.42.777,TranslationElicitation_eng-prolific,3.2.4,Linux x86_64,60,5e811195ec31d30008690bcd,6.618999958,1,0,81,72,1,80
,,,,,,,,,,,,,,,,,,,,,,,,,,,,,,,,,,,,,,,,,,,,,,,,,,,181,tobogan,Catalan,Sounds/cat_tobogan.mp3,2020-06-05_15h36.42.777,TranslationElicitation_eng-prolific,3.2.4,Linux x86_64,60,5e811195ec31d30008690bcd,,1,0,81,72,1,80
,,,,,,,,,,,,,,,,,,,,,,,,,,,,,,,,,,,,,,,,,t,2.884000063,T,FALSE,,,,,,,155,moneda,Catalan,Sounds/cat_moneda.mp3,2020-06-05_15h36.42.777,TranslationElicitation_eng-prolific,3.2.4,Linux x86_64,60,5e811195ec31d30008690bcd,,1,0,81,48,1,80
,,,,,,,,,,,,,,,,,,,,,,,,,,,,,,,,,,,,,,,,,r,3.151000023,TR,FALSE,,,,,,,155,moneda,Catalan,Sounds/cat_moneda.mp3,2020-06-05_15h36.42.777,TranslationElicitation_eng-prolific,3.2.4,Linux x86_64,60,5e811195ec31d30008690bcd,,1,0,81,48,1,80
,,,,,,,,,,,,,,,,,,,,,,,,,,,,,,,,,,,,,,,,,m,3.301000118,TRM,FALSE,,,,,,,155,moneda,Catalan,Sounds/cat_moneda.mp3,2020-06-05_15h36.42.777,TranslationElicitation_eng-prolific,3.2.4,Linux x86_64,60,5e811195ec31d30008690bcd,,1,0,81,48,1,80
,,,,,,,,,,,,,,,,,,,,,,,,,,,,,,,,,,,,,,,,,p,3.500999928,TRMP,FALSE,,,,,,,155,moneda,Catalan,Sounds/cat_moneda.mp3,2020-06-05_15h36.42.777,TranslationElicitation_eng-prolific,3.2.4,Linux x86_64,60,5e811195ec31d30008690bcd,,1,0,81,48,1,80
,,,,,,,,,,,,,,,,,,,,,,,,,,,,,,,,,,,,,,,,,backspace,3.818000078,TRM,TRUE,,,,,,,155,moneda,Catalan,Sounds/cat_moneda.mp3,2020-06-05_15h36.42.777,TranslationElicitation_eng-prolific,3.2.4,Linux x86_64,60,5e811195ec31d30008690bcd,,1,0,81,48,1,80
,,,,,,,,,,,,,,,,,,,,,,,,,,,,,,,,,,,,,,,,,backspace,4.01699996,TR,TRUE,,,,,,,155,moneda,Catalan,Sounds/cat_moneda.mp3,2020-06-05_15h36.42.777,TranslationElicitation_eng-prolific,3.2.4,Linux x86_64,60,5e811195ec31d30008690bcd,,1,0,81,48,1,80
,,,,,,,,,,,,,,,,,,,,,,,,,,,,,,,,,,,,,,,,,backspace,4.184999943,T,TRUE,,,,,,,155,moneda,Catalan,Sounds/cat_moneda.mp3,2020-06-05_15h36.42.777,TranslationElicitation_eng-prolific,3.2.4,Linux x86_64,60,5e811195ec31d30008690bcd,,1,0,81,48,1,80
,,,,,,,,,,,,,,,,,,,,,,,,,,,,,,,,,,,,,,,,,backspace,4.338000059,,TRUE,,,,,,,155,moneda,Catalan,Sounds/cat_moneda.mp3,2020-06-05_15h36.42.777,TranslationElicitation_eng-prolific,3.2.4,Linux x86_64,60,5e811195ec31d30008690bcd,,1,0,81,48,1,80
,,,,,,,,,,,,,,,,,,,,,,,,,,,,,,,,,,,,,,,,,return,8.051000118,,TRUE,,,,,,,155,moneda,Catalan,Sounds/cat_moneda.mp3,2020-06-05_15h36.42.777,TranslationElicitation_eng-prolific,3.2.4,Linux x86_64,60,5e811195ec31d30008690bcd,8.051000118,1,0,81,48,1,80
,,,,,,,,,,,,,,,,,,,,,,,,,,,,,,,,,,,,,,,,,,,,,,,,,,,155,moneda,Catalan,Sounds/cat_moneda.mp3,2020-06-05_15h36.42.777,TranslationElicitation_eng-prolific,3.2.4,Linux x86_64,60,5e811195ec31d30008690bcd,,1,0,81,48,1,80
,,,,,,,,,,,,,,,,,,,,,,,,,,,,,,,,,,,,,,,,,h,1.233999968,H,FALSE,,,,,,,188,xocolata,Catalan,Sounds/cat_xocolata.mp3,2020-06-05_15h36.42.777,TranslationElicitation_eng-prolific,3.2.4,Linux x86_64,60,5e811195ec31d30008690bcd,,1,0,81,79,1,80
,,,,,,,,,,,,,,,,,,,,,,,,,,,,,,,,,,,,,,,,,backspace,1.849999905,,TRUE,,,,,,,188,xocolata,Catalan,Sounds/cat_xocolata.mp3,2020-06-05_15h36.42.777,TranslationElicitation_eng-prolific,3.2.4,Linux x86_64,60,5e811195ec31d30008690bcd,,1,0,81,79,1,80
,,,,,,,,,,,,,,,,,,,,,,,,,,,,,,,,,,,,,,,,,c,2.117999792,C,TRUE,,,,,,,188,xocolata,Catalan,Sounds/cat_xocolata.mp3,2020-06-05_15h36.42.777,TranslationElicitation_eng-prolific,3.2.4,Linux x86_64,60,5e811195ec31d30008690bcd,,1,0,81,79,1,80
,,,,,,,,,,,,,,,,,,,,,,,,,,,,,,,,,,,,,,,,,h,2.21999979,CH,TRUE,,,,,,,188,xocolata,Catalan,Sounds/cat_xocolata.mp3,2020-06-05_15h36.42.777,TranslationElicitation_eng-prolific,3.2.4,Linux x86_64,60,5e811195ec31d30008690bcd,,1,0,81,79,1,80
,,,,,,,,,,,,,,,,,,,,,,,,,,,,,,,,,,,,,,,,,o,2.421999931,CHO,TRUE,,,,,,,188,xocolata,Catalan,Sounds/cat_xocolata.mp3,2020-06-05_15h36.42.777,TranslationElicitation_eng-prolific,3.2.4,Linux x86_64,60,5e811195ec31d30008690bcd,,1,0,81,79,1,80
,,,,,,,,,,,,,,,,,,,,,,,,,,,,,,,,,,,,,,,,,c,2.523999929,CHOC,TRUE,,,,,,,188,xocolata,Catalan,Sounds/cat_xocolata.mp3,2020-06-05_15h36.42.777,TranslationElicitation_eng-prolific,3.2.4,Linux x86_64,60,5e811195ec31d30008690bcd,,1,0,81,79,1,80
,,,,,,,,,,,,,,,,,,,,,,,,,,,,,,,,,,,,,,,,,o,2.599999905,CHOCO,TRUE,,,,,,,188,xocolata,Catalan,Sounds/cat_xocolata.mp3,2020-06-05_15h36.42.777,TranslationElicitation_eng-prolific,3.2.4,Linux x86_64,60,5e811195ec31d30008690bcd,,1,0,81,79,1,80
,,,,,,,,,,,,,,,,,,,,,,,,,,,,,,,,,,,,,,,,,l,2.867999792,CHOCOL,TRUE,,,,,,,188,xocolata,Catalan,Sounds/cat_xocolata.mp3,2020-06-05_15h36.42.777,TranslationElicitation_eng-prolific,3.2.4,Linux x86_64,60,5e811195ec31d30008690bcd,,1,0,81,79,1,80
,,,,,,,,,,,,,,,,,,,,,,,,,,,,,,,,,,,,,,,,,a,3.149999857,CHOCOLA,TRUE,,,,,,,188,xocolata,Catalan,Sounds/cat_xocolata.mp3,2020-06-05_15h36.42.777,TranslationElicitation_eng-prolific,3.2.4,Linux x86_64,60,5e811195ec31d30008690bcd,,1,0,81,79,1,80
,,,,,,,,,,,,,,,,,,,,,,,,,,,,,,,,,,,,,,,,,t,3.400999784,CHOCOLAT,TRUE,,,,,,,188,xocolata,Catalan,Sounds/cat_xocolata.mp3,2020-06-05_15h36.42.777,TranslationElicitation_eng-prolific,3.2.4,Linux x86_64,60,5e811195ec31d30008690bcd,,1,0,81,79,1,80
,,,,,,,,,,,,,,,,,,,,,,,,,,,,,,,,,,,,,,,,,e,3.501999855,CHOCOLATE,TRUE,,,,,,,188,xocolata,Catalan,Sounds/cat_xocolata.mp3,2020-06-05_15h36.42.777,TranslationElicitation_eng-prolific,3.2.4,Linux x86_64,60,5e811195ec31d30008690bcd,,1,0,81,79,1,80
,,,,,,,,,,,,,,,,,,,,,,,,,,,,,,,,,,,,,,,,,return,3.867999792,CHOCOLATE,TRUE,,,,,,,188,xocolata,Catalan,Sounds/cat_xocolata.mp3,2020-06-05_15h36.42.777,TranslationElicitation_eng-prolific,3.2.4,Linux x86_64,60,5e811195ec31d30008690bcd,3.867999792,1,0,81,79,1,80
,,,,,,,,,,,,,,,,,,,,,,,,,,,,,,,,,,,,,,,,,,,,,,,,,,,188,xocolata,Catalan,Sounds/cat_xocolata.mp3,2020-06-05_15h36.42.777,TranslationElicitation_eng-prolific,3.2.4,Linux x86_64,60,5e811195ec31d30008690bcd,,1,0,81,79,1,80
,,,,,,,,,,,,,,,,,,,,,,,,,,,,,,,,,,,,,,,,,return,6.248999834,,FALSE,,,,,,,160,orella,Catalan,Sounds/cat_orella.mp3,2020-06-05_15h36.42.777,TranslationElicitation_eng-prolific,3.2.4,Linux x86_64,60,5e811195ec31d30008690bcd,6.248999834,1,0,81,52,1,80
,,,,,,,,,,,,,,,,,,,,,,,,,,,,,,,,,,,,,,,,,,,,,,,,,,,160,orella,Catalan,Sounds/cat_orella.mp3,2020-06-05_15h36.42.777,TranslationElicitation_eng-prolific,3.2.4,Linux x86_64,60,5e811195ec31d30008690bcd,,1,0,81,52,1,80
,,,,,,,,,,,,,,,,,,,,,,,,,,,,,,,,,,,,,,,,,s,1.53399992,S,FALSE,,,,,,,131,esponja,Catalan,Sounds/cat_esponja.mp3,2020-06-05_15h36.42.777,TranslationElicitation_eng-prolific,3.2.4,Linux x86_64,60,5e811195ec31d30008690bcd,,1,0,81,25,1,80
,,,,,,,,,,,,,,,,,,,,,,,,,,,,,,,,,,,,,,,,,backspace,2.355999947,,TRUE,,,,,,,131,esponja,Catalan,Sounds/cat_esponja.mp3,2020-06-05_15h36.42.777,TranslationElicitation_eng-prolific,3.2.4,Linux x86_64,60,5e811195ec31d30008690bcd,,1,0,81,25,1,80
,,,,,,,,,,,,,,,,,,,,,,,,,,,,,,,,,,,,,,,,,a,2.583999872,A,TRUE,,,,,,,131,esponja,Catalan,Sounds/cat_esponja.mp3,2020-06-05_15h36.42.777,TranslationElicitation_eng-prolific,3.2.4,Linux x86_64,60,5e811195ec31d30008690bcd,,1,0,81,25,1,80
,,,,,,,,,,,,,,,,,,,,,,,,,,,,,,,,,,,,,,,,,space,2.733999968,A ,TRUE,,,,,,,131,esponja,Catalan,Sounds/cat_esponja.mp3,2020-06-05_15h36.42.777,TranslationElicitation_eng-prolific,3.2.4,Linux x86_64,60,5e811195ec31d30008690bcd,,1,0,81,25,1,80
,,,,,,,,,,,,,,,,,,,,,,,,,,,,,,,,,,,,,,,,,s,2.916999817,A S,TRUE,,,,,,,131,esponja,Catalan,Sounds/cat_esponja.mp3,2020-06-05_15h36.42.777,TranslationElicitation_eng-prolific,3.2.4,Linux x86_64,60,5e811195ec31d30008690bcd,,1,0,81,25,1,80
,,,,,,,,,,,,,,,,,,,,,,,,,,,,,,,,,,,,,,,,,p,2.967000008,A SP,TRUE,,,,,,,131,esponja,Catalan,Sounds/cat_esponja.mp3,2020-06-05_15h36.42.777,TranslationElicitation_eng-prolific,3.2.4,Linux x86_64,60,5e811195ec31d30008690bcd,,1,0,81,25,1,80
,,,,,,,,,,,,,,,,,,,,,,,,,,,,,,,,,,,,,,,,,o,4.26699996,A SPO,TRUE,,,,,,,131,esponja,Catalan,Sounds/cat_esponja.mp3,2020-06-05_15h36.42.777,TranslationElicitation_eng-prolific,3.2.4,Linux x86_64,60,5e811195ec31d30008690bcd,,1,0,81,25,1,80
,,,,,,,,,,,,,,,,,,,,,,,,,,,,,,,,,,,,,,,,,n,4.599999905,A SPON,TRUE,,,,,,,131,esponja,Catalan,Sounds/cat_esponja.mp3,2020-06-05_15h36.42.777,TranslationElicitation_eng-prolific,3.2.4,Linux x86_64,60,5e811195ec31d30008690bcd,,1,0,81,25,1,80
,,,,,,,,,,,,,,,,,,,,,,,,,,,,,,,,,,,,,,,,,g,4.805999994,A SPONG,TRUE,,,,,,,131,esponja,Catalan,Sounds/cat_esponja.mp3,2020-06-05_15h36.42.777,TranslationElicitation_eng-prolific,3.2.4,Linux x86_64,60,5e811195ec31d30008690bcd,,1,0,81,25,1,80
,,,,,,,,,,,,,,,,,,,,,,,,,,,,,,,,,,,,,,,,,e,4.888999939,A SPONGE,TRUE,,,,,,,131,esponja,Catalan,Sounds/cat_esponja.mp3,2020-06-05_15h36.42.777,TranslationElicitation_eng-prolific,3.2.4,Linux x86_64,60,5e811195ec31d30008690bcd,,1,0,81,25,1,80
,,,,,,,,,,,,,,,,,,,,,,,,,,,,,,,,,,,,,,,,,return,5.401000023,A SPONGE,TRUE,,,,,,,131,esponja,Catalan,Sounds/cat_esponja.mp3,2020-06-05_15h36.42.777,TranslationElicitation_eng-prolific,3.2.4,Linux x86_64,60,5e811195ec31d30008690bcd,5.401000023,1,0,81,25,1,80
,,,,,,,,,,,,,,,,,,,,,,,,,,,,,,,,,,,,,,,,,,,,,,,,,,,131,esponja,Catalan,Sounds/cat_esponja.mp3,2020-06-05_15h36.42.777,TranslationElicitation_eng-prolific,3.2.4,Linux x86_64,60,5e811195ec31d30008690bcd,,1,0,81,25,1,80
,,,,,,,,,,,,,,,,,,,,,,,,,,,,,,,,,,,,,,,,,c,1.916999817,C,FALSE,,,,,,,122,casa,Catalan,Sounds/cat_casa.mp3,2020-06-05_15h36.42.777,TranslationElicitation_eng-prolific,3.2.4,Linux x86_64,60,5e811195ec31d30008690bcd,,1,0,81,17,1,80
,,,,,,,,,,,,,,,,,,,,,,,,,,,,,,,,,,,,,,,,,a,2.049999952,CA,FALSE,,,,,,,122,casa,Catalan,Sounds/cat_casa.mp3,2020-06-05_15h36.42.777,TranslationElicitation_eng-prolific,3.2.4,Linux x86_64,60,5e811195ec31d30008690bcd,,1,0,81,17,1,80
,,,,,,,,,,,,,,,,,,,,,,,,,,,,,,,,,,,,,,,,,r,2.116999865,CAR,FALSE,,,,,,,122,casa,Catalan,Sounds/cat_casa.mp3,2020-06-05_15h36.42.777,TranslationElicitation_eng-prolific,3.2.4,Linux x86_64,60,5e811195ec31d30008690bcd,,1,0,81,17,1,80
,,,,,,,,,,,,,,,,,,,,,,,,,,,,,,,,,,,,,,,,,return,2.649999857,CAR,FALSE,,,,,,,122,casa,Catalan,Sounds/cat_casa.mp3,2020-06-05_15h36.42.777,TranslationElicitation_eng-prolific,3.2.4,Linux x86_64,60,5e811195ec31d30008690bcd,2.649999857,1,0,81,17,1,80
,,,,,,,,,,,,,,,,,,,,,,,,,,,,,,,,,,,,,,,,,,,,,,,,,,,122,casa,Catalan,Sounds/cat_casa.mp3,2020-06-05_15h36.42.777,TranslationElicitation_eng-prolific,3.2.4,Linux x86_64,60,5e811195ec31d30008690bcd,,1,0,81,17,1,80
,,,,,,,,,,,,,,,,,,,,,,,,,,,,,,,,,,,,,,,,,b,2.470000029,B,FALSE,,,,,,,127,cotxe,Catalan,Sounds/cat_cotxe.mp3,2020-06-05_15h36.42.777,TranslationElicitation_eng-prolific,3.2.4,Linux x86_64,60,5e811195ec31d30008690bcd,,1,0,81,21,1,80
,,,,,,,,,,,,,,,,,,,,,,,,,,,,,,,,,,,,,,,,,l,2.766000032,BL,FALSE,,,,,,,127,cotxe,Catalan,Sounds/cat_cotxe.mp3,2020-06-05_15h36.42.777,TranslationElicitation_eng-prolific,3.2.4,Linux x86_64,60,5e811195ec31d30008690bcd,,1,0,81,21,1,80
,,,,,,,,,,,,,,,,,,,,,,,,,,,,,,,,,,,,,,,,,a,2.950000048,BLA,FALSE,,,,,,,127,cotxe,Catalan,Sounds/cat_cotxe.mp3,2020-06-05_15h36.42.777,TranslationElicitation_eng-prolific,3.2.4,Linux x86_64,60,5e811195ec31d30008690bcd,,1,0,81,21,1,80
,,,,,,,,,,,,,,,,,,,,,,,,,,,,,,,,,,,,,,,,,n,3.033000231,BLAN,FALSE,,,,,,,127,cotxe,Catalan,Sounds/cat_cotxe.mp3,2020-06-05_15h36.42.777,TranslationElicitation_eng-prolific,3.2.4,Linux x86_64,60,5e811195ec31d30008690bcd,,1,0,81,21,1,80
,,,,,,,,,,,,,,,,,,,,,,,,,,,,,,,,,,,,,,,,,k,3.150000095,BLANK,FALSE,,,,,,,127,cotxe,Catalan,Sounds/cat_cotxe.mp3,2020-06-05_15h36.42.777,TranslationElicitation_eng-prolific,3.2.4,Linux x86_64,60,5e811195ec31d30008690bcd,,1,0,81,21,1,80
,,,,,,,,,,,,,,,,,,,,,,,,,,,,,,,,,,,,,,,,,e,3.268000126,BLANKE,FALSE,,,,,,,127,cotxe,Catalan,Sounds/cat_cotxe.mp3,2020-06-05_15h36.42.777,TranslationElicitation_eng-prolific,3.2.4,Linux x86_64,60,5e811195ec31d30008690bcd,,1,0,81,21,1,80
,,,,,,,,,,,,,,,,,,,,,,,,,,,,,,,,,,,,,,,,,t,3.403000116,BLANKET,FALSE,,,,,,,127,cotxe,Catalan,Sounds/cat_cotxe.mp3,2020-06-05_15h36.42.777,TranslationElicitation_eng-prolific,3.2.4,Linux x86_64,60,5e811195ec31d30008690bcd,,1,0,81,21,1,80
,,,,,,,,,,,,,,,,,,,,,,,,,,,,,,,,,,,,,,,,,return,3.951000214,BLANKET,FALSE,,,,,,,127,cotxe,Catalan,Sounds/cat_cotxe.mp3,2020-06-05_15h36.42.777,TranslationElicitation_eng-prolific,3.2.4,Linux x86_64,60,5e811195ec31d30008690bcd,3.951000214,1,0,81,21,1,80
,,,,,,,,,,,,,,,,,,,,,,,,,,,,,,,,,,,,,,,,,,,,,,,,,,,127,cotxe,Catalan,Sounds/cat_cotxe.mp3,2020-06-05_15h36.42.777,TranslationElicitation_eng-prolific,3.2.4,Linux x86_64,60,5e811195ec31d30008690bcd,,1,0,81,21,1,80
,,,,,,,,,,,,,,,,,,,,,,,,,,,,,,,,,,,,,,,,,c,2.834000111,C,FALSE,,,,,,,189,zebra,Catalan,Sounds/cat_zebra.mp3,2020-06-05_15h36.42.777,TranslationElicitation_eng-prolific,3.2.4,Linux x86_64,60,5e811195ec31d30008690bcd,,1,0,81,80,1,80
,,,,,,,,,,,,,,,,,,,,,,,,,,,,,,,,,,,,,,,,,a,3.049999952,CA,FALSE,,,,,,,189,zebra,Catalan,Sounds/cat_zebra.mp3,2020-06-05_15h36.42.777,TranslationElicitation_eng-prolific,3.2.4,Linux x86_64,60,5e811195ec31d30008690bcd,,1,0,81,80,1,80
,,,,,,,,,,,,,,,,,,,,,,,,,,,,,,,,,,,,,,,,,m,3.184000015,CAM,FALSE,,,,,,,189,zebra,Catalan,Sounds/cat_zebra.mp3,2020-06-05_15h36.42.777,TranslationElicitation_eng-prolific,3.2.4,Linux x86_64,60,5e811195ec31d30008690bcd,,1,0,81,80,1,80
,,,,,,,,,,,,,,,,,,,,,,,,,,,,,,,,,,,,,,,,,e,3.335000038,CAME,FALSE,,,,,,,189,zebra,Catalan,Sounds/cat_zebra.mp3,2020-06-05_15h36.42.777,TranslationElicitation_eng-prolific,3.2.4,Linux x86_64,60,5e811195ec31d30008690bcd,,1,0,81,80,1,80
,,,,,,,,,,,,,,,,,,,,,,,,,,,,,,,,,,,,,,,,,r,3.817000151,CAMER,FALSE,,,,,,,189,zebra,Catalan,Sounds/cat_zebra.mp3,2020-06-05_15h36.42.777,TranslationElicitation_eng-prolific,3.2.4,Linux x86_64,60,5e811195ec31d30008690bcd,,1,0,81,80,1,80
,,,,,,,,,,,,,,,,,,,,,,,,,,,,,,,,,,,,,,,,,a,4.101999998,CAMERA,FALSE,,,,,,,189,zebra,Catalan,Sounds/cat_zebra.mp3,2020-06-05_15h36.42.777,TranslationElicitation_eng-prolific,3.2.4,Linux x86_64,60,5e811195ec31d30008690bcd,,1,0,81,80,1,80
,,,,,,,,,,,,,,,,,,,,,,,,,,,,,,,,,,,,,,,,,return,4.289000034,CAMERA,FALSE,,,,,,,189,zebra,Catalan,Sounds/cat_zebra.mp3,2020-06-05_15h36.42.777,TranslationElicitation_eng-prolific,3.2.4,Linux x86_64,60,5e811195ec31d30008690bcd,4.289000034,1,0,81,80,1,80
,,,,,,,,,,,,,,,,,,,,,,,,,,,,,,,,,,,,,,,,,,,,,,,,,,,189,zebra,Catalan,Sounds/cat_zebra.mp3,2020-06-05_15h36.42.777,TranslationElicitation_eng-prolific,3.2.4,Linux x86_64,60,5e811195ec31d30008690bcd,,1,0,81,80,1,80
,,,,,,,,,,,,,,,,,,,,,,,,,,,,,,,,,,,,,,,,,c,5.53399992,C,FALSE,,,,,,,182,tomaquet,Catalan,Sounds/cat_tomaquet.mp3,2020-06-05_15h36.42.777,TranslationElicitation_eng-prolific,3.2.4,Linux x86_64,60,5e811195ec31d30008690bcd,,1,0,81,73,1,80
,,,,,,,,,,,,,,,,,,,,,,,,,,,,,,,,,,,,,,,,,backspace,5.80099988,,TRUE,,,,,,,182,tomaquet,Catalan,Sounds/cat_tomaquet.mp3,2020-06-05_15h36.42.777,TranslationElicitation_eng-prolific,3.2.4,Linux x86_64,60,5e811195ec31d30008690bcd,,1,0,81,73,1,80
,,,,,,,,,,,,,,,,,,,,,,,,,,,,,,,,,,,,,,,,,t,6.05099988,T,TRUE,,,,,,,182,tomaquet,Catalan,Sounds/cat_tomaquet.mp3,2020-06-05_15h36.42.777,TranslationElicitation_eng-prolific,3.2.4,Linux x86_64,60,5e811195ec31d30008690bcd,,1,0,81,73,1,80
,,,,,,,,,,,,,,,,,,,,,,,,,,,,,,,,,,,,,,,,,o,6.217999935,TO,TRUE,,,,,,,182,tomaquet,Catalan,Sounds/cat_tomaquet.mp3,2020-06-05_15h36.42.777,TranslationElicitation_eng-prolific,3.2.4,Linux x86_64,60,5e811195ec31d30008690bcd,,1,0,81,73,1,80
,,,,,,,,,,,,,,,,,,,,,,,,,,,,,,,,,,,,,,,,,m,6.440999985,TOM,TRUE,,,,,,,182,tomaquet,Catalan,Sounds/cat_tomaquet.mp3,2020-06-05_15h36.42.777,TranslationElicitation_eng-prolific,3.2.4,Linux x86_64,60,5e811195ec31d30008690bcd,,1,0,81,73,1,80
,,,,,,,,,,,,,,,,,,,,,,,,,,,,,,,,,,,,,,,,,space,6.551999807,TOM ,TRUE,,,,,,,182,tomaquet,Catalan,Sounds/cat_tomaquet.mp3,2020-06-05_15h36.42.777,TranslationElicitation_eng-prolific,3.2.4,Linux x86_64,60,5e811195ec31d30008690bcd,,1,0,81,73,1,80
,,,,,,,,,,,,,,,,,,,,,,,,,,,,,,,,,,,,,,,,,c,6.700999975,TOM C,TRUE,,,,,,,182,tomaquet,Catalan,Sounds/cat_tomaquet.mp3,2020-06-05_15h36.42.777,TranslationElicitation_eng-prolific,3.2.4,Linux x86_64,60,5e811195ec31d30008690bcd,,1,0,81,73,1,80
,,,,,,,,,,,,,,,,,,,,,,,,,,,,,,,,,,,,,,,,,a,6.901000023,TOM CA,TRUE,,,,,,,182,tomaquet,Catalan,Sounds/cat_tomaquet.mp3,2020-06-05_15h36.42.777,TranslationElicitation_eng-prolific,3.2.4,Linux x86_64,60,5e811195ec31d30008690bcd,,1,0,81,73,1,80
,,,,,,,,,,,,,,,,,,,,,,,,,,,,,,,,,,,,,,,,,t,7.001999855,TOM CAT,TRUE,,,,,,,182,tomaquet,Catalan,Sounds/cat_tomaquet.mp3,2020-06-05_15h36.42.777,TranslationElicitation_eng-prolific,3.2.4,Linux x86_64,60,5e811195ec31d30008690bcd,,1,0,81,73,1,80
,,,,,,,,,,,,,,,,,,,,,,,,,,,,,,,,,,,,,,,,,return,7.767999887,TOM CAT,TRUE,,,,,,,182,tomaquet,Catalan,Sounds/cat_tomaquet.mp3,2020-06-05_15h36.42.777,TranslationElicitation_eng-prolific,3.2.4,Linux x86_64,60,5e811195ec31d30008690bcd,7.767999887,1,0,81,73,1,80
,,,,,,,,,,,,,,,,,,,,,,,,,,,,,,,,,,,,,,,,,,,,,,,,,,,182,tomaquet,Catalan,Sounds/cat_tomaquet.mp3,2020-06-05_15h36.42.777,TranslationElicitation_eng-prolific,3.2.4,Linux x86_64,60,5e811195ec31d30008690bcd,,1,0,81,73,1,80
,,,,,,,,,,,,,,,,,,,,,,,,,,,,,,,,,,,,,,,,,f,1.569999933,F,FALSE,,,,,,,134,flor,Catalan,Sounds/cat_flor.mp3,2020-06-05_15h36.42.777,TranslationElicitation_eng-prolific,3.2.4,Linux x86_64,60,5e811195ec31d30008690bcd,,1,0,81,28,1,80
,,,,,,,,,,,,,,,,,,,,,,,,,,,,,,,,,,,,,,,,,l,1.667000055,FL,FALSE,,,,,,,134,flor,Catalan,Sounds/cat_flor.mp3,2020-06-05_15h36.42.777,TranslationElicitation_eng-prolific,3.2.4,Linux x86_64,60,5e811195ec31d30008690bcd,,1,0,81,28,1,80
,,,,,,,,,,,,,,,,,,,,,,,,,,,,,,,,,,,,,,,,,o,1.816999912,FLO,FALSE,,,,,,,134,flor,Catalan,Sounds/cat_flor.mp3,2020-06-05_15h36.42.777,TranslationElicitation_eng-prolific,3.2.4,Linux x86_64,60,5e811195ec31d30008690bcd,,1,0,81,28,1,80
,,,,,,,,,,,,,,,,,,,,,,,,,,,,,,,,,,,,,,,,,w,1.934000015,FLOW,FALSE,,,,,,,134,flor,Catalan,Sounds/cat_flor.mp3,2020-06-05_15h36.42.777,TranslationElicitation_eng-prolific,3.2.4,Linux x86_64,60,5e811195ec31d30008690bcd,,1,0,81,28,1,80
,,,,,,,,,,,,,,,,,,,,,,,,,,,,,,,,,,,,,,,,,e,2.140000105,FLOWE,FALSE,,,,,,,134,flor,Catalan,Sounds/cat_flor.mp3,2020-06-05_15h36.42.777,TranslationElicitation_eng-prolific,3.2.4,Linux x86_64,60,5e811195ec31d30008690bcd,,1,0,81,28,1,80
,,,,,,,,,,,,,,,,,,,,,,,,,,,,,,,,,,,,,,,,,r,2.289999962,FLOWER,FALSE,,,,,,,134,flor,Catalan,Sounds/cat_flor.mp3,2020-06-05_15h36.42.777,TranslationElicitation_eng-prolific,3.2.4,Linux x86_64,60,5e811195ec31d30008690bcd,,1,0,81,28,1,80
,,,,,,,,,,,,,,,,,,,,,,,,,,,,,,,,,,,,,,,,,return,2.421000004,FLOWER,FALSE,,,,,,,134,flor,Catalan,Sounds/cat_flor.mp3,2020-06-05_15h36.42.777,TranslationElicitation_eng-prolific,3.2.4,Linux x86_64,60,5e811195ec31d30008690bcd,2.421000004,1,0,81,28,1,80
,,,,,,,,,,,,,,,,,,,,,,,,,,,,,,,,,,,,,,,,,,,,,,,,,,,134,flor,Catalan,Sounds/cat_flor.mp3,2020-06-05_15h36.42.777,TranslationElicitation_eng-prolific,3.2.4,Linux x86_64,60,5e811195ec31d30008690bcd,,1,0,81,28,1,80
,,,,,,,,,,,,,,,,,,,,,,,,,,,,,,,,,,,,,,,,,d,5.901000023,D,FALSE,,,,,,,172,poma,Catalan,Sounds/cat_poma.mp3,2020-06-05_15h36.42.777,TranslationElicitation_eng-prolific,3.2.4,Linux x86_64,60,5e811195ec31d30008690bcd,,1,0,81,64,1,80
,,,,,,,,,,,,,,,,,,,,,,,,,,,,,,,,,,,,,,,,,o,6.017999887,DO,FALSE,,,,,,,172,poma,Catalan,Sounds/cat_poma.mp3,2020-06-05_15h36.42.777,TranslationElicitation_eng-prolific,3.2.4,Linux x86_64,60,5e811195ec31d30008690bcd,,1,0,81,64,1,80
,,,,,,,,,,,,,,,,,,,,,,,,,,,,,,,,,,,,,,,,,g,6.116999865,DOG,FALSE,,,,,,,172,poma,Catalan,Sounds/cat_poma.mp3,2020-06-05_15h36.42.777,TranslationElicitation_eng-prolific,3.2.4,Linux x86_64,60,5e811195ec31d30008690bcd,,1,0,81,64,1,80
,,,,,,,,,,,,,,,,,,,,,,,,,,,,,,,,,,,,,,,,,return,6.302000046,DOG,FALSE,,,,,,,172,poma,Catalan,Sounds/cat_poma.mp3,2020-06-05_15h36.42.777,TranslationElicitation_eng-prolific,3.2.4,Linux x86_64,60,5e811195ec31d30008690bcd,6.302000046,1,0,81,64,1,80
,,,,,,,,,,,,,,,,,,,,,,,,,,,,,,,,,,,,,,,,,,,,,,,,,,,172,poma,Catalan,Sounds/cat_poma.mp3,2020-06-05_15h36.42.777,TranslationElicitation_eng-prolific,3.2.4,Linux x86_64,60,5e811195ec31d30008690bcd,,1,0,81,64,1,80
,,,,,,,,,,,,,,,,,,,,,,,,,,,,,,,,,,,,,,,,,s,4.516000032,S,FALSE,,,,,,,176,samarreta,Catalan,Sounds/cat_samarreta.mp3,2020-06-05_15h36.42.777,TranslationElicitation_eng-prolific,3.2.4,Linux x86_64,60,5e811195ec31d30008690bcd,,1,0,81,68,1,80
,,,,,,,,,,,,,,,,,,,,,,,,,,,,,,,,,,,,,,,,,o,4.599999905,SO,FALSE,,,,,,,176,samarreta,Catalan,Sounds/cat_samarreta.mp3,2020-06-05_15h36.42.777,TranslationElicitation_eng-prolific,3.2.4,Linux x86_64,60,5e811195ec31d30008690bcd,,1,0,81,68,1,80
,,,,,,,,,,,,,,,,,,,,,,,,,,,,,,,,,,,,,,,,,m,4.799999952,SOM,FALSE,,,,,,,176,samarreta,Catalan,Sounds/cat_samarreta.mp3,2020-06-05_15h36.42.777,TranslationElicitation_eng-prolific,3.2.4,Linux x86_64,60,5e811195ec31d30008690bcd,,1,0,81,68,1,80
,,,,,,,,,,,,,,,,,,,,,,,,,,,,,,,,,,,,,,,,,b,5.083999872,SOMB,FALSE,,,,,,,176,samarreta,Catalan,Sounds/cat_samarreta.mp3,2020-06-05_15h36.42.777,TranslationElicitation_eng-prolific,3.2.4,Linux x86_64,60,5e811195ec31d30008690bcd,,1,0,81,68,1,80
,,,,,,,,,,,,,,,,,,,,,,,,,,,,,,,,,,,,,,,,,r,5.26699996,SOMBR,FALSE,,,,,,,176,samarreta,Catalan,Sounds/cat_samarreta.mp3,2020-06-05_15h36.42.777,TranslationElicitation_eng-prolific,3.2.4,Linux x86_64,60,5e811195ec31d30008690bcd,,1,0,81,68,1,80
,,,,,,,,,,,,,,,,,,,,,,,,,,,,,,,,,,,,,,,,,e,5.465999842,SOMBRE,FALSE,,,,,,,176,samarreta,Catalan,Sounds/cat_samarreta.mp3,2020-06-05_15h36.42.777,TranslationElicitation_eng-prolific,3.2.4,Linux x86_64,60,5e811195ec31d30008690bcd,,1,0,81,68,1,80
,,,,,,,,,,,,,,,,,,,,,,,,,,,,,,,,,,,,,,,,,o,5.926999807,SOMBREO,FALSE,,,,,,,176,samarreta,Catalan,Sounds/cat_samarreta.mp3,2020-06-05_15h36.42.777,TranslationElicitation_eng-prolific,3.2.4,Linux x86_64,60,5e811195ec31d30008690bcd,,1,0,81,68,1,80
,,,,,,,,,,,,,,,,,,,,,,,,,,,,,,,,,,,,,,,,,r,6.069000006,SOMBREOR,FALSE,,,,,,,176,samarreta,Catalan,Sounds/cat_samarreta.mp3,2020-06-05_15h36.42.777,TranslationElicitation_eng-prolific,3.2.4,Linux x86_64,60,5e811195ec31d30008690bcd,,1,0,81,68,1,80
,,,,,,,,,,,,,,,,,,,,,,,,,,,,,,,,,,,,,,,,,backspace,6.689999819,SOMBREO,TRUE,,,,,,,176,samarreta,Catalan,Sounds/cat_samarreta.mp3,2020-06-05_15h36.42.777,TranslationElicitation_eng-prolific,3.2.4,Linux x86_64,60,5e811195ec31d30008690bcd,,1,0,81,68,1,80
,,,,,,,,,,,,,,,,,,,,,,,,,,,,,,,,,,,,,,,,,backspace,6.835000038,SOMBRE,TRUE,,,,,,,176,samarreta,Catalan,Sounds/cat_samarreta.mp3,2020-06-05_15h36.42.777,TranslationElicitation_eng-prolific,3.2.4,Linux x86_64,60,5e811195ec31d30008690bcd,,1,0,81,68,1,80
,,,,,,,,,,,,,,,,,,,,,,,,,,,,,,,,,,,,,,,,,backspace,7.316999912,SOMBR,TRUE,,,,,,,176,samarreta,Catalan,Sounds/cat_samarreta.mp3,2020-06-05_15h36.42.777,TranslationElicitation_eng-prolific,3.2.4,Linux x86_64,60,5e811195ec31d30008690bcd,,1,0,81,68,1,80
,,,,,,,,,,,,,,,,,,,,,,,,,,,,,,,,,,,,,,,,,backspace,7.368000031,SOMB,TRUE,,,,,,,176,samarreta,Catalan,Sounds/cat_samarreta.mp3,2020-06-05_15h36.42.777,TranslationElicitation_eng-prolific,3.2.4,Linux x86_64,60,5e811195ec31d30008690bcd,,1,0,81,68,1,80
,,,,,,,,,,,,,,,,,,,,,,,,,,,,,,,,,,,,,,,,,backspace,7.417999983,SOM,TRUE,,,,,,,176,samarreta,Catalan,Sounds/cat_samarreta.mp3,2020-06-05_15h36.42.777,TranslationElicitation_eng-prolific,3.2.4,Linux x86_64,60,5e811195ec31d30008690bcd,,1,0,81,68,1,80
,,,,,,,,,,,,,,,,,,,,,,,,,,,,,,,,,,,,,,,,,backspace,7.507999897,SO,TRUE,,,,,,,176,samarreta,Catalan,Sounds/cat_samarreta.mp3,2020-06-05_15h36.42.777,TranslationElicitation_eng-prolific,3.2.4,Linux x86_64,60,5e811195ec31d30008690bcd,,1,0,81,68,1,80
,,,,,,,,,,,,,,,,,,,,,,,,,,,,,,,,,,,,,,,,,backspace,7.519999981,S,TRUE,,,,,,,176,samarreta,Catalan,Sounds/cat_samarreta.mp3,2020-06-05_15h36.42.777,TranslationElicitation_eng-prolific,3.2.4,Linux x86_64,60,5e811195ec31d30008690bcd,,1,0,81,68,1,80
,,,,,,,,,,,,,,,,,,,,,,,,,,,,,,,,,,,,,,,,,backspace,7.632999897,,TRUE,,,,,,,176,samarreta,Catalan,Sounds/cat_samarreta.mp3,2020-06-05_15h36.42.777,TranslationElicitation_eng-prolific,3.2.4,Linux x86_64,60,5e811195ec31d30008690bcd,,1,0,81,68,1,80
,,,,,,,,,,,,,,,,,,,,,,,,,,,,,,,,,,,,,,,,,backspace,7.67599988,,TRUE,,,,,,,176,samarreta,Catalan,Sounds/cat_samarreta.mp3,2020-06-05_15h36.42.777,TranslationElicitation_eng-prolific,3.2.4,Linux x86_64,60,5e811195ec31d30008690bcd,,1,0,81,68,1,80
,,,,,,,,,,,,,,,,,,,,,,,,,,,,,,,,,,,,,,,,,s,8.149999857,S,TRUE,,,,,,,176,samarreta,Catalan,Sounds/cat_samarreta.mp3,2020-06-05_15h36.42.777,TranslationElicitation_eng-prolific,3.2.4,Linux x86_64,60,5e811195ec31d30008690bcd,,1,0,81,68,1,80
,,,,,,,,,,,,,,,,,,,,,,,,,,,,,,,,,,,,,,,,,u,8.25,SU,TRUE,,,,,,,176,samarreta,Catalan,Sounds/cat_samarreta.mp3,2020-06-05_15h36.42.777,TranslationElicitation_eng-prolific,3.2.4,Linux x86_64,60,5e811195ec31d30008690bcd,,1,0,81,68,1,80
,,,,,,,,,,,,,,,,,,,,,,,,,,,,,,,,,,,,,,,,,n,8.416999817,SUN,TRUE,,,,,,,176,samarreta,Catalan,Sounds/cat_samarreta.mp3,2020-06-05_15h36.42.777,TranslationElicitation_eng-prolific,3.2.4,Linux x86_64,60,5e811195ec31d30008690bcd,,1,0,81,68,1,80
,,,,,,,,,,,,,,,,,,,,,,,,,,,,,,,,,,,,,,,,,space,8.51699996,SUN ,TRUE,,,,,,,176,samarreta,Catalan,Sounds/cat_samarreta.mp3,2020-06-05_15h36.42.777,TranslationElicitation_eng-prolific,3.2.4,Linux x86_64,60,5e811195ec31d30008690bcd,,1,0,81,68,1,80
,,,,,,,,,,,,,,,,,,,,,,,,,,,,,,,,,,,,,,,,,h,8.651000023,SUN H,TRUE,,,,,,,176,samarreta,Catalan,Sounds/cat_samarreta.mp3,2020-06-05_15h36.42.777,TranslationElicitation_eng-prolific,3.2.4,Linux x86_64,60,5e811195ec31d30008690bcd,,1,0,81,68,1,80
,,,,,,,,,,,,,,,,,,,,,,,,,,,,,,,,,,,,,,,,,a,8.699999809,SUN HA,TRUE,,,,,,,176,samarreta,Catalan,Sounds/cat_samarreta.mp3,2020-06-05_15h36.42.777,TranslationElicitation_eng-prolific,3.2.4,Linux x86_64,60,5e811195ec31d30008690bcd,,1,0,81,68,1,80
,,,,,,,,,,,,,,,,,,,,,,,,,,,,,,,,,,,,,,,,,t,8.905999899,SUN HAT,TRUE,,,,,,,176,samarreta,Catalan,Sounds/cat_samarreta.mp3,2020-06-05_15h36.42.777,TranslationElicitation_eng-prolific,3.2.4,Linux x86_64,60,5e811195ec31d30008690bcd,,1,0,81,68,1,80
,,,,,,,,,,,,,,,,,,,,,,,,,,,,,,,,,,,,,,,,,return,9.190999985,SUN HAT,TRUE,,,,,,,176,samarreta,Catalan,Sounds/cat_samarreta.mp3,2020-06-05_15h36.42.777,TranslationElicitation_eng-prolific,3.2.4,Linux x86_64,60,5e811195ec31d30008690bcd,9.190999985,1,0,81,68,1,80
,,,,,,,,,,,,,,,,,,,,,,,,,,,,,,,,,,,,,,,,,,,,,,,,,,,176,samarreta,Catalan,Sounds/cat_samarreta.mp3,2020-06-05_15h36.42.777,TranslationElicitation_eng-prolific,3.2.4,Linux x86_64,60,5e811195ec31d30008690bcd,,1,0,81,68,1,80
,,,,,,,,,,,,,,,,,,,,,,,,,,,,,,,,,,,,,,,,,return,8.149999857,,FALSE,,,,,,,171,pollastre,Catalan,Sounds/cat_pollastre.mp3,2020-06-05_15h36.42.777,TranslationElicitation_eng-prolific,3.2.4,Linux x86_64,60,5e811195ec31d30008690bcd,8.149999857,1,0,81,63,1,80
,,,,,,,,,,,,,,,,,,,,,,,,,,,,,,,,,,,,,,,,,,,,,,,,,,,171,pollastre,Catalan,Sounds/cat_pollastre.mp3,2020-06-05_15h36.42.777,TranslationElicitation_eng-prolific,3.2.4,Linux x86_64,60,5e811195ec31d30008690bcd,,1,0,81,63,1,80
,,,,,,,,,,,,,,,,,,,,,,,,,,,,,,,,,,,,,,,,,p,1.98300004,P,FALSE,,,,,,,169,plat,Catalan,Sounds/cat_plat.mp3,2020-06-05_15h36.42.777,TranslationElicitation_eng-prolific,3.2.4,Linux x86_64,60,5e811195ec31d30008690bcd,,1,0,81,61,1,80
,,,,,,,,,,,,,,,,,,,,,,,,,,,,,,,,,,,,,,,,,l,2.166999817,PL,FALSE,,,,,,,169,plat,Catalan,Sounds/cat_plat.mp3,2020-06-05_15h36.42.777,TranslationElicitation_eng-prolific,3.2.4,Linux x86_64,60,5e811195ec31d30008690bcd,,1,0,81,61,1,80
,,,,,,,,,,,,,,,,,,,,,,,,,,,,,,,,,,,,,,,,,a,2.333999872,PLA,FALSE,,,,,,,169,plat,Catalan,Sounds/cat_plat.mp3,2020-06-05_15h36.42.777,TranslationElicitation_eng-prolific,3.2.4,Linux x86_64,60,5e811195ec31d30008690bcd,,1,0,81,61,1,80
,,,,,,,,,,,,,,,,,,,,,,,,,,,,,,,,,,,,,,,,,i,2.472999811,PLAI,FALSE,,,,,,,169,plat,Catalan,Sounds/cat_plat.mp3,2020-06-05_15h36.42.777,TranslationElicitation_eng-prolific,3.2.4,Linux x86_64,60,5e811195ec31d30008690bcd,,1,0,81,61,1,80
,,,,,,,,,,,,,,,,,,,,,,,,,,,,,,,,,,,,,,,,,t,2.600999832,PLAIT,FALSE,,,,,,,169,plat,Catalan,Sounds/cat_plat.mp3,2020-06-05_15h36.42.777,TranslationElicitation_eng-prolific,3.2.4,Linux x86_64,60,5e811195ec31d30008690bcd,,1,0,81,61,1,80
,,,,,,,,,,,,,,,,,,,,,,,,,,,,,,,,,,,,,,,,,return,3.01699996,PLAIT,FALSE,,,,,,,169,plat,Catalan,Sounds/cat_plat.mp3,2020-06-05_15h36.42.777,TranslationElicitation_eng-prolific,3.2.4,Linux x86_64,60,5e811195ec31d30008690bcd,3.01699996,1,0,81,61,1,80
,,,,,,,,,,,,,,,,,,,,,,,,,,,,,,,,,,,,,,,,,,,,,,,,,,,169,plat,Catalan,Sounds/cat_plat.mp3,2020-06-05_15h36.42.777,TranslationElicitation_eng-prolific,3.2.4,Linux x86_64,60,5e811195ec31d30008690bcd,,1,0,81,61,1,80
,,,,,,,,,,,,,,,,,,,,,,,,,,,,,,,,,,,,,,,,,b,1.684000015,B,FALSE,,,,,,,118,bou,Catalan,Sounds/cat_bou.mp3,2020-06-05_15h36.42.777,TranslationElicitation_eng-prolific,3.2.4,Linux x86_64,60,5e811195ec31d30008690bcd,,1,0,81,13,1,80
,,,,,,,,,,,,,,,,,,,,,,,,,,,,,,,,,,,,,,,,,o,1.866999865,BO,FALSE,,,,,,,118,bou,Catalan,Sounds/cat_bou.mp3,2020-06-05_15h36.42.777,TranslationElicitation_eng-prolific,3.2.4,Linux x86_64,60,5e811195ec31d30008690bcd,,1,0,81,13,1,80
,,,,,,,,,,,,,,,,,,,,,,,,,,,,,,,,,,,,,,,,,w,1.983999968,BOW,FALSE,,,,,,,118,bou,Catalan,Sounds/cat_bou.mp3,2020-06-05_15h36.42.777,TranslationElicitation_eng-prolific,3.2.4,Linux x86_64,60,5e811195ec31d30008690bcd,,1,0,81,13,1,80
,,,,,,,,,,,,,,,,,,,,,,,,,,,,,,,,,,,,,,,,,l,2.083999872,BOWL,FALSE,,,,,,,118,bou,Catalan,Sounds/cat_bou.mp3,2020-06-05_15h36.42.777,TranslationElicitation_eng-prolific,3.2.4,Linux x86_64,60,5e811195ec31d30008690bcd,,1,0,81,13,1,80
,,,,,,,,,,,,,,,,,,,,,,,,,,,,,,,,,,,,,,,,,return,2.319000006,BOWL,FALSE,,,,,,,118,bou,Catalan,Sounds/cat_bou.mp3,2020-06-05_15h36.42.777,TranslationElicitation_eng-prolific,3.2.4,Linux x86_64,60,5e811195ec31d30008690bcd,2.319000006,1,0,81,13,1,80
,,,,,,,,,,,,,,,,,,,,,,,,,,,,,,,,,,,,,,,,,,,,,,,,,,,118,bou,Catalan,Sounds/cat_bou.mp3,2020-06-05_15h36.42.777,TranslationElicitation_eng-prolific,3.2.4,Linux x86_64,60,5e811195ec31d30008690bcd,,1,0,81,13,1,80
,,,,,,,,,,,,,,,,,,,,,,,,,,,,,,,,,,,,,,,,,b,1.782999992,B,FALSE,,,,,,,114,bol,Catalan,Sounds/cat_bol.mp3,2020-06-05_15h36.42.777,TranslationElicitation_eng-prolific,3.2.4,Linux x86_64,60,5e811195ec31d30008690bcd,,1,0,81,9,1,80
,,,,,,,,,,,,,,,,,,,,,,,,,,,,,,,,,,,,,,,,,o,1.982999802,BO,FALSE,,,,,,,114,bol,Catalan,Sounds/cat_bol.mp3,2020-06-05_15h36.42.777,TranslationElicitation_eng-prolific,3.2.4,Linux x86_64,60,5e811195ec31d30008690bcd,,1,0,81,9,1,80
,,,,,,,,,,,,,,,,,,,,,,,,,,,,,,,,,,,,,,,,,w,2.098999977,BOW,FALSE,,,,,,,114,bol,Catalan,Sounds/cat_bol.mp3,2020-06-05_15h36.42.777,TranslationElicitation_eng-prolific,3.2.4,Linux x86_64,60,5e811195ec31d30008690bcd,,1,0,81,9,1,80
,,,,,,,,,,,,,,,,,,,,,,,,,,,,,,,,,,,,,,,,,l,2.215999842,BOWL,FALSE,,,,,,,114,bol,Catalan,Sounds/cat_bol.mp3,2020-06-05_15h36.42.777,TranslationElicitation_eng-prolific,3.2.4,Linux x86_64,60,5e811195ec31d30008690bcd,,1,0,81,9,1,80
,,,,,,,,,,,,,,,,,,,,,,,,,,,,,,,,,,,,,,,,,return,2.566999912,BOWL,FALSE,,,,,,,114,bol,Catalan,Sounds/cat_bol.mp3,2020-06-05_15h36.42.777,TranslationElicitation_eng-prolific,3.2.4,Linux x86_64,60,5e811195ec31d30008690bcd,2.566999912,1,0,81,9,1,80
,,,,,,,,,,,,,,,,,,,,,,,,,,,,,,,,,,,,,,,,,,,,,,,,,,,114,bol,Catalan,Sounds/cat_bol.mp3,2020-06-05_15h36.42.777,TranslationElicitation_eng-prolific,3.2.4,Linux x86_64,60,5e811195ec31d30008690bcd,,1,0,81,9,1,80
,,,,,,,,,,,,,,,,,,,,,,,,,,,,,,,,,,,,,,,,,return,2.900999784,,FALSE,,,,,,,151,lluna,Catalan,Sounds/cat_lluna.mp3,2020-06-05_15h36.42.777,TranslationElicitation_eng-prolific,3.2.4,Linux x86_64,60,5e811195ec31d30008690bcd,2.900999784,1,0,81,44,1,80
,,,,,,,,,,,,,,,,,,,,,,,,,,,,,,,,,,,,,,,,,,,,,,,,,,,151,lluna,Catalan,Sounds/cat_lluna.mp3,2020-06-05_15h36.42.777,TranslationElicitation_eng-prolific,3.2.4,Linux x86_64,60,5e811195ec31d30008690bcd,,1,0,81,44,1,80
,,,,,,,,,,,,,,,,,,,,,,,,,,,,,,,,,,,,,,,,,return,5.550000191,,FALSE,,,,,,,104,abella,Catalan,Sounds/cat_abella.mp3,2020-06-05_15h36.42.777,TranslationElicitation_eng-prolific,3.2.4,Linux x86_64,60,5e811195ec31d30008690bcd,5.550000191,1,0,81,0,1,80
,,,,,,,,,,,,,,,,,,,,,,,,,,,,,,,,,,,,,,,,,,,,,,,,,,,104,abella,Catalan,Sounds/cat_abella.mp3,2020-06-05_15h36.42.777,TranslationElicitation_eng-prolific,3.2.4,Linux x86_64,60,5e811195ec31d30008690bcd,,1,0,81,0,1,80
,,,,,,,,,,,,,,,,,,,,,,,,,,,,,,,,,,,,,,,,,t,2.348999977,T,FALSE,,,,,,,121,camisa,Catalan,Sounds/cat_camisa.mp3,2020-06-05_15h36.42.777,TranslationElicitation_eng-prolific,3.2.4,Linux x86_64,60,5e811195ec31d30008690bcd,,1,0,81,16,1,80
,,,,,,,,,,,,,,,,,,,,,,,,,,,,,,,,,,,,,,,,,s,2.598999977,TS,FALSE,,,,,,,121,camisa,Catalan,Sounds/cat_camisa.mp3,2020-06-05_15h36.42.777,TranslationElicitation_eng-prolific,3.2.4,Linux x86_64,60,5e811195ec31d30008690bcd,,1,0,81,16,1,80
,,,,,,,,,,,,,,,,,,,,,,,,,,,,,,,,,,,,,,,,,h,2.683000088,TSH,FALSE,,,,,,,121,camisa,Catalan,Sounds/cat_camisa.mp3,2020-06-05_15h36.42.777,TranslationElicitation_eng-prolific,3.2.4,Linux x86_64,60,5e811195ec31d30008690bcd,,1,0,81,16,1,80
,,,,,,,,,,,,,,,,,,,,,,,,,,,,,,,,,,,,,,,,,i,2.833000183,TSHI,FALSE,,,,,,,121,camisa,Catalan,Sounds/cat_camisa.mp3,2020-06-05_15h36.42.777,TranslationElicitation_eng-prolific,3.2.4,Linux x86_64,60,5e811195ec31d30008690bcd,,1,0,81,16,1,80
,,,,,,,,,,,,,,,,,,,,,,,,,,,,,,,,,,,,,,,,,r,2.899000168,TSHIR,FALSE,,,,,,,121,camisa,Catalan,Sounds/cat_camisa.mp3,2020-06-05_15h36.42.777,TranslationElicitation_eng-prolific,3.2.4,Linux x86_64,60,5e811195ec31d30008690bcd,,1,0,81,16,1,80
,,,,,,,,,,,,,,,,,,,,,,,,,,,,,,,,,,,,,,,,,t,3.065999985,TSHIRT,FALSE,,,,,,,121,camisa,Catalan,Sounds/cat_camisa.mp3,2020-06-05_15h36.42.777,TranslationElicitation_eng-prolific,3.2.4,Linux x86_64,60,5e811195ec31d30008690bcd,,1,0,81,16,1,80
,,,,,,,,,,,,,,,,,,,,,,,,,,,,,,,,,,,,,,,,,return,3.551000118,TSHIRT,FALSE,,,,,,,121,camisa,Catalan,Sounds/cat_camisa.mp3,2020-06-05_15h36.42.777,TranslationElicitation_eng-prolific,3.2.4,Linux x86_64,60,5e811195ec31d30008690bcd,3.551000118,1,0,81,16,1,80
,,,,,,,,,,,,,,,,,,,,,,,,,,,,,,,,,,,,,,,,,,,,,,,,,,,121,camisa,Catalan,Sounds/cat_camisa.mp3,2020-06-05_15h36.42.777,TranslationElicitation_eng-prolific,3.2.4,Linux x86_64,60,5e811195ec31d30008690bcd,,1,0,81,16,1,80
,,,,,,,,,,,,,,,,,,,,,,,,,,,,,,,,,,,,,,,,,b,1.900000095,B,FALSE,,,,,,,116,bolquer,Catalan,Sounds/cat_bolquer.mp3,2020-06-05_15h36.42.777,TranslationElicitation_eng-prolific,3.2.4,Linux x86_64,60,5e811195ec31d30008690bcd,,1,0,81,11,1,80
,,,,,,,,,,,,,,,,,,,,,,,,,,,,,,,,,,,,,,,,,o,2.25,BO,FALSE,,,,,,,116,bolquer,Catalan,Sounds/cat_bolquer.mp3,2020-06-05_15h36.42.777,TranslationElicitation_eng-prolific,3.2.4,Linux x86_64,60,5e811195ec31d30008690bcd,,1,0,81,11,1,80
,,,,,,,,,,,,,,,,,,,,,,,,,,,,,,,,,,,,,,,,,u,2.499000072,BOU,FALSE,,,,,,,116,bolquer,Catalan,Sounds/cat_bolquer.mp3,2020-06-05_15h36.42.777,TranslationElicitation_eng-prolific,3.2.4,Linux x86_64,60,5e811195ec31d30008690bcd,,1,0,81,11,1,80
,,,,,,,,,,,,,,,,,,,,,,,,,,,,,,,,,,,,,,,,,q,3.339000225,BOUQ,FALSE,,,,,,,116,bolquer,Catalan,Sounds/cat_bolquer.mp3,2020-06-05_15h36.42.777,TranslationElicitation_eng-prolific,3.2.4,Linux x86_64,60,5e811195ec31d30008690bcd,,1,0,81,11,1,80
,,,,,,,,,,,,,,,,,,,,,,,,,,,,,,,,,,,,,,,,,u,3.498000145,BOUQU,FALSE,,,,,,,116,bolquer,Catalan,Sounds/cat_bolquer.mp3,2020-06-05_15h36.42.777,TranslationElicitation_eng-prolific,3.2.4,Linux x86_64,60,5e811195ec31d30008690bcd,,1,0,81,11,1,80
,,,,,,,,,,,,,,,,,,,,,,,,,,,,,,,,,,,,,,,,,e,3.584000111,BOUQUE,FALSE,,,,,,,116,bolquer,Catalan,Sounds/cat_bolquer.mp3,2020-06-05_15h36.42.777,TranslationElicitation_eng-prolific,3.2.4,Linux x86_64,60,5e811195ec31d30008690bcd,,1,0,81,11,1,80
,,,,,,,,,,,,,,,,,,,,,,,,,,,,,,,,,,,,,,,,,t,3.683000088,BOUQUET,FALSE,,,,,,,116,bolquer,Catalan,Sounds/cat_bolquer.mp3,2020-06-05_15h36.42.777,TranslationElicitation_eng-prolific,3.2.4,Linux x86_64,60,5e811195ec31d30008690bcd,,1,0,81,11,1,80
,,,,,,,,,,,,,,,,,,,,,,,,,,,,,,,,,,,,,,,,,return,4.311000109,BOUQUET,FALSE,,,,,,,116,bolquer,Catalan,Sounds/cat_bolquer.mp3,2020-06-05_15h36.42.777,TranslationElicitation_eng-prolific,3.2.4,Linux x86_64,60,5e811195ec31d30008690bcd,4.311000109,1,0,81,11,1,80
,,,,,,,,,,,,,,,,,,,,,,,,,,,,,,,,,,,,,,,,,,,,,,,,,,,116,bolquer,Catalan,Sounds/cat_bolquer.mp3,2020-06-05_15h36.42.777,TranslationElicitation_eng-prolific,3.2.4,Linux x86_64,60,5e811195ec31d30008690bcd,,1,0,81,11,1,80
,,,,,,,,,,,,,,,,,,,,,,,,,,,,,,,,,,,,,,,,,return,3.651000023,,FALSE,,,,,,,137,fulla,Catalan,Sounds/cat_fulla.mp3,2020-06-05_15h36.42.777,TranslationElicitation_eng-prolific,3.2.4,Linux x86_64,60,5e811195ec31d30008690bcd,3.651000023,1,0,81,31,1,80
,,,,,,,,,,,,,,,,,,,,,,,,,,,,,,,,,,,,,,,,,,,,,,,,,,,137,fulla,Catalan,Sounds/cat_fulla.mp3,2020-06-05_15h36.42.777,TranslationElicitation_eng-prolific,3.2.4,Linux x86_64,60,5e811195ec31d30008690bcd,,1,0,81,31,1,80
,,,,,,,,,,,,,,,,,,,,,,,,,,,,,,,,,,,,,,,,,m,3.432999849,M,FALSE,,,,,,,153,mico,Catalan,Sounds/cat_mico.mp3,2020-06-05_15h36.42.777,TranslationElicitation_eng-prolific,3.2.4,Linux x86_64,60,5e811195ec31d30008690bcd,,1,0,81,46,1,80
,,,,,,,,,,,,,,,,,,,,,,,,,,,,,,,,,,,,,,,,,backspace,3.934999943,,TRUE,,,,,,,153,mico,Catalan,Sounds/cat_mico.mp3,2020-06-05_15h36.42.777,TranslationElicitation_eng-prolific,3.2.4,Linux x86_64,60,5e811195ec31d30008690bcd,,1,0,81,46,1,80
,,,,,,,,,,,,,,,,,,,,,,,,,,,,,,,,,,,,,,,,,c,6.277999878,C,TRUE,,,,,,,153,mico,Catalan,Sounds/cat_mico.mp3,2020-06-05_15h36.42.777,TranslationElicitation_eng-prolific,3.2.4,Linux x86_64,60,5e811195ec31d30008690bcd,,1,0,81,46,1,80
,,,,,,,,,,,,,,,,,,,,,,,,,,,,,,,,,,,,,,,,,h,6.350999832,CH,TRUE,,,,,,,153,mico,Catalan,Sounds/cat_mico.mp3,2020-06-05_15h36.42.777,TranslationElicitation_eng-prolific,3.2.4,Linux x86_64,60,5e811195ec31d30008690bcd,,1,0,81,46,1,80
,,,,,,,,,,,,,,,,,,,,,,,,,,,,,,,,,,,,,,,,,o,6.616999865,CHO,TRUE,,,,,,,153,mico,Catalan,Sounds/cat_mico.mp3,2020-06-05_15h36.42.777,TranslationElicitation_eng-prolific,3.2.4,Linux x86_64,60,5e811195ec31d30008690bcd,,1,0,81,46,1,80
,,,,,,,,,,,,,,,,,,,,,,,,,,,,,,,,,,,,,,,,,c,6.802999973,CHOC,TRUE,,,,,,,153,mico,Catalan,Sounds/cat_mico.mp3,2020-06-05_15h36.42.777,TranslationElicitation_eng-prolific,3.2.4,Linux x86_64,60,5e811195ec31d30008690bcd,,1,0,81,46,1,80
,,,,,,,,,,,,,,,,,,,,,,,,,,,,,,,,,,,,,,,,,o,6.868999958,CHOCO,TRUE,,,,,,,153,mico,Catalan,Sounds/cat_mico.mp3,2020-06-05_15h36.42.777,TranslationElicitation_eng-prolific,3.2.4,Linux x86_64,60,5e811195ec31d30008690bcd,,1,0,81,46,1,80
,,,,,,,,,,,,,,,,,,,,,,,,,,,,,,,,,,,,,,,,,backspace,7.333999872,CHOC,TRUE,,,,,,,153,mico,Catalan,Sounds/cat_mico.mp3,2020-06-05_15h36.42.777,TranslationElicitation_eng-prolific,3.2.4,Linux x86_64,60,5e811195ec31d30008690bcd,,1,0,81,46,1,80
,,,,,,,,,,,,,,,,,,,,,,,,,,,,,,,,,,,,,,,,,backspace,7.467999935,CHO,TRUE,,,,,,,153,mico,Catalan,Sounds/cat_mico.mp3,2020-06-05_15h36.42.777,TranslationElicitation_eng-prolific,3.2.4,Linux x86_64,60,5e811195ec31d30008690bcd,,1,0,81,46,1,80
,,,,,,,,,,,,,,,,,,,,,,,,,,,,,,,,,,,,,,,,,backspace,7.616999865,CH,TRUE,,,,,,,153,mico,Catalan,Sounds/cat_mico.mp3,2020-06-05_15h36.42.777,TranslationElicitation_eng-prolific,3.2.4,Linux x86_64,60,5e811195ec31d30008690bcd,,1,0,81,46,1,80
,,,,,,,,,,,,,,,,,,,,,,,,,,,,,,,,,,,,,,,,,backspace,7.759000063,C,TRUE,,,,,,,153,mico,Catalan,Sounds/cat_mico.mp3,2020-06-05_15h36.42.777,TranslationElicitation_eng-prolific,3.2.4,Linux x86_64,60,5e811195ec31d30008690bcd,,1,0,81,46,1,80
,,,,,,,,,,,,,,,,,,,,,,,,,,,,,,,,,,,,,,,,,backspace,7.894999981,,TRUE,,,,,,,153,mico,Catalan,Sounds/cat_mico.mp3,2020-06-05_15h36.42.777,TranslationElicitation_eng-prolific,3.2.4,Linux x86_64,60,5e811195ec31d30008690bcd,,1,0,81,46,1,80
,,,,,,,,,,,,,,,,,,,,,,,,,,,,,,,,,,,,,,,,,m,8.417999983,M,TRUE,,,,,,,153,mico,Catalan,Sounds/cat_mico.mp3,2020-06-05_15h36.42.777,TranslationElicitation_eng-prolific,3.2.4,Linux x86_64,60,5e811195ec31d30008690bcd,,1,0,81,46,1,80
,,,,,,,,,,,,,,,,,,,,,,,,,,,,,,,,,,,,,,,,,i,8.618000031,MI,TRUE,,,,,,,153,mico,Catalan,Sounds/cat_mico.mp3,2020-06-05_15h36.42.777,TranslationElicitation_eng-prolific,3.2.4,Linux x86_64,60,5e811195ec31d30008690bcd,,1,0,81,46,1,80
,,,,,,,,,,,,,,,,,,,,,,,,,,,,,,,,,,,,,,,,,l,8.80099988,MIL,TRUE,,,,,,,153,mico,Catalan,Sounds/cat_mico.mp3,2020-06-05_15h36.42.777,TranslationElicitation_eng-prolific,3.2.4,Linux x86_64,60,5e811195ec31d30008690bcd,,1,0,81,46,1,80
,,,,,,,,,,,,,,,,,,,,,,,,,,,,,,,,,,,,,,,,,k,8.951999903,MILK,TRUE,,,,,,,153,mico,Catalan,Sounds/cat_mico.mp3,2020-06-05_15h36.42.777,TranslationElicitation_eng-prolific,3.2.4,Linux x86_64,60,5e811195ec31d30008690bcd,,1,0,81,46,1,80
,,,,,,,,,,,,,,,,,,,,,,,,,,,,,,,,,,,,,,,,,space,9.118000031,MILK ,TRUE,,,,,,,153,mico,Catalan,Sounds/cat_mico.mp3,2020-06-05_15h36.42.777,TranslationElicitation_eng-prolific,3.2.4,Linux x86_64,60,5e811195ec31d30008690bcd,,1,0,81,46,1,80
,,,,,,,,,,,,,,,,,,,,,,,,,,,,,,,,,,,,,,,,,c,9.251999855,MILK C,TRUE,,,,,,,153,mico,Catalan,Sounds/cat_mico.mp3,2020-06-05_15h36.42.777,TranslationElicitation_eng-prolific,3.2.4,Linux x86_64,60,5e811195ec31d30008690bcd,,1,0,81,46,1,80
,,,,,,,,,,,,,,,,,,,,,,,,,,,,,,,,,,,,,,,,,h,9.325000048,MILK CH,TRUE,,,,,,,153,mico,Catalan,Sounds/cat_mico.mp3,2020-06-05_15h36.42.777,TranslationElicitation_eng-prolific,3.2.4,Linux x86_64,60,5e811195ec31d30008690bcd,,1,0,81,46,1,80
,,,,,,,,,,,,,,,,,,,,,,,,,,,,,,,,,,,,,,,,,o,10.11100006,MILK CHO,TRUE,,,,,,,153,mico,Catalan,Sounds/cat_mico.mp3,2020-06-05_15h36.42.777,TranslationElicitation_eng-prolific,3.2.4,Linux x86_64,60,5e811195ec31d30008690bcd,,1,0,81,46,1,80
,,,,,,,,,,,,,,,,,,,,,,,,,,,,,,,,,,,,,,,,,c,10.23600006,MILK CHOC,TRUE,,,,,,,153,mico,Catalan,Sounds/cat_mico.mp3,2020-06-05_15h36.42.777,TranslationElicitation_eng-prolific,3.2.4,Linux x86_64,60,5e811195ec31d30008690bcd,,1,0,81,46,1,80
,,,,,,,,,,,,,,,,,,,,,,,,,,,,,,,,,,,,,,,,,o,10.26799989,MILK CHOCO,TRUE,,,,,,,153,mico,Catalan,Sounds/cat_mico.mp3,2020-06-05_15h36.42.777,TranslationElicitation_eng-prolific,3.2.4,Linux x86_64,60,5e811195ec31d30008690bcd,,1,0,81,46,1,80
,,,,,,,,,,,,,,,,,,,,,,,,,,,,,,,,,,,,,,,,,l,10.91100001,MILK CHOCOL,TRUE,,,,,,,153,mico,Catalan,Sounds/cat_mico.mp3,2020-06-05_15h36.42.777,TranslationElicitation_eng-prolific,3.2.4,Linux x86_64,60,5e811195ec31d30008690bcd,,1,0,81,46,1,80
,,,,,,,,,,,,,,,,,,,,,,,,,,,,,,,,,,,,,,,,,a,11.10299993,MILK CHOCOLA,TRUE,,,,,,,153,mico,Catalan,Sounds/cat_mico.mp3,2020-06-05_15h36.42.777,TranslationElicitation_eng-prolific,3.2.4,Linux x86_64,60,5e811195ec31d30008690bcd,,1,0,81,46,1,80
,,,,,,,,,,,,,,,,,,,,,,,,,,,,,,,,,,,,,,,,,t,11.31999993,MILK CHOCOLAT,TRUE,,,,,,,153,mico,Catalan,Sounds/cat_mico.mp3,2020-06-05_15h36.42.777,TranslationElicitation_eng-prolific,3.2.4,Linux x86_64,60,5e811195ec31d30008690bcd,,1,0,81,46,1,80
,,,,,,,,,,,,,,,,,,,,,,,,,,,,,,,,,,,,,,,,,e,11.40199995,MILK CHOCOLATE,TRUE,,,,,,,153,mico,Catalan,Sounds/cat_mico.mp3,2020-06-05_15h36.42.777,TranslationElicitation_eng-prolific,3.2.4,Linux x86_64,60,5e811195ec31d30008690bcd,,1,0,81,46,1,80
,,,,,,,,,,,,,,,,,,,,,,,,,,,,,,,,,,,,,,,,,return,11.98600006,MILK CHOCOLATE,TRUE,,,,,,,153,mico,Catalan,Sounds/cat_mico.mp3,2020-06-05_15h36.42.777,TranslationElicitation_eng-prolific,3.2.4,Linux x86_64,60,5e811195ec31d30008690bcd,11.98600006,1,0,81,46,1,80
,,,,,,,,,,,,,,,,,,,,,,,,,,,,,,,,,,,,,,,,,,,,,,,,,,,153,mico,Catalan,Sounds/cat_mico.mp3,2020-06-05_15h36.42.777,TranslationElicitation_eng-prolific,3.2.4,Linux x86_64,60,5e811195ec31d30008690bcd,,1,0,81,46,1,80
,,,,,,,,,,,,,,,,,,,,,,,,,,,,,,,,,,,,,,,,,s,3.251000166,S,FALSE,,,,,,,158,nas,Catalan,Sounds/cat_nas.mp3,2020-06-05_15h36.42.777,TranslationElicitation_eng-prolific,3.2.4,Linux x86_64,60,5e811195ec31d30008690bcd,,1,0,81,51,1,80
,,,,,,,,,,,,,,,,,,,,,,,,,,,,,,,,,,,,,,,,,p,3.334000111,SP,FALSE,,,,,,,158,nas,Catalan,Sounds/cat_nas.mp3,2020-06-05_15h36.42.777,TranslationElicitation_eng-prolific,3.2.4,Linux x86_64,60,5e811195ec31d30008690bcd,,1,0,81,51,1,80
,,,,,,,,,,,,,,,,,,,,,,,,,,,,,,,,,,,,,,,,,a,3.532999992,SPA,FALSE,,,,,,,158,nas,Catalan,Sounds/cat_nas.mp3,2020-06-05_15h36.42.777,TranslationElicitation_eng-prolific,3.2.4,Linux x86_64,60,5e811195ec31d30008690bcd,,1,0,81,51,1,80
,,,,,,,,,,,,,,,,,,,,,,,,,,,,,,,,,,,,,,,,,c,3.617000103,SPAC,FALSE,,,,,,,158,nas,Catalan,Sounds/cat_nas.mp3,2020-06-05_15h36.42.777,TranslationElicitation_eng-prolific,3.2.4,Linux x86_64,60,5e811195ec31d30008690bcd,,1,0,81,51,1,80
,,,,,,,,,,,,,,,,,,,,,,,,,,,,,,,,,,,,,,,,,e,3.921000004,SPACE,FALSE,,,,,,,158,nas,Catalan,Sounds/cat_nas.mp3,2020-06-05_15h36.42.777,TranslationElicitation_eng-prolific,3.2.4,Linux x86_64,60,5e811195ec31d30008690bcd,,1,0,81,51,1,80
,,,,,,,,,,,,,,,,,,,,,,,,,,,,,,,,,,,,,,,,,return,4.052999973,SPACE,FALSE,,,,,,,158,nas,Catalan,Sounds/cat_nas.mp3,2020-06-05_15h36.42.777,TranslationElicitation_eng-prolific,3.2.4,Linux x86_64,60,5e811195ec31d30008690bcd,4.052999973,1,0,81,51,1,80
,,,,,,,,,,,,,,,,,,,,,,,,,,,,,,,,,,,,,,,,,,,,,,,,,,,158,nas,Catalan,Sounds/cat_nas.mp3,2020-06-05_15h36.42.777,TranslationElicitation_eng-prolific,3.2.4,Linux x86_64,60,5e811195ec31d30008690bcd,,1,0,81,51,1,80
,,,,,,,,,,,,,,,,,,,,,,,,,,,,,,,,,,,,,,,,,return,2.569999933,,FALSE,,,,,,,130,entrepa,Catalan,Sounds/cat_entrepa.mp3,2020-06-05_15h36.42.777,TranslationElicitation_eng-prolific,3.2.4,Linux x86_64,60,5e811195ec31d30008690bcd,2.569999933,1,0,81,24,1,80
,,,,,,,,,,,,,,,,,,,,,,,,,,,,,,,,,,,,,,,,,,,,,,,,,,,130,entrepa,Catalan,Sounds/cat_entrepa.mp3,2020-06-05_15h36.42.777,TranslationElicitation_eng-prolific,3.2.4,Linux x86_64,60,5e811195ec31d30008690bcd,,1,0,81,24,1,80
,,,,,,,,,,,,,,,,,,,,,,,,,,,,,,,,,,,,,,,,,b,3.367000103,B,FALSE,,,,,,,110,berenar,Catalan,Sounds/cat_berenar.mp3,2020-06-05_15h36.42.777,TranslationElicitation_eng-prolific,3.2.4,Linux x86_64,60,5e811195ec31d30008690bcd,,1,0,81,5,1,80
