consentKey.keys,consentKey.rt,languageL1Key.keys,languageL1Key.rt,languageL2,languageL2OralKey.keys,languageL2OralKey.rt,languageL2WrittenKey.keys,languageL2WrittenKey.rt,languageL3OralKey.keys,languageL3OralKey.rt,languageL3WrittenKey.keys,languageL3WrittenKey.rt,languageCatalanOralKey.keys,languageCatalanOralKey.rt,languageCatalanWrittenKey.keys,languageCatalanWrittenKey.rt,languageCatalanTimeKey.keys,languageCatalanTimeKey.rt,languageSpanishOralKey.keys,languageSpanishOralKey.rt,languageSpanishWrittenKey.keys,languageSpanishWrittenKey.rt,languageSpanishTimeKey.keys,languageSpanishTimeKey.rt,age,demoSexKey.keys,demoSexKey.rt,demoEducationKey.keys,demoEducationKey.rt,city,demoVisionKey.keys,demoVisionKey.rt,demoLanguageKey.keys,demoLanguageKey.rt,setupLocationKey.keys,setupLocationKey.rt,setupNoiseKey.keys,setupNoiseKey.rt,instructionsKeys.keys,instructionsKeys.rt,keyPressed,keyPressTime,inputText,error,trialsPracticeSpanish.thisRepN,trialsPracticeSpanish.thisTrialN,trialsPracticeSpanish.thisN,trialsPracticeSpanish.thisIndex,trialsPracticeSpanish.ran,trialsPracticeSpanish.order,trial_id,word,test_language,soundfile,date,expName,psychopyVersion,OS,frameRate,participant,trialOffset,trialsSpanish.thisRepN,trialsSpanish.thisTrialN,trialsSpanish.thisN,trialsSpanish.thisIndex,trialsSpanish.ran,trialsSpanish.order
space,0.746999979,e,2.864000082,,,,,,,,,,1,4.548000097,1,3.662000179,1,3.967999935,1,8.744999886,1,1.424000025,1,3.34100008,21,f,1.57400012,4,4.571000099,MANCHESTER,y,4.450999975,n,2.906000137,1,2.075000286,2,6.846000195,space,22.19900012,p,4.779999971,P,FALSE,1,0,5,0,1,4,1,arbol,Spanish,Sounds/spa_arbol.mp3,2020-06-24_17h53.08.817,TranslationElicitation_eng-prolific-spa,3.2.4,Win32,60,5e84efb71d17ad0c8430495a,,,,,,,
,,,,,,,,,,,,,,,,,,,,,,,,,,,,,,,,,,,,,,,,,a,4.813999891,PA,FALSE,1,0,5,0,1,4,1,arbol,Spanish,Sounds/spa_arbol.mp3,2020-06-24_17h53.08.817,TranslationElicitation_eng-prolific-spa,3.2.4,Win32,60,5e84efb71d17ad0c8430495a,,,,,,,
,,,,,,,,,,,,,,,,,,,,,,,,,,,,,,,,,,,,,,,,,t,5.313999891,PAT,FALSE,1,0,5,0,1,4,1,arbol,Spanish,Sounds/spa_arbol.mp3,2020-06-24_17h53.08.817,TranslationElicitation_eng-prolific-spa,3.2.4,Win32,60,5e84efb71d17ad0c8430495a,,,,,,,
,,,,,,,,,,,,,,,,,,,,,,,,,,,,,,,,,,,,,,,,,r,5.446999788,PATR,FALSE,1,0,5,0,1,4,1,arbol,Spanish,Sounds/spa_arbol.mp3,2020-06-24_17h53.08.817,TranslationElicitation_eng-prolific-spa,3.2.4,Win32,60,5e84efb71d17ad0c8430495a,,,,,,,
,,,,,,,,,,,,,,,,,,,,,,,,,,,,,,,,,,,,,,,,,y,5.529999971,PATRY,FALSE,1,0,5,0,1,4,1,arbol,Spanish,Sounds/spa_arbol.mp3,2020-06-24_17h53.08.817,TranslationElicitation_eng-prolific-spa,3.2.4,Win32,60,5e84efb71d17ad0c8430495a,,,,,,,
,,,,,,,,,,,,,,,,,,,,,,,,,,,,,,,,,,,,,,,,,backspace,6.496999979,PATR,TRUE,1,0,5,0,1,4,1,arbol,Spanish,Sounds/spa_arbol.mp3,2020-06-24_17h53.08.817,TranslationElicitation_eng-prolific-spa,3.2.4,Win32,60,5e84efb71d17ad0c8430495a,,,,,,,
,,,,,,,,,,,,,,,,,,,,,,,,,,,,,,,,,,,,,,,,,backspace,6.662999868,PAT,TRUE,1,0,5,0,1,4,1,arbol,Spanish,Sounds/spa_arbol.mp3,2020-06-24_17h53.08.817,TranslationElicitation_eng-prolific-spa,3.2.4,Win32,60,5e84efb71d17ad0c8430495a,,,,,,,
,,,,,,,,,,,,,,,,,,,,,,,,,,,,,,,,,,,,,,,,,backspace,6.812999964,PA,TRUE,1,0,5,0,1,4,1,arbol,Spanish,Sounds/spa_arbol.mp3,2020-06-24_17h53.08.817,TranslationElicitation_eng-prolific-spa,3.2.4,Win32,60,5e84efb71d17ad0c8430495a,,,,,,,
,,,,,,,,,,,,,,,,,,,,,,,,,,,,,,,,,,,,,,,,,r,7.845999956,PAR,TRUE,1,0,5,0,1,4,1,arbol,Spanish,Sounds/spa_arbol.mp3,2020-06-24_17h53.08.817,TranslationElicitation_eng-prolific-spa,3.2.4,Win32,60,5e84efb71d17ad0c8430495a,,,,,,,
,,,,,,,,,,,,,,,,,,,,,,,,,,,,,,,,,,,,,,,,,t,8.046999931,PART,TRUE,1,0,5,0,1,4,1,arbol,Spanish,Sounds/spa_arbol.mp3,2020-06-24_17h53.08.817,TranslationElicitation_eng-prolific-spa,3.2.4,Win32,60,5e84efb71d17ad0c8430495a,,,,,,,
,,,,,,,,,,,,,,,,,,,,,,,,,,,,,,,,,,,,,,,,,y,8.229999781,PARTY,TRUE,1,0,5,0,1,4,1,arbol,Spanish,Sounds/spa_arbol.mp3,2020-06-24_17h53.08.817,TranslationElicitation_eng-prolific-spa,3.2.4,Win32,60,5e84efb71d17ad0c8430495a,,,,,,,
,,,,,,,,,,,,,,,,,,,,,,,,,,,,,,,,,,,,,,,,,return,8.695999861,PARTY,TRUE,1,0,5,0,1,4,1,arbol,Spanish,Sounds/spa_arbol.mp3,2020-06-24_17h53.08.817,TranslationElicitation_eng-prolific-spa,3.2.4,Win32,60,5e84efb71d17ad0c8430495a,8.695999861,,,,,,
,,,,,,,,,,,,,,,,,,,,,,,,,,,,,,,,,,,,,,,,,,,,,1,0,5,0,1,4,1,arbol,Spanish,Sounds/spa_arbol.mp3,2020-06-24_17h53.08.817,TranslationElicitation_eng-prolific-spa,3.2.4,Win32,60,5e84efb71d17ad0c8430495a,,,,,,,
,,,,,,,,,,,,,,,,,,,,,,,,,,,,,,,,,,,,,,,,,j,1.782999992,J,FALSE,1,0,5,2,1,4,26,chaqueta,Spanish,Sounds/spa_chaqueta.mp3,2020-06-24_17h53.08.817,TranslationElicitation_eng-prolific-spa,3.2.4,Win32,60,5e84efb71d17ad0c8430495a,,,,,,,
,,,,,,,,,,,,,,,,,,,,,,,,,,,,,,,,,,,,,,,,,a,1.815000057,JA,FALSE,1,0,5,2,1,4,26,chaqueta,Spanish,Sounds/spa_chaqueta.mp3,2020-06-24_17h53.08.817,TranslationElicitation_eng-prolific-spa,3.2.4,Win32,60,5e84efb71d17ad0c8430495a,,,,,,,
,,,,,,,,,,,,,,,,,,,,,,,,,,,,,,,,,,,,,,,,,c,1.9150002,JAC,FALSE,1,0,5,2,1,4,26,chaqueta,Spanish,Sounds/spa_chaqueta.mp3,2020-06-24_17h53.08.817,TranslationElicitation_eng-prolific-spa,3.2.4,Win32,60,5e84efb71d17ad0c8430495a,,,,,,,
,,,,,,,,,,,,,,,,,,,,,,,,,,,,,,,,,,,,,,,,,k,2.032000065,JACK,FALSE,1,0,5,2,1,4,26,chaqueta,Spanish,Sounds/spa_chaqueta.mp3,2020-06-24_17h53.08.817,TranslationElicitation_eng-prolific-spa,3.2.4,Win32,60,5e84efb71d17ad0c8430495a,,,,,,,
,,,,,,,,,,,,,,,,,,,,,,,,,,,,,,,,,,,,,,,,,e,2.149000168,JACKE,FALSE,1,0,5,2,1,4,26,chaqueta,Spanish,Sounds/spa_chaqueta.mp3,2020-06-24_17h53.08.817,TranslationElicitation_eng-prolific-spa,3.2.4,Win32,60,5e84efb71d17ad0c8430495a,,,,,,,
,,,,,,,,,,,,,,,,,,,,,,,,,,,,,,,,,,,,,,,,,t,2.249000072,JACKET,FALSE,1,0,5,2,1,4,26,chaqueta,Spanish,Sounds/spa_chaqueta.mp3,2020-06-24_17h53.08.817,TranslationElicitation_eng-prolific-spa,3.2.4,Win32,60,5e84efb71d17ad0c8430495a,,,,,,,
,,,,,,,,,,,,,,,,,,,,,,,,,,,,,,,,,,,,,,,,,return,2.715000153,JACKET,FALSE,1,0,5,2,1,4,26,chaqueta,Spanish,Sounds/spa_chaqueta.mp3,2020-06-24_17h53.08.817,TranslationElicitation_eng-prolific-spa,3.2.4,Win32,60,5e84efb71d17ad0c8430495a,2.715000153,,,,,,
,,,,,,,,,,,,,,,,,,,,,,,,,,,,,,,,,,,,,,,,,,,,,1,0,5,2,1,4,26,chaqueta,Spanish,Sounds/spa_chaqueta.mp3,2020-06-24_17h53.08.817,TranslationElicitation_eng-prolific-spa,3.2.4,Win32,60,5e84efb71d17ad0c8430495a,,,,,,,
,,,,,,,,,,,,,,,,,,,,,,,,,,,,,,,,,,,,,,,,,c,2.182999849,C,FALSE,1,0,5,1,1,4,30,corona,Spanish,Sounds/spa_corona.mp3,2020-06-24_17h53.08.817,TranslationElicitation_eng-prolific-spa,3.2.4,Win32,60,5e84efb71d17ad0c8430495a,,,,,,,
,,,,,,,,,,,,,,,,,,,,,,,,,,,,,,,,,,,,,,,,,o,2.282999992,CO,FALSE,1,0,5,1,1,4,30,corona,Spanish,Sounds/spa_corona.mp3,2020-06-24_17h53.08.817,TranslationElicitation_eng-prolific-spa,3.2.4,Win32,60,5e84efb71d17ad0c8430495a,,,,,,,
,,,,,,,,,,,,,,,,,,,,,,,,,,,,,,,,,,,,,,,,,r,2.415999889,COR,FALSE,1,0,5,1,1,4,30,corona,Spanish,Sounds/spa_corona.mp3,2020-06-24_17h53.08.817,TranslationElicitation_eng-prolific-spa,3.2.4,Win32,60,5e84efb71d17ad0c8430495a,,,,,,,
,,,,,,,,,,,,,,,,,,,,,,,,,,,,,,,,,,,,,,,,,o,2.549000025,CORO,FALSE,1,0,5,1,1,4,30,corona,Spanish,Sounds/spa_corona.mp3,2020-06-24_17h53.08.817,TranslationElicitation_eng-prolific-spa,3.2.4,Win32,60,5e84efb71d17ad0c8430495a,,,,,,,
,,,,,,,,,,,,,,,,,,,,,,,,,,,,,,,,,,,,,,,,,n,2.632999897,CORON,FALSE,1,0,5,1,1,4,30,corona,Spanish,Sounds/spa_corona.mp3,2020-06-24_17h53.08.817,TranslationElicitation_eng-prolific-spa,3.2.4,Win32,60,5e84efb71d17ad0c8430495a,,,,,,,
,,,,,,,,,,,,,,,,,,,,,,,,,,,,,,,,,,,,,,,,,a,2.832999945,CORONA,FALSE,1,0,5,1,1,4,30,corona,Spanish,Sounds/spa_corona.mp3,2020-06-24_17h53.08.817,TranslationElicitation_eng-prolific-spa,3.2.4,Win32,60,5e84efb71d17ad0c8430495a,,,,,,,
,,,,,,,,,,,,,,,,,,,,,,,,,,,,,,,,,,,,,,,,,return,3.398999929,CORONA,FALSE,1,0,5,1,1,4,30,corona,Spanish,Sounds/spa_corona.mp3,2020-06-24_17h53.08.817,TranslationElicitation_eng-prolific-spa,3.2.4,Win32,60,5e84efb71d17ad0c8430495a,3.398999929,,,,,,
,,,,,,,,,,,,,,,,,,,,,,,,,,,,,,,,,,,,,,,,,,,,,1,0,5,1,1,4,30,corona,Spanish,Sounds/spa_corona.mp3,2020-06-24_17h53.08.817,TranslationElicitation_eng-prolific-spa,3.2.4,Win32,60,5e84efb71d17ad0c8430495a,,,,,,,
,,,,,,,,,,,,,,,,,,,,,,,,,,,,,,,,,,,,,,,,,h,3.032999992,H,FALSE,1,0,5,3,1,4,70,ola,Spanish,Sounds/spa_ola.mp3,2020-06-24_17h53.08.817,TranslationElicitation_eng-prolific-spa,3.2.4,Win32,60,5e84efb71d17ad0c8430495a,,,,,,,
,,,,,,,,,,,,,,,,,,,,,,,,,,,,,,,,,,,,,,,,,e,3.200000048,HE,FALSE,1,0,5,3,1,4,70,ola,Spanish,Sounds/spa_ola.mp3,2020-06-24_17h53.08.817,TranslationElicitation_eng-prolific-spa,3.2.4,Win32,60,5e84efb71d17ad0c8430495a,,,,,,,
,,,,,,,,,,,,,,,,,,,,,,,,,,,,,,,,,,,,,,,,,l,3.383000135,HEL,FALSE,1,0,5,3,1,4,70,ola,Spanish,Sounds/spa_ola.mp3,2020-06-24_17h53.08.817,TranslationElicitation_eng-prolific-spa,3.2.4,Win32,60,5e84efb71d17ad0c8430495a,,,,,,,
,,,,,,,,,,,,,,,,,,,,,,,,,,,,,,,,,,,,,,,,,l,3.502000093,HELL,FALSE,1,0,5,3,1,4,70,ola,Spanish,Sounds/spa_ola.mp3,2020-06-24_17h53.08.817,TranslationElicitation_eng-prolific-spa,3.2.4,Win32,60,5e84efb71d17ad0c8430495a,,,,,,,
,,,,,,,,,,,,,,,,,,,,,,,,,,,,,,,,,,,,,,,,,o,3.700000048,HELLO,FALSE,1,0,5,3,1,4,70,ola,Spanish,Sounds/spa_ola.mp3,2020-06-24_17h53.08.817,TranslationElicitation_eng-prolific-spa,3.2.4,Win32,60,5e84efb71d17ad0c8430495a,,,,,,,
,,,,,,,,,,,,,,,,,,,,,,,,,,,,,,,,,,,,,,,,,return,4.065999985,HELLO,FALSE,1,0,5,3,1,4,70,ola,Spanish,Sounds/spa_ola.mp3,2020-06-24_17h53.08.817,TranslationElicitation_eng-prolific-spa,3.2.4,Win32,60,5e84efb71d17ad0c8430495a,4.065999985,,,,,,
,,,,,,,,,,,,,,,,,,,,,,,,,,,,,,,,,,,,,,,,,,,,,1,0,5,3,1,4,70,ola,Spanish,Sounds/spa_ola.mp3,2020-06-24_17h53.08.817,TranslationElicitation_eng-prolific-spa,3.2.4,Win32,60,5e84efb71d17ad0c8430495a,,,,,,,
,,,,,,,,,,,,,,,,,,,,,,,,,,,,,,,,,,,,,,,,,t,1.781999826,T,FALSE,1,0,5,4,1,4,96,tigre,Spanish,Sounds/spa_tigre.mp3,2020-06-24_17h53.08.817,TranslationElicitation_eng-prolific-spa,3.2.4,Win32,60,5e84efb71d17ad0c8430495a,,,,,,,
,,,,,,,,,,,,,,,,,,,,,,,,,,,,,,,,,,,,,,,,,i,1.871999979,TI,FALSE,1,0,5,4,1,4,96,tigre,Spanish,Sounds/spa_tigre.mp3,2020-06-24_17h53.08.817,TranslationElicitation_eng-prolific-spa,3.2.4,Win32,60,5e84efb71d17ad0c8430495a,,,,,,,
,,,,,,,,,,,,,,,,,,,,,,,,,,,,,,,,,,,,,,,,,g,2.006000042,TIG,FALSE,1,0,5,4,1,4,96,tigre,Spanish,Sounds/spa_tigre.mp3,2020-06-24_17h53.08.817,TranslationElicitation_eng-prolific-spa,3.2.4,Win32,60,5e84efb71d17ad0c8430495a,,,,,,,
,,,,,,,,,,,,,,,,,,,,,,,,,,,,,,,,,,,,,,,,,e,2.223999977,TIGE,FALSE,1,0,5,4,1,4,96,tigre,Spanish,Sounds/spa_tigre.mp3,2020-06-24_17h53.08.817,TranslationElicitation_eng-prolific-spa,3.2.4,Win32,60,5e84efb71d17ad0c8430495a,,,,,,,
,,,,,,,,,,,,,,,,,,,,,,,,,,,,,,,,,,,,,,,,,r,2.289000034,TIGER,FALSE,1,0,5,4,1,4,96,tigre,Spanish,Sounds/spa_tigre.mp3,2020-06-24_17h53.08.817,TranslationElicitation_eng-prolific-spa,3.2.4,Win32,60,5e84efb71d17ad0c8430495a,,,,,,,
,,,,,,,,,,,,,,,,,,,,,,,,,,,,,,,,,,,,,,,,,return,2.539000034,TIGER,FALSE,1,0,5,4,1,4,96,tigre,Spanish,Sounds/spa_tigre.mp3,2020-06-24_17h53.08.817,TranslationElicitation_eng-prolific-spa,3.2.4,Win32,60,5e84efb71d17ad0c8430495a,2.539000034,,,,,,
,,,,,,,,,,,,,,,,,,,,,,,,,,,,,,,,,,,,,,,,,,,,,1,0,5,4,1,4,96,tigre,Spanish,Sounds/spa_tigre.mp3,2020-06-24_17h53.08.817,TranslationElicitation_eng-prolific-spa,3.2.4,Win32,60,5e84efb71d17ad0c8430495a,,,,,,,
,,,,,,,,,,,,,,,,,,,,,,,,,,,,,,,,,,,,,,,,,c,5.582000017,C,FALSE,,,,,,,24,cereza,Spanish,Sounds/spa_cereza.mp3,2020-06-24_17h53.08.817,TranslationElicitation_eng-prolific-spa,3.2.4,Win32,60,5e84efb71d17ad0c8430495a,,1,0,98,22,1,97
,,,,,,,,,,,,,,,,,,,,,,,,,,,,,,,,,,,,,,,,,e,5.782000065,CE,FALSE,,,,,,,24,cereza,Spanish,Sounds/spa_cereza.mp3,2020-06-24_17h53.08.817,TranslationElicitation_eng-prolific-spa,3.2.4,Win32,60,5e84efb71d17ad0c8430495a,,1,0,98,22,1,97
,,,,,,,,,,,,,,,,,,,,,,,,,,,,,,,,,,,,,,,,,l,5.898999929,CEL,FALSE,,,,,,,24,cereza,Spanish,Sounds/spa_cereza.mp3,2020-06-24_17h53.08.817,TranslationElicitation_eng-prolific-spa,3.2.4,Win32,60,5e84efb71d17ad0c8430495a,,1,0,98,22,1,97
,,,,,,,,,,,,,,,,,,,,,,,,,,,,,,,,,,,,,,,,,e,5.999000072,CELE,FALSE,,,,,,,24,cereza,Spanish,Sounds/spa_cereza.mp3,2020-06-24_17h53.08.817,TranslationElicitation_eng-prolific-spa,3.2.4,Win32,60,5e84efb71d17ad0c8430495a,,1,0,98,22,1,97
,,,,,,,,,,,,,,,,,,,,,,,,,,,,,,,,,,,,,,,,,b,6.265000105,CELEB,FALSE,,,,,,,24,cereza,Spanish,Sounds/spa_cereza.mp3,2020-06-24_17h53.08.817,TranslationElicitation_eng-prolific-spa,3.2.4,Win32,60,5e84efb71d17ad0c8430495a,,1,0,98,22,1,97
,,,,,,,,,,,,,,,,,,,,,,,,,,,,,,,,,,,,,,,,,r,6.315000057,CELEBR,FALSE,,,,,,,24,cereza,Spanish,Sounds/spa_cereza.mp3,2020-06-24_17h53.08.817,TranslationElicitation_eng-prolific-spa,3.2.4,Win32,60,5e84efb71d17ad0c8430495a,,1,0,98,22,1,97
,,,,,,,,,,,,,,,,,,,,,,,,,,,,,,,,,,,,,,,,,a,6.398999929,CELEBRA,FALSE,,,,,,,24,cereza,Spanish,Sounds/spa_cereza.mp3,2020-06-24_17h53.08.817,TranslationElicitation_eng-prolific-spa,3.2.4,Win32,60,5e84efb71d17ad0c8430495a,,1,0,98,22,1,97
,,,,,,,,,,,,,,,,,,,,,,,,,,,,,,,,,,,,,,,,,e,6.598999977,CELEBRAE,FALSE,,,,,,,24,cereza,Spanish,Sounds/spa_cereza.mp3,2020-06-24_17h53.08.817,TranslationElicitation_eng-prolific-spa,3.2.4,Win32,60,5e84efb71d17ad0c8430495a,,1,0,98,22,1,97
,,,,,,,,,,,,,,,,,,,,,,,,,,,,,,,,,,,,,,,,,backspace,7.164999962,CELEBRA,TRUE,,,,,,,24,cereza,Spanish,Sounds/spa_cereza.mp3,2020-06-24_17h53.08.817,TranslationElicitation_eng-prolific-spa,3.2.4,Win32,60,5e84efb71d17ad0c8430495a,,1,0,98,22,1,97
,,,,,,,,,,,,,,,,,,,,,,,,,,,,,,,,,,,,,,,,,t,7.731999874,CELEBRAT,TRUE,,,,,,,24,cereza,Spanish,Sounds/spa_cereza.mp3,2020-06-24_17h53.08.817,TranslationElicitation_eng-prolific-spa,3.2.4,Win32,60,5e84efb71d17ad0c8430495a,,1,0,98,22,1,97
,,,,,,,,,,,,,,,,,,,,,,,,,,,,,,,,,,,,,,,,,e,7.799000025,CELEBRATE,TRUE,,,,,,,24,cereza,Spanish,Sounds/spa_cereza.mp3,2020-06-24_17h53.08.817,TranslationElicitation_eng-prolific-spa,3.2.4,Win32,60,5e84efb71d17ad0c8430495a,,1,0,98,22,1,97
,,,,,,,,,,,,,,,,,,,,,,,,,,,,,,,,,,,,,,,,,return,8.61500001,CELEBRATE,TRUE,,,,,,,24,cereza,Spanish,Sounds/spa_cereza.mp3,2020-06-24_17h53.08.817,TranslationElicitation_eng-prolific-spa,3.2.4,Win32,60,5e84efb71d17ad0c8430495a,8.61500001,1,0,98,22,1,97
,,,,,,,,,,,,,,,,,,,,,,,,,,,,,,,,,,,,,,,,,,,,,,,,,,,24,cereza,Spanish,Sounds/spa_cereza.mp3,2020-06-24_17h53.08.817,TranslationElicitation_eng-prolific-spa,3.2.4,Win32,60,5e84efb71d17ad0c8430495a,,1,0,98,22,1,97
,,,,,,,,,,,,,,,,,,,,,,,,,,,,,,,,,,,,,,,,,b,2.632999897,B,FALSE,,,,,,,6,boca,Spanish,Sounds/spa_boca.mp3,2020-06-24_17h53.08.817,TranslationElicitation_eng-prolific-spa,3.2.4,Win32,60,5e84efb71d17ad0c8430495a,,1,0,98,4,1,97
,,,,,,,,,,,,,,,,,,,,,,,,,,,,,,,,,,,,,,,,,o,2.766000032,BO,FALSE,,,,,,,6,boca,Spanish,Sounds/spa_boca.mp3,2020-06-24_17h53.08.817,TranslationElicitation_eng-prolific-spa,3.2.4,Win32,60,5e84efb71d17ad0c8430495a,,1,0,98,4,1,97
,,,,,,,,,,,,,,,,,,,,,,,,,,,,,,,,,,,,,,,,,o,2.884000063,BOO,FALSE,,,,,,,6,boca,Spanish,Sounds/spa_boca.mp3,2020-06-24_17h53.08.817,TranslationElicitation_eng-prolific-spa,3.2.4,Win32,60,5e84efb71d17ad0c8430495a,,1,0,98,4,1,97
,,,,,,,,,,,,,,,,,,,,,,,,,,,,,,,,,,,,,,,,,k,2.981999874,BOOK,FALSE,,,,,,,6,boca,Spanish,Sounds/spa_boca.mp3,2020-06-24_17h53.08.817,TranslationElicitation_eng-prolific-spa,3.2.4,Win32,60,5e84efb71d17ad0c8430495a,,1,0,98,4,1,97
,,,,,,,,,,,,,,,,,,,,,,,,,,,,,,,,,,,,,,,,,return,3.231999874,BOOK,FALSE,,,,,,,6,boca,Spanish,Sounds/spa_boca.mp3,2020-06-24_17h53.08.817,TranslationElicitation_eng-prolific-spa,3.2.4,Win32,60,5e84efb71d17ad0c8430495a,3.231999874,1,0,98,4,1,97
,,,,,,,,,,,,,,,,,,,,,,,,,,,,,,,,,,,,,,,,,,,,,,,,,,,6,boca,Spanish,Sounds/spa_boca.mp3,2020-06-24_17h53.08.817,TranslationElicitation_eng-prolific-spa,3.2.4,Win32,60,5e84efb71d17ad0c8430495a,,1,0,98,4,1,97
,,,,,,,,,,,,,,,,,,,,,,,,,,,,,,,,,,,,,,,,,l,2.933000088,L,FALSE,,,,,,,54,lengua,Spanish,Sounds/spa_lengua.mp3,2020-06-24_17h53.08.817,TranslationElicitation_eng-prolific-spa,3.2.4,Win32,60,5e84efb71d17ad0c8430495a,,1,0,98,50,1,97
,,,,,,,,,,,,,,,,,,,,,,,,,,,,,,,,,,,,,,,,,a,3.116000175,LA,FALSE,,,,,,,54,lengua,Spanish,Sounds/spa_lengua.mp3,2020-06-24_17h53.08.817,TranslationElicitation_eng-prolific-spa,3.2.4,Win32,60,5e84efb71d17ad0c8430495a,,1,0,98,50,1,97
,,,,,,,,,,,,,,,,,,,,,,,,,,,,,,,,,,,,,,,,,backspace,7.382000208,L,TRUE,,,,,,,54,lengua,Spanish,Sounds/spa_lengua.mp3,2020-06-24_17h53.08.817,TranslationElicitation_eng-prolific-spa,3.2.4,Win32,60,5e84efb71d17ad0c8430495a,,1,0,98,50,1,97
,,,,,,,,,,,,,,,,,,,,,,,,,,,,,,,,,,,,,,,,,backspace,7.583000183,,TRUE,,,,,,,54,lengua,Spanish,Sounds/spa_lengua.mp3,2020-06-24_17h53.08.817,TranslationElicitation_eng-prolific-spa,3.2.4,Win32,60,5e84efb71d17ad0c8430495a,,1,0,98,50,1,97
,,,,,,,,,,,,,,,,,,,,,,,,,,,,,,,,,,,,,,,,,e,8.249000072,E,TRUE,,,,,,,54,lengua,Spanish,Sounds/spa_lengua.mp3,2020-06-24_17h53.08.817,TranslationElicitation_eng-prolific-spa,3.2.4,Win32,60,5e84efb71d17ad0c8430495a,,1,0,98,50,1,97
,,,,,,,,,,,,,,,,,,,,,,,,,,,,,,,,,,,,,,,,,l,8.333000183,EL,TRUE,,,,,,,54,lengua,Spanish,Sounds/spa_lengua.mp3,2020-06-24_17h53.08.817,TranslationElicitation_eng-prolific-spa,3.2.4,Win32,60,5e84efb71d17ad0c8430495a,,1,0,98,50,1,97
,,,,,,,,,,,,,,,,,,,,,,,,,,,,,,,,,,,,,,,,,backspace,9.19900012,E,TRUE,,,,,,,54,lengua,Spanish,Sounds/spa_lengua.mp3,2020-06-24_17h53.08.817,TranslationElicitation_eng-prolific-spa,3.2.4,Win32,60,5e84efb71d17ad0c8430495a,,1,0,98,50,1,97
,,,,,,,,,,,,,,,,,,,,,,,,,,,,,,,,,,,,,,,,,n,9.382000208,EN,TRUE,,,,,,,54,lengua,Spanish,Sounds/spa_lengua.mp3,2020-06-24_17h53.08.817,TranslationElicitation_eng-prolific-spa,3.2.4,Win32,60,5e84efb71d17ad0c8430495a,,1,0,98,50,1,97
,,,,,,,,,,,,,,,,,,,,,,,,,,,,,,,,,,,,,,,,,g,9.833000183,ENG,TRUE,,,,,,,54,lengua,Spanish,Sounds/spa_lengua.mp3,2020-06-24_17h53.08.817,TranslationElicitation_eng-prolific-spa,3.2.4,Win32,60,5e84efb71d17ad0c8430495a,,1,0,98,50,1,97
,,,,,,,,,,,,,,,,,,,,,,,,,,,,,,,,,,,,,,,,,l,10.16600013,ENGL,TRUE,,,,,,,54,lengua,Spanish,Sounds/spa_lengua.mp3,2020-06-24_17h53.08.817,TranslationElicitation_eng-prolific-spa,3.2.4,Win32,60,5e84efb71d17ad0c8430495a,,1,0,98,50,1,97
,,,,,,,,,,,,,,,,,,,,,,,,,,,,,,,,,,,,,,,,,i,10.36600018,ENGLI,TRUE,,,,,,,54,lengua,Spanish,Sounds/spa_lengua.mp3,2020-06-24_17h53.08.817,TranslationElicitation_eng-prolific-spa,3.2.4,Win32,60,5e84efb71d17ad0c8430495a,,1,0,98,50,1,97
,,,,,,,,,,,,,,,,,,,,,,,,,,,,,,,,,,,,,,,,,s,10.44900012,ENGLIS,TRUE,,,,,,,54,lengua,Spanish,Sounds/spa_lengua.mp3,2020-06-24_17h53.08.817,TranslationElicitation_eng-prolific-spa,3.2.4,Win32,60,5e84efb71d17ad0c8430495a,,1,0,98,50,1,97
,,,,,,,,,,,,,,,,,,,,,,,,,,,,,,,,,,,,,,,,,h,10.56500006,ENGLISH,TRUE,,,,,,,54,lengua,Spanish,Sounds/spa_lengua.mp3,2020-06-24_17h53.08.817,TranslationElicitation_eng-prolific-spa,3.2.4,Win32,60,5e84efb71d17ad0c8430495a,,1,0,98,50,1,97
,,,,,,,,,,,,,,,,,,,,,,,,,,,,,,,,,,,,,,,,,return,11.44900012,ENGLISH,TRUE,,,,,,,54,lengua,Spanish,Sounds/spa_lengua.mp3,2020-06-24_17h53.08.817,TranslationElicitation_eng-prolific-spa,3.2.4,Win32,60,5e84efb71d17ad0c8430495a,11.44900012,1,0,98,50,1,97
,,,,,,,,,,,,,,,,,,,,,,,,,,,,,,,,,,,,,,,,,,,,,,,,,,,54,lengua,Spanish,Sounds/spa_lengua.mp3,2020-06-24_17h53.08.817,TranslationElicitation_eng-prolific-spa,3.2.4,Win32,60,5e84efb71d17ad0c8430495a,,1,0,98,50,1,97
,,,,,,,,,,,,,,,,,,,,,,,,,,,,,,,,,,,,,,,,,t,3.996999979,T,FALSE,,,,,,,77,pantalon,Spanish,Sounds/spa_pantalon.mp3,2020-06-24_17h53.08.817,TranslationElicitation_eng-prolific-spa,3.2.4,Win32,60,5e84efb71d17ad0c8430495a,,1,0,98,72,1,97
,,,,,,,,,,,,,,,,,,,,,,,,,,,,,,,,,,,,,,,,,r,4.131000042,TR,FALSE,,,,,,,77,pantalon,Spanish,Sounds/spa_pantalon.mp3,2020-06-24_17h53.08.817,TranslationElicitation_eng-prolific-spa,3.2.4,Win32,60,5e84efb71d17ad0c8430495a,,1,0,98,72,1,97
,,,,,,,,,,,,,,,,,,,,,,,,,,,,,,,,,,,,,,,,,backspace,4.930000067,T,TRUE,,,,,,,77,pantalon,Spanish,Sounds/spa_pantalon.mp3,2020-06-24_17h53.08.817,TranslationElicitation_eng-prolific-spa,3.2.4,Win32,60,5e84efb71d17ad0c8430495a,,1,0,98,72,1,97
,,,,,,,,,,,,,,,,,,,,,,,,,,,,,,,,,,,,,,,,,backspace,5.613000154,,TRUE,,,,,,,77,pantalon,Spanish,Sounds/spa_pantalon.mp3,2020-06-24_17h53.08.817,TranslationElicitation_eng-prolific-spa,3.2.4,Win32,60,5e84efb71d17ad0c8430495a,,1,0,98,72,1,97
,,,,,,,,,,,,,,,,,,,,,,,,,,,,,,,,,,,,,,,,,p,5.930000067,P,TRUE,,,,,,,77,pantalon,Spanish,Sounds/spa_pantalon.mp3,2020-06-24_17h53.08.817,TranslationElicitation_eng-prolific-spa,3.2.4,Win32,60,5e84efb71d17ad0c8430495a,,1,0,98,72,1,97
,,,,,,,,,,,,,,,,,,,,,,,,,,,,,,,,,,,,,,,,,a,6.046000004,PA,TRUE,,,,,,,77,pantalon,Spanish,Sounds/spa_pantalon.mp3,2020-06-24_17h53.08.817,TranslationElicitation_eng-prolific-spa,3.2.4,Win32,60,5e84efb71d17ad0c8430495a,,1,0,98,72,1,97
,,,,,,,,,,,,,,,,,,,,,,,,,,,,,,,,,,,,,,,,,n,6.163000107,PAN,TRUE,,,,,,,77,pantalon,Spanish,Sounds/spa_pantalon.mp3,2020-06-24_17h53.08.817,TranslationElicitation_eng-prolific-spa,3.2.4,Win32,60,5e84efb71d17ad0c8430495a,,1,0,98,72,1,97
,,,,,,,,,,,,,,,,,,,,,,,,,,,,,,,,,,,,,,,,,t,6.253999949,PANT,TRUE,,,,,,,77,pantalon,Spanish,Sounds/spa_pantalon.mp3,2020-06-24_17h53.08.817,TranslationElicitation_eng-prolific-spa,3.2.4,Win32,60,5e84efb71d17ad0c8430495a,,1,0,98,72,1,97
,,,,,,,,,,,,,,,,,,,,,,,,,,,,,,,,,,,,,,,,,s,6.380000114,PANTS,TRUE,,,,,,,77,pantalon,Spanish,Sounds/spa_pantalon.mp3,2020-06-24_17h53.08.817,TranslationElicitation_eng-prolific-spa,3.2.4,Win32,60,5e84efb71d17ad0c8430495a,,1,0,98,72,1,97
,,,,,,,,,,,,,,,,,,,,,,,,,,,,,,,,,,,,,,,,,return,6.746000051,PANTS,TRUE,,,,,,,77,pantalon,Spanish,Sounds/spa_pantalon.mp3,2020-06-24_17h53.08.817,TranslationElicitation_eng-prolific-spa,3.2.4,Win32,60,5e84efb71d17ad0c8430495a,6.746000051,1,0,98,72,1,97
,,,,,,,,,,,,,,,,,,,,,,,,,,,,,,,,,,,,,,,,,,,,,,,,,,,77,pantalon,Spanish,Sounds/spa_pantalon.mp3,2020-06-24_17h53.08.817,TranslationElicitation_eng-prolific-spa,3.2.4,Win32,60,5e84efb71d17ad0c8430495a,,1,0,98,72,1,97
,,,,,,,,,,,,,,,,,,,,,,,,,,,,,,,,,,,,,,,,,backspace,1.650000095,,TRUE,,,,,,,27,chocolate,Spanish,Sounds/spa_chocolate.mp3,2020-06-24_17h53.08.817,TranslationElicitation_eng-prolific-spa,3.2.4,Win32,60,5e84efb71d17ad0c8430495a,,1,0,98,24,1,97
,,,,,,,,,,,,,,,,,,,,,,,,,,,,,,,,,,,,,,,,,c,1.849999905,C,TRUE,,,,,,,27,chocolate,Spanish,Sounds/spa_chocolate.mp3,2020-06-24_17h53.08.817,TranslationElicitation_eng-prolific-spa,3.2.4,Win32,60,5e84efb71d17ad0c8430495a,,1,0,98,24,1,97
,,,,,,,,,,,,,,,,,,,,,,,,,,,,,,,,,,,,,,,,,h,2.165999889,CH,TRUE,,,,,,,27,chocolate,Spanish,Sounds/spa_chocolate.mp3,2020-06-24_17h53.08.817,TranslationElicitation_eng-prolific-spa,3.2.4,Win32,60,5e84efb71d17ad0c8430495a,,1,0,98,24,1,97
,,,,,,,,,,,,,,,,,,,,,,,,,,,,,,,,,,,,,,,,,o,2.26699996,CHO,TRUE,,,,,,,27,chocolate,Spanish,Sounds/spa_chocolate.mp3,2020-06-24_17h53.08.817,TranslationElicitation_eng-prolific-spa,3.2.4,Win32,60,5e84efb71d17ad0c8430495a,,1,0,98,24,1,97
,,,,,,,,,,,,,,,,,,,,,,,,,,,,,,,,,,,,,,,,,c,2.749000072,CHOC,TRUE,,,,,,,27,chocolate,Spanish,Sounds/spa_chocolate.mp3,2020-06-24_17h53.08.817,TranslationElicitation_eng-prolific-spa,3.2.4,Win32,60,5e84efb71d17ad0c8430495a,,1,0,98,24,1,97
,,,,,,,,,,,,,,,,,,,,,,,,,,,,,,,,,,,,,,,,,o,2.832999945,CHOCO,TRUE,,,,,,,27,chocolate,Spanish,Sounds/spa_chocolate.mp3,2020-06-24_17h53.08.817,TranslationElicitation_eng-prolific-spa,3.2.4,Win32,60,5e84efb71d17ad0c8430495a,,1,0,98,24,1,97
,,,,,,,,,,,,,,,,,,,,,,,,,,,,,,,,,,,,,,,,,l,3.065999985,CHOCOL,TRUE,,,,,,,27,chocolate,Spanish,Sounds/spa_chocolate.mp3,2020-06-24_17h53.08.817,TranslationElicitation_eng-prolific-spa,3.2.4,Win32,60,5e84efb71d17ad0c8430495a,,1,0,98,24,1,97
,,,,,,,,,,,,,,,,,,,,,,,,,,,,,,,,,,,,,,,,,a,3.099999905,CHOCOLA,TRUE,,,,,,,27,chocolate,Spanish,Sounds/spa_chocolate.mp3,2020-06-24_17h53.08.817,TranslationElicitation_eng-prolific-spa,3.2.4,Win32,60,5e84efb71d17ad0c8430495a,,1,0,98,24,1,97
,,,,,,,,,,,,,,,,,,,,,,,,,,,,,,,,,,,,,,,,,t,3.282999992,CHOCOLAT,TRUE,,,,,,,27,chocolate,Spanish,Sounds/spa_chocolate.mp3,2020-06-24_17h53.08.817,TranslationElicitation_eng-prolific-spa,3.2.4,Win32,60,5e84efb71d17ad0c8430495a,,1,0,98,24,1,97
,,,,,,,,,,,,,,,,,,,,,,,,,,,,,,,,,,,,,,,,,e,3.398999929,CHOCOLATE,TRUE,,,,,,,27,chocolate,Spanish,Sounds/spa_chocolate.mp3,2020-06-24_17h53.08.817,TranslationElicitation_eng-prolific-spa,3.2.4,Win32,60,5e84efb71d17ad0c8430495a,,1,0,98,24,1,97
,,,,,,,,,,,,,,,,,,,,,,,,,,,,,,,,,,,,,,,,,return,3.734999895,CHOCOLATE,TRUE,,,,,,,27,chocolate,Spanish,Sounds/spa_chocolate.mp3,2020-06-24_17h53.08.817,TranslationElicitation_eng-prolific-spa,3.2.4,Win32,60,5e84efb71d17ad0c8430495a,3.734999895,1,0,98,24,1,97
,,,,,,,,,,,,,,,,,,,,,,,,,,,,,,,,,,,,,,,,,,,,,,,,,,,27,chocolate,Spanish,Sounds/spa_chocolate.mp3,2020-06-24_17h53.08.817,TranslationElicitation_eng-prolific-spa,3.2.4,Win32,60,5e84efb71d17ad0c8430495a,,1,0,98,24,1,97
,,,,,,,,,,,,,,,,,,,,,,,,,,,,,,,,,,,,,,,,,a,3.432999849,A,FALSE,,,,,,,40,galleta,Spanish,Sounds/spa_galleta.mp3,2020-06-24_17h53.08.817,TranslationElicitation_eng-prolific-spa,3.2.4,Win32,60,5e84efb71d17ad0c8430495a,,1,0,98,36,1,97
,,,,,,,,,,,,,,,,,,,,,,,,,,,,,,,,,,,,,,,,,l,3.582000017,AL,FALSE,,,,,,,40,galleta,Spanish,Sounds/spa_galleta.mp3,2020-06-24_17h53.08.817,TranslationElicitation_eng-prolific-spa,3.2.4,Win32,60,5e84efb71d17ad0c8430495a,,1,0,98,36,1,97
,,,,,,,,,,,,,,,,,,,,,,,,,,,,,,,,,,,,,,,,,l,3.71600008,ALL,FALSE,,,,,,,40,galleta,Spanish,Sounds/spa_galleta.mp3,2020-06-24_17h53.08.817,TranslationElicitation_eng-prolific-spa,3.2.4,Win32,60,5e84efb71d17ad0c8430495a,,1,0,98,36,1,97
,,,,,,,,,,,,,,,,,,,,,,,,,,,,,,,,,,,,,,,,,i,3.86500001,ALLI,FALSE,,,,,,,40,galleta,Spanish,Sounds/spa_galleta.mp3,2020-06-24_17h53.08.817,TranslationElicitation_eng-prolific-spa,3.2.4,Win32,60,5e84efb71d17ad0c8430495a,,1,0,98,36,1,97
,,,,,,,,,,,,,,,,,,,,,,,,,,,,,,,,,,,,,,,,,g,3.981999874,ALLIG,FALSE,,,,,,,40,galleta,Spanish,Sounds/spa_galleta.mp3,2020-06-24_17h53.08.817,TranslationElicitation_eng-prolific-spa,3.2.4,Win32,60,5e84efb71d17ad0c8430495a,,1,0,98,36,1,97
,,,,,,,,,,,,,,,,,,,,,,,,,,,,,,,,,,,,,,,,,a,4.082000017,ALLIGA,FALSE,,,,,,,40,galleta,Spanish,Sounds/spa_galleta.mp3,2020-06-24_17h53.08.817,TranslationElicitation_eng-prolific-spa,3.2.4,Win32,60,5e84efb71d17ad0c8430495a,,1,0,98,36,1,97
,,,,,,,,,,,,,,,,,,,,,,,,,,,,,,,,,,,,,,,,,t,4.21600008,ALLIGAT,FALSE,,,,,,,40,galleta,Spanish,Sounds/spa_galleta.mp3,2020-06-24_17h53.08.817,TranslationElicitation_eng-prolific-spa,3.2.4,Win32,60,5e84efb71d17ad0c8430495a,,1,0,98,36,1,97
,,,,,,,,,,,,,,,,,,,,,,,,,,,,,,,,,,,,,,,,,o,4.681999922,ALLIGATO,FALSE,,,,,,,40,galleta,Spanish,Sounds/spa_galleta.mp3,2020-06-24_17h53.08.817,TranslationElicitation_eng-prolific-spa,3.2.4,Win32,60,5e84efb71d17ad0c8430495a,,1,0,98,36,1,97
,,,,,,,,,,,,,,,,,,,,,,,,,,,,,,,,,,,,,,,,,r,4.782000065,ALLIGATOR,FALSE,,,,,,,40,galleta,Spanish,Sounds/spa_galleta.mp3,2020-06-24_17h53.08.817,TranslationElicitation_eng-prolific-spa,3.2.4,Win32,60,5e84efb71d17ad0c8430495a,,1,0,98,36,1,97
,,,,,,,,,,,,,,,,,,,,,,,,,,,,,,,,,,,,,,,,,return,5.282000065,ALLIGATOR,FALSE,,,,,,,40,galleta,Spanish,Sounds/spa_galleta.mp3,2020-06-24_17h53.08.817,TranslationElicitation_eng-prolific-spa,3.2.4,Win32,60,5e84efb71d17ad0c8430495a,5.282000065,1,0,98,36,1,97
,,,,,,,,,,,,,,,,,,,,,,,,,,,,,,,,,,,,,,,,,,,,,,,,,,,40,galleta,Spanish,Sounds/spa_galleta.mp3,2020-06-24_17h53.08.817,TranslationElicitation_eng-prolific-spa,3.2.4,Win32,60,5e84efb71d17ad0c8430495a,,1,0,98,36,1,97
,,,,,,,,,,,,,,,,,,,,,,,,,,,,,,,,,,,,,,,,,m,1.448999882,M,FALSE,,,,,,,64,moneda,Spanish,Sounds/spa_moneda.mp3,2020-06-24_17h53.08.817,TranslationElicitation_eng-prolific-spa,3.2.4,Win32,60,5e84efb71d17ad0c8430495a,,1,0,98,60,1,97
,,,,,,,,,,,,,,,,,,,,,,,,,,,,,,,,,,,,,,,,,o,1.598999977,MO,FALSE,,,,,,,64,moneda,Spanish,Sounds/spa_moneda.mp3,2020-06-24_17h53.08.817,TranslationElicitation_eng-prolific-spa,3.2.4,Win32,60,5e84efb71d17ad0c8430495a,,1,0,98,60,1,97
,,,,,,,,,,,,,,,,,,,,,,,,,,,,,,,,,,,,,,,,,n,1.732999802,MON,FALSE,,,,,,,64,moneda,Spanish,Sounds/spa_moneda.mp3,2020-06-24_17h53.08.817,TranslationElicitation_eng-prolific-spa,3.2.4,Win32,60,5e84efb71d17ad0c8430495a,,1,0,98,60,1,97
,,,,,,,,,,,,,,,,,,,,,,,,,,,,,,,,,,,,,,,,,e,1.816999912,MONE,FALSE,,,,,,,64,moneda,Spanish,Sounds/spa_moneda.mp3,2020-06-24_17h53.08.817,TranslationElicitation_eng-prolific-spa,3.2.4,Win32,60,5e84efb71d17ad0c8430495a,,1,0,98,60,1,97
,,,,,,,,,,,,,,,,,,,,,,,,,,,,,,,,,,,,,,,,,y,1.915999889,MONEY,FALSE,,,,,,,64,moneda,Spanish,Sounds/spa_moneda.mp3,2020-06-24_17h53.08.817,TranslationElicitation_eng-prolific-spa,3.2.4,Win32,60,5e84efb71d17ad0c8430495a,,1,0,98,60,1,97
,,,,,,,,,,,,,,,,,,,,,,,,,,,,,,,,,,,,,,,,,return,2.515999794,MONEY,FALSE,,,,,,,64,moneda,Spanish,Sounds/spa_moneda.mp3,2020-06-24_17h53.08.817,TranslationElicitation_eng-prolific-spa,3.2.4,Win32,60,5e84efb71d17ad0c8430495a,2.515999794,1,0,98,60,1,97
,,,,,,,,,,,,,,,,,,,,,,,,,,,,,,,,,,,,,,,,,,,,,,,,,,,64,moneda,Spanish,Sounds/spa_moneda.mp3,2020-06-24_17h53.08.817,TranslationElicitation_eng-prolific-spa,3.2.4,Win32,60,5e84efb71d17ad0c8430495a,,1,0,98,60,1,97
,,,,,,,,,,,,,,,,,,,,,,,,,,,,,,,,,,,,,,,,,s,3.567000151,S,FALSE,,,,,,,25,cesta,Spanish,Sounds/spa_cesta.mp3,2020-06-24_17h53.08.817,TranslationElicitation_eng-prolific-spa,3.2.4,Win32,60,5e84efb71d17ad0c8430495a,,1,0,98,23,1,97
,,,,,,,,,,,,,,,,,,,,,,,,,,,,,,,,,,,,,,,,,i,3.668000221,SI,FALSE,,,,,,,25,cesta,Spanish,Sounds/spa_cesta.mp3,2020-06-24_17h53.08.817,TranslationElicitation_eng-prolific-spa,3.2.4,Win32,60,5e84efb71d17ad0c8430495a,,1,0,98,23,1,97
,,,,,,,,,,,,,,,,,,,,,,,,,,,,,,,,,,,,,,,,,s,3.917000055,SIS,FALSE,,,,,,,25,cesta,Spanish,Sounds/spa_cesta.mp3,2020-06-24_17h53.08.817,TranslationElicitation_eng-prolific-spa,3.2.4,Win32,60,5e84efb71d17ad0c8430495a,,1,0,98,23,1,97
,,,,,,,,,,,,,,,,,,,,,,,,,,,,,,,,,,,,,,,,,t,4.267000198,SIST,FALSE,,,,,,,25,cesta,Spanish,Sounds/spa_cesta.mp3,2020-06-24_17h53.08.817,TranslationElicitation_eng-prolific-spa,3.2.4,Win32,60,5e84efb71d17ad0c8430495a,,1,0,98,23,1,97
,,,,,,,,,,,,,,,,,,,,,,,,,,,,,,,,,,,,,,,,,e,4.433000088,SISTE,FALSE,,,,,,,25,cesta,Spanish,Sounds/spa_cesta.mp3,2020-06-24_17h53.08.817,TranslationElicitation_eng-prolific-spa,3.2.4,Win32,60,5e84efb71d17ad0c8430495a,,1,0,98,23,1,97
,,,,,,,,,,,,,,,,,,,,,,,,,,,,,,,,,,,,,,,,,r,4.48300004,SISTER,FALSE,,,,,,,25,cesta,Spanish,Sounds/spa_cesta.mp3,2020-06-24_17h53.08.817,TranslationElicitation_eng-prolific-spa,3.2.4,Win32,60,5e84efb71d17ad0c8430495a,,1,0,98,23,1,97
,,,,,,,,,,,,,,,,,,,,,,,,,,,,,,,,,,,,,,,,,return,4.899000168,SISTER,FALSE,,,,,,,25,cesta,Spanish,Sounds/spa_cesta.mp3,2020-06-24_17h53.08.817,TranslationElicitation_eng-prolific-spa,3.2.4,Win32,60,5e84efb71d17ad0c8430495a,4.899000168,1,0,98,23,1,97
,,,,,,,,,,,,,,,,,,,,,,,,,,,,,,,,,,,,,,,,,,,,,,,,,,,25,cesta,Spanish,Sounds/spa_cesta.mp3,2020-06-24_17h53.08.817,TranslationElicitation_eng-prolific-spa,3.2.4,Win32,60,5e84efb71d17ad0c8430495a,,1,0,98,23,1,97
,,,,,,,,,,,,,,,,,,,,,,,,,,,,,,,,,,,,,,,,,h,3.07400012,H,FALSE,,,,,,,49,hormiga,Spanish,Sounds/spa_hormiga.mp3,2020-06-24_17h53.08.817,TranslationElicitation_eng-prolific-spa,3.2.4,Win32,60,5e84efb71d17ad0c8430495a,,1,0,98,45,1,97
,,,,,,,,,,,,,,,,,,,,,,,,,,,,,,,,,,,,,,,,,u,3.223999977,HU,FALSE,,,,,,,49,hormiga,Spanish,Sounds/spa_hormiga.mp3,2020-06-24_17h53.08.817,TranslationElicitation_eng-prolific-spa,3.2.4,Win32,60,5e84efb71d17ad0c8430495a,,1,0,98,45,1,97
,,,,,,,,,,,,,,,,,,,,,,,,,,,,,,,,,,,,,,,,,m,3.440999985,HUM,FALSE,,,,,,,49,hormiga,Spanish,Sounds/spa_hormiga.mp3,2020-06-24_17h53.08.817,TranslationElicitation_eng-prolific-spa,3.2.4,Win32,60,5e84efb71d17ad0c8430495a,,1,0,98,45,1,97
,,,,,,,,,,,,,,,,,,,,,,,,,,,,,,,,,,,,,,,,,i,3.57400012,HUMI,FALSE,,,,,,,49,hormiga,Spanish,Sounds/spa_hormiga.mp3,2020-06-24_17h53.08.817,TranslationElicitation_eng-prolific-spa,3.2.4,Win32,60,5e84efb71d17ad0c8430495a,,1,0,98,45,1,97
,,,,,,,,,,,,,,,,,,,,,,,,,,,,,,,,,,,,,,,,,d,3.723999977,HUMID,FALSE,,,,,,,49,hormiga,Spanish,Sounds/spa_hormiga.mp3,2020-06-24_17h53.08.817,TranslationElicitation_eng-prolific-spa,3.2.4,Win32,60,5e84efb71d17ad0c8430495a,,1,0,98,45,1,97
,,,,,,,,,,,,,,,,,,,,,,,,,,,,,,,,,,,,,,,,,return,4.140000105,HUMID,FALSE,,,,,,,49,hormiga,Spanish,Sounds/spa_hormiga.mp3,2020-06-24_17h53.08.817,TranslationElicitation_eng-prolific-spa,3.2.4,Win32,60,5e84efb71d17ad0c8430495a,4.140000105,1,0,98,45,1,97
,,,,,,,,,,,,,,,,,,,,,,,,,,,,,,,,,,,,,,,,,,,,,,,,,,,49,hormiga,Spanish,Sounds/spa_hormiga.mp3,2020-06-24_17h53.08.817,TranslationElicitation_eng-prolific-spa,3.2.4,Win32,60,5e84efb71d17ad0c8430495a,,1,0,98,45,1,97
,,,,,,,,,,,,,,,,,,,,,,,,,,,,,,,,,,,,,,,,,l,5.513999939,L,FALSE,,,,,,,55,leon,Spanish,Sounds/spa_leon.mp3,2020-06-24_17h53.08.817,TranslationElicitation_eng-prolific-spa,3.2.4,Win32,60,5e84efb71d17ad0c8430495a,,1,0,98,51,1,97
,,,,,,,,,,,,,,,,,,,,,,,,,,,,,,,,,,,,,,,,,i,5.749000072,LI,FALSE,,,,,,,55,leon,Spanish,Sounds/spa_leon.mp3,2020-06-24_17h53.08.817,TranslationElicitation_eng-prolific-spa,3.2.4,Win32,60,5e84efb71d17ad0c8430495a,,1,0,98,51,1,97
,,,,,,,,,,,,,,,,,,,,,,,,,,,,,,,,,,,,,,,,,o,5.901000023,LIO,FALSE,,,,,,,55,leon,Spanish,Sounds/spa_leon.mp3,2020-06-24_17h53.08.817,TranslationElicitation_eng-prolific-spa,3.2.4,Win32,60,5e84efb71d17ad0c8430495a,,1,0,98,51,1,97
,,,,,,,,,,,,,,,,,,,,,,,,,,,,,,,,,,,,,,,,,n,6.029999971,LION,FALSE,,,,,,,55,leon,Spanish,Sounds/spa_leon.mp3,2020-06-24_17h53.08.817,TranslationElicitation_eng-prolific-spa,3.2.4,Win32,60,5e84efb71d17ad0c8430495a,,1,0,98,51,1,97
,,,,,,,,,,,,,,,,,,,,,,,,,,,,,,,,,,,,,,,,,return,6.379999876,LION,FALSE,,,,,,,55,leon,Spanish,Sounds/spa_leon.mp3,2020-06-24_17h53.08.817,TranslationElicitation_eng-prolific-spa,3.2.4,Win32,60,5e84efb71d17ad0c8430495a,6.379999876,1,0,98,51,1,97
,,,,,,,,,,,,,,,,,,,,,,,,,,,,,,,,,,,,,,,,,,,,,,,,,,,55,leon,Spanish,Sounds/spa_leon.mp3,2020-06-24_17h53.08.817,TranslationElicitation_eng-prolific-spa,3.2.4,Win32,60,5e84efb71d17ad0c8430495a,,1,0,98,51,1,97
,,,,,,,,,,,,,,,,,,,,,,,,,,,,,,,,,,,,,,,,,d,1.569000006,D,FALSE,,,,,,,33,dedo,Spanish,Sounds/spa_dedo.mp3,2020-06-24_17h53.08.817,TranslationElicitation_eng-prolific-spa,3.2.4,Win32,60,5e84efb71d17ad0c8430495a,,1,0,98,29,1,97
,,,,,,,,,,,,,,,,,,,,,,,,,,,,,,,,,,,,,,,,,e,1.848999977,DE,FALSE,,,,,,,33,dedo,Spanish,Sounds/spa_dedo.mp3,2020-06-24_17h53.08.817,TranslationElicitation_eng-prolific-spa,3.2.4,Win32,60,5e84efb71d17ad0c8430495a,,1,0,98,29,1,97
,,,,,,,,,,,,,,,,,,,,,,,,,,,,,,,,,,,,,,,,,a,1.898999929,DEA,FALSE,,,,,,,33,dedo,Spanish,Sounds/spa_dedo.mp3,2020-06-24_17h53.08.817,TranslationElicitation_eng-prolific-spa,3.2.4,Win32,60,5e84efb71d17ad0c8430495a,,1,0,98,29,1,97
,,,,,,,,,,,,,,,,,,,,,,,,,,,,,,,,,,,,,,,,,d,2.016000032,DEAD,FALSE,,,,,,,33,dedo,Spanish,Sounds/spa_dedo.mp3,2020-06-24_17h53.08.817,TranslationElicitation_eng-prolific-spa,3.2.4,Win32,60,5e84efb71d17ad0c8430495a,,1,0,98,29,1,97
,,,,,,,,,,,,,,,,,,,,,,,,,,,,,,,,,,,,,,,,,return,2.414999962,DEAD,FALSE,,,,,,,33,dedo,Spanish,Sounds/spa_dedo.mp3,2020-06-24_17h53.08.817,TranslationElicitation_eng-prolific-spa,3.2.4,Win32,60,5e84efb71d17ad0c8430495a,2.414999962,1,0,98,29,1,97
,,,,,,,,,,,,,,,,,,,,,,,,,,,,,,,,,,,,,,,,,,,,,,,,,,,33,dedo,Spanish,Sounds/spa_dedo.mp3,2020-06-24_17h53.08.817,TranslationElicitation_eng-prolific-spa,3.2.4,Win32,60,5e84efb71d17ad0c8430495a,,1,0,98,29,1,97
,,,,,,,,,,,,,,,,,,,,,,,,,,,,,,,,,,,,,,,,,b,2.61500001,B,FALSE,,,,,,,9,boli,Spanish,Sounds/spa_boli.mp3,2020-06-24_17h53.08.817,TranslationElicitation_eng-prolific-spa,3.2.4,Win32,60,5e84efb71d17ad0c8430495a,,1,0,98,7,1,97
,,,,,,,,,,,,,,,,,,,,,,,,,,,,,,,,,,,,,,,,,u,2.782000065,BU,FALSE,,,,,,,9,boli,Spanish,Sounds/spa_boli.mp3,2020-06-24_17h53.08.817,TranslationElicitation_eng-prolific-spa,3.2.4,Win32,60,5e84efb71d17ad0c8430495a,,1,0,98,7,1,97
,,,,,,,,,,,,,,,,,,,,,,,,,,,,,,,,,,,,,,,,,l,3.015000105,BUL,FALSE,,,,,,,9,boli,Spanish,Sounds/spa_boli.mp3,2020-06-24_17h53.08.817,TranslationElicitation_eng-prolific-spa,3.2.4,Win32,60,5e84efb71d17ad0c8430495a,,1,0,98,7,1,97
,,,,,,,,,,,,,,,,,,,,,,,,,,,,,,,,,,,,,,,,,l,3.148999929,BULL,FALSE,,,,,,,9,boli,Spanish,Sounds/spa_boli.mp3,2020-06-24_17h53.08.817,TranslationElicitation_eng-prolific-spa,3.2.4,Win32,60,5e84efb71d17ad0c8430495a,,1,0,98,7,1,97
,,,,,,,,,,,,,,,,,,,,,,,,,,,,,,,,,,,,,,,,,y,3.249000072,BULLY,FALSE,,,,,,,9,boli,Spanish,Sounds/spa_boli.mp3,2020-06-24_17h53.08.817,TranslationElicitation_eng-prolific-spa,3.2.4,Win32,60,5e84efb71d17ad0c8430495a,,1,0,98,7,1,97
,,,,,,,,,,,,,,,,,,,,,,,,,,,,,,,,,,,,,,,,,return,3.482000113,BULLY,FALSE,,,,,,,9,boli,Spanish,Sounds/spa_boli.mp3,2020-06-24_17h53.08.817,TranslationElicitation_eng-prolific-spa,3.2.4,Win32,60,5e84efb71d17ad0c8430495a,3.482000113,1,0,98,7,1,97
,,,,,,,,,,,,,,,,,,,,,,,,,,,,,,,,,,,,,,,,,,,,,,,,,,,9,boli,Spanish,Sounds/spa_boli.mp3,2020-06-24_17h53.08.817,TranslationElicitation_eng-prolific-spa,3.2.4,Win32,60,5e84efb71d17ad0c8430495a,,1,0,98,7,1,97
,,,,,,,,,,,,,,,,,,,,,,,,,,,,,,,,,,,,,,,,,s,2.215999842,S,FALSE,,,,,,,93,sol,Spanish,Sounds/spa_sol.mp3,2020-06-24_17h53.08.817,TranslationElicitation_eng-prolific-spa,3.2.4,Win32,60,5e84efb71d17ad0c8430495a,,1,0,98,88,1,97
,,,,,,,,,,,,,,,,,,,,,,,,,,,,,,,,,,,,,,,,,u,2.432999849,SU,FALSE,,,,,,,93,sol,Spanish,Sounds/spa_sol.mp3,2020-06-24_17h53.08.817,TranslationElicitation_eng-prolific-spa,3.2.4,Win32,60,5e84efb71d17ad0c8430495a,,1,0,98,88,1,97
,,,,,,,,,,,,,,,,,,,,,,,,,,,,,,,,,,,,,,,,,n,2.549000025,SUN,FALSE,,,,,,,93,sol,Spanish,Sounds/spa_sol.mp3,2020-06-24_17h53.08.817,TranslationElicitation_eng-prolific-spa,3.2.4,Win32,60,5e84efb71d17ad0c8430495a,,1,0,98,88,1,97
,,,,,,,,,,,,,,,,,,,,,,,,,,,,,,,,,,,,,,,,,return,2.848999977,SUN,FALSE,,,,,,,93,sol,Spanish,Sounds/spa_sol.mp3,2020-06-24_17h53.08.817,TranslationElicitation_eng-prolific-spa,3.2.4,Win32,60,5e84efb71d17ad0c8430495a,2.848999977,1,0,98,88,1,97
,,,,,,,,,,,,,,,,,,,,,,,,,,,,,,,,,,,,,,,,,,,,,,,,,,,93,sol,Spanish,Sounds/spa_sol.mp3,2020-06-24_17h53.08.817,TranslationElicitation_eng-prolific-spa,3.2.4,Win32,60,5e84efb71d17ad0c8430495a,,1,0,98,88,1,97
,,,,,,,,,,,,,,,,,,,,,,,,,,,,,,,,,,,,,,,,,h,4.849999905,H,FALSE,,,,,,,73,oveja,Spanish,Sounds/spa_oveja.mp3,2020-06-24_17h53.08.817,TranslationElicitation_eng-prolific-spa,3.2.4,Win32,60,5e84efb71d17ad0c8430495a,,1,0,98,68,1,97
,,,,,,,,,,,,,,,,,,,,,,,,,,,,,,,,,,,,,,,,,a,5.149999857,HA,FALSE,,,,,,,73,oveja,Spanish,Sounds/spa_oveja.mp3,2020-06-24_17h53.08.817,TranslationElicitation_eng-prolific-spa,3.2.4,Win32,60,5e84efb71d17ad0c8430495a,,1,0,98,68,1,97
,,,,,,,,,,,,,,,,,,,,,,,,,,,,,,,,,,,,,,,,,p,5.315999985,HAP,FALSE,,,,,,,73,oveja,Spanish,Sounds/spa_oveja.mp3,2020-06-24_17h53.08.817,TranslationElicitation_eng-prolific-spa,3.2.4,Win32,60,5e84efb71d17ad0c8430495a,,1,0,98,68,1,97
,,,,,,,,,,,,,,,,,,,,,,,,,,,,,,,,,,,,,,,,,p,5.450000048,HAPP,FALSE,,,,,,,73,oveja,Spanish,Sounds/spa_oveja.mp3,2020-06-24_17h53.08.817,TranslationElicitation_eng-prolific-spa,3.2.4,Win32,60,5e84efb71d17ad0c8430495a,,1,0,98,68,1,97
,,,,,,,,,,,,,,,,,,,,,,,,,,,,,,,,,,,,,,,,,y,5.516000032,HAPPY,FALSE,,,,,,,73,oveja,Spanish,Sounds/spa_oveja.mp3,2020-06-24_17h53.08.817,TranslationElicitation_eng-prolific-spa,3.2.4,Win32,60,5e84efb71d17ad0c8430495a,,1,0,98,68,1,97
,,,,,,,,,,,,,,,,,,,,,,,,,,,,,,,,,,,,,,,,,return,5.749000072,HAPPY,FALSE,,,,,,,73,oveja,Spanish,Sounds/spa_oveja.mp3,2020-06-24_17h53.08.817,TranslationElicitation_eng-prolific-spa,3.2.4,Win32,60,5e84efb71d17ad0c8430495a,5.749000072,1,0,98,68,1,97
,,,,,,,,,,,,,,,,,,,,,,,,,,,,,,,,,,,,,,,,,,,,,,,,,,,73,oveja,Spanish,Sounds/spa_oveja.mp3,2020-06-24_17h53.08.817,TranslationElicitation_eng-prolific-spa,3.2.4,Win32,60,5e84efb71d17ad0c8430495a,,1,0,98,68,1,97
,,,,,,,,,,,,,,,,,,,,,,,,,,,,,,,,,,,,,,,,,z,1.764999866,Z,FALSE,,,,,,,21,cebra,Spanish,Sounds/spa_cebra.mp3,2020-06-24_17h53.08.817,TranslationElicitation_eng-prolific-spa,3.2.4,Win32,60,5e84efb71d17ad0c8430495a,,1,0,98,19,1,97
,,,,,,,,,,,,,,,,,,,,,,,,,,,,,,,,,,,,,,,,,e,1.999000072,ZE,FALSE,,,,,,,21,cebra,Spanish,Sounds/spa_cebra.mp3,2020-06-24_17h53.08.817,TranslationElicitation_eng-prolific-spa,3.2.4,Win32,60,5e84efb71d17ad0c8430495a,,1,0,98,19,1,97
,,,,,,,,,,,,,,,,,,,,,,,,,,,,,,,,,,,,,,,,,b,2.164999962,ZEB,FALSE,,,,,,,21,cebra,Spanish,Sounds/spa_cebra.mp3,2020-06-24_17h53.08.817,TranslationElicitation_eng-prolific-spa,3.2.4,Win32,60,5e84efb71d17ad0c8430495a,,1,0,98,19,1,97
,,,,,,,,,,,,,,,,,,,,,,,,,,,,,,,,,,,,,,,,,r,2.282000065,ZEBR,FALSE,,,,,,,21,cebra,Spanish,Sounds/spa_cebra.mp3,2020-06-24_17h53.08.817,TranslationElicitation_eng-prolific-spa,3.2.4,Win32,60,5e84efb71d17ad0c8430495a,,1,0,98,19,1,97
,,,,,,,,,,,,,,,,,,,,,,,,,,,,,,,,,,,,,,,,,a,2.36500001,ZEBRA,FALSE,,,,,,,21,cebra,Spanish,Sounds/spa_cebra.mp3,2020-06-24_17h53.08.817,TranslationElicitation_eng-prolific-spa,3.2.4,Win32,60,5e84efb71d17ad0c8430495a,,1,0,98,19,1,97
,,,,,,,,,,,,,,,,,,,,,,,,,,,,,,,,,,,,,,,,,return,2.782000065,ZEBRA,FALSE,,,,,,,21,cebra,Spanish,Sounds/spa_cebra.mp3,2020-06-24_17h53.08.817,TranslationElicitation_eng-prolific-spa,3.2.4,Win32,60,5e84efb71d17ad0c8430495a,2.782000065,1,0,98,19,1,97
,,,,,,,,,,,,,,,,,,,,,,,,,,,,,,,,,,,,,,,,,,,,,,,,,,,21,cebra,Spanish,Sounds/spa_cebra.mp3,2020-06-24_17h53.08.817,TranslationElicitation_eng-prolific-spa,3.2.4,Win32,60,5e84efb71d17ad0c8430495a,,1,0,98,19,1,97
,,,,,,,,,,,,,,,,,,,,,,,,,,,,,,,,,,,,,,,,,b,4.934000015,B,FALSE,,,,,,,4,biberon,Spanish,Sounds/spa_biberon.mp3,2020-06-24_17h53.08.817,TranslationElicitation_eng-prolific-spa,3.2.4,Win32,60,5e84efb71d17ad0c8430495a,,1,0,98,2,1,97
,,,,,,,,,,,,,,,,,,,,,,,,,,,,,,,,,,,,,,,,,r,5.067000151,BR,FALSE,,,,,,,4,biberon,Spanish,Sounds/spa_biberon.mp3,2020-06-24_17h53.08.817,TranslationElicitation_eng-prolific-spa,3.2.4,Win32,60,5e84efb71d17ad0c8430495a,,1,0,98,2,1,97
,,,,,,,,,,,,,,,,,,,,,,,,,,,,,,,,,,,,,,,,,i,5.183000088,BRI,FALSE,,,,,,,4,biberon,Spanish,Sounds/spa_biberon.mp3,2020-06-24_17h53.08.817,TranslationElicitation_eng-prolific-spa,3.2.4,Win32,60,5e84efb71d17ad0c8430495a,,1,0,98,2,1,97
,,,,,,,,,,,,,,,,,,,,,,,,,,,,,,,,,,,,,,,,,b,5.549999952,BRIB,FALSE,,,,,,,4,biberon,Spanish,Sounds/spa_biberon.mp3,2020-06-24_17h53.08.817,TranslationElicitation_eng-prolific-spa,3.2.4,Win32,60,5e84efb71d17ad0c8430495a,,1,0,98,2,1,97
,,,,,,,,,,,,,,,,,,,,,,,,,,,,,,,,,,,,,,,,,w,5.76699996,BRIBW,FALSE,,,,,,,4,biberon,Spanish,Sounds/spa_biberon.mp3,2020-06-24_17h53.08.817,TranslationElicitation_eng-prolific-spa,3.2.4,Win32,60,5e84efb71d17ad0c8430495a,,1,0,98,2,1,97
,,,,,,,,,,,,,,,,,,,,,,,,,,,,,,,,,,,,,,,,,backspace,6.335999966,BRIB,TRUE,,,,,,,4,biberon,Spanish,Sounds/spa_biberon.mp3,2020-06-24_17h53.08.817,TranslationElicitation_eng-prolific-spa,3.2.4,Win32,60,5e84efb71d17ad0c8430495a,,1,0,98,2,1,97
,,,,,,,,,,,,,,,,,,,,,,,,,,,,,,,,,,,,,,,,,e,6.483999968,BRIBE,TRUE,,,,,,,4,biberon,Spanish,Sounds/spa_biberon.mp3,2020-06-24_17h53.08.817,TranslationElicitation_eng-prolific-spa,3.2.4,Win32,60,5e84efb71d17ad0c8430495a,,1,0,98,2,1,97
,,,,,,,,,,,,,,,,,,,,,,,,,,,,,,,,,,,,,,,,,return,6.71600008,BRIBE,TRUE,,,,,,,4,biberon,Spanish,Sounds/spa_biberon.mp3,2020-06-24_17h53.08.817,TranslationElicitation_eng-prolific-spa,3.2.4,Win32,60,5e84efb71d17ad0c8430495a,6.71600008,1,0,98,2,1,97
,,,,,,,,,,,,,,,,,,,,,,,,,,,,,,,,,,,,,,,,,,,,,,,,,,,4,biberon,Spanish,Sounds/spa_biberon.mp3,2020-06-24_17h53.08.817,TranslationElicitation_eng-prolific-spa,3.2.4,Win32,60,5e84efb71d17ad0c8430495a,,1,0,98,2,1,97
,,,,,,,,,,,,,,,,,,,,,,,,,,,,,,,,,,,,,,,,,l,5.914000034,L,FALSE,,,,,,,52,lapiz,Spanish,Sounds/spa_lapiz.mp3,2020-06-24_17h53.08.817,TranslationElicitation_eng-prolific-spa,3.2.4,Win32,60,5e84efb71d17ad0c8430495a,,1,0,98,48,1,97
,,,,,,,,,,,,,,,,,,,,,,,,,,,,,,,,,,,,,,,,,a,6.080000162,LA,FALSE,,,,,,,52,lapiz,Spanish,Sounds/spa_lapiz.mp3,2020-06-24_17h53.08.817,TranslationElicitation_eng-prolific-spa,3.2.4,Win32,60,5e84efb71d17ad0c8430495a,,1,0,98,48,1,97
,,,,,,,,,,,,,,,,,,,,,,,,,,,,,,,,,,,,,,,,,p,6.230000019,LAP,FALSE,,,,,,,52,lapiz,Spanish,Sounds/spa_lapiz.mp3,2020-06-24_17h53.08.817,TranslationElicitation_eng-prolific-spa,3.2.4,Win32,60,5e84efb71d17ad0c8430495a,,1,0,98,48,1,97
,,,,,,,,,,,,,,,,,,,,,,,,,,,,,,,,,,,,,,,,,s,6.263999939,LAPS,FALSE,,,,,,,52,lapiz,Spanish,Sounds/spa_lapiz.mp3,2020-06-24_17h53.08.817,TranslationElicitation_eng-prolific-spa,3.2.4,Win32,60,5e84efb71d17ad0c8430495a,,1,0,98,48,1,97
,,,,,,,,,,,,,,,,,,,,,,,,,,,,,,,,,,,,,,,,,return,6.697000027,LAPS,FALSE,,,,,,,52,lapiz,Spanish,Sounds/spa_lapiz.mp3,2020-06-24_17h53.08.817,TranslationElicitation_eng-prolific-spa,3.2.4,Win32,60,5e84efb71d17ad0c8430495a,6.697000027,1,0,98,48,1,97
,,,,,,,,,,,,,,,,,,,,,,,,,,,,,,,,,,,,,,,,,,,,,,,,,,,52,lapiz,Spanish,Sounds/spa_lapiz.mp3,2020-06-24_17h53.08.817,TranslationElicitation_eng-prolific-spa,3.2.4,Win32,60,5e84efb71d17ad0c8430495a,,1,0,98,48,1,97
,,,,,,,,,,,,,,,,,,,,,,,,,,,,,,,,,,,,,,,,,f,1.96600008,F,FALSE,,,,,,,37,flor,Spanish,Sounds/spa_flor.mp3,2020-06-24_17h53.08.817,TranslationElicitation_eng-prolific-spa,3.2.4,Win32,60,5e84efb71d17ad0c8430495a,,1,0,98,33,1,97
,,,,,,,,,,,,,,,,,,,,,,,,,,,,,,,,,,,,,,,,,l,2.299000025,FL,FALSE,,,,,,,37,flor,Spanish,Sounds/spa_flor.mp3,2020-06-24_17h53.08.817,TranslationElicitation_eng-prolific-spa,3.2.4,Win32,60,5e84efb71d17ad0c8430495a,,1,0,98,33,1,97
,,,,,,,,,,,,,,,,,,,,,,,,,,,,,,,,,,,,,,,,,o,2.499000072,FLO,FALSE,,,,,,,37,flor,Spanish,Sounds/spa_flor.mp3,2020-06-24_17h53.08.817,TranslationElicitation_eng-prolific-spa,3.2.4,Win32,60,5e84efb71d17ad0c8430495a,,1,0,98,33,1,97
,,,,,,,,,,,,,,,,,,,,,,,,,,,,,,,,,,,,,,,,,o,2.633000135,FLOO,FALSE,,,,,,,37,flor,Spanish,Sounds/spa_flor.mp3,2020-06-24_17h53.08.817,TranslationElicitation_eng-prolific-spa,3.2.4,Win32,60,5e84efb71d17ad0c8430495a,,1,0,98,33,1,97
,,,,,,,,,,,,,,,,,,,,,,,,,,,,,,,,,,,,,,,,,r,2.69900012,FLOOR,FALSE,,,,,,,37,flor,Spanish,Sounds/spa_flor.mp3,2020-06-24_17h53.08.817,TranslationElicitation_eng-prolific-spa,3.2.4,Win32,60,5e84efb71d17ad0c8430495a,,1,0,98,33,1,97
,,,,,,,,,,,,,,,,,,,,,,,,,,,,,,,,,,,,,,,,,return,2.883000135,FLOOR,FALSE,,,,,,,37,flor,Spanish,Sounds/spa_flor.mp3,2020-06-24_17h53.08.817,TranslationElicitation_eng-prolific-spa,3.2.4,Win32,60,5e84efb71d17ad0c8430495a,2.883000135,1,0,98,33,1,97
,,,,,,,,,,,,,,,,,,,,,,,,,,,,,,,,,,,,,,,,,,,,,,,,,,,37,flor,Spanish,Sounds/spa_flor.mp3,2020-06-24_17h53.08.817,TranslationElicitation_eng-prolific-spa,3.2.4,Win32,60,5e84efb71d17ad0c8430495a,,1,0,98,33,1,97
,,,,,,,,,,,,,,,,,,,,,,,,,,,,,,,,,,,,,,,,,m,3.684000015,M,FALSE,,,,,,,62,martillo,Spanish,Sounds/spa_martillo.mp3,2020-06-24_17h53.08.817,TranslationElicitation_eng-prolific-spa,3.2.4,Win32,60,5e84efb71d17ad0c8430495a,,1,0,98,58,1,97
,,,,,,,,,,,,,,,,,,,,,,,,,,,,,,,,,,,,,,,,,a,3.817000151,MA,FALSE,,,,,,,62,martillo,Spanish,Sounds/spa_martillo.mp3,2020-06-24_17h53.08.817,TranslationElicitation_eng-prolific-spa,3.2.4,Win32,60,5e84efb71d17ad0c8430495a,,1,0,98,58,1,97
,,,,,,,,,,,,,,,,,,,,,,,,,,,,,,,,,,,,,,,,,r,4.101000071,MAR,FALSE,,,,,,,62,martillo,Spanish,Sounds/spa_martillo.mp3,2020-06-24_17h53.08.817,TranslationElicitation_eng-prolific-spa,3.2.4,Win32,60,5e84efb71d17ad0c8430495a,,1,0,98,58,1,97
,,,,,,,,,,,,,,,,,,,,,,,,,,,,,,,,,,,,,,,,,r,4.23300004,MARR,FALSE,,,,,,,62,martillo,Spanish,Sounds/spa_martillo.mp3,2020-06-24_17h53.08.817,TranslationElicitation_eng-prolific-spa,3.2.4,Win32,60,5e84efb71d17ad0c8430495a,,1,0,98,58,1,97
,,,,,,,,,,,,,,,,,,,,,,,,,,,,,,,,,,,,,,,,,y,4.318000078,MARRY,FALSE,,,,,,,62,martillo,Spanish,Sounds/spa_martillo.mp3,2020-06-24_17h53.08.817,TranslationElicitation_eng-prolific-spa,3.2.4,Win32,60,5e84efb71d17ad0c8430495a,,1,0,98,58,1,97
,,,,,,,,,,,,,,,,,,,,,,,,,,,,,,,,,,,,,,,,,return,4.634000063,MARRY,FALSE,,,,,,,62,martillo,Spanish,Sounds/spa_martillo.mp3,2020-06-24_17h53.08.817,TranslationElicitation_eng-prolific-spa,3.2.4,Win32,60,5e84efb71d17ad0c8430495a,4.634000063,1,0,98,58,1,97
,,,,,,,,,,,,,,,,,,,,,,,,,,,,,,,,,,,,,,,,,,,,,,,,,,,62,martillo,Spanish,Sounds/spa_martillo.mp3,2020-06-24_17h53.08.817,TranslationElicitation_eng-prolific-spa,3.2.4,Win32,60,5e84efb71d17ad0c8430495a,,1,0,98,58,1,97
,,,,,,,,,,,,,,,,,,,,,,,,,,,,,,,,,,,,,,,,,m,2.099999905,M,FALSE,,,,,,,59,mano,Spanish,Sounds/spa_mano.mp3,2020-06-24_17h53.08.817,TranslationElicitation_eng-prolific-spa,3.2.4,Win32,60,5e84efb71d17ad0c8430495a,,1,0,98,55,1,97
,,,,,,,,,,,,,,,,,,,,,,,,,,,,,,,,,,,,,,,,,a,2.217999935,MA,FALSE,,,,,,,59,mano,Spanish,Sounds/spa_mano.mp3,2020-06-24_17h53.08.817,TranslationElicitation_eng-prolific-spa,3.2.4,Win32,60,5e84efb71d17ad0c8430495a,,1,0,98,55,1,97
,,,,,,,,,,,,,,,,,,,,,,,,,,,,,,,,,,,,,,,,,n,2.336999893,MAN,FALSE,,,,,,,59,mano,Spanish,Sounds/spa_mano.mp3,2020-06-24_17h53.08.817,TranslationElicitation_eng-prolific-spa,3.2.4,Win32,60,5e84efb71d17ad0c8430495a,,1,0,98,55,1,97
,,,,,,,,,,,,,,,,,,,,,,,,,,,,,,,,,,,,,,,,,u,2.448999882,MANU,FALSE,,,,,,,59,mano,Spanish,Sounds/spa_mano.mp3,2020-06-24_17h53.08.817,TranslationElicitation_eng-prolific-spa,3.2.4,Win32,60,5e84efb71d17ad0c8430495a,,1,0,98,55,1,97
,,,,,,,,,,,,,,,,,,,,,,,,,,,,,,,,,,,,,,,,,a,2.566999912,MANUA,FALSE,,,,,,,59,mano,Spanish,Sounds/spa_mano.mp3,2020-06-24_17h53.08.817,TranslationElicitation_eng-prolific-spa,3.2.4,Win32,60,5e84efb71d17ad0c8430495a,,1,0,98,55,1,97
,,,,,,,,,,,,,,,,,,,,,,,,,,,,,,,,,,,,,,,,,l,2.715999842,MANUAL,FALSE,,,,,,,59,mano,Spanish,Sounds/spa_mano.mp3,2020-06-24_17h53.08.817,TranslationElicitation_eng-prolific-spa,3.2.4,Win32,60,5e84efb71d17ad0c8430495a,,1,0,98,55,1,97
,,,,,,,,,,,,,,,,,,,,,,,,,,,,,,,,,,,,,,,,,return,3.250999928,MANUAL,FALSE,,,,,,,59,mano,Spanish,Sounds/spa_mano.mp3,2020-06-24_17h53.08.817,TranslationElicitation_eng-prolific-spa,3.2.4,Win32,60,5e84efb71d17ad0c8430495a,3.250999928,1,0,98,55,1,97
,,,,,,,,,,,,,,,,,,,,,,,,,,,,,,,,,,,,,,,,,,,,,,,,,,,59,mano,Spanish,Sounds/spa_mano.mp3,2020-06-24_17h53.08.817,TranslationElicitation_eng-prolific-spa,3.2.4,Win32,60,5e84efb71d17ad0c8430495a,,1,0,98,55,1,97
,,,,,,,,,,,,,,,,,,,,,,,,,,,,,,,,,,,,,,,,,p,3.264999866,P,FALSE,,,,,,,90,pollo,Spanish,Sounds/spa_pollo.mp3,2020-06-24_17h53.08.817,TranslationElicitation_eng-prolific-spa,3.2.4,Win32,60,5e84efb71d17ad0c8430495a,,1,0,98,85,1,97
,,,,,,,,,,,,,,,,,,,,,,,,,,,,,,,,,,,,,,,,,o,3.398000002,PO,FALSE,,,,,,,90,pollo,Spanish,Sounds/spa_pollo.mp3,2020-06-24_17h53.08.817,TranslationElicitation_eng-prolific-spa,3.2.4,Win32,60,5e84efb71d17ad0c8430495a,,1,0,98,85,1,97
,,,,,,,,,,,,,,,,,,,,,,,,,,,,,,,,,,,,,,,,,u,3.631999969,POU,FALSE,,,,,,,90,pollo,Spanish,Sounds/spa_pollo.mp3,2020-06-24_17h53.08.817,TranslationElicitation_eng-prolific-spa,3.2.4,Win32,60,5e84efb71d17ad0c8430495a,,1,0,98,85,1,97
,,,,,,,,,,,,,,,,,,,,,,,,,,,,,,,,,,,,,,,,,r,3.898000002,POUR,FALSE,,,,,,,90,pollo,Spanish,Sounds/spa_pollo.mp3,2020-06-24_17h53.08.817,TranslationElicitation_eng-prolific-spa,3.2.4,Win32,60,5e84efb71d17ad0c8430495a,,1,0,98,85,1,97
,,,,,,,,,,,,,,,,,,,,,,,,,,,,,,,,,,,,,,,,,return,4.347999811,POUR,FALSE,,,,,,,90,pollo,Spanish,Sounds/spa_pollo.mp3,2020-06-24_17h53.08.817,TranslationElicitation_eng-prolific-spa,3.2.4,Win32,60,5e84efb71d17ad0c8430495a,4.347999811,1,0,98,85,1,97
,,,,,,,,,,,,,,,,,,,,,,,,,,,,,,,,,,,,,,,,,,,,,,,,,,,90,pollo,Spanish,Sounds/spa_pollo.mp3,2020-06-24_17h53.08.817,TranslationElicitation_eng-prolific-spa,3.2.4,Win32,60,5e84efb71d17ad0c8430495a,,1,0,98,85,1,97
,,,,,,,,,,,,,,,,,,,,,,,,,,,,,,,,,,,,,,,,,g,1.282999992,G,FALSE,,,,,,,43,globo,Spanish,Sounds/spa_globo.mp3,2020-06-24_17h53.08.817,TranslationElicitation_eng-prolific-spa,3.2.4,Win32,60,5e84efb71d17ad0c8430495a,,1,0,98,39,1,97
,,,,,,,,,,,,,,,,,,,,,,,,,,,,,,,,,,,,,,,,,l,1.416000128,GL,FALSE,,,,,,,43,globo,Spanish,Sounds/spa_globo.mp3,2020-06-24_17h53.08.817,TranslationElicitation_eng-prolific-spa,3.2.4,Win32,60,5e84efb71d17ad0c8430495a,,1,0,98,39,1,97
,,,,,,,,,,,,,,,,,,,,,,,,,,,,,,,,,,,,,,,,,o,1.567000151,GLO,FALSE,,,,,,,43,globo,Spanish,Sounds/spa_globo.mp3,2020-06-24_17h53.08.817,TranslationElicitation_eng-prolific-spa,3.2.4,Win32,60,5e84efb71d17ad0c8430495a,,1,0,98,39,1,97
,,,,,,,,,,,,,,,,,,,,,,,,,,,,,,,,,,,,,,,,,b,1.766000032,GLOB,FALSE,,,,,,,43,globo,Spanish,Sounds/spa_globo.mp3,2020-06-24_17h53.08.817,TranslationElicitation_eng-prolific-spa,3.2.4,Win32,60,5e84efb71d17ad0c8430495a,,1,0,98,39,1,97
,,,,,,,,,,,,,,,,,,,,,,,,,,,,,,,,,,,,,,,,,e,1.899000168,GLOBE,FALSE,,,,,,,43,globo,Spanish,Sounds/spa_globo.mp3,2020-06-24_17h53.08.817,TranslationElicitation_eng-prolific-spa,3.2.4,Win32,60,5e84efb71d17ad0c8430495a,,1,0,98,39,1,97
,,,,,,,,,,,,,,,,,,,,,,,,,,,,,,,,,,,,,,,,,return,2.21600008,GLOBE,FALSE,,,,,,,43,globo,Spanish,Sounds/spa_globo.mp3,2020-06-24_17h53.08.817,TranslationElicitation_eng-prolific-spa,3.2.4,Win32,60,5e84efb71d17ad0c8430495a,2.21600008,1,0,98,39,1,97
,,,,,,,,,,,,,,,,,,,,,,,,,,,,,,,,,,,,,,,,,,,,,,,,,,,43,globo,Spanish,Sounds/spa_globo.mp3,2020-06-24_17h53.08.817,TranslationElicitation_eng-prolific-spa,3.2.4,Win32,60,5e84efb71d17ad0c8430495a,,1,0,98,39,1,97
,,,,,,,,,,,,,,,,,,,,,,,,,,,,,,,,,,,,,,,,,o,2.999000072,O,FALSE,,,,,,,71,ombligo,Spanish,Sounds/spa_ombligo.mp3,2020-06-24_17h53.08.817,TranslationElicitation_eng-prolific-spa,3.2.4,Win32,60,5e84efb71d17ad0c8430495a,,1,0,98,66,1,97
,,,,,,,,,,,,,,,,,,,,,,,,,,,,,,,,,,,,,,,,,b,3.349000216,OB,FALSE,,,,,,,71,ombligo,Spanish,Sounds/spa_ombligo.mp3,2020-06-24_17h53.08.817,TranslationElicitation_eng-prolific-spa,3.2.4,Win32,60,5e84efb71d17ad0c8430495a,,1,0,98,66,1,97
,,,,,,,,,,,,,,,,,,,,,,,,,,,,,,,,,,,,,,,,,l,3.43900013,OBL,FALSE,,,,,,,71,ombligo,Spanish,Sounds/spa_ombligo.mp3,2020-06-24_17h53.08.817,TranslationElicitation_eng-prolific-spa,3.2.4,Win32,60,5e84efb71d17ad0c8430495a,,1,0,98,66,1,97
,,,,,,,,,,,,,,,,,,,,,,,,,,,,,,,,,,,,,,,,,i,3.583000183,OBLI,FALSE,,,,,,,71,ombligo,Spanish,Sounds/spa_ombligo.mp3,2020-06-24_17h53.08.817,TranslationElicitation_eng-prolific-spa,3.2.4,Win32,60,5e84efb71d17ad0c8430495a,,1,0,98,66,1,97
,,,,,,,,,,,,,,,,,,,,,,,,,,,,,,,,,,,,,,,,,g,3.684000015,OBLIG,FALSE,,,,,,,71,ombligo,Spanish,Sounds/spa_ombligo.mp3,2020-06-24_17h53.08.817,TranslationElicitation_eng-prolific-spa,3.2.4,Win32,60,5e84efb71d17ad0c8430495a,,1,0,98,66,1,97
,,,,,,,,,,,,,,,,,,,,,,,,,,,,,,,,,,,,,,,,,e,3.835000038,OBLIGE,FALSE,,,,,,,71,ombligo,Spanish,Sounds/spa_ombligo.mp3,2020-06-24_17h53.08.817,TranslationElicitation_eng-prolific-spa,3.2.4,Win32,60,5e84efb71d17ad0c8430495a,,1,0,98,66,1,97
,,,,,,,,,,,,,,,,,,,,,,,,,,,,,,,,,,,,,,,,,return,4.232000113,OBLIGE,FALSE,,,,,,,71,ombligo,Spanish,Sounds/spa_ombligo.mp3,2020-06-24_17h53.08.817,TranslationElicitation_eng-prolific-spa,3.2.4,Win32,60,5e84efb71d17ad0c8430495a,4.232000113,1,0,98,66,1,97
,,,,,,,,,,,,,,,,,,,,,,,,,,,,,,,,,,,,,,,,,,,,,,,,,,,71,ombligo,Spanish,Sounds/spa_ombligo.mp3,2020-06-24_17h53.08.817,TranslationElicitation_eng-prolific-spa,3.2.4,Win32,60,5e84efb71d17ad0c8430495a,,1,0,98,66,1,97
,,,,,,,,,,,,,,,,,,,,,,,,,,,,,,,,,,,,,,,,,c,2.86500001,C,FALSE,,,,,,,20,caracol,Spanish,Sounds/spa_caracol.mp3,2020-06-24_17h53.08.817,TranslationElicitation_eng-prolific-spa,3.2.4,Win32,60,5e84efb71d17ad0c8430495a,,1,0,98,18,1,97
,,,,,,,,,,,,,,,,,,,,,,,,,,,,,,,,,,,,,,,,,r,3.115999937,CR,FALSE,,,,,,,20,caracol,Spanish,Sounds/spa_caracol.mp3,2020-06-24_17h53.08.817,TranslationElicitation_eng-prolific-spa,3.2.4,Win32,60,5e84efb71d17ad0c8430495a,,1,0,98,18,1,97
,,,,,,,,,,,,,,,,,,,,,,,,,,,,,,,,,,,,,,,,,a,3.21600008,CRA,FALSE,,,,,,,20,caracol,Spanish,Sounds/spa_caracol.mp3,2020-06-24_17h53.08.817,TranslationElicitation_eng-prolific-spa,3.2.4,Win32,60,5e84efb71d17ad0c8430495a,,1,0,98,18,1,97
,,,,,,,,,,,,,,,,,,,,,,,,,,,,,,,,,,,,,,,,,c,3.365999937,CRAC,FALSE,,,,,,,20,caracol,Spanish,Sounds/spa_caracol.mp3,2020-06-24_17h53.08.817,TranslationElicitation_eng-prolific-spa,3.2.4,Win32,60,5e84efb71d17ad0c8430495a,,1,0,98,18,1,97
,,,,,,,,,,,,,,,,,,,,,,,,,,,,,,,,,,,,,,,,,k,3.481999874,CRACK,FALSE,,,,,,,20,caracol,Spanish,Sounds/spa_caracol.mp3,2020-06-24_17h53.08.817,TranslationElicitation_eng-prolific-spa,3.2.4,Win32,60,5e84efb71d17ad0c8430495a,,1,0,98,18,1,97
,,,,,,,,,,,,,,,,,,,,,,,,,,,,,,,,,,,,,,,,,l,3.632999897,CRACKL,FALSE,,,,,,,20,caracol,Spanish,Sounds/spa_caracol.mp3,2020-06-24_17h53.08.817,TranslationElicitation_eng-prolific-spa,3.2.4,Win32,60,5e84efb71d17ad0c8430495a,,1,0,98,18,1,97
,,,,,,,,,,,,,,,,,,,,,,,,,,,,,,,,,,,,,,,,,backspace,4.165999889,CRACK,TRUE,,,,,,,20,caracol,Spanish,Sounds/spa_caracol.mp3,2020-06-24_17h53.08.817,TranslationElicitation_eng-prolific-spa,3.2.4,Win32,60,5e84efb71d17ad0c8430495a,,1,0,98,18,1,97
,,,,,,,,,,,,,,,,,,,,,,,,,,,,,,,,,,,,,,,,,l,4.898999929,CRACKL,TRUE,,,,,,,20,caracol,Spanish,Sounds/spa_caracol.mp3,2020-06-24_17h53.08.817,TranslationElicitation_eng-prolific-spa,3.2.4,Win32,60,5e84efb71d17ad0c8430495a,,1,0,98,18,1,97
,,,,,,,,,,,,,,,,,,,,,,,,,,,,,,,,,,,,,,,,,e,4.950000048,CRACKLE,TRUE,,,,,,,20,caracol,Spanish,Sounds/spa_caracol.mp3,2020-06-24_17h53.08.817,TranslationElicitation_eng-prolific-spa,3.2.4,Win32,60,5e84efb71d17ad0c8430495a,,1,0,98,18,1,97
,,,,,,,,,,,,,,,,,,,,,,,,,,,,,,,,,,,,,,,,,return,5.140000105,CRACKLE,TRUE,,,,,,,20,caracol,Spanish,Sounds/spa_caracol.mp3,2020-06-24_17h53.08.817,TranslationElicitation_eng-prolific-spa,3.2.4,Win32,60,5e84efb71d17ad0c8430495a,5.140000105,1,0,98,18,1,97
,,,,,,,,,,,,,,,,,,,,,,,,,,,,,,,,,,,,,,,,,,,,,,,,,,,20,caracol,Spanish,Sounds/spa_caracol.mp3,2020-06-24_17h53.08.817,TranslationElicitation_eng-prolific-spa,3.2.4,Win32,60,5e84efb71d17ad0c8430495a,,1,0,98,18,1,97
,,,,,,,,,,,,,,,,,,,,,,,,,,,,,,,,,,,,,,,,,p,3.032999992,P,FALSE,,,,,,,91,puerta,Spanish,Sounds/spa_puerta.mp3,2020-06-24_17h53.08.817,TranslationElicitation_eng-prolific-spa,3.2.4,Win32,60,5e84efb71d17ad0c8430495a,,1,0,98,86,1,97
,,,,,,,,,,,,,,,,,,,,,,,,,,,,,,,,,,,,,,,,,l,3.149999857,PL,FALSE,,,,,,,91,puerta,Spanish,Sounds/spa_puerta.mp3,2020-06-24_17h53.08.817,TranslationElicitation_eng-prolific-spa,3.2.4,Win32,60,5e84efb71d17ad0c8430495a,,1,0,98,86,1,97
,,,,,,,,,,,,,,,,,,,,,,,,,,,,,,,,,,,,,,,,,a,3.23300004,PLA,FALSE,,,,,,,91,puerta,Spanish,Sounds/spa_puerta.mp3,2020-06-24_17h53.08.817,TranslationElicitation_eng-prolific-spa,3.2.4,Win32,60,5e84efb71d17ad0c8430495a,,1,0,98,86,1,97
,,,,,,,,,,,,,,,,,,,,,,,,,,,,,,,,,,,,,,,,,c,3.399999857,PLAC,FALSE,,,,,,,91,puerta,Spanish,Sounds/spa_puerta.mp3,2020-06-24_17h53.08.817,TranslationElicitation_eng-prolific-spa,3.2.4,Win32,60,5e84efb71d17ad0c8430495a,,1,0,98,86,1,97
,,,,,,,,,,,,,,,,,,,,,,,,,,,,,,,,,,,,,,,,,e,3.516000032,PLACE,FALSE,,,,,,,91,puerta,Spanish,Sounds/spa_puerta.mp3,2020-06-24_17h53.08.817,TranslationElicitation_eng-prolific-spa,3.2.4,Win32,60,5e84efb71d17ad0c8430495a,,1,0,98,86,1,97
,,,,,,,,,,,,,,,,,,,,,,,,,,,,,,,,,,,,,,,,,return,4.083999872,PLACE,FALSE,,,,,,,91,puerta,Spanish,Sounds/spa_puerta.mp3,2020-06-24_17h53.08.817,TranslationElicitation_eng-prolific-spa,3.2.4,Win32,60,5e84efb71d17ad0c8430495a,4.083999872,1,0,98,86,1,97
,,,,,,,,,,,,,,,,,,,,,,,,,,,,,,,,,,,,,,,,,,,,,,,,,,,91,puerta,Spanish,Sounds/spa_puerta.mp3,2020-06-24_17h53.08.817,TranslationElicitation_eng-prolific-spa,3.2.4,Win32,60,5e84efb71d17ad0c8430495a,,1,0,98,86,1,97
,,,,,,,,,,,,,,,,,,,,,,,,,,,,,,,,,,,,,,,,,b,2.867000103,B,FALSE,,,,,,,60,manzana,Spanish,Sounds/spa_manzana.mp3,2020-06-24_17h53.08.817,TranslationElicitation_eng-prolific-spa,3.2.4,Win32,60,5e84efb71d17ad0c8430495a,,1,0,98,56,1,97
,,,,,,,,,,,,,,,,,,,,,,,,,,,,,,,,,,,,,,,,,a,2.989000082,BA,FALSE,,,,,,,60,manzana,Spanish,Sounds/spa_manzana.mp3,2020-06-24_17h53.08.817,TranslationElicitation_eng-prolific-spa,3.2.4,Win32,60,5e84efb71d17ad0c8430495a,,1,0,98,56,1,97
,,,,,,,,,,,,,,,,,,,,,,,,,,,,,,,,,,,,,,,,,n,3.082000017,BAN,FALSE,,,,,,,60,manzana,Spanish,Sounds/spa_manzana.mp3,2020-06-24_17h53.08.817,TranslationElicitation_eng-prolific-spa,3.2.4,Win32,60,5e84efb71d17ad0c8430495a,,1,0,98,56,1,97
,,,,,,,,,,,,,,,,,,,,,,,,,,,,,,,,,,,,,,,,,a,3.148999929,BANA,FALSE,,,,,,,60,manzana,Spanish,Sounds/spa_manzana.mp3,2020-06-24_17h53.08.817,TranslationElicitation_eng-prolific-spa,3.2.4,Win32,60,5e84efb71d17ad0c8430495a,,1,0,98,56,1,97
,,,,,,,,,,,,,,,,,,,,,,,,,,,,,,,,,,,,,,,,,n,3.282000065,BANAN,FALSE,,,,,,,60,manzana,Spanish,Sounds/spa_manzana.mp3,2020-06-24_17h53.08.817,TranslationElicitation_eng-prolific-spa,3.2.4,Win32,60,5e84efb71d17ad0c8430495a,,1,0,98,56,1,97
,,,,,,,,,,,,,,,,,,,,,,,,,,,,,,,,,,,,,,,,,a,3.400000095,BANANA,FALSE,,,,,,,60,manzana,Spanish,Sounds/spa_manzana.mp3,2020-06-24_17h53.08.817,TranslationElicitation_eng-prolific-spa,3.2.4,Win32,60,5e84efb71d17ad0c8430495a,,1,0,98,56,1,97
,,,,,,,,,,,,,,,,,,,,,,,,,,,,,,,,,,,,,,,,,return,3.799000025,BANANA,FALSE,,,,,,,60,manzana,Spanish,Sounds/spa_manzana.mp3,2020-06-24_17h53.08.817,TranslationElicitation_eng-prolific-spa,3.2.4,Win32,60,5e84efb71d17ad0c8430495a,3.799000025,1,0,98,56,1,97
,,,,,,,,,,,,,,,,,,,,,,,,,,,,,,,,,,,,,,,,,,,,,,,,,,,60,manzana,Spanish,Sounds/spa_manzana.mp3,2020-06-24_17h53.08.817,TranslationElicitation_eng-prolific-spa,3.2.4,Win32,60,5e84efb71d17ad0c8430495a,,1,0,98,56,1,97
,,,,,,,,,,,,,,,,,,,,,,,,,,,,,,,,,,,,,,,,,p,1.599999905,P,FALSE,,,,,,,86,pingino,Spanish,Sounds/spa_pinguino.mp3,2020-06-24_17h53.08.817,TranslationElicitation_eng-prolific-spa,3.2.4,Win32,60,5e84efb71d17ad0c8430495a,,1,0,98,81,1,97
,,,,,,,,,,,,,,,,,,,,,,,,,,,,,,,,,,,,,,,,,e,1.717000008,PE,FALSE,,,,,,,86,pingino,Spanish,Sounds/spa_pinguino.mp3,2020-06-24_17h53.08.817,TranslationElicitation_eng-prolific-spa,3.2.4,Win32,60,5e84efb71d17ad0c8430495a,,1,0,98,81,1,97
,,,,,,,,,,,,,,,,,,,,,,,,,,,,,,,,,,,,,,,,,n,1.816999912,PEN,FALSE,,,,,,,86,pingino,Spanish,Sounds/spa_pinguino.mp3,2020-06-24_17h53.08.817,TranslationElicitation_eng-prolific-spa,3.2.4,Win32,60,5e84efb71d17ad0c8430495a,,1,0,98,81,1,97
,,,,,,,,,,,,,,,,,,,,,,,,,,,,,,,,,,,,,,,,,g,1.933000088,PENG,FALSE,,,,,,,86,pingino,Spanish,Sounds/spa_pinguino.mp3,2020-06-24_17h53.08.817,TranslationElicitation_eng-prolific-spa,3.2.4,Win32,60,5e84efb71d17ad0c8430495a,,1,0,98,81,1,97
,,,,,,,,,,,,,,,,,,,,,,,,,,,,,,,,,,,,,,,,,u,2.082999945,PENGU,FALSE,,,,,,,86,pingino,Spanish,Sounds/spa_pinguino.mp3,2020-06-24_17h53.08.817,TranslationElicitation_eng-prolific-spa,3.2.4,Win32,60,5e84efb71d17ad0c8430495a,,1,0,98,81,1,97
,,,,,,,,,,,,,,,,,,,,,,,,,,,,,,,,,,,,,,,,,i,2.249000072,PENGUI,FALSE,,,,,,,86,pingino,Spanish,Sounds/spa_pinguino.mp3,2020-06-24_17h53.08.817,TranslationElicitation_eng-prolific-spa,3.2.4,Win32,60,5e84efb71d17ad0c8430495a,,1,0,98,81,1,97
,,,,,,,,,,,,,,,,,,,,,,,,,,,,,,,,,,,,,,,,,n,2.349999905,PENGUIN,FALSE,,,,,,,86,pingino,Spanish,Sounds/spa_pinguino.mp3,2020-06-24_17h53.08.817,TranslationElicitation_eng-prolific-spa,3.2.4,Win32,60,5e84efb71d17ad0c8430495a,,1,0,98,81,1,97
,,,,,,,,,,,,,,,,,,,,,,,,,,,,,,,,,,,,,,,,,return,2.700000048,PENGUIN,FALSE,,,,,,,86,pingino,Spanish,Sounds/spa_pinguino.mp3,2020-06-24_17h53.08.817,TranslationElicitation_eng-prolific-spa,3.2.4,Win32,60,5e84efb71d17ad0c8430495a,2.700000048,1,0,98,81,1,97
,,,,,,,,,,,,,,,,,,,,,,,,,,,,,,,,,,,,,,,,,,,,,,,,,,,86,pingino,Spanish,Sounds/spa_pinguino.mp3,2020-06-24_17h53.08.817,TranslationElicitation_eng-prolific-spa,3.2.4,Win32,60,5e84efb71d17ad0c8430495a,,1,0,98,81,1,97
,,,,,,,,,,,,,,,,,,,,,,,,,,,,,,,,,,,,,,,,,b,2.23300004,B,FALSE,,,,,,,14,burro,Spanish,Sounds/spa_burro.mp3,2020-06-24_17h53.08.817,TranslationElicitation_eng-prolific-spa,3.2.4,Win32,60,5e84efb71d17ad0c8430495a,,1,0,98,12,1,97
,,,,,,,,,,,,,,,,,,,,,,,,,,,,,,,,,,,,,,,,,u,2.348999977,BU,FALSE,,,,,,,14,burro,Spanish,Sounds/spa_burro.mp3,2020-06-24_17h53.08.817,TranslationElicitation_eng-prolific-spa,3.2.4,Win32,60,5e84efb71d17ad0c8430495a,,1,0,98,12,1,97
,,,,,,,,,,,,,,,,,,,,,,,,,,,,,,,,,,,,,,,,,r,2.415999889,BUR,FALSE,,,,,,,14,burro,Spanish,Sounds/spa_burro.mp3,2020-06-24_17h53.08.817,TranslationElicitation_eng-prolific-spa,3.2.4,Win32,60,5e84efb71d17ad0c8430495a,,1,0,98,12,1,97
,,,,,,,,,,,,,,,,,,,,,,,,,,,,,,,,,,,,,,,,,r,2.565999985,BURR,FALSE,,,,,,,14,burro,Spanish,Sounds/spa_burro.mp3,2020-06-24_17h53.08.817,TranslationElicitation_eng-prolific-spa,3.2.4,Win32,60,5e84efb71d17ad0c8430495a,,1,0,98,12,1,97
,,,,,,,,,,,,,,,,,,,,,,,,,,,,,,,,,,,,,,,,,i,2.651000023,BURRI,FALSE,,,,,,,14,burro,Spanish,Sounds/spa_burro.mp3,2020-06-24_17h53.08.817,TranslationElicitation_eng-prolific-spa,3.2.4,Win32,60,5e84efb71d17ad0c8430495a,,1,0,98,12,1,97
,,,,,,,,,,,,,,,,,,,,,,,,,,,,,,,,,,,,,,,,,t,2.733999968,BURRIT,FALSE,,,,,,,14,burro,Spanish,Sounds/spa_burro.mp3,2020-06-24_17h53.08.817,TranslationElicitation_eng-prolific-spa,3.2.4,Win32,60,5e84efb71d17ad0c8430495a,,1,0,98,12,1,97
,,,,,,,,,,,,,,,,,,,,,,,,,,,,,,,,,,,,,,,,,o,3.56799984,BURRITO,FALSE,,,,,,,14,burro,Spanish,Sounds/spa_burro.mp3,2020-06-24_17h53.08.817,TranslationElicitation_eng-prolific-spa,3.2.4,Win32,60,5e84efb71d17ad0c8430495a,,1,0,98,12,1,97
,,,,,,,,,,,,,,,,,,,,,,,,,,,,,,,,,,,,,,,,,return,3.766000032,BURRITO,FALSE,,,,,,,14,burro,Spanish,Sounds/spa_burro.mp3,2020-06-24_17h53.08.817,TranslationElicitation_eng-prolific-spa,3.2.4,Win32,60,5e84efb71d17ad0c8430495a,3.766000032,1,0,98,12,1,97
,,,,,,,,,,,,,,,,,,,,,,,,,,,,,,,,,,,,,,,,,,,,,,,,,,,14,burro,Spanish,Sounds/spa_burro.mp3,2020-06-24_17h53.08.817,TranslationElicitation_eng-prolific-spa,3.2.4,Win32,60,5e84efb71d17ad0c8430495a,,1,0,98,12,1,97
,,,,,,,,,,,,,,,,,,,,,,,,,,,,,,,,,,,,,,,,,g,2.265999794,G,FALSE,,,,,,,50,jirafa,Spanish,Sounds/spa_jirafa.mp3,2020-06-24_17h53.08.817,TranslationElicitation_eng-prolific-spa,3.2.4,Win32,60,5e84efb71d17ad0c8430495a,,1,0,98,46,1,97
,,,,,,,,,,,,,,,,,,,,,,,,,,,,,,,,,,,,,,,,,i,2.366999865,GI,FALSE,,,,,,,50,jirafa,Spanish,Sounds/spa_jirafa.mp3,2020-06-24_17h53.08.817,TranslationElicitation_eng-prolific-spa,3.2.4,Win32,60,5e84efb71d17ad0c8430495a,,1,0,98,46,1,97
,,,,,,,,,,,,,,,,,,,,,,,,,,,,,,,,,,,,,,,,,f,2.482999802,GIF,FALSE,,,,,,,50,jirafa,Spanish,Sounds/spa_jirafa.mp3,2020-06-24_17h53.08.817,TranslationElicitation_eng-prolific-spa,3.2.4,Win32,60,5e84efb71d17ad0c8430495a,,1,0,98,46,1,97
,,,,,,,,,,,,,,,,,,,,,,,,,,,,,,,,,,,,,,,,,a,2.631999969,GIFA,FALSE,,,,,,,50,jirafa,Spanish,Sounds/spa_jirafa.mp3,2020-06-24_17h53.08.817,TranslationElicitation_eng-prolific-spa,3.2.4,Win32,60,5e84efb71d17ad0c8430495a,,1,0,98,46,1,97
,,,,,,,,,,,,,,,,,,,,,,,,,,,,,,,,,,,,,,,,,r,2.898999929,GIFAR,FALSE,,,,,,,50,jirafa,Spanish,Sounds/spa_jirafa.mp3,2020-06-24_17h53.08.817,TranslationElicitation_eng-prolific-spa,3.2.4,Win32,60,5e84efb71d17ad0c8430495a,,1,0,98,46,1,97
,,,,,,,,,,,,,,,,,,,,,,,,,,,,,,,,,,,,,,,,,backspace,3.198999882,GIFA,TRUE,,,,,,,50,jirafa,Spanish,Sounds/spa_jirafa.mp3,2020-06-24_17h53.08.817,TranslationElicitation_eng-prolific-spa,3.2.4,Win32,60,5e84efb71d17ad0c8430495a,,1,0,98,46,1,97
,,,,,,,,,,,,,,,,,,,,,,,,,,,,,,,,,,,,,,,,,backspace,3.414999962,GIF,TRUE,,,,,,,50,jirafa,Spanish,Sounds/spa_jirafa.mp3,2020-06-24_17h53.08.817,TranslationElicitation_eng-prolific-spa,3.2.4,Win32,60,5e84efb71d17ad0c8430495a,,1,0,98,46,1,97
,,,,,,,,,,,,,,,,,,,,,,,,,,,,,,,,,,,,,,,,,backspace,3.898999929,GI,TRUE,,,,,,,50,jirafa,Spanish,Sounds/spa_jirafa.mp3,2020-06-24_17h53.08.817,TranslationElicitation_eng-prolific-spa,3.2.4,Win32,60,5e84efb71d17ad0c8430495a,,1,0,98,46,1,97
,,,,,,,,,,,,,,,,,,,,,,,,,,,,,,,,,,,,,,,,,r,4.048999786,GIR,TRUE,,,,,,,50,jirafa,Spanish,Sounds/spa_jirafa.mp3,2020-06-24_17h53.08.817,TranslationElicitation_eng-prolific-spa,3.2.4,Win32,60,5e84efb71d17ad0c8430495a,,1,0,98,46,1,97
,,,,,,,,,,,,,,,,,,,,,,,,,,,,,,,,,,,,,,,,,a,4.148999929,GIRA,TRUE,,,,,,,50,jirafa,Spanish,Sounds/spa_jirafa.mp3,2020-06-24_17h53.08.817,TranslationElicitation_eng-prolific-spa,3.2.4,Win32,60,5e84efb71d17ad0c8430495a,,1,0,98,46,1,97
,,,,,,,,,,,,,,,,,,,,,,,,,,,,,,,,,,,,,,,,,f,4.281999826,GIRAF,TRUE,,,,,,,50,jirafa,Spanish,Sounds/spa_jirafa.mp3,2020-06-24_17h53.08.817,TranslationElicitation_eng-prolific-spa,3.2.4,Win32,60,5e84efb71d17ad0c8430495a,,1,0,98,46,1,97
,,,,,,,,,,,,,,,,,,,,,,,,,,,,,,,,,,,,,,,,,f,4.434999943,GIRAFF,TRUE,,,,,,,50,jirafa,Spanish,Sounds/spa_jirafa.mp3,2020-06-24_17h53.08.817,TranslationElicitation_eng-prolific-spa,3.2.4,Win32,60,5e84efb71d17ad0c8430495a,,1,0,98,46,1,97
,,,,,,,,,,,,,,,,,,,,,,,,,,,,,,,,,,,,,,,,,e,4.61500001,GIRAFFE,TRUE,,,,,,,50,jirafa,Spanish,Sounds/spa_jirafa.mp3,2020-06-24_17h53.08.817,TranslationElicitation_eng-prolific-spa,3.2.4,Win32,60,5e84efb71d17ad0c8430495a,,1,0,98,46,1,97
,,,,,,,,,,,,,,,,,,,,,,,,,,,,,,,,,,,,,,,,,return,4.798999786,GIRAFFE,TRUE,,,,,,,50,jirafa,Spanish,Sounds/spa_jirafa.mp3,2020-06-24_17h53.08.817,TranslationElicitation_eng-prolific-spa,3.2.4,Win32,60,5e84efb71d17ad0c8430495a,4.798999786,1,0,98,46,1,97
,,,,,,,,,,,,,,,,,,,,,,,,,,,,,,,,,,,,,,,,,,,,,,,,,,,50,jirafa,Spanish,Sounds/spa_jirafa.mp3,2020-06-24_17h53.08.817,TranslationElicitation_eng-prolific-spa,3.2.4,Win32,60,5e84efb71d17ad0c8430495a,,1,0,98,46,1,97
,,,,,,,,,,,,,,,,,,,,,,,,,,,,,,,,,,,,,,,,,t,1.799000025,T,FALSE,,,,,,,99,tomate,Spanish,Sounds/spa_tomate.mp3,2020-06-24_17h53.08.817,TranslationElicitation_eng-prolific-spa,3.2.4,Win32,60,5e84efb71d17ad0c8430495a,,1,0,98,93,1,97
,,,,,,,,,,,,,,,,,,,,,,,,,,,,,,,,,,,,,,,,,o,2.11500001,TO,FALSE,,,,,,,99,tomate,Spanish,Sounds/spa_tomate.mp3,2020-06-24_17h53.08.817,TranslationElicitation_eng-prolific-spa,3.2.4,Win32,60,5e84efb71d17ad0c8430495a,,1,0,98,93,1,97
,,,,,,,,,,,,,,,,,,,,,,,,,,,,,,,,,,,,,,,,,m,2.198000193,TOM,FALSE,,,,,,,99,tomate,Spanish,Sounds/spa_tomate.mp3,2020-06-24_17h53.08.817,TranslationElicitation_eng-prolific-spa,3.2.4,Win32,60,5e84efb71d17ad0c8430495a,,1,0,98,93,1,97
,,,,,,,,,,,,,,,,,,,,,,,,,,,,,,,,,,,,,,,,,a,2.298000097,TOMA,FALSE,,,,,,,99,tomate,Spanish,Sounds/spa_tomate.mp3,2020-06-24_17h53.08.817,TranslationElicitation_eng-prolific-spa,3.2.4,Win32,60,5e84efb71d17ad0c8430495a,,1,0,98,93,1,97
,,,,,,,,,,,,,,,,,,,,,,,,,,,,,,,,,,,,,,,,,t,2.433000088,TOMAT,FALSE,,,,,,,99,tomate,Spanish,Sounds/spa_tomate.mp3,2020-06-24_17h53.08.817,TranslationElicitation_eng-prolific-spa,3.2.4,Win32,60,5e84efb71d17ad0c8430495a,,1,0,98,93,1,97
,,,,,,,,,,,,,,,,,,,,,,,,,,,,,,,,,,,,,,,,,o,2.565000057,TOMATO,FALSE,,,,,,,99,tomate,Spanish,Sounds/spa_tomate.mp3,2020-06-24_17h53.08.817,TranslationElicitation_eng-prolific-spa,3.2.4,Win32,60,5e84efb71d17ad0c8430495a,,1,0,98,93,1,97
,,,,,,,,,,,,,,,,,,,,,,,,,,,,,,,,,,,,,,,,,return,2.881000042,TOMATO,FALSE,,,,,,,99,tomate,Spanish,Sounds/spa_tomate.mp3,2020-06-24_17h53.08.817,TranslationElicitation_eng-prolific-spa,3.2.4,Win32,60,5e84efb71d17ad0c8430495a,2.881000042,1,0,98,93,1,97
,,,,,,,,,,,,,,,,,,,,,,,,,,,,,,,,,,,,,,,,,,,,,,,,,,,99,tomate,Spanish,Sounds/spa_tomate.mp3,2020-06-24_17h53.08.817,TranslationElicitation_eng-prolific-spa,3.2.4,Win32,60,5e84efb71d17ad0c8430495a,,1,0,98,93,1,97
,,,,,,,,,,,,,,,,,,,,,,,,,,,,,,,,,,,,,,,,,c,1.400000095,C,FALSE,,,,,,,31,cubo,Spanish,Sounds/spa_cubo.mp3,2020-06-24_17h53.08.817,TranslationElicitation_eng-prolific-spa,3.2.4,Win32,60,5e84efb71d17ad0c8430495a,,1,0,98,27,1,97
,,,,,,,,,,,,,,,,,,,,,,,,,,,,,,,,,,,,,,,,,u,1.5,CU,FALSE,,,,,,,31,cubo,Spanish,Sounds/spa_cubo.mp3,2020-06-24_17h53.08.817,TranslationElicitation_eng-prolific-spa,3.2.4,Win32,60,5e84efb71d17ad0c8430495a,,1,0,98,27,1,97
,,,,,,,,,,,,,,,,,,,,,,,,,,,,,,,,,,,,,,,,,b,1.600000143,CUB,FALSE,,,,,,,31,cubo,Spanish,Sounds/spa_cubo.mp3,2020-06-24_17h53.08.817,TranslationElicitation_eng-prolific-spa,3.2.4,Win32,60,5e84efb71d17ad0c8430495a,,1,0,98,27,1,97
,,,,,,,,,,,,,,,,,,,,,,,,,,,,,,,,,,,,,,,,,e,1.73300004,CUBE,FALSE,,,,,,,31,cubo,Spanish,Sounds/spa_cubo.mp3,2020-06-24_17h53.08.817,TranslationElicitation_eng-prolific-spa,3.2.4,Win32,60,5e84efb71d17ad0c8430495a,,1,0,98,27,1,97
,,,,,,,,,,,,,,,,,,,,,,,,,,,,,,,,,,,,,,,,,return,1.98300004,CUBE,FALSE,,,,,,,31,cubo,Spanish,Sounds/spa_cubo.mp3,2020-06-24_17h53.08.817,TranslationElicitation_eng-prolific-spa,3.2.4,Win32,60,5e84efb71d17ad0c8430495a,1.98300004,1,0,98,27,1,97
,,,,,,,,,,,,,,,,,,,,,,,,,,,,,,,,,,,,,,,,,,,,,,,,,,,31,cubo,Spanish,Sounds/spa_cubo.mp3,2020-06-24_17h53.08.817,TranslationElicitation_eng-prolific-spa,3.2.4,Win32,60,5e84efb71d17ad0c8430495a,,1,0,98,27,1,97
,,,,,,,,,,,,,,,,,,,,,,,,,,,,,,,,,,,,,,,,,c,1.367000103,C,FALSE,,,,,,,16,caja,Spanish,Sounds/spa_caja.mp3,2020-06-24_17h53.08.817,TranslationElicitation_eng-prolific-spa,3.2.4,Win32,60,5e84efb71d17ad0c8430495a,,1,0,98,14,1,97
,,,,,,,,,,,,,,,,,,,,,,,,,,,,,,,,,,,,,,,,,a,1.565999985,CA,FALSE,,,,,,,16,caja,Spanish,Sounds/spa_caja.mp3,2020-06-24_17h53.08.817,TranslationElicitation_eng-prolific-spa,3.2.4,Win32,60,5e84efb71d17ad0c8430495a,,1,0,98,14,1,97
,,,,,,,,,,,,,,,,,,,,,,,,,,,,,,,,,,,,,,,,,r,1.667000055,CAR,FALSE,,,,,,,16,caja,Spanish,Sounds/spa_caja.mp3,2020-06-24_17h53.08.817,TranslationElicitation_eng-prolific-spa,3.2.4,Win32,60,5e84efb71d17ad0c8430495a,,1,0,98,14,1,97
,,,,,,,,,,,,,,,,,,,,,,,,,,,,,,,,,,,,,,,,,return,1.848999977,CAR,FALSE,,,,,,,16,caja,Spanish,Sounds/spa_caja.mp3,2020-06-24_17h53.08.817,TranslationElicitation_eng-prolific-spa,3.2.4,Win32,60,5e84efb71d17ad0c8430495a,1.848999977,1,0,98,14,1,97
,,,,,,,,,,,,,,,,,,,,,,,,,,,,,,,,,,,,,,,,,,,,,,,,,,,16,caja,Spanish,Sounds/spa_caja.mp3,2020-06-24_17h53.08.817,TranslationElicitation_eng-prolific-spa,3.2.4,Win32,60,5e84efb71d17ad0c8430495a,,1,0,98,14,1,97
,,,,,,,,,,,,,,,,,,,,,,,,,,,,,,,,,,,,,,,,,m,3.531999826,M,FALSE,,,,,,,66,moto,Spanish,Sounds/spa_moto.mp3,2020-06-24_17h53.08.817,TranslationElicitation_eng-prolific-spa,3.2.4,Win32,60,5e84efb71d17ad0c8430495a,,1,0,98,62,1,97
,,,,,,,,,,,,,,,,,,,,,,,,,,,,,,,,,,,,,,,,,o,4.464999914,MO,FALSE,,,,,,,66,moto,Spanish,Sounds/spa_moto.mp3,2020-06-24_17h53.08.817,TranslationElicitation_eng-prolific-spa,3.2.4,Win32,60,5e84efb71d17ad0c8430495a,,1,0,98,62,1,97
,,,,,,,,,,,,,,,,,,,,,,,,,,,,,,,,,,,,,,,,,l,4.631999969,MOL,FALSE,,,,,,,66,moto,Spanish,Sounds/spa_moto.mp3,2020-06-24_17h53.08.817,TranslationElicitation_eng-prolific-spa,3.2.4,Win32,60,5e84efb71d17ad0c8430495a,,1,0,98,62,1,97
,,,,,,,,,,,,,,,,,,,,,,,,,,,,,,,,,,,,,,,,,t,4.698999882,MOLT,FALSE,,,,,,,66,moto,Spanish,Sounds/spa_moto.mp3,2020-06-24_17h53.08.817,TranslationElicitation_eng-prolific-spa,3.2.4,Win32,60,5e84efb71d17ad0c8430495a,,1,0,98,62,1,97
,,,,,,,,,,,,,,,,,,,,,,,,,,,,,,,,,,,,,,,,,e,4.80099988,MOLTE,FALSE,,,,,,,66,moto,Spanish,Sounds/spa_moto.mp3,2020-06-24_17h53.08.817,TranslationElicitation_eng-prolific-spa,3.2.4,Win32,60,5e84efb71d17ad0c8430495a,,1,0,98,62,1,97
,,,,,,,,,,,,,,,,,,,,,,,,,,,,,,,,,,,,,,,,,m,4.932999849,MOLTEM,FALSE,,,,,,,66,moto,Spanish,Sounds/spa_moto.mp3,2020-06-24_17h53.08.817,TranslationElicitation_eng-prolific-spa,3.2.4,Win32,60,5e84efb71d17ad0c8430495a,,1,0,98,62,1,97
,,,,,,,,,,,,,,,,,,,,,,,,,,,,,,,,,,,,,,,,,backspace,5.664999962,MOLTE,TRUE,,,,,,,66,moto,Spanish,Sounds/spa_moto.mp3,2020-06-24_17h53.08.817,TranslationElicitation_eng-prolific-spa,3.2.4,Win32,60,5e84efb71d17ad0c8430495a,,1,0,98,62,1,97
,,,,,,,,,,,,,,,,,,,,,,,,,,,,,,,,,,,,,,,,,n,5.781999826,MOLTEN,TRUE,,,,,,,66,moto,Spanish,Sounds/spa_moto.mp3,2020-06-24_17h53.08.817,TranslationElicitation_eng-prolific-spa,3.2.4,Win32,60,5e84efb71d17ad0c8430495a,,1,0,98,62,1,97
,,,,,,,,,,,,,,,,,,,,,,,,,,,,,,,,,,,,,,,,,return,5.947999954,MOLTEN,TRUE,,,,,,,66,moto,Spanish,Sounds/spa_moto.mp3,2020-06-24_17h53.08.817,TranslationElicitation_eng-prolific-spa,3.2.4,Win32,60,5e84efb71d17ad0c8430495a,5.947999954,1,0,98,62,1,97
,,,,,,,,,,,,,,,,,,,,,,,,,,,,,,,,,,,,,,,,,,,,,,,,,,,66,moto,Spanish,Sounds/spa_moto.mp3,2020-06-24_17h53.08.817,TranslationElicitation_eng-prolific-spa,3.2.4,Win32,60,5e84efb71d17ad0c8430495a,,1,0,98,62,1,97
,,,,,,,,,,,,,,,,,,,,,,,,,,,,,,,,,,,,,,,,,t,2.565999985,T,FALSE,,,,,,,98,tobogan,Spanish,Sounds/spa_tobogan.mp3,2020-06-24_17h53.08.817,TranslationElicitation_eng-prolific-spa,3.2.4,Win32,60,5e84efb71d17ad0c8430495a,,1,0,98,92,1,97
,,,,,,,,,,,,,,,,,,,,,,,,,,,,,,,,,,,,,,,,,o,2.700000048,TO,FALSE,,,,,,,98,tobogan,Spanish,Sounds/spa_tobogan.mp3,2020-06-24_17h53.08.817,TranslationElicitation_eng-prolific-spa,3.2.4,Win32,60,5e84efb71d17ad0c8430495a,,1,0,98,92,1,97
,,,,,,,,,,,,,,,,,,,,,,,,,,,,,,,,,,,,,,,,,b,2.914999962,TOB,FALSE,,,,,,,98,tobogan,Spanish,Sounds/spa_tobogan.mp3,2020-06-24_17h53.08.817,TranslationElicitation_eng-prolific-spa,3.2.4,Win32,60,5e84efb71d17ad0c8430495a,,1,0,98,92,1,97
,,,,,,,,,,,,,,,,,,,,,,,,,,,,,,,,,,,,,,,,,o,3.065000057,TOBO,FALSE,,,,,,,98,tobogan,Spanish,Sounds/spa_tobogan.mp3,2020-06-24_17h53.08.817,TranslationElicitation_eng-prolific-spa,3.2.4,Win32,60,5e84efb71d17ad0c8430495a,,1,0,98,92,1,97
,,,,,,,,,,,,,,,,,,,,,,,,,,,,,,,,,,,,,,,,,g,3.164999962,TOBOG,FALSE,,,,,,,98,tobogan,Spanish,Sounds/spa_tobogan.mp3,2020-06-24_17h53.08.817,TranslationElicitation_eng-prolific-spa,3.2.4,Win32,60,5e84efb71d17ad0c8430495a,,1,0,98,92,1,97
,,,,,,,,,,,,,,,,,,,,,,,,,,,,,,,,,,,,,,,,,g,3.315000057,TOBOGG,FALSE,,,,,,,98,tobogan,Spanish,Sounds/spa_tobogan.mp3,2020-06-24_17h53.08.817,TranslationElicitation_eng-prolific-spa,3.2.4,Win32,60,5e84efb71d17ad0c8430495a,,1,0,98,92,1,97
,,,,,,,,,,,,,,,,,,,,,,,,,,,,,,,,,,,,,,,,,a,3.749000072,TOBOGGA,FALSE,,,,,,,98,tobogan,Spanish,Sounds/spa_tobogan.mp3,2020-06-24_17h53.08.817,TranslationElicitation_eng-prolific-spa,3.2.4,Win32,60,5e84efb71d17ad0c8430495a,,1,0,98,92,1,97
,,,,,,,,,,,,,,,,,,,,,,,,,,,,,,,,,,,,,,,,,n,3.832999945,TOBOGGAN,FALSE,,,,,,,98,tobogan,Spanish,Sounds/spa_tobogan.mp3,2020-06-24_17h53.08.817,TranslationElicitation_eng-prolific-spa,3.2.4,Win32,60,5e84efb71d17ad0c8430495a,,1,0,98,92,1,97
,,,,,,,,,,,,,,,,,,,,,,,,,,,,,,,,,,,,,,,,,return,4.115999937,TOBOGGAN,FALSE,,,,,,,98,tobogan,Spanish,Sounds/spa_tobogan.mp3,2020-06-24_17h53.08.817,TranslationElicitation_eng-prolific-spa,3.2.4,Win32,60,5e84efb71d17ad0c8430495a,4.115999937,1,0,98,92,1,97
,,,,,,,,,,,,,,,,,,,,,,,,,,,,,,,,,,,,,,,,,,,,,,,,,,,98,tobogan,Spanish,Sounds/spa_tobogan.mp3,2020-06-24_17h53.08.817,TranslationElicitation_eng-prolific-spa,3.2.4,Win32,60,5e84efb71d17ad0c8430495a,,1,0,98,92,1,97
,,,,,,,,,,,,,,,,,,,,,,,,,,,,,,,,,,,,,,,,,p,1.648999929,P,FALSE,,,,,,,89,pluma,Spanish,Sounds/spa_pluma.mp3,2020-06-24_17h53.08.817,TranslationElicitation_eng-prolific-spa,3.2.4,Win32,60,5e84efb71d17ad0c8430495a,,1,0,98,84,1,97
,,,,,,,,,,,,,,,,,,,,,,,,,,,,,,,,,,,,,,,,,l,1.71600008,PL,FALSE,,,,,,,89,pluma,Spanish,Sounds/spa_pluma.mp3,2020-06-24_17h53.08.817,TranslationElicitation_eng-prolific-spa,3.2.4,Win32,60,5e84efb71d17ad0c8430495a,,1,0,98,84,1,97
,,,,,,,,,,,,,,,,,,,,,,,,,,,,,,,,,,,,,,,,,u,2.016000032,PLU,FALSE,,,,,,,89,pluma,Spanish,Sounds/spa_pluma.mp3,2020-06-24_17h53.08.817,TranslationElicitation_eng-prolific-spa,3.2.4,Win32,60,5e84efb71d17ad0c8430495a,,1,0,98,84,1,97
,,,,,,,,,,,,,,,,,,,,,,,,,,,,,,,,,,,,,,,,,m,2.315999985,PLUM,FALSE,,,,,,,89,pluma,Spanish,Sounds/spa_pluma.mp3,2020-06-24_17h53.08.817,TranslationElicitation_eng-prolific-spa,3.2.4,Win32,60,5e84efb71d17ad0c8430495a,,1,0,98,84,1,97
,,,,,,,,,,,,,,,,,,,,,,,,,,,,,,,,,,,,,,,,,e,2.415999889,PLUME,FALSE,,,,,,,89,pluma,Spanish,Sounds/spa_pluma.mp3,2020-06-24_17h53.08.817,TranslationElicitation_eng-prolific-spa,3.2.4,Win32,60,5e84efb71d17ad0c8430495a,,1,0,98,84,1,97
,,,,,,,,,,,,,,,,,,,,,,,,,,,,,,,,,,,,,,,,,return,2.698999882,PLUME,FALSE,,,,,,,89,pluma,Spanish,Sounds/spa_pluma.mp3,2020-06-24_17h53.08.817,TranslationElicitation_eng-prolific-spa,3.2.4,Win32,60,5e84efb71d17ad0c8430495a,2.698999882,1,0,98,84,1,97
,,,,,,,,,,,,,,,,,,,,,,,,,,,,,,,,,,,,,,,,,,,,,,,,,,,89,pluma,Spanish,Sounds/spa_pluma.mp3,2020-06-24_17h53.08.817,TranslationElicitation_eng-prolific-spa,3.2.4,Win32,60,5e84efb71d17ad0c8430495a,,1,0,98,84,1,97
,,,,,,,,,,,,,,,,,,,,,,,,,,,,,,,,,,,,,,,,,p,1.933000088,P,FALSE,,,,,,,80,pato,Spanish,Sounds/spa_pato.mp3,2020-06-24_17h53.08.817,TranslationElicitation_eng-prolific-spa,3.2.4,Win32,60,5e84efb71d17ad0c8430495a,,1,0,98,75,1,97
,,,,,,,,,,,,,,,,,,,,,,,,,,,,,,,,,,,,,,,,,l,2.083000183,PL,FALSE,,,,,,,80,pato,Spanish,Sounds/spa_pato.mp3,2020-06-24_17h53.08.817,TranslationElicitation_eng-prolific-spa,3.2.4,Win32,60,5e84efb71d17ad0c8430495a,,1,0,98,75,1,97
,,,,,,,,,,,,,,,,,,,,,,,,,,,,,,,,,,,,,,,,,a,2.200000048,PLA,FALSE,,,,,,,80,pato,Spanish,Sounds/spa_pato.mp3,2020-06-24_17h53.08.817,TranslationElicitation_eng-prolific-spa,3.2.4,Win32,60,5e84efb71d17ad0c8430495a,,1,0,98,75,1,97
,,,,,,,,,,,,,,,,,,,,,,,,,,,,,,,,,,,,,,,,,t,2.417000055,PLAT,FALSE,,,,,,,80,pato,Spanish,Sounds/spa_pato.mp3,2020-06-24_17h53.08.817,TranslationElicitation_eng-prolific-spa,3.2.4,Win32,60,5e84efb71d17ad0c8430495a,,1,0,98,75,1,97
,,,,,,,,,,,,,,,,,,,,,,,,,,,,,,,,,,,,,,,,,e,3.282999992,PLATE,FALSE,,,,,,,80,pato,Spanish,Sounds/spa_pato.mp3,2020-06-24_17h53.08.817,TranslationElicitation_eng-prolific-spa,3.2.4,Win32,60,5e84efb71d17ad0c8430495a,,1,0,98,75,1,97
,,,,,,,,,,,,,,,,,,,,,,,,,,,,,,,,,,,,,,,,,return,3.650000095,PLATE,FALSE,,,,,,,80,pato,Spanish,Sounds/spa_pato.mp3,2020-06-24_17h53.08.817,TranslationElicitation_eng-prolific-spa,3.2.4,Win32,60,5e84efb71d17ad0c8430495a,3.650000095,1,0,98,75,1,97
,,,,,,,,,,,,,,,,,,,,,,,,,,,,,,,,,,,,,,,,,,,,,,,,,,,80,pato,Spanish,Sounds/spa_pato.mp3,2020-06-24_17h53.08.817,TranslationElicitation_eng-prolific-spa,3.2.4,Win32,60,5e84efb71d17ad0c8430495a,,1,0,98,75,1,97
,,,,,,,,,,,,,,,,,,,,,,,,,,,,,,,,,,,,,,,,,p,3.514000177,P,FALSE,,,,,,,76,panal,Spanish,Sounds/spa_panal.mp3,2020-06-24_17h53.08.817,TranslationElicitation_eng-prolific-spa,3.2.4,Win32,60,5e84efb71d17ad0c8430495a,,1,0,98,71,1,97
,,,,,,,,,,,,,,,,,,,,,,,,,,,,,,,,,,,,,,,,,a,3.781000137,PA,FALSE,,,,,,,76,panal,Spanish,Sounds/spa_panal.mp3,2020-06-24_17h53.08.817,TranslationElicitation_eng-prolific-spa,3.2.4,Win32,60,5e84efb71d17ad0c8430495a,,1,0,98,71,1,97
,,,,,,,,,,,,,,,,,,,,,,,,,,,,,,,,,,,,,,,,,i,3.900000095,PAI,FALSE,,,,,,,76,panal,Spanish,Sounds/spa_panal.mp3,2020-06-24_17h53.08.817,TranslationElicitation_eng-prolific-spa,3.2.4,Win32,60,5e84efb71d17ad0c8430495a,,1,0,98,71,1,97
,,,,,,,,,,,,,,,,,,,,,,,,,,,,,,,,,,,,,,,,,n,3.981000185,PAIN,FALSE,,,,,,,76,panal,Spanish,Sounds/spa_panal.mp3,2020-06-24_17h53.08.817,TranslationElicitation_eng-prolific-spa,3.2.4,Win32,60,5e84efb71d17ad0c8430495a,,1,0,98,71,1,97
,,,,,,,,,,,,,,,,,,,,,,,,,,,,,,,,,,,,,,,,,return,4.249000072,PAIN,FALSE,,,,,,,76,panal,Spanish,Sounds/spa_panal.mp3,2020-06-24_17h53.08.817,TranslationElicitation_eng-prolific-spa,3.2.4,Win32,60,5e84efb71d17ad0c8430495a,4.249000072,1,0,98,71,1,97
,,,,,,,,,,,,,,,,,,,,,,,,,,,,,,,,,,,,,,,,,,,,,,,,,,,76,panal,Spanish,Sounds/spa_panal.mp3,2020-06-24_17h53.08.817,TranslationElicitation_eng-prolific-spa,3.2.4,Win32,60,5e84efb71d17ad0c8430495a,,1,0,98,71,1,97
,,,,,,,,,,,,,,,,,,,,,,,,,,,,,,,,,,,,,,,,,l,2.266000032,L,FALSE,,,,,,,53,leche,Spanish,Sounds/spa_leche.mp3,2020-06-24_17h53.08.817,TranslationElicitation_eng-prolific-spa,3.2.4,Win32,60,5e84efb71d17ad0c8430495a,,1,0,98,49,1,97
,,,,,,,,,,,,,,,,,,,,,,,,,,,,,,,,,,,,,,,,,e,2.381999969,LE,FALSE,,,,,,,53,leche,Spanish,Sounds/spa_leche.mp3,2020-06-24_17h53.08.817,TranslationElicitation_eng-prolific-spa,3.2.4,Win32,60,5e84efb71d17ad0c8430495a,,1,0,98,49,1,97
,,,,,,,,,,,,,,,,,,,,,,,,,,,,,,,,,,,,,,,,,g,2.531999826,LEG,FALSE,,,,,,,53,leche,Spanish,Sounds/spa_leche.mp3,2020-06-24_17h53.08.817,TranslationElicitation_eng-prolific-spa,3.2.4,Win32,60,5e84efb71d17ad0c8430495a,,1,0,98,49,1,97
,,,,,,,,,,,,,,,,,,,,,,,,,,,,,,,,,,,,,,,,,s,2.631999969,LEGS,FALSE,,,,,,,53,leche,Spanish,Sounds/spa_leche.mp3,2020-06-24_17h53.08.817,TranslationElicitation_eng-prolific-spa,3.2.4,Win32,60,5e84efb71d17ad0c8430495a,,1,0,98,49,1,97
,,,,,,,,,,,,,,,,,,,,,,,,,,,,,,,,,,,,,,,,,return,3.031999826,LEGS,FALSE,,,,,,,53,leche,Spanish,Sounds/spa_leche.mp3,2020-06-24_17h53.08.817,TranslationElicitation_eng-prolific-spa,3.2.4,Win32,60,5e84efb71d17ad0c8430495a,3.031999826,1,0,98,49,1,97
,,,,,,,,,,,,,,,,,,,,,,,,,,,,,,,,,,,,,,,,,,,,,,,,,,,53,leche,Spanish,Sounds/spa_leche.mp3,2020-06-24_17h53.08.817,TranslationElicitation_eng-prolific-spa,3.2.4,Win32,60,5e84efb71d17ad0c8430495a,,1,0,98,49,1,97
,,,,,,,,,,,,,,,,,,,,,,,,,,,,,,,,,,,,,,,,,t,2.514999866,T,FALSE,,,,,,,94,tambor,Spanish,Sounds/spa_tambor.mp3,2020-06-24_17h53.08.817,TranslationElicitation_eng-prolific-spa,3.2.4,Win32,60,5e84efb71d17ad0c8430495a,,1,0,98,89,1,97
,,,,,,,,,,,,,,,,,,,,,,,,,,,,,,,,,,,,,,,,,a,2.648000002,TA,FALSE,,,,,,,94,tambor,Spanish,Sounds/spa_tambor.mp3,2020-06-24_17h53.08.817,TranslationElicitation_eng-prolific-spa,3.2.4,Win32,60,5e84efb71d17ad0c8430495a,,1,0,98,89,1,97
,,,,,,,,,,,,,,,,,,,,,,,,,,,,,,,,,,,,,,,,,m,2.764999866,TAM,FALSE,,,,,,,94,tambor,Spanish,Sounds/spa_tambor.mp3,2020-06-24_17h53.08.817,TranslationElicitation_eng-prolific-spa,3.2.4,Win32,60,5e84efb71d17ad0c8430495a,,1,0,98,89,1,97
,,,,,,,,,,,,,,,,,,,,,,,,,,,,,,,,,,,,,,,,,b,2.914999962,TAMB,FALSE,,,,,,,94,tambor,Spanish,Sounds/spa_tambor.mp3,2020-06-24_17h53.08.817,TranslationElicitation_eng-prolific-spa,3.2.4,Win32,60,5e84efb71d17ad0c8430495a,,1,0,98,89,1,97
,,,,,,,,,,,,,,,,,,,,,,,,,,,,,,,,,,,,,,,,,o,2.997999907,TAMBO,FALSE,,,,,,,94,tambor,Spanish,Sounds/spa_tambor.mp3,2020-06-24_17h53.08.817,TranslationElicitation_eng-prolific-spa,3.2.4,Win32,60,5e84efb71d17ad0c8430495a,,1,0,98,89,1,97
,,,,,,,,,,,,,,,,,,,,,,,,,,,,,,,,,,,,,,,,,u,3.914999962,TAMBOU,FALSE,,,,,,,94,tambor,Spanish,Sounds/spa_tambor.mp3,2020-06-24_17h53.08.817,TranslationElicitation_eng-prolific-spa,3.2.4,Win32,60,5e84efb71d17ad0c8430495a,,1,0,98,89,1,97
,,,,,,,,,,,,,,,,,,,,,,,,,,,,,,,,,,,,,,,,,r,4.032000065,TAMBOUR,FALSE,,,,,,,94,tambor,Spanish,Sounds/spa_tambor.mp3,2020-06-24_17h53.08.817,TranslationElicitation_eng-prolific-spa,3.2.4,Win32,60,5e84efb71d17ad0c8430495a,,1,0,98,89,1,97
,,,,,,,,,,,,,,,,,,,,,,,,,,,,,,,,,,,,,,,,,i,4.148000002,TAMBOURI,FALSE,,,,,,,94,tambor,Spanish,Sounds/spa_tambor.mp3,2020-06-24_17h53.08.817,TranslationElicitation_eng-prolific-spa,3.2.4,Win32,60,5e84efb71d17ad0c8430495a,,1,0,98,89,1,97
,,,,,,,,,,,,,,,,,,,,,,,,,,,,,,,,,,,,,,,,,n,4.217999935,TAMBOURIN,FALSE,,,,,,,94,tambor,Spanish,Sounds/spa_tambor.mp3,2020-06-24_17h53.08.817,TranslationElicitation_eng-prolific-spa,3.2.4,Win32,60,5e84efb71d17ad0c8430495a,,1,0,98,89,1,97
,,,,,,,,,,,,,,,,,,,,,,,,,,,,,,,,,,,,,,,,,e,4.313999891,TAMBOURINE,FALSE,,,,,,,94,tambor,Spanish,Sounds/spa_tambor.mp3,2020-06-24_17h53.08.817,TranslationElicitation_eng-prolific-spa,3.2.4,Win32,60,5e84efb71d17ad0c8430495a,,1,0,98,89,1,97
,,,,,,,,,,,,,,,,,,,,,,,,,,,,,,,,,,,,,,,,,return,4.631000042,TAMBOURINE,FALSE,,,,,,,94,tambor,Spanish,Sounds/spa_tambor.mp3,2020-06-24_17h53.08.817,TranslationElicitation_eng-prolific-spa,3.2.4,Win32,60,5e84efb71d17ad0c8430495a,4.631000042,1,0,98,89,1,97
,,,,,,,,,,,,,,,,,,,,,,,,,,,,,,,,,,,,,,,,,,,,,,,,,,,94,tambor,Spanish,Sounds/spa_tambor.mp3,2020-06-24_17h53.08.817,TranslationElicitation_eng-prolific-spa,3.2.4,Win32,60,5e84efb71d17ad0c8430495a,,1,0,98,89,1,97
,,,,,,,,,,,,,,,,,,,,,,,,,,,,,,,,,,,,,,,,,m,1.930999994,M,FALSE,,,,,,,58,luna,Spanish,Sounds/spa_luna.mp3,2020-06-24_17h53.08.817,TranslationElicitation_eng-prolific-spa,3.2.4,Win32,60,5e84efb71d17ad0c8430495a,,1,0,98,54,1,97
,,,,,,,,,,,,,,,,,,,,,,,,,,,,,,,,,,,,,,,,,o,2.230999947,MO,FALSE,,,,,,,58,luna,Spanish,Sounds/spa_luna.mp3,2020-06-24_17h53.08.817,TranslationElicitation_eng-prolific-spa,3.2.4,Win32,60,5e84efb71d17ad0c8430495a,,1,0,98,54,1,97
,,,,,,,,,,,,,,,,,,,,,,,,,,,,,,,,,,,,,,,,,o,2.347000122,MOO,FALSE,,,,,,,58,luna,Spanish,Sounds/spa_luna.mp3,2020-06-24_17h53.08.817,TranslationElicitation_eng-prolific-spa,3.2.4,Win32,60,5e84efb71d17ad0c8430495a,,1,0,98,54,1,97
,,,,,,,,,,,,,,,,,,,,,,,,,,,,,,,,,,,,,,,,,n,2.697000027,MOON,FALSE,,,,,,,58,luna,Spanish,Sounds/spa_luna.mp3,2020-06-24_17h53.08.817,TranslationElicitation_eng-prolific-spa,3.2.4,Win32,60,5e84efb71d17ad0c8430495a,,1,0,98,54,1,97
,,,,,,,,,,,,,,,,,,,,,,,,,,,,,,,,,,,,,,,,,return,2.980999947,MOON,FALSE,,,,,,,58,luna,Spanish,Sounds/spa_luna.mp3,2020-06-24_17h53.08.817,TranslationElicitation_eng-prolific-spa,3.2.4,Win32,60,5e84efb71d17ad0c8430495a,2.980999947,1,0,98,54,1,97
,,,,,,,,,,,,,,,,,,,,,,,,,,,,,,,,,,,,,,,,,,,,,,,,,,,58,luna,Spanish,Sounds/spa_luna.mp3,2020-06-24_17h53.08.817,TranslationElicitation_eng-prolific-spa,3.2.4,Win32,60,5e84efb71d17ad0c8430495a,,1,0,98,54,1,97
,,,,,,,,,,,,,,,,,,,,,,,,,,,,,,,,,,,,,,,,,b,1.714999914,B,FALSE,,,,,,,3,barco,Spanish,Sounds/spa_barco.mp3,2020-06-24_17h53.08.817,TranslationElicitation_eng-prolific-spa,3.2.4,Win32,60,5e84efb71d17ad0c8430495a,,1,0,98,1,1,97
,,,,,,,,,,,,,,,,,,,,,,,,,,,,,,,,,,,,,,,,,a,2.248999834,BA,FALSE,,,,,,,3,barco,Spanish,Sounds/spa_barco.mp3,2020-06-24_17h53.08.817,TranslationElicitation_eng-prolific-spa,3.2.4,Win32,60,5e84efb71d17ad0c8430495a,,1,0,98,1,1,97
,,,,,,,,,,,,,,,,,,,,,,,,,,,,,,,,,,,,,,,,,r,2.398999929,BAR,FALSE,,,,,,,3,barco,Spanish,Sounds/spa_barco.mp3,2020-06-24_17h53.08.817,TranslationElicitation_eng-prolific-spa,3.2.4,Win32,60,5e84efb71d17ad0c8430495a,,1,0,98,1,1,97
,,,,,,,,,,,,,,,,,,,,,,,,,,,,,,,,,,,,,,,,,c,2.921000004,BARC,FALSE,,,,,,,3,barco,Spanish,Sounds/spa_barco.mp3,2020-06-24_17h53.08.817,TranslationElicitation_eng-prolific-spa,3.2.4,Win32,60,5e84efb71d17ad0c8430495a,,1,0,98,1,1,97
,,,,,,,,,,,,,,,,,,,,,,,,,,,,,,,,,,,,,,,,,o,3.299000025,BARCO,FALSE,,,,,,,3,barco,Spanish,Sounds/spa_barco.mp3,2020-06-24_17h53.08.817,TranslationElicitation_eng-prolific-spa,3.2.4,Win32,60,5e84efb71d17ad0c8430495a,,1,0,98,1,1,97
,,,,,,,,,,,,,,,,,,,,,,,,,,,,,,,,,,,,,,,,,d,3.997999907,BARCOD,FALSE,,,,,,,3,barco,Spanish,Sounds/spa_barco.mp3,2020-06-24_17h53.08.817,TranslationElicitation_eng-prolific-spa,3.2.4,Win32,60,5e84efb71d17ad0c8430495a,,1,0,98,1,1,97
,,,,,,,,,,,,,,,,,,,,,,,,,,,,,,,,,,,,,,,,,e,4.063999891,BARCODE,FALSE,,,,,,,3,barco,Spanish,Sounds/spa_barco.mp3,2020-06-24_17h53.08.817,TranslationElicitation_eng-prolific-spa,3.2.4,Win32,60,5e84efb71d17ad0c8430495a,,1,0,98,1,1,97
,,,,,,,,,,,,,,,,,,,,,,,,,,,,,,,,,,,,,,,,,return,4.263999939,BARCODE,FALSE,,,,,,,3,barco,Spanish,Sounds/spa_barco.mp3,2020-06-24_17h53.08.817,TranslationElicitation_eng-prolific-spa,3.2.4,Win32,60,5e84efb71d17ad0c8430495a,4.263999939,1,0,98,1,1,97
,,,,,,,,,,,,,,,,,,,,,,,,,,,,,,,,,,,,,,,,,,,,,,,,,,,3,barco,Spanish,Sounds/spa_barco.mp3,2020-06-24_17h53.08.817,TranslationElicitation_eng-prolific-spa,3.2.4,Win32,60,5e84efb71d17ad0c8430495a,,1,0,98,1,1,97
,,,,,,,,,,,,,,,,,,,,,,,,,,,,,,,,,,,,,,,,,t,4.249000072,T,FALSE,,,,,,,100,toro,Spanish,Sounds/spa_toro.mp3,2020-06-24_17h53.08.817,TranslationElicitation_eng-prolific-spa,3.2.4,Win32,60,5e84efb71d17ad0c8430495a,,1,0,98,94,1,97
,,,,,,,,,,,,,,,,,,,,,,,,,,,,,,,,,,,,,,,,,o,4.381999969,TO,FALSE,,,,,,,100,toro,Spanish,Sounds/spa_toro.mp3,2020-06-24_17h53.08.817,TranslationElicitation_eng-prolific-spa,3.2.4,Win32,60,5e84efb71d17ad0c8430495a,,1,0,98,94,1,97
,,,,,,,,,,,,,,,,,,,,,,,,,,,,,,,,,,,,,,,,,m,5.049000025,TOM,FALSE,,,,,,,100,toro,Spanish,Sounds/spa_toro.mp3,2020-06-24_17h53.08.817,TranslationElicitation_eng-prolific-spa,3.2.4,Win32,60,5e84efb71d17ad0c8430495a,,1,0,98,94,1,97
,,,,,,,,,,,,,,,,,,,,,,,,,,,,,,,,,,,,,,,,,o,5.215000153,TOMO,FALSE,,,,,,,100,toro,Spanish,Sounds/spa_toro.mp3,2020-06-24_17h53.08.817,TranslationElicitation_eng-prolific-spa,3.2.4,Win32,60,5e84efb71d17ad0c8430495a,,1,0,98,94,1,97
,,,,,,,,,,,,,,,,,,,,,,,,,,,,,,,,,,,,,,,,,r,5.416000128,TOMOR,FALSE,,,,,,,100,toro,Spanish,Sounds/spa_toro.mp3,2020-06-24_17h53.08.817,TranslationElicitation_eng-prolific-spa,3.2.4,Win32,60,5e84efb71d17ad0c8430495a,,1,0,98,94,1,97
,,,,,,,,,,,,,,,,,,,,,,,,,,,,,,,,,,,,,,,,,r,5.534000158,TOMORR,FALSE,,,,,,,100,toro,Spanish,Sounds/spa_toro.mp3,2020-06-24_17h53.08.817,TranslationElicitation_eng-prolific-spa,3.2.4,Win32,60,5e84efb71d17ad0c8430495a,,1,0,98,94,1,97
,,,,,,,,,,,,,,,,,,,,,,,,,,,,,,,,,,,,,,,,,o,5.61500001,TOMORRO,FALSE,,,,,,,100,toro,Spanish,Sounds/spa_toro.mp3,2020-06-24_17h53.08.817,TranslationElicitation_eng-prolific-spa,3.2.4,Win32,60,5e84efb71d17ad0c8430495a,,1,0,98,94,1,97
,,,,,,,,,,,,,,,,,,,,,,,,,,,,,,,,,,,,,,,,,w,5.71600008,TOMORROW,FALSE,,,,,,,100,toro,Spanish,Sounds/spa_toro.mp3,2020-06-24_17h53.08.817,TranslationElicitation_eng-prolific-spa,3.2.4,Win32,60,5e84efb71d17ad0c8430495a,,1,0,98,94,1,97
,,,,,,,,,,,,,,,,,,,,,,,,,,,,,,,,,,,,,,,,,return,6.082000017,TOMORROW,FALSE,,,,,,,100,toro,Spanish,Sounds/spa_toro.mp3,2020-06-24_17h53.08.817,TranslationElicitation_eng-prolific-spa,3.2.4,Win32,60,5e84efb71d17ad0c8430495a,6.082000017,1,0,98,94,1,97
,,,,,,,,,,,,,,,,,,,,,,,,,,,,,,,,,,,,,,,,,,,,,,,,,,,100,toro,Spanish,Sounds/spa_toro.mp3,2020-06-24_17h53.08.817,TranslationElicitation_eng-prolific-spa,3.2.4,Win32,60,5e84efb71d17ad0c8430495a,,1,0,98,94,1,97
,,,,,,,,,,,,,,,,,,,,,,,,,,,,,,,,,,,,,,,,,i,5.68200016,I,FALSE,,,,,,,82,perro,Spanish,Sounds/spa_perro.mp3,2020-06-24_17h53.08.817,TranslationElicitation_eng-prolific-spa,3.2.4,Win32,60,5e84efb71d17ad0c8430495a,,1,0,98,77,1,97
,,,,,,,,,,,,,,,,,,,,,,,,,,,,,,,,,,,,,,,,,m,5.765000105,IM,FALSE,,,,,,,82,perro,Spanish,Sounds/spa_perro.mp3,2020-06-24_17h53.08.817,TranslationElicitation_eng-prolific-spa,3.2.4,Win32,60,5e84efb71d17ad0c8430495a,,1,0,98,77,1,97
,,,,,,,,,,,,,,,,,,,,,,,,,,,,,,,,,,,,,,,,,p,6.015000105,IMP,FALSE,,,,,,,82,perro,Spanish,Sounds/spa_perro.mp3,2020-06-24_17h53.08.817,TranslationElicitation_eng-prolific-spa,3.2.4,Win32,60,5e84efb71d17ad0c8430495a,,1,0,98,77,1,97
,,,,,,,,,,,,,,,,,,,,,,,,,,,,,,,,,,,,,,,,,e,6.116000175,IMPE,FALSE,,,,,,,82,perro,Spanish,Sounds/spa_perro.mp3,2020-06-24_17h53.08.817,TranslationElicitation_eng-prolific-spa,3.2.4,Win32,60,5e84efb71d17ad0c8430495a,,1,0,98,77,1,97
,,,,,,,,,,,,,,,,,,,,,,,,,,,,,,,,,,,,,,,,,r,6.18200016,IMPER,FALSE,,,,,,,82,perro,Spanish,Sounds/spa_perro.mp3,2020-06-24_17h53.08.817,TranslationElicitation_eng-prolific-spa,3.2.4,Win32,60,5e84efb71d17ad0c8430495a,,1,0,98,77,1,97
,,,,,,,,,,,,,,,,,,,,,,,,,,,,,,,,,,,,,,,,,a,6.381999969,IMPERA,FALSE,,,,,,,82,perro,Spanish,Sounds/spa_perro.mp3,2020-06-24_17h53.08.817,TranslationElicitation_eng-prolific-spa,3.2.4,Win32,60,5e84efb71d17ad0c8430495a,,1,0,98,77,1,97
,,,,,,,,,,,,,,,,,,,,,,,,,,,,,,,,,,,,,,,,,t,6.513999939,IMPERAT,FALSE,,,,,,,82,perro,Spanish,Sounds/spa_perro.mp3,2020-06-24_17h53.08.817,TranslationElicitation_eng-prolific-spa,3.2.4,Win32,60,5e84efb71d17ad0c8430495a,,1,0,98,77,1,97
,,,,,,,,,,,,,,,,,,,,,,,,,,,,,,,,,,,,,,,,,i,6.648000002,IMPERATI,FALSE,,,,,,,82,perro,Spanish,Sounds/spa_perro.mp3,2020-06-24_17h53.08.817,TranslationElicitation_eng-prolific-spa,3.2.4,Win32,60,5e84efb71d17ad0c8430495a,,1,0,98,77,1,97
,,,,,,,,,,,,,,,,,,,,,,,,,,,,,,,,,,,,,,,,,v,6.781000137,IMPERATIV,FALSE,,,,,,,82,perro,Spanish,Sounds/spa_perro.mp3,2020-06-24_17h53.08.817,TranslationElicitation_eng-prolific-spa,3.2.4,Win32,60,5e84efb71d17ad0c8430495a,,1,0,98,77,1,97
,,,,,,,,,,,,,,,,,,,,,,,,,,,,,,,,,,,,,,,,,e,6.81400013,IMPERATIVE,FALSE,,,,,,,82,perro,Spanish,Sounds/spa_perro.mp3,2020-06-24_17h53.08.817,TranslationElicitation_eng-prolific-spa,3.2.4,Win32,60,5e84efb71d17ad0c8430495a,,1,0,98,77,1,97
,,,,,,,,,,,,,,,,,,,,,,,,,,,,,,,,,,,,,,,,,return,7.213999987,IMPERATIVE,FALSE,,,,,,,82,perro,Spanish,Sounds/spa_perro.mp3,2020-06-24_17h53.08.817,TranslationElicitation_eng-prolific-spa,3.2.4,Win32,60,5e84efb71d17ad0c8430495a,7.213999987,1,0,98,77,1,97
,,,,,,,,,,,,,,,,,,,,,,,,,,,,,,,,,,,,,,,,,,,,,,,,,,,82,perro,Spanish,Sounds/spa_perro.mp3,2020-06-24_17h53.08.817,TranslationElicitation_eng-prolific-spa,3.2.4,Win32,60,5e84efb71d17ad0c8430495a,,1,0,98,77,1,97
,,,,,,,,,,,,,,,,,,,,,,,,,,,,,,,,,,,,,,,,,p,2.11500001,P,FALSE,,,,,,,87,platano,Spanish,Sounds/spa_platano.mp3,2020-06-24_17h53.08.817,TranslationElicitation_eng-prolific-spa,3.2.4,Win32,60,5e84efb71d17ad0c8430495a,,1,0,98,82,1,97
,,,,,,,,,,,,,,,,,,,,,,,,,,,,,,,,,,,,,,,,,l,2.414999962,PL,FALSE,,,,,,,87,platano,Spanish,Sounds/spa_platano.mp3,2020-06-24_17h53.08.817,TranslationElicitation_eng-prolific-spa,3.2.4,Win32,60,5e84efb71d17ad0c8430495a,,1,0,98,82,1,97
,,,,,,,,,,,,,,,,,,,,,,,,,,,,,,,,,,,,,,,,,a,2.464999914,PLA,FALSE,,,,,,,87,platano,Spanish,Sounds/spa_platano.mp3,2020-06-24_17h53.08.817,TranslationElicitation_eng-prolific-spa,3.2.4,Win32,60,5e84efb71d17ad0c8430495a,,1,0,98,82,1,97
,,,,,,,,,,,,,,,,,,,,,,,,,,,,,,,,,,,,,,,,,t,2.664999962,PLAT,FALSE,,,,,,,87,platano,Spanish,Sounds/spa_platano.mp3,2020-06-24_17h53.08.817,TranslationElicitation_eng-prolific-spa,3.2.4,Win32,60,5e84efb71d17ad0c8430495a,,1,0,98,82,1,97
,,,,,,,,,,,,,,,,,,,,,,,,,,,,,,,,,,,,,,,,,e,2.797999859,PLATE,FALSE,,,,,,,87,platano,Spanish,Sounds/spa_platano.mp3,2020-06-24_17h53.08.817,TranslationElicitation_eng-prolific-spa,3.2.4,Win32,60,5e84efb71d17ad0c8430495a,,1,0,98,82,1,97
,,,,,,,,,,,,,,,,,,,,,,,,,,,,,,,,,,,,,,,,,s,3.332000017,PLATES,FALSE,,,,,,,87,platano,Spanish,Sounds/spa_platano.mp3,2020-06-24_17h53.08.817,TranslationElicitation_eng-prolific-spa,3.2.4,Win32,60,5e84efb71d17ad0c8430495a,,1,0,98,82,1,97
,,,,,,,,,,,,,,,,,,,,,,,,,,,,,,,,,,,,,,,,,return,3.697999954,PLATES,FALSE,,,,,,,87,platano,Spanish,Sounds/spa_platano.mp3,2020-06-24_17h53.08.817,TranslationElicitation_eng-prolific-spa,3.2.4,Win32,60,5e84efb71d17ad0c8430495a,3.697999954,1,0,98,82,1,97
,,,,,,,,,,,,,,,,,,,,,,,,,,,,,,,,,,,,,,,,,,,,,,,,,,,87,platano,Spanish,Sounds/spa_platano.mp3,2020-06-24_17h53.08.817,TranslationElicitation_eng-prolific-spa,3.2.4,Win32,60,5e84efb71d17ad0c8430495a,,1,0,98,82,1,97
,,,,,,,,,,,,,,,,,,,,,,,,,,,,,,,,,,,,,,,,,b,2.215999842,B,FALSE,,,,,,,13,buho,Spanish,Sounds/spa_buho.mp3,2020-06-24_17h53.08.817,TranslationElicitation_eng-prolific-spa,3.2.4,Win32,60,5e84efb71d17ad0c8430495a,,1,0,98,11,1,97
,,,,,,,,,,,,,,,,,,,,,,,,,,,,,,,,,,,,,,,,,o,2.332999945,BO,FALSE,,,,,,,13,buho,Spanish,Sounds/spa_buho.mp3,2020-06-24_17h53.08.817,TranslationElicitation_eng-prolific-spa,3.2.4,Win32,60,5e84efb71d17ad0c8430495a,,1,0,98,11,1,97
,,,,,,,,,,,,,,,,,,,,,,,,,,,,,,,,,,,,,,,,,y,2.549000025,BOY,FALSE,,,,,,,13,buho,Spanish,Sounds/spa_buho.mp3,2020-06-24_17h53.08.817,TranslationElicitation_eng-prolific-spa,3.2.4,Win32,60,5e84efb71d17ad0c8430495a,,1,0,98,11,1,97
,,,,,,,,,,,,,,,,,,,,,,,,,,,,,,,,,,,,,,,,,return,2.715999842,BOY,FALSE,,,,,,,13,buho,Spanish,Sounds/spa_buho.mp3,2020-06-24_17h53.08.817,TranslationElicitation_eng-prolific-spa,3.2.4,Win32,60,5e84efb71d17ad0c8430495a,2.715999842,1,0,98,11,1,97
,,,,,,,,,,,,,,,,,,,,,,,,,,,,,,,,,,,,,,,,,,,,,,,,,,,13,buho,Spanish,Sounds/spa_buho.mp3,2020-06-24_17h53.08.817,TranslationElicitation_eng-prolific-spa,3.2.4,Win32,60,5e84efb71d17ad0c8430495a,,1,0,98,11,1,97
,,,,,,,,,,,,,,,,,,,,,,,,,,,,,,,,,,,,,,,,,o,1.999000072,O,FALSE,,,,,,,65,mono,Spanish,Sounds/spa_mono.mp3,2020-06-24_17h53.08.817,TranslationElicitation_eng-prolific-spa,3.2.4,Win32,60,5e84efb71d17ad0c8430495a,,1,0,98,61,1,97
,,,,,,,,,,,,,,,,,,,,,,,,,,,,,,,,,,,,,,,,,n,2.032999992,ON,FALSE,,,,,,,65,mono,Spanish,Sounds/spa_mono.mp3,2020-06-24_17h53.08.817,TranslationElicitation_eng-prolific-spa,3.2.4,Win32,60,5e84efb71d17ad0c8430495a,,1,0,98,61,1,97
,,,,,,,,,,,,,,,,,,,,,,,,,,,,,,,,,,,,,,,,,e,2.149000168,ONE,FALSE,,,,,,,65,mono,Spanish,Sounds/spa_mono.mp3,2020-06-24_17h53.08.817,TranslationElicitation_eng-prolific-spa,3.2.4,Win32,60,5e84efb71d17ad0c8430495a,,1,0,98,61,1,97
,,,,,,,,,,,,,,,,,,,,,,,,,,,,,,,,,,,,,,,,,return,2.599000216,ONE,FALSE,,,,,,,65,mono,Spanish,Sounds/spa_mono.mp3,2020-06-24_17h53.08.817,TranslationElicitation_eng-prolific-spa,3.2.4,Win32,60,5e84efb71d17ad0c8430495a,2.599000216,1,0,98,61,1,97
,,,,,,,,,,,,,,,,,,,,,,,,,,,,,,,,,,,,,,,,,,,,,,,,,,,65,mono,Spanish,Sounds/spa_mono.mp3,2020-06-24_17h53.08.817,TranslationElicitation_eng-prolific-spa,3.2.4,Win32,60,5e84efb71d17ad0c8430495a,,1,0,98,61,1,97
,,,,,,,,,,,,,,,,,,,,,,,,,,,,,,,,,,,,,,,,,m,3.649999857,M,FALSE,,,,,,,67,muneca,Spanish,Sounds/spa_muneca.mp3,2020-06-24_17h53.08.817,TranslationElicitation_eng-prolific-spa,3.2.4,Win32,60,5e84efb71d17ad0c8430495a,,1,0,98,63,1,97
,,,,,,,,,,,,,,,,,,,,,,,,,,,,,,,,,,,,,,,,,o,4.017999887,MO,FALSE,,,,,,,67,muneca,Spanish,Sounds/spa_muneca.mp3,2020-06-24_17h53.08.817,TranslationElicitation_eng-prolific-spa,3.2.4,Win32,60,5e84efb71d17ad0c8430495a,,1,0,98,63,1,97
,,,,,,,,,,,,,,,,,,,,,,,,,,,,,,,,,,,,,,,,,n,4.101999998,MON,FALSE,,,,,,,67,muneca,Spanish,Sounds/spa_muneca.mp3,2020-06-24_17h53.08.817,TranslationElicitation_eng-prolific-spa,3.2.4,Win32,60,5e84efb71d17ad0c8430495a,,1,0,98,63,1,97
,,,,,,,,,,,,,,,,,,,,,,,,,,,,,,,,,,,,,,,,,e,4.582999945,MONE,FALSE,,,,,,,67,muneca,Spanish,Sounds/spa_muneca.mp3,2020-06-24_17h53.08.817,TranslationElicitation_eng-prolific-spa,3.2.4,Win32,60,5e84efb71d17ad0c8430495a,,1,0,98,63,1,97
,,,,,,,,,,,,,,,,,,,,,,,,,,,,,,,,,,,,,,,,,t,4.949999809,MONET,FALSE,,,,,,,67,muneca,Spanish,Sounds/spa_muneca.mp3,2020-06-24_17h53.08.817,TranslationElicitation_eng-prolific-spa,3.2.4,Win32,60,5e84efb71d17ad0c8430495a,,1,0,98,63,1,97
,,,,,,,,,,,,,,,,,,,,,,,,,,,,,,,,,,,,,,,,,a,5.121999979,MONETA,FALSE,,,,,,,67,muneca,Spanish,Sounds/spa_muneca.mp3,2020-06-24_17h53.08.817,TranslationElicitation_eng-prolific-spa,3.2.4,Win32,60,5e84efb71d17ad0c8430495a,,1,0,98,63,1,97
