consentKey.keys,consentKey.rt,languageL1Key.keys,languageL1Key.rt,languageL2,languageL2OralKey.keys,languageL2OralKey.rt,languageL2WrittenKey.keys,languageL2WrittenKey.rt,languageL3OralKey.keys,languageL3OralKey.rt,languageL3WrittenKey.keys,languageL3WrittenKey.rt,languageCatalanOralKey.keys,languageCatalanOralKey.rt,languageCatalanWrittenKey.keys,languageCatalanWrittenKey.rt,languageCatalanTimeKey.keys,languageCatalanTimeKey.rt,languageSpanishOralKey.keys,languageSpanishOralKey.rt,languageSpanishWrittenKey.keys,languageSpanishWrittenKey.rt,languageSpanishTimeKey.keys,languageSpanishTimeKey.rt,age,demoSexKey.keys,demoSexKey.rt,demoEducationKey.keys,demoEducationKey.rt,city,demoVisionKey.keys,demoVisionKey.rt,demoLanguageKey.keys,demoLanguageKey.rt,setupLocationKey.keys,setupLocationKey.rt,setupNoiseKey.keys,setupNoiseKey.rt,instructionsKeys.keys,instructionsKeys.rt,keyPressed,keyPressTime,inputText,error,trialsPracticeCatalan.thisRepN,trialsPracticeCatalan.thisTrialN,trialsPracticeCatalan.thisN,trialsPracticeCatalan.thisIndex,trialsPracticeCatalan.ran,trialsPracticeCatalan.order,trial_id,word,test_language,soundfile,date,expName,psychopyVersion,OS,frameRate,participant,trialOffset,trialsCatalan.thisRepN,trialsCatalan.thisTrialN,trialsCatalan.thisN,trialsCatalan.thisIndex,trialsCatalan.ran,trialsCatalan.order
space,2.147000074,e,2.552000046,,,,,,,,,,1,3.299000025,1,1.886999846,1,2.313000202,1,1.727999926,1,1.06400013,1,1.028000116,24,f,1.282999992,4,2.217999935,LONDON,y,3.815000057,n,2.930999994,1,2.384000063,1,3.471000195,space,4.997000217,t,2.548000097,T,FALSE,1,0,5,4,1,4,179,tigre,Catalan,Sounds/cat_tigre.mp3,2020-06-12_20h48.08.412,TranslationElicitation_eng-prolific,3.2.4,MacIntel,60,5e85f278c880ee1edb7e96ee,,,,,,,
,,,,,,,,,,,,,,,,,,,,,,,,,,,,,,,,,,,,,,,,,i,2.681999922,TI,FALSE,1,0,5,4,1,4,179,tigre,Catalan,Sounds/cat_tigre.mp3,2020-06-12_20h48.08.412,TranslationElicitation_eng-prolific,3.2.4,MacIntel,60,5e85f278c880ee1edb7e96ee,,,,,,,
,,,,,,,,,,,,,,,,,,,,,,,,,,,,,,,,,,,,,,,,,g,2.799000025,TIG,FALSE,1,0,5,4,1,4,179,tigre,Catalan,Sounds/cat_tigre.mp3,2020-06-12_20h48.08.412,TranslationElicitation_eng-prolific,3.2.4,MacIntel,60,5e85f278c880ee1edb7e96ee,,,,,,,
,,,,,,,,,,,,,,,,,,,,,,,,,,,,,,,,,,,,,,,,,e,3.049999952,TIGE,FALSE,1,0,5,4,1,4,179,tigre,Catalan,Sounds/cat_tigre.mp3,2020-06-12_20h48.08.412,TranslationElicitation_eng-prolific,3.2.4,MacIntel,60,5e85f278c880ee1edb7e96ee,,,,,,,
,,,,,,,,,,,,,,,,,,,,,,,,,,,,,,,,,,,,,,,,,r,3.148999929,TIGER,FALSE,1,0,5,4,1,4,179,tigre,Catalan,Sounds/cat_tigre.mp3,2020-06-12_20h48.08.412,TranslationElicitation_eng-prolific,3.2.4,MacIntel,60,5e85f278c880ee1edb7e96ee,,,,,,,
,,,,,,,,,,,,,,,,,,,,,,,,,,,,,,,,,,,,,,,,,return,3.381999969,TIGER,FALSE,1,0,5,4,1,4,179,tigre,Catalan,Sounds/cat_tigre.mp3,2020-06-12_20h48.08.412,TranslationElicitation_eng-prolific,3.2.4,MacIntel,60,5e85f278c880ee1edb7e96ee,3.381999969,,,,,,
,,,,,,,,,,,,,,,,,,,,,,,,,,,,,,,,,,,,,,,,,,,,,1,0,5,4,1,4,179,tigre,Catalan,Sounds/cat_tigre.mp3,2020-06-12_20h48.08.412,TranslationElicitation_eng-prolific,3.2.4,MacIntel,60,5e85f278c880ee1edb7e96ee,,,,,,,
,,,,,,,,,,,,,,,,,,,,,,,,,,,,,,,,,,,,,,,,,b,6.683000088,B,FALSE,1,0,5,3,1,4,159,onada,Catalan,Sounds/cat_onada.mp3,2020-06-12_20h48.08.412,TranslationElicitation_eng-prolific,3.2.4,MacIntel,60,5e85f278c880ee1edb7e96ee,,,,,,,
,,,,,,,,,,,,,,,,,,,,,,,,,,,,,,,,,,,,,,,,,i,6.717000008,BI,FALSE,1,0,5,3,1,4,159,onada,Catalan,Sounds/cat_onada.mp3,2020-06-12_20h48.08.412,TranslationElicitation_eng-prolific,3.2.4,MacIntel,60,5e85f278c880ee1edb7e96ee,,,,,,,
,,,,,,,,,,,,,,,,,,,,,,,,,,,,,,,,,,,,,,,,,r,6.817000151,BIR,FALSE,1,0,5,3,1,4,159,onada,Catalan,Sounds/cat_onada.mp3,2020-06-12_20h48.08.412,TranslationElicitation_eng-prolific,3.2.4,MacIntel,60,5e85f278c880ee1edb7e96ee,,,,,,,
,,,,,,,,,,,,,,,,,,,,,,,,,,,,,,,,,,,,,,,,,d,6.900000095,BIRD,FALSE,1,0,5,3,1,4,159,onada,Catalan,Sounds/cat_onada.mp3,2020-06-12_20h48.08.412,TranslationElicitation_eng-prolific,3.2.4,MacIntel,60,5e85f278c880ee1edb7e96ee,,,,,,,
,,,,,,,,,,,,,,,,,,,,,,,,,,,,,,,,,,,,,,,,,return,7.131999969,BIRD,FALSE,1,0,5,3,1,4,159,onada,Catalan,Sounds/cat_onada.mp3,2020-06-12_20h48.08.412,TranslationElicitation_eng-prolific,3.2.4,MacIntel,60,5e85f278c880ee1edb7e96ee,7.131999969,,,,,,
,,,,,,,,,,,,,,,,,,,,,,,,,,,,,,,,,,,,,,,,,,,,,1,0,5,3,1,4,159,onada,Catalan,Sounds/cat_onada.mp3,2020-06-12_20h48.08.412,TranslationElicitation_eng-prolific,3.2.4,MacIntel,60,5e85f278c880ee1edb7e96ee,,,,,,,
,,,,,,,,,,,,,,,,,,,,,,,,,,,,,,,,,,,,,,,,,b,3.082000017,B,FALSE,1,0,5,1,1,4,126,corona,Catalan,Sounds/cat_corona.mp3,2020-06-12_20h48.08.412,TranslationElicitation_eng-prolific,3.2.4,MacIntel,60,5e85f278c880ee1edb7e96ee,,,,,,,
,,,,,,,,,,,,,,,,,,,,,,,,,,,,,,,,,,,,,,,,,e,3.11500001,BE,FALSE,1,0,5,1,1,4,126,corona,Catalan,Sounds/cat_corona.mp3,2020-06-12_20h48.08.412,TranslationElicitation_eng-prolific,3.2.4,MacIntel,60,5e85f278c880ee1edb7e96ee,,,,,,,
,,,,,,,,,,,,,,,,,,,,,,,,,,,,,,,,,,,,,,,,,e,3.299000025,BEE,FALSE,1,0,5,1,1,4,126,corona,Catalan,Sounds/cat_corona.mp3,2020-06-12_20h48.08.412,TranslationElicitation_eng-prolific,3.2.4,MacIntel,60,5e85f278c880ee1edb7e96ee,,,,,,,
,,,,,,,,,,,,,,,,,,,,,,,,,,,,,,,,,,,,,,,,,r,3.430999994,BEER,FALSE,1,0,5,1,1,4,126,corona,Catalan,Sounds/cat_corona.mp3,2020-06-12_20h48.08.412,TranslationElicitation_eng-prolific,3.2.4,MacIntel,60,5e85f278c880ee1edb7e96ee,,,,,,,
,,,,,,,,,,,,,,,,,,,,,,,,,,,,,,,,,,,,,,,,,return,3.565999985,BEER,FALSE,1,0,5,1,1,4,126,corona,Catalan,Sounds/cat_corona.mp3,2020-06-12_20h48.08.412,TranslationElicitation_eng-prolific,3.2.4,MacIntel,60,5e85f278c880ee1edb7e96ee,3.565999985,,,,,,
,,,,,,,,,,,,,,,,,,,,,,,,,,,,,,,,,,,,,,,,,,,,,1,0,5,1,1,4,126,corona,Catalan,Sounds/cat_corona.mp3,2020-06-12_20h48.08.412,TranslationElicitation_eng-prolific,3.2.4,MacIntel,60,5e85f278c880ee1edb7e96ee,,,,,,,
,,,,,,,,,,,,,,,,,,,,,,,,,,,,,,,,,,,,,,,,,b,5.733999968,B,FALSE,1,0,5,2,1,4,147,jaqueta,Catalan,Sounds/cat_jaqueta.mp3,2020-06-12_20h48.08.412,TranslationElicitation_eng-prolific,3.2.4,MacIntel,60,5e85f278c880ee1edb7e96ee,,,,,,,
,,,,,,,,,,,,,,,,,,,,,,,,,,,,,,,,,,,,,,,,,u,5.782999992,BU,FALSE,1,0,5,2,1,4,147,jaqueta,Catalan,Sounds/cat_jaqueta.mp3,2020-06-12_20h48.08.412,TranslationElicitation_eng-prolific,3.2.4,MacIntel,60,5e85f278c880ee1edb7e96ee,,,,,,,
,,,,,,,,,,,,,,,,,,,,,,,,,,,,,,,,,,,,,,,,,y,5.900000095,BUY,FALSE,1,0,5,2,1,4,147,jaqueta,Catalan,Sounds/cat_jaqueta.mp3,2020-06-12_20h48.08.412,TranslationElicitation_eng-prolific,3.2.4,MacIntel,60,5e85f278c880ee1edb7e96ee,,,,,,,
,,,,,,,,,,,,,,,,,,,,,,,,,,,,,,,,,,,,,,,,,return,6.23300004,BUY,FALSE,1,0,5,2,1,4,147,jaqueta,Catalan,Sounds/cat_jaqueta.mp3,2020-06-12_20h48.08.412,TranslationElicitation_eng-prolific,3.2.4,MacIntel,60,5e85f278c880ee1edb7e96ee,6.23300004,,,,,,
,,,,,,,,,,,,,,,,,,,,,,,,,,,,,,,,,,,,,,,,,,,,,1,0,5,2,1,4,147,jaqueta,Catalan,Sounds/cat_jaqueta.mp3,2020-06-12_20h48.08.412,TranslationElicitation_eng-prolific,3.2.4,MacIntel,60,5e85f278c880ee1edb7e96ee,,,,,,,
,,,,,,,,,,,,,,,,,,,,,,,,,,,,,,,,,,,,,,,,,c,9.717000008,C,FALSE,1,0,5,0,1,4,109,arbre,Catalan,Sounds/cat_arbre.mp3,2020-06-12_20h48.08.412,TranslationElicitation_eng-prolific,3.2.4,MacIntel,60,5e85f278c880ee1edb7e96ee,,,,,,,
,,,,,,,,,,,,,,,,,,,,,,,,,,,,,,,,,,,,,,,,,a,9.851000071,CA,FALSE,1,0,5,0,1,4,109,arbre,Catalan,Sounds/cat_arbre.mp3,2020-06-12_20h48.08.412,TranslationElicitation_eng-prolific,3.2.4,MacIntel,60,5e85f278c880ee1edb7e96ee,,,,,,,
,,,,,,,,,,,,,,,,,,,,,,,,,,,,,,,,,,,,,,,,,r,9.90199995,CAR,FALSE,1,0,5,0,1,4,109,arbre,Catalan,Sounds/cat_arbre.mp3,2020-06-12_20h48.08.412,TranslationElicitation_eng-prolific,3.2.4,MacIntel,60,5e85f278c880ee1edb7e96ee,,,,,,,
,,,,,,,,,,,,,,,,,,,,,,,,,,,,,,,,,,,,,,,,,return,10.03500009,CAR,FALSE,1,0,5,0,1,4,109,arbre,Catalan,Sounds/cat_arbre.mp3,2020-06-12_20h48.08.412,TranslationElicitation_eng-prolific,3.2.4,MacIntel,60,5e85f278c880ee1edb7e96ee,10.03500009,,,,,,
,,,,,,,,,,,,,,,,,,,,,,,,,,,,,,,,,,,,,,,,,,,,,1,0,5,0,1,4,109,arbre,Catalan,Sounds/cat_arbre.mp3,2020-06-12_20h48.08.412,TranslationElicitation_eng-prolific,3.2.4,MacIntel,60,5e85f278c880ee1edb7e96ee,,,,,,,
,,,,,,,,,,,,,,,,,,,,,,,,,,,,,,,,,,,,,,,,,m,2.082000017,M,FALSE,,,,,,,157,mussol,Catalan,Sounds/cat_mussol.mp3,2020-06-12_20h48.08.412,TranslationElicitation_eng-prolific,3.2.4,MacIntel,60,5e85f278c880ee1edb7e96ee,,1,0,81,50,1,80
,,,,,,,,,,,,,,,,,,,,,,,,,,,,,,,,,,,,,,,,,u,2.282000065,MU,FALSE,,,,,,,157,mussol,Catalan,Sounds/cat_mussol.mp3,2020-06-12_20h48.08.412,TranslationElicitation_eng-prolific,3.2.4,MacIntel,60,5e85f278c880ee1edb7e96ee,,1,0,81,50,1,80
,,,,,,,,,,,,,,,,,,,,,,,,,,,,,,,,,,,,,,,,,s,2.367000103,MUS,FALSE,,,,,,,157,mussol,Catalan,Sounds/cat_mussol.mp3,2020-06-12_20h48.08.412,TranslationElicitation_eng-prolific,3.2.4,MacIntel,60,5e85f278c880ee1edb7e96ee,,1,0,81,50,1,80
,,,,,,,,,,,,,,,,,,,,,,,,,,,,,,,,,,,,,,,,,c,2.433000088,MUSC,FALSE,,,,,,,157,mussol,Catalan,Sounds/cat_mussol.mp3,2020-06-12_20h48.08.412,TranslationElicitation_eng-prolific,3.2.4,MacIntel,60,5e85f278c880ee1edb7e96ee,,1,0,81,50,1,80
,,,,,,,,,,,,,,,,,,,,,,,,,,,,,,,,,,,,,,,,,l,2.538000107,MUSCL,FALSE,,,,,,,157,mussol,Catalan,Sounds/cat_mussol.mp3,2020-06-12_20h48.08.412,TranslationElicitation_eng-prolific,3.2.4,MacIntel,60,5e85f278c880ee1edb7e96ee,,1,0,81,50,1,80
,,,,,,,,,,,,,,,,,,,,,,,,,,,,,,,,,,,,,,,,,e,2.61500001,MUSCLE,FALSE,,,,,,,157,mussol,Catalan,Sounds/cat_mussol.mp3,2020-06-12_20h48.08.412,TranslationElicitation_eng-prolific,3.2.4,MacIntel,60,5e85f278c880ee1edb7e96ee,,1,0,81,50,1,80
,,,,,,,,,,,,,,,,,,,,,,,,,,,,,,,,,,,,,,,,,return,3,MUSCLE,FALSE,,,,,,,157,mussol,Catalan,Sounds/cat_mussol.mp3,2020-06-12_20h48.08.412,TranslationElicitation_eng-prolific,3.2.4,MacIntel,60,5e85f278c880ee1edb7e96ee,3,1,0,81,50,1,80
,,,,,,,,,,,,,,,,,,,,,,,,,,,,,,,,,,,,,,,,,,,,,,,,,,,157,mussol,Catalan,Sounds/cat_mussol.mp3,2020-06-12_20h48.08.412,TranslationElicitation_eng-prolific,3.2.4,MacIntel,60,5e85f278c880ee1edb7e96ee,,1,0,81,50,1,80
,,,,,,,,,,,,,,,,,,,,,,,,,,,,,,,,,,,,,,,,,p,3.901000023,P,FALSE,,,,,,,174,porta,Catalan,Sounds/cat_porta.mp3,2020-06-12_20h48.08.412,TranslationElicitation_eng-prolific,3.2.4,MacIntel,60,5e85f278c880ee1edb7e96ee,,1,0,81,66,1,80
,,,,,,,,,,,,,,,,,,,,,,,,,,,,,,,,,,,,,,,,,a,3.965999842,PA,FALSE,,,,,,,174,porta,Catalan,Sounds/cat_porta.mp3,2020-06-12_20h48.08.412,TranslationElicitation_eng-prolific,3.2.4,MacIntel,60,5e85f278c880ee1edb7e96ee,,1,0,81,66,1,80
,,,,,,,,,,,,,,,,,,,,,,,,,,,,,,,,,,,,,,,,,r,4.036000013,PAR,FALSE,,,,,,,174,porta,Catalan,Sounds/cat_porta.mp3,2020-06-12_20h48.08.412,TranslationElicitation_eng-prolific,3.2.4,MacIntel,60,5e85f278c880ee1edb7e96ee,,1,0,81,66,1,80
,,,,,,,,,,,,,,,,,,,,,,,,,,,,,,,,,,,,,,,,,k,4.100999832,PARK,FALSE,,,,,,,174,porta,Catalan,Sounds/cat_porta.mp3,2020-06-12_20h48.08.412,TranslationElicitation_eng-prolific,3.2.4,MacIntel,60,5e85f278c880ee1edb7e96ee,,1,0,81,66,1,80
,,,,,,,,,,,,,,,,,,,,,,,,,,,,,,,,,,,,,,,,,return,4.45299983,PARK,FALSE,,,,,,,174,porta,Catalan,Sounds/cat_porta.mp3,2020-06-12_20h48.08.412,TranslationElicitation_eng-prolific,3.2.4,MacIntel,60,5e85f278c880ee1edb7e96ee,4.45299983,1,0,81,66,1,80
,,,,,,,,,,,,,,,,,,,,,,,,,,,,,,,,,,,,,,,,,,,,,,,,,,,174,porta,Catalan,Sounds/cat_porta.mp3,2020-06-12_20h48.08.412,TranslationElicitation_eng-prolific,3.2.4,MacIntel,60,5e85f278c880ee1edb7e96ee,,1,0,81,66,1,80
,,,,,,,,,,,,,,,,,,,,,,,,,,,,,,,,,,,,,,,,,t,5.166000128,T,FALSE,,,,,,,186,ungla,Catalan,Sounds/cat_ungla.mp3,2020-06-12_20h48.08.412,TranslationElicitation_eng-prolific,3.2.4,MacIntel,60,5e85f278c880ee1edb7e96ee,,1,0,81,77,1,80
,,,,,,,,,,,,,,,,,,,,,,,,,,,,,,,,,,,,,,,,,r,5.348999977,TR,FALSE,,,,,,,186,ungla,Catalan,Sounds/cat_ungla.mp3,2020-06-12_20h48.08.412,TranslationElicitation_eng-prolific,3.2.4,MacIntel,60,5e85f278c880ee1edb7e96ee,,1,0,81,77,1,80
,,,,,,,,,,,,,,,,,,,,,,,,,,,,,,,,,,,,,,,,,e,5.44900012,TRE,FALSE,,,,,,,186,ungla,Catalan,Sounds/cat_ungla.mp3,2020-06-12_20h48.08.412,TranslationElicitation_eng-prolific,3.2.4,MacIntel,60,5e85f278c880ee1edb7e96ee,,1,0,81,77,1,80
,,,,,,,,,,,,,,,,,,,,,,,,,,,,,,,,,,,,,,,,,e,5.582000017,TREE,FALSE,,,,,,,186,ungla,Catalan,Sounds/cat_ungla.mp3,2020-06-12_20h48.08.412,TranslationElicitation_eng-prolific,3.2.4,MacIntel,60,5e85f278c880ee1edb7e96ee,,1,0,81,77,1,80
,,,,,,,,,,,,,,,,,,,,,,,,,,,,,,,,,,,,,,,,,return,5.681999922,TREE,FALSE,,,,,,,186,ungla,Catalan,Sounds/cat_ungla.mp3,2020-06-12_20h48.08.412,TranslationElicitation_eng-prolific,3.2.4,MacIntel,60,5e85f278c880ee1edb7e96ee,5.681999922,1,0,81,77,1,80
,,,,,,,,,,,,,,,,,,,,,,,,,,,,,,,,,,,,,,,,,,,,,,,,,,,186,ungla,Catalan,Sounds/cat_ungla.mp3,2020-06-12_20h48.08.412,TranslationElicitation_eng-prolific,3.2.4,MacIntel,60,5e85f278c880ee1edb7e96ee,,1,0,81,77,1,80
,,,,,,,,,,,,,,,,,,,,,,,,,,,,,,,,,,,,,,,,,a,1.682999849,A,FALSE,,,,,,,132,estrella,Catalan,Sounds/cat_estrella.mp3,2020-06-12_20h48.08.412,TranslationElicitation_eng-prolific,3.2.4,MacIntel,60,5e85f278c880ee1edb7e96ee,,1,0,81,26,1,80
,,,,,,,,,,,,,,,,,,,,,,,,,,,,,,,,,,,,,,,,,u,1.799000025,AU,FALSE,,,,,,,132,estrella,Catalan,Sounds/cat_estrella.mp3,2020-06-12_20h48.08.412,TranslationElicitation_eng-prolific,3.2.4,MacIntel,60,5e85f278c880ee1edb7e96ee,,1,0,81,26,1,80
,,,,,,,,,,,,,,,,,,,,,,,,,,,,,,,,,,,,,,,,,s,1.898999929,AUS,FALSE,,,,,,,132,estrella,Catalan,Sounds/cat_estrella.mp3,2020-06-12_20h48.08.412,TranslationElicitation_eng-prolific,3.2.4,MacIntel,60,5e85f278c880ee1edb7e96ee,,1,0,81,26,1,80
,,,,,,,,,,,,,,,,,,,,,,,,,,,,,,,,,,,,,,,,,t,1.997999907,AUST,FALSE,,,,,,,132,estrella,Catalan,Sounds/cat_estrella.mp3,2020-06-12_20h48.08.412,TranslationElicitation_eng-prolific,3.2.4,MacIntel,60,5e85f278c880ee1edb7e96ee,,1,0,81,26,1,80
,,,,,,,,,,,,,,,,,,,,,,,,,,,,,,,,,,,,,,,,,r,2.164999962,AUSTR,FALSE,,,,,,,132,estrella,Catalan,Sounds/cat_estrella.mp3,2020-06-12_20h48.08.412,TranslationElicitation_eng-prolific,3.2.4,MacIntel,60,5e85f278c880ee1edb7e96ee,,1,0,81,26,1,80
,,,,,,,,,,,,,,,,,,,,,,,,,,,,,,,,,,,,,,,,,a,2.214999914,AUSTRA,FALSE,,,,,,,132,estrella,Catalan,Sounds/cat_estrella.mp3,2020-06-12_20h48.08.412,TranslationElicitation_eng-prolific,3.2.4,MacIntel,60,5e85f278c880ee1edb7e96ee,,1,0,81,26,1,80
,,,,,,,,,,,,,,,,,,,,,,,,,,,,,,,,,,,,,,,,,l,2.282999992,AUSTRAL,FALSE,,,,,,,132,estrella,Catalan,Sounds/cat_estrella.mp3,2020-06-12_20h48.08.412,TranslationElicitation_eng-prolific,3.2.4,MacIntel,60,5e85f278c880ee1edb7e96ee,,1,0,81,26,1,80
,,,,,,,,,,,,,,,,,,,,,,,,,,,,,,,,,,,,,,,,,i,2.332000017,AUSTRALI,FALSE,,,,,,,132,estrella,Catalan,Sounds/cat_estrella.mp3,2020-06-12_20h48.08.412,TranslationElicitation_eng-prolific,3.2.4,MacIntel,60,5e85f278c880ee1edb7e96ee,,1,0,81,26,1,80
,,,,,,,,,,,,,,,,,,,,,,,,,,,,,,,,,,,,,,,,,a,2.432999849,AUSTRALIA,FALSE,,,,,,,132,estrella,Catalan,Sounds/cat_estrella.mp3,2020-06-12_20h48.08.412,TranslationElicitation_eng-prolific,3.2.4,MacIntel,60,5e85f278c880ee1edb7e96ee,,1,0,81,26,1,80
,,,,,,,,,,,,,,,,,,,,,,,,,,,,,,,,,,,,,,,,,return,2.766000032,AUSTRALIA,FALSE,,,,,,,132,estrella,Catalan,Sounds/cat_estrella.mp3,2020-06-12_20h48.08.412,TranslationElicitation_eng-prolific,3.2.4,MacIntel,60,5e85f278c880ee1edb7e96ee,2.766000032,1,0,81,26,1,80
,,,,,,,,,,,,,,,,,,,,,,,,,,,,,,,,,,,,,,,,,,,,,,,,,,,132,estrella,Catalan,Sounds/cat_estrella.mp3,2020-06-12_20h48.08.412,TranslationElicitation_eng-prolific,3.2.4,MacIntel,60,5e85f278c880ee1edb7e96ee,,1,0,81,26,1,80
,,,,,,,,,,,,,,,,,,,,,,,,,,,,,,,,,,,,,,,,,w,2.230999947,W,FALSE,,,,,,,161,ovella,Catalan,Sounds/cat_ovella.mp3,2020-06-12_20h48.08.412,TranslationElicitation_eng-prolific,3.2.4,MacIntel,60,5e85f278c880ee1edb7e96ee,,1,0,81,53,1,80
,,,,,,,,,,,,,,,,,,,,,,,,,,,,,,,,,,,,,,,,,e,2.297999859,WE,FALSE,,,,,,,161,ovella,Catalan,Sounds/cat_ovella.mp3,2020-06-12_20h48.08.412,TranslationElicitation_eng-prolific,3.2.4,MacIntel,60,5e85f278c880ee1edb7e96ee,,1,0,81,53,1,80
,,,,,,,,,,,,,,,,,,,,,,,,,,,,,,,,,,,,,,,,,l,2.499000072,WEL,FALSE,,,,,,,161,ovella,Catalan,Sounds/cat_ovella.mp3,2020-06-12_20h48.08.412,TranslationElicitation_eng-prolific,3.2.4,MacIntel,60,5e85f278c880ee1edb7e96ee,,1,0,81,53,1,80
,,,,,,,,,,,,,,,,,,,,,,,,,,,,,,,,,,,,,,,,,l,2.664999962,WELL,FALSE,,,,,,,161,ovella,Catalan,Sounds/cat_ovella.mp3,2020-06-12_20h48.08.412,TranslationElicitation_eng-prolific,3.2.4,MacIntel,60,5e85f278c880ee1edb7e96ee,,1,0,81,53,1,80
,,,,,,,,,,,,,,,,,,,,,,,,,,,,,,,,,,,,,,,,,return,2.964999914,WELL,FALSE,,,,,,,161,ovella,Catalan,Sounds/cat_ovella.mp3,2020-06-12_20h48.08.412,TranslationElicitation_eng-prolific,3.2.4,MacIntel,60,5e85f278c880ee1edb7e96ee,2.964999914,1,0,81,53,1,80
,,,,,,,,,,,,,,,,,,,,,,,,,,,,,,,,,,,,,,,,,,,,,,,,,,,161,ovella,Catalan,Sounds/cat_ovella.mp3,2020-06-12_20h48.08.412,TranslationElicitation_eng-prolific,3.2.4,MacIntel,60,5e85f278c880ee1edb7e96ee,,1,0,81,53,1,80
,,,,,,,,,,,,,,,,,,,,,,,,,,,,,,,,,,,,,,,,,h,3.047999859,H,FALSE,,,,,,,148,lleo,Catalan,Sounds/cat_lleo.mp3,2020-06-12_20h48.08.412,TranslationElicitation_eng-prolific,3.2.4,MacIntel,60,5e85f278c880ee1edb7e96ee,,1,0,81,41,1,80
,,,,,,,,,,,,,,,,,,,,,,,,,,,,,,,,,,,,,,,,,o,3.148000002,HO,FALSE,,,,,,,148,lleo,Catalan,Sounds/cat_lleo.mp3,2020-06-12_20h48.08.412,TranslationElicitation_eng-prolific,3.2.4,MacIntel,60,5e85f278c880ee1edb7e96ee,,1,0,81,41,1,80
,,,,,,,,,,,,,,,,,,,,,,,,,,,,,,,,,,,,,,,,,u,3.220000029,HOU,FALSE,,,,,,,148,lleo,Catalan,Sounds/cat_lleo.mp3,2020-06-12_20h48.08.412,TranslationElicitation_eng-prolific,3.2.4,MacIntel,60,5e85f278c880ee1edb7e96ee,,1,0,81,41,1,80
,,,,,,,,,,,,,,,,,,,,,,,,,,,,,,,,,,,,,,,,,r,3.330999851,HOUR,FALSE,,,,,,,148,lleo,Catalan,Sounds/cat_lleo.mp3,2020-06-12_20h48.08.412,TranslationElicitation_eng-prolific,3.2.4,MacIntel,60,5e85f278c880ee1edb7e96ee,,1,0,81,41,1,80
,,,,,,,,,,,,,,,,,,,,,,,,,,,,,,,,,,,,,,,,,return,3.586999893,HOUR,FALSE,,,,,,,148,lleo,Catalan,Sounds/cat_lleo.mp3,2020-06-12_20h48.08.412,TranslationElicitation_eng-prolific,3.2.4,MacIntel,60,5e85f278c880ee1edb7e96ee,3.586999893,1,0,81,41,1,80
,,,,,,,,,,,,,,,,,,,,,,,,,,,,,,,,,,,,,,,,,,,,,,,,,,,148,lleo,Catalan,Sounds/cat_lleo.mp3,2020-06-12_20h48.08.412,TranslationElicitation_eng-prolific,3.2.4,MacIntel,60,5e85f278c880ee1edb7e96ee,,1,0,81,41,1,80
,,,,,,,,,,,,,,,,,,,,,,,,,,,,,,,,,,,,,,,,,g,4.33100009,G,FALSE,,,,,,,140,gat,Catalan,Sounds/cat_gat.mp3,2020-06-12_20h48.08.412,TranslationElicitation_eng-prolific,3.2.4,MacIntel,60,5e85f278c880ee1edb7e96ee,,1,0,81,34,1,80
,,,,,,,,,,,,,,,,,,,,,,,,,,,,,,,,,,,,,,,,,o,4.365999937,GO,FALSE,,,,,,,140,gat,Catalan,Sounds/cat_gat.mp3,2020-06-12_20h48.08.412,TranslationElicitation_eng-prolific,3.2.4,MacIntel,60,5e85f278c880ee1edb7e96ee,,1,0,81,34,1,80
,,,,,,,,,,,,,,,,,,,,,,,,,,,,,,,,,,,,,,,,,d,4.48300004,GOD,FALSE,,,,,,,140,gat,Catalan,Sounds/cat_gat.mp3,2020-06-12_20h48.08.412,TranslationElicitation_eng-prolific,3.2.4,MacIntel,60,5e85f278c880ee1edb7e96ee,,1,0,81,34,1,80
,,,,,,,,,,,,,,,,,,,,,,,,,,,,,,,,,,,,,,,,,return,4.631000042,GOD,FALSE,,,,,,,140,gat,Catalan,Sounds/cat_gat.mp3,2020-06-12_20h48.08.412,TranslationElicitation_eng-prolific,3.2.4,MacIntel,60,5e85f278c880ee1edb7e96ee,4.631000042,1,0,81,34,1,80
,,,,,,,,,,,,,,,,,,,,,,,,,,,,,,,,,,,,,,,,,,,,,,,,,,,140,gat,Catalan,Sounds/cat_gat.mp3,2020-06-12_20h48.08.412,TranslationElicitation_eng-prolific,3.2.4,MacIntel,60,5e85f278c880ee1edb7e96ee,,1,0,81,34,1,80
,,,,,,,,,,,,,,,,,,,,,,,,,,,,,,,,,,,,,,,,,a,2.214999914,A,FALSE,,,,,,,105,aigua,Catalan,Sounds/cat_aigua.mp3,2020-06-12_20h48.08.412,TranslationElicitation_eng-prolific,3.2.4,MacIntel,60,5e85f278c880ee1edb7e96ee,,1,0,81,1,1,80
,,,,,,,,,,,,,,,,,,,,,,,,,,,,,,,,,,,,,,,,,q,2.515999794,AQ,FALSE,,,,,,,105,aigua,Catalan,Sounds/cat_aigua.mp3,2020-06-12_20h48.08.412,TranslationElicitation_eng-prolific,3.2.4,MacIntel,60,5e85f278c880ee1edb7e96ee,,1,0,81,1,1,80
,,,,,,,,,,,,,,,,,,,,,,,,,,,,,,,,,,,,,,,,,u,2.614999771,AQU,FALSE,,,,,,,105,aigua,Catalan,Sounds/cat_aigua.mp3,2020-06-12_20h48.08.412,TranslationElicitation_eng-prolific,3.2.4,MacIntel,60,5e85f278c880ee1edb7e96ee,,1,0,81,1,1,80
,,,,,,,,,,,,,,,,,,,,,,,,,,,,,,,,,,,,,,,,,a,2.748999834,AQUA,FALSE,,,,,,,105,aigua,Catalan,Sounds/cat_aigua.mp3,2020-06-12_20h48.08.412,TranslationElicitation_eng-prolific,3.2.4,MacIntel,60,5e85f278c880ee1edb7e96ee,,1,0,81,1,1,80
,,,,,,,,,,,,,,,,,,,,,,,,,,,,,,,,,,,,,,,,,return,2.988999844,AQUA,FALSE,,,,,,,105,aigua,Catalan,Sounds/cat_aigua.mp3,2020-06-12_20h48.08.412,TranslationElicitation_eng-prolific,3.2.4,MacIntel,60,5e85f278c880ee1edb7e96ee,2.988999844,1,0,81,1,1,80
,,,,,,,,,,,,,,,,,,,,,,,,,,,,,,,,,,,,,,,,,,,,,,,,,,,105,aigua,Catalan,Sounds/cat_aigua.mp3,2020-06-12_20h48.08.412,TranslationElicitation_eng-prolific,3.2.4,MacIntel,60,5e85f278c880ee1edb7e96ee,,1,0,81,1,1,80
,,,,,,,,,,,,,,,,,,,,,,,,,,,,,,,,,,,,,,,,,m,5.382999897,M,FALSE,,,,,,,154,mirall,Catalan,Sounds/cat_mirall.mp3,2020-06-12_20h48.08.412,TranslationElicitation_eng-prolific,3.2.4,MacIntel,60,5e85f278c880ee1edb7e96ee,,1,0,81,47,1,80
,,,,,,,,,,,,,,,,,,,,,,,,,,,,,,,,,,,,,,,,,i,5.500999928,MI,FALSE,,,,,,,154,mirall,Catalan,Sounds/cat_mirall.mp3,2020-06-12_20h48.08.412,TranslationElicitation_eng-prolific,3.2.4,MacIntel,60,5e85f278c880ee1edb7e96ee,,1,0,81,47,1,80
,,,,,,,,,,,,,,,,,,,,,,,,,,,,,,,,,,,,,,,,,r,5.756000042,MIR,FALSE,,,,,,,154,mirall,Catalan,Sounds/cat_mirall.mp3,2020-06-12_20h48.08.412,TranslationElicitation_eng-prolific,3.2.4,MacIntel,60,5e85f278c880ee1edb7e96ee,,1,0,81,47,1,80
,,,,,,,,,,,,,,,,,,,,,,,,,,,,,,,,,,,,,,,,,a,5.983999968,MIRA,FALSE,,,,,,,154,mirall,Catalan,Sounds/cat_mirall.mp3,2020-06-12_20h48.08.412,TranslationElicitation_eng-prolific,3.2.4,MacIntel,60,5e85f278c880ee1edb7e96ee,,1,0,81,47,1,80
,,,,,,,,,,,,,,,,,,,,,,,,,,,,,,,,,,,,,,,,,g,6.217999935,MIRAG,FALSE,,,,,,,154,mirall,Catalan,Sounds/cat_mirall.mp3,2020-06-12_20h48.08.412,TranslationElicitation_eng-prolific,3.2.4,MacIntel,60,5e85f278c880ee1edb7e96ee,,1,0,81,47,1,80
,,,,,,,,,,,,,,,,,,,,,,,,,,,,,,,,,,,,,,,,,e,6.316999912,MIRAGE,FALSE,,,,,,,154,mirall,Catalan,Sounds/cat_mirall.mp3,2020-06-12_20h48.08.412,TranslationElicitation_eng-prolific,3.2.4,MacIntel,60,5e85f278c880ee1edb7e96ee,,1,0,81,47,1,80
,,,,,,,,,,,,,,,,,,,,,,,,,,,,,,,,,,,,,,,,,return,6.415999889,MIRAGE,FALSE,,,,,,,154,mirall,Catalan,Sounds/cat_mirall.mp3,2020-06-12_20h48.08.412,TranslationElicitation_eng-prolific,3.2.4,MacIntel,60,5e85f278c880ee1edb7e96ee,6.415999889,1,0,81,47,1,80
,,,,,,,,,,,,,,,,,,,,,,,,,,,,,,,,,,,,,,,,,,,,,,,,,,,154,mirall,Catalan,Sounds/cat_mirall.mp3,2020-06-12_20h48.08.412,TranslationElicitation_eng-prolific,3.2.4,MacIntel,60,5e85f278c880ee1edb7e96ee,,1,0,81,47,1,80
,,,,,,,,,,,,,,,,,,,,,,,,,,,,,,,,,,,,,,,,,f,4.999000072,F,FALSE,,,,,,,162,pa,Catalan,Sounds/cat_pa.mp3,2020-06-12_20h48.08.412,TranslationElicitation_eng-prolific,3.2.4,MacIntel,60,5e85f278c880ee1edb7e96ee,,1,0,81,54,1,80
,,,,,,,,,,,,,,,,,,,,,,,,,,,,,,,,,,,,,,,,,o,5.049000025,FO,FALSE,,,,,,,162,pa,Catalan,Sounds/cat_pa.mp3,2020-06-12_20h48.08.412,TranslationElicitation_eng-prolific,3.2.4,MacIntel,60,5e85f278c880ee1edb7e96ee,,1,0,81,54,1,80
,,,,,,,,,,,,,,,,,,,,,,,,,,,,,,,,,,,,,,,,,r,5.183000088,FOR,FALSE,,,,,,,162,pa,Catalan,Sounds/cat_pa.mp3,2020-06-12_20h48.08.412,TranslationElicitation_eng-prolific,3.2.4,MacIntel,60,5e85f278c880ee1edb7e96ee,,1,0,81,54,1,80
,,,,,,,,,,,,,,,,,,,,,,,,,,,,,,,,,,,,,,,,,return,5.381999969,FOR,FALSE,,,,,,,162,pa,Catalan,Sounds/cat_pa.mp3,2020-06-12_20h48.08.412,TranslationElicitation_eng-prolific,3.2.4,MacIntel,60,5e85f278c880ee1edb7e96ee,5.381999969,1,0,81,54,1,80
,,,,,,,,,,,,,,,,,,,,,,,,,,,,,,,,,,,,,,,,,,,,,,,,,,,162,pa,Catalan,Sounds/cat_pa.mp3,2020-06-12_20h48.08.412,TranslationElicitation_eng-prolific,3.2.4,MacIntel,60,5e85f278c880ee1edb7e96ee,,1,0,81,54,1,80
,,,,,,,,,,,,,,,,,,,,,,,,,,,,,,,,,,,,,,,,,b,3.467000008,B,FALSE,,,,,,,158,nas,Catalan,Sounds/cat_nas.mp3,2020-06-12_20h48.08.412,TranslationElicitation_eng-prolific,3.2.4,MacIntel,60,5e85f278c880ee1edb7e96ee,,1,0,81,51,1,80
,,,,,,,,,,,,,,,,,,,,,,,,,,,,,,,,,,,,,,,,,a,3.532999992,BA,FALSE,,,,,,,158,nas,Catalan,Sounds/cat_nas.mp3,2020-06-12_20h48.08.412,TranslationElicitation_eng-prolific,3.2.4,MacIntel,60,5e85f278c880ee1edb7e96ee,,1,0,81,51,1,80
,,,,,,,,,,,,,,,,,,,,,,,,,,,,,,,,,,,,,,,,,b,3.617000103,BAB,FALSE,,,,,,,158,nas,Catalan,Sounds/cat_nas.mp3,2020-06-12_20h48.08.412,TranslationElicitation_eng-prolific,3.2.4,MacIntel,60,5e85f278c880ee1edb7e96ee,,1,0,81,51,1,80
,,,,,,,,,,,,,,,,,,,,,,,,,,,,,,,,,,,,,,,,,y,3.768000126,BABY,FALSE,,,,,,,158,nas,Catalan,Sounds/cat_nas.mp3,2020-06-12_20h48.08.412,TranslationElicitation_eng-prolific,3.2.4,MacIntel,60,5e85f278c880ee1edb7e96ee,,1,0,81,51,1,80
,,,,,,,,,,,,,,,,,,,,,,,,,,,,,,,,,,,,,,,,,return,4.019000053,BABY,FALSE,,,,,,,158,nas,Catalan,Sounds/cat_nas.mp3,2020-06-12_20h48.08.412,TranslationElicitation_eng-prolific,3.2.4,MacIntel,60,5e85f278c880ee1edb7e96ee,4.019000053,1,0,81,51,1,80
,,,,,,,,,,,,,,,,,,,,,,,,,,,,,,,,,,,,,,,,,,,,,,,,,,,158,nas,Catalan,Sounds/cat_nas.mp3,2020-06-12_20h48.08.412,TranslationElicitation_eng-prolific,3.2.4,MacIntel,60,5e85f278c880ee1edb7e96ee,,1,0,81,51,1,80
,,,,,,,,,,,,,,,,,,,,,,,,,,,,,,,,,,,,,,,,,g,1.48300004,G,FALSE,,,,,,,146,guitarra,Catalan,Sounds/cat_guitarra.mp3,2020-06-12_20h48.08.412,TranslationElicitation_eng-prolific,3.2.4,MacIntel,60,5e85f278c880ee1edb7e96ee,,1,0,81,40,1,80
,,,,,,,,,,,,,,,,,,,,,,,,,,,,,,,,,,,,,,,,,u,1.599999905,GU,FALSE,,,,,,,146,guitarra,Catalan,Sounds/cat_guitarra.mp3,2020-06-12_20h48.08.412,TranslationElicitation_eng-prolific,3.2.4,MacIntel,60,5e85f278c880ee1edb7e96ee,,1,0,81,40,1,80
,,,,,,,,,,,,,,,,,,,,,,,,,,,,,,,,,,,,,,,,,i,1.666999817,GUI,FALSE,,,,,,,146,guitarra,Catalan,Sounds/cat_guitarra.mp3,2020-06-12_20h48.08.412,TranslationElicitation_eng-prolific,3.2.4,MacIntel,60,5e85f278c880ee1edb7e96ee,,1,0,81,40,1,80
,,,,,,,,,,,,,,,,,,,,,,,,,,,,,,,,,,,,,,,,,t,1.75,GUIT,FALSE,,,,,,,146,guitarra,Catalan,Sounds/cat_guitarra.mp3,2020-06-12_20h48.08.412,TranslationElicitation_eng-prolific,3.2.4,MacIntel,60,5e85f278c880ee1edb7e96ee,,1,0,81,40,1,80
,,,,,,,,,,,,,,,,,,,,,,,,,,,,,,,,,,,,,,,,,a,1.932999849,GUITA,FALSE,,,,,,,146,guitarra,Catalan,Sounds/cat_guitarra.mp3,2020-06-12_20h48.08.412,TranslationElicitation_eng-prolific,3.2.4,MacIntel,60,5e85f278c880ee1edb7e96ee,,1,0,81,40,1,80
,,,,,,,,,,,,,,,,,,,,,,,,,,,,,,,,,,,,,,,,,r,2.006999969,GUITAR,FALSE,,,,,,,146,guitarra,Catalan,Sounds/cat_guitarra.mp3,2020-06-12_20h48.08.412,TranslationElicitation_eng-prolific,3.2.4,MacIntel,60,5e85f278c880ee1edb7e96ee,,1,0,81,40,1,80
,,,,,,,,,,,,,,,,,,,,,,,,,,,,,,,,,,,,,,,,,return,2.248999834,GUITAR,FALSE,,,,,,,146,guitarra,Catalan,Sounds/cat_guitarra.mp3,2020-06-12_20h48.08.412,TranslationElicitation_eng-prolific,3.2.4,MacIntel,60,5e85f278c880ee1edb7e96ee,2.248999834,1,0,81,40,1,80
,,,,,,,,,,,,,,,,,,,,,,,,,,,,,,,,,,,,,,,,,,,,,,,,,,,146,guitarra,Catalan,Sounds/cat_guitarra.mp3,2020-06-12_20h48.08.412,TranslationElicitation_eng-prolific,3.2.4,MacIntel,60,5e85f278c880ee1edb7e96ee,,1,0,81,40,1,80
,,,,,,,,,,,,,,,,,,,,,,,,,,,,,,,,,,,,,,,,,p,1.883000135,P,FALSE,,,,,,,167,pingui,Catalan,Sounds/cat_pingui.mp3,2020-06-12_20h48.08.412,TranslationElicitation_eng-prolific,3.2.4,MacIntel,60,5e85f278c880ee1edb7e96ee,,1,0,81,59,1,80
,,,,,,,,,,,,,,,,,,,,,,,,,,,,,,,,,,,,,,,,,e,1.967000008,PE,FALSE,,,,,,,167,pingui,Catalan,Sounds/cat_pingui.mp3,2020-06-12_20h48.08.412,TranslationElicitation_eng-prolific,3.2.4,MacIntel,60,5e85f278c880ee1edb7e96ee,,1,0,81,59,1,80
,,,,,,,,,,,,,,,,,,,,,,,,,,,,,,,,,,,,,,,,,n,2.067000151,PEN,FALSE,,,,,,,167,pingui,Catalan,Sounds/cat_pingui.mp3,2020-06-12_20h48.08.412,TranslationElicitation_eng-prolific,3.2.4,MacIntel,60,5e85f278c880ee1edb7e96ee,,1,0,81,59,1,80
,,,,,,,,,,,,,,,,,,,,,,,,,,,,,,,,,,,,,,,,,g,2.183000088,PENG,FALSE,,,,,,,167,pingui,Catalan,Sounds/cat_pingui.mp3,2020-06-12_20h48.08.412,TranslationElicitation_eng-prolific,3.2.4,MacIntel,60,5e85f278c880ee1edb7e96ee,,1,0,81,59,1,80
,,,,,,,,,,,,,,,,,,,,,,,,,,,,,,,,,,,,,,,,,u,2.25,PENGU,FALSE,,,,,,,167,pingui,Catalan,Sounds/cat_pingui.mp3,2020-06-12_20h48.08.412,TranslationElicitation_eng-prolific,3.2.4,MacIntel,60,5e85f278c880ee1edb7e96ee,,1,0,81,59,1,80
,,,,,,,,,,,,,,,,,,,,,,,,,,,,,,,,,,,,,,,,,i,2.318000078,PENGUI,FALSE,,,,,,,167,pingui,Catalan,Sounds/cat_pingui.mp3,2020-06-12_20h48.08.412,TranslationElicitation_eng-prolific,3.2.4,MacIntel,60,5e85f278c880ee1edb7e96ee,,1,0,81,59,1,80
,,,,,,,,,,,,,,,,,,,,,,,,,,,,,,,,,,,,,,,,,n,2.450000048,PENGUIN,FALSE,,,,,,,167,pingui,Catalan,Sounds/cat_pingui.mp3,2020-06-12_20h48.08.412,TranslationElicitation_eng-prolific,3.2.4,MacIntel,60,5e85f278c880ee1edb7e96ee,,1,0,81,59,1,80
,,,,,,,,,,,,,,,,,,,,,,,,,,,,,,,,,,,,,,,,,return,2.917000055,PENGUIN,FALSE,,,,,,,167,pingui,Catalan,Sounds/cat_pingui.mp3,2020-06-12_20h48.08.412,TranslationElicitation_eng-prolific,3.2.4,MacIntel,60,5e85f278c880ee1edb7e96ee,2.917000055,1,0,81,59,1,80
,,,,,,,,,,,,,,,,,,,,,,,,,,,,,,,,,,,,,,,,,,,,,,,,,,,167,pingui,Catalan,Sounds/cat_pingui.mp3,2020-06-12_20h48.08.412,TranslationElicitation_eng-prolific,3.2.4,MacIntel,60,5e85f278c880ee1edb7e96ee,,1,0,81,59,1,80
,,,,,,,,,,,,,,,,,,,,,,,,,,,,,,,,,,,,,,,,,u,1.634000063,U,FALSE,,,,,,,108,ampolla,Catalan,Sounds/cat_ampolla.mp3,2020-06-12_20h48.08.412,TranslationElicitation_eng-prolific,3.2.4,MacIntel,60,5e85f278c880ee1edb7e96ee,,1,0,81,4,1,80
,,,,,,,,,,,,,,,,,,,,,,,,,,,,,,,,,,,,,,,,,m,1.799000025,UM,FALSE,,,,,,,108,ampolla,Catalan,Sounds/cat_ampolla.mp3,2020-06-12_20h48.08.412,TranslationElicitation_eng-prolific,3.2.4,MacIntel,60,5e85f278c880ee1edb7e96ee,,1,0,81,4,1,80
,,,,,,,,,,,,,,,,,,,,,,,,,,,,,,,,,,,,,,,,,b,2.034000158,UMB,FALSE,,,,,,,108,ampolla,Catalan,Sounds/cat_ampolla.mp3,2020-06-12_20h48.08.412,TranslationElicitation_eng-prolific,3.2.4,MacIntel,60,5e85f278c880ee1edb7e96ee,,1,0,81,4,1,80
,,,,,,,,,,,,,,,,,,,,,,,,,,,,,,,,,,,,,,,,,r,2.117000103,UMBR,FALSE,,,,,,,108,ampolla,Catalan,Sounds/cat_ampolla.mp3,2020-06-12_20h48.08.412,TranslationElicitation_eng-prolific,3.2.4,MacIntel,60,5e85f278c880ee1edb7e96ee,,1,0,81,4,1,80
,,,,,,,,,,,,,,,,,,,,,,,,,,,,,,,,,,,,,,,,,e,2.166000128,UMBRE,FALSE,,,,,,,108,ampolla,Catalan,Sounds/cat_ampolla.mp3,2020-06-12_20h48.08.412,TranslationElicitation_eng-prolific,3.2.4,MacIntel,60,5e85f278c880ee1edb7e96ee,,1,0,81,4,1,80
,,,,,,,,,,,,,,,,,,,,,,,,,,,,,,,,,,,,,,,,,l,2.250999928,UMBREL,FALSE,,,,,,,108,ampolla,Catalan,Sounds/cat_ampolla.mp3,2020-06-12_20h48.08.412,TranslationElicitation_eng-prolific,3.2.4,MacIntel,60,5e85f278c880ee1edb7e96ee,,1,0,81,4,1,80
,,,,,,,,,,,,,,,,,,,,,,,,,,,,,,,,,,,,,,,,,l,2.401000023,UMBRELL,FALSE,,,,,,,108,ampolla,Catalan,Sounds/cat_ampolla.mp3,2020-06-12_20h48.08.412,TranslationElicitation_eng-prolific,3.2.4,MacIntel,60,5e85f278c880ee1edb7e96ee,,1,0,81,4,1,80
,,,,,,,,,,,,,,,,,,,,,,,,,,,,,,,,,,,,,,,,,a,2.483999968,UMBRELLA,FALSE,,,,,,,108,ampolla,Catalan,Sounds/cat_ampolla.mp3,2020-06-12_20h48.08.412,TranslationElicitation_eng-prolific,3.2.4,MacIntel,60,5e85f278c880ee1edb7e96ee,,1,0,81,4,1,80
,,,,,,,,,,,,,,,,,,,,,,,,,,,,,,,,,,,,,,,,,return,2.75,UMBRELLA,FALSE,,,,,,,108,ampolla,Catalan,Sounds/cat_ampolla.mp3,2020-06-12_20h48.08.412,TranslationElicitation_eng-prolific,3.2.4,MacIntel,60,5e85f278c880ee1edb7e96ee,2.75,1,0,81,4,1,80
,,,,,,,,,,,,,,,,,,,,,,,,,,,,,,,,,,,,,,,,,,,,,,,,,,,108,ampolla,Catalan,Sounds/cat_ampolla.mp3,2020-06-12_20h48.08.412,TranslationElicitation_eng-prolific,3.2.4,MacIntel,60,5e85f278c880ee1edb7e96ee,,1,0,81,4,1,80
,,,,,,,,,,,,,,,,,,,,,,,,,,,,,,,,,,,,,,,,,p,3.763999939,P,FALSE,,,,,,,113,boca,Catalan,Sounds/cat_boca.mp3,2020-06-12_20h48.08.412,TranslationElicitation_eng-prolific,3.2.4,MacIntel,60,5e85f278c880ee1edb7e96ee,,1,0,81,8,1,80
,,,,,,,,,,,,,,,,,,,,,,,,,,,,,,,,,,,,,,,,,i,3.813999891,PI,FALSE,,,,,,,113,boca,Catalan,Sounds/cat_boca.mp3,2020-06-12_20h48.08.412,TranslationElicitation_eng-prolific,3.2.4,MacIntel,60,5e85f278c880ee1edb7e96ee,,1,0,81,8,1,80
,,,,,,,,,,,,,,,,,,,,,,,,,,,,,,,,,,,,,,,,,g,3.881000042,PIG,FALSE,,,,,,,113,boca,Catalan,Sounds/cat_boca.mp3,2020-06-12_20h48.08.412,TranslationElicitation_eng-prolific,3.2.4,MacIntel,60,5e85f278c880ee1edb7e96ee,,1,0,81,8,1,80
,,,,,,,,,,,,,,,,,,,,,,,,,,,,,,,,,,,,,,,,,return,4.148999929,PIG,FALSE,,,,,,,113,boca,Catalan,Sounds/cat_boca.mp3,2020-06-12_20h48.08.412,TranslationElicitation_eng-prolific,3.2.4,MacIntel,60,5e85f278c880ee1edb7e96ee,4.148999929,1,0,81,8,1,80
,,,,,,,,,,,,,,,,,,,,,,,,,,,,,,,,,,,,,,,,,,,,,,,,,,,113,boca,Catalan,Sounds/cat_boca.mp3,2020-06-12_20h48.08.412,TranslationElicitation_eng-prolific,3.2.4,MacIntel,60,5e85f278c880ee1edb7e96ee,,1,0,81,8,1,80
,,,,,,,,,,,,,,,,,,,,,,,,,,,,,,,,,,,,,,,,,p,1.950999975,P,FALSE,,,,,,,173,porc,Catalan,Sounds/cat_porc.mp3,2020-06-12_20h48.08.412,TranslationElicitation_eng-prolific,3.2.4,MacIntel,60,5e85f278c880ee1edb7e96ee,,1,0,81,65,1,80
,,,,,,,,,,,,,,,,,,,,,,,,,,,,,,,,,,,,,,,,,a,2.066999912,PA,FALSE,,,,,,,173,porc,Catalan,Sounds/cat_porc.mp3,2020-06-12_20h48.08.412,TranslationElicitation_eng-prolific,3.2.4,MacIntel,60,5e85f278c880ee1edb7e96ee,,1,0,81,65,1,80
,,,,,,,,,,,,,,,,,,,,,,,,,,,,,,,,,,,,,,,,,r,2.115999937,PAR,FALSE,,,,,,,173,porc,Catalan,Sounds/cat_porc.mp3,2020-06-12_20h48.08.412,TranslationElicitation_eng-prolific,3.2.4,MacIntel,60,5e85f278c880ee1edb7e96ee,,1,0,81,65,1,80
,,,,,,,,,,,,,,,,,,,,,,,,,,,,,,,,,,,,,,,,,k,2.182999849,PARK,FALSE,,,,,,,173,porc,Catalan,Sounds/cat_porc.mp3,2020-06-12_20h48.08.412,TranslationElicitation_eng-prolific,3.2.4,MacIntel,60,5e85f278c880ee1edb7e96ee,,1,0,81,65,1,80
,,,,,,,,,,,,,,,,,,,,,,,,,,,,,,,,,,,,,,,,,return,2.500999928,PARK,FALSE,,,,,,,173,porc,Catalan,Sounds/cat_porc.mp3,2020-06-12_20h48.08.412,TranslationElicitation_eng-prolific,3.2.4,MacIntel,60,5e85f278c880ee1edb7e96ee,2.500999928,1,0,81,65,1,80
,,,,,,,,,,,,,,,,,,,,,,,,,,,,,,,,,,,,,,,,,,,,,,,,,,,173,porc,Catalan,Sounds/cat_porc.mp3,2020-06-12_20h48.08.412,TranslationElicitation_eng-prolific,3.2.4,MacIntel,60,5e85f278c880ee1edb7e96ee,,1,0,81,65,1,80
,,,,,,,,,,,,,,,,,,,,,,,,,,,,,,,,,,,,,,,,,m,2.099999905,M,FALSE,,,,,,,152,ma,Catalan,Sounds/cat_ma.mp3,2020-06-12_20h48.08.412,TranslationElicitation_eng-prolific,3.2.4,MacIntel,60,5e85f278c880ee1edb7e96ee,,1,0,81,45,1,80
,,,,,,,,,,,,,,,,,,,,,,,,,,,,,,,,,,,,,,,,,o,2.667000055,MO,FALSE,,,,,,,152,ma,Catalan,Sounds/cat_ma.mp3,2020-06-12_20h48.08.412,TranslationElicitation_eng-prolific,3.2.4,MacIntel,60,5e85f278c880ee1edb7e96ee,,1,0,81,45,1,80
,,,,,,,,,,,,,,,,,,,,,,,,,,,,,,,,,,,,,,,,,t,2.799999952,MOT,FALSE,,,,,,,152,ma,Catalan,Sounds/cat_ma.mp3,2020-06-12_20h48.08.412,TranslationElicitation_eng-prolific,3.2.4,MacIntel,60,5e85f278c880ee1edb7e96ee,,1,0,81,45,1,80
,,,,,,,,,,,,,,,,,,,,,,,,,,,,,,,,,,,,,,,,,h,2.866999865,MOTH,FALSE,,,,,,,152,ma,Catalan,Sounds/cat_ma.mp3,2020-06-12_20h48.08.412,TranslationElicitation_eng-prolific,3.2.4,MacIntel,60,5e85f278c880ee1edb7e96ee,,1,0,81,45,1,80
,,,,,,,,,,,,,,,,,,,,,,,,,,,,,,,,,,,,,,,,,e,2.967999935,MOTHE,FALSE,,,,,,,152,ma,Catalan,Sounds/cat_ma.mp3,2020-06-12_20h48.08.412,TranslationElicitation_eng-prolific,3.2.4,MacIntel,60,5e85f278c880ee1edb7e96ee,,1,0,81,45,1,80
,,,,,,,,,,,,,,,,,,,,,,,,,,,,,,,,,,,,,,,,,r,3.085000038,MOTHER,FALSE,,,,,,,152,ma,Catalan,Sounds/cat_ma.mp3,2020-06-12_20h48.08.412,TranslationElicitation_eng-prolific,3.2.4,MacIntel,60,5e85f278c880ee1edb7e96ee,,1,0,81,45,1,80
,,,,,,,,,,,,,,,,,,,,,,,,,,,,,,,,,,,,,,,,,return,3.200999975,MOTHER,FALSE,,,,,,,152,ma,Catalan,Sounds/cat_ma.mp3,2020-06-12_20h48.08.412,TranslationElicitation_eng-prolific,3.2.4,MacIntel,60,5e85f278c880ee1edb7e96ee,3.200999975,1,0,81,45,1,80
,,,,,,,,,,,,,,,,,,,,,,,,,,,,,,,,,,,,,,,,,,,,,,,,,,,152,ma,Catalan,Sounds/cat_ma.mp3,2020-06-12_20h48.08.412,TranslationElicitation_eng-prolific,3.2.4,MacIntel,60,5e85f278c880ee1edb7e96ee,,1,0,81,45,1,80
,,,,,,,,,,,,,,,,,,,,,,,,,,,,,,,,,,,,,,,,,s,2.46600008,S,FALSE,,,,,,,177,sol,Catalan,Sounds/cat_sol.mp3,2020-06-12_20h48.08.412,TranslationElicitation_eng-prolific,3.2.4,MacIntel,60,5e85f278c880ee1edb7e96ee,,1,0,81,69,1,80
,,,,,,,,,,,,,,,,,,,,,,,,,,,,,,,,,,,,,,,,,u,2.565000057,SU,FALSE,,,,,,,177,sol,Catalan,Sounds/cat_sol.mp3,2020-06-12_20h48.08.412,TranslationElicitation_eng-prolific,3.2.4,MacIntel,60,5e85f278c880ee1edb7e96ee,,1,0,81,69,1,80
,,,,,,,,,,,,,,,,,,,,,,,,,,,,,,,,,,,,,,,,,n,2.714999914,SUN,FALSE,,,,,,,177,sol,Catalan,Sounds/cat_sol.mp3,2020-06-12_20h48.08.412,TranslationElicitation_eng-prolific,3.2.4,MacIntel,60,5e85f278c880ee1edb7e96ee,,1,0,81,69,1,80
,,,,,,,,,,,,,,,,,,,,,,,,,,,,,,,,,,,,,,,,,return,2.950000048,SUN,FALSE,,,,,,,177,sol,Catalan,Sounds/cat_sol.mp3,2020-06-12_20h48.08.412,TranslationElicitation_eng-prolific,3.2.4,MacIntel,60,5e85f278c880ee1edb7e96ee,2.950000048,1,0,81,69,1,80
,,,,,,,,,,,,,,,,,,,,,,,,,,,,,,,,,,,,,,,,,,,,,,,,,,,177,sol,Catalan,Sounds/cat_sol.mp3,2020-06-12_20h48.08.412,TranslationElicitation_eng-prolific,3.2.4,MacIntel,60,5e85f278c880ee1edb7e96ee,,1,0,81,69,1,80
,,,,,,,,,,,,,,,,,,,,,,,,,,,,,,,,,,,,,,,,,b,1.901000023,B,FALSE,,,,,,,114,bol,Catalan,Sounds/cat_bol.mp3,2020-06-12_20h48.08.412,TranslationElicitation_eng-prolific,3.2.4,MacIntel,60,5e85f278c880ee1edb7e96ee,,1,0,81,9,1,80
,,,,,,,,,,,,,,,,,,,,,,,,,,,,,,,,,,,,,,,,,a,1.98300004,BA,FALSE,,,,,,,114,bol,Catalan,Sounds/cat_bol.mp3,2020-06-12_20h48.08.412,TranslationElicitation_eng-prolific,3.2.4,MacIntel,60,5e85f278c880ee1edb7e96ee,,1,0,81,9,1,80
,,,,,,,,,,,,,,,,,,,,,,,,,,,,,,,,,,,,,,,,,l,2.083000183,BAL,FALSE,,,,,,,114,bol,Catalan,Sounds/cat_bol.mp3,2020-06-12_20h48.08.412,TranslationElicitation_eng-prolific,3.2.4,MacIntel,60,5e85f278c880ee1edb7e96ee,,1,0,81,9,1,80
,,,,,,,,,,,,,,,,,,,,,,,,,,,,,,,,,,,,,,,,,l,2.234000206,BALL,FALSE,,,,,,,114,bol,Catalan,Sounds/cat_bol.mp3,2020-06-12_20h48.08.412,TranslationElicitation_eng-prolific,3.2.4,MacIntel,60,5e85f278c880ee1edb7e96ee,,1,0,81,9,1,80
,,,,,,,,,,,,,,,,,,,,,,,,,,,,,,,,,,,,,,,,,return,2.584000111,BALL,FALSE,,,,,,,114,bol,Catalan,Sounds/cat_bol.mp3,2020-06-12_20h48.08.412,TranslationElicitation_eng-prolific,3.2.4,MacIntel,60,5e85f278c880ee1edb7e96ee,2.584000111,1,0,81,9,1,80
,,,,,,,,,,,,,,,,,,,,,,,,,,,,,,,,,,,,,,,,,,,,,,,,,,,114,bol,Catalan,Sounds/cat_bol.mp3,2020-06-12_20h48.08.412,TranslationElicitation_eng-prolific,3.2.4,MacIntel,60,5e85f278c880ee1edb7e96ee,,1,0,81,9,1,80
,,,,,,,,,,,,,,,,,,,,,,,,,,,,,,,,,,,,,,,,,f,2.166999817,F,FALSE,,,,,,,135,formiga,Catalan,Sounds/cat_formiga.mp3,2020-06-12_20h48.08.412,TranslationElicitation_eng-prolific,3.2.4,MacIntel,60,5e85f278c880ee1edb7e96ee,,1,0,81,29,1,80
,,,,,,,,,,,,,,,,,,,,,,,,,,,,,,,,,,,,,,,,,o,2.232999802,FO,FALSE,,,,,,,135,formiga,Catalan,Sounds/cat_formiga.mp3,2020-06-12_20h48.08.412,TranslationElicitation_eng-prolific,3.2.4,MacIntel,60,5e85f278c880ee1edb7e96ee,,1,0,81,29,1,80
,,,,,,,,,,,,,,,,,,,,,,,,,,,,,,,,,,,,,,,,,r,2.383999825,FOR,FALSE,,,,,,,135,formiga,Catalan,Sounds/cat_formiga.mp3,2020-06-12_20h48.08.412,TranslationElicitation_eng-prolific,3.2.4,MacIntel,60,5e85f278c880ee1edb7e96ee,,1,0,81,29,1,80
,,,,,,,,,,,,,,,,,,,,,,,,,,,,,,,,,,,,,,,,,m,2.449999809,FORM,FALSE,,,,,,,135,formiga,Catalan,Sounds/cat_formiga.mp3,2020-06-12_20h48.08.412,TranslationElicitation_eng-prolific,3.2.4,MacIntel,60,5e85f278c880ee1edb7e96ee,,1,0,81,29,1,80
,,,,,,,,,,,,,,,,,,,,,,,,,,,,,,,,,,,,,,,,,u,2.66899991,FORMU,FALSE,,,,,,,135,formiga,Catalan,Sounds/cat_formiga.mp3,2020-06-12_20h48.08.412,TranslationElicitation_eng-prolific,3.2.4,MacIntel,60,5e85f278c880ee1edb7e96ee,,1,0,81,29,1,80
,,,,,,,,,,,,,,,,,,,,,,,,,,,,,,,,,,,,,,,,,l,2.850999832,FORMUL,FALSE,,,,,,,135,formiga,Catalan,Sounds/cat_formiga.mp3,2020-06-12_20h48.08.412,TranslationElicitation_eng-prolific,3.2.4,MacIntel,60,5e85f278c880ee1edb7e96ee,,1,0,81,29,1,80
,,,,,,,,,,,,,,,,,,,,,,,,,,,,,,,,,,,,,,,,,a,3.151000023,FORMULA,FALSE,,,,,,,135,formiga,Catalan,Sounds/cat_formiga.mp3,2020-06-12_20h48.08.412,TranslationElicitation_eng-prolific,3.2.4,MacIntel,60,5e85f278c880ee1edb7e96ee,,1,0,81,29,1,80
,,,,,,,,,,,,,,,,,,,,,,,,,,,,,,,,,,,,,,,,,return,3.434999943,FORMULA,FALSE,,,,,,,135,formiga,Catalan,Sounds/cat_formiga.mp3,2020-06-12_20h48.08.412,TranslationElicitation_eng-prolific,3.2.4,MacIntel,60,5e85f278c880ee1edb7e96ee,3.434999943,1,0,81,29,1,80
,,,,,,,,,,,,,,,,,,,,,,,,,,,,,,,,,,,,,,,,,,,,,,,,,,,135,formiga,Catalan,Sounds/cat_formiga.mp3,2020-06-12_20h48.08.412,TranslationElicitation_eng-prolific,3.2.4,MacIntel,60,5e85f278c880ee1edb7e96ee,,1,0,81,29,1,80
,,,,,,,,,,,,,,,,,,,,,,,,,,,,,,,,,,,,,,,,,h,2.249000072,H,FALSE,,,,,,,123,cavall,Catalan,Sounds/cat_cavall.mp3,2020-06-12_20h48.08.412,TranslationElicitation_eng-prolific,3.2.4,MacIntel,60,5e85f278c880ee1edb7e96ee,,1,0,81,18,1,80
,,,,,,,,,,,,,,,,,,,,,,,,,,,,,,,,,,,,,,,,,o,2.315000057,HO,FALSE,,,,,,,123,cavall,Catalan,Sounds/cat_cavall.mp3,2020-06-12_20h48.08.412,TranslationElicitation_eng-prolific,3.2.4,MacIntel,60,5e85f278c880ee1edb7e96ee,,1,0,81,18,1,80
,,,,,,,,,,,,,,,,,,,,,,,,,,,,,,,,,,,,,,,,,r,2.414000034,HOR,FALSE,,,,,,,123,cavall,Catalan,Sounds/cat_cavall.mp3,2020-06-12_20h48.08.412,TranslationElicitation_eng-prolific,3.2.4,MacIntel,60,5e85f278c880ee1edb7e96ee,,1,0,81,18,1,80
,,,,,,,,,,,,,,,,,,,,,,,,,,,,,,,,,,,,,,,,,s,2.58100009,HORS,FALSE,,,,,,,123,cavall,Catalan,Sounds/cat_cavall.mp3,2020-06-12_20h48.08.412,TranslationElicitation_eng-prolific,3.2.4,MacIntel,60,5e85f278c880ee1edb7e96ee,,1,0,81,18,1,80
,,,,,,,,,,,,,,,,,,,,,,,,,,,,,,,,,,,,,,,,,e,2.648000002,HORSE,FALSE,,,,,,,123,cavall,Catalan,Sounds/cat_cavall.mp3,2020-06-12_20h48.08.412,TranslationElicitation_eng-prolific,3.2.4,MacIntel,60,5e85f278c880ee1edb7e96ee,,1,0,81,18,1,80
,,,,,,,,,,,,,,,,,,,,,,,,,,,,,,,,,,,,,,,,,return,2.798000097,HORSE,FALSE,,,,,,,123,cavall,Catalan,Sounds/cat_cavall.mp3,2020-06-12_20h48.08.412,TranslationElicitation_eng-prolific,3.2.4,MacIntel,60,5e85f278c880ee1edb7e96ee,2.798000097,1,0,81,18,1,80
,,,,,,,,,,,,,,,,,,,,,,,,,,,,,,,,,,,,,,,,,,,,,,,,,,,123,cavall,Catalan,Sounds/cat_cavall.mp3,2020-06-12_20h48.08.412,TranslationElicitation_eng-prolific,3.2.4,MacIntel,60,5e85f278c880ee1edb7e96ee,,1,0,81,18,1,80
,,,,,,,,,,,,,,,,,,,,,,,,,,,,,,,,,,,,,,,,,t,1.381999969,T,FALSE,,,,,,,178,taronja,Catalan,Sounds/cat_taronja.mp3,2020-06-12_20h48.08.412,TranslationElicitation_eng-prolific,3.2.4,MacIntel,60,5e85f278c880ee1edb7e96ee,,1,0,81,70,1,80
,,,,,,,,,,,,,,,,,,,,,,,,,,,,,,,,,,,,,,,,,a,1.532000065,TA,FALSE,,,,,,,178,taronja,Catalan,Sounds/cat_taronja.mp3,2020-06-12_20h48.08.412,TranslationElicitation_eng-prolific,3.2.4,MacIntel,60,5e85f278c880ee1edb7e96ee,,1,0,81,70,1,80
,,,,,,,,,,,,,,,,,,,,,,,,,,,,,,,,,,,,,,,,,r,1.6650002,TAR,FALSE,,,,,,,178,taronja,Catalan,Sounds/cat_taronja.mp3,2020-06-12_20h48.08.412,TranslationElicitation_eng-prolific,3.2.4,MacIntel,60,5e85f278c880ee1edb7e96ee,,1,0,81,70,1,80
,,,,,,,,,,,,,,,,,,,,,,,,,,,,,,,,,,,,,,,,,a,1.764000177,TARA,FALSE,,,,,,,178,taronja,Catalan,Sounds/cat_taronja.mp3,2020-06-12_20h48.08.412,TranslationElicitation_eng-prolific,3.2.4,MacIntel,60,5e85f278c880ee1edb7e96ee,,1,0,81,70,1,80
,,,,,,,,,,,,,,,,,,,,,,,,,,,,,,,,,,,,,,,,,n,1.83100009,TARAN,FALSE,,,,,,,178,taronja,Catalan,Sounds/cat_taronja.mp3,2020-06-12_20h48.08.412,TranslationElicitation_eng-prolific,3.2.4,MacIntel,60,5e85f278c880ee1edb7e96ee,,1,0,81,70,1,80
,,,,,,,,,,,,,,,,,,,,,,,,,,,,,,,,,,,,,,,,,t,1.96600008,TARANT,FALSE,,,,,,,178,taronja,Catalan,Sounds/cat_taronja.mp3,2020-06-12_20h48.08.412,TranslationElicitation_eng-prolific,3.2.4,MacIntel,60,5e85f278c880ee1edb7e96ee,,1,0,81,70,1,80
,,,,,,,,,,,,,,,,,,,,,,,,,,,,,,,,,,,,,,,,,u,2.032000065,TARANTU,FALSE,,,,,,,178,taronja,Catalan,Sounds/cat_taronja.mp3,2020-06-12_20h48.08.412,TranslationElicitation_eng-prolific,3.2.4,MacIntel,60,5e85f278c880ee1edb7e96ee,,1,0,81,70,1,80
,,,,,,,,,,,,,,,,,,,,,,,,,,,,,,,,,,,,,,,,,l,2.231000185,TARANTUL,FALSE,,,,,,,178,taronja,Catalan,Sounds/cat_taronja.mp3,2020-06-12_20h48.08.412,TranslationElicitation_eng-prolific,3.2.4,MacIntel,60,5e85f278c880ee1edb7e96ee,,1,0,81,70,1,80
,,,,,,,,,,,,,,,,,,,,,,,,,,,,,,,,,,,,,,,,,a,2.315000057,TARANTULA,FALSE,,,,,,,178,taronja,Catalan,Sounds/cat_taronja.mp3,2020-06-12_20h48.08.412,TranslationElicitation_eng-prolific,3.2.4,MacIntel,60,5e85f278c880ee1edb7e96ee,,1,0,81,70,1,80
,,,,,,,,,,,,,,,,,,,,,,,,,,,,,,,,,,,,,,,,,return,2.463999987,TARANTULA,FALSE,,,,,,,178,taronja,Catalan,Sounds/cat_taronja.mp3,2020-06-12_20h48.08.412,TranslationElicitation_eng-prolific,3.2.4,MacIntel,60,5e85f278c880ee1edb7e96ee,2.463999987,1,0,81,70,1,80
,,,,,,,,,,,,,,,,,,,,,,,,,,,,,,,,,,,,,,,,,,,,,,,,,,,178,taronja,Catalan,Sounds/cat_taronja.mp3,2020-06-12_20h48.08.412,TranslationElicitation_eng-prolific,3.2.4,MacIntel,60,5e85f278c880ee1edb7e96ee,,1,0,81,70,1,80
,,,,,,,,,,,,,,,,,,,,,,,,,,,,,,,,,,,,,,,,,c,4.338000059,C,FALSE,,,,,,,127,cotxe,Catalan,Sounds/cat_cotxe.mp3,2020-06-12_20h48.08.412,TranslationElicitation_eng-prolific,3.2.4,MacIntel,60,5e85f278c880ee1edb7e96ee,,1,0,81,21,1,80
,,,,,,,,,,,,,,,,,,,,,,,,,,,,,,,,,,,,,,,,,u,4.464999914,CU,FALSE,,,,,,,127,cotxe,Catalan,Sounds/cat_cotxe.mp3,2020-06-12_20h48.08.412,TranslationElicitation_eng-prolific,3.2.4,MacIntel,60,5e85f278c880ee1edb7e96ee,,1,0,81,21,1,80
,,,,,,,,,,,,,,,,,,,,,,,,,,,,,,,,,,,,,,,,,backspace,4.91899991,C,TRUE,,,,,,,127,cotxe,Catalan,Sounds/cat_cotxe.mp3,2020-06-12_20h48.08.412,TranslationElicitation_eng-prolific,3.2.4,MacIntel,60,5e85f278c880ee1edb7e96ee,,1,0,81,21,1,80
,,,,,,,,,,,,,,,,,,,,,,,,,,,,,,,,,,,,,,,,,o,5.21600008,CO,TRUE,,,,,,,127,cotxe,Catalan,Sounds/cat_cotxe.mp3,2020-06-12_20h48.08.412,TranslationElicitation_eng-prolific,3.2.4,MacIntel,60,5e85f278c880ee1edb7e96ee,,1,0,81,21,1,80
,,,,,,,,,,,,,,,,,,,,,,,,,,,,,,,,,,,,,,,,,u,5.298000097,COU,TRUE,,,,,,,127,cotxe,Catalan,Sounds/cat_cotxe.mp3,2020-06-12_20h48.08.412,TranslationElicitation_eng-prolific,3.2.4,MacIntel,60,5e85f278c880ee1edb7e96ee,,1,0,81,21,1,80
,,,,,,,,,,,,,,,,,,,,,,,,,,,,,,,,,,,,,,,,,r,5.398000002,COUR,TRUE,,,,,,,127,cotxe,Catalan,Sounds/cat_cotxe.mp3,2020-06-12_20h48.08.412,TranslationElicitation_eng-prolific,3.2.4,MacIntel,60,5e85f278c880ee1edb7e96ee,,1,0,81,21,1,80
,,,,,,,,,,,,,,,,,,,,,,,,,,,,,,,,,,,,,,,,,t,5.486000061,COURT,TRUE,,,,,,,127,cotxe,Catalan,Sounds/cat_cotxe.mp3,2020-06-12_20h48.08.412,TranslationElicitation_eng-prolific,3.2.4,MacIntel,60,5e85f278c880ee1edb7e96ee,,1,0,81,21,1,80
,,,,,,,,,,,,,,,,,,,,,,,,,,,,,,,,,,,,,,,,,return,5.71600008,COURT,TRUE,,,,,,,127,cotxe,Catalan,Sounds/cat_cotxe.mp3,2020-06-12_20h48.08.412,TranslationElicitation_eng-prolific,3.2.4,MacIntel,60,5e85f278c880ee1edb7e96ee,5.71600008,1,0,81,21,1,80
,,,,,,,,,,,,,,,,,,,,,,,,,,,,,,,,,,,,,,,,,,,,,,,,,,,127,cotxe,Catalan,Sounds/cat_cotxe.mp3,2020-06-12_20h48.08.412,TranslationElicitation_eng-prolific,3.2.4,MacIntel,60,5e85f278c880ee1edb7e96ee,,1,0,81,21,1,80
,,,,,,,,,,,,,,,,,,,,,,,,,,,,,,,,,,,,,,,,,h,1.48300004,H,FALSE,,,,,,,122,casa,Catalan,Sounds/cat_casa.mp3,2020-06-12_20h48.08.412,TranslationElicitation_eng-prolific,3.2.4,MacIntel,60,5e85f278c880ee1edb7e96ee,,1,0,81,17,1,80
,,,,,,,,,,,,,,,,,,,,,,,,,,,,,,,,,,,,,,,,,o,1.61500001,HO,FALSE,,,,,,,122,casa,Catalan,Sounds/cat_casa.mp3,2020-06-12_20h48.08.412,TranslationElicitation_eng-prolific,3.2.4,MacIntel,60,5e85f278c880ee1edb7e96ee,,1,0,81,17,1,80
,,,,,,,,,,,,,,,,,,,,,,,,,,,,,,,,,,,,,,,,,u,1.665999889,HOU,FALSE,,,,,,,122,casa,Catalan,Sounds/cat_casa.mp3,2020-06-12_20h48.08.412,TranslationElicitation_eng-prolific,3.2.4,MacIntel,60,5e85f278c880ee1edb7e96ee,,1,0,81,17,1,80
,,,,,,,,,,,,,,,,,,,,,,,,,,,,,,,,,,,,,,,,,s,1.815000057,HOUS,FALSE,,,,,,,122,casa,Catalan,Sounds/cat_casa.mp3,2020-06-12_20h48.08.412,TranslationElicitation_eng-prolific,3.2.4,MacIntel,60,5e85f278c880ee1edb7e96ee,,1,0,81,17,1,80
,,,,,,,,,,,,,,,,,,,,,,,,,,,,,,,,,,,,,,,,,e,1.882999897,HOUSE,FALSE,,,,,,,122,casa,Catalan,Sounds/cat_casa.mp3,2020-06-12_20h48.08.412,TranslationElicitation_eng-prolific,3.2.4,MacIntel,60,5e85f278c880ee1edb7e96ee,,1,0,81,17,1,80
,,,,,,,,,,,,,,,,,,,,,,,,,,,,,,,,,,,,,,,,,return,2.082000017,HOUSE,FALSE,,,,,,,122,casa,Catalan,Sounds/cat_casa.mp3,2020-06-12_20h48.08.412,TranslationElicitation_eng-prolific,3.2.4,MacIntel,60,5e85f278c880ee1edb7e96ee,2.082000017,1,0,81,17,1,80
,,,,,,,,,,,,,,,,,,,,,,,,,,,,,,,,,,,,,,,,,,,,,,,,,,,122,casa,Catalan,Sounds/cat_casa.mp3,2020-06-12_20h48.08.412,TranslationElicitation_eng-prolific,3.2.4,MacIntel,60,5e85f278c880ee1edb7e96ee,,1,0,81,17,1,80
,,,,,,,,,,,,,,,,,,,,,,,,,,,,,,,,,,,,,,,,,p,3.381999969,P,FALSE,,,,,,,104,abella,Catalan,Sounds/cat_abella.mp3,2020-06-12_20h48.08.412,TranslationElicitation_eng-prolific,3.2.4,MacIntel,60,5e85f278c880ee1edb7e96ee,,1,0,81,0,1,80
,,,,,,,,,,,,,,,,,,,,,,,,,,,,,,,,,,,,,,,,,o,3.48300004,PO,FALSE,,,,,,,104,abella,Catalan,Sounds/cat_abella.mp3,2020-06-12_20h48.08.412,TranslationElicitation_eng-prolific,3.2.4,MacIntel,60,5e85f278c880ee1edb7e96ee,,1,0,81,0,1,80
,,,,,,,,,,,,,,,,,,,,,,,,,,,,,,,,,,,,,,,,,n,3.549000025,PON,FALSE,,,,,,,104,abella,Catalan,Sounds/cat_abella.mp3,2020-06-12_20h48.08.412,TranslationElicitation_eng-prolific,3.2.4,MacIntel,60,5e85f278c880ee1edb7e96ee,,1,0,81,0,1,80
,,,,,,,,,,,,,,,,,,,,,,,,,,,,,,,,,,,,,,,,,d,3.683000088,POND,FALSE,,,,,,,104,abella,Catalan,Sounds/cat_abella.mp3,2020-06-12_20h48.08.412,TranslationElicitation_eng-prolific,3.2.4,MacIntel,60,5e85f278c880ee1edb7e96ee,,1,0,81,0,1,80
,,,,,,,,,,,,,,,,,,,,,,,,,,,,,,,,,,,,,,,,,return,3.933000088,POND,FALSE,,,,,,,104,abella,Catalan,Sounds/cat_abella.mp3,2020-06-12_20h48.08.412,TranslationElicitation_eng-prolific,3.2.4,MacIntel,60,5e85f278c880ee1edb7e96ee,3.933000088,1,0,81,0,1,80
,,,,,,,,,,,,,,,,,,,,,,,,,,,,,,,,,,,,,,,,,,,,,,,,,,,104,abella,Catalan,Sounds/cat_abella.mp3,2020-06-12_20h48.08.412,TranslationElicitation_eng-prolific,3.2.4,MacIntel,60,5e85f278c880ee1edb7e96ee,,1,0,81,0,1,80
,,,,,,,,,,,,,,,,,,,,,,,,,,,,,,,,,,,,,,,,,b,2.78399992,B,FALSE,,,,,,,110,berenar,Catalan,Sounds/cat_berenar.mp3,2020-06-12_20h48.08.412,TranslationElicitation_eng-prolific,3.2.4,MacIntel,60,5e85f278c880ee1edb7e96ee,,1,0,81,5,1,80
,,,,,,,,,,,,,,,,,,,,,,,,,,,,,,,,,,,,,,,,,r,2.882999897,BR,FALSE,,,,,,,110,berenar,Catalan,Sounds/cat_berenar.mp3,2020-06-12_20h48.08.412,TranslationElicitation_eng-prolific,3.2.4,MacIntel,60,5e85f278c880ee1edb7e96ee,,1,0,81,5,1,80
,,,,,,,,,,,,,,,,,,,,,,,,,,,,,,,,,,,,,,,,,a,2.933999777,BRA,FALSE,,,,,,,110,berenar,Catalan,Sounds/cat_berenar.mp3,2020-06-12_20h48.08.412,TranslationElicitation_eng-prolific,3.2.4,MacIntel,60,5e85f278c880ee1edb7e96ee,,1,0,81,5,1,80
,,,,,,,,,,,,,,,,,,,,,,,,,,,,,,,,,,,,,,,,,n,2.982999802,BRAN,FALSE,,,,,,,110,berenar,Catalan,Sounds/cat_berenar.mp3,2020-06-12_20h48.08.412,TranslationElicitation_eng-prolific,3.2.4,MacIntel,60,5e85f278c880ee1edb7e96ee,,1,0,81,5,1,80
,,,,,,,,,,,,,,,,,,,,,,,,,,,,,,,,,,,,,,,,,d,3.116999865,BRAND,FALSE,,,,,,,110,berenar,Catalan,Sounds/cat_berenar.mp3,2020-06-12_20h48.08.412,TranslationElicitation_eng-prolific,3.2.4,MacIntel,60,5e85f278c880ee1edb7e96ee,,1,0,81,5,1,80
,,,,,,,,,,,,,,,,,,,,,,,,,,,,,,,,,,,,,,,,,return,3.382999897,BRAND,FALSE,,,,,,,110,berenar,Catalan,Sounds/cat_berenar.mp3,2020-06-12_20h48.08.412,TranslationElicitation_eng-prolific,3.2.4,MacIntel,60,5e85f278c880ee1edb7e96ee,3.382999897,1,0,81,5,1,80
,,,,,,,,,,,,,,,,,,,,,,,,,,,,,,,,,,,,,,,,,,,,,,,,,,,110,berenar,Catalan,Sounds/cat_berenar.mp3,2020-06-12_20h48.08.412,TranslationElicitation_eng-prolific,3.2.4,MacIntel,60,5e85f278c880ee1edb7e96ee,,1,0,81,5,1,80
,,,,,,,,,,,,,,,,,,,,,,,,,,,,,,,,,,,,,,,,,s,3.821000099,S,FALSE,,,,,,,176,samarreta,Catalan,Sounds/cat_samarreta.mp3,2020-06-12_20h48.08.412,TranslationElicitation_eng-prolific,3.2.4,MacIntel,60,5e85f278c880ee1edb7e96ee,,1,0,81,68,1,80
,,,,,,,,,,,,,,,,,,,,,,,,,,,,,,,,,,,,,,,,,u,3.94900012,SU,FALSE,,,,,,,176,samarreta,Catalan,Sounds/cat_samarreta.mp3,2020-06-12_20h48.08.412,TranslationElicitation_eng-prolific,3.2.4,MacIntel,60,5e85f278c880ee1edb7e96ee,,1,0,81,68,1,80
,,,,,,,,,,,,,,,,,,,,,,,,,,,,,,,,,,,,,,,,,m,4.149000168,SUM,FALSE,,,,,,,176,samarreta,Catalan,Sounds/cat_samarreta.mp3,2020-06-12_20h48.08.412,TranslationElicitation_eng-prolific,3.2.4,MacIntel,60,5e85f278c880ee1edb7e96ee,,1,0,81,68,1,80
,,,,,,,,,,,,,,,,,,,,,,,,,,,,,,,,,,,,,,,,,m,4.266000032,SUMM,FALSE,,,,,,,176,samarreta,Catalan,Sounds/cat_samarreta.mp3,2020-06-12_20h48.08.412,TranslationElicitation_eng-prolific,3.2.4,MacIntel,60,5e85f278c880ee1edb7e96ee,,1,0,81,68,1,80
,,,,,,,,,,,,,,,,,,,,,,,,,,,,,,,,,,,,,,,,,e,4.366000175,SUMME,FALSE,,,,,,,176,samarreta,Catalan,Sounds/cat_samarreta.mp3,2020-06-12_20h48.08.412,TranslationElicitation_eng-prolific,3.2.4,MacIntel,60,5e85f278c880ee1edb7e96ee,,1,0,81,68,1,80
,,,,,,,,,,,,,,,,,,,,,,,,,,,,,,,,,,,,,,,,,r,4.46600008,SUMMER,FALSE,,,,,,,176,samarreta,Catalan,Sounds/cat_samarreta.mp3,2020-06-12_20h48.08.412,TranslationElicitation_eng-prolific,3.2.4,MacIntel,60,5e85f278c880ee1edb7e96ee,,1,0,81,68,1,80
,,,,,,,,,,,,,,,,,,,,,,,,,,,,,,,,,,,,,,,,,return,4.582000017,SUMMER,FALSE,,,,,,,176,samarreta,Catalan,Sounds/cat_samarreta.mp3,2020-06-12_20h48.08.412,TranslationElicitation_eng-prolific,3.2.4,MacIntel,60,5e85f278c880ee1edb7e96ee,4.582000017,1,0,81,68,1,80
,,,,,,,,,,,,,,,,,,,,,,,,,,,,,,,,,,,,,,,,,,,,,,,,,,,176,samarreta,Catalan,Sounds/cat_samarreta.mp3,2020-06-12_20h48.08.412,TranslationElicitation_eng-prolific,3.2.4,MacIntel,60,5e85f278c880ee1edb7e96ee,,1,0,81,68,1,80
,,,,,,,,,,,,,,,,,,,,,,,,,,,,,,,,,,,,,,,,,b,1.682999849,B,FALSE,,,,,,,118,bou,Catalan,Sounds/cat_bou.mp3,2020-06-12_20h48.08.412,TranslationElicitation_eng-prolific,3.2.4,MacIntel,60,5e85f278c880ee1edb7e96ee,,1,0,81,13,1,80
,,,,,,,,,,,,,,,,,,,,,,,,,,,,,,,,,,,,,,,,,o,1.731999874,BO,FALSE,,,,,,,118,bou,Catalan,Sounds/cat_bou.mp3,2020-06-12_20h48.08.412,TranslationElicitation_eng-prolific,3.2.4,MacIntel,60,5e85f278c880ee1edb7e96ee,,1,0,81,13,1,80
,,,,,,,,,,,,,,,,,,,,,,,,,,,,,,,,,,,,,,,,,w,1.950000048,BOW,FALSE,,,,,,,118,bou,Catalan,Sounds/cat_bou.mp3,2020-06-12_20h48.08.412,TranslationElicitation_eng-prolific,3.2.4,MacIntel,60,5e85f278c880ee1edb7e96ee,,1,0,81,13,1,80
,,,,,,,,,,,,,,,,,,,,,,,,,,,,,,,,,,,,,,,,,return,2.266000032,BOW,FALSE,,,,,,,118,bou,Catalan,Sounds/cat_bou.mp3,2020-06-12_20h48.08.412,TranslationElicitation_eng-prolific,3.2.4,MacIntel,60,5e85f278c880ee1edb7e96ee,2.266000032,1,0,81,13,1,80
,,,,,,,,,,,,,,,,,,,,,,,,,,,,,,,,,,,,,,,,,,,,,,,,,,,118,bou,Catalan,Sounds/cat_bou.mp3,2020-06-12_20h48.08.412,TranslationElicitation_eng-prolific,3.2.4,MacIntel,60,5e85f278c880ee1edb7e96ee,,1,0,81,13,1,80
,,,,,,,,,,,,,,,,,,,,,,,,,,,,,,,,,,,,,,,,,i,2.26699996,I,FALSE,,,,,,,130,entrepa,Catalan,Sounds/cat_entrepa.mp3,2020-06-12_20h48.08.412,TranslationElicitation_eng-prolific,3.2.4,MacIntel,60,5e85f278c880ee1edb7e96ee,,1,0,81,24,1,80
,,,,,,,,,,,,,,,,,,,,,,,,,,,,,,,,,,,,,,,,,n,2.366999865,IN,FALSE,,,,,,,130,entrepa,Catalan,Sounds/cat_entrepa.mp3,2020-06-12_20h48.08.412,TranslationElicitation_eng-prolific,3.2.4,MacIntel,60,5e85f278c880ee1edb7e96ee,,1,0,81,24,1,80
,,,,,,,,,,,,,,,,,,,,,,,,,,,,,,,,,,,,,,,,,t,2.916999817,INT,FALSE,,,,,,,130,entrepa,Catalan,Sounds/cat_entrepa.mp3,2020-06-12_20h48.08.412,TranslationElicitation_eng-prolific,3.2.4,MacIntel,60,5e85f278c880ee1edb7e96ee,,1,0,81,24,1,80
,,,,,,,,,,,,,,,,,,,,,,,,,,,,,,,,,,,,,,,,,e,4.967000008,INTE,FALSE,,,,,,,130,entrepa,Catalan,Sounds/cat_entrepa.mp3,2020-06-12_20h48.08.412,TranslationElicitation_eng-prolific,3.2.4,MacIntel,60,5e85f278c880ee1edb7e96ee,,1,0,81,24,1,80
,,,,,,,,,,,,,,,,,,,,,,,,,,,,,,,,,,,,,,,,,r,5.132999897,INTER,FALSE,,,,,,,130,entrepa,Catalan,Sounds/cat_entrepa.mp3,2020-06-12_20h48.08.412,TranslationElicitation_eng-prolific,3.2.4,MacIntel,60,5e85f278c880ee1edb7e96ee,,1,0,81,24,1,80
,,,,,,,,,,,,,,,,,,,,,,,,,,,,,,,,,,,,,,,,,p,5.28399992,INTERP,FALSE,,,,,,,130,entrepa,Catalan,Sounds/cat_entrepa.mp3,2020-06-12_20h48.08.412,TranslationElicitation_eng-prolific,3.2.4,MacIntel,60,5e85f278c880ee1edb7e96ee,,1,0,81,24,1,80
,,,,,,,,,,,,,,,,,,,,,,,,,,,,,,,,,,,,,,,,,r,5.383999825,INTERPR,FALSE,,,,,,,130,entrepa,Catalan,Sounds/cat_entrepa.mp3,2020-06-12_20h48.08.412,TranslationElicitation_eng-prolific,3.2.4,MacIntel,60,5e85f278c880ee1edb7e96ee,,1,0,81,24,1,80
,,,,,,,,,,,,,,,,,,,,,,,,,,,,,,,,,,,,,,,,,e,5.432999849,INTERPRE,FALSE,,,,,,,130,entrepa,Catalan,Sounds/cat_entrepa.mp3,2020-06-12_20h48.08.412,TranslationElicitation_eng-prolific,3.2.4,MacIntel,60,5e85f278c880ee1edb7e96ee,,1,0,81,24,1,80
,,,,,,,,,,,,,,,,,,,,,,,,,,,,,,,,,,,,,,,,,t,5.684000015,INTERPRET,FALSE,,,,,,,130,entrepa,Catalan,Sounds/cat_entrepa.mp3,2020-06-12_20h48.08.412,TranslationElicitation_eng-prolific,3.2.4,MacIntel,60,5e85f278c880ee1edb7e96ee,,1,0,81,24,1,80
,,,,,,,,,,,,,,,,,,,,,,,,,,,,,,,,,,,,,,,,,return,5.931999922,INTERPRET,FALSE,,,,,,,130,entrepa,Catalan,Sounds/cat_entrepa.mp3,2020-06-12_20h48.08.412,TranslationElicitation_eng-prolific,3.2.4,MacIntel,60,5e85f278c880ee1edb7e96ee,5.931999922,1,0,81,24,1,80
,,,,,,,,,,,,,,,,,,,,,,,,,,,,,,,,,,,,,,,,,,,,,,,,,,,130,entrepa,Catalan,Sounds/cat_entrepa.mp3,2020-06-12_20h48.08.412,TranslationElicitation_eng-prolific,3.2.4,MacIntel,60,5e85f278c880ee1edb7e96ee,,1,0,81,24,1,80
,,,,,,,,,,,,,,,,,,,,,,,,,,,,,,,,,,,,,,,,,b,1.780999899,B,FALSE,,,,,,,163,papallona,Catalan,Sounds/cat_papallona.mp3,2020-06-12_20h48.08.412,TranslationElicitation_eng-prolific,3.2.4,MacIntel,60,5e85f278c880ee1edb7e96ee,,1,0,81,55,1,80
,,,,,,,,,,,,,,,,,,,,,,,,,,,,,,,,,,,,,,,,,u,1.931999922,BU,FALSE,,,,,,,163,papallona,Catalan,Sounds/cat_papallona.mp3,2020-06-12_20h48.08.412,TranslationElicitation_eng-prolific,3.2.4,MacIntel,60,5e85f278c880ee1edb7e96ee,,1,0,81,55,1,80
,,,,,,,,,,,,,,,,,,,,,,,,,,,,,,,,,,,,,,,,,t,2.11500001,BUT,FALSE,,,,,,,163,papallona,Catalan,Sounds/cat_papallona.mp3,2020-06-12_20h48.08.412,TranslationElicitation_eng-prolific,3.2.4,MacIntel,60,5e85f278c880ee1edb7e96ee,,1,0,81,55,1,80
,,,,,,,,,,,,,,,,,,,,,,,,,,,,,,,,,,,,,,,,,t,2.282000065,BUTT,FALSE,,,,,,,163,papallona,Catalan,Sounds/cat_papallona.mp3,2020-06-12_20h48.08.412,TranslationElicitation_eng-prolific,3.2.4,MacIntel,60,5e85f278c880ee1edb7e96ee,,1,0,81,55,1,80
,,,,,,,,,,,,,,,,,,,,,,,,,,,,,,,,,,,,,,,,,e,2.414999962,BUTTE,FALSE,,,,,,,163,papallona,Catalan,Sounds/cat_papallona.mp3,2020-06-12_20h48.08.412,TranslationElicitation_eng-prolific,3.2.4,MacIntel,60,5e85f278c880ee1edb7e96ee,,1,0,81,55,1,80
,,,,,,,,,,,,,,,,,,,,,,,,,,,,,,,,,,,,,,,,,r,2.499000072,BUTTER,FALSE,,,,,,,163,papallona,Catalan,Sounds/cat_papallona.mp3,2020-06-12_20h48.08.412,TranslationElicitation_eng-prolific,3.2.4,MacIntel,60,5e85f278c880ee1edb7e96ee,,1,0,81,55,1,80
,,,,,,,,,,,,,,,,,,,,,,,,,,,,,,,,,,,,,,,,,f,2.664999962,BUTTERF,FALSE,,,,,,,163,papallona,Catalan,Sounds/cat_papallona.mp3,2020-06-12_20h48.08.412,TranslationElicitation_eng-prolific,3.2.4,MacIntel,60,5e85f278c880ee1edb7e96ee,,1,0,81,55,1,80
,,,,,,,,,,,,,,,,,,,,,,,,,,,,,,,,,,,,,,,,,l,2.737999916,BUTTERFL,FALSE,,,,,,,163,papallona,Catalan,Sounds/cat_papallona.mp3,2020-06-12_20h48.08.412,TranslationElicitation_eng-prolific,3.2.4,MacIntel,60,5e85f278c880ee1edb7e96ee,,1,0,81,55,1,80
,,,,,,,,,,,,,,,,,,,,,,,,,,,,,,,,,,,,,,,,,y,2.914000034,BUTTERFLY,FALSE,,,,,,,163,papallona,Catalan,Sounds/cat_papallona.mp3,2020-06-12_20h48.08.412,TranslationElicitation_eng-prolific,3.2.4,MacIntel,60,5e85f278c880ee1edb7e96ee,,1,0,81,55,1,80
,,,,,,,,,,,,,,,,,,,,,,,,,,,,,,,,,,,,,,,,,return,3.21600008,BUTTERFLY,FALSE,,,,,,,163,papallona,Catalan,Sounds/cat_papallona.mp3,2020-06-12_20h48.08.412,TranslationElicitation_eng-prolific,3.2.4,MacIntel,60,5e85f278c880ee1edb7e96ee,3.21600008,1,0,81,55,1,80
,,,,,,,,,,,,,,,,,,,,,,,,,,,,,,,,,,,,,,,,,,,,,,,,,,,163,papallona,Catalan,Sounds/cat_papallona.mp3,2020-06-12_20h48.08.412,TranslationElicitation_eng-prolific,3.2.4,MacIntel,60,5e85f278c880ee1edb7e96ee,,1,0,81,55,1,80
,,,,,,,,,,,,,,,,,,,,,,,,,,,,,,,,,,,,,,,,,g,2.231999874,G,FALSE,,,,,,,143,globus,Catalan,Sounds/cat_globus.mp3,2020-06-12_20h48.08.412,TranslationElicitation_eng-prolific,3.2.4,MacIntel,60,5e85f278c880ee1edb7e96ee,,1,0,81,37,1,80
,,,,,,,,,,,,,,,,,,,,,,,,,,,,,,,,,,,,,,,,,l,2.281999826,GL,FALSE,,,,,,,143,globus,Catalan,Sounds/cat_globus.mp3,2020-06-12_20h48.08.412,TranslationElicitation_eng-prolific,3.2.4,MacIntel,60,5e85f278c880ee1edb7e96ee,,1,0,81,37,1,80
,,,,,,,,,,,,,,,,,,,,,,,,,,,,,,,,,,,,,,,,,o,2.464999914,GLO,FALSE,,,,,,,143,globus,Catalan,Sounds/cat_globus.mp3,2020-06-12_20h48.08.412,TranslationElicitation_eng-prolific,3.2.4,MacIntel,60,5e85f278c880ee1edb7e96ee,,1,0,81,37,1,80
,,,,,,,,,,,,,,,,,,,,,,,,,,,,,,,,,,,,,,,,,b,2.582000017,GLOB,FALSE,,,,,,,143,globus,Catalan,Sounds/cat_globus.mp3,2020-06-12_20h48.08.412,TranslationElicitation_eng-prolific,3.2.4,MacIntel,60,5e85f278c880ee1edb7e96ee,,1,0,81,37,1,80
,,,,,,,,,,,,,,,,,,,,,,,,,,,,,,,,,,,,,,,,,e,2.681999922,GLOBE,FALSE,,,,,,,143,globus,Catalan,Sounds/cat_globus.mp3,2020-06-12_20h48.08.412,TranslationElicitation_eng-prolific,3.2.4,MacIntel,60,5e85f278c880ee1edb7e96ee,,1,0,81,37,1,80
,,,,,,,,,,,,,,,,,,,,,,,,,,,,,,,,,,,,,,,,,return,2.931999922,GLOBE,FALSE,,,,,,,143,globus,Catalan,Sounds/cat_globus.mp3,2020-06-12_20h48.08.412,TranslationElicitation_eng-prolific,3.2.4,MacIntel,60,5e85f278c880ee1edb7e96ee,2.931999922,1,0,81,37,1,80
,,,,,,,,,,,,,,,,,,,,,,,,,,,,,,,,,,,,,,,,,,,,,,,,,,,143,globus,Catalan,Sounds/cat_globus.mp3,2020-06-12_20h48.08.412,TranslationElicitation_eng-prolific,3.2.4,MacIntel,60,5e85f278c880ee1edb7e96ee,,1,0,81,37,1,80
,,,,,,,,,,,,,,,,,,,,,,,,,,,,,,,,,,,,,,,,,m,2.75,M,FALSE,,,,,,,153,mico,Catalan,Sounds/cat_mico.mp3,2020-06-12_20h48.08.412,TranslationElicitation_eng-prolific,3.2.4,MacIntel,60,5e85f278c880ee1edb7e96ee,,1,0,81,46,1,80
,,,,,,,,,,,,,,,,,,,,,,,,,,,,,,,,,,,,,,,,,o,2.951999903,MO,FALSE,,,,,,,153,mico,Catalan,Sounds/cat_mico.mp3,2020-06-12_20h48.08.412,TranslationElicitation_eng-prolific,3.2.4,MacIntel,60,5e85f278c880ee1edb7e96ee,,1,0,81,46,1,80
,,,,,,,,,,,,,,,,,,,,,,,,,,,,,,,,,,,,,,,,,u,3.05099988,MOU,FALSE,,,,,,,153,mico,Catalan,Sounds/cat_mico.mp3,2020-06-12_20h48.08.412,TranslationElicitation_eng-prolific,3.2.4,MacIntel,60,5e85f278c880ee1edb7e96ee,,1,0,81,46,1,80
,,,,,,,,,,,,,,,,,,,,,,,,,,,,,,,,,,,,,,,,,s,3.200999975,MOUS,FALSE,,,,,,,153,mico,Catalan,Sounds/cat_mico.mp3,2020-06-12_20h48.08.412,TranslationElicitation_eng-prolific,3.2.4,MacIntel,60,5e85f278c880ee1edb7e96ee,,1,0,81,46,1,80
,,,,,,,,,,,,,,,,,,,,,,,,,,,,,,,,,,,,,,,,,e,3.26699996,MOUSE,FALSE,,,,,,,153,mico,Catalan,Sounds/cat_mico.mp3,2020-06-12_20h48.08.412,TranslationElicitation_eng-prolific,3.2.4,MacIntel,60,5e85f278c880ee1edb7e96ee,,1,0,81,46,1,80
,,,,,,,,,,,,,,,,,,,,,,,,,,,,,,,,,,,,,,,,,return,3.450999975,MOUSE,FALSE,,,,,,,153,mico,Catalan,Sounds/cat_mico.mp3,2020-06-12_20h48.08.412,TranslationElicitation_eng-prolific,3.2.4,MacIntel,60,5e85f278c880ee1edb7e96ee,3.450999975,1,0,81,46,1,80
,,,,,,,,,,,,,,,,,,,,,,,,,,,,,,,,,,,,,,,,,,,,,,,,,,,153,mico,Catalan,Sounds/cat_mico.mp3,2020-06-12_20h48.08.412,TranslationElicitation_eng-prolific,3.2.4,MacIntel,60,5e85f278c880ee1edb7e96ee,,1,0,81,46,1,80
,,,,,,,,,,,,,,,,,,,,,,,,,,,,,,,,,,,,,,,,,f,1.532000065,F,FALSE,,,,,,,134,flor,Catalan,Sounds/cat_flor.mp3,2020-06-12_20h48.08.412,TranslationElicitation_eng-prolific,3.2.4,MacIntel,60,5e85f278c880ee1edb7e96ee,,1,0,81,28,1,80
,,,,,,,,,,,,,,,,,,,,,,,,,,,,,,,,,,,,,,,,,l,2.099999905,FL,FALSE,,,,,,,134,flor,Catalan,Sounds/cat_flor.mp3,2020-06-12_20h48.08.412,TranslationElicitation_eng-prolific,3.2.4,MacIntel,60,5e85f278c880ee1edb7e96ee,,1,0,81,28,1,80
,,,,,,,,,,,,,,,,,,,,,,,,,,,,,,,,,,,,,,,,,o,2.316999912,FLO,FALSE,,,,,,,134,flor,Catalan,Sounds/cat_flor.mp3,2020-06-12_20h48.08.412,TranslationElicitation_eng-prolific,3.2.4,MacIntel,60,5e85f278c880ee1edb7e96ee,,1,0,81,28,1,80
,,,,,,,,,,,,,,,,,,,,,,,,,,,,,,,,,,,,,,,,,o,2.44900012,FLOO,FALSE,,,,,,,134,flor,Catalan,Sounds/cat_flor.mp3,2020-06-12_20h48.08.412,TranslationElicitation_eng-prolific,3.2.4,MacIntel,60,5e85f278c880ee1edb7e96ee,,1,0,81,28,1,80
,,,,,,,,,,,,,,,,,,,,,,,,,,,,,,,,,,,,,,,,,r,2.582999945,FLOOR,FALSE,,,,,,,134,flor,Catalan,Sounds/cat_flor.mp3,2020-06-12_20h48.08.412,TranslationElicitation_eng-prolific,3.2.4,MacIntel,60,5e85f278c880ee1edb7e96ee,,1,0,81,28,1,80
,,,,,,,,,,,,,,,,,,,,,,,,,,,,,,,,,,,,,,,,,return,2.76699996,FLOOR,FALSE,,,,,,,134,flor,Catalan,Sounds/cat_flor.mp3,2020-06-12_20h48.08.412,TranslationElicitation_eng-prolific,3.2.4,MacIntel,60,5e85f278c880ee1edb7e96ee,2.76699996,1,0,81,28,1,80
,,,,,,,,,,,,,,,,,,,,,,,,,,,,,,,,,,,,,,,,,,,,,,,,,,,134,flor,Catalan,Sounds/cat_flor.mp3,2020-06-12_20h48.08.412,TranslationElicitation_eng-prolific,3.2.4,MacIntel,60,5e85f278c880ee1edb7e96ee,,1,0,81,28,1,80
,,,,,,,,,,,,,,,,,,,,,,,,,,,,,,,,,,,,,,,,,b,2.43200016,B,FALSE,,,,,,,112,bici,Catalan,Sounds/cat_bici.mp3,2020-06-12_20h48.08.412,TranslationElicitation_eng-prolific,3.2.4,MacIntel,60,5e85f278c880ee1edb7e96ee,,1,0,81,7,1,80
,,,,,,,,,,,,,,,,,,,,,,,,,,,,,,,,,,,,,,,,,i,2.482000113,BI,FALSE,,,,,,,112,bici,Catalan,Sounds/cat_bici.mp3,2020-06-12_20h48.08.412,TranslationElicitation_eng-prolific,3.2.4,MacIntel,60,5e85f278c880ee1edb7e96ee,,1,0,81,7,1,80
,,,,,,,,,,,,,,,,,,,,,,,,,,,,,,,,,,,,,,,,,s,2.565000057,BIS,FALSE,,,,,,,112,bici,Catalan,Sounds/cat_bici.mp3,2020-06-12_20h48.08.412,TranslationElicitation_eng-prolific,3.2.4,MacIntel,60,5e85f278c880ee1edb7e96ee,,1,0,81,7,1,80
,,,,,,,,,,,,,,,,,,,,,,,,,,,,,,,,,,,,,,,,,c,2.648000002,BISC,FALSE,,,,,,,112,bici,Catalan,Sounds/cat_bici.mp3,2020-06-12_20h48.08.412,TranslationElicitation_eng-prolific,3.2.4,MacIntel,60,5e85f278c880ee1edb7e96ee,,1,0,81,7,1,80
,,,,,,,,,,,,,,,,,,,,,,,,,,,,,,,,,,,,,,,,,u,2.79700017,BISCU,FALSE,,,,,,,112,bici,Catalan,Sounds/cat_bici.mp3,2020-06-12_20h48.08.412,TranslationElicitation_eng-prolific,3.2.4,MacIntel,60,5e85f278c880ee1edb7e96ee,,1,0,81,7,1,80
,,,,,,,,,,,,,,,,,,,,,,,,,,,,,,,,,,,,,,,,,i,2.882000208,BISCUI,FALSE,,,,,,,112,bici,Catalan,Sounds/cat_bici.mp3,2020-06-12_20h48.08.412,TranslationElicitation_eng-prolific,3.2.4,MacIntel,60,5e85f278c880ee1edb7e96ee,,1,0,81,7,1,80
,,,,,,,,,,,,,,,,,,,,,,,,,,,,,,,,,,,,,,,,,t,2.999000072,BISCUIT,FALSE,,,,,,,112,bici,Catalan,Sounds/cat_bici.mp3,2020-06-12_20h48.08.412,TranslationElicitation_eng-prolific,3.2.4,MacIntel,60,5e85f278c880ee1edb7e96ee,,1,0,81,7,1,80
,,,,,,,,,,,,,,,,,,,,,,,,,,,,,,,,,,,,,,,,,return,3.181000233,BISCUIT,FALSE,,,,,,,112,bici,Catalan,Sounds/cat_bici.mp3,2020-06-12_20h48.08.412,TranslationElicitation_eng-prolific,3.2.4,MacIntel,60,5e85f278c880ee1edb7e96ee,3.181000233,1,0,81,7,1,80
,,,,,,,,,,,,,,,,,,,,,,,,,,,,,,,,,,,,,,,,,,,,,,,,,,,112,bici,Catalan,Sounds/cat_bici.mp3,2020-06-12_20h48.08.412,TranslationElicitation_eng-prolific,3.2.4,MacIntel,60,5e85f278c880ee1edb7e96ee,,1,0,81,7,1,80
,,,,,,,,,,,,,,,,,,,,,,,,,,,,,,,,,,,,,,,,,c,1.531000137,C,FALSE,,,,,,,188,xocolata,Catalan,Sounds/cat_xocolata.mp3,2020-06-12_20h48.08.412,TranslationElicitation_eng-prolific,3.2.4,MacIntel,60,5e85f278c880ee1edb7e96ee,,1,0,81,79,1,80
,,,,,,,,,,,,,,,,,,,,,,,,,,,,,,,,,,,,,,,,,h,1.598999977,CH,FALSE,,,,,,,188,xocolata,Catalan,Sounds/cat_xocolata.mp3,2020-06-12_20h48.08.412,TranslationElicitation_eng-prolific,3.2.4,MacIntel,60,5e85f278c880ee1edb7e96ee,,1,0,81,79,1,80
,,,,,,,,,,,,,,,,,,,,,,,,,,,,,,,,,,,,,,,,,o,1.683000088,CHO,FALSE,,,,,,,188,xocolata,Catalan,Sounds/cat_xocolata.mp3,2020-06-12_20h48.08.412,TranslationElicitation_eng-prolific,3.2.4,MacIntel,60,5e85f278c880ee1edb7e96ee,,1,0,81,79,1,80
,,,,,,,,,,,,,,,,,,,,,,,,,,,,,,,,,,,,,,,,,c,1.786000013,CHOC,FALSE,,,,,,,188,xocolata,Catalan,Sounds/cat_xocolata.mp3,2020-06-12_20h48.08.412,TranslationElicitation_eng-prolific,3.2.4,MacIntel,60,5e85f278c880ee1edb7e96ee,,1,0,81,79,1,80
,,,,,,,,,,,,,,,,,,,,,,,,,,,,,,,,,,,,,,,,,o,1.999000072,CHOCO,FALSE,,,,,,,188,xocolata,Catalan,Sounds/cat_xocolata.mp3,2020-06-12_20h48.08.412,TranslationElicitation_eng-prolific,3.2.4,MacIntel,60,5e85f278c880ee1edb7e96ee,,1,0,81,79,1,80
,,,,,,,,,,,,,,,,,,,,,,,,,,,,,,,,,,,,,,,,,l,2.25,CHOCOL,FALSE,,,,,,,188,xocolata,Catalan,Sounds/cat_xocolata.mp3,2020-06-12_20h48.08.412,TranslationElicitation_eng-prolific,3.2.4,MacIntel,60,5e85f278c880ee1edb7e96ee,,1,0,81,79,1,80
,,,,,,,,,,,,,,,,,,,,,,,,,,,,,,,,,,,,,,,,,a,2.332000017,CHOCOLA,FALSE,,,,,,,188,xocolata,Catalan,Sounds/cat_xocolata.mp3,2020-06-12_20h48.08.412,TranslationElicitation_eng-prolific,3.2.4,MacIntel,60,5e85f278c880ee1edb7e96ee,,1,0,81,79,1,80
,,,,,,,,,,,,,,,,,,,,,,,,,,,,,,,,,,,,,,,,,t,2.44900012,CHOCOLAT,FALSE,,,,,,,188,xocolata,Catalan,Sounds/cat_xocolata.mp3,2020-06-12_20h48.08.412,TranslationElicitation_eng-prolific,3.2.4,MacIntel,60,5e85f278c880ee1edb7e96ee,,1,0,81,79,1,80
,,,,,,,,,,,,,,,,,,,,,,,,,,,,,,,,,,,,,,,,,e,2.499000072,CHOCOLATE,FALSE,,,,,,,188,xocolata,Catalan,Sounds/cat_xocolata.mp3,2020-06-12_20h48.08.412,TranslationElicitation_eng-prolific,3.2.4,MacIntel,60,5e85f278c880ee1edb7e96ee,,1,0,81,79,1,80
,,,,,,,,,,,,,,,,,,,,,,,,,,,,,,,,,,,,,,,,,return,2.765000105,CHOCOLATE,FALSE,,,,,,,188,xocolata,Catalan,Sounds/cat_xocolata.mp3,2020-06-12_20h48.08.412,TranslationElicitation_eng-prolific,3.2.4,MacIntel,60,5e85f278c880ee1edb7e96ee,2.765000105,1,0,81,79,1,80
,,,,,,,,,,,,,,,,,,,,,,,,,,,,,,,,,,,,,,,,,,,,,,,,,,,188,xocolata,Catalan,Sounds/cat_xocolata.mp3,2020-06-12_20h48.08.412,TranslationElicitation_eng-prolific,3.2.4,MacIntel,60,5e85f278c880ee1edb7e96ee,,1,0,81,79,1,80
,,,,,,,,,,,,,,,,,,,,,,,,,,,,,,,,,,,,,,,,,c,5.516000032,C,FALSE,,,,,,,119,caixa,Catalan,Sounds/cat_caixa.mp3,2020-06-12_20h48.08.412,TranslationElicitation_eng-prolific,3.2.4,MacIntel,60,5e85f278c880ee1edb7e96ee,,1,0,81,14,1,80
,,,,,,,,,,,,,,,,,,,,,,,,,,,,,,,,,,,,,,,,,e,5.598999977,CE,FALSE,,,,,,,119,caixa,Catalan,Sounds/cat_caixa.mp3,2020-06-12_20h48.08.412,TranslationElicitation_eng-prolific,3.2.4,MacIntel,60,5e85f278c880ee1edb7e96ee,,1,0,81,14,1,80
,,,,,,,,,,,,,,,,,,,,,,,,,,,,,,,,,,,,,,,,,r,5.698999882,CER,FALSE,,,,,,,119,caixa,Catalan,Sounds/cat_caixa.mp3,2020-06-12_20h48.08.412,TranslationElicitation_eng-prolific,3.2.4,MacIntel,60,5e85f278c880ee1edb7e96ee,,1,0,81,14,1,80
,,,,,,,,,,,,,,,,,,,,,,,,,,,,,,,,,,,,,,,,,e,5.816999912,CERE,FALSE,,,,,,,119,caixa,Catalan,Sounds/cat_caixa.mp3,2020-06-12_20h48.08.412,TranslationElicitation_eng-prolific,3.2.4,MacIntel,60,5e85f278c880ee1edb7e96ee,,1,0,81,14,1,80
,,,,,,,,,,,,,,,,,,,,,,,,,,,,,,,,,,,,,,,,,a,5.882999897,CEREA,FALSE,,,,,,,119,caixa,Catalan,Sounds/cat_caixa.mp3,2020-06-12_20h48.08.412,TranslationElicitation_eng-prolific,3.2.4,MacIntel,60,5e85f278c880ee1edb7e96ee,,1,0,81,14,1,80
,,,,,,,,,,,,,,,,,,,,,,,,,,,,,,,,,,,,,,,,,l,5.967000008,CEREAL,FALSE,,,,,,,119,caixa,Catalan,Sounds/cat_caixa.mp3,2020-06-12_20h48.08.412,TranslationElicitation_eng-prolific,3.2.4,MacIntel,60,5e85f278c880ee1edb7e96ee,,1,0,81,14,1,80
,,,,,,,,,,,,,,,,,,,,,,,,,,,,,,,,,,,,,,,,,return,6.299000025,CEREAL,FALSE,,,,,,,119,caixa,Catalan,Sounds/cat_caixa.mp3,2020-06-12_20h48.08.412,TranslationElicitation_eng-prolific,3.2.4,MacIntel,60,5e85f278c880ee1edb7e96ee,6.299000025,1,0,81,14,1,80
,,,,,,,,,,,,,,,,,,,,,,,,,,,,,,,,,,,,,,,,,,,,,,,,,,,119,caixa,Catalan,Sounds/cat_caixa.mp3,2020-06-12_20h48.08.412,TranslationElicitation_eng-prolific,3.2.4,MacIntel,60,5e85f278c880ee1edb7e96ee,,1,0,81,14,1,80
,,,,,,,,,,,,,,,,,,,,,,,,,,,,,,,,,,,,,,,,,t,1.467000008,T,FALSE,,,,,,,182,tomaquet,Catalan,Sounds/cat_tomaquet.mp3,2020-06-12_20h48.08.412,TranslationElicitation_eng-prolific,3.2.4,MacIntel,60,5e85f278c880ee1edb7e96ee,,1,0,81,73,1,80
,,,,,,,,,,,,,,,,,,,,,,,,,,,,,,,,,,,,,,,,,o,1.549000025,TO,FALSE,,,,,,,182,tomaquet,Catalan,Sounds/cat_tomaquet.mp3,2020-06-12_20h48.08.412,TranslationElicitation_eng-prolific,3.2.4,MacIntel,60,5e85f278c880ee1edb7e96ee,,1,0,81,73,1,80
,,,,,,,,,,,,,,,,,,,,,,,,,,,,,,,,,,,,,,,,,m,1.615999937,TOM,FALSE,,,,,,,182,tomaquet,Catalan,Sounds/cat_tomaquet.mp3,2020-06-12_20h48.08.412,TranslationElicitation_eng-prolific,3.2.4,MacIntel,60,5e85f278c880ee1edb7e96ee,,1,0,81,73,1,80
,,,,,,,,,,,,,,,,,,,,,,,,,,,,,,,,,,,,,,,,,a,1.720000029,TOMA,FALSE,,,,,,,182,tomaquet,Catalan,Sounds/cat_tomaquet.mp3,2020-06-12_20h48.08.412,TranslationElicitation_eng-prolific,3.2.4,MacIntel,60,5e85f278c880ee1edb7e96ee,,1,0,81,73,1,80
,,,,,,,,,,,,,,,,,,,,,,,,,,,,,,,,,,,,,,,,,t,1.782000065,TOMAT,FALSE,,,,,,,182,tomaquet,Catalan,Sounds/cat_tomaquet.mp3,2020-06-12_20h48.08.412,TranslationElicitation_eng-prolific,3.2.4,MacIntel,60,5e85f278c880ee1edb7e96ee,,1,0,81,73,1,80
,,,,,,,,,,,,,,,,,,,,,,,,,,,,,,,,,,,,,,,,,o,1.848999977,TOMATO,FALSE,,,,,,,182,tomaquet,Catalan,Sounds/cat_tomaquet.mp3,2020-06-12_20h48.08.412,TranslationElicitation_eng-prolific,3.2.4,MacIntel,60,5e85f278c880ee1edb7e96ee,,1,0,81,73,1,80
,,,,,,,,,,,,,,,,,,,,,,,,,,,,,,,,,,,,,,,,,return,2.148999929,TOMATO,FALSE,,,,,,,182,tomaquet,Catalan,Sounds/cat_tomaquet.mp3,2020-06-12_20h48.08.412,TranslationElicitation_eng-prolific,3.2.4,MacIntel,60,5e85f278c880ee1edb7e96ee,2.148999929,1,0,81,73,1,80
,,,,,,,,,,,,,,,,,,,,,,,,,,,,,,,,,,,,,,,,,,,,,,,,,,,182,tomaquet,Catalan,Sounds/cat_tomaquet.mp3,2020-06-12_20h48.08.412,TranslationElicitation_eng-prolific,3.2.4,MacIntel,60,5e85f278c880ee1edb7e96ee,,1,0,81,73,1,80
,,,,,,,,,,,,,,,,,,,,,,,,,,,,,,,,,,,,,,,,,s,3.398999929,S,FALSE,,,,,,,129,dit,Catalan,Sounds/cat_dit.mp3,2020-06-12_20h48.08.412,TranslationElicitation_eng-prolific,3.2.4,MacIntel,60,5e85f278c880ee1edb7e96ee,,1,0,81,23,1,80
,,,,,,,,,,,,,,,,,,,,,,,,,,,,,,,,,,,,,,,,,p,3.532000065,SP,FALSE,,,,,,,129,dit,Catalan,Sounds/cat_dit.mp3,2020-06-12_20h48.08.412,TranslationElicitation_eng-prolific,3.2.4,MacIntel,60,5e85f278c880ee1edb7e96ee,,1,0,81,23,1,80
,,,,,,,,,,,,,,,,,,,,,,,,,,,,,,,,,,,,,,,,,e,3.632999897,SPE,FALSE,,,,,,,129,dit,Catalan,Sounds/cat_dit.mp3,2020-06-12_20h48.08.412,TranslationElicitation_eng-prolific,3.2.4,MacIntel,60,5e85f278c880ee1edb7e96ee,,1,0,81,23,1,80
,,,,,,,,,,,,,,,,,,,,,,,,,,,,,,,,,,,,,,,,,a,3.715999842,SPEA,FALSE,,,,,,,129,dit,Catalan,Sounds/cat_dit.mp3,2020-06-12_20h48.08.412,TranslationElicitation_eng-prolific,3.2.4,MacIntel,60,5e85f278c880ee1edb7e96ee,,1,0,81,23,1,80
,,,,,,,,,,,,,,,,,,,,,,,,,,,,,,,,,,,,,,,,,k,3.76699996,SPEAK,FALSE,,,,,,,129,dit,Catalan,Sounds/cat_dit.mp3,2020-06-12_20h48.08.412,TranslationElicitation_eng-prolific,3.2.4,MacIntel,60,5e85f278c880ee1edb7e96ee,,1,0,81,23,1,80
,,,,,,,,,,,,,,,,,,,,,,,,,,,,,,,,,,,,,,,,,return,4.049000025,SPEAK,FALSE,,,,,,,129,dit,Catalan,Sounds/cat_dit.mp3,2020-06-12_20h48.08.412,TranslationElicitation_eng-prolific,3.2.4,MacIntel,60,5e85f278c880ee1edb7e96ee,4.049000025,1,0,81,23,1,80
,,,,,,,,,,,,,,,,,,,,,,,,,,,,,,,,,,,,,,,,,,,,,,,,,,,129,dit,Catalan,Sounds/cat_dit.mp3,2020-06-12_20h48.08.412,TranslationElicitation_eng-prolific,3.2.4,MacIntel,60,5e85f278c880ee1edb7e96ee,,1,0,81,23,1,80
,,,,,,,,,,,,,,,,,,,,,,,,,,,,,,,,,,,,,,,,,d,1.982000113,D,FALSE,,,,,,,170,ploma,Catalan,Sounds/cat_ploma.mp3,2020-06-12_20h48.08.412,TranslationElicitation_eng-prolific,3.2.4,MacIntel,60,5e85f278c880ee1edb7e96ee,,1,0,81,62,1,80
,,,,,,,,,,,,,,,,,,,,,,,,,,,,,,,,,,,,,,,,,i,2.065000057,DI,FALSE,,,,,,,170,ploma,Catalan,Sounds/cat_ploma.mp3,2020-06-12_20h48.08.412,TranslationElicitation_eng-prolific,3.2.4,MacIntel,60,5e85f278c880ee1edb7e96ee,,1,0,81,62,1,80
,,,,,,,,,,,,,,,,,,,,,,,,,,,,,,,,,,,,,,,,,p,2.232000113,DIP,FALSE,,,,,,,170,ploma,Catalan,Sounds/cat_ploma.mp3,2020-06-12_20h48.08.412,TranslationElicitation_eng-prolific,3.2.4,MacIntel,60,5e85f278c880ee1edb7e96ee,,1,0,81,62,1,80
,,,,,,,,,,,,,,,,,,,,,,,,,,,,,,,,,,,,,,,,,l,2.43900013,DIPL,FALSE,,,,,,,170,ploma,Catalan,Sounds/cat_ploma.mp3,2020-06-12_20h48.08.412,TranslationElicitation_eng-prolific,3.2.4,MacIntel,60,5e85f278c880ee1edb7e96ee,,1,0,81,62,1,80
,,,,,,,,,,,,,,,,,,,,,,,,,,,,,,,,,,,,,,,,,o,2.515000105,DIPLO,FALSE,,,,,,,170,ploma,Catalan,Sounds/cat_ploma.mp3,2020-06-12_20h48.08.412,TranslationElicitation_eng-prolific,3.2.4,MacIntel,60,5e85f278c880ee1edb7e96ee,,1,0,81,62,1,80
,,,,,,,,,,,,,,,,,,,,,,,,,,,,,,,,,,,,,,,,,m,2.666000128,DIPLOM,FALSE,,,,,,,170,ploma,Catalan,Sounds/cat_ploma.mp3,2020-06-12_20h48.08.412,TranslationElicitation_eng-prolific,3.2.4,MacIntel,60,5e85f278c880ee1edb7e96ee,,1,0,81,62,1,80
,,,,,,,,,,,,,,,,,,,,,,,,,,,,,,,,,,,,,,,,,a,2.798000097,DIPLOMA,FALSE,,,,,,,170,ploma,Catalan,Sounds/cat_ploma.mp3,2020-06-12_20h48.08.412,TranslationElicitation_eng-prolific,3.2.4,MacIntel,60,5e85f278c880ee1edb7e96ee,,1,0,81,62,1,80
,,,,,,,,,,,,,,,,,,,,,,,,,,,,,,,,,,,,,,,,,return,2.981000185,DIPLOMA,FALSE,,,,,,,170,ploma,Catalan,Sounds/cat_ploma.mp3,2020-06-12_20h48.08.412,TranslationElicitation_eng-prolific,3.2.4,MacIntel,60,5e85f278c880ee1edb7e96ee,2.981000185,1,0,81,62,1,80
,,,,,,,,,,,,,,,,,,,,,,,,,,,,,,,,,,,,,,,,,,,,,,,,,,,170,ploma,Catalan,Sounds/cat_ploma.mp3,2020-06-12_20h48.08.412,TranslationElicitation_eng-prolific,3.2.4,MacIntel,60,5e85f278c880ee1edb7e96ee,,1,0,81,62,1,80
,,,,,,,,,,,,,,,,,,,,,,,,,,,,,,,,,,,,,,,,,p,2.666000128,P,FALSE,,,,,,,171,pollastre,Catalan,Sounds/cat_pollastre.mp3,2020-06-12_20h48.08.412,TranslationElicitation_eng-prolific,3.2.4,MacIntel,60,5e85f278c880ee1edb7e96ee,,1,0,81,63,1,80
,,,,,,,,,,,,,,,,,,,,,,,,,,,,,,,,,,,,,,,,,o,2.916000128,PO,FALSE,,,,,,,171,pollastre,Catalan,Sounds/cat_pollastre.mp3,2020-06-12_20h48.08.412,TranslationElicitation_eng-prolific,3.2.4,MacIntel,60,5e85f278c880ee1edb7e96ee,,1,0,81,63,1,80
,,,,,,,,,,,,,,,,,,,,,,,,,,,,,,,,,,,,,,,,,l,3.131999969,POL,FALSE,,,,,,,171,pollastre,Catalan,Sounds/cat_pollastre.mp3,2020-06-12_20h48.08.412,TranslationElicitation_eng-prolific,3.2.4,MacIntel,60,5e85f278c880ee1edb7e96ee,,1,0,81,63,1,80
,,,,,,,,,,,,,,,,,,,,,,,,,,,,,,,,,,,,,,,,,e,3.232000113,POLE,FALSE,,,,,,,171,pollastre,Catalan,Sounds/cat_pollastre.mp3,2020-06-12_20h48.08.412,TranslationElicitation_eng-prolific,3.2.4,MacIntel,60,5e85f278c880ee1edb7e96ee,,1,0,81,63,1,80
,,,,,,,,,,,,,,,,,,,,,,,,,,,,,,,,,,,,,,,,,n,3.332000017,POLEN,FALSE,,,,,,,171,pollastre,Catalan,Sounds/cat_pollastre.mp3,2020-06-12_20h48.08.412,TranslationElicitation_eng-prolific,3.2.4,MacIntel,60,5e85f278c880ee1edb7e96ee,,1,0,81,63,1,80
,,,,,,,,,,,,,,,,,,,,,,,,,,,,,,,,,,,,,,,,,t,3.46600008,POLENT,FALSE,,,,,,,171,pollastre,Catalan,Sounds/cat_pollastre.mp3,2020-06-12_20h48.08.412,TranslationElicitation_eng-prolific,3.2.4,MacIntel,60,5e85f278c880ee1edb7e96ee,,1,0,81,63,1,80
,,,,,,,,,,,,,,,,,,,,,,,,,,,,,,,,,,,,,,,,,a,3.549000025,POLENTA,FALSE,,,,,,,171,pollastre,Catalan,Sounds/cat_pollastre.mp3,2020-06-12_20h48.08.412,TranslationElicitation_eng-prolific,3.2.4,MacIntel,60,5e85f278c880ee1edb7e96ee,,1,0,81,63,1,80
,,,,,,,,,,,,,,,,,,,,,,,,,,,,,,,,,,,,,,,,,return,3.748000145,POLENTA,FALSE,,,,,,,171,pollastre,Catalan,Sounds/cat_pollastre.mp3,2020-06-12_20h48.08.412,TranslationElicitation_eng-prolific,3.2.4,MacIntel,60,5e85f278c880ee1edb7e96ee,3.748000145,1,0,81,63,1,80
,,,,,,,,,,,,,,,,,,,,,,,,,,,,,,,,,,,,,,,,,,,,,,,,,,,171,pollastre,Catalan,Sounds/cat_pollastre.mp3,2020-06-12_20h48.08.412,TranslationElicitation_eng-prolific,3.2.4,MacIntel,60,5e85f278c880ee1edb7e96ee,,1,0,81,63,1,80
,,,,,,,,,,,,,,,,,,,,,,,,,,,,,,,,,,,,,,,,,b,1.5,B,FALSE,,,,,,,111,bibero,Catalan,Sounds/cat_bibero.mp3,2020-06-12_20h48.08.412,TranslationElicitation_eng-prolific,3.2.4,MacIntel,60,5e85f278c880ee1edb7e96ee,,1,0,81,6,1,80
,,,,,,,,,,,,,,,,,,,,,,,,,,,,,,,,,,,,,,,,,e,1.599999905,BE,FALSE,,,,,,,111,bibero,Catalan,Sounds/cat_bibero.mp3,2020-06-12_20h48.08.412,TranslationElicitation_eng-prolific,3.2.4,MacIntel,60,5e85f278c880ee1edb7e96ee,,1,0,81,6,1,80
,,,,,,,,,,,,,,,,,,,,,,,,,,,,,,,,,,,,,,,,,v,1.849999905,BEV,FALSE,,,,,,,111,bibero,Catalan,Sounds/cat_bibero.mp3,2020-06-12_20h48.08.412,TranslationElicitation_eng-prolific,3.2.4,MacIntel,60,5e85f278c880ee1edb7e96ee,,1,0,81,6,1,80
,,,,,,,,,,,,,,,,,,,,,,,,,,,,,,,,,,,,,,,,,e,2.01699996,BEVE,FALSE,,,,,,,111,bibero,Catalan,Sounds/cat_bibero.mp3,2020-06-12_20h48.08.412,TranslationElicitation_eng-prolific,3.2.4,MacIntel,60,5e85f278c880ee1edb7e96ee,,1,0,81,6,1,80
,,,,,,,,,,,,,,,,,,,,,,,,,,,,,,,,,,,,,,,,,r,2.101000071,BEVER,FALSE,,,,,,,111,bibero,Catalan,Sounds/cat_bibero.mp3,2020-06-12_20h48.08.412,TranslationElicitation_eng-prolific,3.2.4,MacIntel,60,5e85f278c880ee1edb7e96ee,,1,0,81,6,1,80
,,,,,,,,,,,,,,,,,,,,,,,,,,,,,,,,,,,,,,,,,a,2.207000017,BEVERA,FALSE,,,,,,,111,bibero,Catalan,Sounds/cat_bibero.mp3,2020-06-12_20h48.08.412,TranslationElicitation_eng-prolific,3.2.4,MacIntel,60,5e85f278c880ee1edb7e96ee,,1,0,81,6,1,80
,,,,,,,,,,,,,,,,,,,,,,,,,,,,,,,,,,,,,,,,,g,2.417000055,BEVERAG,FALSE,,,,,,,111,bibero,Catalan,Sounds/cat_bibero.mp3,2020-06-12_20h48.08.412,TranslationElicitation_eng-prolific,3.2.4,MacIntel,60,5e85f278c880ee1edb7e96ee,,1,0,81,6,1,80
,,,,,,,,,,,,,,,,,,,,,,,,,,,,,,,,,,,,,,,,,e,2.467000008,BEVERAGE,FALSE,,,,,,,111,bibero,Catalan,Sounds/cat_bibero.mp3,2020-06-12_20h48.08.412,TranslationElicitation_eng-prolific,3.2.4,MacIntel,60,5e85f278c880ee1edb7e96ee,,1,0,81,6,1,80
,,,,,,,,,,,,,,,,,,,,,,,,,,,,,,,,,,,,,,,,,return,2.602999926,BEVERAGE,FALSE,,,,,,,111,bibero,Catalan,Sounds/cat_bibero.mp3,2020-06-12_20h48.08.412,TranslationElicitation_eng-prolific,3.2.4,MacIntel,60,5e85f278c880ee1edb7e96ee,2.602999926,1,0,81,6,1,80
,,,,,,,,,,,,,,,,,,,,,,,,,,,,,,,,,,,,,,,,,,,,,,,,,,,111,bibero,Catalan,Sounds/cat_bibero.mp3,2020-06-12_20h48.08.412,TranslationElicitation_eng-prolific,3.2.4,MacIntel,60,5e85f278c880ee1edb7e96ee,,1,0,81,6,1,80
,,,,,,,,,,,,,,,,,,,,,,,,,,,,,,,,,,,,,,,,,s,3.032999992,S,FALSE,,,,,,,131,esponja,Catalan,Sounds/cat_esponja.mp3,2020-06-12_20h48.08.412,TranslationElicitation_eng-prolific,3.2.4,MacIntel,60,5e85f278c880ee1edb7e96ee,,1,0,81,25,1,80
,,,,,,,,,,,,,,,,,,,,,,,,,,,,,,,,,,,,,,,,,p,3.148999929,SP,FALSE,,,,,,,131,esponja,Catalan,Sounds/cat_esponja.mp3,2020-06-12_20h48.08.412,TranslationElicitation_eng-prolific,3.2.4,MacIntel,60,5e85f278c880ee1edb7e96ee,,1,0,81,25,1,80
,,,,,,,,,,,,,,,,,,,,,,,,,,,,,,,,,,,,,,,,,o,3.231999874,SPO,FALSE,,,,,,,131,esponja,Catalan,Sounds/cat_esponja.mp3,2020-06-12_20h48.08.412,TranslationElicitation_eng-prolific,3.2.4,MacIntel,60,5e85f278c880ee1edb7e96ee,,1,0,81,25,1,80
,,,,,,,,,,,,,,,,,,,,,,,,,,,,,,,,,,,,,,,,,n,3.314999819,SPON,FALSE,,,,,,,131,esponja,Catalan,Sounds/cat_esponja.mp3,2020-06-12_20h48.08.412,TranslationElicitation_eng-prolific,3.2.4,MacIntel,60,5e85f278c880ee1edb7e96ee,,1,0,81,25,1,80
,,,,,,,,,,,,,,,,,,,,,,,,,,,,,,,,,,,,,,,,,g,3.449999809,SPONG,FALSE,,,,,,,131,esponja,Catalan,Sounds/cat_esponja.mp3,2020-06-12_20h48.08.412,TranslationElicitation_eng-prolific,3.2.4,MacIntel,60,5e85f278c880ee1edb7e96ee,,1,0,81,25,1,80
,,,,,,,,,,,,,,,,,,,,,,,,,,,,,,,,,,,,,,,,,e,3.544999838,SPONGE,FALSE,,,,,,,131,esponja,Catalan,Sounds/cat_esponja.mp3,2020-06-12_20h48.08.412,TranslationElicitation_eng-prolific,3.2.4,MacIntel,60,5e85f278c880ee1edb7e96ee,,1,0,81,25,1,80
,,,,,,,,,,,,,,,,,,,,,,,,,,,,,,,,,,,,,,,,,return,3.699999809,SPONGE,FALSE,,,,,,,131,esponja,Catalan,Sounds/cat_esponja.mp3,2020-06-12_20h48.08.412,TranslationElicitation_eng-prolific,3.2.4,MacIntel,60,5e85f278c880ee1edb7e96ee,3.699999809,1,0,81,25,1,80
,,,,,,,,,,,,,,,,,,,,,,,,,,,,,,,,,,,,,,,,,,,,,,,,,,,131,esponja,Catalan,Sounds/cat_esponja.mp3,2020-06-12_20h48.08.412,TranslationElicitation_eng-prolific,3.2.4,MacIntel,60,5e85f278c880ee1edb7e96ee,,1,0,81,25,1,80
,,,,,,,,,,,,,,,,,,,,,,,,,,,,,,,,,,,,,,,,,o,1.78399992,O,FALSE,,,,,,,184,ull,Catalan,Sounds/cat_ull.mp3,2020-06-12_20h48.08.412,TranslationElicitation_eng-prolific,3.2.4,MacIntel,60,5e85f278c880ee1edb7e96ee,,1,0,81,75,1,80
,,,,,,,,,,,,,,,,,,,,,,,,,,,,,,,,,,,,,,,,,i,1.900000095,OI,FALSE,,,,,,,184,ull,Catalan,Sounds/cat_ull.mp3,2020-06-12_20h48.08.412,TranslationElicitation_eng-prolific,3.2.4,MacIntel,60,5e85f278c880ee1edb7e96ee,,1,0,81,75,1,80
,,,,,,,,,,,,,,,,,,,,,,,,,,,,,,,,,,,,,,,,,l,2.01699996,OIL,FALSE,,,,,,,184,ull,Catalan,Sounds/cat_ull.mp3,2020-06-12_20h48.08.412,TranslationElicitation_eng-prolific,3.2.4,MacIntel,60,5e85f278c880ee1edb7e96ee,,1,0,81,75,1,80
,,,,,,,,,,,,,,,,,,,,,,,,,,,,,,,,,,,,,,,,,return,2.282999992,OIL,FALSE,,,,,,,184,ull,Catalan,Sounds/cat_ull.mp3,2020-06-12_20h48.08.412,TranslationElicitation_eng-prolific,3.2.4,MacIntel,60,5e85f278c880ee1edb7e96ee,2.282999992,1,0,81,75,1,80
,,,,,,,,,,,,,,,,,,,,,,,,,,,,,,,,,,,,,,,,,,,,,,,,,,,184,ull,Catalan,Sounds/cat_ull.mp3,2020-06-12_20h48.08.412,TranslationElicitation_eng-prolific,3.2.4,MacIntel,60,5e85f278c880ee1edb7e96ee,,1,0,81,75,1,80
,,,,,,,,,,,,,,,,,,,,,,,,,,,,,,,,,,,,,,,,,b,2.36500001,B,FALSE,,,,,,,187,vaixell,Catalan,Sounds/cat_vaixell.mp3,2020-06-12_20h48.08.412,TranslationElicitation_eng-prolific,3.2.4,MacIntel,60,5e85f278c880ee1edb7e96ee,,1,0,81,78,1,80
,,,,,,,,,,,,,,,,,,,,,,,,,,,,,,,,,,,,,,,,,u,2.46600008,BU,FALSE,,,,,,,187,vaixell,Catalan,Sounds/cat_vaixell.mp3,2020-06-12_20h48.08.412,TranslationElicitation_eng-prolific,3.2.4,MacIntel,60,5e85f278c880ee1edb7e96ee,,1,0,81,78,1,80
,,,,,,,,,,,,,,,,,,,,,,,,,,,,,,,,,,,,,,,,,t,2.565999985,BUT,FALSE,,,,,,,187,vaixell,Catalan,Sounds/cat_vaixell.mp3,2020-06-12_20h48.08.412,TranslationElicitation_eng-prolific,3.2.4,MacIntel,60,5e85f278c880ee1edb7e96ee,,1,0,81,78,1,80
,,,,,,,,,,,,,,,,,,,,,,,,,,,,,,,,,,,,,,,,,t,2.715000153,BUTT,FALSE,,,,,,,187,vaixell,Catalan,Sounds/cat_vaixell.mp3,2020-06-12_20h48.08.412,TranslationElicitation_eng-prolific,3.2.4,MacIntel,60,5e85f278c880ee1edb7e96ee,,1,0,81,78,1,80
,,,,,,,,,,,,,,,,,,,,,,,,,,,,,,,,,,,,,,,,,e,2.850000143,BUTTE,FALSE,,,,,,,187,vaixell,Catalan,Sounds/cat_vaixell.mp3,2020-06-12_20h48.08.412,TranslationElicitation_eng-prolific,3.2.4,MacIntel,60,5e85f278c880ee1edb7e96ee,,1,0,81,78,1,80
,,,,,,,,,,,,,,,,,,,,,,,,,,,,,,,,,,,,,,,,,r,2.9150002,BUTTER,FALSE,,,,,,,187,vaixell,Catalan,Sounds/cat_vaixell.mp3,2020-06-12_20h48.08.412,TranslationElicitation_eng-prolific,3.2.4,MacIntel,60,5e85f278c880ee1edb7e96ee,,1,0,81,78,1,80
,,,,,,,,,,,,,,,,,,,,,,,,,,,,,,,,,,,,,,,,,return,3.333000183,BUTTER,FALSE,,,,,,,187,vaixell,Catalan,Sounds/cat_vaixell.mp3,2020-06-12_20h48.08.412,TranslationElicitation_eng-prolific,3.2.4,MacIntel,60,5e85f278c880ee1edb7e96ee,3.333000183,1,0,81,78,1,80
,,,,,,,,,,,,,,,,,,,,,,,,,,,,,,,,,,,,,,,,,,,,,,,,,,,187,vaixell,Catalan,Sounds/cat_vaixell.mp3,2020-06-12_20h48.08.412,TranslationElicitation_eng-prolific,3.2.4,MacIntel,60,5e85f278c880ee1edb7e96ee,,1,0,81,78,1,80
,,,,,,,,,,,,,,,,,,,,,,,,,,,,,,,,,,,,,,,,,r,1.865999937,R,FALSE,,,,,,,175,raspall,Catalan,Sounds/cat_raspall.mp3,2020-06-12_20h48.08.412,TranslationElicitation_eng-prolific,3.2.4,MacIntel,60,5e85f278c880ee1edb7e96ee,,1,0,81,67,1,80
,,,,,,,,,,,,,,,,,,,,,,,,,,,,,,,,,,,,,,,,,a,1.948999882,RA,FALSE,,,,,,,175,raspall,Catalan,Sounds/cat_raspall.mp3,2020-06-12_20h48.08.412,TranslationElicitation_eng-prolific,3.2.4,MacIntel,60,5e85f278c880ee1edb7e96ee,,1,0,81,67,1,80
,,,,,,,,,,,,,,,,,,,,,,,,,,,,,,,,,,,,,,,,,s,2.016000032,RAS,FALSE,,,,,,,175,raspall,Catalan,Sounds/cat_raspall.mp3,2020-06-12_20h48.08.412,TranslationElicitation_eng-prolific,3.2.4,MacIntel,60,5e85f278c880ee1edb7e96ee,,1,0,81,67,1,80
,,,,,,,,,,,,,,,,,,,,,,,,,,,,,,,,,,,,,,,,,p,2.065999985,RASP,FALSE,,,,,,,175,raspall,Catalan,Sounds/cat_raspall.mp3,2020-06-12_20h48.08.412,TranslationElicitation_eng-prolific,3.2.4,MacIntel,60,5e85f278c880ee1edb7e96ee,,1,0,81,67,1,80
,,,,,,,,,,,,,,,,,,,,,,,,,,,,,,,,,,,,,,,,,b,2.249000072,RASPB,FALSE,,,,,,,175,raspall,Catalan,Sounds/cat_raspall.mp3,2020-06-12_20h48.08.412,TranslationElicitation_eng-prolific,3.2.4,MacIntel,60,5e85f278c880ee1edb7e96ee,,1,0,81,67,1,80
,,,,,,,,,,,,,,,,,,,,,,,,,,,,,,,,,,,,,,,,,e,2.356999874,RASPBE,FALSE,,,,,,,175,raspall,Catalan,Sounds/cat_raspall.mp3,2020-06-12_20h48.08.412,TranslationElicitation_eng-prolific,3.2.4,MacIntel,60,5e85f278c880ee1edb7e96ee,,1,0,81,67,1,80
,,,,,,,,,,,,,,,,,,,,,,,,,,,,,,,,,,,,,,,,,r,2.415999889,RASPBER,FALSE,,,,,,,175,raspall,Catalan,Sounds/cat_raspall.mp3,2020-06-12_20h48.08.412,TranslationElicitation_eng-prolific,3.2.4,MacIntel,60,5e85f278c880ee1edb7e96ee,,1,0,81,67,1,80
,,,,,,,,,,,,,,,,,,,,,,,,,,,,,,,,,,,,,,,,,r,2.605999947,RASPBERR,FALSE,,,,,,,175,raspall,Catalan,Sounds/cat_raspall.mp3,2020-06-12_20h48.08.412,TranslationElicitation_eng-prolific,3.2.4,MacIntel,60,5e85f278c880ee1edb7e96ee,,1,0,81,67,1,80
,,,,,,,,,,,,,,,,,,,,,,,,,,,,,,,,,,,,,,,,,y,2.698999882,RASPBERRY,FALSE,,,,,,,175,raspall,Catalan,Sounds/cat_raspall.mp3,2020-06-12_20h48.08.412,TranslationElicitation_eng-prolific,3.2.4,MacIntel,60,5e85f278c880ee1edb7e96ee,,1,0,81,67,1,80
,,,,,,,,,,,,,,,,,,,,,,,,,,,,,,,,,,,,,,,,,return,2.997999907,RASPBERRY,FALSE,,,,,,,175,raspall,Catalan,Sounds/cat_raspall.mp3,2020-06-12_20h48.08.412,TranslationElicitation_eng-prolific,3.2.4,MacIntel,60,5e85f278c880ee1edb7e96ee,2.997999907,1,0,81,67,1,80
,,,,,,,,,,,,,,,,,,,,,,,,,,,,,,,,,,,,,,,,,,,,,,,,,,,175,raspall,Catalan,Sounds/cat_raspall.mp3,2020-06-12_20h48.08.412,TranslationElicitation_eng-prolific,3.2.4,MacIntel,60,5e85f278c880ee1edb7e96ee,,1,0,81,67,1,80
,,,,,,,,,,,,,,,,,,,,,,,,,,,,,,,,,,,,,,,,,p,1.297999859,P,FALSE,,,,,,,164,patata,Catalan,Sounds/cat_patata.mp3,2020-06-12_20h48.08.412,TranslationElicitation_eng-prolific,3.2.4,MacIntel,60,5e85f278c880ee1edb7e96ee,,1,0,81,56,1,80
,,,,,,,,,,,,,,,,,,,,,,,,,,,,,,,,,,,,,,,,,o,1.381999969,PO,FALSE,,,,,,,164,patata,Catalan,Sounds/cat_patata.mp3,2020-06-12_20h48.08.412,TranslationElicitation_eng-prolific,3.2.4,MacIntel,60,5e85f278c880ee1edb7e96ee,,1,0,81,56,1,80
,,,,,,,,,,,,,,,,,,,,,,,,,,,,,,,,,,,,,,,,,t,1.447999954,POT,FALSE,,,,,,,164,patata,Catalan,Sounds/cat_patata.mp3,2020-06-12_20h48.08.412,TranslationElicitation_eng-prolific,3.2.4,MacIntel,60,5e85f278c880ee1edb7e96ee,,1,0,81,56,1,80
,,,,,,,,,,,,,,,,,,,,,,,,,,,,,,,,,,,,,,,,,a,1.582999945,POTA,FALSE,,,,,,,164,patata,Catalan,Sounds/cat_patata.mp3,2020-06-12_20h48.08.412,TranslationElicitation_eng-prolific,3.2.4,MacIntel,60,5e85f278c880ee1edb7e96ee,,1,0,81,56,1,80
,,,,,,,,,,,,,,,,,,,,,,,,,,,,,,,,,,,,,,,,,t,1.648999929,POTAT,FALSE,,,,,,,164,patata,Catalan,Sounds/cat_patata.mp3,2020-06-12_20h48.08.412,TranslationElicitation_eng-prolific,3.2.4,MacIntel,60,5e85f278c880ee1edb7e96ee,,1,0,81,56,1,80
,,,,,,,,,,,,,,,,,,,,,,,,,,,,,,,,,,,,,,,,,o,1.714999914,POTATO,FALSE,,,,,,,164,patata,Catalan,Sounds/cat_patata.mp3,2020-06-12_20h48.08.412,TranslationElicitation_eng-prolific,3.2.4,MacIntel,60,5e85f278c880ee1edb7e96ee,,1,0,81,56,1,80
,,,,,,,,,,,,,,,,,,,,,,,,,,,,,,,,,,,,,,,,,return,2.047999859,POTATO,FALSE,,,,,,,164,patata,Catalan,Sounds/cat_patata.mp3,2020-06-12_20h48.08.412,TranslationElicitation_eng-prolific,3.2.4,MacIntel,60,5e85f278c880ee1edb7e96ee,2.047999859,1,0,81,56,1,80
,,,,,,,,,,,,,,,,,,,,,,,,,,,,,,,,,,,,,,,,,,,,,,,,,,,164,patata,Catalan,Sounds/cat_patata.mp3,2020-06-12_20h48.08.412,TranslationElicitation_eng-prolific,3.2.4,MacIntel,60,5e85f278c880ee1edb7e96ee,,1,0,81,56,1,80
,,,,,,,,,,,,,,,,,,,,,,,,,,,,,,,,,,,,,,,,,b,2.383000135,B,FALSE,,,,,,,116,bolquer,Catalan,Sounds/cat_bolquer.mp3,2020-06-12_20h48.08.412,TranslationElicitation_eng-prolific,3.2.4,MacIntel,60,5e85f278c880ee1edb7e96ee,,1,0,81,11,1,80
,,,,,,,,,,,,,,,,,,,,,,,,,,,,,,,,,,,,,,,,,o,2.515000105,BO,FALSE,,,,,,,116,bolquer,Catalan,Sounds/cat_bolquer.mp3,2020-06-12_20h48.08.412,TranslationElicitation_eng-prolific,3.2.4,MacIntel,60,5e85f278c880ee1edb7e96ee,,1,0,81,11,1,80
,,,,,,,,,,,,,,,,,,,,,,,,,,,,,,,,,,,,,,,,,u,2.598999977,BOU,FALSE,,,,,,,116,bolquer,Catalan,Sounds/cat_bolquer.mp3,2020-06-12_20h48.08.412,TranslationElicitation_eng-prolific,3.2.4,MacIntel,60,5e85f278c880ee1edb7e96ee,,1,0,81,11,1,80
,,,,,,,,,,,,,,,,,,,,,,,,,,,,,,,,,,,,,,,,,q,2.697999954,BOUQ,FALSE,,,,,,,116,bolquer,Catalan,Sounds/cat_bolquer.mp3,2020-06-12_20h48.08.412,TranslationElicitation_eng-prolific,3.2.4,MacIntel,60,5e85f278c880ee1edb7e96ee,,1,0,81,11,1,80
,,,,,,,,,,,,,,,,,,,,,,,,,,,,,,,,,,,,,,,,,u,2.803999901,BOUQU,FALSE,,,,,,,116,bolquer,Catalan,Sounds/cat_bolquer.mp3,2020-06-12_20h48.08.412,TranslationElicitation_eng-prolific,3.2.4,MacIntel,60,5e85f278c880ee1edb7e96ee,,1,0,81,11,1,80
,,,,,,,,,,,,,,,,,,,,,,,,,,,,,,,,,,,,,,,,,e,2.898000002,BOUQUE,FALSE,,,,,,,116,bolquer,Catalan,Sounds/cat_bolquer.mp3,2020-06-12_20h48.08.412,TranslationElicitation_eng-prolific,3.2.4,MacIntel,60,5e85f278c880ee1edb7e96ee,,1,0,81,11,1,80
,,,,,,,,,,,,,,,,,,,,,,,,,,,,,,,,,,,,,,,,,t,3.065999985,BOUQUET,FALSE,,,,,,,116,bolquer,Catalan,Sounds/cat_bolquer.mp3,2020-06-12_20h48.08.412,TranslationElicitation_eng-prolific,3.2.4,MacIntel,60,5e85f278c880ee1edb7e96ee,,1,0,81,11,1,80
,,,,,,,,,,,,,,,,,,,,,,,,,,,,,,,,,,,,,,,,,return,3.315000057,BOUQUET,FALSE,,,,,,,116,bolquer,Catalan,Sounds/cat_bolquer.mp3,2020-06-12_20h48.08.412,TranslationElicitation_eng-prolific,3.2.4,MacIntel,60,5e85f278c880ee1edb7e96ee,3.315000057,1,0,81,11,1,80
,,,,,,,,,,,,,,,,,,,,,,,,,,,,,,,,,,,,,,,,,,,,,,,,,,,116,bolquer,Catalan,Sounds/cat_bolquer.mp3,2020-06-12_20h48.08.412,TranslationElicitation_eng-prolific,3.2.4,MacIntel,60,5e85f278c880ee1edb7e96ee,,1,0,81,11,1,80
,,,,,,,,,,,,,,,,,,,,,,,,,,,,,,,,,,,,,,,,,g,1.398999929,G,FALSE,,,,,,,139,galleda,Catalan,Sounds/cat_galleda.mp3,2020-06-12_20h48.08.412,TranslationElicitation_eng-prolific,3.2.4,MacIntel,60,5e85f278c880ee1edb7e96ee,,1,0,81,33,1,80
,,,,,,,,,,,,,,,,,,,,,,,,,,,,,,,,,,,,,,,,,a,1.600000143,GA,FALSE,,,,,,,139,galleda,Catalan,Sounds/cat_galleda.mp3,2020-06-12_20h48.08.412,TranslationElicitation_eng-prolific,3.2.4,MacIntel,60,5e85f278c880ee1edb7e96ee,,1,0,81,33,1,80
,,,,,,,,,,,,,,,,,,,,,,,,,,,,,,,,,,,,,,,,,r,1.650000095,GAR,FALSE,,,,,,,139,galleda,Catalan,Sounds/cat_galleda.mp3,2020-06-12_20h48.08.412,TranslationElicitation_eng-prolific,3.2.4,MacIntel,60,5e85f278c880ee1edb7e96ee,,1,0,81,33,1,80
,,,,,,,,,,,,,,,,,,,,,,,,,,,,,,,,,,,,,,,,,l,1.75,GARL,FALSE,,,,,,,139,galleda,Catalan,Sounds/cat_galleda.mp3,2020-06-12_20h48.08.412,TranslationElicitation_eng-prolific,3.2.4,MacIntel,60,5e85f278c880ee1edb7e96ee,,1,0,81,33,1,80
,,,,,,,,,,,,,,,,,,,,,,,,,,,,,,,,,,,,,,,,,i,1.832999945,GARLI,FALSE,,,,,,,139,galleda,Catalan,Sounds/cat_galleda.mp3,2020-06-12_20h48.08.412,TranslationElicitation_eng-prolific,3.2.4,MacIntel,60,5e85f278c880ee1edb7e96ee,,1,0,81,33,1,80
,,,,,,,,,,,,,,,,,,,,,,,,,,,,,,,,,,,,,,,,,c,2.032999992,GARLIC,FALSE,,,,,,,139,galleda,Catalan,Sounds/cat_galleda.mp3,2020-06-12_20h48.08.412,TranslationElicitation_eng-prolific,3.2.4,MacIntel,60,5e85f278c880ee1edb7e96ee,,1,0,81,33,1,80
,,,,,,,,,,,,,,,,,,,,,,,,,,,,,,,,,,,,,,,,,return,2.28399992,GARLIC,FALSE,,,,,,,139,galleda,Catalan,Sounds/cat_galleda.mp3,2020-06-12_20h48.08.412,TranslationElicitation_eng-prolific,3.2.4,MacIntel,60,5e85f278c880ee1edb7e96ee,2.28399992,1,0,81,33,1,80
,,,,,,,,,,,,,,,,,,,,,,,,,,,,,,,,,,,,,,,,,,,,,,,,,,,139,galleda,Catalan,Sounds/cat_galleda.mp3,2020-06-12_20h48.08.412,TranslationElicitation_eng-prolific,3.2.4,MacIntel,60,5e85f278c880ee1edb7e96ee,,1,0,81,33,1,80
,,,,,,,,,,,,,,,,,,,,,,,,,,,,,,,,,,,,,,,,,l,4.066000223,L,FALSE,,,,,,,144,gorra,Catalan,Sounds/cat_gorra.mp3,2020-06-12_20h48.08.412,TranslationElicitation_eng-prolific,3.2.4,MacIntel,60,5e85f278c880ee1edb7e96ee,,1,0,81,38,1,80
,,,,,,,,,,,,,,,,,,,,,,,,,,,,,,,,,,,,,,,,,a,4.1650002,LA,FALSE,,,,,,,144,gorra,Catalan,Sounds/cat_gorra.mp3,2020-06-12_20h48.08.412,TranslationElicitation_eng-prolific,3.2.4,MacIntel,60,5e85f278c880ee1edb7e96ee,,1,0,81,38,1,80
,,,,,,,,,,,,,,,,,,,,,,,,,,,,,,,,,,,,,,,,,r,4.249000072,LAR,FALSE,,,,,,,144,gorra,Catalan,Sounds/cat_gorra.mp3,2020-06-12_20h48.08.412,TranslationElicitation_eng-prolific,3.2.4,MacIntel,60,5e85f278c880ee1edb7e96ee,,1,0,81,38,1,80
,,,,,,,,,,,,,,,,,,,,,,,,,,,,,,,,,,,,,,,,,d,4.332000017,LARD,FALSE,,,,,,,144,gorra,Catalan,Sounds/cat_gorra.mp3,2020-06-12_20h48.08.412,TranslationElicitation_eng-prolific,3.2.4,MacIntel,60,5e85f278c880ee1edb7e96ee,,1,0,81,38,1,80
,,,,,,,,,,,,,,,,,,,,,,,,,,,,,,,,,,,,,,,,,return,4.550000191,LARD,FALSE,,,,,,,144,gorra,Catalan,Sounds/cat_gorra.mp3,2020-06-12_20h48.08.412,TranslationElicitation_eng-prolific,3.2.4,MacIntel,60,5e85f278c880ee1edb7e96ee,4.550000191,1,0,81,38,1,80
,,,,,,,,,,,,,,,,,,,,,,,,,,,,,,,,,,,,,,,,,,,,,,,,,,,144,gorra,Catalan,Sounds/cat_gorra.mp3,2020-06-12_20h48.08.412,TranslationElicitation_eng-prolific,3.2.4,MacIntel,60,5e85f278c880ee1edb7e96ee,,1,0,81,38,1,80
,,,,,,,,,,,,,,,,,,,,,,,,,,,,,,,,,,,,,,,,,t,1.76699996,T,FALSE,,,,,,,181,tobogan,Catalan,Sounds/cat_tobogan.mp3,2020-06-12_20h48.08.412,TranslationElicitation_eng-prolific,3.2.4,MacIntel,60,5e85f278c880ee1edb7e96ee,,1,0,81,72,1,80
,,,,,,,,,,,,,,,,,,,,,,,,,,,,,,,,,,,,,,,,,o,1.848999977,TO,FALSE,,,,,,,181,tobogan,Catalan,Sounds/cat_tobogan.mp3,2020-06-12_20h48.08.412,TranslationElicitation_eng-prolific,3.2.4,MacIntel,60,5e85f278c880ee1edb7e96ee,,1,0,81,72,1,80
,,,,,,,,,,,,,,,,,,,,,,,,,,,,,,,,,,,,,,,,,b,1.997999907,TOB,FALSE,,,,,,,181,tobogan,Catalan,Sounds/cat_tobogan.mp3,2020-06-12_20h48.08.412,TranslationElicitation_eng-prolific,3.2.4,MacIntel,60,5e85f278c880ee1edb7e96ee,,1,0,81,72,1,80
,,,,,,,,,,,,,,,,,,,,,,,,,,,,,,,,,,,,,,,,,o,2.105999947,TOBO,FALSE,,,,,,,181,tobogan,Catalan,Sounds/cat_tobogan.mp3,2020-06-12_20h48.08.412,TranslationElicitation_eng-prolific,3.2.4,MacIntel,60,5e85f278c880ee1edb7e96ee,,1,0,81,72,1,80
,,,,,,,,,,,,,,,,,,,,,,,,,,,,,,,,,,,,,,,,,g,2.198999882,TOBOG,FALSE,,,,,,,181,tobogan,Catalan,Sounds/cat_tobogan.mp3,2020-06-12_20h48.08.412,TranslationElicitation_eng-prolific,3.2.4,MacIntel,60,5e85f278c880ee1edb7e96ee,,1,0,81,72,1,80
,,,,,,,,,,,,,,,,,,,,,,,,,,,,,,,,,,,,,,,,,g,2.348999977,TOBOGG,FALSE,,,,,,,181,tobogan,Catalan,Sounds/cat_tobogan.mp3,2020-06-12_20h48.08.412,TranslationElicitation_eng-prolific,3.2.4,MacIntel,60,5e85f278c880ee1edb7e96ee,,1,0,81,72,1,80
,,,,,,,,,,,,,,,,,,,,,,,,,,,,,,,,,,,,,,,,,a,2.382999897,TOBOGGA,FALSE,,,,,,,181,tobogan,Catalan,Sounds/cat_tobogan.mp3,2020-06-12_20h48.08.412,TranslationElicitation_eng-prolific,3.2.4,MacIntel,60,5e85f278c880ee1edb7e96ee,,1,0,81,72,1,80
,,,,,,,,,,,,,,,,,,,,,,,,,,,,,,,,,,,,,,,,,n,2.457000017,TOBOGGAN,FALSE,,,,,,,181,tobogan,Catalan,Sounds/cat_tobogan.mp3,2020-06-12_20h48.08.412,TranslationElicitation_eng-prolific,3.2.4,MacIntel,60,5e85f278c880ee1edb7e96ee,,1,0,81,72,1,80
,,,,,,,,,,,,,,,,,,,,,,,,,,,,,,,,,,,,,,,,,return,2.78399992,TOBOGGAN,FALSE,,,,,,,181,tobogan,Catalan,Sounds/cat_tobogan.mp3,2020-06-12_20h48.08.412,TranslationElicitation_eng-prolific,3.2.4,MacIntel,60,5e85f278c880ee1edb7e96ee,2.78399992,1,0,81,72,1,80
,,,,,,,,,,,,,,,,,,,,,,,,,,,,,,,,,,,,,,,,,,,,,,,,,,,181,tobogan,Catalan,Sounds/cat_tobogan.mp3,2020-06-12_20h48.08.412,TranslationElicitation_eng-prolific,3.2.4,MacIntel,60,5e85f278c880ee1edb7e96ee,,1,0,81,72,1,80
,,,,,,,,,,,,,,,,,,,,,,,,,,,,,,,,,,,,,,,,,c,2,C,FALSE,,,,,,,125,colom,Catalan,Sounds/cat_colom.mp3,2020-06-12_20h48.08.412,TranslationElicitation_eng-prolific,3.2.4,MacIntel,60,5e85f278c880ee1edb7e96ee,,1,0,81,20,1,80
,,,,,,,,,,,,,,,,,,,,,,,,,,,,,,,,,,,,,,,,,o,2.082000017,CO,FALSE,,,,,,,125,colom,Catalan,Sounds/cat_colom.mp3,2020-06-12_20h48.08.412,TranslationElicitation_eng-prolific,3.2.4,MacIntel,60,5e85f278c880ee1edb7e96ee,,1,0,81,20,1,80
,,,,,,,,,,,,,,,,,,,,,,,,,,,,,,,,,,,,,,,,,l,2.267999887,COL,FALSE,,,,,,,125,colom,Catalan,Sounds/cat_colom.mp3,2020-06-12_20h48.08.412,TranslationElicitation_eng-prolific,3.2.4,MacIntel,60,5e85f278c880ee1edb7e96ee,,1,0,81,20,1,80
,,,,,,,,,,,,,,,,,,,,,,,,,,,,,,,,,,,,,,,,,u,2.632999897,COLU,FALSE,,,,,,,125,colom,Catalan,Sounds/cat_colom.mp3,2020-06-12_20h48.08.412,TranslationElicitation_eng-prolific,3.2.4,MacIntel,60,5e85f278c880ee1edb7e96ee,,1,0,81,20,1,80
,,,,,,,,,,,,,,,,,,,,,,,,,,,,,,,,,,,,,,,,,m,2.832000017,COLUM,FALSE,,,,,,,125,colom,Catalan,Sounds/cat_colom.mp3,2020-06-12_20h48.08.412,TranslationElicitation_eng-prolific,3.2.4,MacIntel,60,5e85f278c880ee1edb7e96ee,,1,0,81,20,1,80
,,,,,,,,,,,,,,,,,,,,,,,,,,,,,,,,,,,,,,,,,n,3.015999794,COLUMN,FALSE,,,,,,,125,colom,Catalan,Sounds/cat_colom.mp3,2020-06-12_20h48.08.412,TranslationElicitation_eng-prolific,3.2.4,MacIntel,60,5e85f278c880ee1edb7e96ee,,1,0,81,20,1,80
,,,,,,,,,,,,,,,,,,,,,,,,,,,,,,,,,,,,,,,,,return,3.282999992,COLUMN,FALSE,,,,,,,125,colom,Catalan,Sounds/cat_colom.mp3,2020-06-12_20h48.08.412,TranslationElicitation_eng-prolific,3.2.4,MacIntel,60,5e85f278c880ee1edb7e96ee,3.282999992,1,0,81,20,1,80
,,,,,,,,,,,,,,,,,,,,,,,,,,,,,,,,,,,,,,,,,,,,,,,,,,,125,colom,Catalan,Sounds/cat_colom.mp3,2020-06-12_20h48.08.412,TranslationElicitation_eng-prolific,3.2.4,MacIntel,60,5e85f278c880ee1edb7e96ee,,1,0,81,20,1,80
,,,,,,,,,,,,,,,,,,,,,,,,,,,,,,,,,,,,,,,,,g,1.48300004,G,FALSE,,,,,,,142,girafa,Catalan,Sounds/cat_girafa.mp3,2020-06-12_20h48.08.412,TranslationElicitation_eng-prolific,3.2.4,MacIntel,60,5e85f278c880ee1edb7e96ee,,1,0,81,36,1,80
,,,,,,,,,,,,,,,,,,,,,,,,,,,,,,,,,,,,,,,,,i,1.549000025,GI,FALSE,,,,,,,142,girafa,Catalan,Sounds/cat_girafa.mp3,2020-06-12_20h48.08.412,TranslationElicitation_eng-prolific,3.2.4,MacIntel,60,5e85f278c880ee1edb7e96ee,,1,0,81,36,1,80
,,,,,,,,,,,,,,,,,,,,,,,,,,,,,,,,,,,,,,,,,r,1.683000088,GIR,FALSE,,,,,,,142,girafa,Catalan,Sounds/cat_girafa.mp3,2020-06-12_20h48.08.412,TranslationElicitation_eng-prolific,3.2.4,MacIntel,60,5e85f278c880ee1edb7e96ee,,1,0,81,36,1,80
,,,,,,,,,,,,,,,,,,,,,,,,,,,,,,,,,,,,,,,,,a,1.749000072,GIRA,FALSE,,,,,,,142,girafa,Catalan,Sounds/cat_girafa.mp3,2020-06-12_20h48.08.412,TranslationElicitation_eng-prolific,3.2.4,MacIntel,60,5e85f278c880ee1edb7e96ee,,1,0,81,36,1,80
