consentKey.keys,consentKey.rt,languageL1Key.keys,languageL1Key.rt,languageL2,languageL2OralKey.keys,languageL2OralKey.rt,languageL2WrittenKey.keys,languageL2WrittenKey.rt,languageL3OralKey.keys,languageL3OralKey.rt,languageL3WrittenKey.keys,languageL3WrittenKey.rt,languageCatalanOralKey.keys,languageCatalanOralKey.rt,languageCatalanWrittenKey.keys,languageCatalanWrittenKey.rt,languageCatalanTimeKey.keys,languageCatalanTimeKey.rt,languageSpanishOralKey.keys,languageSpanishOralKey.rt,languageSpanishWrittenKey.keys,languageSpanishWrittenKey.rt,languageSpanishTimeKey.keys,languageSpanishTimeKey.rt,age,demoSexKey.keys,demoSexKey.rt,demoEducationKey.keys,demoEducationKey.rt,city,demoVisionKey.keys,demoVisionKey.rt,demoLanguageKey.keys,demoLanguageKey.rt,setupLocationKey.keys,setupLocationKey.rt,setupNoiseKey.keys,setupNoiseKey.rt,instructionsKeys.keys,instructionsKeys.rt,keyPressed,keyPressTime,inputText,error,trialsPracticeSpanish.thisRepN,trialsPracticeSpanish.thisTrialN,trialsPracticeSpanish.thisN,trialsPracticeSpanish.thisIndex,trialsPracticeSpanish.ran,trialsPracticeSpanish.order,trial_id,word,test_language,soundfile,date,expName,psychopyVersion,OS,frameRate,participant,trialOffset,trialsSpanish.thisRepN,trialsSpanish.thisTrialN,trialsSpanish.thisN,trialsSpanish.thisIndex,trialsSpanish.ran,trialsSpanish.order
space,4.84100008,e,8.383999825,,,,,,,,,,1,7.019999981,1,3.379999876,1,9.108999968,2,3.167999983,1,2.569000006,1,3.222000122,21,m,2.16899991,3,6.967999935,LICHFIELD,y,2.43599987,n,3.950999975,1,2.667999983,1,7.171999931,space,14.91099977,h,1.932999849,H,FALSE,1,0,5,3,1,4,70,ola,Spanish,Sounds/spa_ola.mp3,2020-06-24_18h03.34.618,TranslationElicitation_eng-prolific-spa,3.2.4,Win32,60,5e8f39008ed06f208d57df3b,,,,,,,
,,,,,,,,,,,,,,,,,,,,,,,,,,,,,,,,,,,,,,,,,e,2.23300004,HE,FALSE,1,0,5,3,1,4,70,ola,Spanish,Sounds/spa_ola.mp3,2020-06-24_18h03.34.618,TranslationElicitation_eng-prolific-spa,3.2.4,Win32,60,5e8f39008ed06f208d57df3b,,,,,,,
,,,,,,,,,,,,,,,,,,,,,,,,,,,,,,,,,,,,,,,,,l,2.366999865,HEL,FALSE,1,0,5,3,1,4,70,ola,Spanish,Sounds/spa_ola.mp3,2020-06-24_18h03.34.618,TranslationElicitation_eng-prolific-spa,3.2.4,Win32,60,5e8f39008ed06f208d57df3b,,,,,,,
,,,,,,,,,,,,,,,,,,,,,,,,,,,,,,,,,,,,,,,,,l,2.5,HELL,FALSE,1,0,5,3,1,4,70,ola,Spanish,Sounds/spa_ola.mp3,2020-06-24_18h03.34.618,TranslationElicitation_eng-prolific-spa,3.2.4,Win32,60,5e8f39008ed06f208d57df3b,,,,,,,
,,,,,,,,,,,,,,,,,,,,,,,,,,,,,,,,,,,,,,,,,o,2.599999905,HELLO,FALSE,1,0,5,3,1,4,70,ola,Spanish,Sounds/spa_ola.mp3,2020-06-24_18h03.34.618,TranslationElicitation_eng-prolific-spa,3.2.4,Win32,60,5e8f39008ed06f208d57df3b,,,,,,,
,,,,,,,,,,,,,,,,,,,,,,,,,,,,,,,,,,,,,,,,,return,2.965999842,HELLO,FALSE,1,0,5,3,1,4,70,ola,Spanish,Sounds/spa_ola.mp3,2020-06-24_18h03.34.618,TranslationElicitation_eng-prolific-spa,3.2.4,Win32,60,5e8f39008ed06f208d57df3b,2.965999842,,,,,,
,,,,,,,,,,,,,,,,,,,,,,,,,,,,,,,,,,,,,,,,,,,,,1,0,5,3,1,4,70,ola,Spanish,Sounds/spa_ola.mp3,2020-06-24_18h03.34.618,TranslationElicitation_eng-prolific-spa,3.2.4,Win32,60,5e8f39008ed06f208d57df3b,,,,,,,
,,,,,,,,,,,,,,,,,,,,,,,,,,,,,,,,,,,,,,,,,h,3.198999882,H,FALSE,1,0,5,0,1,4,1,arbol,Spanish,Sounds/spa_arbol.mp3,2020-06-24_18h03.34.618,TranslationElicitation_eng-prolific-spa,3.2.4,Win32,60,5e8f39008ed06f208d57df3b,,,,,,,
,,,,,,,,,,,,,,,,,,,,,,,,,,,,,,,,,,,,,,,,,a,3.282999992,HA,FALSE,1,0,5,0,1,4,1,arbol,Spanish,Sounds/spa_arbol.mp3,2020-06-24_18h03.34.618,TranslationElicitation_eng-prolific-spa,3.2.4,Win32,60,5e8f39008ed06f208d57df3b,,,,,,,
,,,,,,,,,,,,,,,,,,,,,,,,,,,,,,,,,,,,,,,,,r,3.598999977,HAR,FALSE,1,0,5,0,1,4,1,arbol,Spanish,Sounds/spa_arbol.mp3,2020-06-24_18h03.34.618,TranslationElicitation_eng-prolific-spa,3.2.4,Win32,60,5e8f39008ed06f208d57df3b,,,,,,,
,,,,,,,,,,,,,,,,,,,,,,,,,,,,,,,,,,,,,,,,,i,3.815999985,HARI,FALSE,1,0,5,0,1,4,1,arbol,Spanish,Sounds/spa_arbol.mp3,2020-06-24_18h03.34.618,TranslationElicitation_eng-prolific-spa,3.2.4,Win32,60,5e8f39008ed06f208d57df3b,,,,,,,
,,,,,,,,,,,,,,,,,,,,,,,,,,,,,,,,,,,,,,,,,b,4.065999985,HARIB,FALSE,1,0,5,0,1,4,1,arbol,Spanish,Sounds/spa_arbol.mp3,2020-06-24_18h03.34.618,TranslationElicitation_eng-prolific-spa,3.2.4,Win32,60,5e8f39008ed06f208d57df3b,,,,,,,
,,,,,,,,,,,,,,,,,,,,,,,,,,,,,,,,,,,,,,,,,o,4.132999897,HARIBO,FALSE,1,0,5,0,1,4,1,arbol,Spanish,Sounds/spa_arbol.mp3,2020-06-24_18h03.34.618,TranslationElicitation_eng-prolific-spa,3.2.4,Win32,60,5e8f39008ed06f208d57df3b,,,,,,,
,,,,,,,,,,,,,,,,,,,,,,,,,,,,,,,,,,,,,,,,,return,4.500999928,HARIBO,FALSE,1,0,5,0,1,4,1,arbol,Spanish,Sounds/spa_arbol.mp3,2020-06-24_18h03.34.618,TranslationElicitation_eng-prolific-spa,3.2.4,Win32,60,5e8f39008ed06f208d57df3b,4.500999928,,,,,,
,,,,,,,,,,,,,,,,,,,,,,,,,,,,,,,,,,,,,,,,,,,,,1,0,5,0,1,4,1,arbol,Spanish,Sounds/spa_arbol.mp3,2020-06-24_18h03.34.618,TranslationElicitation_eng-prolific-spa,3.2.4,Win32,60,5e8f39008ed06f208d57df3b,,,,,,,
,,,,,,,,,,,,,,,,,,,,,,,,,,,,,,,,,,,,,,,,,t,4.050000191,T,FALSE,1,0,5,4,1,4,96,tigre,Spanish,Sounds/spa_tigre.mp3,2020-06-24_18h03.34.618,TranslationElicitation_eng-prolific-spa,3.2.4,Win32,60,5e8f39008ed06f208d57df3b,,,,,,,
,,,,,,,,,,,,,,,,,,,,,,,,,,,,,,,,,,,,,,,,,i,4.183000088,TI,FALSE,1,0,5,4,1,4,96,tigre,Spanish,Sounds/spa_tigre.mp3,2020-06-24_18h03.34.618,TranslationElicitation_eng-prolific-spa,3.2.4,Win32,60,5e8f39008ed06f208d57df3b,,,,,,,
,,,,,,,,,,,,,,,,,,,,,,,,,,,,,,,,,,,,,,,,,g,4.417000055,TIG,FALSE,1,0,5,4,1,4,96,tigre,Spanish,Sounds/spa_tigre.mp3,2020-06-24_18h03.34.618,TranslationElicitation_eng-prolific-spa,3.2.4,Win32,60,5e8f39008ed06f208d57df3b,,,,,,,
,,,,,,,,,,,,,,,,,,,,,,,,,,,,,,,,,,,,,,,,,r,4.48300004,TIGR,FALSE,1,0,5,4,1,4,96,tigre,Spanish,Sounds/spa_tigre.mp3,2020-06-24_18h03.34.618,TranslationElicitation_eng-prolific-spa,3.2.4,Win32,60,5e8f39008ed06f208d57df3b,,,,,,,
,,,,,,,,,,,,,,,,,,,,,,,,,,,,,,,,,,,,,,,,,e,4.550000191,TIGRE,FALSE,1,0,5,4,1,4,96,tigre,Spanish,Sounds/spa_tigre.mp3,2020-06-24_18h03.34.618,TranslationElicitation_eng-prolific-spa,3.2.4,Win32,60,5e8f39008ed06f208d57df3b,,,,,,,
,,,,,,,,,,,,,,,,,,,,,,,,,,,,,,,,,,,,,,,,,return,4.833000183,TIGRE,FALSE,1,0,5,4,1,4,96,tigre,Spanish,Sounds/spa_tigre.mp3,2020-06-24_18h03.34.618,TranslationElicitation_eng-prolific-spa,3.2.4,Win32,60,5e8f39008ed06f208d57df3b,4.833000183,,,,,,
,,,,,,,,,,,,,,,,,,,,,,,,,,,,,,,,,,,,,,,,,,,,,1,0,5,4,1,4,96,tigre,Spanish,Sounds/spa_tigre.mp3,2020-06-24_18h03.34.618,TranslationElicitation_eng-prolific-spa,3.2.4,Win32,60,5e8f39008ed06f208d57df3b,,,,,,,
,,,,,,,,,,,,,,,,,,,,,,,,,,,,,,,,,,,,,,,,,j,2.25,J,FALSE,1,0,5,2,1,4,26,chaqueta,Spanish,Sounds/spa_chaqueta.mp3,2020-06-24_18h03.34.618,TranslationElicitation_eng-prolific-spa,3.2.4,Win32,60,5e8f39008ed06f208d57df3b,,,,,,,
,,,,,,,,,,,,,,,,,,,,,,,,,,,,,,,,,,,,,,,,,a,2.349999905,JA,FALSE,1,0,5,2,1,4,26,chaqueta,Spanish,Sounds/spa_chaqueta.mp3,2020-06-24_18h03.34.618,TranslationElicitation_eng-prolific-spa,3.2.4,Win32,60,5e8f39008ed06f208d57df3b,,,,,,,
,,,,,,,,,,,,,,,,,,,,,,,,,,,,,,,,,,,,,,,,,c,2.449999809,JAC,FALSE,1,0,5,2,1,4,26,chaqueta,Spanish,Sounds/spa_chaqueta.mp3,2020-06-24_18h03.34.618,TranslationElicitation_eng-prolific-spa,3.2.4,Win32,60,5e8f39008ed06f208d57df3b,,,,,,,
,,,,,,,,,,,,,,,,,,,,,,,,,,,,,,,,,,,,,,,,,k,2.53399992,JACK,FALSE,1,0,5,2,1,4,26,chaqueta,Spanish,Sounds/spa_chaqueta.mp3,2020-06-24_18h03.34.618,TranslationElicitation_eng-prolific-spa,3.2.4,Win32,60,5e8f39008ed06f208d57df3b,,,,,,,
,,,,,,,,,,,,,,,,,,,,,,,,,,,,,,,,,,,,,,,,,e,2.699999809,JACKE,FALSE,1,0,5,2,1,4,26,chaqueta,Spanish,Sounds/spa_chaqueta.mp3,2020-06-24_18h03.34.618,TranslationElicitation_eng-prolific-spa,3.2.4,Win32,60,5e8f39008ed06f208d57df3b,,,,,,,
,,,,,,,,,,,,,,,,,,,,,,,,,,,,,,,,,,,,,,,,,t,2.78399992,JACKET,FALSE,1,0,5,2,1,4,26,chaqueta,Spanish,Sounds/spa_chaqueta.mp3,2020-06-24_18h03.34.618,TranslationElicitation_eng-prolific-spa,3.2.4,Win32,60,5e8f39008ed06f208d57df3b,,,,,,,
,,,,,,,,,,,,,,,,,,,,,,,,,,,,,,,,,,,,,,,,,return,3.149999857,JACKET,FALSE,1,0,5,2,1,4,26,chaqueta,Spanish,Sounds/spa_chaqueta.mp3,2020-06-24_18h03.34.618,TranslationElicitation_eng-prolific-spa,3.2.4,Win32,60,5e8f39008ed06f208d57df3b,3.149999857,,,,,,
,,,,,,,,,,,,,,,,,,,,,,,,,,,,,,,,,,,,,,,,,,,,,1,0,5,2,1,4,26,chaqueta,Spanish,Sounds/spa_chaqueta.mp3,2020-06-24_18h03.34.618,TranslationElicitation_eng-prolific-spa,3.2.4,Win32,60,5e8f39008ed06f208d57df3b,,,,,,,
,,,,,,,,,,,,,,,,,,,,,,,,,,,,,,,,,,,,,,,,,c,2.082999945,C,FALSE,1,0,5,1,1,4,30,corona,Spanish,Sounds/spa_corona.mp3,2020-06-24_18h03.34.618,TranslationElicitation_eng-prolific-spa,3.2.4,Win32,60,5e8f39008ed06f208d57df3b,,,,,,,
,,,,,,,,,,,,,,,,,,,,,,,,,,,,,,,,,,,,,,,,,o,2.217000008,CO,FALSE,1,0,5,1,1,4,30,corona,Spanish,Sounds/spa_corona.mp3,2020-06-24_18h03.34.618,TranslationElicitation_eng-prolific-spa,3.2.4,Win32,60,5e8f39008ed06f208d57df3b,,,,,,,
,,,,,,,,,,,,,,,,,,,,,,,,,,,,,,,,,,,,,,,,,r,2.317000151,COR,FALSE,1,0,5,1,1,4,30,corona,Spanish,Sounds/spa_corona.mp3,2020-06-24_18h03.34.618,TranslationElicitation_eng-prolific-spa,3.2.4,Win32,60,5e8f39008ed06f208d57df3b,,,,,,,
,,,,,,,,,,,,,,,,,,,,,,,,,,,,,,,,,,,,,,,,,o,2.417000055,CORO,FALSE,1,0,5,1,1,4,30,corona,Spanish,Sounds/spa_corona.mp3,2020-06-24_18h03.34.618,TranslationElicitation_eng-prolific-spa,3.2.4,Win32,60,5e8f39008ed06f208d57df3b,,,,,,,
,,,,,,,,,,,,,,,,,,,,,,,,,,,,,,,,,,,,,,,,,n,2.667000055,CORON,FALSE,1,0,5,1,1,4,30,corona,Spanish,Sounds/spa_corona.mp3,2020-06-24_18h03.34.618,TranslationElicitation_eng-prolific-spa,3.2.4,Win32,60,5e8f39008ed06f208d57df3b,,,,,,,
,,,,,,,,,,,,,,,,,,,,,,,,,,,,,,,,,,,,,,,,,a,2.75,CORONA,FALSE,1,0,5,1,1,4,30,corona,Spanish,Sounds/spa_corona.mp3,2020-06-24_18h03.34.618,TranslationElicitation_eng-prolific-spa,3.2.4,Win32,60,5e8f39008ed06f208d57df3b,,,,,,,
,,,,,,,,,,,,,,,,,,,,,,,,,,,,,,,,,,,,,,,,,return,3.183000088,CORONA,FALSE,1,0,5,1,1,4,30,corona,Spanish,Sounds/spa_corona.mp3,2020-06-24_18h03.34.618,TranslationElicitation_eng-prolific-spa,3.2.4,Win32,60,5e8f39008ed06f208d57df3b,3.183000088,,,,,,
,,,,,,,,,,,,,,,,,,,,,,,,,,,,,,,,,,,,,,,,,,,,,1,0,5,1,1,4,30,corona,Spanish,Sounds/spa_corona.mp3,2020-06-24_18h03.34.618,TranslationElicitation_eng-prolific-spa,3.2.4,Win32,60,5e8f39008ed06f208d57df3b,,,,,,,
,,,,,,,,,,,,,,,,,,,,,,,,,,,,,,,,,,,,,,,,,t,3.365999937,T,FALSE,,,,,,,22,cepillo,Spanish,Sounds/spa_cepillo.mp3,2020-06-24_18h03.34.618,TranslationElicitation_eng-prolific-spa,3.2.4,Win32,60,5e8f39008ed06f208d57df3b,,1,0,98,20,1,97
,,,,,,,,,,,,,,,,,,,,,,,,,,,,,,,,,,,,,,,,,o,3.799000025,TO,FALSE,,,,,,,22,cepillo,Spanish,Sounds/spa_cepillo.mp3,2020-06-24_18h03.34.618,TranslationElicitation_eng-prolific-spa,3.2.4,Win32,60,5e8f39008ed06f208d57df3b,,1,0,98,20,1,97
,,,,,,,,,,,,,,,,,,,,,,,,,,,,,,,,,,,,,,,,,r,3.96600008,TOR,FALSE,,,,,,,22,cepillo,Spanish,Sounds/spa_cepillo.mp3,2020-06-24_18h03.34.618,TranslationElicitation_eng-prolific-spa,3.2.4,Win32,60,5e8f39008ed06f208d57df3b,,1,0,98,20,1,97
,,,,,,,,,,,,,,,,,,,,,,,,,,,,,,,,,,,,,,,,,t,4.032999992,TORT,FALSE,,,,,,,22,cepillo,Spanish,Sounds/spa_cepillo.mp3,2020-06-24_18h03.34.618,TranslationElicitation_eng-prolific-spa,3.2.4,Win32,60,5e8f39008ed06f208d57df3b,,1,0,98,20,1,97
,,,,,,,,,,,,,,,,,,,,,,,,,,,,,,,,,,,,,,,,,o,4.348999977,TORTO,FALSE,,,,,,,22,cepillo,Spanish,Sounds/spa_cepillo.mp3,2020-06-24_18h03.34.618,TranslationElicitation_eng-prolific-spa,3.2.4,Win32,60,5e8f39008ed06f208d57df3b,,1,0,98,20,1,97
,,,,,,,,,,,,,,,,,,,,,,,,,,,,,,,,,,,,,,,,,i,4.398999929,TORTOI,FALSE,,,,,,,22,cepillo,Spanish,Sounds/spa_cepillo.mp3,2020-06-24_18h03.34.618,TranslationElicitation_eng-prolific-spa,3.2.4,Win32,60,5e8f39008ed06f208d57df3b,,1,0,98,20,1,97
,,,,,,,,,,,,,,,,,,,,,,,,,,,,,,,,,,,,,,,,,s,4.632999897,TORTOIS,FALSE,,,,,,,22,cepillo,Spanish,Sounds/spa_cepillo.mp3,2020-06-24_18h03.34.618,TranslationElicitation_eng-prolific-spa,3.2.4,Win32,60,5e8f39008ed06f208d57df3b,,1,0,98,20,1,97
,,,,,,,,,,,,,,,,,,,,,,,,,,,,,,,,,,,,,,,,,e,4.667999983,TORTOISE,FALSE,,,,,,,22,cepillo,Spanish,Sounds/spa_cepillo.mp3,2020-06-24_18h03.34.618,TranslationElicitation_eng-prolific-spa,3.2.4,Win32,60,5e8f39008ed06f208d57df3b,,1,0,98,20,1,97
,,,,,,,,,,,,,,,,,,,,,,,,,,,,,,,,,,,,,,,,,return,5.066999912,TORTOISE,FALSE,,,,,,,22,cepillo,Spanish,Sounds/spa_cepillo.mp3,2020-06-24_18h03.34.618,TranslationElicitation_eng-prolific-spa,3.2.4,Win32,60,5e8f39008ed06f208d57df3b,5.066999912,1,0,98,20,1,97
,,,,,,,,,,,,,,,,,,,,,,,,,,,,,,,,,,,,,,,,,,,,,,,,,,,22,cepillo,Spanish,Sounds/spa_cepillo.mp3,2020-06-24_18h03.34.618,TranslationElicitation_eng-prolific-spa,3.2.4,Win32,60,5e8f39008ed06f208d57df3b,,1,0,98,20,1,97
,,,,,,,,,,,,,,,,,,,,,,,,,,,,,,,,,,,,,,,,,s,1.98300004,S,FALSE,,,,,,,93,sol,Spanish,Sounds/spa_sol.mp3,2020-06-24_18h03.34.618,TranslationElicitation_eng-prolific-spa,3.2.4,Win32,60,5e8f39008ed06f208d57df3b,,1,0,98,88,1,97
,,,,,,,,,,,,,,,,,,,,,,,,,,,,,,,,,,,,,,,,,u,2.098999977,SU,FALSE,,,,,,,93,sol,Spanish,Sounds/spa_sol.mp3,2020-06-24_18h03.34.618,TranslationElicitation_eng-prolific-spa,3.2.4,Win32,60,5e8f39008ed06f208d57df3b,,1,0,98,88,1,97
,,,,,,,,,,,,,,,,,,,,,,,,,,,,,,,,,,,,,,,,,n,2.148999929,SUN,FALSE,,,,,,,93,sol,Spanish,Sounds/spa_sol.mp3,2020-06-24_18h03.34.618,TranslationElicitation_eng-prolific-spa,3.2.4,Win32,60,5e8f39008ed06f208d57df3b,,1,0,98,88,1,97
,,,,,,,,,,,,,,,,,,,,,,,,,,,,,,,,,,,,,,,,,return,2.532999992,SUN,FALSE,,,,,,,93,sol,Spanish,Sounds/spa_sol.mp3,2020-06-24_18h03.34.618,TranslationElicitation_eng-prolific-spa,3.2.4,Win32,60,5e8f39008ed06f208d57df3b,2.532999992,1,0,98,88,1,97
,,,,,,,,,,,,,,,,,,,,,,,,,,,,,,,,,,,,,,,,,,,,,,,,,,,93,sol,Spanish,Sounds/spa_sol.mp3,2020-06-24_18h03.34.618,TranslationElicitation_eng-prolific-spa,3.2.4,Win32,60,5e8f39008ed06f208d57df3b,,1,0,98,88,1,97
,,,,,,,,,,,,,,,,,,,,,,,,,,,,,,,,,,,,,,,,,l,2,L,FALSE,,,,,,,87,platano,Spanish,Sounds/spa_platano.mp3,2020-06-24_18h03.34.618,TranslationElicitation_eng-prolific-spa,3.2.4,Win32,60,5e8f39008ed06f208d57df3b,,1,0,98,82,1,97
,,,,,,,,,,,,,,,,,,,,,,,,,,,,,,,,,,,,,,,,,a,2.532999992,LA,FALSE,,,,,,,87,platano,Spanish,Sounds/spa_platano.mp3,2020-06-24_18h03.34.618,TranslationElicitation_eng-prolific-spa,3.2.4,Win32,60,5e8f39008ed06f208d57df3b,,1,0,98,82,1,97
,,,,,,,,,,,,,,,,,,,,,,,,,,,,,,,,,,,,,,,,,t,2.865999937,LAT,FALSE,,,,,,,87,platano,Spanish,Sounds/spa_platano.mp3,2020-06-24_18h03.34.618,TranslationElicitation_eng-prolific-spa,3.2.4,Win32,60,5e8f39008ed06f208d57df3b,,1,0,98,82,1,97
,,,,,,,,,,,,,,,,,,,,,,,,,,,,,,,,,,,,,,,,,i,2.98300004,LATI,FALSE,,,,,,,87,platano,Spanish,Sounds/spa_platano.mp3,2020-06-24_18h03.34.618,TranslationElicitation_eng-prolific-spa,3.2.4,Win32,60,5e8f39008ed06f208d57df3b,,1,0,98,82,1,97
,,,,,,,,,,,,,,,,,,,,,,,,,,,,,,,,,,,,,,,,,n,3.032999992,LATIN,FALSE,,,,,,,87,platano,Spanish,Sounds/spa_platano.mp3,2020-06-24_18h03.34.618,TranslationElicitation_eng-prolific-spa,3.2.4,Win32,60,5e8f39008ed06f208d57df3b,,1,0,98,82,1,97
,,,,,,,,,,,,,,,,,,,,,,,,,,,,,,,,,,,,,,,,,return,3.582999945,LATIN,FALSE,,,,,,,87,platano,Spanish,Sounds/spa_platano.mp3,2020-06-24_18h03.34.618,TranslationElicitation_eng-prolific-spa,3.2.4,Win32,60,5e8f39008ed06f208d57df3b,3.582999945,1,0,98,82,1,97
,,,,,,,,,,,,,,,,,,,,,,,,,,,,,,,,,,,,,,,,,,,,,,,,,,,87,platano,Spanish,Sounds/spa_platano.mp3,2020-06-24_18h03.34.618,TranslationElicitation_eng-prolific-spa,3.2.4,Win32,60,5e8f39008ed06f208d57df3b,,1,0,98,82,1,97
,,,,,,,,,,,,,,,,,,,,,,,,,,,,,,,,,,,,,,,,,t,2.200000048,T,FALSE,,,,,,,101,tren,Spanish,Sounds/spa_tren.mp3,2020-06-24_18h03.34.618,TranslationElicitation_eng-prolific-spa,3.2.4,Win32,60,5e8f39008ed06f208d57df3b,,1,0,98,95,1,97
,,,,,,,,,,,,,,,,,,,,,,,,,,,,,,,,,,,,,,,,,r,2.266000032,TR,FALSE,,,,,,,101,tren,Spanish,Sounds/spa_tren.mp3,2020-06-24_18h03.34.618,TranslationElicitation_eng-prolific-spa,3.2.4,Win32,60,5e8f39008ed06f208d57df3b,,1,0,98,95,1,97
,,,,,,,,,,,,,,,,,,,,,,,,,,,,,,,,,,,,,,,,,a,2.516000032,TRA,FALSE,,,,,,,101,tren,Spanish,Sounds/spa_tren.mp3,2020-06-24_18h03.34.618,TranslationElicitation_eng-prolific-spa,3.2.4,Win32,60,5e8f39008ed06f208d57df3b,,1,0,98,95,1,97
,,,,,,,,,,,,,,,,,,,,,,,,,,,,,,,,,,,,,,,,,i,2.600000143,TRAI,FALSE,,,,,,,101,tren,Spanish,Sounds/spa_tren.mp3,2020-06-24_18h03.34.618,TranslationElicitation_eng-prolific-spa,3.2.4,Win32,60,5e8f39008ed06f208d57df3b,,1,0,98,95,1,97
,,,,,,,,,,,,,,,,,,,,,,,,,,,,,,,,,,,,,,,,,n,2.650000095,TRAIN,FALSE,,,,,,,101,tren,Spanish,Sounds/spa_tren.mp3,2020-06-24_18h03.34.618,TranslationElicitation_eng-prolific-spa,3.2.4,Win32,60,5e8f39008ed06f208d57df3b,,1,0,98,95,1,97
,,,,,,,,,,,,,,,,,,,,,,,,,,,,,,,,,,,,,,,,,return,2.96600008,TRAIN,FALSE,,,,,,,101,tren,Spanish,Sounds/spa_tren.mp3,2020-06-24_18h03.34.618,TranslationElicitation_eng-prolific-spa,3.2.4,Win32,60,5e8f39008ed06f208d57df3b,2.96600008,1,0,98,95,1,97
,,,,,,,,,,,,,,,,,,,,,,,,,,,,,,,,,,,,,,,,,,,,,,,,,,,101,tren,Spanish,Sounds/spa_tren.mp3,2020-06-24_18h03.34.618,TranslationElicitation_eng-prolific-spa,3.2.4,Win32,60,5e8f39008ed06f208d57df3b,,1,0,98,95,1,97
,,,,,,,,,,,,,,,,,,,,,,,,,,,,,,,,,,,,,,,,,b,2.217000008,B,FALSE,,,,,,,8,bol,Spanish,Sounds/spa_bol.mp3,2020-06-24_18h03.34.618,TranslationElicitation_eng-prolific-spa,3.2.4,Win32,60,5e8f39008ed06f208d57df3b,,1,0,98,6,1,97
,,,,,,,,,,,,,,,,,,,,,,,,,,,,,,,,,,,,,,,,,a,2.48300004,BA,FALSE,,,,,,,8,bol,Spanish,Sounds/spa_bol.mp3,2020-06-24_18h03.34.618,TranslationElicitation_eng-prolific-spa,3.2.4,Win32,60,5e8f39008ed06f208d57df3b,,1,0,98,6,1,97
,,,,,,,,,,,,,,,,,,,,,,,,,,,,,,,,,,,,,,,,,l,2.599999905,BAL,FALSE,,,,,,,8,bol,Spanish,Sounds/spa_bol.mp3,2020-06-24_18h03.34.618,TranslationElicitation_eng-prolific-spa,3.2.4,Win32,60,5e8f39008ed06f208d57df3b,,1,0,98,6,1,97
,,,,,,,,,,,,,,,,,,,,,,,,,,,,,,,,,,,,,,,,,l,2.717000008,BALL,FALSE,,,,,,,8,bol,Spanish,Sounds/spa_bol.mp3,2020-06-24_18h03.34.618,TranslationElicitation_eng-prolific-spa,3.2.4,Win32,60,5e8f39008ed06f208d57df3b,,1,0,98,6,1,97
,,,,,,,,,,,,,,,,,,,,,,,,,,,,,,,,,,,,,,,,,return,3.450000048,BALL,FALSE,,,,,,,8,bol,Spanish,Sounds/spa_bol.mp3,2020-06-24_18h03.34.618,TranslationElicitation_eng-prolific-spa,3.2.4,Win32,60,5e8f39008ed06f208d57df3b,3.450000048,1,0,98,6,1,97
,,,,,,,,,,,,,,,,,,,,,,,,,,,,,,,,,,,,,,,,,,,,,,,,,,,8,bol,Spanish,Sounds/spa_bol.mp3,2020-06-24_18h03.34.618,TranslationElicitation_eng-prolific-spa,3.2.4,Win32,60,5e8f39008ed06f208d57df3b,,1,0,98,6,1,97
,,,,,,,,,,,,,,,,,,,,,,,,,,,,,,,,,,,,,,,,,m,4.51699996,M,FALSE,,,,,,,65,mono,Spanish,Sounds/spa_mono.mp3,2020-06-24_18h03.34.618,TranslationElicitation_eng-prolific-spa,3.2.4,Win32,60,5e8f39008ed06f208d57df3b,,1,0,98,61,1,97
,,,,,,,,,,,,,,,,,,,,,,,,,,,,,,,,,,,,,,,,,o,4.566999912,MO,FALSE,,,,,,,65,mono,Spanish,Sounds/spa_mono.mp3,2020-06-24_18h03.34.618,TranslationElicitation_eng-prolific-spa,3.2.4,Win32,60,5e8f39008ed06f208d57df3b,,1,0,98,61,1,97
,,,,,,,,,,,,,,,,,,,,,,,,,,,,,,,,,,,,,,,,,n,4.715999842,MON,FALSE,,,,,,,65,mono,Spanish,Sounds/spa_mono.mp3,2020-06-24_18h03.34.618,TranslationElicitation_eng-prolific-spa,3.2.4,Win32,60,5e8f39008ed06f208d57df3b,,1,0,98,61,1,97
,,,,,,,,,,,,,,,,,,,,,,,,,,,,,,,,,,,,,,,,,o,4.73300004,MONO,FALSE,,,,,,,65,mono,Spanish,Sounds/spa_mono.mp3,2020-06-24_18h03.34.618,TranslationElicitation_eng-prolific-spa,3.2.4,Win32,60,5e8f39008ed06f208d57df3b,,1,0,98,61,1,97
,,,,,,,,,,,,,,,,,,,,,,,,,,,,,,,,,,,,,,,,,return,5.003000021,MONO,FALSE,,,,,,,65,mono,Spanish,Sounds/spa_mono.mp3,2020-06-24_18h03.34.618,TranslationElicitation_eng-prolific-spa,3.2.4,Win32,60,5e8f39008ed06f208d57df3b,5.003000021,1,0,98,61,1,97
,,,,,,,,,,,,,,,,,,,,,,,,,,,,,,,,,,,,,,,,,,,,,,,,,,,65,mono,Spanish,Sounds/spa_mono.mp3,2020-06-24_18h03.34.618,TranslationElicitation_eng-prolific-spa,3.2.4,Win32,60,5e8f39008ed06f208d57df3b,,1,0,98,61,1,97
,,,,,,,,,,,,,,,,,,,,,,,,,,,,,,,,,,,,,,,,,h,4.516000032,H,FALSE,,,,,,,85,pierna,Spanish,Sounds/spa_pierna.mp3,2020-06-24_18h03.34.618,TranslationElicitation_eng-prolific-spa,3.2.4,Win32,60,5e8f39008ed06f208d57df3b,,1,0,98,80,1,97
,,,,,,,,,,,,,,,,,,,,,,,,,,,,,,,,,,,,,,,,,i,4.615999937,HI,FALSE,,,,,,,85,pierna,Spanish,Sounds/spa_pierna.mp3,2020-06-24_18h03.34.618,TranslationElicitation_eng-prolific-spa,3.2.4,Win32,60,5e8f39008ed06f208d57df3b,,1,0,98,80,1,97
,,,,,,,,,,,,,,,,,,,,,,,,,,,,,,,,,,,,,,,,,l,4.950000048,HIL,FALSE,,,,,,,85,pierna,Spanish,Sounds/spa_pierna.mp3,2020-06-24_18h03.34.618,TranslationElicitation_eng-prolific-spa,3.2.4,Win32,60,5e8f39008ed06f208d57df3b,,1,0,98,80,1,97
,,,,,,,,,,,,,,,,,,,,,,,,,,,,,,,,,,,,,,,,,l,5.082999945,HILL,FALSE,,,,,,,85,pierna,Spanish,Sounds/spa_pierna.mp3,2020-06-24_18h03.34.618,TranslationElicitation_eng-prolific-spa,3.2.4,Win32,60,5e8f39008ed06f208d57df3b,,1,0,98,80,1,97
,,,,,,,,,,,,,,,,,,,,,,,,,,,,,,,,,,,,,,,,,return,5.486000061,HILL,FALSE,,,,,,,85,pierna,Spanish,Sounds/spa_pierna.mp3,2020-06-24_18h03.34.618,TranslationElicitation_eng-prolific-spa,3.2.4,Win32,60,5e8f39008ed06f208d57df3b,5.486000061,1,0,98,80,1,97
,,,,,,,,,,,,,,,,,,,,,,,,,,,,,,,,,,,,,,,,,,,,,,,,,,,85,pierna,Spanish,Sounds/spa_pierna.mp3,2020-06-24_18h03.34.618,TranslationElicitation_eng-prolific-spa,3.2.4,Win32,60,5e8f39008ed06f208d57df3b,,1,0,98,80,1,97
,,,,,,,,,,,,,,,,,,,,,,,,,,,,,,,,,,,,,,,,,m,3.982999802,M,FALSE,,,,,,,66,moto,Spanish,Sounds/spa_moto.mp3,2020-06-24_18h03.34.618,TranslationElicitation_eng-prolific-spa,3.2.4,Win32,60,5e8f39008ed06f208d57df3b,,1,0,98,62,1,97
,,,,,,,,,,,,,,,,,,,,,,,,,,,,,,,,,,,,,,,,,o,4.015999794,MO,FALSE,,,,,,,66,moto,Spanish,Sounds/spa_moto.mp3,2020-06-24_18h03.34.618,TranslationElicitation_eng-prolific-spa,3.2.4,Win32,60,5e8f39008ed06f208d57df3b,,1,0,98,62,1,97
,,,,,,,,,,,,,,,,,,,,,,,,,,,,,,,,,,,,,,,,,t,4.165999889,MOT,FALSE,,,,,,,66,moto,Spanish,Sounds/spa_moto.mp3,2020-06-24_18h03.34.618,TranslationElicitation_eng-prolific-spa,3.2.4,Win32,60,5e8f39008ed06f208d57df3b,,1,0,98,62,1,97
,,,,,,,,,,,,,,,,,,,,,,,,,,,,,,,,,,,,,,,,,o,4.265999794,MOTO,FALSE,,,,,,,66,moto,Spanish,Sounds/spa_moto.mp3,2020-06-24_18h03.34.618,TranslationElicitation_eng-prolific-spa,3.2.4,Win32,60,5e8f39008ed06f208d57df3b,,1,0,98,62,1,97
,,,,,,,,,,,,,,,,,,,,,,,,,,,,,,,,,,,,,,,,,r,4.349999905,MOTOR,FALSE,,,,,,,66,moto,Spanish,Sounds/spa_moto.mp3,2020-06-24_18h03.34.618,TranslationElicitation_eng-prolific-spa,3.2.4,Win32,60,5e8f39008ed06f208d57df3b,,1,0,98,62,1,97
,,,,,,,,,,,,,,,,,,,,,,,,,,,,,,,,,,,,,,,,,return,4.515999794,MOTOR,FALSE,,,,,,,66,moto,Spanish,Sounds/spa_moto.mp3,2020-06-24_18h03.34.618,TranslationElicitation_eng-prolific-spa,3.2.4,Win32,60,5e8f39008ed06f208d57df3b,4.515999794,1,0,98,62,1,97
,,,,,,,,,,,,,,,,,,,,,,,,,,,,,,,,,,,,,,,,,,,,,,,,,,,66,moto,Spanish,Sounds/spa_moto.mp3,2020-06-24_18h03.34.618,TranslationElicitation_eng-prolific-spa,3.2.4,Win32,60,5e8f39008ed06f208d57df3b,,1,0,98,62,1,97
,,,,,,,,,,,,,,,,,,,,,,,,,,,,,,,,,,,,,,,,,b,2.183000088,B,FALSE,,,,,,,11,boton,Spanish,Sounds/spa_boton.mp3,2020-06-24_18h03.34.618,TranslationElicitation_eng-prolific-spa,3.2.4,Win32,60,5e8f39008ed06f208d57df3b,,1,0,98,9,1,97
,,,,,,,,,,,,,,,,,,,,,,,,,,,,,,,,,,,,,,,,,u,2.23300004,BU,FALSE,,,,,,,11,boton,Spanish,Sounds/spa_boton.mp3,2020-06-24_18h03.34.618,TranslationElicitation_eng-prolific-spa,3.2.4,Win32,60,5e8f39008ed06f208d57df3b,,1,0,98,9,1,97
,,,,,,,,,,,,,,,,,,,,,,,,,,,,,,,,,,,,,,,,,t,2.367000103,BUT,FALSE,,,,,,,11,boton,Spanish,Sounds/spa_boton.mp3,2020-06-24_18h03.34.618,TranslationElicitation_eng-prolific-spa,3.2.4,Win32,60,5e8f39008ed06f208d57df3b,,1,0,98,9,1,97
,,,,,,,,,,,,,,,,,,,,,,,,,,,,,,,,,,,,,,,,,t,2.5,BUTT,FALSE,,,,,,,11,boton,Spanish,Sounds/spa_boton.mp3,2020-06-24_18h03.34.618,TranslationElicitation_eng-prolific-spa,3.2.4,Win32,60,5e8f39008ed06f208d57df3b,,1,0,98,9,1,97
,,,,,,,,,,,,,,,,,,,,,,,,,,,,,,,,,,,,,,,,,o,2.617000103,BUTTO,FALSE,,,,,,,11,boton,Spanish,Sounds/spa_boton.mp3,2020-06-24_18h03.34.618,TranslationElicitation_eng-prolific-spa,3.2.4,Win32,60,5e8f39008ed06f208d57df3b,,1,0,98,9,1,97
,,,,,,,,,,,,,,,,,,,,,,,,,,,,,,,,,,,,,,,,,n,2.717000008,BUTTON,FALSE,,,,,,,11,boton,Spanish,Sounds/spa_boton.mp3,2020-06-24_18h03.34.618,TranslationElicitation_eng-prolific-spa,3.2.4,Win32,60,5e8f39008ed06f208d57df3b,,1,0,98,9,1,97
,,,,,,,,,,,,,,,,,,,,,,,,,,,,,,,,,,,,,,,,,return,3.035000086,BUTTON,FALSE,,,,,,,11,boton,Spanish,Sounds/spa_boton.mp3,2020-06-24_18h03.34.618,TranslationElicitation_eng-prolific-spa,3.2.4,Win32,60,5e8f39008ed06f208d57df3b,3.035000086,1,0,98,9,1,97
,,,,,,,,,,,,,,,,,,,,,,,,,,,,,,,,,,,,,,,,,,,,,,,,,,,11,boton,Spanish,Sounds/spa_boton.mp3,2020-06-24_18h03.34.618,TranslationElicitation_eng-prolific-spa,3.2.4,Win32,60,5e8f39008ed06f208d57df3b,,1,0,98,9,1,97
,,,,,,,,,,,,,,,,,,,,,,,,,,,,,,,,,,,,,,,,,b,5.03399992,B,FALSE,,,,,,,3,barco,Spanish,Sounds/spa_barco.mp3,2020-06-24_18h03.34.618,TranslationElicitation_eng-prolific-spa,3.2.4,Win32,60,5e8f39008ed06f208d57df3b,,1,0,98,1,1,97
,,,,,,,,,,,,,,,,,,,,,,,,,,,,,,,,,,,,,,,,,a,5.349999905,BA,FALSE,,,,,,,3,barco,Spanish,Sounds/spa_barco.mp3,2020-06-24_18h03.34.618,TranslationElicitation_eng-prolific-spa,3.2.4,Win32,60,5e8f39008ed06f208d57df3b,,1,0,98,1,1,97
,,,,,,,,,,,,,,,,,,,,,,,,,,,,,,,,,,,,,,,,,r,5.433999777,BAR,FALSE,,,,,,,3,barco,Spanish,Sounds/spa_barco.mp3,2020-06-24_18h03.34.618,TranslationElicitation_eng-prolific-spa,3.2.4,Win32,60,5e8f39008ed06f208d57df3b,,1,0,98,1,1,97
,,,,,,,,,,,,,,,,,,,,,,,,,,,,,,,,,,,,,,,,,k,5.983999968,BARK,FALSE,,,,,,,3,barco,Spanish,Sounds/spa_barco.mp3,2020-06-24_18h03.34.618,TranslationElicitation_eng-prolific-spa,3.2.4,Win32,60,5e8f39008ed06f208d57df3b,,1,0,98,1,1,97
,,,,,,,,,,,,,,,,,,,,,,,,,,,,,,,,,,,,,,,,,return,6.233999968,BARK,FALSE,,,,,,,3,barco,Spanish,Sounds/spa_barco.mp3,2020-06-24_18h03.34.618,TranslationElicitation_eng-prolific-spa,3.2.4,Win32,60,5e8f39008ed06f208d57df3b,6.233999968,1,0,98,1,1,97
,,,,,,,,,,,,,,,,,,,,,,,,,,,,,,,,,,,,,,,,,,,,,,,,,,,3,barco,Spanish,Sounds/spa_barco.mp3,2020-06-24_18h03.34.618,TranslationElicitation_eng-prolific-spa,3.2.4,Win32,60,5e8f39008ed06f208d57df3b,,1,0,98,1,1,97
,,,,,,,,,,,,,,,,,,,,,,,,,,,,,,,,,,,,,,,,,c,5.800000191,C,FALSE,,,,,,,19,camiseta,Spanish,Sounds/spa_camiseta.mp3,2020-06-24_18h03.34.618,TranslationElicitation_eng-prolific-spa,3.2.4,Win32,60,5e8f39008ed06f208d57df3b,,1,0,98,17,1,97
,,,,,,,,,,,,,,,,,,,,,,,,,,,,,,,,,,,,,,,,,a,5.900000095,CA,FALSE,,,,,,,19,camiseta,Spanish,Sounds/spa_camiseta.mp3,2020-06-24_18h03.34.618,TranslationElicitation_eng-prolific-spa,3.2.4,Win32,60,5e8f39008ed06f208d57df3b,,1,0,98,17,1,97
,,,,,,,,,,,,,,,,,,,,,,,,,,,,,,,,,,,,,,,,,m,6.067000151,CAM,FALSE,,,,,,,19,camiseta,Spanish,Sounds/spa_camiseta.mp3,2020-06-24_18h03.34.618,TranslationElicitation_eng-prolific-spa,3.2.4,Win32,60,5e8f39008ed06f208d57df3b,,1,0,98,17,1,97
,,,,,,,,,,,,,,,,,,,,,,,,,,,,,,,,,,,,,,,,,e,6.284000158,CAME,FALSE,,,,,,,19,camiseta,Spanish,Sounds/spa_camiseta.mp3,2020-06-24_18h03.34.618,TranslationElicitation_eng-prolific-spa,3.2.4,Win32,60,5e8f39008ed06f208d57df3b,,1,0,98,17,1,97
,,,,,,,,,,,,,,,,,,,,,,,,,,,,,,,,,,,,,,,,,r,6.367000103,CAMER,FALSE,,,,,,,19,camiseta,Spanish,Sounds/spa_camiseta.mp3,2020-06-24_18h03.34.618,TranslationElicitation_eng-prolific-spa,3.2.4,Win32,60,5e8f39008ed06f208d57df3b,,1,0,98,17,1,97
,,,,,,,,,,,,,,,,,,,,,,,,,,,,,,,,,,,,,,,,,a,6.550000191,CAMERA,FALSE,,,,,,,19,camiseta,Spanish,Sounds/spa_camiseta.mp3,2020-06-24_18h03.34.618,TranslationElicitation_eng-prolific-spa,3.2.4,Win32,60,5e8f39008ed06f208d57df3b,,1,0,98,17,1,97
,,,,,,,,,,,,,,,,,,,,,,,,,,,,,,,,,,,,,,,,,return,6.700000048,CAMERA,FALSE,,,,,,,19,camiseta,Spanish,Sounds/spa_camiseta.mp3,2020-06-24_18h03.34.618,TranslationElicitation_eng-prolific-spa,3.2.4,Win32,60,5e8f39008ed06f208d57df3b,6.700000048,1,0,98,17,1,97
,,,,,,,,,,,,,,,,,,,,,,,,,,,,,,,,,,,,,,,,,,,,,,,,,,,19,camiseta,Spanish,Sounds/spa_camiseta.mp3,2020-06-24_18h03.34.618,TranslationElicitation_eng-prolific-spa,3.2.4,Win32,60,5e8f39008ed06f208d57df3b,,1,0,98,17,1,97
,,,,,,,,,,,,,,,,,,,,,,,,,,,,,,,,,,,,,,,,,b,3.601000071,B,FALSE,,,,,,,61,mariposa,Spanish,Sounds/spa_mariposa.mp3,2020-06-24_18h03.34.618,TranslationElicitation_eng-prolific-spa,3.2.4,Win32,60,5e8f39008ed06f208d57df3b,,1,0,98,57,1,97
,,,,,,,,,,,,,,,,,,,,,,,,,,,,,,,,,,,,,,,,,u,3.650000095,BU,FALSE,,,,,,,61,mariposa,Spanish,Sounds/spa_mariposa.mp3,2020-06-24_18h03.34.618,TranslationElicitation_eng-prolific-spa,3.2.4,Win32,60,5e8f39008ed06f208d57df3b,,1,0,98,57,1,97
,,,,,,,,,,,,,,,,,,,,,,,,,,,,,,,,,,,,,,,,,t,3.867000103,BUT,FALSE,,,,,,,61,mariposa,Spanish,Sounds/spa_mariposa.mp3,2020-06-24_18h03.34.618,TranslationElicitation_eng-prolific-spa,3.2.4,Win32,60,5e8f39008ed06f208d57df3b,,1,0,98,57,1,97
,,,,,,,,,,,,,,,,,,,,,,,,,,,,,,,,,,,,,,,,,t,3.98300004,BUTT,FALSE,,,,,,,61,mariposa,Spanish,Sounds/spa_mariposa.mp3,2020-06-24_18h03.34.618,TranslationElicitation_eng-prolific-spa,3.2.4,Win32,60,5e8f39008ed06f208d57df3b,,1,0,98,57,1,97
,,,,,,,,,,,,,,,,,,,,,,,,,,,,,,,,,,,,,,,,,e,4.133000135,BUTTE,FALSE,,,,,,,61,mariposa,Spanish,Sounds/spa_mariposa.mp3,2020-06-24_18h03.34.618,TranslationElicitation_eng-prolific-spa,3.2.4,Win32,60,5e8f39008ed06f208d57df3b,,1,0,98,57,1,97
,,,,,,,,,,,,,,,,,,,,,,,,,,,,,,,,,,,,,,,,,r,4.184999943,BUTTER,FALSE,,,,,,,61,mariposa,Spanish,Sounds/spa_mariposa.mp3,2020-06-24_18h03.34.618,TranslationElicitation_eng-prolific-spa,3.2.4,Win32,60,5e8f39008ed06f208d57df3b,,1,0,98,57,1,97
,,,,,,,,,,,,,,,,,,,,,,,,,,,,,,,,,,,,,,,,,f,4.535000086,BUTTERF,FALSE,,,,,,,61,mariposa,Spanish,Sounds/spa_mariposa.mp3,2020-06-24_18h03.34.618,TranslationElicitation_eng-prolific-spa,3.2.4,Win32,60,5e8f39008ed06f208d57df3b,,1,0,98,57,1,97
,,,,,,,,,,,,,,,,,,,,,,,,,,,,,,,,,,,,,,,,,y,4.832999945,BUTTERFY,FALSE,,,,,,,61,mariposa,Spanish,Sounds/spa_mariposa.mp3,2020-06-24_18h03.34.618,TranslationElicitation_eng-prolific-spa,3.2.4,Win32,60,5e8f39008ed06f208d57df3b,,1,0,98,57,1,97
,,,,,,,,,,,,,,,,,,,,,,,,,,,,,,,,,,,,,,,,,backspace,5.170000076,BUTTERF,TRUE,,,,,,,61,mariposa,Spanish,Sounds/spa_mariposa.mp3,2020-06-24_18h03.34.618,TranslationElicitation_eng-prolific-spa,3.2.4,Win32,60,5e8f39008ed06f208d57df3b,,1,0,98,57,1,97
,,,,,,,,,,,,,,,,,,,,,,,,,,,,,,,,,,,,,,,,,l,5.601999998,BUTTERFL,TRUE,,,,,,,61,mariposa,Spanish,Sounds/spa_mariposa.mp3,2020-06-24_18h03.34.618,TranslationElicitation_eng-prolific-spa,3.2.4,Win32,60,5e8f39008ed06f208d57df3b,,1,0,98,57,1,97
,,,,,,,,,,,,,,,,,,,,,,,,,,,,,,,,,,,,,,,,,y,5.650000095,BUTTERFLY,TRUE,,,,,,,61,mariposa,Spanish,Sounds/spa_mariposa.mp3,2020-06-24_18h03.34.618,TranslationElicitation_eng-prolific-spa,3.2.4,Win32,60,5e8f39008ed06f208d57df3b,,1,0,98,57,1,97
,,,,,,,,,,,,,,,,,,,,,,,,,,,,,,,,,,,,,,,,,return,6.299999952,BUTTERFLY,TRUE,,,,,,,61,mariposa,Spanish,Sounds/spa_mariposa.mp3,2020-06-24_18h03.34.618,TranslationElicitation_eng-prolific-spa,3.2.4,Win32,60,5e8f39008ed06f208d57df3b,6.299999952,1,0,98,57,1,97
,,,,,,,,,,,,,,,,,,,,,,,,,,,,,,,,,,,,,,,,,,,,,,,,,,,61,mariposa,Spanish,Sounds/spa_mariposa.mp3,2020-06-24_18h03.34.618,TranslationElicitation_eng-prolific-spa,3.2.4,Win32,60,5e8f39008ed06f208d57df3b,,1,0,98,57,1,97
,,,,,,,,,,,,,,,,,,,,,,,,,,,,,,,,,,,,,,,,,g,5.766000032,G,FALSE,,,,,,,46,grifo,Spanish,Sounds/spa_grifo.mp3,2020-06-24_18h03.34.618,TranslationElicitation_eng-prolific-spa,3.2.4,Win32,60,5e8f39008ed06f208d57df3b,,1,0,98,42,1,97
,,,,,,,,,,,,,,,,,,,,,,,,,,,,,,,,,,,,,,,,,r,6.065999985,GR,FALSE,,,,,,,46,grifo,Spanish,Sounds/spa_grifo.mp3,2020-06-24_18h03.34.618,TranslationElicitation_eng-prolific-spa,3.2.4,Win32,60,5e8f39008ed06f208d57df3b,,1,0,98,42,1,97
,,,,,,,,,,,,,,,,,,,,,,,,,,,,,,,,,,,,,,,,,e,6.133000135,GRE,FALSE,,,,,,,46,grifo,Spanish,Sounds/spa_grifo.mp3,2020-06-24_18h03.34.618,TranslationElicitation_eng-prolific-spa,3.2.4,Win32,60,5e8f39008ed06f208d57df3b,,1,0,98,42,1,97
,,,,,,,,,,,,,,,,,,,,,,,,,,,,,,,,,,,,,,,,,e,6.333000183,GREE,FALSE,,,,,,,46,grifo,Spanish,Sounds/spa_grifo.mp3,2020-06-24_18h03.34.618,TranslationElicitation_eng-prolific-spa,3.2.4,Win32,60,5e8f39008ed06f208d57df3b,,1,0,98,42,1,97
,,,,,,,,,,,,,,,,,,,,,,,,,,,,,,,,,,,,,,,,,d,6.550000191,GREED,FALSE,,,,,,,46,grifo,Spanish,Sounds/spa_grifo.mp3,2020-06-24_18h03.34.618,TranslationElicitation_eng-prolific-spa,3.2.4,Win32,60,5e8f39008ed06f208d57df3b,,1,0,98,42,1,97
,,,,,,,,,,,,,,,,,,,,,,,,,,,,,,,,,,,,,,,,,return,6.667000055,GREED,FALSE,,,,,,,46,grifo,Spanish,Sounds/spa_grifo.mp3,2020-06-24_18h03.34.618,TranslationElicitation_eng-prolific-spa,3.2.4,Win32,60,5e8f39008ed06f208d57df3b,6.667000055,1,0,98,42,1,97
,,,,,,,,,,,,,,,,,,,,,,,,,,,,,,,,,,,,,,,,,,,,,,,,,,,46,grifo,Spanish,Sounds/spa_grifo.mp3,2020-06-24_18h03.34.618,TranslationElicitation_eng-prolific-spa,3.2.4,Win32,60,5e8f39008ed06f208d57df3b,,1,0,98,42,1,97
,,,,,,,,,,,,,,,,,,,,,,,,,,,,,,,,,,,,,,,,,m,3.116999865,M,FALSE,,,,,,,60,manzana,Spanish,Sounds/spa_manzana.mp3,2020-06-24_18h03.34.618,TranslationElicitation_eng-prolific-spa,3.2.4,Win32,60,5e8f39008ed06f208d57df3b,,1,0,98,56,1,97
,,,,,,,,,,,,,,,,,,,,,,,,,,,,,,,,,,,,,,,,,o,3.167000055,MO,FALSE,,,,,,,60,manzana,Spanish,Sounds/spa_manzana.mp3,2020-06-24_18h03.34.618,TranslationElicitation_eng-prolific-spa,3.2.4,Win32,60,5e8f39008ed06f208d57df3b,,1,0,98,56,1,97
,,,,,,,,,,,,,,,,,,,,,,,,,,,,,,,,,,,,,,,,,n,3.299999952,MON,FALSE,,,,,,,60,manzana,Spanish,Sounds/spa_manzana.mp3,2020-06-24_18h03.34.618,TranslationElicitation_eng-prolific-spa,3.2.4,Win32,60,5e8f39008ed06f208d57df3b,,1,0,98,56,1,97
,,,,,,,,,,,,,,,,,,,,,,,,,,,,,,,,,,,,,,,,,a,3.467000008,MONA,FALSE,,,,,,,60,manzana,Spanish,Sounds/spa_manzana.mp3,2020-06-24_18h03.34.618,TranslationElicitation_eng-prolific-spa,3.2.4,Win32,60,5e8f39008ed06f208d57df3b,,1,0,98,56,1,97
,,,,,,,,,,,,,,,,,,,,,,,,,,,,,,,,,,,,,,,,,t,3.51699996,MONAT,FALSE,,,,,,,60,manzana,Spanish,Sounds/spa_manzana.mp3,2020-06-24_18h03.34.618,TranslationElicitation_eng-prolific-spa,3.2.4,Win32,60,5e8f39008ed06f208d57df3b,,1,0,98,56,1,97
,,,,,,,,,,,,,,,,,,,,,,,,,,,,,,,,,,,,,,,,,a,3.684000015,MONATA,FALSE,,,,,,,60,manzana,Spanish,Sounds/spa_manzana.mp3,2020-06-24_18h03.34.618,TranslationElicitation_eng-prolific-spa,3.2.4,Win32,60,5e8f39008ed06f208d57df3b,,1,0,98,56,1,97
,,,,,,,,,,,,,,,,,,,,,,,,,,,,,,,,,,,,,,,,,backspace,4.182999849,MONAT,TRUE,,,,,,,60,manzana,Spanish,Sounds/spa_manzana.mp3,2020-06-24_18h03.34.618,TranslationElicitation_eng-prolific-spa,3.2.4,Win32,60,5e8f39008ed06f208d57df3b,,1,0,98,56,1,97
,,,,,,,,,,,,,,,,,,,,,,,,,,,,,,,,,,,,,,,,,backspace,4.299999952,MONA,TRUE,,,,,,,60,manzana,Spanish,Sounds/spa_manzana.mp3,2020-06-24_18h03.34.618,TranslationElicitation_eng-prolific-spa,3.2.4,Win32,60,5e8f39008ed06f208d57df3b,,1,0,98,56,1,97
,,,,,,,,,,,,,,,,,,,,,,,,,,,,,,,,,,,,,,,,,backspace,4.48300004,MON,TRUE,,,,,,,60,manzana,Spanish,Sounds/spa_manzana.mp3,2020-06-24_18h03.34.618,TranslationElicitation_eng-prolific-spa,3.2.4,Win32,60,5e8f39008ed06f208d57df3b,,1,0,98,56,1,97
,,,,,,,,,,,,,,,,,,,,,,,,,,,,,,,,,,,,,,,,,t,5.085000038,MONT,TRUE,,,,,,,60,manzana,Spanish,Sounds/spa_manzana.mp3,2020-06-24_18h03.34.618,TranslationElicitation_eng-prolific-spa,3.2.4,Win32,60,5e8f39008ed06f208d57df3b,,1,0,98,56,1,97
,,,,,,,,,,,,,,,,,,,,,,,,,,,,,,,,,,,,,,,,,a,5.26699996,MONTA,TRUE,,,,,,,60,manzana,Spanish,Sounds/spa_manzana.mp3,2020-06-24_18h03.34.618,TranslationElicitation_eng-prolific-spa,3.2.4,Win32,60,5e8f39008ed06f208d57df3b,,1,0,98,56,1,97
,,,,,,,,,,,,,,,,,,,,,,,,,,,,,,,,,,,,,,,,,n,5.349999905,MONTAN,TRUE,,,,,,,60,manzana,Spanish,Sounds/spa_manzana.mp3,2020-06-24_18h03.34.618,TranslationElicitation_eng-prolific-spa,3.2.4,Win32,60,5e8f39008ed06f208d57df3b,,1,0,98,56,1,97
,,,,,,,,,,,,,,,,,,,,,,,,,,,,,,,,,,,,,,,,,a,5.417000055,MONTANA,TRUE,,,,,,,60,manzana,Spanish,Sounds/spa_manzana.mp3,2020-06-24_18h03.34.618,TranslationElicitation_eng-prolific-spa,3.2.4,Win32,60,5e8f39008ed06f208d57df3b,,1,0,98,56,1,97
,,,,,,,,,,,,,,,,,,,,,,,,,,,,,,,,,,,,,,,,,return,5.803999901,MONTANA,TRUE,,,,,,,60,manzana,Spanish,Sounds/spa_manzana.mp3,2020-06-24_18h03.34.618,TranslationElicitation_eng-prolific-spa,3.2.4,Win32,60,5e8f39008ed06f208d57df3b,5.803999901,1,0,98,56,1,97
,,,,,,,,,,,,,,,,,,,,,,,,,,,,,,,,,,,,,,,,,,,,,,,,,,,60,manzana,Spanish,Sounds/spa_manzana.mp3,2020-06-24_18h03.34.618,TranslationElicitation_eng-prolific-spa,3.2.4,Win32,60,5e8f39008ed06f208d57df3b,,1,0,98,56,1,97
,,,,,,,,,,,,,,,,,,,,,,,,,,,,,,,,,,,,,,,,,b,5.71600008,B,FALSE,,,,,,,4,biberon,Spanish,Sounds/spa_biberon.mp3,2020-06-24_18h03.34.618,TranslationElicitation_eng-prolific-spa,3.2.4,Win32,60,5e8f39008ed06f208d57df3b,,1,0,98,2,1,97
,,,,,,,,,,,,,,,,,,,,,,,,,,,,,,,,,,,,,,,,,i,5.815999985,BI,FALSE,,,,,,,4,biberon,Spanish,Sounds/spa_biberon.mp3,2020-06-24_18h03.34.618,TranslationElicitation_eng-prolific-spa,3.2.4,Win32,60,5e8f39008ed06f208d57df3b,,1,0,98,2,1,97
,,,,,,,,,,,,,,,,,,,,,,,,,,,,,,,,,,,,,,,,,l,5.98300004,BIL,FALSE,,,,,,,4,biberon,Spanish,Sounds/spa_biberon.mp3,2020-06-24_18h03.34.618,TranslationElicitation_eng-prolific-spa,3.2.4,Win32,60,5e8f39008ed06f208d57df3b,,1,0,98,2,1,97
,,,,,,,,,,,,,,,,,,,,,,,,,,,,,,,,,,,,,,,,,l,6.115999937,BILL,FALSE,,,,,,,4,biberon,Spanish,Sounds/spa_biberon.mp3,2020-06-24_18h03.34.618,TranslationElicitation_eng-prolific-spa,3.2.4,Win32,60,5e8f39008ed06f208d57df3b,,1,0,98,2,1,97
,,,,,,,,,,,,,,,,,,,,,,,,,,,,,,,,,,,,,,,,,return,6.385999918,BILL,FALSE,,,,,,,4,biberon,Spanish,Sounds/spa_biberon.mp3,2020-06-24_18h03.34.618,TranslationElicitation_eng-prolific-spa,3.2.4,Win32,60,5e8f39008ed06f208d57df3b,6.385999918,1,0,98,2,1,97
,,,,,,,,,,,,,,,,,,,,,,,,,,,,,,,,,,,,,,,,,,,,,,,,,,,4,biberon,Spanish,Sounds/spa_biberon.mp3,2020-06-24_18h03.34.618,TranslationElicitation_eng-prolific-spa,3.2.4,Win32,60,5e8f39008ed06f208d57df3b,,1,0,98,2,1,97
,,,,,,,,,,,,,,,,,,,,,,,,,,,,,,,,,,,,,,,,,b,6.667000055,B,FALSE,,,,,,,12,brazo,Spanish,Sounds/spa_brazo.mp3,2020-06-24_18h03.34.618,TranslationElicitation_eng-prolific-spa,3.2.4,Win32,60,5e8f39008ed06f208d57df3b,,1,0,98,10,1,97
,,,,,,,,,,,,,,,,,,,,,,,,,,,,,,,,,,,,,,,,,a,6.75,BA,FALSE,,,,,,,12,brazo,Spanish,Sounds/spa_brazo.mp3,2020-06-24_18h03.34.618,TranslationElicitation_eng-prolific-spa,3.2.4,Win32,60,5e8f39008ed06f208d57df3b,,1,0,98,10,1,97
,,,,,,,,,,,,,,,,,,,,,,,,,,,,,,,,,,,,,,,,,c,6.950000048,BAC,FALSE,,,,,,,12,brazo,Spanish,Sounds/spa_brazo.mp3,2020-06-24_18h03.34.618,TranslationElicitation_eng-prolific-spa,3.2.4,Win32,60,5e8f39008ed06f208d57df3b,,1,0,98,10,1,97
,,,,,,,,,,,,,,,,,,,,,,,,,,,,,,,,,,,,,,,,,o,7.066000223,BACO,FALSE,,,,,,,12,brazo,Spanish,Sounds/spa_brazo.mp3,2020-06-24_18h03.34.618,TranslationElicitation_eng-prolific-spa,3.2.4,Win32,60,5e8f39008ed06f208d57df3b,,1,0,98,10,1,97
,,,,,,,,,,,,,,,,,,,,,,,,,,,,,,,,,,,,,,,,,n,7.133000135,BACON,FALSE,,,,,,,12,brazo,Spanish,Sounds/spa_brazo.mp3,2020-06-24_18h03.34.618,TranslationElicitation_eng-prolific-spa,3.2.4,Win32,60,5e8f39008ed06f208d57df3b,,1,0,98,10,1,97
,,,,,,,,,,,,,,,,,,,,,,,,,,,,,,,,,,,,,,,,,return,7.38499999,BACON,FALSE,,,,,,,12,brazo,Spanish,Sounds/spa_brazo.mp3,2020-06-24_18h03.34.618,TranslationElicitation_eng-prolific-spa,3.2.4,Win32,60,5e8f39008ed06f208d57df3b,7.38499999,1,0,98,10,1,97
,,,,,,,,,,,,,,,,,,,,,,,,,,,,,,,,,,,,,,,,,,,,,,,,,,,12,brazo,Spanish,Sounds/spa_brazo.mp3,2020-06-24_18h03.34.618,TranslationElicitation_eng-prolific-spa,3.2.4,Win32,60,5e8f39008ed06f208d57df3b,,1,0,98,10,1,97
,,,,,,,,,,,,,,,,,,,,,,,,,,,,,,,,,,,,,,,,,m,2.132999897,M,FALSE,,,,,,,58,luna,Spanish,Sounds/spa_luna.mp3,2020-06-24_18h03.34.618,TranslationElicitation_eng-prolific-spa,3.2.4,Win32,60,5e8f39008ed06f208d57df3b,,1,0,98,54,1,97
,,,,,,,,,,,,,,,,,,,,,,,,,,,,,,,,,,,,,,,,,o,2.25,MO,FALSE,,,,,,,58,luna,Spanish,Sounds/spa_luna.mp3,2020-06-24_18h03.34.618,TranslationElicitation_eng-prolific-spa,3.2.4,Win32,60,5e8f39008ed06f208d57df3b,,1,0,98,54,1,97
,,,,,,,,,,,,,,,,,,,,,,,,,,,,,,,,,,,,,,,,,o,2.399999857,MOO,FALSE,,,,,,,58,luna,Spanish,Sounds/spa_luna.mp3,2020-06-24_18h03.34.618,TranslationElicitation_eng-prolific-spa,3.2.4,Win32,60,5e8f39008ed06f208d57df3b,,1,0,98,54,1,97
,,,,,,,,,,,,,,,,,,,,,,,,,,,,,,,,,,,,,,,,,n,2.516000032,MOON,FALSE,,,,,,,58,luna,Spanish,Sounds/spa_luna.mp3,2020-06-24_18h03.34.618,TranslationElicitation_eng-prolific-spa,3.2.4,Win32,60,5e8f39008ed06f208d57df3b,,1,0,98,54,1,97
,,,,,,,,,,,,,,,,,,,,,,,,,,,,,,,,,,,,,,,,,return,2.782999992,MOON,FALSE,,,,,,,58,luna,Spanish,Sounds/spa_luna.mp3,2020-06-24_18h03.34.618,TranslationElicitation_eng-prolific-spa,3.2.4,Win32,60,5e8f39008ed06f208d57df3b,2.782999992,1,0,98,54,1,97
,,,,,,,,,,,,,,,,,,,,,,,,,,,,,,,,,,,,,,,,,,,,,,,,,,,58,luna,Spanish,Sounds/spa_luna.mp3,2020-06-24_18h03.34.618,TranslationElicitation_eng-prolific-spa,3.2.4,Win32,60,5e8f39008ed06f208d57df3b,,1,0,98,54,1,97
,,,,,,,,,,,,,,,,,,,,,,,,,,,,,,,,,,,,,,,,,e,2.150000095,E,FALSE,,,,,,,36,estrella,Spanish,Sounds/spa_estrella.mp3,2020-06-24_18h03.34.618,TranslationElicitation_eng-prolific-spa,3.2.4,Win32,60,5e8f39008ed06f208d57df3b,,1,0,98,32,1,97
,,,,,,,,,,,,,,,,,,,,,,,,,,,,,,,,,,,,,,,,,s,2.700000048,ES,FALSE,,,,,,,36,estrella,Spanish,Sounds/spa_estrella.mp3,2020-06-24_18h03.34.618,TranslationElicitation_eng-prolific-spa,3.2.4,Win32,60,5e8f39008ed06f208d57df3b,,1,0,98,32,1,97
,,,,,,,,,,,,,,,,,,,,,,,,,,,,,,,,,,,,,,,,,t,2.882999897,EST,FALSE,,,,,,,36,estrella,Spanish,Sounds/spa_estrella.mp3,2020-06-24_18h03.34.618,TranslationElicitation_eng-prolific-spa,3.2.4,Win32,60,5e8f39008ed06f208d57df3b,,1,0,98,32,1,97
,,,,,,,,,,,,,,,,,,,,,,,,,,,,,,,,,,,,,,,,,r,2.91899991,ESTR,FALSE,,,,,,,36,estrella,Spanish,Sounds/spa_estrella.mp3,2020-06-24_18h03.34.618,TranslationElicitation_eng-prolific-spa,3.2.4,Win32,60,5e8f39008ed06f208d57df3b,,1,0,98,32,1,97
,,,,,,,,,,,,,,,,,,,,,,,,,,,,,,,,,,,,,,,,,a,3.049999952,ESTRA,FALSE,,,,,,,36,estrella,Spanish,Sounds/spa_estrella.mp3,2020-06-24_18h03.34.618,TranslationElicitation_eng-prolific-spa,3.2.4,Win32,60,5e8f39008ed06f208d57df3b,,1,0,98,32,1,97
,,,,,,,,,,,,,,,,,,,,,,,,,,,,,,,,,,,,,,,,,n,3.200000048,ESTRAN,FALSE,,,,,,,36,estrella,Spanish,Sounds/spa_estrella.mp3,2020-06-24_18h03.34.618,TranslationElicitation_eng-prolific-spa,3.2.4,Win32,60,5e8f39008ed06f208d57df3b,,1,0,98,32,1,97
,,,,,,,,,,,,,,,,,,,,,,,,,,,,,,,,,,,,,,,,,g,3.368000031,ESTRANG,FALSE,,,,,,,36,estrella,Spanish,Sounds/spa_estrella.mp3,2020-06-24_18h03.34.618,TranslationElicitation_eng-prolific-spa,3.2.4,Win32,60,5e8f39008ed06f208d57df3b,,1,0,98,32,1,97
,,,,,,,,,,,,,,,,,,,,,,,,,,,,,,,,,,,,,,,,,e,3.417000055,ESTRANGE,FALSE,,,,,,,36,estrella,Spanish,Sounds/spa_estrella.mp3,2020-06-24_18h03.34.618,TranslationElicitation_eng-prolific-spa,3.2.4,Win32,60,5e8f39008ed06f208d57df3b,,1,0,98,32,1,97
,,,,,,,,,,,,,,,,,,,,,,,,,,,,,,,,,,,,,,,,,d,3.566999912,ESTRANGED,FALSE,,,,,,,36,estrella,Spanish,Sounds/spa_estrella.mp3,2020-06-24_18h03.34.618,TranslationElicitation_eng-prolific-spa,3.2.4,Win32,60,5e8f39008ed06f208d57df3b,,1,0,98,32,1,97
,,,,,,,,,,,,,,,,,,,,,,,,,,,,,,,,,,,,,,,,,return,3.933000088,ESTRANGED,FALSE,,,,,,,36,estrella,Spanish,Sounds/spa_estrella.mp3,2020-06-24_18h03.34.618,TranslationElicitation_eng-prolific-spa,3.2.4,Win32,60,5e8f39008ed06f208d57df3b,3.933000088,1,0,98,32,1,97
,,,,,,,,,,,,,,,,,,,,,,,,,,,,,,,,,,,,,,,,,,,,,,,,,,,36,estrella,Spanish,Sounds/spa_estrella.mp3,2020-06-24_18h03.34.618,TranslationElicitation_eng-prolific-spa,3.2.4,Win32,60,5e8f39008ed06f208d57df3b,,1,0,98,32,1,97
,,,,,,,,,,,,,,,,,,,,,,,,,,,,,,,,,,,,,,,,,return,3.368000031,,FALSE,,,,,,,31,cubo,Spanish,Sounds/spa_cubo.mp3,2020-06-24_18h03.34.618,TranslationElicitation_eng-prolific-spa,3.2.4,Win32,60,5e8f39008ed06f208d57df3b,3.368000031,1,0,98,27,1,97
,,,,,,,,,,,,,,,,,,,,,,,,,,,,,,,,,,,,,,,,,,,,,,,,,,,31,cubo,Spanish,Sounds/spa_cubo.mp3,2020-06-24_18h03.34.618,TranslationElicitation_eng-prolific-spa,3.2.4,Win32,60,5e8f39008ed06f208d57df3b,,1,0,98,27,1,97
,,,,,,,,,,,,,,,,,,,,,,,,,,,,,,,,,,,,,,,,,d,4.266000032,D,FALSE,,,,,,,88,plato,Spanish,Sounds/spa_plato.mp3,2020-06-24_18h03.34.618,TranslationElicitation_eng-prolific-spa,3.2.4,Win32,60,5e8f39008ed06f208d57df3b,,1,0,98,83,1,97
,,,,,,,,,,,,,,,,,,,,,,,,,,,,,,,,,,,,,,,,,u,4.400000095,DU,FALSE,,,,,,,88,plato,Spanish,Sounds/spa_plato.mp3,2020-06-24_18h03.34.618,TranslationElicitation_eng-prolific-spa,3.2.4,Win32,60,5e8f39008ed06f208d57df3b,,1,0,98,83,1,97
,,,,,,,,,,,,,,,,,,,,,,,,,,,,,,,,,,,,,,,,,c,4.568000078,DUC,FALSE,,,,,,,88,plato,Spanish,Sounds/spa_plato.mp3,2020-06-24_18h03.34.618,TranslationElicitation_eng-prolific-spa,3.2.4,Win32,60,5e8f39008ed06f208d57df3b,,1,0,98,83,1,97
,,,,,,,,,,,,,,,,,,,,,,,,,,,,,,,,,,,,,,,,,k,4.666000128,DUCK,FALSE,,,,,,,88,plato,Spanish,Sounds/spa_plato.mp3,2020-06-24_18h03.34.618,TranslationElicitation_eng-prolific-spa,3.2.4,Win32,60,5e8f39008ed06f208d57df3b,,1,0,98,83,1,97
,,,,,,,,,,,,,,,,,,,,,,,,,,,,,,,,,,,,,,,,,return,5.187999964,DUCK,FALSE,,,,,,,88,plato,Spanish,Sounds/spa_plato.mp3,2020-06-24_18h03.34.618,TranslationElicitation_eng-prolific-spa,3.2.4,Win32,60,5e8f39008ed06f208d57df3b,5.187999964,1,0,98,83,1,97
,,,,,,,,,,,,,,,,,,,,,,,,,,,,,,,,,,,,,,,,,,,,,,,,,,,88,plato,Spanish,Sounds/spa_plato.mp3,2020-06-24_18h03.34.618,TranslationElicitation_eng-prolific-spa,3.2.4,Win32,60,5e8f39008ed06f208d57df3b,,1,0,98,83,1,97
,,,,,,,,,,,,,,,,,,,,,,,,,,,,,,,,,,,,,,,,,return,3.299999952,,FALSE,,,,,,,50,jirafa,Spanish,Sounds/spa_jirafa.mp3,2020-06-24_18h03.34.618,TranslationElicitation_eng-prolific-spa,3.2.4,Win32,60,5e8f39008ed06f208d57df3b,3.299999952,1,0,98,46,1,97
,,,,,,,,,,,,,,,,,,,,,,,,,,,,,,,,,,,,,,,,,,,,,,,,,,,50,jirafa,Spanish,Sounds/spa_jirafa.mp3,2020-06-24_18h03.34.618,TranslationElicitation_eng-prolific-spa,3.2.4,Win32,60,5e8f39008ed06f208d57df3b,,1,0,98,46,1,97
,,,,,,,,,,,,,,,,,,,,,,,,,,,,,,,,,,,,,,,,,n,4.198999882,N,FALSE,,,,,,,69,nariz,Spanish,Sounds/spa_nariz.mp3,2020-06-24_18h03.34.618,TranslationElicitation_eng-prolific-spa,3.2.4,Win32,60,5e8f39008ed06f208d57df3b,,1,0,98,65,1,97
,,,,,,,,,,,,,,,,,,,,,,,,,,,,,,,,,,,,,,,,,e,4.48300004,NE,FALSE,,,,,,,69,nariz,Spanish,Sounds/spa_nariz.mp3,2020-06-24_18h03.34.618,TranslationElicitation_eng-prolific-spa,3.2.4,Win32,60,5e8f39008ed06f208d57df3b,,1,0,98,65,1,97
,,,,,,,,,,,,,,,,,,,,,,,,,,,,,,,,,,,,,,,,,a,4.648999929,NEA,FALSE,,,,,,,69,nariz,Spanish,Sounds/spa_nariz.mp3,2020-06-24_18h03.34.618,TranslationElicitation_eng-prolific-spa,3.2.4,Win32,60,5e8f39008ed06f208d57df3b,,1,0,98,65,1,97
,,,,,,,,,,,,,,,,,,,,,,,,,,,,,,,,,,,,,,,,,r,4.703000069,NEAR,FALSE,,,,,,,69,nariz,Spanish,Sounds/spa_nariz.mp3,2020-06-24_18h03.34.618,TranslationElicitation_eng-prolific-spa,3.2.4,Win32,60,5e8f39008ed06f208d57df3b,,1,0,98,65,1,97
,,,,,,,,,,,,,,,,,,,,,,,,,,,,,,,,,,,,,,,,,return,4.832999945,NEAR,FALSE,,,,,,,69,nariz,Spanish,Sounds/spa_nariz.mp3,2020-06-24_18h03.34.618,TranslationElicitation_eng-prolific-spa,3.2.4,Win32,60,5e8f39008ed06f208d57df3b,4.832999945,1,0,98,65,1,97
,,,,,,,,,,,,,,,,,,,,,,,,,,,,,,,,,,,,,,,,,,,,,,,,,,,69,nariz,Spanish,Sounds/spa_nariz.mp3,2020-06-24_18h03.34.618,TranslationElicitation_eng-prolific-spa,3.2.4,Win32,60,5e8f39008ed06f208d57df3b,,1,0,98,65,1,97
,,,,,,,,,,,,,,,,,,,,,,,,,,,,,,,,,,,,,,,,,return,4.065999985,,FALSE,,,,,,,95,tenedor,Spanish,Sounds/spa_tenedor.mp3,2020-06-24_18h03.34.618,TranslationElicitation_eng-prolific-spa,3.2.4,Win32,60,5e8f39008ed06f208d57df3b,4.065999985,1,0,98,90,1,97
,,,,,,,,,,,,,,,,,,,,,,,,,,,,,,,,,,,,,,,,,,,,,,,,,,,95,tenedor,Spanish,Sounds/spa_tenedor.mp3,2020-06-24_18h03.34.618,TranslationElicitation_eng-prolific-spa,3.2.4,Win32,60,5e8f39008ed06f208d57df3b,,1,0,98,90,1,97
,,,,,,,,,,,,,,,,,,,,,,,,,,,,,,,,,,,,,,,,,p,5.317000151,P,FALSE,,,,,,,81,pelota,Spanish,Sounds/spa_pelota.mp3,2020-06-24_18h03.34.618,TranslationElicitation_eng-prolific-spa,3.2.4,Win32,60,5e8f39008ed06f208d57df3b,,1,0,98,76,1,97
,,,,,,,,,,,,,,,,,,,,,,,,,,,,,,,,,,,,,,,,,i,5.532999992,PI,FALSE,,,,,,,81,pelota,Spanish,Sounds/spa_pelota.mp3,2020-06-24_18h03.34.618,TranslationElicitation_eng-prolific-spa,3.2.4,Win32,60,5e8f39008ed06f208d57df3b,,1,0,98,76,1,97
,,,,,,,,,,,,,,,,,,,,,,,,,,,,,,,,,,,,,,,,,l,5.76699996,PIL,FALSE,,,,,,,81,pelota,Spanish,Sounds/spa_pelota.mp3,2020-06-24_18h03.34.618,TranslationElicitation_eng-prolific-spa,3.2.4,Win32,60,5e8f39008ed06f208d57df3b,,1,0,98,76,1,97
,,,,,,,,,,,,,,,,,,,,,,,,,,,,,,,,,,,,,,,,,l,5.900000095,PILL,FALSE,,,,,,,81,pelota,Spanish,Sounds/spa_pelota.mp3,2020-06-24_18h03.34.618,TranslationElicitation_eng-prolific-spa,3.2.4,Win32,60,5e8f39008ed06f208d57df3b,,1,0,98,76,1,97
,,,,,,,,,,,,,,,,,,,,,,,,,,,,,,,,,,,,,,,,,s,6.01699996,PILLS,FALSE,,,,,,,81,pelota,Spanish,Sounds/spa_pelota.mp3,2020-06-24_18h03.34.618,TranslationElicitation_eng-prolific-spa,3.2.4,Win32,60,5e8f39008ed06f208d57df3b,,1,0,98,76,1,97
,,,,,,,,,,,,,,,,,,,,,,,,,,,,,,,,,,,,,,,,,return,6.450000048,PILLS,FALSE,,,,,,,81,pelota,Spanish,Sounds/spa_pelota.mp3,2020-06-24_18h03.34.618,TranslationElicitation_eng-prolific-spa,3.2.4,Win32,60,5e8f39008ed06f208d57df3b,6.450000048,1,0,98,76,1,97
,,,,,,,,,,,,,,,,,,,,,,,,,,,,,,,,,,,,,,,,,,,,,,,,,,,81,pelota,Spanish,Sounds/spa_pelota.mp3,2020-06-24_18h03.34.618,TranslationElicitation_eng-prolific-spa,3.2.4,Win32,60,5e8f39008ed06f208d57df3b,,1,0,98,76,1,97
,,,,,,,,,,,,,,,,,,,,,,,,,,,,,,,,,,,,,,,,,c,18.8039999,C,FALSE,,,,,,,42,gato,Spanish,Sounds/spa_gato.mp3,2020-06-24_18h03.34.618,TranslationElicitation_eng-prolific-spa,3.2.4,Win32,60,5e8f39008ed06f208d57df3b,,1,0,98,38,1,97
,,,,,,,,,,,,,,,,,,,,,,,,,,,,,,,,,,,,,,,,,c,20.88499999,CC,FALSE,,,,,,,42,gato,Spanish,Sounds/spa_gato.mp3,2020-06-24_18h03.34.618,TranslationElicitation_eng-prolific-spa,3.2.4,Win32,60,5e8f39008ed06f208d57df3b,,1,0,98,38,1,97
