consentKey.keys,consentKey.rt,languageL1Key.keys,languageL1Key.rt,languageL2,languageL2OralKey.keys,languageL2OralKey.rt,languageL2WrittenKey.keys,languageL2WrittenKey.rt,languageL3,languageL3OralKey.keys,languageL3OralKey.rt,languageL3WrittenKey.keys,languageL3WrittenKey.rt,languageCatalanOralKey.keys,languageCatalanOralKey.rt,languageCatalanWrittenKey.keys,languageCatalanWrittenKey.rt,languageCatalanTimeKey.keys,languageCatalanTimeKey.rt,languageSpanishOralKey.keys,languageSpanishOralKey.rt,languageSpanishWrittenKey.keys,languageSpanishWrittenKey.rt,languageSpanishTimeKey.keys,languageSpanishTimeKey.rt,age,demoSexKey.keys,demoSexKey.rt,demoEducationKey.keys,demoEducationKey.rt,city,demoVisionKey.keys,demoVisionKey.rt,demoLanguageKey.keys,demoLanguageKey.rt,setupLocationKey.keys,setupLocationKey.rt,setupNoiseKey.keys,setupNoiseKey.rt,instructionsKeys.keys,instructionsKeys.rt,keyPressed,keyPressTime,inputText,error,trialsPracticeCatalan.thisRepN,trialsPracticeCatalan.thisTrialN,trialsPracticeCatalan.thisN,trialsPracticeCatalan.thisIndex,trialsPracticeCatalan.ran,trialsPracticeCatalan.order,trial_id,word,test_language,soundfile,date,expName,psychopyVersion,OS,frameRate,participant,trialOffset,trialsCatalan.thisRepN,trialsCatalan.thisTrialN,trialsCatalan.thisN,trialsCatalan.thisIndex,trialsCatalan.ran,trialsCatalan.order
space,2.876999855,e,5.306999922,PUNJABI,3,9.184000015,1,5.612999916,,,,,,1,3.681999922,1,1.991000175,1,5.055000067,1,3.122999907,1,0.725000143,1,6.675000191,18,f,1.907999992,3,4.509000063,LONDON,y,3.480999947,n,2.613999844,1,2.253999949,1,2.480999947,space,14.06200004,b,10.01599979,B,FALSE,1,0,5,3,1,4,159,onada,Catalan,Sounds/cat_onada.mp3,2020-06-05_16h01.53.462,TranslationElicitation_eng-prolific,3.2.4,Win32,60,5e90c561bdeaf60737085250,,,,,,,
,,,,,,,,,,,,,,,,,,,,,,,,,,,,,,,,,,,,,,,,,,backspace,10.73199987,,TRUE,1,0,5,3,1,4,159,onada,Catalan,Sounds/cat_onada.mp3,2020-06-05_16h01.53.462,TranslationElicitation_eng-prolific,3.2.4,Win32,60,5e90c561bdeaf60737085250,,,,,,,
,,,,,,,,,,,,,,,,,,,,,,,,,,,,,,,,,,,,,,,,,,n,11.29999995,N,TRUE,1,0,5,3,1,4,159,onada,Catalan,Sounds/cat_onada.mp3,2020-06-05_16h01.53.462,TranslationElicitation_eng-prolific,3.2.4,Win32,60,5e90c561bdeaf60737085250,,,,,,,
,,,,,,,,,,,,,,,,,,,,,,,,,,,,,,,,,,,,,,,,,,a,11.43499994,NA,TRUE,1,0,5,3,1,4,159,onada,Catalan,Sounds/cat_onada.mp3,2020-06-05_16h01.53.462,TranslationElicitation_eng-prolific,3.2.4,Win32,60,5e90c561bdeaf60737085250,,,,,,,
,,,,,,,,,,,,,,,,,,,,,,,,,,,,,,,,,,,,,,,,,,m,11.59899998,NAM,TRUE,1,0,5,3,1,4,159,onada,Catalan,Sounds/cat_onada.mp3,2020-06-05_16h01.53.462,TranslationElicitation_eng-prolific,3.2.4,Win32,60,5e90c561bdeaf60737085250,,,,,,,
,,,,,,,,,,,,,,,,,,,,,,,,,,,,,,,,,,,,,,,,,,e,11.93499994,NAME,TRUE,1,0,5,3,1,4,159,onada,Catalan,Sounds/cat_onada.mp3,2020-06-05_16h01.53.462,TranslationElicitation_eng-prolific,3.2.4,Win32,60,5e90c561bdeaf60737085250,,,,,,,
,,,,,,,,,,,,,,,,,,,,,,,,,,,,,,,,,,,,,,,,,,return,12.09899998,NAME,TRUE,1,0,5,3,1,4,159,onada,Catalan,Sounds/cat_onada.mp3,2020-06-05_16h01.53.462,TranslationElicitation_eng-prolific,3.2.4,Win32,60,5e90c561bdeaf60737085250,12.09899998,,,,,,
,,,,,,,,,,,,,,,,,,,,,,,,,,,,,,,,,,,,,,,,,,,,,,1,0,5,3,1,4,159,onada,Catalan,Sounds/cat_onada.mp3,2020-06-05_16h01.53.462,TranslationElicitation_eng-prolific,3.2.4,Win32,60,5e90c561bdeaf60737085250,,,,,,,
,,,,,,,,,,,,,,,,,,,,,,,,,,,,,,,,,,,,,,,,,,c,9.297999859,C,FALSE,1,0,5,2,1,4,147,jaqueta,Catalan,Sounds/cat_jaqueta.mp3,2020-06-05_16h01.53.462,TranslationElicitation_eng-prolific,3.2.4,Win32,60,5e90c561bdeaf60737085250,,,,,,,
,,,,,,,,,,,,,,,,,,,,,,,,,,,,,,,,,,,,,,,,,,a,10.08200002,CA,FALSE,1,0,5,2,1,4,147,jaqueta,Catalan,Sounds/cat_jaqueta.mp3,2020-06-05_16h01.53.462,TranslationElicitation_eng-prolific,3.2.4,Win32,60,5e90c561bdeaf60737085250,,,,,,,
,,,,,,,,,,,,,,,,,,,,,,,,,,,,,,,,,,,,,,,,,,k,10.24799991,CAK,FALSE,1,0,5,2,1,4,147,jaqueta,Catalan,Sounds/cat_jaqueta.mp3,2020-06-05_16h01.53.462,TranslationElicitation_eng-prolific,3.2.4,Win32,60,5e90c561bdeaf60737085250,,,,,,,
,,,,,,,,,,,,,,,,,,,,,,,,,,,,,,,,,,,,,,,,,,e,10.5309999,CAKE,FALSE,1,0,5,2,1,4,147,jaqueta,Catalan,Sounds/cat_jaqueta.mp3,2020-06-05_16h01.53.462,TranslationElicitation_eng-prolific,3.2.4,Win32,60,5e90c561bdeaf60737085250,,,,,,,
,,,,,,,,,,,,,,,,,,,,,,,,,,,,,,,,,,,,,,,,,,return,12.4849999,CAKE,FALSE,1,0,5,2,1,4,147,jaqueta,Catalan,Sounds/cat_jaqueta.mp3,2020-06-05_16h01.53.462,TranslationElicitation_eng-prolific,3.2.4,Win32,60,5e90c561bdeaf60737085250,12.4849999,,,,,,
,,,,,,,,,,,,,,,,,,,,,,,,,,,,,,,,,,,,,,,,,,,,,,1,0,5,2,1,4,147,jaqueta,Catalan,Sounds/cat_jaqueta.mp3,2020-06-05_16h01.53.462,TranslationElicitation_eng-prolific,3.2.4,Win32,60,5e90c561bdeaf60737085250,,,,,,,
,,,,,,,,,,,,,,,,,,,,,,,,,,,,,,,,,,,,,,,,,,h,2.900999784,H,FALSE,1,0,5,0,1,4,109,arbre,Catalan,Sounds/cat_arbre.mp3,2020-06-05_16h01.53.462,TranslationElicitation_eng-prolific,3.2.4,Win32,60,5e90c561bdeaf60737085250,,,,,,,
,,,,,,,,,,,,,,,,,,,,,,,,,,,,,,,,,,,,,,,,,,a,3.231999874,HA,FALSE,1,0,5,0,1,4,109,arbre,Catalan,Sounds/cat_arbre.mp3,2020-06-05_16h01.53.462,TranslationElicitation_eng-prolific,3.2.4,Win32,60,5e90c561bdeaf60737085250,,,,,,,
,,,,,,,,,,,,,,,,,,,,,,,,,,,,,,,,,,,,,,,,,,y,3.347999811,HAY,FALSE,1,0,5,0,1,4,109,arbre,Catalan,Sounds/cat_arbre.mp3,2020-06-05_16h01.53.462,TranslationElicitation_eng-prolific,3.2.4,Win32,60,5e90c561bdeaf60737085250,,,,,,,
,,,,,,,,,,,,,,,,,,,,,,,,,,,,,,,,,,,,,,,,,,r,3.632999897,HAYR,FALSE,1,0,5,0,1,4,109,arbre,Catalan,Sounds/cat_arbre.mp3,2020-06-05_16h01.53.462,TranslationElicitation_eng-prolific,3.2.4,Win32,60,5e90c561bdeaf60737085250,,,,,,,
,,,,,,,,,,,,,,,,,,,,,,,,,,,,,,,,,,,,,,,,,,e,3.849999905,HAYRE,FALSE,1,0,5,0,1,4,109,arbre,Catalan,Sounds/cat_arbre.mp3,2020-06-05_16h01.53.462,TranslationElicitation_eng-prolific,3.2.4,Win32,60,5e90c561bdeaf60737085250,,,,,,,
,,,,,,,,,,,,,,,,,,,,,,,,,,,,,,,,,,,,,,,,,,return,4.083999872,HAYRE,FALSE,1,0,5,0,1,4,109,arbre,Catalan,Sounds/cat_arbre.mp3,2020-06-05_16h01.53.462,TranslationElicitation_eng-prolific,3.2.4,Win32,60,5e90c561bdeaf60737085250,4.083999872,,,,,,
,,,,,,,,,,,,,,,,,,,,,,,,,,,,,,,,,,,,,,,,,,,,,,1,0,5,0,1,4,109,arbre,Catalan,Sounds/cat_arbre.mp3,2020-06-05_16h01.53.462,TranslationElicitation_eng-prolific,3.2.4,Win32,60,5e90c561bdeaf60737085250,,,,,,,
,,,,,,,,,,,,,,,,,,,,,,,,,,,,,,,,,,,,,,,,,,g,8.417000055,G,FALSE,1,0,5,4,1,4,179,tigre,Catalan,Sounds/cat_tigre.mp3,2020-06-05_16h01.53.462,TranslationElicitation_eng-prolific,3.2.4,Win32,60,5e90c561bdeaf60737085250,,,,,,,
,,,,,,,,,,,,,,,,,,,,,,,,,,,,,,,,,,,,,,,,,,u,8.51699996,GU,FALSE,1,0,5,4,1,4,179,tigre,Catalan,Sounds/cat_tigre.mp3,2020-06-05_16h01.53.462,TranslationElicitation_eng-prolific,3.2.4,Win32,60,5e90c561bdeaf60737085250,,,,,,,
,,,,,,,,,,,,,,,,,,,,,,,,,,,,,,,,,,,,,,,,,,i,8.700000048,GUI,FALSE,1,0,5,4,1,4,179,tigre,Catalan,Sounds/cat_tigre.mp3,2020-06-05_16h01.53.462,TranslationElicitation_eng-prolific,3.2.4,Win32,60,5e90c561bdeaf60737085250,,,,,,,
,,,,,,,,,,,,,,,,,,,,,,,,,,,,,,,,,,,,,,,,,,t,8.932999849,GUIT,FALSE,1,0,5,4,1,4,179,tigre,Catalan,Sounds/cat_tigre.mp3,2020-06-05_16h01.53.462,TranslationElicitation_eng-prolific,3.2.4,Win32,60,5e90c561bdeaf60737085250,,,,,,,
,,,,,,,,,,,,,,,,,,,,,,,,,,,,,,,,,,,,,,,,,,e,9.099999905,GUITE,FALSE,1,0,5,4,1,4,179,tigre,Catalan,Sounds/cat_tigre.mp3,2020-06-05_16h01.53.462,TranslationElicitation_eng-prolific,3.2.4,Win32,60,5e90c561bdeaf60737085250,,,,,,,
,,,,,,,,,,,,,,,,,,,,,,,,,,,,,,,,,,,,,,,,,,backspace,9.717999935,GUIT,TRUE,1,0,5,4,1,4,179,tigre,Catalan,Sounds/cat_tigre.mp3,2020-06-05_16h01.53.462,TranslationElicitation_eng-prolific,3.2.4,Win32,60,5e90c561bdeaf60737085250,,,,,,,
,,,,,,,,,,,,,,,,,,,,,,,,,,,,,,,,,,,,,,,,,,a,10.76600003,GUITA,TRUE,1,0,5,4,1,4,179,tigre,Catalan,Sounds/cat_tigre.mp3,2020-06-05_16h01.53.462,TranslationElicitation_eng-prolific,3.2.4,Win32,60,5e90c561bdeaf60737085250,,,,,,,
,,,,,,,,,,,,,,,,,,,,,,,,,,,,,,,,,,,,,,,,,,r,10.95000005,GUITAR,TRUE,1,0,5,4,1,4,179,tigre,Catalan,Sounds/cat_tigre.mp3,2020-06-05_16h01.53.462,TranslationElicitation_eng-prolific,3.2.4,Win32,60,5e90c561bdeaf60737085250,,,,,,,
,,,,,,,,,,,,,,,,,,,,,,,,,,,,,,,,,,,,,,,,,,return,11.39999986,GUITAR,TRUE,1,0,5,4,1,4,179,tigre,Catalan,Sounds/cat_tigre.mp3,2020-06-05_16h01.53.462,TranslationElicitation_eng-prolific,3.2.4,Win32,60,5e90c561bdeaf60737085250,11.39999986,,,,,,
,,,,,,,,,,,,,,,,,,,,,,,,,,,,,,,,,,,,,,,,,,,,,,1,0,5,4,1,4,179,tigre,Catalan,Sounds/cat_tigre.mp3,2020-06-05_16h01.53.462,TranslationElicitation_eng-prolific,3.2.4,Win32,60,5e90c561bdeaf60737085250,,,,,,,
,,,,,,,,,,,,,,,,,,,,,,,,,,,,,,,,,,,,,,,,,,c,2.864000082,C,FALSE,1,0,5,1,1,4,126,corona,Catalan,Sounds/cat_corona.mp3,2020-06-05_16h01.53.462,TranslationElicitation_eng-prolific,3.2.4,Win32,60,5e90c561bdeaf60737085250,,,,,,,
,,,,,,,,,,,,,,,,,,,,,,,,,,,,,,,,,,,,,,,,,,o,3.013999939,CO,FALSE,1,0,5,1,1,4,126,corona,Catalan,Sounds/cat_corona.mp3,2020-06-05_16h01.53.462,TranslationElicitation_eng-prolific,3.2.4,Win32,60,5e90c561bdeaf60737085250,,,,,,,
,,,,,,,,,,,,,,,,,,,,,,,,,,,,,,,,,,,,,,,,,,r,3.249000072,COR,FALSE,1,0,5,1,1,4,126,corona,Catalan,Sounds/cat_corona.mp3,2020-06-05_16h01.53.462,TranslationElicitation_eng-prolific,3.2.4,Win32,60,5e90c561bdeaf60737085250,,,,,,,
,,,,,,,,,,,,,,,,,,,,,,,,,,,,,,,,,,,,,,,,,,o,3.381000042,CORO,FALSE,1,0,5,1,1,4,126,corona,Catalan,Sounds/cat_corona.mp3,2020-06-05_16h01.53.462,TranslationElicitation_eng-prolific,3.2.4,Win32,60,5e90c561bdeaf60737085250,,,,,,,
,,,,,,,,,,,,,,,,,,,,,,,,,,,,,,,,,,,,,,,,,,n,3.714999914,CORON,FALSE,1,0,5,1,1,4,126,corona,Catalan,Sounds/cat_corona.mp3,2020-06-05_16h01.53.462,TranslationElicitation_eng-prolific,3.2.4,Win32,60,5e90c561bdeaf60737085250,,,,,,,
,,,,,,,,,,,,,,,,,,,,,,,,,,,,,,,,,,,,,,,,,,a,3.917999983,CORONA,FALSE,1,0,5,1,1,4,126,corona,Catalan,Sounds/cat_corona.mp3,2020-06-05_16h01.53.462,TranslationElicitation_eng-prolific,3.2.4,Win32,60,5e90c561bdeaf60737085250,,,,,,,
,,,,,,,,,,,,,,,,,,,,,,,,,,,,,,,,,,,,,,,,,,return,4.381000042,CORONA,FALSE,1,0,5,1,1,4,126,corona,Catalan,Sounds/cat_corona.mp3,2020-06-05_16h01.53.462,TranslationElicitation_eng-prolific,3.2.4,Win32,60,5e90c561bdeaf60737085250,4.381000042,,,,,,
,,,,,,,,,,,,,,,,,,,,,,,,,,,,,,,,,,,,,,,,,,,,,,1,0,5,1,1,4,126,corona,Catalan,Sounds/cat_corona.mp3,2020-06-05_16h01.53.462,TranslationElicitation_eng-prolific,3.2.4,Win32,60,5e90c561bdeaf60737085250,,,,,,,
,,,,,,,,,,,,,,,,,,,,,,,,,,,,,,,,,,,,,,,,,,p,1.832999945,P,FALSE,,,,,,,137,fulla,Catalan,Sounds/cat_fulla.mp3,2020-06-05_16h01.53.462,TranslationElicitation_eng-prolific,3.2.4,Win32,60,5e90c561bdeaf60737085250,,1,0,81,31,1,80
,,,,,,,,,,,,,,,,,,,,,,,,,,,,,,,,,,,,,,,,,,h,2.099999905,PH,FALSE,,,,,,,137,fulla,Catalan,Sounds/cat_fulla.mp3,2020-06-05_16h01.53.462,TranslationElicitation_eng-prolific,3.2.4,Win32,60,5e90c561bdeaf60737085250,,1,0,81,31,1,80
,,,,,,,,,,,,,,,,,,,,,,,,,,,,,,,,,,,,,,,,,,o,2.299999952,PHO,FALSE,,,,,,,137,fulla,Catalan,Sounds/cat_fulla.mp3,2020-06-05_16h01.53.462,TranslationElicitation_eng-prolific,3.2.4,Win32,60,5e90c561bdeaf60737085250,,1,0,81,31,1,80
,,,,,,,,,,,,,,,,,,,,,,,,,,,,,,,,,,,,,,,,,,n,2.520999908,PHON,FALSE,,,,,,,137,fulla,Catalan,Sounds/cat_fulla.mp3,2020-06-05_16h01.53.462,TranslationElicitation_eng-prolific,3.2.4,Win32,60,5e90c561bdeaf60737085250,,1,0,81,31,1,80
,,,,,,,,,,,,,,,,,,,,,,,,,,,,,,,,,,,,,,,,,,e,2.649999857,PHONE,FALSE,,,,,,,137,fulla,Catalan,Sounds/cat_fulla.mp3,2020-06-05_16h01.53.462,TranslationElicitation_eng-prolific,3.2.4,Win32,60,5e90c561bdeaf60737085250,,1,0,81,31,1,80
,,,,,,,,,,,,,,,,,,,,,,,,,,,,,,,,,,,,,,,,,,return,5.432999849,PHONE,FALSE,,,,,,,137,fulla,Catalan,Sounds/cat_fulla.mp3,2020-06-05_16h01.53.462,TranslationElicitation_eng-prolific,3.2.4,Win32,60,5e90c561bdeaf60737085250,5.432999849,1,0,81,31,1,80
,,,,,,,,,,,,,,,,,,,,,,,,,,,,,,,,,,,,,,,,,,,,,,,,,,,,137,fulla,Catalan,Sounds/cat_fulla.mp3,2020-06-05_16h01.53.462,TranslationElicitation_eng-prolific,3.2.4,Win32,60,5e90c561bdeaf60737085250,,1,0,81,31,1,80
,,,,,,,,,,,,,,,,,,,,,,,,,,,,,,,,,,,,,,,,,,s,2.914999962,S,FALSE,,,,,,,124,cirera,Catalan,Sounds/cat_cirera.mp3,2020-06-05_16h01.53.462,TranslationElicitation_eng-prolific,3.2.4,Win32,60,5e90c561bdeaf60737085250,,1,0,81,19,1,80
,,,,,,,,,,,,,,,,,,,,,,,,,,,,,,,,,,,,,,,,,,i,3.082999945,SI,FALSE,,,,,,,124,cirera,Catalan,Sounds/cat_cirera.mp3,2020-06-05_16h01.53.462,TranslationElicitation_eng-prolific,3.2.4,Win32,60,5e90c561bdeaf60737085250,,1,0,81,19,1,80
,,,,,,,,,,,,,,,,,,,,,,,,,,,,,,,,,,,,,,,,,,e,3.666000128,SIE,FALSE,,,,,,,124,cirera,Catalan,Sounds/cat_cirera.mp3,2020-06-05_16h01.53.462,TranslationElicitation_eng-prolific,3.2.4,Win32,60,5e90c561bdeaf60737085250,,1,0,81,19,1,80
,,,,,,,,,,,,,,,,,,,,,,,,,,,,,,,,,,,,,,,,,,r,3.900000095,SIER,FALSE,,,,,,,124,cirera,Catalan,Sounds/cat_cirera.mp3,2020-06-05_16h01.53.462,TranslationElicitation_eng-prolific,3.2.4,Win32,60,5e90c561bdeaf60737085250,,1,0,81,19,1,80
,,,,,,,,,,,,,,,,,,,,,,,,,,,,,,,,,,,,,,,,,,r,4.032000065,SIERR,FALSE,,,,,,,124,cirera,Catalan,Sounds/cat_cirera.mp3,2020-06-05_16h01.53.462,TranslationElicitation_eng-prolific,3.2.4,Win32,60,5e90c561bdeaf60737085250,,1,0,81,19,1,80
,,,,,,,,,,,,,,,,,,,,,,,,,,,,,,,,,,,,,,,,,,a,4.207999945,SIERRA,FALSE,,,,,,,124,cirera,Catalan,Sounds/cat_cirera.mp3,2020-06-05_16h01.53.462,TranslationElicitation_eng-prolific,3.2.4,Win32,60,5e90c561bdeaf60737085250,,1,0,81,19,1,80
,,,,,,,,,,,,,,,,,,,,,,,,,,,,,,,,,,,,,,,,,,return,4.464999914,SIERRA,FALSE,,,,,,,124,cirera,Catalan,Sounds/cat_cirera.mp3,2020-06-05_16h01.53.462,TranslationElicitation_eng-prolific,3.2.4,Win32,60,5e90c561bdeaf60737085250,4.464999914,1,0,81,19,1,80
,,,,,,,,,,,,,,,,,,,,,,,,,,,,,,,,,,,,,,,,,,,,,,,,,,,,124,cirera,Catalan,Sounds/cat_cirera.mp3,2020-06-05_16h01.53.462,TranslationElicitation_eng-prolific,3.2.4,Win32,60,5e90c561bdeaf60737085250,,1,0,81,19,1,80
,,,,,,,,,,,,,,,,,,,,,,,,,,,,,,,,,,,,,,,,,,m,2.366999865,M,FALSE,,,,,,,154,mirall,Catalan,Sounds/cat_mirall.mp3,2020-06-05_16h01.53.462,TranslationElicitation_eng-prolific,3.2.4,Win32,60,5e90c561bdeaf60737085250,,1,0,81,47,1,80
,,,,,,,,,,,,,,,,,,,,,,,,,,,,,,,,,,,,,,,,,,i,2.632999897,MI,FALSE,,,,,,,154,mirall,Catalan,Sounds/cat_mirall.mp3,2020-06-05_16h01.53.462,TranslationElicitation_eng-prolific,3.2.4,Win32,60,5e90c561bdeaf60737085250,,1,0,81,47,1,80
,,,,,,,,,,,,,,,,,,,,,,,,,,,,,,,,,,,,,,,,,,r,3.181999922,MIR,FALSE,,,,,,,154,mirall,Catalan,Sounds/cat_mirall.mp3,2020-06-05_16h01.53.462,TranslationElicitation_eng-prolific,3.2.4,Win32,60,5e90c561bdeaf60737085250,,1,0,81,47,1,80
,,,,,,,,,,,,,,,,,,,,,,,,,,,,,,,,,,,,,,,,,,a,3.382999897,MIRA,FALSE,,,,,,,154,mirall,Catalan,Sounds/cat_mirall.mp3,2020-06-05_16h01.53.462,TranslationElicitation_eng-prolific,3.2.4,Win32,60,5e90c561bdeaf60737085250,,1,0,81,47,1,80
,,,,,,,,,,,,,,,,,,,,,,,,,,,,,,,,,,,,,,,,,,c,3.432999849,MIRAC,FALSE,,,,,,,154,mirall,Catalan,Sounds/cat_mirall.mp3,2020-06-05_16h01.53.462,TranslationElicitation_eng-prolific,3.2.4,Win32,60,5e90c561bdeaf60737085250,,1,0,81,47,1,80
,,,,,,,,,,,,,,,,,,,,,,,,,,,,,,,,,,,,,,,,,,l,3.815999985,MIRACL,FALSE,,,,,,,154,mirall,Catalan,Sounds/cat_mirall.mp3,2020-06-05_16h01.53.462,TranslationElicitation_eng-prolific,3.2.4,Win32,60,5e90c561bdeaf60737085250,,1,0,81,47,1,80
,,,,,,,,,,,,,,,,,,,,,,,,,,,,,,,,,,,,,,,,,,e,3.986999989,MIRACLE,FALSE,,,,,,,154,mirall,Catalan,Sounds/cat_mirall.mp3,2020-06-05_16h01.53.462,TranslationElicitation_eng-prolific,3.2.4,Win32,60,5e90c561bdeaf60737085250,,1,0,81,47,1,80
,,,,,,,,,,,,,,,,,,,,,,,,,,,,,,,,,,,,,,,,,,space,4.149999857,MIRACLE ,FALSE,,,,,,,154,mirall,Catalan,Sounds/cat_mirall.mp3,2020-06-05_16h01.53.462,TranslationElicitation_eng-prolific,3.2.4,Win32,60,5e90c561bdeaf60737085250,,1,0,81,47,1,80
,,,,,,,,,,,,,,,,,,,,,,,,,,,,,,,,,,,,,,,,,,return,4.48300004,MIRACLE ,FALSE,,,,,,,154,mirall,Catalan,Sounds/cat_mirall.mp3,2020-06-05_16h01.53.462,TranslationElicitation_eng-prolific,3.2.4,Win32,60,5e90c561bdeaf60737085250,4.48300004,1,0,81,47,1,80
,,,,,,,,,,,,,,,,,,,,,,,,,,,,,,,,,,,,,,,,,,,,,,,,,,,,154,mirall,Catalan,Sounds/cat_mirall.mp3,2020-06-05_16h01.53.462,TranslationElicitation_eng-prolific,3.2.4,Win32,60,5e90c561bdeaf60737085250,,1,0,81,47,1,80
,,,,,,,,,,,,,,,,,,,,,,,,,,,,,,,,,,,,,,,,,,l,1.884000063,L,FALSE,,,,,,,167,pingui,Catalan,Sounds/cat_pingui.mp3,2020-06-05_16h01.53.462,TranslationElicitation_eng-prolific,3.2.4,Win32,60,5e90c561bdeaf60737085250,,1,0,81,59,1,80
,,,,,,,,,,,,,,,,,,,,,,,,,,,,,,,,,,,,,,,,,,a,2.233999968,LA,FALSE,,,,,,,167,pingui,Catalan,Sounds/cat_pingui.mp3,2020-06-05_16h01.53.462,TranslationElicitation_eng-prolific,3.2.4,Win32,60,5e90c561bdeaf60737085250,,1,0,81,59,1,80
,,,,,,,,,,,,,,,,,,,,,,,,,,,,,,,,,,,,,,,,,,n,2.38499999,LAN,FALSE,,,,,,,167,pingui,Catalan,Sounds/cat_pingui.mp3,2020-06-05_16h01.53.462,TranslationElicitation_eng-prolific,3.2.4,Win32,60,5e90c561bdeaf60737085250,,1,0,81,59,1,80
,,,,,,,,,,,,,,,,,,,,,,,,,,,,,,,,,,,,,,,,,,g,2.568000078,LANG,FALSE,,,,,,,167,pingui,Catalan,Sounds/cat_pingui.mp3,2020-06-05_16h01.53.462,TranslationElicitation_eng-prolific,3.2.4,Win32,60,5e90c561bdeaf60737085250,,1,0,81,59,1,80
,,,,,,,,,,,,,,,,,,,,,,,,,,,,,,,,,,,,,,,,,,u,2.768000126,LANGU,FALSE,,,,,,,167,pingui,Catalan,Sounds/cat_pingui.mp3,2020-06-05_16h01.53.462,TranslationElicitation_eng-prolific,3.2.4,Win32,60,5e90c561bdeaf60737085250,,1,0,81,59,1,80
,,,,,,,,,,,,,,,,,,,,,,,,,,,,,,,,,,,,,,,,,,a,2.983999968,LANGUA,FALSE,,,,,,,167,pingui,Catalan,Sounds/cat_pingui.mp3,2020-06-05_16h01.53.462,TranslationElicitation_eng-prolific,3.2.4,Win32,60,5e90c561bdeaf60737085250,,1,0,81,59,1,80
,,,,,,,,,,,,,,,,,,,,,,,,,,,,,,,,,,,,,,,,,,g,3.121000051,LANGUAG,FALSE,,,,,,,167,pingui,Catalan,Sounds/cat_pingui.mp3,2020-06-05_16h01.53.462,TranslationElicitation_eng-prolific,3.2.4,Win32,60,5e90c561bdeaf60737085250,,1,0,81,59,1,80
,,,,,,,,,,,,,,,,,,,,,,,,,,,,,,,,,,,,,,,,,,e,3.268000126,LANGUAGE,FALSE,,,,,,,167,pingui,Catalan,Sounds/cat_pingui.mp3,2020-06-05_16h01.53.462,TranslationElicitation_eng-prolific,3.2.4,Win32,60,5e90c561bdeaf60737085250,,1,0,81,59,1,80
,,,,,,,,,,,,,,,,,,,,,,,,,,,,,,,,,,,,,,,,,,return,3.983999968,LANGUAGE,FALSE,,,,,,,167,pingui,Catalan,Sounds/cat_pingui.mp3,2020-06-05_16h01.53.462,TranslationElicitation_eng-prolific,3.2.4,Win32,60,5e90c561bdeaf60737085250,3.983999968,1,0,81,59,1,80
,,,,,,,,,,,,,,,,,,,,,,,,,,,,,,,,,,,,,,,,,,,,,,,,,,,,167,pingui,Catalan,Sounds/cat_pingui.mp3,2020-06-05_16h01.53.462,TranslationElicitation_eng-prolific,3.2.4,Win32,60,5e90c561bdeaf60737085250,,1,0,81,59,1,80
,,,,,,,,,,,,,,,,,,,,,,,,,,,,,,,,,,,,,,,,,,c,2.251000166,C,FALSE,,,,,,,123,cavall,Catalan,Sounds/cat_cavall.mp3,2020-06-05_16h01.53.462,TranslationElicitation_eng-prolific,3.2.4,Win32,60,5e90c561bdeaf60737085250,,1,0,81,18,1,80
,,,,,,,,,,,,,,,,,,,,,,,,,,,,,,,,,,,,,,,,,,o,2.317000151,CO,FALSE,,,,,,,123,cavall,Catalan,Sounds/cat_cavall.mp3,2020-06-05_16h01.53.462,TranslationElicitation_eng-prolific,3.2.4,Win32,60,5e90c561bdeaf60737085250,,1,0,81,18,1,80
,,,,,,,,,,,,,,,,,,,,,,,,,,,,,,,,,,,,,,,,,,m,2.534000158,COM,FALSE,,,,,,,123,cavall,Catalan,Sounds/cat_cavall.mp3,2020-06-05_16h01.53.462,TranslationElicitation_eng-prolific,3.2.4,Win32,60,5e90c561bdeaf60737085250,,1,0,81,18,1,80
,,,,,,,,,,,,,,,,,,,,,,,,,,,,,,,,,,,,,,,,,,e,2.667000055,COME,FALSE,,,,,,,123,cavall,Catalan,Sounds/cat_cavall.mp3,2020-06-05_16h01.53.462,TranslationElicitation_eng-prolific,3.2.4,Win32,60,5e90c561bdeaf60737085250,,1,0,81,18,1,80
,,,,,,,,,,,,,,,,,,,,,,,,,,,,,,,,,,,,,,,,,,return,2.820000172,COME,FALSE,,,,,,,123,cavall,Catalan,Sounds/cat_cavall.mp3,2020-06-05_16h01.53.462,TranslationElicitation_eng-prolific,3.2.4,Win32,60,5e90c561bdeaf60737085250,2.820000172,1,0,81,18,1,80
,,,,,,,,,,,,,,,,,,,,,,,,,,,,,,,,,,,,,,,,,,,,,,,,,,,,123,cavall,Catalan,Sounds/cat_cavall.mp3,2020-06-05_16h01.53.462,TranslationElicitation_eng-prolific,3.2.4,Win32,60,5e90c561bdeaf60737085250,,1,0,81,18,1,80
,,,,,,,,,,,,,,,,,,,,,,,,,,,,,,,,,,,,,,,,,,g,1.183000088,G,FALSE,,,,,,,146,guitarra,Catalan,Sounds/cat_guitarra.mp3,2020-06-05_16h01.53.462,TranslationElicitation_eng-prolific,3.2.4,Win32,60,5e90c561bdeaf60737085250,,1,0,81,40,1,80
,,,,,,,,,,,,,,,,,,,,,,,,,,,,,,,,,,,,,,,,,,u,1.601999998,GU,FALSE,,,,,,,146,guitarra,Catalan,Sounds/cat_guitarra.mp3,2020-06-05_16h01.53.462,TranslationElicitation_eng-prolific,3.2.4,Win32,60,5e90c561bdeaf60737085250,,1,0,81,40,1,80
,,,,,,,,,,,,,,,,,,,,,,,,,,,,,,,,,,,,,,,,,,i,1.76699996,GUI,FALSE,,,,,,,146,guitarra,Catalan,Sounds/cat_guitarra.mp3,2020-06-05_16h01.53.462,TranslationElicitation_eng-prolific,3.2.4,Win32,60,5e90c561bdeaf60737085250,,1,0,81,40,1,80
,,,,,,,,,,,,,,,,,,,,,,,,,,,,,,,,,,,,,,,,,,t,2,GUIT,FALSE,,,,,,,146,guitarra,Catalan,Sounds/cat_guitarra.mp3,2020-06-05_16h01.53.462,TranslationElicitation_eng-prolific,3.2.4,Win32,60,5e90c561bdeaf60737085250,,1,0,81,40,1,80
,,,,,,,,,,,,,,,,,,,,,,,,,,,,,,,,,,,,,,,,,,a,2.101999998,GUITA,FALSE,,,,,,,146,guitarra,Catalan,Sounds/cat_guitarra.mp3,2020-06-05_16h01.53.462,TranslationElicitation_eng-prolific,3.2.4,Win32,60,5e90c561bdeaf60737085250,,1,0,81,40,1,80
,,,,,,,,,,,,,,,,,,,,,,,,,,,,,,,,,,,,,,,,,,r,2.21600008,GUITAR,FALSE,,,,,,,146,guitarra,Catalan,Sounds/cat_guitarra.mp3,2020-06-05_16h01.53.462,TranslationElicitation_eng-prolific,3.2.4,Win32,60,5e90c561bdeaf60737085250,,1,0,81,40,1,80
,,,,,,,,,,,,,,,,,,,,,,,,,,,,,,,,,,,,,,,,,,return,2.53399992,GUITAR,FALSE,,,,,,,146,guitarra,Catalan,Sounds/cat_guitarra.mp3,2020-06-05_16h01.53.462,TranslationElicitation_eng-prolific,3.2.4,Win32,60,5e90c561bdeaf60737085250,2.53399992,1,0,81,40,1,80
,,,,,,,,,,,,,,,,,,,,,,,,,,,,,,,,,,,,,,,,,,,,,,,,,,,,146,guitarra,Catalan,Sounds/cat_guitarra.mp3,2020-06-05_16h01.53.462,TranslationElicitation_eng-prolific,3.2.4,Win32,60,5e90c561bdeaf60737085250,,1,0,81,40,1,80
,,,,,,,,,,,,,,,,,,,,,,,,,,,,,,,,,,,,,,,,,,a,1.617000103,A,FALSE,,,,,,,186,ungla,Catalan,Sounds/cat_ungla.mp3,2020-06-05_16h01.53.462,TranslationElicitation_eng-prolific,3.2.4,Win32,60,5e90c561bdeaf60737085250,,1,0,81,77,1,80
,,,,,,,,,,,,,,,,,,,,,,,,,,,,,,,,,,,,,,,,,,backspace,2,,TRUE,,,,,,,186,ungla,Catalan,Sounds/cat_ungla.mp3,2020-06-05_16h01.53.462,TranslationElicitation_eng-prolific,3.2.4,Win32,60,5e90c561bdeaf60737085250,,1,0,81,77,1,80
,,,,,,,,,,,,,,,,,,,,,,,,,,,,,,,,,,,,,,,,,,e,3.233999968,E,TRUE,,,,,,,186,ungla,Catalan,Sounds/cat_ungla.mp3,2020-06-05_16h01.53.462,TranslationElicitation_eng-prolific,3.2.4,Win32,60,5e90c561bdeaf60737085250,,1,0,81,77,1,80
,,,,,,,,,,,,,,,,,,,,,,,,,,,,,,,,,,,,,,,,,,n,3.350000143,EN,TRUE,,,,,,,186,ungla,Catalan,Sounds/cat_ungla.mp3,2020-06-05_16h01.53.462,TranslationElicitation_eng-prolific,3.2.4,Win32,60,5e90c561bdeaf60737085250,,1,0,81,77,1,80
,,,,,,,,,,,,,,,,,,,,,,,,,,,,,,,,,,,,,,,,,,g,3.75,ENG,TRUE,,,,,,,186,ungla,Catalan,Sounds/cat_ungla.mp3,2020-06-05_16h01.53.462,TranslationElicitation_eng-prolific,3.2.4,Win32,60,5e90c561bdeaf60737085250,,1,0,81,77,1,80
,,,,,,,,,,,,,,,,,,,,,,,,,,,,,,,,,,,,,,,,,,l,3.850000143,ENGL,TRUE,,,,,,,186,ungla,Catalan,Sounds/cat_ungla.mp3,2020-06-05_16h01.53.462,TranslationElicitation_eng-prolific,3.2.4,Win32,60,5e90c561bdeaf60737085250,,1,0,81,77,1,80
,,,,,,,,,,,,,,,,,,,,,,,,,,,,,,,,,,,,,,,,,,i,4.050000191,ENGLI,TRUE,,,,,,,186,ungla,Catalan,Sounds/cat_ungla.mp3,2020-06-05_16h01.53.462,TranslationElicitation_eng-prolific,3.2.4,Win32,60,5e90c561bdeaf60737085250,,1,0,81,77,1,80
,,,,,,,,,,,,,,,,,,,,,,,,,,,,,,,,,,,,,,,,,,s,4.267000198,ENGLIS,TRUE,,,,,,,186,ungla,Catalan,Sounds/cat_ungla.mp3,2020-06-05_16h01.53.462,TranslationElicitation_eng-prolific,3.2.4,Win32,60,5e90c561bdeaf60737085250,,1,0,81,77,1,80
,,,,,,,,,,,,,,,,,,,,,,,,,,,,,,,,,,,,,,,,,,h,4.388000011,ENGLISH,TRUE,,,,,,,186,ungla,Catalan,Sounds/cat_ungla.mp3,2020-06-05_16h01.53.462,TranslationElicitation_eng-prolific,3.2.4,Win32,60,5e90c561bdeaf60737085250,,1,0,81,77,1,80
,,,,,,,,,,,,,,,,,,,,,,,,,,,,,,,,,,,,,,,,,,return,4.817000151,ENGLISH,TRUE,,,,,,,186,ungla,Catalan,Sounds/cat_ungla.mp3,2020-06-05_16h01.53.462,TranslationElicitation_eng-prolific,3.2.4,Win32,60,5e90c561bdeaf60737085250,4.817000151,1,0,81,77,1,80
,,,,,,,,,,,,,,,,,,,,,,,,,,,,,,,,,,,,,,,,,,,,,,,,,,,,186,ungla,Catalan,Sounds/cat_ungla.mp3,2020-06-05_16h01.53.462,TranslationElicitation_eng-prolific,3.2.4,Win32,60,5e90c561bdeaf60737085250,,1,0,81,77,1,80
,,,,,,,,,,,,,,,,,,,,,,,,,,,,,,,,,,,,,,,,,,s,3.416999817,S,FALSE,,,,,,,129,dit,Catalan,Sounds/cat_dit.mp3,2020-06-05_16h01.53.462,TranslationElicitation_eng-prolific,3.2.4,Win32,60,5e90c561bdeaf60737085250,,1,0,81,23,1,80
,,,,,,,,,,,,,,,,,,,,,,,,,,,,,,,,,,,,,,,,,,e,3.700000048,SE,FALSE,,,,,,,129,dit,Catalan,Sounds/cat_dit.mp3,2020-06-05_16h01.53.462,TranslationElicitation_eng-prolific,3.2.4,Win32,60,5e90c561bdeaf60737085250,,1,0,81,23,1,80
,,,,,,,,,,,,,,,,,,,,,,,,,,,,,,,,,,,,,,,,,,e,3.866999865,SEE,FALSE,,,,,,,129,dit,Catalan,Sounds/cat_dit.mp3,2020-06-05_16h01.53.462,TranslationElicitation_eng-prolific,3.2.4,Win32,60,5e90c561bdeaf60737085250,,1,0,81,23,1,80
,,,,,,,,,,,,,,,,,,,,,,,,,,,,,,,,,,,,,,,,,,return,3.98300004,SEE,FALSE,,,,,,,129,dit,Catalan,Sounds/cat_dit.mp3,2020-06-05_16h01.53.462,TranslationElicitation_eng-prolific,3.2.4,Win32,60,5e90c561bdeaf60737085250,3.98300004,1,0,81,23,1,80
,,,,,,,,,,,,,,,,,,,,,,,,,,,,,,,,,,,,,,,,,,,,,,,,,,,,129,dit,Catalan,Sounds/cat_dit.mp3,2020-06-05_16h01.53.462,TranslationElicitation_eng-prolific,3.2.4,Win32,60,5e90c561bdeaf60737085250,,1,0,81,23,1,80
,,,,,,,,,,,,,,,,,,,,,,,,,,,,,,,,,,,,,,,,,,l,4.616999865,L,FALSE,,,,,,,185,ulleres,Catalan,Sounds/cat_ulleres.mp3,2020-06-05_16h01.53.462,TranslationElicitation_eng-prolific,3.2.4,Win32,60,5e90c561bdeaf60737085250,,1,0,81,76,1,80
,,,,,,,,,,,,,,,,,,,,,,,,,,,,,,,,,,,,,,,,,,e,4.816999912,LE,FALSE,,,,,,,185,ulleres,Catalan,Sounds/cat_ulleres.mp3,2020-06-05_16h01.53.462,TranslationElicitation_eng-prolific,3.2.4,Win32,60,5e90c561bdeaf60737085250,,1,0,81,76,1,80
,,,,,,,,,,,,,,,,,,,,,,,,,,,,,,,,,,,,,,,,,,a,5.134000063,LEA,FALSE,,,,,,,185,ulleres,Catalan,Sounds/cat_ulleres.mp3,2020-06-05_16h01.53.462,TranslationElicitation_eng-prolific,3.2.4,Win32,60,5e90c561bdeaf60737085250,,1,0,81,76,1,80
,,,,,,,,,,,,,,,,,,,,,,,,,,,,,,,,,,,,,,,,,,r,5.26699996,LEAR,FALSE,,,,,,,185,ulleres,Catalan,Sounds/cat_ulleres.mp3,2020-06-05_16h01.53.462,TranslationElicitation_eng-prolific,3.2.4,Win32,60,5e90c561bdeaf60737085250,,1,0,81,76,1,80
,,,,,,,,,,,,,,,,,,,,,,,,,,,,,,,,,,,,,,,,,,n,5.615999937,LEARN,FALSE,,,,,,,185,ulleres,Catalan,Sounds/cat_ulleres.mp3,2020-06-05_16h01.53.462,TranslationElicitation_eng-prolific,3.2.4,Win32,60,5e90c561bdeaf60737085250,,1,0,81,76,1,80
,,,,,,,,,,,,,,,,,,,,,,,,,,,,,,,,,,,,,,,,,,return,5.999000072,LEARN,FALSE,,,,,,,185,ulleres,Catalan,Sounds/cat_ulleres.mp3,2020-06-05_16h01.53.462,TranslationElicitation_eng-prolific,3.2.4,Win32,60,5e90c561bdeaf60737085250,5.999000072,1,0,81,76,1,80
,,,,,,,,,,,,,,,,,,,,,,,,,,,,,,,,,,,,,,,,,,,,,,,,,,,,185,ulleres,Catalan,Sounds/cat_ulleres.mp3,2020-06-05_16h01.53.462,TranslationElicitation_eng-prolific,3.2.4,Win32,60,5e90c561bdeaf60737085250,,1,0,81,76,1,80
,,,,,,,,,,,,,,,,,,,,,,,,,,,,,,,,,,,,,,,,,,w,2.400999784,W,FALSE,,,,,,,161,ovella,Catalan,Sounds/cat_ovella.mp3,2020-06-05_16h01.53.462,TranslationElicitation_eng-prolific,3.2.4,Win32,60,5e90c561bdeaf60737085250,,1,0,81,53,1,80
,,,,,,,,,,,,,,,,,,,,,,,,,,,,,,,,,,,,,,,,,,a,2.700999975,WA,FALSE,,,,,,,161,ovella,Catalan,Sounds/cat_ovella.mp3,2020-06-05_16h01.53.462,TranslationElicitation_eng-prolific,3.2.4,Win32,60,5e90c561bdeaf60737085250,,1,0,81,53,1,80
,,,,,,,,,,,,,,,,,,,,,,,,,,,,,,,,,,,,,,,,,,i,2.751999855,WAI,FALSE,,,,,,,161,ovella,Catalan,Sounds/cat_ovella.mp3,2020-06-05_16h01.53.462,TranslationElicitation_eng-prolific,3.2.4,Win32,60,5e90c561bdeaf60737085250,,1,0,81,53,1,80
,,,,,,,,,,,,,,,,,,,,,,,,,,,,,,,,,,,,,,,,,,t,2.983999968,WAIT,FALSE,,,,,,,161,ovella,Catalan,Sounds/cat_ovella.mp3,2020-06-05_16h01.53.462,TranslationElicitation_eng-prolific,3.2.4,Win32,60,5e90c561bdeaf60737085250,,1,0,81,53,1,80
,,,,,,,,,,,,,,,,,,,,,,,,,,,,,,,,,,,,,,,,,,return,3.25,WAIT,FALSE,,,,,,,161,ovella,Catalan,Sounds/cat_ovella.mp3,2020-06-05_16h01.53.462,TranslationElicitation_eng-prolific,3.2.4,Win32,60,5e90c561bdeaf60737085250,3.25,1,0,81,53,1,80
,,,,,,,,,,,,,,,,,,,,,,,,,,,,,,,,,,,,,,,,,,,,,,,,,,,,161,ovella,Catalan,Sounds/cat_ovella.mp3,2020-06-05_16h01.53.462,TranslationElicitation_eng-prolific,3.2.4,Win32,60,5e90c561bdeaf60737085250,,1,0,81,53,1,80
,,,,,,,,,,,,,,,,,,,,,,,,,,,,,,,,,,,,,,,,,,g,4.950000048,G,FALSE,,,,,,,104,abella,Catalan,Sounds/cat_abella.mp3,2020-06-05_16h01.53.462,TranslationElicitation_eng-prolific,3.2.4,Win32,60,5e90c561bdeaf60737085250,,1,0,81,0,1,80
,,,,,,,,,,,,,,,,,,,,,,,,,,,,,,,,,,,,,,,,,,r,5.151000023,GR,FALSE,,,,,,,104,abella,Catalan,Sounds/cat_abella.mp3,2020-06-05_16h01.53.462,TranslationElicitation_eng-prolific,3.2.4,Win32,60,5e90c561bdeaf60737085250,,1,0,81,0,1,80
,,,,,,,,,,,,,,,,,,,,,,,,,,,,,,,,,,,,,,,,,,a,5.282999992,GRA,FALSE,,,,,,,104,abella,Catalan,Sounds/cat_abella.mp3,2020-06-05_16h01.53.462,TranslationElicitation_eng-prolific,3.2.4,Win32,60,5e90c561bdeaf60737085250,,1,0,81,0,1,80
,,,,,,,,,,,,,,,,,,,,,,,,,,,,,,,,,,,,,,,,,,n,5.532999992,GRAN,FALSE,,,,,,,104,abella,Catalan,Sounds/cat_abella.mp3,2020-06-05_16h01.53.462,TranslationElicitation_eng-prolific,3.2.4,Win32,60,5e90c561bdeaf60737085250,,1,0,81,0,1,80
,,,,,,,,,,,,,,,,,,,,,,,,,,,,,,,,,,,,,,,,,,d,5.789000034,GRAND,FALSE,,,,,,,104,abella,Catalan,Sounds/cat_abella.mp3,2020-06-05_16h01.53.462,TranslationElicitation_eng-prolific,3.2.4,Win32,60,5e90c561bdeaf60737085250,,1,0,81,0,1,80
,,,,,,,,,,,,,,,,,,,,,,,,,,,,,,,,,,,,,,,,,,m,6.098999977,GRANDM,FALSE,,,,,,,104,abella,Catalan,Sounds/cat_abella.mp3,2020-06-05_16h01.53.462,TranslationElicitation_eng-prolific,3.2.4,Win32,60,5e90c561bdeaf60737085250,,1,0,81,0,1,80
,,,,,,,,,,,,,,,,,,,,,,,,,,,,,,,,,,,,,,,,,,a,6.282999992,GRANDMA,FALSE,,,,,,,104,abella,Catalan,Sounds/cat_abella.mp3,2020-06-05_16h01.53.462,TranslationElicitation_eng-prolific,3.2.4,Win32,60,5e90c561bdeaf60737085250,,1,0,81,0,1,80
,,,,,,,,,,,,,,,,,,,,,,,,,,,,,,,,,,,,,,,,,,apostrophe,6.416000128,GRANDMA',FALSE,,,,,,,104,abella,Catalan,Sounds/cat_abella.mp3,2020-06-05_16h01.53.462,TranslationElicitation_eng-prolific,3.2.4,Win32,60,5e90c561bdeaf60737085250,,1,0,81,0,1,80
,,,,,,,,,,,,,,,,,,,,,,,,,,,,,,,,,,,,,,,,,,backspace,6.98300004,GRANDMA,TRUE,,,,,,,104,abella,Catalan,Sounds/cat_abella.mp3,2020-06-05_16h01.53.462,TranslationElicitation_eng-prolific,3.2.4,Win32,60,5e90c561bdeaf60737085250,,1,0,81,0,1,80
,,,,,,,,,,,,,,,,,,,,,,,,,,,,,,,,,,,,,,,,,,return,7.200000048,GRANDMA,TRUE,,,,,,,104,abella,Catalan,Sounds/cat_abella.mp3,2020-06-05_16h01.53.462,TranslationElicitation_eng-prolific,3.2.4,Win32,60,5e90c561bdeaf60737085250,7.200000048,1,0,81,0,1,80
,,,,,,,,,,,,,,,,,,,,,,,,,,,,,,,,,,,,,,,,,,,,,,,,,,,,104,abella,Catalan,Sounds/cat_abella.mp3,2020-06-05_16h01.53.462,TranslationElicitation_eng-prolific,3.2.4,Win32,60,5e90c561bdeaf60737085250,,1,0,81,0,1,80
,,,,,,,,,,,,,,,,,,,,,,,,,,,,,,,,,,,,,,,,,,r,6.986000061,R,FALSE,,,,,,,176,samarreta,Catalan,Sounds/cat_samarreta.mp3,2020-06-05_16h01.53.462,TranslationElicitation_eng-prolific,3.2.4,Win32,60,5e90c561bdeaf60737085250,,1,0,81,68,1,80
,,,,,,,,,,,,,,,,,,,,,,,,,,,,,,,,,,,,,,,,,,e,7.25,RE,FALSE,,,,,,,176,samarreta,Catalan,Sounds/cat_samarreta.mp3,2020-06-05_16h01.53.462,TranslationElicitation_eng-prolific,3.2.4,Win32,60,5e90c561bdeaf60737085250,,1,0,81,68,1,80
,,,,,,,,,,,,,,,,,,,,,,,,,,,,,,,,,,,,,,,,,,d,7.450000048,RED,FALSE,,,,,,,176,samarreta,Catalan,Sounds/cat_samarreta.mp3,2020-06-05_16h01.53.462,TranslationElicitation_eng-prolific,3.2.4,Win32,60,5e90c561bdeaf60737085250,,1,0,81,68,1,80
,,,,,,,,,,,,,,,,,,,,,,,,,,,,,,,,,,,,,,,,,,return,7.599999905,RED,FALSE,,,,,,,176,samarreta,Catalan,Sounds/cat_samarreta.mp3,2020-06-05_16h01.53.462,TranslationElicitation_eng-prolific,3.2.4,Win32,60,5e90c561bdeaf60737085250,7.599999905,1,0,81,68,1,80
,,,,,,,,,,,,,,,,,,,,,,,,,,,,,,,,,,,,,,,,,,,,,,,,,,,,176,samarreta,Catalan,Sounds/cat_samarreta.mp3,2020-06-05_16h01.53.462,TranslationElicitation_eng-prolific,3.2.4,Win32,60,5e90c561bdeaf60737085250,,1,0,81,68,1,80
,,,,,,,,,,,,,,,,,,,,,,,,,,,,,,,,,,,,,,,,,,d,4.952000141,D,FALSE,,,,,,,133,estruc,Catalan,Sounds/cat_estruc.mp3,2020-06-05_16h01.53.462,TranslationElicitation_eng-prolific,3.2.4,Win32,60,5e90c561bdeaf60737085250,,1,0,81,27,1,80
,,,,,,,,,,,,,,,,,,,,,,,,,,,,,,,,,,,,,,,,,,backspace,6.284000158,,TRUE,,,,,,,133,estruc,Catalan,Sounds/cat_estruc.mp3,2020-06-05_16h01.53.462,TranslationElicitation_eng-prolific,3.2.4,Win32,60,5e90c561bdeaf60737085250,,1,0,81,27,1,80
,,,,,,,,,,,,,,,,,,,,,,,,,,,,,,,,,,,,,,,,,,c,6.934000015,C,TRUE,,,,,,,133,estruc,Catalan,Sounds/cat_estruc.mp3,2020-06-05_16h01.53.462,TranslationElicitation_eng-prolific,3.2.4,Win32,60,5e90c561bdeaf60737085250,,1,0,81,27,1,80
,,,,,,,,,,,,,,,,,,,,,,,,,,,,,,,,,,,,,,,,,,r,7.184000015,CR,TRUE,,,,,,,133,estruc,Catalan,Sounds/cat_estruc.mp3,2020-06-05_16h01.53.462,TranslationElicitation_eng-prolific,3.2.4,Win32,60,5e90c561bdeaf60737085250,,1,0,81,27,1,80
,,,,,,,,,,,,,,,,,,,,,,,,,,,,,,,,,,,,,,,,,,a,7.337000132,CRA,TRUE,,,,,,,133,estruc,Catalan,Sounds/cat_estruc.mp3,2020-06-05_16h01.53.462,TranslationElicitation_eng-prolific,3.2.4,Win32,60,5e90c561bdeaf60737085250,,1,0,81,27,1,80
,,,,,,,,,,,,,,,,,,,,,,,,,,,,,,,,,,,,,,,,,,u,7.585000038,CRAU,TRUE,,,,,,,133,estruc,Catalan,Sounds/cat_estruc.mp3,2020-06-05_16h01.53.462,TranslationElicitation_eng-prolific,3.2.4,Win32,60,5e90c561bdeaf60737085250,,1,0,81,27,1,80
,,,,,,,,,,,,,,,,,,,,,,,,,,,,,,,,,,,,,,,,,,backspace,7.993000031,CRA,TRUE,,,,,,,133,estruc,Catalan,Sounds/cat_estruc.mp3,2020-06-05_16h01.53.462,TranslationElicitation_eng-prolific,3.2.4,Win32,60,5e90c561bdeaf60737085250,,1,0,81,27,1,80
,,,,,,,,,,,,,,,,,,,,,,,,,,,,,,,,,,,,,,,,,,backspace,8.217000008,CR,TRUE,,,,,,,133,estruc,Catalan,Sounds/cat_estruc.mp3,2020-06-05_16h01.53.462,TranslationElicitation_eng-prolific,3.2.4,Win32,60,5e90c561bdeaf60737085250,,1,0,81,27,1,80
,,,,,,,,,,,,,,,,,,,,,,,,,,,,,,,,,,,,,,,,,,backspace,8.384000063,C,TRUE,,,,,,,133,estruc,Catalan,Sounds/cat_estruc.mp3,2020-06-05_16h01.53.462,TranslationElicitation_eng-prolific,3.2.4,Win32,60,5e90c561bdeaf60737085250,,1,0,81,27,1,80
,,,,,,,,,,,,,,,,,,,,,,,,,,,,,,,,,,,,,,,,,,backspace,8.567000151,,TRUE,,,,,,,133,estruc,Catalan,Sounds/cat_estruc.mp3,2020-06-05_16h01.53.462,TranslationElicitation_eng-prolific,3.2.4,Win32,60,5e90c561bdeaf60737085250,,1,0,81,27,1,80
,,,,,,,,,,,,,,,,,,,,,,,,,,,,,,,,,,,,,,,,,,p,9.067000151,P,TRUE,,,,,,,133,estruc,Catalan,Sounds/cat_estruc.mp3,2020-06-05_16h01.53.462,TranslationElicitation_eng-prolific,3.2.4,Win32,60,5e90c561bdeaf60737085250,,1,0,81,27,1,80
,,,,,,,,,,,,,,,,,,,,,,,,,,,,,,,,,,,,,,,,,,a,9.252000093,PA,TRUE,,,,,,,133,estruc,Catalan,Sounds/cat_estruc.mp3,2020-06-05_16h01.53.462,TranslationElicitation_eng-prolific,3.2.4,Win32,60,5e90c561bdeaf60737085250,,1,0,81,27,1,80
,,,,,,,,,,,,,,,,,,,,,,,,,,,,,,,,,,,,,,,,,,s,9.550000191,PAS,TRUE,,,,,,,133,estruc,Catalan,Sounds/cat_estruc.mp3,2020-06-05_16h01.53.462,TranslationElicitation_eng-prolific,3.2.4,Win32,60,5e90c561bdeaf60737085250,,1,0,81,27,1,80
,,,,,,,,,,,,,,,,,,,,,,,,,,,,,,,,,,,,,,,,,,t,9.733999968,PAST,TRUE,,,,,,,133,estruc,Catalan,Sounds/cat_estruc.mp3,2020-06-05_16h01.53.462,TranslationElicitation_eng-prolific,3.2.4,Win32,60,5e90c561bdeaf60737085250,,1,0,81,27,1,80
,,,,,,,,,,,,,,,,,,,,,,,,,,,,,,,,,,,,,,,,,,e,10.00100017,PASTE,TRUE,,,,,,,133,estruc,Catalan,Sounds/cat_estruc.mp3,2020-06-05_16h01.53.462,TranslationElicitation_eng-prolific,3.2.4,Win32,60,5e90c561bdeaf60737085250,,1,0,81,27,1,80
,,,,,,,,,,,,,,,,,,,,,,,,,,,,,,,,,,,,,,,,,,l,10.53500009,PASTEL,TRUE,,,,,,,133,estruc,Catalan,Sounds/cat_estruc.mp3,2020-06-05_16h01.53.462,TranslationElicitation_eng-prolific,3.2.4,Win32,60,5e90c561bdeaf60737085250,,1,0,81,27,1,80
,,,,,,,,,,,,,,,,,,,,,,,,,,,,,,,,,,,,,,,,,,s,12.10100007,PASTELS,TRUE,,,,,,,133,estruc,Catalan,Sounds/cat_estruc.mp3,2020-06-05_16h01.53.462,TranslationElicitation_eng-prolific,3.2.4,Win32,60,5e90c561bdeaf60737085250,,1,0,81,27,1,80
,,,,,,,,,,,,,,,,,,,,,,,,,,,,,,,,,,,,,,,,,,return,32.80000019,PASTELS,TRUE,,,,,,,133,estruc,Catalan,Sounds/cat_estruc.mp3,2020-06-05_16h01.53.462,TranslationElicitation_eng-prolific,3.2.4,Win32,60,5e90c561bdeaf60737085250,32.80000019,1,0,81,27,1,80
,,,,,,,,,,,,,,,,,,,,,,,,,,,,,,,,,,,,,,,,,,,,,,,,,,,,133,estruc,Catalan,Sounds/cat_estruc.mp3,2020-06-05_16h01.53.462,TranslationElicitation_eng-prolific,3.2.4,Win32,60,5e90c561bdeaf60737085250,,1,0,81,27,1,80
,,,,,,,,,,,,,,,,,,,,,,,,,,,,,,,,,,,,,,,,,,b,1.532000065,B,FALSE,,,,,,,113,boca,Catalan,Sounds/cat_boca.mp3,2020-06-05_16h01.53.462,TranslationElicitation_eng-prolific,3.2.4,Win32,60,5e90c561bdeaf60737085250,,1,0,81,8,1,80
,,,,,,,,,,,,,,,,,,,,,,,,,,,,,,,,,,,,,,,,,,o,1.933000088,BO,FALSE,,,,,,,113,boca,Catalan,Sounds/cat_boca.mp3,2020-06-05_16h01.53.462,TranslationElicitation_eng-prolific,3.2.4,Win32,60,5e90c561bdeaf60737085250,,1,0,81,8,1,80
,,,,,,,,,,,,,,,,,,,,,,,,,,,,,,,,,,,,,,,,,,o,2.049000025,BOO,FALSE,,,,,,,113,boca,Catalan,Sounds/cat_boca.mp3,2020-06-05_16h01.53.462,TranslationElicitation_eng-prolific,3.2.4,Win32,60,5e90c561bdeaf60737085250,,1,0,81,8,1,80
,,,,,,,,,,,,,,,,,,,,,,,,,,,,,,,,,,,,,,,,,,k,2.482000113,BOOK,FALSE,,,,,,,113,boca,Catalan,Sounds/cat_boca.mp3,2020-06-05_16h01.53.462,TranslationElicitation_eng-prolific,3.2.4,Win32,60,5e90c561bdeaf60737085250,,1,0,81,8,1,80
,,,,,,,,,,,,,,,,,,,,,,,,,,,,,,,,,,,,,,,,,,return,2.782000065,BOOK,FALSE,,,,,,,113,boca,Catalan,Sounds/cat_boca.mp3,2020-06-05_16h01.53.462,TranslationElicitation_eng-prolific,3.2.4,Win32,60,5e90c561bdeaf60737085250,2.782000065,1,0,81,8,1,80
,,,,,,,,,,,,,,,,,,,,,,,,,,,,,,,,,,,,,,,,,,,,,,,,,,,,113,boca,Catalan,Sounds/cat_boca.mp3,2020-06-05_16h01.53.462,TranslationElicitation_eng-prolific,3.2.4,Win32,60,5e90c561bdeaf60737085250,,1,0,81,8,1,80
,,,,,,,,,,,,,,,,,,,,,,,,,,,,,,,,,,,,,,,,,,z,2.512000084,Z,FALSE,,,,,,,149,llibre,Catalan,Sounds/cat_llibre.mp3,2020-06-05_16h01.53.462,TranslationElicitation_eng-prolific,3.2.4,Win32,60,5e90c561bdeaf60737085250,,1,0,81,42,1,80
,,,,,,,,,,,,,,,,,,,,,,,,,,,,,,,,,,,,,,,,,,e,2.846000195,ZE,FALSE,,,,,,,149,llibre,Catalan,Sounds/cat_llibre.mp3,2020-06-05_16h01.53.462,TranslationElicitation_eng-prolific,3.2.4,Win32,60,5e90c561bdeaf60737085250,,1,0,81,42,1,80
,,,,,,,,,,,,,,,,,,,,,,,,,,,,,,,,,,,,,,,,,,b,3.013000011,ZEB,FALSE,,,,,,,149,llibre,Catalan,Sounds/cat_llibre.mp3,2020-06-05_16h01.53.462,TranslationElicitation_eng-prolific,3.2.4,Win32,60,5e90c561bdeaf60737085250,,1,0,81,42,1,80
,,,,,,,,,,,,,,,,,,,,,,,,,,,,,,,,,,,,,,,,,,r,3.328999996,ZEBR,FALSE,,,,,,,149,llibre,Catalan,Sounds/cat_llibre.mp3,2020-06-05_16h01.53.462,TranslationElicitation_eng-prolific,3.2.4,Win32,60,5e90c561bdeaf60737085250,,1,0,81,42,1,80
,,,,,,,,,,,,,,,,,,,,,,,,,,,,,,,,,,,,,,,,,,a,3.445000172,ZEBRA,FALSE,,,,,,,149,llibre,Catalan,Sounds/cat_llibre.mp3,2020-06-05_16h01.53.462,TranslationElicitation_eng-prolific,3.2.4,Win32,60,5e90c561bdeaf60737085250,,1,0,81,42,1,80
,,,,,,,,,,,,,,,,,,,,,,,,,,,,,,,,,,,,,,,,,,return,3.828999996,ZEBRA,FALSE,,,,,,,149,llibre,Catalan,Sounds/cat_llibre.mp3,2020-06-05_16h01.53.462,TranslationElicitation_eng-prolific,3.2.4,Win32,60,5e90c561bdeaf60737085250,3.828999996,1,0,81,42,1,80
,,,,,,,,,,,,,,,,,,,,,,,,,,,,,,,,,,,,,,,,,,,,,,,,,,,,149,llibre,Catalan,Sounds/cat_llibre.mp3,2020-06-05_16h01.53.462,TranslationElicitation_eng-prolific,3.2.4,Win32,60,5e90c561bdeaf60737085250,,1,0,81,42,1,80
,,,,,,,,,,,,,,,,,,,,,,,,,,,,,,,,,,,,,,,,,,m,2.301000118,M,FALSE,,,,,,,152,ma,Catalan,Sounds/cat_ma.mp3,2020-06-05_16h01.53.462,TranslationElicitation_eng-prolific,3.2.4,Win32,60,5e90c561bdeaf60737085250,,1,0,81,45,1,80
,,,,,,,,,,,,,,,,,,,,,,,,,,,,,,,,,,,,,,,,,,u,2.534000158,MU,FALSE,,,,,,,152,ma,Catalan,Sounds/cat_ma.mp3,2020-06-05_16h01.53.462,TranslationElicitation_eng-prolific,3.2.4,Win32,60,5e90c561bdeaf60737085250,,1,0,81,45,1,80
,,,,,,,,,,,,,,,,,,,,,,,,,,,,,,,,,,,,,,,,,,m,2.717000008,MUM,FALSE,,,,,,,152,ma,Catalan,Sounds/cat_ma.mp3,2020-06-05_16h01.53.462,TranslationElicitation_eng-prolific,3.2.4,Win32,60,5e90c561bdeaf60737085250,,1,0,81,45,1,80
,,,,,,,,,,,,,,,,,,,,,,,,,,,,,,,,,,,,,,,,,,return,3.383000135,MUM,FALSE,,,,,,,152,ma,Catalan,Sounds/cat_ma.mp3,2020-06-05_16h01.53.462,TranslationElicitation_eng-prolific,3.2.4,Win32,60,5e90c561bdeaf60737085250,3.383000135,1,0,81,45,1,80
,,,,,,,,,,,,,,,,,,,,,,,,,,,,,,,,,,,,,,,,,,,,,,,,,,,,152,ma,Catalan,Sounds/cat_ma.mp3,2020-06-05_16h01.53.462,TranslationElicitation_eng-prolific,3.2.4,Win32,60,5e90c561bdeaf60737085250,,1,0,81,45,1,80
,,,,,,,,,,,,,,,,,,,,,,,,,,,,,,,,,,,,,,,,,,p,3.18200016,P,FALSE,,,,,,,136,forquilla,Catalan,Sounds/cat_forquilla.mp3,2020-06-05_16h01.53.462,TranslationElicitation_eng-prolific,3.2.4,Win32,60,5e90c561bdeaf60737085250,,1,0,81,30,1,80
,,,,,,,,,,,,,,,,,,,,,,,,,,,,,,,,,,,,,,,,,,h,3.48300004,PH,FALSE,,,,,,,136,forquilla,Catalan,Sounds/cat_forquilla.mp3,2020-06-05_16h01.53.462,TranslationElicitation_eng-prolific,3.2.4,Win32,60,5e90c561bdeaf60737085250,,1,0,81,30,1,80
,,,,,,,,,,,,,,,,,,,,,,,,,,,,,,,,,,,,,,,,,,o,3.650000095,PHO,FALSE,,,,,,,136,forquilla,Catalan,Sounds/cat_forquilla.mp3,2020-06-05_16h01.53.462,TranslationElicitation_eng-prolific,3.2.4,Win32,60,5e90c561bdeaf60737085250,,1,0,81,30,1,80
,,,,,,,,,,,,,,,,,,,,,,,,,,,,,,,,,,,,,,,,,,t,3.823000193,PHOT,FALSE,,,,,,,136,forquilla,Catalan,Sounds/cat_forquilla.mp3,2020-06-05_16h01.53.462,TranslationElicitation_eng-prolific,3.2.4,Win32,60,5e90c561bdeaf60737085250,,1,0,81,30,1,80
,,,,,,,,,,,,,,,,,,,,,,,,,,,,,,,,,,,,,,,,,,o,3.978000164,PHOTO,FALSE,,,,,,,136,forquilla,Catalan,Sounds/cat_forquilla.mp3,2020-06-05_16h01.53.462,TranslationElicitation_eng-prolific,3.2.4,Win32,60,5e90c561bdeaf60737085250,,1,0,81,30,1,80
,,,,,,,,,,,,,,,,,,,,,,,,,,,,,,,,,,,,,,,,,,return,4.649000168,PHOTO,FALSE,,,,,,,136,forquilla,Catalan,Sounds/cat_forquilla.mp3,2020-06-05_16h01.53.462,TranslationElicitation_eng-prolific,3.2.4,Win32,60,5e90c561bdeaf60737085250,4.649000168,1,0,81,30,1,80
,,,,,,,,,,,,,,,,,,,,,,,,,,,,,,,,,,,,,,,,,,,,,,,,,,,,136,forquilla,Catalan,Sounds/cat_forquilla.mp3,2020-06-05_16h01.53.462,TranslationElicitation_eng-prolific,3.2.4,Win32,60,5e90c561bdeaf60737085250,,1,0,81,30,1,80
,,,,,,,,,,,,,,,,,,,,,,,,,,,,,,,,,,,,,,,,,,w,2.434000015,W,FALSE,,,,,,,105,aigua,Catalan,Sounds/cat_aigua.mp3,2020-06-05_16h01.53.462,TranslationElicitation_eng-prolific,3.2.4,Win32,60,5e90c561bdeaf60737085250,,1,0,81,1,1,80
,,,,,,,,,,,,,,,,,,,,,,,,,,,,,,,,,,,,,,,,,,a,2.667000055,WA,FALSE,,,,,,,105,aigua,Catalan,Sounds/cat_aigua.mp3,2020-06-05_16h01.53.462,TranslationElicitation_eng-prolific,3.2.4,Win32,60,5e90c561bdeaf60737085250,,1,0,81,1,1,80
,,,,,,,,,,,,,,,,,,,,,,,,,,,,,,,,,,,,,,,,,,t,2.833999872,WAT,FALSE,,,,,,,105,aigua,Catalan,Sounds/cat_aigua.mp3,2020-06-05_16h01.53.462,TranslationElicitation_eng-prolific,3.2.4,Win32,60,5e90c561bdeaf60737085250,,1,0,81,1,1,80
,,,,,,,,,,,,,,,,,,,,,,,,,,,,,,,,,,,,,,,,,,a,3,WATA,FALSE,,,,,,,105,aigua,Catalan,Sounds/cat_aigua.mp3,2020-06-05_16h01.53.462,TranslationElicitation_eng-prolific,3.2.4,Win32,60,5e90c561bdeaf60737085250,,1,0,81,1,1,80
,,,,,,,,,,,,,,,,,,,,,,,,,,,,,,,,,,,,,,,,,,backspace,3.493000031,WAT,TRUE,,,,,,,105,aigua,Catalan,Sounds/cat_aigua.mp3,2020-06-05_16h01.53.462,TranslationElicitation_eng-prolific,3.2.4,Win32,60,5e90c561bdeaf60737085250,,1,0,81,1,1,80
,,,,,,,,,,,,,,,,,,,,,,,,,,,,,,,,,,,,,,,,,,e,3.684000015,WATE,TRUE,,,,,,,105,aigua,Catalan,Sounds/cat_aigua.mp3,2020-06-05_16h01.53.462,TranslationElicitation_eng-prolific,3.2.4,Win32,60,5e90c561bdeaf60737085250,,1,0,81,1,1,80
,,,,,,,,,,,,,,,,,,,,,,,,,,,,,,,,,,,,,,,,,,r,3.902999878,WATER,TRUE,,,,,,,105,aigua,Catalan,Sounds/cat_aigua.mp3,2020-06-05_16h01.53.462,TranslationElicitation_eng-prolific,3.2.4,Win32,60,5e90c561bdeaf60737085250,,1,0,81,1,1,80
,,,,,,,,,,,,,,,,,,,,,,,,,,,,,,,,,,,,,,,,,,return,5.082999945,WATER,TRUE,,,,,,,105,aigua,Catalan,Sounds/cat_aigua.mp3,2020-06-05_16h01.53.462,TranslationElicitation_eng-prolific,3.2.4,Win32,60,5e90c561bdeaf60737085250,5.082999945,1,0,81,1,1,80
,,,,,,,,,,,,,,,,,,,,,,,,,,,,,,,,,,,,,,,,,,,,,,,,,,,,105,aigua,Catalan,Sounds/cat_aigua.mp3,2020-06-05_16h01.53.462,TranslationElicitation_eng-prolific,3.2.4,Win32,60,5e90c561bdeaf60737085250,,1,0,81,1,1,80
,,,,,,,,,,,,,,,,,,,,,,,,,,,,,,,,,,,,,,,,,,p,3.269000053,P,FALSE,,,,,,,117,boto,Catalan,Sounds/cat_boto.mp3,2020-06-05_16h01.53.462,TranslationElicitation_eng-prolific,3.2.4,Win32,60,5e90c561bdeaf60737085250,,1,0,81,12,1,80
,,,,,,,,,,,,,,,,,,,,,,,,,,,,,,,,,,,,,,,,,,h,3.700000048,PH,FALSE,,,,,,,117,boto,Catalan,Sounds/cat_boto.mp3,2020-06-05_16h01.53.462,TranslationElicitation_eng-prolific,3.2.4,Win32,60,5e90c561bdeaf60737085250,,1,0,81,12,1,80
,,,,,,,,,,,,,,,,,,,,,,,,,,,,,,,,,,,,,,,,,,o,3.870000124,PHO,FALSE,,,,,,,117,boto,Catalan,Sounds/cat_boto.mp3,2020-06-05_16h01.53.462,TranslationElicitation_eng-prolific,3.2.4,Win32,60,5e90c561bdeaf60737085250,,1,0,81,12,1,80
,,,,,,,,,,,,,,,,,,,,,,,,,,,,,,,,,,,,,,,,,,t,4.233999968,PHOT,FALSE,,,,,,,117,boto,Catalan,Sounds/cat_boto.mp3,2020-06-05_16h01.53.462,TranslationElicitation_eng-prolific,3.2.4,Win32,60,5e90c561bdeaf60737085250,,1,0,81,12,1,80
,,,,,,,,,,,,,,,,,,,,,,,,,,,,,,,,,,,,,,,,,,p,4.784000158,PHOTP,FALSE,,,,,,,117,boto,Catalan,Sounds/cat_boto.mp3,2020-06-05_16h01.53.462,TranslationElicitation_eng-prolific,3.2.4,Win32,60,5e90c561bdeaf60737085250,,1,0,81,12,1,80
,,,,,,,,,,,,,,,,,,,,,,,,,,,,,,,,,,,,,,,,,,backspace,5.200999975,PHOT,TRUE,,,,,,,117,boto,Catalan,Sounds/cat_boto.mp3,2020-06-05_16h01.53.462,TranslationElicitation_eng-prolific,3.2.4,Win32,60,5e90c561bdeaf60737085250,,1,0,81,12,1,80
,,,,,,,,,,,,,,,,,,,,,,,,,,,,,,,,,,,,,,,,,,o,5.695000172,PHOTO,TRUE,,,,,,,117,boto,Catalan,Sounds/cat_boto.mp3,2020-06-05_16h01.53.462,TranslationElicitation_eng-prolific,3.2.4,Win32,60,5e90c561bdeaf60737085250,,1,0,81,12,1,80
,,,,,,,,,,,,,,,,,,,,,,,,,,,,,,,,,,,,,,,,,,return,7.453999996,PHOTO,TRUE,,,,,,,117,boto,Catalan,Sounds/cat_boto.mp3,2020-06-05_16h01.53.462,TranslationElicitation_eng-prolific,3.2.4,Win32,60,5e90c561bdeaf60737085250,7.453999996,1,0,81,12,1,80
,,,,,,,,,,,,,,,,,,,,,,,,,,,,,,,,,,,,,,,,,,,,,,,,,,,,117,boto,Catalan,Sounds/cat_boto.mp3,2020-06-05_16h01.53.462,TranslationElicitation_eng-prolific,3.2.4,Win32,60,5e90c561bdeaf60737085250,,1,0,81,12,1,80
,,,,,,,,,,,,,,,,,,,,,,,,,,,,,,,,,,,,,,,,,,t,2.532999992,T,FALSE,,,,,,,183,tren,Catalan,Sounds/cat_tren.mp3,2020-06-05_16h01.53.462,TranslationElicitation_eng-prolific,3.2.4,Win32,60,5e90c561bdeaf60737085250,,1,0,81,74,1,80
,,,,,,,,,,,,,,,,,,,,,,,,,,,,,,,,,,,,,,,,,,h,2.718000174,TH,FALSE,,,,,,,183,tren,Catalan,Sounds/cat_tren.mp3,2020-06-05_16h01.53.462,TranslationElicitation_eng-prolific,3.2.4,Win32,60,5e90c561bdeaf60737085250,,1,0,81,74,1,80
,,,,,,,,,,,,,,,,,,,,,,,,,,,,,,,,,,,,,,,,,,r,2.82400012,THR,FALSE,,,,,,,183,tren,Catalan,Sounds/cat_tren.mp3,2020-06-05_16h01.53.462,TranslationElicitation_eng-prolific,3.2.4,Win32,60,5e90c561bdeaf60737085250,,1,0,81,74,1,80
,,,,,,,,,,,,,,,,,,,,,,,,,,,,,,,,,,,,,,,,,,e,3.150000095,THRE,FALSE,,,,,,,183,tren,Catalan,Sounds/cat_tren.mp3,2020-06-05_16h01.53.462,TranslationElicitation_eng-prolific,3.2.4,Win32,60,5e90c561bdeaf60737085250,,1,0,81,74,1,80
,,,,,,,,,,,,,,,,,,,,,,,,,,,,,,,,,,,,,,,,,,e,3.299999952,THREE,FALSE,,,,,,,183,tren,Catalan,Sounds/cat_tren.mp3,2020-06-05_16h01.53.462,TranslationElicitation_eng-prolific,3.2.4,Win32,60,5e90c561bdeaf60737085250,,1,0,81,74,1,80
,,,,,,,,,,,,,,,,,,,,,,,,,,,,,,,,,,,,,,,,,,return,3.5,THREE,FALSE,,,,,,,183,tren,Catalan,Sounds/cat_tren.mp3,2020-06-05_16h01.53.462,TranslationElicitation_eng-prolific,3.2.4,Win32,60,5e90c561bdeaf60737085250,3.5,1,0,81,74,1,80
,,,,,,,,,,,,,,,,,,,,,,,,,,,,,,,,,,,,,,,,,,,,,,,,,,,,183,tren,Catalan,Sounds/cat_tren.mp3,2020-06-05_16h01.53.462,TranslationElicitation_eng-prolific,3.2.4,Win32,60,5e90c561bdeaf60737085250,,1,0,81,74,1,80
,,,,,,,,,,,,,,,,,,,,,,,,,,,,,,,,,,,,,,,,,,b,3.114000082,B,FALSE,,,,,,,166,peu,Catalan,Sounds/cat_peu.mp3,2020-06-05_16h01.53.462,TranslationElicitation_eng-prolific,3.2.4,Win32,60,5e90c561bdeaf60737085250,,1,0,81,58,1,80
,,,,,,,,,,,,,,,,,,,,,,,,,,,,,,,,,,,,,,,,,,a,3.263999939,BA,FALSE,,,,,,,166,peu,Catalan,Sounds/cat_peu.mp3,2020-06-05_16h01.53.462,TranslationElicitation_eng-prolific,3.2.4,Win32,60,5e90c561bdeaf60737085250,,1,0,81,58,1,80
,,,,,,,,,,,,,,,,,,,,,,,,,,,,,,,,,,,,,,,,,,i,3.447999954,BAI,FALSE,,,,,,,166,peu,Catalan,Sounds/cat_peu.mp3,2020-06-05_16h01.53.462,TranslationElicitation_eng-prolific,3.2.4,Win32,60,5e90c561bdeaf60737085250,,1,0,81,58,1,80
,,,,,,,,,,,,,,,,,,,,,,,,,,,,,,,,,,,,,,,,,,l,3.648999929,BAIL,FALSE,,,,,,,166,peu,Catalan,Sounds/cat_peu.mp3,2020-06-05_16h01.53.462,TranslationElicitation_eng-prolific,3.2.4,Win32,60,5e90c561bdeaf60737085250,,1,0,81,58,1,80
,,,,,,,,,,,,,,,,,,,,,,,,,,,,,,,,,,,,,,,,,,return,4.197000027,BAIL,FALSE,,,,,,,166,peu,Catalan,Sounds/cat_peu.mp3,2020-06-05_16h01.53.462,TranslationElicitation_eng-prolific,3.2.4,Win32,60,5e90c561bdeaf60737085250,4.197000027,1,0,81,58,1,80
,,,,,,,,,,,,,,,,,,,,,,,,,,,,,,,,,,,,,,,,,,,,,,,,,,,,166,peu,Catalan,Sounds/cat_peu.mp3,2020-06-05_16h01.53.462,TranslationElicitation_eng-prolific,3.2.4,Win32,60,5e90c561bdeaf60737085250,,1,0,81,58,1,80
,,,,,,,,,,,,,,,,,,,,,,,,,,,,,,,,,,,,,,,,,,a,4.746999979,A,FALSE,,,,,,,130,entrepa,Catalan,Sounds/cat_entrepa.mp3,2020-06-05_16h01.53.462,TranslationElicitation_eng-prolific,3.2.4,Win32,60,5e90c561bdeaf60737085250,,1,0,81,24,1,80
,,,,,,,,,,,,,,,,,,,,,,,,,,,,,,,,,,,,,,,,,,l,5.380000114,AL,FALSE,,,,,,,130,entrepa,Catalan,Sounds/cat_entrepa.mp3,2020-06-05_16h01.53.462,TranslationElicitation_eng-prolific,3.2.4,Win32,60,5e90c561bdeaf60737085250,,1,0,81,24,1,80
,,,,,,,,,,,,,,,,,,,,,,,,,,,,,,,,,,,,,,,,,,p,5.616000175,ALP,FALSE,,,,,,,130,entrepa,Catalan,Sounds/cat_entrepa.mp3,2020-06-05_16h01.53.462,TranslationElicitation_eng-prolific,3.2.4,Win32,60,5e90c561bdeaf60737085250,,1,0,81,24,1,80
,,,,,,,,,,,,,,,,,,,,,,,,,,,,,,,,,,,,,,,,,,h,5.897000074,ALPH,FALSE,,,,,,,130,entrepa,Catalan,Sounds/cat_entrepa.mp3,2020-06-05_16h01.53.462,TranslationElicitation_eng-prolific,3.2.4,Win32,60,5e90c561bdeaf60737085250,,1,0,81,24,1,80
,,,,,,,,,,,,,,,,,,,,,,,,,,,,,,,,,,,,,,,,,,a,6.04700017,ALPHA,FALSE,,,,,,,130,entrepa,Catalan,Sounds/cat_entrepa.mp3,2020-06-05_16h01.53.462,TranslationElicitation_eng-prolific,3.2.4,Win32,60,5e90c561bdeaf60737085250,,1,0,81,24,1,80
,,,,,,,,,,,,,,,,,,,,,,,,,,,,,,,,,,,,,,,,,,b,6.213000059,ALPHAB,FALSE,,,,,,,130,entrepa,Catalan,Sounds/cat_entrepa.mp3,2020-06-05_16h01.53.462,TranslationElicitation_eng-prolific,3.2.4,Win32,60,5e90c561bdeaf60737085250,,1,0,81,24,1,80
,,,,,,,,,,,,,,,,,,,,,,,,,,,,,,,,,,,,,,,,,,v,6.246999979,ALPHABV,FALSE,,,,,,,130,entrepa,Catalan,Sounds/cat_entrepa.mp3,2020-06-05_16h01.53.462,TranslationElicitation_eng-prolific,3.2.4,Win32,60,5e90c561bdeaf60737085250,,1,0,81,24,1,80
,,,,,,,,,,,,,,,,,,,,,,,,,,,,,,,,,,,,,,,,,,backspace,6.996999979,ALPHAB,TRUE,,,,,,,130,entrepa,Catalan,Sounds/cat_entrepa.mp3,2020-06-05_16h01.53.462,TranslationElicitation_eng-prolific,3.2.4,Win32,60,5e90c561bdeaf60737085250,,1,0,81,24,1,80
,,,,,,,,,,,,,,,,,,,,,,,,,,,,,,,,,,,,,,,,,,e,7.380000114,ALPHABE,TRUE,,,,,,,130,entrepa,Catalan,Sounds/cat_entrepa.mp3,2020-06-05_16h01.53.462,TranslationElicitation_eng-prolific,3.2.4,Win32,60,5e90c561bdeaf60737085250,,1,0,81,24,1,80
,,,,,,,,,,,,,,,,,,,,,,,,,,,,,,,,,,,,,,,,,,t,7.632000208,ALPHABET,TRUE,,,,,,,130,entrepa,Catalan,Sounds/cat_entrepa.mp3,2020-06-05_16h01.53.462,TranslationElicitation_eng-prolific,3.2.4,Win32,60,5e90c561bdeaf60737085250,,1,0,81,24,1,80
,,,,,,,,,,,,,,,,,,,,,,,,,,,,,,,,,,,,,,,,,,return,8.04700017,ALPHABET,TRUE,,,,,,,130,entrepa,Catalan,Sounds/cat_entrepa.mp3,2020-06-05_16h01.53.462,TranslationElicitation_eng-prolific,3.2.4,Win32,60,5e90c561bdeaf60737085250,8.04700017,1,0,81,24,1,80
,,,,,,,,,,,,,,,,,,,,,,,,,,,,,,,,,,,,,,,,,,,,,,,,,,,,130,entrepa,Catalan,Sounds/cat_entrepa.mp3,2020-06-05_16h01.53.462,TranslationElicitation_eng-prolific,3.2.4,Win32,60,5e90c561bdeaf60737085250,,1,0,81,24,1,80
,,,,,,,,,,,,,,,,,,,,,,,,,,,,,,,,,,,,,,,,,,d,2.381999969,D,FALSE,,,,,,,162,pa,Catalan,Sounds/cat_pa.mp3,2020-06-05_16h01.53.462,TranslationElicitation_eng-prolific,3.2.4,Win32,60,5e90c561bdeaf60737085250,,1,0,81,54,1,80
,,,,,,,,,,,,,,,,,,,,,,,,,,,,,,,,,,,,,,,,,,a,2.736999989,DA,FALSE,,,,,,,162,pa,Catalan,Sounds/cat_pa.mp3,2020-06-05_16h01.53.462,TranslationElicitation_eng-prolific,3.2.4,Win32,60,5e90c561bdeaf60737085250,,1,0,81,54,1,80
,,,,,,,,,,,,,,,,,,,,,,,,,,,,,,,,,,,,,,,,,,d,2.999000072,DAD,FALSE,,,,,,,162,pa,Catalan,Sounds/cat_pa.mp3,2020-06-05_16h01.53.462,TranslationElicitation_eng-prolific,3.2.4,Win32,60,5e90c561bdeaf60737085250,,1,0,81,54,1,80
,,,,,,,,,,,,,,,,,,,,,,,,,,,,,,,,,,,,,,,,,,return,3.131999969,DAD,FALSE,,,,,,,162,pa,Catalan,Sounds/cat_pa.mp3,2020-06-05_16h01.53.462,TranslationElicitation_eng-prolific,3.2.4,Win32,60,5e90c561bdeaf60737085250,3.131999969,1,0,81,54,1,80
,,,,,,,,,,,,,,,,,,,,,,,,,,,,,,,,,,,,,,,,,,,,,,,,,,,,162,pa,Catalan,Sounds/cat_pa.mp3,2020-06-05_16h01.53.462,TranslationElicitation_eng-prolific,3.2.4,Win32,60,5e90c561bdeaf60737085250,,1,0,81,54,1,80
,,,,,,,,,,,,,,,,,,,,,,,,,,,,,,,,,,,,,,,,,,f,3.865999937,F,FALSE,,,,,,,156,moto,Catalan,Sounds/cat_moto.mp3,2020-06-05_16h01.53.462,TranslationElicitation_eng-prolific,3.2.4,Win32,60,5e90c561bdeaf60737085250,,1,0,81,49,1,80
,,,,,,,,,,,,,,,,,,,,,,,,,,,,,,,,,,,,,,,,,,a,4.082999945,FA,FALSE,,,,,,,156,moto,Catalan,Sounds/cat_moto.mp3,2020-06-05_16h01.53.462,TranslationElicitation_eng-prolific,3.2.4,Win32,60,5e90c561bdeaf60737085250,,1,0,81,49,1,80
,,,,,,,,,,,,,,,,,,,,,,,,,,,,,,,,,,,,,,,,,,t,4.215999842,FAT,FALSE,,,,,,,156,moto,Catalan,Sounds/cat_moto.mp3,2020-06-05_16h01.53.462,TranslationElicitation_eng-prolific,3.2.4,Win32,60,5e90c561bdeaf60737085250,,1,0,81,49,1,80
,,,,,,,,,,,,,,,,,,,,,,,,,,,,,,,,,,,,,,,,,,return,4.682999849,FAT,FALSE,,,,,,,156,moto,Catalan,Sounds/cat_moto.mp3,2020-06-05_16h01.53.462,TranslationElicitation_eng-prolific,3.2.4,Win32,60,5e90c561bdeaf60737085250,4.682999849,1,0,81,49,1,80
,,,,,,,,,,,,,,,,,,,,,,,,,,,,,,,,,,,,,,,,,,,,,,,,,,,,156,moto,Catalan,Sounds/cat_moto.mp3,2020-06-05_16h01.53.462,TranslationElicitation_eng-prolific,3.2.4,Win32,60,5e90c561bdeaf60737085250,,1,0,81,49,1,80
,,,,,,,,,,,,,,,,,,,,,,,,,,,,,,,,,,,,,,,,,,c,2.417000055,C,FALSE,,,,,,,128,cuc,Catalan,Sounds/cat_cuc.mp3,2020-06-05_16h01.53.462,TranslationElicitation_eng-prolific,3.2.4,Win32,60,5e90c561bdeaf60737085250,,1,0,81,22,1,80
,,,,,,,,,,,,,,,,,,,,,,,,,,,,,,,,,,,,,,,,,,o,2.550000191,CO,FALSE,,,,,,,128,cuc,Catalan,Sounds/cat_cuc.mp3,2020-06-05_16h01.53.462,TranslationElicitation_eng-prolific,3.2.4,Win32,60,5e90c561bdeaf60737085250,,1,0,81,22,1,80
,,,,,,,,,,,,,,,,,,,,,,,,,,,,,,,,,,,,,,,,,,o,2.667000055,COO,FALSE,,,,,,,128,cuc,Catalan,Sounds/cat_cuc.mp3,2020-06-05_16h01.53.462,TranslationElicitation_eng-prolific,3.2.4,Win32,60,5e90c561bdeaf60737085250,,1,0,81,22,1,80
,,,,,,,,,,,,,,,,,,,,,,,,,,,,,,,,,,,,,,,,,,k,2.850000143,COOK,FALSE,,,,,,,128,cuc,Catalan,Sounds/cat_cuc.mp3,2020-06-05_16h01.53.462,TranslationElicitation_eng-prolific,3.2.4,Win32,60,5e90c561bdeaf60737085250,,1,0,81,22,1,80
,,,,,,,,,,,,,,,,,,,,,,,,,,,,,,,,,,,,,,,,,,return,3.805000067,COOK,FALSE,,,,,,,128,cuc,Catalan,Sounds/cat_cuc.mp3,2020-06-05_16h01.53.462,TranslationElicitation_eng-prolific,3.2.4,Win32,60,5e90c561bdeaf60737085250,3.805000067,1,0,81,22,1,80
,,,,,,,,,,,,,,,,,,,,,,,,,,,,,,,,,,,,,,,,,,,,,,,,,,,,128,cuc,Catalan,Sounds/cat_cuc.mp3,2020-06-05_16h01.53.462,TranslationElicitation_eng-prolific,3.2.4,Win32,60,5e90c561bdeaf60737085250,,1,0,81,22,1,80
,,,,,,,,,,,,,,,,,,,,,,,,,,,,,,,,,,,,,,,,,,l,2.281000137,L,FALSE,,,,,,,148,lleo,Catalan,Sounds/cat_lleo.mp3,2020-06-05_16h01.53.462,TranslationElicitation_eng-prolific,3.2.4,Win32,60,5e90c561bdeaf60737085250,,1,0,81,41,1,80
,,,,,,,,,,,,,,,,,,,,,,,,,,,,,,,,,,,,,,,,,,o,2.482000113,LO,FALSE,,,,,,,148,lleo,Catalan,Sounds/cat_lleo.mp3,2020-06-05_16h01.53.462,TranslationElicitation_eng-prolific,3.2.4,Win32,60,5e90c561bdeaf60737085250,,1,0,81,41,1,80
,,,,,,,,,,,,,,,,,,,,,,,,,,,,,,,,,,,,,,,,,,u,2.947000027,LOU,FALSE,,,,,,,148,lleo,Catalan,Sounds/cat_lleo.mp3,2020-06-05_16h01.53.462,TranslationElicitation_eng-prolific,3.2.4,Win32,60,5e90c561bdeaf60737085250,,1,0,81,41,1,80
,,,,,,,,,,,,,,,,,,,,,,,,,,,,,,,,,,,,,,,,,,d,3.214000225,LOUD,FALSE,,,,,,,148,lleo,Catalan,Sounds/cat_lleo.mp3,2020-06-05_16h01.53.462,TranslationElicitation_eng-prolific,3.2.4,Win32,60,5e90c561bdeaf60737085250,,1,0,81,41,1,80
,,,,,,,,,,,,,,,,,,,,,,,,,,,,,,,,,,,,,,,,,,return,3.452000141,LOUD,FALSE,,,,,,,148,lleo,Catalan,Sounds/cat_lleo.mp3,2020-06-05_16h01.53.462,TranslationElicitation_eng-prolific,3.2.4,Win32,60,5e90c561bdeaf60737085250,3.452000141,1,0,81,41,1,80
,,,,,,,,,,,,,,,,,,,,,,,,,,,,,,,,,,,,,,,,,,,,,,,,,,,,148,lleo,Catalan,Sounds/cat_lleo.mp3,2020-06-05_16h01.53.462,TranslationElicitation_eng-prolific,3.2.4,Win32,60,5e90c561bdeaf60737085250,,1,0,81,41,1,80
,,,,,,,,,,,,,,,,,,,,,,,,,,,,,,,,,,,,,,,,,,c,4.816999912,C,FALSE,,,,,,,125,colom,Catalan,Sounds/cat_colom.mp3,2020-06-05_16h01.53.462,TranslationElicitation_eng-prolific,3.2.4,Win32,60,5e90c561bdeaf60737085250,,1,0,81,20,1,80
,,,,,,,,,,,,,,,,,,,,,,,,,,,,,,,,,,,,,,,,,,o,4.949999809,CO,FALSE,,,,,,,125,colom,Catalan,Sounds/cat_colom.mp3,2020-06-05_16h01.53.462,TranslationElicitation_eng-prolific,3.2.4,Win32,60,5e90c561bdeaf60737085250,,1,0,81,20,1,80
,,,,,,,,,,,,,,,,,,,,,,,,,,,,,,,,,,,,,,,,,,l,5.248999834,COL,FALSE,,,,,,,125,colom,Catalan,Sounds/cat_colom.mp3,2020-06-05_16h01.53.462,TranslationElicitation_eng-prolific,3.2.4,Win32,60,5e90c561bdeaf60737085250,,1,0,81,20,1,80
,,,,,,,,,,,,,,,,,,,,,,,,,,,,,,,,,,,,,,,,,,u,5.849999905,COLU,FALSE,,,,,,,125,colom,Catalan,Sounds/cat_colom.mp3,2020-06-05_16h01.53.462,TranslationElicitation_eng-prolific,3.2.4,Win32,60,5e90c561bdeaf60737085250,,1,0,81,20,1,80
,,,,,,,,,,,,,,,,,,,,,,,,,,,,,,,,,,,,,,,,,,m,6.099999905,COLUM,FALSE,,,,,,,125,colom,Catalan,Sounds/cat_colom.mp3,2020-06-05_16h01.53.462,TranslationElicitation_eng-prolific,3.2.4,Win32,60,5e90c561bdeaf60737085250,,1,0,81,20,1,80
,,,,,,,,,,,,,,,,,,,,,,,,,,,,,,,,,,,,,,,,,,n,6.311999798,COLUMN,FALSE,,,,,,,125,colom,Catalan,Sounds/cat_colom.mp3,2020-06-05_16h01.53.462,TranslationElicitation_eng-prolific,3.2.4,Win32,60,5e90c561bdeaf60737085250,,1,0,81,20,1,80
,,,,,,,,,,,,,,,,,,,,,,,,,,,,,,,,,,,,,,,,,,return,6.781999826,COLUMN,FALSE,,,,,,,125,colom,Catalan,Sounds/cat_colom.mp3,2020-06-05_16h01.53.462,TranslationElicitation_eng-prolific,3.2.4,Win32,60,5e90c561bdeaf60737085250,6.781999826,1,0,81,20,1,80
,,,,,,,,,,,,,,,,,,,,,,,,,,,,,,,,,,,,,,,,,,,,,,,,,,,,125,colom,Catalan,Sounds/cat_colom.mp3,2020-06-05_16h01.53.462,TranslationElicitation_eng-prolific,3.2.4,Win32,60,5e90c561bdeaf60737085250,,1,0,81,20,1,80
,,,,,,,,,,,,,,,,,,,,,,,,,,,,,,,,,,,,,,,,,,f,1.449999809,F,FALSE,,,,,,,134,flor,Catalan,Sounds/cat_flor.mp3,2020-06-05_16h01.53.462,TranslationElicitation_eng-prolific,3.2.4,Win32,60,5e90c561bdeaf60737085250,,1,0,81,28,1,80
,,,,,,,,,,,,,,,,,,,,,,,,,,,,,,,,,,,,,,,,,,l,1.949999809,FL,FALSE,,,,,,,134,flor,Catalan,Sounds/cat_flor.mp3,2020-06-05_16h01.53.462,TranslationElicitation_eng-prolific,3.2.4,Win32,60,5e90c561bdeaf60737085250,,1,0,81,28,1,80
,,,,,,,,,,,,,,,,,,,,,,,,,,,,,,,,,,,,,,,,,,o,2.149999857,FLO,FALSE,,,,,,,134,flor,Catalan,Sounds/cat_flor.mp3,2020-06-05_16h01.53.462,TranslationElicitation_eng-prolific,3.2.4,Win32,60,5e90c561bdeaf60737085250,,1,0,81,28,1,80
,,,,,,,,,,,,,,,,,,,,,,,,,,,,,,,,,,,,,,,,,,o,2.30099988,FLOO,FALSE,,,,,,,134,flor,Catalan,Sounds/cat_flor.mp3,2020-06-05_16h01.53.462,TranslationElicitation_eng-prolific,3.2.4,Win32,60,5e90c561bdeaf60737085250,,1,0,81,28,1,80
,,,,,,,,,,,,,,,,,,,,,,,,,,,,,,,,,,,,,,,,,,r,2.566999912,FLOOR,FALSE,,,,,,,134,flor,Catalan,Sounds/cat_flor.mp3,2020-06-05_16h01.53.462,TranslationElicitation_eng-prolific,3.2.4,Win32,60,5e90c561bdeaf60737085250,,1,0,81,28,1,80
,,,,,,,,,,,,,,,,,,,,,,,,,,,,,,,,,,,,,,,,,,return,2.682999849,FLOOR,FALSE,,,,,,,134,flor,Catalan,Sounds/cat_flor.mp3,2020-06-05_16h01.53.462,TranslationElicitation_eng-prolific,3.2.4,Win32,60,5e90c561bdeaf60737085250,2.682999849,1,0,81,28,1,80
,,,,,,,,,,,,,,,,,,,,,,,,,,,,,,,,,,,,,,,,,,,,,,,,,,,,134,flor,Catalan,Sounds/cat_flor.mp3,2020-06-05_16h01.53.462,TranslationElicitation_eng-prolific,3.2.4,Win32,60,5e90c561bdeaf60737085250,,1,0,81,28,1,80
,,,,,,,,,,,,,,,,,,,,,,,,,,,,,,,,,,,,,,,,,,t,6.233999968,T,FALSE,,,,,,,122,casa,Catalan,Sounds/cat_casa.mp3,2020-06-05_16h01.53.462,TranslationElicitation_eng-prolific,3.2.4,Win32,60,5e90c561bdeaf60737085250,,1,0,81,17,1,80
,,,,,,,,,,,,,,,,,,,,,,,,,,,,,,,,,,,,,,,,,,o,6.383999825,TO,FALSE,,,,,,,122,casa,Catalan,Sounds/cat_casa.mp3,2020-06-05_16h01.53.462,TranslationElicitation_eng-prolific,3.2.4,Win32,60,5e90c561bdeaf60737085250,,1,0,81,17,1,80
,,,,,,,,,,,,,,,,,,,,,,,,,,,,,,,,,,,,,,,,,,i,6.549999952,TOI,FALSE,,,,,,,122,casa,Catalan,Sounds/cat_casa.mp3,2020-06-05_16h01.53.462,TranslationElicitation_eng-prolific,3.2.4,Win32,60,5e90c561bdeaf60737085250,,1,0,81,17,1,80
,,,,,,,,,,,,,,,,,,,,,,,,,,,,,,,,,,,,,,,,,,l,6.717999935,TOIL,FALSE,,,,,,,122,casa,Catalan,Sounds/cat_casa.mp3,2020-06-05_16h01.53.462,TranslationElicitation_eng-prolific,3.2.4,Win32,60,5e90c561bdeaf60737085250,,1,0,81,17,1,80
,,,,,,,,,,,,,,,,,,,,,,,,,,,,,,,,,,,,,,,,,,e,6.965999842,TOILE,FALSE,,,,,,,122,casa,Catalan,Sounds/cat_casa.mp3,2020-06-05_16h01.53.462,TranslationElicitation_eng-prolific,3.2.4,Win32,60,5e90c561bdeaf60737085250,,1,0,81,17,1,80
,,,,,,,,,,,,,,,,,,,,,,,,,,,,,,,,,,,,,,,,,,t,7.099999905,TOILET,FALSE,,,,,,,122,casa,Catalan,Sounds/cat_casa.mp3,2020-06-05_16h01.53.462,TranslationElicitation_eng-prolific,3.2.4,Win32,60,5e90c561bdeaf60737085250,,1,0,81,17,1,80
,,,,,,,,,,,,,,,,,,,,,,,,,,,,,,,,,,,,,,,,,,return,7.565999985,TOILET,FALSE,,,,,,,122,casa,Catalan,Sounds/cat_casa.mp3,2020-06-05_16h01.53.462,TranslationElicitation_eng-prolific,3.2.4,Win32,60,5e90c561bdeaf60737085250,7.565999985,1,0,81,17,1,80
,,,,,,,,,,,,,,,,,,,,,,,,,,,,,,,,,,,,,,,,,,,,,,,,,,,,122,casa,Catalan,Sounds/cat_casa.mp3,2020-06-05_16h01.53.462,TranslationElicitation_eng-prolific,3.2.4,Win32,60,5e90c561bdeaf60737085250,,1,0,81,17,1,80
,,,,,,,,,,,,,,,,,,,,,,,,,,,,,,,,,,,,,,,,,,l,2.038000107,L,FALSE,,,,,,,169,plat,Catalan,Sounds/cat_plat.mp3,2020-06-05_16h01.53.462,TranslationElicitation_eng-prolific,3.2.4,Win32,60,5e90c561bdeaf60737085250,,1,0,81,61,1,80
,,,,,,,,,,,,,,,,,,,,,,,,,,,,,,,,,,,,,,,,,,o,2.21600008,LO,FALSE,,,,,,,169,plat,Catalan,Sounds/cat_plat.mp3,2020-06-05_16h01.53.462,TranslationElicitation_eng-prolific,3.2.4,Win32,60,5e90c561bdeaf60737085250,,1,0,81,61,1,80
,,,,,,,,,,,,,,,,,,,,,,,,,,,,,,,,,,,,,,,,,,u,2.44900012,LOU,FALSE,,,,,,,169,plat,Catalan,Sounds/cat_plat.mp3,2020-06-05_16h01.53.462,TranslationElicitation_eng-prolific,3.2.4,Win32,60,5e90c561bdeaf60737085250,,1,0,81,61,1,80
,,,,,,,,,,,,,,,,,,,,,,,,,,,,,,,,,,,,,,,,,,d,2.69900012,LOUD,FALSE,,,,,,,169,plat,Catalan,Sounds/cat_plat.mp3,2020-06-05_16h01.53.462,TranslationElicitation_eng-prolific,3.2.4,Win32,60,5e90c561bdeaf60737085250,,1,0,81,61,1,80
,,,,,,,,,,,,,,,,,,,,,,,,,,,,,,,,,,,,,,,,,,return,2.782000065,LOUD,FALSE,,,,,,,169,plat,Catalan,Sounds/cat_plat.mp3,2020-06-05_16h01.53.462,TranslationElicitation_eng-prolific,3.2.4,Win32,60,5e90c561bdeaf60737085250,2.782000065,1,0,81,61,1,80
,,,,,,,,,,,,,,,,,,,,,,,,,,,,,,,,,,,,,,,,,,,,,,,,,,,,169,plat,Catalan,Sounds/cat_plat.mp3,2020-06-05_16h01.53.462,TranslationElicitation_eng-prolific,3.2.4,Win32,60,5e90c561bdeaf60737085250,,1,0,81,61,1,80
,,,,,,,,,,,,,,,,,,,,,,,,,,,,,,,,,,,,,,,,,,o,9.986000061,O,FALSE,,,,,,,171,pollastre,Catalan,Sounds/cat_pollastre.mp3,2020-06-05_16h01.53.462,TranslationElicitation_eng-prolific,3.2.4,Win32,60,5e90c561bdeaf60737085250,,1,0,81,63,1,80
,,,,,,,,,,,,,,,,,,,,,,,,,,,,,,,,,,,,,,,,,,backspace,10.58699989,,TRUE,,,,,,,171,pollastre,Catalan,Sounds/cat_pollastre.mp3,2020-06-05_16h01.53.462,TranslationElicitation_eng-prolific,3.2.4,Win32,60,5e90c561bdeaf60737085250,,1,0,81,63,1,80
,,,,,,,,,,,,,,,,,,,,,,,,,,,,,,,,,,,,,,,,,,p,11.08599997,P,TRUE,,,,,,,171,pollastre,Catalan,Sounds/cat_pollastre.mp3,2020-06-05_16h01.53.462,TranslationElicitation_eng-prolific,3.2.4,Win32,60,5e90c561bdeaf60737085250,,1,0,81,63,1,80
,,,,,,,,,,,,,,,,,,,,,,,,,,,,,,,,,,,,,,,,,,o,11.28600001,PO,TRUE,,,,,,,171,pollastre,Catalan,Sounds/cat_pollastre.mp3,2020-06-05_16h01.53.462,TranslationElicitation_eng-prolific,3.2.4,Win32,60,5e90c561bdeaf60737085250,,1,0,81,63,1,80
,,,,,,,,,,,,,,,,,,,,,,,,,,,,,,,,,,,,,,,,,,l,11.48600006,POL,TRUE,,,,,,,171,pollastre,Catalan,Sounds/cat_pollastre.mp3,2020-06-05_16h01.53.462,TranslationElicitation_eng-prolific,3.2.4,Win32,60,5e90c561bdeaf60737085250,,1,0,81,63,1,80
,,,,,,,,,,,,,,,,,,,,,,,,,,,,,,,,,,,,,,,,,,i,11.93600011,POLI,TRUE,,,,,,,171,pollastre,Catalan,Sounds/cat_pollastre.mp3,2020-06-05_16h01.53.462,TranslationElicitation_eng-prolific,3.2.4,Win32,60,5e90c561bdeaf60737085250,,1,0,81,63,1,80
,,,,,,,,,,,,,,,,,,,,,,,,,,,,,,,,,,,,,,,,,,c,12.10400009,POLIC,TRUE,,,,,,,171,pollastre,Catalan,Sounds/cat_pollastre.mp3,2020-06-05_16h01.53.462,TranslationElicitation_eng-prolific,3.2.4,Win32,60,5e90c561bdeaf60737085250,,1,0,81,63,1,80
,,,,,,,,,,,,,,,,,,,,,,,,,,,,,,,,,,,,,,,,,,e,12.42000008,POLICE,TRUE,,,,,,,171,pollastre,Catalan,Sounds/cat_pollastre.mp3,2020-06-05_16h01.53.462,TranslationElicitation_eng-prolific,3.2.4,Win32,60,5e90c561bdeaf60737085250,,1,0,81,63,1,80
,,,,,,,,,,,,,,,,,,,,,,,,,,,,,,,,,,,,,,,,,,return,12.5940001,POLICE,TRUE,,,,,,,171,pollastre,Catalan,Sounds/cat_pollastre.mp3,2020-06-05_16h01.53.462,TranslationElicitation_eng-prolific,3.2.4,Win32,60,5e90c561bdeaf60737085250,12.5940001,1,0,81,63,1,80
,,,,,,,,,,,,,,,,,,,,,,,,,,,,,,,,,,,,,,,,,,,,,,,,,,,,171,pollastre,Catalan,Sounds/cat_pollastre.mp3,2020-06-05_16h01.53.462,TranslationElicitation_eng-prolific,3.2.4,Win32,60,5e90c561bdeaf60737085250,,1,0,81,63,1,80
,,,,,,,,,,,,,,,,,,,,,,,,,,,,,,,,,,,,,,,,,,e,1.764999866,E,FALSE,,,,,,,175,raspall,Catalan,Sounds/cat_raspall.mp3,2020-06-05_16h01.53.462,TranslationElicitation_eng-prolific,3.2.4,Win32,60,5e90c561bdeaf60737085250,,1,0,81,67,1,80
,,,,,,,,,,,,,,,,,,,,,,,,,,,,,,,,,,,,,,,,,,s,2.065999985,ES,FALSE,,,,,,,175,raspall,Catalan,Sounds/cat_raspall.mp3,2020-06-05_16h01.53.462,TranslationElicitation_eng-prolific,3.2.4,Win32,60,5e90c561bdeaf60737085250,,1,0,81,67,1,80
,,,,,,,,,,,,,,,,,,,,,,,,,,,,,,,,,,,,,,,,,,t,2.248999834,EST,FALSE,,,,,,,175,raspall,Catalan,Sounds/cat_raspall.mp3,2020-06-05_16h01.53.462,TranslationElicitation_eng-prolific,3.2.4,Win32,60,5e90c561bdeaf60737085250,,1,0,81,67,1,80
,,,,,,,,,,,,,,,,,,,,,,,,,,,,,,,,,,,,,,,,,,a,2.468999863,ESTA,FALSE,,,,,,,175,raspall,Catalan,Sounds/cat_raspall.mp3,2020-06-05_16h01.53.462,TranslationElicitation_eng-prolific,3.2.4,Win32,60,5e90c561bdeaf60737085250,,1,0,81,67,1,80
,,,,,,,,,,,,,,,,,,,,,,,,,,,,,,,,,,,,,,,,,,backspace,2.980999947,EST,TRUE,,,,,,,175,raspall,Catalan,Sounds/cat_raspall.mp3,2020-06-05_16h01.53.462,TranslationElicitation_eng-prolific,3.2.4,Win32,60,5e90c561bdeaf60737085250,,1,0,81,67,1,80
,,,,,,,,,,,,,,,,,,,,,,,,,,,,,,,,,,,,,,,,,,backspace,3.164999962,ES,TRUE,,,,,,,175,raspall,Catalan,Sounds/cat_raspall.mp3,2020-06-05_16h01.53.462,TranslationElicitation_eng-prolific,3.2.4,Win32,60,5e90c561bdeaf60737085250,,1,0,81,67,1,80
,,,,,,,,,,,,,,,,,,,,,,,,,,,,,,,,,,,,,,,,,,backspace,3.315000057,E,TRUE,,,,,,,175,raspall,Catalan,Sounds/cat_raspall.mp3,2020-06-05_16h01.53.462,TranslationElicitation_eng-prolific,3.2.4,Win32,60,5e90c561bdeaf60737085250,,1,0,81,67,1,80
,,,,,,,,,,,,,,,,,,,,,,,,,,,,,,,,,,,,,,,,,,backspace,3.481999874,,TRUE,,,,,,,175,raspall,Catalan,Sounds/cat_raspall.mp3,2020-06-05_16h01.53.462,TranslationElicitation_eng-prolific,3.2.4,Win32,60,5e90c561bdeaf60737085250,,1,0,81,67,1,80
,,,,,,,,,,,,,,,,,,,,,,,,,,,,,,,,,,,,,,,,,,r,4.198999882,R,TRUE,,,,,,,175,raspall,Catalan,Sounds/cat_raspall.mp3,2020-06-05_16h01.53.462,TranslationElicitation_eng-prolific,3.2.4,Win32,60,5e90c561bdeaf60737085250,,1,0,81,67,1,80
,,,,,,,,,,,,,,,,,,,,,,,,,,,,,,,,,,,,,,,,,,e,4.381999969,RE,TRUE,,,,,,,175,raspall,Catalan,Sounds/cat_raspall.mp3,2020-06-05_16h01.53.462,TranslationElicitation_eng-prolific,3.2.4,Win32,60,5e90c561bdeaf60737085250,,1,0,81,67,1,80
,,,,,,,,,,,,,,,,,,,,,,,,,,,,,,,,,,,,,,,,,,s,4.664999962,RES,TRUE,,,,,,,175,raspall,Catalan,Sounds/cat_raspall.mp3,2020-06-05_16h01.53.462,TranslationElicitation_eng-prolific,3.2.4,Win32,60,5e90c561bdeaf60737085250,,1,0,81,67,1,80
,,,,,,,,,,,,,,,,,,,,,,,,,,,,,,,,,,,,,,,,,,t,6.391000032,REST,TRUE,,,,,,,175,raspall,Catalan,Sounds/cat_raspall.mp3,2020-06-05_16h01.53.462,TranslationElicitation_eng-prolific,3.2.4,Win32,60,5e90c561bdeaf60737085250,,1,0,81,67,1,80
,,,,,,,,,,,,,,,,,,,,,,,,,,,,,,,,,,,,,,,,,,a,6.598999977,RESTA,TRUE,,,,,,,175,raspall,Catalan,Sounds/cat_raspall.mp3,2020-06-05_16h01.53.462,TranslationElicitation_eng-prolific,3.2.4,Win32,60,5e90c561bdeaf60737085250,,1,0,81,67,1,80
,,,,,,,,,,,,,,,,,,,,,,,,,,,,,,,,,,,,,,,,,,u,8.381999969,RESTAU,TRUE,,,,,,,175,raspall,Catalan,Sounds/cat_raspall.mp3,2020-06-05_16h01.53.462,TranslationElicitation_eng-prolific,3.2.4,Win32,60,5e90c561bdeaf60737085250,,1,0,81,67,1,80
,,,,,,,,,,,,,,,,,,,,,,,,,,,,,,,,,,,,,,,,,,r,8.665999889,RESTAUR,TRUE,,,,,,,175,raspall,Catalan,Sounds/cat_raspall.mp3,2020-06-05_16h01.53.462,TranslationElicitation_eng-prolific,3.2.4,Win32,60,5e90c561bdeaf60737085250,,1,0,81,67,1,80
,,,,,,,,,,,,,,,,,,,,,,,,,,,,,,,,,,,,,,,,,,a,8.91899991,RESTAURA,TRUE,,,,,,,175,raspall,Catalan,Sounds/cat_raspall.mp3,2020-06-05_16h01.53.462,TranslationElicitation_eng-prolific,3.2.4,Win32,60,5e90c561bdeaf60737085250,,1,0,81,67,1,80
,,,,,,,,,,,,,,,,,,,,,,,,,,,,,,,,,,,,,,,,,,n,9.066999912,RESTAURAN,TRUE,,,,,,,175,raspall,Catalan,Sounds/cat_raspall.mp3,2020-06-05_16h01.53.462,TranslationElicitation_eng-prolific,3.2.4,Win32,60,5e90c561bdeaf60737085250,,1,0,81,67,1,80
,,,,,,,,,,,,,,,,,,,,,,,,,,,,,,,,,,,,,,,,,,t,9.531999826,RESTAURANT,TRUE,,,,,,,175,raspall,Catalan,Sounds/cat_raspall.mp3,2020-06-05_16h01.53.462,TranslationElicitation_eng-prolific,3.2.4,Win32,60,5e90c561bdeaf60737085250,,1,0,81,67,1,80
,,,,,,,,,,,,,,,,,,,,,,,,,,,,,,,,,,,,,,,,,,return,9.875999928,RESTAURANT,TRUE,,,,,,,175,raspall,Catalan,Sounds/cat_raspall.mp3,2020-06-05_16h01.53.462,TranslationElicitation_eng-prolific,3.2.4,Win32,60,5e90c561bdeaf60737085250,9.875999928,1,0,81,67,1,80
,,,,,,,,,,,,,,,,,,,,,,,,,,,,,,,,,,,,,,,,,,,,,,,,,,,,175,raspall,Catalan,Sounds/cat_raspall.mp3,2020-06-05_16h01.53.462,TranslationElicitation_eng-prolific,3.2.4,Win32,60,5e90c561bdeaf60737085250,,1,0,81,67,1,80
,,,,,,,,,,,,,,,,,,,,,,,,,,,,,,,,,,,,,,,,,,n,2.565999985,N,FALSE,,,,,,,158,nas,Catalan,Sounds/cat_nas.mp3,2020-06-05_16h01.53.462,TranslationElicitation_eng-prolific,3.2.4,Win32,60,5e90c561bdeaf60737085250,,1,0,81,51,1,80
,,,,,,,,,,,,,,,,,,,,,,,,,,,,,,,,,,,,,,,,,,o,2.883000135,NO,FALSE,,,,,,,158,nas,Catalan,Sounds/cat_nas.mp3,2020-06-05_16h01.53.462,TranslationElicitation_eng-prolific,3.2.4,Win32,60,5e90c561bdeaf60737085250,,1,0,81,51,1,80
,,,,,,,,,,,,,,,,,,,,,,,,,,,,,,,,,,,,,,,,,,return,3.282000065,NO,FALSE,,,,,,,158,nas,Catalan,Sounds/cat_nas.mp3,2020-06-05_16h01.53.462,TranslationElicitation_eng-prolific,3.2.4,Win32,60,5e90c561bdeaf60737085250,3.282000065,1,0,81,51,1,80
,,,,,,,,,,,,,,,,,,,,,,,,,,,,,,,,,,,,,,,,,,,,,,,,,,,,158,nas,Catalan,Sounds/cat_nas.mp3,2020-06-05_16h01.53.462,TranslationElicitation_eng-prolific,3.2.4,Win32,60,5e90c561bdeaf60737085250,,1,0,81,51,1,80
,,,,,,,,,,,,,,,,,,,,,,,,,,,,,,,,,,,,,,,,,,s,3.680000067,S,FALSE,,,,,,,177,sol,Catalan,Sounds/cat_sol.mp3,2020-06-05_16h01.53.462,TranslationElicitation_eng-prolific,3.2.4,Win32,60,5e90c561bdeaf60737085250,,1,0,81,69,1,80
,,,,,,,,,,,,,,,,,,,,,,,,,,,,,,,,,,,,,,,,,,o,3.863000154,SO,FALSE,,,,,,,177,sol,Catalan,Sounds/cat_sol.mp3,2020-06-05_16h01.53.462,TranslationElicitation_eng-prolific,3.2.4,Win32,60,5e90c561bdeaf60737085250,,1,0,81,69,1,80
,,,,,,,,,,,,,,,,,,,,,,,,,,,,,,,,,,,,,,,,,,n,4.197000027,SON,FALSE,,,,,,,177,sol,Catalan,Sounds/cat_sol.mp3,2020-06-05_16h01.53.462,TranslationElicitation_eng-prolific,3.2.4,Win32,60,5e90c561bdeaf60737085250,,1,0,81,69,1,80
,,,,,,,,,,,,,,,,,,,,,,,,,,,,,,,,,,,,,,,,,,backspace,4.782999992,SO,TRUE,,,,,,,177,sol,Catalan,Sounds/cat_sol.mp3,2020-06-05_16h01.53.462,TranslationElicitation_eng-prolific,3.2.4,Win32,60,5e90c561bdeaf60737085250,,1,0,81,69,1,80
,,,,,,,,,,,,,,,,,,,,,,,,,,,,,,,,,,,,,,,,,,m,5.413000107,SOM,TRUE,,,,,,,177,sol,Catalan,Sounds/cat_sol.mp3,2020-06-05_16h01.53.462,TranslationElicitation_eng-prolific,3.2.4,Win32,60,5e90c561bdeaf60737085250,,1,0,81,69,1,80
,,,,,,,,,,,,,,,,,,,,,,,,,,,,,,,,,,,,,,,,,,e,5.499000072,SOME,TRUE,,,,,,,177,sol,Catalan,Sounds/cat_sol.mp3,2020-06-05_16h01.53.462,TranslationElicitation_eng-prolific,3.2.4,Win32,60,5e90c561bdeaf60737085250,,1,0,81,69,1,80
,,,,,,,,,,,,,,,,,,,,,,,,,,,,,,,,,,,,,,,,,,t,6.196000099,SOMET,TRUE,,,,,,,177,sol,Catalan,Sounds/cat_sol.mp3,2020-06-05_16h01.53.462,TranslationElicitation_eng-prolific,3.2.4,Win32,60,5e90c561bdeaf60737085250,,1,0,81,69,1,80
,,,,,,,,,,,,,,,,,,,,,,,,,,,,,,,,,,,,,,,,,,i,6.313000202,SOMETI,TRUE,,,,,,,177,sol,Catalan,Sounds/cat_sol.mp3,2020-06-05_16h01.53.462,TranslationElicitation_eng-prolific,3.2.4,Win32,60,5e90c561bdeaf60737085250,,1,0,81,69,1,80
,,,,,,,,,,,,,,,,,,,,,,,,,,,,,,,,,,,,,,,,,,m,6.546000004,SOMETIM,TRUE,,,,,,,177,sol,Catalan,Sounds/cat_sol.mp3,2020-06-05_16h01.53.462,TranslationElicitation_eng-prolific,3.2.4,Win32,60,5e90c561bdeaf60737085250,,1,0,81,69,1,80
,,,,,,,,,,,,,,,,,,,,,,,,,,,,,,,,,,,,,,,,,,e,6.896000147,SOMETIME,TRUE,,,,,,,177,sol,Catalan,Sounds/cat_sol.mp3,2020-06-05_16h01.53.462,TranslationElicitation_eng-prolific,3.2.4,Win32,60,5e90c561bdeaf60737085250,,1,0,81,69,1,80
,,,,,,,,,,,,,,,,,,,,,,,,,,,,,,,,,,,,,,,,,,s,7.196000099,SOMETIMES,TRUE,,,,,,,177,sol,Catalan,Sounds/cat_sol.mp3,2020-06-05_16h01.53.462,TranslationElicitation_eng-prolific,3.2.4,Win32,60,5e90c561bdeaf60737085250,,1,0,81,69,1,80
,,,,,,,,,,,,,,,,,,,,,,,,,,,,,,,,,,,,,,,,,,return,7.328999996,SOMETIMES,TRUE,,,,,,,177,sol,Catalan,Sounds/cat_sol.mp3,2020-06-05_16h01.53.462,TranslationElicitation_eng-prolific,3.2.4,Win32,60,5e90c561bdeaf60737085250,7.328999996,1,0,81,69,1,80
,,,,,,,,,,,,,,,,,,,,,,,,,,,,,,,,,,,,,,,,,,,,,,,,,,,,177,sol,Catalan,Sounds/cat_sol.mp3,2020-06-05_16h01.53.462,TranslationElicitation_eng-prolific,3.2.4,Win32,60,5e90c561bdeaf60737085250,,1,0,81,69,1,80
,,,,,,,,,,,,,,,,,,,,,,,,,,,,,,,,,,,,,,,,,,p,2.232000113,P,FALSE,,,,,,,173,porc,Catalan,Sounds/cat_porc.mp3,2020-06-05_16h01.53.462,TranslationElicitation_eng-prolific,3.2.4,Win32,60,5e90c561bdeaf60737085250,,1,0,81,65,1,80
,,,,,,,,,,,,,,,,,,,,,,,,,,,,,,,,,,,,,,,,,,o,2.431999922,PO,FALSE,,,,,,,173,porc,Catalan,Sounds/cat_porc.mp3,2020-06-05_16h01.53.462,TranslationElicitation_eng-prolific,3.2.4,Win32,60,5e90c561bdeaf60737085250,,1,0,81,65,1,80
,,,,,,,,,,,,,,,,,,,,,,,,,,,,,,,,,,,,,,,,,,r,2.69900012,POR,FALSE,,,,,,,173,porc,Catalan,Sounds/cat_porc.mp3,2020-06-05_16h01.53.462,TranslationElicitation_eng-prolific,3.2.4,Win32,60,5e90c561bdeaf60737085250,,1,0,81,65,1,80
,,,,,,,,,,,,,,,,,,,,,,,,,,,,,,,,,,,,,,,,,,k,2.785000086,PORK,FALSE,,,,,,,173,porc,Catalan,Sounds/cat_porc.mp3,2020-06-05_16h01.53.462,TranslationElicitation_eng-prolific,3.2.4,Win32,60,5e90c561bdeaf60737085250,,1,0,81,65,1,80
,,,,,,,,,,,,,,,,,,,,,,,,,,,,,,,,,,,,,,,,,,return,2.997999907,PORK,FALSE,,,,,,,173,porc,Catalan,Sounds/cat_porc.mp3,2020-06-05_16h01.53.462,TranslationElicitation_eng-prolific,3.2.4,Win32,60,5e90c561bdeaf60737085250,2.997999907,1,0,81,65,1,80
,,,,,,,,,,,,,,,,,,,,,,,,,,,,,,,,,,,,,,,,,,,,,,,,,,,,173,porc,Catalan,Sounds/cat_porc.mp3,2020-06-05_16h01.53.462,TranslationElicitation_eng-prolific,3.2.4,Win32,60,5e90c561bdeaf60737085250,,1,0,81,65,1,80
,,,,,,,,,,,,,,,,,,,,,,,,,,,,,,,,,,,,,,,,,,m,4.184000015,M,FALSE,,,,,,,107,amanida,Catalan,Sounds/cat_amanida.mp3,2020-06-05_16h01.53.462,TranslationElicitation_eng-prolific,3.2.4,Win32,60,5e90c561bdeaf60737085250,,1,0,81,3,1,80
,,,,,,,,,,,,,,,,,,,,,,,,,,,,,,,,,,,,,,,,,,o,4.399999857,MO,FALSE,,,,,,,107,amanida,Catalan,Sounds/cat_amanida.mp3,2020-06-05_16h01.53.462,TranslationElicitation_eng-prolific,3.2.4,Win32,60,5e90c561bdeaf60737085250,,1,0,81,3,1,80
,,,,,,,,,,,,,,,,,,,,,,,,,,,,,,,,,,,,,,,,,,n,4.633999825,MON,FALSE,,,,,,,107,amanida,Catalan,Sounds/cat_amanida.mp3,2020-06-05_16h01.53.462,TranslationElicitation_eng-prolific,3.2.4,Win32,60,5e90c561bdeaf60737085250,,1,0,81,3,1,80
,,,,,,,,,,,,,,,,,,,,,,,,,,,,,,,,,,,,,,,,,,e,4.90199995,MONE,FALSE,,,,,,,107,amanida,Catalan,Sounds/cat_amanida.mp3,2020-06-05_16h01.53.462,TranslationElicitation_eng-prolific,3.2.4,Win32,60,5e90c561bdeaf60737085250,,1,0,81,3,1,80
,,,,,,,,,,,,,,,,,,,,,,,,,,,,,,,,,,,,,,,,,,y,5.016000032,MONEY,FALSE,,,,,,,107,amanida,Catalan,Sounds/cat_amanida.mp3,2020-06-05_16h01.53.462,TranslationElicitation_eng-prolific,3.2.4,Win32,60,5e90c561bdeaf60737085250,,1,0,81,3,1,80
,,,,,,,,,,,,,,,,,,,,,,,,,,,,,,,,,,,,,,,,,,return,5.382999897,MONEY,FALSE,,,,,,,107,amanida,Catalan,Sounds/cat_amanida.mp3,2020-06-05_16h01.53.462,TranslationElicitation_eng-prolific,3.2.4,Win32,60,5e90c561bdeaf60737085250,5.382999897,1,0,81,3,1,80
,,,,,,,,,,,,,,,,,,,,,,,,,,,,,,,,,,,,,,,,,,,,,,,,,,,,107,amanida,Catalan,Sounds/cat_amanida.mp3,2020-06-05_16h01.53.462,TranslationElicitation_eng-prolific,3.2.4,Win32,60,5e90c561bdeaf60737085250,,1,0,81,3,1,80
,,,,,,,,,,,,,,,,,,,,,,,,,,,,,,,,,,,,,,,,,,p,2.165999889,P,FALSE,,,,,,,170,ploma,Catalan,Sounds/cat_ploma.mp3,2020-06-05_16h01.53.462,TranslationElicitation_eng-prolific,3.2.4,Win32,60,5e90c561bdeaf60737085250,,1,0,81,62,1,80
,,,,,,,,,,,,,,,,,,,,,,,,,,,,,,,,,,,,,,,,,,u,2.582999945,PU,FALSE,,,,,,,170,ploma,Catalan,Sounds/cat_ploma.mp3,2020-06-05_16h01.53.462,TranslationElicitation_eng-prolific,3.2.4,Win32,60,5e90c561bdeaf60737085250,,1,0,81,62,1,80
,,,,,,,,,,,,,,,,,,,,,,,,,,,,,,,,,,,,,,,,,,r,2.882999897,PUR,FALSE,,,,,,,170,ploma,Catalan,Sounds/cat_ploma.mp3,2020-06-05_16h01.53.462,TranslationElicitation_eng-prolific,3.2.4,Win32,60,5e90c561bdeaf60737085250,,1,0,81,62,1,80
,,,,,,,,,,,,,,,,,,,,,,,,,,,,,,,,,,,,,,,,,,p,3.049000025,PURP,FALSE,,,,,,,170,ploma,Catalan,Sounds/cat_ploma.mp3,2020-06-05_16h01.53.462,TranslationElicitation_eng-prolific,3.2.4,Win32,60,5e90c561bdeaf60737085250,,1,0,81,62,1,80
,,,,,,,,,,,,,,,,,,,,,,,,,,,,,,,,,,,,,,,,,,l,3.217000008,PURPL,FALSE,,,,,,,170,ploma,Catalan,Sounds/cat_ploma.mp3,2020-06-05_16h01.53.462,TranslationElicitation_eng-prolific,3.2.4,Win32,60,5e90c561bdeaf60737085250,,1,0,81,62,1,80
,,,,,,,,,,,,,,,,,,,,,,,,,,,,,,,,,,,,,,,,,,e,3.365999937,PURPLE,FALSE,,,,,,,170,ploma,Catalan,Sounds/cat_ploma.mp3,2020-06-05_16h01.53.462,TranslationElicitation_eng-prolific,3.2.4,Win32,60,5e90c561bdeaf60737085250,,1,0,81,62,1,80
,,,,,,,,,,,,,,,,,,,,,,,,,,,,,,,,,,,,,,,,,,return,3.698999882,PURPLE,FALSE,,,,,,,170,ploma,Catalan,Sounds/cat_ploma.mp3,2020-06-05_16h01.53.462,TranslationElicitation_eng-prolific,3.2.4,Win32,60,5e90c561bdeaf60737085250,3.698999882,1,0,81,62,1,80
,,,,,,,,,,,,,,,,,,,,,,,,,,,,,,,,,,,,,,,,,,,,,,,,,,,,170,ploma,Catalan,Sounds/cat_ploma.mp3,2020-06-05_16h01.53.462,TranslationElicitation_eng-prolific,3.2.4,Win32,60,5e90c561bdeaf60737085250,,1,0,81,62,1,80
,,,,,,,,,,,,,,,,,,,,,,,,,,,,,,,,,,,,,,,,,,c,2.832999945,C,FALSE,,,,,,,119,caixa,Catalan,Sounds/cat_caixa.mp3,2020-06-05_16h01.53.462,TranslationElicitation_eng-prolific,3.2.4,Win32,60,5e90c561bdeaf60737085250,,1,0,81,14,1,80
,,,,,,,,,,,,,,,,,,,,,,,,,,,,,,,,,,,,,,,,,,a,3.233999968,CA,FALSE,,,,,,,119,caixa,Catalan,Sounds/cat_caixa.mp3,2020-06-05_16h01.53.462,TranslationElicitation_eng-prolific,3.2.4,Win32,60,5e90c561bdeaf60737085250,,1,0,81,14,1,80
,,,,,,,,,,,,,,,,,,,,,,,,,,,,,,,,,,,,,,,,,,s,3.465999842,CAS,FALSE,,,,,,,119,caixa,Catalan,Sounds/cat_caixa.mp3,2020-06-05_16h01.53.462,TranslationElicitation_eng-prolific,3.2.4,Win32,60,5e90c561bdeaf60737085250,,1,0,81,14,1,80
,,,,,,,,,,,,,,,,,,,,,,,,,,,,,,,,,,,,,,,,,,h,3.633999825,CASH,FALSE,,,,,,,119,caixa,Catalan,Sounds/cat_caixa.mp3,2020-06-05_16h01.53.462,TranslationElicitation_eng-prolific,3.2.4,Win32,60,5e90c561bdeaf60737085250,,1,0,81,14,1,80
,,,,,,,,,,,,,,,,,,,,,,,,,,,,,,,,,,,,,,,,,,return,4.598999977,CASH,FALSE,,,,,,,119,caixa,Catalan,Sounds/cat_caixa.mp3,2020-06-05_16h01.53.462,TranslationElicitation_eng-prolific,3.2.4,Win32,60,5e90c561bdeaf60737085250,4.598999977,1,0,81,14,1,80
,,,,,,,,,,,,,,,,,,,,,,,,,,,,,,,,,,,,,,,,,,,,,,,,,,,,119,caixa,Catalan,Sounds/cat_caixa.mp3,2020-06-05_16h01.53.462,TranslationElicitation_eng-prolific,3.2.4,Win32,60,5e90c561bdeaf60737085250,,1,0,81,14,1,80
,,,,,,,,,,,,,,,,,,,,,,,,,,,,,,,,,,,,,,,,,,a,1.934000015,A,FALSE,,,,,,,132,estrella,Catalan,Sounds/cat_estrella.mp3,2020-06-05_16h01.53.462,TranslationElicitation_eng-prolific,3.2.4,Win32,60,5e90c561bdeaf60737085250,,1,0,81,26,1,80
,,,,,,,,,,,,,,,,,,,,,,,,,,,,,,,,,,,,,,,,,,u,2.099999905,AU,FALSE,,,,,,,132,estrella,Catalan,Sounds/cat_estrella.mp3,2020-06-05_16h01.53.462,TranslationElicitation_eng-prolific,3.2.4,Win32,60,5e90c561bdeaf60737085250,,1,0,81,26,1,80
,,,,,,,,,,,,,,,,,,,,,,,,,,,,,,,,,,,,,,,,,,s,2.468999863,AUS,FALSE,,,,,,,132,estrella,Catalan,Sounds/cat_estrella.mp3,2020-06-05_16h01.53.462,TranslationElicitation_eng-prolific,3.2.4,Win32,60,5e90c561bdeaf60737085250,,1,0,81,26,1,80
,,,,,,,,,,,,,,,,,,,,,,,,,,,,,,,,,,,,,,,,,,t,2.651000023,AUST,FALSE,,,,,,,132,estrella,Catalan,Sounds/cat_estrella.mp3,2020-06-05_16h01.53.462,TranslationElicitation_eng-prolific,3.2.4,Win32,60,5e90c561bdeaf60737085250,,1,0,81,26,1,80
,,,,,,,,,,,,,,,,,,,,,,,,,,,,,,,,,,,,,,,,,,r,3.128000021,AUSTR,FALSE,,,,,,,132,estrella,Catalan,Sounds/cat_estrella.mp3,2020-06-05_16h01.53.462,TranslationElicitation_eng-prolific,3.2.4,Win32,60,5e90c561bdeaf60737085250,,1,0,81,26,1,80
,,,,,,,,,,,,,,,,,,,,,,,,,,,,,,,,,,,,,,,,,,a,3.303999901,AUSTRA,FALSE,,,,,,,132,estrella,Catalan,Sounds/cat_estrella.mp3,2020-06-05_16h01.53.462,TranslationElicitation_eng-prolific,3.2.4,Win32,60,5e90c561bdeaf60737085250,,1,0,81,26,1,80
,,,,,,,,,,,,,,,,,,,,,,,,,,,,,,,,,,,,,,,,,,l,3.666999817,AUSTRAL,FALSE,,,,,,,132,estrella,Catalan,Sounds/cat_estrella.mp3,2020-06-05_16h01.53.462,TranslationElicitation_eng-prolific,3.2.4,Win32,60,5e90c561bdeaf60737085250,,1,0,81,26,1,80
,,,,,,,,,,,,,,,,,,,,,,,,,,,,,,,,,,,,,,,,,,i,3.905999899,AUSTRALI,FALSE,,,,,,,132,estrella,Catalan,Sounds/cat_estrella.mp3,2020-06-05_16h01.53.462,TranslationElicitation_eng-prolific,3.2.4,Win32,60,5e90c561bdeaf60737085250,,1,0,81,26,1,80
,,,,,,,,,,,,,,,,,,,,,,,,,,,,,,,,,,,,,,,,,,a,4.03399992,AUSTRALIA,FALSE,,,,,,,132,estrella,Catalan,Sounds/cat_estrella.mp3,2020-06-05_16h01.53.462,TranslationElicitation_eng-prolific,3.2.4,Win32,60,5e90c561bdeaf60737085250,,1,0,81,26,1,80
,,,,,,,,,,,,,,,,,,,,,,,,,,,,,,,,,,,,,,,,,,return,4.233999968,AUSTRALIA,FALSE,,,,,,,132,estrella,Catalan,Sounds/cat_estrella.mp3,2020-06-05_16h01.53.462,TranslationElicitation_eng-prolific,3.2.4,Win32,60,5e90c561bdeaf60737085250,4.233999968,1,0,81,26,1,80
,,,,,,,,,,,,,,,,,,,,,,,,,,,,,,,,,,,,,,,,,,,,,,,,,,,,132,estrella,Catalan,Sounds/cat_estrella.mp3,2020-06-05_16h01.53.462,TranslationElicitation_eng-prolific,3.2.4,Win32,60,5e90c561bdeaf60737085250,,1,0,81,26,1,80
,,,,,,,,,,,,,,,,,,,,,,,,,,,,,,,,,,,,,,,,,,g,5.234999895,G,FALSE,,,,,,,127,cotxe,Catalan,Sounds/cat_cotxe.mp3,2020-06-05_16h01.53.462,TranslationElicitation_eng-prolific,3.2.4,Win32,60,5e90c561bdeaf60737085250,,1,0,81,21,1,80
,,,,,,,,,,,,,,,,,,,,,,,,,,,,,,,,,,,,,,,,,,o,5.353999853,GO,FALSE,,,,,,,127,cotxe,Catalan,Sounds/cat_cotxe.mp3,2020-06-05_16h01.53.462,TranslationElicitation_eng-prolific,3.2.4,Win32,60,5e90c561bdeaf60737085250,,1,0,81,21,1,80
,,,,,,,,,,,,,,,,,,,,,,,,,,,,,,,,,,,,,,,,,,t,5.520999908,GOT,FALSE,,,,,,,127,cotxe,Catalan,Sounds/cat_cotxe.mp3,2020-06-05_16h01.53.462,TranslationElicitation_eng-prolific,3.2.4,Win32,60,5e90c561bdeaf60737085250,,1,0,81,21,1,80
,,,,,,,,,,,,,,,,,,,,,,,,,,,,,,,,,,,,,,,,,,return,5.635999918,GOT,FALSE,,,,,,,127,cotxe,Catalan,Sounds/cat_cotxe.mp3,2020-06-05_16h01.53.462,TranslationElicitation_eng-prolific,3.2.4,Win32,60,5e90c561bdeaf60737085250,5.635999918,1,0,81,21,1,80
,,,,,,,,,,,,,,,,,,,,,,,,,,,,,,,,,,,,,,,,,,,,,,,,,,,,127,cotxe,Catalan,Sounds/cat_cotxe.mp3,2020-06-05_16h01.53.462,TranslationElicitation_eng-prolific,3.2.4,Win32,60,5e90c561bdeaf60737085250,,1,0,81,21,1,80
,,,,,,,,,,,,,,,,,,,,,,,,,,,,,,,,,,,,,,,,,,b,4.915999889,B,FALSE,,,,,,,116,bolquer,Catalan,Sounds/cat_bolquer.mp3,2020-06-05_16h01.53.462,TranslationElicitation_eng-prolific,3.2.4,Win32,60,5e90c561bdeaf60737085250,,1,0,81,11,1,80
,,,,,,,,,,,,,,,,,,,,,,,,,,,,,,,,,,,,,,,,,,e,5.116999865,BE,FALSE,,,,,,,116,bolquer,Catalan,Sounds/cat_bolquer.mp3,2020-06-05_16h01.53.462,TranslationElicitation_eng-prolific,3.2.4,Win32,60,5e90c561bdeaf60737085250,,1,0,81,11,1,80
,,,,,,,,,,,,,,,,,,,,,,,,,,,,,,,,,,,,,,,,,,l,5.615999937,BEL,FALSE,,,,,,,116,bolquer,Catalan,Sounds/cat_bolquer.mp3,2020-06-05_16h01.53.462,TranslationElicitation_eng-prolific,3.2.4,Win32,60,5e90c561bdeaf60737085250,,1,0,81,11,1,80
,,,,,,,,,,,,,,,,,,,,,,,,,,,,,,,,,,,,,,,,,,i,5.881999969,BELI,FALSE,,,,,,,116,bolquer,Catalan,Sounds/cat_bolquer.mp3,2020-06-05_16h01.53.462,TranslationElicitation_eng-prolific,3.2.4,Win32,60,5e90c561bdeaf60737085250,,1,0,81,11,1,80
,,,,,,,,,,,,,,,,,,,,,,,,,,,,,,,,,,,,,,,,,,e,6.282999992,BELIE,FALSE,,,,,,,116,bolquer,Catalan,Sounds/cat_bolquer.mp3,2020-06-05_16h01.53.462,TranslationElicitation_eng-prolific,3.2.4,Win32,60,5e90c561bdeaf60737085250,,1,0,81,11,1,80
,,,,,,,,,,,,,,,,,,,,,,,,,,,,,,,,,,,,,,,,,,v,6.928999901,BELIEV,FALSE,,,,,,,116,bolquer,Catalan,Sounds/cat_bolquer.mp3,2020-06-05_16h01.53.462,TranslationElicitation_eng-prolific,3.2.4,Win32,60,5e90c561bdeaf60737085250,,1,0,81,11,1,80
,,,,,,,,,,,,,,,,,,,,,,,,,,,,,,,,,,,,,,,,,,e,7.049000025,BELIEVE,FALSE,,,,,,,116,bolquer,Catalan,Sounds/cat_bolquer.mp3,2020-06-05_16h01.53.462,TranslationElicitation_eng-prolific,3.2.4,Win32,60,5e90c561bdeaf60737085250,,1,0,81,11,1,80
,,,,,,,,,,,,,,,,,,,,,,,,,,,,,,,,,,,,,,,,,,return,7.315000057,BELIEVE,FALSE,,,,,,,116,bolquer,Catalan,Sounds/cat_bolquer.mp3,2020-06-05_16h01.53.462,TranslationElicitation_eng-prolific,3.2.4,Win32,60,5e90c561bdeaf60737085250,7.315000057,1,0,81,11,1,80
,,,,,,,,,,,,,,,,,,,,,,,,,,,,,,,,,,,,,,,,,,,,,,,,,,,,116,bolquer,Catalan,Sounds/cat_bolquer.mp3,2020-06-05_16h01.53.462,TranslationElicitation_eng-prolific,3.2.4,Win32,60,5e90c561bdeaf60737085250,,1,0,81,11,1,80
,,,,,,,,,,,,,,,,,,,,,,,,,,,,,,,,,,,,,,,,,,b,3,B,FALSE,,,,,,,115,bolet,Catalan,Sounds/cat_bolet.mp3,2020-06-05_16h01.53.462,TranslationElicitation_eng-prolific,3.2.4,Win32,60,5e90c561bdeaf60737085250,,1,0,81,10,1,80
,,,,,,,,,,,,,,,,,,,,,,,,,,,,,,,,,,,,,,,,,,u,3.399999857,BU,FALSE,,,,,,,115,bolet,Catalan,Sounds/cat_bolet.mp3,2020-06-05_16h01.53.462,TranslationElicitation_eng-prolific,3.2.4,Win32,60,5e90c561bdeaf60737085250,,1,0,81,10,1,80
,,,,,,,,,,,,,,,,,,,,,,,,,,,,,,,,,,,,,,,,,,l,3.868000031,BUL,FALSE,,,,,,,115,bolet,Catalan,Sounds/cat_bolet.mp3,2020-06-05_16h01.53.462,TranslationElicitation_eng-prolific,3.2.4,Win32,60,5e90c561bdeaf60737085250,,1,0,81,10,1,80
,,,,,,,,,,,,,,,,,,,,,,,,,,,,,,,,,,,,,,,,,,l,4,BULL,FALSE,,,,,,,115,bolet,Catalan,Sounds/cat_bolet.mp3,2020-06-05_16h01.53.462,TranslationElicitation_eng-prolific,3.2.4,Win32,60,5e90c561bdeaf60737085250,,1,0,81,10,1,80
,,,,,,,,,,,,,,,,,,,,,,,,,,,,,,,,,,,,,,,,,,return,4.349999905,BULL,FALSE,,,,,,,115,bolet,Catalan,Sounds/cat_bolet.mp3,2020-06-05_16h01.53.462,TranslationElicitation_eng-prolific,3.2.4,Win32,60,5e90c561bdeaf60737085250,4.349999905,1,0,81,10,1,80
,,,,,,,,,,,,,,,,,,,,,,,,,,,,,,,,,,,,,,,,,,,,,,,,,,,,115,bolet,Catalan,Sounds/cat_bolet.mp3,2020-06-05_16h01.53.462,TranslationElicitation_eng-prolific,3.2.4,Win32,60,5e90c561bdeaf60737085250,,1,0,81,10,1,80
,,,,,,,,,,,,,,,,,,,,,,,,,,,,,,,,,,,,,,,,,,b,1.651000023,B,FALSE,,,,,,,114,bol,Catalan,Sounds/cat_bol.mp3,2020-06-05_16h01.53.462,TranslationElicitation_eng-prolific,3.2.4,Win32,60,5e90c561bdeaf60737085250,,1,0,81,9,1,80
,,,,,,,,,,,,,,,,,,,,,,,,,,,,,,,,,,,,,,,,,,a,1.989000082,BA,FALSE,,,,,,,114,bol,Catalan,Sounds/cat_bol.mp3,2020-06-05_16h01.53.462,TranslationElicitation_eng-prolific,3.2.4,Win32,60,5e90c561bdeaf60737085250,,1,0,81,9,1,80
,,,,,,,,,,,,,,,,,,,,,,,,,,,,,,,,,,,,,,,,,,l,2.167000055,BAL,FALSE,,,,,,,114,bol,Catalan,Sounds/cat_bol.mp3,2020-06-05_16h01.53.462,TranslationElicitation_eng-prolific,3.2.4,Win32,60,5e90c561bdeaf60737085250,,1,0,81,9,1,80
,,,,,,,,,,,,,,,,,,,,,,,,,,,,,,,,,,,,,,,,,,l,2.284000158,BALL,FALSE,,,,,,,114,bol,Catalan,Sounds/cat_bol.mp3,2020-06-05_16h01.53.462,TranslationElicitation_eng-prolific,3.2.4,Win32,60,5e90c561bdeaf60737085250,,1,0,81,9,1,80
,,,,,,,,,,,,,,,,,,,,,,,,,,,,,,,,,,,,,,,,,,return,2.48300004,BALL,FALSE,,,,,,,114,bol,Catalan,Sounds/cat_bol.mp3,2020-06-05_16h01.53.462,TranslationElicitation_eng-prolific,3.2.4,Win32,60,5e90c561bdeaf60737085250,2.48300004,1,0,81,9,1,80
,,,,,,,,,,,,,,,,,,,,,,,,,,,,,,,,,,,,,,,,,,,,,,,,,,,,114,bol,Catalan,Sounds/cat_bol.mp3,2020-06-05_16h01.53.462,TranslationElicitation_eng-prolific,3.2.4,Win32,60,5e90c561bdeaf60737085250,,1,0,81,9,1,80
,,,,,,,,,,,,,,,,,,,,,,,,,,,,,,,,,,,,,,,,,,b,3.600000143,B,FALSE,,,,,,,187,vaixell,Catalan,Sounds/cat_vaixell.mp3,2020-06-05_16h01.53.462,TranslationElicitation_eng-prolific,3.2.4,Win32,60,5e90c561bdeaf60737085250,,1,0,81,78,1,80
,,,,,,,,,,,,,,,,,,,,,,,,,,,,,,,,,,,,,,,,,,a,3.767000198,BA,FALSE,,,,,,,187,vaixell,Catalan,Sounds/cat_vaixell.mp3,2020-06-05_16h01.53.462,TranslationElicitation_eng-prolific,3.2.4,Win32,60,5e90c561bdeaf60737085250,,1,0,81,78,1,80
,,,,,,,,,,,,,,,,,,,,,,,,,,,,,,,,,,,,,,,,,,c,4.083000183,BAC,FALSE,,,,,,,187,vaixell,Catalan,Sounds/cat_vaixell.mp3,2020-06-05_16h01.53.462,TranslationElicitation_eng-prolific,3.2.4,Win32,60,5e90c561bdeaf60737085250,,1,0,81,78,1,80
,,,,,,,,,,,,,,,,,,,,,,,,,,,,,,,,,,,,,,,,,,k,4.284000158,BACK,FALSE,,,,,,,187,vaixell,Catalan,Sounds/cat_vaixell.mp3,2020-06-05_16h01.53.462,TranslationElicitation_eng-prolific,3.2.4,Win32,60,5e90c561bdeaf60737085250,,1,0,81,78,1,80
,,,,,,,,,,,,,,,,,,,,,,,,,,,,,,,,,,,,,,,,,,p,5,BACKP,FALSE,,,,,,,187,vaixell,Catalan,Sounds/cat_vaixell.mp3,2020-06-05_16h01.53.462,TranslationElicitation_eng-prolific,3.2.4,Win32,60,5e90c561bdeaf60737085250,,1,0,81,78,1,80
,,,,,,,,,,,,,,,,,,,,,,,,,,,,,,,,,,,,,,,,,,a,5.150000095,BACKPA,FALSE,,,,,,,187,vaixell,Catalan,Sounds/cat_vaixell.mp3,2020-06-05_16h01.53.462,TranslationElicitation_eng-prolific,3.2.4,Win32,60,5e90c561bdeaf60737085250,,1,0,81,78,1,80
,,,,,,,,,,,,,,,,,,,,,,,,,,,,,,,,,,,,,,,,,,c,5.600000143,BACKPAC,FALSE,,,,,,,187,vaixell,Catalan,Sounds/cat_vaixell.mp3,2020-06-05_16h01.53.462,TranslationElicitation_eng-prolific,3.2.4,Win32,60,5e90c561bdeaf60737085250,,1,0,81,78,1,80
,,,,,,,,,,,,,,,,,,,,,,,,,,,,,,,,,,,,,,,,,,k,5.700000048,BACKPACK,FALSE,,,,,,,187,vaixell,Catalan,Sounds/cat_vaixell.mp3,2020-06-05_16h01.53.462,TranslationElicitation_eng-prolific,3.2.4,Win32,60,5e90c561bdeaf60737085250,,1,0,81,78,1,80
,,,,,,,,,,,,,,,,,,,,,,,,,,,,,,,,,,,,,,,,,,return,5.900000095,BACKPACK,FALSE,,,,,,,187,vaixell,Catalan,Sounds/cat_vaixell.mp3,2020-06-05_16h01.53.462,TranslationElicitation_eng-prolific,3.2.4,Win32,60,5e90c561bdeaf60737085250,5.900000095,1,0,81,78,1,80
,,,,,,,,,,,,,,,,,,,,,,,,,,,,,,,,,,,,,,,,,,,,,,,,,,,,187,vaixell,Catalan,Sounds/cat_vaixell.mp3,2020-06-05_16h01.53.462,TranslationElicitation_eng-prolific,3.2.4,Win32,60,5e90c561bdeaf60737085250,,1,0,81,78,1,80
,,,,,,,,,,,,,,,,,,,,,,,,,,,,,,,,,,,,,,,,,,w,2.583000183,W,FALSE,,,,,,,144,gorra,Catalan,Sounds/cat_gorra.mp3,2020-06-05_16h01.53.462,TranslationElicitation_eng-prolific,3.2.4,Win32,60,5e90c561bdeaf60737085250,,1,0,81,38,1,80
,,,,,,,,,,,,,,,,,,,,,,,,,,,,,,,,,,,,,,,,,,h,2.71600008,WH,FALSE,,,,,,,144,gorra,Catalan,Sounds/cat_gorra.mp3,2020-06-05_16h01.53.462,TranslationElicitation_eng-prolific,3.2.4,Win32,60,5e90c561bdeaf60737085250,,1,0,81,38,1,80
,,,,,,,,,,,,,,,,,,,,,,,,,,,,,,,,,,,,,,,,,,i,2.950000048,WHI,FALSE,,,,,,,144,gorra,Catalan,Sounds/cat_gorra.mp3,2020-06-05_16h01.53.462,TranslationElicitation_eng-prolific,3.2.4,Win32,60,5e90c561bdeaf60737085250,,1,0,81,38,1,80
,,,,,,,,,,,,,,,,,,,,,,,,,,,,,,,,,,,,,,,,,,t,3.433000088,WHIT,FALSE,,,,,,,144,gorra,Catalan,Sounds/cat_gorra.mp3,2020-06-05_16h01.53.462,TranslationElicitation_eng-prolific,3.2.4,Win32,60,5e90c561bdeaf60737085250,,1,0,81,38,1,80
,,,,,,,,,,,,,,,,,,,,,,,,,,,,,,,,,,,,,,,,,,e,3.625,WHITE,FALSE,,,,,,,144,gorra,Catalan,Sounds/cat_gorra.mp3,2020-06-05_16h01.53.462,TranslationElicitation_eng-prolific,3.2.4,Win32,60,5e90c561bdeaf60737085250,,1,0,81,38,1,80
,,,,,,,,,,,,,,,,,,,,,,,,,,,,,,,,,,,,,,,,,,return,4.049000025,WHITE,FALSE,,,,,,,144,gorra,Catalan,Sounds/cat_gorra.mp3,2020-06-05_16h01.53.462,TranslationElicitation_eng-prolific,3.2.4,Win32,60,5e90c561bdeaf60737085250,4.049000025,1,0,81,38,1,80
,,,,,,,,,,,,,,,,,,,,,,,,,,,,,,,,,,,,,,,,,,,,,,,,,,,,144,gorra,Catalan,Sounds/cat_gorra.mp3,2020-06-05_16h01.53.462,TranslationElicitation_eng-prolific,3.2.4,Win32,60,5e90c561bdeaf60737085250,,1,0,81,38,1,80
,,,,,,,,,,,,,,,,,,,,,,,,,,,,,,,,,,,,,,,,,,r,2.205000162,R,FALSE,,,,,,,131,esponja,Catalan,Sounds/cat_esponja.mp3,2020-06-05_16h01.53.462,TranslationElicitation_eng-prolific,3.2.4,Win32,60,5e90c561bdeaf60737085250,,1,0,81,25,1,80
,,,,,,,,,,,,,,,,,,,,,,,,,,,,,,,,,,,,,,,,,,e,2.350000143,RE,FALSE,,,,,,,131,esponja,Catalan,Sounds/cat_esponja.mp3,2020-06-05_16h01.53.462,TranslationElicitation_eng-prolific,3.2.4,Win32,60,5e90c561bdeaf60737085250,,1,0,81,25,1,80
,,,,,,,,,,,,,,,,,,,,,,,,,,,,,,,,,,,,,,,,,,s,2.584000111,RES,FALSE,,,,,,,131,esponja,Catalan,Sounds/cat_esponja.mp3,2020-06-05_16h01.53.462,TranslationElicitation_eng-prolific,3.2.4,Win32,60,5e90c561bdeaf60737085250,,1,0,81,25,1,80
,,,,,,,,,,,,,,,,,,,,,,,,,,,,,,,,,,,,,,,,,,p,2.754000187,RESP,FALSE,,,,,,,131,esponja,Catalan,Sounds/cat_esponja.mp3,2020-06-05_16h01.53.462,TranslationElicitation_eng-prolific,3.2.4,Win32,60,5e90c561bdeaf60737085250,,1,0,81,25,1,80
,,,,,,,,,,,,,,,,,,,,,,,,,,,,,,,,,,,,,,,,,,o,3.685000181,RESPO,FALSE,,,,,,,131,esponja,Catalan,Sounds/cat_esponja.mp3,2020-06-05_16h01.53.462,TranslationElicitation_eng-prolific,3.2.4,Win32,60,5e90c561bdeaf60737085250,,1,0,81,25,1,80
,,,,,,,,,,,,,,,,,,,,,,,,,,,,,,,,,,,,,,,,,,n,3.972000122,RESPON,FALSE,,,,,,,131,esponja,Catalan,Sounds/cat_esponja.mp3,2020-06-05_16h01.53.462,TranslationElicitation_eng-prolific,3.2.4,Win32,60,5e90c561bdeaf60737085250,,1,0,81,25,1,80
,,,,,,,,,,,,,,,,,,,,,,,,,,,,,,,,,,,,,,,,,,d,4.283000231,RESPOND,FALSE,,,,,,,131,esponja,Catalan,Sounds/cat_esponja.mp3,2020-06-05_16h01.53.462,TranslationElicitation_eng-prolific,3.2.4,Win32,60,5e90c561bdeaf60737085250,,1,0,81,25,1,80
,,,,,,,,,,,,,,,,,,,,,,,,,,,,,,,,,,,,,,,,,,return,4.566000223,RESPOND,FALSE,,,,,,,131,esponja,Catalan,Sounds/cat_esponja.mp3,2020-06-05_16h01.53.462,TranslationElicitation_eng-prolific,3.2.4,Win32,60,5e90c561bdeaf60737085250,4.566000223,1,0,81,25,1,80
,,,,,,,,,,,,,,,,,,,,,,,,,,,,,,,,,,,,,,,,,,,,,,,,,,,,131,esponja,Catalan,Sounds/cat_esponja.mp3,2020-06-05_16h01.53.462,TranslationElicitation_eng-prolific,3.2.4,Win32,60,5e90c561bdeaf60737085250,,1,0,81,25,1,80
,,,,,,,,,,,,,,,,,,,,,,,,,,,,,,,,,,,,,,,,,,g,2.75,G,FALSE,,,,,,,140,gat,Catalan,Sounds/cat_gat.mp3,2020-06-05_16h01.53.462,TranslationElicitation_eng-prolific,3.2.4,Win32,60,5e90c561bdeaf60737085250,,1,0,81,34,1,80
,,,,,,,,,,,,,,,,,,,,,,,,,,,,,,,,,,,,,,,,,,a,2.96600008,GA,FALSE,,,,,,,140,gat,Catalan,Sounds/cat_gat.mp3,2020-06-05_16h01.53.462,TranslationElicitation_eng-prolific,3.2.4,Win32,60,5e90c561bdeaf60737085250,,1,0,81,34,1,80
,,,,,,,,,,,,,,,,,,,,,,,,,,,,,,,,,,,,,,,,,,y,3.065999985,GAY,FALSE,,,,,,,140,gat,Catalan,Sounds/cat_gat.mp3,2020-06-05_16h01.53.462,TranslationElicitation_eng-prolific,3.2.4,Win32,60,5e90c561bdeaf60737085250,,1,0,81,34,1,80
,,,,,,,,,,,,,,,,,,,,,,,,,,,,,,,,,,,,,,,,,,return,3.815999985,GAY,FALSE,,,,,,,140,gat,Catalan,Sounds/cat_gat.mp3,2020-06-05_16h01.53.462,TranslationElicitation_eng-prolific,3.2.4,Win32,60,5e90c561bdeaf60737085250,3.815999985,1,0,81,34,1,80
,,,,,,,,,,,,,,,,,,,,,,,,,,,,,,,,,,,,,,,,,,,,,,,,,,,,140,gat,Catalan,Sounds/cat_gat.mp3,2020-06-05_16h01.53.462,TranslationElicitation_eng-prolific,3.2.4,Win32,60,5e90c561bdeaf60737085250,,1,0,81,34,1,80
,,,,,,,,,,,,,,,,,,,,,,,,,,,,,,,,,,,,,,,,,,u,1.732999802,U,FALSE,,,,,,,157,mussol,Catalan,Sounds/cat_mussol.mp3,2020-06-05_16h01.53.462,TranslationElicitation_eng-prolific,3.2.4,Win32,60,5e90c561bdeaf60737085250,,1,0,81,50,1,80
,,,,,,,,,,,,,,,,,,,,,,,,,,,,,,,,,,,,,,,,,,s,1.997999907,US,FALSE,,,,,,,157,mussol,Catalan,Sounds/cat_mussol.mp3,2020-06-05_16h01.53.462,TranslationElicitation_eng-prolific,3.2.4,Win32,60,5e90c561bdeaf60737085250,,1,0,81,50,1,80
,,,,,,,,,,,,,,,,,,,,,,,,,,,,,,,,,,,,,,,,,,c,2.281999826,USC,FALSE,,,,,,,157,mussol,Catalan,Sounds/cat_mussol.mp3,2020-06-05_16h01.53.462,TranslationElicitation_eng-prolific,3.2.4,Win32,60,5e90c561bdeaf60737085250,,1,0,81,50,1,80
,,,,,,,,,,,,,,,,,,,,,,,,,,,,,,,,,,,,,,,,,,l,2.431999922,USCL,FALSE,,,,,,,157,mussol,Catalan,Sounds/cat_mussol.mp3,2020-06-05_16h01.53.462,TranslationElicitation_eng-prolific,3.2.4,Win32,60,5e90c561bdeaf60737085250,,1,0,81,50,1,80
,,,,,,,,,,,,,,,,,,,,,,,,,,,,,,,,,,,,,,,,,,e,2.581999779,USCLE,FALSE,,,,,,,157,mussol,Catalan,Sounds/cat_mussol.mp3,2020-06-05_16h01.53.462,TranslationElicitation_eng-prolific,3.2.4,Win32,60,5e90c561bdeaf60737085250,,1,0,81,50,1,80
,,,,,,,,,,,,,,,,,,,,,,,,,,,,,,,,,,,,,,,,,,backspace,3.072999954,USCL,TRUE,,,,,,,157,mussol,Catalan,Sounds/cat_mussol.mp3,2020-06-05_16h01.53.462,TranslationElicitation_eng-prolific,3.2.4,Win32,60,5e90c561bdeaf60737085250,,1,0,81,50,1,80
,,,,,,,,,,,,,,,,,,,,,,,,,,,,,,,,,,,,,,,,,,backspace,3.565999985,USC,TRUE,,,,,,,157,mussol,Catalan,Sounds/cat_mussol.mp3,2020-06-05_16h01.53.462,TranslationElicitation_eng-prolific,3.2.4,Win32,60,5e90c561bdeaf60737085250,,1,0,81,50,1,80
,,,,,,,,,,,,,,,,,,,,,,,,,,,,,,,,,,,,,,,,,,backspace,3.598999977,US,TRUE,,,,,,,157,mussol,Catalan,Sounds/cat_mussol.mp3,2020-06-05_16h01.53.462,TranslationElicitation_eng-prolific,3.2.4,Win32,60,5e90c561bdeaf60737085250,,1,0,81,50,1,80
,,,,,,,,,,,,,,,,,,,,,,,,,,,,,,,,,,,,,,,,,,backspace,3.615999937,U,TRUE,,,,,,,157,mussol,Catalan,Sounds/cat_mussol.mp3,2020-06-05_16h01.53.462,TranslationElicitation_eng-prolific,3.2.4,Win32,60,5e90c561bdeaf60737085250,,1,0,81,50,1,80
,,,,,,,,,,,,,,,,,,,,,,,,,,,,,,,,,,,,,,,,,,backspace,3.648999929,,TRUE,,,,,,,157,mussol,Catalan,Sounds/cat_mussol.mp3,2020-06-05_16h01.53.462,TranslationElicitation_eng-prolific,3.2.4,Win32,60,5e90c561bdeaf60737085250,,1,0,81,50,1,80
,,,,,,,,,,,,,,,,,,,,,,,,,,,,,,,,,,,,,,,,,,backspace,3.681999922,,TRUE,,,,,,,157,mussol,Catalan,Sounds/cat_mussol.mp3,2020-06-05_16h01.53.462,TranslationElicitation_eng-prolific,3.2.4,Win32,60,5e90c561bdeaf60737085250,,1,0,81,50,1,80
,,,,,,,,,,,,,,,,,,,,,,,,,,,,,,,,,,,,,,,,,,backspace,3.715999842,,TRUE,,,,,,,157,mussol,Catalan,Sounds/cat_mussol.mp3,2020-06-05_16h01.53.462,TranslationElicitation_eng-prolific,3.2.4,Win32,60,5e90c561bdeaf60737085250,,1,0,81,50,1,80
,,,,,,,,,,,,,,,,,,,,,,,,,,,,,,,,,,,,,,,,,,backspace,3.733999968,,TRUE,,,,,,,157,mussol,Catalan,Sounds/cat_mussol.mp3,2020-06-05_16h01.53.462,TranslationElicitation_eng-prolific,3.2.4,Win32,60,5e90c561bdeaf60737085250,,1,0,81,50,1,80
,,,,,,,,,,,,,,,,,,,,,,,,,,,,,,,,,,,,,,,,,,backspace,3.765999794,,TRUE,,,,,,,157,mussol,Catalan,Sounds/cat_mussol.mp3,2020-06-05_16h01.53.462,TranslationElicitation_eng-prolific,3.2.4,Win32,60,5e90c561bdeaf60737085250,,1,0,81,50,1,80
,,,,,,,,,,,,,,,,,,,,,,,,,,,,,,,,,,,,,,,,,,backspace,3.798999786,,TRUE,,,,,,,157,mussol,Catalan,Sounds/cat_mussol.mp3,2020-06-05_16h01.53.462,TranslationElicitation_eng-prolific,3.2.4,Win32,60,5e90c561bdeaf60737085250,,1,0,81,50,1,80
,,,,,,,,,,,,,,,,,,,,,,,,,,,,,,,,,,,,,,,,,,backspace,3.831999779,,TRUE,,,,,,,157,mussol,Catalan,Sounds/cat_mussol.mp3,2020-06-05_16h01.53.462,TranslationElicitation_eng-prolific,3.2.4,Win32,60,5e90c561bdeaf60737085250,,1,0,81,50,1,80
,,,,,,,,,,,,,,,,,,,,,,,,,,,,,,,,,,,,,,,,,,backspace,3.865999937,,TRUE,,,,,,,157,mussol,Catalan,Sounds/cat_mussol.mp3,2020-06-05_16h01.53.462,TranslationElicitation_eng-prolific,3.2.4,Win32,60,5e90c561bdeaf60737085250,,1,0,81,50,1,80
,,,,,,,,,,,,,,,,,,,,,,,,,,,,,,,,,,,,,,,,,,m,4.348999977,M,TRUE,,,,,,,157,mussol,Catalan,Sounds/cat_mussol.mp3,2020-06-05_16h01.53.462,TranslationElicitation_eng-prolific,3.2.4,Win32,60,5e90c561bdeaf60737085250,,1,0,81,50,1,80
,,,,,,,,,,,,,,,,,,,,,,,,,,,,,,,,,,,,,,,,,,u,4.581999779,MU,TRUE,,,,,,,157,mussol,Catalan,Sounds/cat_mussol.mp3,2020-06-05_16h01.53.462,TranslationElicitation_eng-prolific,3.2.4,Win32,60,5e90c561bdeaf60737085250,,1,0,81,50,1,80
