consentKey.keys,consentKey.rt,languageL1Key.keys,languageL1Key.rt,languageL2,languageL2OralKey.keys,languageL2OralKey.rt,languageL2WrittenKey.keys,languageL2WrittenKey.rt,languageL3OralKey.keys,languageL3OralKey.rt,languageL3WrittenKey.keys,languageL3WrittenKey.rt,languageCatalanOralKey.keys,languageCatalanOralKey.rt,languageCatalanWrittenKey.keys,languageCatalanWrittenKey.rt,languageCatalanTimeKey.keys,languageCatalanTimeKey.rt,languageSpanishOralKey.keys,languageSpanishOralKey.rt,languageSpanishWrittenKey.keys,languageSpanishWrittenKey.rt,languageSpanishTimeKey.keys,languageSpanishTimeKey.rt,age,demoSexKey.keys,demoSexKey.rt,demoEducationKey.keys,demoEducationKey.rt,city,demoVisionKey.keys,demoVisionKey.rt,demoLanguageKey.keys,demoLanguageKey.rt,setupLocationKey.keys,setupLocationKey.rt,setupNoiseKey.keys,setupNoiseKey.rt,instructionsKeys.keys,instructionsKeys.rt,keyPressed,keyPressTime,inputText,error,trialsPracticeSpanish.thisRepN,trialsPracticeSpanish.thisTrialN,trialsPracticeSpanish.thisN,trialsPracticeSpanish.thisIndex,trialsPracticeSpanish.ran,trialsPracticeSpanish.order,trial_id,word,test_language,soundfile,date,expName,psychopyVersion,OS,frameRate,participant,trialOffset,trialsSpanish.thisRepN,trialsSpanish.thisTrialN,trialsSpanish.thisN,trialsSpanish.thisIndex,trialsSpanish.ran,trialsSpanish.order
space,11.60100007,e,7.725000143,,,,,,,,,,1,16.59500027,1,11.7900002,3,32.8440001,2,11.53700018,1,12.00300026,3,8.48900032,21,f,3.848999977,4,11.63300014,LANCASTER,y,14.20600009,n,5.923000336,1,5.753000259,1,16.07200027,space,34.7670002,h,5.031000137,H,FALSE,1,0,5,3,1,4,70,ola,Spanish,Sounds/spa_ola.mp3,2020-06-05_15h36.21.439,TranslationElicitation_eng-prolific,3.2.4,Win32,60,5e95befc3834c10008c19c43,,,,,,,
,,,,,,,,,,,,,,,,,,,,,,,,,,,,,,,,,,,,,,,,,e,5.34800005,HE,FALSE,1,0,5,3,1,4,70,ola,Spanish,Sounds/spa_ola.mp3,2020-06-05_15h36.21.439,TranslationElicitation_eng-prolific,3.2.4,Win32,60,5e95befc3834c10008c19c43,,,,,,,
,,,,,,,,,,,,,,,,,,,,,,,,,,,,,,,,,,,,,,,,,l,6.11500001,HEL,FALSE,1,0,5,3,1,4,70,ola,Spanish,Sounds/spa_ola.mp3,2020-06-05_15h36.21.439,TranslationElicitation_eng-prolific,3.2.4,Win32,60,5e95befc3834c10008c19c43,,,,,,,
,,,,,,,,,,,,,,,,,,,,,,,,,,,,,,,,,,,,,,,,,l,6.248000145,HELL,FALSE,1,0,5,3,1,4,70,ola,Spanish,Sounds/spa_ola.mp3,2020-06-05_15h36.21.439,TranslationElicitation_eng-prolific,3.2.4,Win32,60,5e95befc3834c10008c19c43,,,,,,,
,,,,,,,,,,,,,,,,,,,,,,,,,,,,,,,,,,,,,,,,,o,6.433000088,HELLO,FALSE,1,0,5,3,1,4,70,ola,Spanish,Sounds/spa_ola.mp3,2020-06-05_15h36.21.439,TranslationElicitation_eng-prolific,3.2.4,Win32,60,5e95befc3834c10008c19c43,,,,,,,
,,,,,,,,,,,,,,,,,,,,,,,,,,,,,,,,,,,,,,,,,return,11.49800014,HELLO,FALSE,1,0,5,3,1,4,70,ola,Spanish,Sounds/spa_ola.mp3,2020-06-05_15h36.21.439,TranslationElicitation_eng-prolific,3.2.4,Win32,60,5e95befc3834c10008c19c43,11.49800014,,,,,,
,,,,,,,,,,,,,,,,,,,,,,,,,,,,,,,,,,,,,,,,,,,,,1,0,5,3,1,4,70,ola,Spanish,Sounds/spa_ola.mp3,2020-06-05_15h36.21.439,TranslationElicitation_eng-prolific,3.2.4,Win32,60,5e95befc3834c10008c19c43,,,,,,,
,,,,,,,,,,,,,,,,,,,,,,,,,,,,,,,,,,,,,,,,,j,5.73300004,J,FALSE,1,0,5,2,1,4,26,chaqueta,Spanish,Sounds/spa_chaqueta.mp3,2020-06-05_15h36.21.439,TranslationElicitation_eng-prolific,3.2.4,Win32,60,5e95befc3834c10008c19c43,,,,,,,
,,,,,,,,,,,,,,,,,,,,,,,,,,,,,,,,,,,,,,,,,a,5.90199995,JA,FALSE,1,0,5,2,1,4,26,chaqueta,Spanish,Sounds/spa_chaqueta.mp3,2020-06-05_15h36.21.439,TranslationElicitation_eng-prolific,3.2.4,Win32,60,5e95befc3834c10008c19c43,,,,,,,
,,,,,,,,,,,,,,,,,,,,,,,,,,,,,,,,,,,,,,,,,c,6.165999889,JAC,FALSE,1,0,5,2,1,4,26,chaqueta,Spanish,Sounds/spa_chaqueta.mp3,2020-06-05_15h36.21.439,TranslationElicitation_eng-prolific,3.2.4,Win32,60,5e95befc3834c10008c19c43,,,,,,,
,,,,,,,,,,,,,,,,,,,,,,,,,,,,,,,,,,,,,,,,,k,6.299000025,JACK,FALSE,1,0,5,2,1,4,26,chaqueta,Spanish,Sounds/spa_chaqueta.mp3,2020-06-05_15h36.21.439,TranslationElicitation_eng-prolific,3.2.4,Win32,60,5e95befc3834c10008c19c43,,,,,,,
,,,,,,,,,,,,,,,,,,,,,,,,,,,,,,,,,,,,,,,,,e,6.433000088,JACKE,FALSE,1,0,5,2,1,4,26,chaqueta,Spanish,Sounds/spa_chaqueta.mp3,2020-06-05_15h36.21.439,TranslationElicitation_eng-prolific,3.2.4,Win32,60,5e95befc3834c10008c19c43,,,,,,,
,,,,,,,,,,,,,,,,,,,,,,,,,,,,,,,,,,,,,,,,,t,6.616999865,JACKET,FALSE,1,0,5,2,1,4,26,chaqueta,Spanish,Sounds/spa_chaqueta.mp3,2020-06-05_15h36.21.439,TranslationElicitation_eng-prolific,3.2.4,Win32,60,5e95befc3834c10008c19c43,,,,,,,
,,,,,,,,,,,,,,,,,,,,,,,,,,,,,,,,,,,,,,,,,return,7.665999889,JACKET,FALSE,1,0,5,2,1,4,26,chaqueta,Spanish,Sounds/spa_chaqueta.mp3,2020-06-05_15h36.21.439,TranslationElicitation_eng-prolific,3.2.4,Win32,60,5e95befc3834c10008c19c43,7.665999889,,,,,,
,,,,,,,,,,,,,,,,,,,,,,,,,,,,,,,,,,,,,,,,,,,,,1,0,5,2,1,4,26,chaqueta,Spanish,Sounds/spa_chaqueta.mp3,2020-06-05_15h36.21.439,TranslationElicitation_eng-prolific,3.2.4,Win32,60,5e95befc3834c10008c19c43,,,,,,,
,,,,,,,,,,,,,,,,,,,,,,,,,,,,,,,,,,,,,,,,,h,14.33200002,H,FALSE,1,0,5,0,1,4,1,arbol,Spanish,Sounds/spa_arbol.mp3,2020-06-05_15h36.21.439,TranslationElicitation_eng-prolific,3.2.4,Win32,60,5e95befc3834c10008c19c43,,,,,,,
,,,,,,,,,,,,,,,,,,,,,,,,,,,,,,,,,,,,,,,,,o,14.49900007,HO,FALSE,1,0,5,0,1,4,1,arbol,Spanish,Sounds/spa_arbol.mp3,2020-06-05_15h36.21.439,TranslationElicitation_eng-prolific,3.2.4,Win32,60,5e95befc3834c10008c19c43,,,,,,,
,,,,,,,,,,,,,,,,,,,,,,,,,,,,,,,,,,,,,,,,,r,14.64900017,HOR,FALSE,1,0,5,0,1,4,1,arbol,Spanish,Sounds/spa_arbol.mp3,2020-06-05_15h36.21.439,TranslationElicitation_eng-prolific,3.2.4,Win32,60,5e95befc3834c10008c19c43,,,,,,,
,,,,,,,,,,,,,,,,,,,,,,,,,,,,,,,,,,,,,,,,,r,14.79900002,HORR,FALSE,1,0,5,0,1,4,1,arbol,Spanish,Sounds/spa_arbol.mp3,2020-06-05_15h36.21.439,TranslationElicitation_eng-prolific,3.2.4,Win32,60,5e95befc3834c10008c19c43,,,,,,,
,,,,,,,,,,,,,,,,,,,,,,,,,,,,,,,,,,,,,,,,,i,14.88400006,HORRI,FALSE,1,0,5,0,1,4,1,arbol,Spanish,Sounds/spa_arbol.mp3,2020-06-05_15h36.21.439,TranslationElicitation_eng-prolific,3.2.4,Win32,60,5e95befc3834c10008c19c43,,,,,,,
,,,,,,,,,,,,,,,,,,,,,,,,,,,,,,,,,,,,,,,,,b,15.03200006,HORRIB,FALSE,1,0,5,0,1,4,1,arbol,Spanish,Sounds/spa_arbol.mp3,2020-06-05_15h36.21.439,TranslationElicitation_eng-prolific,3.2.4,Win32,60,5e95befc3834c10008c19c43,,,,,,,
,,,,,,,,,,,,,,,,,,,,,,,,,,,,,,,,,,,,,,,,,l,15.24900007,HORRIBL,FALSE,1,0,5,0,1,4,1,arbol,Spanish,Sounds/spa_arbol.mp3,2020-06-05_15h36.21.439,TranslationElicitation_eng-prolific,3.2.4,Win32,60,5e95befc3834c10008c19c43,,,,,,,
,,,,,,,,,,,,,,,,,,,,,,,,,,,,,,,,,,,,,,,,,e,15.43200016,HORRIBLE,FALSE,1,0,5,0,1,4,1,arbol,Spanish,Sounds/spa_arbol.mp3,2020-06-05_15h36.21.439,TranslationElicitation_eng-prolific,3.2.4,Win32,60,5e95befc3834c10008c19c43,,,,,,,
,,,,,,,,,,,,,,,,,,,,,,,,,,,,,,,,,,,,,,,,,backspace,17.5150001,HORRIBL,TRUE,1,0,5,0,1,4,1,arbol,Spanish,Sounds/spa_arbol.mp3,2020-06-05_15h36.21.439,TranslationElicitation_eng-prolific,3.2.4,Win32,60,5e95befc3834c10008c19c43,,,,,,,
,,,,,,,,,,,,,,,,,,,,,,,,,,,,,,,,,,,,,,,,,backspace,17.8670001,HORRIB,TRUE,1,0,5,0,1,4,1,arbol,Spanish,Sounds/spa_arbol.mp3,2020-06-05_15h36.21.439,TranslationElicitation_eng-prolific,3.2.4,Win32,60,5e95befc3834c10008c19c43,,,,,,,
,,,,,,,,,,,,,,,,,,,,,,,,,,,,,,,,,,,,,,,,,backspace,18.03200006,HORRI,TRUE,1,0,5,0,1,4,1,arbol,Spanish,Sounds/spa_arbol.mp3,2020-06-05_15h36.21.439,TranslationElicitation_eng-prolific,3.2.4,Win32,60,5e95befc3834c10008c19c43,,,,,,,
,,,,,,,,,,,,,,,,,,,,,,,,,,,,,,,,,,,,,,,,,backspace,18.14900017,HORR,TRUE,1,0,5,0,1,4,1,arbol,Spanish,Sounds/spa_arbol.mp3,2020-06-05_15h36.21.439,TranslationElicitation_eng-prolific,3.2.4,Win32,60,5e95befc3834c10008c19c43,,,,,,,
,,,,,,,,,,,,,,,,,,,,,,,,,,,,,,,,,,,,,,,,,backspace,18.33200002,HOR,TRUE,1,0,5,0,1,4,1,arbol,Spanish,Sounds/spa_arbol.mp3,2020-06-05_15h36.21.439,TranslationElicitation_eng-prolific,3.2.4,Win32,60,5e95befc3834c10008c19c43,,,,,,,
,,,,,,,,,,,,,,,,,,,,,,,,,,,,,,,,,,,,,,,,,backspace,18.48200011,HO,TRUE,1,0,5,0,1,4,1,arbol,Spanish,Sounds/spa_arbol.mp3,2020-06-05_15h36.21.439,TranslationElicitation_eng-prolific,3.2.4,Win32,60,5e95befc3834c10008c19c43,,,,,,,
,,,,,,,,,,,,,,,,,,,,,,,,,,,,,,,,,,,,,,,,,backspace,18.59899998,H,TRUE,1,0,5,0,1,4,1,arbol,Spanish,Sounds/spa_arbol.mp3,2020-06-05_15h36.21.439,TranslationElicitation_eng-prolific,3.2.4,Win32,60,5e95befc3834c10008c19c43,,,,,,,
,,,,,,,,,,,,,,,,,,,,,,,,,,,,,,,,,,,,,,,,,backspace,18.73200011,,TRUE,1,0,5,0,1,4,1,arbol,Spanish,Sounds/spa_arbol.mp3,2020-06-05_15h36.21.439,TranslationElicitation_eng-prolific,3.2.4,Win32,60,5e95befc3834c10008c19c43,,,,,,,
,,,,,,,,,,,,,,,,,,,,,,,,,,,,,,,,,,,,,,,,,w,19.33200002,W,TRUE,1,0,5,0,1,4,1,arbol,Spanish,Sounds/spa_arbol.mp3,2020-06-05_15h36.21.439,TranslationElicitation_eng-prolific,3.2.4,Win32,60,5e95befc3834c10008c19c43,,,,,,,
,,,,,,,,,,,,,,,,,,,,,,,,,,,,,,,,,,,,,,,,,a,19.49900007,WA,TRUE,1,0,5,0,1,4,1,arbol,Spanish,Sounds/spa_arbol.mp3,2020-06-05_15h36.21.439,TranslationElicitation_eng-prolific,3.2.4,Win32,60,5e95befc3834c10008c19c43,,,,,,,
,,,,,,,,,,,,,,,,,,,,,,,,,,,,,,,,,,,,,,,,,l,19.64900017,WAL,TRUE,1,0,5,0,1,4,1,arbol,Spanish,Sounds/spa_arbol.mp3,2020-06-05_15h36.21.439,TranslationElicitation_eng-prolific,3.2.4,Win32,60,5e95befc3834c10008c19c43,,,,,,,
,,,,,,,,,,,,,,,,,,,,,,,,,,,,,,,,,,,,,,,,,l,19.7650001,WALL,TRUE,1,0,5,0,1,4,1,arbol,Spanish,Sounds/spa_arbol.mp3,2020-06-05_15h36.21.439,TranslationElicitation_eng-prolific,3.2.4,Win32,60,5e95befc3834c10008c19c43,,,,,,,
,,,,,,,,,,,,,,,,,,,,,,,,,,,,,,,,,,,,,,,,,return,20.43200016,WALL,TRUE,1,0,5,0,1,4,1,arbol,Spanish,Sounds/spa_arbol.mp3,2020-06-05_15h36.21.439,TranslationElicitation_eng-prolific,3.2.4,Win32,60,5e95befc3834c10008c19c43,20.43200016,,,,,,
,,,,,,,,,,,,,,,,,,,,,,,,,,,,,,,,,,,,,,,,,,,,,1,0,5,0,1,4,1,arbol,Spanish,Sounds/spa_arbol.mp3,2020-06-05_15h36.21.439,TranslationElicitation_eng-prolific,3.2.4,Win32,60,5e95befc3834c10008c19c43,,,,,,,
,,,,,,,,,,,,,,,,,,,,,,,,,,,,,,,,,,,,,,,,,t,5.299000025,T,FALSE,1,0,5,4,1,4,96,tigre,Spanish,Sounds/spa_tigre.mp3,2020-06-05_15h36.21.439,TranslationElicitation_eng-prolific,3.2.4,Win32,60,5e95befc3834c10008c19c43,,,,,,,
,,,,,,,,,,,,,,,,,,,,,,,,,,,,,,,,,,,,,,,,,i,5.447999954,TI,FALSE,1,0,5,4,1,4,96,tigre,Spanish,Sounds/spa_tigre.mp3,2020-06-05_15h36.21.439,TranslationElicitation_eng-prolific,3.2.4,Win32,60,5e95befc3834c10008c19c43,,,,,,,
,,,,,,,,,,,,,,,,,,,,,,,,,,,,,,,,,,,,,,,,,g,5.681999922,TIG,FALSE,1,0,5,4,1,4,96,tigre,Spanish,Sounds/spa_tigre.mp3,2020-06-05_15h36.21.439,TranslationElicitation_eng-prolific,3.2.4,Win32,60,5e95befc3834c10008c19c43,,,,,,,
,,,,,,,,,,,,,,,,,,,,,,,,,,,,,,,,,,,,,,,,,e,5.832000017,TIGE,FALSE,1,0,5,4,1,4,96,tigre,Spanish,Sounds/spa_tigre.mp3,2020-06-05_15h36.21.439,TranslationElicitation_eng-prolific,3.2.4,Win32,60,5e95befc3834c10008c19c43,,,,,,,
,,,,,,,,,,,,,,,,,,,,,,,,,,,,,,,,,,,,,,,,,r,5.982000113,TIGER,FALSE,1,0,5,4,1,4,96,tigre,Spanish,Sounds/spa_tigre.mp3,2020-06-05_15h36.21.439,TranslationElicitation_eng-prolific,3.2.4,Win32,60,5e95befc3834c10008c19c43,,,,,,,
,,,,,,,,,,,,,,,,,,,,,,,,,,,,,,,,,,,,,,,,,return,7.497999907,TIGER,FALSE,1,0,5,4,1,4,96,tigre,Spanish,Sounds/spa_tigre.mp3,2020-06-05_15h36.21.439,TranslationElicitation_eng-prolific,3.2.4,Win32,60,5e95befc3834c10008c19c43,7.497999907,,,,,,
,,,,,,,,,,,,,,,,,,,,,,,,,,,,,,,,,,,,,,,,,,,,,1,0,5,4,1,4,96,tigre,Spanish,Sounds/spa_tigre.mp3,2020-06-05_15h36.21.439,TranslationElicitation_eng-prolific,3.2.4,Win32,60,5e95befc3834c10008c19c43,,,,,,,
,,,,,,,,,,,,,,,,,,,,,,,,,,,,,,,,,,,,,,,,,c,3.799000025,C,FALSE,1,0,5,1,1,4,30,corona,Spanish,Sounds/spa_corona.mp3,2020-06-05_15h36.21.439,TranslationElicitation_eng-prolific,3.2.4,Win32,60,5e95befc3834c10008c19c43,,,,,,,
,,,,,,,,,,,,,,,,,,,,,,,,,,,,,,,,,,,,,,,,,o,4.032999992,CO,FALSE,1,0,5,1,1,4,30,corona,Spanish,Sounds/spa_corona.mp3,2020-06-05_15h36.21.439,TranslationElicitation_eng-prolific,3.2.4,Win32,60,5e95befc3834c10008c19c43,,,,,,,
,,,,,,,,,,,,,,,,,,,,,,,,,,,,,,,,,,,,,,,,,r,4.315999985,COR,FALSE,1,0,5,1,1,4,30,corona,Spanish,Sounds/spa_corona.mp3,2020-06-05_15h36.21.439,TranslationElicitation_eng-prolific,3.2.4,Win32,60,5e95befc3834c10008c19c43,,,,,,,
,,,,,,,,,,,,,,,,,,,,,,,,,,,,,,,,,,,,,,,,,o,4.516000032,CORO,FALSE,1,0,5,1,1,4,30,corona,Spanish,Sounds/spa_corona.mp3,2020-06-05_15h36.21.439,TranslationElicitation_eng-prolific,3.2.4,Win32,60,5e95befc3834c10008c19c43,,,,,,,
,,,,,,,,,,,,,,,,,,,,,,,,,,,,,,,,,,,,,,,,,n,4.73300004,CORON,FALSE,1,0,5,1,1,4,30,corona,Spanish,Sounds/spa_corona.mp3,2020-06-05_15h36.21.439,TranslationElicitation_eng-prolific,3.2.4,Win32,60,5e95befc3834c10008c19c43,,,,,,,
,,,,,,,,,,,,,,,,,,,,,,,,,,,,,,,,,,,,,,,,,a,5.165999889,CORONA,FALSE,1,0,5,1,1,4,30,corona,Spanish,Sounds/spa_corona.mp3,2020-06-05_15h36.21.439,TranslationElicitation_eng-prolific,3.2.4,Win32,60,5e95befc3834c10008c19c43,,,,,,,
,,,,,,,,,,,,,,,,,,,,,,,,,,,,,,,,,,,,,,,,,return,9.824999809,CORONA,FALSE,1,0,5,1,1,4,30,corona,Spanish,Sounds/spa_corona.mp3,2020-06-05_15h36.21.439,TranslationElicitation_eng-prolific,3.2.4,Win32,60,5e95befc3834c10008c19c43,9.824999809,,,,,,
,,,,,,,,,,,,,,,,,,,,,,,,,,,,,,,,,,,,,,,,,,,,,1,0,5,1,1,4,30,corona,Spanish,Sounds/spa_corona.mp3,2020-06-05_15h36.21.439,TranslationElicitation_eng-prolific,3.2.4,Win32,60,5e95befc3834c10008c19c43,,,,,,,
,,,,,,,,,,,,,,,,,,,,,,,,,,,,,,,,,,,,,,,,,f,2.633000135,F,FALSE,,,,,,,71,ombligo,Spanish,Sounds/spa_ombligo.mp3,2020-06-05_15h36.21.439,TranslationElicitation_eng-prolific,3.2.4,Win32,60,5e95befc3834c10008c19c43,,1,0,98,66,1,97
,,,,,,,,,,,,,,,,,,,,,,,,,,,,,,,,,,,,,,,,,r,2.916000128,FR,FALSE,,,,,,,71,ombligo,Spanish,Sounds/spa_ombligo.mp3,2020-06-05_15h36.21.439,TranslationElicitation_eng-prolific,3.2.4,Win32,60,5e95befc3834c10008c19c43,,1,0,98,66,1,97
,,,,,,,,,,,,,,,,,,,,,,,,,,,,,,,,,,,,,,,,,i,3.350000143,FRI,FALSE,,,,,,,71,ombligo,Spanish,Sounds/spa_ombligo.mp3,2020-06-05_15h36.21.439,TranslationElicitation_eng-prolific,3.2.4,Win32,60,5e95befc3834c10008c19c43,,1,0,98,66,1,97
,,,,,,,,,,,,,,,,,,,,,,,,,,,,,,,,,,,,,,,,,e,3.484000206,FRIE,FALSE,,,,,,,71,ombligo,Spanish,Sounds/spa_ombligo.mp3,2020-06-05_15h36.21.439,TranslationElicitation_eng-prolific,3.2.4,Win32,60,5e95befc3834c10008c19c43,,1,0,98,66,1,97
,,,,,,,,,,,,,,,,,,,,,,,,,,,,,,,,,,,,,,,,,n,3.666000128,FRIEN,FALSE,,,,,,,71,ombligo,Spanish,Sounds/spa_ombligo.mp3,2020-06-05_15h36.21.439,TranslationElicitation_eng-prolific,3.2.4,Win32,60,5e95befc3834c10008c19c43,,1,0,98,66,1,97
,,,,,,,,,,,,,,,,,,,,,,,,,,,,,,,,,,,,,,,,,d,3.815999985,FRIEND,FALSE,,,,,,,71,ombligo,Spanish,Sounds/spa_ombligo.mp3,2020-06-05_15h36.21.439,TranslationElicitation_eng-prolific,3.2.4,Win32,60,5e95befc3834c10008c19c43,,1,0,98,66,1,97
,,,,,,,,,,,,,,,,,,,,,,,,,,,,,,,,,,,,,,,,,return,6.147000074,FRIEND,FALSE,,,,,,,71,ombligo,Spanish,Sounds/spa_ombligo.mp3,2020-06-05_15h36.21.439,TranslationElicitation_eng-prolific,3.2.4,Win32,60,5e95befc3834c10008c19c43,6.147000074,1,0,98,66,1,97
,,,,,,,,,,,,,,,,,,,,,,,,,,,,,,,,,,,,,,,,,,,,,,,,,,,71,ombligo,Spanish,Sounds/spa_ombligo.mp3,2020-06-05_15h36.21.439,TranslationElicitation_eng-prolific,3.2.4,Win32,60,5e95befc3834c10008c19c43,,1,0,98,66,1,97
,,,,,,,,,,,,,,,,,,,,,,,,,,,,,,,,,,,,,,,,,s,7.315999985,S,FALSE,,,,,,,25,cesta,Spanish,Sounds/spa_cesta.mp3,2020-06-05_15h36.21.439,TranslationElicitation_eng-prolific,3.2.4,Win32,60,5e95befc3834c10008c19c43,,1,0,98,23,1,97
,,,,,,,,,,,,,,,,,,,,,,,,,,,,,,,,,,,,,,,,,l,7.499000072,SL,FALSE,,,,,,,25,cesta,Spanish,Sounds/spa_cesta.mp3,2020-06-05_15h36.21.439,TranslationElicitation_eng-prolific,3.2.4,Win32,60,5e95befc3834c10008c19c43,,1,0,98,23,1,97
,,,,,,,,,,,,,,,,,,,,,,,,,,,,,,,,,,,,,,,,,e,7.681999922,SLE,FALSE,,,,,,,25,cesta,Spanish,Sounds/spa_cesta.mp3,2020-06-05_15h36.21.439,TranslationElicitation_eng-prolific,3.2.4,Win32,60,5e95befc3834c10008c19c43,,1,0,98,23,1,97
,,,,,,,,,,,,,,,,,,,,,,,,,,,,,,,,,,,,,,,,,e,7.822999954,SLEE,FALSE,,,,,,,25,cesta,Spanish,Sounds/spa_cesta.mp3,2020-06-05_15h36.21.439,TranslationElicitation_eng-prolific,3.2.4,Win32,60,5e95befc3834c10008c19c43,,1,0,98,23,1,97
,,,,,,,,,,,,,,,,,,,,,,,,,,,,,,,,,,,,,,,,,p,7.970999956,SLEEP,FALSE,,,,,,,25,cesta,Spanish,Sounds/spa_cesta.mp3,2020-06-05_15h36.21.439,TranslationElicitation_eng-prolific,3.2.4,Win32,60,5e95befc3834c10008c19c43,,1,0,98,23,1,97
,,,,,,,,,,,,,,,,,,,,,,,,,,,,,,,,,,,,,,,,,backspace,9.868999958,SLEE,TRUE,,,,,,,25,cesta,Spanish,Sounds/spa_cesta.mp3,2020-06-05_15h36.21.439,TranslationElicitation_eng-prolific,3.2.4,Win32,60,5e95befc3834c10008c19c43,,1,0,98,23,1,97
,,,,,,,,,,,,,,,,,,,,,,,,,,,,,,,,,,,,,,,,,backspace,10.01999998,SLE,TRUE,,,,,,,25,cesta,Spanish,Sounds/spa_cesta.mp3,2020-06-05_15h36.21.439,TranslationElicitation_eng-prolific,3.2.4,Win32,60,5e95befc3834c10008c19c43,,1,0,98,23,1,97
,,,,,,,,,,,,,,,,,,,,,,,,,,,,,,,,,,,,,,,,,backspace,10.16499996,SL,TRUE,,,,,,,25,cesta,Spanish,Sounds/spa_cesta.mp3,2020-06-05_15h36.21.439,TranslationElicitation_eng-prolific,3.2.4,Win32,60,5e95befc3834c10008c19c43,,1,0,98,23,1,97
,,,,,,,,,,,,,,,,,,,,,,,,,,,,,,,,,,,,,,,,,backspace,10.30500007,S,TRUE,,,,,,,25,cesta,Spanish,Sounds/spa_cesta.mp3,2020-06-05_15h36.21.439,TranslationElicitation_eng-prolific,3.2.4,Win32,60,5e95befc3834c10008c19c43,,1,0,98,23,1,97
,,,,,,,,,,,,,,,,,,,,,,,,,,,,,,,,,,,,,,,,,backspace,10.47099996,,TRUE,,,,,,,25,cesta,Spanish,Sounds/spa_cesta.mp3,2020-06-05_15h36.21.439,TranslationElicitation_eng-prolific,3.2.4,Win32,60,5e95befc3834c10008c19c43,,1,0,98,23,1,97
,,,,,,,,,,,,,,,,,,,,,,,,,,,,,,,,,,,,,,,,,n,10.92199993,N,TRUE,,,,,,,25,cesta,Spanish,Sounds/spa_cesta.mp3,2020-06-05_15h36.21.439,TranslationElicitation_eng-prolific,3.2.4,Win32,60,5e95befc3834c10008c19c43,,1,0,98,23,1,97
,,,,,,,,,,,,,,,,,,,,,,,,,,,,,,,,,,,,,,,,,a,11.03999996,NA,TRUE,,,,,,,25,cesta,Spanish,Sounds/spa_cesta.mp3,2020-06-05_15h36.21.439,TranslationElicitation_eng-prolific,3.2.4,Win32,60,5e95befc3834c10008c19c43,,1,0,98,23,1,97
,,,,,,,,,,,,,,,,,,,,,,,,,,,,,,,,,,,,,,,,,p,11.12199998,NAP,TRUE,,,,,,,25,cesta,Spanish,Sounds/spa_cesta.mp3,2020-06-05_15h36.21.439,TranslationElicitation_eng-prolific,3.2.4,Win32,60,5e95befc3834c10008c19c43,,1,0,98,23,1,97
,,,,,,,,,,,,,,,,,,,,,,,,,,,,,,,,,,,,,,,,,return,12.05599999,NAP,TRUE,,,,,,,25,cesta,Spanish,Sounds/spa_cesta.mp3,2020-06-05_15h36.21.439,TranslationElicitation_eng-prolific,3.2.4,Win32,60,5e95befc3834c10008c19c43,12.05599999,1,0,98,23,1,97
,,,,,,,,,,,,,,,,,,,,,,,,,,,,,,,,,,,,,,,,,,,,,,,,,,,25,cesta,Spanish,Sounds/spa_cesta.mp3,2020-06-05_15h36.21.439,TranslationElicitation_eng-prolific,3.2.4,Win32,60,5e95befc3834c10008c19c43,,1,0,98,23,1,97
,,,,,,,,,,,,,,,,,,,,,,,,,,,,,,,,,,,,,,,,,m,14.87800002,M,FALSE,,,,,,,59,mano,Spanish,Sounds/spa_mano.mp3,2020-06-05_15h36.21.439,TranslationElicitation_eng-prolific,3.2.4,Win32,60,5e95befc3834c10008c19c43,,1,0,98,55,1,97
,,,,,,,,,,,,,,,,,,,,,,,,,,,,,,,,,,,,,,,,,a,15.01100016,MA,FALSE,,,,,,,59,mano,Spanish,Sounds/spa_mano.mp3,2020-06-05_15h36.21.439,TranslationElicitation_eng-prolific,3.2.4,Win32,60,5e95befc3834c10008c19c43,,1,0,98,55,1,97
,,,,,,,,,,,,,,,,,,,,,,,,,,,,,,,,,,,,,,,,,l,15.0940001,MAL,FALSE,,,,,,,59,mano,Spanish,Sounds/spa_mano.mp3,2020-06-05_15h36.21.439,TranslationElicitation_eng-prolific,3.2.4,Win32,60,5e95befc3834c10008c19c43,,1,0,98,55,1,97
,,,,,,,,,,,,,,,,,,,,,,,,,,,,,,,,,,,,,,,,,e,15.27800012,MALE,FALSE,,,,,,,59,mano,Spanish,Sounds/spa_mano.mp3,2020-06-05_15h36.21.439,TranslationElicitation_eng-prolific,3.2.4,Win32,60,5e95befc3834c10008c19c43,,1,0,98,55,1,97
,,,,,,,,,,,,,,,,,,,,,,,,,,,,,,,,,,,,,,,,,return,15.92700005,MALE,FALSE,,,,,,,59,mano,Spanish,Sounds/spa_mano.mp3,2020-06-05_15h36.21.439,TranslationElicitation_eng-prolific,3.2.4,Win32,60,5e95befc3834c10008c19c43,15.92700005,1,0,98,55,1,97
,,,,,,,,,,,,,,,,,,,,,,,,,,,,,,,,,,,,,,,,,,,,,,,,,,,59,mano,Spanish,Sounds/spa_mano.mp3,2020-06-05_15h36.21.439,TranslationElicitation_eng-prolific,3.2.4,Win32,60,5e95befc3834c10008c19c43,,1,0,98,55,1,97
,,,,,,,,,,,,,,,,,,,,,,,,,,,,,,,,,,,,,,,,,h,9.899000168,H,FALSE,,,,,,,98,tobogan,Spanish,Sounds/spa_tobogan.mp3,2020-06-05_15h36.21.439,TranslationElicitation_eng-prolific,3.2.4,Win32,60,5e95befc3834c10008c19c43,,1,0,98,92,1,97
,,,,,,,,,,,,,,,,,,,,,,,,,,,,,,,,,,,,,,,,,a,10.14900017,HA,FALSE,,,,,,,98,tobogan,Spanish,Sounds/spa_tobogan.mp3,2020-06-05_15h36.21.439,TranslationElicitation_eng-prolific,3.2.4,Win32,60,5e95befc3834c10008c19c43,,1,0,98,92,1,97
,,,,,,,,,,,,,,,,,,,,,,,,,,,,,,,,,,,,,,,,,p,10.34900022,HAP,FALSE,,,,,,,98,tobogan,Spanish,Sounds/spa_tobogan.mp3,2020-06-05_15h36.21.439,TranslationElicitation_eng-prolific,3.2.4,Win32,60,5e95befc3834c10008c19c43,,1,0,98,92,1,97
,,,,,,,,,,,,,,,,,,,,,,,,,,,,,,,,,,,,,,,,,p,10.48200011,HAPP,FALSE,,,,,,,98,tobogan,Spanish,Sounds/spa_tobogan.mp3,2020-06-05_15h36.21.439,TranslationElicitation_eng-prolific,3.2.4,Win32,60,5e95befc3834c10008c19c43,,1,0,98,92,1,97
,,,,,,,,,,,,,,,,,,,,,,,,,,,,,,,,,,,,,,,,,y,10.59900022,HAPPY,FALSE,,,,,,,98,tobogan,Spanish,Sounds/spa_tobogan.mp3,2020-06-05_15h36.21.439,TranslationElicitation_eng-prolific,3.2.4,Win32,60,5e95befc3834c10008c19c43,,1,0,98,92,1,97
,,,,,,,,,,,,,,,,,,,,,,,,,,,,,,,,,,,,,,,,,return,11.44900012,HAPPY,FALSE,,,,,,,98,tobogan,Spanish,Sounds/spa_tobogan.mp3,2020-06-05_15h36.21.439,TranslationElicitation_eng-prolific,3.2.4,Win32,60,5e95befc3834c10008c19c43,11.44900012,1,0,98,92,1,97
,,,,,,,,,,,,,,,,,,,,,,,,,,,,,,,,,,,,,,,,,,,,,,,,,,,98,tobogan,Spanish,Sounds/spa_tobogan.mp3,2020-06-05_15h36.21.439,TranslationElicitation_eng-prolific,3.2.4,Win32,60,5e95befc3834c10008c19c43,,1,0,98,92,1,97
,,,,,,,,,,,,,,,,,,,,,,,,,,,,,,,,,,,,,,,,,w,6.148000002,W,FALSE,,,,,,,12,brazo,Spanish,Sounds/spa_brazo.mp3,2020-06-05_15h36.21.439,TranslationElicitation_eng-prolific,3.2.4,Win32,60,5e95befc3834c10008c19c43,,1,0,98,10,1,97
,,,,,,,,,,,,,,,,,,,,,,,,,,,,,,,,,,,,,,,,,e,6.299000025,WE,FALSE,,,,,,,12,brazo,Spanish,Sounds/spa_brazo.mp3,2020-06-05_15h36.21.439,TranslationElicitation_eng-prolific,3.2.4,Win32,60,5e95befc3834c10008c19c43,,1,0,98,10,1,97
,,,,,,,,,,,,,,,,,,,,,,,,,,,,,,,,,,,,,,,,,l,6.43200016,WEL,FALSE,,,,,,,12,brazo,Spanish,Sounds/spa_brazo.mp3,2020-06-05_15h36.21.439,TranslationElicitation_eng-prolific,3.2.4,Win32,60,5e95befc3834c10008c19c43,,1,0,98,10,1,97
,,,,,,,,,,,,,,,,,,,,,,,,,,,,,,,,,,,,,,,,,l,6.565000057,WELL,FALSE,,,,,,,12,brazo,Spanish,Sounds/spa_brazo.mp3,2020-06-05_15h36.21.439,TranslationElicitation_eng-prolific,3.2.4,Win32,60,5e95befc3834c10008c19c43,,1,0,98,10,1,97
,,,,,,,,,,,,,,,,,,,,,,,,,,,,,,,,,,,,,,,,,space,7.499000072,WELL ,FALSE,,,,,,,12,brazo,Spanish,Sounds/spa_brazo.mp3,2020-06-05_15h36.21.439,TranslationElicitation_eng-prolific,3.2.4,Win32,60,5e95befc3834c10008c19c43,,1,0,98,10,1,97
,,,,,,,,,,,,,,,,,,,,,,,,,,,,,,,,,,,,,,,,,d,8.11500001,WELL D,FALSE,,,,,,,12,brazo,Spanish,Sounds/spa_brazo.mp3,2020-06-05_15h36.21.439,TranslationElicitation_eng-prolific,3.2.4,Win32,60,5e95befc3834c10008c19c43,,1,0,98,10,1,97
,,,,,,,,,,,,,,,,,,,,,,,,,,,,,,,,,,,,,,,,,o,8.281000137,WELL DO,FALSE,,,,,,,12,brazo,Spanish,Sounds/spa_brazo.mp3,2020-06-05_15h36.21.439,TranslationElicitation_eng-prolific,3.2.4,Win32,60,5e95befc3834c10008c19c43,,1,0,98,10,1,97
,,,,,,,,,,,,,,,,,,,,,,,,,,,,,,,,,,,,,,,,,n,8.465000153,WELL DON,FALSE,,,,,,,12,brazo,Spanish,Sounds/spa_brazo.mp3,2020-06-05_15h36.21.439,TranslationElicitation_eng-prolific,3.2.4,Win32,60,5e95befc3834c10008c19c43,,1,0,98,10,1,97
,,,,,,,,,,,,,,,,,,,,,,,,,,,,,,,,,,,,,,,,,e,8.59800005,WELL DONE,FALSE,,,,,,,12,brazo,Spanish,Sounds/spa_brazo.mp3,2020-06-05_15h36.21.439,TranslationElicitation_eng-prolific,3.2.4,Win32,60,5e95befc3834c10008c19c43,,1,0,98,10,1,97
,,,,,,,,,,,,,,,,,,,,,,,,,,,,,,,,,,,,,,,,,return,9.84800005,WELL DONE,FALSE,,,,,,,12,brazo,Spanish,Sounds/spa_brazo.mp3,2020-06-05_15h36.21.439,TranslationElicitation_eng-prolific,3.2.4,Win32,60,5e95befc3834c10008c19c43,9.84800005,1,0,98,10,1,97
,,,,,,,,,,,,,,,,,,,,,,,,,,,,,,,,,,,,,,,,,,,,,,,,,,,12,brazo,Spanish,Sounds/spa_brazo.mp3,2020-06-05_15h36.21.439,TranslationElicitation_eng-prolific,3.2.4,Win32,60,5e95befc3834c10008c19c43,,1,0,98,10,1,97
,,,,,,,,,,,,,,,,,,,,,,,,,,,,,,,,,,,,,,,,,g,4.933000088,G,FALSE,,,,,,,47,guitarra,Spanish,Sounds/spa_guitarra.mp3,2020-06-05_15h36.21.439,TranslationElicitation_eng-prolific,3.2.4,Win32,60,5e95befc3834c10008c19c43,,1,0,98,43,1,97
,,,,,,,,,,,,,,,,,,,,,,,,,,,,,,,,,,,,,,,,,u,5.065999985,GU,FALSE,,,,,,,47,guitarra,Spanish,Sounds/spa_guitarra.mp3,2020-06-05_15h36.21.439,TranslationElicitation_eng-prolific,3.2.4,Win32,60,5e95befc3834c10008c19c43,,1,0,98,43,1,97
,,,,,,,,,,,,,,,,,,,,,,,,,,,,,,,,,,,,,,,,,i,5.274000168,GUI,FALSE,,,,,,,47,guitarra,Spanish,Sounds/spa_guitarra.mp3,2020-06-05_15h36.21.439,TranslationElicitation_eng-prolific,3.2.4,Win32,60,5e95befc3834c10008c19c43,,1,0,98,43,1,97
,,,,,,,,,,,,,,,,,,,,,,,,,,,,,,,,,,,,,,,,,t,5.586000204,GUIT,FALSE,,,,,,,47,guitarra,Spanish,Sounds/spa_guitarra.mp3,2020-06-05_15h36.21.439,TranslationElicitation_eng-prolific,3.2.4,Win32,60,5e95befc3834c10008c19c43,,1,0,98,43,1,97
,,,,,,,,,,,,,,,,,,,,,,,,,,,,,,,,,,,,,,,,,a,5.667000055,GUITA,FALSE,,,,,,,47,guitarra,Spanish,Sounds/spa_guitarra.mp3,2020-06-05_15h36.21.439,TranslationElicitation_eng-prolific,3.2.4,Win32,60,5e95befc3834c10008c19c43,,1,0,98,43,1,97
,,,,,,,,,,,,,,,,,,,,,,,,,,,,,,,,,,,,,,,,,r,5.882000208,GUITAR,FALSE,,,,,,,47,guitarra,Spanish,Sounds/spa_guitarra.mp3,2020-06-05_15h36.21.439,TranslationElicitation_eng-prolific,3.2.4,Win32,60,5e95befc3834c10008c19c43,,1,0,98,43,1,97
,,,,,,,,,,,,,,,,,,,,,,,,,,,,,,,,,,,,,,,,,return,7.399000168,GUITAR,FALSE,,,,,,,47,guitarra,Spanish,Sounds/spa_guitarra.mp3,2020-06-05_15h36.21.439,TranslationElicitation_eng-prolific,3.2.4,Win32,60,5e95befc3834c10008c19c43,7.399000168,1,0,98,43,1,97
,,,,,,,,,,,,,,,,,,,,,,,,,,,,,,,,,,,,,,,,,,,,,,,,,,,47,guitarra,Spanish,Sounds/spa_guitarra.mp3,2020-06-05_15h36.21.439,TranslationElicitation_eng-prolific,3.2.4,Win32,60,5e95befc3834c10008c19c43,,1,0,98,43,1,97
,,,,,,,,,,,,,,,,,,,,,,,,,,,,,,,,,,,,,,,,,c,9.782999992,C,FALSE,,,,,,,15,caballo,Spanish,Sounds/spa_caballo.mp3,2020-06-05_15h36.21.439,TranslationElicitation_eng-prolific,3.2.4,Win32,60,5e95befc3834c10008c19c43,,1,0,98,13,1,97
,,,,,,,,,,,,,,,,,,,,,,,,,,,,,,,,,,,,,,,,,h,9.948999882,CH,FALSE,,,,,,,15,caballo,Spanish,Sounds/spa_caballo.mp3,2020-06-05_15h36.21.439,TranslationElicitation_eng-prolific,3.2.4,Win32,60,5e95befc3834c10008c19c43,,1,0,98,13,1,97
,,,,,,,,,,,,,,,,,,,,,,,,,,,,,,,,,,,,,,,,,a,10.09899998,CHA,FALSE,,,,,,,15,caballo,Spanish,Sounds/spa_caballo.mp3,2020-06-05_15h36.21.439,TranslationElicitation_eng-prolific,3.2.4,Win32,60,5e95befc3834c10008c19c43,,1,0,98,13,1,97
,,,,,,,,,,,,,,,,,,,,,,,,,,,,,,,,,,,,,,,,,i,10.21599984,CHAI,FALSE,,,,,,,15,caballo,Spanish,Sounds/spa_caballo.mp3,2020-06-05_15h36.21.439,TranslationElicitation_eng-prolific,3.2.4,Win32,60,5e95befc3834c10008c19c43,,1,0,98,13,1,97
,,,,,,,,,,,,,,,,,,,,,,,,,,,,,,,,,,,,,,,,,r,10.3829999,CHAIR,FALSE,,,,,,,15,caballo,Spanish,Sounds/spa_caballo.mp3,2020-06-05_15h36.21.439,TranslationElicitation_eng-prolific,3.2.4,Win32,60,5e95befc3834c10008c19c43,,1,0,98,13,1,97
,,,,,,,,,,,,,,,,,,,,,,,,,,,,,,,,,,,,,,,,,return,11.48300004,CHAIR,FALSE,,,,,,,15,caballo,Spanish,Sounds/spa_caballo.mp3,2020-06-05_15h36.21.439,TranslationElicitation_eng-prolific,3.2.4,Win32,60,5e95befc3834c10008c19c43,11.48300004,1,0,98,13,1,97
,,,,,,,,,,,,,,,,,,,,,,,,,,,,,,,,,,,,,,,,,,,,,,,,,,,15,caballo,Spanish,Sounds/spa_caballo.mp3,2020-06-05_15h36.21.439,TranslationElicitation_eng-prolific,3.2.4,Win32,60,5e95befc3834c10008c19c43,,1,0,98,13,1,97
,,,,,,,,,,,,,,,,,,,,,,,,,,,,,,,,,,,,,,,,,c,15.66499996,C,FALSE,,,,,,,18,camisa,Spanish,Sounds/spa_camisa.mp3,2020-06-05_15h36.21.439,TranslationElicitation_eng-prolific,3.2.4,Win32,60,5e95befc3834c10008c19c43,,1,0,98,16,1,97
,,,,,,,,,,,,,,,,,,,,,,,,,,,,,,,,,,,,,,,,,a,16.43099999,CA,FALSE,,,,,,,18,camisa,Spanish,Sounds/spa_camisa.mp3,2020-06-05_15h36.21.439,TranslationElicitation_eng-prolific,3.2.4,Win32,60,5e95befc3834c10008c19c43,,1,0,98,16,1,97
,,,,,,,,,,,,,,,,,,,,,,,,,,,,,,,,,,,,,,,,,m,16.58099985,CAM,FALSE,,,,,,,18,camisa,Spanish,Sounds/spa_camisa.mp3,2020-06-05_15h36.21.439,TranslationElicitation_eng-prolific,3.2.4,Win32,60,5e95befc3834c10008c19c43,,1,0,98,16,1,97
,,,,,,,,,,,,,,,,,,,,,,,,,,,,,,,,,,,,,,,,,e,16.95000005,CAME,FALSE,,,,,,,18,camisa,Spanish,Sounds/spa_camisa.mp3,2020-06-05_15h36.21.439,TranslationElicitation_eng-prolific,3.2.4,Win32,60,5e95befc3834c10008c19c43,,1,0,98,16,1,97
,,,,,,,,,,,,,,,,,,,,,,,,,,,,,,,,,,,,,,,,,backspace,18.38100004,CAM,TRUE,,,,,,,18,camisa,Spanish,Sounds/spa_camisa.mp3,2020-06-05_15h36.21.439,TranslationElicitation_eng-prolific,3.2.4,Win32,60,5e95befc3834c10008c19c43,,1,0,98,16,1,97
,,,,,,,,,,,,,,,,,,,,,,,,,,,,,,,,,,,,,,,,,backspace,18.73099995,CA,TRUE,,,,,,,18,camisa,Spanish,Sounds/spa_camisa.mp3,2020-06-05_15h36.21.439,TranslationElicitation_eng-prolific,3.2.4,Win32,60,5e95befc3834c10008c19c43,,1,0,98,16,1,97
,,,,,,,,,,,,,,,,,,,,,,,,,,,,,,,,,,,,,,,,,backspace,18.93799996,C,TRUE,,,,,,,18,camisa,Spanish,Sounds/spa_camisa.mp3,2020-06-05_15h36.21.439,TranslationElicitation_eng-prolific,3.2.4,Win32,60,5e95befc3834c10008c19c43,,1,0,98,16,1,97
,,,,,,,,,,,,,,,,,,,,,,,,,,,,,,,,,,,,,,,,,backspace,19.06500006,,TRUE,,,,,,,18,camisa,Spanish,Sounds/spa_camisa.mp3,2020-06-05_15h36.21.439,TranslationElicitation_eng-prolific,3.2.4,Win32,60,5e95befc3834c10008c19c43,,1,0,98,16,1,97
,,,,,,,,,,,,,,,,,,,,,,,,,,,,,,,,,,,,,,,,,l,19.898,L,TRUE,,,,,,,18,camisa,Spanish,Sounds/spa_camisa.mp3,2020-06-05_15h36.21.439,TranslationElicitation_eng-prolific,3.2.4,Win32,60,5e95befc3834c10008c19c43,,1,0,98,16,1,97
,,,,,,,,,,,,,,,,,,,,,,,,,,,,,,,,,,,,,,,,,i,20.16400003,LI,TRUE,,,,,,,18,camisa,Spanish,Sounds/spa_camisa.mp3,2020-06-05_15h36.21.439,TranslationElicitation_eng-prolific,3.2.4,Win32,60,5e95befc3834c10008c19c43,,1,0,98,16,1,97
,,,,,,,,,,,,,,,,,,,,,,,,,,,,,,,,,,,,,,,,,z,20.36500001,LIZ,TRUE,,,,,,,18,camisa,Spanish,Sounds/spa_camisa.mp3,2020-06-05_15h36.21.439,TranslationElicitation_eng-prolific,3.2.4,Win32,60,5e95befc3834c10008c19c43,,1,0,98,16,1,97
,,,,,,,,,,,,,,,,,,,,,,,,,,,,,,,,,,,,,,,,,a,20.56500006,LIZA,TRUE,,,,,,,18,camisa,Spanish,Sounds/spa_camisa.mp3,2020-06-05_15h36.21.439,TranslationElicitation_eng-prolific,3.2.4,Win32,60,5e95befc3834c10008c19c43,,1,0,98,16,1,97
,,,,,,,,,,,,,,,,,,,,,,,,,,,,,,,,,,,,,,,,,r,21.03200006,LIZAR,TRUE,,,,,,,18,camisa,Spanish,Sounds/spa_camisa.mp3,2020-06-05_15h36.21.439,TranslationElicitation_eng-prolific,3.2.4,Win32,60,5e95befc3834c10008c19c43,,1,0,98,16,1,97
,,,,,,,,,,,,,,,,,,,,,,,,,,,,,,,,,,,,,,,,,d,21.2809999,LIZARD,TRUE,,,,,,,18,camisa,Spanish,Sounds/spa_camisa.mp3,2020-06-05_15h36.21.439,TranslationElicitation_eng-prolific,3.2.4,Win32,60,5e95befc3834c10008c19c43,,1,0,98,16,1,97
,,,,,,,,,,,,,,,,,,,,,,,,,,,,,,,,,,,,,,,,,return,22.00199986,LIZARD,TRUE,,,,,,,18,camisa,Spanish,Sounds/spa_camisa.mp3,2020-06-05_15h36.21.439,TranslationElicitation_eng-prolific,3.2.4,Win32,60,5e95befc3834c10008c19c43,22.00199986,1,0,98,16,1,97
,,,,,,,,,,,,,,,,,,,,,,,,,,,,,,,,,,,,,,,,,,,,,,,,,,,18,camisa,Spanish,Sounds/spa_camisa.mp3,2020-06-05_15h36.21.439,TranslationElicitation_eng-prolific,3.2.4,Win32,60,5e95befc3834c10008c19c43,,1,0,98,16,1,97
,,,,,,,,,,,,,,,,,,,,,,,,,,,,,,,,,,,,,,,,,c,2.065999985,C,FALSE,,,,,,,27,chocolate,Spanish,Sounds/spa_chocolate.mp3,2020-06-05_15h36.21.439,TranslationElicitation_eng-prolific,3.2.4,Win32,60,5e95befc3834c10008c19c43,,1,0,98,24,1,97
,,,,,,,,,,,,,,,,,,,,,,,,,,,,,,,,,,,,,,,,,h,2.23300004,CH,FALSE,,,,,,,27,chocolate,Spanish,Sounds/spa_chocolate.mp3,2020-06-05_15h36.21.439,TranslationElicitation_eng-prolific,3.2.4,Win32,60,5e95befc3834c10008c19c43,,1,0,98,24,1,97
,,,,,,,,,,,,,,,,,,,,,,,,,,,,,,,,,,,,,,,,,o,2.583000183,CHO,FALSE,,,,,,,27,chocolate,Spanish,Sounds/spa_chocolate.mp3,2020-06-05_15h36.21.439,TranslationElicitation_eng-prolific,3.2.4,Win32,60,5e95befc3834c10008c19c43,,1,0,98,24,1,97
,,,,,,,,,,,,,,,,,,,,,,,,,,,,,,,,,,,,,,,,,c,2.732000113,CHOC,FALSE,,,,,,,27,chocolate,Spanish,Sounds/spa_chocolate.mp3,2020-06-05_15h36.21.439,TranslationElicitation_eng-prolific,3.2.4,Win32,60,5e95befc3834c10008c19c43,,1,0,98,24,1,97
,,,,,,,,,,,,,,,,,,,,,,,,,,,,,,,,,,,,,,,,,o,2.933000088,CHOCO,FALSE,,,,,,,27,chocolate,Spanish,Sounds/spa_chocolate.mp3,2020-06-05_15h36.21.439,TranslationElicitation_eng-prolific,3.2.4,Win32,60,5e95befc3834c10008c19c43,,1,0,98,24,1,97
,,,,,,,,,,,,,,,,,,,,,,,,,,,,,,,,,,,,,,,,,l,3.116000175,CHOCOL,FALSE,,,,,,,27,chocolate,Spanish,Sounds/spa_chocolate.mp3,2020-06-05_15h36.21.439,TranslationElicitation_eng-prolific,3.2.4,Win32,60,5e95befc3834c10008c19c43,,1,0,98,24,1,97
,,,,,,,,,,,,,,,,,,,,,,,,,,,,,,,,,,,,,,,,,a,3.232000113,CHOCOLA,FALSE,,,,,,,27,chocolate,Spanish,Sounds/spa_chocolate.mp3,2020-06-05_15h36.21.439,TranslationElicitation_eng-prolific,3.2.4,Win32,60,5e95befc3834c10008c19c43,,1,0,98,24,1,97
,,,,,,,,,,,,,,,,,,,,,,,,,,,,,,,,,,,,,,,,,t,3.799000025,CHOCOLAT,FALSE,,,,,,,27,chocolate,Spanish,Sounds/spa_chocolate.mp3,2020-06-05_15h36.21.439,TranslationElicitation_eng-prolific,3.2.4,Win32,60,5e95befc3834c10008c19c43,,1,0,98,24,1,97
,,,,,,,,,,,,,,,,,,,,,,,,,,,,,,,,,,,,,,,,,e,3.96600008,CHOCOLATE,FALSE,,,,,,,27,chocolate,Spanish,Sounds/spa_chocolate.mp3,2020-06-05_15h36.21.439,TranslationElicitation_eng-prolific,3.2.4,Win32,60,5e95befc3834c10008c19c43,,1,0,98,24,1,97
,,,,,,,,,,,,,,,,,,,,,,,,,,,,,,,,,,,,,,,,,return,5.69900012,CHOCOLATE,FALSE,,,,,,,27,chocolate,Spanish,Sounds/spa_chocolate.mp3,2020-06-05_15h36.21.439,TranslationElicitation_eng-prolific,3.2.4,Win32,60,5e95befc3834c10008c19c43,5.69900012,1,0,98,24,1,97
,,,,,,,,,,,,,,,,,,,,,,,,,,,,,,,,,,,,,,,,,,,,,,,,,,,27,chocolate,Spanish,Sounds/spa_chocolate.mp3,2020-06-05_15h36.21.439,TranslationElicitation_eng-prolific,3.2.4,Win32,60,5e95befc3834c10008c19c43,,1,0,98,24,1,97
,,,,,,,,,,,,,,,,,,,,,,,,,,,,,,,,,,,,,,,,,f,8.18200016,F,FALSE,,,,,,,37,flor,Spanish,Sounds/spa_flor.mp3,2020-06-05_15h36.21.439,TranslationElicitation_eng-prolific,3.2.4,Win32,60,5e95befc3834c10008c19c43,,1,0,98,33,1,97
,,,,,,,,,,,,,,,,,,,,,,,,,,,,,,,,,,,,,,,,,l,8.482000113,FL,FALSE,,,,,,,37,flor,Spanish,Sounds/spa_flor.mp3,2020-06-05_15h36.21.439,TranslationElicitation_eng-prolific,3.2.4,Win32,60,5e95befc3834c10008c19c43,,1,0,98,33,1,97
,,,,,,,,,,,,,,,,,,,,,,,,,,,,,,,,,,,,,,,,,o,8.782000065,FLO,FALSE,,,,,,,37,flor,Spanish,Sounds/spa_flor.mp3,2020-06-05_15h36.21.439,TranslationElicitation_eng-prolific,3.2.4,Win32,60,5e95befc3834c10008c19c43,,1,0,98,33,1,97
,,,,,,,,,,,,,,,,,,,,,,,,,,,,,,,,,,,,,,,,,o,8.947999954,FLOO,FALSE,,,,,,,37,flor,Spanish,Sounds/spa_flor.mp3,2020-06-05_15h36.21.439,TranslationElicitation_eng-prolific,3.2.4,Win32,60,5e95befc3834c10008c19c43,,1,0,98,33,1,97
,,,,,,,,,,,,,,,,,,,,,,,,,,,,,,,,,,,,,,,,,r,9.082000017,FLOOR,FALSE,,,,,,,37,flor,Spanish,Sounds/spa_flor.mp3,2020-06-05_15h36.21.439,TranslationElicitation_eng-prolific,3.2.4,Win32,60,5e95befc3834c10008c19c43,,1,0,98,33,1,97
,,,,,,,,,,,,,,,,,,,,,,,,,,,,,,,,,,,,,,,,,return,10.0480001,FLOOR,FALSE,,,,,,,37,flor,Spanish,Sounds/spa_flor.mp3,2020-06-05_15h36.21.439,TranslationElicitation_eng-prolific,3.2.4,Win32,60,5e95befc3834c10008c19c43,10.0480001,1,0,98,33,1,97
,,,,,,,,,,,,,,,,,,,,,,,,,,,,,,,,,,,,,,,,,,,,,,,,,,,37,flor,Spanish,Sounds/spa_flor.mp3,2020-06-05_15h36.21.439,TranslationElicitation_eng-prolific,3.2.4,Win32,60,5e95befc3834c10008c19c43,,1,0,98,33,1,97
,,,,,,,,,,,,,,,,,,,,,,,,,,,,,,,,,,,,,,,,,s,15.0150001,S,FALSE,,,,,,,102,ventana,Spanish,Sounds/spa_ventana.mp3,2020-06-05_15h36.21.439,TranslationElicitation_eng-prolific,3.2.4,Win32,60,5e95befc3834c10008c19c43,,1,0,98,96,1,97
,,,,,,,,,,,,,,,,,,,,,,,,,,,,,,,,,,,,,,,,,c,15.24799991,SC,FALSE,,,,,,,102,ventana,Spanish,Sounds/spa_ventana.mp3,2020-06-05_15h36.21.439,TranslationElicitation_eng-prolific,3.2.4,Win32,60,5e95befc3834c10008c19c43,,1,0,98,96,1,97
,,,,,,,,,,,,,,,,,,,,,,,,,,,,,,,,,,,,,,,,,a,15.44900012,SCA,FALSE,,,,,,,102,ventana,Spanish,Sounds/spa_ventana.mp3,2020-06-05_15h36.21.439,TranslationElicitation_eng-prolific,3.2.4,Win32,60,5e95befc3834c10008c19c43,,1,0,98,96,1,97
,,,,,,,,,,,,,,,,,,,,,,,,,,,,,,,,,,,,,,,,,r,16.21499991,SCAR,FALSE,,,,,,,102,ventana,Spanish,Sounds/spa_ventana.mp3,2020-06-05_15h36.21.439,TranslationElicitation_eng-prolific,3.2.4,Win32,60,5e95befc3834c10008c19c43,,1,0,98,96,1,97
,,,,,,,,,,,,,,,,,,,,,,,,,,,,,,,,,,,,,,,,,f,16.58299994,SCARF,FALSE,,,,,,,102,ventana,Spanish,Sounds/spa_ventana.mp3,2020-06-05_15h36.21.439,TranslationElicitation_eng-prolific,3.2.4,Win32,60,5e95befc3834c10008c19c43,,1,0,98,96,1,97
,,,,,,,,,,,,,,,,,,,,,,,,,,,,,,,,,,,,,,,,,return,17.56500006,SCARF,FALSE,,,,,,,102,ventana,Spanish,Sounds/spa_ventana.mp3,2020-06-05_15h36.21.439,TranslationElicitation_eng-prolific,3.2.4,Win32,60,5e95befc3834c10008c19c43,17.56500006,1,0,98,96,1,97
,,,,,,,,,,,,,,,,,,,,,,,,,,,,,,,,,,,,,,,,,,,,,,,,,,,102,ventana,Spanish,Sounds/spa_ventana.mp3,2020-06-05_15h36.21.439,TranslationElicitation_eng-prolific,3.2.4,Win32,60,5e95befc3834c10008c19c43,,1,0,98,96,1,97
,,,,,,,,,,,,,,,,,,,,,,,,,,,,,,,,,,,,,,,,,p,7.515000105,P,FALSE,,,,,,,78,pastel,Spanish,Sounds/spa_pastel.mp3,2020-06-05_15h36.21.439,TranslationElicitation_eng-prolific,3.2.4,Win32,60,5e95befc3834c10008c19c43,,1,0,98,73,1,97
,,,,,,,,,,,,,,,,,,,,,,,,,,,,,,,,,,,,,,,,,a,7.648000002,PA,FALSE,,,,,,,78,pastel,Spanish,Sounds/spa_pastel.mp3,2020-06-05_15h36.21.439,TranslationElicitation_eng-prolific,3.2.4,Win32,60,5e95befc3834c10008c19c43,,1,0,98,73,1,97
,,,,,,,,,,,,,,,,,,,,,,,,,,,,,,,,,,,,,,,,,s,7.815000057,PAS,FALSE,,,,,,,78,pastel,Spanish,Sounds/spa_pastel.mp3,2020-06-05_15h36.21.439,TranslationElicitation_eng-prolific,3.2.4,Win32,60,5e95befc3834c10008c19c43,,1,0,98,73,1,97
,,,,,,,,,,,,,,,,,,,,,,,,,,,,,,,,,,,,,,,,,t,8.148000002,PAST,FALSE,,,,,,,78,pastel,Spanish,Sounds/spa_pastel.mp3,2020-06-05_15h36.21.439,TranslationElicitation_eng-prolific,3.2.4,Win32,60,5e95befc3834c10008c19c43,,1,0,98,73,1,97
,,,,,,,,,,,,,,,,,,,,,,,,,,,,,,,,,,,,,,,,,a,9.480999947,PASTA,FALSE,,,,,,,78,pastel,Spanish,Sounds/spa_pastel.mp3,2020-06-05_15h36.21.439,TranslationElicitation_eng-prolific,3.2.4,Win32,60,5e95befc3834c10008c19c43,,1,0,98,73,1,97
,,,,,,,,,,,,,,,,,,,,,,,,,,,,,,,,,,,,,,,,,l,9.61500001,PASTAL,FALSE,,,,,,,78,pastel,Spanish,Sounds/spa_pastel.mp3,2020-06-05_15h36.21.439,TranslationElicitation_eng-prolific,3.2.4,Win32,60,5e95befc3834c10008c19c43,,1,0,98,73,1,97
,,,,,,,,,,,,,,,,,,,,,,,,,,,,,,,,,,,,,,,,,backspace,13.68199992,PASTA,TRUE,,,,,,,78,pastel,Spanish,Sounds/spa_pastel.mp3,2020-06-05_15h36.21.439,TranslationElicitation_eng-prolific,3.2.4,Win32,60,5e95befc3834c10008c19c43,,1,0,98,73,1,97
,,,,,,,,,,,,,,,,,,,,,,,,,,,,,,,,,,,,,,,,,backspace,13.87700009,PAST,TRUE,,,,,,,78,pastel,Spanish,Sounds/spa_pastel.mp3,2020-06-05_15h36.21.439,TranslationElicitation_eng-prolific,3.2.4,Win32,60,5e95befc3834c10008c19c43,,1,0,98,73,1,97
,,,,,,,,,,,,,,,,,,,,,,,,,,,,,,,,,,,,,,,,,l,14.0480001,PASTL,TRUE,,,,,,,78,pastel,Spanish,Sounds/spa_pastel.mp3,2020-06-05_15h36.21.439,TranslationElicitation_eng-prolific,3.2.4,Win32,60,5e95befc3834c10008c19c43,,1,0,98,73,1,97
,,,,,,,,,,,,,,,,,,,,,,,,,,,,,,,,,,,,,,,,,e,14.16400003,PASTLE,TRUE,,,,,,,78,pastel,Spanish,Sounds/spa_pastel.mp3,2020-06-05_15h36.21.439,TranslationElicitation_eng-prolific,3.2.4,Win32,60,5e95befc3834c10008c19c43,,1,0,98,73,1,97
,,,,,,,,,,,,,,,,,,,,,,,,,,,,,,,,,,,,,,,,,backspace,23.92000008,PASTL,TRUE,,,,,,,78,pastel,Spanish,Sounds/spa_pastel.mp3,2020-06-05_15h36.21.439,TranslationElicitation_eng-prolific,3.2.4,Win32,60,5e95befc3834c10008c19c43,,1,0,98,73,1,97
,,,,,,,,,,,,,,,,,,,,,,,,,,,,,,,,,,,,,,,,,backspace,24.046,PAST,TRUE,,,,,,,78,pastel,Spanish,Sounds/spa_pastel.mp3,2020-06-05_15h36.21.439,TranslationElicitation_eng-prolific,3.2.4,Win32,60,5e95befc3834c10008c19c43,,1,0,98,73,1,97
,,,,,,,,,,,,,,,,,,,,,,,,,,,,,,,,,,,,,,,,,e,24.24699998,PASTE,TRUE,,,,,,,78,pastel,Spanish,Sounds/spa_pastel.mp3,2020-06-05_15h36.21.439,TranslationElicitation_eng-prolific,3.2.4,Win32,60,5e95befc3834c10008c19c43,,1,0,98,73,1,97
,,,,,,,,,,,,,,,,,,,,,,,,,,,,,,,,,,,,,,,,,l,24.41400003,PASTEL,TRUE,,,,,,,78,pastel,Spanish,Sounds/spa_pastel.mp3,2020-06-05_15h36.21.439,TranslationElicitation_eng-prolific,3.2.4,Win32,60,5e95befc3834c10008c19c43,,1,0,98,73,1,97
,,,,,,,,,,,,,,,,,,,,,,,,,,,,,,,,,,,,,,,,,return,25.08800006,PASTEL,TRUE,,,,,,,78,pastel,Spanish,Sounds/spa_pastel.mp3,2020-06-05_15h36.21.439,TranslationElicitation_eng-prolific,3.2.4,Win32,60,5e95befc3834c10008c19c43,25.08800006,1,0,98,73,1,97
,,,,,,,,,,,,,,,,,,,,,,,,,,,,,,,,,,,,,,,,,,,,,,,,,,,78,pastel,Spanish,Sounds/spa_pastel.mp3,2020-06-05_15h36.21.439,TranslationElicitation_eng-prolific,3.2.4,Win32,60,5e95befc3834c10008c19c43,,1,0,98,73,1,97
,,,,,,,,,,,,,,,,,,,,,,,,,,,,,,,,,,,,,,,,,r,11.51599979,R,FALSE,,,,,,,56,libro,Spanish,Sounds/spa_libro.mp3,2020-06-05_15h36.21.439,TranslationElicitation_eng-prolific,3.2.4,Win32,60,5e95befc3834c10008c19c43,,1,0,98,52,1,97
,,,,,,,,,,,,,,,,,,,,,,,,,,,,,,,,,,,,,,,,,i,11.61599994,RI,FALSE,,,,,,,56,libro,Spanish,Sounds/spa_libro.mp3,2020-06-05_15h36.21.439,TranslationElicitation_eng-prolific,3.2.4,Win32,60,5e95befc3834c10008c19c43,,1,0,98,52,1,97
,,,,,,,,,,,,,,,,,,,,,,,,,,,,,,,,,,,,,,,,,backspace,12.2329998,R,TRUE,,,,,,,56,libro,Spanish,Sounds/spa_libro.mp3,2020-06-05_15h36.21.439,TranslationElicitation_eng-prolific,3.2.4,Win32,60,5e95befc3834c10008c19c43,,1,0,98,52,1,97
,,,,,,,,,,,,,,,,,,,,,,,,,,,,,,,,,,,,,,,,,u,12.83299994,RU,TRUE,,,,,,,56,libro,Spanish,Sounds/spa_libro.mp3,2020-06-05_15h36.21.439,TranslationElicitation_eng-prolific,3.2.4,Win32,60,5e95befc3834c10008c19c43,,1,0,98,52,1,97
,,,,,,,,,,,,,,,,,,,,,,,,,,,,,,,,,,,,,,,,,l,12.96899986,RUL,TRUE,,,,,,,56,libro,Spanish,Sounds/spa_libro.mp3,2020-06-05_15h36.21.439,TranslationElicitation_eng-prolific,3.2.4,Win32,60,5e95befc3834c10008c19c43,,1,0,98,52,1,97
,,,,,,,,,,,,,,,,,,,,,,,,,,,,,,,,,,,,,,,,,e,13.16799998,RULE,TRUE,,,,,,,56,libro,Spanish,Sounds/spa_libro.mp3,2020-06-05_15h36.21.439,TranslationElicitation_eng-prolific,3.2.4,Win32,60,5e95befc3834c10008c19c43,,1,0,98,52,1,97
,,,,,,,,,,,,,,,,,,,,,,,,,,,,,,,,,,,,,,,,,r,13.34599996,RULER,TRUE,,,,,,,56,libro,Spanish,Sounds/spa_libro.mp3,2020-06-05_15h36.21.439,TranslationElicitation_eng-prolific,3.2.4,Win32,60,5e95befc3834c10008c19c43,,1,0,98,52,1,97
,,,,,,,,,,,,,,,,,,,,,,,,,,,,,,,,,,,,,,,,,return,13.93400002,RULER,TRUE,,,,,,,56,libro,Spanish,Sounds/spa_libro.mp3,2020-06-05_15h36.21.439,TranslationElicitation_eng-prolific,3.2.4,Win32,60,5e95befc3834c10008c19c43,13.93400002,1,0,98,52,1,97
,,,,,,,,,,,,,,,,,,,,,,,,,,,,,,,,,,,,,,,,,,,,,,,,,,,56,libro,Spanish,Sounds/spa_libro.mp3,2020-06-05_15h36.21.439,TranslationElicitation_eng-prolific,3.2.4,Win32,60,5e95befc3834c10008c19c43,,1,0,98,52,1,97
,,,,,,,,,,,,,,,,,,,,,,,,,,,,,,,,,,,,,,,,,p,2.933000088,P,FALSE,,,,,,,88,plato,Spanish,Sounds/spa_plato.mp3,2020-06-05_15h36.21.439,TranslationElicitation_eng-prolific,3.2.4,Win32,60,5e95befc3834c10008c19c43,,1,0,98,83,1,97
,,,,,,,,,,,,,,,,,,,,,,,,,,,,,,,,,,,,,,,,,l,3.116000175,PL,FALSE,,,,,,,88,plato,Spanish,Sounds/spa_plato.mp3,2020-06-05_15h36.21.439,TranslationElicitation_eng-prolific,3.2.4,Win32,60,5e95befc3834c10008c19c43,,1,0,98,83,1,97
,,,,,,,,,,,,,,,,,,,,,,,,,,,,,,,,,,,,,,,,,a,3.251000166,PLA,FALSE,,,,,,,88,plato,Spanish,Sounds/spa_plato.mp3,2020-06-05_15h36.21.439,TranslationElicitation_eng-prolific,3.2.4,Win32,60,5e95befc3834c10008c19c43,,1,0,98,83,1,97
,,,,,,,,,,,,,,,,,,,,,,,,,,,,,,,,,,,,,,,,,t,3.48300004,PLAT,FALSE,,,,,,,88,plato,Spanish,Sounds/spa_plato.mp3,2020-06-05_15h36.21.439,TranslationElicitation_eng-prolific,3.2.4,Win32,60,5e95befc3834c10008c19c43,,1,0,98,83,1,97
,,,,,,,,,,,,,,,,,,,,,,,,,,,,,,,,,,,,,,,,,e,3.633000135,PLATE,FALSE,,,,,,,88,plato,Spanish,Sounds/spa_plato.mp3,2020-06-05_15h36.21.439,TranslationElicitation_eng-prolific,3.2.4,Win32,60,5e95befc3834c10008c19c43,,1,0,98,83,1,97
,,,,,,,,,,,,,,,,,,,,,,,,,,,,,,,,,,,,,,,,,return,7.19900012,PLATE,FALSE,,,,,,,88,plato,Spanish,Sounds/spa_plato.mp3,2020-06-05_15h36.21.439,TranslationElicitation_eng-prolific,3.2.4,Win32,60,5e95befc3834c10008c19c43,7.19900012,1,0,98,83,1,97
,,,,,,,,,,,,,,,,,,,,,,,,,,,,,,,,,,,,,,,,,,,,,,,,,,,88,plato,Spanish,Sounds/spa_plato.mp3,2020-06-05_15h36.21.439,TranslationElicitation_eng-prolific,3.2.4,Win32,60,5e95befc3834c10008c19c43,,1,0,98,83,1,97
,,,,,,,,,,,,,,,,,,,,,,,,,,,,,,,,,,,,,,,,,z,4.999000072,Z,FALSE,,,,,,,21,cebra,Spanish,Sounds/spa_cebra.mp3,2020-06-05_15h36.21.439,TranslationElicitation_eng-prolific,3.2.4,Win32,60,5e95befc3834c10008c19c43,,1,0,98,19,1,97
,,,,,,,,,,,,,,,,,,,,,,,,,,,,,,,,,,,,,,,,,e,5.282999992,ZE,FALSE,,,,,,,21,cebra,Spanish,Sounds/spa_cebra.mp3,2020-06-05_15h36.21.439,TranslationElicitation_eng-prolific,3.2.4,Win32,60,5e95befc3834c10008c19c43,,1,0,98,19,1,97
,,,,,,,,,,,,,,,,,,,,,,,,,,,,,,,,,,,,,,,,,b,5.615999937,ZEB,FALSE,,,,,,,21,cebra,Spanish,Sounds/spa_cebra.mp3,2020-06-05_15h36.21.439,TranslationElicitation_eng-prolific,3.2.4,Win32,60,5e95befc3834c10008c19c43,,1,0,98,19,1,97
,,,,,,,,,,,,,,,,,,,,,,,,,,,,,,,,,,,,,,,,,r,5.766000032,ZEBR,FALSE,,,,,,,21,cebra,Spanish,Sounds/spa_cebra.mp3,2020-06-05_15h36.21.439,TranslationElicitation_eng-prolific,3.2.4,Win32,60,5e95befc3834c10008c19c43,,1,0,98,19,1,97
,,,,,,,,,,,,,,,,,,,,,,,,,,,,,,,,,,,,,,,,,a,6.049000025,ZEBRA,FALSE,,,,,,,21,cebra,Spanish,Sounds/spa_cebra.mp3,2020-06-05_15h36.21.439,TranslationElicitation_eng-prolific,3.2.4,Win32,60,5e95befc3834c10008c19c43,,1,0,98,19,1,97
,,,,,,,,,,,,,,,,,,,,,,,,,,,,,,,,,,,,,,,,,return,6.782999992,ZEBRA,FALSE,,,,,,,21,cebra,Spanish,Sounds/spa_cebra.mp3,2020-06-05_15h36.21.439,TranslationElicitation_eng-prolific,3.2.4,Win32,60,5e95befc3834c10008c19c43,6.782999992,1,0,98,19,1,97
,,,,,,,,,,,,,,,,,,,,,,,,,,,,,,,,,,,,,,,,,,,,,,,,,,,21,cebra,Spanish,Sounds/spa_cebra.mp3,2020-06-05_15h36.21.439,TranslationElicitation_eng-prolific,3.2.4,Win32,60,5e95befc3834c10008c19c43,,1,0,98,19,1,97
,,,,,,,,,,,,,,,,,,,,,,,,,,,,,,,,,,,,,,,,,p,22.04699993,P,FALSE,,,,,,,60,manzana,Spanish,Sounds/spa_manzana.mp3,2020-06-05_15h36.21.439,TranslationElicitation_eng-prolific,3.2.4,Win32,60,5e95befc3834c10008c19c43,,1,0,98,56,1,97
,,,,,,,,,,,,,,,,,,,,,,,,,,,,,,,,,,,,,,,,,l,22.19799995,PL,FALSE,,,,,,,60,manzana,Spanish,Sounds/spa_manzana.mp3,2020-06-05_15h36.21.439,TranslationElicitation_eng-prolific,3.2.4,Win32,60,5e95befc3834c10008c19c43,,1,0,98,56,1,97
,,,,,,,,,,,,,,,,,,,,,,,,,,,,,,,,,,,,,,,,,a,22.98300004,PLA,FALSE,,,,,,,60,manzana,Spanish,Sounds/spa_manzana.mp3,2020-06-05_15h36.21.439,TranslationElicitation_eng-prolific,3.2.4,Win32,60,5e95befc3834c10008c19c43,,1,0,98,56,1,97
,,,,,,,,,,,,,,,,,,,,,,,,,,,,,,,,,,,,,,,,,n,23.1170001,PLAN,FALSE,,,,,,,60,manzana,Spanish,Sounds/spa_manzana.mp3,2020-06-05_15h36.21.439,TranslationElicitation_eng-prolific,3.2.4,Win32,60,5e95befc3834c10008c19c43,,1,0,98,56,1,97
,,,,,,,,,,,,,,,,,,,,,,,,,,,,,,,,,,,,,,,,,t,23.2980001,PLANT,FALSE,,,,,,,60,manzana,Spanish,Sounds/spa_manzana.mp3,2020-06-05_15h36.21.439,TranslationElicitation_eng-prolific,3.2.4,Win32,60,5e95befc3834c10008c19c43,,1,0,98,56,1,97
,,,,,,,,,,,,,,,,,,,,,,,,,,,,,,,,,,,,,,,,,return,23.98099995,PLANT,FALSE,,,,,,,60,manzana,Spanish,Sounds/spa_manzana.mp3,2020-06-05_15h36.21.439,TranslationElicitation_eng-prolific,3.2.4,Win32,60,5e95befc3834c10008c19c43,23.98099995,1,0,98,56,1,97
,,,,,,,,,,,,,,,,,,,,,,,,,,,,,,,,,,,,,,,,,,,,,,,,,,,60,manzana,Spanish,Sounds/spa_manzana.mp3,2020-06-05_15h36.21.439,TranslationElicitation_eng-prolific,3.2.4,Win32,60,5e95befc3834c10008c19c43,,1,0,98,56,1,97
,,,,,,,,,,,,,,,,,,,,,,,,,,,,,,,,,,,,,,,,,s,5.155999899,S,FALSE,,,,,,,80,pato,Spanish,Sounds/spa_pato.mp3,2020-06-05_15h36.21.439,TranslationElicitation_eng-prolific,3.2.4,Win32,60,5e95befc3834c10008c19c43,,1,0,98,75,1,97
,,,,,,,,,,,,,,,,,,,,,,,,,,,,,,,,,,,,,,,,,t,5.549000025,ST,FALSE,,,,,,,80,pato,Spanish,Sounds/spa_pato.mp3,2020-06-05_15h36.21.439,TranslationElicitation_eng-prolific,3.2.4,Win32,60,5e95befc3834c10008c19c43,,1,0,98,75,1,97
,,,,,,,,,,,,,,,,,,,,,,,,,,,,,,,,,,,,,,,,,r,5.786000013,STR,FALSE,,,,,,,80,pato,Spanish,Sounds/spa_pato.mp3,2020-06-05_15h36.21.439,TranslationElicitation_eng-prolific,3.2.4,Win32,60,5e95befc3834c10008c19c43,,1,0,98,75,1,97
,,,,,,,,,,,,,,,,,,,,,,,,,,,,,,,,,,,,,,,,,e,5.914999962,STRE,FALSE,,,,,,,80,pato,Spanish,Sounds/spa_pato.mp3,2020-06-05_15h36.21.439,TranslationElicitation_eng-prolific,3.2.4,Win32,60,5e95befc3834c10008c19c43,,1,0,98,75,1,97
,,,,,,,,,,,,,,,,,,,,,,,,,,,,,,,,,,,,,,,,,e,6.049000025,STREE,FALSE,,,,,,,80,pato,Spanish,Sounds/spa_pato.mp3,2020-06-05_15h36.21.439,TranslationElicitation_eng-prolific,3.2.4,Win32,60,5e95befc3834c10008c19c43,,1,0,98,75,1,97
,,,,,,,,,,,,,,,,,,,,,,,,,,,,,,,,,,,,,,,,,t,6.184000015,STREET,FALSE,,,,,,,80,pato,Spanish,Sounds/spa_pato.mp3,2020-06-05_15h36.21.439,TranslationElicitation_eng-prolific,3.2.4,Win32,60,5e95befc3834c10008c19c43,,1,0,98,75,1,97
,,,,,,,,,,,,,,,,,,,,,,,,,,,,,,,,,,,,,,,,,return,7.36500001,STREET,FALSE,,,,,,,80,pato,Spanish,Sounds/spa_pato.mp3,2020-06-05_15h36.21.439,TranslationElicitation_eng-prolific,3.2.4,Win32,60,5e95befc3834c10008c19c43,7.36500001,1,0,98,75,1,97
,,,,,,,,,,,,,,,,,,,,,,,,,,,,,,,,,,,,,,,,,,,,,,,,,,,80,pato,Spanish,Sounds/spa_pato.mp3,2020-06-05_15h36.21.439,TranslationElicitation_eng-prolific,3.2.4,Win32,60,5e95befc3834c10008c19c43,,1,0,98,75,1,97
,,,,,,,,,,,,,,,,,,,,,,,,,,,,,,,,,,,,,,,,,w,27.18099999,W,FALSE,,,,,,,67,muneca,Spanish,Sounds/spa_muneca.mp3,2020-06-05_15h36.21.439,TranslationElicitation_eng-prolific,3.2.4,Win32,60,5e95befc3834c10008c19c43,,1,0,98,63,1,97
,,,,,,,,,,,,,,,,,,,,,,,,,,,,,,,,,,,,,,,,,backspace,28.0999999,,TRUE,,,,,,,67,muneca,Spanish,Sounds/spa_muneca.mp3,2020-06-05_15h36.21.439,TranslationElicitation_eng-prolific,3.2.4,Win32,60,5e95befc3834c10008c19c43,,1,0,98,63,1,97
,,,,,,,,,,,,,,,,,,,,,,,,,,,,,,,,,,,,,,,,,f,31.21399999,F,TRUE,,,,,,,67,muneca,Spanish,Sounds/spa_muneca.mp3,2020-06-05_15h36.21.439,TranslationElicitation_eng-prolific,3.2.4,Win32,60,5e95befc3834c10008c19c43,,1,0,98,63,1,97
,,,,,,,,,,,,,,,,,,,,,,,,,,,,,,,,,,,,,,,,,r,31.38100004,FR,TRUE,,,,,,,67,muneca,Spanish,Sounds/spa_muneca.mp3,2020-06-05_15h36.21.439,TranslationElicitation_eng-prolific,3.2.4,Win32,60,5e95befc3834c10008c19c43,,1,0,98,63,1,97
,,,,,,,,,,,,,,,,,,,,,,,,,,,,,,,,,,,,,,,,,i,31.5309999,FRI,TRUE,,,,,,,67,muneca,Spanish,Sounds/spa_muneca.mp3,2020-06-05_15h36.21.439,TranslationElicitation_eng-prolific,3.2.4,Win32,60,5e95befc3834c10008c19c43,,1,0,98,63,1,97
,,,,,,,,,,,,,,,,,,,,,,,,,,,,,,,,,,,,,,,,,e,31.63100004,FRIE,TRUE,,,,,,,67,muneca,Spanish,Sounds/spa_muneca.mp3,2020-06-05_15h36.21.439,TranslationElicitation_eng-prolific,3.2.4,Win32,60,5e95befc3834c10008c19c43,,1,0,98,63,1,97
,,,,,,,,,,,,,,,,,,,,,,,,,,,,,,,,,,,,,,,,,n,31.76399994,FRIEN,TRUE,,,,,,,67,muneca,Spanish,Sounds/spa_muneca.mp3,2020-06-05_15h36.21.439,TranslationElicitation_eng-prolific,3.2.4,Win32,60,5e95befc3834c10008c19c43,,1,0,98,63,1,97
,,,,,,,,,,,,,,,,,,,,,,,,,,,,,,,,,,,,,,,,,d,31.8499999,FRIEND,TRUE,,,,,,,67,muneca,Spanish,Sounds/spa_muneca.mp3,2020-06-05_15h36.21.439,TranslationElicitation_eng-prolific,3.2.4,Win32,60,5e95befc3834c10008c19c43,,1,0,98,63,1,97
,,,,,,,,,,,,,,,,,,,,,,,,,,,,,,,,,,,,,,,,,return,32.52999997,FRIEND,TRUE,,,,,,,67,muneca,Spanish,Sounds/spa_muneca.mp3,2020-06-05_15h36.21.439,TranslationElicitation_eng-prolific,3.2.4,Win32,60,5e95befc3834c10008c19c43,32.52999997,1,0,98,63,1,97
,,,,,,,,,,,,,,,,,,,,,,,,,,,,,,,,,,,,,,,,,,,,,,,,,,,67,muneca,Spanish,Sounds/spa_muneca.mp3,2020-06-05_15h36.21.439,TranslationElicitation_eng-prolific,3.2.4,Win32,60,5e95befc3834c10008c19c43,,1,0,98,63,1,97
,,,,,,,,,,,,,,,,,,,,,,,,,,,,,,,,,,,,,,,,,l,8.082000017,L,FALSE,,,,,,,84,pie,Spanish,Sounds/spa_pie.mp3,2020-06-05_15h36.21.439,TranslationElicitation_eng-prolific,3.2.4,Win32,60,5e95befc3834c10008c19c43,,1,0,98,79,1,97
,,,,,,,,,,,,,,,,,,,,,,,,,,,,,,,,,,,,,,,,,o,8.315999985,LO,FALSE,,,,,,,84,pie,Spanish,Sounds/spa_pie.mp3,2020-06-05_15h36.21.439,TranslationElicitation_eng-prolific,3.2.4,Win32,60,5e95befc3834c10008c19c43,,1,0,98,79,1,97
,,,,,,,,,,,,,,,,,,,,,,,,,,,,,,,,,,,,,,,,,o,8.433000088,LOO,FALSE,,,,,,,84,pie,Spanish,Sounds/spa_pie.mp3,2020-06-05_15h36.21.439,TranslationElicitation_eng-prolific,3.2.4,Win32,60,5e95befc3834c10008c19c43,,1,0,98,79,1,97
,,,,,,,,,,,,,,,,,,,,,,,,,,,,,,,,,,,,,,,,,k,8.582000017,LOOK,FALSE,,,,,,,84,pie,Spanish,Sounds/spa_pie.mp3,2020-06-05_15h36.21.439,TranslationElicitation_eng-prolific,3.2.4,Win32,60,5e95befc3834c10008c19c43,,1,0,98,79,1,97
,,,,,,,,,,,,,,,,,,,,,,,,,,,,,,,,,,,,,,,,,return,9.232000113,LOOK,FALSE,,,,,,,84,pie,Spanish,Sounds/spa_pie.mp3,2020-06-05_15h36.21.439,TranslationElicitation_eng-prolific,3.2.4,Win32,60,5e95befc3834c10008c19c43,9.232000113,1,0,98,79,1,97
,,,,,,,,,,,,,,,,,,,,,,,,,,,,,,,,,,,,,,,,,,,,,,,,,,,84,pie,Spanish,Sounds/spa_pie.mp3,2020-06-05_15h36.21.439,TranslationElicitation_eng-prolific,3.2.4,Win32,60,5e95befc3834c10008c19c43,,1,0,98,79,1,97
,,,,,,,,,,,,,,,,,,,,,,,,,,,,,,,,,,,,,,,,,g,25.66499996,G,FALSE,,,,,,,43,globo,Spanish,Sounds/spa_globo.mp3,2020-06-05_15h36.21.439,TranslationElicitation_eng-prolific,3.2.4,Win32,60,5e95befc3834c10008c19c43,,1,0,98,39,1,97
,,,,,,,,,,,,,,,,,,,,,,,,,,,,,,,,,,,,,,,,,l,25.7980001,GL,FALSE,,,,,,,43,globo,Spanish,Sounds/spa_globo.mp3,2020-06-05_15h36.21.439,TranslationElicitation_eng-prolific,3.2.4,Win32,60,5e95befc3834c10008c19c43,,1,0,98,39,1,97
,,,,,,,,,,,,,,,,,,,,,,,,,,,,,,,,,,,,,,,,,o,25.93099999,GLO,FALSE,,,,,,,43,globo,Spanish,Sounds/spa_globo.mp3,2020-06-05_15h36.21.439,TranslationElicitation_eng-prolific,3.2.4,Win32,60,5e95befc3834c10008c19c43,,1,0,98,39,1,97
,,,,,,,,,,,,,,,,,,,,,,,,,,,,,,,,,,,,,,,,,v,26.19799995,GLOV,FALSE,,,,,,,43,globo,Spanish,Sounds/spa_globo.mp3,2020-06-05_15h36.21.439,TranslationElicitation_eng-prolific,3.2.4,Win32,60,5e95befc3834c10008c19c43,,1,0,98,39,1,97
,,,,,,,,,,,,,,,,,,,,,,,,,,,,,,,,,,,,,,,,,e,26.31599998,GLOVE,FALSE,,,,,,,43,globo,Spanish,Sounds/spa_globo.mp3,2020-06-05_15h36.21.439,TranslationElicitation_eng-prolific,3.2.4,Win32,60,5e95befc3834c10008c19c43,,1,0,98,39,1,97
,,,,,,,,,,,,,,,,,,,,,,,,,,,,,,,,,,,,,,,,,s,26.48099995,GLOVES,FALSE,,,,,,,43,globo,Spanish,Sounds/spa_globo.mp3,2020-06-05_15h36.21.439,TranslationElicitation_eng-prolific,3.2.4,Win32,60,5e95befc3834c10008c19c43,,1,0,98,39,1,97
,,,,,,,,,,,,,,,,,,,,,,,,,,,,,,,,,,,,,,,,,return,27.0480001,GLOVES,FALSE,,,,,,,43,globo,Spanish,Sounds/spa_globo.mp3,2020-06-05_15h36.21.439,TranslationElicitation_eng-prolific,3.2.4,Win32,60,5e95befc3834c10008c19c43,27.0480001,1,0,98,39,1,97
,,,,,,,,,,,,,,,,,,,,,,,,,,,,,,,,,,,,,,,,,,,,,,,,,,,43,globo,Spanish,Sounds/spa_globo.mp3,2020-06-05_15h36.21.439,TranslationElicitation_eng-prolific,3.2.4,Win32,60,5e95befc3834c10008c19c43,,1,0,98,39,1,97
,,,,,,,,,,,,,,,,,,,,,,,,,,,,,,,,,,,,,,,,,p,9.499000072,P,FALSE,,,,,,,2,avestruz,Spanish,Sounds/spa_avestruz.mp3,2020-06-05_15h36.21.439,TranslationElicitation_eng-prolific,3.2.4,Win32,60,5e95befc3834c10008c19c43,,1,0,98,0,1,97
,,,,,,,,,,,,,,,,,,,,,,,,,,,,,,,,,,,,,,,,,o,9.765000105,PO,FALSE,,,,,,,2,avestruz,Spanish,Sounds/spa_avestruz.mp3,2020-06-05_15h36.21.439,TranslationElicitation_eng-prolific,3.2.4,Win32,60,5e95befc3834c10008c19c43,,1,0,98,0,1,97
,,,,,,,,,,,,,,,,,,,,,,,,,,,,,,,,,,,,,,,,,o,9.881999969,POO,FALSE,,,,,,,2,avestruz,Spanish,Sounds/spa_avestruz.mp3,2020-06-05_15h36.21.439,TranslationElicitation_eng-prolific,3.2.4,Win32,60,5e95befc3834c10008c19c43,,1,0,98,0,1,97
,,,,,,,,,,,,,,,,,,,,,,,,,,,,,,,,,,,,,,,,,d,10.38400006,POOD,FALSE,,,,,,,2,avestruz,Spanish,Sounds/spa_avestruz.mp3,2020-06-05_15h36.21.439,TranslationElicitation_eng-prolific,3.2.4,Win32,60,5e95befc3834c10008c19c43,,1,0,98,0,1,97
,,,,,,,,,,,,,,,,,,,,,,,,,,,,,,,,,,,,,,,,,l,11.19799995,POODL,FALSE,,,,,,,2,avestruz,Spanish,Sounds/spa_avestruz.mp3,2020-06-05_15h36.21.439,TranslationElicitation_eng-prolific,3.2.4,Win32,60,5e95befc3834c10008c19c43,,1,0,98,0,1,97
,,,,,,,,,,,,,,,,,,,,,,,,,,,,,,,,,,,,,,,,,e,11.31500006,POODLE,FALSE,,,,,,,2,avestruz,Spanish,Sounds/spa_avestruz.mp3,2020-06-05_15h36.21.439,TranslationElicitation_eng-prolific,3.2.4,Win32,60,5e95befc3834c10008c19c43,,1,0,98,0,1,97
,,,,,,,,,,,,,,,,,,,,,,,,,,,,,,,,,,,,,,,,,return,12.0480001,POODLE,FALSE,,,,,,,2,avestruz,Spanish,Sounds/spa_avestruz.mp3,2020-06-05_15h36.21.439,TranslationElicitation_eng-prolific,3.2.4,Win32,60,5e95befc3834c10008c19c43,12.0480001,1,0,98,0,1,97
,,,,,,,,,,,,,,,,,,,,,,,,,,,,,,,,,,,,,,,,,,,,,,,,,,,2,avestruz,Spanish,Sounds/spa_avestruz.mp3,2020-06-05_15h36.21.439,TranslationElicitation_eng-prolific,3.2.4,Win32,60,5e95befc3834c10008c19c43,,1,0,98,0,1,97
,,,,,,,,,,,,,,,,,,,,,,,,,,,,,,,,,,,,,,,,,s,4.782999992,S,FALSE,,,,,,,93,sol,Spanish,Sounds/spa_sol.mp3,2020-06-05_15h36.21.439,TranslationElicitation_eng-prolific,3.2.4,Win32,60,5e95befc3834c10008c19c43,,1,0,98,88,1,97
,,,,,,,,,,,,,,,,,,,,,,,,,,,,,,,,,,,,,,,,,u,5,SU,FALSE,,,,,,,93,sol,Spanish,Sounds/spa_sol.mp3,2020-06-05_15h36.21.439,TranslationElicitation_eng-prolific,3.2.4,Win32,60,5e95befc3834c10008c19c43,,1,0,98,88,1,97
,,,,,,,,,,,,,,,,,,,,,,,,,,,,,,,,,,,,,,,,,n,5.148999929,SUN,FALSE,,,,,,,93,sol,Spanish,Sounds/spa_sol.mp3,2020-06-05_15h36.21.439,TranslationElicitation_eng-prolific,3.2.4,Win32,60,5e95befc3834c10008c19c43,,1,0,98,88,1,97
,,,,,,,,,,,,,,,,,,,,,,,,,,,,,,,,,,,,,,,,,return,7.365999937,SUN,FALSE,,,,,,,93,sol,Spanish,Sounds/spa_sol.mp3,2020-06-05_15h36.21.439,TranslationElicitation_eng-prolific,3.2.4,Win32,60,5e95befc3834c10008c19c43,7.365999937,1,0,98,88,1,97
,,,,,,,,,,,,,,,,,,,,,,,,,,,,,,,,,,,,,,,,,,,,,,,,,,,93,sol,Spanish,Sounds/spa_sol.mp3,2020-06-05_15h36.21.439,TranslationElicitation_eng-prolific,3.2.4,Win32,60,5e95befc3834c10008c19c43,,1,0,98,88,1,97
,,,,,,,,,,,,,,,,,,,,,,,,,,,,,,,,,,,,,,,,,b,2.784000158,B,FALSE,,,,,,,100,toro,Spanish,Sounds/spa_toro.mp3,2020-06-05_15h36.21.439,TranslationElicitation_eng-prolific,3.2.4,Win32,60,5e95befc3834c10008c19c43,,1,0,98,94,1,97
,,,,,,,,,,,,,,,,,,,,,,,,,,,,,,,,,,,,,,,,,u,2.967999935,BU,FALSE,,,,,,,100,toro,Spanish,Sounds/spa_toro.mp3,2020-06-05_15h36.21.439,TranslationElicitation_eng-prolific,3.2.4,Win32,60,5e95befc3834c10008c19c43,,1,0,98,94,1,97
,,,,,,,,,,,,,,,,,,,,,,,,,,,,,,,,,,,,,,,,,l,3.666000128,BUL,FALSE,,,,,,,100,toro,Spanish,Sounds/spa_toro.mp3,2020-06-05_15h36.21.439,TranslationElicitation_eng-prolific,3.2.4,Win32,60,5e95befc3834c10008c19c43,,1,0,98,94,1,97
,,,,,,,,,,,,,,,,,,,,,,,,,,,,,,,,,,,,,,,,,l,3.834000111,BULL,FALSE,,,,,,,100,toro,Spanish,Sounds/spa_toro.mp3,2020-06-05_15h36.21.439,TranslationElicitation_eng-prolific,3.2.4,Win32,60,5e95befc3834c10008c19c43,,1,0,98,94,1,97
,,,,,,,,,,,,,,,,,,,,,,,,,,,,,,,,,,,,,,,,,return,5.799999952,BULL,FALSE,,,,,,,100,toro,Spanish,Sounds/spa_toro.mp3,2020-06-05_15h36.21.439,TranslationElicitation_eng-prolific,3.2.4,Win32,60,5e95befc3834c10008c19c43,5.799999952,1,0,98,94,1,97
,,,,,,,,,,,,,,,,,,,,,,,,,,,,,,,,,,,,,,,,,,,,,,,,,,,100,toro,Spanish,Sounds/spa_toro.mp3,2020-06-05_15h36.21.439,TranslationElicitation_eng-prolific,3.2.4,Win32,60,5e95befc3834c10008c19c43,,1,0,98,94,1,97
,,,,,,,,,,,,,,,,,,,,,,,,,,,,,,,,,,,,,,,,,b,21.98200011,B,FALSE,,,,,,,44,gorrion,Spanish,Sounds/spa_gorrion.mp3,2020-06-05_15h36.21.439,TranslationElicitation_eng-prolific,3.2.4,Win32,60,5e95befc3834c10008c19c43,,1,0,98,40,1,97
,,,,,,,,,,,,,,,,,,,,,,,,,,,,,,,,,,,,,,,,,e,22.08300018,BE,FALSE,,,,,,,44,gorrion,Spanish,Sounds/spa_gorrion.mp3,2020-06-05_15h36.21.439,TranslationElicitation_eng-prolific,3.2.4,Win32,60,5e95befc3834c10008c19c43,,1,0,98,40,1,97
,,,,,,,,,,,,,,,,,,,,,,,,,,,,,,,,,,,,,,,,,n,22.21500015,BEN,FALSE,,,,,,,44,gorrion,Spanish,Sounds/spa_gorrion.mp3,2020-06-05_15h36.21.439,TranslationElicitation_eng-prolific,3.2.4,Win32,60,5e95befc3834c10008c19c43,,1,0,98,40,1,97
,,,,,,,,,,,,,,,,,,,,,,,,,,,,,,,,,,,,,,,,,c,22.34899998,BENC,FALSE,,,,,,,44,gorrion,Spanish,Sounds/spa_gorrion.mp3,2020-06-05_15h36.21.439,TranslationElicitation_eng-prolific,3.2.4,Win32,60,5e95befc3834c10008c19c43,,1,0,98,40,1,97
,,,,,,,,,,,,,,,,,,,,,,,,,,,,,,,,,,,,,,,,,h,22.46500015,BENCH,FALSE,,,,,,,44,gorrion,Spanish,Sounds/spa_gorrion.mp3,2020-06-05_15h36.21.439,TranslationElicitation_eng-prolific,3.2.4,Win32,60,5e95befc3834c10008c19c43,,1,0,98,40,1,97
,,,,,,,,,,,,,,,,,,,,,,,,,,,,,,,,,,,,,,,,,return,23.21500015,BENCH,FALSE,,,,,,,44,gorrion,Spanish,Sounds/spa_gorrion.mp3,2020-06-05_15h36.21.439,TranslationElicitation_eng-prolific,3.2.4,Win32,60,5e95befc3834c10008c19c43,23.21500015,1,0,98,40,1,97
,,,,,,,,,,,,,,,,,,,,,,,,,,,,,,,,,,,,,,,,,,,,,,,,,,,44,gorrion,Spanish,Sounds/spa_gorrion.mp3,2020-06-05_15h36.21.439,TranslationElicitation_eng-prolific,3.2.4,Win32,60,5e95befc3834c10008c19c43,,1,0,98,40,1,97
,,,,,,,,,,,,,,,,,,,,,,,,,,,,,,,,,,,,,,,,,f,23,F,FALSE,,,,,,,103,zanahoria,Spanish,Sounds/spa_zanahoria.mp3,2020-06-05_15h36.21.439,TranslationElicitation_eng-prolific,3.2.4,Win32,60,5e95befc3834c10008c19c43,,1,0,98,97,1,97
,,,,,,,,,,,,,,,,,,,,,,,,,,,,,,,,,,,,,,,,,r,23.22000003,FR,FALSE,,,,,,,103,zanahoria,Spanish,Sounds/spa_zanahoria.mp3,2020-06-05_15h36.21.439,TranslationElicitation_eng-prolific,3.2.4,Win32,60,5e95befc3834c10008c19c43,,1,0,98,97,1,97
,,,,,,,,,,,,,,,,,,,,,,,,,,,,,,,,,,,,,,,,,i,23.69799995,FRI,FALSE,,,,,,,103,zanahoria,Spanish,Sounds/spa_zanahoria.mp3,2020-06-05_15h36.21.439,TranslationElicitation_eng-prolific,3.2.4,Win32,60,5e95befc3834c10008c19c43,,1,0,98,97,1,97
,,,,,,,,,,,,,,,,,,,,,,,,,,,,,,,,,,,,,,,,,e,23.83100009,FRIE,FALSE,,,,,,,103,zanahoria,Spanish,Sounds/spa_zanahoria.mp3,2020-06-05_15h36.21.439,TranslationElicitation_eng-prolific,3.2.4,Win32,60,5e95befc3834c10008c19c43,,1,0,98,97,1,97
,,,,,,,,,,,,,,,,,,,,,,,,,,,,,,,,,,,,,,,,,n,23.94799995,FRIEN,FALSE,,,,,,,103,zanahoria,Spanish,Sounds/spa_zanahoria.mp3,2020-06-05_15h36.21.439,TranslationElicitation_eng-prolific,3.2.4,Win32,60,5e95befc3834c10008c19c43,,1,0,98,97,1,97
,,,,,,,,,,,,,,,,,,,,,,,,,,,,,,,,,,,,,,,,,d,24.0480001,FRIEND,FALSE,,,,,,,103,zanahoria,Spanish,Sounds/spa_zanahoria.mp3,2020-06-05_15h36.21.439,TranslationElicitation_eng-prolific,3.2.4,Win32,60,5e95befc3834c10008c19c43,,1,0,98,97,1,97
,,,,,,,,,,,,,,,,,,,,,,,,,,,,,,,,,,,,,,,,,return,24.66600013,FRIEND,FALSE,,,,,,,103,zanahoria,Spanish,Sounds/spa_zanahoria.mp3,2020-06-05_15h36.21.439,TranslationElicitation_eng-prolific,3.2.4,Win32,60,5e95befc3834c10008c19c43,24.66600013,1,0,98,97,1,97
,,,,,,,,,,,,,,,,,,,,,,,,,,,,,,,,,,,,,,,,,,,,,,,,,,,103,zanahoria,Spanish,Sounds/spa_zanahoria.mp3,2020-06-05_15h36.21.439,TranslationElicitation_eng-prolific,3.2.4,Win32,60,5e95befc3834c10008c19c43,,1,0,98,97,1,97
,,,,,,,,,,,,,,,,,,,,,,,,,,,,,,,,,,,,,,,,,c,9.666000128,C,FALSE,,,,,,,19,camiseta,Spanish,Sounds/spa_camiseta.mp3,2020-06-05_15h36.21.439,TranslationElicitation_eng-prolific,3.2.4,Win32,60,5e95befc3834c10008c19c43,,1,0,98,17,1,97
,,,,,,,,,,,,,,,,,,,,,,,,,,,,,,,,,,,,,,,,,o,9.799000025,CO,FALSE,,,,,,,19,camiseta,Spanish,Sounds/spa_camiseta.mp3,2020-06-05_15h36.21.439,TranslationElicitation_eng-prolific,3.2.4,Win32,60,5e95befc3834c10008c19c43,,1,0,98,17,1,97
,,,,,,,,,,,,,,,,,,,,,,,,,,,,,,,,,,,,,,,,,m,9.934000015,COM,FALSE,,,,,,,19,camiseta,Spanish,Sounds/spa_camiseta.mp3,2020-06-05_15h36.21.439,TranslationElicitation_eng-prolific,3.2.4,Win32,60,5e95befc3834c10008c19c43,,1,0,98,17,1,97
,,,,,,,,,,,,,,,,,,,,,,,,,,,,,,,,,,,,,,,,,e,10.10100007,COME,FALSE,,,,,,,19,camiseta,Spanish,Sounds/spa_camiseta.mp3,2020-06-05_15h36.21.439,TranslationElicitation_eng-prolific,3.2.4,Win32,60,5e95befc3834c10008c19c43,,1,0,98,17,1,97
,,,,,,,,,,,,,,,,,,,,,,,,,,,,,,,,,,,,,,,,,space,10.18400002,COME ,FALSE,,,,,,,19,camiseta,Spanish,Sounds/spa_camiseta.mp3,2020-06-05_15h36.21.439,TranslationElicitation_eng-prolific,3.2.4,Win32,60,5e95befc3834c10008c19c43,,1,0,98,17,1,97
,,,,,,,,,,,,,,,,,,,,,,,,,,,,,,,,,,,,,,,,,o,10.76600003,COME O,FALSE,,,,,,,19,camiseta,Spanish,Sounds/spa_camiseta.mp3,2020-06-05_15h36.21.439,TranslationElicitation_eng-prolific,3.2.4,Win32,60,5e95befc3834c10008c19c43,,1,0,98,17,1,97
,,,,,,,,,,,,,,,,,,,,,,,,,,,,,,,,,,,,,,,,,v,11.23500013,COME OV,FALSE,,,,,,,19,camiseta,Spanish,Sounds/spa_camiseta.mp3,2020-06-05_15h36.21.439,TranslationElicitation_eng-prolific,3.2.4,Win32,60,5e95befc3834c10008c19c43,,1,0,98,17,1,97
,,,,,,,,,,,,,,,,,,,,,,,,,,,,,,,,,,,,,,,,,e,11.3670001,COME OVE,FALSE,,,,,,,19,camiseta,Spanish,Sounds/spa_camiseta.mp3,2020-06-05_15h36.21.439,TranslationElicitation_eng-prolific,3.2.4,Win32,60,5e95befc3834c10008c19c43,,1,0,98,17,1,97
,,,,,,,,,,,,,,,,,,,,,,,,,,,,,,,,,,,,,,,,,r,11.49900007,COME OVER,FALSE,,,,,,,19,camiseta,Spanish,Sounds/spa_camiseta.mp3,2020-06-05_15h36.21.439,TranslationElicitation_eng-prolific,3.2.4,Win32,60,5e95befc3834c10008c19c43,,1,0,98,17,1,97
,,,,,,,,,,,,,,,,,,,,,,,,,,,,,,,,,,,,,,,,,return,12.11500001,COME OVER,FALSE,,,,,,,19,camiseta,Spanish,Sounds/spa_camiseta.mp3,2020-06-05_15h36.21.439,TranslationElicitation_eng-prolific,3.2.4,Win32,60,5e95befc3834c10008c19c43,12.11500001,1,0,98,17,1,97
,,,,,,,,,,,,,,,,,,,,,,,,,,,,,,,,,,,,,,,,,,,,,,,,,,,19,camiseta,Spanish,Sounds/spa_camiseta.mp3,2020-06-05_15h36.21.439,TranslationElicitation_eng-prolific,3.2.4,Win32,60,5e95befc3834c10008c19c43,,1,0,98,17,1,97
,,,,,,,,,,,,,,,,,,,,,,,,,,,,,,,,,,,,,,,,,b,11.13100004,B,FALSE,,,,,,,62,martillo,Spanish,Sounds/spa_martillo.mp3,2020-06-05_15h36.21.439,TranslationElicitation_eng-prolific,3.2.4,Win32,60,5e95befc3834c10008c19c43,,1,0,98,58,1,97
,,,,,,,,,,,,,,,,,,,,,,,,,,,,,,,,,,,,,,,,,a,11.26499987,BA,FALSE,,,,,,,62,martillo,Spanish,Sounds/spa_martillo.mp3,2020-06-05_15h36.21.439,TranslationElicitation_eng-prolific,3.2.4,Win32,60,5e95befc3834c10008c19c43,,1,0,98,58,1,97
,,,,,,,,,,,,,,,,,,,,,,,,,,,,,,,,,,,,,,,,,n,11.38100004,BAN,FALSE,,,,,,,62,martillo,Spanish,Sounds/spa_martillo.mp3,2020-06-05_15h36.21.439,TranslationElicitation_eng-prolific,3.2.4,Win32,60,5e95befc3834c10008c19c43,,1,0,98,58,1,97
,,,,,,,,,,,,,,,,,,,,,,,,,,,,,,,,,,,,,,,,,d,11.48099995,BAND,FALSE,,,,,,,62,martillo,Spanish,Sounds/spa_martillo.mp3,2020-06-05_15h36.21.439,TranslationElicitation_eng-prolific,3.2.4,Win32,60,5e95befc3834c10008c19c43,,1,0,98,58,1,97
,,,,,,,,,,,,,,,,,,,,,,,,,,,,,,,,,,,,,,,,,return,11.898,BAND,FALSE,,,,,,,62,martillo,Spanish,Sounds/spa_martillo.mp3,2020-06-05_15h36.21.439,TranslationElicitation_eng-prolific,3.2.4,Win32,60,5e95befc3834c10008c19c43,11.898,1,0,98,58,1,97
,,,,,,,,,,,,,,,,,,,,,,,,,,,,,,,,,,,,,,,,,,,,,,,,,,,62,martillo,Spanish,Sounds/spa_martillo.mp3,2020-06-05_15h36.21.439,TranslationElicitation_eng-prolific,3.2.4,Win32,60,5e95befc3834c10008c19c43,,1,0,98,58,1,97
,,,,,,,,,,,,,,,,,,,,,,,,,,,,,,,,,,,,,,,,,b,20.23199987,B,FALSE,,,,,,,76,panal,Spanish,Sounds/spa_panal.mp3,2020-06-05_15h36.21.439,TranslationElicitation_eng-prolific,3.2.4,Win32,60,5e95befc3834c10008c19c43,,1,0,98,71,1,97
,,,,,,,,,,,,,,,,,,,,,,,,,,,,,,,,,,,,,,,,,r,20.33299994,BR,FALSE,,,,,,,76,panal,Spanish,Sounds/spa_panal.mp3,2020-06-05_15h36.21.439,TranslationElicitation_eng-prolific,3.2.4,Win32,60,5e95befc3834c10008c19c43,,1,0,98,71,1,97
,,,,,,,,,,,,,,,,,,,,,,,,,,,,,,,,,,,,,,,,,e,20.51600003,BRE,FALSE,,,,,,,76,panal,Spanish,Sounds/spa_panal.mp3,2020-06-05_15h36.21.439,TranslationElicitation_eng-prolific,3.2.4,Win32,60,5e95befc3834c10008c19c43,,1,0,98,71,1,97
,,,,,,,,,,,,,,,,,,,,,,,,,,,,,,,,,,,,,,,,,a,20.76600003,BREA,FALSE,,,,,,,76,panal,Spanish,Sounds/spa_panal.mp3,2020-06-05_15h36.21.439,TranslationElicitation_eng-prolific,3.2.4,Win32,60,5e95befc3834c10008c19c43,,1,0,98,71,1,97
,,,,,,,,,,,,,,,,,,,,,,,,,,,,,,,,,,,,,,,,,d,21,BREAD,FALSE,,,,,,,76,panal,Spanish,Sounds/spa_panal.mp3,2020-06-05_15h36.21.439,TranslationElicitation_eng-prolific,3.2.4,Win32,60,5e95befc3834c10008c19c43,,1,0,98,71,1,97
,,,,,,,,,,,,,,,,,,,,,,,,,,,,,,,,,,,,,,,,,return,21.18400002,BREAD,FALSE,,,,,,,76,panal,Spanish,Sounds/spa_panal.mp3,2020-06-05_15h36.21.439,TranslationElicitation_eng-prolific,3.2.4,Win32,60,5e95befc3834c10008c19c43,21.18400002,1,0,98,71,1,97
,,,,,,,,,,,,,,,,,,,,,,,,,,,,,,,,,,,,,,,,,,,,,,,,,,,76,panal,Spanish,Sounds/spa_panal.mp3,2020-06-05_15h36.21.439,TranslationElicitation_eng-prolific,3.2.4,Win32,60,5e95befc3834c10008c19c43,,1,0,98,71,1,97
,,,,,,,,,,,,,,,,,,,,,,,,,,,,,,,,,,,,,,,,,f,19.0480001,F,FALSE,,,,,,,91,puerta,Spanish,Sounds/spa_puerta.mp3,2020-06-05_15h36.21.439,TranslationElicitation_eng-prolific,3.2.4,Win32,60,5e95befc3834c10008c19c43,,1,0,98,86,1,97
,,,,,,,,,,,,,,,,,,,,,,,,,,,,,,,,,,,,,,,,,l,19.23100019,FL,FALSE,,,,,,,91,puerta,Spanish,Sounds/spa_puerta.mp3,2020-06-05_15h36.21.439,TranslationElicitation_eng-prolific,3.2.4,Win32,60,5e95befc3834c10008c19c43,,1,0,98,86,1,97
,,,,,,,,,,,,,,,,,,,,,,,,,,,,,,,,,,,,,,,,,o,19.43300009,FLO,FALSE,,,,,,,91,puerta,Spanish,Sounds/spa_puerta.mp3,2020-06-05_15h36.21.439,TranslationElicitation_eng-prolific,3.2.4,Win32,60,5e95befc3834c10008c19c43,,1,0,98,86,1,97
,,,,,,,,,,,,,,,,,,,,,,,,,,,,,,,,,,,,,,,,,o,19.56500006,FLOO,FALSE,,,,,,,91,puerta,Spanish,Sounds/spa_puerta.mp3,2020-06-05_15h36.21.439,TranslationElicitation_eng-prolific,3.2.4,Win32,60,5e95befc3834c10008c19c43,,1,0,98,86,1,97
,,,,,,,,,,,,,,,,,,,,,,,,,,,,,,,,,,,,,,,,,r,19.6650002,FLOOR,FALSE,,,,,,,91,puerta,Spanish,Sounds/spa_puerta.mp3,2020-06-05_15h36.21.439,TranslationElicitation_eng-prolific,3.2.4,Win32,60,5e95befc3834c10008c19c43,,1,0,98,86,1,97
,,,,,,,,,,,,,,,,,,,,,,,,,,,,,,,,,,,,,,,,,return,20.18200016,FLOOR,FALSE,,,,,,,91,puerta,Spanish,Sounds/spa_puerta.mp3,2020-06-05_15h36.21.439,TranslationElicitation_eng-prolific,3.2.4,Win32,60,5e95befc3834c10008c19c43,20.18200016,1,0,98,86,1,97
,,,,,,,,,,,,,,,,,,,,,,,,,,,,,,,,,,,,,,,,,,,,,,,,,,,91,puerta,Spanish,Sounds/spa_puerta.mp3,2020-06-05_15h36.21.439,TranslationElicitation_eng-prolific,3.2.4,Win32,60,5e95befc3834c10008c19c43,,1,0,98,86,1,97
,,,,,,,,,,,,,,,,,,,,,,,,,,,,,,,,,,,,,,,,,p,6.947999954,P,FALSE,,,,,,,61,mariposa,Spanish,Sounds/spa_mariposa.mp3,2020-06-05_15h36.21.439,TranslationElicitation_eng-prolific,3.2.4,Win32,60,5e95befc3834c10008c19c43,,1,0,98,57,1,97
,,,,,,,,,,,,,,,,,,,,,,,,,,,,,,,,,,,,,,,,,o,7.148000002,PO,FALSE,,,,,,,61,mariposa,Spanish,Sounds/spa_mariposa.mp3,2020-06-05_15h36.21.439,TranslationElicitation_eng-prolific,3.2.4,Win32,60,5e95befc3834c10008c19c43,,1,0,98,57,1,97
,,,,,,,,,,,,,,,,,,,,,,,,,,,,,,,,,,,,,,,,,s,7.364000082,POS,FALSE,,,,,,,61,mariposa,Spanish,Sounds/spa_mariposa.mp3,2020-06-05_15h36.21.439,TranslationElicitation_eng-prolific,3.2.4,Win32,60,5e95befc3834c10008c19c43,,1,0,98,57,1,97
,,,,,,,,,,,,,,,,,,,,,,,,,,,,,,,,,,,,,,,,,t,7.515000105,POST,FALSE,,,,,,,61,mariposa,Spanish,Sounds/spa_mariposa.mp3,2020-06-05_15h36.21.439,TranslationElicitation_eng-prolific,3.2.4,Win32,60,5e95befc3834c10008c19c43,,1,0,98,57,1,97
,,,,,,,,,,,,,,,,,,,,,,,,,,,,,,,,,,,,,,,,,b,8.631000042,POSTB,FALSE,,,,,,,61,mariposa,Spanish,Sounds/spa_mariposa.mp3,2020-06-05_15h36.21.439,TranslationElicitation_eng-prolific,3.2.4,Win32,60,5e95befc3834c10008c19c43,,1,0,98,57,1,97
,,,,,,,,,,,,,,,,,,,,,,,,,,,,,,,,,,,,,,,,,o,9.114000082,POSTBO,FALSE,,,,,,,61,mariposa,Spanish,Sounds/spa_mariposa.mp3,2020-06-05_15h36.21.439,TranslationElicitation_eng-prolific,3.2.4,Win32,60,5e95befc3834c10008c19c43,,1,0,98,57,1,97
,,,,,,,,,,,,,,,,,,,,,,,,,,,,,,,,,,,,,,,,,x,9.280999899,POSTBOX,FALSE,,,,,,,61,mariposa,Spanish,Sounds/spa_mariposa.mp3,2020-06-05_15h36.21.439,TranslationElicitation_eng-prolific,3.2.4,Win32,60,5e95befc3834c10008c19c43,,1,0,98,57,1,97
,,,,,,,,,,,,,,,,,,,,,,,,,,,,,,,,,,,,,,,,,return,9.414999962,POSTBOX,FALSE,,,,,,,61,mariposa,Spanish,Sounds/spa_mariposa.mp3,2020-06-05_15h36.21.439,TranslationElicitation_eng-prolific,3.2.4,Win32,60,5e95befc3834c10008c19c43,9.414999962,1,0,98,57,1,97
,,,,,,,,,,,,,,,,,,,,,,,,,,,,,,,,,,,,,,,,,,,,,,,,,,,61,mariposa,Spanish,Sounds/spa_mariposa.mp3,2020-06-05_15h36.21.439,TranslationElicitation_eng-prolific,3.2.4,Win32,60,5e95befc3834c10008c19c43,,1,0,98,57,1,97
,,,,,,,,,,,,,,,,,,,,,,,,,,,,,,,,,,,,,,,,,s,2.950000048,S,FALSE,,,,,,,36,estrella,Spanish,Sounds/spa_estrella.mp3,2020-06-05_15h36.21.439,TranslationElicitation_eng-prolific,3.2.4,Win32,60,5e95befc3834c10008c19c43,,1,0,98,32,1,97
,,,,,,,,,,,,,,,,,,,,,,,,,,,,,,,,,,,,,,,,,t,3.099999905,ST,FALSE,,,,,,,36,estrella,Spanish,Sounds/spa_estrella.mp3,2020-06-05_15h36.21.439,TranslationElicitation_eng-prolific,3.2.4,Win32,60,5e95befc3834c10008c19c43,,1,0,98,32,1,97
,,,,,,,,,,,,,,,,,,,,,,,,,,,,,,,,,,,,,,,,,r,3.315999985,STR,FALSE,,,,,,,36,estrella,Spanish,Sounds/spa_estrella.mp3,2020-06-05_15h36.21.439,TranslationElicitation_eng-prolific,3.2.4,Win32,60,5e95befc3834c10008c19c43,,1,0,98,32,1,97
,,,,,,,,,,,,,,,,,,,,,,,,,,,,,,,,,,,,,,,,,a,3.48300004,STRA,FALSE,,,,,,,36,estrella,Spanish,Sounds/spa_estrella.mp3,2020-06-05_15h36.21.439,TranslationElicitation_eng-prolific,3.2.4,Win32,60,5e95befc3834c10008c19c43,,1,0,98,32,1,97
,,,,,,,,,,,,,,,,,,,,,,,,,,,,,,,,,,,,,,,,,n,3.700000048,STRAN,FALSE,,,,,,,36,estrella,Spanish,Sounds/spa_estrella.mp3,2020-06-05_15h36.21.439,TranslationElicitation_eng-prolific,3.2.4,Win32,60,5e95befc3834c10008c19c43,,1,0,98,32,1,97
,,,,,,,,,,,,,,,,,,,,,,,,,,,,,,,,,,,,,,,,,g,3.968999863,STRANG,FALSE,,,,,,,36,estrella,Spanish,Sounds/spa_estrella.mp3,2020-06-05_15h36.21.439,TranslationElicitation_eng-prolific,3.2.4,Win32,60,5e95befc3834c10008c19c43,,1,0,98,32,1,97
,,,,,,,,,,,,,,,,,,,,,,,,,,,,,,,,,,,,,,,,,e,4.082999945,STRANGE,FALSE,,,,,,,36,estrella,Spanish,Sounds/spa_estrella.mp3,2020-06-05_15h36.21.439,TranslationElicitation_eng-prolific,3.2.4,Win32,60,5e95befc3834c10008c19c43,,1,0,98,32,1,97
,,,,,,,,,,,,,,,,,,,,,,,,,,,,,,,,,,,,,,,,,return,4.799999952,STRANGE,FALSE,,,,,,,36,estrella,Spanish,Sounds/spa_estrella.mp3,2020-06-05_15h36.21.439,TranslationElicitation_eng-prolific,3.2.4,Win32,60,5e95befc3834c10008c19c43,4.799999952,1,0,98,32,1,97
,,,,,,,,,,,,,,,,,,,,,,,,,,,,,,,,,,,,,,,,,,,,,,,,,,,36,estrella,Spanish,Sounds/spa_estrella.mp3,2020-06-05_15h36.21.439,TranslationElicitation_eng-prolific,3.2.4,Win32,60,5e95befc3834c10008c19c43,,1,0,98,32,1,97
,,,,,,,,,,,,,,,,,,,,,,,,,,,,,,,,,,,,,,,,,p,6.69900012,P,FALSE,,,,,,,4,biberon,Spanish,Sounds/spa_biberon.mp3,2020-06-05_15h36.21.439,TranslationElicitation_eng-prolific,3.2.4,Win32,60,5e95befc3834c10008c19c43,,1,0,98,2,1,97
,,,,,,,,,,,,,,,,,,,,,,,,,,,,,,,,,,,,,,,,,r,6.85800004,PR,FALSE,,,,,,,4,biberon,Spanish,Sounds/spa_biberon.mp3,2020-06-05_15h36.21.439,TranslationElicitation_eng-prolific,3.2.4,Win32,60,5e95befc3834c10008c19c43,,1,0,98,2,1,97
,,,,,,,,,,,,,,,,,,,,,,,,,,,,,,,,,,,,,,,,,e,7,PRE,FALSE,,,,,,,4,biberon,Spanish,Sounds/spa_biberon.mp3,2020-06-05_15h36.21.439,TranslationElicitation_eng-prolific,3.2.4,Win32,60,5e95befc3834c10008c19c43,,1,0,98,2,1,97
,,,,,,,,,,,,,,,,,,,,,,,,,,,,,,,,,,,,,,,,,t,7.183000088,PRET,FALSE,,,,,,,4,biberon,Spanish,Sounds/spa_biberon.mp3,2020-06-05_15h36.21.439,TranslationElicitation_eng-prolific,3.2.4,Win32,60,5e95befc3834c10008c19c43,,1,0,98,2,1,97
,,,,,,,,,,,,,,,,,,,,,,,,,,,,,,,,,,,,,,,,,t,7.299999952,PRETT,FALSE,,,,,,,4,biberon,Spanish,Sounds/spa_biberon.mp3,2020-06-05_15h36.21.439,TranslationElicitation_eng-prolific,3.2.4,Win32,60,5e95befc3834c10008c19c43,,1,0,98,2,1,97
,,,,,,,,,,,,,,,,,,,,,,,,,,,,,,,,,,,,,,,,,y,7.46600008,PRETTY,FALSE,,,,,,,4,biberon,Spanish,Sounds/spa_biberon.mp3,2020-06-05_15h36.21.439,TranslationElicitation_eng-prolific,3.2.4,Win32,60,5e95befc3834c10008c19c43,,1,0,98,2,1,97
,,,,,,,,,,,,,,,,,,,,,,,,,,,,,,,,,,,,,,,,,return,8.245000124,PRETTY,FALSE,,,,,,,4,biberon,Spanish,Sounds/spa_biberon.mp3,2020-06-05_15h36.21.439,TranslationElicitation_eng-prolific,3.2.4,Win32,60,5e95befc3834c10008c19c43,8.245000124,1,0,98,2,1,97
,,,,,,,,,,,,,,,,,,,,,,,,,,,,,,,,,,,,,,,,,,,,,,,,,,,4,biberon,Spanish,Sounds/spa_biberon.mp3,2020-06-05_15h36.21.439,TranslationElicitation_eng-prolific,3.2.4,Win32,60,5e95befc3834c10008c19c43,,1,0,98,2,1,97
,,,,,,,,,,,,,,,,,,,,,,,,,,,,,,,,,,,,,,,,,h,3.098999977,H,FALSE,,,,,,,23,cerdo,Spanish,Sounds/spa_cerdo.mp3,2020-06-05_15h36.21.439,TranslationElicitation_eng-prolific,3.2.4,Win32,60,5e95befc3834c10008c19c43,,1,0,98,21,1,97
,,,,,,,,,,,,,,,,,,,,,,,,,,,,,,,,,,,,,,,,,o,3.315999985,HO,FALSE,,,,,,,23,cerdo,Spanish,Sounds/spa_cerdo.mp3,2020-06-05_15h36.21.439,TranslationElicitation_eng-prolific,3.2.4,Win32,60,5e95befc3834c10008c19c43,,1,0,98,21,1,97
,,,,,,,,,,,,,,,,,,,,,,,,,,,,,,,,,,,,,,,,,t,3.516000032,HOT,FALSE,,,,,,,23,cerdo,Spanish,Sounds/spa_cerdo.mp3,2020-06-05_15h36.21.439,TranslationElicitation_eng-prolific,3.2.4,Win32,60,5e95befc3834c10008c19c43,,1,0,98,21,1,97
,,,,,,,,,,,,,,,,,,,,,,,,,,,,,,,,,,,,,,,,,return,4.615999937,HOT,FALSE,,,,,,,23,cerdo,Spanish,Sounds/spa_cerdo.mp3,2020-06-05_15h36.21.439,TranslationElicitation_eng-prolific,3.2.4,Win32,60,5e95befc3834c10008c19c43,4.615999937,1,0,98,21,1,97
,,,,,,,,,,,,,,,,,,,,,,,,,,,,,,,,,,,,,,,,,,,,,,,,,,,23,cerdo,Spanish,Sounds/spa_cerdo.mp3,2020-06-05_15h36.21.439,TranslationElicitation_eng-prolific,3.2.4,Win32,60,5e95befc3834c10008c19c43,,1,0,98,21,1,97
,,,,,,,,,,,,,,,,,,,,,,,,,,,,,,,,,,,,,,,,,t,20.78700018,T,FALSE,,,,,,,101,tren,Spanish,Sounds/spa_tren.mp3,2020-06-05_15h36.21.439,TranslationElicitation_eng-prolific,3.2.4,Win32,60,5e95befc3834c10008c19c43,,1,0,98,95,1,97
,,,,,,,,,,,,,,,,,,,,,,,,,,,,,,,,,,,,,,,,,r,20.93200016,TR,FALSE,,,,,,,101,tren,Spanish,Sounds/spa_tren.mp3,2020-06-05_15h36.21.439,TranslationElicitation_eng-prolific,3.2.4,Win32,60,5e95befc3834c10008c19c43,,1,0,98,95,1,97
,,,,,,,,,,,,,,,,,,,,,,,,,,,,,,,,,,,,,,,,,a,21.24800014,TRA,FALSE,,,,,,,101,tren,Spanish,Sounds/spa_tren.mp3,2020-06-05_15h36.21.439,TranslationElicitation_eng-prolific,3.2.4,Win32,60,5e95befc3834c10008c19c43,,1,0,98,95,1,97
,,,,,,,,,,,,,,,,,,,,,,,,,,,,,,,,,,,,,,,,,i,21.38100004,TRAI,FALSE,,,,,,,101,tren,Spanish,Sounds/spa_tren.mp3,2020-06-05_15h36.21.439,TranslationElicitation_eng-prolific,3.2.4,Win32,60,5e95befc3834c10008c19c43,,1,0,98,95,1,97
,,,,,,,,,,,,,,,,,,,,,,,,,,,,,,,,,,,,,,,,,l,21.5480001,TRAIL,FALSE,,,,,,,101,tren,Spanish,Sounds/spa_tren.mp3,2020-06-05_15h36.21.439,TranslationElicitation_eng-prolific,3.2.4,Win32,60,5e95befc3834c10008c19c43,,1,0,98,95,1,97
,,,,,,,,,,,,,,,,,,,,,,,,,,,,,,,,,,,,,,,,,return,22.30200005,TRAIL,FALSE,,,,,,,101,tren,Spanish,Sounds/spa_tren.mp3,2020-06-05_15h36.21.439,TranslationElicitation_eng-prolific,3.2.4,Win32,60,5e95befc3834c10008c19c43,22.30200005,1,0,98,95,1,97
,,,,,,,,,,,,,,,,,,,,,,,,,,,,,,,,,,,,,,,,,,,,,,,,,,,101,tren,Spanish,Sounds/spa_tren.mp3,2020-06-05_15h36.21.439,TranslationElicitation_eng-prolific,3.2.4,Win32,60,5e95befc3834c10008c19c43,,1,0,98,95,1,97
,,,,,,,,,,,,,,,,,,,,,,,,,,,,,,,,,,,,,,,,,c,9.042999983,C,FALSE,,,,,,,31,cubo,Spanish,Sounds/spa_cubo.mp3,2020-06-05_15h36.21.439,TranslationElicitation_eng-prolific,3.2.4,Win32,60,5e95befc3834c10008c19c43,,1,0,98,27,1,97
,,,,,,,,,,,,,,,,,,,,,,,,,,,,,,,,,,,,,,,,,o,9.393000126,CO,FALSE,,,,,,,31,cubo,Spanish,Sounds/spa_cubo.mp3,2020-06-05_15h36.21.439,TranslationElicitation_eng-prolific,3.2.4,Win32,60,5e95befc3834c10008c19c43,,1,0,98,27,1,97
,,,,,,,,,,,,,,,,,,,,,,,,,,,,,,,,,,,,,,,,,o,9.542999983,COO,FALSE,,,,,,,31,cubo,Spanish,Sounds/spa_cubo.mp3,2020-06-05_15h36.21.439,TranslationElicitation_eng-prolific,3.2.4,Win32,60,5e95befc3834c10008c19c43,,1,0,98,27,1,97
,,,,,,,,,,,,,,,,,,,,,,,,,,,,,,,,,,,,,,,,,k,9.712000132,COOK,FALSE,,,,,,,31,cubo,Spanish,Sounds/spa_cubo.mp3,2020-06-05_15h36.21.439,TranslationElicitation_eng-prolific,3.2.4,Win32,60,5e95befc3834c10008c19c43,,1,0,98,27,1,97
,,,,,,,,,,,,,,,,,,,,,,,,,,,,,,,,,,,,,,,,,backspace,13.35899997,COO,TRUE,,,,,,,31,cubo,Spanish,Sounds/spa_cubo.mp3,2020-06-05_15h36.21.439,TranslationElicitation_eng-prolific,3.2.4,Win32,60,5e95befc3834c10008c19c43,,1,0,98,27,1,97
,,,,,,,,,,,,,,,,,,,,,,,,,,,,,,,,,,,,,,,,,k,14.97600007,COOK,TRUE,,,,,,,31,cubo,Spanish,Sounds/spa_cubo.mp3,2020-06-05_15h36.21.439,TranslationElicitation_eng-prolific,3.2.4,Win32,60,5e95befc3834c10008c19c43,,1,0,98,27,1,97
,,,,,,,,,,,,,,,,,,,,,,,,,,,,,,,,,,,,,,,,,return,15.39300013,COOK,TRUE,,,,,,,31,cubo,Spanish,Sounds/spa_cubo.mp3,2020-06-05_15h36.21.439,TranslationElicitation_eng-prolific,3.2.4,Win32,60,5e95befc3834c10008c19c43,15.39300013,1,0,98,27,1,97
,,,,,,,,,,,,,,,,,,,,,,,,,,,,,,,,,,,,,,,,,,,,,,,,,,,31,cubo,Spanish,Sounds/spa_cubo.mp3,2020-06-05_15h36.21.439,TranslationElicitation_eng-prolific,3.2.4,Win32,60,5e95befc3834c10008c19c43,,1,0,98,27,1,97
,,,,,,,,,,,,,,,,,,,,,,,,,,,,,,,,,,,,,,,,,b,4.365999937,B,FALSE,,,,,,,8,bol,Spanish,Sounds/spa_bol.mp3,2020-06-05_15h36.21.439,TranslationElicitation_eng-prolific,3.2.4,Win32,60,5e95befc3834c10008c19c43,,1,0,98,6,1,97
,,,,,,,,,,,,,,,,,,,,,,,,,,,,,,,,,,,,,,,,,o,4.700999975,BO,FALSE,,,,,,,8,bol,Spanish,Sounds/spa_bol.mp3,2020-06-05_15h36.21.439,TranslationElicitation_eng-prolific,3.2.4,Win32,60,5e95befc3834c10008c19c43,,1,0,98,6,1,97
,,,,,,,,,,,,,,,,,,,,,,,,,,,,,,,,,,,,,,,,,w,4.849999905,BOW,FALSE,,,,,,,8,bol,Spanish,Sounds/spa_bol.mp3,2020-06-05_15h36.21.439,TranslationElicitation_eng-prolific,3.2.4,Win32,60,5e95befc3834c10008c19c43,,1,0,98,6,1,97
,,,,,,,,,,,,,,,,,,,,,,,,,,,,,,,,,,,,,,,,,l,4.917999983,BOWL,FALSE,,,,,,,8,bol,Spanish,Sounds/spa_bol.mp3,2020-06-05_15h36.21.439,TranslationElicitation_eng-prolific,3.2.4,Win32,60,5e95befc3834c10008c19c43,,1,0,98,6,1,97
,,,,,,,,,,,,,,,,,,,,,,,,,,,,,,,,,,,,,,,,,return,5.848999977,BOWL,FALSE,,,,,,,8,bol,Spanish,Sounds/spa_bol.mp3,2020-06-05_15h36.21.439,TranslationElicitation_eng-prolific,3.2.4,Win32,60,5e95befc3834c10008c19c43,5.848999977,1,0,98,6,1,97
,,,,,,,,,,,,,,,,,,,,,,,,,,,,,,,,,,,,,,,,,,,,,,,,,,,8,bol,Spanish,Sounds/spa_bol.mp3,2020-06-05_15h36.21.439,TranslationElicitation_eng-prolific,3.2.4,Win32,60,5e95befc3834c10008c19c43,,1,0,98,6,1,97
,,,,,,,,,,,,,,,,,,,,,,,,,,,,,,,,,,,,,,,,,s,4.999000072,S,FALSE,,,,,,,92,sandwich,Spanish,Sounds/spa_sandwich.mp3,2020-06-05_15h36.21.439,TranslationElicitation_eng-prolific,3.2.4,Win32,60,5e95befc3834c10008c19c43,,1,0,98,87,1,97
,,,,,,,,,,,,,,,,,,,,,,,,,,,,,,,,,,,,,,,,,a,5.247999907,SA,FALSE,,,,,,,92,sandwich,Spanish,Sounds/spa_sandwich.mp3,2020-06-05_15h36.21.439,TranslationElicitation_eng-prolific,3.2.4,Win32,60,5e95befc3834c10008c19c43,,1,0,98,87,1,97
,,,,,,,,,,,,,,,,,,,,,,,,,,,,,,,,,,,,,,,,,n,5.448999882,SAN,FALSE,,,,,,,92,sandwich,Spanish,Sounds/spa_sandwich.mp3,2020-06-05_15h36.21.439,TranslationElicitation_eng-prolific,3.2.4,Win32,60,5e95befc3834c10008c19c43,,1,0,98,87,1,97
,,,,,,,,,,,,,,,,,,,,,,,,,,,,,,,,,,,,,,,,,d,5.683000088,SAND,FALSE,,,,,,,92,sandwich,Spanish,Sounds/spa_sandwich.mp3,2020-06-05_15h36.21.439,TranslationElicitation_eng-prolific,3.2.4,Win32,60,5e95befc3834c10008c19c43,,1,0,98,87,1,97
,,,,,,,,,,,,,,,,,,,,,,,,,,,,,,,,,,,,,,,,,w,5.931999922,SANDW,FALSE,,,,,,,92,sandwich,Spanish,Sounds/spa_sandwich.mp3,2020-06-05_15h36.21.439,TranslationElicitation_eng-prolific,3.2.4,Win32,60,5e95befc3834c10008c19c43,,1,0,98,87,1,97
,,,,,,,,,,,,,,,,,,,,,,,,,,,,,,,,,,,,,,,,,i,6.151000023,SANDWI,FALSE,,,,,,,92,sandwich,Spanish,Sounds/spa_sandwich.mp3,2020-06-05_15h36.21.439,TranslationElicitation_eng-prolific,3.2.4,Win32,60,5e95befc3834c10008c19c43,,1,0,98,87,1,97
,,,,,,,,,,,,,,,,,,,,,,,,,,,,,,,,,,,,,,,,,c,6.266000032,SANDWIC,FALSE,,,,,,,92,sandwich,Spanish,Sounds/spa_sandwich.mp3,2020-06-05_15h36.21.439,TranslationElicitation_eng-prolific,3.2.4,Win32,60,5e95befc3834c10008c19c43,,1,0,98,87,1,97
,,,,,,,,,,,,,,,,,,,,,,,,,,,,,,,,,,,,,,,,,h,6.400000095,SANDWICH,FALSE,,,,,,,92,sandwich,Spanish,Sounds/spa_sandwich.mp3,2020-06-05_15h36.21.439,TranslationElicitation_eng-prolific,3.2.4,Win32,60,5e95befc3834c10008c19c43,,1,0,98,87,1,97
,,,,,,,,,,,,,,,,,,,,,,,,,,,,,,,,,,,,,,,,,return,7.367000103,SANDWICH,FALSE,,,,,,,92,sandwich,Spanish,Sounds/spa_sandwich.mp3,2020-06-05_15h36.21.439,TranslationElicitation_eng-prolific,3.2.4,Win32,60,5e95befc3834c10008c19c43,7.367000103,1,0,98,87,1,97
,,,,,,,,,,,,,,,,,,,,,,,,,,,,,,,,,,,,,,,,,,,,,,,,,,,92,sandwich,Spanish,Sounds/spa_sandwich.mp3,2020-06-05_15h36.21.439,TranslationElicitation_eng-prolific,3.2.4,Win32,60,5e95befc3834c10008c19c43,,1,0,98,87,1,97
,,,,,,,,,,,,,,,,,,,,,,,,,,,,,,,,,,,,,,,,,b,2.999000072,B,FALSE,,,,,,,51,ladrillo,Spanish,Sounds/spa_ladrillo.mp3,2020-06-05_15h36.21.439,TranslationElicitation_eng-prolific,3.2.4,Win32,60,5e95befc3834c10008c19c43,,1,0,98,47,1,97
,,,,,,,,,,,,,,,,,,,,,,,,,,,,,,,,,,,,,,,,,a,3.131999969,BA,FALSE,,,,,,,51,ladrillo,Spanish,Sounds/spa_ladrillo.mp3,2020-06-05_15h36.21.439,TranslationElicitation_eng-prolific,3.2.4,Win32,60,5e95befc3834c10008c19c43,,1,0,98,47,1,97
,,,,,,,,,,,,,,,,,,,,,,,,,,,,,,,,,,,,,,,,,t,3.266000032,BAT,FALSE,,,,,,,51,ladrillo,Spanish,Sounds/spa_ladrillo.mp3,2020-06-05_15h36.21.439,TranslationElicitation_eng-prolific,3.2.4,Win32,60,5e95befc3834c10008c19c43,,1,0,98,47,1,97
,,,,,,,,,,,,,,,,,,,,,,,,,,,,,,,,,,,,,,,,,h,3.43200016,BATH,FALSE,,,,,,,51,ladrillo,Spanish,Sounds/spa_ladrillo.mp3,2020-06-05_15h36.21.439,TranslationElicitation_eng-prolific,3.2.4,Win32,60,5e95befc3834c10008c19c43,,1,0,98,47,1,97
,,,,,,,,,,,,,,,,,,,,,,,,,,,,,,,,,,,,,,,,,r,3.615999937,BATHR,FALSE,,,,,,,51,ladrillo,Spanish,Sounds/spa_ladrillo.mp3,2020-06-05_15h36.21.439,TranslationElicitation_eng-prolific,3.2.4,Win32,60,5e95befc3834c10008c19c43,,1,0,98,47,1,97
,,,,,,,,,,,,,,,,,,,,,,,,,,,,,,,,,,,,,,,,,o,3.884000063,BATHRO,FALSE,,,,,,,51,ladrillo,Spanish,Sounds/spa_ladrillo.mp3,2020-06-05_15h36.21.439,TranslationElicitation_eng-prolific,3.2.4,Win32,60,5e95befc3834c10008c19c43,,1,0,98,47,1,97
,,,,,,,,,,,,,,,,,,,,,,,,,,,,,,,,,,,,,,,,,o,4.016000032,BATHROO,FALSE,,,,,,,51,ladrillo,Spanish,Sounds/spa_ladrillo.mp3,2020-06-05_15h36.21.439,TranslationElicitation_eng-prolific,3.2.4,Win32,60,5e95befc3834c10008c19c43,,1,0,98,47,1,97
,,,,,,,,,,,,,,,,,,,,,,,,,,,,,,,,,,,,,,,,,m,4.167000055,BATHROOM,FALSE,,,,,,,51,ladrillo,Spanish,Sounds/spa_ladrillo.mp3,2020-06-05_15h36.21.439,TranslationElicitation_eng-prolific,3.2.4,Win32,60,5e95befc3834c10008c19c43,,1,0,98,47,1,97
,,,,,,,,,,,,,,,,,,,,,,,,,,,,,,,,,,,,,,,,,return,5.117000103,BATHROOM,FALSE,,,,,,,51,ladrillo,Spanish,Sounds/spa_ladrillo.mp3,2020-06-05_15h36.21.439,TranslationElicitation_eng-prolific,3.2.4,Win32,60,5e95befc3834c10008c19c43,5.117000103,1,0,98,47,1,97
,,,,,,,,,,,,,,,,,,,,,,,,,,,,,,,,,,,,,,,,,,,,,,,,,,,51,ladrillo,Spanish,Sounds/spa_ladrillo.mp3,2020-06-05_15h36.21.439,TranslationElicitation_eng-prolific,3.2.4,Win32,60,5e95befc3834c10008c19c43,,1,0,98,47,1,97
,,,,,,,,,,,,,,,,,,,,,,,,,,,,,,,,,,,,,,,,,t,3.249000072,T,FALSE,,,,,,,95,tenedor,Spanish,Sounds/spa_tenedor.mp3,2020-06-05_15h36.21.439,TranslationElicitation_eng-prolific,3.2.4,Win32,60,5e95befc3834c10008c19c43,,1,0,98,90,1,97
,,,,,,,,,,,,,,,,,,,,,,,,,,,,,,,,,,,,,,,,,e,3.516000032,TE,FALSE,,,,,,,95,tenedor,Spanish,Sounds/spa_tenedor.mp3,2020-06-05_15h36.21.439,TranslationElicitation_eng-prolific,3.2.4,Win32,60,5e95befc3834c10008c19c43,,1,0,98,90,1,97
,,,,,,,,,,,,,,,,,,,,,,,,,,,,,,,,,,,,,,,,,n,3.783000231,TEN,FALSE,,,,,,,95,tenedor,Spanish,Sounds/spa_tenedor.mp3,2020-06-05_15h36.21.439,TranslationElicitation_eng-prolific,3.2.4,Win32,60,5e95befc3834c10008c19c43,,1,0,98,90,1,97
,,,,,,,,,,,,,,,,,,,,,,,,,,,,,,,,,,,,,,,,,n,3.916000128,TENN,FALSE,,,,,,,95,tenedor,Spanish,Sounds/spa_tenedor.mp3,2020-06-05_15h36.21.439,TranslationElicitation_eng-prolific,3.2.4,Win32,60,5e95befc3834c10008c19c43,,1,0,98,90,1,97
,,,,,,,,,,,,,,,,,,,,,,,,,,,,,,,,,,,,,,,,,i,4.101000071,TENNI,FALSE,,,,,,,95,tenedor,Spanish,Sounds/spa_tenedor.mp3,2020-06-05_15h36.21.439,TranslationElicitation_eng-prolific,3.2.4,Win32,60,5e95befc3834c10008c19c43,,1,0,98,90,1,97
,,,,,,,,,,,,,,,,,,,,,,,,,,,,,,,,,,,,,,,,,s,4.766000032,TENNIS,FALSE,,,,,,,95,tenedor,Spanish,Sounds/spa_tenedor.mp3,2020-06-05_15h36.21.439,TranslationElicitation_eng-prolific,3.2.4,Win32,60,5e95befc3834c10008c19c43,,1,0,98,90,1,97
,,,,,,,,,,,,,,,,,,,,,,,,,,,,,,,,,,,,,,,,,return,5.683000088,TENNIS,FALSE,,,,,,,95,tenedor,Spanish,Sounds/spa_tenedor.mp3,2020-06-05_15h36.21.439,TranslationElicitation_eng-prolific,3.2.4,Win32,60,5e95befc3834c10008c19c43,5.683000088,1,0,98,90,1,97
,,,,,,,,,,,,,,,,,,,,,,,,,,,,,,,,,,,,,,,,,,,,,,,,,,,95,tenedor,Spanish,Sounds/spa_tenedor.mp3,2020-06-05_15h36.21.439,TranslationElicitation_eng-prolific,3.2.4,Win32,60,5e95befc3834c10008c19c43,,1,0,98,90,1,97
,,,,,,,,,,,,,,,,,,,,,,,,,,,,,,,,,,,,,,,,,s,3.083000183,S,FALSE,,,,,,,38,frambuesa,Spanish,Sounds/spa_frambuesa.mp3,2020-06-05_15h36.21.439,TranslationElicitation_eng-prolific,3.2.4,Win32,60,5e95befc3834c10008c19c43,,1,0,98,34,1,97
,,,,,,,,,,,,,,,,,,,,,,,,,,,,,,,,,,,,,,,,,t,3.381000042,ST,FALSE,,,,,,,38,frambuesa,Spanish,Sounds/spa_frambuesa.mp3,2020-06-05_15h36.21.439,TranslationElicitation_eng-prolific,3.2.4,Win32,60,5e95befc3834c10008c19c43,,1,0,98,34,1,97
,,,,,,,,,,,,,,,,,,,,,,,,,,,,,,,,,,,,,,,,,a,3.548000097,STA,FALSE,,,,,,,38,frambuesa,Spanish,Sounds/spa_frambuesa.mp3,2020-06-05_15h36.21.439,TranslationElicitation_eng-prolific,3.2.4,Win32,60,5e95befc3834c10008c19c43,,1,0,98,34,1,97
,,,,,,,,,,,,,,,,,,,,,,,,,,,,,,,,,,,,,,,,,w,4.048000097,STAW,FALSE,,,,,,,38,frambuesa,Spanish,Sounds/spa_frambuesa.mp3,2020-06-05_15h36.21.439,TranslationElicitation_eng-prolific,3.2.4,Win32,60,5e95befc3834c10008c19c43,,1,0,98,34,1,97
,,,,,,,,,,,,,,,,,,,,,,,,,,,,,,,,,,,,,,,,,backspace,5.86500001,STA,TRUE,,,,,,,38,frambuesa,Spanish,Sounds/spa_frambuesa.mp3,2020-06-05_15h36.21.439,TranslationElicitation_eng-prolific,3.2.4,Win32,60,5e95befc3834c10008c19c43,,1,0,98,34,1,97
,,,,,,,,,,,,,,,,,,,,,,,,,,,,,,,,,,,,,,,,,backspace,6.231000185,ST,TRUE,,,,,,,38,frambuesa,Spanish,Sounds/spa_frambuesa.mp3,2020-06-05_15h36.21.439,TranslationElicitation_eng-prolific,3.2.4,Win32,60,5e95befc3834c10008c19c43,,1,0,98,34,1,97
,,,,,,,,,,,,,,,,,,,,,,,,,,,,,,,,,,,,,,,,,r,6.84800005,STR,TRUE,,,,,,,38,frambuesa,Spanish,Sounds/spa_frambuesa.mp3,2020-06-05_15h36.21.439,TranslationElicitation_eng-prolific,3.2.4,Win32,60,5e95befc3834c10008c19c43,,1,0,98,34,1,97
,,,,,,,,,,,,,,,,,,,,,,,,,,,,,,,,,,,,,,,,,a,7.09800005,STRA,TRUE,,,,,,,38,frambuesa,Spanish,Sounds/spa_frambuesa.mp3,2020-06-05_15h36.21.439,TranslationElicitation_eng-prolific,3.2.4,Win32,60,5e95befc3834c10008c19c43,,1,0,98,34,1,97
,,,,,,,,,,,,,,,,,,,,,,,,,,,,,,,,,,,,,,,,,w,7.265000105,STRAW,TRUE,,,,,,,38,frambuesa,Spanish,Sounds/spa_frambuesa.mp3,2020-06-05_15h36.21.439,TranslationElicitation_eng-prolific,3.2.4,Win32,60,5e95befc3834c10008c19c43,,1,0,98,34,1,97
,,,,,,,,,,,,,,,,,,,,,,,,,,,,,,,,,,,,,,,,,b,7.898000002,STRAWB,TRUE,,,,,,,38,frambuesa,Spanish,Sounds/spa_frambuesa.mp3,2020-06-05_15h36.21.439,TranslationElicitation_eng-prolific,3.2.4,Win32,60,5e95befc3834c10008c19c43,,1,0,98,34,1,97
,,,,,,,,,,,,,,,,,,,,,,,,,,,,,,,,,,,,,,,,,e,8.109000206,STRAWBE,TRUE,,,,,,,38,frambuesa,Spanish,Sounds/spa_frambuesa.mp3,2020-06-05_15h36.21.439,TranslationElicitation_eng-prolific,3.2.4,Win32,60,5e95befc3834c10008c19c43,,1,0,98,34,1,97
,,,,,,,,,,,,,,,,,,,,,,,,,,,,,,,,,,,,,,,,,r,8.4150002,STRAWBER,TRUE,,,,,,,38,frambuesa,Spanish,Sounds/spa_frambuesa.mp3,2020-06-05_15h36.21.439,TranslationElicitation_eng-prolific,3.2.4,Win32,60,5e95befc3834c10008c19c43,,1,0,98,34,1,97
,,,,,,,,,,,,,,,,,,,,,,,,,,,,,,,,,,,,,,,,,r,8.584000111,STRAWBERR,TRUE,,,,,,,38,frambuesa,Spanish,Sounds/spa_frambuesa.mp3,2020-06-05_15h36.21.439,TranslationElicitation_eng-prolific,3.2.4,Win32,60,5e95befc3834c10008c19c43,,1,0,98,34,1,97
,,,,,,,,,,,,,,,,,,,,,,,,,,,,,,,,,,,,,,,,,i,9.09800005,STRAWBERRI,TRUE,,,,,,,38,frambuesa,Spanish,Sounds/spa_frambuesa.mp3,2020-06-05_15h36.21.439,TranslationElicitation_eng-prolific,3.2.4,Win32,60,5e95befc3834c10008c19c43,,1,0,98,34,1,97
,,,,,,,,,,,,,,,,,,,,,,,,,,,,,,,,,,,,,,,,,e,9.183000088,STRAWBERRIE,TRUE,,,,,,,38,frambuesa,Spanish,Sounds/spa_frambuesa.mp3,2020-06-05_15h36.21.439,TranslationElicitation_eng-prolific,3.2.4,Win32,60,5e95befc3834c10008c19c43,,1,0,98,34,1,97
,,,,,,,,,,,,,,,,,,,,,,,,,,,,,,,,,,,,,,,,,s,9.315000057,STRAWBERRIES,TRUE,,,,,,,38,frambuesa,Spanish,Sounds/spa_frambuesa.mp3,2020-06-05_15h36.21.439,TranslationElicitation_eng-prolific,3.2.4,Win32,60,5e95befc3834c10008c19c43,,1,0,98,34,1,97
,,,,,,,,,,,,,,,,,,,,,,,,,,,,,,,,,,,,,,,,,return,10.23699999,STRAWBERRIES,TRUE,,,,,,,38,frambuesa,Spanish,Sounds/spa_frambuesa.mp3,2020-06-05_15h36.21.439,TranslationElicitation_eng-prolific,3.2.4,Win32,60,5e95befc3834c10008c19c43,10.23699999,1,0,98,34,1,97
,,,,,,,,,,,,,,,,,,,,,,,,,,,,,,,,,,,,,,,,,,,,,,,,,,,38,frambuesa,Spanish,Sounds/spa_frambuesa.mp3,2020-06-05_15h36.21.439,TranslationElicitation_eng-prolific,3.2.4,Win32,60,5e95befc3834c10008c19c43,,1,0,98,34,1,97
,,,,,,,,,,,,,,,,,,,,,,,,,,,,,,,,,,,,,,,,,p,1.749000072,P,FALSE,,,,,,,86,pingino,Spanish,Sounds/spa_pinguino.mp3,2020-06-05_15h36.21.439,TranslationElicitation_eng-prolific,3.2.4,Win32,60,5e95befc3834c10008c19c43,,1,0,98,81,1,97
,,,,,,,,,,,,,,,,,,,,,,,,,,,,,,,,,,,,,,,,,e,1.96600008,PE,FALSE,,,,,,,86,pingino,Spanish,Sounds/spa_pinguino.mp3,2020-06-05_15h36.21.439,TranslationElicitation_eng-prolific,3.2.4,Win32,60,5e95befc3834c10008c19c43,,1,0,98,81,1,97
,,,,,,,,,,,,,,,,,,,,,,,,,,,,,,,,,,,,,,,,,n,2.183000088,PEN,FALSE,,,,,,,86,pingino,Spanish,Sounds/spa_pinguino.mp3,2020-06-05_15h36.21.439,TranslationElicitation_eng-prolific,3.2.4,Win32,60,5e95befc3834c10008c19c43,,1,0,98,81,1,97
,,,,,,,,,,,,,,,,,,,,,,,,,,,,,,,,,,,,,,,,,g,2.48300004,PENG,FALSE,,,,,,,86,pingino,Spanish,Sounds/spa_pinguino.mp3,2020-06-05_15h36.21.439,TranslationElicitation_eng-prolific,3.2.4,Win32,60,5e95befc3834c10008c19c43,,1,0,98,81,1,97
,,,,,,,,,,,,,,,,,,,,,,,,,,,,,,,,,,,,,,,,,u,2.882999897,PENGU,FALSE,,,,,,,86,pingino,Spanish,Sounds/spa_pinguino.mp3,2020-06-05_15h36.21.439,TranslationElicitation_eng-prolific,3.2.4,Win32,60,5e95befc3834c10008c19c43,,1,0,98,81,1,97
,,,,,,,,,,,,,,,,,,,,,,,,,,,,,,,,,,,,,,,,,i,3.049999952,PENGUI,FALSE,,,,,,,86,pingino,Spanish,Sounds/spa_pinguino.mp3,2020-06-05_15h36.21.439,TranslationElicitation_eng-prolific,3.2.4,Win32,60,5e95befc3834c10008c19c43,,1,0,98,81,1,97
,,,,,,,,,,,,,,,,,,,,,,,,,,,,,,,,,,,,,,,,,n,3.183000088,PENGUIN,FALSE,,,,,,,86,pingino,Spanish,Sounds/spa_pinguino.mp3,2020-06-05_15h36.21.439,TranslationElicitation_eng-prolific,3.2.4,Win32,60,5e95befc3834c10008c19c43,,1,0,98,81,1,97
,,,,,,,,,,,,,,,,,,,,,,,,,,,,,,,,,,,,,,,,,e,3.634000063,PENGUINE,FALSE,,,,,,,86,pingino,Spanish,Sounds/spa_pinguino.mp3,2020-06-05_15h36.21.439,TranslationElicitation_eng-prolific,3.2.4,Win32,60,5e95befc3834c10008c19c43,,1,0,98,81,1,97
,,,,,,,,,,,,,,,,,,,,,,,,,,,,,,,,,,,,,,,,,backspace,4.665999889,PENGUIN,TRUE,,,,,,,86,pingino,Spanish,Sounds/spa_pinguino.mp3,2020-06-05_15h36.21.439,TranslationElicitation_eng-prolific,3.2.4,Win32,60,5e95befc3834c10008c19c43,,1,0,98,81,1,97
,,,,,,,,,,,,,,,,,,,,,,,,,,,,,,,,,,,,,,,,,return,19.44300008,PENGUIN,TRUE,,,,,,,86,pingino,Spanish,Sounds/spa_pinguino.mp3,2020-06-05_15h36.21.439,TranslationElicitation_eng-prolific,3.2.4,Win32,60,5e95befc3834c10008c19c43,19.44300008,1,0,98,81,1,97
,,,,,,,,,,,,,,,,,,,,,,,,,,,,,,,,,,,,,,,,,,,,,,,,,,,86,pingino,Spanish,Sounds/spa_pinguino.mp3,2020-06-05_15h36.21.439,TranslationElicitation_eng-prolific,3.2.4,Win32,60,5e95befc3834c10008c19c43,,1,0,98,81,1,97
,,,,,,,,,,,,,,,,,,,,,,,,,,,,,,,,,,,,,,,,,b,4.150000095,B,FALSE,,,,,,,6,boca,Spanish,Sounds/spa_boca.mp3,2020-06-05_15h36.21.439,TranslationElicitation_eng-prolific,3.2.4,Win32,60,5e95befc3834c10008c19c43,,1,0,98,4,1,97
,,,,,,,,,,,,,,,,,,,,,,,,,,,,,,,,,,,,,,,,,o,4.417000055,BO,FALSE,,,,,,,6,boca,Spanish,Sounds/spa_boca.mp3,2020-06-05_15h36.21.439,TranslationElicitation_eng-prolific,3.2.4,Win32,60,5e95befc3834c10008c19c43,,1,0,98,4,1,97
,,,,,,,,,,,,,,,,,,,,,,,,,,,,,,,,,,,,,,,,,o,4.582000017,BOO,FALSE,,,,,,,6,boca,Spanish,Sounds/spa_boca.mp3,2020-06-05_15h36.21.439,TranslationElicitation_eng-prolific,3.2.4,Win32,60,5e95befc3834c10008c19c43,,1,0,98,4,1,97
,,,,,,,,,,,,,,,,,,,,,,,,,,,,,,,,,,,,,,,,,k,4.71600008,BOOK,FALSE,,,,,,,6,boca,Spanish,Sounds/spa_boca.mp3,2020-06-05_15h36.21.439,TranslationElicitation_eng-prolific,3.2.4,Win32,60,5e95befc3834c10008c19c43,,1,0,98,4,1,97
,,,,,,,,,,,,,,,,,,,,,,,,,,,,,,,,,,,,,,,,,return,5.300000191,BOOK,FALSE,,,,,,,6,boca,Spanish,Sounds/spa_boca.mp3,2020-06-05_15h36.21.439,TranslationElicitation_eng-prolific,3.2.4,Win32,60,5e95befc3834c10008c19c43,5.300000191,1,0,98,4,1,97
,,,,,,,,,,,,,,,,,,,,,,,,,,,,,,,,,,,,,,,,,,,,,,,,,,,6,boca,Spanish,Sounds/spa_boca.mp3,2020-06-05_15h36.21.439,TranslationElicitation_eng-prolific,3.2.4,Win32,60,5e95befc3834c10008c19c43,,1,0,98,4,1,97
,,,,,,,,,,,,,,,,,,,,,,,,,,,,,,,,,,,,,,,,,w,5.166000128,W,FALSE,,,,,,,3,barco,Spanish,Sounds/spa_barco.mp3,2020-06-05_15h36.21.439,TranslationElicitation_eng-prolific,3.2.4,Win32,60,5e95befc3834c10008c19c43,,1,0,98,1,1,97
,,,,,,,,,,,,,,,,,,,,,,,,,,,,,,,,,,,,,,,,,o,5.282999992,WO,FALSE,,,,,,,3,barco,Spanish,Sounds/spa_barco.mp3,2020-06-05_15h36.21.439,TranslationElicitation_eng-prolific,3.2.4,Win32,60,5e95befc3834c10008c19c43,,1,0,98,1,1,97
,,,,,,,,,,,,,,,,,,,,,,,,,,,,,,,,,,,,,,,,,o,5.782999992,WOO,FALSE,,,,,,,3,barco,Spanish,Sounds/spa_barco.mp3,2020-06-05_15h36.21.439,TranslationElicitation_eng-prolific,3.2.4,Win32,60,5e95befc3834c10008c19c43,,1,0,98,1,1,97
,,,,,,,,,,,,,,,,,,,,,,,,,,,,,,,,,,,,,,,,,d,5.884000063,WOOD,FALSE,,,,,,,3,barco,Spanish,Sounds/spa_barco.mp3,2020-06-05_15h36.21.439,TranslationElicitation_eng-prolific,3.2.4,Win32,60,5e95befc3834c10008c19c43,,1,0,98,1,1,97
,,,,,,,,,,,,,,,,,,,,,,,,,,,,,,,,,,,,,,,,,return,6.499000072,WOOD,FALSE,,,,,,,3,barco,Spanish,Sounds/spa_barco.mp3,2020-06-05_15h36.21.439,TranslationElicitation_eng-prolific,3.2.4,Win32,60,5e95befc3834c10008c19c43,6.499000072,1,0,98,1,1,97
,,,,,,,,,,,,,,,,,,,,,,,,,,,,,,,,,,,,,,,,,,,,,,,,,,,3,barco,Spanish,Sounds/spa_barco.mp3,2020-06-05_15h36.21.439,TranslationElicitation_eng-prolific,3.2.4,Win32,60,5e95befc3834c10008c19c43,,1,0,98,1,1,97
,,,,,,,,,,,,,,,,,,,,,,,,,,,,,,,,,,,,,,,,,f,8.375,F,FALSE,,,,,,,28,cielo,Spanish,Sounds/spa_cielo.mp3,2020-06-05_15h36.21.439,TranslationElicitation_eng-prolific,3.2.4,Win32,60,5e95befc3834c10008c19c43,,1,0,98,25,1,97
,,,,,,,,,,,,,,,,,,,,,,,,,,,,,,,,,,,,,,,,,e,9.667000055,FE,FALSE,,,,,,,28,cielo,Spanish,Sounds/spa_cielo.mp3,2020-06-05_15h36.21.439,TranslationElicitation_eng-prolific,3.2.4,Win32,60,5e95befc3834c10008c19c43,,1,0,98,25,1,97
,,,,,,,,,,,,,,,,,,,,,,,,,,,,,,,,,,,,,,,,,a,9.900000095,FEA,FALSE,,,,,,,28,cielo,Spanish,Sounds/spa_cielo.mp3,2020-06-05_15h36.21.439,TranslationElicitation_eng-prolific,3.2.4,Win32,60,5e95befc3834c10008c19c43,,1,0,98,25,1,97
,,,,,,,,,,,,,,,,,,,,,,,,,,,,,,,,,,,,,,,,,r,10.1170001,FEAR,FALSE,,,,,,,28,cielo,Spanish,Sounds/spa_cielo.mp3,2020-06-05_15h36.21.439,TranslationElicitation_eng-prolific,3.2.4,Win32,60,5e95befc3834c10008c19c43,,1,0,98,25,1,97
,,,,,,,,,,,,,,,,,,,,,,,,,,,,,,,,,,,,,,,,,return,10.5999999,FEAR,FALSE,,,,,,,28,cielo,Spanish,Sounds/spa_cielo.mp3,2020-06-05_15h36.21.439,TranslationElicitation_eng-prolific,3.2.4,Win32,60,5e95befc3834c10008c19c43,10.5999999,1,0,98,25,1,97
,,,,,,,,,,,,,,,,,,,,,,,,,,,,,,,,,,,,,,,,,,,,,,,,,,,28,cielo,Spanish,Sounds/spa_cielo.mp3,2020-06-05_15h36.21.439,TranslationElicitation_eng-prolific,3.2.4,Win32,60,5e95befc3834c10008c19c43,,1,0,98,25,1,97
,,,,,,,,,,,,,,,,,,,,,,,,,,,,,,,,,,,,,,,,,b,11.38200021,B,FALSE,,,,,,,13,buho,Spanish,Sounds/spa_buho.mp3,2020-06-05_15h36.21.439,TranslationElicitation_eng-prolific,3.2.4,Win32,60,5e95befc3834c10008c19c43,,1,0,98,11,1,97
,,,,,,,,,,,,,,,,,,,,,,,,,,,,,,,,,,,,,,,,,e,11.73300004,BE,FALSE,,,,,,,13,buho,Spanish,Sounds/spa_buho.mp3,2020-06-05_15h36.21.439,TranslationElicitation_eng-prolific,3.2.4,Win32,60,5e95befc3834c10008c19c43,,1,0,98,11,1,97
,,,,,,,,,,,,,,,,,,,,,,,,,,,,,,,,,,,,,,,,,d,11.93200016,BED,FALSE,,,,,,,13,buho,Spanish,Sounds/spa_buho.mp3,2020-06-05_15h36.21.439,TranslationElicitation_eng-prolific,3.2.4,Win32,60,5e95befc3834c10008c19c43,,1,0,98,11,1,97
,,,,,,,,,,,,,,,,,,,,,,,,,,,,,,,,,,,,,,,,,return,13.03200006,BED,FALSE,,,,,,,13,buho,Spanish,Sounds/spa_buho.mp3,2020-06-05_15h36.21.439,TranslationElicitation_eng-prolific,3.2.4,Win32,60,5e95befc3834c10008c19c43,13.03200006,1,0,98,11,1,97
,,,,,,,,,,,,,,,,,,,,,,,,,,,,,,,,,,,,,,,,,,,,,,,,,,,13,buho,Spanish,Sounds/spa_buho.mp3,2020-06-05_15h36.21.439,TranslationElicitation_eng-prolific,3.2.4,Win32,60,5e95befc3834c10008c19c43,,1,0,98,11,1,97
,,,,,,,,,,,,,,,,,,,,,,,,,,,,,,,,,,,,,,,,,m,7.21600008,M,FALSE,,,,,,,48,gusano,Spanish,Sounds/spa_gusano.mp3,2020-06-05_15h36.21.439,TranslationElicitation_eng-prolific,3.2.4,Win32,60,5e95befc3834c10008c19c43,,1,0,98,44,1,97
,,,,,,,,,,,,,,,,,,,,,,,,,,,,,,,,,,,,,,,,,s,7.567000151,MS,FALSE,,,,,,,48,gusano,Spanish,Sounds/spa_gusano.mp3,2020-06-05_15h36.21.439,TranslationElicitation_eng-prolific,3.2.4,Win32,60,5e95befc3834c10008c19c43,,1,0,98,44,1,97
,,,,,,,,,,,,,,,,,,,,,,,,,,,,,,,,,,,,,,,,,u,7.717000008,MSU,FALSE,,,,,,,48,gusano,Spanish,Sounds/spa_gusano.mp3,2020-06-05_15h36.21.439,TranslationElicitation_eng-prolific,3.2.4,Win32,60,5e95befc3834c10008c19c43,,1,0,98,44,1,97
