consentKey.keys,consentKey.rt,languageL1Key.keys,languageL1Key.rt,languageL2,languageL2OralKey.keys,languageL2OralKey.rt,languageL2WrittenKey.keys,languageL2WrittenKey.rt,languageL3OralKey.keys,languageL3OralKey.rt,languageL3WrittenKey.keys,languageL3WrittenKey.rt,languageCatalanOralKey.keys,languageCatalanOralKey.rt,languageCatalanWrittenKey.keys,languageCatalanWrittenKey.rt,languageCatalanTimeKey.keys,languageCatalanTimeKey.rt,languageSpanishOralKey.keys,languageSpanishOralKey.rt,languageSpanishWrittenKey.keys,languageSpanishWrittenKey.rt,languageSpanishTimeKey.keys,languageSpanishTimeKey.rt,age,demoSexKey.keys,demoSexKey.rt,demoEducationKey.keys,demoEducationKey.rt,city,demoVisionKey.keys,demoVisionKey.rt,demoLanguageKey.keys,demoLanguageKey.rt,setupLocationKey.keys,setupLocationKey.rt,setupNoiseKey.keys,setupNoiseKey.rt,instructionsKeys.keys,instructionsKeys.rt,keyPressed,keyPressTime,inputText,error,trialsPracticeSpanish.thisRepN,trialsPracticeSpanish.thisTrialN,trialsPracticeSpanish.thisN,trialsPracticeSpanish.thisIndex,trialsPracticeSpanish.ran,trialsPracticeSpanish.order,trial_id,word,test_language,soundfile,date,expName,psychopyVersion,OS,frameRate,participant,trialOffset,trialsSpanish.thisRepN,trialsSpanish.thisTrialN,trialsSpanish.thisN,trialsSpanish.thisIndex,trialsSpanish.ran,trialsSpanish.order
space,3.53399992,e,5.517999887,,,,,,,,,,2,5.358999968,1,6.80700016,1,5.20299983,2,5.307999849,1,2.763000011,1,4.313999891,24,m,2.212000132,4,5.015000105,MANCHESTER,y,3.473999977,n,3.84800005,1,3.708999872,1,5.881999969,space,20.64700007,c,3.352999926,C,FALSE,1,0,5,1,1,4,30,corona,Spanish,Sounds/spa_corona.mp3,2020-06-05_12h52.18.242,TranslationElicitation_eng-prolific,3.2.4,Win32,60,5e9629228a7eb70aaf79c1aa,,,,,,,
,,,,,,,,,,,,,,,,,,,,,,,,,,,,,,,,,,,,,,,,,o,3.936000109,CO,FALSE,1,0,5,1,1,4,30,corona,Spanish,Sounds/spa_corona.mp3,2020-06-05_12h52.18.242,TranslationElicitation_eng-prolific,3.2.4,Win32,60,5e9629228a7eb70aaf79c1aa,,,,,,,
,,,,,,,,,,,,,,,,,,,,,,,,,,,,,,,,,,,,,,,,,r,4.144999981,COR,FALSE,1,0,5,1,1,4,30,corona,Spanish,Sounds/spa_corona.mp3,2020-06-05_12h52.18.242,TranslationElicitation_eng-prolific,3.2.4,Win32,60,5e9629228a7eb70aaf79c1aa,,,,,,,
,,,,,,,,,,,,,,,,,,,,,,,,,,,,,,,,,,,,,,,,,o,4.624000072,CORO,FALSE,1,0,5,1,1,4,30,corona,Spanish,Sounds/spa_corona.mp3,2020-06-05_12h52.18.242,TranslationElicitation_eng-prolific,3.2.4,Win32,60,5e9629228a7eb70aaf79c1aa,,,,,,,
,,,,,,,,,,,,,,,,,,,,,,,,,,,,,,,,,,,,,,,,,n,4.936000109,CORON,FALSE,1,0,5,1,1,4,30,corona,Spanish,Sounds/spa_corona.mp3,2020-06-05_12h52.18.242,TranslationElicitation_eng-prolific,3.2.4,Win32,60,5e9629228a7eb70aaf79c1aa,,,,,,,
,,,,,,,,,,,,,,,,,,,,,,,,,,,,,,,,,,,,,,,,,a,5.124000072,CORONA,FALSE,1,0,5,1,1,4,30,corona,Spanish,Sounds/spa_corona.mp3,2020-06-05_12h52.18.242,TranslationElicitation_eng-prolific,3.2.4,Win32,60,5e9629228a7eb70aaf79c1aa,,,,,,,
,,,,,,,,,,,,,,,,,,,,,,,,,,,,,,,,,,,,,,,,,return,7.916000128,CORONA,FALSE,1,0,5,1,1,4,30,corona,Spanish,Sounds/spa_corona.mp3,2020-06-05_12h52.18.242,TranslationElicitation_eng-prolific,3.2.4,Win32,60,5e9629228a7eb70aaf79c1aa,7.916000128,,,,,,
,,,,,,,,,,,,,,,,,,,,,,,,,,,,,,,,,,,,,,,,,,,,,1,0,5,1,1,4,30,corona,Spanish,Sounds/spa_corona.mp3,2020-06-05_12h52.18.242,TranslationElicitation_eng-prolific,3.2.4,Win32,60,5e9629228a7eb70aaf79c1aa,,,,,,,
,,,,,,,,,,,,,,,,,,,,,,,,,,,,,,,,,,,,,,,,,t,2.395999908,T,FALSE,1,0,5,4,1,4,96,tigre,Spanish,Sounds/spa_tigre.mp3,2020-06-05_12h52.18.242,TranslationElicitation_eng-prolific,3.2.4,Win32,60,5e9629228a7eb70aaf79c1aa,,,,,,,
,,,,,,,,,,,,,,,,,,,,,,,,,,,,,,,,,,,,,,,,,i,2.645999908,TI,FALSE,1,0,5,4,1,4,96,tigre,Spanish,Sounds/spa_tigre.mp3,2020-06-05_12h52.18.242,TranslationElicitation_eng-prolific,3.2.4,Win32,60,5e9629228a7eb70aaf79c1aa,,,,,,,
,,,,,,,,,,,,,,,,,,,,,,,,,,,,,,,,,,,,,,,,,g,2.790999889,TIG,FALSE,1,0,5,4,1,4,96,tigre,Spanish,Sounds/spa_tigre.mp3,2020-06-05_12h52.18.242,TranslationElicitation_eng-prolific,3.2.4,Win32,60,5e9629228a7eb70aaf79c1aa,,,,,,,
,,,,,,,,,,,,,,,,,,,,,,,,,,,,,,,,,,,,,,,,,e,3.103999853,TIGE,FALSE,1,0,5,4,1,4,96,tigre,Spanish,Sounds/spa_tigre.mp3,2020-06-05_12h52.18.242,TranslationElicitation_eng-prolific,3.2.4,Win32,60,5e9629228a7eb70aaf79c1aa,,,,,,,
,,,,,,,,,,,,,,,,,,,,,,,,,,,,,,,,,,,,,,,,,r,3.269999981,TIGER,FALSE,1,0,5,4,1,4,96,tigre,Spanish,Sounds/spa_tigre.mp3,2020-06-05_12h52.18.242,TranslationElicitation_eng-prolific,3.2.4,Win32,60,5e9629228a7eb70aaf79c1aa,,,,,,,
,,,,,,,,,,,,,,,,,,,,,,,,,,,,,,,,,,,,,,,,,return,5.415999889,TIGER,FALSE,1,0,5,4,1,4,96,tigre,Spanish,Sounds/spa_tigre.mp3,2020-06-05_12h52.18.242,TranslationElicitation_eng-prolific,3.2.4,Win32,60,5e9629228a7eb70aaf79c1aa,5.415999889,,,,,,
,,,,,,,,,,,,,,,,,,,,,,,,,,,,,,,,,,,,,,,,,,,,,1,0,5,4,1,4,96,tigre,Spanish,Sounds/spa_tigre.mp3,2020-06-05_12h52.18.242,TranslationElicitation_eng-prolific,3.2.4,Win32,60,5e9629228a7eb70aaf79c1aa,,,,,,,
,,,,,,,,,,,,,,,,,,,,,,,,,,,,,,,,,,,,,,,,,c,3.874000072,C,FALSE,1,0,5,2,1,4,26,chaqueta,Spanish,Sounds/spa_chaqueta.mp3,2020-06-05_12h52.18.242,TranslationElicitation_eng-prolific,3.2.4,Win32,60,5e9629228a7eb70aaf79c1aa,,,,,,,
,,,,,,,,,,,,,,,,,,,,,,,,,,,,,,,,,,,,,,,,,h,4.145999908,CH,FALSE,1,0,5,2,1,4,26,chaqueta,Spanish,Sounds/spa_chaqueta.mp3,2020-06-05_12h52.18.242,TranslationElicitation_eng-prolific,3.2.4,Win32,60,5e9629228a7eb70aaf79c1aa,,,,,,,
,,,,,,,,,,,,,,,,,,,,,,,,,,,,,,,,,,,,,,,,,i,4.312000036,CHI,FALSE,1,0,5,2,1,4,26,chaqueta,Spanish,Sounds/spa_chaqueta.mp3,2020-06-05_12h52.18.242,TranslationElicitation_eng-prolific,3.2.4,Win32,60,5e9629228a7eb70aaf79c1aa,,,,,,,
,,,,,,,,,,,,,,,,,,,,,,,,,,,,,,,,,,,,,,,,,c,4.437000036,CHIC,FALSE,1,0,5,2,1,4,26,chaqueta,Spanish,Sounds/spa_chaqueta.mp3,2020-06-05_12h52.18.242,TranslationElicitation_eng-prolific,3.2.4,Win32,60,5e9629228a7eb70aaf79c1aa,,,,,,,
,,,,,,,,,,,,,,,,,,,,,,,,,,,,,,,,,,,,,,,,,k,4.582999945,CHICK,FALSE,1,0,5,2,1,4,26,chaqueta,Spanish,Sounds/spa_chaqueta.mp3,2020-06-05_12h52.18.242,TranslationElicitation_eng-prolific,3.2.4,Win32,60,5e9629228a7eb70aaf79c1aa,,,,,,,
,,,,,,,,,,,,,,,,,,,,,,,,,,,,,,,,,,,,,,,,,e,4.832000017,CHICKE,FALSE,1,0,5,2,1,4,26,chaqueta,Spanish,Sounds/spa_chaqueta.mp3,2020-06-05_12h52.18.242,TranslationElicitation_eng-prolific,3.2.4,Win32,60,5e9629228a7eb70aaf79c1aa,,,,,,,
,,,,,,,,,,,,,,,,,,,,,,,,,,,,,,,,,,,,,,,,,n,4.957000017,CHICKEN,FALSE,1,0,5,2,1,4,26,chaqueta,Spanish,Sounds/spa_chaqueta.mp3,2020-06-05_12h52.18.242,TranslationElicitation_eng-prolific,3.2.4,Win32,60,5e9629228a7eb70aaf79c1aa,,,,,,,
,,,,,,,,,,,,,,,,,,,,,,,,,,,,,,,,,,,,,,,,,return,5.707000017,CHICKEN,FALSE,1,0,5,2,1,4,26,chaqueta,Spanish,Sounds/spa_chaqueta.mp3,2020-06-05_12h52.18.242,TranslationElicitation_eng-prolific,3.2.4,Win32,60,5e9629228a7eb70aaf79c1aa,5.707000017,,,,,,
,,,,,,,,,,,,,,,,,,,,,,,,,,,,,,,,,,,,,,,,,,,,,1,0,5,2,1,4,26,chaqueta,Spanish,Sounds/spa_chaqueta.mp3,2020-06-05_12h52.18.242,TranslationElicitation_eng-prolific,3.2.4,Win32,60,5e9629228a7eb70aaf79c1aa,,,,,,,
,,,,,,,,,,,,,,,,,,,,,,,,,,,,,,,,,,,,,,,,,a,9.269999981,A,FALSE,1,0,5,0,1,4,1,arbol,Spanish,Sounds/spa_arbol.mp3,2020-06-05_12h52.18.242,TranslationElicitation_eng-prolific,3.2.4,Win32,60,5e9629228a7eb70aaf79c1aa,,,,,,,
,,,,,,,,,,,,,,,,,,,,,,,,,,,,,,,,,,,,,,,,,p,9.562000036,AP,FALSE,1,0,5,0,1,4,1,arbol,Spanish,Sounds/spa_arbol.mp3,2020-06-05_12h52.18.242,TranslationElicitation_eng-prolific,3.2.4,Win32,60,5e9629228a7eb70aaf79c1aa,,,,,,,
,,,,,,,,,,,,,,,,,,,,,,,,,,,,,,,,,,,,,,,,,p,9.727999926,APP,FALSE,1,0,5,0,1,4,1,arbol,Spanish,Sounds/spa_arbol.mp3,2020-06-05_12h52.18.242,TranslationElicitation_eng-prolific,3.2.4,Win32,60,5e9629228a7eb70aaf79c1aa,,,,,,,
,,,,,,,,,,,,,,,,,,,,,,,,,,,,,,,,,,,,,,,,,l,9.874000072,APPL,FALSE,1,0,5,0,1,4,1,arbol,Spanish,Sounds/spa_arbol.mp3,2020-06-05_12h52.18.242,TranslationElicitation_eng-prolific,3.2.4,Win32,60,5e9629228a7eb70aaf79c1aa,,,,,,,
,,,,,,,,,,,,,,,,,,,,,,,,,,,,,,,,,,,,,,,,,e,9.977999926,APPLE,FALSE,1,0,5,0,1,4,1,arbol,Spanish,Sounds/spa_arbol.mp3,2020-06-05_12h52.18.242,TranslationElicitation_eng-prolific,3.2.4,Win32,60,5e9629228a7eb70aaf79c1aa,,,,,,,
,,,,,,,,,,,,,,,,,,,,,,,,,,,,,,,,,,,,,,,,,return,10.66599989,APPLE,FALSE,1,0,5,0,1,4,1,arbol,Spanish,Sounds/spa_arbol.mp3,2020-06-05_12h52.18.242,TranslationElicitation_eng-prolific,3.2.4,Win32,60,5e9629228a7eb70aaf79c1aa,10.66599989,,,,,,
,,,,,,,,,,,,,,,,,,,,,,,,,,,,,,,,,,,,,,,,,,,,,1,0,5,0,1,4,1,arbol,Spanish,Sounds/spa_arbol.mp3,2020-06-05_12h52.18.242,TranslationElicitation_eng-prolific,3.2.4,Win32,60,5e9629228a7eb70aaf79c1aa,,,,,,,
,,,,,,,,,,,,,,,,,,,,,,,,,,,,,,,,,,,,,,,,,h,2.083000183,H,FALSE,1,0,5,3,1,4,70,ola,Spanish,Sounds/spa_ola.mp3,2020-06-05_12h52.18.242,TranslationElicitation_eng-prolific,3.2.4,Win32,60,5e9629228a7eb70aaf79c1aa,,,,,,,
,,,,,,,,,,,,,,,,,,,,,,,,,,,,,,,,,,,,,,,,,e,2.208000183,HE,FALSE,1,0,5,3,1,4,70,ola,Spanish,Sounds/spa_ola.mp3,2020-06-05_12h52.18.242,TranslationElicitation_eng-prolific,3.2.4,Win32,60,5e9629228a7eb70aaf79c1aa,,,,,,,
,,,,,,,,,,,,,,,,,,,,,,,,,,,,,,,,,,,,,,,,,l,2.395000219,HEL,FALSE,1,0,5,3,1,4,70,ola,Spanish,Sounds/spa_ola.mp3,2020-06-05_12h52.18.242,TranslationElicitation_eng-prolific,3.2.4,Win32,60,5e9629228a7eb70aaf79c1aa,,,,,,,
,,,,,,,,,,,,,,,,,,,,,,,,,,,,,,,,,,,,,,,,,l,2.541000128,HELL,FALSE,1,0,5,3,1,4,70,ola,Spanish,Sounds/spa_ola.mp3,2020-06-05_12h52.18.242,TranslationElicitation_eng-prolific,3.2.4,Win32,60,5e9629228a7eb70aaf79c1aa,,,,,,,
,,,,,,,,,,,,,,,,,,,,,,,,,,,,,,,,,,,,,,,,,o,2.708000183,HELLO,FALSE,1,0,5,3,1,4,70,ola,Spanish,Sounds/spa_ola.mp3,2020-06-05_12h52.18.242,TranslationElicitation_eng-prolific,3.2.4,Win32,60,5e9629228a7eb70aaf79c1aa,,,,,,,
,,,,,,,,,,,,,,,,,,,,,,,,,,,,,,,,,,,,,,,,,return,4.395000219,HELLO,FALSE,1,0,5,3,1,4,70,ola,Spanish,Sounds/spa_ola.mp3,2020-06-05_12h52.18.242,TranslationElicitation_eng-prolific,3.2.4,Win32,60,5e9629228a7eb70aaf79c1aa,4.395000219,,,,,,
,,,,,,,,,,,,,,,,,,,,,,,,,,,,,,,,,,,,,,,,,,,,,1,0,5,3,1,4,70,ola,Spanish,Sounds/spa_ola.mp3,2020-06-05_12h52.18.242,TranslationElicitation_eng-prolific,3.2.4,Win32,60,5e9629228a7eb70aaf79c1aa,,,,,,,
,,,,,,,,,,,,,,,,,,,,,,,,,,,,,,,,,,,,,,,,,o,3.394999981,O,FALSE,,,,,,,68,naranja,Spanish,Sounds/spa_naranja.mp3,2020-06-05_12h52.18.242,TranslationElicitation_eng-prolific,3.2.4,Win32,60,5e9629228a7eb70aaf79c1aa,,1,0,98,64,1,97
,,,,,,,,,,,,,,,,,,,,,,,,,,,,,,,,,,,,,,,,,r,3.582999945,OR,FALSE,,,,,,,68,naranja,Spanish,Sounds/spa_naranja.mp3,2020-06-05_12h52.18.242,TranslationElicitation_eng-prolific,3.2.4,Win32,60,5e9629228a7eb70aaf79c1aa,,1,0,98,64,1,97
,,,,,,,,,,,,,,,,,,,,,,,,,,,,,,,,,,,,,,,,,a,3.853999853,ORA,FALSE,,,,,,,68,naranja,Spanish,Sounds/spa_naranja.mp3,2020-06-05_12h52.18.242,TranslationElicitation_eng-prolific,3.2.4,Win32,60,5e9629228a7eb70aaf79c1aa,,1,0,98,64,1,97
,,,,,,,,,,,,,,,,,,,,,,,,,,,,,,,,,,,,,,,,,n,3.998999834,ORAN,FALSE,,,,,,,68,naranja,Spanish,Sounds/spa_naranja.mp3,2020-06-05_12h52.18.242,TranslationElicitation_eng-prolific,3.2.4,Win32,60,5e9629228a7eb70aaf79c1aa,,1,0,98,64,1,97
,,,,,,,,,,,,,,,,,,,,,,,,,,,,,,,,,,,,,,,,,g,4.207999945,ORANG,FALSE,,,,,,,68,naranja,Spanish,Sounds/spa_naranja.mp3,2020-06-05_12h52.18.242,TranslationElicitation_eng-prolific,3.2.4,Win32,60,5e9629228a7eb70aaf79c1aa,,1,0,98,64,1,97
,,,,,,,,,,,,,,,,,,,,,,,,,,,,,,,,,,,,,,,,,e,4.332999945,ORANGE,FALSE,,,,,,,68,naranja,Spanish,Sounds/spa_naranja.mp3,2020-06-05_12h52.18.242,TranslationElicitation_eng-prolific,3.2.4,Win32,60,5e9629228a7eb70aaf79c1aa,,1,0,98,64,1,97
,,,,,,,,,,,,,,,,,,,,,,,,,,,,,,,,,,,,,,,,,return,5.852999926,ORANGE,FALSE,,,,,,,68,naranja,Spanish,Sounds/spa_naranja.mp3,2020-06-05_12h52.18.242,TranslationElicitation_eng-prolific,3.2.4,Win32,60,5e9629228a7eb70aaf79c1aa,5.852999926,1,0,98,64,1,97
,,,,,,,,,,,,,,,,,,,,,,,,,,,,,,,,,,,,,,,,,,,,,,,,,,,68,naranja,Spanish,Sounds/spa_naranja.mp3,2020-06-05_12h52.18.242,TranslationElicitation_eng-prolific,3.2.4,Win32,60,5e9629228a7eb70aaf79c1aa,,1,0,98,64,1,97
,,,,,,,,,,,,,,,,,,,,,,,,,,,,,,,,,,,,,,,,,s,2.686000109,S,FALSE,,,,,,,25,cesta,Spanish,Sounds/spa_cesta.mp3,2020-06-05_12h52.18.242,TranslationElicitation_eng-prolific,3.2.4,Win32,60,5e9629228a7eb70aaf79c1aa,,1,0,98,23,1,97
,,,,,,,,,,,,,,,,,,,,,,,,,,,,,,,,,,,,,,,,,i,2.832000017,SI,FALSE,,,,,,,25,cesta,Spanish,Sounds/spa_cesta.mp3,2020-06-05_12h52.18.242,TranslationElicitation_eng-prolific,3.2.4,Win32,60,5e9629228a7eb70aaf79c1aa,,1,0,98,23,1,97
,,,,,,,,,,,,,,,,,,,,,,,,,,,,,,,,,,,,,,,,,s,2.894999981,SIS,FALSE,,,,,,,25,cesta,Spanish,Sounds/spa_cesta.mp3,2020-06-05_12h52.18.242,TranslationElicitation_eng-prolific,3.2.4,Win32,60,5e9629228a7eb70aaf79c1aa,,1,0,98,23,1,97
,,,,,,,,,,,,,,,,,,,,,,,,,,,,,,,,,,,,,,,,,t,3.061000109,SIST,FALSE,,,,,,,25,cesta,Spanish,Sounds/spa_cesta.mp3,2020-06-05_12h52.18.242,TranslationElicitation_eng-prolific,3.2.4,Win32,60,5e9629228a7eb70aaf79c1aa,,1,0,98,23,1,97
,,,,,,,,,,,,,,,,,,,,,,,,,,,,,,,,,,,,,,,,,e,3.186000109,SISTE,FALSE,,,,,,,25,cesta,Spanish,Sounds/spa_cesta.mp3,2020-06-05_12h52.18.242,TranslationElicitation_eng-prolific,3.2.4,Win32,60,5e9629228a7eb70aaf79c1aa,,1,0,98,23,1,97
,,,,,,,,,,,,,,,,,,,,,,,,,,,,,,,,,,,,,,,,,r,3.332000017,SISTER,FALSE,,,,,,,25,cesta,Spanish,Sounds/spa_cesta.mp3,2020-06-05_12h52.18.242,TranslationElicitation_eng-prolific,3.2.4,Win32,60,5e9629228a7eb70aaf79c1aa,,1,0,98,23,1,97
,,,,,,,,,,,,,,,,,,,,,,,,,,,,,,,,,,,,,,,,,return,4.832000017,SISTER,FALSE,,,,,,,25,cesta,Spanish,Sounds/spa_cesta.mp3,2020-06-05_12h52.18.242,TranslationElicitation_eng-prolific,3.2.4,Win32,60,5e9629228a7eb70aaf79c1aa,4.832000017,1,0,98,23,1,97
,,,,,,,,,,,,,,,,,,,,,,,,,,,,,,,,,,,,,,,,,,,,,,,,,,,25,cesta,Spanish,Sounds/spa_cesta.mp3,2020-06-05_12h52.18.242,TranslationElicitation_eng-prolific,3.2.4,Win32,60,5e9629228a7eb70aaf79c1aa,,1,0,98,23,1,97
,,,,,,,,,,,,,,,,,,,,,,,,,,,,,,,,,,,,,,,,,s,5.499000072,S,FALSE,,,,,,,52,lapiz,Spanish,Sounds/spa_lapiz.mp3,2020-06-05_12h52.18.242,TranslationElicitation_eng-prolific,3.2.4,Win32,60,5e9629228a7eb70aaf79c1aa,,1,0,98,48,1,97
,,,,,,,,,,,,,,,,,,,,,,,,,,,,,,,,,,,,,,,,,w,5.999000072,SW,FALSE,,,,,,,52,lapiz,Spanish,Sounds/spa_lapiz.mp3,2020-06-05_12h52.18.242,TranslationElicitation_eng-prolific,3.2.4,Win32,60,5e9629228a7eb70aaf79c1aa,,1,0,98,48,1,97
,,,,,,,,,,,,,,,,,,,,,,,,,,,,,,,,,,,,,,,,,i,6.187000036,SWI,FALSE,,,,,,,52,lapiz,Spanish,Sounds/spa_lapiz.mp3,2020-06-05_12h52.18.242,TranslationElicitation_eng-prolific,3.2.4,Win32,60,5e9629228a7eb70aaf79c1aa,,1,0,98,48,1,97
,,,,,,,,,,,,,,,,,,,,,,,,,,,,,,,,,,,,,,,,,m,6.458000183,SWIM,FALSE,,,,,,,52,lapiz,Spanish,Sounds/spa_lapiz.mp3,2020-06-05_12h52.18.242,TranslationElicitation_eng-prolific,3.2.4,Win32,60,5e9629228a7eb70aaf79c1aa,,1,0,98,48,1,97
,,,,,,,,,,,,,,,,,,,,,,,,,,,,,,,,,,,,,,,,,m,6.562000036,SWIMM,FALSE,,,,,,,52,lapiz,Spanish,Sounds/spa_lapiz.mp3,2020-06-05_12h52.18.242,TranslationElicitation_eng-prolific,3.2.4,Win32,60,5e9629228a7eb70aaf79c1aa,,1,0,98,48,1,97
,,,,,,,,,,,,,,,,,,,,,,,,,,,,,,,,,,,,,,,,,i,6.728000164,SWIMMI,FALSE,,,,,,,52,lapiz,Spanish,Sounds/spa_lapiz.mp3,2020-06-05_12h52.18.242,TranslationElicitation_eng-prolific,3.2.4,Win32,60,5e9629228a7eb70aaf79c1aa,,1,0,98,48,1,97
,,,,,,,,,,,,,,,,,,,,,,,,,,,,,,,,,,,,,,,,,n,6.874000072,SWIMMIN,FALSE,,,,,,,52,lapiz,Spanish,Sounds/spa_lapiz.mp3,2020-06-05_12h52.18.242,TranslationElicitation_eng-prolific,3.2.4,Win32,60,5e9629228a7eb70aaf79c1aa,,1,0,98,48,1,97
,,,,,,,,,,,,,,,,,,,,,,,,,,,,,,,,,,,,,,,,,g,6.937000036,SWIMMING,FALSE,,,,,,,52,lapiz,Spanish,Sounds/spa_lapiz.mp3,2020-06-05_12h52.18.242,TranslationElicitation_eng-prolific,3.2.4,Win32,60,5e9629228a7eb70aaf79c1aa,,1,0,98,48,1,97
,,,,,,,,,,,,,,,,,,,,,,,,,,,,,,,,,,,,,,,,,space,7.103000164,SWIMMING ,FALSE,,,,,,,52,lapiz,Spanish,Sounds/spa_lapiz.mp3,2020-06-05_12h52.18.242,TranslationElicitation_eng-prolific,3.2.4,Win32,60,5e9629228a7eb70aaf79c1aa,,1,0,98,48,1,97
,,,,,,,,,,,,,,,,,,,,,,,,,,,,,,,,,,,,,,,,,p,7.436000109,SWIMMING P,FALSE,,,,,,,52,lapiz,Spanish,Sounds/spa_lapiz.mp3,2020-06-05_12h52.18.242,TranslationElicitation_eng-prolific,3.2.4,Win32,60,5e9629228a7eb70aaf79c1aa,,1,0,98,48,1,97
,,,,,,,,,,,,,,,,,,,,,,,,,,,,,,,,,,,,,,,,,o,7.624000072,SWIMMING PO,FALSE,,,,,,,52,lapiz,Spanish,Sounds/spa_lapiz.mp3,2020-06-05_12h52.18.242,TranslationElicitation_eng-prolific,3.2.4,Win32,60,5e9629228a7eb70aaf79c1aa,,1,0,98,48,1,97
,,,,,,,,,,,,,,,,,,,,,,,,,,,,,,,,,,,,,,,,,o,7.769999981,SWIMMING POO,FALSE,,,,,,,52,lapiz,Spanish,Sounds/spa_lapiz.mp3,2020-06-05_12h52.18.242,TranslationElicitation_eng-prolific,3.2.4,Win32,60,5e9629228a7eb70aaf79c1aa,,1,0,98,48,1,97
,,,,,,,,,,,,,,,,,,,,,,,,,,,,,,,,,,,,,,,,,l,7.917000055,SWIMMING POOL,FALSE,,,,,,,52,lapiz,Spanish,Sounds/spa_lapiz.mp3,2020-06-05_12h52.18.242,TranslationElicitation_eng-prolific,3.2.4,Win32,60,5e9629228a7eb70aaf79c1aa,,1,0,98,48,1,97
,,,,,,,,,,,,,,,,,,,,,,,,,,,,,,,,,,,,,,,,,return,8.374000072,SWIMMING POOL,FALSE,,,,,,,52,lapiz,Spanish,Sounds/spa_lapiz.mp3,2020-06-05_12h52.18.242,TranslationElicitation_eng-prolific,3.2.4,Win32,60,5e9629228a7eb70aaf79c1aa,8.374000072,1,0,98,48,1,97
,,,,,,,,,,,,,,,,,,,,,,,,,,,,,,,,,,,,,,,,,,,,,,,,,,,52,lapiz,Spanish,Sounds/spa_lapiz.mp3,2020-06-05_12h52.18.242,TranslationElicitation_eng-prolific,3.2.4,Win32,60,5e9629228a7eb70aaf79c1aa,,1,0,98,48,1,97
,,,,,,,,,,,,,,,,,,,,,,,,,,,,,,,,,,,,,,,,,c,2.437000036,C,FALSE,,,,,,,24,cereza,Spanish,Sounds/spa_cereza.mp3,2020-06-05_12h52.18.242,TranslationElicitation_eng-prolific,3.2.4,Win32,60,5e9629228a7eb70aaf79c1aa,,1,0,98,22,1,97
,,,,,,,,,,,,,,,,,,,,,,,,,,,,,,,,,,,,,,,,,h,2.687000036,CH,FALSE,,,,,,,24,cereza,Spanish,Sounds/spa_cereza.mp3,2020-06-05_12h52.18.242,TranslationElicitation_eng-prolific,3.2.4,Win32,60,5e9629228a7eb70aaf79c1aa,,1,0,98,22,1,97
,,,,,,,,,,,,,,,,,,,,,,,,,,,,,,,,,,,,,,,,,o,2.812000036,CHO,FALSE,,,,,,,24,cereza,Spanish,Sounds/spa_cereza.mp3,2020-06-05_12h52.18.242,TranslationElicitation_eng-prolific,3.2.4,Win32,60,5e9629228a7eb70aaf79c1aa,,1,0,98,22,1,97
,,,,,,,,,,,,,,,,,,,,,,,,,,,,,,,,,,,,,,,,,r,2.894999981,CHOR,FALSE,,,,,,,24,cereza,Spanish,Sounds/spa_cereza.mp3,2020-06-05_12h52.18.242,TranslationElicitation_eng-prolific,3.2.4,Win32,60,5e9629228a7eb70aaf79c1aa,,1,0,98,22,1,97
,,,,,,,,,,,,,,,,,,,,,,,,,,,,,,,,,,,,,,,,,i,3.020999908,CHORI,FALSE,,,,,,,24,cereza,Spanish,Sounds/spa_cereza.mp3,2020-06-05_12h52.18.242,TranslationElicitation_eng-prolific,3.2.4,Win32,60,5e9629228a7eb70aaf79c1aa,,1,0,98,22,1,97
,,,,,,,,,,,,,,,,,,,,,,,,,,,,,,,,,,,,,,,,,z,3.582999945,CHORIZ,FALSE,,,,,,,24,cereza,Spanish,Sounds/spa_cereza.mp3,2020-06-05_12h52.18.242,TranslationElicitation_eng-prolific,3.2.4,Win32,60,5e9629228a7eb70aaf79c1aa,,1,0,98,22,1,97
,,,,,,,,,,,,,,,,,,,,,,,,,,,,,,,,,,,,,,,,,o,3.755000114,CHORIZO,FALSE,,,,,,,24,cereza,Spanish,Sounds/spa_cereza.mp3,2020-06-05_12h52.18.242,TranslationElicitation_eng-prolific,3.2.4,Win32,60,5e9629228a7eb70aaf79c1aa,,1,0,98,22,1,97
,,,,,,,,,,,,,,,,,,,,,,,,,,,,,,,,,,,,,,,,,return,5.312000036,CHORIZO,FALSE,,,,,,,24,cereza,Spanish,Sounds/spa_cereza.mp3,2020-06-05_12h52.18.242,TranslationElicitation_eng-prolific,3.2.4,Win32,60,5e9629228a7eb70aaf79c1aa,5.312000036,1,0,98,22,1,97
,,,,,,,,,,,,,,,,,,,,,,,,,,,,,,,,,,,,,,,,,,,,,,,,,,,24,cereza,Spanish,Sounds/spa_cereza.mp3,2020-06-05_12h52.18.242,TranslationElicitation_eng-prolific,3.2.4,Win32,60,5e9629228a7eb70aaf79c1aa,,1,0,98,22,1,97
,,,,,,,,,,,,,,,,,,,,,,,,,,,,,,,,,,,,,,,,,s,8.122999907,S,FALSE,,,,,,,2,avestruz,Spanish,Sounds/spa_avestruz.mp3,2020-06-05_12h52.18.242,TranslationElicitation_eng-prolific,3.2.4,Win32,60,5e9629228a7eb70aaf79c1aa,,1,0,98,0,1,97
,,,,,,,,,,,,,,,,,,,,,,,,,,,,,,,,,,,,,,,,,c,8.352999926,SC,FALSE,,,,,,,2,avestruz,Spanish,Sounds/spa_avestruz.mp3,2020-06-05_12h52.18.242,TranslationElicitation_eng-prolific,3.2.4,Win32,60,5e9629228a7eb70aaf79c1aa,,1,0,98,0,1,97
,,,,,,,,,,,,,,,,,,,,,,,,,,,,,,,,,,,,,,,,,h,8.625999928,SCH,FALSE,,,,,,,2,avestruz,Spanish,Sounds/spa_avestruz.mp3,2020-06-05_12h52.18.242,TranslationElicitation_eng-prolific,3.2.4,Win32,60,5e9629228a7eb70aaf79c1aa,,1,0,98,0,1,97
,,,,,,,,,,,,,,,,,,,,,,,,,,,,,,,,,,,,,,,,,o,8.68599987,SCHO,FALSE,,,,,,,2,avestruz,Spanish,Sounds/spa_avestruz.mp3,2020-06-05_12h52.18.242,TranslationElicitation_eng-prolific,3.2.4,Win32,60,5e9629228a7eb70aaf79c1aa,,1,0,98,0,1,97
,,,,,,,,,,,,,,,,,,,,,,,,,,,,,,,,,,,,,,,,,o,9.122999907,SCHOO,FALSE,,,,,,,2,avestruz,Spanish,Sounds/spa_avestruz.mp3,2020-06-05_12h52.18.242,TranslationElicitation_eng-prolific,3.2.4,Win32,60,5e9629228a7eb70aaf79c1aa,,1,0,98,0,1,97
,,,,,,,,,,,,,,,,,,,,,,,,,,,,,,,,,,,,,,,,,l,9.43599987,SCHOOL,FALSE,,,,,,,2,avestruz,Spanish,Sounds/spa_avestruz.mp3,2020-06-05_12h52.18.242,TranslationElicitation_eng-prolific,3.2.4,Win32,60,5e9629228a7eb70aaf79c1aa,,1,0,98,0,1,97
,,,,,,,,,,,,,,,,,,,,,,,,,,,,,,,,,,,,,,,,,return,10.41499996,SCHOOL,FALSE,,,,,,,2,avestruz,Spanish,Sounds/spa_avestruz.mp3,2020-06-05_12h52.18.242,TranslationElicitation_eng-prolific,3.2.4,Win32,60,5e9629228a7eb70aaf79c1aa,10.41499996,1,0,98,0,1,97
,,,,,,,,,,,,,,,,,,,,,,,,,,,,,,,,,,,,,,,,,,,,,,,,,,,2,avestruz,Spanish,Sounds/spa_avestruz.mp3,2020-06-05_12h52.18.242,TranslationElicitation_eng-prolific,3.2.4,Win32,60,5e9629228a7eb70aaf79c1aa,,1,0,98,0,1,97
,,,,,,,,,,,,,,,,,,,,,,,,,,,,,,,,,,,,,,,,,p,3.5,P,FALSE,,,,,,,10,botella,Spanish,Sounds/spa_botella.mp3,2020-06-05_12h52.18.242,TranslationElicitation_eng-prolific,3.2.4,Win32,60,5e9629228a7eb70aaf79c1aa,,1,0,98,8,1,97
,,,,,,,,,,,,,,,,,,,,,,,,,,,,,,,,,,,,,,,,,o,3.665999889,PO,FALSE,,,,,,,10,botella,Spanish,Sounds/spa_botella.mp3,2020-06-05_12h52.18.242,TranslationElicitation_eng-prolific,3.2.4,Win32,60,5e9629228a7eb70aaf79c1aa,,1,0,98,8,1,97
,,,,,,,,,,,,,,,,,,,,,,,,,,,,,,,,,,,,,,,,,t,3.749000072,POT,FALSE,,,,,,,10,botella,Spanish,Sounds/spa_botella.mp3,2020-06-05_12h52.18.242,TranslationElicitation_eng-prolific,3.2.4,Win32,60,5e9629228a7eb70aaf79c1aa,,1,0,98,8,1,97
,,,,,,,,,,,,,,,,,,,,,,,,,,,,,,,,,,,,,,,,,a,3.979000092,POTA,FALSE,,,,,,,10,botella,Spanish,Sounds/spa_botella.mp3,2020-06-05_12h52.18.242,TranslationElicitation_eng-prolific,3.2.4,Win32,60,5e9629228a7eb70aaf79c1aa,,1,0,98,8,1,97
,,,,,,,,,,,,,,,,,,,,,,,,,,,,,,,,,,,,,,,,,t,4.187000036,POTAT,FALSE,,,,,,,10,botella,Spanish,Sounds/spa_botella.mp3,2020-06-05_12h52.18.242,TranslationElicitation_eng-prolific,3.2.4,Win32,60,5e9629228a7eb70aaf79c1aa,,1,0,98,8,1,97
,,,,,,,,,,,,,,,,,,,,,,,,,,,,,,,,,,,,,,,,,o,4.332999945,POTATO,FALSE,,,,,,,10,botella,Spanish,Sounds/spa_botella.mp3,2020-06-05_12h52.18.242,TranslationElicitation_eng-prolific,3.2.4,Win32,60,5e9629228a7eb70aaf79c1aa,,1,0,98,8,1,97
,,,,,,,,,,,,,,,,,,,,,,,,,,,,,,,,,,,,,,,,,return,4.937000036,POTATO,FALSE,,,,,,,10,botella,Spanish,Sounds/spa_botella.mp3,2020-06-05_12h52.18.242,TranslationElicitation_eng-prolific,3.2.4,Win32,60,5e9629228a7eb70aaf79c1aa,4.937000036,1,0,98,8,1,97
,,,,,,,,,,,,,,,,,,,,,,,,,,,,,,,,,,,,,,,,,,,,,,,,,,,10,botella,Spanish,Sounds/spa_botella.mp3,2020-06-05_12h52.18.242,TranslationElicitation_eng-prolific,3.2.4,Win32,60,5e9629228a7eb70aaf79c1aa,,1,0,98,8,1,97
,,,,,,,,,,,,,,,,,,,,,,,,,,,,,,,,,,,,,,,,,d,5.352999926,D,FALSE,,,,,,,33,dedo,Spanish,Sounds/spa_dedo.mp3,2020-06-05_12h52.18.242,TranslationElicitation_eng-prolific,3.2.4,Win32,60,5e9629228a7eb70aaf79c1aa,,1,0,98,29,1,97
,,,,,,,,,,,,,,,,,,,,,,,,,,,,,,,,,,,,,,,,,e,5.540999889,DE,FALSE,,,,,,,33,dedo,Spanish,Sounds/spa_dedo.mp3,2020-06-05_12h52.18.242,TranslationElicitation_eng-prolific,3.2.4,Win32,60,5e9629228a7eb70aaf79c1aa,,1,0,98,29,1,97
,,,,,,,,,,,,,,,,,,,,,,,,,,,,,,,,,,,,,,,,,a,5.727999926,DEA,FALSE,,,,,,,33,dedo,Spanish,Sounds/spa_dedo.mp3,2020-06-05_12h52.18.242,TranslationElicitation_eng-prolific,3.2.4,Win32,60,5e9629228a7eb70aaf79c1aa,,1,0,98,29,1,97
,,,,,,,,,,,,,,,,,,,,,,,,,,,,,,,,,,,,,,,,,l,5.852999926,DEAL,FALSE,,,,,,,33,dedo,Spanish,Sounds/spa_dedo.mp3,2020-06-05_12h52.18.242,TranslationElicitation_eng-prolific,3.2.4,Win32,60,5e9629228a7eb70aaf79c1aa,,1,0,98,29,1,97
,,,,,,,,,,,,,,,,,,,,,,,,,,,,,,,,,,,,,,,,,return,6.437000036,DEAL,FALSE,,,,,,,33,dedo,Spanish,Sounds/spa_dedo.mp3,2020-06-05_12h52.18.242,TranslationElicitation_eng-prolific,3.2.4,Win32,60,5e9629228a7eb70aaf79c1aa,6.437000036,1,0,98,29,1,97
,,,,,,,,,,,,,,,,,,,,,,,,,,,,,,,,,,,,,,,,,,,,,,,,,,,33,dedo,Spanish,Sounds/spa_dedo.mp3,2020-06-05_12h52.18.242,TranslationElicitation_eng-prolific,3.2.4,Win32,60,5e9629228a7eb70aaf79c1aa,,1,0,98,29,1,97
,,,,,,,,,,,,,,,,,,,,,,,,,,,,,,,,,,,,,,,,,s,4.792000055,S,FALSE,,,,,,,57,loro,Spanish,Sounds/spa_loro.mp3,2020-06-05_12h52.18.242,TranslationElicitation_eng-prolific,3.2.4,Win32,60,5e9629228a7eb70aaf79c1aa,,1,0,98,53,1,97
,,,,,,,,,,,,,,,,,,,,,,,,,,,,,,,,,,,,,,,,,t,5,ST,FALSE,,,,,,,57,loro,Spanish,Sounds/spa_loro.mp3,2020-06-05_12h52.18.242,TranslationElicitation_eng-prolific,3.2.4,Win32,60,5e9629228a7eb70aaf79c1aa,,1,0,98,53,1,97
,,,,,,,,,,,,,,,,,,,,,,,,,,,,,,,,,,,,,,,,,o,5.125,STO,FALSE,,,,,,,57,loro,Spanish,Sounds/spa_loro.mp3,2020-06-05_12h52.18.242,TranslationElicitation_eng-prolific,3.2.4,Win32,60,5e9629228a7eb70aaf79c1aa,,1,0,98,53,1,97
,,,,,,,,,,,,,,,,,,,,,,,,,,,,,,,,,,,,,,,,,r,5.229000092,STOR,FALSE,,,,,,,57,loro,Spanish,Sounds/spa_loro.mp3,2020-06-05_12h52.18.242,TranslationElicitation_eng-prolific,3.2.4,Win32,60,5e9629228a7eb70aaf79c1aa,,1,0,98,53,1,97
,,,,,,,,,,,,,,,,,,,,,,,,,,,,,,,,,,,,,,,,,y,5.394999981,STORY,FALSE,,,,,,,57,loro,Spanish,Sounds/spa_loro.mp3,2020-06-05_12h52.18.242,TranslationElicitation_eng-prolific,3.2.4,Win32,60,5e9629228a7eb70aaf79c1aa,,1,0,98,53,1,97
,,,,,,,,,,,,,,,,,,,,,,,,,,,,,,,,,,,,,,,,,return,6.229000092,STORY,FALSE,,,,,,,57,loro,Spanish,Sounds/spa_loro.mp3,2020-06-05_12h52.18.242,TranslationElicitation_eng-prolific,3.2.4,Win32,60,5e9629228a7eb70aaf79c1aa,6.229000092,1,0,98,53,1,97
,,,,,,,,,,,,,,,,,,,,,,,,,,,,,,,,,,,,,,,,,,,,,,,,,,,57,loro,Spanish,Sounds/spa_loro.mp3,2020-06-05_12h52.18.242,TranslationElicitation_eng-prolific,3.2.4,Win32,60,5e9629228a7eb70aaf79c1aa,,1,0,98,53,1,97
,,,,,,,,,,,,,,,,,,,,,,,,,,,,,,,,,,,,,,,,,b,3.749000072,B,FALSE,,,,,,,3,barco,Spanish,Sounds/spa_barco.mp3,2020-06-05_12h52.18.242,TranslationElicitation_eng-prolific,3.2.4,Win32,60,5e9629228a7eb70aaf79c1aa,,1,0,98,1,1,97
,,,,,,,,,,,,,,,,,,,,,,,,,,,,,,,,,,,,,,,,,a,4.039999962,BA,FALSE,,,,,,,3,barco,Spanish,Sounds/spa_barco.mp3,2020-06-05_12h52.18.242,TranslationElicitation_eng-prolific,3.2.4,Win32,60,5e9629228a7eb70aaf79c1aa,,1,0,98,1,1,97
,,,,,,,,,,,,,,,,,,,,,,,,,,,,,,,,,,,,,,,,,n,4.164999962,BAN,FALSE,,,,,,,3,barco,Spanish,Sounds/spa_barco.mp3,2020-06-05_12h52.18.242,TranslationElicitation_eng-prolific,3.2.4,Win32,60,5e9629228a7eb70aaf79c1aa,,1,0,98,1,1,97
,,,,,,,,,,,,,,,,,,,,,,,,,,,,,,,,,,,,,,,,,k,4.311000109,BANK,FALSE,,,,,,,3,barco,Spanish,Sounds/spa_barco.mp3,2020-06-05_12h52.18.242,TranslationElicitation_eng-prolific,3.2.4,Win32,60,5e9629228a7eb70aaf79c1aa,,1,0,98,1,1,97
,,,,,,,,,,,,,,,,,,,,,,,,,,,,,,,,,,,,,,,,,return,5.332000017,BANK,FALSE,,,,,,,3,barco,Spanish,Sounds/spa_barco.mp3,2020-06-05_12h52.18.242,TranslationElicitation_eng-prolific,3.2.4,Win32,60,5e9629228a7eb70aaf79c1aa,5.332000017,1,0,98,1,1,97
,,,,,,,,,,,,,,,,,,,,,,,,,,,,,,,,,,,,,,,,,,,,,,,,,,,3,barco,Spanish,Sounds/spa_barco.mp3,2020-06-05_12h52.18.242,TranslationElicitation_eng-prolific,3.2.4,Win32,60,5e9629228a7eb70aaf79c1aa,,1,0,98,1,1,97
,,,,,,,,,,,,,,,,,,,,,,,,,,,,,,,,,,,,,,,,,c,2.605999947,C,FALSE,,,,,,,16,caja,Spanish,Sounds/spa_caja.mp3,2020-06-05_12h52.18.242,TranslationElicitation_eng-prolific,3.2.4,Win32,60,5e9629228a7eb70aaf79c1aa,,1,0,98,14,1,97
,,,,,,,,,,,,,,,,,,,,,,,,,,,,,,,,,,,,,,,,,a,2.707999945,CA,FALSE,,,,,,,16,caja,Spanish,Sounds/spa_caja.mp3,2020-06-05_12h52.18.242,TranslationElicitation_eng-prolific,3.2.4,Win32,60,5e9629228a7eb70aaf79c1aa,,1,0,98,14,1,97
,,,,,,,,,,,,,,,,,,,,,,,,,,,,,,,,,,,,,,,,,r,3.042000055,CAR,FALSE,,,,,,,16,caja,Spanish,Sounds/spa_caja.mp3,2020-06-05_12h52.18.242,TranslationElicitation_eng-prolific,3.2.4,Win32,60,5e9629228a7eb70aaf79c1aa,,1,0,98,14,1,97
,,,,,,,,,,,,,,,,,,,,,,,,,,,,,,,,,,,,,,,,,return,4.582999945,CAR,FALSE,,,,,,,16,caja,Spanish,Sounds/spa_caja.mp3,2020-06-05_12h52.18.242,TranslationElicitation_eng-prolific,3.2.4,Win32,60,5e9629228a7eb70aaf79c1aa,4.582999945,1,0,98,14,1,97
,,,,,,,,,,,,,,,,,,,,,,,,,,,,,,,,,,,,,,,,,,,,,,,,,,,16,caja,Spanish,Sounds/spa_caja.mp3,2020-06-05_12h52.18.242,TranslationElicitation_eng-prolific,3.2.4,Win32,60,5e9629228a7eb70aaf79c1aa,,1,0,98,14,1,97
,,,,,,,,,,,,,,,,,,,,,,,,,,,,,,,,,,,,,,,,,m,6.416000128,M,FALSE,,,,,,,60,manzana,Spanish,Sounds/spa_manzana.mp3,2020-06-05_12h52.18.242,TranslationElicitation_eng-prolific,3.2.4,Win32,60,5e9629228a7eb70aaf79c1aa,,1,0,98,56,1,97
,,,,,,,,,,,,,,,,,,,,,,,,,,,,,,,,,,,,,,,,,a,6.521000147,MA,FALSE,,,,,,,60,manzana,Spanish,Sounds/spa_manzana.mp3,2020-06-05_12h52.18.242,TranslationElicitation_eng-prolific,3.2.4,Win32,60,5e9629228a7eb70aaf79c1aa,,1,0,98,56,1,97
,,,,,,,,,,,,,,,,,,,,,,,,,,,,,,,,,,,,,,,,,n,6.687000036,MAN,FALSE,,,,,,,60,manzana,Spanish,Sounds/spa_manzana.mp3,2020-06-05_12h52.18.242,TranslationElicitation_eng-prolific,3.2.4,Win32,60,5e9629228a7eb70aaf79c1aa,,1,0,98,56,1,97
,,,,,,,,,,,,,,,,,,,,,,,,,,,,,,,,,,,,,,,,,return,7.291000128,MAN,FALSE,,,,,,,60,manzana,Spanish,Sounds/spa_manzana.mp3,2020-06-05_12h52.18.242,TranslationElicitation_eng-prolific,3.2.4,Win32,60,5e9629228a7eb70aaf79c1aa,7.291000128,1,0,98,56,1,97
,,,,,,,,,,,,,,,,,,,,,,,,,,,,,,,,,,,,,,,,,,,,,,,,,,,60,manzana,Spanish,Sounds/spa_manzana.mp3,2020-06-05_12h52.18.242,TranslationElicitation_eng-prolific,3.2.4,Win32,60,5e9629228a7eb70aaf79c1aa,,1,0,98,56,1,97
,,,,,,,,,,,,,,,,,,,,,,,,,,,,,,,,,,,,,,,,,t,1.998999834,T,FALSE,,,,,,,94,tambor,Spanish,Sounds/spa_tambor.mp3,2020-06-05_12h52.18.242,TranslationElicitation_eng-prolific,3.2.4,Win32,60,5e9629228a7eb70aaf79c1aa,,1,0,98,89,1,97
,,,,,,,,,,,,,,,,,,,,,,,,,,,,,,,,,,,,,,,,,a,2.269999981,TA,FALSE,,,,,,,94,tambor,Spanish,Sounds/spa_tambor.mp3,2020-06-05_12h52.18.242,TranslationElicitation_eng-prolific,3.2.4,Win32,60,5e9629228a7eb70aaf79c1aa,,1,0,98,89,1,97
,,,,,,,,,,,,,,,,,,,,,,,,,,,,,,,,,,,,,,,,,m,2.478999853,TAM,FALSE,,,,,,,94,tambor,Spanish,Sounds/spa_tambor.mp3,2020-06-05_12h52.18.242,TranslationElicitation_eng-prolific,3.2.4,Win32,60,5e9629228a7eb70aaf79c1aa,,1,0,98,89,1,97
,,,,,,,,,,,,,,,,,,,,,,,,,,,,,,,,,,,,,,,,,b,2.644999981,TAMB,FALSE,,,,,,,94,tambor,Spanish,Sounds/spa_tambor.mp3,2020-06-05_12h52.18.242,TranslationElicitation_eng-prolific,3.2.4,Win32,60,5e9629228a7eb70aaf79c1aa,,1,0,98,89,1,97
,,,,,,,,,,,,,,,,,,,,,,,,,,,,,,,,,,,,,,,,,o,2.790999889,TAMBO,FALSE,,,,,,,94,tambor,Spanish,Sounds/spa_tambor.mp3,2020-06-05_12h52.18.242,TranslationElicitation_eng-prolific,3.2.4,Win32,60,5e9629228a7eb70aaf79c1aa,,1,0,98,89,1,97
,,,,,,,,,,,,,,,,,,,,,,,,,,,,,,,,,,,,,,,,,r,2.915999889,TAMBOR,FALSE,,,,,,,94,tambor,Spanish,Sounds/spa_tambor.mp3,2020-06-05_12h52.18.242,TranslationElicitation_eng-prolific,3.2.4,Win32,60,5e9629228a7eb70aaf79c1aa,,1,0,98,89,1,97
,,,,,,,,,,,,,,,,,,,,,,,,,,,,,,,,,,,,,,,,,i,3.040999889,TAMBORI,FALSE,,,,,,,94,tambor,Spanish,Sounds/spa_tambor.mp3,2020-06-05_12h52.18.242,TranslationElicitation_eng-prolific,3.2.4,Win32,60,5e9629228a7eb70aaf79c1aa,,1,0,98,89,1,97
,,,,,,,,,,,,,,,,,,,,,,,,,,,,,,,,,,,,,,,,,n,3.227999926,TAMBORIN,FALSE,,,,,,,94,tambor,Spanish,Sounds/spa_tambor.mp3,2020-06-05_12h52.18.242,TranslationElicitation_eng-prolific,3.2.4,Win32,60,5e9629228a7eb70aaf79c1aa,,1,0,98,89,1,97
,,,,,,,,,,,,,,,,,,,,,,,,,,,,,,,,,,,,,,,,,e,3.353999853,TAMBORINE,FALSE,,,,,,,94,tambor,Spanish,Sounds/spa_tambor.mp3,2020-06-05_12h52.18.242,TranslationElicitation_eng-prolific,3.2.4,Win32,60,5e9629228a7eb70aaf79c1aa,,1,0,98,89,1,97
,,,,,,,,,,,,,,,,,,,,,,,,,,,,,,,,,,,,,,,,,return,4.562999964,TAMBORINE,FALSE,,,,,,,94,tambor,Spanish,Sounds/spa_tambor.mp3,2020-06-05_12h52.18.242,TranslationElicitation_eng-prolific,3.2.4,Win32,60,5e9629228a7eb70aaf79c1aa,4.562999964,1,0,98,89,1,97
,,,,,,,,,,,,,,,,,,,,,,,,,,,,,,,,,,,,,,,,,,,,,,,,,,,94,tambor,Spanish,Sounds/spa_tambor.mp3,2020-06-05_12h52.18.242,TranslationElicitation_eng-prolific,3.2.4,Win32,60,5e9629228a7eb70aaf79c1aa,,1,0,98,89,1,97
,,,,,,,,,,,,,,,,,,,,,,,,,,,,,,,,,,,,,,,,,m,2.583000183,M,FALSE,,,,,,,65,mono,Spanish,Sounds/spa_mono.mp3,2020-06-05_12h52.18.242,TranslationElicitation_eng-prolific,3.2.4,Win32,60,5e9629228a7eb70aaf79c1aa,,1,0,98,61,1,97
,,,,,,,,,,,,,,,,,,,,,,,,,,,,,,,,,,,,,,,,,o,2.687000036,MO,FALSE,,,,,,,65,mono,Spanish,Sounds/spa_mono.mp3,2020-06-05_12h52.18.242,TranslationElicitation_eng-prolific,3.2.4,Win32,60,5e9629228a7eb70aaf79c1aa,,1,0,98,61,1,97
,,,,,,,,,,,,,,,,,,,,,,,,,,,,,,,,,,,,,,,,,n,2.895000219,MON,FALSE,,,,,,,65,mono,Spanish,Sounds/spa_mono.mp3,2020-06-05_12h52.18.242,TranslationElicitation_eng-prolific,3.2.4,Win32,60,5e9629228a7eb70aaf79c1aa,,1,0,98,61,1,97
,,,,,,,,,,,,,,,,,,,,,,,,,,,,,,,,,,,,,,,,,e,3.042000055,MONE,FALSE,,,,,,,65,mono,Spanish,Sounds/spa_mono.mp3,2020-06-05_12h52.18.242,TranslationElicitation_eng-prolific,3.2.4,Win32,60,5e9629228a7eb70aaf79c1aa,,1,0,98,61,1,97
,,,,,,,,,,,,,,,,,,,,,,,,,,,,,,,,,,,,,,,,,y,3.187000036,MONEY,FALSE,,,,,,,65,mono,Spanish,Sounds/spa_mono.mp3,2020-06-05_12h52.18.242,TranslationElicitation_eng-prolific,3.2.4,Win32,60,5e9629228a7eb70aaf79c1aa,,1,0,98,61,1,97
,,,,,,,,,,,,,,,,,,,,,,,,,,,,,,,,,,,,,,,,,return,4.168000221,MONEY,FALSE,,,,,,,65,mono,Spanish,Sounds/spa_mono.mp3,2020-06-05_12h52.18.242,TranslationElicitation_eng-prolific,3.2.4,Win32,60,5e9629228a7eb70aaf79c1aa,4.168000221,1,0,98,61,1,97
,,,,,,,,,,,,,,,,,,,,,,,,,,,,,,,,,,,,,,,,,,,,,,,,,,,65,mono,Spanish,Sounds/spa_mono.mp3,2020-06-05_12h52.18.242,TranslationElicitation_eng-prolific,3.2.4,Win32,60,5e9629228a7eb70aaf79c1aa,,1,0,98,61,1,97
,,,,,,,,,,,,,,,,,,,,,,,,,,,,,,,,,,,,,,,,,m,2.539999962,M,FALSE,,,,,,,64,moneda,Spanish,Sounds/spa_moneda.mp3,2020-06-05_12h52.18.242,TranslationElicitation_eng-prolific,3.2.4,Win32,60,5e9629228a7eb70aaf79c1aa,,1,0,98,60,1,97
,,,,,,,,,,,,,,,,,,,,,,,,,,,,,,,,,,,,,,,,,o,2.686000109,MO,FALSE,,,,,,,64,moneda,Spanish,Sounds/spa_moneda.mp3,2020-06-05_12h52.18.242,TranslationElicitation_eng-prolific,3.2.4,Win32,60,5e9629228a7eb70aaf79c1aa,,1,0,98,60,1,97
,,,,,,,,,,,,,,,,,,,,,,,,,,,,,,,,,,,,,,,,,n,2.894999981,MON,FALSE,,,,,,,64,moneda,Spanish,Sounds/spa_moneda.mp3,2020-06-05_12h52.18.242,TranslationElicitation_eng-prolific,3.2.4,Win32,60,5e9629228a7eb70aaf79c1aa,,1,0,98,60,1,97
,,,,,,,,,,,,,,,,,,,,,,,,,,,,,,,,,,,,,,,,,e,2.999000072,MONE,FALSE,,,,,,,64,moneda,Spanish,Sounds/spa_moneda.mp3,2020-06-05_12h52.18.242,TranslationElicitation_eng-prolific,3.2.4,Win32,60,5e9629228a7eb70aaf79c1aa,,1,0,98,60,1,97
,,,,,,,,,,,,,,,,,,,,,,,,,,,,,,,,,,,,,,,,,y,3.144999981,MONEY,FALSE,,,,,,,64,moneda,Spanish,Sounds/spa_moneda.mp3,2020-06-05_12h52.18.242,TranslationElicitation_eng-prolific,3.2.4,Win32,60,5e9629228a7eb70aaf79c1aa,,1,0,98,60,1,97
,,,,,,,,,,,,,,,,,,,,,,,,,,,,,,,,,,,,,,,,,return,4.332000017,MONEY,FALSE,,,,,,,64,moneda,Spanish,Sounds/spa_moneda.mp3,2020-06-05_12h52.18.242,TranslationElicitation_eng-prolific,3.2.4,Win32,60,5e9629228a7eb70aaf79c1aa,4.332000017,1,0,98,60,1,97
,,,,,,,,,,,,,,,,,,,,,,,,,,,,,,,,,,,,,,,,,,,,,,,,,,,64,moneda,Spanish,Sounds/spa_moneda.mp3,2020-06-05_12h52.18.242,TranslationElicitation_eng-prolific,3.2.4,Win32,60,5e9629228a7eb70aaf79c1aa,,1,0,98,60,1,97
,,,,,,,,,,,,,,,,,,,,,,,,,,,,,,,,,,,,,,,,,b,3.727999926,B,FALSE,,,,,,,7,bocadillo,Spanish,Sounds/spa_bocadillo.mp3,2020-06-05_12h52.18.242,TranslationElicitation_eng-prolific,3.2.4,Win32,60,5e9629228a7eb70aaf79c1aa,,1,0,98,5,1,97
,,,,,,,,,,,,,,,,,,,,,,,,,,,,,,,,,,,,,,,,,u,3.832999945,BU,FALSE,,,,,,,7,bocadillo,Spanish,Sounds/spa_bocadillo.mp3,2020-06-05_12h52.18.242,TranslationElicitation_eng-prolific,3.2.4,Win32,60,5e9629228a7eb70aaf79c1aa,,1,0,98,5,1,97
,,,,,,,,,,,,,,,,,,,,,,,,,,,,,,,,,,,,,,,,,r,3.937000036,BUR,FALSE,,,,,,,7,bocadillo,Spanish,Sounds/spa_bocadillo.mp3,2020-06-05_12h52.18.242,TranslationElicitation_eng-prolific,3.2.4,Win32,60,5e9629228a7eb70aaf79c1aa,,1,0,98,5,1,97
,,,,,,,,,,,,,,,,,,,,,,,,,,,,,,,,,,,,,,,,,g,4.082999945,BURG,FALSE,,,,,,,7,bocadillo,Spanish,Sounds/spa_bocadillo.mp3,2020-06-05_12h52.18.242,TranslationElicitation_eng-prolific,3.2.4,Win32,60,5e9629228a7eb70aaf79c1aa,,1,0,98,5,1,97
,,,,,,,,,,,,,,,,,,,,,,,,,,,,,,,,,,,,,,,,,e,4.166000128,BURGE,FALSE,,,,,,,7,bocadillo,Spanish,Sounds/spa_bocadillo.mp3,2020-06-05_12h52.18.242,TranslationElicitation_eng-prolific,3.2.4,Win32,60,5e9629228a7eb70aaf79c1aa,,1,0,98,5,1,97
,,,,,,,,,,,,,,,,,,,,,,,,,,,,,,,,,,,,,,,,,r,4.312000036,BURGER,FALSE,,,,,,,7,bocadillo,Spanish,Sounds/spa_bocadillo.mp3,2020-06-05_12h52.18.242,TranslationElicitation_eng-prolific,3.2.4,Win32,60,5e9629228a7eb70aaf79c1aa,,1,0,98,5,1,97
,,,,,,,,,,,,,,,,,,,,,,,,,,,,,,,,,,,,,,,,,return,5.227999926,BURGER,FALSE,,,,,,,7,bocadillo,Spanish,Sounds/spa_bocadillo.mp3,2020-06-05_12h52.18.242,TranslationElicitation_eng-prolific,3.2.4,Win32,60,5e9629228a7eb70aaf79c1aa,5.227999926,1,0,98,5,1,97
,,,,,,,,,,,,,,,,,,,,,,,,,,,,,,,,,,,,,,,,,,,,,,,,,,,7,bocadillo,Spanish,Sounds/spa_bocadillo.mp3,2020-06-05_12h52.18.242,TranslationElicitation_eng-prolific,3.2.4,Win32,60,5e9629228a7eb70aaf79c1aa,,1,0,98,5,1,97
,,,,,,,,,,,,,,,,,,,,,,,,,,,,,,,,,,,,,,,,,s,2.021000147,S,FALSE,,,,,,,92,sandwich,Spanish,Sounds/spa_sandwich.mp3,2020-06-05_12h52.18.242,TranslationElicitation_eng-prolific,3.2.4,Win32,60,5e9629228a7eb70aaf79c1aa,,1,0,98,87,1,97
,,,,,,,,,,,,,,,,,,,,,,,,,,,,,,,,,,,,,,,,,a,2.104000092,SA,FALSE,,,,,,,92,sandwich,Spanish,Sounds/spa_sandwich.mp3,2020-06-05_12h52.18.242,TranslationElicitation_eng-prolific,3.2.4,Win32,60,5e9629228a7eb70aaf79c1aa,,1,0,98,87,1,97
,,,,,,,,,,,,,,,,,,,,,,,,,,,,,,,,,,,,,,,,,n,2.333000183,SAN,FALSE,,,,,,,92,sandwich,Spanish,Sounds/spa_sandwich.mp3,2020-06-05_12h52.18.242,TranslationElicitation_eng-prolific,3.2.4,Win32,60,5e9629228a7eb70aaf79c1aa,,1,0,98,87,1,97
,,,,,,,,,,,,,,,,,,,,,,,,,,,,,,,,,,,,,,,,,d,2.458000183,SAND,FALSE,,,,,,,92,sandwich,Spanish,Sounds/spa_sandwich.mp3,2020-06-05_12h52.18.242,TranslationElicitation_eng-prolific,3.2.4,Win32,60,5e9629228a7eb70aaf79c1aa,,1,0,98,87,1,97
,,,,,,,,,,,,,,,,,,,,,,,,,,,,,,,,,,,,,,,,,w,2.646000147,SANDW,FALSE,,,,,,,92,sandwich,Spanish,Sounds/spa_sandwich.mp3,2020-06-05_12h52.18.242,TranslationElicitation_eng-prolific,3.2.4,Win32,60,5e9629228a7eb70aaf79c1aa,,1,0,98,87,1,97
,,,,,,,,,,,,,,,,,,,,,,,,,,,,,,,,,,,,,,,,,i,2.833000183,SANDWI,FALSE,,,,,,,92,sandwich,Spanish,Sounds/spa_sandwich.mp3,2020-06-05_12h52.18.242,TranslationElicitation_eng-prolific,3.2.4,Win32,60,5e9629228a7eb70aaf79c1aa,,1,0,98,87,1,97
,,,,,,,,,,,,,,,,,,,,,,,,,,,,,,,,,,,,,,,,,c,3.188000202,SANDWIC,FALSE,,,,,,,92,sandwich,Spanish,Sounds/spa_sandwich.mp3,2020-06-05_12h52.18.242,TranslationElicitation_eng-prolific,3.2.4,Win32,60,5e9629228a7eb70aaf79c1aa,,1,0,98,87,1,97
,,,,,,,,,,,,,,,,,,,,,,,,,,,,,,,,,,,,,,,,,h,3.666000128,SANDWICH,FALSE,,,,,,,92,sandwich,Spanish,Sounds/spa_sandwich.mp3,2020-06-05_12h52.18.242,TranslationElicitation_eng-prolific,3.2.4,Win32,60,5e9629228a7eb70aaf79c1aa,,1,0,98,87,1,97
,,,,,,,,,,,,,,,,,,,,,,,,,,,,,,,,,,,,,,,,,return,5.021000147,SANDWICH,FALSE,,,,,,,92,sandwich,Spanish,Sounds/spa_sandwich.mp3,2020-06-05_12h52.18.242,TranslationElicitation_eng-prolific,3.2.4,Win32,60,5e9629228a7eb70aaf79c1aa,5.021000147,1,0,98,87,1,97
,,,,,,,,,,,,,,,,,,,,,,,,,,,,,,,,,,,,,,,,,,,,,,,,,,,92,sandwich,Spanish,Sounds/spa_sandwich.mp3,2020-06-05_12h52.18.242,TranslationElicitation_eng-prolific,3.2.4,Win32,60,5e9629228a7eb70aaf79c1aa,,1,0,98,87,1,97
,,,,,,,,,,,,,,,,,,,,,,,,,,,,,,,,,,,,,,,,,b,7.164999962,B,FALSE,,,,,,,12,brazo,Spanish,Sounds/spa_brazo.mp3,2020-06-05_12h52.18.242,TranslationElicitation_eng-prolific,3.2.4,Win32,60,5e9629228a7eb70aaf79c1aa,,1,0,98,10,1,97
,,,,,,,,,,,,,,,,,,,,,,,,,,,,,,,,,,,,,,,,,r,7.289999962,BR,FALSE,,,,,,,12,brazo,Spanish,Sounds/spa_brazo.mp3,2020-06-05_12h52.18.242,TranslationElicitation_eng-prolific,3.2.4,Win32,60,5e9629228a7eb70aaf79c1aa,,1,0,98,10,1,97
,,,,,,,,,,,,,,,,,,,,,,,,,,,,,,,,,,,,,,,,,e,7.457000017,BRE,FALSE,,,,,,,12,brazo,Spanish,Sounds/spa_brazo.mp3,2020-06-05_12h52.18.242,TranslationElicitation_eng-prolific,3.2.4,Win32,60,5e9629228a7eb70aaf79c1aa,,1,0,98,10,1,97
,,,,,,,,,,,,,,,,,,,,,,,,,,,,,,,,,,,,,,,,,a,7.624000072,BREA,FALSE,,,,,,,12,brazo,Spanish,Sounds/spa_brazo.mp3,2020-06-05_12h52.18.242,TranslationElicitation_eng-prolific,3.2.4,Win32,60,5e9629228a7eb70aaf79c1aa,,1,0,98,10,1,97
,,,,,,,,,,,,,,,,,,,,,,,,,,,,,,,,,,,,,,,,,d,7.852999926,BREAD,FALSE,,,,,,,12,brazo,Spanish,Sounds/spa_brazo.mp3,2020-06-05_12h52.18.242,TranslationElicitation_eng-prolific,3.2.4,Win32,60,5e9629228a7eb70aaf79c1aa,,1,0,98,10,1,97
,,,,,,,,,,,,,,,,,,,,,,,,,,,,,,,,,,,,,,,,,return,8.31099987,BREAD,FALSE,,,,,,,12,brazo,Spanish,Sounds/spa_brazo.mp3,2020-06-05_12h52.18.242,TranslationElicitation_eng-prolific,3.2.4,Win32,60,5e9629228a7eb70aaf79c1aa,8.31099987,1,0,98,10,1,97
,,,,,,,,,,,,,,,,,,,,,,,,,,,,,,,,,,,,,,,,,,,,,,,,,,,12,brazo,Spanish,Sounds/spa_brazo.mp3,2020-06-05_12h52.18.242,TranslationElicitation_eng-prolific,3.2.4,Win32,60,5e9629228a7eb70aaf79c1aa,,1,0,98,10,1,97
,,,,,,,,,,,,,,,,,,,,,,,,,,,,,,,,,,,,,,,,,s,9.2900002,S,FALSE,,,,,,,35,esponja,Spanish,Sounds/spa_esponja.mp3,2020-06-05_12h52.18.242,TranslationElicitation_eng-prolific,3.2.4,Win32,60,5e9629228a7eb70aaf79c1aa,,1,0,98,31,1,97
,,,,,,,,,,,,,,,,,,,,,,,,,,,,,,,,,,,,,,,,,w,9.499000072,SW,FALSE,,,,,,,35,esponja,Spanish,Sounds/spa_esponja.mp3,2020-06-05_12h52.18.242,TranslationElicitation_eng-prolific,3.2.4,Win32,60,5e9629228a7eb70aaf79c1aa,,1,0,98,31,1,97
,,,,,,,,,,,,,,,,,,,,,,,,,,,,,,,,,,,,,,,,,e,9.686000109,SWE,FALSE,,,,,,,35,esponja,Spanish,Sounds/spa_esponja.mp3,2020-06-05_12h52.18.242,TranslationElicitation_eng-prolific,3.2.4,Win32,60,5e9629228a7eb70aaf79c1aa,,1,0,98,31,1,97
,,,,,,,,,,,,,,,,,,,,,,,,,,,,,,,,,,,,,,,,,e,10.22800016,SWEE,FALSE,,,,,,,35,esponja,Spanish,Sounds/spa_esponja.mp3,2020-06-05_12h52.18.242,TranslationElicitation_eng-prolific,3.2.4,Win32,60,5e9629228a7eb70aaf79c1aa,,1,0,98,31,1,97
,,,,,,,,,,,,,,,,,,,,,,,,,,,,,,,,,,,,,,,,,t,10.43600011,SWEET,FALSE,,,,,,,35,esponja,Spanish,Sounds/spa_esponja.mp3,2020-06-05_12h52.18.242,TranslationElicitation_eng-prolific,3.2.4,Win32,60,5e9629228a7eb70aaf79c1aa,,1,0,98,31,1,97
,,,,,,,,,,,,,,,,,,,,,,,,,,,,,,,,,,,,,,,,,s,10.68600011,SWEETS,FALSE,,,,,,,35,esponja,Spanish,Sounds/spa_esponja.mp3,2020-06-05_12h52.18.242,TranslationElicitation_eng-prolific,3.2.4,Win32,60,5e9629228a7eb70aaf79c1aa,,1,0,98,31,1,97
,,,,,,,,,,,,,,,,,,,,,,,,,,,,,,,,,,,,,,,,,return,11.08200002,SWEETS,FALSE,,,,,,,35,esponja,Spanish,Sounds/spa_esponja.mp3,2020-06-05_12h52.18.242,TranslationElicitation_eng-prolific,3.2.4,Win32,60,5e9629228a7eb70aaf79c1aa,11.08200002,1,0,98,31,1,97
,,,,,,,,,,,,,,,,,,,,,,,,,,,,,,,,,,,,,,,,,,,,,,,,,,,35,esponja,Spanish,Sounds/spa_esponja.mp3,2020-06-05_12h52.18.242,TranslationElicitation_eng-prolific,3.2.4,Win32,60,5e9629228a7eb70aaf79c1aa,,1,0,98,31,1,97
,,,,,,,,,,,,,,,,,,,,,,,,,,,,,,,,,,,,,,,,,b,8.330999851,B,FALSE,,,,,,,22,cepillo,Spanish,Sounds/spa_cepillo.mp3,2020-06-05_12h52.18.242,TranslationElicitation_eng-prolific,3.2.4,Win32,60,5e9629228a7eb70aaf79c1aa,,1,0,98,20,1,97
,,,,,,,,,,,,,,,,,,,,,,,,,,,,,,,,,,,,,,,,,i,8.455999851,BI,FALSE,,,,,,,22,cepillo,Spanish,Sounds/spa_cepillo.mp3,2020-06-05_12h52.18.242,TranslationElicitation_eng-prolific,3.2.4,Win32,60,5e9629228a7eb70aaf79c1aa,,1,0,98,20,1,97
,,,,,,,,,,,,,,,,,,,,,,,,,,,,,,,,,,,,,,,,,c,8.539999962,BIC,FALSE,,,,,,,22,cepillo,Spanish,Sounds/spa_cepillo.mp3,2020-06-05_12h52.18.242,TranslationElicitation_eng-prolific,3.2.4,Win32,60,5e9629228a7eb70aaf79c1aa,,1,0,98,20,1,97
,,,,,,,,,,,,,,,,,,,,,,,,,,,,,,,,,,,,,,,,,y,9.455999851,BICY,FALSE,,,,,,,22,cepillo,Spanish,Sounds/spa_cepillo.mp3,2020-06-05_12h52.18.242,TranslationElicitation_eng-prolific,3.2.4,Win32,60,5e9629228a7eb70aaf79c1aa,,1,0,98,20,1,97
,,,,,,,,,,,,,,,,,,,,,,,,,,,,,,,,,,,,,,,,,c,9.559999943,BICYC,FALSE,,,,,,,22,cepillo,Spanish,Sounds/spa_cepillo.mp3,2020-06-05_12h52.18.242,TranslationElicitation_eng-prolific,3.2.4,Win32,60,5e9629228a7eb70aaf79c1aa,,1,0,98,20,1,97
,,,,,,,,,,,,,,,,,,,,,,,,,,,,,,,,,,,,,,,,,l,9.753000021,BICYCL,FALSE,,,,,,,22,cepillo,Spanish,Sounds/spa_cepillo.mp3,2020-06-05_12h52.18.242,TranslationElicitation_eng-prolific,3.2.4,Win32,60,5e9629228a7eb70aaf79c1aa,,1,0,98,20,1,97
,,,,,,,,,,,,,,,,,,,,,,,,,,,,,,,,,,,,,,,,,e,9.892999887,BICYCLE,FALSE,,,,,,,22,cepillo,Spanish,Sounds/spa_cepillo.mp3,2020-06-05_12h52.18.242,TranslationElicitation_eng-prolific,3.2.4,Win32,60,5e9629228a7eb70aaf79c1aa,,1,0,98,20,1,97
,,,,,,,,,,,,,,,,,,,,,,,,,,,,,,,,,,,,,,,,,return,10.37199998,BICYCLE,FALSE,,,,,,,22,cepillo,Spanish,Sounds/spa_cepillo.mp3,2020-06-05_12h52.18.242,TranslationElicitation_eng-prolific,3.2.4,Win32,60,5e9629228a7eb70aaf79c1aa,10.37199998,1,0,98,20,1,97
,,,,,,,,,,,,,,,,,,,,,,,,,,,,,,,,,,,,,,,,,,,,,,,,,,,22,cepillo,Spanish,Sounds/spa_cepillo.mp3,2020-06-05_12h52.18.242,TranslationElicitation_eng-prolific,3.2.4,Win32,60,5e9629228a7eb70aaf79c1aa,,1,0,98,20,1,97
,,,,,,,,,,,,,,,,,,,,,,,,,,,,,,,,,,,,,,,,,c,9.311000109,C,FALSE,,,,,,,28,cielo,Spanish,Sounds/spa_cielo.mp3,2020-06-05_12h52.18.242,TranslationElicitation_eng-prolific,3.2.4,Win32,60,5e9629228a7eb70aaf79c1aa,,1,0,98,25,1,97
,,,,,,,,,,,,,,,,,,,,,,,,,,,,,,,,,,,,,,,,,e,9.499000072,CE,FALSE,,,,,,,28,cielo,Spanish,Sounds/spa_cielo.mp3,2020-06-05_12h52.18.242,TranslationElicitation_eng-prolific,3.2.4,Win32,60,5e9629228a7eb70aaf79c1aa,,1,0,98,25,1,97
,,,,,,,,,,,,,,,,,,,,,,,,,,,,,,,,,,,,,,,,,l,9.624000072,CEL,FALSE,,,,,,,28,cielo,Spanish,Sounds/spa_cielo.mp3,2020-06-05_12h52.18.242,TranslationElicitation_eng-prolific,3.2.4,Win32,60,5e9629228a7eb70aaf79c1aa,,1,0,98,25,1,97
,,,,,,,,,,,,,,,,,,,,,,,,,,,,,,,,,,,,,,,,,l,9.75,CELL,FALSE,,,,,,,28,cielo,Spanish,Sounds/spa_cielo.mp3,2020-06-05_12h52.18.242,TranslationElicitation_eng-prolific,3.2.4,Win32,60,5e9629228a7eb70aaf79c1aa,,1,0,98,25,1,97
,,,,,,,,,,,,,,,,,,,,,,,,,,,,,,,,,,,,,,,,,o,9.894999981,CELLO,FALSE,,,,,,,28,cielo,Spanish,Sounds/spa_cielo.mp3,2020-06-05_12h52.18.242,TranslationElicitation_eng-prolific,3.2.4,Win32,60,5e9629228a7eb70aaf79c1aa,,1,0,98,25,1,97
,,,,,,,,,,,,,,,,,,,,,,,,,,,,,,,,,,,,,,,,,return,10.22799993,CELLO,FALSE,,,,,,,28,cielo,Spanish,Sounds/spa_cielo.mp3,2020-06-05_12h52.18.242,TranslationElicitation_eng-prolific,3.2.4,Win32,60,5e9629228a7eb70aaf79c1aa,10.22799993,1,0,98,25,1,97
,,,,,,,,,,,,,,,,,,,,,,,,,,,,,,,,,,,,,,,,,,,,,,,,,,,28,cielo,Spanish,Sounds/spa_cielo.mp3,2020-06-05_12h52.18.242,TranslationElicitation_eng-prolific,3.2.4,Win32,60,5e9629228a7eb70aaf79c1aa,,1,0,98,25,1,97
,,,,,,,,,,,,,,,,,,,,,,,,,,,,,,,,,,,,,,,,,s,4.291000128,S,FALSE,,,,,,,103,zanahoria,Spanish,Sounds/spa_zanahoria.mp3,2020-06-05_12h52.18.242,TranslationElicitation_eng-prolific,3.2.4,Win32,60,5e9629228a7eb70aaf79c1aa,,1,0,98,97,1,97
,,,,,,,,,,,,,,,,,,,,,,,,,,,,,,,,,,,,,,,,,u,4.582000017,SU,FALSE,,,,,,,103,zanahoria,Spanish,Sounds/spa_zanahoria.mp3,2020-06-05_12h52.18.242,TranslationElicitation_eng-prolific,3.2.4,Win32,60,5e9629228a7eb70aaf79c1aa,,1,0,98,97,1,97
,,,,,,,,,,,,,,,,,,,,,,,,,,,,,,,,,,,,,,,,,n,5.019999981,SUN,FALSE,,,,,,,103,zanahoria,Spanish,Sounds/spa_zanahoria.mp3,2020-06-05_12h52.18.242,TranslationElicitation_eng-prolific,3.2.4,Win32,60,5e9629228a7eb70aaf79c1aa,,1,0,98,97,1,97
,,,,,,,,,,,,,,,,,,,,,,,,,,,,,,,,,,,,,,,,,h,5.499000072,SUNH,FALSE,,,,,,,103,zanahoria,Spanish,Sounds/spa_zanahoria.mp3,2020-06-05_12h52.18.242,TranslationElicitation_eng-prolific,3.2.4,Win32,60,5e9629228a7eb70aaf79c1aa,,1,0,98,97,1,97
,,,,,,,,,,,,,,,,,,,,,,,,,,,,,,,,,,,,,,,,,i,5.644999981,SUNHI,FALSE,,,,,,,103,zanahoria,Spanish,Sounds/spa_zanahoria.mp3,2020-06-05_12h52.18.242,TranslationElicitation_eng-prolific,3.2.4,Win32,60,5e9629228a7eb70aaf79c1aa,,1,0,98,97,1,97
,,,,,,,,,,,,,,,,,,,,,,,,,,,,,,,,,,,,,,,,,n,5.894999981,SUNHIN,FALSE,,,,,,,103,zanahoria,Spanish,Sounds/spa_zanahoria.mp3,2020-06-05_12h52.18.242,TranslationElicitation_eng-prolific,3.2.4,Win32,60,5e9629228a7eb70aaf79c1aa,,1,0,98,97,1,97
,,,,,,,,,,,,,,,,,,,,,,,,,,,,,,,,,,,,,,,,,e,6.041000128,SUNHINE,FALSE,,,,,,,103,zanahoria,Spanish,Sounds/spa_zanahoria.mp3,2020-06-05_12h52.18.242,TranslationElicitation_eng-prolific,3.2.4,Win32,60,5e9629228a7eb70aaf79c1aa,,1,0,98,97,1,97
,,,,,,,,,,,,,,,,,,,,,,,,,,,,,,,,,,,,,,,,,backspace,6.478000164,SUNHIN,TRUE,,,,,,,103,zanahoria,Spanish,Sounds/spa_zanahoria.mp3,2020-06-05_12h52.18.242,TranslationElicitation_eng-prolific,3.2.4,Win32,60,5e9629228a7eb70aaf79c1aa,,1,0,98,97,1,97
,,,,,,,,,,,,,,,,,,,,,,,,,,,,,,,,,,,,,,,,,backspace,6.644999981,SUNHI,TRUE,,,,,,,103,zanahoria,Spanish,Sounds/spa_zanahoria.mp3,2020-06-05_12h52.18.242,TranslationElicitation_eng-prolific,3.2.4,Win32,60,5e9629228a7eb70aaf79c1aa,,1,0,98,97,1,97
,,,,,,,,,,,,,,,,,,,,,,,,,,,,,,,,,,,,,,,,,backspace,6.791000128,SUNH,TRUE,,,,,,,103,zanahoria,Spanish,Sounds/spa_zanahoria.mp3,2020-06-05_12h52.18.242,TranslationElicitation_eng-prolific,3.2.4,Win32,60,5e9629228a7eb70aaf79c1aa,,1,0,98,97,1,97
,,,,,,,,,,,,,,,,,,,,,,,,,,,,,,,,,,,,,,,,,backspace,6.936000109,SUN,TRUE,,,,,,,103,zanahoria,Spanish,Sounds/spa_zanahoria.mp3,2020-06-05_12h52.18.242,TranslationElicitation_eng-prolific,3.2.4,Win32,60,5e9629228a7eb70aaf79c1aa,,1,0,98,97,1,97
,,,,,,,,,,,,,,,,,,,,,,,,,,,,,,,,,,,,,,,,,s,7.333000183,SUNS,TRUE,,,,,,,103,zanahoria,Spanish,Sounds/spa_zanahoria.mp3,2020-06-05_12h52.18.242,TranslationElicitation_eng-prolific,3.2.4,Win32,60,5e9629228a7eb70aaf79c1aa,,1,0,98,97,1,97
,,,,,,,,,,,,,,,,,,,,,,,,,,,,,,,,,,,,,,,,,h,7.603000164,SUNSH,TRUE,,,,,,,103,zanahoria,Spanish,Sounds/spa_zanahoria.mp3,2020-06-05_12h52.18.242,TranslationElicitation_eng-prolific,3.2.4,Win32,60,5e9629228a7eb70aaf79c1aa,,1,0,98,97,1,97
,,,,,,,,,,,,,,,,,,,,,,,,,,,,,,,,,,,,,,,,,i,7.769999981,SUNSHI,TRUE,,,,,,,103,zanahoria,Spanish,Sounds/spa_zanahoria.mp3,2020-06-05_12h52.18.242,TranslationElicitation_eng-prolific,3.2.4,Win32,60,5e9629228a7eb70aaf79c1aa,,1,0,98,97,1,97
,,,,,,,,,,,,,,,,,,,,,,,,,,,,,,,,,,,,,,,,,n,7.936000109,SUNSHIN,TRUE,,,,,,,103,zanahoria,Spanish,Sounds/spa_zanahoria.mp3,2020-06-05_12h52.18.242,TranslationElicitation_eng-prolific,3.2.4,Win32,60,5e9629228a7eb70aaf79c1aa,,1,0,98,97,1,97
,,,,,,,,,,,,,,,,,,,,,,,,,,,,,,,,,,,,,,,,,e,8.061000109,SUNSHINE,TRUE,,,,,,,103,zanahoria,Spanish,Sounds/spa_zanahoria.mp3,2020-06-05_12h52.18.242,TranslationElicitation_eng-prolific,3.2.4,Win32,60,5e9629228a7eb70aaf79c1aa,,1,0,98,97,1,97
,,,,,,,,,,,,,,,,,,,,,,,,,,,,,,,,,,,,,,,,,return,8.687000036,SUNSHINE,TRUE,,,,,,,103,zanahoria,Spanish,Sounds/spa_zanahoria.mp3,2020-06-05_12h52.18.242,TranslationElicitation_eng-prolific,3.2.4,Win32,60,5e9629228a7eb70aaf79c1aa,8.687000036,1,0,98,97,1,97
,,,,,,,,,,,,,,,,,,,,,,,,,,,,,,,,,,,,,,,,,,,,,,,,,,,103,zanahoria,Spanish,Sounds/spa_zanahoria.mp3,2020-06-05_12h52.18.242,TranslationElicitation_eng-prolific,3.2.4,Win32,60,5e9629228a7eb70aaf79c1aa,,1,0,98,97,1,97
,,,,,,,,,,,,,,,,,,,,,,,,,,,,,,,,,,,,,,,,,b,2.187999964,B,FALSE,,,,,,,8,bol,Spanish,Sounds/spa_bol.mp3,2020-06-05_12h52.18.242,TranslationElicitation_eng-prolific,3.2.4,Win32,60,5e9629228a7eb70aaf79c1aa,,1,0,98,6,1,97
,,,,,,,,,,,,,,,,,,,,,,,,,,,,,,,,,,,,,,,,,a,2.289999962,BA,FALSE,,,,,,,8,bol,Spanish,Sounds/spa_bol.mp3,2020-06-05_12h52.18.242,TranslationElicitation_eng-prolific,3.2.4,Win32,60,5e9629228a7eb70aaf79c1aa,,1,0,98,6,1,97
,,,,,,,,,,,,,,,,,,,,,,,,,,,,,,,,,,,,,,,,,l,2.582000017,BAL,FALSE,,,,,,,8,bol,Spanish,Sounds/spa_bol.mp3,2020-06-05_12h52.18.242,TranslationElicitation_eng-prolific,3.2.4,Win32,60,5e9629228a7eb70aaf79c1aa,,1,0,98,6,1,97
,,,,,,,,,,,,,,,,,,,,,,,,,,,,,,,,,,,,,,,,,l,2.728000164,BALL,FALSE,,,,,,,8,bol,Spanish,Sounds/spa_bol.mp3,2020-06-05_12h52.18.242,TranslationElicitation_eng-prolific,3.2.4,Win32,60,5e9629228a7eb70aaf79c1aa,,1,0,98,6,1,97
,,,,,,,,,,,,,,,,,,,,,,,,,,,,,,,,,,,,,,,,,return,3.749000072,BALL,FALSE,,,,,,,8,bol,Spanish,Sounds/spa_bol.mp3,2020-06-05_12h52.18.242,TranslationElicitation_eng-prolific,3.2.4,Win32,60,5e9629228a7eb70aaf79c1aa,3.749000072,1,0,98,6,1,97
,,,,,,,,,,,,,,,,,,,,,,,,,,,,,,,,,,,,,,,,,,,,,,,,,,,8,bol,Spanish,Sounds/spa_bol.mp3,2020-06-05_12h52.18.242,TranslationElicitation_eng-prolific,3.2.4,Win32,60,5e9629228a7eb70aaf79c1aa,,1,0,98,6,1,97
,,,,,,,,,,,,,,,,,,,,,,,,,,,,,,,,,,,,,,,,,s,11.53799987,S,FALSE,,,,,,,67,muneca,Spanish,Sounds/spa_muneca.mp3,2020-06-05_12h52.18.242,TranslationElicitation_eng-prolific,3.2.4,Win32,60,5e9629228a7eb70aaf79c1aa,,1,0,98,63,1,97
,,,,,,,,,,,,,,,,,,,,,,,,,,,,,,,,,,,,,,,,,o,11.95499992,SO,FALSE,,,,,,,67,muneca,Spanish,Sounds/spa_muneca.mp3,2020-06-05_12h52.18.242,TranslationElicitation_eng-prolific,3.2.4,Win32,60,5e9629228a7eb70aaf79c1aa,,1,0,98,63,1,97
,,,,,,,,,,,,,,,,,,,,,,,,,,,,,,,,,,,,,,,,,p,12.079,SOP,FALSE,,,,,,,67,muneca,Spanish,Sounds/spa_muneca.mp3,2020-06-05_12h52.18.242,TranslationElicitation_eng-prolific,3.2.4,Win32,60,5e9629228a7eb70aaf79c1aa,,1,0,98,63,1,97
,,,,,,,,,,,,,,,,,,,,,,,,,,,,,,,,,,,,,,,,,s,12.2249999,SOPS,FALSE,,,,,,,67,muneca,Spanish,Sounds/spa_muneca.mp3,2020-06-05_12h52.18.242,TranslationElicitation_eng-prolific,3.2.4,Win32,60,5e9629228a7eb70aaf79c1aa,,1,0,98,63,1,97
,,,,,,,,,,,,,,,,,,,,,,,,,,,,,,,,,,,,,,,,,backspace,12.8499999,SOP,TRUE,,,,,,,67,muneca,Spanish,Sounds/spa_muneca.mp3,2020-06-05_12h52.18.242,TranslationElicitation_eng-prolific,3.2.4,Win32,60,5e9629228a7eb70aaf79c1aa,,1,0,98,63,1,97
,,,,,,,,,,,,,,,,,,,,,,,,,,,,,,,,,,,,,,,,,backspace,13.01699996,SO,TRUE,,,,,,,67,muneca,Spanish,Sounds/spa_muneca.mp3,2020-06-05_12h52.18.242,TranslationElicitation_eng-prolific,3.2.4,Win32,60,5e9629228a7eb70aaf79c1aa,,1,0,98,63,1,97
,,,,,,,,,,,,,,,,,,,,,,,,,,,,,,,,,,,,,,,,,backspace,13.16499996,S,TRUE,,,,,,,67,muneca,Spanish,Sounds/spa_muneca.mp3,2020-06-05_12h52.18.242,TranslationElicitation_eng-prolific,3.2.4,Win32,60,5e9629228a7eb70aaf79c1aa,,1,0,98,63,1,97
,,,,,,,,,,,,,,,,,,,,,,,,,,,,,,,,,,,,,,,,,h,13.5999999,SH,TRUE,,,,,,,67,muneca,Spanish,Sounds/spa_muneca.mp3,2020-06-05_12h52.18.242,TranslationElicitation_eng-prolific,3.2.4,Win32,60,5e9629228a7eb70aaf79c1aa,,1,0,98,63,1,97
,,,,,,,,,,,,,,,,,,,,,,,,,,,,,,,,,,,,,,,,,o,13.68599987,SHO,TRUE,,,,,,,67,muneca,Spanish,Sounds/spa_muneca.mp3,2020-06-05_12h52.18.242,TranslationElicitation_eng-prolific,3.2.4,Win32,60,5e9629228a7eb70aaf79c1aa,,1,0,98,63,1,97
,,,,,,,,,,,,,,,,,,,,,,,,,,,,,,,,,,,,,,,,,p,13.76699996,SHOP,TRUE,,,,,,,67,muneca,Spanish,Sounds/spa_muneca.mp3,2020-06-05_12h52.18.242,TranslationElicitation_eng-prolific,3.2.4,Win32,60,5e9629228a7eb70aaf79c1aa,,1,0,98,63,1,97
,,,,,,,,,,,,,,,,,,,,,,,,,,,,,,,,,,,,,,,,,s,13.93499994,SHOPS,TRUE,,,,,,,67,muneca,Spanish,Sounds/spa_muneca.mp3,2020-06-05_12h52.18.242,TranslationElicitation_eng-prolific,3.2.4,Win32,60,5e9629228a7eb70aaf79c1aa,,1,0,98,63,1,97
,,,,,,,,,,,,,,,,,,,,,,,,,,,,,,,,,,,,,,,,,return,14.37099981,SHOPS,TRUE,,,,,,,67,muneca,Spanish,Sounds/spa_muneca.mp3,2020-06-05_12h52.18.242,TranslationElicitation_eng-prolific,3.2.4,Win32,60,5e9629228a7eb70aaf79c1aa,14.37099981,1,0,98,63,1,97
,,,,,,,,,,,,,,,,,,,,,,,,,,,,,,,,,,,,,,,,,,,,,,,,,,,67,muneca,Spanish,Sounds/spa_muneca.mp3,2020-06-05_12h52.18.242,TranslationElicitation_eng-prolific,3.2.4,Win32,60,5e9629228a7eb70aaf79c1aa,,1,0,98,63,1,97
,,,,,,,,,,,,,,,,,,,,,,,,,,,,,,,,,,,,,,,,,l,2.371999979,L,FALSE,,,,,,,56,libro,Spanish,Sounds/spa_libro.mp3,2020-06-05_12h52.18.242,TranslationElicitation_eng-prolific,3.2.4,Win32,60,5e9629228a7eb70aaf79c1aa,,1,0,98,52,1,97
,,,,,,,,,,,,,,,,,,,,,,,,,,,,,,,,,,,,,,,,,backspace,3.832999945,,TRUE,,,,,,,56,libro,Spanish,Sounds/spa_libro.mp3,2020-06-05_12h52.18.242,TranslationElicitation_eng-prolific,3.2.4,Win32,60,5e9629228a7eb70aaf79c1aa,,1,0,98,52,1,97
,,,,,,,,,,,,,,,,,,,,,,,,,,,,,,,,,,,,,,,,,b,4.309999943,B,TRUE,,,,,,,56,libro,Spanish,Sounds/spa_libro.mp3,2020-06-05_12h52.18.242,TranslationElicitation_eng-prolific,3.2.4,Win32,60,5e9629228a7eb70aaf79c1aa,,1,0,98,52,1,97
,,,,,,,,,,,,,,,,,,,,,,,,,,,,,,,,,,,,,,,,,o,4.413000107,BO,TRUE,,,,,,,56,libro,Spanish,Sounds/spa_libro.mp3,2020-06-05_12h52.18.242,TranslationElicitation_eng-prolific,3.2.4,Win32,60,5e9629228a7eb70aaf79c1aa,,1,0,98,52,1,97
,,,,,,,,,,,,,,,,,,,,,,,,,,,,,,,,,,,,,,,,,o,4.559000015,BOO,TRUE,,,,,,,56,libro,Spanish,Sounds/spa_libro.mp3,2020-06-05_12h52.18.242,TranslationElicitation_eng-prolific,3.2.4,Win32,60,5e9629228a7eb70aaf79c1aa,,1,0,98,52,1,97
,,,,,,,,,,,,,,,,,,,,,,,,,,,,,,,,,,,,,,,,,k,4.705000162,BOOK,TRUE,,,,,,,56,libro,Spanish,Sounds/spa_libro.mp3,2020-06-05_12h52.18.242,TranslationElicitation_eng-prolific,3.2.4,Win32,60,5e9629228a7eb70aaf79c1aa,,1,0,98,52,1,97
,,,,,,,,,,,,,,,,,,,,,,,,,,,,,,,,,,,,,,,,,return,5.163000107,BOOK,TRUE,,,,,,,56,libro,Spanish,Sounds/spa_libro.mp3,2020-06-05_12h52.18.242,TranslationElicitation_eng-prolific,3.2.4,Win32,60,5e9629228a7eb70aaf79c1aa,5.163000107,1,0,98,52,1,97
,,,,,,,,,,,,,,,,,,,,,,,,,,,,,,,,,,,,,,,,,,,,,,,,,,,56,libro,Spanish,Sounds/spa_libro.mp3,2020-06-05_12h52.18.242,TranslationElicitation_eng-prolific,3.2.4,Win32,60,5e9629228a7eb70aaf79c1aa,,1,0,98,52,1,97
,,,,,,,,,,,,,,,,,,,,,,,,,,,,,,,,,,,,,,,,,g,2.312000036,G,FALSE,,,,,,,46,grifo,Spanish,Sounds/spa_grifo.mp3,2020-06-05_12h52.18.242,TranslationElicitation_eng-prolific,3.2.4,Win32,60,5e9629228a7eb70aaf79c1aa,,1,0,98,42,1,97
,,,,,,,,,,,,,,,,,,,,,,,,,,,,,,,,,,,,,,,,,r,2.5,GR,FALSE,,,,,,,46,grifo,Spanish,Sounds/spa_grifo.mp3,2020-06-05_12h52.18.242,TranslationElicitation_eng-prolific,3.2.4,Win32,60,5e9629228a7eb70aaf79c1aa,,1,0,98,42,1,97
,,,,,,,,,,,,,,,,,,,,,,,,,,,,,,,,,,,,,,,,,i,2.853999853,GRI,FALSE,,,,,,,46,grifo,Spanish,Sounds/spa_grifo.mp3,2020-06-05_12h52.18.242,TranslationElicitation_eng-prolific,3.2.4,Win32,60,5e9629228a7eb70aaf79c1aa,,1,0,98,42,1,97
,,,,,,,,,,,,,,,,,,,,,,,,,,,,,,,,,,,,,,,,,e,2.977999926,GRIE,FALSE,,,,,,,46,grifo,Spanish,Sounds/spa_grifo.mp3,2020-06-05_12h52.18.242,TranslationElicitation_eng-prolific,3.2.4,Win32,60,5e9629228a7eb70aaf79c1aa,,1,0,98,42,1,97
,,,,,,,,,,,,,,,,,,,,,,,,,,,,,,,,,,,,,,,,,f,3.128000021,GRIEF,FALSE,,,,,,,46,grifo,Spanish,Sounds/spa_grifo.mp3,2020-06-05_12h52.18.242,TranslationElicitation_eng-prolific,3.2.4,Win32,60,5e9629228a7eb70aaf79c1aa,,1,0,98,42,1,97
,,,,,,,,,,,,,,,,,,,,,,,,,,,,,,,,,,,,,,,,,return,4.233999968,GRIEF,FALSE,,,,,,,46,grifo,Spanish,Sounds/spa_grifo.mp3,2020-06-05_12h52.18.242,TranslationElicitation_eng-prolific,3.2.4,Win32,60,5e9629228a7eb70aaf79c1aa,4.233999968,1,0,98,42,1,97
,,,,,,,,,,,,,,,,,,,,,,,,,,,,,,,,,,,,,,,,,,,,,,,,,,,46,grifo,Spanish,Sounds/spa_grifo.mp3,2020-06-05_12h52.18.242,TranslationElicitation_eng-prolific,3.2.4,Win32,60,5e9629228a7eb70aaf79c1aa,,1,0,98,42,1,97
,,,,,,,,,,,,,,,,,,,,,,,,,,,,,,,,,,,,,,,,,f,7.292000055,F,FALSE,,,,,,,45,gorro,Spanish,Sounds/spa_gorro.mp3,2020-06-05_12h52.18.242,TranslationElicitation_eng-prolific,3.2.4,Win32,60,5e9629228a7eb70aaf79c1aa,,1,0,98,41,1,97
,,,,,,,,,,,,,,,,,,,,,,,,,,,,,,,,,,,,,,,,,backspace,7.749000072,,TRUE,,,,,,,45,gorro,Spanish,Sounds/spa_gorro.mp3,2020-06-05_12h52.18.242,TranslationElicitation_eng-prolific,3.2.4,Win32,60,5e9629228a7eb70aaf79c1aa,,1,0,98,41,1,97
,,,,,,,,,,,,,,,,,,,,,,,,,,,,,,,,,,,,,,,,,g,7.957000017,G,TRUE,,,,,,,45,gorro,Spanish,Sounds/spa_gorro.mp3,2020-06-05_12h52.18.242,TranslationElicitation_eng-prolific,3.2.4,Win32,60,5e9629228a7eb70aaf79c1aa,,1,0,98,41,1,97
,,,,,,,,,,,,,,,,,,,,,,,,,,,,,,,,,,,,,,,,,o,8.082000017,GO,TRUE,,,,,,,45,gorro,Spanish,Sounds/spa_gorro.mp3,2020-06-05_12h52.18.242,TranslationElicitation_eng-prolific,3.2.4,Win32,60,5e9629228a7eb70aaf79c1aa,,1,0,98,41,1,97
,,,,,,,,,,,,,,,,,,,,,,,,,,,,,,,,,,,,,,,,,r,8.207999945,GOR,TRUE,,,,,,,45,gorro,Spanish,Sounds/spa_gorro.mp3,2020-06-05_12h52.18.242,TranslationElicitation_eng-prolific,3.2.4,Win32,60,5e9629228a7eb70aaf79c1aa,,1,0,98,41,1,97
,,,,,,,,,,,,,,,,,,,,,,,,,,,,,,,,,,,,,,,,,e,8.291000128,GORE,TRUE,,,,,,,45,gorro,Spanish,Sounds/spa_gorro.mp3,2020-06-05_12h52.18.242,TranslationElicitation_eng-prolific,3.2.4,Win32,60,5e9629228a7eb70aaf79c1aa,,1,0,98,41,1,97
,,,,,,,,,,,,,,,,,,,,,,,,,,,,,,,,,,,,,,,,,return,8.707999945,GORE,TRUE,,,,,,,45,gorro,Spanish,Sounds/spa_gorro.mp3,2020-06-05_12h52.18.242,TranslationElicitation_eng-prolific,3.2.4,Win32,60,5e9629228a7eb70aaf79c1aa,8.707999945,1,0,98,41,1,97
,,,,,,,,,,,,,,,,,,,,,,,,,,,,,,,,,,,,,,,,,,,,,,,,,,,45,gorro,Spanish,Sounds/spa_gorro.mp3,2020-06-05_12h52.18.242,TranslationElicitation_eng-prolific,3.2.4,Win32,60,5e9629228a7eb70aaf79c1aa,,1,0,98,41,1,97
,,,,,,,,,,,,,,,,,,,,,,,,,,,,,,,,,,,,,,,,,c,2.316999912,C,FALSE,,,,,,,90,pollo,Spanish,Sounds/spa_pollo.mp3,2020-06-05_12h52.18.242,TranslationElicitation_eng-prolific,3.2.4,Win32,60,5e9629228a7eb70aaf79c1aa,,1,0,98,85,1,97
,,,,,,,,,,,,,,,,,,,,,,,,,,,,,,,,,,,,,,,,,h,2.587999821,CH,FALSE,,,,,,,90,pollo,Spanish,Sounds/spa_pollo.mp3,2020-06-05_12h52.18.242,TranslationElicitation_eng-prolific,3.2.4,Win32,60,5e9629228a7eb70aaf79c1aa,,1,0,98,85,1,97
,,,,,,,,,,,,,,,,,,,,,,,,,,,,,,,,,,,,,,,,,i,3.321999788,CHI,FALSE,,,,,,,90,pollo,Spanish,Sounds/spa_pollo.mp3,2020-06-05_12h52.18.242,TranslationElicitation_eng-prolific,3.2.4,Win32,60,5e9629228a7eb70aaf79c1aa,,1,0,98,85,1,97
,,,,,,,,,,,,,,,,,,,,,,,,,,,,,,,,,,,,,,,,,c,3.505999804,CHIC,FALSE,,,,,,,90,pollo,Spanish,Sounds/spa_pollo.mp3,2020-06-05_12h52.18.242,TranslationElicitation_eng-prolific,3.2.4,Win32,60,5e9629228a7eb70aaf79c1aa,,1,0,98,85,1,97
,,,,,,,,,,,,,,,,,,,,,,,,,,,,,,,,,,,,,,,,,k,3.69299984,CHICK,FALSE,,,,,,,90,pollo,Spanish,Sounds/spa_pollo.mp3,2020-06-05_12h52.18.242,TranslationElicitation_eng-prolific,3.2.4,Win32,60,5e9629228a7eb70aaf79c1aa,,1,0,98,85,1,97
,,,,,,,,,,,,,,,,,,,,,,,,,,,,,,,,,,,,,,,,,e,3.838999987,CHICKE,FALSE,,,,,,,90,pollo,Spanish,Sounds/spa_pollo.mp3,2020-06-05_12h52.18.242,TranslationElicitation_eng-prolific,3.2.4,Win32,60,5e9629228a7eb70aaf79c1aa,,1,0,98,85,1,97
,,,,,,,,,,,,,,,,,,,,,,,,,,,,,,,,,,,,,,,,,n,3.963999987,CHICKEN,FALSE,,,,,,,90,pollo,Spanish,Sounds/spa_pollo.mp3,2020-06-05_12h52.18.242,TranslationElicitation_eng-prolific,3.2.4,Win32,60,5e9629228a7eb70aaf79c1aa,,1,0,98,85,1,97
,,,,,,,,,,,,,,,,,,,,,,,,,,,,,,,,,,,,,,,,,return,4.962999821,CHICKEN,FALSE,,,,,,,90,pollo,Spanish,Sounds/spa_pollo.mp3,2020-06-05_12h52.18.242,TranslationElicitation_eng-prolific,3.2.4,Win32,60,5e9629228a7eb70aaf79c1aa,4.962999821,1,0,98,85,1,97
,,,,,,,,,,,,,,,,,,,,,,,,,,,,,,,,,,,,,,,,,,,,,,,,,,,90,pollo,Spanish,Sounds/spa_pollo.mp3,2020-06-05_12h52.18.242,TranslationElicitation_eng-prolific,3.2.4,Win32,60,5e9629228a7eb70aaf79c1aa,,1,0,98,85,1,97
,,,,,,,,,,,,,,,,,,,,,,,,,,,,,,,,,,,,,,,,,l,4.730000019,L,FALSE,,,,,,,55,leon,Spanish,Sounds/spa_leon.mp3,2020-06-05_12h52.18.242,TranslationElicitation_eng-prolific,3.2.4,Win32,60,5e9629228a7eb70aaf79c1aa,,1,0,98,51,1,97
,,,,,,,,,,,,,,,,,,,,,,,,,,,,,,,,,,,,,,,,,i,5.131000042,LI,FALSE,,,,,,,55,leon,Spanish,Sounds/spa_leon.mp3,2020-06-05_12h52.18.242,TranslationElicitation_eng-prolific,3.2.4,Win32,60,5e9629228a7eb70aaf79c1aa,,1,0,98,51,1,97
,,,,,,,,,,,,,,,,,,,,,,,,,,,,,,,,,,,,,,,,,o,5.25,LIO,FALSE,,,,,,,55,leon,Spanish,Sounds/spa_leon.mp3,2020-06-05_12h52.18.242,TranslationElicitation_eng-prolific,3.2.4,Win32,60,5e9629228a7eb70aaf79c1aa,,1,0,98,51,1,97
,,,,,,,,,,,,,,,,,,,,,,,,,,,,,,,,,,,,,,,,,n,5.417999983,LION,FALSE,,,,,,,55,leon,Spanish,Sounds/spa_leon.mp3,2020-06-05_12h52.18.242,TranslationElicitation_eng-prolific,3.2.4,Win32,60,5e9629228a7eb70aaf79c1aa,,1,0,98,51,1,97
,,,,,,,,,,,,,,,,,,,,,,,,,,,,,,,,,,,,,,,,,return,5.875999928,LION,FALSE,,,,,,,55,leon,Spanish,Sounds/spa_leon.mp3,2020-06-05_12h52.18.242,TranslationElicitation_eng-prolific,3.2.4,Win32,60,5e9629228a7eb70aaf79c1aa,5.875999928,1,0,98,51,1,97
,,,,,,,,,,,,,,,,,,,,,,,,,,,,,,,,,,,,,,,,,,,,,,,,,,,55,leon,Spanish,Sounds/spa_leon.mp3,2020-06-05_12h52.18.242,TranslationElicitation_eng-prolific,3.2.4,Win32,60,5e9629228a7eb70aaf79c1aa,,1,0,98,51,1,97
,,,,,,,,,,,,,,,,,,,,,,,,,,,,,,,,,,,,,,,,,b,2.089999914,B,FALSE,,,,,,,5,bici,Spanish,Sounds/spa_bici.mp3,2020-06-05_12h52.18.242,TranslationElicitation_eng-prolific,3.2.4,Win32,60,5e9629228a7eb70aaf79c1aa,,1,0,98,3,1,97
,,,,,,,,,,,,,,,,,,,,,,,,,,,,,,,,,,,,,,,,,e,2.214999914,BE,FALSE,,,,,,,5,bici,Spanish,Sounds/spa_bici.mp3,2020-06-05_12h52.18.242,TranslationElicitation_eng-prolific,3.2.4,Win32,60,5e9629228a7eb70aaf79c1aa,,1,0,98,3,1,97
,,,,,,,,,,,,,,,,,,,,,,,,,,,,,,,,,,,,,,,,,e,2.381999969,BEE,FALSE,,,,,,,5,bici,Spanish,Sounds/spa_bici.mp3,2020-06-05_12h52.18.242,TranslationElicitation_eng-prolific,3.2.4,Win32,60,5e9629228a7eb70aaf79c1aa,,1,0,98,3,1,97
,,,,,,,,,,,,,,,,,,,,,,,,,,,,,,,,,,,,,,,,,f,2.592999935,BEEF,FALSE,,,,,,,5,bici,Spanish,Sounds/spa_bici.mp3,2020-06-05_12h52.18.242,TranslationElicitation_eng-prolific,3.2.4,Win32,60,5e9629228a7eb70aaf79c1aa,,1,0,98,3,1,97
,,,,,,,,,,,,,,,,,,,,,,,,,,,,,,,,,,,,,,,,,return,4.506999969,BEEF,FALSE,,,,,,,5,bici,Spanish,Sounds/spa_bici.mp3,2020-06-05_12h52.18.242,TranslationElicitation_eng-prolific,3.2.4,Win32,60,5e9629228a7eb70aaf79c1aa,4.506999969,1,0,98,3,1,97
,,,,,,,,,,,,,,,,,,,,,,,,,,,,,,,,,,,,,,,,,,,,,,,,,,,5,bici,Spanish,Sounds/spa_bici.mp3,2020-06-05_12h52.18.242,TranslationElicitation_eng-prolific,3.2.4,Win32,60,5e9629228a7eb70aaf79c1aa,,1,0,98,3,1,97
,,,,,,,,,,,,,,,,,,,,,,,,,,,,,,,,,,,,,,,,,t,5.498999834,T,FALSE,,,,,,,98,tobogan,Spanish,Sounds/spa_tobogan.mp3,2020-06-05_12h52.18.242,TranslationElicitation_eng-prolific,3.2.4,Win32,60,5e9629228a7eb70aaf79c1aa,,1,0,98,92,1,97
,,,,,,,,,,,,,,,,,,,,,,,,,,,,,,,,,,,,,,,,,a,5.769999981,TA,FALSE,,,,,,,98,tobogan,Spanish,Sounds/spa_tobogan.mp3,2020-06-05_12h52.18.242,TranslationElicitation_eng-prolific,3.2.4,Win32,60,5e9629228a7eb70aaf79c1aa,,1,0,98,92,1,97
,,,,,,,,,,,,,,,,,,,,,,,,,,,,,,,,,,,,,,,,,n,5.894999981,TAN,FALSE,,,,,,,98,tobogan,Spanish,Sounds/spa_tobogan.mp3,2020-06-05_12h52.18.242,TranslationElicitation_eng-prolific,3.2.4,Win32,60,5e9629228a7eb70aaf79c1aa,,1,0,98,92,1,97
,,,,,,,,,,,,,,,,,,,,,,,,,,,,,,,,,,,,,,,,,f,6.040999889,TANF,FALSE,,,,,,,98,tobogan,Spanish,Sounds/spa_tobogan.mp3,2020-06-05_12h52.18.242,TranslationElicitation_eng-prolific,3.2.4,Win32,60,5e9629228a7eb70aaf79c1aa,,1,0,98,92,1,97
,,,,,,,,,,,,,,,,,,,,,,,,,,,,,,,,,,,,,,,,,backspace,6.562999964,TAN,TRUE,,,,,,,98,tobogan,Spanish,Sounds/spa_tobogan.mp3,2020-06-05_12h52.18.242,TranslationElicitation_eng-prolific,3.2.4,Win32,60,5e9629228a7eb70aaf79c1aa,,1,0,98,92,1,97
,,,,,,,,,,,,,,,,,,,,,,,,,,,,,,,,,,,,,,,,,g,6.812000036,TANG,TRUE,,,,,,,98,tobogan,Spanish,Sounds/spa_tobogan.mp3,2020-06-05_12h52.18.242,TranslationElicitation_eng-prolific,3.2.4,Win32,60,5e9629228a7eb70aaf79c1aa,,1,0,98,92,1,97
,,,,,,,,,,,,,,,,,,,,,,,,,,,,,,,,,,,,,,,,,e,7.020999908,TANGE,TRUE,,,,,,,98,tobogan,Spanish,Sounds/spa_tobogan.mp3,2020-06-05_12h52.18.242,TranslationElicitation_eng-prolific,3.2.4,Win32,60,5e9629228a7eb70aaf79c1aa,,1,0,98,92,1,97
,,,,,,,,,,,,,,,,,,,,,,,,,,,,,,,,,,,,,,,,,r,7.167000055,TANGER,TRUE,,,,,,,98,tobogan,Spanish,Sounds/spa_tobogan.mp3,2020-06-05_12h52.18.242,TranslationElicitation_eng-prolific,3.2.4,Win32,60,5e9629228a7eb70aaf79c1aa,,1,0,98,92,1,97
,,,,,,,,,,,,,,,,,,,,,,,,,,,,,,,,,,,,,,,,,i,7.292000055,TANGERI,TRUE,,,,,,,98,tobogan,Spanish,Sounds/spa_tobogan.mp3,2020-06-05_12h52.18.242,TranslationElicitation_eng-prolific,3.2.4,Win32,60,5e9629228a7eb70aaf79c1aa,,1,0,98,92,1,97
,,,,,,,,,,,,,,,,,,,,,,,,,,,,,,,,,,,,,,,,,n,7.457999945,TANGERIN,TRUE,,,,,,,98,tobogan,Spanish,Sounds/spa_tobogan.mp3,2020-06-05_12h52.18.242,TranslationElicitation_eng-prolific,3.2.4,Win32,60,5e9629228a7eb70aaf79c1aa,,1,0,98,92,1,97
,,,,,,,,,,,,,,,,,,,,,,,,,,,,,,,,,,,,,,,,,e,7.542000055,TANGERINE,TRUE,,,,,,,98,tobogan,Spanish,Sounds/spa_tobogan.mp3,2020-06-05_12h52.18.242,TranslationElicitation_eng-prolific,3.2.4,Win32,60,5e9629228a7eb70aaf79c1aa,,1,0,98,92,1,97
,,,,,,,,,,,,,,,,,,,,,,,,,,,,,,,,,,,,,,,,,return,8.103999853,TANGERINE,TRUE,,,,,,,98,tobogan,Spanish,Sounds/spa_tobogan.mp3,2020-06-05_12h52.18.242,TranslationElicitation_eng-prolific,3.2.4,Win32,60,5e9629228a7eb70aaf79c1aa,8.103999853,1,0,98,92,1,97
,,,,,,,,,,,,,,,,,,,,,,,,,,,,,,,,,,,,,,,,,,,,,,,,,,,98,tobogan,Spanish,Sounds/spa_tobogan.mp3,2020-06-05_12h52.18.242,TranslationElicitation_eng-prolific,3.2.4,Win32,60,5e9629228a7eb70aaf79c1aa,,1,0,98,92,1,97
,,,,,,,,,,,,,,,,,,,,,,,,,,,,,,,,,,,,,,,,,t,3.271999836,T,FALSE,,,,,,,95,tenedor,Spanish,Sounds/spa_tenedor.mp3,2020-06-05_12h52.18.242,TranslationElicitation_eng-prolific,3.2.4,Win32,60,5e9629228a7eb70aaf79c1aa,,1,0,98,90,1,97
,,,,,,,,,,,,,,,,,,,,,,,,,,,,,,,,,,,,,,,,,e,3.355000019,TE,FALSE,,,,,,,95,tenedor,Spanish,Sounds/spa_tenedor.mp3,2020-06-05_12h52.18.242,TranslationElicitation_eng-prolific,3.2.4,Win32,60,5e9629228a7eb70aaf79c1aa,,1,0,98,90,1,97
,,,,,,,,,,,,,,,,,,,,,,,,,,,,,,,,,,,,,,,,,n,3.605999947,TEN,FALSE,,,,,,,95,tenedor,Spanish,Sounds/spa_tenedor.mp3,2020-06-05_12h52.18.242,TranslationElicitation_eng-prolific,3.2.4,Win32,60,5e9629228a7eb70aaf79c1aa,,1,0,98,90,1,97
,,,,,,,,,,,,,,,,,,,,,,,,,,,,,,,,,,,,,,,,,n,3.773000002,TENN,FALSE,,,,,,,95,tenedor,Spanish,Sounds/spa_tenedor.mp3,2020-06-05_12h52.18.242,TranslationElicitation_eng-prolific,3.2.4,Win32,60,5e9629228a7eb70aaf79c1aa,,1,0,98,90,1,97
,,,,,,,,,,,,,,,,,,,,,,,,,,,,,,,,,,,,,,,,,i,3.940000057,TENNI,FALSE,,,,,,,95,tenedor,Spanish,Sounds/spa_tenedor.mp3,2020-06-05_12h52.18.242,TranslationElicitation_eng-prolific,3.2.4,Win32,60,5e9629228a7eb70aaf79c1aa,,1,0,98,90,1,97
,,,,,,,,,,,,,,,,,,,,,,,,,,,,,,,,,,,,,,,,,s,4.105000019,TENNIS,FALSE,,,,,,,95,tenedor,Spanish,Sounds/spa_tenedor.mp3,2020-06-05_12h52.18.242,TranslationElicitation_eng-prolific,3.2.4,Win32,60,5e9629228a7eb70aaf79c1aa,,1,0,98,90,1,97
,,,,,,,,,,,,,,,,,,,,,,,,,,,,,,,,,,,,,,,,,return,4.771999836,TENNIS,FALSE,,,,,,,95,tenedor,Spanish,Sounds/spa_tenedor.mp3,2020-06-05_12h52.18.242,TranslationElicitation_eng-prolific,3.2.4,Win32,60,5e9629228a7eb70aaf79c1aa,4.771999836,1,0,98,90,1,97
,,,,,,,,,,,,,,,,,,,,,,,,,,,,,,,,,,,,,,,,,,,,,,,,,,,95,tenedor,Spanish,Sounds/spa_tenedor.mp3,2020-06-05_12h52.18.242,TranslationElicitation_eng-prolific,3.2.4,Win32,60,5e9629228a7eb70aaf79c1aa,,1,0,98,90,1,97
,,,,,,,,,,,,,,,,,,,,,,,,,,,,,,,,,,,,,,,,,p,3.657999992,P,FALSE,,,,,,,87,platano,Spanish,Sounds/spa_platano.mp3,2020-06-05_12h52.18.242,TranslationElicitation_eng-prolific,3.2.4,Win32,60,5e9629228a7eb70aaf79c1aa,,1,0,98,82,1,97
,,,,,,,,,,,,,,,,,,,,,,,,,,,,,,,,,,,,,,,,,l,3.958000183,PL,FALSE,,,,,,,87,platano,Spanish,Sounds/spa_platano.mp3,2020-06-05_12h52.18.242,TranslationElicitation_eng-prolific,3.2.4,Win32,60,5e9629228a7eb70aaf79c1aa,,1,0,98,82,1,97
,,,,,,,,,,,,,,,,,,,,,,,,,,,,,,,,,,,,,,,,,t,4.252000093,PLT,FALSE,,,,,,,87,platano,Spanish,Sounds/spa_platano.mp3,2020-06-05_12h52.18.242,TranslationElicitation_eng-prolific,3.2.4,Win32,60,5e9629228a7eb70aaf79c1aa,,1,0,98,82,1,97
,,,,,,,,,,,,,,,,,,,,,,,,,,,,,,,,,,,,,,,,,e,4.463999987,PLTE,FALSE,,,,,,,87,platano,Spanish,Sounds/spa_platano.mp3,2020-06-05_12h52.18.242,TranslationElicitation_eng-prolific,3.2.4,Win32,60,5e9629228a7eb70aaf79c1aa,,1,0,98,82,1,97
,,,,,,,,,,,,,,,,,,,,,,,,,,,,,,,,,,,,,,,,,a,4.755000114,PLTEA,FALSE,,,,,,,87,platano,Spanish,Sounds/spa_platano.mp3,2020-06-05_12h52.18.242,TranslationElicitation_eng-prolific,3.2.4,Win32,60,5e9629228a7eb70aaf79c1aa,,1,0,98,82,1,97
,,,,,,,,,,,,,,,,,,,,,,,,,,,,,,,,,,,,,,,,,u,4.963999987,PLTEAU,FALSE,,,,,,,87,platano,Spanish,Sounds/spa_platano.mp3,2020-06-05_12h52.18.242,TranslationElicitation_eng-prolific,3.2.4,Win32,60,5e9629228a7eb70aaf79c1aa,,1,0,98,82,1,97
,,,,,,,,,,,,,,,,,,,,,,,,,,,,,,,,,,,,,,,,,x,5.069000006,PLTEAUX,FALSE,,,,,,,87,platano,Spanish,Sounds/spa_platano.mp3,2020-06-05_12h52.18.242,TranslationElicitation_eng-prolific,3.2.4,Win32,60,5e9629228a7eb70aaf79c1aa,,1,0,98,82,1,97
,,,,,,,,,,,,,,,,,,,,,,,,,,,,,,,,,,,,,,,,,backspace,6.006000042,PLTEAU,TRUE,,,,,,,87,platano,Spanish,Sounds/spa_platano.mp3,2020-06-05_12h52.18.242,TranslationElicitation_eng-prolific,3.2.4,Win32,60,5e9629228a7eb70aaf79c1aa,,1,0,98,82,1,97
,,,,,,,,,,,,,,,,,,,,,,,,,,,,,,,,,,,,,,,,,backspace,6.194000006,PLTEA,TRUE,,,,,,,87,platano,Spanish,Sounds/spa_platano.mp3,2020-06-05_12h52.18.242,TranslationElicitation_eng-prolific,3.2.4,Win32,60,5e9629228a7eb70aaf79c1aa,,1,0,98,82,1,97
,,,,,,,,,,,,,,,,,,,,,,,,,,,,,,,,,,,,,,,,,backspace,6.338999987,PLTE,TRUE,,,,,,,87,platano,Spanish,Sounds/spa_platano.mp3,2020-06-05_12h52.18.242,TranslationElicitation_eng-prolific,3.2.4,Win32,60,5e9629228a7eb70aaf79c1aa,,1,0,98,82,1,97
,,,,,,,,,,,,,,,,,,,,,,,,,,,,,,,,,,,,,,,,,backspace,6.506999969,PLT,TRUE,,,,,,,87,platano,Spanish,Sounds/spa_platano.mp3,2020-06-05_12h52.18.242,TranslationElicitation_eng-prolific,3.2.4,Win32,60,5e9629228a7eb70aaf79c1aa,,1,0,98,82,1,97
,,,,,,,,,,,,,,,,,,,,,,,,,,,,,,,,,,,,,,,,,backspace,6.651000023,PL,TRUE,,,,,,,87,platano,Spanish,Sounds/spa_platano.mp3,2020-06-05_12h52.18.242,TranslationElicitation_eng-prolific,3.2.4,Win32,60,5e9629228a7eb70aaf79c1aa,,1,0,98,82,1,97
,,,,,,,,,,,,,,,,,,,,,,,,,,,,,,,,,,,,,,,,,a,7.152000189,PLA,TRUE,,,,,,,87,platano,Spanish,Sounds/spa_platano.mp3,2020-06-05_12h52.18.242,TranslationElicitation_eng-prolific,3.2.4,Win32,60,5e9629228a7eb70aaf79c1aa,,1,0,98,82,1,97
,,,,,,,,,,,,,,,,,,,,,,,,,,,,,,,,,,,,,,,,,t,7.401000023,PLAT,TRUE,,,,,,,87,platano,Spanish,Sounds/spa_platano.mp3,2020-06-05_12h52.18.242,TranslationElicitation_eng-prolific,3.2.4,Win32,60,5e9629228a7eb70aaf79c1aa,,1,0,98,82,1,97
,,,,,,,,,,,,,,,,,,,,,,,,,,,,,,,,,,,,,,,,,e,7.549000025,PLATE,TRUE,,,,,,,87,platano,Spanish,Sounds/spa_platano.mp3,2020-06-05_12h52.18.242,TranslationElicitation_eng-prolific,3.2.4,Win32,60,5e9629228a7eb70aaf79c1aa,,1,0,98,82,1,97
,,,,,,,,,,,,,,,,,,,,,,,,,,,,,,,,,,,,,,,,,a,7.736000061,PLATEA,TRUE,,,,,,,87,platano,Spanish,Sounds/spa_platano.mp3,2020-06-05_12h52.18.242,TranslationElicitation_eng-prolific,3.2.4,Win32,60,5e9629228a7eb70aaf79c1aa,,1,0,98,82,1,97
,,,,,,,,,,,,,,,,,,,,,,,,,,,,,,,,,,,,,,,,,u,7.902000189,PLATEAU,TRUE,,,,,,,87,platano,Spanish,Sounds/spa_platano.mp3,2020-06-05_12h52.18.242,TranslationElicitation_eng-prolific,3.2.4,Win32,60,5e9629228a7eb70aaf79c1aa,,1,0,98,82,1,97
,,,,,,,,,,,,,,,,,,,,,,,,,,,,,,,,,,,,,,,,,return,8.777000189,PLATEAU,TRUE,,,,,,,87,platano,Spanish,Sounds/spa_platano.mp3,2020-06-05_12h52.18.242,TranslationElicitation_eng-prolific,3.2.4,Win32,60,5e9629228a7eb70aaf79c1aa,8.777000189,1,0,98,82,1,97
,,,,,,,,,,,,,,,,,,,,,,,,,,,,,,,,,,,,,,,,,,,,,,,,,,,87,platano,Spanish,Sounds/spa_platano.mp3,2020-06-05_12h52.18.242,TranslationElicitation_eng-prolific,3.2.4,Win32,60,5e9629228a7eb70aaf79c1aa,,1,0,98,82,1,97
,,,,,,,,,,,,,,,,,,,,,,,,,,,,,,,,,,,,,,,,,c,4.646000147,C,FALSE,,,,,,,89,pluma,Spanish,Sounds/spa_pluma.mp3,2020-06-05_12h52.18.242,TranslationElicitation_eng-prolific,3.2.4,Win32,60,5e9629228a7eb70aaf79c1aa,,1,0,98,84,1,97
,,,,,,,,,,,,,,,,,,,,,,,,,,,,,,,,,,,,,,,,,l,4.792000055,CL,FALSE,,,,,,,89,pluma,Spanish,Sounds/spa_pluma.mp3,2020-06-05_12h52.18.242,TranslationElicitation_eng-prolific,3.2.4,Win32,60,5e9629228a7eb70aaf79c1aa,,1,0,98,84,1,97
,,,,,,,,,,,,,,,,,,,,,,,,,,,,,,,,,,,,,,,,,o,4.957999945,CLO,FALSE,,,,,,,89,pluma,Spanish,Sounds/spa_pluma.mp3,2020-06-05_12h52.18.242,TranslationElicitation_eng-prolific,3.2.4,Win32,60,5e9629228a7eb70aaf79c1aa,,1,0,98,84,1,97
,,,,,,,,,,,,,,,,,,,,,,,,,,,,,,,,,,,,,,,,,u,5.167999983,CLOU,FALSE,,,,,,,89,pluma,Spanish,Sounds/spa_pluma.mp3,2020-06-05_12h52.18.242,TranslationElicitation_eng-prolific,3.2.4,Win32,60,5e9629228a7eb70aaf79c1aa,,1,0,98,84,1,97
,,,,,,,,,,,,,,,,,,,,,,,,,,,,,,,,,,,,,,,,,d,5.292000055,CLOUD,FALSE,,,,,,,89,pluma,Spanish,Sounds/spa_pluma.mp3,2020-06-05_12h52.18.242,TranslationElicitation_eng-prolific,3.2.4,Win32,60,5e9629228a7eb70aaf79c1aa,,1,0,98,84,1,97
,,,,,,,,,,,,,,,,,,,,,,,,,,,,,,,,,,,,,,,,,return,6.5,CLOUD,FALSE,,,,,,,89,pluma,Spanish,Sounds/spa_pluma.mp3,2020-06-05_12h52.18.242,TranslationElicitation_eng-prolific,3.2.4,Win32,60,5e9629228a7eb70aaf79c1aa,6.5,1,0,98,84,1,97
,,,,,,,,,,,,,,,,,,,,,,,,,,,,,,,,,,,,,,,,,,,,,,,,,,,89,pluma,Spanish,Sounds/spa_pluma.mp3,2020-06-05_12h52.18.242,TranslationElicitation_eng-prolific,3.2.4,Win32,60,5e9629228a7eb70aaf79c1aa,,1,0,98,84,1,97
,,,,,,,,,,,,,,,,,,,,,,,,,,,,,,,,,,,,,,,,,m,7.894999981,M,FALSE,,,,,,,63,mesa,Spanish,Sounds/spa_mesa.mp3,2020-06-05_12h52.18.242,TranslationElicitation_eng-prolific,3.2.4,Win32,60,5e9629228a7eb70aaf79c1aa,,1,0,98,59,1,97
,,,,,,,,,,,,,,,,,,,,,,,,,,,,,,,,,,,,,,,,,e,8.042000055,ME,FALSE,,,,,,,63,mesa,Spanish,Sounds/spa_mesa.mp3,2020-06-05_12h52.18.242,TranslationElicitation_eng-prolific,3.2.4,Win32,60,5e9629228a7eb70aaf79c1aa,,1,0,98,59,1,97
,,,,,,,,,,,,,,,,,,,,,,,,,,,,,,,,,,,,,,,,,return,8.269999981,ME,FALSE,,,,,,,63,mesa,Spanish,Sounds/spa_mesa.mp3,2020-06-05_12h52.18.242,TranslationElicitation_eng-prolific,3.2.4,Win32,60,5e9629228a7eb70aaf79c1aa,8.269999981,1,0,98,59,1,97
,,,,,,,,,,,,,,,,,,,,,,,,,,,,,,,,,,,,,,,,,,,,,,,,,,,63,mesa,Spanish,Sounds/spa_mesa.mp3,2020-06-05_12h52.18.242,TranslationElicitation_eng-prolific,3.2.4,Win32,60,5e9629228a7eb70aaf79c1aa,,1,0,98,59,1,97
,,,,,,,,,,,,,,,,,,,,,,,,,,,,,,,,,,,,,,,,,t,4.250999928,T,FALSE,,,,,,,97,tijeras,Spanish,Sounds/spa_tijeras.mp3,2020-06-05_12h52.18.242,TranslationElicitation_eng-prolific,3.2.4,Win32,60,5e9629228a7eb70aaf79c1aa,,1,0,98,91,1,97
,,,,,,,,,,,,,,,,,,,,,,,,,,,,,,,,,,,,,,,,,o,4.388999939,TO,FALSE,,,,,,,97,tijeras,Spanish,Sounds/spa_tijeras.mp3,2020-06-05_12h52.18.242,TranslationElicitation_eng-prolific,3.2.4,Win32,60,5e9629228a7eb70aaf79c1aa,,1,0,98,91,1,97
,,,,,,,,,,,,,,,,,,,,,,,,,,,,,,,,,,,,,,,,,d,4.563999891,TOD,FALSE,,,,,,,97,tijeras,Spanish,Sounds/spa_tijeras.mp3,2020-06-05_12h52.18.242,TranslationElicitation_eng-prolific,3.2.4,Win32,60,5e9629228a7eb70aaf79c1aa,,1,0,98,91,1,97
,,,,,,,,,,,,,,,,,,,,,,,,,,,,,,,,,,,,,,,,,a,4.612999916,TODA,FALSE,,,,,,,97,tijeras,Spanish,Sounds/spa_tijeras.mp3,2020-06-05_12h52.18.242,TranslationElicitation_eng-prolific,3.2.4,Win32,60,5e9629228a7eb70aaf79c1aa,,1,0,98,91,1,97
,,,,,,,,,,,,,,,,,,,,,,,,,,,,,,,,,,,,,,,,,y,4.771999836,TODAY,FALSE,,,,,,,97,tijeras,Spanish,Sounds/spa_tijeras.mp3,2020-06-05_12h52.18.242,TranslationElicitation_eng-prolific,3.2.4,Win32,60,5e9629228a7eb70aaf79c1aa,,1,0,98,91,1,97
,,,,,,,,,,,,,,,,,,,,,,,,,,,,,,,,,,,,,,,,,return,5.230000019,TODAY,FALSE,,,,,,,97,tijeras,Spanish,Sounds/spa_tijeras.mp3,2020-06-05_12h52.18.242,TranslationElicitation_eng-prolific,3.2.4,Win32,60,5e9629228a7eb70aaf79c1aa,5.230000019,1,0,98,91,1,97
,,,,,,,,,,,,,,,,,,,,,,,,,,,,,,,,,,,,,,,,,,,,,,,,,,,97,tijeras,Spanish,Sounds/spa_tijeras.mp3,2020-06-05_12h52.18.242,TranslationElicitation_eng-prolific,3.2.4,Win32,60,5e9629228a7eb70aaf79c1aa,,1,0,98,91,1,97
,,,,,,,,,,,,,,,,,,,,,,,,,,,,,,,,,,,,,,,,,m,2.335000038,M,FALSE,,,,,,,58,luna,Spanish,Sounds/spa_luna.mp3,2020-06-05_12h52.18.242,TranslationElicitation_eng-prolific,3.2.4,Win32,60,5e9629228a7eb70aaf79c1aa,,1,0,98,54,1,97
,,,,,,,,,,,,,,,,,,,,,,,,,,,,,,,,,,,,,,,,,o,2.584000111,MO,FALSE,,,,,,,58,luna,Spanish,Sounds/spa_luna.mp3,2020-06-05_12h52.18.242,TranslationElicitation_eng-prolific,3.2.4,Win32,60,5e9629228a7eb70aaf79c1aa,,1,0,98,54,1,97
,,,,,,,,,,,,,,,,,,,,,,,,,,,,,,,,,,,,,,,,,o,2.751000166,MOO,FALSE,,,,,,,58,luna,Spanish,Sounds/spa_luna.mp3,2020-06-05_12h52.18.242,TranslationElicitation_eng-prolific,3.2.4,Win32,60,5e9629228a7eb70aaf79c1aa,,1,0,98,54,1,97
,,,,,,,,,,,,,,,,,,,,,,,,,,,,,,,,,,,,,,,,,n,2.980000019,MOON,FALSE,,,,,,,58,luna,Spanish,Sounds/spa_luna.mp3,2020-06-05_12h52.18.242,TranslationElicitation_eng-prolific,3.2.4,Win32,60,5e9629228a7eb70aaf79c1aa,,1,0,98,54,1,97
,,,,,,,,,,,,,,,,,,,,,,,,,,,,,,,,,,,,,,,,,return,4.397000074,MOON,FALSE,,,,,,,58,luna,Spanish,Sounds/spa_luna.mp3,2020-06-05_12h52.18.242,TranslationElicitation_eng-prolific,3.2.4,Win32,60,5e9629228a7eb70aaf79c1aa,4.397000074,1,0,98,54,1,97
,,,,,,,,,,,,,,,,,,,,,,,,,,,,,,,,,,,,,,,,,,,,,,,,,,,58,luna,Spanish,Sounds/spa_luna.mp3,2020-06-05_12h52.18.242,TranslationElicitation_eng-prolific,3.2.4,Win32,60,5e9629228a7eb70aaf79c1aa,,1,0,98,54,1,97
,,,,,,,,,,,,,,,,,,,,,,,,,,,,,,,,,,,,,,,,,f,2.525000095,F,FALSE,,,,,,,21,cebra,Spanish,Sounds/spa_cebra.mp3,2020-06-05_12h52.18.242,TranslationElicitation_eng-prolific,3.2.4,Win32,60,5e9629228a7eb70aaf79c1aa,,1,0,98,19,1,97
,,,,,,,,,,,,,,,,,,,,,,,,,,,,,,,,,,,,,,,,,a,2.65199995,FA,FALSE,,,,,,,21,cebra,Spanish,Sounds/spa_cebra.mp3,2020-06-05_12h52.18.242,TranslationElicitation_eng-prolific,3.2.4,Win32,60,5e9629228a7eb70aaf79c1aa,,1,0,98,19,1,97
,,,,,,,,,,,,,,,,,,,,,,,,,,,,,,,,,,,,,,,,,v,2.838000059,FAV,FALSE,,,,,,,21,cebra,Spanish,Sounds/spa_cebra.mp3,2020-06-05_12h52.18.242,TranslationElicitation_eng-prolific,3.2.4,Win32,60,5e9629228a7eb70aaf79c1aa,,1,0,98,19,1,97
,,,,,,,,,,,,,,,,,,,,,,,,,,,,,,,,,,,,,,,,,o,2.963999987,FAVO,FALSE,,,,,,,21,cebra,Spanish,Sounds/spa_cebra.mp3,2020-06-05_12h52.18.242,TranslationElicitation_eng-prolific,3.2.4,Win32,60,5e9629228a7eb70aaf79c1aa,,1,0,98,19,1,97
,,,,,,,,,,,,,,,,,,,,,,,,,,,,,,,,,,,,,,,,,u,3.128999949,FAVOU,FALSE,,,,,,,21,cebra,Spanish,Sounds/spa_cebra.mp3,2020-06-05_12h52.18.242,TranslationElicitation_eng-prolific,3.2.4,Win32,60,5e9629228a7eb70aaf79c1aa,,1,0,98,19,1,97
,,,,,,,,,,,,,,,,,,,,,,,,,,,,,,,,,,,,,,,,,t,3.255000114,FAVOUT,FALSE,,,,,,,21,cebra,Spanish,Sounds/spa_cebra.mp3,2020-06-05_12h52.18.242,TranslationElicitation_eng-prolific,3.2.4,Win32,60,5e9629228a7eb70aaf79c1aa,,1,0,98,19,1,97
,,,,,,,,,,,,,,,,,,,,,,,,,,,,,,,,,,,,,,,,,i,3.380000114,FAVOUTI,FALSE,,,,,,,21,cebra,Spanish,Sounds/spa_cebra.mp3,2020-06-05_12h52.18.242,TranslationElicitation_eng-prolific,3.2.4,Win32,60,5e9629228a7eb70aaf79c1aa,,1,0,98,19,1,97
,,,,,,,,,,,,,,,,,,,,,,,,,,,,,,,,,,,,,,,,,e,3.549000025,FAVOUTIE,FALSE,,,,,,,21,cebra,Spanish,Sounds/spa_cebra.mp3,2020-06-05_12h52.18.242,TranslationElicitation_eng-prolific,3.2.4,Win32,60,5e9629228a7eb70aaf79c1aa,,1,0,98,19,1,97
,,,,,,,,,,,,,,,,,,,,,,,,,,,,,,,,,,,,,,,,,backspace,3.904000044,FAVOUTI,TRUE,,,,,,,21,cebra,Spanish,Sounds/spa_cebra.mp3,2020-06-05_12h52.18.242,TranslationElicitation_eng-prolific,3.2.4,Win32,60,5e9629228a7eb70aaf79c1aa,,1,0,98,19,1,97
,,,,,,,,,,,,,,,,,,,,,,,,,,,,,,,,,,,,,,,,,backspace,4.068000078,FAVOUT,TRUE,,,,,,,21,cebra,Spanish,Sounds/spa_cebra.mp3,2020-06-05_12h52.18.242,TranslationElicitation_eng-prolific,3.2.4,Win32,60,5e9629228a7eb70aaf79c1aa,,1,0,98,19,1,97
,,,,,,,,,,,,,,,,,,,,,,,,,,,,,,,,,,,,,,,,,backspace,4.235000134,FAVOU,TRUE,,,,,,,21,cebra,Spanish,Sounds/spa_cebra.mp3,2020-06-05_12h52.18.242,TranslationElicitation_eng-prolific,3.2.4,Win32,60,5e9629228a7eb70aaf79c1aa,,1,0,98,19,1,97
,,,,,,,,,,,,,,,,,,,,,,,,,,,,,,,,,,,,,,,,,r,4.736999989,FAVOUR,TRUE,,,,,,,21,cebra,Spanish,Sounds/spa_cebra.mp3,2020-06-05_12h52.18.242,TranslationElicitation_eng-prolific,3.2.4,Win32,60,5e9629228a7eb70aaf79c1aa,,1,0,98,19,1,97
,,,,,,,,,,,,,,,,,,,,,,,,,,,,,,,,,,,,,,,,,i,4.818000078,FAVOURI,TRUE,,,,,,,21,cebra,Spanish,Sounds/spa_cebra.mp3,2020-06-05_12h52.18.242,TranslationElicitation_eng-prolific,3.2.4,Win32,60,5e9629228a7eb70aaf79c1aa,,1,0,98,19,1,97
,,,,,,,,,,,,,,,,,,,,,,,,,,,,,,,,,,,,,,,,,t,4.963999987,FAVOURIT,TRUE,,,,,,,21,cebra,Spanish,Sounds/spa_cebra.mp3,2020-06-05_12h52.18.242,TranslationElicitation_eng-prolific,3.2.4,Win32,60,5e9629228a7eb70aaf79c1aa,,1,0,98,19,1,97
,,,,,,,,,,,,,,,,,,,,,,,,,,,,,,,,,,,,,,,,,e,5.046999931,FAVOURITE,TRUE,,,,,,,21,cebra,Spanish,Sounds/spa_cebra.mp3,2020-06-05_12h52.18.242,TranslationElicitation_eng-prolific,3.2.4,Win32,60,5e9629228a7eb70aaf79c1aa,,1,0,98,19,1,97
,,,,,,,,,,,,,,,,,,,,,,,,,,,,,,,,,,,,,,,,,return,5.796999931,FAVOURITE,TRUE,,,,,,,21,cebra,Spanish,Sounds/spa_cebra.mp3,2020-06-05_12h52.18.242,TranslationElicitation_eng-prolific,3.2.4,Win32,60,5e9629228a7eb70aaf79c1aa,5.796999931,1,0,98,19,1,97
,,,,,,,,,,,,,,,,,,,,,,,,,,,,,,,,,,,,,,,,,,,,,,,,,,,21,cebra,Spanish,Sounds/spa_cebra.mp3,2020-06-05_12h52.18.242,TranslationElicitation_eng-prolific,3.2.4,Win32,60,5e9629228a7eb70aaf79c1aa,,1,0,98,19,1,97
,,,,,,,,,,,,,,,,,,,,,,,,,,,,,,,,,,,,,,,,,p,1.881000042,P,FALSE,,,,,,,79,patata,Spanish,Sounds/spa_patata.mp3,2020-06-05_12h52.18.242,TranslationElicitation_eng-prolific,3.2.4,Win32,60,5e9629228a7eb70aaf79c1aa,,1,0,98,74,1,97
,,,,,,,,,,,,,,,,,,,,,,,,,,,,,,,,,,,,,,,,,o,2.068000078,PO,FALSE,,,,,,,79,patata,Spanish,Sounds/spa_patata.mp3,2020-06-05_12h52.18.242,TranslationElicitation_eng-prolific,3.2.4,Win32,60,5e9629228a7eb70aaf79c1aa,,1,0,98,74,1,97
,,,,,,,,,,,,,,,,,,,,,,,,,,,,,,,,,,,,,,,,,t,2.215000153,POT,FALSE,,,,,,,79,patata,Spanish,Sounds/spa_patata.mp3,2020-06-05_12h52.18.242,TranslationElicitation_eng-prolific,3.2.4,Win32,60,5e9629228a7eb70aaf79c1aa,,1,0,98,74,1,97
,,,,,,,,,,,,,,,,,,,,,,,,,,,,,,,,,,,,,,,,,a,2.444000006,POTA,FALSE,,,,,,,79,patata,Spanish,Sounds/spa_patata.mp3,2020-06-05_12h52.18.242,TranslationElicitation_eng-prolific,3.2.4,Win32,60,5e9629228a7eb70aaf79c1aa,,1,0,98,74,1,97
,,,,,,,,,,,,,,,,,,,,,,,,,,,,,,,,,,,,,,,,,t,2.673000097,POTAT,FALSE,,,,,,,79,patata,Spanish,Sounds/spa_patata.mp3,2020-06-05_12h52.18.242,TranslationElicitation_eng-prolific,3.2.4,Win32,60,5e9629228a7eb70aaf79c1aa,,1,0,98,74,1,97
,,,,,,,,,,,,,,,,,,,,,,,,,,,,,,,,,,,,,,,,,o,2.902000189,POTATO,FALSE,,,,,,,79,patata,Spanish,Sounds/spa_patata.mp3,2020-06-05_12h52.18.242,TranslationElicitation_eng-prolific,3.2.4,Win32,60,5e9629228a7eb70aaf79c1aa,,1,0,98,74,1,97
,,,,,,,,,,,,,,,,,,,,,,,,,,,,,,,,,,,,,,,,,return,3.527000189,POTATO,FALSE,,,,,,,79,patata,Spanish,Sounds/spa_patata.mp3,2020-06-05_12h52.18.242,TranslationElicitation_eng-prolific,3.2.4,Win32,60,5e9629228a7eb70aaf79c1aa,3.527000189,1,0,98,74,1,97
,,,,,,,,,,,,,,,,,,,,,,,,,,,,,,,,,,,,,,,,,,,,,,,,,,,79,patata,Spanish,Sounds/spa_patata.mp3,2020-06-05_12h52.18.242,TranslationElicitation_eng-prolific,3.2.4,Win32,60,5e9629228a7eb70aaf79c1aa,,1,0,98,74,1,97
,,,,,,,,,,,,,,,,,,,,,,,,,,,,,,,,,,,,,,,,,p,2.274999857,P,FALSE,,,,,,,80,pato,Spanish,Sounds/spa_pato.mp3,2020-06-05_12h52.18.242,TranslationElicitation_eng-prolific,3.2.4,Win32,60,5e9629228a7eb70aaf79c1aa,,1,0,98,75,1,97
,,,,,,,,,,,,,,,,,,,,,,,,,,,,,,,,,,,,,,,,,a,2.358999968,PA,FALSE,,,,,,,80,pato,Spanish,Sounds/spa_pato.mp3,2020-06-05_12h52.18.242,TranslationElicitation_eng-prolific,3.2.4,Win32,60,5e9629228a7eb70aaf79c1aa,,1,0,98,75,1,97
,,,,,,,,,,,,,,,,,,,,,,,,,,,,,,,,,,,,,,,,,t,2.651000023,PAT,FALSE,,,,,,,80,pato,Spanish,Sounds/spa_pato.mp3,2020-06-05_12h52.18.242,TranslationElicitation_eng-prolific,3.2.4,Win32,60,5e9629228a7eb70aaf79c1aa,,1,0,98,75,1,97
,,,,,,,,,,,,,,,,,,,,,,,,,,,,,,,,,,,,,,,,,e,2.733999968,PATE,FALSE,,,,,,,80,pato,Spanish,Sounds/spa_pato.mp3,2020-06-05_12h52.18.242,TranslationElicitation_eng-prolific,3.2.4,Win32,60,5e9629228a7eb70aaf79c1aa,,1,0,98,75,1,97
,,,,,,,,,,,,,,,,,,,,,,,,,,,,,,,,,,,,,,,,,return,3.924000025,PATE,FALSE,,,,,,,80,pato,Spanish,Sounds/spa_pato.mp3,2020-06-05_12h52.18.242,TranslationElicitation_eng-prolific,3.2.4,Win32,60,5e9629228a7eb70aaf79c1aa,3.924000025,1,0,98,75,1,97
,,,,,,,,,,,,,,,,,,,,,,,,,,,,,,,,,,,,,,,,,,,,,,,,,,,80,pato,Spanish,Sounds/spa_pato.mp3,2020-06-05_12h52.18.242,TranslationElicitation_eng-prolific,3.2.4,Win32,60,5e9629228a7eb70aaf79c1aa,,1,0,98,75,1,97
,,,,,,,,,,,,,,,,,,,,,,,,,,,,,,,,,,,,,,,,,b,6.537999868,B,FALSE,,,,,,,83,pez,Spanish,Sounds/spa_pez.mp3,2020-06-05_12h52.18.242,TranslationElicitation_eng-prolific,3.2.4,Win32,60,5e9629228a7eb70aaf79c1aa,,1,0,98,78,1,97
,,,,,,,,,,,,,,,,,,,,,,,,,,,,,,,,,,,,,,,,,e,6.64199996,BE,FALSE,,,,,,,83,pez,Spanish,Sounds/spa_pez.mp3,2020-06-05_12h52.18.242,TranslationElicitation_eng-prolific,3.2.4,Win32,60,5e9629228a7eb70aaf79c1aa,,1,0,98,78,1,97
,,,,,,,,,,,,,,,,,,,,,,,,,,,,,,,,,,,,,,,,,d,6.828999996,BED,FALSE,,,,,,,83,pez,Spanish,Sounds/spa_pez.mp3,2020-06-05_12h52.18.242,TranslationElicitation_eng-prolific,3.2.4,Win32,60,5e9629228a7eb70aaf79c1aa,,1,0,98,78,1,97
,,,,,,,,,,,,,,,,,,,,,,,,,,,,,,,,,,,,,,,,,return,7.059000015,BED,FALSE,,,,,,,83,pez,Spanish,Sounds/spa_pez.mp3,2020-06-05_12h52.18.242,TranslationElicitation_eng-prolific,3.2.4,Win32,60,5e9629228a7eb70aaf79c1aa,7.059000015,1,0,98,78,1,97
,,,,,,,,,,,,,,,,,,,,,,,,,,,,,,,,,,,,,,,,,,,,,,,,,,,83,pez,Spanish,Sounds/spa_pez.mp3,2020-06-05_12h52.18.242,TranslationElicitation_eng-prolific,3.2.4,Win32,60,5e9629228a7eb70aaf79c1aa,,1,0,98,78,1,97
,,,,,,,,,,,,,,,,,,,,,,,,,,,,,,,,,,,,,,,,,g,2.075999975,G,FALSE,,,,,,,43,globo,Spanish,Sounds/spa_globo.mp3,2020-06-05_12h52.18.242,TranslationElicitation_eng-prolific,3.2.4,Win32,60,5e9629228a7eb70aaf79c1aa,,1,0,98,39,1,97
,,,,,,,,,,,,,,,,,,,,,,,,,,,,,,,,,,,,,,,,,l,2.236999989,GL,FALSE,,,,,,,43,globo,Spanish,Sounds/spa_globo.mp3,2020-06-05_12h52.18.242,TranslationElicitation_eng-prolific,3.2.4,Win32,60,5e9629228a7eb70aaf79c1aa,,1,0,98,39,1,97
,,,,,,,,,,,,,,,,,,,,,,,,,,,,,,,,,,,,,,,,,o,2.424000025,GLO,FALSE,,,,,,,43,globo,Spanish,Sounds/spa_globo.mp3,2020-06-05_12h52.18.242,TranslationElicitation_eng-prolific,3.2.4,Win32,60,5e9629228a7eb70aaf79c1aa,,1,0,98,39,1,97
,,,,,,,,,,,,,,,,,,,,,,,,,,,,,,,,,,,,,,,,,b,2.506999969,GLOB,FALSE,,,,,,,43,globo,Spanish,Sounds/spa_globo.mp3,2020-06-05_12h52.18.242,TranslationElicitation_eng-prolific,3.2.4,Win32,60,5e9629228a7eb70aaf79c1aa,,1,0,98,39,1,97
,,,,,,,,,,,,,,,,,,,,,,,,,,,,,,,,,,,,,,,,,e,2.632999897,GLOBE,FALSE,,,,,,,43,globo,Spanish,Sounds/spa_globo.mp3,2020-06-05_12h52.18.242,TranslationElicitation_eng-prolific,3.2.4,Win32,60,5e9629228a7eb70aaf79c1aa,,1,0,98,39,1,97
,,,,,,,,,,,,,,,,,,,,,,,,,,,,,,,,,,,,,,,,,return,3.859999895,GLOBE,FALSE,,,,,,,43,globo,Spanish,Sounds/spa_globo.mp3,2020-06-05_12h52.18.242,TranslationElicitation_eng-prolific,3.2.4,Win32,60,5e9629228a7eb70aaf79c1aa,3.859999895,1,0,98,39,1,97
,,,,,,,,,,,,,,,,,,,,,,,,,,,,,,,,,,,,,,,,,,,,,,,,,,,43,globo,Spanish,Sounds/spa_globo.mp3,2020-06-05_12h52.18.242,TranslationElicitation_eng-prolific,3.2.4,Win32,60,5e9629228a7eb70aaf79c1aa,,1,0,98,39,1,97
,,,,,,,,,,,,,,,,,,,,,,,,,,,,,,,,,,,,,,,,,b,5.937999964,B,FALSE,,,,,,,13,buho,Spanish,Sounds/spa_buho.mp3,2020-06-05_12h52.18.242,TranslationElicitation_eng-prolific,3.2.4,Win32,60,5e9629228a7eb70aaf79c1aa,,1,0,98,11,1,97
,,,,,,,,,,,,,,,,,,,,,,,,,,,,,,,,,,,,,,,,,o,6.083999872,BO,FALSE,,,,,,,13,buho,Spanish,Sounds/spa_buho.mp3,2020-06-05_12h52.18.242,TranslationElicitation_eng-prolific,3.2.4,Win32,60,5e9629228a7eb70aaf79c1aa,,1,0,98,11,1,97
,,,,,,,,,,,,,,,,,,,,,,,,,,,,,,,,,,,,,,,,,y,6.191999912,BOY,FALSE,,,,,,,13,buho,Spanish,Sounds/spa_buho.mp3,2020-06-05_12h52.18.242,TranslationElicitation_eng-prolific,3.2.4,Win32,60,5e9629228a7eb70aaf79c1aa,,1,0,98,11,1,97
,,,,,,,,,,,,,,,,,,,,,,,,,,,,,,,,,,,,,,,,,return,6.603999853,BOY,FALSE,,,,,,,13,buho,Spanish,Sounds/spa_buho.mp3,2020-06-05_12h52.18.242,TranslationElicitation_eng-prolific,3.2.4,Win32,60,5e9629228a7eb70aaf79c1aa,6.603999853,1,0,98,11,1,97
,,,,,,,,,,,,,,,,,,,,,,,,,,,,,,,,,,,,,,,,,,,,,,,,,,,13,buho,Spanish,Sounds/spa_buho.mp3,2020-06-05_12h52.18.242,TranslationElicitation_eng-prolific,3.2.4,Win32,60,5e9629228a7eb70aaf79c1aa,,1,0,98,11,1,97
,,,,,,,,,,,,,,,,,,,,,,,,,,,,,,,,,,,,,,,,,c,1.897000074,C,FALSE,,,,,,,29,coche,Spanish,Sounds/spa_coche.mp3,2020-06-05_12h52.18.242,TranslationElicitation_eng-prolific,3.2.4,Win32,60,5e9629228a7eb70aaf79c1aa,,1,0,98,26,1,97
,,,,,,,,,,,,,,,,,,,,,,,,,,,,,,,,,,,,,,,,,o,2.042000055,CO,FALSE,,,,,,,29,coche,Spanish,Sounds/spa_coche.mp3,2020-06-05_12h52.18.242,TranslationElicitation_eng-prolific,3.2.4,Win32,60,5e9629228a7eb70aaf79c1aa,,1,0,98,26,1,97
,,,,,,,,,,,,,,,,,,,,,,,,,,,,,,,,,,,,,,,,,a,2.187999964,COA,FALSE,,,,,,,29,coche,Spanish,Sounds/spa_coche.mp3,2020-06-05_12h52.18.242,TranslationElicitation_eng-prolific,3.2.4,Win32,60,5e9629228a7eb70aaf79c1aa,,1,0,98,26,1,97
,,,,,,,,,,,,,,,,,,,,,,,,,,,,,,,,,,,,,,,,,c,2.437999964,COAC,FALSE,,,,,,,29,coche,Spanish,Sounds/spa_coche.mp3,2020-06-05_12h52.18.242,TranslationElicitation_eng-prolific,3.2.4,Win32,60,5e9629228a7eb70aaf79c1aa,,1,0,98,26,1,97
,,,,,,,,,,,,,,,,,,,,,,,,,,,,,,,,,,,,,,,,,h,2.633000135,COACH,FALSE,,,,,,,29,coche,Spanish,Sounds/spa_coche.mp3,2020-06-05_12h52.18.242,TranslationElicitation_eng-prolific,3.2.4,Win32,60,5e9629228a7eb70aaf79c1aa,,1,0,98,26,1,97
,,,,,,,,,,,,,,,,,,,,,,,,,,,,,,,,,,,,,,,,,return,3.437999964,COACH,FALSE,,,,,,,29,coche,Spanish,Sounds/spa_coche.mp3,2020-06-05_12h52.18.242,TranslationElicitation_eng-prolific,3.2.4,Win32,60,5e9629228a7eb70aaf79c1aa,3.437999964,1,0,98,26,1,97
,,,,,,,,,,,,,,,,,,,,,,,,,,,,,,,,,,,,,,,,,,,,,,,,,,,29,coche,Spanish,Sounds/spa_coche.mp3,2020-06-05_12h52.18.242,TranslationElicitation_eng-prolific,3.2.4,Win32,60,5e9629228a7eb70aaf79c1aa,,1,0,98,26,1,97
,,,,,,,,,,,,,,,,,,,,,,,,,,,,,,,,,,,,,,,,,p,1.604000092,P,FALSE,,,,,,,85,pierna,Spanish,Sounds/spa_pierna.mp3,2020-06-05_12h52.18.242,TranslationElicitation_eng-prolific,3.2.4,Win32,60,5e9629228a7eb70aaf79c1aa,,1,0,98,80,1,97
,,,,,,,,,,,,,,,,,,,,,,,,,,,,,,,,,,,,,,,,,i,1.834000111,PI,FALSE,,,,,,,85,pierna,Spanish,Sounds/spa_pierna.mp3,2020-06-05_12h52.18.242,TranslationElicitation_eng-prolific,3.2.4,Win32,60,5e9629228a7eb70aaf79c1aa,,1,0,98,80,1,97
,,,,,,,,,,,,,,,,,,,,,,,,,,,,,,,,,,,,,,,,,a,1.958000183,PIA,FALSE,,,,,,,85,pierna,Spanish,Sounds/spa_pierna.mp3,2020-06-05_12h52.18.242,TranslationElicitation_eng-prolific,3.2.4,Win32,60,5e9629228a7eb70aaf79c1aa,,1,0,98,80,1,97
,,,,,,,,,,,,,,,,,,,,,,,,,,,,,,,,,,,,,,,,,n,2.146000147,PIAN,FALSE,,,,,,,85,pierna,Spanish,Sounds/spa_pierna.mp3,2020-06-05_12h52.18.242,TranslationElicitation_eng-prolific,3.2.4,Win32,60,5e9629228a7eb70aaf79c1aa,,1,0,98,80,1,97
,,,,,,,,,,,,,,,,,,,,,,,,,,,,,,,,,,,,,,,,,o,2.312999964,PIANO,FALSE,,,,,,,85,pierna,Spanish,Sounds/spa_pierna.mp3,2020-06-05_12h52.18.242,TranslationElicitation_eng-prolific,3.2.4,Win32,60,5e9629228a7eb70aaf79c1aa,,1,0,98,80,1,97
,,,,,,,,,,,,,,,,,,,,,,,,,,,,,,,,,,,,,,,,,return,3.209000111,PIANO,FALSE,,,,,,,85,pierna,Spanish,Sounds/spa_pierna.mp3,2020-06-05_12h52.18.242,TranslationElicitation_eng-prolific,3.2.4,Win32,60,5e9629228a7eb70aaf79c1aa,3.209000111,1,0,98,80,1,97
,,,,,,,,,,,,,,,,,,,,,,,,,,,,,,,,,,,,,,,,,,,,,,,,,,,85,pierna,Spanish,Sounds/spa_pierna.mp3,2020-06-05_12h52.18.242,TranslationElicitation_eng-prolific,3.2.4,Win32,60,5e9629228a7eb70aaf79c1aa,,1,0,98,80,1,97
,,,,,,,,,,,,,,,,,,,,,,,,,,,,,,,,,,,,,,,,,m,3.228999853,M,FALSE,,,,,,,66,moto,Spanish,Sounds/spa_moto.mp3,2020-06-05_12h52.18.242,TranslationElicitation_eng-prolific,3.2.4,Win32,60,5e9629228a7eb70aaf79c1aa,,1,0,98,62,1,97
,,,,,,,,,,,,,,,,,,,,,,,,,,,,,,,,,,,,,,,,,o,3.353999853,MO,FALSE,,,,,,,66,moto,Spanish,Sounds/spa_moto.mp3,2020-06-05_12h52.18.242,TranslationElicitation_eng-prolific,3.2.4,Win32,60,5e9629228a7eb70aaf79c1aa,,1,0,98,62,1,97
,,,,,,,,,,,,,,,,,,,,,,,,,,,,,,,,,,,,,,,,,t,3.478999853,MOT,FALSE,,,,,,,66,moto,Spanish,Sounds/spa_moto.mp3,2020-06-05_12h52.18.242,TranslationElicitation_eng-prolific,3.2.4,Win32,60,5e9629228a7eb70aaf79c1aa,,1,0,98,62,1,97
,,,,,,,,,,,,,,,,,,,,,,,,,,,,,,,,,,,,,,,,,t,3.625,MOTT,FALSE,,,,,,,66,moto,Spanish,Sounds/spa_moto.mp3,2020-06-05_12h52.18.242,TranslationElicitation_eng-prolific,3.2.4,Win32,60,5e9629228a7eb70aaf79c1aa,,1,0,98,62,1,97
,,,,,,,,,,,,,,,,,,,,,,,,,,,,,,,,,,,,,,,,,o,3.75,MOTTO,FALSE,,,,,,,66,moto,Spanish,Sounds/spa_moto.mp3,2020-06-05_12h52.18.242,TranslationElicitation_eng-prolific,3.2.4,Win32,60,5e9629228a7eb70aaf79c1aa,,1,0,98,62,1,97
,,,,,,,,,,,,,,,,,,,,,,,,,,,,,,,,,,,,,,,,,return,4.125999928,MOTTO,FALSE,,,,,,,66,moto,Spanish,Sounds/spa_moto.mp3,2020-06-05_12h52.18.242,TranslationElicitation_eng-prolific,3.2.4,Win32,60,5e9629228a7eb70aaf79c1aa,4.125999928,1,0,98,62,1,97
,,,,,,,,,,,,,,,,,,,,,,,,,,,,,,,,,,,,,,,,,,,,,,,,,,,66,moto,Spanish,Sounds/spa_moto.mp3,2020-06-05_12h52.18.242,TranslationElicitation_eng-prolific,3.2.4,Win32,60,5e9629228a7eb70aaf79c1aa,,1,0,98,62,1,97
,,,,,,,,,,,,,,,,,,,,,,,,,,,,,,,,,,,,,,,,,h,6.565999985,H,FALSE,,,,,,,50,jirafa,Spanish,Sounds/spa_jirafa.mp3,2020-06-05_12h52.18.242,TranslationElicitation_eng-prolific,3.2.4,Win32,60,5e9629228a7eb70aaf79c1aa,,1,0,98,46,1,97
,,,,,,,,,,,,,,,,,,,,,,,,,,,,,,,,,,,,,,,,,e,6.650000095,HE,FALSE,,,,,,,50,jirafa,Spanish,Sounds/spa_jirafa.mp3,2020-06-05_12h52.18.242,TranslationElicitation_eng-prolific,3.2.4,Win32,60,5e9629228a7eb70aaf79c1aa,,1,0,98,46,1,97
,,,,,,,,,,,,,,,,,,,,,,,,,,,,,,,,,,,,,,,,,r,6.832999945,HER,FALSE,,,,,,,50,jirafa,Spanish,Sounds/spa_jirafa.mp3,2020-06-05_12h52.18.242,TranslationElicitation_eng-prolific,3.2.4,Win32,60,5e9629228a7eb70aaf79c1aa,,1,0,98,46,1,97
,,,,,,,,,,,,,,,,,,,,,,,,,,,,,,,,,,,,,,,,,o,6.957999945,HERO,FALSE,,,,,,,50,jirafa,Spanish,Sounds/spa_jirafa.mp3,2020-06-05_12h52.18.242,TranslationElicitation_eng-prolific,3.2.4,Win32,60,5e9629228a7eb70aaf79c1aa,,1,0,98,46,1,97
,,,,,,,,,,,,,,,,,,,,,,,,,,,,,,,,,,,,,,,,,return,7.437999964,HERO,FALSE,,,,,,,50,jirafa,Spanish,Sounds/spa_jirafa.mp3,2020-06-05_12h52.18.242,TranslationElicitation_eng-prolific,3.2.4,Win32,60,5e9629228a7eb70aaf79c1aa,7.437999964,1,0,98,46,1,97
,,,,,,,,,,,,,,,,,,,,,,,,,,,,,,,,,,,,,,,,,,,,,,,,,,,50,jirafa,Spanish,Sounds/spa_jirafa.mp3,2020-06-05_12h52.18.242,TranslationElicitation_eng-prolific,3.2.4,Win32,60,5e9629228a7eb70aaf79c1aa,,1,0,98,46,1,97
,,,,,,,,,,,,,,,,,,,,,,,,,,,,,,,,,,,,,,,,,p,4.585000038,P,FALSE,,,,,,,72,osito,Spanish,Sounds/spa_osito.mp3,2020-06-05_12h52.18.242,TranslationElicitation_eng-prolific,3.2.4,Win32,60,5e9629228a7eb70aaf79c1aa,,1,0,98,67,1,97
,,,,,,,,,,,,,,,,,,,,,,,,,,,,,,,,,,,,,,,,,o,4.772000074,PO,FALSE,,,,,,,72,osito,Spanish,Sounds/spa_osito.mp3,2020-06-05_12h52.18.242,TranslationElicitation_eng-prolific,3.2.4,Win32,60,5e9629228a7eb70aaf79c1aa,,1,0,98,67,1,97
,,,,,,,,,,,,,,,,,,,,,,,,,,,,,,,,,,,,,,,,,l,4.959000111,POL,FALSE,,,,,,,72,osito,Spanish,Sounds/spa_osito.mp3,2020-06-05_12h52.18.242,TranslationElicitation_eng-prolific,3.2.4,Win32,60,5e9629228a7eb70aaf79c1aa,,1,0,98,67,1,97
,,,,,,,,,,,,,,,,,,,,,,,,,,,,,,,,,,,,,,,,,i,5.145999908,POLI,FALSE,,,,,,,72,osito,Spanish,Sounds/spa_osito.mp3,2020-06-05_12h52.18.242,TranslationElicitation_eng-prolific,3.2.4,Win32,60,5e9629228a7eb70aaf79c1aa,,1,0,98,67,1,97
,,,,,,,,,,,,,,,,,,,,,,,,,,,,,,,,,,,,,,,,,c,5.25,POLIC,FALSE,,,,,,,72,osito,Spanish,Sounds/spa_osito.mp3,2020-06-05_12h52.18.242,TranslationElicitation_eng-prolific,3.2.4,Win32,60,5e9629228a7eb70aaf79c1aa,,1,0,98,67,1,97
,,,,,,,,,,,,,,,,,,,,,,,,,,,,,,,,,,,,,,,,,w,5.395999908,POLICW,FALSE,,,,,,,72,osito,Spanish,Sounds/spa_osito.mp3,2020-06-05_12h52.18.242,TranslationElicitation_eng-prolific,3.2.4,Win32,60,5e9629228a7eb70aaf79c1aa,,1,0,98,67,1,97
,,,,,,,,,,,,,,,,,,,,,,,,,,,,,,,,,,,,,,,,,backspace,5.895999908,POLIC,TRUE,,,,,,,72,osito,Spanish,Sounds/spa_osito.mp3,2020-06-05_12h52.18.242,TranslationElicitation_eng-prolific,3.2.4,Win32,60,5e9629228a7eb70aaf79c1aa,,1,0,98,67,1,97
,,,,,,,,,,,,,,,,,,,,,,,,,,,,,,,,,,,,,,,,,e,6.041000128,POLICE,TRUE,,,,,,,72,osito,Spanish,Sounds/spa_osito.mp3,2020-06-05_12h52.18.242,TranslationElicitation_eng-prolific,3.2.4,Win32,60,5e9629228a7eb70aaf79c1aa,,1,0,98,67,1,97
,,,,,,,,,,,,,,,,,,,,,,,,,,,,,,,,,,,,,,,,,return,6.374000072,POLICE,TRUE,,,,,,,72,osito,Spanish,Sounds/spa_osito.mp3,2020-06-05_12h52.18.242,TranslationElicitation_eng-prolific,3.2.4,Win32,60,5e9629228a7eb70aaf79c1aa,6.374000072,1,0,98,67,1,97
,,,,,,,,,,,,,,,,,,,,,,,,,,,,,,,,,,,,,,,,,,,,,,,,,,,72,osito,Spanish,Sounds/spa_osito.mp3,2020-06-05_12h52.18.242,TranslationElicitation_eng-prolific,3.2.4,Win32,60,5e9629228a7eb70aaf79c1aa,,1,0,98,67,1,97
,,,,,,,,,,,,,,,,,,,,,,,,,,,,,,,,,,,,,,,,,c,5.568000078,C,FALSE,,,,,,,31,cubo,Spanish,Sounds/spa_cubo.mp3,2020-06-05_12h52.18.242,TranslationElicitation_eng-prolific,3.2.4,Win32,60,5e9629228a7eb70aaf79c1aa,,1,0,98,27,1,97
,,,,,,,,,,,,,,,,,,,,,,,,,,,,,,,,,,,,,,,,,o,5.861000061,CO,FALSE,,,,,,,31,cubo,Spanish,Sounds/spa_cubo.mp3,2020-06-05_12h52.18.242,TranslationElicitation_eng-prolific,3.2.4,Win32,60,5e9629228a7eb70aaf79c1aa,,1,0,98,27,1,97
,,,,,,,,,,,,,,,,,,,,,,,,,,,,,,,,,,,,,,,,,o,6.02699995,COO,FALSE,,,,,,,31,cubo,Spanish,Sounds/spa_cubo.mp3,2020-06-05_12h52.18.242,TranslationElicitation_eng-prolific,3.2.4,Win32,60,5e9629228a7eb70aaf79c1aa,,1,0,98,27,1,97
,,,,,,,,,,,,,,,,,,,,,,,,,,,,,,,,,,,,,,,,,l,6.234999895,COOL,FALSE,,,,,,,31,cubo,Spanish,Sounds/spa_cubo.mp3,2020-06-05_12h52.18.242,TranslationElicitation_eng-prolific,3.2.4,Win32,60,5e9629228a7eb70aaf79c1aa,,1,0,98,27,1,97
,,,,,,,,,,,,,,,,,,,,,,,,,,,,,,,,,,,,,,,,,return,6.50999999,COOL,FALSE,,,,,,,31,cubo,Spanish,Sounds/spa_cubo.mp3,2020-06-05_12h52.18.242,TranslationElicitation_eng-prolific,3.2.4,Win32,60,5e9629228a7eb70aaf79c1aa,6.50999999,1,0,98,27,1,97
,,,,,,,,,,,,,,,,,,,,,,,,,,,,,,,,,,,,,,,,,,,,,,,,,,,31,cubo,Spanish,Sounds/spa_cubo.mp3,2020-06-05_12h52.18.242,TranslationElicitation_eng-prolific,3.2.4,Win32,60,5e9629228a7eb70aaf79c1aa,,1,0,98,27,1,97
,,,,,,,,,,,,,,,,,,,,,,,,,,,,,,,,,,,,,,,,,b,2.542000055,B,FALSE,,,,,,,100,toro,Spanish,Sounds/spa_toro.mp3,2020-06-05_12h52.18.242,TranslationElicitation_eng-prolific,3.2.4,Win32,60,5e9629228a7eb70aaf79c1aa,,1,0,98,94,1,97
,,,,,,,,,,,,,,,,,,,,,,,,,,,,,,,,,,,,,,,,,u,2.855000019,BU,FALSE,,,,,,,100,toro,Spanish,Sounds/spa_toro.mp3,2020-06-05_12h52.18.242,TranslationElicitation_eng-prolific,3.2.4,Win32,60,5e9629228a7eb70aaf79c1aa,,1,0,98,94,1,97
