consentKey.keys,consentKey.rt,languageL1Key.keys,languageL1Key.rt,languageL2,languageL2OralKey.keys,languageL2OralKey.rt,languageL2WrittenKey.keys,languageL2WrittenKey.rt,languageL3,languageL3OralKey.keys,languageL3OralKey.rt,languageL3WrittenKey.keys,languageL3WrittenKey.rt,languageCatalanOralKey.keys,languageCatalanOralKey.rt,languageCatalanWrittenKey.keys,languageCatalanWrittenKey.rt,languageCatalanTimeKey.keys,languageCatalanTimeKey.rt,languageSpanishOralKey.keys,languageSpanishOralKey.rt,languageSpanishWrittenKey.keys,languageSpanishWrittenKey.rt,languageSpanishTimeKey.keys,languageSpanishTimeKey.rt,age,demoSexKey.keys,demoSexKey.rt,demoEducationKey.keys,demoEducationKey.rt,city,demoVisionKey.keys,demoVisionKey.rt,demoLanguageKey.keys,demoLanguageKey.rt,setupLocationKey.keys,setupLocationKey.rt,setupNoiseKey.keys,setupNoiseKey.rt,instructionsKeys.keys,instructionsKeys.rt,keyPressed,keyPressTime,inputText,error,trialsPracticeSpanish.thisRepN,trialsPracticeSpanish.thisTrialN,trialsPracticeSpanish.thisN,trialsPracticeSpanish.thisIndex,trialsPracticeSpanish.ran,trialsPracticeSpanish.order,trial_id,word,test_language,soundfile,date,expName,psychopyVersion,OS,frameRate,participant,trialOffset,trialsSpanish.thisRepN,trialsSpanish.thisTrialN,trialsSpanish.thisN,trialsSpanish.thisIndex,trialsSpanish.ran,trialsSpanish.order
space,6.029999971,e,4.437000036,RUSSIAN,3,28.36099982,3,19.41100001,,,,,,1,3.337000132,1,2.590999842,1,6.815999985,2,3.450000048,1,4.309999943,1,2.688999891,19,m,4.178999901,3,5.853000164,BIRMINGHAM,y,3.011999846,n,3.933000088,1,2.257999897,1,4.925000191,space,18.11800003,c,3.730000019,C,FALSE,1,0,5,0,1,4,1,arbol,Spanish,Sounds/spa_arbol.mp3,2020-06-24_18h26.16.849,TranslationElicitation_eng-prolific-spa,3.2.4,Win32,60,5e9b959c77f86e0a8314b0e8,,,,,,,
,,,,,,,,,,,,,,,,,,,,,,,,,,,,,,,,,,,,,,,,,,o,3.818000078,CO,FALSE,1,0,5,0,1,4,1,arbol,Spanish,Sounds/spa_arbol.mp3,2020-06-24_18h26.16.849,TranslationElicitation_eng-prolific-spa,3.2.4,Win32,60,5e9b959c77f86e0a8314b0e8,,,,,,,
,,,,,,,,,,,,,,,,,,,,,,,,,,,,,,,,,,,,,,,,,,m,4.080000162,COM,FALSE,1,0,5,0,1,4,1,arbol,Spanish,Sounds/spa_arbol.mp3,2020-06-24_18h26.16.849,TranslationElicitation_eng-prolific-spa,3.2.4,Win32,60,5e9b959c77f86e0a8314b0e8,,,,,,,
,,,,,,,,,,,,,,,,,,,,,,,,,,,,,,,,,,,,,,,,,,e,4.167999983,COME,FALSE,1,0,5,0,1,4,1,arbol,Spanish,Sounds/spa_arbol.mp3,2020-06-24_18h26.16.849,TranslationElicitation_eng-prolific-spa,3.2.4,Win32,60,5e9b959c77f86e0a8314b0e8,,,,,,,
,,,,,,,,,,,,,,,,,,,,,,,,,,,,,,,,,,,,,,,,,,space,4.722000122,COME ,FALSE,1,0,5,0,1,4,1,arbol,Spanish,Sounds/spa_arbol.mp3,2020-06-24_18h26.16.849,TranslationElicitation_eng-prolific-spa,3.2.4,Win32,60,5e9b959c77f86e0a8314b0e8,,,,,,,
,,,,,,,,,,,,,,,,,,,,,,,,,,,,,,,,,,,,,,,,,,o,5.394999981,COME O,FALSE,1,0,5,0,1,4,1,arbol,Spanish,Sounds/spa_arbol.mp3,2020-06-24_18h26.16.849,TranslationElicitation_eng-prolific-spa,3.2.4,Win32,60,5e9b959c77f86e0a8314b0e8,,,,,,,
,,,,,,,,,,,,,,,,,,,,,,,,,,,,,,,,,,,,,,,,,,n,5.560000181,COME ON,FALSE,1,0,5,0,1,4,1,arbol,Spanish,Sounds/spa_arbol.mp3,2020-06-24_18h26.16.849,TranslationElicitation_eng-prolific-spa,3.2.4,Win32,60,5e9b959c77f86e0a8314b0e8,,,,,,,
,,,,,,,,,,,,,,,,,,,,,,,,,,,,,,,,,,,,,,,,,,return,6.229000092,COME ON,FALSE,1,0,5,0,1,4,1,arbol,Spanish,Sounds/spa_arbol.mp3,2020-06-24_18h26.16.849,TranslationElicitation_eng-prolific-spa,3.2.4,Win32,60,5e9b959c77f86e0a8314b0e8,6.229000092,,,,,,
,,,,,,,,,,,,,,,,,,,,,,,,,,,,,,,,,,,,,,,,,,,,,,1,0,5,0,1,4,1,arbol,Spanish,Sounds/spa_arbol.mp3,2020-06-24_18h26.16.849,TranslationElicitation_eng-prolific-spa,3.2.4,Win32,60,5e9b959c77f86e0a8314b0e8,,,,,,,
,,,,,,,,,,,,,,,,,,,,,,,,,,,,,,,,,,,,,,,,,,b,2.653000116,B,FALSE,1,0,5,1,1,4,30,corona,Spanish,Sounds/spa_corona.mp3,2020-06-24_18h26.16.849,TranslationElicitation_eng-prolific-spa,3.2.4,Win32,60,5e9b959c77f86e0a8314b0e8,,,,,,,
,,,,,,,,,,,,,,,,,,,,,,,,,,,,,,,,,,,,,,,,,,e,2.867000103,BE,FALSE,1,0,5,1,1,4,30,corona,Spanish,Sounds/spa_corona.mp3,2020-06-24_18h26.16.849,TranslationElicitation_eng-prolific-spa,3.2.4,Win32,60,5e9b959c77f86e0a8314b0e8,,,,,,,
,,,,,,,,,,,,,,,,,,,,,,,,,,,,,,,,,,,,,,,,,,e,3.038000107,BEE,FALSE,1,0,5,1,1,4,30,corona,Spanish,Sounds/spa_corona.mp3,2020-06-24_18h26.16.849,TranslationElicitation_eng-prolific-spa,3.2.4,Win32,60,5e9b959c77f86e0a8314b0e8,,,,,,,
,,,,,,,,,,,,,,,,,,,,,,,,,,,,,,,,,,,,,,,,,,r,3.289999962,BEER,FALSE,1,0,5,1,1,4,30,corona,Spanish,Sounds/spa_corona.mp3,2020-06-24_18h26.16.849,TranslationElicitation_eng-prolific-spa,3.2.4,Win32,60,5e9b959c77f86e0a8314b0e8,,,,,,,
,,,,,,,,,,,,,,,,,,,,,,,,,,,,,,,,,,,,,,,,,,return,3.809999943,BEER,FALSE,1,0,5,1,1,4,30,corona,Spanish,Sounds/spa_corona.mp3,2020-06-24_18h26.16.849,TranslationElicitation_eng-prolific-spa,3.2.4,Win32,60,5e9b959c77f86e0a8314b0e8,3.809999943,,,,,,
,,,,,,,,,,,,,,,,,,,,,,,,,,,,,,,,,,,,,,,,,,,,,,1,0,5,1,1,4,30,corona,Spanish,Sounds/spa_corona.mp3,2020-06-24_18h26.16.849,TranslationElicitation_eng-prolific-spa,3.2.4,Win32,60,5e9b959c77f86e0a8314b0e8,,,,,,,
,,,,,,,,,,,,,,,,,,,,,,,,,,,,,,,,,,,,,,,,,,b,14.62199998,B,FALSE,1,0,5,2,1,4,26,chaqueta,Spanish,Sounds/spa_chaqueta.mp3,2020-06-24_18h26.16.849,TranslationElicitation_eng-prolific-spa,3.2.4,Win32,60,5e9b959c77f86e0a8314b0e8,,,,,,,
,,,,,,,,,,,,,,,,,,,,,,,,,,,,,,,,,,,,,,,,,,backspace,14.96200013,,TRUE,1,0,5,2,1,4,26,chaqueta,Spanish,Sounds/spa_chaqueta.mp3,2020-06-24_18h26.16.849,TranslationElicitation_eng-prolific-spa,3.2.4,Win32,60,5e9b959c77f86e0a8314b0e8,,,,,,,
,,,,,,,,,,,,,,,,,,,,,,,,,,,,,,,,,,,,,,,,,,g,15.18700004,G,TRUE,1,0,5,2,1,4,26,chaqueta,Spanish,Sounds/spa_chaqueta.mp3,2020-06-24_18h26.16.849,TranslationElicitation_eng-prolific-spa,3.2.4,Win32,60,5e9b959c77f86e0a8314b0e8,,,,,,,
,,,,,,,,,,,,,,,,,,,,,,,,,,,,,,,,,,,,,,,,,,i,15.40400004,GI,TRUE,1,0,5,2,1,4,26,chaqueta,Spanish,Sounds/spa_chaqueta.mp3,2020-06-24_18h26.16.849,TranslationElicitation_eng-prolific-spa,3.2.4,Win32,60,5e9b959c77f86e0a8314b0e8,,,,,,,
,,,,,,,,,,,,,,,,,,,,,,,,,,,,,,,,,,,,,,,,,,r,15.62100005,GIR,TRUE,1,0,5,2,1,4,26,chaqueta,Spanish,Sounds/spa_chaqueta.mp3,2020-06-24_18h26.16.849,TranslationElicitation_eng-prolific-spa,3.2.4,Win32,60,5e9b959c77f86e0a8314b0e8,,,,,,,
,,,,,,,,,,,,,,,,,,,,,,,,,,,,,,,,,,,,,,,,,,l,15.78699994,GIRL,TRUE,1,0,5,2,1,4,26,chaqueta,Spanish,Sounds/spa_chaqueta.mp3,2020-06-24_18h26.16.849,TranslationElicitation_eng-prolific-spa,3.2.4,Win32,60,5e9b959c77f86e0a8314b0e8,,,,,,,
,,,,,,,,,,,,,,,,,,,,,,,,,,,,,,,,,,,,,,,,,,return,16.16400003,GIRL,TRUE,1,0,5,2,1,4,26,chaqueta,Spanish,Sounds/spa_chaqueta.mp3,2020-06-24_18h26.16.849,TranslationElicitation_eng-prolific-spa,3.2.4,Win32,60,5e9b959c77f86e0a8314b0e8,16.16400003,,,,,,
,,,,,,,,,,,,,,,,,,,,,,,,,,,,,,,,,,,,,,,,,,,,,,1,0,5,2,1,4,26,chaqueta,Spanish,Sounds/spa_chaqueta.mp3,2020-06-24_18h26.16.849,TranslationElicitation_eng-prolific-spa,3.2.4,Win32,60,5e9b959c77f86e0a8314b0e8,,,,,,,
,,,,,,,,,,,,,,,,,,,,,,,,,,,,,,,,,,,,,,,,,,h,1.630000114,H,FALSE,1,0,5,3,1,4,70,ola,Spanish,Sounds/spa_ola.mp3,2020-06-24_18h26.16.849,TranslationElicitation_eng-prolific-spa,3.2.4,Win32,60,5e9b959c77f86e0a8314b0e8,,,,,,,
,,,,,,,,,,,,,,,,,,,,,,,,,,,,,,,,,,,,,,,,,,e,1.946000099,HE,FALSE,1,0,5,3,1,4,70,ola,Spanish,Sounds/spa_ola.mp3,2020-06-24_18h26.16.849,TranslationElicitation_eng-prolific-spa,3.2.4,Win32,60,5e9b959c77f86e0a8314b0e8,,,,,,,
,,,,,,,,,,,,,,,,,,,,,,,,,,,,,,,,,,,,,,,,,,l,2.076000214,HEL,FALSE,1,0,5,3,1,4,70,ola,Spanish,Sounds/spa_ola.mp3,2020-06-24_18h26.16.849,TranslationElicitation_eng-prolific-spa,3.2.4,Win32,60,5e9b959c77f86e0a8314b0e8,,,,,,,
,,,,,,,,,,,,,,,,,,,,,,,,,,,,,,,,,,,,,,,,,,l,2.221000195,HELL,FALSE,1,0,5,3,1,4,70,ola,Spanish,Sounds/spa_ola.mp3,2020-06-24_18h26.16.849,TranslationElicitation_eng-prolific-spa,3.2.4,Win32,60,5e9b959c77f86e0a8314b0e8,,,,,,,
,,,,,,,,,,,,,,,,,,,,,,,,,,,,,,,,,,,,,,,,,,o,2.458000183,HELLO,FALSE,1,0,5,3,1,4,70,ola,Spanish,Sounds/spa_ola.mp3,2020-06-24_18h26.16.849,TranslationElicitation_eng-prolific-spa,3.2.4,Win32,60,5e9b959c77f86e0a8314b0e8,,,,,,,
,,,,,,,,,,,,,,,,,,,,,,,,,,,,,,,,,,,,,,,,,,return,2.789000034,HELLO,FALSE,1,0,5,3,1,4,70,ola,Spanish,Sounds/spa_ola.mp3,2020-06-24_18h26.16.849,TranslationElicitation_eng-prolific-spa,3.2.4,Win32,60,5e9b959c77f86e0a8314b0e8,2.789000034,,,,,,
,,,,,,,,,,,,,,,,,,,,,,,,,,,,,,,,,,,,,,,,,,,,,,1,0,5,3,1,4,70,ola,Spanish,Sounds/spa_ola.mp3,2020-06-24_18h26.16.849,TranslationElicitation_eng-prolific-spa,3.2.4,Win32,60,5e9b959c77f86e0a8314b0e8,,,,,,,
,,,,,,,,,,,,,,,,,,,,,,,,,,,,,,,,,,,,,,,,,,t,2.226999998,T,FALSE,1,0,5,4,1,4,96,tigre,Spanish,Sounds/spa_tigre.mp3,2020-06-24_18h26.16.849,TranslationElicitation_eng-prolific-spa,3.2.4,Win32,60,5e9b959c77f86e0a8314b0e8,,,,,,,
,,,,,,,,,,,,,,,,,,,,,,,,,,,,,,,,,,,,,,,,,,i,2.430999994,TI,FALSE,1,0,5,4,1,4,96,tigre,Spanish,Sounds/spa_tigre.mp3,2020-06-24_18h26.16.849,TranslationElicitation_eng-prolific-spa,3.2.4,Win32,60,5e9b959c77f86e0a8314b0e8,,,,,,,
,,,,,,,,,,,,,,,,,,,,,,,,,,,,,,,,,,,,,,,,,,g,2.509000063,TIG,FALSE,1,0,5,4,1,4,96,tigre,Spanish,Sounds/spa_tigre.mp3,2020-06-24_18h26.16.849,TranslationElicitation_eng-prolific-spa,3.2.4,Win32,60,5e9b959c77f86e0a8314b0e8,,,,,,,
,,,,,,,,,,,,,,,,,,,,,,,,,,,,,,,,,,,,,,,,,,e,3.027999878,TIGE,FALSE,1,0,5,4,1,4,96,tigre,Spanish,Sounds/spa_tigre.mp3,2020-06-24_18h26.16.849,TranslationElicitation_eng-prolific-spa,3.2.4,Win32,60,5e9b959c77f86e0a8314b0e8,,,,,,,
,,,,,,,,,,,,,,,,,,,,,,,,,,,,,,,,,,,,,,,,,,r,3.203999996,TIGER,FALSE,1,0,5,4,1,4,96,tigre,Spanish,Sounds/spa_tigre.mp3,2020-06-24_18h26.16.849,TranslationElicitation_eng-prolific-spa,3.2.4,Win32,60,5e9b959c77f86e0a8314b0e8,,,,,,,
,,,,,,,,,,,,,,,,,,,,,,,,,,,,,,,,,,,,,,,,,,return,3.381000042,TIGER,FALSE,1,0,5,4,1,4,96,tigre,Spanish,Sounds/spa_tigre.mp3,2020-06-24_18h26.16.849,TranslationElicitation_eng-prolific-spa,3.2.4,Win32,60,5e9b959c77f86e0a8314b0e8,3.381000042,,,,,,
,,,,,,,,,,,,,,,,,,,,,,,,,,,,,,,,,,,,,,,,,,,,,,1,0,5,4,1,4,96,tigre,Spanish,Sounds/spa_tigre.mp3,2020-06-24_18h26.16.849,TranslationElicitation_eng-prolific-spa,3.2.4,Win32,60,5e9b959c77f86e0a8314b0e8,,,,,,,
,,,,,,,,,,,,,,,,,,,,,,,,,,,,,,,,,,,,,,,,,,h,12.39099979,H,FALSE,,,,,,,32,cuchara,Spanish,Sounds/spa_cuchara.mp3,2020-06-24_18h26.16.849,TranslationElicitation_eng-prolific-spa,3.2.4,Win32,60,5e9b959c77f86e0a8314b0e8,,1,0,98,28,1,97
,,,,,,,,,,,,,,,,,,,,,,,,,,,,,,,,,,,,,,,,,,o,12.79299998,HO,FALSE,,,,,,,32,cuchara,Spanish,Sounds/spa_cuchara.mp3,2020-06-24_18h26.16.849,TranslationElicitation_eng-prolific-spa,3.2.4,Win32,60,5e9b959c77f86e0a8314b0e8,,1,0,98,28,1,97
,,,,,,,,,,,,,,,,,,,,,,,,,,,,,,,,,,,,,,,,,,backspace,13.54299998,H,TRUE,,,,,,,32,cuchara,Spanish,Sounds/spa_cuchara.mp3,2020-06-24_18h26.16.849,TranslationElicitation_eng-prolific-spa,3.2.4,Win32,60,5e9b959c77f86e0a8314b0e8,,1,0,98,28,1,97
,,,,,,,,,,,,,,,,,,,,,,,,,,,,,,,,,,,,,,,,,,backspace,13.73599982,,TRUE,,,,,,,32,cuchara,Spanish,Sounds/spa_cuchara.mp3,2020-06-24_18h26.16.849,TranslationElicitation_eng-prolific-spa,3.2.4,Win32,60,5e9b959c77f86e0a8314b0e8,,1,0,98,28,1,97
,,,,,,,,,,,,,,,,,,,,,,,,,,,,,,,,,,,,,,,,,,b,14.59299994,B,TRUE,,,,,,,32,cuchara,Spanish,Sounds/spa_cuchara.mp3,2020-06-24_18h26.16.849,TranslationElicitation_eng-prolific-spa,3.2.4,Win32,60,5e9b959c77f86e0a8314b0e8,,1,0,98,28,1,97
,,,,,,,,,,,,,,,,,,,,,,,,,,,,,,,,,,,,,,,,,,a,14.69899988,BA,TRUE,,,,,,,32,cuchara,Spanish,Sounds/spa_cuchara.mp3,2020-06-24_18h26.16.849,TranslationElicitation_eng-prolific-spa,3.2.4,Win32,60,5e9b959c77f86e0a8314b0e8,,1,0,98,28,1,97
,,,,,,,,,,,,,,,,,,,,,,,,,,,,,,,,,,,,,,,,,,b,14.81499982,BAB,TRUE,,,,,,,32,cuchara,Spanish,Sounds/spa_cuchara.mp3,2020-06-24_18h26.16.849,TranslationElicitation_eng-prolific-spa,3.2.4,Win32,60,5e9b959c77f86e0a8314b0e8,,1,0,98,28,1,97
,,,,,,,,,,,,,,,,,,,,,,,,,,,,,,,,,,,,,,,,,,y,15.04399991,BABY,TRUE,,,,,,,32,cuchara,Spanish,Sounds/spa_cuchara.mp3,2020-06-24_18h26.16.849,TranslationElicitation_eng-prolific-spa,3.2.4,Win32,60,5e9b959c77f86e0a8314b0e8,,1,0,98,28,1,97
,,,,,,,,,,,,,,,,,,,,,,,,,,,,,,,,,,,,,,,,,,return,15.41799998,BABY,TRUE,,,,,,,32,cuchara,Spanish,Sounds/spa_cuchara.mp3,2020-06-24_18h26.16.849,TranslationElicitation_eng-prolific-spa,3.2.4,Win32,60,5e9b959c77f86e0a8314b0e8,15.41799998,1,0,98,28,1,97
,,,,,,,,,,,,,,,,,,,,,,,,,,,,,,,,,,,,,,,,,,,,,,,,,,,,32,cuchara,Spanish,Sounds/spa_cuchara.mp3,2020-06-24_18h26.16.849,TranslationElicitation_eng-prolific-spa,3.2.4,Win32,60,5e9b959c77f86e0a8314b0e8,,1,0,98,28,1,97
,,,,,,,,,,,,,,,,,,,,,,,,,,,,,,,,,,,,,,,,,,b,5.111000061,B,FALSE,,,,,,,18,camisa,Spanish,Sounds/spa_camisa.mp3,2020-06-24_18h26.16.849,TranslationElicitation_eng-prolific-spa,3.2.4,Win32,60,5e9b959c77f86e0a8314b0e8,,1,0,98,16,1,97
,,,,,,,,,,,,,,,,,,,,,,,,,,,,,,,,,,,,,,,,,,u,5.246000051,BU,FALSE,,,,,,,18,camisa,Spanish,Sounds/spa_camisa.mp3,2020-06-24_18h26.16.849,TranslationElicitation_eng-prolific-spa,3.2.4,Win32,60,5e9b959c77f86e0a8314b0e8,,1,0,98,16,1,97
,,,,,,,,,,,,,,,,,,,,,,,,,,,,,,,,,,,,,,,,,,i,5.446000099,BUI,FALSE,,,,,,,18,camisa,Spanish,Sounds/spa_camisa.mp3,2020-06-24_18h26.16.849,TranslationElicitation_eng-prolific-spa,3.2.4,Win32,60,5e9b959c77f86e0a8314b0e8,,1,0,98,16,1,97
,,,,,,,,,,,,,,,,,,,,,,,,,,,,,,,,,,,,,,,,,,l,5.782000065,BUIL,FALSE,,,,,,,18,camisa,Spanish,Sounds/spa_camisa.mp3,2020-06-24_18h26.16.849,TranslationElicitation_eng-prolific-spa,3.2.4,Win32,60,5e9b959c77f86e0a8314b0e8,,1,0,98,16,1,97
,,,,,,,,,,,,,,,,,,,,,,,,,,,,,,,,,,,,,,,,,,d,5.90199995,BUILD,FALSE,,,,,,,18,camisa,Spanish,Sounds/spa_camisa.mp3,2020-06-24_18h26.16.849,TranslationElicitation_eng-prolific-spa,3.2.4,Win32,60,5e9b959c77f86e0a8314b0e8,,1,0,98,16,1,97
,,,,,,,,,,,,,,,,,,,,,,,,,,,,,,,,,,,,,,,,,,i,6.097000122,BUILDI,FALSE,,,,,,,18,camisa,Spanish,Sounds/spa_camisa.mp3,2020-06-24_18h26.16.849,TranslationElicitation_eng-prolific-spa,3.2.4,Win32,60,5e9b959c77f86e0a8314b0e8,,1,0,98,16,1,97
,,,,,,,,,,,,,,,,,,,,,,,,,,,,,,,,,,,,,,,,,,n,6.368999958,BUILDIN,FALSE,,,,,,,18,camisa,Spanish,Sounds/spa_camisa.mp3,2020-06-24_18h26.16.849,TranslationElicitation_eng-prolific-spa,3.2.4,Win32,60,5e9b959c77f86e0a8314b0e8,,1,0,98,16,1,97
,,,,,,,,,,,,,,,,,,,,,,,,,,,,,,,,,,,,,,,,,,g,6.516000032,BUILDING,FALSE,,,,,,,18,camisa,Spanish,Sounds/spa_camisa.mp3,2020-06-24_18h26.16.849,TranslationElicitation_eng-prolific-spa,3.2.4,Win32,60,5e9b959c77f86e0a8314b0e8,,1,0,98,16,1,97
,,,,,,,,,,,,,,,,,,,,,,,,,,,,,,,,,,,,,,,,,,return,7.069000006,BUILDING,FALSE,,,,,,,18,camisa,Spanish,Sounds/spa_camisa.mp3,2020-06-24_18h26.16.849,TranslationElicitation_eng-prolific-spa,3.2.4,Win32,60,5e9b959c77f86e0a8314b0e8,7.069000006,1,0,98,16,1,97
,,,,,,,,,,,,,,,,,,,,,,,,,,,,,,,,,,,,,,,,,,,,,,,,,,,,18,camisa,Spanish,Sounds/spa_camisa.mp3,2020-06-24_18h26.16.849,TranslationElicitation_eng-prolific-spa,3.2.4,Win32,60,5e9b959c77f86e0a8314b0e8,,1,0,98,16,1,97
,,,,,,,,,,,,,,,,,,,,,,,,,,,,,,,,,,,,,,,,,,s,6.312999964,S,FALSE,,,,,,,60,manzana,Spanish,Sounds/spa_manzana.mp3,2020-06-24_18h26.16.849,TranslationElicitation_eng-prolific-spa,3.2.4,Win32,60,5e9b959c77f86e0a8314b0e8,,1,0,98,56,1,97
,,,,,,,,,,,,,,,,,,,,,,,,,,,,,,,,,,,,,,,,,,t,6.657000065,ST,FALSE,,,,,,,60,manzana,Spanish,Sounds/spa_manzana.mp3,2020-06-24_18h26.16.849,TranslationElicitation_eng-prolific-spa,3.2.4,Win32,60,5e9b959c77f86e0a8314b0e8,,1,0,98,56,1,97
,,,,,,,,,,,,,,,,,,,,,,,,,,,,,,,,,,,,,,,,,,r,7.000999928,STR,FALSE,,,,,,,60,manzana,Spanish,Sounds/spa_manzana.mp3,2020-06-24_18h26.16.849,TranslationElicitation_eng-prolific-spa,3.2.4,Win32,60,5e9b959c77f86e0a8314b0e8,,1,0,98,56,1,97
,,,,,,,,,,,,,,,,,,,,,,,,,,,,,,,,,,,,,,,,,,e,7.437000036,STRE,FALSE,,,,,,,60,manzana,Spanish,Sounds/spa_manzana.mp3,2020-06-24_18h26.16.849,TranslationElicitation_eng-prolific-spa,3.2.4,Win32,60,5e9b959c77f86e0a8314b0e8,,1,0,98,56,1,97
,,,,,,,,,,,,,,,,,,,,,,,,,,,,,,,,,,,,,,,,,,e,7.61500001,STREE,FALSE,,,,,,,60,manzana,Spanish,Sounds/spa_manzana.mp3,2020-06-24_18h26.16.849,TranslationElicitation_eng-prolific-spa,3.2.4,Win32,60,5e9b959c77f86e0a8314b0e8,,1,0,98,56,1,97
,,,,,,,,,,,,,,,,,,,,,,,,,,,,,,,,,,,,,,,,,,t,7.848999977,STREET,FALSE,,,,,,,60,manzana,Spanish,Sounds/spa_manzana.mp3,2020-06-24_18h26.16.849,TranslationElicitation_eng-prolific-spa,3.2.4,Win32,60,5e9b959c77f86e0a8314b0e8,,1,0,98,56,1,97
,,,,,,,,,,,,,,,,,,,,,,,,,,,,,,,,,,,,,,,,,,return,8.144999981,STREET,FALSE,,,,,,,60,manzana,Spanish,Sounds/spa_manzana.mp3,2020-06-24_18h26.16.849,TranslationElicitation_eng-prolific-spa,3.2.4,Win32,60,5e9b959c77f86e0a8314b0e8,8.144999981,1,0,98,56,1,97
,,,,,,,,,,,,,,,,,,,,,,,,,,,,,,,,,,,,,,,,,,,,,,,,,,,,60,manzana,Spanish,Sounds/spa_manzana.mp3,2020-06-24_18h26.16.849,TranslationElicitation_eng-prolific-spa,3.2.4,Win32,60,5e9b959c77f86e0a8314b0e8,,1,0,98,56,1,97
,,,,,,,,,,,,,,,,,,,,,,,,,,,,,,,,,,,,,,,,,,g,2.762000084,G,FALSE,,,,,,,46,grifo,Spanish,Sounds/spa_grifo.mp3,2020-06-24_18h26.16.849,TranslationElicitation_eng-prolific-spa,3.2.4,Win32,60,5e9b959c77f86e0a8314b0e8,,1,0,98,42,1,97
,,,,,,,,,,,,,,,,,,,,,,,,,,,,,,,,,,,,,,,,,,r,3.048000097,GR,FALSE,,,,,,,46,grifo,Spanish,Sounds/spa_grifo.mp3,2020-06-24_18h26.16.849,TranslationElicitation_eng-prolific-spa,3.2.4,Win32,60,5e9b959c77f86e0a8314b0e8,,1,0,98,42,1,97
,,,,,,,,,,,,,,,,,,,,,,,,,,,,,,,,,,,,,,,,,,e,3.255000114,GRE,FALSE,,,,,,,46,grifo,Spanish,Sounds/spa_grifo.mp3,2020-06-24_18h26.16.849,TranslationElicitation_eng-prolific-spa,3.2.4,Win32,60,5e9b959c77f86e0a8314b0e8,,1,0,98,42,1,97
,,,,,,,,,,,,,,,,,,,,,,,,,,,,,,,,,,,,,,,,,,i,3.360000134,GREI,FALSE,,,,,,,46,grifo,Spanish,Sounds/spa_grifo.mp3,2020-06-24_18h26.16.849,TranslationElicitation_eng-prolific-spa,3.2.4,Win32,60,5e9b959c77f86e0a8314b0e8,,1,0,98,42,1,97
,,,,,,,,,,,,,,,,,,,,,,,,,,,,,,,,,,,,,,,,,,f,3.525000095,GREIF,FALSE,,,,,,,46,grifo,Spanish,Sounds/spa_grifo.mp3,2020-06-24_18h26.16.849,TranslationElicitation_eng-prolific-spa,3.2.4,Win32,60,5e9b959c77f86e0a8314b0e8,,1,0,98,42,1,97
,,,,,,,,,,,,,,,,,,,,,,,,,,,,,,,,,,,,,,,,,,backspace,4.265000105,GREI,TRUE,,,,,,,46,grifo,Spanish,Sounds/spa_grifo.mp3,2020-06-24_18h26.16.849,TranslationElicitation_eng-prolific-spa,3.2.4,Win32,60,5e9b959c77f86e0a8314b0e8,,1,0,98,42,1,97
,,,,,,,,,,,,,,,,,,,,,,,,,,,,,,,,,,,,,,,,,,backspace,4.43900013,GRE,TRUE,,,,,,,46,grifo,Spanish,Sounds/spa_grifo.mp3,2020-06-24_18h26.16.849,TranslationElicitation_eng-prolific-spa,3.2.4,Win32,60,5e9b959c77f86e0a8314b0e8,,1,0,98,42,1,97
,,,,,,,,,,,,,,,,,,,,,,,,,,,,,,,,,,,,,,,,,,backspace,4.847000122,GR,TRUE,,,,,,,46,grifo,Spanish,Sounds/spa_grifo.mp3,2020-06-24_18h26.16.849,TranslationElicitation_eng-prolific-spa,3.2.4,Win32,60,5e9b959c77f86e0a8314b0e8,,1,0,98,42,1,97
,,,,,,,,,,,,,,,,,,,,,,,,,,,,,,,,,,,,,,,,,,i,5.151000023,GRI,TRUE,,,,,,,46,grifo,Spanish,Sounds/spa_grifo.mp3,2020-06-24_18h26.16.849,TranslationElicitation_eng-prolific-spa,3.2.4,Win32,60,5e9b959c77f86e0a8314b0e8,,1,0,98,42,1,97
,,,,,,,,,,,,,,,,,,,,,,,,,,,,,,,,,,,,,,,,,,e,5.239000082,GRIE,TRUE,,,,,,,46,grifo,Spanish,Sounds/spa_grifo.mp3,2020-06-24_18h26.16.849,TranslationElicitation_eng-prolific-spa,3.2.4,Win32,60,5e9b959c77f86e0a8314b0e8,,1,0,98,42,1,97
,,,,,,,,,,,,,,,,,,,,,,,,,,,,,,,,,,,,,,,,,,f,5.447000027,GRIEF,TRUE,,,,,,,46,grifo,Spanish,Sounds/spa_grifo.mp3,2020-06-24_18h26.16.849,TranslationElicitation_eng-prolific-spa,3.2.4,Win32,60,5e9b959c77f86e0a8314b0e8,,1,0,98,42,1,97
,,,,,,,,,,,,,,,,,,,,,,,,,,,,,,,,,,,,,,,,,,return,5.651000023,GRIEF,TRUE,,,,,,,46,grifo,Spanish,Sounds/spa_grifo.mp3,2020-06-24_18h26.16.849,TranslationElicitation_eng-prolific-spa,3.2.4,Win32,60,5e9b959c77f86e0a8314b0e8,5.651000023,1,0,98,42,1,97
,,,,,,,,,,,,,,,,,,,,,,,,,,,,,,,,,,,,,,,,,,,,,,,,,,,,46,grifo,Spanish,Sounds/spa_grifo.mp3,2020-06-24_18h26.16.849,TranslationElicitation_eng-prolific-spa,3.2.4,Win32,60,5e9b959c77f86e0a8314b0e8,,1,0,98,42,1,97
,,,,,,,,,,,,,,,,,,,,,,,,,,,,,,,,,,,,,,,,,,o,2.879999876,O,FALSE,,,,,,,71,ombligo,Spanish,Sounds/spa_ombligo.mp3,2020-06-24_18h26.16.849,TranslationElicitation_eng-prolific-spa,3.2.4,Win32,60,5e9b959c77f86e0a8314b0e8,,1,0,98,66,1,97
,,,,,,,,,,,,,,,,,,,,,,,,,,,,,,,,,,,,,,,,,,m,3.157999992,OM,FALSE,,,,,,,71,ombligo,Spanish,Sounds/spa_ombligo.mp3,2020-06-24_18h26.16.849,TranslationElicitation_eng-prolific-spa,3.2.4,Win32,60,5e9b959c77f86e0a8314b0e8,,1,0,98,66,1,97
,,,,,,,,,,,,,,,,,,,,,,,,,,,,,,,,,,,,,,,,,,l,3.737999916,OML,FALSE,,,,,,,71,ombligo,Spanish,Sounds/spa_ombligo.mp3,2020-06-24_18h26.16.849,TranslationElicitation_eng-prolific-spa,3.2.4,Win32,60,5e9b959c77f86e0a8314b0e8,,1,0,98,66,1,97
,,,,,,,,,,,,,,,,,,,,,,,,,,,,,,,,,,,,,,,,,,e,3.862999916,OMLE,FALSE,,,,,,,71,ombligo,Spanish,Sounds/spa_ombligo.mp3,2020-06-24_18h26.16.849,TranslationElicitation_eng-prolific-spa,3.2.4,Win32,60,5e9b959c77f86e0a8314b0e8,,1,0,98,66,1,97
,,,,,,,,,,,,,,,,,,,,,,,,,,,,,,,,,,,,,,,,,,t,4.157999992,OMLET,FALSE,,,,,,,71,ombligo,Spanish,Sounds/spa_ombligo.mp3,2020-06-24_18h26.16.849,TranslationElicitation_eng-prolific-spa,3.2.4,Win32,60,5e9b959c77f86e0a8314b0e8,,1,0,98,66,1,97
,,,,,,,,,,,,,,,,,,,,,,,,,,,,,,,,,,,,,,,,,,backspace,4.671000004,OMLE,TRUE,,,,,,,71,ombligo,Spanish,Sounds/spa_ombligo.mp3,2020-06-24_18h26.16.849,TranslationElicitation_eng-prolific-spa,3.2.4,Win32,60,5e9b959c77f86e0a8314b0e8,,1,0,98,66,1,97
,,,,,,,,,,,,,,,,,,,,,,,,,,,,,,,,,,,,,,,,,,backspace,4.862999916,OML,TRUE,,,,,,,71,ombligo,Spanish,Sounds/spa_ombligo.mp3,2020-06-24_18h26.16.849,TranslationElicitation_eng-prolific-spa,3.2.4,Win32,60,5e9b959c77f86e0a8314b0e8,,1,0,98,66,1,97
,,,,,,,,,,,,,,,,,,,,,,,,,,,,,,,,,,,,,,,,,,backspace,4.996999979,OM,TRUE,,,,,,,71,ombligo,Spanish,Sounds/spa_ombligo.mp3,2020-06-24_18h26.16.849,TranslationElicitation_eng-prolific-spa,3.2.4,Win32,60,5e9b959c77f86e0a8314b0e8,,1,0,98,66,1,97
,,,,,,,,,,,,,,,,,,,,,,,,,,,,,,,,,,,,,,,,,,e,5.24000001,OME,TRUE,,,,,,,71,ombligo,Spanish,Sounds/spa_ombligo.mp3,2020-06-24_18h26.16.849,TranslationElicitation_eng-prolific-spa,3.2.4,Win32,60,5e9b959c77f86e0a8314b0e8,,1,0,98,66,1,97
,,,,,,,,,,,,,,,,,,,,,,,,,,,,,,,,,,,,,,,,,,l,5.467000008,OMEL,TRUE,,,,,,,71,ombligo,Spanish,Sounds/spa_ombligo.mp3,2020-06-24_18h26.16.849,TranslationElicitation_eng-prolific-spa,3.2.4,Win32,60,5e9b959c77f86e0a8314b0e8,,1,0,98,66,1,97
,,,,,,,,,,,,,,,,,,,,,,,,,,,,,,,,,,,,,,,,,,e,5.603999853,OMELE,TRUE,,,,,,,71,ombligo,Spanish,Sounds/spa_ombligo.mp3,2020-06-24_18h26.16.849,TranslationElicitation_eng-prolific-spa,3.2.4,Win32,60,5e9b959c77f86e0a8314b0e8,,1,0,98,66,1,97
,,,,,,,,,,,,,,,,,,,,,,,,,,,,,,,,,,,,,,,,,,t,5.779000044,OMELET,TRUE,,,,,,,71,ombligo,Spanish,Sounds/spa_ombligo.mp3,2020-06-24_18h26.16.849,TranslationElicitation_eng-prolific-spa,3.2.4,Win32,60,5e9b959c77f86e0a8314b0e8,,1,0,98,66,1,97
,,,,,,,,,,,,,,,,,,,,,,,,,,,,,,,,,,,,,,,,,,return,6.22300005,OMELET,TRUE,,,,,,,71,ombligo,Spanish,Sounds/spa_ombligo.mp3,2020-06-24_18h26.16.849,TranslationElicitation_eng-prolific-spa,3.2.4,Win32,60,5e9b959c77f86e0a8314b0e8,6.22300005,1,0,98,66,1,97
,,,,,,,,,,,,,,,,,,,,,,,,,,,,,,,,,,,,,,,,,,,,,,,,,,,,71,ombligo,Spanish,Sounds/spa_ombligo.mp3,2020-06-24_18h26.16.849,TranslationElicitation_eng-prolific-spa,3.2.4,Win32,60,5e9b959c77f86e0a8314b0e8,,1,0,98,66,1,97
,,,,,,,,,,,,,,,,,,,,,,,,,,,,,,,,,,,,,,,,,,f,5.304000139,F,FALSE,,,,,,,7,bocadillo,Spanish,Sounds/spa_bocadillo.mp3,2020-06-24_18h26.16.849,TranslationElicitation_eng-prolific-spa,3.2.4,Win32,60,5e9b959c77f86e0a8314b0e8,,1,0,98,5,1,97
,,,,,,,,,,,,,,,,,,,,,,,,,,,,,,,,,,,,,,,,,,a,5.618999958,FA,FALSE,,,,,,,7,bocadillo,Spanish,Sounds/spa_bocadillo.mp3,2020-06-24_18h26.16.849,TranslationElicitation_eng-prolific-spa,3.2.4,Win32,60,5e9b959c77f86e0a8314b0e8,,1,0,98,5,1,97
,,,,,,,,,,,,,,,,,,,,,,,,,,,,,,,,,,,,,,,,,,s,5.84100008,FAS,FALSE,,,,,,,7,bocadillo,Spanish,Sounds/spa_bocadillo.mp3,2020-06-24_18h26.16.849,TranslationElicitation_eng-prolific-spa,3.2.4,Win32,60,5e9b959c77f86e0a8314b0e8,,1,0,98,5,1,97
,,,,,,,,,,,,,,,,,,,,,,,,,,,,,,,,,,,,,,,,,,t,6.125999928,FAST,FALSE,,,,,,,7,bocadillo,Spanish,Sounds/spa_bocadillo.mp3,2020-06-24_18h26.16.849,TranslationElicitation_eng-prolific-spa,3.2.4,Win32,60,5e9b959c77f86e0a8314b0e8,,1,0,98,5,1,97
,,,,,,,,,,,,,,,,,,,,,,,,,,,,,,,,,,,,,,,,,,return,8.91899991,FAST,FALSE,,,,,,,7,bocadillo,Spanish,Sounds/spa_bocadillo.mp3,2020-06-24_18h26.16.849,TranslationElicitation_eng-prolific-spa,3.2.4,Win32,60,5e9b959c77f86e0a8314b0e8,8.91899991,1,0,98,5,1,97
,,,,,,,,,,,,,,,,,,,,,,,,,,,,,,,,,,,,,,,,,,,,,,,,,,,,7,bocadillo,Spanish,Sounds/spa_bocadillo.mp3,2020-06-24_18h26.16.849,TranslationElicitation_eng-prolific-spa,3.2.4,Win32,60,5e9b959c77f86e0a8314b0e8,,1,0,98,5,1,97
,,,,,,,,,,,,,,,,,,,,,,,,,,,,,,,,,,,,,,,,,,b,12.30400014,B,FALSE,,,,,,,94,tambor,Spanish,Sounds/spa_tambor.mp3,2020-06-24_18h26.16.849,TranslationElicitation_eng-prolific-spa,3.2.4,Win32,60,5e9b959c77f86e0a8314b0e8,,1,0,98,89,1,97
,,,,,,,,,,,,,,,,,,,,,,,,,,,,,,,,,,,,,,,,,,o,13.59300017,BO,FALSE,,,,,,,94,tambor,Spanish,Sounds/spa_tambor.mp3,2020-06-24_18h26.16.849,TranslationElicitation_eng-prolific-spa,3.2.4,Win32,60,5e9b959c77f86e0a8314b0e8,,1,0,98,89,1,97
,,,,,,,,,,,,,,,,,,,,,,,,,,,,,,,,,,,,,,,,,,a,13.69099998,BOA,FALSE,,,,,,,94,tambor,Spanish,Sounds/spa_tambor.mp3,2020-06-24_18h26.16.849,TranslationElicitation_eng-prolific-spa,3.2.4,Win32,60,5e9b959c77f86e0a8314b0e8,,1,0,98,89,1,97
,,,,,,,,,,,,,,,,,,,,,,,,,,,,,,,,,,,,,,,,,,r,13.9000001,BOAR,FALSE,,,,,,,94,tambor,Spanish,Sounds/spa_tambor.mp3,2020-06-24_18h26.16.849,TranslationElicitation_eng-prolific-spa,3.2.4,Win32,60,5e9b959c77f86e0a8314b0e8,,1,0,98,89,1,97
,,,,,,,,,,,,,,,,,,,,,,,,,,,,,,,,,,,,,,,,,,return,14.25500011,BOAR,FALSE,,,,,,,94,tambor,Spanish,Sounds/spa_tambor.mp3,2020-06-24_18h26.16.849,TranslationElicitation_eng-prolific-spa,3.2.4,Win32,60,5e9b959c77f86e0a8314b0e8,14.25500011,1,0,98,89,1,97
,,,,,,,,,,,,,,,,,,,,,,,,,,,,,,,,,,,,,,,,,,,,,,,,,,,,94,tambor,Spanish,Sounds/spa_tambor.mp3,2020-06-24_18h26.16.849,TranslationElicitation_eng-prolific-spa,3.2.4,Win32,60,5e9b959c77f86e0a8314b0e8,,1,0,98,89,1,97
,,,,,,,,,,,,,,,,,,,,,,,,,,,,,,,,,,,,,,,,,,b,2.936000109,B,FALSE,,,,,,,100,toro,Spanish,Sounds/spa_toro.mp3,2020-06-24_18h26.16.849,TranslationElicitation_eng-prolific-spa,3.2.4,Win32,60,5e9b959c77f86e0a8314b0e8,,1,0,98,94,1,97
,,,,,,,,,,,,,,,,,,,,,,,,,,,,,,,,,,,,,,,,,,o,3.052000046,BO,FALSE,,,,,,,100,toro,Spanish,Sounds/spa_toro.mp3,2020-06-24_18h26.16.849,TranslationElicitation_eng-prolific-spa,3.2.4,Win32,60,5e9b959c77f86e0a8314b0e8,,1,0,98,94,1,97
,,,,,,,,,,,,,,,,,,,,,,,,,,,,,,,,,,,,,,,,,,s,3.282999992,BOS,FALSE,,,,,,,100,toro,Spanish,Sounds/spa_toro.mp3,2020-06-24_18h26.16.849,TranslationElicitation_eng-prolific-spa,3.2.4,Win32,60,5e9b959c77f86e0a8314b0e8,,1,0,98,94,1,97
,,,,,,,,,,,,,,,,,,,,,,,,,,,,,,,,,,,,,,,,,,s,3.470999956,BOSS,FALSE,,,,,,,100,toro,Spanish,Sounds/spa_toro.mp3,2020-06-24_18h26.16.849,TranslationElicitation_eng-prolific-spa,3.2.4,Win32,60,5e9b959c77f86e0a8314b0e8,,1,0,98,94,1,97
,,,,,,,,,,,,,,,,,,,,,,,,,,,,,,,,,,,,,,,,,,backspace,7.731000185,BOS,TRUE,,,,,,,100,toro,Spanish,Sounds/spa_toro.mp3,2020-06-24_18h26.16.849,TranslationElicitation_eng-prolific-spa,3.2.4,Win32,60,5e9b959c77f86e0a8314b0e8,,1,0,98,94,1,97
,,,,,,,,,,,,,,,,,,,,,,,,,,,,,,,,,,,,,,,,,,backspace,7.929000139,BO,TRUE,,,,,,,100,toro,Spanish,Sounds/spa_toro.mp3,2020-06-24_18h26.16.849,TranslationElicitation_eng-prolific-spa,3.2.4,Win32,60,5e9b959c77f86e0a8314b0e8,,1,0,98,94,1,97
,,,,,,,,,,,,,,,,,,,,,,,,,,,,,,,,,,,,,,,,,,backspace,8.164999962,B,TRUE,,,,,,,100,toro,Spanish,Sounds/spa_toro.mp3,2020-06-24_18h26.16.849,TranslationElicitation_eng-prolific-spa,3.2.4,Win32,60,5e9b959c77f86e0a8314b0e8,,1,0,98,94,1,97
,,,,,,,,,,,,,,,,,,,,,,,,,,,,,,,,,,,,,,,,,,backspace,8.328999996,,TRUE,,,,,,,100,toro,Spanish,Sounds/spa_toro.mp3,2020-06-24_18h26.16.849,TranslationElicitation_eng-prolific-spa,3.2.4,Win32,60,5e9b959c77f86e0a8314b0e8,,1,0,98,94,1,97
,,,,,,,,,,,,,,,,,,,,,,,,,,,,,,,,,,,,,,,,,,b,8.761000156,B,TRUE,,,,,,,100,toro,Spanish,Sounds/spa_toro.mp3,2020-06-24_18h26.16.849,TranslationElicitation_eng-prolific-spa,3.2.4,Win32,60,5e9b959c77f86e0a8314b0e8,,1,0,98,94,1,97
,,,,,,,,,,,,,,,,,,,,,,,,,,,,,,,,,,,,,,,,,,u,8.950000048,BU,TRUE,,,,,,,100,toro,Spanish,Sounds/spa_toro.mp3,2020-06-24_18h26.16.849,TranslationElicitation_eng-prolific-spa,3.2.4,Win32,60,5e9b959c77f86e0a8314b0e8,,1,0,98,94,1,97
,,,,,,,,,,,,,,,,,,,,,,,,,,,,,,,,,,,,,,,,,,l,9.212000132,BUL,TRUE,,,,,,,100,toro,Spanish,Sounds/spa_toro.mp3,2020-06-24_18h26.16.849,TranslationElicitation_eng-prolific-spa,3.2.4,Win32,60,5e9b959c77f86e0a8314b0e8,,1,0,98,94,1,97
,,,,,,,,,,,,,,,,,,,,,,,,,,,,,,,,,,,,,,,,,,l,9.381000042,BULL,TRUE,,,,,,,100,toro,Spanish,Sounds/spa_toro.mp3,2020-06-24_18h26.16.849,TranslationElicitation_eng-prolific-spa,3.2.4,Win32,60,5e9b959c77f86e0a8314b0e8,,1,0,98,94,1,97
,,,,,,,,,,,,,,,,,,,,,,,,,,,,,,,,,,,,,,,,,,return,9.687999964,BULL,TRUE,,,,,,,100,toro,Spanish,Sounds/spa_toro.mp3,2020-06-24_18h26.16.849,TranslationElicitation_eng-prolific-spa,3.2.4,Win32,60,5e9b959c77f86e0a8314b0e8,9.687999964,1,0,98,94,1,97
,,,,,,,,,,,,,,,,,,,,,,,,,,,,,,,,,,,,,,,,,,,,,,,,,,,,100,toro,Spanish,Sounds/spa_toro.mp3,2020-06-24_18h26.16.849,TranslationElicitation_eng-prolific-spa,3.2.4,Win32,60,5e9b959c77f86e0a8314b0e8,,1,0,98,94,1,97
,,,,,,,,,,,,,,,,,,,,,,,,,,,,,,,,,,,,,,,,,,s,1.926000118,S,FALSE,,,,,,,92,sandwich,Spanish,Sounds/spa_sandwich.mp3,2020-06-24_18h26.16.849,TranslationElicitation_eng-prolific-spa,3.2.4,Win32,60,5e9b959c77f86e0a8314b0e8,,1,0,98,87,1,97
,,,,,,,,,,,,,,,,,,,,,,,,,,,,,,,,,,,,,,,,,,a,2.321000099,SA,FALSE,,,,,,,92,sandwich,Spanish,Sounds/spa_sandwich.mp3,2020-06-24_18h26.16.849,TranslationElicitation_eng-prolific-spa,3.2.4,Win32,60,5e9b959c77f86e0a8314b0e8,,1,0,98,87,1,97
,,,,,,,,,,,,,,,,,,,,,,,,,,,,,,,,,,,,,,,,,,m,2.462000132,SAM,FALSE,,,,,,,92,sandwich,Spanish,Sounds/spa_sandwich.mp3,2020-06-24_18h26.16.849,TranslationElicitation_eng-prolific-spa,3.2.4,Win32,60,5e9b959c77f86e0a8314b0e8,,1,0,98,87,1,97
,,,,,,,,,,,,,,,,,,,,,,,,,,,,,,,,,,,,,,,,,,f,2.791000128,SAMF,FALSE,,,,,,,92,sandwich,Spanish,Sounds/spa_sandwich.mp3,2020-06-24_18h26.16.849,TranslationElicitation_eng-prolific-spa,3.2.4,Win32,60,5e9b959c77f86e0a8314b0e8,,1,0,98,87,1,97
,,,,,,,,,,,,,,,,,,,,,,,,,,,,,,,,,,,,,,,,,,d,2.801000118,SAMFD,FALSE,,,,,,,92,sandwich,Spanish,Sounds/spa_sandwich.mp3,2020-06-24_18h26.16.849,TranslationElicitation_eng-prolific-spa,3.2.4,Win32,60,5e9b959c77f86e0a8314b0e8,,1,0,98,87,1,97
,,,,,,,,,,,,,,,,,,,,,,,,,,,,,,,,,,,,,,,,,,backspace,3.150000095,SAMF,TRUE,,,,,,,92,sandwich,Spanish,Sounds/spa_sandwich.mp3,2020-06-24_18h26.16.849,TranslationElicitation_eng-prolific-spa,3.2.4,Win32,60,5e9b959c77f86e0a8314b0e8,,1,0,98,87,1,97
,,,,,,,,,,,,,,,,,,,,,,,,,,,,,,,,,,,,,,,,,,backspace,3.315000057,SAM,TRUE,,,,,,,92,sandwich,Spanish,Sounds/spa_sandwich.mp3,2020-06-24_18h26.16.849,TranslationElicitation_eng-prolific-spa,3.2.4,Win32,60,5e9b959c77f86e0a8314b0e8,,1,0,98,87,1,97
,,,,,,,,,,,,,,,,,,,,,,,,,,,,,,,,,,,,,,,,,,backspace,3.442000151,SA,TRUE,,,,,,,92,sandwich,Spanish,Sounds/spa_sandwich.mp3,2020-06-24_18h26.16.849,TranslationElicitation_eng-prolific-spa,3.2.4,Win32,60,5e9b959c77f86e0a8314b0e8,,1,0,98,87,1,97
,,,,,,,,,,,,,,,,,,,,,,,,,,,,,,,,,,,,,,,,,,n,3.802999973,SAN,TRUE,,,,,,,92,sandwich,Spanish,Sounds/spa_sandwich.mp3,2020-06-24_18h26.16.849,TranslationElicitation_eng-prolific-spa,3.2.4,Win32,60,5e9b959c77f86e0a8314b0e8,,1,0,98,87,1,97
,,,,,,,,,,,,,,,,,,,,,,,,,,,,,,,,,,,,,,,,,,d,3.838999987,SAND,TRUE,,,,,,,92,sandwich,Spanish,Sounds/spa_sandwich.mp3,2020-06-24_18h26.16.849,TranslationElicitation_eng-prolific-spa,3.2.4,Win32,60,5e9b959c77f86e0a8314b0e8,,1,0,98,87,1,97
,,,,,,,,,,,,,,,,,,,,,,,,,,,,,,,,,,,,,,,,,,w,4.085999966,SANDW,TRUE,,,,,,,92,sandwich,Spanish,Sounds/spa_sandwich.mp3,2020-06-24_18h26.16.849,TranslationElicitation_eng-prolific-spa,3.2.4,Win32,60,5e9b959c77f86e0a8314b0e8,,1,0,98,87,1,97
,,,,,,,,,,,,,,,,,,,,,,,,,,,,,,,,,,,,,,,,,,i,4.184000015,SANDWI,TRUE,,,,,,,92,sandwich,Spanish,Sounds/spa_sandwich.mp3,2020-06-24_18h26.16.849,TranslationElicitation_eng-prolific-spa,3.2.4,Win32,60,5e9b959c77f86e0a8314b0e8,,1,0,98,87,1,97
,,,,,,,,,,,,,,,,,,,,,,,,,,,,,,,,,,,,,,,,,,c,4.363000154,SANDWIC,TRUE,,,,,,,92,sandwich,Spanish,Sounds/spa_sandwich.mp3,2020-06-24_18h26.16.849,TranslationElicitation_eng-prolific-spa,3.2.4,Win32,60,5e9b959c77f86e0a8314b0e8,,1,0,98,87,1,97
,,,,,,,,,,,,,,,,,,,,,,,,,,,,,,,,,,,,,,,,,,h,4.482000113,SANDWICH,TRUE,,,,,,,92,sandwich,Spanish,Sounds/spa_sandwich.mp3,2020-06-24_18h26.16.849,TranslationElicitation_eng-prolific-spa,3.2.4,Win32,60,5e9b959c77f86e0a8314b0e8,,1,0,98,87,1,97
,,,,,,,,,,,,,,,,,,,,,,,,,,,,,,,,,,,,,,,,,,return,5.101000071,SANDWICH,TRUE,,,,,,,92,sandwich,Spanish,Sounds/spa_sandwich.mp3,2020-06-24_18h26.16.849,TranslationElicitation_eng-prolific-spa,3.2.4,Win32,60,5e9b959c77f86e0a8314b0e8,5.101000071,1,0,98,87,1,97
,,,,,,,,,,,,,,,,,,,,,,,,,,,,,,,,,,,,,,,,,,,,,,,,,,,,92,sandwich,Spanish,Sounds/spa_sandwich.mp3,2020-06-24_18h26.16.849,TranslationElicitation_eng-prolific-spa,3.2.4,Win32,60,5e9b959c77f86e0a8314b0e8,,1,0,98,87,1,97
,,,,,,,,,,,,,,,,,,,,,,,,,,,,,,,,,,,,,,,,,,s,12.78999996,S,FALSE,,,,,,,95,tenedor,Spanish,Sounds/spa_tenedor.mp3,2020-06-24_18h26.16.849,TranslationElicitation_eng-prolific-spa,3.2.4,Win32,60,5e9b959c77f86e0a8314b0e8,,1,0,98,90,1,97
,,,,,,,,,,,,,,,,,,,,,,,,,,,,,,,,,,,,,,,,,,e,13.17499995,SE,FALSE,,,,,,,95,tenedor,Spanish,Sounds/spa_tenedor.mp3,2020-06-24_18h26.16.849,TranslationElicitation_eng-prolific-spa,3.2.4,Win32,60,5e9b959c77f86e0a8314b0e8,,1,0,98,90,1,97
,,,,,,,,,,,,,,,,,,,,,,,,,,,,,,,,,,,,,,,,,,a,13.41299987,SEA,FALSE,,,,,,,95,tenedor,Spanish,Sounds/spa_tenedor.mp3,2020-06-24_18h26.16.849,TranslationElicitation_eng-prolific-spa,3.2.4,Win32,60,5e9b959c77f86e0a8314b0e8,,1,0,98,90,1,97
,,,,,,,,,,,,,,,,,,,,,,,,,,,,,,,,,,,,,,,,,,return,15.03999996,SEA,FALSE,,,,,,,95,tenedor,Spanish,Sounds/spa_tenedor.mp3,2020-06-24_18h26.16.849,TranslationElicitation_eng-prolific-spa,3.2.4,Win32,60,5e9b959c77f86e0a8314b0e8,15.03999996,1,0,98,90,1,97
,,,,,,,,,,,,,,,,,,,,,,,,,,,,,,,,,,,,,,,,,,,,,,,,,,,,95,tenedor,Spanish,Sounds/spa_tenedor.mp3,2020-06-24_18h26.16.849,TranslationElicitation_eng-prolific-spa,3.2.4,Win32,60,5e9b959c77f86e0a8314b0e8,,1,0,98,90,1,97
,,,,,,,,,,,,,,,,,,,,,,,,,,,,,,,,,,,,,,,,,,a,8.676000118,A,FALSE,,,,,,,82,perro,Spanish,Sounds/spa_perro.mp3,2020-06-24_18h26.16.849,TranslationElicitation_eng-prolific-spa,3.2.4,Win32,60,5e9b959c77f86e0a8314b0e8,,1,0,98,77,1,97
,,,,,,,,,,,,,,,,,,,,,,,,,,,,,,,,,,,,,,,,,,space,8.870000124,A ,FALSE,,,,,,,82,perro,Spanish,Sounds/spa_perro.mp3,2020-06-24_18h26.16.849,TranslationElicitation_eng-prolific-spa,3.2.4,Win32,60,5e9b959c77f86e0a8314b0e8,,1,0,98,77,1,97
,,,,,,,,,,,,,,,,,,,,,,,,,,,,,,,,,,,,,,,,,,n,9.210000038,A N,FALSE,,,,,,,82,perro,Spanish,Sounds/spa_perro.mp3,2020-06-24_18h26.16.849,TranslationElicitation_eng-prolific-spa,3.2.4,Win32,60,5e9b959c77f86e0a8314b0e8,,1,0,98,77,1,97
,,,,,,,,,,,,,,,,,,,,,,,,,,,,,,,,,,,,,,,,,,a,9.315000057,A NA,FALSE,,,,,,,82,perro,Spanish,Sounds/spa_perro.mp3,2020-06-24_18h26.16.849,TranslationElicitation_eng-prolific-spa,3.2.4,Win32,60,5e9b959c77f86e0a8314b0e8,,1,0,98,77,1,97
,,,,,,,,,,,,,,,,,,,,,,,,,,,,,,,,,,,,,,,,,,m,9.544000149,A NAM,FALSE,,,,,,,82,perro,Spanish,Sounds/spa_perro.mp3,2020-06-24_18h26.16.849,TranslationElicitation_eng-prolific-spa,3.2.4,Win32,60,5e9b959c77f86e0a8314b0e8,,1,0,98,77,1,97
,,,,,,,,,,,,,,,,,,,,,,,,,,,,,,,,,,,,,,,,,,e,9.698000193,A NAME,FALSE,,,,,,,82,perro,Spanish,Sounds/spa_perro.mp3,2020-06-24_18h26.16.849,TranslationElicitation_eng-prolific-spa,3.2.4,Win32,60,5e9b959c77f86e0a8314b0e8,,1,0,98,77,1,97
,,,,,,,,,,,,,,,,,,,,,,,,,,,,,,,,,,,,,,,,,,return,10.10800004,A NAME,FALSE,,,,,,,82,perro,Spanish,Sounds/spa_perro.mp3,2020-06-24_18h26.16.849,TranslationElicitation_eng-prolific-spa,3.2.4,Win32,60,5e9b959c77f86e0a8314b0e8,10.10800004,1,0,98,77,1,97
,,,,,,,,,,,,,,,,,,,,,,,,,,,,,,,,,,,,,,,,,,,,,,,,,,,,82,perro,Spanish,Sounds/spa_perro.mp3,2020-06-24_18h26.16.849,TranslationElicitation_eng-prolific-spa,3.2.4,Win32,60,5e9b959c77f86e0a8314b0e8,,1,0,98,77,1,97
,,,,,,,,,,,,,,,,,,,,,,,,,,,,,,,,,,,,,,,,,,e,1.82799983,E,FALSE,,,,,,,34,ensalada,Spanish,Sounds/spa_ensalada.mp3,2020-06-24_18h26.16.849,TranslationElicitation_eng-prolific-spa,3.2.4,Win32,60,5e9b959c77f86e0a8314b0e8,,1,0,98,30,1,97
,,,,,,,,,,,,,,,,,,,,,,,,,,,,,,,,,,,,,,,,,,n,2.019999981,EN,FALSE,,,,,,,34,ensalada,Spanish,Sounds/spa_ensalada.mp3,2020-06-24_18h26.16.849,TranslationElicitation_eng-prolific-spa,3.2.4,Win32,60,5e9b959c77f86e0a8314b0e8,,1,0,98,30,1,97
,,,,,,,,,,,,,,,,,,,,,,,,,,,,,,,,,,,,,,,,,,c,2.207999945,ENC,FALSE,,,,,,,34,ensalada,Spanish,Sounds/spa_ensalada.mp3,2020-06-24_18h26.16.849,TranslationElicitation_eng-prolific-spa,3.2.4,Win32,60,5e9b959c77f86e0a8314b0e8,,1,0,98,30,1,97
,,,,,,,,,,,,,,,,,,,,,,,,,,,,,,,,,,,,,,,,,,h,2.346999884,ENCH,FALSE,,,,,,,34,ensalada,Spanish,Sounds/spa_ensalada.mp3,2020-06-24_18h26.16.849,TranslationElicitation_eng-prolific-spa,3.2.4,Win32,60,5e9b959c77f86e0a8314b0e8,,1,0,98,30,1,97
,,,,,,,,,,,,,,,,,,,,,,,,,,,,,,,,,,,,,,,,,,i,2.694999933,ENCHI,FALSE,,,,,,,34,ensalada,Spanish,Sounds/spa_ensalada.mp3,2020-06-24_18h26.16.849,TranslationElicitation_eng-prolific-spa,3.2.4,Win32,60,5e9b959c77f86e0a8314b0e8,,1,0,98,30,1,97
,,,,,,,,,,,,,,,,,,,,,,,,,,,,,,,,,,,,,,,,,,l,2.95299983,ENCHIL,FALSE,,,,,,,34,ensalada,Spanish,Sounds/spa_ensalada.mp3,2020-06-24_18h26.16.849,TranslationElicitation_eng-prolific-spa,3.2.4,Win32,60,5e9b959c77f86e0a8314b0e8,,1,0,98,30,1,97
,,,,,,,,,,,,,,,,,,,,,,,,,,,,,,,,,,,,,,,,,,d,3.037999868,ENCHILD,FALSE,,,,,,,34,ensalada,Spanish,Sounds/spa_ensalada.mp3,2020-06-24_18h26.16.849,TranslationElicitation_eng-prolific-spa,3.2.4,Win32,60,5e9b959c77f86e0a8314b0e8,,1,0,98,30,1,97
,,,,,,,,,,,,,,,,,,,,,,,,,,,,,,,,,,,,,,,,,,backspace,5.110999823,ENCHIL,TRUE,,,,,,,34,ensalada,Spanish,Sounds/spa_ensalada.mp3,2020-06-24_18h26.16.849,TranslationElicitation_eng-prolific-spa,3.2.4,Win32,60,5e9b959c77f86e0a8314b0e8,,1,0,98,30,1,97
,,,,,,,,,,,,,,,,,,,,,,,,,,,,,,,,,,,,,,,,,,a,5.235999823,ENCHILA,TRUE,,,,,,,34,ensalada,Spanish,Sounds/spa_ensalada.mp3,2020-06-24_18h26.16.849,TranslationElicitation_eng-prolific-spa,3.2.4,Win32,60,5e9b959c77f86e0a8314b0e8,,1,0,98,30,1,97
,,,,,,,,,,,,,,,,,,,,,,,,,,,,,,,,,,,,,,,,,,d,5.405999899,ENCHILAD,TRUE,,,,,,,34,ensalada,Spanish,Sounds/spa_ensalada.mp3,2020-06-24_18h26.16.849,TranslationElicitation_eng-prolific-spa,3.2.4,Win32,60,5e9b959c77f86e0a8314b0e8,,1,0,98,30,1,97
,,,,,,,,,,,,,,,,,,,,,,,,,,,,,,,,,,,,,,,,,,a,5.671000004,ENCHILADA,TRUE,,,,,,,34,ensalada,Spanish,Sounds/spa_ensalada.mp3,2020-06-24_18h26.16.849,TranslationElicitation_eng-prolific-spa,3.2.4,Win32,60,5e9b959c77f86e0a8314b0e8,,1,0,98,30,1,97
,,,,,,,,,,,,,,,,,,,,,,,,,,,,,,,,,,,,,,,,,,s,6.244999886,ENCHILADAS,TRUE,,,,,,,34,ensalada,Spanish,Sounds/spa_ensalada.mp3,2020-06-24_18h26.16.849,TranslationElicitation_eng-prolific-spa,3.2.4,Win32,60,5e9b959c77f86e0a8314b0e8,,1,0,98,30,1,97
,,,,,,,,,,,,,,,,,,,,,,,,,,,,,,,,,,,,,,,,,,return,6.500999928,ENCHILADAS,TRUE,,,,,,,34,ensalada,Spanish,Sounds/spa_ensalada.mp3,2020-06-24_18h26.16.849,TranslationElicitation_eng-prolific-spa,3.2.4,Win32,60,5e9b959c77f86e0a8314b0e8,6.500999928,1,0,98,30,1,97
,,,,,,,,,,,,,,,,,,,,,,,,,,,,,,,,,,,,,,,,,,,,,,,,,,,,34,ensalada,Spanish,Sounds/spa_ensalada.mp3,2020-06-24_18h26.16.849,TranslationElicitation_eng-prolific-spa,3.2.4,Win32,60,5e9b959c77f86e0a8314b0e8,,1,0,98,30,1,97
,,,,,,,,,,,,,,,,,,,,,,,,,,,,,,,,,,,,,,,,,,l,6.830999851,L,FALSE,,,,,,,53,leche,Spanish,Sounds/spa_leche.mp3,2020-06-24_18h26.16.849,TranslationElicitation_eng-prolific-spa,3.2.4,Win32,60,5e9b959c77f86e0a8314b0e8,,1,0,98,49,1,97
,,,,,,,,,,,,,,,,,,,,,,,,,,,,,,,,,,,,,,,,,,e,6.984999895,LE,FALSE,,,,,,,53,leche,Spanish,Sounds/spa_leche.mp3,2020-06-24_18h26.16.849,TranslationElicitation_eng-prolific-spa,3.2.4,Win32,60,5e9b959c77f86e0a8314b0e8,,1,0,98,49,1,97
,,,,,,,,,,,,,,,,,,,,,,,,,,,,,,,,,,,,,,,,,,t,7.269999981,LET,FALSE,,,,,,,53,leche,Spanish,Sounds/spa_leche.mp3,2020-06-24_18h26.16.849,TranslationElicitation_eng-prolific-spa,3.2.4,Win32,60,5e9b959c77f86e0a8314b0e8,,1,0,98,49,1,97
,,,,,,,,,,,,,,,,,,,,,,,,,,,,,,,,,,,,,,,,,,backspace,7.741999865,LE,TRUE,,,,,,,53,leche,Spanish,Sounds/spa_leche.mp3,2020-06-24_18h26.16.849,TranslationElicitation_eng-prolific-spa,3.2.4,Win32,60,5e9b959c77f86e0a8314b0e8,,1,0,98,49,1,97
,,,,,,,,,,,,,,,,,,,,,,,,,,,,,,,,,,,,,,,,,,backspace,7.986000061,L,TRUE,,,,,,,53,leche,Spanish,Sounds/spa_leche.mp3,2020-06-24_18h26.16.849,TranslationElicitation_eng-prolific-spa,3.2.4,Win32,60,5e9b959c77f86e0a8314b0e8,,1,0,98,49,1,97
,,,,,,,,,,,,,,,,,,,,,,,,,,,,,,,,,,,,,,,,,,backspace,8.246999979,,TRUE,,,,,,,53,leche,Spanish,Sounds/spa_leche.mp3,2020-06-24_18h26.16.849,TranslationElicitation_eng-prolific-spa,3.2.4,Win32,60,5e9b959c77f86e0a8314b0e8,,1,0,98,49,1,97
,,,,,,,,,,,,,,,,,,,,,,,,,,,,,,,,,,,,,,,,,,l,9.721999884,L,TRUE,,,,,,,53,leche,Spanish,Sounds/spa_leche.mp3,2020-06-24_18h26.16.849,TranslationElicitation_eng-prolific-spa,3.2.4,Win32,60,5e9b959c77f86e0a8314b0e8,,1,0,98,49,1,97
,,,,,,,,,,,,,,,,,,,,,,,,,,,,,,,,,,,,,,,,,,e,9.807999849,LE,TRUE,,,,,,,53,leche,Spanish,Sounds/spa_leche.mp3,2020-06-24_18h26.16.849,TranslationElicitation_eng-prolific-spa,3.2.4,Win32,60,5e9b959c77f86e0a8314b0e8,,1,0,98,49,1,97
,,,,,,,,,,,,,,,,,,,,,,,,,,,,,,,,,,,,,,,,,,space,10.05900002,LE ,TRUE,,,,,,,53,leche,Spanish,Sounds/spa_leche.mp3,2020-06-24_18h26.16.849,TranslationElicitation_eng-prolific-spa,3.2.4,Win32,60,5e9b959c77f86e0a8314b0e8,,1,0,98,49,1,97
,,,,,,,,,,,,,,,,,,,,,,,,,,,,,,,,,,,,,,,,,,c,10.55699992,LE C,TRUE,,,,,,,53,leche,Spanish,Sounds/spa_leche.mp3,2020-06-24_18h26.16.849,TranslationElicitation_eng-prolific-spa,3.2.4,Win32,60,5e9b959c77f86e0a8314b0e8,,1,0,98,49,1,97
,,,,,,,,,,,,,,,,,,,,,,,,,,,,,,,,,,,,,,,,,,backspace,11.07200003,LE ,TRUE,,,,,,,53,leche,Spanish,Sounds/spa_leche.mp3,2020-06-24_18h26.16.849,TranslationElicitation_eng-prolific-spa,3.2.4,Win32,60,5e9b959c77f86e0a8314b0e8,,1,0,98,49,1,97
,,,,,,,,,,,,,,,,,,,,,,,,,,,,,,,,,,,,,,,,,,backspace,11.24699998,LE,TRUE,,,,,,,53,leche,Spanish,Sounds/spa_leche.mp3,2020-06-24_18h26.16.849,TranslationElicitation_eng-prolific-spa,3.2.4,Win32,60,5e9b959c77f86e0a8314b0e8,,1,0,98,49,1,97
,,,,,,,,,,,,,,,,,,,,,,,,,,,,,,,,,,,,,,,,,,c,11.35299993,LEC,TRUE,,,,,,,53,leche,Spanish,Sounds/spa_leche.mp3,2020-06-24_18h26.16.849,TranslationElicitation_eng-prolific-spa,3.2.4,Win32,60,5e9b959c77f86e0a8314b0e8,,1,0,98,49,1,97
,,,,,,,,,,,,,,,,,,,,,,,,,,,,,,,,,,,,,,,,,,t,11.59200001,LECT,TRUE,,,,,,,53,leche,Spanish,Sounds/spa_leche.mp3,2020-06-24_18h26.16.849,TranslationElicitation_eng-prolific-spa,3.2.4,Win32,60,5e9b959c77f86e0a8314b0e8,,1,0,98,49,1,97
,,,,,,,,,,,,,,,,,,,,,,,,,,,,,,,,,,,,,,,,,,u,12.0539999,LECTU,TRUE,,,,,,,53,leche,Spanish,Sounds/spa_leche.mp3,2020-06-24_18h26.16.849,TranslationElicitation_eng-prolific-spa,3.2.4,Win32,60,5e9b959c77f86e0a8314b0e8,,1,0,98,49,1,97
,,,,,,,,,,,,,,,,,,,,,,,,,,,,,,,,,,,,,,,,,,r,12.17599988,LECTUR,TRUE,,,,,,,53,leche,Spanish,Sounds/spa_leche.mp3,2020-06-24_18h26.16.849,TranslationElicitation_eng-prolific-spa,3.2.4,Win32,60,5e9b959c77f86e0a8314b0e8,,1,0,98,49,1,97
,,,,,,,,,,,,,,,,,,,,,,,,,,,,,,,,,,,,,,,,,,e,12.43499994,LECTURE,TRUE,,,,,,,53,leche,Spanish,Sounds/spa_leche.mp3,2020-06-24_18h26.16.849,TranslationElicitation_eng-prolific-spa,3.2.4,Win32,60,5e9b959c77f86e0a8314b0e8,,1,0,98,49,1,97
,,,,,,,,,,,,,,,,,,,,,,,,,,,,,,,,,,,,,,,,,,return,12.7579999,LECTURE,TRUE,,,,,,,53,leche,Spanish,Sounds/spa_leche.mp3,2020-06-24_18h26.16.849,TranslationElicitation_eng-prolific-spa,3.2.4,Win32,60,5e9b959c77f86e0a8314b0e8,12.7579999,1,0,98,49,1,97
,,,,,,,,,,,,,,,,,,,,,,,,,,,,,,,,,,,,,,,,,,,,,,,,,,,,53,leche,Spanish,Sounds/spa_leche.mp3,2020-06-24_18h26.16.849,TranslationElicitation_eng-prolific-spa,3.2.4,Win32,60,5e9b959c77f86e0a8314b0e8,,1,0,98,49,1,97
,,,,,,,,,,,,,,,,,,,,,,,,,,,,,,,,,,,,,,,,,,p,8.042999983,P,FALSE,,,,,,,85,pierna,Spanish,Sounds/spa_pierna.mp3,2020-06-24_18h26.16.849,TranslationElicitation_eng-prolific-spa,3.2.4,Win32,60,5e9b959c77f86e0a8314b0e8,,1,0,98,80,1,97
,,,,,,,,,,,,,,,,,,,,,,,,,,,,,,,,,,,,,,,,,,i,8.342000008,PI,FALSE,,,,,,,85,pierna,Spanish,Sounds/spa_pierna.mp3,2020-06-24_18h26.16.849,TranslationElicitation_eng-prolific-spa,3.2.4,Win32,60,5e9b959c77f86e0a8314b0e8,,1,0,98,80,1,97
,,,,,,,,,,,,,,,,,,,,,,,,,,,,,,,,,,,,,,,,,,e,8.457999945,PIE,FALSE,,,,,,,85,pierna,Spanish,Sounds/spa_pierna.mp3,2020-06-24_18h26.16.849,TranslationElicitation_eng-prolific-spa,3.2.4,Win32,60,5e9b959c77f86e0a8314b0e8,,1,0,98,80,1,97
,,,,,,,,,,,,,,,,,,,,,,,,,,,,,,,,,,,,,,,,,,r,8.769000053,PIER,FALSE,,,,,,,85,pierna,Spanish,Sounds/spa_pierna.mp3,2020-06-24_18h26.16.849,TranslationElicitation_eng-prolific-spa,3.2.4,Win32,60,5e9b959c77f86e0a8314b0e8,,1,0,98,80,1,97
,,,,,,,,,,,,,,,,,,,,,,,,,,,,,,,,,,,,,,,,,,return,8.979000092,PIER,FALSE,,,,,,,85,pierna,Spanish,Sounds/spa_pierna.mp3,2020-06-24_18h26.16.849,TranslationElicitation_eng-prolific-spa,3.2.4,Win32,60,5e9b959c77f86e0a8314b0e8,8.979000092,1,0,98,80,1,97
,,,,,,,,,,,,,,,,,,,,,,,,,,,,,,,,,,,,,,,,,,,,,,,,,,,,85,pierna,Spanish,Sounds/spa_pierna.mp3,2020-06-24_18h26.16.849,TranslationElicitation_eng-prolific-spa,3.2.4,Win32,60,5e9b959c77f86e0a8314b0e8,,1,0,98,80,1,97
,,,,,,,,,,,,,,,,,,,,,,,,,,,,,,,,,,,,,,,,,,a,2.123999834,A,FALSE,,,,,,,21,cebra,Spanish,Sounds/spa_cebra.mp3,2020-06-24_18h26.16.849,TranslationElicitation_eng-prolific-spa,3.2.4,Win32,60,5e9b959c77f86e0a8314b0e8,,1,0,98,19,1,97
,,,,,,,,,,,,,,,,,,,,,,,,,,,,,,,,,,,,,,,,,,backspace,2.720999956,,TRUE,,,,,,,21,cebra,Spanish,Sounds/spa_cebra.mp3,2020-06-24_18h26.16.849,TranslationElicitation_eng-prolific-spa,3.2.4,Win32,60,5e9b959c77f86e0a8314b0e8,,1,0,98,19,1,97
,,,,,,,,,,,,,,,,,,,,,,,,,,,,,,,,,,,,,,,,,,f,2.906999826,F,TRUE,,,,,,,21,cebra,Spanish,Sounds/spa_cebra.mp3,2020-06-24_18h26.16.849,TranslationElicitation_eng-prolific-spa,3.2.4,Win32,60,5e9b959c77f86e0a8314b0e8,,1,0,98,19,1,97
,,,,,,,,,,,,,,,,,,,,,,,,,,,,,,,,,,,,,,,,,,a,3.111999989,FA,TRUE,,,,,,,21,cebra,Spanish,Sounds/spa_cebra.mp3,2020-06-24_18h26.16.849,TranslationElicitation_eng-prolific-spa,3.2.4,Win32,60,5e9b959c77f86e0a8314b0e8,,1,0,98,19,1,97
,,,,,,,,,,,,,,,,,,,,,,,,,,,,,,,,,,,,,,,,,,v,3.332999945,FAV,TRUE,,,,,,,21,cebra,Spanish,Sounds/spa_cebra.mp3,2020-06-24_18h26.16.849,TranslationElicitation_eng-prolific-spa,3.2.4,Win32,60,5e9b959c77f86e0a8314b0e8,,1,0,98,19,1,97
,,,,,,,,,,,,,,,,,,,,,,,,,,,,,,,,,,,,,,,,,,o,3.450999975,FAVO,TRUE,,,,,,,21,cebra,Spanish,Sounds/spa_cebra.mp3,2020-06-24_18h26.16.849,TranslationElicitation_eng-prolific-spa,3.2.4,Win32,60,5e9b959c77f86e0a8314b0e8,,1,0,98,19,1,97
,,,,,,,,,,,,,,,,,,,,,,,,,,,,,,,,,,,,,,,,,,u,3.662999868,FAVOU,TRUE,,,,,,,21,cebra,Spanish,Sounds/spa_cebra.mp3,2020-06-24_18h26.16.849,TranslationElicitation_eng-prolific-spa,3.2.4,Win32,60,5e9b959c77f86e0a8314b0e8,,1,0,98,19,1,97
,,,,,,,,,,,,,,,,,,,,,,,,,,,,,,,,,,,,,,,,,,r,3.786000013,FAVOUR,TRUE,,,,,,,21,cebra,Spanish,Sounds/spa_cebra.mp3,2020-06-24_18h26.16.849,TranslationElicitation_eng-prolific-spa,3.2.4,Win32,60,5e9b959c77f86e0a8314b0e8,,1,0,98,19,1,97
,,,,,,,,,,,,,,,,,,,,,,,,,,,,,,,,,,,,,,,,,,i,3.961999893,FAVOURI,TRUE,,,,,,,21,cebra,Spanish,Sounds/spa_cebra.mp3,2020-06-24_18h26.16.849,TranslationElicitation_eng-prolific-spa,3.2.4,Win32,60,5e9b959c77f86e0a8314b0e8,,1,0,98,19,1,97
,,,,,,,,,,,,,,,,,,,,,,,,,,,,,,,,,,,,,,,,,,t,4.047999859,FAVOURIT,TRUE,,,,,,,21,cebra,Spanish,Sounds/spa_cebra.mp3,2020-06-24_18h26.16.849,TranslationElicitation_eng-prolific-spa,3.2.4,Win32,60,5e9b959c77f86e0a8314b0e8,,1,0,98,19,1,97
,,,,,,,,,,,,,,,,,,,,,,,,,,,,,,,,,,,,,,,,,,e,4.304999828,FAVOURITE,TRUE,,,,,,,21,cebra,Spanish,Sounds/spa_cebra.mp3,2020-06-24_18h26.16.849,TranslationElicitation_eng-prolific-spa,3.2.4,Win32,60,5e9b959c77f86e0a8314b0e8,,1,0,98,19,1,97
,,,,,,,,,,,,,,,,,,,,,,,,,,,,,,,,,,,,,,,,,,return,4.576999903,FAVOURITE,TRUE,,,,,,,21,cebra,Spanish,Sounds/spa_cebra.mp3,2020-06-24_18h26.16.849,TranslationElicitation_eng-prolific-spa,3.2.4,Win32,60,5e9b959c77f86e0a8314b0e8,4.576999903,1,0,98,19,1,97
,,,,,,,,,,,,,,,,,,,,,,,,,,,,,,,,,,,,,,,,,,,,,,,,,,,,21,cebra,Spanish,Sounds/spa_cebra.mp3,2020-06-24_18h26.16.849,TranslationElicitation_eng-prolific-spa,3.2.4,Win32,60,5e9b959c77f86e0a8314b0e8,,1,0,98,19,1,97
,,,,,,,,,,,,,,,,,,,,,,,,,,,,,,,,,,,,,,,,,,m,2.287999868,M,FALSE,,,,,,,64,moneda,Spanish,Sounds/spa_moneda.mp3,2020-06-24_18h26.16.849,TranslationElicitation_eng-prolific-spa,3.2.4,Win32,60,5e9b959c77f86e0a8314b0e8,,1,0,98,60,1,97
,,,,,,,,,,,,,,,,,,,,,,,,,,,,,,,,,,,,,,,,,,o,2.655999899,MO,FALSE,,,,,,,64,moneda,Spanish,Sounds/spa_moneda.mp3,2020-06-24_18h26.16.849,TranslationElicitation_eng-prolific-spa,3.2.4,Win32,60,5e9b959c77f86e0a8314b0e8,,1,0,98,60,1,97
,,,,,,,,,,,,,,,,,,,,,,,,,,,,,,,,,,,,,,,,,,n,2.944000006,MON,FALSE,,,,,,,64,moneda,Spanish,Sounds/spa_moneda.mp3,2020-06-24_18h26.16.849,TranslationElicitation_eng-prolific-spa,3.2.4,Win32,60,5e9b959c77f86e0a8314b0e8,,1,0,98,60,1,97
,,,,,,,,,,,,,,,,,,,,,,,,,,,,,,,,,,,,,,,,,,e,3.039000034,MONE,FALSE,,,,,,,64,moneda,Spanish,Sounds/spa_moneda.mp3,2020-06-24_18h26.16.849,TranslationElicitation_eng-prolific-spa,3.2.4,Win32,60,5e9b959c77f86e0a8314b0e8,,1,0,98,60,1,97
,,,,,,,,,,,,,,,,,,,,,,,,,,,,,,,,,,,,,,,,,,y,3.351000071,MONEY,FALSE,,,,,,,64,moneda,Spanish,Sounds/spa_moneda.mp3,2020-06-24_18h26.16.849,TranslationElicitation_eng-prolific-spa,3.2.4,Win32,60,5e9b959c77f86e0a8314b0e8,,1,0,98,60,1,97
,,,,,,,,,,,,,,,,,,,,,,,,,,,,,,,,,,,,,,,,,,return,4.59100008,MONEY,FALSE,,,,,,,64,moneda,Spanish,Sounds/spa_moneda.mp3,2020-06-24_18h26.16.849,TranslationElicitation_eng-prolific-spa,3.2.4,Win32,60,5e9b959c77f86e0a8314b0e8,4.59100008,1,0,98,60,1,97
,,,,,,,,,,,,,,,,,,,,,,,,,,,,,,,,,,,,,,,,,,,,,,,,,,,,64,moneda,Spanish,Sounds/spa_moneda.mp3,2020-06-24_18h26.16.849,TranslationElicitation_eng-prolific-spa,3.2.4,Win32,60,5e9b959c77f86e0a8314b0e8,,1,0,98,60,1,97
,,,,,,,,,,,,,,,,,,,,,,,,,,,,,,,,,,,,,,,,,,s,3.85800004,S,FALSE,,,,,,,28,cielo,Spanish,Sounds/spa_cielo.mp3,2020-06-24_18h26.16.849,TranslationElicitation_eng-prolific-spa,3.2.4,Win32,60,5e9b959c77f86e0a8314b0e8,,1,0,98,25,1,97
,,,,,,,,,,,,,,,,,,,,,,,,,,,,,,,,,,,,,,,,,,i,4.006999969,SI,FALSE,,,,,,,28,cielo,Spanish,Sounds/spa_cielo.mp3,2020-06-24_18h26.16.849,TranslationElicitation_eng-prolific-spa,3.2.4,Win32,60,5e9b959c77f86e0a8314b0e8,,1,0,98,25,1,97
,,,,,,,,,,,,,,,,,,,,,,,,,,,,,,,,,,,,,,,,,,l,4.234999895,SIL,FALSE,,,,,,,28,cielo,Spanish,Sounds/spa_cielo.mp3,2020-06-24_18h26.16.849,TranslationElicitation_eng-prolific-spa,3.2.4,Win32,60,5e9b959c77f86e0a8314b0e8,,1,0,98,25,1,97
,,,,,,,,,,,,,,,,,,,,,,,,,,,,,,,,,,,,,,,,,,e,4.419999838,SILE,FALSE,,,,,,,28,cielo,Spanish,Sounds/spa_cielo.mp3,2020-06-24_18h26.16.849,TranslationElicitation_eng-prolific-spa,3.2.4,Win32,60,5e9b959c77f86e0a8314b0e8,,1,0,98,25,1,97
,,,,,,,,,,,,,,,,,,,,,,,,,,,,,,,,,,,,,,,,,,n,4.586999893,SILEN,FALSE,,,,,,,28,cielo,Spanish,Sounds/spa_cielo.mp3,2020-06-24_18h26.16.849,TranslationElicitation_eng-prolific-spa,3.2.4,Win32,60,5e9b959c77f86e0a8314b0e8,,1,0,98,25,1,97
,,,,,,,,,,,,,,,,,,,,,,,,,,,,,,,,,,,,,,,,,,c,4.745999813,SILENC,FALSE,,,,,,,28,cielo,Spanish,Sounds/spa_cielo.mp3,2020-06-24_18h26.16.849,TranslationElicitation_eng-prolific-spa,3.2.4,Win32,60,5e9b959c77f86e0a8314b0e8,,1,0,98,25,1,97
,,,,,,,,,,,,,,,,,,,,,,,,,,,,,,,,,,,,,,,,,,e,5.097999811,SILENCE,FALSE,,,,,,,28,cielo,Spanish,Sounds/spa_cielo.mp3,2020-06-24_18h26.16.849,TranslationElicitation_eng-prolific-spa,3.2.4,Win32,60,5e9b959c77f86e0a8314b0e8,,1,0,98,25,1,97
,,,,,,,,,,,,,,,,,,,,,,,,,,,,,,,,,,,,,,,,,,return,5.470000029,SILENCE,FALSE,,,,,,,28,cielo,Spanish,Sounds/spa_cielo.mp3,2020-06-24_18h26.16.849,TranslationElicitation_eng-prolific-spa,3.2.4,Win32,60,5e9b959c77f86e0a8314b0e8,5.470000029,1,0,98,25,1,97
,,,,,,,,,,,,,,,,,,,,,,,,,,,,,,,,,,,,,,,,,,,,,,,,,,,,28,cielo,Spanish,Sounds/spa_cielo.mp3,2020-06-24_18h26.16.849,TranslationElicitation_eng-prolific-spa,3.2.4,Win32,60,5e9b959c77f86e0a8314b0e8,,1,0,98,25,1,97
,,,,,,,,,,,,,,,,,,,,,,,,,,,,,,,,,,,,,,,,,,b,8.971999884,B,FALSE,,,,,,,74,pajaro,Spanish,Sounds/spa_pajaro.mp3,2020-06-24_18h26.16.849,TranslationElicitation_eng-prolific-spa,3.2.4,Win32,60,5e9b959c77f86e0a8314b0e8,,1,0,98,69,1,97
,,,,,,,,,,,,,,,,,,,,,,,,,,,,,,,,,,,,,,,,,,backspace,9.700999975,,TRUE,,,,,,,74,pajaro,Spanish,Sounds/spa_pajaro.mp3,2020-06-24_18h26.16.849,TranslationElicitation_eng-prolific-spa,3.2.4,Win32,60,5e9b959c77f86e0a8314b0e8,,1,0,98,69,1,97
,,,,,,,,,,,,,,,,,,,,,,,,,,,,,,,,,,,,,,,,,,h,15.46099997,H,TRUE,,,,,,,74,pajaro,Spanish,Sounds/spa_pajaro.mp3,2020-06-24_18h26.16.849,TranslationElicitation_eng-prolific-spa,3.2.4,Win32,60,5e9b959c77f86e0a8314b0e8,,1,0,98,69,1,97
,,,,,,,,,,,,,,,,,,,,,,,,,,,,,,,,,,,,,,,,,,u,15.65499997,HU,TRUE,,,,,,,74,pajaro,Spanish,Sounds/spa_pajaro.mp3,2020-06-24_18h26.16.849,TranslationElicitation_eng-prolific-spa,3.2.4,Win32,60,5e9b959c77f86e0a8314b0e8,,1,0,98,69,1,97
,,,,,,,,,,,,,,,,,,,,,,,,,,,,,,,,,,,,,,,,,,s,15.70499992,HUS,TRUE,,,,,,,74,pajaro,Spanish,Sounds/spa_pajaro.mp3,2020-06-24_18h26.16.849,TranslationElicitation_eng-prolific-spa,3.2.4,Win32,60,5e9b959c77f86e0a8314b0e8,,1,0,98,69,1,97
,,,,,,,,,,,,,,,,,,,,,,,,,,,,,,,,,,,,,,,,,,n,15.89299989,HUSN,TRUE,,,,,,,74,pajaro,Spanish,Sounds/spa_pajaro.mp3,2020-06-24_18h26.16.849,TranslationElicitation_eng-prolific-spa,3.2.4,Win32,60,5e9b959c77f86e0a8314b0e8,,1,0,98,69,1,97
,,,,,,,,,,,,,,,,,,,,,,,,,,,,,,,,,,,,,,,,,,a,15.96299982,HUSNA,TRUE,,,,,,,74,pajaro,Spanish,Sounds/spa_pajaro.mp3,2020-06-24_18h26.16.849,TranslationElicitation_eng-prolific-spa,3.2.4,Win32,60,5e9b959c77f86e0a8314b0e8,,1,0,98,69,1,97
,,,,,,,,,,,,,,,,,,,,,,,,,,,,,,,,,,,,,,,,,,d,16.17199993,HUSNAD,TRUE,,,,,,,74,pajaro,Spanish,Sounds/spa_pajaro.mp3,2020-06-24_18h26.16.849,TranslationElicitation_eng-prolific-spa,3.2.4,Win32,60,5e9b959c77f86e0a8314b0e8,,1,0,98,69,1,97
,,,,,,,,,,,,,,,,,,,,,,,,,,,,,,,,,,,,,,,,,,backspace,16.51799989,HUSNA,TRUE,,,,,,,74,pajaro,Spanish,Sounds/spa_pajaro.mp3,2020-06-24_18h26.16.849,TranslationElicitation_eng-prolific-spa,3.2.4,Win32,60,5e9b959c77f86e0a8314b0e8,,1,0,98,69,1,97
,,,,,,,,,,,,,,,,,,,,,,,,,,,,,,,,,,,,,,,,,,backspace,16.64299989,HUSN,TRUE,,,,,,,74,pajaro,Spanish,Sounds/spa_pajaro.mp3,2020-06-24_18h26.16.849,TranslationElicitation_eng-prolific-spa,3.2.4,Win32,60,5e9b959c77f86e0a8314b0e8,,1,0,98,69,1,97
,,,,,,,,,,,,,,,,,,,,,,,,,,,,,,,,,,,,,,,,,,backspace,16.82499981,HUS,TRUE,,,,,,,74,pajaro,Spanish,Sounds/spa_pajaro.mp3,2020-06-24_18h26.16.849,TranslationElicitation_eng-prolific-spa,3.2.4,Win32,60,5e9b959c77f86e0a8314b0e8,,1,0,98,69,1,97
,,,,,,,,,,,,,,,,,,,,,,,,,,,,,,,,,,,,,,,,,,b,17.37099981,HUSB,TRUE,,,,,,,74,pajaro,Spanish,Sounds/spa_pajaro.mp3,2020-06-24_18h26.16.849,TranslationElicitation_eng-prolific-spa,3.2.4,Win32,60,5e9b959c77f86e0a8314b0e8,,1,0,98,69,1,97
,,,,,,,,,,,,,,,,,,,,,,,,,,,,,,,,,,,,,,,,,,a,17.46199989,HUSBA,TRUE,,,,,,,74,pajaro,Spanish,Sounds/spa_pajaro.mp3,2020-06-24_18h26.16.849,TranslationElicitation_eng-prolific-spa,3.2.4,Win32,60,5e9b959c77f86e0a8314b0e8,,1,0,98,69,1,97
,,,,,,,,,,,,,,,,,,,,,,,,,,,,,,,,,,,,,,,,,,n,17.56900001,HUSBAN,TRUE,,,,,,,74,pajaro,Spanish,Sounds/spa_pajaro.mp3,2020-06-24_18h26.16.849,TranslationElicitation_eng-prolific-spa,3.2.4,Win32,60,5e9b959c77f86e0a8314b0e8,,1,0,98,69,1,97
,,,,,,,,,,,,,,,,,,,,,,,,,,,,,,,,,,,,,,,,,,d,17.65199995,HUSBAND,TRUE,,,,,,,74,pajaro,Spanish,Sounds/spa_pajaro.mp3,2020-06-24_18h26.16.849,TranslationElicitation_eng-prolific-spa,3.2.4,Win32,60,5e9b959c77f86e0a8314b0e8,,1,0,98,69,1,97
,,,,,,,,,,,,,,,,,,,,,,,,,,,,,,,,,,,,,,,,,,return,17.90699983,HUSBAND,TRUE,,,,,,,74,pajaro,Spanish,Sounds/spa_pajaro.mp3,2020-06-24_18h26.16.849,TranslationElicitation_eng-prolific-spa,3.2.4,Win32,60,5e9b959c77f86e0a8314b0e8,17.90699983,1,0,98,69,1,97
,,,,,,,,,,,,,,,,,,,,,,,,,,,,,,,,,,,,,,,,,,,,,,,,,,,,74,pajaro,Spanish,Sounds/spa_pajaro.mp3,2020-06-24_18h26.16.849,TranslationElicitation_eng-prolific-spa,3.2.4,Win32,60,5e9b959c77f86e0a8314b0e8,,1,0,98,69,1,97
,,,,,,,,,,,,,,,,,,,,,,,,,,,,,,,,,,,,,,,,,,d,2.822999954,D,FALSE,,,,,,,80,pato,Spanish,Sounds/spa_pato.mp3,2020-06-24_18h26.16.849,TranslationElicitation_eng-prolific-spa,3.2.4,Win32,60,5e9b959c77f86e0a8314b0e8,,1,0,98,75,1,97
,,,,,,,,,,,,,,,,,,,,,,,,,,,,,,,,,,,,,,,,,,o,2.938999891,DO,FALSE,,,,,,,80,pato,Spanish,Sounds/spa_pato.mp3,2020-06-24_18h26.16.849,TranslationElicitation_eng-prolific-spa,3.2.4,Win32,60,5e9b959c77f86e0a8314b0e8,,1,0,98,75,1,97
,,,,,,,,,,,,,,,,,,,,,,,,,,,,,,,,,,,,,,,,,,g,3.179999828,DOG,FALSE,,,,,,,80,pato,Spanish,Sounds/spa_pato.mp3,2020-06-24_18h26.16.849,TranslationElicitation_eng-prolific-spa,3.2.4,Win32,60,5e9b959c77f86e0a8314b0e8,,1,0,98,75,1,97
,,,,,,,,,,,,,,,,,,,,,,,,,,,,,,,,,,,,,,,,,,return,3.493000031,DOG,FALSE,,,,,,,80,pato,Spanish,Sounds/spa_pato.mp3,2020-06-24_18h26.16.849,TranslationElicitation_eng-prolific-spa,3.2.4,Win32,60,5e9b959c77f86e0a8314b0e8,3.493000031,1,0,98,75,1,97
,,,,,,,,,,,,,,,,,,,,,,,,,,,,,,,,,,,,,,,,,,,,,,,,,,,,80,pato,Spanish,Sounds/spa_pato.mp3,2020-06-24_18h26.16.849,TranslationElicitation_eng-prolific-spa,3.2.4,Win32,60,5e9b959c77f86e0a8314b0e8,,1,0,98,75,1,97
,,,,,,,,,,,,,,,,,,,,,,,,,,,,,,,,,,,,,,,,,,l,1.603000164,L,FALSE,,,,,,,54,lengua,Spanish,Sounds/spa_lengua.mp3,2020-06-24_18h26.16.849,TranslationElicitation_eng-prolific-spa,3.2.4,Win32,60,5e9b959c77f86e0a8314b0e8,,1,0,98,50,1,97
,,,,,,,,,,,,,,,,,,,,,,,,,,,,,,,,,,,,,,,,,,a,1.788000107,LA,FALSE,,,,,,,54,lengua,Spanish,Sounds/spa_lengua.mp3,2020-06-24_18h26.16.849,TranslationElicitation_eng-prolific-spa,3.2.4,Win32,60,5e9b959c77f86e0a8314b0e8,,1,0,98,50,1,97
,,,,,,,,,,,,,,,,,,,,,,,,,,,,,,,,,,,,,,,,,,n,2.203000069,LAN,FALSE,,,,,,,54,lengua,Spanish,Sounds/spa_lengua.mp3,2020-06-24_18h26.16.849,TranslationElicitation_eng-prolific-spa,3.2.4,Win32,60,5e9b959c77f86e0a8314b0e8,,1,0,98,50,1,97
,,,,,,,,,,,,,,,,,,,,,,,,,,,,,,,,,,,,,,,,,,g,2.393000126,LANG,FALSE,,,,,,,54,lengua,Spanish,Sounds/spa_lengua.mp3,2020-06-24_18h26.16.849,TranslationElicitation_eng-prolific-spa,3.2.4,Win32,60,5e9b959c77f86e0a8314b0e8,,1,0,98,50,1,97
,,,,,,,,,,,,,,,,,,,,,,,,,,,,,,,,,,,,,,,,,,u,2.604000092,LANGU,FALSE,,,,,,,54,lengua,Spanish,Sounds/spa_lengua.mp3,2020-06-24_18h26.16.849,TranslationElicitation_eng-prolific-spa,3.2.4,Win32,60,5e9b959c77f86e0a8314b0e8,,1,0,98,50,1,97
,,,,,,,,,,,,,,,,,,,,,,,,,,,,,,,,,,,,,,,,,,a,2.772000074,LANGUA,FALSE,,,,,,,54,lengua,Spanish,Sounds/spa_lengua.mp3,2020-06-24_18h26.16.849,TranslationElicitation_eng-prolific-spa,3.2.4,Win32,60,5e9b959c77f86e0a8314b0e8,,1,0,98,50,1,97
,,,,,,,,,,,,,,,,,,,,,,,,,,,,,,,,,,,,,,,,,,g,3.567000151,LANGUAG,FALSE,,,,,,,54,lengua,Spanish,Sounds/spa_lengua.mp3,2020-06-24_18h26.16.849,TranslationElicitation_eng-prolific-spa,3.2.4,Win32,60,5e9b959c77f86e0a8314b0e8,,1,0,98,50,1,97
,,,,,,,,,,,,,,,,,,,,,,,,,,,,,,,,,,,,,,,,,,e,3.825999975,LANGUAGE,FALSE,,,,,,,54,lengua,Spanish,Sounds/spa_lengua.mp3,2020-06-24_18h26.16.849,TranslationElicitation_eng-prolific-spa,3.2.4,Win32,60,5e9b959c77f86e0a8314b0e8,,1,0,98,50,1,97
,,,,,,,,,,,,,,,,,,,,,,,,,,,,,,,,,,,,,,,,,,return,4.106000185,LANGUAGE,FALSE,,,,,,,54,lengua,Spanish,Sounds/spa_lengua.mp3,2020-06-24_18h26.16.849,TranslationElicitation_eng-prolific-spa,3.2.4,Win32,60,5e9b959c77f86e0a8314b0e8,4.106000185,1,0,98,50,1,97
,,,,,,,,,,,,,,,,,,,,,,,,,,,,,,,,,,,,,,,,,,,,,,,,,,,,54,lengua,Spanish,Sounds/spa_lengua.mp3,2020-06-24_18h26.16.849,TranslationElicitation_eng-prolific-spa,3.2.4,Win32,60,5e9b959c77f86e0a8314b0e8,,1,0,98,50,1,97
,,,,,,,,,,,,,,,,,,,,,,,,,,,,,,,,,,,,,,,,,,c,7.799999952,C,FALSE,,,,,,,15,caballo,Spanish,Sounds/spa_caballo.mp3,2020-06-24_18h26.16.849,TranslationElicitation_eng-prolific-spa,3.2.4,Win32,60,5e9b959c77f86e0a8314b0e8,,1,0,98,13,1,97
,,,,,,,,,,,,,,,,,,,,,,,,,,,,,,,,,,,,,,,,,,a,8.35800004,CA,FALSE,,,,,,,15,caballo,Spanish,Sounds/spa_caballo.mp3,2020-06-24_18h26.16.849,TranslationElicitation_eng-prolific-spa,3.2.4,Win32,60,5e9b959c77f86e0a8314b0e8,,1,0,98,13,1,97
,,,,,,,,,,,,,,,,,,,,,,,,,,,,,,,,,,,,,,,,,,r,8.664999962,CAR,FALSE,,,,,,,15,caballo,Spanish,Sounds/spa_caballo.mp3,2020-06-24_18h26.16.849,TranslationElicitation_eng-prolific-spa,3.2.4,Win32,60,5e9b959c77f86e0a8314b0e8,,1,0,98,13,1,97
,,,,,,,,,,,,,,,,,,,,,,,,,,,,,,,,,,,,,,,,,,return,8.950999975,CAR,FALSE,,,,,,,15,caballo,Spanish,Sounds/spa_caballo.mp3,2020-06-24_18h26.16.849,TranslationElicitation_eng-prolific-spa,3.2.4,Win32,60,5e9b959c77f86e0a8314b0e8,8.950999975,1,0,98,13,1,97
,,,,,,,,,,,,,,,,,,,,,,,,,,,,,,,,,,,,,,,,,,,,,,,,,,,,15,caballo,Spanish,Sounds/spa_caballo.mp3,2020-06-24_18h26.16.849,TranslationElicitation_eng-prolific-spa,3.2.4,Win32,60,5e9b959c77f86e0a8314b0e8,,1,0,98,13,1,97
,,,,,,,,,,,,,,,,,,,,,,,,,,,,,,,,,,,,,,,,,,b,3.367000103,B,FALSE,,,,,,,3,barco,Spanish,Sounds/spa_barco.mp3,2020-06-24_18h26.16.849,TranslationElicitation_eng-prolific-spa,3.2.4,Win32,60,5e9b959c77f86e0a8314b0e8,,1,0,98,1,1,97
,,,,,,,,,,,,,,,,,,,,,,,,,,,,,,,,,,,,,,,,,,a,3.769000053,BA,FALSE,,,,,,,3,barco,Spanish,Sounds/spa_barco.mp3,2020-06-24_18h26.16.849,TranslationElicitation_eng-prolific-spa,3.2.4,Win32,60,5e9b959c77f86e0a8314b0e8,,1,0,98,1,1,97
,,,,,,,,,,,,,,,,,,,,,,,,,,,,,,,,,,,,,,,,,,r,4.003000021,BAR,FALSE,,,,,,,3,barco,Spanish,Sounds/spa_barco.mp3,2020-06-24_18h26.16.849,TranslationElicitation_eng-prolific-spa,3.2.4,Win32,60,5e9b959c77f86e0a8314b0e8,,1,0,98,1,1,97
,,,,,,,,,,,,,,,,,,,,,,,,,,,,,,,,,,,,,,,,,,k,4.160000086,BARK,FALSE,,,,,,,3,barco,Spanish,Sounds/spa_barco.mp3,2020-06-24_18h26.16.849,TranslationElicitation_eng-prolific-spa,3.2.4,Win32,60,5e9b959c77f86e0a8314b0e8,,1,0,98,1,1,97
,,,,,,,,,,,,,,,,,,,,,,,,,,,,,,,,,,,,,,,,,,backspace,4.50999999,BAR,TRUE,,,,,,,3,barco,Spanish,Sounds/spa_barco.mp3,2020-06-24_18h26.16.849,TranslationElicitation_eng-prolific-spa,3.2.4,Win32,60,5e9b959c77f86e0a8314b0e8,,1,0,98,1,1,97
,,,,,,,,,,,,,,,,,,,,,,,,,,,,,,,,,,,,,,,,,,backspace,4.690000057,BA,TRUE,,,,,,,3,barco,Spanish,Sounds/spa_barco.mp3,2020-06-24_18h26.16.849,TranslationElicitation_eng-prolific-spa,3.2.4,Win32,60,5e9b959c77f86e0a8314b0e8,,1,0,98,1,1,97
,,,,,,,,,,,,,,,,,,,,,,,,,,,,,,,,,,,,,,,,,,backspace,4.828000069,B,TRUE,,,,,,,3,barco,Spanish,Sounds/spa_barco.mp3,2020-06-24_18h26.16.849,TranslationElicitation_eng-prolific-spa,3.2.4,Win32,60,5e9b959c77f86e0a8314b0e8,,1,0,98,1,1,97
,,,,,,,,,,,,,,,,,,,,,,,,,,,,,,,,,,,,,,,,,,backspace,4.967999935,,TRUE,,,,,,,3,barco,Spanish,Sounds/spa_barco.mp3,2020-06-24_18h26.16.849,TranslationElicitation_eng-prolific-spa,3.2.4,Win32,60,5e9b959c77f86e0a8314b0e8,,1,0,98,1,1,97
,,,,,,,,,,,,,,,,,,,,,,,,,,,,,,,,,,,,,,,,,,backspace,5.092999935,,TRUE,,,,,,,3,barco,Spanish,Sounds/spa_barco.mp3,2020-06-24_18h26.16.849,TranslationElicitation_eng-prolific-spa,3.2.4,Win32,60,5e9b959c77f86e0a8314b0e8,,1,0,98,1,1,97
,,,,,,,,,,,,,,,,,,,,,,,,,,,,,,,,,,,,,,,,,,t,5.160000086,T,TRUE,,,,,,,3,barco,Spanish,Sounds/spa_barco.mp3,2020-06-24_18h26.16.849,TranslationElicitation_eng-prolific-spa,3.2.4,Win32,60,5e9b959c77f86e0a8314b0e8,,1,0,98,1,1,97
,,,,,,,,,,,,,,,,,,,,,,,,,,,,,,,,,,,,,,,,,,r,5.39199996,TR,TRUE,,,,,,,3,barco,Spanish,Sounds/spa_barco.mp3,2020-06-24_18h26.16.849,TranslationElicitation_eng-prolific-spa,3.2.4,Win32,60,5e9b959c77f86e0a8314b0e8,,1,0,98,1,1,97
,,,,,,,,,,,,,,,,,,,,,,,,,,,,,,,,,,,,,,,,,,e,5.615999937,TRE,TRUE,,,,,,,3,barco,Spanish,Sounds/spa_barco.mp3,2020-06-24_18h26.16.849,TranslationElicitation_eng-prolific-spa,3.2.4,Win32,60,5e9b959c77f86e0a8314b0e8,,1,0,98,1,1,97
,,,,,,,,,,,,,,,,,,,,,,,,,,,,,,,,,,,,,,,,,,e,5.773999929,TREE,TRUE,,,,,,,3,barco,Spanish,Sounds/spa_barco.mp3,2020-06-24_18h26.16.849,TranslationElicitation_eng-prolific-spa,3.2.4,Win32,60,5e9b959c77f86e0a8314b0e8,,1,0,98,1,1,97
,,,,,,,,,,,,,,,,,,,,,,,,,,,,,,,,,,,,,,,,,,b,6.156000137,TREEB,TRUE,,,,,,,3,barco,Spanish,Sounds/spa_barco.mp3,2020-06-24_18h26.16.849,TranslationElicitation_eng-prolific-spa,3.2.4,Win32,60,5e9b959c77f86e0a8314b0e8,,1,0,98,1,1,97
,,,,,,,,,,,,,,,,,,,,,,,,,,,,,,,,,,,,,,,,,,a,6.322999954,TREEBA,TRUE,,,,,,,3,barco,Spanish,Sounds/spa_barco.mp3,2020-06-24_18h26.16.849,TranslationElicitation_eng-prolific-spa,3.2.4,Win32,60,5e9b959c77f86e0a8314b0e8,,1,0,98,1,1,97
,,,,,,,,,,,,,,,,,,,,,,,,,,,,,,,,,,,,,,,,,,backspace,6.717999935,TREEB,TRUE,,,,,,,3,barco,Spanish,Sounds/spa_barco.mp3,2020-06-24_18h26.16.849,TranslationElicitation_eng-prolific-spa,3.2.4,Win32,60,5e9b959c77f86e0a8314b0e8,,1,0,98,1,1,97
,,,,,,,,,,,,,,,,,,,,,,,,,,,,,,,,,,,,,,,,,,backspace,6.898999929,TREE,TRUE,,,,,,,3,barco,Spanish,Sounds/spa_barco.mp3,2020-06-24_18h26.16.849,TranslationElicitation_eng-prolific-spa,3.2.4,Win32,60,5e9b959c77f86e0a8314b0e8,,1,0,98,1,1,97
,,,,,,,,,,,,,,,,,,,,,,,,,,,,,,,,,,,,,,,,,,space,7.292999983,TREE ,TRUE,,,,,,,3,barco,Spanish,Sounds/spa_barco.mp3,2020-06-24_18h26.16.849,TranslationElicitation_eng-prolific-spa,3.2.4,Win32,60,5e9b959c77f86e0a8314b0e8,,1,0,98,1,1,97
,,,,,,,,,,,,,,,,,,,,,,,,,,,,,,,,,,,,,,,,,,b,7.548000097,TREE B,TRUE,,,,,,,3,barco,Spanish,Sounds/spa_barco.mp3,2020-06-24_18h26.16.849,TranslationElicitation_eng-prolific-spa,3.2.4,Win32,60,5e9b959c77f86e0a8314b0e8,,1,0,98,1,1,97
,,,,,,,,,,,,,,,,,,,,,,,,,,,,,,,,,,,,,,,,,,a,7.713999987,TREE BA,TRUE,,,,,,,3,barco,Spanish,Sounds/spa_barco.mp3,2020-06-24_18h26.16.849,TranslationElicitation_eng-prolific-spa,3.2.4,Win32,60,5e9b959c77f86e0a8314b0e8,,1,0,98,1,1,97
,,,,,,,,,,,,,,,,,,,,,,,,,,,,,,,,,,,,,,,,,,r,7.842999935,TREE BAR,TRUE,,,,,,,3,barco,Spanish,Sounds/spa_barco.mp3,2020-06-24_18h26.16.849,TranslationElicitation_eng-prolific-spa,3.2.4,Win32,60,5e9b959c77f86e0a8314b0e8,,1,0,98,1,1,97
,,,,,,,,,,,,,,,,,,,,,,,,,,,,,,,,,,,,,,,,,,k,7.999000072,TREE BARK,TRUE,,,,,,,3,barco,Spanish,Sounds/spa_barco.mp3,2020-06-24_18h26.16.849,TranslationElicitation_eng-prolific-spa,3.2.4,Win32,60,5e9b959c77f86e0a8314b0e8,,1,0,98,1,1,97
,,,,,,,,,,,,,,,,,,,,,,,,,,,,,,,,,,,,,,,,,,return,8.414999962,TREE BARK,TRUE,,,,,,,3,barco,Spanish,Sounds/spa_barco.mp3,2020-06-24_18h26.16.849,TranslationElicitation_eng-prolific-spa,3.2.4,Win32,60,5e9b959c77f86e0a8314b0e8,8.414999962,1,0,98,1,1,97
,,,,,,,,,,,,,,,,,,,,,,,,,,,,,,,,,,,,,,,,,,,,,,,,,,,,3,barco,Spanish,Sounds/spa_barco.mp3,2020-06-24_18h26.16.849,TranslationElicitation_eng-prolific-spa,3.2.4,Win32,60,5e9b959c77f86e0a8314b0e8,,1,0,98,1,1,97
,,,,,,,,,,,,,,,,,,,,,,,,,,,,,,,,,,,,,,,,,,c,3.427999973,C,FALSE,,,,,,,48,gusano,Spanish,Sounds/spa_gusano.mp3,2020-06-24_18h26.16.849,TranslationElicitation_eng-prolific-spa,3.2.4,Win32,60,5e9b959c77f86e0a8314b0e8,,1,0,98,44,1,97
,,,,,,,,,,,,,,,,,,,,,,,,,,,,,,,,,,,,,,,,,,h,3.576999903,CH,FALSE,,,,,,,48,gusano,Spanish,Sounds/spa_gusano.mp3,2020-06-24_18h26.16.849,TranslationElicitation_eng-prolific-spa,3.2.4,Win32,60,5e9b959c77f86e0a8314b0e8,,1,0,98,44,1,97
,,,,,,,,,,,,,,,,,,,,,,,,,,,,,,,,,,,,,,,,,,e,3.835999966,CHE,FALSE,,,,,,,48,gusano,Spanish,Sounds/spa_gusano.mp3,2020-06-24_18h26.16.849,TranslationElicitation_eng-prolific-spa,3.2.4,Win32,60,5e9b959c77f86e0a8314b0e8,,1,0,98,44,1,97
,,,,,,,,,,,,,,,,,,,,,,,,,,,,,,,,,,,,,,,,,,f,4.014999866,CHEF,FALSE,,,,,,,48,gusano,Spanish,Sounds/spa_gusano.mp3,2020-06-24_18h26.16.849,TranslationElicitation_eng-prolific-spa,3.2.4,Win32,60,5e9b959c77f86e0a8314b0e8,,1,0,98,44,1,97
,,,,,,,,,,,,,,,,,,,,,,,,,,,,,,,,,,,,,,,,,,return,4.222999811,CHEF,FALSE,,,,,,,48,gusano,Spanish,Sounds/spa_gusano.mp3,2020-06-24_18h26.16.849,TranslationElicitation_eng-prolific-spa,3.2.4,Win32,60,5e9b959c77f86e0a8314b0e8,4.222999811,1,0,98,44,1,97
,,,,,,,,,,,,,,,,,,,,,,,,,,,,,,,,,,,,,,,,,,,,,,,,,,,,48,gusano,Spanish,Sounds/spa_gusano.mp3,2020-06-24_18h26.16.849,TranslationElicitation_eng-prolific-spa,3.2.4,Win32,60,5e9b959c77f86e0a8314b0e8,,1,0,98,44,1,97
,,,,,,,,,,,,,,,,,,,,,,,,,,,,,,,,,,,,,,,,,,g,2.013000011,G,FALSE,,,,,,,42,gato,Spanish,Sounds/spa_gato.mp3,2020-06-24_18h26.16.849,TranslationElicitation_eng-prolific-spa,3.2.4,Win32,60,5e9b959c77f86e0a8314b0e8,,1,0,98,38,1,97
,,,,,,,,,,,,,,,,,,,,,,,,,,,,,,,,,,,,,,,,,,a,2.304999828,GA,FALSE,,,,,,,42,gato,Spanish,Sounds/spa_gato.mp3,2020-06-24_18h26.16.849,TranslationElicitation_eng-prolific-spa,3.2.4,Win32,60,5e9b959c77f86e0a8314b0e8,,1,0,98,38,1,97
,,,,,,,,,,,,,,,,,,,,,,,,,,,,,,,,,,,,,,,,,,t,2.987999916,GAT,FALSE,,,,,,,42,gato,Spanish,Sounds/spa_gato.mp3,2020-06-24_18h26.16.849,TranslationElicitation_eng-prolific-spa,3.2.4,Win32,60,5e9b959c77f86e0a8314b0e8,,1,0,98,38,1,97
,,,,,,,,,,,,,,,,,,,,,,,,,,,,,,,,,,,,,,,,,,e,3.220999956,GATE,FALSE,,,,,,,42,gato,Spanish,Sounds/spa_gato.mp3,2020-06-24_18h26.16.849,TranslationElicitation_eng-prolific-spa,3.2.4,Win32,60,5e9b959c77f86e0a8314b0e8,,1,0,98,38,1,97
,,,,,,,,,,,,,,,,,,,,,,,,,,,,,,,,,,,,,,,,,,u,3.337999821,GATEU,FALSE,,,,,,,42,gato,Spanish,Sounds/spa_gato.mp3,2020-06-24_18h26.16.849,TranslationElicitation_eng-prolific-spa,3.2.4,Win32,60,5e9b959c77f86e0a8314b0e8,,1,0,98,38,1,97
,,,,,,,,,,,,,,,,,,,,,,,,,,,,,,,,,,,,,,,,,,backspace,4.291999817,GATE,TRUE,,,,,,,42,gato,Spanish,Sounds/spa_gato.mp3,2020-06-24_18h26.16.849,TranslationElicitation_eng-prolific-spa,3.2.4,Win32,60,5e9b959c77f86e0a8314b0e8,,1,0,98,38,1,97
,,,,,,,,,,,,,,,,,,,,,,,,,,,,,,,,,,,,,,,,,,backspace,4.460999966,GAT,TRUE,,,,,,,42,gato,Spanish,Sounds/spa_gato.mp3,2020-06-24_18h26.16.849,TranslationElicitation_eng-prolific-spa,3.2.4,Win32,60,5e9b959c77f86e0a8314b0e8,,1,0,98,38,1,97
,,,,,,,,,,,,,,,,,,,,,,,,,,,,,,,,,,,,,,,,,,a,4.604999781,GATA,TRUE,,,,,,,42,gato,Spanish,Sounds/spa_gato.mp3,2020-06-24_18h26.16.849,TranslationElicitation_eng-prolific-spa,3.2.4,Win32,60,5e9b959c77f86e0a8314b0e8,,1,0,98,38,1,97
,,,,,,,,,,,,,,,,,,,,,,,,,,,,,,,,,,,,,,,,,,e,5.194000006,GATAE,TRUE,,,,,,,42,gato,Spanish,Sounds/spa_gato.mp3,2020-06-24_18h26.16.849,TranslationElicitation_eng-prolific-spa,3.2.4,Win32,60,5e9b959c77f86e0a8314b0e8,,1,0,98,38,1,97
,,,,,,,,,,,,,,,,,,,,,,,,,,,,,,,,,,,,,,,,,,u,5.395999908,GATAEU,TRUE,,,,,,,42,gato,Spanish,Sounds/spa_gato.mp3,2020-06-24_18h26.16.849,TranslationElicitation_eng-prolific-spa,3.2.4,Win32,60,5e9b959c77f86e0a8314b0e8,,1,0,98,38,1,97
,,,,,,,,,,,,,,,,,,,,,,,,,,,,,,,,,,,,,,,,,,backspace,5.871999979,GATAE,TRUE,,,,,,,42,gato,Spanish,Sounds/spa_gato.mp3,2020-06-24_18h26.16.849,TranslationElicitation_eng-prolific-spa,3.2.4,Win32,60,5e9b959c77f86e0a8314b0e8,,1,0,98,38,1,97
,,,,,,,,,,,,,,,,,,,,,,,,,,,,,,,,,,,,,,,,,,backspace,6.154999971,GATA,TRUE,,,,,,,42,gato,Spanish,Sounds/spa_gato.mp3,2020-06-24_18h26.16.849,TranslationElicitation_eng-prolific-spa,3.2.4,Win32,60,5e9b959c77f86e0a8314b0e8,,1,0,98,38,1,97
,,,,,,,,,,,,,,,,,,,,,,,,,,,,,,,,,,,,,,,,,,backspace,6.471999884,GAT,TRUE,,,,,,,42,gato,Spanish,Sounds/spa_gato.mp3,2020-06-24_18h26.16.849,TranslationElicitation_eng-prolific-spa,3.2.4,Win32,60,5e9b959c77f86e0a8314b0e8,,1,0,98,38,1,97
,,,,,,,,,,,,,,,,,,,,,,,,,,,,,,,,,,,,,,,,,,e,6.666999817,GATE,TRUE,,,,,,,42,gato,Spanish,Sounds/spa_gato.mp3,2020-06-24_18h26.16.849,TranslationElicitation_eng-prolific-spa,3.2.4,Win32,60,5e9b959c77f86e0a8314b0e8,,1,0,98,38,1,97
,,,,,,,,,,,,,,,,,,,,,,,,,,,,,,,,,,,,,,,,,,a,7.071999788,GATEA,TRUE,,,,,,,42,gato,Spanish,Sounds/spa_gato.mp3,2020-06-24_18h26.16.849,TranslationElicitation_eng-prolific-spa,3.2.4,Win32,60,5e9b959c77f86e0a8314b0e8,,1,0,98,38,1,97
,,,,,,,,,,,,,,,,,,,,,,,,,,,,,,,,,,,,,,,,,,u,7.2099998,GATEAU,TRUE,,,,,,,42,gato,Spanish,Sounds/spa_gato.mp3,2020-06-24_18h26.16.849,TranslationElicitation_eng-prolific-spa,3.2.4,Win32,60,5e9b959c77f86e0a8314b0e8,,1,0,98,38,1,97
,,,,,,,,,,,,,,,,,,,,,,,,,,,,,,,,,,,,,,,,,,return,7.764999866,GATEAU,TRUE,,,,,,,42,gato,Spanish,Sounds/spa_gato.mp3,2020-06-24_18h26.16.849,TranslationElicitation_eng-prolific-spa,3.2.4,Win32,60,5e9b959c77f86e0a8314b0e8,7.764999866,1,0,98,38,1,97
,,,,,,,,,,,,,,,,,,,,,,,,,,,,,,,,,,,,,,,,,,,,,,,,,,,,42,gato,Spanish,Sounds/spa_gato.mp3,2020-06-24_18h26.16.849,TranslationElicitation_eng-prolific-spa,3.2.4,Win32,60,5e9b959c77f86e0a8314b0e8,,1,0,98,38,1,97
,,,,,,,,,,,,,,,,,,,,,,,,,,,,,,,,,,,,,,,,,,r,7.26699996,R,FALSE,,,,,,,45,gorro,Spanish,Sounds/spa_gorro.mp3,2020-06-24_18h26.16.849,TranslationElicitation_eng-prolific-spa,3.2.4,Win32,60,5e9b959c77f86e0a8314b0e8,,1,0,98,41,1,97
,,,,,,,,,,,,,,,,,,,,,,,,,,,,,,,,,,,,,,,,,,o,7.45299983,RO,FALSE,,,,,,,45,gorro,Spanish,Sounds/spa_gorro.mp3,2020-06-24_18h26.16.849,TranslationElicitation_eng-prolific-spa,3.2.4,Win32,60,5e9b959c77f86e0a8314b0e8,,1,0,98,41,1,97
,,,,,,,,,,,,,,,,,,,,,,,,,,,,,,,,,,,,,,,,,,o,7.606999874,ROO,FALSE,,,,,,,45,gorro,Spanish,Sounds/spa_gorro.mp3,2020-06-24_18h26.16.849,TranslationElicitation_eng-prolific-spa,3.2.4,Win32,60,5e9b959c77f86e0a8314b0e8,,1,0,98,41,1,97
,,,,,,,,,,,,,,,,,,,,,,,,,,,,,,,,,,,,,,,,,,m,7.888000011,ROOM,FALSE,,,,,,,45,gorro,Spanish,Sounds/spa_gorro.mp3,2020-06-24_18h26.16.849,TranslationElicitation_eng-prolific-spa,3.2.4,Win32,60,5e9b959c77f86e0a8314b0e8,,1,0,98,41,1,97
,,,,,,,,,,,,,,,,,,,,,,,,,,,,,,,,,,,,,,,,,,return,8.271999836,ROOM,FALSE,,,,,,,45,gorro,Spanish,Sounds/spa_gorro.mp3,2020-06-24_18h26.16.849,TranslationElicitation_eng-prolific-spa,3.2.4,Win32,60,5e9b959c77f86e0a8314b0e8,8.271999836,1,0,98,41,1,97
,,,,,,,,,,,,,,,,,,,,,,,,,,,,,,,,,,,,,,,,,,,,,,,,,,,,45,gorro,Spanish,Sounds/spa_gorro.mp3,2020-06-24_18h26.16.849,TranslationElicitation_eng-prolific-spa,3.2.4,Win32,60,5e9b959c77f86e0a8314b0e8,,1,0,98,41,1,97
,,,,,,,,,,,,,,,,,,,,,,,,,,,,,,,,,,,,,,,,,,m,1.674999952,M,FALSE,,,,,,,58,luna,Spanish,Sounds/spa_luna.mp3,2020-06-24_18h26.16.849,TranslationElicitation_eng-prolific-spa,3.2.4,Win32,60,5e9b959c77f86e0a8314b0e8,,1,0,98,54,1,97
,,,,,,,,,,,,,,,,,,,,,,,,,,,,,,,,,,,,,,,,,,o,2.111000061,MO,FALSE,,,,,,,58,luna,Spanish,Sounds/spa_luna.mp3,2020-06-24_18h26.16.849,TranslationElicitation_eng-prolific-spa,3.2.4,Win32,60,5e9b959c77f86e0a8314b0e8,,1,0,98,54,1,97
,,,,,,,,,,,,,,,,,,,,,,,,,,,,,,,,,,,,,,,,,,o,2.240999937,MOO,FALSE,,,,,,,58,luna,Spanish,Sounds/spa_luna.mp3,2020-06-24_18h26.16.849,TranslationElicitation_eng-prolific-spa,3.2.4,Win32,60,5e9b959c77f86e0a8314b0e8,,1,0,98,54,1,97
,,,,,,,,,,,,,,,,,,,,,,,,,,,,,,,,,,,,,,,,,,n,2.41899991,MOON,FALSE,,,,,,,58,luna,Spanish,Sounds/spa_luna.mp3,2020-06-24_18h26.16.849,TranslationElicitation_eng-prolific-spa,3.2.4,Win32,60,5e9b959c77f86e0a8314b0e8,,1,0,98,54,1,97
,,,,,,,,,,,,,,,,,,,,,,,,,,,,,,,,,,,,,,,,,,return,2.836999893,MOON,FALSE,,,,,,,58,luna,Spanish,Sounds/spa_luna.mp3,2020-06-24_18h26.16.849,TranslationElicitation_eng-prolific-spa,3.2.4,Win32,60,5e9b959c77f86e0a8314b0e8,2.836999893,1,0,98,54,1,97
,,,,,,,,,,,,,,,,,,,,,,,,,,,,,,,,,,,,,,,,,,,,,,,,,,,,58,luna,Spanish,Sounds/spa_luna.mp3,2020-06-24_18h26.16.849,TranslationElicitation_eng-prolific-spa,3.2.4,Win32,60,5e9b959c77f86e0a8314b0e8,,1,0,98,54,1,97
,,,,,,,,,,,,,,,,,,,,,,,,,,,,,,,,,,,,,,,,,,b,1.828000069,B,FALSE,,,,,,,11,boton,Spanish,Sounds/spa_boton.mp3,2020-06-24_18h26.16.849,TranslationElicitation_eng-prolific-spa,3.2.4,Win32,60,5e9b959c77f86e0a8314b0e8,,1,0,98,9,1,97
,,,,,,,,,,,,,,,,,,,,,,,,,,,,,,,,,,,,,,,,,,a,2.144000053,BA,FALSE,,,,,,,11,boton,Spanish,Sounds/spa_boton.mp3,2020-06-24_18h26.16.849,TranslationElicitation_eng-prolific-spa,3.2.4,Win32,60,5e9b959c77f86e0a8314b0e8,,1,0,98,9,1,97
,,,,,,,,,,,,,,,,,,,,,,,,,,,,,,,,,,,,,,,,,,t,2.38499999,BAT,FALSE,,,,,,,11,boton,Spanish,Sounds/spa_boton.mp3,2020-06-24_18h26.16.849,TranslationElicitation_eng-prolific-spa,3.2.4,Win32,60,5e9b959c77f86e0a8314b0e8,,1,0,98,9,1,97
,,,,,,,,,,,,,,,,,,,,,,,,,,,,,,,,,,,,,,,,,,o,2.579999924,BATO,FALSE,,,,,,,11,boton,Spanish,Sounds/spa_boton.mp3,2020-06-24_18h26.16.849,TranslationElicitation_eng-prolific-spa,3.2.4,Win32,60,5e9b959c77f86e0a8314b0e8,,1,0,98,9,1,97
,,,,,,,,,,,,,,,,,,,,,,,,,,,,,,,,,,,,,,,,,,n,3.073999882,BATON,FALSE,,,,,,,11,boton,Spanish,Sounds/spa_boton.mp3,2020-06-24_18h26.16.849,TranslationElicitation_eng-prolific-spa,3.2.4,Win32,60,5e9b959c77f86e0a8314b0e8,,1,0,98,9,1,97
,,,,,,,,,,,,,,,,,,,,,,,,,,,,,,,,,,,,,,,,,,return,3.463999987,BATON,FALSE,,,,,,,11,boton,Spanish,Sounds/spa_boton.mp3,2020-06-24_18h26.16.849,TranslationElicitation_eng-prolific-spa,3.2.4,Win32,60,5e9b959c77f86e0a8314b0e8,3.463999987,1,0,98,9,1,97
,,,,,,,,,,,,,,,,,,,,,,,,,,,,,,,,,,,,,,,,,,,,,,,,,,,,11,boton,Spanish,Sounds/spa_boton.mp3,2020-06-24_18h26.16.849,TranslationElicitation_eng-prolific-spa,3.2.4,Win32,60,5e9b959c77f86e0a8314b0e8,,1,0,98,9,1,97
,,,,,,,,,,,,,,,,,,,,,,,,,,,,,,,,,,,,,,,,,,b,3.512000084,B,FALSE,,,,,,,9,boli,Spanish,Sounds/spa_boli.mp3,2020-06-24_18h26.16.849,TranslationElicitation_eng-prolific-spa,3.2.4,Win32,60,5e9b959c77f86e0a8314b0e8,,1,0,98,7,1,97
,,,,,,,,,,,,,,,,,,,,,,,,,,,,,,,,,,,,,,,,,,o,5.969000101,BO,FALSE,,,,,,,9,boli,Spanish,Sounds/spa_boli.mp3,2020-06-24_18h26.16.849,TranslationElicitation_eng-prolific-spa,3.2.4,Win32,60,5e9b959c77f86e0a8314b0e8,,1,0,98,7,1,97
,,,,,,,,,,,,,,,,,,,,,,,,,,,,,,,,,,,,,,,,,,w,6.154000044,BOW,FALSE,,,,,,,9,boli,Spanish,Sounds/spa_boli.mp3,2020-06-24_18h26.16.849,TranslationElicitation_eng-prolific-spa,3.2.4,Win32,60,5e9b959c77f86e0a8314b0e8,,1,0,98,7,1,97
,,,,,,,,,,,,,,,,,,,,,,,,,,,,,,,,,,,,,,,,,,l,6.279999971,BOWL,FALSE,,,,,,,9,boli,Spanish,Sounds/spa_boli.mp3,2020-06-24_18h26.16.849,TranslationElicitation_eng-prolific-spa,3.2.4,Win32,60,5e9b959c77f86e0a8314b0e8,,1,0,98,7,1,97
,,,,,,,,,,,,,,,,,,,,,,,,,,,,,,,,,,,,,,,,,,i,6.513999939,BOWLI,FALSE,,,,,,,9,boli,Spanish,Sounds/spa_boli.mp3,2020-06-24_18h26.16.849,TranslationElicitation_eng-prolific-spa,3.2.4,Win32,60,5e9b959c77f86e0a8314b0e8,,1,0,98,7,1,97
,,,,,,,,,,,,,,,,,,,,,,,,,,,,,,,,,,,,,,,,,,n,6.799999952,BOWLIN,FALSE,,,,,,,9,boli,Spanish,Sounds/spa_boli.mp3,2020-06-24_18h26.16.849,TranslationElicitation_eng-prolific-spa,3.2.4,Win32,60,5e9b959c77f86e0a8314b0e8,,1,0,98,7,1,97
,,,,,,,,,,,,,,,,,,,,,,,,,,,,,,,,,,,,,,,,,,g,6.917000055,BOWLING,FALSE,,,,,,,9,boli,Spanish,Sounds/spa_boli.mp3,2020-06-24_18h26.16.849,TranslationElicitation_eng-prolific-spa,3.2.4,Win32,60,5e9b959c77f86e0a8314b0e8,,1,0,98,7,1,97
,,,,,,,,,,,,,,,,,,,,,,,,,,,,,,,,,,,,,,,,,,return,7.381000042,BOWLING,FALSE,,,,,,,9,boli,Spanish,Sounds/spa_boli.mp3,2020-06-24_18h26.16.849,TranslationElicitation_eng-prolific-spa,3.2.4,Win32,60,5e9b959c77f86e0a8314b0e8,7.381000042,1,0,98,7,1,97
,,,,,,,,,,,,,,,,,,,,,,,,,,,,,,,,,,,,,,,,,,,,,,,,,,,,9,boli,Spanish,Sounds/spa_boli.mp3,2020-06-24_18h26.16.849,TranslationElicitation_eng-prolific-spa,3.2.4,Win32,60,5e9b959c77f86e0a8314b0e8,,1,0,98,7,1,97
,,,,,,,,,,,,,,,,,,,,,,,,,,,,,,,,,,,,,,,,,,t,5.470000029,T,FALSE,,,,,,,101,tren,Spanish,Sounds/spa_tren.mp3,2020-06-24_18h26.16.849,TranslationElicitation_eng-prolific-spa,3.2.4,Win32,60,5e9b959c77f86e0a8314b0e8,,1,0,98,95,1,97
,,,,,,,,,,,,,,,,,,,,,,,,,,,,,,,,,,,,,,,,,,h,5.625999928,TH,FALSE,,,,,,,101,tren,Spanish,Sounds/spa_tren.mp3,2020-06-24_18h26.16.849,TranslationElicitation_eng-prolific-spa,3.2.4,Win32,60,5e9b959c77f86e0a8314b0e8,,1,0,98,95,1,97
,,,,,,,,,,,,,,,,,,,,,,,,,,,,,,,,,,,,,,,,,,r,5.851000071,THR,FALSE,,,,,,,101,tren,Spanish,Sounds/spa_tren.mp3,2020-06-24_18h26.16.849,TranslationElicitation_eng-prolific-spa,3.2.4,Win32,60,5e9b959c77f86e0a8314b0e8,,1,0,98,95,1,97
,,,,,,,,,,,,,,,,,,,,,,,,,,,,,,,,,,,,,,,,,,e,6.111999989,THRE,FALSE,,,,,,,101,tren,Spanish,Sounds/spa_tren.mp3,2020-06-24_18h26.16.849,TranslationElicitation_eng-prolific-spa,3.2.4,Win32,60,5e9b959c77f86e0a8314b0e8,,1,0,98,95,1,97
,,,,,,,,,,,,,,,,,,,,,,,,,,,,,,,,,,,,,,,,,,e,6.269999981,THREE,FALSE,,,,,,,101,tren,Spanish,Sounds/spa_tren.mp3,2020-06-24_18h26.16.849,TranslationElicitation_eng-prolific-spa,3.2.4,Win32,60,5e9b959c77f86e0a8314b0e8,,1,0,98,95,1,97
,,,,,,,,,,,,,,,,,,,,,,,,,,,,,,,,,,,,,,,,,,return,6.484999895,THREE,FALSE,,,,,,,101,tren,Spanish,Sounds/spa_tren.mp3,2020-06-24_18h26.16.849,TranslationElicitation_eng-prolific-spa,3.2.4,Win32,60,5e9b959c77f86e0a8314b0e8,6.484999895,1,0,98,95,1,97
,,,,,,,,,,,,,,,,,,,,,,,,,,,,,,,,,,,,,,,,,,,,,,,,,,,,101,tren,Spanish,Sounds/spa_tren.mp3,2020-06-24_18h26.16.849,TranslationElicitation_eng-prolific-spa,3.2.4,Win32,60,5e9b959c77f86e0a8314b0e8,,1,0,98,95,1,97
,,,,,,,,,,,,,,,,,,,,,,,,,,,,,,,,,,,,,,,,,,c,8.296000004,C,FALSE,,,,,,,20,caracol,Spanish,Sounds/spa_caracol.mp3,2020-06-24_18h26.16.849,TranslationElicitation_eng-prolific-spa,3.2.4,Win32,60,5e9b959c77f86e0a8314b0e8,,1,0,98,18,1,97
,,,,,,,,,,,,,,,,,,,,,,,,,,,,,,,,,,,,,,,,,,a,9.940000057,CA,FALSE,,,,,,,20,caracol,Spanish,Sounds/spa_caracol.mp3,2020-06-24_18h26.16.849,TranslationElicitation_eng-prolific-spa,3.2.4,Win32,60,5e9b959c77f86e0a8314b0e8,,1,0,98,18,1,97
,,,,,,,,,,,,,,,,,,,,,,,,,,,,,,,,,,,,,,,,,,r,10.34800005,CAR,FALSE,,,,,,,20,caracol,Spanish,Sounds/spa_caracol.mp3,2020-06-24_18h26.16.849,TranslationElicitation_eng-prolific-spa,3.2.4,Win32,60,5e9b959c77f86e0a8314b0e8,,1,0,98,18,1,97
,,,,,,,,,,,,,,,,,,,,,,,,,,,,,,,,,,,,,,,,,,o,10.48399997,CARO,FALSE,,,,,,,20,caracol,Spanish,Sounds/spa_caracol.mp3,2020-06-24_18h26.16.849,TranslationElicitation_eng-prolific-spa,3.2.4,Win32,60,5e9b959c77f86e0a8314b0e8,,1,0,98,18,1,97
,,,,,,,,,,,,,,,,,,,,,,,,,,,,,,,,,,,,,,,,,,u,10.69499993,CAROU,FALSE,,,,,,,20,caracol,Spanish,Sounds/spa_caracol.mp3,2020-06-24_18h26.16.849,TranslationElicitation_eng-prolific-spa,3.2.4,Win32,60,5e9b959c77f86e0a8314b0e8,,1,0,98,18,1,97
,,,,,,,,,,,,,,,,,,,,,,,,,,,,,,,,,,,,,,,,,,s,10.80200005,CAROUS,FALSE,,,,,,,20,caracol,Spanish,Sounds/spa_caracol.mp3,2020-06-24_18h26.16.849,TranslationElicitation_eng-prolific-spa,3.2.4,Win32,60,5e9b959c77f86e0a8314b0e8,,1,0,98,18,1,97
,,,,,,,,,,,,,,,,,,,,,,,,,,,,,,,,,,,,,,,,,,a,11.02699995,CAROUSA,FALSE,,,,,,,20,caracol,Spanish,Sounds/spa_caracol.mp3,2020-06-24_18h26.16.849,TranslationElicitation_eng-prolific-spa,3.2.4,Win32,60,5e9b959c77f86e0a8314b0e8,,1,0,98,18,1,97
,,,,,,,,,,,,,,,,,,,,,,,,,,,,,,,,,,,,,,,,,,l,11.11400008,CAROUSAL,FALSE,,,,,,,20,caracol,Spanish,Sounds/spa_caracol.mp3,2020-06-24_18h26.16.849,TranslationElicitation_eng-prolific-spa,3.2.4,Win32,60,5e9b959c77f86e0a8314b0e8,,1,0,98,18,1,97
,,,,,,,,,,,,,,,,,,,,,,,,,,,,,,,,,,,,,,,,,,backspace,11.5309999,CAROUSA,TRUE,,,,,,,20,caracol,Spanish,Sounds/spa_caracol.mp3,2020-06-24_18h26.16.849,TranslationElicitation_eng-prolific-spa,3.2.4,Win32,60,5e9b959c77f86e0a8314b0e8,,1,0,98,18,1,97
,,,,,,,,,,,,,,,,,,,,,,,,,,,,,,,,,,,,,,,,,,backspace,11.69300008,CAROUS,TRUE,,,,,,,20,caracol,Spanish,Sounds/spa_caracol.mp3,2020-06-24_18h26.16.849,TranslationElicitation_eng-prolific-spa,3.2.4,Win32,60,5e9b959c77f86e0a8314b0e8,,1,0,98,18,1,97
,,,,,,,,,,,,,,,,,,,,,,,,,,,,,,,,,,,,,,,,,,e,11.77900004,CAROUSE,TRUE,,,,,,,20,caracol,Spanish,Sounds/spa_caracol.mp3,2020-06-24_18h26.16.849,TranslationElicitation_eng-prolific-spa,3.2.4,Win32,60,5e9b959c77f86e0a8314b0e8,,1,0,98,18,1,97
,,,,,,,,,,,,,,,,,,,,,,,,,,,,,,,,,,,,,,,,,,l,11.93700004,CAROUSEL,TRUE,,,,,,,20,caracol,Spanish,Sounds/spa_caracol.mp3,2020-06-24_18h26.16.849,TranslationElicitation_eng-prolific-spa,3.2.4,Win32,60,5e9b959c77f86e0a8314b0e8,,1,0,98,18,1,97
,,,,,,,,,,,,,,,,,,,,,,,,,,,,,,,,,,,,,,,,,,return,12.4230001,CAROUSEL,TRUE,,,,,,,20,caracol,Spanish,Sounds/spa_caracol.mp3,2020-06-24_18h26.16.849,TranslationElicitation_eng-prolific-spa,3.2.4,Win32,60,5e9b959c77f86e0a8314b0e8,12.4230001,1,0,98,18,1,97
,,,,,,,,,,,,,,,,,,,,,,,,,,,,,,,,,,,,,,,,,,,,,,,,,,,,20,caracol,Spanish,Sounds/spa_caracol.mp3,2020-06-24_18h26.16.849,TranslationElicitation_eng-prolific-spa,3.2.4,Win32,60,5e9b959c77f86e0a8314b0e8,,1,0,98,18,1,97
,,,,,,,,,,,,,,,,,,,,,,,,,,,,,,,,,,,,,,,,,,b,12.76099992,B,FALSE,,,,,,,5,bici,Spanish,Sounds/spa_bici.mp3,2020-06-24_18h26.16.849,TranslationElicitation_eng-prolific-spa,3.2.4,Win32,60,5e9b959c77f86e0a8314b0e8,,1,0,98,3,1,97
,,,,,,,,,,,,,,,,,,,,,,,,,,,,,,,,,,,,,,,,,,e,12.92700005,BE,FALSE,,,,,,,5,bici,Spanish,Sounds/spa_bici.mp3,2020-06-24_18h26.16.849,TranslationElicitation_eng-prolific-spa,3.2.4,Win32,60,5e9b959c77f86e0a8314b0e8,,1,0,98,3,1,97
,,,,,,,,,,,,,,,,,,,,,,,,,,,,,,,,,,,,,,,,,,a,13.15100002,BEA,FALSE,,,,,,,5,bici,Spanish,Sounds/spa_bici.mp3,2020-06-24_18h26.16.849,TranslationElicitation_eng-prolific-spa,3.2.4,Win32,60,5e9b959c77f86e0a8314b0e8,,1,0,98,3,1,97
,,,,,,,,,,,,,,,,,,,,,,,,,,,,,,,,,,,,,,,,,,c,13.36599994,BEAC,FALSE,,,,,,,5,bici,Spanish,Sounds/spa_bici.mp3,2020-06-24_18h26.16.849,TranslationElicitation_eng-prolific-spa,3.2.4,Win32,60,5e9b959c77f86e0a8314b0e8,,1,0,98,3,1,97
,,,,,,,,,,,,,,,,,,,,,,,,,,,,,,,,,,,,,,,,,,h,13.48600006,BEACH,FALSE,,,,,,,5,bici,Spanish,Sounds/spa_bici.mp3,2020-06-24_18h26.16.849,TranslationElicitation_eng-prolific-spa,3.2.4,Win32,60,5e9b959c77f86e0a8314b0e8,,1,0,98,3,1,97
,,,,,,,,,,,,,,,,,,,,,,,,,,,,,,,,,,,,,,,,,,return,13.87299991,BEACH,FALSE,,,,,,,5,bici,Spanish,Sounds/spa_bici.mp3,2020-06-24_18h26.16.849,TranslationElicitation_eng-prolific-spa,3.2.4,Win32,60,5e9b959c77f86e0a8314b0e8,13.87299991,1,0,98,3,1,97
,,,,,,,,,,,,,,,,,,,,,,,,,,,,,,,,,,,,,,,,,,,,,,,,,,,,5,bici,Spanish,Sounds/spa_bici.mp3,2020-06-24_18h26.16.849,TranslationElicitation_eng-prolific-spa,3.2.4,Win32,60,5e9b959c77f86e0a8314b0e8,,1,0,98,3,1,97
,,,,,,,,,,,,,,,,,,,,,,,,,,,,,,,,,,,,,,,,,,u,4.163000107,U,FALSE,,,,,,,4,biberon,Spanish,Sounds/spa_biberon.mp3,2020-06-24_18h26.16.849,TranslationElicitation_eng-prolific-spa,3.2.4,Win32,60,5e9b959c77f86e0a8314b0e8,,1,0,98,2,1,97
,,,,,,,,,,,,,,,,,,,,,,,,,,,,,,,,,,,,,,,,,,m,4.667999983,UM,FALSE,,,,,,,4,biberon,Spanish,Sounds/spa_biberon.mp3,2020-06-24_18h26.16.849,TranslationElicitation_eng-prolific-spa,3.2.4,Win32,60,5e9b959c77f86e0a8314b0e8,,1,0,98,2,1,97
,,,,,,,,,,,,,,,,,,,,,,,,,,,,,,,,,,,,,,,,,,b,4.838999987,UMB,FALSE,,,,,,,4,biberon,Spanish,Sounds/spa_biberon.mp3,2020-06-24_18h26.16.849,TranslationElicitation_eng-prolific-spa,3.2.4,Win32,60,5e9b959c77f86e0a8314b0e8,,1,0,98,2,1,97
,,,,,,,,,,,,,,,,,,,,,,,,,,,,,,,,,,,,,,,,,,r,5.344000101,UMBR,FALSE,,,,,,,4,biberon,Spanish,Sounds/spa_biberon.mp3,2020-06-24_18h26.16.849,TranslationElicitation_eng-prolific-spa,3.2.4,Win32,60,5e9b959c77f86e0a8314b0e8,,1,0,98,2,1,97
,,,,,,,,,,,,,,,,,,,,,,,,,,,,,,,,,,,,,,,,,,e,5.677000046,UMBRE,FALSE,,,,,,,4,biberon,Spanish,Sounds/spa_biberon.mp3,2020-06-24_18h26.16.849,TranslationElicitation_eng-prolific-spa,3.2.4,Win32,60,5e9b959c77f86e0a8314b0e8,,1,0,98,2,1,97
,,,,,,,,,,,,,,,,,,,,,,,,,,,,,,,,,,,,,,,,,,l,5.855000019,UMBREL,FALSE,,,,,,,4,biberon,Spanish,Sounds/spa_biberon.mp3,2020-06-24_18h26.16.849,TranslationElicitation_eng-prolific-spa,3.2.4,Win32,60,5e9b959c77f86e0a8314b0e8,,1,0,98,2,1,97
,,,,,,,,,,,,,,,,,,,,,,,,,,,,,,,,,,,,,,,,,,l,6.023000002,UMBRELL,FALSE,,,,,,,4,biberon,Spanish,Sounds/spa_biberon.mp3,2020-06-24_18h26.16.849,TranslationElicitation_eng-prolific-spa,3.2.4,Win32,60,5e9b959c77f86e0a8314b0e8,,1,0,98,2,1,97
,,,,,,,,,,,,,,,,,,,,,,,,,,,,,,,,,,,,,,,,,,a,6.162000179,UMBRELLA,FALSE,,,,,,,4,biberon,Spanish,Sounds/spa_biberon.mp3,2020-06-24_18h26.16.849,TranslationElicitation_eng-prolific-spa,3.2.4,Win32,60,5e9b959c77f86e0a8314b0e8,,1,0,98,2,1,97
,,,,,,,,,,,,,,,,,,,,,,,,,,,,,,,,,,,,,,,,,,return,6.447000027,UMBRELLA,FALSE,,,,,,,4,biberon,Spanish,Sounds/spa_biberon.mp3,2020-06-24_18h26.16.849,TranslationElicitation_eng-prolific-spa,3.2.4,Win32,60,5e9b959c77f86e0a8314b0e8,6.447000027,1,0,98,2,1,97
,,,,,,,,,,,,,,,,,,,,,,,,,,,,,,,,,,,,,,,,,,,,,,,,,,,,4,biberon,Spanish,Sounds/spa_biberon.mp3,2020-06-24_18h26.16.849,TranslationElicitation_eng-prolific-spa,3.2.4,Win32,60,5e9b959c77f86e0a8314b0e8,,1,0,98,2,1,97
,,,,,,,,,,,,,,,,,,,,,,,,,,,,,,,,,,,,,,,,,,c,1.601999998,C,FALSE,,,,,,,27,chocolate,Spanish,Sounds/spa_chocolate.mp3,2020-06-24_18h26.16.849,TranslationElicitation_eng-prolific-spa,3.2.4,Win32,60,5e9b959c77f86e0a8314b0e8,,1,0,98,24,1,97
,,,,,,,,,,,,,,,,,,,,,,,,,,,,,,,,,,,,,,,,,,h,1.700000048,CH,FALSE,,,,,,,27,chocolate,Spanish,Sounds/spa_chocolate.mp3,2020-06-24_18h26.16.849,TranslationElicitation_eng-prolific-spa,3.2.4,Win32,60,5e9b959c77f86e0a8314b0e8,,1,0,98,24,1,97
,,,,,,,,,,,,,,,,,,,,,,,,,,,,,,,,,,,,,,,,,,o,1.924000025,CHO,FALSE,,,,,,,27,chocolate,Spanish,Sounds/spa_chocolate.mp3,2020-06-24_18h26.16.849,TranslationElicitation_eng-prolific-spa,3.2.4,Win32,60,5e9b959c77f86e0a8314b0e8,,1,0,98,24,1,97
,,,,,,,,,,,,,,,,,,,,,,,,,,,,,,,,,,,,,,,,,,c,2.08100009,CHOC,FALSE,,,,,,,27,chocolate,Spanish,Sounds/spa_chocolate.mp3,2020-06-24_18h26.16.849,TranslationElicitation_eng-prolific-spa,3.2.4,Win32,60,5e9b959c77f86e0a8314b0e8,,1,0,98,24,1,97
,,,,,,,,,,,,,,,,,,,,,,,,,,,,,,,,,,,,,,,,,,o,2.528000116,CHOCO,FALSE,,,,,,,27,chocolate,Spanish,Sounds/spa_chocolate.mp3,2020-06-24_18h26.16.849,TranslationElicitation_eng-prolific-spa,3.2.4,Win32,60,5e9b959c77f86e0a8314b0e8,,1,0,98,24,1,97
,,,,,,,,,,,,,,,,,,,,,,,,,,,,,,,,,,,,,,,,,,l,2.755000114,CHOCOL,FALSE,,,,,,,27,chocolate,Spanish,Sounds/spa_chocolate.mp3,2020-06-24_18h26.16.849,TranslationElicitation_eng-prolific-spa,3.2.4,Win32,60,5e9b959c77f86e0a8314b0e8,,1,0,98,24,1,97
,,,,,,,,,,,,,,,,,,,,,,,,,,,,,,,,,,,,,,,,,,g,2.843000174,CHOCOLG,FALSE,,,,,,,27,chocolate,Spanish,Sounds/spa_chocolate.mp3,2020-06-24_18h26.16.849,TranslationElicitation_eng-prolific-spa,3.2.4,Win32,60,5e9b959c77f86e0a8314b0e8,,1,0,98,24,1,97
,,,,,,,,,,,,,,,,,,,,,,,,,,,,,,,,,,,,,,,,,,backspace,3.154000044,CHOCOL,TRUE,,,,,,,27,chocolate,Spanish,Sounds/spa_chocolate.mp3,2020-06-24_18h26.16.849,TranslationElicitation_eng-prolific-spa,3.2.4,Win32,60,5e9b959c77f86e0a8314b0e8,,1,0,98,24,1,97
,,,,,,,,,,,,,,,,,,,,,,,,,,,,,,,,,,,,,,,,,,a,3.242000103,CHOCOLA,TRUE,,,,,,,27,chocolate,Spanish,Sounds/spa_chocolate.mp3,2020-06-24_18h26.16.849,TranslationElicitation_eng-prolific-spa,3.2.4,Win32,60,5e9b959c77f86e0a8314b0e8,,1,0,98,24,1,97
,,,,,,,,,,,,,,,,,,,,,,,,,,,,,,,,,,,,,,,,,,t,3.467000008,CHOCOLAT,TRUE,,,,,,,27,chocolate,Spanish,Sounds/spa_chocolate.mp3,2020-06-24_18h26.16.849,TranslationElicitation_eng-prolific-spa,3.2.4,Win32,60,5e9b959c77f86e0a8314b0e8,,1,0,98,24,1,97
,,,,,,,,,,,,,,,,,,,,,,,,,,,,,,,,,,,,,,,,,,e,3.717000008,CHOCOLATE,TRUE,,,,,,,27,chocolate,Spanish,Sounds/spa_chocolate.mp3,2020-06-24_18h26.16.849,TranslationElicitation_eng-prolific-spa,3.2.4,Win32,60,5e9b959c77f86e0a8314b0e8,,1,0,98,24,1,97
,,,,,,,,,,,,,,,,,,,,,,,,,,,,,,,,,,,,,,,,,,return,4.139000177,CHOCOLATE,TRUE,,,,,,,27,chocolate,Spanish,Sounds/spa_chocolate.mp3,2020-06-24_18h26.16.849,TranslationElicitation_eng-prolific-spa,3.2.4,Win32,60,5e9b959c77f86e0a8314b0e8,4.139000177,1,0,98,24,1,97
,,,,,,,,,,,,,,,,,,,,,,,,,,,,,,,,,,,,,,,,,,,,,,,,,,,,27,chocolate,Spanish,Sounds/spa_chocolate.mp3,2020-06-24_18h26.16.849,TranslationElicitation_eng-prolific-spa,3.2.4,Win32,60,5e9b959c77f86e0a8314b0e8,,1,0,98,24,1,97
,,,,,,,,,,,,,,,,,,,,,,,,,,,,,,,,,,,,,,,,,,g,1.154000044,G,FALSE,,,,,,,47,guitarra,Spanish,Sounds/spa_guitarra.mp3,2020-06-24_18h26.16.849,TranslationElicitation_eng-prolific-spa,3.2.4,Win32,60,5e9b959c77f86e0a8314b0e8,,1,0,98,43,1,97
,,,,,,,,,,,,,,,,,,,,,,,,,,,,,,,,,,,,,,,,,,u,1.441000223,GU,FALSE,,,,,,,47,guitarra,Spanish,Sounds/spa_guitarra.mp3,2020-06-24_18h26.16.849,TranslationElicitation_eng-prolific-spa,3.2.4,Win32,60,5e9b959c77f86e0a8314b0e8,,1,0,98,43,1,97
,,,,,,,,,,,,,,,,,,,,,,,,,,,,,,,,,,,,,,,,,,i,1.885000229,GUI,FALSE,,,,,,,47,guitarra,Spanish,Sounds/spa_guitarra.mp3,2020-06-24_18h26.16.849,TranslationElicitation_eng-prolific-spa,3.2.4,Win32,60,5e9b959c77f86e0a8314b0e8,,1,0,98,43,1,97
,,,,,,,,,,,,,,,,,,,,,,,,,,,,,,,,,,,,,,,,,,t,2.001000166,GUIT,FALSE,,,,,,,47,guitarra,Spanish,Sounds/spa_guitarra.mp3,2020-06-24_18h26.16.849,TranslationElicitation_eng-prolific-spa,3.2.4,Win32,60,5e9b959c77f86e0a8314b0e8,,1,0,98,43,1,97
,,,,,,,,,,,,,,,,,,,,,,,,,,,,,,,,,,,,,,,,,,a,2.350000143,GUITA,FALSE,,,,,,,47,guitarra,Spanish,Sounds/spa_guitarra.mp3,2020-06-24_18h26.16.849,TranslationElicitation_eng-prolific-spa,3.2.4,Win32,60,5e9b959c77f86e0a8314b0e8,,1,0,98,43,1,97
,,,,,,,,,,,,,,,,,,,,,,,,,,,,,,,,,,,,,,,,,,r,2.49000001,GUITAR,FALSE,,,,,,,47,guitarra,Spanish,Sounds/spa_guitarra.mp3,2020-06-24_18h26.16.849,TranslationElicitation_eng-prolific-spa,3.2.4,Win32,60,5e9b959c77f86e0a8314b0e8,,1,0,98,43,1,97
,,,,,,,,,,,,,,,,,,,,,,,,,,,,,,,,,,,,,,,,,,return,2.747000217,GUITAR,FALSE,,,,,,,47,guitarra,Spanish,Sounds/spa_guitarra.mp3,2020-06-24_18h26.16.849,TranslationElicitation_eng-prolific-spa,3.2.4,Win32,60,5e9b959c77f86e0a8314b0e8,2.747000217,1,0,98,43,1,97
,,,,,,,,,,,,,,,,,,,,,,,,,,,,,,,,,,,,,,,,,,,,,,,,,,,,47,guitarra,Spanish,Sounds/spa_guitarra.mp3,2020-06-24_18h26.16.849,TranslationElicitation_eng-prolific-spa,3.2.4,Win32,60,5e9b959c77f86e0a8314b0e8,,1,0,98,43,1,97
,,,,,,,,,,,,,,,,,,,,,,,,,,,,,,,,,,,,,,,,,,a,1.713999987,A,FALSE,,,,,,,36,estrella,Spanish,Sounds/spa_estrella.mp3,2020-06-24_18h26.16.849,TranslationElicitation_eng-prolific-spa,3.2.4,Win32,60,5e9b959c77f86e0a8314b0e8,,1,0,98,32,1,97
,,,,,,,,,,,,,,,,,,,,,,,,,,,,,,,,,,,,,,,,,,u,1.907999992,AU,FALSE,,,,,,,36,estrella,Spanish,Sounds/spa_estrella.mp3,2020-06-24_18h26.16.849,TranslationElicitation_eng-prolific-spa,3.2.4,Win32,60,5e9b959c77f86e0a8314b0e8,,1,0,98,32,1,97
,,,,,,,,,,,,,,,,,,,,,,,,,,,,,,,,,,,,,,,,,,s,1.996000051,AUS,FALSE,,,,,,,36,estrella,Spanish,Sounds/spa_estrella.mp3,2020-06-24_18h26.16.849,TranslationElicitation_eng-prolific-spa,3.2.4,Win32,60,5e9b959c77f86e0a8314b0e8,,1,0,98,32,1,97
,,,,,,,,,,,,,,,,,,,,,,,,,,,,,,,,,,,,,,,,,,t,2.25999999,AUST,FALSE,,,,,,,36,estrella,Spanish,Sounds/spa_estrella.mp3,2020-06-24_18h26.16.849,TranslationElicitation_eng-prolific-spa,3.2.4,Win32,60,5e9b959c77f86e0a8314b0e8,,1,0,98,32,1,97
,,,,,,,,,,,,,,,,,,,,,,,,,,,,,,,,,,,,,,,,,,r,2.513000011,AUSTR,FALSE,,,,,,,36,estrella,Spanish,Sounds/spa_estrella.mp3,2020-06-24_18h26.16.849,TranslationElicitation_eng-prolific-spa,3.2.4,Win32,60,5e9b959c77f86e0a8314b0e8,,1,0,98,32,1,97
,,,,,,,,,,,,,,,,,,,,,,,,,,,,,,,,,,,,,,,,,,a,3.078999996,AUSTRA,FALSE,,,,,,,36,estrella,Spanish,Sounds/spa_estrella.mp3,2020-06-24_18h26.16.849,TranslationElicitation_eng-prolific-spa,3.2.4,Win32,60,5e9b959c77f86e0a8314b0e8,,1,0,98,32,1,97
,,,,,,,,,,,,,,,,,,,,,,,,,,,,,,,,,,,,,,,,,,l,3.200000048,AUSTRAL,FALSE,,,,,,,36,estrella,Spanish,Sounds/spa_estrella.mp3,2020-06-24_18h26.16.849,TranslationElicitation_eng-prolific-spa,3.2.4,Win32,60,5e9b959c77f86e0a8314b0e8,,1,0,98,32,1,97
,,,,,,,,,,,,,,,,,,,,,,,,,,,,,,,,,,,,,,,,,,i,3.470999956,AUSTRALI,FALSE,,,,,,,36,estrella,Spanish,Sounds/spa_estrella.mp3,2020-06-24_18h26.16.849,TranslationElicitation_eng-prolific-spa,3.2.4,Win32,60,5e9b959c77f86e0a8314b0e8,,1,0,98,32,1,97
,,,,,,,,,,,,,,,,,,,,,,,,,,,,,,,,,,,,,,,,,,a,3.569999933,AUSTRALIA,FALSE,,,,,,,36,estrella,Spanish,Sounds/spa_estrella.mp3,2020-06-24_18h26.16.849,TranslationElicitation_eng-prolific-spa,3.2.4,Win32,60,5e9b959c77f86e0a8314b0e8,,1,0,98,32,1,97
,,,,,,,,,,,,,,,,,,,,,,,,,,,,,,,,,,,,,,,,,,return,3.833999872,AUSTRALIA,FALSE,,,,,,,36,estrella,Spanish,Sounds/spa_estrella.mp3,2020-06-24_18h26.16.849,TranslationElicitation_eng-prolific-spa,3.2.4,Win32,60,5e9b959c77f86e0a8314b0e8,3.833999872,1,0,98,32,1,97
,,,,,,,,,,,,,,,,,,,,,,,,,,,,,,,,,,,,,,,,,,,,,,,,,,,,36,estrella,Spanish,Sounds/spa_estrella.mp3,2020-06-24_18h26.16.849,TranslationElicitation_eng-prolific-spa,3.2.4,Win32,60,5e9b959c77f86e0a8314b0e8,,1,0,98,32,1,97
,,,,,,,,,,,,,,,,,,,,,,,,,,,,,,,,,,,,,,,,,,h,2.029000044,H,FALSE,,,,,,,97,tijeras,Spanish,Sounds/spa_tijeras.mp3,2020-06-24_18h26.16.849,TranslationElicitation_eng-prolific-spa,3.2.4,Win32,60,5e9b959c77f86e0a8314b0e8,,1,0,98,91,1,97
,,,,,,,,,,,,,,,,,,,,,,,,,,,,,,,,,,,,,,,,,,a,2.144000053,HA,FALSE,,,,,,,97,tijeras,Spanish,Sounds/spa_tijeras.mp3,2020-06-24_18h26.16.849,TranslationElicitation_eng-prolific-spa,3.2.4,Win32,60,5e9b959c77f86e0a8314b0e8,,1,0,98,91,1,97
,,,,,,,,,,,,,,,,,,,,,,,,,,,,,,,,,,,,,,,,,,t,2.405999899,HAT,FALSE,,,,,,,97,tijeras,Spanish,Sounds/spa_tijeras.mp3,2020-06-24_18h26.16.849,TranslationElicitation_eng-prolific-spa,3.2.4,Win32,60,5e9b959c77f86e0a8314b0e8,,1,0,98,91,1,97
,,,,,,,,,,,,,,,,,,,,,,,,,,,,,,,,,,,,,,,,,,return,2.586999893,HAT,FALSE,,,,,,,97,tijeras,Spanish,Sounds/spa_tijeras.mp3,2020-06-24_18h26.16.849,TranslationElicitation_eng-prolific-spa,3.2.4,Win32,60,5e9b959c77f86e0a8314b0e8,2.586999893,1,0,98,91,1,97
,,,,,,,,,,,,,,,,,,,,,,,,,,,,,,,,,,,,,,,,,,,,,,,,,,,,97,tijeras,Spanish,Sounds/spa_tijeras.mp3,2020-06-24_18h26.16.849,TranslationElicitation_eng-prolific-spa,3.2.4,Win32,60,5e9b959c77f86e0a8314b0e8,,1,0,98,91,1,97
,,,,,,,,,,,,,,,,,,,,,,,,,,,,,,,,,,,,,,,,,,m,1.98300004,M,FALSE,,,,,,,63,mesa,Spanish,Sounds/spa_mesa.mp3,2020-06-24_18h26.16.849,TranslationElicitation_eng-prolific-spa,3.2.4,Win32,60,5e9b959c77f86e0a8314b0e8,,1,0,98,59,1,97
,,,,,,,,,,,,,,,,,,,,,,,,,,,,,,,,,,,,,,,,,,backspace,2.851000071,,TRUE,,,,,,,63,mesa,Spanish,Sounds/spa_mesa.mp3,2020-06-24_18h26.16.849,TranslationElicitation_eng-prolific-spa,3.2.4,Win32,60,5e9b959c77f86e0a8314b0e8,,1,0,98,59,1,97
,,,,,,,,,,,,,,,,,,,,,,,,,,,,,,,,,,,,,,,,,,c,3.286999941,C,TRUE,,,,,,,63,mesa,Spanish,Sounds/spa_mesa.mp3,2020-06-24_18h26.16.849,TranslationElicitation_eng-prolific-spa,3.2.4,Win32,60,5e9b959c77f86e0a8314b0e8,,1,0,98,59,1,97
,,,,,,,,,,,,,,,,,,,,,,,,,,,,,,,,,,,,,,,,,,a,3.64199996,CA,TRUE,,,,,,,63,mesa,Spanish,Sounds/spa_mesa.mp3,2020-06-24_18h26.16.849,TranslationElicitation_eng-prolific-spa,3.2.4,Win32,60,5e9b959c77f86e0a8314b0e8,,1,0,98,59,1,97
,,,,,,,,,,,,,,,,,,,,,,,,,,,,,,,,,,,,,,,,,,n,3.848999977,CAN,TRUE,,,,,,,63,mesa,Spanish,Sounds/spa_mesa.mp3,2020-06-24_18h26.16.849,TranslationElicitation_eng-prolific-spa,3.2.4,Win32,60,5e9b959c77f86e0a8314b0e8,,1,0,98,59,1,97
,,,,,,,,,,,,,,,,,,,,,,,,,,,,,,,,,,,,,,,,,,backspace,4.285000086,CA,TRUE,,,,,,,63,mesa,Spanish,Sounds/spa_mesa.mp3,2020-06-24_18h26.16.849,TranslationElicitation_eng-prolific-spa,3.2.4,Win32,60,5e9b959c77f86e0a8314b0e8,,1,0,98,59,1,97
,,,,,,,,,,,,,,,,,,,,,,,,,,,,,,,,,,,,,,,,,,backspace,4.463000059,C,TRUE,,,,,,,63,mesa,Spanish,Sounds/spa_mesa.mp3,2020-06-24_18h26.16.849,TranslationElicitation_eng-prolific-spa,3.2.4,Win32,60,5e9b959c77f86e0a8314b0e8,,1,0,98,59,1,97
,,,,,,,,,,,,,,,,,,,,,,,,,,,,,,,,,,,,,,,,,,backspace,4.589999914,,TRUE,,,,,,,63,mesa,Spanish,Sounds/spa_mesa.mp3,2020-06-24_18h26.16.849,TranslationElicitation_eng-prolific-spa,3.2.4,Win32,60,5e9b959c77f86e0a8314b0e8,,1,0,98,59,1,97
,,,,,,,,,,,,,,,,,,,,,,,,,,,,,,,,,,,,,,,,,,backspace,4.726999998,,TRUE,,,,,,,63,mesa,Spanish,Sounds/spa_mesa.mp3,2020-06-24_18h26.16.849,TranslationElicitation_eng-prolific-spa,3.2.4,Win32,60,5e9b959c77f86e0a8314b0e8,,1,0,98,59,1,97
,,,,,,,,,,,,,,,,,,,,,,,,,,,,,,,,,,,,,,,,,,backspace,6.505000114,,TRUE,,,,,,,63,mesa,Spanish,Sounds/spa_mesa.mp3,2020-06-24_18h26.16.849,TranslationElicitation_eng-prolific-spa,3.2.4,Win32,60,5e9b959c77f86e0a8314b0e8,,1,0,98,59,1,97
,,,,,,,,,,,,,,,,,,,,,,,,,,,,,,,,,,,,,,,,,,m,6.883000135,M,TRUE,,,,,,,63,mesa,Spanish,Sounds/spa_mesa.mp3,2020-06-24_18h26.16.849,TranslationElicitation_eng-prolific-spa,3.2.4,Win32,60,5e9b959c77f86e0a8314b0e8,,1,0,98,59,1,97
,,,,,,,,,,,,,,,,,,,,,,,,,,,,,,,,,,,,,,,,,,e,6.999000072,ME,TRUE,,,,,,,63,mesa,Spanish,Sounds/spa_mesa.mp3,2020-06-24_18h26.16.849,TranslationElicitation_eng-prolific-spa,3.2.4,Win32,60,5e9b959c77f86e0a8314b0e8,,1,0,98,59,1,97
,,,,,,,,,,,,,,,,,,,,,,,,,,,,,,,,,,,,,,,,,,s,7.203999996,MES,TRUE,,,,,,,63,mesa,Spanish,Sounds/spa_mesa.mp3,2020-06-24_18h26.16.849,TranslationElicitation_eng-prolific-spa,3.2.4,Win32,60,5e9b959c77f86e0a8314b0e8,,1,0,98,59,1,97
,,,,,,,,,,,,,,,,,,,,,,,,,,,,,,,,,,,,,,,,,,a,7.44900012,MESA,TRUE,,,,,,,63,mesa,Spanish,Sounds/spa_mesa.mp3,2020-06-24_18h26.16.849,TranslationElicitation_eng-prolific-spa,3.2.4,Win32,60,5e9b959c77f86e0a8314b0e8,,1,0,98,59,1,97
,,,,,,,,,,,,,,,,,,,,,,,,,,,,,,,,,,,,,,,,,,return,7.671999931,MESA,TRUE,,,,,,,63,mesa,Spanish,Sounds/spa_mesa.mp3,2020-06-24_18h26.16.849,TranslationElicitation_eng-prolific-spa,3.2.4,Win32,60,5e9b959c77f86e0a8314b0e8,7.671999931,1,0,98,59,1,97
,,,,,,,,,,,,,,,,,,,,,,,,,,,,,,,,,,,,,,,,,,,,,,,,,,,,63,mesa,Spanish,Sounds/spa_mesa.mp3,2020-06-24_18h26.16.849,TranslationElicitation_eng-prolific-spa,3.2.4,Win32,60,5e9b959c77f86e0a8314b0e8,,1,0,98,59,1,97
,,,,,,,,,,,,,,,,,,,,,,,,,,,,,,,,,,,,,,,,,,p,1.486000061,P,FALSE,,,,,,,86,pingino,Spanish,Sounds/spa_pinguino.mp3,2020-06-24_18h26.16.849,TranslationElicitation_eng-prolific-spa,3.2.4,Win32,60,5e9b959c77f86e0a8314b0e8,,1,0,98,81,1,97
,,,,,,,,,,,,,,,,,,,,,,,,,,,,,,,,,,,,,,,,,,e,1.761000156,PE,FALSE,,,,,,,86,pingino,Spanish,Sounds/spa_pinguino.mp3,2020-06-24_18h26.16.849,TranslationElicitation_eng-prolific-spa,3.2.4,Win32,60,5e9b959c77f86e0a8314b0e8,,1,0,98,81,1,97
,,,,,,,,,,,,,,,,,,,,,,,,,,,,,,,,,,,,,,,,,,n,1.925000191,PEN,FALSE,,,,,,,86,pingino,Spanish,Sounds/spa_pinguino.mp3,2020-06-24_18h26.16.849,TranslationElicitation_eng-prolific-spa,3.2.4,Win32,60,5e9b959c77f86e0a8314b0e8,,1,0,98,81,1,97
