consentKey.keys,consentKey.rt,languageL1Key.keys,languageL1Key.rt,languageL2,languageL2OralKey.keys,languageL2OralKey.rt,languageL2WrittenKey.keys,languageL2WrittenKey.rt,languageL3OralKey.keys,languageL3OralKey.rt,languageL3WrittenKey.keys,languageL3WrittenKey.rt,languageCatalanOralKey.keys,languageCatalanOralKey.rt,languageCatalanWrittenKey.keys,languageCatalanWrittenKey.rt,languageCatalanTimeKey.keys,languageCatalanTimeKey.rt,languageSpanishOralKey.keys,languageSpanishOralKey.rt,languageSpanishWrittenKey.keys,languageSpanishWrittenKey.rt,languageSpanishTimeKey.keys,languageSpanishTimeKey.rt,age,demoSexKey.keys,demoSexKey.rt,demoEducationKey.keys,demoEducationKey.rt,city,demoVisionKey.keys,demoVisionKey.rt,demoLanguageKey.keys,demoLanguageKey.rt,setupLocationKey.keys,setupLocationKey.rt,setupNoiseKey.keys,setupNoiseKey.rt,instructionsKeys.keys,instructionsKeys.rt,trialOffset,keyPressTime,keyPressed,inputText,error,trialsPracticeSpanish.thisRepN,trialsPracticeSpanish.thisTrialN,trialsPracticeSpanish.thisN,trialsPracticeSpanish.thisIndex,trialsPracticeSpanish.ran,trialsPracticeSpanish.order,trial_id,word,test_language,soundfile,date,expName,psychopyVersion,OS,frameRate,participant,trialsSpanish.thisRepN,trialsSpanish.thisTrialN,trialsSpanish.thisN,trialsSpanish.thisIndex,trialsSpanish.ran,trialsSpanish.order
space,0.427999735,e,3.79399991,,,,,,,,,,1,5.013999939,1,4.973999739,1,4.427999973,1,3.285000086,1,2.706999779,1,5.395999908,23,f,1.428999901,4,3.105999947,NOTTINGHAM,y,2.599999905,n,2.529999971,1,2.028000116,1,1.848999977,space,4.39199996,7.75,7.75,return,,FALSE,1,0,5,0,1,4,1,arbol,Spanish,Sounds/spa_arbol.mp3,2020-06-05_13h20.13.749,TranslationElicitation_eng-prolific,3.2.4,Win32,60,5e9df7faf4a4e4191f1f14b0,,,,,,
,,,,,,,,,,,,,,,,,,,,,,,,,,,,,,,,,,,,,,,,,,,,,,1,0,5,0,1,4,1,arbol,Spanish,Sounds/spa_arbol.mp3,2020-06-05_13h20.13.749,TranslationElicitation_eng-prolific,3.2.4,Win32,60,5e9df7faf4a4e4191f1f14b0,,,,,,
,,,,,,,,,,,,,,,,,,,,,,,,,,,,,,,,,,,,,,,,,3.867000103,3.867000103,return,,FALSE,1,0,5,1,1,4,30,corona,Spanish,Sounds/spa_corona.mp3,2020-06-05_13h20.13.749,TranslationElicitation_eng-prolific,3.2.4,Win32,60,5e9df7faf4a4e4191f1f14b0,,,,,,
,,,,,,,,,,,,,,,,,,,,,,,,,,,,,,,,,,,,,,,,,,,,,,1,0,5,1,1,4,30,corona,Spanish,Sounds/spa_corona.mp3,2020-06-05_13h20.13.749,TranslationElicitation_eng-prolific,3.2.4,Win32,60,5e9df7faf4a4e4191f1f14b0,,,,,,
,,,,,,,,,,,,,,,,,,,,,,,,,,,,,,,,,,,,,,,,,2.583999872,2.583999872,return,,FALSE,1,0,5,4,1,4,96,tigre,Spanish,Sounds/spa_tigre.mp3,2020-06-05_13h20.13.749,TranslationElicitation_eng-prolific,3.2.4,Win32,60,5e9df7faf4a4e4191f1f14b0,,,,,,
,,,,,,,,,,,,,,,,,,,,,,,,,,,,,,,,,,,,,,,,,,,,,,1,0,5,4,1,4,96,tigre,Spanish,Sounds/spa_tigre.mp3,2020-06-05_13h20.13.749,TranslationElicitation_eng-prolific,3.2.4,Win32,60,5e9df7faf4a4e4191f1f14b0,,,,,,
,,,,,,,,,,,,,,,,,,,,,,,,,,,,,,,,,,,,,,,,,7.549000025,7.549000025,return,,FALSE,1,0,5,3,1,4,70,ola,Spanish,Sounds/spa_ola.mp3,2020-06-05_13h20.13.749,TranslationElicitation_eng-prolific,3.2.4,Win32,60,5e9df7faf4a4e4191f1f14b0,,,,,,
,,,,,,,,,,,,,,,,,,,,,,,,,,,,,,,,,,,,,,,,,,,,,,1,0,5,3,1,4,70,ola,Spanish,Sounds/spa_ola.mp3,2020-06-05_13h20.13.749,TranslationElicitation_eng-prolific,3.2.4,Win32,60,5e9df7faf4a4e4191f1f14b0,,,,,,
,,,,,,,,,,,,,,,,,,,,,,,,,,,,,,,,,,,,,,,,,1.416000128,1.416000128,return,,FALSE,1,0,5,2,1,4,26,chaqueta,Spanish,Sounds/spa_chaqueta.mp3,2020-06-05_13h20.13.749,TranslationElicitation_eng-prolific,3.2.4,Win32,60,5e9df7faf4a4e4191f1f14b0,,,,,,
,,,,,,,,,,,,,,,,,,,,,,,,,,,,,,,,,,,,,,,,,,,,,,1,0,5,2,1,4,26,chaqueta,Spanish,Sounds/spa_chaqueta.mp3,2020-06-05_13h20.13.749,TranslationElicitation_eng-prolific,3.2.4,Win32,60,5e9df7faf4a4e4191f1f14b0,,,,,,
,,,,,,,,,,,,,,,,,,,,,,,,,,,,,,,,,,,,,,,,,5.732000113,5.732000113,return,,FALSE,,,,,,,85,pierna,Spanish,Sounds/spa_pierna.mp3,2020-06-05_13h20.13.749,TranslationElicitation_eng-prolific,3.2.4,Win32,60,5e9df7faf4a4e4191f1f14b0,1,0,98,80,1,97
,,,,,,,,,,,,,,,,,,,,,,,,,,,,,,,,,,,,,,,,,,,,,,,,,,,,85,pierna,Spanish,Sounds/spa_pierna.mp3,2020-06-05_13h20.13.749,TranslationElicitation_eng-prolific,3.2.4,Win32,60,5e9df7faf4a4e4191f1f14b0,1,0,98,80,1,97
,,,,,,,,,,,,,,,,,,,,,,,,,,,,,,,,,,,,,,,,,1.867000103,1.867000103,return,,FALSE,,,,,,,74,pajaro,Spanish,Sounds/spa_pajaro.mp3,2020-06-05_13h20.13.749,TranslationElicitation_eng-prolific,3.2.4,Win32,60,5e9df7faf4a4e4191f1f14b0,1,0,98,69,1,97
,,,,,,,,,,,,,,,,,,,,,,,,,,,,,,,,,,,,,,,,,,,,,,,,,,,,74,pajaro,Spanish,Sounds/spa_pajaro.mp3,2020-06-05_13h20.13.749,TranslationElicitation_eng-prolific,3.2.4,Win32,60,5e9df7faf4a4e4191f1f14b0,1,0,98,69,1,97
,,,,,,,,,,,,,,,,,,,,,,,,,,,,,,,,,,,,,,,,,1.865999937,1.865999937,return,,FALSE,,,,,,,45,gorro,Spanish,Sounds/spa_gorro.mp3,2020-06-05_13h20.13.749,TranslationElicitation_eng-prolific,3.2.4,Win32,60,5e9df7faf4a4e4191f1f14b0,1,0,98,41,1,97
,,,,,,,,,,,,,,,,,,,,,,,,,,,,,,,,,,,,,,,,,,,,,,,,,,,,45,gorro,Spanish,Sounds/spa_gorro.mp3,2020-06-05_13h20.13.749,TranslationElicitation_eng-prolific,3.2.4,Win32,60,5e9df7faf4a4e4191f1f14b0,1,0,98,41,1,97
,,,,,,,,,,,,,,,,,,,,,,,,,,,,,,,,,,,,,,,,,1.516000032,1.516000032,return,,FALSE,,,,,,,34,ensalada,Spanish,Sounds/spa_ensalada.mp3,2020-06-05_13h20.13.749,TranslationElicitation_eng-prolific,3.2.4,Win32,60,5e9df7faf4a4e4191f1f14b0,1,0,98,30,1,97
,,,,,,,,,,,,,,,,,,,,,,,,,,,,,,,,,,,,,,,,,,,,,,,,,,,,34,ensalada,Spanish,Sounds/spa_ensalada.mp3,2020-06-05_13h20.13.749,TranslationElicitation_eng-prolific,3.2.4,Win32,60,5e9df7faf4a4e4191f1f14b0,1,0,98,30,1,97
,,,,,,,,,,,,,,,,,,,,,,,,,,,,,,,,,,,,,,,,,2.049999952,2.049999952,return,,FALSE,,,,,,,75,pan,Spanish,Sounds/spa_pan.mp3,2020-06-05_13h20.13.749,TranslationElicitation_eng-prolific,3.2.4,Win32,60,5e9df7faf4a4e4191f1f14b0,1,0,98,70,1,97
,,,,,,,,,,,,,,,,,,,,,,,,,,,,,,,,,,,,,,,,,,,,,,,,,,,,75,pan,Spanish,Sounds/spa_pan.mp3,2020-06-05_13h20.13.749,TranslationElicitation_eng-prolific,3.2.4,Win32,60,5e9df7faf4a4e4191f1f14b0,1,0,98,70,1,97
,,,,,,,,,,,,,,,,,,,,,,,,,,,,,,,,,,,,,,,,,,3.26699996,space, ,FALSE,,,,,,,87,platano,Spanish,Sounds/spa_platano.mp3,2020-06-05_13h20.13.749,TranslationElicitation_eng-prolific,3.2.4,Win32,60,5e9df7faf4a4e4191f1f14b0,1,0,98,82,1,97
,,,,,,,,,,,,,,,,,,,,,,,,,,,,,,,,,,,,,,,,,,7.134000063,apostrophe, ',FALSE,,,,,,,87,platano,Spanish,Sounds/spa_platano.mp3,2020-06-05_13h20.13.749,TranslationElicitation_eng-prolific,3.2.4,Win32,60,5e9df7faf4a4e4191f1f14b0,1,0,98,82,1,97
,,,,,,,,,,,,,,,,,,,,,,,,,,,,,,,,,,,,,,,,,,8.200999975,backspace, ,TRUE,,,,,,,87,platano,Spanish,Sounds/spa_platano.mp3,2020-06-05_13h20.13.749,TranslationElicitation_eng-prolific,3.2.4,Win32,60,5e9df7faf4a4e4191f1f14b0,1,0,98,82,1,97
,,,,,,,,,,,,,,,,,,,,,,,,,,,,,,,,,,,,,,,,,,8.601000071,backspace,,TRUE,,,,,,,87,platano,Spanish,Sounds/spa_platano.mp3,2020-06-05_13h20.13.749,TranslationElicitation_eng-prolific,3.2.4,Win32,60,5e9df7faf4a4e4191f1f14b0,1,0,98,82,1,97
,,,,,,,,,,,,,,,,,,,,,,,,,,,,,,,,,,,,,,,,,9.250999928,9.250999928,return,,TRUE,,,,,,,87,platano,Spanish,Sounds/spa_platano.mp3,2020-06-05_13h20.13.749,TranslationElicitation_eng-prolific,3.2.4,Win32,60,5e9df7faf4a4e4191f1f14b0,1,0,98,82,1,97
,,,,,,,,,,,,,,,,,,,,,,,,,,,,,,,,,,,,,,,,,,,,,,,,,,,,87,platano,Spanish,Sounds/spa_platano.mp3,2020-06-05_13h20.13.749,TranslationElicitation_eng-prolific,3.2.4,Win32,60,5e9df7faf4a4e4191f1f14b0,1,0,98,82,1,97
,,,,,,,,,,,,,,,,,,,,,,,,,,,,,,,,,,,,,,,,,2.465999842,2.465999842,return,,FALSE,,,,,,,3,barco,Spanish,Sounds/spa_barco.mp3,2020-06-05_13h20.13.749,TranslationElicitation_eng-prolific,3.2.4,Win32,60,5e9df7faf4a4e4191f1f14b0,1,0,98,1,1,97
,,,,,,,,,,,,,,,,,,,,,,,,,,,,,,,,,,,,,,,,,,,,,,,,,,,,3,barco,Spanish,Sounds/spa_barco.mp3,2020-06-05_13h20.13.749,TranslationElicitation_eng-prolific,3.2.4,Win32,60,5e9df7faf4a4e4191f1f14b0,1,0,98,1,1,97
,,,,,,,,,,,,,,,,,,,,,,,,,,,,,,,,,,,,,,,,,,1.284000158,t,T,FALSE,,,,,,,99,tomate,Spanish,Sounds/spa_tomate.mp3,2020-06-05_13h20.13.749,TranslationElicitation_eng-prolific,3.2.4,Win32,60,5e9df7faf4a4e4191f1f14b0,1,0,98,93,1,97
,,,,,,,,,,,,,,,,,,,,,,,,,,,,,,,,,,,,,,,,,,1.400000095,o,TO,FALSE,,,,,,,99,tomate,Spanish,Sounds/spa_tomate.mp3,2020-06-05_13h20.13.749,TranslationElicitation_eng-prolific,3.2.4,Win32,60,5e9df7faf4a4e4191f1f14b0,1,0,98,93,1,97
,,,,,,,,,,,,,,,,,,,,,,,,,,,,,,,,,,,,,,,,,,1.534000158,m,TOM,FALSE,,,,,,,99,tomate,Spanish,Sounds/spa_tomate.mp3,2020-06-05_13h20.13.749,TranslationElicitation_eng-prolific,3.2.4,Win32,60,5e9df7faf4a4e4191f1f14b0,1,0,98,93,1,97
,,,,,,,,,,,,,,,,,,,,,,,,,,,,,,,,,,,,,,,,,,1.717000008,a,TOMA,FALSE,,,,,,,99,tomate,Spanish,Sounds/spa_tomate.mp3,2020-06-05_13h20.13.749,TranslationElicitation_eng-prolific,3.2.4,Win32,60,5e9df7faf4a4e4191f1f14b0,1,0,98,93,1,97
,,,,,,,,,,,,,,,,,,,,,,,,,,,,,,,,,,,,,,,,,,2.002000093,t,TOMAT,FALSE,,,,,,,99,tomate,Spanish,Sounds/spa_tomate.mp3,2020-06-05_13h20.13.749,TranslationElicitation_eng-prolific,3.2.4,Win32,60,5e9df7faf4a4e4191f1f14b0,1,0,98,93,1,97
,,,,,,,,,,,,,,,,,,,,,,,,,,,,,,,,,,,,,,,,,,2.134000063,o,TOMATO,FALSE,,,,,,,99,tomate,Spanish,Sounds/spa_tomate.mp3,2020-06-05_13h20.13.749,TranslationElicitation_eng-prolific,3.2.4,Win32,60,5e9df7faf4a4e4191f1f14b0,1,0,98,93,1,97
,,,,,,,,,,,,,,,,,,,,,,,,,,,,,,,,,,,,,,,,,2.550000191,2.550000191,return,TOMATO,FALSE,,,,,,,99,tomate,Spanish,Sounds/spa_tomate.mp3,2020-06-05_13h20.13.749,TranslationElicitation_eng-prolific,3.2.4,Win32,60,5e9df7faf4a4e4191f1f14b0,1,0,98,93,1,97
,,,,,,,,,,,,,,,,,,,,,,,,,,,,,,,,,,,,,,,,,,,,,,,,,,,,99,tomate,Spanish,Sounds/spa_tomate.mp3,2020-06-05_13h20.13.749,TranslationElicitation_eng-prolific,3.2.4,Win32,60,5e9df7faf4a4e4191f1f14b0,1,0,98,93,1,97
,,,,,,,,,,,,,,,,,,,,,,,,,,,,,,,,,,,,,,,,,1.632999897,1.632999897,return,,FALSE,,,,,,,84,pie,Spanish,Sounds/spa_pie.mp3,2020-06-05_13h20.13.749,TranslationElicitation_eng-prolific,3.2.4,Win32,60,5e9df7faf4a4e4191f1f14b0,1,0,98,79,1,97
,,,,,,,,,,,,,,,,,,,,,,,,,,,,,,,,,,,,,,,,,,,,,,,,,,,,84,pie,Spanish,Sounds/spa_pie.mp3,2020-06-05_13h20.13.749,TranslationElicitation_eng-prolific,3.2.4,Win32,60,5e9df7faf4a4e4191f1f14b0,1,0,98,79,1,97
,,,,,,,,,,,,,,,,,,,,,,,,,,,,,,,,,,,,,,,,,,2.433000088,b,B,FALSE,,,,,,,11,boton,Spanish,Sounds/spa_boton.mp3,2020-06-05_13h20.13.749,TranslationElicitation_eng-prolific,3.2.4,Win32,60,5e9df7faf4a4e4191f1f14b0,1,0,98,9,1,97
,,,,,,,,,,,,,,,,,,,,,,,,,,,,,,,,,,,,,,,,,,2.565999985,a,BA,FALSE,,,,,,,11,boton,Spanish,Sounds/spa_boton.mp3,2020-06-05_13h20.13.749,TranslationElicitation_eng-prolific,3.2.4,Win32,60,5e9df7faf4a4e4191f1f14b0,1,0,98,9,1,97
,,,,,,,,,,,,,,,,,,,,,,,,,,,,,,,,,,,,,,,,,,2.883000135,t,BAT,FALSE,,,,,,,11,boton,Spanish,Sounds/spa_boton.mp3,2020-06-05_13h20.13.749,TranslationElicitation_eng-prolific,3.2.4,Win32,60,5e9df7faf4a4e4191f1f14b0,1,0,98,9,1,97
,,,,,,,,,,,,,,,,,,,,,,,,,,,,,,,,,,,,,,,,,,3,o,BATO,FALSE,,,,,,,11,boton,Spanish,Sounds/spa_boton.mp3,2020-06-05_13h20.13.749,TranslationElicitation_eng-prolific,3.2.4,Win32,60,5e9df7faf4a4e4191f1f14b0,1,0,98,9,1,97
,,,,,,,,,,,,,,,,,,,,,,,,,,,,,,,,,,,,,,,,,,3.050000191,n,BATON,FALSE,,,,,,,11,boton,Spanish,Sounds/spa_boton.mp3,2020-06-05_13h20.13.749,TranslationElicitation_eng-prolific,3.2.4,Win32,60,5e9df7faf4a4e4191f1f14b0,1,0,98,9,1,97
,,,,,,,,,,,,,,,,,,,,,,,,,,,,,,,,,,,,,,,,,3.302000046,3.302000046,return,BATON,FALSE,,,,,,,11,boton,Spanish,Sounds/spa_boton.mp3,2020-06-05_13h20.13.749,TranslationElicitation_eng-prolific,3.2.4,Win32,60,5e9df7faf4a4e4191f1f14b0,1,0,98,9,1,97
,,,,,,,,,,,,,,,,,,,,,,,,,,,,,,,,,,,,,,,,,,,,,,,,,,,,11,boton,Spanish,Sounds/spa_boton.mp3,2020-06-05_13h20.13.749,TranslationElicitation_eng-prolific,3.2.4,Win32,60,5e9df7faf4a4e4191f1f14b0,1,0,98,9,1,97
,,,,,,,,,,,,,,,,,,,,,,,,,,,,,,,,,,,,,,,,,2.198999882,2.198999882,return,,FALSE,,,,,,,80,pato,Spanish,Sounds/spa_pato.mp3,2020-06-05_13h20.13.749,TranslationElicitation_eng-prolific,3.2.4,Win32,60,5e9df7faf4a4e4191f1f14b0,1,0,98,75,1,97
,,,,,,,,,,,,,,,,,,,,,,,,,,,,,,,,,,,,,,,,,,,,,,,,,,,,80,pato,Spanish,Sounds/spa_pato.mp3,2020-06-05_13h20.13.749,TranslationElicitation_eng-prolific,3.2.4,Win32,60,5e9df7faf4a4e4191f1f14b0,1,0,98,75,1,97
,,,,,,,,,,,,,,,,,,,,,,,,,,,,,,,,,,,,,,,,,1.48300004,1.48300004,return,,FALSE,,,,,,,98,tobogan,Spanish,Sounds/spa_tobogan.mp3,2020-06-05_13h20.13.749,TranslationElicitation_eng-prolific,3.2.4,Win32,60,5e9df7faf4a4e4191f1f14b0,1,0,98,92,1,97
,,,,,,,,,,,,,,,,,,,,,,,,,,,,,,,,,,,,,,,,,,,,,,,,,,,,98,tobogan,Spanish,Sounds/spa_tobogan.mp3,2020-06-05_13h20.13.749,TranslationElicitation_eng-prolific,3.2.4,Win32,60,5e9df7faf4a4e4191f1f14b0,1,0,98,92,1,97
,,,,,,,,,,,,,,,,,,,,,,,,,,,,,,,,,,,,,,,,,1.317000151,1.317000151,return,,FALSE,,,,,,,9,boli,Spanish,Sounds/spa_boli.mp3,2020-06-05_13h20.13.749,TranslationElicitation_eng-prolific,3.2.4,Win32,60,5e9df7faf4a4e4191f1f14b0,1,0,98,7,1,97
,,,,,,,,,,,,,,,,,,,,,,,,,,,,,,,,,,,,,,,,,,,,,,,,,,,,9,boli,Spanish,Sounds/spa_boli.mp3,2020-06-05_13h20.13.749,TranslationElicitation_eng-prolific,3.2.4,Win32,60,5e9df7faf4a4e4191f1f14b0,1,0,98,7,1,97
,,,,,,,,,,,,,,,,,,,,,,,,,,,,,,,,,,,,,,,,,,1.449999809,c,C,FALSE,,,,,,,16,caja,Spanish,Sounds/spa_caja.mp3,2020-06-05_13h20.13.749,TranslationElicitation_eng-prolific,3.2.4,Win32,60,5e9df7faf4a4e4191f1f14b0,1,0,98,14,1,97
,,,,,,,,,,,,,,,,,,,,,,,,,,,,,,,,,,,,,,,,,,1.633999825,a,CA,FALSE,,,,,,,16,caja,Spanish,Sounds/spa_caja.mp3,2020-06-05_13h20.13.749,TranslationElicitation_eng-prolific,3.2.4,Win32,60,5e9df7faf4a4e4191f1f14b0,1,0,98,14,1,97
,,,,,,,,,,,,,,,,,,,,,,,,,,,,,,,,,,,,,,,,,,1.816999912,r,CAR,FALSE,,,,,,,16,caja,Spanish,Sounds/spa_caja.mp3,2020-06-05_13h20.13.749,TranslationElicitation_eng-prolific,3.2.4,Win32,60,5e9df7faf4a4e4191f1f14b0,1,0,98,14,1,97
,,,,,,,,,,,,,,,,,,,,,,,,,,,,,,,,,,,,,,,,,1.967000008,1.967000008,return,CAR,FALSE,,,,,,,16,caja,Spanish,Sounds/spa_caja.mp3,2020-06-05_13h20.13.749,TranslationElicitation_eng-prolific,3.2.4,Win32,60,5e9df7faf4a4e4191f1f14b0,1,0,98,14,1,97
,,,,,,,,,,,,,,,,,,,,,,,,,,,,,,,,,,,,,,,,,,,,,,,,,,,,16,caja,Spanish,Sounds/spa_caja.mp3,2020-06-05_13h20.13.749,TranslationElicitation_eng-prolific,3.2.4,Win32,60,5e9df7faf4a4e4191f1f14b0,1,0,98,14,1,97
,,,,,,,,,,,,,,,,,,,,,,,,,,,,,,,,,,,,,,,,,1.132999897,1.132999897,return,,FALSE,,,,,,,10,botella,Spanish,Sounds/spa_botella.mp3,2020-06-05_13h20.13.749,TranslationElicitation_eng-prolific,3.2.4,Win32,60,5e9df7faf4a4e4191f1f14b0,1,0,98,8,1,97
,,,,,,,,,,,,,,,,,,,,,,,,,,,,,,,,,,,,,,,,,,,,,,,,,,,,10,botella,Spanish,Sounds/spa_botella.mp3,2020-06-05_13h20.13.749,TranslationElicitation_eng-prolific,3.2.4,Win32,60,5e9df7faf4a4e4191f1f14b0,1,0,98,8,1,97
,,,,,,,,,,,,,,,,,,,,,,,,,,,,,,,,,,,,,,,,,1.51699996,1.51699996,return,,FALSE,,,,,,,73,oveja,Spanish,Sounds/spa_oveja.mp3,2020-06-05_13h20.13.749,TranslationElicitation_eng-prolific,3.2.4,Win32,60,5e9df7faf4a4e4191f1f14b0,1,0,98,68,1,97
,,,,,,,,,,,,,,,,,,,,,,,,,,,,,,,,,,,,,,,,,,,,,,,,,,,,73,oveja,Spanish,Sounds/spa_oveja.mp3,2020-06-05_13h20.13.749,TranslationElicitation_eng-prolific,3.2.4,Win32,60,5e9df7faf4a4e4191f1f14b0,1,0,98,68,1,97
,,,,,,,,,,,,,,,,,,,,,,,,,,,,,,,,,,,,,,,,,1.400000095,1.400000095,return,,FALSE,,,,,,,14,burro,Spanish,Sounds/spa_burro.mp3,2020-06-05_13h20.13.749,TranslationElicitation_eng-prolific,3.2.4,Win32,60,5e9df7faf4a4e4191f1f14b0,1,0,98,12,1,97
,,,,,,,,,,,,,,,,,,,,,,,,,,,,,,,,,,,,,,,,,,,,,,,,,,,,14,burro,Spanish,Sounds/spa_burro.mp3,2020-06-05_13h20.13.749,TranslationElicitation_eng-prolific,3.2.4,Win32,60,5e9df7faf4a4e4191f1f14b0,1,0,98,12,1,97
,,,,,,,,,,,,,,,,,,,,,,,,,,,,,,,,,,,,,,,,,1.682999849,1.682999849,return,,FALSE,,,,,,,52,lapiz,Spanish,Sounds/spa_lapiz.mp3,2020-06-05_13h20.13.749,TranslationElicitation_eng-prolific,3.2.4,Win32,60,5e9df7faf4a4e4191f1f14b0,1,0,98,48,1,97
,,,,,,,,,,,,,,,,,,,,,,,,,,,,,,,,,,,,,,,,,,,,,,,,,,,,52,lapiz,Spanish,Sounds/spa_lapiz.mp3,2020-06-05_13h20.13.749,TranslationElicitation_eng-prolific,3.2.4,Win32,60,5e9df7faf4a4e4191f1f14b0,1,0,98,48,1,97
,,,,,,,,,,,,,,,,,,,,,,,,,,,,,,,,,,,,,,,,,1.465999842,1.465999842,return,,FALSE,,,,,,,23,cerdo,Spanish,Sounds/spa_cerdo.mp3,2020-06-05_13h20.13.749,TranslationElicitation_eng-prolific,3.2.4,Win32,60,5e9df7faf4a4e4191f1f14b0,1,0,98,21,1,97
,,,,,,,,,,,,,,,,,,,,,,,,,,,,,,,,,,,,,,,,,,,,,,,,,,,,23,cerdo,Spanish,Sounds/spa_cerdo.mp3,2020-06-05_13h20.13.749,TranslationElicitation_eng-prolific,3.2.4,Win32,60,5e9df7faf4a4e4191f1f14b0,1,0,98,21,1,97
,,,,,,,,,,,,,,,,,,,,,,,,,,,,,,,,,,,,,,,,,1.217000008,1.217000008,return,,FALSE,,,,,,,41,gallina,Spanish,Sounds/spa_gallina.mp3,2020-06-05_13h20.13.749,TranslationElicitation_eng-prolific,3.2.4,Win32,60,5e9df7faf4a4e4191f1f14b0,1,0,98,37,1,97
,,,,,,,,,,,,,,,,,,,,,,,,,,,,,,,,,,,,,,,,,,,,,,,,,,,,41,gallina,Spanish,Sounds/spa_gallina.mp3,2020-06-05_13h20.13.749,TranslationElicitation_eng-prolific,3.2.4,Win32,60,5e9df7faf4a4e4191f1f14b0,1,0,98,37,1,97
,,,,,,,,,,,,,,,,,,,,,,,,,,,,,,,,,,,,,,,,,1.650000095,1.650000095,return,,FALSE,,,,,,,58,luna,Spanish,Sounds/spa_luna.mp3,2020-06-05_13h20.13.749,TranslationElicitation_eng-prolific,3.2.4,Win32,60,5e9df7faf4a4e4191f1f14b0,1,0,98,54,1,97
,,,,,,,,,,,,,,,,,,,,,,,,,,,,,,,,,,,,,,,,,,,,,,,,,,,,58,luna,Spanish,Sounds/spa_luna.mp3,2020-06-05_13h20.13.749,TranslationElicitation_eng-prolific,3.2.4,Win32,60,5e9df7faf4a4e4191f1f14b0,1,0,98,54,1,97
,,,,,,,,,,,,,,,,,,,,,,,,,,,,,,,,,,,,,,,,,,1.816999912,m,M,FALSE,,,,,,,53,leche,Spanish,Sounds/spa_leche.mp3,2020-06-05_13h20.13.749,TranslationElicitation_eng-prolific,3.2.4,Win32,60,5e9df7faf4a4e4191f1f14b0,1,0,98,49,1,97
,,,,,,,,,,,,,,,,,,,,,,,,,,,,,,,,,,,,,,,,,,2.066999912,i,MI,FALSE,,,,,,,53,leche,Spanish,Sounds/spa_leche.mp3,2020-06-05_13h20.13.749,TranslationElicitation_eng-prolific,3.2.4,Win32,60,5e9df7faf4a4e4191f1f14b0,1,0,98,49,1,97
,,,,,,,,,,,,,,,,,,,,,,,,,,,,,,,,,,,,,,,,,,2.332999945,l,MIL,FALSE,,,,,,,53,leche,Spanish,Sounds/spa_leche.mp3,2020-06-05_13h20.13.749,TranslationElicitation_eng-prolific,3.2.4,Win32,60,5e9df7faf4a4e4191f1f14b0,1,0,98,49,1,97
,,,,,,,,,,,,,,,,,,,,,,,,,,,,,,,,,,,,,,,,,,2.5,k,MILK,FALSE,,,,,,,53,leche,Spanish,Sounds/spa_leche.mp3,2020-06-05_13h20.13.749,TranslationElicitation_eng-prolific,3.2.4,Win32,60,5e9df7faf4a4e4191f1f14b0,1,0,98,49,1,97
,,,,,,,,,,,,,,,,,,,,,,,,,,,,,,,,,,,,,,,,,3.099999905,3.099999905,return,MILK,FALSE,,,,,,,53,leche,Spanish,Sounds/spa_leche.mp3,2020-06-05_13h20.13.749,TranslationElicitation_eng-prolific,3.2.4,Win32,60,5e9df7faf4a4e4191f1f14b0,1,0,98,49,1,97
,,,,,,,,,,,,,,,,,,,,,,,,,,,,,,,,,,,,,,,,,,,,,,,,,,,,53,leche,Spanish,Sounds/spa_leche.mp3,2020-06-05_13h20.13.749,TranslationElicitation_eng-prolific,3.2.4,Win32,60,5e9df7faf4a4e4191f1f14b0,1,0,98,49,1,97
,,,,,,,,,,,,,,,,,,,,,,,,,,,,,,,,,,,,,,,,,0.948999882,0.948999882,return,,FALSE,,,,,,,32,cuchara,Spanish,Sounds/spa_cuchara.mp3,2020-06-05_13h20.13.749,TranslationElicitation_eng-prolific,3.2.4,Win32,60,5e9df7faf4a4e4191f1f14b0,1,0,98,28,1,97
,,,,,,,,,,,,,,,,,,,,,,,,,,,,,,,,,,,,,,,,,,,,,,,,,,,,32,cuchara,Spanish,Sounds/spa_cuchara.mp3,2020-06-05_13h20.13.749,TranslationElicitation_eng-prolific,3.2.4,Win32,60,5e9df7faf4a4e4191f1f14b0,1,0,98,28,1,97
,,,,,,,,,,,,,,,,,,,,,,,,,,,,,,,,,,,,,,,,,1.316999912,1.316999912,return,,FALSE,,,,,,,13,buho,Spanish,Sounds/spa_buho.mp3,2020-06-05_13h20.13.749,TranslationElicitation_eng-prolific,3.2.4,Win32,60,5e9df7faf4a4e4191f1f14b0,1,0,98,11,1,97
,,,,,,,,,,,,,,,,,,,,,,,,,,,,,,,,,,,,,,,,,,,,,,,,,,,,13,buho,Spanish,Sounds/spa_buho.mp3,2020-06-05_13h20.13.749,TranslationElicitation_eng-prolific,3.2.4,Win32,60,5e9df7faf4a4e4191f1f14b0,1,0,98,11,1,97
,,,,,,,,,,,,,,,,,,,,,,,,,,,,,,,,,,,,,,,,,1.183000088,1.183000088,return,,FALSE,,,,,,,2,avestruz,Spanish,Sounds/spa_avestruz.mp3,2020-06-05_13h20.13.749,TranslationElicitation_eng-prolific,3.2.4,Win32,60,5e9df7faf4a4e4191f1f14b0,1,0,98,0,1,97
,,,,,,,,,,,,,,,,,,,,,,,,,,,,,,,,,,,,,,,,,,,,,,,,,,,,2,avestruz,Spanish,Sounds/spa_avestruz.mp3,2020-06-05_13h20.13.749,TranslationElicitation_eng-prolific,3.2.4,Win32,60,5e9df7faf4a4e4191f1f14b0,1,0,98,0,1,97
,,,,,,,,,,,,,,,,,,,,,,,,,,,,,,,,,,,,,,,,,5.633000135,5.633000135,return,,FALSE,,,,,,,44,gorrion,Spanish,Sounds/spa_gorrion.mp3,2020-06-05_13h20.13.749,TranslationElicitation_eng-prolific,3.2.4,Win32,60,5e9df7faf4a4e4191f1f14b0,1,0,98,40,1,97
,,,,,,,,,,,,,,,,,,,,,,,,,,,,,,,,,,,,,,,,,,,,,,,,,,,,44,gorrion,Spanish,Sounds/spa_gorrion.mp3,2020-06-05_13h20.13.749,TranslationElicitation_eng-prolific,3.2.4,Win32,60,5e9df7faf4a4e4191f1f14b0,1,0,98,40,1,97
,,,,,,,,,,,,,,,,,,,,,,,,,,,,,,,,,,,,,,,,,1.26699996,1.26699996,return,,FALSE,,,,,,,31,cubo,Spanish,Sounds/spa_cubo.mp3,2020-06-05_13h20.13.749,TranslationElicitation_eng-prolific,3.2.4,Win32,60,5e9df7faf4a4e4191f1f14b0,1,0,98,27,1,97
,,,,,,,,,,,,,,,,,,,,,,,,,,,,,,,,,,,,,,,,,,,,,,,,,,,,31,cubo,Spanish,Sounds/spa_cubo.mp3,2020-06-05_13h20.13.749,TranslationElicitation_eng-prolific,3.2.4,Win32,60,5e9df7faf4a4e4191f1f14b0,1,0,98,27,1,97
,,,,,,,,,,,,,,,,,,,,,,,,,,,,,,,,,,,,,,,,,1.849999905,1.849999905,return,,FALSE,,,,,,,36,estrella,Spanish,Sounds/spa_estrella.mp3,2020-06-05_13h20.13.749,TranslationElicitation_eng-prolific,3.2.4,Win32,60,5e9df7faf4a4e4191f1f14b0,1,0,98,32,1,97
,,,,,,,,,,,,,,,,,,,,,,,,,,,,,,,,,,,,,,,,,,,,,,,,,,,,36,estrella,Spanish,Sounds/spa_estrella.mp3,2020-06-05_13h20.13.749,TranslationElicitation_eng-prolific,3.2.4,Win32,60,5e9df7faf4a4e4191f1f14b0,1,0,98,32,1,97
,,,,,,,,,,,,,,,,,,,,,,,,,,,,,,,,,,,,,,,,,1.383000135,1.383000135,return,,FALSE,,,,,,,103,zanahoria,Spanish,Sounds/spa_zanahoria.mp3,2020-06-05_13h20.13.749,TranslationElicitation_eng-prolific,3.2.4,Win32,60,5e9df7faf4a4e4191f1f14b0,1,0,98,97,1,97
,,,,,,,,,,,,,,,,,,,,,,,,,,,,,,,,,,,,,,,,,,,,,,,,,,,,103,zanahoria,Spanish,Sounds/spa_zanahoria.mp3,2020-06-05_13h20.13.749,TranslationElicitation_eng-prolific,3.2.4,Win32,60,5e9df7faf4a4e4191f1f14b0,1,0,98,97,1,97
,,,,,,,,,,,,,,,,,,,,,,,,,,,,,,,,,,,,,,,,,1.349999905,1.349999905,return,,FALSE,,,,,,,95,tenedor,Spanish,Sounds/spa_tenedor.mp3,2020-06-05_13h20.13.749,TranslationElicitation_eng-prolific,3.2.4,Win32,60,5e9df7faf4a4e4191f1f14b0,1,0,98,90,1,97
,,,,,,,,,,,,,,,,,,,,,,,,,,,,,,,,,,,,,,,,,,,,,,,,,,,,95,tenedor,Spanish,Sounds/spa_tenedor.mp3,2020-06-05_13h20.13.749,TranslationElicitation_eng-prolific,3.2.4,Win32,60,5e9df7faf4a4e4191f1f14b0,1,0,98,90,1,97
,,,,,,,,,,,,,,,,,,,,,,,,,,,,,,,,,,,,,,,,,2.566999912,2.566999912,return,,FALSE,,,,,,,29,coche,Spanish,Sounds/spa_coche.mp3,2020-06-05_13h20.13.749,TranslationElicitation_eng-prolific,3.2.4,Win32,60,5e9df7faf4a4e4191f1f14b0,1,0,98,26,1,97
,,,,,,,,,,,,,,,,,,,,,,,,,,,,,,,,,,,,,,,,,,,,,,,,,,,,29,coche,Spanish,Sounds/spa_coche.mp3,2020-06-05_13h20.13.749,TranslationElicitation_eng-prolific,3.2.4,Win32,60,5e9df7faf4a4e4191f1f14b0,1,0,98,26,1,97
,,,,,,,,,,,,,,,,,,,,,,,,,,,,,,,,,,,,,,,,,2.700000048,2.700000048,return,,FALSE,,,,,,,17,calcetin,Spanish,Sounds/spa_calcetin.mp3,2020-06-05_13h20.13.749,TranslationElicitation_eng-prolific,3.2.4,Win32,60,5e9df7faf4a4e4191f1f14b0,1,0,98,15,1,97
,,,,,,,,,,,,,,,,,,,,,,,,,,,,,,,,,,,,,,,,,,,,,,,,,,,,17,calcetin,Spanish,Sounds/spa_calcetin.mp3,2020-06-05_13h20.13.749,TranslationElicitation_eng-prolific,3.2.4,Win32,60,5e9df7faf4a4e4191f1f14b0,1,0,98,15,1,97
,,,,,,,,,,,,,,,,,,,,,,,,,,,,,,,,,,,,,,,,,1.867000103,1.867000103,return,,FALSE,,,,,,,72,osito,Spanish,Sounds/spa_osito.mp3,2020-06-05_13h20.13.749,TranslationElicitation_eng-prolific,3.2.4,Win32,60,5e9df7faf4a4e4191f1f14b0,1,0,98,67,1,97
,,,,,,,,,,,,,,,,,,,,,,,,,,,,,,,,,,,,,,,,,,,,,,,,,,,,72,osito,Spanish,Sounds/spa_osito.mp3,2020-06-05_13h20.13.749,TranslationElicitation_eng-prolific,3.2.4,Win32,60,5e9df7faf4a4e4191f1f14b0,1,0,98,67,1,97
,,,,,,,,,,,,,,,,,,,,,,,,,,,,,,,,,,,,,,,,,,4.332999945,b,B,FALSE,,,,,,,56,libro,Spanish,Sounds/spa_libro.mp3,2020-06-05_13h20.13.749,TranslationElicitation_eng-prolific,3.2.4,Win32,60,5e9df7faf4a4e4191f1f14b0,1,0,98,52,1,97
,,,,,,,,,,,,,,,,,,,,,,,,,,,,,,,,,,,,,,,,,,4.531999826,o,BO,FALSE,,,,,,,56,libro,Spanish,Sounds/spa_libro.mp3,2020-06-05_13h20.13.749,TranslationElicitation_eng-prolific,3.2.4,Win32,60,5e9df7faf4a4e4191f1f14b0,1,0,98,52,1,97
,,,,,,,,,,,,,,,,,,,,,,,,,,,,,,,,,,,,,,,,,,4.698999882,o,BOO,FALSE,,,,,,,56,libro,Spanish,Sounds/spa_libro.mp3,2020-06-05_13h20.13.749,TranslationElicitation_eng-prolific,3.2.4,Win32,60,5e9df7faf4a4e4191f1f14b0,1,0,98,52,1,97
,,,,,,,,,,,,,,,,,,,,,,,,,,,,,,,,,,,,,,,,,,4.766000032,k,BOOK,FALSE,,,,,,,56,libro,Spanish,Sounds/spa_libro.mp3,2020-06-05_13h20.13.749,TranslationElicitation_eng-prolific,3.2.4,Win32,60,5e9df7faf4a4e4191f1f14b0,1,0,98,52,1,97
,,,,,,,,,,,,,,,,,,,,,,,,,,,,,,,,,,,,,,,,,5.315999985,5.315999985,return,BOOK,FALSE,,,,,,,56,libro,Spanish,Sounds/spa_libro.mp3,2020-06-05_13h20.13.749,TranslationElicitation_eng-prolific,3.2.4,Win32,60,5e9df7faf4a4e4191f1f14b0,1,0,98,52,1,97
,,,,,,,,,,,,,,,,,,,,,,,,,,,,,,,,,,,,,,,,,,,,,,,,,,,,56,libro,Spanish,Sounds/spa_libro.mp3,2020-06-05_13h20.13.749,TranslationElicitation_eng-prolific,3.2.4,Win32,60,5e9df7faf4a4e4191f1f14b0,1,0,98,52,1,97
,,,,,,,,,,,,,,,,,,,,,,,,,,,,,,,,,,,,,,,,,1.450000048,1.450000048,return,,FALSE,,,,,,,50,jirafa,Spanish,Sounds/spa_jirafa.mp3,2020-06-05_13h20.13.749,TranslationElicitation_eng-prolific,3.2.4,Win32,60,5e9df7faf4a4e4191f1f14b0,1,0,98,46,1,97
,,,,,,,,,,,,,,,,,,,,,,,,,,,,,,,,,,,,,,,,,,,,,,,,,,,,50,jirafa,Spanish,Sounds/spa_jirafa.mp3,2020-06-05_13h20.13.749,TranslationElicitation_eng-prolific,3.2.4,Win32,60,5e9df7faf4a4e4191f1f14b0,1,0,98,46,1,97
,,,,,,,,,,,,,,,,,,,,,,,,,,,,,,,,,,,,,,,,,1.883999825,1.883999825,return,,FALSE,,,,,,,39,gafas,Spanish,Sounds/spa_gafas.mp3,2020-06-05_13h20.13.749,TranslationElicitation_eng-prolific,3.2.4,Win32,60,5e9df7faf4a4e4191f1f14b0,1,0,98,35,1,97
,,,,,,,,,,,,,,,,,,,,,,,,,,,,,,,,,,,,,,,,,,,,,,,,,,,,39,gafas,Spanish,Sounds/spa_gafas.mp3,2020-06-05_13h20.13.749,TranslationElicitation_eng-prolific,3.2.4,Win32,60,5e9df7faf4a4e4191f1f14b0,1,0,98,35,1,97
,,,,,,,,,,,,,,,,,,,,,,,,,,,,,,,,,,,,,,,,,1.100000143,1.100000143,return,,FALSE,,,,,,,62,martillo,Spanish,Sounds/spa_martillo.mp3,2020-06-05_13h20.13.749,TranslationElicitation_eng-prolific,3.2.4,Win32,60,5e9df7faf4a4e4191f1f14b0,1,0,98,58,1,97
,,,,,,,,,,,,,,,,,,,,,,,,,,,,,,,,,,,,,,,,,,,,,,,,,,,,62,martillo,Spanish,Sounds/spa_martillo.mp3,2020-06-05_13h20.13.749,TranslationElicitation_eng-prolific,3.2.4,Win32,60,5e9df7faf4a4e4191f1f14b0,1,0,98,58,1,97
,,,,,,,,,,,,,,,,,,,,,,,,,,,,,,,,,,,,,,,,,1.448999882,1.448999882,return,,FALSE,,,,,,,5,bici,Spanish,Sounds/spa_bici.mp3,2020-06-05_13h20.13.749,TranslationElicitation_eng-prolific,3.2.4,Win32,60,5e9df7faf4a4e4191f1f14b0,1,0,98,3,1,97
,,,,,,,,,,,,,,,,,,,,,,,,,,,,,,,,,,,,,,,,,,,,,,,,,,,,5,bici,Spanish,Sounds/spa_bici.mp3,2020-06-05_13h20.13.749,TranslationElicitation_eng-prolific,3.2.4,Win32,60,5e9df7faf4a4e4191f1f14b0,1,0,98,3,1,97
,,,,,,,,,,,,,,,,,,,,,,,,,,,,,,,,,,,,,,,,,1.365999937,1.365999937,return,,FALSE,,,,,,,83,pez,Spanish,Sounds/spa_pez.mp3,2020-06-05_13h20.13.749,TranslationElicitation_eng-prolific,3.2.4,Win32,60,5e9df7faf4a4e4191f1f14b0,1,0,98,78,1,97
,,,,,,,,,,,,,,,,,,,,,,,,,,,,,,,,,,,,,,,,,,,,,,,,,,,,83,pez,Spanish,Sounds/spa_pez.mp3,2020-06-05_13h20.13.749,TranslationElicitation_eng-prolific,3.2.4,Win32,60,5e9df7faf4a4e4191f1f14b0,1,0,98,78,1,97
,,,,,,,,,,,,,,,,,,,,,,,,,,,,,,,,,,,,,,,,,1.25,1.25,return,,FALSE,,,,,,,40,galleta,Spanish,Sounds/spa_galleta.mp3,2020-06-05_13h20.13.749,TranslationElicitation_eng-prolific,3.2.4,Win32,60,5e9df7faf4a4e4191f1f14b0,1,0,98,36,1,97
,,,,,,,,,,,,,,,,,,,,,,,,,,,,,,,,,,,,,,,,,,,,,,,,,,,,40,galleta,Spanish,Sounds/spa_galleta.mp3,2020-06-05_13h20.13.749,TranslationElicitation_eng-prolific,3.2.4,Win32,60,5e9df7faf4a4e4191f1f14b0,1,0,98,36,1,97
,,,,,,,,,,,,,,,,,,,,,,,,,,,,,,,,,,,,,,,,,1.53399992,1.53399992,return,,FALSE,,,,,,,19,camiseta,Spanish,Sounds/spa_camiseta.mp3,2020-06-05_13h20.13.749,TranslationElicitation_eng-prolific,3.2.4,Win32,60,5e9df7faf4a4e4191f1f14b0,1,0,98,17,1,97
,,,,,,,,,,,,,,,,,,,,,,,,,,,,,,,,,,,,,,,,,,,,,,,,,,,,19,camiseta,Spanish,Sounds/spa_camiseta.mp3,2020-06-05_13h20.13.749,TranslationElicitation_eng-prolific,3.2.4,Win32,60,5e9df7faf4a4e4191f1f14b0,1,0,98,17,1,97
,,,,,,,,,,,,,,,,,,,,,,,,,,,,,,,,,,,,,,,,,1.583000183,1.583000183,return,,FALSE,,,,,,,79,patata,Spanish,Sounds/spa_patata.mp3,2020-06-05_13h20.13.749,TranslationElicitation_eng-prolific,3.2.4,Win32,60,5e9df7faf4a4e4191f1f14b0,1,0,98,74,1,97
,,,,,,,,,,,,,,,,,,,,,,,,,,,,,,,,,,,,,,,,,,,,,,,,,,,,79,patata,Spanish,Sounds/spa_patata.mp3,2020-06-05_13h20.13.749,TranslationElicitation_eng-prolific,3.2.4,Win32,60,5e9df7faf4a4e4191f1f14b0,1,0,98,74,1,97
,,,,,,,,,,,,,,,,,,,,,,,,,,,,,,,,,,,,,,,,,1.565999985,1.565999985,return,,FALSE,,,,,,,76,panal,Spanish,Sounds/spa_panal.mp3,2020-06-05_13h20.13.749,TranslationElicitation_eng-prolific,3.2.4,Win32,60,5e9df7faf4a4e4191f1f14b0,1,0,98,71,1,97
,,,,,,,,,,,,,,,,,,,,,,,,,,,,,,,,,,,,,,,,,,,,,,,,,,,,76,panal,Spanish,Sounds/spa_panal.mp3,2020-06-05_13h20.13.749,TranslationElicitation_eng-prolific,3.2.4,Win32,60,5e9df7faf4a4e4191f1f14b0,1,0,98,71,1,97
,,,,,,,,,,,,,,,,,,,,,,,,,,,,,,,,,,,,,,,,,2.132999897,2.132999897,return,,FALSE,,,,,,,78,pastel,Spanish,Sounds/spa_pastel.mp3,2020-06-05_13h20.13.749,TranslationElicitation_eng-prolific,3.2.4,Win32,60,5e9df7faf4a4e4191f1f14b0,1,0,98,73,1,97
,,,,,,,,,,,,,,,,,,,,,,,,,,,,,,,,,,,,,,,,,,,,,,,,,,,,78,pastel,Spanish,Sounds/spa_pastel.mp3,2020-06-05_13h20.13.749,TranslationElicitation_eng-prolific,3.2.4,Win32,60,5e9df7faf4a4e4191f1f14b0,1,0,98,73,1,97
,,,,,,,,,,,,,,,,,,,,,,,,,,,,,,,,,,,,,,,,,1.683000088,1.683000088,return,,FALSE,,,,,,,7,bocadillo,Spanish,Sounds/spa_bocadillo.mp3,2020-06-05_13h20.13.749,TranslationElicitation_eng-prolific,3.2.4,Win32,60,5e9df7faf4a4e4191f1f14b0,1,0,98,5,1,97
,,,,,,,,,,,,,,,,,,,,,,,,,,,,,,,,,,,,,,,,,,,,,,,,,,,,7,bocadillo,Spanish,Sounds/spa_bocadillo.mp3,2020-06-05_13h20.13.749,TranslationElicitation_eng-prolific,3.2.4,Win32,60,5e9df7faf4a4e4191f1f14b0,1,0,98,5,1,97
,,,,,,,,,,,,,,,,,,,,,,,,,,,,,,,,,,,,,,,,,2.417000055,2.417000055,return,,FALSE,,,,,,,77,pantalon,Spanish,Sounds/spa_pantalon.mp3,2020-06-05_13h20.13.749,TranslationElicitation_eng-prolific,3.2.4,Win32,60,5e9df7faf4a4e4191f1f14b0,1,0,98,72,1,97
,,,,,,,,,,,,,,,,,,,,,,,,,,,,,,,,,,,,,,,,,,,,,,,,,,,,77,pantalon,Spanish,Sounds/spa_pantalon.mp3,2020-06-05_13h20.13.749,TranslationElicitation_eng-prolific,3.2.4,Win32,60,5e9df7faf4a4e4191f1f14b0,1,0,98,72,1,97
,,,,,,,,,,,,,,,,,,,,,,,,,,,,,,,,,,,,,,,,,2.78399992,2.78399992,return,,FALSE,,,,,,,69,nariz,Spanish,Sounds/spa_nariz.mp3,2020-06-05_13h20.13.749,TranslationElicitation_eng-prolific,3.2.4,Win32,60,5e9df7faf4a4e4191f1f14b0,1,0,98,65,1,97
,,,,,,,,,,,,,,,,,,,,,,,,,,,,,,,,,,,,,,,,,,,,,,,,,,,,69,nariz,Spanish,Sounds/spa_nariz.mp3,2020-06-05_13h20.13.749,TranslationElicitation_eng-prolific,3.2.4,Win32,60,5e9df7faf4a4e4191f1f14b0,1,0,98,65,1,97
,,,,,,,,,,,,,,,,,,,,,,,,,,,,,,,,,,,,,,,,,,2.400000095,w,W,FALSE,,,,,,,100,toro,Spanish,Sounds/spa_toro.mp3,2020-06-05_13h20.13.749,TranslationElicitation_eng-prolific,3.2.4,Win32,60,5e9df7faf4a4e4191f1f14b0,1,0,98,94,1,97
,,,,,,,,,,,,,,,,,,,,,,,,,,,,,,,,,,,,,,,,,,2.51699996,o,WO,FALSE,,,,,,,100,toro,Spanish,Sounds/spa_toro.mp3,2020-06-05_13h20.13.749,TranslationElicitation_eng-prolific,3.2.4,Win32,60,5e9df7faf4a4e4191f1f14b0,1,0,98,94,1,97
,,,,,,,,,,,,,,,,,,,,,,,,,,,,,,,,,,,,,,,,,,2.717000008,l,WOL,FALSE,,,,,,,100,toro,Spanish,Sounds/spa_toro.mp3,2020-06-05_13h20.13.749,TranslationElicitation_eng-prolific,3.2.4,Win32,60,5e9df7faf4a4e4191f1f14b0,1,0,98,94,1,97
,,,,,,,,,,,,,,,,,,,,,,,,,,,,,,,,,,,,,,,,,,2.950000048,f,WOLF,FALSE,,,,,,,100,toro,Spanish,Sounds/spa_toro.mp3,2020-06-05_13h20.13.749,TranslationElicitation_eng-prolific,3.2.4,Win32,60,5e9df7faf4a4e4191f1f14b0,1,0,98,94,1,97
,,,,,,,,,,,,,,,,,,,,,,,,,,,,,,,,,,,,,,,,,3.133000135,3.133000135,return,WOLF,FALSE,,,,,,,100,toro,Spanish,Sounds/spa_toro.mp3,2020-06-05_13h20.13.749,TranslationElicitation_eng-prolific,3.2.4,Win32,60,5e9df7faf4a4e4191f1f14b0,1,0,98,94,1,97
,,,,,,,,,,,,,,,,,,,,,,,,,,,,,,,,,,,,,,,,,,,,,,,,,,,,100,toro,Spanish,Sounds/spa_toro.mp3,2020-06-05_13h20.13.749,TranslationElicitation_eng-prolific,3.2.4,Win32,60,5e9df7faf4a4e4191f1f14b0,1,0,98,94,1,97
,,,,,,,,,,,,,,,,,,,,,,,,,,,,,,,,,,,,,,,,,1.75,1.75,return,,FALSE,,,,,,,97,tijeras,Spanish,Sounds/spa_tijeras.mp3,2020-06-05_13h20.13.749,TranslationElicitation_eng-prolific,3.2.4,Win32,60,5e9df7faf4a4e4191f1f14b0,1,0,98,91,1,97
,,,,,,,,,,,,,,,,,,,,,,,,,,,,,,,,,,,,,,,,,,,,,,,,,,,,97,tijeras,Spanish,Sounds/spa_tijeras.mp3,2020-06-05_13h20.13.749,TranslationElicitation_eng-prolific,3.2.4,Win32,60,5e9df7faf4a4e4191f1f14b0,1,0,98,91,1,97
,,,,,,,,,,,,,,,,,,,,,,,,,,,,,,,,,,,,,,,,,,1.799000025,s,S,FALSE,,,,,,,57,loro,Spanish,Sounds/spa_loro.mp3,2020-06-05_13h20.13.749,TranslationElicitation_eng-prolific,3.2.4,Win32,60,5e9df7faf4a4e4191f1f14b0,1,0,98,53,1,97
,,,,,,,,,,,,,,,,,,,,,,,,,,,,,,,,,,,,,,,,,,2.46600008,backspace,,TRUE,,,,,,,57,loro,Spanish,Sounds/spa_loro.mp3,2020-06-05_13h20.13.749,TranslationElicitation_eng-prolific,3.2.4,Win32,60,5e9df7faf4a4e4191f1f14b0,1,0,98,53,1,97
,,,,,,,,,,,,,,,,,,,,,,,,,,,,,,,,,,,,,,,,,,3.032999992,t,T,TRUE,,,,,,,57,loro,Spanish,Sounds/spa_loro.mp3,2020-06-05_13h20.13.749,TranslationElicitation_eng-prolific,3.2.4,Win32,60,5e9df7faf4a4e4191f1f14b0,1,0,98,53,1,97
,,,,,,,,,,,,,,,,,,,,,,,,,,,,,,,,,,,,,,,,,,3.165999889,h,TH,TRUE,,,,,,,57,loro,Spanish,Sounds/spa_loro.mp3,2020-06-05_13h20.13.749,TranslationElicitation_eng-prolific,3.2.4,Win32,60,5e9df7faf4a4e4191f1f14b0,1,0,98,53,1,97
,,,,,,,,,,,,,,,,,,,,,,,,,,,,,,,,,,,,,,,,,,3.23300004,e,THE,TRUE,,,,,,,57,loro,Spanish,Sounds/spa_loro.mp3,2020-06-05_13h20.13.749,TranslationElicitation_eng-prolific,3.2.4,Win32,60,5e9df7faf4a4e4191f1f14b0,1,0,98,53,1,97
,,,,,,,,,,,,,,,,,,,,,,,,,,,,,,,,,,,,,,,,,,3.315999985,y,THEY,TRUE,,,,,,,57,loro,Spanish,Sounds/spa_loro.mp3,2020-06-05_13h20.13.749,TranslationElicitation_eng-prolific,3.2.4,Win32,60,5e9df7faf4a4e4191f1f14b0,1,0,98,53,1,97
,,,,,,,,,,,,,,,,,,,,,,,,,,,,,,,,,,,,,,,,,3.48300004,3.48300004,return,THEY,TRUE,,,,,,,57,loro,Spanish,Sounds/spa_loro.mp3,2020-06-05_13h20.13.749,TranslationElicitation_eng-prolific,3.2.4,Win32,60,5e9df7faf4a4e4191f1f14b0,1,0,98,53,1,97
,,,,,,,,,,,,,,,,,,,,,,,,,,,,,,,,,,,,,,,,,,,,,,,,,,,,57,loro,Spanish,Sounds/spa_loro.mp3,2020-06-05_13h20.13.749,TranslationElicitation_eng-prolific,3.2.4,Win32,60,5e9df7faf4a4e4191f1f14b0,1,0,98,53,1,97
,,,,,,,,,,,,,,,,,,,,,,,,,,,,,,,,,,,,,,,,,3.332999945,3.332999945,return,,FALSE,,,,,,,63,mesa,Spanish,Sounds/spa_mesa.mp3,2020-06-05_13h20.13.749,TranslationElicitation_eng-prolific,3.2.4,Win32,60,5e9df7faf4a4e4191f1f14b0,1,0,98,59,1,97
,,,,,,,,,,,,,,,,,,,,,,,,,,,,,,,,,,,,,,,,,,,,,,,,,,,,63,mesa,Spanish,Sounds/spa_mesa.mp3,2020-06-05_13h20.13.749,TranslationElicitation_eng-prolific,3.2.4,Win32,60,5e9df7faf4a4e4191f1f14b0,1,0,98,59,1,97
,,,,,,,,,,,,,,,,,,,,,,,,,,,,,,,,,,,,,,,,,,2.282999992,w,W,FALSE,,,,,,,6,boca,Spanish,Sounds/spa_boca.mp3,2020-06-05_13h20.13.749,TranslationElicitation_eng-prolific,3.2.4,Win32,60,5e9df7faf4a4e4191f1f14b0,1,0,98,4,1,97
,,,,,,,,,,,,,,,,,,,,,,,,,,,,,,,,,,,,,,,,,,2.383000135,o,WO,FALSE,,,,,,,6,boca,Spanish,Sounds/spa_boca.mp3,2020-06-05_13h20.13.749,TranslationElicitation_eng-prolific,3.2.4,Win32,60,5e9df7faf4a4e4191f1f14b0,1,0,98,4,1,97
,,,,,,,,,,,,,,,,,,,,,,,,,,,,,,,,,,,,,,,,,,2.532999992,l,WOL,FALSE,,,,,,,6,boca,Spanish,Sounds/spa_boca.mp3,2020-06-05_13h20.13.749,TranslationElicitation_eng-prolific,3.2.4,Win32,60,5e9df7faf4a4e4191f1f14b0,1,0,98,4,1,97
,,,,,,,,,,,,,,,,,,,,,,,,,,,,,,,,,,,,,,,,,,2.601000071,f,WOLF,FALSE,,,,,,,6,boca,Spanish,Sounds/spa_boca.mp3,2020-06-05_13h20.13.749,TranslationElicitation_eng-prolific,3.2.4,Win32,60,5e9df7faf4a4e4191f1f14b0,1,0,98,4,1,97
,,,,,,,,,,,,,,,,,,,,,,,,,,,,,,,,,,,,,,,,,2.749000072,2.749000072,return,WOLF,FALSE,,,,,,,6,boca,Spanish,Sounds/spa_boca.mp3,2020-06-05_13h20.13.749,TranslationElicitation_eng-prolific,3.2.4,Win32,60,5e9df7faf4a4e4191f1f14b0,1,0,98,4,1,97
,,,,,,,,,,,,,,,,,,,,,,,,,,,,,,,,,,,,,,,,,,,,,,,,,,,,6,boca,Spanish,Sounds/spa_boca.mp3,2020-06-05_13h20.13.749,TranslationElicitation_eng-prolific,3.2.4,Win32,60,5e9df7faf4a4e4191f1f14b0,1,0,98,4,1,97
,,,,,,,,,,,,,,,,,,,,,,,,,,,,,,,,,,,,,,,,,2.516000032,2.516000032,return,,FALSE,,,,,,,47,guitarra,Spanish,Sounds/spa_guitarra.mp3,2020-06-05_13h20.13.749,TranslationElicitation_eng-prolific,3.2.4,Win32,60,5e9df7faf4a4e4191f1f14b0,1,0,98,43,1,97
,,,,,,,,,,,,,,,,,,,,,,,,,,,,,,,,,,,,,,,,,,,,,,,,,,,,47,guitarra,Spanish,Sounds/spa_guitarra.mp3,2020-06-05_13h20.13.749,TranslationElicitation_eng-prolific,3.2.4,Win32,60,5e9df7faf4a4e4191f1f14b0,1,0,98,43,1,97
,,,,,,,,,,,,,,,,,,,,,,,,,,,,,,,,,,,,,,,,,2.166000128,2.166000128,return,,FALSE,,,,,,,101,tren,Spanish,Sounds/spa_tren.mp3,2020-06-05_13h20.13.749,TranslationElicitation_eng-prolific,3.2.4,Win32,60,5e9df7faf4a4e4191f1f14b0,1,0,98,95,1,97
,,,,,,,,,,,,,,,,,,,,,,,,,,,,,,,,,,,,,,,,,,,,,,,,,,,,101,tren,Spanish,Sounds/spa_tren.mp3,2020-06-05_13h20.13.749,TranslationElicitation_eng-prolific,3.2.4,Win32,60,5e9df7faf4a4e4191f1f14b0,1,0,98,95,1,97
,,,,,,,,,,,,,,,,,,,,,,,,,,,,,,,,,,,,,,,,,1.332999945,1.332999945,return,,FALSE,,,,,,,59,mano,Spanish,Sounds/spa_mano.mp3,2020-06-05_13h20.13.749,TranslationElicitation_eng-prolific,3.2.4,Win32,60,5e9df7faf4a4e4191f1f14b0,1,0,98,55,1,97
,,,,,,,,,,,,,,,,,,,,,,,,,,,,,,,,,,,,,,,,,,,,,,,,,,,,59,mano,Spanish,Sounds/spa_mano.mp3,2020-06-05_13h20.13.749,TranslationElicitation_eng-prolific,3.2.4,Win32,60,5e9df7faf4a4e4191f1f14b0,1,0,98,55,1,97
,,,,,,,,,,,,,,,,,,,,,,,,,,,,,,,,,,,,,,,,,1.650000095,1.650000095,return,,FALSE,,,,,,,54,lengua,Spanish,Sounds/spa_lengua.mp3,2020-06-05_13h20.13.749,TranslationElicitation_eng-prolific,3.2.4,Win32,60,5e9df7faf4a4e4191f1f14b0,1,0,98,50,1,97
,,,,,,,,,,,,,,,,,,,,,,,,,,,,,,,,,,,,,,,,,,,,,,,,,,,,54,lengua,Spanish,Sounds/spa_lengua.mp3,2020-06-05_13h20.13.749,TranslationElicitation_eng-prolific,3.2.4,Win32,60,5e9df7faf4a4e4191f1f14b0,1,0,98,50,1,97
,,,,,,,,,,,,,,,,,,,,,,,,,,,,,,,,,,,,,,,,,1.73300004,1.73300004,return,,FALSE,,,,,,,22,cepillo,Spanish,Sounds/spa_cepillo.mp3,2020-06-05_13h20.13.749,TranslationElicitation_eng-prolific,3.2.4,Win32,60,5e9df7faf4a4e4191f1f14b0,1,0,98,20,1,97
,,,,,,,,,,,,,,,,,,,,,,,,,,,,,,,,,,,,,,,,,,,,,,,,,,,,22,cepillo,Spanish,Sounds/spa_cepillo.mp3,2020-06-05_13h20.13.749,TranslationElicitation_eng-prolific,3.2.4,Win32,60,5e9df7faf4a4e4191f1f14b0,1,0,98,20,1,97
,,,,,,,,,,,,,,,,,,,,,,,,,,,,,,,,,,,,,,,,,1.699999809,1.699999809,return,,FALSE,,,,,,,55,leon,Spanish,Sounds/spa_leon.mp3,2020-06-05_13h20.13.749,TranslationElicitation_eng-prolific,3.2.4,Win32,60,5e9df7faf4a4e4191f1f14b0,1,0,98,51,1,97
,,,,,,,,,,,,,,,,,,,,,,,,,,,,,,,,,,,,,,,,,,,,,,,,,,,,55,leon,Spanish,Sounds/spa_leon.mp3,2020-06-05_13h20.13.749,TranslationElicitation_eng-prolific,3.2.4,Win32,60,5e9df7faf4a4e4191f1f14b0,1,0,98,51,1,97
,,,,,,,,,,,,,,,,,,,,,,,,,,,,,,,,,,,,,,,,,2.117000103,2.117000103,return,,FALSE,,,,,,,25,cesta,Spanish,Sounds/spa_cesta.mp3,2020-06-05_13h20.13.749,TranslationElicitation_eng-prolific,3.2.4,Win32,60,5e9df7faf4a4e4191f1f14b0,1,0,98,23,1,97
,,,,,,,,,,,,,,,,,,,,,,,,,,,,,,,,,,,,,,,,,,,,,,,,,,,,25,cesta,Spanish,Sounds/spa_cesta.mp3,2020-06-05_13h20.13.749,TranslationElicitation_eng-prolific,3.2.4,Win32,60,5e9df7faf4a4e4191f1f14b0,1,0,98,23,1,97
,,,,,,,,,,,,,,,,,,,,,,,,,,,,,,,,,,,,,,,,,1.467000008,1.467000008,return,,FALSE,,,,,,,94,tambor,Spanish,Sounds/spa_tambor.mp3,2020-06-05_13h20.13.749,TranslationElicitation_eng-prolific,3.2.4,Win32,60,5e9df7faf4a4e4191f1f14b0,1,0,98,89,1,97
,,,,,,,,,,,,,,,,,,,,,,,,,,,,,,,,,,,,,,,,,,,,,,,,,,,,94,tambor,Spanish,Sounds/spa_tambor.mp3,2020-06-05_13h20.13.749,TranslationElicitation_eng-prolific,3.2.4,Win32,60,5e9df7faf4a4e4191f1f14b0,1,0,98,89,1,97
,,,,,,,,,,,,,,,,,,,,,,,,,,,,,,,,,,,,,,,,,1.599999905,1.599999905,return,,FALSE,,,,,,,38,frambuesa,Spanish,Sounds/spa_frambuesa.mp3,2020-06-05_13h20.13.749,TranslationElicitation_eng-prolific,3.2.4,Win32,60,5e9df7faf4a4e4191f1f14b0,1,0,98,34,1,97
,,,,,,,,,,,,,,,,,,,,,,,,,,,,,,,,,,,,,,,,,,,,,,,,,,,,38,frambuesa,Spanish,Sounds/spa_frambuesa.mp3,2020-06-05_13h20.13.749,TranslationElicitation_eng-prolific,3.2.4,Win32,60,5e9df7faf4a4e4191f1f14b0,1,0,98,34,1,97
,,,,,,,,,,,,,,,,,,,,,,,,,,,,,,,,,,,,,,,,,3.782999992,3.782999992,return,,FALSE,,,,,,,88,plato,Spanish,Sounds/spa_plato.mp3,2020-06-05_13h20.13.749,TranslationElicitation_eng-prolific,3.2.4,Win32,60,5e9df7faf4a4e4191f1f14b0,1,0,98,83,1,97
,,,,,,,,,,,,,,,,,,,,,,,,,,,,,,,,,,,,,,,,,,,,,,,,,,,,88,plato,Spanish,Sounds/spa_plato.mp3,2020-06-05_13h20.13.749,TranslationElicitation_eng-prolific,3.2.4,Win32,60,5e9df7faf4a4e4191f1f14b0,1,0,98,83,1,97
,,,,,,,,,,,,,,,,,,,,,,,,,,,,,,,,,,,,,,,,,,3.850000143,c,C,FALSE,,,,,,,90,pollo,Spanish,Sounds/spa_pollo.mp3,2020-06-05_13h20.13.749,TranslationElicitation_eng-prolific,3.2.4,Win32,60,5e9df7faf4a4e4191f1f14b0,1,0,98,85,1,97
,,,,,,,,,,,,,,,,,,,,,,,,,,,,,,,,,,,,,,,,,,3.985000134,h,CH,FALSE,,,,,,,90,pollo,Spanish,Sounds/spa_pollo.mp3,2020-06-05_13h20.13.749,TranslationElicitation_eng-prolific,3.2.4,Win32,60,5e9df7faf4a4e4191f1f14b0,1,0,98,85,1,97
,,,,,,,,,,,,,,,,,,,,,,,,,,,,,,,,,,,,,,,,,,4.049999952,i,CHI,FALSE,,,,,,,90,pollo,Spanish,Sounds/spa_pollo.mp3,2020-06-05_13h20.13.749,TranslationElicitation_eng-prolific,3.2.4,Win32,60,5e9df7faf4a4e4191f1f14b0,1,0,98,85,1,97
,,,,,,,,,,,,,,,,,,,,,,,,,,,,,,,,,,,,,,,,,,4.233999968,c,CHIC,FALSE,,,,,,,90,pollo,Spanish,Sounds/spa_pollo.mp3,2020-06-05_13h20.13.749,TranslationElicitation_eng-prolific,3.2.4,Win32,60,5e9df7faf4a4e4191f1f14b0,1,0,98,85,1,97
,,,,,,,,,,,,,,,,,,,,,,,,,,,,,,,,,,,,,,,,,,4.26699996,k,CHICK,FALSE,,,,,,,90,pollo,Spanish,Sounds/spa_pollo.mp3,2020-06-05_13h20.13.749,TranslationElicitation_eng-prolific,3.2.4,Win32,60,5e9df7faf4a4e4191f1f14b0,1,0,98,85,1,97
,,,,,,,,,,,,,,,,,,,,,,,,,,,,,,,,,,,,,,,,,,4.5,e,CHICKE,FALSE,,,,,,,90,pollo,Spanish,Sounds/spa_pollo.mp3,2020-06-05_13h20.13.749,TranslationElicitation_eng-prolific,3.2.4,Win32,60,5e9df7faf4a4e4191f1f14b0,1,0,98,85,1,97
,,,,,,,,,,,,,,,,,,,,,,,,,,,,,,,,,,,,,,,,,,4.600000143,n,CHICKEN,FALSE,,,,,,,90,pollo,Spanish,Sounds/spa_pollo.mp3,2020-06-05_13h20.13.749,TranslationElicitation_eng-prolific,3.2.4,Win32,60,5e9df7faf4a4e4191f1f14b0,1,0,98,85,1,97
,,,,,,,,,,,,,,,,,,,,,,,,,,,,,,,,,,,,,,,,,4.799999952,4.799999952,return,CHICKEN,FALSE,,,,,,,90,pollo,Spanish,Sounds/spa_pollo.mp3,2020-06-05_13h20.13.749,TranslationElicitation_eng-prolific,3.2.4,Win32,60,5e9df7faf4a4e4191f1f14b0,1,0,98,85,1,97
,,,,,,,,,,,,,,,,,,,,,,,,,,,,,,,,,,,,,,,,,,,,,,,,,,,,90,pollo,Spanish,Sounds/spa_pollo.mp3,2020-06-05_13h20.13.749,TranslationElicitation_eng-prolific,3.2.4,Win32,60,5e9df7faf4a4e4191f1f14b0,1,0,98,85,1,97
,,,,,,,,,,,,,,,,,,,,,,,,,,,,,,,,,,,,,,,,,1.134000063,1.134000063,return,,FALSE,,,,,,,48,gusano,Spanish,Sounds/spa_gusano.mp3,2020-06-05_13h20.13.749,TranslationElicitation_eng-prolific,3.2.4,Win32,60,5e9df7faf4a4e4191f1f14b0,1,0,98,44,1,97
,,,,,,,,,,,,,,,,,,,,,,,,,,,,,,,,,,,,,,,,,,,,,,,,,,,,48,gusano,Spanish,Sounds/spa_gusano.mp3,2020-06-05_13h20.13.749,TranslationElicitation_eng-prolific,3.2.4,Win32,60,5e9df7faf4a4e4191f1f14b0,1,0,98,44,1,97
,,,,,,,,,,,,,,,,,,,,,,,,,,,,,,,,,,,,,,,,,1.100000143,1.100000143,return,,FALSE,,,,,,,18,camisa,Spanish,Sounds/spa_camisa.mp3,2020-06-05_13h20.13.749,TranslationElicitation_eng-prolific,3.2.4,Win32,60,5e9df7faf4a4e4191f1f14b0,1,0,98,16,1,97
,,,,,,,,,,,,,,,,,,,,,,,,,,,,,,,,,,,,,,,,,,,,,,,,,,,,18,camisa,Spanish,Sounds/spa_camisa.mp3,2020-06-05_13h20.13.749,TranslationElicitation_eng-prolific,3.2.4,Win32,60,5e9df7faf4a4e4191f1f14b0,1,0,98,16,1,97
,,,,,,,,,,,,,,,,,,,,,,,,,,,,,,,,,,,,,,,,,1.5,1.5,return,,FALSE,,,,,,,71,ombligo,Spanish,Sounds/spa_ombligo.mp3,2020-06-05_13h20.13.749,TranslationElicitation_eng-prolific,3.2.4,Win32,60,5e9df7faf4a4e4191f1f14b0,1,0,98,66,1,97
,,,,,,,,,,,,,,,,,,,,,,,,,,,,,,,,,,,,,,,,,,,,,,,,,,,,71,ombligo,Spanish,Sounds/spa_ombligo.mp3,2020-06-05_13h20.13.749,TranslationElicitation_eng-prolific,3.2.4,Win32,60,5e9df7faf4a4e4191f1f14b0,1,0,98,66,1,97
,,,,,,,,,,,,,,,,,,,,,,,,,,,,,,,,,,,,,,,,,1.599999905,1.599999905,return,,FALSE,,,,,,,68,naranja,Spanish,Sounds/spa_naranja.mp3,2020-06-05_13h20.13.749,TranslationElicitation_eng-prolific,3.2.4,Win32,60,5e9df7faf4a4e4191f1f14b0,1,0,98,64,1,97
,,,,,,,,,,,,,,,,,,,,,,,,,,,,,,,,,,,,,,,,,,,,,,,,,,,,68,naranja,Spanish,Sounds/spa_naranja.mp3,2020-06-05_13h20.13.749,TranslationElicitation_eng-prolific,3.2.4,Win32,60,5e9df7faf4a4e4191f1f14b0,1,0,98,64,1,97
,,,,,,,,,,,,,,,,,,,,,,,,,,,,,,,,,,,,,,,,,1.200000048,1.200000048,return,,FALSE,,,,,,,4,biberon,Spanish,Sounds/spa_biberon.mp3,2020-06-05_13h20.13.749,TranslationElicitation_eng-prolific,3.2.4,Win32,60,5e9df7faf4a4e4191f1f14b0,1,0,98,2,1,97
,,,,,,,,,,,,,,,,,,,,,,,,,,,,,,,,,,,,,,,,,,,,,,,,,,,,4,biberon,Spanish,Sounds/spa_biberon.mp3,2020-06-05_13h20.13.749,TranslationElicitation_eng-prolific,3.2.4,Win32,60,5e9df7faf4a4e4191f1f14b0,1,0,98,2,1,97
,,,,,,,,,,,,,,,,,,,,,,,,,,,,,,,,,,,,,,,,,,2.452000141,z,Z,FALSE,,,,,,,21,cebra,Spanish,Sounds/spa_cebra.mp3,2020-06-05_13h20.13.749,TranslationElicitation_eng-prolific,3.2.4,Win32,60,5e9df7faf4a4e4191f1f14b0,1,0,98,19,1,97
,,,,,,,,,,,,,,,,,,,,,,,,,,,,,,,,,,,,,,,,,,2.967000008,e,ZE,FALSE,,,,,,,21,cebra,Spanish,Sounds/spa_cebra.mp3,2020-06-05_13h20.13.749,TranslationElicitation_eng-prolific,3.2.4,Win32,60,5e9df7faf4a4e4191f1f14b0,1,0,98,19,1,97
,,,,,,,,,,,,,,,,,,,,,,,,,,,,,,,,,,,,,,,,,,3.117000103,b,ZEB,FALSE,,,,,,,21,cebra,Spanish,Sounds/spa_cebra.mp3,2020-06-05_13h20.13.749,TranslationElicitation_eng-prolific,3.2.4,Win32,60,5e9df7faf4a4e4191f1f14b0,1,0,98,19,1,97
,,,,,,,,,,,,,,,,,,,,,,,,,,,,,,,,,,,,,,,,,,3.220000029,r,ZEBR,FALSE,,,,,,,21,cebra,Spanish,Sounds/spa_cebra.mp3,2020-06-05_13h20.13.749,TranslationElicitation_eng-prolific,3.2.4,Win32,60,5e9df7faf4a4e4191f1f14b0,1,0,98,19,1,97
,,,,,,,,,,,,,,,,,,,,,,,,,,,,,,,,,,,,,,,,,,3.433000088,a,ZEBRA,FALSE,,,,,,,21,cebra,Spanish,Sounds/spa_cebra.mp3,2020-06-05_13h20.13.749,TranslationElicitation_eng-prolific,3.2.4,Win32,60,5e9df7faf4a4e4191f1f14b0,1,0,98,19,1,97
,,,,,,,,,,,,,,,,,,,,,,,,,,,,,,,,,,,,,,,,,3.565999985,3.565999985,return,ZEBRA,FALSE,,,,,,,21,cebra,Spanish,Sounds/spa_cebra.mp3,2020-06-05_13h20.13.749,TranslationElicitation_eng-prolific,3.2.4,Win32,60,5e9df7faf4a4e4191f1f14b0,1,0,98,19,1,97
,,,,,,,,,,,,,,,,,,,,,,,,,,,,,,,,,,,,,,,,,,,,,,,,,,,,21,cebra,Spanish,Sounds/spa_cebra.mp3,2020-06-05_13h20.13.749,TranslationElicitation_eng-prolific,3.2.4,Win32,60,5e9df7faf4a4e4191f1f14b0,1,0,98,19,1,97
,,,,,,,,,,,,,,,,,,,,,,,,,,,,,,,,,,,,,,,,,3.183000088,3.183000088,return,,FALSE,,,,,,,89,pluma,Spanish,Sounds/spa_pluma.mp3,2020-06-05_13h20.13.749,TranslationElicitation_eng-prolific,3.2.4,Win32,60,5e9df7faf4a4e4191f1f14b0,1,0,98,84,1,97
,,,,,,,,,,,,,,,,,,,,,,,,,,,,,,,,,,,,,,,,,,,,,,,,,,,,89,pluma,Spanish,Sounds/spa_pluma.mp3,2020-06-05_13h20.13.749,TranslationElicitation_eng-prolific,3.2.4,Win32,60,5e9df7faf4a4e4191f1f14b0,1,0,98,84,1,97
,,,,,,,,,,,,,,,,,,,,,,,,,,,,,,,,,,,,,,,,,,1.315000057,o,O,FALSE,,,,,,,27,chocolate,Spanish,Sounds/spa_chocolate.mp3,2020-06-05_13h20.13.749,TranslationElicitation_eng-prolific,3.2.4,Win32,60,5e9df7faf4a4e4191f1f14b0,1,0,98,24,1,97
,,,,,,,,,,,,,,,,,,,,,,,,,,,,,,,,,,,,,,,,,,1.548000097,l,OL,FALSE,,,,,,,27,chocolate,Spanish,Sounds/spa_chocolate.mp3,2020-06-05_13h20.13.749,TranslationElicitation_eng-prolific,3.2.4,Win32,60,5e9df7faf4a4e4191f1f14b0,1,0,98,24,1,97
,,,,,,,,,,,,,,,,,,,,,,,,,,,,,,,,,,,,,,,,,,1.800000191,backspace,O,TRUE,,,,,,,27,chocolate,Spanish,Sounds/spa_chocolate.mp3,2020-06-05_13h20.13.749,TranslationElicitation_eng-prolific,3.2.4,Win32,60,5e9df7faf4a4e4191f1f14b0,1,0,98,24,1,97
,,,,,,,,,,,,,,,,,,,,,,,,,,,,,,,,,,,,,,,,,,1.965000153,backspace,,TRUE,,,,,,,27,chocolate,Spanish,Sounds/spa_chocolate.mp3,2020-06-05_13h20.13.749,TranslationElicitation_eng-prolific,3.2.4,Win32,60,5e9df7faf4a4e4191f1f14b0,1,0,98,24,1,97
,,,,,,,,,,,,,,,,,,,,,,,,,,,,,,,,,,,,,,,,,,2.248000145,c,C,TRUE,,,,,,,27,chocolate,Spanish,Sounds/spa_chocolate.mp3,2020-06-05_13h20.13.749,TranslationElicitation_eng-prolific,3.2.4,Win32,60,5e9df7faf4a4e4191f1f14b0,1,0,98,24,1,97
,,,,,,,,,,,,,,,,,,,,,,,,,,,,,,,,,,,,,,,,,,2.315000057,h,CH,TRUE,,,,,,,27,chocolate,Spanish,Sounds/spa_chocolate.mp3,2020-06-05_13h20.13.749,TranslationElicitation_eng-prolific,3.2.4,Win32,60,5e9df7faf4a4e4191f1f14b0,1,0,98,24,1,97
,,,,,,,,,,,,,,,,,,,,,,,,,,,,,,,,,,,,,,,,,,2.4150002,o,CHO,TRUE,,,,,,,27,chocolate,Spanish,Sounds/spa_chocolate.mp3,2020-06-05_13h20.13.749,TranslationElicitation_eng-prolific,3.2.4,Win32,60,5e9df7faf4a4e4191f1f14b0,1,0,98,24,1,97
,,,,,,,,,,,,,,,,,,,,,,,,,,,,,,,,,,,,,,,,,,2.649000168,l,CHOL,TRUE,,,,,,,27,chocolate,Spanish,Sounds/spa_chocolate.mp3,2020-06-05_13h20.13.749,TranslationElicitation_eng-prolific,3.2.4,Win32,60,5e9df7faf4a4e4191f1f14b0,1,0,98,24,1,97
,,,,,,,,,,,,,,,,,,,,,,,,,,,,,,,,,,,,,,,,,,3.282000065,backspace,CHO,TRUE,,,,,,,27,chocolate,Spanish,Sounds/spa_chocolate.mp3,2020-06-05_13h20.13.749,TranslationElicitation_eng-prolific,3.2.4,Win32,60,5e9df7faf4a4e4191f1f14b0,1,0,98,24,1,97
,,,,,,,,,,,,,,,,,,,,,,,,,,,,,,,,,,,,,,,,,,3.349000216,c,CHOC,TRUE,,,,,,,27,chocolate,Spanish,Sounds/spa_chocolate.mp3,2020-06-05_13h20.13.749,TranslationElicitation_eng-prolific,3.2.4,Win32,60,5e9df7faf4a4e4191f1f14b0,1,0,98,24,1,97
,,,,,,,,,,,,,,,,,,,,,,,,,,,,,,,,,,,,,,,,,,3.467000008,o,CHOCO,TRUE,,,,,,,27,chocolate,Spanish,Sounds/spa_chocolate.mp3,2020-06-05_13h20.13.749,TranslationElicitation_eng-prolific,3.2.4,Win32,60,5e9df7faf4a4e4191f1f14b0,1,0,98,24,1,97
,,,,,,,,,,,,,,,,,,,,,,,,,,,,,,,,,,,,,,,,,,3.649000168,l,CHOCOL,TRUE,,,,,,,27,chocolate,Spanish,Sounds/spa_chocolate.mp3,2020-06-05_13h20.13.749,TranslationElicitation_eng-prolific,3.2.4,Win32,60,5e9df7faf4a4e4191f1f14b0,1,0,98,24,1,97
,,,,,,,,,,,,,,,,,,,,,,,,,,,,,,,,,,,,,,,,,,3.700000048,a,CHOCOLA,TRUE,,,,,,,27,chocolate,Spanish,Sounds/spa_chocolate.mp3,2020-06-05_13h20.13.749,TranslationElicitation_eng-prolific,3.2.4,Win32,60,5e9df7faf4a4e4191f1f14b0,1,0,98,24,1,97
,,,,,,,,,,,,,,,,,,,,,,,,,,,,,,,,,,,,,,,,,,3.9150002,g,CHOCOLAG,TRUE,,,,,,,27,chocolate,Spanish,Sounds/spa_chocolate.mp3,2020-06-05_13h20.13.749,TranslationElicitation_eng-prolific,3.2.4,Win32,60,5e9df7faf4a4e4191f1f14b0,1,0,98,24,1,97
,,,,,,,,,,,,,,,,,,,,,,,,,,,,,,,,,,,,,,,,,,4.042000055,e,CHOCOLAGE,TRUE,,,,,,,27,chocolate,Spanish,Sounds/spa_chocolate.mp3,2020-06-05_13h20.13.749,TranslationElicitation_eng-prolific,3.2.4,Win32,60,5e9df7faf4a4e4191f1f14b0,1,0,98,24,1,97
,,,,,,,,,,,,,,,,,,,,,,,,,,,,,,,,,,,,,,,,,,4.484000206,backspace,CHOCOLAG,TRUE,,,,,,,27,chocolate,Spanish,Sounds/spa_chocolate.mp3,2020-06-05_13h20.13.749,TranslationElicitation_eng-prolific,3.2.4,Win32,60,5e9df7faf4a4e4191f1f14b0,1,0,98,24,1,97
,,,,,,,,,,,,,,,,,,,,,,,,,,,,,,,,,,,,,,,,,,4.617000103,backspace,CHOCOLA,TRUE,,,,,,,27,chocolate,Spanish,Sounds/spa_chocolate.mp3,2020-06-05_13h20.13.749,TranslationElicitation_eng-prolific,3.2.4,Win32,60,5e9df7faf4a4e4191f1f14b0,1,0,98,24,1,97
,,,,,,,,,,,,,,,,,,,,,,,,,,,,,,,,,,,,,,,,,,4.68200016,t,CHOCOLAT,TRUE,,,,,,,27,chocolate,Spanish,Sounds/spa_chocolate.mp3,2020-06-05_13h20.13.749,TranslationElicitation_eng-prolific,3.2.4,Win32,60,5e9df7faf4a4e4191f1f14b0,1,0,98,24,1,97
,,,,,,,,,,,,,,,,,,,,,,,,,,,,,,,,,,,,,,,,,,4.798000097,e,CHOCOLATE,TRUE,,,,,,,27,chocolate,Spanish,Sounds/spa_chocolate.mp3,2020-06-05_13h20.13.749,TranslationElicitation_eng-prolific,3.2.4,Win32,60,5e9df7faf4a4e4191f1f14b0,1,0,98,24,1,97
,,,,,,,,,,,,,,,,,,,,,,,,,,,,,,,,,,,,,,,,,5.082000017,5.082000017,return,CHOCOLATE,TRUE,,,,,,,27,chocolate,Spanish,Sounds/spa_chocolate.mp3,2020-06-05_13h20.13.749,TranslationElicitation_eng-prolific,3.2.4,Win32,60,5e9df7faf4a4e4191f1f14b0,1,0,98,24,1,97
,,,,,,,,,,,,,,,,,,,,,,,,,,,,,,,,,,,,,,,,,,,,,,,,,,,,27,chocolate,Spanish,Sounds/spa_chocolate.mp3,2020-06-05_13h20.13.749,TranslationElicitation_eng-prolific,3.2.4,Win32,60,5e9df7faf4a4e4191f1f14b0,1,0,98,24,1,97
,,,,,,,,,,,,,,,,,,,,,,,,,,,,,,,,,,,,,,,,,1.448999882,1.448999882,return,,FALSE,,,,,,,64,moneda,Spanish,Sounds/spa_moneda.mp3,2020-06-05_13h20.13.749,TranslationElicitation_eng-prolific,3.2.4,Win32,60,5e9df7faf4a4e4191f1f14b0,1,0,98,60,1,97
,,,,,,,,,,,,,,,,,,,,,,,,,,,,,,,,,,,,,,,,,,,,,,,,,,,,64,moneda,Spanish,Sounds/spa_moneda.mp3,2020-06-05_13h20.13.749,TranslationElicitation_eng-prolific,3.2.4,Win32,60,5e9df7faf4a4e4191f1f14b0,1,0,98,60,1,97
,,,,,,,,,,,,,,,,,,,,,,,,,,,,,,,,,,,,,,,,,2.150000095,2.150000095,return,,FALSE,,,,,,,8,bol,Spanish,Sounds/spa_bol.mp3,2020-06-05_13h20.13.749,TranslationElicitation_eng-prolific,3.2.4,Win32,60,5e9df7faf4a4e4191f1f14b0,1,0,98,6,1,97
,,,,,,,,,,,,,,,,,,,,,,,,,,,,,,,,,,,,,,,,,,,,,,,,,,,,8,bol,Spanish,Sounds/spa_bol.mp3,2020-06-05_13h20.13.749,TranslationElicitation_eng-prolific,3.2.4,Win32,60,5e9df7faf4a4e4191f1f14b0,1,0,98,6,1,97
,,,,,,,,,,,,,,,,,,,,,,,,,,,,,,,,,,,,,,,,,1.566999912,1.566999912,return,,FALSE,,,,,,,93,sol,Spanish,Sounds/spa_sol.mp3,2020-06-05_13h20.13.749,TranslationElicitation_eng-prolific,3.2.4,Win32,60,5e9df7faf4a4e4191f1f14b0,1,0,98,88,1,97
,,,,,,,,,,,,,,,,,,,,,,,,,,,,,,,,,,,,,,,,,,,,,,,,,,,,93,sol,Spanish,Sounds/spa_sol.mp3,2020-06-05_13h20.13.749,TranslationElicitation_eng-prolific,3.2.4,Win32,60,5e9df7faf4a4e4191f1f14b0,1,0,98,88,1,97
,,,,,,,,,,,,,,,,,,,,,,,,,,,,,,,,,,,,,,,,,,2.166000128,p,P,FALSE,,,,,,,86,pingino,Spanish,Sounds/spa_pinguino.mp3,2020-06-05_13h20.13.749,TranslationElicitation_eng-prolific,3.2.4,Win32,60,5e9df7faf4a4e4191f1f14b0,1,0,98,81,1,97
,,,,,,,,,,,,,,,,,,,,,,,,,,,,,,,,,,,,,,,,,,2.350000143,e,PE,FALSE,,,,,,,86,pingino,Spanish,Sounds/spa_pinguino.mp3,2020-06-05_13h20.13.749,TranslationElicitation_eng-prolific,3.2.4,Win32,60,5e9df7faf4a4e4191f1f14b0,1,0,98,81,1,97
,,,,,,,,,,,,,,,,,,,,,,,,,,,,,,,,,,,,,,,,,,2.600000143,n,PEN,FALSE,,,,,,,86,pingino,Spanish,Sounds/spa_pinguino.mp3,2020-06-05_13h20.13.749,TranslationElicitation_eng-prolific,3.2.4,Win32,60,5e9df7faf4a4e4191f1f14b0,1,0,98,81,1,97
,,,,,,,,,,,,,,,,,,,,,,,,,,,,,,,,,,,,,,,,,,3.082999945,g,PENG,FALSE,,,,,,,86,pingino,Spanish,Sounds/spa_pinguino.mp3,2020-06-05_13h20.13.749,TranslationElicitation_eng-prolific,3.2.4,Win32,60,5e9df7faf4a4e4191f1f14b0,1,0,98,81,1,97
,,,,,,,,,,,,,,,,,,,,,,,,,,,,,,,,,,,,,,,,,,3.350000143,i,PENGI,FALSE,,,,,,,86,pingino,Spanish,Sounds/spa_pinguino.mp3,2020-06-05_13h20.13.749,TranslationElicitation_eng-prolific,3.2.4,Win32,60,5e9df7faf4a4e4191f1f14b0,1,0,98,81,1,97
,,,,,,,,,,,,,,,,,,,,,,,,,,,,,,,,,,,,,,,,,,3.683000088,backspace,PENG,TRUE,,,,,,,86,pingino,Spanish,Sounds/spa_pinguino.mp3,2020-06-05_13h20.13.749,TranslationElicitation_eng-prolific,3.2.4,Win32,60,5e9df7faf4a4e4191f1f14b0,1,0,98,81,1,97
,,,,,,,,,,,,,,,,,,,,,,,,,,,,,,,,,,,,,,,,,,3.867000103,u,PENGU,TRUE,,,,,,,86,pingino,Spanish,Sounds/spa_pinguino.mp3,2020-06-05_13h20.13.749,TranslationElicitation_eng-prolific,3.2.4,Win32,60,5e9df7faf4a4e4191f1f14b0,1,0,98,81,1,97
,,,,,,,,,,,,,,,,,,,,,,,,,,,,,,,,,,,,,,,,,,3.967999935,i,PENGUI,TRUE,,,,,,,86,pingino,Spanish,Sounds/spa_pinguino.mp3,2020-06-05_13h20.13.749,TranslationElicitation_eng-prolific,3.2.4,Win32,60,5e9df7faf4a4e4191f1f14b0,1,0,98,81,1,97
,,,,,,,,,,,,,,,,,,,,,,,,,,,,,,,,,,,,,,,,,,4.111999989,n,PENGUIN,TRUE,,,,,,,86,pingino,Spanish,Sounds/spa_pinguino.mp3,2020-06-05_13h20.13.749,TranslationElicitation_eng-prolific,3.2.4,Win32,60,5e9df7faf4a4e4191f1f14b0,1,0,98,81,1,97
,,,,,,,,,,,,,,,,,,,,,,,,,,,,,,,,,,,,,,,,,,4.200000048,e,PENGUINE,TRUE,,,,,,,86,pingino,Spanish,Sounds/spa_pinguino.mp3,2020-06-05_13h20.13.749,TranslationElicitation_eng-prolific,3.2.4,Win32,60,5e9df7faf4a4e4191f1f14b0,1,0,98,81,1,97
,,,,,,,,,,,,,,,,,,,,,,,,,,,,,,,,,,,,,,,,,4.549999952,4.549999952,return,PENGUINE,TRUE,,,,,,,86,pingino,Spanish,Sounds/spa_pinguino.mp3,2020-06-05_13h20.13.749,TranslationElicitation_eng-prolific,3.2.4,Win32,60,5e9df7faf4a4e4191f1f14b0,1,0,98,81,1,97
,,,,,,,,,,,,,,,,,,,,,,,,,,,,,,,,,,,,,,,,,,,,,,,,,,,,86,pingino,Spanish,Sounds/spa_pinguino.mp3,2020-06-05_13h20.13.749,TranslationElicitation_eng-prolific,3.2.4,Win32,60,5e9df7faf4a4e4191f1f14b0,1,0,98,81,1,97
,,,,,,,,,,,,,,,,,,,,,,,,,,,,,,,,,,,,,,,,,3.868000031,3.868000031,return,,FALSE,,,,,,,33,dedo,Spanish,Sounds/spa_dedo.mp3,2020-06-05_13h20.13.749,TranslationElicitation_eng-prolific,3.2.4,Win32,60,5e9df7faf4a4e4191f1f14b0,1,0,98,29,1,97
,,,,,,,,,,,,,,,,,,,,,,,,,,,,,,,,,,,,,,,,,,,,,,,,,,,,33,dedo,Spanish,Sounds/spa_dedo.mp3,2020-06-05_13h20.13.749,TranslationElicitation_eng-prolific,3.2.4,Win32,60,5e9df7faf4a4e4191f1f14b0,1,0,98,29,1,97
,,,,,,,,,,,,,,,,,,,,,,,,,,,,,,,,,,,,,,,,,1.383000135,1.383000135,return,,FALSE,,,,,,,37,flor,Spanish,Sounds/spa_flor.mp3,2020-06-05_13h20.13.749,TranslationElicitation_eng-prolific,3.2.4,Win32,60,5e9df7faf4a4e4191f1f14b0,1,0,98,33,1,97
,,,,,,,,,,,,,,,,,,,,,,,,,,,,,,,,,,,,,,,,,,,,,,,,,,,,37,flor,Spanish,Sounds/spa_flor.mp3,2020-06-05_13h20.13.749,TranslationElicitation_eng-prolific,3.2.4,Win32,60,5e9df7faf4a4e4191f1f14b0,1,0,98,33,1,97
,,,,,,,,,,,,,,,,,,,,,,,,,,,,,,,,,,,,,,,,,1.232999802,1.232999802,return,,FALSE,,,,,,,81,pelota,Spanish,Sounds/spa_pelota.mp3,2020-06-05_13h20.13.749,TranslationElicitation_eng-prolific,3.2.4,Win32,60,5e9df7faf4a4e4191f1f14b0,1,0,98,76,1,97
,,,,,,,,,,,,,,,,,,,,,,,,,,,,,,,,,,,,,,,,,,,,,,,,,,,,81,pelota,Spanish,Sounds/spa_pelota.mp3,2020-06-05_13h20.13.749,TranslationElicitation_eng-prolific,3.2.4,Win32,60,5e9df7faf4a4e4191f1f14b0,1,0,98,76,1,97
,,,,,,,,,,,,,,,,,,,,,,,,,,,,,,,,,,,,,,,,,,2.434000015,c,C,FALSE,,,,,,,42,gato,Spanish,Sounds/spa_gato.mp3,2020-06-05_13h20.13.749,TranslationElicitation_eng-prolific,3.2.4,Win32,60,5e9df7faf4a4e4191f1f14b0,1,0,98,38,1,97
,,,,,,,,,,,,,,,,,,,,,,,,,,,,,,,,,,,,,,,,,,2.618000031,a,CA,FALSE,,,,,,,42,gato,Spanish,Sounds/spa_gato.mp3,2020-06-05_13h20.13.749,TranslationElicitation_eng-prolific,3.2.4,Win32,60,5e9df7faf4a4e4191f1f14b0,1,0,98,38,1,97
,,,,,,,,,,,,,,,,,,,,,,,,,,,,,,,,,,,,,,,,,,2.717000008,k,CAK,FALSE,,,,,,,42,gato,Spanish,Sounds/spa_gato.mp3,2020-06-05_13h20.13.749,TranslationElicitation_eng-prolific,3.2.4,Win32,60,5e9df7faf4a4e4191f1f14b0,1,0,98,38,1,97
,,,,,,,,,,,,,,,,,,,,,,,,,,,,,,,,,,,,,,,,,,2.834000111,e,CAKE,FALSE,,,,,,,42,gato,Spanish,Sounds/spa_gato.mp3,2020-06-05_13h20.13.749,TranslationElicitation_eng-prolific,3.2.4,Win32,60,5e9df7faf4a4e4191f1f14b0,1,0,98,38,1,97
,,,,,,,,,,,,,,,,,,,,,,,,,,,,,,,,,,,,,,,,,2.98300004,2.98300004,return,CAKE,FALSE,,,,,,,42,gato,Spanish,Sounds/spa_gato.mp3,2020-06-05_13h20.13.749,TranslationElicitation_eng-prolific,3.2.4,Win32,60,5e9df7faf4a4e4191f1f14b0,1,0,98,38,1,97
,,,,,,,,,,,,,,,,,,,,,,,,,,,,,,,,,,,,,,,,,,,,,,,,,,,,42,gato,Spanish,Sounds/spa_gato.mp3,2020-06-05_13h20.13.749,TranslationElicitation_eng-prolific,3.2.4,Win32,60,5e9df7faf4a4e4191f1f14b0,1,0,98,38,1,97
,,,,,,,,,,,,,,,,,,,,,,,,,,,,,,,,,,,,,,,,,3.051000118,3.051000118,return,,FALSE,,,,,,,60,manzana,Spanish,Sounds/spa_manzana.mp3,2020-06-05_13h20.13.749,TranslationElicitation_eng-prolific,3.2.4,Win32,60,5e9df7faf4a4e4191f1f14b0,1,0,98,56,1,97
,,,,,,,,,,,,,,,,,,,,,,,,,,,,,,,,,,,,,,,,,,,,,,,,,,,,60,manzana,Spanish,Sounds/spa_manzana.mp3,2020-06-05_13h20.13.749,TranslationElicitation_eng-prolific,3.2.4,Win32,60,5e9df7faf4a4e4191f1f14b0,1,0,98,56,1,97
,,,,,,,,,,,,,,,,,,,,,,,,,,,,,,,,,,,,,,,,,1.199999809,1.199999809,return,,FALSE,,,,,,,43,globo,Spanish,Sounds/spa_globo.mp3,2020-06-05_13h20.13.749,TranslationElicitation_eng-prolific,3.2.4,Win32,60,5e9df7faf4a4e4191f1f14b0,1,0,98,39,1,97
,,,,,,,,,,,,,,,,,,,,,,,,,,,,,,,,,,,,,,,,,,,,,,,,,,,,43,globo,Spanish,Sounds/spa_globo.mp3,2020-06-05_13h20.13.749,TranslationElicitation_eng-prolific,3.2.4,Win32,60,5e9df7faf4a4e4191f1f14b0,1,0,98,39,1,97
,,,,,,,,,,,,,,,,,,,,,,,,,,,,,,,,,,,,,,,,,1.518000126,1.518000126,return,,FALSE,,,,,,,91,puerta,Spanish,Sounds/spa_puerta.mp3,2020-06-05_13h20.13.749,TranslationElicitation_eng-prolific,3.2.4,Win32,60,5e9df7faf4a4e4191f1f14b0,1,0,98,86,1,97
,,,,,,,,,,,,,,,,,,,,,,,,,,,,,,,,,,,,,,,,,,,,,,,,,,,,91,puerta,Spanish,Sounds/spa_puerta.mp3,2020-06-05_13h20.13.749,TranslationElicitation_eng-prolific,3.2.4,Win32,60,5e9df7faf4a4e4191f1f14b0,1,0,98,86,1,97
,,,,,,,,,,,,,,,,,,,,,,,,,,,,,,,,,,,,,,,,,1.316999912,1.316999912,return,,FALSE,,,,,,,102,ventana,Spanish,Sounds/spa_ventana.mp3,2020-06-05_13h20.13.749,TranslationElicitation_eng-prolific,3.2.4,Win32,60,5e9df7faf4a4e4191f1f14b0,1,0,98,96,1,97
,,,,,,,,,,,,,,,,,,,,,,,,,,,,,,,,,,,,,,,,,,,,,,,,,,,,102,ventana,Spanish,Sounds/spa_ventana.mp3,2020-06-05_13h20.13.749,TranslationElicitation_eng-prolific,3.2.4,Win32,60,5e9df7faf4a4e4191f1f14b0,1,0,98,96,1,97
,,,,,,,,,,,,,,,,,,,,,,,,,,,,,,,,,,,,,,,,,2.666000128,2.666000128,return,,FALSE,,,,,,,49,hormiga,Spanish,Sounds/spa_hormiga.mp3,2020-06-05_13h20.13.749,TranslationElicitation_eng-prolific,3.2.4,Win32,60,5e9df7faf4a4e4191f1f14b0,1,0,98,45,1,97
,,,,,,,,,,,,,,,,,,,,,,,,,,,,,,,,,,,,,,,,,,,,,,,,,,,,49,hormiga,Spanish,Sounds/spa_hormiga.mp3,2020-06-05_13h20.13.749,TranslationElicitation_eng-prolific,3.2.4,Win32,60,5e9df7faf4a4e4191f1f14b0,1,0,98,45,1,97
,,,,,,,,,,,,,,,,,,,,,,,,,,,,,,,,,,,,,,,,,1.549999952,1.549999952,return,,FALSE,,,,,,,15,caballo,Spanish,Sounds/spa_caballo.mp3,2020-06-05_13h20.13.749,TranslationElicitation_eng-prolific,3.2.4,Win32,60,5e9df7faf4a4e4191f1f14b0,1,0,98,13,1,97
,,,,,,,,,,,,,,,,,,,,,,,,,,,,,,,,,,,,,,,,,,,,,,,,,,,,15,caballo,Spanish,Sounds/spa_caballo.mp3,2020-06-05_13h20.13.749,TranslationElicitation_eng-prolific,3.2.4,Win32,60,5e9df7faf4a4e4191f1f14b0,1,0,98,13,1,97
,,,,,,,,,,,,,,,,,,,,,,,,,,,,,,,,,,,,,,,,,0.999000072,0.999000072,return,,FALSE,,,,,,,51,ladrillo,Spanish,Sounds/spa_ladrillo.mp3,2020-06-05_13h20.13.749,TranslationElicitation_eng-prolific,3.2.4,Win32,60,5e9df7faf4a4e4191f1f14b0,1,0,98,47,1,97
,,,,,,,,,,,,,,,,,,,,,,,,,,,,,,,,,,,,,,,,,,,,,,,,,,,,51,ladrillo,Spanish,Sounds/spa_ladrillo.mp3,2020-06-05_13h20.13.749,TranslationElicitation_eng-prolific,3.2.4,Win32,60,5e9df7faf4a4e4191f1f14b0,1,0,98,47,1,97
,,,,,,,,,,,,,,,,,,,,,,,,,,,,,,,,,,,,,,,,,1.44900012,1.44900012,return,,FALSE,,,,,,,20,caracol,Spanish,Sounds/spa_caracol.mp3,2020-06-05_13h20.13.749,TranslationElicitation_eng-prolific,3.2.4,Win32,60,5e9df7faf4a4e4191f1f14b0,1,0,98,18,1,97
,,,,,,,,,,,,,,,,,,,,,,,,,,,,,,,,,,,,,,,,,,,,,,,,,,,,20,caracol,Spanish,Sounds/spa_caracol.mp3,2020-06-05_13h20.13.749,TranslationElicitation_eng-prolific,3.2.4,Win32,60,5e9df7faf4a4e4191f1f14b0,1,0,98,18,1,97
,,,,,,,,,,,,,,,,,,,,,,,,,,,,,,,,,,,,,,,,,,2.532999992,v,V,FALSE,,,,,,,66,moto,Spanish,Sounds/spa_moto.mp3,2020-06-05_13h20.13.749,TranslationElicitation_eng-prolific,3.2.4,Win32,60,5e9df7faf4a4e4191f1f14b0,1,0,98,62,1,97
,,,,,,,,,,,,,,,,,,,,,,,,,,,,,,,,,,,,,,,,,,2.73300004,e,VE,FALSE,,,,,,,66,moto,Spanish,Sounds/spa_moto.mp3,2020-06-05_13h20.13.749,TranslationElicitation_eng-prolific,3.2.4,Win32,60,5e9df7faf4a4e4191f1f14b0,1,0,98,62,1,97
,,,,,,,,,,,,,,,,,,,,,,,,,,,,,,,,,,,,,,,,,,2.865999937,r,VER,FALSE,,,,,,,66,moto,Spanish,Sounds/spa_moto.mp3,2020-06-05_13h20.13.749,TranslationElicitation_eng-prolific,3.2.4,Win32,60,5e9df7faf4a4e4191f1f14b0,1,0,98,62,1,97
,,,,,,,,,,,,,,,,,,,,,,,,,,,,,,,,,,,,,,,,,,3.049999952,y,VERY,FALSE,,,,,,,66,moto,Spanish,Sounds/spa_moto.mp3,2020-06-05_13h20.13.749,TranslationElicitation_eng-prolific,3.2.4,Win32,60,5e9df7faf4a4e4191f1f14b0,1,0,98,62,1,97
,,,,,,,,,,,,,,,,,,,,,,,,,,,,,,,,,,,,,,,,,,3.303999901,space,VERY ,FALSE,,,,,,,66,moto,Spanish,Sounds/spa_moto.mp3,2020-06-05_13h20.13.749,TranslationElicitation_eng-prolific,3.2.4,Win32,60,5e9df7faf4a4e4191f1f14b0,1,0,98,62,1,97
,,,,,,,,,,,,,,,,,,,,,,,,,,,,,,,,,,,,,,,,,6.299000025,6.299000025,return,VERY ,FALSE,,,,,,,66,moto,Spanish,Sounds/spa_moto.mp3,2020-06-05_13h20.13.749,TranslationElicitation_eng-prolific,3.2.4,Win32,60,5e9df7faf4a4e4191f1f14b0,1,0,98,62,1,97
,,,,,,,,,,,,,,,,,,,,,,,,,,,,,,,,,,,,,,,,,,,,,,,,,,,,66,moto,Spanish,Sounds/spa_moto.mp3,2020-06-05_13h20.13.749,TranslationElicitation_eng-prolific,3.2.4,Win32,60,5e9df7faf4a4e4191f1f14b0,1,0,98,62,1,97
,,,,,,,,,,,,,,,,,,,,,,,,,,,,,,,,,,,,,,,,,4.69900012,4.69900012,return,,FALSE,,,,,,,35,esponja,Spanish,Sounds/spa_esponja.mp3,2020-06-05_13h20.13.749,TranslationElicitation_eng-prolific,3.2.4,Win32,60,5e9df7faf4a4e4191f1f14b0,1,0,98,31,1,97
,,,,,,,,,,,,,,,,,,,,,,,,,,,,,,,,,,,,,,,,,,,,,,,,,,,,35,esponja,Spanish,Sounds/spa_esponja.mp3,2020-06-05_13h20.13.749,TranslationElicitation_eng-prolific,3.2.4,Win32,60,5e9df7faf4a4e4191f1f14b0,1,0,98,31,1,97
,,,,,,,,,,,,,,,,,,,,,,,,,,,,,,,,,,,,,,,,,1.868999958,1.868999958,return,,FALSE,,,,,,,61,mariposa,Spanish,Sounds/spa_mariposa.mp3,2020-06-05_13h20.13.749,TranslationElicitation_eng-prolific,3.2.4,Win32,60,5e9df7faf4a4e4191f1f14b0,1,0,98,57,1,97
,,,,,,,,,,,,,,,,,,,,,,,,,,,,,,,,,,,,,,,,,,,,,,,,,,,,61,mariposa,Spanish,Sounds/spa_mariposa.mp3,2020-06-05_13h20.13.749,TranslationElicitation_eng-prolific,3.2.4,Win32,60,5e9df7faf4a4e4191f1f14b0,1,0,98,57,1,97
,,,,,,,,,,,,,,,,,,,,,,,,,,,,,,,,,,,,,,,,,1.750999928,1.750999928,return,,FALSE,,,,,,,82,perro,Spanish,Sounds/spa_perro.mp3,2020-06-05_13h20.13.749,TranslationElicitation_eng-prolific,3.2.4,Win32,60,5e9df7faf4a4e4191f1f14b0,1,0,98,77,1,97
,,,,,,,,,,,,,,,,,,,,,,,,,,,,,,,,,,,,,,,,,,,,,,,,,,,,82,perro,Spanish,Sounds/spa_perro.mp3,2020-06-05_13h20.13.749,TranslationElicitation_eng-prolific,3.2.4,Win32,60,5e9df7faf4a4e4191f1f14b0,1,0,98,77,1,97
,,,,,,,,,,,,,,,,,,,,,,,,,,,,,,,,,,,,,,,,,1.5,1.5,return,,FALSE,,,,,,,28,cielo,Spanish,Sounds/spa_cielo.mp3,2020-06-05_13h20.13.749,TranslationElicitation_eng-prolific,3.2.4,Win32,60,5e9df7faf4a4e4191f1f14b0,1,0,98,25,1,97
,,,,,,,,,,,,,,,,,,,,,,,,,,,,,,,,,,,,,,,,,,,,,,,,,,,,28,cielo,Spanish,Sounds/spa_cielo.mp3,2020-06-05_13h20.13.749,TranslationElicitation_eng-prolific,3.2.4,Win32,60,5e9df7faf4a4e4191f1f14b0,1,0,98,25,1,97
,,,,,,,,,,,,,,,,,,,,,,,,,,,,,,,,,,,,,,,,,,1.633000135,s,S,FALSE,,,,,,,92,sandwich,Spanish,Sounds/spa_sandwich.mp3,2020-06-05_13h20.13.749,TranslationElicitation_eng-prolific,3.2.4,Win32,60,5e9df7faf4a4e4191f1f14b0,1,0,98,87,1,97
,,,,,,,,,,,,,,,,,,,,,,,,,,,,,,,,,,,,,,,,,,1.800000191,a,SA,FALSE,,,,,,,92,sandwich,Spanish,Sounds/spa_sandwich.mp3,2020-06-05_13h20.13.749,TranslationElicitation_eng-prolific,3.2.4,Win32,60,5e9df7faf4a4e4191f1f14b0,1,0,98,87,1,97
,,,,,,,,,,,,,,,,,,,,,,,,,,,,,,,,,,,,,,,,,,1.900000095,n,SAN,FALSE,,,,,,,92,sandwich,Spanish,Sounds/spa_sandwich.mp3,2020-06-05_13h20.13.749,TranslationElicitation_eng-prolific,3.2.4,Win32,60,5e9df7faf4a4e4191f1f14b0,1,0,98,87,1,97
,,,,,,,,,,,,,,,,,,,,,,,,,,,,,,,,,,,,,,,,,,2.316000223,d,SAND,FALSE,,,,,,,92,sandwich,Spanish,Sounds/spa_sandwich.mp3,2020-06-05_13h20.13.749,TranslationElicitation_eng-prolific,3.2.4,Win32,60,5e9df7faf4a4e4191f1f14b0,1,0,98,87,1,97
,,,,,,,,,,,,,,,,,,,,,,,,,,,,,,,,,,,,,,,,,,2.517000198,w,SANDW,FALSE,,,,,,,92,sandwich,Spanish,Sounds/spa_sandwich.mp3,2020-06-05_13h20.13.749,TranslationElicitation_eng-prolific,3.2.4,Win32,60,5e9df7faf4a4e4191f1f14b0,1,0,98,87,1,97
,,,,,,,,,,,,,,,,,,,,,,,,,,,,,,,,,,,,,,,,,,2.666000128,i,SANDWI,FALSE,,,,,,,92,sandwich,Spanish,Sounds/spa_sandwich.mp3,2020-06-05_13h20.13.749,TranslationElicitation_eng-prolific,3.2.4,Win32,60,5e9df7faf4a4e4191f1f14b0,1,0,98,87,1,97
,,,,,,,,,,,,,,,,,,,,,,,,,,,,,,,,,,,,,,,,,,2.800000191,c,SANDWIC,FALSE,,,,,,,92,sandwich,Spanish,Sounds/spa_sandwich.mp3,2020-06-05_13h20.13.749,TranslationElicitation_eng-prolific,3.2.4,Win32,60,5e9df7faf4a4e4191f1f14b0,1,0,98,87,1,97
,,,,,,,,,,,,,,,,,,,,,,,,,,,,,,,,,,,,,,,,,,2.883000135,h,SANDWICH,FALSE,,,,,,,92,sandwich,Spanish,Sounds/spa_sandwich.mp3,2020-06-05_13h20.13.749,TranslationElicitation_eng-prolific,3.2.4,Win32,60,5e9df7faf4a4e4191f1f14b0,1,0,98,87,1,97
,,,,,,,,,,,,,,,,,,,,,,,,,,,,,,,,,,,,,,,,,3.217000008,3.217000008,return,SANDWICH,FALSE,,,,,,,92,sandwich,Spanish,Sounds/spa_sandwich.mp3,2020-06-05_13h20.13.749,TranslationElicitation_eng-prolific,3.2.4,Win32,60,5e9df7faf4a4e4191f1f14b0,1,0,98,87,1,97
,,,,,,,,,,,,,,,,,,,,,,,,,,,,,,,,,,,,,,,,,,,,,,,,,,,,92,sandwich,Spanish,Sounds/spa_sandwich.mp3,2020-06-05_13h20.13.749,TranslationElicitation_eng-prolific,3.2.4,Win32,60,5e9df7faf4a4e4191f1f14b0,1,0,98,87,1,97
,,,,,,,,,,,,,,,,,,,,,,,,,,,,,,,,,,,,,,,,,1.200000048,1.200000048,return,,FALSE,,,,,,,24,cereza,Spanish,Sounds/spa_cereza.mp3,2020-06-05_13h20.13.749,TranslationElicitation_eng-prolific,3.2.4,Win32,60,5e9df7faf4a4e4191f1f14b0,1,0,98,22,1,97
,,,,,,,,,,,,,,,,,,,,,,,,,,,,,,,,,,,,,,,,,,,,,,,,,,,,24,cereza,Spanish,Sounds/spa_cereza.mp3,2020-06-05_13h20.13.749,TranslationElicitation_eng-prolific,3.2.4,Win32,60,5e9df7faf4a4e4191f1f14b0,1,0,98,22,1,97
,,,,,,,,,,,,,,,,,,,,,,,,,,,,,,,,,,,,,,,,,1.532999992,1.532999992,return,,FALSE,,,,,,,46,grifo,Spanish,Sounds/spa_grifo.mp3,2020-06-05_13h20.13.749,TranslationElicitation_eng-prolific,3.2.4,Win32,60,5e9df7faf4a4e4191f1f14b0,1,0,98,42,1,97
,,,,,,,,,,,,,,,,,,,,,,,,,,,,,,,,,,,,,,,,,,,,,,,,,,,,46,grifo,Spanish,Sounds/spa_grifo.mp3,2020-06-05_13h20.13.749,TranslationElicitation_eng-prolific,3.2.4,Win32,60,5e9df7faf4a4e4191f1f14b0,1,0,98,42,1,97
,,,,,,,,,,,,,,,,,,,,,,,,,,,,,,,,,,,,,,,,,1.834000111,1.834000111,return,,FALSE,,,,,,,65,mono,Spanish,Sounds/spa_mono.mp3,2020-06-05_13h20.13.749,TranslationElicitation_eng-prolific,3.2.4,Win32,60,5e9df7faf4a4e4191f1f14b0,1,0,98,61,1,97
,,,,,,,,,,,,,,,,,,,,,,,,,,,,,,,,,,,,,,,,,,,,,,,,,,,,65,mono,Spanish,Sounds/spa_mono.mp3,2020-06-05_13h20.13.749,TranslationElicitation_eng-prolific,3.2.4,Win32,60,5e9df7faf4a4e4191f1f14b0,1,0,98,61,1,97
,,,,,,,,,,,,,,,,,,,,,,,,,,,,,,,,,,,,,,,,,1.232999802,1.232999802,return,,FALSE,,,,,,,12,brazo,Spanish,Sounds/spa_brazo.mp3,2020-06-05_13h20.13.749,TranslationElicitation_eng-prolific,3.2.4,Win32,60,5e9df7faf4a4e4191f1f14b0,1,0,98,10,1,97
,,,,,,,,,,,,,,,,,,,,,,,,,,,,,,,,,,,,,,,,,,,,,,,,,,,,12,brazo,Spanish,Sounds/spa_brazo.mp3,2020-06-05_13h20.13.749,TranslationElicitation_eng-prolific,3.2.4,Win32,60,5e9df7faf4a4e4191f1f14b0,1,0,98,10,1,97
,,,,,,,,,,,,,,,,,,,,,,,,,,,,,,,,,,,,,,,,,4.833000183,4.833000183,return,,FALSE,,,,,,,67,muneca,Spanish,Sounds/spa_muneca.mp3,2020-06-05_13h20.13.749,TranslationElicitation_eng-prolific,3.2.4,Win32,60,5e9df7faf4a4e4191f1f14b0,1,0,98,63,1,97
,,,,,,,,,,,,,,,,,,,,,,,,,,,,,,,,,,,,,,,,,,,,,,,,,,,,67,muneca,Spanish,Sounds/spa_muneca.mp3,2020-06-05_13h20.13.749,TranslationElicitation_eng-prolific,3.2.4,Win32,60,5e9df7faf4a4e4191f1f14b0,1,0,98,63,1,97
