consentKey.keys,consentKey.rt,languageL1Key.keys,languageL1Key.rt,languageL2,languageL2OralKey.keys,languageL2OralKey.rt,languageL2WrittenKey.keys,languageL2WrittenKey.rt,languageL3OralKey.keys,languageL3OralKey.rt,languageL3WrittenKey.keys,languageL3WrittenKey.rt,languageCatalanOralKey.keys,languageCatalanOralKey.rt,languageCatalanWrittenKey.keys,languageCatalanWrittenKey.rt,languageCatalanTimeKey.keys,languageCatalanTimeKey.rt,languageSpanishOralKey.keys,languageSpanishOralKey.rt,languageSpanishWrittenKey.keys,languageSpanishWrittenKey.rt,languageSpanishTimeKey.keys,languageSpanishTimeKey.rt,age,demoSexKey.keys,demoSexKey.rt,demoEducationKey.keys,demoEducationKey.rt,city,demoVisionKey.keys,demoVisionKey.rt,demoLanguageKey.keys,demoLanguageKey.rt,setupLocationKey.keys,setupLocationKey.rt,setupNoiseKey.keys,setupNoiseKey.rt,instructionsKeys.keys,instructionsKeys.rt,keyPressed,keyPressTime,inputText,error,trialsPracticeCatalan.thisRepN,trialsPracticeCatalan.thisTrialN,trialsPracticeCatalan.thisN,trialsPracticeCatalan.thisIndex,trialsPracticeCatalan.ran,trialsPracticeCatalan.order,trial_id,word,test_language,soundfile,date,expName,psychopyVersion,OS,frameRate,participant,trialOffset,trialsCatalan.thisRepN,trialsCatalan.thisTrialN,trialsCatalan.thisN,trialsCatalan.thisIndex,trialsCatalan.ran,trialsCatalan.order
space,4.976000071,e,3.775000095,,,,,,,,,,1,12.19899988,1,5.417000055,1,7.101000071,2,5.180999994,2,9.329999924,1,4.809999943,25,f,1.532999992,4,4.035999775,RIPON,y,4.046999931,n,2.329999924,1,2.025000095,1,5.204999924,space,24.24300003,t,17.32300019,T,FALSE,1,0,5,2,1,4,147,jaqueta,Catalan,Sounds/cat_jaqueta.mp3,2020-06-05_15h37.37.265,TranslationElicitation_eng-prolific,3.2.4,Win32,60,5ea186c334f3aa036bdd1c8b,,,,,,,
,,,,,,,,,,,,,,,,,,,,,,,,,,,,,,,,,,,,,,,,,h,17.9000001,TH,FALSE,1,0,5,2,1,4,147,jaqueta,Catalan,Sounds/cat_jaqueta.mp3,2020-06-05_15h37.37.265,TranslationElicitation_eng-prolific,3.2.4,Win32,60,5ea186c334f3aa036bdd1c8b,,,,,,,
,,,,,,,,,,,,,,,,,,,,,,,,,,,,,,,,,,,,,,,,,e,18.36300015,THE,FALSE,1,0,5,2,1,4,147,jaqueta,Catalan,Sounds/cat_jaqueta.mp3,2020-06-05_15h37.37.265,TranslationElicitation_eng-prolific,3.2.4,Win32,60,5ea186c334f3aa036bdd1c8b,,,,,,,
,,,,,,,,,,,,,,,,,,,,,,,,,,,,,,,,,,,,,,,,,r,18.49500012,THER,FALSE,1,0,5,2,1,4,147,jaqueta,Catalan,Sounds/cat_jaqueta.mp3,2020-06-05_15h37.37.265,TranslationElicitation_eng-prolific,3.2.4,Win32,60,5ea186c334f3aa036bdd1c8b,,,,,,,
,,,,,,,,,,,,,,,,,,,,,,,,,,,,,,,,,,,,,,,,,e,18.7110002,THERE,FALSE,1,0,5,2,1,4,147,jaqueta,Catalan,Sounds/cat_jaqueta.mp3,2020-06-05_15h37.37.265,TranslationElicitation_eng-prolific,3.2.4,Win32,60,5ea186c334f3aa036bdd1c8b,,,,,,,
,,,,,,,,,,,,,,,,,,,,,,,,,,,,,,,,,,,,,,,,,return,19.99500012,THERE,FALSE,1,0,5,2,1,4,147,jaqueta,Catalan,Sounds/cat_jaqueta.mp3,2020-06-05_15h37.37.265,TranslationElicitation_eng-prolific,3.2.4,Win32,60,5ea186c334f3aa036bdd1c8b,19.99500012,,,,,,
,,,,,,,,,,,,,,,,,,,,,,,,,,,,,,,,,,,,,,,,,,,,,1,0,5,2,1,4,147,jaqueta,Catalan,Sounds/cat_jaqueta.mp3,2020-06-05_15h37.37.265,TranslationElicitation_eng-prolific,3.2.4,Win32,60,5ea186c334f3aa036bdd1c8b,,,,,,,
,,,,,,,,,,,,,,,,,,,,,,,,,,,,,,,,,,,,,,,,,h,5.096000195,H,FALSE,1,0,5,1,1,4,126,corona,Catalan,Sounds/cat_corona.mp3,2020-06-05_15h37.37.265,TranslationElicitation_eng-prolific,3.2.4,Win32,60,5ea186c334f3aa036bdd1c8b,,,,,,,
,,,,,,,,,,,,,,,,,,,,,,,,,,,,,,,,,,,,,,,,,e,5.562000036,HE,FALSE,1,0,5,1,1,4,126,corona,Catalan,Sounds/cat_corona.mp3,2020-06-05_15h37.37.265,TranslationElicitation_eng-prolific,3.2.4,Win32,60,5ea186c334f3aa036bdd1c8b,,,,,,,
,,,,,,,,,,,,,,,,,,,,,,,,,,,,,,,,,,,,,,,,,a,6.096000195,HEA,FALSE,1,0,5,1,1,4,126,corona,Catalan,Sounds/cat_corona.mp3,2020-06-05_15h37.37.265,TranslationElicitation_eng-prolific,3.2.4,Win32,60,5ea186c334f3aa036bdd1c8b,,,,,,,
,,,,,,,,,,,,,,,,,,,,,,,,,,,,,,,,,,,,,,,,,r,6.446000099,HEAR,FALSE,1,0,5,1,1,4,126,corona,Catalan,Sounds/cat_corona.mp3,2020-06-05_15h37.37.265,TranslationElicitation_eng-prolific,3.2.4,Win32,60,5ea186c334f3aa036bdd1c8b,,,,,,,
,,,,,,,,,,,,,,,,,,,,,,,,,,,,,,,,,,,,,,,,,t,6.679000139,HEART,FALSE,1,0,5,1,1,4,126,corona,Catalan,Sounds/cat_corona.mp3,2020-06-05_15h37.37.265,TranslationElicitation_eng-prolific,3.2.4,Win32,60,5ea186c334f3aa036bdd1c8b,,,,,,,
,,,,,,,,,,,,,,,,,,,,,,,,,,,,,,,,,,,,,,,,,return,8.062000036,HEART,FALSE,1,0,5,1,1,4,126,corona,Catalan,Sounds/cat_corona.mp3,2020-06-05_15h37.37.265,TranslationElicitation_eng-prolific,3.2.4,Win32,60,5ea186c334f3aa036bdd1c8b,8.062000036,,,,,,
,,,,,,,,,,,,,,,,,,,,,,,,,,,,,,,,,,,,,,,,,,,,,1,0,5,1,1,4,126,corona,Catalan,Sounds/cat_corona.mp3,2020-06-05_15h37.37.265,TranslationElicitation_eng-prolific,3.2.4,Win32,60,5ea186c334f3aa036bdd1c8b,,,,,,,
,,,,,,,,,,,,,,,,,,,,,,,,,,,,,,,,,,,,,,,,,w,4.848999977,W,FALSE,1,0,5,0,1,4,109,arbre,Catalan,Sounds/cat_arbre.mp3,2020-06-05_15h37.37.265,TranslationElicitation_eng-prolific,3.2.4,Win32,60,5ea186c334f3aa036bdd1c8b,,,,,,,
,,,,,,,,,,,,,,,,,,,,,,,,,,,,,,,,,,,,,,,,,a,5.098999977,WA,FALSE,1,0,5,0,1,4,109,arbre,Catalan,Sounds/cat_arbre.mp3,2020-06-05_15h37.37.265,TranslationElicitation_eng-prolific,3.2.4,Win32,60,5ea186c334f3aa036bdd1c8b,,,,,,,
,,,,,,,,,,,,,,,,,,,,,,,,,,,,,,,,,,,,,,,,,t,5.59800005,WAT,FALSE,1,0,5,0,1,4,109,arbre,Catalan,Sounds/cat_arbre.mp3,2020-06-05_15h37.37.265,TranslationElicitation_eng-prolific,3.2.4,Win32,60,5ea186c334f3aa036bdd1c8b,,,,,,,
,,,,,,,,,,,,,,,,,,,,,,,,,,,,,,,,,,,,,,,,,e,5.732000113,WATE,FALSE,1,0,5,0,1,4,109,arbre,Catalan,Sounds/cat_arbre.mp3,2020-06-05_15h37.37.265,TranslationElicitation_eng-prolific,3.2.4,Win32,60,5ea186c334f3aa036bdd1c8b,,,,,,,
,,,,,,,,,,,,,,,,,,,,,,,,,,,,,,,,,,,,,,,,,r,5.982000113,WATER,FALSE,1,0,5,0,1,4,109,arbre,Catalan,Sounds/cat_arbre.mp3,2020-06-05_15h37.37.265,TranslationElicitation_eng-prolific,3.2.4,Win32,60,5ea186c334f3aa036bdd1c8b,,,,,,,
,,,,,,,,,,,,,,,,,,,,,,,,,,,,,,,,,,,,,,,,,return,6.548000097,WATER,FALSE,1,0,5,0,1,4,109,arbre,Catalan,Sounds/cat_arbre.mp3,2020-06-05_15h37.37.265,TranslationElicitation_eng-prolific,3.2.4,Win32,60,5ea186c334f3aa036bdd1c8b,6.548000097,,,,,,
,,,,,,,,,,,,,,,,,,,,,,,,,,,,,,,,,,,,,,,,,,,,,1,0,5,0,1,4,109,arbre,Catalan,Sounds/cat_arbre.mp3,2020-06-05_15h37.37.265,TranslationElicitation_eng-prolific,3.2.4,Win32,60,5ea186c334f3aa036bdd1c8b,,,,,,,
,,,,,,,,,,,,,,,,,,,,,,,,,,,,,,,,,,,,,,,,,t,15.03699994,T,FALSE,1,0,5,4,1,4,179,tigre,Catalan,Sounds/cat_tigre.mp3,2020-06-05_15h37.37.265,TranslationElicitation_eng-prolific,3.2.4,Win32,60,5ea186c334f3aa036bdd1c8b,,,,,,,
,,,,,,,,,,,,,,,,,,,,,,,,,,,,,,,,,,,,,,,,,i,15.29500008,TI,FALSE,1,0,5,4,1,4,179,tigre,Catalan,Sounds/cat_tigre.mp3,2020-06-05_15h37.37.265,TranslationElicitation_eng-prolific,3.2.4,Win32,60,5ea186c334f3aa036bdd1c8b,,,,,,,
,,,,,,,,,,,,,,,,,,,,,,,,,,,,,,,,,,,,,,,,,g,15.34699988,TIG,FALSE,1,0,5,4,1,4,179,tigre,Catalan,Sounds/cat_tigre.mp3,2020-06-05_15h37.37.265,TranslationElicitation_eng-prolific,3.2.4,Win32,60,5ea186c334f3aa036bdd1c8b,,,,,,,
,,,,,,,,,,,,,,,,,,,,,,,,,,,,,,,,,,,,,,,,,e,15.56900001,TIGE,FALSE,1,0,5,4,1,4,179,tigre,Catalan,Sounds/cat_tigre.mp3,2020-06-05_15h37.37.265,TranslationElicitation_eng-prolific,3.2.4,Win32,60,5ea186c334f3aa036bdd1c8b,,,,,,,
,,,,,,,,,,,,,,,,,,,,,,,,,,,,,,,,,,,,,,,,,r,15.78600001,TIGER,FALSE,1,0,5,4,1,4,179,tigre,Catalan,Sounds/cat_tigre.mp3,2020-06-05_15h37.37.265,TranslationElicitation_eng-prolific,3.2.4,Win32,60,5ea186c334f3aa036bdd1c8b,,,,,,,
,,,,,,,,,,,,,,,,,,,,,,,,,,,,,,,,,,,,,,,,,return,16.48199987,TIGER,FALSE,1,0,5,4,1,4,179,tigre,Catalan,Sounds/cat_tigre.mp3,2020-06-05_15h37.37.265,TranslationElicitation_eng-prolific,3.2.4,Win32,60,5ea186c334f3aa036bdd1c8b,16.48199987,,,,,,
,,,,,,,,,,,,,,,,,,,,,,,,,,,,,,,,,,,,,,,,,,,,,1,0,5,4,1,4,179,tigre,Catalan,Sounds/cat_tigre.mp3,2020-06-05_15h37.37.265,TranslationElicitation_eng-prolific,3.2.4,Win32,60,5ea186c334f3aa036bdd1c8b,,,,,,,
,,,,,,,,,,,,,,,,,,,,,,,,,,,,,,,,,,,,,,,,,b,3.198999882,B,FALSE,1,0,5,3,1,4,159,onada,Catalan,Sounds/cat_onada.mp3,2020-06-05_15h37.37.265,TranslationElicitation_eng-prolific,3.2.4,Win32,60,5ea186c334f3aa036bdd1c8b,,,,,,,
,,,,,,,,,,,,,,,,,,,,,,,,,,,,,,,,,,,,,,,,,a,3.379999876,BA,FALSE,1,0,5,3,1,4,159,onada,Catalan,Sounds/cat_onada.mp3,2020-06-05_15h37.37.265,TranslationElicitation_eng-prolific,3.2.4,Win32,60,5ea186c334f3aa036bdd1c8b,,,,,,,
,,,,,,,,,,,,,,,,,,,,,,,,,,,,,,,,,,,,,,,,,n,3.504999876,BAN,FALSE,1,0,5,3,1,4,159,onada,Catalan,Sounds/cat_onada.mp3,2020-06-05_15h37.37.265,TranslationElicitation_eng-prolific,3.2.4,Win32,60,5ea186c334f3aa036bdd1c8b,,,,,,,
,,,,,,,,,,,,,,,,,,,,,,,,,,,,,,,,,,,,,,,,,a,3.705999851,BANA,FALSE,1,0,5,3,1,4,159,onada,Catalan,Sounds/cat_onada.mp3,2020-06-05_15h37.37.265,TranslationElicitation_eng-prolific,3.2.4,Win32,60,5ea186c334f3aa036bdd1c8b,,,,,,,
,,,,,,,,,,,,,,,,,,,,,,,,,,,,,,,,,,,,,,,,,n,3.921999931,BANAN,FALSE,1,0,5,3,1,4,159,onada,Catalan,Sounds/cat_onada.mp3,2020-06-05_15h37.37.265,TranslationElicitation_eng-prolific,3.2.4,Win32,60,5ea186c334f3aa036bdd1c8b,,,,,,,
,,,,,,,,,,,,,,,,,,,,,,,,,,,,,,,,,,,,,,,,,a,4.132999897,BANANA,FALSE,1,0,5,3,1,4,159,onada,Catalan,Sounds/cat_onada.mp3,2020-06-05_15h37.37.265,TranslationElicitation_eng-prolific,3.2.4,Win32,60,5ea186c334f3aa036bdd1c8b,,,,,,,
,,,,,,,,,,,,,,,,,,,,,,,,,,,,,,,,,,,,,,,,,return,5.25,BANANA,FALSE,1,0,5,3,1,4,159,onada,Catalan,Sounds/cat_onada.mp3,2020-06-05_15h37.37.265,TranslationElicitation_eng-prolific,3.2.4,Win32,60,5ea186c334f3aa036bdd1c8b,5.25,,,,,,
,,,,,,,,,,,,,,,,,,,,,,,,,,,,,,,,,,,,,,,,,,,,,1,0,5,3,1,4,159,onada,Catalan,Sounds/cat_onada.mp3,2020-06-05_15h37.37.265,TranslationElicitation_eng-prolific,3.2.4,Win32,60,5ea186c334f3aa036bdd1c8b,,,,,,,
,,,,,,,,,,,,,,,,,,,,,,,,,,,,,,,,,,,,,,,,,c,12.148,C,FALSE,,,,,,,115,bolet,Catalan,Sounds/cat_bolet.mp3,2020-06-05_15h37.37.265,TranslationElicitation_eng-prolific,3.2.4,Win32,60,5ea186c334f3aa036bdd1c8b,,1,0,81,10,1,80
,,,,,,,,,,,,,,,,,,,,,,,,,,,,,,,,,,,,,,,,,o,12.43099999,CO,FALSE,,,,,,,115,bolet,Catalan,Sounds/cat_bolet.mp3,2020-06-05_15h37.37.265,TranslationElicitation_eng-prolific,3.2.4,Win32,60,5ea186c334f3aa036bdd1c8b,,1,0,81,10,1,80
,,,,,,,,,,,,,,,,,,,,,,,,,,,,,,,,,,,,,,,,,l,12.91899991,COL,FALSE,,,,,,,115,bolet,Catalan,Sounds/cat_bolet.mp3,2020-06-05_15h37.37.265,TranslationElicitation_eng-prolific,3.2.4,Win32,60,5ea186c334f3aa036bdd1c8b,,1,0,81,10,1,80
,,,,,,,,,,,,,,,,,,,,,,,,,,,,,,,,,,,,,,,,,d,13.75200009,COLD,FALSE,,,,,,,115,bolet,Catalan,Sounds/cat_bolet.mp3,2020-06-05_15h37.37.265,TranslationElicitation_eng-prolific,3.2.4,Win32,60,5ea186c334f3aa036bdd1c8b,,1,0,81,10,1,80
,,,,,,,,,,,,,,,,,,,,,,,,,,,,,,,,,,,,,,,,,backspace,15.03600001,COL,TRUE,,,,,,,115,bolet,Catalan,Sounds/cat_bolet.mp3,2020-06-05_15h37.37.265,TranslationElicitation_eng-prolific,3.2.4,Win32,60,5ea186c334f3aa036bdd1c8b,,1,0,81,10,1,80
,,,,,,,,,,,,,,,,,,,,,,,,,,,,,,,,,,,,,,,,,backspace,15.51999998,CO,TRUE,,,,,,,115,bolet,Catalan,Sounds/cat_bolet.mp3,2020-06-05_15h37.37.265,TranslationElicitation_eng-prolific,3.2.4,Win32,60,5ea186c334f3aa036bdd1c8b,,1,0,81,10,1,80
,,,,,,,,,,,,,,,,,,,,,,,,,,,,,,,,,,,,,,,,,backspace,15.91300011,C,TRUE,,,,,,,115,bolet,Catalan,Sounds/cat_bolet.mp3,2020-06-05_15h37.37.265,TranslationElicitation_eng-prolific,3.2.4,Win32,60,5ea186c334f3aa036bdd1c8b,,1,0,81,10,1,80
,,,,,,,,,,,,,,,,,,,,,,,,,,,,,,,,,,,,,,,,,backspace,16.26300001,,TRUE,,,,,,,115,bolet,Catalan,Sounds/cat_bolet.mp3,2020-06-05_15h37.37.265,TranslationElicitation_eng-prolific,3.2.4,Win32,60,5ea186c334f3aa036bdd1c8b,,1,0,81,10,1,80
,,,,,,,,,,,,,,,,,,,,,,,,,,,,,,,,,,,,,,,,,c,22.88400006,C,TRUE,,,,,,,115,bolet,Catalan,Sounds/cat_bolet.mp3,2020-06-05_15h37.37.265,TranslationElicitation_eng-prolific,3.2.4,Win32,60,5ea186c334f3aa036bdd1c8b,,1,0,81,10,1,80
,,,,,,,,,,,,,,,,,,,,,,,,,,,,,,,,,,,,,,,,,o,23.03399992,CO,TRUE,,,,,,,115,bolet,Catalan,Sounds/cat_bolet.mp3,2020-06-05_15h37.37.265,TranslationElicitation_eng-prolific,3.2.4,Win32,60,5ea186c334f3aa036bdd1c8b,,1,0,81,10,1,80
,,,,,,,,,,,,,,,,,,,,,,,,,,,,,,,,,,,,,,,,,l,23.24600005,COL,TRUE,,,,,,,115,bolet,Catalan,Sounds/cat_bolet.mp3,2020-06-05_15h37.37.265,TranslationElicitation_eng-prolific,3.2.4,Win32,60,5ea186c334f3aa036bdd1c8b,,1,0,81,10,1,80
,,,,,,,,,,,,,,,,,,,,,,,,,,,,,,,,,,,,,,,,,d,23.4289999,COLD,TRUE,,,,,,,115,bolet,Catalan,Sounds/cat_bolet.mp3,2020-06-05_15h37.37.265,TranslationElicitation_eng-prolific,3.2.4,Win32,60,5ea186c334f3aa036bdd1c8b,,1,0,81,10,1,80
,,,,,,,,,,,,,,,,,,,,,,,,,,,,,,,,,,,,,,,,,return,23.96199989,COLD,TRUE,,,,,,,115,bolet,Catalan,Sounds/cat_bolet.mp3,2020-06-05_15h37.37.265,TranslationElicitation_eng-prolific,3.2.4,Win32,60,5ea186c334f3aa036bdd1c8b,23.96199989,1,0,81,10,1,80
,,,,,,,,,,,,,,,,,,,,,,,,,,,,,,,,,,,,,,,,,,,,,,,,,,,115,bolet,Catalan,Sounds/cat_bolet.mp3,2020-06-05_15h37.37.265,TranslationElicitation_eng-prolific,3.2.4,Win32,60,5ea186c334f3aa036bdd1c8b,,1,0,81,10,1,80
,,,,,,,,,,,,,,,,,,,,,,,,,,,,,,,,,,,,,,,,,b,4.045000076,B,FALSE,,,,,,,163,papallona,Catalan,Sounds/cat_papallona.mp3,2020-06-05_15h37.37.265,TranslationElicitation_eng-prolific,3.2.4,Win32,60,5ea186c334f3aa036bdd1c8b,,1,0,81,55,1,80
,,,,,,,,,,,,,,,,,,,,,,,,,,,,,,,,,,,,,,,,,u,4.231000185,BU,FALSE,,,,,,,163,papallona,Catalan,Sounds/cat_papallona.mp3,2020-06-05_15h37.37.265,TranslationElicitation_eng-prolific,3.2.4,Win32,60,5ea186c334f3aa036bdd1c8b,,1,0,81,55,1,80
,,,,,,,,,,,,,,,,,,,,,,,,,,,,,,,,,,,,,,,,,t,4.337000132,BUT,FALSE,,,,,,,163,papallona,Catalan,Sounds/cat_papallona.mp3,2020-06-05_15h37.37.265,TranslationElicitation_eng-prolific,3.2.4,Win32,60,5ea186c334f3aa036bdd1c8b,,1,0,81,55,1,80
,,,,,,,,,,,,,,,,,,,,,,,,,,,,,,,,,,,,,,,,,t,4.550000191,BUTT,FALSE,,,,,,,163,papallona,Catalan,Sounds/cat_papallona.mp3,2020-06-05_15h37.37.265,TranslationElicitation_eng-prolific,3.2.4,Win32,60,5ea186c334f3aa036bdd1c8b,,1,0,81,55,1,80
,,,,,,,,,,,,,,,,,,,,,,,,,,,,,,,,,,,,,,,,,e,4.711000204,BUTTE,FALSE,,,,,,,163,papallona,Catalan,Sounds/cat_papallona.mp3,2020-06-05_15h37.37.265,TranslationElicitation_eng-prolific,3.2.4,Win32,60,5ea186c334f3aa036bdd1c8b,,1,0,81,55,1,80
,,,,,,,,,,,,,,,,,,,,,,,,,,,,,,,,,,,,,,,,,r,4.937000036,BUTTER,FALSE,,,,,,,163,papallona,Catalan,Sounds/cat_papallona.mp3,2020-06-05_15h37.37.265,TranslationElicitation_eng-prolific,3.2.4,Win32,60,5ea186c334f3aa036bdd1c8b,,1,0,81,55,1,80
,,,,,,,,,,,,,,,,,,,,,,,,,,,,,,,,,,,,,,,,,f,5.537000179,BUTTERF,FALSE,,,,,,,163,papallona,Catalan,Sounds/cat_papallona.mp3,2020-06-05_15h37.37.265,TranslationElicitation_eng-prolific,3.2.4,Win32,60,5ea186c334f3aa036bdd1c8b,,1,0,81,55,1,80
,,,,,,,,,,,,,,,,,,,,,,,,,,,,,,,,,,,,,,,,,l,5.749000072,BUTTERFL,FALSE,,,,,,,163,papallona,Catalan,Sounds/cat_papallona.mp3,2020-06-05_15h37.37.265,TranslationElicitation_eng-prolific,3.2.4,Win32,60,5ea186c334f3aa036bdd1c8b,,1,0,81,55,1,80
,,,,,,,,,,,,,,,,,,,,,,,,,,,,,,,,,,,,,,,,,y,6.002000093,BUTTERFLY,FALSE,,,,,,,163,papallona,Catalan,Sounds/cat_papallona.mp3,2020-06-05_15h37.37.265,TranslationElicitation_eng-prolific,3.2.4,Win32,60,5ea186c334f3aa036bdd1c8b,,1,0,81,55,1,80
,,,,,,,,,,,,,,,,,,,,,,,,,,,,,,,,,,,,,,,,,return,6.891000032,BUTTERFLY,FALSE,,,,,,,163,papallona,Catalan,Sounds/cat_papallona.mp3,2020-06-05_15h37.37.265,TranslationElicitation_eng-prolific,3.2.4,Win32,60,5ea186c334f3aa036bdd1c8b,6.891000032,1,0,81,55,1,80
,,,,,,,,,,,,,,,,,,,,,,,,,,,,,,,,,,,,,,,,,,,,,,,,,,,163,papallona,Catalan,Sounds/cat_papallona.mp3,2020-06-05_15h37.37.265,TranslationElicitation_eng-prolific,3.2.4,Win32,60,5ea186c334f3aa036bdd1c8b,,1,0,81,55,1,80
,,,,,,,,,,,,,,,,,,,,,,,,,,,,,,,,,,,,,,,,,p,1.68200016,P,FALSE,,,,,,,167,pingui,Catalan,Sounds/cat_pingui.mp3,2020-06-05_15h37.37.265,TranslationElicitation_eng-prolific,3.2.4,Win32,60,5ea186c334f3aa036bdd1c8b,,1,0,81,59,1,80
,,,,,,,,,,,,,,,,,,,,,,,,,,,,,,,,,,,,,,,,,e,1.912000179,PE,FALSE,,,,,,,167,pingui,Catalan,Sounds/cat_pingui.mp3,2020-06-05_15h37.37.265,TranslationElicitation_eng-prolific,3.2.4,Win32,60,5ea186c334f3aa036bdd1c8b,,1,0,81,59,1,80
,,,,,,,,,,,,,,,,,,,,,,,,,,,,,,,,,,,,,,,,,n,2.095000029,PEN,FALSE,,,,,,,167,pingui,Catalan,Sounds/cat_pingui.mp3,2020-06-05_15h37.37.265,TranslationElicitation_eng-prolific,3.2.4,Win32,60,5ea186c334f3aa036bdd1c8b,,1,0,81,59,1,80
,,,,,,,,,,,,,,,,,,,,,,,,,,,,,,,,,,,,,,,,,g,2.303000212,PENG,FALSE,,,,,,,167,pingui,Catalan,Sounds/cat_pingui.mp3,2020-06-05_15h37.37.265,TranslationElicitation_eng-prolific,3.2.4,Win32,60,5ea186c334f3aa036bdd1c8b,,1,0,81,59,1,80
,,,,,,,,,,,,,,,,,,,,,,,,,,,,,,,,,,,,,,,,,u,2.412000179,PENGU,FALSE,,,,,,,167,pingui,Catalan,Sounds/cat_pingui.mp3,2020-06-05_15h37.37.265,TranslationElicitation_eng-prolific,3.2.4,Win32,60,5ea186c334f3aa036bdd1c8b,,1,0,81,59,1,80
,,,,,,,,,,,,,,,,,,,,,,,,,,,,,,,,,,,,,,,,,i,2.632000208,PENGUI,FALSE,,,,,,,167,pingui,Catalan,Sounds/cat_pingui.mp3,2020-06-05_15h37.37.265,TranslationElicitation_eng-prolific,3.2.4,Win32,60,5ea186c334f3aa036bdd1c8b,,1,0,81,59,1,80
,,,,,,,,,,,,,,,,,,,,,,,,,,,,,,,,,,,,,,,,,n,2.729000092,PENGUIN,FALSE,,,,,,,167,pingui,Catalan,Sounds/cat_pingui.mp3,2020-06-05_15h37.37.265,TranslationElicitation_eng-prolific,3.2.4,Win32,60,5ea186c334f3aa036bdd1c8b,,1,0,81,59,1,80
,,,,,,,,,,,,,,,,,,,,,,,,,,,,,,,,,,,,,,,,,return,3.578000069,PENGUIN,FALSE,,,,,,,167,pingui,Catalan,Sounds/cat_pingui.mp3,2020-06-05_15h37.37.265,TranslationElicitation_eng-prolific,3.2.4,Win32,60,5ea186c334f3aa036bdd1c8b,3.578000069,1,0,81,59,1,80
,,,,,,,,,,,,,,,,,,,,,,,,,,,,,,,,,,,,,,,,,,,,,,,,,,,167,pingui,Catalan,Sounds/cat_pingui.mp3,2020-06-05_15h37.37.265,TranslationElicitation_eng-prolific,3.2.4,Win32,60,5ea186c334f3aa036bdd1c8b,,1,0,81,59,1,80
,,,,,,,,,,,,,,,,,,,,,,,,,,,,,,,,,,,,,,,,,a,2.200000048,A,FALSE,,,,,,,172,poma,Catalan,Sounds/cat_poma.mp3,2020-06-05_15h37.37.265,TranslationElicitation_eng-prolific,3.2.4,Win32,60,5ea186c334f3aa036bdd1c8b,,1,0,81,64,1,80
,,,,,,,,,,,,,,,,,,,,,,,,,,,,,,,,,,,,,,,,,p,2.315999985,AP,FALSE,,,,,,,172,poma,Catalan,Sounds/cat_poma.mp3,2020-06-05_15h37.37.265,TranslationElicitation_eng-prolific,3.2.4,Win32,60,5ea186c334f3aa036bdd1c8b,,1,0,81,64,1,80
,,,,,,,,,,,,,,,,,,,,,,,,,,,,,,,,,,,,,,,,,p,2.516000032,APP,FALSE,,,,,,,172,poma,Catalan,Sounds/cat_poma.mp3,2020-06-05_15h37.37.265,TranslationElicitation_eng-prolific,3.2.4,Win32,60,5ea186c334f3aa036bdd1c8b,,1,0,81,64,1,80
,,,,,,,,,,,,,,,,,,,,,,,,,,,,,,,,,,,,,,,,,l,2.71600008,APPL,FALSE,,,,,,,172,poma,Catalan,Sounds/cat_poma.mp3,2020-06-05_15h37.37.265,TranslationElicitation_eng-prolific,3.2.4,Win32,60,5ea186c334f3aa036bdd1c8b,,1,0,81,64,1,80
,,,,,,,,,,,,,,,,,,,,,,,,,,,,,,,,,,,,,,,,,e,2.900000095,APPLE,FALSE,,,,,,,172,poma,Catalan,Sounds/cat_poma.mp3,2020-06-05_15h37.37.265,TranslationElicitation_eng-prolific,3.2.4,Win32,60,5ea186c334f3aa036bdd1c8b,,1,0,81,64,1,80
,,,,,,,,,,,,,,,,,,,,,,,,,,,,,,,,,,,,,,,,,return,3.502000093,APPLE,FALSE,,,,,,,172,poma,Catalan,Sounds/cat_poma.mp3,2020-06-05_15h37.37.265,TranslationElicitation_eng-prolific,3.2.4,Win32,60,5ea186c334f3aa036bdd1c8b,3.502000093,1,0,81,64,1,80
,,,,,,,,,,,,,,,,,,,,,,,,,,,,,,,,,,,,,,,,,,,,,,,,,,,172,poma,Catalan,Sounds/cat_poma.mp3,2020-06-05_15h37.37.265,TranslationElicitation_eng-prolific,3.2.4,Win32,60,5ea186c334f3aa036bdd1c8b,,1,0,81,64,1,80
,,,,,,,,,,,,,,,,,,,,,,,,,,,,,,,,,,,,,,,,,c,1.667000055,C,FALSE,,,,,,,124,cirera,Catalan,Sounds/cat_cirera.mp3,2020-06-05_15h37.37.265,TranslationElicitation_eng-prolific,3.2.4,Win32,60,5ea186c334f3aa036bdd1c8b,,1,0,81,19,1,80
,,,,,,,,,,,,,,,,,,,,,,,,,,,,,,,,,,,,,,,,,e,1.931000233,CE,FALSE,,,,,,,124,cirera,Catalan,Sounds/cat_cirera.mp3,2020-06-05_15h37.37.265,TranslationElicitation_eng-prolific,3.2.4,Win32,60,5ea186c334f3aa036bdd1c8b,,1,0,81,19,1,80
,,,,,,,,,,,,,,,,,,,,,,,,,,,,,,,,,,,,,,,,,r,2.114000082,CER,FALSE,,,,,,,124,cirera,Catalan,Sounds/cat_cirera.mp3,2020-06-05_15h37.37.265,TranslationElicitation_eng-prolific,3.2.4,Win32,60,5ea186c334f3aa036bdd1c8b,,1,0,81,19,1,80
,,,,,,,,,,,,,,,,,,,,,,,,,,,,,,,,,,,,,,,,,e,2.283000231,CERE,FALSE,,,,,,,124,cirera,Catalan,Sounds/cat_cirera.mp3,2020-06-05_15h37.37.265,TranslationElicitation_eng-prolific,3.2.4,Win32,60,5ea186c334f3aa036bdd1c8b,,1,0,81,19,1,80
,,,,,,,,,,,,,,,,,,,,,,,,,,,,,,,,,,,,,,,,,a,2.531000137,CEREA,FALSE,,,,,,,124,cirera,Catalan,Sounds/cat_cirera.mp3,2020-06-05_15h37.37.265,TranslationElicitation_eng-prolific,3.2.4,Win32,60,5ea186c334f3aa036bdd1c8b,,1,0,81,19,1,80
,,,,,,,,,,,,,,,,,,,,,,,,,,,,,,,,,,,,,,,,,l,2.731000185,CEREAL,FALSE,,,,,,,124,cirera,Catalan,Sounds/cat_cirera.mp3,2020-06-05_15h37.37.265,TranslationElicitation_eng-prolific,3.2.4,Win32,60,5ea186c334f3aa036bdd1c8b,,1,0,81,19,1,80
,,,,,,,,,,,,,,,,,,,,,,,,,,,,,,,,,,,,,,,,,return,3.364000082,CEREAL,FALSE,,,,,,,124,cirera,Catalan,Sounds/cat_cirera.mp3,2020-06-05_15h37.37.265,TranslationElicitation_eng-prolific,3.2.4,Win32,60,5ea186c334f3aa036bdd1c8b,3.364000082,1,0,81,19,1,80
,,,,,,,,,,,,,,,,,,,,,,,,,,,,,,,,,,,,,,,,,,,,,,,,,,,124,cirera,Catalan,Sounds/cat_cirera.mp3,2020-06-05_15h37.37.265,TranslationElicitation_eng-prolific,3.2.4,Win32,60,5ea186c334f3aa036bdd1c8b,,1,0,81,19,1,80
,,,,,,,,,,,,,,,,,,,,,,,,,,,,,,,,,,,,,,,,,t,7.850000143,T,FALSE,,,,,,,155,moneda,Catalan,Sounds/cat_moneda.mp3,2020-06-05_15h37.37.265,TranslationElicitation_eng-prolific,3.2.4,Win32,60,5ea186c334f3aa036bdd1c8b,,1,0,81,48,1,80
,,,,,,,,,,,,,,,,,,,,,,,,,,,,,,,,,,,,,,,,,o,7.933000088,TO,FALSE,,,,,,,155,moneda,Catalan,Sounds/cat_moneda.mp3,2020-06-05_15h37.37.265,TranslationElicitation_eng-prolific,3.2.4,Win32,60,5ea186c334f3aa036bdd1c8b,,1,0,81,48,1,80
,,,,,,,,,,,,,,,,,,,,,,,,,,,,,,,,,,,,,,,,,m,8.121000051,TOM,FALSE,,,,,,,155,moneda,Catalan,Sounds/cat_moneda.mp3,2020-06-05_15h37.37.265,TranslationElicitation_eng-prolific,3.2.4,Win32,60,5ea186c334f3aa036bdd1c8b,,1,0,81,48,1,80
,,,,,,,,,,,,,,,,,,,,,,,,,,,,,,,,,,,,,,,,,o,8.315000057,TOMO,FALSE,,,,,,,155,moneda,Catalan,Sounds/cat_moneda.mp3,2020-06-05_15h37.37.265,TranslationElicitation_eng-prolific,3.2.4,Win32,60,5ea186c334f3aa036bdd1c8b,,1,0,81,48,1,80
,,,,,,,,,,,,,,,,,,,,,,,,,,,,,,,,,,,,,,,,,r,8.802999973,TOMOR,FALSE,,,,,,,155,moneda,Catalan,Sounds/cat_moneda.mp3,2020-06-05_15h37.37.265,TranslationElicitation_eng-prolific,3.2.4,Win32,60,5ea186c334f3aa036bdd1c8b,,1,0,81,48,1,80
,,,,,,,,,,,,,,,,,,,,,,,,,,,,,,,,,,,,,,,,,r,8.937000036,TOMORR,FALSE,,,,,,,155,moneda,Catalan,Sounds/cat_moneda.mp3,2020-06-05_15h37.37.265,TranslationElicitation_eng-prolific,3.2.4,Win32,60,5ea186c334f3aa036bdd1c8b,,1,0,81,48,1,80
,,,,,,,,,,,,,,,,,,,,,,,,,,,,,,,,,,,,,,,,,o,9.055999994,TOMORRO,FALSE,,,,,,,155,moneda,Catalan,Sounds/cat_moneda.mp3,2020-06-05_15h37.37.265,TranslationElicitation_eng-prolific,3.2.4,Win32,60,5ea186c334f3aa036bdd1c8b,,1,0,81,48,1,80
,,,,,,,,,,,,,,,,,,,,,,,,,,,,,,,,,,,,,,,,,w,9.170000076,TOMORROW,FALSE,,,,,,,155,moneda,Catalan,Sounds/cat_moneda.mp3,2020-06-05_15h37.37.265,TranslationElicitation_eng-prolific,3.2.4,Win32,60,5ea186c334f3aa036bdd1c8b,,1,0,81,48,1,80
,,,,,,,,,,,,,,,,,,,,,,,,,,,,,,,,,,,,,,,,,return,9.554000139,TOMORROW,FALSE,,,,,,,155,moneda,Catalan,Sounds/cat_moneda.mp3,2020-06-05_15h37.37.265,TranslationElicitation_eng-prolific,3.2.4,Win32,60,5ea186c334f3aa036bdd1c8b,9.554000139,1,0,81,48,1,80
,,,,,,,,,,,,,,,,,,,,,,,,,,,,,,,,,,,,,,,,,,,,,,,,,,,155,moneda,Catalan,Sounds/cat_moneda.mp3,2020-06-05_15h37.37.265,TranslationElicitation_eng-prolific,3.2.4,Win32,60,5ea186c334f3aa036bdd1c8b,,1,0,81,48,1,80
,,,,,,,,,,,,,,,,,,,,,,,,,,,,,,,,,,,,,,,,,s,15.56200004,S,FALSE,,,,,,,128,cuc,Catalan,Sounds/cat_cuc.mp3,2020-06-05_15h37.37.265,TranslationElicitation_eng-prolific,3.2.4,Win32,60,5ea186c334f3aa036bdd1c8b,,1,0,81,22,1,80
,,,,,,,,,,,,,,,,,,,,,,,,,,,,,,,,,,,,,,,,,i,15.71199989,SI,FALSE,,,,,,,128,cuc,Catalan,Sounds/cat_cuc.mp3,2020-06-05_15h37.37.265,TranslationElicitation_eng-prolific,3.2.4,Win32,60,5ea186c334f3aa036bdd1c8b,,1,0,81,22,1,80
,,,,,,,,,,,,,,,,,,,,,,,,,,,,,,,,,,,,,,,,,n,15.81299996,SIN,FALSE,,,,,,,128,cuc,Catalan,Sounds/cat_cuc.mp3,2020-06-05_15h37.37.265,TranslationElicitation_eng-prolific,3.2.4,Win32,60,5ea186c334f3aa036bdd1c8b,,1,0,81,22,1,80
,,,,,,,,,,,,,,,,,,,,,,,,,,,,,,,,,,,,,,,,,g,15.96499991,SING,FALSE,,,,,,,128,cuc,Catalan,Sounds/cat_cuc.mp3,2020-06-05_15h37.37.265,TranslationElicitation_eng-prolific,3.2.4,Win32,60,5ea186c334f3aa036bdd1c8b,,1,0,81,22,1,80
,,,,,,,,,,,,,,,,,,,,,,,,,,,,,,,,,,,,,,,,,return,16.71199989,SING,FALSE,,,,,,,128,cuc,Catalan,Sounds/cat_cuc.mp3,2020-06-05_15h37.37.265,TranslationElicitation_eng-prolific,3.2.4,Win32,60,5ea186c334f3aa036bdd1c8b,16.71199989,1,0,81,22,1,80
,,,,,,,,,,,,,,,,,,,,,,,,,,,,,,,,,,,,,,,,,,,,,,,,,,,128,cuc,Catalan,Sounds/cat_cuc.mp3,2020-06-05_15h37.37.265,TranslationElicitation_eng-prolific,3.2.4,Win32,60,5ea186c334f3aa036bdd1c8b,,1,0,81,22,1,80
,,,,,,,,,,,,,,,,,,,,,,,,,,,,,,,,,,,,,,,,,f,2.016000032,F,FALSE,,,,,,,134,flor,Catalan,Sounds/cat_flor.mp3,2020-06-05_15h37.37.265,TranslationElicitation_eng-prolific,3.2.4,Win32,60,5ea186c334f3aa036bdd1c8b,,1,0,81,28,1,80
,,,,,,,,,,,,,,,,,,,,,,,,,,,,,,,,,,,,,,,,,l,2.133000135,FL,FALSE,,,,,,,134,flor,Catalan,Sounds/cat_flor.mp3,2020-06-05_15h37.37.265,TranslationElicitation_eng-prolific,3.2.4,Win32,60,5ea186c334f3aa036bdd1c8b,,1,0,81,28,1,80
,,,,,,,,,,,,,,,,,,,,,,,,,,,,,,,,,,,,,,,,,o,2.316000223,FLO,FALSE,,,,,,,134,flor,Catalan,Sounds/cat_flor.mp3,2020-06-05_15h37.37.265,TranslationElicitation_eng-prolific,3.2.4,Win32,60,5ea186c334f3aa036bdd1c8b,,1,0,81,28,1,80
,,,,,,,,,,,,,,,,,,,,,,,,,,,,,,,,,,,,,,,,,w,2.433000088,FLOW,FALSE,,,,,,,134,flor,Catalan,Sounds/cat_flor.mp3,2020-06-05_15h37.37.265,TranslationElicitation_eng-prolific,3.2.4,Win32,60,5ea186c334f3aa036bdd1c8b,,1,0,81,28,1,80
,,,,,,,,,,,,,,,,,,,,,,,,,,,,,,,,,,,,,,,,,e,2.599000216,FLOWE,FALSE,,,,,,,134,flor,Catalan,Sounds/cat_flor.mp3,2020-06-05_15h37.37.265,TranslationElicitation_eng-prolific,3.2.4,Win32,60,5ea186c334f3aa036bdd1c8b,,1,0,81,28,1,80
,,,,,,,,,,,,,,,,,,,,,,,,,,,,,,,,,,,,,,,,,r,2.749000072,FLOWER,FALSE,,,,,,,134,flor,Catalan,Sounds/cat_flor.mp3,2020-06-05_15h37.37.265,TranslationElicitation_eng-prolific,3.2.4,Win32,60,5ea186c334f3aa036bdd1c8b,,1,0,81,28,1,80
,,,,,,,,,,,,,,,,,,,,,,,,,,,,,,,,,,,,,,,,,return,3.283000231,FLOWER,FALSE,,,,,,,134,flor,Catalan,Sounds/cat_flor.mp3,2020-06-05_15h37.37.265,TranslationElicitation_eng-prolific,3.2.4,Win32,60,5ea186c334f3aa036bdd1c8b,3.283000231,1,0,81,28,1,80
,,,,,,,,,,,,,,,,,,,,,,,,,,,,,,,,,,,,,,,,,,,,,,,,,,,134,flor,Catalan,Sounds/cat_flor.mp3,2020-06-05_15h37.37.265,TranslationElicitation_eng-prolific,3.2.4,Win32,60,5ea186c334f3aa036bdd1c8b,,1,0,81,28,1,80
,,,,,,,,,,,,,,,,,,,,,,,,,,,,,,,,,,,,,,,,,p,2.415999889,P,FALSE,,,,,,,171,pollastre,Catalan,Sounds/cat_pollastre.mp3,2020-06-05_15h37.37.265,TranslationElicitation_eng-prolific,3.2.4,Win32,60,5ea186c334f3aa036bdd1c8b,,1,0,81,63,1,80
,,,,,,,,,,,,,,,,,,,,,,,,,,,,,,,,,,,,,,,,,l,2.798999786,PL,FALSE,,,,,,,171,pollastre,Catalan,Sounds/cat_pollastre.mp3,2020-06-05_15h37.37.265,TranslationElicitation_eng-prolific,3.2.4,Win32,60,5ea186c334f3aa036bdd1c8b,,1,0,81,63,1,80
,,,,,,,,,,,,,,,,,,,,,,,,,,,,,,,,,,,,,,,,,a,2.831999779,PLA,FALSE,,,,,,,171,pollastre,Catalan,Sounds/cat_pollastre.mp3,2020-06-05_15h37.37.265,TranslationElicitation_eng-prolific,3.2.4,Win32,60,5ea186c334f3aa036bdd1c8b,,1,0,81,63,1,80
,,,,,,,,,,,,,,,,,,,,,,,,,,,,,,,,,,,,,,,,,s,3.031999826,PLAS,FALSE,,,,,,,171,pollastre,Catalan,Sounds/cat_pollastre.mp3,2020-06-05_15h37.37.265,TranslationElicitation_eng-prolific,3.2.4,Win32,60,5ea186c334f3aa036bdd1c8b,,1,0,81,63,1,80
,,,,,,,,,,,,,,,,,,,,,,,,,,,,,,,,,,,,,,,,,t,3.265999794,PLAST,FALSE,,,,,,,171,pollastre,Catalan,Sounds/cat_pollastre.mp3,2020-06-05_15h37.37.265,TranslationElicitation_eng-prolific,3.2.4,Win32,60,5ea186c334f3aa036bdd1c8b,,1,0,81,63,1,80
,,,,,,,,,,,,,,,,,,,,,,,,,,,,,,,,,,,,,,,,,i,3.426999807,PLASTI,FALSE,,,,,,,171,pollastre,Catalan,Sounds/cat_pollastre.mp3,2020-06-05_15h37.37.265,TranslationElicitation_eng-prolific,3.2.4,Win32,60,5ea186c334f3aa036bdd1c8b,,1,0,81,63,1,80
,,,,,,,,,,,,,,,,,,,,,,,,,,,,,,,,,,,,,,,,,c,3.565999985,PLASTIC,FALSE,,,,,,,171,pollastre,Catalan,Sounds/cat_pollastre.mp3,2020-06-05_15h37.37.265,TranslationElicitation_eng-prolific,3.2.4,Win32,60,5ea186c334f3aa036bdd1c8b,,1,0,81,63,1,80
,,,,,,,,,,,,,,,,,,,,,,,,,,,,,,,,,,,,,,,,,return,4.303999901,PLASTIC,FALSE,,,,,,,171,pollastre,Catalan,Sounds/cat_pollastre.mp3,2020-06-05_15h37.37.265,TranslationElicitation_eng-prolific,3.2.4,Win32,60,5ea186c334f3aa036bdd1c8b,4.303999901,1,0,81,63,1,80
,,,,,,,,,,,,,,,,,,,,,,,,,,,,,,,,,,,,,,,,,,,,,,,,,,,171,pollastre,Catalan,Sounds/cat_pollastre.mp3,2020-06-05_15h37.37.265,TranslationElicitation_eng-prolific,3.2.4,Win32,60,5ea186c334f3aa036bdd1c8b,,1,0,81,63,1,80
,,,,,,,,,,,,,,,,,,,,,,,,,,,,,,,,,,,,,,,,,p,1.381999969,P,FALSE,,,,,,,164,patata,Catalan,Sounds/cat_patata.mp3,2020-06-05_15h37.37.265,TranslationElicitation_eng-prolific,3.2.4,Win32,60,5ea186c334f3aa036bdd1c8b,,1,0,81,56,1,80
,,,,,,,,,,,,,,,,,,,,,,,,,,,,,,,,,,,,,,,,,o,1.655999899,PO,FALSE,,,,,,,164,patata,Catalan,Sounds/cat_patata.mp3,2020-06-05_15h37.37.265,TranslationElicitation_eng-prolific,3.2.4,Win32,60,5ea186c334f3aa036bdd1c8b,,1,0,81,56,1,80
,,,,,,,,,,,,,,,,,,,,,,,,,,,,,,,,,,,,,,,,,t,1.731999874,POT,FALSE,,,,,,,164,patata,Catalan,Sounds/cat_patata.mp3,2020-06-05_15h37.37.265,TranslationElicitation_eng-prolific,3.2.4,Win32,60,5ea186c334f3aa036bdd1c8b,,1,0,81,56,1,80
,,,,,,,,,,,,,,,,,,,,,,,,,,,,,,,,,,,,,,,,,a,1.97300005,POTA,FALSE,,,,,,,164,patata,Catalan,Sounds/cat_patata.mp3,2020-06-05_15h37.37.265,TranslationElicitation_eng-prolific,3.2.4,Win32,60,5ea186c334f3aa036bdd1c8b,,1,0,81,56,1,80
,,,,,,,,,,,,,,,,,,,,,,,,,,,,,,,,,,,,,,,,,t,2.465999842,POTAT,FALSE,,,,,,,164,patata,Catalan,Sounds/cat_patata.mp3,2020-06-05_15h37.37.265,TranslationElicitation_eng-prolific,3.2.4,Win32,60,5ea186c334f3aa036bdd1c8b,,1,0,81,56,1,80
,,,,,,,,,,,,,,,,,,,,,,,,,,,,,,,,,,,,,,,,,o,2.806999922,POTATO,FALSE,,,,,,,164,patata,Catalan,Sounds/cat_patata.mp3,2020-06-05_15h37.37.265,TranslationElicitation_eng-prolific,3.2.4,Win32,60,5ea186c334f3aa036bdd1c8b,,1,0,81,56,1,80
,,,,,,,,,,,,,,,,,,,,,,,,,,,,,,,,,,,,,,,,,return,3.448999882,POTATO,FALSE,,,,,,,164,patata,Catalan,Sounds/cat_patata.mp3,2020-06-05_15h37.37.265,TranslationElicitation_eng-prolific,3.2.4,Win32,60,5ea186c334f3aa036bdd1c8b,3.448999882,1,0,81,56,1,80
,,,,,,,,,,,,,,,,,,,,,,,,,,,,,,,,,,,,,,,,,,,,,,,,,,,164,patata,Catalan,Sounds/cat_patata.mp3,2020-06-05_15h37.37.265,TranslationElicitation_eng-prolific,3.2.4,Win32,60,5ea186c334f3aa036bdd1c8b,,1,0,81,56,1,80
,,,,,,,,,,,,,,,,,,,,,,,,,,,,,,,,,,,,,,,,,w,4.062000036,W,FALSE,,,,,,,169,plat,Catalan,Sounds/cat_plat.mp3,2020-06-05_15h37.37.265,TranslationElicitation_eng-prolific,3.2.4,Win32,60,5ea186c334f3aa036bdd1c8b,,1,0,81,61,1,80
,,,,,,,,,,,,,,,,,,,,,,,,,,,,,,,,,,,,,,,,,h,4.532000065,WH,FALSE,,,,,,,169,plat,Catalan,Sounds/cat_plat.mp3,2020-06-05_15h37.37.265,TranslationElicitation_eng-prolific,3.2.4,Win32,60,5ea186c334f3aa036bdd1c8b,,1,0,81,61,1,80
,,,,,,,,,,,,,,,,,,,,,,,,,,,,,,,,,,,,,,,,,i,4.781000137,WHI,FALSE,,,,,,,169,plat,Catalan,Sounds/cat_plat.mp3,2020-06-05_15h37.37.265,TranslationElicitation_eng-prolific,3.2.4,Win32,60,5ea186c334f3aa036bdd1c8b,,1,0,81,61,1,80
,,,,,,,,,,,,,,,,,,,,,,,,,,,,,,,,,,,,,,,,,t,4.963999987,WHIT,FALSE,,,,,,,169,plat,Catalan,Sounds/cat_plat.mp3,2020-06-05_15h37.37.265,TranslationElicitation_eng-prolific,3.2.4,Win32,60,5ea186c334f3aa036bdd1c8b,,1,0,81,61,1,80
,,,,,,,,,,,,,,,,,,,,,,,,,,,,,,,,,,,,,,,,,e,5.180000067,WHITE,FALSE,,,,,,,169,plat,Catalan,Sounds/cat_plat.mp3,2020-06-05_15h37.37.265,TranslationElicitation_eng-prolific,3.2.4,Win32,60,5ea186c334f3aa036bdd1c8b,,1,0,81,61,1,80
,,,,,,,,,,,,,,,,,,,,,,,,,,,,,,,,,,,,,,,,,return,5.832000017,WHITE,FALSE,,,,,,,169,plat,Catalan,Sounds/cat_plat.mp3,2020-06-05_15h37.37.265,TranslationElicitation_eng-prolific,3.2.4,Win32,60,5ea186c334f3aa036bdd1c8b,5.832000017,1,0,81,61,1,80
,,,,,,,,,,,,,,,,,,,,,,,,,,,,,,,,,,,,,,,,,,,,,,,,,,,169,plat,Catalan,Sounds/cat_plat.mp3,2020-06-05_15h37.37.265,TranslationElicitation_eng-prolific,3.2.4,Win32,60,5ea186c334f3aa036bdd1c8b,,1,0,81,61,1,80
,,,,,,,,,,,,,,,,,,,,,,,,,,,,,,,,,,,,,,,,,m,5.099999905,M,FALSE,,,,,,,161,ovella,Catalan,Sounds/cat_ovella.mp3,2020-06-05_15h37.37.265,TranslationElicitation_eng-prolific,3.2.4,Win32,60,5ea186c334f3aa036bdd1c8b,,1,0,81,53,1,80
,,,,,,,,,,,,,,,,,,,,,,,,,,,,,,,,,,,,,,,,,i,5.25,MI,FALSE,,,,,,,161,ovella,Catalan,Sounds/cat_ovella.mp3,2020-06-05_15h37.37.265,TranslationElicitation_eng-prolific,3.2.4,Win32,60,5ea186c334f3aa036bdd1c8b,,1,0,81,53,1,80
,,,,,,,,,,,,,,,,,,,,,,,,,,,,,,,,,,,,,,,,,l,5.48300004,MIL,FALSE,,,,,,,161,ovella,Catalan,Sounds/cat_ovella.mp3,2020-06-05_15h37.37.265,TranslationElicitation_eng-prolific,3.2.4,Win32,60,5ea186c334f3aa036bdd1c8b,,1,0,81,53,1,80
,,,,,,,,,,,,,,,,,,,,,,,,,,,,,,,,,,,,,,,,,k,5.582999945,MILK,FALSE,,,,,,,161,ovella,Catalan,Sounds/cat_ovella.mp3,2020-06-05_15h37.37.265,TranslationElicitation_eng-prolific,3.2.4,Win32,60,5ea186c334f3aa036bdd1c8b,,1,0,81,53,1,80
,,,,,,,,,,,,,,,,,,,,,,,,,,,,,,,,,,,,,,,,,return,5.997999907,MILK,FALSE,,,,,,,161,ovella,Catalan,Sounds/cat_ovella.mp3,2020-06-05_15h37.37.265,TranslationElicitation_eng-prolific,3.2.4,Win32,60,5ea186c334f3aa036bdd1c8b,5.997999907,1,0,81,53,1,80
,,,,,,,,,,,,,,,,,,,,,,,,,,,,,,,,,,,,,,,,,,,,,,,,,,,161,ovella,Catalan,Sounds/cat_ovella.mp3,2020-06-05_15h37.37.265,TranslationElicitation_eng-prolific,3.2.4,Win32,60,5ea186c334f3aa036bdd1c8b,,1,0,81,53,1,80
,,,,,,,,,,,,,,,,,,,,,,,,,,,,,,,,,,,,,,,,,p,10.69799995,P,FALSE,,,,,,,145,got,Catalan,Sounds/cat_got.mp3,2020-06-05_15h37.37.265,TranslationElicitation_eng-prolific,3.2.4,Win32,60,5ea186c334f3aa036bdd1c8b,,1,0,81,39,1,80
,,,,,,,,,,,,,,,,,,,,,,,,,,,,,,,,,,,,,,,,,u,11.56400013,PU,FALSE,,,,,,,145,got,Catalan,Sounds/cat_got.mp3,2020-06-05_15h37.37.265,TranslationElicitation_eng-prolific,3.2.4,Win32,60,5ea186c334f3aa036bdd1c8b,,1,0,81,39,1,80
,,,,,,,,,,,,,,,,,,,,,,,,,,,,,,,,,,,,,,,,,m,12.38199997,PUM,FALSE,,,,,,,145,got,Catalan,Sounds/cat_got.mp3,2020-06-05_15h37.37.265,TranslationElicitation_eng-prolific,3.2.4,Win32,60,5ea186c334f3aa036bdd1c8b,,1,0,81,39,1,80
,,,,,,,,,,,,,,,,,,,,,,,,,,,,,,,,,,,,,,,,,p,12.53699994,PUMP,FALSE,,,,,,,145,got,Catalan,Sounds/cat_got.mp3,2020-06-05_15h37.37.265,TranslationElicitation_eng-prolific,3.2.4,Win32,60,5ea186c334f3aa036bdd1c8b,,1,0,81,39,1,80
,,,,,,,,,,,,,,,,,,,,,,,,,,,,,,,,,,,,,,,,,k,12.81299996,PUMPK,FALSE,,,,,,,145,got,Catalan,Sounds/cat_got.mp3,2020-06-05_15h37.37.265,TranslationElicitation_eng-prolific,3.2.4,Win32,60,5ea186c334f3aa036bdd1c8b,,1,0,81,39,1,80
,,,,,,,,,,,,,,,,,,,,,,,,,,,,,,,,,,,,,,,,,i,12.95300007,PUMPKI,FALSE,,,,,,,145,got,Catalan,Sounds/cat_got.mp3,2020-06-05_15h37.37.265,TranslationElicitation_eng-prolific,3.2.4,Win32,60,5ea186c334f3aa036bdd1c8b,,1,0,81,39,1,80
,,,,,,,,,,,,,,,,,,,,,,,,,,,,,,,,,,,,,,,,,n,13.08100009,PUMPKIN,FALSE,,,,,,,145,got,Catalan,Sounds/cat_got.mp3,2020-06-05_15h37.37.265,TranslationElicitation_eng-prolific,3.2.4,Win32,60,5ea186c334f3aa036bdd1c8b,,1,0,81,39,1,80
,,,,,,,,,,,,,,,,,,,,,,,,,,,,,,,,,,,,,,,,,return,13.53600001,PUMPKIN,FALSE,,,,,,,145,got,Catalan,Sounds/cat_got.mp3,2020-06-05_15h37.37.265,TranslationElicitation_eng-prolific,3.2.4,Win32,60,5ea186c334f3aa036bdd1c8b,13.53600001,1,0,81,39,1,80
,,,,,,,,,,,,,,,,,,,,,,,,,,,,,,,,,,,,,,,,,,,,,,,,,,,145,got,Catalan,Sounds/cat_got.mp3,2020-06-05_15h37.37.265,TranslationElicitation_eng-prolific,3.2.4,Win32,60,5ea186c334f3aa036bdd1c8b,,1,0,81,39,1,80
,,,,,,,,,,,,,,,,,,,,,,,,,,,,,,,,,,,,,,,,,f,8.761999846,F,FALSE,,,,,,,119,caixa,Catalan,Sounds/cat_caixa.mp3,2020-06-05_15h37.37.265,TranslationElicitation_eng-prolific,3.2.4,Win32,60,5ea186c334f3aa036bdd1c8b,,1,0,81,14,1,80
,,,,,,,,,,,,,,,,,,,,,,,,,,,,,,,,,,,,,,,,,o,9.09499979,FO,FALSE,,,,,,,119,caixa,Catalan,Sounds/cat_caixa.mp3,2020-06-05_15h37.37.265,TranslationElicitation_eng-prolific,3.2.4,Win32,60,5ea186c334f3aa036bdd1c8b,,1,0,81,14,1,80
,,,,,,,,,,,,,,,,,,,,,,,,,,,,,,,,,,,,,,,,,o,9.244999886,FOO,FALSE,,,,,,,119,caixa,Catalan,Sounds/cat_caixa.mp3,2020-06-05_15h37.37.265,TranslationElicitation_eng-prolific,3.2.4,Win32,60,5ea186c334f3aa036bdd1c8b,,1,0,81,14,1,80
,,,,,,,,,,,,,,,,,,,,,,,,,,,,,,,,,,,,,,,,,d,9.394999981,FOOD,FALSE,,,,,,,119,caixa,Catalan,Sounds/cat_caixa.mp3,2020-06-05_15h37.37.265,TranslationElicitation_eng-prolific,3.2.4,Win32,60,5ea186c334f3aa036bdd1c8b,,1,0,81,14,1,80
,,,,,,,,,,,,,,,,,,,,,,,,,,,,,,,,,,,,,,,,,return,9.860999823,FOOD,FALSE,,,,,,,119,caixa,Catalan,Sounds/cat_caixa.mp3,2020-06-05_15h37.37.265,TranslationElicitation_eng-prolific,3.2.4,Win32,60,5ea186c334f3aa036bdd1c8b,9.860999823,1,0,81,14,1,80
,,,,,,,,,,,,,,,,,,,,,,,,,,,,,,,,,,,,,,,,,,,,,,,,,,,119,caixa,Catalan,Sounds/cat_caixa.mp3,2020-06-05_15h37.37.265,TranslationElicitation_eng-prolific,3.2.4,Win32,60,5ea186c334f3aa036bdd1c8b,,1,0,81,14,1,80
,,,,,,,,,,,,,,,,,,,,,,,,,,,,,,,,,,,,,,,,,s,6.399000168,S,FALSE,,,,,,,176,samarreta,Catalan,Sounds/cat_samarreta.mp3,2020-06-05_15h37.37.265,TranslationElicitation_eng-prolific,3.2.4,Win32,60,5ea186c334f3aa036bdd1c8b,,1,0,81,68,1,80
,,,,,,,,,,,,,,,,,,,,,,,,,,,,,,,,,,,,,,,,,d,6.881999969,SD,FALSE,,,,,,,176,samarreta,Catalan,Sounds/cat_samarreta.mp3,2020-06-05_15h37.37.265,TranslationElicitation_eng-prolific,3.2.4,Win32,60,5ea186c334f3aa036bdd1c8b,,1,0,81,68,1,80
,,,,,,,,,,,,,,,,,,,,,,,,,,,,,,,,,,,,,,,,,backspace,7.44900012,S,TRUE,,,,,,,176,samarreta,Catalan,Sounds/cat_samarreta.mp3,2020-06-05_15h37.37.265,TranslationElicitation_eng-prolific,3.2.4,Win32,60,5ea186c334f3aa036bdd1c8b,,1,0,81,68,1,80
,,,,,,,,,,,,,,,,,,,,,,,,,,,,,,,,,,,,,,,,,backspace,7.683000088,,TRUE,,,,,,,176,samarreta,Catalan,Sounds/cat_samarreta.mp3,2020-06-05_15h37.37.265,TranslationElicitation_eng-prolific,3.2.4,Win32,60,5ea186c334f3aa036bdd1c8b,,1,0,81,68,1,80
,,,,,,,,,,,,,,,,,,,,,,,,,,,,,,,,,,,,,,,,,s,11.68099999,S,TRUE,,,,,,,176,samarreta,Catalan,Sounds/cat_samarreta.mp3,2020-06-05_15h37.37.265,TranslationElicitation_eng-prolific,3.2.4,Win32,60,5ea186c334f3aa036bdd1c8b,,1,0,81,68,1,80
,,,,,,,,,,,,,,,,,,,,,,,,,,,,,,,,,,,,,,,,,u,11.96399999,SU,TRUE,,,,,,,176,samarreta,Catalan,Sounds/cat_samarreta.mp3,2020-06-05_15h37.37.265,TranslationElicitation_eng-prolific,3.2.4,Win32,60,5ea186c334f3aa036bdd1c8b,,1,0,81,68,1,80
,,,,,,,,,,,,,,,,,,,,,,,,,,,,,,,,,,,,,,,,,m,12.23100019,SUM,TRUE,,,,,,,176,samarreta,Catalan,Sounds/cat_samarreta.mp3,2020-06-05_15h37.37.265,TranslationElicitation_eng-prolific,3.2.4,Win32,60,5ea186c334f3aa036bdd1c8b,,1,0,81,68,1,80
,,,,,,,,,,,,,,,,,,,,,,,,,,,,,,,,,,,,,,,,,m,12.36400008,SUMM,TRUE,,,,,,,176,samarreta,Catalan,Sounds/cat_samarreta.mp3,2020-06-05_15h37.37.265,TranslationElicitation_eng-prolific,3.2.4,Win32,60,5ea186c334f3aa036bdd1c8b,,1,0,81,68,1,80
,,,,,,,,,,,,,,,,,,,,,,,,,,,,,,,,,,,,,,,,,e,12.74699998,SUMME,TRUE,,,,,,,176,samarreta,Catalan,Sounds/cat_samarreta.mp3,2020-06-05_15h37.37.265,TranslationElicitation_eng-prolific,3.2.4,Win32,60,5ea186c334f3aa036bdd1c8b,,1,0,81,68,1,80
,,,,,,,,,,,,,,,,,,,,,,,,,,,,,,,,,,,,,,,,,r,12.98100019,SUMMER,TRUE,,,,,,,176,samarreta,Catalan,Sounds/cat_samarreta.mp3,2020-06-05_15h37.37.265,TranslationElicitation_eng-prolific,3.2.4,Win32,60,5ea186c334f3aa036bdd1c8b,,1,0,81,68,1,80
,,,,,,,,,,,,,,,,,,,,,,,,,,,,,,,,,,,,,,,,,return,13.79700017,SUMMER,TRUE,,,,,,,176,samarreta,Catalan,Sounds/cat_samarreta.mp3,2020-06-05_15h37.37.265,TranslationElicitation_eng-prolific,3.2.4,Win32,60,5ea186c334f3aa036bdd1c8b,13.79700017,1,0,81,68,1,80
,,,,,,,,,,,,,,,,,,,,,,,,,,,,,,,,,,,,,,,,,,,,,,,,,,,176,samarreta,Catalan,Sounds/cat_samarreta.mp3,2020-06-05_15h37.37.265,TranslationElicitation_eng-prolific,3.2.4,Win32,60,5ea186c334f3aa036bdd1c8b,,1,0,81,68,1,80
,,,,,,,,,,,,,,,,,,,,,,,,,,,,,,,,,,,,,,,,,s,3.215999842,S,FALSE,,,,,,,157,mussol,Catalan,Sounds/cat_mussol.mp3,2020-06-05_15h37.37.265,TranslationElicitation_eng-prolific,3.2.4,Win32,60,5ea186c334f3aa036bdd1c8b,,1,0,81,50,1,80
,,,,,,,,,,,,,,,,,,,,,,,,,,,,,,,,,,,,,,,,,u,3.332000017,SU,FALSE,,,,,,,157,mussol,Catalan,Sounds/cat_mussol.mp3,2020-06-05_15h37.37.265,TranslationElicitation_eng-prolific,3.2.4,Win32,60,5ea186c334f3aa036bdd1c8b,,1,0,81,50,1,80
,,,,,,,,,,,,,,,,,,,,,,,,,,,,,,,,,,,,,,,,,n,3.549000025,SUN,FALSE,,,,,,,157,mussol,Catalan,Sounds/cat_mussol.mp3,2020-06-05_15h37.37.265,TranslationElicitation_eng-prolific,3.2.4,Win32,60,5ea186c334f3aa036bdd1c8b,,1,0,81,50,1,80
,,,,,,,,,,,,,,,,,,,,,,,,,,,,,,,,,,,,,,,,,n,3.73300004,SUNN,FALSE,,,,,,,157,mussol,Catalan,Sounds/cat_mussol.mp3,2020-06-05_15h37.37.265,TranslationElicitation_eng-prolific,3.2.4,Win32,60,5ea186c334f3aa036bdd1c8b,,1,0,81,50,1,80
,,,,,,,,,,,,,,,,,,,,,,,,,,,,,,,,,,,,,,,,,y,3.931999922,SUNNY,FALSE,,,,,,,157,mussol,Catalan,Sounds/cat_mussol.mp3,2020-06-05_15h37.37.265,TranslationElicitation_eng-prolific,3.2.4,Win32,60,5ea186c334f3aa036bdd1c8b,,1,0,81,50,1,80
,,,,,,,,,,,,,,,,,,,,,,,,,,,,,,,,,,,,,,,,,backspace,5.332000017,SUNN,TRUE,,,,,,,157,mussol,Catalan,Sounds/cat_mussol.mp3,2020-06-05_15h37.37.265,TranslationElicitation_eng-prolific,3.2.4,Win32,60,5ea186c334f3aa036bdd1c8b,,1,0,81,50,1,80
,,,,,,,,,,,,,,,,,,,,,,,,,,,,,,,,,,,,,,,,,backspace,5.565000057,SUN,TRUE,,,,,,,157,mussol,Catalan,Sounds/cat_mussol.mp3,2020-06-05_15h37.37.265,TranslationElicitation_eng-prolific,3.2.4,Win32,60,5ea186c334f3aa036bdd1c8b,,1,0,81,50,1,80
,,,,,,,,,,,,,,,,,,,,,,,,,,,,,,,,,,,,,,,,,return,6.828999996,SUN,TRUE,,,,,,,157,mussol,Catalan,Sounds/cat_mussol.mp3,2020-06-05_15h37.37.265,TranslationElicitation_eng-prolific,3.2.4,Win32,60,5ea186c334f3aa036bdd1c8b,6.828999996,1,0,81,50,1,80
,,,,,,,,,,,,,,,,,,,,,,,,,,,,,,,,,,,,,,,,,,,,,,,,,,,157,mussol,Catalan,Sounds/cat_mussol.mp3,2020-06-05_15h37.37.265,TranslationElicitation_eng-prolific,3.2.4,Win32,60,5ea186c334f3aa036bdd1c8b,,1,0,81,50,1,80
,,,,,,,,,,,,,,,,,,,,,,,,,,,,,,,,,,,,,,,,,u,10.5150001,U,FALSE,,,,,,,116,bolquer,Catalan,Sounds/cat_bolquer.mp3,2020-06-05_15h37.37.265,TranslationElicitation_eng-prolific,3.2.4,Win32,60,5ea186c334f3aa036bdd1c8b,,1,0,81,11,1,80
,,,,,,,,,,,,,,,,,,,,,,,,,,,,,,,,,,,,,,,,,m,10.78200006,UM,FALSE,,,,,,,116,bolquer,Catalan,Sounds/cat_bolquer.mp3,2020-06-05_15h37.37.265,TranslationElicitation_eng-prolific,3.2.4,Win32,60,5ea186c334f3aa036bdd1c8b,,1,0,81,11,1,80
,,,,,,,,,,,,,,,,,,,,,,,,,,,,,,,,,,,,,,,,,b,10.94800019,UMB,FALSE,,,,,,,116,bolquer,Catalan,Sounds/cat_bolquer.mp3,2020-06-05_15h37.37.265,TranslationElicitation_eng-prolific,3.2.4,Win32,60,5ea186c334f3aa036bdd1c8b,,1,0,81,11,1,80
,,,,,,,,,,,,,,,,,,,,,,,,,,,,,,,,,,,,,,,,,r,11.09800005,UMBR,FALSE,,,,,,,116,bolquer,Catalan,Sounds/cat_bolquer.mp3,2020-06-05_15h37.37.265,TranslationElicitation_eng-prolific,3.2.4,Win32,60,5ea186c334f3aa036bdd1c8b,,1,0,81,11,1,80
,,,,,,,,,,,,,,,,,,,,,,,,,,,,,,,,,,,,,,,,,e,11.2670002,UMBRE,FALSE,,,,,,,116,bolquer,Catalan,Sounds/cat_bolquer.mp3,2020-06-05_15h37.37.265,TranslationElicitation_eng-prolific,3.2.4,Win32,60,5ea186c334f3aa036bdd1c8b,,1,0,81,11,1,80
,,,,,,,,,,,,,,,,,,,,,,,,,,,,,,,,,,,,,,,,,l,11.36400008,UMBREL,FALSE,,,,,,,116,bolquer,Catalan,Sounds/cat_bolquer.mp3,2020-06-05_15h37.37.265,TranslationElicitation_eng-prolific,3.2.4,Win32,60,5ea186c334f3aa036bdd1c8b,,1,0,81,11,1,80
,,,,,,,,,,,,,,,,,,,,,,,,,,,,,,,,,,,,,,,,,l,11.49800014,UMBRELL,FALSE,,,,,,,116,bolquer,Catalan,Sounds/cat_bolquer.mp3,2020-06-05_15h37.37.265,TranslationElicitation_eng-prolific,3.2.4,Win32,60,5ea186c334f3aa036bdd1c8b,,1,0,81,11,1,80
,,,,,,,,,,,,,,,,,,,,,,,,,,,,,,,,,,,,,,,,,a,11.59800005,UMBRELLA,FALSE,,,,,,,116,bolquer,Catalan,Sounds/cat_bolquer.mp3,2020-06-05_15h37.37.265,TranslationElicitation_eng-prolific,3.2.4,Win32,60,5ea186c334f3aa036bdd1c8b,,1,0,81,11,1,80
,,,,,,,,,,,,,,,,,,,,,,,,,,,,,,,,,,,,,,,,,return,11.99800014,UMBRELLA,FALSE,,,,,,,116,bolquer,Catalan,Sounds/cat_bolquer.mp3,2020-06-05_15h37.37.265,TranslationElicitation_eng-prolific,3.2.4,Win32,60,5ea186c334f3aa036bdd1c8b,11.99800014,1,0,81,11,1,80
,,,,,,,,,,,,,,,,,,,,,,,,,,,,,,,,,,,,,,,,,,,,,,,,,,,116,bolquer,Catalan,Sounds/cat_bolquer.mp3,2020-06-05_15h37.37.265,TranslationElicitation_eng-prolific,3.2.4,Win32,60,5ea186c334f3aa036bdd1c8b,,1,0,81,11,1,80
,,,,,,,,,,,,,,,,,,,,,,,,,,,,,,,,,,,,,,,,,u,2.78000021,U,FALSE,,,,,,,108,ampolla,Catalan,Sounds/cat_ampolla.mp3,2020-06-05_15h37.37.265,TranslationElicitation_eng-prolific,3.2.4,Win32,60,5ea186c334f3aa036bdd1c8b,,1,0,81,4,1,80
,,,,,,,,,,,,,,,,,,,,,,,,,,,,,,,,,,,,,,,,,m,3.065000057,UM,FALSE,,,,,,,108,ampolla,Catalan,Sounds/cat_ampolla.mp3,2020-06-05_15h37.37.265,TranslationElicitation_eng-prolific,3.2.4,Win32,60,5ea186c334f3aa036bdd1c8b,,1,0,81,4,1,80
,,,,,,,,,,,,,,,,,,,,,,,,,,,,,,,,,,,,,,,,,b,3.531000137,UMB,FALSE,,,,,,,108,ampolla,Catalan,Sounds/cat_ampolla.mp3,2020-06-05_15h37.37.265,TranslationElicitation_eng-prolific,3.2.4,Win32,60,5ea186c334f3aa036bdd1c8b,,1,0,81,4,1,80
,,,,,,,,,,,,,,,,,,,,,,,,,,,,,,,,,,,,,,,,,r,3.71600008,UMBR,FALSE,,,,,,,108,ampolla,Catalan,Sounds/cat_ampolla.mp3,2020-06-05_15h37.37.265,TranslationElicitation_eng-prolific,3.2.4,Win32,60,5ea186c334f3aa036bdd1c8b,,1,0,81,4,1,80
,,,,,,,,,,,,,,,,,,,,,,,,,,,,,,,,,,,,,,,,,e,3.916000128,UMBRE,FALSE,,,,,,,108,ampolla,Catalan,Sounds/cat_ampolla.mp3,2020-06-05_15h37.37.265,TranslationElicitation_eng-prolific,3.2.4,Win32,60,5ea186c334f3aa036bdd1c8b,,1,0,81,4,1,80
,,,,,,,,,,,,,,,,,,,,,,,,,,,,,,,,,,,,,,,,,a,4.338000059,UMBREA,FALSE,,,,,,,108,ampolla,Catalan,Sounds/cat_ampolla.mp3,2020-06-05_15h37.37.265,TranslationElicitation_eng-prolific,3.2.4,Win32,60,5ea186c334f3aa036bdd1c8b,,1,0,81,4,1,80
,,,,,,,,,,,,,,,,,,,,,,,,,,,,,,,,,,,,,,,,,l,4.620000124,UMBREAL,FALSE,,,,,,,108,ampolla,Catalan,Sounds/cat_ampolla.mp3,2020-06-05_15h37.37.265,TranslationElicitation_eng-prolific,3.2.4,Win32,60,5ea186c334f3aa036bdd1c8b,,1,0,81,4,1,80
,,,,,,,,,,,,,,,,,,,,,,,,,,,,,,,,,,,,,,,,,backspace,4.946000099,UMBREA,TRUE,,,,,,,108,ampolla,Catalan,Sounds/cat_ampolla.mp3,2020-06-05_15h37.37.265,TranslationElicitation_eng-prolific,3.2.4,Win32,60,5ea186c334f3aa036bdd1c8b,,1,0,81,4,1,80
,,,,,,,,,,,,,,,,,,,,,,,,,,,,,,,,,,,,,,,,,backspace,5.096000195,UMBRE,TRUE,,,,,,,108,ampolla,Catalan,Sounds/cat_ampolla.mp3,2020-06-05_15h37.37.265,TranslationElicitation_eng-prolific,3.2.4,Win32,60,5ea186c334f3aa036bdd1c8b,,1,0,81,4,1,80
,,,,,,,,,,,,,,,,,,,,,,,,,,,,,,,,,,,,,,,,,l,5.334000111,UMBREL,TRUE,,,,,,,108,ampolla,Catalan,Sounds/cat_ampolla.mp3,2020-06-05_15h37.37.265,TranslationElicitation_eng-prolific,3.2.4,Win32,60,5ea186c334f3aa036bdd1c8b,,1,0,81,4,1,80
,,,,,,,,,,,,,,,,,,,,,,,,,,,,,,,,,,,,,,,,,l,5.430000067,UMBRELL,TRUE,,,,,,,108,ampolla,Catalan,Sounds/cat_ampolla.mp3,2020-06-05_15h37.37.265,TranslationElicitation_eng-prolific,3.2.4,Win32,60,5ea186c334f3aa036bdd1c8b,,1,0,81,4,1,80
,,,,,,,,,,,,,,,,,,,,,,,,,,,,,,,,,,,,,,,,,a,5.551000118,UMBRELLA,TRUE,,,,,,,108,ampolla,Catalan,Sounds/cat_ampolla.mp3,2020-06-05_15h37.37.265,TranslationElicitation_eng-prolific,3.2.4,Win32,60,5ea186c334f3aa036bdd1c8b,,1,0,81,4,1,80
,,,,,,,,,,,,,,,,,,,,,,,,,,,,,,,,,,,,,,,,,return,6.03000021,UMBRELLA,TRUE,,,,,,,108,ampolla,Catalan,Sounds/cat_ampolla.mp3,2020-06-05_15h37.37.265,TranslationElicitation_eng-prolific,3.2.4,Win32,60,5ea186c334f3aa036bdd1c8b,6.03000021,1,0,81,4,1,80
,,,,,,,,,,,,,,,,,,,,,,,,,,,,,,,,,,,,,,,,,,,,,,,,,,,108,ampolla,Catalan,Sounds/cat_ampolla.mp3,2020-06-05_15h37.37.265,TranslationElicitation_eng-prolific,3.2.4,Win32,60,5ea186c334f3aa036bdd1c8b,,1,0,81,4,1,80
,,,,,,,,,,,,,,,,,,,,,,,,,,,,,,,,,,,,,,,,,o,5.898999929,O,FALSE,,,,,,,156,moto,Catalan,Sounds/cat_moto.mp3,2020-06-05_15h37.37.265,TranslationElicitation_eng-prolific,3.2.4,Win32,60,5ea186c334f3aa036bdd1c8b,,1,0,81,49,1,80
,,,,,,,,,,,,,,,,,,,,,,,,,,,,,,,,,,,,,,,,,f,6.031999826,OF,FALSE,,,,,,,156,moto,Catalan,Sounds/cat_moto.mp3,2020-06-05_15h37.37.265,TranslationElicitation_eng-prolific,3.2.4,Win32,60,5ea186c334f3aa036bdd1c8b,,1,0,81,49,1,80
,,,,,,,,,,,,,,,,,,,,,,,,,,,,,,,,,,,,,,,,,t,6.599999905,OFT,FALSE,,,,,,,156,moto,Catalan,Sounds/cat_moto.mp3,2020-06-05_15h37.37.265,TranslationElicitation_eng-prolific,3.2.4,Win32,60,5ea186c334f3aa036bdd1c8b,,1,0,81,49,1,80
,,,,,,,,,,,,,,,,,,,,,,,,,,,,,,,,,,,,,,,,,e,6.797999859,OFTE,FALSE,,,,,,,156,moto,Catalan,Sounds/cat_moto.mp3,2020-06-05_15h37.37.265,TranslationElicitation_eng-prolific,3.2.4,Win32,60,5ea186c334f3aa036bdd1c8b,,1,0,81,49,1,80
,,,,,,,,,,,,,,,,,,,,,,,,,,,,,,,,,,,,,,,,,n,6.914999962,OFTEN,FALSE,,,,,,,156,moto,Catalan,Sounds/cat_moto.mp3,2020-06-05_15h37.37.265,TranslationElicitation_eng-prolific,3.2.4,Win32,60,5ea186c334f3aa036bdd1c8b,,1,0,81,49,1,80
,,,,,,,,,,,,,,,,,,,,,,,,,,,,,,,,,,,,,,,,,return,7.319999933,OFTEN,FALSE,,,,,,,156,moto,Catalan,Sounds/cat_moto.mp3,2020-06-05_15h37.37.265,TranslationElicitation_eng-prolific,3.2.4,Win32,60,5ea186c334f3aa036bdd1c8b,7.319999933,1,0,81,49,1,80
,,,,,,,,,,,,,,,,,,,,,,,,,,,,,,,,,,,,,,,,,,,,,,,,,,,156,moto,Catalan,Sounds/cat_moto.mp3,2020-06-05_15h37.37.265,TranslationElicitation_eng-prolific,3.2.4,Win32,60,5ea186c334f3aa036bdd1c8b,,1,0,81,49,1,80
,,,,,,,,,,,,,,,,,,,,,,,,,,,,,,,,,,,,,,,,,l,2.919999838,L,FALSE,,,,,,,149,llibre,Catalan,Sounds/cat_llibre.mp3,2020-06-05_15h37.37.265,TranslationElicitation_eng-prolific,3.2.4,Win32,60,5ea186c334f3aa036bdd1c8b,,1,0,81,42,1,80
,,,,,,,,,,,,,,,,,,,,,,,,,,,,,,,,,,,,,,,,,i,3.149999857,LI,FALSE,,,,,,,149,llibre,Catalan,Sounds/cat_llibre.mp3,2020-06-05_15h37.37.265,TranslationElicitation_eng-prolific,3.2.4,Win32,60,5ea186c334f3aa036bdd1c8b,,1,0,81,42,1,80
,,,,,,,,,,,,,,,,,,,,,,,,,,,,,,,,,,,,,,,,,b,3.348999977,LIB,FALSE,,,,,,,149,llibre,Catalan,Sounds/cat_llibre.mp3,2020-06-05_15h37.37.265,TranslationElicitation_eng-prolific,3.2.4,Win32,60,5ea186c334f3aa036bdd1c8b,,1,0,81,42,1,80
,,,,,,,,,,,,,,,,,,,,,,,,,,,,,,,,,,,,,,,,,r,3.45299983,LIBR,FALSE,,,,,,,149,llibre,Catalan,Sounds/cat_llibre.mp3,2020-06-05_15h37.37.265,TranslationElicitation_eng-prolific,3.2.4,Win32,60,5ea186c334f3aa036bdd1c8b,,1,0,81,42,1,80
,,,,,,,,,,,,,,,,,,,,,,,,,,,,,,,,,,,,,,,,,a,3.635999918,LIBRA,FALSE,,,,,,,149,llibre,Catalan,Sounds/cat_llibre.mp3,2020-06-05_15h37.37.265,TranslationElicitation_eng-prolific,3.2.4,Win32,60,5ea186c334f3aa036bdd1c8b,,1,0,81,42,1,80
,,,,,,,,,,,,,,,,,,,,,,,,,,,,,,,,,,,,,,,,,r,3.872999907,LIBRAR,FALSE,,,,,,,149,llibre,Catalan,Sounds/cat_llibre.mp3,2020-06-05_15h37.37.265,TranslationElicitation_eng-prolific,3.2.4,Win32,60,5ea186c334f3aa036bdd1c8b,,1,0,81,42,1,80
,,,,,,,,,,,,,,,,,,,,,,,,,,,,,,,,,,,,,,,,,y,4.004999876,LIBRARY,FALSE,,,,,,,149,llibre,Catalan,Sounds/cat_llibre.mp3,2020-06-05_15h37.37.265,TranslationElicitation_eng-prolific,3.2.4,Win32,60,5ea186c334f3aa036bdd1c8b,,1,0,81,42,1,80
,,,,,,,,,,,,,,,,,,,,,,,,,,,,,,,,,,,,,,,,,return,5.963999987,LIBRARY,FALSE,,,,,,,149,llibre,Catalan,Sounds/cat_llibre.mp3,2020-06-05_15h37.37.265,TranslationElicitation_eng-prolific,3.2.4,Win32,60,5ea186c334f3aa036bdd1c8b,5.963999987,1,0,81,42,1,80
,,,,,,,,,,,,,,,,,,,,,,,,,,,,,,,,,,,,,,,,,,,,,,,,,,,149,llibre,Catalan,Sounds/cat_llibre.mp3,2020-06-05_15h37.37.265,TranslationElicitation_eng-prolific,3.2.4,Win32,60,5ea186c334f3aa036bdd1c8b,,1,0,81,42,1,80
,,,,,,,,,,,,,,,,,,,,,,,,,,,,,,,,,,,,,,,,,l,5.86500001,L,FALSE,,,,,,,138,galeta,Catalan,Sounds/cat_galeta.mp3,2020-06-05_15h37.37.265,TranslationElicitation_eng-prolific,3.2.4,Win32,60,5ea186c334f3aa036bdd1c8b,,1,0,81,32,1,80
,,,,,,,,,,,,,,,,,,,,,,,,,,,,,,,,,,,,,,,,,i,6.047999859,LI,FALSE,,,,,,,138,galeta,Catalan,Sounds/cat_galeta.mp3,2020-06-05_15h37.37.265,TranslationElicitation_eng-prolific,3.2.4,Win32,60,5ea186c334f3aa036bdd1c8b,,1,0,81,32,1,80
,,,,,,,,,,,,,,,,,,,,,,,,,,,,,,,,,,,,,,,,,z,6.198999882,LIZ,FALSE,,,,,,,138,galeta,Catalan,Sounds/cat_galeta.mp3,2020-06-05_15h37.37.265,TranslationElicitation_eng-prolific,3.2.4,Win32,60,5ea186c334f3aa036bdd1c8b,,1,0,81,32,1,80
,,,,,,,,,,,,,,,,,,,,,,,,,,,,,,,,,,,,,,,,,a,6.414999962,LIZA,FALSE,,,,,,,138,galeta,Catalan,Sounds/cat_galeta.mp3,2020-06-05_15h37.37.265,TranslationElicitation_eng-prolific,3.2.4,Win32,60,5ea186c334f3aa036bdd1c8b,,1,0,81,32,1,80
,,,,,,,,,,,,,,,,,,,,,,,,,,,,,,,,,,,,,,,,,r,6.648000002,LIZAR,FALSE,,,,,,,138,galeta,Catalan,Sounds/cat_galeta.mp3,2020-06-05_15h37.37.265,TranslationElicitation_eng-prolific,3.2.4,Win32,60,5ea186c334f3aa036bdd1c8b,,1,0,81,32,1,80
,,,,,,,,,,,,,,,,,,,,,,,,,,,,,,,,,,,,,,,,,d,6.797999859,LIZARD,FALSE,,,,,,,138,galeta,Catalan,Sounds/cat_galeta.mp3,2020-06-05_15h37.37.265,TranslationElicitation_eng-prolific,3.2.4,Win32,60,5ea186c334f3aa036bdd1c8b,,1,0,81,32,1,80
,,,,,,,,,,,,,,,,,,,,,,,,,,,,,,,,,,,,,,,,,return,7.148000002,LIZARD,FALSE,,,,,,,138,galeta,Catalan,Sounds/cat_galeta.mp3,2020-06-05_15h37.37.265,TranslationElicitation_eng-prolific,3.2.4,Win32,60,5ea186c334f3aa036bdd1c8b,7.148000002,1,0,81,32,1,80
,,,,,,,,,,,,,,,,,,,,,,,,,,,,,,,,,,,,,,,,,,,,,,,,,,,138,galeta,Catalan,Sounds/cat_galeta.mp3,2020-06-05_15h37.37.265,TranslationElicitation_eng-prolific,3.2.4,Win32,60,5ea186c334f3aa036bdd1c8b,,1,0,81,32,1,80
,,,,,,,,,,,,,,,,,,,,,,,,,,,,,,,,,,,,,,,,,b,39.4519999,B,FALSE,,,,,,,114,bol,Catalan,Sounds/cat_bol.mp3,2020-06-05_15h37.37.265,TranslationElicitation_eng-prolific,3.2.4,Win32,60,5ea186c334f3aa036bdd1c8b,,1,0,81,9,1,80
,,,,,,,,,,,,,,,,,,,,,,,,,,,,,,,,,,,,,,,,,a,60.91799998,BA,FALSE,,,,,,,114,bol,Catalan,Sounds/cat_bol.mp3,2020-06-05_15h37.37.265,TranslationElicitation_eng-prolific,3.2.4,Win32,60,5ea186c334f3aa036bdd1c8b,,1,0,81,9,1,80
,,,,,,,,,,,,,,,,,,,,,,,,,,,,,,,,,,,,,,,,,a,61.30499983,BAA,FALSE,,,,,,,114,bol,Catalan,Sounds/cat_bol.mp3,2020-06-05_15h37.37.265,TranslationElicitation_eng-prolific,3.2.4,Win32,60,5ea186c334f3aa036bdd1c8b,,1,0,81,9,1,80
,,,,,,,,,,,,,,,,,,,,,,,,,,,,,,,,,,,,,,,,,backspace,62.09299994,BA,TRUE,,,,,,,114,bol,Catalan,Sounds/cat_bol.mp3,2020-06-05_15h37.37.265,TranslationElicitation_eng-prolific,3.2.4,Win32,60,5ea186c334f3aa036bdd1c8b,,1,0,81,9,1,80
,,,,,,,,,,,,,,,,,,,,,,,,,,,,,,,,,,,,,,,,,l,62.87599993,BAL,TRUE,,,,,,,114,bol,Catalan,Sounds/cat_bol.mp3,2020-06-05_15h37.37.265,TranslationElicitation_eng-prolific,3.2.4,Win32,60,5ea186c334f3aa036bdd1c8b,,1,0,81,9,1,80
,,,,,,,,,,,,,,,,,,,,,,,,,,,,,,,,,,,,,,,,,l,62.98799992,BALL,TRUE,,,,,,,114,bol,Catalan,Sounds/cat_bol.mp3,2020-06-05_15h37.37.265,TranslationElicitation_eng-prolific,3.2.4,Win32,60,5ea186c334f3aa036bdd1c8b,,1,0,81,9,1,80
,,,,,,,,,,,,,,,,,,,,,,,,,,,,,,,,,,,,,,,,,return,63.47299981,BALL,TRUE,,,,,,,114,bol,Catalan,Sounds/cat_bol.mp3,2020-06-05_15h37.37.265,TranslationElicitation_eng-prolific,3.2.4,Win32,60,5ea186c334f3aa036bdd1c8b,63.47299981,1,0,81,9,1,80
,,,,,,,,,,,,,,,,,,,,,,,,,,,,,,,,,,,,,,,,,,,,,,,,,,,114,bol,Catalan,Sounds/cat_bol.mp3,2020-06-05_15h37.37.265,TranslationElicitation_eng-prolific,3.2.4,Win32,60,5ea186c334f3aa036bdd1c8b,,1,0,81,9,1,80
,,,,,,,,,,,,,,,,,,,,,,,,,,,,,,,,,,,,,,,,,d,5.822999954,D,FALSE,,,,,,,180,tisores,Catalan,Sounds/cat_tisores.mp3,2020-06-05_15h37.37.265,TranslationElicitation_eng-prolific,3.2.4,Win32,60,5ea186c334f3aa036bdd1c8b,,1,0,81,71,1,80
,,,,,,,,,,,,,,,,,,,,,,,,,,,,,,,,,,,,,,,,,i,5.914999962,DI,FALSE,,,,,,,180,tisores,Catalan,Sounds/cat_tisores.mp3,2020-06-05_15h37.37.265,TranslationElicitation_eng-prolific,3.2.4,Win32,60,5ea186c334f3aa036bdd1c8b,,1,0,81,71,1,80
,,,,,,,,,,,,,,,,,,,,,,,,,,,,,,,,,,,,,,,,,d,6.133000135,DID,FALSE,,,,,,,180,tisores,Catalan,Sounds/cat_tisores.mp3,2020-06-05_15h37.37.265,TranslationElicitation_eng-prolific,3.2.4,Win32,60,5ea186c334f3aa036bdd1c8b,,1,0,81,71,1,80
,,,,,,,,,,,,,,,,,,,,,,,,,,,,,,,,,,,,,,,,,space,6.46600008,DID ,FALSE,,,,,,,180,tisores,Catalan,Sounds/cat_tisores.mp3,2020-06-05_15h37.37.265,TranslationElicitation_eng-prolific,3.2.4,Win32,60,5ea186c334f3aa036bdd1c8b,,1,0,81,71,1,80
,,,,,,,,,,,,,,,,,,,,,,,,,,,,,,,,,,,,,,,,,n,6.56400013,DID N,FALSE,,,,,,,180,tisores,Catalan,Sounds/cat_tisores.mp3,2020-06-05_15h37.37.265,TranslationElicitation_eng-prolific,3.2.4,Win32,60,5ea186c334f3aa036bdd1c8b,,1,0,81,71,1,80
,,,,,,,,,,,,,,,,,,,,,,,,,,,,,,,,,,,,,,,,,o,6.838000059,DID NO,FALSE,,,,,,,180,tisores,Catalan,Sounds/cat_tisores.mp3,2020-06-05_15h37.37.265,TranslationElicitation_eng-prolific,3.2.4,Win32,60,5ea186c334f3aa036bdd1c8b,,1,0,81,71,1,80
,,,,,,,,,,,,,,,,,,,,,,,,,,,,,,,,,,,,,,,,,t,6.898999929,DID NOT,FALSE,,,,,,,180,tisores,Catalan,Sounds/cat_tisores.mp3,2020-06-05_15h37.37.265,TranslationElicitation_eng-prolific,3.2.4,Win32,60,5ea186c334f3aa036bdd1c8b,,1,0,81,71,1,80
,,,,,,,,,,,,,,,,,,,,,,,,,,,,,,,,,,,,,,,,,space,7.055000067,DID NOT ,FALSE,,,,,,,180,tisores,Catalan,Sounds/cat_tisores.mp3,2020-06-05_15h37.37.265,TranslationElicitation_eng-prolific,3.2.4,Win32,60,5ea186c334f3aa036bdd1c8b,,1,0,81,71,1,80
,,,,,,,,,,,,,,,,,,,,,,,,,,,,,,,,,,,,,,,,,h,7.387000084,DID NOT H,FALSE,,,,,,,180,tisores,Catalan,Sounds/cat_tisores.mp3,2020-06-05_15h37.37.265,TranslationElicitation_eng-prolific,3.2.4,Win32,60,5ea186c334f3aa036bdd1c8b,,1,0,81,71,1,80
,,,,,,,,,,,,,,,,,,,,,,,,,,,,,,,,,,,,,,,,,e,7.559999943,DID NOT HE,FALSE,,,,,,,180,tisores,Catalan,Sounds/cat_tisores.mp3,2020-06-05_15h37.37.265,TranslationElicitation_eng-prolific,3.2.4,Win32,60,5ea186c334f3aa036bdd1c8b,,1,0,81,71,1,80
,,,,,,,,,,,,,,,,,,,,,,,,,,,,,,,,,,,,,,,,,a,7.697000027,DID NOT HEA,FALSE,,,,,,,180,tisores,Catalan,Sounds/cat_tisores.mp3,2020-06-05_15h37.37.265,TranslationElicitation_eng-prolific,3.2.4,Win32,60,5ea186c334f3aa036bdd1c8b,,1,0,81,71,1,80
,,,,,,,,,,,,,,,,,,,,,,,,,,,,,,,,,,,,,,,,,r,8.023000002,DID NOT HEAR,FALSE,,,,,,,180,tisores,Catalan,Sounds/cat_tisores.mp3,2020-06-05_15h37.37.265,TranslationElicitation_eng-prolific,3.2.4,Win32,60,5ea186c334f3aa036bdd1c8b,,1,0,81,71,1,80
,,,,,,,,,,,,,,,,,,,,,,,,,,,,,,,,,,,,,,,,,space,8.430000067,DID NOT HEAR ,FALSE,,,,,,,180,tisores,Catalan,Sounds/cat_tisores.mp3,2020-06-05_15h37.37.265,TranslationElicitation_eng-prolific,3.2.4,Win32,60,5ea186c334f3aa036bdd1c8b,,1,0,81,71,1,80
,,,,,,,,,,,,,,,,,,,,,,,,,,,,,,,,,,,,,,,,,a,8.730000019,DID NOT HEAR A,FALSE,,,,,,,180,tisores,Catalan,Sounds/cat_tisores.mp3,2020-06-05_15h37.37.265,TranslationElicitation_eng-prolific,3.2.4,Win32,60,5ea186c334f3aa036bdd1c8b,,1,0,81,71,1,80
,,,,,,,,,,,,,,,,,,,,,,,,,,,,,,,,,,,,,,,,,u,9.135999918,DID NOT HEAR AU,FALSE,,,,,,,180,tisores,Catalan,Sounds/cat_tisores.mp3,2020-06-05_15h37.37.265,TranslationElicitation_eng-prolific,3.2.4,Win32,60,5ea186c334f3aa036bdd1c8b,,1,0,81,71,1,80
,,,,,,,,,,,,,,,,,,,,,,,,,,,,,,,,,,,,,,,,,s,9.437999964,DID NOT HEAR AUS,FALSE,,,,,,,180,tisores,Catalan,Sounds/cat_tisores.mp3,2020-06-05_15h37.37.265,TranslationElicitation_eng-prolific,3.2.4,Win32,60,5ea186c334f3aa036bdd1c8b,,1,0,81,71,1,80
,,,,,,,,,,,,,,,,,,,,,,,,,,,,,,,,,,,,,,,,,i,9.48300004,DID NOT HEAR AUSI,FALSE,,,,,,,180,tisores,Catalan,Sounds/cat_tisores.mp3,2020-06-05_15h37.37.265,TranslationElicitation_eng-prolific,3.2.4,Win32,60,5ea186c334f3aa036bdd1c8b,,1,0,81,71,1,80
,,,,,,,,,,,,,,,,,,,,,,,,,,,,,,,,,,,,,,,,,backspace,9.953000069,DID NOT HEAR AUS,TRUE,,,,,,,180,tisores,Catalan,Sounds/cat_tisores.mp3,2020-06-05_15h37.37.265,TranslationElicitation_eng-prolific,3.2.4,Win32,60,5ea186c334f3aa036bdd1c8b,,1,0,81,71,1,80
,,,,,,,,,,,,,,,,,,,,,,,,,,,,,,,,,,,,,,,,,backspace,10.07500005,DID NOT HEAR AU,TRUE,,,,,,,180,tisores,Catalan,Sounds/cat_tisores.mp3,2020-06-05_15h37.37.265,TranslationElicitation_eng-prolific,3.2.4,Win32,60,5ea186c334f3aa036bdd1c8b,,1,0,81,71,1,80
,,,,,,,,,,,,,,,,,,,,,,,,,,,,,,,,,,,,,,,,,d,10.30299997,DID NOT HEAR AUD,TRUE,,,,,,,180,tisores,Catalan,Sounds/cat_tisores.mp3,2020-06-05_15h37.37.265,TranslationElicitation_eng-prolific,3.2.4,Win32,60,5ea186c334f3aa036bdd1c8b,,1,0,81,71,1,80
,,,,,,,,,,,,,,,,,,,,,,,,,,,,,,,,,,,,,,,,,i,10.46600008,DID NOT HEAR AUDI,TRUE,,,,,,,180,tisores,Catalan,Sounds/cat_tisores.mp3,2020-06-05_15h37.37.265,TranslationElicitation_eng-prolific,3.2.4,Win32,60,5ea186c334f3aa036bdd1c8b,,1,0,81,71,1,80
,,,,,,,,,,,,,,,,,,,,,,,,,,,,,,,,,,,,,,,,,o,10.73099995,DID NOT HEAR AUDIO,TRUE,,,,,,,180,tisores,Catalan,Sounds/cat_tisores.mp3,2020-06-05_15h37.37.265,TranslationElicitation_eng-prolific,3.2.4,Win32,60,5ea186c334f3aa036bdd1c8b,,1,0,81,71,1,80
,,,,,,,,,,,,,,,,,,,,,,,,,,,,,,,,,,,,,,,,,return,11.88899994,DID NOT HEAR AUDIO,TRUE,,,,,,,180,tisores,Catalan,Sounds/cat_tisores.mp3,2020-06-05_15h37.37.265,TranslationElicitation_eng-prolific,3.2.4,Win32,60,5ea186c334f3aa036bdd1c8b,11.88899994,1,0,81,71,1,80
,,,,,,,,,,,,,,,,,,,,,,,,,,,,,,,,,,,,,,,,,,,,,,,,,,,180,tisores,Catalan,Sounds/cat_tisores.mp3,2020-06-05_15h37.37.265,TranslationElicitation_eng-prolific,3.2.4,Win32,60,5ea186c334f3aa036bdd1c8b,,1,0,81,71,1,80
,,,,,,,,,,,,,,,,,,,,,,,,,,,,,,,,,,,,,,,,,w,2.778000116,W,FALSE,,,,,,,186,ungla,Catalan,Sounds/cat_ungla.mp3,2020-06-05_15h37.37.265,TranslationElicitation_eng-prolific,3.2.4,Win32,60,5ea186c334f3aa036bdd1c8b,,1,0,81,77,1,80
,,,,,,,,,,,,,,,,,,,,,,,,,,,,,,,,,,,,,,,,,i,2.861000061,WI,FALSE,,,,,,,186,ungla,Catalan,Sounds/cat_ungla.mp3,2020-06-05_15h37.37.265,TranslationElicitation_eng-prolific,3.2.4,Win32,60,5ea186c334f3aa036bdd1c8b,,1,0,81,77,1,80
,,,,,,,,,,,,,,,,,,,,,,,,,,,,,,,,,,,,,,,,,n,3.010999918,WIN,FALSE,,,,,,,186,ungla,Catalan,Sounds/cat_ungla.mp3,2020-06-05_15h37.37.265,TranslationElicitation_eng-prolific,3.2.4,Win32,60,5ea186c334f3aa036bdd1c8b,,1,0,81,77,1,80
,,,,,,,,,,,,,,,,,,,,,,,,,,,,,,,,,,,,,,,,,d,3.078000069,WIND,FALSE,,,,,,,186,ungla,Catalan,Sounds/cat_ungla.mp3,2020-06-05_15h37.37.265,TranslationElicitation_eng-prolific,3.2.4,Win32,60,5ea186c334f3aa036bdd1c8b,,1,0,81,77,1,80
,,,,,,,,,,,,,,,,,,,,,,,,,,,,,,,,,,,,,,,,,o,3.245000124,WINDO,FALSE,,,,,,,186,ungla,Catalan,Sounds/cat_ungla.mp3,2020-06-05_15h37.37.265,TranslationElicitation_eng-prolific,3.2.4,Win32,60,5ea186c334f3aa036bdd1c8b,,1,0,81,77,1,80
,,,,,,,,,,,,,,,,,,,,,,,,,,,,,,,,,,,,,,,,,w,3.345000029,WINDOW,FALSE,,,,,,,186,ungla,Catalan,Sounds/cat_ungla.mp3,2020-06-05_15h37.37.265,TranslationElicitation_eng-prolific,3.2.4,Win32,60,5ea186c334f3aa036bdd1c8b,,1,0,81,77,1,80
,,,,,,,,,,,,,,,,,,,,,,,,,,,,,,,,,,,,,,,,,return,3.760999918,WINDOW,FALSE,,,,,,,186,ungla,Catalan,Sounds/cat_ungla.mp3,2020-06-05_15h37.37.265,TranslationElicitation_eng-prolific,3.2.4,Win32,60,5ea186c334f3aa036bdd1c8b,3.760999918,1,0,81,77,1,80
,,,,,,,,,,,,,,,,,,,,,,,,,,,,,,,,,,,,,,,,,,,,,,,,,,,186,ungla,Catalan,Sounds/cat_ungla.mp3,2020-06-05_15h37.37.265,TranslationElicitation_eng-prolific,3.2.4,Win32,60,5ea186c334f3aa036bdd1c8b,,1,0,81,77,1,80
,,,,,,,,,,,,,,,,,,,,,,,,,,,,,,,,,,,,,,,,,p,8.858999968,P,FALSE,,,,,,,139,galleda,Catalan,Sounds/cat_galleda.mp3,2020-06-05_15h37.37.265,TranslationElicitation_eng-prolific,3.2.4,Win32,60,5ea186c334f3aa036bdd1c8b,,1,0,81,33,1,80
,,,,,,,,,,,,,,,,,,,,,,,,,,,,,,,,,,,,,,,,,o,10.86100006,PO,FALSE,,,,,,,139,galleda,Catalan,Sounds/cat_galleda.mp3,2020-06-05_15h37.37.265,TranslationElicitation_eng-prolific,3.2.4,Win32,60,5ea186c334f3aa036bdd1c8b,,1,0,81,33,1,80
,,,,,,,,,,,,,,,,,,,,,,,,,,,,,,,,,,,,,,,,,s,11.04500008,POS,FALSE,,,,,,,139,galleda,Catalan,Sounds/cat_galleda.mp3,2020-06-05_15h37.37.265,TranslationElicitation_eng-prolific,3.2.4,Win32,60,5ea186c334f3aa036bdd1c8b,,1,0,81,33,1,80
,,,,,,,,,,,,,,,,,,,,,,,,,,,,,,,,,,,,,,,,,t,11.37800002,POST,FALSE,,,,,,,139,galleda,Catalan,Sounds/cat_galleda.mp3,2020-06-05_15h37.37.265,TranslationElicitation_eng-prolific,3.2.4,Win32,60,5ea186c334f3aa036bdd1c8b,,1,0,81,33,1,80
,,,,,,,,,,,,,,,,,,,,,,,,,,,,,,,,,,,,,,,,,return,14.14400005,POST,FALSE,,,,,,,139,galleda,Catalan,Sounds/cat_galleda.mp3,2020-06-05_15h37.37.265,TranslationElicitation_eng-prolific,3.2.4,Win32,60,5ea186c334f3aa036bdd1c8b,14.14400005,1,0,81,33,1,80
,,,,,,,,,,,,,,,,,,,,,,,,,,,,,,,,,,,,,,,,,,,,,,,,,,,139,galleda,Catalan,Sounds/cat_galleda.mp3,2020-06-05_15h37.37.265,TranslationElicitation_eng-prolific,3.2.4,Win32,60,5ea186c334f3aa036bdd1c8b,,1,0,81,33,1,80
,,,,,,,,,,,,,,,,,,,,,,,,,,,,,,,,,,,,,,,,,c,5.31400013,C,FALSE,,,,,,,183,tren,Catalan,Sounds/cat_tren.mp3,2020-06-05_15h37.37.265,TranslationElicitation_eng-prolific,3.2.4,Win32,60,5ea186c334f3aa036bdd1c8b,,1,0,81,74,1,80
,,,,,,,,,,,,,,,,,,,,,,,,,,,,,,,,,,,,,,,,,s,5.771000147,CS,FALSE,,,,,,,183,tren,Catalan,Sounds/cat_tren.mp3,2020-06-05_15h37.37.265,TranslationElicitation_eng-prolific,3.2.4,Win32,60,5ea186c334f3aa036bdd1c8b,,1,0,81,74,1,80
,,,,,,,,,,,,,,,,,,,,,,,,,,,,,,,,,,,,,,,,,backspace,6.519999981,C,TRUE,,,,,,,183,tren,Catalan,Sounds/cat_tren.mp3,2020-06-05_15h37.37.265,TranslationElicitation_eng-prolific,3.2.4,Win32,60,5ea186c334f3aa036bdd1c8b,,1,0,81,74,1,80
,,,,,,,,,,,,,,,,,,,,,,,,,,,,,,,,,,,,,,,,,a,7.086000204,CA,TRUE,,,,,,,183,tren,Catalan,Sounds/cat_tren.mp3,2020-06-05_15h37.37.265,TranslationElicitation_eng-prolific,3.2.4,Win32,60,5ea186c334f3aa036bdd1c8b,,1,0,81,74,1,80
,,,,,,,,,,,,,,,,,,,,,,,,,,,,,,,,,,,,,,,,,t,7.398000002,CAT,TRUE,,,,,,,183,tren,Catalan,Sounds/cat_tren.mp3,2020-06-05_15h37.37.265,TranslationElicitation_eng-prolific,3.2.4,Win32,60,5ea186c334f3aa036bdd1c8b,,1,0,81,74,1,80
,,,,,,,,,,,,,,,,,,,,,,,,,,,,,,,,,,,,,,,,,return,43.08500004,CAT,TRUE,,,,,,,183,tren,Catalan,Sounds/cat_tren.mp3,2020-06-05_15h37.37.265,TranslationElicitation_eng-prolific,3.2.4,Win32,60,5ea186c334f3aa036bdd1c8b,43.08500004,1,0,81,74,1,80
,,,,,,,,,,,,,,,,,,,,,,,,,,,,,,,,,,,,,,,,,,,,,,,,,,,183,tren,Catalan,Sounds/cat_tren.mp3,2020-06-05_15h37.37.265,TranslationElicitation_eng-prolific,3.2.4,Win32,60,5ea186c334f3aa036bdd1c8b,,1,0,81,74,1,80
,,,,,,,,,,,,,,,,,,,,,,,,,,,,,,,,,,,,,,,,,b,7.301000118,B,FALSE,,,,,,,118,bou,Catalan,Sounds/cat_bou.mp3,2020-06-05_15h37.37.265,TranslationElicitation_eng-prolific,3.2.4,Win32,60,5ea186c334f3aa036bdd1c8b,,1,0,81,13,1,80
,,,,,,,,,,,,,,,,,,,,,,,,,,,,,,,,,,,,,,,,,a,9.340000153,BA,FALSE,,,,,,,118,bou,Catalan,Sounds/cat_bou.mp3,2020-06-05_15h37.37.265,TranslationElicitation_eng-prolific,3.2.4,Win32,60,5ea186c334f3aa036bdd1c8b,,1,0,81,13,1,80
,,,,,,,,,,,,,,,,,,,,,,,,,,,,,,,,,,,,,,,,,l,10.97900009,BAL,FALSE,,,,,,,118,bou,Catalan,Sounds/cat_bou.mp3,2020-06-05_15h37.37.265,TranslationElicitation_eng-prolific,3.2.4,Win32,60,5ea186c334f3aa036bdd1c8b,,1,0,81,13,1,80
,,,,,,,,,,,,,,,,,,,,,,,,,,,,,,,,,,,,,,,,,l,11.85100007,BALL,FALSE,,,,,,,118,bou,Catalan,Sounds/cat_bou.mp3,2020-06-05_15h37.37.265,TranslationElicitation_eng-prolific,3.2.4,Win32,60,5ea186c334f3aa036bdd1c8b,,1,0,81,13,1,80
,,,,,,,,,,,,,,,,,,,,,,,,,,,,,,,,,,,,,,,,,o,12.32800007,BALLO,FALSE,,,,,,,118,bou,Catalan,Sounds/cat_bou.mp3,2020-06-05_15h37.37.265,TranslationElicitation_eng-prolific,3.2.4,Win32,60,5ea186c334f3aa036bdd1c8b,,1,0,81,13,1,80
,,,,,,,,,,,,,,,,,,,,,,,,,,,,,,,,,,,,,,,,,o,12.62100005,BALLOO,FALSE,,,,,,,118,bou,Catalan,Sounds/cat_bou.mp3,2020-06-05_15h37.37.265,TranslationElicitation_eng-prolific,3.2.4,Win32,60,5ea186c334f3aa036bdd1c8b,,1,0,81,13,1,80
,,,,,,,,,,,,,,,,,,,,,,,,,,,,,,,,,,,,,,,,,n,12.98100019,BALLOON,FALSE,,,,,,,118,bou,Catalan,Sounds/cat_bou.mp3,2020-06-05_15h37.37.265,TranslationElicitation_eng-prolific,3.2.4,Win32,60,5ea186c334f3aa036bdd1c8b,,1,0,81,13,1,80
,,,,,,,,,,,,,,,,,,,,,,,,,,,,,,,,,,,,,,,,,return,13.46099997,BALLOON,FALSE,,,,,,,118,bou,Catalan,Sounds/cat_bou.mp3,2020-06-05_15h37.37.265,TranslationElicitation_eng-prolific,3.2.4,Win32,60,5ea186c334f3aa036bdd1c8b,13.46099997,1,0,81,13,1,80
,,,,,,,,,,,,,,,,,,,,,,,,,,,,,,,,,,,,,,,,,,,,,,,,,,,118,bou,Catalan,Sounds/cat_bou.mp3,2020-06-05_15h37.37.265,TranslationElicitation_eng-prolific,3.2.4,Win32,60,5ea186c334f3aa036bdd1c8b,,1,0,81,13,1,80
,,,,,,,,,,,,,,,,,,,,,,,,,,,,,,,,,,,,,,,,,h,8.463999987,H,FALSE,,,,,,,144,gorra,Catalan,Sounds/cat_gorra.mp3,2020-06-05_15h37.37.265,TranslationElicitation_eng-prolific,3.2.4,Win32,60,5ea186c334f3aa036bdd1c8b,,1,0,81,38,1,80
,,,,,,,,,,,,,,,,,,,,,,,,,,,,,,,,,,,,,,,,,o,9.980000019,HO,FALSE,,,,,,,144,gorra,Catalan,Sounds/cat_gorra.mp3,2020-06-05_15h37.37.265,TranslationElicitation_eng-prolific,3.2.4,Win32,60,5ea186c334f3aa036bdd1c8b,,1,0,81,38,1,80
,,,,,,,,,,,,,,,,,,,,,,,,,,,,,,,,,,,,,,,,,r,10.74499989,HOR,FALSE,,,,,,,144,gorra,Catalan,Sounds/cat_gorra.mp3,2020-06-05_15h37.37.265,TranslationElicitation_eng-prolific,3.2.4,Win32,60,5ea186c334f3aa036bdd1c8b,,1,0,81,38,1,80
,,,,,,,,,,,,,,,,,,,,,,,,,,,,,,,,,,,,,,,,,s,11.21300006,HORS,FALSE,,,,,,,144,gorra,Catalan,Sounds/cat_gorra.mp3,2020-06-05_15h37.37.265,TranslationElicitation_eng-prolific,3.2.4,Win32,60,5ea186c334f3aa036bdd1c8b,,1,0,81,38,1,80
,,,,,,,,,,,,,,,,,,,,,,,,,,,,,,,,,,,,,,,,,e,11.6960001,HORSE,FALSE,,,,,,,144,gorra,Catalan,Sounds/cat_gorra.mp3,2020-06-05_15h37.37.265,TranslationElicitation_eng-prolific,3.2.4,Win32,60,5ea186c334f3aa036bdd1c8b,,1,0,81,38,1,80
,,,,,,,,,,,,,,,,,,,,,,,,,,,,,,,,,,,,,,,,,return,12.37899995,HORSE,FALSE,,,,,,,144,gorra,Catalan,Sounds/cat_gorra.mp3,2020-06-05_15h37.37.265,TranslationElicitation_eng-prolific,3.2.4,Win32,60,5ea186c334f3aa036bdd1c8b,12.37899995,1,0,81,38,1,80
,,,,,,,,,,,,,,,,,,,,,,,,,,,,,,,,,,,,,,,,,,,,,,,,,,,144,gorra,Catalan,Sounds/cat_gorra.mp3,2020-06-05_15h37.37.265,TranslationElicitation_eng-prolific,3.2.4,Win32,60,5ea186c334f3aa036bdd1c8b,,1,0,81,38,1,80
,,,,,,,,,,,,,,,,,,,,,,,,,,,,,,,,,,,,,,,,,b,4.23300004,B,FALSE,,,,,,,131,esponja,Catalan,Sounds/cat_esponja.mp3,2020-06-05_15h37.37.265,TranslationElicitation_eng-prolific,3.2.4,Win32,60,5ea186c334f3aa036bdd1c8b,,1,0,81,25,1,80
,,,,,,,,,,,,,,,,,,,,,,,,,,,,,,,,,,,,,,,,,a,4.792999983,BA,FALSE,,,,,,,131,esponja,Catalan,Sounds/cat_esponja.mp3,2020-06-05_15h37.37.265,TranslationElicitation_eng-prolific,3.2.4,Win32,60,5ea186c334f3aa036bdd1c8b,,1,0,81,25,1,80
,,,,,,,,,,,,,,,,,,,,,,,,,,,,,,,,,,,,,,,,,t,5.166000128,BAT,FALSE,,,,,,,131,esponja,Catalan,Sounds/cat_esponja.mp3,2020-06-05_15h37.37.265,TranslationElicitation_eng-prolific,3.2.4,Win32,60,5ea186c334f3aa036bdd1c8b,,1,0,81,25,1,80
,,,,,,,,,,,,,,,,,,,,,,,,,,,,,,,,,,,,,,,,,h,5.532000065,BATH,FALSE,,,,,,,131,esponja,Catalan,Sounds/cat_esponja.mp3,2020-06-05_15h37.37.265,TranslationElicitation_eng-prolific,3.2.4,Win32,60,5ea186c334f3aa036bdd1c8b,,1,0,81,25,1,80
,,,,,,,,,,,,,,,,,,,,,,,,,,,,,,,,,,,,,,,,,return,6.181999922,BATH,FALSE,,,,,,,131,esponja,Catalan,Sounds/cat_esponja.mp3,2020-06-05_15h37.37.265,TranslationElicitation_eng-prolific,3.2.4,Win32,60,5ea186c334f3aa036bdd1c8b,6.181999922,1,0,81,25,1,80
,,,,,,,,,,,,,,,,,,,,,,,,,,,,,,,,,,,,,,,,,,,,,,,,,,,131,esponja,Catalan,Sounds/cat_esponja.mp3,2020-06-05_15h37.37.265,TranslationElicitation_eng-prolific,3.2.4,Win32,60,5ea186c334f3aa036bdd1c8b,,1,0,81,25,1,80
,,,,,,,,,,,,,,,,,,,,,,,,,,,,,,,,,,,,,,,,,g,13.71700001,G,FALSE,,,,,,,177,sol,Catalan,Sounds/cat_sol.mp3,2020-06-05_15h37.37.265,TranslationElicitation_eng-prolific,3.2.4,Win32,60,5ea186c334f3aa036bdd1c8b,,1,0,81,69,1,80
,,,,,,,,,,,,,,,,,,,,,,,,,,,,,,,,,,,,,,,,,a,14.48200011,GA,FALSE,,,,,,,177,sol,Catalan,Sounds/cat_sol.mp3,2020-06-05_15h37.37.265,TranslationElicitation_eng-prolific,3.2.4,Win32,60,5ea186c334f3aa036bdd1c8b,,1,0,81,69,1,80
,,,,,,,,,,,,,,,,,,,,,,,,,,,,,,,,,,,,,,,,,r,14.98500013,GAR,FALSE,,,,,,,177,sol,Catalan,Sounds/cat_sol.mp3,2020-06-05_15h37.37.265,TranslationElicitation_eng-prolific,3.2.4,Win32,60,5ea186c334f3aa036bdd1c8b,,1,0,81,69,1,80
,,,,,,,,,,,,,,,,,,,,,,,,,,,,,,,,,,,,,,,,,d,15.3210001,GARD,FALSE,,,,,,,177,sol,Catalan,Sounds/cat_sol.mp3,2020-06-05_15h37.37.265,TranslationElicitation_eng-prolific,3.2.4,Win32,60,5ea186c334f3aa036bdd1c8b,,1,0,81,69,1,80
,,,,,,,,,,,,,,,,,,,,,,,,,,,,,,,,,,,,,,,,,e,15.76200008,GARDE,FALSE,,,,,,,177,sol,Catalan,Sounds/cat_sol.mp3,2020-06-05_15h37.37.265,TranslationElicitation_eng-prolific,3.2.4,Win32,60,5ea186c334f3aa036bdd1c8b,,1,0,81,69,1,80
,,,,,,,,,,,,,,,,,,,,,,,,,,,,,,,,,,,,,,,,,n,16.15700006,GARDEN,FALSE,,,,,,,177,sol,Catalan,Sounds/cat_sol.mp3,2020-06-05_15h37.37.265,TranslationElicitation_eng-prolific,3.2.4,Win32,60,5ea186c334f3aa036bdd1c8b,,1,0,81,69,1,80
,,,,,,,,,,,,,,,,,,,,,,,,,,,,,,,,,,,,,,,,,return,16.85500002,GARDEN,FALSE,,,,,,,177,sol,Catalan,Sounds/cat_sol.mp3,2020-06-05_15h37.37.265,TranslationElicitation_eng-prolific,3.2.4,Win32,60,5ea186c334f3aa036bdd1c8b,16.85500002,1,0,81,69,1,80
,,,,,,,,,,,,,,,,,,,,,,,,,,,,,,,,,,,,,,,,,,,,,,,,,,,177,sol,Catalan,Sounds/cat_sol.mp3,2020-06-05_15h37.37.265,TranslationElicitation_eng-prolific,3.2.4,Win32,60,5ea186c334f3aa036bdd1c8b,,1,0,81,69,1,80
,,,,,,,,,,,,,,,,,,,,,,,,,,,,,,,,,,,,,,,,,p,3.000999928,P,FALSE,,,,,,,135,formiga,Catalan,Sounds/cat_formiga.mp3,2020-06-05_15h37.37.265,TranslationElicitation_eng-prolific,3.2.4,Win32,60,5ea186c334f3aa036bdd1c8b,,1,0,81,29,1,80
,,,,,,,,,,,,,,,,,,,,,,,,,,,,,,,,,,,,,,,,,e,3.584000111,PE,FALSE,,,,,,,135,formiga,Catalan,Sounds/cat_formiga.mp3,2020-06-05_15h37.37.265,TranslationElicitation_eng-prolific,3.2.4,Win32,60,5ea186c334f3aa036bdd1c8b,,1,0,81,29,1,80
,,,,,,,,,,,,,,,,,,,,,,,,,,,,,,,,,,,,,,,,,r,3.967999935,PER,FALSE,,,,,,,135,formiga,Catalan,Sounds/cat_formiga.mp3,2020-06-05_15h37.37.265,TranslationElicitation_eng-prolific,3.2.4,Win32,60,5ea186c334f3aa036bdd1c8b,,1,0,81,29,1,80
,,,,,,,,,,,,,,,,,,,,,,,,,,,,,,,,,,,,,,,,,m,4.429000139,PERM,FALSE,,,,,,,135,formiga,Catalan,Sounds/cat_formiga.mp3,2020-06-05_15h37.37.265,TranslationElicitation_eng-prolific,3.2.4,Win32,60,5ea186c334f3aa036bdd1c8b,,1,0,81,29,1,80
,,,,,,,,,,,,,,,,,,,,,,,,,,,,,,,,,,,,,,,,,i,4.636000156,PERMI,FALSE,,,,,,,135,formiga,Catalan,Sounds/cat_formiga.mp3,2020-06-05_15h37.37.265,TranslationElicitation_eng-prolific,3.2.4,Win32,60,5ea186c334f3aa036bdd1c8b,,1,0,81,29,1,80
,,,,,,,,,,,,,,,,,,,,,,,,,,,,,,,,,,,,,,,,,s,4.962000132,PERMIS,FALSE,,,,,,,135,formiga,Catalan,Sounds/cat_formiga.mp3,2020-06-05_15h37.37.265,TranslationElicitation_eng-prolific,3.2.4,Win32,60,5ea186c334f3aa036bdd1c8b,,1,0,81,29,1,80
,,,,,,,,,,,,,,,,,,,,,,,,,,,,,,,,,,,,,,,,,s,5.281000137,PERMISS,FALSE,,,,,,,135,formiga,Catalan,Sounds/cat_formiga.mp3,2020-06-05_15h37.37.265,TranslationElicitation_eng-prolific,3.2.4,Win32,60,5ea186c334f3aa036bdd1c8b,,1,0,81,29,1,80
,,,,,,,,,,,,,,,,,,,,,,,,,,,,,,,,,,,,,,,,,i,5.578999996,PERMISSI,FALSE,,,,,,,135,formiga,Catalan,Sounds/cat_formiga.mp3,2020-06-05_15h37.37.265,TranslationElicitation_eng-prolific,3.2.4,Win32,60,5ea186c334f3aa036bdd1c8b,,1,0,81,29,1,80
,,,,,,,,,,,,,,,,,,,,,,,,,,,,,,,,,,,,,,,,,o,5.934999943,PERMISSIO,FALSE,,,,,,,135,formiga,Catalan,Sounds/cat_formiga.mp3,2020-06-05_15h37.37.265,TranslationElicitation_eng-prolific,3.2.4,Win32,60,5ea186c334f3aa036bdd1c8b,,1,0,81,29,1,80
,,,,,,,,,,,,,,,,,,,,,,,,,,,,,,,,,,,,,,,,,n,6.13499999,PERMISSION,FALSE,,,,,,,135,formiga,Catalan,Sounds/cat_formiga.mp3,2020-06-05_15h37.37.265,TranslationElicitation_eng-prolific,3.2.4,Win32,60,5ea186c334f3aa036bdd1c8b,,1,0,81,29,1,80
,,,,,,,,,,,,,,,,,,,,,,,,,,,,,,,,,,,,,,,,,return,6.983999968,PERMISSION,FALSE,,,,,,,135,formiga,Catalan,Sounds/cat_formiga.mp3,2020-06-05_15h37.37.265,TranslationElicitation_eng-prolific,3.2.4,Win32,60,5ea186c334f3aa036bdd1c8b,6.983999968,1,0,81,29,1,80
,,,,,,,,,,,,,,,,,,,,,,,,,,,,,,,,,,,,,,,,,,,,,,,,,,,135,formiga,Catalan,Sounds/cat_formiga.mp3,2020-06-05_15h37.37.265,TranslationElicitation_eng-prolific,3.2.4,Win32,60,5ea186c334f3aa036bdd1c8b,,1,0,81,29,1,80
,,,,,,,,,,,,,,,,,,,,,,,,,,,,,,,,,,,,,,,,,c,6.512000084,C,FALSE,,,,,,,120,cama,Catalan,Sounds/cat_cama.mp3,2020-06-05_15h37.37.265,TranslationElicitation_eng-prolific,3.2.4,Win32,60,5ea186c334f3aa036bdd1c8b,,1,0,81,15,1,80
,,,,,,,,,,,,,,,,,,,,,,,,,,,,,,,,,,,,,,,,,o,7.226999998,CO,FALSE,,,,,,,120,cama,Catalan,Sounds/cat_cama.mp3,2020-06-05_15h37.37.265,TranslationElicitation_eng-prolific,3.2.4,Win32,60,5ea186c334f3aa036bdd1c8b,,1,0,81,15,1,80
,,,,,,,,,,,,,,,,,,,,,,,,,,,,,,,,,,,,,,,,,m,7.542999983,COM,FALSE,,,,,,,120,cama,Catalan,Sounds/cat_cama.mp3,2020-06-05_15h37.37.265,TranslationElicitation_eng-prolific,3.2.4,Win32,60,5ea186c334f3aa036bdd1c8b,,1,0,81,15,1,80
,,,,,,,,,,,,,,,,,,,,,,,,,,,,,,,,,,,,,,,,,e,7.993000031,COME,FALSE,,,,,,,120,cama,Catalan,Sounds/cat_cama.mp3,2020-06-05_15h37.37.265,TranslationElicitation_eng-prolific,3.2.4,Win32,60,5ea186c334f3aa036bdd1c8b,,1,0,81,15,1,80
,,,,,,,,,,,,,,,,,,,,,,,,,,,,,,,,,,,,,,,,,return,9.292999983,COME,FALSE,,,,,,,120,cama,Catalan,Sounds/cat_cama.mp3,2020-06-05_15h37.37.265,TranslationElicitation_eng-prolific,3.2.4,Win32,60,5ea186c334f3aa036bdd1c8b,9.292999983,1,0,81,15,1,80
,,,,,,,,,,,,,,,,,,,,,,,,,,,,,,,,,,,,,,,,,,,,,,,,,,,120,cama,Catalan,Sounds/cat_cama.mp3,2020-06-05_15h37.37.265,TranslationElicitation_eng-prolific,3.2.4,Win32,60,5ea186c334f3aa036bdd1c8b,,1,0,81,15,1,80
,,,,,,,,,,,,,,,,,,,,,,,,,,,,,,,,,,,,,,,,,b,1.916000128,B,FALSE,,,,,,,117,boto,Catalan,Sounds/cat_boto.mp3,2020-06-05_15h37.37.265,TranslationElicitation_eng-prolific,3.2.4,Win32,60,5ea186c334f3aa036bdd1c8b,,1,0,81,12,1,80
,,,,,,,,,,,,,,,,,,,,,,,,,,,,,,,,,,,,,,,,,o,2.282999992,BO,FALSE,,,,,,,117,boto,Catalan,Sounds/cat_boto.mp3,2020-06-05_15h37.37.265,TranslationElicitation_eng-prolific,3.2.4,Win32,60,5ea186c334f3aa036bdd1c8b,,1,0,81,12,1,80
,,,,,,,,,,,,,,,,,,,,,,,,,,,,,,,,,,,,,,,,,t,2.76699996,BOT,FALSE,,,,,,,117,boto,Catalan,Sounds/cat_boto.mp3,2020-06-05_15h37.37.265,TranslationElicitation_eng-prolific,3.2.4,Win32,60,5ea186c334f3aa036bdd1c8b,,1,0,81,12,1,80
,,,,,,,,,,,,,,,,,,,,,,,,,,,,,,,,,,,,,,,,,t,3.190000057,BOTT,FALSE,,,,,,,117,boto,Catalan,Sounds/cat_boto.mp3,2020-06-05_15h37.37.265,TranslationElicitation_eng-prolific,3.2.4,Win32,60,5ea186c334f3aa036bdd1c8b,,1,0,81,12,1,80
,,,,,,,,,,,,,,,,,,,,,,,,,,,,,,,,,,,,,,,,,l,3.582999945,BOTTL,FALSE,,,,,,,117,boto,Catalan,Sounds/cat_boto.mp3,2020-06-05_15h37.37.265,TranslationElicitation_eng-prolific,3.2.4,Win32,60,5ea186c334f3aa036bdd1c8b,,1,0,81,12,1,80
,,,,,,,,,,,,,,,,,,,,,,,,,,,,,,,,,,,,,,,,,e,3.953999996,BOTTLE,FALSE,,,,,,,117,boto,Catalan,Sounds/cat_boto.mp3,2020-06-05_15h37.37.265,TranslationElicitation_eng-prolific,3.2.4,Win32,60,5ea186c334f3aa036bdd1c8b,,1,0,81,12,1,80
,,,,,,,,,,,,,,,,,,,,,,,,,,,,,,,,,,,,,,,,,return,4.837000132,BOTTLE,FALSE,,,,,,,117,boto,Catalan,Sounds/cat_boto.mp3,2020-06-05_15h37.37.265,TranslationElicitation_eng-prolific,3.2.4,Win32,60,5ea186c334f3aa036bdd1c8b,4.837000132,1,0,81,12,1,80
,,,,,,,,,,,,,,,,,,,,,,,,,,,,,,,,,,,,,,,,,,,,,,,,,,,117,boto,Catalan,Sounds/cat_boto.mp3,2020-06-05_15h37.37.265,TranslationElicitation_eng-prolific,3.2.4,Win32,60,5ea186c334f3aa036bdd1c8b,,1,0,81,12,1,80
,,,,,,,,,,,,,,,,,,,,,,,,,,,,,,,,,,,,,,,,,t,1.937000036,T,FALSE,,,,,,,181,tobogan,Catalan,Sounds/cat_tobogan.mp3,2020-06-05_15h37.37.265,TranslationElicitation_eng-prolific,3.2.4,Win32,60,5ea186c334f3aa036bdd1c8b,,1,0,81,72,1,80
,,,,,,,,,,,,,,,,,,,,,,,,,,,,,,,,,,,,,,,,,o,2.264000177,TO,FALSE,,,,,,,181,tobogan,Catalan,Sounds/cat_tobogan.mp3,2020-06-05_15h37.37.265,TranslationElicitation_eng-prolific,3.2.4,Win32,60,5ea186c334f3aa036bdd1c8b,,1,0,81,72,1,80
,,,,,,,,,,,,,,,,,,,,,,,,,,,,,,,,,,,,,,,,,m,2.830000162,TOM,FALSE,,,,,,,181,tobogan,Catalan,Sounds/cat_tobogan.mp3,2020-06-05_15h37.37.265,TranslationElicitation_eng-prolific,3.2.4,Win32,60,5ea186c334f3aa036bdd1c8b,,1,0,81,72,1,80
,,,,,,,,,,,,,,,,,,,,,,,,,,,,,,,,,,,,,,,,,a,3.338999987,TOMA,FALSE,,,,,,,181,tobogan,Catalan,Sounds/cat_tobogan.mp3,2020-06-05_15h37.37.265,TranslationElicitation_eng-prolific,3.2.4,Win32,60,5ea186c334f3aa036bdd1c8b,,1,0,81,72,1,80
,,,,,,,,,,,,,,,,,,,,,,,,,,,,,,,,,,,,,,,,,t,4.25999999,TOMAT,FALSE,,,,,,,181,tobogan,Catalan,Sounds/cat_tobogan.mp3,2020-06-05_15h37.37.265,TranslationElicitation_eng-prolific,3.2.4,Win32,60,5ea186c334f3aa036bdd1c8b,,1,0,81,72,1,80
,,,,,,,,,,,,,,,,,,,,,,,,,,,,,,,,,,,,,,,,,o,5.47300005,TOMATO,FALSE,,,,,,,181,tobogan,Catalan,Sounds/cat_tobogan.mp3,2020-06-05_15h37.37.265,TranslationElicitation_eng-prolific,3.2.4,Win32,60,5ea186c334f3aa036bdd1c8b,,1,0,81,72,1,80
,,,,,,,,,,,,,,,,,,,,,,,,,,,,,,,,,,,,,,,,,return,6.170000076,TOMATO,FALSE,,,,,,,181,tobogan,Catalan,Sounds/cat_tobogan.mp3,2020-06-05_15h37.37.265,TranslationElicitation_eng-prolific,3.2.4,Win32,60,5ea186c334f3aa036bdd1c8b,6.170000076,1,0,81,72,1,80
,,,,,,,,,,,,,,,,,,,,,,,,,,,,,,,,,,,,,,,,,,,,,,,,,,,181,tobogan,Catalan,Sounds/cat_tobogan.mp3,2020-06-05_15h37.37.265,TranslationElicitation_eng-prolific,3.2.4,Win32,60,5ea186c334f3aa036bdd1c8b,,1,0,81,72,1,80
,,,,,,,,,,,,,,,,,,,,,,,,,,,,,,,,,,,,,,,,,t,2.397000074,T,FALSE,,,,,,,140,gat,Catalan,Sounds/cat_gat.mp3,2020-06-05_15h37.37.265,TranslationElicitation_eng-prolific,3.2.4,Win32,60,5ea186c334f3aa036bdd1c8b,,1,0,81,34,1,80
,,,,,,,,,,,,,,,,,,,,,,,,,,,,,,,,,,,,,,,,,r,2.933000088,TR,FALSE,,,,,,,140,gat,Catalan,Sounds/cat_gat.mp3,2020-06-05_15h37.37.265,TranslationElicitation_eng-prolific,3.2.4,Win32,60,5ea186c334f3aa036bdd1c8b,,1,0,81,34,1,80
,,,,,,,,,,,,,,,,,,,,,,,,,,,,,,,,,,,,,,,,,a,3.319000006,TRA,FALSE,,,,,,,140,gat,Catalan,Sounds/cat_gat.mp3,2020-06-05_15h37.37.265,TranslationElicitation_eng-prolific,3.2.4,Win32,60,5ea186c334f3aa036bdd1c8b,,1,0,81,34,1,80
,,,,,,,,,,,,,,,,,,,,,,,,,,,,,,,,,,,,,,,,,i,3.785000086,TRAI,FALSE,,,,,,,140,gat,Catalan,Sounds/cat_gat.mp3,2020-06-05_15h37.37.265,TranslationElicitation_eng-prolific,3.2.4,Win32,60,5ea186c334f3aa036bdd1c8b,,1,0,81,34,1,80
,,,,,,,,,,,,,,,,,,,,,,,,,,,,,,,,,,,,,,,,,n,4.213000059,TRAIN,FALSE,,,,,,,140,gat,Catalan,Sounds/cat_gat.mp3,2020-06-05_15h37.37.265,TranslationElicitation_eng-prolific,3.2.4,Win32,60,5ea186c334f3aa036bdd1c8b,,1,0,81,34,1,80
,,,,,,,,,,,,,,,,,,,,,,,,,,,,,,,,,,,,,,,,,return,5.029000044,TRAIN,FALSE,,,,,,,140,gat,Catalan,Sounds/cat_gat.mp3,2020-06-05_15h37.37.265,TranslationElicitation_eng-prolific,3.2.4,Win32,60,5ea186c334f3aa036bdd1c8b,5.029000044,1,0,81,34,1,80
,,,,,,,,,,,,,,,,,,,,,,,,,,,,,,,,,,,,,,,,,,,,,,,,,,,140,gat,Catalan,Sounds/cat_gat.mp3,2020-06-05_15h37.37.265,TranslationElicitation_eng-prolific,3.2.4,Win32,60,5ea186c334f3aa036bdd1c8b,,1,0,81,34,1,80
,,,,,,,,,,,,,,,,,,,,,,,,,,,,,,,,,,,,,,,,,c,2.831999779,C,FALSE,,,,,,,122,casa,Catalan,Sounds/cat_casa.mp3,2020-06-05_15h37.37.265,TranslationElicitation_eng-prolific,3.2.4,Win32,60,5ea186c334f3aa036bdd1c8b,,1,0,81,17,1,80
,,,,,,,,,,,,,,,,,,,,,,,,,,,,,,,,,,,,,,,,,a,3.697999954,CA,FALSE,,,,,,,122,casa,Catalan,Sounds/cat_casa.mp3,2020-06-05_15h37.37.265,TranslationElicitation_eng-prolific,3.2.4,Win32,60,5ea186c334f3aa036bdd1c8b,,1,0,81,17,1,80
,,,,,,,,,,,,,,,,,,,,,,,,,,,,,,,,,,,,,,,,,s,3.848999977,CAS,FALSE,,,,,,,122,casa,Catalan,Sounds/cat_casa.mp3,2020-06-05_15h37.37.265,TranslationElicitation_eng-prolific,3.2.4,Win32,60,5ea186c334f3aa036bdd1c8b,,1,0,81,17,1,80
,,,,,,,,,,,,,,,,,,,,,,,,,,,,,,,,,,,,,,,,,t,4.216999769,CAST,FALSE,,,,,,,122,casa,Catalan,Sounds/cat_casa.mp3,2020-06-05_15h37.37.265,TranslationElicitation_eng-prolific,3.2.4,Win32,60,5ea186c334f3aa036bdd1c8b,,1,0,81,17,1,80
,,,,,,,,,,,,,,,,,,,,,,,,,,,,,,,,,,,,,,,,,l,4.601999998,CASTL,FALSE,,,,,,,122,casa,Catalan,Sounds/cat_casa.mp3,2020-06-05_15h37.37.265,TranslationElicitation_eng-prolific,3.2.4,Win32,60,5ea186c334f3aa036bdd1c8b,,1,0,81,17,1,80
,,,,,,,,,,,,,,,,,,,,,,,,,,,,,,,,,,,,,,,,,e,4.93599987,CASTLE,FALSE,,,,,,,122,casa,Catalan,Sounds/cat_casa.mp3,2020-06-05_15h37.37.265,TranslationElicitation_eng-prolific,3.2.4,Win32,60,5ea186c334f3aa036bdd1c8b,,1,0,81,17,1,80
,,,,,,,,,,,,,,,,,,,,,,,,,,,,,,,,,,,,,,,,,return,5.657999992,CASTLE,FALSE,,,,,,,122,casa,Catalan,Sounds/cat_casa.mp3,2020-06-05_15h37.37.265,TranslationElicitation_eng-prolific,3.2.4,Win32,60,5ea186c334f3aa036bdd1c8b,5.657999992,1,0,81,17,1,80
,,,,,,,,,,,,,,,,,,,,,,,,,,,,,,,,,,,,,,,,,,,,,,,,,,,122,casa,Catalan,Sounds/cat_casa.mp3,2020-06-05_15h37.37.265,TranslationElicitation_eng-prolific,3.2.4,Win32,60,5ea186c334f3aa036bdd1c8b,,1,0,81,17,1,80
,,,,,,,,,,,,,,,,,,,,,,,,,,,,,,,,,,,,,,,,,k,4.997999907,K,FALSE,,,,,,,112,bici,Catalan,Sounds/cat_bici.mp3,2020-06-05_15h37.37.265,TranslationElicitation_eng-prolific,3.2.4,Win32,60,5ea186c334f3aa036bdd1c8b,,1,0,81,7,1,80
,,,,,,,,,,,,,,,,,,,,,,,,,,,,,,,,,,,,,,,,,i,5.52699995,KI,FALSE,,,,,,,112,bici,Catalan,Sounds/cat_bici.mp3,2020-06-05_15h37.37.265,TranslationElicitation_eng-prolific,3.2.4,Win32,60,5ea186c334f3aa036bdd1c8b,,1,0,81,7,1,80
,,,,,,,,,,,,,,,,,,,,,,,,,,,,,,,,,,,,,,,,,s,6.059999943,KIS,FALSE,,,,,,,112,bici,Catalan,Sounds/cat_bici.mp3,2020-06-05_15h37.37.265,TranslationElicitation_eng-prolific,3.2.4,Win32,60,5ea186c334f3aa036bdd1c8b,,1,0,81,7,1,80
,,,,,,,,,,,,,,,,,,,,,,,,,,,,,,,,,,,,,,,,,s,6.485999823,KISS,FALSE,,,,,,,112,bici,Catalan,Sounds/cat_bici.mp3,2020-06-05_15h37.37.265,TranslationElicitation_eng-prolific,3.2.4,Win32,60,5ea186c334f3aa036bdd1c8b,,1,0,81,7,1,80
,,,,,,,,,,,,,,,,,,,,,,,,,,,,,,,,,,,,,,,,,return,7.253000021,KISS,FALSE,,,,,,,112,bici,Catalan,Sounds/cat_bici.mp3,2020-06-05_15h37.37.265,TranslationElicitation_eng-prolific,3.2.4,Win32,60,5ea186c334f3aa036bdd1c8b,7.253000021,1,0,81,7,1,80
,,,,,,,,,,,,,,,,,,,,,,,,,,,,,,,,,,,,,,,,,,,,,,,,,,,112,bici,Catalan,Sounds/cat_bici.mp3,2020-06-05_15h37.37.265,TranslationElicitation_eng-prolific,3.2.4,Win32,60,5ea186c334f3aa036bdd1c8b,,1,0,81,7,1,80
,,,,,,,,,,,,,,,,,,,,,,,,,,,,,,,,,,,,,,,,,j,3.085000038,J,FALSE,,,,,,,141,gerd,Catalan,Sounds/cat_gerd.mp3,2020-06-05_15h37.37.265,TranslationElicitation_eng-prolific,3.2.4,Win32,60,5ea186c334f3aa036bdd1c8b,,1,0,81,35,1,80
,,,,,,,,,,,,,,,,,,,,,,,,,,,,,,,,,,,,,,,,,a,3.681999922,JA,FALSE,,,,,,,141,gerd,Catalan,Sounds/cat_gerd.mp3,2020-06-05_15h37.37.265,TranslationElicitation_eng-prolific,3.2.4,Win32,60,5ea186c334f3aa036bdd1c8b,,1,0,81,35,1,80
,,,,,,,,,,,,,,,,,,,,,,,,,,,,,,,,,,,,,,,,,i,4.078000069,JAI,FALSE,,,,,,,141,gerd,Catalan,Sounds/cat_gerd.mp3,2020-06-05_15h37.37.265,TranslationElicitation_eng-prolific,3.2.4,Win32,60,5ea186c334f3aa036bdd1c8b,,1,0,81,35,1,80
,,,,,,,,,,,,,,,,,,,,,,,,,,,,,,,,,,,,,,,,,l,4.540999889,JAIL,FALSE,,,,,,,141,gerd,Catalan,Sounds/cat_gerd.mp3,2020-06-05_15h37.37.265,TranslationElicitation_eng-prolific,3.2.4,Win32,60,5ea186c334f3aa036bdd1c8b,,1,0,81,35,1,80
,,,,,,,,,,,,,,,,,,,,,,,,,,,,,,,,,,,,,,,,,return,5.141000032,JAIL,FALSE,,,,,,,141,gerd,Catalan,Sounds/cat_gerd.mp3,2020-06-05_15h37.37.265,TranslationElicitation_eng-prolific,3.2.4,Win32,60,5ea186c334f3aa036bdd1c8b,5.141000032,1,0,81,35,1,80
,,,,,,,,,,,,,,,,,,,,,,,,,,,,,,,,,,,,,,,,,,,,,,,,,,,141,gerd,Catalan,Sounds/cat_gerd.mp3,2020-06-05_15h37.37.265,TranslationElicitation_eng-prolific,3.2.4,Win32,60,5ea186c334f3aa036bdd1c8b,,1,0,81,35,1,80
,,,,,,,,,,,,,,,,,,,,,,,,,,,,,,,,,,,,,,,,,a,7.117000103,A,FALSE,,,,,,,148,lleo,Catalan,Sounds/cat_lleo.mp3,2020-06-05_15h37.37.265,TranslationElicitation_eng-prolific,3.2.4,Win32,60,5ea186c334f3aa036bdd1c8b,,1,0,81,41,1,80
,,,,,,,,,,,,,,,,,,,,,,,,,,,,,,,,,,,,,,,,,r,7.536000013,AR,FALSE,,,,,,,148,lleo,Catalan,Sounds/cat_lleo.mp3,2020-06-05_15h37.37.265,TranslationElicitation_eng-prolific,3.2.4,Win32,60,5ea186c334f3aa036bdd1c8b,,1,0,81,41,1,80
,,,,,,,,,,,,,,,,,,,,,,,,,,,,,,,,,,,,,,,,,o,7.914000034,ARO,FALSE,,,,,,,148,lleo,Catalan,Sounds/cat_lleo.mp3,2020-06-05_15h37.37.265,TranslationElicitation_eng-prolific,3.2.4,Win32,60,5ea186c334f3aa036bdd1c8b,,1,0,81,41,1,80
,,,,,,,,,,,,,,,,,,,,,,,,,,,,,,,,,,,,,,,,,u,8.333000183,AROU,FALSE,,,,,,,148,lleo,Catalan,Sounds/cat_lleo.mp3,2020-06-05_15h37.37.265,TranslationElicitation_eng-prolific,3.2.4,Win32,60,5ea186c334f3aa036bdd1c8b,,1,0,81,41,1,80
,,,,,,,,,,,,,,,,,,,,,,,,,,,,,,,,,,,,,,,,,n,8.529999971,AROUN,FALSE,,,,,,,148,lleo,Catalan,Sounds/cat_lleo.mp3,2020-06-05_15h37.37.265,TranslationElicitation_eng-prolific,3.2.4,Win32,60,5ea186c334f3aa036bdd1c8b,,1,0,81,41,1,80
,,,,,,,,,,,,,,,,,,,,,,,,,,,,,,,,,,,,,,,,,d,8.920000076,AROUND,FALSE,,,,,,,148,lleo,Catalan,Sounds/cat_lleo.mp3,2020-06-05_15h37.37.265,TranslationElicitation_eng-prolific,3.2.4,Win32,60,5ea186c334f3aa036bdd1c8b,,1,0,81,41,1,80
,,,,,,,,,,,,,,,,,,,,,,,,,,,,,,,,,,,,,,,,,return,9.637000084,AROUND,FALSE,,,,,,,148,lleo,Catalan,Sounds/cat_lleo.mp3,2020-06-05_15h37.37.265,TranslationElicitation_eng-prolific,3.2.4,Win32,60,5ea186c334f3aa036bdd1c8b,9.637000084,1,0,81,41,1,80
,,,,,,,,,,,,,,,,,,,,,,,,,,,,,,,,,,,,,,,,,,,,,,,,,,,148,lleo,Catalan,Sounds/cat_lleo.mp3,2020-06-05_15h37.37.265,TranslationElicitation_eng-prolific,3.2.4,Win32,60,5ea186c334f3aa036bdd1c8b,,1,0,81,41,1,80
,,,,,,,,,,,,,,,,,,,,,,,,,,,,,,,,,,,,,,,,,h,5.19900012,H,FALSE,,,,,,,123,cavall,Catalan,Sounds/cat_cavall.mp3,2020-06-05_15h37.37.265,TranslationElicitation_eng-prolific,3.2.4,Win32,60,5ea186c334f3aa036bdd1c8b,,1,0,81,18,1,80
,,,,,,,,,,,,,,,,,,,,,,,,,,,,,,,,,,,,,,,,,o,5.599000216,HO,FALSE,,,,,,,123,cavall,Catalan,Sounds/cat_cavall.mp3,2020-06-05_15h37.37.265,TranslationElicitation_eng-prolific,3.2.4,Win32,60,5ea186c334f3aa036bdd1c8b,,1,0,81,18,1,80
,,,,,,,,,,,,,,,,,,,,,,,,,,,,,,,,,,,,,,,,,r,5.980000019,HOR,FALSE,,,,,,,123,cavall,Catalan,Sounds/cat_cavall.mp3,2020-06-05_15h37.37.265,TranslationElicitation_eng-prolific,3.2.4,Win32,60,5ea186c334f3aa036bdd1c8b,,1,0,81,18,1,80
,,,,,,,,,,,,,,,,,,,,,,,,,,,,,,,,,,,,,,,,,s,6.315999985,HORS,FALSE,,,,,,,123,cavall,Catalan,Sounds/cat_cavall.mp3,2020-06-05_15h37.37.265,TranslationElicitation_eng-prolific,3.2.4,Win32,60,5ea186c334f3aa036bdd1c8b,,1,0,81,18,1,80
,,,,,,,,,,,,,,,,,,,,,,,,,,,,,,,,,,,,,,,,,e,6.743000031,HORSE,FALSE,,,,,,,123,cavall,Catalan,Sounds/cat_cavall.mp3,2020-06-05_15h37.37.265,TranslationElicitation_eng-prolific,3.2.4,Win32,60,5ea186c334f3aa036bdd1c8b,,1,0,81,18,1,80
,,,,,,,,,,,,,,,,,,,,,,,,,,,,,,,,,,,,,,,,,return,7.560000181,HORSE,FALSE,,,,,,,123,cavall,Catalan,Sounds/cat_cavall.mp3,2020-06-05_15h37.37.265,TranslationElicitation_eng-prolific,3.2.4,Win32,60,5ea186c334f3aa036bdd1c8b,7.560000181,1,0,81,18,1,80
,,,,,,,,,,,,,,,,,,,,,,,,,,,,,,,,,,,,,,,,,,,,,,,,,,,123,cavall,Catalan,Sounds/cat_cavall.mp3,2020-06-05_15h37.37.265,TranslationElicitation_eng-prolific,3.2.4,Win32,60,5ea186c334f3aa036bdd1c8b,,1,0,81,18,1,80
,,,,,,,,,,,,,,,,,,,,,,,,,,,,,,,,,,,,,,,,,b,3.799000025,B,FALSE,,,,,,,162,pa,Catalan,Sounds/cat_pa.mp3,2020-06-05_15h37.37.265,TranslationElicitation_eng-prolific,3.2.4,Win32,60,5ea186c334f3aa036bdd1c8b,,1,0,81,54,1,80
,,,,,,,,,,,,,,,,,,,,,,,,,,,,,,,,,,,,,,,,,a,4.115999937,BA,FALSE,,,,,,,162,pa,Catalan,Sounds/cat_pa.mp3,2020-06-05_15h37.37.265,TranslationElicitation_eng-prolific,3.2.4,Win32,60,5ea186c334f3aa036bdd1c8b,,1,0,81,54,1,80
,,,,,,,,,,,,,,,,,,,,,,,,,,,,,,,,,,,,,,,,,d,4.450999975,BAD,FALSE,,,,,,,162,pa,Catalan,Sounds/cat_pa.mp3,2020-06-05_15h37.37.265,TranslationElicitation_eng-prolific,3.2.4,Win32,60,5ea186c334f3aa036bdd1c8b,,1,0,81,54,1,80
,,,,,,,,,,,,,,,,,,,,,,,,,,,,,,,,,,,,,,,,,return,4.814999819,BAD,FALSE,,,,,,,162,pa,Catalan,Sounds/cat_pa.mp3,2020-06-05_15h37.37.265,TranslationElicitation_eng-prolific,3.2.4,Win32,60,5ea186c334f3aa036bdd1c8b,4.814999819,1,0,81,54,1,80
,,,,,,,,,,,,,,,,,,,,,,,,,,,,,,,,,,,,,,,,,,,,,,,,,,,162,pa,Catalan,Sounds/cat_pa.mp3,2020-06-05_15h37.37.265,TranslationElicitation_eng-prolific,3.2.4,Win32,60,5ea186c334f3aa036bdd1c8b,,1,0,81,54,1,80
,,,,,,,,,,,,,,,,,,,,,,,,,,,,,,,,,,,,,,,,,b,5.166000128,B,FALSE,,,,,,,107,amanida,Catalan,Sounds/cat_amanida.mp3,2020-06-05_15h37.37.265,TranslationElicitation_eng-prolific,3.2.4,Win32,60,5ea186c334f3aa036bdd1c8b,,1,0,81,3,1,80
,,,,,,,,,,,,,,,,,,,,,,,,,,,,,,,,,,,,,,,,,r,5.818000078,BR,FALSE,,,,,,,107,amanida,Catalan,Sounds/cat_amanida.mp3,2020-06-05_15h37.37.265,TranslationElicitation_eng-prolific,3.2.4,Win32,60,5ea186c334f3aa036bdd1c8b,,1,0,81,3,1,80
,,,,,,,,,,,,,,,,,,,,,,,,,,,,,,,,,,,,,,,,,o,6.149000168,BRO,FALSE,,,,,,,107,amanida,Catalan,Sounds/cat_amanida.mp3,2020-06-05_15h37.37.265,TranslationElicitation_eng-prolific,3.2.4,Win32,60,5ea186c334f3aa036bdd1c8b,,1,0,81,3,1,80
,,,,,,,,,,,,,,,,,,,,,,,,,,,,,,,,,,,,,,,,,h,6.46600008,BROH,FALSE,,,,,,,107,amanida,Catalan,Sounds/cat_amanida.mp3,2020-06-05_15h37.37.265,TranslationElicitation_eng-prolific,3.2.4,Win32,60,5ea186c334f3aa036bdd1c8b,,1,0,81,3,1,80
,,,,,,,,,,,,,,,,,,,,,,,,,,,,,,,,,,,,,,,,,backspace,6.782999992,BRO,TRUE,,,,,,,107,amanida,Catalan,Sounds/cat_amanida.mp3,2020-06-05_15h37.37.265,TranslationElicitation_eng-prolific,3.2.4,Win32,60,5ea186c334f3aa036bdd1c8b,,1,0,81,3,1,80
,,,,,,,,,,,,,,,,,,,,,,,,,,,,,,,,,,,,,,,,,t,6.933000088,BROT,TRUE,,,,,,,107,amanida,Catalan,Sounds/cat_amanida.mp3,2020-06-05_15h37.37.265,TranslationElicitation_eng-prolific,3.2.4,Win32,60,5ea186c334f3aa036bdd1c8b,,1,0,81,3,1,80
,,,,,,,,,,,,,,,,,,,,,,,,,,,,,,,,,,,,,,,,,h,7.149000168,BROTH,TRUE,,,,,,,107,amanida,Catalan,Sounds/cat_amanida.mp3,2020-06-05_15h37.37.265,TranslationElicitation_eng-prolific,3.2.4,Win32,60,5ea186c334f3aa036bdd1c8b,,1,0,81,3,1,80
,,,,,,,,,,,,,,,,,,,,,,,,,,,,,,,,,,,,,,,,,e,7.452000141,BROTHE,TRUE,,,,,,,107,amanida,Catalan,Sounds/cat_amanida.mp3,2020-06-05_15h37.37.265,TranslationElicitation_eng-prolific,3.2.4,Win32,60,5ea186c334f3aa036bdd1c8b,,1,0,81,3,1,80
,,,,,,,,,,,,,,,,,,,,,,,,,,,,,,,,,,,,,,,,,r,7.71600008,BROTHER,TRUE,,,,,,,107,amanida,Catalan,Sounds/cat_amanida.mp3,2020-06-05_15h37.37.265,TranslationElicitation_eng-prolific,3.2.4,Win32,60,5ea186c334f3aa036bdd1c8b,,1,0,81,3,1,80
,,,,,,,,,,,,,,,,,,,,,,,,,,,,,,,,,,,,,,,,,return,8.42200017,BROTHER,TRUE,,,,,,,107,amanida,Catalan,Sounds/cat_amanida.mp3,2020-06-05_15h37.37.265,TranslationElicitation_eng-prolific,3.2.4,Win32,60,5ea186c334f3aa036bdd1c8b,8.42200017,1,0,81,3,1,80
,,,,,,,,,,,,,,,,,,,,,,,,,,,,,,,,,,,,,,,,,,,,,,,,,,,107,amanida,Catalan,Sounds/cat_amanida.mp3,2020-06-05_15h37.37.265,TranslationElicitation_eng-prolific,3.2.4,Win32,60,5ea186c334f3aa036bdd1c8b,,1,0,81,3,1,80
,,,,,,,,,,,,,,,,,,,,,,,,,,,,,,,,,,,,,,,,,d,4.344000101,D,FALSE,,,,,,,129,dit,Catalan,Sounds/cat_dit.mp3,2020-06-05_15h37.37.265,TranslationElicitation_eng-prolific,3.2.4,Win32,60,5ea186c334f3aa036bdd1c8b,,1,0,81,23,1,80
,,,,,,,,,,,,,,,,,,,,,,,,,,,,,,,,,,,,,,,,,a,4.677000046,DA,FALSE,,,,,,,129,dit,Catalan,Sounds/cat_dit.mp3,2020-06-05_15h37.37.265,TranslationElicitation_eng-prolific,3.2.4,Win32,60,5ea186c334f3aa036bdd1c8b,,1,0,81,23,1,80
,,,,,,,,,,,,,,,,,,,,,,,,,,,,,,,,,,,,,,,,,y,5.111000061,DAY,FALSE,,,,,,,129,dit,Catalan,Sounds/cat_dit.mp3,2020-06-05_15h37.37.265,TranslationElicitation_eng-prolific,3.2.4,Win32,60,5ea186c334f3aa036bdd1c8b,,1,0,81,23,1,80
,,,,,,,,,,,,,,,,,,,,,,,,,,,,,,,,,,,,,,,,,return,6.720000029,DAY,FALSE,,,,,,,129,dit,Catalan,Sounds/cat_dit.mp3,2020-06-05_15h37.37.265,TranslationElicitation_eng-prolific,3.2.4,Win32,60,5ea186c334f3aa036bdd1c8b,6.720000029,1,0,81,23,1,80
,,,,,,,,,,,,,,,,,,,,,,,,,,,,,,,,,,,,,,,,,,,,,,,,,,,129,dit,Catalan,Sounds/cat_dit.mp3,2020-06-05_15h37.37.265,TranslationElicitation_eng-prolific,3.2.4,Win32,60,5ea186c334f3aa036bdd1c8b,,1,0,81,23,1,80
,,,,,,,,,,,,,,,,,,,,,,,,,,,,,,,,,,,,,,,,,c,2.134000063,C,FALSE,,,,,,,127,cotxe,Catalan,Sounds/cat_cotxe.mp3,2020-06-05_15h37.37.265,TranslationElicitation_eng-prolific,3.2.4,Win32,60,5ea186c334f3aa036bdd1c8b,,1,0,81,21,1,80
,,,,,,,,,,,,,,,,,,,,,,,,,,,,,,,,,,,,,,,,,o,2.532999992,CO,FALSE,,,,,,,127,cotxe,Catalan,Sounds/cat_cotxe.mp3,2020-06-05_15h37.37.265,TranslationElicitation_eng-prolific,3.2.4,Win32,60,5ea186c334f3aa036bdd1c8b,,1,0,81,21,1,80
,,,,,,,,,,,,,,,,,,,,,,,,,,,,,,,,,,,,,,,,,s,2.933000088,COS,FALSE,,,,,,,127,cotxe,Catalan,Sounds/cat_cotxe.mp3,2020-06-05_15h37.37.265,TranslationElicitation_eng-prolific,3.2.4,Win32,60,5ea186c334f3aa036bdd1c8b,,1,0,81,21,1,80
,,,,,,,,,,,,,,,,,,,,,,,,,,,,,,,,,,,,,,,,,t,3.332999945,COST,FALSE,,,,,,,127,cotxe,Catalan,Sounds/cat_cotxe.mp3,2020-06-05_15h37.37.265,TranslationElicitation_eng-prolific,3.2.4,Win32,60,5ea186c334f3aa036bdd1c8b,,1,0,81,21,1,80
,,,,,,,,,,,,,,,,,,,,,,,,,,,,,,,,,,,,,,,,,return,6.085000038,COST,FALSE,,,,,,,127,cotxe,Catalan,Sounds/cat_cotxe.mp3,2020-06-05_15h37.37.265,TranslationElicitation_eng-prolific,3.2.4,Win32,60,5ea186c334f3aa036bdd1c8b,6.085000038,1,0,81,21,1,80
,,,,,,,,,,,,,,,,,,,,,,,,,,,,,,,,,,,,,,,,,,,,,,,,,,,127,cotxe,Catalan,Sounds/cat_cotxe.mp3,2020-06-05_15h37.37.265,TranslationElicitation_eng-prolific,3.2.4,Win32,60,5ea186c334f3aa036bdd1c8b,,1,0,81,21,1,80
,,,,,,,,,,,,,,,,,,,,,,,,,,,,,,,,,,,,,,,,,t,1.565000057,T,FALSE,,,,,,,182,tomaquet,Catalan,Sounds/cat_tomaquet.mp3,2020-06-05_15h37.37.265,TranslationElicitation_eng-prolific,3.2.4,Win32,60,5ea186c334f3aa036bdd1c8b,,1,0,81,73,1,80
,,,,,,,,,,,,,,,,,,,,,,,,,,,,,,,,,,,,,,,,,o,1.832000017,TO,FALSE,,,,,,,182,tomaquet,Catalan,Sounds/cat_tomaquet.mp3,2020-06-05_15h37.37.265,TranslationElicitation_eng-prolific,3.2.4,Win32,60,5ea186c334f3aa036bdd1c8b,,1,0,81,73,1,80
,,,,,,,,,,,,,,,,,,,,,,,,,,,,,,,,,,,,,,,,,m,2.131999969,TOM,FALSE,,,,,,,182,tomaquet,Catalan,Sounds/cat_tomaquet.mp3,2020-06-05_15h37.37.265,TranslationElicitation_eng-prolific,3.2.4,Win32,60,5ea186c334f3aa036bdd1c8b,,1,0,81,73,1,80
,,,,,,,,,,,,,,,,,,,,,,,,,,,,,,,,,,,,,,,,,a,2.299000025,TOMA,FALSE,,,,,,,182,tomaquet,Catalan,Sounds/cat_tomaquet.mp3,2020-06-05_15h37.37.265,TranslationElicitation_eng-prolific,3.2.4,Win32,60,5ea186c334f3aa036bdd1c8b,,1,0,81,73,1,80
,,,,,,,,,,,,,,,,,,,,,,,,,,,,,,,,,,,,,,,,,t,2.75,TOMAT,FALSE,,,,,,,182,tomaquet,Catalan,Sounds/cat_tomaquet.mp3,2020-06-05_15h37.37.265,TranslationElicitation_eng-prolific,3.2.4,Win32,60,5ea186c334f3aa036bdd1c8b,,1,0,81,73,1,80
,,,,,,,,,,,,,,,,,,,,,,,,,,,,,,,,,,,,,,,,,o,3.082000017,TOMATO,FALSE,,,,,,,182,tomaquet,Catalan,Sounds/cat_tomaquet.mp3,2020-06-05_15h37.37.265,TranslationElicitation_eng-prolific,3.2.4,Win32,60,5ea186c334f3aa036bdd1c8b,,1,0,81,73,1,80
,,,,,,,,,,,,,,,,,,,,,,,,,,,,,,,,,,,,,,,,,return,3.717999935,TOMATO,FALSE,,,,,,,182,tomaquet,Catalan,Sounds/cat_tomaquet.mp3,2020-06-05_15h37.37.265,TranslationElicitation_eng-prolific,3.2.4,Win32,60,5ea186c334f3aa036bdd1c8b,3.717999935,1,0,81,73,1,80
,,,,,,,,,,,,,,,,,,,,,,,,,,,,,,,,,,,,,,,,,,,,,,,,,,,182,tomaquet,Catalan,Sounds/cat_tomaquet.mp3,2020-06-05_15h37.37.265,TranslationElicitation_eng-prolific,3.2.4,Win32,60,5ea186c334f3aa036bdd1c8b,,1,0,81,73,1,80
,,,,,,,,,,,,,,,,,,,,,,,,,,,,,,,,,,,,,,,,,s,5.031999826,S,FALSE,,,,,,,113,boca,Catalan,Sounds/cat_boca.mp3,2020-06-05_15h37.37.265,TranslationElicitation_eng-prolific,3.2.4,Win32,60,5ea186c334f3aa036bdd1c8b,,1,0,81,8,1,80
,,,,,,,,,,,,,,,,,,,,,,,,,,,,,,,,,,,,,,,,,a,5.414999962,SA,FALSE,,,,,,,113,boca,Catalan,Sounds/cat_boca.mp3,2020-06-05_15h37.37.265,TranslationElicitation_eng-prolific,3.2.4,Win32,60,5ea186c334f3aa036bdd1c8b,,1,0,81,8,1,80
,,,,,,,,,,,,,,,,,,,,,,,,,,,,,,,,,,,,,,,,,n,5.764999866,SAN,FALSE,,,,,,,113,boca,Catalan,Sounds/cat_boca.mp3,2020-06-05_15h37.37.265,TranslationElicitation_eng-prolific,3.2.4,Win32,60,5ea186c334f3aa036bdd1c8b,,1,0,81,8,1,80
,,,,,,,,,,,,,,,,,,,,,,,,,,,,,,,,,,,,,,,,,d,6.164999962,SAND,FALSE,,,,,,,113,boca,Catalan,Sounds/cat_boca.mp3,2020-06-05_15h37.37.265,TranslationElicitation_eng-prolific,3.2.4,Win32,60,5ea186c334f3aa036bdd1c8b,,1,0,81,8,1,80
,,,,,,,,,,,,,,,,,,,,,,,,,,,,,,,,,,,,,,,,,w,6.614999771,SANDW,FALSE,,,,,,,113,boca,Catalan,Sounds/cat_boca.mp3,2020-06-05_15h37.37.265,TranslationElicitation_eng-prolific,3.2.4,Win32,60,5ea186c334f3aa036bdd1c8b,,1,0,81,8,1,80
,,,,,,,,,,,,,,,,,,,,,,,,,,,,,,,,,,,,,,,,,i,7.014999866,SANDWI,FALSE,,,,,,,113,boca,Catalan,Sounds/cat_boca.mp3,2020-06-05_15h37.37.265,TranslationElicitation_eng-prolific,3.2.4,Win32,60,5ea186c334f3aa036bdd1c8b,,1,0,81,8,1,80
,,,,,,,,,,,,,,,,,,,,,,,,,,,,,,,,,,,,,,,,,c,7.267999887,SANDWIC,FALSE,,,,,,,113,boca,Catalan,Sounds/cat_boca.mp3,2020-06-05_15h37.37.265,TranslationElicitation_eng-prolific,3.2.4,Win32,60,5ea186c334f3aa036bdd1c8b,,1,0,81,8,1,80
,,,,,,,,,,,,,,,,,,,,,,,,,,,,,,,,,,,,,,,,,h,7.614999771,SANDWICH,FALSE,,,,,,,113,boca,Catalan,Sounds/cat_boca.mp3,2020-06-05_15h37.37.265,TranslationElicitation_eng-prolific,3.2.4,Win32,60,5ea186c334f3aa036bdd1c8b,,1,0,81,8,1,80
,,,,,,,,,,,,,,,,,,,,,,,,,,,,,,,,,,,,,,,,,return,8.347999811,SANDWICH,FALSE,,,,,,,113,boca,Catalan,Sounds/cat_boca.mp3,2020-06-05_15h37.37.265,TranslationElicitation_eng-prolific,3.2.4,Win32,60,5ea186c334f3aa036bdd1c8b,8.347999811,1,0,81,8,1,80
,,,,,,,,,,,,,,,,,,,,,,,,,,,,,,,,,,,,,,,,,,,,,,,,,,,113,boca,Catalan,Sounds/cat_boca.mp3,2020-06-05_15h37.37.265,TranslationElicitation_eng-prolific,3.2.4,Win32,60,5ea186c334f3aa036bdd1c8b,,1,0,81,8,1,80
,,,,,,,,,,,,,,,,,,,,,,,,,,,,,,,,,,,,,,,,,s,11.36500001,S,FALSE,,,,,,,187,vaixell,Catalan,Sounds/cat_vaixell.mp3,2020-06-05_15h37.37.265,TranslationElicitation_eng-prolific,3.2.4,Win32,60,5ea186c334f3aa036bdd1c8b,,1,0,81,78,1,80
,,,,,,,,,,,,,,,,,,,,,,,,,,,,,,,,,,,,,,,,,i,11.58099985,SI,FALSE,,,,,,,187,vaixell,Catalan,Sounds/cat_vaixell.mp3,2020-06-05_15h37.37.265,TranslationElicitation_eng-prolific,3.2.4,Win32,60,5ea186c334f3aa036bdd1c8b,,1,0,81,78,1,80
,,,,,,,,,,,,,,,,,,,,,,,,,,,,,,,,,,,,,,,,,n,11.94700003,SIN,FALSE,,,,,,,187,vaixell,Catalan,Sounds/cat_vaixell.mp3,2020-06-05_15h37.37.265,TranslationElicitation_eng-prolific,3.2.4,Win32,60,5ea186c334f3aa036bdd1c8b,,1,0,81,78,1,80
,,,,,,,,,,,,,,,,,,,,,,,,,,,,,,,,,,,,,,,,,g,12.23000002,SING,FALSE,,,,,,,187,vaixell,Catalan,Sounds/cat_vaixell.mp3,2020-06-05_15h37.37.265,TranslationElicitation_eng-prolific,3.2.4,Win32,60,5ea186c334f3aa036bdd1c8b,,1,0,81,78,1,80
