consentKey.keys,consentKey.rt,languageL1Key.keys,languageL1Key.rt,languageL2,languageL2OralKey.keys,languageL2OralKey.rt,languageL2WrittenKey.keys,languageL2WrittenKey.rt,languageL3OralKey.keys,languageL3OralKey.rt,languageL3WrittenKey.keys,languageL3WrittenKey.rt,languageCatalanOralKey.keys,languageCatalanOralKey.rt,languageCatalanWrittenKey.keys,languageCatalanWrittenKey.rt,languageCatalanTimeKey.keys,languageCatalanTimeKey.rt,languageSpanishOralKey.keys,languageSpanishOralKey.rt,languageSpanishWrittenKey.keys,languageSpanishWrittenKey.rt,languageSpanishTimeKey.keys,languageSpanishTimeKey.rt,age,demoSexKey.keys,demoSexKey.rt,demoEducationKey.keys,demoEducationKey.rt,city,demoVisionKey.keys,demoVisionKey.rt,demoLanguageKey.keys,demoLanguageKey.rt,setupLocationKey.keys,setupLocationKey.rt,setupNoiseKey.keys,setupNoiseKey.rt,instructionsKeys.keys,instructionsKeys.rt,keyPressed,keyPressTime,inputText,error,trialsPracticeCatalan.thisRepN,trialsPracticeCatalan.thisTrialN,trialsPracticeCatalan.thisN,trialsPracticeCatalan.thisIndex,trialsPracticeCatalan.ran,trialsPracticeCatalan.order,trial_id,word,test_language,soundfile,date,expName,psychopyVersion,OS,frameRate,participant,trialOffset,trialsCatalan.thisRepN,trialsCatalan.thisTrialN,trialsCatalan.thisN,trialsCatalan.thisIndex,trialsCatalan.ran,trialsCatalan.order
space,5.463000059,e,4.833999872,,,,,,,,,,1,6.036999941,1,7.05700016,1,7.333999872,1,14.31699991,1,2.269999981,1,2.788000107,25,f,1.751000166,4,3.111000061,BRIGHTON,y,3.617999792,n,2.891000032,1,2.967000008,1,5.166000128,space,19.60400009,g,6.14199996,G,FALSE,1,0,5,0,1,4,109,arbre,Catalan,Sounds/cat_arbre.mp3,2020-06-08_18h14.21.182,TranslationElicitation_eng-prolific,3.2.4,Win32,60,5ea1ac832ac60d0762c238a7,,,,,,,
,,,,,,,,,,,,,,,,,,,,,,,,,,,,,,,,,,,,,,,,,r,6.375999928,GR,FALSE,1,0,5,0,1,4,109,arbre,Catalan,Sounds/cat_arbre.mp3,2020-06-08_18h14.21.182,TranslationElicitation_eng-prolific,3.2.4,Win32,60,5ea1ac832ac60d0762c238a7,,,,,,,
,,,,,,,,,,,,,,,,,,,,,,,,,,,,,,,,,,,,,,,,,e,6.476000071,GRE,FALSE,1,0,5,0,1,4,109,arbre,Catalan,Sounds/cat_arbre.mp3,2020-06-08_18h14.21.182,TranslationElicitation_eng-prolific,3.2.4,Win32,60,5ea1ac832ac60d0762c238a7,,,,,,,
,,,,,,,,,,,,,,,,,,,,,,,,,,,,,,,,,,,,,,,,,a,6.67599988,GREA,FALSE,1,0,5,0,1,4,109,arbre,Catalan,Sounds/cat_arbre.mp3,2020-06-08_18h14.21.182,TranslationElicitation_eng-prolific,3.2.4,Win32,60,5ea1ac832ac60d0762c238a7,,,,,,,
,,,,,,,,,,,,,,,,,,,,,,,,,,,,,,,,,,,,,,,,,t,7.092000008,GREAT,FALSE,1,0,5,0,1,4,109,arbre,Catalan,Sounds/cat_arbre.mp3,2020-06-08_18h14.21.182,TranslationElicitation_eng-prolific,3.2.4,Win32,60,5ea1ac832ac60d0762c238a7,,,,,,,
,,,,,,,,,,,,,,,,,,,,,,,,,,,,,,,,,,,,,,,,,return,7.874000072,GREAT,FALSE,1,0,5,0,1,4,109,arbre,Catalan,Sounds/cat_arbre.mp3,2020-06-08_18h14.21.182,TranslationElicitation_eng-prolific,3.2.4,Win32,60,5ea1ac832ac60d0762c238a7,7.874000072,,,,,,
,,,,,,,,,,,,,,,,,,,,,,,,,,,,,,,,,,,,,,,,,,,,,1,0,5,0,1,4,109,arbre,Catalan,Sounds/cat_arbre.mp3,2020-06-08_18h14.21.182,TranslationElicitation_eng-prolific,3.2.4,Win32,60,5ea1ac832ac60d0762c238a7,,,,,,,
,,,,,,,,,,,,,,,,,,,,,,,,,,,,,,,,,,,,,,,,,t,4.844000101,T,FALSE,1,0,5,4,1,4,179,tigre,Catalan,Sounds/cat_tigre.mp3,2020-06-08_18h14.21.182,TranslationElicitation_eng-prolific,3.2.4,Win32,60,5ea1ac832ac60d0762c238a7,,,,,,,
,,,,,,,,,,,,,,,,,,,,,,,,,,,,,,,,,,,,,,,,,i,5.078000069,TI,FALSE,1,0,5,4,1,4,179,tigre,Catalan,Sounds/cat_tigre.mp3,2020-06-08_18h14.21.182,TranslationElicitation_eng-prolific,3.2.4,Win32,60,5ea1ac832ac60d0762c238a7,,,,,,,
,,,,,,,,,,,,,,,,,,,,,,,,,,,,,,,,,,,,,,,,,g,5.210999966,TIG,FALSE,1,0,5,4,1,4,179,tigre,Catalan,Sounds/cat_tigre.mp3,2020-06-08_18h14.21.182,TranslationElicitation_eng-prolific,3.2.4,Win32,60,5ea1ac832ac60d0762c238a7,,,,,,,
,,,,,,,,,,,,,,,,,,,,,,,,,,,,,,,,,,,,,,,,,r,5.377000093,TIGR,FALSE,1,0,5,4,1,4,179,tigre,Catalan,Sounds/cat_tigre.mp3,2020-06-08_18h14.21.182,TranslationElicitation_eng-prolific,3.2.4,Win32,60,5ea1ac832ac60d0762c238a7,,,,,,,
,,,,,,,,,,,,,,,,,,,,,,,,,,,,,,,,,,,,,,,,,e,5.476999998,TIGRE,FALSE,1,0,5,4,1,4,179,tigre,Catalan,Sounds/cat_tigre.mp3,2020-06-08_18h14.21.182,TranslationElicitation_eng-prolific,3.2.4,Win32,60,5ea1ac832ac60d0762c238a7,,,,,,,
,,,,,,,,,,,,,,,,,,,,,,,,,,,,,,,,,,,,,,,,,backspace,6.493000031,TIGR,TRUE,1,0,5,4,1,4,179,tigre,Catalan,Sounds/cat_tigre.mp3,2020-06-08_18h14.21.182,TranslationElicitation_eng-prolific,3.2.4,Win32,60,5ea1ac832ac60d0762c238a7,,,,,,,
,,,,,,,,,,,,,,,,,,,,,,,,,,,,,,,,,,,,,,,,,backspace,6.659000158,TIG,TRUE,1,0,5,4,1,4,179,tigre,Catalan,Sounds/cat_tigre.mp3,2020-06-08_18h14.21.182,TranslationElicitation_eng-prolific,3.2.4,Win32,60,5ea1ac832ac60d0762c238a7,,,,,,,
,,,,,,,,,,,,,,,,,,,,,,,,,,,,,,,,,,,,,,,,,e,6.975000143,TIGE,TRUE,1,0,5,4,1,4,179,tigre,Catalan,Sounds/cat_tigre.mp3,2020-06-08_18h14.21.182,TranslationElicitation_eng-prolific,3.2.4,Win32,60,5ea1ac832ac60d0762c238a7,,,,,,,
,,,,,,,,,,,,,,,,,,,,,,,,,,,,,,,,,,,,,,,,,r,7.025000095,TIGER,TRUE,1,0,5,4,1,4,179,tigre,Catalan,Sounds/cat_tigre.mp3,2020-06-08_18h14.21.182,TranslationElicitation_eng-prolific,3.2.4,Win32,60,5ea1ac832ac60d0762c238a7,,,,,,,
,,,,,,,,,,,,,,,,,,,,,,,,,,,,,,,,,,,,,,,,,return,7.424000025,TIGER,TRUE,1,0,5,4,1,4,179,tigre,Catalan,Sounds/cat_tigre.mp3,2020-06-08_18h14.21.182,TranslationElicitation_eng-prolific,3.2.4,Win32,60,5ea1ac832ac60d0762c238a7,7.424000025,,,,,,
,,,,,,,,,,,,,,,,,,,,,,,,,,,,,,,,,,,,,,,,,,,,,1,0,5,4,1,4,179,tigre,Catalan,Sounds/cat_tigre.mp3,2020-06-08_18h14.21.182,TranslationElicitation_eng-prolific,3.2.4,Win32,60,5ea1ac832ac60d0762c238a7,,,,,,,
,,,,,,,,,,,,,,,,,,,,,,,,,,,,,,,,,,,,,,,,,a,4.595999956,A,FALSE,1,0,5,3,1,4,159,onada,Catalan,Sounds/cat_onada.mp3,2020-06-08_18h14.21.182,TranslationElicitation_eng-prolific,3.2.4,Win32,60,5ea1ac832ac60d0762c238a7,,,,,,,
,,,,,,,,,,,,,,,,,,,,,,,,,,,,,,,,,,,,,,,,,n,4.762000084,AN,FALSE,1,0,5,3,1,4,159,onada,Catalan,Sounds/cat_onada.mp3,2020-06-08_18h14.21.182,TranslationElicitation_eng-prolific,3.2.4,Win32,60,5ea1ac832ac60d0762c238a7,,,,,,,
,,,,,,,,,,,,,,,,,,,,,,,,,,,,,,,,,,,,,,,,,o,4.861000061,ANO,FALSE,1,0,5,3,1,4,159,onada,Catalan,Sounds/cat_onada.mp3,2020-06-08_18h14.21.182,TranslationElicitation_eng-prolific,3.2.4,Win32,60,5ea1ac832ac60d0762c238a7,,,,,,,
,,,,,,,,,,,,,,,,,,,,,,,,,,,,,,,,,,,,,,,,,t,5.00999999,ANOT,FALSE,1,0,5,3,1,4,159,onada,Catalan,Sounds/cat_onada.mp3,2020-06-08_18h14.21.182,TranslationElicitation_eng-prolific,3.2.4,Win32,60,5ea1ac832ac60d0762c238a7,,,,,,,
,,,,,,,,,,,,,,,,,,,,,,,,,,,,,,,,,,,,,,,,,h,5.078000069,ANOTH,FALSE,1,0,5,3,1,4,159,onada,Catalan,Sounds/cat_onada.mp3,2020-06-08_18h14.21.182,TranslationElicitation_eng-prolific,3.2.4,Win32,60,5ea1ac832ac60d0762c238a7,,,,,,,
,,,,,,,,,,,,,,,,,,,,,,,,,,,,,,,,,,,,,,,,,e,5.194000006,ANOTHE,FALSE,1,0,5,3,1,4,159,onada,Catalan,Sounds/cat_onada.mp3,2020-06-08_18h14.21.182,TranslationElicitation_eng-prolific,3.2.4,Win32,60,5ea1ac832ac60d0762c238a7,,,,,,,
,,,,,,,,,,,,,,,,,,,,,,,,,,,,,,,,,,,,,,,,,r,5.262000084,ANOTHER,FALSE,1,0,5,3,1,4,159,onada,Catalan,Sounds/cat_onada.mp3,2020-06-08_18h14.21.182,TranslationElicitation_eng-prolific,3.2.4,Win32,60,5ea1ac832ac60d0762c238a7,,,,,,,
,,,,,,,,,,,,,,,,,,,,,,,,,,,,,,,,,,,,,,,,,return,5.578000069,ANOTHER,FALSE,1,0,5,3,1,4,159,onada,Catalan,Sounds/cat_onada.mp3,2020-06-08_18h14.21.182,TranslationElicitation_eng-prolific,3.2.4,Win32,60,5ea1ac832ac60d0762c238a7,5.578000069,,,,,,
,,,,,,,,,,,,,,,,,,,,,,,,,,,,,,,,,,,,,,,,,,,,,1,0,5,3,1,4,159,onada,Catalan,Sounds/cat_onada.mp3,2020-06-08_18h14.21.182,TranslationElicitation_eng-prolific,3.2.4,Win32,60,5ea1ac832ac60d0762c238a7,,,,,,,
,,,,,,,,,,,,,,,,,,,,,,,,,,,,,,,,,,,,,,,,,b,5.394000053,B,FALSE,1,0,5,1,1,4,126,corona,Catalan,Sounds/cat_corona.mp3,2020-06-08_18h14.21.182,TranslationElicitation_eng-prolific,3.2.4,Win32,60,5ea1ac832ac60d0762c238a7,,,,,,,
,,,,,,,,,,,,,,,,,,,,,,,,,,,,,,,,,,,,,,,,,e,6.508000135,BE,FALSE,1,0,5,1,1,4,126,corona,Catalan,Sounds/cat_corona.mp3,2020-06-08_18h14.21.182,TranslationElicitation_eng-prolific,3.2.4,Win32,60,5ea1ac832ac60d0762c238a7,,,,,,,
,,,,,,,,,,,,,,,,,,,,,,,,,,,,,,,,,,,,,,,,,e,6.725000143,BEE,FALSE,1,0,5,1,1,4,126,corona,Catalan,Sounds/cat_corona.mp3,2020-06-08_18h14.21.182,TranslationElicitation_eng-prolific,3.2.4,Win32,60,5ea1ac832ac60d0762c238a7,,,,,,,
,,,,,,,,,,,,,,,,,,,,,,,,,,,,,,,,,,,,,,,,,r,6.809000015,BEER,FALSE,1,0,5,1,1,4,126,corona,Catalan,Sounds/cat_corona.mp3,2020-06-08_18h14.21.182,TranslationElicitation_eng-prolific,3.2.4,Win32,60,5ea1ac832ac60d0762c238a7,,,,,,,
,,,,,,,,,,,,,,,,,,,,,,,,,,,,,,,,,,,,,,,,,return,7.157000065,BEER,FALSE,1,0,5,1,1,4,126,corona,Catalan,Sounds/cat_corona.mp3,2020-06-08_18h14.21.182,TranslationElicitation_eng-prolific,3.2.4,Win32,60,5ea1ac832ac60d0762c238a7,7.157000065,,,,,,
,,,,,,,,,,,,,,,,,,,,,,,,,,,,,,,,,,,,,,,,,,,,,1,0,5,1,1,4,126,corona,Catalan,Sounds/cat_corona.mp3,2020-06-08_18h14.21.182,TranslationElicitation_eng-prolific,3.2.4,Win32,60,5ea1ac832ac60d0762c238a7,,,,,,,
,,,,,,,,,,,,,,,,,,,,,,,,,,,,,,,,,,,,,,,,,j,7.940999985,J,FALSE,1,0,5,2,1,4,147,jaqueta,Catalan,Sounds/cat_jaqueta.mp3,2020-06-08_18h14.21.182,TranslationElicitation_eng-prolific,3.2.4,Win32,60,5ea1ac832ac60d0762c238a7,,,,,,,
,,,,,,,,,,,,,,,,,,,,,,,,,,,,,,,,,,,,,,,,,a,8.073999882,JA,FALSE,1,0,5,2,1,4,147,jaqueta,Catalan,Sounds/cat_jaqueta.mp3,2020-06-08_18h14.21.182,TranslationElicitation_eng-prolific,3.2.4,Win32,60,5ea1ac832ac60d0762c238a7,,,,,,,
,,,,,,,,,,,,,,,,,,,,,,,,,,,,,,,,,,,,,,,,,c,8.641000032,JAC,FALSE,1,0,5,2,1,4,147,jaqueta,Catalan,Sounds/cat_jaqueta.mp3,2020-06-08_18h14.21.182,TranslationElicitation_eng-prolific,3.2.4,Win32,60,5ea1ac832ac60d0762c238a7,,,,,,,
,,,,,,,,,,,,,,,,,,,,,,,,,,,,,,,,,,,,,,,,,k,8.772000074,JACK,FALSE,1,0,5,2,1,4,147,jaqueta,Catalan,Sounds/cat_jaqueta.mp3,2020-06-08_18h14.21.182,TranslationElicitation_eng-prolific,3.2.4,Win32,60,5ea1ac832ac60d0762c238a7,,,,,,,
,,,,,,,,,,,,,,,,,,,,,,,,,,,,,,,,,,,,,,,,,e,8.938999891,JACKE,FALSE,1,0,5,2,1,4,147,jaqueta,Catalan,Sounds/cat_jaqueta.mp3,2020-06-08_18h14.21.182,TranslationElicitation_eng-prolific,3.2.4,Win32,60,5ea1ac832ac60d0762c238a7,,,,,,,
,,,,,,,,,,,,,,,,,,,,,,,,,,,,,,,,,,,,,,,,,t,9.022000074,JACKET,FALSE,1,0,5,2,1,4,147,jaqueta,Catalan,Sounds/cat_jaqueta.mp3,2020-06-08_18h14.21.182,TranslationElicitation_eng-prolific,3.2.4,Win32,60,5ea1ac832ac60d0762c238a7,,,,,,,
,,,,,,,,,,,,,,,,,,,,,,,,,,,,,,,,,,,,,,,,,return,10.13800001,JACKET,FALSE,1,0,5,2,1,4,147,jaqueta,Catalan,Sounds/cat_jaqueta.mp3,2020-06-08_18h14.21.182,TranslationElicitation_eng-prolific,3.2.4,Win32,60,5ea1ac832ac60d0762c238a7,10.13800001,,,,,,
,,,,,,,,,,,,,,,,,,,,,,,,,,,,,,,,,,,,,,,,,,,,,1,0,5,2,1,4,147,jaqueta,Catalan,Sounds/cat_jaqueta.mp3,2020-06-08_18h14.21.182,TranslationElicitation_eng-prolific,3.2.4,Win32,60,5ea1ac832ac60d0762c238a7,,,,,,,
,,,,,,,,,,,,,,,,,,,,,,,,,,,,,,,,,,,,,,,,,b,2.595999956,B,FALSE,,,,,,,118,bou,Catalan,Sounds/cat_bou.mp3,2020-06-08_18h14.21.182,TranslationElicitation_eng-prolific,3.2.4,Win32,60,5ea1ac832ac60d0762c238a7,,1,0,81,13,1,80
,,,,,,,,,,,,,,,,,,,,,,,,,,,,,,,,,,,,,,,,,o,2.745999813,BO,FALSE,,,,,,,118,bou,Catalan,Sounds/cat_bou.mp3,2020-06-08_18h14.21.182,TranslationElicitation_eng-prolific,3.2.4,Win32,60,5ea1ac832ac60d0762c238a7,,1,0,81,13,1,80
,,,,,,,,,,,,,,,,,,,,,,,,,,,,,,,,,,,,,,,,,w,2.912999868,BOW,FALSE,,,,,,,118,bou,Catalan,Sounds/cat_bou.mp3,2020-06-08_18h14.21.182,TranslationElicitation_eng-prolific,3.2.4,Win32,60,5ea1ac832ac60d0762c238a7,,1,0,81,13,1,80
,,,,,,,,,,,,,,,,,,,,,,,,,,,,,,,,,,,,,,,,,l,3.011999846,BOWL,FALSE,,,,,,,118,bou,Catalan,Sounds/cat_bou.mp3,2020-06-08_18h14.21.182,TranslationElicitation_eng-prolific,3.2.4,Win32,60,5ea1ac832ac60d0762c238a7,,1,0,81,13,1,80
,,,,,,,,,,,,,,,,,,,,,,,,,,,,,,,,,,,,,,,,,return,3.361999989,BOWL,FALSE,,,,,,,118,bou,Catalan,Sounds/cat_bou.mp3,2020-06-08_18h14.21.182,TranslationElicitation_eng-prolific,3.2.4,Win32,60,5ea1ac832ac60d0762c238a7,3.361999989,1,0,81,13,1,80
,,,,,,,,,,,,,,,,,,,,,,,,,,,,,,,,,,,,,,,,,,,,,,,,,,,118,bou,Catalan,Sounds/cat_bou.mp3,2020-06-08_18h14.21.182,TranslationElicitation_eng-prolific,3.2.4,Win32,60,5ea1ac832ac60d0762c238a7,,1,0,81,13,1,80
,,,,,,,,,,,,,,,,,,,,,,,,,,,,,,,,,,,,,,,,,g,1.465000153,G,FALSE,,,,,,,142,girafa,Catalan,Sounds/cat_girafa.mp3,2020-06-08_18h14.21.182,TranslationElicitation_eng-prolific,3.2.4,Win32,60,5ea1ac832ac60d0762c238a7,,1,0,81,36,1,80
,,,,,,,,,,,,,,,,,,,,,,,,,,,,,,,,,,,,,,,,,i,1.648000002,GI,FALSE,,,,,,,142,girafa,Catalan,Sounds/cat_girafa.mp3,2020-06-08_18h14.21.182,TranslationElicitation_eng-prolific,3.2.4,Win32,60,5ea1ac832ac60d0762c238a7,,1,0,81,36,1,80
,,,,,,,,,,,,,,,,,,,,,,,,,,,,,,,,,,,,,,,,,f,1.83100009,GIF,FALSE,,,,,,,142,girafa,Catalan,Sounds/cat_girafa.mp3,2020-06-08_18h14.21.182,TranslationElicitation_eng-prolific,3.2.4,Win32,60,5ea1ac832ac60d0762c238a7,,1,0,81,36,1,80
,,,,,,,,,,,,,,,,,,,,,,,,,,,,,,,,,,,,,,,,,a,2.015000105,GIFA,FALSE,,,,,,,142,girafa,Catalan,Sounds/cat_girafa.mp3,2020-06-08_18h14.21.182,TranslationElicitation_eng-prolific,3.2.4,Win32,60,5ea1ac832ac60d0762c238a7,,1,0,81,36,1,80
,,,,,,,,,,,,,,,,,,,,,,,,,,,,,,,,,,,,,,,,,backspace,2.764000177,GIF,TRUE,,,,,,,142,girafa,Catalan,Sounds/cat_girafa.mp3,2020-06-08_18h14.21.182,TranslationElicitation_eng-prolific,3.2.4,Win32,60,5ea1ac832ac60d0762c238a7,,1,0,81,36,1,80
,,,,,,,,,,,,,,,,,,,,,,,,,,,,,,,,,,,,,,,,,backspace,2.914000034,GI,TRUE,,,,,,,142,girafa,Catalan,Sounds/cat_girafa.mp3,2020-06-08_18h14.21.182,TranslationElicitation_eng-prolific,3.2.4,Win32,60,5ea1ac832ac60d0762c238a7,,1,0,81,36,1,80
,,,,,,,,,,,,,,,,,,,,,,,,,,,,,,,,,,,,,,,,,r,3.048000097,GIR,TRUE,,,,,,,142,girafa,Catalan,Sounds/cat_girafa.mp3,2020-06-08_18h14.21.182,TranslationElicitation_eng-prolific,3.2.4,Win32,60,5ea1ac832ac60d0762c238a7,,1,0,81,36,1,80
,,,,,,,,,,,,,,,,,,,,,,,,,,,,,,,,,,,,,,,,,a,3.378999949,GIRA,TRUE,,,,,,,142,girafa,Catalan,Sounds/cat_girafa.mp3,2020-06-08_18h14.21.182,TranslationElicitation_eng-prolific,3.2.4,Win32,60,5ea1ac832ac60d0762c238a7,,1,0,81,36,1,80
,,,,,,,,,,,,,,,,,,,,,,,,,,,,,,,,,,,,,,,,,f,3.779000044,GIRAF,TRUE,,,,,,,142,girafa,Catalan,Sounds/cat_girafa.mp3,2020-06-08_18h14.21.182,TranslationElicitation_eng-prolific,3.2.4,Win32,60,5ea1ac832ac60d0762c238a7,,1,0,81,36,1,80
,,,,,,,,,,,,,,,,,,,,,,,,,,,,,,,,,,,,,,,,,f,3.911000013,GIRAFF,TRUE,,,,,,,142,girafa,Catalan,Sounds/cat_girafa.mp3,2020-06-08_18h14.21.182,TranslationElicitation_eng-prolific,3.2.4,Win32,60,5ea1ac832ac60d0762c238a7,,1,0,81,36,1,80
,,,,,,,,,,,,,,,,,,,,,,,,,,,,,,,,,,,,,,,,,e,4.046000004,GIRAFFE,TRUE,,,,,,,142,girafa,Catalan,Sounds/cat_girafa.mp3,2020-06-08_18h14.21.182,TranslationElicitation_eng-prolific,3.2.4,Win32,60,5ea1ac832ac60d0762c238a7,,1,0,81,36,1,80
,,,,,,,,,,,,,,,,,,,,,,,,,,,,,,,,,,,,,,,,,return,4.512000084,GIRAFFE,TRUE,,,,,,,142,girafa,Catalan,Sounds/cat_girafa.mp3,2020-06-08_18h14.21.182,TranslationElicitation_eng-prolific,3.2.4,Win32,60,5ea1ac832ac60d0762c238a7,4.512000084,1,0,81,36,1,80
,,,,,,,,,,,,,,,,,,,,,,,,,,,,,,,,,,,,,,,,,,,,,,,,,,,142,girafa,Catalan,Sounds/cat_girafa.mp3,2020-06-08_18h14.21.182,TranslationElicitation_eng-prolific,3.2.4,Win32,60,5ea1ac832ac60d0762c238a7,,1,0,81,36,1,80
,,,,,,,,,,,,,,,,,,,,,,,,,,,,,,,,,,,,,,,,,e,8.822000027,E,FALSE,,,,,,,155,moneda,Catalan,Sounds/cat_moneda.mp3,2020-06-08_18h14.21.182,TranslationElicitation_eng-prolific,3.2.4,Win32,60,5ea1ac832ac60d0762c238a7,,1,0,81,48,1,80
,,,,,,,,,,,,,,,,,,,,,,,,,,,,,,,,,,,,,,,,,l,8.958999872,EL,FALSE,,,,,,,155,moneda,Catalan,Sounds/cat_moneda.mp3,2020-06-08_18h14.21.182,TranslationElicitation_eng-prolific,3.2.4,Win32,60,5ea1ac832ac60d0762c238a7,,1,0,81,48,1,80
,,,,,,,,,,,,,,,,,,,,,,,,,,,,,,,,,,,,,,,,,e,9.055999994,ELE,FALSE,,,,,,,155,moneda,Catalan,Sounds/cat_moneda.mp3,2020-06-08_18h14.21.182,TranslationElicitation_eng-prolific,3.2.4,Win32,60,5ea1ac832ac60d0762c238a7,,1,0,81,48,1,80
,,,,,,,,,,,,,,,,,,,,,,,,,,,,,,,,,,,,,,,,,p,9.221999884,ELEP,FALSE,,,,,,,155,moneda,Catalan,Sounds/cat_moneda.mp3,2020-06-08_18h14.21.182,TranslationElicitation_eng-prolific,3.2.4,Win32,60,5ea1ac832ac60d0762c238a7,,1,0,81,48,1,80
,,,,,,,,,,,,,,,,,,,,,,,,,,,,,,,,,,,,,,,,,h,9.388000011,ELEPH,FALSE,,,,,,,155,moneda,Catalan,Sounds/cat_moneda.mp3,2020-06-08_18h14.21.182,TranslationElicitation_eng-prolific,3.2.4,Win32,60,5ea1ac832ac60d0762c238a7,,1,0,81,48,1,80
,,,,,,,,,,,,,,,,,,,,,,,,,,,,,,,,,,,,,,,,,a,9.504999876,ELEPHA,FALSE,,,,,,,155,moneda,Catalan,Sounds/cat_moneda.mp3,2020-06-08_18h14.21.182,TranslationElicitation_eng-prolific,3.2.4,Win32,60,5ea1ac832ac60d0762c238a7,,1,0,81,48,1,80
,,,,,,,,,,,,,,,,,,,,,,,,,,,,,,,,,,,,,,,,,n,10.12099981,ELEPHAN,FALSE,,,,,,,155,moneda,Catalan,Sounds/cat_moneda.mp3,2020-06-08_18h14.21.182,TranslationElicitation_eng-prolific,3.2.4,Win32,60,5ea1ac832ac60d0762c238a7,,1,0,81,48,1,80
,,,,,,,,,,,,,,,,,,,,,,,,,,,,,,,,,,,,,,,,,t,10.25399995,ELEPHANT,FALSE,,,,,,,155,moneda,Catalan,Sounds/cat_moneda.mp3,2020-06-08_18h14.21.182,TranslationElicitation_eng-prolific,3.2.4,Win32,60,5ea1ac832ac60d0762c238a7,,1,0,81,48,1,80
,,,,,,,,,,,,,,,,,,,,,,,,,,,,,,,,,,,,,,,,,return,10.86999989,ELEPHANT,FALSE,,,,,,,155,moneda,Catalan,Sounds/cat_moneda.mp3,2020-06-08_18h14.21.182,TranslationElicitation_eng-prolific,3.2.4,Win32,60,5ea1ac832ac60d0762c238a7,10.86999989,1,0,81,48,1,80
,,,,,,,,,,,,,,,,,,,,,,,,,,,,,,,,,,,,,,,,,,,,,,,,,,,155,moneda,Catalan,Sounds/cat_moneda.mp3,2020-06-08_18h14.21.182,TranslationElicitation_eng-prolific,3.2.4,Win32,60,5ea1ac832ac60d0762c238a7,,1,0,81,48,1,80
,,,,,,,,,,,,,,,,,,,,,,,,,,,,,,,,,,,,,,,,,g,1.530999899,G,FALSE,,,,,,,167,pingui,Catalan,Sounds/cat_pingui.mp3,2020-06-08_18h14.21.182,TranslationElicitation_eng-prolific,3.2.4,Win32,60,5ea1ac832ac60d0762c238a7,,1,0,81,59,1,80
,,,,,,,,,,,,,,,,,,,,,,,,,,,,,,,,,,,,,,,,,u,1.664000034,GU,FALSE,,,,,,,167,pingui,Catalan,Sounds/cat_pingui.mp3,2020-06-08_18h14.21.182,TranslationElicitation_eng-prolific,3.2.4,Win32,60,5ea1ac832ac60d0762c238a7,,1,0,81,59,1,80
,,,,,,,,,,,,,,,,,,,,,,,,,,,,,,,,,,,,,,,,,i,1.747999907,GUI,FALSE,,,,,,,167,pingui,Catalan,Sounds/cat_pingui.mp3,2020-06-08_18h14.21.182,TranslationElicitation_eng-prolific,3.2.4,Win32,60,5ea1ac832ac60d0762c238a7,,1,0,81,59,1,80
,,,,,,,,,,,,,,,,,,,,,,,,,,,,,,,,,,,,,,,,,backspace,2.296000004,GU,TRUE,,,,,,,167,pingui,Catalan,Sounds/cat_pingui.mp3,2020-06-08_18h14.21.182,TranslationElicitation_eng-prolific,3.2.4,Win32,60,5ea1ac832ac60d0762c238a7,,1,0,81,59,1,80
,,,,,,,,,,,,,,,,,,,,,,,,,,,,,,,,,,,,,,,,,backspace,2.447000027,G,TRUE,,,,,,,167,pingui,Catalan,Sounds/cat_pingui.mp3,2020-06-08_18h14.21.182,TranslationElicitation_eng-prolific,3.2.4,Win32,60,5ea1ac832ac60d0762c238a7,,1,0,81,59,1,80
,,,,,,,,,,,,,,,,,,,,,,,,,,,,,,,,,,,,,,,,,backspace,2.612999916,,TRUE,,,,,,,167,pingui,Catalan,Sounds/cat_pingui.mp3,2020-06-08_18h14.21.182,TranslationElicitation_eng-prolific,3.2.4,Win32,60,5ea1ac832ac60d0762c238a7,,1,0,81,59,1,80
,,,,,,,,,,,,,,,,,,,,,,,,,,,,,,,,,,,,,,,,,backspace,2.763999939,,TRUE,,,,,,,167,pingui,Catalan,Sounds/cat_pingui.mp3,2020-06-08_18h14.21.182,TranslationElicitation_eng-prolific,3.2.4,Win32,60,5ea1ac832ac60d0762c238a7,,1,0,81,59,1,80
,,,,,,,,,,,,,,,,,,,,,,,,,,,,,,,,,,,,,,,,,p,3.279999971,P,TRUE,,,,,,,167,pingui,Catalan,Sounds/cat_pingui.mp3,2020-06-08_18h14.21.182,TranslationElicitation_eng-prolific,3.2.4,Win32,60,5ea1ac832ac60d0762c238a7,,1,0,81,59,1,80
,,,,,,,,,,,,,,,,,,,,,,,,,,,,,,,,,,,,,,,,,e,3.395999908,PE,TRUE,,,,,,,167,pingui,Catalan,Sounds/cat_pingui.mp3,2020-06-08_18h14.21.182,TranslationElicitation_eng-prolific,3.2.4,Win32,60,5ea1ac832ac60d0762c238a7,,1,0,81,59,1,80
,,,,,,,,,,,,,,,,,,,,,,,,,,,,,,,,,,,,,,,,,n,3.562999964,PEN,TRUE,,,,,,,167,pingui,Catalan,Sounds/cat_pingui.mp3,2020-06-08_18h14.21.182,TranslationElicitation_eng-prolific,3.2.4,Win32,60,5ea1ac832ac60d0762c238a7,,1,0,81,59,1,80
,,,,,,,,,,,,,,,,,,,,,,,,,,,,,,,,,,,,,,,,,g,3.711999893,PENG,TRUE,,,,,,,167,pingui,Catalan,Sounds/cat_pingui.mp3,2020-06-08_18h14.21.182,TranslationElicitation_eng-prolific,3.2.4,Win32,60,5ea1ac832ac60d0762c238a7,,1,0,81,59,1,80
,,,,,,,,,,,,,,,,,,,,,,,,,,,,,,,,,,,,,,,,,u,3.796000004,PENGU,TRUE,,,,,,,167,pingui,Catalan,Sounds/cat_pingui.mp3,2020-06-08_18h14.21.182,TranslationElicitation_eng-prolific,3.2.4,Win32,60,5ea1ac832ac60d0762c238a7,,1,0,81,59,1,80
,,,,,,,,,,,,,,,,,,,,,,,,,,,,,,,,,,,,,,,,,i,3.878999949,PENGUI,TRUE,,,,,,,167,pingui,Catalan,Sounds/cat_pingui.mp3,2020-06-08_18h14.21.182,TranslationElicitation_eng-prolific,3.2.4,Win32,60,5ea1ac832ac60d0762c238a7,,1,0,81,59,1,80
,,,,,,,,,,,,,,,,,,,,,,,,,,,,,,,,,,,,,,,,,n,4.011999846,PENGUIN,TRUE,,,,,,,167,pingui,Catalan,Sounds/cat_pingui.mp3,2020-06-08_18h14.21.182,TranslationElicitation_eng-prolific,3.2.4,Win32,60,5ea1ac832ac60d0762c238a7,,1,0,81,59,1,80
,,,,,,,,,,,,,,,,,,,,,,,,,,,,,,,,,,,,,,,,,return,4.777999878,PENGUIN,TRUE,,,,,,,167,pingui,Catalan,Sounds/cat_pingui.mp3,2020-06-08_18h14.21.182,TranslationElicitation_eng-prolific,3.2.4,Win32,60,5ea1ac832ac60d0762c238a7,4.777999878,1,0,81,59,1,80
,,,,,,,,,,,,,,,,,,,,,,,,,,,,,,,,,,,,,,,,,,,,,,,,,,,167,pingui,Catalan,Sounds/cat_pingui.mp3,2020-06-08_18h14.21.182,TranslationElicitation_eng-prolific,3.2.4,Win32,60,5ea1ac832ac60d0762c238a7,,1,0,81,59,1,80
,,,,,,,,,,,,,,,,,,,,,,,,,,,,,,,,,,,,,,,,,c,2.812999964,C,FALSE,,,,,,,116,bolquer,Catalan,Sounds/cat_bolquer.mp3,2020-06-08_18h14.21.182,TranslationElicitation_eng-prolific,3.2.4,Win32,60,5ea1ac832ac60d0762c238a7,,1,0,81,11,1,80
,,,,,,,,,,,,,,,,,,,,,,,,,,,,,,,,,,,,,,,,,o,2.929000139,CO,FALSE,,,,,,,116,bolquer,Catalan,Sounds/cat_bolquer.mp3,2020-06-08_18h14.21.182,TranslationElicitation_eng-prolific,3.2.4,Win32,60,5ea1ac832ac60d0762c238a7,,1,0,81,11,1,80
,,,,,,,,,,,,,,,,,,,,,,,,,,,,,,,,,,,,,,,,,w,3.046000004,COW,FALSE,,,,,,,116,bolquer,Catalan,Sounds/cat_bolquer.mp3,2020-06-08_18h14.21.182,TranslationElicitation_eng-prolific,3.2.4,Win32,60,5ea1ac832ac60d0762c238a7,,1,0,81,11,1,80
,,,,,,,,,,,,,,,,,,,,,,,,,,,,,,,,,,,,,,,,,return,3.295000076,COW,FALSE,,,,,,,116,bolquer,Catalan,Sounds/cat_bolquer.mp3,2020-06-08_18h14.21.182,TranslationElicitation_eng-prolific,3.2.4,Win32,60,5ea1ac832ac60d0762c238a7,3.295000076,1,0,81,11,1,80
,,,,,,,,,,,,,,,,,,,,,,,,,,,,,,,,,,,,,,,,,,,,,,,,,,,116,bolquer,Catalan,Sounds/cat_bolquer.mp3,2020-06-08_18h14.21.182,TranslationElicitation_eng-prolific,3.2.4,Win32,60,5ea1ac832ac60d0762c238a7,,1,0,81,11,1,80
,,,,,,,,,,,,,,,,,,,,,,,,,,,,,,,,,,,,,,,,,p,7.190999985,P,FALSE,,,,,,,172,poma,Catalan,Sounds/cat_poma.mp3,2020-06-08_18h14.21.182,TranslationElicitation_eng-prolific,3.2.4,Win32,60,5ea1ac832ac60d0762c238a7,,1,0,81,64,1,80
,,,,,,,,,,,,,,,,,,,,,,,,,,,,,,,,,,,,,,,,,o,7.424999952,PO,FALSE,,,,,,,172,poma,Catalan,Sounds/cat_poma.mp3,2020-06-08_18h14.21.182,TranslationElicitation_eng-prolific,3.2.4,Win32,60,5ea1ac832ac60d0762c238a7,,1,0,81,64,1,80
,,,,,,,,,,,,,,,,,,,,,,,,,,,,,,,,,,,,,,,,,t,7.539999962,POT,FALSE,,,,,,,172,poma,Catalan,Sounds/cat_poma.mp3,2020-06-08_18h14.21.182,TranslationElicitation_eng-prolific,3.2.4,Win32,60,5ea1ac832ac60d0762c238a7,,1,0,81,64,1,80
,,,,,,,,,,,,,,,,,,,,,,,,,,,,,,,,,,,,,,,,,a,7.674000025,POTA,FALSE,,,,,,,172,poma,Catalan,Sounds/cat_poma.mp3,2020-06-08_18h14.21.182,TranslationElicitation_eng-prolific,3.2.4,Win32,60,5ea1ac832ac60d0762c238a7,,1,0,81,64,1,80
,,,,,,,,,,,,,,,,,,,,,,,,,,,,,,,,,,,,,,,,,t,7.789999962,POTAT,FALSE,,,,,,,172,poma,Catalan,Sounds/cat_poma.mp3,2020-06-08_18h14.21.182,TranslationElicitation_eng-prolific,3.2.4,Win32,60,5ea1ac832ac60d0762c238a7,,1,0,81,64,1,80
,,,,,,,,,,,,,,,,,,,,,,,,,,,,,,,,,,,,,,,,,o,8.355999947,POTATO,FALSE,,,,,,,172,poma,Catalan,Sounds/cat_poma.mp3,2020-06-08_18h14.21.182,TranslationElicitation_eng-prolific,3.2.4,Win32,60,5ea1ac832ac60d0762c238a7,,1,0,81,64,1,80
,,,,,,,,,,,,,,,,,,,,,,,,,,,,,,,,,,,,,,,,,return,8.70600009,POTATO,FALSE,,,,,,,172,poma,Catalan,Sounds/cat_poma.mp3,2020-06-08_18h14.21.182,TranslationElicitation_eng-prolific,3.2.4,Win32,60,5ea1ac832ac60d0762c238a7,8.70600009,1,0,81,64,1,80
,,,,,,,,,,,,,,,,,,,,,,,,,,,,,,,,,,,,,,,,,,,,,,,,,,,172,poma,Catalan,Sounds/cat_poma.mp3,2020-06-08_18h14.21.182,TranslationElicitation_eng-prolific,3.2.4,Win32,60,5ea1ac832ac60d0762c238a7,,1,0,81,64,1,80
,,,,,,,,,,,,,,,,,,,,,,,,,,,,,,,,,,,,,,,,,h,9.106000185,H,FALSE,,,,,,,176,samarreta,Catalan,Sounds/cat_samarreta.mp3,2020-06-08_18h14.21.182,TranslationElicitation_eng-prolific,3.2.4,Win32,60,5ea1ac832ac60d0762c238a7,,1,0,81,68,1,80
,,,,,,,,,,,,,,,,,,,,,,,,,,,,,,,,,,,,,,,,,a,9.22300005,HA,FALSE,,,,,,,176,samarreta,Catalan,Sounds/cat_samarreta.mp3,2020-06-08_18h14.21.182,TranslationElicitation_eng-prolific,3.2.4,Win32,60,5ea1ac832ac60d0762c238a7,,1,0,81,68,1,80
,,,,,,,,,,,,,,,,,,,,,,,,,,,,,,,,,,,,,,,,,t,9.338999987,HAT,FALSE,,,,,,,176,samarreta,Catalan,Sounds/cat_samarreta.mp3,2020-06-08_18h14.21.182,TranslationElicitation_eng-prolific,3.2.4,Win32,60,5ea1ac832ac60d0762c238a7,,1,0,81,68,1,80
,,,,,,,,,,,,,,,,,,,,,,,,,,,,,,,,,,,,,,,,,return,9.855000019,HAT,FALSE,,,,,,,176,samarreta,Catalan,Sounds/cat_samarreta.mp3,2020-06-08_18h14.21.182,TranslationElicitation_eng-prolific,3.2.4,Win32,60,5ea1ac832ac60d0762c238a7,9.855000019,1,0,81,68,1,80
,,,,,,,,,,,,,,,,,,,,,,,,,,,,,,,,,,,,,,,,,,,,,,,,,,,176,samarreta,Catalan,Sounds/cat_samarreta.mp3,2020-06-08_18h14.21.182,TranslationElicitation_eng-prolific,3.2.4,Win32,60,5ea1ac832ac60d0762c238a7,,1,0,81,68,1,80
,,,,,,,,,,,,,,,,,,,,,,,,,,,,,,,,,,,,,,,,,c,1.248000145,C,FALSE,,,,,,,188,xocolata,Catalan,Sounds/cat_xocolata.mp3,2020-06-08_18h14.21.182,TranslationElicitation_eng-prolific,3.2.4,Win32,60,5ea1ac832ac60d0762c238a7,,1,0,81,79,1,80
,,,,,,,,,,,,,,,,,,,,,,,,,,,,,,,,,,,,,,,,,h,1.498000145,CH,FALSE,,,,,,,188,xocolata,Catalan,Sounds/cat_xocolata.mp3,2020-06-08_18h14.21.182,TranslationElicitation_eng-prolific,3.2.4,Win32,60,5ea1ac832ac60d0762c238a7,,1,0,81,79,1,80
,,,,,,,,,,,,,,,,,,,,,,,,,,,,,,,,,,,,,,,,,o,1.664999962,CHO,FALSE,,,,,,,188,xocolata,Catalan,Sounds/cat_xocolata.mp3,2020-06-08_18h14.21.182,TranslationElicitation_eng-prolific,3.2.4,Win32,60,5ea1ac832ac60d0762c238a7,,1,0,81,79,1,80
,,,,,,,,,,,,,,,,,,,,,,,,,,,,,,,,,,,,,,,,,c,1.930000067,CHOC,FALSE,,,,,,,188,xocolata,Catalan,Sounds/cat_xocolata.mp3,2020-06-08_18h14.21.182,TranslationElicitation_eng-prolific,3.2.4,Win32,60,5ea1ac832ac60d0762c238a7,,1,0,81,79,1,80
,,,,,,,,,,,,,,,,,,,,,,,,,,,,,,,,,,,,,,,,,o,2.164000034,CHOCO,FALSE,,,,,,,188,xocolata,Catalan,Sounds/cat_xocolata.mp3,2020-06-08_18h14.21.182,TranslationElicitation_eng-prolific,3.2.4,Win32,60,5ea1ac832ac60d0762c238a7,,1,0,81,79,1,80
,,,,,,,,,,,,,,,,,,,,,,,,,,,,,,,,,,,,,,,,,l,2.580000162,CHOCOL,FALSE,,,,,,,188,xocolata,Catalan,Sounds/cat_xocolata.mp3,2020-06-08_18h14.21.182,TranslationElicitation_eng-prolific,3.2.4,Win32,60,5ea1ac832ac60d0762c238a7,,1,0,81,79,1,80
,,,,,,,,,,,,,,,,,,,,,,,,,,,,,,,,,,,,,,,,,a,2.729000092,CHOCOLA,FALSE,,,,,,,188,xocolata,Catalan,Sounds/cat_xocolata.mp3,2020-06-08_18h14.21.182,TranslationElicitation_eng-prolific,3.2.4,Win32,60,5ea1ac832ac60d0762c238a7,,1,0,81,79,1,80
,,,,,,,,,,,,,,,,,,,,,,,,,,,,,,,,,,,,,,,,,t,3.163000107,CHOCOLAT,FALSE,,,,,,,188,xocolata,Catalan,Sounds/cat_xocolata.mp3,2020-06-08_18h14.21.182,TranslationElicitation_eng-prolific,3.2.4,Win32,60,5ea1ac832ac60d0762c238a7,,1,0,81,79,1,80
,,,,,,,,,,,,,,,,,,,,,,,,,,,,,,,,,,,,,,,,,e,3.295000076,CHOCOLATE,FALSE,,,,,,,188,xocolata,Catalan,Sounds/cat_xocolata.mp3,2020-06-08_18h14.21.182,TranslationElicitation_eng-prolific,3.2.4,Win32,60,5ea1ac832ac60d0762c238a7,,1,0,81,79,1,80
,,,,,,,,,,,,,,,,,,,,,,,,,,,,,,,,,,,,,,,,,return,3.462000132,CHOCOLATE,FALSE,,,,,,,188,xocolata,Catalan,Sounds/cat_xocolata.mp3,2020-06-08_18h14.21.182,TranslationElicitation_eng-prolific,3.2.4,Win32,60,5ea1ac832ac60d0762c238a7,3.462000132,1,0,81,79,1,80
,,,,,,,,,,,,,,,,,,,,,,,,,,,,,,,,,,,,,,,,,,,,,,,,,,,188,xocolata,Catalan,Sounds/cat_xocolata.mp3,2020-06-08_18h14.21.182,TranslationElicitation_eng-prolific,3.2.4,Win32,60,5ea1ac832ac60d0762c238a7,,1,0,81,79,1,80
,,,,,,,,,,,,,,,,,,,,,,,,,,,,,,,,,,,,,,,,,m,2.761999846,M,FALSE,,,,,,,154,mirall,Catalan,Sounds/cat_mirall.mp3,2020-06-08_18h14.21.182,TranslationElicitation_eng-prolific,3.2.4,Win32,60,5ea1ac832ac60d0762c238a7,,1,0,81,47,1,80
,,,,,,,,,,,,,,,,,,,,,,,,,,,,,,,,,,,,,,,,,i,3.062000036,MI,FALSE,,,,,,,154,mirall,Catalan,Sounds/cat_mirall.mp3,2020-06-08_18h14.21.182,TranslationElicitation_eng-prolific,3.2.4,Win32,60,5ea1ac832ac60d0762c238a7,,1,0,81,47,1,80
,,,,,,,,,,,,,,,,,,,,,,,,,,,,,,,,,,,,,,,,,r,3.243999958,MIR,FALSE,,,,,,,154,mirall,Catalan,Sounds/cat_mirall.mp3,2020-06-08_18h14.21.182,TranslationElicitation_eng-prolific,3.2.4,Win32,60,5ea1ac832ac60d0762c238a7,,1,0,81,47,1,80
,,,,,,,,,,,,,,,,,,,,,,,,,,,,,,,,,,,,,,,,,r,3.394999981,MIRR,FALSE,,,,,,,154,mirall,Catalan,Sounds/cat_mirall.mp3,2020-06-08_18h14.21.182,TranslationElicitation_eng-prolific,3.2.4,Win32,60,5ea1ac832ac60d0762c238a7,,1,0,81,47,1,80
,,,,,,,,,,,,,,,,,,,,,,,,,,,,,,,,,,,,,,,,,o,3.494999886,MIRRO,FALSE,,,,,,,154,mirall,Catalan,Sounds/cat_mirall.mp3,2020-06-08_18h14.21.182,TranslationElicitation_eng-prolific,3.2.4,Win32,60,5ea1ac832ac60d0762c238a7,,1,0,81,47,1,80
,,,,,,,,,,,,,,,,,,,,,,,,,,,,,,,,,,,,,,,,,r,3.595000029,MIRROR,FALSE,,,,,,,154,mirall,Catalan,Sounds/cat_mirall.mp3,2020-06-08_18h14.21.182,TranslationElicitation_eng-prolific,3.2.4,Win32,60,5ea1ac832ac60d0762c238a7,,1,0,81,47,1,80
,,,,,,,,,,,,,,,,,,,,,,,,,,,,,,,,,,,,,,,,,return,3.777999878,MIRROR,FALSE,,,,,,,154,mirall,Catalan,Sounds/cat_mirall.mp3,2020-06-08_18h14.21.182,TranslationElicitation_eng-prolific,3.2.4,Win32,60,5ea1ac832ac60d0762c238a7,3.777999878,1,0,81,47,1,80
,,,,,,,,,,,,,,,,,,,,,,,,,,,,,,,,,,,,,,,,,,,,,,,,,,,154,mirall,Catalan,Sounds/cat_mirall.mp3,2020-06-08_18h14.21.182,TranslationElicitation_eng-prolific,3.2.4,Win32,60,5ea1ac832ac60d0762c238a7,,1,0,81,47,1,80
,,,,,,,,,,,,,,,,,,,,,,,,,,,,,,,,,,,,,,,,,e,2.945999861,E,FALSE,,,,,,,160,orella,Catalan,Sounds/cat_orella.mp3,2020-06-08_18h14.21.182,TranslationElicitation_eng-prolific,3.2.4,Win32,60,5ea1ac832ac60d0762c238a7,,1,0,81,52,1,80
,,,,,,,,,,,,,,,,,,,,,,,,,,,,,,,,,,,,,,,,,a,3.095999956,EA,FALSE,,,,,,,160,orella,Catalan,Sounds/cat_orella.mp3,2020-06-08_18h14.21.182,TranslationElicitation_eng-prolific,3.2.4,Win32,60,5ea1ac832ac60d0762c238a7,,1,0,81,52,1,80
,,,,,,,,,,,,,,,,,,,,,,,,,,,,,,,,,,,,,,,,,r,3.144999981,EAR,FALSE,,,,,,,160,orella,Catalan,Sounds/cat_orella.mp3,2020-06-08_18h14.21.182,TranslationElicitation_eng-prolific,3.2.4,Win32,60,5ea1ac832ac60d0762c238a7,,1,0,81,52,1,80
,,,,,,,,,,,,,,,,,,,,,,,,,,,,,,,,,,,,,,,,,return,3.562000036,EAR,FALSE,,,,,,,160,orella,Catalan,Sounds/cat_orella.mp3,2020-06-08_18h14.21.182,TranslationElicitation_eng-prolific,3.2.4,Win32,60,5ea1ac832ac60d0762c238a7,3.562000036,1,0,81,52,1,80
,,,,,,,,,,,,,,,,,,,,,,,,,,,,,,,,,,,,,,,,,,,,,,,,,,,160,orella,Catalan,Sounds/cat_orella.mp3,2020-06-08_18h14.21.182,TranslationElicitation_eng-prolific,3.2.4,Win32,60,5ea1ac832ac60d0762c238a7,,1,0,81,52,1,80
,,,,,,,,,,,,,,,,,,,,,,,,,,,,,,,,,,,,,,,,,p,1.349000216,P,FALSE,,,,,,,164,patata,Catalan,Sounds/cat_patata.mp3,2020-06-08_18h14.21.182,TranslationElicitation_eng-prolific,3.2.4,Win32,60,5ea1ac832ac60d0762c238a7,,1,0,81,56,1,80
,,,,,,,,,,,,,,,,,,,,,,,,,,,,,,,,,,,,,,,,,o,1.548000097,PO,FALSE,,,,,,,164,patata,Catalan,Sounds/cat_patata.mp3,2020-06-08_18h14.21.182,TranslationElicitation_eng-prolific,3.2.4,Win32,60,5ea1ac832ac60d0762c238a7,,1,0,81,56,1,80
,,,,,,,,,,,,,,,,,,,,,,,,,,,,,,,,,,,,,,,,,t,1.649000168,POT,FALSE,,,,,,,164,patata,Catalan,Sounds/cat_patata.mp3,2020-06-08_18h14.21.182,TranslationElicitation_eng-prolific,3.2.4,Win32,60,5ea1ac832ac60d0762c238a7,,1,0,81,56,1,80
,,,,,,,,,,,,,,,,,,,,,,,,,,,,,,,,,,,,,,,,,a,1.78000021,POTA,FALSE,,,,,,,164,patata,Catalan,Sounds/cat_patata.mp3,2020-06-08_18h14.21.182,TranslationElicitation_eng-prolific,3.2.4,Win32,60,5ea1ac832ac60d0762c238a7,,1,0,81,56,1,80
,,,,,,,,,,,,,,,,,,,,,,,,,,,,,,,,,,,,,,,,,t,1.881000042,POTAT,FALSE,,,,,,,164,patata,Catalan,Sounds/cat_patata.mp3,2020-06-08_18h14.21.182,TranslationElicitation_eng-prolific,3.2.4,Win32,60,5ea1ac832ac60d0762c238a7,,1,0,81,56,1,80
,,,,,,,,,,,,,,,,,,,,,,,,,,,,,,,,,,,,,,,,,o,2.497000217,POTATO,FALSE,,,,,,,164,patata,Catalan,Sounds/cat_patata.mp3,2020-06-08_18h14.21.182,TranslationElicitation_eng-prolific,3.2.4,Win32,60,5ea1ac832ac60d0762c238a7,,1,0,81,56,1,80
,,,,,,,,,,,,,,,,,,,,,,,,,,,,,,,,,,,,,,,,,return,2.947000027,POTATO,FALSE,,,,,,,164,patata,Catalan,Sounds/cat_patata.mp3,2020-06-08_18h14.21.182,TranslationElicitation_eng-prolific,3.2.4,Win32,60,5ea1ac832ac60d0762c238a7,2.947000027,1,0,81,56,1,80
,,,,,,,,,,,,,,,,,,,,,,,,,,,,,,,,,,,,,,,,,,,,,,,,,,,164,patata,Catalan,Sounds/cat_patata.mp3,2020-06-08_18h14.21.182,TranslationElicitation_eng-prolific,3.2.4,Win32,60,5ea1ac832ac60d0762c238a7,,1,0,81,56,1,80
,,,,,,,,,,,,,,,,,,,,,,,,,,,,,,,,,,,,,,,,,m,4.777000189,M,FALSE,,,,,,,107,amanida,Catalan,Sounds/cat_amanida.mp3,2020-06-08_18h14.21.182,TranslationElicitation_eng-prolific,3.2.4,Win32,60,5ea1ac832ac60d0762c238a7,,1,0,81,3,1,80
,,,,,,,,,,,,,,,,,,,,,,,,,,,,,,,,,,,,,,,,,a,4.893000126,MA,FALSE,,,,,,,107,amanida,Catalan,Sounds/cat_amanida.mp3,2020-06-08_18h14.21.182,TranslationElicitation_eng-prolific,3.2.4,Win32,60,5ea1ac832ac60d0762c238a7,,1,0,81,3,1,80
,,,,,,,,,,,,,,,,,,,,,,,,,,,,,,,,,,,,,,,,,n,5.00999999,MAN,FALSE,,,,,,,107,amanida,Catalan,Sounds/cat_amanida.mp3,2020-06-08_18h14.21.182,TranslationElicitation_eng-prolific,3.2.4,Win32,60,5ea1ac832ac60d0762c238a7,,1,0,81,3,1,80
,,,,,,,,,,,,,,,,,,,,,,,,,,,,,,,,,,,,,,,,,return,5.259000063,MAN,FALSE,,,,,,,107,amanida,Catalan,Sounds/cat_amanida.mp3,2020-06-08_18h14.21.182,TranslationElicitation_eng-prolific,3.2.4,Win32,60,5ea1ac832ac60d0762c238a7,5.259000063,1,0,81,3,1,80
,,,,,,,,,,,,,,,,,,,,,,,,,,,,,,,,,,,,,,,,,,,,,,,,,,,107,amanida,Catalan,Sounds/cat_amanida.mp3,2020-06-08_18h14.21.182,TranslationElicitation_eng-prolific,3.2.4,Win32,60,5ea1ac832ac60d0762c238a7,,1,0,81,3,1,80
,,,,,,,,,,,,,,,,,,,,,,,,,,,,,,,,,,,,,,,,,s,4.394999981,S,FALSE,,,,,,,123,cavall,Catalan,Sounds/cat_cavall.mp3,2020-06-08_18h14.21.182,TranslationElicitation_eng-prolific,3.2.4,Win32,60,5ea1ac832ac60d0762c238a7,,1,0,81,18,1,80
,,,,,,,,,,,,,,,,,,,,,,,,,,,,,,,,,,,,,,,,,h,4.609999895,SH,FALSE,,,,,,,123,cavall,Catalan,Sounds/cat_cavall.mp3,2020-06-08_18h14.21.182,TranslationElicitation_eng-prolific,3.2.4,Win32,60,5ea1ac832ac60d0762c238a7,,1,0,81,18,1,80
,,,,,,,,,,,,,,,,,,,,,,,,,,,,,,,,,,,,,,,,,e,4.694000006,SHE,FALSE,,,,,,,123,cavall,Catalan,Sounds/cat_cavall.mp3,2020-06-08_18h14.21.182,TranslationElicitation_eng-prolific,3.2.4,Win32,60,5ea1ac832ac60d0762c238a7,,1,0,81,18,1,80
,,,,,,,,,,,,,,,,,,,,,,,,,,,,,,,,,,,,,,,,,e,4.911000013,SHEE,FALSE,,,,,,,123,cavall,Catalan,Sounds/cat_cavall.mp3,2020-06-08_18h14.21.182,TranslationElicitation_eng-prolific,3.2.4,Win32,60,5ea1ac832ac60d0762c238a7,,1,0,81,18,1,80
,,,,,,,,,,,,,,,,,,,,,,,,,,,,,,,,,,,,,,,,,e,5.078999996,SHEEE,FALSE,,,,,,,123,cavall,Catalan,Sounds/cat_cavall.mp3,2020-06-08_18h14.21.182,TranslationElicitation_eng-prolific,3.2.4,Win32,60,5ea1ac832ac60d0762c238a7,,1,0,81,18,1,80
,,,,,,,,,,,,,,,,,,,,,,,,,,,,,,,,,,,,,,,,,p,5.159999847,SHEEEP,FALSE,,,,,,,123,cavall,Catalan,Sounds/cat_cavall.mp3,2020-06-08_18h14.21.182,TranslationElicitation_eng-prolific,3.2.4,Win32,60,5ea1ac832ac60d0762c238a7,,1,0,81,18,1,80
,,,,,,,,,,,,,,,,,,,,,,,,,,,,,,,,,,,,,,,,,backspace,5.69299984,SHEEE,TRUE,,,,,,,123,cavall,Catalan,Sounds/cat_cavall.mp3,2020-06-08_18h14.21.182,TranslationElicitation_eng-prolific,3.2.4,Win32,60,5ea1ac832ac60d0762c238a7,,1,0,81,18,1,80
,,,,,,,,,,,,,,,,,,,,,,,,,,,,,,,,,,,,,,,,,backspace,5.858999968,SHEE,TRUE,,,,,,,123,cavall,Catalan,Sounds/cat_cavall.mp3,2020-06-08_18h14.21.182,TranslationElicitation_eng-prolific,3.2.4,Win32,60,5ea1ac832ac60d0762c238a7,,1,0,81,18,1,80
,,,,,,,,,,,,,,,,,,,,,,,,,,,,,,,,,,,,,,,,,p,6.508999825,SHEEP,TRUE,,,,,,,123,cavall,Catalan,Sounds/cat_cavall.mp3,2020-06-08_18h14.21.182,TranslationElicitation_eng-prolific,3.2.4,Win32,60,5ea1ac832ac60d0762c238a7,,1,0,81,18,1,80
,,,,,,,,,,,,,,,,,,,,,,,,,,,,,,,,,,,,,,,,,return,6.724999905,SHEEP,TRUE,,,,,,,123,cavall,Catalan,Sounds/cat_cavall.mp3,2020-06-08_18h14.21.182,TranslationElicitation_eng-prolific,3.2.4,Win32,60,5ea1ac832ac60d0762c238a7,6.724999905,1,0,81,18,1,80
,,,,,,,,,,,,,,,,,,,,,,,,,,,,,,,,,,,,,,,,,,,,,,,,,,,123,cavall,Catalan,Sounds/cat_cavall.mp3,2020-06-08_18h14.21.182,TranslationElicitation_eng-prolific,3.2.4,Win32,60,5ea1ac832ac60d0762c238a7,,1,0,81,18,1,80
,,,,,,,,,,,,,,,,,,,,,,,,,,,,,,,,,,,,,,,,,p,3.995000124,P,FALSE,,,,,,,185,ulleres,Catalan,Sounds/cat_ulleres.mp3,2020-06-08_18h14.21.182,TranslationElicitation_eng-prolific,3.2.4,Win32,60,5ea1ac832ac60d0762c238a7,,1,0,81,76,1,80
,,,,,,,,,,,,,,,,,,,,,,,,,,,,,,,,,,,,,,,,,a,4.145000219,PA,FALSE,,,,,,,185,ulleres,Catalan,Sounds/cat_ulleres.mp3,2020-06-08_18h14.21.182,TranslationElicitation_eng-prolific,3.2.4,Win32,60,5ea1ac832ac60d0762c238a7,,1,0,81,76,1,80
,,,,,,,,,,,,,,,,,,,,,,,,,,,,,,,,,,,,,,,,,n,4.311000109,PAN,FALSE,,,,,,,185,ulleres,Catalan,Sounds/cat_ulleres.mp3,2020-06-08_18h14.21.182,TranslationElicitation_eng-prolific,3.2.4,Win32,60,5ea1ac832ac60d0762c238a7,,1,0,81,76,1,80
,,,,,,,,,,,,,,,,,,,,,,,,,,,,,,,,,,,,,,,,,c,4.499000072,PANC,FALSE,,,,,,,185,ulleres,Catalan,Sounds/cat_ulleres.mp3,2020-06-08_18h14.21.182,TranslationElicitation_eng-prolific,3.2.4,Win32,60,5ea1ac832ac60d0762c238a7,,1,0,81,76,1,80
,,,,,,,,,,,,,,,,,,,,,,,,,,,,,,,,,,,,,,,,,a,4.993000031,PANCA,FALSE,,,,,,,185,ulleres,Catalan,Sounds/cat_ulleres.mp3,2020-06-08_18h14.21.182,TranslationElicitation_eng-prolific,3.2.4,Win32,60,5ea1ac832ac60d0762c238a7,,1,0,81,76,1,80
,,,,,,,,,,,,,,,,,,,,,,,,,,,,,,,,,,,,,,,,,k,5.226000071,PANCAK,FALSE,,,,,,,185,ulleres,Catalan,Sounds/cat_ulleres.mp3,2020-06-08_18h14.21.182,TranslationElicitation_eng-prolific,3.2.4,Win32,60,5ea1ac832ac60d0762c238a7,,1,0,81,76,1,80
,,,,,,,,,,,,,,,,,,,,,,,,,,,,,,,,,,,,,,,,,e,5.326000214,PANCAKE,FALSE,,,,,,,185,ulleres,Catalan,Sounds/cat_ulleres.mp3,2020-06-08_18h14.21.182,TranslationElicitation_eng-prolific,3.2.4,Win32,60,5ea1ac832ac60d0762c238a7,,1,0,81,76,1,80
,,,,,,,,,,,,,,,,,,,,,,,,,,,,,,,,,,,,,,,,,s,5.441000223,PANCAKES,FALSE,,,,,,,185,ulleres,Catalan,Sounds/cat_ulleres.mp3,2020-06-08_18h14.21.182,TranslationElicitation_eng-prolific,3.2.4,Win32,60,5ea1ac832ac60d0762c238a7,,1,0,81,76,1,80
,,,,,,,,,,,,,,,,,,,,,,,,,,,,,,,,,,,,,,,,,return,5.792000055,PANCAKES,FALSE,,,,,,,185,ulleres,Catalan,Sounds/cat_ulleres.mp3,2020-06-08_18h14.21.182,TranslationElicitation_eng-prolific,3.2.4,Win32,60,5ea1ac832ac60d0762c238a7,5.792000055,1,0,81,76,1,80
,,,,,,,,,,,,,,,,,,,,,,,,,,,,,,,,,,,,,,,,,,,,,,,,,,,185,ulleres,Catalan,Sounds/cat_ulleres.mp3,2020-06-08_18h14.21.182,TranslationElicitation_eng-prolific,3.2.4,Win32,60,5ea1ac832ac60d0762c238a7,,1,0,81,76,1,80
,,,,,,,,,,,,,,,,,,,,,,,,,,,,,,,,,,,,,,,,,t,6.542999983,T,FALSE,,,,,,,141,gerd,Catalan,Sounds/cat_gerd.mp3,2020-06-08_18h14.21.182,TranslationElicitation_eng-prolific,3.2.4,Win32,60,5ea1ac832ac60d0762c238a7,,1,0,81,35,1,80
,,,,,,,,,,,,,,,,,,,,,,,,,,,,,,,,,,,,,,,,,h,6.626999855,TH,FALSE,,,,,,,141,gerd,Catalan,Sounds/cat_gerd.mp3,2020-06-08_18h14.21.182,TranslationElicitation_eng-prolific,3.2.4,Win32,60,5ea1ac832ac60d0762c238a7,,1,0,81,35,1,80
,,,,,,,,,,,,,,,,,,,,,,,,,,,,,,,,,,,,,,,,,e,6.743999958,THE,FALSE,,,,,,,141,gerd,Catalan,Sounds/cat_gerd.mp3,2020-06-08_18h14.21.182,TranslationElicitation_eng-prolific,3.2.4,Win32,60,5ea1ac832ac60d0762c238a7,,1,0,81,35,1,80
,,,,,,,,,,,,,,,,,,,,,,,,,,,,,,,,,,,,,,,,,r,6.809999943,THER,FALSE,,,,,,,141,gerd,Catalan,Sounds/cat_gerd.mp3,2020-06-08_18h14.21.182,TranslationElicitation_eng-prolific,3.2.4,Win32,60,5ea1ac832ac60d0762c238a7,,1,0,81,35,1,80
,,,,,,,,,,,,,,,,,,,,,,,,,,,,,,,,,,,,,,,,,e,6.926999807,THERE,FALSE,,,,,,,141,gerd,Catalan,Sounds/cat_gerd.mp3,2020-06-08_18h14.21.182,TranslationElicitation_eng-prolific,3.2.4,Win32,60,5ea1ac832ac60d0762c238a7,,1,0,81,35,1,80
,,,,,,,,,,,,,,,,,,,,,,,,,,,,,,,,,,,,,,,,,return,7.475999832,THERE,FALSE,,,,,,,141,gerd,Catalan,Sounds/cat_gerd.mp3,2020-06-08_18h14.21.182,TranslationElicitation_eng-prolific,3.2.4,Win32,60,5ea1ac832ac60d0762c238a7,7.475999832,1,0,81,35,1,80
,,,,,,,,,,,,,,,,,,,,,,,,,,,,,,,,,,,,,,,,,,,,,,,,,,,141,gerd,Catalan,Sounds/cat_gerd.mp3,2020-06-08_18h14.21.182,TranslationElicitation_eng-prolific,3.2.4,Win32,60,5ea1ac832ac60d0762c238a7,,1,0,81,35,1,80
,,,,,,,,,,,,,,,,,,,,,,,,,,,,,,,,,,,,,,,,,w,3.828000069,W,FALSE,,,,,,,105,aigua,Catalan,Sounds/cat_aigua.mp3,2020-06-08_18h14.21.182,TranslationElicitation_eng-prolific,3.2.4,Win32,60,5ea1ac832ac60d0762c238a7,,1,0,81,1,1,80
,,,,,,,,,,,,,,,,,,,,,,,,,,,,,,,,,,,,,,,,,a,4.044000149,WA,FALSE,,,,,,,105,aigua,Catalan,Sounds/cat_aigua.mp3,2020-06-08_18h14.21.182,TranslationElicitation_eng-prolific,3.2.4,Win32,60,5ea1ac832ac60d0762c238a7,,1,0,81,1,1,80
,,,,,,,,,,,,,,,,,,,,,,,,,,,,,,,,,,,,,,,,,t,4.294000149,WAT,FALSE,,,,,,,105,aigua,Catalan,Sounds/cat_aigua.mp3,2020-06-08_18h14.21.182,TranslationElicitation_eng-prolific,3.2.4,Win32,60,5ea1ac832ac60d0762c238a7,,1,0,81,1,1,80
,,,,,,,,,,,,,,,,,,,,,,,,,,,,,,,,,,,,,,,,,e,4.377000093,WATE,FALSE,,,,,,,105,aigua,Catalan,Sounds/cat_aigua.mp3,2020-06-08_18h14.21.182,TranslationElicitation_eng-prolific,3.2.4,Win32,60,5ea1ac832ac60d0762c238a7,,1,0,81,1,1,80
,,,,,,,,,,,,,,,,,,,,,,,,,,,,,,,,,,,,,,,,,r,4.493000031,WATER,FALSE,,,,,,,105,aigua,Catalan,Sounds/cat_aigua.mp3,2020-06-08_18h14.21.182,TranslationElicitation_eng-prolific,3.2.4,Win32,60,5ea1ac832ac60d0762c238a7,,1,0,81,1,1,80
,,,,,,,,,,,,,,,,,,,,,,,,,,,,,,,,,,,,,,,,,return,4.776000023,WATER,FALSE,,,,,,,105,aigua,Catalan,Sounds/cat_aigua.mp3,2020-06-08_18h14.21.182,TranslationElicitation_eng-prolific,3.2.4,Win32,60,5ea1ac832ac60d0762c238a7,4.776000023,1,0,81,1,1,80
,,,,,,,,,,,,,,,,,,,,,,,,,,,,,,,,,,,,,,,,,,,,,,,,,,,105,aigua,Catalan,Sounds/cat_aigua.mp3,2020-06-08_18h14.21.182,TranslationElicitation_eng-prolific,3.2.4,Win32,60,5ea1ac832ac60d0762c238a7,,1,0,81,1,1,80
,,,,,,,,,,,,,,,,,,,,,,,,,,,,,,,,,,,,,,,,,i,5.111999989,I,FALSE,,,,,,,186,ungla,Catalan,Sounds/cat_ungla.mp3,2020-06-08_18h14.21.182,TranslationElicitation_eng-prolific,3.2.4,Win32,60,5ea1ac832ac60d0762c238a7,,1,0,81,77,1,80
,,,,,,,,,,,,,,,,,,,,,,,,,,,,,,,,,,,,,,,,,c,5.312000036,IC,FALSE,,,,,,,186,ungla,Catalan,Sounds/cat_ungla.mp3,2020-06-08_18h14.21.182,TranslationElicitation_eng-prolific,3.2.4,Win32,60,5ea1ac832ac60d0762c238a7,,1,0,81,77,1,80
,,,,,,,,,,,,,,,,,,,,,,,,,,,,,,,,,,,,,,,,,e,5.460999966,ICE,FALSE,,,,,,,186,ungla,Catalan,Sounds/cat_ungla.mp3,2020-06-08_18h14.21.182,TranslationElicitation_eng-prolific,3.2.4,Win32,60,5ea1ac832ac60d0762c238a7,,1,0,81,77,1,80
,,,,,,,,,,,,,,,,,,,,,,,,,,,,,,,,,,,,,,,,,return,5.726000071,ICE,FALSE,,,,,,,186,ungla,Catalan,Sounds/cat_ungla.mp3,2020-06-08_18h14.21.182,TranslationElicitation_eng-prolific,3.2.4,Win32,60,5ea1ac832ac60d0762c238a7,5.726000071,1,0,81,77,1,80
,,,,,,,,,,,,,,,,,,,,,,,,,,,,,,,,,,,,,,,,,,,,,,,,,,,186,ungla,Catalan,Sounds/cat_ungla.mp3,2020-06-08_18h14.21.182,TranslationElicitation_eng-prolific,3.2.4,Win32,60,5ea1ac832ac60d0762c238a7,,1,0,81,77,1,80
,,,,,,,,,,,,,,,,,,,,,,,,,,,,,,,,,,,,,,,,,c,1.829999924,C,FALSE,,,,,,,120,cama,Catalan,Sounds/cat_cama.mp3,2020-06-08_18h14.21.182,TranslationElicitation_eng-prolific,3.2.4,Win32,60,5ea1ac832ac60d0762c238a7,,1,0,81,15,1,80
,,,,,,,,,,,,,,,,,,,,,,,,,,,,,,,,,,,,,,,,,o,2.029000044,CO,FALSE,,,,,,,120,cama,Catalan,Sounds/cat_cama.mp3,2020-06-08_18h14.21.182,TranslationElicitation_eng-prolific,3.2.4,Win32,60,5ea1ac832ac60d0762c238a7,,1,0,81,15,1,80
,,,,,,,,,,,,,,,,,,,,,,,,,,,,,,,,,,,,,,,,,m,2.114000082,COM,FALSE,,,,,,,120,cama,Catalan,Sounds/cat_cama.mp3,2020-06-08_18h14.21.182,TranslationElicitation_eng-prolific,3.2.4,Win32,60,5ea1ac832ac60d0762c238a7,,1,0,81,15,1,80
,,,,,,,,,,,,,,,,,,,,,,,,,,,,,,,,,,,,,,,,,m,2.279000044,COMM,FALSE,,,,,,,120,cama,Catalan,Sounds/cat_cama.mp3,2020-06-08_18h14.21.182,TranslationElicitation_eng-prolific,3.2.4,Win32,60,5ea1ac832ac60d0762c238a7,,1,0,81,15,1,80
,,,,,,,,,,,,,,,,,,,,,,,,,,,,,,,,,,,,,,,,,a,2.394999981,COMMA,FALSE,,,,,,,120,cama,Catalan,Sounds/cat_cama.mp3,2020-06-08_18h14.21.182,TranslationElicitation_eng-prolific,3.2.4,Win32,60,5ea1ac832ac60d0762c238a7,,1,0,81,15,1,80
,,,,,,,,,,,,,,,,,,,,,,,,,,,,,,,,,,,,,,,,,return,3.012000084,COMMA,FALSE,,,,,,,120,cama,Catalan,Sounds/cat_cama.mp3,2020-06-08_18h14.21.182,TranslationElicitation_eng-prolific,3.2.4,Win32,60,5ea1ac832ac60d0762c238a7,3.012000084,1,0,81,15,1,80
,,,,,,,,,,,,,,,,,,,,,,,,,,,,,,,,,,,,,,,,,,,,,,,,,,,120,cama,Catalan,Sounds/cat_cama.mp3,2020-06-08_18h14.21.182,TranslationElicitation_eng-prolific,3.2.4,Win32,60,5ea1ac832ac60d0762c238a7,,1,0,81,15,1,80
,,,,,,,,,,,,,,,,,,,,,,,,,,,,,,,,,,,,,,,,,c,4.262000084,C,FALSE,,,,,,,124,cirera,Catalan,Sounds/cat_cirera.mp3,2020-06-08_18h14.21.182,TranslationElicitation_eng-prolific,3.2.4,Win32,60,5ea1ac832ac60d0762c238a7,,1,0,81,19,1,80
,,,,,,,,,,,,,,,,,,,,,,,,,,,,,,,,,,,,,,,,,e,4.479000092,CE,FALSE,,,,,,,124,cirera,Catalan,Sounds/cat_cirera.mp3,2020-06-08_18h14.21.182,TranslationElicitation_eng-prolific,3.2.4,Win32,60,5ea1ac832ac60d0762c238a7,,1,0,81,19,1,80
,,,,,,,,,,,,,,,,,,,,,,,,,,,,,,,,,,,,,,,,,r,4.597000122,CER,FALSE,,,,,,,124,cirera,Catalan,Sounds/cat_cirera.mp3,2020-06-08_18h14.21.182,TranslationElicitation_eng-prolific,3.2.4,Win32,60,5ea1ac832ac60d0762c238a7,,1,0,81,19,1,80
,,,,,,,,,,,,,,,,,,,,,,,,,,,,,,,,,,,,,,,,,a,4.728000164,CERA,FALSE,,,,,,,124,cirera,Catalan,Sounds/cat_cirera.mp3,2020-06-08_18h14.21.182,TranslationElicitation_eng-prolific,3.2.4,Win32,60,5ea1ac832ac60d0762c238a7,,1,0,81,19,1,80
,,,,,,,,,,,,,,,,,,,,,,,,,,,,,,,,,,,,,,,,,backspace,5.476999998,CER,TRUE,,,,,,,124,cirera,Catalan,Sounds/cat_cirera.mp3,2020-06-08_18h14.21.182,TranslationElicitation_eng-prolific,3.2.4,Win32,60,5ea1ac832ac60d0762c238a7,,1,0,81,19,1,80
,,,,,,,,,,,,,,,,,,,,,,,,,,,,,,,,,,,,,,,,,e,5.544000149,CERE,TRUE,,,,,,,124,cirera,Catalan,Sounds/cat_cirera.mp3,2020-06-08_18h14.21.182,TranslationElicitation_eng-prolific,3.2.4,Win32,60,5ea1ac832ac60d0762c238a7,,1,0,81,19,1,80
,,,,,,,,,,,,,,,,,,,,,,,,,,,,,,,,,,,,,,,,,a,5.628000021,CEREA,TRUE,,,,,,,124,cirera,Catalan,Sounds/cat_cirera.mp3,2020-06-08_18h14.21.182,TranslationElicitation_eng-prolific,3.2.4,Win32,60,5ea1ac832ac60d0762c238a7,,1,0,81,19,1,80
,,,,,,,,,,,,,,,,,,,,,,,,,,,,,,,,,,,,,,,,,l,5.735000134,CEREAL,TRUE,,,,,,,124,cirera,Catalan,Sounds/cat_cirera.mp3,2020-06-08_18h14.21.182,TranslationElicitation_eng-prolific,3.2.4,Win32,60,5ea1ac832ac60d0762c238a7,,1,0,81,19,1,80
,,,,,,,,,,,,,,,,,,,,,,,,,,,,,,,,,,,,,,,,,return,6.110000134,CEREAL,TRUE,,,,,,,124,cirera,Catalan,Sounds/cat_cirera.mp3,2020-06-08_18h14.21.182,TranslationElicitation_eng-prolific,3.2.4,Win32,60,5ea1ac832ac60d0762c238a7,6.110000134,1,0,81,19,1,80
,,,,,,,,,,,,,,,,,,,,,,,,,,,,,,,,,,,,,,,,,,,,,,,,,,,124,cirera,Catalan,Sounds/cat_cirera.mp3,2020-06-08_18h14.21.182,TranslationElicitation_eng-prolific,3.2.4,Win32,60,5ea1ac832ac60d0762c238a7,,1,0,81,19,1,80
,,,,,,,,,,,,,,,,,,,,,,,,,,,,,,,,,,,,,,,,,f,1.482000113,F,FALSE,,,,,,,136,forquilla,Catalan,Sounds/cat_forquilla.mp3,2020-06-08_18h14.21.182,TranslationElicitation_eng-prolific,3.2.4,Win32,60,5ea1ac832ac60d0762c238a7,,1,0,81,30,1,80
,,,,,,,,,,,,,,,,,,,,,,,,,,,,,,,,,,,,,,,,,o,1.599000216,FO,FALSE,,,,,,,136,forquilla,Catalan,Sounds/cat_forquilla.mp3,2020-06-08_18h14.21.182,TranslationElicitation_eng-prolific,3.2.4,Win32,60,5ea1ac832ac60d0762c238a7,,1,0,81,30,1,80
,,,,,,,,,,,,,,,,,,,,,,,,,,,,,,,,,,,,,,,,,r,1.680000067,FOR,FALSE,,,,,,,136,forquilla,Catalan,Sounds/cat_forquilla.mp3,2020-06-08_18h14.21.182,TranslationElicitation_eng-prolific,3.2.4,Win32,60,5ea1ac832ac60d0762c238a7,,1,0,81,30,1,80
,,,,,,,,,,,,,,,,,,,,,,,,,,,,,,,,,,,,,,,,,k,1.799000025,FORK,FALSE,,,,,,,136,forquilla,Catalan,Sounds/cat_forquilla.mp3,2020-06-08_18h14.21.182,TranslationElicitation_eng-prolific,3.2.4,Win32,60,5ea1ac832ac60d0762c238a7,,1,0,81,30,1,80
,,,,,,,,,,,,,,,,,,,,,,,,,,,,,,,,,,,,,,,,,return,2.03000021,FORK,FALSE,,,,,,,136,forquilla,Catalan,Sounds/cat_forquilla.mp3,2020-06-08_18h14.21.182,TranslationElicitation_eng-prolific,3.2.4,Win32,60,5ea1ac832ac60d0762c238a7,2.03000021,1,0,81,30,1,80
,,,,,,,,,,,,,,,,,,,,,,,,,,,,,,,,,,,,,,,,,,,,,,,,,,,136,forquilla,Catalan,Sounds/cat_forquilla.mp3,2020-06-08_18h14.21.182,TranslationElicitation_eng-prolific,3.2.4,Win32,60,5ea1ac832ac60d0762c238a7,,1,0,81,30,1,80
,,,,,,,,,,,,,,,,,,,,,,,,,,,,,,,,,,,,,,,,,p,4.294999838,P,FALSE,,,,,,,104,abella,Catalan,Sounds/cat_abella.mp3,2020-06-08_18h14.21.182,TranslationElicitation_eng-prolific,3.2.4,Win32,60,5ea1ac832ac60d0762c238a7,,1,0,81,0,1,80
,,,,,,,,,,,,,,,,,,,,,,,,,,,,,,,,,,,,,,,,,r,4.361999989,PR,FALSE,,,,,,,104,abella,Catalan,Sounds/cat_abella.mp3,2020-06-08_18h14.21.182,TranslationElicitation_eng-prolific,3.2.4,Win32,60,5ea1ac832ac60d0762c238a7,,1,0,81,0,1,80
,,,,,,,,,,,,,,,,,,,,,,,,,,,,,,,,,,,,,,,,,e,4.494999886,PRE,FALSE,,,,,,,104,abella,Catalan,Sounds/cat_abella.mp3,2020-06-08_18h14.21.182,TranslationElicitation_eng-prolific,3.2.4,Win32,60,5ea1ac832ac60d0762c238a7,,1,0,81,0,1,80
,,,,,,,,,,,,,,,,,,,,,,,,,,,,,,,,,,,,,,,,,t,4.710999966,PRET,FALSE,,,,,,,104,abella,Catalan,Sounds/cat_abella.mp3,2020-06-08_18h14.21.182,TranslationElicitation_eng-prolific,3.2.4,Win32,60,5ea1ac832ac60d0762c238a7,,1,0,81,0,1,80
,,,,,,,,,,,,,,,,,,,,,,,,,,,,,,,,,,,,,,,,,t,4.876999855,PRETT,FALSE,,,,,,,104,abella,Catalan,Sounds/cat_abella.mp3,2020-06-08_18h14.21.182,TranslationElicitation_eng-prolific,3.2.4,Win32,60,5ea1ac832ac60d0762c238a7,,1,0,81,0,1,80
,,,,,,,,,,,,,,,,,,,,,,,,,,,,,,,,,,,,,,,,,y,5.042999983,PRETTY,FALSE,,,,,,,104,abella,Catalan,Sounds/cat_abella.mp3,2020-06-08_18h14.21.182,TranslationElicitation_eng-prolific,3.2.4,Win32,60,5ea1ac832ac60d0762c238a7,,1,0,81,0,1,80
,,,,,,,,,,,,,,,,,,,,,,,,,,,,,,,,,,,,,,,,,return,5.2099998,PRETTY,FALSE,,,,,,,104,abella,Catalan,Sounds/cat_abella.mp3,2020-06-08_18h14.21.182,TranslationElicitation_eng-prolific,3.2.4,Win32,60,5ea1ac832ac60d0762c238a7,5.2099998,1,0,81,0,1,80
,,,,,,,,,,,,,,,,,,,,,,,,,,,,,,,,,,,,,,,,,,,,,,,,,,,104,abella,Catalan,Sounds/cat_abella.mp3,2020-06-08_18h14.21.182,TranslationElicitation_eng-prolific,3.2.4,Win32,60,5ea1ac832ac60d0762c238a7,,1,0,81,0,1,80
,,,,,,,,,,,,,,,,,,,,,,,,,,,,,,,,,,,,,,,,,c,1.497999907,C,FALSE,,,,,,,119,caixa,Catalan,Sounds/cat_caixa.mp3,2020-06-08_18h14.21.182,TranslationElicitation_eng-prolific,3.2.4,Win32,60,5ea1ac832ac60d0762c238a7,,1,0,81,14,1,80
,,,,,,,,,,,,,,,,,,,,,,,,,,,,,,,,,,,,,,,,,a,1.648999929,CA,FALSE,,,,,,,119,caixa,Catalan,Sounds/cat_caixa.mp3,2020-06-08_18h14.21.182,TranslationElicitation_eng-prolific,3.2.4,Win32,60,5ea1ac832ac60d0762c238a7,,1,0,81,14,1,80
,,,,,,,,,,,,,,,,,,,,,,,,,,,,,,,,,,,,,,,,,s,1.697999954,CAS,FALSE,,,,,,,119,caixa,Catalan,Sounds/cat_caixa.mp3,2020-06-08_18h14.21.182,TranslationElicitation_eng-prolific,3.2.4,Win32,60,5ea1ac832ac60d0762c238a7,,1,0,81,14,1,80
,,,,,,,,,,,,,,,,,,,,,,,,,,,,,,,,,,,,,,,,,h,1.963000059,CASH,FALSE,,,,,,,119,caixa,Catalan,Sounds/cat_caixa.mp3,2020-06-08_18h14.21.182,TranslationElicitation_eng-prolific,3.2.4,Win32,60,5ea1ac832ac60d0762c238a7,,1,0,81,14,1,80
,,,,,,,,,,,,,,,,,,,,,,,,,,,,,,,,,,,,,,,,,return,2.131000042,CASH,FALSE,,,,,,,119,caixa,Catalan,Sounds/cat_caixa.mp3,2020-06-08_18h14.21.182,TranslationElicitation_eng-prolific,3.2.4,Win32,60,5ea1ac832ac60d0762c238a7,2.131000042,1,0,81,14,1,80
,,,,,,,,,,,,,,,,,,,,,,,,,,,,,,,,,,,,,,,,,,,,,,,,,,,119,caixa,Catalan,Sounds/cat_caixa.mp3,2020-06-08_18h14.21.182,TranslationElicitation_eng-prolific,3.2.4,Win32,60,5ea1ac832ac60d0762c238a7,,1,0,81,14,1,80
,,,,,,,,,,,,,,,,,,,,,,,,,,,,,,,,,,,,,,,,,n,2.197999954,N,FALSE,,,,,,,162,pa,Catalan,Sounds/cat_pa.mp3,2020-06-08_18h14.21.182,TranslationElicitation_eng-prolific,3.2.4,Win32,60,5ea1ac832ac60d0762c238a7,,1,0,81,54,1,80
,,,,,,,,,,,,,,,,,,,,,,,,,,,,,,,,,,,,,,,,,o,2.379999876,NO,FALSE,,,,,,,162,pa,Catalan,Sounds/cat_pa.mp3,2020-06-08_18h14.21.182,TranslationElicitation_eng-prolific,3.2.4,Win32,60,5ea1ac832ac60d0762c238a7,,1,0,81,54,1,80
,,,,,,,,,,,,,,,,,,,,,,,,,,,,,,,,,,,,,,,,,return,2.679999828,NO,FALSE,,,,,,,162,pa,Catalan,Sounds/cat_pa.mp3,2020-06-08_18h14.21.182,TranslationElicitation_eng-prolific,3.2.4,Win32,60,5ea1ac832ac60d0762c238a7,2.679999828,1,0,81,54,1,80
,,,,,,,,,,,,,,,,,,,,,,,,,,,,,,,,,,,,,,,,,,,,,,,,,,,162,pa,Catalan,Sounds/cat_pa.mp3,2020-06-08_18h14.21.182,TranslationElicitation_eng-prolific,3.2.4,Win32,60,5ea1ac832ac60d0762c238a7,,1,0,81,54,1,80
,,,,,,,,,,,,,,,,,,,,,,,,,,,,,,,,,,,,,,,,,e,2.614000082,E,FALSE,,,,,,,130,entrepa,Catalan,Sounds/cat_entrepa.mp3,2020-06-08_18h14.21.182,TranslationElicitation_eng-prolific,3.2.4,Win32,60,5ea1ac832ac60d0762c238a7,,1,0,81,24,1,80
,,,,,,,,,,,,,,,,,,,,,,,,,,,,,,,,,,,,,,,,,n,2.746999979,EN,FALSE,,,,,,,130,entrepa,Catalan,Sounds/cat_entrepa.mp3,2020-06-08_18h14.21.182,TranslationElicitation_eng-prolific,3.2.4,Win32,60,5ea1ac832ac60d0762c238a7,,1,0,81,24,1,80
,,,,,,,,,,,,,,,,,,,,,,,,,,,,,,,,,,,,,,,,,t,2.862999916,ENT,FALSE,,,,,,,130,entrepa,Catalan,Sounds/cat_entrepa.mp3,2020-06-08_18h14.21.182,TranslationElicitation_eng-prolific,3.2.4,Win32,60,5ea1ac832ac60d0762c238a7,,1,0,81,24,1,80
,,,,,,,,,,,,,,,,,,,,,,,,,,,,,,,,,,,,,,,,,r,2.980000019,ENTR,FALSE,,,,,,,130,entrepa,Catalan,Sounds/cat_entrepa.mp3,2020-06-08_18h14.21.182,TranslationElicitation_eng-prolific,3.2.4,Win32,60,5ea1ac832ac60d0762c238a7,,1,0,81,24,1,80
,,,,,,,,,,,,,,,,,,,,,,,,,,,,,,,,,,,,,,,,,e,3.046000004,ENTRE,FALSE,,,,,,,130,entrepa,Catalan,Sounds/cat_entrepa.mp3,2020-06-08_18h14.21.182,TranslationElicitation_eng-prolific,3.2.4,Win32,60,5ea1ac832ac60d0762c238a7,,1,0,81,24,1,80
,,,,,,,,,,,,,,,,,,,,,,,,,,,,,,,,,,,,,,,,,backspace,3.663000107,ENTR,TRUE,,,,,,,130,entrepa,Catalan,Sounds/cat_entrepa.mp3,2020-06-08_18h14.21.182,TranslationElicitation_eng-prolific,3.2.4,Win32,60,5ea1ac832ac60d0762c238a7,,1,0,81,24,1,80
,,,,,,,,,,,,,,,,,,,,,,,,,,,,,,,,,,,,,,,,,backspace,3.795000076,ENT,TRUE,,,,,,,130,entrepa,Catalan,Sounds/cat_entrepa.mp3,2020-06-08_18h14.21.182,TranslationElicitation_eng-prolific,3.2.4,Win32,60,5ea1ac832ac60d0762c238a7,,1,0,81,24,1,80
,,,,,,,,,,,,,,,,,,,,,,,,,,,,,,,,,,,,,,,,,e,3.861999989,ENTE,TRUE,,,,,,,130,entrepa,Catalan,Sounds/cat_entrepa.mp3,2020-06-08_18h14.21.182,TranslationElicitation_eng-prolific,3.2.4,Win32,60,5ea1ac832ac60d0762c238a7,,1,0,81,24,1,80
,,,,,,,,,,,,,,,,,,,,,,,,,,,,,,,,,,,,,,,,,r,3.928999901,ENTER,TRUE,,,,,,,130,entrepa,Catalan,Sounds/cat_entrepa.mp3,2020-06-08_18h14.21.182,TranslationElicitation_eng-prolific,3.2.4,Win32,60,5ea1ac832ac60d0762c238a7,,1,0,81,24,1,80
,,,,,,,,,,,,,,,,,,,,,,,,,,,,,,,,,,,,,,,,,return,4.345000029,ENTER,TRUE,,,,,,,130,entrepa,Catalan,Sounds/cat_entrepa.mp3,2020-06-08_18h14.21.182,TranslationElicitation_eng-prolific,3.2.4,Win32,60,5ea1ac832ac60d0762c238a7,4.345000029,1,0,81,24,1,80
,,,,,,,,,,,,,,,,,,,,,,,,,,,,,,,,,,,,,,,,,,,,,,,,,,,130,entrepa,Catalan,Sounds/cat_entrepa.mp3,2020-06-08_18h14.21.182,TranslationElicitation_eng-prolific,3.2.4,Win32,60,5ea1ac832ac60d0762c238a7,,1,0,81,24,1,80
,,,,,,,,,,,,,,,,,,,,,,,,,,,,,,,,,,,,,,,,,g,3.180000067,G,FALSE,,,,,,,139,galleda,Catalan,Sounds/cat_galleda.mp3,2020-06-08_18h14.21.182,TranslationElicitation_eng-prolific,3.2.4,Win32,60,5ea1ac832ac60d0762c238a7,,1,0,81,33,1,80
,,,,,,,,,,,,,,,,,,,,,,,,,,,,,,,,,,,,,,,,,u,3.29700017,GU,FALSE,,,,,,,139,galleda,Catalan,Sounds/cat_galleda.mp3,2020-06-08_18h14.21.182,TranslationElicitation_eng-prolific,3.2.4,Win32,60,5ea1ac832ac60d0762c238a7,,1,0,81,33,1,80
,,,,,,,,,,,,,,,,,,,,,,,,,,,,,,,,,,,,,,,,,y,3.414999962,GUY,FALSE,,,,,,,139,galleda,Catalan,Sounds/cat_galleda.mp3,2020-06-08_18h14.21.182,TranslationElicitation_eng-prolific,3.2.4,Win32,60,5ea1ac832ac60d0762c238a7,,1,0,81,33,1,80
,,,,,,,,,,,,,,,,,,,,,,,,,,,,,,,,,,,,,,,,,return,3.648000002,GUY,FALSE,,,,,,,139,galleda,Catalan,Sounds/cat_galleda.mp3,2020-06-08_18h14.21.182,TranslationElicitation_eng-prolific,3.2.4,Win32,60,5ea1ac832ac60d0762c238a7,3.648000002,1,0,81,33,1,80
,,,,,,,,,,,,,,,,,,,,,,,,,,,,,,,,,,,,,,,,,,,,,,,,,,,139,galleda,Catalan,Sounds/cat_galleda.mp3,2020-06-08_18h14.21.182,TranslationElicitation_eng-prolific,3.2.4,Win32,60,5ea1ac832ac60d0762c238a7,,1,0,81,33,1,80
,,,,,,,,,,,,,,,,,,,,,,,,,,,,,,,,,,,,,,,,,s,1.498999834,S,FALSE,,,,,,,131,esponja,Catalan,Sounds/cat_esponja.mp3,2020-06-08_18h14.21.182,TranslationElicitation_eng-prolific,3.2.4,Win32,60,5ea1ac832ac60d0762c238a7,,1,0,81,25,1,80
,,,,,,,,,,,,,,,,,,,,,,,,,,,,,,,,,,,,,,,,,p,1.613999844,SP,FALSE,,,,,,,131,esponja,Catalan,Sounds/cat_esponja.mp3,2020-06-08_18h14.21.182,TranslationElicitation_eng-prolific,3.2.4,Win32,60,5ea1ac832ac60d0762c238a7,,1,0,81,25,1,80
,,,,,,,,,,,,,,,,,,,,,,,,,,,,,,,,,,,,,,,,,o,1.799000025,SPO,FALSE,,,,,,,131,esponja,Catalan,Sounds/cat_esponja.mp3,2020-06-08_18h14.21.182,TranslationElicitation_eng-prolific,3.2.4,Win32,60,5ea1ac832ac60d0762c238a7,,1,0,81,25,1,80
,,,,,,,,,,,,,,,,,,,,,,,,,,,,,,,,,,,,,,,,,n,1.865999937,SPON,FALSE,,,,,,,131,esponja,Catalan,Sounds/cat_esponja.mp3,2020-06-08_18h14.21.182,TranslationElicitation_eng-prolific,3.2.4,Win32,60,5ea1ac832ac60d0762c238a7,,1,0,81,25,1,80
,,,,,,,,,,,,,,,,,,,,,,,,,,,,,,,,,,,,,,,,,g,1.980999947,SPONG,FALSE,,,,,,,131,esponja,Catalan,Sounds/cat_esponja.mp3,2020-06-08_18h14.21.182,TranslationElicitation_eng-prolific,3.2.4,Win32,60,5ea1ac832ac60d0762c238a7,,1,0,81,25,1,80
,,,,,,,,,,,,,,,,,,,,,,,,,,,,,,,,,,,,,,,,,e,2.079999924,SPONGE,FALSE,,,,,,,131,esponja,Catalan,Sounds/cat_esponja.mp3,2020-06-08_18h14.21.182,TranslationElicitation_eng-prolific,3.2.4,Win32,60,5ea1ac832ac60d0762c238a7,,1,0,81,25,1,80
,,,,,,,,,,,,,,,,,,,,,,,,,,,,,,,,,,,,,,,,,return,2.546000004,SPONGE,FALSE,,,,,,,131,esponja,Catalan,Sounds/cat_esponja.mp3,2020-06-08_18h14.21.182,TranslationElicitation_eng-prolific,3.2.4,Win32,60,5ea1ac832ac60d0762c238a7,2.546000004,1,0,81,25,1,80
,,,,,,,,,,,,,,,,,,,,,,,,,,,,,,,,,,,,,,,,,,,,,,,,,,,131,esponja,Catalan,Sounds/cat_esponja.mp3,2020-06-08_18h14.21.182,TranslationElicitation_eng-prolific,3.2.4,Win32,60,5ea1ac832ac60d0762c238a7,,1,0,81,25,1,80
,,,,,,,,,,,,,,,,,,,,,,,,,,,,,,,,,,,,,,,,,y,1.813999891,Y,FALSE,,,,,,,150,lloro,Catalan,Sounds/cat_lloro.mp3,2020-06-08_18h14.21.182,TranslationElicitation_eng-prolific,3.2.4,Win32,60,5ea1ac832ac60d0762c238a7,,1,0,81,43,1,80
,,,,,,,,,,,,,,,,,,,,,,,,,,,,,,,,,,,,,,,,,o,1.947000027,YO,FALSE,,,,,,,150,lloro,Catalan,Sounds/cat_lloro.mp3,2020-06-08_18h14.21.182,TranslationElicitation_eng-prolific,3.2.4,Win32,60,5ea1ac832ac60d0762c238a7,,1,0,81,43,1,80
,,,,,,,,,,,,,,,,,,,,,,,,,,,,,,,,,,,,,,,,,g,2.079999924,YOG,FALSE,,,,,,,150,lloro,Catalan,Sounds/cat_lloro.mp3,2020-06-08_18h14.21.182,TranslationElicitation_eng-prolific,3.2.4,Win32,60,5ea1ac832ac60d0762c238a7,,1,0,81,43,1,80
,,,,,,,,,,,,,,,,,,,,,,,,,,,,,,,,,,,,,,,,,h,2.297999859,YOGH,FALSE,,,,,,,150,lloro,Catalan,Sounds/cat_lloro.mp3,2020-06-08_18h14.21.182,TranslationElicitation_eng-prolific,3.2.4,Win32,60,5ea1ac832ac60d0762c238a7,,1,0,81,43,1,80
,,,,,,,,,,,,,,,,,,,,,,,,,,,,,,,,,,,,,,,,,u,2.398000002,YOGHU,FALSE,,,,,,,150,lloro,Catalan,Sounds/cat_lloro.mp3,2020-06-08_18h14.21.182,TranslationElicitation_eng-prolific,3.2.4,Win32,60,5ea1ac832ac60d0762c238a7,,1,0,81,43,1,80
,,,,,,,,,,,,,,,,,,,,,,,,,,,,,,,,,,,,,,,,,r,2.496999979,YOGHUR,FALSE,,,,,,,150,lloro,Catalan,Sounds/cat_lloro.mp3,2020-06-08_18h14.21.182,TranslationElicitation_eng-prolific,3.2.4,Win32,60,5ea1ac832ac60d0762c238a7,,1,0,81,43,1,80
,,,,,,,,,,,,,,,,,,,,,,,,,,,,,,,,,,,,,,,,,t,2.579999924,YOGHURT,FALSE,,,,,,,150,lloro,Catalan,Sounds/cat_lloro.mp3,2020-06-08_18h14.21.182,TranslationElicitation_eng-prolific,3.2.4,Win32,60,5ea1ac832ac60d0762c238a7,,1,0,81,43,1,80
,,,,,,,,,,,,,,,,,,,,,,,,,,,,,,,,,,,,,,,,,return,3.011999846,YOGHURT,FALSE,,,,,,,150,lloro,Catalan,Sounds/cat_lloro.mp3,2020-06-08_18h14.21.182,TranslationElicitation_eng-prolific,3.2.4,Win32,60,5ea1ac832ac60d0762c238a7,3.011999846,1,0,81,43,1,80
,,,,,,,,,,,,,,,,,,,,,,,,,,,,,,,,,,,,,,,,,,,,,,,,,,,150,lloro,Catalan,Sounds/cat_lloro.mp3,2020-06-08_18h14.21.182,TranslationElicitation_eng-prolific,3.2.4,Win32,60,5ea1ac832ac60d0762c238a7,,1,0,81,43,1,80
,,,,,,,,,,,,,,,,,,,,,,,,,,,,,,,,,,,,,,,,,y,3.07799983,Y,FALSE,,,,,,,148,lleo,Catalan,Sounds/cat_lleo.mp3,2020-06-08_18h14.21.182,TranslationElicitation_eng-prolific,3.2.4,Win32,60,5ea1ac832ac60d0762c238a7,,1,0,81,41,1,80
,,,,,,,,,,,,,,,,,,,,,,,,,,,,,,,,,,,,,,,,,o,3.194999933,YO,FALSE,,,,,,,148,lleo,Catalan,Sounds/cat_lleo.mp3,2020-06-08_18h14.21.182,TranslationElicitation_eng-prolific,3.2.4,Win32,60,5ea1ac832ac60d0762c238a7,,1,0,81,41,1,80
,,,,,,,,,,,,,,,,,,,,,,,,,,,,,,,,,,,,,,,,,g,3.345999956,YOG,FALSE,,,,,,,148,lleo,Catalan,Sounds/cat_lleo.mp3,2020-06-08_18h14.21.182,TranslationElicitation_eng-prolific,3.2.4,Win32,60,5ea1ac832ac60d0762c238a7,,1,0,81,41,1,80
,,,,,,,,,,,,,,,,,,,,,,,,,,,,,,,,,,,,,,,,,h,3.544999838,YOGH,FALSE,,,,,,,148,lleo,Catalan,Sounds/cat_lleo.mp3,2020-06-08_18h14.21.182,TranslationElicitation_eng-prolific,3.2.4,Win32,60,5ea1ac832ac60d0762c238a7,,1,0,81,41,1,80
,,,,,,,,,,,,,,,,,,,,,,,,,,,,,,,,,,,,,,,,,u,3.694000006,YOGHU,FALSE,,,,,,,148,lleo,Catalan,Sounds/cat_lleo.mp3,2020-06-08_18h14.21.182,TranslationElicitation_eng-prolific,3.2.4,Win32,60,5ea1ac832ac60d0762c238a7,,1,0,81,41,1,80
,,,,,,,,,,,,,,,,,,,,,,,,,,,,,,,,,,,,,,,,,r,3.911000013,YOGHUR,FALSE,,,,,,,148,lleo,Catalan,Sounds/cat_lleo.mp3,2020-06-08_18h14.21.182,TranslationElicitation_eng-prolific,3.2.4,Win32,60,5ea1ac832ac60d0762c238a7,,1,0,81,41,1,80
,,,,,,,,,,,,,,,,,,,,,,,,,,,,,,,,,,,,,,,,,t,4.027999878,YOGHURT,FALSE,,,,,,,148,lleo,Catalan,Sounds/cat_lleo.mp3,2020-06-08_18h14.21.182,TranslationElicitation_eng-prolific,3.2.4,Win32,60,5ea1ac832ac60d0762c238a7,,1,0,81,41,1,80
,,,,,,,,,,,,,,,,,,,,,,,,,,,,,,,,,,,,,,,,,return,4.476999998,YOGHURT,FALSE,,,,,,,148,lleo,Catalan,Sounds/cat_lleo.mp3,2020-06-08_18h14.21.182,TranslationElicitation_eng-prolific,3.2.4,Win32,60,5ea1ac832ac60d0762c238a7,4.476999998,1,0,81,41,1,80
,,,,,,,,,,,,,,,,,,,,,,,,,,,,,,,,,,,,,,,,,,,,,,,,,,,148,lleo,Catalan,Sounds/cat_lleo.mp3,2020-06-08_18h14.21.182,TranslationElicitation_eng-prolific,3.2.4,Win32,60,5ea1ac832ac60d0762c238a7,,1,0,81,41,1,80
,,,,,,,,,,,,,,,,,,,,,,,,,,,,,,,,,,,,,,,,,p,4.611999989,P,FALSE,,,,,,,163,papallona,Catalan,Sounds/cat_papallona.mp3,2020-06-08_18h14.21.182,TranslationElicitation_eng-prolific,3.2.4,Win32,60,5ea1ac832ac60d0762c238a7,,1,0,81,55,1,80
,,,,,,,,,,,,,,,,,,,,,,,,,,,,,,,,,,,,,,,,,a,4.728000164,PA,FALSE,,,,,,,163,papallona,Catalan,Sounds/cat_papallona.mp3,2020-06-08_18h14.21.182,TranslationElicitation_eng-prolific,3.2.4,Win32,60,5ea1ac832ac60d0762c238a7,,1,0,81,55,1,80
,,,,,,,,,,,,,,,,,,,,,,,,,,,,,,,,,,,,,,,,,s,4.778000116,PAS,FALSE,,,,,,,163,papallona,Catalan,Sounds/cat_papallona.mp3,2020-06-08_18h14.21.182,TranslationElicitation_eng-prolific,3.2.4,Win32,60,5ea1ac832ac60d0762c238a7,,1,0,81,55,1,80
,,,,,,,,,,,,,,,,,,,,,,,,,,,,,,,,,,,,,,,,,t,5.00999999,PAST,FALSE,,,,,,,163,papallona,Catalan,Sounds/cat_papallona.mp3,2020-06-08_18h14.21.182,TranslationElicitation_eng-prolific,3.2.4,Win32,60,5ea1ac832ac60d0762c238a7,,1,0,81,55,1,80
,,,,,,,,,,,,,,,,,,,,,,,,,,,,,,,,,,,,,,,,,a,5.160000086,PASTA,FALSE,,,,,,,163,papallona,Catalan,Sounds/cat_papallona.mp3,2020-06-08_18h14.21.182,TranslationElicitation_eng-prolific,3.2.4,Win32,60,5ea1ac832ac60d0762c238a7,,1,0,81,55,1,80
,,,,,,,,,,,,,,,,,,,,,,,,,,,,,,,,,,,,,,,,,return,5.476999998,PASTA,FALSE,,,,,,,163,papallona,Catalan,Sounds/cat_papallona.mp3,2020-06-08_18h14.21.182,TranslationElicitation_eng-prolific,3.2.4,Win32,60,5ea1ac832ac60d0762c238a7,5.476999998,1,0,81,55,1,80
,,,,,,,,,,,,,,,,,,,,,,,,,,,,,,,,,,,,,,,,,,,,,,,,,,,163,papallona,Catalan,Sounds/cat_papallona.mp3,2020-06-08_18h14.21.182,TranslationElicitation_eng-prolific,3.2.4,Win32,60,5ea1ac832ac60d0762c238a7,,1,0,81,55,1,80
,,,,,,,,,,,,,,,,,,,,,,,,,,,,,,,,,,,,,,,,,g,4.411000013,G,FALSE,,,,,,,143,globus,Catalan,Sounds/cat_globus.mp3,2020-06-08_18h14.21.182,TranslationElicitation_eng-prolific,3.2.4,Win32,60,5ea1ac832ac60d0762c238a7,,1,0,81,37,1,80
,,,,,,,,,,,,,,,,,,,,,,,,,,,,,,,,,,,,,,,,,l,4.578000069,GL,FALSE,,,,,,,143,globus,Catalan,Sounds/cat_globus.mp3,2020-06-08_18h14.21.182,TranslationElicitation_eng-prolific,3.2.4,Win32,60,5ea1ac832ac60d0762c238a7,,1,0,81,37,1,80
,,,,,,,,,,,,,,,,,,,,,,,,,,,,,,,,,,,,,,,,,a,4.710999966,GLA,FALSE,,,,,,,143,globus,Catalan,Sounds/cat_globus.mp3,2020-06-08_18h14.21.182,TranslationElicitation_eng-prolific,3.2.4,Win32,60,5ea1ac832ac60d0762c238a7,,1,0,81,37,1,80
,,,,,,,,,,,,,,,,,,,,,,,,,,,,,,,,,,,,,,,,,s,4.826999903,GLAS,FALSE,,,,,,,143,globus,Catalan,Sounds/cat_globus.mp3,2020-06-08_18h14.21.182,TranslationElicitation_eng-prolific,3.2.4,Win32,60,5ea1ac832ac60d0762c238a7,,1,0,81,37,1,80
,,,,,,,,,,,,,,,,,,,,,,,,,,,,,,,,,,,,,,,,,s,4.994999886,GLASS,FALSE,,,,,,,143,globus,Catalan,Sounds/cat_globus.mp3,2020-06-08_18h14.21.182,TranslationElicitation_eng-prolific,3.2.4,Win32,60,5ea1ac832ac60d0762c238a7,,1,0,81,37,1,80
,,,,,,,,,,,,,,,,,,,,,,,,,,,,,,,,,,,,,,,,,return,5.210999966,GLASS,FALSE,,,,,,,143,globus,Catalan,Sounds/cat_globus.mp3,2020-06-08_18h14.21.182,TranslationElicitation_eng-prolific,3.2.4,Win32,60,5ea1ac832ac60d0762c238a7,5.210999966,1,0,81,37,1,80
,,,,,,,,,,,,,,,,,,,,,,,,,,,,,,,,,,,,,,,,,,,,,,,,,,,143,globus,Catalan,Sounds/cat_globus.mp3,2020-06-08_18h14.21.182,TranslationElicitation_eng-prolific,3.2.4,Win32,60,5ea1ac832ac60d0762c238a7,,1,0,81,37,1,80
,,,,,,,,,,,,,,,,,,,,,,,,,,,,,,,,,,,,,,,,,g,2.362999916,G,FALSE,,,,,,,140,gat,Catalan,Sounds/cat_gat.mp3,2020-06-08_18h14.21.182,TranslationElicitation_eng-prolific,3.2.4,Win32,60,5ea1ac832ac60d0762c238a7,,1,0,81,34,1,80
,,,,,,,,,,,,,,,,,,,,,,,,,,,,,,,,,,,,,,,,,u,2.629999876,GU,FALSE,,,,,,,140,gat,Catalan,Sounds/cat_gat.mp3,2020-06-08_18h14.21.182,TranslationElicitation_eng-prolific,3.2.4,Win32,60,5ea1ac832ac60d0762c238a7,,1,0,81,34,1,80
,,,,,,,,,,,,,,,,,,,,,,,,,,,,,,,,,,,,,,,,,a,2.796000004,GUA,FALSE,,,,,,,140,gat,Catalan,Sounds/cat_gat.mp3,2020-06-08_18h14.21.182,TranslationElicitation_eng-prolific,3.2.4,Win32,60,5ea1ac832ac60d0762c238a7,,1,0,81,34,1,80
,,,,,,,,,,,,,,,,,,,,,,,,,,,,,,,,,,,,,,,,,r,2.963000059,GUAR,FALSE,,,,,,,140,gat,Catalan,Sounds/cat_gat.mp3,2020-06-08_18h14.21.182,TranslationElicitation_eng-prolific,3.2.4,Win32,60,5ea1ac832ac60d0762c238a7,,1,0,81,34,1,80
,,,,,,,,,,,,,,,,,,,,,,,,,,,,,,,,,,,,,,,,,d,3.162999868,GUARD,FALSE,,,,,,,140,gat,Catalan,Sounds/cat_gat.mp3,2020-06-08_18h14.21.182,TranslationElicitation_eng-prolific,3.2.4,Win32,60,5ea1ac832ac60d0762c238a7,,1,0,81,34,1,80
,,,,,,,,,,,,,,,,,,,,,,,,,,,,,,,,,,,,,,,,,return,3.661000013,GUARD,FALSE,,,,,,,140,gat,Catalan,Sounds/cat_gat.mp3,2020-06-08_18h14.21.182,TranslationElicitation_eng-prolific,3.2.4,Win32,60,5ea1ac832ac60d0762c238a7,3.661000013,1,0,81,34,1,80
,,,,,,,,,,,,,,,,,,,,,,,,,,,,,,,,,,,,,,,,,,,,,,,,,,,140,gat,Catalan,Sounds/cat_gat.mp3,2020-06-08_18h14.21.182,TranslationElicitation_eng-prolific,3.2.4,Win32,60,5ea1ac832ac60d0762c238a7,,1,0,81,34,1,80
,,,,,,,,,,,,,,,,,,,,,,,,,,,,,,,,,,,,,,,,,d,2.611999989,D,FALSE,,,,,,,129,dit,Catalan,Sounds/cat_dit.mp3,2020-06-08_18h14.21.182,TranslationElicitation_eng-prolific,3.2.4,Win32,60,5ea1ac832ac60d0762c238a7,,1,0,81,23,1,80
,,,,,,,,,,,,,,,,,,,,,,,,,,,,,,,,,,,,,,,,,e,2.862999916,DE,FALSE,,,,,,,129,dit,Catalan,Sounds/cat_dit.mp3,2020-06-08_18h14.21.182,TranslationElicitation_eng-prolific,3.2.4,Win32,60,5ea1ac832ac60d0762c238a7,,1,0,81,23,1,80
,,,,,,,,,,,,,,,,,,,,,,,,,,,,,,,,,,,,,,,,,e,3.010999918,DEE,FALSE,,,,,,,129,dit,Catalan,Sounds/cat_dit.mp3,2020-06-08_18h14.21.182,TranslationElicitation_eng-prolific,3.2.4,Win32,60,5ea1ac832ac60d0762c238a7,,1,0,81,23,1,80
,,,,,,,,,,,,,,,,,,,,,,,,,,,,,,,,,,,,,,,,,d,3.144999981,DEED,FALSE,,,,,,,129,dit,Catalan,Sounds/cat_dit.mp3,2020-06-08_18h14.21.182,TranslationElicitation_eng-prolific,3.2.4,Win32,60,5ea1ac832ac60d0762c238a7,,1,0,81,23,1,80
,,,,,,,,,,,,,,,,,,,,,,,,,,,,,,,,,,,,,,,,,return,3.512000084,DEED,FALSE,,,,,,,129,dit,Catalan,Sounds/cat_dit.mp3,2020-06-08_18h14.21.182,TranslationElicitation_eng-prolific,3.2.4,Win32,60,5ea1ac832ac60d0762c238a7,3.512000084,1,0,81,23,1,80
,,,,,,,,,,,,,,,,,,,,,,,,,,,,,,,,,,,,,,,,,,,,,,,,,,,129,dit,Catalan,Sounds/cat_dit.mp3,2020-06-08_18h14.21.182,TranslationElicitation_eng-prolific,3.2.4,Win32,60,5ea1ac832ac60d0762c238a7,,1,0,81,23,1,80
,,,,,,,,,,,,,,,,,,,,,,,,,,,,,,,,,,,,,,,,,t,2.578999996,T,FALSE,,,,,,,121,camisa,Catalan,Sounds/cat_camisa.mp3,2020-06-08_18h14.21.182,TranslationElicitation_eng-prolific,3.2.4,Win32,60,5ea1ac832ac60d0762c238a7,,1,0,81,16,1,80
,,,,,,,,,,,,,,,,,,,,,,,,,,,,,,,,,,,,,,,,,o,2.779000044,TO,FALSE,,,,,,,121,camisa,Catalan,Sounds/cat_camisa.mp3,2020-06-08_18h14.21.182,TranslationElicitation_eng-prolific,3.2.4,Win32,60,5ea1ac832ac60d0762c238a7,,1,0,81,16,1,80
,,,,,,,,,,,,,,,,,,,,,,,,,,,,,,,,,,,,,,,,,p,2.796000004,TOP,FALSE,,,,,,,121,camisa,Catalan,Sounds/cat_camisa.mp3,2020-06-08_18h14.21.182,TranslationElicitation_eng-prolific,3.2.4,Win32,60,5ea1ac832ac60d0762c238a7,,1,0,81,16,1,80
,,,,,,,,,,,,,,,,,,,,,,,,,,,,,,,,,,,,,,,,,return,3.396000147,TOP,FALSE,,,,,,,121,camisa,Catalan,Sounds/cat_camisa.mp3,2020-06-08_18h14.21.182,TranslationElicitation_eng-prolific,3.2.4,Win32,60,5ea1ac832ac60d0762c238a7,3.396000147,1,0,81,16,1,80
,,,,,,,,,,,,,,,,,,,,,,,,,,,,,,,,,,,,,,,,,,,,,,,,,,,121,camisa,Catalan,Sounds/cat_camisa.mp3,2020-06-08_18h14.21.182,TranslationElicitation_eng-prolific,3.2.4,Win32,60,5ea1ac832ac60d0762c238a7,,1,0,81,16,1,80
,,,,,,,,,,,,,,,,,,,,,,,,,,,,,,,,,,,,,,,,,d,2.679999828,D,FALSE,,,,,,,180,tisores,Catalan,Sounds/cat_tisores.mp3,2020-06-08_18h14.21.182,TranslationElicitation_eng-prolific,3.2.4,Win32,60,5ea1ac832ac60d0762c238a7,,1,0,81,71,1,80
,,,,,,,,,,,,,,,,,,,,,,,,,,,,,,,,,,,,,,,,,e,2.828999996,DE,FALSE,,,,,,,180,tisores,Catalan,Sounds/cat_tisores.mp3,2020-06-08_18h14.21.182,TranslationElicitation_eng-prolific,3.2.4,Win32,60,5ea1ac832ac60d0762c238a7,,1,0,81,71,1,80
,,,,,,,,,,,,,,,,,,,,,,,,,,,,,,,,,,,,,,,,,s,2.977999926,DES,FALSE,,,,,,,180,tisores,Catalan,Sounds/cat_tisores.mp3,2020-06-08_18h14.21.182,TranslationElicitation_eng-prolific,3.2.4,Win32,60,5ea1ac832ac60d0762c238a7,,1,0,81,71,1,80
,,,,,,,,,,,,,,,,,,,,,,,,,,,,,,,,,,,,,,,,,s,3.145999908,DESS,FALSE,,,,,,,180,tisores,Catalan,Sounds/cat_tisores.mp3,2020-06-08_18h14.21.182,TranslationElicitation_eng-prolific,3.2.4,Win32,60,5ea1ac832ac60d0762c238a7,,1,0,81,71,1,80
,,,,,,,,,,,,,,,,,,,,,,,,,,,,,,,,,,,,,,,,,e,3.245999813,DESSE,FALSE,,,,,,,180,tisores,Catalan,Sounds/cat_tisores.mp3,2020-06-08_18h14.21.182,TranslationElicitation_eng-prolific,3.2.4,Win32,60,5ea1ac832ac60d0762c238a7,,1,0,81,71,1,80
,,,,,,,,,,,,,,,,,,,,,,,,,,,,,,,,,,,,,,,,,r,3.34499979,DESSER,FALSE,,,,,,,180,tisores,Catalan,Sounds/cat_tisores.mp3,2020-06-08_18h14.21.182,TranslationElicitation_eng-prolific,3.2.4,Win32,60,5ea1ac832ac60d0762c238a7,,1,0,81,71,1,80
,,,,,,,,,,,,,,,,,,,,,,,,,,,,,,,,,,,,,,,,,t,3.530999899,DESSERT,FALSE,,,,,,,180,tisores,Catalan,Sounds/cat_tisores.mp3,2020-06-08_18h14.21.182,TranslationElicitation_eng-prolific,3.2.4,Win32,60,5ea1ac832ac60d0762c238a7,,1,0,81,71,1,80
,,,,,,,,,,,,,,,,,,,,,,,,,,,,,,,,,,,,,,,,,s,3.711999893,DESSERTS,FALSE,,,,,,,180,tisores,Catalan,Sounds/cat_tisores.mp3,2020-06-08_18h14.21.182,TranslationElicitation_eng-prolific,3.2.4,Win32,60,5ea1ac832ac60d0762c238a7,,1,0,81,71,1,80
,,,,,,,,,,,,,,,,,,,,,,,,,,,,,,,,,,,,,,,,,return,3.928999901,DESSERTS,FALSE,,,,,,,180,tisores,Catalan,Sounds/cat_tisores.mp3,2020-06-08_18h14.21.182,TranslationElicitation_eng-prolific,3.2.4,Win32,60,5ea1ac832ac60d0762c238a7,3.928999901,1,0,81,71,1,80
,,,,,,,,,,,,,,,,,,,,,,,,,,,,,,,,,,,,,,,,,,,,,,,,,,,180,tisores,Catalan,Sounds/cat_tisores.mp3,2020-06-08_18h14.21.182,TranslationElicitation_eng-prolific,3.2.4,Win32,60,5ea1ac832ac60d0762c238a7,,1,0,81,71,1,80
,,,,,,,,,,,,,,,,,,,,,,,,,,,,,,,,,,,,,,,,,b,1.467000008,B,FALSE,,,,,,,117,boto,Catalan,Sounds/cat_boto.mp3,2020-06-08_18h14.21.182,TranslationElicitation_eng-prolific,3.2.4,Win32,60,5ea1ac832ac60d0762c238a7,,1,0,81,12,1,80
,,,,,,,,,,,,,,,,,,,,,,,,,,,,,,,,,,,,,,,,,o,1.599999905,BO,FALSE,,,,,,,117,boto,Catalan,Sounds/cat_boto.mp3,2020-06-08_18h14.21.182,TranslationElicitation_eng-prolific,3.2.4,Win32,60,5ea1ac832ac60d0762c238a7,,1,0,81,12,1,80
,,,,,,,,,,,,,,,,,,,,,,,,,,,,,,,,,,,,,,,,,t,1.73300004,BOT,FALSE,,,,,,,117,boto,Catalan,Sounds/cat_boto.mp3,2020-06-08_18h14.21.182,TranslationElicitation_eng-prolific,3.2.4,Win32,60,5ea1ac832ac60d0762c238a7,,1,0,81,12,1,80
,,,,,,,,,,,,,,,,,,,,,,,,,,,,,,,,,,,,,,,,,t,1.815000057,BOTT,FALSE,,,,,,,117,boto,Catalan,Sounds/cat_boto.mp3,2020-06-08_18h14.21.182,TranslationElicitation_eng-prolific,3.2.4,Win32,60,5ea1ac832ac60d0762c238a7,,1,0,81,12,1,80
,,,,,,,,,,,,,,,,,,,,,,,,,,,,,,,,,,,,,,,,,l,2.381000042,BOTTL,FALSE,,,,,,,117,boto,Catalan,Sounds/cat_boto.mp3,2020-06-08_18h14.21.182,TranslationElicitation_eng-prolific,3.2.4,Win32,60,5ea1ac832ac60d0762c238a7,,1,0,81,12,1,80
,,,,,,,,,,,,,,,,,,,,,,,,,,,,,,,,,,,,,,,,,e,2.447999954,BOTTLE,FALSE,,,,,,,117,boto,Catalan,Sounds/cat_boto.mp3,2020-06-08_18h14.21.182,TranslationElicitation_eng-prolific,3.2.4,Win32,60,5ea1ac832ac60d0762c238a7,,1,0,81,12,1,80
,,,,,,,,,,,,,,,,,,,,,,,,,,,,,,,,,,,,,,,,,return,2.813999891,BOTTLE,FALSE,,,,,,,117,boto,Catalan,Sounds/cat_boto.mp3,2020-06-08_18h14.21.182,TranslationElicitation_eng-prolific,3.2.4,Win32,60,5ea1ac832ac60d0762c238a7,2.813999891,1,0,81,12,1,80
,,,,,,,,,,,,,,,,,,,,,,,,,,,,,,,,,,,,,,,,,,,,,,,,,,,117,boto,Catalan,Sounds/cat_boto.mp3,2020-06-08_18h14.21.182,TranslationElicitation_eng-prolific,3.2.4,Win32,60,5ea1ac832ac60d0762c238a7,,1,0,81,12,1,80
,,,,,,,,,,,,,,,,,,,,,,,,,,,,,,,,,,,,,,,,,t,1.048000097,T,FALSE,,,,,,,182,tomaquet,Catalan,Sounds/cat_tomaquet.mp3,2020-06-08_18h14.21.182,TranslationElicitation_eng-prolific,3.2.4,Win32,60,5ea1ac832ac60d0762c238a7,,1,0,81,73,1,80
,,,,,,,,,,,,,,,,,,,,,,,,,,,,,,,,,,,,,,,,,o,1.1650002,TO,FALSE,,,,,,,182,tomaquet,Catalan,Sounds/cat_tomaquet.mp3,2020-06-08_18h14.21.182,TranslationElicitation_eng-prolific,3.2.4,Win32,60,5ea1ac832ac60d0762c238a7,,1,0,81,73,1,80
,,,,,,,,,,,,,,,,,,,,,,,,,,,,,,,,,,,,,,,,,m,1.248000145,TOM,FALSE,,,,,,,182,tomaquet,Catalan,Sounds/cat_tomaquet.mp3,2020-06-08_18h14.21.182,TranslationElicitation_eng-prolific,3.2.4,Win32,60,5ea1ac832ac60d0762c238a7,,1,0,81,73,1,80
,,,,,,,,,,,,,,,,,,,,,,,,,,,,,,,,,,,,,,,,,o,1.398000002,TOMO,FALSE,,,,,,,182,tomaquet,Catalan,Sounds/cat_tomaquet.mp3,2020-06-08_18h14.21.182,TranslationElicitation_eng-prolific,3.2.4,Win32,60,5ea1ac832ac60d0762c238a7,,1,0,81,73,1,80
,,,,,,,,,,,,,,,,,,,,,,,,,,,,,,,,,,,,,,,,,backspace,1.963000059,TOM,TRUE,,,,,,,182,tomaquet,Catalan,Sounds/cat_tomaquet.mp3,2020-06-08_18h14.21.182,TranslationElicitation_eng-prolific,3.2.4,Win32,60,5ea1ac832ac60d0762c238a7,,1,0,81,73,1,80
,,,,,,,,,,,,,,,,,,,,,,,,,,,,,,,,,,,,,,,,,a,2.08100009,TOMA,TRUE,,,,,,,182,tomaquet,Catalan,Sounds/cat_tomaquet.mp3,2020-06-08_18h14.21.182,TranslationElicitation_eng-prolific,3.2.4,Win32,60,5ea1ac832ac60d0762c238a7,,1,0,81,73,1,80
,,,,,,,,,,,,,,,,,,,,,,,,,,,,,,,,,,,,,,,,,t,2.179000139,TOMAT,TRUE,,,,,,,182,tomaquet,Catalan,Sounds/cat_tomaquet.mp3,2020-06-08_18h14.21.182,TranslationElicitation_eng-prolific,3.2.4,Win32,60,5ea1ac832ac60d0762c238a7,,1,0,81,73,1,80
,,,,,,,,,,,,,,,,,,,,,,,,,,,,,,,,,,,,,,,,,o,2.53000021,TOMATO,TRUE,,,,,,,182,tomaquet,Catalan,Sounds/cat_tomaquet.mp3,2020-06-08_18h14.21.182,TranslationElicitation_eng-prolific,3.2.4,Win32,60,5ea1ac832ac60d0762c238a7,,1,0,81,73,1,80
,,,,,,,,,,,,,,,,,,,,,,,,,,,,,,,,,,,,,,,,,return,2.863000154,TOMATO,TRUE,,,,,,,182,tomaquet,Catalan,Sounds/cat_tomaquet.mp3,2020-06-08_18h14.21.182,TranslationElicitation_eng-prolific,3.2.4,Win32,60,5ea1ac832ac60d0762c238a7,2.863000154,1,0,81,73,1,80
,,,,,,,,,,,,,,,,,,,,,,,,,,,,,,,,,,,,,,,,,,,,,,,,,,,182,tomaquet,Catalan,Sounds/cat_tomaquet.mp3,2020-06-08_18h14.21.182,TranslationElicitation_eng-prolific,3.2.4,Win32,60,5ea1ac832ac60d0762c238a7,,1,0,81,73,1,80
,,,,,,,,,,,,,,,,,,,,,,,,,,,,,,,,,,,,,,,,,c,2.895999908,C,FALSE,,,,,,,178,taronja,Catalan,Sounds/cat_taronja.mp3,2020-06-08_18h14.21.182,TranslationElicitation_eng-prolific,3.2.4,Win32,60,5ea1ac832ac60d0762c238a7,,1,0,81,70,1,80
,,,,,,,,,,,,,,,,,,,,,,,,,,,,,,,,,,,,,,,,,backspace,4.093999863,,TRUE,,,,,,,178,taronja,Catalan,Sounds/cat_taronja.mp3,2020-06-08_18h14.21.182,TranslationElicitation_eng-prolific,3.2.4,Win32,60,5ea1ac832ac60d0762c238a7,,1,0,81,70,1,80
,,,,,,,,,,,,,,,,,,,,,,,,,,,,,,,,,,,,,,,,,o,4.32799983,O,TRUE,,,,,,,178,taronja,Catalan,Sounds/cat_taronja.mp3,2020-06-08_18h14.21.182,TranslationElicitation_eng-prolific,3.2.4,Win32,60,5ea1ac832ac60d0762c238a7,,1,0,81,70,1,80
,,,,,,,,,,,,,,,,,,,,,,,,,,,,,,,,,,,,,,,,,v,4.443999767,OV,TRUE,,,,,,,178,taronja,Catalan,Sounds/cat_taronja.mp3,2020-06-08_18h14.21.182,TranslationElicitation_eng-prolific,3.2.4,Win32,60,5ea1ac832ac60d0762c238a7,,1,0,81,70,1,80
,,,,,,,,,,,,,,,,,,,,,,,,,,,,,,,,,,,,,,,,,e,4.54399991,OVE,TRUE,,,,,,,178,taronja,Catalan,Sounds/cat_taronja.mp3,2020-06-08_18h14.21.182,TranslationElicitation_eng-prolific,3.2.4,Win32,60,5ea1ac832ac60d0762c238a7,,1,0,81,70,1,80
,,,,,,,,,,,,,,,,,,,,,,,,,,,,,,,,,,,,,,,,,n,4.875999928,OVEN,TRUE,,,,,,,178,taronja,Catalan,Sounds/cat_taronja.mp3,2020-06-08_18h14.21.182,TranslationElicitation_eng-prolific,3.2.4,Win32,60,5ea1ac832ac60d0762c238a7,,1,0,81,70,1,80
,,,,,,,,,,,,,,,,,,,,,,,,,,,,,,,,,,,,,,,,,return,5.339999914,OVEN,TRUE,,,,,,,178,taronja,Catalan,Sounds/cat_taronja.mp3,2020-06-08_18h14.21.182,TranslationElicitation_eng-prolific,3.2.4,Win32,60,5ea1ac832ac60d0762c238a7,5.339999914,1,0,81,70,1,80
,,,,,,,,,,,,,,,,,,,,,,,,,,,,,,,,,,,,,,,,,,,,,,,,,,,178,taronja,Catalan,Sounds/cat_taronja.mp3,2020-06-08_18h14.21.182,TranslationElicitation_eng-prolific,3.2.4,Win32,60,5ea1ac832ac60d0762c238a7,,1,0,81,70,1,80
,,,,,,,,,,,,,,,,,,,,,,,,,,,,,,,,,,,,,,,,,p,1.597000122,P,FALSE,,,,,,,168,planta,Catalan,Sounds/cat_planta.mp3,2020-06-08_18h14.21.182,TranslationElicitation_eng-prolific,3.2.4,Win32,60,5ea1ac832ac60d0762c238a7,,1,0,81,60,1,80
,,,,,,,,,,,,,,,,,,,,,,,,,,,,,,,,,,,,,,,,,l,1.681000233,PL,FALSE,,,,,,,168,planta,Catalan,Sounds/cat_planta.mp3,2020-06-08_18h14.21.182,TranslationElicitation_eng-prolific,3.2.4,Win32,60,5ea1ac832ac60d0762c238a7,,1,0,81,60,1,80
,,,,,,,,,,,,,,,,,,,,,,,,,,,,,,,,,,,,,,,,,a,1.79700017,PLA,FALSE,,,,,,,168,planta,Catalan,Sounds/cat_planta.mp3,2020-06-08_18h14.21.182,TranslationElicitation_eng-prolific,3.2.4,Win32,60,5ea1ac832ac60d0762c238a7,,1,0,81,60,1,80
,,,,,,,,,,,,,,,,,,,,,,,,,,,,,,,,,,,,,,,,,n,1.947000027,PLAN,FALSE,,,,,,,168,planta,Catalan,Sounds/cat_planta.mp3,2020-06-08_18h14.21.182,TranslationElicitation_eng-prolific,3.2.4,Win32,60,5ea1ac832ac60d0762c238a7,,1,0,81,60,1,80
,,,,,,,,,,,,,,,,,,,,,,,,,,,,,,,,,,,,,,,,,t,2.065000057,PLANT,FALSE,,,,,,,168,planta,Catalan,Sounds/cat_planta.mp3,2020-06-08_18h14.21.182,TranslationElicitation_eng-prolific,3.2.4,Win32,60,5ea1ac832ac60d0762c238a7,,1,0,81,60,1,80
,,,,,,,,,,,,,,,,,,,,,,,,,,,,,,,,,,,,,,,,,return,2.313000202,PLANT,FALSE,,,,,,,168,planta,Catalan,Sounds/cat_planta.mp3,2020-06-08_18h14.21.182,TranslationElicitation_eng-prolific,3.2.4,Win32,60,5ea1ac832ac60d0762c238a7,2.313000202,1,0,81,60,1,80
,,,,,,,,,,,,,,,,,,,,,,,,,,,,,,,,,,,,,,,,,,,,,,,,,,,168,planta,Catalan,Sounds/cat_planta.mp3,2020-06-08_18h14.21.182,TranslationElicitation_eng-prolific,3.2.4,Win32,60,5ea1ac832ac60d0762c238a7,,1,0,81,60,1,80
,,,,,,,,,,,,,,,,,,,,,,,,,,,,,,,,,,,,,,,,,s,1.780999899,S,FALSE,,,,,,,177,sol,Catalan,Sounds/cat_sol.mp3,2020-06-08_18h14.21.182,TranslationElicitation_eng-prolific,3.2.4,Win32,60,5ea1ac832ac60d0762c238a7,,1,0,81,69,1,80
,,,,,,,,,,,,,,,,,,,,,,,,,,,,,,,,,,,,,,,,,a,1.986999989,SA,FALSE,,,,,,,177,sol,Catalan,Sounds/cat_sol.mp3,2020-06-08_18h14.21.182,TranslationElicitation_eng-prolific,3.2.4,Win32,60,5ea1ac832ac60d0762c238a7,,1,0,81,69,1,80
,,,,,,,,,,,,,,,,,,,,,,,,,,,,,,,,,,,,,,,,,l,2.096999884,SAL,FALSE,,,,,,,177,sol,Catalan,Sounds/cat_sol.mp3,2020-06-08_18h14.21.182,TranslationElicitation_eng-prolific,3.2.4,Win32,60,5ea1ac832ac60d0762c238a7,,1,0,81,69,1,80
,,,,,,,,,,,,,,,,,,,,,,,,,,,,,,,,,,,,,,,,,t,2.247999907,SALT,FALSE,,,,,,,177,sol,Catalan,Sounds/cat_sol.mp3,2020-06-08_18h14.21.182,TranslationElicitation_eng-prolific,3.2.4,Win32,60,5ea1ac832ac60d0762c238a7,,1,0,81,69,1,80
,,,,,,,,,,,,,,,,,,,,,,,,,,,,,,,,,,,,,,,,,return,2.546999931,SALT,FALSE,,,,,,,177,sol,Catalan,Sounds/cat_sol.mp3,2020-06-08_18h14.21.182,TranslationElicitation_eng-prolific,3.2.4,Win32,60,5ea1ac832ac60d0762c238a7,2.546999931,1,0,81,69,1,80
,,,,,,,,,,,,,,,,,,,,,,,,,,,,,,,,,,,,,,,,,,,,,,,,,,,177,sol,Catalan,Sounds/cat_sol.mp3,2020-06-08_18h14.21.182,TranslationElicitation_eng-prolific,3.2.4,Win32,60,5ea1ac832ac60d0762c238a7,,1,0,81,69,1,80
,,,,,,,,,,,,,,,,,,,,,,,,,,,,,,,,,,,,,,,,,d,3.311999798,D,FALSE,,,,,,,183,tren,Catalan,Sounds/cat_tren.mp3,2020-06-08_18h14.21.182,TranslationElicitation_eng-prolific,3.2.4,Win32,60,5ea1ac832ac60d0762c238a7,,1,0,81,74,1,80
,,,,,,,,,,,,,,,,,,,,,,,,,,,,,,,,,,,,,,,,,r,3.528999805,DR,FALSE,,,,,,,183,tren,Catalan,Sounds/cat_tren.mp3,2020-06-08_18h14.21.182,TranslationElicitation_eng-prolific,3.2.4,Win32,60,5ea1ac832ac60d0762c238a7,,1,0,81,74,1,80
,,,,,,,,,,,,,,,,,,,,,,,,,,,,,,,,,,,,,,,,,a,3.628999949,DRA,FALSE,,,,,,,183,tren,Catalan,Sounds/cat_tren.mp3,2020-06-08_18h14.21.182,TranslationElicitation_eng-prolific,3.2.4,Win32,60,5ea1ac832ac60d0762c238a7,,1,0,81,74,1,80
,,,,,,,,,,,,,,,,,,,,,,,,,,,,,,,,,,,,,,,,,i,3.744999886,DRAI,FALSE,,,,,,,183,tren,Catalan,Sounds/cat_tren.mp3,2020-06-08_18h14.21.182,TranslationElicitation_eng-prolific,3.2.4,Win32,60,5ea1ac832ac60d0762c238a7,,1,0,81,74,1,80
,,,,,,,,,,,,,,,,,,,,,,,,,,,,,,,,,,,,,,,,,n,3.861999989,DRAIN,FALSE,,,,,,,183,tren,Catalan,Sounds/cat_tren.mp3,2020-06-08_18h14.21.182,TranslationElicitation_eng-prolific,3.2.4,Win32,60,5ea1ac832ac60d0762c238a7,,1,0,81,74,1,80
,,,,,,,,,,,,,,,,,,,,,,,,,,,,,,,,,,,,,,,,,return,4.211999893,DRAIN,FALSE,,,,,,,183,tren,Catalan,Sounds/cat_tren.mp3,2020-06-08_18h14.21.182,TranslationElicitation_eng-prolific,3.2.4,Win32,60,5ea1ac832ac60d0762c238a7,4.211999893,1,0,81,74,1,80
,,,,,,,,,,,,,,,,,,,,,,,,,,,,,,,,,,,,,,,,,,,,,,,,,,,183,tren,Catalan,Sounds/cat_tren.mp3,2020-06-08_18h14.21.182,TranslationElicitation_eng-prolific,3.2.4,Win32,60,5ea1ac832ac60d0762c238a7,,1,0,81,74,1,80
,,,,,,,,,,,,,,,,,,,,,,,,,,,,,,,,,,,,,,,,,g,2.513000011,G,FALSE,,,,,,,145,got,Catalan,Sounds/cat_got.mp3,2020-06-08_18h14.21.182,TranslationElicitation_eng-prolific,3.2.4,Win32,60,5ea1ac832ac60d0762c238a7,,1,0,81,39,1,80
,,,,,,,,,,,,,,,,,,,,,,,,,,,,,,,,,,,,,,,,,o,2.661999941,GO,FALSE,,,,,,,145,got,Catalan,Sounds/cat_got.mp3,2020-06-08_18h14.21.182,TranslationElicitation_eng-prolific,3.2.4,Win32,60,5ea1ac832ac60d0762c238a7,,1,0,81,39,1,80
,,,,,,,,,,,,,,,,,,,,,,,,,,,,,,,,,,,,,,,,,d,2.761999846,GOD,FALSE,,,,,,,145,got,Catalan,Sounds/cat_got.mp3,2020-06-08_18h14.21.182,TranslationElicitation_eng-prolific,3.2.4,Win32,60,5ea1ac832ac60d0762c238a7,,1,0,81,39,1,80
,,,,,,,,,,,,,,,,,,,,,,,,,,,,,,,,,,,,,,,,,return,2.944999933,GOD,FALSE,,,,,,,145,got,Catalan,Sounds/cat_got.mp3,2020-06-08_18h14.21.182,TranslationElicitation_eng-prolific,3.2.4,Win32,60,5ea1ac832ac60d0762c238a7,2.944999933,1,0,81,39,1,80
,,,,,,,,,,,,,,,,,,,,,,,,,,,,,,,,,,,,,,,,,,,,,,,,,,,145,got,Catalan,Sounds/cat_got.mp3,2020-06-08_18h14.21.182,TranslationElicitation_eng-prolific,3.2.4,Win32,60,5ea1ac832ac60d0762c238a7,,1,0,81,39,1,80
,,,,,,,,,,,,,,,,,,,,,,,,,,,,,,,,,,,,,,,,,m,4.110000134,M,FALSE,,,,,,,156,moto,Catalan,Sounds/cat_moto.mp3,2020-06-08_18h14.21.182,TranslationElicitation_eng-prolific,3.2.4,Win32,60,5ea1ac832ac60d0762c238a7,,1,0,81,49,1,80
,,,,,,,,,,,,,,,,,,,,,,,,,,,,,,,,,,,,,,,,,u,4.493000031,MU,FALSE,,,,,,,156,moto,Catalan,Sounds/cat_moto.mp3,2020-06-08_18h14.21.182,TranslationElicitation_eng-prolific,3.2.4,Win32,60,5ea1ac832ac60d0762c238a7,,1,0,81,49,1,80
,,,,,,,,,,,,,,,,,,,,,,,,,,,,,,,,,,,,,,,,,d,4.710000038,MUD,FALSE,,,,,,,156,moto,Catalan,Sounds/cat_moto.mp3,2020-06-08_18h14.21.182,TranslationElicitation_eng-prolific,3.2.4,Win32,60,5ea1ac832ac60d0762c238a7,,1,0,81,49,1,80
,,,,,,,,,,,,,,,,,,,,,,,,,,,,,,,,,,,,,,,,,d,4.843000174,MUDD,FALSE,,,,,,,156,moto,Catalan,Sounds/cat_moto.mp3,2020-06-08_18h14.21.182,TranslationElicitation_eng-prolific,3.2.4,Win32,60,5ea1ac832ac60d0762c238a7,,1,0,81,49,1,80
,,,,,,,,,,,,,,,,,,,,,,,,,,,,,,,,,,,,,,,,,y,4.943000078,MUDDY,FALSE,,,,,,,156,moto,Catalan,Sounds/cat_moto.mp3,2020-06-08_18h14.21.182,TranslationElicitation_eng-prolific,3.2.4,Win32,60,5ea1ac832ac60d0762c238a7,,1,0,81,49,1,80
,,,,,,,,,,,,,,,,,,,,,,,,,,,,,,,,,,,,,,,,,return,5.258000135,MUDDY,FALSE,,,,,,,156,moto,Catalan,Sounds/cat_moto.mp3,2020-06-08_18h14.21.182,TranslationElicitation_eng-prolific,3.2.4,Win32,60,5ea1ac832ac60d0762c238a7,5.258000135,1,0,81,49,1,80
,,,,,,,,,,,,,,,,,,,,,,,,,,,,,,,,,,,,,,,,,,,,,,,,,,,156,moto,Catalan,Sounds/cat_moto.mp3,2020-06-08_18h14.21.182,TranslationElicitation_eng-prolific,3.2.4,Win32,60,5ea1ac832ac60d0762c238a7,,1,0,81,49,1,80
,,,,,,,,,,,,,,,,,,,,,,,,,,,,,,,,,,,,,,,,,d,3.062999964,D,FALSE,,,,,,,181,tobogan,Catalan,Sounds/cat_tobogan.mp3,2020-06-08_18h14.21.182,TranslationElicitation_eng-prolific,3.2.4,Win32,60,5ea1ac832ac60d0762c238a7,,1,0,81,72,1,80
,,,,,,,,,,,,,,,,,,,,,,,,,,,,,,,,,,,,,,,,,o,3.197000027,DO,FALSE,,,,,,,181,tobogan,Catalan,Sounds/cat_tobogan.mp3,2020-06-08_18h14.21.182,TranslationElicitation_eng-prolific,3.2.4,Win32,60,5ea1ac832ac60d0762c238a7,,1,0,81,72,1,80
,,,,,,,,,,,,,,,,,,,,,,,,,,,,,,,,,,,,,,,,,u,3.279000044,DOU,FALSE,,,,,,,181,tobogan,Catalan,Sounds/cat_tobogan.mp3,2020-06-08_18h14.21.182,TranslationElicitation_eng-prolific,3.2.4,Win32,60,5ea1ac832ac60d0762c238a7,,1,0,81,72,1,80
,,,,,,,,,,,,,,,,,,,,,,,,,,,,,,,,,,,,,,,,,b,3.412999868,DOUB,FALSE,,,,,,,181,tobogan,Catalan,Sounds/cat_tobogan.mp3,2020-06-08_18h14.21.182,TranslationElicitation_eng-prolific,3.2.4,Win32,60,5ea1ac832ac60d0762c238a7,,1,0,81,72,1,80
,,,,,,,,,,,,,,,,,,,,,,,,,,,,,,,,,,,,,,,,,l,3.546000004,DOUBL,FALSE,,,,,,,181,tobogan,Catalan,Sounds/cat_tobogan.mp3,2020-06-08_18h14.21.182,TranslationElicitation_eng-prolific,3.2.4,Win32,60,5ea1ac832ac60d0762c238a7,,1,0,81,72,1,80
,,,,,,,,,,,,,,,,,,,,,,,,,,,,,,,,,,,,,,,,,e,3.678999901,DOUBLE,FALSE,,,,,,,181,tobogan,Catalan,Sounds/cat_tobogan.mp3,2020-06-08_18h14.21.182,TranslationElicitation_eng-prolific,3.2.4,Win32,60,5ea1ac832ac60d0762c238a7,,1,0,81,72,1,80
,,,,,,,,,,,,,,,,,,,,,,,,,,,,,,,,,,,,,,,,,return,3.945999861,DOUBLE,FALSE,,,,,,,181,tobogan,Catalan,Sounds/cat_tobogan.mp3,2020-06-08_18h14.21.182,TranslationElicitation_eng-prolific,3.2.4,Win32,60,5ea1ac832ac60d0762c238a7,3.945999861,1,0,81,72,1,80
,,,,,,,,,,,,,,,,,,,,,,,,,,,,,,,,,,,,,,,,,,,,,,,,,,,181,tobogan,Catalan,Sounds/cat_tobogan.mp3,2020-06-08_18h14.21.182,TranslationElicitation_eng-prolific,3.2.4,Win32,60,5ea1ac832ac60d0762c238a7,,1,0,81,72,1,80
,,,,,,,,,,,,,,,,,,,,,,,,,,,,,,,,,,,,,,,,,b,3.746999979,B,FALSE,,,,,,,169,plat,Catalan,Sounds/cat_plat.mp3,2020-06-08_18h14.21.182,TranslationElicitation_eng-prolific,3.2.4,Win32,60,5ea1ac832ac60d0762c238a7,,1,0,81,61,1,80
,,,,,,,,,,,,,,,,,,,,,,,,,,,,,,,,,,,,,,,,,l,3.996000051,BL,FALSE,,,,,,,169,plat,Catalan,Sounds/cat_plat.mp3,2020-06-08_18h14.21.182,TranslationElicitation_eng-prolific,3.2.4,Win32,60,5ea1ac832ac60d0762c238a7,,1,0,81,61,1,80
,,,,,,,,,,,,,,,,,,,,,,,,,,,,,,,,,,,,,,,,,o,4.262000084,BLO,FALSE,,,,,,,169,plat,Catalan,Sounds/cat_plat.mp3,2020-06-08_18h14.21.182,TranslationElicitation_eng-prolific,3.2.4,Win32,60,5ea1ac832ac60d0762c238a7,,1,0,81,61,1,80
,,,,,,,,,,,,,,,,,,,,,,,,,,,,,,,,,,,,,,,,,o,4.411999941,BLOO,FALSE,,,,,,,169,plat,Catalan,Sounds/cat_plat.mp3,2020-06-08_18h14.21.182,TranslationElicitation_eng-prolific,3.2.4,Win32,60,5ea1ac832ac60d0762c238a7,,1,0,81,61,1,80
,,,,,,,,,,,,,,,,,,,,,,,,,,,,,,,,,,,,,,,,,d,4.610000134,BLOOD,FALSE,,,,,,,169,plat,Catalan,Sounds/cat_plat.mp3,2020-06-08_18h14.21.182,TranslationElicitation_eng-prolific,3.2.4,Win32,60,5ea1ac832ac60d0762c238a7,,1,0,81,61,1,80
,,,,,,,,,,,,,,,,,,,,,,,,,,,,,,,,,,,,,,,,,return,5.160000086,BLOOD,FALSE,,,,,,,169,plat,Catalan,Sounds/cat_plat.mp3,2020-06-08_18h14.21.182,TranslationElicitation_eng-prolific,3.2.4,Win32,60,5ea1ac832ac60d0762c238a7,5.160000086,1,0,81,61,1,80
,,,,,,,,,,,,,,,,,,,,,,,,,,,,,,,,,,,,,,,,,,,,,,,,,,,169,plat,Catalan,Sounds/cat_plat.mp3,2020-06-08_18h14.21.182,TranslationElicitation_eng-prolific,3.2.4,Win32,60,5ea1ac832ac60d0762c238a7,,1,0,81,61,1,80
,,,,,,,,,,,,,,,,,,,,,,,,,,,,,,,,,,,,,,,,,f,4.414000034,F,FALSE,,,,,,,108,ampolla,Catalan,Sounds/cat_ampolla.mp3,2020-06-08_18h14.21.182,TranslationElicitation_eng-prolific,3.2.4,Win32,60,5ea1ac832ac60d0762c238a7,,1,0,81,4,1,80
,,,,,,,,,,,,,,,,,,,,,,,,,,,,,,,,,,,,,,,,,l,4.528000116,FL,FALSE,,,,,,,108,ampolla,Catalan,Sounds/cat_ampolla.mp3,2020-06-08_18h14.21.182,TranslationElicitation_eng-prolific,3.2.4,Win32,60,5ea1ac832ac60d0762c238a7,,1,0,81,4,1,80
,,,,,,,,,,,,,,,,,,,,,,,,,,,,,,,,,,,,,,,,,o,4.678000212,FLO,FALSE,,,,,,,108,ampolla,Catalan,Sounds/cat_ampolla.mp3,2020-06-08_18h14.21.182,TranslationElicitation_eng-prolific,3.2.4,Win32,60,5ea1ac832ac60d0762c238a7,,1,0,81,4,1,80
,,,,,,,,,,,,,,,,,,,,,,,,,,,,,,,,,,,,,,,,,w,4.761000156,FLOW,FALSE,,,,,,,108,ampolla,Catalan,Sounds/cat_ampolla.mp3,2020-06-08_18h14.21.182,TranslationElicitation_eng-prolific,3.2.4,Win32,60,5ea1ac832ac60d0762c238a7,,1,0,81,4,1,80
,,,,,,,,,,,,,,,,,,,,,,,,,,,,,,,,,,,,,,,,,e,4.827000141,FLOWE,FALSE,,,,,,,108,ampolla,Catalan,Sounds/cat_ampolla.mp3,2020-06-08_18h14.21.182,TranslationElicitation_eng-prolific,3.2.4,Win32,60,5ea1ac832ac60d0762c238a7,,1,0,81,4,1,80
,,,,,,,,,,,,,,,,,,,,,,,,,,,,,,,,,,,,,,,,,r,4.929000139,FLOWER,FALSE,,,,,,,108,ampolla,Catalan,Sounds/cat_ampolla.mp3,2020-06-08_18h14.21.182,TranslationElicitation_eng-prolific,3.2.4,Win32,60,5ea1ac832ac60d0762c238a7,,1,0,81,4,1,80
,,,,,,,,,,,,,,,,,,,,,,,,,,,,,,,,,,,,,,,,,return,5.393000126,FLOWER,FALSE,,,,,,,108,ampolla,Catalan,Sounds/cat_ampolla.mp3,2020-06-08_18h14.21.182,TranslationElicitation_eng-prolific,3.2.4,Win32,60,5ea1ac832ac60d0762c238a7,5.393000126,1,0,81,4,1,80
,,,,,,,,,,,,,,,,,,,,,,,,,,,,,,,,,,,,,,,,,,,,,,,,,,,108,ampolla,Catalan,Sounds/cat_ampolla.mp3,2020-06-08_18h14.21.182,TranslationElicitation_eng-prolific,3.2.4,Win32,60,5ea1ac832ac60d0762c238a7,,1,0,81,4,1,80
,,,,,,,,,,,,,,,,,,,,,,,,,,,,,,,,,,,,,,,,,b,2.014999866,B,FALSE,,,,,,,112,bici,Catalan,Sounds/cat_bici.mp3,2020-06-08_18h14.21.182,TranslationElicitation_eng-prolific,3.2.4,Win32,60,5ea1ac832ac60d0762c238a7,,1,0,81,7,1,80
,,,,,,,,,,,,,,,,,,,,,,,,,,,,,,,,,,,,,,,,,e,2.230000019,BE,FALSE,,,,,,,112,bici,Catalan,Sounds/cat_bici.mp3,2020-06-08_18h14.21.182,TranslationElicitation_eng-prolific,3.2.4,Win32,60,5ea1ac832ac60d0762c238a7,,1,0,81,7,1,80
,,,,,,,,,,,,,,,,,,,,,,,,,,,,,,,,,,,,,,,,,e,2.398000002,BEE,FALSE,,,,,,,112,bici,Catalan,Sounds/cat_bici.mp3,2020-06-08_18h14.21.182,TranslationElicitation_eng-prolific,3.2.4,Win32,60,5ea1ac832ac60d0762c238a7,,1,0,81,7,1,80
,,,,,,,,,,,,,,,,,,,,,,,,,,,,,,,,,,,,,,,,,return,2.629999876,BEE,FALSE,,,,,,,112,bici,Catalan,Sounds/cat_bici.mp3,2020-06-08_18h14.21.182,TranslationElicitation_eng-prolific,3.2.4,Win32,60,5ea1ac832ac60d0762c238a7,2.629999876,1,0,81,7,1,80
,,,,,,,,,,,,,,,,,,,,,,,,,,,,,,,,,,,,,,,,,,,,,,,,,,,112,bici,Catalan,Sounds/cat_bici.mp3,2020-06-08_18h14.21.182,TranslationElicitation_eng-prolific,3.2.4,Win32,60,5ea1ac832ac60d0762c238a7,,1,0,81,7,1,80
,,,,,,,,,,,,,,,,,,,,,,,,,,,,,,,,,,,,,,,,,c,2.647000074,C,FALSE,,,,,,,122,casa,Catalan,Sounds/cat_casa.mp3,2020-06-08_18h14.21.182,TranslationElicitation_eng-prolific,3.2.4,Win32,60,5ea1ac832ac60d0762c238a7,,1,0,81,17,1,80
,,,,,,,,,,,,,,,,,,,,,,,,,,,,,,,,,,,,,,,,,r,3.013999939,CR,FALSE,,,,,,,122,casa,Catalan,Sounds/cat_casa.mp3,2020-06-08_18h14.21.182,TranslationElicitation_eng-prolific,3.2.4,Win32,60,5ea1ac832ac60d0762c238a7,,1,0,81,17,1,80
,,,,,,,,,,,,,,,,,,,,,,,,,,,,,,,,,,,,,,,,,backspace,3.680000067,C,TRUE,,,,,,,122,casa,Catalan,Sounds/cat_casa.mp3,2020-06-08_18h14.21.182,TranslationElicitation_eng-prolific,3.2.4,Win32,60,5ea1ac832ac60d0762c238a7,,1,0,81,17,1,80
,,,,,,,,,,,,,,,,,,,,,,,,,,,,,,,,,,,,,,,,,a,3.779000044,CA,TRUE,,,,,,,122,casa,Catalan,Sounds/cat_casa.mp3,2020-06-08_18h14.21.182,TranslationElicitation_eng-prolific,3.2.4,Win32,60,5ea1ac832ac60d0762c238a7,,1,0,81,17,1,80
,,,,,,,,,,,,,,,,,,,,,,,,,,,,,,,,,,,,,,,,,r,3.861999989,CAR,TRUE,,,,,,,122,casa,Catalan,Sounds/cat_casa.mp3,2020-06-08_18h14.21.182,TranslationElicitation_eng-prolific,3.2.4,Win32,60,5ea1ac832ac60d0762c238a7,,1,0,81,17,1,80
,,,,,,,,,,,,,,,,,,,,,,,,,,,,,,,,,,,,,,,,,return,4.177999973,CAR,TRUE,,,,,,,122,casa,Catalan,Sounds/cat_casa.mp3,2020-06-08_18h14.21.182,TranslationElicitation_eng-prolific,3.2.4,Win32,60,5ea1ac832ac60d0762c238a7,4.177999973,1,0,81,17,1,80
,,,,,,,,,,,,,,,,,,,,,,,,,,,,,,,,,,,,,,,,,,,,,,,,,,,122,casa,Catalan,Sounds/cat_casa.mp3,2020-06-08_18h14.21.182,TranslationElicitation_eng-prolific,3.2.4,Win32,60,5ea1ac832ac60d0762c238a7,,1,0,81,17,1,80
,,,,,,,,,,,,,,,,,,,,,,,,,,,,,,,,,,,,,,,,,p,1.862999916,P,FALSE,,,,,,,173,porc,Catalan,Sounds/cat_porc.mp3,2020-06-08_18h14.21.182,TranslationElicitation_eng-prolific,3.2.4,Win32,60,5ea1ac832ac60d0762c238a7,,1,0,81,65,1,80
,,,,,,,,,,,,,,,,,,,,,,,,,,,,,,,,,,,,,,,,,o,2.046999931,PO,FALSE,,,,,,,173,porc,Catalan,Sounds/cat_porc.mp3,2020-06-08_18h14.21.182,TranslationElicitation_eng-prolific,3.2.4,Win32,60,5ea1ac832ac60d0762c238a7,,1,0,81,65,1,80
,,,,,,,,,,,,,,,,,,,,,,,,,,,,,,,,,,,,,,,,,r,2.195999861,POR,FALSE,,,,,,,173,porc,Catalan,Sounds/cat_porc.mp3,2020-06-08_18h14.21.182,TranslationElicitation_eng-prolific,3.2.4,Win32,60,5ea1ac832ac60d0762c238a7,,1,0,81,65,1,80
,,,,,,,,,,,,,,,,,,,,,,,,,,,,,,,,,,,,,,,,,k,2.295999765,PORK,FALSE,,,,,,,173,porc,Catalan,Sounds/cat_porc.mp3,2020-06-08_18h14.21.182,TranslationElicitation_eng-prolific,3.2.4,Win32,60,5ea1ac832ac60d0762c238a7,,1,0,81,65,1,80
,,,,,,,,,,,,,,,,,,,,,,,,,,,,,,,,,,,,,,,,,return,2.59499979,PORK,FALSE,,,,,,,173,porc,Catalan,Sounds/cat_porc.mp3,2020-06-08_18h14.21.182,TranslationElicitation_eng-prolific,3.2.4,Win32,60,5ea1ac832ac60d0762c238a7,2.59499979,1,0,81,65,1,80
,,,,,,,,,,,,,,,,,,,,,,,,,,,,,,,,,,,,,,,,,,,,,,,,,,,173,porc,Catalan,Sounds/cat_porc.mp3,2020-06-08_18h14.21.182,TranslationElicitation_eng-prolific,3.2.4,Win32,60,5ea1ac832ac60d0762c238a7,,1,0,81,65,1,80
,,,,,,,,,,,,,,,,,,,,,,,,,,,,,,,,,,,,,,,,,d,3.529999971,D,FALSE,,,,,,,166,peu,Catalan,Sounds/cat_peu.mp3,2020-06-08_18h14.21.182,TranslationElicitation_eng-prolific,3.2.4,Win32,60,5ea1ac832ac60d0762c238a7,,1,0,81,58,1,80
,,,,,,,,,,,,,,,,,,,,,,,,,,,,,,,,,,,,,,,,,r,3.696000099,DR,FALSE,,,,,,,166,peu,Catalan,Sounds/cat_peu.mp3,2020-06-08_18h14.21.182,TranslationElicitation_eng-prolific,3.2.4,Win32,60,5ea1ac832ac60d0762c238a7,,1,0,81,58,1,80
,,,,,,,,,,,,,,,,,,,,,,,,,,,,,,,,,,,,,,,,,i,3.763000011,DRI,FALSE,,,,,,,166,peu,Catalan,Sounds/cat_peu.mp3,2020-06-08_18h14.21.182,TranslationElicitation_eng-prolific,3.2.4,Win32,60,5ea1ac832ac60d0762c238a7,,1,0,81,58,1,80
,,,,,,,,,,,,,,,,,,,,,,,,,,,,,,,,,,,,,,,,,n,3.845999956,DRIN,FALSE,,,,,,,166,peu,Catalan,Sounds/cat_peu.mp3,2020-06-08_18h14.21.182,TranslationElicitation_eng-prolific,3.2.4,Win32,60,5ea1ac832ac60d0762c238a7,,1,0,81,58,1,80
,,,,,,,,,,,,,,,,,,,,,,,,,,,,,,,,,,,,,,,,,k,4.026000023,DRINK,FALSE,,,,,,,166,peu,Catalan,Sounds/cat_peu.mp3,2020-06-08_18h14.21.182,TranslationElicitation_eng-prolific,3.2.4,Win32,60,5ea1ac832ac60d0762c238a7,,1,0,81,58,1,80
,,,,,,,,,,,,,,,,,,,,,,,,,,,,,,,,,,,,,,,,,return,4.361999989,DRINK,FALSE,,,,,,,166,peu,Catalan,Sounds/cat_peu.mp3,2020-06-08_18h14.21.182,TranslationElicitation_eng-prolific,3.2.4,Win32,60,5ea1ac832ac60d0762c238a7,4.361999989,1,0,81,58,1,80
,,,,,,,,,,,,,,,,,,,,,,,,,,,,,,,,,,,,,,,,,,,,,,,,,,,166,peu,Catalan,Sounds/cat_peu.mp3,2020-06-08_18h14.21.182,TranslationElicitation_eng-prolific,3.2.4,Win32,60,5ea1ac832ac60d0762c238a7,,1,0,81,58,1,80
,,,,,,,,,,,,,,,,,,,,,,,,,,,,,,,,,,,,,,,,,g,1.182999849,G,FALSE,,,,,,,146,guitarra,Catalan,Sounds/cat_guitarra.mp3,2020-06-08_18h14.21.182,TranslationElicitation_eng-prolific,3.2.4,Win32,60,5ea1ac832ac60d0762c238a7,,1,0,81,40,1,80
,,,,,,,,,,,,,,,,,,,,,,,,,,,,,,,,,,,,,,,,,u,1.34800005,GU,FALSE,,,,,,,146,guitarra,Catalan,Sounds/cat_guitarra.mp3,2020-06-08_18h14.21.182,TranslationElicitation_eng-prolific,3.2.4,Win32,60,5ea1ac832ac60d0762c238a7,,1,0,81,40,1,80
,,,,,,,,,,,,,,,,,,,,,,,,,,,,,,,,,,,,,,,,,i,1.415999889,GUI,FALSE,,,,,,,146,guitarra,Catalan,Sounds/cat_guitarra.mp3,2020-06-08_18h14.21.182,TranslationElicitation_eng-prolific,3.2.4,Win32,60,5ea1ac832ac60d0762c238a7,,1,0,81,40,1,80
,,,,,,,,,,,,,,,,,,,,,,,,,,,,,,,,,,,,,,,,,t,1.563999891,GUIT,FALSE,,,,,,,146,guitarra,Catalan,Sounds/cat_guitarra.mp3,2020-06-08_18h14.21.182,TranslationElicitation_eng-prolific,3.2.4,Win32,60,5ea1ac832ac60d0762c238a7,,1,0,81,40,1,80
,,,,,,,,,,,,,,,,,,,,,,,,,,,,,,,,,,,,,,,,,a,1.766000032,GUITA,FALSE,,,,,,,146,guitarra,Catalan,Sounds/cat_guitarra.mp3,2020-06-08_18h14.21.182,TranslationElicitation_eng-prolific,3.2.4,Win32,60,5ea1ac832ac60d0762c238a7,,1,0,81,40,1,80
,,,,,,,,,,,,,,,,,,,,,,,,,,,,,,,,,,,,,,,,,r,1.898000002,GUITAR,FALSE,,,,,,,146,guitarra,Catalan,Sounds/cat_guitarra.mp3,2020-06-08_18h14.21.182,TranslationElicitation_eng-prolific,3.2.4,Win32,60,5ea1ac832ac60d0762c238a7,,1,0,81,40,1,80
,,,,,,,,,,,,,,,,,,,,,,,,,,,,,,,,,,,,,,,,,return,2.246999979,GUITAR,FALSE,,,,,,,146,guitarra,Catalan,Sounds/cat_guitarra.mp3,2020-06-08_18h14.21.182,TranslationElicitation_eng-prolific,3.2.4,Win32,60,5ea1ac832ac60d0762c238a7,2.246999979,1,0,81,40,1,80
,,,,,,,,,,,,,,,,,,,,,,,,,,,,,,,,,,,,,,,,,,,,,,,,,,,146,guitarra,Catalan,Sounds/cat_guitarra.mp3,2020-06-08_18h14.21.182,TranslationElicitation_eng-prolific,3.2.4,Win32,60,5ea1ac832ac60d0762c238a7,,1,0,81,40,1,80
,,,,,,,,,,,,,,,,,,,,,,,,,,,,,,,,,,,,,,,,,m,3.394999981,M,FALSE,,,,,,,157,mussol,Catalan,Sounds/cat_mussol.mp3,2020-06-08_18h14.21.182,TranslationElicitation_eng-prolific,3.2.4,Win32,60,5ea1ac832ac60d0762c238a7,,1,0,81,50,1,80
,,,,,,,,,,,,,,,,,,,,,,,,,,,,,,,,,,,,,,,,,u,3.612999916,MU,FALSE,,,,,,,157,mussol,Catalan,Sounds/cat_mussol.mp3,2020-06-08_18h14.21.182,TranslationElicitation_eng-prolific,3.2.4,Win32,60,5ea1ac832ac60d0762c238a7,,1,0,81,50,1,80
,,,,,,,,,,,,,,,,,,,,,,,,,,,,,,,,,,,,,,,,,s,3.727999926,MUS,FALSE,,,,,,,157,mussol,Catalan,Sounds/cat_mussol.mp3,2020-06-08_18h14.21.182,TranslationElicitation_eng-prolific,3.2.4,Win32,60,5ea1ac832ac60d0762c238a7,,1,0,81,50,1,80
,,,,,,,,,,,,,,,,,,,,,,,,,,,,,,,,,,,,,,,,,c,3.845000029,MUSC,FALSE,,,,,,,157,mussol,Catalan,Sounds/cat_mussol.mp3,2020-06-08_18h14.21.182,TranslationElicitation_eng-prolific,3.2.4,Win32,60,5ea1ac832ac60d0762c238a7,,1,0,81,50,1,80
,,,,,,,,,,,,,,,,,,,,,,,,,,,,,,,,,,,,,,,,,l,3.977999926,MUSCL,FALSE,,,,,,,157,mussol,Catalan,Sounds/cat_mussol.mp3,2020-06-08_18h14.21.182,TranslationElicitation_eng-prolific,3.2.4,Win32,60,5ea1ac832ac60d0762c238a7,,1,0,81,50,1,80
,,,,,,,,,,,,,,,,,,,,,,,,,,,,,,,,,,,,,,,,,e,4.093999863,MUSCLE,FALSE,,,,,,,157,mussol,Catalan,Sounds/cat_mussol.mp3,2020-06-08_18h14.21.182,TranslationElicitation_eng-prolific,3.2.4,Win32,60,5ea1ac832ac60d0762c238a7,,1,0,81,50,1,80
,,,,,,,,,,,,,,,,,,,,,,,,,,,,,,,,,,,,,,,,,return,4.343999863,MUSCLE,FALSE,,,,,,,157,mussol,Catalan,Sounds/cat_mussol.mp3,2020-06-08_18h14.21.182,TranslationElicitation_eng-prolific,3.2.4,Win32,60,5ea1ac832ac60d0762c238a7,4.343999863,1,0,81,50,1,80
,,,,,,,,,,,,,,,,,,,,,,,,,,,,,,,,,,,,,,,,,,,,,,,,,,,157,mussol,Catalan,Sounds/cat_mussol.mp3,2020-06-08_18h14.21.182,TranslationElicitation_eng-prolific,3.2.4,Win32,60,5ea1ac832ac60d0762c238a7,,1,0,81,50,1,80
,,,,,,,,,,,,,,,,,,,,,,,,,,,,,,,,,,,,,,,,,b,6.84100008,B,FALSE,,,,,,,175,raspall,Catalan,Sounds/cat_raspall.mp3,2020-06-08_18h14.21.182,TranslationElicitation_eng-prolific,3.2.4,Win32,60,5ea1ac832ac60d0762c238a7,,1,0,81,67,1,80
,,,,,,,,,,,,,,,,,,,,,,,,,,,,,,,,,,,,,,,,,r,6.991000175,BR,FALSE,,,,,,,175,raspall,Catalan,Sounds/cat_raspall.mp3,2020-06-08_18h14.21.182,TranslationElicitation_eng-prolific,3.2.4,Win32,60,5ea1ac832ac60d0762c238a7,,1,0,81,67,1,80
,,,,,,,,,,,,,,,,,,,,,,,,,,,,,,,,,,,,,,,,,o,7.175000191,BRO,FALSE,,,,,,,175,raspall,Catalan,Sounds/cat_raspall.mp3,2020-06-08_18h14.21.182,TranslationElicitation_eng-prolific,3.2.4,Win32,60,5ea1ac832ac60d0762c238a7,,1,0,81,67,1,80
,,,,,,,,,,,,,,,,,,,,,,,,,,,,,,,,,,,,,,,,,w,7.291000128,BROW,FALSE,,,,,,,175,raspall,Catalan,Sounds/cat_raspall.mp3,2020-06-08_18h14.21.182,TranslationElicitation_eng-prolific,3.2.4,Win32,60,5ea1ac832ac60d0762c238a7,,1,0,81,67,1,80
,,,,,,,,,,,,,,,,,,,,,,,,,,,,,,,,,,,,,,,,,n,7.82400012,BROWN,FALSE,,,,,,,175,raspall,Catalan,Sounds/cat_raspall.mp3,2020-06-08_18h14.21.182,TranslationElicitation_eng-prolific,3.2.4,Win32,60,5ea1ac832ac60d0762c238a7,,1,0,81,67,1,80
