consentKey.keys,consentKey.rt,languageL1Key.keys,languageL1Key.rt,languageL2,languageL2OralKey.keys,languageL2OralKey.rt,languageL2WrittenKey.keys,languageL2WrittenKey.rt,languageL3OralKey.keys,languageL3OralKey.rt,languageL3WrittenKey.keys,languageL3WrittenKey.rt,languageCatalanOralKey.keys,languageCatalanOralKey.rt,languageCatalanWrittenKey.keys,languageCatalanWrittenKey.rt,languageCatalanTimeKey.keys,languageCatalanTimeKey.rt,languageSpanishOralKey.keys,languageSpanishOralKey.rt,languageSpanishWrittenKey.keys,languageSpanishWrittenKey.rt,languageSpanishTimeKey.keys,languageSpanishTimeKey.rt,age,demoSexKey.keys,demoSexKey.rt,demoEducationKey.keys,demoEducationKey.rt,city,demoVisionKey.keys,demoVisionKey.rt,demoLanguageKey.keys,demoLanguageKey.rt,setupLocationKey.keys,setupLocationKey.rt,setupNoiseKey.keys,setupNoiseKey.rt,instructionsKeys.keys,instructionsKeys.rt,keyPressed,keyPressTime,inputText,error,trialsPracticeCatalan.thisRepN,trialsPracticeCatalan.thisTrialN,trialsPracticeCatalan.thisN,trialsPracticeCatalan.thisIndex,trialsPracticeCatalan.ran,trialsPracticeCatalan.order,trial_id,word,test_language,soundfile,date,expName,psychopyVersion,OS,frameRate,participant,trialOffset,trialsCatalan.thisRepN,trialsCatalan.thisTrialN,trialsCatalan.thisN,trialsCatalan.thisIndex,trialsCatalan.ran,trialsCatalan.order
space,0.36199975,e,2.047999859,,,,,,,,,,1,2.899999857,1,0.870000124,1,1.788999796,2,2.723999977,2,1.307999849,1,1.65899992,18,f,2.687999964,3,1.680999994,BEXLEY,y,2.936999798,n,1.264999866,1,7.323999882,2,1.851999998,space,1.700999737,o,2.917000055,O,FALSE,1,0,5,3,1,4,159,onada,Catalan,Sounds/cat_onada.mp3,2020-06-04_21h35.46.305,TranslationElicitation_eng-prolific,3.2.4,MacIntel,60,5ea21ef214912a12fa60eb5e,,,,,,,
,,,,,,,,,,,,,,,,,,,,,,,,,,,,,,,,,,,,,,,,,n,3.200999975,ON,FALSE,1,0,5,3,1,4,159,onada,Catalan,Sounds/cat_onada.mp3,2020-06-04_21h35.46.305,TranslationElicitation_eng-prolific,3.2.4,MacIntel,60,5ea21ef214912a12fa60eb5e,,,,,,,
,,,,,,,,,,,,,,,,,,,,,,,,,,,,,,,,,,,,,,,,,e,3.384000063,ONE,FALSE,1,0,5,3,1,4,159,onada,Catalan,Sounds/cat_onada.mp3,2020-06-04_21h35.46.305,TranslationElicitation_eng-prolific,3.2.4,MacIntel,60,5ea21ef214912a12fa60eb5e,,,,,,,
,,,,,,,,,,,,,,,,,,,,,,,,,,,,,,,,,,,,,,,,,return,3.818000078,ONE,FALSE,1,0,5,3,1,4,159,onada,Catalan,Sounds/cat_onada.mp3,2020-06-04_21h35.46.305,TranslationElicitation_eng-prolific,3.2.4,MacIntel,60,5ea21ef214912a12fa60eb5e,3.818000078,,,,,,
,,,,,,,,,,,,,,,,,,,,,,,,,,,,,,,,,,,,,,,,,,,,,1,0,5,3,1,4,159,onada,Catalan,Sounds/cat_onada.mp3,2020-06-04_21h35.46.305,TranslationElicitation_eng-prolific,3.2.4,MacIntel,60,5ea21ef214912a12fa60eb5e,,,,,,,
,,,,,,,,,,,,,,,,,,,,,,,,,,,,,,,,,,,,,,,,,t,2,T,FALSE,1,0,5,4,1,4,179,tigre,Catalan,Sounds/cat_tigre.mp3,2020-06-04_21h35.46.305,TranslationElicitation_eng-prolific,3.2.4,MacIntel,60,5ea21ef214912a12fa60eb5e,,,,,,,
,,,,,,,,,,,,,,,,,,,,,,,,,,,,,,,,,,,,,,,,,e,2.166999817,TE,FALSE,1,0,5,4,1,4,179,tigre,Catalan,Sounds/cat_tigre.mp3,2020-06-04_21h35.46.305,TranslationElicitation_eng-prolific,3.2.4,MacIntel,60,5ea21ef214912a12fa60eb5e,,,,,,,
,,,,,,,,,,,,,,,,,,,,,,,,,,,,,,,,,,,,,,,,,a,2.5,TEA,FALSE,1,0,5,4,1,4,179,tigre,Catalan,Sounds/cat_tigre.mp3,2020-06-04_21h35.46.305,TranslationElicitation_eng-prolific,3.2.4,MacIntel,60,5ea21ef214912a12fa60eb5e,,,,,,,
,,,,,,,,,,,,,,,,,,,,,,,,,,,,,,,,,,,,,,,,,return,2.632999897,TEA,FALSE,1,0,5,4,1,4,179,tigre,Catalan,Sounds/cat_tigre.mp3,2020-06-04_21h35.46.305,TranslationElicitation_eng-prolific,3.2.4,MacIntel,60,5ea21ef214912a12fa60eb5e,2.632999897,,,,,,
,,,,,,,,,,,,,,,,,,,,,,,,,,,,,,,,,,,,,,,,,,,,,1,0,5,4,1,4,179,tigre,Catalan,Sounds/cat_tigre.mp3,2020-06-04_21h35.46.305,TranslationElicitation_eng-prolific,3.2.4,MacIntel,60,5ea21ef214912a12fa60eb5e,,,,,,,
,,,,,,,,,,,,,,,,,,,,,,,,,,,,,,,,,,,,,,,,,p,1.650000095,P,FALSE,1,0,5,2,1,4,147,jaqueta,Catalan,Sounds/cat_jaqueta.mp3,2020-06-04_21h35.46.305,TranslationElicitation_eng-prolific,3.2.4,MacIntel,60,5ea21ef214912a12fa60eb5e,,,,,,,
,,,,,,,,,,,,,,,,,,,,,,,,,,,,,,,,,,,,,,,,,o,2.118000031,PO,FALSE,1,0,5,2,1,4,147,jaqueta,Catalan,Sounds/cat_jaqueta.mp3,2020-06-04_21h35.46.305,TranslationElicitation_eng-prolific,3.2.4,MacIntel,60,5ea21ef214912a12fa60eb5e,,,,,,,
,,,,,,,,,,,,,,,,,,,,,,,,,,,,,,,,,,,,,,,,,t,2.500999928,POT,FALSE,1,0,5,2,1,4,147,jaqueta,Catalan,Sounds/cat_jaqueta.mp3,2020-06-04_21h35.46.305,TranslationElicitation_eng-prolific,3.2.4,MacIntel,60,5ea21ef214912a12fa60eb5e,,,,,,,
,,,,,,,,,,,,,,,,,,,,,,,,,,,,,,,,,,,,,,,,,a,2.717999935,POTA,FALSE,1,0,5,2,1,4,147,jaqueta,Catalan,Sounds/cat_jaqueta.mp3,2020-06-04_21h35.46.305,TranslationElicitation_eng-prolific,3.2.4,MacIntel,60,5ea21ef214912a12fa60eb5e,,,,,,,
,,,,,,,,,,,,,,,,,,,,,,,,,,,,,,,,,,,,,,,,,o,3.217999935,POTAO,FALSE,1,0,5,2,1,4,147,jaqueta,Catalan,Sounds/cat_jaqueta.mp3,2020-06-04_21h35.46.305,TranslationElicitation_eng-prolific,3.2.4,MacIntel,60,5ea21ef214912a12fa60eb5e,,,,,,,
,,,,,,,,,,,,,,,,,,,,,,,,,,,,,,,,,,,,,,,,,return,3.78399992,POTAO,FALSE,1,0,5,2,1,4,147,jaqueta,Catalan,Sounds/cat_jaqueta.mp3,2020-06-04_21h35.46.305,TranslationElicitation_eng-prolific,3.2.4,MacIntel,60,5ea21ef214912a12fa60eb5e,3.78399992,,,,,,
,,,,,,,,,,,,,,,,,,,,,,,,,,,,,,,,,,,,,,,,,,,,,1,0,5,2,1,4,147,jaqueta,Catalan,Sounds/cat_jaqueta.mp3,2020-06-04_21h35.46.305,TranslationElicitation_eng-prolific,3.2.4,MacIntel,60,5ea21ef214912a12fa60eb5e,,,,,,,
,,,,,,,,,,,,,,,,,,,,,,,,,,,,,,,,,,,,,,,,,h,1.917000055,H,FALSE,1,0,5,0,1,4,109,arbre,Catalan,Sounds/cat_arbre.mp3,2020-06-04_21h35.46.305,TranslationElicitation_eng-prolific,3.2.4,MacIntel,60,5ea21ef214912a12fa60eb5e,,,,,,,
,,,,,,,,,,,,,,,,,,,,,,,,,,,,,,,,,,,,,,,,,o,2.435000181,HO,FALSE,1,0,5,0,1,4,109,arbre,Catalan,Sounds/cat_arbre.mp3,2020-06-04_21h35.46.305,TranslationElicitation_eng-prolific,3.2.4,MacIntel,60,5ea21ef214912a12fa60eb5e,,,,,,,
,,,,,,,,,,,,,,,,,,,,,,,,,,,,,,,,,,,,,,,,,backspace,3.034000158,H,TRUE,1,0,5,0,1,4,109,arbre,Catalan,Sounds/cat_arbre.mp3,2020-06-04_21h35.46.305,TranslationElicitation_eng-prolific,3.2.4,MacIntel,60,5ea21ef214912a12fa60eb5e,,,,,,,
,,,,,,,,,,,,,,,,,,,,,,,,,,,,,,,,,,,,,,,,,t,4.333000183,HT,TRUE,1,0,5,0,1,4,109,arbre,Catalan,Sounds/cat_arbre.mp3,2020-06-04_21h35.46.305,TranslationElicitation_eng-prolific,3.2.4,MacIntel,60,5ea21ef214912a12fa60eb5e,,,,,,,
,,,,,,,,,,,,,,,,,,,,,,,,,,,,,,,,,,,,,,,,,a,4.350000143,HTA,TRUE,1,0,5,0,1,4,109,arbre,Catalan,Sounds/cat_arbre.mp3,2020-06-04_21h35.46.305,TranslationElicitation_eng-prolific,3.2.4,MacIntel,60,5ea21ef214912a12fa60eb5e,,,,,,,
,,,,,,,,,,,,,,,,,,,,,,,,,,,,,,,,,,,,,,,,,return,4.718000174,HTA,TRUE,1,0,5,0,1,4,109,arbre,Catalan,Sounds/cat_arbre.mp3,2020-06-04_21h35.46.305,TranslationElicitation_eng-prolific,3.2.4,MacIntel,60,5ea21ef214912a12fa60eb5e,4.718000174,,,,,,
,,,,,,,,,,,,,,,,,,,,,,,,,,,,,,,,,,,,,,,,,,,,,1,0,5,0,1,4,109,arbre,Catalan,Sounds/cat_arbre.mp3,2020-06-04_21h35.46.305,TranslationElicitation_eng-prolific,3.2.4,MacIntel,60,5ea21ef214912a12fa60eb5e,,,,,,,
,,,,,,,,,,,,,,,,,,,,,,,,,,,,,,,,,,,,,,,,,c,1.648999929,C,FALSE,1,0,5,1,1,4,126,corona,Catalan,Sounds/cat_corona.mp3,2020-06-04_21h35.46.305,TranslationElicitation_eng-prolific,3.2.4,MacIntel,60,5ea21ef214912a12fa60eb5e,,,,,,,
,,,,,,,,,,,,,,,,,,,,,,,,,,,,,,,,,,,,,,,,,o,1.815999985,CO,FALSE,1,0,5,1,1,4,126,corona,Catalan,Sounds/cat_corona.mp3,2020-06-04_21h35.46.305,TranslationElicitation_eng-prolific,3.2.4,MacIntel,60,5ea21ef214912a12fa60eb5e,,,,,,,
,,,,,,,,,,,,,,,,,,,,,,,,,,,,,,,,,,,,,,,,,r,1.967000008,COR,FALSE,1,0,5,1,1,4,126,corona,Catalan,Sounds/cat_corona.mp3,2020-06-04_21h35.46.305,TranslationElicitation_eng-prolific,3.2.4,MacIntel,60,5ea21ef214912a12fa60eb5e,,,,,,,
,,,,,,,,,,,,,,,,,,,,,,,,,,,,,,,,,,,,,,,,,o,2.099999905,CORO,FALSE,1,0,5,1,1,4,126,corona,Catalan,Sounds/cat_corona.mp3,2020-06-04_21h35.46.305,TranslationElicitation_eng-prolific,3.2.4,MacIntel,60,5ea21ef214912a12fa60eb5e,,,,,,,
,,,,,,,,,,,,,,,,,,,,,,,,,,,,,,,,,,,,,,,,,n,2.349999905,CORON,FALSE,1,0,5,1,1,4,126,corona,Catalan,Sounds/cat_corona.mp3,2020-06-04_21h35.46.305,TranslationElicitation_eng-prolific,3.2.4,MacIntel,60,5ea21ef214912a12fa60eb5e,,,,,,,
,,,,,,,,,,,,,,,,,,,,,,,,,,,,,,,,,,,,,,,,,a,2.598999977,CORONA,FALSE,1,0,5,1,1,4,126,corona,Catalan,Sounds/cat_corona.mp3,2020-06-04_21h35.46.305,TranslationElicitation_eng-prolific,3.2.4,MacIntel,60,5ea21ef214912a12fa60eb5e,,,,,,,
,,,,,,,,,,,,,,,,,,,,,,,,,,,,,,,,,,,,,,,,,return,2.731999874,CORONA,FALSE,1,0,5,1,1,4,126,corona,Catalan,Sounds/cat_corona.mp3,2020-06-04_21h35.46.305,TranslationElicitation_eng-prolific,3.2.4,MacIntel,60,5ea21ef214912a12fa60eb5e,2.731999874,,,,,,
,,,,,,,,,,,,,,,,,,,,,,,,,,,,,,,,,,,,,,,,,,,,,1,0,5,1,1,4,126,corona,Catalan,Sounds/cat_corona.mp3,2020-06-04_21h35.46.305,TranslationElicitation_eng-prolific,3.2.4,MacIntel,60,5ea21ef214912a12fa60eb5e,,,,,,,
,,,,,,,,,,,,,,,,,,,,,,,,,,,,,,,,,,,,,,,,,g,3.414999962,G,FALSE,,,,,,,143,globus,Catalan,Sounds/cat_globus.mp3,2020-06-04_21h35.46.305,TranslationElicitation_eng-prolific,3.2.4,MacIntel,60,5ea21ef214912a12fa60eb5e,,1,0,81,37,1,80
,,,,,,,,,,,,,,,,,,,,,,,,,,,,,,,,,,,,,,,,,l,3.648999929,GL,FALSE,,,,,,,143,globus,Catalan,Sounds/cat_globus.mp3,2020-06-04_21h35.46.305,TranslationElicitation_eng-prolific,3.2.4,MacIntel,60,5ea21ef214912a12fa60eb5e,,1,0,81,37,1,80
,,,,,,,,,,,,,,,,,,,,,,,,,,,,,,,,,,,,,,,,,o,3.75,GLO,FALSE,,,,,,,143,globus,Catalan,Sounds/cat_globus.mp3,2020-06-04_21h35.46.305,TranslationElicitation_eng-prolific,3.2.4,MacIntel,60,5ea21ef214912a12fa60eb5e,,1,0,81,37,1,80
,,,,,,,,,,,,,,,,,,,,,,,,,,,,,,,,,,,,,,,,,b,4.732000113,GLOB,FALSE,,,,,,,143,globus,Catalan,Sounds/cat_globus.mp3,2020-06-04_21h35.46.305,TranslationElicitation_eng-prolific,3.2.4,MacIntel,60,5ea21ef214912a12fa60eb5e,,1,0,81,37,1,80
,,,,,,,,,,,,,,,,,,,,,,,,,,,,,,,,,,,,,,,,,e,4.898999929,GLOBE,FALSE,,,,,,,143,globus,Catalan,Sounds/cat_globus.mp3,2020-06-04_21h35.46.305,TranslationElicitation_eng-prolific,3.2.4,MacIntel,60,5ea21ef214912a12fa60eb5e,,1,0,81,37,1,80
,,,,,,,,,,,,,,,,,,,,,,,,,,,,,,,,,,,,,,,,,return,5.049000025,GLOBE,FALSE,,,,,,,143,globus,Catalan,Sounds/cat_globus.mp3,2020-06-04_21h35.46.305,TranslationElicitation_eng-prolific,3.2.4,MacIntel,60,5ea21ef214912a12fa60eb5e,5.049000025,1,0,81,37,1,80
,,,,,,,,,,,,,,,,,,,,,,,,,,,,,,,,,,,,,,,,,,,,,,,,,,,143,globus,Catalan,Sounds/cat_globus.mp3,2020-06-04_21h35.46.305,TranslationElicitation_eng-prolific,3.2.4,MacIntel,60,5ea21ef214912a12fa60eb5e,,1,0,81,37,1,80
,,,,,,,,,,,,,,,,,,,,,,,,,,,,,,,,,,,,,,,,,d,1.916000128,D,FALSE,,,,,,,170,ploma,Catalan,Sounds/cat_ploma.mp3,2020-06-04_21h35.46.305,TranslationElicitation_eng-prolific,3.2.4,MacIntel,60,5ea21ef214912a12fa60eb5e,,1,0,81,62,1,80
,,,,,,,,,,,,,,,,,,,,,,,,,,,,,,,,,,,,,,,,,i,2.133000135,DI,FALSE,,,,,,,170,ploma,Catalan,Sounds/cat_ploma.mp3,2020-06-04_21h35.46.305,TranslationElicitation_eng-prolific,3.2.4,MacIntel,60,5ea21ef214912a12fa60eb5e,,1,0,81,62,1,80
,,,,,,,,,,,,,,,,,,,,,,,,,,,,,,,,,,,,,,,,,p,2.366000175,DIP,FALSE,,,,,,,170,ploma,Catalan,Sounds/cat_ploma.mp3,2020-06-04_21h35.46.305,TranslationElicitation_eng-prolific,3.2.4,MacIntel,60,5ea21ef214912a12fa60eb5e,,1,0,81,62,1,80
,,,,,,,,,,,,,,,,,,,,,,,,,,,,,,,,,,,,,,,,,l,2.617000103,DIPL,FALSE,,,,,,,170,ploma,Catalan,Sounds/cat_ploma.mp3,2020-06-04_21h35.46.305,TranslationElicitation_eng-prolific,3.2.4,MacIntel,60,5ea21ef214912a12fa60eb5e,,1,0,81,62,1,80
,,,,,,,,,,,,,,,,,,,,,,,,,,,,,,,,,,,,,,,,,o,2.832000017,DIPLO,FALSE,,,,,,,170,ploma,Catalan,Sounds/cat_ploma.mp3,2020-06-04_21h35.46.305,TranslationElicitation_eng-prolific,3.2.4,MacIntel,60,5ea21ef214912a12fa60eb5e,,1,0,81,62,1,80
,,,,,,,,,,,,,,,,,,,,,,,,,,,,,,,,,,,,,,,,,m,2.999000072,DIPLOM,FALSE,,,,,,,170,ploma,Catalan,Sounds/cat_ploma.mp3,2020-06-04_21h35.46.305,TranslationElicitation_eng-prolific,3.2.4,MacIntel,60,5ea21ef214912a12fa60eb5e,,1,0,81,62,1,80
,,,,,,,,,,,,,,,,,,,,,,,,,,,,,,,,,,,,,,,,,a,3.23300004,DIPLOMA,FALSE,,,,,,,170,ploma,Catalan,Sounds/cat_ploma.mp3,2020-06-04_21h35.46.305,TranslationElicitation_eng-prolific,3.2.4,MacIntel,60,5ea21ef214912a12fa60eb5e,,1,0,81,62,1,80
,,,,,,,,,,,,,,,,,,,,,,,,,,,,,,,,,,,,,,,,,return,3.467000008,DIPLOMA,FALSE,,,,,,,170,ploma,Catalan,Sounds/cat_ploma.mp3,2020-06-04_21h35.46.305,TranslationElicitation_eng-prolific,3.2.4,MacIntel,60,5ea21ef214912a12fa60eb5e,3.467000008,1,0,81,62,1,80
,,,,,,,,,,,,,,,,,,,,,,,,,,,,,,,,,,,,,,,,,,,,,,,,,,,170,ploma,Catalan,Sounds/cat_ploma.mp3,2020-06-04_21h35.46.305,TranslationElicitation_eng-prolific,3.2.4,MacIntel,60,5ea21ef214912a12fa60eb5e,,1,0,81,62,1,80
,,,,,,,,,,,,,,,,,,,,,,,,,,,,,,,,,,,,,,,,,e,8.46600008,E,FALSE,,,,,,,108,ampolla,Catalan,Sounds/cat_ampolla.mp3,2020-06-04_21h35.46.305,TranslationElicitation_eng-prolific,3.2.4,MacIntel,60,5ea21ef214912a12fa60eb5e,,1,0,81,4,1,80
,,,,,,,,,,,,,,,,,,,,,,,,,,,,,,,,,,,,,,,,,x,8.832000017,EX,FALSE,,,,,,,108,ampolla,Catalan,Sounds/cat_ampolla.mp3,2020-06-04_21h35.46.305,TranslationElicitation_eng-prolific,3.2.4,MacIntel,60,5ea21ef214912a12fa60eb5e,,1,0,81,4,1,80
,,,,,,,,,,,,,,,,,,,,,,,,,,,,,,,,,,,,,,,,,p,8.94900012,EXP,FALSE,,,,,,,108,ampolla,Catalan,Sounds/cat_ampolla.mp3,2020-06-04_21h35.46.305,TranslationElicitation_eng-prolific,3.2.4,MacIntel,60,5ea21ef214912a12fa60eb5e,,1,0,81,4,1,80
,,,,,,,,,,,,,,,,,,,,,,,,,,,,,,,,,,,,,,,,,l,9.098999977,EXPL,FALSE,,,,,,,108,ampolla,Catalan,Sounds/cat_ampolla.mp3,2020-06-04_21h35.46.305,TranslationElicitation_eng-prolific,3.2.4,MacIntel,60,5ea21ef214912a12fa60eb5e,,1,0,81,4,1,80
,,,,,,,,,,,,,,,,,,,,,,,,,,,,,,,,,,,,,,,,,o,10.76600003,EXPLO,FALSE,,,,,,,108,ampolla,Catalan,Sounds/cat_ampolla.mp3,2020-06-04_21h35.46.305,TranslationElicitation_eng-prolific,3.2.4,MacIntel,60,5ea21ef214912a12fa60eb5e,,1,0,81,4,1,80
,,,,,,,,,,,,,,,,,,,,,,,,,,,,,,,,,,,,,,,,,d,11.36600018,EXPLOD,FALSE,,,,,,,108,ampolla,Catalan,Sounds/cat_ampolla.mp3,2020-06-04_21h35.46.305,TranslationElicitation_eng-prolific,3.2.4,MacIntel,60,5ea21ef214912a12fa60eb5e,,1,0,81,4,1,80
,,,,,,,,,,,,,,,,,,,,,,,,,,,,,,,,,,,,,,,,,e,11.51699996,EXPLODE,FALSE,,,,,,,108,ampolla,Catalan,Sounds/cat_ampolla.mp3,2020-06-04_21h35.46.305,TranslationElicitation_eng-prolific,3.2.4,MacIntel,60,5ea21ef214912a12fa60eb5e,,1,0,81,4,1,80
,,,,,,,,,,,,,,,,,,,,,,,,,,,,,,,,,,,,,,,,,return,11.71700001,EXPLODE,FALSE,,,,,,,108,ampolla,Catalan,Sounds/cat_ampolla.mp3,2020-06-04_21h35.46.305,TranslationElicitation_eng-prolific,3.2.4,MacIntel,60,5ea21ef214912a12fa60eb5e,11.71700001,1,0,81,4,1,80
,,,,,,,,,,,,,,,,,,,,,,,,,,,,,,,,,,,,,,,,,,,,,,,,,,,108,ampolla,Catalan,Sounds/cat_ampolla.mp3,2020-06-04_21h35.46.305,TranslationElicitation_eng-prolific,3.2.4,MacIntel,60,5ea21ef214912a12fa60eb5e,,1,0,81,4,1,80
,,,,,,,,,,,,,,,,,,,,,,,,,,,,,,,,,,,,,,,,,s,1.782999992,S,FALSE,,,,,,,176,samarreta,Catalan,Sounds/cat_samarreta.mp3,2020-06-04_21h35.46.305,TranslationElicitation_eng-prolific,3.2.4,MacIntel,60,5ea21ef214912a12fa60eb5e,,1,0,81,68,1,80
,,,,,,,,,,,,,,,,,,,,,,,,,,,,,,,,,,,,,,,,,u,2,SU,FALSE,,,,,,,176,samarreta,Catalan,Sounds/cat_samarreta.mp3,2020-06-04_21h35.46.305,TranslationElicitation_eng-prolific,3.2.4,MacIntel,60,5ea21ef214912a12fa60eb5e,,1,0,81,68,1,80
,,,,,,,,,,,,,,,,,,,,,,,,,,,,,,,,,,,,,,,,,m,2.332999945,SUM,FALSE,,,,,,,176,samarreta,Catalan,Sounds/cat_samarreta.mp3,2020-06-04_21h35.46.305,TranslationElicitation_eng-prolific,3.2.4,MacIntel,60,5ea21ef214912a12fa60eb5e,,1,0,81,68,1,80
,,,,,,,,,,,,,,,,,,,,,,,,,,,,,,,,,,,,,,,,,m,2.565999985,SUMM,FALSE,,,,,,,176,samarreta,Catalan,Sounds/cat_samarreta.mp3,2020-06-04_21h35.46.305,TranslationElicitation_eng-prolific,3.2.4,MacIntel,60,5ea21ef214912a12fa60eb5e,,1,0,81,68,1,80
,,,,,,,,,,,,,,,,,,,,,,,,,,,,,,,,,,,,,,,,,e,2.900000095,SUMME,FALSE,,,,,,,176,samarreta,Catalan,Sounds/cat_samarreta.mp3,2020-06-04_21h35.46.305,TranslationElicitation_eng-prolific,3.2.4,MacIntel,60,5ea21ef214912a12fa60eb5e,,1,0,81,68,1,80
,,,,,,,,,,,,,,,,,,,,,,,,,,,,,,,,,,,,,,,,,r,3.084000111,SUMMER,FALSE,,,,,,,176,samarreta,Catalan,Sounds/cat_samarreta.mp3,2020-06-04_21h35.46.305,TranslationElicitation_eng-prolific,3.2.4,MacIntel,60,5ea21ef214912a12fa60eb5e,,1,0,81,68,1,80
,,,,,,,,,,,,,,,,,,,,,,,,,,,,,,,,,,,,,,,,,return,3.26699996,SUMMER,FALSE,,,,,,,176,samarreta,Catalan,Sounds/cat_samarreta.mp3,2020-06-04_21h35.46.305,TranslationElicitation_eng-prolific,3.2.4,MacIntel,60,5ea21ef214912a12fa60eb5e,3.26699996,1,0,81,68,1,80
,,,,,,,,,,,,,,,,,,,,,,,,,,,,,,,,,,,,,,,,,,,,,,,,,,,176,samarreta,Catalan,Sounds/cat_samarreta.mp3,2020-06-04_21h35.46.305,TranslationElicitation_eng-prolific,3.2.4,MacIntel,60,5ea21ef214912a12fa60eb5e,,1,0,81,68,1,80
,,,,,,,,,,,,,,,,,,,,,,,,,,,,,,,,,,,,,,,,,g,2.299000025,G,FALSE,,,,,,,149,llibre,Catalan,Sounds/cat_llibre.mp3,2020-06-04_21h35.46.305,TranslationElicitation_eng-prolific,3.2.4,MacIntel,60,5ea21ef214912a12fa60eb5e,,1,0,81,42,1,80
,,,,,,,,,,,,,,,,,,,,,,,,,,,,,,,,,,,,,,,,,l,2.683000088,GL,FALSE,,,,,,,149,llibre,Catalan,Sounds/cat_llibre.mp3,2020-06-04_21h35.46.305,TranslationElicitation_eng-prolific,3.2.4,MacIntel,60,5ea21ef214912a12fa60eb5e,,1,0,81,42,1,80
,,,,,,,,,,,,,,,,,,,,,,,,,,,,,,,,,,,,,,,,,o,2.883000135,GLO,FALSE,,,,,,,149,llibre,Catalan,Sounds/cat_llibre.mp3,2020-06-04_21h35.46.305,TranslationElicitation_eng-prolific,3.2.4,MacIntel,60,5ea21ef214912a12fa60eb5e,,1,0,81,42,1,80
,,,,,,,,,,,,,,,,,,,,,,,,,,,,,,,,,,,,,,,,,w,3.032999992,GLOW,FALSE,,,,,,,149,llibre,Catalan,Sounds/cat_llibre.mp3,2020-06-04_21h35.46.305,TranslationElicitation_eng-prolific,3.2.4,MacIntel,60,5ea21ef214912a12fa60eb5e,,1,0,81,42,1,80
,,,,,,,,,,,,,,,,,,,,,,,,,,,,,,,,,,,,,,,,,backspace,4.400000095,GLO,TRUE,,,,,,,149,llibre,Catalan,Sounds/cat_llibre.mp3,2020-06-04_21h35.46.305,TranslationElicitation_eng-prolific,3.2.4,MacIntel,60,5ea21ef214912a12fa60eb5e,,1,0,81,42,1,80
,,,,,,,,,,,,,,,,,,,,,,,,,,,,,,,,,,,,,,,,,w,5.616000175,GLOW,TRUE,,,,,,,149,llibre,Catalan,Sounds/cat_llibre.mp3,2020-06-04_21h35.46.305,TranslationElicitation_eng-prolific,3.2.4,MacIntel,60,5ea21ef214912a12fa60eb5e,,1,0,81,42,1,80
,,,,,,,,,,,,,,,,,,,,,,,,,,,,,,,,,,,,,,,,,return,5.784000158,GLOW,TRUE,,,,,,,149,llibre,Catalan,Sounds/cat_llibre.mp3,2020-06-04_21h35.46.305,TranslationElicitation_eng-prolific,3.2.4,MacIntel,60,5ea21ef214912a12fa60eb5e,5.784000158,1,0,81,42,1,80
,,,,,,,,,,,,,,,,,,,,,,,,,,,,,,,,,,,,,,,,,,,,,,,,,,,149,llibre,Catalan,Sounds/cat_llibre.mp3,2020-06-04_21h35.46.305,TranslationElicitation_eng-prolific,3.2.4,MacIntel,60,5ea21ef214912a12fa60eb5e,,1,0,81,42,1,80
,,,,,,,,,,,,,,,,,,,,,,,,,,,,,,,,,,,,,,,,,u,17.54999995,U,FALSE,,,,,,,161,ovella,Catalan,Sounds/cat_ovella.mp3,2020-06-04_21h35.46.305,TranslationElicitation_eng-prolific,3.2.4,MacIntel,60,5ea21ef214912a12fa60eb5e,,1,0,81,53,1,80
,,,,,,,,,,,,,,,,,,,,,,,,,,,,,,,,,,,,,,,,,m,17.78399992,UM,FALSE,,,,,,,161,ovella,Catalan,Sounds/cat_ovella.mp3,2020-06-04_21h35.46.305,TranslationElicitation_eng-prolific,3.2.4,MacIntel,60,5ea21ef214912a12fa60eb5e,,1,0,81,53,1,80
,,,,,,,,,,,,,,,,,,,,,,,,,,,,,,,,,,,,,,,,,b,18.10099983,UMB,FALSE,,,,,,,161,ovella,Catalan,Sounds/cat_ovella.mp3,2020-06-04_21h35.46.305,TranslationElicitation_eng-prolific,3.2.4,MacIntel,60,5ea21ef214912a12fa60eb5e,,1,0,81,53,1,80
,,,,,,,,,,,,,,,,,,,,,,,,,,,,,,,,,,,,,,,,,e,18.36699986,UMBE,FALSE,,,,,,,161,ovella,Catalan,Sounds/cat_ovella.mp3,2020-06-04_21h35.46.305,TranslationElicitation_eng-prolific,3.2.4,MacIntel,60,5ea21ef214912a12fa60eb5e,,1,0,81,53,1,80
,,,,,,,,,,,,,,,,,,,,,,,,,,,,,,,,,,,,,,,,,r,18.53299999,UMBER,FALSE,,,,,,,161,ovella,Catalan,Sounds/cat_ovella.mp3,2020-06-04_21h35.46.305,TranslationElicitation_eng-prolific,3.2.4,MacIntel,60,5ea21ef214912a12fa60eb5e,,1,0,81,53,1,80
,,,,,,,,,,,,,,,,,,,,,,,,,,,,,,,,,,,,,,,,,r,18.73300004,UMBERR,FALSE,,,,,,,161,ovella,Catalan,Sounds/cat_ovella.mp3,2020-06-04_21h35.46.305,TranslationElicitation_eng-prolific,3.2.4,MacIntel,60,5ea21ef214912a12fa60eb5e,,1,0,81,53,1,80
,,,,,,,,,,,,,,,,,,,,,,,,,,,,,,,,,,,,,,,,,backspace,19.38399982,UMBER,TRUE,,,,,,,161,ovella,Catalan,Sounds/cat_ovella.mp3,2020-06-04_21h35.46.305,TranslationElicitation_eng-prolific,3.2.4,MacIntel,60,5ea21ef214912a12fa60eb5e,,1,0,81,53,1,80
,,,,,,,,,,,,,,,,,,,,,,,,,,,,,,,,,,,,,,,,,backspace,19.58399987,UMBE,TRUE,,,,,,,161,ovella,Catalan,Sounds/cat_ovella.mp3,2020-06-04_21h35.46.305,TranslationElicitation_eng-prolific,3.2.4,MacIntel,60,5ea21ef214912a12fa60eb5e,,1,0,81,53,1,80
,,,,,,,,,,,,,,,,,,,,,,,,,,,,,,,,,,,,,,,,,backspace,19.81699991,UMB,TRUE,,,,,,,161,ovella,Catalan,Sounds/cat_ovella.mp3,2020-06-04_21h35.46.305,TranslationElicitation_eng-prolific,3.2.4,MacIntel,60,5ea21ef214912a12fa60eb5e,,1,0,81,53,1,80
,,,,,,,,,,,,,,,,,,,,,,,,,,,,,,,,,,,,,,,,,r,20.65100002,UMBR,TRUE,,,,,,,161,ovella,Catalan,Sounds/cat_ovella.mp3,2020-06-04_21h35.46.305,TranslationElicitation_eng-prolific,3.2.4,MacIntel,60,5ea21ef214912a12fa60eb5e,,1,0,81,53,1,80
,,,,,,,,,,,,,,,,,,,,,,,,,,,,,,,,,,,,,,,,,e,20.81799984,UMBRE,TRUE,,,,,,,161,ovella,Catalan,Sounds/cat_ovella.mp3,2020-06-04_21h35.46.305,TranslationElicitation_eng-prolific,3.2.4,MacIntel,60,5ea21ef214912a12fa60eb5e,,1,0,81,53,1,80
,,,,,,,,,,,,,,,,,,,,,,,,,,,,,,,,,,,,,,,,,l,20.96700001,UMBREL,TRUE,,,,,,,161,ovella,Catalan,Sounds/cat_ovella.mp3,2020-06-04_21h35.46.305,TranslationElicitation_eng-prolific,3.2.4,MacIntel,60,5ea21ef214912a12fa60eb5e,,1,0,81,53,1,80
,,,,,,,,,,,,,,,,,,,,,,,,,,,,,,,,,,,,,,,,,l,21.08399987,UMBRELL,TRUE,,,,,,,161,ovella,Catalan,Sounds/cat_ovella.mp3,2020-06-04_21h35.46.305,TranslationElicitation_eng-prolific,3.2.4,MacIntel,60,5ea21ef214912a12fa60eb5e,,1,0,81,53,1,80
,,,,,,,,,,,,,,,,,,,,,,,,,,,,,,,,,,,,,,,,,a,21.93299985,UMBRELLA,TRUE,,,,,,,161,ovella,Catalan,Sounds/cat_ovella.mp3,2020-06-04_21h35.46.305,TranslationElicitation_eng-prolific,3.2.4,MacIntel,60,5ea21ef214912a12fa60eb5e,,1,0,81,53,1,80
,,,,,,,,,,,,,,,,,,,,,,,,,,,,,,,,,,,,,,,,,return,22.06699991,UMBRELLA,TRUE,,,,,,,161,ovella,Catalan,Sounds/cat_ovella.mp3,2020-06-04_21h35.46.305,TranslationElicitation_eng-prolific,3.2.4,MacIntel,60,5ea21ef214912a12fa60eb5e,22.06699991,1,0,81,53,1,80
,,,,,,,,,,,,,,,,,,,,,,,,,,,,,,,,,,,,,,,,,,,,,,,,,,,161,ovella,Catalan,Sounds/cat_ovella.mp3,2020-06-04_21h35.46.305,TranslationElicitation_eng-prolific,3.2.4,MacIntel,60,5ea21ef214912a12fa60eb5e,,1,0,81,53,1,80
,,,,,,,,,,,,,,,,,,,,,,,,,,,,,,,,,,,,,,,,,p,2.417000055,P,FALSE,,,,,,,173,porc,Catalan,Sounds/cat_porc.mp3,2020-06-04_21h35.46.305,TranslationElicitation_eng-prolific,3.2.4,MacIntel,60,5ea21ef214912a12fa60eb5e,,1,0,81,65,1,80
,,,,,,,,,,,,,,,,,,,,,,,,,,,,,,,,,,,,,,,,,a,2.46600008,PA,FALSE,,,,,,,173,porc,Catalan,Sounds/cat_porc.mp3,2020-06-04_21h35.46.305,TranslationElicitation_eng-prolific,3.2.4,MacIntel,60,5ea21ef214912a12fa60eb5e,,1,0,81,65,1,80
,,,,,,,,,,,,,,,,,,,,,,,,,,,,,,,,,,,,,,,,,r,3.650000095,PAR,FALSE,,,,,,,173,porc,Catalan,Sounds/cat_porc.mp3,2020-06-04_21h35.46.305,TranslationElicitation_eng-prolific,3.2.4,MacIntel,60,5ea21ef214912a12fa60eb5e,,1,0,81,65,1,80
,,,,,,,,,,,,,,,,,,,,,,,,,,,,,,,,,,,,,,,,,k,3.934000015,PARK,FALSE,,,,,,,173,porc,Catalan,Sounds/cat_porc.mp3,2020-06-04_21h35.46.305,TranslationElicitation_eng-prolific,3.2.4,MacIntel,60,5ea21ef214912a12fa60eb5e,,1,0,81,65,1,80
,,,,,,,,,,,,,,,,,,,,,,,,,,,,,,,,,,,,,,,,,return,4.532999992,PARK,FALSE,,,,,,,173,porc,Catalan,Sounds/cat_porc.mp3,2020-06-04_21h35.46.305,TranslationElicitation_eng-prolific,3.2.4,MacIntel,60,5ea21ef214912a12fa60eb5e,4.532999992,1,0,81,65,1,80
,,,,,,,,,,,,,,,,,,,,,,,,,,,,,,,,,,,,,,,,,,,,,,,,,,,173,porc,Catalan,Sounds/cat_porc.mp3,2020-06-04_21h35.46.305,TranslationElicitation_eng-prolific,3.2.4,MacIntel,60,5ea21ef214912a12fa60eb5e,,1,0,81,65,1,80
,,,,,,,,,,,,,,,,,,,,,,,,,,,,,,,,,,,,,,,,,p,4.28399992,P,FALSE,,,,,,,171,pollastre,Catalan,Sounds/cat_pollastre.mp3,2020-06-04_21h35.46.305,TranslationElicitation_eng-prolific,3.2.4,MacIntel,60,5ea21ef214912a12fa60eb5e,,1,0,81,63,1,80
,,,,,,,,,,,,,,,,,,,,,,,,,,,,,,,,,,,,,,,,,r,4.500999928,PR,FALSE,,,,,,,171,pollastre,Catalan,Sounds/cat_pollastre.mp3,2020-06-04_21h35.46.305,TranslationElicitation_eng-prolific,3.2.4,MacIntel,60,5ea21ef214912a12fa60eb5e,,1,0,81,63,1,80
,,,,,,,,,,,,,,,,,,,,,,,,,,,,,,,,,,,,,,,,,g,4.983999968,PRG,FALSE,,,,,,,171,pollastre,Catalan,Sounds/cat_pollastre.mp3,2020-06-04_21h35.46.305,TranslationElicitation_eng-prolific,3.2.4,MacIntel,60,5ea21ef214912a12fa60eb5e,,1,0,81,63,1,80
,,,,,,,,,,,,,,,,,,,,,,,,,,,,,,,,,,,,,,,,,r,5.233999968,PRGR,FALSE,,,,,,,171,pollastre,Catalan,Sounds/cat_pollastre.mp3,2020-06-04_21h35.46.305,TranslationElicitation_eng-prolific,3.2.4,MacIntel,60,5ea21ef214912a12fa60eb5e,,1,0,81,63,1,80
,,,,,,,,,,,,,,,,,,,,,,,,,,,,,,,,,,,,,,,,,e,5.40199995,PRGRE,FALSE,,,,,,,171,pollastre,Catalan,Sounds/cat_pollastre.mp3,2020-06-04_21h35.46.305,TranslationElicitation_eng-prolific,3.2.4,MacIntel,60,5ea21ef214912a12fa60eb5e,,1,0,81,63,1,80
,,,,,,,,,,,,,,,,,,,,,,,,,,,,,,,,,,,,,,,,,s,5.650000095,PRGRES,FALSE,,,,,,,171,pollastre,Catalan,Sounds/cat_pollastre.mp3,2020-06-04_21h35.46.305,TranslationElicitation_eng-prolific,3.2.4,MacIntel,60,5ea21ef214912a12fa60eb5e,,1,0,81,63,1,80
,,,,,,,,,,,,,,,,,,,,,,,,,,,,,,,,,,,,,,,,,s,6.250999928,PRGRESS,FALSE,,,,,,,171,pollastre,Catalan,Sounds/cat_pollastre.mp3,2020-06-04_21h35.46.305,TranslationElicitation_eng-prolific,3.2.4,MacIntel,60,5ea21ef214912a12fa60eb5e,,1,0,81,63,1,80
,,,,,,,,,,,,,,,,,,,,,,,,,,,,,,,,,,,,,,,,,backspace,8.983999968,PRGRES,TRUE,,,,,,,171,pollastre,Catalan,Sounds/cat_pollastre.mp3,2020-06-04_21h35.46.305,TranslationElicitation_eng-prolific,3.2.4,MacIntel,60,5ea21ef214912a12fa60eb5e,,1,0,81,63,1,80
,,,,,,,,,,,,,,,,,,,,,,,,,,,,,,,,,,,,,,,,,backspace,9.167999983,PRGRE,TRUE,,,,,,,171,pollastre,Catalan,Sounds/cat_pollastre.mp3,2020-06-04_21h35.46.305,TranslationElicitation_eng-prolific,3.2.4,MacIntel,60,5ea21ef214912a12fa60eb5e,,1,0,81,63,1,80
,,,,,,,,,,,,,,,,,,,,,,,,,,,,,,,,,,,,,,,,,backspace,9.319000006,PRGR,TRUE,,,,,,,171,pollastre,Catalan,Sounds/cat_pollastre.mp3,2020-06-04_21h35.46.305,TranslationElicitation_eng-prolific,3.2.4,MacIntel,60,5ea21ef214912a12fa60eb5e,,1,0,81,63,1,80
,,,,,,,,,,,,,,,,,,,,,,,,,,,,,,,,,,,,,,,,,backspace,9.467999935,PRG,TRUE,,,,,,,171,pollastre,Catalan,Sounds/cat_pollastre.mp3,2020-06-04_21h35.46.305,TranslationElicitation_eng-prolific,3.2.4,MacIntel,60,5ea21ef214912a12fa60eb5e,,1,0,81,63,1,80
,,,,,,,,,,,,,,,,,,,,,,,,,,,,,,,,,,,,,,,,,backspace,9.834000111,PR,TRUE,,,,,,,171,pollastre,Catalan,Sounds/cat_pollastre.mp3,2020-06-04_21h35.46.305,TranslationElicitation_eng-prolific,3.2.4,MacIntel,60,5ea21ef214912a12fa60eb5e,,1,0,81,63,1,80
,,,,,,,,,,,,,,,,,,,,,,,,,,,,,,,,,,,,,,,,,o,10.51900005,PRO,TRUE,,,,,,,171,pollastre,Catalan,Sounds/cat_pollastre.mp3,2020-06-04_21h35.46.305,TranslationElicitation_eng-prolific,3.2.4,MacIntel,60,5ea21ef214912a12fa60eb5e,,1,0,81,63,1,80
,,,,,,,,,,,,,,,,,,,,,,,,,,,,,,,,,,,,,,,,,g,10.83400011,PROG,TRUE,,,,,,,171,pollastre,Catalan,Sounds/cat_pollastre.mp3,2020-06-04_21h35.46.305,TranslationElicitation_eng-prolific,3.2.4,MacIntel,60,5ea21ef214912a12fa60eb5e,,1,0,81,63,1,80
,,,,,,,,,,,,,,,,,,,,,,,,,,,,,,,,,,,,,,,,,r,11.06800008,PROGR,TRUE,,,,,,,171,pollastre,Catalan,Sounds/cat_pollastre.mp3,2020-06-04_21h35.46.305,TranslationElicitation_eng-prolific,3.2.4,MacIntel,60,5ea21ef214912a12fa60eb5e,,1,0,81,63,1,80
,,,,,,,,,,,,,,,,,,,,,,,,,,,,,,,,,,,,,,,,,e,11.2190001,PROGRE,TRUE,,,,,,,171,pollastre,Catalan,Sounds/cat_pollastre.mp3,2020-06-04_21h35.46.305,TranslationElicitation_eng-prolific,3.2.4,MacIntel,60,5ea21ef214912a12fa60eb5e,,1,0,81,63,1,80
,,,,,,,,,,,,,,,,,,,,,,,,,,,,,,,,,,,,,,,,,e,11.36800003,PROGREE,TRUE,,,,,,,171,pollastre,Catalan,Sounds/cat_pollastre.mp3,2020-06-04_21h35.46.305,TranslationElicitation_eng-prolific,3.2.4,MacIntel,60,5ea21ef214912a12fa60eb5e,,1,0,81,63,1,80
,,,,,,,,,,,,,,,,,,,,,,,,,,,,,,,,,,,,,,,,,return,11.88499999,PROGREE,TRUE,,,,,,,171,pollastre,Catalan,Sounds/cat_pollastre.mp3,2020-06-04_21h35.46.305,TranslationElicitation_eng-prolific,3.2.4,MacIntel,60,5ea21ef214912a12fa60eb5e,11.88499999,1,0,81,63,1,80
,,,,,,,,,,,,,,,,,,,,,,,,,,,,,,,,,,,,,,,,,,,,,,,,,,,171,pollastre,Catalan,Sounds/cat_pollastre.mp3,2020-06-04_21h35.46.305,TranslationElicitation_eng-prolific,3.2.4,MacIntel,60,5ea21ef214912a12fa60eb5e,,1,0,81,63,1,80
,,,,,,,,,,,,,,,,,,,,,,,,,,,,,,,,,,,,,,,,,f,1.598999977,F,FALSE,,,,,,,137,fulla,Catalan,Sounds/cat_fulla.mp3,2020-06-04_21h35.46.305,TranslationElicitation_eng-prolific,3.2.4,MacIntel,60,5ea21ef214912a12fa60eb5e,,1,0,81,31,1,80
,,,,,,,,,,,,,,,,,,,,,,,,,,,,,,,,,,,,,,,,,o,1.749000072,FO,FALSE,,,,,,,137,fulla,Catalan,Sounds/cat_fulla.mp3,2020-06-04_21h35.46.305,TranslationElicitation_eng-prolific,3.2.4,MacIntel,60,5ea21ef214912a12fa60eb5e,,1,0,81,31,1,80
,,,,,,,,,,,,,,,,,,,,,,,,,,,,,,,,,,,,,,,,,o,1.933000088,FOO,FALSE,,,,,,,137,fulla,Catalan,Sounds/cat_fulla.mp3,2020-06-04_21h35.46.305,TranslationElicitation_eng-prolific,3.2.4,MacIntel,60,5ea21ef214912a12fa60eb5e,,1,0,81,31,1,80
,,,,,,,,,,,,,,,,,,,,,,,,,,,,,,,,,,,,,,,,,l,2.148999929,FOOL,FALSE,,,,,,,137,fulla,Catalan,Sounds/cat_fulla.mp3,2020-06-04_21h35.46.305,TranslationElicitation_eng-prolific,3.2.4,MacIntel,60,5ea21ef214912a12fa60eb5e,,1,0,81,31,1,80
,,,,,,,,,,,,,,,,,,,,,,,,,,,,,,,,,,,,,,,,,return,2.48300004,FOOL,FALSE,,,,,,,137,fulla,Catalan,Sounds/cat_fulla.mp3,2020-06-04_21h35.46.305,TranslationElicitation_eng-prolific,3.2.4,MacIntel,60,5ea21ef214912a12fa60eb5e,2.48300004,1,0,81,31,1,80
,,,,,,,,,,,,,,,,,,,,,,,,,,,,,,,,,,,,,,,,,,,,,,,,,,,137,fulla,Catalan,Sounds/cat_fulla.mp3,2020-06-04_21h35.46.305,TranslationElicitation_eng-prolific,3.2.4,MacIntel,60,5ea21ef214912a12fa60eb5e,,1,0,81,31,1,80
,,,,,,,,,,,,,,,,,,,,,,,,,,,,,,,,,,,,,,,,,b,1.950000048,B,FALSE,,,,,,,115,bolet,Catalan,Sounds/cat_bolet.mp3,2020-06-04_21h35.46.305,TranslationElicitation_eng-prolific,3.2.4,MacIntel,60,5ea21ef214912a12fa60eb5e,,1,0,81,10,1,80
,,,,,,,,,,,,,,,,,,,,,,,,,,,,,,,,,,,,,,,,,a,2.434000015,BA,FALSE,,,,,,,115,bolet,Catalan,Sounds/cat_bolet.mp3,2020-06-04_21h35.46.305,TranslationElicitation_eng-prolific,3.2.4,MacIntel,60,5ea21ef214912a12fa60eb5e,,1,0,81,10,1,80
,,,,,,,,,,,,,,,,,,,,,,,,,,,,,,,,,,,,,,,,,l,3.017999887,BAL,FALSE,,,,,,,115,bolet,Catalan,Sounds/cat_bolet.mp3,2020-06-04_21h35.46.305,TranslationElicitation_eng-prolific,3.2.4,MacIntel,60,5ea21ef214912a12fa60eb5e,,1,0,81,10,1,80
,,,,,,,,,,,,,,,,,,,,,,,,,,,,,,,,,,,,,,,,,l,3.200000048,BALL,FALSE,,,,,,,115,bolet,Catalan,Sounds/cat_bolet.mp3,2020-06-04_21h35.46.305,TranslationElicitation_eng-prolific,3.2.4,MacIntel,60,5ea21ef214912a12fa60eb5e,,1,0,81,10,1,80
,,,,,,,,,,,,,,,,,,,,,,,,,,,,,,,,,,,,,,,,,return,3.717000008,BALL,FALSE,,,,,,,115,bolet,Catalan,Sounds/cat_bolet.mp3,2020-06-04_21h35.46.305,TranslationElicitation_eng-prolific,3.2.4,MacIntel,60,5ea21ef214912a12fa60eb5e,3.717000008,1,0,81,10,1,80
,,,,,,,,,,,,,,,,,,,,,,,,,,,,,,,,,,,,,,,,,,,,,,,,,,,115,bolet,Catalan,Sounds/cat_bolet.mp3,2020-06-04_21h35.46.305,TranslationElicitation_eng-prolific,3.2.4,MacIntel,60,5ea21ef214912a12fa60eb5e,,1,0,81,10,1,80
,,,,,,,,,,,,,,,,,,,,,,,,,,,,,,,,,,,,,,,,,r,3.165999889,R,FALSE,,,,,,,141,gerd,Catalan,Sounds/cat_gerd.mp3,2020-06-04_21h35.46.305,TranslationElicitation_eng-prolific,3.2.4,MacIntel,60,5ea21ef214912a12fa60eb5e,,1,0,81,35,1,80
,,,,,,,,,,,,,,,,,,,,,,,,,,,,,,,,,,,,,,,,,backspace,3.901000023,,TRUE,,,,,,,141,gerd,Catalan,Sounds/cat_gerd.mp3,2020-06-04_21h35.46.305,TranslationElicitation_eng-prolific,3.2.4,MacIntel,60,5ea21ef214912a12fa60eb5e,,1,0,81,35,1,80
,,,,,,,,,,,,,,,,,,,,,,,,,,,,,,,,,,,,,,,,,r,4.73300004,R,TRUE,,,,,,,141,gerd,Catalan,Sounds/cat_gerd.mp3,2020-06-04_21h35.46.305,TranslationElicitation_eng-prolific,3.2.4,MacIntel,60,5ea21ef214912a12fa60eb5e,,1,0,81,35,1,80
,,,,,,,,,,,,,,,,,,,,,,,,,,,,,,,,,,,,,,,,,e,5.084000111,RE,TRUE,,,,,,,141,gerd,Catalan,Sounds/cat_gerd.mp3,2020-06-04_21h35.46.305,TranslationElicitation_eng-prolific,3.2.4,MacIntel,60,5ea21ef214912a12fa60eb5e,,1,0,81,35,1,80
,,,,,,,,,,,,,,,,,,,,,,,,,,,,,,,,,,,,,,,,,d,5.26699996,RED,TRUE,,,,,,,141,gerd,Catalan,Sounds/cat_gerd.mp3,2020-06-04_21h35.46.305,TranslationElicitation_eng-prolific,3.2.4,MacIntel,60,5ea21ef214912a12fa60eb5e,,1,0,81,35,1,80
,,,,,,,,,,,,,,,,,,,,,,,,,,,,,,,,,,,,,,,,,return,5.618000031,RED,TRUE,,,,,,,141,gerd,Catalan,Sounds/cat_gerd.mp3,2020-06-04_21h35.46.305,TranslationElicitation_eng-prolific,3.2.4,MacIntel,60,5ea21ef214912a12fa60eb5e,5.618000031,1,0,81,35,1,80
,,,,,,,,,,,,,,,,,,,,,,,,,,,,,,,,,,,,,,,,,,,,,,,,,,,141,gerd,Catalan,Sounds/cat_gerd.mp3,2020-06-04_21h35.46.305,TranslationElicitation_eng-prolific,3.2.4,MacIntel,60,5ea21ef214912a12fa60eb5e,,1,0,81,35,1,80
,,,,,,,,,,,,,,,,,,,,,,,,,,,,,,,,,,,,,,,,,c,2.032000065,C,FALSE,,,,,,,123,cavall,Catalan,Sounds/cat_cavall.mp3,2020-06-04_21h35.46.305,TranslationElicitation_eng-prolific,3.2.4,MacIntel,60,5ea21ef214912a12fa60eb5e,,1,0,81,18,1,80
,,,,,,,,,,,,,,,,,,,,,,,,,,,,,,,,,,,,,,,,,o,3.066999912,CO,FALSE,,,,,,,123,cavall,Catalan,Sounds/cat_cavall.mp3,2020-06-04_21h35.46.305,TranslationElicitation_eng-prolific,3.2.4,MacIntel,60,5ea21ef214912a12fa60eb5e,,1,0,81,18,1,80
,,,,,,,,,,,,,,,,,,,,,,,,,,,,,,,,,,,,,,,,,v,3.398999929,COV,FALSE,,,,,,,123,cavall,Catalan,Sounds/cat_cavall.mp3,2020-06-04_21h35.46.305,TranslationElicitation_eng-prolific,3.2.4,MacIntel,60,5ea21ef214912a12fa60eb5e,,1,0,81,18,1,80
,,,,,,,,,,,,,,,,,,,,,,,,,,,,,,,,,,,,,,,,,e,3.565999985,COVE,FALSE,,,,,,,123,cavall,Catalan,Sounds/cat_cavall.mp3,2020-06-04_21h35.46.305,TranslationElicitation_eng-prolific,3.2.4,MacIntel,60,5ea21ef214912a12fa60eb5e,,1,0,81,18,1,80
,,,,,,,,,,,,,,,,,,,,,,,,,,,,,,,,,,,,,,,,,r,3.717000008,COVER,FALSE,,,,,,,123,cavall,Catalan,Sounds/cat_cavall.mp3,2020-06-04_21h35.46.305,TranslationElicitation_eng-prolific,3.2.4,MacIntel,60,5ea21ef214912a12fa60eb5e,,1,0,81,18,1,80
,,,,,,,,,,,,,,,,,,,,,,,,,,,,,,,,,,,,,,,,,return,4.132999897,COVER,FALSE,,,,,,,123,cavall,Catalan,Sounds/cat_cavall.mp3,2020-06-04_21h35.46.305,TranslationElicitation_eng-prolific,3.2.4,MacIntel,60,5ea21ef214912a12fa60eb5e,4.132999897,1,0,81,18,1,80
,,,,,,,,,,,,,,,,,,,,,,,,,,,,,,,,,,,,,,,,,,,,,,,,,,,123,cavall,Catalan,Sounds/cat_cavall.mp3,2020-06-04_21h35.46.305,TranslationElicitation_eng-prolific,3.2.4,MacIntel,60,5ea21ef214912a12fa60eb5e,,1,0,81,18,1,80
,,,,,,,,,,,,,,,,,,,,,,,,,,,,,,,,,,,,,,,,,w,2.883000135,W,FALSE,,,,,,,105,aigua,Catalan,Sounds/cat_aigua.mp3,2020-06-04_21h35.46.305,TranslationElicitation_eng-prolific,3.2.4,MacIntel,60,5ea21ef214912a12fa60eb5e,,1,0,81,1,1,80
,,,,,,,,,,,,,,,,,,,,,,,,,,,,,,,,,,,,,,,,,a,3.083000183,WA,FALSE,,,,,,,105,aigua,Catalan,Sounds/cat_aigua.mp3,2020-06-04_21h35.46.305,TranslationElicitation_eng-prolific,3.2.4,MacIntel,60,5ea21ef214912a12fa60eb5e,,1,0,81,1,1,80
,,,,,,,,,,,,,,,,,,,,,,,,,,,,,,,,,,,,,,,,,t,3.46600008,WAT,FALSE,,,,,,,105,aigua,Catalan,Sounds/cat_aigua.mp3,2020-06-04_21h35.46.305,TranslationElicitation_eng-prolific,3.2.4,MacIntel,60,5ea21ef214912a12fa60eb5e,,1,0,81,1,1,80
,,,,,,,,,,,,,,,,,,,,,,,,,,,,,,,,,,,,,,,,,e,3.650000095,WATE,FALSE,,,,,,,105,aigua,Catalan,Sounds/cat_aigua.mp3,2020-06-04_21h35.46.305,TranslationElicitation_eng-prolific,3.2.4,MacIntel,60,5ea21ef214912a12fa60eb5e,,1,0,81,1,1,80
,,,,,,,,,,,,,,,,,,,,,,,,,,,,,,,,,,,,,,,,,r,3.851000071,WATER,FALSE,,,,,,,105,aigua,Catalan,Sounds/cat_aigua.mp3,2020-06-04_21h35.46.305,TranslationElicitation_eng-prolific,3.2.4,MacIntel,60,5ea21ef214912a12fa60eb5e,,1,0,81,1,1,80
,,,,,,,,,,,,,,,,,,,,,,,,,,,,,,,,,,,,,,,,,return,4.266000032,WATER,FALSE,,,,,,,105,aigua,Catalan,Sounds/cat_aigua.mp3,2020-06-04_21h35.46.305,TranslationElicitation_eng-prolific,3.2.4,MacIntel,60,5ea21ef214912a12fa60eb5e,4.266000032,1,0,81,1,1,80
,,,,,,,,,,,,,,,,,,,,,,,,,,,,,,,,,,,,,,,,,,,,,,,,,,,105,aigua,Catalan,Sounds/cat_aigua.mp3,2020-06-04_21h35.46.305,TranslationElicitation_eng-prolific,3.2.4,MacIntel,60,5ea21ef214912a12fa60eb5e,,1,0,81,1,1,80
,,,,,,,,,,,,,,,,,,,,,,,,,,,,,,,,,,,,,,,,,b,1.850000143,B,FALSE,,,,,,,114,bol,Catalan,Sounds/cat_bol.mp3,2020-06-04_21h35.46.305,TranslationElicitation_eng-prolific,3.2.4,MacIntel,60,5ea21ef214912a12fa60eb5e,,1,0,81,9,1,80
,,,,,,,,,,,,,,,,,,,,,,,,,,,,,,,,,,,,,,,,,a,2.051000118,BA,FALSE,,,,,,,114,bol,Catalan,Sounds/cat_bol.mp3,2020-06-04_21h35.46.305,TranslationElicitation_eng-prolific,3.2.4,MacIntel,60,5ea21ef214912a12fa60eb5e,,1,0,81,9,1,80
,,,,,,,,,,,,,,,,,,,,,,,,,,,,,,,,,,,,,,,,,l,2.184999943,BAL,FALSE,,,,,,,114,bol,Catalan,Sounds/cat_bol.mp3,2020-06-04_21h35.46.305,TranslationElicitation_eng-prolific,3.2.4,MacIntel,60,5ea21ef214912a12fa60eb5e,,1,0,81,9,1,80
,,,,,,,,,,,,,,,,,,,,,,,,,,,,,,,,,,,,,,,,,l,2.351000071,BALL,FALSE,,,,,,,114,bol,Catalan,Sounds/cat_bol.mp3,2020-06-04_21h35.46.305,TranslationElicitation_eng-prolific,3.2.4,MacIntel,60,5ea21ef214912a12fa60eb5e,,1,0,81,9,1,80
,,,,,,,,,,,,,,,,,,,,,,,,,,,,,,,,,,,,,,,,,return,2.817000151,BALL,FALSE,,,,,,,114,bol,Catalan,Sounds/cat_bol.mp3,2020-06-04_21h35.46.305,TranslationElicitation_eng-prolific,3.2.4,MacIntel,60,5ea21ef214912a12fa60eb5e,2.817000151,1,0,81,9,1,80
,,,,,,,,,,,,,,,,,,,,,,,,,,,,,,,,,,,,,,,,,,,,,,,,,,,114,bol,Catalan,Sounds/cat_bol.mp3,2020-06-04_21h35.46.305,TranslationElicitation_eng-prolific,3.2.4,MacIntel,60,5ea21ef214912a12fa60eb5e,,1,0,81,9,1,80
,,,,,,,,,,,,,,,,,,,,,,,,,,,,,,,,,,,,,,,,,a,1.650999784,A,FALSE,,,,,,,132,estrella,Catalan,Sounds/cat_estrella.mp3,2020-06-04_21h35.46.305,TranslationElicitation_eng-prolific,3.2.4,MacIntel,60,5ea21ef214912a12fa60eb5e,,1,0,81,26,1,80
,,,,,,,,,,,,,,,,,,,,,,,,,,,,,,,,,,,,,,,,,u,1.799999952,AU,FALSE,,,,,,,132,estrella,Catalan,Sounds/cat_estrella.mp3,2020-06-04_21h35.46.305,TranslationElicitation_eng-prolific,3.2.4,MacIntel,60,5ea21ef214912a12fa60eb5e,,1,0,81,26,1,80
,,,,,,,,,,,,,,,,,,,,,,,,,,,,,,,,,,,,,,,,,s,2.101999998,AUS,FALSE,,,,,,,132,estrella,Catalan,Sounds/cat_estrella.mp3,2020-06-04_21h35.46.305,TranslationElicitation_eng-prolific,3.2.4,MacIntel,60,5ea21ef214912a12fa60eb5e,,1,0,81,26,1,80
,,,,,,,,,,,,,,,,,,,,,,,,,,,,,,,,,,,,,,,,,t,2.234999895,AUST,FALSE,,,,,,,132,estrella,Catalan,Sounds/cat_estrella.mp3,2020-06-04_21h35.46.305,TranslationElicitation_eng-prolific,3.2.4,MacIntel,60,5ea21ef214912a12fa60eb5e,,1,0,81,26,1,80
,,,,,,,,,,,,,,,,,,,,,,,,,,,,,,,,,,,,,,,,,r,2.81799984,AUSTR,FALSE,,,,,,,132,estrella,Catalan,Sounds/cat_estrella.mp3,2020-06-04_21h35.46.305,TranslationElicitation_eng-prolific,3.2.4,MacIntel,60,5ea21ef214912a12fa60eb5e,,1,0,81,26,1,80
,,,,,,,,,,,,,,,,,,,,,,,,,,,,,,,,,,,,,,,,,a,2.983999968,AUSTRA,FALSE,,,,,,,132,estrella,Catalan,Sounds/cat_estrella.mp3,2020-06-04_21h35.46.305,TranslationElicitation_eng-prolific,3.2.4,MacIntel,60,5ea21ef214912a12fa60eb5e,,1,0,81,26,1,80
,,,,,,,,,,,,,,,,,,,,,,,,,,,,,,,,,,,,,,,,,l,3.31799984,AUSTRAL,FALSE,,,,,,,132,estrella,Catalan,Sounds/cat_estrella.mp3,2020-06-04_21h35.46.305,TranslationElicitation_eng-prolific,3.2.4,MacIntel,60,5ea21ef214912a12fa60eb5e,,1,0,81,26,1,80
,,,,,,,,,,,,,,,,,,,,,,,,,,,,,,,,,,,,,,,,,i,3.500999928,AUSTRALI,FALSE,,,,,,,132,estrella,Catalan,Sounds/cat_estrella.mp3,2020-06-04_21h35.46.305,TranslationElicitation_eng-prolific,3.2.4,MacIntel,60,5ea21ef214912a12fa60eb5e,,1,0,81,26,1,80
,,,,,,,,,,,,,,,,,,,,,,,,,,,,,,,,,,,,,,,,,a,3.88499999,AUSTRALIA,FALSE,,,,,,,132,estrella,Catalan,Sounds/cat_estrella.mp3,2020-06-04_21h35.46.305,TranslationElicitation_eng-prolific,3.2.4,MacIntel,60,5ea21ef214912a12fa60eb5e,,1,0,81,26,1,80
,,,,,,,,,,,,,,,,,,,,,,,,,,,,,,,,,,,,,,,,,return,4.466999769,AUSTRALIA,FALSE,,,,,,,132,estrella,Catalan,Sounds/cat_estrella.mp3,2020-06-04_21h35.46.305,TranslationElicitation_eng-prolific,3.2.4,MacIntel,60,5ea21ef214912a12fa60eb5e,4.466999769,1,0,81,26,1,80
,,,,,,,,,,,,,,,,,,,,,,,,,,,,,,,,,,,,,,,,,,,,,,,,,,,132,estrella,Catalan,Sounds/cat_estrella.mp3,2020-06-04_21h35.46.305,TranslationElicitation_eng-prolific,3.2.4,MacIntel,60,5ea21ef214912a12fa60eb5e,,1,0,81,26,1,80
,,,,,,,,,,,,,,,,,,,,,,,,,,,,,,,,,,,,,,,,,t,1.984000206,T,FALSE,,,,,,,183,tren,Catalan,Sounds/cat_tren.mp3,2020-06-04_21h35.46.305,TranslationElicitation_eng-prolific,3.2.4,MacIntel,60,5ea21ef214912a12fa60eb5e,,1,0,81,74,1,80
,,,,,,,,,,,,,,,,,,,,,,,,,,,,,,,,,,,,,,,,,r,2.184000015,TR,FALSE,,,,,,,183,tren,Catalan,Sounds/cat_tren.mp3,2020-06-04_21h35.46.305,TranslationElicitation_eng-prolific,3.2.4,MacIntel,60,5ea21ef214912a12fa60eb5e,,1,0,81,74,1,80
,,,,,,,,,,,,,,,,,,,,,,,,,,,,,,,,,,,,,,,,,a,2.368000031,TRA,FALSE,,,,,,,183,tren,Catalan,Sounds/cat_tren.mp3,2020-06-04_21h35.46.305,TranslationElicitation_eng-prolific,3.2.4,MacIntel,60,5ea21ef214912a12fa60eb5e,,1,0,81,74,1,80
,,,,,,,,,,,,,,,,,,,,,,,,,,,,,,,,,,,,,,,,,i,2.567000151,TRAI,FALSE,,,,,,,183,tren,Catalan,Sounds/cat_tren.mp3,2020-06-04_21h35.46.305,TranslationElicitation_eng-prolific,3.2.4,MacIntel,60,5ea21ef214912a12fa60eb5e,,1,0,81,74,1,80
,,,,,,,,,,,,,,,,,,,,,,,,,,,,,,,,,,,,,,,,,n,2.784000158,TRAIN,FALSE,,,,,,,183,tren,Catalan,Sounds/cat_tren.mp3,2020-06-04_21h35.46.305,TranslationElicitation_eng-prolific,3.2.4,MacIntel,60,5ea21ef214912a12fa60eb5e,,1,0,81,74,1,80
,,,,,,,,,,,,,,,,,,,,,,,,,,,,,,,,,,,,,,,,,return,3.085000038,TRAIN,FALSE,,,,,,,183,tren,Catalan,Sounds/cat_tren.mp3,2020-06-04_21h35.46.305,TranslationElicitation_eng-prolific,3.2.4,MacIntel,60,5ea21ef214912a12fa60eb5e,3.085000038,1,0,81,74,1,80
,,,,,,,,,,,,,,,,,,,,,,,,,,,,,,,,,,,,,,,,,,,,,,,,,,,183,tren,Catalan,Sounds/cat_tren.mp3,2020-06-04_21h35.46.305,TranslationElicitation_eng-prolific,3.2.4,MacIntel,60,5ea21ef214912a12fa60eb5e,,1,0,81,74,1,80
,,,,,,,,,,,,,,,,,,,,,,,,,,,,,,,,,,,,,,,,,l,4.131999969,L,FALSE,,,,,,,111,bibero,Catalan,Sounds/cat_bibero.mp3,2020-06-04_21h35.46.305,TranslationElicitation_eng-prolific,3.2.4,MacIntel,60,5ea21ef214912a12fa60eb5e,,1,0,81,6,1,80
,,,,,,,,,,,,,,,,,,,,,,,,,,,,,,,,,,,,,,,,,i,4.367000103,LI,FALSE,,,,,,,111,bibero,Catalan,Sounds/cat_bibero.mp3,2020-06-04_21h35.46.305,TranslationElicitation_eng-prolific,3.2.4,MacIntel,60,5ea21ef214912a12fa60eb5e,,1,0,81,6,1,80
,,,,,,,,,,,,,,,,,,,,,,,,,,,,,,,,,,,,,,,,,v,4.633000135,LIV,FALSE,,,,,,,111,bibero,Catalan,Sounds/cat_bibero.mp3,2020-06-04_21h35.46.305,TranslationElicitation_eng-prolific,3.2.4,MacIntel,60,5ea21ef214912a12fa60eb5e,,1,0,81,6,1,80
,,,,,,,,,,,,,,,,,,,,,,,,,,,,,,,,,,,,,,,,,e,4.832000017,LIVE,FALSE,,,,,,,111,bibero,Catalan,Sounds/cat_bibero.mp3,2020-06-04_21h35.46.305,TranslationElicitation_eng-prolific,3.2.4,MacIntel,60,5ea21ef214912a12fa60eb5e,,1,0,81,6,1,80
,,,,,,,,,,,,,,,,,,,,,,,,,,,,,,,,,,,,,,,,,return,6.131999969,LIVE,FALSE,,,,,,,111,bibero,Catalan,Sounds/cat_bibero.mp3,2020-06-04_21h35.46.305,TranslationElicitation_eng-prolific,3.2.4,MacIntel,60,5ea21ef214912a12fa60eb5e,6.131999969,1,0,81,6,1,80
,,,,,,,,,,,,,,,,,,,,,,,,,,,,,,,,,,,,,,,,,,,,,,,,,,,111,bibero,Catalan,Sounds/cat_bibero.mp3,2020-06-04_21h35.46.305,TranslationElicitation_eng-prolific,3.2.4,MacIntel,60,5ea21ef214912a12fa60eb5e,,1,0,81,6,1,80
,,,,,,,,,,,,,,,,,,,,,,,,,,,,,,,,,,,,,,,,,t,1.665999889,T,FALSE,,,,,,,182,tomaquet,Catalan,Sounds/cat_tomaquet.mp3,2020-06-04_21h35.46.305,TranslationElicitation_eng-prolific,3.2.4,MacIntel,60,5ea21ef214912a12fa60eb5e,,1,0,81,73,1,80
,,,,,,,,,,,,,,,,,,,,,,,,,,,,,,,,,,,,,,,,,o,1.832999945,TO,FALSE,,,,,,,182,tomaquet,Catalan,Sounds/cat_tomaquet.mp3,2020-06-04_21h35.46.305,TranslationElicitation_eng-prolific,3.2.4,MacIntel,60,5ea21ef214912a12fa60eb5e,,1,0,81,73,1,80
,,,,,,,,,,,,,,,,,,,,,,,,,,,,,,,,,,,,,,,,,m,2.26699996,TOM,FALSE,,,,,,,182,tomaquet,Catalan,Sounds/cat_tomaquet.mp3,2020-06-04_21h35.46.305,TranslationElicitation_eng-prolific,3.2.4,MacIntel,60,5ea21ef214912a12fa60eb5e,,1,0,81,73,1,80
,,,,,,,,,,,,,,,,,,,,,,,,,,,,,,,,,,,,,,,,,a,3.099999905,TOMA,FALSE,,,,,,,182,tomaquet,Catalan,Sounds/cat_tomaquet.mp3,2020-06-04_21h35.46.305,TranslationElicitation_eng-prolific,3.2.4,MacIntel,60,5ea21ef214912a12fa60eb5e,,1,0,81,73,1,80
,,,,,,,,,,,,,,,,,,,,,,,,,,,,,,,,,,,,,,,,,t,3.316999912,TOMAT,FALSE,,,,,,,182,tomaquet,Catalan,Sounds/cat_tomaquet.mp3,2020-06-04_21h35.46.305,TranslationElicitation_eng-prolific,3.2.4,MacIntel,60,5ea21ef214912a12fa60eb5e,,1,0,81,73,1,80
,,,,,,,,,,,,,,,,,,,,,,,,,,,,,,,,,,,,,,,,,o,3.901000023,TOMATO,FALSE,,,,,,,182,tomaquet,Catalan,Sounds/cat_tomaquet.mp3,2020-06-04_21h35.46.305,TranslationElicitation_eng-prolific,3.2.4,MacIntel,60,5ea21ef214912a12fa60eb5e,,1,0,81,73,1,80
,,,,,,,,,,,,,,,,,,,,,,,,,,,,,,,,,,,,,,,,,e,4.016000032,TOMATOE,FALSE,,,,,,,182,tomaquet,Catalan,Sounds/cat_tomaquet.mp3,2020-06-04_21h35.46.305,TranslationElicitation_eng-prolific,3.2.4,MacIntel,60,5ea21ef214912a12fa60eb5e,,1,0,81,73,1,80
,,,,,,,,,,,,,,,,,,,,,,,,,,,,,,,,,,,,,,,,,s,4.233999968,TOMATOES,FALSE,,,,,,,182,tomaquet,Catalan,Sounds/cat_tomaquet.mp3,2020-06-04_21h35.46.305,TranslationElicitation_eng-prolific,3.2.4,MacIntel,60,5ea21ef214912a12fa60eb5e,,1,0,81,73,1,80
,,,,,,,,,,,,,,,,,,,,,,,,,,,,,,,,,,,,,,,,,return,4.549999952,TOMATOES,FALSE,,,,,,,182,tomaquet,Catalan,Sounds/cat_tomaquet.mp3,2020-06-04_21h35.46.305,TranslationElicitation_eng-prolific,3.2.4,MacIntel,60,5ea21ef214912a12fa60eb5e,4.549999952,1,0,81,73,1,80
,,,,,,,,,,,,,,,,,,,,,,,,,,,,,,,,,,,,,,,,,,,,,,,,,,,182,tomaquet,Catalan,Sounds/cat_tomaquet.mp3,2020-06-04_21h35.46.305,TranslationElicitation_eng-prolific,3.2.4,MacIntel,60,5ea21ef214912a12fa60eb5e,,1,0,81,73,1,80
,,,,,,,,,,,,,,,,,,,,,,,,,,,,,,,,,,,,,,,,,f,10.6500001,F,FALSE,,,,,,,184,ull,Catalan,Sounds/cat_ull.mp3,2020-06-04_21h35.46.305,TranslationElicitation_eng-prolific,3.2.4,MacIntel,60,5ea21ef214912a12fa60eb5e,,1,0,81,75,1,80
,,,,,,,,,,,,,,,,,,,,,,,,,,,,,,,,,,,,,,,,,o,10.76699996,FO,FALSE,,,,,,,184,ull,Catalan,Sounds/cat_ull.mp3,2020-06-04_21h35.46.305,TranslationElicitation_eng-prolific,3.2.4,MacIntel,60,5ea21ef214912a12fa60eb5e,,1,0,81,75,1,80
,,,,,,,,,,,,,,,,,,,,,,,,,,,,,,,,,,,,,,,,,o,10.96799994,FOO,FALSE,,,,,,,184,ull,Catalan,Sounds/cat_ull.mp3,2020-06-04_21h35.46.305,TranslationElicitation_eng-prolific,3.2.4,MacIntel,60,5ea21ef214912a12fa60eb5e,,1,0,81,75,1,80
,,,,,,,,,,,,,,,,,,,,,,,,,,,,,,,,,,,,,,,,,d,11.76699996,FOOD,FALSE,,,,,,,184,ull,Catalan,Sounds/cat_ull.mp3,2020-06-04_21h35.46.305,TranslationElicitation_eng-prolific,3.2.4,MacIntel,60,5ea21ef214912a12fa60eb5e,,1,0,81,75,1,80
,,,,,,,,,,,,,,,,,,,,,,,,,,,,,,,,,,,,,,,,,return,12.26799989,FOOD,FALSE,,,,,,,184,ull,Catalan,Sounds/cat_ull.mp3,2020-06-04_21h35.46.305,TranslationElicitation_eng-prolific,3.2.4,MacIntel,60,5ea21ef214912a12fa60eb5e,12.26799989,1,0,81,75,1,80
,,,,,,,,,,,,,,,,,,,,,,,,,,,,,,,,,,,,,,,,,,,,,,,,,,,184,ull,Catalan,Sounds/cat_ull.mp3,2020-06-04_21h35.46.305,TranslationElicitation_eng-prolific,3.2.4,MacIntel,60,5ea21ef214912a12fa60eb5e,,1,0,81,75,1,80
,,,,,,,,,,,,,,,,,,,,,,,,,,,,,,,,,,,,,,,,,g,1.882000208,G,FALSE,,,,,,,142,girafa,Catalan,Sounds/cat_girafa.mp3,2020-06-04_21h35.46.305,TranslationElicitation_eng-prolific,3.2.4,MacIntel,60,5ea21ef214912a12fa60eb5e,,1,0,81,36,1,80
,,,,,,,,,,,,,,,,,,,,,,,,,,,,,,,,,,,,,,,,,r,2.200000048,GR,FALSE,,,,,,,142,girafa,Catalan,Sounds/cat_girafa.mp3,2020-06-04_21h35.46.305,TranslationElicitation_eng-prolific,3.2.4,MacIntel,60,5ea21ef214912a12fa60eb5e,,1,0,81,36,1,80
,,,,,,,,,,,,,,,,,,,,,,,,,,,,,,,,,,,,,,,,,i,2.69900012,GRI,FALSE,,,,,,,142,girafa,Catalan,Sounds/cat_girafa.mp3,2020-06-04_21h35.46.305,TranslationElicitation_eng-prolific,3.2.4,MacIntel,60,5ea21ef214912a12fa60eb5e,,1,0,81,36,1,80
,,,,,,,,,,,,,,,,,,,,,,,,,,,,,,,,,,,,,,,,,backspace,3.382000208,GR,TRUE,,,,,,,142,girafa,Catalan,Sounds/cat_girafa.mp3,2020-06-04_21h35.46.305,TranslationElicitation_eng-prolific,3.2.4,MacIntel,60,5ea21ef214912a12fa60eb5e,,1,0,81,36,1,80
,,,,,,,,,,,,,,,,,,,,,,,,,,,,,,,,,,,,,,,,,backspace,3.650000095,G,TRUE,,,,,,,142,girafa,Catalan,Sounds/cat_girafa.mp3,2020-06-04_21h35.46.305,TranslationElicitation_eng-prolific,3.2.4,MacIntel,60,5ea21ef214912a12fa60eb5e,,1,0,81,36,1,80
,,,,,,,,,,,,,,,,,,,,,,,,,,,,,,,,,,,,,,,,,i,4.032999992,GI,TRUE,,,,,,,142,girafa,Catalan,Sounds/cat_girafa.mp3,2020-06-04_21h35.46.305,TranslationElicitation_eng-prolific,3.2.4,MacIntel,60,5ea21ef214912a12fa60eb5e,,1,0,81,36,1,80
,,,,,,,,,,,,,,,,,,,,,,,,,,,,,,,,,,,,,,,,,r,4.649000168,GIR,TRUE,,,,,,,142,girafa,Catalan,Sounds/cat_girafa.mp3,2020-06-04_21h35.46.305,TranslationElicitation_eng-prolific,3.2.4,MacIntel,60,5ea21ef214912a12fa60eb5e,,1,0,81,36,1,80
,,,,,,,,,,,,,,,,,,,,,,,,,,,,,,,,,,,,,,,,,a,4.817000151,GIRA,TRUE,,,,,,,142,girafa,Catalan,Sounds/cat_girafa.mp3,2020-06-04_21h35.46.305,TranslationElicitation_eng-prolific,3.2.4,MacIntel,60,5ea21ef214912a12fa60eb5e,,1,0,81,36,1,80
,,,,,,,,,,,,,,,,,,,,,,,,,,,,,,,,,,,,,,,,,f,4.96600008,GIRAF,TRUE,,,,,,,142,girafa,Catalan,Sounds/cat_girafa.mp3,2020-06-04_21h35.46.305,TranslationElicitation_eng-prolific,3.2.4,MacIntel,60,5ea21ef214912a12fa60eb5e,,1,0,81,36,1,80
,,,,,,,,,,,,,,,,,,,,,,,,,,,,,,,,,,,,,,,,,f,5.134000063,GIRAFF,TRUE,,,,,,,142,girafa,Catalan,Sounds/cat_girafa.mp3,2020-06-04_21h35.46.305,TranslationElicitation_eng-prolific,3.2.4,MacIntel,60,5ea21ef214912a12fa60eb5e,,1,0,81,36,1,80
,,,,,,,,,,,,,,,,,,,,,,,,,,,,,,,,,,,,,,,,,e,5.517000198,GIRAFFE,TRUE,,,,,,,142,girafa,Catalan,Sounds/cat_girafa.mp3,2020-06-04_21h35.46.305,TranslationElicitation_eng-prolific,3.2.4,MacIntel,60,5ea21ef214912a12fa60eb5e,,1,0,81,36,1,80
,,,,,,,,,,,,,,,,,,,,,,,,,,,,,,,,,,,,,,,,,return,6.065999985,GIRAFFE,TRUE,,,,,,,142,girafa,Catalan,Sounds/cat_girafa.mp3,2020-06-04_21h35.46.305,TranslationElicitation_eng-prolific,3.2.4,MacIntel,60,5ea21ef214912a12fa60eb5e,6.065999985,1,0,81,36,1,80
,,,,,,,,,,,,,,,,,,,,,,,,,,,,,,,,,,,,,,,,,,,,,,,,,,,142,girafa,Catalan,Sounds/cat_girafa.mp3,2020-06-04_21h35.46.305,TranslationElicitation_eng-prolific,3.2.4,MacIntel,60,5ea21ef214912a12fa60eb5e,,1,0,81,36,1,80
,,,,,,,,,,,,,,,,,,,,,,,,,,,,,,,,,,,,,,,,,b,2.865999937,B,FALSE,,,,,,,106,aixeta,Catalan,Sounds/cat_aixeta.mp3,2020-06-04_21h35.46.305,TranslationElicitation_eng-prolific,3.2.4,MacIntel,60,5ea21ef214912a12fa60eb5e,,1,0,81,2,1,80
,,,,,,,,,,,,,,,,,,,,,,,,,,,,,,,,,,,,,,,,,r,3.184000015,BR,FALSE,,,,,,,106,aixeta,Catalan,Sounds/cat_aixeta.mp3,2020-06-04_21h35.46.305,TranslationElicitation_eng-prolific,3.2.4,MacIntel,60,5ea21ef214912a12fa60eb5e,,1,0,81,2,1,80
,,,,,,,,,,,,,,,,,,,,,,,,,,,,,,,,,,,,,,,,,u,4.365999937,BRU,FALSE,,,,,,,106,aixeta,Catalan,Sounds/cat_aixeta.mp3,2020-06-04_21h35.46.305,TranslationElicitation_eng-prolific,3.2.4,MacIntel,60,5ea21ef214912a12fa60eb5e,,1,0,81,2,1,80
,,,,,,,,,,,,,,,,,,,,,,,,,,,,,,,,,,,,,,,,,s,5.599999905,BRUS,FALSE,,,,,,,106,aixeta,Catalan,Sounds/cat_aixeta.mp3,2020-06-04_21h35.46.305,TranslationElicitation_eng-prolific,3.2.4,MacIntel,60,5ea21ef214912a12fa60eb5e,,1,0,81,2,1,80
,,,,,,,,,,,,,,,,,,,,,,,,,,,,,,,,,,,,,,,,,backspace,6.282999992,BRU,TRUE,,,,,,,106,aixeta,Catalan,Sounds/cat_aixeta.mp3,2020-06-04_21h35.46.305,TranslationElicitation_eng-prolific,3.2.4,MacIntel,60,5ea21ef214912a12fa60eb5e,,1,0,81,2,1,80
,,,,,,,,,,,,,,,,,,,,,,,,,,,,,,,,,,,,,,,,,c,6.53399992,BRUC,TRUE,,,,,,,106,aixeta,Catalan,Sounds/cat_aixeta.mp3,2020-06-04_21h35.46.305,TranslationElicitation_eng-prolific,3.2.4,MacIntel,60,5ea21ef214912a12fa60eb5e,,1,0,81,2,1,80
,,,,,,,,,,,,,,,,,,,,,,,,,,,,,,,,,,,,,,,,,h,6.667000055,BRUCH,TRUE,,,,,,,106,aixeta,Catalan,Sounds/cat_aixeta.mp3,2020-06-04_21h35.46.305,TranslationElicitation_eng-prolific,3.2.4,MacIntel,60,5ea21ef214912a12fa60eb5e,,1,0,81,2,1,80
,,,,,,,,,,,,,,,,,,,,,,,,,,,,,,,,,,,,,,,,,e,6.815999985,BRUCHE,TRUE,,,,,,,106,aixeta,Catalan,Sounds/cat_aixeta.mp3,2020-06-04_21h35.46.305,TranslationElicitation_eng-prolific,3.2.4,MacIntel,60,5ea21ef214912a12fa60eb5e,,1,0,81,2,1,80
,,,,,,,,,,,,,,,,,,,,,,,,,,,,,,,,,,,,,,,,,t,6.998999834,BRUCHET,TRUE,,,,,,,106,aixeta,Catalan,Sounds/cat_aixeta.mp3,2020-06-04_21h35.46.305,TranslationElicitation_eng-prolific,3.2.4,MacIntel,60,5ea21ef214912a12fa60eb5e,,1,0,81,2,1,80
,,,,,,,,,,,,,,,,,,,,,,,,,,,,,,,,,,,,,,,,,t,7.132999897,BRUCHETT,TRUE,,,,,,,106,aixeta,Catalan,Sounds/cat_aixeta.mp3,2020-06-04_21h35.46.305,TranslationElicitation_eng-prolific,3.2.4,MacIntel,60,5ea21ef214912a12fa60eb5e,,1,0,81,2,1,80
,,,,,,,,,,,,,,,,,,,,,,,,,,,,,,,,,,,,,,,,,a,7.349999905,BRUCHETTA,TRUE,,,,,,,106,aixeta,Catalan,Sounds/cat_aixeta.mp3,2020-06-04_21h35.46.305,TranslationElicitation_eng-prolific,3.2.4,MacIntel,60,5ea21ef214912a12fa60eb5e,,1,0,81,2,1,80
,,,,,,,,,,,,,,,,,,,,,,,,,,,,,,,,,,,,,,,,,return,9.016000032,BRUCHETTA,TRUE,,,,,,,106,aixeta,Catalan,Sounds/cat_aixeta.mp3,2020-06-04_21h35.46.305,TranslationElicitation_eng-prolific,3.2.4,MacIntel,60,5ea21ef214912a12fa60eb5e,9.016000032,1,0,81,2,1,80
,,,,,,,,,,,,,,,,,,,,,,,,,,,,,,,,,,,,,,,,,,,,,,,,,,,106,aixeta,Catalan,Sounds/cat_aixeta.mp3,2020-06-04_21h35.46.305,TranslationElicitation_eng-prolific,3.2.4,MacIntel,60,5ea21ef214912a12fa60eb5e,,1,0,81,2,1,80
,,,,,,,,,,,,,,,,,,,,,,,,,,,,,,,,,,,,,,,,,c,6.63499999,C,FALSE,,,,,,,165,pernil,Catalan,Sounds/cat_pernil.mp3,2020-06-04_21h35.46.305,TranslationElicitation_eng-prolific,3.2.4,MacIntel,60,5ea21ef214912a12fa60eb5e,,1,0,81,57,1,80
,,,,,,,,,,,,,,,,,,,,,,,,,,,,,,,,,,,,,,,,,h,7.034999847,CH,FALSE,,,,,,,165,pernil,Catalan,Sounds/cat_pernil.mp3,2020-06-04_21h35.46.305,TranslationElicitation_eng-prolific,3.2.4,MacIntel,60,5ea21ef214912a12fa60eb5e,,1,0,81,57,1,80
,,,,,,,,,,,,,,,,,,,,,,,,,,,,,,,,,,,,,,,,,e,7.350999832,CHE,FALSE,,,,,,,165,pernil,Catalan,Sounds/cat_pernil.mp3,2020-06-04_21h35.46.305,TranslationElicitation_eng-prolific,3.2.4,MacIntel,60,5ea21ef214912a12fa60eb5e,,1,0,81,57,1,80
,,,,,,,,,,,,,,,,,,,,,,,,,,,,,,,,,,,,,,,,,e,7.751999855,CHEE,FALSE,,,,,,,165,pernil,Catalan,Sounds/cat_pernil.mp3,2020-06-04_21h35.46.305,TranslationElicitation_eng-prolific,3.2.4,MacIntel,60,5ea21ef214912a12fa60eb5e,,1,0,81,57,1,80
,,,,,,,,,,,,,,,,,,,,,,,,,,,,,,,,,,,,,,,,,s,8.001999855,CHEES,FALSE,,,,,,,165,pernil,Catalan,Sounds/cat_pernil.mp3,2020-06-04_21h35.46.305,TranslationElicitation_eng-prolific,3.2.4,MacIntel,60,5ea21ef214912a12fa60eb5e,,1,0,81,57,1,80
,,,,,,,,,,,,,,,,,,,,,,,,,,,,,,,,,,,,,,,,,e,8.218999863,CHEESE,FALSE,,,,,,,165,pernil,Catalan,Sounds/cat_pernil.mp3,2020-06-04_21h35.46.305,TranslationElicitation_eng-prolific,3.2.4,MacIntel,60,5ea21ef214912a12fa60eb5e,,1,0,81,57,1,80
,,,,,,,,,,,,,,,,,,,,,,,,,,,,,,,,,,,,,,,,,return,8.534999847,CHEESE,FALSE,,,,,,,165,pernil,Catalan,Sounds/cat_pernil.mp3,2020-06-04_21h35.46.305,TranslationElicitation_eng-prolific,3.2.4,MacIntel,60,5ea21ef214912a12fa60eb5e,8.534999847,1,0,81,57,1,80
,,,,,,,,,,,,,,,,,,,,,,,,,,,,,,,,,,,,,,,,,,,,,,,,,,,165,pernil,Catalan,Sounds/cat_pernil.mp3,2020-06-04_21h35.46.305,TranslationElicitation_eng-prolific,3.2.4,MacIntel,60,5ea21ef214912a12fa60eb5e,,1,0,81,57,1,80
,,,,,,,,,,,,,,,,,,,,,,,,,,,,,,,,,,,,,,,,,p,2.598999977,P,FALSE,,,,,,,162,pa,Catalan,Sounds/cat_pa.mp3,2020-06-04_21h35.46.305,TranslationElicitation_eng-prolific,3.2.4,MacIntel,60,5ea21ef214912a12fa60eb5e,,1,0,81,54,1,80
,,,,,,,,,,,,,,,,,,,,,,,,,,,,,,,,,,,,,,,,,a,2.817000151,PA,FALSE,,,,,,,162,pa,Catalan,Sounds/cat_pa.mp3,2020-06-04_21h35.46.305,TranslationElicitation_eng-prolific,3.2.4,MacIntel,60,5ea21ef214912a12fa60eb5e,,1,0,81,54,1,80
,,,,,,,,,,,,,,,,,,,,,,,,,,,,,,,,,,,,,,,,,n,2.950000048,PAN,FALSE,,,,,,,162,pa,Catalan,Sounds/cat_pa.mp3,2020-06-04_21h35.46.305,TranslationElicitation_eng-prolific,3.2.4,MacIntel,60,5ea21ef214912a12fa60eb5e,,1,0,81,54,1,80
,,,,,,,,,,,,,,,,,,,,,,,,,,,,,,,,,,,,,,,,,return,3.433000088,PAN,FALSE,,,,,,,162,pa,Catalan,Sounds/cat_pa.mp3,2020-06-04_21h35.46.305,TranslationElicitation_eng-prolific,3.2.4,MacIntel,60,5ea21ef214912a12fa60eb5e,3.433000088,1,0,81,54,1,80
,,,,,,,,,,,,,,,,,,,,,,,,,,,,,,,,,,,,,,,,,,,,,,,,,,,162,pa,Catalan,Sounds/cat_pa.mp3,2020-06-04_21h35.46.305,TranslationElicitation_eng-prolific,3.2.4,MacIntel,60,5ea21ef214912a12fa60eb5e,,1,0,81,54,1,80
,,,,,,,,,,,,,,,,,,,,,,,,,,,,,,,,,,,,,,,,,m,1.39199996,M,FALSE,,,,,,,155,moneda,Catalan,Sounds/cat_moneda.mp3,2020-06-04_21h35.46.305,TranslationElicitation_eng-prolific,3.2.4,MacIntel,60,5ea21ef214912a12fa60eb5e,,1,0,81,48,1,80
,,,,,,,,,,,,,,,,,,,,,,,,,,,,,,,,,,,,,,,,,o,1.849999905,MO,FALSE,,,,,,,155,moneda,Catalan,Sounds/cat_moneda.mp3,2020-06-04_21h35.46.305,TranslationElicitation_eng-prolific,3.2.4,MacIntel,60,5ea21ef214912a12fa60eb5e,,1,0,81,48,1,80
,,,,,,,,,,,,,,,,,,,,,,,,,,,,,,,,,,,,,,,,,o,2.01699996,MOO,FALSE,,,,,,,155,moneda,Catalan,Sounds/cat_moneda.mp3,2020-06-04_21h35.46.305,TranslationElicitation_eng-prolific,3.2.4,MacIntel,60,5ea21ef214912a12fa60eb5e,,1,0,81,48,1,80
,,,,,,,,,,,,,,,,,,,,,,,,,,,,,,,,,,,,,,,,,n,2.28399992,MOON,FALSE,,,,,,,155,moneda,Catalan,Sounds/cat_moneda.mp3,2020-06-04_21h35.46.305,TranslationElicitation_eng-prolific,3.2.4,MacIntel,60,5ea21ef214912a12fa60eb5e,,1,0,81,48,1,80
,,,,,,,,,,,,,,,,,,,,,,,,,,,,,,,,,,,,,,,,,return,2.865999937,MOON,FALSE,,,,,,,155,moneda,Catalan,Sounds/cat_moneda.mp3,2020-06-04_21h35.46.305,TranslationElicitation_eng-prolific,3.2.4,MacIntel,60,5ea21ef214912a12fa60eb5e,2.865999937,1,0,81,48,1,80
,,,,,,,,,,,,,,,,,,,,,,,,,,,,,,,,,,,,,,,,,,,,,,,,,,,155,moneda,Catalan,Sounds/cat_moneda.mp3,2020-06-04_21h35.46.305,TranslationElicitation_eng-prolific,3.2.4,MacIntel,60,5ea21ef214912a12fa60eb5e,,1,0,81,48,1,80
,,,,,,,,,,,,,,,,,,,,,,,,,,,,,,,,,,,,,,,,,p,1.932999849,P,FALSE,,,,,,,163,papallona,Catalan,Sounds/cat_papallona.mp3,2020-06-04_21h35.46.305,TranslationElicitation_eng-prolific,3.2.4,MacIntel,60,5ea21ef214912a12fa60eb5e,,1,0,81,55,1,80
,,,,,,,,,,,,,,,,,,,,,,,,,,,,,,,,,,,,,,,,,backspace,3.366999865,,TRUE,,,,,,,163,papallona,Catalan,Sounds/cat_papallona.mp3,2020-06-04_21h35.46.305,TranslationElicitation_eng-prolific,3.2.4,MacIntel,60,5ea21ef214912a12fa60eb5e,,1,0,81,55,1,80
,,,,,,,,,,,,,,,,,,,,,,,,,,,,,,,,,,,,,,,,,f,3.849999905,F,TRUE,,,,,,,163,papallona,Catalan,Sounds/cat_papallona.mp3,2020-06-04_21h35.46.305,TranslationElicitation_eng-prolific,3.2.4,MacIntel,60,5ea21ef214912a12fa60eb5e,,1,0,81,55,1,80
,,,,,,,,,,,,,,,,,,,,,,,,,,,,,,,,,,,,,,,,,a,4.000999928,FA,TRUE,,,,,,,163,papallona,Catalan,Sounds/cat_papallona.mp3,2020-06-04_21h35.46.305,TranslationElicitation_eng-prolific,3.2.4,MacIntel,60,5ea21ef214912a12fa60eb5e,,1,0,81,55,1,80
,,,,,,,,,,,,,,,,,,,,,,,,,,,,,,,,,,,,,,,,,t,4.066999912,FAT,TRUE,,,,,,,163,papallona,Catalan,Sounds/cat_papallona.mp3,2020-06-04_21h35.46.305,TranslationElicitation_eng-prolific,3.2.4,MacIntel,60,5ea21ef214912a12fa60eb5e,,1,0,81,55,1,80
,,,,,,,,,,,,,,,,,,,,,,,,,,,,,,,,,,,,,,,,,h,4.316999912,FATH,TRUE,,,,,,,163,papallona,Catalan,Sounds/cat_papallona.mp3,2020-06-04_21h35.46.305,TranslationElicitation_eng-prolific,3.2.4,MacIntel,60,5ea21ef214912a12fa60eb5e,,1,0,81,55,1,80
,,,,,,,,,,,,,,,,,,,,,,,,,,,,,,,,,,,,,,,,,e,4.55099988,FATHE,TRUE,,,,,,,163,papallona,Catalan,Sounds/cat_papallona.mp3,2020-06-04_21h35.46.305,TranslationElicitation_eng-prolific,3.2.4,MacIntel,60,5ea21ef214912a12fa60eb5e,,1,0,81,55,1,80
,,,,,,,,,,,,,,,,,,,,,,,,,,,,,,,,,,,,,,,,,r,4.767999887,FATHER,TRUE,,,,,,,163,papallona,Catalan,Sounds/cat_papallona.mp3,2020-06-04_21h35.46.305,TranslationElicitation_eng-prolific,3.2.4,MacIntel,60,5ea21ef214912a12fa60eb5e,,1,0,81,55,1,80
,,,,,,,,,,,,,,,,,,,,,,,,,,,,,,,,,,,,,,,,,return,5.965999842,FATHER,TRUE,,,,,,,163,papallona,Catalan,Sounds/cat_papallona.mp3,2020-06-04_21h35.46.305,TranslationElicitation_eng-prolific,3.2.4,MacIntel,60,5ea21ef214912a12fa60eb5e,5.965999842,1,0,81,55,1,80
,,,,,,,,,,,,,,,,,,,,,,,,,,,,,,,,,,,,,,,,,,,,,,,,,,,163,papallona,Catalan,Sounds/cat_papallona.mp3,2020-06-04_21h35.46.305,TranslationElicitation_eng-prolific,3.2.4,MacIntel,60,5ea21ef214912a12fa60eb5e,,1,0,81,55,1,80
,,,,,,,,,,,,,,,,,,,,,,,,,,,,,,,,,,,,,,,,,t,3,T,FALSE,,,,,,,181,tobogan,Catalan,Sounds/cat_tobogan.mp3,2020-06-04_21h35.46.305,TranslationElicitation_eng-prolific,3.2.4,MacIntel,60,5ea21ef214912a12fa60eb5e,,1,0,81,72,1,80
,,,,,,,,,,,,,,,,,,,,,,,,,,,,,,,,,,,,,,,,,o,3.034000158,TO,FALSE,,,,,,,181,tobogan,Catalan,Sounds/cat_tobogan.mp3,2020-06-04_21h35.46.305,TranslationElicitation_eng-prolific,3.2.4,MacIntel,60,5ea21ef214912a12fa60eb5e,,1,0,81,72,1,80
,,,,,,,,,,,,,,,,,,,,,,,,,,,,,,,,,,,,,,,,,space,3.450000048,TO ,FALSE,,,,,,,181,tobogan,Catalan,Sounds/cat_tobogan.mp3,2020-06-04_21h35.46.305,TranslationElicitation_eng-prolific,3.2.4,MacIntel,60,5ea21ef214912a12fa60eb5e,,1,0,81,72,1,80
,,,,,,,,,,,,,,,,,,,,,,,,,,,,,,,,,,,,,,,,,b,3.950000048,TO B,FALSE,,,,,,,181,tobogan,Catalan,Sounds/cat_tobogan.mp3,2020-06-04_21h35.46.305,TranslationElicitation_eng-prolific,3.2.4,MacIntel,60,5ea21ef214912a12fa60eb5e,,1,0,81,72,1,80
,,,,,,,,,,,,,,,,,,,,,,,,,,,,,,,,,,,,,,,,,e,4.100000143,TO BE,FALSE,,,,,,,181,tobogan,Catalan,Sounds/cat_tobogan.mp3,2020-06-04_21h35.46.305,TranslationElicitation_eng-prolific,3.2.4,MacIntel,60,5ea21ef214912a12fa60eb5e,,1,0,81,72,1,80
,,,,,,,,,,,,,,,,,,,,,,,,,,,,,,,,,,,,,,,,,g,4.950000048,TO BEG,FALSE,,,,,,,181,tobogan,Catalan,Sounds/cat_tobogan.mp3,2020-06-04_21h35.46.305,TranslationElicitation_eng-prolific,3.2.4,MacIntel,60,5ea21ef214912a12fa60eb5e,,1,0,81,72,1,80
,,,,,,,,,,,,,,,,,,,,,,,,,,,,,,,,,,,,,,,,,i,5.168000221,TO BEGI,FALSE,,,,,,,181,tobogan,Catalan,Sounds/cat_tobogan.mp3,2020-06-04_21h35.46.305,TranslationElicitation_eng-prolific,3.2.4,MacIntel,60,5ea21ef214912a12fa60eb5e,,1,0,81,72,1,80
,,,,,,,,,,,,,,,,,,,,,,,,,,,,,,,,,,,,,,,,,n,5.384000063,TO BEGIN,FALSE,,,,,,,181,tobogan,Catalan,Sounds/cat_tobogan.mp3,2020-06-04_21h35.46.305,TranslationElicitation_eng-prolific,3.2.4,MacIntel,60,5ea21ef214912a12fa60eb5e,,1,0,81,72,1,80
,,,,,,,,,,,,,,,,,,,,,,,,,,,,,,,,,,,,,,,,,return,6,TO BEGIN,FALSE,,,,,,,181,tobogan,Catalan,Sounds/cat_tobogan.mp3,2020-06-04_21h35.46.305,TranslationElicitation_eng-prolific,3.2.4,MacIntel,60,5ea21ef214912a12fa60eb5e,6,1,0,81,72,1,80
,,,,,,,,,,,,,,,,,,,,,,,,,,,,,,,,,,,,,,,,,,,,,,,,,,,181,tobogan,Catalan,Sounds/cat_tobogan.mp3,2020-06-04_21h35.46.305,TranslationElicitation_eng-prolific,3.2.4,MacIntel,60,5ea21ef214912a12fa60eb5e,,1,0,81,72,1,80
,,,,,,,,,,,,,,,,,,,,,,,,,,,,,,,,,,,,,,,,,p,1.700000048,P,FALSE,,,,,,,167,pingui,Catalan,Sounds/cat_pingui.mp3,2020-06-04_21h35.46.305,TranslationElicitation_eng-prolific,3.2.4,MacIntel,60,5ea21ef214912a12fa60eb5e,,1,0,81,59,1,80
,,,,,,,,,,,,,,,,,,,,,,,,,,,,,,,,,,,,,,,,,e,2.083000183,PE,FALSE,,,,,,,167,pingui,Catalan,Sounds/cat_pingui.mp3,2020-06-04_21h35.46.305,TranslationElicitation_eng-prolific,3.2.4,MacIntel,60,5ea21ef214912a12fa60eb5e,,1,0,81,59,1,80
,,,,,,,,,,,,,,,,,,,,,,,,,,,,,,,,,,,,,,,,,n,2.684000015,PEN,FALSE,,,,,,,167,pingui,Catalan,Sounds/cat_pingui.mp3,2020-06-04_21h35.46.305,TranslationElicitation_eng-prolific,3.2.4,MacIntel,60,5ea21ef214912a12fa60eb5e,,1,0,81,59,1,80
,,,,,,,,,,,,,,,,,,,,,,,,,,,,,,,,,,,,,,,,,g,3.067000151,PENG,FALSE,,,,,,,167,pingui,Catalan,Sounds/cat_pingui.mp3,2020-06-04_21h35.46.305,TranslationElicitation_eng-prolific,3.2.4,MacIntel,60,5ea21ef214912a12fa60eb5e,,1,0,81,59,1,80
,,,,,,,,,,,,,,,,,,,,,,,,,,,,,,,,,,,,,,,,,u,3.334000111,PENGU,FALSE,,,,,,,167,pingui,Catalan,Sounds/cat_pingui.mp3,2020-06-04_21h35.46.305,TranslationElicitation_eng-prolific,3.2.4,MacIntel,60,5ea21ef214912a12fa60eb5e,,1,0,81,59,1,80
,,,,,,,,,,,,,,,,,,,,,,,,,,,,,,,,,,,,,,,,,i,3.433000088,PENGUI,FALSE,,,,,,,167,pingui,Catalan,Sounds/cat_pingui.mp3,2020-06-04_21h35.46.305,TranslationElicitation_eng-prolific,3.2.4,MacIntel,60,5ea21ef214912a12fa60eb5e,,1,0,81,59,1,80
,,,,,,,,,,,,,,,,,,,,,,,,,,,,,,,,,,,,,,,,,n,3.683000088,PENGUIN,FALSE,,,,,,,167,pingui,Catalan,Sounds/cat_pingui.mp3,2020-06-04_21h35.46.305,TranslationElicitation_eng-prolific,3.2.4,MacIntel,60,5ea21ef214912a12fa60eb5e,,1,0,81,59,1,80
,,,,,,,,,,,,,,,,,,,,,,,,,,,,,,,,,,,,,,,,,return,4.235000134,PENGUIN,FALSE,,,,,,,167,pingui,Catalan,Sounds/cat_pingui.mp3,2020-06-04_21h35.46.305,TranslationElicitation_eng-prolific,3.2.4,MacIntel,60,5ea21ef214912a12fa60eb5e,4.235000134,1,0,81,59,1,80
,,,,,,,,,,,,,,,,,,,,,,,,,,,,,,,,,,,,,,,,,,,,,,,,,,,167,pingui,Catalan,Sounds/cat_pingui.mp3,2020-06-04_21h35.46.305,TranslationElicitation_eng-prolific,3.2.4,MacIntel,60,5ea21ef214912a12fa60eb5e,,1,0,81,59,1,80
,,,,,,,,,,,,,,,,,,,,,,,,,,,,,,,,,,,,,,,,,g,2.915999889,G,FALSE,,,,,,,144,gorra,Catalan,Sounds/cat_gorra.mp3,2020-06-04_21h35.46.305,TranslationElicitation_eng-prolific,3.2.4,MacIntel,60,5ea21ef214912a12fa60eb5e,,1,0,81,38,1,80
,,,,,,,,,,,,,,,,,,,,,,,,,,,,,,,,,,,,,,,,,o,2.98300004,GO,FALSE,,,,,,,144,gorra,Catalan,Sounds/cat_gorra.mp3,2020-06-04_21h35.46.305,TranslationElicitation_eng-prolific,3.2.4,MacIntel,60,5ea21ef214912a12fa60eb5e,,1,0,81,38,1,80
,,,,,,,,,,,,,,,,,,,,,,,,,,,,,,,,,,,,,,,,,return,3.582999945,GO,FALSE,,,,,,,144,gorra,Catalan,Sounds/cat_gorra.mp3,2020-06-04_21h35.46.305,TranslationElicitation_eng-prolific,3.2.4,MacIntel,60,5ea21ef214912a12fa60eb5e,3.582999945,1,0,81,38,1,80
,,,,,,,,,,,,,,,,,,,,,,,,,,,,,,,,,,,,,,,,,,,,,,,,,,,144,gorra,Catalan,Sounds/cat_gorra.mp3,2020-06-04_21h35.46.305,TranslationElicitation_eng-prolific,3.2.4,MacIntel,60,5ea21ef214912a12fa60eb5e,,1,0,81,38,1,80
,,,,,,,,,,,,,,,,,,,,,,,,,,,,,,,,,,,,,,,,,p,1.299000025,P,FALSE,,,,,,,164,patata,Catalan,Sounds/cat_patata.mp3,2020-06-04_21h35.46.305,TranslationElicitation_eng-prolific,3.2.4,MacIntel,60,5ea21ef214912a12fa60eb5e,,1,0,81,56,1,80
,,,,,,,,,,,,,,,,,,,,,,,,,,,,,,,,,,,,,,,,,o,1.683000088,PO,FALSE,,,,,,,164,patata,Catalan,Sounds/cat_patata.mp3,2020-06-04_21h35.46.305,TranslationElicitation_eng-prolific,3.2.4,MacIntel,60,5ea21ef214912a12fa60eb5e,,1,0,81,56,1,80
,,,,,,,,,,,,,,,,,,,,,,,,,,,,,,,,,,,,,,,,,t,2.01699996,POT,FALSE,,,,,,,164,patata,Catalan,Sounds/cat_patata.mp3,2020-06-04_21h35.46.305,TranslationElicitation_eng-prolific,3.2.4,MacIntel,60,5ea21ef214912a12fa60eb5e,,1,0,81,56,1,80
,,,,,,,,,,,,,,,,,,,,,,,,,,,,,,,,,,,,,,,,,a,2.166000128,POTA,FALSE,,,,,,,164,patata,Catalan,Sounds/cat_patata.mp3,2020-06-04_21h35.46.305,TranslationElicitation_eng-prolific,3.2.4,MacIntel,60,5ea21ef214912a12fa60eb5e,,1,0,81,56,1,80
,,,,,,,,,,,,,,,,,,,,,,,,,,,,,,,,,,,,,,,,,t,2.28399992,POTAT,FALSE,,,,,,,164,patata,Catalan,Sounds/cat_patata.mp3,2020-06-04_21h35.46.305,TranslationElicitation_eng-prolific,3.2.4,MacIntel,60,5ea21ef214912a12fa60eb5e,,1,0,81,56,1,80
,,,,,,,,,,,,,,,,,,,,,,,,,,,,,,,,,,,,,,,,,o,2.648999929,POTATO,FALSE,,,,,,,164,patata,Catalan,Sounds/cat_patata.mp3,2020-06-04_21h35.46.305,TranslationElicitation_eng-prolific,3.2.4,MacIntel,60,5ea21ef214912a12fa60eb5e,,1,0,81,56,1,80
,,,,,,,,,,,,,,,,,,,,,,,,,,,,,,,,,,,,,,,,,e,2.799999952,POTATOE,FALSE,,,,,,,164,patata,Catalan,Sounds/cat_patata.mp3,2020-06-04_21h35.46.305,TranslationElicitation_eng-prolific,3.2.4,MacIntel,60,5ea21ef214912a12fa60eb5e,,1,0,81,56,1,80
,,,,,,,,,,,,,,,,,,,,,,,,,,,,,,,,,,,,,,,,,s,3.051000118,POTATOES,FALSE,,,,,,,164,patata,Catalan,Sounds/cat_patata.mp3,2020-06-04_21h35.46.305,TranslationElicitation_eng-prolific,3.2.4,MacIntel,60,5ea21ef214912a12fa60eb5e,,1,0,81,56,1,80
,,,,,,,,,,,,,,,,,,,,,,,,,,,,,,,,,,,,,,,,,return,3.417000055,POTATOES,FALSE,,,,,,,164,patata,Catalan,Sounds/cat_patata.mp3,2020-06-04_21h35.46.305,TranslationElicitation_eng-prolific,3.2.4,MacIntel,60,5ea21ef214912a12fa60eb5e,3.417000055,1,0,81,56,1,80
,,,,,,,,,,,,,,,,,,,,,,,,,,,,,,,,,,,,,,,,,,,,,,,,,,,164,patata,Catalan,Sounds/cat_patata.mp3,2020-06-04_21h35.46.305,TranslationElicitation_eng-prolific,3.2.4,MacIntel,60,5ea21ef214912a12fa60eb5e,,1,0,81,56,1,80
,,,,,,,,,,,,,,,,,,,,,,,,,,,,,,,,,,,,,,,,,e,4.198999882,E,FALSE,,,,,,,130,entrepa,Catalan,Sounds/cat_entrepa.mp3,2020-06-04_21h35.46.305,TranslationElicitation_eng-prolific,3.2.4,MacIntel,60,5ea21ef214912a12fa60eb5e,,1,0,81,24,1,80
,,,,,,,,,,,,,,,,,,,,,,,,,,,,,,,,,,,,,,,,,n,4.316999912,EN,FALSE,,,,,,,130,entrepa,Catalan,Sounds/cat_entrepa.mp3,2020-06-04_21h35.46.305,TranslationElicitation_eng-prolific,3.2.4,MacIntel,60,5ea21ef214912a12fa60eb5e,,1,0,81,24,1,80
,,,,,,,,,,,,,,,,,,,,,,,,,,,,,,,,,,,,,,,,,backspace,4.832999945,E,TRUE,,,,,,,130,entrepa,Catalan,Sounds/cat_entrepa.mp3,2020-06-04_21h35.46.305,TranslationElicitation_eng-prolific,3.2.4,MacIntel,60,5ea21ef214912a12fa60eb5e,,1,0,81,24,1,80
,,,,,,,,,,,,,,,,,,,,,,,,,,,,,,,,,,,,,,,,,backspace,5.01699996,,TRUE,,,,,,,130,entrepa,Catalan,Sounds/cat_entrepa.mp3,2020-06-04_21h35.46.305,TranslationElicitation_eng-prolific,3.2.4,MacIntel,60,5ea21ef214912a12fa60eb5e,,1,0,81,24,1,80
,,,,,,,,,,,,,,,,,,,,,,,,,,,,,,,,,,,,,,,,,t,5.96600008,T,TRUE,,,,,,,130,entrepa,Catalan,Sounds/cat_entrepa.mp3,2020-06-04_21h35.46.305,TranslationElicitation_eng-prolific,3.2.4,MacIntel,60,5ea21ef214912a12fa60eb5e,,1,0,81,24,1,80
,,,,,,,,,,,,,,,,,,,,,,,,,,,,,,,,,,,,,,,,,o,6.115999937,TO,TRUE,,,,,,,130,entrepa,Catalan,Sounds/cat_entrepa.mp3,2020-06-04_21h35.46.305,TranslationElicitation_eng-prolific,3.2.4,MacIntel,60,5ea21ef214912a12fa60eb5e,,1,0,81,24,1,80
,,,,,,,,,,,,,,,,,,,,,,,,,,,,,,,,,,,,,,,,,space,6.332999945,TO ,TRUE,,,,,,,130,entrepa,Catalan,Sounds/cat_entrepa.mp3,2020-06-04_21h35.46.305,TranslationElicitation_eng-prolific,3.2.4,MacIntel,60,5ea21ef214912a12fa60eb5e,,1,0,81,24,1,80
,,,,,,,,,,,,,,,,,,,,,,,,,,,,,,,,,,,,,,,,,e,6.851000071,TO E,TRUE,,,,,,,130,entrepa,Catalan,Sounds/cat_entrepa.mp3,2020-06-04_21h35.46.305,TranslationElicitation_eng-prolific,3.2.4,MacIntel,60,5ea21ef214912a12fa60eb5e,,1,0,81,24,1,80
,,,,,,,,,,,,,,,,,,,,,,,,,,,,,,,,,,,,,,,,,n,6.983999968,TO EN,TRUE,,,,,,,130,entrepa,Catalan,Sounds/cat_entrepa.mp3,2020-06-04_21h35.46.305,TranslationElicitation_eng-prolific,3.2.4,MacIntel,60,5ea21ef214912a12fa60eb5e,,1,0,81,24,1,80
,,,,,,,,,,,,,,,,,,,,,,,,,,,,,,,,,,,,,,,,,t,7.233999968,TO ENT,TRUE,,,,,,,130,entrepa,Catalan,Sounds/cat_entrepa.mp3,2020-06-04_21h35.46.305,TranslationElicitation_eng-prolific,3.2.4,MacIntel,60,5ea21ef214912a12fa60eb5e,,1,0,81,24,1,80
,,,,,,,,,,,,,,,,,,,,,,,,,,,,,,,,,,,,,,,,,r,7.417000055,TO ENTR,TRUE,,,,,,,130,entrepa,Catalan,Sounds/cat_entrepa.mp3,2020-06-04_21h35.46.305,TranslationElicitation_eng-prolific,3.2.4,MacIntel,60,5ea21ef214912a12fa60eb5e,,1,0,81,24,1,80
,,,,,,,,,,,,,,,,,,,,,,,,,,,,,,,,,,,,,,,,,a,7.599999905,TO ENTRA,TRUE,,,,,,,130,entrepa,Catalan,Sounds/cat_entrepa.mp3,2020-06-04_21h35.46.305,TranslationElicitation_eng-prolific,3.2.4,MacIntel,60,5ea21ef214912a12fa60eb5e,,1,0,81,24,1,80
,,,,,,,,,,,,,,,,,,,,,,,,,,,,,,,,,,,,,,,,,n,7.78399992,TO ENTRAN,TRUE,,,,,,,130,entrepa,Catalan,Sounds/cat_entrepa.mp3,2020-06-04_21h35.46.305,TranslationElicitation_eng-prolific,3.2.4,MacIntel,60,5ea21ef214912a12fa60eb5e,,1,0,81,24,1,80
,,,,,,,,,,,,,,,,,,,,,,,,,,,,,,,,,,,,,,,,,c,8.016000032,TO ENTRANC,TRUE,,,,,,,130,entrepa,Catalan,Sounds/cat_entrepa.mp3,2020-06-04_21h35.46.305,TranslationElicitation_eng-prolific,3.2.4,MacIntel,60,5ea21ef214912a12fa60eb5e,,1,0,81,24,1,80
,,,,,,,,,,,,,,,,,,,,,,,,,,,,,,,,,,,,,,,,,e,8.183000088,TO ENTRANCE,TRUE,,,,,,,130,entrepa,Catalan,Sounds/cat_entrepa.mp3,2020-06-04_21h35.46.305,TranslationElicitation_eng-prolific,3.2.4,MacIntel,60,5ea21ef214912a12fa60eb5e,,1,0,81,24,1,80
,,,,,,,,,,,,,,,,,,,,,,,,,,,,,,,,,,,,,,,,,return,9.999000072,TO ENTRANCE,TRUE,,,,,,,130,entrepa,Catalan,Sounds/cat_entrepa.mp3,2020-06-04_21h35.46.305,TranslationElicitation_eng-prolific,3.2.4,MacIntel,60,5ea21ef214912a12fa60eb5e,9.999000072,1,0,81,24,1,80
,,,,,,,,,,,,,,,,,,,,,,,,,,,,,,,,,,,,,,,,,,,,,,,,,,,130,entrepa,Catalan,Sounds/cat_entrepa.mp3,2020-06-04_21h35.46.305,TranslationElicitation_eng-prolific,3.2.4,MacIntel,60,5ea21ef214912a12fa60eb5e,,1,0,81,24,1,80
,,,,,,,,,,,,,,,,,,,,,,,,,,,,,,,,,,,,,,,,,s,2.549999952,S,FALSE,,,,,,,112,bici,Catalan,Sounds/cat_bici.mp3,2020-06-04_21h35.46.305,TranslationElicitation_eng-prolific,3.2.4,MacIntel,60,5ea21ef214912a12fa60eb5e,,1,0,81,7,1,80
,,,,,,,,,,,,,,,,,,,,,,,,,,,,,,,,,,,,,,,,,e,2.78399992,SE,FALSE,,,,,,,112,bici,Catalan,Sounds/cat_bici.mp3,2020-06-04_21h35.46.305,TranslationElicitation_eng-prolific,3.2.4,MacIntel,60,5ea21ef214912a12fa60eb5e,,1,0,81,7,1,80
,,,,,,,,,,,,,,,,,,,,,,,,,,,,,,,,,,,,,,,,,a,3.134000063,SEA,FALSE,,,,,,,112,bici,Catalan,Sounds/cat_bici.mp3,2020-06-04_21h35.46.305,TranslationElicitation_eng-prolific,3.2.4,MacIntel,60,5ea21ef214912a12fa60eb5e,,1,0,81,7,1,80
,,,,,,,,,,,,,,,,,,,,,,,,,,,,,,,,,,,,,,,,,s,4.06099987,SEAS,FALSE,,,,,,,112,bici,Catalan,Sounds/cat_bici.mp3,2020-06-04_21h35.46.305,TranslationElicitation_eng-prolific,3.2.4,MacIntel,60,5ea21ef214912a12fa60eb5e,,1,0,81,7,1,80
,,,,,,,,,,,,,,,,,,,,,,,,,,,,,,,,,,,,,,,,,i,4.243999958,SEASI,FALSE,,,,,,,112,bici,Catalan,Sounds/cat_bici.mp3,2020-06-04_21h35.46.305,TranslationElicitation_eng-prolific,3.2.4,MacIntel,60,5ea21ef214912a12fa60eb5e,,1,0,81,7,1,80
,,,,,,,,,,,,,,,,,,,,,,,,,,,,,,,,,,,,,,,,,d,4.378000021,SEASID,FALSE,,,,,,,112,bici,Catalan,Sounds/cat_bici.mp3,2020-06-04_21h35.46.305,TranslationElicitation_eng-prolific,3.2.4,MacIntel,60,5ea21ef214912a12fa60eb5e,,1,0,81,7,1,80
,,,,,,,,,,,,,,,,,,,,,,,,,,,,,,,,,,,,,,,,,e,4.493999958,SEASIDE,FALSE,,,,,,,112,bici,Catalan,Sounds/cat_bici.mp3,2020-06-04_21h35.46.305,TranslationElicitation_eng-prolific,3.2.4,MacIntel,60,5ea21ef214912a12fa60eb5e,,1,0,81,7,1,80
,,,,,,,,,,,,,,,,,,,,,,,,,,,,,,,,,,,,,,,,,backspace,5.128000021,SEASID,TRUE,,,,,,,112,bici,Catalan,Sounds/cat_bici.mp3,2020-06-04_21h35.46.305,TranslationElicitation_eng-prolific,3.2.4,MacIntel,60,5ea21ef214912a12fa60eb5e,,1,0,81,7,1,80
,,,,,,,,,,,,,,,,,,,,,,,,,,,,,,,,,,,,,,,,,backspace,5.628000021,SEASI,TRUE,,,,,,,112,bici,Catalan,Sounds/cat_bici.mp3,2020-06-04_21h35.46.305,TranslationElicitation_eng-prolific,3.2.4,MacIntel,60,5ea21ef214912a12fa60eb5e,,1,0,81,7,1,80
,,,,,,,,,,,,,,,,,,,,,,,,,,,,,,,,,,,,,,,,,backspace,5.710999966,SEAS,TRUE,,,,,,,112,bici,Catalan,Sounds/cat_bici.mp3,2020-06-04_21h35.46.305,TranslationElicitation_eng-prolific,3.2.4,MacIntel,60,5ea21ef214912a12fa60eb5e,,1,0,81,7,1,80
,,,,,,,,,,,,,,,,,,,,,,,,,,,,,,,,,,,,,,,,,backspace,5.79399991,SEA,TRUE,,,,,,,112,bici,Catalan,Sounds/cat_bici.mp3,2020-06-04_21h35.46.305,TranslationElicitation_eng-prolific,3.2.4,MacIntel,60,5ea21ef214912a12fa60eb5e,,1,0,81,7,1,80
,,,,,,,,,,,,,,,,,,,,,,,,,,,,,,,,,,,,,,,,,backspace,5.878999949,SE,TRUE,,,,,,,112,bici,Catalan,Sounds/cat_bici.mp3,2020-06-04_21h35.46.305,TranslationElicitation_eng-prolific,3.2.4,MacIntel,60,5ea21ef214912a12fa60eb5e,,1,0,81,7,1,80
,,,,,,,,,,,,,,,,,,,,,,,,,,,,,,,,,,,,,,,,,backspace,5.960999966,S,TRUE,,,,,,,112,bici,Catalan,Sounds/cat_bici.mp3,2020-06-04_21h35.46.305,TranslationElicitation_eng-prolific,3.2.4,MacIntel,60,5ea21ef214912a12fa60eb5e,,1,0,81,7,1,80
,,,,,,,,,,,,,,,,,,,,,,,,,,,,,,,,,,,,,,,,,backspace,6.045000076,,TRUE,,,,,,,112,bici,Catalan,Sounds/cat_bici.mp3,2020-06-04_21h35.46.305,TranslationElicitation_eng-prolific,3.2.4,MacIntel,60,5ea21ef214912a12fa60eb5e,,1,0,81,7,1,80
,,,,,,,,,,,,,,,,,,,,,,,,,,,,,,,,,,,,,,,,,backspace,6.128999949,,TRUE,,,,,,,112,bici,Catalan,Sounds/cat_bici.mp3,2020-06-04_21h35.46.305,TranslationElicitation_eng-prolific,3.2.4,MacIntel,60,5ea21ef214912a12fa60eb5e,,1,0,81,7,1,80
,,,,,,,,,,,,,,,,,,,,,,,,,,,,,,,,,,,,,,,,,backspace,6.210999966,,TRUE,,,,,,,112,bici,Catalan,Sounds/cat_bici.mp3,2020-06-04_21h35.46.305,TranslationElicitation_eng-prolific,3.2.4,MacIntel,60,5ea21ef214912a12fa60eb5e,,1,0,81,7,1,80
,,,,,,,,,,,,,,,,,,,,,,,,,,,,,,,,,,,,,,,,,s,6.760999918,S,TRUE,,,,,,,112,bici,Catalan,Sounds/cat_bici.mp3,2020-06-04_21h35.46.305,TranslationElicitation_eng-prolific,3.2.4,MacIntel,60,5ea21ef214912a12fa60eb5e,,1,0,81,7,1,80
,,,,,,,,,,,,,,,,,,,,,,,,,,,,,,,,,,,,,,,,,i,6.961999893,SI,TRUE,,,,,,,112,bici,Catalan,Sounds/cat_bici.mp3,2020-06-04_21h35.46.305,TranslationElicitation_eng-prolific,3.2.4,MacIntel,60,5ea21ef214912a12fa60eb5e,,1,0,81,7,1,80
,,,,,,,,,,,,,,,,,,,,,,,,,,,,,,,,,,,,,,,,,s,7.062000036,SIS,TRUE,,,,,,,112,bici,Catalan,Sounds/cat_bici.mp3,2020-06-04_21h35.46.305,TranslationElicitation_eng-prolific,3.2.4,MacIntel,60,5ea21ef214912a12fa60eb5e,,1,0,81,7,1,80
,,,,,,,,,,,,,,,,,,,,,,,,,,,,,,,,,,,,,,,,,t,7.31099987,SIST,TRUE,,,,,,,112,bici,Catalan,Sounds/cat_bici.mp3,2020-06-04_21h35.46.305,TranslationElicitation_eng-prolific,3.2.4,MacIntel,60,5ea21ef214912a12fa60eb5e,,1,0,81,7,1,80
,,,,,,,,,,,,,,,,,,,,,,,,,,,,,,,,,,,,,,,,,e,7.461999893,SISTE,TRUE,,,,,,,112,bici,Catalan,Sounds/cat_bici.mp3,2020-06-04_21h35.46.305,TranslationElicitation_eng-prolific,3.2.4,MacIntel,60,5ea21ef214912a12fa60eb5e,,1,0,81,7,1,80
,,,,,,,,,,,,,,,,,,,,,,,,,,,,,,,,,,,,,,,,,r,7.628999949,SISTER,TRUE,,,,,,,112,bici,Catalan,Sounds/cat_bici.mp3,2020-06-04_21h35.46.305,TranslationElicitation_eng-prolific,3.2.4,MacIntel,60,5ea21ef214912a12fa60eb5e,,1,0,81,7,1,80
,,,,,,,,,,,,,,,,,,,,,,,,,,,,,,,,,,,,,,,,,return,8.345000029,SISTER,TRUE,,,,,,,112,bici,Catalan,Sounds/cat_bici.mp3,2020-06-04_21h35.46.305,TranslationElicitation_eng-prolific,3.2.4,MacIntel,60,5ea21ef214912a12fa60eb5e,8.345000029,1,0,81,7,1,80
,,,,,,,,,,,,,,,,,,,,,,,,,,,,,,,,,,,,,,,,,,,,,,,,,,,112,bici,Catalan,Sounds/cat_bici.mp3,2020-06-04_21h35.46.305,TranslationElicitation_eng-prolific,3.2.4,MacIntel,60,5ea21ef214912a12fa60eb5e,,1,0,81,7,1,80
,,,,,,,,,,,,,,,,,,,,,,,,,,,,,,,,,,,,,,,,,p,3.032999992,P,FALSE,,,,,,,140,gat,Catalan,Sounds/cat_gat.mp3,2020-06-04_21h35.46.305,TranslationElicitation_eng-prolific,3.2.4,MacIntel,60,5ea21ef214912a12fa60eb5e,,1,0,81,34,1,80
,,,,,,,,,,,,,,,,,,,,,,,,,,,,,,,,,,,,,,,,,l,3.266000032,PL,FALSE,,,,,,,140,gat,Catalan,Sounds/cat_gat.mp3,2020-06-04_21h35.46.305,TranslationElicitation_eng-prolific,3.2.4,MacIntel,60,5ea21ef214912a12fa60eb5e,,1,0,81,34,1,80
,,,,,,,,,,,,,,,,,,,,,,,,,,,,,,,,,,,,,,,,,a,4.431999922,PLA,FALSE,,,,,,,140,gat,Catalan,Sounds/cat_gat.mp3,2020-06-04_21h35.46.305,TranslationElicitation_eng-prolific,3.2.4,MacIntel,60,5ea21ef214912a12fa60eb5e,,1,0,81,34,1,80
,,,,,,,,,,,,,,,,,,,,,,,,,,,,,,,,,,,,,,,,,i,4.53399992,PLAI,FALSE,,,,,,,140,gat,Catalan,Sounds/cat_gat.mp3,2020-06-04_21h35.46.305,TranslationElicitation_eng-prolific,3.2.4,MacIntel,60,5ea21ef214912a12fa60eb5e,,1,0,81,34,1,80
,,,,,,,,,,,,,,,,,,,,,,,,,,,,,,,,,,,,,,,,,t,4.749000072,PLAIT,FALSE,,,,,,,140,gat,Catalan,Sounds/cat_gat.mp3,2020-06-04_21h35.46.305,TranslationElicitation_eng-prolific,3.2.4,MacIntel,60,5ea21ef214912a12fa60eb5e,,1,0,81,34,1,80
,,,,,,,,,,,,,,,,,,,,,,,,,,,,,,,,,,,,,,,,,return,5.365999937,PLAIT,FALSE,,,,,,,140,gat,Catalan,Sounds/cat_gat.mp3,2020-06-04_21h35.46.305,TranslationElicitation_eng-prolific,3.2.4,MacIntel,60,5ea21ef214912a12fa60eb5e,5.365999937,1,0,81,34,1,80
,,,,,,,,,,,,,,,,,,,,,,,,,,,,,,,,,,,,,,,,,,,,,,,,,,,140,gat,Catalan,Sounds/cat_gat.mp3,2020-06-04_21h35.46.305,TranslationElicitation_eng-prolific,3.2.4,MacIntel,60,5ea21ef214912a12fa60eb5e,,1,0,81,34,1,80
,,,,,,,,,,,,,,,,,,,,,,,,,,,,,,,,,,,,,,,,,e,2.931999922,E,FALSE,,,,,,,113,boca,Catalan,Sounds/cat_boca.mp3,2020-06-04_21h35.46.305,TranslationElicitation_eng-prolific,3.2.4,MacIntel,60,5ea21ef214912a12fa60eb5e,,1,0,81,8,1,80
,,,,,,,,,,,,,,,,,,,,,,,,,,,,,,,,,,,,,,,,,a,3.315999985,EA,FALSE,,,,,,,113,boca,Catalan,Sounds/cat_boca.mp3,2020-06-04_21h35.46.305,TranslationElicitation_eng-prolific,3.2.4,MacIntel,60,5ea21ef214912a12fa60eb5e,,1,0,81,8,1,80
,,,,,,,,,,,,,,,,,,,,,,,,,,,,,,,,,,,,,,,,,t,3.733999968,EAT,FALSE,,,,,,,113,boca,Catalan,Sounds/cat_boca.mp3,2020-06-04_21h35.46.305,TranslationElicitation_eng-prolific,3.2.4,MacIntel,60,5ea21ef214912a12fa60eb5e,,1,0,81,8,1,80
,,,,,,,,,,,,,,,,,,,,,,,,,,,,,,,,,,,,,,,,,return,4.299999952,EAT,FALSE,,,,,,,113,boca,Catalan,Sounds/cat_boca.mp3,2020-06-04_21h35.46.305,TranslationElicitation_eng-prolific,3.2.4,MacIntel,60,5ea21ef214912a12fa60eb5e,4.299999952,1,0,81,8,1,80
,,,,,,,,,,,,,,,,,,,,,,,,,,,,,,,,,,,,,,,,,,,,,,,,,,,113,boca,Catalan,Sounds/cat_boca.mp3,2020-06-04_21h35.46.305,TranslationElicitation_eng-prolific,3.2.4,MacIntel,60,5ea21ef214912a12fa60eb5e,,1,0,81,8,1,80
,,,,,,,,,,,,,,,,,,,,,,,,,,,,,,,,,,,,,,,,,b,2.149999857,B,FALSE,,,,,,,118,bou,Catalan,Sounds/cat_bou.mp3,2020-06-04_21h35.46.305,TranslationElicitation_eng-prolific,3.2.4,MacIntel,60,5ea21ef214912a12fa60eb5e,,1,0,81,13,1,80
,,,,,,,,,,,,,,,,,,,,,,,,,,,,,,,,,,,,,,,,,o,3.882999897,BO,FALSE,,,,,,,118,bou,Catalan,Sounds/cat_bou.mp3,2020-06-04_21h35.46.305,TranslationElicitation_eng-prolific,3.2.4,MacIntel,60,5ea21ef214912a12fa60eb5e,,1,0,81,13,1,80
,,,,,,,,,,,,,,,,,,,,,,,,,,,,,,,,,,,,,,,,,w,4.132999897,BOW,FALSE,,,,,,,118,bou,Catalan,Sounds/cat_bou.mp3,2020-06-04_21h35.46.305,TranslationElicitation_eng-prolific,3.2.4,MacIntel,60,5ea21ef214912a12fa60eb5e,,1,0,81,13,1,80
,,,,,,,,,,,,,,,,,,,,,,,,,,,,,,,,,,,,,,,,,l,4.917999983,BOWL,FALSE,,,,,,,118,bou,Catalan,Sounds/cat_bou.mp3,2020-06-04_21h35.46.305,TranslationElicitation_eng-prolific,3.2.4,MacIntel,60,5ea21ef214912a12fa60eb5e,,1,0,81,13,1,80
,,,,,,,,,,,,,,,,,,,,,,,,,,,,,,,,,,,,,,,,,return,5.151000023,BOWL,FALSE,,,,,,,118,bou,Catalan,Sounds/cat_bou.mp3,2020-06-04_21h35.46.305,TranslationElicitation_eng-prolific,3.2.4,MacIntel,60,5ea21ef214912a12fa60eb5e,5.151000023,1,0,81,13,1,80
,,,,,,,,,,,,,,,,,,,,,,,,,,,,,,,,,,,,,,,,,,,,,,,,,,,118,bou,Catalan,Sounds/cat_bou.mp3,2020-06-04_21h35.46.305,TranslationElicitation_eng-prolific,3.2.4,MacIntel,60,5ea21ef214912a12fa60eb5e,,1,0,81,13,1,80
,,,,,,,,,,,,,,,,,,,,,,,,,,,,,,,,,,,,,,,,,m,3.099999905,M,FALSE,,,,,,,154,mirall,Catalan,Sounds/cat_mirall.mp3,2020-06-04_21h35.46.305,TranslationElicitation_eng-prolific,3.2.4,MacIntel,60,5ea21ef214912a12fa60eb5e,,1,0,81,47,1,80
,,,,,,,,,,,,,,,,,,,,,,,,,,,,,,,,,,,,,,,,,i,3.349999905,MI,FALSE,,,,,,,154,mirall,Catalan,Sounds/cat_mirall.mp3,2020-06-04_21h35.46.305,TranslationElicitation_eng-prolific,3.2.4,MacIntel,60,5ea21ef214912a12fa60eb5e,,1,0,81,47,1,80
,,,,,,,,,,,,,,,,,,,,,,,,,,,,,,,,,,,,,,,,,r,3.549999952,MIR,FALSE,,,,,,,154,mirall,Catalan,Sounds/cat_mirall.mp3,2020-06-04_21h35.46.305,TranslationElicitation_eng-prolific,3.2.4,MacIntel,60,5ea21ef214912a12fa60eb5e,,1,0,81,47,1,80
,,,,,,,,,,,,,,,,,,,,,,,,,,,,,,,,,,,,,,,,,r,3.733999968,MIRR,FALSE,,,,,,,154,mirall,Catalan,Sounds/cat_mirall.mp3,2020-06-04_21h35.46.305,TranslationElicitation_eng-prolific,3.2.4,MacIntel,60,5ea21ef214912a12fa60eb5e,,1,0,81,47,1,80
,,,,,,,,,,,,,,,,,,,,,,,,,,,,,,,,,,,,,,,,,o,3.816999912,MIRRO,FALSE,,,,,,,154,mirall,Catalan,Sounds/cat_mirall.mp3,2020-06-04_21h35.46.305,TranslationElicitation_eng-prolific,3.2.4,MacIntel,60,5ea21ef214912a12fa60eb5e,,1,0,81,47,1,80
,,,,,,,,,,,,,,,,,,,,,,,,,,,,,,,,,,,,,,,,,e,4.333999872,MIRROE,FALSE,,,,,,,154,mirall,Catalan,Sounds/cat_mirall.mp3,2020-06-04_21h35.46.305,TranslationElicitation_eng-prolific,3.2.4,MacIntel,60,5ea21ef214912a12fa60eb5e,,1,0,81,47,1,80
,,,,,,,,,,,,,,,,,,,,,,,,,,,,,,,,,,,,,,,,,backspace,5.134000063,MIRRO,TRUE,,,,,,,154,mirall,Catalan,Sounds/cat_mirall.mp3,2020-06-04_21h35.46.305,TranslationElicitation_eng-prolific,3.2.4,MacIntel,60,5ea21ef214912a12fa60eb5e,,1,0,81,47,1,80
,,,,,,,,,,,,,,,,,,,,,,,,,,,,,,,,,,,,,,,,,r,5.248999834,MIRROR,TRUE,,,,,,,154,mirall,Catalan,Sounds/cat_mirall.mp3,2020-06-04_21h35.46.305,TranslationElicitation_eng-prolific,3.2.4,MacIntel,60,5ea21ef214912a12fa60eb5e,,1,0,81,47,1,80
,,,,,,,,,,,,,,,,,,,,,,,,,,,,,,,,,,,,,,,,,return,5.467000008,MIRROR,TRUE,,,,,,,154,mirall,Catalan,Sounds/cat_mirall.mp3,2020-06-04_21h35.46.305,TranslationElicitation_eng-prolific,3.2.4,MacIntel,60,5ea21ef214912a12fa60eb5e,5.467000008,1,0,81,47,1,80
,,,,,,,,,,,,,,,,,,,,,,,,,,,,,,,,,,,,,,,,,,,,,,,,,,,154,mirall,Catalan,Sounds/cat_mirall.mp3,2020-06-04_21h35.46.305,TranslationElicitation_eng-prolific,3.2.4,MacIntel,60,5ea21ef214912a12fa60eb5e,,1,0,81,47,1,80
,,,,,,,,,,,,,,,,,,,,,,,,,,,,,,,,,,,,,,,,,g,5.450000048,G,FALSE,,,,,,,185,ulleres,Catalan,Sounds/cat_ulleres.mp3,2020-06-04_21h35.46.305,TranslationElicitation_eng-prolific,3.2.4,MacIntel,60,5ea21ef214912a12fa60eb5e,,1,0,81,76,1,80
,,,,,,,,,,,,,,,,,,,,,,,,,,,,,,,,,,,,,,,,,r,6.23300004,GR,FALSE,,,,,,,185,ulleres,Catalan,Sounds/cat_ulleres.mp3,2020-06-04_21h35.46.305,TranslationElicitation_eng-prolific,3.2.4,MacIntel,60,5ea21ef214912a12fa60eb5e,,1,0,81,76,1,80
,,,,,,,,,,,,,,,,,,,,,,,,,,,,,,,,,,,,,,,,,a,6.450000048,GRA,FALSE,,,,,,,185,ulleres,Catalan,Sounds/cat_ulleres.mp3,2020-06-04_21h35.46.305,TranslationElicitation_eng-prolific,3.2.4,MacIntel,60,5ea21ef214912a12fa60eb5e,,1,0,81,76,1,80
,,,,,,,,,,,,,,,,,,,,,,,,,,,,,,,,,,,,,,,,,p,6.651000023,GRAP,FALSE,,,,,,,185,ulleres,Catalan,Sounds/cat_ulleres.mp3,2020-06-04_21h35.46.305,TranslationElicitation_eng-prolific,3.2.4,MacIntel,60,5ea21ef214912a12fa60eb5e,,1,0,81,76,1,80
,,,,,,,,,,,,,,,,,,,,,,,,,,,,,,,,,,,,,,,,,e,6.832999945,GRAPE,FALSE,,,,,,,185,ulleres,Catalan,Sounds/cat_ulleres.mp3,2020-06-04_21h35.46.305,TranslationElicitation_eng-prolific,3.2.4,MacIntel,60,5ea21ef214912a12fa60eb5e,,1,0,81,76,1,80
,,,,,,,,,,,,,,,,,,,,,,,,,,,,,,,,,,,,,,,,,s,7.06799984,GRAPES,FALSE,,,,,,,185,ulleres,Catalan,Sounds/cat_ulleres.mp3,2020-06-04_21h35.46.305,TranslationElicitation_eng-prolific,3.2.4,MacIntel,60,5ea21ef214912a12fa60eb5e,,1,0,81,76,1,80
,,,,,,,,,,,,,,,,,,,,,,,,,,,,,,,,,,,,,,,,,return,7.483999968,GRAPES,FALSE,,,,,,,185,ulleres,Catalan,Sounds/cat_ulleres.mp3,2020-06-04_21h35.46.305,TranslationElicitation_eng-prolific,3.2.4,MacIntel,60,5ea21ef214912a12fa60eb5e,7.483999968,1,0,81,76,1,80
,,,,,,,,,,,,,,,,,,,,,,,,,,,,,,,,,,,,,,,,,,,,,,,,,,,185,ulleres,Catalan,Sounds/cat_ulleres.mp3,2020-06-04_21h35.46.305,TranslationElicitation_eng-prolific,3.2.4,MacIntel,60,5ea21ef214912a12fa60eb5e,,1,0,81,76,1,80
,,,,,,,,,,,,,,,,,,,,,,,,,,,,,,,,,,,,,,,,,c,3.532000065,C,FALSE,,,,,,,121,camisa,Catalan,Sounds/cat_camisa.mp3,2020-06-04_21h35.46.305,TranslationElicitation_eng-prolific,3.2.4,MacIntel,60,5ea21ef214912a12fa60eb5e,,1,0,81,16,1,80
,,,,,,,,,,,,,,,,,,,,,,,,,,,,,,,,,,,,,,,,,o,3.75,CO,FALSE,,,,,,,121,camisa,Catalan,Sounds/cat_camisa.mp3,2020-06-04_21h35.46.305,TranslationElicitation_eng-prolific,3.2.4,MacIntel,60,5ea21ef214912a12fa60eb5e,,1,0,81,16,1,80
,,,,,,,,,,,,,,,,,,,,,,,,,,,,,,,,,,,,,,,,,v,4.433000088,COV,FALSE,,,,,,,121,camisa,Catalan,Sounds/cat_camisa.mp3,2020-06-04_21h35.46.305,TranslationElicitation_eng-prolific,3.2.4,MacIntel,60,5ea21ef214912a12fa60eb5e,,1,0,81,16,1,80
,,,,,,,,,,,,,,,,,,,,,,,,,,,,,,,,,,,,,,,,,e,4.549000025,COVE,FALSE,,,,,,,121,camisa,Catalan,Sounds/cat_camisa.mp3,2020-06-04_21h35.46.305,TranslationElicitation_eng-prolific,3.2.4,MacIntel,60,5ea21ef214912a12fa60eb5e,,1,0,81,16,1,80
,,,,,,,,,,,,,,,,,,,,,,,,,,,,,,,,,,,,,,,,,r,4.749000072,COVER,FALSE,,,,,,,121,camisa,Catalan,Sounds/cat_camisa.mp3,2020-06-04_21h35.46.305,TranslationElicitation_eng-prolific,3.2.4,MacIntel,60,5ea21ef214912a12fa60eb5e,,1,0,81,16,1,80
,,,,,,,,,,,,,,,,,,,,,,,,,,,,,,,,,,,,,,,,,return,5.266000032,COVER,FALSE,,,,,,,121,camisa,Catalan,Sounds/cat_camisa.mp3,2020-06-04_21h35.46.305,TranslationElicitation_eng-prolific,3.2.4,MacIntel,60,5ea21ef214912a12fa60eb5e,5.266000032,1,0,81,16,1,80
,,,,,,,,,,,,,,,,,,,,,,,,,,,,,,,,,,,,,,,,,,,,,,,,,,,121,camisa,Catalan,Sounds/cat_camisa.mp3,2020-06-04_21h35.46.305,TranslationElicitation_eng-prolific,3.2.4,MacIntel,60,5ea21ef214912a12fa60eb5e,,1,0,81,16,1,80
,,,,,,,,,,,,,,,,,,,,,,,,,,,,,,,,,,,,,,,,,c,2.582999945,C,FALSE,,,,,,,138,galeta,Catalan,Sounds/cat_galeta.mp3,2020-06-04_21h35.46.305,TranslationElicitation_eng-prolific,3.2.4,MacIntel,60,5ea21ef214912a12fa60eb5e,,1,0,81,32,1,80
,,,,,,,,,,,,,,,,,,,,,,,,,,,,,,,,,,,,,,,,,o,2.983999968,CO,FALSE,,,,,,,138,galeta,Catalan,Sounds/cat_galeta.mp3,2020-06-04_21h35.46.305,TranslationElicitation_eng-prolific,3.2.4,MacIntel,60,5ea21ef214912a12fa60eb5e,,1,0,81,32,1,80
,,,,,,,,,,,,,,,,,,,,,,,,,,,,,,,,,,,,,,,,,l,3.184000015,COL,FALSE,,,,,,,138,galeta,Catalan,Sounds/cat_galeta.mp3,2020-06-04_21h35.46.305,TranslationElicitation_eng-prolific,3.2.4,MacIntel,60,5ea21ef214912a12fa60eb5e,,1,0,81,32,1,80
,,,,,,,,,,,,,,,,,,,,,,,,,,,,,,,,,,,,,,,,,o,4.816999912,COLO,FALSE,,,,,,,138,galeta,Catalan,Sounds/cat_galeta.mp3,2020-06-04_21h35.46.305,TranslationElicitation_eng-prolific,3.2.4,MacIntel,60,5ea21ef214912a12fa60eb5e,,1,0,81,32,1,80
,,,,,,,,,,,,,,,,,,,,,,,,,,,,,,,,,,,,,,,,,r,5.268000126,COLOR,FALSE,,,,,,,138,galeta,Catalan,Sounds/cat_galeta.mp3,2020-06-04_21h35.46.305,TranslationElicitation_eng-prolific,3.2.4,MacIntel,60,5ea21ef214912a12fa60eb5e,,1,0,81,32,1,80
,,,,,,,,,,,,,,,,,,,,,,,,,,,,,,,,,,,,,,,,,s,5.467999935,COLORS,FALSE,,,,,,,138,galeta,Catalan,Sounds/cat_galeta.mp3,2020-06-04_21h35.46.305,TranslationElicitation_eng-prolific,3.2.4,MacIntel,60,5ea21ef214912a12fa60eb5e,,1,0,81,32,1,80
,,,,,,,,,,,,,,,,,,,,,,,,,,,,,,,,,,,,,,,,,return,5.917000055,COLORS,FALSE,,,,,,,138,galeta,Catalan,Sounds/cat_galeta.mp3,2020-06-04_21h35.46.305,TranslationElicitation_eng-prolific,3.2.4,MacIntel,60,5ea21ef214912a12fa60eb5e,5.917000055,1,0,81,32,1,80
,,,,,,,,,,,,,,,,,,,,,,,,,,,,,,,,,,,,,,,,,,,,,,,,,,,138,galeta,Catalan,Sounds/cat_galeta.mp3,2020-06-04_21h35.46.305,TranslationElicitation_eng-prolific,3.2.4,MacIntel,60,5ea21ef214912a12fa60eb5e,,1,0,81,32,1,80
,,,,,,,,,,,,,,,,,,,,,,,,,,,,,,,,,,,,,,,,,f,4.400000095,F,FALSE,,,,,,,104,abella,Catalan,Sounds/cat_abella.mp3,2020-06-04_21h35.46.305,TranslationElicitation_eng-prolific,3.2.4,MacIntel,60,5ea21ef214912a12fa60eb5e,,1,0,81,0,1,80
,,,,,,,,,,,,,,,,,,,,,,,,,,,,,,,,,,,,,,,,,l,4.532999992,FL,FALSE,,,,,,,104,abella,Catalan,Sounds/cat_abella.mp3,2020-06-04_21h35.46.305,TranslationElicitation_eng-prolific,3.2.4,MacIntel,60,5ea21ef214912a12fa60eb5e,,1,0,81,0,1,80
,,,,,,,,,,,,,,,,,,,,,,,,,,,,,,,,,,,,,,,,,o,5,FLO,FALSE,,,,,,,104,abella,Catalan,Sounds/cat_abella.mp3,2020-06-04_21h35.46.305,TranslationElicitation_eng-prolific,3.2.4,MacIntel,60,5ea21ef214912a12fa60eb5e,,1,0,81,0,1,80
,,,,,,,,,,,,,,,,,,,,,,,,,,,,,,,,,,,,,,,,,w,5.351000071,FLOW,FALSE,,,,,,,104,abella,Catalan,Sounds/cat_abella.mp3,2020-06-04_21h35.46.305,TranslationElicitation_eng-prolific,3.2.4,MacIntel,60,5ea21ef214912a12fa60eb5e,,1,0,81,0,1,80
,,,,,,,,,,,,,,,,,,,,,,,,,,,,,,,,,,,,,,,,,e,5.532999992,FLOWE,FALSE,,,,,,,104,abella,Catalan,Sounds/cat_abella.mp3,2020-06-04_21h35.46.305,TranslationElicitation_eng-prolific,3.2.4,MacIntel,60,5ea21ef214912a12fa60eb5e,,1,0,81,0,1,80
,,,,,,,,,,,,,,,,,,,,,,,,,,,,,,,,,,,,,,,,,r,5.684000015,FLOWER,FALSE,,,,,,,104,abella,Catalan,Sounds/cat_abella.mp3,2020-06-04_21h35.46.305,TranslationElicitation_eng-prolific,3.2.4,MacIntel,60,5ea21ef214912a12fa60eb5e,,1,0,81,0,1,80
,,,,,,,,,,,,,,,,,,,,,,,,,,,,,,,,,,,,,,,,,s,5.901000023,FLOWERS,FALSE,,,,,,,104,abella,Catalan,Sounds/cat_abella.mp3,2020-06-04_21h35.46.305,TranslationElicitation_eng-prolific,3.2.4,MacIntel,60,5ea21ef214912a12fa60eb5e,,1,0,81,0,1,80
,,,,,,,,,,,,,,,,,,,,,,,,,,,,,,,,,,,,,,,,,return,6.332999945,FLOWERS,FALSE,,,,,,,104,abella,Catalan,Sounds/cat_abella.mp3,2020-06-04_21h35.46.305,TranslationElicitation_eng-prolific,3.2.4,MacIntel,60,5ea21ef214912a12fa60eb5e,6.332999945,1,0,81,0,1,80
,,,,,,,,,,,,,,,,,,,,,,,,,,,,,,,,,,,,,,,,,,,,,,,,,,,104,abella,Catalan,Sounds/cat_abella.mp3,2020-06-04_21h35.46.305,TranslationElicitation_eng-prolific,3.2.4,MacIntel,60,5ea21ef214912a12fa60eb5e,,1,0,81,0,1,80
,,,,,,,,,,,,,,,,,,,,,,,,,,,,,,,,,,,,,,,,,c,1.582999945,C,FALSE,,,,,,,188,xocolata,Catalan,Sounds/cat_xocolata.mp3,2020-06-04_21h35.46.305,TranslationElicitation_eng-prolific,3.2.4,MacIntel,60,5ea21ef214912a12fa60eb5e,,1,0,81,79,1,80
,,,,,,,,,,,,,,,,,,,,,,,,,,,,,,,,,,,,,,,,,h,1.715999842,CH,FALSE,,,,,,,188,xocolata,Catalan,Sounds/cat_xocolata.mp3,2020-06-04_21h35.46.305,TranslationElicitation_eng-prolific,3.2.4,MacIntel,60,5ea21ef214912a12fa60eb5e,,1,0,81,79,1,80
,,,,,,,,,,,,,,,,,,,,,,,,,,,,,,,,,,,,,,,,,o,1.934000015,CHO,FALSE,,,,,,,188,xocolata,Catalan,Sounds/cat_xocolata.mp3,2020-06-04_21h35.46.305,TranslationElicitation_eng-prolific,3.2.4,MacIntel,60,5ea21ef214912a12fa60eb5e,,1,0,81,79,1,80
,,,,,,,,,,,,,,,,,,,,,,,,,,,,,,,,,,,,,,,,,c,2.099999905,CHOC,FALSE,,,,,,,188,xocolata,Catalan,Sounds/cat_xocolata.mp3,2020-06-04_21h35.46.305,TranslationElicitation_eng-prolific,3.2.4,MacIntel,60,5ea21ef214912a12fa60eb5e,,1,0,81,79,1,80
,,,,,,,,,,,,,,,,,,,,,,,,,,,,,,,,,,,,,,,,,o,2.233999968,CHOCO,FALSE,,,,,,,188,xocolata,Catalan,Sounds/cat_xocolata.mp3,2020-06-04_21h35.46.305,TranslationElicitation_eng-prolific,3.2.4,MacIntel,60,5ea21ef214912a12fa60eb5e,,1,0,81,79,1,80
,,,,,,,,,,,,,,,,,,,,,,,,,,,,,,,,,,,,,,,,,l,2.684000015,CHOCOL,FALSE,,,,,,,188,xocolata,Catalan,Sounds/cat_xocolata.mp3,2020-06-04_21h35.46.305,TranslationElicitation_eng-prolific,3.2.4,MacIntel,60,5ea21ef214912a12fa60eb5e,,1,0,81,79,1,80
,,,,,,,,,,,,,,,,,,,,,,,,,,,,,,,,,,,,,,,,,a,2.899999857,CHOCOLA,FALSE,,,,,,,188,xocolata,Catalan,Sounds/cat_xocolata.mp3,2020-06-04_21h35.46.305,TranslationElicitation_eng-prolific,3.2.4,MacIntel,60,5ea21ef214912a12fa60eb5e,,1,0,81,79,1,80
,,,,,,,,,,,,,,,,,,,,,,,,,,,,,,,,,,,,,,,,,t,3.082999945,CHOCOLAT,FALSE,,,,,,,188,xocolata,Catalan,Sounds/cat_xocolata.mp3,2020-06-04_21h35.46.305,TranslationElicitation_eng-prolific,3.2.4,MacIntel,60,5ea21ef214912a12fa60eb5e,,1,0,81,79,1,80
,,,,,,,,,,,,,,,,,,,,,,,,,,,,,,,,,,,,,,,,,e,3.26699996,CHOCOLATE,FALSE,,,,,,,188,xocolata,Catalan,Sounds/cat_xocolata.mp3,2020-06-04_21h35.46.305,TranslationElicitation_eng-prolific,3.2.4,MacIntel,60,5ea21ef214912a12fa60eb5e,,1,0,81,79,1,80
,,,,,,,,,,,,,,,,,,,,,,,,,,,,,,,,,,,,,,,,,return,3.76699996,CHOCOLATE,FALSE,,,,,,,188,xocolata,Catalan,Sounds/cat_xocolata.mp3,2020-06-04_21h35.46.305,TranslationElicitation_eng-prolific,3.2.4,MacIntel,60,5ea21ef214912a12fa60eb5e,3.76699996,1,0,81,79,1,80
,,,,,,,,,,,,,,,,,,,,,,,,,,,,,,,,,,,,,,,,,,,,,,,,,,,188,xocolata,Catalan,Sounds/cat_xocolata.mp3,2020-06-04_21h35.46.305,TranslationElicitation_eng-prolific,3.2.4,MacIntel,60,5ea21ef214912a12fa60eb5e,,1,0,81,79,1,80
,,,,,,,,,,,,,,,,,,,,,,,,,,,,,,,,,,,,,,,,,g,1.34800005,G,FALSE,,,,,,,146,guitarra,Catalan,Sounds/cat_guitarra.mp3,2020-06-04_21h35.46.305,TranslationElicitation_eng-prolific,3.2.4,MacIntel,60,5ea21ef214912a12fa60eb5e,,1,0,81,40,1,80
,,,,,,,,,,,,,,,,,,,,,,,,,,,,,,,,,,,,,,,,,i,1.680999994,GI,FALSE,,,,,,,146,guitarra,Catalan,Sounds/cat_guitarra.mp3,2020-06-04_21h35.46.305,TranslationElicitation_eng-prolific,3.2.4,MacIntel,60,5ea21ef214912a12fa60eb5e,,1,0,81,40,1,80
,,,,,,,,,,,,,,,,,,,,,,,,,,,,,,,,,,,,,,,,,backspace,2.59800005,G,TRUE,,,,,,,146,guitarra,Catalan,Sounds/cat_guitarra.mp3,2020-06-04_21h35.46.305,TranslationElicitation_eng-prolific,3.2.4,MacIntel,60,5ea21ef214912a12fa60eb5e,,1,0,81,40,1,80
,,,,,,,,,,,,,,,,,,,,,,,,,,,,,,,,,,,,,,,,,u,3.414000034,GU,TRUE,,,,,,,146,guitarra,Catalan,Sounds/cat_guitarra.mp3,2020-06-04_21h35.46.305,TranslationElicitation_eng-prolific,3.2.4,MacIntel,60,5ea21ef214912a12fa60eb5e,,1,0,81,40,1,80
,,,,,,,,,,,,,,,,,,,,,,,,,,,,,,,,,,,,,,,,,i,4.231000185,GUI,TRUE,,,,,,,146,guitarra,Catalan,Sounds/cat_guitarra.mp3,2020-06-04_21h35.46.305,TranslationElicitation_eng-prolific,3.2.4,MacIntel,60,5ea21ef214912a12fa60eb5e,,1,0,81,40,1,80
,,,,,,,,,,,,,,,,,,,,,,,,,,,,,,,,,,,,,,,,,t,4.481000185,GUIT,TRUE,,,,,,,146,guitarra,Catalan,Sounds/cat_guitarra.mp3,2020-06-04_21h35.46.305,TranslationElicitation_eng-prolific,3.2.4,MacIntel,60,5ea21ef214912a12fa60eb5e,,1,0,81,40,1,80
,,,,,,,,,,,,,,,,,,,,,,,,,,,,,,,,,,,,,,,,,a,4.68200016,GUITA,TRUE,,,,,,,146,guitarra,Catalan,Sounds/cat_guitarra.mp3,2020-06-04_21h35.46.305,TranslationElicitation_eng-prolific,3.2.4,MacIntel,60,5ea21ef214912a12fa60eb5e,,1,0,81,40,1,80
,,,,,,,,,,,,,,,,,,,,,,,,,,,,,,,,,,,,,,,,,r,4.765000105,GUITAR,TRUE,,,,,,,146,guitarra,Catalan,Sounds/cat_guitarra.mp3,2020-06-04_21h35.46.305,TranslationElicitation_eng-prolific,3.2.4,MacIntel,60,5ea21ef214912a12fa60eb5e,,1,0,81,40,1,80
,,,,,,,,,,,,,,,,,,,,,,,,,,,,,,,,,,,,,,,,,return,5.498000145,GUITAR,TRUE,,,,,,,146,guitarra,Catalan,Sounds/cat_guitarra.mp3,2020-06-04_21h35.46.305,TranslationElicitation_eng-prolific,3.2.4,MacIntel,60,5ea21ef214912a12fa60eb5e,5.498000145,1,0,81,40,1,80
,,,,,,,,,,,,,,,,,,,,,,,,,,,,,,,,,,,,,,,,,,,,,,,,,,,146,guitarra,Catalan,Sounds/cat_guitarra.mp3,2020-06-04_21h35.46.305,TranslationElicitation_eng-prolific,3.2.4,MacIntel,60,5ea21ef214912a12fa60eb5e,,1,0,81,40,1,80
,,,,,,,,,,,,,,,,,,,,,,,,,,,,,,,,,,,,,,,,,y,4.101000071,Y,FALSE,,,,,,,129,dit,Catalan,Sounds/cat_dit.mp3,2020-06-04_21h35.46.305,TranslationElicitation_eng-prolific,3.2.4,MacIntel,60,5ea21ef214912a12fa60eb5e,,1,0,81,23,1,80
,,,,,,,,,,,,,,,,,,,,,,,,,,,,,,,,,,,,,,,,,e,4.250999928,YE,FALSE,,,,,,,129,dit,Catalan,Sounds/cat_dit.mp3,2020-06-04_21h35.46.305,TranslationElicitation_eng-prolific,3.2.4,MacIntel,60,5ea21ef214912a12fa60eb5e,,1,0,81,23,1,80
,,,,,,,,,,,,,,,,,,,,,,,,,,,,,,,,,,,,,,,,,s,4.601000071,YES,FALSE,,,,,,,129,dit,Catalan,Sounds/cat_dit.mp3,2020-06-04_21h35.46.305,TranslationElicitation_eng-prolific,3.2.4,MacIntel,60,5ea21ef214912a12fa60eb5e,,1,0,81,23,1,80
,,,,,,,,,,,,,,,,,,,,,,,,,,,,,,,,,,,,,,,,,return,5.151000023,YES,FALSE,,,,,,,129,dit,Catalan,Sounds/cat_dit.mp3,2020-06-04_21h35.46.305,TranslationElicitation_eng-prolific,3.2.4,MacIntel,60,5ea21ef214912a12fa60eb5e,5.151000023,1,0,81,23,1,80
,,,,,,,,,,,,,,,,,,,,,,,,,,,,,,,,,,,,,,,,,,,,,,,,,,,129,dit,Catalan,Sounds/cat_dit.mp3,2020-06-04_21h35.46.305,TranslationElicitation_eng-prolific,3.2.4,MacIntel,60,5ea21ef214912a12fa60eb5e,,1,0,81,23,1,80
,,,,,,,,,,,,,,,,,,,,,,,,,,,,,,,,,,,,,,,,,t,3.01699996,T,FALSE,,,,,,,180,tisores,Catalan,Sounds/cat_tisores.mp3,2020-06-04_21h35.46.305,TranslationElicitation_eng-prolific,3.2.4,MacIntel,60,5ea21ef214912a12fa60eb5e,,1,0,81,71,1,80
,,,,,,,,,,,,,,,,,,,,,,,,,,,,,,,,,,,,,,,,,e,3.200000048,TE,FALSE,,,,,,,180,tisores,Catalan,Sounds/cat_tisores.mp3,2020-06-04_21h35.46.305,TranslationElicitation_eng-prolific,3.2.4,MacIntel,60,5ea21ef214912a12fa60eb5e,,1,0,81,71,1,80
,,,,,,,,,,,,,,,,,,,,,,,,,,,,,,,,,,,,,,,,,r,3.399999857,TER,FALSE,,,,,,,180,tisores,Catalan,Sounds/cat_tisores.mp3,2020-06-04_21h35.46.305,TranslationElicitation_eng-prolific,3.2.4,MacIntel,60,5ea21ef214912a12fa60eb5e,,1,0,81,71,1,80
,,,,,,,,,,,,,,,,,,,,,,,,,,,,,,,,,,,,,,,,,r,3.599999905,TERR,FALSE,,,,,,,180,tisores,Catalan,Sounds/cat_tisores.mp3,2020-06-04_21h35.46.305,TranslationElicitation_eng-prolific,3.2.4,MacIntel,60,5ea21ef214912a12fa60eb5e,,1,0,81,71,1,80
,,,,,,,,,,,,,,,,,,,,,,,,,,,,,,,,,,,,,,,,,o,3.633999825,TERRO,FALSE,,,,,,,180,tisores,Catalan,Sounds/cat_tisores.mp3,2020-06-04_21h35.46.305,TranslationElicitation_eng-prolific,3.2.4,MacIntel,60,5ea21ef214912a12fa60eb5e,,1,0,81,71,1,80
,,,,,,,,,,,,,,,,,,,,,,,,,,,,,,,,,,,,,,,,,r,3.750999928,TERROR,FALSE,,,,,,,180,tisores,Catalan,Sounds/cat_tisores.mp3,2020-06-04_21h35.46.305,TranslationElicitation_eng-prolific,3.2.4,MacIntel,60,5ea21ef214912a12fa60eb5e,,1,0,81,71,1,80
,,,,,,,,,,,,,,,,,,,,,,,,,,,,,,,,,,,,,,,,,return,5.5,TERROR,FALSE,,,,,,,180,tisores,Catalan,Sounds/cat_tisores.mp3,2020-06-04_21h35.46.305,TranslationElicitation_eng-prolific,3.2.4,MacIntel,60,5ea21ef214912a12fa60eb5e,5.5,1,0,81,71,1,80
,,,,,,,,,,,,,,,,,,,,,,,,,,,,,,,,,,,,,,,,,,,,,,,,,,,180,tisores,Catalan,Sounds/cat_tisores.mp3,2020-06-04_21h35.46.305,TranslationElicitation_eng-prolific,3.2.4,MacIntel,60,5ea21ef214912a12fa60eb5e,,1,0,81,71,1,80
,,,,,,,,,,,,,,,,,,,,,,,,,,,,,,,,,,,,,,,,,b,3.398999929,B,FALSE,,,,,,,168,planta,Catalan,Sounds/cat_planta.mp3,2020-06-04_21h35.46.305,TranslationElicitation_eng-prolific,3.2.4,MacIntel,60,5ea21ef214912a12fa60eb5e,,1,0,81,60,1,80
,,,,,,,,,,,,,,,,,,,,,,,,,,,,,,,,,,,,,,,,,a,3.766000032,BA,FALSE,,,,,,,168,planta,Catalan,Sounds/cat_planta.mp3,2020-06-04_21h35.46.305,TranslationElicitation_eng-prolific,3.2.4,MacIntel,60,5ea21ef214912a12fa60eb5e,,1,0,81,60,1,80
,,,,,,,,,,,,,,,,,,,,,,,,,,,,,,,,,,,,,,,,,n,3.882999897,BAN,FALSE,,,,,,,168,planta,Catalan,Sounds/cat_planta.mp3,2020-06-04_21h35.46.305,TranslationElicitation_eng-prolific,3.2.4,MacIntel,60,5ea21ef214912a12fa60eb5e,,1,0,81,60,1,80
,,,,,,,,,,,,,,,,,,,,,,,,,,,,,,,,,,,,,,,,,n,4.082999945,BANN,FALSE,,,,,,,168,planta,Catalan,Sounds/cat_planta.mp3,2020-06-04_21h35.46.305,TranslationElicitation_eng-prolific,3.2.4,MacIntel,60,5ea21ef214912a12fa60eb5e,,1,0,81,60,1,80
,,,,,,,,,,,,,,,,,,,,,,,,,,,,,,,,,,,,,,,,,backspace,4.684000015,BAN,TRUE,,,,,,,168,planta,Catalan,Sounds/cat_planta.mp3,2020-06-04_21h35.46.305,TranslationElicitation_eng-prolific,3.2.4,MacIntel,60,5ea21ef214912a12fa60eb5e,,1,0,81,60,1,80
,,,,,,,,,,,,,,,,,,,,,,,,,,,,,,,,,,,,,,,,,a,4.934000015,BANA,TRUE,,,,,,,168,planta,Catalan,Sounds/cat_planta.mp3,2020-06-04_21h35.46.305,TranslationElicitation_eng-prolific,3.2.4,MacIntel,60,5ea21ef214912a12fa60eb5e,,1,0,81,60,1,80
,,,,,,,,,,,,,,,,,,,,,,,,,,,,,,,,,,,,,,,,,n,5.150000095,BANAN,TRUE,,,,,,,168,planta,Catalan,Sounds/cat_planta.mp3,2020-06-04_21h35.46.305,TranslationElicitation_eng-prolific,3.2.4,MacIntel,60,5ea21ef214912a12fa60eb5e,,1,0,81,60,1,80
,,,,,,,,,,,,,,,,,,,,,,,,,,,,,,,,,,,,,,,,,a,5.282999992,BANANA,TRUE,,,,,,,168,planta,Catalan,Sounds/cat_planta.mp3,2020-06-04_21h35.46.305,TranslationElicitation_eng-prolific,3.2.4,MacIntel,60,5ea21ef214912a12fa60eb5e,,1,0,81,60,1,80
,,,,,,,,,,,,,,,,,,,,,,,,,,,,,,,,,,,,,,,,,n,5.401000023,BANANAN,TRUE,,,,,,,168,planta,Catalan,Sounds/cat_planta.mp3,2020-06-04_21h35.46.305,TranslationElicitation_eng-prolific,3.2.4,MacIntel,60,5ea21ef214912a12fa60eb5e,,1,0,81,60,1,80
,,,,,,,,,,,,,,,,,,,,,,,,,,,,,,,,,,,,,,,,,backspace,6.117000103,BANANA,TRUE,,,,,,,168,planta,Catalan,Sounds/cat_planta.mp3,2020-06-04_21h35.46.305,TranslationElicitation_eng-prolific,3.2.4,MacIntel,60,5ea21ef214912a12fa60eb5e,,1,0,81,60,1,80
