consentKey.keys,consentKey.rt,languageL1Key.keys,languageL1Key.rt,languageL2,languageL2OralKey.keys,languageL2OralKey.rt,languageL2WrittenKey.keys,languageL2WrittenKey.rt,languageL3OralKey.keys,languageL3OralKey.rt,languageL3WrittenKey.keys,languageL3WrittenKey.rt,languageCatalanOralKey.keys,languageCatalanOralKey.rt,languageCatalanWrittenKey.keys,languageCatalanWrittenKey.rt,languageCatalanTimeKey.keys,languageCatalanTimeKey.rt,languageSpanishOralKey.keys,languageSpanishOralKey.rt,languageSpanishWrittenKey.keys,languageSpanishWrittenKey.rt,languageSpanishTimeKey.keys,languageSpanishTimeKey.rt,age,demoSexKey.keys,demoSexKey.rt,demoEducationKey.keys,demoEducationKey.rt,city,demoVisionKey.keys,demoVisionKey.rt,demoLanguageKey.keys,demoLanguageKey.rt,setupLocationKey.keys,setupLocationKey.rt,setupNoiseKey.keys,setupNoiseKey.rt,instructionsKeys.keys,instructionsKeys.rt,keyPressed,keyPressTime,inputText,error,trialsPracticeCatalan.thisRepN,trialsPracticeCatalan.thisTrialN,trialsPracticeCatalan.thisN,trialsPracticeCatalan.thisIndex,trialsPracticeCatalan.ran,trialsPracticeCatalan.order,trial_id,word,test_language,soundfile,date,expName,psychopyVersion,OS,frameRate,participant,trialOffset,trialsCatalan.thisRepN,trialsCatalan.thisTrialN,trialsCatalan.thisN,trialsCatalan.thisIndex,trialsCatalan.ran,trialsCatalan.order
space,2.542000055,e,2.414999723,,,,,,,,,,1,8.198999882,1,2.743999958,1,4.93599987,2,4.917000055,1,4.857000113,1,4.610999823,22,f,1.463999987,4,9.148000002,LONDON,y,3.52699995,n,3.532000065,1,2.667000055,1,6.335999966,space,42.62999988,h,4.700000048,H,FALSE,1,0,5,2,1,4,147,jaqueta,Catalan,Sounds/cat_jaqueta.mp3,2020-06-08_18h32.39.926,TranslationElicitation_eng-prolific,3.2.4,MacIntel,60,5ea300a5733c8107ec2478a3,,,,,,,
,,,,,,,,,,,,,,,,,,,,,,,,,,,,,,,,,,,,,,,,,e,4.817000151,HE,FALSE,1,0,5,2,1,4,147,jaqueta,Catalan,Sounds/cat_jaqueta.mp3,2020-06-08_18h32.39.926,TranslationElicitation_eng-prolific,3.2.4,MacIntel,60,5ea300a5733c8107ec2478a3,,,,,,,
,,,,,,,,,,,,,,,,,,,,,,,,,,,,,,,,,,,,,,,,,l,5.23300004,HEL,FALSE,1,0,5,2,1,4,147,jaqueta,Catalan,Sounds/cat_jaqueta.mp3,2020-06-08_18h32.39.926,TranslationElicitation_eng-prolific,3.2.4,MacIntel,60,5ea300a5733c8107ec2478a3,,,,,,,
,,,,,,,,,,,,,,,,,,,,,,,,,,,,,,,,,,,,,,,,,l,5.417000055,HELL,FALSE,1,0,5,2,1,4,147,jaqueta,Catalan,Sounds/cat_jaqueta.mp3,2020-06-08_18h32.39.926,TranslationElicitation_eng-prolific,3.2.4,MacIntel,60,5ea300a5733c8107ec2478a3,,,,,,,
,,,,,,,,,,,,,,,,,,,,,,,,,,,,,,,,,,,,,,,,,o,5.767000198,HELLO,FALSE,1,0,5,2,1,4,147,jaqueta,Catalan,Sounds/cat_jaqueta.mp3,2020-06-08_18h32.39.926,TranslationElicitation_eng-prolific,3.2.4,MacIntel,60,5ea300a5733c8107ec2478a3,,,,,,,
,,,,,,,,,,,,,,,,,,,,,,,,,,,,,,,,,,,,,,,,,space,6.032000065,HELLO ,FALSE,1,0,5,2,1,4,147,jaqueta,Catalan,Sounds/cat_jaqueta.mp3,2020-06-08_18h32.39.926,TranslationElicitation_eng-prolific,3.2.4,MacIntel,60,5ea300a5733c8107ec2478a3,,,,,,,
,,,,,,,,,,,,,,,,,,,,,,,,,,,,,,,,,,,,,,,,,t,6.149000168,HELLO T,FALSE,1,0,5,2,1,4,147,jaqueta,Catalan,Sounds/cat_jaqueta.mp3,2020-06-08_18h32.39.926,TranslationElicitation_eng-prolific,3.2.4,MacIntel,60,5ea300a5733c8107ec2478a3,,,,,,,
,,,,,,,,,,,,,,,,,,,,,,,,,,,,,,,,,,,,,,,,,h,6.25,HELLO TH,FALSE,1,0,5,2,1,4,147,jaqueta,Catalan,Sounds/cat_jaqueta.mp3,2020-06-08_18h32.39.926,TranslationElicitation_eng-prolific,3.2.4,MacIntel,60,5ea300a5733c8107ec2478a3,,,,,,,
,,,,,,,,,,,,,,,,,,,,,,,,,,,,,,,,,,,,,,,,,e,6.401000023,HELLO THE,FALSE,1,0,5,2,1,4,147,jaqueta,Catalan,Sounds/cat_jaqueta.mp3,2020-06-08_18h32.39.926,TranslationElicitation_eng-prolific,3.2.4,MacIntel,60,5ea300a5733c8107ec2478a3,,,,,,,
,,,,,,,,,,,,,,,,,,,,,,,,,,,,,,,,,,,,,,,,,r,6.48300004,HELLO THER,FALSE,1,0,5,2,1,4,147,jaqueta,Catalan,Sounds/cat_jaqueta.mp3,2020-06-08_18h32.39.926,TranslationElicitation_eng-prolific,3.2.4,MacIntel,60,5ea300a5733c8107ec2478a3,,,,,,,
,,,,,,,,,,,,,,,,,,,,,,,,,,,,,,,,,,,,,,,,,e,6.650000095,HELLO THERE,FALSE,1,0,5,2,1,4,147,jaqueta,Catalan,Sounds/cat_jaqueta.mp3,2020-06-08_18h32.39.926,TranslationElicitation_eng-prolific,3.2.4,MacIntel,60,5ea300a5733c8107ec2478a3,,,,,,,
,,,,,,,,,,,,,,,,,,,,,,,,,,,,,,,,,,,,,,,,,return,7.332000017,HELLO THERE,FALSE,1,0,5,2,1,4,147,jaqueta,Catalan,Sounds/cat_jaqueta.mp3,2020-06-08_18h32.39.926,TranslationElicitation_eng-prolific,3.2.4,MacIntel,60,5ea300a5733c8107ec2478a3,7.332000017,,,,,,
,,,,,,,,,,,,,,,,,,,,,,,,,,,,,,,,,,,,,,,,,,,,,1,0,5,2,1,4,147,jaqueta,Catalan,Sounds/cat_jaqueta.mp3,2020-06-08_18h32.39.926,TranslationElicitation_eng-prolific,3.2.4,MacIntel,60,5ea300a5733c8107ec2478a3,,,,,,,
,,,,,,,,,,,,,,,,,,,,,,,,,,,,,,,,,,,,,,,,,o,3.78399992,O,FALSE,1,0,5,3,1,4,159,onada,Catalan,Sounds/cat_onada.mp3,2020-06-08_18h32.39.926,TranslationElicitation_eng-prolific,3.2.4,MacIntel,60,5ea300a5733c8107ec2478a3,,,,,,,
,,,,,,,,,,,,,,,,,,,,,,,,,,,,,,,,,,,,,,,,,n,3.865999937,ON,FALSE,1,0,5,3,1,4,159,onada,Catalan,Sounds/cat_onada.mp3,2020-06-08_18h32.39.926,TranslationElicitation_eng-prolific,3.2.4,MacIntel,60,5ea300a5733c8107ec2478a3,,,,,,,
,,,,,,,,,,,,,,,,,,,,,,,,,,,,,,,,,,,,,,,,,e,3.915999889,ONE,FALSE,1,0,5,3,1,4,159,onada,Catalan,Sounds/cat_onada.mp3,2020-06-08_18h32.39.926,TranslationElicitation_eng-prolific,3.2.4,MacIntel,60,5ea300a5733c8107ec2478a3,,,,,,,
,,,,,,,,,,,,,,,,,,,,,,,,,,,,,,,,,,,,,,,,,space,4.049999952,ONE ,FALSE,1,0,5,3,1,4,159,onada,Catalan,Sounds/cat_onada.mp3,2020-06-08_18h32.39.926,TranslationElicitation_eng-prolific,3.2.4,MacIntel,60,5ea300a5733c8107ec2478a3,,,,,,,
,,,,,,,,,,,,,,,,,,,,,,,,,,,,,,,,,,,,,,,,,m,4.316999912,ONE M,FALSE,1,0,5,3,1,4,159,onada,Catalan,Sounds/cat_onada.mp3,2020-06-08_18h32.39.926,TranslationElicitation_eng-prolific,3.2.4,MacIntel,60,5ea300a5733c8107ec2478a3,,,,,,,
,,,,,,,,,,,,,,,,,,,,,,,,,,,,,,,,,,,,,,,,,o,4.500999928,ONE MO,FALSE,1,0,5,3,1,4,159,onada,Catalan,Sounds/cat_onada.mp3,2020-06-08_18h32.39.926,TranslationElicitation_eng-prolific,3.2.4,MacIntel,60,5ea300a5733c8107ec2478a3,,,,,,,
,,,,,,,,,,,,,,,,,,,,,,,,,,,,,,,,,,,,,,,,,r,4.599999905,ONE MOR,FALSE,1,0,5,3,1,4,159,onada,Catalan,Sounds/cat_onada.mp3,2020-06-08_18h32.39.926,TranslationElicitation_eng-prolific,3.2.4,MacIntel,60,5ea300a5733c8107ec2478a3,,,,,,,
,,,,,,,,,,,,,,,,,,,,,,,,,,,,,,,,,,,,,,,,,e,4.700999975,ONE MORE,FALSE,1,0,5,3,1,4,159,onada,Catalan,Sounds/cat_onada.mp3,2020-06-08_18h32.39.926,TranslationElicitation_eng-prolific,3.2.4,MacIntel,60,5ea300a5733c8107ec2478a3,,,,,,,
,,,,,,,,,,,,,,,,,,,,,,,,,,,,,,,,,,,,,,,,,return,5.698999882,ONE MORE,FALSE,1,0,5,3,1,4,159,onada,Catalan,Sounds/cat_onada.mp3,2020-06-08_18h32.39.926,TranslationElicitation_eng-prolific,3.2.4,MacIntel,60,5ea300a5733c8107ec2478a3,5.698999882,,,,,,
,,,,,,,,,,,,,,,,,,,,,,,,,,,,,,,,,,,,,,,,,,,,,1,0,5,3,1,4,159,onada,Catalan,Sounds/cat_onada.mp3,2020-06-08_18h32.39.926,TranslationElicitation_eng-prolific,3.2.4,MacIntel,60,5ea300a5733c8107ec2478a3,,,,,,,
,,,,,,,,,,,,,,,,,,,,,,,,,,,,,,,,,,,,,,,,,g,3.747999907,G,FALSE,1,0,5,0,1,4,109,arbre,Catalan,Sounds/cat_arbre.mp3,2020-06-08_18h32.39.926,TranslationElicitation_eng-prolific,3.2.4,MacIntel,60,5ea300a5733c8107ec2478a3,,,,,,,
,,,,,,,,,,,,,,,,,,,,,,,,,,,,,,,,,,,,,,,,,o,3.916000128,GO,FALSE,1,0,5,0,1,4,109,arbre,Catalan,Sounds/cat_arbre.mp3,2020-06-08_18h32.39.926,TranslationElicitation_eng-prolific,3.2.4,MacIntel,60,5ea300a5733c8107ec2478a3,,,,,,,
,,,,,,,,,,,,,,,,,,,,,,,,,,,,,,,,,,,,,,,,,d,4.214999914,GOD,FALSE,1,0,5,0,1,4,109,arbre,Catalan,Sounds/cat_arbre.mp3,2020-06-08_18h32.39.926,TranslationElicitation_eng-prolific,3.2.4,MacIntel,60,5ea300a5733c8107ec2478a3,,,,,,,
,,,,,,,,,,,,,,,,,,,,,,,,,,,,,,,,,,,,,,,,,backspace,5.232000113,GO,TRUE,1,0,5,0,1,4,109,arbre,Catalan,Sounds/cat_arbre.mp3,2020-06-08_18h32.39.926,TranslationElicitation_eng-prolific,3.2.4,MacIntel,60,5ea300a5733c8107ec2478a3,,,,,,,
,,,,,,,,,,,,,,,,,,,,,,,,,,,,,,,,,,,,,,,,,o,5.69900012,GOO,TRUE,1,0,5,0,1,4,109,arbre,Catalan,Sounds/cat_arbre.mp3,2020-06-08_18h32.39.926,TranslationElicitation_eng-prolific,3.2.4,MacIntel,60,5ea300a5733c8107ec2478a3,,,,,,,
,,,,,,,,,,,,,,,,,,,,,,,,,,,,,,,,,,,,,,,,,d,5.815999985,GOOD,TRUE,1,0,5,0,1,4,109,arbre,Catalan,Sounds/cat_arbre.mp3,2020-06-08_18h32.39.926,TranslationElicitation_eng-prolific,3.2.4,MacIntel,60,5ea300a5733c8107ec2478a3,,,,,,,
,,,,,,,,,,,,,,,,,,,,,,,,,,,,,,,,,,,,,,,,,space,5.933000088,GOOD ,TRUE,1,0,5,0,1,4,109,arbre,Catalan,Sounds/cat_arbre.mp3,2020-06-08_18h32.39.926,TranslationElicitation_eng-prolific,3.2.4,MacIntel,60,5ea300a5733c8107ec2478a3,,,,,,,
,,,,,,,,,,,,,,,,,,,,,,,,,,,,,,,,,,,,,,,,,d,6.065000057,GOOD D,TRUE,1,0,5,0,1,4,109,arbre,Catalan,Sounds/cat_arbre.mp3,2020-06-08_18h32.39.926,TranslationElicitation_eng-prolific,3.2.4,MacIntel,60,5ea300a5733c8107ec2478a3,,,,,,,
,,,,,,,,,,,,,,,,,,,,,,,,,,,,,,,,,,,,,,,,,a,6.282000065,GOOD DA,TRUE,1,0,5,0,1,4,109,arbre,Catalan,Sounds/cat_arbre.mp3,2020-06-08_18h32.39.926,TranslationElicitation_eng-prolific,3.2.4,MacIntel,60,5ea300a5733c8107ec2478a3,,,,,,,
,,,,,,,,,,,,,,,,,,,,,,,,,,,,,,,,,,,,,,,,,y,6.416000128,GOOD DAY,TRUE,1,0,5,0,1,4,109,arbre,Catalan,Sounds/cat_arbre.mp3,2020-06-08_18h32.39.926,TranslationElicitation_eng-prolific,3.2.4,MacIntel,60,5ea300a5733c8107ec2478a3,,,,,,,
,,,,,,,,,,,,,,,,,,,,,,,,,,,,,,,,,,,,,,,,,return,6.883000135,GOOD DAY,TRUE,1,0,5,0,1,4,109,arbre,Catalan,Sounds/cat_arbre.mp3,2020-06-08_18h32.39.926,TranslationElicitation_eng-prolific,3.2.4,MacIntel,60,5ea300a5733c8107ec2478a3,6.883000135,,,,,,
,,,,,,,,,,,,,,,,,,,,,,,,,,,,,,,,,,,,,,,,,,,,,1,0,5,0,1,4,109,arbre,Catalan,Sounds/cat_arbre.mp3,2020-06-08_18h32.39.926,TranslationElicitation_eng-prolific,3.2.4,MacIntel,60,5ea300a5733c8107ec2478a3,,,,,,,
,,,,,,,,,,,,,,,,,,,,,,,,,,,,,,,,,,,,,,,,,b,3.149999857,B,FALSE,1,0,5,1,1,4,126,corona,Catalan,Sounds/cat_corona.mp3,2020-06-08_18h32.39.926,TranslationElicitation_eng-prolific,3.2.4,MacIntel,60,5ea300a5733c8107ec2478a3,,,,,,,
,,,,,,,,,,,,,,,,,,,,,,,,,,,,,,,,,,,,,,,,,e,3.681999922,BE,FALSE,1,0,5,1,1,4,126,corona,Catalan,Sounds/cat_corona.mp3,2020-06-08_18h32.39.926,TranslationElicitation_eng-prolific,3.2.4,MacIntel,60,5ea300a5733c8107ec2478a3,,,,,,,
,,,,,,,,,,,,,,,,,,,,,,,,,,,,,,,,,,,,,,,,,e,3.848999977,BEE,FALSE,1,0,5,1,1,4,126,corona,Catalan,Sounds/cat_corona.mp3,2020-06-08_18h32.39.926,TranslationElicitation_eng-prolific,3.2.4,MacIntel,60,5ea300a5733c8107ec2478a3,,,,,,,
,,,,,,,,,,,,,,,,,,,,,,,,,,,,,,,,,,,,,,,,,r,4.016000032,BEER,FALSE,1,0,5,1,1,4,126,corona,Catalan,Sounds/cat_corona.mp3,2020-06-08_18h32.39.926,TranslationElicitation_eng-prolific,3.2.4,MacIntel,60,5ea300a5733c8107ec2478a3,,,,,,,
,,,,,,,,,,,,,,,,,,,,,,,,,,,,,,,,,,,,,,,,,return,4.749000072,BEER,FALSE,1,0,5,1,1,4,126,corona,Catalan,Sounds/cat_corona.mp3,2020-06-08_18h32.39.926,TranslationElicitation_eng-prolific,3.2.4,MacIntel,60,5ea300a5733c8107ec2478a3,4.749000072,,,,,,
,,,,,,,,,,,,,,,,,,,,,,,,,,,,,,,,,,,,,,,,,,,,,1,0,5,1,1,4,126,corona,Catalan,Sounds/cat_corona.mp3,2020-06-08_18h32.39.926,TranslationElicitation_eng-prolific,3.2.4,MacIntel,60,5ea300a5733c8107ec2478a3,,,,,,,
,,,,,,,,,,,,,,,,,,,,,,,,,,,,,,,,,,,,,,,,,t,3.616999865,T,FALSE,1,0,5,4,1,4,179,tigre,Catalan,Sounds/cat_tigre.mp3,2020-06-08_18h32.39.926,TranslationElicitation_eng-prolific,3.2.4,MacIntel,60,5ea300a5733c8107ec2478a3,,,,,,,
,,,,,,,,,,,,,,,,,,,,,,,,,,,,,,,,,,,,,,,,,e,3.766000032,TE,FALSE,1,0,5,4,1,4,179,tigre,Catalan,Sounds/cat_tigre.mp3,2020-06-08_18h32.39.926,TranslationElicitation_eng-prolific,3.2.4,MacIntel,60,5ea300a5733c8107ec2478a3,,,,,,,
,,,,,,,,,,,,,,,,,,,,,,,,,,,,,,,,,,,,,,,,,a,4.649999857,TEA,FALSE,1,0,5,4,1,4,179,tigre,Catalan,Sounds/cat_tigre.mp3,2020-06-08_18h32.39.926,TranslationElicitation_eng-prolific,3.2.4,MacIntel,60,5ea300a5733c8107ec2478a3,,,,,,,
,,,,,,,,,,,,,,,,,,,,,,,,,,,,,,,,,,,,,,,,,return,4.766000032,TEA,FALSE,1,0,5,4,1,4,179,tigre,Catalan,Sounds/cat_tigre.mp3,2020-06-08_18h32.39.926,TranslationElicitation_eng-prolific,3.2.4,MacIntel,60,5ea300a5733c8107ec2478a3,4.766000032,,,,,,
,,,,,,,,,,,,,,,,,,,,,,,,,,,,,,,,,,,,,,,,,,,,,1,0,5,4,1,4,179,tigre,Catalan,Sounds/cat_tigre.mp3,2020-06-08_18h32.39.926,TranslationElicitation_eng-prolific,3.2.4,MacIntel,60,5ea300a5733c8107ec2478a3,,,,,,,
,,,,,,,,,,,,,,,,,,,,,,,,,,,,,,,,,,,,,,,,,h,2.667000055,H,FALSE,,,,,,,122,casa,Catalan,Sounds/cat_casa.mp3,2020-06-08_18h32.39.926,TranslationElicitation_eng-prolific,3.2.4,MacIntel,60,5ea300a5733c8107ec2478a3,,1,0,81,17,1,80
,,,,,,,,,,,,,,,,,,,,,,,,,,,,,,,,,,,,,,,,,o,2.917999983,HO,FALSE,,,,,,,122,casa,Catalan,Sounds/cat_casa.mp3,2020-06-08_18h32.39.926,TranslationElicitation_eng-prolific,3.2.4,MacIntel,60,5ea300a5733c8107ec2478a3,,1,0,81,17,1,80
,,,,,,,,,,,,,,,,,,,,,,,,,,,,,,,,,,,,,,,,,u,3.101999998,HOU,FALSE,,,,,,,122,casa,Catalan,Sounds/cat_casa.mp3,2020-06-08_18h32.39.926,TranslationElicitation_eng-prolific,3.2.4,MacIntel,60,5ea300a5733c8107ec2478a3,,1,0,81,17,1,80
,,,,,,,,,,,,,,,,,,,,,,,,,,,,,,,,,,,,,,,,,s,3.217999935,HOUS,FALSE,,,,,,,122,casa,Catalan,Sounds/cat_casa.mp3,2020-06-08_18h32.39.926,TranslationElicitation_eng-prolific,3.2.4,MacIntel,60,5ea300a5733c8107ec2478a3,,1,0,81,17,1,80
,,,,,,,,,,,,,,,,,,,,,,,,,,,,,,,,,,,,,,,,,e,3.30099988,HOUSE,FALSE,,,,,,,122,casa,Catalan,Sounds/cat_casa.mp3,2020-06-08_18h32.39.926,TranslationElicitation_eng-prolific,3.2.4,MacIntel,60,5ea300a5733c8107ec2478a3,,1,0,81,17,1,80
,,,,,,,,,,,,,,,,,,,,,,,,,,,,,,,,,,,,,,,,,return,3.500999928,HOUSE,FALSE,,,,,,,122,casa,Catalan,Sounds/cat_casa.mp3,2020-06-08_18h32.39.926,TranslationElicitation_eng-prolific,3.2.4,MacIntel,60,5ea300a5733c8107ec2478a3,3.500999928,1,0,81,17,1,80
,,,,,,,,,,,,,,,,,,,,,,,,,,,,,,,,,,,,,,,,,,,,,,,,,,,122,casa,Catalan,Sounds/cat_casa.mp3,2020-06-08_18h32.39.926,TranslationElicitation_eng-prolific,3.2.4,MacIntel,60,5ea300a5733c8107ec2478a3,,1,0,81,17,1,80
,,,,,,,,,,,,,,,,,,,,,,,,,,,,,,,,,,,,,,,,,c,3.233999968,C,FALSE,,,,,,,171,pollastre,Catalan,Sounds/cat_pollastre.mp3,2020-06-08_18h32.39.926,TranslationElicitation_eng-prolific,3.2.4,MacIntel,60,5ea300a5733c8107ec2478a3,,1,0,81,63,1,80
,,,,,,,,,,,,,,,,,,,,,,,,,,,,,,,,,,,,,,,,,a,3.400000095,CA,FALSE,,,,,,,171,pollastre,Catalan,Sounds/cat_pollastre.mp3,2020-06-08_18h32.39.926,TranslationElicitation_eng-prolific,3.2.4,MacIntel,60,5ea300a5733c8107ec2478a3,,1,0,81,63,1,80
,,,,,,,,,,,,,,,,,,,,,,,,,,,,,,,,,,,,,,,,,return,3.848999977,CA,FALSE,,,,,,,171,pollastre,Catalan,Sounds/cat_pollastre.mp3,2020-06-08_18h32.39.926,TranslationElicitation_eng-prolific,3.2.4,MacIntel,60,5ea300a5733c8107ec2478a3,3.848999977,1,0,81,63,1,80
,,,,,,,,,,,,,,,,,,,,,,,,,,,,,,,,,,,,,,,,,,,,,,,,,,,171,pollastre,Catalan,Sounds/cat_pollastre.mp3,2020-06-08_18h32.39.926,TranslationElicitation_eng-prolific,3.2.4,MacIntel,60,5ea300a5733c8107ec2478a3,,1,0,81,63,1,80
,,,,,,,,,,,,,,,,,,,,,,,,,,,,,,,,,,,,,,,,,m,2.299999952,M,FALSE,,,,,,,154,mirall,Catalan,Sounds/cat_mirall.mp3,2020-06-08_18h32.39.926,TranslationElicitation_eng-prolific,3.2.4,MacIntel,60,5ea300a5733c8107ec2478a3,,1,0,81,47,1,80
,,,,,,,,,,,,,,,,,,,,,,,,,,,,,,,,,,,,,,,,,i,2.549999952,MI,FALSE,,,,,,,154,mirall,Catalan,Sounds/cat_mirall.mp3,2020-06-08_18h32.39.926,TranslationElicitation_eng-prolific,3.2.4,MacIntel,60,5ea300a5733c8107ec2478a3,,1,0,81,47,1,80
,,,,,,,,,,,,,,,,,,,,,,,,,,,,,,,,,,,,,,,,,r,2.649999857,MIR,FALSE,,,,,,,154,mirall,Catalan,Sounds/cat_mirall.mp3,2020-06-08_18h32.39.926,TranslationElicitation_eng-prolific,3.2.4,MacIntel,60,5ea300a5733c8107ec2478a3,,1,0,81,47,1,80
,,,,,,,,,,,,,,,,,,,,,,,,,,,,,,,,,,,,,,,,,r,2.784999847,MIRR,FALSE,,,,,,,154,mirall,Catalan,Sounds/cat_mirall.mp3,2020-06-08_18h32.39.926,TranslationElicitation_eng-prolific,3.2.4,MacIntel,60,5ea300a5733c8107ec2478a3,,1,0,81,47,1,80
,,,,,,,,,,,,,,,,,,,,,,,,,,,,,,,,,,,,,,,,,o,2.88499999,MIRRO,FALSE,,,,,,,154,mirall,Catalan,Sounds/cat_mirall.mp3,2020-06-08_18h32.39.926,TranslationElicitation_eng-prolific,3.2.4,MacIntel,60,5ea300a5733c8107ec2478a3,,1,0,81,47,1,80
,,,,,,,,,,,,,,,,,,,,,,,,,,,,,,,,,,,,,,,,,r,2.982999802,MIRROR,FALSE,,,,,,,154,mirall,Catalan,Sounds/cat_mirall.mp3,2020-06-08_18h32.39.926,TranslationElicitation_eng-prolific,3.2.4,MacIntel,60,5ea300a5733c8107ec2478a3,,1,0,81,47,1,80
,,,,,,,,,,,,,,,,,,,,,,,,,,,,,,,,,,,,,,,,,return,3.549999952,MIRROR,FALSE,,,,,,,154,mirall,Catalan,Sounds/cat_mirall.mp3,2020-06-08_18h32.39.926,TranslationElicitation_eng-prolific,3.2.4,MacIntel,60,5ea300a5733c8107ec2478a3,3.549999952,1,0,81,47,1,80
,,,,,,,,,,,,,,,,,,,,,,,,,,,,,,,,,,,,,,,,,,,,,,,,,,,154,mirall,Catalan,Sounds/cat_mirall.mp3,2020-06-08_18h32.39.926,TranslationElicitation_eng-prolific,3.2.4,MacIntel,60,5ea300a5733c8107ec2478a3,,1,0,81,47,1,80
,,,,,,,,,,,,,,,,,,,,,,,,,,,,,,,,,,,,,,,,,e,2,E,FALSE,,,,,,,141,gerd,Catalan,Sounds/cat_gerd.mp3,2020-06-08_18h32.39.926,TranslationElicitation_eng-prolific,3.2.4,MacIntel,60,5ea300a5733c8107ec2478a3,,1,0,81,35,1,80
,,,,,,,,,,,,,,,,,,,,,,,,,,,,,,,,,,,,,,,,,backspace,2.733999968,,TRUE,,,,,,,141,gerd,Catalan,Sounds/cat_gerd.mp3,2020-06-08_18h32.39.926,TranslationElicitation_eng-prolific,3.2.4,MacIntel,60,5ea300a5733c8107ec2478a3,,1,0,81,35,1,80
,,,,,,,,,,,,,,,,,,,,,,,,,,,,,,,,,,,,,,,,,y,3.184000015,Y,TRUE,,,,,,,141,gerd,Catalan,Sounds/cat_gerd.mp3,2020-06-08_18h32.39.926,TranslationElicitation_eng-prolific,3.2.4,MacIntel,60,5ea300a5733c8107ec2478a3,,1,0,81,35,1,80
,,,,,,,,,,,,,,,,,,,,,,,,,,,,,,,,,,,,,,,,,e,3.299999952,YE,TRUE,,,,,,,141,gerd,Catalan,Sounds/cat_gerd.mp3,2020-06-08_18h32.39.926,TranslationElicitation_eng-prolific,3.2.4,MacIntel,60,5ea300a5733c8107ec2478a3,,1,0,81,35,1,80
,,,,,,,,,,,,,,,,,,,,,,,,,,,,,,,,,,,,,,,,,s,3.483999968,YES,TRUE,,,,,,,141,gerd,Catalan,Sounds/cat_gerd.mp3,2020-06-08_18h32.39.926,TranslationElicitation_eng-prolific,3.2.4,MacIntel,60,5ea300a5733c8107ec2478a3,,1,0,81,35,1,80
,,,,,,,,,,,,,,,,,,,,,,,,,,,,,,,,,,,,,,,,,return,3.73300004,YES,TRUE,,,,,,,141,gerd,Catalan,Sounds/cat_gerd.mp3,2020-06-08_18h32.39.926,TranslationElicitation_eng-prolific,3.2.4,MacIntel,60,5ea300a5733c8107ec2478a3,3.73300004,1,0,81,35,1,80
,,,,,,,,,,,,,,,,,,,,,,,,,,,,,,,,,,,,,,,,,,,,,,,,,,,141,gerd,Catalan,Sounds/cat_gerd.mp3,2020-06-08_18h32.39.926,TranslationElicitation_eng-prolific,3.2.4,MacIntel,60,5ea300a5733c8107ec2478a3,,1,0,81,35,1,80
,,,,,,,,,,,,,,,,,,,,,,,,,,,,,,,,,,,,,,,,,m,3.332000017,M,FALSE,,,,,,,153,mico,Catalan,Sounds/cat_mico.mp3,2020-06-08_18h32.39.926,TranslationElicitation_eng-prolific,3.2.4,MacIntel,60,5ea300a5733c8107ec2478a3,,1,0,81,46,1,80
,,,,,,,,,,,,,,,,,,,,,,,,,,,,,,,,,,,,,,,,,o,3.465000153,MO,FALSE,,,,,,,153,mico,Catalan,Sounds/cat_mico.mp3,2020-06-08_18h32.39.926,TranslationElicitation_eng-prolific,3.2.4,MacIntel,60,5ea300a5733c8107ec2478a3,,1,0,81,46,1,80
,,,,,,,,,,,,,,,,,,,,,,,,,,,,,,,,,,,,,,,,,t,3.567000151,MOT,FALSE,,,,,,,153,mico,Catalan,Sounds/cat_mico.mp3,2020-06-08_18h32.39.926,TranslationElicitation_eng-prolific,3.2.4,MacIntel,60,5ea300a5733c8107ec2478a3,,1,0,81,46,1,80
,,,,,,,,,,,,,,,,,,,,,,,,,,,,,,,,,,,,,,,,,h,3.650000095,MOTH,FALSE,,,,,,,153,mico,Catalan,Sounds/cat_mico.mp3,2020-06-08_18h32.39.926,TranslationElicitation_eng-prolific,3.2.4,MacIntel,60,5ea300a5733c8107ec2478a3,,1,0,81,46,1,80
,,,,,,,,,,,,,,,,,,,,,,,,,,,,,,,,,,,,,,,,,e,3.815000057,MOTHE,FALSE,,,,,,,153,mico,Catalan,Sounds/cat_mico.mp3,2020-06-08_18h32.39.926,TranslationElicitation_eng-prolific,3.2.4,MacIntel,60,5ea300a5733c8107ec2478a3,,1,0,81,46,1,80
,,,,,,,,,,,,,,,,,,,,,,,,,,,,,,,,,,,,,,,,,r,3.898000002,MOTHER,FALSE,,,,,,,153,mico,Catalan,Sounds/cat_mico.mp3,2020-06-08_18h32.39.926,TranslationElicitation_eng-prolific,3.2.4,MacIntel,60,5ea300a5733c8107ec2478a3,,1,0,81,46,1,80
,,,,,,,,,,,,,,,,,,,,,,,,,,,,,,,,,,,,,,,,,return,4.198000193,MOTHER,FALSE,,,,,,,153,mico,Catalan,Sounds/cat_mico.mp3,2020-06-08_18h32.39.926,TranslationElicitation_eng-prolific,3.2.4,MacIntel,60,5ea300a5733c8107ec2478a3,4.198000193,1,0,81,46,1,80
,,,,,,,,,,,,,,,,,,,,,,,,,,,,,,,,,,,,,,,,,,,,,,,,,,,153,mico,Catalan,Sounds/cat_mico.mp3,2020-06-08_18h32.39.926,TranslationElicitation_eng-prolific,3.2.4,MacIntel,60,5ea300a5733c8107ec2478a3,,1,0,81,46,1,80
,,,,,,,,,,,,,,,,,,,,,,,,,,,,,,,,,,,,,,,,,c,2.368999958,C,FALSE,,,,,,,138,galeta,Catalan,Sounds/cat_galeta.mp3,2020-06-08_18h32.39.926,TranslationElicitation_eng-prolific,3.2.4,MacIntel,60,5ea300a5733c8107ec2478a3,,1,0,81,32,1,80
,,,,,,,,,,,,,,,,,,,,,,,,,,,,,,,,,,,,,,,,,o,2.501999855,CO,FALSE,,,,,,,138,galeta,Catalan,Sounds/cat_galeta.mp3,2020-06-08_18h32.39.926,TranslationElicitation_eng-prolific,3.2.4,MacIntel,60,5ea300a5733c8107ec2478a3,,1,0,81,32,1,80
,,,,,,,,,,,,,,,,,,,,,,,,,,,,,,,,,,,,,,,,,l,2.717999935,COL,FALSE,,,,,,,138,galeta,Catalan,Sounds/cat_galeta.mp3,2020-06-08_18h32.39.926,TranslationElicitation_eng-prolific,3.2.4,MacIntel,60,5ea300a5733c8107ec2478a3,,1,0,81,32,1,80
,,,,,,,,,,,,,,,,,,,,,,,,,,,,,,,,,,,,,,,,,l,2.851999998,COLL,FALSE,,,,,,,138,galeta,Catalan,Sounds/cat_galeta.mp3,2020-06-08_18h32.39.926,TranslationElicitation_eng-prolific,3.2.4,MacIntel,60,5ea300a5733c8107ec2478a3,,1,0,81,32,1,80
,,,,,,,,,,,,,,,,,,,,,,,,,,,,,,,,,,,,,,,,,e,2.934999943,COLLE,FALSE,,,,,,,138,galeta,Catalan,Sounds/cat_galeta.mp3,2020-06-08_18h32.39.926,TranslationElicitation_eng-prolific,3.2.4,MacIntel,60,5ea300a5733c8107ec2478a3,,1,0,81,32,1,80
,,,,,,,,,,,,,,,,,,,,,,,,,,,,,,,,,,,,,,,,,c,3.151000023,COLLEC,FALSE,,,,,,,138,galeta,Catalan,Sounds/cat_galeta.mp3,2020-06-08_18h32.39.926,TranslationElicitation_eng-prolific,3.2.4,MacIntel,60,5ea300a5733c8107ec2478a3,,1,0,81,32,1,80
,,,,,,,,,,,,,,,,,,,,,,,,,,,,,,,,,,,,,,,,,t,3.401000023,COLLECT,FALSE,,,,,,,138,galeta,Catalan,Sounds/cat_galeta.mp3,2020-06-08_18h32.39.926,TranslationElicitation_eng-prolific,3.2.4,MacIntel,60,5ea300a5733c8107ec2478a3,,1,0,81,32,1,80
,,,,,,,,,,,,,,,,,,,,,,,,,,,,,,,,,,,,,,,,,return,3.601999998,COLLECT,FALSE,,,,,,,138,galeta,Catalan,Sounds/cat_galeta.mp3,2020-06-08_18h32.39.926,TranslationElicitation_eng-prolific,3.2.4,MacIntel,60,5ea300a5733c8107ec2478a3,3.601999998,1,0,81,32,1,80
,,,,,,,,,,,,,,,,,,,,,,,,,,,,,,,,,,,,,,,,,,,,,,,,,,,138,galeta,Catalan,Sounds/cat_galeta.mp3,2020-06-08_18h32.39.926,TranslationElicitation_eng-prolific,3.2.4,MacIntel,60,5ea300a5733c8107ec2478a3,,1,0,81,32,1,80
,,,,,,,,,,,,,,,,,,,,,,,,,,,,,,,,,,,,,,,,,b,1.551000118,B,FALSE,,,,,,,117,boto,Catalan,Sounds/cat_boto.mp3,2020-06-08_18h32.39.926,TranslationElicitation_eng-prolific,3.2.4,MacIntel,60,5ea300a5733c8107ec2478a3,,1,0,81,12,1,80
,,,,,,,,,,,,,,,,,,,,,,,,,,,,,,,,,,,,,,,,,o,1.684000015,BO,FALSE,,,,,,,117,boto,Catalan,Sounds/cat_boto.mp3,2020-06-08_18h32.39.926,TranslationElicitation_eng-prolific,3.2.4,MacIntel,60,5ea300a5733c8107ec2478a3,,1,0,81,12,1,80
,,,,,,,,,,,,,,,,,,,,,,,,,,,,,,,,,,,,,,,,,t,1.817000151,BOT,FALSE,,,,,,,117,boto,Catalan,Sounds/cat_boto.mp3,2020-06-08_18h32.39.926,TranslationElicitation_eng-prolific,3.2.4,MacIntel,60,5ea300a5733c8107ec2478a3,,1,0,81,12,1,80
,,,,,,,,,,,,,,,,,,,,,,,,,,,,,,,,,,,,,,,,,t,1.950000048,BOTT,FALSE,,,,,,,117,boto,Catalan,Sounds/cat_boto.mp3,2020-06-08_18h32.39.926,TranslationElicitation_eng-prolific,3.2.4,MacIntel,60,5ea300a5733c8107ec2478a3,,1,0,81,12,1,80
,,,,,,,,,,,,,,,,,,,,,,,,,,,,,,,,,,,,,,,,,l,2.018000126,BOTTL,FALSE,,,,,,,117,boto,Catalan,Sounds/cat_boto.mp3,2020-06-08_18h32.39.926,TranslationElicitation_eng-prolific,3.2.4,MacIntel,60,5ea300a5733c8107ec2478a3,,1,0,81,12,1,80
,,,,,,,,,,,,,,,,,,,,,,,,,,,,,,,,,,,,,,,,,e,2.117000103,BOTTLE,FALSE,,,,,,,117,boto,Catalan,Sounds/cat_boto.mp3,2020-06-08_18h32.39.926,TranslationElicitation_eng-prolific,3.2.4,MacIntel,60,5ea300a5733c8107ec2478a3,,1,0,81,12,1,80
,,,,,,,,,,,,,,,,,,,,,,,,,,,,,,,,,,,,,,,,,return,2.468000174,BOTTLE,FALSE,,,,,,,117,boto,Catalan,Sounds/cat_boto.mp3,2020-06-08_18h32.39.926,TranslationElicitation_eng-prolific,3.2.4,MacIntel,60,5ea300a5733c8107ec2478a3,2.468000174,1,0,81,12,1,80
,,,,,,,,,,,,,,,,,,,,,,,,,,,,,,,,,,,,,,,,,,,,,,,,,,,117,boto,Catalan,Sounds/cat_boto.mp3,2020-06-08_18h32.39.926,TranslationElicitation_eng-prolific,3.2.4,MacIntel,60,5ea300a5733c8107ec2478a3,,1,0,81,12,1,80
,,,,,,,,,,,,,,,,,,,,,,,,,,,,,,,,,,,,,,,,,g,1.832000017,G,FALSE,,,,,,,119,caixa,Catalan,Sounds/cat_caixa.mp3,2020-06-08_18h32.39.926,TranslationElicitation_eng-prolific,3.2.4,MacIntel,60,5ea300a5733c8107ec2478a3,,1,0,81,14,1,80
,,,,,,,,,,,,,,,,,,,,,,,,,,,,,,,,,,,,,,,,,r,2,GR,FALSE,,,,,,,119,caixa,Catalan,Sounds/cat_caixa.mp3,2020-06-08_18h32.39.926,TranslationElicitation_eng-prolific,3.2.4,MacIntel,60,5ea300a5733c8107ec2478a3,,1,0,81,14,1,80
,,,,,,,,,,,,,,,,,,,,,,,,,,,,,,,,,,,,,,,,,a,2.217000008,GRA,FALSE,,,,,,,119,caixa,Catalan,Sounds/cat_caixa.mp3,2020-06-08_18h32.39.926,TranslationElicitation_eng-prolific,3.2.4,MacIntel,60,5ea300a5733c8107ec2478a3,,1,0,81,14,1,80
,,,,,,,,,,,,,,,,,,,,,,,,,,,,,,,,,,,,,,,,,n,2.315999985,GRAN,FALSE,,,,,,,119,caixa,Catalan,Sounds/cat_caixa.mp3,2020-06-08_18h32.39.926,TranslationElicitation_eng-prolific,3.2.4,MacIntel,60,5ea300a5733c8107ec2478a3,,1,0,81,14,1,80
,,,,,,,,,,,,,,,,,,,,,,,,,,,,,,,,,,,,,,,,,d,2.399999857,GRAND,FALSE,,,,,,,119,caixa,Catalan,Sounds/cat_caixa.mp3,2020-06-08_18h32.39.926,TranslationElicitation_eng-prolific,3.2.4,MacIntel,60,5ea300a5733c8107ec2478a3,,1,0,81,14,1,80
,,,,,,,,,,,,,,,,,,,,,,,,,,,,,,,,,,,,,,,,,m,2.983999968,GRANDM,FALSE,,,,,,,119,caixa,Catalan,Sounds/cat_caixa.mp3,2020-06-08_18h32.39.926,TranslationElicitation_eng-prolific,3.2.4,MacIntel,60,5ea300a5733c8107ec2478a3,,1,0,81,14,1,80
,,,,,,,,,,,,,,,,,,,,,,,,,,,,,,,,,,,,,,,,,a,3.065999985,GRANDMA,FALSE,,,,,,,119,caixa,Catalan,Sounds/cat_caixa.mp3,2020-06-08_18h32.39.926,TranslationElicitation_eng-prolific,3.2.4,MacIntel,60,5ea300a5733c8107ec2478a3,,1,0,81,14,1,80
,,,,,,,,,,,,,,,,,,,,,,,,,,,,,,,,,,,,,,,,,return,3.549999952,GRANDMA,FALSE,,,,,,,119,caixa,Catalan,Sounds/cat_caixa.mp3,2020-06-08_18h32.39.926,TranslationElicitation_eng-prolific,3.2.4,MacIntel,60,5ea300a5733c8107ec2478a3,3.549999952,1,0,81,14,1,80
,,,,,,,,,,,,,,,,,,,,,,,,,,,,,,,,,,,,,,,,,,,,,,,,,,,119,caixa,Catalan,Sounds/cat_caixa.mp3,2020-06-08_18h32.39.926,TranslationElicitation_eng-prolific,3.2.4,MacIntel,60,5ea300a5733c8107ec2478a3,,1,0,81,14,1,80
,,,,,,,,,,,,,,,,,,,,,,,,,,,,,,,,,,,,,,,,,t,3.817000151,T,FALSE,,,,,,,180,tisores,Catalan,Sounds/cat_tisores.mp3,2020-06-08_18h32.39.926,TranslationElicitation_eng-prolific,3.2.4,MacIntel,60,5ea300a5733c8107ec2478a3,,1,0,81,71,1,80
,,,,,,,,,,,,,,,,,,,,,,,,,,,,,,,,,,,,,,,,,a,4.082999945,TA,FALSE,,,,,,,180,tisores,Catalan,Sounds/cat_tisores.mp3,2020-06-08_18h32.39.926,TranslationElicitation_eng-prolific,3.2.4,MacIntel,60,5ea300a5733c8107ec2478a3,,1,0,81,71,1,80
,,,,,,,,,,,,,,,,,,,,,,,,,,,,,,,,,,,,,,,,,b,4.19900012,TAB,FALSE,,,,,,,180,tisores,Catalan,Sounds/cat_tisores.mp3,2020-06-08_18h32.39.926,TranslationElicitation_eng-prolific,3.2.4,MacIntel,60,5ea300a5733c8107ec2478a3,,1,0,81,71,1,80
,,,,,,,,,,,,,,,,,,,,,,,,,,,,,,,,,,,,,,,,,l,4.383000135,TABL,FALSE,,,,,,,180,tisores,Catalan,Sounds/cat_tisores.mp3,2020-06-08_18h32.39.926,TranslationElicitation_eng-prolific,3.2.4,MacIntel,60,5ea300a5733c8107ec2478a3,,1,0,81,71,1,80
,,,,,,,,,,,,,,,,,,,,,,,,,,,,,,,,,,,,,,,,,e,4.499000072,TABLE,FALSE,,,,,,,180,tisores,Catalan,Sounds/cat_tisores.mp3,2020-06-08_18h32.39.926,TranslationElicitation_eng-prolific,3.2.4,MacIntel,60,5ea300a5733c8107ec2478a3,,1,0,81,71,1,80
,,,,,,,,,,,,,,,,,,,,,,,,,,,,,,,,,,,,,,,,,s,4.749000072,TABLES,FALSE,,,,,,,180,tisores,Catalan,Sounds/cat_tisores.mp3,2020-06-08_18h32.39.926,TranslationElicitation_eng-prolific,3.2.4,MacIntel,60,5ea300a5733c8107ec2478a3,,1,0,81,71,1,80
,,,,,,,,,,,,,,,,,,,,,,,,,,,,,,,,,,,,,,,,,return,4.914999962,TABLES,FALSE,,,,,,,180,tisores,Catalan,Sounds/cat_tisores.mp3,2020-06-08_18h32.39.926,TranslationElicitation_eng-prolific,3.2.4,MacIntel,60,5ea300a5733c8107ec2478a3,4.914999962,1,0,81,71,1,80
,,,,,,,,,,,,,,,,,,,,,,,,,,,,,,,,,,,,,,,,,,,,,,,,,,,180,tisores,Catalan,Sounds/cat_tisores.mp3,2020-06-08_18h32.39.926,TranslationElicitation_eng-prolific,3.2.4,MacIntel,60,5ea300a5733c8107ec2478a3,,1,0,81,71,1,80
,,,,,,,,,,,,,,,,,,,,,,,,,,,,,,,,,,,,,,,,,m,1.999000072,M,FALSE,,,,,,,156,moto,Catalan,Sounds/cat_moto.mp3,2020-06-08_18h32.39.926,TranslationElicitation_eng-prolific,3.2.4,MacIntel,60,5ea300a5733c8107ec2478a3,,1,0,81,49,1,80
,,,,,,,,,,,,,,,,,,,,,,,,,,,,,,,,,,,,,,,,,o,2.117000103,MO,FALSE,,,,,,,156,moto,Catalan,Sounds/cat_moto.mp3,2020-06-08_18h32.39.926,TranslationElicitation_eng-prolific,3.2.4,MacIntel,60,5ea300a5733c8107ec2478a3,,1,0,81,49,1,80
,,,,,,,,,,,,,,,,,,,,,,,,,,,,,,,,,,,,,,,,,r,2.183000088,MOR,FALSE,,,,,,,156,moto,Catalan,Sounds/cat_moto.mp3,2020-06-08_18h32.39.926,TranslationElicitation_eng-prolific,3.2.4,MacIntel,60,5ea300a5733c8107ec2478a3,,1,0,81,49,1,80
,,,,,,,,,,,,,,,,,,,,,,,,,,,,,,,,,,,,,,,,,e,2.266000032,MORE,FALSE,,,,,,,156,moto,Catalan,Sounds/cat_moto.mp3,2020-06-08_18h32.39.926,TranslationElicitation_eng-prolific,3.2.4,MacIntel,60,5ea300a5733c8107ec2478a3,,1,0,81,49,1,80
,,,,,,,,,,,,,,,,,,,,,,,,,,,,,,,,,,,,,,,,,space,2.349999905,MORE ,FALSE,,,,,,,156,moto,Catalan,Sounds/cat_moto.mp3,2020-06-08_18h32.39.926,TranslationElicitation_eng-prolific,3.2.4,MacIntel,60,5ea300a5733c8107ec2478a3,,1,0,81,49,1,80
,,,,,,,,,,,,,,,,,,,,,,,,,,,,,,,,,,,,,,,,,p,2.532000065,MORE P,FALSE,,,,,,,156,moto,Catalan,Sounds/cat_moto.mp3,2020-06-08_18h32.39.926,TranslationElicitation_eng-prolific,3.2.4,MacIntel,60,5ea300a5733c8107ec2478a3,,1,0,81,49,1,80
,,,,,,,,,,,,,,,,,,,,,,,,,,,,,,,,,,,,,,,,,e,2.665999889,MORE PE,FALSE,,,,,,,156,moto,Catalan,Sounds/cat_moto.mp3,2020-06-08_18h32.39.926,TranslationElicitation_eng-prolific,3.2.4,MacIntel,60,5ea300a5733c8107ec2478a3,,1,0,81,49,1,80
,,,,,,,,,,,,,,,,,,,,,,,,,,,,,,,,,,,,,,,,,a,2.848999977,MORE PEA,FALSE,,,,,,,156,moto,Catalan,Sounds/cat_moto.mp3,2020-06-08_18h32.39.926,TranslationElicitation_eng-prolific,3.2.4,MacIntel,60,5ea300a5733c8107ec2478a3,,1,0,81,49,1,80
,,,,,,,,,,,,,,,,,,,,,,,,,,,,,,,,,,,,,,,,,s,2.950000048,MORE PEAS,FALSE,,,,,,,156,moto,Catalan,Sounds/cat_moto.mp3,2020-06-08_18h32.39.926,TranslationElicitation_eng-prolific,3.2.4,MacIntel,60,5ea300a5733c8107ec2478a3,,1,0,81,49,1,80
,,,,,,,,,,,,,,,,,,,,,,,,,,,,,,,,,,,,,,,,,backspace,3.368000031,MORE PEA,TRUE,,,,,,,156,moto,Catalan,Sounds/cat_moto.mp3,2020-06-08_18h32.39.926,TranslationElicitation_eng-prolific,3.2.4,MacIntel,60,5ea300a5733c8107ec2478a3,,1,0,81,49,1,80
,,,,,,,,,,,,,,,,,,,,,,,,,,,,,,,,,,,,,,,,,backspace,3.566999912,MORE PE,TRUE,,,,,,,156,moto,Catalan,Sounds/cat_moto.mp3,2020-06-08_18h32.39.926,TranslationElicitation_eng-prolific,3.2.4,MacIntel,60,5ea300a5733c8107ec2478a3,,1,0,81,49,1,80
,,,,,,,,,,,,,,,,,,,,,,,,,,,,,,,,,,,,,,,,,backspace,3.73300004,MORE P,TRUE,,,,,,,156,moto,Catalan,Sounds/cat_moto.mp3,2020-06-08_18h32.39.926,TranslationElicitation_eng-prolific,3.2.4,MacIntel,60,5ea300a5733c8107ec2478a3,,1,0,81,49,1,80
,,,,,,,,,,,,,,,,,,,,,,,,,,,,,,,,,,,,,,,,,backspace,3.898999929,MORE ,TRUE,,,,,,,156,moto,Catalan,Sounds/cat_moto.mp3,2020-06-08_18h32.39.926,TranslationElicitation_eng-prolific,3.2.4,MacIntel,60,5ea300a5733c8107ec2478a3,,1,0,81,49,1,80
,,,,,,,,,,,,,,,,,,,,,,,,,,,,,,,,,,,,,,,,,p,4.423000097,MORE P,TRUE,,,,,,,156,moto,Catalan,Sounds/cat_moto.mp3,2020-06-08_18h32.39.926,TranslationElicitation_eng-prolific,3.2.4,MacIntel,60,5ea300a5733c8107ec2478a3,,1,0,81,49,1,80
,,,,,,,,,,,,,,,,,,,,,,,,,,,,,,,,,,,,,,,,,l,4.5,MORE PL,TRUE,,,,,,,156,moto,Catalan,Sounds/cat_moto.mp3,2020-06-08_18h32.39.926,TranslationElicitation_eng-prolific,3.2.4,MacIntel,60,5ea300a5733c8107ec2478a3,,1,0,81,49,1,80
,,,,,,,,,,,,,,,,,,,,,,,,,,,,,,,,,,,,,,,,,e,4.615999937,MORE PLE,TRUE,,,,,,,156,moto,Catalan,Sounds/cat_moto.mp3,2020-06-08_18h32.39.926,TranslationElicitation_eng-prolific,3.2.4,MacIntel,60,5ea300a5733c8107ec2478a3,,1,0,81,49,1,80
,,,,,,,,,,,,,,,,,,,,,,,,,,,,,,,,,,,,,,,,,a,4.849999905,MORE PLEA,TRUE,,,,,,,156,moto,Catalan,Sounds/cat_moto.mp3,2020-06-08_18h32.39.926,TranslationElicitation_eng-prolific,3.2.4,MacIntel,60,5ea300a5733c8107ec2478a3,,1,0,81,49,1,80
,,,,,,,,,,,,,,,,,,,,,,,,,,,,,,,,,,,,,,,,,s,4.933000088,MORE PLEAS,TRUE,,,,,,,156,moto,Catalan,Sounds/cat_moto.mp3,2020-06-08_18h32.39.926,TranslationElicitation_eng-prolific,3.2.4,MacIntel,60,5ea300a5733c8107ec2478a3,,1,0,81,49,1,80
,,,,,,,,,,,,,,,,,,,,,,,,,,,,,,,,,,,,,,,,,e,5.233999968,MORE PLEASE,TRUE,,,,,,,156,moto,Catalan,Sounds/cat_moto.mp3,2020-06-08_18h32.39.926,TranslationElicitation_eng-prolific,3.2.4,MacIntel,60,5ea300a5733c8107ec2478a3,,1,0,81,49,1,80
,,,,,,,,,,,,,,,,,,,,,,,,,,,,,,,,,,,,,,,,,return,5.632999897,MORE PLEASE,TRUE,,,,,,,156,moto,Catalan,Sounds/cat_moto.mp3,2020-06-08_18h32.39.926,TranslationElicitation_eng-prolific,3.2.4,MacIntel,60,5ea300a5733c8107ec2478a3,5.632999897,1,0,81,49,1,80
,,,,,,,,,,,,,,,,,,,,,,,,,,,,,,,,,,,,,,,,,,,,,,,,,,,156,moto,Catalan,Sounds/cat_moto.mp3,2020-06-08_18h32.39.926,TranslationElicitation_eng-prolific,3.2.4,MacIntel,60,5ea300a5733c8107ec2478a3,,1,0,81,49,1,80
,,,,,,,,,,,,,,,,,,,,,,,,,,,,,,,,,,,,,,,,,s,1.564999819,S,FALSE,,,,,,,176,samarreta,Catalan,Sounds/cat_samarreta.mp3,2020-06-08_18h32.39.926,TranslationElicitation_eng-prolific,3.2.4,MacIntel,60,5ea300a5733c8107ec2478a3,,1,0,81,68,1,80
,,,,,,,,,,,,,,,,,,,,,,,,,,,,,,,,,,,,,,,,,i,1.681999922,SI,FALSE,,,,,,,176,samarreta,Catalan,Sounds/cat_samarreta.mp3,2020-06-08_18h32.39.926,TranslationElicitation_eng-prolific,3.2.4,MacIntel,60,5ea300a5733c8107ec2478a3,,1,0,81,68,1,80
,,,,,,,,,,,,,,,,,,,,,,,,,,,,,,,,,,,,,,,,,s,1.782999992,SIS,FALSE,,,,,,,176,samarreta,Catalan,Sounds/cat_samarreta.mp3,2020-06-08_18h32.39.926,TranslationElicitation_eng-prolific,3.2.4,MacIntel,60,5ea300a5733c8107ec2478a3,,1,0,81,68,1,80
,,,,,,,,,,,,,,,,,,,,,,,,,,,,,,,,,,,,,,,,,t,2.01699996,SIST,FALSE,,,,,,,176,samarreta,Catalan,Sounds/cat_samarreta.mp3,2020-06-08_18h32.39.926,TranslationElicitation_eng-prolific,3.2.4,MacIntel,60,5ea300a5733c8107ec2478a3,,1,0,81,68,1,80
,,,,,,,,,,,,,,,,,,,,,,,,,,,,,,,,,,,,,,,,,e,2.182999849,SISTE,FALSE,,,,,,,176,samarreta,Catalan,Sounds/cat_samarreta.mp3,2020-06-08_18h32.39.926,TranslationElicitation_eng-prolific,3.2.4,MacIntel,60,5ea300a5733c8107ec2478a3,,1,0,81,68,1,80
,,,,,,,,,,,,,,,,,,,,,,,,,,,,,,,,,,,,,,,,,r,2.281999826,SISTER,FALSE,,,,,,,176,samarreta,Catalan,Sounds/cat_samarreta.mp3,2020-06-08_18h32.39.926,TranslationElicitation_eng-prolific,3.2.4,MacIntel,60,5ea300a5733c8107ec2478a3,,1,0,81,68,1,80
,,,,,,,,,,,,,,,,,,,,,,,,,,,,,,,,,,,,,,,,,return,2.48300004,SISTER,FALSE,,,,,,,176,samarreta,Catalan,Sounds/cat_samarreta.mp3,2020-06-08_18h32.39.926,TranslationElicitation_eng-prolific,3.2.4,MacIntel,60,5ea300a5733c8107ec2478a3,2.48300004,1,0,81,68,1,80
,,,,,,,,,,,,,,,,,,,,,,,,,,,,,,,,,,,,,,,,,,,,,,,,,,,176,samarreta,Catalan,Sounds/cat_samarreta.mp3,2020-06-08_18h32.39.926,TranslationElicitation_eng-prolific,3.2.4,MacIntel,60,5ea300a5733c8107ec2478a3,,1,0,81,68,1,80
,,,,,,,,,,,,,,,,,,,,,,,,,,,,,,,,,,,,,,,,,c,3.768000126,C,FALSE,,,,,,,133,estruc,Catalan,Sounds/cat_estruc.mp3,2020-06-08_18h32.39.926,TranslationElicitation_eng-prolific,3.2.4,MacIntel,60,5ea300a5733c8107ec2478a3,,1,0,81,27,1,80
,,,,,,,,,,,,,,,,,,,,,,,,,,,,,,,,,,,,,,,,,h,3.851999998,CH,FALSE,,,,,,,133,estruc,Catalan,Sounds/cat_estruc.mp3,2020-06-08_18h32.39.926,TranslationElicitation_eng-prolific,3.2.4,MacIntel,60,5ea300a5733c8107ec2478a3,,1,0,81,27,1,80
,,,,,,,,,,,,,,,,,,,,,,,,,,,,,,,,,,,,,,,,,i,4.085000038,CHI,FALSE,,,,,,,133,estruc,Catalan,Sounds/cat_estruc.mp3,2020-06-08_18h32.39.926,TranslationElicitation_eng-prolific,3.2.4,MacIntel,60,5ea300a5733c8107ec2478a3,,1,0,81,27,1,80
,,,,,,,,,,,,,,,,,,,,,,,,,,,,,,,,,,,,,,,,,backspace,5.002000093,CH,TRUE,,,,,,,133,estruc,Catalan,Sounds/cat_estruc.mp3,2020-06-08_18h32.39.926,TranslationElicitation_eng-prolific,3.2.4,MacIntel,60,5ea300a5733c8107ec2478a3,,1,0,81,27,1,80
,,,,,,,,,,,,,,,,,,,,,,,,,,,,,,,,,,,,,,,,,a,5.233999968,CHA,TRUE,,,,,,,133,estruc,Catalan,Sounds/cat_estruc.mp3,2020-06-08_18h32.39.926,TranslationElicitation_eng-prolific,3.2.4,MacIntel,60,5ea300a5733c8107ec2478a3,,1,0,81,27,1,80
,,,,,,,,,,,,,,,,,,,,,,,,,,,,,,,,,,,,,,,,,i,5.419000149,CHAI,TRUE,,,,,,,133,estruc,Catalan,Sounds/cat_estruc.mp3,2020-06-08_18h32.39.926,TranslationElicitation_eng-prolific,3.2.4,MacIntel,60,5ea300a5733c8107ec2478a3,,1,0,81,27,1,80
,,,,,,,,,,,,,,,,,,,,,,,,,,,,,,,,,,,,,,,,,r,5.551000118,CHAIR,TRUE,,,,,,,133,estruc,Catalan,Sounds/cat_estruc.mp3,2020-06-08_18h32.39.926,TranslationElicitation_eng-prolific,3.2.4,MacIntel,60,5ea300a5733c8107ec2478a3,,1,0,81,27,1,80
,,,,,,,,,,,,,,,,,,,,,,,,,,,,,,,,,,,,,,,,,return,6.002000093,CHAIR,TRUE,,,,,,,133,estruc,Catalan,Sounds/cat_estruc.mp3,2020-06-08_18h32.39.926,TranslationElicitation_eng-prolific,3.2.4,MacIntel,60,5ea300a5733c8107ec2478a3,6.002000093,1,0,81,27,1,80
,,,,,,,,,,,,,,,,,,,,,,,,,,,,,,,,,,,,,,,,,,,,,,,,,,,133,estruc,Catalan,Sounds/cat_estruc.mp3,2020-06-08_18h32.39.926,TranslationElicitation_eng-prolific,3.2.4,MacIntel,60,5ea300a5733c8107ec2478a3,,1,0,81,27,1,80
,,,,,,,,,,,,,,,,,,,,,,,,,,,,,,,,,,,,,,,,,m,2.684000015,M,FALSE,,,,,,,160,orella,Catalan,Sounds/cat_orella.mp3,2020-06-08_18h32.39.926,TranslationElicitation_eng-prolific,3.2.4,MacIntel,60,5ea300a5733c8107ec2478a3,,1,0,81,52,1,80
,,,,,,,,,,,,,,,,,,,,,,,,,,,,,,,,,,,,,,,,,o,2.78399992,MO,FALSE,,,,,,,160,orella,Catalan,Sounds/cat_orella.mp3,2020-06-08_18h32.39.926,TranslationElicitation_eng-prolific,3.2.4,MacIntel,60,5ea300a5733c8107ec2478a3,,1,0,81,52,1,80
,,,,,,,,,,,,,,,,,,,,,,,,,,,,,,,,,,,,,,,,,t,2.884000063,MOT,FALSE,,,,,,,160,orella,Catalan,Sounds/cat_orella.mp3,2020-06-08_18h32.39.926,TranslationElicitation_eng-prolific,3.2.4,MacIntel,60,5ea300a5733c8107ec2478a3,,1,0,81,52,1,80
,,,,,,,,,,,,,,,,,,,,,,,,,,,,,,,,,,,,,,,,,h,2.934000015,MOTH,FALSE,,,,,,,160,orella,Catalan,Sounds/cat_orella.mp3,2020-06-08_18h32.39.926,TranslationElicitation_eng-prolific,3.2.4,MacIntel,60,5ea300a5733c8107ec2478a3,,1,0,81,52,1,80
,,,,,,,,,,,,,,,,,,,,,,,,,,,,,,,,,,,,,,,,,e,3.083999872,MOTHE,FALSE,,,,,,,160,orella,Catalan,Sounds/cat_orella.mp3,2020-06-08_18h32.39.926,TranslationElicitation_eng-prolific,3.2.4,MacIntel,60,5ea300a5733c8107ec2478a3,,1,0,81,52,1,80
,,,,,,,,,,,,,,,,,,,,,,,,,,,,,,,,,,,,,,,,,r,3.165999889,MOTHER,FALSE,,,,,,,160,orella,Catalan,Sounds/cat_orella.mp3,2020-06-08_18h32.39.926,TranslationElicitation_eng-prolific,3.2.4,MacIntel,60,5ea300a5733c8107ec2478a3,,1,0,81,52,1,80
,,,,,,,,,,,,,,,,,,,,,,,,,,,,,,,,,,,,,,,,,return,3.349999905,MOTHER,FALSE,,,,,,,160,orella,Catalan,Sounds/cat_orella.mp3,2020-06-08_18h32.39.926,TranslationElicitation_eng-prolific,3.2.4,MacIntel,60,5ea300a5733c8107ec2478a3,3.349999905,1,0,81,52,1,80
,,,,,,,,,,,,,,,,,,,,,,,,,,,,,,,,,,,,,,,,,,,,,,,,,,,160,orella,Catalan,Sounds/cat_orella.mp3,2020-06-08_18h32.39.926,TranslationElicitation_eng-prolific,3.2.4,MacIntel,60,5ea300a5733c8107ec2478a3,,1,0,81,52,1,80
,,,,,,,,,,,,,,,,,,,,,,,,,,,,,,,,,,,,,,,,,s,3.385999918,S,FALSE,,,,,,,124,cirera,Catalan,Sounds/cat_cirera.mp3,2020-06-08_18h32.39.926,TranslationElicitation_eng-prolific,3.2.4,MacIntel,60,5ea300a5733c8107ec2478a3,,1,0,81,19,1,80
,,,,,,,,,,,,,,,,,,,,,,,,,,,,,,,,,,,,,,,,,i,3.450999975,SI,FALSE,,,,,,,124,cirera,Catalan,Sounds/cat_cirera.mp3,2020-06-08_18h32.39.926,TranslationElicitation_eng-prolific,3.2.4,MacIntel,60,5ea300a5733c8107ec2478a3,,1,0,81,19,1,80
,,,,,,,,,,,,,,,,,,,,,,,,,,,,,,,,,,,,,,,,,l,3.66899991,SIL,FALSE,,,,,,,124,cirera,Catalan,Sounds/cat_cirera.mp3,2020-06-08_18h32.39.926,TranslationElicitation_eng-prolific,3.2.4,MacIntel,60,5ea300a5733c8107ec2478a3,,1,0,81,19,1,80
,,,,,,,,,,,,,,,,,,,,,,,,,,,,,,,,,,,,,,,,,e,3.717000008,SILE,FALSE,,,,,,,124,cirera,Catalan,Sounds/cat_cirera.mp3,2020-06-08_18h32.39.926,TranslationElicitation_eng-prolific,3.2.4,MacIntel,60,5ea300a5733c8107ec2478a3,,1,0,81,19,1,80
,,,,,,,,,,,,,,,,,,,,,,,,,,,,,,,,,,,,,,,,,c,4.000999928,SILEC,FALSE,,,,,,,124,cirera,Catalan,Sounds/cat_cirera.mp3,2020-06-08_18h32.39.926,TranslationElicitation_eng-prolific,3.2.4,MacIntel,60,5ea300a5733c8107ec2478a3,,1,0,81,19,1,80
,,,,,,,,,,,,,,,,,,,,,,,,,,,,,,,,,,,,,,,,,backspace,4.401000023,SILE,TRUE,,,,,,,124,cirera,Catalan,Sounds/cat_cirera.mp3,2020-06-08_18h32.39.926,TranslationElicitation_eng-prolific,3.2.4,MacIntel,60,5ea300a5733c8107ec2478a3,,1,0,81,19,1,80
,,,,,,,,,,,,,,,,,,,,,,,,,,,,,,,,,,,,,,,,,n,4.851999998,SILEN,TRUE,,,,,,,124,cirera,Catalan,Sounds/cat_cirera.mp3,2020-06-08_18h32.39.926,TranslationElicitation_eng-prolific,3.2.4,MacIntel,60,5ea300a5733c8107ec2478a3,,1,0,81,19,1,80
,,,,,,,,,,,,,,,,,,,,,,,,,,,,,,,,,,,,,,,,,c,5.453999996,SILENC,TRUE,,,,,,,124,cirera,Catalan,Sounds/cat_cirera.mp3,2020-06-08_18h32.39.926,TranslationElicitation_eng-prolific,3.2.4,MacIntel,60,5ea300a5733c8107ec2478a3,,1,0,81,19,1,80
,,,,,,,,,,,,,,,,,,,,,,,,,,,,,,,,,,,,,,,,,e,5.568000078,SILENCE,TRUE,,,,,,,124,cirera,Catalan,Sounds/cat_cirera.mp3,2020-06-08_18h32.39.926,TranslationElicitation_eng-prolific,3.2.4,MacIntel,60,5ea300a5733c8107ec2478a3,,1,0,81,19,1,80
,,,,,,,,,,,,,,,,,,,,,,,,,,,,,,,,,,,,,,,,,return,5.752000093,SILENCE,TRUE,,,,,,,124,cirera,Catalan,Sounds/cat_cirera.mp3,2020-06-08_18h32.39.926,TranslationElicitation_eng-prolific,3.2.4,MacIntel,60,5ea300a5733c8107ec2478a3,5.752000093,1,0,81,19,1,80
,,,,,,,,,,,,,,,,,,,,,,,,,,,,,,,,,,,,,,,,,,,,,,,,,,,124,cirera,Catalan,Sounds/cat_cirera.mp3,2020-06-08_18h32.39.926,TranslationElicitation_eng-prolific,3.2.4,MacIntel,60,5ea300a5733c8107ec2478a3,,1,0,81,19,1,80
,,,,,,,,,,,,,,,,,,,,,,,,,,,,,,,,,,,,,,,,,b,2.117000103,B,FALSE,,,,,,,113,boca,Catalan,Sounds/cat_boca.mp3,2020-06-08_18h32.39.926,TranslationElicitation_eng-prolific,3.2.4,MacIntel,60,5ea300a5733c8107ec2478a3,,1,0,81,8,1,80
,,,,,,,,,,,,,,,,,,,,,,,,,,,,,,,,,,,,,,,,,r,2.417999983,BR,FALSE,,,,,,,113,boca,Catalan,Sounds/cat_boca.mp3,2020-06-08_18h32.39.926,TranslationElicitation_eng-prolific,3.2.4,MacIntel,60,5ea300a5733c8107ec2478a3,,1,0,81,8,1,80
,,,,,,,,,,,,,,,,,,,,,,,,,,,,,,,,,,,,,,,,,o,2.535000086,BRO,FALSE,,,,,,,113,boca,Catalan,Sounds/cat_boca.mp3,2020-06-08_18h32.39.926,TranslationElicitation_eng-prolific,3.2.4,MacIntel,60,5ea300a5733c8107ec2478a3,,1,0,81,8,1,80
,,,,,,,,,,,,,,,,,,,,,,,,,,,,,,,,,,,,,,,,,t,2.634000063,BROT,FALSE,,,,,,,113,boca,Catalan,Sounds/cat_boca.mp3,2020-06-08_18h32.39.926,TranslationElicitation_eng-prolific,3.2.4,MacIntel,60,5ea300a5733c8107ec2478a3,,1,0,81,8,1,80
,,,,,,,,,,,,,,,,,,,,,,,,,,,,,,,,,,,,,,,,,h,2.785000086,BROTH,FALSE,,,,,,,113,boca,Catalan,Sounds/cat_boca.mp3,2020-06-08_18h32.39.926,TranslationElicitation_eng-prolific,3.2.4,MacIntel,60,5ea300a5733c8107ec2478a3,,1,0,81,8,1,80
,,,,,,,,,,,,,,,,,,,,,,,,,,,,,,,,,,,,,,,,,e,2.851999998,BROTHE,FALSE,,,,,,,113,boca,Catalan,Sounds/cat_boca.mp3,2020-06-08_18h32.39.926,TranslationElicitation_eng-prolific,3.2.4,MacIntel,60,5ea300a5733c8107ec2478a3,,1,0,81,8,1,80
,,,,,,,,,,,,,,,,,,,,,,,,,,,,,,,,,,,,,,,,,r,2.917000055,BROTHER,FALSE,,,,,,,113,boca,Catalan,Sounds/cat_boca.mp3,2020-06-08_18h32.39.926,TranslationElicitation_eng-prolific,3.2.4,MacIntel,60,5ea300a5733c8107ec2478a3,,1,0,81,8,1,80
,,,,,,,,,,,,,,,,,,,,,,,,,,,,,,,,,,,,,,,,,return,3.134000063,BROTHER,FALSE,,,,,,,113,boca,Catalan,Sounds/cat_boca.mp3,2020-06-08_18h32.39.926,TranslationElicitation_eng-prolific,3.2.4,MacIntel,60,5ea300a5733c8107ec2478a3,3.134000063,1,0,81,8,1,80
,,,,,,,,,,,,,,,,,,,,,,,,,,,,,,,,,,,,,,,,,,,,,,,,,,,113,boca,Catalan,Sounds/cat_boca.mp3,2020-06-08_18h32.39.926,TranslationElicitation_eng-prolific,3.2.4,MacIntel,60,5ea300a5733c8107ec2478a3,,1,0,81,8,1,80
,,,,,,,,,,,,,,,,,,,,,,,,,,,,,,,,,,,,,,,,,l,4.299999952,L,FALSE,,,,,,,112,bici,Catalan,Sounds/cat_bici.mp3,2020-06-08_18h32.39.926,TranslationElicitation_eng-prolific,3.2.4,MacIntel,60,5ea300a5733c8107ec2478a3,,1,0,81,7,1,80
,,,,,,,,,,,,,,,,,,,,,,,,,,,,,,,,,,,,,,,,,e,4.368000031,LE,FALSE,,,,,,,112,bici,Catalan,Sounds/cat_bici.mp3,2020-06-08_18h32.39.926,TranslationElicitation_eng-prolific,3.2.4,MacIntel,60,5ea300a5733c8107ec2478a3,,1,0,81,7,1,80
,,,,,,,,,,,,,,,,,,,,,,,,,,,,,,,,,,,,,,,,,a,4.583999872,LEA,FALSE,,,,,,,112,bici,Catalan,Sounds/cat_bici.mp3,2020-06-08_18h32.39.926,TranslationElicitation_eng-prolific,3.2.4,MacIntel,60,5ea300a5733c8107ec2478a3,,1,0,81,7,1,80
,,,,,,,,,,,,,,,,,,,,,,,,,,,,,,,,,,,,,,,,,r,4.80099988,LEAR,FALSE,,,,,,,112,bici,Catalan,Sounds/cat_bici.mp3,2020-06-08_18h32.39.926,TranslationElicitation_eng-prolific,3.2.4,MacIntel,60,5ea300a5733c8107ec2478a3,,1,0,81,7,1,80
,,,,,,,,,,,,,,,,,,,,,,,,,,,,,,,,,,,,,,,,,n,4.900000095,LEARN,FALSE,,,,,,,112,bici,Catalan,Sounds/cat_bici.mp3,2020-06-08_18h32.39.926,TranslationElicitation_eng-prolific,3.2.4,MacIntel,60,5ea300a5733c8107ec2478a3,,1,0,81,7,1,80
,,,,,,,,,,,,,,,,,,,,,,,,,,,,,,,,,,,,,,,,,i,4.98300004,LEARNI,FALSE,,,,,,,112,bici,Catalan,Sounds/cat_bici.mp3,2020-06-08_18h32.39.926,TranslationElicitation_eng-prolific,3.2.4,MacIntel,60,5ea300a5733c8107ec2478a3,,1,0,81,7,1,80
,,,,,,,,,,,,,,,,,,,,,,,,,,,,,,,,,,,,,,,,,n,5.083999872,LEARNIN,FALSE,,,,,,,112,bici,Catalan,Sounds/cat_bici.mp3,2020-06-08_18h32.39.926,TranslationElicitation_eng-prolific,3.2.4,MacIntel,60,5ea300a5733c8107ec2478a3,,1,0,81,7,1,80
,,,,,,,,,,,,,,,,,,,,,,,,,,,,,,,,,,,,,,,,,g,5.167000055,LEARNING,FALSE,,,,,,,112,bici,Catalan,Sounds/cat_bici.mp3,2020-06-08_18h32.39.926,TranslationElicitation_eng-prolific,3.2.4,MacIntel,60,5ea300a5733c8107ec2478a3,,1,0,81,7,1,80
,,,,,,,,,,,,,,,,,,,,,,,,,,,,,,,,,,,,,,,,,return,5.552000046,LEARNING,FALSE,,,,,,,112,bici,Catalan,Sounds/cat_bici.mp3,2020-06-08_18h32.39.926,TranslationElicitation_eng-prolific,3.2.4,MacIntel,60,5ea300a5733c8107ec2478a3,5.552000046,1,0,81,7,1,80
,,,,,,,,,,,,,,,,,,,,,,,,,,,,,,,,,,,,,,,,,,,,,,,,,,,112,bici,Catalan,Sounds/cat_bici.mp3,2020-06-08_18h32.39.926,TranslationElicitation_eng-prolific,3.2.4,MacIntel,60,5ea300a5733c8107ec2478a3,,1,0,81,7,1,80
,,,,,,,,,,,,,,,,,,,,,,,,,,,,,,,,,,,,,,,,,b,2.832999945,B,FALSE,,,,,,,115,bolet,Catalan,Sounds/cat_bolet.mp3,2020-06-08_18h32.39.926,TranslationElicitation_eng-prolific,3.2.4,MacIntel,60,5ea300a5733c8107ec2478a3,,1,0,81,10,1,80
,,,,,,,,,,,,,,,,,,,,,,,,,,,,,,,,,,,,,,,,,u,3.231999874,BU,FALSE,,,,,,,115,bolet,Catalan,Sounds/cat_bolet.mp3,2020-06-08_18h32.39.926,TranslationElicitation_eng-prolific,3.2.4,MacIntel,60,5ea300a5733c8107ec2478a3,,1,0,81,10,1,80
,,,,,,,,,,,,,,,,,,,,,,,,,,,,,,,,,,,,,,,,,l,3.731999874,BUL,FALSE,,,,,,,115,bolet,Catalan,Sounds/cat_bolet.mp3,2020-06-08_18h32.39.926,TranslationElicitation_eng-prolific,3.2.4,MacIntel,60,5ea300a5733c8107ec2478a3,,1,0,81,10,1,80
,,,,,,,,,,,,,,,,,,,,,,,,,,,,,,,,,,,,,,,,,l,3.898999929,BULL,FALSE,,,,,,,115,bolet,Catalan,Sounds/cat_bolet.mp3,2020-06-08_18h32.39.926,TranslationElicitation_eng-prolific,3.2.4,MacIntel,60,5ea300a5733c8107ec2478a3,,1,0,81,10,1,80
,,,,,,,,,,,,,,,,,,,,,,,,,,,,,,,,,,,,,,,,,e,4.299999952,BULLE,FALSE,,,,,,,115,bolet,Catalan,Sounds/cat_bolet.mp3,2020-06-08_18h32.39.926,TranslationElicitation_eng-prolific,3.2.4,MacIntel,60,5ea300a5733c8107ec2478a3,,1,0,81,10,1,80
,,,,,,,,,,,,,,,,,,,,,,,,,,,,,,,,,,,,,,,,,t,4.51699996,BULLET,FALSE,,,,,,,115,bolet,Catalan,Sounds/cat_bolet.mp3,2020-06-08_18h32.39.926,TranslationElicitation_eng-prolific,3.2.4,MacIntel,60,5ea300a5733c8107ec2478a3,,1,0,81,10,1,80
,,,,,,,,,,,,,,,,,,,,,,,,,,,,,,,,,,,,,,,,,return,4.665999889,BULLET,FALSE,,,,,,,115,bolet,Catalan,Sounds/cat_bolet.mp3,2020-06-08_18h32.39.926,TranslationElicitation_eng-prolific,3.2.4,MacIntel,60,5ea300a5733c8107ec2478a3,4.665999889,1,0,81,10,1,80
,,,,,,,,,,,,,,,,,,,,,,,,,,,,,,,,,,,,,,,,,,,,,,,,,,,115,bolet,Catalan,Sounds/cat_bolet.mp3,2020-06-08_18h32.39.926,TranslationElicitation_eng-prolific,3.2.4,MacIntel,60,5ea300a5733c8107ec2478a3,,1,0,81,10,1,80
,,,,,,,,,,,,,,,,,,,,,,,,,,,,,,,,,,,,,,,,,c,2.131999969,C,FALSE,,,,,,,128,cuc,Catalan,Sounds/cat_cuc.mp3,2020-06-08_18h32.39.926,TranslationElicitation_eng-prolific,3.2.4,MacIntel,60,5ea300a5733c8107ec2478a3,,1,0,81,22,1,80
,,,,,,,,,,,,,,,,,,,,,,,,,,,,,,,,,,,,,,,,,o,2.232999802,CO,FALSE,,,,,,,128,cuc,Catalan,Sounds/cat_cuc.mp3,2020-06-08_18h32.39.926,TranslationElicitation_eng-prolific,3.2.4,MacIntel,60,5ea300a5733c8107ec2478a3,,1,0,81,22,1,80
,,,,,,,,,,,,,,,,,,,,,,,,,,,,,,,,,,,,,,,,,o,2.364999771,COO,FALSE,,,,,,,128,cuc,Catalan,Sounds/cat_cuc.mp3,2020-06-08_18h32.39.926,TranslationElicitation_eng-prolific,3.2.4,MacIntel,60,5ea300a5733c8107ec2478a3,,1,0,81,22,1,80
,,,,,,,,,,,,,,,,,,,,,,,,,,,,,,,,,,,,,,,,,k,2.549999952,COOK,FALSE,,,,,,,128,cuc,Catalan,Sounds/cat_cuc.mp3,2020-06-08_18h32.39.926,TranslationElicitation_eng-prolific,3.2.4,MacIntel,60,5ea300a5733c8107ec2478a3,,1,0,81,22,1,80
,,,,,,,,,,,,,,,,,,,,,,,,,,,,,,,,,,,,,,,,,return,2.965999842,COOK,FALSE,,,,,,,128,cuc,Catalan,Sounds/cat_cuc.mp3,2020-06-08_18h32.39.926,TranslationElicitation_eng-prolific,3.2.4,MacIntel,60,5ea300a5733c8107ec2478a3,2.965999842,1,0,81,22,1,80
,,,,,,,,,,,,,,,,,,,,,,,,,,,,,,,,,,,,,,,,,,,,,,,,,,,128,cuc,Catalan,Sounds/cat_cuc.mp3,2020-06-08_18h32.39.926,TranslationElicitation_eng-prolific,3.2.4,MacIntel,60,5ea300a5733c8107ec2478a3,,1,0,81,22,1,80
,,,,,,,,,,,,,,,,,,,,,,,,,,,,,,,,,,,,,,,,,n,2.832000017,N,FALSE,,,,,,,158,nas,Catalan,Sounds/cat_nas.mp3,2020-06-08_18h32.39.926,TranslationElicitation_eng-prolific,3.2.4,MacIntel,60,5ea300a5733c8107ec2478a3,,1,0,81,51,1,80
,,,,,,,,,,,,,,,,,,,,,,,,,,,,,,,,,,,,,,,,,o,2.934000015,NO,FALSE,,,,,,,158,nas,Catalan,Sounds/cat_nas.mp3,2020-06-08_18h32.39.926,TranslationElicitation_eng-prolific,3.2.4,MacIntel,60,5ea300a5733c8107ec2478a3,,1,0,81,51,1,80
,,,,,,,,,,,,,,,,,,,,,,,,,,,,,,,,,,,,,,,,,return,3.149000168,NO,FALSE,,,,,,,158,nas,Catalan,Sounds/cat_nas.mp3,2020-06-08_18h32.39.926,TranslationElicitation_eng-prolific,3.2.4,MacIntel,60,5ea300a5733c8107ec2478a3,3.149000168,1,0,81,51,1,80
,,,,,,,,,,,,,,,,,,,,,,,,,,,,,,,,,,,,,,,,,,,,,,,,,,,158,nas,Catalan,Sounds/cat_nas.mp3,2020-06-08_18h32.39.926,TranslationElicitation_eng-prolific,3.2.4,MacIntel,60,5ea300a5733c8107ec2478a3,,1,0,81,51,1,80
,,,,,,,,,,,,,,,,,,,,,,,,,,,,,,,,,,,,,,,,,t,1.832999945,T,FALSE,,,,,,,174,porta,Catalan,Sounds/cat_porta.mp3,2020-06-08_18h32.39.926,TranslationElicitation_eng-prolific,3.2.4,MacIntel,60,5ea300a5733c8107ec2478a3,,1,0,81,66,1,80
,,,,,,,,,,,,,,,,,,,,,,,,,,,,,,,,,,,,,,,,,o,1.967000008,TO,FALSE,,,,,,,174,porta,Catalan,Sounds/cat_porta.mp3,2020-06-08_18h32.39.926,TranslationElicitation_eng-prolific,3.2.4,MacIntel,60,5ea300a5733c8107ec2478a3,,1,0,81,66,1,80
,,,,,,,,,,,,,,,,,,,,,,,,,,,,,,,,,,,,,,,,,i,2.151000023,TOI,FALSE,,,,,,,174,porta,Catalan,Sounds/cat_porta.mp3,2020-06-08_18h32.39.926,TranslationElicitation_eng-prolific,3.2.4,MacIntel,60,5ea300a5733c8107ec2478a3,,1,0,81,66,1,80
,,,,,,,,,,,,,,,,,,,,,,,,,,,,,,,,,,,,,,,,,l,2.332999945,TOIL,FALSE,,,,,,,174,porta,Catalan,Sounds/cat_porta.mp3,2020-06-08_18h32.39.926,TranslationElicitation_eng-prolific,3.2.4,MacIntel,60,5ea300a5733c8107ec2478a3,,1,0,81,66,1,80
,,,,,,,,,,,,,,,,,,,,,,,,,,,,,,,,,,,,,,,,,e,2.400000095,TOILE,FALSE,,,,,,,174,porta,Catalan,Sounds/cat_porta.mp3,2020-06-08_18h32.39.926,TranslationElicitation_eng-prolific,3.2.4,MacIntel,60,5ea300a5733c8107ec2478a3,,1,0,81,66,1,80
,,,,,,,,,,,,,,,,,,,,,,,,,,,,,,,,,,,,,,,,,t,2.598999977,TOILET,FALSE,,,,,,,174,porta,Catalan,Sounds/cat_porta.mp3,2020-06-08_18h32.39.926,TranslationElicitation_eng-prolific,3.2.4,MacIntel,60,5ea300a5733c8107ec2478a3,,1,0,81,66,1,80
,,,,,,,,,,,,,,,,,,,,,,,,,,,,,,,,,,,,,,,,,return,2.78399992,TOILET,FALSE,,,,,,,174,porta,Catalan,Sounds/cat_porta.mp3,2020-06-08_18h32.39.926,TranslationElicitation_eng-prolific,3.2.4,MacIntel,60,5ea300a5733c8107ec2478a3,2.78399992,1,0,81,66,1,80
,,,,,,,,,,,,,,,,,,,,,,,,,,,,,,,,,,,,,,,,,,,,,,,,,,,174,porta,Catalan,Sounds/cat_porta.mp3,2020-06-08_18h32.39.926,TranslationElicitation_eng-prolific,3.2.4,MacIntel,60,5ea300a5733c8107ec2478a3,,1,0,81,66,1,80
,,,,,,,,,,,,,,,,,,,,,,,,,,,,,,,,,,,,,,,,,e,2.066999912,E,FALSE,,,,,,,186,ungla,Catalan,Sounds/cat_ungla.mp3,2020-06-08_18h32.39.926,TranslationElicitation_eng-prolific,3.2.4,MacIntel,60,5ea300a5733c8107ec2478a3,,1,0,81,77,1,80
,,,,,,,,,,,,,,,,,,,,,,,,,,,,,,,,,,,,,,,,,n,2.184999943,EN,FALSE,,,,,,,186,ungla,Catalan,Sounds/cat_ungla.mp3,2020-06-08_18h32.39.926,TranslationElicitation_eng-prolific,3.2.4,MacIntel,60,5ea300a5733c8107ec2478a3,,1,0,81,77,1,80
,,,,,,,,,,,,,,,,,,,,,,,,,,,,,,,,,,,,,,,,,g,2.384000063,ENG,FALSE,,,,,,,186,ungla,Catalan,Sounds/cat_ungla.mp3,2020-06-08_18h32.39.926,TranslationElicitation_eng-prolific,3.2.4,MacIntel,60,5ea300a5733c8107ec2478a3,,1,0,81,77,1,80
,,,,,,,,,,,,,,,,,,,,,,,,,,,,,,,,,,,,,,,,,l,2.467999935,ENGL,FALSE,,,,,,,186,ungla,Catalan,Sounds/cat_ungla.mp3,2020-06-08_18h32.39.926,TranslationElicitation_eng-prolific,3.2.4,MacIntel,60,5ea300a5733c8107ec2478a3,,1,0,81,77,1,80
,,,,,,,,,,,,,,,,,,,,,,,,,,,,,,,,,,,,,,,,,a,2.63499999,ENGLA,FALSE,,,,,,,186,ungla,Catalan,Sounds/cat_ungla.mp3,2020-06-08_18h32.39.926,TranslationElicitation_eng-prolific,3.2.4,MacIntel,60,5ea300a5733c8107ec2478a3,,1,0,81,77,1,80
,,,,,,,,,,,,,,,,,,,,,,,,,,,,,,,,,,,,,,,,,n,2.75,ENGLAN,FALSE,,,,,,,186,ungla,Catalan,Sounds/cat_ungla.mp3,2020-06-08_18h32.39.926,TranslationElicitation_eng-prolific,3.2.4,MacIntel,60,5ea300a5733c8107ec2478a3,,1,0,81,77,1,80
,,,,,,,,,,,,,,,,,,,,,,,,,,,,,,,,,,,,,,,,,d,3.318000078,ENGLAND,FALSE,,,,,,,186,ungla,Catalan,Sounds/cat_ungla.mp3,2020-06-08_18h32.39.926,TranslationElicitation_eng-prolific,3.2.4,MacIntel,60,5ea300a5733c8107ec2478a3,,1,0,81,77,1,80
,,,,,,,,,,,,,,,,,,,,,,,,,,,,,,,,,,,,,,,,,return,3.433000088,ENGLAND,FALSE,,,,,,,186,ungla,Catalan,Sounds/cat_ungla.mp3,2020-06-08_18h32.39.926,TranslationElicitation_eng-prolific,3.2.4,MacIntel,60,5ea300a5733c8107ec2478a3,3.433000088,1,0,81,77,1,80
,,,,,,,,,,,,,,,,,,,,,,,,,,,,,,,,,,,,,,,,,,,,,,,,,,,186,ungla,Catalan,Sounds/cat_ungla.mp3,2020-06-08_18h32.39.926,TranslationElicitation_eng-prolific,3.2.4,MacIntel,60,5ea300a5733c8107ec2478a3,,1,0,81,77,1,80
,,,,,,,,,,,,,,,,,,,,,,,,,,,,,,,,,,,,,,,,,s,1.916000128,S,FALSE,,,,,,,177,sol,Catalan,Sounds/cat_sol.mp3,2020-06-08_18h32.39.926,TranslationElicitation_eng-prolific,3.2.4,MacIntel,60,5ea300a5733c8107ec2478a3,,1,0,81,69,1,80
,,,,,,,,,,,,,,,,,,,,,,,,,,,,,,,,,,,,,,,,,a,2.032000065,SA,FALSE,,,,,,,177,sol,Catalan,Sounds/cat_sol.mp3,2020-06-08_18h32.39.926,TranslationElicitation_eng-prolific,3.2.4,MacIntel,60,5ea300a5733c8107ec2478a3,,1,0,81,69,1,80
,,,,,,,,,,,,,,,,,,,,,,,,,,,,,,,,,,,,,,,,,l,2.232000113,SAL,FALSE,,,,,,,177,sol,Catalan,Sounds/cat_sol.mp3,2020-06-08_18h32.39.926,TranslationElicitation_eng-prolific,3.2.4,MacIntel,60,5ea300a5733c8107ec2478a3,,1,0,81,69,1,80
,,,,,,,,,,,,,,,,,,,,,,,,,,,,,,,,,,,,,,,,,t,2.400000095,SALT,FALSE,,,,,,,177,sol,Catalan,Sounds/cat_sol.mp3,2020-06-08_18h32.39.926,TranslationElicitation_eng-prolific,3.2.4,MacIntel,60,5ea300a5733c8107ec2478a3,,1,0,81,69,1,80
,,,,,,,,,,,,,,,,,,,,,,,,,,,,,,,,,,,,,,,,,return,3.433000088,SALT,FALSE,,,,,,,177,sol,Catalan,Sounds/cat_sol.mp3,2020-06-08_18h32.39.926,TranslationElicitation_eng-prolific,3.2.4,MacIntel,60,5ea300a5733c8107ec2478a3,3.433000088,1,0,81,69,1,80
,,,,,,,,,,,,,,,,,,,,,,,,,,,,,,,,,,,,,,,,,,,,,,,,,,,177,sol,Catalan,Sounds/cat_sol.mp3,2020-06-08_18h32.39.926,TranslationElicitation_eng-prolific,3.2.4,MacIntel,60,5ea300a5733c8107ec2478a3,,1,0,81,69,1,80
,,,,,,,,,,,,,,,,,,,,,,,,,,,,,,,,,,,,,,,,,w,2.601000071,W,FALSE,,,,,,,161,ovella,Catalan,Sounds/cat_ovella.mp3,2020-06-08_18h32.39.926,TranslationElicitation_eng-prolific,3.2.4,MacIntel,60,5ea300a5733c8107ec2478a3,,1,0,81,53,1,80
,,,,,,,,,,,,,,,,,,,,,,,,,,,,,,,,,,,,,,,,,e,2.766000032,WE,FALSE,,,,,,,161,ovella,Catalan,Sounds/cat_ovella.mp3,2020-06-08_18h32.39.926,TranslationElicitation_eng-prolific,3.2.4,MacIntel,60,5ea300a5733c8107ec2478a3,,1,0,81,53,1,80
,,,,,,,,,,,,,,,,,,,,,,,,,,,,,,,,,,,,,,,,,a,2.934999943,WEA,FALSE,,,,,,,161,ovella,Catalan,Sounds/cat_ovella.mp3,2020-06-08_18h32.39.926,TranslationElicitation_eng-prolific,3.2.4,MacIntel,60,5ea300a5733c8107ec2478a3,,1,0,81,53,1,80
,,,,,,,,,,,,,,,,,,,,,,,,,,,,,,,,,,,,,,,,,t,3.200999975,WEAT,FALSE,,,,,,,161,ovella,Catalan,Sounds/cat_ovella.mp3,2020-06-08_18h32.39.926,TranslationElicitation_eng-prolific,3.2.4,MacIntel,60,5ea300a5733c8107ec2478a3,,1,0,81,53,1,80
,,,,,,,,,,,,,,,,,,,,,,,,,,,,,,,,,,,,,,,,,h,3.282999992,WEATH,FALSE,,,,,,,161,ovella,Catalan,Sounds/cat_ovella.mp3,2020-06-08_18h32.39.926,TranslationElicitation_eng-prolific,3.2.4,MacIntel,60,5ea300a5733c8107ec2478a3,,1,0,81,53,1,80
,,,,,,,,,,,,,,,,,,,,,,,,,,,,,,,,,,,,,,,,,e,3.38499999,WEATHE,FALSE,,,,,,,161,ovella,Catalan,Sounds/cat_ovella.mp3,2020-06-08_18h32.39.926,TranslationElicitation_eng-prolific,3.2.4,MacIntel,60,5ea300a5733c8107ec2478a3,,1,0,81,53,1,80
,,,,,,,,,,,,,,,,,,,,,,,,,,,,,,,,,,,,,,,,,r,3.467000008,WEATHER,FALSE,,,,,,,161,ovella,Catalan,Sounds/cat_ovella.mp3,2020-06-08_18h32.39.926,TranslationElicitation_eng-prolific,3.2.4,MacIntel,60,5ea300a5733c8107ec2478a3,,1,0,81,53,1,80
,,,,,,,,,,,,,,,,,,,,,,,,,,,,,,,,,,,,,,,,,return,3.617000103,WEATHER,FALSE,,,,,,,161,ovella,Catalan,Sounds/cat_ovella.mp3,2020-06-08_18h32.39.926,TranslationElicitation_eng-prolific,3.2.4,MacIntel,60,5ea300a5733c8107ec2478a3,3.617000103,1,0,81,53,1,80
,,,,,,,,,,,,,,,,,,,,,,,,,,,,,,,,,,,,,,,,,,,,,,,,,,,161,ovella,Catalan,Sounds/cat_ovella.mp3,2020-06-08_18h32.39.926,TranslationElicitation_eng-prolific,3.2.4,MacIntel,60,5ea300a5733c8107ec2478a3,,1,0,81,53,1,80
,,,,,,,,,,,,,,,,,,,,,,,,,,,,,,,,,,,,,,,,,m,2.514999866,M,FALSE,,,,,,,148,lleo,Catalan,Sounds/cat_lleo.mp3,2020-06-08_18h32.39.926,TranslationElicitation_eng-prolific,3.2.4,MacIntel,60,5ea300a5733c8107ec2478a3,,1,0,81,41,1,80
,,,,,,,,,,,,,,,,,,,,,,,,,,,,,,,,,,,,,,,,,i,2.71600008,MI,FALSE,,,,,,,148,lleo,Catalan,Sounds/cat_lleo.mp3,2020-06-08_18h32.39.926,TranslationElicitation_eng-prolific,3.2.4,MacIntel,60,5ea300a5733c8107ec2478a3,,1,0,81,41,1,80
,,,,,,,,,,,,,,,,,,,,,,,,,,,,,,,,,,,,,,,,,l,2.898999929,MIL,FALSE,,,,,,,148,lleo,Catalan,Sounds/cat_lleo.mp3,2020-06-08_18h32.39.926,TranslationElicitation_eng-prolific,3.2.4,MacIntel,60,5ea300a5733c8107ec2478a3,,1,0,81,41,1,80
,,,,,,,,,,,,,,,,,,,,,,,,,,,,,,,,,,,,,,,,,k,3.049000025,MILK,FALSE,,,,,,,148,lleo,Catalan,Sounds/cat_lleo.mp3,2020-06-08_18h32.39.926,TranslationElicitation_eng-prolific,3.2.4,MacIntel,60,5ea300a5733c8107ec2478a3,,1,0,81,41,1,80
,,,,,,,,,,,,,,,,,,,,,,,,,,,,,,,,,,,,,,,,,return,3.48300004,MILK,FALSE,,,,,,,148,lleo,Catalan,Sounds/cat_lleo.mp3,2020-06-08_18h32.39.926,TranslationElicitation_eng-prolific,3.2.4,MacIntel,60,5ea300a5733c8107ec2478a3,3.48300004,1,0,81,41,1,80
,,,,,,,,,,,,,,,,,,,,,,,,,,,,,,,,,,,,,,,,,,,,,,,,,,,148,lleo,Catalan,Sounds/cat_lleo.mp3,2020-06-08_18h32.39.926,TranslationElicitation_eng-prolific,3.2.4,MacIntel,60,5ea300a5733c8107ec2478a3,,1,0,81,41,1,80
,,,,,,,,,,,,,,,,,,,,,,,,,,,,,,,,,,,,,,,,,h,1.282000065,H,FALSE,,,,,,,188,xocolata,Catalan,Sounds/cat_xocolata.mp3,2020-06-08_18h32.39.926,TranslationElicitation_eng-prolific,3.2.4,MacIntel,60,5ea300a5733c8107ec2478a3,,1,0,81,79,1,80
,,,,,,,,,,,,,,,,,,,,,,,,,,,,,,,,,,,,,,,,,o,1.496999979,HO,FALSE,,,,,,,188,xocolata,Catalan,Sounds/cat_xocolata.mp3,2020-06-08_18h32.39.926,TranslationElicitation_eng-prolific,3.2.4,MacIntel,60,5ea300a5733c8107ec2478a3,,1,0,81,79,1,80
,,,,,,,,,,,,,,,,,,,,,,,,,,,,,,,,,,,,,,,,,c,1.549000025,HOC,FALSE,,,,,,,188,xocolata,Catalan,Sounds/cat_xocolata.mp3,2020-06-08_18h32.39.926,TranslationElicitation_eng-prolific,3.2.4,MacIntel,60,5ea300a5733c8107ec2478a3,,1,0,81,79,1,80
,,,,,,,,,,,,,,,,,,,,,,,,,,,,,,,,,,,,,,,,,o,1.649000168,HOCO,FALSE,,,,,,,188,xocolata,Catalan,Sounds/cat_xocolata.mp3,2020-06-08_18h32.39.926,TranslationElicitation_eng-prolific,3.2.4,MacIntel,60,5ea300a5733c8107ec2478a3,,1,0,81,79,1,80
,,,,,,,,,,,,,,,,,,,,,,,,,,,,,,,,,,,,,,,,,return,1.93200016,HOCO,FALSE,,,,,,,188,xocolata,Catalan,Sounds/cat_xocolata.mp3,2020-06-08_18h32.39.926,TranslationElicitation_eng-prolific,3.2.4,MacIntel,60,5ea300a5733c8107ec2478a3,1.93200016,1,0,81,79,1,80
,,,,,,,,,,,,,,,,,,,,,,,,,,,,,,,,,,,,,,,,,,,,,,,,,,,188,xocolata,Catalan,Sounds/cat_xocolata.mp3,2020-06-08_18h32.39.926,TranslationElicitation_eng-prolific,3.2.4,MacIntel,60,5ea300a5733c8107ec2478a3,,1,0,81,79,1,80
,,,,,,,,,,,,,,,,,,,,,,,,,,,,,,,,,,,,,,,,,b,1.75,B,FALSE,,,,,,,187,vaixell,Catalan,Sounds/cat_vaixell.mp3,2020-06-08_18h32.39.926,TranslationElicitation_eng-prolific,3.2.4,MacIntel,60,5ea300a5733c8107ec2478a3,,1,0,81,78,1,80
,,,,,,,,,,,,,,,,,,,,,,,,,,,,,,,,,,,,,,,,,r,1.851000071,BR,FALSE,,,,,,,187,vaixell,Catalan,Sounds/cat_vaixell.mp3,2020-06-08_18h32.39.926,TranslationElicitation_eng-prolific,3.2.4,MacIntel,60,5ea300a5733c8107ec2478a3,,1,0,81,78,1,80
,,,,,,,,,,,,,,,,,,,,,,,,,,,,,,,,,,,,,,,,,u,1.935000181,BRU,FALSE,,,,,,,187,vaixell,Catalan,Sounds/cat_vaixell.mp3,2020-06-08_18h32.39.926,TranslationElicitation_eng-prolific,3.2.4,MacIntel,60,5ea300a5733c8107ec2478a3,,1,0,81,78,1,80
,,,,,,,,,,,,,,,,,,,,,,,,,,,,,,,,,,,,,,,,,s,2.301000118,BRUS,FALSE,,,,,,,187,vaixell,Catalan,Sounds/cat_vaixell.mp3,2020-06-08_18h32.39.926,TranslationElicitation_eng-prolific,3.2.4,MacIntel,60,5ea300a5733c8107ec2478a3,,1,0,81,78,1,80
,,,,,,,,,,,,,,,,,,,,,,,,,,,,,,,,,,,,,,,,,c,2.485000134,BRUSC,FALSE,,,,,,,187,vaixell,Catalan,Sounds/cat_vaixell.mp3,2020-06-08_18h32.39.926,TranslationElicitation_eng-prolific,3.2.4,MacIntel,60,5ea300a5733c8107ec2478a3,,1,0,81,78,1,80
,,,,,,,,,,,,,,,,,,,,,,,,,,,,,,,,,,,,,,,,,h,2.565999985,BRUSCH,FALSE,,,,,,,187,vaixell,Catalan,Sounds/cat_vaixell.mp3,2020-06-08_18h32.39.926,TranslationElicitation_eng-prolific,3.2.4,MacIntel,60,5ea300a5733c8107ec2478a3,,1,0,81,78,1,80
,,,,,,,,,,,,,,,,,,,,,,,,,,,,,,,,,,,,,,,,,e,2.718000174,BRUSCHE,FALSE,,,,,,,187,vaixell,Catalan,Sounds/cat_vaixell.mp3,2020-06-08_18h32.39.926,TranslationElicitation_eng-prolific,3.2.4,MacIntel,60,5ea300a5733c8107ec2478a3,,1,0,81,78,1,80
,,,,,,,,,,,,,,,,,,,,,,,,,,,,,,,,,,,,,,,,,t,3.217000008,BRUSCHET,FALSE,,,,,,,187,vaixell,Catalan,Sounds/cat_vaixell.mp3,2020-06-08_18h32.39.926,TranslationElicitation_eng-prolific,3.2.4,MacIntel,60,5ea300a5733c8107ec2478a3,,1,0,81,78,1,80
,,,,,,,,,,,,,,,,,,,,,,,,,,,,,,,,,,,,,,,,,t,3.367000103,BRUSCHETT,FALSE,,,,,,,187,vaixell,Catalan,Sounds/cat_vaixell.mp3,2020-06-08_18h32.39.926,TranslationElicitation_eng-prolific,3.2.4,MacIntel,60,5ea300a5733c8107ec2478a3,,1,0,81,78,1,80
,,,,,,,,,,,,,,,,,,,,,,,,,,,,,,,,,,,,,,,,,a,3.735000134,BRUSCHETTA,FALSE,,,,,,,187,vaixell,Catalan,Sounds/cat_vaixell.mp3,2020-06-08_18h32.39.926,TranslationElicitation_eng-prolific,3.2.4,MacIntel,60,5ea300a5733c8107ec2478a3,,1,0,81,78,1,80
,,,,,,,,,,,,,,,,,,,,,,,,,,,,,,,,,,,,,,,,,return,4.222000122,BRUSCHETTA,FALSE,,,,,,,187,vaixell,Catalan,Sounds/cat_vaixell.mp3,2020-06-08_18h32.39.926,TranslationElicitation_eng-prolific,3.2.4,MacIntel,60,5ea300a5733c8107ec2478a3,4.222000122,1,0,81,78,1,80
,,,,,,,,,,,,,,,,,,,,,,,,,,,,,,,,,,,,,,,,,,,,,,,,,,,187,vaixell,Catalan,Sounds/cat_vaixell.mp3,2020-06-08_18h32.39.926,TranslationElicitation_eng-prolific,3.2.4,MacIntel,60,5ea300a5733c8107ec2478a3,,1,0,81,78,1,80
,,,,,,,,,,,,,,,,,,,,,,,,,,,,,,,,,,,,,,,,,p,1.799000025,P,FALSE,,,,,,,173,porc,Catalan,Sounds/cat_porc.mp3,2020-06-08_18h32.39.926,TranslationElicitation_eng-prolific,3.2.4,MacIntel,60,5ea300a5733c8107ec2478a3,,1,0,81,65,1,80
,,,,,,,,,,,,,,,,,,,,,,,,,,,,,,,,,,,,,,,,,a,1.900000095,PA,FALSE,,,,,,,173,porc,Catalan,Sounds/cat_porc.mp3,2020-06-08_18h32.39.926,TranslationElicitation_eng-prolific,3.2.4,MacIntel,60,5ea300a5733c8107ec2478a3,,1,0,81,65,1,80
,,,,,,,,,,,,,,,,,,,,,,,,,,,,,,,,,,,,,,,,,r,2.115999937,PAR,FALSE,,,,,,,173,porc,Catalan,Sounds/cat_porc.mp3,2020-06-08_18h32.39.926,TranslationElicitation_eng-prolific,3.2.4,MacIntel,60,5ea300a5733c8107ec2478a3,,1,0,81,65,1,80
,,,,,,,,,,,,,,,,,,,,,,,,,,,,,,,,,,,,,,,,,k,2.214999914,PARK,FALSE,,,,,,,173,porc,Catalan,Sounds/cat_porc.mp3,2020-06-08_18h32.39.926,TranslationElicitation_eng-prolific,3.2.4,MacIntel,60,5ea300a5733c8107ec2478a3,,1,0,81,65,1,80
,,,,,,,,,,,,,,,,,,,,,,,,,,,,,,,,,,,,,,,,,return,2.71600008,PARK,FALSE,,,,,,,173,porc,Catalan,Sounds/cat_porc.mp3,2020-06-08_18h32.39.926,TranslationElicitation_eng-prolific,3.2.4,MacIntel,60,5ea300a5733c8107ec2478a3,2.71600008,1,0,81,65,1,80
,,,,,,,,,,,,,,,,,,,,,,,,,,,,,,,,,,,,,,,,,,,,,,,,,,,173,porc,Catalan,Sounds/cat_porc.mp3,2020-06-08_18h32.39.926,TranslationElicitation_eng-prolific,3.2.4,MacIntel,60,5ea300a5733c8107ec2478a3,,1,0,81,65,1,80
,,,,,,,,,,,,,,,,,,,,,,,,,,,,,,,,,,,,,,,,,f,3.685000181,F,FALSE,,,,,,,135,formiga,Catalan,Sounds/cat_formiga.mp3,2020-06-08_18h32.39.926,TranslationElicitation_eng-prolific,3.2.4,MacIntel,60,5ea300a5733c8107ec2478a3,,1,0,81,29,1,80
,,,,,,,,,,,,,,,,,,,,,,,,,,,,,,,,,,,,,,,,,r,3.799999952,FR,FALSE,,,,,,,135,formiga,Catalan,Sounds/cat_formiga.mp3,2020-06-08_18h32.39.926,TranslationElicitation_eng-prolific,3.2.4,MacIntel,60,5ea300a5733c8107ec2478a3,,1,0,81,29,1,80
,,,,,,,,,,,,,,,,,,,,,,,,,,,,,,,,,,,,,,,,,i,3.950999975,FRI,FALSE,,,,,,,135,formiga,Catalan,Sounds/cat_formiga.mp3,2020-06-08_18h32.39.926,TranslationElicitation_eng-prolific,3.2.4,MacIntel,60,5ea300a5733c8107ec2478a3,,1,0,81,29,1,80
,,,,,,,,,,,,,,,,,,,,,,,,,,,,,,,,,,,,,,,,,e,4.052000046,FRIE,FALSE,,,,,,,135,formiga,Catalan,Sounds/cat_formiga.mp3,2020-06-08_18h32.39.926,TranslationElicitation_eng-prolific,3.2.4,MacIntel,60,5ea300a5733c8107ec2478a3,,1,0,81,29,1,80
,,,,,,,,,,,,,,,,,,,,,,,,,,,,,,,,,,,,,,,,,n,4.184000015,FRIEN,FALSE,,,,,,,135,formiga,Catalan,Sounds/cat_formiga.mp3,2020-06-08_18h32.39.926,TranslationElicitation_eng-prolific,3.2.4,MacIntel,60,5ea300a5733c8107ec2478a3,,1,0,81,29,1,80
,,,,,,,,,,,,,,,,,,,,,,,,,,,,,,,,,,,,,,,,,d,4.334000111,FRIEND,FALSE,,,,,,,135,formiga,Catalan,Sounds/cat_formiga.mp3,2020-06-08_18h32.39.926,TranslationElicitation_eng-prolific,3.2.4,MacIntel,60,5ea300a5733c8107ec2478a3,,1,0,81,29,1,80
,,,,,,,,,,,,,,,,,,,,,,,,,,,,,,,,,,,,,,,,,return,4.733999968,FRIEND,FALSE,,,,,,,135,formiga,Catalan,Sounds/cat_formiga.mp3,2020-06-08_18h32.39.926,TranslationElicitation_eng-prolific,3.2.4,MacIntel,60,5ea300a5733c8107ec2478a3,4.733999968,1,0,81,29,1,80
,,,,,,,,,,,,,,,,,,,,,,,,,,,,,,,,,,,,,,,,,,,,,,,,,,,135,formiga,Catalan,Sounds/cat_formiga.mp3,2020-06-08_18h32.39.926,TranslationElicitation_eng-prolific,3.2.4,MacIntel,60,5ea300a5733c8107ec2478a3,,1,0,81,29,1,80
,,,,,,,,,,,,,,,,,,,,,,,,,,,,,,,,,,,,,,,,,s,2.565999985,S,FALSE,,,,,,,108,ampolla,Catalan,Sounds/cat_ampolla.mp3,2020-06-08_18h32.39.926,TranslationElicitation_eng-prolific,3.2.4,MacIntel,60,5ea300a5733c8107ec2478a3,,1,0,81,4,1,80
,,,,,,,,,,,,,,,,,,,,,,,,,,,,,,,,,,,,,,,,,p,2.75,SP,FALSE,,,,,,,108,ampolla,Catalan,Sounds/cat_ampolla.mp3,2020-06-08_18h32.39.926,TranslationElicitation_eng-prolific,3.2.4,MacIntel,60,5ea300a5733c8107ec2478a3,,1,0,81,4,1,80
,,,,,,,,,,,,,,,,,,,,,,,,,,,,,,,,,,,,,,,,,n,2.983999968,SPN,FALSE,,,,,,,108,ampolla,Catalan,Sounds/cat_ampolla.mp3,2020-06-08_18h32.39.926,TranslationElicitation_eng-prolific,3.2.4,MacIntel,60,5ea300a5733c8107ec2478a3,,1,0,81,4,1,80
,,,,,,,,,,,,,,,,,,,,,,,,,,,,,,,,,,,,,,,,,s,3.416999817,SPNS,FALSE,,,,,,,108,ampolla,Catalan,Sounds/cat_ampolla.mp3,2020-06-08_18h32.39.926,TranslationElicitation_eng-prolific,3.2.4,MacIntel,60,5ea300a5733c8107ec2478a3,,1,0,81,4,1,80
,,,,,,,,,,,,,,,,,,,,,,,,,,,,,,,,,,,,,,,,,backspace,4.233999968,SPN,TRUE,,,,,,,108,ampolla,Catalan,Sounds/cat_ampolla.mp3,2020-06-08_18h32.39.926,TranslationElicitation_eng-prolific,3.2.4,MacIntel,60,5ea300a5733c8107ec2478a3,,1,0,81,4,1,80
,,,,,,,,,,,,,,,,,,,,,,,,,,,,,,,,,,,,,,,,,backspace,4.401000023,SP,TRUE,,,,,,,108,ampolla,Catalan,Sounds/cat_ampolla.mp3,2020-06-08_18h32.39.926,TranslationElicitation_eng-prolific,3.2.4,MacIntel,60,5ea300a5733c8107ec2478a3,,1,0,81,4,1,80
,,,,,,,,,,,,,,,,,,,,,,,,,,,,,,,,,,,,,,,,,backspace,4.916999817,S,TRUE,,,,,,,108,ampolla,Catalan,Sounds/cat_ampolla.mp3,2020-06-08_18h32.39.926,TranslationElicitation_eng-prolific,3.2.4,MacIntel,60,5ea300a5733c8107ec2478a3,,1,0,81,4,1,80
,,,,,,,,,,,,,,,,,,,,,,,,,,,,,,,,,,,,,,,,,backspace,5.500999928,,TRUE,,,,,,,108,ampolla,Catalan,Sounds/cat_ampolla.mp3,2020-06-08_18h32.39.926,TranslationElicitation_eng-prolific,3.2.4,MacIntel,60,5ea300a5733c8107ec2478a3,,1,0,81,4,1,80
,,,,,,,,,,,,,,,,,,,,,,,,,,,,,,,,,,,,,,,,,f,6.40199995,F,TRUE,,,,,,,108,ampolla,Catalan,Sounds/cat_ampolla.mp3,2020-06-08_18h32.39.926,TranslationElicitation_eng-prolific,3.2.4,MacIntel,60,5ea300a5733c8107ec2478a3,,1,0,81,4,1,80
,,,,,,,,,,,,,,,,,,,,,,,,,,,,,,,,,,,,,,,,,a,6.616999865,FA,TRUE,,,,,,,108,ampolla,Catalan,Sounds/cat_ampolla.mp3,2020-06-08_18h32.39.926,TranslationElicitation_eng-prolific,3.2.4,MacIntel,60,5ea300a5733c8107ec2478a3,,1,0,81,4,1,80
,,,,,,,,,,,,,,,,,,,,,,,,,,,,,,,,,,,,,,,,,m,6.684000015,FAM,TRUE,,,,,,,108,ampolla,Catalan,Sounds/cat_ampolla.mp3,2020-06-08_18h32.39.926,TranslationElicitation_eng-prolific,3.2.4,MacIntel,60,5ea300a5733c8107ec2478a3,,1,0,81,4,1,80
,,,,,,,,,,,,,,,,,,,,,,,,,,,,,,,,,,,,,,,,,i,6.883999825,FAMI,TRUE,,,,,,,108,ampolla,Catalan,Sounds/cat_ampolla.mp3,2020-06-08_18h32.39.926,TranslationElicitation_eng-prolific,3.2.4,MacIntel,60,5ea300a5733c8107ec2478a3,,1,0,81,4,1,80
,,,,,,,,,,,,,,,,,,,,,,,,,,,,,,,,,,,,,,,,,l,7.06799984,FAMIL,TRUE,,,,,,,108,ampolla,Catalan,Sounds/cat_ampolla.mp3,2020-06-08_18h32.39.926,TranslationElicitation_eng-prolific,3.2.4,MacIntel,60,5ea300a5733c8107ec2478a3,,1,0,81,4,1,80
,,,,,,,,,,,,,,,,,,,,,,,,,,,,,,,,,,,,,,,,,y,7.149999857,FAMILY,TRUE,,,,,,,108,ampolla,Catalan,Sounds/cat_ampolla.mp3,2020-06-08_18h32.39.926,TranslationElicitation_eng-prolific,3.2.4,MacIntel,60,5ea300a5733c8107ec2478a3,,1,0,81,4,1,80
,,,,,,,,,,,,,,,,,,,,,,,,,,,,,,,,,,,,,,,,,return,7.53399992,FAMILY,TRUE,,,,,,,108,ampolla,Catalan,Sounds/cat_ampolla.mp3,2020-06-08_18h32.39.926,TranslationElicitation_eng-prolific,3.2.4,MacIntel,60,5ea300a5733c8107ec2478a3,7.53399992,1,0,81,4,1,80
,,,,,,,,,,,,,,,,,,,,,,,,,,,,,,,,,,,,,,,,,,,,,,,,,,,108,ampolla,Catalan,Sounds/cat_ampolla.mp3,2020-06-08_18h32.39.926,TranslationElicitation_eng-prolific,3.2.4,MacIntel,60,5ea300a5733c8107ec2478a3,,1,0,81,4,1,80
,,,,,,,,,,,,,,,,,,,,,,,,,,,,,,,,,,,,,,,,,f,2.650000095,F,FALSE,,,,,,,111,bibero,Catalan,Sounds/cat_bibero.mp3,2020-06-08_18h32.39.926,TranslationElicitation_eng-prolific,3.2.4,MacIntel,60,5ea300a5733c8107ec2478a3,,1,0,81,6,1,80
,,,,,,,,,,,,,,,,,,,,,,,,,,,,,,,,,,,,,,,,,u,2.749000072,FU,FALSE,,,,,,,111,bibero,Catalan,Sounds/cat_bibero.mp3,2020-06-08_18h32.39.926,TranslationElicitation_eng-prolific,3.2.4,MacIntel,60,5ea300a5733c8107ec2478a3,,1,0,81,6,1,80
,,,,,,,,,,,,,,,,,,,,,,,,,,,,,,,,,,,,,,,,,n,2.916000128,FUN,FALSE,,,,,,,111,bibero,Catalan,Sounds/cat_bibero.mp3,2020-06-08_18h32.39.926,TranslationElicitation_eng-prolific,3.2.4,MacIntel,60,5ea300a5733c8107ec2478a3,,1,0,81,6,1,80
,,,,,,,,,,,,,,,,,,,,,,,,,,,,,,,,,,,,,,,,,n,3.083000183,FUNN,FALSE,,,,,,,111,bibero,Catalan,Sounds/cat_bibero.mp3,2020-06-08_18h32.39.926,TranslationElicitation_eng-prolific,3.2.4,MacIntel,60,5ea300a5733c8107ec2478a3,,1,0,81,6,1,80
,,,,,,,,,,,,,,,,,,,,,,,,,,,,,,,,,,,,,,,,,y,3.150000095,FUNNY,FALSE,,,,,,,111,bibero,Catalan,Sounds/cat_bibero.mp3,2020-06-08_18h32.39.926,TranslationElicitation_eng-prolific,3.2.4,MacIntel,60,5ea300a5733c8107ec2478a3,,1,0,81,6,1,80
,,,,,,,,,,,,,,,,,,,,,,,,,,,,,,,,,,,,,,,,,return,3.300000191,FUNNY,FALSE,,,,,,,111,bibero,Catalan,Sounds/cat_bibero.mp3,2020-06-08_18h32.39.926,TranslationElicitation_eng-prolific,3.2.4,MacIntel,60,5ea300a5733c8107ec2478a3,3.300000191,1,0,81,6,1,80
,,,,,,,,,,,,,,,,,,,,,,,,,,,,,,,,,,,,,,,,,,,,,,,,,,,111,bibero,Catalan,Sounds/cat_bibero.mp3,2020-06-08_18h32.39.926,TranslationElicitation_eng-prolific,3.2.4,MacIntel,60,5ea300a5733c8107ec2478a3,,1,0,81,6,1,80
,,,,,,,,,,,,,,,,,,,,,,,,,,,,,,,,,,,,,,,,,p,2.181999922,P,FALSE,,,,,,,172,poma,Catalan,Sounds/cat_poma.mp3,2020-06-08_18h32.39.926,TranslationElicitation_eng-prolific,3.2.4,MacIntel,60,5ea300a5733c8107ec2478a3,,1,0,81,64,1,80
,,,,,,,,,,,,,,,,,,,,,,,,,,,,,,,,,,,,,,,,,o,2.399999857,PO,FALSE,,,,,,,172,poma,Catalan,Sounds/cat_poma.mp3,2020-06-08_18h32.39.926,TranslationElicitation_eng-prolific,3.2.4,MacIntel,60,5ea300a5733c8107ec2478a3,,1,0,81,64,1,80
,,,,,,,,,,,,,,,,,,,,,,,,,,,,,,,,,,,,,,,,,o,2.566999912,POO,FALSE,,,,,,,172,poma,Catalan,Sounds/cat_poma.mp3,2020-06-08_18h32.39.926,TranslationElicitation_eng-prolific,3.2.4,MacIntel,60,5ea300a5733c8107ec2478a3,,1,0,81,64,1,80
,,,,,,,,,,,,,,,,,,,,,,,,,,,,,,,,,,,,,,,,,r,2.615999937,POOR,FALSE,,,,,,,172,poma,Catalan,Sounds/cat_poma.mp3,2020-06-08_18h32.39.926,TranslationElicitation_eng-prolific,3.2.4,MacIntel,60,5ea300a5733c8107ec2478a3,,1,0,81,64,1,80
,,,,,,,,,,,,,,,,,,,,,,,,,,,,,,,,,,,,,,,,,return,2.949999809,POOR,FALSE,,,,,,,172,poma,Catalan,Sounds/cat_poma.mp3,2020-06-08_18h32.39.926,TranslationElicitation_eng-prolific,3.2.4,MacIntel,60,5ea300a5733c8107ec2478a3,2.949999809,1,0,81,64,1,80
,,,,,,,,,,,,,,,,,,,,,,,,,,,,,,,,,,,,,,,,,,,,,,,,,,,172,poma,Catalan,Sounds/cat_poma.mp3,2020-06-08_18h32.39.926,TranslationElicitation_eng-prolific,3.2.4,MacIntel,60,5ea300a5733c8107ec2478a3,,1,0,81,64,1,80
,,,,,,,,,,,,,,,,,,,,,,,,,,,,,,,,,,,,,,,,,c,1.616000175,C,FALSE,,,,,,,121,camisa,Catalan,Sounds/cat_camisa.mp3,2020-06-08_18h32.39.926,TranslationElicitation_eng-prolific,3.2.4,MacIntel,60,5ea300a5733c8107ec2478a3,,1,0,81,16,1,80
,,,,,,,,,,,,,,,,,,,,,,,,,,,,,,,,,,,,,,,,,o,1.700000048,CO,FALSE,,,,,,,121,camisa,Catalan,Sounds/cat_camisa.mp3,2020-06-08_18h32.39.926,TranslationElicitation_eng-prolific,3.2.4,MacIntel,60,5ea300a5733c8107ec2478a3,,1,0,81,16,1,80
,,,,,,,,,,,,,,,,,,,,,,,,,,,,,,,,,,,,,,,,,m,1.799000025,COM,FALSE,,,,,,,121,camisa,Catalan,Sounds/cat_camisa.mp3,2020-06-08_18h32.39.926,TranslationElicitation_eng-prolific,3.2.4,MacIntel,60,5ea300a5733c8107ec2478a3,,1,0,81,16,1,80
,,,,,,,,,,,,,,,,,,,,,,,,,,,,,,,,,,,,,,,,,e,1.883000135,COME,FALSE,,,,,,,121,camisa,Catalan,Sounds/cat_camisa.mp3,2020-06-08_18h32.39.926,TranslationElicitation_eng-prolific,3.2.4,MacIntel,60,5ea300a5733c8107ec2478a3,,1,0,81,16,1,80
,,,,,,,,,,,,,,,,,,,,,,,,,,,,,,,,,,,,,,,,,space,2,COME ,FALSE,,,,,,,121,camisa,Catalan,Sounds/cat_camisa.mp3,2020-06-08_18h32.39.926,TranslationElicitation_eng-prolific,3.2.4,MacIntel,60,5ea300a5733c8107ec2478a3,,1,0,81,16,1,80
,,,,,,,,,,,,,,,,,,,,,,,,,,,,,,,,,,,,,,,,,h,2.117000103,COME H,FALSE,,,,,,,121,camisa,Catalan,Sounds/cat_camisa.mp3,2020-06-08_18h32.39.926,TranslationElicitation_eng-prolific,3.2.4,MacIntel,60,5ea300a5733c8107ec2478a3,,1,0,81,16,1,80
,,,,,,,,,,,,,,,,,,,,,,,,,,,,,,,,,,,,,,,,,e,2.19900012,COME HE,FALSE,,,,,,,121,camisa,Catalan,Sounds/cat_camisa.mp3,2020-06-08_18h32.39.926,TranslationElicitation_eng-prolific,3.2.4,MacIntel,60,5ea300a5733c8107ec2478a3,,1,0,81,16,1,80
,,,,,,,,,,,,,,,,,,,,,,,,,,,,,,,,,,,,,,,,,r,2.269000053,COME HER,FALSE,,,,,,,121,camisa,Catalan,Sounds/cat_camisa.mp3,2020-06-08_18h32.39.926,TranslationElicitation_eng-prolific,3.2.4,MacIntel,60,5ea300a5733c8107ec2478a3,,1,0,81,16,1,80
,,,,,,,,,,,,,,,,,,,,,,,,,,,,,,,,,,,,,,,,,e,2.416000128,COME HERE,FALSE,,,,,,,121,camisa,Catalan,Sounds/cat_camisa.mp3,2020-06-08_18h32.39.926,TranslationElicitation_eng-prolific,3.2.4,MacIntel,60,5ea300a5733c8107ec2478a3,,1,0,81,16,1,80
,,,,,,,,,,,,,,,,,,,,,,,,,,,,,,,,,,,,,,,,,return,2.583000183,COME HERE,FALSE,,,,,,,121,camisa,Catalan,Sounds/cat_camisa.mp3,2020-06-08_18h32.39.926,TranslationElicitation_eng-prolific,3.2.4,MacIntel,60,5ea300a5733c8107ec2478a3,2.583000183,1,0,81,16,1,80
,,,,,,,,,,,,,,,,,,,,,,,,,,,,,,,,,,,,,,,,,,,,,,,,,,,121,camisa,Catalan,Sounds/cat_camisa.mp3,2020-06-08_18h32.39.926,TranslationElicitation_eng-prolific,3.2.4,MacIntel,60,5ea300a5733c8107ec2478a3,,1,0,81,16,1,80
,,,,,,,,,,,,,,,,,,,,,,,,,,,,,,,,,,,,,,,,,c,1.200999975,C,FALSE,,,,,,,127,cotxe,Catalan,Sounds/cat_cotxe.mp3,2020-06-08_18h32.39.926,TranslationElicitation_eng-prolific,3.2.4,MacIntel,60,5ea300a5733c8107ec2478a3,,1,0,81,21,1,80
,,,,,,,,,,,,,,,,,,,,,,,,,,,,,,,,,,,,,,,,,o,1.30099988,CO,FALSE,,,,,,,127,cotxe,Catalan,Sounds/cat_cotxe.mp3,2020-06-08_18h32.39.926,TranslationElicitation_eng-prolific,3.2.4,MacIntel,60,5ea300a5733c8107ec2478a3,,1,0,81,21,1,80
,,,,,,,,,,,,,,,,,,,,,,,,,,,,,,,,,,,,,,,,,a,1.383999825,COA,FALSE,,,,,,,127,cotxe,Catalan,Sounds/cat_cotxe.mp3,2020-06-08_18h32.39.926,TranslationElicitation_eng-prolific,3.2.4,MacIntel,60,5ea300a5733c8107ec2478a3,,1,0,81,21,1,80
,,,,,,,,,,,,,,,,,,,,,,,,,,,,,,,,,,,,,,,,,c,1.600999832,COAC,FALSE,,,,,,,127,cotxe,Catalan,Sounds/cat_cotxe.mp3,2020-06-08_18h32.39.926,TranslationElicitation_eng-prolific,3.2.4,MacIntel,60,5ea300a5733c8107ec2478a3,,1,0,81,21,1,80
,,,,,,,,,,,,,,,,,,,,,,,,,,,,,,,,,,,,,,,,,h,1.666999817,COACH,FALSE,,,,,,,127,cotxe,Catalan,Sounds/cat_cotxe.mp3,2020-06-08_18h32.39.926,TranslationElicitation_eng-prolific,3.2.4,MacIntel,60,5ea300a5733c8107ec2478a3,,1,0,81,21,1,80
,,,,,,,,,,,,,,,,,,,,,,,,,,,,,,,,,,,,,,,,,return,2.233999968,COACH,FALSE,,,,,,,127,cotxe,Catalan,Sounds/cat_cotxe.mp3,2020-06-08_18h32.39.926,TranslationElicitation_eng-prolific,3.2.4,MacIntel,60,5ea300a5733c8107ec2478a3,2.233999968,1,0,81,21,1,80
,,,,,,,,,,,,,,,,,,,,,,,,,,,,,,,,,,,,,,,,,,,,,,,,,,,127,cotxe,Catalan,Sounds/cat_cotxe.mp3,2020-06-08_18h32.39.926,TranslationElicitation_eng-prolific,3.2.4,MacIntel,60,5ea300a5733c8107ec2478a3,,1,0,81,21,1,80
,,,,,,,,,,,,,,,,,,,,,,,,,,,,,,,,,,,,,,,,,h,3.299000025,H,FALSE,,,,,,,149,llibre,Catalan,Sounds/cat_llibre.mp3,2020-06-08_18h32.39.926,TranslationElicitation_eng-prolific,3.2.4,MacIntel,60,5ea300a5733c8107ec2478a3,,1,0,81,42,1,80
,,,,,,,,,,,,,,,,,,,,,,,,,,,,,,,,,,,,,,,,,a,3.433000088,HA,FALSE,,,,,,,149,llibre,Catalan,Sounds/cat_llibre.mp3,2020-06-08_18h32.39.926,TranslationElicitation_eng-prolific,3.2.4,MacIntel,60,5ea300a5733c8107ec2478a3,,1,0,81,42,1,80
,,,,,,,,,,,,,,,,,,,,,,,,,,,,,,,,,,,,,,,,,p,3.582999945,HAP,FALSE,,,,,,,149,llibre,Catalan,Sounds/cat_llibre.mp3,2020-06-08_18h32.39.926,TranslationElicitation_eng-prolific,3.2.4,MacIntel,60,5ea300a5733c8107ec2478a3,,1,0,81,42,1,80
,,,,,,,,,,,,,,,,,,,,,,,,,,,,,,,,,,,,,,,,,p,3.75,HAPP,FALSE,,,,,,,149,llibre,Catalan,Sounds/cat_llibre.mp3,2020-06-08_18h32.39.926,TranslationElicitation_eng-prolific,3.2.4,MacIntel,60,5ea300a5733c8107ec2478a3,,1,0,81,42,1,80
,,,,,,,,,,,,,,,,,,,,,,,,,,,,,,,,,,,,,,,,,y,3.86500001,HAPPY,FALSE,,,,,,,149,llibre,Catalan,Sounds/cat_llibre.mp3,2020-06-08_18h32.39.926,TranslationElicitation_eng-prolific,3.2.4,MacIntel,60,5ea300a5733c8107ec2478a3,,1,0,81,42,1,80
,,,,,,,,,,,,,,,,,,,,,,,,,,,,,,,,,,,,,,,,,return,3.999000072,HAPPY,FALSE,,,,,,,149,llibre,Catalan,Sounds/cat_llibre.mp3,2020-06-08_18h32.39.926,TranslationElicitation_eng-prolific,3.2.4,MacIntel,60,5ea300a5733c8107ec2478a3,3.999000072,1,0,81,42,1,80
,,,,,,,,,,,,,,,,,,,,,,,,,,,,,,,,,,,,,,,,,,,,,,,,,,,149,llibre,Catalan,Sounds/cat_llibre.mp3,2020-06-08_18h32.39.926,TranslationElicitation_eng-prolific,3.2.4,MacIntel,60,5ea300a5733c8107ec2478a3,,1,0,81,42,1,80
,,,,,,,,,,,,,,,,,,,,,,,,,,,,,,,,,,,,,,,,,p,2.315000057,P,FALSE,,,,,,,162,pa,Catalan,Sounds/cat_pa.mp3,2020-06-08_18h32.39.926,TranslationElicitation_eng-prolific,3.2.4,MacIntel,60,5ea300a5733c8107ec2478a3,,1,0,81,54,1,80
,,,,,,,,,,,,,,,,,,,,,,,,,,,,,,,,,,,,,,,,,a,2.417000055,PA,FALSE,,,,,,,162,pa,Catalan,Sounds/cat_pa.mp3,2020-06-08_18h32.39.926,TranslationElicitation_eng-prolific,3.2.4,MacIntel,60,5ea300a5733c8107ec2478a3,,1,0,81,54,1,80
,,,,,,,,,,,,,,,,,,,,,,,,,,,,,,,,,,,,,,,,,r,2.61500001,PAR,FALSE,,,,,,,162,pa,Catalan,Sounds/cat_pa.mp3,2020-06-08_18h32.39.926,TranslationElicitation_eng-prolific,3.2.4,MacIntel,60,5ea300a5733c8107ec2478a3,,1,0,81,54,1,80
,,,,,,,,,,,,,,,,,,,,,,,,,,,,,,,,,,,,,,,,,k,2.75,PARK,FALSE,,,,,,,162,pa,Catalan,Sounds/cat_pa.mp3,2020-06-08_18h32.39.926,TranslationElicitation_eng-prolific,3.2.4,MacIntel,60,5ea300a5733c8107ec2478a3,,1,0,81,54,1,80
,,,,,,,,,,,,,,,,,,,,,,,,,,,,,,,,,,,,,,,,,return,3.25,PARK,FALSE,,,,,,,162,pa,Catalan,Sounds/cat_pa.mp3,2020-06-08_18h32.39.926,TranslationElicitation_eng-prolific,3.2.4,MacIntel,60,5ea300a5733c8107ec2478a3,3.25,1,0,81,54,1,80
,,,,,,,,,,,,,,,,,,,,,,,,,,,,,,,,,,,,,,,,,,,,,,,,,,,162,pa,Catalan,Sounds/cat_pa.mp3,2020-06-08_18h32.39.926,TranslationElicitation_eng-prolific,3.2.4,MacIntel,60,5ea300a5733c8107ec2478a3,,1,0,81,54,1,80
,,,,,,,,,,,,,,,,,,,,,,,,,,,,,,,,,,,,,,,,,g,1.48300004,G,FALSE,,,,,,,145,got,Catalan,Sounds/cat_got.mp3,2020-06-08_18h32.39.926,TranslationElicitation_eng-prolific,3.2.4,MacIntel,60,5ea300a5733c8107ec2478a3,,1,0,81,39,1,80
,,,,,,,,,,,,,,,,,,,,,,,,,,,,,,,,,,,,,,,,,o,1.59800005,GO,FALSE,,,,,,,145,got,Catalan,Sounds/cat_got.mp3,2020-06-08_18h32.39.926,TranslationElicitation_eng-prolific,3.2.4,MacIntel,60,5ea300a5733c8107ec2478a3,,1,0,81,39,1,80
,,,,,,,,,,,,,,,,,,,,,,,,,,,,,,,,,,,,,,,,,a,1.749000072,GOA,FALSE,,,,,,,145,got,Catalan,Sounds/cat_got.mp3,2020-06-08_18h32.39.926,TranslationElicitation_eng-prolific,3.2.4,MacIntel,60,5ea300a5733c8107ec2478a3,,1,0,81,39,1,80
,,,,,,,,,,,,,,,,,,,,,,,,,,,,,,,,,,,,,,,,,t,2,GOAT,FALSE,,,,,,,145,got,Catalan,Sounds/cat_got.mp3,2020-06-08_18h32.39.926,TranslationElicitation_eng-prolific,3.2.4,MacIntel,60,5ea300a5733c8107ec2478a3,,1,0,81,39,1,80
,,,,,,,,,,,,,,,,,,,,,,,,,,,,,,,,,,,,,,,,,return,2.164999962,GOAT,FALSE,,,,,,,145,got,Catalan,Sounds/cat_got.mp3,2020-06-08_18h32.39.926,TranslationElicitation_eng-prolific,3.2.4,MacIntel,60,5ea300a5733c8107ec2478a3,2.164999962,1,0,81,39,1,80
,,,,,,,,,,,,,,,,,,,,,,,,,,,,,,,,,,,,,,,,,,,,,,,,,,,145,got,Catalan,Sounds/cat_got.mp3,2020-06-08_18h32.39.926,TranslationElicitation_eng-prolific,3.2.4,MacIntel,60,5ea300a5733c8107ec2478a3,,1,0,81,39,1,80
,,,,,,,,,,,,,,,,,,,,,,,,,,,,,,,,,,,,,,,,,c,1.984000206,C,FALSE,,,,,,,139,galleda,Catalan,Sounds/cat_galleda.mp3,2020-06-08_18h32.39.926,TranslationElicitation_eng-prolific,3.2.4,MacIntel,60,5ea300a5733c8107ec2478a3,,1,0,81,33,1,80
,,,,,,,,,,,,,,,,,,,,,,,,,,,,,,,,,,,,,,,,,o,2.101000071,CO,FALSE,,,,,,,139,galleda,Catalan,Sounds/cat_galleda.mp3,2020-06-08_18h32.39.926,TranslationElicitation_eng-prolific,3.2.4,MacIntel,60,5ea300a5733c8107ec2478a3,,1,0,81,33,1,80
,,,,,,,,,,,,,,,,,,,,,,,,,,,,,,,,,,,,,,,,,l,2.300000191,COL,FALSE,,,,,,,139,galleda,Catalan,Sounds/cat_galleda.mp3,2020-06-08_18h32.39.926,TranslationElicitation_eng-prolific,3.2.4,MacIntel,60,5ea300a5733c8107ec2478a3,,1,0,81,33,1,80
,,,,,,,,,,,,,,,,,,,,,,,,,,,,,,,,,,,,,,,,,l,2.418000221,COLL,FALSE,,,,,,,139,galleda,Catalan,Sounds/cat_galleda.mp3,2020-06-08_18h32.39.926,TranslationElicitation_eng-prolific,3.2.4,MacIntel,60,5ea300a5733c8107ec2478a3,,1,0,81,33,1,80
,,,,,,,,,,,,,,,,,,,,,,,,,,,,,,,,,,,,,,,,,e,2.451000214,COLLE,FALSE,,,,,,,139,galleda,Catalan,Sounds/cat_galleda.mp3,2020-06-08_18h32.39.926,TranslationElicitation_eng-prolific,3.2.4,MacIntel,60,5ea300a5733c8107ec2478a3,,1,0,81,33,1,80
,,,,,,,,,,,,,,,,,,,,,,,,,,,,,,,,,,,,,,,,,c,2.684000015,COLLEC,FALSE,,,,,,,139,galleda,Catalan,Sounds/cat_galleda.mp3,2020-06-08_18h32.39.926,TranslationElicitation_eng-prolific,3.2.4,MacIntel,60,5ea300a5733c8107ec2478a3,,1,0,81,33,1,80
,,,,,,,,,,,,,,,,,,,,,,,,,,,,,,,,,,,,,,,,,t,2.902000189,COLLECT,FALSE,,,,,,,139,galleda,Catalan,Sounds/cat_galleda.mp3,2020-06-08_18h32.39.926,TranslationElicitation_eng-prolific,3.2.4,MacIntel,60,5ea300a5733c8107ec2478a3,,1,0,81,33,1,80
,,,,,,,,,,,,,,,,,,,,,,,,,,,,,,,,,,,,,,,,,return,3.051000118,COLLECT,FALSE,,,,,,,139,galleda,Catalan,Sounds/cat_galleda.mp3,2020-06-08_18h32.39.926,TranslationElicitation_eng-prolific,3.2.4,MacIntel,60,5ea300a5733c8107ec2478a3,3.051000118,1,0,81,33,1,80
,,,,,,,,,,,,,,,,,,,,,,,,,,,,,,,,,,,,,,,,,,,,,,,,,,,139,galleda,Catalan,Sounds/cat_galleda.mp3,2020-06-08_18h32.39.926,TranslationElicitation_eng-prolific,3.2.4,MacIntel,60,5ea300a5733c8107ec2478a3,,1,0,81,33,1,80
,,,,,,,,,,,,,,,,,,,,,,,,,,,,,,,,,,,,,,,,,o,1.950999975,O,FALSE,,,,,,,125,colom,Catalan,Sounds/cat_colom.mp3,2020-06-08_18h32.39.926,TranslationElicitation_eng-prolific,3.2.4,MacIntel,60,5ea300a5733c8107ec2478a3,,1,0,81,20,1,80
,,,,,,,,,,,,,,,,,,,,,,,,,,,,,,,,,,,,,,,,,backspace,2.750999928,,TRUE,,,,,,,125,colom,Catalan,Sounds/cat_colom.mp3,2020-06-08_18h32.39.926,TranslationElicitation_eng-prolific,3.2.4,MacIntel,60,5ea300a5733c8107ec2478a3,,1,0,81,20,1,80
,,,,,,,,,,,,,,,,,,,,,,,,,,,,,,,,,,,,,,,,,c,3.13499999,C,TRUE,,,,,,,125,colom,Catalan,Sounds/cat_colom.mp3,2020-06-08_18h32.39.926,TranslationElicitation_eng-prolific,3.2.4,MacIntel,60,5ea300a5733c8107ec2478a3,,1,0,81,20,1,80
,,,,,,,,,,,,,,,,,,,,,,,,,,,,,,,,,,,,,,,,,o,3.468999863,CO,TRUE,,,,,,,125,colom,Catalan,Sounds/cat_colom.mp3,2020-06-08_18h32.39.926,TranslationElicitation_eng-prolific,3.2.4,MacIntel,60,5ea300a5733c8107ec2478a3,,1,0,81,20,1,80
,,,,,,,,,,,,,,,,,,,,,,,,,,,,,,,,,,,,,,,,,l,3.616999865,COL,TRUE,,,,,,,125,colom,Catalan,Sounds/cat_colom.mp3,2020-06-08_18h32.39.926,TranslationElicitation_eng-prolific,3.2.4,MacIntel,60,5ea300a5733c8107ec2478a3,,1,0,81,20,1,80
,,,,,,,,,,,,,,,,,,,,,,,,,,,,,,,,,,,,,,,,,d,3.917999983,COLD,TRUE,,,,,,,125,colom,Catalan,Sounds/cat_colom.mp3,2020-06-08_18h32.39.926,TranslationElicitation_eng-prolific,3.2.4,MacIntel,60,5ea300a5733c8107ec2478a3,,1,0,81,20,1,80
,,,,,,,,,,,,,,,,,,,,,,,,,,,,,,,,,,,,,,,,,return,4.13499999,COLD,TRUE,,,,,,,125,colom,Catalan,Sounds/cat_colom.mp3,2020-06-08_18h32.39.926,TranslationElicitation_eng-prolific,3.2.4,MacIntel,60,5ea300a5733c8107ec2478a3,4.13499999,1,0,81,20,1,80
,,,,,,,,,,,,,,,,,,,,,,,,,,,,,,,,,,,,,,,,,,,,,,,,,,,125,colom,Catalan,Sounds/cat_colom.mp3,2020-06-08_18h32.39.926,TranslationElicitation_eng-prolific,3.2.4,MacIntel,60,5ea300a5733c8107ec2478a3,,1,0,81,20,1,80
,,,,,,,,,,,,,,,,,,,,,,,,,,,,,,,,,,,,,,,,,c,2.316999912,C,FALSE,,,,,,,123,cavall,Catalan,Sounds/cat_cavall.mp3,2020-06-08_18h32.39.926,TranslationElicitation_eng-prolific,3.2.4,MacIntel,60,5ea300a5733c8107ec2478a3,,1,0,81,18,1,80
,,,,,,,,,,,,,,,,,,,,,,,,,,,,,,,,,,,,,,,,,a,2.516000032,CA,FALSE,,,,,,,123,cavall,Catalan,Sounds/cat_cavall.mp3,2020-06-08_18h32.39.926,TranslationElicitation_eng-prolific,3.2.4,MacIntel,60,5ea300a5733c8107ec2478a3,,1,0,81,18,1,80
,,,,,,,,,,,,,,,,,,,,,,,,,,,,,,,,,,,,,,,,,r,2.750999928,CAR,FALSE,,,,,,,123,cavall,Catalan,Sounds/cat_cavall.mp3,2020-06-08_18h32.39.926,TranslationElicitation_eng-prolific,3.2.4,MacIntel,60,5ea300a5733c8107ec2478a3,,1,0,81,18,1,80
,,,,,,,,,,,,,,,,,,,,,,,,,,,,,,,,,,,,,,,,,a,2.965999842,CARA,FALSE,,,,,,,123,cavall,Catalan,Sounds/cat_cavall.mp3,2020-06-08_18h32.39.926,TranslationElicitation_eng-prolific,3.2.4,MacIntel,60,5ea300a5733c8107ec2478a3,,1,0,81,18,1,80
,,,,,,,,,,,,,,,,,,,,,,,,,,,,,,,,,,,,,,,,,v,4.965999842,CARAV,FALSE,,,,,,,123,cavall,Catalan,Sounds/cat_cavall.mp3,2020-06-08_18h32.39.926,TranslationElicitation_eng-prolific,3.2.4,MacIntel,60,5ea300a5733c8107ec2478a3,,1,0,81,18,1,80
,,,,,,,,,,,,,,,,,,,,,,,,,,,,,,,,,,,,,,,,,a,5.200000048,CARAVA,FALSE,,,,,,,123,cavall,Catalan,Sounds/cat_cavall.mp3,2020-06-08_18h32.39.926,TranslationElicitation_eng-prolific,3.2.4,MacIntel,60,5ea300a5733c8107ec2478a3,,1,0,81,18,1,80
,,,,,,,,,,,,,,,,,,,,,,,,,,,,,,,,,,,,,,,,,n,5.299999952,CARAVAN,FALSE,,,,,,,123,cavall,Catalan,Sounds/cat_cavall.mp3,2020-06-08_18h32.39.926,TranslationElicitation_eng-prolific,3.2.4,MacIntel,60,5ea300a5733c8107ec2478a3,,1,0,81,18,1,80
,,,,,,,,,,,,,,,,,,,,,,,,,,,,,,,,,,,,,,,,,return,5.75,CARAVAN,FALSE,,,,,,,123,cavall,Catalan,Sounds/cat_cavall.mp3,2020-06-08_18h32.39.926,TranslationElicitation_eng-prolific,3.2.4,MacIntel,60,5ea300a5733c8107ec2478a3,5.75,1,0,81,18,1,80
,,,,,,,,,,,,,,,,,,,,,,,,,,,,,,,,,,,,,,,,,,,,,,,,,,,123,cavall,Catalan,Sounds/cat_cavall.mp3,2020-06-08_18h32.39.926,TranslationElicitation_eng-prolific,3.2.4,MacIntel,60,5ea300a5733c8107ec2478a3,,1,0,81,18,1,80
,,,,,,,,,,,,,,,,,,,,,,,,,,,,,,,,,,,,,,,,,s,3.881999969,S,FALSE,,,,,,,151,lluna,Catalan,Sounds/cat_lluna.mp3,2020-06-08_18h32.39.926,TranslationElicitation_eng-prolific,3.2.4,MacIntel,60,5ea300a5733c8107ec2478a3,,1,0,81,44,1,80
,,,,,,,,,,,,,,,,,,,,,,,,,,,,,,,,,,,,,,,,,t,4.117000103,ST,FALSE,,,,,,,151,lluna,Catalan,Sounds/cat_lluna.mp3,2020-06-08_18h32.39.926,TranslationElicitation_eng-prolific,3.2.4,MacIntel,60,5ea300a5733c8107ec2478a3,,1,0,81,44,1,80
,,,,,,,,,,,,,,,,,,,,,,,,,,,,,,,,,,,,,,,,,a,4.333000183,STA,FALSE,,,,,,,151,lluna,Catalan,Sounds/cat_lluna.mp3,2020-06-08_18h32.39.926,TranslationElicitation_eng-prolific,3.2.4,MacIntel,60,5ea300a5733c8107ec2478a3,,1,0,81,44,1,80
,,,,,,,,,,,,,,,,,,,,,,,,,,,,,,,,,,,,,,,,,r,4.549000025,STAR,FALSE,,,,,,,151,lluna,Catalan,Sounds/cat_lluna.mp3,2020-06-08_18h32.39.926,TranslationElicitation_eng-prolific,3.2.4,MacIntel,60,5ea300a5733c8107ec2478a3,,1,0,81,44,1,80
,,,,,,,,,,,,,,,,,,,,,,,,,,,,,,,,,,,,,,,,,return,4.93200016,STAR,FALSE,,,,,,,151,lluna,Catalan,Sounds/cat_lluna.mp3,2020-06-08_18h32.39.926,TranslationElicitation_eng-prolific,3.2.4,MacIntel,60,5ea300a5733c8107ec2478a3,4.93200016,1,0,81,44,1,80
,,,,,,,,,,,,,,,,,,,,,,,,,,,,,,,,,,,,,,,,,,,,,,,,,,,151,lluna,Catalan,Sounds/cat_lluna.mp3,2020-06-08_18h32.39.926,TranslationElicitation_eng-prolific,3.2.4,MacIntel,60,5ea300a5733c8107ec2478a3,,1,0,81,44,1,80
,,,,,,,,,,,,,,,,,,,,,,,,,,,,,,,,,,,,,,,,,b,1.634000063,B,FALSE,,,,,,,118,bou,Catalan,Sounds/cat_bou.mp3,2020-06-08_18h32.39.926,TranslationElicitation_eng-prolific,3.2.4,MacIntel,60,5ea300a5733c8107ec2478a3,,1,0,81,13,1,80
,,,,,,,,,,,,,,,,,,,,,,,,,,,,,,,,,,,,,,,,,o,1.73300004,BO,FALSE,,,,,,,118,bou,Catalan,Sounds/cat_bou.mp3,2020-06-08_18h32.39.926,TranslationElicitation_eng-prolific,3.2.4,MacIntel,60,5ea300a5733c8107ec2478a3,,1,0,81,13,1,80
,,,,,,,,,,,,,,,,,,,,,,,,,,,,,,,,,,,,,,,,,w,1.981999874,BOW,FALSE,,,,,,,118,bou,Catalan,Sounds/cat_bou.mp3,2020-06-08_18h32.39.926,TranslationElicitation_eng-prolific,3.2.4,MacIntel,60,5ea300a5733c8107ec2478a3,,1,0,81,13,1,80
,,,,,,,,,,,,,,,,,,,,,,,,,,,,,,,,,,,,,,,,,l,2.066999912,BOWL,FALSE,,,,,,,118,bou,Catalan,Sounds/cat_bou.mp3,2020-06-08_18h32.39.926,TranslationElicitation_eng-prolific,3.2.4,MacIntel,60,5ea300a5733c8107ec2478a3,,1,0,81,13,1,80
,,,,,,,,,,,,,,,,,,,,,,,,,,,,,,,,,,,,,,,,,return,2.507999897,BOWL,FALSE,,,,,,,118,bou,Catalan,Sounds/cat_bou.mp3,2020-06-08_18h32.39.926,TranslationElicitation_eng-prolific,3.2.4,MacIntel,60,5ea300a5733c8107ec2478a3,2.507999897,1,0,81,13,1,80
,,,,,,,,,,,,,,,,,,,,,,,,,,,,,,,,,,,,,,,,,,,,,,,,,,,118,bou,Catalan,Sounds/cat_bou.mp3,2020-06-08_18h32.39.926,TranslationElicitation_eng-prolific,3.2.4,MacIntel,60,5ea300a5733c8107ec2478a3,,1,0,81,13,1,80
,,,,,,,,,,,,,,,,,,,,,,,,,,,,,,,,,,,,,,,,,a,3.21600008,A,FALSE,,,,,,,107,amanida,Catalan,Sounds/cat_amanida.mp3,2020-06-08_18h32.39.926,TranslationElicitation_eng-prolific,3.2.4,MacIntel,60,5ea300a5733c8107ec2478a3,,1,0,81,3,1,80
,,,,,,,,,,,,,,,,,,,,,,,,,,,,,,,,,,,,,,,,,n,3.315999985,AN,FALSE,,,,,,,107,amanida,Catalan,Sounds/cat_amanida.mp3,2020-06-08_18h32.39.926,TranslationElicitation_eng-prolific,3.2.4,MacIntel,60,5ea300a5733c8107ec2478a3,,1,0,81,3,1,80
,,,,,,,,,,,,,,,,,,,,,,,,,,,,,,,,,,,,,,,,,o,3.44900012,ANO,FALSE,,,,,,,107,amanida,Catalan,Sounds/cat_amanida.mp3,2020-06-08_18h32.39.926,TranslationElicitation_eng-prolific,3.2.4,MacIntel,60,5ea300a5733c8107ec2478a3,,1,0,81,3,1,80
,,,,,,,,,,,,,,,,,,,,,,,,,,,,,,,,,,,,,,,,,t,3.548000097,ANOT,FALSE,,,,,,,107,amanida,Catalan,Sounds/cat_amanida.mp3,2020-06-08_18h32.39.926,TranslationElicitation_eng-prolific,3.2.4,MacIntel,60,5ea300a5733c8107ec2478a3,,1,0,81,3,1,80
,,,,,,,,,,,,,,,,,,,,,,,,,,,,,,,,,,,,,,,,,h,3.617000103,ANOTH,FALSE,,,,,,,107,amanida,Catalan,Sounds/cat_amanida.mp3,2020-06-08_18h32.39.926,TranslationElicitation_eng-prolific,3.2.4,MacIntel,60,5ea300a5733c8107ec2478a3,,1,0,81,3,1,80
,,,,,,,,,,,,,,,,,,,,,,,,,,,,,,,,,,,,,,,,,e,3.749000072,ANOTHE,FALSE,,,,,,,107,amanida,Catalan,Sounds/cat_amanida.mp3,2020-06-08_18h32.39.926,TranslationElicitation_eng-prolific,3.2.4,MacIntel,60,5ea300a5733c8107ec2478a3,,1,0,81,3,1,80
,,,,,,,,,,,,,,,,,,,,,,,,,,,,,,,,,,,,,,,,,r,3.832999945,ANOTHER,FALSE,,,,,,,107,amanida,Catalan,Sounds/cat_amanida.mp3,2020-06-08_18h32.39.926,TranslationElicitation_eng-prolific,3.2.4,MacIntel,60,5ea300a5733c8107ec2478a3,,1,0,81,3,1,80
,,,,,,,,,,,,,,,,,,,,,,,,,,,,,,,,,,,,,,,,,return,3.98300004,ANOTHER,FALSE,,,,,,,107,amanida,Catalan,Sounds/cat_amanida.mp3,2020-06-08_18h32.39.926,TranslationElicitation_eng-prolific,3.2.4,MacIntel,60,5ea300a5733c8107ec2478a3,3.98300004,1,0,81,3,1,80
,,,,,,,,,,,,,,,,,,,,,,,,,,,,,,,,,,,,,,,,,,,,,,,,,,,107,amanida,Catalan,Sounds/cat_amanida.mp3,2020-06-08_18h32.39.926,TranslationElicitation_eng-prolific,3.2.4,MacIntel,60,5ea300a5733c8107ec2478a3,,1,0,81,3,1,80
,,,,,,,,,,,,,,,,,,,,,,,,,,,,,,,,,,,,,,,,,t,1.082999945,T,FALSE,,,,,,,182,tomaquet,Catalan,Sounds/cat_tomaquet.mp3,2020-06-08_18h32.39.926,TranslationElicitation_eng-prolific,3.2.4,MacIntel,60,5ea300a5733c8107ec2478a3,,1,0,81,73,1,80
,,,,,,,,,,,,,,,,,,,,,,,,,,,,,,,,,,,,,,,,,o,1.217000008,TO,FALSE,,,,,,,182,tomaquet,Catalan,Sounds/cat_tomaquet.mp3,2020-06-08_18h32.39.926,TranslationElicitation_eng-prolific,3.2.4,MacIntel,60,5ea300a5733c8107ec2478a3,,1,0,81,73,1,80
,,,,,,,,,,,,,,,,,,,,,,,,,,,,,,,,,,,,,,,,,m,1.299999952,TOM,FALSE,,,,,,,182,tomaquet,Catalan,Sounds/cat_tomaquet.mp3,2020-06-08_18h32.39.926,TranslationElicitation_eng-prolific,3.2.4,MacIntel,60,5ea300a5733c8107ec2478a3,,1,0,81,73,1,80
,,,,,,,,,,,,,,,,,,,,,,,,,,,,,,,,,,,,,,,,,a,1.417000055,TOMA,FALSE,,,,,,,182,tomaquet,Catalan,Sounds/cat_tomaquet.mp3,2020-06-08_18h32.39.926,TranslationElicitation_eng-prolific,3.2.4,MacIntel,60,5ea300a5733c8107ec2478a3,,1,0,81,73,1,80
,,,,,,,,,,,,,,,,,,,,,,,,,,,,,,,,,,,,,,,,,t,1.651000023,TOMAT,FALSE,,,,,,,182,tomaquet,Catalan,Sounds/cat_tomaquet.mp3,2020-06-08_18h32.39.926,TranslationElicitation_eng-prolific,3.2.4,MacIntel,60,5ea300a5733c8107ec2478a3,,1,0,81,73,1,80
,,,,,,,,,,,,,,,,,,,,,,,,,,,,,,,,,,,,,,,,,o,2.01699996,TOMATO,FALSE,,,,,,,182,tomaquet,Catalan,Sounds/cat_tomaquet.mp3,2020-06-08_18h32.39.926,TranslationElicitation_eng-prolific,3.2.4,MacIntel,60,5ea300a5733c8107ec2478a3,,1,0,81,73,1,80
,,,,,,,,,,,,,,,,,,,,,,,,,,,,,,,,,,,,,,,,,return,2.282000065,TOMATO,FALSE,,,,,,,182,tomaquet,Catalan,Sounds/cat_tomaquet.mp3,2020-06-08_18h32.39.926,TranslationElicitation_eng-prolific,3.2.4,MacIntel,60,5ea300a5733c8107ec2478a3,2.282000065,1,0,81,73,1,80
,,,,,,,,,,,,,,,,,,,,,,,,,,,,,,,,,,,,,,,,,,,,,,,,,,,182,tomaquet,Catalan,Sounds/cat_tomaquet.mp3,2020-06-08_18h32.39.926,TranslationElicitation_eng-prolific,3.2.4,MacIntel,60,5ea300a5733c8107ec2478a3,,1,0,81,73,1,80
,,,,,,,,,,,,,,,,,,,,,,,,,,,,,,,,,,,,,,,,,u,6.167000055,U,FALSE,,,,,,,165,pernil,Catalan,Sounds/cat_pernil.mp3,2020-06-08_18h32.39.926,TranslationElicitation_eng-prolific,3.2.4,MacIntel,60,5ea300a5733c8107ec2478a3,,1,0,81,57,1,80
,,,,,,,,,,,,,,,,,,,,,,,,,,,,,,,,,,,,,,,,,n,6.25,UN,FALSE,,,,,,,165,pernil,Catalan,Sounds/cat_pernil.mp3,2020-06-08_18h32.39.926,TranslationElicitation_eng-prolific,3.2.4,MacIntel,60,5ea300a5733c8107ec2478a3,,1,0,81,57,1,80
,,,,,,,,,,,,,,,,,,,,,,,,,,,,,,,,,,,,,,,,,c,6.384000063,UNC,FALSE,,,,,,,165,pernil,Catalan,Sounds/cat_pernil.mp3,2020-06-08_18h32.39.926,TranslationElicitation_eng-prolific,3.2.4,MacIntel,60,5ea300a5733c8107ec2478a3,,1,0,81,57,1,80
,,,,,,,,,,,,,,,,,,,,,,,,,,,,,,,,,,,,,,,,,l,6.517000198,UNCL,FALSE,,,,,,,165,pernil,Catalan,Sounds/cat_pernil.mp3,2020-06-08_18h32.39.926,TranslationElicitation_eng-prolific,3.2.4,MacIntel,60,5ea300a5733c8107ec2478a3,,1,0,81,57,1,80
,,,,,,,,,,,,,,,,,,,,,,,,,,,,,,,,,,,,,,,,,e,6.616000175,UNCLE,FALSE,,,,,,,165,pernil,Catalan,Sounds/cat_pernil.mp3,2020-06-08_18h32.39.926,TranslationElicitation_eng-prolific,3.2.4,MacIntel,60,5ea300a5733c8107ec2478a3,,1,0,81,57,1,80
,,,,,,,,,,,,,,,,,,,,,,,,,,,,,,,,,,,,,,,,,return,6.734000206,UNCLE,FALSE,,,,,,,165,pernil,Catalan,Sounds/cat_pernil.mp3,2020-06-08_18h32.39.926,TranslationElicitation_eng-prolific,3.2.4,MacIntel,60,5ea300a5733c8107ec2478a3,6.734000206,1,0,81,57,1,80
,,,,,,,,,,,,,,,,,,,,,,,,,,,,,,,,,,,,,,,,,,,,,,,,,,,165,pernil,Catalan,Sounds/cat_pernil.mp3,2020-06-08_18h32.39.926,TranslationElicitation_eng-prolific,3.2.4,MacIntel,60,5ea300a5733c8107ec2478a3,,1,0,81,57,1,80
,,,,,,,,,,,,,,,,,,,,,,,,,,,,,,,,,,,,,,,,,f,1.61500001,F,FALSE,,,,,,,136,forquilla,Catalan,Sounds/cat_forquilla.mp3,2020-06-08_18h32.39.926,TranslationElicitation_eng-prolific,3.2.4,MacIntel,60,5ea300a5733c8107ec2478a3,,1,0,81,30,1,80
,,,,,,,,,,,,,,,,,,,,,,,,,,,,,,,,,,,,,,,,,o,2.398999929,FO,FALSE,,,,,,,136,forquilla,Catalan,Sounds/cat_forquilla.mp3,2020-06-08_18h32.39.926,TranslationElicitation_eng-prolific,3.2.4,MacIntel,60,5ea300a5733c8107ec2478a3,,1,0,81,30,1,80
,,,,,,,,,,,,,,,,,,,,,,,,,,,,,,,,,,,,,,,,,r,2.531999826,FOR,FALSE,,,,,,,136,forquilla,Catalan,Sounds/cat_forquilla.mp3,2020-06-08_18h32.39.926,TranslationElicitation_eng-prolific,3.2.4,MacIntel,60,5ea300a5733c8107ec2478a3,,1,0,81,30,1,80
,,,,,,,,,,,,,,,,,,,,,,,,,,,,,,,,,,,,,,,,,g,2.631999969,FORG,FALSE,,,,,,,136,forquilla,Catalan,Sounds/cat_forquilla.mp3,2020-06-08_18h32.39.926,TranslationElicitation_eng-prolific,3.2.4,MacIntel,60,5ea300a5733c8107ec2478a3,,1,0,81,30,1,80
,,,,,,,,,,,,,,,,,,,,,,,,,,,,,,,,,,,,,,,,,e,2.76699996,FORGE,FALSE,,,,,,,136,forquilla,Catalan,Sounds/cat_forquilla.mp3,2020-06-08_18h32.39.926,TranslationElicitation_eng-prolific,3.2.4,MacIntel,60,5ea300a5733c8107ec2478a3,,1,0,81,30,1,80
,,,,,,,,,,,,,,,,,,,,,,,,,,,,,,,,,,,,,,,,,t,2.931999922,FORGET,FALSE,,,,,,,136,forquilla,Catalan,Sounds/cat_forquilla.mp3,2020-06-08_18h32.39.926,TranslationElicitation_eng-prolific,3.2.4,MacIntel,60,5ea300a5733c8107ec2478a3,,1,0,81,30,1,80
,,,,,,,,,,,,,,,,,,,,,,,,,,,,,,,,,,,,,,,,,return,3.066999912,FORGET,FALSE,,,,,,,136,forquilla,Catalan,Sounds/cat_forquilla.mp3,2020-06-08_18h32.39.926,TranslationElicitation_eng-prolific,3.2.4,MacIntel,60,5ea300a5733c8107ec2478a3,3.066999912,1,0,81,30,1,80
,,,,,,,,,,,,,,,,,,,,,,,,,,,,,,,,,,,,,,,,,,,,,,,,,,,136,forquilla,Catalan,Sounds/cat_forquilla.mp3,2020-06-08_18h32.39.926,TranslationElicitation_eng-prolific,3.2.4,MacIntel,60,5ea300a5733c8107ec2478a3,,1,0,81,30,1,80
,,,,,,,,,,,,,,,,,,,,,,,,,,,,,,,,,,,,,,,,,b,2.467000008,B,FALSE,,,,,,,110,berenar,Catalan,Sounds/cat_berenar.mp3,2020-06-08_18h32.39.926,TranslationElicitation_eng-prolific,3.2.4,MacIntel,60,5ea300a5733c8107ec2478a3,,1,0,81,5,1,80
,,,,,,,,,,,,,,,,,,,,,,,,,,,,,,,,,,,,,,,,,r,2.51699996,BR,FALSE,,,,,,,110,berenar,Catalan,Sounds/cat_berenar.mp3,2020-06-08_18h32.39.926,TranslationElicitation_eng-prolific,3.2.4,MacIntel,60,5ea300a5733c8107ec2478a3,,1,0,81,5,1,80
,,,,,,,,,,,,,,,,,,,,,,,,,,,,,,,,,,,,,,,,,o,2.649999857,BRO,FALSE,,,,,,,110,berenar,Catalan,Sounds/cat_berenar.mp3,2020-06-08_18h32.39.926,TranslationElicitation_eng-prolific,3.2.4,MacIntel,60,5ea300a5733c8107ec2478a3,,1,0,81,5,1,80
,,,,,,,,,,,,,,,,,,,,,,,,,,,,,,,,,,,,,,,,,w,2.717999935,BROW,FALSE,,,,,,,110,berenar,Catalan,Sounds/cat_berenar.mp3,2020-06-08_18h32.39.926,TranslationElicitation_eng-prolific,3.2.4,MacIntel,60,5ea300a5733c8107ec2478a3,,1,0,81,5,1,80
,,,,,,,,,,,,,,,,,,,,,,,,,,,,,,,,,,,,,,,,,n,3.55099988,BROWN,FALSE,,,,,,,110,berenar,Catalan,Sounds/cat_berenar.mp3,2020-06-08_18h32.39.926,TranslationElicitation_eng-prolific,3.2.4,MacIntel,60,5ea300a5733c8107ec2478a3,,1,0,81,5,1,80
,,,,,,,,,,,,,,,,,,,,,,,,,,,,,,,,,,,,,,,,,return,3.784999847,BROWN,FALSE,,,,,,,110,berenar,Catalan,Sounds/cat_berenar.mp3,2020-06-08_18h32.39.926,TranslationElicitation_eng-prolific,3.2.4,MacIntel,60,5ea300a5733c8107ec2478a3,3.784999847,1,0,81,5,1,80
,,,,,,,,,,,,,,,,,,,,,,,,,,,,,,,,,,,,,,,,,,,,,,,,,,,110,berenar,Catalan,Sounds/cat_berenar.mp3,2020-06-08_18h32.39.926,TranslationElicitation_eng-prolific,3.2.4,MacIntel,60,5ea300a5733c8107ec2478a3,,1,0,81,5,1,80
,,,,,,,,,,,,,,,,,,,,,,,,,,,,,,,,,,,,,,,,,f,2.765000105,F,FALSE,,,,,,,163,papallona,Catalan,Sounds/cat_papallona.mp3,2020-06-08_18h32.39.926,TranslationElicitation_eng-prolific,3.2.4,MacIntel,60,5ea300a5733c8107ec2478a3,,1,0,81,55,1,80
,,,,,,,,,,,,,,,,,,,,,,,,,,,,,,,,,,,,,,,,,a,2.98300004,FA,FALSE,,,,,,,163,papallona,Catalan,Sounds/cat_papallona.mp3,2020-06-08_18h32.39.926,TranslationElicitation_eng-prolific,3.2.4,MacIntel,60,5ea300a5733c8107ec2478a3,,1,0,81,55,1,80
,,,,,,,,,,,,,,,,,,,,,,,,,,,,,,,,,,,,,,,,,t,3.21600008,FAT,FALSE,,,,,,,163,papallona,Catalan,Sounds/cat_papallona.mp3,2020-06-08_18h32.39.926,TranslationElicitation_eng-prolific,3.2.4,MacIntel,60,5ea300a5733c8107ec2478a3,,1,0,81,55,1,80
,,,,,,,,,,,,,,,,,,,,,,,,,,,,,,,,,,,,,,,,,h,3.299999952,FATH,FALSE,,,,,,,163,papallona,Catalan,Sounds/cat_papallona.mp3,2020-06-08_18h32.39.926,TranslationElicitation_eng-prolific,3.2.4,MacIntel,60,5ea300a5733c8107ec2478a3,,1,0,81,55,1,80
,,,,,,,,,,,,,,,,,,,,,,,,,,,,,,,,,,,,,,,,,a,3.467000008,FATHA,FALSE,,,,,,,163,papallona,Catalan,Sounds/cat_papallona.mp3,2020-06-08_18h32.39.926,TranslationElicitation_eng-prolific,3.2.4,MacIntel,60,5ea300a5733c8107ec2478a3,,1,0,81,55,1,80
,,,,,,,,,,,,,,,,,,,,,,,,,,,,,,,,,,,,,,,,,return,3.848999977,FATHA,FALSE,,,,,,,163,papallona,Catalan,Sounds/cat_papallona.mp3,2020-06-08_18h32.39.926,TranslationElicitation_eng-prolific,3.2.4,MacIntel,60,5ea300a5733c8107ec2478a3,3.848999977,1,0,81,55,1,80
,,,,,,,,,,,,,,,,,,,,,,,,,,,,,,,,,,,,,,,,,,,,,,,,,,,163,papallona,Catalan,Sounds/cat_papallona.mp3,2020-06-08_18h32.39.926,TranslationElicitation_eng-prolific,3.2.4,MacIntel,60,5ea300a5733c8107ec2478a3,,1,0,81,55,1,80
