consentKey.keys,consentKey.rt,languageL1Key.keys,languageL1Key.rt,languageL2,languageL2OralKey.keys,languageL2OralKey.rt,languageL2WrittenKey.keys,languageL2WrittenKey.rt,languageL3OralKey.keys,languageL3OralKey.rt,languageL3WrittenKey.keys,languageL3WrittenKey.rt,languageCatalanOralKey.keys,languageCatalanOralKey.rt,languageCatalanWrittenKey.keys,languageCatalanWrittenKey.rt,languageCatalanTimeKey.keys,languageCatalanTimeKey.rt,languageSpanishOralKey.keys,languageSpanishOralKey.rt,languageSpanishWrittenKey.keys,languageSpanishWrittenKey.rt,languageSpanishTimeKey.keys,languageSpanishTimeKey.rt,age,demoSexKey.keys,demoSexKey.rt,demoEducationKey.keys,demoEducationKey.rt,city,demoVisionKey.keys,demoVisionKey.rt,demoLanguageKey.keys,demoLanguageKey.rt,setupLocationKey.keys,setupLocationKey.rt,setupNoiseKey.keys,setupNoiseKey.rt,instructionsKeys.keys,instructionsKeys.rt,keyPressed,keyPressTime,inputText,error,trialsPracticeCatalan.thisRepN,trialsPracticeCatalan.thisTrialN,trialsPracticeCatalan.thisN,trialsPracticeCatalan.thisIndex,trialsPracticeCatalan.ran,trialsPracticeCatalan.order,trial_id,word,test_language,soundfile,date,expName,psychopyVersion,OS,frameRate,participant,trialOffset,trialsCatalan.thisRepN,trialsCatalan.thisTrialN,trialsCatalan.thisN,trialsCatalan.thisIndex,trialsCatalan.ran,trialsCatalan.order
space,1.335999966,e,3.171000004,,,,,,,,,,1,9.434999943,1,6.061999798,1,3.69299984,1,3.445999861,1,1.641000032,1,3.223999977,19,f,1.872999907,4,3.286000013,LONDON,y,2.815000057,n,2.755999804,1,2.845000029,1,2.772000074,space,14.48600006,b,4.282000065,B,FALSE,1,0,5,3,1,4,159,onada,Catalan,Sounds/cat_onada.mp3,2020-06-24_16h56.42.305,TranslationElicitation_eng-prolific,3.2.4,Win32,60,5ea3ef637e4bd537fe45cf6c,,,,,,,
,,,,,,,,,,,,,,,,,,,,,,,,,,,,,,,,,,,,,,,,,a,4.681999922,BA,FALSE,1,0,5,3,1,4,159,onada,Catalan,Sounds/cat_onada.mp3,2020-06-24_16h56.42.305,TranslationElicitation_eng-prolific,3.2.4,Win32,60,5ea3ef637e4bd537fe45cf6c,,,,,,,
,,,,,,,,,,,,,,,,,,,,,,,,,,,,,,,,,,,,,,,,,n,5.065999985,BAN,FALSE,1,0,5,3,1,4,159,onada,Catalan,Sounds/cat_onada.mp3,2020-06-24_16h56.42.305,TranslationElicitation_eng-prolific,3.2.4,Win32,60,5ea3ef637e4bd537fe45cf6c,,,,,,,
,,,,,,,,,,,,,,,,,,,,,,,,,,,,,,,,,,,,,,,,,n,5.482000113,BANN,FALSE,1,0,5,3,1,4,159,onada,Catalan,Sounds/cat_onada.mp3,2020-06-24_16h56.42.305,TranslationElicitation_eng-prolific,3.2.4,Win32,60,5ea3ef637e4bd537fe45cf6c,,,,,,,
,,,,,,,,,,,,,,,,,,,,,,,,,,,,,,,,,,,,,,,,,a,5.883000135,BANNA,FALSE,1,0,5,3,1,4,159,onada,Catalan,Sounds/cat_onada.mp3,2020-06-24_16h56.42.305,TranslationElicitation_eng-prolific,3.2.4,Win32,60,5ea3ef637e4bd537fe45cf6c,,,,,,,
,,,,,,,,,,,,,,,,,,,,,,,,,,,,,,,,,,,,,,,,,n,6.133000135,BANNAN,FALSE,1,0,5,3,1,4,159,onada,Catalan,Sounds/cat_onada.mp3,2020-06-24_16h56.42.305,TranslationElicitation_eng-prolific,3.2.4,Win32,60,5ea3ef637e4bd537fe45cf6c,,,,,,,
,,,,,,,,,,,,,,,,,,,,,,,,,,,,,,,,,,,,,,,,,a,6.315999985,BANNANA,FALSE,1,0,5,3,1,4,159,onada,Catalan,Sounds/cat_onada.mp3,2020-06-24_16h56.42.305,TranslationElicitation_eng-prolific,3.2.4,Win32,60,5ea3ef637e4bd537fe45cf6c,,,,,,,
,,,,,,,,,,,,,,,,,,,,,,,,,,,,,,,,,,,,,,,,,return,7.200000048,BANNANA,FALSE,1,0,5,3,1,4,159,onada,Catalan,Sounds/cat_onada.mp3,2020-06-24_16h56.42.305,TranslationElicitation_eng-prolific,3.2.4,Win32,60,5ea3ef637e4bd537fe45cf6c,7.200000048,,,,,,
,,,,,,,,,,,,,,,,,,,,,,,,,,,,,,,,,,,,,,,,,,,,,1,0,5,3,1,4,159,onada,Catalan,Sounds/cat_onada.mp3,2020-06-24_16h56.42.305,TranslationElicitation_eng-prolific,3.2.4,Win32,60,5ea3ef637e4bd537fe45cf6c,,,,,,,
,,,,,,,,,,,,,,,,,,,,,,,,,,,,,,,,,,,,,,,,,t,10.02200007,T,FALSE,1,0,5,0,1,4,109,arbre,Catalan,Sounds/cat_arbre.mp3,2020-06-24_16h56.42.305,TranslationElicitation_eng-prolific,3.2.4,Win32,60,5ea3ef637e4bd537fe45cf6c,,,,,,,
,,,,,,,,,,,,,,,,,,,,,,,,,,,,,,,,,,,,,,,,,i,10.25499988,TI,FALSE,1,0,5,0,1,4,109,arbre,Catalan,Sounds/cat_arbre.mp3,2020-06-24_16h56.42.305,TranslationElicitation_eng-prolific,3.2.4,Win32,60,5ea3ef637e4bd537fe45cf6c,,,,,,,
,,,,,,,,,,,,,,,,,,,,,,,,,,,,,,,,,,,,,,,,,r,10.47099996,TIR,FALSE,1,0,5,0,1,4,109,arbre,Catalan,Sounds/cat_arbre.mp3,2020-06-24_16h56.42.305,TranslationElicitation_eng-prolific,3.2.4,Win32,60,5ea3ef637e4bd537fe45cf6c,,,,,,,
,,,,,,,,,,,,,,,,,,,,,,,,,,,,,,,,,,,,,,,,,e,10.68899989,TIRE,FALSE,1,0,5,0,1,4,109,arbre,Catalan,Sounds/cat_arbre.mp3,2020-06-24_16h56.42.305,TranslationElicitation_eng-prolific,3.2.4,Win32,60,5ea3ef637e4bd537fe45cf6c,,,,,,,
,,,,,,,,,,,,,,,,,,,,,,,,,,,,,,,,,,,,,,,,,d,10.92199993,TIRED,FALSE,1,0,5,0,1,4,109,arbre,Catalan,Sounds/cat_arbre.mp3,2020-06-24_16h56.42.305,TranslationElicitation_eng-prolific,3.2.4,Win32,60,5ea3ef637e4bd537fe45cf6c,,,,,,,
,,,,,,,,,,,,,,,,,,,,,,,,,,,,,,,,,,,,,,,,,return,11.33800006,TIRED,FALSE,1,0,5,0,1,4,109,arbre,Catalan,Sounds/cat_arbre.mp3,2020-06-24_16h56.42.305,TranslationElicitation_eng-prolific,3.2.4,Win32,60,5ea3ef637e4bd537fe45cf6c,11.33800006,,,,,,
,,,,,,,,,,,,,,,,,,,,,,,,,,,,,,,,,,,,,,,,,,,,,1,0,5,0,1,4,109,arbre,Catalan,Sounds/cat_arbre.mp3,2020-06-24_16h56.42.305,TranslationElicitation_eng-prolific,3.2.4,Win32,60,5ea3ef637e4bd537fe45cf6c,,,,,,,
,,,,,,,,,,,,,,,,,,,,,,,,,,,,,,,,,,,,,,,,,j,1.48300004,J,FALSE,1,0,5,2,1,4,147,jaqueta,Catalan,Sounds/cat_jaqueta.mp3,2020-06-24_16h56.42.305,TranslationElicitation_eng-prolific,3.2.4,Win32,60,5ea3ef637e4bd537fe45cf6c,,,,,,,
,,,,,,,,,,,,,,,,,,,,,,,,,,,,,,,,,,,,,,,,,a,1.684000015,JA,FALSE,1,0,5,2,1,4,147,jaqueta,Catalan,Sounds/cat_jaqueta.mp3,2020-06-24_16h56.42.305,TranslationElicitation_eng-prolific,3.2.4,Win32,60,5ea3ef637e4bd537fe45cf6c,,,,,,,
,,,,,,,,,,,,,,,,,,,,,,,,,,,,,,,,,,,,,,,,,c,2.01699996,JAC,FALSE,1,0,5,2,1,4,147,jaqueta,Catalan,Sounds/cat_jaqueta.mp3,2020-06-24_16h56.42.305,TranslationElicitation_eng-prolific,3.2.4,Win32,60,5ea3ef637e4bd537fe45cf6c,,,,,,,
,,,,,,,,,,,,,,,,,,,,,,,,,,,,,,,,,,,,,,,,,k,2.401000023,JACK,FALSE,1,0,5,2,1,4,147,jaqueta,Catalan,Sounds/cat_jaqueta.mp3,2020-06-24_16h56.42.305,TranslationElicitation_eng-prolific,3.2.4,Win32,60,5ea3ef637e4bd537fe45cf6c,,,,,,,
,,,,,,,,,,,,,,,,,,,,,,,,,,,,,,,,,,,,,,,,,e,2.634000063,JACKE,FALSE,1,0,5,2,1,4,147,jaqueta,Catalan,Sounds/cat_jaqueta.mp3,2020-06-24_16h56.42.305,TranslationElicitation_eng-prolific,3.2.4,Win32,60,5ea3ef637e4bd537fe45cf6c,,,,,,,
,,,,,,,,,,,,,,,,,,,,,,,,,,,,,,,,,,,,,,,,,t,2.834000111,JACKET,FALSE,1,0,5,2,1,4,147,jaqueta,Catalan,Sounds/cat_jaqueta.mp3,2020-06-24_16h56.42.305,TranslationElicitation_eng-prolific,3.2.4,Win32,60,5ea3ef637e4bd537fe45cf6c,,,,,,,
,,,,,,,,,,,,,,,,,,,,,,,,,,,,,,,,,,,,,,,,,return,3.549999952,JACKET,FALSE,1,0,5,2,1,4,147,jaqueta,Catalan,Sounds/cat_jaqueta.mp3,2020-06-24_16h56.42.305,TranslationElicitation_eng-prolific,3.2.4,Win32,60,5ea3ef637e4bd537fe45cf6c,3.549999952,,,,,,
,,,,,,,,,,,,,,,,,,,,,,,,,,,,,,,,,,,,,,,,,,,,,1,0,5,2,1,4,147,jaqueta,Catalan,Sounds/cat_jaqueta.mp3,2020-06-24_16h56.42.305,TranslationElicitation_eng-prolific,3.2.4,Win32,60,5ea3ef637e4bd537fe45cf6c,,,,,,,
,,,,,,,,,,,,,,,,,,,,,,,,,,,,,,,,,,,,,,,,,t,6.851999998,T,FALSE,1,0,5,4,1,4,179,tigre,Catalan,Sounds/cat_tigre.mp3,2020-06-24_16h56.42.305,TranslationElicitation_eng-prolific,3.2.4,Win32,60,5ea3ef637e4bd537fe45cf6c,,,,,,,
,,,,,,,,,,,,,,,,,,,,,,,,,,,,,,,,,,,,,,,,,s,7.201999903,TS,FALSE,1,0,5,4,1,4,179,tigre,Catalan,Sounds/cat_tigre.mp3,2020-06-24_16h56.42.305,TranslationElicitation_eng-prolific,3.2.4,Win32,60,5ea3ef637e4bd537fe45cf6c,,,,,,,
,,,,,,,,,,,,,,,,,,,,,,,,,,,,,,,,,,,,,,,,,h,7.519999981,TSH,FALSE,1,0,5,4,1,4,179,tigre,Catalan,Sounds/cat_tigre.mp3,2020-06-24_16h56.42.305,TranslationElicitation_eng-prolific,3.2.4,Win32,60,5ea3ef637e4bd537fe45cf6c,,,,,,,
,,,,,,,,,,,,,,,,,,,,,,,,,,,,,,,,,,,,,,,,,i,8.203000069,TSHI,FALSE,1,0,5,4,1,4,179,tigre,Catalan,Sounds/cat_tigre.mp3,2020-06-24_16h56.42.305,TranslationElicitation_eng-prolific,3.2.4,Win32,60,5ea3ef637e4bd537fe45cf6c,,,,,,,
,,,,,,,,,,,,,,,,,,,,,,,,,,,,,,,,,,,,,,,,,r,8.470000029,TSHIR,FALSE,1,0,5,4,1,4,179,tigre,Catalan,Sounds/cat_tigre.mp3,2020-06-24_16h56.42.305,TranslationElicitation_eng-prolific,3.2.4,Win32,60,5ea3ef637e4bd537fe45cf6c,,,,,,,
,,,,,,,,,,,,,,,,,,,,,,,,,,,,,,,,,,,,,,,,,t,8.620000124,TSHIRT,FALSE,1,0,5,4,1,4,179,tigre,Catalan,Sounds/cat_tigre.mp3,2020-06-24_16h56.42.305,TranslationElicitation_eng-prolific,3.2.4,Win32,60,5ea3ef637e4bd537fe45cf6c,,,,,,,
,,,,,,,,,,,,,,,,,,,,,,,,,,,,,,,,,,,,,,,,,return,9.421000004,TSHIRT,FALSE,1,0,5,4,1,4,179,tigre,Catalan,Sounds/cat_tigre.mp3,2020-06-24_16h56.42.305,TranslationElicitation_eng-prolific,3.2.4,Win32,60,5ea3ef637e4bd537fe45cf6c,9.421000004,,,,,,
,,,,,,,,,,,,,,,,,,,,,,,,,,,,,,,,,,,,,,,,,,,,,1,0,5,4,1,4,179,tigre,Catalan,Sounds/cat_tigre.mp3,2020-06-24_16h56.42.305,TranslationElicitation_eng-prolific,3.2.4,Win32,60,5ea3ef637e4bd537fe45cf6c,,,,,,,
,,,,,,,,,,,,,,,,,,,,,,,,,,,,,,,,,,,,,,,,,c,3.351000071,C,FALSE,1,0,5,1,1,4,126,corona,Catalan,Sounds/cat_corona.mp3,2020-06-24_16h56.42.305,TranslationElicitation_eng-prolific,3.2.4,Win32,60,5ea3ef637e4bd537fe45cf6c,,,,,,,
,,,,,,,,,,,,,,,,,,,,,,,,,,,,,,,,,,,,,,,,,r,3.66899991,CR,FALSE,1,0,5,1,1,4,126,corona,Catalan,Sounds/cat_corona.mp3,2020-06-24_16h56.42.305,TranslationElicitation_eng-prolific,3.2.4,Win32,60,5ea3ef637e4bd537fe45cf6c,,,,,,,
,,,,,,,,,,,,,,,,,,,,,,,,,,,,,,,,,,,,,,,,,o,3.951999903,CRO,FALSE,1,0,5,1,1,4,126,corona,Catalan,Sounds/cat_corona.mp3,2020-06-24_16h56.42.305,TranslationElicitation_eng-prolific,3.2.4,Win32,60,5ea3ef637e4bd537fe45cf6c,,,,,,,
,,,,,,,,,,,,,,,,,,,,,,,,,,,,,,,,,,,,,,,,,w,4.118000031,CROW,FALSE,1,0,5,1,1,4,126,corona,Catalan,Sounds/cat_corona.mp3,2020-06-24_16h56.42.305,TranslationElicitation_eng-prolific,3.2.4,Win32,60,5ea3ef637e4bd537fe45cf6c,,,,,,,
,,,,,,,,,,,,,,,,,,,,,,,,,,,,,,,,,,,,,,,,,n,4.319000006,CROWN,FALSE,1,0,5,1,1,4,126,corona,Catalan,Sounds/cat_corona.mp3,2020-06-24_16h56.42.305,TranslationElicitation_eng-prolific,3.2.4,Win32,60,5ea3ef637e4bd537fe45cf6c,,,,,,,
,,,,,,,,,,,,,,,,,,,,,,,,,,,,,,,,,,,,,,,,,return,5.052000046,CROWN,FALSE,1,0,5,1,1,4,126,corona,Catalan,Sounds/cat_corona.mp3,2020-06-24_16h56.42.305,TranslationElicitation_eng-prolific,3.2.4,Win32,60,5ea3ef637e4bd537fe45cf6c,5.052000046,,,,,,
,,,,,,,,,,,,,,,,,,,,,,,,,,,,,,,,,,,,,,,,,,,,,1,0,5,1,1,4,126,corona,Catalan,Sounds/cat_corona.mp3,2020-06-24_16h56.42.305,TranslationElicitation_eng-prolific,3.2.4,Win32,60,5ea3ef637e4bd537fe45cf6c,,,,,,,
,,,,,,,,,,,,,,,,,,,,,,,,,,,,,,,,,,,,,,,,,h,1.601000071,H,FALSE,,,,,,,122,casa,Catalan,Sounds/cat_casa.mp3,2020-06-24_16h56.42.305,TranslationElicitation_eng-prolific,3.2.4,Win32,60,5ea3ef637e4bd537fe45cf6c,,1,0,81,17,1,80
,,,,,,,,,,,,,,,,,,,,,,,,,,,,,,,,,,,,,,,,,o,2,HO,FALSE,,,,,,,122,casa,Catalan,Sounds/cat_casa.mp3,2020-06-24_16h56.42.305,TranslationElicitation_eng-prolific,3.2.4,Win32,60,5ea3ef637e4bd537fe45cf6c,,1,0,81,17,1,80
,,,,,,,,,,,,,,,,,,,,,,,,,,,,,,,,,,,,,,,,,u,2.26699996,HOU,FALSE,,,,,,,122,casa,Catalan,Sounds/cat_casa.mp3,2020-06-24_16h56.42.305,TranslationElicitation_eng-prolific,3.2.4,Win32,60,5ea3ef637e4bd537fe45cf6c,,1,0,81,17,1,80
,,,,,,,,,,,,,,,,,,,,,,,,,,,,,,,,,,,,,,,,,s,2.518000126,HOUS,FALSE,,,,,,,122,casa,Catalan,Sounds/cat_casa.mp3,2020-06-24_16h56.42.305,TranslationElicitation_eng-prolific,3.2.4,Win32,60,5ea3ef637e4bd537fe45cf6c,,1,0,81,17,1,80
,,,,,,,,,,,,,,,,,,,,,,,,,,,,,,,,,,,,,,,,,e,2.719000101,HOUSE,FALSE,,,,,,,122,casa,Catalan,Sounds/cat_casa.mp3,2020-06-24_16h56.42.305,TranslationElicitation_eng-prolific,3.2.4,Win32,60,5ea3ef637e4bd537fe45cf6c,,1,0,81,17,1,80
,,,,,,,,,,,,,,,,,,,,,,,,,,,,,,,,,,,,,,,,,return,3.38499999,HOUSE,FALSE,,,,,,,122,casa,Catalan,Sounds/cat_casa.mp3,2020-06-24_16h56.42.305,TranslationElicitation_eng-prolific,3.2.4,Win32,60,5ea3ef637e4bd537fe45cf6c,3.38499999,1,0,81,17,1,80
,,,,,,,,,,,,,,,,,,,,,,,,,,,,,,,,,,,,,,,,,,,,,,,,,,,122,casa,Catalan,Sounds/cat_casa.mp3,2020-06-24_16h56.42.305,TranslationElicitation_eng-prolific,3.2.4,Win32,60,5ea3ef637e4bd537fe45cf6c,,1,0,81,17,1,80
,,,,,,,,,,,,,,,,,,,,,,,,,,,,,,,,,,,,,,,,,j,4.601000071,J,FALSE,,,,,,,138,galeta,Catalan,Sounds/cat_galeta.mp3,2020-06-24_16h56.42.305,TranslationElicitation_eng-prolific,3.2.4,Win32,60,5ea3ef637e4bd537fe45cf6c,,1,0,81,32,1,80
,,,,,,,,,,,,,,,,,,,,,,,,,,,,,,,,,,,,,,,,,a,4.851000071,JA,FALSE,,,,,,,138,galeta,Catalan,Sounds/cat_galeta.mp3,2020-06-24_16h56.42.305,TranslationElicitation_eng-prolific,3.2.4,Win32,60,5ea3ef637e4bd537fe45cf6c,,1,0,81,32,1,80
,,,,,,,,,,,,,,,,,,,,,,,,,,,,,,,,,,,,,,,,,c,5.218000174,JAC,FALSE,,,,,,,138,galeta,Catalan,Sounds/cat_galeta.mp3,2020-06-24_16h56.42.305,TranslationElicitation_eng-prolific,3.2.4,Win32,60,5ea3ef637e4bd537fe45cf6c,,1,0,81,32,1,80
,,,,,,,,,,,,,,,,,,,,,,,,,,,,,,,,,,,,,,,,,k,5.368000031,JACK,FALSE,,,,,,,138,galeta,Catalan,Sounds/cat_galeta.mp3,2020-06-24_16h56.42.305,TranslationElicitation_eng-prolific,3.2.4,Win32,60,5ea3ef637e4bd537fe45cf6c,,1,0,81,32,1,80
,,,,,,,,,,,,,,,,,,,,,,,,,,,,,,,,,,,,,,,,,e,5.535000086,JACKE,FALSE,,,,,,,138,galeta,Catalan,Sounds/cat_galeta.mp3,2020-06-24_16h56.42.305,TranslationElicitation_eng-prolific,3.2.4,Win32,60,5ea3ef637e4bd537fe45cf6c,,1,0,81,32,1,80
,,,,,,,,,,,,,,,,,,,,,,,,,,,,,,,,,,,,,,,,,t,5.768000126,JACKET,FALSE,,,,,,,138,galeta,Catalan,Sounds/cat_galeta.mp3,2020-06-24_16h56.42.305,TranslationElicitation_eng-prolific,3.2.4,Win32,60,5ea3ef637e4bd537fe45cf6c,,1,0,81,32,1,80
,,,,,,,,,,,,,,,,,,,,,,,,,,,,,,,,,,,,,,,,,return,6.402000189,JACKET,FALSE,,,,,,,138,galeta,Catalan,Sounds/cat_galeta.mp3,2020-06-24_16h56.42.305,TranslationElicitation_eng-prolific,3.2.4,Win32,60,5ea3ef637e4bd537fe45cf6c,6.402000189,1,0,81,32,1,80
,,,,,,,,,,,,,,,,,,,,,,,,,,,,,,,,,,,,,,,,,,,,,,,,,,,138,galeta,Catalan,Sounds/cat_galeta.mp3,2020-06-24_16h56.42.305,TranslationElicitation_eng-prolific,3.2.4,Win32,60,5ea3ef637e4bd537fe45cf6c,,1,0,81,32,1,80
,,,,,,,,,,,,,,,,,,,,,,,,,,,,,,,,,,,,,,,,,p,8.187000036,P,FALSE,,,,,,,165,pernil,Catalan,Sounds/cat_pernil.mp3,2020-06-24_16h56.42.305,TranslationElicitation_eng-prolific,3.2.4,Win32,60,5ea3ef637e4bd537fe45cf6c,,1,0,81,57,1,80
,,,,,,,,,,,,,,,,,,,,,,,,,,,,,,,,,,,,,,,,,a,8.470000029,PA,FALSE,,,,,,,165,pernil,Catalan,Sounds/cat_pernil.mp3,2020-06-24_16h56.42.305,TranslationElicitation_eng-prolific,3.2.4,Win32,60,5ea3ef637e4bd537fe45cf6c,,1,0,81,57,1,80
,,,,,,,,,,,,,,,,,,,,,,,,,,,,,,,,,,,,,,,,,r,8.786999941,PAR,FALSE,,,,,,,165,pernil,Catalan,Sounds/cat_pernil.mp3,2020-06-24_16h56.42.305,TranslationElicitation_eng-prolific,3.2.4,Win32,60,5ea3ef637e4bd537fe45cf6c,,1,0,81,57,1,80
,,,,,,,,,,,,,,,,,,,,,,,,,,,,,,,,,,,,,,,,,e,8.871000051,PARE,FALSE,,,,,,,165,pernil,Catalan,Sounds/cat_pernil.mp3,2020-06-24_16h56.42.305,TranslationElicitation_eng-prolific,3.2.4,Win32,60,5ea3ef637e4bd537fe45cf6c,,1,0,81,57,1,80
,,,,,,,,,,,,,,,,,,,,,,,,,,,,,,,,,,,,,,,,,n,9.071000099,PAREN,FALSE,,,,,,,165,pernil,Catalan,Sounds/cat_pernil.mp3,2020-06-24_16h56.42.305,TranslationElicitation_eng-prolific,3.2.4,Win32,60,5ea3ef637e4bd537fe45cf6c,,1,0,81,57,1,80
,,,,,,,,,,,,,,,,,,,,,,,,,,,,,,,,,,,,,,,,,t,9.253999949,PARENT,FALSE,,,,,,,165,pernil,Catalan,Sounds/cat_pernil.mp3,2020-06-24_16h56.42.305,TranslationElicitation_eng-prolific,3.2.4,Win32,60,5ea3ef637e4bd537fe45cf6c,,1,0,81,57,1,80
,,,,,,,,,,,,,,,,,,,,,,,,,,,,,,,,,,,,,,,,,return,9.586999893,PARENT,FALSE,,,,,,,165,pernil,Catalan,Sounds/cat_pernil.mp3,2020-06-24_16h56.42.305,TranslationElicitation_eng-prolific,3.2.4,Win32,60,5ea3ef637e4bd537fe45cf6c,9.586999893,1,0,81,57,1,80
,,,,,,,,,,,,,,,,,,,,,,,,,,,,,,,,,,,,,,,,,,,,,,,,,,,165,pernil,Catalan,Sounds/cat_pernil.mp3,2020-06-24_16h56.42.305,TranslationElicitation_eng-prolific,3.2.4,Win32,60,5ea3ef637e4bd537fe45cf6c,,1,0,81,57,1,80
,,,,,,,,,,,,,,,,,,,,,,,,,,,,,,,,,,,,,,,,,c,3.467999935,C,FALSE,,,,,,,173,porc,Catalan,Sounds/cat_porc.mp3,2020-06-24_16h56.42.305,TranslationElicitation_eng-prolific,3.2.4,Win32,60,5ea3ef637e4bd537fe45cf6c,,1,0,81,65,1,80
,,,,,,,,,,,,,,,,,,,,,,,,,,,,,,,,,,,,,,,,,o,3.81799984,CO,FALSE,,,,,,,173,porc,Catalan,Sounds/cat_porc.mp3,2020-06-24_16h56.42.305,TranslationElicitation_eng-prolific,3.2.4,Win32,60,5ea3ef637e4bd537fe45cf6c,,1,0,81,65,1,80
,,,,,,,,,,,,,,,,,,,,,,,,,,,,,,,,,,,,,,,,,l,4.001999855,COL,FALSE,,,,,,,173,porc,Catalan,Sounds/cat_porc.mp3,2020-06-24_16h56.42.305,TranslationElicitation_eng-prolific,3.2.4,Win32,60,5ea3ef637e4bd537fe45cf6c,,1,0,81,65,1,80
,,,,,,,,,,,,,,,,,,,,,,,,,,,,,,,,,,,,,,,,,d,4.267999887,COLD,FALSE,,,,,,,173,porc,Catalan,Sounds/cat_porc.mp3,2020-06-24_16h56.42.305,TranslationElicitation_eng-prolific,3.2.4,Win32,60,5ea3ef637e4bd537fe45cf6c,,1,0,81,65,1,80
,,,,,,,,,,,,,,,,,,,,,,,,,,,,,,,,,,,,,,,,,return,5.034999847,COLD,FALSE,,,,,,,173,porc,Catalan,Sounds/cat_porc.mp3,2020-06-24_16h56.42.305,TranslationElicitation_eng-prolific,3.2.4,Win32,60,5ea3ef637e4bd537fe45cf6c,5.034999847,1,0,81,65,1,80
,,,,,,,,,,,,,,,,,,,,,,,,,,,,,,,,,,,,,,,,,,,,,,,,,,,173,porc,Catalan,Sounds/cat_porc.mp3,2020-06-24_16h56.42.305,TranslationElicitation_eng-prolific,3.2.4,Win32,60,5ea3ef637e4bd537fe45cf6c,,1,0,81,65,1,80
,,,,,,,,,,,,,,,,,,,,,,,,,,,,,,,,,,,,,,,,,m,2.151000023,M,FALSE,,,,,,,157,mussol,Catalan,Sounds/cat_mussol.mp3,2020-06-24_16h56.42.305,TranslationElicitation_eng-prolific,3.2.4,Win32,60,5ea3ef637e4bd537fe45cf6c,,1,0,81,50,1,80
,,,,,,,,,,,,,,,,,,,,,,,,,,,,,,,,,,,,,,,,,u,2.417999983,MU,FALSE,,,,,,,157,mussol,Catalan,Sounds/cat_mussol.mp3,2020-06-24_16h56.42.305,TranslationElicitation_eng-prolific,3.2.4,Win32,60,5ea3ef637e4bd537fe45cf6c,,1,0,81,50,1,80
,,,,,,,,,,,,,,,,,,,,,,,,,,,,,,,,,,,,,,,,,s,2.585999966,MUS,FALSE,,,,,,,157,mussol,Catalan,Sounds/cat_mussol.mp3,2020-06-24_16h56.42.305,TranslationElicitation_eng-prolific,3.2.4,Win32,60,5ea3ef637e4bd537fe45cf6c,,1,0,81,50,1,80
,,,,,,,,,,,,,,,,,,,,,,,,,,,,,,,,,,,,,,,,,c,2.902000189,MUSC,FALSE,,,,,,,157,mussol,Catalan,Sounds/cat_mussol.mp3,2020-06-24_16h56.42.305,TranslationElicitation_eng-prolific,3.2.4,Win32,60,5ea3ef637e4bd537fe45cf6c,,1,0,81,50,1,80
,,,,,,,,,,,,,,,,,,,,,,,,,,,,,,,,,,,,,,,,,l,3.118000031,MUSCL,FALSE,,,,,,,157,mussol,Catalan,Sounds/cat_mussol.mp3,2020-06-24_16h56.42.305,TranslationElicitation_eng-prolific,3.2.4,Win32,60,5ea3ef637e4bd537fe45cf6c,,1,0,81,50,1,80
,,,,,,,,,,,,,,,,,,,,,,,,,,,,,,,,,,,,,,,,,e,3.302000046,MUSCLE,FALSE,,,,,,,157,mussol,Catalan,Sounds/cat_mussol.mp3,2020-06-24_16h56.42.305,TranslationElicitation_eng-prolific,3.2.4,Win32,60,5ea3ef637e4bd537fe45cf6c,,1,0,81,50,1,80
,,,,,,,,,,,,,,,,,,,,,,,,,,,,,,,,,,,,,,,,,return,3.652000189,MUSCLE,FALSE,,,,,,,157,mussol,Catalan,Sounds/cat_mussol.mp3,2020-06-24_16h56.42.305,TranslationElicitation_eng-prolific,3.2.4,Win32,60,5ea3ef637e4bd537fe45cf6c,3.652000189,1,0,81,50,1,80
,,,,,,,,,,,,,,,,,,,,,,,,,,,,,,,,,,,,,,,,,,,,,,,,,,,157,mussol,Catalan,Sounds/cat_mussol.mp3,2020-06-24_16h56.42.305,TranslationElicitation_eng-prolific,3.2.4,Win32,60,5ea3ef637e4bd537fe45cf6c,,1,0,81,50,1,80
,,,,,,,,,,,,,,,,,,,,,,,,,,,,,,,,,,,,,,,,,g,2.05099988,G,FALSE,,,,,,,145,got,Catalan,Sounds/cat_got.mp3,2020-06-24_16h56.42.305,TranslationElicitation_eng-prolific,3.2.4,Win32,60,5ea3ef637e4bd537fe45cf6c,,1,0,81,39,1,80
,,,,,,,,,,,,,,,,,,,,,,,,,,,,,,,,,,,,,,,,,o,2.200999975,GO,FALSE,,,,,,,145,got,Catalan,Sounds/cat_got.mp3,2020-06-24_16h56.42.305,TranslationElicitation_eng-prolific,3.2.4,Win32,60,5ea3ef637e4bd537fe45cf6c,,1,0,81,39,1,80
,,,,,,,,,,,,,,,,,,,,,,,,,,,,,,,,,,,,,,,,,d,2.434999943,GOD,FALSE,,,,,,,145,got,Catalan,Sounds/cat_got.mp3,2020-06-24_16h56.42.305,TranslationElicitation_eng-prolific,3.2.4,Win32,60,5ea3ef637e4bd537fe45cf6c,,1,0,81,39,1,80
,,,,,,,,,,,,,,,,,,,,,,,,,,,,,,,,,,,,,,,,,return,2.717999935,GOD,FALSE,,,,,,,145,got,Catalan,Sounds/cat_got.mp3,2020-06-24_16h56.42.305,TranslationElicitation_eng-prolific,3.2.4,Win32,60,5ea3ef637e4bd537fe45cf6c,2.717999935,1,0,81,39,1,80
,,,,,,,,,,,,,,,,,,,,,,,,,,,,,,,,,,,,,,,,,,,,,,,,,,,145,got,Catalan,Sounds/cat_got.mp3,2020-06-24_16h56.42.305,TranslationElicitation_eng-prolific,3.2.4,Win32,60,5ea3ef637e4bd537fe45cf6c,,1,0,81,39,1,80
,,,,,,,,,,,,,,,,,,,,,,,,,,,,,,,,,,,,,,,,,g,1.315999985,G,FALSE,,,,,,,146,guitarra,Catalan,Sounds/cat_guitarra.mp3,2020-06-24_16h56.42.305,TranslationElicitation_eng-prolific,3.2.4,Win32,60,5ea3ef637e4bd537fe45cf6c,,1,0,81,40,1,80
,,,,,,,,,,,,,,,,,,,,,,,,,,,,,,,,,,,,,,,,,u,1.633000135,GU,FALSE,,,,,,,146,guitarra,Catalan,Sounds/cat_guitarra.mp3,2020-06-24_16h56.42.305,TranslationElicitation_eng-prolific,3.2.4,Win32,60,5ea3ef637e4bd537fe45cf6c,,1,0,81,40,1,80
,,,,,,,,,,,,,,,,,,,,,,,,,,,,,,,,,,,,,,,,,i,1.800000191,GUI,FALSE,,,,,,,146,guitarra,Catalan,Sounds/cat_guitarra.mp3,2020-06-24_16h56.42.305,TranslationElicitation_eng-prolific,3.2.4,Win32,60,5ea3ef637e4bd537fe45cf6c,,1,0,81,40,1,80
,,,,,,,,,,,,,,,,,,,,,,,,,,,,,,,,,,,,,,,,,t,2.133000135,GUIT,FALSE,,,,,,,146,guitarra,Catalan,Sounds/cat_guitarra.mp3,2020-06-24_16h56.42.305,TranslationElicitation_eng-prolific,3.2.4,Win32,60,5ea3ef637e4bd537fe45cf6c,,1,0,81,40,1,80
,,,,,,,,,,,,,,,,,,,,,,,,,,,,,,,,,,,,,,,,,a,2.23300004,GUITA,FALSE,,,,,,,146,guitarra,Catalan,Sounds/cat_guitarra.mp3,2020-06-24_16h56.42.305,TranslationElicitation_eng-prolific,3.2.4,Win32,60,5ea3ef637e4bd537fe45cf6c,,1,0,81,40,1,80
,,,,,,,,,,,,,,,,,,,,,,,,,,,,,,,,,,,,,,,,,r,2.43900013,GUITAR,FALSE,,,,,,,146,guitarra,Catalan,Sounds/cat_guitarra.mp3,2020-06-24_16h56.42.305,TranslationElicitation_eng-prolific,3.2.4,Win32,60,5ea3ef637e4bd537fe45cf6c,,1,0,81,40,1,80
,,,,,,,,,,,,,,,,,,,,,,,,,,,,,,,,,,,,,,,,,return,3.301000118,GUITAR,FALSE,,,,,,,146,guitarra,Catalan,Sounds/cat_guitarra.mp3,2020-06-24_16h56.42.305,TranslationElicitation_eng-prolific,3.2.4,Win32,60,5ea3ef637e4bd537fe45cf6c,3.301000118,1,0,81,40,1,80
,,,,,,,,,,,,,,,,,,,,,,,,,,,,,,,,,,,,,,,,,,,,,,,,,,,146,guitarra,Catalan,Sounds/cat_guitarra.mp3,2020-06-24_16h56.42.305,TranslationElicitation_eng-prolific,3.2.4,Win32,60,5ea3ef637e4bd537fe45cf6c,,1,0,81,40,1,80
,,,,,,,,,,,,,,,,,,,,,,,,,,,,,,,,,,,,,,,,,g,4.385999918,G,FALSE,,,,,,,143,globus,Catalan,Sounds/cat_globus.mp3,2020-06-24_16h56.42.305,TranslationElicitation_eng-prolific,3.2.4,Win32,60,5ea3ef637e4bd537fe45cf6c,,1,0,81,37,1,80
,,,,,,,,,,,,,,,,,,,,,,,,,,,,,,,,,,,,,,,,,l,4.585000038,GL,FALSE,,,,,,,143,globus,Catalan,Sounds/cat_globus.mp3,2020-06-24_16h56.42.305,TranslationElicitation_eng-prolific,3.2.4,Win32,60,5ea3ef637e4bd537fe45cf6c,,1,0,81,37,1,80
,,,,,,,,,,,,,,,,,,,,,,,,,,,,,,,,,,,,,,,,,a,4.91899991,GLA,FALSE,,,,,,,143,globus,Catalan,Sounds/cat_globus.mp3,2020-06-24_16h56.42.305,TranslationElicitation_eng-prolific,3.2.4,Win32,60,5ea3ef637e4bd537fe45cf6c,,1,0,81,37,1,80
,,,,,,,,,,,,,,,,,,,,,,,,,,,,,,,,,,,,,,,,,s,5.152999878,GLAS,FALSE,,,,,,,143,globus,Catalan,Sounds/cat_globus.mp3,2020-06-24_16h56.42.305,TranslationElicitation_eng-prolific,3.2.4,Win32,60,5ea3ef637e4bd537fe45cf6c,,1,0,81,37,1,80
,,,,,,,,,,,,,,,,,,,,,,,,,,,,,,,,,,,,,,,,,s,5.286000013,GLASS,FALSE,,,,,,,143,globus,Catalan,Sounds/cat_globus.mp3,2020-06-24_16h56.42.305,TranslationElicitation_eng-prolific,3.2.4,Win32,60,5ea3ef637e4bd537fe45cf6c,,1,0,81,37,1,80
,,,,,,,,,,,,,,,,,,,,,,,,,,,,,,,,,,,,,,,,,e,5.552000046,GLASSE,FALSE,,,,,,,143,globus,Catalan,Sounds/cat_globus.mp3,2020-06-24_16h56.42.305,TranslationElicitation_eng-prolific,3.2.4,Win32,60,5ea3ef637e4bd537fe45cf6c,,1,0,81,37,1,80
,,,,,,,,,,,,,,,,,,,,,,,,,,,,,,,,,,,,,,,,,s,5.786000013,GLASSES,FALSE,,,,,,,143,globus,Catalan,Sounds/cat_globus.mp3,2020-06-24_16h56.42.305,TranslationElicitation_eng-prolific,3.2.4,Win32,60,5ea3ef637e4bd537fe45cf6c,,1,0,81,37,1,80
,,,,,,,,,,,,,,,,,,,,,,,,,,,,,,,,,,,,,,,,,return,6.119999886,GLASSES,FALSE,,,,,,,143,globus,Catalan,Sounds/cat_globus.mp3,2020-06-24_16h56.42.305,TranslationElicitation_eng-prolific,3.2.4,Win32,60,5ea3ef637e4bd537fe45cf6c,6.119999886,1,0,81,37,1,80
,,,,,,,,,,,,,,,,,,,,,,,,,,,,,,,,,,,,,,,,,,,,,,,,,,,143,globus,Catalan,Sounds/cat_globus.mp3,2020-06-24_16h56.42.305,TranslationElicitation_eng-prolific,3.2.4,Win32,60,5ea3ef637e4bd537fe45cf6c,,1,0,81,37,1,80
,,,,,,,,,,,,,,,,,,,,,,,,,,,,,,,,,,,,,,,,,t,2.651000023,T,FALSE,,,,,,,130,entrepa,Catalan,Sounds/cat_entrepa.mp3,2020-06-24_16h56.42.305,TranslationElicitation_eng-prolific,3.2.4,Win32,60,5ea3ef637e4bd537fe45cf6c,,1,0,81,24,1,80
,,,,,,,,,,,,,,,,,,,,,,,,,,,,,,,,,,,,,,,,,r,2.868000031,TR,FALSE,,,,,,,130,entrepa,Catalan,Sounds/cat_entrepa.mp3,2020-06-24_16h56.42.305,TranslationElicitation_eng-prolific,3.2.4,Win32,60,5ea3ef637e4bd537fe45cf6c,,1,0,81,24,1,80
,,,,,,,,,,,,,,,,,,,,,,,,,,,,,,,,,,,,,,,,,i,3.068000078,TRI,FALSE,,,,,,,130,entrepa,Catalan,Sounds/cat_entrepa.mp3,2020-06-24_16h56.42.305,TranslationElicitation_eng-prolific,3.2.4,Win32,60,5ea3ef637e4bd537fe45cf6c,,1,0,81,24,1,80
,,,,,,,,,,,,,,,,,,,,,,,,,,,,,,,,,,,,,,,,,p,3.351999998,TRIP,FALSE,,,,,,,130,entrepa,Catalan,Sounds/cat_entrepa.mp3,2020-06-24_16h56.42.305,TranslationElicitation_eng-prolific,3.2.4,Win32,60,5ea3ef637e4bd537fe45cf6c,,1,0,81,24,1,80
,,,,,,,,,,,,,,,,,,,,,,,,,,,,,,,,,,,,,,,,,return,3.702000141,TRIP,FALSE,,,,,,,130,entrepa,Catalan,Sounds/cat_entrepa.mp3,2020-06-24_16h56.42.305,TranslationElicitation_eng-prolific,3.2.4,Win32,60,5ea3ef637e4bd537fe45cf6c,3.702000141,1,0,81,24,1,80
,,,,,,,,,,,,,,,,,,,,,,,,,,,,,,,,,,,,,,,,,,,,,,,,,,,130,entrepa,Catalan,Sounds/cat_entrepa.mp3,2020-06-24_16h56.42.305,TranslationElicitation_eng-prolific,3.2.4,Win32,60,5ea3ef637e4bd537fe45cf6c,,1,0,81,24,1,80
,,,,,,,,,,,,,,,,,,,,,,,,,,,,,,,,,,,,,,,,,c,3.934999943,C,FALSE,,,,,,,125,colom,Catalan,Sounds/cat_colom.mp3,2020-06-24_16h56.42.305,TranslationElicitation_eng-prolific,3.2.4,Win32,60,5ea3ef637e4bd537fe45cf6c,,1,0,81,20,1,80
,,,,,,,,,,,,,,,,,,,,,,,,,,,,,,,,,,,,,,,,,o,4.118999958,CO,FALSE,,,,,,,125,colom,Catalan,Sounds/cat_colom.mp3,2020-06-24_16h56.42.305,TranslationElicitation_eng-prolific,3.2.4,Win32,60,5ea3ef637e4bd537fe45cf6c,,1,0,81,20,1,80
,,,,,,,,,,,,,,,,,,,,,,,,,,,,,,,,,,,,,,,,,l,4.335999966,COL,FALSE,,,,,,,125,colom,Catalan,Sounds/cat_colom.mp3,2020-06-24_16h56.42.305,TranslationElicitation_eng-prolific,3.2.4,Win32,60,5ea3ef637e4bd537fe45cf6c,,1,0,81,20,1,80
,,,,,,,,,,,,,,,,,,,,,,,,,,,,,,,,,,,,,,,,,o,4.517999887,COLO,FALSE,,,,,,,125,colom,Catalan,Sounds/cat_colom.mp3,2020-06-24_16h56.42.305,TranslationElicitation_eng-prolific,3.2.4,Win32,60,5ea3ef637e4bd537fe45cf6c,,1,0,81,20,1,80
,,,,,,,,,,,,,,,,,,,,,,,,,,,,,,,,,,,,,,,,,g,4.902999878,COLOG,FALSE,,,,,,,125,colom,Catalan,Sounds/cat_colom.mp3,2020-06-24_16h56.42.305,TranslationElicitation_eng-prolific,3.2.4,Win32,60,5ea3ef637e4bd537fe45cf6c,,1,0,81,20,1,80
,,,,,,,,,,,,,,,,,,,,,,,,,,,,,,,,,,,,,,,,,n,5.052000046,COLOGN,FALSE,,,,,,,125,colom,Catalan,Sounds/cat_colom.mp3,2020-06-24_16h56.42.305,TranslationElicitation_eng-prolific,3.2.4,Win32,60,5ea3ef637e4bd537fe45cf6c,,1,0,81,20,1,80
,,,,,,,,,,,,,,,,,,,,,,,,,,,,,,,,,,,,,,,,,e,5.286000013,COLOGNE,FALSE,,,,,,,125,colom,Catalan,Sounds/cat_colom.mp3,2020-06-24_16h56.42.305,TranslationElicitation_eng-prolific,3.2.4,Win32,60,5ea3ef637e4bd537fe45cf6c,,1,0,81,20,1,80
,,,,,,,,,,,,,,,,,,,,,,,,,,,,,,,,,,,,,,,,,return,6.486999989,COLOGNE,FALSE,,,,,,,125,colom,Catalan,Sounds/cat_colom.mp3,2020-06-24_16h56.42.305,TranslationElicitation_eng-prolific,3.2.4,Win32,60,5ea3ef637e4bd537fe45cf6c,6.486999989,1,0,81,20,1,80
,,,,,,,,,,,,,,,,,,,,,,,,,,,,,,,,,,,,,,,,,,,,,,,,,,,125,colom,Catalan,Sounds/cat_colom.mp3,2020-06-24_16h56.42.305,TranslationElicitation_eng-prolific,3.2.4,Win32,60,5ea3ef637e4bd537fe45cf6c,,1,0,81,20,1,80
,,,,,,,,,,,,,,,,,,,,,,,,,,,,,,,,,,,,,,,,,d,1.63499999,D,FALSE,,,,,,,180,tisores,Catalan,Sounds/cat_tisores.mp3,2020-06-24_16h56.42.305,TranslationElicitation_eng-prolific,3.2.4,Win32,60,5ea3ef637e4bd537fe45cf6c,,1,0,81,71,1,80
,,,,,,,,,,,,,,,,,,,,,,,,,,,,,,,,,,,,,,,,,e,1.884000063,DE,FALSE,,,,,,,180,tisores,Catalan,Sounds/cat_tisores.mp3,2020-06-24_16h56.42.305,TranslationElicitation_eng-prolific,3.2.4,Win32,60,5ea3ef637e4bd537fe45cf6c,,1,0,81,71,1,80
,,,,,,,,,,,,,,,,,,,,,,,,,,,,,,,,,,,,,,,,,s,2.151000023,DES,FALSE,,,,,,,180,tisores,Catalan,Sounds/cat_tisores.mp3,2020-06-24_16h56.42.305,TranslationElicitation_eng-prolific,3.2.4,Win32,60,5ea3ef637e4bd537fe45cf6c,,1,0,81,71,1,80
,,,,,,,,,,,,,,,,,,,,,,,,,,,,,,,,,,,,,,,,,s,2.316999912,DESS,FALSE,,,,,,,180,tisores,Catalan,Sounds/cat_tisores.mp3,2020-06-24_16h56.42.305,TranslationElicitation_eng-prolific,3.2.4,Win32,60,5ea3ef637e4bd537fe45cf6c,,1,0,81,71,1,80
,,,,,,,,,,,,,,,,,,,,,,,,,,,,,,,,,,,,,,,,,e,2.517999887,DESSE,FALSE,,,,,,,180,tisores,Catalan,Sounds/cat_tisores.mp3,2020-06-24_16h56.42.305,TranslationElicitation_eng-prolific,3.2.4,Win32,60,5ea3ef637e4bd537fe45cf6c,,1,0,81,71,1,80
,,,,,,,,,,,,,,,,,,,,,,,,,,,,,,,,,,,,,,,,,r,2.700999975,DESSER,FALSE,,,,,,,180,tisores,Catalan,Sounds/cat_tisores.mp3,2020-06-24_16h56.42.305,TranslationElicitation_eng-prolific,3.2.4,Win32,60,5ea3ef637e4bd537fe45cf6c,,1,0,81,71,1,80
,,,,,,,,,,,,,,,,,,,,,,,,,,,,,,,,,,,,,,,,,t,2.934999943,DESSERT,FALSE,,,,,,,180,tisores,Catalan,Sounds/cat_tisores.mp3,2020-06-24_16h56.42.305,TranslationElicitation_eng-prolific,3.2.4,Win32,60,5ea3ef637e4bd537fe45cf6c,,1,0,81,71,1,80
,,,,,,,,,,,,,,,,,,,,,,,,,,,,,,,,,,,,,,,,,return,3.167999983,DESSERT,FALSE,,,,,,,180,tisores,Catalan,Sounds/cat_tisores.mp3,2020-06-24_16h56.42.305,TranslationElicitation_eng-prolific,3.2.4,Win32,60,5ea3ef637e4bd537fe45cf6c,3.167999983,1,0,81,71,1,80
,,,,,,,,,,,,,,,,,,,,,,,,,,,,,,,,,,,,,,,,,,,,,,,,,,,180,tisores,Catalan,Sounds/cat_tisores.mp3,2020-06-24_16h56.42.305,TranslationElicitation_eng-prolific,3.2.4,Win32,60,5ea3ef637e4bd537fe45cf6c,,1,0,81,71,1,80
,,,,,,,,,,,,,,,,,,,,,,,,,,,,,,,,,,,,,,,,,m,1.917999983,M,FALSE,,,,,,,152,ma,Catalan,Sounds/cat_ma.mp3,2020-06-24_16h56.42.305,TranslationElicitation_eng-prolific,3.2.4,Win32,60,5ea3ef637e4bd537fe45cf6c,,1,0,81,45,1,80
,,,,,,,,,,,,,,,,,,,,,,,,,,,,,,,,,,,,,,,,,u,2.200999975,MU,FALSE,,,,,,,152,ma,Catalan,Sounds/cat_ma.mp3,2020-06-24_16h56.42.305,TranslationElicitation_eng-prolific,3.2.4,Win32,60,5ea3ef637e4bd537fe45cf6c,,1,0,81,45,1,80
,,,,,,,,,,,,,,,,,,,,,,,,,,,,,,,,,,,,,,,,,m,2.434999943,MUM,FALSE,,,,,,,152,ma,Catalan,Sounds/cat_ma.mp3,2020-06-24_16h56.42.305,TranslationElicitation_eng-prolific,3.2.4,Win32,60,5ea3ef637e4bd537fe45cf6c,,1,0,81,45,1,80
,,,,,,,,,,,,,,,,,,,,,,,,,,,,,,,,,,,,,,,,,return,3.069000006,MUM,FALSE,,,,,,,152,ma,Catalan,Sounds/cat_ma.mp3,2020-06-24_16h56.42.305,TranslationElicitation_eng-prolific,3.2.4,Win32,60,5ea3ef637e4bd537fe45cf6c,3.069000006,1,0,81,45,1,80
,,,,,,,,,,,,,,,,,,,,,,,,,,,,,,,,,,,,,,,,,,,,,,,,,,,152,ma,Catalan,Sounds/cat_ma.mp3,2020-06-24_16h56.42.305,TranslationElicitation_eng-prolific,3.2.4,Win32,60,5ea3ef637e4bd537fe45cf6c,,1,0,81,45,1,80
,,,,,,,,,,,,,,,,,,,,,,,,,,,,,,,,,,,,,,,,,p,1.717999935,P,FALSE,,,,,,,170,ploma,Catalan,Sounds/cat_ploma.mp3,2020-06-24_16h56.42.305,TranslationElicitation_eng-prolific,3.2.4,Win32,60,5ea3ef637e4bd537fe45cf6c,,1,0,81,62,1,80
,,,,,,,,,,,,,,,,,,,,,,,,,,,,,,,,,,,,,,,,,l,1.917999983,PL,FALSE,,,,,,,170,ploma,Catalan,Sounds/cat_ploma.mp3,2020-06-24_16h56.42.305,TranslationElicitation_eng-prolific,3.2.4,Win32,60,5ea3ef637e4bd537fe45cf6c,,1,0,81,62,1,80
,,,,,,,,,,,,,,,,,,,,,,,,,,,,,,,,,,,,,,,,,u,2.28399992,PLU,FALSE,,,,,,,170,ploma,Catalan,Sounds/cat_ploma.mp3,2020-06-24_16h56.42.305,TranslationElicitation_eng-prolific,3.2.4,Win32,60,5ea3ef637e4bd537fe45cf6c,,1,0,81,62,1,80
,,,,,,,,,,,,,,,,,,,,,,,,,,,,,,,,,,,,,,,,,m,2.851999998,PLUM,FALSE,,,,,,,170,ploma,Catalan,Sounds/cat_ploma.mp3,2020-06-24_16h56.42.305,TranslationElicitation_eng-prolific,3.2.4,Win32,60,5ea3ef637e4bd537fe45cf6c,,1,0,81,62,1,80
,,,,,,,,,,,,,,,,,,,,,,,,,,,,,,,,,,,,,,,,,b,3.151000023,PLUMB,FALSE,,,,,,,170,ploma,Catalan,Sounds/cat_ploma.mp3,2020-06-24_16h56.42.305,TranslationElicitation_eng-prolific,3.2.4,Win32,60,5ea3ef637e4bd537fe45cf6c,,1,0,81,62,1,80
,,,,,,,,,,,,,,,,,,,,,,,,,,,,,,,,,,,,,,,,,e,3.285000086,PLUMBE,FALSE,,,,,,,170,ploma,Catalan,Sounds/cat_ploma.mp3,2020-06-24_16h56.42.305,TranslationElicitation_eng-prolific,3.2.4,Win32,60,5ea3ef637e4bd537fe45cf6c,,1,0,81,62,1,80
,,,,,,,,,,,,,,,,,,,,,,,,,,,,,,,,,,,,,,,,,r,3.484999895,PLUMBER,FALSE,,,,,,,170,ploma,Catalan,Sounds/cat_ploma.mp3,2020-06-24_16h56.42.305,TranslationElicitation_eng-prolific,3.2.4,Win32,60,5ea3ef637e4bd537fe45cf6c,,1,0,81,62,1,80
,,,,,,,,,,,,,,,,,,,,,,,,,,,,,,,,,,,,,,,,,return,3.734999895,PLUMBER,FALSE,,,,,,,170,ploma,Catalan,Sounds/cat_ploma.mp3,2020-06-24_16h56.42.305,TranslationElicitation_eng-prolific,3.2.4,Win32,60,5ea3ef637e4bd537fe45cf6c,3.734999895,1,0,81,62,1,80
,,,,,,,,,,,,,,,,,,,,,,,,,,,,,,,,,,,,,,,,,,,,,,,,,,,170,ploma,Catalan,Sounds/cat_ploma.mp3,2020-06-24_16h56.42.305,TranslationElicitation_eng-prolific,3.2.4,Win32,60,5ea3ef637e4bd537fe45cf6c,,1,0,81,62,1,80
,,,,,,,,,,,,,,,,,,,,,,,,,,,,,,,,,,,,,,,,,j,2.684000015,J,FALSE,,,,,,,139,galleda,Catalan,Sounds/cat_galleda.mp3,2020-06-24_16h56.42.305,TranslationElicitation_eng-prolific,3.2.4,Win32,60,5ea3ef637e4bd537fe45cf6c,,1,0,81,33,1,80
,,,,,,,,,,,,,,,,,,,,,,,,,,,,,,,,,,,,,,,,,a,3.05099988,JA,FALSE,,,,,,,139,galleda,Catalan,Sounds/cat_galleda.mp3,2020-06-24_16h56.42.305,TranslationElicitation_eng-prolific,3.2.4,Win32,60,5ea3ef637e4bd537fe45cf6c,,1,0,81,33,1,80
,,,,,,,,,,,,,,,,,,,,,,,,,,,,,,,,,,,,,,,,,c,3.333999872,JAC,FALSE,,,,,,,139,galleda,Catalan,Sounds/cat_galleda.mp3,2020-06-24_16h56.42.305,TranslationElicitation_eng-prolific,3.2.4,Win32,60,5ea3ef637e4bd537fe45cf6c,,1,0,81,33,1,80
,,,,,,,,,,,,,,,,,,,,,,,,,,,,,,,,,,,,,,,,,k,3.500999928,JACK,FALSE,,,,,,,139,galleda,Catalan,Sounds/cat_galleda.mp3,2020-06-24_16h56.42.305,TranslationElicitation_eng-prolific,3.2.4,Win32,60,5ea3ef637e4bd537fe45cf6c,,1,0,81,33,1,80
,,,,,,,,,,,,,,,,,,,,,,,,,,,,,,,,,,,,,,,,,e,3.633999825,JACKE,FALSE,,,,,,,139,galleda,Catalan,Sounds/cat_galleda.mp3,2020-06-24_16h56.42.305,TranslationElicitation_eng-prolific,3.2.4,Win32,60,5ea3ef637e4bd537fe45cf6c,,1,0,81,33,1,80
,,,,,,,,,,,,,,,,,,,,,,,,,,,,,,,,,,,,,,,,,t,3.934999943,JACKET,FALSE,,,,,,,139,galleda,Catalan,Sounds/cat_galleda.mp3,2020-06-24_16h56.42.305,TranslationElicitation_eng-prolific,3.2.4,Win32,60,5ea3ef637e4bd537fe45cf6c,,1,0,81,33,1,80
,,,,,,,,,,,,,,,,,,,,,,,,,,,,,,,,,,,,,,,,,return,4.40199995,JACKET,FALSE,,,,,,,139,galleda,Catalan,Sounds/cat_galleda.mp3,2020-06-24_16h56.42.305,TranslationElicitation_eng-prolific,3.2.4,Win32,60,5ea3ef637e4bd537fe45cf6c,4.40199995,1,0,81,33,1,80
,,,,,,,,,,,,,,,,,,,,,,,,,,,,,,,,,,,,,,,,,,,,,,,,,,,139,galleda,Catalan,Sounds/cat_galleda.mp3,2020-06-24_16h56.42.305,TranslationElicitation_eng-prolific,3.2.4,Win32,60,5ea3ef637e4bd537fe45cf6c,,1,0,81,33,1,80
,,,,,,,,,,,,,,,,,,,,,,,,,,,,,,,,,,,,,,,,,n,7.636000156,N,FALSE,,,,,,,158,nas,Catalan,Sounds/cat_nas.mp3,2020-06-24_16h56.42.305,TranslationElicitation_eng-prolific,3.2.4,Win32,60,5ea3ef637e4bd537fe45cf6c,,1,0,81,51,1,80
,,,,,,,,,,,,,,,,,,,,,,,,,,,,,,,,,,,,,,,,,o,8.136000156,NO,FALSE,,,,,,,158,nas,Catalan,Sounds/cat_nas.mp3,2020-06-24_16h56.42.305,TranslationElicitation_eng-prolific,3.2.4,Win32,60,5ea3ef637e4bd537fe45cf6c,,1,0,81,51,1,80
,,,,,,,,,,,,,,,,,,,,,,,,,,,,,,,,,,,,,,,,,backspace,9.453999996,N,TRUE,,,,,,,158,nas,Catalan,Sounds/cat_nas.mp3,2020-06-24_16h56.42.305,TranslationElicitation_eng-prolific,3.2.4,Win32,60,5ea3ef637e4bd537fe45cf6c,,1,0,81,51,1,80
,,,,,,,,,,,,,,,,,,,,,,,,,,,,,,,,,,,,,,,,,backspace,9.670000076,,TRUE,,,,,,,158,nas,Catalan,Sounds/cat_nas.mp3,2020-06-24_16h56.42.305,TranslationElicitation_eng-prolific,3.2.4,Win32,60,5ea3ef637e4bd537fe45cf6c,,1,0,81,51,1,80
,,,,,,,,,,,,,,,,,,,,,,,,,,,,,,,,,,,,,,,,,f,21.875,F,TRUE,,,,,,,158,nas,Catalan,Sounds/cat_nas.mp3,2020-06-24_16h56.42.305,TranslationElicitation_eng-prolific,3.2.4,Win32,60,5ea3ef637e4bd537fe45cf6c,,1,0,81,51,1,80
,,,,,,,,,,,,,,,,,,,,,,,,,,,,,,,,,,,,,,,,,l,22.05900002,FL,TRUE,,,,,,,158,nas,Catalan,Sounds/cat_nas.mp3,2020-06-24_16h56.42.305,TranslationElicitation_eng-prolific,3.2.4,Win32,60,5ea3ef637e4bd537fe45cf6c,,1,0,81,51,1,80
,,,,,,,,,,,,,,,,,,,,,,,,,,,,,,,,,,,,,,,,,o,22.25900006,FLO,TRUE,,,,,,,158,nas,Catalan,Sounds/cat_nas.mp3,2020-06-24_16h56.42.305,TranslationElicitation_eng-prolific,3.2.4,Win32,60,5ea3ef637e4bd537fe45cf6c,,1,0,81,51,1,80
,,,,,,,,,,,,,,,,,,,,,,,,,,,,,,,,,,,,,,,,,o,22.39300013,FLOO,TRUE,,,,,,,158,nas,Catalan,Sounds/cat_nas.mp3,2020-06-24_16h56.42.305,TranslationElicitation_eng-prolific,3.2.4,Win32,60,5ea3ef637e4bd537fe45cf6c,,1,0,81,51,1,80
,,,,,,,,,,,,,,,,,,,,,,,,,,,,,,,,,,,,,,,,,r,22.47600007,FLOOR,TRUE,,,,,,,158,nas,Catalan,Sounds/cat_nas.mp3,2020-06-24_16h56.42.305,TranslationElicitation_eng-prolific,3.2.4,Win32,60,5ea3ef637e4bd537fe45cf6c,,1,0,81,51,1,80
,,,,,,,,,,,,,,,,,,,,,,,,,,,,,,,,,,,,,,,,,return,23.17600012,FLOOR,TRUE,,,,,,,158,nas,Catalan,Sounds/cat_nas.mp3,2020-06-24_16h56.42.305,TranslationElicitation_eng-prolific,3.2.4,Win32,60,5ea3ef637e4bd537fe45cf6c,23.17600012,1,0,81,51,1,80
,,,,,,,,,,,,,,,,,,,,,,,,,,,,,,,,,,,,,,,,,,,,,,,,,,,158,nas,Catalan,Sounds/cat_nas.mp3,2020-06-24_16h56.42.305,TranslationElicitation_eng-prolific,3.2.4,Win32,60,5ea3ef637e4bd537fe45cf6c,,1,0,81,51,1,80
,,,,,,,,,,,,,,,,,,,,,,,,,,,,,,,,,,,,,,,,,s,1.950999975,S,FALSE,,,,,,,131,esponja,Catalan,Sounds/cat_esponja.mp3,2020-06-24_16h56.42.305,TranslationElicitation_eng-prolific,3.2.4,Win32,60,5ea3ef637e4bd537fe45cf6c,,1,0,81,25,1,80
,,,,,,,,,,,,,,,,,,,,,,,,,,,,,,,,,,,,,,,,,p,2.151000023,SP,FALSE,,,,,,,131,esponja,Catalan,Sounds/cat_esponja.mp3,2020-06-24_16h56.42.305,TranslationElicitation_eng-prolific,3.2.4,Win32,60,5ea3ef637e4bd537fe45cf6c,,1,0,81,25,1,80
,,,,,,,,,,,,,,,,,,,,,,,,,,,,,,,,,,,,,,,,,o,2.384000063,SPO,FALSE,,,,,,,131,esponja,Catalan,Sounds/cat_esponja.mp3,2020-06-24_16h56.42.305,TranslationElicitation_eng-prolific,3.2.4,Win32,60,5ea3ef637e4bd537fe45cf6c,,1,0,81,25,1,80
,,,,,,,,,,,,,,,,,,,,,,,,,,,,,,,,,,,,,,,,,u,2.667000055,SPOU,FALSE,,,,,,,131,esponja,Catalan,Sounds/cat_esponja.mp3,2020-06-24_16h56.42.305,TranslationElicitation_eng-prolific,3.2.4,Win32,60,5ea3ef637e4bd537fe45cf6c,,1,0,81,25,1,80
,,,,,,,,,,,,,,,,,,,,,,,,,,,,,,,,,,,,,,,,,n,2.884000063,SPOUN,FALSE,,,,,,,131,esponja,Catalan,Sounds/cat_esponja.mp3,2020-06-24_16h56.42.305,TranslationElicitation_eng-prolific,3.2.4,Win32,60,5ea3ef637e4bd537fe45cf6c,,1,0,81,25,1,80
,,,,,,,,,,,,,,,,,,,,,,,,,,,,,,,,,,,,,,,,,g,3.134000063,SPOUNG,FALSE,,,,,,,131,esponja,Catalan,Sounds/cat_esponja.mp3,2020-06-24_16h56.42.305,TranslationElicitation_eng-prolific,3.2.4,Win32,60,5ea3ef637e4bd537fe45cf6c,,1,0,81,25,1,80
,,,,,,,,,,,,,,,,,,,,,,,,,,,,,,,,,,,,,,,,,e,3.234999895,SPOUNGE,FALSE,,,,,,,131,esponja,Catalan,Sounds/cat_esponja.mp3,2020-06-24_16h56.42.305,TranslationElicitation_eng-prolific,3.2.4,Win32,60,5ea3ef637e4bd537fe45cf6c,,1,0,81,25,1,80
,,,,,,,,,,,,,,,,,,,,,,,,,,,,,,,,,,,,,,,,,backspace,4.15199995,SPOUNG,TRUE,,,,,,,131,esponja,Catalan,Sounds/cat_esponja.mp3,2020-06-24_16h56.42.305,TranslationElicitation_eng-prolific,3.2.4,Win32,60,5ea3ef637e4bd537fe45cf6c,,1,0,81,25,1,80
,,,,,,,,,,,,,,,,,,,,,,,,,,,,,,,,,,,,,,,,,backspace,4.351999998,SPOUN,TRUE,,,,,,,131,esponja,Catalan,Sounds/cat_esponja.mp3,2020-06-24_16h56.42.305,TranslationElicitation_eng-prolific,3.2.4,Win32,60,5ea3ef637e4bd537fe45cf6c,,1,0,81,25,1,80
,,,,,,,,,,,,,,,,,,,,,,,,,,,,,,,,,,,,,,,,,backspace,4.517999887,SPOU,TRUE,,,,,,,131,esponja,Catalan,Sounds/cat_esponja.mp3,2020-06-24_16h56.42.305,TranslationElicitation_eng-prolific,3.2.4,Win32,60,5ea3ef637e4bd537fe45cf6c,,1,0,81,25,1,80
,,,,,,,,,,,,,,,,,,,,,,,,,,,,,,,,,,,,,,,,,backspace,5.41899991,SPO,TRUE,,,,,,,131,esponja,Catalan,Sounds/cat_esponja.mp3,2020-06-24_16h56.42.305,TranslationElicitation_eng-prolific,3.2.4,Win32,60,5ea3ef637e4bd537fe45cf6c,,1,0,81,25,1,80
,,,,,,,,,,,,,,,,,,,,,,,,,,,,,,,,,,,,,,,,,n,6.052000046,SPON,TRUE,,,,,,,131,esponja,Catalan,Sounds/cat_esponja.mp3,2020-06-24_16h56.42.305,TranslationElicitation_eng-prolific,3.2.4,Win32,60,5ea3ef637e4bd537fe45cf6c,,1,0,81,25,1,80
,,,,,,,,,,,,,,,,,,,,,,,,,,,,,,,,,,,,,,,,,g,6.352999926,SPONG,TRUE,,,,,,,131,esponja,Catalan,Sounds/cat_esponja.mp3,2020-06-24_16h56.42.305,TranslationElicitation_eng-prolific,3.2.4,Win32,60,5ea3ef637e4bd537fe45cf6c,,1,0,81,25,1,80
,,,,,,,,,,,,,,,,,,,,,,,,,,,,,,,,,,,,,,,,,i,6.670000076,SPONGI,TRUE,,,,,,,131,esponja,Catalan,Sounds/cat_esponja.mp3,2020-06-24_16h56.42.305,TranslationElicitation_eng-prolific,3.2.4,Win32,60,5ea3ef637e4bd537fe45cf6c,,1,0,81,25,1,80
,,,,,,,,,,,,,,,,,,,,,,,,,,,,,,,,,,,,,,,,,backspace,7.102999926,SPONG,TRUE,,,,,,,131,esponja,Catalan,Sounds/cat_esponja.mp3,2020-06-24_16h56.42.305,TranslationElicitation_eng-prolific,3.2.4,Win32,60,5ea3ef637e4bd537fe45cf6c,,1,0,81,25,1,80
,,,,,,,,,,,,,,,,,,,,,,,,,,,,,,,,,,,,,,,,,u,7.652999878,SPONGU,TRUE,,,,,,,131,esponja,Catalan,Sounds/cat_esponja.mp3,2020-06-24_16h56.42.305,TranslationElicitation_eng-prolific,3.2.4,Win32,60,5ea3ef637e4bd537fe45cf6c,,1,0,81,25,1,80
,,,,,,,,,,,,,,,,,,,,,,,,,,,,,,,,,,,,,,,,,e,7.753000021,SPONGUE,TRUE,,,,,,,131,esponja,Catalan,Sounds/cat_esponja.mp3,2020-06-24_16h56.42.305,TranslationElicitation_eng-prolific,3.2.4,Win32,60,5ea3ef637e4bd537fe45cf6c,,1,0,81,25,1,80
,,,,,,,,,,,,,,,,,,,,,,,,,,,,,,,,,,,,,,,,,return,8.572000027,SPONGUE,TRUE,,,,,,,131,esponja,Catalan,Sounds/cat_esponja.mp3,2020-06-24_16h56.42.305,TranslationElicitation_eng-prolific,3.2.4,Win32,60,5ea3ef637e4bd537fe45cf6c,8.572000027,1,0,81,25,1,80
,,,,,,,,,,,,,,,,,,,,,,,,,,,,,,,,,,,,,,,,,,,,,,,,,,,131,esponja,Catalan,Sounds/cat_esponja.mp3,2020-06-24_16h56.42.305,TranslationElicitation_eng-prolific,3.2.4,Win32,60,5ea3ef637e4bd537fe45cf6c,,1,0,81,25,1,80
,,,,,,,,,,,,,,,,,,,,,,,,,,,,,,,,,,,,,,,,,f,2.552000046,F,FALSE,,,,,,,137,fulla,Catalan,Sounds/cat_fulla.mp3,2020-06-24_16h56.42.305,TranslationElicitation_eng-prolific,3.2.4,Win32,60,5ea3ef637e4bd537fe45cf6c,,1,0,81,31,1,80
,,,,,,,,,,,,,,,,,,,,,,,,,,,,,,,,,,,,,,,,,r,2.752000093,FR,FALSE,,,,,,,137,fulla,Catalan,Sounds/cat_fulla.mp3,2020-06-24_16h56.42.305,TranslationElicitation_eng-prolific,3.2.4,Win32,60,5ea3ef637e4bd537fe45cf6c,,1,0,81,31,1,80
,,,,,,,,,,,,,,,,,,,,,,,,,,,,,,,,,,,,,,,,,u,3.035000086,FRU,FALSE,,,,,,,137,fulla,Catalan,Sounds/cat_fulla.mp3,2020-06-24_16h56.42.305,TranslationElicitation_eng-prolific,3.2.4,Win32,60,5ea3ef637e4bd537fe45cf6c,,1,0,81,31,1,80
,,,,,,,,,,,,,,,,,,,,,,,,,,,,,,,,,,,,,,,,,i,3.13499999,FRUI,FALSE,,,,,,,137,fulla,Catalan,Sounds/cat_fulla.mp3,2020-06-24_16h56.42.305,TranslationElicitation_eng-prolific,3.2.4,Win32,60,5ea3ef637e4bd537fe45cf6c,,1,0,81,31,1,80
,,,,,,,,,,,,,,,,,,,,,,,,,,,,,,,,,,,,,,,,,t,3.286000013,FRUIT,FALSE,,,,,,,137,fulla,Catalan,Sounds/cat_fulla.mp3,2020-06-24_16h56.42.305,TranslationElicitation_eng-prolific,3.2.4,Win32,60,5ea3ef637e4bd537fe45cf6c,,1,0,81,31,1,80
,,,,,,,,,,,,,,,,,,,,,,,,,,,,,,,,,,,,,,,,,return,3.919000149,FRUIT,FALSE,,,,,,,137,fulla,Catalan,Sounds/cat_fulla.mp3,2020-06-24_16h56.42.305,TranslationElicitation_eng-prolific,3.2.4,Win32,60,5ea3ef637e4bd537fe45cf6c,3.919000149,1,0,81,31,1,80
,,,,,,,,,,,,,,,,,,,,,,,,,,,,,,,,,,,,,,,,,,,,,,,,,,,137,fulla,Catalan,Sounds/cat_fulla.mp3,2020-06-24_16h56.42.305,TranslationElicitation_eng-prolific,3.2.4,Win32,60,5ea3ef637e4bd537fe45cf6c,,1,0,81,31,1,80
,,,,,,,,,,,,,,,,,,,,,,,,,,,,,,,,,,,,,,,,,b,2.25,B,FALSE,,,,,,,114,bol,Catalan,Sounds/cat_bol.mp3,2020-06-24_16h56.42.305,TranslationElicitation_eng-prolific,3.2.4,Win32,60,5ea3ef637e4bd537fe45cf6c,,1,0,81,9,1,80
,,,,,,,,,,,,,,,,,,,,,,,,,,,,,,,,,,,,,,,,,a,2.78399992,BA,FALSE,,,,,,,114,bol,Catalan,Sounds/cat_bol.mp3,2020-06-24_16h56.42.305,TranslationElicitation_eng-prolific,3.2.4,Win32,60,5ea3ef637e4bd537fe45cf6c,,1,0,81,9,1,80
,,,,,,,,,,,,,,,,,,,,,,,,,,,,,,,,,,,,,,,,,l,3.03399992,BAL,FALSE,,,,,,,114,bol,Catalan,Sounds/cat_bol.mp3,2020-06-24_16h56.42.305,TranslationElicitation_eng-prolific,3.2.4,Win32,60,5ea3ef637e4bd537fe45cf6c,,1,0,81,9,1,80
,,,,,,,,,,,,,,,,,,,,,,,,,,,,,,,,,,,,,,,,,l,3.200000048,BALL,FALSE,,,,,,,114,bol,Catalan,Sounds/cat_bol.mp3,2020-06-24_16h56.42.305,TranslationElicitation_eng-prolific,3.2.4,Win32,60,5ea3ef637e4bd537fe45cf6c,,1,0,81,9,1,80
,,,,,,,,,,,,,,,,,,,,,,,,,,,,,,,,,,,,,,,,,return,3.76699996,BALL,FALSE,,,,,,,114,bol,Catalan,Sounds/cat_bol.mp3,2020-06-24_16h56.42.305,TranslationElicitation_eng-prolific,3.2.4,Win32,60,5ea3ef637e4bd537fe45cf6c,3.76699996,1,0,81,9,1,80
,,,,,,,,,,,,,,,,,,,,,,,,,,,,,,,,,,,,,,,,,,,,,,,,,,,114,bol,Catalan,Sounds/cat_bol.mp3,2020-06-24_16h56.42.305,TranslationElicitation_eng-prolific,3.2.4,Win32,60,5ea3ef637e4bd537fe45cf6c,,1,0,81,9,1,80
,,,,,,,,,,,,,,,,,,,,,,,,,,,,,,,,,,,,,,,,,a,1.318000078,A,FALSE,,,,,,,132,estrella,Catalan,Sounds/cat_estrella.mp3,2020-06-24_16h56.42.305,TranslationElicitation_eng-prolific,3.2.4,Win32,60,5ea3ef637e4bd537fe45cf6c,,1,0,81,26,1,80
,,,,,,,,,,,,,,,,,,,,,,,,,,,,,,,,,,,,,,,,,u,1.600000143,AU,FALSE,,,,,,,132,estrella,Catalan,Sounds/cat_estrella.mp3,2020-06-24_16h56.42.305,TranslationElicitation_eng-prolific,3.2.4,Win32,60,5ea3ef637e4bd537fe45cf6c,,1,0,81,26,1,80
,,,,,,,,,,,,,,,,,,,,,,,,,,,,,,,,,,,,,,,,,s,1.702000141,AUS,FALSE,,,,,,,132,estrella,Catalan,Sounds/cat_estrella.mp3,2020-06-24_16h56.42.305,TranslationElicitation_eng-prolific,3.2.4,Win32,60,5ea3ef637e4bd537fe45cf6c,,1,0,81,26,1,80
,,,,,,,,,,,,,,,,,,,,,,,,,,,,,,,,,,,,,,,,,t,1.917999983,AUST,FALSE,,,,,,,132,estrella,Catalan,Sounds/cat_estrella.mp3,2020-06-24_16h56.42.305,TranslationElicitation_eng-prolific,3.2.4,Win32,60,5ea3ef637e4bd537fe45cf6c,,1,0,81,26,1,80
,,,,,,,,,,,,,,,,,,,,,,,,,,,,,,,,,,,,,,,,,r,2.134000063,AUSTR,FALSE,,,,,,,132,estrella,Catalan,Sounds/cat_estrella.mp3,2020-06-24_16h56.42.305,TranslationElicitation_eng-prolific,3.2.4,Win32,60,5ea3ef637e4bd537fe45cf6c,,1,0,81,26,1,80
,,,,,,,,,,,,,,,,,,,,,,,,,,,,,,,,,,,,,,,,,a,5.153000116,AUSTRA,FALSE,,,,,,,132,estrella,Catalan,Sounds/cat_estrella.mp3,2020-06-24_16h56.42.305,TranslationElicitation_eng-prolific,3.2.4,Win32,60,5ea3ef637e4bd537fe45cf6c,,1,0,81,26,1,80
,,,,,,,,,,,,,,,,,,,,,,,,,,,,,,,,,,,,,,,,,l,5.503000021,AUSTRAL,FALSE,,,,,,,132,estrella,Catalan,Sounds/cat_estrella.mp3,2020-06-24_16h56.42.305,TranslationElicitation_eng-prolific,3.2.4,Win32,60,5ea3ef637e4bd537fe45cf6c,,1,0,81,26,1,80
,,,,,,,,,,,,,,,,,,,,,,,,,,,,,,,,,,,,,,,,,i,5.769999981,AUSTRALI,FALSE,,,,,,,132,estrella,Catalan,Sounds/cat_estrella.mp3,2020-06-24_16h56.42.305,TranslationElicitation_eng-prolific,3.2.4,Win32,60,5ea3ef637e4bd537fe45cf6c,,1,0,81,26,1,80
,,,,,,,,,,,,,,,,,,,,,,,,,,,,,,,,,,,,,,,,,a,5.919000149,AUSTRALIA,FALSE,,,,,,,132,estrella,Catalan,Sounds/cat_estrella.mp3,2020-06-24_16h56.42.305,TranslationElicitation_eng-prolific,3.2.4,Win32,60,5ea3ef637e4bd537fe45cf6c,,1,0,81,26,1,80
,,,,,,,,,,,,,,,,,,,,,,,,,,,,,,,,,,,,,,,,,return,6.437000036,AUSTRALIA,FALSE,,,,,,,132,estrella,Catalan,Sounds/cat_estrella.mp3,2020-06-24_16h56.42.305,TranslationElicitation_eng-prolific,3.2.4,Win32,60,5ea3ef637e4bd537fe45cf6c,6.437000036,1,0,81,26,1,80
,,,,,,,,,,,,,,,,,,,,,,,,,,,,,,,,,,,,,,,,,,,,,,,,,,,132,estrella,Catalan,Sounds/cat_estrella.mp3,2020-06-24_16h56.42.305,TranslationElicitation_eng-prolific,3.2.4,Win32,60,5ea3ef637e4bd537fe45cf6c,,1,0,81,26,1,80
,,,,,,,,,,,,,,,,,,,,,,,,,,,,,,,,,,,,,,,,,f,1.934999943,F,FALSE,,,,,,,135,formiga,Catalan,Sounds/cat_formiga.mp3,2020-06-24_16h56.42.305,TranslationElicitation_eng-prolific,3.2.4,Win32,60,5ea3ef637e4bd537fe45cf6c,,1,0,81,29,1,80
,,,,,,,,,,,,,,,,,,,,,,,,,,,,,,,,,,,,,,,,,r,5.434999943,FR,FALSE,,,,,,,135,formiga,Catalan,Sounds/cat_formiga.mp3,2020-06-24_16h56.42.305,TranslationElicitation_eng-prolific,3.2.4,Win32,60,5ea3ef637e4bd537fe45cf6c,,1,0,81,29,1,80
,,,,,,,,,,,,,,,,,,,,,,,,,,,,,,,,,,,,,,,,,i,5.636000156,FRI,FALSE,,,,,,,135,formiga,Catalan,Sounds/cat_formiga.mp3,2020-06-24_16h56.42.305,TranslationElicitation_eng-prolific,3.2.4,Win32,60,5ea3ef637e4bd537fe45cf6c,,1,0,81,29,1,80
,,,,,,,,,,,,,,,,,,,,,,,,,,,,,,,,,,,,,,,,,e,5.753000021,FRIE,FALSE,,,,,,,135,formiga,Catalan,Sounds/cat_formiga.mp3,2020-06-24_16h56.42.305,TranslationElicitation_eng-prolific,3.2.4,Win32,60,5ea3ef637e4bd537fe45cf6c,,1,0,81,29,1,80
,,,,,,,,,,,,,,,,,,,,,,,,,,,,,,,,,,,,,,,,,n,5.936000109,FRIEN,FALSE,,,,,,,135,formiga,Catalan,Sounds/cat_formiga.mp3,2020-06-24_16h56.42.305,TranslationElicitation_eng-prolific,3.2.4,Win32,60,5ea3ef637e4bd537fe45cf6c,,1,0,81,29,1,80
,,,,,,,,,,,,,,,,,,,,,,,,,,,,,,,,,,,,,,,,,d,6.170000076,FRIEND,FALSE,,,,,,,135,formiga,Catalan,Sounds/cat_formiga.mp3,2020-06-24_16h56.42.305,TranslationElicitation_eng-prolific,3.2.4,Win32,60,5ea3ef637e4bd537fe45cf6c,,1,0,81,29,1,80
,,,,,,,,,,,,,,,,,,,,,,,,,,,,,,,,,,,,,,,,,s,6.253000021,FRIENDS,FALSE,,,,,,,135,formiga,Catalan,Sounds/cat_formiga.mp3,2020-06-24_16h56.42.305,TranslationElicitation_eng-prolific,3.2.4,Win32,60,5ea3ef637e4bd537fe45cf6c,,1,0,81,29,1,80
,,,,,,,,,,,,,,,,,,,,,,,,,,,,,,,,,,,,,,,,,return,6.603000164,FRIENDS,FALSE,,,,,,,135,formiga,Catalan,Sounds/cat_formiga.mp3,2020-06-24_16h56.42.305,TranslationElicitation_eng-prolific,3.2.4,Win32,60,5ea3ef637e4bd537fe45cf6c,6.603000164,1,0,81,29,1,80
,,,,,,,,,,,,,,,,,,,,,,,,,,,,,,,,,,,,,,,,,,,,,,,,,,,135,formiga,Catalan,Sounds/cat_formiga.mp3,2020-06-24_16h56.42.305,TranslationElicitation_eng-prolific,3.2.4,Win32,60,5ea3ef637e4bd537fe45cf6c,,1,0,81,29,1,80
,,,,,,,,,,,,,,,,,,,,,,,,,,,,,,,,,,,,,,,,,m,8.887000084,M,FALSE,,,,,,,153,mico,Catalan,Sounds/cat_mico.mp3,2020-06-24_16h56.42.305,TranslationElicitation_eng-prolific,3.2.4,Win32,60,5ea3ef637e4bd537fe45cf6c,,1,0,81,46,1,80
,,,,,,,,,,,,,,,,,,,,,,,,,,,,,,,,,,,,,,,,,a,9.319999933,MA,FALSE,,,,,,,153,mico,Catalan,Sounds/cat_mico.mp3,2020-06-24_16h56.42.305,TranslationElicitation_eng-prolific,3.2.4,Win32,60,5ea3ef637e4bd537fe45cf6c,,1,0,81,46,1,80
,,,,,,,,,,,,,,,,,,,,,,,,,,,,,,,,,,,,,,,,,y,9.470000029,MAY,FALSE,,,,,,,153,mico,Catalan,Sounds/cat_mico.mp3,2020-06-24_16h56.42.305,TranslationElicitation_eng-prolific,3.2.4,Win32,60,5ea3ef637e4bd537fe45cf6c,,1,0,81,46,1,80
,,,,,,,,,,,,,,,,,,,,,,,,,,,,,,,,,,,,,,,,,b,9.654000044,MAYB,FALSE,,,,,,,153,mico,Catalan,Sounds/cat_mico.mp3,2020-06-24_16h56.42.305,TranslationElicitation_eng-prolific,3.2.4,Win32,60,5ea3ef637e4bd537fe45cf6c,,1,0,81,46,1,80
,,,,,,,,,,,,,,,,,,,,,,,,,,,,,,,,,,,,,,,,,e,9.736999989,MAYBE,FALSE,,,,,,,153,mico,Catalan,Sounds/cat_mico.mp3,2020-06-24_16h56.42.305,TranslationElicitation_eng-prolific,3.2.4,Win32,60,5ea3ef637e4bd537fe45cf6c,,1,0,81,46,1,80
,,,,,,,,,,,,,,,,,,,,,,,,,,,,,,,,,,,,,,,,,return,10.204,MAYBE,FALSE,,,,,,,153,mico,Catalan,Sounds/cat_mico.mp3,2020-06-24_16h56.42.305,TranslationElicitation_eng-prolific,3.2.4,Win32,60,5ea3ef637e4bd537fe45cf6c,10.204,1,0,81,46,1,80
,,,,,,,,,,,,,,,,,,,,,,,,,,,,,,,,,,,,,,,,,,,,,,,,,,,153,mico,Catalan,Sounds/cat_mico.mp3,2020-06-24_16h56.42.305,TranslationElicitation_eng-prolific,3.2.4,Win32,60,5ea3ef637e4bd537fe45cf6c,,1,0,81,46,1,80
,,,,,,,,,,,,,,,,,,,,,,,,,,,,,,,,,,,,,,,,,u,1.417000055,U,FALSE,,,,,,,161,ovella,Catalan,Sounds/cat_ovella.mp3,2020-06-24_16h56.42.305,TranslationElicitation_eng-prolific,3.2.4,Win32,60,5ea3ef637e4bd537fe45cf6c,,1,0,81,53,1,80
,,,,,,,,,,,,,,,,,,,,,,,,,,,,,,,,,,,,,,,,,m,1.650000095,UM,FALSE,,,,,,,161,ovella,Catalan,Sounds/cat_ovella.mp3,2020-06-24_16h56.42.305,TranslationElicitation_eng-prolific,3.2.4,Win32,60,5ea3ef637e4bd537fe45cf6c,,1,0,81,53,1,80
,,,,,,,,,,,,,,,,,,,,,,,,,,,,,,,,,,,,,,,,,b,1.917000055,UMB,FALSE,,,,,,,161,ovella,Catalan,Sounds/cat_ovella.mp3,2020-06-24_16h56.42.305,TranslationElicitation_eng-prolific,3.2.4,Win32,60,5ea3ef637e4bd537fe45cf6c,,1,0,81,53,1,80
,,,,,,,,,,,,,,,,,,,,,,,,,,,,,,,,,,,,,,,,,r,2.100000143,UMBR,FALSE,,,,,,,161,ovella,Catalan,Sounds/cat_ovella.mp3,2020-06-24_16h56.42.305,TranslationElicitation_eng-prolific,3.2.4,Win32,60,5ea3ef637e4bd537fe45cf6c,,1,0,81,53,1,80
,,,,,,,,,,,,,,,,,,,,,,,,,,,,,,,,,,,,,,,,,e,2.167000055,UMBRE,FALSE,,,,,,,161,ovella,Catalan,Sounds/cat_ovella.mp3,2020-06-24_16h56.42.305,TranslationElicitation_eng-prolific,3.2.4,Win32,60,5ea3ef637e4bd537fe45cf6c,,1,0,81,53,1,80
,,,,,,,,,,,,,,,,,,,,,,,,,,,,,,,,,,,,,,,,,l,2.51699996,UMBREL,FALSE,,,,,,,161,ovella,Catalan,Sounds/cat_ovella.mp3,2020-06-24_16h56.42.305,TranslationElicitation_eng-prolific,3.2.4,Win32,60,5ea3ef637e4bd537fe45cf6c,,1,0,81,53,1,80
,,,,,,,,,,,,,,,,,,,,,,,,,,,,,,,,,,,,,,,,,l,2.651000023,UMBRELL,FALSE,,,,,,,161,ovella,Catalan,Sounds/cat_ovella.mp3,2020-06-24_16h56.42.305,TranslationElicitation_eng-prolific,3.2.4,Win32,60,5ea3ef637e4bd537fe45cf6c,,1,0,81,53,1,80
,,,,,,,,,,,,,,,,,,,,,,,,,,,,,,,,,,,,,,,,,a,2.76699996,UMBRELLA,FALSE,,,,,,,161,ovella,Catalan,Sounds/cat_ovella.mp3,2020-06-24_16h56.42.305,TranslationElicitation_eng-prolific,3.2.4,Win32,60,5ea3ef637e4bd537fe45cf6c,,1,0,81,53,1,80
,,,,,,,,,,,,,,,,,,,,,,,,,,,,,,,,,,,,,,,,,return,2.934000015,UMBRELLA,FALSE,,,,,,,161,ovella,Catalan,Sounds/cat_ovella.mp3,2020-06-24_16h56.42.305,TranslationElicitation_eng-prolific,3.2.4,Win32,60,5ea3ef637e4bd537fe45cf6c,2.934000015,1,0,81,53,1,80
,,,,,,,,,,,,,,,,,,,,,,,,,,,,,,,,,,,,,,,,,,,,,,,,,,,161,ovella,Catalan,Sounds/cat_ovella.mp3,2020-06-24_16h56.42.305,TranslationElicitation_eng-prolific,3.2.4,Win32,60,5ea3ef637e4bd537fe45cf6c,,1,0,81,53,1,80
,,,,,,,,,,,,,,,,,,,,,,,,,,,,,,,,,,,,,,,,,j,4.685000181,J,FALSE,,,,,,,113,boca,Catalan,Sounds/cat_boca.mp3,2020-06-24_16h56.42.305,TranslationElicitation_eng-prolific,3.2.4,Win32,60,5ea3ef637e4bd537fe45cf6c,,1,0,81,8,1,80
,,,,,,,,,,,,,,,,,,,,,,,,,,,,,,,,,,,,,,,,,u,4.851999998,JU,FALSE,,,,,,,113,boca,Catalan,Sounds/cat_boca.mp3,2020-06-24_16h56.42.305,TranslationElicitation_eng-prolific,3.2.4,Win32,60,5ea3ef637e4bd537fe45cf6c,,1,0,81,8,1,80
,,,,,,,,,,,,,,,,,,,,,,,,,,,,,,,,,,,,,,,,,m,5.035000086,JUM,FALSE,,,,,,,113,boca,Catalan,Sounds/cat_boca.mp3,2020-06-24_16h56.42.305,TranslationElicitation_eng-prolific,3.2.4,Win32,60,5ea3ef637e4bd537fe45cf6c,,1,0,81,8,1,80
,,,,,,,,,,,,,,,,,,,,,,,,,,,,,,,,,,,,,,,,,p,5.368000031,JUMP,FALSE,,,,,,,113,boca,Catalan,Sounds/cat_boca.mp3,2020-06-24_16h56.42.305,TranslationElicitation_eng-prolific,3.2.4,Win32,60,5ea3ef637e4bd537fe45cf6c,,1,0,81,8,1,80
,,,,,,,,,,,,,,,,,,,,,,,,,,,,,,,,,,,,,,,,,e,5.536000013,JUMPE,FALSE,,,,,,,113,boca,Catalan,Sounds/cat_boca.mp3,2020-06-24_16h56.42.305,TranslationElicitation_eng-prolific,3.2.4,Win32,60,5ea3ef637e4bd537fe45cf6c,,1,0,81,8,1,80
,,,,,,,,,,,,,,,,,,,,,,,,,,,,,,,,,,,,,,,,,r,5.786000013,JUMPER,FALSE,,,,,,,113,boca,Catalan,Sounds/cat_boca.mp3,2020-06-24_16h56.42.305,TranslationElicitation_eng-prolific,3.2.4,Win32,60,5ea3ef637e4bd537fe45cf6c,,1,0,81,8,1,80
,,,,,,,,,,,,,,,,,,,,,,,,,,,,,,,,,,,,,,,,,return,5.969000101,JUMPER,FALSE,,,,,,,113,boca,Catalan,Sounds/cat_boca.mp3,2020-06-24_16h56.42.305,TranslationElicitation_eng-prolific,3.2.4,Win32,60,5ea3ef637e4bd537fe45cf6c,5.969000101,1,0,81,8,1,80
,,,,,,,,,,,,,,,,,,,,,,,,,,,,,,,,,,,,,,,,,,,,,,,,,,,113,boca,Catalan,Sounds/cat_boca.mp3,2020-06-24_16h56.42.305,TranslationElicitation_eng-prolific,3.2.4,Win32,60,5ea3ef637e4bd537fe45cf6c,,1,0,81,8,1,80
,,,,,,,,,,,,,,,,,,,,,,,,,,,,,,,,,,,,,,,,,g,3.018000126,G,FALSE,,,,,,,163,papallona,Catalan,Sounds/cat_papallona.mp3,2020-06-24_16h56.42.305,TranslationElicitation_eng-prolific,3.2.4,Win32,60,5ea3ef637e4bd537fe45cf6c,,1,0,81,55,1,80
,,,,,,,,,,,,,,,,,,,,,,,,,,,,,,,,,,,,,,,,,r,3.085000038,GR,FALSE,,,,,,,163,papallona,Catalan,Sounds/cat_papallona.mp3,2020-06-24_16h56.42.305,TranslationElicitation_eng-prolific,3.2.4,Win32,60,5ea3ef637e4bd537fe45cf6c,,1,0,81,55,1,80
,,,,,,,,,,,,,,,,,,,,,,,,,,,,,,,,,,,,,,,,,a,3.568000078,GRA,FALSE,,,,,,,163,papallona,Catalan,Sounds/cat_papallona.mp3,2020-06-24_16h56.42.305,TranslationElicitation_eng-prolific,3.2.4,Win32,60,5ea3ef637e4bd537fe45cf6c,,1,0,81,55,1,80
,,,,,,,,,,,,,,,,,,,,,,,,,,,,,,,,,,,,,,,,,n,3.968000174,GRAN,FALSE,,,,,,,163,papallona,Catalan,Sounds/cat_papallona.mp3,2020-06-24_16h56.42.305,TranslationElicitation_eng-prolific,3.2.4,Win32,60,5ea3ef637e4bd537fe45cf6c,,1,0,81,55,1,80
,,,,,,,,,,,,,,,,,,,,,,,,,,,,,,,,,,,,,,,,,d,4.868000031,GRAND,FALSE,,,,,,,163,papallona,Catalan,Sounds/cat_papallona.mp3,2020-06-24_16h56.42.305,TranslationElicitation_eng-prolific,3.2.4,Win32,60,5ea3ef637e4bd537fe45cf6c,,1,0,81,55,1,80
,,,,,,,,,,,,,,,,,,,,,,,,,,,,,,,,,,,,,,,,,f,5.302000046,GRANDF,FALSE,,,,,,,163,papallona,Catalan,Sounds/cat_papallona.mp3,2020-06-24_16h56.42.305,TranslationElicitation_eng-prolific,3.2.4,Win32,60,5ea3ef637e4bd537fe45cf6c,,1,0,81,55,1,80
,,,,,,,,,,,,,,,,,,,,,,,,,,,,,,,,,,,,,,,,,a,5.469000101,GRANDFA,FALSE,,,,,,,163,papallona,Catalan,Sounds/cat_papallona.mp3,2020-06-24_16h56.42.305,TranslationElicitation_eng-prolific,3.2.4,Win32,60,5ea3ef637e4bd537fe45cf6c,,1,0,81,55,1,80
,,,,,,,,,,,,,,,,,,,,,,,,,,,,,,,,,,,,,,,,,t,5.669000149,GRANDFAT,FALSE,,,,,,,163,papallona,Catalan,Sounds/cat_papallona.mp3,2020-06-24_16h56.42.305,TranslationElicitation_eng-prolific,3.2.4,Win32,60,5ea3ef637e4bd537fe45cf6c,,1,0,81,55,1,80
,,,,,,,,,,,,,,,,,,,,,,,,,,,,,,,,,,,,,,,,,h,5.851999998,GRANDFATH,FALSE,,,,,,,163,papallona,Catalan,Sounds/cat_papallona.mp3,2020-06-24_16h56.42.305,TranslationElicitation_eng-prolific,3.2.4,Win32,60,5ea3ef637e4bd537fe45cf6c,,1,0,81,55,1,80
,,,,,,,,,,,,,,,,,,,,,,,,,,,,,,,,,,,,,,,,,e,6.019000053,GRANDFATHE,FALSE,,,,,,,163,papallona,Catalan,Sounds/cat_papallona.mp3,2020-06-24_16h56.42.305,TranslationElicitation_eng-prolific,3.2.4,Win32,60,5ea3ef637e4bd537fe45cf6c,,1,0,81,55,1,80
,,,,,,,,,,,,,,,,,,,,,,,,,,,,,,,,,,,,,,,,,r,6.470000029,GRANDFATHER,FALSE,,,,,,,163,papallona,Catalan,Sounds/cat_papallona.mp3,2020-06-24_16h56.42.305,TranslationElicitation_eng-prolific,3.2.4,Win32,60,5ea3ef637e4bd537fe45cf6c,,1,0,81,55,1,80
,,,,,,,,,,,,,,,,,,,,,,,,,,,,,,,,,,,,,,,,,return,7.319000006,GRANDFATHER,FALSE,,,,,,,163,papallona,Catalan,Sounds/cat_papallona.mp3,2020-06-24_16h56.42.305,TranslationElicitation_eng-prolific,3.2.4,Win32,60,5ea3ef637e4bd537fe45cf6c,7.319000006,1,0,81,55,1,80
,,,,,,,,,,,,,,,,,,,,,,,,,,,,,,,,,,,,,,,,,,,,,,,,,,,163,papallona,Catalan,Sounds/cat_papallona.mp3,2020-06-24_16h56.42.305,TranslationElicitation_eng-prolific,3.2.4,Win32,60,5ea3ef637e4bd537fe45cf6c,,1,0,81,55,1,80
,,,,,,,,,,,,,,,,,,,,,,,,,,,,,,,,,,,,,,,,,d,3.717999935,D,FALSE,,,,,,,129,dit,Catalan,Sounds/cat_dit.mp3,2020-06-24_16h56.42.305,TranslationElicitation_eng-prolific,3.2.4,Win32,60,5ea3ef637e4bd537fe45cf6c,,1,0,81,23,1,80
,,,,,,,,,,,,,,,,,,,,,,,,,,,,,,,,,,,,,,,,,i,3.88499999,DI,FALSE,,,,,,,129,dit,Catalan,Sounds/cat_dit.mp3,2020-06-24_16h56.42.305,TranslationElicitation_eng-prolific,3.2.4,Win32,60,5ea3ef637e4bd537fe45cf6c,,1,0,81,23,1,80
,,,,,,,,,,,,,,,,,,,,,,,,,,,,,,,,,,,,,,,,,e,4.001999855,DIE,FALSE,,,,,,,129,dit,Catalan,Sounds/cat_dit.mp3,2020-06-24_16h56.42.305,TranslationElicitation_eng-prolific,3.2.4,Win32,60,5ea3ef637e4bd537fe45cf6c,,1,0,81,23,1,80
,,,,,,,,,,,,,,,,,,,,,,,,,,,,,,,,,,,,,,,,,t,4.234999895,DIET,FALSE,,,,,,,129,dit,Catalan,Sounds/cat_dit.mp3,2020-06-24_16h56.42.305,TranslationElicitation_eng-prolific,3.2.4,Win32,60,5ea3ef637e4bd537fe45cf6c,,1,0,81,23,1,80
,,,,,,,,,,,,,,,,,,,,,,,,,,,,,,,,,,,,,,,,,return,4.90199995,DIET,FALSE,,,,,,,129,dit,Catalan,Sounds/cat_dit.mp3,2020-06-24_16h56.42.305,TranslationElicitation_eng-prolific,3.2.4,Win32,60,5ea3ef637e4bd537fe45cf6c,4.90199995,1,0,81,23,1,80
,,,,,,,,,,,,,,,,,,,,,,,,,,,,,,,,,,,,,,,,,,,,,,,,,,,129,dit,Catalan,Sounds/cat_dit.mp3,2020-06-24_16h56.42.305,TranslationElicitation_eng-prolific,3.2.4,Win32,60,5ea3ef637e4bd537fe45cf6c,,1,0,81,23,1,80
,,,,,,,,,,,,,,,,,,,,,,,,,,,,,,,,,,,,,,,,,w,1.700000048,W,FALSE,,,,,,,105,aigua,Catalan,Sounds/cat_aigua.mp3,2020-06-24_16h56.42.305,TranslationElicitation_eng-prolific,3.2.4,Win32,60,5ea3ef637e4bd537fe45cf6c,,1,0,81,1,1,80
,,,,,,,,,,,,,,,,,,,,,,,,,,,,,,,,,,,,,,,,,a,1.934000015,WA,FALSE,,,,,,,105,aigua,Catalan,Sounds/cat_aigua.mp3,2020-06-24_16h56.42.305,TranslationElicitation_eng-prolific,3.2.4,Win32,60,5ea3ef637e4bd537fe45cf6c,,1,0,81,1,1,80
,,,,,,,,,,,,,,,,,,,,,,,,,,,,,,,,,,,,,,,,,t,2.082999945,WAT,FALSE,,,,,,,105,aigua,Catalan,Sounds/cat_aigua.mp3,2020-06-24_16h56.42.305,TranslationElicitation_eng-prolific,3.2.4,Win32,60,5ea3ef637e4bd537fe45cf6c,,1,0,81,1,1,80
,,,,,,,,,,,,,,,,,,,,,,,,,,,,,,,,,,,,,,,,,e,2.200999975,WATE,FALSE,,,,,,,105,aigua,Catalan,Sounds/cat_aigua.mp3,2020-06-24_16h56.42.305,TranslationElicitation_eng-prolific,3.2.4,Win32,60,5ea3ef637e4bd537fe45cf6c,,1,0,81,1,1,80
,,,,,,,,,,,,,,,,,,,,,,,,,,,,,,,,,,,,,,,,,r,2.401000023,WATER,FALSE,,,,,,,105,aigua,Catalan,Sounds/cat_aigua.mp3,2020-06-24_16h56.42.305,TranslationElicitation_eng-prolific,3.2.4,Win32,60,5ea3ef637e4bd537fe45cf6c,,1,0,81,1,1,80
,,,,,,,,,,,,,,,,,,,,,,,,,,,,,,,,,,,,,,,,,return,2.617000103,WATER,FALSE,,,,,,,105,aigua,Catalan,Sounds/cat_aigua.mp3,2020-06-24_16h56.42.305,TranslationElicitation_eng-prolific,3.2.4,Win32,60,5ea3ef637e4bd537fe45cf6c,2.617000103,1,0,81,1,1,80
,,,,,,,,,,,,,,,,,,,,,,,,,,,,,,,,,,,,,,,,,,,,,,,,,,,105,aigua,Catalan,Sounds/cat_aigua.mp3,2020-06-24_16h56.42.305,TranslationElicitation_eng-prolific,3.2.4,Win32,60,5ea3ef637e4bd537fe45cf6c,,1,0,81,1,1,80
,,,,,,,,,,,,,,,,,,,,,,,,,,,,,,,,,,,,,,,,,p,1.582000017,P,FALSE,,,,,,,168,planta,Catalan,Sounds/cat_planta.mp3,2020-06-24_16h56.42.305,TranslationElicitation_eng-prolific,3.2.4,Win32,60,5ea3ef637e4bd537fe45cf6c,,1,0,81,60,1,80
,,,,,,,,,,,,,,,,,,,,,,,,,,,,,,,,,,,,,,,,,l,1.781999826,PL,FALSE,,,,,,,168,planta,Catalan,Sounds/cat_planta.mp3,2020-06-24_16h56.42.305,TranslationElicitation_eng-prolific,3.2.4,Win32,60,5ea3ef637e4bd537fe45cf6c,,1,0,81,60,1,80
,,,,,,,,,,,,,,,,,,,,,,,,,,,,,,,,,,,,,,,,,a,1.931999922,PLA,FALSE,,,,,,,168,planta,Catalan,Sounds/cat_planta.mp3,2020-06-24_16h56.42.305,TranslationElicitation_eng-prolific,3.2.4,Win32,60,5ea3ef637e4bd537fe45cf6c,,1,0,81,60,1,80
,,,,,,,,,,,,,,,,,,,,,,,,,,,,,,,,,,,,,,,,,n,2.048999786,PLAN,FALSE,,,,,,,168,planta,Catalan,Sounds/cat_planta.mp3,2020-06-24_16h56.42.305,TranslationElicitation_eng-prolific,3.2.4,Win32,60,5ea3ef637e4bd537fe45cf6c,,1,0,81,60,1,80
,,,,,,,,,,,,,,,,,,,,,,,,,,,,,,,,,,,,,,,,,t,2.448999882,PLANT,FALSE,,,,,,,168,planta,Catalan,Sounds/cat_planta.mp3,2020-06-24_16h56.42.305,TranslationElicitation_eng-prolific,3.2.4,Win32,60,5ea3ef637e4bd537fe45cf6c,,1,0,81,60,1,80
,,,,,,,,,,,,,,,,,,,,,,,,,,,,,,,,,,,,,,,,,return,2.782999992,PLANT,FALSE,,,,,,,168,planta,Catalan,Sounds/cat_planta.mp3,2020-06-24_16h56.42.305,TranslationElicitation_eng-prolific,3.2.4,Win32,60,5ea3ef637e4bd537fe45cf6c,2.782999992,1,0,81,60,1,80
,,,,,,,,,,,,,,,,,,,,,,,,,,,,,,,,,,,,,,,,,,,,,,,,,,,168,planta,Catalan,Sounds/cat_planta.mp3,2020-06-24_16h56.42.305,TranslationElicitation_eng-prolific,3.2.4,Win32,60,5ea3ef637e4bd537fe45cf6c,,1,0,81,60,1,80
,,,,,,,,,,,,,,,,,,,,,,,,,,,,,,,,,,,,,,,,,d,5.684999943,D,FALSE,,,,,,,181,tobogan,Catalan,Sounds/cat_tobogan.mp3,2020-06-24_16h56.42.305,TranslationElicitation_eng-prolific,3.2.4,Win32,60,5ea3ef637e4bd537fe45cf6c,,1,0,81,72,1,80
,,,,,,,,,,,,,,,,,,,,,,,,,,,,,,,,,,,,,,,,,o,5.88499999,DO,FALSE,,,,,,,181,tobogan,Catalan,Sounds/cat_tobogan.mp3,2020-06-24_16h56.42.305,TranslationElicitation_eng-prolific,3.2.4,Win32,60,5ea3ef637e4bd537fe45cf6c,,1,0,81,72,1,80
,,,,,,,,,,,,,,,,,,,,,,,,,,,,,,,,,,,,,,,,,u,6.15199995,DOU,FALSE,,,,,,,181,tobogan,Catalan,Sounds/cat_tobogan.mp3,2020-06-24_16h56.42.305,TranslationElicitation_eng-prolific,3.2.4,Win32,60,5ea3ef637e4bd537fe45cf6c,,1,0,81,72,1,80
,,,,,,,,,,,,,,,,,,,,,,,,,,,,,,,,,,,,,,,,,b,6.66899991,DOUB,FALSE,,,,,,,181,tobogan,Catalan,Sounds/cat_tobogan.mp3,2020-06-24_16h56.42.305,TranslationElicitation_eng-prolific,3.2.4,Win32,60,5ea3ef637e4bd537fe45cf6c,,1,0,81,72,1,80
,,,,,,,,,,,,,,,,,,,,,,,,,,,,,,,,,,,,,,,,,l,7.302000046,DOUBL,FALSE,,,,,,,181,tobogan,Catalan,Sounds/cat_tobogan.mp3,2020-06-24_16h56.42.305,TranslationElicitation_eng-prolific,3.2.4,Win32,60,5ea3ef637e4bd537fe45cf6c,,1,0,81,72,1,80
,,,,,,,,,,,,,,,,,,,,,,,,,,,,,,,,,,,,,,,,,e,7.451999903,DOUBLE,FALSE,,,,,,,181,tobogan,Catalan,Sounds/cat_tobogan.mp3,2020-06-24_16h56.42.305,TranslationElicitation_eng-prolific,3.2.4,Win32,60,5ea3ef637e4bd537fe45cf6c,,1,0,81,72,1,80
,,,,,,,,,,,,,,,,,,,,,,,,,,,,,,,,,,,,,,,,,return,7.635999918,DOUBLE,FALSE,,,,,,,181,tobogan,Catalan,Sounds/cat_tobogan.mp3,2020-06-24_16h56.42.305,TranslationElicitation_eng-prolific,3.2.4,Win32,60,5ea3ef637e4bd537fe45cf6c,7.635999918,1,0,81,72,1,80
,,,,,,,,,,,,,,,,,,,,,,,,,,,,,,,,,,,,,,,,,,,,,,,,,,,181,tobogan,Catalan,Sounds/cat_tobogan.mp3,2020-06-24_16h56.42.305,TranslationElicitation_eng-prolific,3.2.4,Win32,60,5ea3ef637e4bd537fe45cf6c,,1,0,81,72,1,80
,,,,,,,,,,,,,,,,,,,,,,,,,,,,,,,,,,,,,,,,,b,2.401000023,B,FALSE,,,,,,,116,bolquer,Catalan,Sounds/cat_bolquer.mp3,2020-06-24_16h56.42.305,TranslationElicitation_eng-prolific,3.2.4,Win32,60,5ea3ef637e4bd537fe45cf6c,,1,0,81,11,1,80
,,,,,,,,,,,,,,,,,,,,,,,,,,,,,,,,,,,,,,,,,a,2.63499999,BA,FALSE,,,,,,,116,bolquer,Catalan,Sounds/cat_bolquer.mp3,2020-06-24_16h56.42.305,TranslationElicitation_eng-prolific,3.2.4,Win32,60,5ea3ef637e4bd537fe45cf6c,,1,0,81,11,1,80
,,,,,,,,,,,,,,,,,,,,,,,,,,,,,,,,,,,,,,,,,l,2.835000038,BAL,FALSE,,,,,,,116,bolquer,Catalan,Sounds/cat_bolquer.mp3,2020-06-24_16h56.42.305,TranslationElicitation_eng-prolific,3.2.4,Win32,60,5ea3ef637e4bd537fe45cf6c,,1,0,81,11,1,80
,,,,,,,,,,,,,,,,,,,,,,,,,,,,,,,,,,,,,,,,,l,2.969000101,BALL,FALSE,,,,,,,116,bolquer,Catalan,Sounds/cat_bolquer.mp3,2020-06-24_16h56.42.305,TranslationElicitation_eng-prolific,3.2.4,Win32,60,5ea3ef637e4bd537fe45cf6c,,1,0,81,11,1,80
,,,,,,,,,,,,,,,,,,,,,,,,,,,,,,,,,,,,,,,,,space,3.802000046,BALL ,FALSE,,,,,,,116,bolquer,Catalan,Sounds/cat_bolquer.mp3,2020-06-24_16h56.42.305,TranslationElicitation_eng-prolific,3.2.4,Win32,60,5ea3ef637e4bd537fe45cf6c,,1,0,81,11,1,80
,,,,,,,,,,,,,,,,,,,,,,,,,,,,,,,,,,,,,,,,,g,3.969000101,BALL G,FALSE,,,,,,,116,bolquer,Catalan,Sounds/cat_bolquer.mp3,2020-06-24_16h56.42.305,TranslationElicitation_eng-prolific,3.2.4,Win32,60,5ea3ef637e4bd537fe45cf6c,,1,0,81,11,1,80
,,,,,,,,,,,,,,,,,,,,,,,,,,,,,,,,,,,,,,,,,a,4.103000164,BALL GA,FALSE,,,,,,,116,bolquer,Catalan,Sounds/cat_bolquer.mp3,2020-06-24_16h56.42.305,TranslationElicitation_eng-prolific,3.2.4,Win32,60,5ea3ef637e4bd537fe45cf6c,,1,0,81,11,1,80
,,,,,,,,,,,,,,,,,,,,,,,,,,,,,,,,,,,,,,,,,m,4.819000006,BALL GAM,FALSE,,,,,,,116,bolquer,Catalan,Sounds/cat_bolquer.mp3,2020-06-24_16h56.42.305,TranslationElicitation_eng-prolific,3.2.4,Win32,60,5ea3ef637e4bd537fe45cf6c,,1,0,81,11,1,80
,,,,,,,,,,,,,,,,,,,,,,,,,,,,,,,,,,,,,,,,,e,4.886000156,BALL GAME,FALSE,,,,,,,116,bolquer,Catalan,Sounds/cat_bolquer.mp3,2020-06-24_16h56.42.305,TranslationElicitation_eng-prolific,3.2.4,Win32,60,5ea3ef637e4bd537fe45cf6c,,1,0,81,11,1,80
,,,,,,,,,,,,,,,,,,,,,,,,,,,,,,,,,,,,,,,,,return,5.136000156,BALL GAME,FALSE,,,,,,,116,bolquer,Catalan,Sounds/cat_bolquer.mp3,2020-06-24_16h56.42.305,TranslationElicitation_eng-prolific,3.2.4,Win32,60,5ea3ef637e4bd537fe45cf6c,5.136000156,1,0,81,11,1,80
,,,,,,,,,,,,,,,,,,,,,,,,,,,,,,,,,,,,,,,,,,,,,,,,,,,116,bolquer,Catalan,Sounds/cat_bolquer.mp3,2020-06-24_16h56.42.305,TranslationElicitation_eng-prolific,3.2.4,Win32,60,5ea3ef637e4bd537fe45cf6c,,1,0,81,11,1,80
,,,,,,,,,,,,,,,,,,,,,,,,,,,,,,,,,,,,,,,,,i,3.985999823,I,FALSE,,,,,,,112,bici,Catalan,Sounds/cat_bici.mp3,2020-06-24_16h56.42.305,TranslationElicitation_eng-prolific,3.2.4,Win32,60,5ea3ef637e4bd537fe45cf6c,,1,0,81,7,1,80
,,,,,,,,,,,,,,,,,,,,,,,,,,,,,,,,,,,,,,,,,c,4.118999958,IC,FALSE,,,,,,,112,bici,Catalan,Sounds/cat_bici.mp3,2020-06-24_16h56.42.305,TranslationElicitation_eng-prolific,3.2.4,Win32,60,5ea3ef637e4bd537fe45cf6c,,1,0,81,7,1,80
,,,,,,,,,,,,,,,,,,,,,,,,,,,,,,,,,,,,,,,,,y,4.335999966,ICY,FALSE,,,,,,,112,bici,Catalan,Sounds/cat_bici.mp3,2020-06-24_16h56.42.305,TranslationElicitation_eng-prolific,3.2.4,Win32,60,5ea3ef637e4bd537fe45cf6c,,1,0,81,7,1,80
,,,,,,,,,,,,,,,,,,,,,,,,,,,,,,,,,,,,,,,,,return,5.18599987,ICY,FALSE,,,,,,,112,bici,Catalan,Sounds/cat_bici.mp3,2020-06-24_16h56.42.305,TranslationElicitation_eng-prolific,3.2.4,Win32,60,5ea3ef637e4bd537fe45cf6c,5.18599987,1,0,81,7,1,80
,,,,,,,,,,,,,,,,,,,,,,,,,,,,,,,,,,,,,,,,,,,,,,,,,,,112,bici,Catalan,Sounds/cat_bici.mp3,2020-06-24_16h56.42.305,TranslationElicitation_eng-prolific,3.2.4,Win32,60,5ea3ef637e4bd537fe45cf6c,,1,0,81,7,1,80
,,,,,,,,,,,,,,,,,,,,,,,,,,,,,,,,,,,,,,,,,m,1.667000055,M,FALSE,,,,,,,154,mirall,Catalan,Sounds/cat_mirall.mp3,2020-06-24_16h56.42.305,TranslationElicitation_eng-prolific,3.2.4,Win32,60,5ea3ef637e4bd537fe45cf6c,,1,0,81,47,1,80
,,,,,,,,,,,,,,,,,,,,,,,,,,,,,,,,,,,,,,,,,i,2.067000151,MI,FALSE,,,,,,,154,mirall,Catalan,Sounds/cat_mirall.mp3,2020-06-24_16h56.42.305,TranslationElicitation_eng-prolific,3.2.4,Win32,60,5ea3ef637e4bd537fe45cf6c,,1,0,81,47,1,80
,,,,,,,,,,,,,,,,,,,,,,,,,,,,,,,,,,,,,,,,,r,2.334000111,MIR,FALSE,,,,,,,154,mirall,Catalan,Sounds/cat_mirall.mp3,2020-06-24_16h56.42.305,TranslationElicitation_eng-prolific,3.2.4,Win32,60,5ea3ef637e4bd537fe45cf6c,,1,0,81,47,1,80
,,,,,,,,,,,,,,,,,,,,,,,,,,,,,,,,,,,,,,,,,r,2.5,MIRR,FALSE,,,,,,,154,mirall,Catalan,Sounds/cat_mirall.mp3,2020-06-24_16h56.42.305,TranslationElicitation_eng-prolific,3.2.4,Win32,60,5ea3ef637e4bd537fe45cf6c,,1,0,81,47,1,80
,,,,,,,,,,,,,,,,,,,,,,,,,,,,,,,,,,,,,,,,,o,3.218000174,MIRRO,FALSE,,,,,,,154,mirall,Catalan,Sounds/cat_mirall.mp3,2020-06-24_16h56.42.305,TranslationElicitation_eng-prolific,3.2.4,Win32,60,5ea3ef637e4bd537fe45cf6c,,1,0,81,47,1,80
,,,,,,,,,,,,,,,,,,,,,,,,,,,,,,,,,,,,,,,,,r,3.351000071,MIRROR,FALSE,,,,,,,154,mirall,Catalan,Sounds/cat_mirall.mp3,2020-06-24_16h56.42.305,TranslationElicitation_eng-prolific,3.2.4,Win32,60,5ea3ef637e4bd537fe45cf6c,,1,0,81,47,1,80
,,,,,,,,,,,,,,,,,,,,,,,,,,,,,,,,,,,,,,,,,return,4.018000126,MIRROR,FALSE,,,,,,,154,mirall,Catalan,Sounds/cat_mirall.mp3,2020-06-24_16h56.42.305,TranslationElicitation_eng-prolific,3.2.4,Win32,60,5ea3ef637e4bd537fe45cf6c,4.018000126,1,0,81,47,1,80
,,,,,,,,,,,,,,,,,,,,,,,,,,,,,,,,,,,,,,,,,,,,,,,,,,,154,mirall,Catalan,Sounds/cat_mirall.mp3,2020-06-24_16h56.42.305,TranslationElicitation_eng-prolific,3.2.4,Win32,60,5ea3ef637e4bd537fe45cf6c,,1,0,81,47,1,80
,,,,,,,,,,,,,,,,,,,,,,,,,,,,,,,,,,,,,,,,,l,1.948999882,L,FALSE,,,,,,,185,ulleres,Catalan,Sounds/cat_ulleres.mp3,2020-06-24_16h56.42.305,TranslationElicitation_eng-prolific,3.2.4,Win32,60,5ea3ef637e4bd537fe45cf6c,,1,0,81,76,1,80
,,,,,,,,,,,,,,,,,,,,,,,,,,,,,,,,,,,,,,,,,e,2.183999777,LE,FALSE,,,,,,,185,ulleres,Catalan,Sounds/cat_ulleres.mp3,2020-06-24_16h56.42.305,TranslationElicitation_eng-prolific,3.2.4,Win32,60,5ea3ef637e4bd537fe45cf6c,,1,0,81,76,1,80
,,,,,,,,,,,,,,,,,,,,,,,,,,,,,,,,,,,,,,,,,t,2.415999889,LET,FALSE,,,,,,,185,ulleres,Catalan,Sounds/cat_ulleres.mp3,2020-06-24_16h56.42.305,TranslationElicitation_eng-prolific,3.2.4,Win32,60,5ea3ef637e4bd537fe45cf6c,,1,0,81,76,1,80
,,,,,,,,,,,,,,,,,,,,,,,,,,,,,,,,,,,,,,,,,t,2.549999952,LETT,FALSE,,,,,,,185,ulleres,Catalan,Sounds/cat_ulleres.mp3,2020-06-24_16h56.42.305,TranslationElicitation_eng-prolific,3.2.4,Win32,60,5ea3ef637e4bd537fe45cf6c,,1,0,81,76,1,80
,,,,,,,,,,,,,,,,,,,,,,,,,,,,,,,,,,,,,,,,,e,2.665999889,LETTE,FALSE,,,,,,,185,ulleres,Catalan,Sounds/cat_ulleres.mp3,2020-06-24_16h56.42.305,TranslationElicitation_eng-prolific,3.2.4,Win32,60,5ea3ef637e4bd537fe45cf6c,,1,0,81,76,1,80
,,,,,,,,,,,,,,,,,,,,,,,,,,,,,,,,,,,,,,,,,r,2.866999865,LETTER,FALSE,,,,,,,185,ulleres,Catalan,Sounds/cat_ulleres.mp3,2020-06-24_16h56.42.305,TranslationElicitation_eng-prolific,3.2.4,Win32,60,5ea3ef637e4bd537fe45cf6c,,1,0,81,76,1,80
,,,,,,,,,,,,,,,,,,,,,,,,,,,,,,,,,,,,,,,,,d,3.199999809,LETTERD,FALSE,,,,,,,185,ulleres,Catalan,Sounds/cat_ulleres.mp3,2020-06-24_16h56.42.305,TranslationElicitation_eng-prolific,3.2.4,Win32,60,5ea3ef637e4bd537fe45cf6c,,1,0,81,76,1,80
,,,,,,,,,,,,,,,,,,,,,,,,,,,,,,,,,,,,,,,,,return,3.432999849,LETTERD,FALSE,,,,,,,185,ulleres,Catalan,Sounds/cat_ulleres.mp3,2020-06-24_16h56.42.305,TranslationElicitation_eng-prolific,3.2.4,Win32,60,5ea3ef637e4bd537fe45cf6c,3.432999849,1,0,81,76,1,80
,,,,,,,,,,,,,,,,,,,,,,,,,,,,,,,,,,,,,,,,,,,,,,,,,,,185,ulleres,Catalan,Sounds/cat_ulleres.mp3,2020-06-24_16h56.42.305,TranslationElicitation_eng-prolific,3.2.4,Win32,60,5ea3ef637e4bd537fe45cf6c,,1,0,81,76,1,80
,,,,,,,,,,,,,,,,,,,,,,,,,,,,,,,,,,,,,,,,,a,1.567000151,A,FALSE,,,,,,,120,cama,Catalan,Sounds/cat_cama.mp3,2020-06-24_16h56.42.305,TranslationElicitation_eng-prolific,3.2.4,Win32,60,5ea3ef637e4bd537fe45cf6c,,1,0,81,15,1,80
,,,,,,,,,,,,,,,,,,,,,,,,,,,,,,,,,,,,,,,,,m,1.668000221,AM,FALSE,,,,,,,120,cama,Catalan,Sounds/cat_cama.mp3,2020-06-24_16h56.42.305,TranslationElicitation_eng-prolific,3.2.4,Win32,60,5ea3ef637e4bd537fe45cf6c,,1,0,81,15,1,80
,,,,,,,,,,,,,,,,,,,,,,,,,,,,,,,,,,,,,,,,,e,1.834000111,AME,FALSE,,,,,,,120,cama,Catalan,Sounds/cat_cama.mp3,2020-06-24_16h56.42.305,TranslationElicitation_eng-prolific,3.2.4,Win32,60,5ea3ef637e4bd537fe45cf6c,,1,0,81,15,1,80
,,,,,,,,,,,,,,,,,,,,,,,,,,,,,,,,,,,,,,,,,r,2.034000158,AMER,FALSE,,,,,,,120,cama,Catalan,Sounds/cat_cama.mp3,2020-06-24_16h56.42.305,TranslationElicitation_eng-prolific,3.2.4,Win32,60,5ea3ef637e4bd537fe45cf6c,,1,0,81,15,1,80
,,,,,,,,,,,,,,,,,,,,,,,,,,,,,,,,,,,,,,,,,a,2.368000031,AMERA,FALSE,,,,,,,120,cama,Catalan,Sounds/cat_cama.mp3,2020-06-24_16h56.42.305,TranslationElicitation_eng-prolific,3.2.4,Win32,60,5ea3ef637e4bd537fe45cf6c,,1,0,81,15,1,80
,,,,,,,,,,,,,,,,,,,,,,,,,,,,,,,,,,,,,,,,,c,4.569000006,AMERAC,FALSE,,,,,,,120,cama,Catalan,Sounds/cat_cama.mp3,2020-06-24_16h56.42.305,TranslationElicitation_eng-prolific,3.2.4,Win32,60,5ea3ef637e4bd537fe45cf6c,,1,0,81,15,1,80
,,,,,,,,,,,,,,,,,,,,,,,,,,,,,,,,,,,,,,,,,backspace,5.569000006,AMERA,TRUE,,,,,,,120,cama,Catalan,Sounds/cat_cama.mp3,2020-06-24_16h56.42.305,TranslationElicitation_eng-prolific,3.2.4,Win32,60,5ea3ef637e4bd537fe45cf6c,,1,0,81,15,1,80
,,,,,,,,,,,,,,,,,,,,,,,,,,,,,,,,,,,,,,,,,backspace,6.069000006,AMER,TRUE,,,,,,,120,cama,Catalan,Sounds/cat_cama.mp3,2020-06-24_16h56.42.305,TranslationElicitation_eng-prolific,3.2.4,Win32,60,5ea3ef637e4bd537fe45cf6c,,1,0,81,15,1,80
,,,,,,,,,,,,,,,,,,,,,,,,,,,,,,,,,,,,,,,,,backspace,6.103000164,AME,TRUE,,,,,,,120,cama,Catalan,Sounds/cat_cama.mp3,2020-06-24_16h56.42.305,TranslationElicitation_eng-prolific,3.2.4,Win32,60,5ea3ef637e4bd537fe45cf6c,,1,0,81,15,1,80
,,,,,,,,,,,,,,,,,,,,,,,,,,,,,,,,,,,,,,,,,backspace,6.136000156,AM,TRUE,,,,,,,120,cama,Catalan,Sounds/cat_cama.mp3,2020-06-24_16h56.42.305,TranslationElicitation_eng-prolific,3.2.4,Win32,60,5ea3ef637e4bd537fe45cf6c,,1,0,81,15,1,80
,,,,,,,,,,,,,,,,,,,,,,,,,,,,,,,,,,,,,,,,,backspace,6.169000149,A,TRUE,,,,,,,120,cama,Catalan,Sounds/cat_cama.mp3,2020-06-24_16h56.42.305,TranslationElicitation_eng-prolific,3.2.4,Win32,60,5ea3ef637e4bd537fe45cf6c,,1,0,81,15,1,80
,,,,,,,,,,,,,,,,,,,,,,,,,,,,,,,,,,,,,,,,,backspace,6.202000141,,TRUE,,,,,,,120,cama,Catalan,Sounds/cat_cama.mp3,2020-06-24_16h56.42.305,TranslationElicitation_eng-prolific,3.2.4,Win32,60,5ea3ef637e4bd537fe45cf6c,,1,0,81,15,1,80
,,,,,,,,,,,,,,,,,,,,,,,,,,,,,,,,,,,,,,,,,backspace,6.236000061,,TRUE,,,,,,,120,cama,Catalan,Sounds/cat_cama.mp3,2020-06-24_16h56.42.305,TranslationElicitation_eng-prolific,3.2.4,Win32,60,5ea3ef637e4bd537fe45cf6c,,1,0,81,15,1,80
,,,,,,,,,,,,,,,,,,,,,,,,,,,,,,,,,,,,,,,,,backspace,6.269000053,,TRUE,,,,,,,120,cama,Catalan,Sounds/cat_cama.mp3,2020-06-24_16h56.42.305,TranslationElicitation_eng-prolific,3.2.4,Win32,60,5ea3ef637e4bd537fe45cf6c,,1,0,81,15,1,80
,,,,,,,,,,,,,,,,,,,,,,,,,,,,,,,,,,,,,,,,,c,6.670000076,C,TRUE,,,,,,,120,cama,Catalan,Sounds/cat_cama.mp3,2020-06-24_16h56.42.305,TranslationElicitation_eng-prolific,3.2.4,Win32,60,5ea3ef637e4bd537fe45cf6c,,1,0,81,15,1,80
,,,,,,,,,,,,,,,,,,,,,,,,,,,,,,,,,,,,,,,,,a,7.020000219,CA,TRUE,,,,,,,120,cama,Catalan,Sounds/cat_cama.mp3,2020-06-24_16h56.42.305,TranslationElicitation_eng-prolific,3.2.4,Win32,60,5ea3ef637e4bd537fe45cf6c,,1,0,81,15,1,80
,,,,,,,,,,,,,,,,,,,,,,,,,,,,,,,,,,,,,,,,,m,7.370000124,CAM,TRUE,,,,,,,120,cama,Catalan,Sounds/cat_cama.mp3,2020-06-24_16h56.42.305,TranslationElicitation_eng-prolific,3.2.4,Win32,60,5ea3ef637e4bd537fe45cf6c,,1,0,81,15,1,80
,,,,,,,,,,,,,,,,,,,,,,,,,,,,,,,,,,,,,,,,,e,7.486000061,CAME,TRUE,,,,,,,120,cama,Catalan,Sounds/cat_cama.mp3,2020-06-24_16h56.42.305,TranslationElicitation_eng-prolific,3.2.4,Win32,60,5ea3ef637e4bd537fe45cf6c,,1,0,81,15,1,80
,,,,,,,,,,,,,,,,,,,,,,,,,,,,,,,,,,,,,,,,,r,7.637000084,CAMER,TRUE,,,,,,,120,cama,Catalan,Sounds/cat_cama.mp3,2020-06-24_16h56.42.305,TranslationElicitation_eng-prolific,3.2.4,Win32,60,5ea3ef637e4bd537fe45cf6c,,1,0,81,15,1,80
,,,,,,,,,,,,,,,,,,,,,,,,,,,,,,,,,,,,,,,,,a,8.053000212,CAMERA,TRUE,,,,,,,120,cama,Catalan,Sounds/cat_cama.mp3,2020-06-24_16h56.42.305,TranslationElicitation_eng-prolific,3.2.4,Win32,60,5ea3ef637e4bd537fe45cf6c,,1,0,81,15,1,80
,,,,,,,,,,,,,,,,,,,,,,,,,,,,,,,,,,,,,,,,,return,8.186000109,CAMERA,TRUE,,,,,,,120,cama,Catalan,Sounds/cat_cama.mp3,2020-06-24_16h56.42.305,TranslationElicitation_eng-prolific,3.2.4,Win32,60,5ea3ef637e4bd537fe45cf6c,8.186000109,1,0,81,15,1,80
,,,,,,,,,,,,,,,,,,,,,,,,,,,,,,,,,,,,,,,,,,,,,,,,,,,120,cama,Catalan,Sounds/cat_cama.mp3,2020-06-24_16h56.42.305,TranslationElicitation_eng-prolific,3.2.4,Win32,60,5ea3ef637e4bd537fe45cf6c,,1,0,81,15,1,80
,,,,,,,,,,,,,,,,,,,,,,,,,,,,,,,,,,,,,,,,,p,2.902999878,P,FALSE,,,,,,,171,pollastre,Catalan,Sounds/cat_pollastre.mp3,2020-06-24_16h56.42.305,TranslationElicitation_eng-prolific,3.2.4,Win32,60,5ea3ef637e4bd537fe45cf6c,,1,0,81,63,1,80
,,,,,,,,,,,,,,,,,,,,,,,,,,,,,,,,,,,,,,,,,o,3.284999847,PO,FALSE,,,,,,,171,pollastre,Catalan,Sounds/cat_pollastre.mp3,2020-06-24_16h56.42.305,TranslationElicitation_eng-prolific,3.2.4,Win32,60,5ea3ef637e4bd537fe45cf6c,,1,0,81,63,1,80
,,,,,,,,,,,,,,,,,,,,,,,,,,,,,,,,,,,,,,,,,o,3.450999975,POO,FALSE,,,,,,,171,pollastre,Catalan,Sounds/cat_pollastre.mp3,2020-06-24_16h56.42.305,TranslationElicitation_eng-prolific,3.2.4,Win32,60,5ea3ef637e4bd537fe45cf6c,,1,0,81,63,1,80
,,,,,,,,,,,,,,,,,,,,,,,,,,,,,,,,,,,,,,,,,l,3.651000023,POOL,FALSE,,,,,,,171,pollastre,Catalan,Sounds/cat_pollastre.mp3,2020-06-24_16h56.42.305,TranslationElicitation_eng-prolific,3.2.4,Win32,60,5ea3ef637e4bd537fe45cf6c,,1,0,81,63,1,80
,,,,,,,,,,,,,,,,,,,,,,,,,,,,,,,,,,,,,,,,,return,3.8349998,POOL,FALSE,,,,,,,171,pollastre,Catalan,Sounds/cat_pollastre.mp3,2020-06-24_16h56.42.305,TranslationElicitation_eng-prolific,3.2.4,Win32,60,5ea3ef637e4bd537fe45cf6c,3.8349998,1,0,81,63,1,80
,,,,,,,,,,,,,,,,,,,,,,,,,,,,,,,,,,,,,,,,,,,,,,,,,,,171,pollastre,Catalan,Sounds/cat_pollastre.mp3,2020-06-24_16h56.42.305,TranslationElicitation_eng-prolific,3.2.4,Win32,60,5ea3ef637e4bd537fe45cf6c,,1,0,81,63,1,80
,,,,,,,,,,,,,,,,,,,,,,,,,,,,,,,,,,,,,,,,,h,2.784000158,H,FALSE,,,,,,,110,berenar,Catalan,Sounds/cat_berenar.mp3,2020-06-24_16h56.42.305,TranslationElicitation_eng-prolific,3.2.4,Win32,60,5ea3ef637e4bd537fe45cf6c,,1,0,81,5,1,80
,,,,,,,,,,,,,,,,,,,,,,,,,,,,,,,,,,,,,,,,,o,3.118000031,HO,FALSE,,,,,,,110,berenar,Catalan,Sounds/cat_berenar.mp3,2020-06-24_16h56.42.305,TranslationElicitation_eng-prolific,3.2.4,Win32,60,5ea3ef637e4bd537fe45cf6c,,1,0,81,5,1,80
,,,,,,,,,,,,,,,,,,,,,,,,,,,,,,,,,,,,,,,,,u,3.351999998,HOU,FALSE,,,,,,,110,berenar,Catalan,Sounds/cat_berenar.mp3,2020-06-24_16h56.42.305,TranslationElicitation_eng-prolific,3.2.4,Win32,60,5ea3ef637e4bd537fe45cf6c,,1,0,81,5,1,80
,,,,,,,,,,,,,,,,,,,,,,,,,,,,,,,,,,,,,,,,,s,3.435000181,HOUS,FALSE,,,,,,,110,berenar,Catalan,Sounds/cat_berenar.mp3,2020-06-24_16h56.42.305,TranslationElicitation_eng-prolific,3.2.4,Win32,60,5ea3ef637e4bd537fe45cf6c,,1,0,81,5,1,80
,,,,,,,,,,,,,,,,,,,,,,,,,,,,,,,,,,,,,,,,,e,3.652000189,HOUSE,FALSE,,,,,,,110,berenar,Catalan,Sounds/cat_berenar.mp3,2020-06-24_16h56.42.305,TranslationElicitation_eng-prolific,3.2.4,Win32,60,5ea3ef637e4bd537fe45cf6c,,1,0,81,5,1,80
,,,,,,,,,,,,,,,,,,,,,,,,,,,,,,,,,,,,,,,,,return,3.785000086,HOUSE,FALSE,,,,,,,110,berenar,Catalan,Sounds/cat_berenar.mp3,2020-06-24_16h56.42.305,TranslationElicitation_eng-prolific,3.2.4,Win32,60,5ea3ef637e4bd537fe45cf6c,3.785000086,1,0,81,5,1,80
,,,,,,,,,,,,,,,,,,,,,,,,,,,,,,,,,,,,,,,,,,,,,,,,,,,110,berenar,Catalan,Sounds/cat_berenar.mp3,2020-06-24_16h56.42.305,TranslationElicitation_eng-prolific,3.2.4,Win32,60,5ea3ef637e4bd537fe45cf6c,,1,0,81,5,1,80
,,,,,,,,,,,,,,,,,,,,,,,,,,,,,,,,,,,,,,,,,s,1.567000151,S,FALSE,,,,,,,189,zebra,Catalan,Sounds/cat_zebra.mp3,2020-06-24_16h56.42.305,TranslationElicitation_eng-prolific,3.2.4,Win32,60,5ea3ef637e4bd537fe45cf6c,,1,0,81,80,1,80
,,,,,,,,,,,,,,,,,,,,,,,,,,,,,,,,,,,,,,,,,backspace,2.100000143,,TRUE,,,,,,,189,zebra,Catalan,Sounds/cat_zebra.mp3,2020-06-24_16h56.42.305,TranslationElicitation_eng-prolific,3.2.4,Win32,60,5ea3ef637e4bd537fe45cf6c,,1,0,81,80,1,80
,,,,,,,,,,,,,,,,,,,,,,,,,,,,,,,,,,,,,,,,,z,2.701000214,Z,TRUE,,,,,,,189,zebra,Catalan,Sounds/cat_zebra.mp3,2020-06-24_16h56.42.305,TranslationElicitation_eng-prolific,3.2.4,Win32,60,5ea3ef637e4bd537fe45cf6c,,1,0,81,80,1,80
,,,,,,,,,,,,,,,,,,,,,,,,,,,,,,,,,,,,,,,,,e,3.034000158,ZE,TRUE,,,,,,,189,zebra,Catalan,Sounds/cat_zebra.mp3,2020-06-24_16h56.42.305,TranslationElicitation_eng-prolific,3.2.4,Win32,60,5ea3ef637e4bd537fe45cf6c,,1,0,81,80,1,80
,,,,,,,,,,,,,,,,,,,,,,,,,,,,,,,,,,,,,,,,,b,3.384000063,ZEB,TRUE,,,,,,,189,zebra,Catalan,Sounds/cat_zebra.mp3,2020-06-24_16h56.42.305,TranslationElicitation_eng-prolific,3.2.4,Win32,60,5ea3ef637e4bd537fe45cf6c,,1,0,81,80,1,80
,,,,,,,,,,,,,,,,,,,,,,,,,,,,,,,,,,,,,,,,,r,3.517000198,ZEBR,TRUE,,,,,,,189,zebra,Catalan,Sounds/cat_zebra.mp3,2020-06-24_16h56.42.305,TranslationElicitation_eng-prolific,3.2.4,Win32,60,5ea3ef637e4bd537fe45cf6c,,1,0,81,80,1,80
,,,,,,,,,,,,,,,,,,,,,,,,,,,,,,,,,,,,,,,,,a,3.902000189,ZEBRA,TRUE,,,,,,,189,zebra,Catalan,Sounds/cat_zebra.mp3,2020-06-24_16h56.42.305,TranslationElicitation_eng-prolific,3.2.4,Win32,60,5ea3ef637e4bd537fe45cf6c,,1,0,81,80,1,80
,,,,,,,,,,,,,,,,,,,,,,,,,,,,,,,,,,,,,,,,,return,4.484000206,ZEBRA,TRUE,,,,,,,189,zebra,Catalan,Sounds/cat_zebra.mp3,2020-06-24_16h56.42.305,TranslationElicitation_eng-prolific,3.2.4,Win32,60,5ea3ef637e4bd537fe45cf6c,4.484000206,1,0,81,80,1,80
,,,,,,,,,,,,,,,,,,,,,,,,,,,,,,,,,,,,,,,,,,,,,,,,,,,189,zebra,Catalan,Sounds/cat_zebra.mp3,2020-06-24_16h56.42.305,TranslationElicitation_eng-prolific,3.2.4,Win32,60,5ea3ef637e4bd537fe45cf6c,,1,0,81,80,1,80
,,,,,,,,,,,,,,,,,,,,,,,,,,,,,,,,,,,,,,,,,p,3.618000031,P,FALSE,,,,,,,162,pa,Catalan,Sounds/cat_pa.mp3,2020-06-24_16h56.42.305,TranslationElicitation_eng-prolific,3.2.4,Win32,60,5ea3ef637e4bd537fe45cf6c,,1,0,81,54,1,80
,,,,,,,,,,,,,,,,,,,,,,,,,,,,,,,,,,,,,,,,,backspace,4.484999895,,TRUE,,,,,,,162,pa,Catalan,Sounds/cat_pa.mp3,2020-06-24_16h56.42.305,TranslationElicitation_eng-prolific,3.2.4,Win32,60,5ea3ef637e4bd537fe45cf6c,,1,0,81,54,1,80
,,,,,,,,,,,,,,,,,,,,,,,,,,,,,,,,,,,,,,,,,f,4.851999998,F,TRUE,,,,,,,162,pa,Catalan,Sounds/cat_pa.mp3,2020-06-24_16h56.42.305,TranslationElicitation_eng-prolific,3.2.4,Win32,60,5ea3ef637e4bd537fe45cf6c,,1,0,81,54,1,80
,,,,,,,,,,,,,,,,,,,,,,,,,,,,,,,,,,,,,,,,,a,5.236000061,FA,TRUE,,,,,,,162,pa,Catalan,Sounds/cat_pa.mp3,2020-06-24_16h56.42.305,TranslationElicitation_eng-prolific,3.2.4,Win32,60,5ea3ef637e4bd537fe45cf6c,,1,0,81,54,1,80
,,,,,,,,,,,,,,,,,,,,,,,,,,,,,,,,,,,,,,,,,t,5.703000069,FAT,TRUE,,,,,,,162,pa,Catalan,Sounds/cat_pa.mp3,2020-06-24_16h56.42.305,TranslationElicitation_eng-prolific,3.2.4,Win32,60,5ea3ef637e4bd537fe45cf6c,,1,0,81,54,1,80
,,,,,,,,,,,,,,,,,,,,,,,,,,,,,,,,,,,,,,,,,h,5.868999958,FATH,TRUE,,,,,,,162,pa,Catalan,Sounds/cat_pa.mp3,2020-06-24_16h56.42.305,TranslationElicitation_eng-prolific,3.2.4,Win32,60,5ea3ef637e4bd537fe45cf6c,,1,0,81,54,1,80
,,,,,,,,,,,,,,,,,,,,,,,,,,,,,,,,,,,,,,,,,e,6.003000021,FATHE,TRUE,,,,,,,162,pa,Catalan,Sounds/cat_pa.mp3,2020-06-24_16h56.42.305,TranslationElicitation_eng-prolific,3.2.4,Win32,60,5ea3ef637e4bd537fe45cf6c,,1,0,81,54,1,80
,,,,,,,,,,,,,,,,,,,,,,,,,,,,,,,,,,,,,,,,,r,6.18599987,FATHER,TRUE,,,,,,,162,pa,Catalan,Sounds/cat_pa.mp3,2020-06-24_16h56.42.305,TranslationElicitation_eng-prolific,3.2.4,Win32,60,5ea3ef637e4bd537fe45cf6c,,1,0,81,54,1,80
,,,,,,,,,,,,,,,,,,,,,,,,,,,,,,,,,,,,,,,,,return,6.503000021,FATHER,TRUE,,,,,,,162,pa,Catalan,Sounds/cat_pa.mp3,2020-06-24_16h56.42.305,TranslationElicitation_eng-prolific,3.2.4,Win32,60,5ea3ef637e4bd537fe45cf6c,6.503000021,1,0,81,54,1,80
,,,,,,,,,,,,,,,,,,,,,,,,,,,,,,,,,,,,,,,,,,,,,,,,,,,162,pa,Catalan,Sounds/cat_pa.mp3,2020-06-24_16h56.42.305,TranslationElicitation_eng-prolific,3.2.4,Win32,60,5ea3ef637e4bd537fe45cf6c,,1,0,81,54,1,80
,,,,,,,,,,,,,,,,,,,,,,,,,,,,,,,,,,,,,,,,,a,1.827000141,A,FALSE,,,,,,,104,abella,Catalan,Sounds/cat_abella.mp3,2020-06-24_16h56.42.305,TranslationElicitation_eng-prolific,3.2.4,Win32,60,5ea3ef637e4bd537fe45cf6c,,1,0,81,0,1,80
,,,,,,,,,,,,,,,,,,,,,,,,,,,,,,,,,,,,,,,,,u,2.126000166,AU,FALSE,,,,,,,104,abella,Catalan,Sounds/cat_abella.mp3,2020-06-24_16h56.42.305,TranslationElicitation_eng-prolific,3.2.4,Win32,60,5ea3ef637e4bd537fe45cf6c,,1,0,81,0,1,80
,,,,,,,,,,,,,,,,,,,,,,,,,,,,,,,,,,,,,,,,,n,2.325999975,AUN,FALSE,,,,,,,104,abella,Catalan,Sounds/cat_abella.mp3,2020-06-24_16h56.42.305,TranslationElicitation_eng-prolific,3.2.4,Win32,60,5ea3ef637e4bd537fe45cf6c,,1,0,81,0,1,80
,,,,,,,,,,,,,,,,,,,,,,,,,,,,,,,,,,,,,,,,,t,2.810000181,AUNT,FALSE,,,,,,,104,abella,Catalan,Sounds/cat_abella.mp3,2020-06-24_16h56.42.305,TranslationElicitation_eng-prolific,3.2.4,Win32,60,5ea3ef637e4bd537fe45cf6c,,1,0,81,0,1,80
,,,,,,,,,,,,,,,,,,,,,,,,,,,,,,,,,,,,,,,,,i,2.944000006,AUNTI,FALSE,,,,,,,104,abella,Catalan,Sounds/cat_abella.mp3,2020-06-24_16h56.42.305,TranslationElicitation_eng-prolific,3.2.4,Win32,60,5ea3ef637e4bd537fe45cf6c,,1,0,81,0,1,80
,,,,,,,,,,,,,,,,,,,,,,,,,,,,,,,,,,,,,,,,,e,3.210000038,AUNTIE,FALSE,,,,,,,104,abella,Catalan,Sounds/cat_abella.mp3,2020-06-24_16h56.42.305,TranslationElicitation_eng-prolific,3.2.4,Win32,60,5ea3ef637e4bd537fe45cf6c,,1,0,81,0,1,80
,,,,,,,,,,,,,,,,,,,,,,,,,,,,,,,,,,,,,,,,,return,3.50999999,AUNTIE,FALSE,,,,,,,104,abella,Catalan,Sounds/cat_abella.mp3,2020-06-24_16h56.42.305,TranslationElicitation_eng-prolific,3.2.4,Win32,60,5ea3ef637e4bd537fe45cf6c,3.50999999,1,0,81,0,1,80
,,,,,,,,,,,,,,,,,,,,,,,,,,,,,,,,,,,,,,,,,,,,,,,,,,,104,abella,Catalan,Sounds/cat_abella.mp3,2020-06-24_16h56.42.305,TranslationElicitation_eng-prolific,3.2.4,Win32,60,5ea3ef637e4bd537fe45cf6c,,1,0,81,0,1,80
,,,,,,,,,,,,,,,,,,,,,,,,,,,,,,,,,,,,,,,,,c,4.585000038,C,FALSE,,,,,,,160,orella,Catalan,Sounds/cat_orella.mp3,2020-06-24_16h56.42.305,TranslationElicitation_eng-prolific,3.2.4,Win32,60,5ea3ef637e4bd537fe45cf6c,,1,0,81,52,1,80
,,,,,,,,,,,,,,,,,,,,,,,,,,,,,,,,,,,,,,,,,o,4.784999847,CO,FALSE,,,,,,,160,orella,Catalan,Sounds/cat_orella.mp3,2020-06-24_16h56.42.305,TranslationElicitation_eng-prolific,3.2.4,Win32,60,5ea3ef637e4bd537fe45cf6c,,1,0,81,52,1,80
,,,,,,,,,,,,,,,,,,,,,,,,,,,,,,,,,,,,,,,,,u,5.085000038,COU,FALSE,,,,,,,160,orella,Catalan,Sounds/cat_orella.mp3,2020-06-24_16h56.42.305,TranslationElicitation_eng-prolific,3.2.4,Win32,60,5ea3ef637e4bd537fe45cf6c,,1,0,81,52,1,80
,,,,,,,,,,,,,,,,,,,,,,,,,,,,,,,,,,,,,,,,,s,5.251999855,COUS,FALSE,,,,,,,160,orella,Catalan,Sounds/cat_orella.mp3,2020-06-24_16h56.42.305,TranslationElicitation_eng-prolific,3.2.4,Win32,60,5ea3ef637e4bd537fe45cf6c,,1,0,81,52,1,80
,,,,,,,,,,,,,,,,,,,,,,,,,,,,,,,,,,,,,,,,,i,5.385999918,COUSI,FALSE,,,,,,,160,orella,Catalan,Sounds/cat_orella.mp3,2020-06-24_16h56.42.305,TranslationElicitation_eng-prolific,3.2.4,Win32,60,5ea3ef637e4bd537fe45cf6c,,1,0,81,52,1,80
,,,,,,,,,,,,,,,,,,,,,,,,,,,,,,,,,,,,,,,,,backspace,6.234999895,COUS,TRUE,,,,,,,160,orella,Catalan,Sounds/cat_orella.mp3,2020-06-24_16h56.42.305,TranslationElicitation_eng-prolific,3.2.4,Win32,60,5ea3ef637e4bd537fe45cf6c,,1,0,81,52,1,80
,,,,,,,,,,,,,,,,,,,,,,,,,,,,,,,,,,,,,,,,,backspace,6.43599987,COU,TRUE,,,,,,,160,orella,Catalan,Sounds/cat_orella.mp3,2020-06-24_16h56.42.305,TranslationElicitation_eng-prolific,3.2.4,Win32,60,5ea3ef637e4bd537fe45cf6c,,1,0,81,52,1,80
,,,,,,,,,,,,,,,,,,,,,,,,,,,,,,,,,,,,,,,,,s,6.751999855,COUS,TRUE,,,,,,,160,orella,Catalan,Sounds/cat_orella.mp3,2020-06-24_16h56.42.305,TranslationElicitation_eng-prolific,3.2.4,Win32,60,5ea3ef637e4bd537fe45cf6c,,1,0,81,52,1,80
,,,,,,,,,,,,,,,,,,,,,,,,,,,,,,,,,,,,,,,,,i,7.286000013,COUSI,TRUE,,,,,,,160,orella,Catalan,Sounds/cat_orella.mp3,2020-06-24_16h56.42.305,TranslationElicitation_eng-prolific,3.2.4,Win32,60,5ea3ef637e4bd537fe45cf6c,,1,0,81,52,1,80
,,,,,,,,,,,,,,,,,,,,,,,,,,,,,,,,,,,,,,,,,n,7.470000029,COUSIN,TRUE,,,,,,,160,orella,Catalan,Sounds/cat_orella.mp3,2020-06-24_16h56.42.305,TranslationElicitation_eng-prolific,3.2.4,Win32,60,5ea3ef637e4bd537fe45cf6c,,1,0,81,52,1,80
,,,,,,,,,,,,,,,,,,,,,,,,,,,,,,,,,,,,,,,,,return,7.836999893,COUSIN,TRUE,,,,,,,160,orella,Catalan,Sounds/cat_orella.mp3,2020-06-24_16h56.42.305,TranslationElicitation_eng-prolific,3.2.4,Win32,60,5ea3ef637e4bd537fe45cf6c,7.836999893,1,0,81,52,1,80
,,,,,,,,,,,,,,,,,,,,,,,,,,,,,,,,,,,,,,,,,,,,,,,,,,,160,orella,Catalan,Sounds/cat_orella.mp3,2020-06-24_16h56.42.305,TranslationElicitation_eng-prolific,3.2.4,Win32,60,5ea3ef637e4bd537fe45cf6c,,1,0,81,52,1,80
,,,,,,,,,,,,,,,,,,,,,,,,,,,,,,,,,,,,,,,,,g,3.701000214,G,FALSE,,,,,,,141,gerd,Catalan,Sounds/cat_gerd.mp3,2020-06-24_16h56.42.305,TranslationElicitation_eng-prolific,3.2.4,Win32,60,5ea3ef637e4bd537fe45cf6c,,1,0,81,35,1,80
,,,,,,,,,,,,,,,,,,,,,,,,,,,,,,,,,,,,,,,,,r,4.067000151,GR,FALSE,,,,,,,141,gerd,Catalan,Sounds/cat_gerd.mp3,2020-06-24_16h56.42.305,TranslationElicitation_eng-prolific,3.2.4,Win32,60,5ea3ef637e4bd537fe45cf6c,,1,0,81,35,1,80
,,,,,,,,,,,,,,,,,,,,,,,,,,,,,,,,,,,,,,,,,e,4.317000151,GRE,FALSE,,,,,,,141,gerd,Catalan,Sounds/cat_gerd.mp3,2020-06-24_16h56.42.305,TranslationElicitation_eng-prolific,3.2.4,Win32,60,5ea3ef637e4bd537fe45cf6c,,1,0,81,35,1,80
,,,,,,,,,,,,,,,,,,,,,,,,,,,,,,,,,,,,,,,,,e,4.818000078,GREE,FALSE,,,,,,,141,gerd,Catalan,Sounds/cat_gerd.mp3,2020-06-24_16h56.42.305,TranslationElicitation_eng-prolific,3.2.4,Win32,60,5ea3ef637e4bd537fe45cf6c,,1,0,81,35,1,80
,,,,,,,,,,,,,,,,,,,,,,,,,,,,,,,,,,,,,,,,,n,4.967000008,GREEN,FALSE,,,,,,,141,gerd,Catalan,Sounds/cat_gerd.mp3,2020-06-24_16h56.42.305,TranslationElicitation_eng-prolific,3.2.4,Win32,60,5ea3ef637e4bd537fe45cf6c,,1,0,81,35,1,80
,,,,,,,,,,,,,,,,,,,,,,,,,,,,,,,,,,,,,,,,,return,5.618000031,GREEN,FALSE,,,,,,,141,gerd,Catalan,Sounds/cat_gerd.mp3,2020-06-24_16h56.42.305,TranslationElicitation_eng-prolific,3.2.4,Win32,60,5ea3ef637e4bd537fe45cf6c,5.618000031,1,0,81,35,1,80
,,,,,,,,,,,,,,,,,,,,,,,,,,,,,,,,,,,,,,,,,,,,,,,,,,,141,gerd,Catalan,Sounds/cat_gerd.mp3,2020-06-24_16h56.42.305,TranslationElicitation_eng-prolific,3.2.4,Win32,60,5ea3ef637e4bd537fe45cf6c,,1,0,81,35,1,80
,,,,,,,,,,,,,,,,,,,,,,,,,,,,,,,,,,,,,,,,,m,1.666999817,M,FALSE,,,,,,,151,lluna,Catalan,Sounds/cat_lluna.mp3,2020-06-24_16h56.42.305,TranslationElicitation_eng-prolific,3.2.4,Win32,60,5ea3ef637e4bd537fe45cf6c,,1,0,81,44,1,80
,,,,,,,,,,,,,,,,,,,,,,,,,,,,,,,,,,,,,,,,,o,1.916999817,MO,FALSE,,,,,,,151,lluna,Catalan,Sounds/cat_lluna.mp3,2020-06-24_16h56.42.305,TranslationElicitation_eng-prolific,3.2.4,Win32,60,5ea3ef637e4bd537fe45cf6c,,1,0,81,44,1,80
,,,,,,,,,,,,,,,,,,,,,,,,,,,,,,,,,,,,,,,,,o,2.049999952,MOO,FALSE,,,,,,,151,lluna,Catalan,Sounds/cat_lluna.mp3,2020-06-24_16h56.42.305,TranslationElicitation_eng-prolific,3.2.4,Win32,60,5ea3ef637e4bd537fe45cf6c,,1,0,81,44,1,80
,,,,,,,,,,,,,,,,,,,,,,,,,,,,,,,,,,,,,,,,,n,2.26699996,MOON,FALSE,,,,,,,151,lluna,Catalan,Sounds/cat_lluna.mp3,2020-06-24_16h56.42.305,TranslationElicitation_eng-prolific,3.2.4,Win32,60,5ea3ef637e4bd537fe45cf6c,,1,0,81,44,1,80
,,,,,,,,,,,,,,,,,,,,,,,,,,,,,,,,,,,,,,,,,return,2.867999792,MOON,FALSE,,,,,,,151,lluna,Catalan,Sounds/cat_lluna.mp3,2020-06-24_16h56.42.305,TranslationElicitation_eng-prolific,3.2.4,Win32,60,5ea3ef637e4bd537fe45cf6c,2.867999792,1,0,81,44,1,80
,,,,,,,,,,,,,,,,,,,,,,,,,,,,,,,,,,,,,,,,,,,,,,,,,,,151,lluna,Catalan,Sounds/cat_lluna.mp3,2020-06-24_16h56.42.305,TranslationElicitation_eng-prolific,3.2.4,Win32,60,5ea3ef637e4bd537fe45cf6c,,1,0,81,44,1,80
,,,,,,,,,,,,,,,,,,,,,,,,,,,,,,,,,,,,,,,,,v,5.618000031,V,FALSE,,,,,,,107,amanida,Catalan,Sounds/cat_amanida.mp3,2020-06-24_16h56.42.305,TranslationElicitation_eng-prolific,3.2.4,Win32,60,5ea3ef637e4bd537fe45cf6c,,1,0,81,3,1,80
,,,,,,,,,,,,,,,,,,,,,,,,,,,,,,,,,,,,,,,,,a,5.734999895,VA,FALSE,,,,,,,107,amanida,Catalan,Sounds/cat_amanida.mp3,2020-06-24_16h56.42.305,TranslationElicitation_eng-prolific,3.2.4,Win32,60,5ea3ef637e4bd537fe45cf6c,,1,0,81,3,1,80
,,,,,,,,,,,,,,,,,,,,,,,,,,,,,,,,,,,,,,,,,n,6.302000046,VAN,FALSE,,,,,,,107,amanida,Catalan,Sounds/cat_amanida.mp3,2020-06-24_16h56.42.305,TranslationElicitation_eng-prolific,3.2.4,Win32,60,5ea3ef637e4bd537fe45cf6c,,1,0,81,3,1,80
,,,,,,,,,,,,,,,,,,,,,,,,,,,,,,,,,,,,,,,,,i,6.569000006,VANI,FALSE,,,,,,,107,amanida,Catalan,Sounds/cat_amanida.mp3,2020-06-24_16h56.42.305,TranslationElicitation_eng-prolific,3.2.4,Win32,60,5ea3ef637e4bd537fe45cf6c,,1,0,81,3,1,80
,,,,,,,,,,,,,,,,,,,,,,,,,,,,,,,,,,,,,,,,,l,6.769000053,VANIL,FALSE,,,,,,,107,amanida,Catalan,Sounds/cat_amanida.mp3,2020-06-24_16h56.42.305,TranslationElicitation_eng-prolific,3.2.4,Win32,60,5ea3ef637e4bd537fe45cf6c,,1,0,81,3,1,80
,,,,,,,,,,,,,,,,,,,,,,,,,,,,,,,,,,,,,,,,,l,6.90199995,VANILL,FALSE,,,,,,,107,amanida,Catalan,Sounds/cat_amanida.mp3,2020-06-24_16h56.42.305,TranslationElicitation_eng-prolific,3.2.4,Win32,60,5ea3ef637e4bd537fe45cf6c,,1,0,81,3,1,80
,,,,,,,,,,,,,,,,,,,,,,,,,,,,,,,,,,,,,,,,,a,7.101999998,VANILLA,FALSE,,,,,,,107,amanida,Catalan,Sounds/cat_amanida.mp3,2020-06-24_16h56.42.305,TranslationElicitation_eng-prolific,3.2.4,Win32,60,5ea3ef637e4bd537fe45cf6c,,1,0,81,3,1,80
,,,,,,,,,,,,,,,,,,,,,,,,,,,,,,,,,,,,,,,,,return,7.269000053,VANILLA,FALSE,,,,,,,107,amanida,Catalan,Sounds/cat_amanida.mp3,2020-06-24_16h56.42.305,TranslationElicitation_eng-prolific,3.2.4,Win32,60,5ea3ef637e4bd537fe45cf6c,7.269000053,1,0,81,3,1,80
,,,,,,,,,,,,,,,,,,,,,,,,,,,,,,,,,,,,,,,,,,,,,,,,,,,107,amanida,Catalan,Sounds/cat_amanida.mp3,2020-06-24_16h56.42.305,TranslationElicitation_eng-prolific,3.2.4,Win32,60,5ea3ef637e4bd537fe45cf6c,,1,0,81,3,1,80
,,,,,,,,,,,,,,,,,,,,,,,,,,,,,,,,,,,,,,,,,d,3.066999912,D,FALSE,,,,,,,183,tren,Catalan,Sounds/cat_tren.mp3,2020-06-24_16h56.42.305,TranslationElicitation_eng-prolific,3.2.4,Win32,60,5ea3ef637e4bd537fe45cf6c,,1,0,81,74,1,80
,,,,,,,,,,,,,,,,,,,,,,,,,,,,,,,,,,,,,,,,,r,3.30099988,DR,FALSE,,,,,,,183,tren,Catalan,Sounds/cat_tren.mp3,2020-06-24_16h56.42.305,TranslationElicitation_eng-prolific,3.2.4,Win32,60,5ea3ef637e4bd537fe45cf6c,,1,0,81,74,1,80
,,,,,,,,,,,,,,,,,,,,,,,,,,,,,,,,,,,,,,,,,e,3.401000023,DRE,FALSE,,,,,,,183,tren,Catalan,Sounds/cat_tren.mp3,2020-06-24_16h56.42.305,TranslationElicitation_eng-prolific,3.2.4,Win32,60,5ea3ef637e4bd537fe45cf6c,,1,0,81,74,1,80
,,,,,,,,,,,,,,,,,,,,,,,,,,,,,,,,,,,,,,,,,s,3.684999943,DRES,FALSE,,,,,,,183,tren,Catalan,Sounds/cat_tren.mp3,2020-06-24_16h56.42.305,TranslationElicitation_eng-prolific,3.2.4,Win32,60,5ea3ef637e4bd537fe45cf6c,,1,0,81,74,1,80
,,,,,,,,,,,,,,,,,,,,,,,,,,,,,,,,,,,,,,,,,s,3.851000071,DRESS,FALSE,,,,,,,183,tren,Catalan,Sounds/cat_tren.mp3,2020-06-24_16h56.42.305,TranslationElicitation_eng-prolific,3.2.4,Win32,60,5ea3ef637e4bd537fe45cf6c,,1,0,81,74,1,80
,,,,,,,,,,,,,,,,,,,,,,,,,,,,,,,,,,,,,,,,,return,4.085000038,DRESS,FALSE,,,,,,,183,tren,Catalan,Sounds/cat_tren.mp3,2020-06-24_16h56.42.305,TranslationElicitation_eng-prolific,3.2.4,Win32,60,5ea3ef637e4bd537fe45cf6c,4.085000038,1,0,81,74,1,80
,,,,,,,,,,,,,,,,,,,,,,,,,,,,,,,,,,,,,,,,,,,,,,,,,,,183,tren,Catalan,Sounds/cat_tren.mp3,2020-06-24_16h56.42.305,TranslationElicitation_eng-prolific,3.2.4,Win32,60,5ea3ef637e4bd537fe45cf6c,,1,0,81,74,1,80
,,,,,,,,,,,,,,,,,,,,,,,,,,,,,,,,,,,,,,,,,t,2.066999912,T,FALSE,,,,,,,174,porta,Catalan,Sounds/cat_porta.mp3,2020-06-24_16h56.42.305,TranslationElicitation_eng-prolific,3.2.4,Win32,60,5ea3ef637e4bd537fe45cf6c,,1,0,81,66,1,80
,,,,,,,,,,,,,,,,,,,,,,,,,,,,,,,,,,,,,,,,,o,2.200000048,TO,FALSE,,,,,,,174,porta,Catalan,Sounds/cat_porta.mp3,2020-06-24_16h56.42.305,TranslationElicitation_eng-prolific,3.2.4,Win32,60,5ea3ef637e4bd537fe45cf6c,,1,0,81,66,1,80
,,,,,,,,,,,,,,,,,,,,,,,,,,,,,,,,,,,,,,,,,i,2.433000088,TOI,FALSE,,,,,,,174,porta,Catalan,Sounds/cat_porta.mp3,2020-06-24_16h56.42.305,TranslationElicitation_eng-prolific,3.2.4,Win32,60,5ea3ef637e4bd537fe45cf6c,,1,0,81,66,1,80
,,,,,,,,,,,,,,,,,,,,,,,,,,,,,,,,,,,,,,,,,l,3.03399992,TOIL,FALSE,,,,,,,174,porta,Catalan,Sounds/cat_porta.mp3,2020-06-24_16h56.42.305,TranslationElicitation_eng-prolific,3.2.4,Win32,60,5ea3ef637e4bd537fe45cf6c,,1,0,81,66,1,80
,,,,,,,,,,,,,,,,,,,,,,,,,,,,,,,,,,,,,,,,,e,3.733999968,TOILE,FALSE,,,,,,,174,porta,Catalan,Sounds/cat_porta.mp3,2020-06-24_16h56.42.305,TranslationElicitation_eng-prolific,3.2.4,Win32,60,5ea3ef637e4bd537fe45cf6c,,1,0,81,66,1,80
,,,,,,,,,,,,,,,,,,,,,,,,,,,,,,,,,,,,,,,,,t,4.101000071,TOILET,FALSE,,,,,,,174,porta,Catalan,Sounds/cat_porta.mp3,2020-06-24_16h56.42.305,TranslationElicitation_eng-prolific,3.2.4,Win32,60,5ea3ef637e4bd537fe45cf6c,,1,0,81,66,1,80
,,,,,,,,,,,,,,,,,,,,,,,,,,,,,,,,,,,,,,,,,return,4.434000015,TOILET,FALSE,,,,,,,174,porta,Catalan,Sounds/cat_porta.mp3,2020-06-24_16h56.42.305,TranslationElicitation_eng-prolific,3.2.4,Win32,60,5ea3ef637e4bd537fe45cf6c,4.434000015,1,0,81,66,1,80
,,,,,,,,,,,,,,,,,,,,,,,,,,,,,,,,,,,,,,,,,,,,,,,,,,,174,porta,Catalan,Sounds/cat_porta.mp3,2020-06-24_16h56.42.305,TranslationElicitation_eng-prolific,3.2.4,Win32,60,5ea3ef637e4bd537fe45cf6c,,1,0,81,66,1,80
,,,,,,,,,,,,,,,,,,,,,,,,,,,,,,,,,,,,,,,,,h,4.002000093,H,FALSE,,,,,,,123,cavall,Catalan,Sounds/cat_cavall.mp3,2020-06-24_16h56.42.305,TranslationElicitation_eng-prolific,3.2.4,Win32,60,5ea3ef637e4bd537fe45cf6c,,1,0,81,18,1,80
,,,,,,,,,,,,,,,,,,,,,,,,,,,,,,,,,,,,,,,,,o,4.38499999,HO,FALSE,,,,,,,123,cavall,Catalan,Sounds/cat_cavall.mp3,2020-06-24_16h56.42.305,TranslationElicitation_eng-prolific,3.2.4,Win32,60,5ea3ef637e4bd537fe45cf6c,,1,0,81,18,1,80
,,,,,,,,,,,,,,,,,,,,,,,,,,,,,,,,,,,,,,,,,u,4.669000149,HOU,FALSE,,,,,,,123,cavall,Catalan,Sounds/cat_cavall.mp3,2020-06-24_16h56.42.305,TranslationElicitation_eng-prolific,3.2.4,Win32,60,5ea3ef637e4bd537fe45cf6c,,1,0,81,18,1,80
,,,,,,,,,,,,,,,,,,,,,,,,,,,,,,,,,,,,,,,,,s,4.752000093,HOUS,FALSE,,,,,,,123,cavall,Catalan,Sounds/cat_cavall.mp3,2020-06-24_16h56.42.305,TranslationElicitation_eng-prolific,3.2.4,Win32,60,5ea3ef637e4bd537fe45cf6c,,1,0,81,18,1,80
,,,,,,,,,,,,,,,,,,,,,,,,,,,,,,,,,,,,,,,,,e,4.952000141,HOUSE,FALSE,,,,,,,123,cavall,Catalan,Sounds/cat_cavall.mp3,2020-06-24_16h56.42.305,TranslationElicitation_eng-prolific,3.2.4,Win32,60,5ea3ef637e4bd537fe45cf6c,,1,0,81,18,1,80
,,,,,,,,,,,,,,,,,,,,,,,,,,,,,,,,,,,,,,,,,return,5.285000086,HOUSE,FALSE,,,,,,,123,cavall,Catalan,Sounds/cat_cavall.mp3,2020-06-24_16h56.42.305,TranslationElicitation_eng-prolific,3.2.4,Win32,60,5ea3ef637e4bd537fe45cf6c,5.285000086,1,0,81,18,1,80
,,,,,,,,,,,,,,,,,,,,,,,,,,,,,,,,,,,,,,,,,,,,,,,,,,,123,cavall,Catalan,Sounds/cat_cavall.mp3,2020-06-24_16h56.42.305,TranslationElicitation_eng-prolific,3.2.4,Win32,60,5ea3ef637e4bd537fe45cf6c,,1,0,81,18,1,80
,,,,,,,,,,,,,,,,,,,,,,,,,,,,,,,,,,,,,,,,,w,1.866000175,W,FALSE,,,,,,,186,ungla,Catalan,Sounds/cat_ungla.mp3,2020-06-24_16h56.42.305,TranslationElicitation_eng-prolific,3.2.4,Win32,60,5ea3ef637e4bd537fe45cf6c,,1,0,81,77,1,80
,,,,,,,,,,,,,,,,,,,,,,,,,,,,,,,,,,,,,,,,,a,2.167000055,WA,FALSE,,,,,,,186,ungla,Catalan,Sounds/cat_ungla.mp3,2020-06-24_16h56.42.305,TranslationElicitation_eng-prolific,3.2.4,Win32,60,5ea3ef637e4bd537fe45cf6c,,1,0,81,77,1,80
,,,,,,,,,,,,,,,,,,,,,,,,,,,,,,,,,,,,,,,,,t,2.450000048,WAT,FALSE,,,,,,,186,ungla,Catalan,Sounds/cat_ungla.mp3,2020-06-24_16h56.42.305,TranslationElicitation_eng-prolific,3.2.4,Win32,60,5ea3ef637e4bd537fe45cf6c,,1,0,81,77,1,80
,,,,,,,,,,,,,,,,,,,,,,,,,,,,,,,,,,,,,,,,,e,2.517000198,WATE,FALSE,,,,,,,186,ungla,Catalan,Sounds/cat_ungla.mp3,2020-06-24_16h56.42.305,TranslationElicitation_eng-prolific,3.2.4,Win32,60,5ea3ef637e4bd537fe45cf6c,,1,0,81,77,1,80
,,,,,,,,,,,,,,,,,,,,,,,,,,,,,,,,,,,,,,,,,r,2.701000214,WATER,FALSE,,,,,,,186,ungla,Catalan,Sounds/cat_ungla.mp3,2020-06-24_16h56.42.305,TranslationElicitation_eng-prolific,3.2.4,Win32,60,5ea3ef637e4bd537fe45cf6c,,1,0,81,77,1,80
,,,,,,,,,,,,,,,,,,,,,,,,,,,,,,,,,,,,,,,,,return,3.051000118,WATER,FALSE,,,,,,,186,ungla,Catalan,Sounds/cat_ungla.mp3,2020-06-24_16h56.42.305,TranslationElicitation_eng-prolific,3.2.4,Win32,60,5ea3ef637e4bd537fe45cf6c,3.051000118,1,0,81,77,1,80
,,,,,,,,,,,,,,,,,,,,,,,,,,,,,,,,,,,,,,,,,,,,,,,,,,,186,ungla,Catalan,Sounds/cat_ungla.mp3,2020-06-24_16h56.42.305,TranslationElicitation_eng-prolific,3.2.4,Win32,60,5ea3ef637e4bd537fe45cf6c,,1,0,81,77,1,80
,,,,,,,,,,,,,,,,,,,,,,,,,,,,,,,,,,,,,,,,,b,2.717999935,B,FALSE,,,,,,,118,bou,Catalan,Sounds/cat_bou.mp3,2020-06-24_16h56.42.305,TranslationElicitation_eng-prolific,3.2.4,Win32,60,5ea3ef637e4bd537fe45cf6c,,1,0,81,13,1,80
,,,,,,,,,,,,,,,,,,,,,,,,,,,,,,,,,,,,,,,,,o,3.267999887,BO,FALSE,,,,,,,118,bou,Catalan,Sounds/cat_bou.mp3,2020-06-24_16h56.42.305,TranslationElicitation_eng-prolific,3.2.4,Win32,60,5ea3ef637e4bd537fe45cf6c,,1,0,81,13,1,80
