consentKey.keys,consentKey.rt,languageL1Key.keys,languageL1Key.rt,languageL2,languageL2OralKey.keys,languageL2OralKey.rt,languageL2WrittenKey.keys,languageL2WrittenKey.rt,languageL3OralKey.keys,languageL3OralKey.rt,languageL3WrittenKey.keys,languageL3WrittenKey.rt,languageCatalanOralKey.keys,languageCatalanOralKey.rt,languageCatalanWrittenKey.keys,languageCatalanWrittenKey.rt,languageCatalanTimeKey.keys,languageCatalanTimeKey.rt,languageSpanishOralKey.keys,languageSpanishOralKey.rt,languageSpanishWrittenKey.keys,languageSpanishWrittenKey.rt,languageSpanishTimeKey.keys,languageSpanishTimeKey.rt,age,demoSexKey.keys,demoSexKey.rt,demoEducationKey.keys,demoEducationKey.rt,city,demoVisionKey.keys,demoVisionKey.rt,demoLanguageKey.keys,demoLanguageKey.rt,setupLocationKey.keys,setupLocationKey.rt,setupNoiseKey.keys,setupNoiseKey.rt,instructionsKeys.keys,instructionsKeys.rt,keyPressed,keyPressTime,inputText,error,trialsPracticeSpanish.thisRepN,trialsPracticeSpanish.thisTrialN,trialsPracticeSpanish.thisN,trialsPracticeSpanish.thisIndex,trialsPracticeSpanish.ran,trialsPracticeSpanish.order,trial_id,word,test_language,soundfile,date,expName,psychopyVersion,OS,frameRate,participant,trialOffset,trialsSpanish.thisRepN,trialsSpanish.thisTrialN,trialsSpanish.thisN,trialsSpanish.thisIndex,trialsSpanish.ran,trialsSpanish.order
space,4.260999918,e,4.599999905,,,,,,,,,,1,19.99300003,1,5.549000025,1,8.507999897,2,5.911000013,1,2.4599998,1,4.718999863,21,f,1.867999792,3,7.353999853,IVYBRIDGE,y,4.096999884,n,2.867999792,1,3.415999889,1,4.40199995,space,15.81200004,t,3.115999937,T,FALSE,1,0,5,4,1,4,96,tigre,Spanish,Sounds/spa_tigre.mp3,2020-06-04_21h22.27.233,TranslationElicitation_eng-prolific,3.2.4,Win32,60,5eacad0d05726e33129cbe93,,,,,,,
,,,,,,,,,,,,,,,,,,,,,,,,,,,,,,,,,,,,,,,,,i,3.332000017,TI,FALSE,1,0,5,4,1,4,96,tigre,Spanish,Sounds/spa_tigre.mp3,2020-06-04_21h22.27.233,TranslationElicitation_eng-prolific,3.2.4,Win32,60,5eacad0d05726e33129cbe93,,,,,,,
,,,,,,,,,,,,,,,,,,,,,,,,,,,,,,,,,,,,,,,,,c,3.417000055,TIC,FALSE,1,0,5,4,1,4,96,tigre,Spanish,Sounds/spa_tigre.mp3,2020-06-04_21h22.27.233,TranslationElicitation_eng-prolific,3.2.4,Win32,60,5eacad0d05726e33129cbe93,,,,,,,
,,,,,,,,,,,,,,,,,,,,,,,,,,,,,,,,,,,,,,,,,k,3.565000057,TICK,FALSE,1,0,5,4,1,4,96,tigre,Spanish,Sounds/spa_tigre.mp3,2020-06-04_21h22.27.233,TranslationElicitation_eng-prolific,3.2.4,Win32,60,5eacad0d05726e33129cbe93,,,,,,,
,,,,,,,,,,,,,,,,,,,,,,,,,,,,,,,,,,,,,,,,,e,3.667999983,TICKE,FALSE,1,0,5,4,1,4,96,tigre,Spanish,Sounds/spa_tigre.mp3,2020-06-04_21h22.27.233,TranslationElicitation_eng-prolific,3.2.4,Win32,60,5eacad0d05726e33129cbe93,,,,,,,
,,,,,,,,,,,,,,,,,,,,,,,,,,,,,,,,,,,,,,,,,return,4.881999969,TICKE,FALSE,1,0,5,4,1,4,96,tigre,Spanish,Sounds/spa_tigre.mp3,2020-06-04_21h22.27.233,TranslationElicitation_eng-prolific,3.2.4,Win32,60,5eacad0d05726e33129cbe93,4.881999969,,,,,,
,,,,,,,,,,,,,,,,,,,,,,,,,,,,,,,,,,,,,,,,,,,,,1,0,5,4,1,4,96,tigre,Spanish,Sounds/spa_tigre.mp3,2020-06-04_21h22.27.233,TranslationElicitation_eng-prolific,3.2.4,Win32,60,5eacad0d05726e33129cbe93,,,,,,,
,,,,,,,,,,,,,,,,,,,,,,,,,,,,,,,,,,,,,,,,,h,2.013000011,H,FALSE,1,0,5,0,1,4,1,arbol,Spanish,Sounds/spa_arbol.mp3,2020-06-04_21h22.27.233,TranslationElicitation_eng-prolific,3.2.4,Win32,60,5eacad0d05726e33129cbe93,,,,,,,
,,,,,,,,,,,,,,,,,,,,,,,,,,,,,,,,,,,,,,,,,a,2.163000107,HA,FALSE,1,0,5,0,1,4,1,arbol,Spanish,Sounds/spa_arbol.mp3,2020-06-04_21h22.27.233,TranslationElicitation_eng-prolific,3.2.4,Win32,60,5eacad0d05726e33129cbe93,,,,,,,
,,,,,,,,,,,,,,,,,,,,,,,,,,,,,,,,,,,,,,,,,i,2.29700017,HAI,FALSE,1,0,5,0,1,4,1,arbol,Spanish,Sounds/spa_arbol.mp3,2020-06-04_21h22.27.233,TranslationElicitation_eng-prolific,3.2.4,Win32,60,5eacad0d05726e33129cbe93,,,,,,,
,,,,,,,,,,,,,,,,,,,,,,,,,,,,,,,,,,,,,,,,,r,2.730999947,HAIR,FALSE,1,0,5,0,1,4,1,arbol,Spanish,Sounds/spa_arbol.mp3,2020-06-04_21h22.27.233,TranslationElicitation_eng-prolific,3.2.4,Win32,60,5eacad0d05726e33129cbe93,,,,,,,
,,,,,,,,,,,,,,,,,,,,,,,,,,,,,,,,,,,,,,,,,b,3.664999962,HAIRB,FALSE,1,0,5,0,1,4,1,arbol,Spanish,Sounds/spa_arbol.mp3,2020-06-04_21h22.27.233,TranslationElicitation_eng-prolific,3.2.4,Win32,60,5eacad0d05726e33129cbe93,,,,,,,
,,,,,,,,,,,,,,,,,,,,,,,,,,,,,,,,,,,,,,,,,a,3.864000082,HAIRBA,FALSE,1,0,5,0,1,4,1,arbol,Spanish,Sounds/spa_arbol.mp3,2020-06-04_21h22.27.233,TranslationElicitation_eng-prolific,3.2.4,Win32,60,5eacad0d05726e33129cbe93,,,,,,,
,,,,,,,,,,,,,,,,,,,,,,,,,,,,,,,,,,,,,,,,,l,4.019000053,HAIRBAL,FALSE,1,0,5,0,1,4,1,arbol,Spanish,Sounds/spa_arbol.mp3,2020-06-04_21h22.27.233,TranslationElicitation_eng-prolific,3.2.4,Win32,60,5eacad0d05726e33129cbe93,,,,,,,
,,,,,,,,,,,,,,,,,,,,,,,,,,,,,,,,,,,,,,,,,l,4.164000034,HAIRBALL,FALSE,1,0,5,0,1,4,1,arbol,Spanish,Sounds/spa_arbol.mp3,2020-06-04_21h22.27.233,TranslationElicitation_eng-prolific,3.2.4,Win32,60,5eacad0d05726e33129cbe93,,,,,,,
,,,,,,,,,,,,,,,,,,,,,,,,,,,,,,,,,,,,,,,,,return,4.56400013,HAIRBALL,FALSE,1,0,5,0,1,4,1,arbol,Spanish,Sounds/spa_arbol.mp3,2020-06-04_21h22.27.233,TranslationElicitation_eng-prolific,3.2.4,Win32,60,5eacad0d05726e33129cbe93,4.56400013,,,,,,
,,,,,,,,,,,,,,,,,,,,,,,,,,,,,,,,,,,,,,,,,,,,,1,0,5,0,1,4,1,arbol,Spanish,Sounds/spa_arbol.mp3,2020-06-04_21h22.27.233,TranslationElicitation_eng-prolific,3.2.4,Win32,60,5eacad0d05726e33129cbe93,,,,,,,
,,,,,,,,,,,,,,,,,,,,,,,,,,,,,,,,,,,,,,,,,h,2.366999865,H,FALSE,1,0,5,3,1,4,70,ola,Spanish,Sounds/spa_ola.mp3,2020-06-04_21h22.27.233,TranslationElicitation_eng-prolific,3.2.4,Win32,60,5eacad0d05726e33129cbe93,,,,,,,
,,,,,,,,,,,,,,,,,,,,,,,,,,,,,,,,,,,,,,,,,i,2.429999828,HI,FALSE,1,0,5,3,1,4,70,ola,Spanish,Sounds/spa_ola.mp3,2020-06-04_21h22.27.233,TranslationElicitation_eng-prolific,3.2.4,Win32,60,5eacad0d05726e33129cbe93,,,,,,,
,,,,,,,,,,,,,,,,,,,,,,,,,,,,,,,,,,,,,,,,,return,2.947999954,HI,FALSE,1,0,5,3,1,4,70,ola,Spanish,Sounds/spa_ola.mp3,2020-06-04_21h22.27.233,TranslationElicitation_eng-prolific,3.2.4,Win32,60,5eacad0d05726e33129cbe93,2.947999954,,,,,,
,,,,,,,,,,,,,,,,,,,,,,,,,,,,,,,,,,,,,,,,,,,,,1,0,5,3,1,4,70,ola,Spanish,Sounds/spa_ola.mp3,2020-06-04_21h22.27.233,TranslationElicitation_eng-prolific,3.2.4,Win32,60,5eacad0d05726e33129cbe93,,,,,,,
,,,,,,,,,,,,,,,,,,,,,,,,,,,,,,,,,,,,,,,,,c,4.680000067,C,FALSE,1,0,5,2,1,4,26,chaqueta,Spanish,Sounds/spa_chaqueta.mp3,2020-06-04_21h22.27.233,TranslationElicitation_eng-prolific,3.2.4,Win32,60,5eacad0d05726e33129cbe93,,,,,,,
,,,,,,,,,,,,,,,,,,,,,,,,,,,,,,,,,,,,,,,,,h,4.845999956,CH,FALSE,1,0,5,2,1,4,26,chaqueta,Spanish,Sounds/spa_chaqueta.mp3,2020-06-04_21h22.27.233,TranslationElicitation_eng-prolific,3.2.4,Win32,60,5eacad0d05726e33129cbe93,,,,,,,
,,,,,,,,,,,,,,,,,,,,,,,,,,,,,,,,,,,,,,,,,e,4.980000019,CHE,FALSE,1,0,5,2,1,4,26,chaqueta,Spanish,Sounds/spa_chaqueta.mp3,2020-06-04_21h22.27.233,TranslationElicitation_eng-prolific,3.2.4,Win32,60,5eacad0d05726e33129cbe93,,,,,,,
,,,,,,,,,,,,,,,,,,,,,,,,,,,,,,,,,,,,,,,,,e,5.203999996,CHEE,FALSE,1,0,5,2,1,4,26,chaqueta,Spanish,Sounds/spa_chaqueta.mp3,2020-06-04_21h22.27.233,TranslationElicitation_eng-prolific,3.2.4,Win32,60,5eacad0d05726e33129cbe93,,,,,,,
,,,,,,,,,,,,,,,,,,,,,,,,,,,,,,,,,,,,,,,,,k,5.295000076,CHEEK,FALSE,1,0,5,2,1,4,26,chaqueta,Spanish,Sounds/spa_chaqueta.mp3,2020-06-04_21h22.27.233,TranslationElicitation_eng-prolific,3.2.4,Win32,60,5eacad0d05726e33129cbe93,,,,,,,
,,,,,,,,,,,,,,,,,,,,,,,,,,,,,,,,,,,,,,,,,y,5.562000036,CHEEKY,FALSE,1,0,5,2,1,4,26,chaqueta,Spanish,Sounds/spa_chaqueta.mp3,2020-06-04_21h22.27.233,TranslationElicitation_eng-prolific,3.2.4,Win32,60,5eacad0d05726e33129cbe93,,,,,,,
,,,,,,,,,,,,,,,,,,,,,,,,,,,,,,,,,,,,,,,,,return,5.828000069,CHEEKY,FALSE,1,0,5,2,1,4,26,chaqueta,Spanish,Sounds/spa_chaqueta.mp3,2020-06-04_21h22.27.233,TranslationElicitation_eng-prolific,3.2.4,Win32,60,5eacad0d05726e33129cbe93,5.828000069,,,,,,
,,,,,,,,,,,,,,,,,,,,,,,,,,,,,,,,,,,,,,,,,,,,,1,0,5,2,1,4,26,chaqueta,Spanish,Sounds/spa_chaqueta.mp3,2020-06-04_21h22.27.233,TranslationElicitation_eng-prolific,3.2.4,Win32,60,5eacad0d05726e33129cbe93,,,,,,,
,,,,,,,,,,,,,,,,,,,,,,,,,,,,,,,,,,,,,,,,,c,1.450000048,C,FALSE,1,0,5,1,1,4,30,corona,Spanish,Sounds/spa_corona.mp3,2020-06-04_21h22.27.233,TranslationElicitation_eng-prolific,3.2.4,Win32,60,5eacad0d05726e33129cbe93,,,,,,,
,,,,,,,,,,,,,,,,,,,,,,,,,,,,,,,,,,,,,,,,,o,1.634000063,CO,FALSE,1,0,5,1,1,4,30,corona,Spanish,Sounds/spa_corona.mp3,2020-06-04_21h22.27.233,TranslationElicitation_eng-prolific,3.2.4,Win32,60,5eacad0d05726e33129cbe93,,,,,,,
,,,,,,,,,,,,,,,,,,,,,,,,,,,,,,,,,,,,,,,,,r,1.801000118,COR,FALSE,1,0,5,1,1,4,30,corona,Spanish,Sounds/spa_corona.mp3,2020-06-04_21h22.27.233,TranslationElicitation_eng-prolific,3.2.4,Win32,60,5eacad0d05726e33129cbe93,,,,,,,
,,,,,,,,,,,,,,,,,,,,,,,,,,,,,,,,,,,,,,,,,o,2.587000132,CORO,FALSE,1,0,5,1,1,4,30,corona,Spanish,Sounds/spa_corona.mp3,2020-06-04_21h22.27.233,TranslationElicitation_eng-prolific,3.2.4,Win32,60,5eacad0d05726e33129cbe93,,,,,,,
,,,,,,,,,,,,,,,,,,,,,,,,,,,,,,,,,,,,,,,,,n,2.733999968,CORON,FALSE,1,0,5,1,1,4,30,corona,Spanish,Sounds/spa_corona.mp3,2020-06-04_21h22.27.233,TranslationElicitation_eng-prolific,3.2.4,Win32,60,5eacad0d05726e33129cbe93,,,,,,,
,,,,,,,,,,,,,,,,,,,,,,,,,,,,,,,,,,,,,,,,,a,2.917000055,CORONA,FALSE,1,0,5,1,1,4,30,corona,Spanish,Sounds/spa_corona.mp3,2020-06-04_21h22.27.233,TranslationElicitation_eng-prolific,3.2.4,Win32,60,5eacad0d05726e33129cbe93,,,,,,,
,,,,,,,,,,,,,,,,,,,,,,,,,,,,,,,,,,,,,,,,,return,3.551000118,CORONA,FALSE,1,0,5,1,1,4,30,corona,Spanish,Sounds/spa_corona.mp3,2020-06-04_21h22.27.233,TranslationElicitation_eng-prolific,3.2.4,Win32,60,5eacad0d05726e33129cbe93,3.551000118,,,,,,
,,,,,,,,,,,,,,,,,,,,,,,,,,,,,,,,,,,,,,,,,,,,,1,0,5,1,1,4,30,corona,Spanish,Sounds/spa_corona.mp3,2020-06-04_21h22.27.233,TranslationElicitation_eng-prolific,3.2.4,Win32,60,5eacad0d05726e33129cbe93,,,,,,,
,,,,,,,,,,,,,,,,,,,,,,,,,,,,,,,,,,,,,,,,,d,3.766000032,D,FALSE,,,,,,,33,dedo,Spanish,Sounds/spa_dedo.mp3,2020-06-04_21h22.27.233,TranslationElicitation_eng-prolific,3.2.4,Win32,60,5eacad0d05726e33129cbe93,,1,0,98,29,1,97
,,,,,,,,,,,,,,,,,,,,,,,,,,,,,,,,,,,,,,,,,a,4.100000143,DA,FALSE,,,,,,,33,dedo,Spanish,Sounds/spa_dedo.mp3,2020-06-04_21h22.27.233,TranslationElicitation_eng-prolific,3.2.4,Win32,60,5eacad0d05726e33129cbe93,,1,0,98,29,1,97
,,,,,,,,,,,,,,,,,,,,,,,,,,,,,,,,,,,,,,,,,y,4.236999989,DAY,FALSE,,,,,,,33,dedo,Spanish,Sounds/spa_dedo.mp3,2020-06-04_21h22.27.233,TranslationElicitation_eng-prolific,3.2.4,Win32,60,5eacad0d05726e33129cbe93,,1,0,98,29,1,97
,,,,,,,,,,,,,,,,,,,,,,,,,,,,,,,,,,,,,,,,,return,4.616000175,DAY,FALSE,,,,,,,33,dedo,Spanish,Sounds/spa_dedo.mp3,2020-06-04_21h22.27.233,TranslationElicitation_eng-prolific,3.2.4,Win32,60,5eacad0d05726e33129cbe93,4.616000175,1,0,98,29,1,97
,,,,,,,,,,,,,,,,,,,,,,,,,,,,,,,,,,,,,,,,,,,,,,,,,,,33,dedo,Spanish,Sounds/spa_dedo.mp3,2020-06-04_21h22.27.233,TranslationElicitation_eng-prolific,3.2.4,Win32,60,5eacad0d05726e33129cbe93,,1,0,98,29,1,97
,,,,,,,,,,,,,,,,,,,,,,,,,,,,,,,,,,,,,,,,,g,3.398999929,G,FALSE,,,,,,,2,avestruz,Spanish,Sounds/spa_avestruz.mp3,2020-06-04_21h22.27.233,TranslationElicitation_eng-prolific,3.2.4,Win32,60,5eacad0d05726e33129cbe93,,1,0,98,0,1,97
,,,,,,,,,,,,,,,,,,,,,,,,,,,,,,,,,,,,,,,,,o,3.681999922,GO,FALSE,,,,,,,2,avestruz,Spanish,Sounds/spa_avestruz.mp3,2020-06-04_21h22.27.233,TranslationElicitation_eng-prolific,3.2.4,Win32,60,5eacad0d05726e33129cbe93,,1,0,98,0,1,97
,,,,,,,,,,,,,,,,,,,,,,,,,,,,,,,,,,,,,,,,,s,3.848999977,GOS,FALSE,,,,,,,2,avestruz,Spanish,Sounds/spa_avestruz.mp3,2020-06-04_21h22.27.233,TranslationElicitation_eng-prolific,3.2.4,Win32,60,5eacad0d05726e33129cbe93,,1,0,98,0,1,97
,,,,,,,,,,,,,,,,,,,,,,,,,,,,,,,,,,,,,,,,,h,3.967999935,GOSH,FALSE,,,,,,,2,avestruz,Spanish,Sounds/spa_avestruz.mp3,2020-06-04_21h22.27.233,TranslationElicitation_eng-prolific,3.2.4,Win32,60,5eacad0d05726e33129cbe93,,1,0,98,0,1,97
,,,,,,,,,,,,,,,,,,,,,,,,,,,,,,,,,,,,,,,,,backspace,6.083999872,GOS,TRUE,,,,,,,2,avestruz,Spanish,Sounds/spa_avestruz.mp3,2020-06-04_21h22.27.233,TranslationElicitation_eng-prolific,3.2.4,Win32,60,5eacad0d05726e33129cbe93,,1,0,98,0,1,97
,,,,,,,,,,,,,,,,,,,,,,,,,,,,,,,,,,,,,,,,,backspace,6.23300004,GO,TRUE,,,,,,,2,avestruz,Spanish,Sounds/spa_avestruz.mp3,2020-06-04_21h22.27.233,TranslationElicitation_eng-prolific,3.2.4,Win32,60,5eacad0d05726e33129cbe93,,1,0,98,0,1,97
,,,,,,,,,,,,,,,,,,,,,,,,,,,,,,,,,,,,,,,,,backspace,6.433000088,G,TRUE,,,,,,,2,avestruz,Spanish,Sounds/spa_avestruz.mp3,2020-06-04_21h22.27.233,TranslationElicitation_eng-prolific,3.2.4,Win32,60,5eacad0d05726e33129cbe93,,1,0,98,0,1,97
,,,,,,,,,,,,,,,,,,,,,,,,,,,,,,,,,,,,,,,,,o,7.601999998,GO,TRUE,,,,,,,2,avestruz,Spanish,Sounds/spa_avestruz.mp3,2020-06-04_21h22.27.233,TranslationElicitation_eng-prolific,3.2.4,Win32,60,5eacad0d05726e33129cbe93,,1,0,98,0,1,97
,,,,,,,,,,,,,,,,,,,,,,,,,,,,,,,,,,,,,,,,,s,7.733999968,GOS,TRUE,,,,,,,2,avestruz,Spanish,Sounds/spa_avestruz.mp3,2020-06-04_21h22.27.233,TranslationElicitation_eng-prolific,3.2.4,Win32,60,5eacad0d05726e33129cbe93,,1,0,98,0,1,97
,,,,,,,,,,,,,,,,,,,,,,,,,,,,,,,,,,,,,,,,,h,7.898999929,GOSH,TRUE,,,,,,,2,avestruz,Spanish,Sounds/spa_avestruz.mp3,2020-06-04_21h22.27.233,TranslationElicitation_eng-prolific,3.2.4,Win32,60,5eacad0d05726e33129cbe93,,1,0,98,0,1,97
,,,,,,,,,,,,,,,,,,,,,,,,,,,,,,,,,,,,,,,,,return,8.431999922,GOSH,TRUE,,,,,,,2,avestruz,Spanish,Sounds/spa_avestruz.mp3,2020-06-04_21h22.27.233,TranslationElicitation_eng-prolific,3.2.4,Win32,60,5eacad0d05726e33129cbe93,8.431999922,1,0,98,0,1,97
,,,,,,,,,,,,,,,,,,,,,,,,,,,,,,,,,,,,,,,,,,,,,,,,,,,2,avestruz,Spanish,Sounds/spa_avestruz.mp3,2020-06-04_21h22.27.233,TranslationElicitation_eng-prolific,3.2.4,Win32,60,5eacad0d05726e33129cbe93,,1,0,98,0,1,97
,,,,,,,,,,,,,,,,,,,,,,,,,,,,,,,,,,,,,,,,,p,1.999000072,P,FALSE,,,,,,,74,pajaro,Spanish,Sounds/spa_pajaro.mp3,2020-06-04_21h22.27.233,TranslationElicitation_eng-prolific,3.2.4,Win32,60,5eacad0d05726e33129cbe93,,1,0,98,69,1,97
,,,,,,,,,,,,,,,,,,,,,,,,,,,,,,,,,,,,,,,,,a,2.21600008,PA,FALSE,,,,,,,74,pajaro,Spanish,Sounds/spa_pajaro.mp3,2020-06-04_21h22.27.233,TranslationElicitation_eng-prolific,3.2.4,Win32,60,5eacad0d05726e33129cbe93,,1,0,98,69,1,97
,,,,,,,,,,,,,,,,,,,,,,,,,,,,,,,,,,,,,,,,,r,2.414999962,PAR,FALSE,,,,,,,74,pajaro,Spanish,Sounds/spa_pajaro.mp3,2020-06-04_21h22.27.233,TranslationElicitation_eng-prolific,3.2.4,Win32,60,5eacad0d05726e33129cbe93,,1,0,98,69,1,97
,,,,,,,,,,,,,,,,,,,,,,,,,,,,,,,,,,,,,,,,,d,2.582000017,PARD,FALSE,,,,,,,74,pajaro,Spanish,Sounds/spa_pajaro.mp3,2020-06-04_21h22.27.233,TranslationElicitation_eng-prolific,3.2.4,Win32,60,5eacad0d05726e33129cbe93,,1,0,98,69,1,97
,,,,,,,,,,,,,,,,,,,,,,,,,,,,,,,,,,,,,,,,,o,2.681999922,PARDO,FALSE,,,,,,,74,pajaro,Spanish,Sounds/spa_pajaro.mp3,2020-06-04_21h22.27.233,TranslationElicitation_eng-prolific,3.2.4,Win32,60,5eacad0d05726e33129cbe93,,1,0,98,69,1,97
,,,,,,,,,,,,,,,,,,,,,,,,,,,,,,,,,,,,,,,,,n,2.749000072,PARDON,FALSE,,,,,,,74,pajaro,Spanish,Sounds/spa_pajaro.mp3,2020-06-04_21h22.27.233,TranslationElicitation_eng-prolific,3.2.4,Win32,60,5eacad0d05726e33129cbe93,,1,0,98,69,1,97
,,,,,,,,,,,,,,,,,,,,,,,,,,,,,,,,,,,,,,,,,return,3.082000017,PARDON,FALSE,,,,,,,74,pajaro,Spanish,Sounds/spa_pajaro.mp3,2020-06-04_21h22.27.233,TranslationElicitation_eng-prolific,3.2.4,Win32,60,5eacad0d05726e33129cbe93,3.082000017,1,0,98,69,1,97
,,,,,,,,,,,,,,,,,,,,,,,,,,,,,,,,,,,,,,,,,,,,,,,,,,,74,pajaro,Spanish,Sounds/spa_pajaro.mp3,2020-06-04_21h22.27.233,TranslationElicitation_eng-prolific,3.2.4,Win32,60,5eacad0d05726e33129cbe93,,1,0,98,69,1,97
,,,,,,,,,,,,,,,,,,,,,,,,,,,,,,,,,,,,,,,,,b,1.597000122,B,FALSE,,,,,,,83,pez,Spanish,Sounds/spa_pez.mp3,2020-06-04_21h22.27.233,TranslationElicitation_eng-prolific,3.2.4,Win32,60,5eacad0d05726e33129cbe93,,1,0,98,78,1,97
,,,,,,,,,,,,,,,,,,,,,,,,,,,,,,,,,,,,,,,,,a,1.916000128,BA,FALSE,,,,,,,83,pez,Spanish,Sounds/spa_pez.mp3,2020-06-04_21h22.27.233,TranslationElicitation_eng-prolific,3.2.4,Win32,60,5eacad0d05726e33129cbe93,,1,0,98,78,1,97
,,,,,,,,,,,,,,,,,,,,,,,,,,,,,,,,,,,,,,,,,t,2.111999989,BAT,FALSE,,,,,,,83,pez,Spanish,Sounds/spa_pez.mp3,2020-06-04_21h22.27.233,TranslationElicitation_eng-prolific,3.2.4,Win32,60,5eacad0d05726e33129cbe93,,1,0,98,78,1,97
,,,,,,,,,,,,,,,,,,,,,,,,,,,,,,,,,,,,,,,,,h,2.229000092,BATH,FALSE,,,,,,,83,pez,Spanish,Sounds/spa_pez.mp3,2020-06-04_21h22.27.233,TranslationElicitation_eng-prolific,3.2.4,Win32,60,5eacad0d05726e33129cbe93,,1,0,98,78,1,97
,,,,,,,,,,,,,,,,,,,,,,,,,,,,,,,,,,,,,,,,,return,2.529000044,BATH,FALSE,,,,,,,83,pez,Spanish,Sounds/spa_pez.mp3,2020-06-04_21h22.27.233,TranslationElicitation_eng-prolific,3.2.4,Win32,60,5eacad0d05726e33129cbe93,2.529000044,1,0,98,78,1,97
,,,,,,,,,,,,,,,,,,,,,,,,,,,,,,,,,,,,,,,,,,,,,,,,,,,83,pez,Spanish,Sounds/spa_pez.mp3,2020-06-04_21h22.27.233,TranslationElicitation_eng-prolific,3.2.4,Win32,60,5eacad0d05726e33129cbe93,,1,0,98,78,1,97
,,,,,,,,,,,,,,,,,,,,,,,,,,,,,,,,,,,,,,,,,m,1.415999889,M,FALSE,,,,,,,59,mano,Spanish,Sounds/spa_mano.mp3,2020-06-04_21h22.27.233,TranslationElicitation_eng-prolific,3.2.4,Win32,60,5eacad0d05726e33129cbe93,,1,0,98,55,1,97
,,,,,,,,,,,,,,,,,,,,,,,,,,,,,,,,,,,,,,,,,a,1.648000002,MA,FALSE,,,,,,,59,mano,Spanish,Sounds/spa_mano.mp3,2020-06-04_21h22.27.233,TranslationElicitation_eng-prolific,3.2.4,Win32,60,5eacad0d05726e33129cbe93,,1,0,98,55,1,97
,,,,,,,,,,,,,,,,,,,,,,,,,,,,,,,,,,,,,,,,,n,1.782999992,MAN,FALSE,,,,,,,59,mano,Spanish,Sounds/spa_mano.mp3,2020-06-04_21h22.27.233,TranslationElicitation_eng-prolific,3.2.4,Win32,60,5eacad0d05726e33129cbe93,,1,0,98,55,1,97
,,,,,,,,,,,,,,,,,,,,,,,,,,,,,,,,,,,,,,,,,return,3.096999884,MAN,FALSE,,,,,,,59,mano,Spanish,Sounds/spa_mano.mp3,2020-06-04_21h22.27.233,TranslationElicitation_eng-prolific,3.2.4,Win32,60,5eacad0d05726e33129cbe93,3.096999884,1,0,98,55,1,97
,,,,,,,,,,,,,,,,,,,,,,,,,,,,,,,,,,,,,,,,,,,,,,,,,,,59,mano,Spanish,Sounds/spa_mano.mp3,2020-06-04_21h22.27.233,TranslationElicitation_eng-prolific,3.2.4,Win32,60,5eacad0d05726e33129cbe93,,1,0,98,55,1,97
,,,,,,,,,,,,,,,,,,,,,,,,,,,,,,,,,,,,,,,,,m,3.982000113,M,FALSE,,,,,,,69,nariz,Spanish,Sounds/spa_nariz.mp3,2020-06-04_21h22.27.233,TranslationElicitation_eng-prolific,3.2.4,Win32,60,5eacad0d05726e33129cbe93,,1,0,98,65,1,97
,,,,,,,,,,,,,,,,,,,,,,,,,,,,,,,,,,,,,,,,,a,4.265000105,MA,FALSE,,,,,,,69,nariz,Spanish,Sounds/spa_nariz.mp3,2020-06-04_21h22.27.233,TranslationElicitation_eng-prolific,3.2.4,Win32,60,5eacad0d05726e33129cbe93,,1,0,98,65,1,97
,,,,,,,,,,,,,,,,,,,,,,,,,,,,,,,,,,,,,,,,,r,4.548000097,MAR,FALSE,,,,,,,69,nariz,Spanish,Sounds/spa_nariz.mp3,2020-06-04_21h22.27.233,TranslationElicitation_eng-prolific,3.2.4,Win32,60,5eacad0d05726e33129cbe93,,1,0,98,65,1,97
,,,,,,,,,,,,,,,,,,,,,,,,,,,,,,,,,,,,,,,,,r,5.049000025,MARR,FALSE,,,,,,,69,nariz,Spanish,Sounds/spa_nariz.mp3,2020-06-04_21h22.27.233,TranslationElicitation_eng-prolific,3.2.4,Win32,60,5eacad0d05726e33129cbe93,,1,0,98,65,1,97
,,,,,,,,,,,,,,,,,,,,,,,,,,,,,,,,,,,,,,,,,y,5.21600008,MARRY,FALSE,,,,,,,69,nariz,Spanish,Sounds/spa_nariz.mp3,2020-06-04_21h22.27.233,TranslationElicitation_eng-prolific,3.2.4,Win32,60,5eacad0d05726e33129cbe93,,1,0,98,65,1,97
,,,,,,,,,,,,,,,,,,,,,,,,,,,,,,,,,,,,,,,,,return,5.56400013,MARRY,FALSE,,,,,,,69,nariz,Spanish,Sounds/spa_nariz.mp3,2020-06-04_21h22.27.233,TranslationElicitation_eng-prolific,3.2.4,Win32,60,5eacad0d05726e33129cbe93,5.56400013,1,0,98,65,1,97
,,,,,,,,,,,,,,,,,,,,,,,,,,,,,,,,,,,,,,,,,,,,,,,,,,,69,nariz,Spanish,Sounds/spa_nariz.mp3,2020-06-04_21h22.27.233,TranslationElicitation_eng-prolific,3.2.4,Win32,60,5eacad0d05726e33129cbe93,,1,0,98,65,1,97
,,,,,,,,,,,,,,,,,,,,,,,,,,,,,,,,,,,,,,,,,g,2.30099988,G,FALSE,,,,,,,42,gato,Spanish,Sounds/spa_gato.mp3,2020-06-04_21h22.27.233,TranslationElicitation_eng-prolific,3.2.4,Win32,60,5eacad0d05726e33129cbe93,,1,0,98,38,1,97
,,,,,,,,,,,,,,,,,,,,,,,,,,,,,,,,,,,,,,,,,o,2.517999887,GO,FALSE,,,,,,,42,gato,Spanish,Sounds/spa_gato.mp3,2020-06-04_21h22.27.233,TranslationElicitation_eng-prolific,3.2.4,Win32,60,5eacad0d05726e33129cbe93,,1,0,98,38,1,97
,,,,,,,,,,,,,,,,,,,,,,,,,,,,,,,,,,,,,,,,,return,2.88499999,GO,FALSE,,,,,,,42,gato,Spanish,Sounds/spa_gato.mp3,2020-06-04_21h22.27.233,TranslationElicitation_eng-prolific,3.2.4,Win32,60,5eacad0d05726e33129cbe93,2.88499999,1,0,98,38,1,97
,,,,,,,,,,,,,,,,,,,,,,,,,,,,,,,,,,,,,,,,,,,,,,,,,,,42,gato,Spanish,Sounds/spa_gato.mp3,2020-06-04_21h22.27.233,TranslationElicitation_eng-prolific,3.2.4,Win32,60,5eacad0d05726e33129cbe93,,1,0,98,38,1,97
,,,,,,,,,,,,,,,,,,,,,,,,,,,,,,,,,,,,,,,,,b,1.631999969,B,FALSE,,,,,,,3,barco,Spanish,Sounds/spa_barco.mp3,2020-06-04_21h22.27.233,TranslationElicitation_eng-prolific,3.2.4,Win32,60,5eacad0d05726e33129cbe93,,1,0,98,1,1,97
,,,,,,,,,,,,,,,,,,,,,,,,,,,,,,,,,,,,,,,,,a,1.812000036,BA,FALSE,,,,,,,3,barco,Spanish,Sounds/spa_barco.mp3,2020-06-04_21h22.27.233,TranslationElicitation_eng-prolific,3.2.4,Win32,60,5eacad0d05726e33129cbe93,,1,0,98,1,1,97
,,,,,,,,,,,,,,,,,,,,,,,,,,,,,,,,,,,,,,,,,r,1.996000051,BAR,FALSE,,,,,,,3,barco,Spanish,Sounds/spa_barco.mp3,2020-06-04_21h22.27.233,TranslationElicitation_eng-prolific,3.2.4,Win32,60,5eacad0d05726e33129cbe93,,1,0,98,1,1,97
,,,,,,,,,,,,,,,,,,,,,,,,,,,,,,,,,,,,,,,,,c,2.229000092,BARC,FALSE,,,,,,,3,barco,Spanish,Sounds/spa_barco.mp3,2020-06-04_21h22.27.233,TranslationElicitation_eng-prolific,3.2.4,Win32,60,5eacad0d05726e33129cbe93,,1,0,98,1,1,97
,,,,,,,,,,,,,,,,,,,,,,,,,,,,,,,,,,,,,,,,,o,2.361999989,BARCO,FALSE,,,,,,,3,barco,Spanish,Sounds/spa_barco.mp3,2020-06-04_21h22.27.233,TranslationElicitation_eng-prolific,3.2.4,Win32,60,5eacad0d05726e33129cbe93,,1,0,98,1,1,97
,,,,,,,,,,,,,,,,,,,,,,,,,,,,,,,,,,,,,,,,,d,2.479000092,BARCOD,FALSE,,,,,,,3,barco,Spanish,Sounds/spa_barco.mp3,2020-06-04_21h22.27.233,TranslationElicitation_eng-prolific,3.2.4,Win32,60,5eacad0d05726e33129cbe93,,1,0,98,1,1,97
,,,,,,,,,,,,,,,,,,,,,,,,,,,,,,,,,,,,,,,,,e,2.546000004,BARCODE,FALSE,,,,,,,3,barco,Spanish,Sounds/spa_barco.mp3,2020-06-04_21h22.27.233,TranslationElicitation_eng-prolific,3.2.4,Win32,60,5eacad0d05726e33129cbe93,,1,0,98,1,1,97
,,,,,,,,,,,,,,,,,,,,,,,,,,,,,,,,,,,,,,,,,return,2.896000147,BARCODE,FALSE,,,,,,,3,barco,Spanish,Sounds/spa_barco.mp3,2020-06-04_21h22.27.233,TranslationElicitation_eng-prolific,3.2.4,Win32,60,5eacad0d05726e33129cbe93,2.896000147,1,0,98,1,1,97
,,,,,,,,,,,,,,,,,,,,,,,,,,,,,,,,,,,,,,,,,,,,,,,,,,,3,barco,Spanish,Sounds/spa_barco.mp3,2020-06-04_21h22.27.233,TranslationElicitation_eng-prolific,3.2.4,Win32,60,5eacad0d05726e33129cbe93,,1,0,98,1,1,97
,,,,,,,,,,,,,,,,,,,,,,,,,,,,,,,,,,,,,,,,,t,1.298999786,T,FALSE,,,,,,,99,tomate,Spanish,Sounds/spa_tomate.mp3,2020-06-04_21h22.27.233,TranslationElicitation_eng-prolific,3.2.4,Win32,60,5eacad0d05726e33129cbe93,,1,0,98,93,1,97
,,,,,,,,,,,,,,,,,,,,,,,,,,,,,,,,,,,,,,,,,o,1.681999922,TO,FALSE,,,,,,,99,tomate,Spanish,Sounds/spa_tomate.mp3,2020-06-04_21h22.27.233,TranslationElicitation_eng-prolific,3.2.4,Win32,60,5eacad0d05726e33129cbe93,,1,0,98,93,1,97
,,,,,,,,,,,,,,,,,,,,,,,,,,,,,,,,,,,,,,,,,m,2.397999763,TOM,FALSE,,,,,,,99,tomate,Spanish,Sounds/spa_tomate.mp3,2020-06-04_21h22.27.233,TranslationElicitation_eng-prolific,3.2.4,Win32,60,5eacad0d05726e33129cbe93,,1,0,98,93,1,97
,,,,,,,,,,,,,,,,,,,,,,,,,,,,,,,,,,,,,,,,,a,2.529999971,TOMA,FALSE,,,,,,,99,tomate,Spanish,Sounds/spa_tomate.mp3,2020-06-04_21h22.27.233,TranslationElicitation_eng-prolific,3.2.4,Win32,60,5eacad0d05726e33129cbe93,,1,0,98,93,1,97
,,,,,,,,,,,,,,,,,,,,,,,,,,,,,,,,,,,,,,,,,t,2.699999809,TOMAT,FALSE,,,,,,,99,tomate,Spanish,Sounds/spa_tomate.mp3,2020-06-04_21h22.27.233,TranslationElicitation_eng-prolific,3.2.4,Win32,60,5eacad0d05726e33129cbe93,,1,0,98,93,1,97
,,,,,,,,,,,,,,,,,,,,,,,,,,,,,,,,,,,,,,,,,o,2.81799984,TOMATO,FALSE,,,,,,,99,tomate,Spanish,Sounds/spa_tomate.mp3,2020-06-04_21h22.27.233,TranslationElicitation_eng-prolific,3.2.4,Win32,60,5eacad0d05726e33129cbe93,,1,0,98,93,1,97
,,,,,,,,,,,,,,,,,,,,,,,,,,,,,,,,,,,,,,,,,return,3.029999971,TOMATO,FALSE,,,,,,,99,tomate,Spanish,Sounds/spa_tomate.mp3,2020-06-04_21h22.27.233,TranslationElicitation_eng-prolific,3.2.4,Win32,60,5eacad0d05726e33129cbe93,3.029999971,1,0,98,93,1,97
,,,,,,,,,,,,,,,,,,,,,,,,,,,,,,,,,,,,,,,,,,,,,,,,,,,99,tomate,Spanish,Sounds/spa_tomate.mp3,2020-06-04_21h22.27.233,TranslationElicitation_eng-prolific,3.2.4,Win32,60,5eacad0d05726e33129cbe93,,1,0,98,93,1,97
,,,,,,,,,,,,,,,,,,,,,,,,,,,,,,,,,,,,,,,,,e,2.05099988,E,FALSE,,,,,,,34,ensalada,Spanish,Sounds/spa_ensalada.mp3,2020-06-04_21h22.27.233,TranslationElicitation_eng-prolific,3.2.4,Win32,60,5eacad0d05726e33129cbe93,,1,0,98,30,1,97
,,,,,,,,,,,,,,,,,,,,,,,,,,,,,,,,,,,,,,,,,n,2.983999968,EN,FALSE,,,,,,,34,ensalada,Spanish,Sounds/spa_ensalada.mp3,2020-06-04_21h22.27.233,TranslationElicitation_eng-prolific,3.2.4,Win32,60,5eacad0d05726e33129cbe93,,1,0,98,30,1,97
,,,,,,,,,,,,,,,,,,,,,,,,,,,,,,,,,,,,,,,,,c,3.100999832,ENC,FALSE,,,,,,,34,ensalada,Spanish,Sounds/spa_ensalada.mp3,2020-06-04_21h22.27.233,TranslationElicitation_eng-prolific,3.2.4,Win32,60,5eacad0d05726e33129cbe93,,1,0,98,30,1,97
,,,,,,,,,,,,,,,,,,,,,,,,,,,,,,,,,,,,,,,,,h,3.217000008,ENCH,FALSE,,,,,,,34,ensalada,Spanish,Sounds/spa_ensalada.mp3,2020-06-04_21h22.27.233,TranslationElicitation_eng-prolific,3.2.4,Win32,60,5eacad0d05726e33129cbe93,,1,0,98,30,1,97
,,,,,,,,,,,,,,,,,,,,,,,,,,,,,,,,,,,,,,,,,i,3.383999825,ENCHI,FALSE,,,,,,,34,ensalada,Spanish,Sounds/spa_ensalada.mp3,2020-06-04_21h22.27.233,TranslationElicitation_eng-prolific,3.2.4,Win32,60,5eacad0d05726e33129cbe93,,1,0,98,30,1,97
,,,,,,,,,,,,,,,,,,,,,,,,,,,,,,,,,,,,,,,,,l,3.720999956,ENCHIL,FALSE,,,,,,,34,ensalada,Spanish,Sounds/spa_ensalada.mp3,2020-06-04_21h22.27.233,TranslationElicitation_eng-prolific,3.2.4,Win32,60,5eacad0d05726e33129cbe93,,1,0,98,30,1,97
,,,,,,,,,,,,,,,,,,,,,,,,,,,,,,,,,,,,,,,,,a,4.717999935,ENCHILA,FALSE,,,,,,,34,ensalada,Spanish,Sounds/spa_ensalada.mp3,2020-06-04_21h22.27.233,TranslationElicitation_eng-prolific,3.2.4,Win32,60,5eacad0d05726e33129cbe93,,1,0,98,30,1,97
,,,,,,,,,,,,,,,,,,,,,,,,,,,,,,,,,,,,,,,,,d,4.850999832,ENCHILAD,FALSE,,,,,,,34,ensalada,Spanish,Sounds/spa_ensalada.mp3,2020-06-04_21h22.27.233,TranslationElicitation_eng-prolific,3.2.4,Win32,60,5eacad0d05726e33129cbe93,,1,0,98,30,1,97
,,,,,,,,,,,,,,,,,,,,,,,,,,,,,,,,,,,,,,,,,a,5.01699996,ENCHILADA,FALSE,,,,,,,34,ensalada,Spanish,Sounds/spa_ensalada.mp3,2020-06-04_21h22.27.233,TranslationElicitation_eng-prolific,3.2.4,Win32,60,5eacad0d05726e33129cbe93,,1,0,98,30,1,97
,,,,,,,,,,,,,,,,,,,,,,,,,,,,,,,,,,,,,,,,,return,5.30099988,ENCHILADA,FALSE,,,,,,,34,ensalada,Spanish,Sounds/spa_ensalada.mp3,2020-06-04_21h22.27.233,TranslationElicitation_eng-prolific,3.2.4,Win32,60,5eacad0d05726e33129cbe93,5.30099988,1,0,98,30,1,97
,,,,,,,,,,,,,,,,,,,,,,,,,,,,,,,,,,,,,,,,,,,,,,,,,,,34,ensalada,Spanish,Sounds/spa_ensalada.mp3,2020-06-04_21h22.27.233,TranslationElicitation_eng-prolific,3.2.4,Win32,60,5eacad0d05726e33129cbe93,,1,0,98,30,1,97
,,,,,,,,,,,,,,,,,,,,,,,,,,,,,,,,,,,,,,,,,l,1.947999954,L,FALSE,,,,,,,56,libro,Spanish,Sounds/spa_libro.mp3,2020-06-04_21h22.27.233,TranslationElicitation_eng-prolific,3.2.4,Win32,60,5eacad0d05726e33129cbe93,,1,0,98,52,1,97
,,,,,,,,,,,,,,,,,,,,,,,,,,,,,,,,,,,,,,,,,i,2.131999969,LI,FALSE,,,,,,,56,libro,Spanish,Sounds/spa_libro.mp3,2020-06-04_21h22.27.233,TranslationElicitation_eng-prolific,3.2.4,Win32,60,5eacad0d05726e33129cbe93,,1,0,98,52,1,97
,,,,,,,,,,,,,,,,,,,,,,,,,,,,,,,,,,,,,,,,,b,2.265000105,LIB,FALSE,,,,,,,56,libro,Spanish,Sounds/spa_libro.mp3,2020-06-04_21h22.27.233,TranslationElicitation_eng-prolific,3.2.4,Win32,60,5eacad0d05726e33129cbe93,,1,0,98,52,1,97
,,,,,,,,,,,,,,,,,,,,,,,,,,,,,,,,,,,,,,,,,r,2.381999969,LIBR,FALSE,,,,,,,56,libro,Spanish,Sounds/spa_libro.mp3,2020-06-04_21h22.27.233,TranslationElicitation_eng-prolific,3.2.4,Win32,60,5eacad0d05726e33129cbe93,,1,0,98,52,1,97
,,,,,,,,,,,,,,,,,,,,,,,,,,,,,,,,,,,,,,,,,a,2.463999987,LIBRA,FALSE,,,,,,,56,libro,Spanish,Sounds/spa_libro.mp3,2020-06-04_21h22.27.233,TranslationElicitation_eng-prolific,3.2.4,Win32,60,5eacad0d05726e33129cbe93,,1,0,98,52,1,97
,,,,,,,,,,,,,,,,,,,,,,,,,,,,,,,,,,,,,,,,,return,3.34800005,LIBRA,FALSE,,,,,,,56,libro,Spanish,Sounds/spa_libro.mp3,2020-06-04_21h22.27.233,TranslationElicitation_eng-prolific,3.2.4,Win32,60,5eacad0d05726e33129cbe93,3.34800005,1,0,98,52,1,97
,,,,,,,,,,,,,,,,,,,,,,,,,,,,,,,,,,,,,,,,,,,,,,,,,,,56,libro,Spanish,Sounds/spa_libro.mp3,2020-06-04_21h22.27.233,TranslationElicitation_eng-prolific,3.2.4,Win32,60,5eacad0d05726e33129cbe93,,1,0,98,52,1,97
,,,,,,,,,,,,,,,,,,,,,,,,,,,,,,,,,,,,,,,,,b,1.930999994,B,FALSE,,,,,,,44,gorrion,Spanish,Sounds/spa_gorrion.mp3,2020-06-04_21h22.27.233,TranslationElicitation_eng-prolific,3.2.4,Win32,60,5eacad0d05726e33129cbe93,,1,0,98,40,1,97
,,,,,,,,,,,,,,,,,,,,,,,,,,,,,,,,,,,,,,,,,o,2.33100009,BO,FALSE,,,,,,,44,gorrion,Spanish,Sounds/spa_gorrion.mp3,2020-06-04_21h22.27.233,TranslationElicitation_eng-prolific,3.2.4,Win32,60,5eacad0d05726e33129cbe93,,1,0,98,40,1,97
,,,,,,,,,,,,,,,,,,,,,,,,,,,,,,,,,,,,,,,,,backspace,3.013000011,B,TRUE,,,,,,,44,gorrion,Spanish,Sounds/spa_gorrion.mp3,2020-06-04_21h22.27.233,TranslationElicitation_eng-prolific,3.2.4,Win32,60,5eacad0d05726e33129cbe93,,1,0,98,40,1,97
,,,,,,,,,,,,,,,,,,,,,,,,,,,,,,,,,,,,,,,,,backspace,3.178999901,,TRUE,,,,,,,44,gorrion,Spanish,Sounds/spa_gorrion.mp3,2020-06-04_21h22.27.233,TranslationElicitation_eng-prolific,3.2.4,Win32,60,5eacad0d05726e33129cbe93,,1,0,98,40,1,97
,,,,,,,,,,,,,,,,,,,,,,,,,,,,,,,,,,,,,,,,,g,3.461999893,G,TRUE,,,,,,,44,gorrion,Spanish,Sounds/spa_gorrion.mp3,2020-06-04_21h22.27.233,TranslationElicitation_eng-prolific,3.2.4,Win32,60,5eacad0d05726e33129cbe93,,1,0,98,40,1,97
,,,,,,,,,,,,,,,,,,,,,,,,,,,,,,,,,,,,,,,,,o,3.713000059,GO,TRUE,,,,,,,44,gorrion,Spanish,Sounds/spa_gorrion.mp3,2020-06-04_21h22.27.233,TranslationElicitation_eng-prolific,3.2.4,Win32,60,5eacad0d05726e33129cbe93,,1,0,98,40,1,97
,,,,,,,,,,,,,,,,,,,,,,,,,,,,,,,,,,,,,,,,,i,3.829999924,GOI,TRUE,,,,,,,44,gorrion,Spanish,Sounds/spa_gorrion.mp3,2020-06-04_21h22.27.233,TranslationElicitation_eng-prolific,3.2.4,Win32,60,5eacad0d05726e33129cbe93,,1,0,98,40,1,97
,,,,,,,,,,,,,,,,,,,,,,,,,,,,,,,,,,,,,,,,,n,4.200000048,GOIN,TRUE,,,,,,,44,gorrion,Spanish,Sounds/spa_gorrion.mp3,2020-06-04_21h22.27.233,TranslationElicitation_eng-prolific,3.2.4,Win32,60,5eacad0d05726e33129cbe93,,1,0,98,40,1,97
,,,,,,,,,,,,,,,,,,,,,,,,,,,,,,,,,,,,,,,,,g,4.430000067,GOING,TRUE,,,,,,,44,gorrion,Spanish,Sounds/spa_gorrion.mp3,2020-06-04_21h22.27.233,TranslationElicitation_eng-prolific,3.2.4,Win32,60,5eacad0d05726e33129cbe93,,1,0,98,40,1,97
,,,,,,,,,,,,,,,,,,,,,,,,,,,,,,,,,,,,,,,,,return,4.995000124,GOING,TRUE,,,,,,,44,gorrion,Spanish,Sounds/spa_gorrion.mp3,2020-06-04_21h22.27.233,TranslationElicitation_eng-prolific,3.2.4,Win32,60,5eacad0d05726e33129cbe93,4.995000124,1,0,98,40,1,97
,,,,,,,,,,,,,,,,,,,,,,,,,,,,,,,,,,,,,,,,,,,,,,,,,,,44,gorrion,Spanish,Sounds/spa_gorrion.mp3,2020-06-04_21h22.27.233,TranslationElicitation_eng-prolific,3.2.4,Win32,60,5eacad0d05726e33129cbe93,,1,0,98,40,1,97
,,,,,,,,,,,,,,,,,,,,,,,,,,,,,,,,,,,,,,,,,b,4.580999851,B,FALSE,,,,,,,4,biberon,Spanish,Sounds/spa_biberon.mp3,2020-06-04_21h22.27.233,TranslationElicitation_eng-prolific,3.2.4,Win32,60,5eacad0d05726e33129cbe93,,1,0,98,2,1,97
,,,,,,,,,,,,,,,,,,,,,,,,,,,,,,,,,,,,,,,,,e,4.714999914,BE,FALSE,,,,,,,4,biberon,Spanish,Sounds/spa_biberon.mp3,2020-06-04_21h22.27.233,TranslationElicitation_eng-prolific,3.2.4,Win32,60,5eacad0d05726e33129cbe93,,1,0,98,2,1,97
,,,,,,,,,,,,,,,,,,,,,,,,,,,,,,,,,,,,,,,,,i,4.898000002,BEI,FALSE,,,,,,,4,biberon,Spanish,Sounds/spa_biberon.mp3,2020-06-04_21h22.27.233,TranslationElicitation_eng-prolific,3.2.4,Win32,60,5eacad0d05726e33129cbe93,,1,0,98,2,1,97
,,,,,,,,,,,,,,,,,,,,,,,,,,,,,,,,,,,,,,,,,n,4.981999874,BEIN,FALSE,,,,,,,4,biberon,Spanish,Sounds/spa_biberon.mp3,2020-06-04_21h22.27.233,TranslationElicitation_eng-prolific,3.2.4,Win32,60,5eacad0d05726e33129cbe93,,1,0,98,2,1,97
,,,,,,,,,,,,,,,,,,,,,,,,,,,,,,,,,,,,,,,,,g,5.131000042,BEING,FALSE,,,,,,,4,biberon,Spanish,Sounds/spa_biberon.mp3,2020-06-04_21h22.27.233,TranslationElicitation_eng-prolific,3.2.4,Win32,60,5eacad0d05726e33129cbe93,,1,0,98,2,1,97
,,,,,,,,,,,,,,,,,,,,,,,,,,,,,,,,,,,,,,,,,return,5.398999929,BEING,FALSE,,,,,,,4,biberon,Spanish,Sounds/spa_biberon.mp3,2020-06-04_21h22.27.233,TranslationElicitation_eng-prolific,3.2.4,Win32,60,5eacad0d05726e33129cbe93,5.398999929,1,0,98,2,1,97
,,,,,,,,,,,,,,,,,,,,,,,,,,,,,,,,,,,,,,,,,,,,,,,,,,,4,biberon,Spanish,Sounds/spa_biberon.mp3,2020-06-04_21h22.27.233,TranslationElicitation_eng-prolific,3.2.4,Win32,60,5eacad0d05726e33129cbe93,,1,0,98,2,1,97
,,,,,,,,,,,,,,,,,,,,,,,,,,,,,,,,,,,,,,,,,p,2.43200016,P,FALSE,,,,,,,90,pollo,Spanish,Sounds/spa_pollo.mp3,2020-06-04_21h22.27.233,TranslationElicitation_eng-prolific,3.2.4,Win32,60,5eacad0d05726e33129cbe93,,1,0,98,85,1,97
,,,,,,,,,,,,,,,,,,,,,,,,,,,,,,,,,,,,,,,,,o,2.532000065,PO,FALSE,,,,,,,90,pollo,Spanish,Sounds/spa_pollo.mp3,2020-06-04_21h22.27.233,TranslationElicitation_eng-prolific,3.2.4,Win32,60,5eacad0d05726e33129cbe93,,1,0,98,85,1,97
,,,,,,,,,,,,,,,,,,,,,,,,,,,,,,,,,,,,,,,,,o,2.733999968,POO,FALSE,,,,,,,90,pollo,Spanish,Sounds/spa_pollo.mp3,2020-06-04_21h22.27.233,TranslationElicitation_eng-prolific,3.2.4,Win32,60,5eacad0d05726e33129cbe93,,1,0,98,85,1,97
,,,,,,,,,,,,,,,,,,,,,,,,,,,,,,,,,,,,,,,,,r,2.881999969,POOR,FALSE,,,,,,,90,pollo,Spanish,Sounds/spa_pollo.mp3,2020-06-04_21h22.27.233,TranslationElicitation_eng-prolific,3.2.4,Win32,60,5eacad0d05726e33129cbe93,,1,0,98,85,1,97
,,,,,,,,,,,,,,,,,,,,,,,,,,,,,,,,,,,,,,,,,return,3.480000019,POOR,FALSE,,,,,,,90,pollo,Spanish,Sounds/spa_pollo.mp3,2020-06-04_21h22.27.233,TranslationElicitation_eng-prolific,3.2.4,Win32,60,5eacad0d05726e33129cbe93,3.480000019,1,0,98,85,1,97
,,,,,,,,,,,,,,,,,,,,,,,,,,,,,,,,,,,,,,,,,,,,,,,,,,,90,pollo,Spanish,Sounds/spa_pollo.mp3,2020-06-04_21h22.27.233,TranslationElicitation_eng-prolific,3.2.4,Win32,60,5eacad0d05726e33129cbe93,,1,0,98,85,1,97
,,,,,,,,,,,,,,,,,,,,,,,,,,,,,,,,,,,,,,,,,n,3.217000008,N,FALSE,,,,,,,68,naranja,Spanish,Sounds/spa_naranja.mp3,2020-06-04_21h22.27.233,TranslationElicitation_eng-prolific,3.2.4,Win32,60,5eacad0d05726e33129cbe93,,1,0,98,64,1,97
,,,,,,,,,,,,,,,,,,,,,,,,,,,,,,,,,,,,,,,,,a,3.388000011,NA,FALSE,,,,,,,68,naranja,Spanish,Sounds/spa_naranja.mp3,2020-06-04_21h22.27.233,TranslationElicitation_eng-prolific,3.2.4,Win32,60,5eacad0d05726e33129cbe93,,1,0,98,64,1,97
,,,,,,,,,,,,,,,,,,,,,,,,,,,,,,,,,,,,,,,,,s,3.503999949,NAS,FALSE,,,,,,,68,naranja,Spanish,Sounds/spa_naranja.mp3,2020-06-04_21h22.27.233,TranslationElicitation_eng-prolific,3.2.4,Win32,60,5eacad0d05726e33129cbe93,,1,0,98,64,1,97
,,,,,,,,,,,,,,,,,,,,,,,,,,,,,,,,,,,,,,,,,t,3.731999874,NAST,FALSE,,,,,,,68,naranja,Spanish,Sounds/spa_naranja.mp3,2020-06-04_21h22.27.233,TranslationElicitation_eng-prolific,3.2.4,Win32,60,5eacad0d05726e33129cbe93,,1,0,98,64,1,97
,,,,,,,,,,,,,,,,,,,,,,,,,,,,,,,,,,,,,,,,,y,3.782000065,NASTY,FALSE,,,,,,,68,naranja,Spanish,Sounds/spa_naranja.mp3,2020-06-04_21h22.27.233,TranslationElicitation_eng-prolific,3.2.4,Win32,60,5eacad0d05726e33129cbe93,,1,0,98,64,1,97
,,,,,,,,,,,,,,,,,,,,,,,,,,,,,,,,,,,,,,,,,return,4.21600008,NASTY,FALSE,,,,,,,68,naranja,Spanish,Sounds/spa_naranja.mp3,2020-06-04_21h22.27.233,TranslationElicitation_eng-prolific,3.2.4,Win32,60,5eacad0d05726e33129cbe93,4.21600008,1,0,98,64,1,97
,,,,,,,,,,,,,,,,,,,,,,,,,,,,,,,,,,,,,,,,,,,,,,,,,,,68,naranja,Spanish,Sounds/spa_naranja.mp3,2020-06-04_21h22.27.233,TranslationElicitation_eng-prolific,3.2.4,Win32,60,5eacad0d05726e33129cbe93,,1,0,98,64,1,97
,,,,,,,,,,,,,,,,,,,,,,,,,,,,,,,,,,,,,,,,,b,5.883999825,B,FALSE,,,,,,,12,brazo,Spanish,Sounds/spa_brazo.mp3,2020-06-04_21h22.27.233,TranslationElicitation_eng-prolific,3.2.4,Win32,60,5eacad0d05726e33129cbe93,,1,0,98,10,1,97
,,,,,,,,,,,,,,,,,,,,,,,,,,,,,,,,,,,,,,,,,r,6.082999945,BR,FALSE,,,,,,,12,brazo,Spanish,Sounds/spa_brazo.mp3,2020-06-04_21h22.27.233,TranslationElicitation_eng-prolific,3.2.4,Win32,60,5eacad0d05726e33129cbe93,,1,0,98,10,1,97
,,,,,,,,,,,,,,,,,,,,,,,,,,,,,,,,,,,,,,,,,a,6.583999872,BRA,FALSE,,,,,,,12,brazo,Spanish,Sounds/spa_brazo.mp3,2020-06-04_21h22.27.233,TranslationElicitation_eng-prolific,3.2.4,Win32,60,5eacad0d05726e33129cbe93,,1,0,98,10,1,97
,,,,,,,,,,,,,,,,,,,,,,,,,,,,,,,,,,,,,,,,,v,6.81799984,BRAV,FALSE,,,,,,,12,brazo,Spanish,Sounds/spa_brazo.mp3,2020-06-04_21h22.27.233,TranslationElicitation_eng-prolific,3.2.4,Win32,60,5eacad0d05726e33129cbe93,,1,0,98,10,1,97
,,,,,,,,,,,,,,,,,,,,,,,,,,,,,,,,,,,,,,,,,e,6.962999821,BRAVE,FALSE,,,,,,,12,brazo,Spanish,Sounds/spa_brazo.mp3,2020-06-04_21h22.27.233,TranslationElicitation_eng-prolific,3.2.4,Win32,60,5eacad0d05726e33129cbe93,,1,0,98,10,1,97
,,,,,,,,,,,,,,,,,,,,,,,,,,,,,,,,,,,,,,,,,return,7.31799984,BRAVE,FALSE,,,,,,,12,brazo,Spanish,Sounds/spa_brazo.mp3,2020-06-04_21h22.27.233,TranslationElicitation_eng-prolific,3.2.4,Win32,60,5eacad0d05726e33129cbe93,7.31799984,1,0,98,10,1,97
,,,,,,,,,,,,,,,,,,,,,,,,,,,,,,,,,,,,,,,,,,,,,,,,,,,12,brazo,Spanish,Sounds/spa_brazo.mp3,2020-06-04_21h22.27.233,TranslationElicitation_eng-prolific,3.2.4,Win32,60,5eacad0d05726e33129cbe93,,1,0,98,10,1,97
,,,,,,,,,,,,,,,,,,,,,,,,,,,,,,,,,,,,,,,,,t,9.915999889,T,FALSE,,,,,,,22,cepillo,Spanish,Sounds/spa_cepillo.mp3,2020-06-04_21h22.27.233,TranslationElicitation_eng-prolific,3.2.4,Win32,60,5eacad0d05726e33129cbe93,,1,0,98,20,1,97
,,,,,,,,,,,,,,,,,,,,,,,,,,,,,,,,,,,,,,,,,h,10.13199997,TH,FALSE,,,,,,,22,cepillo,Spanish,Sounds/spa_cepillo.mp3,2020-06-04_21h22.27.233,TranslationElicitation_eng-prolific,3.2.4,Win32,60,5eacad0d05726e33129cbe93,,1,0,98,20,1,97
,,,,,,,,,,,,,,,,,,,,,,,,,,,,,,,,,,,,,,,,,i,10.41499996,THI,FALSE,,,,,,,22,cepillo,Spanish,Sounds/spa_cepillo.mp3,2020-06-04_21h22.27.233,TranslationElicitation_eng-prolific,3.2.4,Win32,60,5eacad0d05726e33129cbe93,,1,0,98,20,1,97
,,,,,,,,,,,,,,,,,,,,,,,,,,,,,,,,,,,,,,,,,c,11.37899995,THIC,FALSE,,,,,,,22,cepillo,Spanish,Sounds/spa_cepillo.mp3,2020-06-04_21h22.27.233,TranslationElicitation_eng-prolific,3.2.4,Win32,60,5eacad0d05726e33129cbe93,,1,0,98,20,1,97
,,,,,,,,,,,,,,,,,,,,,,,,,,,,,,,,,,,,,,,,,backspace,11.91799998,THI,TRUE,,,,,,,22,cepillo,Spanish,Sounds/spa_cepillo.mp3,2020-06-04_21h22.27.233,TranslationElicitation_eng-prolific,3.2.4,Win32,60,5eacad0d05726e33129cbe93,,1,0,98,20,1,97
,,,,,,,,,,,,,,,,,,,,,,,,,,,,,,,,,,,,,,,,,n,13.09899998,THIN,TRUE,,,,,,,22,cepillo,Spanish,Sounds/spa_cepillo.mp3,2020-06-04_21h22.27.233,TranslationElicitation_eng-prolific,3.2.4,Win32,60,5eacad0d05726e33129cbe93,,1,0,98,20,1,97
,,,,,,,,,,,,,,,,,,,,,,,,,,,,,,,,,,,,,,,,,return,13.61499977,THIN,TRUE,,,,,,,22,cepillo,Spanish,Sounds/spa_cepillo.mp3,2020-06-04_21h22.27.233,TranslationElicitation_eng-prolific,3.2.4,Win32,60,5eacad0d05726e33129cbe93,13.61499977,1,0,98,20,1,97
,,,,,,,,,,,,,,,,,,,,,,,,,,,,,,,,,,,,,,,,,,,,,,,,,,,22,cepillo,Spanish,Sounds/spa_cepillo.mp3,2020-06-04_21h22.27.233,TranslationElicitation_eng-prolific,3.2.4,Win32,60,5eacad0d05726e33129cbe93,,1,0,98,20,1,97
,,,,,,,,,,,,,,,,,,,,,,,,,,,,,,,,,,,,,,,,,g,3.248000145,G,FALSE,,,,,,,40,galleta,Spanish,Sounds/spa_galleta.mp3,2020-06-04_21h22.27.233,TranslationElicitation_eng-prolific,3.2.4,Win32,60,5eacad0d05726e33129cbe93,,1,0,98,36,1,97
,,,,,,,,,,,,,,,,,,,,,,,,,,,,,,,,,,,,,,,,,o,3.798000097,GO,FALSE,,,,,,,40,galleta,Spanish,Sounds/spa_galleta.mp3,2020-06-04_21h22.27.233,TranslationElicitation_eng-prolific,3.2.4,Win32,60,5eacad0d05726e33129cbe93,,1,0,98,36,1,97
,,,,,,,,,,,,,,,,,,,,,,,,,,,,,,,,,,,,,,,,,return,4.381000042,GO,FALSE,,,,,,,40,galleta,Spanish,Sounds/spa_galleta.mp3,2020-06-04_21h22.27.233,TranslationElicitation_eng-prolific,3.2.4,Win32,60,5eacad0d05726e33129cbe93,4.381000042,1,0,98,36,1,97
,,,,,,,,,,,,,,,,,,,,,,,,,,,,,,,,,,,,,,,,,,,,,,,,,,,40,galleta,Spanish,Sounds/spa_galleta.mp3,2020-06-04_21h22.27.233,TranslationElicitation_eng-prolific,3.2.4,Win32,60,5eacad0d05726e33129cbe93,,1,0,98,36,1,97
,,,,,,,,,,,,,,,,,,,,,,,,,,,,,,,,,,,,,,,,,b,1.900999784,B,FALSE,,,,,,,6,boca,Spanish,Sounds/spa_boca.mp3,2020-06-04_21h22.27.233,TranslationElicitation_eng-prolific,3.2.4,Win32,60,5eacad0d05726e33129cbe93,,1,0,98,4,1,97
,,,,,,,,,,,,,,,,,,,,,,,,,,,,,,,,,,,,,,,,,a,2.132999897,BA,FALSE,,,,,,,6,boca,Spanish,Sounds/spa_boca.mp3,2020-06-04_21h22.27.233,TranslationElicitation_eng-prolific,3.2.4,Win32,60,5eacad0d05726e33129cbe93,,1,0,98,4,1,97
,,,,,,,,,,,,,,,,,,,,,,,,,,,,,,,,,,,,,,,,,backspace,3.932999849,B,TRUE,,,,,,,6,boca,Spanish,Sounds/spa_boca.mp3,2020-06-04_21h22.27.233,TranslationElicitation_eng-prolific,3.2.4,Win32,60,5eacad0d05726e33129cbe93,,1,0,98,4,1,97
,,,,,,,,,,,,,,,,,,,,,,,,,,,,,,,,,,,,,,,,,a,5.732999802,BA,TRUE,,,,,,,6,boca,Spanish,Sounds/spa_boca.mp3,2020-06-04_21h22.27.233,TranslationElicitation_eng-prolific,3.2.4,Win32,60,5eacad0d05726e33129cbe93,,1,0,98,4,1,97
,,,,,,,,,,,,,,,,,,,,,,,,,,,,,,,,,,,,,,,,,r,7.062999964,BAR,TRUE,,,,,,,6,boca,Spanish,Sounds/spa_boca.mp3,2020-06-04_21h22.27.233,TranslationElicitation_eng-prolific,3.2.4,Win32,60,5eacad0d05726e33129cbe93,,1,0,98,4,1,97
,,,,,,,,,,,,,,,,,,,,,,,,,,,,,,,,,,,,,,,,,r,7.348999977,BARR,TRUE,,,,,,,6,boca,Spanish,Sounds/spa_boca.mp3,2020-06-04_21h22.27.233,TranslationElicitation_eng-prolific,3.2.4,Win32,60,5eacad0d05726e33129cbe93,,1,0,98,4,1,97
,,,,,,,,,,,,,,,,,,,,,,,,,,,,,,,,,,,,,,,,,e,7.532999992,BARRE,TRUE,,,,,,,6,boca,Spanish,Sounds/spa_boca.mp3,2020-06-04_21h22.27.233,TranslationElicitation_eng-prolific,3.2.4,Win32,60,5eacad0d05726e33129cbe93,,1,0,98,4,1,97
,,,,,,,,,,,,,,,,,,,,,,,,,,,,,,,,,,,,,,,,,d,7.715999842,BARRED,TRUE,,,,,,,6,boca,Spanish,Sounds/spa_boca.mp3,2020-06-04_21h22.27.233,TranslationElicitation_eng-prolific,3.2.4,Win32,60,5eacad0d05726e33129cbe93,,1,0,98,4,1,97
,,,,,,,,,,,,,,,,,,,,,,,,,,,,,,,,,,,,,,,,,return,8.102999926,BARRED,TRUE,,,,,,,6,boca,Spanish,Sounds/spa_boca.mp3,2020-06-04_21h22.27.233,TranslationElicitation_eng-prolific,3.2.4,Win32,60,5eacad0d05726e33129cbe93,8.102999926,1,0,98,4,1,97
,,,,,,,,,,,,,,,,,,,,,,,,,,,,,,,,,,,,,,,,,,,,,,,,,,,6,boca,Spanish,Sounds/spa_boca.mp3,2020-06-04_21h22.27.233,TranslationElicitation_eng-prolific,3.2.4,Win32,60,5eacad0d05726e33129cbe93,,1,0,98,4,1,97
,,,,,,,,,,,,,,,,,,,,,,,,,,,,,,,,,,,,,,,,,f,2.579999924,F,FALSE,,,,,,,37,flor,Spanish,Sounds/spa_flor.mp3,2020-06-04_21h22.27.233,TranslationElicitation_eng-prolific,3.2.4,Win32,60,5eacad0d05726e33129cbe93,,1,0,98,33,1,97
,,,,,,,,,,,,,,,,,,,,,,,,,,,,,,,,,,,,,,,,,l,2.796999931,FL,FALSE,,,,,,,37,flor,Spanish,Sounds/spa_flor.mp3,2020-06-04_21h22.27.233,TranslationElicitation_eng-prolific,3.2.4,Win32,60,5eacad0d05726e33129cbe93,,1,0,98,33,1,97
,,,,,,,,,,,,,,,,,,,,,,,,,,,,,,,,,,,,,,,,,o,3.162999868,FLO,FALSE,,,,,,,37,flor,Spanish,Sounds/spa_flor.mp3,2020-06-04_21h22.27.233,TranslationElicitation_eng-prolific,3.2.4,Win32,60,5eacad0d05726e33129cbe93,,1,0,98,33,1,97
,,,,,,,,,,,,,,,,,,,,,,,,,,,,,,,,,,,,,,,,,o,3.346999884,FLOO,FALSE,,,,,,,37,flor,Spanish,Sounds/spa_flor.mp3,2020-06-04_21h22.27.233,TranslationElicitation_eng-prolific,3.2.4,Win32,60,5eacad0d05726e33129cbe93,,1,0,98,33,1,97
,,,,,,,,,,,,,,,,,,,,,,,,,,,,,,,,,,,,,,,,,r,3.759000063,FLOOR,FALSE,,,,,,,37,flor,Spanish,Sounds/spa_flor.mp3,2020-06-04_21h22.27.233,TranslationElicitation_eng-prolific,3.2.4,Win32,60,5eacad0d05726e33129cbe93,,1,0,98,33,1,97
,,,,,,,,,,,,,,,,,,,,,,,,,,,,,,,,,,,,,,,,,return,4.256000042,FLOOR,FALSE,,,,,,,37,flor,Spanish,Sounds/spa_flor.mp3,2020-06-04_21h22.27.233,TranslationElicitation_eng-prolific,3.2.4,Win32,60,5eacad0d05726e33129cbe93,4.256000042,1,0,98,33,1,97
,,,,,,,,,,,,,,,,,,,,,,,,,,,,,,,,,,,,,,,,,,,,,,,,,,,37,flor,Spanish,Sounds/spa_flor.mp3,2020-06-04_21h22.27.233,TranslationElicitation_eng-prolific,3.2.4,Win32,60,5eacad0d05726e33129cbe93,,1,0,98,33,1,97
,,,,,,,,,,,,,,,,,,,,,,,,,,,,,,,,,,,,,,,,,c,1.535000086,C,FALSE,,,,,,,31,cubo,Spanish,Sounds/spa_cubo.mp3,2020-06-04_21h22.27.233,TranslationElicitation_eng-prolific,3.2.4,Win32,60,5eacad0d05726e33129cbe93,,1,0,98,27,1,97
,,,,,,,,,,,,,,,,,,,,,,,,,,,,,,,,,,,,,,,,,a,4.616999865,CA,FALSE,,,,,,,31,cubo,Spanish,Sounds/spa_cubo.mp3,2020-06-04_21h22.27.233,TranslationElicitation_eng-prolific,3.2.4,Win32,60,5eacad0d05726e33129cbe93,,1,0,98,27,1,97
,,,,,,,,,,,,,,,,,,,,,,,,,,,,,,,,,,,,,,,,,t,4.90199995,CAT,FALSE,,,,,,,31,cubo,Spanish,Sounds/spa_cubo.mp3,2020-06-04_21h22.27.233,TranslationElicitation_eng-prolific,3.2.4,Win32,60,5eacad0d05726e33129cbe93,,1,0,98,27,1,97
,,,,,,,,,,,,,,,,,,,,,,,,,,,,,,,,,,,,,,,,,return,5.085000038,CAT,FALSE,,,,,,,31,cubo,Spanish,Sounds/spa_cubo.mp3,2020-06-04_21h22.27.233,TranslationElicitation_eng-prolific,3.2.4,Win32,60,5eacad0d05726e33129cbe93,5.085000038,1,0,98,27,1,97
,,,,,,,,,,,,,,,,,,,,,,,,,,,,,,,,,,,,,,,,,,,,,,,,,,,31,cubo,Spanish,Sounds/spa_cubo.mp3,2020-06-04_21h22.27.233,TranslationElicitation_eng-prolific,3.2.4,Win32,60,5eacad0d05726e33129cbe93,,1,0,98,27,1,97
,,,,,,,,,,,,,,,,,,,,,,,,,,,,,,,,,,,,,,,,,b,2.598999977,B,FALSE,,,,,,,11,boton,Spanish,Sounds/spa_boton.mp3,2020-06-04_21h22.27.233,TranslationElicitation_eng-prolific,3.2.4,Win32,60,5eacad0d05726e33129cbe93,,1,0,98,9,1,97
,,,,,,,,,,,,,,,,,,,,,,,,,,,,,,,,,,,,,,,,,a,3.118999958,BA,FALSE,,,,,,,11,boton,Spanish,Sounds/spa_boton.mp3,2020-06-04_21h22.27.233,TranslationElicitation_eng-prolific,3.2.4,Win32,60,5eacad0d05726e33129cbe93,,1,0,98,9,1,97
,,,,,,,,,,,,,,,,,,,,,,,,,,,,,,,,,,,,,,,,,t,3.315000057,BAT,FALSE,,,,,,,11,boton,Spanish,Sounds/spa_boton.mp3,2020-06-04_21h22.27.233,TranslationElicitation_eng-prolific,3.2.4,Win32,60,5eacad0d05726e33129cbe93,,1,0,98,9,1,97
,,,,,,,,,,,,,,,,,,,,,,,,,,,,,,,,,,,,,,,,,o,3.414999962,BATO,FALSE,,,,,,,11,boton,Spanish,Sounds/spa_boton.mp3,2020-06-04_21h22.27.233,TranslationElicitation_eng-prolific,3.2.4,Win32,60,5eacad0d05726e33129cbe93,,1,0,98,9,1,97
,,,,,,,,,,,,,,,,,,,,,,,,,,,,,,,,,,,,,,,,,n,4.681999922,BATON,FALSE,,,,,,,11,boton,Spanish,Sounds/spa_boton.mp3,2020-06-04_21h22.27.233,TranslationElicitation_eng-prolific,3.2.4,Win32,60,5eacad0d05726e33129cbe93,,1,0,98,9,1,97
,,,,,,,,,,,,,,,,,,,,,,,,,,,,,,,,,,,,,,,,,return,4.881999969,BATON,FALSE,,,,,,,11,boton,Spanish,Sounds/spa_boton.mp3,2020-06-04_21h22.27.233,TranslationElicitation_eng-prolific,3.2.4,Win32,60,5eacad0d05726e33129cbe93,4.881999969,1,0,98,9,1,97
,,,,,,,,,,,,,,,,,,,,,,,,,,,,,,,,,,,,,,,,,,,,,,,,,,,11,boton,Spanish,Sounds/spa_boton.mp3,2020-06-04_21h22.27.233,TranslationElicitation_eng-prolific,3.2.4,Win32,60,5eacad0d05726e33129cbe93,,1,0,98,9,1,97
,,,,,,,,,,,,,,,,,,,,,,,,,,,,,,,,,,,,,,,,,g,1.94900012,G,FALSE,,,,,,,47,guitarra,Spanish,Sounds/spa_guitarra.mp3,2020-06-04_21h22.27.233,TranslationElicitation_eng-prolific,3.2.4,Win32,60,5eacad0d05726e33129cbe93,,1,0,98,43,1,97
,,,,,,,,,,,,,,,,,,,,,,,,,,,,,,,,,,,,,,,,,u,2.231000185,GU,FALSE,,,,,,,47,guitarra,Spanish,Sounds/spa_guitarra.mp3,2020-06-04_21h22.27.233,TranslationElicitation_eng-prolific,3.2.4,Win32,60,5eacad0d05726e33129cbe93,,1,0,98,43,1,97
,,,,,,,,,,,,,,,,,,,,,,,,,,,,,,,,,,,,,,,,,i,2.398000002,GUI,FALSE,,,,,,,47,guitarra,Spanish,Sounds/spa_guitarra.mp3,2020-06-04_21h22.27.233,TranslationElicitation_eng-prolific,3.2.4,Win32,60,5eacad0d05726e33129cbe93,,1,0,98,43,1,97
,,,,,,,,,,,,,,,,,,,,,,,,,,,,,,,,,,,,,,,,,t,2.715000153,GUIT,FALSE,,,,,,,47,guitarra,Spanish,Sounds/spa_guitarra.mp3,2020-06-04_21h22.27.233,TranslationElicitation_eng-prolific,3.2.4,Win32,60,5eacad0d05726e33129cbe93,,1,0,98,43,1,97
,,,,,,,,,,,,,,,,,,,,,,,,,,,,,,,,,,,,,,,,,a,2.835000038,GUITA,FALSE,,,,,,,47,guitarra,Spanish,Sounds/spa_guitarra.mp3,2020-06-04_21h22.27.233,TranslationElicitation_eng-prolific,3.2.4,Win32,60,5eacad0d05726e33129cbe93,,1,0,98,43,1,97
,,,,,,,,,,,,,,,,,,,,,,,,,,,,,,,,,,,,,,,,,r,2.982000113,GUITAR,FALSE,,,,,,,47,guitarra,Spanish,Sounds/spa_guitarra.mp3,2020-06-04_21h22.27.233,TranslationElicitation_eng-prolific,3.2.4,Win32,60,5eacad0d05726e33129cbe93,,1,0,98,43,1,97
,,,,,,,,,,,,,,,,,,,,,,,,,,,,,,,,,,,,,,,,,return,3.1650002,GUITAR,FALSE,,,,,,,47,guitarra,Spanish,Sounds/spa_guitarra.mp3,2020-06-04_21h22.27.233,TranslationElicitation_eng-prolific,3.2.4,Win32,60,5eacad0d05726e33129cbe93,3.1650002,1,0,98,43,1,97
,,,,,,,,,,,,,,,,,,,,,,,,,,,,,,,,,,,,,,,,,,,,,,,,,,,47,guitarra,Spanish,Sounds/spa_guitarra.mp3,2020-06-04_21h22.27.233,TranslationElicitation_eng-prolific,3.2.4,Win32,60,5eacad0d05726e33129cbe93,,1,0,98,43,1,97
,,,,,,,,,,,,,,,,,,,,,,,,,,,,,,,,,,,,,,,,,b,1.947999954,B,FALSE,,,,,,,14,burro,Spanish,Sounds/spa_burro.mp3,2020-06-04_21h22.27.233,TranslationElicitation_eng-prolific,3.2.4,Win32,60,5eacad0d05726e33129cbe93,,1,0,98,12,1,97
,,,,,,,,,,,,,,,,,,,,,,,,,,,,,,,,,,,,,,,,,o,2.213999987,BO,FALSE,,,,,,,14,burro,Spanish,Sounds/spa_burro.mp3,2020-06-04_21h22.27.233,TranslationElicitation_eng-prolific,3.2.4,Win32,60,5eacad0d05726e33129cbe93,,1,0,98,12,1,97
,,,,,,,,,,,,,,,,,,,,,,,,,,,,,,,,,,,,,,,,,r,2.346999884,BOR,FALSE,,,,,,,14,burro,Spanish,Sounds/spa_burro.mp3,2020-06-04_21h22.27.233,TranslationElicitation_eng-prolific,3.2.4,Win32,60,5eacad0d05726e33129cbe93,,1,0,98,12,1,97
,,,,,,,,,,,,,,,,,,,,,,,,,,,,,,,,,,,,,,,,,e,2.446999788,BORE,FALSE,,,,,,,14,burro,Spanish,Sounds/spa_burro.mp3,2020-06-04_21h22.27.233,TranslationElicitation_eng-prolific,3.2.4,Win32,60,5eacad0d05726e33129cbe93,,1,0,98,12,1,97
,,,,,,,,,,,,,,,,,,,,,,,,,,,,,,,,,,,,,,,,,d,2.580999851,BORED,FALSE,,,,,,,14,burro,Spanish,Sounds/spa_burro.mp3,2020-06-04_21h22.27.233,TranslationElicitation_eng-prolific,3.2.4,Win32,60,5eacad0d05726e33129cbe93,,1,0,98,12,1,97
,,,,,,,,,,,,,,,,,,,,,,,,,,,,,,,,,,,,,,,,,return,2.682999849,BORED,FALSE,,,,,,,14,burro,Spanish,Sounds/spa_burro.mp3,2020-06-04_21h22.27.233,TranslationElicitation_eng-prolific,3.2.4,Win32,60,5eacad0d05726e33129cbe93,2.682999849,1,0,98,12,1,97
,,,,,,,,,,,,,,,,,,,,,,,,,,,,,,,,,,,,,,,,,,,,,,,,,,,14,burro,Spanish,Sounds/spa_burro.mp3,2020-06-04_21h22.27.233,TranslationElicitation_eng-prolific,3.2.4,Win32,60,5eacad0d05726e33129cbe93,,1,0,98,12,1,97
,,,,,,,,,,,,,,,,,,,,,,,,,,,,,,,,,,,,,,,,,m,2.983999968,M,FALSE,,,,,,,62,martillo,Spanish,Sounds/spa_martillo.mp3,2020-06-04_21h22.27.233,TranslationElicitation_eng-prolific,3.2.4,Win32,60,5eacad0d05726e33129cbe93,,1,0,98,58,1,97
,,,,,,,,,,,,,,,,,,,,,,,,,,,,,,,,,,,,,,,,,a,3.167999983,MA,FALSE,,,,,,,62,martillo,Spanish,Sounds/spa_martillo.mp3,2020-06-04_21h22.27.233,TranslationElicitation_eng-prolific,3.2.4,Win32,60,5eacad0d05726e33129cbe93,,1,0,98,58,1,97
,,,,,,,,,,,,,,,,,,,,,,,,,,,,,,,,,,,,,,,,,r,3.349999905,MAR,FALSE,,,,,,,62,martillo,Spanish,Sounds/spa_martillo.mp3,2020-06-04_21h22.27.233,TranslationElicitation_eng-prolific,3.2.4,Win32,60,5eacad0d05726e33129cbe93,,1,0,98,58,1,97
,,,,,,,,,,,,,,,,,,,,,,,,,,,,,,,,,,,,,,,,,c,3.56799984,MARC,FALSE,,,,,,,62,martillo,Spanish,Sounds/spa_martillo.mp3,2020-06-04_21h22.27.233,TranslationElicitation_eng-prolific,3.2.4,Win32,60,5eacad0d05726e33129cbe93,,1,0,98,58,1,97
,,,,,,,,,,,,,,,,,,,,,,,,,,,,,,,,,,,,,,,,,h,3.733999968,MARCH,FALSE,,,,,,,62,martillo,Spanish,Sounds/spa_martillo.mp3,2020-06-04_21h22.27.233,TranslationElicitation_eng-prolific,3.2.4,Win32,60,5eacad0d05726e33129cbe93,,1,0,98,58,1,97
,,,,,,,,,,,,,,,,,,,,,,,,,,,,,,,,,,,,,,,,,return,3.967999935,MARCH,FALSE,,,,,,,62,martillo,Spanish,Sounds/spa_martillo.mp3,2020-06-04_21h22.27.233,TranslationElicitation_eng-prolific,3.2.4,Win32,60,5eacad0d05726e33129cbe93,3.967999935,1,0,98,58,1,97
,,,,,,,,,,,,,,,,,,,,,,,,,,,,,,,,,,,,,,,,,,,,,,,,,,,62,martillo,Spanish,Sounds/spa_martillo.mp3,2020-06-04_21h22.27.233,TranslationElicitation_eng-prolific,3.2.4,Win32,60,5eacad0d05726e33129cbe93,,1,0,98,58,1,97
,,,,,,,,,,,,,,,,,,,,,,,,,,,,,,,,,,,,,,,,,g,2.55099988,G,FALSE,,,,,,,45,gorro,Spanish,Sounds/spa_gorro.mp3,2020-06-04_21h22.27.233,TranslationElicitation_eng-prolific,3.2.4,Win32,60,5eacad0d05726e33129cbe93,,1,0,98,41,1,97
,,,,,,,,,,,,,,,,,,,,,,,,,,,,,,,,,,,,,,,,,o,3.752999783,GO,FALSE,,,,,,,45,gorro,Spanish,Sounds/spa_gorro.mp3,2020-06-04_21h22.27.233,TranslationElicitation_eng-prolific,3.2.4,Win32,60,5eacad0d05726e33129cbe93,,1,0,98,41,1,97
,,,,,,,,,,,,,,,,,,,,,,,,,,,,,,,,,,,,,,,,,return,4.132999897,GO,FALSE,,,,,,,45,gorro,Spanish,Sounds/spa_gorro.mp3,2020-06-04_21h22.27.233,TranslationElicitation_eng-prolific,3.2.4,Win32,60,5eacad0d05726e33129cbe93,4.132999897,1,0,98,41,1,97
,,,,,,,,,,,,,,,,,,,,,,,,,,,,,,,,,,,,,,,,,,,,,,,,,,,45,gorro,Spanish,Sounds/spa_gorro.mp3,2020-06-04_21h22.27.233,TranslationElicitation_eng-prolific,3.2.4,Win32,60,5eacad0d05726e33129cbe93,,1,0,98,41,1,97
,,,,,,,,,,,,,,,,,,,,,,,,,,,,,,,,,,,,,,,,,l,2.26699996,L,FALSE,,,,,,,48,gusano,Spanish,Sounds/spa_gusano.mp3,2020-06-04_21h22.27.233,TranslationElicitation_eng-prolific,3.2.4,Win32,60,5eacad0d05726e33129cbe93,,1,0,98,44,1,97
,,,,,,,,,,,,,,,,,,,,,,,,,,,,,,,,,,,,,,,,,e,2.516000032,LE,FALSE,,,,,,,48,gusano,Spanish,Sounds/spa_gusano.mp3,2020-06-04_21h22.27.233,TranslationElicitation_eng-prolific,3.2.4,Win32,60,5eacad0d05726e33129cbe93,,1,0,98,44,1,97
,,,,,,,,,,,,,,,,,,,,,,,,,,,,,,,,,,,,,,,,,a,2.636000156,LEA,FALSE,,,,,,,48,gusano,Spanish,Sounds/spa_gusano.mp3,2020-06-04_21h22.27.233,TranslationElicitation_eng-prolific,3.2.4,Win32,60,5eacad0d05726e33129cbe93,,1,0,98,44,1,97
,,,,,,,,,,,,,,,,,,,,,,,,,,,,,,,,,,,,,,,,,v,2.73300004,LEAV,FALSE,,,,,,,48,gusano,Spanish,Sounds/spa_gusano.mp3,2020-06-04_21h22.27.233,TranslationElicitation_eng-prolific,3.2.4,Win32,60,5eacad0d05726e33129cbe93,,1,0,98,44,1,97
,,,,,,,,,,,,,,,,,,,,,,,,,,,,,,,,,,,,,,,,,e,2.916000128,LEAVE,FALSE,,,,,,,48,gusano,Spanish,Sounds/spa_gusano.mp3,2020-06-04_21h22.27.233,TranslationElicitation_eng-prolific,3.2.4,Win32,60,5eacad0d05726e33129cbe93,,1,0,98,44,1,97
,,,,,,,,,,,,,,,,,,,,,,,,,,,,,,,,,,,,,,,,,return,3.433000088,LEAVE,FALSE,,,,,,,48,gusano,Spanish,Sounds/spa_gusano.mp3,2020-06-04_21h22.27.233,TranslationElicitation_eng-prolific,3.2.4,Win32,60,5eacad0d05726e33129cbe93,3.433000088,1,0,98,44,1,97
,,,,,,,,,,,,,,,,,,,,,,,,,,,,,,,,,,,,,,,,,,,,,,,,,,,48,gusano,Spanish,Sounds/spa_gusano.mp3,2020-06-04_21h22.27.233,TranslationElicitation_eng-prolific,3.2.4,Win32,60,5eacad0d05726e33129cbe93,,1,0,98,44,1,97
,,,,,,,,,,,,,,,,,,,,,,,,,,,,,,,,,,,,,,,,,l,2.118000031,L,FALSE,,,,,,,54,lengua,Spanish,Sounds/spa_lengua.mp3,2020-06-04_21h22.27.233,TranslationElicitation_eng-prolific,3.2.4,Win32,60,5eacad0d05726e33129cbe93,,1,0,98,50,1,97
,,,,,,,,,,,,,,,,,,,,,,,,,,,,,,,,,,,,,,,,,e,2.326999903,LE,FALSE,,,,,,,54,lengua,Spanish,Sounds/spa_lengua.mp3,2020-06-04_21h22.27.233,TranslationElicitation_eng-prolific,3.2.4,Win32,60,5eacad0d05726e33129cbe93,,1,0,98,50,1,97
,,,,,,,,,,,,,,,,,,,,,,,,,,,,,,,,,,,,,,,,,backspace,4.953000069,L,TRUE,,,,,,,54,lengua,Spanish,Sounds/spa_lengua.mp3,2020-06-04_21h22.27.233,TranslationElicitation_eng-prolific,3.2.4,Win32,60,5eacad0d05726e33129cbe93,,1,0,98,50,1,97
,,,,,,,,,,,,,,,,,,,,,,,,,,,,,,,,,,,,,,,,,o,5.65199995,LO,TRUE,,,,,,,54,lengua,Spanish,Sounds/spa_lengua.mp3,2020-06-04_21h22.27.233,TranslationElicitation_eng-prolific,3.2.4,Win32,60,5eacad0d05726e33129cbe93,,1,0,98,50,1,97
,,,,,,,,,,,,,,,,,,,,,,,,,,,,,,,,,,,,,,,,,n,5.736000061,LON,TRUE,,,,,,,54,lengua,Spanish,Sounds/spa_lengua.mp3,2020-06-04_21h22.27.233,TranslationElicitation_eng-prolific,3.2.4,Win32,60,5eacad0d05726e33129cbe93,,1,0,98,50,1,97
,,,,,,,,,,,,,,,,,,,,,,,,,,,,,,,,,,,,,,,,,g,5.868999958,LONG,TRUE,,,,,,,54,lengua,Spanish,Sounds/spa_lengua.mp3,2020-06-04_21h22.27.233,TranslationElicitation_eng-prolific,3.2.4,Win32,60,5eacad0d05726e33129cbe93,,1,0,98,50,1,97
,,,,,,,,,,,,,,,,,,,,,,,,,,,,,,,,,,,,,,,,,return,6.605999947,LONG,TRUE,,,,,,,54,lengua,Spanish,Sounds/spa_lengua.mp3,2020-06-04_21h22.27.233,TranslationElicitation_eng-prolific,3.2.4,Win32,60,5eacad0d05726e33129cbe93,6.605999947,1,0,98,50,1,97
,,,,,,,,,,,,,,,,,,,,,,,,,,,,,,,,,,,,,,,,,,,,,,,,,,,54,lengua,Spanish,Sounds/spa_lengua.mp3,2020-06-04_21h22.27.233,TranslationElicitation_eng-prolific,3.2.4,Win32,60,5eacad0d05726e33129cbe93,,1,0,98,50,1,97
,,,,,,,,,,,,,,,,,,,,,,,,,,,,,,,,,,,,,,,,,b,3.610000134,B,FALSE,,,,,,,5,bici,Spanish,Sounds/spa_bici.mp3,2020-06-04_21h22.27.233,TranslationElicitation_eng-prolific,3.2.4,Win32,60,5eacad0d05726e33129cbe93,,1,0,98,3,1,97
,,,,,,,,,,,,,,,,,,,,,,,,,,,,,,,,,,,,,,,,,e,3.847000122,BE,FALSE,,,,,,,5,bici,Spanish,Sounds/spa_bici.mp3,2020-06-04_21h22.27.233,TranslationElicitation_eng-prolific,3.2.4,Win32,60,5eacad0d05726e33129cbe93,,1,0,98,3,1,97
,,,,,,,,,,,,,,,,,,,,,,,,,,,,,,,,,,,,,,,,,i,4.131000042,BEI,FALSE,,,,,,,5,bici,Spanish,Sounds/spa_bici.mp3,2020-06-04_21h22.27.233,TranslationElicitation_eng-prolific,3.2.4,Win32,60,5eacad0d05726e33129cbe93,,1,0,98,3,1,97
,,,,,,,,,,,,,,,,,,,,,,,,,,,,,,,,,,,,,,,,,n,4.248000145,BEIN,FALSE,,,,,,,5,bici,Spanish,Sounds/spa_bici.mp3,2020-06-04_21h22.27.233,TranslationElicitation_eng-prolific,3.2.4,Win32,60,5eacad0d05726e33129cbe93,,1,0,98,3,1,97
,,,,,,,,,,,,,,,,,,,,,,,,,,,,,,,,,,,,,,,,,g,4.954999924,BEING,FALSE,,,,,,,5,bici,Spanish,Sounds/spa_bici.mp3,2020-06-04_21h22.27.233,TranslationElicitation_eng-prolific,3.2.4,Win32,60,5eacad0d05726e33129cbe93,,1,0,98,3,1,97
,,,,,,,,,,,,,,,,,,,,,,,,,,,,,,,,,,,,,,,,,return,5.338000059,BEING,FALSE,,,,,,,5,bici,Spanish,Sounds/spa_bici.mp3,2020-06-04_21h22.27.233,TranslationElicitation_eng-prolific,3.2.4,Win32,60,5eacad0d05726e33129cbe93,5.338000059,1,0,98,3,1,97
,,,,,,,,,,,,,,,,,,,,,,,,,,,,,,,,,,,,,,,,,,,,,,,,,,,5,bici,Spanish,Sounds/spa_bici.mp3,2020-06-04_21h22.27.233,TranslationElicitation_eng-prolific,3.2.4,Win32,60,5eacad0d05726e33129cbe93,,1,0,98,3,1,97
,,,,,,,,,,,,,,,,,,,,,,,,,,,,,,,,,,,,,,,,,t,4.128000021,T,FALSE,,,,,,,97,tijeras,Spanish,Sounds/spa_tijeras.mp3,2020-06-04_21h22.27.233,TranslationElicitation_eng-prolific,3.2.4,Win32,60,5eacad0d05726e33129cbe93,,1,0,98,91,1,97
,,,,,,,,,,,,,,,,,,,,,,,,,,,,,,,,,,,,,,,,,h,4.460000038,TH,FALSE,,,,,,,97,tijeras,Spanish,Sounds/spa_tijeras.mp3,2020-06-04_21h22.27.233,TranslationElicitation_eng-prolific,3.2.4,Win32,60,5eacad0d05726e33129cbe93,,1,0,98,91,1,97
,,,,,,,,,,,,,,,,,,,,,,,,,,,,,,,,,,,,,,,,,i,4.585000038,THI,FALSE,,,,,,,97,tijeras,Spanish,Sounds/spa_tijeras.mp3,2020-06-04_21h22.27.233,TranslationElicitation_eng-prolific,3.2.4,Win32,60,5eacad0d05726e33129cbe93,,1,0,98,91,1,97
,,,,,,,,,,,,,,,,,,,,,,,,,,,,,,,,,,,,,,,,,n,5.843999863,THIN,FALSE,,,,,,,97,tijeras,Spanish,Sounds/spa_tijeras.mp3,2020-06-04_21h22.27.233,TranslationElicitation_eng-prolific,3.2.4,Win32,60,5eacad0d05726e33129cbe93,,1,0,98,91,1,97
,,,,,,,,,,,,,,,,,,,,,,,,,,,,,,,,,,,,,,,,,k,5.993000031,THINK,FALSE,,,,,,,97,tijeras,Spanish,Sounds/spa_tijeras.mp3,2020-06-04_21h22.27.233,TranslationElicitation_eng-prolific,3.2.4,Win32,60,5eacad0d05726e33129cbe93,,1,0,98,91,1,97
,,,,,,,,,,,,,,,,,,,,,,,,,,,,,,,,,,,,,,,,,return,6.56099987,THINK,FALSE,,,,,,,97,tijeras,Spanish,Sounds/spa_tijeras.mp3,2020-06-04_21h22.27.233,TranslationElicitation_eng-prolific,3.2.4,Win32,60,5eacad0d05726e33129cbe93,6.56099987,1,0,98,91,1,97
,,,,,,,,,,,,,,,,,,,,,,,,,,,,,,,,,,,,,,,,,,,,,,,,,,,97,tijeras,Spanish,Sounds/spa_tijeras.mp3,2020-06-04_21h22.27.233,TranslationElicitation_eng-prolific,3.2.4,Win32,60,5eacad0d05726e33129cbe93,,1,0,98,91,1,97
,,,,,,,,,,,,,,,,,,,,,,,,,,,,,,,,,,,,,,,,,s,2.450000048,S,FALSE,,,,,,,36,estrella,Spanish,Sounds/spa_estrella.mp3,2020-06-04_21h22.27.233,TranslationElicitation_eng-prolific,3.2.4,Win32,60,5eacad0d05726e33129cbe93,,1,0,98,32,1,97
,,,,,,,,,,,,,,,,,,,,,,,,,,,,,,,,,,,,,,,,,t,2.632000208,ST,FALSE,,,,,,,36,estrella,Spanish,Sounds/spa_estrella.mp3,2020-06-04_21h22.27.233,TranslationElicitation_eng-prolific,3.2.4,Win32,60,5eacad0d05726e33129cbe93,,1,0,98,32,1,97
,,,,,,,,,,,,,,,,,,,,,,,,,,,,,,,,,,,,,,,,,r,2.84800005,STR,FALSE,,,,,,,36,estrella,Spanish,Sounds/spa_estrella.mp3,2020-06-04_21h22.27.233,TranslationElicitation_eng-prolific,3.2.4,Win32,60,5eacad0d05726e33129cbe93,,1,0,98,32,1,97
,,,,,,,,,,,,,,,,,,,,,,,,,,,,,,,,,,,,,,,,,a,2.968000174,STRA,FALSE,,,,,,,36,estrella,Spanish,Sounds/spa_estrella.mp3,2020-06-04_21h22.27.233,TranslationElicitation_eng-prolific,3.2.4,Win32,60,5eacad0d05726e33129cbe93,,1,0,98,32,1,97
,,,,,,,,,,,,,,,,,,,,,,,,,,,,,,,,,,,,,,,,,y,3.18200016,STRAY,FALSE,,,,,,,36,estrella,Spanish,Sounds/spa_estrella.mp3,2020-06-04_21h22.27.233,TranslationElicitation_eng-prolific,3.2.4,Win32,60,5eacad0d05726e33129cbe93,,1,0,98,32,1,97
,,,,,,,,,,,,,,,,,,,,,,,,,,,,,,,,,,,,,,,,,return,3.498000145,STRAY,FALSE,,,,,,,36,estrella,Spanish,Sounds/spa_estrella.mp3,2020-06-04_21h22.27.233,TranslationElicitation_eng-prolific,3.2.4,Win32,60,5eacad0d05726e33129cbe93,3.498000145,1,0,98,32,1,97
,,,,,,,,,,,,,,,,,,,,,,,,,,,,,,,,,,,,,,,,,,,,,,,,,,,36,estrella,Spanish,Sounds/spa_estrella.mp3,2020-06-04_21h22.27.233,TranslationElicitation_eng-prolific,3.2.4,Win32,60,5eacad0d05726e33129cbe93,,1,0,98,32,1,97
,,,,,,,,,,,,,,,,,,,,,,,,,,,,,,,,,,,,,,,,,b,1.73300004,B,FALSE,,,,,,,13,buho,Spanish,Sounds/spa_buho.mp3,2020-06-04_21h22.27.233,TranslationElicitation_eng-prolific,3.2.4,Win32,60,5eacad0d05726e33129cbe93,,1,0,98,11,1,97
,,,,,,,,,,,,,,,,,,,,,,,,,,,,,,,,,,,,,,,,,o,1.950000048,BO,FALSE,,,,,,,13,buho,Spanish,Sounds/spa_buho.mp3,2020-06-04_21h22.27.233,TranslationElicitation_eng-prolific,3.2.4,Win32,60,5eacad0d05726e33129cbe93,,1,0,98,11,1,97
,,,,,,,,,,,,,,,,,,,,,,,,,,,,,,,,,,,,,,,,,r,2.06799984,BOR,FALSE,,,,,,,13,buho,Spanish,Sounds/spa_buho.mp3,2020-06-04_21h22.27.233,TranslationElicitation_eng-prolific,3.2.4,Win32,60,5eacad0d05726e33129cbe93,,1,0,98,11,1,97
,,,,,,,,,,,,,,,,,,,,,,,,,,,,,,,,,,,,,,,,,e,2.266000032,BORE,FALSE,,,,,,,13,buho,Spanish,Sounds/spa_buho.mp3,2020-06-04_21h22.27.233,TranslationElicitation_eng-prolific,3.2.4,Win32,60,5eacad0d05726e33129cbe93,,1,0,98,11,1,97
,,,,,,,,,,,,,,,,,,,,,,,,,,,,,,,,,,,,,,,,,d,2.448999882,BORED,FALSE,,,,,,,13,buho,Spanish,Sounds/spa_buho.mp3,2020-06-04_21h22.27.233,TranslationElicitation_eng-prolific,3.2.4,Win32,60,5eacad0d05726e33129cbe93,,1,0,98,11,1,97
,,,,,,,,,,,,,,,,,,,,,,,,,,,,,,,,,,,,,,,,,return,2.582000017,BORED,FALSE,,,,,,,13,buho,Spanish,Sounds/spa_buho.mp3,2020-06-04_21h22.27.233,TranslationElicitation_eng-prolific,3.2.4,Win32,60,5eacad0d05726e33129cbe93,2.582000017,1,0,98,11,1,97
,,,,,,,,,,,,,,,,,,,,,,,,,,,,,,,,,,,,,,,,,,,,,,,,,,,13,buho,Spanish,Sounds/spa_buho.mp3,2020-06-04_21h22.27.233,TranslationElicitation_eng-prolific,3.2.4,Win32,60,5eacad0d05726e33129cbe93,,1,0,98,11,1,97
,,,,,,,,,,,,,,,,,,,,,,,,,,,,,,,,,,,,,,,,,b,5.115999937,B,FALSE,,,,,,,102,ventana,Spanish,Sounds/spa_ventana.mp3,2020-06-04_21h22.27.233,TranslationElicitation_eng-prolific,3.2.4,Win32,60,5eacad0d05726e33129cbe93,,1,0,98,96,1,97
,,,,,,,,,,,,,,,,,,,,,,,,,,,,,,,,,,,,,,,,,e,5.299000025,BE,FALSE,,,,,,,102,ventana,Spanish,Sounds/spa_ventana.mp3,2020-06-04_21h22.27.233,TranslationElicitation_eng-prolific,3.2.4,Win32,60,5eacad0d05726e33129cbe93,,1,0,98,96,1,97
,,,,,,,,,,,,,,,,,,,,,,,,,,,,,,,,,,,,,,,,,n,5.482000113,BEN,FALSE,,,,,,,102,ventana,Spanish,Sounds/spa_ventana.mp3,2020-06-04_21h22.27.233,TranslationElicitation_eng-prolific,3.2.4,Win32,60,5eacad0d05726e33129cbe93,,1,0,98,96,1,97
,,,,,,,,,,,,,,,,,,,,,,,,,,,,,,,,,,,,,,,,,d,5.667999983,BEND,FALSE,,,,,,,102,ventana,Spanish,Sounds/spa_ventana.mp3,2020-06-04_21h22.27.233,TranslationElicitation_eng-prolific,3.2.4,Win32,60,5eacad0d05726e33129cbe93,,1,0,98,96,1,97
,,,,,,,,,,,,,,,,,,,,,,,,,,,,,,,,,,,,,,,,,return,5.884000063,BEND,FALSE,,,,,,,102,ventana,Spanish,Sounds/spa_ventana.mp3,2020-06-04_21h22.27.233,TranslationElicitation_eng-prolific,3.2.4,Win32,60,5eacad0d05726e33129cbe93,5.884000063,1,0,98,96,1,97
,,,,,,,,,,,,,,,,,,,,,,,,,,,,,,,,,,,,,,,,,,,,,,,,,,,102,ventana,Spanish,Sounds/spa_ventana.mp3,2020-06-04_21h22.27.233,TranslationElicitation_eng-prolific,3.2.4,Win32,60,5eacad0d05726e33129cbe93,,1,0,98,96,1,97
,,,,,,,,,,,,,,,,,,,,,,,,,,,,,,,,,,,,,,,,,c,1.618000031,C,FALSE,,,,,,,29,coche,Spanish,Sounds/spa_coche.mp3,2020-06-04_21h22.27.233,TranslationElicitation_eng-prolific,3.2.4,Win32,60,5eacad0d05726e33129cbe93,,1,0,98,26,1,97
,,,,,,,,,,,,,,,,,,,,,,,,,,,,,,,,,,,,,,,,,o,2.613999844,CO,FALSE,,,,,,,29,coche,Spanish,Sounds/spa_coche.mp3,2020-06-04_21h22.27.233,TranslationElicitation_eng-prolific,3.2.4,Win32,60,5eacad0d05726e33129cbe93,,1,0,98,26,1,97
,,,,,,,,,,,,,,,,,,,,,,,,,,,,,,,,,,,,,,,,,o,2.813999891,COO,FALSE,,,,,,,29,coche,Spanish,Sounds/spa_coche.mp3,2020-06-04_21h22.27.233,TranslationElicitation_eng-prolific,3.2.4,Win32,60,5eacad0d05726e33129cbe93,,1,0,98,26,1,97
,,,,,,,,,,,,,,,,,,,,,,,,,,,,,,,,,,,,,,,,,k,2.930999994,COOK,FALSE,,,,,,,29,coche,Spanish,Sounds/spa_coche.mp3,2020-06-04_21h22.27.233,TranslationElicitation_eng-prolific,3.2.4,Win32,60,5eacad0d05726e33129cbe93,,1,0,98,26,1,97
,,,,,,,,,,,,,,,,,,,,,,,,,,,,,,,,,,,,,,,,,return,3.280999899,COOK,FALSE,,,,,,,29,coche,Spanish,Sounds/spa_coche.mp3,2020-06-04_21h22.27.233,TranslationElicitation_eng-prolific,3.2.4,Win32,60,5eacad0d05726e33129cbe93,3.280999899,1,0,98,26,1,97
,,,,,,,,,,,,,,,,,,,,,,,,,,,,,,,,,,,,,,,,,,,,,,,,,,,29,coche,Spanish,Sounds/spa_coche.mp3,2020-06-04_21h22.27.233,TranslationElicitation_eng-prolific,3.2.4,Win32,60,5eacad0d05726e33129cbe93,,1,0,98,26,1,97
,,,,,,,,,,,,,,,,,,,,,,,,,,,,,,,,,,,,,,,,,m,1.467000008,M,FALSE,,,,,,,66,moto,Spanish,Sounds/spa_moto.mp3,2020-06-04_21h22.27.233,TranslationElicitation_eng-prolific,3.2.4,Win32,60,5eacad0d05726e33129cbe93,,1,0,98,62,1,97
,,,,,,,,,,,,,,,,,,,,,,,,,,,,,,,,,,,,,,,,,a,2.433000088,MA,FALSE,,,,,,,66,moto,Spanish,Sounds/spa_moto.mp3,2020-06-04_21h22.27.233,TranslationElicitation_eng-prolific,3.2.4,Win32,60,5eacad0d05726e33129cbe93,,1,0,98,62,1,97
,,,,,,,,,,,,,,,,,,,,,,,,,,,,,,,,,,,,,,,,,r,2.738000154,MAR,FALSE,,,,,,,66,moto,Spanish,Sounds/spa_moto.mp3,2020-06-04_21h22.27.233,TranslationElicitation_eng-prolific,3.2.4,Win32,60,5eacad0d05726e33129cbe93,,1,0,98,62,1,97
,,,,,,,,,,,,,,,,,,,,,,,,,,,,,,,,,,,,,,,,,r,2.837000132,MARR,FALSE,,,,,,,66,moto,Spanish,Sounds/spa_moto.mp3,2020-06-04_21h22.27.233,TranslationElicitation_eng-prolific,3.2.4,Win32,60,5eacad0d05726e33129cbe93,,1,0,98,62,1,97
,,,,,,,,,,,,,,,,,,,,,,,,,,,,,,,,,,,,,,,,,i,2.950000048,MARRI,FALSE,,,,,,,66,moto,Spanish,Sounds/spa_moto.mp3,2020-06-04_21h22.27.233,TranslationElicitation_eng-prolific,3.2.4,Win32,60,5eacad0d05726e33129cbe93,,1,0,98,62,1,97
,,,,,,,,,,,,,,,,,,,,,,,,,,,,,,,,,,,,,,,,,e,3.050000191,MARRIE,FALSE,,,,,,,66,moto,Spanish,Sounds/spa_moto.mp3,2020-06-04_21h22.27.233,TranslationElicitation_eng-prolific,3.2.4,Win32,60,5eacad0d05726e33129cbe93,,1,0,98,62,1,97
,,,,,,,,,,,,,,,,,,,,,,,,,,,,,,,,,,,,,,,,,d,3.220000029,MARRIED,FALSE,,,,,,,66,moto,Spanish,Sounds/spa_moto.mp3,2020-06-04_21h22.27.233,TranslationElicitation_eng-prolific,3.2.4,Win32,60,5eacad0d05726e33129cbe93,,1,0,98,62,1,97
,,,,,,,,,,,,,,,,,,,,,,,,,,,,,,,,,,,,,,,,,return,3.411000013,MARRIED,FALSE,,,,,,,66,moto,Spanish,Sounds/spa_moto.mp3,2020-06-04_21h22.27.233,TranslationElicitation_eng-prolific,3.2.4,Win32,60,5eacad0d05726e33129cbe93,3.411000013,1,0,98,62,1,97
,,,,,,,,,,,,,,,,,,,,,,,,,,,,,,,,,,,,,,,,,,,,,,,,,,,66,moto,Spanish,Sounds/spa_moto.mp3,2020-06-04_21h22.27.233,TranslationElicitation_eng-prolific,3.2.4,Win32,60,5eacad0d05726e33129cbe93,,1,0,98,62,1,97
,,,,,,,,,,,,,,,,,,,,,,,,,,,,,,,,,,,,,,,,,b,1.900000095,B,FALSE,,,,,,,8,bol,Spanish,Sounds/spa_bol.mp3,2020-06-04_21h22.27.233,TranslationElicitation_eng-prolific,3.2.4,Win32,60,5eacad0d05726e33129cbe93,,1,0,98,6,1,97
,,,,,,,,,,,,,,,,,,,,,,,,,,,,,,,,,,,,,,,,,a,2.483999968,BA,FALSE,,,,,,,8,bol,Spanish,Sounds/spa_bol.mp3,2020-06-04_21h22.27.233,TranslationElicitation_eng-prolific,3.2.4,Win32,60,5eacad0d05726e33129cbe93,,1,0,98,6,1,97
,,,,,,,,,,,,,,,,,,,,,,,,,,,,,,,,,,,,,,,,,l,2.674000025,BAL,FALSE,,,,,,,8,bol,Spanish,Sounds/spa_bol.mp3,2020-06-04_21h22.27.233,TranslationElicitation_eng-prolific,3.2.4,Win32,60,5eacad0d05726e33129cbe93,,1,0,98,6,1,97
,,,,,,,,,,,,,,,,,,,,,,,,,,,,,,,,,,,,,,,,,l,2.809000015,BALL,FALSE,,,,,,,8,bol,Spanish,Sounds/spa_bol.mp3,2020-06-04_21h22.27.233,TranslationElicitation_eng-prolific,3.2.4,Win32,60,5eacad0d05726e33129cbe93,,1,0,98,6,1,97
,,,,,,,,,,,,,,,,,,,,,,,,,,,,,,,,,,,,,,,,,return,3.134000063,BALL,FALSE,,,,,,,8,bol,Spanish,Sounds/spa_bol.mp3,2020-06-04_21h22.27.233,TranslationElicitation_eng-prolific,3.2.4,Win32,60,5eacad0d05726e33129cbe93,3.134000063,1,0,98,6,1,97
,,,,,,,,,,,,,,,,,,,,,,,,,,,,,,,,,,,,,,,,,,,,,,,,,,,8,bol,Spanish,Sounds/spa_bol.mp3,2020-06-04_21h22.27.233,TranslationElicitation_eng-prolific,3.2.4,Win32,60,5eacad0d05726e33129cbe93,,1,0,98,6,1,97
,,,,,,,,,,,,,,,,,,,,,,,,,,,,,,,,,,,,,,,,,c,1.63499999,C,FALSE,,,,,,,41,gallina,Spanish,Sounds/spa_gallina.mp3,2020-06-04_21h22.27.233,TranslationElicitation_eng-prolific,3.2.4,Win32,60,5eacad0d05726e33129cbe93,,1,0,98,37,1,97
,,,,,,,,,,,,,,,,,,,,,,,,,,,,,,,,,,,,,,,,,backspace,2.099999905,,TRUE,,,,,,,41,gallina,Spanish,Sounds/spa_gallina.mp3,2020-06-04_21h22.27.233,TranslationElicitation_eng-prolific,3.2.4,Win32,60,5eacad0d05726e33129cbe93,,1,0,98,37,1,97
,,,,,,,,,,,,,,,,,,,,,,,,,,,,,,,,,,,,,,,,,h,2.549999952,H,TRUE,,,,,,,41,gallina,Spanish,Sounds/spa_gallina.mp3,2020-06-04_21h22.27.233,TranslationElicitation_eng-prolific,3.2.4,Win32,60,5eacad0d05726e33129cbe93,,1,0,98,37,1,97
,,,,,,,,,,,,,,,,,,,,,,,,,,,,,,,,,,,,,,,,,y,2.75,HY,TRUE,,,,,,,41,gallina,Spanish,Sounds/spa_gallina.mp3,2020-06-04_21h22.27.233,TranslationElicitation_eng-prolific,3.2.4,Win32,60,5eacad0d05726e33129cbe93,,1,0,98,37,1,97
,,,,,,,,,,,,,,,,,,,,,,,,,,,,,,,,,,,,,,,,,e,2.967999935,HYE,TRUE,,,,,,,41,gallina,Spanish,Sounds/spa_gallina.mp3,2020-06-04_21h22.27.233,TranslationElicitation_eng-prolific,3.2.4,Win32,60,5eacad0d05726e33129cbe93,,1,0,98,37,1,97
,,,,,,,,,,,,,,,,,,,,,,,,,,,,,,,,,,,,,,,,,n,3.332999945,HYEN,TRUE,,,,,,,41,gallina,Spanish,Sounds/spa_gallina.mp3,2020-06-04_21h22.27.233,TranslationElicitation_eng-prolific,3.2.4,Win32,60,5eacad0d05726e33129cbe93,,1,0,98,37,1,97
,,,,,,,,,,,,,,,,,,,,,,,,,,,,,,,,,,,,,,,,,n,3.717000008,HYENN,TRUE,,,,,,,41,gallina,Spanish,Sounds/spa_gallina.mp3,2020-06-04_21h22.27.233,TranslationElicitation_eng-prolific,3.2.4,Win32,60,5eacad0d05726e33129cbe93,,1,0,98,37,1,97
,,,,,,,,,,,,,,,,,,,,,,,,,,,,,,,,,,,,,,,,,a,3.901000023,HYENNA,TRUE,,,,,,,41,gallina,Spanish,Sounds/spa_gallina.mp3,2020-06-04_21h22.27.233,TranslationElicitation_eng-prolific,3.2.4,Win32,60,5eacad0d05726e33129cbe93,,1,0,98,37,1,97
,,,,,,,,,,,,,,,,,,,,,,,,,,,,,,,,,,,,,,,,,return,4.340999842,HYENNA,TRUE,,,,,,,41,gallina,Spanish,Sounds/spa_gallina.mp3,2020-06-04_21h22.27.233,TranslationElicitation_eng-prolific,3.2.4,Win32,60,5eacad0d05726e33129cbe93,4.340999842,1,0,98,37,1,97
,,,,,,,,,,,,,,,,,,,,,,,,,,,,,,,,,,,,,,,,,,,,,,,,,,,41,gallina,Spanish,Sounds/spa_gallina.mp3,2020-06-04_21h22.27.233,TranslationElicitation_eng-prolific,3.2.4,Win32,60,5eacad0d05726e33129cbe93,,1,0,98,37,1,97
,,,,,,,,,,,,,,,,,,,,,,,,,,,,,,,,,,,,,,,,,p,1.463999987,P,FALSE,,,,,,,84,pie,Spanish,Sounds/spa_pie.mp3,2020-06-04_21h22.27.233,TranslationElicitation_eng-prolific,3.2.4,Win32,60,5eacad0d05726e33129cbe93,,1,0,98,79,1,97
,,,,,,,,,,,,,,,,,,,,,,,,,,,,,,,,,,,,,,,,,l,2.298000097,PL,FALSE,,,,,,,84,pie,Spanish,Sounds/spa_pie.mp3,2020-06-04_21h22.27.233,TranslationElicitation_eng-prolific,3.2.4,Win32,60,5eacad0d05726e33129cbe93,,1,0,98,79,1,97
,,,,,,,,,,,,,,,,,,,,,,,,,,,,,,,,,,,,,,,,,a,2.398999929,PLA,FALSE,,,,,,,84,pie,Spanish,Sounds/spa_pie.mp3,2020-06-04_21h22.27.233,TranslationElicitation_eng-prolific,3.2.4,Win32,60,5eacad0d05726e33129cbe93,,1,0,98,79,1,97
,,,,,,,,,,,,,,,,,,,,,,,,,,,,,,,,,,,,,,,,,y,2.563999891,PLAY,FALSE,,,,,,,84,pie,Spanish,Sounds/spa_pie.mp3,2020-06-04_21h22.27.233,TranslationElicitation_eng-prolific,3.2.4,Win32,60,5eacad0d05726e33129cbe93,,1,0,98,79,1,97
,,,,,,,,,,,,,,,,,,,,,,,,,,,,,,,,,,,,,,,,,return,2.763999939,PLAY,FALSE,,,,,,,84,pie,Spanish,Sounds/spa_pie.mp3,2020-06-04_21h22.27.233,TranslationElicitation_eng-prolific,3.2.4,Win32,60,5eacad0d05726e33129cbe93,2.763999939,1,0,98,79,1,97
,,,,,,,,,,,,,,,,,,,,,,,,,,,,,,,,,,,,,,,,,,,,,,,,,,,84,pie,Spanish,Sounds/spa_pie.mp3,2020-06-04_21h22.27.233,TranslationElicitation_eng-prolific,3.2.4,Win32,60,5eacad0d05726e33129cbe93,,1,0,98,79,1,97
,,,,,,,,,,,,,,,,,,,,,,,,,,,,,,,,,,,,,,,,,p,2.865999937,P,FALSE,,,,,,,81,pelota,Spanish,Sounds/spa_pelota.mp3,2020-06-04_21h22.27.233,TranslationElicitation_eng-prolific,3.2.4,Win32,60,5eacad0d05726e33129cbe93,,1,0,98,76,1,97
,,,,,,,,,,,,,,,,,,,,,,,,,,,,,,,,,,,,,,,,,i,3.450999975,PI,FALSE,,,,,,,81,pelota,Spanish,Sounds/spa_pelota.mp3,2020-06-04_21h22.27.233,TranslationElicitation_eng-prolific,3.2.4,Win32,60,5eacad0d05726e33129cbe93,,1,0,98,76,1,97
,,,,,,,,,,,,,,,,,,,,,,,,,,,,,,,,,,,,,,,,,a,3.566999912,PIA,FALSE,,,,,,,81,pelota,Spanish,Sounds/spa_pelota.mp3,2020-06-04_21h22.27.233,TranslationElicitation_eng-prolific,3.2.4,Win32,60,5eacad0d05726e33129cbe93,,1,0,98,76,1,97
,,,,,,,,,,,,,,,,,,,,,,,,,,,,,,,,,,,,,,,,,n,3.735999823,PIAN,FALSE,,,,,,,81,pelota,Spanish,Sounds/spa_pelota.mp3,2020-06-04_21h22.27.233,TranslationElicitation_eng-prolific,3.2.4,Win32,60,5eacad0d05726e33129cbe93,,1,0,98,76,1,97
,,,,,,,,,,,,,,,,,,,,,,,,,,,,,,,,,,,,,,,,,o,3.782999992,PIANO,FALSE,,,,,,,81,pelota,Spanish,Sounds/spa_pelota.mp3,2020-06-04_21h22.27.233,TranslationElicitation_eng-prolific,3.2.4,Win32,60,5eacad0d05726e33129cbe93,,1,0,98,76,1,97
,,,,,,,,,,,,,,,,,,,,,,,,,,,,,,,,,,,,,,,,,return,4.065999985,PIANO,FALSE,,,,,,,81,pelota,Spanish,Sounds/spa_pelota.mp3,2020-06-04_21h22.27.233,TranslationElicitation_eng-prolific,3.2.4,Win32,60,5eacad0d05726e33129cbe93,4.065999985,1,0,98,76,1,97
,,,,,,,,,,,,,,,,,,,,,,,,,,,,,,,,,,,,,,,,,,,,,,,,,,,81,pelota,Spanish,Sounds/spa_pelota.mp3,2020-06-04_21h22.27.233,TranslationElicitation_eng-prolific,3.2.4,Win32,60,5eacad0d05726e33129cbe93,,1,0,98,76,1,97
,,,,,,,,,,,,,,,,,,,,,,,,,,,,,,,,,,,,,,,,,g,1.437999964,G,FALSE,,,,,,,32,cuchara,Spanish,Sounds/spa_cuchara.mp3,2020-06-04_21h22.27.233,TranslationElicitation_eng-prolific,3.2.4,Win32,60,5eacad0d05726e33129cbe93,,1,0,98,28,1,97
,,,,,,,,,,,,,,,,,,,,,,,,,,,,,,,,,,,,,,,,,u,1.700000048,GU,FALSE,,,,,,,32,cuchara,Spanish,Sounds/spa_cuchara.mp3,2020-06-04_21h22.27.233,TranslationElicitation_eng-prolific,3.2.4,Win32,60,5eacad0d05726e33129cbe93,,1,0,98,28,1,97
,,,,,,,,,,,,,,,,,,,,,,,,,,,,,,,,,,,,,,,,,i,1.73300004,GUI,FALSE,,,,,,,32,cuchara,Spanish,Sounds/spa_cuchara.mp3,2020-06-04_21h22.27.233,TranslationElicitation_eng-prolific,3.2.4,Win32,60,5eacad0d05726e33129cbe93,,1,0,98,28,1,97
,,,,,,,,,,,,,,,,,,,,,,,,,,,,,,,,,,,,,,,,,t,1.999000072,GUIT,FALSE,,,,,,,32,cuchara,Spanish,Sounds/spa_cuchara.mp3,2020-06-04_21h22.27.233,TranslationElicitation_eng-prolific,3.2.4,Win32,60,5eacad0d05726e33129cbe93,,1,0,98,28,1,97
,,,,,,,,,,,,,,,,,,,,,,,,,,,,,,,,,,,,,,,,,a,2.102999926,GUITA,FALSE,,,,,,,32,cuchara,Spanish,Sounds/spa_cuchara.mp3,2020-06-04_21h22.27.233,TranslationElicitation_eng-prolific,3.2.4,Win32,60,5eacad0d05726e33129cbe93,,1,0,98,28,1,97
,,,,,,,,,,,,,,,,,,,,,,,,,,,,,,,,,,,,,,,,,r,2.306999922,GUITAR,FALSE,,,,,,,32,cuchara,Spanish,Sounds/spa_cuchara.mp3,2020-06-04_21h22.27.233,TranslationElicitation_eng-prolific,3.2.4,Win32,60,5eacad0d05726e33129cbe93,,1,0,98,28,1,97
,,,,,,,,,,,,,,,,,,,,,,,,,,,,,,,,,,,,,,,,,return,2.598999977,GUITAR,FALSE,,,,,,,32,cuchara,Spanish,Sounds/spa_cuchara.mp3,2020-06-04_21h22.27.233,TranslationElicitation_eng-prolific,3.2.4,Win32,60,5eacad0d05726e33129cbe93,2.598999977,1,0,98,28,1,97
,,,,,,,,,,,,,,,,,,,,,,,,,,,,,,,,,,,,,,,,,,,,,,,,,,,32,cuchara,Spanish,Sounds/spa_cuchara.mp3,2020-06-04_21h22.27.233,TranslationElicitation_eng-prolific,3.2.4,Win32,60,5eacad0d05726e33129cbe93,,1,0,98,28,1,97
,,,,,,,,,,,,,,,,,,,,,,,,,,,,,,,,,,,,,,,,,p,2.781999826,P,FALSE,,,,,,,86,pingino,Spanish,Sounds/spa_pinguino.mp3,2020-06-04_21h22.27.233,TranslationElicitation_eng-prolific,3.2.4,Win32,60,5eacad0d05726e33129cbe93,,1,0,98,81,1,97
,,,,,,,,,,,,,,,,,,,,,,,,,,,,,,,,,,,,,,,,,a,3.031999826,PA,FALSE,,,,,,,86,pingino,Spanish,Sounds/spa_pinguino.mp3,2020-06-04_21h22.27.233,TranslationElicitation_eng-prolific,3.2.4,Win32,60,5eacad0d05726e33129cbe93,,1,0,98,81,1,97
,,,,,,,,,,,,,,,,,,,,,,,,,,,,,,,,,,,,,,,,,s,3.102999926,PAS,FALSE,,,,,,,86,pingino,Spanish,Sounds/spa_pinguino.mp3,2020-06-04_21h22.27.233,TranslationElicitation_eng-prolific,3.2.4,Win32,60,5eacad0d05726e33129cbe93,,1,0,98,81,1,97
,,,,,,,,,,,,,,,,,,,,,,,,,,,,,,,,,,,,,,,,,t,3.251999855,PAST,FALSE,,,,,,,86,pingino,Spanish,Sounds/spa_pinguino.mp3,2020-06-04_21h22.27.233,TranslationElicitation_eng-prolific,3.2.4,Win32,60,5eacad0d05726e33129cbe93,,1,0,98,81,1,97
,,,,,,,,,,,,,,,,,,,,,,,,,,,,,,,,,,,,,,,,,a,3.39199996,PASTA,FALSE,,,,,,,86,pingino,Spanish,Sounds/spa_pinguino.mp3,2020-06-04_21h22.27.233,TranslationElicitation_eng-prolific,3.2.4,Win32,60,5eacad0d05726e33129cbe93,,1,0,98,81,1,97
,,,,,,,,,,,,,,,,,,,,,,,,,,,,,,,,,,,,,,,,,return,3.580999851,PASTA,FALSE,,,,,,,86,pingino,Spanish,Sounds/spa_pinguino.mp3,2020-06-04_21h22.27.233,TranslationElicitation_eng-prolific,3.2.4,Win32,60,5eacad0d05726e33129cbe93,3.580999851,1,0,98,81,1,97
,,,,,,,,,,,,,,,,,,,,,,,,,,,,,,,,,,,,,,,,,,,,,,,,,,,86,pingino,Spanish,Sounds/spa_pinguino.mp3,2020-06-04_21h22.27.233,TranslationElicitation_eng-prolific,3.2.4,Win32,60,5eacad0d05726e33129cbe93,,1,0,98,81,1,97
,,,,,,,,,,,,,,,,,,,,,,,,,,,,,,,,,,,,,,,,,g,1.81799984,G,FALSE,,,,,,,43,globo,Spanish,Sounds/spa_globo.mp3,2020-06-04_21h22.27.233,TranslationElicitation_eng-prolific,3.2.4,Win32,60,5eacad0d05726e33129cbe93,,1,0,98,39,1,97
,,,,,,,,,,,,,,,,,,,,,,,,,,,,,,,,,,,,,,,,,l,2.049999952,GL,FALSE,,,,,,,43,globo,Spanish,Sounds/spa_globo.mp3,2020-06-04_21h22.27.233,TranslationElicitation_eng-prolific,3.2.4,Win32,60,5eacad0d05726e33129cbe93,,1,0,98,39,1,97
,,,,,,,,,,,,,,,,,,,,,,,,,,,,,,,,,,,,,,,,,o,2.183999777,GLO,FALSE,,,,,,,43,globo,Spanish,Sounds/spa_globo.mp3,2020-06-04_21h22.27.233,TranslationElicitation_eng-prolific,3.2.4,Win32,60,5eacad0d05726e33129cbe93,,1,0,98,39,1,97
,,,,,,,,,,,,,,,,,,,,,,,,,,,,,,,,,,,,,,,,,b,2.615999937,GLOB,FALSE,,,,,,,43,globo,Spanish,Sounds/spa_globo.mp3,2020-06-04_21h22.27.233,TranslationElicitation_eng-prolific,3.2.4,Win32,60,5eacad0d05726e33129cbe93,,1,0,98,39,1,97
,,,,,,,,,,,,,,,,,,,,,,,,,,,,,,,,,,,,,,,,,e,2.75,GLOBE,FALSE,,,,,,,43,globo,Spanish,Sounds/spa_globo.mp3,2020-06-04_21h22.27.233,TranslationElicitation_eng-prolific,3.2.4,Win32,60,5eacad0d05726e33129cbe93,,1,0,98,39,1,97
,,,,,,,,,,,,,,,,,,,,,,,,,,,,,,,,,,,,,,,,,return,3.149999857,GLOBE,FALSE,,,,,,,43,globo,Spanish,Sounds/spa_globo.mp3,2020-06-04_21h22.27.233,TranslationElicitation_eng-prolific,3.2.4,Win32,60,5eacad0d05726e33129cbe93,3.149999857,1,0,98,39,1,97
,,,,,,,,,,,,,,,,,,,,,,,,,,,,,,,,,,,,,,,,,,,,,,,,,,,43,globo,Spanish,Sounds/spa_globo.mp3,2020-06-04_21h22.27.233,TranslationElicitation_eng-prolific,3.2.4,Win32,60,5eacad0d05726e33129cbe93,,1,0,98,39,1,97
,,,,,,,,,,,,,,,,,,,,,,,,,,,,,,,,,,,,,,,,,p,1.116999865,P,FALSE,,,,,,,88,plato,Spanish,Sounds/spa_plato.mp3,2020-06-04_21h22.27.233,TranslationElicitation_eng-prolific,3.2.4,Win32,60,5eacad0d05726e33129cbe93,,1,0,98,83,1,97
,,,,,,,,,,,,,,,,,,,,,,,,,,,,,,,,,,,,,,,,,l,1.415999889,PL,FALSE,,,,,,,88,plato,Spanish,Sounds/spa_plato.mp3,2020-06-04_21h22.27.233,TranslationElicitation_eng-prolific,3.2.4,Win32,60,5eacad0d05726e33129cbe93,,1,0,98,83,1,97
,,,,,,,,,,,,,,,,,,,,,,,,,,,,,,,,,,,,,,,,,a,1.575999975,PLA,FALSE,,,,,,,88,plato,Spanish,Sounds/spa_plato.mp3,2020-06-04_21h22.27.233,TranslationElicitation_eng-prolific,3.2.4,Win32,60,5eacad0d05726e33129cbe93,,1,0,98,83,1,97
,,,,,,,,,,,,,,,,,,,,,,,,,,,,,,,,,,,,,,,,,t,2.148000002,PLAT,FALSE,,,,,,,88,plato,Spanish,Sounds/spa_plato.mp3,2020-06-04_21h22.27.233,TranslationElicitation_eng-prolific,3.2.4,Win32,60,5eacad0d05726e33129cbe93,,1,0,98,83,1,97
,,,,,,,,,,,,,,,,,,,,,,,,,,,,,,,,,,,,,,,,,e,2.25,PLATE,FALSE,,,,,,,88,plato,Spanish,Sounds/spa_plato.mp3,2020-06-04_21h22.27.233,TranslationElicitation_eng-prolific,3.2.4,Win32,60,5eacad0d05726e33129cbe93,,1,0,98,83,1,97
,,,,,,,,,,,,,,,,,,,,,,,,,,,,,,,,,,,,,,,,,return,2.366999865,PLATE,FALSE,,,,,,,88,plato,Spanish,Sounds/spa_plato.mp3,2020-06-04_21h22.27.233,TranslationElicitation_eng-prolific,3.2.4,Win32,60,5eacad0d05726e33129cbe93,2.366999865,1,0,98,83,1,97
,,,,,,,,,,,,,,,,,,,,,,,,,,,,,,,,,,,,,,,,,,,,,,,,,,,88,plato,Spanish,Sounds/spa_plato.mp3,2020-06-04_21h22.27.233,TranslationElicitation_eng-prolific,3.2.4,Win32,60,5eacad0d05726e33129cbe93,,1,0,98,83,1,97
,,,,,,,,,,,,,,,,,,,,,,,,,,,,,,,,,,,,,,,,,c,1.400000095,C,FALSE,,,,,,,16,caja,Spanish,Sounds/spa_caja.mp3,2020-06-04_21h22.27.233,TranslationElicitation_eng-prolific,3.2.4,Win32,60,5eacad0d05726e33129cbe93,,1,0,98,14,1,97
,,,,,,,,,,,,,,,,,,,,,,,,,,,,,,,,,,,,,,,,,a,1.583000183,CA,FALSE,,,,,,,16,caja,Spanish,Sounds/spa_caja.mp3,2020-06-04_21h22.27.233,TranslationElicitation_eng-prolific,3.2.4,Win32,60,5eacad0d05726e33129cbe93,,1,0,98,14,1,97
,,,,,,,,,,,,,,,,,,,,,,,,,,,,,,,,,,,,,,,,,r,1.815000057,CAR,FALSE,,,,,,,16,caja,Spanish,Sounds/spa_caja.mp3,2020-06-04_21h22.27.233,TranslationElicitation_eng-prolific,3.2.4,Win32,60,5eacad0d05726e33129cbe93,,1,0,98,14,1,97
,,,,,,,,,,,,,,,,,,,,,,,,,,,,,,,,,,,,,,,,,return,2.014000177,CAR,FALSE,,,,,,,16,caja,Spanish,Sounds/spa_caja.mp3,2020-06-04_21h22.27.233,TranslationElicitation_eng-prolific,3.2.4,Win32,60,5eacad0d05726e33129cbe93,2.014000177,1,0,98,14,1,97
,,,,,,,,,,,,,,,,,,,,,,,,,,,,,,,,,,,,,,,,,,,,,,,,,,,16,caja,Spanish,Sounds/spa_caja.mp3,2020-06-04_21h22.27.233,TranslationElicitation_eng-prolific,3.2.4,Win32,60,5eacad0d05726e33129cbe93,,1,0,98,14,1,97
,,,,,,,,,,,,,,,,,,,,,,,,,,,,,,,,,,,,,,,,,p,2.065999985,P,FALSE,,,,,,,82,perro,Spanish,Sounds/spa_perro.mp3,2020-06-04_21h22.27.233,TranslationElicitation_eng-prolific,3.2.4,Win32,60,5eacad0d05726e33129cbe93,,1,0,98,77,1,97
,,,,,,,,,,,,,,,,,,,,,,,,,,,,,,,,,,,,,,,,,a,2.282999992,PA,FALSE,,,,,,,82,perro,Spanish,Sounds/spa_perro.mp3,2020-06-04_21h22.27.233,TranslationElicitation_eng-prolific,3.2.4,Win32,60,5eacad0d05726e33129cbe93,,1,0,98,77,1,97
,,,,,,,,,,,,,,,,,,,,,,,,,,,,,,,,,,,,,,,,,i,2.467999935,PAI,FALSE,,,,,,,82,perro,Spanish,Sounds/spa_perro.mp3,2020-06-04_21h22.27.233,TranslationElicitation_eng-prolific,3.2.4,Win32,60,5eacad0d05726e33129cbe93,,1,0,98,77,1,97
,,,,,,,,,,,,,,,,,,,,,,,,,,,,,,,,,,,,,,,,,r,2.569999933,PAIR,FALSE,,,,,,,82,perro,Spanish,Sounds/spa_perro.mp3,2020-06-04_21h22.27.233,TranslationElicitation_eng-prolific,3.2.4,Win32,60,5eacad0d05726e33129cbe93,,1,0,98,77,1,97
,,,,,,,,,,,,,,,,,,,,,,,,,,,,,,,,,,,,,,,,,return,2.734999895,PAIR,FALSE,,,,,,,82,perro,Spanish,Sounds/spa_perro.mp3,2020-06-04_21h22.27.233,TranslationElicitation_eng-prolific,3.2.4,Win32,60,5eacad0d05726e33129cbe93,2.734999895,1,0,98,77,1,97
,,,,,,,,,,,,,,,,,,,,,,,,,,,,,,,,,,,,,,,,,,,,,,,,,,,82,perro,Spanish,Sounds/spa_perro.mp3,2020-06-04_21h22.27.233,TranslationElicitation_eng-prolific,3.2.4,Win32,60,5eacad0d05726e33129cbe93,,1,0,98,77,1,97
,,,,,,,,,,,,,,,,,,,,,,,,,,,,,,,,,,,,,,,,,l,2.647000074,L,FALSE,,,,,,,51,ladrillo,Spanish,Sounds/spa_ladrillo.mp3,2020-06-04_21h22.27.233,TranslationElicitation_eng-prolific,3.2.4,Win32,60,5eacad0d05726e33129cbe93,,1,0,98,47,1,97
,,,,,,,,,,,,,,,,,,,,,,,,,,,,,,,,,,,,,,,,,o,4.249000072,LO,FALSE,,,,,,,51,ladrillo,Spanish,Sounds/spa_ladrillo.mp3,2020-06-04_21h22.27.233,TranslationElicitation_eng-prolific,3.2.4,Win32,60,5eacad0d05726e33129cbe93,,1,0,98,47,1,97
,,,,,,,,,,,,,,,,,,,,,,,,,,,,,,,,,,,,,,,,,u,4.430000067,LOU,FALSE,,,,,,,51,ladrillo,Spanish,Sounds/spa_ladrillo.mp3,2020-06-04_21h22.27.233,TranslationElicitation_eng-prolific,3.2.4,Win32,60,5eacad0d05726e33129cbe93,,1,0,98,47,1,97
,,,,,,,,,,,,,,,,,,,,,,,,,,,,,,,,,,,,,,,,,d,4.648000002,LOUD,FALSE,,,,,,,51,ladrillo,Spanish,Sounds/spa_ladrillo.mp3,2020-06-04_21h22.27.233,TranslationElicitation_eng-prolific,3.2.4,Win32,60,5eacad0d05726e33129cbe93,,1,0,98,47,1,97
,,,,,,,,,,,,,,,,,,,,,,,,,,,,,,,,,,,,,,,,,return,5.513000011,LOUD,FALSE,,,,,,,51,ladrillo,Spanish,Sounds/spa_ladrillo.mp3,2020-06-04_21h22.27.233,TranslationElicitation_eng-prolific,3.2.4,Win32,60,5eacad0d05726e33129cbe93,5.513000011,1,0,98,47,1,97
,,,,,,,,,,,,,,,,,,,,,,,,,,,,,,,,,,,,,,,,,,,,,,,,,,,51,ladrillo,Spanish,Sounds/spa_ladrillo.mp3,2020-06-04_21h22.27.233,TranslationElicitation_eng-prolific,3.2.4,Win32,60,5eacad0d05726e33129cbe93,,1,0,98,47,1,97
,,,,,,,,,,,,,,,,,,,,,,,,,,,,,,,,,,,,,,,,,m,2.183000088,M,FALSE,,,,,,,63,mesa,Spanish,Sounds/spa_mesa.mp3,2020-06-04_21h22.27.233,TranslationElicitation_eng-prolific,3.2.4,Win32,60,5eacad0d05726e33129cbe93,,1,0,98,59,1,97
,,,,,,,,,,,,,,,,,,,,,,,,,,,,,,,,,,,,,,,,,e,2.384000063,ME,FALSE,,,,,,,63,mesa,Spanish,Sounds/spa_mesa.mp3,2020-06-04_21h22.27.233,TranslationElicitation_eng-prolific,3.2.4,Win32,60,5eacad0d05726e33129cbe93,,1,0,98,59,1,97
,,,,,,,,,,,,,,,,,,,,,,,,,,,,,,,,,,,,,,,,,s,2.567000151,MES,FALSE,,,,,,,63,mesa,Spanish,Sounds/spa_mesa.mp3,2020-06-04_21h22.27.233,TranslationElicitation_eng-prolific,3.2.4,Win32,60,5eacad0d05726e33129cbe93,,1,0,98,59,1,97
,,,,,,,,,,,,,,,,,,,,,,,,,,,,,,,,,,,,,,,,,s,2.865999937,MESS,FALSE,,,,,,,63,mesa,Spanish,Sounds/spa_mesa.mp3,2020-06-04_21h22.27.233,TranslationElicitation_eng-prolific,3.2.4,Win32,60,5eacad0d05726e33129cbe93,,1,0,98,59,1,97
,,,,,,,,,,,,,,,,,,,,,,,,,,,,,,,,,,,,,,,,,return,50.45000005,MESS,FALSE,,,,,,,63,mesa,Spanish,Sounds/spa_mesa.mp3,2020-06-04_21h22.27.233,TranslationElicitation_eng-prolific,3.2.4,Win32,60,5eacad0d05726e33129cbe93,50.45000005,1,0,98,59,1,97
,,,,,,,,,,,,,,,,,,,,,,,,,,,,,,,,,,,,,,,,,,,,,,,,,,,63,mesa,Spanish,Sounds/spa_mesa.mp3,2020-06-04_21h22.27.233,TranslationElicitation_eng-prolific,3.2.4,Win32,60,5eacad0d05726e33129cbe93,,1,0,98,59,1,97
,,,,,,,,,,,,,,,,,,,,,,,,,,,,,,,,,,,,,,,,,f,2.268999815,F,FALSE,,,,,,,25,cesta,Spanish,Sounds/spa_cesta.mp3,2020-06-04_21h22.27.233,TranslationElicitation_eng-prolific,3.2.4,Win32,60,5eacad0d05726e33129cbe93,,1,0,98,23,1,97
,,,,,,,,,,,,,,,,,,,,,,,,,,,,,,,,,,,,,,,,,e,2.898999929,FE,FALSE,,,,,,,25,cesta,Spanish,Sounds/spa_cesta.mp3,2020-06-04_21h22.27.233,TranslationElicitation_eng-prolific,3.2.4,Win32,60,5eacad0d05726e33129cbe93,,1,0,98,23,1,97
,,,,,,,,,,,,,,,,,,,,,,,,,,,,,,,,,,,,,,,,,s,3.138000011,FES,FALSE,,,,,,,25,cesta,Spanish,Sounds/spa_cesta.mp3,2020-06-04_21h22.27.233,TranslationElicitation_eng-prolific,3.2.4,Win32,60,5eacad0d05726e33129cbe93,,1,0,98,23,1,97
,,,,,,,,,,,,,,,,,,,,,,,,,,,,,,,,,,,,,,,,,t,3.282999992,FEST,FALSE,,,,,,,25,cesta,Spanish,Sounds/spa_cesta.mp3,2020-06-04_21h22.27.233,TranslationElicitation_eng-prolific,3.2.4,Win32,60,5eacad0d05726e33129cbe93,,1,0,98,23,1,97
,,,,,,,,,,,,,,,,,,,,,,,,,,,,,,,,,,,,,,,,,i,3.518999815,FESTI,FALSE,,,,,,,25,cesta,Spanish,Sounds/spa_cesta.mp3,2020-06-04_21h22.27.233,TranslationElicitation_eng-prolific,3.2.4,Win32,60,5eacad0d05726e33129cbe93,,1,0,98,23,1,97
,,,,,,,,,,,,,,,,,,,,,,,,,,,,,,,,,,,,,,,,,v,3.684999943,FESTIV,FALSE,,,,,,,25,cesta,Spanish,Sounds/spa_cesta.mp3,2020-06-04_21h22.27.233,TranslationElicitation_eng-prolific,3.2.4,Win32,60,5eacad0d05726e33129cbe93,,1,0,98,23,1,97
,,,,,,,,,,,,,,,,,,,,,,,,,,,,,,,,,,,,,,,,,a,3.771999836,FESTIVA,FALSE,,,,,,,25,cesta,Spanish,Sounds/spa_cesta.mp3,2020-06-04_21h22.27.233,TranslationElicitation_eng-prolific,3.2.4,Win32,60,5eacad0d05726e33129cbe93,,1,0,98,23,1,97
,,,,,,,,,,,,,,,,,,,,,,,,,,,,,,,,,,,,,,,,,l,4.032999992,FESTIVAL,FALSE,,,,,,,25,cesta,Spanish,Sounds/spa_cesta.mp3,2020-06-04_21h22.27.233,TranslationElicitation_eng-prolific,3.2.4,Win32,60,5eacad0d05726e33129cbe93,,1,0,98,23,1,97
,,,,,,,,,,,,,,,,,,,,,,,,,,,,,,,,,,,,,,,,,return,97.3499999,FESTIVAL,FALSE,,,,,,,25,cesta,Spanish,Sounds/spa_cesta.mp3,2020-06-04_21h22.27.233,TranslationElicitation_eng-prolific,3.2.4,Win32,60,5eacad0d05726e33129cbe93,97.3499999,1,0,98,23,1,97
,,,,,,,,,,,,,,,,,,,,,,,,,,,,,,,,,,,,,,,,,,,,,,,,,,,25,cesta,Spanish,Sounds/spa_cesta.mp3,2020-06-04_21h22.27.233,TranslationElicitation_eng-prolific,3.2.4,Win32,60,5eacad0d05726e33129cbe93,,1,0,98,23,1,97
,,,,,,,,,,,,,,,,,,,,,,,,,,,,,,,,,,,,,,,,,c,7.503999949,C,FALSE,,,,,,,18,camisa,Spanish,Sounds/spa_camisa.mp3,2020-06-04_21h22.27.233,TranslationElicitation_eng-prolific,3.2.4,Win32,60,5eacad0d05726e33129cbe93,,1,0,98,16,1,97
,,,,,,,,,,,,,,,,,,,,,,,,,,,,,,,,,,,,,,,,,a,11.90400004,CA,FALSE,,,,,,,18,camisa,Spanish,Sounds/spa_camisa.mp3,2020-06-04_21h22.27.233,TranslationElicitation_eng-prolific,3.2.4,Win32,60,5eacad0d05726e33129cbe93,,1,0,98,16,1,97
,,,,,,,,,,,,,,,,,,,,,,,,,,,,,,,,,,,,,,,,,a,12.76399994,CAA,FALSE,,,,,,,18,camisa,Spanish,Sounds/spa_camisa.mp3,2020-06-04_21h22.27.233,TranslationElicitation_eng-prolific,3.2.4,Win32,60,5eacad0d05726e33129cbe93,,1,0,98,16,1,97
,,,,,,,,,,,,,,,,,,,,,,,,,,,,,,,,,,,,,,,,,backspace,14.27099991,CA,TRUE,,,,,,,18,camisa,Spanish,Sounds/spa_camisa.mp3,2020-06-04_21h22.27.233,TranslationElicitation_eng-prolific,3.2.4,Win32,60,5eacad0d05726e33129cbe93,,1,0,98,16,1,97
,,,,,,,,,,,,,,,,,,,,,,,,,,,,,,,,,,,,,,,,,m,14.91899991,CAM,TRUE,,,,,,,18,camisa,Spanish,Sounds/spa_camisa.mp3,2020-06-04_21h22.27.233,TranslationElicitation_eng-prolific,3.2.4,Win32,60,5eacad0d05726e33129cbe93,,1,0,98,16,1,97
,,,,,,,,,,,,,,,,,,,,,,,,,,,,,,,,,,,,,,,,,e,15.69700003,CAME,TRUE,,,,,,,18,camisa,Spanish,Sounds/spa_camisa.mp3,2020-06-04_21h22.27.233,TranslationElicitation_eng-prolific,3.2.4,Win32,60,5eacad0d05726e33129cbe93,,1,0,98,16,1,97
,,,,,,,,,,,,,,,,,,,,,,,,,,,,,,,,,,,,,,,,,o,16.04900002,CAMEO,TRUE,,,,,,,18,camisa,Spanish,Sounds/spa_camisa.mp3,2020-06-04_21h22.27.233,TranslationElicitation_eng-prolific,3.2.4,Win32,60,5eacad0d05726e33129cbe93,,1,0,98,16,1,97
,,,,,,,,,,,,,,,,,,,,,,,,,,,,,,,,,,,,,,,,,return,16.43300009,CAMEO,TRUE,,,,,,,18,camisa,Spanish,Sounds/spa_camisa.mp3,2020-06-04_21h22.27.233,TranslationElicitation_eng-prolific,3.2.4,Win32,60,5eacad0d05726e33129cbe93,16.43300009,1,0,98,16,1,97
,,,,,,,,,,,,,,,,,,,,,,,,,,,,,,,,,,,,,,,,,,,,,,,,,,,18,camisa,Spanish,Sounds/spa_camisa.mp3,2020-06-04_21h22.27.233,TranslationElicitation_eng-prolific,3.2.4,Win32,60,5eacad0d05726e33129cbe93,,1,0,98,16,1,97
,,,,,,,,,,,,,,,,,,,,,,,,,,,,,,,,,,,,,,,,,o,2.28399992,O,FALSE,,,,,,,49,hormiga,Spanish,Sounds/spa_hormiga.mp3,2020-06-04_21h22.27.233,TranslationElicitation_eng-prolific,3.2.4,Win32,60,5eacad0d05726e33129cbe93,,1,0,98,45,1,97
,,,,,,,,,,,,,,,,,,,,,,,,,,,,,,,,,,,,,,,,,r,2.483999968,OR,FALSE,,,,,,,49,hormiga,Spanish,Sounds/spa_hormiga.mp3,2020-06-04_21h22.27.233,TranslationElicitation_eng-prolific,3.2.4,Win32,60,5eacad0d05726e33129cbe93,,1,0,98,45,1,97
,,,,,,,,,,,,,,,,,,,,,,,,,,,,,,,,,,,,,,,,,d,2.76699996,ORD,FALSE,,,,,,,49,hormiga,Spanish,Sounds/spa_hormiga.mp3,2020-06-04_21h22.27.233,TranslationElicitation_eng-prolific,3.2.4,Win32,60,5eacad0d05726e33129cbe93,,1,0,98,45,1,97
,,,,,,,,,,,,,,,,,,,,,,,,,,,,,,,,,,,,,,,,,e,2.933000088,ORDE,FALSE,,,,,,,49,hormiga,Spanish,Sounds/spa_hormiga.mp3,2020-06-04_21h22.27.233,TranslationElicitation_eng-prolific,3.2.4,Win32,60,5eacad0d05726e33129cbe93,,1,0,98,45,1,97
,,,,,,,,,,,,,,,,,,,,,,,,,,,,,,,,,,,,,,,,,r,2.999000072,ORDER,FALSE,,,,,,,49,hormiga,Spanish,Sounds/spa_hormiga.mp3,2020-06-04_21h22.27.233,TranslationElicitation_eng-prolific,3.2.4,Win32,60,5eacad0d05726e33129cbe93,,1,0,98,45,1,97
,,,,,,,,,,,,,,,,,,,,,,,,,,,,,,,,,,,,,,,,,return,3.164999962,ORDER,FALSE,,,,,,,49,hormiga,Spanish,Sounds/spa_hormiga.mp3,2020-06-04_21h22.27.233,TranslationElicitation_eng-prolific,3.2.4,Win32,60,5eacad0d05726e33129cbe93,3.164999962,1,0,98,45,1,97
,,,,,,,,,,,,,,,,,,,,,,,,,,,,,,,,,,,,,,,,,,,,,,,,,,,49,hormiga,Spanish,Sounds/spa_hormiga.mp3,2020-06-04_21h22.27.233,TranslationElicitation_eng-prolific,3.2.4,Win32,60,5eacad0d05726e33129cbe93,,1,0,98,45,1,97
,,,,,,,,,,,,,,,,,,,,,,,,,,,,,,,,,,,,,,,,,p,2.0400002,P,FALSE,,,,,,,77,pantalon,Spanish,Sounds/spa_pantalon.mp3,2020-06-04_21h22.27.233,TranslationElicitation_eng-prolific,3.2.4,Win32,60,5eacad0d05726e33129cbe93,,1,0,98,72,1,97
,,,,,,,,,,,,,,,,,,,,,,,,,,,,,,,,,,,,,,,,,p,4.218000174,PP,FALSE,,,,,,,77,pantalon,Spanish,Sounds/spa_pantalon.mp3,2020-06-04_21h22.27.233,TranslationElicitation_eng-prolific,3.2.4,Win32,60,5eacad0d05726e33129cbe93,,1,0,98,72,1,97
,,,,,,,,,,,,,,,,,,,,,,,,,,,,,,,,,,,,,,,,,backspace,4.864000082,P,TRUE,,,,,,,77,pantalon,Spanish,Sounds/spa_pantalon.mp3,2020-06-04_21h22.27.233,TranslationElicitation_eng-prolific,3.2.4,Win32,60,5eacad0d05726e33129cbe93,,1,0,98,72,1,97
,,,,,,,,,,,,,,,,,,,,,,,,,,,,,,,,,,,,,,,,,a,5.853000164,PA,TRUE,,,,,,,77,pantalon,Spanish,Sounds/spa_pantalon.mp3,2020-06-04_21h22.27.233,TranslationElicitation_eng-prolific,3.2.4,Win32,60,5eacad0d05726e33129cbe93,,1,0,98,72,1,97
,,,,,,,,,,,,,,,,,,,,,,,,,,,,,,,,,,,,,,,,,t,6.190999985,PAT,TRUE,,,,,,,77,pantalon,Spanish,Sounds/spa_pantalon.mp3,2020-06-04_21h22.27.233,TranslationElicitation_eng-prolific,3.2.4,Win32,60,5eacad0d05726e33129cbe93,,1,0,98,72,1,97
,,,,,,,,,,,,,,,,,,,,,,,,,,,,,,,,,,,,,,,,,a,6.764000177,PATA,TRUE,,,,,,,77,pantalon,Spanish,Sounds/spa_pantalon.mp3,2020-06-04_21h22.27.233,TranslationElicitation_eng-prolific,3.2.4,Win32,60,5eacad0d05726e33129cbe93,,1,0,98,72,1,97
,,,,,,,,,,,,,,,,,,,,,,,,,,,,,,,,,,,,,,,,,l,6.996999979,PATAL,TRUE,,,,,,,77,pantalon,Spanish,Sounds/spa_pantalon.mp3,2020-06-04_21h22.27.233,TranslationElicitation_eng-prolific,3.2.4,Win32,60,5eacad0d05726e33129cbe93,,1,0,98,72,1,97
,,,,,,,,,,,,,,,,,,,,,,,,,,,,,,,,,,,,,,,,,o,7.226999998,PATALO,TRUE,,,,,,,77,pantalon,Spanish,Sounds/spa_pantalon.mp3,2020-06-04_21h22.27.233,TranslationElicitation_eng-prolific,3.2.4,Win32,60,5eacad0d05726e33129cbe93,,1,0,98,72,1,97
,,,,,,,,,,,,,,,,,,,,,,,,,,,,,,,,,,,,,,,,,o,7.347000122,PATALOO,TRUE,,,,,,,77,pantalon,Spanish,Sounds/spa_pantalon.mp3,2020-06-04_21h22.27.233,TranslationElicitation_eng-prolific,3.2.4,Win32,60,5eacad0d05726e33129cbe93,,1,0,98,72,1,97
,,,,,,,,,,,,,,,,,,,,,,,,,,,,,,,,,,,,,,,,,n,7.54700017,PATALOON,TRUE,,,,,,,77,pantalon,Spanish,Sounds/spa_pantalon.mp3,2020-06-04_21h22.27.233,TranslationElicitation_eng-prolific,3.2.4,Win32,60,5eacad0d05726e33129cbe93,,1,0,98,72,1,97
,,,,,,,,,,,,,,,,,,,,,,,,,,,,,,,,,,,,,,,,,return,8.342000008,PATALOON,TRUE,,,,,,,77,pantalon,Spanish,Sounds/spa_pantalon.mp3,2020-06-04_21h22.27.233,TranslationElicitation_eng-prolific,3.2.4,Win32,60,5eacad0d05726e33129cbe93,8.342000008,1,0,98,72,1,97
,,,,,,,,,,,,,,,,,,,,,,,,,,,,,,,,,,,,,,,,,,,,,,,,,,,77,pantalon,Spanish,Sounds/spa_pantalon.mp3,2020-06-04_21h22.27.233,TranslationElicitation_eng-prolific,3.2.4,Win32,60,5eacad0d05726e33129cbe93,,1,0,98,72,1,97
,,,,,,,,,,,,,,,,,,,,,,,,,,,,,,,,,,,,,,,,,g,2.592000008,G,FALSE,,,,,,,39,gafas,Spanish,Sounds/spa_gafas.mp3,2020-06-04_21h22.27.233,TranslationElicitation_eng-prolific,3.2.4,Win32,60,5eacad0d05726e33129cbe93,,1,0,98,35,1,97
,,,,,,,,,,,,,,,,,,,,,,,,,,,,,,,,,,,,,,,,,a,3.440999985,GA,FALSE,,,,,,,39,gafas,Spanish,Sounds/spa_gafas.mp3,2020-06-04_21h22.27.233,TranslationElicitation_eng-prolific,3.2.4,Win32,60,5eacad0d05726e33129cbe93,,1,0,98,35,1,97
,,,,,,,,,,,,,,,,,,,,,,,,,,,,,,,,,,,,,,,,,e,3.657000065,GAE,FALSE,,,,,,,39,gafas,Spanish,Sounds/spa_gafas.mp3,2020-06-04_21h22.27.233,TranslationElicitation_eng-prolific,3.2.4,Win32,60,5eacad0d05726e33129cbe93,,1,0,98,35,1,97
,,,,,,,,,,,,,,,,,,,,,,,,,,,,,,,,,,,,,,,,,return,4.421999931,GAE,FALSE,,,,,,,39,gafas,Spanish,Sounds/spa_gafas.mp3,2020-06-04_21h22.27.233,TranslationElicitation_eng-prolific,3.2.4,Win32,60,5eacad0d05726e33129cbe93,4.421999931,1,0,98,35,1,97
,,,,,,,,,,,,,,,,,,,,,,,,,,,,,,,,,,,,,,,,,,,,,,,,,,,39,gafas,Spanish,Sounds/spa_gafas.mp3,2020-06-04_21h22.27.233,TranslationElicitation_eng-prolific,3.2.4,Win32,60,5eacad0d05726e33129cbe93,,1,0,98,35,1,97
,,,,,,,,,,,,,,,,,,,,,,,,,,,,,,,,,,,,,,,,,b,4.226999998,B,FALSE,,,,,,,7,bocadillo,Spanish,Sounds/spa_bocadillo.mp3,2020-06-04_21h22.27.233,TranslationElicitation_eng-prolific,3.2.4,Win32,60,5eacad0d05726e33129cbe93,,1,0,98,5,1,97
,,,,,,,,,,,,,,,,,,,,,,,,,,,,,,,,,,,,,,,,,o,4.480999947,BO,FALSE,,,,,,,7,bocadillo,Spanish,Sounds/spa_bocadillo.mp3,2020-06-04_21h22.27.233,TranslationElicitation_eng-prolific,3.2.4,Win32,60,5eacad0d05726e33129cbe93,,1,0,98,5,1,97
,,,,,,,,,,,,,,,,,,,,,,,,,,,,,,,,,,,,,,,,,o,4.648000002,BOO,FALSE,,,,,,,7,bocadillo,Spanish,Sounds/spa_bocadillo.mp3,2020-06-04_21h22.27.233,TranslationElicitation_eng-prolific,3.2.4,Win32,60,5eacad0d05726e33129cbe93,,1,0,98,5,1,97
,,,,,,,,,,,,,,,,,,,,,,,,,,,,,,,,,,,,,,,,,k,4.747999907,BOOK,FALSE,,,,,,,7,bocadillo,Spanish,Sounds/spa_bocadillo.mp3,2020-06-04_21h22.27.233,TranslationElicitation_eng-prolific,3.2.4,Win32,60,5eacad0d05726e33129cbe93,,1,0,98,5,1,97
,,,,,,,,,,,,,,,,,,,,,,,,,,,,,,,,,,,,,,,,,return,5.131999969,BOOK,FALSE,,,,,,,7,bocadillo,Spanish,Sounds/spa_bocadillo.mp3,2020-06-04_21h22.27.233,TranslationElicitation_eng-prolific,3.2.4,Win32,60,5eacad0d05726e33129cbe93,5.131999969,1,0,98,5,1,97
,,,,,,,,,,,,,,,,,,,,,,,,,,,,,,,,,,,,,,,,,,,,,,,,,,,7,bocadillo,Spanish,Sounds/spa_bocadillo.mp3,2020-06-04_21h22.27.233,TranslationElicitation_eng-prolific,3.2.4,Win32,60,5eacad0d05726e33129cbe93,,1,0,98,5,1,97
,,,,,,,,,,,,,,,,,,,,,,,,,,,,,,,,,,,,,,,,,t,1.431999922,T,FALSE,,,,,,,94,tambor,Spanish,Sounds/spa_tambor.mp3,2020-06-04_21h22.27.233,TranslationElicitation_eng-prolific,3.2.4,Win32,60,5eacad0d05726e33129cbe93,,1,0,98,89,1,97
,,,,,,,,,,,,,,,,,,,,,,,,,,,,,,,,,,,,,,,,,a,1.98300004,TA,FALSE,,,,,,,94,tambor,Spanish,Sounds/spa_tambor.mp3,2020-06-04_21h22.27.233,TranslationElicitation_eng-prolific,3.2.4,Win32,60,5eacad0d05726e33129cbe93,,1,0,98,89,1,97
,,,,,,,,,,,,,,,,,,,,,,,,,,,,,,,,,,,,,,,,,m,2.151000023,TAM,FALSE,,,,,,,94,tambor,Spanish,Sounds/spa_tambor.mp3,2020-06-04_21h22.27.233,TranslationElicitation_eng-prolific,3.2.4,Win32,60,5eacad0d05726e33129cbe93,,1,0,98,89,1,97
,,,,,,,,,,,,,,,,,,,,,,,,,,,,,,,,,,,,,,,,,b,3.099999905,TAMB,FALSE,,,,,,,94,tambor,Spanish,Sounds/spa_tambor.mp3,2020-06-04_21h22.27.233,TranslationElicitation_eng-prolific,3.2.4,Win32,60,5eacad0d05726e33129cbe93,,1,0,98,89,1,97
,,,,,,,,,,,,,,,,,,,,,,,,,,,,,,,,,,,,,,,,,o,3.241999865,TAMBO,FALSE,,,,,,,94,tambor,Spanish,Sounds/spa_tambor.mp3,2020-06-04_21h22.27.233,TranslationElicitation_eng-prolific,3.2.4,Win32,60,5eacad0d05726e33129cbe93,,1,0,98,89,1,97
,,,,,,,,,,,,,,,,,,,,,,,,,,,,,,,,,,,,,,,,,r,3.55099988,TAMBOR,FALSE,,,,,,,94,tambor,Spanish,Sounds/spa_tambor.mp3,2020-06-04_21h22.27.233,TranslationElicitation_eng-prolific,3.2.4,Win32,60,5eacad0d05726e33129cbe93,,1,0,98,89,1,97
,,,,,,,,,,,,,,,,,,,,,,,,,,,,,,,,,,,,,,,,,i,3.809999943,TAMBORI,FALSE,,,,,,,94,tambor,Spanish,Sounds/spa_tambor.mp3,2020-06-04_21h22.27.233,TranslationElicitation_eng-prolific,3.2.4,Win32,60,5eacad0d05726e33129cbe93,,1,0,98,89,1,97
,,,,,,,,,,,,,,,,,,,,,,,,,,,,,,,,,,,,,,,,,e,3.905999899,TAMBORIE,FALSE,,,,,,,94,tambor,Spanish,Sounds/spa_tambor.mp3,2020-06-04_21h22.27.233,TranslationElicitation_eng-prolific,3.2.4,Win32,60,5eacad0d05726e33129cbe93,,1,0,98,89,1,97
,,,,,,,,,,,,,,,,,,,,,,,,,,,,,,,,,,,,,,,,,backspace,4.681999922,TAMBORI,TRUE,,,,,,,94,tambor,Spanish,Sounds/spa_tambor.mp3,2020-06-04_21h22.27.233,TranslationElicitation_eng-prolific,3.2.4,Win32,60,5eacad0d05726e33129cbe93,,1,0,98,89,1,97
,,,,,,,,,,,,,,,,,,,,,,,,,,,,,,,,,,,,,,,,,n,5.257999897,TAMBORIN,TRUE,,,,,,,94,tambor,Spanish,Sounds/spa_tambor.mp3,2020-06-04_21h22.27.233,TranslationElicitation_eng-prolific,3.2.4,Win32,60,5eacad0d05726e33129cbe93,,1,0,98,89,1,97
,,,,,,,,,,,,,,,,,,,,,,,,,,,,,,,,,,,,,,,,,e,5.499000072,TAMBORINE,TRUE,,,,,,,94,tambor,Spanish,Sounds/spa_tambor.mp3,2020-06-04_21h22.27.233,TranslationElicitation_eng-prolific,3.2.4,Win32,60,5eacad0d05726e33129cbe93,,1,0,98,89,1,97
,,,,,,,,,,,,,,,,,,,,,,,,,,,,,,,,,,,,,,,,,return,5.724999905,TAMBORINE,TRUE,,,,,,,94,tambor,Spanish,Sounds/spa_tambor.mp3,2020-06-04_21h22.27.233,TranslationElicitation_eng-prolific,3.2.4,Win32,60,5eacad0d05726e33129cbe93,5.724999905,1,0,98,89,1,97
,,,,,,,,,,,,,,,,,,,,,,,,,,,,,,,,,,,,,,,,,,,,,,,,,,,94,tambor,Spanish,Sounds/spa_tambor.mp3,2020-06-04_21h22.27.233,TranslationElicitation_eng-prolific,3.2.4,Win32,60,5eacad0d05726e33129cbe93,,1,0,98,89,1,97
,,,,,,,,,,,,,,,,,,,,,,,,,,,,,,,,,,,,,,,,,h,1.93200016,H,FALSE,,,,,,,50,jirafa,Spanish,Sounds/spa_jirafa.mp3,2020-06-04_21h22.27.233,TranslationElicitation_eng-prolific,3.2.4,Win32,60,5eacad0d05726e33129cbe93,,1,0,98,46,1,97
,,,,,,,,,,,,,,,,,,,,,,,,,,,,,,,,,,,,,,,,,e,2.36500001,HE,FALSE,,,,,,,50,jirafa,Spanish,Sounds/spa_jirafa.mp3,2020-06-04_21h22.27.233,TranslationElicitation_eng-prolific,3.2.4,Win32,60,5eacad0d05726e33129cbe93,,1,0,98,46,1,97
,,,,,,,,,,,,,,,,,,,,,,,,,,,,,,,,,,,,,,,,,a,2.482000113,HEA,FALSE,,,,,,,50,jirafa,Spanish,Sounds/spa_jirafa.mp3,2020-06-04_21h22.27.233,TranslationElicitation_eng-prolific,3.2.4,Win32,60,5eacad0d05726e33129cbe93,,1,0,98,46,1,97
