consentKey.keys,consentKey.rt,languageL1Key.keys,languageL1Key.rt,languageL2,languageL2OralKey.keys,languageL2OralKey.rt,languageL2WrittenKey.keys,languageL2WrittenKey.rt,languageL3OralKey.keys,languageL3OralKey.rt,languageL3WrittenKey.keys,languageL3WrittenKey.rt,languageCatalanOralKey.keys,languageCatalanOralKey.rt,languageCatalanWrittenKey.keys,languageCatalanWrittenKey.rt,languageCatalanTimeKey.keys,languageCatalanTimeKey.rt,languageSpanishOralKey.keys,languageSpanishOralKey.rt,languageSpanishWrittenKey.keys,languageSpanishWrittenKey.rt,languageSpanishTimeKey.keys,languageSpanishTimeKey.rt,age,demoSexKey.keys,demoSexKey.rt,demoEducationKey.keys,demoEducationKey.rt,city,demoVisionKey.keys,demoVisionKey.rt,demoLanguageKey.keys,demoLanguageKey.rt,setupLocationKey.keys,setupLocationKey.rt,setupNoiseKey.keys,setupNoiseKey.rt,instructionsKeys.keys,instructionsKeys.rt,keyPressed,keyPressTime,inputText,error,trialsPracticeCatalan.thisRepN,trialsPracticeCatalan.thisTrialN,trialsPracticeCatalan.thisN,trialsPracticeCatalan.thisIndex,trialsPracticeCatalan.ran,trialsPracticeCatalan.order,trial_id,word,test_language,soundfile,date,expName,psychopyVersion,OS,frameRate,participant,trialOffset,trialsCatalan.thisRepN,trialsCatalan.thisTrialN,trialsCatalan.thisN,trialsCatalan.thisIndex,trialsCatalan.ran,trialsCatalan.order
space,1.247999907,e,3.611999989,,,,,,,,,,2,5.993000031,1,2.649999857,1,4.389999866,1,3.724999905,1,0.825999975,1,0.893999815,23,m,2.376999855,4,3.974999905,FALMOUTH,y,2.396999836,n,2.161999941,1,1.94299984,1,1.797999859,space,1.937999725,u,6.674999952,U,FALSE,1,0,5,3,1,4,159,onada,Catalan,Sounds/cat_onada.mp3,2020-06-05_15h35.12.969,TranslationElicitation_eng-prolific,3.2.4,Win32,60,5eaca13a67ba8f30f90a2dc5,,,,,,,
,,,,,,,,,,,,,,,,,,,,,,,,,,,,,,,,,,,,,,,,,n,6.891000032,UN,FALSE,1,0,5,3,1,4,159,onada,Catalan,Sounds/cat_onada.mp3,2020-06-05_15h35.12.969,TranslationElicitation_eng-prolific,3.2.4,Win32,60,5eaca13a67ba8f30f90a2dc5,,,,,,,
,,,,,,,,,,,,,,,,,,,,,,,,,,,,,,,,,,,,,,,,,a,7.007999897,UNA,FALSE,1,0,5,3,1,4,159,onada,Catalan,Sounds/cat_onada.mp3,2020-06-05_15h35.12.969,TranslationElicitation_eng-prolific,3.2.4,Win32,60,5eaca13a67ba8f30f90a2dc5,,,,,,,
,,,,,,,,,,,,,,,,,,,,,,,,,,,,,,,,,,,,,,,,,return,7.622999907,UNA,FALSE,1,0,5,3,1,4,159,onada,Catalan,Sounds/cat_onada.mp3,2020-06-05_15h35.12.969,TranslationElicitation_eng-prolific,3.2.4,Win32,60,5eaca13a67ba8f30f90a2dc5,7.622999907,,,,,,
,,,,,,,,,,,,,,,,,,,,,,,,,,,,,,,,,,,,,,,,,,,,,1,0,5,3,1,4,159,onada,Catalan,Sounds/cat_onada.mp3,2020-06-05_15h35.12.969,TranslationElicitation_eng-prolific,3.2.4,Win32,60,5eaca13a67ba8f30f90a2dc5,,,,,,,
,,,,,,,,,,,,,,,,,,,,,,,,,,,,,,,,,,,,,,,,,t,2.079999924,T,FALSE,1,0,5,4,1,4,179,tigre,Catalan,Sounds/cat_tigre.mp3,2020-06-05_15h35.12.969,TranslationElicitation_eng-prolific,3.2.4,Win32,60,5eaca13a67ba8f30f90a2dc5,,,,,,,
,,,,,,,,,,,,,,,,,,,,,,,,,,,,,,,,,,,,,,,,,i,2.297999859,TI,FALSE,1,0,5,4,1,4,179,tigre,Catalan,Sounds/cat_tigre.mp3,2020-06-05_15h35.12.969,TranslationElicitation_eng-prolific,3.2.4,Win32,60,5eaca13a67ba8f30f90a2dc5,,,,,,,
,,,,,,,,,,,,,,,,,,,,,,,,,,,,,,,,,,,,,,,,,g,2.513999939,TIG,FALSE,1,0,5,4,1,4,179,tigre,Catalan,Sounds/cat_tigre.mp3,2020-06-05_15h35.12.969,TranslationElicitation_eng-prolific,3.2.4,Win32,60,5eaca13a67ba8f30f90a2dc5,,,,,,,
,,,,,,,,,,,,,,,,,,,,,,,,,,,,,,,,,,,,,,,,,r,2.611000061,TIGR,FALSE,1,0,5,4,1,4,179,tigre,Catalan,Sounds/cat_tigre.mp3,2020-06-05_15h35.12.969,TranslationElicitation_eng-prolific,3.2.4,Win32,60,5eaca13a67ba8f30f90a2dc5,,,,,,,
,,,,,,,,,,,,,,,,,,,,,,,,,,,,,,,,,,,,,,,,,a,2.944999933,TIGRA,FALSE,1,0,5,4,1,4,179,tigre,Catalan,Sounds/cat_tigre.mp3,2020-06-05_15h35.12.969,TranslationElicitation_eng-prolific,3.2.4,Win32,60,5eaca13a67ba8f30f90a2dc5,,,,,,,
,,,,,,,,,,,,,,,,,,,,,,,,,,,,,,,,,,,,,,,,,return,3.497999907,TIGRA,FALSE,1,0,5,4,1,4,179,tigre,Catalan,Sounds/cat_tigre.mp3,2020-06-05_15h35.12.969,TranslationElicitation_eng-prolific,3.2.4,Win32,60,5eaca13a67ba8f30f90a2dc5,3.497999907,,,,,,
,,,,,,,,,,,,,,,,,,,,,,,,,,,,,,,,,,,,,,,,,,,,,1,0,5,4,1,4,179,tigre,Catalan,Sounds/cat_tigre.mp3,2020-06-05_15h35.12.969,TranslationElicitation_eng-prolific,3.2.4,Win32,60,5eaca13a67ba8f30f90a2dc5,,,,,,,
,,,,,,,,,,,,,,,,,,,,,,,,,,,,,,,,,,,,,,,,,c,1.881000042,C,FALSE,1,0,5,2,1,4,147,jaqueta,Catalan,Sounds/cat_jaqueta.mp3,2020-06-05_15h35.12.969,TranslationElicitation_eng-prolific,3.2.4,Win32,60,5eaca13a67ba8f30f90a2dc5,,,,,,,
,,,,,,,,,,,,,,,,,,,,,,,,,,,,,,,,,,,,,,,,,h,2.002000093,CH,FALSE,1,0,5,2,1,4,147,jaqueta,Catalan,Sounds/cat_jaqueta.mp3,2020-06-05_15h35.12.969,TranslationElicitation_eng-prolific,3.2.4,Win32,60,5eaca13a67ba8f30f90a2dc5,,,,,,,
,,,,,,,,,,,,,,,,,,,,,,,,,,,,,,,,,,,,,,,,,a,2.56400013,CHA,FALSE,1,0,5,2,1,4,147,jaqueta,Catalan,Sounds/cat_jaqueta.mp3,2020-06-05_15h35.12.969,TranslationElicitation_eng-prolific,3.2.4,Win32,60,5eaca13a67ba8f30f90a2dc5,,,,,,,
,,,,,,,,,,,,,,,,,,,,,,,,,,,,,,,,,,,,,,,,,q,3.345999956,CHAQ,FALSE,1,0,5,2,1,4,147,jaqueta,Catalan,Sounds/cat_jaqueta.mp3,2020-06-05_15h35.12.969,TranslationElicitation_eng-prolific,3.2.4,Win32,60,5eaca13a67ba8f30f90a2dc5,,,,,,,
,,,,,,,,,,,,,,,,,,,,,,,,,,,,,,,,,,,,,,,,,u,5.076999903,CHAQU,FALSE,1,0,5,2,1,4,147,jaqueta,Catalan,Sounds/cat_jaqueta.mp3,2020-06-05_15h35.12.969,TranslationElicitation_eng-prolific,3.2.4,Win32,60,5eaca13a67ba8f30f90a2dc5,,,,,,,
,,,,,,,,,,,,,,,,,,,,,,,,,,,,,,,,,,,,,,,,,e,5.180000067,CHAQUE,FALSE,1,0,5,2,1,4,147,jaqueta,Catalan,Sounds/cat_jaqueta.mp3,2020-06-05_15h35.12.969,TranslationElicitation_eng-prolific,3.2.4,Win32,60,5eaca13a67ba8f30f90a2dc5,,,,,,,
,,,,,,,,,,,,,,,,,,,,,,,,,,,,,,,,,,,,,,,,,t,5.311000109,CHAQUET,FALSE,1,0,5,2,1,4,147,jaqueta,Catalan,Sounds/cat_jaqueta.mp3,2020-06-05_15h35.12.969,TranslationElicitation_eng-prolific,3.2.4,Win32,60,5eaca13a67ba8f30f90a2dc5,,,,,,,
,,,,,,,,,,,,,,,,,,,,,,,,,,,,,,,,,,,,,,,,,t,5.427000046,CHAQUETT,FALSE,1,0,5,2,1,4,147,jaqueta,Catalan,Sounds/cat_jaqueta.mp3,2020-06-05_15h35.12.969,TranslationElicitation_eng-prolific,3.2.4,Win32,60,5eaca13a67ba8f30f90a2dc5,,,,,,,
,,,,,,,,,,,,,,,,,,,,,,,,,,,,,,,,,,,,,,,,,e,5.54399991,CHAQUETTE,FALSE,1,0,5,2,1,4,147,jaqueta,Catalan,Sounds/cat_jaqueta.mp3,2020-06-05_15h35.12.969,TranslationElicitation_eng-prolific,3.2.4,Win32,60,5eaca13a67ba8f30f90a2dc5,,,,,,,
,,,,,,,,,,,,,,,,,,,,,,,,,,,,,,,,,,,,,,,,,return,6.15899992,CHAQUETTE,FALSE,1,0,5,2,1,4,147,jaqueta,Catalan,Sounds/cat_jaqueta.mp3,2020-06-05_15h35.12.969,TranslationElicitation_eng-prolific,3.2.4,Win32,60,5eaca13a67ba8f30f90a2dc5,6.15899992,,,,,,
,,,,,,,,,,,,,,,,,,,,,,,,,,,,,,,,,,,,,,,,,,,,,1,0,5,2,1,4,147,jaqueta,Catalan,Sounds/cat_jaqueta.mp3,2020-06-05_15h35.12.969,TranslationElicitation_eng-prolific,3.2.4,Win32,60,5eaca13a67ba8f30f90a2dc5,,,,,,,
,,,,,,,,,,,,,,,,,,,,,,,,,,,,,,,,,,,,,,,,,p,2.462999821,P,FALSE,1,0,5,1,1,4,126,corona,Catalan,Sounds/cat_corona.mp3,2020-06-05_15h35.12.969,TranslationElicitation_eng-prolific,3.2.4,Win32,60,5eaca13a67ba8f30f90a2dc5,,,,,,,
,,,,,,,,,,,,,,,,,,,,,,,,,,,,,,,,,,,,,,,,,e,2.562999964,PE,FALSE,1,0,5,1,1,4,126,corona,Catalan,Sounds/cat_corona.mp3,2020-06-05_15h35.12.969,TranslationElicitation_eng-prolific,3.2.4,Win32,60,5eaca13a67ba8f30f90a2dc5,,,,,,,
,,,,,,,,,,,,,,,,,,,,,,,,,,,,,,,,,,,,,,,,,r,2.761999846,PER,FALSE,1,0,5,1,1,4,126,corona,Catalan,Sounds/cat_corona.mp3,2020-06-05_15h35.12.969,TranslationElicitation_eng-prolific,3.2.4,Win32,60,5eaca13a67ba8f30f90a2dc5,,,,,,,
,,,,,,,,,,,,,,,,,,,,,,,,,,,,,,,,,,,,,,,,,r,2.944999933,PERR,FALSE,1,0,5,1,1,4,126,corona,Catalan,Sounds/cat_corona.mp3,2020-06-05_15h35.12.969,TranslationElicitation_eng-prolific,3.2.4,Win32,60,5eaca13a67ba8f30f90a2dc5,,,,,,,
,,,,,,,,,,,,,,,,,,,,,,,,,,,,,,,,,,,,,,,,,o,2.995999813,PERRO,FALSE,1,0,5,1,1,4,126,corona,Catalan,Sounds/cat_corona.mp3,2020-06-05_15h35.12.969,TranslationElicitation_eng-prolific,3.2.4,Win32,60,5eaca13a67ba8f30f90a2dc5,,,,,,,
,,,,,,,,,,,,,,,,,,,,,,,,,,,,,,,,,,,,,,,,,n,3.211999893,PERRON,FALSE,1,0,5,1,1,4,126,corona,Catalan,Sounds/cat_corona.mp3,2020-06-05_15h35.12.969,TranslationElicitation_eng-prolific,3.2.4,Win32,60,5eaca13a67ba8f30f90a2dc5,,,,,,,
,,,,,,,,,,,,,,,,,,,,,,,,,,,,,,,,,,,,,,,,,return,3.510999918,PERRON,FALSE,1,0,5,1,1,4,126,corona,Catalan,Sounds/cat_corona.mp3,2020-06-05_15h35.12.969,TranslationElicitation_eng-prolific,3.2.4,Win32,60,5eaca13a67ba8f30f90a2dc5,3.510999918,,,,,,
,,,,,,,,,,,,,,,,,,,,,,,,,,,,,,,,,,,,,,,,,,,,,1,0,5,1,1,4,126,corona,Catalan,Sounds/cat_corona.mp3,2020-06-05_15h35.12.969,TranslationElicitation_eng-prolific,3.2.4,Win32,60,5eaca13a67ba8f30f90a2dc5,,,,,,,
,,,,,,,,,,,,,,,,,,,,,,,,,,,,,,,,,,,,,,,,,h,2.029999971,H,FALSE,1,0,5,0,1,4,109,arbre,Catalan,Sounds/cat_arbre.mp3,2020-06-05_15h35.12.969,TranslationElicitation_eng-prolific,3.2.4,Win32,60,5eaca13a67ba8f30f90a2dc5,,,,,,,
,,,,,,,,,,,,,,,,,,,,,,,,,,,,,,,,,,,,,,,,,a,2.11500001,HA,FALSE,1,0,5,0,1,4,109,arbre,Catalan,Sounds/cat_arbre.mp3,2020-06-05_15h35.12.969,TranslationElicitation_eng-prolific,3.2.4,Win32,60,5eaca13a67ba8f30f90a2dc5,,,,,,,
,,,,,,,,,,,,,,,,,,,,,,,,,,,,,,,,,,,,,,,,,b,2.36500001,HAB,FALSE,1,0,5,0,1,4,109,arbre,Catalan,Sounds/cat_arbre.mp3,2020-06-05_15h35.12.969,TranslationElicitation_eng-prolific,3.2.4,Win32,60,5eaca13a67ba8f30f90a2dc5,,,,,,,
,,,,,,,,,,,,,,,,,,,,,,,,,,,,,,,,,,,,,,,,,r,2.5,HABR,FALSE,1,0,5,0,1,4,109,arbre,Catalan,Sounds/cat_arbre.mp3,2020-06-05_15h35.12.969,TranslationElicitation_eng-prolific,3.2.4,Win32,60,5eaca13a67ba8f30f90a2dc5,,,,,,,
,,,,,,,,,,,,,,,,,,,,,,,,,,,,,,,,,,,,,,,,,o,2.631000042,HABRO,FALSE,1,0,5,0,1,4,109,arbre,Catalan,Sounds/cat_arbre.mp3,2020-06-05_15h35.12.969,TranslationElicitation_eng-prolific,3.2.4,Win32,60,5eaca13a67ba8f30f90a2dc5,,,,,,,
,,,,,,,,,,,,,,,,,,,,,,,,,,,,,,,,,,,,,,,,,return,2.930000067,HABRO,FALSE,1,0,5,0,1,4,109,arbre,Catalan,Sounds/cat_arbre.mp3,2020-06-05_15h35.12.969,TranslationElicitation_eng-prolific,3.2.4,Win32,60,5eaca13a67ba8f30f90a2dc5,2.930000067,,,,,,
,,,,,,,,,,,,,,,,,,,,,,,,,,,,,,,,,,,,,,,,,,,,,1,0,5,0,1,4,109,arbre,Catalan,Sounds/cat_arbre.mp3,2020-06-05_15h35.12.969,TranslationElicitation_eng-prolific,3.2.4,Win32,60,5eaca13a67ba8f30f90a2dc5,,,,,,,
,,,,,,,,,,,,,,,,,,,,,,,,,,,,,,,,,,,,,,,,,p,3.562000036,P,FALSE,,,,,,,169,plat,Catalan,Sounds/cat_plat.mp3,2020-06-05_15h35.12.969,TranslationElicitation_eng-prolific,3.2.4,Win32,60,5eaca13a67ba8f30f90a2dc5,,1,0,81,61,1,80
,,,,,,,,,,,,,,,,,,,,,,,,,,,,,,,,,,,,,,,,,l,3.746000051,PL,FALSE,,,,,,,169,plat,Catalan,Sounds/cat_plat.mp3,2020-06-05_15h35.12.969,TranslationElicitation_eng-prolific,3.2.4,Win32,60,5eaca13a67ba8f30f90a2dc5,,1,0,81,61,1,80
,,,,,,,,,,,,,,,,,,,,,,,,,,,,,,,,,,,,,,,,,a,3.796000004,PLA,FALSE,,,,,,,169,plat,Catalan,Sounds/cat_plat.mp3,2020-06-05_15h35.12.969,TranslationElicitation_eng-prolific,3.2.4,Win32,60,5eaca13a67ba8f30f90a2dc5,,1,0,81,61,1,80
,,,,,,,,,,,,,,,,,,,,,,,,,,,,,,,,,,,,,,,,,t,4.545000076,PLAT,FALSE,,,,,,,169,plat,Catalan,Sounds/cat_plat.mp3,2020-06-05_15h35.12.969,TranslationElicitation_eng-prolific,3.2.4,Win32,60,5eaca13a67ba8f30f90a2dc5,,1,0,81,61,1,80
,,,,,,,,,,,,,,,,,,,,,,,,,,,,,,,,,,,,,,,,,t,4.763000011,PLATT,FALSE,,,,,,,169,plat,Catalan,Sounds/cat_plat.mp3,2020-06-05_15h35.12.969,TranslationElicitation_eng-prolific,3.2.4,Win32,60,5eaca13a67ba8f30f90a2dc5,,1,0,81,61,1,80
,,,,,,,,,,,,,,,,,,,,,,,,,,,,,,,,,,,,,,,,,return,4.861000061,PLATT,FALSE,,,,,,,169,plat,Catalan,Sounds/cat_plat.mp3,2020-06-05_15h35.12.969,TranslationElicitation_eng-prolific,3.2.4,Win32,60,5eaca13a67ba8f30f90a2dc5,4.861000061,1,0,81,61,1,80
,,,,,,,,,,,,,,,,,,,,,,,,,,,,,,,,,,,,,,,,,,,,,,,,,,,169,plat,Catalan,Sounds/cat_plat.mp3,2020-06-05_15h35.12.969,TranslationElicitation_eng-prolific,3.2.4,Win32,60,5eaca13a67ba8f30f90a2dc5,,1,0,81,61,1,80
,,,,,,,,,,,,,,,,,,,,,,,,,,,,,,,,,,,,,,,,,p,1.664999962,P,FALSE,,,,,,,164,patata,Catalan,Sounds/cat_patata.mp3,2020-06-05_15h35.12.969,TranslationElicitation_eng-prolific,3.2.4,Win32,60,5eaca13a67ba8f30f90a2dc5,,1,0,81,56,1,80
,,,,,,,,,,,,,,,,,,,,,,,,,,,,,,,,,,,,,,,,,o,1.815000057,PO,FALSE,,,,,,,164,patata,Catalan,Sounds/cat_patata.mp3,2020-06-05_15h35.12.969,TranslationElicitation_eng-prolific,3.2.4,Win32,60,5eaca13a67ba8f30f90a2dc5,,1,0,81,56,1,80
,,,,,,,,,,,,,,,,,,,,,,,,,,,,,,,,,,,,,,,,,t,2.048000097,POT,FALSE,,,,,,,164,patata,Catalan,Sounds/cat_patata.mp3,2020-06-05_15h35.12.969,TranslationElicitation_eng-prolific,3.2.4,Win32,60,5eaca13a67ba8f30f90a2dc5,,1,0,81,56,1,80
,,,,,,,,,,,,,,,,,,,,,,,,,,,,,,,,,,,,,,,,,a,2.131000042,POTA,FALSE,,,,,,,164,patata,Catalan,Sounds/cat_patata.mp3,2020-06-05_15h35.12.969,TranslationElicitation_eng-prolific,3.2.4,Win32,60,5eaca13a67ba8f30f90a2dc5,,1,0,81,56,1,80
,,,,,,,,,,,,,,,,,,,,,,,,,,,,,,,,,,,,,,,,,t,2.231000185,POTAT,FALSE,,,,,,,164,patata,Catalan,Sounds/cat_patata.mp3,2020-06-05_15h35.12.969,TranslationElicitation_eng-prolific,3.2.4,Win32,60,5eaca13a67ba8f30f90a2dc5,,1,0,81,56,1,80
,,,,,,,,,,,,,,,,,,,,,,,,,,,,,,,,,,,,,,,,,o,2.463999987,POTATO,FALSE,,,,,,,164,patata,Catalan,Sounds/cat_patata.mp3,2020-06-05_15h35.12.969,TranslationElicitation_eng-prolific,3.2.4,Win32,60,5eaca13a67ba8f30f90a2dc5,,1,0,81,56,1,80
,,,,,,,,,,,,,,,,,,,,,,,,,,,,,,,,,,,,,,,,,return,2.680999994,POTATO,FALSE,,,,,,,164,patata,Catalan,Sounds/cat_patata.mp3,2020-06-05_15h35.12.969,TranslationElicitation_eng-prolific,3.2.4,Win32,60,5eaca13a67ba8f30f90a2dc5,2.680999994,1,0,81,56,1,80
,,,,,,,,,,,,,,,,,,,,,,,,,,,,,,,,,,,,,,,,,,,,,,,,,,,164,patata,Catalan,Sounds/cat_patata.mp3,2020-06-05_15h35.12.969,TranslationElicitation_eng-prolific,3.2.4,Win32,60,5eaca13a67ba8f30f90a2dc5,,1,0,81,56,1,80
,,,,,,,,,,,,,,,,,,,,,,,,,,,,,,,,,,,,,,,,,u,3.08100009,U,FALSE,,,,,,,186,ungla,Catalan,Sounds/cat_ungla.mp3,2020-06-05_15h35.12.969,TranslationElicitation_eng-prolific,3.2.4,Win32,60,5eaca13a67ba8f30f90a2dc5,,1,0,81,77,1,80
,,,,,,,,,,,,,,,,,,,,,,,,,,,,,,,,,,,,,,,,,m,3.33100009,UM,FALSE,,,,,,,186,ungla,Catalan,Sounds/cat_ungla.mp3,2020-06-05_15h35.12.969,TranslationElicitation_eng-prolific,3.2.4,Win32,60,5eaca13a67ba8f30f90a2dc5,,1,0,81,77,1,80
,,,,,,,,,,,,,,,,,,,,,,,,,,,,,,,,,,,,,,,,,b,3.529999971,UMB,FALSE,,,,,,,186,ungla,Catalan,Sounds/cat_ungla.mp3,2020-06-05_15h35.12.969,TranslationElicitation_eng-prolific,3.2.4,Win32,60,5eaca13a67ba8f30f90a2dc5,,1,0,81,77,1,80
,,,,,,,,,,,,,,,,,,,,,,,,,,,,,,,,,,,,,,,,,r,3.630000114,UMBR,FALSE,,,,,,,186,ungla,Catalan,Sounds/cat_ungla.mp3,2020-06-05_15h35.12.969,TranslationElicitation_eng-prolific,3.2.4,Win32,60,5eaca13a67ba8f30f90a2dc5,,1,0,81,77,1,80
,,,,,,,,,,,,,,,,,,,,,,,,,,,,,,,,,,,,,,,,,e,3.697000027,UMBRE,FALSE,,,,,,,186,ungla,Catalan,Sounds/cat_ungla.mp3,2020-06-05_15h35.12.969,TranslationElicitation_eng-prolific,3.2.4,Win32,60,5eaca13a67ba8f30f90a2dc5,,1,0,81,77,1,80
,,,,,,,,,,,,,,,,,,,,,,,,,,,,,,,,,,,,,,,,,l,3.798000097,UMBREL,FALSE,,,,,,,186,ungla,Catalan,Sounds/cat_ungla.mp3,2020-06-05_15h35.12.969,TranslationElicitation_eng-prolific,3.2.4,Win32,60,5eaca13a67ba8f30f90a2dc5,,1,0,81,77,1,80
,,,,,,,,,,,,,,,,,,,,,,,,,,,,,,,,,,,,,,,,,l,3.931999922,UMBRELL,FALSE,,,,,,,186,ungla,Catalan,Sounds/cat_ungla.mp3,2020-06-05_15h35.12.969,TranslationElicitation_eng-prolific,3.2.4,Win32,60,5eaca13a67ba8f30f90a2dc5,,1,0,81,77,1,80
,,,,,,,,,,,,,,,,,,,,,,,,,,,,,,,,,,,,,,,,,a,4.046999931,UMBRELLA,FALSE,,,,,,,186,ungla,Catalan,Sounds/cat_ungla.mp3,2020-06-05_15h35.12.969,TranslationElicitation_eng-prolific,3.2.4,Win32,60,5eaca13a67ba8f30f90a2dc5,,1,0,81,77,1,80
,,,,,,,,,,,,,,,,,,,,,,,,,,,,,,,,,,,,,,,,,return,4.164000034,UMBRELLA,FALSE,,,,,,,186,ungla,Catalan,Sounds/cat_ungla.mp3,2020-06-05_15h35.12.969,TranslationElicitation_eng-prolific,3.2.4,Win32,60,5eaca13a67ba8f30f90a2dc5,4.164000034,1,0,81,77,1,80
,,,,,,,,,,,,,,,,,,,,,,,,,,,,,,,,,,,,,,,,,,,,,,,,,,,186,ungla,Catalan,Sounds/cat_ungla.mp3,2020-06-05_15h35.12.969,TranslationElicitation_eng-prolific,3.2.4,Win32,60,5eaca13a67ba8f30f90a2dc5,,1,0,81,77,1,80
,,,,,,,,,,,,,,,,,,,,,,,,,,,,,,,,,,,,,,,,,a,2.515000105,A,FALSE,,,,,,,107,amanida,Catalan,Sounds/cat_amanida.mp3,2020-06-05_15h35.12.969,TranslationElicitation_eng-prolific,3.2.4,Win32,60,5eaca13a67ba8f30f90a2dc5,,1,0,81,3,1,80
,,,,,,,,,,,,,,,,,,,,,,,,,,,,,,,,,,,,,,,,,m,2.664000034,AM,FALSE,,,,,,,107,amanida,Catalan,Sounds/cat_amanida.mp3,2020-06-05_15h35.12.969,TranslationElicitation_eng-prolific,3.2.4,Win32,60,5eaca13a67ba8f30f90a2dc5,,1,0,81,3,1,80
,,,,,,,,,,,,,,,,,,,,,,,,,,,,,,,,,,,,,,,,,m,3.565000057,AMM,FALSE,,,,,,,107,amanida,Catalan,Sounds/cat_amanida.mp3,2020-06-05_15h35.12.969,TranslationElicitation_eng-prolific,3.2.4,Win32,60,5eaca13a67ba8f30f90a2dc5,,1,0,81,3,1,80
,,,,,,,,,,,,,,,,,,,,,,,,,,,,,,,,,,,,,,,,,o,3.812999964,AMMO,FALSE,,,,,,,107,amanida,Catalan,Sounds/cat_amanida.mp3,2020-06-05_15h35.12.969,TranslationElicitation_eng-prolific,3.2.4,Win32,60,5eaca13a67ba8f30f90a2dc5,,1,0,81,3,1,80
,,,,,,,,,,,,,,,,,,,,,,,,,,,,,,,,,,,,,,,,,n,4.095999956,AMMON,FALSE,,,,,,,107,amanida,Catalan,Sounds/cat_amanida.mp3,2020-06-05_15h35.12.969,TranslationElicitation_eng-prolific,3.2.4,Win32,60,5eaca13a67ba8f30f90a2dc5,,1,0,81,3,1,80
,,,,,,,,,,,,,,,,,,,,,,,,,,,,,,,,,,,,,,,,,a,4.212000132,AMMONA,FALSE,,,,,,,107,amanida,Catalan,Sounds/cat_amanida.mp3,2020-06-05_15h35.12.969,TranslationElicitation_eng-prolific,3.2.4,Win32,60,5eaca13a67ba8f30f90a2dc5,,1,0,81,3,1,80
,,,,,,,,,,,,,,,,,,,,,,,,,,,,,,,,,,,,,,,,,o,4.279000044,AMMONAO,FALSE,,,,,,,107,amanida,Catalan,Sounds/cat_amanida.mp3,2020-06-05_15h35.12.969,TranslationElicitation_eng-prolific,3.2.4,Win32,60,5eaca13a67ba8f30f90a2dc5,,1,0,81,3,1,80
,,,,,,,,,,,,,,,,,,,,,,,,,,,,,,,,,,,,,,,,,backspace,4.598999977,AMMONA,TRUE,,,,,,,107,amanida,Catalan,Sounds/cat_amanida.mp3,2020-06-05_15h35.12.969,TranslationElicitation_eng-prolific,3.2.4,Win32,60,5eaca13a67ba8f30f90a2dc5,,1,0,81,3,1,80
,,,,,,,,,,,,,,,,,,,,,,,,,,,,,,,,,,,,,,,,,backspace,4.728000164,AMMON,TRUE,,,,,,,107,amanida,Catalan,Sounds/cat_amanida.mp3,2020-06-05_15h35.12.969,TranslationElicitation_eng-prolific,3.2.4,Win32,60,5eaca13a67ba8f30f90a2dc5,,1,0,81,3,1,80
,,,,,,,,,,,,,,,,,,,,,,,,,,,,,,,,,,,,,,,,,o,4.83100009,AMMONO,TRUE,,,,,,,107,amanida,Catalan,Sounds/cat_amanida.mp3,2020-06-05_15h35.12.969,TranslationElicitation_eng-prolific,3.2.4,Win32,60,5eaca13a67ba8f30f90a2dc5,,1,0,81,3,1,80
,,,,,,,,,,,,,,,,,,,,,,,,,,,,,,,,,,,,,,,,,u,5.028000116,AMMONOU,TRUE,,,,,,,107,amanida,Catalan,Sounds/cat_amanida.mp3,2020-06-05_15h35.12.969,TranslationElicitation_eng-prolific,3.2.4,Win32,60,5eaca13a67ba8f30f90a2dc5,,1,0,81,3,1,80
,,,,,,,,,,,,,,,,,,,,,,,,,,,,,,,,,,,,,,,,,d,5.078000069,AMMONOUD,TRUE,,,,,,,107,amanida,Catalan,Sounds/cat_amanida.mp3,2020-06-05_15h35.12.969,TranslationElicitation_eng-prolific,3.2.4,Win32,60,5eaca13a67ba8f30f90a2dc5,,1,0,81,3,1,80
,,,,,,,,,,,,,,,,,,,,,,,,,,,,,,,,,,,,,,,,,backspace,5.463999987,AMMONOU,TRUE,,,,,,,107,amanida,Catalan,Sounds/cat_amanida.mp3,2020-06-05_15h35.12.969,TranslationElicitation_eng-prolific,3.2.4,Win32,60,5eaca13a67ba8f30f90a2dc5,,1,0,81,3,1,80
,,,,,,,,,,,,,,,,,,,,,,,,,,,,,,,,,,,,,,,,,backspace,5.595000029,AMMONO,TRUE,,,,,,,107,amanida,Catalan,Sounds/cat_amanida.mp3,2020-06-05_15h35.12.969,TranslationElicitation_eng-prolific,3.2.4,Win32,60,5eaca13a67ba8f30f90a2dc5,,1,0,81,3,1,80
,,,,,,,,,,,,,,,,,,,,,,,,,,,,,,,,,,,,,,,,,i,5.894000053,AMMONOI,TRUE,,,,,,,107,amanida,Catalan,Sounds/cat_amanida.mp3,2020-06-05_15h35.12.969,TranslationElicitation_eng-prolific,3.2.4,Win32,60,5eaca13a67ba8f30f90a2dc5,,1,0,81,3,1,80
,,,,,,,,,,,,,,,,,,,,,,,,,,,,,,,,,,,,,,,,,d,5.976000071,AMMONOID,TRUE,,,,,,,107,amanida,Catalan,Sounds/cat_amanida.mp3,2020-06-05_15h35.12.969,TranslationElicitation_eng-prolific,3.2.4,Win32,60,5eaca13a67ba8f30f90a2dc5,,1,0,81,3,1,80
,,,,,,,,,,,,,,,,,,,,,,,,,,,,,,,,,,,,,,,,,return,6.443000078,AMMONOID,TRUE,,,,,,,107,amanida,Catalan,Sounds/cat_amanida.mp3,2020-06-05_15h35.12.969,TranslationElicitation_eng-prolific,3.2.4,Win32,60,5eaca13a67ba8f30f90a2dc5,6.443000078,1,0,81,3,1,80
,,,,,,,,,,,,,,,,,,,,,,,,,,,,,,,,,,,,,,,,,,,,,,,,,,,107,amanida,Catalan,Sounds/cat_amanida.mp3,2020-06-05_15h35.12.969,TranslationElicitation_eng-prolific,3.2.4,Win32,60,5eaca13a67ba8f30f90a2dc5,,1,0,81,3,1,80
,,,,,,,,,,,,,,,,,,,,,,,,,,,,,,,,,,,,,,,,,s,2.211999893,S,FALSE,,,,,,,177,sol,Catalan,Sounds/cat_sol.mp3,2020-06-05_15h35.12.969,TranslationElicitation_eng-prolific,3.2.4,Win32,60,5eaca13a67ba8f30f90a2dc5,,1,0,81,69,1,80
,,,,,,,,,,,,,,,,,,,,,,,,,,,,,,,,,,,,,,,,,u,2.394999981,SU,FALSE,,,,,,,177,sol,Catalan,Sounds/cat_sol.mp3,2020-06-05_15h35.12.969,TranslationElicitation_eng-prolific,3.2.4,Win32,60,5eaca13a67ba8f30f90a2dc5,,1,0,81,69,1,80
,,,,,,,,,,,,,,,,,,,,,,,,,,,,,,,,,,,,,,,,,n,2.601999998,SUN,FALSE,,,,,,,177,sol,Catalan,Sounds/cat_sol.mp3,2020-06-05_15h35.12.969,TranslationElicitation_eng-prolific,3.2.4,Win32,60,5eaca13a67ba8f30f90a2dc5,,1,0,81,69,1,80
,,,,,,,,,,,,,,,,,,,,,,,,,,,,,,,,,,,,,,,,,return,2.811999798,SUN,FALSE,,,,,,,177,sol,Catalan,Sounds/cat_sol.mp3,2020-06-05_15h35.12.969,TranslationElicitation_eng-prolific,3.2.4,Win32,60,5eaca13a67ba8f30f90a2dc5,2.811999798,1,0,81,69,1,80
,,,,,,,,,,,,,,,,,,,,,,,,,,,,,,,,,,,,,,,,,,,,,,,,,,,177,sol,Catalan,Sounds/cat_sol.mp3,2020-06-05_15h35.12.969,TranslationElicitation_eng-prolific,3.2.4,Win32,60,5eaca13a67ba8f30f90a2dc5,,1,0,81,69,1,80
,,,,,,,,,,,,,,,,,,,,,,,,,,,,,,,,,,,,,,,,,return,3.031000137,,FALSE,,,,,,,180,tisores,Catalan,Sounds/cat_tisores.mp3,2020-06-05_15h35.12.969,TranslationElicitation_eng-prolific,3.2.4,Win32,60,5eaca13a67ba8f30f90a2dc5,3.031000137,1,0,81,71,1,80
,,,,,,,,,,,,,,,,,,,,,,,,,,,,,,,,,,,,,,,,,,,,,,,,,,,180,tisores,Catalan,Sounds/cat_tisores.mp3,2020-06-05_15h35.12.969,TranslationElicitation_eng-prolific,3.2.4,Win32,60,5eaca13a67ba8f30f90a2dc5,,1,0,81,71,1,80
,,,,,,,,,,,,,,,,,,,,,,,,,,,,,,,,,,,,,,,,,b,2.763000011,B,FALSE,,,,,,,110,berenar,Catalan,Sounds/cat_berenar.mp3,2020-06-05_15h35.12.969,TranslationElicitation_eng-prolific,3.2.4,Win32,60,5eaca13a67ba8f30f90a2dc5,,1,0,81,5,1,80
,,,,,,,,,,,,,,,,,,,,,,,,,,,,,,,,,,,,,,,,,r,2.911999941,BR,FALSE,,,,,,,110,berenar,Catalan,Sounds/cat_berenar.mp3,2020-06-05_15h35.12.969,TranslationElicitation_eng-prolific,3.2.4,Win32,60,5eaca13a67ba8f30f90a2dc5,,1,0,81,5,1,80
,,,,,,,,,,,,,,,,,,,,,,,,,,,,,,,,,,,,,,,,,o,3.062000036,BRO,FALSE,,,,,,,110,berenar,Catalan,Sounds/cat_berenar.mp3,2020-06-05_15h35.12.969,TranslationElicitation_eng-prolific,3.2.4,Win32,60,5eaca13a67ba8f30f90a2dc5,,1,0,81,5,1,80
,,,,,,,,,,,,,,,,,,,,,,,,,,,,,,,,,,,,,,,,,w,3.146000147,BROW,FALSE,,,,,,,110,berenar,Catalan,Sounds/cat_berenar.mp3,2020-06-05_15h35.12.969,TranslationElicitation_eng-prolific,3.2.4,Win32,60,5eaca13a67ba8f30f90a2dc5,,1,0,81,5,1,80
,,,,,,,,,,,,,,,,,,,,,,,,,,,,,,,,,,,,,,,,,n,3.262000084,BROWN,FALSE,,,,,,,110,berenar,Catalan,Sounds/cat_berenar.mp3,2020-06-05_15h35.12.969,TranslationElicitation_eng-prolific,3.2.4,Win32,60,5eaca13a67ba8f30f90a2dc5,,1,0,81,5,1,80
,,,,,,,,,,,,,,,,,,,,,,,,,,,,,,,,,,,,,,,,,return,3.513000011,BROWN,FALSE,,,,,,,110,berenar,Catalan,Sounds/cat_berenar.mp3,2020-06-05_15h35.12.969,TranslationElicitation_eng-prolific,3.2.4,Win32,60,5eaca13a67ba8f30f90a2dc5,3.513000011,1,0,81,5,1,80
,,,,,,,,,,,,,,,,,,,,,,,,,,,,,,,,,,,,,,,,,,,,,,,,,,,110,berenar,Catalan,Sounds/cat_berenar.mp3,2020-06-05_15h35.12.969,TranslationElicitation_eng-prolific,3.2.4,Win32,60,5eaca13a67ba8f30f90a2dc5,,1,0,81,5,1,80
,,,,,,,,,,,,,,,,,,,,,,,,,,,,,,,,,,,,,,,,,return,2.979999781,,FALSE,,,,,,,171,pollastre,Catalan,Sounds/cat_pollastre.mp3,2020-06-05_15h35.12.969,TranslationElicitation_eng-prolific,3.2.4,Win32,60,5eaca13a67ba8f30f90a2dc5,2.979999781,1,0,81,63,1,80
,,,,,,,,,,,,,,,,,,,,,,,,,,,,,,,,,,,,,,,,,,,,,,,,,,,171,pollastre,Catalan,Sounds/cat_pollastre.mp3,2020-06-05_15h35.12.969,TranslationElicitation_eng-prolific,3.2.4,Win32,60,5eaca13a67ba8f30f90a2dc5,,1,0,81,63,1,80
,,,,,,,,,,,,,,,,,,,,,,,,,,,,,,,,,,,,,,,,,c,6.007999897,C,FALSE,,,,,,,125,colom,Catalan,Sounds/cat_colom.mp3,2020-06-05_15h35.12.969,TranslationElicitation_eng-prolific,3.2.4,Win32,60,5eaca13a67ba8f30f90a2dc5,,1,0,81,20,1,80
,,,,,,,,,,,,,,,,,,,,,,,,,,,,,,,,,,,,,,,,,o,6.141000032,CO,FALSE,,,,,,,125,colom,Catalan,Sounds/cat_colom.mp3,2020-06-05_15h35.12.969,TranslationElicitation_eng-prolific,3.2.4,Win32,60,5eaca13a67ba8f30f90a2dc5,,1,0,81,20,1,80
,,,,,,,,,,,,,,,,,,,,,,,,,,,,,,,,,,,,,,,,,l,6.306999922,COL,FALSE,,,,,,,125,colom,Catalan,Sounds/cat_colom.mp3,2020-06-05_15h35.12.969,TranslationElicitation_eng-prolific,3.2.4,Win32,60,5eaca13a67ba8f30f90a2dc5,,1,0,81,20,1,80
,,,,,,,,,,,,,,,,,,,,,,,,,,,,,,,,,,,,,,,,,u,8.039000034,COLU,FALSE,,,,,,,125,colom,Catalan,Sounds/cat_colom.mp3,2020-06-05_15h35.12.969,TranslationElicitation_eng-prolific,3.2.4,Win32,60,5eaca13a67ba8f30f90a2dc5,,1,0,81,20,1,80
,,,,,,,,,,,,,,,,,,,,,,,,,,,,,,,,,,,,,,,,,m,8.221999884,COLUM,FALSE,,,,,,,125,colom,Catalan,Sounds/cat_colom.mp3,2020-06-05_15h35.12.969,TranslationElicitation_eng-prolific,3.2.4,Win32,60,5eaca13a67ba8f30f90a2dc5,,1,0,81,20,1,80
,,,,,,,,,,,,,,,,,,,,,,,,,,,,,,,,,,,,,,,,,n,8.388000011,COLUMN,FALSE,,,,,,,125,colom,Catalan,Sounds/cat_colom.mp3,2020-06-05_15h35.12.969,TranslationElicitation_eng-prolific,3.2.4,Win32,60,5eaca13a67ba8f30f90a2dc5,,1,0,81,20,1,80
,,,,,,,,,,,,,,,,,,,,,,,,,,,,,,,,,,,,,,,,,return,8.704999924,COLUMN,FALSE,,,,,,,125,colom,Catalan,Sounds/cat_colom.mp3,2020-06-05_15h35.12.969,TranslationElicitation_eng-prolific,3.2.4,Win32,60,5eaca13a67ba8f30f90a2dc5,8.704999924,1,0,81,20,1,80
,,,,,,,,,,,,,,,,,,,,,,,,,,,,,,,,,,,,,,,,,,,,,,,,,,,125,colom,Catalan,Sounds/cat_colom.mp3,2020-06-05_15h35.12.969,TranslationElicitation_eng-prolific,3.2.4,Win32,60,5eaca13a67ba8f30f90a2dc5,,1,0,81,20,1,80
,,,,,,,,,,,,,,,,,,,,,,,,,,,,,,,,,,,,,,,,,m,2.747999907,M,FALSE,,,,,,,154,mirall,Catalan,Sounds/cat_mirall.mp3,2020-06-05_15h35.12.969,TranslationElicitation_eng-prolific,3.2.4,Win32,60,5eaca13a67ba8f30f90a2dc5,,1,0,81,47,1,80
,,,,,,,,,,,,,,,,,,,,,,,,,,,,,,,,,,,,,,,,,i,3.667000055,MI,FALSE,,,,,,,154,mirall,Catalan,Sounds/cat_mirall.mp3,2020-06-05_15h35.12.969,TranslationElicitation_eng-prolific,3.2.4,Win32,60,5eaca13a67ba8f30f90a2dc5,,1,0,81,47,1,80
,,,,,,,,,,,,,,,,,,,,,,,,,,,,,,,,,,,,,,,,,r,3.796000004,MIR,FALSE,,,,,,,154,mirall,Catalan,Sounds/cat_mirall.mp3,2020-06-05_15h35.12.969,TranslationElicitation_eng-prolific,3.2.4,Win32,60,5eaca13a67ba8f30f90a2dc5,,1,0,81,47,1,80
,,,,,,,,,,,,,,,,,,,,,,,,,,,,,,,,,,,,,,,,,r,4.161999941,MIRR,FALSE,,,,,,,154,mirall,Catalan,Sounds/cat_mirall.mp3,2020-06-05_15h35.12.969,TranslationElicitation_eng-prolific,3.2.4,Win32,60,5eaca13a67ba8f30f90a2dc5,,1,0,81,47,1,80
,,,,,,,,,,,,,,,,,,,,,,,,,,,,,,,,,,,,,,,,,o,4.261999846,MIRRO,FALSE,,,,,,,154,mirall,Catalan,Sounds/cat_mirall.mp3,2020-06-05_15h35.12.969,TranslationElicitation_eng-prolific,3.2.4,Win32,60,5eaca13a67ba8f30f90a2dc5,,1,0,81,47,1,80
,,,,,,,,,,,,,,,,,,,,,,,,,,,,,,,,,,,,,,,,,r,4.664000034,MIRROR,FALSE,,,,,,,154,mirall,Catalan,Sounds/cat_mirall.mp3,2020-06-05_15h35.12.969,TranslationElicitation_eng-prolific,3.2.4,Win32,60,5eaca13a67ba8f30f90a2dc5,,1,0,81,47,1,80
,,,,,,,,,,,,,,,,,,,,,,,,,,,,,,,,,,,,,,,,,return,5.010999918,MIRROR,FALSE,,,,,,,154,mirall,Catalan,Sounds/cat_mirall.mp3,2020-06-05_15h35.12.969,TranslationElicitation_eng-prolific,3.2.4,Win32,60,5eaca13a67ba8f30f90a2dc5,5.010999918,1,0,81,47,1,80
,,,,,,,,,,,,,,,,,,,,,,,,,,,,,,,,,,,,,,,,,,,,,,,,,,,154,mirall,Catalan,Sounds/cat_mirall.mp3,2020-06-05_15h35.12.969,TranslationElicitation_eng-prolific,3.2.4,Win32,60,5eaca13a67ba8f30f90a2dc5,,1,0,81,47,1,80
,,,,,,,,,,,,,,,,,,,,,,,,,,,,,,,,,,,,,,,,,c,4.644999981,C,FALSE,,,,,,,138,galeta,Catalan,Sounds/cat_galeta.mp3,2020-06-05_15h35.12.969,TranslationElicitation_eng-prolific,3.2.4,Win32,60,5eaca13a67ba8f30f90a2dc5,,1,0,81,32,1,80
,,,,,,,,,,,,,,,,,,,,,,,,,,,,,,,,,,,,,,,,,o,4.861999989,CO,FALSE,,,,,,,138,galeta,Catalan,Sounds/cat_galeta.mp3,2020-06-05_15h35.12.969,TranslationElicitation_eng-prolific,3.2.4,Win32,60,5eaca13a67ba8f30f90a2dc5,,1,0,81,32,1,80
,,,,,,,,,,,,,,,,,,,,,,,,,,,,,,,,,,,,,,,,,l,5.012000084,COL,FALSE,,,,,,,138,galeta,Catalan,Sounds/cat_galeta.mp3,2020-06-05_15h35.12.969,TranslationElicitation_eng-prolific,3.2.4,Win32,60,5eaca13a67ba8f30f90a2dc5,,1,0,81,32,1,80
,,,,,,,,,,,,,,,,,,,,,,,,,,,,,,,,,,,,,,,,,l,5.120000124,COLL,FALSE,,,,,,,138,galeta,Catalan,Sounds/cat_galeta.mp3,2020-06-05_15h35.12.969,TranslationElicitation_eng-prolific,3.2.4,Win32,60,5eaca13a67ba8f30f90a2dc5,,1,0,81,32,1,80
,,,,,,,,,,,,,,,,,,,,,,,,,,,,,,,,,,,,,,,,,e,5.262000084,COLLE,FALSE,,,,,,,138,galeta,Catalan,Sounds/cat_galeta.mp3,2020-06-05_15h35.12.969,TranslationElicitation_eng-prolific,3.2.4,Win32,60,5eaca13a67ba8f30f90a2dc5,,1,0,81,32,1,80
,,,,,,,,,,,,,,,,,,,,,,,,,,,,,,,,,,,,,,,,,t,5.394999981,COLLET,FALSE,,,,,,,138,galeta,Catalan,Sounds/cat_galeta.mp3,2020-06-05_15h35.12.969,TranslationElicitation_eng-prolific,3.2.4,Win32,60,5eaca13a67ba8f30f90a2dc5,,1,0,81,32,1,80
,,,,,,,,,,,,,,,,,,,,,,,,,,,,,,,,,,,,,,,,,e,6.125999928,COLLETE,FALSE,,,,,,,138,galeta,Catalan,Sounds/cat_galeta.mp3,2020-06-05_15h35.12.969,TranslationElicitation_eng-prolific,3.2.4,Win32,60,5eaca13a67ba8f30f90a2dc5,,1,0,81,32,1,80
,,,,,,,,,,,,,,,,,,,,,,,,,,,,,,,,,,,,,,,,,return,6.309000015,COLLETE,FALSE,,,,,,,138,galeta,Catalan,Sounds/cat_galeta.mp3,2020-06-05_15h35.12.969,TranslationElicitation_eng-prolific,3.2.4,Win32,60,5eaca13a67ba8f30f90a2dc5,6.309000015,1,0,81,32,1,80
,,,,,,,,,,,,,,,,,,,,,,,,,,,,,,,,,,,,,,,,,,,,,,,,,,,138,galeta,Catalan,Sounds/cat_galeta.mp3,2020-06-05_15h35.12.969,TranslationElicitation_eng-prolific,3.2.4,Win32,60,5eaca13a67ba8f30f90a2dc5,,1,0,81,32,1,80
,,,,,,,,,,,,,,,,,,,,,,,,,,,,,,,,,,,,,,,,,return,2.312000036,,FALSE,,,,,,,155,moneda,Catalan,Sounds/cat_moneda.mp3,2020-06-05_15h35.12.969,TranslationElicitation_eng-prolific,3.2.4,Win32,60,5eaca13a67ba8f30f90a2dc5,2.312000036,1,0,81,48,1,80
,,,,,,,,,,,,,,,,,,,,,,,,,,,,,,,,,,,,,,,,,,,,,,,,,,,155,moneda,Catalan,Sounds/cat_moneda.mp3,2020-06-05_15h35.12.969,TranslationElicitation_eng-prolific,3.2.4,Win32,60,5eaca13a67ba8f30f90a2dc5,,1,0,81,48,1,80
,,,,,,,,,,,,,,,,,,,,,,,,,,,,,,,,,,,,,,,,,u,2.030999899,U,FALSE,,,,,,,160,orella,Catalan,Sounds/cat_orella.mp3,2020-06-05_15h35.12.969,TranslationElicitation_eng-prolific,3.2.4,Win32,60,5eaca13a67ba8f30f90a2dc5,,1,0,81,52,1,80
,,,,,,,,,,,,,,,,,,,,,,,,,,,,,,,,,,,,,,,,,m,2.214999914,UM,FALSE,,,,,,,160,orella,Catalan,Sounds/cat_orella.mp3,2020-06-05_15h35.12.969,TranslationElicitation_eng-prolific,3.2.4,Win32,60,5eaca13a67ba8f30f90a2dc5,,1,0,81,52,1,80
,,,,,,,,,,,,,,,,,,,,,,,,,,,,,,,,,,,,,,,,,b,2.447999954,UMB,FALSE,,,,,,,160,orella,Catalan,Sounds/cat_orella.mp3,2020-06-05_15h35.12.969,TranslationElicitation_eng-prolific,3.2.4,Win32,60,5eaca13a67ba8f30f90a2dc5,,1,0,81,52,1,80
,,,,,,,,,,,,,,,,,,,,,,,,,,,,,,,,,,,,,,,,,r,2.580999851,UMBR,FALSE,,,,,,,160,orella,Catalan,Sounds/cat_orella.mp3,2020-06-05_15h35.12.969,TranslationElicitation_eng-prolific,3.2.4,Win32,60,5eaca13a67ba8f30f90a2dc5,,1,0,81,52,1,80
,,,,,,,,,,,,,,,,,,,,,,,,,,,,,,,,,,,,,,,,,e,2.629999876,UMBRE,FALSE,,,,,,,160,orella,Catalan,Sounds/cat_orella.mp3,2020-06-05_15h35.12.969,TranslationElicitation_eng-prolific,3.2.4,Win32,60,5eaca13a67ba8f30f90a2dc5,,1,0,81,52,1,80
,,,,,,,,,,,,,,,,,,,,,,,,,,,,,,,,,,,,,,,,,l,2.812999964,UMBREL,FALSE,,,,,,,160,orella,Catalan,Sounds/cat_orella.mp3,2020-06-05_15h35.12.969,TranslationElicitation_eng-prolific,3.2.4,Win32,60,5eaca13a67ba8f30f90a2dc5,,1,0,81,52,1,80
,,,,,,,,,,,,,,,,,,,,,,,,,,,,,,,,,,,,,,,,,l,2.946999788,UMBRELL,FALSE,,,,,,,160,orella,Catalan,Sounds/cat_orella.mp3,2020-06-05_15h35.12.969,TranslationElicitation_eng-prolific,3.2.4,Win32,60,5eaca13a67ba8f30f90a2dc5,,1,0,81,52,1,80
,,,,,,,,,,,,,,,,,,,,,,,,,,,,,,,,,,,,,,,,,a,3.015999794,UMBRELLA,FALSE,,,,,,,160,orella,Catalan,Sounds/cat_orella.mp3,2020-06-05_15h35.12.969,TranslationElicitation_eng-prolific,3.2.4,Win32,60,5eaca13a67ba8f30f90a2dc5,,1,0,81,52,1,80
,,,,,,,,,,,,,,,,,,,,,,,,,,,,,,,,,,,,,,,,,return,3.329999924,UMBRELLA,FALSE,,,,,,,160,orella,Catalan,Sounds/cat_orella.mp3,2020-06-05_15h35.12.969,TranslationElicitation_eng-prolific,3.2.4,Win32,60,5eaca13a67ba8f30f90a2dc5,3.329999924,1,0,81,52,1,80
,,,,,,,,,,,,,,,,,,,,,,,,,,,,,,,,,,,,,,,,,,,,,,,,,,,160,orella,Catalan,Sounds/cat_orella.mp3,2020-06-05_15h35.12.969,TranslationElicitation_eng-prolific,3.2.4,Win32,60,5eaca13a67ba8f30f90a2dc5,,1,0,81,52,1,80
,,,,,,,,,,,,,,,,,,,,,,,,,,,,,,,,,,,,,,,,,g,1.413000107,G,FALSE,,,,,,,146,guitarra,Catalan,Sounds/cat_guitarra.mp3,2020-06-05_15h35.12.969,TranslationElicitation_eng-prolific,3.2.4,Win32,60,5eaca13a67ba8f30f90a2dc5,,1,0,81,40,1,80
,,,,,,,,,,,,,,,,,,,,,,,,,,,,,,,,,,,,,,,,,u,1.729000092,GU,FALSE,,,,,,,146,guitarra,Catalan,Sounds/cat_guitarra.mp3,2020-06-05_15h35.12.969,TranslationElicitation_eng-prolific,3.2.4,Win32,60,5eaca13a67ba8f30f90a2dc5,,1,0,81,40,1,80
,,,,,,,,,,,,,,,,,,,,,,,,,,,,,,,,,,,,,,,,,i,1.878000021,GUI,FALSE,,,,,,,146,guitarra,Catalan,Sounds/cat_guitarra.mp3,2020-06-05_15h35.12.969,TranslationElicitation_eng-prolific,3.2.4,Win32,60,5eaca13a67ba8f30f90a2dc5,,1,0,81,40,1,80
,,,,,,,,,,,,,,,,,,,,,,,,,,,,,,,,,,,,,,,,,t,2.061000109,GUIT,FALSE,,,,,,,146,guitarra,Catalan,Sounds/cat_guitarra.mp3,2020-06-05_15h35.12.969,TranslationElicitation_eng-prolific,3.2.4,Win32,60,5eaca13a67ba8f30f90a2dc5,,1,0,81,40,1,80
,,,,,,,,,,,,,,,,,,,,,,,,,,,,,,,,,,,,,,,,,a,2.197000027,GUITA,FALSE,,,,,,,146,guitarra,Catalan,Sounds/cat_guitarra.mp3,2020-06-05_15h35.12.969,TranslationElicitation_eng-prolific,3.2.4,Win32,60,5eaca13a67ba8f30f90a2dc5,,1,0,81,40,1,80
,,,,,,,,,,,,,,,,,,,,,,,,,,,,,,,,,,,,,,,,,t,2.717000008,GUITAT,FALSE,,,,,,,146,guitarra,Catalan,Sounds/cat_guitarra.mp3,2020-06-05_15h35.12.969,TranslationElicitation_eng-prolific,3.2.4,Win32,60,5eaca13a67ba8f30f90a2dc5,,1,0,81,40,1,80
,,,,,,,,,,,,,,,,,,,,,,,,,,,,,,,,,,,,,,,,,backspace,3.345000029,GUITA,TRUE,,,,,,,146,guitarra,Catalan,Sounds/cat_guitarra.mp3,2020-06-05_15h35.12.969,TranslationElicitation_eng-prolific,3.2.4,Win32,60,5eaca13a67ba8f30f90a2dc5,,1,0,81,40,1,80
,,,,,,,,,,,,,,,,,,,,,,,,,,,,,,,,,,,,,,,,,r,3.444000006,GUITAR,TRUE,,,,,,,146,guitarra,Catalan,Sounds/cat_guitarra.mp3,2020-06-05_15h35.12.969,TranslationElicitation_eng-prolific,3.2.4,Win32,60,5eaca13a67ba8f30f90a2dc5,,1,0,81,40,1,80
,,,,,,,,,,,,,,,,,,,,,,,,,,,,,,,,,,,,,,,,,return,3.544000149,GUITAR,TRUE,,,,,,,146,guitarra,Catalan,Sounds/cat_guitarra.mp3,2020-06-05_15h35.12.969,TranslationElicitation_eng-prolific,3.2.4,Win32,60,5eaca13a67ba8f30f90a2dc5,3.544000149,1,0,81,40,1,80
,,,,,,,,,,,,,,,,,,,,,,,,,,,,,,,,,,,,,,,,,,,,,,,,,,,146,guitarra,Catalan,Sounds/cat_guitarra.mp3,2020-06-05_15h35.12.969,TranslationElicitation_eng-prolific,3.2.4,Win32,60,5eaca13a67ba8f30f90a2dc5,,1,0,81,40,1,80
,,,,,,,,,,,,,,,,,,,,,,,,,,,,,,,,,,,,,,,,,w,4.826999903,W,FALSE,,,,,,,175,raspall,Catalan,Sounds/cat_raspall.mp3,2020-06-05_15h35.12.969,TranslationElicitation_eng-prolific,3.2.4,Win32,60,5eaca13a67ba8f30f90a2dc5,,1,0,81,67,1,80
,,,,,,,,,,,,,,,,,,,,,,,,,,,,,,,,,,,,,,,,,a,5.029000044,WA,FALSE,,,,,,,175,raspall,Catalan,Sounds/cat_raspall.mp3,2020-06-05_15h35.12.969,TranslationElicitation_eng-prolific,3.2.4,Win32,60,5eaca13a67ba8f30f90a2dc5,,1,0,81,67,1,80
,,,,,,,,,,,,,,,,,,,,,,,,,,,,,,,,,,,,,,,,,t,5.211999893,WAT,FALSE,,,,,,,175,raspall,Catalan,Sounds/cat_raspall.mp3,2020-06-05_15h35.12.969,TranslationElicitation_eng-prolific,3.2.4,Win32,60,5eaca13a67ba8f30f90a2dc5,,1,0,81,67,1,80
,,,,,,,,,,,,,,,,,,,,,,,,,,,,,,,,,,,,,,,,,c,5.316999912,WATC,FALSE,,,,,,,175,raspall,Catalan,Sounds/cat_raspall.mp3,2020-06-05_15h35.12.969,TranslationElicitation_eng-prolific,3.2.4,Win32,60,5eaca13a67ba8f30f90a2dc5,,1,0,81,67,1,80
,,,,,,,,,,,,,,,,,,,,,,,,,,,,,,,,,,,,,,,,,h,5.424999952,WATCH,FALSE,,,,,,,175,raspall,Catalan,Sounds/cat_raspall.mp3,2020-06-05_15h35.12.969,TranslationElicitation_eng-prolific,3.2.4,Win32,60,5eaca13a67ba8f30f90a2dc5,,1,0,81,67,1,80
,,,,,,,,,,,,,,,,,,,,,,,,,,,,,,,,,,,,,,,,,return,5.726000071,WATCH,FALSE,,,,,,,175,raspall,Catalan,Sounds/cat_raspall.mp3,2020-06-05_15h35.12.969,TranslationElicitation_eng-prolific,3.2.4,Win32,60,5eaca13a67ba8f30f90a2dc5,5.726000071,1,0,81,67,1,80
,,,,,,,,,,,,,,,,,,,,,,,,,,,,,,,,,,,,,,,,,,,,,,,,,,,175,raspall,Catalan,Sounds/cat_raspall.mp3,2020-06-05_15h35.12.969,TranslationElicitation_eng-prolific,3.2.4,Win32,60,5eaca13a67ba8f30f90a2dc5,,1,0,81,67,1,80
,,,,,,,,,,,,,,,,,,,,,,,,,,,,,,,,,,,,,,,,,return,4.713999987,,FALSE,,,,,,,108,ampolla,Catalan,Sounds/cat_ampolla.mp3,2020-06-05_15h35.12.969,TranslationElicitation_eng-prolific,3.2.4,Win32,60,5eaca13a67ba8f30f90a2dc5,4.713999987,1,0,81,4,1,80
,,,,,,,,,,,,,,,,,,,,,,,,,,,,,,,,,,,,,,,,,,,,,,,,,,,108,ampolla,Catalan,Sounds/cat_ampolla.mp3,2020-06-05_15h35.12.969,TranslationElicitation_eng-prolific,3.2.4,Win32,60,5eaca13a67ba8f30f90a2dc5,,1,0,81,4,1,80
,,,,,,,,,,,,,,,,,,,,,,,,,,,,,,,,,,,,,,,,,l,1.981000185,L,FALSE,,,,,,,139,galleda,Catalan,Sounds/cat_galleda.mp3,2020-06-05_15h35.12.969,TranslationElicitation_eng-prolific,3.2.4,Win32,60,5eaca13a67ba8f30f90a2dc5,,1,0,81,33,1,80
,,,,,,,,,,,,,,,,,,,,,,,,,,,,,,,,,,,,,,,,,e,2.097000122,LE,FALSE,,,,,,,139,galleda,Catalan,Sounds/cat_galleda.mp3,2020-06-05_15h35.12.969,TranslationElicitation_eng-prolific,3.2.4,Win32,60,5eaca13a67ba8f30f90a2dc5,,1,0,81,33,1,80
,,,,,,,,,,,,,,,,,,,,,,,,,,,,,,,,,,,,,,,,,a,2.213999987,LEA,FALSE,,,,,,,139,galleda,Catalan,Sounds/cat_galleda.mp3,2020-06-05_15h35.12.969,TranslationElicitation_eng-prolific,3.2.4,Win32,60,5eaca13a67ba8f30f90a2dc5,,1,0,81,33,1,80
,,,,,,,,,,,,,,,,,,,,,,,,,,,,,,,,,,,,,,,,,t,2.33100009,LEAT,FALSE,,,,,,,139,galleda,Catalan,Sounds/cat_galleda.mp3,2020-06-05_15h35.12.969,TranslationElicitation_eng-prolific,3.2.4,Win32,60,5eaca13a67ba8f30f90a2dc5,,1,0,81,33,1,80
,,,,,,,,,,,,,,,,,,,,,,,,,,,,,,,,,,,,,,,,,h,2.496999979,LEATH,FALSE,,,,,,,139,galleda,Catalan,Sounds/cat_galleda.mp3,2020-06-05_15h35.12.969,TranslationElicitation_eng-prolific,3.2.4,Win32,60,5eaca13a67ba8f30f90a2dc5,,1,0,81,33,1,80
,,,,,,,,,,,,,,,,,,,,,,,,,,,,,,,,,,,,,,,,,e,2.56400013,LEATHE,FALSE,,,,,,,139,galleda,Catalan,Sounds/cat_galleda.mp3,2020-06-05_15h35.12.969,TranslationElicitation_eng-prolific,3.2.4,Win32,60,5eaca13a67ba8f30f90a2dc5,,1,0,81,33,1,80
,,,,,,,,,,,,,,,,,,,,,,,,,,,,,,,,,,,,,,,,,r,2.677999973,LEATHER,FALSE,,,,,,,139,galleda,Catalan,Sounds/cat_galleda.mp3,2020-06-05_15h35.12.969,TranslationElicitation_eng-prolific,3.2.4,Win32,60,5eaca13a67ba8f30f90a2dc5,,1,0,81,33,1,80
,,,,,,,,,,,,,,,,,,,,,,,,,,,,,,,,,,,,,,,,,return,2.778000116,LEATHER,FALSE,,,,,,,139,galleda,Catalan,Sounds/cat_galleda.mp3,2020-06-05_15h35.12.969,TranslationElicitation_eng-prolific,3.2.4,Win32,60,5eaca13a67ba8f30f90a2dc5,2.778000116,1,0,81,33,1,80
,,,,,,,,,,,,,,,,,,,,,,,,,,,,,,,,,,,,,,,,,,,,,,,,,,,139,galleda,Catalan,Sounds/cat_galleda.mp3,2020-06-05_15h35.12.969,TranslationElicitation_eng-prolific,3.2.4,Win32,60,5eaca13a67ba8f30f90a2dc5,,1,0,81,33,1,80
,,,,,,,,,,,,,,,,,,,,,,,,,,,,,,,,,,,,,,,,,b,2.215999842,B,FALSE,,,,,,,112,bici,Catalan,Sounds/cat_bici.mp3,2020-06-05_15h35.12.969,TranslationElicitation_eng-prolific,3.2.4,Win32,60,5eaca13a67ba8f30f90a2dc5,,1,0,81,7,1,80
,,,,,,,,,,,,,,,,,,,,,,,,,,,,,,,,,,,,,,,,,e,2.348999977,BE,FALSE,,,,,,,112,bici,Catalan,Sounds/cat_bici.mp3,2020-06-05_15h35.12.969,TranslationElicitation_eng-prolific,3.2.4,Win32,60,5eaca13a67ba8f30f90a2dc5,,1,0,81,7,1,80
,,,,,,,,,,,,,,,,,,,,,,,,,,,,,,,,,,,,,,,,,e,2.483999968,BEE,FALSE,,,,,,,112,bici,Catalan,Sounds/cat_bici.mp3,2020-06-05_15h35.12.969,TranslationElicitation_eng-prolific,3.2.4,Win32,60,5eaca13a67ba8f30f90a2dc5,,1,0,81,7,1,80
,,,,,,,,,,,,,,,,,,,,,,,,,,,,,,,,,,,,,,,,,r,2.630999804,BEER,FALSE,,,,,,,112,bici,Catalan,Sounds/cat_bici.mp3,2020-06-05_15h35.12.969,TranslationElicitation_eng-prolific,3.2.4,Win32,60,5eaca13a67ba8f30f90a2dc5,,1,0,81,7,1,80
,,,,,,,,,,,,,,,,,,,,,,,,,,,,,,,,,,,,,,,,,return,2.763999939,BEER,FALSE,,,,,,,112,bici,Catalan,Sounds/cat_bici.mp3,2020-06-05_15h35.12.969,TranslationElicitation_eng-prolific,3.2.4,Win32,60,5eaca13a67ba8f30f90a2dc5,2.763999939,1,0,81,7,1,80
,,,,,,,,,,,,,,,,,,,,,,,,,,,,,,,,,,,,,,,,,,,,,,,,,,,112,bici,Catalan,Sounds/cat_bici.mp3,2020-06-05_15h35.12.969,TranslationElicitation_eng-prolific,3.2.4,Win32,60,5eaca13a67ba8f30f90a2dc5,,1,0,81,7,1,80
,,,,,,,,,,,,,,,,,,,,,,,,,,,,,,,,,,,,,,,,,g,2.381999969,G,FALSE,,,,,,,144,gorra,Catalan,Sounds/cat_gorra.mp3,2020-06-05_15h35.12.969,TranslationElicitation_eng-prolific,3.2.4,Win32,60,5eaca13a67ba8f30f90a2dc5,,1,0,81,38,1,80
,,,,,,,,,,,,,,,,,,,,,,,,,,,,,,,,,,,,,,,,,o,4.361999989,GO,FALSE,,,,,,,144,gorra,Catalan,Sounds/cat_gorra.mp3,2020-06-05_15h35.12.969,TranslationElicitation_eng-prolific,3.2.4,Win32,60,5eaca13a67ba8f30f90a2dc5,,1,0,81,38,1,80
,,,,,,,,,,,,,,,,,,,,,,,,,,,,,,,,,,,,,,,,,n,5.229999781,GON,FALSE,,,,,,,144,gorra,Catalan,Sounds/cat_gorra.mp3,2020-06-05_15h35.12.969,TranslationElicitation_eng-prolific,3.2.4,Win32,60,5eaca13a67ba8f30f90a2dc5,,1,0,81,38,1,80
,,,,,,,,,,,,,,,,,,,,,,,,,,,,,,,,,,,,,,,,,e,5.328999996,GONE,FALSE,,,,,,,144,gorra,Catalan,Sounds/cat_gorra.mp3,2020-06-05_15h35.12.969,TranslationElicitation_eng-prolific,3.2.4,Win32,60,5eaca13a67ba8f30f90a2dc5,,1,0,81,38,1,80
,,,,,,,,,,,,,,,,,,,,,,,,,,,,,,,,,,,,,,,,,return,5.462999821,GONE,FALSE,,,,,,,144,gorra,Catalan,Sounds/cat_gorra.mp3,2020-06-05_15h35.12.969,TranslationElicitation_eng-prolific,3.2.4,Win32,60,5eaca13a67ba8f30f90a2dc5,5.462999821,1,0,81,38,1,80
,,,,,,,,,,,,,,,,,,,,,,,,,,,,,,,,,,,,,,,,,,,,,,,,,,,144,gorra,Catalan,Sounds/cat_gorra.mp3,2020-06-05_15h35.12.969,TranslationElicitation_eng-prolific,3.2.4,Win32,60,5eaca13a67ba8f30f90a2dc5,,1,0,81,38,1,80
,,,,,,,,,,,,,,,,,,,,,,,,,,,,,,,,,,,,,,,,,t,1.279000044,T,FALSE,,,,,,,182,tomaquet,Catalan,Sounds/cat_tomaquet.mp3,2020-06-05_15h35.12.969,TranslationElicitation_eng-prolific,3.2.4,Win32,60,5eaca13a67ba8f30f90a2dc5,,1,0,81,73,1,80
,,,,,,,,,,,,,,,,,,,,,,,,,,,,,,,,,,,,,,,,,o,1.378999949,TO,FALSE,,,,,,,182,tomaquet,Catalan,Sounds/cat_tomaquet.mp3,2020-06-05_15h35.12.969,TranslationElicitation_eng-prolific,3.2.4,Win32,60,5eaca13a67ba8f30f90a2dc5,,1,0,81,73,1,80
,,,,,,,,,,,,,,,,,,,,,,,,,,,,,,,,,,,,,,,,,m,1.572999954,TOM,FALSE,,,,,,,182,tomaquet,Catalan,Sounds/cat_tomaquet.mp3,2020-06-05_15h35.12.969,TranslationElicitation_eng-prolific,3.2.4,Win32,60,5eaca13a67ba8f30f90a2dc5,,1,0,81,73,1,80
,,,,,,,,,,,,,,,,,,,,,,,,,,,,,,,,,,,,,,,,,a,1.696000099,TOMA,FALSE,,,,,,,182,tomaquet,Catalan,Sounds/cat_tomaquet.mp3,2020-06-05_15h35.12.969,TranslationElicitation_eng-prolific,3.2.4,Win32,60,5eaca13a67ba8f30f90a2dc5,,1,0,81,73,1,80
,,,,,,,,,,,,,,,,,,,,,,,,,,,,,,,,,,,,,,,,,t,1.897000074,TOMAT,FALSE,,,,,,,182,tomaquet,Catalan,Sounds/cat_tomaquet.mp3,2020-06-05_15h35.12.969,TranslationElicitation_eng-prolific,3.2.4,Win32,60,5eaca13a67ba8f30f90a2dc5,,1,0,81,73,1,80
,,,,,,,,,,,,,,,,,,,,,,,,,,,,,,,,,,,,,,,,,o,2.028000116,TOMATO,FALSE,,,,,,,182,tomaquet,Catalan,Sounds/cat_tomaquet.mp3,2020-06-05_15h35.12.969,TranslationElicitation_eng-prolific,3.2.4,Win32,60,5eaca13a67ba8f30f90a2dc5,,1,0,81,73,1,80
,,,,,,,,,,,,,,,,,,,,,,,,,,,,,,,,,,,,,,,,,return,2.378999949,TOMATO,FALSE,,,,,,,182,tomaquet,Catalan,Sounds/cat_tomaquet.mp3,2020-06-05_15h35.12.969,TranslationElicitation_eng-prolific,3.2.4,Win32,60,5eaca13a67ba8f30f90a2dc5,2.378999949,1,0,81,73,1,80
,,,,,,,,,,,,,,,,,,,,,,,,,,,,,,,,,,,,,,,,,,,,,,,,,,,182,tomaquet,Catalan,Sounds/cat_tomaquet.mp3,2020-06-05_15h35.12.969,TranslationElicitation_eng-prolific,3.2.4,Win32,60,5eaca13a67ba8f30f90a2dc5,,1,0,81,73,1,80
,,,,,,,,,,,,,,,,,,,,,,,,,,,,,,,,,,,,,,,,,b,4.727000237,B,FALSE,,,,,,,181,tobogan,Catalan,Sounds/cat_tobogan.mp3,2020-06-05_15h35.12.969,TranslationElicitation_eng-prolific,3.2.4,Win32,60,5eaca13a67ba8f30f90a2dc5,,1,0,81,72,1,80
,,,,,,,,,,,,,,,,,,,,,,,,,,,,,,,,,,,,,,,,,u,4.877000093,BU,FALSE,,,,,,,181,tobogan,Catalan,Sounds/cat_tobogan.mp3,2020-06-05_15h35.12.969,TranslationElicitation_eng-prolific,3.2.4,Win32,60,5eaca13a67ba8f30f90a2dc5,,1,0,81,72,1,80
,,,,,,,,,,,,,,,,,,,,,,,,,,,,,,,,,,,,,,,,,g,5.060000181,BUG,FALSE,,,,,,,181,tobogan,Catalan,Sounds/cat_tobogan.mp3,2020-06-05_15h35.12.969,TranslationElicitation_eng-prolific,3.2.4,Win32,60,5eaca13a67ba8f30f90a2dc5,,1,0,81,72,1,80
,,,,,,,,,,,,,,,,,,,,,,,,,,,,,,,,,,,,,,,,,l,5.277000189,BUGL,FALSE,,,,,,,181,tobogan,Catalan,Sounds/cat_tobogan.mp3,2020-06-05_15h35.12.969,TranslationElicitation_eng-prolific,3.2.4,Win32,60,5eaca13a67ba8f30f90a2dc5,,1,0,81,72,1,80
,,,,,,,,,,,,,,,,,,,,,,,,,,,,,,,,,,,,,,,,,e,5.392000198,BUGLE,FALSE,,,,,,,181,tobogan,Catalan,Sounds/cat_tobogan.mp3,2020-06-05_15h35.12.969,TranslationElicitation_eng-prolific,3.2.4,Win32,60,5eaca13a67ba8f30f90a2dc5,,1,0,81,72,1,80
,,,,,,,,,,,,,,,,,,,,,,,,,,,,,,,,,,,,,,,,,return,5.659000158,BUGLE,FALSE,,,,,,,181,tobogan,Catalan,Sounds/cat_tobogan.mp3,2020-06-05_15h35.12.969,TranslationElicitation_eng-prolific,3.2.4,Win32,60,5eaca13a67ba8f30f90a2dc5,5.659000158,1,0,81,72,1,80
,,,,,,,,,,,,,,,,,,,,,,,,,,,,,,,,,,,,,,,,,,,,,,,,,,,181,tobogan,Catalan,Sounds/cat_tobogan.mp3,2020-06-05_15h35.12.969,TranslationElicitation_eng-prolific,3.2.4,Win32,60,5eaca13a67ba8f30f90a2dc5,,1,0,81,72,1,80
,,,,,,,,,,,,,,,,,,,,,,,,,,,,,,,,,,,,,,,,,p,1.565000057,P,FALSE,,,,,,,163,papallona,Catalan,Sounds/cat_papallona.mp3,2020-06-05_15h35.12.969,TranslationElicitation_eng-prolific,3.2.4,Win32,60,5eaca13a67ba8f30f90a2dc5,,1,0,81,55,1,80
,,,,,,,,,,,,,,,,,,,,,,,,,,,,,,,,,,,,,,,,,a,1.665999889,PA,FALSE,,,,,,,163,papallona,Catalan,Sounds/cat_papallona.mp3,2020-06-05_15h35.12.969,TranslationElicitation_eng-prolific,3.2.4,Win32,60,5eaca13a67ba8f30f90a2dc5,,1,0,81,55,1,80
,,,,,,,,,,,,,,,,,,,,,,,,,,,,,,,,,,,,,,,,,p,1.766000032,PAP,FALSE,,,,,,,163,papallona,Catalan,Sounds/cat_papallona.mp3,2020-06-05_15h35.12.969,TranslationElicitation_eng-prolific,3.2.4,Win32,60,5eaca13a67ba8f30f90a2dc5,,1,0,81,55,1,80
,,,,,,,,,,,,,,,,,,,,,,,,,,,,,,,,,,,,,,,,,e,1.86500001,PAPE,FALSE,,,,,,,163,papallona,Catalan,Sounds/cat_papallona.mp3,2020-06-05_15h35.12.969,TranslationElicitation_eng-prolific,3.2.4,Win32,60,5eaca13a67ba8f30f90a2dc5,,1,0,81,55,1,80
,,,,,,,,,,,,,,,,,,,,,,,,,,,,,,,,,,,,,,,,,r,2.063999891,PAPER,FALSE,,,,,,,163,papallona,Catalan,Sounds/cat_papallona.mp3,2020-06-05_15h35.12.969,TranslationElicitation_eng-prolific,3.2.4,Win32,60,5eaca13a67ba8f30f90a2dc5,,1,0,81,55,1,80
,,,,,,,,,,,,,,,,,,,,,,,,,,,,,,,,,,,,,,,,,return,2.180999994,PAPER,FALSE,,,,,,,163,papallona,Catalan,Sounds/cat_papallona.mp3,2020-06-05_15h35.12.969,TranslationElicitation_eng-prolific,3.2.4,Win32,60,5eaca13a67ba8f30f90a2dc5,2.180999994,1,0,81,55,1,80
,,,,,,,,,,,,,,,,,,,,,,,,,,,,,,,,,,,,,,,,,,,,,,,,,,,163,papallona,Catalan,Sounds/cat_papallona.mp3,2020-06-05_15h35.12.969,TranslationElicitation_eng-prolific,3.2.4,Win32,60,5eaca13a67ba8f30f90a2dc5,,1,0,81,55,1,80
,,,,,,,,,,,,,,,,,,,,,,,,,,,,,,,,,,,,,,,,,l,2.447999954,L,FALSE,,,,,,,148,lleo,Catalan,Sounds/cat_lleo.mp3,2020-06-05_15h35.12.969,TranslationElicitation_eng-prolific,3.2.4,Win32,60,5eaca13a67ba8f30f90a2dc5,,1,0,81,41,1,80
,,,,,,,,,,,,,,,,,,,,,,,,,,,,,,,,,,,,,,,,,o,2.647000074,LO,FALSE,,,,,,,148,lleo,Catalan,Sounds/cat_lleo.mp3,2020-06-05_15h35.12.969,TranslationElicitation_eng-prolific,3.2.4,Win32,60,5eaca13a67ba8f30f90a2dc5,,1,0,81,41,1,80
,,,,,,,,,,,,,,,,,,,,,,,,,,,,,,,,,,,,,,,,,backspace,3.663000107,L,TRUE,,,,,,,148,lleo,Catalan,Sounds/cat_lleo.mp3,2020-06-05_15h35.12.969,TranslationElicitation_eng-prolific,3.2.4,Win32,60,5eaca13a67ba8f30f90a2dc5,,1,0,81,41,1,80
,,,,,,,,,,,,,,,,,,,,,,,,,,,,,,,,,,,,,,,,,backspace,3.812999964,,TRUE,,,,,,,148,lleo,Catalan,Sounds/cat_lleo.mp3,2020-06-05_15h35.12.969,TranslationElicitation_eng-prolific,3.2.4,Win32,60,5eaca13a67ba8f30f90a2dc5,,1,0,81,41,1,80
,,,,,,,,,,,,,,,,,,,,,,,,,,,,,,,,,,,,,,,,,a,4.014000177,A,TRUE,,,,,,,148,lleo,Catalan,Sounds/cat_lleo.mp3,2020-06-05_15h35.12.969,TranslationElicitation_eng-prolific,3.2.4,Win32,60,5eaca13a67ba8f30f90a2dc5,,1,0,81,41,1,80
,,,,,,,,,,,,,,,,,,,,,,,,,,,,,,,,,,,,,,,,,l,4.113000154,AL,TRUE,,,,,,,148,lleo,Catalan,Sounds/cat_lleo.mp3,2020-06-05_15h35.12.969,TranslationElicitation_eng-prolific,3.2.4,Win32,60,5eaca13a67ba8f30f90a2dc5,,1,0,81,41,1,80
,,,,,,,,,,,,,,,,,,,,,,,,,,,,,,,,,,,,,,,,,l,4.230000019,ALL,TRUE,,,,,,,148,lleo,Catalan,Sounds/cat_lleo.mp3,2020-06-05_15h35.12.969,TranslationElicitation_eng-prolific,3.2.4,Win32,60,5eaca13a67ba8f30f90a2dc5,,1,0,81,41,1,80
,,,,,,,,,,,,,,,,,,,,,,,,,,,,,,,,,,,,,,,,,o,4.399000168,ALLO,TRUE,,,,,,,148,lleo,Catalan,Sounds/cat_lleo.mp3,2020-06-05_15h35.12.969,TranslationElicitation_eng-prolific,3.2.4,Win32,60,5eaca13a67ba8f30f90a2dc5,,1,0,81,41,1,80
,,,,,,,,,,,,,,,,,,,,,,,,,,,,,,,,,,,,,,,,,w,4.514000177,ALLOW,TRUE,,,,,,,148,lleo,Catalan,Sounds/cat_lleo.mp3,2020-06-05_15h35.12.969,TranslationElicitation_eng-prolific,3.2.4,Win32,60,5eaca13a67ba8f30f90a2dc5,,1,0,81,41,1,80
,,,,,,,,,,,,,,,,,,,,,,,,,,,,,,,,,,,,,,,,,return,4.71600008,ALLOW,TRUE,,,,,,,148,lleo,Catalan,Sounds/cat_lleo.mp3,2020-06-05_15h35.12.969,TranslationElicitation_eng-prolific,3.2.4,Win32,60,5eaca13a67ba8f30f90a2dc5,4.71600008,1,0,81,41,1,80
,,,,,,,,,,,,,,,,,,,,,,,,,,,,,,,,,,,,,,,,,,,,,,,,,,,148,lleo,Catalan,Sounds/cat_lleo.mp3,2020-06-05_15h35.12.969,TranslationElicitation_eng-prolific,3.2.4,Win32,60,5eaca13a67ba8f30f90a2dc5,,1,0,81,41,1,80
,,,,,,,,,,,,,,,,,,,,,,,,,,,,,,,,,,,,,,,,,g,2.430000067,G,FALSE,,,,,,,127,cotxe,Catalan,Sounds/cat_cotxe.mp3,2020-06-05_15h35.12.969,TranslationElicitation_eng-prolific,3.2.4,Win32,60,5eaca13a67ba8f30f90a2dc5,,1,0,81,21,1,80
,,,,,,,,,,,,,,,,,,,,,,,,,,,,,,,,,,,,,,,,,o,2.546000004,GO,FALSE,,,,,,,127,cotxe,Catalan,Sounds/cat_cotxe.mp3,2020-06-05_15h35.12.969,TranslationElicitation_eng-prolific,3.2.4,Win32,60,5eaca13a67ba8f30f90a2dc5,,1,0,81,21,1,80
,,,,,,,,,,,,,,,,,,,,,,,,,,,,,,,,,,,,,,,,,t,2.645999908,GOT,FALSE,,,,,,,127,cotxe,Catalan,Sounds/cat_cotxe.mp3,2020-06-05_15h35.12.969,TranslationElicitation_eng-prolific,3.2.4,Win32,60,5eaca13a67ba8f30f90a2dc5,,1,0,81,21,1,80
,,,,,,,,,,,,,,,,,,,,,,,,,,,,,,,,,,,,,,,,,c,3.378999949,GOTC,FALSE,,,,,,,127,cotxe,Catalan,Sounds/cat_cotxe.mp3,2020-06-05_15h35.12.969,TranslationElicitation_eng-prolific,3.2.4,Win32,60,5eaca13a67ba8f30f90a2dc5,,1,0,81,21,1,80
,,,,,,,,,,,,,,,,,,,,,,,,,,,,,,,,,,,,,,,,,h,3.479000092,GOTCH,FALSE,,,,,,,127,cotxe,Catalan,Sounds/cat_cotxe.mp3,2020-06-05_15h35.12.969,TranslationElicitation_eng-prolific,3.2.4,Win32,60,5eaca13a67ba8f30f90a2dc5,,1,0,81,21,1,80
,,,,,,,,,,,,,,,,,,,,,,,,,,,,,,,,,,,,,,,,,a,3.627000093,GOTCHA,FALSE,,,,,,,127,cotxe,Catalan,Sounds/cat_cotxe.mp3,2020-06-05_15h35.12.969,TranslationElicitation_eng-prolific,3.2.4,Win32,60,5eaca13a67ba8f30f90a2dc5,,1,0,81,21,1,80
,,,,,,,,,,,,,,,,,,,,,,,,,,,,,,,,,,,,,,,,,return,3.877000093,GOTCHA,FALSE,,,,,,,127,cotxe,Catalan,Sounds/cat_cotxe.mp3,2020-06-05_15h35.12.969,TranslationElicitation_eng-prolific,3.2.4,Win32,60,5eaca13a67ba8f30f90a2dc5,3.877000093,1,0,81,21,1,80
,,,,,,,,,,,,,,,,,,,,,,,,,,,,,,,,,,,,,,,,,,,,,,,,,,,127,cotxe,Catalan,Sounds/cat_cotxe.mp3,2020-06-05_15h35.12.969,TranslationElicitation_eng-prolific,3.2.4,Win32,60,5eaca13a67ba8f30f90a2dc5,,1,0,81,21,1,80
,,,,,,,,,,,,,,,,,,,,,,,,,,,,,,,,,,,,,,,,,r,2.414000034,R,FALSE,,,,,,,149,llibre,Catalan,Sounds/cat_llibre.mp3,2020-06-05_15h35.12.969,TranslationElicitation_eng-prolific,3.2.4,Win32,60,5eaca13a67ba8f30f90a2dc5,,1,0,81,42,1,80
,,,,,,,,,,,,,,,,,,,,,,,,,,,,,,,,,,,,,,,,,e,2.463999987,RE,FALSE,,,,,,,149,llibre,Catalan,Sounds/cat_llibre.mp3,2020-06-05_15h35.12.969,TranslationElicitation_eng-prolific,3.2.4,Win32,60,5eaca13a67ba8f30f90a2dc5,,1,0,81,42,1,80
,,,,,,,,,,,,,,,,,,,,,,,,,,,,,,,,,,,,,,,,,a,2.614000082,REA,FALSE,,,,,,,149,llibre,Catalan,Sounds/cat_llibre.mp3,2020-06-05_15h35.12.969,TranslationElicitation_eng-prolific,3.2.4,Win32,60,5eaca13a67ba8f30f90a2dc5,,1,0,81,42,1,80
,,,,,,,,,,,,,,,,,,,,,,,,,,,,,,,,,,,,,,,,,d,2.713999987,READ,FALSE,,,,,,,149,llibre,Catalan,Sounds/cat_llibre.mp3,2020-06-05_15h35.12.969,TranslationElicitation_eng-prolific,3.2.4,Win32,60,5eaca13a67ba8f30f90a2dc5,,1,0,81,42,1,80
,,,,,,,,,,,,,,,,,,,,,,,,,,,,,,,,,,,,,,,,,return,2.847000122,READ,FALSE,,,,,,,149,llibre,Catalan,Sounds/cat_llibre.mp3,2020-06-05_15h35.12.969,TranslationElicitation_eng-prolific,3.2.4,Win32,60,5eaca13a67ba8f30f90a2dc5,2.847000122,1,0,81,42,1,80
,,,,,,,,,,,,,,,,,,,,,,,,,,,,,,,,,,,,,,,,,,,,,,,,,,,149,llibre,Catalan,Sounds/cat_llibre.mp3,2020-06-05_15h35.12.969,TranslationElicitation_eng-prolific,3.2.4,Win32,60,5eaca13a67ba8f30f90a2dc5,,1,0,81,42,1,80
,,,,,,,,,,,,,,,,,,,,,,,,,,,,,,,,,,,,,,,,,e,2.895999908,E,FALSE,,,,,,,124,cirera,Catalan,Sounds/cat_cirera.mp3,2020-06-05_15h35.12.969,TranslationElicitation_eng-prolific,3.2.4,Win32,60,5eaca13a67ba8f30f90a2dc5,,1,0,81,19,1,80
,,,,,,,,,,,,,,,,,,,,,,,,,,,,,,,,,,,,,,,,,a,2.996000051,EA,FALSE,,,,,,,124,cirera,Catalan,Sounds/cat_cirera.mp3,2020-06-05_15h35.12.969,TranslationElicitation_eng-prolific,3.2.4,Win32,60,5eaca13a67ba8f30f90a2dc5,,1,0,81,19,1,80
,,,,,,,,,,,,,,,,,,,,,,,,,,,,,,,,,,,,,,,,,t,3.211999893,EAT,FALSE,,,,,,,124,cirera,Catalan,Sounds/cat_cirera.mp3,2020-06-05_15h35.12.969,TranslationElicitation_eng-prolific,3.2.4,Win32,60,5eaca13a67ba8f30f90a2dc5,,1,0,81,19,1,80
,,,,,,,,,,,,,,,,,,,,,,,,,,,,,,,,,,,,,,,,,return,3.529999971,EAT,FALSE,,,,,,,124,cirera,Catalan,Sounds/cat_cirera.mp3,2020-06-05_15h35.12.969,TranslationElicitation_eng-prolific,3.2.4,Win32,60,5eaca13a67ba8f30f90a2dc5,3.529999971,1,0,81,19,1,80
,,,,,,,,,,,,,,,,,,,,,,,,,,,,,,,,,,,,,,,,,,,,,,,,,,,124,cirera,Catalan,Sounds/cat_cirera.mp3,2020-06-05_15h35.12.969,TranslationElicitation_eng-prolific,3.2.4,Win32,60,5eaca13a67ba8f30f90a2dc5,,1,0,81,19,1,80
,,,,,,,,,,,,,,,,,,,,,,,,,,,,,,,,,,,,,,,,,t,2.545000076,T,FALSE,,,,,,,123,cavall,Catalan,Sounds/cat_cavall.mp3,2020-06-05_15h35.12.969,TranslationElicitation_eng-prolific,3.2.4,Win32,60,5eaca13a67ba8f30f90a2dc5,,1,0,81,18,1,80
,,,,,,,,,,,,,,,,,,,,,,,,,,,,,,,,,,,,,,,,,i,2.661999941,TI,FALSE,,,,,,,123,cavall,Catalan,Sounds/cat_cavall.mp3,2020-06-05_15h35.12.969,TranslationElicitation_eng-prolific,3.2.4,Win32,60,5eaca13a67ba8f30f90a2dc5,,1,0,81,18,1,80
,,,,,,,,,,,,,,,,,,,,,,,,,,,,,,,,,,,,,,,,,e,2.727999926,TIE,FALSE,,,,,,,123,cavall,Catalan,Sounds/cat_cavall.mp3,2020-06-05_15h35.12.969,TranslationElicitation_eng-prolific,3.2.4,Win32,60,5eaca13a67ba8f30f90a2dc5,,1,0,81,18,1,80
,,,,,,,,,,,,,,,,,,,,,,,,,,,,,,,,,,,,,,,,,return,2.927999973,TIE,FALSE,,,,,,,123,cavall,Catalan,Sounds/cat_cavall.mp3,2020-06-05_15h35.12.969,TranslationElicitation_eng-prolific,3.2.4,Win32,60,5eaca13a67ba8f30f90a2dc5,2.927999973,1,0,81,18,1,80
,,,,,,,,,,,,,,,,,,,,,,,,,,,,,,,,,,,,,,,,,,,,,,,,,,,123,cavall,Catalan,Sounds/cat_cavall.mp3,2020-06-05_15h35.12.969,TranslationElicitation_eng-prolific,3.2.4,Win32,60,5eaca13a67ba8f30f90a2dc5,,1,0,81,18,1,80
,,,,,,,,,,,,,,,,,,,,,,,,,,,,,,,,,,,,,,,,,a,1.448999882,A,FALSE,,,,,,,132,estrella,Catalan,Sounds/cat_estrella.mp3,2020-06-05_15h35.12.969,TranslationElicitation_eng-prolific,3.2.4,Win32,60,5eaca13a67ba8f30f90a2dc5,,1,0,81,26,1,80
,,,,,,,,,,,,,,,,,,,,,,,,,,,,,,,,,,,,,,,,,u,1.582000017,AU,FALSE,,,,,,,132,estrella,Catalan,Sounds/cat_estrella.mp3,2020-06-05_15h35.12.969,TranslationElicitation_eng-prolific,3.2.4,Win32,60,5eaca13a67ba8f30f90a2dc5,,1,0,81,26,1,80
,,,,,,,,,,,,,,,,,,,,,,,,,,,,,,,,,,,,,,,,,s,1.797999859,AUS,FALSE,,,,,,,132,estrella,Catalan,Sounds/cat_estrella.mp3,2020-06-05_15h35.12.969,TranslationElicitation_eng-prolific,3.2.4,Win32,60,5eaca13a67ba8f30f90a2dc5,,1,0,81,26,1,80
,,,,,,,,,,,,,,,,,,,,,,,,,,,,,,,,,,,,,,,,,t,1.931999922,AUST,FALSE,,,,,,,132,estrella,Catalan,Sounds/cat_estrella.mp3,2020-06-05_15h35.12.969,TranslationElicitation_eng-prolific,3.2.4,Win32,60,5eaca13a67ba8f30f90a2dc5,,1,0,81,26,1,80
,,,,,,,,,,,,,,,,,,,,,,,,,,,,,,,,,,,,,,,,,r,2.016000032,AUSTR,FALSE,,,,,,,132,estrella,Catalan,Sounds/cat_estrella.mp3,2020-06-05_15h35.12.969,TranslationElicitation_eng-prolific,3.2.4,Win32,60,5eaca13a67ba8f30f90a2dc5,,1,0,81,26,1,80
,,,,,,,,,,,,,,,,,,,,,,,,,,,,,,,,,,,,,,,,,a,2.131000042,AUSTRA,FALSE,,,,,,,132,estrella,Catalan,Sounds/cat_estrella.mp3,2020-06-05_15h35.12.969,TranslationElicitation_eng-prolific,3.2.4,Win32,60,5eaca13a67ba8f30f90a2dc5,,1,0,81,26,1,80
,,,,,,,,,,,,,,,,,,,,,,,,,,,,,,,,,,,,,,,,,l,2.247999907,AUSTRAL,FALSE,,,,,,,132,estrella,Catalan,Sounds/cat_estrella.mp3,2020-06-05_15h35.12.969,TranslationElicitation_eng-prolific,3.2.4,Win32,60,5eaca13a67ba8f30f90a2dc5,,1,0,81,26,1,80
,,,,,,,,,,,,,,,,,,,,,,,,,,,,,,,,,,,,,,,,,i,2.414000034,AUSTRALI,FALSE,,,,,,,132,estrella,Catalan,Sounds/cat_estrella.mp3,2020-06-05_15h35.12.969,TranslationElicitation_eng-prolific,3.2.4,Win32,60,5eaca13a67ba8f30f90a2dc5,,1,0,81,26,1,80
,,,,,,,,,,,,,,,,,,,,,,,,,,,,,,,,,,,,,,,,,a,2.497999907,AUSTRALIA,FALSE,,,,,,,132,estrella,Catalan,Sounds/cat_estrella.mp3,2020-06-05_15h35.12.969,TranslationElicitation_eng-prolific,3.2.4,Win32,60,5eaca13a67ba8f30f90a2dc5,,1,0,81,26,1,80
,,,,,,,,,,,,,,,,,,,,,,,,,,,,,,,,,,,,,,,,,return,3.146999836,AUSTRALIA,FALSE,,,,,,,132,estrella,Catalan,Sounds/cat_estrella.mp3,2020-06-05_15h35.12.969,TranslationElicitation_eng-prolific,3.2.4,Win32,60,5eaca13a67ba8f30f90a2dc5,3.146999836,1,0,81,26,1,80
,,,,,,,,,,,,,,,,,,,,,,,,,,,,,,,,,,,,,,,,,,,,,,,,,,,132,estrella,Catalan,Sounds/cat_estrella.mp3,2020-06-05_15h35.12.969,TranslationElicitation_eng-prolific,3.2.4,Win32,60,5eaca13a67ba8f30f90a2dc5,,1,0,81,26,1,80
,,,,,,,,,,,,,,,,,,,,,,,,,,,,,,,,,,,,,,,,,c,2.496999979,C,FALSE,,,,,,,141,gerd,Catalan,Sounds/cat_gerd.mp3,2020-06-05_15h35.12.969,TranslationElicitation_eng-prolific,3.2.4,Win32,60,5eaca13a67ba8f30f90a2dc5,,1,0,81,35,1,80
,,,,,,,,,,,,,,,,,,,,,,,,,,,,,,,,,,,,,,,,,h,2.596000195,CH,FALSE,,,,,,,141,gerd,Catalan,Sounds/cat_gerd.mp3,2020-06-05_15h35.12.969,TranslationElicitation_eng-prolific,3.2.4,Win32,60,5eaca13a67ba8f30f90a2dc5,,1,0,81,35,1,80
,,,,,,,,,,,,,,,,,,,,,,,,,,,,,,,,,,,,,,,,,a,2.713000059,CHA,FALSE,,,,,,,141,gerd,Catalan,Sounds/cat_gerd.mp3,2020-06-05_15h35.12.969,TranslationElicitation_eng-prolific,3.2.4,Win32,60,5eaca13a67ba8f30f90a2dc5,,1,0,81,35,1,80
,,,,,,,,,,,,,,,,,,,,,,,,,,,,,,,,,,,,,,,,,i,2.846000195,CHAI,FALSE,,,,,,,141,gerd,Catalan,Sounds/cat_gerd.mp3,2020-06-05_15h35.12.969,TranslationElicitation_eng-prolific,3.2.4,Win32,60,5eaca13a67ba8f30f90a2dc5,,1,0,81,35,1,80
,,,,,,,,,,,,,,,,,,,,,,,,,,,,,,,,,,,,,,,,,r,2.929000139,CHAIR,FALSE,,,,,,,141,gerd,Catalan,Sounds/cat_gerd.mp3,2020-06-05_15h35.12.969,TranslationElicitation_eng-prolific,3.2.4,Win32,60,5eaca13a67ba8f30f90a2dc5,,1,0,81,35,1,80
,,,,,,,,,,,,,,,,,,,,,,,,,,,,,,,,,,,,,,,,,return,3.146000147,CHAIR,FALSE,,,,,,,141,gerd,Catalan,Sounds/cat_gerd.mp3,2020-06-05_15h35.12.969,TranslationElicitation_eng-prolific,3.2.4,Win32,60,5eaca13a67ba8f30f90a2dc5,3.146000147,1,0,81,35,1,80
,,,,,,,,,,,,,,,,,,,,,,,,,,,,,,,,,,,,,,,,,,,,,,,,,,,141,gerd,Catalan,Sounds/cat_gerd.mp3,2020-06-05_15h35.12.969,TranslationElicitation_eng-prolific,3.2.4,Win32,60,5eaca13a67ba8f30f90a2dc5,,1,0,81,35,1,80
,,,,,,,,,,,,,,,,,,,,,,,,,,,,,,,,,,,,,,,,,a,2.048000097,A,FALSE,,,,,,,172,poma,Catalan,Sounds/cat_poma.mp3,2020-06-05_15h35.12.969,TranslationElicitation_eng-prolific,3.2.4,Win32,60,5eaca13a67ba8f30f90a2dc5,,1,0,81,64,1,80
,,,,,,,,,,,,,,,,,,,,,,,,,,,,,,,,,,,,,,,,,p,2.164000034,AP,FALSE,,,,,,,172,poma,Catalan,Sounds/cat_poma.mp3,2020-06-05_15h35.12.969,TranslationElicitation_eng-prolific,3.2.4,Win32,60,5eaca13a67ba8f30f90a2dc5,,1,0,81,64,1,80
,,,,,,,,,,,,,,,,,,,,,,,,,,,,,,,,,,,,,,,,,p,2.29700017,APP,FALSE,,,,,,,172,poma,Catalan,Sounds/cat_poma.mp3,2020-06-05_15h35.12.969,TranslationElicitation_eng-prolific,3.2.4,Win32,60,5eaca13a67ba8f30f90a2dc5,,1,0,81,64,1,80
,,,,,,,,,,,,,,,,,,,,,,,,,,,,,,,,,,,,,,,,,l,2.464000225,APPL,FALSE,,,,,,,172,poma,Catalan,Sounds/cat_poma.mp3,2020-06-05_15h35.12.969,TranslationElicitation_eng-prolific,3.2.4,Win32,60,5eaca13a67ba8f30f90a2dc5,,1,0,81,64,1,80
,,,,,,,,,,,,,,,,,,,,,,,,,,,,,,,,,,,,,,,,,e,2.56400013,APPLE,FALSE,,,,,,,172,poma,Catalan,Sounds/cat_poma.mp3,2020-06-05_15h35.12.969,TranslationElicitation_eng-prolific,3.2.4,Win32,60,5eaca13a67ba8f30f90a2dc5,,1,0,81,64,1,80
,,,,,,,,,,,,,,,,,,,,,,,,,,,,,,,,,,,,,,,,,return,2.680000067,APPLE,FALSE,,,,,,,172,poma,Catalan,Sounds/cat_poma.mp3,2020-06-05_15h35.12.969,TranslationElicitation_eng-prolific,3.2.4,Win32,60,5eaca13a67ba8f30f90a2dc5,2.680000067,1,0,81,64,1,80
,,,,,,,,,,,,,,,,,,,,,,,,,,,,,,,,,,,,,,,,,,,,,,,,,,,172,poma,Catalan,Sounds/cat_poma.mp3,2020-06-05_15h35.12.969,TranslationElicitation_eng-prolific,3.2.4,Win32,60,5eaca13a67ba8f30f90a2dc5,,1,0,81,64,1,80
,,,,,,,,,,,,,,,,,,,,,,,,,,,,,,,,,,,,,,,,,b,1.948999882,B,FALSE,,,,,,,114,bol,Catalan,Sounds/cat_bol.mp3,2020-06-05_15h35.12.969,TranslationElicitation_eng-prolific,3.2.4,Win32,60,5eaca13a67ba8f30f90a2dc5,,1,0,81,9,1,80
,,,,,,,,,,,,,,,,,,,,,,,,,,,,,,,,,,,,,,,,,a,2.131999969,BA,FALSE,,,,,,,114,bol,Catalan,Sounds/cat_bol.mp3,2020-06-05_15h35.12.969,TranslationElicitation_eng-prolific,3.2.4,Win32,60,5eaca13a67ba8f30f90a2dc5,,1,0,81,9,1,80
,,,,,,,,,,,,,,,,,,,,,,,,,,,,,,,,,,,,,,,,,l,2.214999914,BAL,FALSE,,,,,,,114,bol,Catalan,Sounds/cat_bol.mp3,2020-06-05_15h35.12.969,TranslationElicitation_eng-prolific,3.2.4,Win32,60,5eaca13a67ba8f30f90a2dc5,,1,0,81,9,1,80
,,,,,,,,,,,,,,,,,,,,,,,,,,,,,,,,,,,,,,,,,l,2.315000057,BALL,FALSE,,,,,,,114,bol,Catalan,Sounds/cat_bol.mp3,2020-06-05_15h35.12.969,TranslationElicitation_eng-prolific,3.2.4,Win32,60,5eaca13a67ba8f30f90a2dc5,,1,0,81,9,1,80
,,,,,,,,,,,,,,,,,,,,,,,,,,,,,,,,,,,,,,,,,return,2.530999899,BALL,FALSE,,,,,,,114,bol,Catalan,Sounds/cat_bol.mp3,2020-06-05_15h35.12.969,TranslationElicitation_eng-prolific,3.2.4,Win32,60,5eaca13a67ba8f30f90a2dc5,2.530999899,1,0,81,9,1,80
,,,,,,,,,,,,,,,,,,,,,,,,,,,,,,,,,,,,,,,,,,,,,,,,,,,114,bol,Catalan,Sounds/cat_bol.mp3,2020-06-05_15h35.12.969,TranslationElicitation_eng-prolific,3.2.4,Win32,60,5eaca13a67ba8f30f90a2dc5,,1,0,81,9,1,80
,,,,,,,,,,,,,,,,,,,,,,,,,,,,,,,,,,,,,,,,,s,1.697000027,S,FALSE,,,,,,,131,esponja,Catalan,Sounds/cat_esponja.mp3,2020-06-05_15h35.12.969,TranslationElicitation_eng-prolific,3.2.4,Win32,60,5eaca13a67ba8f30f90a2dc5,,1,0,81,25,1,80
,,,,,,,,,,,,,,,,,,,,,,,,,,,,,,,,,,,,,,,,,p,1.812999964,SP,FALSE,,,,,,,131,esponja,Catalan,Sounds/cat_esponja.mp3,2020-06-05_15h35.12.969,TranslationElicitation_eng-prolific,3.2.4,Win32,60,5eaca13a67ba8f30f90a2dc5,,1,0,81,25,1,80
,,,,,,,,,,,,,,,,,,,,,,,,,,,,,,,,,,,,,,,,,o,1.963000059,SPO,FALSE,,,,,,,131,esponja,Catalan,Sounds/cat_esponja.mp3,2020-06-05_15h35.12.969,TranslationElicitation_eng-prolific,3.2.4,Win32,60,5eaca13a67ba8f30f90a2dc5,,1,0,81,25,1,80
,,,,,,,,,,,,,,,,,,,,,,,,,,,,,,,,,,,,,,,,,n,2.162999868,SPON,FALSE,,,,,,,131,esponja,Catalan,Sounds/cat_esponja.mp3,2020-06-05_15h35.12.969,TranslationElicitation_eng-prolific,3.2.4,Win32,60,5eaca13a67ba8f30f90a2dc5,,1,0,81,25,1,80
,,,,,,,,,,,,,,,,,,,,,,,,,,,,,,,,,,,,,,,,,g,2.348999977,SPONG,FALSE,,,,,,,131,esponja,Catalan,Sounds/cat_esponja.mp3,2020-06-05_15h35.12.969,TranslationElicitation_eng-prolific,3.2.4,Win32,60,5eaca13a67ba8f30f90a2dc5,,1,0,81,25,1,80
,,,,,,,,,,,,,,,,,,,,,,,,,,,,,,,,,,,,,,,,,e,2.529000044,SPONGE,FALSE,,,,,,,131,esponja,Catalan,Sounds/cat_esponja.mp3,2020-06-05_15h35.12.969,TranslationElicitation_eng-prolific,3.2.4,Win32,60,5eaca13a67ba8f30f90a2dc5,,1,0,81,25,1,80
,,,,,,,,,,,,,,,,,,,,,,,,,,,,,,,,,,,,,,,,,return,2.696000099,SPONGE,FALSE,,,,,,,131,esponja,Catalan,Sounds/cat_esponja.mp3,2020-06-05_15h35.12.969,TranslationElicitation_eng-prolific,3.2.4,Win32,60,5eaca13a67ba8f30f90a2dc5,2.696000099,1,0,81,25,1,80
,,,,,,,,,,,,,,,,,,,,,,,,,,,,,,,,,,,,,,,,,,,,,,,,,,,131,esponja,Catalan,Sounds/cat_esponja.mp3,2020-06-05_15h35.12.969,TranslationElicitation_eng-prolific,3.2.4,Win32,60,5eaca13a67ba8f30f90a2dc5,,1,0,81,25,1,80
,,,,,,,,,,,,,,,,,,,,,,,,,,,,,,,,,,,,,,,,,g,2.163000107,G,FALSE,,,,,,,140,gat,Catalan,Sounds/cat_gat.mp3,2020-06-05_15h35.12.969,TranslationElicitation_eng-prolific,3.2.4,Win32,60,5eaca13a67ba8f30f90a2dc5,,1,0,81,34,1,80
,,,,,,,,,,,,,,,,,,,,,,,,,,,,,,,,,,,,,,,,,u,2.363000154,GU,FALSE,,,,,,,140,gat,Catalan,Sounds/cat_gat.mp3,2020-06-05_15h35.12.969,TranslationElicitation_eng-prolific,3.2.4,Win32,60,5eaca13a67ba8f30f90a2dc5,,1,0,81,34,1,80
,,,,,,,,,,,,,,,,,,,,,,,,,,,,,,,,,,,,,,,,,a,2.429000139,GUA,FALSE,,,,,,,140,gat,Catalan,Sounds/cat_gat.mp3,2020-06-05_15h35.12.969,TranslationElicitation_eng-prolific,3.2.4,Win32,60,5eaca13a67ba8f30f90a2dc5,,1,0,81,34,1,80
,,,,,,,,,,,,,,,,,,,,,,,,,,,,,,,,,,,,,,,,,r,2.562999964,GUAR,FALSE,,,,,,,140,gat,Catalan,Sounds/cat_gat.mp3,2020-06-05_15h35.12.969,TranslationElicitation_eng-prolific,3.2.4,Win32,60,5eaca13a67ba8f30f90a2dc5,,1,0,81,34,1,80
,,,,,,,,,,,,,,,,,,,,,,,,,,,,,,,,,,,,,,,,,d,2.732000113,GUARD,FALSE,,,,,,,140,gat,Catalan,Sounds/cat_gat.mp3,2020-06-05_15h35.12.969,TranslationElicitation_eng-prolific,3.2.4,Win32,60,5eaca13a67ba8f30f90a2dc5,,1,0,81,34,1,80
,,,,,,,,,,,,,,,,,,,,,,,,,,,,,,,,,,,,,,,,,return,2.84100008,GUARD,FALSE,,,,,,,140,gat,Catalan,Sounds/cat_gat.mp3,2020-06-05_15h35.12.969,TranslationElicitation_eng-prolific,3.2.4,Win32,60,5eaca13a67ba8f30f90a2dc5,2.84100008,1,0,81,34,1,80
,,,,,,,,,,,,,,,,,,,,,,,,,,,,,,,,,,,,,,,,,,,,,,,,,,,140,gat,Catalan,Sounds/cat_gat.mp3,2020-06-05_15h35.12.969,TranslationElicitation_eng-prolific,3.2.4,Win32,60,5eaca13a67ba8f30f90a2dc5,,1,0,81,34,1,80
,,,,,,,,,,,,,,,,,,,,,,,,,,,,,,,,,,,,,,,,,s,3.079999924,S,FALSE,,,,,,,121,camisa,Catalan,Sounds/cat_camisa.mp3,2020-06-05_15h35.12.969,TranslationElicitation_eng-prolific,3.2.4,Win32,60,5eaca13a67ba8f30f90a2dc5,,1,0,81,16,1,80
,,,,,,,,,,,,,,,,,,,,,,,,,,,,,,,,,,,,,,,,,h,3.167000055,SH,FALSE,,,,,,,121,camisa,Catalan,Sounds/cat_camisa.mp3,2020-06-05_15h35.12.969,TranslationElicitation_eng-prolific,3.2.4,Win32,60,5eaca13a67ba8f30f90a2dc5,,1,0,81,16,1,80
,,,,,,,,,,,,,,,,,,,,,,,,,,,,,,,,,,,,,,,,,i,3.332000017,SHI,FALSE,,,,,,,121,camisa,Catalan,Sounds/cat_camisa.mp3,2020-06-05_15h35.12.969,TranslationElicitation_eng-prolific,3.2.4,Win32,60,5eaca13a67ba8f30f90a2dc5,,1,0,81,16,1,80
,,,,,,,,,,,,,,,,,,,,,,,,,,,,,,,,,,,,,,,,,r,3.414999962,SHIR,FALSE,,,,,,,121,camisa,Catalan,Sounds/cat_camisa.mp3,2020-06-05_15h35.12.969,TranslationElicitation_eng-prolific,3.2.4,Win32,60,5eaca13a67ba8f30f90a2dc5,,1,0,81,16,1,80
,,,,,,,,,,,,,,,,,,,,,,,,,,,,,,,,,,,,,,,,,t,3.529999971,SHIRT,FALSE,,,,,,,121,camisa,Catalan,Sounds/cat_camisa.mp3,2020-06-05_15h35.12.969,TranslationElicitation_eng-prolific,3.2.4,Win32,60,5eaca13a67ba8f30f90a2dc5,,1,0,81,16,1,80
,,,,,,,,,,,,,,,,,,,,,,,,,,,,,,,,,,,,,,,,,return,3.845999956,SHIRT,FALSE,,,,,,,121,camisa,Catalan,Sounds/cat_camisa.mp3,2020-06-05_15h35.12.969,TranslationElicitation_eng-prolific,3.2.4,Win32,60,5eaca13a67ba8f30f90a2dc5,3.845999956,1,0,81,16,1,80
,,,,,,,,,,,,,,,,,,,,,,,,,,,,,,,,,,,,,,,,,,,,,,,,,,,121,camisa,Catalan,Sounds/cat_camisa.mp3,2020-06-05_15h35.12.969,TranslationElicitation_eng-prolific,3.2.4,Win32,60,5eaca13a67ba8f30f90a2dc5,,1,0,81,16,1,80
,,,,,,,,,,,,,,,,,,,,,,,,,,,,,,,,,,,,,,,,,c,1.464999914,C,FALSE,,,,,,,188,xocolata,Catalan,Sounds/cat_xocolata.mp3,2020-06-05_15h35.12.969,TranslationElicitation_eng-prolific,3.2.4,Win32,60,5eaca13a67ba8f30f90a2dc5,,1,0,81,79,1,80
,,,,,,,,,,,,,,,,,,,,,,,,,,,,,,,,,,,,,,,,,h,1.565000057,CH,FALSE,,,,,,,188,xocolata,Catalan,Sounds/cat_xocolata.mp3,2020-06-05_15h35.12.969,TranslationElicitation_eng-prolific,3.2.4,Win32,60,5eaca13a67ba8f30f90a2dc5,,1,0,81,79,1,80
,,,,,,,,,,,,,,,,,,,,,,,,,,,,,,,,,,,,,,,,,o,1.747999907,CHO,FALSE,,,,,,,188,xocolata,Catalan,Sounds/cat_xocolata.mp3,2020-06-05_15h35.12.969,TranslationElicitation_eng-prolific,3.2.4,Win32,60,5eaca13a67ba8f30f90a2dc5,,1,0,81,79,1,80
,,,,,,,,,,,,,,,,,,,,,,,,,,,,,,,,,,,,,,,,,c,1.84800005,CHOC,FALSE,,,,,,,188,xocolata,Catalan,Sounds/cat_xocolata.mp3,2020-06-05_15h35.12.969,TranslationElicitation_eng-prolific,3.2.4,Win32,60,5eaca13a67ba8f30f90a2dc5,,1,0,81,79,1,80
,,,,,,,,,,,,,,,,,,,,,,,,,,,,,,,,,,,,,,,,,o,1.964999914,CHOCO,FALSE,,,,,,,188,xocolata,Catalan,Sounds/cat_xocolata.mp3,2020-06-05_15h35.12.969,TranslationElicitation_eng-prolific,3.2.4,Win32,60,5eaca13a67ba8f30f90a2dc5,,1,0,81,79,1,80
,,,,,,,,,,,,,,,,,,,,,,,,,,,,,,,,,,,,,,,,,l,2.147000074,CHOCOL,FALSE,,,,,,,188,xocolata,Catalan,Sounds/cat_xocolata.mp3,2020-06-05_15h35.12.969,TranslationElicitation_eng-prolific,3.2.4,Win32,60,5eaca13a67ba8f30f90a2dc5,,1,0,81,79,1,80
,,,,,,,,,,,,,,,,,,,,,,,,,,,,,,,,,,,,,,,,,a,2.213999987,CHOCOLA,FALSE,,,,,,,188,xocolata,Catalan,Sounds/cat_xocolata.mp3,2020-06-05_15h35.12.969,TranslationElicitation_eng-prolific,3.2.4,Win32,60,5eaca13a67ba8f30f90a2dc5,,1,0,81,79,1,80
,,,,,,,,,,,,,,,,,,,,,,,,,,,,,,,,,,,,,,,,,t,2.381000042,CHOCOLAT,FALSE,,,,,,,188,xocolata,Catalan,Sounds/cat_xocolata.mp3,2020-06-05_15h35.12.969,TranslationElicitation_eng-prolific,3.2.4,Win32,60,5eaca13a67ba8f30f90a2dc5,,1,0,81,79,1,80
,,,,,,,,,,,,,,,,,,,,,,,,,,,,,,,,,,,,,,,,,e,2.480000019,CHOCOLATE,FALSE,,,,,,,188,xocolata,Catalan,Sounds/cat_xocolata.mp3,2020-06-05_15h35.12.969,TranslationElicitation_eng-prolific,3.2.4,Win32,60,5eaca13a67ba8f30f90a2dc5,,1,0,81,79,1,80
,,,,,,,,,,,,,,,,,,,,,,,,,,,,,,,,,,,,,,,,,return,3.112999916,CHOCOLATE,FALSE,,,,,,,188,xocolata,Catalan,Sounds/cat_xocolata.mp3,2020-06-05_15h35.12.969,TranslationElicitation_eng-prolific,3.2.4,Win32,60,5eaca13a67ba8f30f90a2dc5,3.112999916,1,0,81,79,1,80
,,,,,,,,,,,,,,,,,,,,,,,,,,,,,,,,,,,,,,,,,,,,,,,,,,,188,xocolata,Catalan,Sounds/cat_xocolata.mp3,2020-06-05_15h35.12.969,TranslationElicitation_eng-prolific,3.2.4,Win32,60,5eaca13a67ba8f30f90a2dc5,,1,0,81,79,1,80
,,,,,,,,,,,,,,,,,,,,,,,,,,,,,,,,,,,,,,,,,c,1.462999821,C,FALSE,,,,,,,119,caixa,Catalan,Sounds/cat_caixa.mp3,2020-06-05_15h35.12.969,TranslationElicitation_eng-prolific,3.2.4,Win32,60,5eaca13a67ba8f30f90a2dc5,,1,0,81,14,1,80
,,,,,,,,,,,,,,,,,,,,,,,,,,,,,,,,,,,,,,,,,a,1.529999971,CA,FALSE,,,,,,,119,caixa,Catalan,Sounds/cat_caixa.mp3,2020-06-05_15h35.12.969,TranslationElicitation_eng-prolific,3.2.4,Win32,60,5eaca13a67ba8f30f90a2dc5,,1,0,81,14,1,80
,,,,,,,,,,,,,,,,,,,,,,,,,,,,,,,,,,,,,,,,,s,1.695999861,CAS,FALSE,,,,,,,119,caixa,Catalan,Sounds/cat_caixa.mp3,2020-06-05_15h35.12.969,TranslationElicitation_eng-prolific,3.2.4,Win32,60,5eaca13a67ba8f30f90a2dc5,,1,0,81,14,1,80
,,,,,,,,,,,,,,,,,,,,,,,,,,,,,,,,,,,,,,,,,h,1.779999971,CASH,FALSE,,,,,,,119,caixa,Catalan,Sounds/cat_caixa.mp3,2020-06-05_15h35.12.969,TranslationElicitation_eng-prolific,3.2.4,Win32,60,5eaca13a67ba8f30f90a2dc5,,1,0,81,14,1,80
,,,,,,,,,,,,,,,,,,,,,,,,,,,,,,,,,,,,,,,,,return,2.095999956,CASH,FALSE,,,,,,,119,caixa,Catalan,Sounds/cat_caixa.mp3,2020-06-05_15h35.12.969,TranslationElicitation_eng-prolific,3.2.4,Win32,60,5eaca13a67ba8f30f90a2dc5,2.095999956,1,0,81,14,1,80
,,,,,,,,,,,,,,,,,,,,,,,,,,,,,,,,,,,,,,,,,,,,,,,,,,,119,caixa,Catalan,Sounds/cat_caixa.mp3,2020-06-05_15h35.12.969,TranslationElicitation_eng-prolific,3.2.4,Win32,60,5eaca13a67ba8f30f90a2dc5,,1,0,81,14,1,80
,,,,,,,,,,,,,,,,,,,,,,,,,,,,,,,,,,,,,,,,,z,1.845999956,Z,FALSE,,,,,,,189,zebra,Catalan,Sounds/cat_zebra.mp3,2020-06-05_15h35.12.969,TranslationElicitation_eng-prolific,3.2.4,Win32,60,5eaca13a67ba8f30f90a2dc5,,1,0,81,80,1,80
,,,,,,,,,,,,,,,,,,,,,,,,,,,,,,,,,,,,,,,,,e,2.029999971,ZE,FALSE,,,,,,,189,zebra,Catalan,Sounds/cat_zebra.mp3,2020-06-05_15h35.12.969,TranslationElicitation_eng-prolific,3.2.4,Win32,60,5eaca13a67ba8f30f90a2dc5,,1,0,81,80,1,80
,,,,,,,,,,,,,,,,,,,,,,,,,,,,,,,,,,,,,,,,,b,2.164999962,ZEB,FALSE,,,,,,,189,zebra,Catalan,Sounds/cat_zebra.mp3,2020-06-05_15h35.12.969,TranslationElicitation_eng-prolific,3.2.4,Win32,60,5eaca13a67ba8f30f90a2dc5,,1,0,81,80,1,80
,,,,,,,,,,,,,,,,,,,,,,,,,,,,,,,,,,,,,,,,,r,2.34800005,ZEBR,FALSE,,,,,,,189,zebra,Catalan,Sounds/cat_zebra.mp3,2020-06-05_15h35.12.969,TranslationElicitation_eng-prolific,3.2.4,Win32,60,5eaca13a67ba8f30f90a2dc5,,1,0,81,80,1,80
,,,,,,,,,,,,,,,,,,,,,,,,,,,,,,,,,,,,,,,,,a,2.562999964,ZEBRA,FALSE,,,,,,,189,zebra,Catalan,Sounds/cat_zebra.mp3,2020-06-05_15h35.12.969,TranslationElicitation_eng-prolific,3.2.4,Win32,60,5eaca13a67ba8f30f90a2dc5,,1,0,81,80,1,80
,,,,,,,,,,,,,,,,,,,,,,,,,,,,,,,,,,,,,,,,,return,2.729000092,ZEBRA,FALSE,,,,,,,189,zebra,Catalan,Sounds/cat_zebra.mp3,2020-06-05_15h35.12.969,TranslationElicitation_eng-prolific,3.2.4,Win32,60,5eaca13a67ba8f30f90a2dc5,2.729000092,1,0,81,80,1,80
,,,,,,,,,,,,,,,,,,,,,,,,,,,,,,,,,,,,,,,,,,,,,,,,,,,189,zebra,Catalan,Sounds/cat_zebra.mp3,2020-06-05_15h35.12.969,TranslationElicitation_eng-prolific,3.2.4,Win32,60,5eaca13a67ba8f30f90a2dc5,,1,0,81,80,1,80
,,,,,,,,,,,,,,,,,,,,,,,,,,,,,,,,,,,,,,,,,f,4.643000126,F,FALSE,,,,,,,136,forquilla,Catalan,Sounds/cat_forquilla.mp3,2020-06-05_15h35.12.969,TranslationElicitation_eng-prolific,3.2.4,Win32,60,5eaca13a67ba8f30f90a2dc5,,1,0,81,30,1,80
,,,,,,,,,,,,,,,,,,,,,,,,,,,,,,,,,,,,,,,,,e,4.726000071,FE,FALSE,,,,,,,136,forquilla,Catalan,Sounds/cat_forquilla.mp3,2020-06-05_15h35.12.969,TranslationElicitation_eng-prolific,3.2.4,Win32,60,5eaca13a67ba8f30f90a2dc5,,1,0,81,30,1,80
,,,,,,,,,,,,,,,,,,,,,,,,,,,,,,,,,,,,,,,,,r,4.90899992,FER,FALSE,,,,,,,136,forquilla,Catalan,Sounds/cat_forquilla.mp3,2020-06-05_15h35.12.969,TranslationElicitation_eng-prolific,3.2.4,Win32,60,5eaca13a67ba8f30f90a2dc5,,1,0,81,30,1,80
,,,,,,,,,,,,,,,,,,,,,,,,,,,,,,,,,,,,,,,,,r,5.061000109,FERR,FALSE,,,,,,,136,forquilla,Catalan,Sounds/cat_forquilla.mp3,2020-06-05_15h35.12.969,TranslationElicitation_eng-prolific,3.2.4,Win32,60,5eaca13a67ba8f30f90a2dc5,,1,0,81,30,1,80
,,,,,,,,,,,,,,,,,,,,,,,,,,,,,,,,,,,,,,,,,e,5.278000116,FERRE,FALSE,,,,,,,136,forquilla,Catalan,Sounds/cat_forquilla.mp3,2020-06-05_15h35.12.969,TranslationElicitation_eng-prolific,3.2.4,Win32,60,5eaca13a67ba8f30f90a2dc5,,1,0,81,30,1,80
,,,,,,,,,,,,,,,,,,,,,,,,,,,,,,,,,,,,,,,,,r,5.40899992,FERRER,FALSE,,,,,,,136,forquilla,Catalan,Sounds/cat_forquilla.mp3,2020-06-05_15h35.12.969,TranslationElicitation_eng-prolific,3.2.4,Win32,60,5eaca13a67ba8f30f90a2dc5,,1,0,81,30,1,80
,,,,,,,,,,,,,,,,,,,,,,,,,,,,,,,,,,,,,,,,,backspace,5.826999903,FERRE,TRUE,,,,,,,136,forquilla,Catalan,Sounds/cat_forquilla.mp3,2020-06-05_15h35.12.969,TranslationElicitation_eng-prolific,3.2.4,Win32,60,5eaca13a67ba8f30f90a2dc5,,1,0,81,30,1,80
,,,,,,,,,,,,,,,,,,,,,,,,,,,,,,,,,,,,,,,,,t,5.967000008,FERRET,TRUE,,,,,,,136,forquilla,Catalan,Sounds/cat_forquilla.mp3,2020-06-05_15h35.12.969,TranslationElicitation_eng-prolific,3.2.4,Win32,60,5eaca13a67ba8f30f90a2dc5,,1,0,81,30,1,80
,,,,,,,,,,,,,,,,,,,,,,,,,,,,,,,,,,,,,,,,,return,6.460000038,FERRET,TRUE,,,,,,,136,forquilla,Catalan,Sounds/cat_forquilla.mp3,2020-06-05_15h35.12.969,TranslationElicitation_eng-prolific,3.2.4,Win32,60,5eaca13a67ba8f30f90a2dc5,6.460000038,1,0,81,30,1,80
,,,,,,,,,,,,,,,,,,,,,,,,,,,,,,,,,,,,,,,,,,,,,,,,,,,136,forquilla,Catalan,Sounds/cat_forquilla.mp3,2020-06-05_15h35.12.969,TranslationElicitation_eng-prolific,3.2.4,Win32,60,5eaca13a67ba8f30f90a2dc5,,1,0,81,30,1,80
,,,,,,,,,,,,,,,,,,,,,,,,,,,,,,,,,,,,,,,,,k,1.880999804,K,FALSE,,,,,,,120,cama,Catalan,Sounds/cat_cama.mp3,2020-06-05_15h35.12.969,TranslationElicitation_eng-prolific,3.2.4,Win32,60,5eaca13a67ba8f30f90a2dc5,,1,0,81,15,1,80
,,,,,,,,,,,,,,,,,,,,,,,,,,,,,,,,,,,,,,,,,a,1.963999987,KA,FALSE,,,,,,,120,cama,Catalan,Sounds/cat_cama.mp3,2020-06-05_15h35.12.969,TranslationElicitation_eng-prolific,3.2.4,Win32,60,5eaca13a67ba8f30f90a2dc5,,1,0,81,15,1,80
,,,,,,,,,,,,,,,,,,,,,,,,,,,,,,,,,,,,,,,,,r,2.112999916,KAR,FALSE,,,,,,,120,cama,Catalan,Sounds/cat_cama.mp3,2020-06-05_15h35.12.969,TranslationElicitation_eng-prolific,3.2.4,Win32,60,5eaca13a67ba8f30f90a2dc5,,1,0,81,15,1,80
,,,,,,,,,,,,,,,,,,,,,,,,,,,,,,,,,,,,,,,,,m,2.229999781,KARM,FALSE,,,,,,,120,cama,Catalan,Sounds/cat_cama.mp3,2020-06-05_15h35.12.969,TranslationElicitation_eng-prolific,3.2.4,Win32,60,5eaca13a67ba8f30f90a2dc5,,1,0,81,15,1,80
,,,,,,,,,,,,,,,,,,,,,,,,,,,,,,,,,,,,,,,,,a,2.329999924,KARMA,FALSE,,,,,,,120,cama,Catalan,Sounds/cat_cama.mp3,2020-06-05_15h35.12.969,TranslationElicitation_eng-prolific,3.2.4,Win32,60,5eaca13a67ba8f30f90a2dc5,,1,0,81,15,1,80
,,,,,,,,,,,,,,,,,,,,,,,,,,,,,,,,,,,,,,,,,return,2.462999821,KARMA,FALSE,,,,,,,120,cama,Catalan,Sounds/cat_cama.mp3,2020-06-05_15h35.12.969,TranslationElicitation_eng-prolific,3.2.4,Win32,60,5eaca13a67ba8f30f90a2dc5,2.462999821,1,0,81,15,1,80
,,,,,,,,,,,,,,,,,,,,,,,,,,,,,,,,,,,,,,,,,,,,,,,,,,,120,cama,Catalan,Sounds/cat_cama.mp3,2020-06-05_15h35.12.969,TranslationElicitation_eng-prolific,3.2.4,Win32,60,5eaca13a67ba8f30f90a2dc5,,1,0,81,15,1,80
,,,,,,,,,,,,,,,,,,,,,,,,,,,,,,,,,,,,,,,,,t,2.097000122,T,FALSE,,,,,,,183,tren,Catalan,Sounds/cat_tren.mp3,2020-06-05_15h35.12.969,TranslationElicitation_eng-prolific,3.2.4,Win32,60,5eaca13a67ba8f30f90a2dc5,,1,0,81,74,1,80
,,,,,,,,,,,,,,,,,,,,,,,,,,,,,,,,,,,,,,,,,r,2.213000059,TR,FALSE,,,,,,,183,tren,Catalan,Sounds/cat_tren.mp3,2020-06-05_15h35.12.969,TranslationElicitation_eng-prolific,3.2.4,Win32,60,5eaca13a67ba8f30f90a2dc5,,1,0,81,74,1,80
,,,,,,,,,,,,,,,,,,,,,,,,,,,,,,,,,,,,,,,,,e,2.263000011,TRE,FALSE,,,,,,,183,tren,Catalan,Sounds/cat_tren.mp3,2020-06-05_15h35.12.969,TranslationElicitation_eng-prolific,3.2.4,Win32,60,5eaca13a67ba8f30f90a2dc5,,1,0,81,74,1,80
,,,,,,,,,,,,,,,,,,,,,,,,,,,,,,,,,,,,,,,,,n,2.346000195,TREN,FALSE,,,,,,,183,tren,Catalan,Sounds/cat_tren.mp3,2020-06-05_15h35.12.969,TranslationElicitation_eng-prolific,3.2.4,Win32,60,5eaca13a67ba8f30f90a2dc5,,1,0,81,74,1,80
,,,,,,,,,,,,,,,,,,,,,,,,,,,,,,,,,,,,,,,,,d,2.446000099,TREND,FALSE,,,,,,,183,tren,Catalan,Sounds/cat_tren.mp3,2020-06-05_15h35.12.969,TranslationElicitation_eng-prolific,3.2.4,Win32,60,5eaca13a67ba8f30f90a2dc5,,1,0,81,74,1,80
,,,,,,,,,,,,,,,,,,,,,,,,,,,,,,,,,,,,,,,,,return,2.894999981,TREND,FALSE,,,,,,,183,tren,Catalan,Sounds/cat_tren.mp3,2020-06-05_15h35.12.969,TranslationElicitation_eng-prolific,3.2.4,Win32,60,5eaca13a67ba8f30f90a2dc5,2.894999981,1,0,81,74,1,80
,,,,,,,,,,,,,,,,,,,,,,,,,,,,,,,,,,,,,,,,,,,,,,,,,,,183,tren,Catalan,Sounds/cat_tren.mp3,2020-06-05_15h35.12.969,TranslationElicitation_eng-prolific,3.2.4,Win32,60,5eaca13a67ba8f30f90a2dc5,,1,0,81,74,1,80
,,,,,,,,,,,,,,,,,,,,,,,,,,,,,,,,,,,,,,,,,m,2.015000105,M,FALSE,,,,,,,151,lluna,Catalan,Sounds/cat_lluna.mp3,2020-06-05_15h35.12.969,TranslationElicitation_eng-prolific,3.2.4,Win32,60,5eaca13a67ba8f30f90a2dc5,,1,0,81,44,1,80
,,,,,,,,,,,,,,,,,,,,,,,,,,,,,,,,,,,,,,,,,o,2.181999922,MO,FALSE,,,,,,,151,lluna,Catalan,Sounds/cat_lluna.mp3,2020-06-05_15h35.12.969,TranslationElicitation_eng-prolific,3.2.4,Win32,60,5eaca13a67ba8f30f90a2dc5,,1,0,81,44,1,80
,,,,,,,,,,,,,,,,,,,,,,,,,,,,,,,,,,,,,,,,,o,2.315000057,MOO,FALSE,,,,,,,151,lluna,Catalan,Sounds/cat_lluna.mp3,2020-06-05_15h35.12.969,TranslationElicitation_eng-prolific,3.2.4,Win32,60,5eaca13a67ba8f30f90a2dc5,,1,0,81,44,1,80
,,,,,,,,,,,,,,,,,,,,,,,,,,,,,,,,,,,,,,,,,n,2.467999935,MOON,FALSE,,,,,,,151,lluna,Catalan,Sounds/cat_lluna.mp3,2020-06-05_15h35.12.969,TranslationElicitation_eng-prolific,3.2.4,Win32,60,5eaca13a67ba8f30f90a2dc5,,1,0,81,44,1,80
,,,,,,,,,,,,,,,,,,,,,,,,,,,,,,,,,,,,,,,,,return,2.69900012,MOON,FALSE,,,,,,,151,lluna,Catalan,Sounds/cat_lluna.mp3,2020-06-05_15h35.12.969,TranslationElicitation_eng-prolific,3.2.4,Win32,60,5eaca13a67ba8f30f90a2dc5,2.69900012,1,0,81,44,1,80
,,,,,,,,,,,,,,,,,,,,,,,,,,,,,,,,,,,,,,,,,,,,,,,,,,,151,lluna,Catalan,Sounds/cat_lluna.mp3,2020-06-05_15h35.12.969,TranslationElicitation_eng-prolific,3.2.4,Win32,60,5eaca13a67ba8f30f90a2dc5,,1,0,81,44,1,80
,,,,,,,,,,,,,,,,,,,,,,,,,,,,,,,,,,,,,,,,,e,1.547999859,E,FALSE,,,,,,,167,pingui,Catalan,Sounds/cat_pingui.mp3,2020-06-05_15h35.12.969,TranslationElicitation_eng-prolific,3.2.4,Win32,60,5eaca13a67ba8f30f90a2dc5,,1,0,81,59,1,80
,,,,,,,,,,,,,,,,,,,,,,,,,,,,,,,,,,,,,,,,,n,1.648000002,EN,FALSE,,,,,,,167,pingui,Catalan,Sounds/cat_pingui.mp3,2020-06-05_15h35.12.969,TranslationElicitation_eng-prolific,3.2.4,Win32,60,5eaca13a67ba8f30f90a2dc5,,1,0,81,59,1,80
,,,,,,,,,,,,,,,,,,,,,,,,,,,,,,,,,,,,,,,,,g,1.835000038,ENG,FALSE,,,,,,,167,pingui,Catalan,Sounds/cat_pingui.mp3,2020-06-05_15h35.12.969,TranslationElicitation_eng-prolific,3.2.4,Win32,60,5eaca13a67ba8f30f90a2dc5,,1,0,81,59,1,80
,,,,,,,,,,,,,,,,,,,,,,,,,,,,,,,,,,,,,,,,,u,2.013999939,ENGU,FALSE,,,,,,,167,pingui,Catalan,Sounds/cat_pingui.mp3,2020-06-05_15h35.12.969,TranslationElicitation_eng-prolific,3.2.4,Win32,60,5eaca13a67ba8f30f90a2dc5,,1,0,81,59,1,80
,,,,,,,,,,,,,,,,,,,,,,,,,,,,,,,,,,,,,,,,,i,2.198999882,ENGUI,FALSE,,,,,,,167,pingui,Catalan,Sounds/cat_pingui.mp3,2020-06-05_15h35.12.969,TranslationElicitation_eng-prolific,3.2.4,Win32,60,5eaca13a67ba8f30f90a2dc5,,1,0,81,59,1,80
,,,,,,,,,,,,,,,,,,,,,,,,,,,,,,,,,,,,,,,,,n,2.363999844,ENGUIN,FALSE,,,,,,,167,pingui,Catalan,Sounds/cat_pingui.mp3,2020-06-05_15h35.12.969,TranslationElicitation_eng-prolific,3.2.4,Win32,60,5eaca13a67ba8f30f90a2dc5,,1,0,81,59,1,80
,,,,,,,,,,,,,,,,,,,,,,,,,,,,,,,,,,,,,,,,,e,2.498999834,ENGUINE,FALSE,,,,,,,167,pingui,Catalan,Sounds/cat_pingui.mp3,2020-06-05_15h35.12.969,TranslationElicitation_eng-prolific,3.2.4,Win32,60,5eaca13a67ba8f30f90a2dc5,,1,0,81,59,1,80
,,,,,,,,,,,,,,,,,,,,,,,,,,,,,,,,,,,,,,,,,backspace,3.213999987,ENGUIN,TRUE,,,,,,,167,pingui,Catalan,Sounds/cat_pingui.mp3,2020-06-05_15h35.12.969,TranslationElicitation_eng-prolific,3.2.4,Win32,60,5eaca13a67ba8f30f90a2dc5,,1,0,81,59,1,80
,,,,,,,,,,,,,,,,,,,,,,,,,,,,,,,,,,,,,,,,,backspace,3.612999916,ENGUI,TRUE,,,,,,,167,pingui,Catalan,Sounds/cat_pingui.mp3,2020-06-05_15h35.12.969,TranslationElicitation_eng-prolific,3.2.4,Win32,60,5eaca13a67ba8f30f90a2dc5,,1,0,81,59,1,80
,,,,,,,,,,,,,,,,,,,,,,,,,,,,,,,,,,,,,,,,,backspace,4.129999876,ENGU,TRUE,,,,,,,167,pingui,Catalan,Sounds/cat_pingui.mp3,2020-06-05_15h35.12.969,TranslationElicitation_eng-prolific,3.2.4,Win32,60,5eaca13a67ba8f30f90a2dc5,,1,0,81,59,1,80
,,,,,,,,,,,,,,,,,,,,,,,,,,,,,,,,,,,,,,,,,backspace,4.164999962,ENG,TRUE,,,,,,,167,pingui,Catalan,Sounds/cat_pingui.mp3,2020-06-05_15h35.12.969,TranslationElicitation_eng-prolific,3.2.4,Win32,60,5eaca13a67ba8f30f90a2dc5,,1,0,81,59,1,80
,,,,,,,,,,,,,,,,,,,,,,,,,,,,,,,,,,,,,,,,,backspace,4.213999987,EN,TRUE,,,,,,,167,pingui,Catalan,Sounds/cat_pingui.mp3,2020-06-05_15h35.12.969,TranslationElicitation_eng-prolific,3.2.4,Win32,60,5eaca13a67ba8f30f90a2dc5,,1,0,81,59,1,80
,,,,,,,,,,,,,,,,,,,,,,,,,,,,,,,,,,,,,,,,,backspace,4.25,E,TRUE,,,,,,,167,pingui,Catalan,Sounds/cat_pingui.mp3,2020-06-05_15h35.12.969,TranslationElicitation_eng-prolific,3.2.4,Win32,60,5eaca13a67ba8f30f90a2dc5,,1,0,81,59,1,80
,,,,,,,,,,,,,,,,,,,,,,,,,,,,,,,,,,,,,,,,,backspace,4.529999971,,TRUE,,,,,,,167,pingui,Catalan,Sounds/cat_pingui.mp3,2020-06-05_15h35.12.969,TranslationElicitation_eng-prolific,3.2.4,Win32,60,5eaca13a67ba8f30f90a2dc5,,1,0,81,59,1,80
,,,,,,,,,,,,,,,,,,,,,,,,,,,,,,,,,,,,,,,,,p,6.776000023,P,TRUE,,,,,,,167,pingui,Catalan,Sounds/cat_pingui.mp3,2020-06-05_15h35.12.969,TranslationElicitation_eng-prolific,3.2.4,Win32,60,5eaca13a67ba8f30f90a2dc5,,1,0,81,59,1,80
,,,,,,,,,,,,,,,,,,,,,,,,,,,,,,,,,,,,,,,,,e,6.892999887,PE,TRUE,,,,,,,167,pingui,Catalan,Sounds/cat_pingui.mp3,2020-06-05_15h35.12.969,TranslationElicitation_eng-prolific,3.2.4,Win32,60,5eaca13a67ba8f30f90a2dc5,,1,0,81,59,1,80
,,,,,,,,,,,,,,,,,,,,,,,,,,,,,,,,,,,,,,,,,n,6.993000031,PEN,TRUE,,,,,,,167,pingui,Catalan,Sounds/cat_pingui.mp3,2020-06-05_15h35.12.969,TranslationElicitation_eng-prolific,3.2.4,Win32,60,5eaca13a67ba8f30f90a2dc5,,1,0,81,59,1,80
,,,,,,,,,,,,,,,,,,,,,,,,,,,,,,,,,,,,,,,,,g,7.208999872,PENG,TRUE,,,,,,,167,pingui,Catalan,Sounds/cat_pingui.mp3,2020-06-05_15h35.12.969,TranslationElicitation_eng-prolific,3.2.4,Win32,60,5eaca13a67ba8f30f90a2dc5,,1,0,81,59,1,80
,,,,,,,,,,,,,,,,,,,,,,,,,,,,,,,,,,,,,,,,,i,7.457000017,PENGI,TRUE,,,,,,,167,pingui,Catalan,Sounds/cat_pingui.mp3,2020-06-05_15h35.12.969,TranslationElicitation_eng-prolific,3.2.4,Win32,60,5eaca13a67ba8f30f90a2dc5,,1,0,81,59,1,80
,,,,,,,,,,,,,,,,,,,,,,,,,,,,,,,,,,,,,,,,,backspace,7.924999952,PENG,TRUE,,,,,,,167,pingui,Catalan,Sounds/cat_pingui.mp3,2020-06-05_15h35.12.969,TranslationElicitation_eng-prolific,3.2.4,Win32,60,5eaca13a67ba8f30f90a2dc5,,1,0,81,59,1,80
,,,,,,,,,,,,,,,,,,,,,,,,,,,,,,,,,,,,,,,,,u,8.092999935,PENGU,TRUE,,,,,,,167,pingui,Catalan,Sounds/cat_pingui.mp3,2020-06-05_15h35.12.969,TranslationElicitation_eng-prolific,3.2.4,Win32,60,5eaca13a67ba8f30f90a2dc5,,1,0,81,59,1,80
,,,,,,,,,,,,,,,,,,,,,,,,,,,,,,,,,,,,,,,,,i,8.25999999,PENGUI,TRUE,,,,,,,167,pingui,Catalan,Sounds/cat_pingui.mp3,2020-06-05_15h35.12.969,TranslationElicitation_eng-prolific,3.2.4,Win32,60,5eaca13a67ba8f30f90a2dc5,,1,0,81,59,1,80
,,,,,,,,,,,,,,,,,,,,,,,,,,,,,,,,,,,,,,,,,n,8.424000025,PENGUIN,TRUE,,,,,,,167,pingui,Catalan,Sounds/cat_pingui.mp3,2020-06-05_15h35.12.969,TranslationElicitation_eng-prolific,3.2.4,Win32,60,5eaca13a67ba8f30f90a2dc5,,1,0,81,59,1,80
,,,,,,,,,,,,,,,,,,,,,,,,,,,,,,,,,,,,,,,,,return,8.656999826,PENGUIN,TRUE,,,,,,,167,pingui,Catalan,Sounds/cat_pingui.mp3,2020-06-05_15h35.12.969,TranslationElicitation_eng-prolific,3.2.4,Win32,60,5eaca13a67ba8f30f90a2dc5,8.656999826,1,0,81,59,1,80
,,,,,,,,,,,,,,,,,,,,,,,,,,,,,,,,,,,,,,,,,,,,,,,,,,,167,pingui,Catalan,Sounds/cat_pingui.mp3,2020-06-05_15h35.12.969,TranslationElicitation_eng-prolific,3.2.4,Win32,60,5eaca13a67ba8f30f90a2dc5,,1,0,81,59,1,80
,,,,,,,,,,,,,,,,,,,,,,,,,,,,,,,,,,,,,,,,,e,2.630000114,E,FALSE,,,,,,,105,aigua,Catalan,Sounds/cat_aigua.mp3,2020-06-05_15h35.12.969,TranslationElicitation_eng-prolific,3.2.4,Win32,60,5eaca13a67ba8f30f90a2dc5,,1,0,81,1,1,80
,,,,,,,,,,,,,,,,,,,,,,,,,,,,,,,,,,,,,,,,,y,2.713999987,EY,FALSE,,,,,,,105,aigua,Catalan,Sounds/cat_aigua.mp3,2020-06-05_15h35.12.969,TranslationElicitation_eng-prolific,3.2.4,Win32,60,5eaca13a67ba8f30f90a2dc5,,1,0,81,1,1,80
,,,,,,,,,,,,,,,,,,,,,,,,,,,,,,,,,,,,,,,,,e,2.832000017,EYE,FALSE,,,,,,,105,aigua,Catalan,Sounds/cat_aigua.mp3,2020-06-05_15h35.12.969,TranslationElicitation_eng-prolific,3.2.4,Win32,60,5eaca13a67ba8f30f90a2dc5,,1,0,81,1,1,80
,,,,,,,,,,,,,,,,,,,,,,,,,,,,,,,,,,,,,,,,,return,2.996000051,EYE,FALSE,,,,,,,105,aigua,Catalan,Sounds/cat_aigua.mp3,2020-06-05_15h35.12.969,TranslationElicitation_eng-prolific,3.2.4,Win32,60,5eaca13a67ba8f30f90a2dc5,2.996000051,1,0,81,1,1,80
,,,,,,,,,,,,,,,,,,,,,,,,,,,,,,,,,,,,,,,,,,,,,,,,,,,105,aigua,Catalan,Sounds/cat_aigua.mp3,2020-06-05_15h35.12.969,TranslationElicitation_eng-prolific,3.2.4,Win32,60,5eaca13a67ba8f30f90a2dc5,,1,0,81,1,1,80
,,,,,,,,,,,,,,,,,,,,,,,,,,,,,,,,,,,,,,,,,m,1.763999939,M,FALSE,,,,,,,156,moto,Catalan,Sounds/cat_moto.mp3,2020-06-05_15h35.12.969,TranslationElicitation_eng-prolific,3.2.4,Win32,60,5eaca13a67ba8f30f90a2dc5,,1,0,81,49,1,80
,,,,,,,,,,,,,,,,,,,,,,,,,,,,,,,,,,,,,,,,,o,1.963999987,MO,FALSE,,,,,,,156,moto,Catalan,Sounds/cat_moto.mp3,2020-06-05_15h35.12.969,TranslationElicitation_eng-prolific,3.2.4,Win32,60,5eaca13a67ba8f30f90a2dc5,,1,0,81,49,1,80
,,,,,,,,,,,,,,,,,,,,,,,,,,,,,,,,,,,,,,,,,t,2.046999931,MOT,FALSE,,,,,,,156,moto,Catalan,Sounds/cat_moto.mp3,2020-06-05_15h35.12.969,TranslationElicitation_eng-prolific,3.2.4,Win32,60,5eaca13a67ba8f30f90a2dc5,,1,0,81,49,1,80
,,,,,,,,,,,,,,,,,,,,,,,,,,,,,,,,,,,,,,,,,o,2.148999929,MOTO,FALSE,,,,,,,156,moto,Catalan,Sounds/cat_moto.mp3,2020-06-05_15h35.12.969,TranslationElicitation_eng-prolific,3.2.4,Win32,60,5eaca13a67ba8f30f90a2dc5,,1,0,81,49,1,80
,,,,,,,,,,,,,,,,,,,,,,,,,,,,,,,,,,,,,,,,,r,2.266000032,MOTOR,FALSE,,,,,,,156,moto,Catalan,Sounds/cat_moto.mp3,2020-06-05_15h35.12.969,TranslationElicitation_eng-prolific,3.2.4,Win32,60,5eaca13a67ba8f30f90a2dc5,,1,0,81,49,1,80
,,,,,,,,,,,,,,,,,,,,,,,,,,,,,,,,,,,,,,,,,return,2.565000057,MOTOR,FALSE,,,,,,,156,moto,Catalan,Sounds/cat_moto.mp3,2020-06-05_15h35.12.969,TranslationElicitation_eng-prolific,3.2.4,Win32,60,5eaca13a67ba8f30f90a2dc5,2.565000057,1,0,81,49,1,80
,,,,,,,,,,,,,,,,,,,,,,,,,,,,,,,,,,,,,,,,,,,,,,,,,,,156,moto,Catalan,Sounds/cat_moto.mp3,2020-06-05_15h35.12.969,TranslationElicitation_eng-prolific,3.2.4,Win32,60,5eaca13a67ba8f30f90a2dc5,,1,0,81,49,1,80
,,,,,,,,,,,,,,,,,,,,,,,,,,,,,,,,,,,,,,,,,m,2.878999949,M,FALSE,,,,,,,157,mussol,Catalan,Sounds/cat_mussol.mp3,2020-06-05_15h35.12.969,TranslationElicitation_eng-prolific,3.2.4,Win32,60,5eaca13a67ba8f30f90a2dc5,,1,0,81,50,1,80
,,,,,,,,,,,,,,,,,,,,,,,,,,,,,,,,,,,,,,,,,y,3.144999981,MY,FALSE,,,,,,,157,mussol,Catalan,Sounds/cat_mussol.mp3,2020-06-05_15h35.12.969,TranslationElicitation_eng-prolific,3.2.4,Win32,60,5eaca13a67ba8f30f90a2dc5,,1,0,81,50,1,80
,,,,,,,,,,,,,,,,,,,,,,,,,,,,,,,,,,,,,,,,,space,3.32799983,MY ,FALSE,,,,,,,157,mussol,Catalan,Sounds/cat_mussol.mp3,2020-06-05_15h35.12.969,TranslationElicitation_eng-prolific,3.2.4,Win32,60,5eaca13a67ba8f30f90a2dc5,,1,0,81,50,1,80
,,,,,,,,,,,,,,,,,,,,,,,,,,,,,,,,,,,,,,,,,s,3.445999861,MY S,FALSE,,,,,,,157,mussol,Catalan,Sounds/cat_mussol.mp3,2020-06-05_15h35.12.969,TranslationElicitation_eng-prolific,3.2.4,Win32,60,5eaca13a67ba8f30f90a2dc5,,1,0,81,50,1,80
,,,,,,,,,,,,,,,,,,,,,,,,,,,,,,,,,,,,,,,,,u,3.562000036,MY SU,FALSE,,,,,,,157,mussol,Catalan,Sounds/cat_mussol.mp3,2020-06-05_15h35.12.969,TranslationElicitation_eng-prolific,3.2.4,Win32,60,5eaca13a67ba8f30f90a2dc5,,1,0,81,50,1,80
,,,,,,,,,,,,,,,,,,,,,,,,,,,,,,,,,,,,,,,,,i,3.57799983,MY SUI,FALSE,,,,,,,157,mussol,Catalan,Sounds/cat_mussol.mp3,2020-06-05_15h35.12.969,TranslationElicitation_eng-prolific,3.2.4,Win32,60,5eaca13a67ba8f30f90a2dc5,,1,0,81,50,1,80
,,,,,,,,,,,,,,,,,,,,,,,,,,,,,,,,,,,,,,,,,n,3.760999918,MY SUIN,FALSE,,,,,,,157,mussol,Catalan,Sounds/cat_mussol.mp3,2020-06-05_15h35.12.969,TranslationElicitation_eng-prolific,3.2.4,Win32,60,5eaca13a67ba8f30f90a2dc5,,1,0,81,50,1,80
,,,,,,,,,,,,,,,,,,,,,,,,,,,,,,,,,,,,,,,,,backspace,4.06099987,MY SUI,TRUE,,,,,,,157,mussol,Catalan,Sounds/cat_mussol.mp3,2020-06-05_15h35.12.969,TranslationElicitation_eng-prolific,3.2.4,Win32,60,5eaca13a67ba8f30f90a2dc5,,1,0,81,50,1,80
,,,,,,,,,,,,,,,,,,,,,,,,,,,,,,,,,,,,,,,,,backspace,4.194000006,MY SU,TRUE,,,,,,,157,mussol,Catalan,Sounds/cat_mussol.mp3,2020-06-05_15h35.12.969,TranslationElicitation_eng-prolific,3.2.4,Win32,60,5eaca13a67ba8f30f90a2dc5,,1,0,81,50,1,80
,,,,,,,,,,,,,,,,,,,,,,,,,,,,,,,,,,,,,,,,,n,4.393999815,MY SUN,TRUE,,,,,,,157,mussol,Catalan,Sounds/cat_mussol.mp3,2020-06-05_15h35.12.969,TranslationElicitation_eng-prolific,3.2.4,Win32,60,5eaca13a67ba8f30f90a2dc5,,1,0,81,50,1,80
,,,,,,,,,,,,,,,,,,,,,,,,,,,,,,,,,,,,,,,,,return,4.659999847,MY SUN,TRUE,,,,,,,157,mussol,Catalan,Sounds/cat_mussol.mp3,2020-06-05_15h35.12.969,TranslationElicitation_eng-prolific,3.2.4,Win32,60,5eaca13a67ba8f30f90a2dc5,4.659999847,1,0,81,50,1,80
,,,,,,,,,,,,,,,,,,,,,,,,,,,,,,,,,,,,,,,,,,,,,,,,,,,157,mussol,Catalan,Sounds/cat_mussol.mp3,2020-06-05_15h35.12.969,TranslationElicitation_eng-prolific,3.2.4,Win32,60,5eaca13a67ba8f30f90a2dc5,,1,0,81,50,1,80
,,,,,,,,,,,,,,,,,,,,,,,,,,,,,,,,,,,,,,,,,m,1.914000034,M,FALSE,,,,,,,152,ma,Catalan,Sounds/cat_ma.mp3,2020-06-05_15h35.12.969,TranslationElicitation_eng-prolific,3.2.4,Win32,60,5eaca13a67ba8f30f90a2dc5,,1,0,81,45,1,80
,,,,,,,,,,,,,,,,,,,,,,,,,,,,,,,,,,,,,,,,,a,1.996999979,MA,FALSE,,,,,,,152,ma,Catalan,Sounds/cat_ma.mp3,2020-06-05_15h35.12.969,TranslationElicitation_eng-prolific,3.2.4,Win32,60,5eaca13a67ba8f30f90a2dc5,,1,0,81,45,1,80
,,,,,,,,,,,,,,,,,,,,,,,,,,,,,,,,,,,,,,,,,r,2.164000034,MAR,FALSE,,,,,,,152,ma,Catalan,Sounds/cat_ma.mp3,2020-06-05_15h35.12.969,TranslationElicitation_eng-prolific,3.2.4,Win32,60,5eaca13a67ba8f30f90a2dc5,,1,0,81,45,1,80
,,,,,,,,,,,,,,,,,,,,,,,,,,,,,,,,,,,,,,,,,s,2.31400013,MARS,FALSE,,,,,,,152,ma,Catalan,Sounds/cat_ma.mp3,2020-06-05_15h35.12.969,TranslationElicitation_eng-prolific,3.2.4,Win32,60,5eaca13a67ba8f30f90a2dc5,,1,0,81,45,1,80
,,,,,,,,,,,,,,,,,,,,,,,,,,,,,,,,,,,,,,,,,return,2.447000027,MARS,FALSE,,,,,,,152,ma,Catalan,Sounds/cat_ma.mp3,2020-06-05_15h35.12.969,TranslationElicitation_eng-prolific,3.2.4,Win32,60,5eaca13a67ba8f30f90a2dc5,2.447000027,1,0,81,45,1,80
,,,,,,,,,,,,,,,,,,,,,,,,,,,,,,,,,,,,,,,,,,,,,,,,,,,152,ma,Catalan,Sounds/cat_ma.mp3,2020-06-05_15h35.12.969,TranslationElicitation_eng-prolific,3.2.4,Win32,60,5eaca13a67ba8f30f90a2dc5,,1,0,81,45,1,80
,,,,,,,,,,,,,,,,,,,,,,,,,,,,,,,,,,,,,,,,,d,2.516000032,D,FALSE,,,,,,,129,dit,Catalan,Sounds/cat_dit.mp3,2020-06-05_15h35.12.969,TranslationElicitation_eng-prolific,3.2.4,Win32,60,5eaca13a67ba8f30f90a2dc5,,1,0,81,23,1,80
,,,,,,,,,,,,,,,,,,,,,,,,,,,,,,,,,,,,,,,,,e,2.631999969,DE,FALSE,,,,,,,129,dit,Catalan,Sounds/cat_dit.mp3,2020-06-05_15h35.12.969,TranslationElicitation_eng-prolific,3.2.4,Win32,60,5eaca13a67ba8f30f90a2dc5,,1,0,81,23,1,80
,,,,,,,,,,,,,,,,,,,,,,,,,,,,,,,,,,,,,,,,,b,3.296000004,DEB,FALSE,,,,,,,129,dit,Catalan,Sounds/cat_dit.mp3,2020-06-05_15h35.12.969,TranslationElicitation_eng-prolific,3.2.4,Win32,60,5eaca13a67ba8f30f90a2dc5,,1,0,81,23,1,80
,,,,,,,,,,,,,,,,,,,,,,,,,,,,,,,,,,,,,,,,,t,3.395999908,DEBT,FALSE,,,,,,,129,dit,Catalan,Sounds/cat_dit.mp3,2020-06-05_15h35.12.969,TranslationElicitation_eng-prolific,3.2.4,Win32,60,5eaca13a67ba8f30f90a2dc5,,1,0,81,23,1,80
,,,,,,,,,,,,,,,,,,,,,,,,,,,,,,,,,,,,,,,,,return,3.578999996,DEBT,FALSE,,,,,,,129,dit,Catalan,Sounds/cat_dit.mp3,2020-06-05_15h35.12.969,TranslationElicitation_eng-prolific,3.2.4,Win32,60,5eaca13a67ba8f30f90a2dc5,3.578999996,1,0,81,23,1,80
,,,,,,,,,,,,,,,,,,,,,,,,,,,,,,,,,,,,,,,,,,,,,,,,,,,129,dit,Catalan,Sounds/cat_dit.mp3,2020-06-05_15h35.12.969,TranslationElicitation_eng-prolific,3.2.4,Win32,60,5eaca13a67ba8f30f90a2dc5,,1,0,81,23,1,80
,,,,,,,,,,,,,,,,,,,,,,,,,,,,,,,,,,,,,,,,,g,2.529999971,G,FALSE,,,,,,,143,globus,Catalan,Sounds/cat_globus.mp3,2020-06-05_15h35.12.969,TranslationElicitation_eng-prolific,3.2.4,Win32,60,5eaca13a67ba8f30f90a2dc5,,1,0,81,37,1,80
,,,,,,,,,,,,,,,,,,,,,,,,,,,,,,,,,,,,,,,,,l,2.662999868,GL,FALSE,,,,,,,143,globus,Catalan,Sounds/cat_globus.mp3,2020-06-05_15h35.12.969,TranslationElicitation_eng-prolific,3.2.4,Win32,60,5eaca13a67ba8f30f90a2dc5,,1,0,81,37,1,80
,,,,,,,,,,,,,,,,,,,,,,,,,,,,,,,,,,,,,,,,,o,2.829999924,GLO,FALSE,,,,,,,143,globus,Catalan,Sounds/cat_globus.mp3,2020-06-05_15h35.12.969,TranslationElicitation_eng-prolific,3.2.4,Win32,60,5eaca13a67ba8f30f90a2dc5,,1,0,81,37,1,80
,,,,,,,,,,,,,,,,,,,,,,,,,,,,,,,,,,,,,,,,,s,2.945999861,GLOS,FALSE,,,,,,,143,globus,Catalan,Sounds/cat_globus.mp3,2020-06-05_15h35.12.969,TranslationElicitation_eng-prolific,3.2.4,Win32,60,5eaca13a67ba8f30f90a2dc5,,1,0,81,37,1,80
,,,,,,,,,,,,,,,,,,,,,,,,,,,,,,,,,,,,,,,,,s,3.09800005,GLOSS,FALSE,,,,,,,143,globus,Catalan,Sounds/cat_globus.mp3,2020-06-05_15h35.12.969,TranslationElicitation_eng-prolific,3.2.4,Win32,60,5eaca13a67ba8f30f90a2dc5,,1,0,81,37,1,80
,,,,,,,,,,,,,,,,,,,,,,,,,,,,,,,,,,,,,,,,,return,3.180000067,GLOSS,FALSE,,,,,,,143,globus,Catalan,Sounds/cat_globus.mp3,2020-06-05_15h35.12.969,TranslationElicitation_eng-prolific,3.2.4,Win32,60,5eaca13a67ba8f30f90a2dc5,3.180000067,1,0,81,37,1,80
,,,,,,,,,,,,,,,,,,,,,,,,,,,,,,,,,,,,,,,,,,,,,,,,,,,143,globus,Catalan,Sounds/cat_globus.mp3,2020-06-05_15h35.12.969,TranslationElicitation_eng-prolific,3.2.4,Win32,60,5eaca13a67ba8f30f90a2dc5,,1,0,81,37,1,80
,,,,,,,,,,,,,,,,,,,,,,,,,,,,,,,,,,,,,,,,,b,1.864000082,B,FALSE,,,,,,,115,bolet,Catalan,Sounds/cat_bolet.mp3,2020-06-05_15h35.12.969,TranslationElicitation_eng-prolific,3.2.4,Win32,60,5eaca13a67ba8f30f90a2dc5,,1,0,81,10,1,80
,,,,,,,,,,,,,,,,,,,,,,,,,,,,,,,,,,,,,,,,,o,2.147000074,BO,FALSE,,,,,,,115,bolet,Catalan,Sounds/cat_bolet.mp3,2020-06-05_15h35.12.969,TranslationElicitation_eng-prolific,3.2.4,Win32,60,5eaca13a67ba8f30f90a2dc5,,1,0,81,10,1,80
,,,,,,,,,,,,,,,,,,,,,,,,,,,,,,,,,,,,,,,,,o,3.999000072,BOO,FALSE,,,,,,,115,bolet,Catalan,Sounds/cat_bolet.mp3,2020-06-05_15h35.12.969,TranslationElicitation_eng-prolific,3.2.4,Win32,60,5eaca13a67ba8f30f90a2dc5,,1,0,81,10,1,80
,,,,,,,,,,,,,,,,,,,,,,,,,,,,,,,,,,,,,,,,,l,4.196000099,BOOL,FALSE,,,,,,,115,bolet,Catalan,Sounds/cat_bolet.mp3,2020-06-05_15h35.12.969,TranslationElicitation_eng-prolific,3.2.4,Win32,60,5eaca13a67ba8f30f90a2dc5,,1,0,81,10,1,80
,,,,,,,,,,,,,,,,,,,,,,,,,,,,,,,,,,,,,,,,,e,4.279000044,BOOLE,FALSE,,,,,,,115,bolet,Catalan,Sounds/cat_bolet.mp3,2020-06-05_15h35.12.969,TranslationElicitation_eng-prolific,3.2.4,Win32,60,5eaca13a67ba8f30f90a2dc5,,1,0,81,10,1,80
,,,,,,,,,,,,,,,,,,,,,,,,,,,,,,,,,,,,,,,,,s,4.480000019,BOOLES,FALSE,,,,,,,115,bolet,Catalan,Sounds/cat_bolet.mp3,2020-06-05_15h35.12.969,TranslationElicitation_eng-prolific,3.2.4,Win32,60,5eaca13a67ba8f30f90a2dc5,,1,0,81,10,1,80
,,,,,,,,,,,,,,,,,,,,,,,,,,,,,,,,,,,,,,,,,return,5.095999956,BOOLES,FALSE,,,,,,,115,bolet,Catalan,Sounds/cat_bolet.mp3,2020-06-05_15h35.12.969,TranslationElicitation_eng-prolific,3.2.4,Win32,60,5eaca13a67ba8f30f90a2dc5,5.095999956,1,0,81,10,1,80
,,,,,,,,,,,,,,,,,,,,,,,,,,,,,,,,,,,,,,,,,,,,,,,,,,,115,bolet,Catalan,Sounds/cat_bolet.mp3,2020-06-05_15h35.12.969,TranslationElicitation_eng-prolific,3.2.4,Win32,60,5eaca13a67ba8f30f90a2dc5,,1,0,81,10,1,80
,,,,,,,,,,,,,,,,,,,,,,,,,,,,,,,,,,,,,,,,,a,1.73300004,A,FALSE,,,,,,,130,entrepa,Catalan,Sounds/cat_entrepa.mp3,2020-06-05_15h35.12.969,TranslationElicitation_eng-prolific,3.2.4,Win32,60,5eaca13a67ba8f30f90a2dc5,,1,0,81,24,1,80
,,,,,,,,,,,,,,,,,,,,,,,,,,,,,,,,,,,,,,,,,n,1.914000034,AN,FALSE,,,,,,,130,entrepa,Catalan,Sounds/cat_entrepa.mp3,2020-06-05_15h35.12.969,TranslationElicitation_eng-prolific,3.2.4,Win32,60,5eaca13a67ba8f30f90a2dc5,,1,0,81,24,1,80
,,,,,,,,,,,,,,,,,,,,,,,,,,,,,,,,,,,,,,,,,t,2.063999891,ANT,FALSE,,,,,,,130,entrepa,Catalan,Sounds/cat_entrepa.mp3,2020-06-05_15h35.12.969,TranslationElicitation_eng-prolific,3.2.4,Win32,60,5eaca13a67ba8f30f90a2dc5,,1,0,81,24,1,80
,,,,,,,,,,,,,,,,,,,,,,,,,,,,,,,,,,,,,,,,,h,2.180000067,ANTH,FALSE,,,,,,,130,entrepa,Catalan,Sounds/cat_entrepa.mp3,2020-06-05_15h35.12.969,TranslationElicitation_eng-prolific,3.2.4,Win32,60,5eaca13a67ba8f30f90a2dc5,,1,0,81,24,1,80
,,,,,,,,,,,,,,,,,,,,,,,,,,,,,,,,,,,,,,,,,r,2.532000065,ANTHR,FALSE,,,,,,,130,entrepa,Catalan,Sounds/cat_entrepa.mp3,2020-06-05_15h35.12.969,TranslationElicitation_eng-prolific,3.2.4,Win32,60,5eaca13a67ba8f30f90a2dc5,,1,0,81,24,1,80
,,,,,,,,,,,,,,,,,,,,,,,,,,,,,,,,,,,,,,,,,o,2.730000019,ANTHRO,FALSE,,,,,,,130,entrepa,Catalan,Sounds/cat_entrepa.mp3,2020-06-05_15h35.12.969,TranslationElicitation_eng-prolific,3.2.4,Win32,60,5eaca13a67ba8f30f90a2dc5,,1,0,81,24,1,80
,,,,,,,,,,,,,,,,,,,,,,,,,,,,,,,,,,,,,,,,,p,3.411999941,ANTHROP,FALSE,,,,,,,130,entrepa,Catalan,Sounds/cat_entrepa.mp3,2020-06-05_15h35.12.969,TranslationElicitation_eng-prolific,3.2.4,Win32,60,5eaca13a67ba8f30f90a2dc5,,1,0,81,24,1,80
,,,,,,,,,,,,,,,,,,,,,,,,,,,,,,,,,,,,,,,,,o,3.578999996,ANTHROPO,FALSE,,,,,,,130,entrepa,Catalan,Sounds/cat_entrepa.mp3,2020-06-05_15h35.12.969,TranslationElicitation_eng-prolific,3.2.4,Win32,60,5eaca13a67ba8f30f90a2dc5,,1,0,81,24,1,80
,,,,,,,,,,,,,,,,,,,,,,,,,,,,,,,,,,,,,,,,,g,3.779000044,ANTHROPOG,FALSE,,,,,,,130,entrepa,Catalan,Sounds/cat_entrepa.mp3,2020-06-05_15h35.12.969,TranslationElicitation_eng-prolific,3.2.4,Win32,60,5eaca13a67ba8f30f90a2dc5,,1,0,81,24,1,80
,,,,,,,,,,,,,,,,,,,,,,,,,,,,,,,,,,,,,,,,,e,3.846999884,ANTHROPOGE,FALSE,,,,,,,130,entrepa,Catalan,Sounds/cat_entrepa.mp3,2020-06-05_15h35.12.969,TranslationElicitation_eng-prolific,3.2.4,Win32,60,5eaca13a67ba8f30f90a2dc5,,1,0,81,24,1,80
,,,,,,,,,,,,,,,,,,,,,,,,,,,,,,,,,,,,,,,,,n,3.971999884,ANTHROPOGEN,FALSE,,,,,,,130,entrepa,Catalan,Sounds/cat_entrepa.mp3,2020-06-05_15h35.12.969,TranslationElicitation_eng-prolific,3.2.4,Win32,60,5eaca13a67ba8f30f90a2dc5,,1,0,81,24,1,80
,,,,,,,,,,,,,,,,,,,,,,,,,,,,,,,,,,,,,,,,,i,4.095000029,ANTHROPOGENI,FALSE,,,,,,,130,entrepa,Catalan,Sounds/cat_entrepa.mp3,2020-06-05_15h35.12.969,TranslationElicitation_eng-prolific,3.2.4,Win32,60,5eaca13a67ba8f30f90a2dc5,,1,0,81,24,1,80
,,,,,,,,,,,,,,,,,,,,,,,,,,,,,,,,,,,,,,,,,c,4.194999933,ANTHROPOGENIC,FALSE,,,,,,,130,entrepa,Catalan,Sounds/cat_entrepa.mp3,2020-06-05_15h35.12.969,TranslationElicitation_eng-prolific,3.2.4,Win32,60,5eaca13a67ba8f30f90a2dc5,,1,0,81,24,1,80
,,,,,,,,,,,,,,,,,,,,,,,,,,,,,,,,,,,,,,,,,return,4.460999966,ANTHROPOGENIC,FALSE,,,,,,,130,entrepa,Catalan,Sounds/cat_entrepa.mp3,2020-06-05_15h35.12.969,TranslationElicitation_eng-prolific,3.2.4,Win32,60,5eaca13a67ba8f30f90a2dc5,4.460999966,1,0,81,24,1,80
,,,,,,,,,,,,,,,,,,,,,,,,,,,,,,,,,,,,,,,,,,,,,,,,,,,130,entrepa,Catalan,Sounds/cat_entrepa.mp3,2020-06-05_15h35.12.969,TranslationElicitation_eng-prolific,3.2.4,Win32,60,5eaca13a67ba8f30f90a2dc5,,1,0,81,24,1,80
,,,,,,,,,,,,,,,,,,,,,,,,,,,,,,,,,,,,,,,,,a,1.548000097,A,FALSE,,,,,,,104,abella,Catalan,Sounds/cat_abella.mp3,2020-06-05_15h35.12.969,TranslationElicitation_eng-prolific,3.2.4,Win32,60,5eaca13a67ba8f30f90a2dc5,,1,0,81,0,1,80
