consentKey.keys,consentKey.rt,languageL1Key.keys,languageL1Key.rt,languageL2,languageL2OralKey.keys,languageL2OralKey.rt,languageL2WrittenKey.keys,languageL2WrittenKey.rt,languageL3OralKey.keys,languageL3OralKey.rt,languageL3WrittenKey.keys,languageL3WrittenKey.rt,languageCatalanOralKey.keys,languageCatalanOralKey.rt,languageCatalanWrittenKey.keys,languageCatalanWrittenKey.rt,languageCatalanTimeKey.keys,languageCatalanTimeKey.rt,languageSpanishOralKey.keys,languageSpanishOralKey.rt,languageSpanishWrittenKey.keys,languageSpanishWrittenKey.rt,languageSpanishTimeKey.keys,languageSpanishTimeKey.rt,age,demoSexKey.keys,demoSexKey.rt,demoEducationKey.keys,demoEducationKey.rt,city,demoVisionKey.keys,demoVisionKey.rt,demoLanguageKey.keys,demoLanguageKey.rt,setupLocationKey.keys,setupLocationKey.rt,setupNoiseKey.keys,setupNoiseKey.rt,instructionsKeys.keys,instructionsKeys.rt,keyPressed,keyPressTime,inputText,error,trialsPracticeSpanish.thisRepN,trialsPracticeSpanish.thisTrialN,trialsPracticeSpanish.thisN,trialsPracticeSpanish.thisIndex,trialsPracticeSpanish.ran,trialsPracticeSpanish.order,trial_id,word,test_language,soundfile,date,expName,psychopyVersion,OS,frameRate,participant,trialOffset,trialsSpanish.thisRepN,trialsSpanish.thisTrialN,trialsSpanish.thisN,trialsSpanish.thisIndex,trialsSpanish.ran,trialsSpanish.order
space,4.361999989,e,3.015000105,,,,,,,,,,1,4.912999868,1,2.661000013,1,6.133000135,1,6.399999857,1,3.535000086,1,3.931999922,20,f,2.069000006,3,3.986000061,NEWCASTLEMINUSUPONMINUSTYNE,y,4.864000082,n,45.72000003,1,3.032000065,1,4.398999929,space,21.03500009,c,2.83100009,C,FALSE,1,0,5,2,1,4,26,chaqueta,Spanish,Sounds/spa_chaqueta.mp3,2020-06-08_18h15.34.774,TranslationElicitation_eng-prolific,3.2.4,MacIntel,60,5eaeeb1a716ed0081dfa8718,,,,,,,
,,,,,,,,,,,,,,,,,,,,,,,,,,,,,,,,,,,,,,,,,h,2.930999994,CH,FALSE,1,0,5,2,1,4,26,chaqueta,Spanish,Sounds/spa_chaqueta.mp3,2020-06-08_18h15.34.774,TranslationElicitation_eng-prolific,3.2.4,MacIntel,60,5eaeeb1a716ed0081dfa8718,,,,,,,
,,,,,,,,,,,,,,,,,,,,,,,,,,,,,,,,,,,,,,,,,i,3.014999866,CHI,FALSE,1,0,5,2,1,4,26,chaqueta,Spanish,Sounds/spa_chaqueta.mp3,2020-06-08_18h15.34.774,TranslationElicitation_eng-prolific,3.2.4,MacIntel,60,5eaeeb1a716ed0081dfa8718,,,,,,,
,,,,,,,,,,,,,,,,,,,,,,,,,,,,,,,,,,,,,,,,,l,3.366999865,CHIL,FALSE,1,0,5,2,1,4,26,chaqueta,Spanish,Sounds/spa_chaqueta.mp3,2020-06-08_18h15.34.774,TranslationElicitation_eng-prolific,3.2.4,MacIntel,60,5eaeeb1a716ed0081dfa8718,,,,,,,
,,,,,,,,,,,,,,,,,,,,,,,,,,,,,,,,,,,,,,,,,backspace,4.717999935,CHI,TRUE,1,0,5,2,1,4,26,chaqueta,Spanish,Sounds/spa_chaqueta.mp3,2020-06-08_18h15.34.774,TranslationElicitation_eng-prolific,3.2.4,MacIntel,60,5eaeeb1a716ed0081dfa8718,,,,,,,
,,,,,,,,,,,,,,,,,,,,,,,,,,,,,,,,,,,,,,,,,backspace,4.86500001,CH,TRUE,1,0,5,2,1,4,26,chaqueta,Spanish,Sounds/spa_chaqueta.mp3,2020-06-08_18h15.34.774,TranslationElicitation_eng-prolific,3.2.4,MacIntel,60,5eaeeb1a716ed0081dfa8718,,,,,,,
,,,,,,,,,,,,,,,,,,,,,,,,,,,,,,,,,,,,,,,,,backspace,5.014999866,C,TRUE,1,0,5,2,1,4,26,chaqueta,Spanish,Sounds/spa_chaqueta.mp3,2020-06-08_18h15.34.774,TranslationElicitation_eng-prolific,3.2.4,MacIntel,60,5eaeeb1a716ed0081dfa8718,,,,,,,
,,,,,,,,,,,,,,,,,,,,,,,,,,,,,,,,,,,,,,,,,backspace,5.148000002,,TRUE,1,0,5,2,1,4,26,chaqueta,Spanish,Sounds/spa_chaqueta.mp3,2020-06-08_18h15.34.774,TranslationElicitation_eng-prolific,3.2.4,MacIntel,60,5eaeeb1a716ed0081dfa8718,,,,,,,
,,,,,,,,,,,,,,,,,,,,,,,,,,,,,,,,,,,,,,,,,d,5.565000057,D,TRUE,1,0,5,2,1,4,26,chaqueta,Spanish,Sounds/spa_chaqueta.mp3,2020-06-08_18h15.34.774,TranslationElicitation_eng-prolific,3.2.4,MacIntel,60,5eaeeb1a716ed0081dfa8718,,,,,,,
,,,,,,,,,,,,,,,,,,,,,,,,,,,,,,,,,,,,,,,,,a,5.73300004,DA,TRUE,1,0,5,2,1,4,26,chaqueta,Spanish,Sounds/spa_chaqueta.mp3,2020-06-08_18h15.34.774,TranslationElicitation_eng-prolific,3.2.4,MacIntel,60,5eaeeb1a716ed0081dfa8718,,,,,,,
,,,,,,,,,,,,,,,,,,,,,,,,,,,,,,,,,,,,,,,,,u,5.86500001,DAU,TRUE,1,0,5,2,1,4,26,chaqueta,Spanish,Sounds/spa_chaqueta.mp3,2020-06-08_18h15.34.774,TranslationElicitation_eng-prolific,3.2.4,MacIntel,60,5eaeeb1a716ed0081dfa8718,,,,,,,
,,,,,,,,,,,,,,,,,,,,,,,,,,,,,,,,,,,,,,,,,g,6.032999992,DAUG,TRUE,1,0,5,2,1,4,26,chaqueta,Spanish,Sounds/spa_chaqueta.mp3,2020-06-08_18h15.34.774,TranslationElicitation_eng-prolific,3.2.4,MacIntel,60,5eaeeb1a716ed0081dfa8718,,,,,,,
,,,,,,,,,,,,,,,,,,,,,,,,,,,,,,,,,,,,,,,,,h,6.264999866,DAUGH,TRUE,1,0,5,2,1,4,26,chaqueta,Spanish,Sounds/spa_chaqueta.mp3,2020-06-08_18h15.34.774,TranslationElicitation_eng-prolific,3.2.4,MacIntel,60,5eaeeb1a716ed0081dfa8718,,,,,,,
,,,,,,,,,,,,,,,,,,,,,,,,,,,,,,,,,,,,,,,,,t,6.499000072,DAUGHT,TRUE,1,0,5,2,1,4,26,chaqueta,Spanish,Sounds/spa_chaqueta.mp3,2020-06-08_18h15.34.774,TranslationElicitation_eng-prolific,3.2.4,MacIntel,60,5eaeeb1a716ed0081dfa8718,,,,,,,
,,,,,,,,,,,,,,,,,,,,,,,,,,,,,,,,,,,,,,,,,e,6.815999985,DAUGHTE,TRUE,1,0,5,2,1,4,26,chaqueta,Spanish,Sounds/spa_chaqueta.mp3,2020-06-08_18h15.34.774,TranslationElicitation_eng-prolific,3.2.4,MacIntel,60,5eaeeb1a716ed0081dfa8718,,,,,,,
,,,,,,,,,,,,,,,,,,,,,,,,,,,,,,,,,,,,,,,,,r,6.898000002,DAUGHTER,TRUE,1,0,5,2,1,4,26,chaqueta,Spanish,Sounds/spa_chaqueta.mp3,2020-06-08_18h15.34.774,TranslationElicitation_eng-prolific,3.2.4,MacIntel,60,5eaeeb1a716ed0081dfa8718,,,,,,,
,,,,,,,,,,,,,,,,,,,,,,,,,,,,,,,,,,,,,,,,,return,7.714999914,DAUGHTER,TRUE,1,0,5,2,1,4,26,chaqueta,Spanish,Sounds/spa_chaqueta.mp3,2020-06-08_18h15.34.774,TranslationElicitation_eng-prolific,3.2.4,MacIntel,60,5eaeeb1a716ed0081dfa8718,7.714999914,,,,,,
,,,,,,,,,,,,,,,,,,,,,,,,,,,,,,,,,,,,,,,,,,,,,1,0,5,2,1,4,26,chaqueta,Spanish,Sounds/spa_chaqueta.mp3,2020-06-08_18h15.34.774,TranslationElicitation_eng-prolific,3.2.4,MacIntel,60,5eaeeb1a716ed0081dfa8718,,,,,,,
,,,,,,,,,,,,,,,,,,,,,,,,,,,,,,,,,,,,,,,,,c,1.80099988,C,FALSE,1,0,5,1,1,4,30,corona,Spanish,Sounds/spa_corona.mp3,2020-06-08_18h15.34.774,TranslationElicitation_eng-prolific,3.2.4,MacIntel,60,5eaeeb1a716ed0081dfa8718,,,,,,,
,,,,,,,,,,,,,,,,,,,,,,,,,,,,,,,,,,,,,,,,,o,2.132999897,CO,FALSE,1,0,5,1,1,4,30,corona,Spanish,Sounds/spa_corona.mp3,2020-06-08_18h15.34.774,TranslationElicitation_eng-prolific,3.2.4,MacIntel,60,5eaeeb1a716ed0081dfa8718,,,,,,,
,,,,,,,,,,,,,,,,,,,,,,,,,,,,,,,,,,,,,,,,,r,2.232999802,COR,FALSE,1,0,5,1,1,4,30,corona,Spanish,Sounds/spa_corona.mp3,2020-06-08_18h15.34.774,TranslationElicitation_eng-prolific,3.2.4,MacIntel,60,5eaeeb1a716ed0081dfa8718,,,,,,,
,,,,,,,,,,,,,,,,,,,,,,,,,,,,,,,,,,,,,,,,,o,2.548999786,CORO,FALSE,1,0,5,1,1,4,30,corona,Spanish,Sounds/spa_corona.mp3,2020-06-08_18h15.34.774,TranslationElicitation_eng-prolific,3.2.4,MacIntel,60,5eaeeb1a716ed0081dfa8718,,,,,,,
,,,,,,,,,,,,,,,,,,,,,,,,,,,,,,,,,,,,,,,,,n,2.732999802,CORON,FALSE,1,0,5,1,1,4,30,corona,Spanish,Sounds/spa_corona.mp3,2020-06-08_18h15.34.774,TranslationElicitation_eng-prolific,3.2.4,MacIntel,60,5eaeeb1a716ed0081dfa8718,,,,,,,
,,,,,,,,,,,,,,,,,,,,,,,,,,,,,,,,,,,,,,,,,a,3.267999887,CORONA,FALSE,1,0,5,1,1,4,30,corona,Spanish,Sounds/spa_corona.mp3,2020-06-08_18h15.34.774,TranslationElicitation_eng-prolific,3.2.4,MacIntel,60,5eaeeb1a716ed0081dfa8718,,,,,,,
,,,,,,,,,,,,,,,,,,,,,,,,,,,,,,,,,,,,,,,,,return,3.467999935,CORONA,FALSE,1,0,5,1,1,4,30,corona,Spanish,Sounds/spa_corona.mp3,2020-06-08_18h15.34.774,TranslationElicitation_eng-prolific,3.2.4,MacIntel,60,5eaeeb1a716ed0081dfa8718,3.467999935,,,,,,
,,,,,,,,,,,,,,,,,,,,,,,,,,,,,,,,,,,,,,,,,,,,,1,0,5,1,1,4,30,corona,Spanish,Sounds/spa_corona.mp3,2020-06-08_18h15.34.774,TranslationElicitation_eng-prolific,3.2.4,MacIntel,60,5eaeeb1a716ed0081dfa8718,,,,,,,
,,,,,,,,,,,,,,,,,,,,,,,,,,,,,,,,,,,,,,,,,h,1.947999954,H,FALSE,1,0,5,3,1,4,70,ola,Spanish,Sounds/spa_ola.mp3,2020-06-08_18h15.34.774,TranslationElicitation_eng-prolific,3.2.4,MacIntel,60,5eaeeb1a716ed0081dfa8718,,,,,,,
,,,,,,,,,,,,,,,,,,,,,,,,,,,,,,,,,,,,,,,,,e,2.098999977,HE,FALSE,1,0,5,3,1,4,70,ola,Spanish,Sounds/spa_ola.mp3,2020-06-08_18h15.34.774,TranslationElicitation_eng-prolific,3.2.4,MacIntel,60,5eaeeb1a716ed0081dfa8718,,,,,,,
,,,,,,,,,,,,,,,,,,,,,,,,,,,,,,,,,,,,,,,,,l,2.481999874,HEL,FALSE,1,0,5,3,1,4,70,ola,Spanish,Sounds/spa_ola.mp3,2020-06-08_18h15.34.774,TranslationElicitation_eng-prolific,3.2.4,MacIntel,60,5eaeeb1a716ed0081dfa8718,,,,,,,
,,,,,,,,,,,,,,,,,,,,,,,,,,,,,,,,,,,,,,,,,l,2.632999897,HELL,FALSE,1,0,5,3,1,4,70,ola,Spanish,Sounds/spa_ola.mp3,2020-06-08_18h15.34.774,TranslationElicitation_eng-prolific,3.2.4,MacIntel,60,5eaeeb1a716ed0081dfa8718,,,,,,,
,,,,,,,,,,,,,,,,,,,,,,,,,,,,,,,,,,,,,,,,,o,2.815000057,HELLO,FALSE,1,0,5,3,1,4,70,ola,Spanish,Sounds/spa_ola.mp3,2020-06-08_18h15.34.774,TranslationElicitation_eng-prolific,3.2.4,MacIntel,60,5eaeeb1a716ed0081dfa8718,,,,,,,
,,,,,,,,,,,,,,,,,,,,,,,,,,,,,,,,,,,,,,,,,return,3.231999874,HELLO,FALSE,1,0,5,3,1,4,70,ola,Spanish,Sounds/spa_ola.mp3,2020-06-08_18h15.34.774,TranslationElicitation_eng-prolific,3.2.4,MacIntel,60,5eaeeb1a716ed0081dfa8718,3.231999874,,,,,,
,,,,,,,,,,,,,,,,,,,,,,,,,,,,,,,,,,,,,,,,,,,,,1,0,5,3,1,4,70,ola,Spanish,Sounds/spa_ola.mp3,2020-06-08_18h15.34.774,TranslationElicitation_eng-prolific,3.2.4,MacIntel,60,5eaeeb1a716ed0081dfa8718,,,,,,,
,,,,,,,,,,,,,,,,,,,,,,,,,,,,,,,,,,,,,,,,,g,2.51699996,G,FALSE,1,0,5,4,1,4,96,tigre,Spanish,Sounds/spa_tigre.mp3,2020-06-08_18h15.34.774,TranslationElicitation_eng-prolific,3.2.4,MacIntel,60,5eaeeb1a716ed0081dfa8718,,,,,,,
,,,,,,,,,,,,,,,,,,,,,,,,,,,,,,,,,,,,,,,,,r,2.697999954,GR,FALSE,1,0,5,4,1,4,96,tigre,Spanish,Sounds/spa_tigre.mp3,2020-06-08_18h15.34.774,TranslationElicitation_eng-prolific,3.2.4,MacIntel,60,5eaeeb1a716ed0081dfa8718,,,,,,,
,,,,,,,,,,,,,,,,,,,,,,,,,,,,,,,,,,,,,,,,,e,2.815000057,GRE,FALSE,1,0,5,4,1,4,96,tigre,Spanish,Sounds/spa_tigre.mp3,2020-06-08_18h15.34.774,TranslationElicitation_eng-prolific,3.2.4,MacIntel,60,5eaeeb1a716ed0081dfa8718,,,,,,,
,,,,,,,,,,,,,,,,,,,,,,,,,,,,,,,,,,,,,,,,,y,3.016000032,GREY,FALSE,1,0,5,4,1,4,96,tigre,Spanish,Sounds/spa_tigre.mp3,2020-06-08_18h15.34.774,TranslationElicitation_eng-prolific,3.2.4,MacIntel,60,5eaeeb1a716ed0081dfa8718,,,,,,,
,,,,,,,,,,,,,,,,,,,,,,,,,,,,,,,,,,,,,,,,,return,3.414999962,GREY,FALSE,1,0,5,4,1,4,96,tigre,Spanish,Sounds/spa_tigre.mp3,2020-06-08_18h15.34.774,TranslationElicitation_eng-prolific,3.2.4,MacIntel,60,5eaeeb1a716ed0081dfa8718,3.414999962,,,,,,
,,,,,,,,,,,,,,,,,,,,,,,,,,,,,,,,,,,,,,,,,,,,,1,0,5,4,1,4,96,tigre,Spanish,Sounds/spa_tigre.mp3,2020-06-08_18h15.34.774,TranslationElicitation_eng-prolific,3.2.4,MacIntel,60,5eaeeb1a716ed0081dfa8718,,,,,,,
,,,,,,,,,,,,,,,,,,,,,,,,,,,,,,,,,,,,,,,,,h,5.065999985,H,FALSE,1,0,5,0,1,4,1,arbol,Spanish,Sounds/spa_arbol.mp3,2020-06-08_18h15.34.774,TranslationElicitation_eng-prolific,3.2.4,MacIntel,60,5eaeeb1a716ed0081dfa8718,,,,,,,
,,,,,,,,,,,,,,,,,,,,,,,,,,,,,,,,,,,,,,,,,e,5.498999834,HE,FALSE,1,0,5,0,1,4,1,arbol,Spanish,Sounds/spa_arbol.mp3,2020-06-08_18h15.34.774,TranslationElicitation_eng-prolific,3.2.4,MacIntel,60,5eaeeb1a716ed0081dfa8718,,,,,,,
,,,,,,,,,,,,,,,,,,,,,,,,,,,,,,,,,,,,,,,,,l,5.698999882,HEL,FALSE,1,0,5,0,1,4,1,arbol,Spanish,Sounds/spa_arbol.mp3,2020-06-08_18h15.34.774,TranslationElicitation_eng-prolific,3.2.4,MacIntel,60,5eaeeb1a716ed0081dfa8718,,,,,,,
,,,,,,,,,,,,,,,,,,,,,,,,,,,,,,,,,,,,,,,,,l,5.848999977,HELL,FALSE,1,0,5,0,1,4,1,arbol,Spanish,Sounds/spa_arbol.mp3,2020-06-08_18h15.34.774,TranslationElicitation_eng-prolific,3.2.4,MacIntel,60,5eaeeb1a716ed0081dfa8718,,,,,,,
,,,,,,,,,,,,,,,,,,,,,,,,,,,,,,,,,,,,,,,,,o,5.998999834,HELLO,FALSE,1,0,5,0,1,4,1,arbol,Spanish,Sounds/spa_arbol.mp3,2020-06-08_18h15.34.774,TranslationElicitation_eng-prolific,3.2.4,MacIntel,60,5eaeeb1a716ed0081dfa8718,,,,,,,
,,,,,,,,,,,,,,,,,,,,,,,,,,,,,,,,,,,,,,,,,return,6.198999882,HELLO,FALSE,1,0,5,0,1,4,1,arbol,Spanish,Sounds/spa_arbol.mp3,2020-06-08_18h15.34.774,TranslationElicitation_eng-prolific,3.2.4,MacIntel,60,5eaeeb1a716ed0081dfa8718,6.198999882,,,,,,
,,,,,,,,,,,,,,,,,,,,,,,,,,,,,,,,,,,,,,,,,,,,,1,0,5,0,1,4,1,arbol,Spanish,Sounds/spa_arbol.mp3,2020-06-08_18h15.34.774,TranslationElicitation_eng-prolific,3.2.4,MacIntel,60,5eaeeb1a716ed0081dfa8718,,,,,,,
,,,,,,,,,,,,,,,,,,,,,,,,,,,,,,,,,,,,,,,,,e,2.350000143,E,FALSE,,,,,,,29,coche,Spanish,Sounds/spa_coche.mp3,2020-06-08_18h15.34.774,TranslationElicitation_eng-prolific,3.2.4,MacIntel,60,5eaeeb1a716ed0081dfa8718,,1,0,98,26,1,97
,,,,,,,,,,,,,,,,,,,,,,,,,,,,,,,,,,,,,,,,,i,2.467000008,EI,FALSE,,,,,,,29,coche,Spanish,Sounds/spa_coche.mp3,2020-06-08_18h15.34.774,TranslationElicitation_eng-prolific,3.2.4,MacIntel,60,5eaeeb1a716ed0081dfa8718,,1,0,98,26,1,97
,,,,,,,,,,,,,,,,,,,,,,,,,,,,,,,,,,,,,,,,,g,2.601000071,EIG,FALSE,,,,,,,29,coche,Spanish,Sounds/spa_coche.mp3,2020-06-08_18h15.34.774,TranslationElicitation_eng-prolific,3.2.4,MacIntel,60,5eaeeb1a716ed0081dfa8718,,1,0,98,26,1,97
,,,,,,,,,,,,,,,,,,,,,,,,,,,,,,,,,,,,,,,,,h,2.75,EIGH,FALSE,,,,,,,29,coche,Spanish,Sounds/spa_coche.mp3,2020-06-08_18h15.34.774,TranslationElicitation_eng-prolific,3.2.4,MacIntel,60,5eaeeb1a716ed0081dfa8718,,1,0,98,26,1,97
,,,,,,,,,,,,,,,,,,,,,,,,,,,,,,,,,,,,,,,,,t,2.884000063,EIGHT,FALSE,,,,,,,29,coche,Spanish,Sounds/spa_coche.mp3,2020-06-08_18h15.34.774,TranslationElicitation_eng-prolific,3.2.4,MacIntel,60,5eaeeb1a716ed0081dfa8718,,1,0,98,26,1,97
,,,,,,,,,,,,,,,,,,,,,,,,,,,,,,,,,,,,,,,,,return,3.085000038,EIGHT,FALSE,,,,,,,29,coche,Spanish,Sounds/spa_coche.mp3,2020-06-08_18h15.34.774,TranslationElicitation_eng-prolific,3.2.4,MacIntel,60,5eaeeb1a716ed0081dfa8718,3.085000038,1,0,98,26,1,97
,,,,,,,,,,,,,,,,,,,,,,,,,,,,,,,,,,,,,,,,,,,,,,,,,,,29,coche,Spanish,Sounds/spa_coche.mp3,2020-06-08_18h15.34.774,TranslationElicitation_eng-prolific,3.2.4,MacIntel,60,5eaeeb1a716ed0081dfa8718,,1,0,98,26,1,97
,,,,,,,,,,,,,,,,,,,,,,,,,,,,,,,,,,,,,,,,,b,2.183000088,B,FALSE,,,,,,,86,pingüino,Spanish,Sounds/spa_pinguino.mp3,2020-06-08_18h15.34.774,TranslationElicitation_eng-prolific,3.2.4,MacIntel,60,5eaeeb1a716ed0081dfa8718,,1,0,98,81,1,97
,,,,,,,,,,,,,,,,,,,,,,,,,,,,,,,,,,,,,,,,,i,2.264000177,BI,FALSE,,,,,,,86,pingüino,Spanish,Sounds/spa_pinguino.mp3,2020-06-08_18h15.34.774,TranslationElicitation_eng-prolific,3.2.4,MacIntel,60,5eaeeb1a716ed0081dfa8718,,1,0,98,81,1,97
,,,,,,,,,,,,,,,,,,,,,,,,,,,,,,,,,,,,,,,,,n,2.46600008,BIN,FALSE,,,,,,,86,pingüino,Spanish,Sounds/spa_pinguino.mp3,2020-06-08_18h15.34.774,TranslationElicitation_eng-prolific,3.2.4,MacIntel,60,5eaeeb1a716ed0081dfa8718,,1,0,98,81,1,97
,,,,,,,,,,,,,,,,,,,,,,,,,,,,,,,,,,,,,,,,,g,2.948000193,BING,FALSE,,,,,,,86,pingüino,Spanish,Sounds/spa_pinguino.mp3,2020-06-08_18h15.34.774,TranslationElicitation_eng-prolific,3.2.4,MacIntel,60,5eaeeb1a716ed0081dfa8718,,1,0,98,81,1,97
,,,,,,,,,,,,,,,,,,,,,,,,,,,,,,,,,,,,,,,,,o,3.09800005,BINGO,FALSE,,,,,,,86,pingüino,Spanish,Sounds/spa_pinguino.mp3,2020-06-08_18h15.34.774,TranslationElicitation_eng-prolific,3.2.4,MacIntel,60,5eaeeb1a716ed0081dfa8718,,1,0,98,81,1,97
,,,,,,,,,,,,,,,,,,,,,,,,,,,,,,,,,,,,,,,,,return,3.448000193,BINGO,FALSE,,,,,,,86,pingüino,Spanish,Sounds/spa_pinguino.mp3,2020-06-08_18h15.34.774,TranslationElicitation_eng-prolific,3.2.4,MacIntel,60,5eaeeb1a716ed0081dfa8718,3.448000193,1,0,98,81,1,97
,,,,,,,,,,,,,,,,,,,,,,,,,,,,,,,,,,,,,,,,,,,,,,,,,,,86,pingüino,Spanish,Sounds/spa_pinguino.mp3,2020-06-08_18h15.34.774,TranslationElicitation_eng-prolific,3.2.4,MacIntel,60,5eaeeb1a716ed0081dfa8718,,1,0,98,81,1,97
,,,,,,,,,,,,,,,,,,,,,,,,,,,,,,,,,,,,,,,,,b,1.965999842,B,FALSE,,,,,,,11,boton,Spanish,Sounds/spa_boton.mp3,2020-06-08_18h15.34.774,TranslationElicitation_eng-prolific,3.2.4,MacIntel,60,5eaeeb1a716ed0081dfa8718,,1,0,98,9,1,97
,,,,,,,,,,,,,,,,,,,,,,,,,,,,,,,,,,,,,,,,,a,2.182999849,BA,FALSE,,,,,,,11,boton,Spanish,Sounds/spa_boton.mp3,2020-06-08_18h15.34.774,TranslationElicitation_eng-prolific,3.2.4,MacIntel,60,5eaeeb1a716ed0081dfa8718,,1,0,98,9,1,97
,,,,,,,,,,,,,,,,,,,,,,,,,,,,,,,,,,,,,,,,,t,2.73300004,BAT,FALSE,,,,,,,11,boton,Spanish,Sounds/spa_boton.mp3,2020-06-08_18h15.34.774,TranslationElicitation_eng-prolific,3.2.4,MacIntel,60,5eaeeb1a716ed0081dfa8718,,1,0,98,9,1,97
,,,,,,,,,,,,,,,,,,,,,,,,,,,,,,,,,,,,,,,,,o,2.865999937,BATO,FALSE,,,,,,,11,boton,Spanish,Sounds/spa_boton.mp3,2020-06-08_18h15.34.774,TranslationElicitation_eng-prolific,3.2.4,MacIntel,60,5eaeeb1a716ed0081dfa8718,,1,0,98,9,1,97
,,,,,,,,,,,,,,,,,,,,,,,,,,,,,,,,,,,,,,,,,n,3.016000032,BATON,FALSE,,,,,,,11,boton,Spanish,Sounds/spa_boton.mp3,2020-06-08_18h15.34.774,TranslationElicitation_eng-prolific,3.2.4,MacIntel,60,5eaeeb1a716ed0081dfa8718,,1,0,98,9,1,97
,,,,,,,,,,,,,,,,,,,,,,,,,,,,,,,,,,,,,,,,,return,3.366999865,BATON,FALSE,,,,,,,11,boton,Spanish,Sounds/spa_boton.mp3,2020-06-08_18h15.34.774,TranslationElicitation_eng-prolific,3.2.4,MacIntel,60,5eaeeb1a716ed0081dfa8718,3.366999865,1,0,98,9,1,97
,,,,,,,,,,,,,,,,,,,,,,,,,,,,,,,,,,,,,,,,,,,,,,,,,,,11,boton,Spanish,Sounds/spa_boton.mp3,2020-06-08_18h15.34.774,TranslationElicitation_eng-prolific,3.2.4,MacIntel,60,5eaeeb1a716ed0081dfa8718,,1,0,98,9,1,97
,,,,,,,,,,,,,,,,,,,,,,,,,,,,,,,,,,,,,,,,,g,1.582000017,G,FALSE,,,,,,,42,gato,Spanish,Sounds/spa_gato.mp3,2020-06-08_18h15.34.774,TranslationElicitation_eng-prolific,3.2.4,MacIntel,60,5eaeeb1a716ed0081dfa8718,,1,0,98,38,1,97
,,,,,,,,,,,,,,,,,,,,,,,,,,,,,,,,,,,,,,,,,a,3.634000063,GA,FALSE,,,,,,,42,gato,Spanish,Sounds/spa_gato.mp3,2020-06-08_18h15.34.774,TranslationElicitation_eng-prolific,3.2.4,MacIntel,60,5eaeeb1a716ed0081dfa8718,,1,0,98,38,1,97
,,,,,,,,,,,,,,,,,,,,,,,,,,,,,,,,,,,,,,,,,r,4.167999983,GAR,FALSE,,,,,,,42,gato,Spanish,Sounds/spa_gato.mp3,2020-06-08_18h15.34.774,TranslationElicitation_eng-prolific,3.2.4,MacIntel,60,5eaeeb1a716ed0081dfa8718,,1,0,98,38,1,97
,,,,,,,,,,,,,,,,,,,,,,,,,,,,,,,,,,,,,,,,,l,4.300000191,GARL,FALSE,,,,,,,42,gato,Spanish,Sounds/spa_gato.mp3,2020-06-08_18h15.34.774,TranslationElicitation_eng-prolific,3.2.4,MacIntel,60,5eaeeb1a716ed0081dfa8718,,1,0,98,38,1,97
,,,,,,,,,,,,,,,,,,,,,,,,,,,,,,,,,,,,,,,,,i,4.46600008,GARLI,FALSE,,,,,,,42,gato,Spanish,Sounds/spa_gato.mp3,2020-06-08_18h15.34.774,TranslationElicitation_eng-prolific,3.2.4,MacIntel,60,5eaeeb1a716ed0081dfa8718,,1,0,98,38,1,97
,,,,,,,,,,,,,,,,,,,,,,,,,,,,,,,,,,,,,,,,,c,4.598999977,GARLIC,FALSE,,,,,,,42,gato,Spanish,Sounds/spa_gato.mp3,2020-06-08_18h15.34.774,TranslationElicitation_eng-prolific,3.2.4,MacIntel,60,5eaeeb1a716ed0081dfa8718,,1,0,98,38,1,97
,,,,,,,,,,,,,,,,,,,,,,,,,,,,,,,,,,,,,,,,,return,4.799000025,GARLIC,FALSE,,,,,,,42,gato,Spanish,Sounds/spa_gato.mp3,2020-06-08_18h15.34.774,TranslationElicitation_eng-prolific,3.2.4,MacIntel,60,5eaeeb1a716ed0081dfa8718,4.799000025,1,0,98,38,1,97
,,,,,,,,,,,,,,,,,,,,,,,,,,,,,,,,,,,,,,,,,,,,,,,,,,,42,gato,Spanish,Sounds/spa_gato.mp3,2020-06-08_18h15.34.774,TranslationElicitation_eng-prolific,3.2.4,MacIntel,60,5eaeeb1a716ed0081dfa8718,,1,0,98,38,1,97
,,,,,,,,,,,,,,,,,,,,,,,,,,,,,,,,,,,,,,,,,a,1.731999874,A,FALSE,,,,,,,36,estrella,Spanish,Sounds/spa_estrella.mp3,2020-06-08_18h15.34.774,TranslationElicitation_eng-prolific,3.2.4,MacIntel,60,5eaeeb1a716ed0081dfa8718,,1,0,98,32,1,97
,,,,,,,,,,,,,,,,,,,,,,,,,,,,,,,,,,,,,,,,,u,1.882999897,AU,FALSE,,,,,,,36,estrella,Spanish,Sounds/spa_estrella.mp3,2020-06-08_18h15.34.774,TranslationElicitation_eng-prolific,3.2.4,MacIntel,60,5eaeeb1a716ed0081dfa8718,,1,0,98,32,1,97
,,,,,,,,,,,,,,,,,,,,,,,,,,,,,,,,,,,,,,,,,s,2.148999929,AUS,FALSE,,,,,,,36,estrella,Spanish,Sounds/spa_estrella.mp3,2020-06-08_18h15.34.774,TranslationElicitation_eng-prolific,3.2.4,MacIntel,60,5eaeeb1a716ed0081dfa8718,,1,0,98,32,1,97
,,,,,,,,,,,,,,,,,,,,,,,,,,,,,,,,,,,,,,,,,t,2.532000065,AUST,FALSE,,,,,,,36,estrella,Spanish,Sounds/spa_estrella.mp3,2020-06-08_18h15.34.774,TranslationElicitation_eng-prolific,3.2.4,MacIntel,60,5eaeeb1a716ed0081dfa8718,,1,0,98,32,1,97
,,,,,,,,,,,,,,,,,,,,,,,,,,,,,,,,,,,,,,,,,r,2.664999962,AUSTR,FALSE,,,,,,,36,estrella,Spanish,Sounds/spa_estrella.mp3,2020-06-08_18h15.34.774,TranslationElicitation_eng-prolific,3.2.4,MacIntel,60,5eaeeb1a716ed0081dfa8718,,1,0,98,32,1,97
,,,,,,,,,,,,,,,,,,,,,,,,,,,,,,,,,,,,,,,,,a,2.948999882,AUSTRA,FALSE,,,,,,,36,estrella,Spanish,Sounds/spa_estrella.mp3,2020-06-08_18h15.34.774,TranslationElicitation_eng-prolific,3.2.4,MacIntel,60,5eaeeb1a716ed0081dfa8718,,1,0,98,32,1,97
,,,,,,,,,,,,,,,,,,,,,,,,,,,,,,,,,,,,,,,,,l,4.46600008,AUSTRAL,FALSE,,,,,,,36,estrella,Spanish,Sounds/spa_estrella.mp3,2020-06-08_18h15.34.774,TranslationElicitation_eng-prolific,3.2.4,MacIntel,60,5eaeeb1a716ed0081dfa8718,,1,0,98,32,1,97
,,,,,,,,,,,,,,,,,,,,,,,,,,,,,,,,,,,,,,,,,i,4.618000031,AUSTRALI,FALSE,,,,,,,36,estrella,Spanish,Sounds/spa_estrella.mp3,2020-06-08_18h15.34.774,TranslationElicitation_eng-prolific,3.2.4,MacIntel,60,5eaeeb1a716ed0081dfa8718,,1,0,98,32,1,97
,,,,,,,,,,,,,,,,,,,,,,,,,,,,,,,,,,,,,,,,,a,4.750999928,AUSTRALIA,FALSE,,,,,,,36,estrella,Spanish,Sounds/spa_estrella.mp3,2020-06-08_18h15.34.774,TranslationElicitation_eng-prolific,3.2.4,MacIntel,60,5eaeeb1a716ed0081dfa8718,,1,0,98,32,1,97
,,,,,,,,,,,,,,,,,,,,,,,,,,,,,,,,,,,,,,,,,return,5.868000031,AUSTRALIA,FALSE,,,,,,,36,estrella,Spanish,Sounds/spa_estrella.mp3,2020-06-08_18h15.34.774,TranslationElicitation_eng-prolific,3.2.4,MacIntel,60,5eaeeb1a716ed0081dfa8718,5.868000031,1,0,98,32,1,97
,,,,,,,,,,,,,,,,,,,,,,,,,,,,,,,,,,,,,,,,,,,,,,,,,,,36,estrella,Spanish,Sounds/spa_estrella.mp3,2020-06-08_18h15.34.774,TranslationElicitation_eng-prolific,3.2.4,MacIntel,60,5eaeeb1a716ed0081dfa8718,,1,0,98,32,1,97
,,,,,,,,,,,,,,,,,,,,,,,,,,,,,,,,,,,,,,,,,b,3.047999859,B,FALSE,,,,,,,60,manzana,Spanish,Sounds/spa_manzana.mp3,2020-06-08_18h15.34.774,TranslationElicitation_eng-prolific,3.2.4,MacIntel,60,5eaeeb1a716ed0081dfa8718,,1,0,98,56,1,97
,,,,,,,,,,,,,,,,,,,,,,,,,,,,,,,,,,,,,,,,,a,3.316999912,BA,FALSE,,,,,,,60,manzana,Spanish,Sounds/spa_manzana.mp3,2020-06-08_18h15.34.774,TranslationElicitation_eng-prolific,3.2.4,MacIntel,60,5eaeeb1a716ed0081dfa8718,,1,0,98,56,1,97
,,,,,,,,,,,,,,,,,,,,,,,,,,,,,,,,,,,,,,,,,n,3.483999968,BAN,FALSE,,,,,,,60,manzana,Spanish,Sounds/spa_manzana.mp3,2020-06-08_18h15.34.774,TranslationElicitation_eng-prolific,3.2.4,MacIntel,60,5eaeeb1a716ed0081dfa8718,,1,0,98,56,1,97
,,,,,,,,,,,,,,,,,,,,,,,,,,,,,,,,,,,,,,,,,n,3.616999865,BANN,FALSE,,,,,,,60,manzana,Spanish,Sounds/spa_manzana.mp3,2020-06-08_18h15.34.774,TranslationElicitation_eng-prolific,3.2.4,MacIntel,60,5eaeeb1a716ed0081dfa8718,,1,0,98,56,1,97
,,,,,,,,,,,,,,,,,,,,,,,,,,,,,,,,,,,,,,,,,e,3.697999954,BANNE,FALSE,,,,,,,60,manzana,Spanish,Sounds/spa_manzana.mp3,2020-06-08_18h15.34.774,TranslationElicitation_eng-prolific,3.2.4,MacIntel,60,5eaeeb1a716ed0081dfa8718,,1,0,98,56,1,97
,,,,,,,,,,,,,,,,,,,,,,,,,,,,,,,,,,,,,,,,,r,3.799000025,BANNER,FALSE,,,,,,,60,manzana,Spanish,Sounds/spa_manzana.mp3,2020-06-08_18h15.34.774,TranslationElicitation_eng-prolific,3.2.4,MacIntel,60,5eaeeb1a716ed0081dfa8718,,1,0,98,56,1,97
,,,,,,,,,,,,,,,,,,,,,,,,,,,,,,,,,,,,,,,,,return,3.930999994,BANNER,FALSE,,,,,,,60,manzana,Spanish,Sounds/spa_manzana.mp3,2020-06-08_18h15.34.774,TranslationElicitation_eng-prolific,3.2.4,MacIntel,60,5eaeeb1a716ed0081dfa8718,3.930999994,1,0,98,56,1,97
,,,,,,,,,,,,,,,,,,,,,,,,,,,,,,,,,,,,,,,,,,,,,,,,,,,60,manzana,Spanish,Sounds/spa_manzana.mp3,2020-06-08_18h15.34.774,TranslationElicitation_eng-prolific,3.2.4,MacIntel,60,5eaeeb1a716ed0081dfa8718,,1,0,98,56,1,97
,,,,,,,,,,,,,,,,,,,,,,,,,,,,,,,,,,,,,,,,,t,1.667000055,T,FALSE,,,,,,,99,tomate,Spanish,Sounds/spa_tomate.mp3,2020-06-08_18h15.34.774,TranslationElicitation_eng-prolific,3.2.4,MacIntel,60,5eaeeb1a716ed0081dfa8718,,1,0,98,93,1,97
,,,,,,,,,,,,,,,,,,,,,,,,,,,,,,,,,,,,,,,,,o,1.784999847,TO,FALSE,,,,,,,99,tomate,Spanish,Sounds/spa_tomate.mp3,2020-06-08_18h15.34.774,TranslationElicitation_eng-prolific,3.2.4,MacIntel,60,5eaeeb1a716ed0081dfa8718,,1,0,98,93,1,97
,,,,,,,,,,,,,,,,,,,,,,,,,,,,,,,,,,,,,,,,,m,1.917999983,TOM,FALSE,,,,,,,99,tomate,Spanish,Sounds/spa_tomate.mp3,2020-06-08_18h15.34.774,TranslationElicitation_eng-prolific,3.2.4,MacIntel,60,5eaeeb1a716ed0081dfa8718,,1,0,98,93,1,97
,,,,,,,,,,,,,,,,,,,,,,,,,,,,,,,,,,,,,,,,,a,2.402999878,TOMA,FALSE,,,,,,,99,tomate,Spanish,Sounds/spa_tomate.mp3,2020-06-08_18h15.34.774,TranslationElicitation_eng-prolific,3.2.4,MacIntel,60,5eaeeb1a716ed0081dfa8718,,1,0,98,93,1,97
,,,,,,,,,,,,,,,,,,,,,,,,,,,,,,,,,,,,,,,,,t,2.569000006,TOMAT,FALSE,,,,,,,99,tomate,Spanish,Sounds/spa_tomate.mp3,2020-06-08_18h15.34.774,TranslationElicitation_eng-prolific,3.2.4,MacIntel,60,5eaeeb1a716ed0081dfa8718,,1,0,98,93,1,97
,,,,,,,,,,,,,,,,,,,,,,,,,,,,,,,,,,,,,,,,,o,2.80099988,TOMATO,FALSE,,,,,,,99,tomate,Spanish,Sounds/spa_tomate.mp3,2020-06-08_18h15.34.774,TranslationElicitation_eng-prolific,3.2.4,MacIntel,60,5eaeeb1a716ed0081dfa8718,,1,0,98,93,1,97
,,,,,,,,,,,,,,,,,,,,,,,,,,,,,,,,,,,,,,,,,e,3.669999838,TOMATOE,FALSE,,,,,,,99,tomate,Spanish,Sounds/spa_tomate.mp3,2020-06-08_18h15.34.774,TranslationElicitation_eng-prolific,3.2.4,MacIntel,60,5eaeeb1a716ed0081dfa8718,,1,0,98,93,1,97
,,,,,,,,,,,,,,,,,,,,,,,,,,,,,,,,,,,,,,,,,return,3.851999998,TOMATOE,FALSE,,,,,,,99,tomate,Spanish,Sounds/spa_tomate.mp3,2020-06-08_18h15.34.774,TranslationElicitation_eng-prolific,3.2.4,MacIntel,60,5eaeeb1a716ed0081dfa8718,3.851999998,1,0,98,93,1,97
,,,,,,,,,,,,,,,,,,,,,,,,,,,,,,,,,,,,,,,,,,,,,,,,,,,99,tomate,Spanish,Sounds/spa_tomate.mp3,2020-06-08_18h15.34.774,TranslationElicitation_eng-prolific,3.2.4,MacIntel,60,5eaeeb1a716ed0081dfa8718,,1,0,98,93,1,97
,,,,,,,,,,,,,,,,,,,,,,,,,,,,,,,,,,,,,,,,,b,1.633000135,B,FALSE,,,,,,,14,burro,Spanish,Sounds/spa_burro.mp3,2020-06-08_18h15.34.774,TranslationElicitation_eng-prolific,3.2.4,MacIntel,60,5eaeeb1a716ed0081dfa8718,,1,0,98,12,1,97
,,,,,,,,,,,,,,,,,,,,,,,,,,,,,,,,,,,,,,,,,e,1.984000206,BE,FALSE,,,,,,,14,burro,Spanish,Sounds/spa_burro.mp3,2020-06-08_18h15.34.774,TranslationElicitation_eng-prolific,3.2.4,MacIntel,60,5eaeeb1a716ed0081dfa8718,,1,0,98,12,1,97
,,,,,,,,,,,,,,,,,,,,,,,,,,,,,,,,,,,,,,,,,e,2.183000088,BEE,FALSE,,,,,,,14,burro,Spanish,Sounds/spa_burro.mp3,2020-06-08_18h15.34.774,TranslationElicitation_eng-prolific,3.2.4,MacIntel,60,5eaeeb1a716ed0081dfa8718,,1,0,98,12,1,97
,,,,,,,,,,,,,,,,,,,,,,,,,,,,,,,,,,,,,,,,,f,2.300000191,BEEF,FALSE,,,,,,,14,burro,Spanish,Sounds/spa_burro.mp3,2020-06-08_18h15.34.774,TranslationElicitation_eng-prolific,3.2.4,MacIntel,60,5eaeeb1a716ed0081dfa8718,,1,0,98,12,1,97
,,,,,,,,,,,,,,,,,,,,,,,,,,,,,,,,,,,,,,,,,return,2.486000061,BEEF,FALSE,,,,,,,14,burro,Spanish,Sounds/spa_burro.mp3,2020-06-08_18h15.34.774,TranslationElicitation_eng-prolific,3.2.4,MacIntel,60,5eaeeb1a716ed0081dfa8718,2.486000061,1,0,98,12,1,97
,,,,,,,,,,,,,,,,,,,,,,,,,,,,,,,,,,,,,,,,,,,,,,,,,,,14,burro,Spanish,Sounds/spa_burro.mp3,2020-06-08_18h15.34.774,TranslationElicitation_eng-prolific,3.2.4,MacIntel,60,5eaeeb1a716ed0081dfa8718,,1,0,98,12,1,97
,,,,,,,,,,,,,,,,,,,,,,,,,,,,,,,,,,,,,,,,,b,6.718999863,B,FALSE,,,,,,,4,biberon,Spanish,Sounds/spa_biberon.mp3,2020-06-08_18h15.34.774,TranslationElicitation_eng-prolific,3.2.4,MacIntel,60,5eaeeb1a716ed0081dfa8718,,1,0,98,2,1,97
,,,,,,,,,,,,,,,,,,,,,,,,,,,,,,,,,,,,,,,,,i,6.985999823,BI,FALSE,,,,,,,4,biberon,Spanish,Sounds/spa_biberon.mp3,2020-06-08_18h15.34.774,TranslationElicitation_eng-prolific,3.2.4,MacIntel,60,5eaeeb1a716ed0081dfa8718,,1,0,98,2,1,97
,,,,,,,,,,,,,,,,,,,,,,,,,,,,,,,,,,,,,,,,,r,7.135999918,BIR,FALSE,,,,,,,4,biberon,Spanish,Sounds/spa_biberon.mp3,2020-06-08_18h15.34.774,TranslationElicitation_eng-prolific,3.2.4,MacIntel,60,5eaeeb1a716ed0081dfa8718,,1,0,98,2,1,97
,,,,,,,,,,,,,,,,,,,,,,,,,,,,,,,,,,,,,,,,,o,7.235999823,BIRO,FALSE,,,,,,,4,biberon,Spanish,Sounds/spa_biberon.mp3,2020-06-08_18h15.34.774,TranslationElicitation_eng-prolific,3.2.4,MacIntel,60,5eaeeb1a716ed0081dfa8718,,1,0,98,2,1,97
,,,,,,,,,,,,,,,,,,,,,,,,,,,,,,,,,,,,,,,,,return,7.735999823,BIRO,FALSE,,,,,,,4,biberon,Spanish,Sounds/spa_biberon.mp3,2020-06-08_18h15.34.774,TranslationElicitation_eng-prolific,3.2.4,MacIntel,60,5eaeeb1a716ed0081dfa8718,7.735999823,1,0,98,2,1,97
,,,,,,,,,,,,,,,,,,,,,,,,,,,,,,,,,,,,,,,,,,,,,,,,,,,4,biberon,Spanish,Sounds/spa_biberon.mp3,2020-06-08_18h15.34.774,TranslationElicitation_eng-prolific,3.2.4,MacIntel,60,5eaeeb1a716ed0081dfa8718,,1,0,98,2,1,97
,,,,,,,,,,,,,,,,,,,,,,,,,,,,,,,,,,,,,,,,,g,1.266000032,G,FALSE,,,,,,,47,guitarra,Spanish,Sounds/spa_guitarra.mp3,2020-06-08_18h15.34.774,TranslationElicitation_eng-prolific,3.2.4,MacIntel,60,5eaeeb1a716ed0081dfa8718,,1,0,98,43,1,97
,,,,,,,,,,,,,,,,,,,,,,,,,,,,,,,,,,,,,,,,,u,1.434000015,GU,FALSE,,,,,,,47,guitarra,Spanish,Sounds/spa_guitarra.mp3,2020-06-08_18h15.34.774,TranslationElicitation_eng-prolific,3.2.4,MacIntel,60,5eaeeb1a716ed0081dfa8718,,1,0,98,43,1,97
,,,,,,,,,,,,,,,,,,,,,,,,,,,,,,,,,,,,,,,,,i,1.532000065,GUI,FALSE,,,,,,,47,guitarra,Spanish,Sounds/spa_guitarra.mp3,2020-06-08_18h15.34.774,TranslationElicitation_eng-prolific,3.2.4,MacIntel,60,5eaeeb1a716ed0081dfa8718,,1,0,98,43,1,97
,,,,,,,,,,,,,,,,,,,,,,,,,,,,,,,,,,,,,,,,,t,1.632999897,GUIT,FALSE,,,,,,,47,guitarra,Spanish,Sounds/spa_guitarra.mp3,2020-06-08_18h15.34.774,TranslationElicitation_eng-prolific,3.2.4,MacIntel,60,5eaeeb1a716ed0081dfa8718,,1,0,98,43,1,97
,,,,,,,,,,,,,,,,,,,,,,,,,,,,,,,,,,,,,,,,,a,1.999000072,GUITA,FALSE,,,,,,,47,guitarra,Spanish,Sounds/spa_guitarra.mp3,2020-06-08_18h15.34.774,TranslationElicitation_eng-prolific,3.2.4,MacIntel,60,5eaeeb1a716ed0081dfa8718,,1,0,98,43,1,97
,,,,,,,,,,,,,,,,,,,,,,,,,,,,,,,,,,,,,,,,,r,2.115999937,GUITAR,FALSE,,,,,,,47,guitarra,Spanish,Sounds/spa_guitarra.mp3,2020-06-08_18h15.34.774,TranslationElicitation_eng-prolific,3.2.4,MacIntel,60,5eaeeb1a716ed0081dfa8718,,1,0,98,43,1,97
,,,,,,,,,,,,,,,,,,,,,,,,,,,,,,,,,,,,,,,,,return,2.53399992,GUITAR,FALSE,,,,,,,47,guitarra,Spanish,Sounds/spa_guitarra.mp3,2020-06-08_18h15.34.774,TranslationElicitation_eng-prolific,3.2.4,MacIntel,60,5eaeeb1a716ed0081dfa8718,2.53399992,1,0,98,43,1,97
,,,,,,,,,,,,,,,,,,,,,,,,,,,,,,,,,,,,,,,,,,,,,,,,,,,47,guitarra,Spanish,Sounds/spa_guitarra.mp3,2020-06-08_18h15.34.774,TranslationElicitation_eng-prolific,3.2.4,MacIntel,60,5eaeeb1a716ed0081dfa8718,,1,0,98,43,1,97
,,,,,,,,,,,,,,,,,,,,,,,,,,,,,,,,,,,,,,,,,l,2.73300004,L,FALSE,,,,,,,52,lapiz,Spanish,Sounds/spa_lapiz.mp3,2020-06-08_18h15.34.774,TranslationElicitation_eng-prolific,3.2.4,MacIntel,60,5eaeeb1a716ed0081dfa8718,,1,0,98,48,1,97
,,,,,,,,,,,,,,,,,,,,,,,,,,,,,,,,,,,,,,,,,a,2.847999811,LA,FALSE,,,,,,,52,lapiz,Spanish,Sounds/spa_lapiz.mp3,2020-06-08_18h15.34.774,TranslationElicitation_eng-prolific,3.2.4,MacIntel,60,5eaeeb1a716ed0081dfa8718,,1,0,98,48,1,97
,,,,,,,,,,,,,,,,,,,,,,,,,,,,,,,,,,,,,,,,,p,5.26699996,LAP,FALSE,,,,,,,52,lapiz,Spanish,Sounds/spa_lapiz.mp3,2020-06-08_18h15.34.774,TranslationElicitation_eng-prolific,3.2.4,MacIntel,60,5eaeeb1a716ed0081dfa8718,,1,0,98,48,1,97
,,,,,,,,,,,,,,,,,,,,,,,,,,,,,,,,,,,,,,,,,return,5.61500001,LAP,FALSE,,,,,,,52,lapiz,Spanish,Sounds/spa_lapiz.mp3,2020-06-08_18h15.34.774,TranslationElicitation_eng-prolific,3.2.4,MacIntel,60,5eaeeb1a716ed0081dfa8718,5.61500001,1,0,98,48,1,97
,,,,,,,,,,,,,,,,,,,,,,,,,,,,,,,,,,,,,,,,,,,,,,,,,,,52,lapiz,Spanish,Sounds/spa_lapiz.mp3,2020-06-08_18h15.34.774,TranslationElicitation_eng-prolific,3.2.4,MacIntel,60,5eaeeb1a716ed0081dfa8718,,1,0,98,48,1,97
,,,,,,,,,,,,,,,,,,,,,,,,,,,,,,,,,,,,,,,,,c,1.565999985,C,FALSE,,,,,,,19,camiseta,Spanish,Sounds/spa_camiseta.mp3,2020-06-08_18h15.34.774,TranslationElicitation_eng-prolific,3.2.4,MacIntel,60,5eaeeb1a716ed0081dfa8718,,1,0,98,17,1,97
,,,,,,,,,,,,,,,,,,,,,,,,,,,,,,,,,,,,,,,,,a,1.700999975,CA,FALSE,,,,,,,19,camiseta,Spanish,Sounds/spa_camiseta.mp3,2020-06-08_18h15.34.774,TranslationElicitation_eng-prolific,3.2.4,MacIntel,60,5eaeeb1a716ed0081dfa8718,,1,0,98,17,1,97
,,,,,,,,,,,,,,,,,,,,,,,,,,,,,,,,,,,,,,,,,m,5.383999825,CAM,FALSE,,,,,,,19,camiseta,Spanish,Sounds/spa_camiseta.mp3,2020-06-08_18h15.34.774,TranslationElicitation_eng-prolific,3.2.4,MacIntel,60,5eaeeb1a716ed0081dfa8718,,1,0,98,17,1,97
,,,,,,,,,,,,,,,,,,,,,,,,,,,,,,,,,,,,,,,,,o,6.536000013,CAMO,FALSE,,,,,,,19,camiseta,Spanish,Sounds/spa_camiseta.mp3,2020-06-08_18h15.34.774,TranslationElicitation_eng-prolific,3.2.4,MacIntel,60,5eaeeb1a716ed0081dfa8718,,1,0,98,17,1,97
,,,,,,,,,,,,,,,,,,,,,,,,,,,,,,,,,,,,,,,,,m,6.708999872,CAMOM,FALSE,,,,,,,19,camiseta,Spanish,Sounds/spa_camiseta.mp3,2020-06-08_18h15.34.774,TranslationElicitation_eng-prolific,3.2.4,MacIntel,60,5eaeeb1a716ed0081dfa8718,,1,0,98,17,1,97
,,,,,,,,,,,,,,,,,,,,,,,,,,,,,,,,,,,,,,,,,i,6.816999912,CAMOMI,FALSE,,,,,,,19,camiseta,Spanish,Sounds/spa_camiseta.mp3,2020-06-08_18h15.34.774,TranslationElicitation_eng-prolific,3.2.4,MacIntel,60,5eaeeb1a716ed0081dfa8718,,1,0,98,17,1,97
,,,,,,,,,,,,,,,,,,,,,,,,,,,,,,,,,,,,,,,,,l,7.233999968,CAMOMIL,FALSE,,,,,,,19,camiseta,Spanish,Sounds/spa_camiseta.mp3,2020-06-08_18h15.34.774,TranslationElicitation_eng-prolific,3.2.4,MacIntel,60,5eaeeb1a716ed0081dfa8718,,1,0,98,17,1,97
,,,,,,,,,,,,,,,,,,,,,,,,,,,,,,,,,,,,,,,,,e,7.3349998,CAMOMILE,FALSE,,,,,,,19,camiseta,Spanish,Sounds/spa_camiseta.mp3,2020-06-08_18h15.34.774,TranslationElicitation_eng-prolific,3.2.4,MacIntel,60,5eaeeb1a716ed0081dfa8718,,1,0,98,17,1,97
,,,,,,,,,,,,,,,,,,,,,,,,,,,,,,,,,,,,,,,,,backspace,7.801999807,CAMOMIL,TRUE,,,,,,,19,camiseta,Spanish,Sounds/spa_camiseta.mp3,2020-06-08_18h15.34.774,TranslationElicitation_eng-prolific,3.2.4,MacIntel,60,5eaeeb1a716ed0081dfa8718,,1,0,98,17,1,97
,,,,,,,,,,,,,,,,,,,,,,,,,,,,,,,,,,,,,,,,,l,8.133999825,CAMOMILL,TRUE,,,,,,,19,camiseta,Spanish,Sounds/spa_camiseta.mp3,2020-06-08_18h15.34.774,TranslationElicitation_eng-prolific,3.2.4,MacIntel,60,5eaeeb1a716ed0081dfa8718,,1,0,98,17,1,97
,,,,,,,,,,,,,,,,,,,,,,,,,,,,,,,,,,,,,,,,,e,8.267999887,CAMOMILLE,TRUE,,,,,,,19,camiseta,Spanish,Sounds/spa_camiseta.mp3,2020-06-08_18h15.34.774,TranslationElicitation_eng-prolific,3.2.4,MacIntel,60,5eaeeb1a716ed0081dfa8718,,1,0,98,17,1,97
,,,,,,,,,,,,,,,,,,,,,,,,,,,,,,,,,,,,,,,,,return,8.416999817,CAMOMILLE,TRUE,,,,,,,19,camiseta,Spanish,Sounds/spa_camiseta.mp3,2020-06-08_18h15.34.774,TranslationElicitation_eng-prolific,3.2.4,MacIntel,60,5eaeeb1a716ed0081dfa8718,8.416999817,1,0,98,17,1,97
,,,,,,,,,,,,,,,,,,,,,,,,,,,,,,,,,,,,,,,,,,,,,,,,,,,19,camiseta,Spanish,Sounds/spa_camiseta.mp3,2020-06-08_18h15.34.774,TranslationElicitation_eng-prolific,3.2.4,MacIntel,60,5eaeeb1a716ed0081dfa8718,,1,0,98,17,1,97
,,,,,,,,,,,,,,,,,,,,,,,,,,,,,,,,,,,,,,,,,t,1.947000027,T,FALSE,,,,,,,97,tijeras,Spanish,Sounds/spa_tijeras.mp3,2020-06-08_18h15.34.774,TranslationElicitation_eng-prolific,3.2.4,MacIntel,60,5eaeeb1a716ed0081dfa8718,,1,0,98,91,1,97
,,,,,,,,,,,,,,,,,,,,,,,,,,,,,,,,,,,,,,,,,e,2.281000137,TE,FALSE,,,,,,,97,tijeras,Spanish,Sounds/spa_tijeras.mp3,2020-06-08_18h15.34.774,TranslationElicitation_eng-prolific,3.2.4,MacIntel,60,5eaeeb1a716ed0081dfa8718,,1,0,98,91,1,97
,,,,,,,,,,,,,,,,,,,,,,,,,,,,,,,,,,,,,,,,,a,2.515000105,TEA,FALSE,,,,,,,97,tijeras,Spanish,Sounds/spa_tijeras.mp3,2020-06-08_18h15.34.774,TranslationElicitation_eng-prolific,3.2.4,MacIntel,60,5eaeeb1a716ed0081dfa8718,,1,0,98,91,1,97
,,,,,,,,,,,,,,,,,,,,,,,,,,,,,,,,,,,,,,,,,r,2.748000145,TEAR,FALSE,,,,,,,97,tijeras,Spanish,Sounds/spa_tijeras.mp3,2020-06-08_18h15.34.774,TranslationElicitation_eng-prolific,3.2.4,MacIntel,60,5eaeeb1a716ed0081dfa8718,,1,0,98,91,1,97
,,,,,,,,,,,,,,,,,,,,,,,,,,,,,,,,,,,,,,,,,s,2.998000145,TEARS,FALSE,,,,,,,97,tijeras,Spanish,Sounds/spa_tijeras.mp3,2020-06-08_18h15.34.774,TranslationElicitation_eng-prolific,3.2.4,MacIntel,60,5eaeeb1a716ed0081dfa8718,,1,0,98,91,1,97
,,,,,,,,,,,,,,,,,,,,,,,,,,,,,,,,,,,,,,,,,return,3.215000153,TEARS,FALSE,,,,,,,97,tijeras,Spanish,Sounds/spa_tijeras.mp3,2020-06-08_18h15.34.774,TranslationElicitation_eng-prolific,3.2.4,MacIntel,60,5eaeeb1a716ed0081dfa8718,3.215000153,1,0,98,91,1,97
,,,,,,,,,,,,,,,,,,,,,,,,,,,,,,,,,,,,,,,,,,,,,,,,,,,97,tijeras,Spanish,Sounds/spa_tijeras.mp3,2020-06-08_18h15.34.774,TranslationElicitation_eng-prolific,3.2.4,MacIntel,60,5eaeeb1a716ed0081dfa8718,,1,0,98,91,1,97
,,,,,,,,,,,,,,,,,,,,,,,,,,,,,,,,,,,,,,,,,t,1.315000057,T,FALSE,,,,,,,79,patata,Spanish,Sounds/spa_patata.mp3,2020-06-08_18h15.34.774,TranslationElicitation_eng-prolific,3.2.4,MacIntel,60,5eaeeb1a716ed0081dfa8718,,1,0,98,74,1,97
,,,,,,,,,,,,,,,,,,,,,,,,,,,,,,,,,,,,,,,,,backspace,1.948999882,,TRUE,,,,,,,79,patata,Spanish,Sounds/spa_patata.mp3,2020-06-08_18h15.34.774,TranslationElicitation_eng-prolific,3.2.4,MacIntel,60,5eaeeb1a716ed0081dfa8718,,1,0,98,74,1,97
,,,,,,,,,,,,,,,,,,,,,,,,,,,,,,,,,,,,,,,,,backspace,2.148999929,,TRUE,,,,,,,79,patata,Spanish,Sounds/spa_patata.mp3,2020-06-08_18h15.34.774,TranslationElicitation_eng-prolific,3.2.4,MacIntel,60,5eaeeb1a716ed0081dfa8718,,1,0,98,74,1,97
,,,,,,,,,,,,,,,,,,,,,,,,,,,,,,,,,,,,,,,,,p,2.417000055,P,TRUE,,,,,,,79,patata,Spanish,Sounds/spa_patata.mp3,2020-06-08_18h15.34.774,TranslationElicitation_eng-prolific,3.2.4,MacIntel,60,5eaeeb1a716ed0081dfa8718,,1,0,98,74,1,97
,,,,,,,,,,,,,,,,,,,,,,,,,,,,,,,,,,,,,,,,,o,2.535000086,PO,TRUE,,,,,,,79,patata,Spanish,Sounds/spa_patata.mp3,2020-06-08_18h15.34.774,TranslationElicitation_eng-prolific,3.2.4,MacIntel,60,5eaeeb1a716ed0081dfa8718,,1,0,98,74,1,97
,,,,,,,,,,,,,,,,,,,,,,,,,,,,,,,,,,,,,,,,,t,2.698999882,POT,TRUE,,,,,,,79,patata,Spanish,Sounds/spa_patata.mp3,2020-06-08_18h15.34.774,TranslationElicitation_eng-prolific,3.2.4,MacIntel,60,5eaeeb1a716ed0081dfa8718,,1,0,98,74,1,97
,,,,,,,,,,,,,,,,,,,,,,,,,,,,,,,,,,,,,,,,,a,3.049000025,POTA,TRUE,,,,,,,79,patata,Spanish,Sounds/spa_patata.mp3,2020-06-08_18h15.34.774,TranslationElicitation_eng-prolific,3.2.4,MacIntel,60,5eaeeb1a716ed0081dfa8718,,1,0,98,74,1,97
,,,,,,,,,,,,,,,,,,,,,,,,,,,,,,,,,,,,,,,,,t,3.266000032,POTAT,TRUE,,,,,,,79,patata,Spanish,Sounds/spa_patata.mp3,2020-06-08_18h15.34.774,TranslationElicitation_eng-prolific,3.2.4,MacIntel,60,5eaeeb1a716ed0081dfa8718,,1,0,98,74,1,97
,,,,,,,,,,,,,,,,,,,,,,,,,,,,,,,,,,,,,,,,,o,3.582000017,POTATO,TRUE,,,,,,,79,patata,Spanish,Sounds/spa_patata.mp3,2020-06-08_18h15.34.774,TranslationElicitation_eng-prolific,3.2.4,MacIntel,60,5eaeeb1a716ed0081dfa8718,,1,0,98,74,1,97
,,,,,,,,,,,,,,,,,,,,,,,,,,,,,,,,,,,,,,,,,e,3.898999929,POTATOE,TRUE,,,,,,,79,patata,Spanish,Sounds/spa_patata.mp3,2020-06-08_18h15.34.774,TranslationElicitation_eng-prolific,3.2.4,MacIntel,60,5eaeeb1a716ed0081dfa8718,,1,0,98,74,1,97
,,,,,,,,,,,,,,,,,,,,,,,,,,,,,,,,,,,,,,,,,return,4.016000032,POTATOE,TRUE,,,,,,,79,patata,Spanish,Sounds/spa_patata.mp3,2020-06-08_18h15.34.774,TranslationElicitation_eng-prolific,3.2.4,MacIntel,60,5eaeeb1a716ed0081dfa8718,4.016000032,1,0,98,74,1,97
,,,,,,,,,,,,,,,,,,,,,,,,,,,,,,,,,,,,,,,,,,,,,,,,,,,79,patata,Spanish,Sounds/spa_patata.mp3,2020-06-08_18h15.34.774,TranslationElicitation_eng-prolific,3.2.4,MacIntel,60,5eaeeb1a716ed0081dfa8718,,1,0,98,74,1,97
,,,,,,,,,,,,,,,,,,,,,,,,,,,,,,,,,,,,,,,,,m,5.167000055,M,FALSE,,,,,,,64,moneda,Spanish,Sounds/spa_moneda.mp3,2020-06-08_18h15.34.774,TranslationElicitation_eng-prolific,3.2.4,MacIntel,60,5eaeeb1a716ed0081dfa8718,,1,0,98,60,1,97
,,,,,,,,,,,,,,,,,,,,,,,,,,,,,,,,,,,,,,,,,o,8.986000061,MO,FALSE,,,,,,,64,moneda,Spanish,Sounds/spa_moneda.mp3,2020-06-08_18h15.34.774,TranslationElicitation_eng-prolific,3.2.4,MacIntel,60,5eaeeb1a716ed0081dfa8718,,1,0,98,60,1,97
,,,,,,,,,,,,,,,,,,,,,,,,,,,,,,,,,,,,,,,,,n,9.15199995,MON,FALSE,,,,,,,64,moneda,Spanish,Sounds/spa_moneda.mp3,2020-06-08_18h15.34.774,TranslationElicitation_eng-prolific,3.2.4,MacIntel,60,5eaeeb1a716ed0081dfa8718,,1,0,98,60,1,97
,,,,,,,,,,,,,,,,,,,,,,,,,,,,,,,,,,,,,,,,,t,9.55099988,MONT,FALSE,,,,,,,64,moneda,Spanish,Sounds/spa_moneda.mp3,2020-06-08_18h15.34.774,TranslationElicitation_eng-prolific,3.2.4,MacIntel,60,5eaeeb1a716ed0081dfa8718,,1,0,98,60,1,97
,,,,,,,,,,,,,,,,,,,,,,,,,,,,,,,,,,,,,,,,,a,9.968999863,MONTA,FALSE,,,,,,,64,moneda,Spanish,Sounds/spa_moneda.mp3,2020-06-08_18h15.34.774,TranslationElicitation_eng-prolific,3.2.4,MacIntel,60,5eaeeb1a716ed0081dfa8718,,1,0,98,60,1,97
,,,,,,,,,,,,,,,,,,,,,,,,,,,,,,,,,,,,,,,,,n,10.08399987,MONTAN,FALSE,,,,,,,64,moneda,Spanish,Sounds/spa_moneda.mp3,2020-06-08_18h15.34.774,TranslationElicitation_eng-prolific,3.2.4,MacIntel,60,5eaeeb1a716ed0081dfa8718,,1,0,98,60,1,97
,,,,,,,,,,,,,,,,,,,,,,,,,,,,,,,,,,,,,,,,,a,10.18400002,MONTANA,FALSE,,,,,,,64,moneda,Spanish,Sounds/spa_moneda.mp3,2020-06-08_18h15.34.774,TranslationElicitation_eng-prolific,3.2.4,MacIntel,60,5eaeeb1a716ed0081dfa8718,,1,0,98,60,1,97
,,,,,,,,,,,,,,,,,,,,,,,,,,,,,,,,,,,,,,,,,return,10.51799989,MONTANA,FALSE,,,,,,,64,moneda,Spanish,Sounds/spa_moneda.mp3,2020-06-08_18h15.34.774,TranslationElicitation_eng-prolific,3.2.4,MacIntel,60,5eaeeb1a716ed0081dfa8718,10.51799989,1,0,98,60,1,97
,,,,,,,,,,,,,,,,,,,,,,,,,,,,,,,,,,,,,,,,,,,,,,,,,,,64,moneda,Spanish,Sounds/spa_moneda.mp3,2020-06-08_18h15.34.774,TranslationElicitation_eng-prolific,3.2.4,MacIntel,60,5eaeeb1a716ed0081dfa8718,,1,0,98,60,1,97
,,,,,,,,,,,,,,,,,,,,,,,,,,,,,,,,,,,,,,,,,l,1.634000063,L,FALSE,,,,,,,54,lengua,Spanish,Sounds/spa_lengua.mp3,2020-06-08_18h15.34.774,TranslationElicitation_eng-prolific,3.2.4,MacIntel,60,5eaeeb1a716ed0081dfa8718,,1,0,98,50,1,97
,,,,,,,,,,,,,,,,,,,,,,,,,,,,,,,,,,,,,,,,,a,3.450000048,LA,FALSE,,,,,,,54,lengua,Spanish,Sounds/spa_lengua.mp3,2020-06-08_18h15.34.774,TranslationElicitation_eng-prolific,3.2.4,MacIntel,60,5eaeeb1a716ed0081dfa8718,,1,0,98,50,1,97
,,,,,,,,,,,,,,,,,,,,,,,,,,,,,,,,,,,,,,,,,n,3.617000103,LAN,FALSE,,,,,,,54,lengua,Spanish,Sounds/spa_lengua.mp3,2020-06-08_18h15.34.774,TranslationElicitation_eng-prolific,3.2.4,MacIntel,60,5eaeeb1a716ed0081dfa8718,,1,0,98,50,1,97
,,,,,,,,,,,,,,,,,,,,,,,,,,,,,,,,,,,,,,,,,g,3.835000038,LANG,FALSE,,,,,,,54,lengua,Spanish,Sounds/spa_lengua.mp3,2020-06-08_18h15.34.774,TranslationElicitation_eng-prolific,3.2.4,MacIntel,60,5eaeeb1a716ed0081dfa8718,,1,0,98,50,1,97
,,,,,,,,,,,,,,,,,,,,,,,,,,,,,,,,,,,,,,,,,u,3.950999975,LANGU,FALSE,,,,,,,54,lengua,Spanish,Sounds/spa_lengua.mp3,2020-06-08_18h15.34.774,TranslationElicitation_eng-prolific,3.2.4,MacIntel,60,5eaeeb1a716ed0081dfa8718,,1,0,98,50,1,97
,,,,,,,,,,,,,,,,,,,,,,,,,,,,,,,,,,,,,,,,,a,4.083000183,LANGUA,FALSE,,,,,,,54,lengua,Spanish,Sounds/spa_lengua.mp3,2020-06-08_18h15.34.774,TranslationElicitation_eng-prolific,3.2.4,MacIntel,60,5eaeeb1a716ed0081dfa8718,,1,0,98,50,1,97
,,,,,,,,,,,,,,,,,,,,,,,,,,,,,,,,,,,,,,,,,g,4.167999983,LANGUAG,FALSE,,,,,,,54,lengua,Spanish,Sounds/spa_lengua.mp3,2020-06-08_18h15.34.774,TranslationElicitation_eng-prolific,3.2.4,MacIntel,60,5eaeeb1a716ed0081dfa8718,,1,0,98,50,1,97
,,,,,,,,,,,,,,,,,,,,,,,,,,,,,,,,,,,,,,,,,e,4.42200017,LANGUAGE,FALSE,,,,,,,54,lengua,Spanish,Sounds/spa_lengua.mp3,2020-06-08_18h15.34.774,TranslationElicitation_eng-prolific,3.2.4,MacIntel,60,5eaeeb1a716ed0081dfa8718,,1,0,98,50,1,97
,,,,,,,,,,,,,,,,,,,,,,,,,,,,,,,,,,,,,,,,,return,4.584000111,LANGUAGE,FALSE,,,,,,,54,lengua,Spanish,Sounds/spa_lengua.mp3,2020-06-08_18h15.34.774,TranslationElicitation_eng-prolific,3.2.4,MacIntel,60,5eaeeb1a716ed0081dfa8718,4.584000111,1,0,98,50,1,97
,,,,,,,,,,,,,,,,,,,,,,,,,,,,,,,,,,,,,,,,,,,,,,,,,,,54,lengua,Spanish,Sounds/spa_lengua.mp3,2020-06-08_18h15.34.774,TranslationElicitation_eng-prolific,3.2.4,MacIntel,60,5eaeeb1a716ed0081dfa8718,,1,0,98,50,1,97
,,,,,,,,,,,,,,,,,,,,,,,,,,,,,,,,,,,,,,,,,n,4.450000048,N,FALSE,,,,,,,69,nariz,Spanish,Sounds/spa_nariz.mp3,2020-06-08_18h15.34.774,TranslationElicitation_eng-prolific,3.2.4,MacIntel,60,5eaeeb1a716ed0081dfa8718,,1,0,98,65,1,97
,,,,,,,,,,,,,,,,,,,,,,,,,,,,,,,,,,,,,,,,,e,6.434000015,NE,FALSE,,,,,,,69,nariz,Spanish,Sounds/spa_nariz.mp3,2020-06-08_18h15.34.774,TranslationElicitation_eng-prolific,3.2.4,MacIntel,60,5eaeeb1a716ed0081dfa8718,,1,0,98,65,1,97
,,,,,,,,,,,,,,,,,,,,,,,,,,,,,,,,,,,,,,,,,backspace,6.967000008,N,TRUE,,,,,,,69,nariz,Spanish,Sounds/spa_nariz.mp3,2020-06-08_18h15.34.774,TranslationElicitation_eng-prolific,3.2.4,MacIntel,60,5eaeeb1a716ed0081dfa8718,,1,0,98,65,1,97
,,,,,,,,,,,,,,,,,,,,,,,,,,,,,,,,,,,,,,,,,a,7.149999857,NA,TRUE,,,,,,,69,nariz,Spanish,Sounds/spa_nariz.mp3,2020-06-08_18h15.34.774,TranslationElicitation_eng-prolific,3.2.4,MacIntel,60,5eaeeb1a716ed0081dfa8718,,1,0,98,65,1,97
,,,,,,,,,,,,,,,,,,,,,,,,,,,,,,,,,,,,,,,,,o,7.366999865,NAO,TRUE,,,,,,,69,nariz,Spanish,Sounds/spa_nariz.mp3,2020-06-08_18h15.34.774,TranslationElicitation_eng-prolific,3.2.4,MacIntel,60,5eaeeb1a716ed0081dfa8718,,1,0,98,65,1,97
,,,,,,,,,,,,,,,,,,,,,,,,,,,,,,,,,,,,,,,,,i,7.467000008,NAOI,TRUE,,,,,,,69,nariz,Spanish,Sounds/spa_nariz.mp3,2020-06-08_18h15.34.774,TranslationElicitation_eng-prolific,3.2.4,MacIntel,60,5eaeeb1a716ed0081dfa8718,,1,0,98,65,1,97
,,,,,,,,,,,,,,,,,,,,,,,,,,,,,,,,,,,,,,,,,backspace,8.333999872,NAO,TRUE,,,,,,,69,nariz,Spanish,Sounds/spa_nariz.mp3,2020-06-08_18h15.34.774,TranslationElicitation_eng-prolific,3.2.4,MacIntel,60,5eaeeb1a716ed0081dfa8718,,1,0,98,65,1,97
,,,,,,,,,,,,,,,,,,,,,,,,,,,,,,,,,,,,,,,,,r,8.750999928,NAOR,TRUE,,,,,,,69,nariz,Spanish,Sounds/spa_nariz.mp3,2020-06-08_18h15.34.774,TranslationElicitation_eng-prolific,3.2.4,MacIntel,60,5eaeeb1a716ed0081dfa8718,,1,0,98,65,1,97
,,,,,,,,,,,,,,,,,,,,,,,,,,,,,,,,,,,,,,,,,o,9.083999872,NAORO,TRUE,,,,,,,69,nariz,Spanish,Sounds/spa_nariz.mp3,2020-06-08_18h15.34.774,TranslationElicitation_eng-prolific,3.2.4,MacIntel,60,5eaeeb1a716ed0081dfa8718,,1,0,98,65,1,97
,,,,,,,,,,,,,,,,,,,,,,,,,,,,,,,,,,,,,,,,,backspace,10.15100002,NAOR,TRUE,,,,,,,69,nariz,Spanish,Sounds/spa_nariz.mp3,2020-06-08_18h15.34.774,TranslationElicitation_eng-prolific,3.2.4,MacIntel,60,5eaeeb1a716ed0081dfa8718,,1,0,98,65,1,97
,,,,,,,,,,,,,,,,,,,,,,,,,,,,,,,,,,,,,,,,,backspace,10.31800008,NAO,TRUE,,,,,,,69,nariz,Spanish,Sounds/spa_nariz.mp3,2020-06-08_18h15.34.774,TranslationElicitation_eng-prolific,3.2.4,MacIntel,60,5eaeeb1a716ed0081dfa8718,,1,0,98,65,1,97
,,,,,,,,,,,,,,,,,,,,,,,,,,,,,,,,,,,,,,,,,backspace,10.48399997,NA,TRUE,,,,,,,69,nariz,Spanish,Sounds/spa_nariz.mp3,2020-06-08_18h15.34.774,TranslationElicitation_eng-prolific,3.2.4,MacIntel,60,5eaeeb1a716ed0081dfa8718,,1,0,98,65,1,97
,,,,,,,,,,,,,,,,,,,,,,,,,,,,,,,,,,,,,,,,,i,11.15100002,NAI,TRUE,,,,,,,69,nariz,Spanish,Sounds/spa_nariz.mp3,2020-06-08_18h15.34.774,TranslationElicitation_eng-prolific,3.2.4,MacIntel,60,5eaeeb1a716ed0081dfa8718,,1,0,98,65,1,97
,,,,,,,,,,,,,,,,,,,,,,,,,,,,,,,,,,,,,,,,,r,11.69199991,NAIR,TRUE,,,,,,,69,nariz,Spanish,Sounds/spa_nariz.mp3,2020-06-08_18h15.34.774,TranslationElicitation_eng-prolific,3.2.4,MacIntel,60,5eaeeb1a716ed0081dfa8718,,1,0,98,65,1,97
,,,,,,,,,,,,,,,,,,,,,,,,,,,,,,,,,,,,,,,,,o,11.73399997,NAIRO,TRUE,,,,,,,69,nariz,Spanish,Sounds/spa_nariz.mp3,2020-06-08_18h15.34.774,TranslationElicitation_eng-prolific,3.2.4,MacIntel,60,5eaeeb1a716ed0081dfa8718,,1,0,98,65,1,97
,,,,,,,,,,,,,,,,,,,,,,,,,,,,,,,,,,,,,,,,,n,12.33399987,NAIRON,TRUE,,,,,,,69,nariz,Spanish,Sounds/spa_nariz.mp3,2020-06-08_18h15.34.774,TranslationElicitation_eng-prolific,3.2.4,MacIntel,60,5eaeeb1a716ed0081dfa8718,,1,0,98,65,1,97
,,,,,,,,,,,,,,,,,,,,,,,,,,,,,,,,,,,,,,,,,backspace,12.93499994,NAIRO,TRUE,,,,,,,69,nariz,Spanish,Sounds/spa_nariz.mp3,2020-06-08_18h15.34.774,TranslationElicitation_eng-prolific,3.2.4,MacIntel,60,5eaeeb1a716ed0081dfa8718,,1,0,98,65,1,97
,,,,,,,,,,,,,,,,,,,,,,,,,,,,,,,,,,,,,,,,,b,13.13400006,NAIROB,TRUE,,,,,,,69,nariz,Spanish,Sounds/spa_nariz.mp3,2020-06-08_18h15.34.774,TranslationElicitation_eng-prolific,3.2.4,MacIntel,60,5eaeeb1a716ed0081dfa8718,,1,0,98,65,1,97
,,,,,,,,,,,,,,,,,,,,,,,,,,,,,,,,,,,,,,,,,i,13.23399997,NAIROBI,TRUE,,,,,,,69,nariz,Spanish,Sounds/spa_nariz.mp3,2020-06-08_18h15.34.774,TranslationElicitation_eng-prolific,3.2.4,MacIntel,60,5eaeeb1a716ed0081dfa8718,,1,0,98,65,1,97
,,,,,,,,,,,,,,,,,,,,,,,,,,,,,,,,,,,,,,,,,return,13.43599987,NAIROBI,TRUE,,,,,,,69,nariz,Spanish,Sounds/spa_nariz.mp3,2020-06-08_18h15.34.774,TranslationElicitation_eng-prolific,3.2.4,MacIntel,60,5eaeeb1a716ed0081dfa8718,13.43599987,1,0,98,65,1,97
,,,,,,,,,,,,,,,,,,,,,,,,,,,,,,,,,,,,,,,,,,,,,,,,,,,69,nariz,Spanish,Sounds/spa_nariz.mp3,2020-06-08_18h15.34.774,TranslationElicitation_eng-prolific,3.2.4,MacIntel,60,5eaeeb1a716ed0081dfa8718,,1,0,98,65,1,97
,,,,,,,,,,,,,,,,,,,,,,,,,,,,,,,,,,,,,,,,,m,1.782999992,M,FALSE,,,,,,,58,luna,Spanish,Sounds/spa_luna.mp3,2020-06-08_18h15.34.774,TranslationElicitation_eng-prolific,3.2.4,MacIntel,60,5eaeeb1a716ed0081dfa8718,,1,0,98,54,1,97
,,,,,,,,,,,,,,,,,,,,,,,,,,,,,,,,,,,,,,,,,o,2.232000113,MO,FALSE,,,,,,,58,luna,Spanish,Sounds/spa_luna.mp3,2020-06-08_18h15.34.774,TranslationElicitation_eng-prolific,3.2.4,MacIntel,60,5eaeeb1a716ed0081dfa8718,,1,0,98,54,1,97
,,,,,,,,,,,,,,,,,,,,,,,,,,,,,,,,,,,,,,,,,o,2.382000208,MOO,FALSE,,,,,,,58,luna,Spanish,Sounds/spa_luna.mp3,2020-06-08_18h15.34.774,TranslationElicitation_eng-prolific,3.2.4,MacIntel,60,5eaeeb1a716ed0081dfa8718,,1,0,98,54,1,97
,,,,,,,,,,,,,,,,,,,,,,,,,,,,,,,,,,,,,,,,,n,2.46600008,MOON,FALSE,,,,,,,58,luna,Spanish,Sounds/spa_luna.mp3,2020-06-08_18h15.34.774,TranslationElicitation_eng-prolific,3.2.4,MacIntel,60,5eaeeb1a716ed0081dfa8718,,1,0,98,54,1,97
,,,,,,,,,,,,,,,,,,,,,,,,,,,,,,,,,,,,,,,,,return,2.68200016,MOON,FALSE,,,,,,,58,luna,Spanish,Sounds/spa_luna.mp3,2020-06-08_18h15.34.774,TranslationElicitation_eng-prolific,3.2.4,MacIntel,60,5eaeeb1a716ed0081dfa8718,2.68200016,1,0,98,54,1,97
,,,,,,,,,,,,,,,,,,,,,,,,,,,,,,,,,,,,,,,,,,,,,,,,,,,58,luna,Spanish,Sounds/spa_luna.mp3,2020-06-08_18h15.34.774,TranslationElicitation_eng-prolific,3.2.4,MacIntel,60,5eaeeb1a716ed0081dfa8718,,1,0,98,54,1,97
,,,,,,,,,,,,,,,,,,,,,,,,,,,,,,,,,,,,,,,,,e,2.268000126,E,FALSE,,,,,,,34,ensalada,Spanish,Sounds/spa_ensalada.mp3,2020-06-08_18h15.34.774,TranslationElicitation_eng-prolific,3.2.4,MacIntel,60,5eaeeb1a716ed0081dfa8718,,1,0,98,30,1,97
,,,,,,,,,,,,,,,,,,,,,,,,,,,,,,,,,,,,,,,,,n,2.384000063,EN,FALSE,,,,,,,34,ensalada,Spanish,Sounds/spa_ensalada.mp3,2020-06-08_18h15.34.774,TranslationElicitation_eng-prolific,3.2.4,MacIntel,60,5eaeeb1a716ed0081dfa8718,,1,0,98,30,1,97
,,,,,,,,,,,,,,,,,,,,,,,,,,,,,,,,,,,,,,,,,s,2.632999897,ENS,FALSE,,,,,,,34,ensalada,Spanish,Sounds/spa_ensalada.mp3,2020-06-08_18h15.34.774,TranslationElicitation_eng-prolific,3.2.4,MacIntel,60,5eaeeb1a716ed0081dfa8718,,1,0,98,30,1,97
,,,,,,,,,,,,,,,,,,,,,,,,,,,,,,,,,,,,,,,,,l,2.799999952,ENSL,FALSE,,,,,,,34,ensalada,Spanish,Sounds/spa_ensalada.mp3,2020-06-08_18h15.34.774,TranslationElicitation_eng-prolific,3.2.4,MacIntel,60,5eaeeb1a716ed0081dfa8718,,1,0,98,30,1,97
,,,,,,,,,,,,,,,,,,,,,,,,,,,,,,,,,,,,,,,,,a,2.917000055,ENSLA,FALSE,,,,,,,34,ensalada,Spanish,Sounds/spa_ensalada.mp3,2020-06-08_18h15.34.774,TranslationElicitation_eng-prolific,3.2.4,MacIntel,60,5eaeeb1a716ed0081dfa8718,,1,0,98,30,1,97
,,,,,,,,,,,,,,,,,,,,,,,,,,,,,,,,,,,,,,,,,v,3.249000072,ENSLAV,FALSE,,,,,,,34,ensalada,Spanish,Sounds/spa_ensalada.mp3,2020-06-08_18h15.34.774,TranslationElicitation_eng-prolific,3.2.4,MacIntel,60,5eaeeb1a716ed0081dfa8718,,1,0,98,30,1,97
,,,,,,,,,,,,,,,,,,,,,,,,,,,,,,,,,,,,,,,,,e,3.348999977,ENSLAVE,FALSE,,,,,,,34,ensalada,Spanish,Sounds/spa_ensalada.mp3,2020-06-08_18h15.34.774,TranslationElicitation_eng-prolific,3.2.4,MacIntel,60,5eaeeb1a716ed0081dfa8718,,1,0,98,30,1,97
,,,,,,,,,,,,,,,,,,,,,,,,,,,,,,,,,,,,,,,,,return,3.632999897,ENSLAVE,FALSE,,,,,,,34,ensalada,Spanish,Sounds/spa_ensalada.mp3,2020-06-08_18h15.34.774,TranslationElicitation_eng-prolific,3.2.4,MacIntel,60,5eaeeb1a716ed0081dfa8718,3.632999897,1,0,98,30,1,97
,,,,,,,,,,,,,,,,,,,,,,,,,,,,,,,,,,,,,,,,,,,,,,,,,,,34,ensalada,Spanish,Sounds/spa_ensalada.mp3,2020-06-08_18h15.34.774,TranslationElicitation_eng-prolific,3.2.4,MacIntel,60,5eaeeb1a716ed0081dfa8718,,1,0,98,30,1,97
,,,,,,,,,,,,,,,,,,,,,,,,,,,,,,,,,,,,,,,,,p,1.450000048,P,FALSE,,,,,,,80,pato,Spanish,Sounds/spa_pato.mp3,2020-06-08_18h15.34.774,TranslationElicitation_eng-prolific,3.2.4,MacIntel,60,5eaeeb1a716ed0081dfa8718,,1,0,98,75,1,97
,,,,,,,,,,,,,,,,,,,,,,,,,,,,,,,,,,,,,,,,,a,1.650000095,PA,FALSE,,,,,,,80,pato,Spanish,Sounds/spa_pato.mp3,2020-06-08_18h15.34.774,TranslationElicitation_eng-prolific,3.2.4,MacIntel,60,5eaeeb1a716ed0081dfa8718,,1,0,98,75,1,97
,,,,,,,,,,,,,,,,,,,,,,,,,,,,,,,,,,,,,,,,,t,1.817000151,PAT,FALSE,,,,,,,80,pato,Spanish,Sounds/spa_pato.mp3,2020-06-08_18h15.34.774,TranslationElicitation_eng-prolific,3.2.4,MacIntel,60,5eaeeb1a716ed0081dfa8718,,1,0,98,75,1,97
,,,,,,,,,,,,,,,,,,,,,,,,,,,,,,,,,,,,,,,,,i,1.936000109,PATI,FALSE,,,,,,,80,pato,Spanish,Sounds/spa_pato.mp3,2020-06-08_18h15.34.774,TranslationElicitation_eng-prolific,3.2.4,MacIntel,60,5eaeeb1a716ed0081dfa8718,,1,0,98,75,1,97
,,,,,,,,,,,,,,,,,,,,,,,,,,,,,,,,,,,,,,,,,o,1.985000134,PATIO,FALSE,,,,,,,80,pato,Spanish,Sounds/spa_pato.mp3,2020-06-08_18h15.34.774,TranslationElicitation_eng-prolific,3.2.4,MacIntel,60,5eaeeb1a716ed0081dfa8718,,1,0,98,75,1,97
,,,,,,,,,,,,,,,,,,,,,,,,,,,,,,,,,,,,,,,,,return,2.283000231,PATIO,FALSE,,,,,,,80,pato,Spanish,Sounds/spa_pato.mp3,2020-06-08_18h15.34.774,TranslationElicitation_eng-prolific,3.2.4,MacIntel,60,5eaeeb1a716ed0081dfa8718,2.283000231,1,0,98,75,1,97
,,,,,,,,,,,,,,,,,,,,,,,,,,,,,,,,,,,,,,,,,,,,,,,,,,,80,pato,Spanish,Sounds/spa_pato.mp3,2020-06-08_18h15.34.774,TranslationElicitation_eng-prolific,3.2.4,MacIntel,60,5eaeeb1a716ed0081dfa8718,,1,0,98,75,1,97
,,,,,,,,,,,,,,,,,,,,,,,,,,,,,,,,,,,,,,,,,b,3.967999935,B,FALSE,,,,,,,76,panal,Spanish,Sounds/spa_panal.mp3,2020-06-08_18h15.34.774,TranslationElicitation_eng-prolific,3.2.4,MacIntel,60,5eaeeb1a716ed0081dfa8718,,1,0,98,71,1,97
,,,,,,,,,,,,,,,,,,,,,,,,,,,,,,,,,,,,,,,,,r,4.117000103,BR,FALSE,,,,,,,76,panal,Spanish,Sounds/spa_panal.mp3,2020-06-08_18h15.34.774,TranslationElicitation_eng-prolific,3.2.4,MacIntel,60,5eaeeb1a716ed0081dfa8718,,1,0,98,71,1,97
,,,,,,,,,,,,,,,,,,,,,,,,,,,,,,,,,,,,,,,,,e,4.28399992,BRE,FALSE,,,,,,,76,panal,Spanish,Sounds/spa_panal.mp3,2020-06-08_18h15.34.774,TranslationElicitation_eng-prolific,3.2.4,MacIntel,60,5eaeeb1a716ed0081dfa8718,,1,0,98,71,1,97
,,,,,,,,,,,,,,,,,,,,,,,,,,,,,,,,,,,,,,,,,a,4.532000065,BREA,FALSE,,,,,,,76,panal,Spanish,Sounds/spa_panal.mp3,2020-06-08_18h15.34.774,TranslationElicitation_eng-prolific,3.2.4,MacIntel,60,5eaeeb1a716ed0081dfa8718,,1,0,98,71,1,97
,,,,,,,,,,,,,,,,,,,,,,,,,,,,,,,,,,,,,,,,,d,4.631999969,BREAD,FALSE,,,,,,,76,panal,Spanish,Sounds/spa_panal.mp3,2020-06-08_18h15.34.774,TranslationElicitation_eng-prolific,3.2.4,MacIntel,60,5eaeeb1a716ed0081dfa8718,,1,0,98,71,1,97
,,,,,,,,,,,,,,,,,,,,,,,,,,,,,,,,,,,,,,,,,return,4.766000032,BREAD,FALSE,,,,,,,76,panal,Spanish,Sounds/spa_panal.mp3,2020-06-08_18h15.34.774,TranslationElicitation_eng-prolific,3.2.4,MacIntel,60,5eaeeb1a716ed0081dfa8718,4.766000032,1,0,98,71,1,97
,,,,,,,,,,,,,,,,,,,,,,,,,,,,,,,,,,,,,,,,,,,,,,,,,,,76,panal,Spanish,Sounds/spa_panal.mp3,2020-06-08_18h15.34.774,TranslationElicitation_eng-prolific,3.2.4,MacIntel,60,5eaeeb1a716ed0081dfa8718,,1,0,98,71,1,97
,,,,,,,,,,,,,,,,,,,,,,,,,,,,,,,,,,,,,,,,,p,7.450000048,P,FALSE,,,,,,,72,osito,Spanish,Sounds/spa_osito.mp3,2020-06-08_18h15.34.774,TranslationElicitation_eng-prolific,3.2.4,MacIntel,60,5eaeeb1a716ed0081dfa8718,,1,0,98,67,1,97
,,,,,,,,,,,,,,,,,,,,,,,,,,,,,,,,,,,,,,,,,o,7.519000053,PO,FALSE,,,,,,,72,osito,Spanish,Sounds/spa_osito.mp3,2020-06-08_18h15.34.774,TranslationElicitation_eng-prolific,3.2.4,MacIntel,60,5eaeeb1a716ed0081dfa8718,,1,0,98,67,1,97
,,,,,,,,,,,,,,,,,,,,,,,,,,,,,,,,,,,,,,,,,t,7.799999952,POT,FALSE,,,,,,,72,osito,Spanish,Sounds/spa_osito.mp3,2020-06-08_18h15.34.774,TranslationElicitation_eng-prolific,3.2.4,MacIntel,60,5eaeeb1a716ed0081dfa8718,,1,0,98,67,1,97
,,,,,,,,,,,,,,,,,,,,,,,,,,,,,,,,,,,,,,,,,a,8.068000078,POTA,FALSE,,,,,,,72,osito,Spanish,Sounds/spa_osito.mp3,2020-06-08_18h15.34.774,TranslationElicitation_eng-prolific,3.2.4,MacIntel,60,5eaeeb1a716ed0081dfa8718,,1,0,98,67,1,97
,,,,,,,,,,,,,,,,,,,,,,,,,,,,,,,,,,,,,,,,,t,8.267999887,POTAT,FALSE,,,,,,,72,osito,Spanish,Sounds/spa_osito.mp3,2020-06-08_18h15.34.774,TranslationElicitation_eng-prolific,3.2.4,MacIntel,60,5eaeeb1a716ed0081dfa8718,,1,0,98,67,1,97
,,,,,,,,,,,,,,,,,,,,,,,,,,,,,,,,,,,,,,,,,o,8.384000063,POTATO,FALSE,,,,,,,72,osito,Spanish,Sounds/spa_osito.mp3,2020-06-08_18h15.34.774,TranslationElicitation_eng-prolific,3.2.4,MacIntel,60,5eaeeb1a716ed0081dfa8718,,1,0,98,67,1,97
,,,,,,,,,,,,,,,,,,,,,,,,,,,,,,,,,,,,,,,,,e,8.519000053,POTATOE,FALSE,,,,,,,72,osito,Spanish,Sounds/spa_osito.mp3,2020-06-08_18h15.34.774,TranslationElicitation_eng-prolific,3.2.4,MacIntel,60,5eaeeb1a716ed0081dfa8718,,1,0,98,67,1,97
,,,,,,,,,,,,,,,,,,,,,,,,,,,,,,,,,,,,,,,,,s,8.733999968,POTATOES,FALSE,,,,,,,72,osito,Spanish,Sounds/spa_osito.mp3,2020-06-08_18h15.34.774,TranslationElicitation_eng-prolific,3.2.4,MacIntel,60,5eaeeb1a716ed0081dfa8718,,1,0,98,67,1,97
,,,,,,,,,,,,,,,,,,,,,,,,,,,,,,,,,,,,,,,,,backspace,9.26699996,POTATOE,TRUE,,,,,,,72,osito,Spanish,Sounds/spa_osito.mp3,2020-06-08_18h15.34.774,TranslationElicitation_eng-prolific,3.2.4,MacIntel,60,5eaeeb1a716ed0081dfa8718,,1,0,98,67,1,97
,,,,,,,,,,,,,,,,,,,,,,,,,,,,,,,,,,,,,,,,,s,10.00099993,POTATOES,TRUE,,,,,,,72,osito,Spanish,Sounds/spa_osito.mp3,2020-06-08_18h15.34.774,TranslationElicitation_eng-prolific,3.2.4,MacIntel,60,5eaeeb1a716ed0081dfa8718,,1,0,98,67,1,97
,,,,,,,,,,,,,,,,,,,,,,,,,,,,,,,,,,,,,,,,,return,10.13400006,POTATOES,TRUE,,,,,,,72,osito,Spanish,Sounds/spa_osito.mp3,2020-06-08_18h15.34.774,TranslationElicitation_eng-prolific,3.2.4,MacIntel,60,5eaeeb1a716ed0081dfa8718,10.13400006,1,0,98,67,1,97
,,,,,,,,,,,,,,,,,,,,,,,,,,,,,,,,,,,,,,,,,,,,,,,,,,,72,osito,Spanish,Sounds/spa_osito.mp3,2020-06-08_18h15.34.774,TranslationElicitation_eng-prolific,3.2.4,MacIntel,60,5eaeeb1a716ed0081dfa8718,,1,0,98,67,1,97
,,,,,,,,,,,,,,,,,,,,,,,,,,,,,,,,,,,,,,,,,g,1.664999962,G,FALSE,,,,,,,44,gorrion,Spanish,Sounds/spa_gorrion.mp3,2020-06-08_18h15.34.774,TranslationElicitation_eng-prolific,3.2.4,MacIntel,60,5eaeeb1a716ed0081dfa8718,,1,0,98,40,1,97
,,,,,,,,,,,,,,,,,,,,,,,,,,,,,,,,,,,,,,,,,o,1.749000072,GO,FALSE,,,,,,,44,gorrion,Spanish,Sounds/spa_gorrion.mp3,2020-06-08_18h15.34.774,TranslationElicitation_eng-prolific,3.2.4,MacIntel,60,5eaeeb1a716ed0081dfa8718,,1,0,98,40,1,97
,,,,,,,,,,,,,,,,,,,,,,,,,,,,,,,,,,,,,,,,,l,1.948000193,GOL,FALSE,,,,,,,44,gorrion,Spanish,Sounds/spa_gorrion.mp3,2020-06-08_18h15.34.774,TranslationElicitation_eng-prolific,3.2.4,MacIntel,60,5eaeeb1a716ed0081dfa8718,,1,0,98,40,1,97
,,,,,,,,,,,,,,,,,,,,,,,,,,,,,,,,,,,,,,,,,d,2.082000017,GOLD,FALSE,,,,,,,44,gorrion,Spanish,Sounds/spa_gorrion.mp3,2020-06-08_18h15.34.774,TranslationElicitation_eng-prolific,3.2.4,MacIntel,60,5eaeeb1a716ed0081dfa8718,,1,0,98,40,1,97
,,,,,,,,,,,,,,,,,,,,,,,,,,,,,,,,,,,,,,,,,return,2.19900012,GOLD,FALSE,,,,,,,44,gorrion,Spanish,Sounds/spa_gorrion.mp3,2020-06-08_18h15.34.774,TranslationElicitation_eng-prolific,3.2.4,MacIntel,60,5eaeeb1a716ed0081dfa8718,2.19900012,1,0,98,40,1,97
,,,,,,,,,,,,,,,,,,,,,,,,,,,,,,,,,,,,,,,,,,,,,,,,,,,44,gorrion,Spanish,Sounds/spa_gorrion.mp3,2020-06-08_18h15.34.774,TranslationElicitation_eng-prolific,3.2.4,MacIntel,60,5eaeeb1a716ed0081dfa8718,,1,0,98,40,1,97
,,,,,,,,,,,,,,,,,,,,,,,,,,,,,,,,,,,,,,,,,g,4.082000017,G,FALSE,,,,,,,39,gafas,Spanish,Sounds/spa_gafas.mp3,2020-06-08_18h15.34.774,TranslationElicitation_eng-prolific,3.2.4,MacIntel,60,5eaeeb1a716ed0081dfa8718,,1,0,98,35,1,97
,,,,,,,,,,,,,,,,,,,,,,,,,,,,,,,,,,,,,,,,,a,4.499000072,GA,FALSE,,,,,,,39,gafas,Spanish,Sounds/spa_gafas.mp3,2020-06-08_18h15.34.774,TranslationElicitation_eng-prolific,3.2.4,MacIntel,60,5eaeeb1a716ed0081dfa8718,,1,0,98,35,1,97
,,,,,,,,,,,,,,,,,,,,,,,,,,,,,,,,,,,,,,,,,r,4.634000063,GAR,FALSE,,,,,,,39,gafas,Spanish,Sounds/spa_gafas.mp3,2020-06-08_18h15.34.774,TranslationElicitation_eng-prolific,3.2.4,MacIntel,60,5eaeeb1a716ed0081dfa8718,,1,0,98,35,1,97
,,,,,,,,,,,,,,,,,,,,,,,,,,,,,,,,,,,,,,,,,b,5.232000113,GARB,FALSE,,,,,,,39,gafas,Spanish,Sounds/spa_gafas.mp3,2020-06-08_18h15.34.774,TranslationElicitation_eng-prolific,3.2.4,MacIntel,60,5eaeeb1a716ed0081dfa8718,,1,0,98,35,1,97
,,,,,,,,,,,,,,,,,,,,,,,,,,,,,,,,,,,,,,,,,a,5.332999945,GARBA,FALSE,,,,,,,39,gafas,Spanish,Sounds/spa_gafas.mp3,2020-06-08_18h15.34.774,TranslationElicitation_eng-prolific,3.2.4,MacIntel,60,5eaeeb1a716ed0081dfa8718,,1,0,98,35,1,97
,,,,,,,,,,,,,,,,,,,,,,,,,,,,,,,,,,,,,,,,,g,5.532999992,GARBAG,FALSE,,,,,,,39,gafas,Spanish,Sounds/spa_gafas.mp3,2020-06-08_18h15.34.774,TranslationElicitation_eng-prolific,3.2.4,MacIntel,60,5eaeeb1a716ed0081dfa8718,,1,0,98,35,1,97
,,,,,,,,,,,,,,,,,,,,,,,,,,,,,,,,,,,,,,,,,e,5.69900012,GARBAGE,FALSE,,,,,,,39,gafas,Spanish,Sounds/spa_gafas.mp3,2020-06-08_18h15.34.774,TranslationElicitation_eng-prolific,3.2.4,MacIntel,60,5eaeeb1a716ed0081dfa8718,,1,0,98,35,1,97
,,,,,,,,,,,,,,,,,,,,,,,,,,,,,,,,,,,,,,,,,return,5.868999958,GARBAGE,FALSE,,,,,,,39,gafas,Spanish,Sounds/spa_gafas.mp3,2020-06-08_18h15.34.774,TranslationElicitation_eng-prolific,3.2.4,MacIntel,60,5eaeeb1a716ed0081dfa8718,5.868999958,1,0,98,35,1,97
,,,,,,,,,,,,,,,,,,,,,,,,,,,,,,,,,,,,,,,,,,,,,,,,,,,39,gafas,Spanish,Sounds/spa_gafas.mp3,2020-06-08_18h15.34.774,TranslationElicitation_eng-prolific,3.2.4,MacIntel,60,5eaeeb1a716ed0081dfa8718,,1,0,98,35,1,97
,,,,,,,,,,,,,,,,,,,,,,,,,,,,,,,,,,,,,,,,,l,2.651000023,L,FALSE,,,,,,,56,libro,Spanish,Sounds/spa_libro.mp3,2020-06-08_18h15.34.774,TranslationElicitation_eng-prolific,3.2.4,MacIntel,60,5eaeeb1a716ed0081dfa8718,,1,0,98,52,1,97
,,,,,,,,,,,,,,,,,,,,,,,,,,,,,,,,,,,,,,,,,i,3.032999992,LI,FALSE,,,,,,,56,libro,Spanish,Sounds/spa_libro.mp3,2020-06-08_18h15.34.774,TranslationElicitation_eng-prolific,3.2.4,MacIntel,60,5eaeeb1a716ed0081dfa8718,,1,0,98,52,1,97
,,,,,,,,,,,,,,,,,,,,,,,,,,,,,,,,,,,,,,,,,o,3.100000143,LIO,FALSE,,,,,,,56,libro,Spanish,Sounds/spa_libro.mp3,2020-06-08_18h15.34.774,TranslationElicitation_eng-prolific,3.2.4,MacIntel,60,5eaeeb1a716ed0081dfa8718,,1,0,98,52,1,97
,,,,,,,,,,,,,,,,,,,,,,,,,,,,,,,,,,,,,,,,,n,3.282999992,LION,FALSE,,,,,,,56,libro,Spanish,Sounds/spa_libro.mp3,2020-06-08_18h15.34.774,TranslationElicitation_eng-prolific,3.2.4,MacIntel,60,5eaeeb1a716ed0081dfa8718,,1,0,98,52,1,97
,,,,,,,,,,,,,,,,,,,,,,,,,,,,,,,,,,,,,,,,,return,3.484000206,LION,FALSE,,,,,,,56,libro,Spanish,Sounds/spa_libro.mp3,2020-06-08_18h15.34.774,TranslationElicitation_eng-prolific,3.2.4,MacIntel,60,5eaeeb1a716ed0081dfa8718,3.484000206,1,0,98,52,1,97
,,,,,,,,,,,,,,,,,,,,,,,,,,,,,,,,,,,,,,,,,,,,,,,,,,,56,libro,Spanish,Sounds/spa_libro.mp3,2020-06-08_18h15.34.774,TranslationElicitation_eng-prolific,3.2.4,MacIntel,60,5eaeeb1a716ed0081dfa8718,,1,0,98,52,1,97
,,,,,,,,,,,,,,,,,,,,,,,,,,,,,,,,,,,,,,,,,b,4.218999863,B,FALSE,,,,,,,7,bocadillo,Spanish,Sounds/spa_bocadillo.mp3,2020-06-08_18h15.34.774,TranslationElicitation_eng-prolific,3.2.4,MacIntel,60,5eaeeb1a716ed0081dfa8718,,1,0,98,5,1,97
,,,,,,,,,,,,,,,,,,,,,,,,,,,,,,,,,,,,,,,,,e,4.332999945,BE,FALSE,,,,,,,7,bocadillo,Spanish,Sounds/spa_bocadillo.mp3,2020-06-08_18h15.34.774,TranslationElicitation_eng-prolific,3.2.4,MacIntel,60,5eaeeb1a716ed0081dfa8718,,1,0,98,5,1,97
,,,,,,,,,,,,,,,,,,,,,,,,,,,,,,,,,,,,,,,,,e,4.599999905,BEE,FALSE,,,,,,,7,bocadillo,Spanish,Sounds/spa_bocadillo.mp3,2020-06-08_18h15.34.774,TranslationElicitation_eng-prolific,3.2.4,MacIntel,60,5eaeeb1a716ed0081dfa8718,,1,0,98,5,1,97
,,,,,,,,,,,,,,,,,,,,,,,,,,,,,,,,,,,,,,,,,f,4.76699996,BEEF,FALSE,,,,,,,7,bocadillo,Spanish,Sounds/spa_bocadillo.mp3,2020-06-08_18h15.34.774,TranslationElicitation_eng-prolific,3.2.4,MacIntel,60,5eaeeb1a716ed0081dfa8718,,1,0,98,5,1,97
,,,,,,,,,,,,,,,,,,,,,,,,,,,,,,,,,,,,,,,,,space,5.001999855,BEEF ,FALSE,,,,,,,7,bocadillo,Spanish,Sounds/spa_bocadillo.mp3,2020-06-08_18h15.34.774,TranslationElicitation_eng-prolific,3.2.4,MacIntel,60,5eaeeb1a716ed0081dfa8718,,1,0,98,5,1,97
,,,,,,,,,,,,,,,,,,,,,,,,,,,,,,,,,,,,,,,,,s,5.80099988,BEEF S,FALSE,,,,,,,7,bocadillo,Spanish,Sounds/spa_bocadillo.mp3,2020-06-08_18h15.34.774,TranslationElicitation_eng-prolific,3.2.4,MacIntel,60,5eaeeb1a716ed0081dfa8718,,1,0,98,5,1,97
,,,,,,,,,,,,,,,,,,,,,,,,,,,,,,,,,,,,,,,,,t,6.217999935,BEEF ST,FALSE,,,,,,,7,bocadillo,Spanish,Sounds/spa_bocadillo.mp3,2020-06-08_18h15.34.774,TranslationElicitation_eng-prolific,3.2.4,MacIntel,60,5eaeeb1a716ed0081dfa8718,,1,0,98,5,1,97
,,,,,,,,,,,,,,,,,,,,,,,,,,,,,,,,,,,,,,,,,o,6.767999887,BEEF STO,FALSE,,,,,,,7,bocadillo,Spanish,Sounds/spa_bocadillo.mp3,2020-06-08_18h15.34.774,TranslationElicitation_eng-prolific,3.2.4,MacIntel,60,5eaeeb1a716ed0081dfa8718,,1,0,98,5,1,97
,,,,,,,,,,,,,,,,,,,,,,,,,,,,,,,,,,,,,,,,,c,6.916999817,BEEF STOC,FALSE,,,,,,,7,bocadillo,Spanish,Sounds/spa_bocadillo.mp3,2020-06-08_18h15.34.774,TranslationElicitation_eng-prolific,3.2.4,MacIntel,60,5eaeeb1a716ed0081dfa8718,,1,0,98,5,1,97
,,,,,,,,,,,,,,,,,,,,,,,,,,,,,,,,,,,,,,,,,k,7.017999887,BEEF STOCK,FALSE,,,,,,,7,bocadillo,Spanish,Sounds/spa_bocadillo.mp3,2020-06-08_18h15.34.774,TranslationElicitation_eng-prolific,3.2.4,MacIntel,60,5eaeeb1a716ed0081dfa8718,,1,0,98,5,1,97
,,,,,,,,,,,,,,,,,,,,,,,,,,,,,,,,,,,,,,,,,return,7.167999983,BEEF STOCK,FALSE,,,,,,,7,bocadillo,Spanish,Sounds/spa_bocadillo.mp3,2020-06-08_18h15.34.774,TranslationElicitation_eng-prolific,3.2.4,MacIntel,60,5eaeeb1a716ed0081dfa8718,7.167999983,1,0,98,5,1,97
,,,,,,,,,,,,,,,,,,,,,,,,,,,,,,,,,,,,,,,,,,,,,,,,,,,7,bocadillo,Spanish,Sounds/spa_bocadillo.mp3,2020-06-08_18h15.34.774,TranslationElicitation_eng-prolific,3.2.4,MacIntel,60,5eaeeb1a716ed0081dfa8718,,1,0,98,5,1,97
,,,,,,,,,,,,,,,,,,,,,,,,,,,,,,,,,,,,,,,,,o,1.447999954,O,FALSE,,,,,,,71,ombligo,Spanish,Sounds/spa_ombligo.mp3,2020-06-08_18h15.34.774,TranslationElicitation_eng-prolific,3.2.4,MacIntel,60,5eaeeb1a716ed0081dfa8718,,1,0,98,66,1,97
,,,,,,,,,,,,,,,,,,,,,,,,,,,,,,,,,,,,,,,,,m,1.582000017,OM,FALSE,,,,,,,71,ombligo,Spanish,Sounds/spa_ombligo.mp3,2020-06-08_18h15.34.774,TranslationElicitation_eng-prolific,3.2.4,MacIntel,60,5eaeeb1a716ed0081dfa8718,,1,0,98,66,1,97
,,,,,,,,,,,,,,,,,,,,,,,,,,,,,,,,,,,,,,,,,l,1.764999866,OML,FALSE,,,,,,,71,ombligo,Spanish,Sounds/spa_ombligo.mp3,2020-06-08_18h15.34.774,TranslationElicitation_eng-prolific,3.2.4,MacIntel,60,5eaeeb1a716ed0081dfa8718,,1,0,98,66,1,97
,,,,,,,,,,,,,,,,,,,,,,,,,,,,,,,,,,,,,,,,,e,1.967000008,OMLE,FALSE,,,,,,,71,ombligo,Spanish,Sounds/spa_ombligo.mp3,2020-06-08_18h15.34.774,TranslationElicitation_eng-prolific,3.2.4,MacIntel,60,5eaeeb1a716ed0081dfa8718,,1,0,98,66,1,97
,,,,,,,,,,,,,,,,,,,,,,,,,,,,,,,,,,,,,,,,,t,2.181999922,OMLET,FALSE,,,,,,,71,ombligo,Spanish,Sounds/spa_ombligo.mp3,2020-06-08_18h15.34.774,TranslationElicitation_eng-prolific,3.2.4,MacIntel,60,5eaeeb1a716ed0081dfa8718,,1,0,98,66,1,97
,,,,,,,,,,,,,,,,,,,,,,,,,,,,,,,,,,,,,,,,,t,2.772000074,OMLETT,FALSE,,,,,,,71,ombligo,Spanish,Sounds/spa_ombligo.mp3,2020-06-08_18h15.34.774,TranslationElicitation_eng-prolific,3.2.4,MacIntel,60,5eaeeb1a716ed0081dfa8718,,1,0,98,66,1,97
,,,,,,,,,,,,,,,,,,,,,,,,,,,,,,,,,,,,,,,,,e,2.882999897,OMLETTE,FALSE,,,,,,,71,ombligo,Spanish,Sounds/spa_ombligo.mp3,2020-06-08_18h15.34.774,TranslationElicitation_eng-prolific,3.2.4,MacIntel,60,5eaeeb1a716ed0081dfa8718,,1,0,98,66,1,97
,,,,,,,,,,,,,,,,,,,,,,,,,,,,,,,,,,,,,,,,,return,3.11500001,OMLETTE,FALSE,,,,,,,71,ombligo,Spanish,Sounds/spa_ombligo.mp3,2020-06-08_18h15.34.774,TranslationElicitation_eng-prolific,3.2.4,MacIntel,60,5eaeeb1a716ed0081dfa8718,3.11500001,1,0,98,66,1,97
,,,,,,,,,,,,,,,,,,,,,,,,,,,,,,,,,,,,,,,,,,,,,,,,,,,71,ombligo,Spanish,Sounds/spa_ombligo.mp3,2020-06-08_18h15.34.774,TranslationElicitation_eng-prolific,3.2.4,MacIntel,60,5eaeeb1a716ed0081dfa8718,,1,0,98,66,1,97
,,,,,,,,,,,,,,,,,,,,,,,,,,,,,,,,,,,,,,,,,c,6.799000025,C,FALSE,,,,,,,15,caballo,Spanish,Sounds/spa_caballo.mp3,2020-06-08_18h15.34.774,TranslationElicitation_eng-prolific,3.2.4,MacIntel,60,5eaeeb1a716ed0081dfa8718,,1,0,98,13,1,97
,,,,,,,,,,,,,,,,,,,,,,,,,,,,,,,,,,,,,,,,,a,7.049000025,CA,FALSE,,,,,,,15,caballo,Spanish,Sounds/spa_caballo.mp3,2020-06-08_18h15.34.774,TranslationElicitation_eng-prolific,3.2.4,MacIntel,60,5eaeeb1a716ed0081dfa8718,,1,0,98,13,1,97
,,,,,,,,,,,,,,,,,,,,,,,,,,,,,,,,,,,,,,,,,b,7.249000072,CAB,FALSE,,,,,,,15,caballo,Spanish,Sounds/spa_caballo.mp3,2020-06-08_18h15.34.774,TranslationElicitation_eng-prolific,3.2.4,MacIntel,60,5eaeeb1a716ed0081dfa8718,,1,0,98,13,1,97
,,,,,,,,,,,,,,,,,,,,,,,,,,,,,,,,,,,,,,,,,space,8.749000072,CAB ,FALSE,,,,,,,15,caballo,Spanish,Sounds/spa_caballo.mp3,2020-06-08_18h15.34.774,TranslationElicitation_eng-prolific,3.2.4,MacIntel,60,5eaeeb1a716ed0081dfa8718,,1,0,98,13,1,97
,,,,,,,,,,,,,,,,,,,,,,,,,,,,,,,,,,,,,,,,,d,9.316000223,CAB D,FALSE,,,,,,,15,caballo,Spanish,Sounds/spa_caballo.mp3,2020-06-08_18h15.34.774,TranslationElicitation_eng-prolific,3.2.4,MacIntel,60,5eaeeb1a716ed0081dfa8718,,1,0,98,13,1,97
,,,,,,,,,,,,,,,,,,,,,,,,,,,,,,,,,,,,,,,,,r,9.516000032,CAB DR,FALSE,,,,,,,15,caballo,Spanish,Sounds/spa_caballo.mp3,2020-06-08_18h15.34.774,TranslationElicitation_eng-prolific,3.2.4,MacIntel,60,5eaeeb1a716ed0081dfa8718,,1,0,98,13,1,97
,,,,,,,,,,,,,,,,,,,,,,,,,,,,,,,,,,,,,,,,,i,9.667000055,CAB DRI,FALSE,,,,,,,15,caballo,Spanish,Sounds/spa_caballo.mp3,2020-06-08_18h15.34.774,TranslationElicitation_eng-prolific,3.2.4,MacIntel,60,5eaeeb1a716ed0081dfa8718,,1,0,98,13,1,97
,,,,,,,,,,,,,,,,,,,,,,,,,,,,,,,,,,,,,,,,,v,9.832000017,CAB DRIV,FALSE,,,,,,,15,caballo,Spanish,Sounds/spa_caballo.mp3,2020-06-08_18h15.34.774,TranslationElicitation_eng-prolific,3.2.4,MacIntel,60,5eaeeb1a716ed0081dfa8718,,1,0,98,13,1,97
,,,,,,,,,,,,,,,,,,,,,,,,,,,,,,,,,,,,,,,,,e,9.967000008,CAB DRIVE,FALSE,,,,,,,15,caballo,Spanish,Sounds/spa_caballo.mp3,2020-06-08_18h15.34.774,TranslationElicitation_eng-prolific,3.2.4,MacIntel,60,5eaeeb1a716ed0081dfa8718,,1,0,98,13,1,97
,,,,,,,,,,,,,,,,,,,,,,,,,,,,,,,,,,,,,,,,,r,10.09900022,CAB DRIVER,FALSE,,,,,,,15,caballo,Spanish,Sounds/spa_caballo.mp3,2020-06-08_18h15.34.774,TranslationElicitation_eng-prolific,3.2.4,MacIntel,60,5eaeeb1a716ed0081dfa8718,,1,0,98,13,1,97
,,,,,,,,,,,,,,,,,,,,,,,,,,,,,,,,,,,,,,,,,return,10.22400022,CAB DRIVER,FALSE,,,,,,,15,caballo,Spanish,Sounds/spa_caballo.mp3,2020-06-08_18h15.34.774,TranslationElicitation_eng-prolific,3.2.4,MacIntel,60,5eaeeb1a716ed0081dfa8718,10.22400022,1,0,98,13,1,97
,,,,,,,,,,,,,,,,,,,,,,,,,,,,,,,,,,,,,,,,,,,,,,,,,,,15,caballo,Spanish,Sounds/spa_caballo.mp3,2020-06-08_18h15.34.774,TranslationElicitation_eng-prolific,3.2.4,MacIntel,60,5eaeeb1a716ed0081dfa8718,,1,0,98,13,1,97
,,,,,,,,,,,,,,,,,,,,,,,,,,,,,,,,,,,,,,,,,c,2.931999922,C,FALSE,,,,,,,41,gallina,Spanish,Sounds/spa_gallina.mp3,2020-06-08_18h15.34.774,TranslationElicitation_eng-prolific,3.2.4,MacIntel,60,5eaeeb1a716ed0081dfa8718,,1,0,98,37,1,97
,,,,,,,,,,,,,,,,,,,,,,,,,,,,,,,,,,,,,,,,,a,3.065000057,CA,FALSE,,,,,,,41,gallina,Spanish,Sounds/spa_gallina.mp3,2020-06-08_18h15.34.774,TranslationElicitation_eng-prolific,3.2.4,MacIntel,60,5eaeeb1a716ed0081dfa8718,,1,0,98,37,1,97
,,,,,,,,,,,,,,,,,,,,,,,,,,,,,,,,,,,,,,,,,b,3.366999865,CAB,FALSE,,,,,,,41,gallina,Spanish,Sounds/spa_gallina.mp3,2020-06-08_18h15.34.774,TranslationElicitation_eng-prolific,3.2.4,MacIntel,60,5eaeeb1a716ed0081dfa8718,,1,0,98,37,1,97
,,,,,,,,,,,,,,,,,,,,,,,,,,,,,,,,,,,,,,,,,space,3.53399992,CAB ,FALSE,,,,,,,41,gallina,Spanish,Sounds/spa_gallina.mp3,2020-06-08_18h15.34.774,TranslationElicitation_eng-prolific,3.2.4,MacIntel,60,5eaeeb1a716ed0081dfa8718,,1,0,98,37,1,97
,,,,,,,,,,,,,,,,,,,,,,,,,,,,,,,,,,,,,,,,,g,3.748999834,CAB G,FALSE,,,,,,,41,gallina,Spanish,Sounds/spa_gallina.mp3,2020-06-08_18h15.34.774,TranslationElicitation_eng-prolific,3.2.4,MacIntel,60,5eaeeb1a716ed0081dfa8718,,1,0,98,37,1,97
,,,,,,,,,,,,,,,,,,,,,,,,,,,,,,,,,,,,,,,,,r,3.917000055,CAB GR,FALSE,,,,,,,41,gallina,Spanish,Sounds/spa_gallina.mp3,2020-06-08_18h15.34.774,TranslationElicitation_eng-prolific,3.2.4,MacIntel,60,5eaeeb1a716ed0081dfa8718,,1,0,98,37,1,97
,,,,,,,,,,,,,,,,,,,,,,,,,,,,,,,,,,,,,,,,,i,4.03399992,CAB GRI,FALSE,,,,,,,41,gallina,Spanish,Sounds/spa_gallina.mp3,2020-06-08_18h15.34.774,TranslationElicitation_eng-prolific,3.2.4,MacIntel,60,5eaeeb1a716ed0081dfa8718,,1,0,98,37,1,97
,,,,,,,,,,,,,,,,,,,,,,,,,,,,,,,,,,,,,,,,,v,4.164000034,CAB GRIV,FALSE,,,,,,,41,gallina,Spanish,Sounds/spa_gallina.mp3,2020-06-08_18h15.34.774,TranslationElicitation_eng-prolific,3.2.4,MacIntel,60,5eaeeb1a716ed0081dfa8718,,1,0,98,37,1,97
,,,,,,,,,,,,,,,,,,,,,,,,,,,,,,,,,,,,,,,,,e,4.297999859,CAB GRIVE,FALSE,,,,,,,41,gallina,Spanish,Sounds/spa_gallina.mp3,2020-06-08_18h15.34.774,TranslationElicitation_eng-prolific,3.2.4,MacIntel,60,5eaeeb1a716ed0081dfa8718,,1,0,98,37,1,97
,,,,,,,,,,,,,,,,,,,,,,,,,,,,,,,,,,,,,,,,,r,4.500999928,CAB GRIVER,FALSE,,,,,,,41,gallina,Spanish,Sounds/spa_gallina.mp3,2020-06-08_18h15.34.774,TranslationElicitation_eng-prolific,3.2.4,MacIntel,60,5eaeeb1a716ed0081dfa8718,,1,0,98,37,1,97
,,,,,,,,,,,,,,,,,,,,,,,,,,,,,,,,,,,,,,,,,backspace,4.782999992,CAB GRIVE,TRUE,,,,,,,41,gallina,Spanish,Sounds/spa_gallina.mp3,2020-06-08_18h15.34.774,TranslationElicitation_eng-prolific,3.2.4,MacIntel,60,5eaeeb1a716ed0081dfa8718,,1,0,98,37,1,97
,,,,,,,,,,,,,,,,,,,,,,,,,,,,,,,,,,,,,,,,,backspace,4.981999874,CAB GRIV,TRUE,,,,,,,41,gallina,Spanish,Sounds/spa_gallina.mp3,2020-06-08_18h15.34.774,TranslationElicitation_eng-prolific,3.2.4,MacIntel,60,5eaeeb1a716ed0081dfa8718,,1,0,98,37,1,97
,,,,,,,,,,,,,,,,,,,,,,,,,,,,,,,,,,,,,,,,,backspace,5.26699996,CAB GRI,TRUE,,,,,,,41,gallina,Spanish,Sounds/spa_gallina.mp3,2020-06-08_18h15.34.774,TranslationElicitation_eng-prolific,3.2.4,MacIntel,60,5eaeeb1a716ed0081dfa8718,,1,0,98,37,1,97
,,,,,,,,,,,,,,,,,,,,,,,,,,,,,,,,,,,,,,,,,backspace,5.432999849,CAB GR,TRUE,,,,,,,41,gallina,Spanish,Sounds/spa_gallina.mp3,2020-06-08_18h15.34.774,TranslationElicitation_eng-prolific,3.2.4,MacIntel,60,5eaeeb1a716ed0081dfa8718,,1,0,98,37,1,97
,,,,,,,,,,,,,,,,,,,,,,,,,,,,,,,,,,,,,,,,,backspace,5.582999945,CAB G,TRUE,,,,,,,41,gallina,Spanish,Sounds/spa_gallina.mp3,2020-06-08_18h15.34.774,TranslationElicitation_eng-prolific,3.2.4,MacIntel,60,5eaeeb1a716ed0081dfa8718,,1,0,98,37,1,97
,,,,,,,,,,,,,,,,,,,,,,,,,,,,,,,,,,,,,,,,,backspace,5.764999866,CAB ,TRUE,,,,,,,41,gallina,Spanish,Sounds/spa_gallina.mp3,2020-06-08_18h15.34.774,TranslationElicitation_eng-prolific,3.2.4,MacIntel,60,5eaeeb1a716ed0081dfa8718,,1,0,98,37,1,97
,,,,,,,,,,,,,,,,,,,,,,,,,,,,,,,,,,,,,,,,,d,6.447999954,CAB D,TRUE,,,,,,,41,gallina,Spanish,Sounds/spa_gallina.mp3,2020-06-08_18h15.34.774,TranslationElicitation_eng-prolific,3.2.4,MacIntel,60,5eaeeb1a716ed0081dfa8718,,1,0,98,37,1,97
,,,,,,,,,,,,,,,,,,,,,,,,,,,,,,,,,,,,,,,,,r,6.651000023,CAB DR,TRUE,,,,,,,41,gallina,Spanish,Sounds/spa_gallina.mp3,2020-06-08_18h15.34.774,TranslationElicitation_eng-prolific,3.2.4,MacIntel,60,5eaeeb1a716ed0081dfa8718,,1,0,98,37,1,97
,,,,,,,,,,,,,,,,,,,,,,,,,,,,,,,,,,,,,,,,,i,6.799999952,CAB DRI,TRUE,,,,,,,41,gallina,Spanish,Sounds/spa_gallina.mp3,2020-06-08_18h15.34.774,TranslationElicitation_eng-prolific,3.2.4,MacIntel,60,5eaeeb1a716ed0081dfa8718,,1,0,98,37,1,97
,,,,,,,,,,,,,,,,,,,,,,,,,,,,,,,,,,,,,,,,,v,6.931999922,CAB DRIV,TRUE,,,,,,,41,gallina,Spanish,Sounds/spa_gallina.mp3,2020-06-08_18h15.34.774,TranslationElicitation_eng-prolific,3.2.4,MacIntel,60,5eaeeb1a716ed0081dfa8718,,1,0,98,37,1,97
,,,,,,,,,,,,,,,,,,,,,,,,,,,,,,,,,,,,,,,,,e,7.014999866,CAB DRIVE,TRUE,,,,,,,41,gallina,Spanish,Sounds/spa_gallina.mp3,2020-06-08_18h15.34.774,TranslationElicitation_eng-prolific,3.2.4,MacIntel,60,5eaeeb1a716ed0081dfa8718,,1,0,98,37,1,97
,,,,,,,,,,,,,,,,,,,,,,,,,,,,,,,,,,,,,,,,,r,7.148000002,CAB DRIVER,TRUE,,,,,,,41,gallina,Spanish,Sounds/spa_gallina.mp3,2020-06-08_18h15.34.774,TranslationElicitation_eng-prolific,3.2.4,MacIntel,60,5eaeeb1a716ed0081dfa8718,,1,0,98,37,1,97
,,,,,,,,,,,,,,,,,,,,,,,,,,,,,,,,,,,,,,,,,space,7.281999826,CAB DRIVER ,TRUE,,,,,,,41,gallina,Spanish,Sounds/spa_gallina.mp3,2020-06-08_18h15.34.774,TranslationElicitation_eng-prolific,3.2.4,MacIntel,60,5eaeeb1a716ed0081dfa8718,,1,0,98,37,1,97
,,,,,,,,,,,,,,,,,,,,,,,,,,,,,,,,,,,,,,,,,w,8.401000023,CAB DRIVER W,TRUE,,,,,,,41,gallina,Spanish,Sounds/spa_gallina.mp3,2020-06-08_18h15.34.774,TranslationElicitation_eng-prolific,3.2.4,MacIntel,60,5eaeeb1a716ed0081dfa8718,,1,0,98,37,1,97
,,,,,,,,,,,,,,,,,,,,,,,,,,,,,,,,,,,,,,,,,o,8.49000001,CAB DRIVER WO,TRUE,,,,,,,41,gallina,Spanish,Sounds/spa_gallina.mp3,2020-06-08_18h15.34.774,TranslationElicitation_eng-prolific,3.2.4,MacIntel,60,5eaeeb1a716ed0081dfa8718,,1,0,98,37,1,97
,,,,,,,,,,,,,,,,,,,,,,,,,,,,,,,,,,,,,,,,,m,8.633999825,CAB DRIVER WOM,TRUE,,,,,,,41,gallina,Spanish,Sounds/spa_gallina.mp3,2020-06-08_18h15.34.774,TranslationElicitation_eng-prolific,3.2.4,MacIntel,60,5eaeeb1a716ed0081dfa8718,,1,0,98,37,1,97
,,,,,,,,,,,,,,,,,,,,,,,,,,,,,,,,,,,,,,,,,a,8.751999855,CAB DRIVER WOMA,TRUE,,,,,,,41,gallina,Spanish,Sounds/spa_gallina.mp3,2020-06-08_18h15.34.774,TranslationElicitation_eng-prolific,3.2.4,MacIntel,60,5eaeeb1a716ed0081dfa8718,,1,0,98,37,1,97
,,,,,,,,,,,,,,,,,,,,,,,,,,,,,,,,,,,,,,,,,n,9.184000015,CAB DRIVER WOMAN,TRUE,,,,,,,41,gallina,Spanish,Sounds/spa_gallina.mp3,2020-06-08_18h15.34.774,TranslationElicitation_eng-prolific,3.2.4,MacIntel,60,5eaeeb1a716ed0081dfa8718,,1,0,98,37,1,97
,,,,,,,,,,,,,,,,,,,,,,,,,,,,,,,,,,,,,,,,,return,10.06599998,CAB DRIVER WOMAN,TRUE,,,,,,,41,gallina,Spanish,Sounds/spa_gallina.mp3,2020-06-08_18h15.34.774,TranslationElicitation_eng-prolific,3.2.4,MacIntel,60,5eaeeb1a716ed0081dfa8718,10.06599998,1,0,98,37,1,97
,,,,,,,,,,,,,,,,,,,,,,,,,,,,,,,,,,,,,,,,,,,,,,,,,,,41,gallina,Spanish,Sounds/spa_gallina.mp3,2020-06-08_18h15.34.774,TranslationElicitation_eng-prolific,3.2.4,MacIntel,60,5eaeeb1a716ed0081dfa8718,,1,0,98,37,1,97
,,,,,,,,,,,,,,,,,,,,,,,,,,,,,,,,,,,,,,,,,l,2.682999849,L,FALSE,,,,,,,55,leon,Spanish,Sounds/spa_leon.mp3,2020-06-08_18h15.34.774,TranslationElicitation_eng-prolific,3.2.4,MacIntel,60,5eaeeb1a716ed0081dfa8718,,1,0,98,51,1,97
,,,,,,,,,,,,,,,,,,,,,,,,,,,,,,,,,,,,,,,,,y,2.782999992,LY,FALSE,,,,,,,55,leon,Spanish,Sounds/spa_leon.mp3,2020-06-08_18h15.34.774,TranslationElicitation_eng-prolific,3.2.4,MacIntel,60,5eaeeb1a716ed0081dfa8718,,1,0,98,51,1,97
,,,,,,,,,,,,,,,,,,,,,,,,,,,,,,,,,,,,,,,,,o,2.934000015,LYO,FALSE,,,,,,,55,leon,Spanish,Sounds/spa_leon.mp3,2020-06-08_18h15.34.774,TranslationElicitation_eng-prolific,3.2.4,MacIntel,60,5eaeeb1a716ed0081dfa8718,,1,0,98,51,1,97
,,,,,,,,,,,,,,,,,,,,,,,,,,,,,,,,,,,,,,,,,n,3.082999945,LYON,FALSE,,,,,,,55,leon,Spanish,Sounds/spa_leon.mp3,2020-06-08_18h15.34.774,TranslationElicitation_eng-prolific,3.2.4,MacIntel,60,5eaeeb1a716ed0081dfa8718,,1,0,98,51,1,97
,,,,,,,,,,,,,,,,,,,,,,,,,,,,,,,,,,,,,,,,,space,4.251999855,LYON ,FALSE,,,,,,,55,leon,Spanish,Sounds/spa_leon.mp3,2020-06-08_18h15.34.774,TranslationElicitation_eng-prolific,3.2.4,MacIntel,60,5eaeeb1a716ed0081dfa8718,,1,0,98,51,1,97
,,,,,,,,,,,,,,,,,,,,,,,,,,,,,,,,,,,,,,,,,f,4.88499999,LYON F,FALSE,,,,,,,55,leon,Spanish,Sounds/spa_leon.mp3,2020-06-08_18h15.34.774,TranslationElicitation_eng-prolific,3.2.4,MacIntel,60,5eaeeb1a716ed0081dfa8718,,1,0,98,51,1,97
,,,,,,,,,,,,,,,,,,,,,,,,,,,,,,,,,,,,,,,,,r,4.950000048,LYON FR,FALSE,,,,,,,55,leon,Spanish,Sounds/spa_leon.mp3,2020-06-08_18h15.34.774,TranslationElicitation_eng-prolific,3.2.4,MacIntel,60,5eaeeb1a716ed0081dfa8718,,1,0,98,51,1,97
,,,,,,,,,,,,,,,,,,,,,,,,,,,,,,,,,,,,,,,,,a,5.182999849,LYON FRA,FALSE,,,,,,,55,leon,Spanish,Sounds/spa_leon.mp3,2020-06-08_18h15.34.774,TranslationElicitation_eng-prolific,3.2.4,MacIntel,60,5eaeeb1a716ed0081dfa8718,,1,0,98,51,1,97
,,,,,,,,,,,,,,,,,,,,,,,,,,,,,,,,,,,,,,,,,n,5.349999905,LYON FRAN,FALSE,,,,,,,55,leon,Spanish,Sounds/spa_leon.mp3,2020-06-08_18h15.34.774,TranslationElicitation_eng-prolific,3.2.4,MacIntel,60,5eaeeb1a716ed0081dfa8718,,1,0,98,51,1,97
,,,,,,,,,,,,,,,,,,,,,,,,,,,,,,,,,,,,,,,,,c,5.450000048,LYON FRANC,FALSE,,,,,,,55,leon,Spanish,Sounds/spa_leon.mp3,2020-06-08_18h15.34.774,TranslationElicitation_eng-prolific,3.2.4,MacIntel,60,5eaeeb1a716ed0081dfa8718,,1,0,98,51,1,97
,,,,,,,,,,,,,,,,,,,,,,,,,,,,,,,,,,,,,,,,,e,5.983999968,LYON FRANCE,FALSE,,,,,,,55,leon,Spanish,Sounds/spa_leon.mp3,2020-06-08_18h15.34.774,TranslationElicitation_eng-prolific,3.2.4,MacIntel,60,5eaeeb1a716ed0081dfa8718,,1,0,98,51,1,97
,,,,,,,,,,,,,,,,,,,,,,,,,,,,,,,,,,,,,,,,,return,6.034999847,LYON FRANCE,FALSE,,,,,,,55,leon,Spanish,Sounds/spa_leon.mp3,2020-06-08_18h15.34.774,TranslationElicitation_eng-prolific,3.2.4,MacIntel,60,5eaeeb1a716ed0081dfa8718,6.034999847,1,0,98,51,1,97
,,,,,,,,,,,,,,,,,,,,,,,,,,,,,,,,,,,,,,,,,,,,,,,,,,,55,leon,Spanish,Sounds/spa_leon.mp3,2020-06-08_18h15.34.774,TranslationElicitation_eng-prolific,3.2.4,MacIntel,60,5eaeeb1a716ed0081dfa8718,,1,0,98,51,1,97
,,,,,,,,,,,,,,,,,,,,,,,,,,,,,,,,,,,,,,,,,d,1.633000135,D,FALSE,,,,,,,33,dedo,Spanish,Sounds/spa_dedo.mp3,2020-06-08_18h15.34.774,TranslationElicitation_eng-prolific,3.2.4,MacIntel,60,5eaeeb1a716ed0081dfa8718,,1,0,98,29,1,97
,,,,,,,,,,,,,,,,,,,,,,,,,,,,,,,,,,,,,,,,,a,1.850000143,DA,FALSE,,,,,,,33,dedo,Spanish,Sounds/spa_dedo.mp3,2020-06-08_18h15.34.774,TranslationElicitation_eng-prolific,3.2.4,MacIntel,60,5eaeeb1a716ed0081dfa8718,,1,0,98,29,1,97
,,,,,,,,,,,,,,,,,,,,,,,,,,,,,,,,,,,,,,,,,i,1.983999968,DAI,FALSE,,,,,,,33,dedo,Spanish,Sounds/spa_dedo.mp3,2020-06-08_18h15.34.774,TranslationElicitation_eng-prolific,3.2.4,MacIntel,60,5eaeeb1a716ed0081dfa8718,,1,0,98,29,1,97
,,,,,,,,,,,,,,,,,,,,,,,,,,,,,,,,,,,,,,,,,r,2.082999945,DAIR,FALSE,,,,,,,33,dedo,Spanish,Sounds/spa_dedo.mp3,2020-06-08_18h15.34.774,TranslationElicitation_eng-prolific,3.2.4,MacIntel,60,5eaeeb1a716ed0081dfa8718,,1,0,98,29,1,97
,,,,,,,,,,,,,,,,,,,,,,,,,,,,,,,,,,,,,,,,,y,2.25,DAIRY,FALSE,,,,,,,33,dedo,Spanish,Sounds/spa_dedo.mp3,2020-06-08_18h15.34.774,TranslationElicitation_eng-prolific,3.2.4,MacIntel,60,5eaeeb1a716ed0081dfa8718,,1,0,98,29,1,97
,,,,,,,,,,,,,,,,,,,,,,,,,,,,,,,,,,,,,,,,,return,2.500999928,DAIRY,FALSE,,,,,,,33,dedo,Spanish,Sounds/spa_dedo.mp3,2020-06-08_18h15.34.774,TranslationElicitation_eng-prolific,3.2.4,MacIntel,60,5eaeeb1a716ed0081dfa8718,2.500999928,1,0,98,29,1,97
,,,,,,,,,,,,,,,,,,,,,,,,,,,,,,,,,,,,,,,,,,,,,,,,,,,33,dedo,Spanish,Sounds/spa_dedo.mp3,2020-06-08_18h15.34.774,TranslationElicitation_eng-prolific,3.2.4,MacIntel,60,5eaeeb1a716ed0081dfa8718,,1,0,98,29,1,97
,,,,,,,,,,,,,,,,,,,,,,,,,,,,,,,,,,,,,,,,,c,2.065000057,C,FALSE,,,,,,,31,cubo,Spanish,Sounds/spa_cubo.mp3,2020-06-08_18h15.34.774,TranslationElicitation_eng-prolific,3.2.4,MacIntel,60,5eaeeb1a716ed0081dfa8718,,1,0,98,27,1,97
,,,,,,,,,,,,,,,,,,,,,,,,,,,,,,,,,,,,,,,,,o,2.180999994,CO,FALSE,,,,,,,31,cubo,Spanish,Sounds/spa_cubo.mp3,2020-06-08_18h15.34.774,TranslationElicitation_eng-prolific,3.2.4,MacIntel,60,5eaeeb1a716ed0081dfa8718,,1,0,98,27,1,97
,,,,,,,,,,,,,,,,,,,,,,,,,,,,,,,,,,,,,,,,,r,2.264999866,COR,FALSE,,,,,,,31,cubo,Spanish,Sounds/spa_cubo.mp3,2020-06-08_18h15.34.774,TranslationElicitation_eng-prolific,3.2.4,MacIntel,60,5eaeeb1a716ed0081dfa8718,,1,0,98,27,1,97
,,,,,,,,,,,,,,,,,,,,,,,,,,,,,,,,,,,,,,,,,n,2.398000002,CORN,FALSE,,,,,,,31,cubo,Spanish,Sounds/spa_cubo.mp3,2020-06-08_18h15.34.774,TranslationElicitation_eng-prolific,3.2.4,MacIntel,60,5eaeeb1a716ed0081dfa8718,,1,0,98,27,1,97
,,,,,,,,,,,,,,,,,,,,,,,,,,,,,,,,,,,,,,,,,w,2.813999891,CORNW,FALSE,,,,,,,31,cubo,Spanish,Sounds/spa_cubo.mp3,2020-06-08_18h15.34.774,TranslationElicitation_eng-prolific,3.2.4,MacIntel,60,5eaeeb1a716ed0081dfa8718,,1,0,98,27,1,97
,,,,,,,,,,,,,,,,,,,,,,,,,,,,,,,,,,,,,,,,,a,2.981999874,CORNWA,FALSE,,,,,,,31,cubo,Spanish,Sounds/spa_cubo.mp3,2020-06-08_18h15.34.774,TranslationElicitation_eng-prolific,3.2.4,MacIntel,60,5eaeeb1a716ed0081dfa8718,,1,0,98,27,1,97
,,,,,,,,,,,,,,,,,,,,,,,,,,,,,,,,,,,,,,,,,l,3.09800005,CORNWAL,FALSE,,,,,,,31,cubo,Spanish,Sounds/spa_cubo.mp3,2020-06-08_18h15.34.774,TranslationElicitation_eng-prolific,3.2.4,MacIntel,60,5eaeeb1a716ed0081dfa8718,,1,0,98,27,1,97
,,,,,,,,,,,,,,,,,,,,,,,,,,,,,,,,,,,,,,,,,l,3.264999866,CORNWALL,FALSE,,,,,,,31,cubo,Spanish,Sounds/spa_cubo.mp3,2020-06-08_18h15.34.774,TranslationElicitation_eng-prolific,3.2.4,MacIntel,60,5eaeeb1a716ed0081dfa8718,,1,0,98,27,1,97
,,,,,,,,,,,,,,,,,,,,,,,,,,,,,,,,,,,,,,,,,return,3.450000048,CORNWALL,FALSE,,,,,,,31,cubo,Spanish,Sounds/spa_cubo.mp3,2020-06-08_18h15.34.774,TranslationElicitation_eng-prolific,3.2.4,MacIntel,60,5eaeeb1a716ed0081dfa8718,3.450000048,1,0,98,27,1,97
,,,,,,,,,,,,,,,,,,,,,,,,,,,,,,,,,,,,,,,,,,,,,,,,,,,31,cubo,Spanish,Sounds/spa_cubo.mp3,2020-06-08_18h15.34.774,TranslationElicitation_eng-prolific,3.2.4,MacIntel,60,5eaeeb1a716ed0081dfa8718,,1,0,98,27,1,97
,,,,,,,,,,,,,,,,,,,,,,,,,,,,,,,,,,,,,,,,,w,1.881999969,W,FALSE,,,,,,,103,zanahoria,Spanish,Sounds/spa_zanahoria.mp3,2020-06-08_18h15.34.774,TranslationElicitation_eng-prolific,3.2.4,MacIntel,60,5eaeeb1a716ed0081dfa8718,,1,0,98,97,1,97
,,,,,,,,,,,,,,,,,,,,,,,,,,,,,,,,,,,,,,,,,o,2.014999866,WO,FALSE,,,,,,,103,zanahoria,Spanish,Sounds/spa_zanahoria.mp3,2020-06-08_18h15.34.774,TranslationElicitation_eng-prolific,3.2.4,MacIntel,60,5eaeeb1a716ed0081dfa8718,,1,0,98,97,1,97
,,,,,,,,,,,,,,,,,,,,,,,,,,,,,,,,,,,,,,,,,m,2.181999922,WOM,FALSE,,,,,,,103,zanahoria,Spanish,Sounds/spa_zanahoria.mp3,2020-06-08_18h15.34.774,TranslationElicitation_eng-prolific,3.2.4,MacIntel,60,5eaeeb1a716ed0081dfa8718,,1,0,98,97,1,97
,,,,,,,,,,,,,,,,,,,,,,,,,,,,,,,,,,,,,,,,,a,2.315999985,WOMA,FALSE,,,,,,,103,zanahoria,Spanish,Sounds/spa_zanahoria.mp3,2020-06-08_18h15.34.774,TranslationElicitation_eng-prolific,3.2.4,MacIntel,60,5eaeeb1a716ed0081dfa8718,,1,0,98,97,1,97
,,,,,,,,,,,,,,,,,,,,,,,,,,,,,,,,,,,,,,,,,n,2.433999777,WOMAN,FALSE,,,,,,,103,zanahoria,Spanish,Sounds/spa_zanahoria.mp3,2020-06-08_18h15.34.774,TranslationElicitation_eng-prolific,3.2.4,MacIntel,60,5eaeeb1a716ed0081dfa8718,,1,0,98,97,1,97
,,,,,,,,,,,,,,,,,,,,,,,,,,,,,,,,,,,,,,,,,return,3.115999937,WOMAN,FALSE,,,,,,,103,zanahoria,Spanish,Sounds/spa_zanahoria.mp3,2020-06-08_18h15.34.774,TranslationElicitation_eng-prolific,3.2.4,MacIntel,60,5eaeeb1a716ed0081dfa8718,3.115999937,1,0,98,97,1,97
,,,,,,,,,,,,,,,,,,,,,,,,,,,,,,,,,,,,,,,,,,,,,,,,,,,103,zanahoria,Spanish,Sounds/spa_zanahoria.mp3,2020-06-08_18h15.34.774,TranslationElicitation_eng-prolific,3.2.4,MacIntel,60,5eaeeb1a716ed0081dfa8718,,1,0,98,97,1,97
,,,,,,,,,,,,,,,,,,,,,,,,,,,,,,,,,,,,,,,,,m,1.450000048,M,FALSE,,,,,,,62,martillo,Spanish,Sounds/spa_martillo.mp3,2020-06-08_18h15.34.774,TranslationElicitation_eng-prolific,3.2.4,MacIntel,60,5eaeeb1a716ed0081dfa8718,,1,0,98,58,1,97
,,,,,,,,,,,,,,,,,,,,,,,,,,,,,,,,,,,,,,,,,a,1.549999952,MA,FALSE,,,,,,,62,martillo,Spanish,Sounds/spa_martillo.mp3,2020-06-08_18h15.34.774,TranslationElicitation_eng-prolific,3.2.4,MacIntel,60,5eaeeb1a716ed0081dfa8718,,1,0,98,58,1,97
,,,,,,,,,,,,,,,,,,,,,,,,,,,,,,,,,,,,,,,,,r,1.75,MAR,FALSE,,,,,,,62,martillo,Spanish,Sounds/spa_martillo.mp3,2020-06-08_18h15.34.774,TranslationElicitation_eng-prolific,3.2.4,MacIntel,60,5eaeeb1a716ed0081dfa8718,,1,0,98,58,1,97
,,,,,,,,,,,,,,,,,,,,,,,,,,,,,,,,,,,,,,,,,t,1.96600008,MART,FALSE,,,,,,,62,martillo,Spanish,Sounds/spa_martillo.mp3,2020-06-08_18h15.34.774,TranslationElicitation_eng-prolific,3.2.4,MacIntel,60,5eaeeb1a716ed0081dfa8718,,1,0,98,58,1,97
,,,,,,,,,,,,,,,,,,,,,,,,,,,,,,,,,,,,,,,,,i,2.01699996,MARTI,FALSE,,,,,,,62,martillo,Spanish,Sounds/spa_martillo.mp3,2020-06-08_18h15.34.774,TranslationElicitation_eng-prolific,3.2.4,MacIntel,60,5eaeeb1a716ed0081dfa8718,,1,0,98,58,1,97
,,,,,,,,,,,,,,,,,,,,,,,,,,,,,,,,,,,,,,,,,n,2.147000074,MARTIN,FALSE,,,,,,,62,martillo,Spanish,Sounds/spa_martillo.mp3,2020-06-08_18h15.34.774,TranslationElicitation_eng-prolific,3.2.4,MacIntel,60,5eaeeb1a716ed0081dfa8718,,1,0,98,58,1,97
,,,,,,,,,,,,,,,,,,,,,,,,,,,,,,,,,,,,,,,,,i,2.249000072,MARTINI,FALSE,,,,,,,62,martillo,Spanish,Sounds/spa_martillo.mp3,2020-06-08_18h15.34.774,TranslationElicitation_eng-prolific,3.2.4,MacIntel,60,5eaeeb1a716ed0081dfa8718,,1,0,98,58,1,97
,,,,,,,,,,,,,,,,,,,,,,,,,,,,,,,,,,,,,,,,,return,2.46600008,MARTINI,FALSE,,,,,,,62,martillo,Spanish,Sounds/spa_martillo.mp3,2020-06-08_18h15.34.774,TranslationElicitation_eng-prolific,3.2.4,MacIntel,60,5eaeeb1a716ed0081dfa8718,2.46600008,1,0,98,58,1,97
,,,,,,,,,,,,,,,,,,,,,,,,,,,,,,,,,,,,,,,,,,,,,,,,,,,62,martillo,Spanish,Sounds/spa_martillo.mp3,2020-06-08_18h15.34.774,TranslationElicitation_eng-prolific,3.2.4,MacIntel,60,5eaeeb1a716ed0081dfa8718,,1,0,98,58,1,97
,,,,,,,,,,,,,,,,,,,,,,,,,,,,,,,,,,,,,,,,,b,1.68200016,B,FALSE,,,,,,,100,toro,Spanish,Sounds/spa_toro.mp3,2020-06-08_18h15.34.774,TranslationElicitation_eng-prolific,3.2.4,MacIntel,60,5eaeeb1a716ed0081dfa8718,,1,0,98,94,1,97
,,,,,,,,,,,,,,,,,,,,,,,,,,,,,,,,,,,,,,,,,e,2.33100009,BE,FALSE,,,,,,,100,toro,Spanish,Sounds/spa_toro.mp3,2020-06-08_18h15.34.774,TranslationElicitation_eng-prolific,3.2.4,MacIntel,60,5eaeeb1a716ed0081dfa8718,,1,0,98,94,1,97
,,,,,,,,,,,,,,,,,,,,,,,,,,,,,,,,,,,,,,,,,e,3.215000153,BEE,FALSE,,,,,,,100,toro,Spanish,Sounds/spa_toro.mp3,2020-06-08_18h15.34.774,TranslationElicitation_eng-prolific,3.2.4,MacIntel,60,5eaeeb1a716ed0081dfa8718,,1,0,98,94,1,97
,,,,,,,,,,,,,,,,,,,,,,,,,,,,,,,,,,,,,,,,,backspace,3.782999992,BE,TRUE,,,,,,,100,toro,Spanish,Sounds/spa_toro.mp3,2020-06-08_18h15.34.774,TranslationElicitation_eng-prolific,3.2.4,MacIntel,60,5eaeeb1a716ed0081dfa8718,,1,0,98,94,1,97
,,,,,,,,,,,,,,,,,,,,,,,,,,,,,,,,,,,,,,,,,backspace,3.982000113,B,TRUE,,,,,,,100,toro,Spanish,Sounds/spa_toro.mp3,2020-06-08_18h15.34.774,TranslationElicitation_eng-prolific,3.2.4,MacIntel,60,5eaeeb1a716ed0081dfa8718,,1,0,98,94,1,97
,,,,,,,,,,,,,,,,,,,,,,,,,,,,,,,,,,,,,,,,,backspace,4.11500001,,TRUE,,,,,,,100,toro,Spanish,Sounds/spa_toro.mp3,2020-06-08_18h15.34.774,TranslationElicitation_eng-prolific,3.2.4,MacIntel,60,5eaeeb1a716ed0081dfa8718,,1,0,98,94,1,97
,,,,,,,,,,,,,,,,,,,,,,,,,,,,,,,,,,,,,,,,,b,5.098999977,B,TRUE,,,,,,,100,toro,Spanish,Sounds/spa_toro.mp3,2020-06-08_18h15.34.774,TranslationElicitation_eng-prolific,3.2.4,MacIntel,60,5eaeeb1a716ed0081dfa8718,,1,0,98,94,1,97
,,,,,,,,,,,,,,,,,,,,,,,,,,,,,,,,,,,,,,,,,u,5.5,BU,TRUE,,,,,,,100,toro,Spanish,Sounds/spa_toro.mp3,2020-06-08_18h15.34.774,TranslationElicitation_eng-prolific,3.2.4,MacIntel,60,5eaeeb1a716ed0081dfa8718,,1,0,98,94,1,97
,,,,,,,,,,,,,,,,,,,,,,,,,,,,,,,,,,,,,,,,,l,5.784000158,BUL,TRUE,,,,,,,100,toro,Spanish,Sounds/spa_toro.mp3,2020-06-08_18h15.34.774,TranslationElicitation_eng-prolific,3.2.4,MacIntel,60,5eaeeb1a716ed0081dfa8718,,1,0,98,94,1,97
,,,,,,,,,,,,,,,,,,,,,,,,,,,,,,,,,,,,,,,,,l,5.96600008,BULL,TRUE,,,,,,,100,toro,Spanish,Sounds/spa_toro.mp3,2020-06-08_18h15.34.774,TranslationElicitation_eng-prolific,3.2.4,MacIntel,60,5eaeeb1a716ed0081dfa8718,,1,0,98,94,1,97
,,,,,,,,,,,,,,,,,,,,,,,,,,,,,,,,,,,,,,,,,return,6.082000017,BULL,TRUE,,,,,,,100,toro,Spanish,Sounds/spa_toro.mp3,2020-06-08_18h15.34.774,TranslationElicitation_eng-prolific,3.2.4,MacIntel,60,5eaeeb1a716ed0081dfa8718,6.082000017,1,0,98,94,1,97
,,,,,,,,,,,,,,,,,,,,,,,,,,,,,,,,,,,,,,,,,,,,,,,,,,,100,toro,Spanish,Sounds/spa_toro.mp3,2020-06-08_18h15.34.774,TranslationElicitation_eng-prolific,3.2.4,MacIntel,60,5eaeeb1a716ed0081dfa8718,,1,0,98,94,1,97
,,,,,,,,,,,,,,,,,,,,,,,,,,,,,,,,,,,,,,,,,t,1.463999987,T,FALSE,,,,,,,95,tenedor,Spanish,Sounds/spa_tenedor.mp3,2020-06-08_18h15.34.774,TranslationElicitation_eng-prolific,3.2.4,MacIntel,60,5eaeeb1a716ed0081dfa8718,,1,0,98,90,1,97
,,,,,,,,,,,,,,,,,,,,,,,,,,,,,,,,,,,,,,,,,n,1.799999952,TN,FALSE,,,,,,,95,tenedor,Spanish,Sounds/spa_tenedor.mp3,2020-06-08_18h15.34.774,TranslationElicitation_eng-prolific,3.2.4,MacIntel,60,5eaeeb1a716ed0081dfa8718,,1,0,98,90,1,97
,,,,,,,,,,,,,,,,,,,,,,,,,,,,,,,,,,,,,,,,,backspace,2.197999954,T,TRUE,,,,,,,95,tenedor,Spanish,Sounds/spa_tenedor.mp3,2020-06-08_18h15.34.774,TranslationElicitation_eng-prolific,3.2.4,MacIntel,60,5eaeeb1a716ed0081dfa8718,,1,0,98,90,1,97
,,,,,,,,,,,,,,,,,,,,,,,,,,,,,,,,,,,,,,,,,e,2.33100009,TE,TRUE,,,,,,,95,tenedor,Spanish,Sounds/spa_tenedor.mp3,2020-06-08_18h15.34.774,TranslationElicitation_eng-prolific,3.2.4,MacIntel,60,5eaeeb1a716ed0081dfa8718,,1,0,98,90,1,97
,,,,,,,,,,,,,,,,,,,,,,,,,,,,,,,,,,,,,,,,,n,2.648000002,TEN,TRUE,,,,,,,95,tenedor,Spanish,Sounds/spa_tenedor.mp3,2020-06-08_18h15.34.774,TranslationElicitation_eng-prolific,3.2.4,MacIntel,60,5eaeeb1a716ed0081dfa8718,,1,0,98,90,1,97
,,,,,,,,,,,,,,,,,,,,,,,,,,,,,,,,,,,,,,,,,n,2.881000042,TENN,TRUE,,,,,,,95,tenedor,Spanish,Sounds/spa_tenedor.mp3,2020-06-08_18h15.34.774,TranslationElicitation_eng-prolific,3.2.4,MacIntel,60,5eaeeb1a716ed0081dfa8718,,1,0,98,90,1,97
,,,,,,,,,,,,,,,,,,,,,,,,,,,,,,,,,,,,,,,,,i,3.030999899,TENNI,TRUE,,,,,,,95,tenedor,Spanish,Sounds/spa_tenedor.mp3,2020-06-08_18h15.34.774,TranslationElicitation_eng-prolific,3.2.4,MacIntel,60,5eaeeb1a716ed0081dfa8718,,1,0,98,90,1,97
,,,,,,,,,,,,,,,,,,,,,,,,,,,,,,,,,,,,,,,,,s,3.132999897,TENNIS,TRUE,,,,,,,95,tenedor,Spanish,Sounds/spa_tenedor.mp3,2020-06-08_18h15.34.774,TranslationElicitation_eng-prolific,3.2.4,MacIntel,60,5eaeeb1a716ed0081dfa8718,,1,0,98,90,1,97
,,,,,,,,,,,,,,,,,,,,,,,,,,,,,,,,,,,,,,,,,return,3.280999899,TENNIS,TRUE,,,,,,,95,tenedor,Spanish,Sounds/spa_tenedor.mp3,2020-06-08_18h15.34.774,TranslationElicitation_eng-prolific,3.2.4,MacIntel,60,5eaeeb1a716ed0081dfa8718,3.280999899,1,0,98,90,1,97
,,,,,,,,,,,,,,,,,,,,,,,,,,,,,,,,,,,,,,,,,,,,,,,,,,,95,tenedor,Spanish,Sounds/spa_tenedor.mp3,2020-06-08_18h15.34.774,TranslationElicitation_eng-prolific,3.2.4,MacIntel,60,5eaeeb1a716ed0081dfa8718,,1,0,98,90,1,97
,,,,,,,,,,,,,,,,,,,,,,,,,,,,,,,,,,,,,,,,,o,1.415999889,O,FALSE,,,,,,,90,pollo,Spanish,Sounds/spa_pollo.mp3,2020-06-08_18h15.34.774,TranslationElicitation_eng-prolific,3.2.4,MacIntel,60,5eaeeb1a716ed0081dfa8718,,1,0,98,85,1,97
,,,,,,,,,,,,,,,,,,,,,,,,,,,,,,,,,,,,,,,,,backspace,2.01699996,,TRUE,,,,,,,90,pollo,Spanish,Sounds/spa_pollo.mp3,2020-06-08_18h15.34.774,TranslationElicitation_eng-prolific,3.2.4,MacIntel,60,5eaeeb1a716ed0081dfa8718,,1,0,98,85,1,97
,,,,,,,,,,,,,,,,,,,,,,,,,,,,,,,,,,,,,,,,,p,2.332999945,P,TRUE,,,,,,,90,pollo,Spanish,Sounds/spa_pollo.mp3,2020-06-08_18h15.34.774,TranslationElicitation_eng-prolific,3.2.4,MacIntel,60,5eaeeb1a716ed0081dfa8718,,1,0,98,85,1,97
,,,,,,,,,,,,,,,,,,,,,,,,,,,,,,,,,,,,,,,,,o,2.482999802,PO,TRUE,,,,,,,90,pollo,Spanish,Sounds/spa_pollo.mp3,2020-06-08_18h15.34.774,TranslationElicitation_eng-prolific,3.2.4,MacIntel,60,5eaeeb1a716ed0081dfa8718,,1,0,98,85,1,97
,,,,,,,,,,,,,,,,,,,,,,,,,,,,,,,,,,,,,,,,,r,2.682999849,POR,TRUE,,,,,,,90,pollo,Spanish,Sounds/spa_pollo.mp3,2020-06-08_18h15.34.774,TranslationElicitation_eng-prolific,3.2.4,MacIntel,60,5eaeeb1a716ed0081dfa8718,,1,0,98,85,1,97
,,,,,,,,,,,,,,,,,,,,,,,,,,,,,,,,,,,,,,,,,k,2.734999895,PORK,TRUE,,,,,,,90,pollo,Spanish,Sounds/spa_pollo.mp3,2020-06-08_18h15.34.774,TranslationElicitation_eng-prolific,3.2.4,MacIntel,60,5eaeeb1a716ed0081dfa8718,,1,0,98,85,1,97
,,,,,,,,,,,,,,,,,,,,,,,,,,,,,,,,,,,,,,,,,return,2.849999905,PORK,TRUE,,,,,,,90,pollo,Spanish,Sounds/spa_pollo.mp3,2020-06-08_18h15.34.774,TranslationElicitation_eng-prolific,3.2.4,MacIntel,60,5eaeeb1a716ed0081dfa8718,2.849999905,1,0,98,85,1,97
,,,,,,,,,,,,,,,,,,,,,,,,,,,,,,,,,,,,,,,,,,,,,,,,,,,90,pollo,Spanish,Sounds/spa_pollo.mp3,2020-06-08_18h15.34.774,TranslationElicitation_eng-prolific,3.2.4,MacIntel,60,5eaeeb1a716ed0081dfa8718,,1,0,98,85,1,97
,,,,,,,,,,,,,,,,,,,,,,,,,,,,,,,,,,,,,,,,,f,2.566999912,F,FALSE,,,,,,,37,flor,Spanish,Sounds/spa_flor.mp3,2020-06-08_18h15.34.774,TranslationElicitation_eng-prolific,3.2.4,MacIntel,60,5eaeeb1a716ed0081dfa8718,,1,0,98,33,1,97
,,,,,,,,,,,,,,,,,,,,,,,,,,,,,,,,,,,,,,,,,l,2.715999842,FL,FALSE,,,,,,,37,flor,Spanish,Sounds/spa_flor.mp3,2020-06-08_18h15.34.774,TranslationElicitation_eng-prolific,3.2.4,MacIntel,60,5eaeeb1a716ed0081dfa8718,,1,0,98,33,1,97
,,,,,,,,,,,,,,,,,,,,,,,,,,,,,,,,,,,,,,,,,o,2.915999889,FLO,FALSE,,,,,,,37,flor,Spanish,Sounds/spa_flor.mp3,2020-06-08_18h15.34.774,TranslationElicitation_eng-prolific,3.2.4,MacIntel,60,5eaeeb1a716ed0081dfa8718,,1,0,98,33,1,97
,,,,,,,,,,,,,,,,,,,,,,,,,,,,,,,,,,,,,,,,,w,3.016000032,FLOW,FALSE,,,,,,,37,flor,Spanish,Sounds/spa_flor.mp3,2020-06-08_18h15.34.774,TranslationElicitation_eng-prolific,3.2.4,MacIntel,60,5eaeeb1a716ed0081dfa8718,,1,0,98,33,1,97
,,,,,,,,,,,,,,,,,,,,,,,,,,,,,,,,,,,,,,,,,e,3.148000002,FLOWE,FALSE,,,,,,,37,flor,Spanish,Sounds/spa_flor.mp3,2020-06-08_18h15.34.774,TranslationElicitation_eng-prolific,3.2.4,MacIntel,60,5eaeeb1a716ed0081dfa8718,,1,0,98,33,1,97
,,,,,,,,,,,,,,,,,,,,,,,,,,,,,,,,,,,,,,,,,r,3.348999977,FLOWER,FALSE,,,,,,,37,flor,Spanish,Sounds/spa_flor.mp3,2020-06-08_18h15.34.774,TranslationElicitation_eng-prolific,3.2.4,MacIntel,60,5eaeeb1a716ed0081dfa8718,,1,0,98,33,1,97
,,,,,,,,,,,,,,,,,,,,,,,,,,,,,,,,,,,,,,,,,s,3.582000017,FLOWERS,FALSE,,,,,,,37,flor,Spanish,Sounds/spa_flor.mp3,2020-06-08_18h15.34.774,TranslationElicitation_eng-prolific,3.2.4,MacIntel,60,5eaeeb1a716ed0081dfa8718,,1,0,98,33,1,97
,,,,,,,,,,,,,,,,,,,,,,,,,,,,,,,,,,,,,,,,,return,3.75,FLOWERS,FALSE,,,,,,,37,flor,Spanish,Sounds/spa_flor.mp3,2020-06-08_18h15.34.774,TranslationElicitation_eng-prolific,3.2.4,MacIntel,60,5eaeeb1a716ed0081dfa8718,3.75,1,0,98,33,1,97
,,,,,,,,,,,,,,,,,,,,,,,,,,,,,,,,,,,,,,,,,,,,,,,,,,,37,flor,Spanish,Sounds/spa_flor.mp3,2020-06-08_18h15.34.774,TranslationElicitation_eng-prolific,3.2.4,MacIntel,60,5eaeeb1a716ed0081dfa8718,,1,0,98,33,1,97
,,,,,,,,,,,,,,,,,,,,,,,,,,,,,,,,,,,,,,,,,b,2.151000023,B,FALSE,,,,,,,84,pie,Spanish,Sounds/spa_pie.mp3,2020-06-08_18h15.34.774,TranslationElicitation_eng-prolific,3.2.4,MacIntel,60,5eaeeb1a716ed0081dfa8718,,1,0,98,79,1,97
,,,,,,,,,,,,,,,,,,,,,,,,,,,,,,,,,,,,,,,,,e,2.25,BE,FALSE,,,,,,,84,pie,Spanish,Sounds/spa_pie.mp3,2020-06-08_18h15.34.774,TranslationElicitation_eng-prolific,3.2.4,MacIntel,60,5eaeeb1a716ed0081dfa8718,,1,0,98,79,1,97
,,,,,,,,,,,,,,,,,,,,,,,,,,,,,,,,,,,,,,,,,e,2.467000008,BEE,FALSE,,,,,,,84,pie,Spanish,Sounds/spa_pie.mp3,2020-06-08_18h15.34.774,TranslationElicitation_eng-prolific,3.2.4,MacIntel,60,5eaeeb1a716ed0081dfa8718,,1,0,98,79,1,97
,,,,,,,,,,,,,,,,,,,,,,,,,,,,,,,,,,,,,,,,,r,2.551000118,BEER,FALSE,,,,,,,84,pie,Spanish,Sounds/spa_pie.mp3,2020-06-08_18h15.34.774,TranslationElicitation_eng-prolific,3.2.4,MacIntel,60,5eaeeb1a716ed0081dfa8718,,1,0,98,79,1,97
,,,,,,,,,,,,,,,,,,,,,,,,,,,,,,,,,,,,,,,,,return,2.637000084,BEER,FALSE,,,,,,,84,pie,Spanish,Sounds/spa_pie.mp3,2020-06-08_18h15.34.774,TranslationElicitation_eng-prolific,3.2.4,MacIntel,60,5eaeeb1a716ed0081dfa8718,2.637000084,1,0,98,79,1,97
,,,,,,,,,,,,,,,,,,,,,,,,,,,,,,,,,,,,,,,,,,,,,,,,,,,84,pie,Spanish,Sounds/spa_pie.mp3,2020-06-08_18h15.34.774,TranslationElicitation_eng-prolific,3.2.4,MacIntel,60,5eaeeb1a716ed0081dfa8718,,1,0,98,79,1,97
,,,,,,,,,,,,,,,,,,,,,,,,,,,,,,,,,,,,,,,,,g,1.499000072,G,FALSE,,,,,,,43,globo,Spanish,Sounds/spa_globo.mp3,2020-06-08_18h15.34.774,TranslationElicitation_eng-prolific,3.2.4,MacIntel,60,5eaeeb1a716ed0081dfa8718,,1,0,98,39,1,97
,,,,,,,,,,,,,,,,,,,,,,,,,,,,,,,,,,,,,,,,,l,1.584000111,GL,FALSE,,,,,,,43,globo,Spanish,Sounds/spa_globo.mp3,2020-06-08_18h15.34.774,TranslationElicitation_eng-prolific,3.2.4,MacIntel,60,5eaeeb1a716ed0081dfa8718,,1,0,98,39,1,97
,,,,,,,,,,,,,,,,,,,,,,,,,,,,,,,,,,,,,,,,,o,1.768000126,GLO,FALSE,,,,,,,43,globo,Spanish,Sounds/spa_globo.mp3,2020-06-08_18h15.34.774,TranslationElicitation_eng-prolific,3.2.4,MacIntel,60,5eaeeb1a716ed0081dfa8718,,1,0,98,39,1,97
,,,,,,,,,,,,,,,,,,,,,,,,,,,,,,,,,,,,,,,,,b,1.999000072,GLOB,FALSE,,,,,,,43,globo,Spanish,Sounds/spa_globo.mp3,2020-06-08_18h15.34.774,TranslationElicitation_eng-prolific,3.2.4,MacIntel,60,5eaeeb1a716ed0081dfa8718,,1,0,98,39,1,97
,,,,,,,,,,,,,,,,,,,,,,,,,,,,,,,,,,,,,,,,,a,2.183000088,GLOBA,FALSE,,,,,,,43,globo,Spanish,Sounds/spa_globo.mp3,2020-06-08_18h15.34.774,TranslationElicitation_eng-prolific,3.2.4,MacIntel,60,5eaeeb1a716ed0081dfa8718,,1,0,98,39,1,97
,,,,,,,,,,,,,,,,,,,,,,,,,,,,,,,,,,,,,,,,,l,2.516000032,GLOBAL,FALSE,,,,,,,43,globo,Spanish,Sounds/spa_globo.mp3,2020-06-08_18h15.34.774,TranslationElicitation_eng-prolific,3.2.4,MacIntel,60,5eaeeb1a716ed0081dfa8718,,1,0,98,39,1,97
,,,,,,,,,,,,,,,,,,,,,,,,,,,,,,,,,,,,,,,,,return,2.700000048,GLOBAL,FALSE,,,,,,,43,globo,Spanish,Sounds/spa_globo.mp3,2020-06-08_18h15.34.774,TranslationElicitation_eng-prolific,3.2.4,MacIntel,60,5eaeeb1a716ed0081dfa8718,2.700000048,1,0,98,39,1,97
,,,,,,,,,,,,,,,,,,,,,,,,,,,,,,,,,,,,,,,,,,,,,,,,,,,43,globo,Spanish,Sounds/spa_globo.mp3,2020-06-08_18h15.34.774,TranslationElicitation_eng-prolific,3.2.4,MacIntel,60,5eaeeb1a716ed0081dfa8718,,1,0,98,39,1,97
,,,,,,,,,,,,,,,,,,,,,,,,,,,,,,,,,,,,,,,,,a,2.565000057,A,FALSE,,,,,,,91,puerta,Spanish,Sounds/spa_puerta.mp3,2020-06-08_18h15.34.774,TranslationElicitation_eng-prolific,3.2.4,MacIntel,60,5eaeeb1a716ed0081dfa8718,,1,0,98,86,1,97
,,,,,,,,,,,,,,,,,,,,,,,,,,,,,,,,,,,,,,,,,f,2.732000113,AF,FALSE,,,,,,,91,puerta,Spanish,Sounds/spa_puerta.mp3,2020-06-08_18h15.34.774,TranslationElicitation_eng-prolific,3.2.4,MacIntel,60,5eaeeb1a716ed0081dfa8718,,1,0,98,86,1,97
,,,,,,,,,,,,,,,,,,,,,,,,,,,,,,,,,,,,,,,,,backspace,3.299000025,A,TRUE,,,,,,,91,puerta,Spanish,Sounds/spa_puerta.mp3,2020-06-08_18h15.34.774,TranslationElicitation_eng-prolific,3.2.4,MacIntel,60,5eaeeb1a716ed0081dfa8718,,1,0,98,86,1,97
