consentKey.keys,consentKey.rt,languageL1Key.keys,languageL1Key.rt,languageL2,languageL2OralKey.keys,languageL2OralKey.rt,languageL2WrittenKey.keys,languageL2WrittenKey.rt,languageL3OralKey.keys,languageL3OralKey.rt,languageL3WrittenKey.keys,languageL3WrittenKey.rt,languageCatalanOralKey.keys,languageCatalanOralKey.rt,languageCatalanWrittenKey.keys,languageCatalanWrittenKey.rt,languageCatalanTimeKey.keys,languageCatalanTimeKey.rt,languageSpanishOralKey.keys,languageSpanishOralKey.rt,languageSpanishWrittenKey.keys,languageSpanishWrittenKey.rt,languageSpanishTimeKey.keys,languageSpanishTimeKey.rt,age,demoSexKey.keys,demoSexKey.rt,demoEducationKey.keys,demoEducationKey.rt,city,demoVisionKey.keys,demoVisionKey.rt,demoLanguageKey.keys,demoLanguageKey.rt,setupLocationKey.keys,setupLocationKey.rt,setupNoiseKey.keys,setupNoiseKey.rt,instructionsKeys.keys,instructionsKeys.rt,keyPressed,keyPressTime,inputText,error,trialsPracticeCatalan.thisRepN,trialsPracticeCatalan.thisTrialN,trialsPracticeCatalan.thisN,trialsPracticeCatalan.thisIndex,trialsPracticeCatalan.ran,trialsPracticeCatalan.order,trial_id,word,test_language,soundfile,date,expName,psychopyVersion,OS,frameRate,participant,trialOffset,trialsCatalan.thisRepN,trialsCatalan.thisTrialN,trialsCatalan.thisN,trialsCatalan.thisIndex,trialsCatalan.ran,trialsCatalan.order
space,0.661000013,e,1.329999924,,,,,,,,,,1,1.852999926,1,1.145999908,1,0.679999828,1,0.630999804,1,0.524000168,1,1.06099987,19,m,1.180000067,3,2.226999998,CHELMSFORD,y,2.469000101,n,2.128000021,1,1.349999905,1,0.398999929,space,1.122999907,j,1.199999809,J,FALSE,1,0,5,2,1,4,147,jaqueta,Catalan,Sounds/cat_jaqueta.mp3,2020-06-08_18h29.14.495,TranslationElicitation_eng-prolific,3.2.4,MacIntel,60,5eaff502f66eb1023c793616,,,,,,,
,,,,,,,,,,,,,,,,,,,,,,,,,,,,,,,,,,,,,,,,,a,1.349999905,JA,FALSE,1,0,5,2,1,4,147,jaqueta,Catalan,Sounds/cat_jaqueta.mp3,2020-06-08_18h29.14.495,TranslationElicitation_eng-prolific,3.2.4,MacIntel,60,5eaff502f66eb1023c793616,,,,,,,
,,,,,,,,,,,,,,,,,,,,,,,,,,,,,,,,,,,,,,,,,c,1.600999832,JAC,FALSE,1,0,5,2,1,4,147,jaqueta,Catalan,Sounds/cat_jaqueta.mp3,2020-06-08_18h29.14.495,TranslationElicitation_eng-prolific,3.2.4,MacIntel,60,5eaff502f66eb1023c793616,,,,,,,
,,,,,,,,,,,,,,,,,,,,,,,,,,,,,,,,,,,,,,,,,k,1.733999968,JACK,FALSE,1,0,5,2,1,4,147,jaqueta,Catalan,Sounds/cat_jaqueta.mp3,2020-06-08_18h29.14.495,TranslationElicitation_eng-prolific,3.2.4,MacIntel,60,5eaff502f66eb1023c793616,,,,,,,
,,,,,,,,,,,,,,,,,,,,,,,,,,,,,,,,,,,,,,,,,e,2.26699996,JACKE,FALSE,1,0,5,2,1,4,147,jaqueta,Catalan,Sounds/cat_jaqueta.mp3,2020-06-08_18h29.14.495,TranslationElicitation_eng-prolific,3.2.4,MacIntel,60,5eaff502f66eb1023c793616,,,,,,,
,,,,,,,,,,,,,,,,,,,,,,,,,,,,,,,,,,,,,,,,,t,2.483999968,JACKET,FALSE,1,0,5,2,1,4,147,jaqueta,Catalan,Sounds/cat_jaqueta.mp3,2020-06-08_18h29.14.495,TranslationElicitation_eng-prolific,3.2.4,MacIntel,60,5eaff502f66eb1023c793616,,,,,,,
,,,,,,,,,,,,,,,,,,,,,,,,,,,,,,,,,,,,,,,,,return,2.632999897,JACKET,FALSE,1,0,5,2,1,4,147,jaqueta,Catalan,Sounds/cat_jaqueta.mp3,2020-06-08_18h29.14.495,TranslationElicitation_eng-prolific,3.2.4,MacIntel,60,5eaff502f66eb1023c793616,2.632999897,,,,,,
,,,,,,,,,,,,,,,,,,,,,,,,,,,,,,,,,,,,,,,,,,,,,1,0,5,2,1,4,147,jaqueta,Catalan,Sounds/cat_jaqueta.mp3,2020-06-08_18h29.14.495,TranslationElicitation_eng-prolific,3.2.4,MacIntel,60,5eaff502f66eb1023c793616,,,,,,,
,,,,,,,,,,,,,,,,,,,,,,,,,,,,,,,,,,,,,,,,,n,1.881999969,N,FALSE,1,0,5,3,1,4,159,onada,Catalan,Sounds/cat_onada.mp3,2020-06-08_18h29.14.495,TranslationElicitation_eng-prolific,3.2.4,MacIntel,60,5eaff502f66eb1023c793616,,,,,,,
,,,,,,,,,,,,,,,,,,,,,,,,,,,,,,,,,,,,,,,,,u,2.082000017,NU,FALSE,1,0,5,3,1,4,159,onada,Catalan,Sounds/cat_onada.mp3,2020-06-08_18h29.14.495,TranslationElicitation_eng-prolific,3.2.4,MacIntel,60,5eaff502f66eb1023c793616,,,,,,,
,,,,,,,,,,,,,,,,,,,,,,,,,,,,,,,,,,,,,,,,,m,2.282000065,NUM,FALSE,1,0,5,3,1,4,159,onada,Catalan,Sounds/cat_onada.mp3,2020-06-08_18h29.14.495,TranslationElicitation_eng-prolific,3.2.4,MacIntel,60,5eaff502f66eb1023c793616,,,,,,,
,,,,,,,,,,,,,,,,,,,,,,,,,,,,,,,,,,,,,,,,,b,2.51699996,NUMB,FALSE,1,0,5,3,1,4,159,onada,Catalan,Sounds/cat_onada.mp3,2020-06-08_18h29.14.495,TranslationElicitation_eng-prolific,3.2.4,MacIntel,60,5eaff502f66eb1023c793616,,,,,,,
,,,,,,,,,,,,,,,,,,,,,,,,,,,,,,,,,,,,,,,,,e,2.649000168,NUMBE,FALSE,1,0,5,3,1,4,159,onada,Catalan,Sounds/cat_onada.mp3,2020-06-08_18h29.14.495,TranslationElicitation_eng-prolific,3.2.4,MacIntel,60,5eaff502f66eb1023c793616,,,,,,,
,,,,,,,,,,,,,,,,,,,,,,,,,,,,,,,,,,,,,,,,,r,2.832000017,NUMBER,FALSE,1,0,5,3,1,4,159,onada,Catalan,Sounds/cat_onada.mp3,2020-06-08_18h29.14.495,TranslationElicitation_eng-prolific,3.2.4,MacIntel,60,5eaff502f66eb1023c793616,,,,,,,
,,,,,,,,,,,,,,,,,,,,,,,,,,,,,,,,,,,,,,,,,return,2.93900013,NUMBER,FALSE,1,0,5,3,1,4,159,onada,Catalan,Sounds/cat_onada.mp3,2020-06-08_18h29.14.495,TranslationElicitation_eng-prolific,3.2.4,MacIntel,60,5eaff502f66eb1023c793616,2.93900013,,,,,,
,,,,,,,,,,,,,,,,,,,,,,,,,,,,,,,,,,,,,,,,,,,,,1,0,5,3,1,4,159,onada,Catalan,Sounds/cat_onada.mp3,2020-06-08_18h29.14.495,TranslationElicitation_eng-prolific,3.2.4,MacIntel,60,5eaff502f66eb1023c793616,,,,,,,
,,,,,,,,,,,,,,,,,,,,,,,,,,,,,,,,,,,,,,,,,c,1.548000097,C,FALSE,1,0,5,1,1,4,126,corona,Catalan,Sounds/cat_corona.mp3,2020-06-08_18h29.14.495,TranslationElicitation_eng-prolific,3.2.4,MacIntel,60,5eaff502f66eb1023c793616,,,,,,,
,,,,,,,,,,,,,,,,,,,,,,,,,,,,,,,,,,,,,,,,,r,1.765000105,CR,FALSE,1,0,5,1,1,4,126,corona,Catalan,Sounds/cat_corona.mp3,2020-06-08_18h29.14.495,TranslationElicitation_eng-prolific,3.2.4,MacIntel,60,5eaff502f66eb1023c793616,,,,,,,
,,,,,,,,,,,,,,,,,,,,,,,,,,,,,,,,,,,,,,,,,o,1.914999962,CRO,FALSE,1,0,5,1,1,4,126,corona,Catalan,Sounds/cat_corona.mp3,2020-06-08_18h29.14.495,TranslationElicitation_eng-prolific,3.2.4,MacIntel,60,5eaff502f66eb1023c793616,,,,,,,
,,,,,,,,,,,,,,,,,,,,,,,,,,,,,,,,,,,,,,,,,w,2.414999962,CROW,FALSE,1,0,5,1,1,4,126,corona,Catalan,Sounds/cat_corona.mp3,2020-06-08_18h29.14.495,TranslationElicitation_eng-prolific,3.2.4,MacIntel,60,5eaff502f66eb1023c793616,,,,,,,
,,,,,,,,,,,,,,,,,,,,,,,,,,,,,,,,,,,,,,,,,n,2.565999985,CROWN,FALSE,1,0,5,1,1,4,126,corona,Catalan,Sounds/cat_corona.mp3,2020-06-08_18h29.14.495,TranslationElicitation_eng-prolific,3.2.4,MacIntel,60,5eaff502f66eb1023c793616,,,,,,,
,,,,,,,,,,,,,,,,,,,,,,,,,,,,,,,,,,,,,,,,,return,2.848999977,CROWN,FALSE,1,0,5,1,1,4,126,corona,Catalan,Sounds/cat_corona.mp3,2020-06-08_18h29.14.495,TranslationElicitation_eng-prolific,3.2.4,MacIntel,60,5eaff502f66eb1023c793616,2.848999977,,,,,,
,,,,,,,,,,,,,,,,,,,,,,,,,,,,,,,,,,,,,,,,,,,,,1,0,5,1,1,4,126,corona,Catalan,Sounds/cat_corona.mp3,2020-06-08_18h29.14.495,TranslationElicitation_eng-prolific,3.2.4,MacIntel,60,5eaff502f66eb1023c793616,,,,,,,
,,,,,,,,,,,,,,,,,,,,,,,,,,,,,,,,,,,,,,,,,h,2.117000103,H,FALSE,1,0,5,0,1,4,109,arbre,Catalan,Sounds/cat_arbre.mp3,2020-06-08_18h29.14.495,TranslationElicitation_eng-prolific,3.2.4,MacIntel,60,5eaff502f66eb1023c793616,,,,,,,
,,,,,,,,,,,,,,,,,,,,,,,,,,,,,,,,,,,,,,,,,a,2.23300004,HA,FALSE,1,0,5,0,1,4,109,arbre,Catalan,Sounds/cat_arbre.mp3,2020-06-08_18h29.14.495,TranslationElicitation_eng-prolific,3.2.4,MacIntel,60,5eaff502f66eb1023c793616,,,,,,,
,,,,,,,,,,,,,,,,,,,,,,,,,,,,,,,,,,,,,,,,,r,2.499000072,HAR,FALSE,1,0,5,0,1,4,109,arbre,Catalan,Sounds/cat_arbre.mp3,2020-06-08_18h29.14.495,TranslationElicitation_eng-prolific,3.2.4,MacIntel,60,5eaff502f66eb1023c793616,,,,,,,
,,,,,,,,,,,,,,,,,,,,,,,,,,,,,,,,,,,,,,,,,o,2.617000103,HARO,FALSE,1,0,5,0,1,4,109,arbre,Catalan,Sounds/cat_arbre.mp3,2020-06-08_18h29.14.495,TranslationElicitation_eng-prolific,3.2.4,MacIntel,60,5eaff502f66eb1023c793616,,,,,,,
,,,,,,,,,,,,,,,,,,,,,,,,,,,,,,,,,,,,,,,,,backspace,3.117000103,HAR,TRUE,1,0,5,0,1,4,109,arbre,Catalan,Sounds/cat_arbre.mp3,2020-06-08_18h29.14.495,TranslationElicitation_eng-prolific,3.2.4,MacIntel,60,5eaff502f66eb1023c793616,,,,,,,
,,,,,,,,,,,,,,,,,,,,,,,,,,,,,,,,,,,,,,,,,b,3.549999952,HARB,TRUE,1,0,5,0,1,4,109,arbre,Catalan,Sounds/cat_arbre.mp3,2020-06-08_18h29.14.495,TranslationElicitation_eng-prolific,3.2.4,MacIntel,60,5eaff502f66eb1023c793616,,,,,,,
,,,,,,,,,,,,,,,,,,,,,,,,,,,,,,,,,,,,,,,,,o,3.71600008,HARBO,TRUE,1,0,5,0,1,4,109,arbre,Catalan,Sounds/cat_arbre.mp3,2020-06-08_18h29.14.495,TranslationElicitation_eng-prolific,3.2.4,MacIntel,60,5eaff502f66eb1023c793616,,,,,,,
,,,,,,,,,,,,,,,,,,,,,,,,,,,,,,,,,,,,,,,,,u,3.933000088,HARBOU,TRUE,1,0,5,0,1,4,109,arbre,Catalan,Sounds/cat_arbre.mp3,2020-06-08_18h29.14.495,TranslationElicitation_eng-prolific,3.2.4,MacIntel,60,5eaff502f66eb1023c793616,,,,,,,
,,,,,,,,,,,,,,,,,,,,,,,,,,,,,,,,,,,,,,,,,r,4.118000031,HARBOUR,TRUE,1,0,5,0,1,4,109,arbre,Catalan,Sounds/cat_arbre.mp3,2020-06-08_18h29.14.495,TranslationElicitation_eng-prolific,3.2.4,MacIntel,60,5eaff502f66eb1023c793616,,,,,,,
,,,,,,,,,,,,,,,,,,,,,,,,,,,,,,,,,,,,,,,,,return,4.311000109,HARBOUR,TRUE,1,0,5,0,1,4,109,arbre,Catalan,Sounds/cat_arbre.mp3,2020-06-08_18h29.14.495,TranslationElicitation_eng-prolific,3.2.4,MacIntel,60,5eaff502f66eb1023c793616,4.311000109,,,,,,
,,,,,,,,,,,,,,,,,,,,,,,,,,,,,,,,,,,,,,,,,,,,,1,0,5,0,1,4,109,arbre,Catalan,Sounds/cat_arbre.mp3,2020-06-08_18h29.14.495,TranslationElicitation_eng-prolific,3.2.4,MacIntel,60,5eaff502f66eb1023c793616,,,,,,,
,,,,,,,,,,,,,,,,,,,,,,,,,,,,,,,,,,,,,,,,,i,1.415999889,I,FALSE,1,0,5,4,1,4,179,tigre,Catalan,Sounds/cat_tigre.mp3,2020-06-08_18h29.14.495,TranslationElicitation_eng-prolific,3.2.4,MacIntel,60,5eaff502f66eb1023c793616,,,,,,,
,,,,,,,,,,,,,,,,,,,,,,,,,,,,,,,,,,,,,,,,,g,1.698999882,IG,FALSE,1,0,5,4,1,4,179,tigre,Catalan,Sounds/cat_tigre.mp3,2020-06-08_18h29.14.495,TranslationElicitation_eng-prolific,3.2.4,MacIntel,60,5eaff502f66eb1023c793616,,,,,,,
,,,,,,,,,,,,,,,,,,,,,,,,,,,,,,,,,,,,,,,,,e,1.766000032,IGE,FALSE,1,0,5,4,1,4,179,tigre,Catalan,Sounds/cat_tigre.mp3,2020-06-08_18h29.14.495,TranslationElicitation_eng-prolific,3.2.4,MacIntel,60,5eaff502f66eb1023c793616,,,,,,,
,,,,,,,,,,,,,,,,,,,,,,,,,,,,,,,,,,,,,,,,,r,1.949999809,IGER,FALSE,1,0,5,4,1,4,179,tigre,Catalan,Sounds/cat_tigre.mp3,2020-06-08_18h29.14.495,TranslationElicitation_eng-prolific,3.2.4,MacIntel,60,5eaff502f66eb1023c793616,,,,,,,
,,,,,,,,,,,,,,,,,,,,,,,,,,,,,,,,,,,,,,,,,backspace,2.5,IGE,TRUE,1,0,5,4,1,4,179,tigre,Catalan,Sounds/cat_tigre.mp3,2020-06-08_18h29.14.495,TranslationElicitation_eng-prolific,3.2.4,MacIntel,60,5eaff502f66eb1023c793616,,,,,,,
,,,,,,,,,,,,,,,,,,,,,,,,,,,,,,,,,,,,,,,,,backspace,2.699999809,IG,TRUE,1,0,5,4,1,4,179,tigre,Catalan,Sounds/cat_tigre.mp3,2020-06-08_18h29.14.495,TranslationElicitation_eng-prolific,3.2.4,MacIntel,60,5eaff502f66eb1023c793616,,,,,,,
,,,,,,,,,,,,,,,,,,,,,,,,,,,,,,,,,,,,,,,,,backspace,2.865999937,I,TRUE,1,0,5,4,1,4,179,tigre,Catalan,Sounds/cat_tigre.mp3,2020-06-08_18h29.14.495,TranslationElicitation_eng-prolific,3.2.4,MacIntel,60,5eaff502f66eb1023c793616,,,,,,,
,,,,,,,,,,,,,,,,,,,,,,,,,,,,,,,,,,,,,,,,,backspace,3.049999952,,TRUE,1,0,5,4,1,4,179,tigre,Catalan,Sounds/cat_tigre.mp3,2020-06-08_18h29.14.495,TranslationElicitation_eng-prolific,3.2.4,MacIntel,60,5eaff502f66eb1023c793616,,,,,,,
,,,,,,,,,,,,,,,,,,,,,,,,,,,,,,,,,,,,,,,,,t,3.583999872,T,TRUE,1,0,5,4,1,4,179,tigre,Catalan,Sounds/cat_tigre.mp3,2020-06-08_18h29.14.495,TranslationElicitation_eng-prolific,3.2.4,MacIntel,60,5eaff502f66eb1023c793616,,,,,,,
,,,,,,,,,,,,,,,,,,,,,,,,,,,,,,,,,,,,,,,,,i,3.682999849,TI,TRUE,1,0,5,4,1,4,179,tigre,Catalan,Sounds/cat_tigre.mp3,2020-06-08_18h29.14.495,TranslationElicitation_eng-prolific,3.2.4,MacIntel,60,5eaff502f66eb1023c793616,,,,,,,
,,,,,,,,,,,,,,,,,,,,,,,,,,,,,,,,,,,,,,,,,g,4.038999796,TIG,TRUE,1,0,5,4,1,4,179,tigre,Catalan,Sounds/cat_tigre.mp3,2020-06-08_18h29.14.495,TranslationElicitation_eng-prolific,3.2.4,MacIntel,60,5eaff502f66eb1023c793616,,,,,,,
,,,,,,,,,,,,,,,,,,,,,,,,,,,,,,,,,,,,,,,,,e,4.099999905,TIGE,TRUE,1,0,5,4,1,4,179,tigre,Catalan,Sounds/cat_tigre.mp3,2020-06-08_18h29.14.495,TranslationElicitation_eng-prolific,3.2.4,MacIntel,60,5eaff502f66eb1023c793616,,,,,,,
,,,,,,,,,,,,,,,,,,,,,,,,,,,,,,,,,,,,,,,,,r,4.266000032,TIGER,TRUE,1,0,5,4,1,4,179,tigre,Catalan,Sounds/cat_tigre.mp3,2020-06-08_18h29.14.495,TranslationElicitation_eng-prolific,3.2.4,MacIntel,60,5eaff502f66eb1023c793616,,,,,,,
,,,,,,,,,,,,,,,,,,,,,,,,,,,,,,,,,,,,,,,,,return,4.38499999,TIGER,TRUE,1,0,5,4,1,4,179,tigre,Catalan,Sounds/cat_tigre.mp3,2020-06-08_18h29.14.495,TranslationElicitation_eng-prolific,3.2.4,MacIntel,60,5eaff502f66eb1023c793616,4.38499999,,,,,,
,,,,,,,,,,,,,,,,,,,,,,,,,,,,,,,,,,,,,,,,,,,,,1,0,5,4,1,4,179,tigre,Catalan,Sounds/cat_tigre.mp3,2020-06-08_18h29.14.495,TranslationElicitation_eng-prolific,3.2.4,MacIntel,60,5eaff502f66eb1023c793616,,,,,,,
,,,,,,,,,,,,,,,,,,,,,,,,,,,,,,,,,,,,,,,,,b,1.650000095,B,FALSE,,,,,,,110,berenar,Catalan,Sounds/cat_berenar.mp3,2020-06-08_18h29.14.495,TranslationElicitation_eng-prolific,3.2.4,MacIntel,60,5eaff502f66eb1023c793616,,1,0,81,5,1,80
,,,,,,,,,,,,,,,,,,,,,,,,,,,,,,,,,,,,,,,,,a,2.01699996,BA,FALSE,,,,,,,110,berenar,Catalan,Sounds/cat_berenar.mp3,2020-06-08_18h29.14.495,TranslationElicitation_eng-prolific,3.2.4,MacIntel,60,5eaff502f66eb1023c793616,,1,0,81,5,1,80
,,,,,,,,,,,,,,,,,,,,,,,,,,,,,,,,,,,,,,,,,n,2.233999968,BAN,FALSE,,,,,,,110,berenar,Catalan,Sounds/cat_berenar.mp3,2020-06-08_18h29.14.495,TranslationElicitation_eng-prolific,3.2.4,MacIntel,60,5eaff502f66eb1023c793616,,1,0,81,5,1,80
,,,,,,,,,,,,,,,,,,,,,,,,,,,,,,,,,,,,,,,,,a,2.334000111,BANA,FALSE,,,,,,,110,berenar,Catalan,Sounds/cat_berenar.mp3,2020-06-08_18h29.14.495,TranslationElicitation_eng-prolific,3.2.4,MacIntel,60,5eaff502f66eb1023c793616,,1,0,81,5,1,80
,,,,,,,,,,,,,,,,,,,,,,,,,,,,,,,,,,,,,,,,,n,2.417000055,BANAN,FALSE,,,,,,,110,berenar,Catalan,Sounds/cat_berenar.mp3,2020-06-08_18h29.14.495,TranslationElicitation_eng-prolific,3.2.4,MacIntel,60,5eaff502f66eb1023c793616,,1,0,81,5,1,80
,,,,,,,,,,,,,,,,,,,,,,,,,,,,,,,,,,,,,,,,,a,2.51699996,BANANA,FALSE,,,,,,,110,berenar,Catalan,Sounds/cat_berenar.mp3,2020-06-08_18h29.14.495,TranslationElicitation_eng-prolific,3.2.4,MacIntel,60,5eaff502f66eb1023c793616,,1,0,81,5,1,80
,,,,,,,,,,,,,,,,,,,,,,,,,,,,,,,,,,,,,,,,,return,3.066999912,BANANA,FALSE,,,,,,,110,berenar,Catalan,Sounds/cat_berenar.mp3,2020-06-08_18h29.14.495,TranslationElicitation_eng-prolific,3.2.4,MacIntel,60,5eaff502f66eb1023c793616,3.066999912,1,0,81,5,1,80
,,,,,,,,,,,,,,,,,,,,,,,,,,,,,,,,,,,,,,,,,,,,,,,,,,,110,berenar,Catalan,Sounds/cat_berenar.mp3,2020-06-08_18h29.14.495,TranslationElicitation_eng-prolific,3.2.4,MacIntel,60,5eaff502f66eb1023c793616,,1,0,81,5,1,80
,,,,,,,,,,,,,,,,,,,,,,,,,,,,,,,,,,,,,,,,,s,1.748999834,S,FALSE,,,,,,,131,esponja,Catalan,Sounds/cat_esponja.mp3,2020-06-08_18h29.14.495,TranslationElicitation_eng-prolific,3.2.4,MacIntel,60,5eaff502f66eb1023c793616,,1,0,81,25,1,80
,,,,,,,,,,,,,,,,,,,,,,,,,,,,,,,,,,,,,,,,,p,1.898999929,SP,FALSE,,,,,,,131,esponja,Catalan,Sounds/cat_esponja.mp3,2020-06-08_18h29.14.495,TranslationElicitation_eng-prolific,3.2.4,MacIntel,60,5eaff502f66eb1023c793616,,1,0,81,25,1,80
,,,,,,,,,,,,,,,,,,,,,,,,,,,,,,,,,,,,,,,,,o,2.149999857,SPO,FALSE,,,,,,,131,esponja,Catalan,Sounds/cat_esponja.mp3,2020-06-08_18h29.14.495,TranslationElicitation_eng-prolific,3.2.4,MacIntel,60,5eaff502f66eb1023c793616,,1,0,81,25,1,80
,,,,,,,,,,,,,,,,,,,,,,,,,,,,,,,,,,,,,,,,,n,2.448999882,SPON,FALSE,,,,,,,131,esponja,Catalan,Sounds/cat_esponja.mp3,2020-06-08_18h29.14.495,TranslationElicitation_eng-prolific,3.2.4,MacIntel,60,5eaff502f66eb1023c793616,,1,0,81,25,1,80
,,,,,,,,,,,,,,,,,,,,,,,,,,,,,,,,,,,,,,,,,g,2.698999882,SPONG,FALSE,,,,,,,131,esponja,Catalan,Sounds/cat_esponja.mp3,2020-06-08_18h29.14.495,TranslationElicitation_eng-prolific,3.2.4,MacIntel,60,5eaff502f66eb1023c793616,,1,0,81,25,1,80
,,,,,,,,,,,,,,,,,,,,,,,,,,,,,,,,,,,,,,,,,e,2.931999922,SPONGE,FALSE,,,,,,,131,esponja,Catalan,Sounds/cat_esponja.mp3,2020-06-08_18h29.14.495,TranslationElicitation_eng-prolific,3.2.4,MacIntel,60,5eaff502f66eb1023c793616,,1,0,81,25,1,80
,,,,,,,,,,,,,,,,,,,,,,,,,,,,,,,,,,,,,,,,,return,3.098999977,SPONGE,FALSE,,,,,,,131,esponja,Catalan,Sounds/cat_esponja.mp3,2020-06-08_18h29.14.495,TranslationElicitation_eng-prolific,3.2.4,MacIntel,60,5eaff502f66eb1023c793616,3.098999977,1,0,81,25,1,80
,,,,,,,,,,,,,,,,,,,,,,,,,,,,,,,,,,,,,,,,,,,,,,,,,,,131,esponja,Catalan,Sounds/cat_esponja.mp3,2020-06-08_18h29.14.495,TranslationElicitation_eng-prolific,3.2.4,MacIntel,60,5eaff502f66eb1023c793616,,1,0,81,25,1,80
,,,,,,,,,,,,,,,,,,,,,,,,,,,,,,,,,,,,,,,,,j,5.868000031,J,FALSE,,,,,,,105,aigua,Catalan,Sounds/cat_aigua.mp3,2020-06-08_18h29.14.495,TranslationElicitation_eng-prolific,3.2.4,MacIntel,60,5eaff502f66eb1023c793616,,1,0,81,1,1,80
,,,,,,,,,,,,,,,,,,,,,,,,,,,,,,,,,,,,,,,,,i,6.599999905,JI,FALSE,,,,,,,105,aigua,Catalan,Sounds/cat_aigua.mp3,2020-06-08_18h29.14.495,TranslationElicitation_eng-prolific,3.2.4,MacIntel,60,5eaff502f66eb1023c793616,,1,0,81,1,1,80
,,,,,,,,,,,,,,,,,,,,,,,,,,,,,,,,,,,,,,,,,d,6.96600008,JID,FALSE,,,,,,,105,aigua,Catalan,Sounds/cat_aigua.mp3,2020-06-08_18h29.14.495,TranslationElicitation_eng-prolific,3.2.4,MacIntel,60,5eaff502f66eb1023c793616,,1,0,81,1,1,80
,,,,,,,,,,,,,,,,,,,,,,,,,,,,,,,,,,,,,,,,,i,7.082999945,JIDI,FALSE,,,,,,,105,aigua,Catalan,Sounds/cat_aigua.mp3,2020-06-08_18h29.14.495,TranslationElicitation_eng-prolific,3.2.4,MacIntel,60,5eaff502f66eb1023c793616,,1,0,81,1,1,80
,,,,,,,,,,,,,,,,,,,,,,,,,,,,,,,,,,,,,,,,,n,7.417000055,JIDIN,FALSE,,,,,,,105,aigua,Catalan,Sounds/cat_aigua.mp3,2020-06-08_18h29.14.495,TranslationElicitation_eng-prolific,3.2.4,MacIntel,60,5eaff502f66eb1023c793616,,1,0,81,1,1,80
,,,,,,,,,,,,,,,,,,,,,,,,,,,,,,,,,,,,,,,,,g,7.5,JIDING,FALSE,,,,,,,105,aigua,Catalan,Sounds/cat_aigua.mp3,2020-06-08_18h29.14.495,TranslationElicitation_eng-prolific,3.2.4,MacIntel,60,5eaff502f66eb1023c793616,,1,0,81,1,1,80
,,,,,,,,,,,,,,,,,,,,,,,,,,,,,,,,,,,,,,,,,backspace,8.200000048,JIDIN,TRUE,,,,,,,105,aigua,Catalan,Sounds/cat_aigua.mp3,2020-06-08_18h29.14.495,TranslationElicitation_eng-prolific,3.2.4,MacIntel,60,5eaff502f66eb1023c793616,,1,0,81,1,1,80
,,,,,,,,,,,,,,,,,,,,,,,,,,,,,,,,,,,,,,,,,backspace,8.399999857,JIDI,TRUE,,,,,,,105,aigua,Catalan,Sounds/cat_aigua.mp3,2020-06-08_18h29.14.495,TranslationElicitation_eng-prolific,3.2.4,MacIntel,60,5eaff502f66eb1023c793616,,1,0,81,1,1,80
,,,,,,,,,,,,,,,,,,,,,,,,,,,,,,,,,,,,,,,,,backspace,8.816999912,JID,TRUE,,,,,,,105,aigua,Catalan,Sounds/cat_aigua.mp3,2020-06-08_18h29.14.495,TranslationElicitation_eng-prolific,3.2.4,MacIntel,60,5eaff502f66eb1023c793616,,1,0,81,1,1,80
,,,,,,,,,,,,,,,,,,,,,,,,,,,,,,,,,,,,,,,,,backspace,9.032999992,JI,TRUE,,,,,,,105,aigua,Catalan,Sounds/cat_aigua.mp3,2020-06-08_18h29.14.495,TranslationElicitation_eng-prolific,3.2.4,MacIntel,60,5eaff502f66eb1023c793616,,1,0,81,1,1,80
,,,,,,,,,,,,,,,,,,,,,,,,,,,,,,,,,,,,,,,,,backspace,9.26699996,J,TRUE,,,,,,,105,aigua,Catalan,Sounds/cat_aigua.mp3,2020-06-08_18h29.14.495,TranslationElicitation_eng-prolific,3.2.4,MacIntel,60,5eaff502f66eb1023c793616,,1,0,81,1,1,80
,,,,,,,,,,,,,,,,,,,,,,,,,,,,,,,,,,,,,,,,,backspace,9.532999992,,TRUE,,,,,,,105,aigua,Catalan,Sounds/cat_aigua.mp3,2020-06-08_18h29.14.495,TranslationElicitation_eng-prolific,3.2.4,MacIntel,60,5eaff502f66eb1023c793616,,1,0,81,1,1,80
,,,,,,,,,,,,,,,,,,,,,,,,,,,,,,,,,,,,,,,,,h,10.01699996,H,TRUE,,,,,,,105,aigua,Catalan,Sounds/cat_aigua.mp3,2020-06-08_18h29.14.495,TranslationElicitation_eng-prolific,3.2.4,MacIntel,60,5eaff502f66eb1023c793616,,1,0,81,1,1,80
,,,,,,,,,,,,,,,,,,,,,,,,,,,,,,,,,,,,,,,,,i,10.21600008,HI,TRUE,,,,,,,105,aigua,Catalan,Sounds/cat_aigua.mp3,2020-06-08_18h29.14.495,TranslationElicitation_eng-prolific,3.2.4,MacIntel,60,5eaff502f66eb1023c793616,,1,0,81,1,1,80
,,,,,,,,,,,,,,,,,,,,,,,,,,,,,,,,,,,,,,,,,d,10.5,HID,TRUE,,,,,,,105,aigua,Catalan,Sounds/cat_aigua.mp3,2020-06-08_18h29.14.495,TranslationElicitation_eng-prolific,3.2.4,MacIntel,60,5eaff502f66eb1023c793616,,1,0,81,1,1,80
,,,,,,,,,,,,,,,,,,,,,,,,,,,,,,,,,,,,,,,,,i,10.56800008,HIDI,TRUE,,,,,,,105,aigua,Catalan,Sounds/cat_aigua.mp3,2020-06-08_18h29.14.495,TranslationElicitation_eng-prolific,3.2.4,MacIntel,60,5eaff502f66eb1023c793616,,1,0,81,1,1,80
,,,,,,,,,,,,,,,,,,,,,,,,,,,,,,,,,,,,,,,,,g,11.06500006,HIDIG,TRUE,,,,,,,105,aigua,Catalan,Sounds/cat_aigua.mp3,2020-06-08_18h29.14.495,TranslationElicitation_eng-prolific,3.2.4,MacIntel,60,5eaff502f66eb1023c793616,,1,0,81,1,1,80
,,,,,,,,,,,,,,,,,,,,,,,,,,,,,,,,,,,,,,,,,backspace,11.93300009,HIDI,TRUE,,,,,,,105,aigua,Catalan,Sounds/cat_aigua.mp3,2020-06-08_18h29.14.495,TranslationElicitation_eng-prolific,3.2.4,MacIntel,60,5eaff502f66eb1023c793616,,1,0,81,1,1,80
,,,,,,,,,,,,,,,,,,,,,,,,,,,,,,,,,,,,,,,,,n,12.26600003,HIDIN,TRUE,,,,,,,105,aigua,Catalan,Sounds/cat_aigua.mp3,2020-06-08_18h29.14.495,TranslationElicitation_eng-prolific,3.2.4,MacIntel,60,5eaff502f66eb1023c793616,,1,0,81,1,1,80
,,,,,,,,,,,,,,,,,,,,,,,,,,,,,,,,,,,,,,,,,g,12.74300003,HIDING,TRUE,,,,,,,105,aigua,Catalan,Sounds/cat_aigua.mp3,2020-06-08_18h29.14.495,TranslationElicitation_eng-prolific,3.2.4,MacIntel,60,5eaff502f66eb1023c793616,,1,0,81,1,1,80
,,,,,,,,,,,,,,,,,,,,,,,,,,,,,,,,,,,,,,,,,return,12.9849999,HIDING,TRUE,,,,,,,105,aigua,Catalan,Sounds/cat_aigua.mp3,2020-06-08_18h29.14.495,TranslationElicitation_eng-prolific,3.2.4,MacIntel,60,5eaff502f66eb1023c793616,12.9849999,1,0,81,1,1,80
,,,,,,,,,,,,,,,,,,,,,,,,,,,,,,,,,,,,,,,,,,,,,,,,,,,105,aigua,Catalan,Sounds/cat_aigua.mp3,2020-06-08_18h29.14.495,TranslationElicitation_eng-prolific,3.2.4,MacIntel,60,5eaff502f66eb1023c793616,,1,0,81,1,1,80
,,,,,,,,,,,,,,,,,,,,,,,,,,,,,,,,,,,,,,,,,b,32.6170001,B,FALSE,,,,,,,187,vaixell,Catalan,Sounds/cat_vaixell.mp3,2020-06-08_18h29.14.495,TranslationElicitation_eng-prolific,3.2.4,MacIntel,60,5eaff502f66eb1023c793616,,1,0,81,78,1,80
,,,,,,,,,,,,,,,,,,,,,,,,,,,,,,,,,,,,,,,,,a,32.71600008,BA,FALSE,,,,,,,187,vaixell,Catalan,Sounds/cat_vaixell.mp3,2020-06-08_18h29.14.495,TranslationElicitation_eng-prolific,3.2.4,MacIntel,60,5eaff502f66eb1023c793616,,1,0,81,78,1,80
,,,,,,,,,,,,,,,,,,,,,,,,,,,,,,,,,,,,,,,,,n,32.84899998,BAN,FALSE,,,,,,,187,vaixell,Catalan,Sounds/cat_vaixell.mp3,2020-06-08_18h29.14.495,TranslationElicitation_eng-prolific,3.2.4,MacIntel,60,5eaff502f66eb1023c793616,,1,0,81,78,1,80
,,,,,,,,,,,,,,,,,,,,,,,,,,,,,,,,,,,,,,,,,a,32.94900012,BANA,FALSE,,,,,,,187,vaixell,Catalan,Sounds/cat_vaixell.mp3,2020-06-08_18h29.14.495,TranslationElicitation_eng-prolific,3.2.4,MacIntel,60,5eaff502f66eb1023c793616,,1,0,81,78,1,80
,,,,,,,,,,,,,,,,,,,,,,,,,,,,,,,,,,,,,,,,,n,32.97000003,BANAN,FALSE,,,,,,,187,vaixell,Catalan,Sounds/cat_vaixell.mp3,2020-06-08_18h29.14.495,TranslationElicitation_eng-prolific,3.2.4,MacIntel,60,5eaff502f66eb1023c793616,,1,0,81,78,1,80
,,,,,,,,,,,,,,,,,,,,,,,,,,,,,,,,,,,,,,,,,a,33.13199997,BANANA,FALSE,,,,,,,187,vaixell,Catalan,Sounds/cat_vaixell.mp3,2020-06-08_18h29.14.495,TranslationElicitation_eng-prolific,3.2.4,MacIntel,60,5eaff502f66eb1023c793616,,1,0,81,78,1,80
,,,,,,,,,,,,,,,,,,,,,,,,,,,,,,,,,,,,,,,,,return,33.33299994,BANANA,FALSE,,,,,,,187,vaixell,Catalan,Sounds/cat_vaixell.mp3,2020-06-08_18h29.14.495,TranslationElicitation_eng-prolific,3.2.4,MacIntel,60,5eaff502f66eb1023c793616,33.33299994,1,0,81,78,1,80
,,,,,,,,,,,,,,,,,,,,,,,,,,,,,,,,,,,,,,,,,,,,,,,,,,,187,vaixell,Catalan,Sounds/cat_vaixell.mp3,2020-06-08_18h29.14.495,TranslationElicitation_eng-prolific,3.2.4,MacIntel,60,5eaff502f66eb1023c793616,,1,0,81,78,1,80
,,,,,,,,,,,,,,,,,,,,,,,,,,,,,,,,,,,,,,,,,c,1.315999985,C,FALSE,,,,,,,122,casa,Catalan,Sounds/cat_casa.mp3,2020-06-08_18h29.14.495,TranslationElicitation_eng-prolific,3.2.4,MacIntel,60,5eaff502f66eb1023c793616,,1,0,81,17,1,80
,,,,,,,,,,,,,,,,,,,,,,,,,,,,,,,,,,,,,,,,,a,1.499000072,CA,FALSE,,,,,,,122,casa,Catalan,Sounds/cat_casa.mp3,2020-06-08_18h29.14.495,TranslationElicitation_eng-prolific,3.2.4,MacIntel,60,5eaff502f66eb1023c793616,,1,0,81,17,1,80
,,,,,,,,,,,,,,,,,,,,,,,,,,,,,,,,,,,,,,,,,s,1.650000095,CAS,FALSE,,,,,,,122,casa,Catalan,Sounds/cat_casa.mp3,2020-06-08_18h29.14.495,TranslationElicitation_eng-prolific,3.2.4,MacIntel,60,5eaff502f66eb1023c793616,,1,0,81,17,1,80
,,,,,,,,,,,,,,,,,,,,,,,,,,,,,,,,,,,,,,,,,l,2.065999985,CASL,FALSE,,,,,,,122,casa,Catalan,Sounds/cat_casa.mp3,2020-06-08_18h29.14.495,TranslationElicitation_eng-prolific,3.2.4,MacIntel,60,5eaff502f66eb1023c793616,,1,0,81,17,1,80
,,,,,,,,,,,,,,,,,,,,,,,,,,,,,,,,,,,,,,,,,t,2.133000135,CASLT,FALSE,,,,,,,122,casa,Catalan,Sounds/cat_casa.mp3,2020-06-08_18h29.14.495,TranslationElicitation_eng-prolific,3.2.4,MacIntel,60,5eaff502f66eb1023c793616,,1,0,81,17,1,80
,,,,,,,,,,,,,,,,,,,,,,,,,,,,,,,,,,,,,,,,,backspace,2.598999977,CASL,TRUE,,,,,,,122,casa,Catalan,Sounds/cat_casa.mp3,2020-06-08_18h29.14.495,TranslationElicitation_eng-prolific,3.2.4,MacIntel,60,5eaff502f66eb1023c793616,,1,0,81,17,1,80
,,,,,,,,,,,,,,,,,,,,,,,,,,,,,,,,,,,,,,,,,backspace,2.815999985,CAS,TRUE,,,,,,,122,casa,Catalan,Sounds/cat_casa.mp3,2020-06-08_18h29.14.495,TranslationElicitation_eng-prolific,3.2.4,MacIntel,60,5eaff502f66eb1023c793616,,1,0,81,17,1,80
,,,,,,,,,,,,,,,,,,,,,,,,,,,,,,,,,,,,,,,,,t,3.549999952,CAST,TRUE,,,,,,,122,casa,Catalan,Sounds/cat_casa.mp3,2020-06-08_18h29.14.495,TranslationElicitation_eng-prolific,3.2.4,MacIntel,60,5eaff502f66eb1023c793616,,1,0,81,17,1,80
,,,,,,,,,,,,,,,,,,,,,,,,,,,,,,,,,,,,,,,,,l,3.792000055,CASTL,TRUE,,,,,,,122,casa,Catalan,Sounds/cat_casa.mp3,2020-06-08_18h29.14.495,TranslationElicitation_eng-prolific,3.2.4,MacIntel,60,5eaff502f66eb1023c793616,,1,0,81,17,1,80
,,,,,,,,,,,,,,,,,,,,,,,,,,,,,,,,,,,,,,,,,e,3.88499999,CASTLE,TRUE,,,,,,,122,casa,Catalan,Sounds/cat_casa.mp3,2020-06-08_18h29.14.495,TranslationElicitation_eng-prolific,3.2.4,MacIntel,60,5eaff502f66eb1023c793616,,1,0,81,17,1,80
,,,,,,,,,,,,,,,,,,,,,,,,,,,,,,,,,,,,,,,,,return,4.035000086,CASTLE,TRUE,,,,,,,122,casa,Catalan,Sounds/cat_casa.mp3,2020-06-08_18h29.14.495,TranslationElicitation_eng-prolific,3.2.4,MacIntel,60,5eaff502f66eb1023c793616,4.035000086,1,0,81,17,1,80
,,,,,,,,,,,,,,,,,,,,,,,,,,,,,,,,,,,,,,,,,,,,,,,,,,,122,casa,Catalan,Sounds/cat_casa.mp3,2020-06-08_18h29.14.495,TranslationElicitation_eng-prolific,3.2.4,MacIntel,60,5eaff502f66eb1023c793616,,1,0,81,17,1,80
,,,,,,,,,,,,,,,,,,,,,,,,,,,,,,,,,,,,,,,,,c,1.531999826,C,FALSE,,,,,,,127,cotxe,Catalan,Sounds/cat_cotxe.mp3,2020-06-08_18h29.14.495,TranslationElicitation_eng-prolific,3.2.4,MacIntel,60,5eaff502f66eb1023c793616,,1,0,81,21,1,80
,,,,,,,,,,,,,,,,,,,,,,,,,,,,,,,,,,,,,,,,,o,1.697999954,CO,FALSE,,,,,,,127,cotxe,Catalan,Sounds/cat_cotxe.mp3,2020-06-08_18h29.14.495,TranslationElicitation_eng-prolific,3.2.4,MacIntel,60,5eaff502f66eb1023c793616,,1,0,81,21,1,80
,,,,,,,,,,,,,,,,,,,,,,,,,,,,,,,,,,,,,,,,,a,1.802999973,COA,FALSE,,,,,,,127,cotxe,Catalan,Sounds/cat_cotxe.mp3,2020-06-08_18h29.14.495,TranslationElicitation_eng-prolific,3.2.4,MacIntel,60,5eaff502f66eb1023c793616,,1,0,81,21,1,80
,,,,,,,,,,,,,,,,,,,,,,,,,,,,,,,,,,,,,,,,,t,2.049999952,COAT,FALSE,,,,,,,127,cotxe,Catalan,Sounds/cat_cotxe.mp3,2020-06-08_18h29.14.495,TranslationElicitation_eng-prolific,3.2.4,MacIntel,60,5eaff502f66eb1023c793616,,1,0,81,21,1,80
,,,,,,,,,,,,,,,,,,,,,,,,,,,,,,,,,,,,,,,,,return,2.182999849,COAT,FALSE,,,,,,,127,cotxe,Catalan,Sounds/cat_cotxe.mp3,2020-06-08_18h29.14.495,TranslationElicitation_eng-prolific,3.2.4,MacIntel,60,5eaff502f66eb1023c793616,2.182999849,1,0,81,21,1,80
,,,,,,,,,,,,,,,,,,,,,,,,,,,,,,,,,,,,,,,,,,,,,,,,,,,127,cotxe,Catalan,Sounds/cat_cotxe.mp3,2020-06-08_18h29.14.495,TranslationElicitation_eng-prolific,3.2.4,MacIntel,60,5eaff502f66eb1023c793616,,1,0,81,21,1,80
,,,,,,,,,,,,,,,,,,,,,,,,,,,,,,,,,,,,,,,,,t,1.434000015,T,FALSE,,,,,,,180,tisores,Catalan,Sounds/cat_tisores.mp3,2020-06-08_18h29.14.495,TranslationElicitation_eng-prolific,3.2.4,MacIntel,60,5eaff502f66eb1023c793616,,1,0,81,71,1,80
,,,,,,,,,,,,,,,,,,,,,,,,,,,,,,,,,,,,,,,,,e,2.650000095,TE,FALSE,,,,,,,180,tisores,Catalan,Sounds/cat_tisores.mp3,2020-06-08_18h29.14.495,TranslationElicitation_eng-prolific,3.2.4,MacIntel,60,5eaff502f66eb1023c793616,,1,0,81,71,1,80
,,,,,,,,,,,,,,,,,,,,,,,,,,,,,,,,,,,,,,,,,l,2.815999985,TEL,FALSE,,,,,,,180,tisores,Catalan,Sounds/cat_tisores.mp3,2020-06-08_18h29.14.495,TranslationElicitation_eng-prolific,3.2.4,MacIntel,60,5eaff502f66eb1023c793616,,1,0,81,71,1,80
,,,,,,,,,,,,,,,,,,,,,,,,,,,,,,,,,,,,,,,,,e,3.082999945,TELE,FALSE,,,,,,,180,tisores,Catalan,Sounds/cat_tisores.mp3,2020-06-08_18h29.14.495,TranslationElicitation_eng-prolific,3.2.4,MacIntel,60,5eaff502f66eb1023c793616,,1,0,81,71,1,80
,,,,,,,,,,,,,,,,,,,,,,,,,,,,,,,,,,,,,,,,,v,3.471999884,TELEV,FALSE,,,,,,,180,tisores,Catalan,Sounds/cat_tisores.mp3,2020-06-08_18h29.14.495,TranslationElicitation_eng-prolific,3.2.4,MacIntel,60,5eaff502f66eb1023c793616,,1,0,81,71,1,80
,,,,,,,,,,,,,,,,,,,,,,,,,,,,,,,,,,,,,,,,,i,3.782999992,TELEVI,FALSE,,,,,,,180,tisores,Catalan,Sounds/cat_tisores.mp3,2020-06-08_18h29.14.495,TranslationElicitation_eng-prolific,3.2.4,MacIntel,60,5eaff502f66eb1023c793616,,1,0,81,71,1,80
,,,,,,,,,,,,,,,,,,,,,,,,,,,,,,,,,,,,,,,,,s,3.871999979,TELEVIS,FALSE,,,,,,,180,tisores,Catalan,Sounds/cat_tisores.mp3,2020-06-08_18h29.14.495,TranslationElicitation_eng-prolific,3.2.4,MacIntel,60,5eaff502f66eb1023c793616,,1,0,81,71,1,80
,,,,,,,,,,,,,,,,,,,,,,,,,,,,,,,,,,,,,,,,,o,3.967000008,TELEVISO,FALSE,,,,,,,180,tisores,Catalan,Sounds/cat_tisores.mp3,2020-06-08_18h29.14.495,TranslationElicitation_eng-prolific,3.2.4,MacIntel,60,5eaff502f66eb1023c793616,,1,0,81,71,1,80
,,,,,,,,,,,,,,,,,,,,,,,,,,,,,,,,,,,,,,,,,i,3.983999968,TELEVISOI,FALSE,,,,,,,180,tisores,Catalan,Sounds/cat_tisores.mp3,2020-06-08_18h29.14.495,TranslationElicitation_eng-prolific,3.2.4,MacIntel,60,5eaff502f66eb1023c793616,,1,0,81,71,1,80
,,,,,,,,,,,,,,,,,,,,,,,,,,,,,,,,,,,,,,,,,o,4.105000019,TELEVISOIO,FALSE,,,,,,,180,tisores,Catalan,Sounds/cat_tisores.mp3,2020-06-08_18h29.14.495,TranslationElicitation_eng-prolific,3.2.4,MacIntel,60,5eaff502f66eb1023c793616,,1,0,81,71,1,80
,,,,,,,,,,,,,,,,,,,,,,,,,,,,,,,,,,,,,,,,,n,4.351999998,TELEVISOION,FALSE,,,,,,,180,tisores,Catalan,Sounds/cat_tisores.mp3,2020-06-08_18h29.14.495,TranslationElicitation_eng-prolific,3.2.4,MacIntel,60,5eaff502f66eb1023c793616,,1,0,81,71,1,80
,,,,,,,,,,,,,,,,,,,,,,,,,,,,,,,,,,,,,,,,,return,4.650000095,TELEVISOION,FALSE,,,,,,,180,tisores,Catalan,Sounds/cat_tisores.mp3,2020-06-08_18h29.14.495,TranslationElicitation_eng-prolific,3.2.4,MacIntel,60,5eaff502f66eb1023c793616,4.650000095,1,0,81,71,1,80
,,,,,,,,,,,,,,,,,,,,,,,,,,,,,,,,,,,,,,,,,,,,,,,,,,,180,tisores,Catalan,Sounds/cat_tisores.mp3,2020-06-08_18h29.14.495,TranslationElicitation_eng-prolific,3.2.4,MacIntel,60,5eaff502f66eb1023c793616,,1,0,81,71,1,80
,,,,,,,,,,,,,,,,,,,,,,,,,,,,,,,,,,,,,,,,,n,1.515000105,N,FALSE,,,,,,,167,pingui,Catalan,Sounds/cat_pingui.mp3,2020-06-08_18h29.14.495,TranslationElicitation_eng-prolific,3.2.4,MacIntel,60,5eaff502f66eb1023c793616,,1,0,81,59,1,80
,,,,,,,,,,,,,,,,,,,,,,,,,,,,,,,,,,,,,,,,,backspace,2.042000055,,TRUE,,,,,,,167,pingui,Catalan,Sounds/cat_pingui.mp3,2020-06-08_18h29.14.495,TranslationElicitation_eng-prolific,3.2.4,MacIntel,60,5eaff502f66eb1023c793616,,1,0,81,59,1,80
,,,,,,,,,,,,,,,,,,,,,,,,,,,,,,,,,,,,,,,,,p,2.58100009,P,TRUE,,,,,,,167,pingui,Catalan,Sounds/cat_pingui.mp3,2020-06-08_18h29.14.495,TranslationElicitation_eng-prolific,3.2.4,MacIntel,60,5eaff502f66eb1023c793616,,1,0,81,59,1,80
,,,,,,,,,,,,,,,,,,,,,,,,,,,,,,,,,,,,,,,,,w,2.752000093,PW,TRUE,,,,,,,167,pingui,Catalan,Sounds/cat_pingui.mp3,2020-06-08_18h29.14.495,TranslationElicitation_eng-prolific,3.2.4,MacIntel,60,5eaff502f66eb1023c793616,,1,0,81,59,1,80
,,,,,,,,,,,,,,,,,,,,,,,,,,,,,,,,,,,,,,,,,e,2.781000137,PWE,TRUE,,,,,,,167,pingui,Catalan,Sounds/cat_pingui.mp3,2020-06-08_18h29.14.495,TranslationElicitation_eng-prolific,3.2.4,MacIntel,60,5eaff502f66eb1023c793616,,1,0,81,59,1,80
,,,,,,,,,,,,,,,,,,,,,,,,,,,,,,,,,,,,,,,,,backspace,3.34800005,PW,TRUE,,,,,,,167,pingui,Catalan,Sounds/cat_pingui.mp3,2020-06-08_18h29.14.495,TranslationElicitation_eng-prolific,3.2.4,MacIntel,60,5eaff502f66eb1023c793616,,1,0,81,59,1,80
,,,,,,,,,,,,,,,,,,,,,,,,,,,,,,,,,,,,,,,,,backspace,3.614000082,P,TRUE,,,,,,,167,pingui,Catalan,Sounds/cat_pingui.mp3,2020-06-08_18h29.14.495,TranslationElicitation_eng-prolific,3.2.4,MacIntel,60,5eaff502f66eb1023c793616,,1,0,81,59,1,80
,,,,,,,,,,,,,,,,,,,,,,,,,,,,,,,,,,,,,,,,,e,3.94900012,PE,TRUE,,,,,,,167,pingui,Catalan,Sounds/cat_pingui.mp3,2020-06-08_18h29.14.495,TranslationElicitation_eng-prolific,3.2.4,MacIntel,60,5eaff502f66eb1023c793616,,1,0,81,59,1,80
,,,,,,,,,,,,,,,,,,,,,,,,,,,,,,,,,,,,,,,,,n,4.051000118,PEN,TRUE,,,,,,,167,pingui,Catalan,Sounds/cat_pingui.mp3,2020-06-08_18h29.14.495,TranslationElicitation_eng-prolific,3.2.4,MacIntel,60,5eaff502f66eb1023c793616,,1,0,81,59,1,80
,,,,,,,,,,,,,,,,,,,,,,,,,,,,,,,,,,,,,,,,,g,4.334000111,PENG,TRUE,,,,,,,167,pingui,Catalan,Sounds/cat_pingui.mp3,2020-06-08_18h29.14.495,TranslationElicitation_eng-prolific,3.2.4,MacIntel,60,5eaff502f66eb1023c793616,,1,0,81,59,1,80
,,,,,,,,,,,,,,,,,,,,,,,,,,,,,,,,,,,,,,,,,i,4.565999985,PENGI,TRUE,,,,,,,167,pingui,Catalan,Sounds/cat_pingui.mp3,2020-06-08_18h29.14.495,TranslationElicitation_eng-prolific,3.2.4,MacIntel,60,5eaff502f66eb1023c793616,,1,0,81,59,1,80
,,,,,,,,,,,,,,,,,,,,,,,,,,,,,,,,,,,,,,,,,u,4.776000023,PENGIU,TRUE,,,,,,,167,pingui,Catalan,Sounds/cat_pingui.mp3,2020-06-08_18h29.14.495,TranslationElicitation_eng-prolific,3.2.4,MacIntel,60,5eaff502f66eb1023c793616,,1,0,81,59,1,80
,,,,,,,,,,,,,,,,,,,,,,,,,,,,,,,,,,,,,,,,,n,5,PENGIUN,TRUE,,,,,,,167,pingui,Catalan,Sounds/cat_pingui.mp3,2020-06-08_18h29.14.495,TranslationElicitation_eng-prolific,3.2.4,MacIntel,60,5eaff502f66eb1023c793616,,1,0,81,59,1,80
,,,,,,,,,,,,,,,,,,,,,,,,,,,,,,,,,,,,,,,,,return,5.299000025,PENGIUN,TRUE,,,,,,,167,pingui,Catalan,Sounds/cat_pingui.mp3,2020-06-08_18h29.14.495,TranslationElicitation_eng-prolific,3.2.4,MacIntel,60,5eaff502f66eb1023c793616,5.299000025,1,0,81,59,1,80
,,,,,,,,,,,,,,,,,,,,,,,,,,,,,,,,,,,,,,,,,,,,,,,,,,,167,pingui,Catalan,Sounds/cat_pingui.mp3,2020-06-08_18h29.14.495,TranslationElicitation_eng-prolific,3.2.4,MacIntel,60,5eaff502f66eb1023c793616,,1,0,81,59,1,80
,,,,,,,,,,,,,,,,,,,,,,,,,,,,,,,,,,,,,,,,,c,2.04700017,C,FALSE,,,,,,,128,cuc,Catalan,Sounds/cat_cuc.mp3,2020-06-08_18h29.14.495,TranslationElicitation_eng-prolific,3.2.4,MacIntel,60,5eaff502f66eb1023c793616,,1,0,81,22,1,80
,,,,,,,,,,,,,,,,,,,,,,,,,,,,,,,,,,,,,,,,,o,2.148000002,CO,FALSE,,,,,,,128,cuc,Catalan,Sounds/cat_cuc.mp3,2020-06-08_18h29.14.495,TranslationElicitation_eng-prolific,3.2.4,MacIntel,60,5eaff502f66eb1023c793616,,1,0,81,22,1,80
,,,,,,,,,,,,,,,,,,,,,,,,,,,,,,,,,,,,,,,,,o,2.265000105,COO,FALSE,,,,,,,128,cuc,Catalan,Sounds/cat_cuc.mp3,2020-06-08_18h29.14.495,TranslationElicitation_eng-prolific,3.2.4,MacIntel,60,5eaff502f66eb1023c793616,,1,0,81,22,1,80
,,,,,,,,,,,,,,,,,,,,,,,,,,,,,,,,,,,,,,,,,k,2.463999987,COOK,FALSE,,,,,,,128,cuc,Catalan,Sounds/cat_cuc.mp3,2020-06-08_18h29.14.495,TranslationElicitation_eng-prolific,3.2.4,MacIntel,60,5eaff502f66eb1023c793616,,1,0,81,22,1,80
,,,,,,,,,,,,,,,,,,,,,,,,,,,,,,,,,,,,,,,,,return,2.748000145,COOK,FALSE,,,,,,,128,cuc,Catalan,Sounds/cat_cuc.mp3,2020-06-08_18h29.14.495,TranslationElicitation_eng-prolific,3.2.4,MacIntel,60,5eaff502f66eb1023c793616,2.748000145,1,0,81,22,1,80
,,,,,,,,,,,,,,,,,,,,,,,,,,,,,,,,,,,,,,,,,,,,,,,,,,,128,cuc,Catalan,Sounds/cat_cuc.mp3,2020-06-08_18h29.14.495,TranslationElicitation_eng-prolific,3.2.4,MacIntel,60,5eaff502f66eb1023c793616,,1,0,81,22,1,80
,,,,,,,,,,,,,,,,,,,,,,,,,,,,,,,,,,,,,,,,,t,2.598999977,T,FALSE,,,,,,,181,tobogan,Catalan,Sounds/cat_tobogan.mp3,2020-06-08_18h29.14.495,TranslationElicitation_eng-prolific,3.2.4,MacIntel,60,5eaff502f66eb1023c793616,,1,0,81,72,1,80
,,,,,,,,,,,,,,,,,,,,,,,,,,,,,,,,,,,,,,,,,o,2.900000095,TO,FALSE,,,,,,,181,tobogan,Catalan,Sounds/cat_tobogan.mp3,2020-06-08_18h29.14.495,TranslationElicitation_eng-prolific,3.2.4,MacIntel,60,5eaff502f66eb1023c793616,,1,0,81,72,1,80
,,,,,,,,,,,,,,,,,,,,,,,,,,,,,,,,,,,,,,,,,b,3.188999891,TOB,FALSE,,,,,,,181,tobogan,Catalan,Sounds/cat_tobogan.mp3,2020-06-08_18h29.14.495,TranslationElicitation_eng-prolific,3.2.4,MacIntel,60,5eaff502f66eb1023c793616,,1,0,81,72,1,80
,,,,,,,,,,,,,,,,,,,,,,,,,,,,,,,,,,,,,,,,,a,3.302000046,TOBA,FALSE,,,,,,,181,tobogan,Catalan,Sounds/cat_tobogan.mp3,2020-06-08_18h29.14.495,TranslationElicitation_eng-prolific,3.2.4,MacIntel,60,5eaff502f66eb1023c793616,,1,0,81,72,1,80
,,,,,,,,,,,,,,,,,,,,,,,,,,,,,,,,,,,,,,,,,backspace,3.96600008,TOB,TRUE,,,,,,,181,tobogan,Catalan,Sounds/cat_tobogan.mp3,2020-06-08_18h29.14.495,TranslationElicitation_eng-prolific,3.2.4,MacIntel,60,5eaff502f66eb1023c793616,,1,0,81,72,1,80
,,,,,,,,,,,,,,,,,,,,,,,,,,,,,,,,,,,,,,,,,o,4.318000078,TOBO,TRUE,,,,,,,181,tobogan,Catalan,Sounds/cat_tobogan.mp3,2020-06-08_18h29.14.495,TranslationElicitation_eng-prolific,3.2.4,MacIntel,60,5eaff502f66eb1023c793616,,1,0,81,72,1,80
,,,,,,,,,,,,,,,,,,,,,,,,,,,,,,,,,,,,,,,,,g,4.601000071,TOBOG,TRUE,,,,,,,181,tobogan,Catalan,Sounds/cat_tobogan.mp3,2020-06-08_18h29.14.495,TranslationElicitation_eng-prolific,3.2.4,MacIntel,60,5eaff502f66eb1023c793616,,1,0,81,72,1,80
,,,,,,,,,,,,,,,,,,,,,,,,,,,,,,,,,,,,,,,,,a,4.71600008,TOBOGA,TRUE,,,,,,,181,tobogan,Catalan,Sounds/cat_tobogan.mp3,2020-06-08_18h29.14.495,TranslationElicitation_eng-prolific,3.2.4,MacIntel,60,5eaff502f66eb1023c793616,,1,0,81,72,1,80
,,,,,,,,,,,,,,,,,,,,,,,,,,,,,,,,,,,,,,,,,n,4.857000113,TOBOGAN,TRUE,,,,,,,181,tobogan,Catalan,Sounds/cat_tobogan.mp3,2020-06-08_18h29.14.495,TranslationElicitation_eng-prolific,3.2.4,MacIntel,60,5eaff502f66eb1023c793616,,1,0,81,72,1,80
,,,,,,,,,,,,,,,,,,,,,,,,,,,,,,,,,,,,,,,,,return,5.601999998,TOBOGAN,TRUE,,,,,,,181,tobogan,Catalan,Sounds/cat_tobogan.mp3,2020-06-08_18h29.14.495,TranslationElicitation_eng-prolific,3.2.4,MacIntel,60,5eaff502f66eb1023c793616,5.601999998,1,0,81,72,1,80
,,,,,,,,,,,,,,,,,,,,,,,,,,,,,,,,,,,,,,,,,,,,,,,,,,,181,tobogan,Catalan,Sounds/cat_tobogan.mp3,2020-06-08_18h29.14.495,TranslationElicitation_eng-prolific,3.2.4,MacIntel,60,5eaff502f66eb1023c793616,,1,0,81,72,1,80
,,,,,,,,,,,,,,,,,,,,,,,,,,,,,,,,,,,,,,,,,o,1.881999969,O,FALSE,,,,,,,185,ulleres,Catalan,Sounds/cat_ulleres.mp3,2020-06-08_18h29.14.495,TranslationElicitation_eng-prolific,3.2.4,MacIntel,60,5eaff502f66eb1023c793616,,1,0,81,76,1,80
,,,,,,,,,,,,,,,,,,,,,,,,,,,,,,,,,,,,,,,,,i,2.148999929,OI,FALSE,,,,,,,185,ulleres,Catalan,Sounds/cat_ulleres.mp3,2020-06-08_18h29.14.495,TranslationElicitation_eng-prolific,3.2.4,MacIntel,60,5eaff502f66eb1023c793616,,1,0,81,76,1,80
,,,,,,,,,,,,,,,,,,,,,,,,,,,,,,,,,,,,,,,,,l,2.398000002,OIL,FALSE,,,,,,,185,ulleres,Catalan,Sounds/cat_ulleres.mp3,2020-06-08_18h29.14.495,TranslationElicitation_eng-prolific,3.2.4,MacIntel,60,5eaff502f66eb1023c793616,,1,0,81,76,1,80
,,,,,,,,,,,,,,,,,,,,,,,,,,,,,,,,,,,,,,,,,s,2.549999952,OILS,FALSE,,,,,,,185,ulleres,Catalan,Sounds/cat_ulleres.mp3,2020-06-08_18h29.14.495,TranslationElicitation_eng-prolific,3.2.4,MacIntel,60,5eaff502f66eb1023c793616,,1,0,81,76,1,80
,,,,,,,,,,,,,,,,,,,,,,,,,,,,,,,,,,,,,,,,,return,2.865999937,OILS,FALSE,,,,,,,185,ulleres,Catalan,Sounds/cat_ulleres.mp3,2020-06-08_18h29.14.495,TranslationElicitation_eng-prolific,3.2.4,MacIntel,60,5eaff502f66eb1023c793616,2.865999937,1,0,81,76,1,80
,,,,,,,,,,,,,,,,,,,,,,,,,,,,,,,,,,,,,,,,,,,,,,,,,,,185,ulleres,Catalan,Sounds/cat_ulleres.mp3,2020-06-08_18h29.14.495,TranslationElicitation_eng-prolific,3.2.4,MacIntel,60,5eaff502f66eb1023c793616,,1,0,81,76,1,80
,,,,,,,,,,,,,,,,,,,,,,,,,,,,,,,,,,,,,,,,,g,1.973999977,G,FALSE,,,,,,,145,got,Catalan,Sounds/cat_got.mp3,2020-06-08_18h29.14.495,TranslationElicitation_eng-prolific,3.2.4,MacIntel,60,5eaff502f66eb1023c793616,,1,0,81,39,1,80
,,,,,,,,,,,,,,,,,,,,,,,,,,,,,,,,,,,,,,,,,o,2.252000093,GO,FALSE,,,,,,,145,got,Catalan,Sounds/cat_got.mp3,2020-06-08_18h29.14.495,TranslationElicitation_eng-prolific,3.2.4,MacIntel,60,5eaff502f66eb1023c793616,,1,0,81,39,1,80
,,,,,,,,,,,,,,,,,,,,,,,,,,,,,,,,,,,,,,,,,a,2.368000031,GOA,FALSE,,,,,,,145,got,Catalan,Sounds/cat_got.mp3,2020-06-08_18h29.14.495,TranslationElicitation_eng-prolific,3.2.4,MacIntel,60,5eaff502f66eb1023c793616,,1,0,81,39,1,80
,,,,,,,,,,,,,,,,,,,,,,,,,,,,,,,,,,,,,,,,,t,2.617000103,GOAT,FALSE,,,,,,,145,got,Catalan,Sounds/cat_got.mp3,2020-06-08_18h29.14.495,TranslationElicitation_eng-prolific,3.2.4,MacIntel,60,5eaff502f66eb1023c793616,,1,0,81,39,1,80
,,,,,,,,,,,,,,,,,,,,,,,,,,,,,,,,,,,,,,,,,return,2.736000061,GOAT,FALSE,,,,,,,145,got,Catalan,Sounds/cat_got.mp3,2020-06-08_18h29.14.495,TranslationElicitation_eng-prolific,3.2.4,MacIntel,60,5eaff502f66eb1023c793616,2.736000061,1,0,81,39,1,80
,,,,,,,,,,,,,,,,,,,,,,,,,,,,,,,,,,,,,,,,,,,,,,,,,,,145,got,Catalan,Sounds/cat_got.mp3,2020-06-08_18h29.14.495,TranslationElicitation_eng-prolific,3.2.4,MacIntel,60,5eaff502f66eb1023c793616,,1,0,81,39,1,80
,,,,,,,,,,,,,,,,,,,,,,,,,,,,,,,,,,,,,,,,,a,1.565999985,A,FALSE,,,,,,,132,estrella,Catalan,Sounds/cat_estrella.mp3,2020-06-08_18h29.14.495,TranslationElicitation_eng-prolific,3.2.4,MacIntel,60,5eaff502f66eb1023c793616,,1,0,81,26,1,80
,,,,,,,,,,,,,,,,,,,,,,,,,,,,,,,,,,,,,,,,,u,1.730999947,AU,FALSE,,,,,,,132,estrella,Catalan,Sounds/cat_estrella.mp3,2020-06-08_18h29.14.495,TranslationElicitation_eng-prolific,3.2.4,MacIntel,60,5eaff502f66eb1023c793616,,1,0,81,26,1,80
,,,,,,,,,,,,,,,,,,,,,,,,,,,,,,,,,,,,,,,,,s,2.302999973,AUS,FALSE,,,,,,,132,estrella,Catalan,Sounds/cat_estrella.mp3,2020-06-08_18h29.14.495,TranslationElicitation_eng-prolific,3.2.4,MacIntel,60,5eaff502f66eb1023c793616,,1,0,81,26,1,80
,,,,,,,,,,,,,,,,,,,,,,,,,,,,,,,,,,,,,,,,,t,2.476999998,AUST,FALSE,,,,,,,132,estrella,Catalan,Sounds/cat_estrella.mp3,2020-06-08_18h29.14.495,TranslationElicitation_eng-prolific,3.2.4,MacIntel,60,5eaff502f66eb1023c793616,,1,0,81,26,1,80
,,,,,,,,,,,,,,,,,,,,,,,,,,,,,,,,,,,,,,,,,r,2.565999985,AUSTR,FALSE,,,,,,,132,estrella,Catalan,Sounds/cat_estrella.mp3,2020-06-08_18h29.14.495,TranslationElicitation_eng-prolific,3.2.4,MacIntel,60,5eaff502f66eb1023c793616,,1,0,81,26,1,80
,,,,,,,,,,,,,,,,,,,,,,,,,,,,,,,,,,,,,,,,,a,2.76699996,AUSTRA,FALSE,,,,,,,132,estrella,Catalan,Sounds/cat_estrella.mp3,2020-06-08_18h29.14.495,TranslationElicitation_eng-prolific,3.2.4,MacIntel,60,5eaff502f66eb1023c793616,,1,0,81,26,1,80
,,,,,,,,,,,,,,,,,,,,,,,,,,,,,,,,,,,,,,,,,i,2.921000004,AUSTRAI,FALSE,,,,,,,132,estrella,Catalan,Sounds/cat_estrella.mp3,2020-06-08_18h29.14.495,TranslationElicitation_eng-prolific,3.2.4,MacIntel,60,5eaff502f66eb1023c793616,,1,0,81,26,1,80
,,,,,,,,,,,,,,,,,,,,,,,,,,,,,,,,,,,,,,,,,l,3.167999983,AUSTRAIL,FALSE,,,,,,,132,estrella,Catalan,Sounds/cat_estrella.mp3,2020-06-08_18h29.14.495,TranslationElicitation_eng-prolific,3.2.4,MacIntel,60,5eaff502f66eb1023c793616,,1,0,81,26,1,80
,,,,,,,,,,,,,,,,,,,,,,,,,,,,,,,,,,,,,,,,,a,3.25,AUSTRAILA,FALSE,,,,,,,132,estrella,Catalan,Sounds/cat_estrella.mp3,2020-06-08_18h29.14.495,TranslationElicitation_eng-prolific,3.2.4,MacIntel,60,5eaff502f66eb1023c793616,,1,0,81,26,1,80
,,,,,,,,,,,,,,,,,,,,,,,,,,,,,,,,,,,,,,,,,return,3.450000048,AUSTRAILA,FALSE,,,,,,,132,estrella,Catalan,Sounds/cat_estrella.mp3,2020-06-08_18h29.14.495,TranslationElicitation_eng-prolific,3.2.4,MacIntel,60,5eaff502f66eb1023c793616,3.450000048,1,0,81,26,1,80
,,,,,,,,,,,,,,,,,,,,,,,,,,,,,,,,,,,,,,,,,,,,,,,,,,,132,estrella,Catalan,Sounds/cat_estrella.mp3,2020-06-08_18h29.14.495,TranslationElicitation_eng-prolific,3.2.4,MacIntel,60,5eaff502f66eb1023c793616,,1,0,81,26,1,80
,,,,,,,,,,,,,,,,,,,,,,,,,,,,,,,,,,,,,,,,,d,1.332999945,D,FALSE,,,,,,,111,bibero,Catalan,Sounds/cat_bibero.mp3,2020-06-08_18h29.14.495,TranslationElicitation_eng-prolific,3.2.4,MacIntel,60,5eaff502f66eb1023c793616,,1,0,81,6,1,80
,,,,,,,,,,,,,,,,,,,,,,,,,,,,,,,,,,,,,,,,,r,1.515000105,DR,FALSE,,,,,,,111,bibero,Catalan,Sounds/cat_bibero.mp3,2020-06-08_18h29.14.495,TranslationElicitation_eng-prolific,3.2.4,MacIntel,60,5eaff502f66eb1023c793616,,1,0,81,6,1,80
,,,,,,,,,,,,,,,,,,,,,,,,,,,,,,,,,,,,,,,,,i,1.664999962,DRI,FALSE,,,,,,,111,bibero,Catalan,Sounds/cat_bibero.mp3,2020-06-08_18h29.14.495,TranslationElicitation_eng-prolific,3.2.4,MacIntel,60,5eaff502f66eb1023c793616,,1,0,81,6,1,80
,,,,,,,,,,,,,,,,,,,,,,,,,,,,,,,,,,,,,,,,,n,1.887000084,DRIN,FALSE,,,,,,,111,bibero,Catalan,Sounds/cat_bibero.mp3,2020-06-08_18h29.14.495,TranslationElicitation_eng-prolific,3.2.4,MacIntel,60,5eaff502f66eb1023c793616,,1,0,81,6,1,80
,,,,,,,,,,,,,,,,,,,,,,,,,,,,,,,,,,,,,,,,,k,2.099999905,DRINK,FALSE,,,,,,,111,bibero,Catalan,Sounds/cat_bibero.mp3,2020-06-08_18h29.14.495,TranslationElicitation_eng-prolific,3.2.4,MacIntel,60,5eaff502f66eb1023c793616,,1,0,81,6,1,80
,,,,,,,,,,,,,,,,,,,,,,,,,,,,,,,,,,,,,,,,,return,2.381000042,DRINK,FALSE,,,,,,,111,bibero,Catalan,Sounds/cat_bibero.mp3,2020-06-08_18h29.14.495,TranslationElicitation_eng-prolific,3.2.4,MacIntel,60,5eaff502f66eb1023c793616,2.381000042,1,0,81,6,1,80
,,,,,,,,,,,,,,,,,,,,,,,,,,,,,,,,,,,,,,,,,,,,,,,,,,,111,bibero,Catalan,Sounds/cat_bibero.mp3,2020-06-08_18h29.14.495,TranslationElicitation_eng-prolific,3.2.4,MacIntel,60,5eaff502f66eb1023c793616,,1,0,81,6,1,80
,,,,,,,,,,,,,,,,,,,,,,,,,,,,,,,,,,,,,,,,,a,1.299999952,A,FALSE,,,,,,,119,caixa,Catalan,Sounds/cat_caixa.mp3,2020-06-08_18h29.14.495,TranslationElicitation_eng-prolific,3.2.4,MacIntel,60,5eaff502f66eb1023c793616,,1,0,81,14,1,80
,,,,,,,,,,,,,,,,,,,,,,,,,,,,,,,,,,,,,,,,,backspace,2.065999985,,TRUE,,,,,,,119,caixa,Catalan,Sounds/cat_caixa.mp3,2020-06-08_18h29.14.495,TranslationElicitation_eng-prolific,3.2.4,MacIntel,60,5eaff502f66eb1023c793616,,1,0,81,14,1,80
,,,,,,,,,,,,,,,,,,,,,,,,,,,,,,,,,,,,,,,,,c,2.400000095,C,TRUE,,,,,,,119,caixa,Catalan,Sounds/cat_caixa.mp3,2020-06-08_18h29.14.495,TranslationElicitation_eng-prolific,3.2.4,MacIntel,60,5eaff502f66eb1023c793616,,1,0,81,14,1,80
,,,,,,,,,,,,,,,,,,,,,,,,,,,,,,,,,,,,,,,,,a,2.582999945,CA,TRUE,,,,,,,119,caixa,Catalan,Sounds/cat_caixa.mp3,2020-06-08_18h29.14.495,TranslationElicitation_eng-prolific,3.2.4,MacIntel,60,5eaff502f66eb1023c793616,,1,0,81,14,1,80
,,,,,,,,,,,,,,,,,,,,,,,,,,,,,,,,,,,,,,,,,h,2.736999989,CAH,TRUE,,,,,,,119,caixa,Catalan,Sounds/cat_caixa.mp3,2020-06-08_18h29.14.495,TranslationElicitation_eng-prolific,3.2.4,MacIntel,60,5eaff502f66eb1023c793616,,1,0,81,14,1,80
,,,,,,,,,,,,,,,,,,,,,,,,,,,,,,,,,,,,,,,,,s,2.753999949,CAHS,TRUE,,,,,,,119,caixa,Catalan,Sounds/cat_caixa.mp3,2020-06-08_18h29.14.495,TranslationElicitation_eng-prolific,3.2.4,MacIntel,60,5eaff502f66eb1023c793616,,1,0,81,14,1,80
,,,,,,,,,,,,,,,,,,,,,,,,,,,,,,,,,,,,,,,,,return,3.066999912,CAHS,TRUE,,,,,,,119,caixa,Catalan,Sounds/cat_caixa.mp3,2020-06-08_18h29.14.495,TranslationElicitation_eng-prolific,3.2.4,MacIntel,60,5eaff502f66eb1023c793616,3.066999912,1,0,81,14,1,80
,,,,,,,,,,,,,,,,,,,,,,,,,,,,,,,,,,,,,,,,,,,,,,,,,,,119,caixa,Catalan,Sounds/cat_caixa.mp3,2020-06-08_18h29.14.495,TranslationElicitation_eng-prolific,3.2.4,MacIntel,60,5eaff502f66eb1023c793616,,1,0,81,14,1,80
,,,,,,,,,,,,,,,,,,,,,,,,,,,,,,,,,,,,,,,,,l,1.36500001,L,FALSE,,,,,,,168,planta,Catalan,Sounds/cat_planta.mp3,2020-06-08_18h29.14.495,TranslationElicitation_eng-prolific,3.2.4,MacIntel,60,5eaff502f66eb1023c793616,,1,0,81,60,1,80
,,,,,,,,,,,,,,,,,,,,,,,,,,,,,,,,,,,,,,,,,a,1.480999947,LA,FALSE,,,,,,,168,planta,Catalan,Sounds/cat_planta.mp3,2020-06-08_18h29.14.495,TranslationElicitation_eng-prolific,3.2.4,MacIntel,60,5eaff502f66eb1023c793616,,1,0,81,60,1,80
,,,,,,,,,,,,,,,,,,,,,,,,,,,,,,,,,,,,,,,,,backspace,1.797999859,L,TRUE,,,,,,,168,planta,Catalan,Sounds/cat_planta.mp3,2020-06-08_18h29.14.495,TranslationElicitation_eng-prolific,3.2.4,MacIntel,60,5eaff502f66eb1023c793616,,1,0,81,60,1,80
,,,,,,,,,,,,,,,,,,,,,,,,,,,,,,,,,,,,,,,,,backspace,1.948999882,,TRUE,,,,,,,168,planta,Catalan,Sounds/cat_planta.mp3,2020-06-08_18h29.14.495,TranslationElicitation_eng-prolific,3.2.4,MacIntel,60,5eaff502f66eb1023c793616,,1,0,81,60,1,80
,,,,,,,,,,,,,,,,,,,,,,,,,,,,,,,,,,,,,,,,,p,2.348999977,P,TRUE,,,,,,,168,planta,Catalan,Sounds/cat_planta.mp3,2020-06-08_18h29.14.495,TranslationElicitation_eng-prolific,3.2.4,MacIntel,60,5eaff502f66eb1023c793616,,1,0,81,60,1,80
,,,,,,,,,,,,,,,,,,,,,,,,,,,,,,,,,,,,,,,,,l,2.565999985,PL,TRUE,,,,,,,168,planta,Catalan,Sounds/cat_planta.mp3,2020-06-08_18h29.14.495,TranslationElicitation_eng-prolific,3.2.4,MacIntel,60,5eaff502f66eb1023c793616,,1,0,81,60,1,80
,,,,,,,,,,,,,,,,,,,,,,,,,,,,,,,,,,,,,,,,,a,2.665999889,PLA,TRUE,,,,,,,168,planta,Catalan,Sounds/cat_planta.mp3,2020-06-08_18h29.14.495,TranslationElicitation_eng-prolific,3.2.4,MacIntel,60,5eaff502f66eb1023c793616,,1,0,81,60,1,80
,,,,,,,,,,,,,,,,,,,,,,,,,,,,,,,,,,,,,,,,,n,2.947999954,PLAN,TRUE,,,,,,,168,planta,Catalan,Sounds/cat_planta.mp3,2020-06-08_18h29.14.495,TranslationElicitation_eng-prolific,3.2.4,MacIntel,60,5eaff502f66eb1023c793616,,1,0,81,60,1,80
,,,,,,,,,,,,,,,,,,,,,,,,,,,,,,,,,,,,,,,,,t,3.098999977,PLANT,TRUE,,,,,,,168,planta,Catalan,Sounds/cat_planta.mp3,2020-06-08_18h29.14.495,TranslationElicitation_eng-prolific,3.2.4,MacIntel,60,5eaff502f66eb1023c793616,,1,0,81,60,1,80
,,,,,,,,,,,,,,,,,,,,,,,,,,,,,,,,,,,,,,,,,return,3.677999973,PLANT,TRUE,,,,,,,168,planta,Catalan,Sounds/cat_planta.mp3,2020-06-08_18h29.14.495,TranslationElicitation_eng-prolific,3.2.4,MacIntel,60,5eaff502f66eb1023c793616,3.677999973,1,0,81,60,1,80
,,,,,,,,,,,,,,,,,,,,,,,,,,,,,,,,,,,,,,,,,,,,,,,,,,,168,planta,Catalan,Sounds/cat_planta.mp3,2020-06-08_18h29.14.495,TranslationElicitation_eng-prolific,3.2.4,MacIntel,60,5eaff502f66eb1023c793616,,1,0,81,60,1,80
,,,,,,,,,,,,,,,,,,,,,,,,,,,,,,,,,,,,,,,,,f,2.48300004,F,FALSE,,,,,,,135,formiga,Catalan,Sounds/cat_formiga.mp3,2020-06-08_18h29.14.495,TranslationElicitation_eng-prolific,3.2.4,MacIntel,60,5eaff502f66eb1023c793616,,1,0,81,29,1,80
,,,,,,,,,,,,,,,,,,,,,,,,,,,,,,,,,,,,,,,,,e,2.69900012,FE,FALSE,,,,,,,135,formiga,Catalan,Sounds/cat_formiga.mp3,2020-06-08_18h29.14.495,TranslationElicitation_eng-prolific,3.2.4,MacIntel,60,5eaff502f66eb1023c793616,,1,0,81,29,1,80
,,,,,,,,,,,,,,,,,,,,,,,,,,,,,,,,,,,,,,,,,r,2.888999939,FER,FALSE,,,,,,,135,formiga,Catalan,Sounds/cat_formiga.mp3,2020-06-08_18h29.14.495,TranslationElicitation_eng-prolific,3.2.4,MacIntel,60,5eaff502f66eb1023c793616,,1,0,81,29,1,80
,,,,,,,,,,,,,,,,,,,,,,,,,,,,,,,,,,,,,,,,,m,3.148999929,FERM,FALSE,,,,,,,135,formiga,Catalan,Sounds/cat_formiga.mp3,2020-06-08_18h29.14.495,TranslationElicitation_eng-prolific,3.2.4,MacIntel,60,5eaff502f66eb1023c793616,,1,0,81,29,1,80
,,,,,,,,,,,,,,,,,,,,,,,,,,,,,,,,,,,,,,,,,e,3.256999969,FERME,FALSE,,,,,,,135,formiga,Catalan,Sounds/cat_formiga.mp3,2020-06-08_18h29.14.495,TranslationElicitation_eng-prolific,3.2.4,MacIntel,60,5eaff502f66eb1023c793616,,1,0,81,29,1,80
,,,,,,,,,,,,,,,,,,,,,,,,,,,,,,,,,,,,,,,,,n,3.367000103,FERMEN,FALSE,,,,,,,135,formiga,Catalan,Sounds/cat_formiga.mp3,2020-06-08_18h29.14.495,TranslationElicitation_eng-prolific,3.2.4,MacIntel,60,5eaff502f66eb1023c793616,,1,0,81,29,1,80
,,,,,,,,,,,,,,,,,,,,,,,,,,,,,,,,,,,,,,,,,t,3.467000008,FERMENT,FALSE,,,,,,,135,formiga,Catalan,Sounds/cat_formiga.mp3,2020-06-08_18h29.14.495,TranslationElicitation_eng-prolific,3.2.4,MacIntel,60,5eaff502f66eb1023c793616,,1,0,81,29,1,80
,,,,,,,,,,,,,,,,,,,,,,,,,,,,,,,,,,,,,,,,,return,3.71600008,FERMENT,FALSE,,,,,,,135,formiga,Catalan,Sounds/cat_formiga.mp3,2020-06-08_18h29.14.495,TranslationElicitation_eng-prolific,3.2.4,MacIntel,60,5eaff502f66eb1023c793616,3.71600008,1,0,81,29,1,80
,,,,,,,,,,,,,,,,,,,,,,,,,,,,,,,,,,,,,,,,,,,,,,,,,,,135,formiga,Catalan,Sounds/cat_formiga.mp3,2020-06-08_18h29.14.495,TranslationElicitation_eng-prolific,3.2.4,MacIntel,60,5eaff502f66eb1023c793616,,1,0,81,29,1,80
,,,,,,,,,,,,,,,,,,,,,,,,,,,,,,,,,,,,,,,,,m,1.315999985,M,FALSE,,,,,,,155,moneda,Catalan,Sounds/cat_moneda.mp3,2020-06-08_18h29.14.495,TranslationElicitation_eng-prolific,3.2.4,MacIntel,60,5eaff502f66eb1023c793616,,1,0,81,48,1,80
,,,,,,,,,,,,,,,,,,,,,,,,,,,,,,,,,,,,,,,,,o,1.516000032,MO,FALSE,,,,,,,155,moneda,Catalan,Sounds/cat_moneda.mp3,2020-06-08_18h29.14.495,TranslationElicitation_eng-prolific,3.2.4,MacIntel,60,5eaff502f66eb1023c793616,,1,0,81,48,1,80
,,,,,,,,,,,,,,,,,,,,,,,,,,,,,,,,,,,,,,,,,n,1.749000072,MON,FALSE,,,,,,,155,moneda,Catalan,Sounds/cat_moneda.mp3,2020-06-08_18h29.14.495,TranslationElicitation_eng-prolific,3.2.4,MacIntel,60,5eaff502f66eb1023c793616,,1,0,81,48,1,80
,,,,,,,,,,,,,,,,,,,,,,,,,,,,,,,,,,,,,,,,,e,1.832999945,MONE,FALSE,,,,,,,155,moneda,Catalan,Sounds/cat_moneda.mp3,2020-06-08_18h29.14.495,TranslationElicitation_eng-prolific,3.2.4,MacIntel,60,5eaff502f66eb1023c793616,,1,0,81,48,1,80
,,,,,,,,,,,,,,,,,,,,,,,,,,,,,,,,,,,,,,,,,y,1.959000111,MONEY,FALSE,,,,,,,155,moneda,Catalan,Sounds/cat_moneda.mp3,2020-06-08_18h29.14.495,TranslationElicitation_eng-prolific,3.2.4,MacIntel,60,5eaff502f66eb1023c793616,,1,0,81,48,1,80
,,,,,,,,,,,,,,,,,,,,,,,,,,,,,,,,,,,,,,,,,return,2.305999994,MONEY,FALSE,,,,,,,155,moneda,Catalan,Sounds/cat_moneda.mp3,2020-06-08_18h29.14.495,TranslationElicitation_eng-prolific,3.2.4,MacIntel,60,5eaff502f66eb1023c793616,2.305999994,1,0,81,48,1,80
,,,,,,,,,,,,,,,,,,,,,,,,,,,,,,,,,,,,,,,,,,,,,,,,,,,155,moneda,Catalan,Sounds/cat_moneda.mp3,2020-06-08_18h29.14.495,TranslationElicitation_eng-prolific,3.2.4,MacIntel,60,5eaff502f66eb1023c793616,,1,0,81,48,1,80
,,,,,,,,,,,,,,,,,,,,,,,,,,,,,,,,,,,,,,,,,c,1.833000183,C,FALSE,,,,,,,174,porta,Catalan,Sounds/cat_porta.mp3,2020-06-08_18h29.14.495,TranslationElicitation_eng-prolific,3.2.4,MacIntel,60,5eaff502f66eb1023c793616,,1,0,81,66,1,80
,,,,,,,,,,,,,,,,,,,,,,,,,,,,,,,,,,,,,,,,,a,2.037000179,CA,FALSE,,,,,,,174,porta,Catalan,Sounds/cat_porta.mp3,2020-06-08_18h29.14.495,TranslationElicitation_eng-prolific,3.2.4,MacIntel,60,5eaff502f66eb1023c793616,,1,0,81,66,1,80
,,,,,,,,,,,,,,,,,,,,,,,,,,,,,,,,,,,,,,,,,r,2.25,CAR,FALSE,,,,,,,174,porta,Catalan,Sounds/cat_porta.mp3,2020-06-08_18h29.14.495,TranslationElicitation_eng-prolific,3.2.4,MacIntel,60,5eaff502f66eb1023c793616,,1,0,81,66,1,80
,,,,,,,,,,,,,,,,,,,,,,,,,,,,,,,,,,,,,,,,,r,2.39199996,CARR,FALSE,,,,,,,174,porta,Catalan,Sounds/cat_porta.mp3,2020-06-08_18h29.14.495,TranslationElicitation_eng-prolific,3.2.4,MacIntel,60,5eaff502f66eb1023c793616,,1,0,81,66,1,80
,,,,,,,,,,,,,,,,,,,,,,,,,,,,,,,,,,,,,,,,,y,2.516000032,CARRY,FALSE,,,,,,,174,porta,Catalan,Sounds/cat_porta.mp3,2020-06-08_18h29.14.495,TranslationElicitation_eng-prolific,3.2.4,MacIntel,60,5eaff502f66eb1023c793616,,1,0,81,66,1,80
,,,,,,,,,,,,,,,,,,,,,,,,,,,,,,,,,,,,,,,,,return,2.968000174,CARRY,FALSE,,,,,,,174,porta,Catalan,Sounds/cat_porta.mp3,2020-06-08_18h29.14.495,TranslationElicitation_eng-prolific,3.2.4,MacIntel,60,5eaff502f66eb1023c793616,2.968000174,1,0,81,66,1,80
,,,,,,,,,,,,,,,,,,,,,,,,,,,,,,,,,,,,,,,,,,,,,,,,,,,174,porta,Catalan,Sounds/cat_porta.mp3,2020-06-08_18h29.14.495,TranslationElicitation_eng-prolific,3.2.4,MacIntel,60,5eaff502f66eb1023c793616,,1,0,81,66,1,80
,,,,,,,,,,,,,,,,,,,,,,,,,,,,,,,,,,,,,,,,,m,2.532999992,M,FALSE,,,,,,,152,ma,Catalan,Sounds/cat_ma.mp3,2020-06-08_18h29.14.495,TranslationElicitation_eng-prolific,3.2.4,MacIntel,60,5eaff502f66eb1023c793616,,1,0,81,45,1,80
,,,,,,,,,,,,,,,,,,,,,,,,,,,,,,,,,,,,,,,,,o,2.71600008,MO,FALSE,,,,,,,152,ma,Catalan,Sounds/cat_ma.mp3,2020-06-08_18h29.14.495,TranslationElicitation_eng-prolific,3.2.4,MacIntel,60,5eaff502f66eb1023c793616,,1,0,81,45,1,80
,,,,,,,,,,,,,,,,,,,,,,,,,,,,,,,,,,,,,,,,,t,3.016000032,MOT,FALSE,,,,,,,152,ma,Catalan,Sounds/cat_ma.mp3,2020-06-08_18h29.14.495,TranslationElicitation_eng-prolific,3.2.4,MacIntel,60,5eaff502f66eb1023c793616,,1,0,81,45,1,80
,,,,,,,,,,,,,,,,,,,,,,,,,,,,,,,,,,,,,,,,,h,3.19900012,MOTH,FALSE,,,,,,,152,ma,Catalan,Sounds/cat_ma.mp3,2020-06-08_18h29.14.495,TranslationElicitation_eng-prolific,3.2.4,MacIntel,60,5eaff502f66eb1023c793616,,1,0,81,45,1,80
,,,,,,,,,,,,,,,,,,,,,,,,,,,,,,,,,,,,,,,,,e,3.271000147,MOTHE,FALSE,,,,,,,152,ma,Catalan,Sounds/cat_ma.mp3,2020-06-08_18h29.14.495,TranslationElicitation_eng-prolific,3.2.4,MacIntel,60,5eaff502f66eb1023c793616,,1,0,81,45,1,80
,,,,,,,,,,,,,,,,,,,,,,,,,,,,,,,,,,,,,,,,,r,3.44900012,MOTHER,FALSE,,,,,,,152,ma,Catalan,Sounds/cat_ma.mp3,2020-06-08_18h29.14.495,TranslationElicitation_eng-prolific,3.2.4,MacIntel,60,5eaff502f66eb1023c793616,,1,0,81,45,1,80
,,,,,,,,,,,,,,,,,,,,,,,,,,,,,,,,,,,,,,,,,return,3.570000172,MOTHER,FALSE,,,,,,,152,ma,Catalan,Sounds/cat_ma.mp3,2020-06-08_18h29.14.495,TranslationElicitation_eng-prolific,3.2.4,MacIntel,60,5eaff502f66eb1023c793616,3.570000172,1,0,81,45,1,80
,,,,,,,,,,,,,,,,,,,,,,,,,,,,,,,,,,,,,,,,,,,,,,,,,,,152,ma,Catalan,Sounds/cat_ma.mp3,2020-06-08_18h29.14.495,TranslationElicitation_eng-prolific,3.2.4,MacIntel,60,5eaff502f66eb1023c793616,,1,0,81,45,1,80
,,,,,,,,,,,,,,,,,,,,,,,,,,,,,,,,,,,,,,,,,b,1.747999907,B,FALSE,,,,,,,114,bol,Catalan,Sounds/cat_bol.mp3,2020-06-08_18h29.14.495,TranslationElicitation_eng-prolific,3.2.4,MacIntel,60,5eaff502f66eb1023c793616,,1,0,81,9,1,80
,,,,,,,,,,,,,,,,,,,,,,,,,,,,,,,,,,,,,,,,,a,1.999000072,BA,FALSE,,,,,,,114,bol,Catalan,Sounds/cat_bol.mp3,2020-06-08_18h29.14.495,TranslationElicitation_eng-prolific,3.2.4,MacIntel,60,5eaff502f66eb1023c793616,,1,0,81,9,1,80
,,,,,,,,,,,,,,,,,,,,,,,,,,,,,,,,,,,,,,,,,l,2.131000042,BAL,FALSE,,,,,,,114,bol,Catalan,Sounds/cat_bol.mp3,2020-06-08_18h29.14.495,TranslationElicitation_eng-prolific,3.2.4,MacIntel,60,5eaff502f66eb1023c793616,,1,0,81,9,1,80
,,,,,,,,,,,,,,,,,,,,,,,,,,,,,,,,,,,,,,,,,l,2.254999876,BALL,FALSE,,,,,,,114,bol,Catalan,Sounds/cat_bol.mp3,2020-06-08_18h29.14.495,TranslationElicitation_eng-prolific,3.2.4,MacIntel,60,5eaff502f66eb1023c793616,,1,0,81,9,1,80
,,,,,,,,,,,,,,,,,,,,,,,,,,,,,,,,,,,,,,,,,return,2.464999914,BALL,FALSE,,,,,,,114,bol,Catalan,Sounds/cat_bol.mp3,2020-06-08_18h29.14.495,TranslationElicitation_eng-prolific,3.2.4,MacIntel,60,5eaff502f66eb1023c793616,2.464999914,1,0,81,9,1,80
,,,,,,,,,,,,,,,,,,,,,,,,,,,,,,,,,,,,,,,,,,,,,,,,,,,114,bol,Catalan,Sounds/cat_bol.mp3,2020-06-08_18h29.14.495,TranslationElicitation_eng-prolific,3.2.4,MacIntel,60,5eaff502f66eb1023c793616,,1,0,81,9,1,80
,,,,,,,,,,,,,,,,,,,,,,,,,,,,,,,,,,,,,,,,,b,2,B,FALSE,,,,,,,113,boca,Catalan,Sounds/cat_boca.mp3,2020-06-08_18h29.14.495,TranslationElicitation_eng-prolific,3.2.4,MacIntel,60,5eaff502f66eb1023c793616,,1,0,81,8,1,80
,,,,,,,,,,,,,,,,,,,,,,,,,,,,,,,,,,,,,,,,,o,2.184000015,BO,FALSE,,,,,,,113,boca,Catalan,Sounds/cat_boca.mp3,2020-06-08_18h29.14.495,TranslationElicitation_eng-prolific,3.2.4,MacIntel,60,5eaff502f66eb1023c793616,,1,0,81,8,1,80
,,,,,,,,,,,,,,,,,,,,,,,,,,,,,,,,,,,,,,,,,o,2.335000038,BOO,FALSE,,,,,,,113,boca,Catalan,Sounds/cat_boca.mp3,2020-06-08_18h29.14.495,TranslationElicitation_eng-prolific,3.2.4,MacIntel,60,5eaff502f66eb1023c793616,,1,0,81,8,1,80
,,,,,,,,,,,,,,,,,,,,,,,,,,,,,,,,,,,,,,,,,k,2.584000111,BOOK,FALSE,,,,,,,113,boca,Catalan,Sounds/cat_boca.mp3,2020-06-08_18h29.14.495,TranslationElicitation_eng-prolific,3.2.4,MacIntel,60,5eaff502f66eb1023c793616,,1,0,81,8,1,80
,,,,,,,,,,,,,,,,,,,,,,,,,,,,,,,,,,,,,,,,,return,3.085000038,BOOK,FALSE,,,,,,,113,boca,Catalan,Sounds/cat_boca.mp3,2020-06-08_18h29.14.495,TranslationElicitation_eng-prolific,3.2.4,MacIntel,60,5eaff502f66eb1023c793616,3.085000038,1,0,81,8,1,80
,,,,,,,,,,,,,,,,,,,,,,,,,,,,,,,,,,,,,,,,,,,,,,,,,,,113,boca,Catalan,Sounds/cat_boca.mp3,2020-06-08_18h29.14.495,TranslationElicitation_eng-prolific,3.2.4,MacIntel,60,5eaff502f66eb1023c793616,,1,0,81,8,1,80
,,,,,,,,,,,,,,,,,,,,,,,,,,,,,,,,,,,,,,,,,p,2.215999842,P,FALSE,,,,,,,162,pa,Catalan,Sounds/cat_pa.mp3,2020-06-08_18h29.14.495,TranslationElicitation_eng-prolific,3.2.4,MacIntel,60,5eaff502f66eb1023c793616,,1,0,81,54,1,80
,,,,,,,,,,,,,,,,,,,,,,,,,,,,,,,,,,,,,,,,,a,2.348999977,PA,FALSE,,,,,,,162,pa,Catalan,Sounds/cat_pa.mp3,2020-06-08_18h29.14.495,TranslationElicitation_eng-prolific,3.2.4,MacIntel,60,5eaff502f66eb1023c793616,,1,0,81,54,1,80
,,,,,,,,,,,,,,,,,,,,,,,,,,,,,,,,,,,,,,,,,n,2.516000032,PAN,FALSE,,,,,,,162,pa,Catalan,Sounds/cat_pa.mp3,2020-06-08_18h29.14.495,TranslationElicitation_eng-prolific,3.2.4,MacIntel,60,5eaff502f66eb1023c793616,,1,0,81,54,1,80
,,,,,,,,,,,,,,,,,,,,,,,,,,,,,,,,,,,,,,,,,return,2.815000057,PAN,FALSE,,,,,,,162,pa,Catalan,Sounds/cat_pa.mp3,2020-06-08_18h29.14.495,TranslationElicitation_eng-prolific,3.2.4,MacIntel,60,5eaff502f66eb1023c793616,2.815000057,1,0,81,54,1,80
,,,,,,,,,,,,,,,,,,,,,,,,,,,,,,,,,,,,,,,,,,,,,,,,,,,162,pa,Catalan,Sounds/cat_pa.mp3,2020-06-08_18h29.14.495,TranslationElicitation_eng-prolific,3.2.4,MacIntel,60,5eaff502f66eb1023c793616,,1,0,81,54,1,80
,,,,,,,,,,,,,,,,,,,,,,,,,,,,,,,,,,,,,,,,,s,2.365999937,S,FALSE,,,,,,,141,gerd,Catalan,Sounds/cat_gerd.mp3,2020-06-08_18h29.14.495,TranslationElicitation_eng-prolific,3.2.4,MacIntel,60,5eaff502f66eb1023c793616,,1,0,81,35,1,80
,,,,,,,,,,,,,,,,,,,,,,,,,,,,,,,,,,,,,,,,,h,2.516000032,SH,FALSE,,,,,,,141,gerd,Catalan,Sounds/cat_gerd.mp3,2020-06-08_18h29.14.495,TranslationElicitation_eng-prolific,3.2.4,MacIntel,60,5eaff502f66eb1023c793616,,1,0,81,35,1,80
,,,,,,,,,,,,,,,,,,,,,,,,,,,,,,,,,,,,,,,,,a,2.582000017,SHA,FALSE,,,,,,,141,gerd,Catalan,Sounds/cat_gerd.mp3,2020-06-08_18h29.14.495,TranslationElicitation_eng-prolific,3.2.4,MacIntel,60,5eaff502f66eb1023c793616,,1,0,81,35,1,80
,,,,,,,,,,,,,,,,,,,,,,,,,,,,,,,,,,,,,,,,,r,2.782000065,SHAR,FALSE,,,,,,,141,gerd,Catalan,Sounds/cat_gerd.mp3,2020-06-08_18h29.14.495,TranslationElicitation_eng-prolific,3.2.4,MacIntel,60,5eaff502f66eb1023c793616,,1,0,81,35,1,80
,,,,,,,,,,,,,,,,,,,,,,,,,,,,,,,,,,,,,,,,,e,2.953999996,SHARE,FALSE,,,,,,,141,gerd,Catalan,Sounds/cat_gerd.mp3,2020-06-08_18h29.14.495,TranslationElicitation_eng-prolific,3.2.4,MacIntel,60,5eaff502f66eb1023c793616,,1,0,81,35,1,80
,,,,,,,,,,,,,,,,,,,,,,,,,,,,,,,,,,,,,,,,,return,3.039999962,SHARE,FALSE,,,,,,,141,gerd,Catalan,Sounds/cat_gerd.mp3,2020-06-08_18h29.14.495,TranslationElicitation_eng-prolific,3.2.4,MacIntel,60,5eaff502f66eb1023c793616,3.039999962,1,0,81,35,1,80
,,,,,,,,,,,,,,,,,,,,,,,,,,,,,,,,,,,,,,,,,,,,,,,,,,,141,gerd,Catalan,Sounds/cat_gerd.mp3,2020-06-08_18h29.14.495,TranslationElicitation_eng-prolific,3.2.4,MacIntel,60,5eaff502f66eb1023c793616,,1,0,81,35,1,80
,,,,,,,,,,,,,,,,,,,,,,,,,,,,,,,,,,,,,,,,,g,6.049000025,G,FALSE,,,,,,,144,gorra,Catalan,Sounds/cat_gorra.mp3,2020-06-08_18h29.14.495,TranslationElicitation_eng-prolific,3.2.4,MacIntel,60,5eaff502f66eb1023c793616,,1,0,81,38,1,80
,,,,,,,,,,,,,,,,,,,,,,,,,,,,,,,,,,,,,,,,,u,6.188000202,GU,FALSE,,,,,,,144,gorra,Catalan,Sounds/cat_gorra.mp3,2020-06-08_18h29.14.495,TranslationElicitation_eng-prolific,3.2.4,MacIntel,60,5eaff502f66eb1023c793616,,1,0,81,38,1,80
,,,,,,,,,,,,,,,,,,,,,,,,,,,,,,,,,,,,,,,,,t,6.433000088,GUT,FALSE,,,,,,,144,gorra,Catalan,Sounds/cat_gorra.mp3,2020-06-08_18h29.14.495,TranslationElicitation_eng-prolific,3.2.4,MacIntel,60,5eaff502f66eb1023c793616,,1,0,81,38,1,80
,,,,,,,,,,,,,,,,,,,,,,,,,,,,,,,,,,,,,,,,,t,6.569000006,GUTT,FALSE,,,,,,,144,gorra,Catalan,Sounds/cat_gorra.mp3,2020-06-08_18h29.14.495,TranslationElicitation_eng-prolific,3.2.4,MacIntel,60,5eaff502f66eb1023c793616,,1,0,81,38,1,80
,,,,,,,,,,,,,,,,,,,,,,,,,,,,,,,,,,,,,,,,,e,6.642000198,GUTTE,FALSE,,,,,,,144,gorra,Catalan,Sounds/cat_gorra.mp3,2020-06-08_18h29.14.495,TranslationElicitation_eng-prolific,3.2.4,MacIntel,60,5eaff502f66eb1023c793616,,1,0,81,38,1,80
,,,,,,,,,,,,,,,,,,,,,,,,,,,,,,,,,,,,,,,,,r,6.815999985,GUTTER,FALSE,,,,,,,144,gorra,Catalan,Sounds/cat_gorra.mp3,2020-06-08_18h29.14.495,TranslationElicitation_eng-prolific,3.2.4,MacIntel,60,5eaff502f66eb1023c793616,,1,0,81,38,1,80
,,,,,,,,,,,,,,,,,,,,,,,,,,,,,,,,,,,,,,,,,return,7.320000172,GUTTER,FALSE,,,,,,,144,gorra,Catalan,Sounds/cat_gorra.mp3,2020-06-08_18h29.14.495,TranslationElicitation_eng-prolific,3.2.4,MacIntel,60,5eaff502f66eb1023c793616,7.320000172,1,0,81,38,1,80
,,,,,,,,,,,,,,,,,,,,,,,,,,,,,,,,,,,,,,,,,,,,,,,,,,,144,gorra,Catalan,Sounds/cat_gorra.mp3,2020-06-08_18h29.14.495,TranslationElicitation_eng-prolific,3.2.4,MacIntel,60,5eaff502f66eb1023c793616,,1,0,81,38,1,80
,,,,,,,,,,,,,,,,,,,,,,,,,,,,,,,,,,,,,,,,,f,1.530999899,F,FALSE,,,,,,,137,fulla,Catalan,Sounds/cat_fulla.mp3,2020-06-08_18h29.14.495,TranslationElicitation_eng-prolific,3.2.4,MacIntel,60,5eaff502f66eb1023c793616,,1,0,81,31,1,80
,,,,,,,,,,,,,,,,,,,,,,,,,,,,,,,,,,,,,,,,,u,1.931999922,FU,FALSE,,,,,,,137,fulla,Catalan,Sounds/cat_fulla.mp3,2020-06-08_18h29.14.495,TranslationElicitation_eng-prolific,3.2.4,MacIntel,60,5eaff502f66eb1023c793616,,1,0,81,31,1,80
,,,,,,,,,,,,,,,,,,,,,,,,,,,,,,,,,,,,,,,,,l,2.049999952,FUL,FALSE,,,,,,,137,fulla,Catalan,Sounds/cat_fulla.mp3,2020-06-08_18h29.14.495,TranslationElicitation_eng-prolific,3.2.4,MacIntel,60,5eaff502f66eb1023c793616,,1,0,81,31,1,80
,,,,,,,,,,,,,,,,,,,,,,,,,,,,,,,,,,,,,,,,,return,2.34800005,FUL,FALSE,,,,,,,137,fulla,Catalan,Sounds/cat_fulla.mp3,2020-06-08_18h29.14.495,TranslationElicitation_eng-prolific,3.2.4,MacIntel,60,5eaff502f66eb1023c793616,2.34800005,1,0,81,31,1,80
,,,,,,,,,,,,,,,,,,,,,,,,,,,,,,,,,,,,,,,,,,,,,,,,,,,137,fulla,Catalan,Sounds/cat_fulla.mp3,2020-06-08_18h29.14.495,TranslationElicitation_eng-prolific,3.2.4,MacIntel,60,5eaff502f66eb1023c793616,,1,0,81,31,1,80
,,,,,,,,,,,,,,,,,,,,,,,,,,,,,,,,,,,,,,,,,n,1.733999968,N,FALSE,,,,,,,158,nas,Catalan,Sounds/cat_nas.mp3,2020-06-08_18h29.14.495,TranslationElicitation_eng-prolific,3.2.4,MacIntel,60,5eaff502f66eb1023c793616,,1,0,81,51,1,80
,,,,,,,,,,,,,,,,,,,,,,,,,,,,,,,,,,,,,,,,,e,1.833999872,NE,FALSE,,,,,,,158,nas,Catalan,Sounds/cat_nas.mp3,2020-06-08_18h29.14.495,TranslationElicitation_eng-prolific,3.2.4,MacIntel,60,5eaff502f66eb1023c793616,,1,0,81,51,1,80
,,,,,,,,,,,,,,,,,,,,,,,,,,,,,,,,,,,,,,,,,w,2.000999928,NEW,FALSE,,,,,,,158,nas,Catalan,Sounds/cat_nas.mp3,2020-06-08_18h29.14.495,TranslationElicitation_eng-prolific,3.2.4,MacIntel,60,5eaff502f66eb1023c793616,,1,0,81,51,1,80
,,,,,,,,,,,,,,,,,,,,,,,,,,,,,,,,,,,,,,,,,return,2.263999939,NEW,FALSE,,,,,,,158,nas,Catalan,Sounds/cat_nas.mp3,2020-06-08_18h29.14.495,TranslationElicitation_eng-prolific,3.2.4,MacIntel,60,5eaff502f66eb1023c793616,2.263999939,1,0,81,51,1,80
,,,,,,,,,,,,,,,,,,,,,,,,,,,,,,,,,,,,,,,,,,,,,,,,,,,158,nas,Catalan,Sounds/cat_nas.mp3,2020-06-08_18h29.14.495,TranslationElicitation_eng-prolific,3.2.4,MacIntel,60,5eaff502f66eb1023c793616,,1,0,81,51,1,80
,,,,,,,,,,,,,,,,,,,,,,,,,,,,,,,,,,,,,,,,,u,1.582999945,U,FALSE,,,,,,,115,bolet,Catalan,Sounds/cat_bolet.mp3,2020-06-08_18h29.14.495,TranslationElicitation_eng-prolific,3.2.4,MacIntel,60,5eaff502f66eb1023c793616,,1,0,81,10,1,80
,,,,,,,,,,,,,,,,,,,,,,,,,,,,,,,,,,,,,,,,,backspace,1.967000008,,TRUE,,,,,,,115,bolet,Catalan,Sounds/cat_bolet.mp3,2020-06-08_18h29.14.495,TranslationElicitation_eng-prolific,3.2.4,MacIntel,60,5eaff502f66eb1023c793616,,1,0,81,10,1,80
,,,,,,,,,,,,,,,,,,,,,,,,,,,,,,,,,,,,,,,,,b,2.467000008,B,TRUE,,,,,,,115,bolet,Catalan,Sounds/cat_bolet.mp3,2020-06-08_18h29.14.495,TranslationElicitation_eng-prolific,3.2.4,MacIntel,60,5eaff502f66eb1023c793616,,1,0,81,10,1,80
,,,,,,,,,,,,,,,,,,,,,,,,,,,,,,,,,,,,,,,,,u,2.665999889,BU,TRUE,,,,,,,115,bolet,Catalan,Sounds/cat_bolet.mp3,2020-06-08_18h29.14.495,TranslationElicitation_eng-prolific,3.2.4,MacIntel,60,5eaff502f66eb1023c793616,,1,0,81,10,1,80
,,,,,,,,,,,,,,,,,,,,,,,,,,,,,,,,,,,,,,,,,l,2.983999968,BUL,TRUE,,,,,,,115,bolet,Catalan,Sounds/cat_bolet.mp3,2020-06-08_18h29.14.495,TranslationElicitation_eng-prolific,3.2.4,MacIntel,60,5eaff502f66eb1023c793616,,1,0,81,10,1,80
,,,,,,,,,,,,,,,,,,,,,,,,,,,,,,,,,,,,,,,,,l,3.118000031,BULL,TRUE,,,,,,,115,bolet,Catalan,Sounds/cat_bolet.mp3,2020-06-08_18h29.14.495,TranslationElicitation_eng-prolific,3.2.4,MacIntel,60,5eaff502f66eb1023c793616,,1,0,81,10,1,80
,,,,,,,,,,,,,,,,,,,,,,,,,,,,,,,,,,,,,,,,,e,3.29399991,BULLE,TRUE,,,,,,,115,bolet,Catalan,Sounds/cat_bolet.mp3,2020-06-08_18h29.14.495,TranslationElicitation_eng-prolific,3.2.4,MacIntel,60,5eaff502f66eb1023c793616,,1,0,81,10,1,80
,,,,,,,,,,,,,,,,,,,,,,,,,,,,,,,,,,,,,,,,,t,3.455999851,BULLET,TRUE,,,,,,,115,bolet,Catalan,Sounds/cat_bolet.mp3,2020-06-08_18h29.14.495,TranslationElicitation_eng-prolific,3.2.4,MacIntel,60,5eaff502f66eb1023c793616,,1,0,81,10,1,80
,,,,,,,,,,,,,,,,,,,,,,,,,,,,,,,,,,,,,,,,,return,4.06099987,BULLET,TRUE,,,,,,,115,bolet,Catalan,Sounds/cat_bolet.mp3,2020-06-08_18h29.14.495,TranslationElicitation_eng-prolific,3.2.4,MacIntel,60,5eaff502f66eb1023c793616,4.06099987,1,0,81,10,1,80
,,,,,,,,,,,,,,,,,,,,,,,,,,,,,,,,,,,,,,,,,,,,,,,,,,,115,bolet,Catalan,Sounds/cat_bolet.mp3,2020-06-08_18h29.14.495,TranslationElicitation_eng-prolific,3.2.4,MacIntel,60,5eaff502f66eb1023c793616,,1,0,81,10,1,80
,,,,,,,,,,,,,,,,,,,,,,,,,,,,,,,,,,,,,,,,,r,2.471000195,R,FALSE,,,,,,,175,raspall,Catalan,Sounds/cat_raspall.mp3,2020-06-08_18h29.14.495,TranslationElicitation_eng-prolific,3.2.4,MacIntel,60,5eaff502f66eb1023c793616,,1,0,81,67,1,80
,,,,,,,,,,,,,,,,,,,,,,,,,,,,,,,,,,,,,,,,,e,2.644000053,RE,FALSE,,,,,,,175,raspall,Catalan,Sounds/cat_raspall.mp3,2020-06-08_18h29.14.495,TranslationElicitation_eng-prolific,3.2.4,MacIntel,60,5eaff502f66eb1023c793616,,1,0,81,67,1,80
,,,,,,,,,,,,,,,,,,,,,,,,,,,,,,,,,,,,,,,,,s,2.873000145,RES,FALSE,,,,,,,175,raspall,Catalan,Sounds/cat_raspall.mp3,2020-06-08_18h29.14.495,TranslationElicitation_eng-prolific,3.2.4,MacIntel,60,5eaff502f66eb1023c793616,,1,0,81,67,1,80
,,,,,,,,,,,,,,,,,,,,,,,,,,,,,,,,,,,,,,,,,p,2.967000008,RESP,FALSE,,,,,,,175,raspall,Catalan,Sounds/cat_raspall.mp3,2020-06-08_18h29.14.495,TranslationElicitation_eng-prolific,3.2.4,MacIntel,60,5eaff502f66eb1023c793616,,1,0,81,67,1,80
,,,,,,,,,,,,,,,,,,,,,,,,,,,,,,,,,,,,,,,,,o,3.149000168,RESPO,FALSE,,,,,,,175,raspall,Catalan,Sounds/cat_raspall.mp3,2020-06-08_18h29.14.495,TranslationElicitation_eng-prolific,3.2.4,MacIntel,60,5eaff502f66eb1023c793616,,1,0,81,67,1,80
,,,,,,,,,,,,,,,,,,,,,,,,,,,,,,,,,,,,,,,,,n,3.368000031,RESPON,FALSE,,,,,,,175,raspall,Catalan,Sounds/cat_raspall.mp3,2020-06-08_18h29.14.495,TranslationElicitation_eng-prolific,3.2.4,MacIntel,60,5eaff502f66eb1023c793616,,1,0,81,67,1,80
,,,,,,,,,,,,,,,,,,,,,,,,,,,,,,,,,,,,,,,,,d,3.683000088,RESPOND,FALSE,,,,,,,175,raspall,Catalan,Sounds/cat_raspall.mp3,2020-06-08_18h29.14.495,TranslationElicitation_eng-prolific,3.2.4,MacIntel,60,5eaff502f66eb1023c793616,,1,0,81,67,1,80
,,,,,,,,,,,,,,,,,,,,,,,,,,,,,,,,,,,,,,,,,return,3.844000101,RESPOND,FALSE,,,,,,,175,raspall,Catalan,Sounds/cat_raspall.mp3,2020-06-08_18h29.14.495,TranslationElicitation_eng-prolific,3.2.4,MacIntel,60,5eaff502f66eb1023c793616,3.844000101,1,0,81,67,1,80
,,,,,,,,,,,,,,,,,,,,,,,,,,,,,,,,,,,,,,,,,,,,,,,,,,,175,raspall,Catalan,Sounds/cat_raspall.mp3,2020-06-08_18h29.14.495,TranslationElicitation_eng-prolific,3.2.4,MacIntel,60,5eaff502f66eb1023c793616,,1,0,81,67,1,80
,,,,,,,,,,,,,,,,,,,,,,,,,,,,,,,,,,,,,,,,,m,2.19900012,M,FALSE,,,,,,,153,mico,Catalan,Sounds/cat_mico.mp3,2020-06-08_18h29.14.495,TranslationElicitation_eng-prolific,3.2.4,MacIntel,60,5eaff502f66eb1023c793616,,1,0,81,46,1,80
,,,,,,,,,,,,,,,,,,,,,,,,,,,,,,,,,,,,,,,,,i,2.383000135,MI,FALSE,,,,,,,153,mico,Catalan,Sounds/cat_mico.mp3,2020-06-08_18h29.14.495,TranslationElicitation_eng-prolific,3.2.4,MacIntel,60,5eaff502f66eb1023c793616,,1,0,81,46,1,80
,,,,,,,,,,,,,,,,,,,,,,,,,,,,,,,,,,,,,,,,,c,2.69900012,MIC,FALSE,,,,,,,153,mico,Catalan,Sounds/cat_mico.mp3,2020-06-08_18h29.14.495,TranslationElicitation_eng-prolific,3.2.4,MacIntel,60,5eaff502f66eb1023c793616,,1,0,81,46,1,80
,,,,,,,,,,,,,,,,,,,,,,,,,,,,,,,,,,,,,,,,,r,2.866000175,MICR,FALSE,,,,,,,153,mico,Catalan,Sounds/cat_mico.mp3,2020-06-08_18h29.14.495,TranslationElicitation_eng-prolific,3.2.4,MacIntel,60,5eaff502f66eb1023c793616,,1,0,81,46,1,80
,,,,,,,,,,,,,,,,,,,,,,,,,,,,,,,,,,,,,,,,,o,3.639000177,MICRO,FALSE,,,,,,,153,mico,Catalan,Sounds/cat_mico.mp3,2020-06-08_18h29.14.495,TranslationElicitation_eng-prolific,3.2.4,MacIntel,60,5eaff502f66eb1023c793616,,1,0,81,46,1,80
,,,,,,,,,,,,,,,,,,,,,,,,,,,,,,,,,,,,,,,,,return,3.904000044,MICRO,FALSE,,,,,,,153,mico,Catalan,Sounds/cat_mico.mp3,2020-06-08_18h29.14.495,TranslationElicitation_eng-prolific,3.2.4,MacIntel,60,5eaff502f66eb1023c793616,3.904000044,1,0,81,46,1,80
,,,,,,,,,,,,,,,,,,,,,,,,,,,,,,,,,,,,,,,,,,,,,,,,,,,153,mico,Catalan,Sounds/cat_mico.mp3,2020-06-08_18h29.14.495,TranslationElicitation_eng-prolific,3.2.4,MacIntel,60,5eaff502f66eb1023c793616,,1,0,81,46,1,80
,,,,,,,,,,,,,,,,,,,,,,,,,,,,,,,,,,,,,,,,,p,1.916000128,P,FALSE,,,,,,,169,plat,Catalan,Sounds/cat_plat.mp3,2020-06-08_18h29.14.495,TranslationElicitation_eng-prolific,3.2.4,MacIntel,60,5eaff502f66eb1023c793616,,1,0,81,61,1,80
,,,,,,,,,,,,,,,,,,,,,,,,,,,,,,,,,,,,,,,,,l,2.174999952,PL,FALSE,,,,,,,169,plat,Catalan,Sounds/cat_plat.mp3,2020-06-08_18h29.14.495,TranslationElicitation_eng-prolific,3.2.4,MacIntel,60,5eaff502f66eb1023c793616,,1,0,81,61,1,80
,,,,,,,,,,,,,,,,,,,,,,,,,,,,,,,,,,,,,,,,,a,2.332999945,PLA,FALSE,,,,,,,169,plat,Catalan,Sounds/cat_plat.mp3,2020-06-08_18h29.14.495,TranslationElicitation_eng-prolific,3.2.4,MacIntel,60,5eaff502f66eb1023c793616,,1,0,81,61,1,80
,,,,,,,,,,,,,,,,,,,,,,,,,,,,,,,,,,,,,,,,,n,2.485000134,PLAN,FALSE,,,,,,,169,plat,Catalan,Sounds/cat_plat.mp3,2020-06-08_18h29.14.495,TranslationElicitation_eng-prolific,3.2.4,MacIntel,60,5eaff502f66eb1023c793616,,1,0,81,61,1,80
,,,,,,,,,,,,,,,,,,,,,,,,,,,,,,,,,,,,,,,,,t,2.683000088,PLANT,FALSE,,,,,,,169,plat,Catalan,Sounds/cat_plat.mp3,2020-06-08_18h29.14.495,TranslationElicitation_eng-prolific,3.2.4,MacIntel,60,5eaff502f66eb1023c793616,,1,0,81,61,1,80
,,,,,,,,,,,,,,,,,,,,,,,,,,,,,,,,,,,,,,,,,return,2.799999952,PLANT,FALSE,,,,,,,169,plat,Catalan,Sounds/cat_plat.mp3,2020-06-08_18h29.14.495,TranslationElicitation_eng-prolific,3.2.4,MacIntel,60,5eaff502f66eb1023c793616,2.799999952,1,0,81,61,1,80
,,,,,,,,,,,,,,,,,,,,,,,,,,,,,,,,,,,,,,,,,,,,,,,,,,,169,plat,Catalan,Sounds/cat_plat.mp3,2020-06-08_18h29.14.495,TranslationElicitation_eng-prolific,3.2.4,MacIntel,60,5eaff502f66eb1023c793616,,1,0,81,61,1,80
,,,,,,,,,,,,,,,,,,,,,,,,,,,,,,,,,,,,,,,,,b,1.75,B,FALSE,,,,,,,118,bou,Catalan,Sounds/cat_bou.mp3,2020-06-08_18h29.14.495,TranslationElicitation_eng-prolific,3.2.4,MacIntel,60,5eaff502f66eb1023c793616,,1,0,81,13,1,80
,,,,,,,,,,,,,,,,,,,,,,,,,,,,,,,,,,,,,,,,,o,1.969000101,BO,FALSE,,,,,,,118,bou,Catalan,Sounds/cat_bou.mp3,2020-06-08_18h29.14.495,TranslationElicitation_eng-prolific,3.2.4,MacIntel,60,5eaff502f66eb1023c793616,,1,0,81,13,1,80
,,,,,,,,,,,,,,,,,,,,,,,,,,,,,,,,,,,,,,,,,w,2.266000032,BOW,FALSE,,,,,,,118,bou,Catalan,Sounds/cat_bou.mp3,2020-06-08_18h29.14.495,TranslationElicitation_eng-prolific,3.2.4,MacIntel,60,5eaff502f66eb1023c793616,,1,0,81,13,1,80
,,,,,,,,,,,,,,,,,,,,,,,,,,,,,,,,,,,,,,,,,return,2.416000128,BOW,FALSE,,,,,,,118,bou,Catalan,Sounds/cat_bou.mp3,2020-06-08_18h29.14.495,TranslationElicitation_eng-prolific,3.2.4,MacIntel,60,5eaff502f66eb1023c793616,2.416000128,1,0,81,13,1,80
,,,,,,,,,,,,,,,,,,,,,,,,,,,,,,,,,,,,,,,,,,,,,,,,,,,118,bou,Catalan,Sounds/cat_bou.mp3,2020-06-08_18h29.14.495,TranslationElicitation_eng-prolific,3.2.4,MacIntel,60,5eaff502f66eb1023c793616,,1,0,81,13,1,80
,,,,,,,,,,,,,,,,,,,,,,,,,,,,,,,,,,,,,,,,,o,2.5,O,FALSE,,,,,,,184,ull,Catalan,Sounds/cat_ull.mp3,2020-06-08_18h29.14.495,TranslationElicitation_eng-prolific,3.2.4,MacIntel,60,5eaff502f66eb1023c793616,,1,0,81,75,1,80
,,,,,,,,,,,,,,,,,,,,,,,,,,,,,,,,,,,,,,,,,n,2.75,ON,FALSE,,,,,,,184,ull,Catalan,Sounds/cat_ull.mp3,2020-06-08_18h29.14.495,TranslationElicitation_eng-prolific,3.2.4,MacIntel,60,5eaff502f66eb1023c793616,,1,0,81,75,1,80
,,,,,,,,,,,,,,,,,,,,,,,,,,,,,,,,,,,,,,,,,e,2.833999872,ONE,FALSE,,,,,,,184,ull,Catalan,Sounds/cat_ull.mp3,2020-06-08_18h29.14.495,TranslationElicitation_eng-prolific,3.2.4,MacIntel,60,5eaff502f66eb1023c793616,,1,0,81,75,1,80
,,,,,,,,,,,,,,,,,,,,,,,,,,,,,,,,,,,,,,,,,return,3.082999945,ONE,FALSE,,,,,,,184,ull,Catalan,Sounds/cat_ull.mp3,2020-06-08_18h29.14.495,TranslationElicitation_eng-prolific,3.2.4,MacIntel,60,5eaff502f66eb1023c793616,3.082999945,1,0,81,75,1,80
,,,,,,,,,,,,,,,,,,,,,,,,,,,,,,,,,,,,,,,,,,,,,,,,,,,184,ull,Catalan,Sounds/cat_ull.mp3,2020-06-08_18h29.14.495,TranslationElicitation_eng-prolific,3.2.4,MacIntel,60,5eaff502f66eb1023c793616,,1,0,81,75,1,80
,,,,,,,,,,,,,,,,,,,,,,,,,,,,,,,,,,,,,,,,,f,1.349000216,F,FALSE,,,,,,,134,flor,Catalan,Sounds/cat_flor.mp3,2020-06-08_18h29.14.495,TranslationElicitation_eng-prolific,3.2.4,MacIntel,60,5eaff502f66eb1023c793616,,1,0,81,28,1,80
,,,,,,,,,,,,,,,,,,,,,,,,,,,,,,,,,,,,,,,,,l,1.435000181,FL,FALSE,,,,,,,134,flor,Catalan,Sounds/cat_flor.mp3,2020-06-08_18h29.14.495,TranslationElicitation_eng-prolific,3.2.4,MacIntel,60,5eaff502f66eb1023c793616,,1,0,81,28,1,80
,,,,,,,,,,,,,,,,,,,,,,,,,,,,,,,,,,,,,,,,,o,1.616000175,FLO,FALSE,,,,,,,134,flor,Catalan,Sounds/cat_flor.mp3,2020-06-08_18h29.14.495,TranslationElicitation_eng-prolific,3.2.4,MacIntel,60,5eaff502f66eb1023c793616,,1,0,81,28,1,80
,,,,,,,,,,,,,,,,,,,,,,,,,,,,,,,,,,,,,,,,,w,1.715000153,FLOW,FALSE,,,,,,,134,flor,Catalan,Sounds/cat_flor.mp3,2020-06-08_18h29.14.495,TranslationElicitation_eng-prolific,3.2.4,MacIntel,60,5eaff502f66eb1023c793616,,1,0,81,28,1,80
,,,,,,,,,,,,,,,,,,,,,,,,,,,,,,,,,,,,,,,,,return,1.96600008,FLOW,FALSE,,,,,,,134,flor,Catalan,Sounds/cat_flor.mp3,2020-06-08_18h29.14.495,TranslationElicitation_eng-prolific,3.2.4,MacIntel,60,5eaff502f66eb1023c793616,1.96600008,1,0,81,28,1,80
,,,,,,,,,,,,,,,,,,,,,,,,,,,,,,,,,,,,,,,,,,,,,,,,,,,134,flor,Catalan,Sounds/cat_flor.mp3,2020-06-08_18h29.14.495,TranslationElicitation_eng-prolific,3.2.4,MacIntel,60,5eaff502f66eb1023c793616,,1,0,81,28,1,80
,,,,,,,,,,,,,,,,,,,,,,,,,,,,,,,,,,,,,,,,,b,1.717000008,B,FALSE,,,,,,,117,boto,Catalan,Sounds/cat_boto.mp3,2020-06-08_18h29.14.495,TranslationElicitation_eng-prolific,3.2.4,MacIntel,60,5eaff502f66eb1023c793616,,1,0,81,12,1,80
,,,,,,,,,,,,,,,,,,,,,,,,,,,,,,,,,,,,,,,,,u,1.883000135,BU,FALSE,,,,,,,117,boto,Catalan,Sounds/cat_boto.mp3,2020-06-08_18h29.14.495,TranslationElicitation_eng-prolific,3.2.4,MacIntel,60,5eaff502f66eb1023c793616,,1,0,81,12,1,80
,,,,,,,,,,,,,,,,,,,,,,,,,,,,,,,,,,,,,,,,,t,2.082999945,BUT,FALSE,,,,,,,117,boto,Catalan,Sounds/cat_boto.mp3,2020-06-08_18h29.14.495,TranslationElicitation_eng-prolific,3.2.4,MacIntel,60,5eaff502f66eb1023c793616,,1,0,81,12,1,80
,,,,,,,,,,,,,,,,,,,,,,,,,,,,,,,,,,,,,,,,,t,2.233999968,BUTT,FALSE,,,,,,,117,boto,Catalan,Sounds/cat_boto.mp3,2020-06-08_18h29.14.495,TranslationElicitation_eng-prolific,3.2.4,MacIntel,60,5eaff502f66eb1023c793616,,1,0,81,12,1,80
,,,,,,,,,,,,,,,,,,,,,,,,,,,,,,,,,,,,,,,,,o,2.332999945,BUTTO,FALSE,,,,,,,117,boto,Catalan,Sounds/cat_boto.mp3,2020-06-08_18h29.14.495,TranslationElicitation_eng-prolific,3.2.4,MacIntel,60,5eaff502f66eb1023c793616,,1,0,81,12,1,80
,,,,,,,,,,,,,,,,,,,,,,,,,,,,,,,,,,,,,,,,,n,2.536000013,BUTTON,FALSE,,,,,,,117,boto,Catalan,Sounds/cat_boto.mp3,2020-06-08_18h29.14.495,TranslationElicitation_eng-prolific,3.2.4,MacIntel,60,5eaff502f66eb1023c793616,,1,0,81,12,1,80
,,,,,,,,,,,,,,,,,,,,,,,,,,,,,,,,,,,,,,,,,return,2.84100008,BUTTON,FALSE,,,,,,,117,boto,Catalan,Sounds/cat_boto.mp3,2020-06-08_18h29.14.495,TranslationElicitation_eng-prolific,3.2.4,MacIntel,60,5eaff502f66eb1023c793616,2.84100008,1,0,81,12,1,80
,,,,,,,,,,,,,,,,,,,,,,,,,,,,,,,,,,,,,,,,,,,,,,,,,,,117,boto,Catalan,Sounds/cat_boto.mp3,2020-06-08_18h29.14.495,TranslationElicitation_eng-prolific,3.2.4,MacIntel,60,5eaff502f66eb1023c793616,,1,0,81,12,1,80
,,,,,,,,,,,,,,,,,,,,,,,,,,,,,,,,,,,,,,,,,m,2.832000017,M,FALSE,,,,,,,107,amanida,Catalan,Sounds/cat_amanida.mp3,2020-06-08_18h29.14.495,TranslationElicitation_eng-prolific,3.2.4,MacIntel,60,5eaff502f66eb1023c793616,,1,0,81,3,1,80
,,,,,,,,,,,,,,,,,,,,,,,,,,,,,,,,,,,,,,,,,i,3.263999939,MI,FALSE,,,,,,,107,amanida,Catalan,Sounds/cat_amanida.mp3,2020-06-08_18h29.14.495,TranslationElicitation_eng-prolific,3.2.4,MacIntel,60,5eaff502f66eb1023c793616,,1,0,81,3,1,80
,,,,,,,,,,,,,,,,,,,,,,,,,,,,,,,,,,,,,,,,,n,3.516000032,MIN,FALSE,,,,,,,107,amanida,Catalan,Sounds/cat_amanida.mp3,2020-06-08_18h29.14.495,TranslationElicitation_eng-prolific,3.2.4,MacIntel,60,5eaff502f66eb1023c793616,,1,0,81,3,1,80
,,,,,,,,,,,,,,,,,,,,,,,,,,,,,,,,,,,,,,,,,a,3.799000025,MINA,FALSE,,,,,,,107,amanida,Catalan,Sounds/cat_amanida.mp3,2020-06-08_18h29.14.495,TranslationElicitation_eng-prolific,3.2.4,MacIntel,60,5eaff502f66eb1023c793616,,1,0,81,3,1,80
,,,,,,,,,,,,,,,,,,,,,,,,,,,,,,,,,,,,,,,,,t,4.167000055,MINAT,FALSE,,,,,,,107,amanida,Catalan,Sounds/cat_amanida.mp3,2020-06-08_18h29.14.495,TranslationElicitation_eng-prolific,3.2.4,MacIntel,60,5eaff502f66eb1023c793616,,1,0,81,3,1,80
,,,,,,,,,,,,,,,,,,,,,,,,,,,,,,,,,,,,,,,,,u,4.51699996,MINATU,FALSE,,,,,,,107,amanida,Catalan,Sounds/cat_amanida.mp3,2020-06-08_18h29.14.495,TranslationElicitation_eng-prolific,3.2.4,MacIntel,60,5eaff502f66eb1023c793616,,1,0,81,3,1,80
,,,,,,,,,,,,,,,,,,,,,,,,,,,,,,,,,,,,,,,,,r,4.598999977,MINATUR,FALSE,,,,,,,107,amanida,Catalan,Sounds/cat_amanida.mp3,2020-06-08_18h29.14.495,TranslationElicitation_eng-prolific,3.2.4,MacIntel,60,5eaff502f66eb1023c793616,,1,0,81,3,1,80
,,,,,,,,,,,,,,,,,,,,,,,,,,,,,,,,,,,,,,,,,w,4.816999912,MINATURW,FALSE,,,,,,,107,amanida,Catalan,Sounds/cat_amanida.mp3,2020-06-08_18h29.14.495,TranslationElicitation_eng-prolific,3.2.4,MacIntel,60,5eaff502f66eb1023c793616,,1,0,81,3,1,80
,,,,,,,,,,,,,,,,,,,,,,,,,,,,,,,,,,,,,,,,,return,4.921999931,MINATURW,FALSE,,,,,,,107,amanida,Catalan,Sounds/cat_amanida.mp3,2020-06-08_18h29.14.495,TranslationElicitation_eng-prolific,3.2.4,MacIntel,60,5eaff502f66eb1023c793616,4.921999931,1,0,81,3,1,80
,,,,,,,,,,,,,,,,,,,,,,,,,,,,,,,,,,,,,,,,,,,,,,,,,,,107,amanida,Catalan,Sounds/cat_amanida.mp3,2020-06-08_18h29.14.495,TranslationElicitation_eng-prolific,3.2.4,MacIntel,60,5eaff502f66eb1023c793616,,1,0,81,3,1,80
,,,,,,,,,,,,,,,,,,,,,,,,,,,,,,,,,,,,,,,,,t,1.049000025,T,FALSE,,,,,,,182,tomaquet,Catalan,Sounds/cat_tomaquet.mp3,2020-06-08_18h29.14.495,TranslationElicitation_eng-prolific,3.2.4,MacIntel,60,5eaff502f66eb1023c793616,,1,0,81,73,1,80
,,,,,,,,,,,,,,,,,,,,,,,,,,,,,,,,,,,,,,,,,o,1.18200016,TO,FALSE,,,,,,,182,tomaquet,Catalan,Sounds/cat_tomaquet.mp3,2020-06-08_18h29.14.495,TranslationElicitation_eng-prolific,3.2.4,MacIntel,60,5eaff502f66eb1023c793616,,1,0,81,73,1,80
,,,,,,,,,,,,,,,,,,,,,,,,,,,,,,,,,,,,,,,,,m,1.47300005,TOM,FALSE,,,,,,,182,tomaquet,Catalan,Sounds/cat_tomaquet.mp3,2020-06-08_18h29.14.495,TranslationElicitation_eng-prolific,3.2.4,MacIntel,60,5eaff502f66eb1023c793616,,1,0,81,73,1,80
,,,,,,,,,,,,,,,,,,,,,,,,,,,,,,,,,,,,,,,,,a,1.565000057,TOMA,FALSE,,,,,,,182,tomaquet,Catalan,Sounds/cat_tomaquet.mp3,2020-06-08_18h29.14.495,TranslationElicitation_eng-prolific,3.2.4,MacIntel,60,5eaff502f66eb1023c793616,,1,0,81,73,1,80
,,,,,,,,,,,,,,,,,,,,,,,,,,,,,,,,,,,,,,,,,t,1.948000193,TOMAT,FALSE,,,,,,,182,tomaquet,Catalan,Sounds/cat_tomaquet.mp3,2020-06-08_18h29.14.495,TranslationElicitation_eng-prolific,3.2.4,MacIntel,60,5eaff502f66eb1023c793616,,1,0,81,73,1,80
,,,,,,,,,,,,,,,,,,,,,,,,,,,,,,,,,,,,,,,,,o,2.049000025,TOMATO,FALSE,,,,,,,182,tomaquet,Catalan,Sounds/cat_tomaquet.mp3,2020-06-08_18h29.14.495,TranslationElicitation_eng-prolific,3.2.4,MacIntel,60,5eaff502f66eb1023c793616,,1,0,81,73,1,80
,,,,,,,,,,,,,,,,,,,,,,,,,,,,,,,,,,,,,,,,,return,2.332000017,TOMATO,FALSE,,,,,,,182,tomaquet,Catalan,Sounds/cat_tomaquet.mp3,2020-06-08_18h29.14.495,TranslationElicitation_eng-prolific,3.2.4,MacIntel,60,5eaff502f66eb1023c793616,2.332000017,1,0,81,73,1,80
,,,,,,,,,,,,,,,,,,,,,,,,,,,,,,,,,,,,,,,,,,,,,,,,,,,182,tomaquet,Catalan,Sounds/cat_tomaquet.mp3,2020-06-08_18h29.14.495,TranslationElicitation_eng-prolific,3.2.4,MacIntel,60,5eaff502f66eb1023c793616,,1,0,81,73,1,80
,,,,,,,,,,,,,,,,,,,,,,,,,,,,,,,,,,,,,,,,,f,2.59800005,F,FALSE,,,,,,,136,forquilla,Catalan,Sounds/cat_forquilla.mp3,2020-06-08_18h29.14.495,TranslationElicitation_eng-prolific,3.2.4,MacIntel,60,5eaff502f66eb1023c793616,,1,0,81,30,1,80
,,,,,,,,,,,,,,,,,,,,,,,,,,,,,,,,,,,,,,,,,o,2.681999922,FO,FALSE,,,,,,,136,forquilla,Catalan,Sounds/cat_forquilla.mp3,2020-06-08_18h29.14.495,TranslationElicitation_eng-prolific,3.2.4,MacIntel,60,5eaff502f66eb1023c793616,,1,0,81,30,1,80
,,,,,,,,,,,,,,,,,,,,,,,,,,,,,,,,,,,,,,,,,r,2.832000017,FOR,FALSE,,,,,,,136,forquilla,Catalan,Sounds/cat_forquilla.mp3,2020-06-08_18h29.14.495,TranslationElicitation_eng-prolific,3.2.4,MacIntel,60,5eaff502f66eb1023c793616,,1,0,81,30,1,80
,,,,,,,,,,,,,,,,,,,,,,,,,,,,,,,,,,,,,,,,,k,2.921000004,FORK,FALSE,,,,,,,136,forquilla,Catalan,Sounds/cat_forquilla.mp3,2020-06-08_18h29.14.495,TranslationElicitation_eng-prolific,3.2.4,MacIntel,60,5eaff502f66eb1023c793616,,1,0,81,30,1,80
,,,,,,,,,,,,,,,,,,,,,,,,,,,,,,,,,,,,,,,,,return,3.200000048,FORK,FALSE,,,,,,,136,forquilla,Catalan,Sounds/cat_forquilla.mp3,2020-06-08_18h29.14.495,TranslationElicitation_eng-prolific,3.2.4,MacIntel,60,5eaff502f66eb1023c793616,3.200000048,1,0,81,30,1,80
,,,,,,,,,,,,,,,,,,,,,,,,,,,,,,,,,,,,,,,,,,,,,,,,,,,136,forquilla,Catalan,Sounds/cat_forquilla.mp3,2020-06-08_18h29.14.495,TranslationElicitation_eng-prolific,3.2.4,MacIntel,60,5eaff502f66eb1023c793616,,1,0,81,30,1,80
,,,,,,,,,,,,,,,,,,,,,,,,,,,,,,,,,,,,,,,,,s,1.797999859,S,FALSE,,,,,,,177,sol,Catalan,Sounds/cat_sol.mp3,2020-06-08_18h29.14.495,TranslationElicitation_eng-prolific,3.2.4,MacIntel,60,5eaff502f66eb1023c793616,,1,0,81,69,1,80
,,,,,,,,,,,,,,,,,,,,,,,,,,,,,,,,,,,,,,,,,a,2.082000017,SA,FALSE,,,,,,,177,sol,Catalan,Sounds/cat_sol.mp3,2020-06-08_18h29.14.495,TranslationElicitation_eng-prolific,3.2.4,MacIntel,60,5eaff502f66eb1023c793616,,1,0,81,69,1,80
,,,,,,,,,,,,,,,,,,,,,,,,,,,,,,,,,,,,,,,,,l,2.299000025,SAL,FALSE,,,,,,,177,sol,Catalan,Sounds/cat_sol.mp3,2020-06-08_18h29.14.495,TranslationElicitation_eng-prolific,3.2.4,MacIntel,60,5eaff502f66eb1023c793616,,1,0,81,69,1,80
,,,,,,,,,,,,,,,,,,,,,,,,,,,,,,,,,,,,,,,,,t,2.448999882,SALT,FALSE,,,,,,,177,sol,Catalan,Sounds/cat_sol.mp3,2020-06-08_18h29.14.495,TranslationElicitation_eng-prolific,3.2.4,MacIntel,60,5eaff502f66eb1023c793616,,1,0,81,69,1,80
,,,,,,,,,,,,,,,,,,,,,,,,,,,,,,,,,,,,,,,,,return,2.681999922,SALT,FALSE,,,,,,,177,sol,Catalan,Sounds/cat_sol.mp3,2020-06-08_18h29.14.495,TranslationElicitation_eng-prolific,3.2.4,MacIntel,60,5eaff502f66eb1023c793616,2.681999922,1,0,81,69,1,80
,,,,,,,,,,,,,,,,,,,,,,,,,,,,,,,,,,,,,,,,,,,,,,,,,,,177,sol,Catalan,Sounds/cat_sol.mp3,2020-06-08_18h29.14.495,TranslationElicitation_eng-prolific,3.2.4,MacIntel,60,5eaff502f66eb1023c793616,,1,0,81,69,1,80
,,,,,,,,,,,,,,,,,,,,,,,,,,,,,,,,,,,,,,,,,c,5.164000034,C,FALSE,,,,,,,121,camisa,Catalan,Sounds/cat_camisa.mp3,2020-06-08_18h29.14.495,TranslationElicitation_eng-prolific,3.2.4,MacIntel,60,5eaff502f66eb1023c793616,,1,0,81,16,1,80
,,,,,,,,,,,,,,,,,,,,,,,,,,,,,,,,,,,,,,,,,a,5.367000103,CA,FALSE,,,,,,,121,camisa,Catalan,Sounds/cat_camisa.mp3,2020-06-08_18h29.14.495,TranslationElicitation_eng-prolific,3.2.4,MacIntel,60,5eaff502f66eb1023c793616,,1,0,81,16,1,80
,,,,,,,,,,,,,,,,,,,,,,,,,,,,,,,,,,,,,,,,,p,5.621999979,CAP,FALSE,,,,,,,121,camisa,Catalan,Sounds/cat_camisa.mp3,2020-06-08_18h29.14.495,TranslationElicitation_eng-prolific,3.2.4,MacIntel,60,5eaff502f66eb1023c793616,,1,0,81,16,1,80
,,,,,,,,,,,,,,,,,,,,,,,,,,,,,,,,,,,,,,,,,t,5.867000103,CAPT,FALSE,,,,,,,121,camisa,Catalan,Sounds/cat_camisa.mp3,2020-06-08_18h29.14.495,TranslationElicitation_eng-prolific,3.2.4,MacIntel,60,5eaff502f66eb1023c793616,,1,0,81,16,1,80
,,,,,,,,,,,,,,,,,,,,,,,,,,,,,,,,,,,,,,,,,i,6.05099988,CAPTI,FALSE,,,,,,,121,camisa,Catalan,Sounds/cat_camisa.mp3,2020-06-08_18h29.14.495,TranslationElicitation_eng-prolific,3.2.4,MacIntel,60,5eaff502f66eb1023c793616,,1,0,81,16,1,80
,,,,,,,,,,,,,,,,,,,,,,,,,,,,,,,,,,,,,,,,,a,6.132999897,CAPTIA,FALSE,,,,,,,121,camisa,Catalan,Sounds/cat_camisa.mp3,2020-06-08_18h29.14.495,TranslationElicitation_eng-prolific,3.2.4,MacIntel,60,5eaff502f66eb1023c793616,,1,0,81,16,1,80
,,,,,,,,,,,,,,,,,,,,,,,,,,,,,,,,,,,,,,,,,n,6.451999903,CAPTIAN,FALSE,,,,,,,121,camisa,Catalan,Sounds/cat_camisa.mp3,2020-06-08_18h29.14.495,TranslationElicitation_eng-prolific,3.2.4,MacIntel,60,5eaff502f66eb1023c793616,,1,0,81,16,1,80
,,,,,,,,,,,,,,,,,,,,,,,,,,,,,,,,,,,,,,,,,return,6.825000048,CAPTIAN,FALSE,,,,,,,121,camisa,Catalan,Sounds/cat_camisa.mp3,2020-06-08_18h29.14.495,TranslationElicitation_eng-prolific,3.2.4,MacIntel,60,5eaff502f66eb1023c793616,6.825000048,1,0,81,16,1,80
,,,,,,,,,,,,,,,,,,,,,,,,,,,,,,,,,,,,,,,,,,,,,,,,,,,121,camisa,Catalan,Sounds/cat_camisa.mp3,2020-06-08_18h29.14.495,TranslationElicitation_eng-prolific,3.2.4,MacIntel,60,5eaff502f66eb1023c793616,,1,0,81,16,1,80
,,,,,,,,,,,,,,,,,,,,,,,,,,,,,,,,,,,,,,,,,p,2.631000042,P,FALSE,,,,,,,166,peu,Catalan,Sounds/cat_peu.mp3,2020-06-08_18h29.14.495,TranslationElicitation_eng-prolific,3.2.4,MacIntel,60,5eaff502f66eb1023c793616,,1,0,81,58,1,80
,,,,,,,,,,,,,,,,,,,,,,,,,,,,,,,,,,,,,,,,,a,2.748999834,PA,FALSE,,,,,,,166,peu,Catalan,Sounds/cat_peu.mp3,2020-06-08_18h29.14.495,TranslationElicitation_eng-prolific,3.2.4,MacIntel,60,5eaff502f66eb1023c793616,,1,0,81,58,1,80
,,,,,,,,,,,,,,,,,,,,,,,,,,,,,,,,,,,,,,,,,l,2.980999947,PAL,FALSE,,,,,,,166,peu,Catalan,Sounds/cat_peu.mp3,2020-06-08_18h29.14.495,TranslationElicitation_eng-prolific,3.2.4,MacIntel,60,5eaff502f66eb1023c793616,,1,0,81,58,1,80
,,,,,,,,,,,,,,,,,,,,,,,,,,,,,,,,,,,,,,,,,e,3.093999863,PALE,FALSE,,,,,,,166,peu,Catalan,Sounds/cat_peu.mp3,2020-06-08_18h29.14.495,TranslationElicitation_eng-prolific,3.2.4,MacIntel,60,5eaff502f66eb1023c793616,,1,0,81,58,1,80
,,,,,,,,,,,,,,,,,,,,,,,,,,,,,,,,,,,,,,,,,return,3.36500001,PALE,FALSE,,,,,,,166,peu,Catalan,Sounds/cat_peu.mp3,2020-06-08_18h29.14.495,TranslationElicitation_eng-prolific,3.2.4,MacIntel,60,5eaff502f66eb1023c793616,3.36500001,1,0,81,58,1,80
,,,,,,,,,,,,,,,,,,,,,,,,,,,,,,,,,,,,,,,,,,,,,,,,,,,166,peu,Catalan,Sounds/cat_peu.mp3,2020-06-08_18h29.14.495,TranslationElicitation_eng-prolific,3.2.4,MacIntel,60,5eaff502f66eb1023c793616,,1,0,81,58,1,80
,,,,,,,,,,,,,,,,,,,,,,,,,,,,,,,,,,,,,,,,,c,1.433000088,C,FALSE,,,,,,,138,galeta,Catalan,Sounds/cat_galeta.mp3,2020-06-08_18h29.14.495,TranslationElicitation_eng-prolific,3.2.4,MacIntel,60,5eaff502f66eb1023c793616,,1,0,81,32,1,80
,,,,,,,,,,,,,,,,,,,,,,,,,,,,,,,,,,,,,,,,,o,1.565999985,CO,FALSE,,,,,,,138,galeta,Catalan,Sounds/cat_galeta.mp3,2020-06-08_18h29.14.495,TranslationElicitation_eng-prolific,3.2.4,MacIntel,60,5eaff502f66eb1023c793616,,1,0,81,32,1,80
,,,,,,,,,,,,,,,,,,,,,,,,,,,,,,,,,,,,,,,,,l,1.852999926,COL,FALSE,,,,,,,138,galeta,Catalan,Sounds/cat_galeta.mp3,2020-06-08_18h29.14.495,TranslationElicitation_eng-prolific,3.2.4,MacIntel,60,5eaff502f66eb1023c793616,,1,0,81,32,1,80
,,,,,,,,,,,,,,,,,,,,,,,,,,,,,,,,,,,,,,,,,l,1.950000048,COLL,FALSE,,,,,,,138,galeta,Catalan,Sounds/cat_galeta.mp3,2020-06-08_18h29.14.495,TranslationElicitation_eng-prolific,3.2.4,MacIntel,60,5eaff502f66eb1023c793616,,1,0,81,32,1,80
,,,,,,,,,,,,,,,,,,,,,,,,,,,,,,,,,,,,,,,,,e,2.065000057,COLLE,FALSE,,,,,,,138,galeta,Catalan,Sounds/cat_galeta.mp3,2020-06-08_18h29.14.495,TranslationElicitation_eng-prolific,3.2.4,MacIntel,60,5eaff502f66eb1023c793616,,1,0,81,32,1,80
,,,,,,,,,,,,,,,,,,,,,,,,,,,,,,,,,,,,,,,,,c,2.299000025,COLLEC,FALSE,,,,,,,138,galeta,Catalan,Sounds/cat_galeta.mp3,2020-06-08_18h29.14.495,TranslationElicitation_eng-prolific,3.2.4,MacIntel,60,5eaff502f66eb1023c793616,,1,0,81,32,1,80
,,,,,,,,,,,,,,,,,,,,,,,,,,,,,,,,,,,,,,,,,t,2.549999952,COLLECT,FALSE,,,,,,,138,galeta,Catalan,Sounds/cat_galeta.mp3,2020-06-08_18h29.14.495,TranslationElicitation_eng-prolific,3.2.4,MacIntel,60,5eaff502f66eb1023c793616,,1,0,81,32,1,80
,,,,,,,,,,,,,,,,,,,,,,,,,,,,,,,,,,,,,,,,,return,2.648999929,COLLECT,FALSE,,,,,,,138,galeta,Catalan,Sounds/cat_galeta.mp3,2020-06-08_18h29.14.495,TranslationElicitation_eng-prolific,3.2.4,MacIntel,60,5eaff502f66eb1023c793616,2.648999929,1,0,81,32,1,80
,,,,,,,,,,,,,,,,,,,,,,,,,,,,,,,,,,,,,,,,,,,,,,,,,,,138,galeta,Catalan,Sounds/cat_galeta.mp3,2020-06-08_18h29.14.495,TranslationElicitation_eng-prolific,3.2.4,MacIntel,60,5eaff502f66eb1023c793616,,1,0,81,32,1,80
,,,,,,,,,,,,,,,,,,,,,,,,,,,,,,,,,,,,,,,,,g,2.014999866,G,FALSE,,,,,,,160,orella,Catalan,Sounds/cat_orella.mp3,2020-06-08_18h29.14.495,TranslationElicitation_eng-prolific,3.2.4,MacIntel,60,5eaff502f66eb1023c793616,,1,0,81,52,1,80
,,,,,,,,,,,,,,,,,,,,,,,,,,,,,,,,,,,,,,,,,o,2.115999937,GO,FALSE,,,,,,,160,orella,Catalan,Sounds/cat_orella.mp3,2020-06-08_18h29.14.495,TranslationElicitation_eng-prolific,3.2.4,MacIntel,60,5eaff502f66eb1023c793616,,1,0,81,52,1,80
,,,,,,,,,,,,,,,,,,,,,,,,,,,,,,,,,,,,,,,,,l,2.302999973,GOL,FALSE,,,,,,,160,orella,Catalan,Sounds/cat_orella.mp3,2020-06-08_18h29.14.495,TranslationElicitation_eng-prolific,3.2.4,MacIntel,60,5eaff502f66eb1023c793616,,1,0,81,52,1,80
,,,,,,,,,,,,,,,,,,,,,,,,,,,,,,,,,,,,,,,,,d,2.352999926,GOLD,FALSE,,,,,,,160,orella,Catalan,Sounds/cat_orella.mp3,2020-06-08_18h29.14.495,TranslationElicitation_eng-prolific,3.2.4,MacIntel,60,5eaff502f66eb1023c793616,,1,0,81,52,1,80
,,,,,,,,,,,,,,,,,,,,,,,,,,,,,,,,,,,,,,,,,e,2.549999952,GOLDE,FALSE,,,,,,,160,orella,Catalan,Sounds/cat_orella.mp3,2020-06-08_18h29.14.495,TranslationElicitation_eng-prolific,3.2.4,MacIntel,60,5eaff502f66eb1023c793616,,1,0,81,52,1,80
,,,,,,,,,,,,,,,,,,,,,,,,,,,,,,,,,,,,,,,,,d,2.715999842,GOLDED,FALSE,,,,,,,160,orella,Catalan,Sounds/cat_orella.mp3,2020-06-08_18h29.14.495,TranslationElicitation_eng-prolific,3.2.4,MacIntel,60,5eaff502f66eb1023c793616,,1,0,81,52,1,80
,,,,,,,,,,,,,,,,,,,,,,,,,,,,,,,,,,,,,,,,,return,2.770999908,GOLDED,FALSE,,,,,,,160,orella,Catalan,Sounds/cat_orella.mp3,2020-06-08_18h29.14.495,TranslationElicitation_eng-prolific,3.2.4,MacIntel,60,5eaff502f66eb1023c793616,2.770999908,1,0,81,52,1,80
,,,,,,,,,,,,,,,,,,,,,,,,,,,,,,,,,,,,,,,,,,,,,,,,,,,160,orella,Catalan,Sounds/cat_orella.mp3,2020-06-08_18h29.14.495,TranslationElicitation_eng-prolific,3.2.4,MacIntel,60,5eaff502f66eb1023c793616,,1,0,81,52,1,80
,,,,,,,,,,,,,,,,,,,,,,,,,,,,,,,,,,,,,,,,,m,2.83100009,M,FALSE,,,,,,,157,mussol,Catalan,Sounds/cat_mussol.mp3,2020-06-08_18h29.14.495,TranslationElicitation_eng-prolific,3.2.4,MacIntel,60,5eaff502f66eb1023c793616,,1,0,81,50,1,80
,,,,,,,,,,,,,,,,,,,,,,,,,,,,,,,,,,,,,,,,,u,3.131999969,MU,FALSE,,,,,,,157,mussol,Catalan,Sounds/cat_mussol.mp3,2020-06-08_18h29.14.495,TranslationElicitation_eng-prolific,3.2.4,MacIntel,60,5eaff502f66eb1023c793616,,1,0,81,50,1,80
,,,,,,,,,,,,,,,,,,,,,,,,,,,,,,,,,,,,,,,,,s,3.69900012,MUS,FALSE,,,,,,,157,mussol,Catalan,Sounds/cat_mussol.mp3,2020-06-08_18h29.14.495,TranslationElicitation_eng-prolific,3.2.4,MacIntel,60,5eaff502f66eb1023c793616,,1,0,81,50,1,80
,,,,,,,,,,,,,,,,,,,,,,,,,,,,,,,,,,,,,,,,,c,3.914999962,MUSC,FALSE,,,,,,,157,mussol,Catalan,Sounds/cat_mussol.mp3,2020-06-08_18h29.14.495,TranslationElicitation_eng-prolific,3.2.4,MacIntel,60,5eaff502f66eb1023c793616,,1,0,81,50,1,80
,,,,,,,,,,,,,,,,,,,,,,,,,,,,,,,,,,,,,,,,,l,4.115999937,MUSCL,FALSE,,,,,,,157,mussol,Catalan,Sounds/cat_mussol.mp3,2020-06-08_18h29.14.495,TranslationElicitation_eng-prolific,3.2.4,MacIntel,60,5eaff502f66eb1023c793616,,1,0,81,50,1,80
,,,,,,,,,,,,,,,,,,,,,,,,,,,,,,,,,,,,,,,,,e,4.214999914,MUSCLE,FALSE,,,,,,,157,mussol,Catalan,Sounds/cat_mussol.mp3,2020-06-08_18h29.14.495,TranslationElicitation_eng-prolific,3.2.4,MacIntel,60,5eaff502f66eb1023c793616,,1,0,81,50,1,80
,,,,,,,,,,,,,,,,,,,,,,,,,,,,,,,,,,,,,,,,,return,4.414999962,MUSCLE,FALSE,,,,,,,157,mussol,Catalan,Sounds/cat_mussol.mp3,2020-06-08_18h29.14.495,TranslationElicitation_eng-prolific,3.2.4,MacIntel,60,5eaff502f66eb1023c793616,4.414999962,1,0,81,50,1,80
,,,,,,,,,,,,,,,,,,,,,,,,,,,,,,,,,,,,,,,,,,,,,,,,,,,157,mussol,Catalan,Sounds/cat_mussol.mp3,2020-06-08_18h29.14.495,TranslationElicitation_eng-prolific,3.2.4,MacIntel,60,5eaff502f66eb1023c793616,,1,0,81,50,1,80
,,,,,,,,,,,,,,,,,,,,,,,,,,,,,,,,,,,,,,,,,i,1.565999985,I,FALSE,,,,,,,108,ampolla,Catalan,Sounds/cat_ampolla.mp3,2020-06-08_18h29.14.495,TranslationElicitation_eng-prolific,3.2.4,MacIntel,60,5eaff502f66eb1023c793616,,1,0,81,4,1,80
,,,,,,,,,,,,,,,,,,,,,,,,,,,,,,,,,,,,,,,,,m,1.766000032,IM,FALSE,,,,,,,108,ampolla,Catalan,Sounds/cat_ampolla.mp3,2020-06-08_18h29.14.495,TranslationElicitation_eng-prolific,3.2.4,MacIntel,60,5eaff502f66eb1023c793616,,1,0,81,4,1,80
,,,,,,,,,,,,,,,,,,,,,,,,,,,,,,,,,,,,,,,,,p,2.021000147,IMP,FALSE,,,,,,,108,ampolla,Catalan,Sounds/cat_ampolla.mp3,2020-06-08_18h29.14.495,TranslationElicitation_eng-prolific,3.2.4,MacIntel,60,5eaff502f66eb1023c793616,,1,0,81,4,1,80
,,,,,,,,,,,,,,,,,,,,,,,,,,,,,,,,,,,,,,,,,o,2.249000072,IMPO,FALSE,,,,,,,108,ampolla,Catalan,Sounds/cat_ampolla.mp3,2020-06-08_18h29.14.495,TranslationElicitation_eng-prolific,3.2.4,MacIntel,60,5eaff502f66eb1023c793616,,1,0,81,4,1,80
,,,,,,,,,,,,,,,,,,,,,,,,,,,,,,,,,,,,,,,,,r,2.317000151,IMPOR,FALSE,,,,,,,108,ampolla,Catalan,Sounds/cat_ampolla.mp3,2020-06-08_18h29.14.495,TranslationElicitation_eng-prolific,3.2.4,MacIntel,60,5eaff502f66eb1023c793616,,1,0,81,4,1,80
,,,,,,,,,,,,,,,,,,,,,,,,,,,,,,,,,,,,,,,,,t,2.532999992,IMPORT,FALSE,,,,,,,108,ampolla,Catalan,Sounds/cat_ampolla.mp3,2020-06-08_18h29.14.495,TranslationElicitation_eng-prolific,3.2.4,MacIntel,60,5eaff502f66eb1023c793616,,1,0,81,4,1,80
,,,,,,,,,,,,,,,,,,,,,,,,,,,,,,,,,,,,,,,,,a,2.616000175,IMPORTA,FALSE,,,,,,,108,ampolla,Catalan,Sounds/cat_ampolla.mp3,2020-06-08_18h29.14.495,TranslationElicitation_eng-prolific,3.2.4,MacIntel,60,5eaff502f66eb1023c793616,,1,0,81,4,1,80
,,,,,,,,,,,,,,,,,,,,,,,,,,,,,,,,,,,,,,,,,n,2.778000116,IMPORTAN,FALSE,,,,,,,108,ampolla,Catalan,Sounds/cat_ampolla.mp3,2020-06-08_18h29.14.495,TranslationElicitation_eng-prolific,3.2.4,MacIntel,60,5eaff502f66eb1023c793616,,1,0,81,4,1,80
,,,,,,,,,,,,,,,,,,,,,,,,,,,,,,,,,,,,,,,,,t,2.833000183,IMPORTANT,FALSE,,,,,,,108,ampolla,Catalan,Sounds/cat_ampolla.mp3,2020-06-08_18h29.14.495,TranslationElicitation_eng-prolific,3.2.4,MacIntel,60,5eaff502f66eb1023c793616,,1,0,81,4,1,80
,,,,,,,,,,,,,,,,,,,,,,,,,,,,,,,,,,,,,,,,,return,3.032999992,IMPORTANT,FALSE,,,,,,,108,ampolla,Catalan,Sounds/cat_ampolla.mp3,2020-06-08_18h29.14.495,TranslationElicitation_eng-prolific,3.2.4,MacIntel,60,5eaff502f66eb1023c793616,3.032999992,1,0,81,4,1,80
,,,,,,,,,,,,,,,,,,,,,,,,,,,,,,,,,,,,,,,,,,,,,,,,,,,108,ampolla,Catalan,Sounds/cat_ampolla.mp3,2020-06-08_18h29.14.495,TranslationElicitation_eng-prolific,3.2.4,MacIntel,60,5eaff502f66eb1023c793616,,1,0,81,4,1,80
,,,,,,,,,,,,,,,,,,,,,,,,,,,,,,,,,,,,,,,,,c,2.351999998,C,FALSE,,,,,,,123,cavall,Catalan,Sounds/cat_cavall.mp3,2020-06-08_18h29.14.495,TranslationElicitation_eng-prolific,3.2.4,MacIntel,60,5eaff502f66eb1023c793616,,1,0,81,18,1,80
,,,,,,,,,,,,,,,,,,,,,,,,,,,,,,,,,,,,,,,,,o,2.4599998,CO,FALSE,,,,,,,123,cavall,Catalan,Sounds/cat_cavall.mp3,2020-06-08_18h29.14.495,TranslationElicitation_eng-prolific,3.2.4,MacIntel,60,5eaff502f66eb1023c793616,,1,0,81,18,1,80
,,,,,,,,,,,,,,,,,,,,,,,,,,,,,,,,,,,,,,,,,v,2.731999874,COV,FALSE,,,,,,,123,cavall,Catalan,Sounds/cat_cavall.mp3,2020-06-08_18h29.14.495,TranslationElicitation_eng-prolific,3.2.4,MacIntel,60,5eaff502f66eb1023c793616,,1,0,81,18,1,80
,,,,,,,,,,,,,,,,,,,,,,,,,,,,,,,,,,,,,,,,,e,2.848999977,COVE,FALSE,,,,,,,123,cavall,Catalan,Sounds/cat_cavall.mp3,2020-06-08_18h29.14.495,TranslationElicitation_eng-prolific,3.2.4,MacIntel,60,5eaff502f66eb1023c793616,,1,0,81,18,1,80
,,,,,,,,,,,,,,,,,,,,,,,,,,,,,,,,,,,,,,,,,r,3.01699996,COVER,FALSE,,,,,,,123,cavall,Catalan,Sounds/cat_cavall.mp3,2020-06-08_18h29.14.495,TranslationElicitation_eng-prolific,3.2.4,MacIntel,60,5eaff502f66eb1023c793616,,1,0,81,18,1,80
,,,,,,,,,,,,,,,,,,,,,,,,,,,,,,,,,,,,,,,,,return,3.152999878,COVER,FALSE,,,,,,,123,cavall,Catalan,Sounds/cat_cavall.mp3,2020-06-08_18h29.14.495,TranslationElicitation_eng-prolific,3.2.4,MacIntel,60,5eaff502f66eb1023c793616,3.152999878,1,0,81,18,1,80
,,,,,,,,,,,,,,,,,,,,,,,,,,,,,,,,,,,,,,,,,,,,,,,,,,,123,cavall,Catalan,Sounds/cat_cavall.mp3,2020-06-08_18h29.14.495,TranslationElicitation_eng-prolific,3.2.4,MacIntel,60,5eaff502f66eb1023c793616,,1,0,81,18,1,80
,,,,,,,,,,,,,,,,,,,,,,,,,,,,,,,,,,,,,,,,,r,2.68200016,R,FALSE,,,,,,,148,lleo,Catalan,Sounds/cat_lleo.mp3,2020-06-08_18h29.14.495,TranslationElicitation_eng-prolific,3.2.4,MacIntel,60,5eaff502f66eb1023c793616,,1,0,81,41,1,80
,,,,,,,,,,,,,,,,,,,,,,,,,,,,,,,,,,,,,,,,,o,2.947999954,RO,FALSE,,,,,,,148,lleo,Catalan,Sounds/cat_lleo.mp3,2020-06-08_18h29.14.495,TranslationElicitation_eng-prolific,3.2.4,MacIntel,60,5eaff502f66eb1023c793616,,1,0,81,41,1,80
,,,,,,,,,,,,,,,,,,,,,,,,,,,,,,,,,,,,,,,,,w,3.032000065,ROW,FALSE,,,,,,,148,lleo,Catalan,Sounds/cat_lleo.mp3,2020-06-08_18h29.14.495,TranslationElicitation_eng-prolific,3.2.4,MacIntel,60,5eaff502f66eb1023c793616,,1,0,81,41,1,80
,,,,,,,,,,,,,,,,,,,,,,,,,,,,,,,,,,,,,,,,,return,3.21600008,ROW,FALSE,,,,,,,148,lleo,Catalan,Sounds/cat_lleo.mp3,2020-06-08_18h29.14.495,TranslationElicitation_eng-prolific,3.2.4,MacIntel,60,5eaff502f66eb1023c793616,3.21600008,1,0,81,41,1,80
