consentKey.keys,consentKey.rt,languageL1Key.keys,languageL1Key.rt,languageL2,languageL2OralKey.keys,languageL2OralKey.rt,languageL2WrittenKey.keys,languageL2WrittenKey.rt,languageL3OralKey.keys,languageL3OralKey.rt,languageL3WrittenKey.keys,languageL3WrittenKey.rt,languageCatalanOralKey.keys,languageCatalanOralKey.rt,languageCatalanWrittenKey.keys,languageCatalanWrittenKey.rt,languageCatalanTimeKey.keys,languageCatalanTimeKey.rt,languageSpanishOralKey.keys,languageSpanishOralKey.rt,languageSpanishWrittenKey.keys,languageSpanishWrittenKey.rt,languageSpanishTimeKey.keys,languageSpanishTimeKey.rt,age,demoSexKey.keys,demoSexKey.rt,demoEducationKey.keys,demoEducationKey.rt,city,demoVisionKey.keys,demoVisionKey.rt,demoLanguageKey.keys,demoLanguageKey.rt,setupLocationKey.keys,setupLocationKey.rt,setupNoiseKey.keys,setupNoiseKey.rt,instructionsKeys.keys,instructionsKeys.rt,keyPressed,keyPressTime,inputText,error,trialsPracticeSpanish.thisRepN,trialsPracticeSpanish.thisTrialN,trialsPracticeSpanish.thisN,trialsPracticeSpanish.thisIndex,trialsPracticeSpanish.ran,trialsPracticeSpanish.order,trial_id,word,test_language,soundfile,date,expName,psychopyVersion,OS,frameRate,participant,trialOffset,trialsSpanish.thisRepN,trialsSpanish.thisTrialN,trialsSpanish.thisN,trialsSpanish.thisIndex,trialsSpanish.ran,trialsSpanish.order
space,1.986000061,e,5.184000015,,,,,,,,,,1,8.003999949,1,11.32500005,2,8.871000051,2,4.22300005,1,2.545000076,2,3.407999992,21,f,3.179000139,3,10.53600001,BELFAST,y,4.769999981,y,8.617999792,5,5.15199995,1,11.12899995,space,3.269000053,h,4.665999889,H,FALSE,1,0,5,3,1,4,70,ola,Spanish,Sounds/spa_ola.mp3,2020-06-04_17h19.14.050,TranslationElicitation_eng-prolific,3.2.4,Win32,60,5eb2d2df52bcce074be5583a,,,,,,,
,,,,,,,,,,,,,,,,,,,,,,,,,,,,,,,,,,,,,,,,,o,5.549999952,HO,FALSE,1,0,5,3,1,4,70,ola,Spanish,Sounds/spa_ola.mp3,2020-06-04_17h19.14.050,TranslationElicitation_eng-prolific,3.2.4,Win32,60,5eb2d2df52bcce074be5583a,,,,,,,
,,,,,,,,,,,,,,,,,,,,,,,,,,,,,,,,,,,,,,,,,l,5.764999866,HOL,FALSE,1,0,5,3,1,4,70,ola,Spanish,Sounds/spa_ola.mp3,2020-06-04_17h19.14.050,TranslationElicitation_eng-prolific,3.2.4,Win32,60,5eb2d2df52bcce074be5583a,,,,,,,
,,,,,,,,,,,,,,,,,,,,,,,,,,,,,,,,,,,,,,,,,a,5.898999929,HOLA,FALSE,1,0,5,3,1,4,70,ola,Spanish,Sounds/spa_ola.mp3,2020-06-04_17h19.14.050,TranslationElicitation_eng-prolific,3.2.4,Win32,60,5eb2d2df52bcce074be5583a,,,,,,,
,,,,,,,,,,,,,,,,,,,,,,,,,,,,,,,,,,,,,,,,,space,7.017999887,HOLA ,FALSE,1,0,5,3,1,4,70,ola,Spanish,Sounds/spa_ola.mp3,2020-06-04_17h19.14.050,TranslationElicitation_eng-prolific,3.2.4,Win32,60,5eb2d2df52bcce074be5583a,,,,,,,
,,,,,,,,,,,,,,,,,,,,,,,,,,,,,,,,,,,,,,,,,return,7.997999907,HOLA ,FALSE,1,0,5,3,1,4,70,ola,Spanish,Sounds/spa_ola.mp3,2020-06-04_17h19.14.050,TranslationElicitation_eng-prolific,3.2.4,Win32,60,5eb2d2df52bcce074be5583a,7.997999907,,,,,,
,,,,,,,,,,,,,,,,,,,,,,,,,,,,,,,,,,,,,,,,,,,,,1,0,5,3,1,4,70,ola,Spanish,Sounds/spa_ola.mp3,2020-06-04_17h19.14.050,TranslationElicitation_eng-prolific,3.2.4,Win32,60,5eb2d2df52bcce074be5583a,,,,,,,
,,,,,,,,,,,,,,,,,,,,,,,,,,,,,,,,,,,,,,,,,c,1.617000103,C,FALSE,1,0,5,1,1,4,30,corona,Spanish,Sounds/spa_corona.mp3,2020-06-04_17h19.14.050,TranslationElicitation_eng-prolific,3.2.4,Win32,60,5eb2d2df52bcce074be5583a,,,,,,,
,,,,,,,,,,,,,,,,,,,,,,,,,,,,,,,,,,,,,,,,,o,1.883000135,CO,FALSE,1,0,5,1,1,4,30,corona,Spanish,Sounds/spa_corona.mp3,2020-06-04_17h19.14.050,TranslationElicitation_eng-prolific,3.2.4,Win32,60,5eb2d2df52bcce074be5583a,,,,,,,
,,,,,,,,,,,,,,,,,,,,,,,,,,,,,,,,,,,,,,,,,r,2.098999977,COR,FALSE,1,0,5,1,1,4,30,corona,Spanish,Sounds/spa_corona.mp3,2020-06-04_17h19.14.050,TranslationElicitation_eng-prolific,3.2.4,Win32,60,5eb2d2df52bcce074be5583a,,,,,,,
,,,,,,,,,,,,,,,,,,,,,,,,,,,,,,,,,,,,,,,,,n,2.366000175,CORN,FALSE,1,0,5,1,1,4,30,corona,Spanish,Sounds/spa_corona.mp3,2020-06-04_17h19.14.050,TranslationElicitation_eng-prolific,3.2.4,Win32,60,5eb2d2df52bcce074be5583a,,,,,,,
,,,,,,,,,,,,,,,,,,,,,,,,,,,,,,,,,,,,,,,,,backspace,3.148000002,COR,TRUE,1,0,5,1,1,4,30,corona,Spanish,Sounds/spa_corona.mp3,2020-06-04_17h19.14.050,TranslationElicitation_eng-prolific,3.2.4,Win32,60,5eb2d2df52bcce074be5583a,,,,,,,
,,,,,,,,,,,,,,,,,,,,,,,,,,,,,,,,,,,,,,,,,o,3.935000181,CORO,TRUE,1,0,5,1,1,4,30,corona,Spanish,Sounds/spa_corona.mp3,2020-06-04_17h19.14.050,TranslationElicitation_eng-prolific,3.2.4,Win32,60,5eb2d2df52bcce074be5583a,,,,,,,
,,,,,,,,,,,,,,,,,,,,,,,,,,,,,,,,,,,,,,,,,n,4.159000158,CORON,TRUE,1,0,5,1,1,4,30,corona,Spanish,Sounds/spa_corona.mp3,2020-06-04_17h19.14.050,TranslationElicitation_eng-prolific,3.2.4,Win32,60,5eb2d2df52bcce074be5583a,,,,,,,
,,,,,,,,,,,,,,,,,,,,,,,,,,,,,,,,,,,,,,,,,a,4.309000015,CORONA,TRUE,1,0,5,1,1,4,30,corona,Spanish,Sounds/spa_corona.mp3,2020-06-04_17h19.14.050,TranslationElicitation_eng-prolific,3.2.4,Win32,60,5eb2d2df52bcce074be5583a,,,,,,,
,,,,,,,,,,,,,,,,,,,,,,,,,,,,,,,,,,,,,,,,,return,4.805999994,CORONA,TRUE,1,0,5,1,1,4,30,corona,Spanish,Sounds/spa_corona.mp3,2020-06-04_17h19.14.050,TranslationElicitation_eng-prolific,3.2.4,Win32,60,5eb2d2df52bcce074be5583a,4.805999994,,,,,,
,,,,,,,,,,,,,,,,,,,,,,,,,,,,,,,,,,,,,,,,,,,,,1,0,5,1,1,4,30,corona,Spanish,Sounds/spa_corona.mp3,2020-06-04_17h19.14.050,TranslationElicitation_eng-prolific,3.2.4,Win32,60,5eb2d2df52bcce074be5583a,,,,,,,
,,,,,,,,,,,,,,,,,,,,,,,,,,,,,,,,,,,,,,,,,a,3.33100009,A,FALSE,1,0,5,0,1,4,1,arbol,Spanish,Sounds/spa_arbol.mp3,2020-06-04_17h19.14.050,TranslationElicitation_eng-prolific,3.2.4,Win32,60,5eb2d2df52bcce074be5583a,,,,,,,
,,,,,,,,,,,,,,,,,,,,,,,,,,,,,,,,,,,,,,,,,l,3.5,AL,FALSE,1,0,5,0,1,4,1,arbol,Spanish,Sounds/spa_arbol.mp3,2020-06-04_17h19.14.050,TranslationElicitation_eng-prolific,3.2.4,Win32,60,5eb2d2df52bcce074be5583a,,,,,,,
,,,,,,,,,,,,,,,,,,,,,,,,,,,,,,,,,,,,,,,,,b,4.037000179,ALB,FALSE,1,0,5,0,1,4,1,arbol,Spanish,Sounds/spa_arbol.mp3,2020-06-04_17h19.14.050,TranslationElicitation_eng-prolific,3.2.4,Win32,60,5eb2d2df52bcce074be5583a,,,,,,,
,,,,,,,,,,,,,,,,,,,,,,,,,,,,,,,,,,,,,,,,,o,4.73300004,ALBO,FALSE,1,0,5,0,1,4,1,arbol,Spanish,Sounds/spa_arbol.mp3,2020-06-04_17h19.14.050,TranslationElicitation_eng-prolific,3.2.4,Win32,60,5eb2d2df52bcce074be5583a,,,,,,,
,,,,,,,,,,,,,,,,,,,,,,,,,,,,,,,,,,,,,,,,,return,5.412000179,ALBO,FALSE,1,0,5,0,1,4,1,arbol,Spanish,Sounds/spa_arbol.mp3,2020-06-04_17h19.14.050,TranslationElicitation_eng-prolific,3.2.4,Win32,60,5eb2d2df52bcce074be5583a,5.412000179,,,,,,
,,,,,,,,,,,,,,,,,,,,,,,,,,,,,,,,,,,,,,,,,,,,,1,0,5,0,1,4,1,arbol,Spanish,Sounds/spa_arbol.mp3,2020-06-04_17h19.14.050,TranslationElicitation_eng-prolific,3.2.4,Win32,60,5eb2d2df52bcce074be5583a,,,,,,,
,,,,,,,,,,,,,,,,,,,,,,,,,,,,,,,,,,,,,,,,,c,1.450000048,C,FALSE,1,0,5,2,1,4,26,chaqueta,Spanish,Sounds/spa_chaqueta.mp3,2020-06-04_17h19.14.050,TranslationElicitation_eng-prolific,3.2.4,Win32,60,5eb2d2df52bcce074be5583a,,,,,,,
,,,,,,,,,,,,,,,,,,,,,,,,,,,,,,,,,,,,,,,,,h,1.600000143,CH,FALSE,1,0,5,2,1,4,26,chaqueta,Spanish,Sounds/spa_chaqueta.mp3,2020-06-04_17h19.14.050,TranslationElicitation_eng-prolific,3.2.4,Win32,60,5eb2d2df52bcce074be5583a,,,,,,,
,,,,,,,,,,,,,,,,,,,,,,,,,,,,,,,,,,,,,,,,,a,2.167000055,CHA,FALSE,1,0,5,2,1,4,26,chaqueta,Spanish,Sounds/spa_chaqueta.mp3,2020-06-04_17h19.14.050,TranslationElicitation_eng-prolific,3.2.4,Win32,60,5eb2d2df52bcce074be5583a,,,,,,,
,,,,,,,,,,,,,,,,,,,,,,,,,,,,,,,,,,,,,,,,,q,2.9150002,CHAQ,FALSE,1,0,5,2,1,4,26,chaqueta,Spanish,Sounds/spa_chaqueta.mp3,2020-06-04_17h19.14.050,TranslationElicitation_eng-prolific,3.2.4,Win32,60,5eb2d2df52bcce074be5583a,,,,,,,
,,,,,,,,,,,,,,,,,,,,,,,,,,,,,,,,,,,,,,,,,u,3.083000183,CHAQU,FALSE,1,0,5,2,1,4,26,chaqueta,Spanish,Sounds/spa_chaqueta.mp3,2020-06-04_17h19.14.050,TranslationElicitation_eng-prolific,3.2.4,Win32,60,5eb2d2df52bcce074be5583a,,,,,,,
,,,,,,,,,,,,,,,,,,,,,,,,,,,,,,,,,,,,,,,,,i,3.282999992,CHAQUI,FALSE,1,0,5,2,1,4,26,chaqueta,Spanish,Sounds/spa_chaqueta.mp3,2020-06-04_17h19.14.050,TranslationElicitation_eng-prolific,3.2.4,Win32,60,5eb2d2df52bcce074be5583a,,,,,,,
,,,,,,,,,,,,,,,,,,,,,,,,,,,,,,,,,,,,,,,,,t,3.565999985,CHAQUIT,FALSE,1,0,5,2,1,4,26,chaqueta,Spanish,Sounds/spa_chaqueta.mp3,2020-06-04_17h19.14.050,TranslationElicitation_eng-prolific,3.2.4,Win32,60,5eb2d2df52bcce074be5583a,,,,,,,
,,,,,,,,,,,,,,,,,,,,,,,,,,,,,,,,,,,,,,,,,a,3.674000025,CHAQUITA,FALSE,1,0,5,2,1,4,26,chaqueta,Spanish,Sounds/spa_chaqueta.mp3,2020-06-04_17h19.14.050,TranslationElicitation_eng-prolific,3.2.4,Win32,60,5eb2d2df52bcce074be5583a,,,,,,,
,,,,,,,,,,,,,,,,,,,,,,,,,,,,,,,,,,,,,,,,,return,4.100000143,CHAQUITA,FALSE,1,0,5,2,1,4,26,chaqueta,Spanish,Sounds/spa_chaqueta.mp3,2020-06-04_17h19.14.050,TranslationElicitation_eng-prolific,3.2.4,Win32,60,5eb2d2df52bcce074be5583a,4.100000143,,,,,,
,,,,,,,,,,,,,,,,,,,,,,,,,,,,,,,,,,,,,,,,,,,,,1,0,5,2,1,4,26,chaqueta,Spanish,Sounds/spa_chaqueta.mp3,2020-06-04_17h19.14.050,TranslationElicitation_eng-prolific,3.2.4,Win32,60,5eb2d2df52bcce074be5583a,,,,,,,
,,,,,,,,,,,,,,,,,,,,,,,,,,,,,,,,,,,,,,,,,t,1.401000023,T,FALSE,1,0,5,4,1,4,96,tigre,Spanish,Sounds/spa_tigre.mp3,2020-06-04_17h19.14.050,TranslationElicitation_eng-prolific,3.2.4,Win32,60,5eb2d2df52bcce074be5583a,,,,,,,
,,,,,,,,,,,,,,,,,,,,,,,,,,,,,,,,,,,,,,,,,e,1.701000214,TE,FALSE,1,0,5,4,1,4,96,tigre,Spanish,Sounds/spa_tigre.mp3,2020-06-04_17h19.14.050,TranslationElicitation_eng-prolific,3.2.4,Win32,60,5eb2d2df52bcce074be5583a,,,,,,,
,,,,,,,,,,,,,,,,,,,,,,,,,,,,,,,,,,,,,,,,,g,2.382000208,TEG,FALSE,1,0,5,4,1,4,96,tigre,Spanish,Sounds/spa_tigre.mp3,2020-06-04_17h19.14.050,TranslationElicitation_eng-prolific,3.2.4,Win32,60,5eb2d2df52bcce074be5583a,,,,,,,
,,,,,,,,,,,,,,,,,,,,,,,,,,,,,,,,,,,,,,,,,i,3.100000143,TEGI,FALSE,1,0,5,4,1,4,96,tigre,Spanish,Sounds/spa_tigre.mp3,2020-06-04_17h19.14.050,TranslationElicitation_eng-prolific,3.2.4,Win32,60,5eb2d2df52bcce074be5583a,,,,,,,
,,,,,,,,,,,,,,,,,,,,,,,,,,,,,,,,,,,,,,,,,r,3.75,TEGIR,FALSE,1,0,5,4,1,4,96,tigre,Spanish,Sounds/spa_tigre.mp3,2020-06-04_17h19.14.050,TranslationElicitation_eng-prolific,3.2.4,Win32,60,5eb2d2df52bcce074be5583a,,,,,,,
,,,,,,,,,,,,,,,,,,,,,,,,,,,,,,,,,,,,,,,,,a,3.918000221,TEGIRA,FALSE,1,0,5,4,1,4,96,tigre,Spanish,Sounds/spa_tigre.mp3,2020-06-04_17h19.14.050,TranslationElicitation_eng-prolific,3.2.4,Win32,60,5eb2d2df52bcce074be5583a,,,,,,,
,,,,,,,,,,,,,,,,,,,,,,,,,,,,,,,,,,,,,,,,,y,4.085000038,TEGIRAY,FALSE,1,0,5,4,1,4,96,tigre,Spanish,Sounds/spa_tigre.mp3,2020-06-04_17h19.14.050,TranslationElicitation_eng-prolific,3.2.4,Win32,60,5eb2d2df52bcce074be5583a,,,,,,,
,,,,,,,,,,,,,,,,,,,,,,,,,,,,,,,,,,,,,,,,,return,4.801000118,TEGIRAY,FALSE,1,0,5,4,1,4,96,tigre,Spanish,Sounds/spa_tigre.mp3,2020-06-04_17h19.14.050,TranslationElicitation_eng-prolific,3.2.4,Win32,60,5eb2d2df52bcce074be5583a,4.801000118,,,,,,
,,,,,,,,,,,,,,,,,,,,,,,,,,,,,,,,,,,,,,,,,,,,,1,0,5,4,1,4,96,tigre,Spanish,Sounds/spa_tigre.mp3,2020-06-04_17h19.14.050,TranslationElicitation_eng-prolific,3.2.4,Win32,60,5eb2d2df52bcce074be5583a,,,,,,,
,,,,,,,,,,,,,,,,,,,,,,,,,,,,,,,,,,,,,,,,,c,2.365999937,C,FALSE,,,,,,,20,caracol,Spanish,Sounds/spa_caracol.mp3,2020-06-04_17h19.14.050,TranslationElicitation_eng-prolific,3.2.4,Win32,60,5eb2d2df52bcce074be5583a,,1,0,98,18,1,97
,,,,,,,,,,,,,,,,,,,,,,,,,,,,,,,,,,,,,,,,,a,3.21600008,CA,FALSE,,,,,,,20,caracol,Spanish,Sounds/spa_caracol.mp3,2020-06-04_17h19.14.050,TranslationElicitation_eng-prolific,3.2.4,Win32,60,5eb2d2df52bcce074be5583a,,1,0,98,18,1,97
,,,,,,,,,,,,,,,,,,,,,,,,,,,,,,,,,,,,,,,,,r,4.23300004,CAR,FALSE,,,,,,,20,caracol,Spanish,Sounds/spa_caracol.mp3,2020-06-04_17h19.14.050,TranslationElicitation_eng-prolific,3.2.4,Win32,60,5eb2d2df52bcce074be5583a,,1,0,98,18,1,97
,,,,,,,,,,,,,,,,,,,,,,,,,,,,,,,,,,,,,,,,,o,4.417000055,CARO,FALSE,,,,,,,20,caracol,Spanish,Sounds/spa_caracol.mp3,2020-06-04_17h19.14.050,TranslationElicitation_eng-prolific,3.2.4,Win32,60,5eb2d2df52bcce074be5583a,,1,0,98,18,1,97
,,,,,,,,,,,,,,,,,,,,,,,,,,,,,,,,,,,,,,,,,c,5.23300004,CAROC,FALSE,,,,,,,20,caracol,Spanish,Sounds/spa_caracol.mp3,2020-06-04_17h19.14.050,TranslationElicitation_eng-prolific,3.2.4,Win32,60,5eb2d2df52bcce074be5583a,,1,0,98,18,1,97
,,,,,,,,,,,,,,,,,,,,,,,,,,,,,,,,,,,,,,,,,o,5.36500001,CAROCO,FALSE,,,,,,,20,caracol,Spanish,Sounds/spa_caracol.mp3,2020-06-04_17h19.14.050,TranslationElicitation_eng-prolific,3.2.4,Win32,60,5eb2d2df52bcce074be5583a,,1,0,98,18,1,97
,,,,,,,,,,,,,,,,,,,,,,,,,,,,,,,,,,,,,,,,,l,5.532999992,CAROCOL,FALSE,,,,,,,20,caracol,Spanish,Sounds/spa_caracol.mp3,2020-06-04_17h19.14.050,TranslationElicitation_eng-prolific,3.2.4,Win32,60,5eb2d2df52bcce074be5583a,,1,0,98,18,1,97
,,,,,,,,,,,,,,,,,,,,,,,,,,,,,,,,,,,,,,,,,return,8.282999992,CAROCOL,FALSE,,,,,,,20,caracol,Spanish,Sounds/spa_caracol.mp3,2020-06-04_17h19.14.050,TranslationElicitation_eng-prolific,3.2.4,Win32,60,5eb2d2df52bcce074be5583a,8.282999992,1,0,98,18,1,97
,,,,,,,,,,,,,,,,,,,,,,,,,,,,,,,,,,,,,,,,,,,,,,,,,,,20,caracol,Spanish,Sounds/spa_caracol.mp3,2020-06-04_17h19.14.050,TranslationElicitation_eng-prolific,3.2.4,Win32,60,5eb2d2df52bcce074be5583a,,1,0,98,18,1,97
,,,,,,,,,,,,,,,,,,,,,,,,,,,,,,,,,,,,,,,,,g,2.316999912,G,FALSE,,,,,,,46,grifo,Spanish,Sounds/spa_grifo.mp3,2020-06-04_17h19.14.050,TranslationElicitation_eng-prolific,3.2.4,Win32,60,5eb2d2df52bcce074be5583a,,1,0,98,42,1,97
,,,,,,,,,,,,,,,,,,,,,,,,,,,,,,,,,,,,,,,,,r,2.565999985,GR,FALSE,,,,,,,46,grifo,Spanish,Sounds/spa_grifo.mp3,2020-06-04_17h19.14.050,TranslationElicitation_eng-prolific,3.2.4,Win32,60,5eb2d2df52bcce074be5583a,,1,0,98,42,1,97
,,,,,,,,,,,,,,,,,,,,,,,,,,,,,,,,,,,,,,,,,i,2.881999969,GRI,FALSE,,,,,,,46,grifo,Spanish,Sounds/spa_grifo.mp3,2020-06-04_17h19.14.050,TranslationElicitation_eng-prolific,3.2.4,Win32,60,5eb2d2df52bcce074be5583a,,1,0,98,42,1,97
,,,,,,,,,,,,,,,,,,,,,,,,,,,,,,,,,,,,,,,,,e,2.964999914,GRIE,FALSE,,,,,,,46,grifo,Spanish,Sounds/spa_grifo.mp3,2020-06-04_17h19.14.050,TranslationElicitation_eng-prolific,3.2.4,Win32,60,5eb2d2df52bcce074be5583a,,1,0,98,42,1,97
,,,,,,,,,,,,,,,,,,,,,,,,,,,,,,,,,,,,,,,,,f,3.282000065,GRIEF,FALSE,,,,,,,46,grifo,Spanish,Sounds/spa_grifo.mp3,2020-06-04_17h19.14.050,TranslationElicitation_eng-prolific,3.2.4,Win32,60,5eb2d2df52bcce074be5583a,,1,0,98,42,1,97
,,,,,,,,,,,,,,,,,,,,,,,,,,,,,,,,,,,,,,,,,o,3.5,GRIEFO,FALSE,,,,,,,46,grifo,Spanish,Sounds/spa_grifo.mp3,2020-06-04_17h19.14.050,TranslationElicitation_eng-prolific,3.2.4,Win32,60,5eb2d2df52bcce074be5583a,,1,0,98,42,1,97
,,,,,,,,,,,,,,,,,,,,,,,,,,,,,,,,,,,,,,,,,return,4.049999952,GRIEFO,FALSE,,,,,,,46,grifo,Spanish,Sounds/spa_grifo.mp3,2020-06-04_17h19.14.050,TranslationElicitation_eng-prolific,3.2.4,Win32,60,5eb2d2df52bcce074be5583a,4.049999952,1,0,98,42,1,97
,,,,,,,,,,,,,,,,,,,,,,,,,,,,,,,,,,,,,,,,,,,,,,,,,,,46,grifo,Spanish,Sounds/spa_grifo.mp3,2020-06-04_17h19.14.050,TranslationElicitation_eng-prolific,3.2.4,Win32,60,5eb2d2df52bcce074be5583a,,1,0,98,42,1,97
,,,,,,,,,,,,,,,,,,,,,,,,,,,,,,,,,,,,,,,,,m,1.318000078,M,FALSE,,,,,,,65,mono,Spanish,Sounds/spa_mono.mp3,2020-06-04_17h19.14.050,TranslationElicitation_eng-prolific,3.2.4,Win32,60,5eb2d2df52bcce074be5583a,,1,0,98,61,1,97
,,,,,,,,,,,,,,,,,,,,,,,,,,,,,,,,,,,,,,,,,o,1.583000183,MO,FALSE,,,,,,,65,mono,Spanish,Sounds/spa_mono.mp3,2020-06-04_17h19.14.050,TranslationElicitation_eng-prolific,3.2.4,Win32,60,5eb2d2df52bcce074be5583a,,1,0,98,61,1,97
,,,,,,,,,,,,,,,,,,,,,,,,,,,,,,,,,,,,,,,,,n,1.800000191,MON,FALSE,,,,,,,65,mono,Spanish,Sounds/spa_mono.mp3,2020-06-04_17h19.14.050,TranslationElicitation_eng-prolific,3.2.4,Win32,60,5eb2d2df52bcce074be5583a,,1,0,98,61,1,97
,,,,,,,,,,,,,,,,,,,,,,,,,,,,,,,,,,,,,,,,,o,2.032999992,MONO,FALSE,,,,,,,65,mono,Spanish,Sounds/spa_mono.mp3,2020-06-04_17h19.14.050,TranslationElicitation_eng-prolific,3.2.4,Win32,60,5eb2d2df52bcce074be5583a,,1,0,98,61,1,97
,,,,,,,,,,,,,,,,,,,,,,,,,,,,,,,,,,,,,,,,,return,2.532000065,MONO,FALSE,,,,,,,65,mono,Spanish,Sounds/spa_mono.mp3,2020-06-04_17h19.14.050,TranslationElicitation_eng-prolific,3.2.4,Win32,60,5eb2d2df52bcce074be5583a,2.532000065,1,0,98,61,1,97
,,,,,,,,,,,,,,,,,,,,,,,,,,,,,,,,,,,,,,,,,,,,,,,,,,,65,mono,Spanish,Sounds/spa_mono.mp3,2020-06-04_17h19.14.050,TranslationElicitation_eng-prolific,3.2.4,Win32,60,5eb2d2df52bcce074be5583a,,1,0,98,61,1,97
,,,,,,,,,,,,,,,,,,,,,,,,,,,,,,,,,,,,,,,,,p,1.336000204,P,FALSE,,,,,,,77,pantalon,Spanish,Sounds/spa_pantalon.mp3,2020-06-04_17h19.14.050,TranslationElicitation_eng-prolific,3.2.4,Win32,60,5eb2d2df52bcce074be5583a,,1,0,98,72,1,97
,,,,,,,,,,,,,,,,,,,,,,,,,,,,,,,,,,,,,,,,,a,1.666000128,PA,FALSE,,,,,,,77,pantalon,Spanish,Sounds/spa_pantalon.mp3,2020-06-04_17h19.14.050,TranslationElicitation_eng-prolific,3.2.4,Win32,60,5eb2d2df52bcce074be5583a,,1,0,98,72,1,97
,,,,,,,,,,,,,,,,,,,,,,,,,,,,,,,,,,,,,,,,,n,2.433000088,PAN,FALSE,,,,,,,77,pantalon,Spanish,Sounds/spa_pantalon.mp3,2020-06-04_17h19.14.050,TranslationElicitation_eng-prolific,3.2.4,Win32,60,5eb2d2df52bcce074be5583a,,1,0,98,72,1,97
,,,,,,,,,,,,,,,,,,,,,,,,,,,,,,,,,,,,,,,,,t,3.032000065,PANT,FALSE,,,,,,,77,pantalon,Spanish,Sounds/spa_pantalon.mp3,2020-06-04_17h19.14.050,TranslationElicitation_eng-prolific,3.2.4,Win32,60,5eb2d2df52bcce074be5583a,,1,0,98,72,1,97
,,,,,,,,,,,,,,,,,,,,,,,,,,,,,,,,,,,,,,,,,a,3.600000143,PANTA,FALSE,,,,,,,77,pantalon,Spanish,Sounds/spa_pantalon.mp3,2020-06-04_17h19.14.050,TranslationElicitation_eng-prolific,3.2.4,Win32,60,5eb2d2df52bcce074be5583a,,1,0,98,72,1,97
,,,,,,,,,,,,,,,,,,,,,,,,,,,,,,,,,,,,,,,,,l,3.867000103,PANTAL,FALSE,,,,,,,77,pantalon,Spanish,Sounds/spa_pantalon.mp3,2020-06-04_17h19.14.050,TranslationElicitation_eng-prolific,3.2.4,Win32,60,5eb2d2df52bcce074be5583a,,1,0,98,72,1,97
,,,,,,,,,,,,,,,,,,,,,,,,,,,,,,,,,,,,,,,,,o,4.067000151,PANTALO,FALSE,,,,,,,77,pantalon,Spanish,Sounds/spa_pantalon.mp3,2020-06-04_17h19.14.050,TranslationElicitation_eng-prolific,3.2.4,Win32,60,5eb2d2df52bcce074be5583a,,1,0,98,72,1,97
,,,,,,,,,,,,,,,,,,,,,,,,,,,,,,,,,,,,,,,,,n,4.249000072,PANTALON,FALSE,,,,,,,77,pantalon,Spanish,Sounds/spa_pantalon.mp3,2020-06-04_17h19.14.050,TranslationElicitation_eng-prolific,3.2.4,Win32,60,5eb2d2df52bcce074be5583a,,1,0,98,72,1,97
,,,,,,,,,,,,,,,,,,,,,,,,,,,,,,,,,,,,,,,,,return,4.69900012,PANTALON,FALSE,,,,,,,77,pantalon,Spanish,Sounds/spa_pantalon.mp3,2020-06-04_17h19.14.050,TranslationElicitation_eng-prolific,3.2.4,Win32,60,5eb2d2df52bcce074be5583a,4.69900012,1,0,98,72,1,97
,,,,,,,,,,,,,,,,,,,,,,,,,,,,,,,,,,,,,,,,,,,,,,,,,,,77,pantalon,Spanish,Sounds/spa_pantalon.mp3,2020-06-04_17h19.14.050,TranslationElicitation_eng-prolific,3.2.4,Win32,60,5eb2d2df52bcce074be5583a,,1,0,98,72,1,97
,,,,,,,,,,,,,,,,,,,,,,,,,,,,,,,,,,,,,,,,,o,1.967000008,O,FALSE,,,,,,,7,bocadillo,Spanish,Sounds/spa_bocadillo.mp3,2020-06-04_17h19.14.050,TranslationElicitation_eng-prolific,3.2.4,Win32,60,5eb2d2df52bcce074be5583a,,1,0,98,5,1,97
,,,,,,,,,,,,,,,,,,,,,,,,,,,,,,,,,,,,,,,,,backspace,3.365999937,,TRUE,,,,,,,7,bocadillo,Spanish,Sounds/spa_bocadillo.mp3,2020-06-04_17h19.14.050,TranslationElicitation_eng-prolific,3.2.4,Win32,60,5eb2d2df52bcce074be5583a,,1,0,98,5,1,97
,,,,,,,,,,,,,,,,,,,,,,,,,,,,,,,,,,,,,,,,,b,4.681999922,B,TRUE,,,,,,,7,bocadillo,Spanish,Sounds/spa_bocadillo.mp3,2020-06-04_17h19.14.050,TranslationElicitation_eng-prolific,3.2.4,Win32,60,5eb2d2df52bcce074be5583a,,1,0,98,5,1,97
,,,,,,,,,,,,,,,,,,,,,,,,,,,,,,,,,,,,,,,,,o,5.08100009,BO,TRUE,,,,,,,7,bocadillo,Spanish,Sounds/spa_bocadillo.mp3,2020-06-04_17h19.14.050,TranslationElicitation_eng-prolific,3.2.4,Win32,60,5eb2d2df52bcce074be5583a,,1,0,98,5,1,97
,,,,,,,,,,,,,,,,,,,,,,,,,,,,,,,,,,,,,,,,,c,5.947999954,BOC,TRUE,,,,,,,7,bocadillo,Spanish,Sounds/spa_bocadillo.mp3,2020-06-04_17h19.14.050,TranslationElicitation_eng-prolific,3.2.4,Win32,60,5eb2d2df52bcce074be5583a,,1,0,98,5,1,97
,,,,,,,,,,,,,,,,,,,,,,,,,,,,,,,,,,,,,,,,,a,6.36500001,BOCA,TRUE,,,,,,,7,bocadillo,Spanish,Sounds/spa_bocadillo.mp3,2020-06-04_17h19.14.050,TranslationElicitation_eng-prolific,3.2.4,Win32,60,5eb2d2df52bcce074be5583a,,1,0,98,5,1,97
,,,,,,,,,,,,,,,,,,,,,,,,,,,,,,,,,,,,,,,,,l,6.664000034,BOCAL,TRUE,,,,,,,7,bocadillo,Spanish,Sounds/spa_bocadillo.mp3,2020-06-04_17h19.14.050,TranslationElicitation_eng-prolific,3.2.4,Win32,60,5eb2d2df52bcce074be5583a,,1,0,98,5,1,97
,,,,,,,,,,,,,,,,,,,,,,,,,,,,,,,,,,,,,,,,,e,8.846999884,BOCALE,TRUE,,,,,,,7,bocadillo,Spanish,Sounds/spa_bocadillo.mp3,2020-06-04_17h19.14.050,TranslationElicitation_eng-prolific,3.2.4,Win32,60,5eb2d2df52bcce074be5583a,,1,0,98,5,1,97
,,,,,,,,,,,,,,,,,,,,,,,,,,,,,,,,,,,,,,,,,i,9.013999939,BOCALEI,TRUE,,,,,,,7,bocadillo,Spanish,Sounds/spa_bocadillo.mp3,2020-06-04_17h19.14.050,TranslationElicitation_eng-prolific,3.2.4,Win32,60,5eb2d2df52bcce074be5583a,,1,0,98,5,1,97
,,,,,,,,,,,,,,,,,,,,,,,,,,,,,,,,,,,,,,,,,o,10.43000007,BOCALEIO,TRUE,,,,,,,7,bocadillo,Spanish,Sounds/spa_bocadillo.mp3,2020-06-04_17h19.14.050,TranslationElicitation_eng-prolific,3.2.4,Win32,60,5eb2d2df52bcce074be5583a,,1,0,98,5,1,97
,,,,,,,,,,,,,,,,,,,,,,,,,,,,,,,,,,,,,,,,,return,10.87999988,BOCALEIO,TRUE,,,,,,,7,bocadillo,Spanish,Sounds/spa_bocadillo.mp3,2020-06-04_17h19.14.050,TranslationElicitation_eng-prolific,3.2.4,Win32,60,5eb2d2df52bcce074be5583a,10.87999988,1,0,98,5,1,97
,,,,,,,,,,,,,,,,,,,,,,,,,,,,,,,,,,,,,,,,,,,,,,,,,,,7,bocadillo,Spanish,Sounds/spa_bocadillo.mp3,2020-06-04_17h19.14.050,TranslationElicitation_eng-prolific,3.2.4,Win32,60,5eb2d2df52bcce074be5583a,,1,0,98,5,1,97
,,,,,,,,,,,,,,,,,,,,,,,,,,,,,,,,,,,,,,,,,b,2.047999859,B,FALSE,,,,,,,63,mesa,Spanish,Sounds/spa_mesa.mp3,2020-06-04_17h19.14.050,TranslationElicitation_eng-prolific,3.2.4,Win32,60,5eb2d2df52bcce074be5583a,,1,0,98,59,1,97
,,,,,,,,,,,,,,,,,,,,,,,,,,,,,,,,,,,,,,,,,e,2.181999922,BE,FALSE,,,,,,,63,mesa,Spanish,Sounds/spa_mesa.mp3,2020-06-04_17h19.14.050,TranslationElicitation_eng-prolific,3.2.4,Win32,60,5eb2d2df52bcce074be5583a,,1,0,98,59,1,97
,,,,,,,,,,,,,,,,,,,,,,,,,,,,,,,,,,,,,,,,,s,2.848999977,BES,FALSE,,,,,,,63,mesa,Spanish,Sounds/spa_mesa.mp3,2020-06-04_17h19.14.050,TranslationElicitation_eng-prolific,3.2.4,Win32,60,5eb2d2df52bcce074be5583a,,1,0,98,59,1,97
,,,,,,,,,,,,,,,,,,,,,,,,,,,,,,,,,,,,,,,,,s,2.984999895,BESS,FALSE,,,,,,,63,mesa,Spanish,Sounds/spa_mesa.mp3,2020-06-04_17h19.14.050,TranslationElicitation_eng-prolific,3.2.4,Win32,60,5eb2d2df52bcce074be5583a,,1,0,98,59,1,97
,,,,,,,,,,,,,,,,,,,,,,,,,,,,,,,,,,,,,,,,,a,3.207000017,BESSA,FALSE,,,,,,,63,mesa,Spanish,Sounds/spa_mesa.mp3,2020-06-04_17h19.14.050,TranslationElicitation_eng-prolific,3.2.4,Win32,60,5eb2d2df52bcce074be5583a,,1,0,98,59,1,97
,,,,,,,,,,,,,,,,,,,,,,,,,,,,,,,,,,,,,,,,,return,4.348999977,BESSA,FALSE,,,,,,,63,mesa,Spanish,Sounds/spa_mesa.mp3,2020-06-04_17h19.14.050,TranslationElicitation_eng-prolific,3.2.4,Win32,60,5eb2d2df52bcce074be5583a,4.348999977,1,0,98,59,1,97
,,,,,,,,,,,,,,,,,,,,,,,,,,,,,,,,,,,,,,,,,,,,,,,,,,,63,mesa,Spanish,Sounds/spa_mesa.mp3,2020-06-04_17h19.14.050,TranslationElicitation_eng-prolific,3.2.4,Win32,60,5eb2d2df52bcce074be5583a,,1,0,98,59,1,97
,,,,,,,,,,,,,,,,,,,,,,,,,,,,,,,,,,,,,,,,,g,1.717000008,G,FALSE,,,,,,,47,guitarra,Spanish,Sounds/spa_guitarra.mp3,2020-06-04_17h19.14.050,TranslationElicitation_eng-prolific,3.2.4,Win32,60,5eb2d2df52bcce074be5583a,,1,0,98,43,1,97
,,,,,,,,,,,,,,,,,,,,,,,,,,,,,,,,,,,,,,,,,u,2.098999977,GU,FALSE,,,,,,,47,guitarra,Spanish,Sounds/spa_guitarra.mp3,2020-06-04_17h19.14.050,TranslationElicitation_eng-prolific,3.2.4,Win32,60,5eb2d2df52bcce074be5583a,,1,0,98,43,1,97
,,,,,,,,,,,,,,,,,,,,,,,,,,,,,,,,,,,,,,,,,i,2.865999937,GUI,FALSE,,,,,,,47,guitarra,Spanish,Sounds/spa_guitarra.mp3,2020-06-04_17h19.14.050,TranslationElicitation_eng-prolific,3.2.4,Win32,60,5eb2d2df52bcce074be5583a,,1,0,98,43,1,97
,,,,,,,,,,,,,,,,,,,,,,,,,,,,,,,,,,,,,,,,,t,3.281999826,GUIT,FALSE,,,,,,,47,guitarra,Spanish,Sounds/spa_guitarra.mp3,2020-06-04_17h19.14.050,TranslationElicitation_eng-prolific,3.2.4,Win32,60,5eb2d2df52bcce074be5583a,,1,0,98,43,1,97
,,,,,,,,,,,,,,,,,,,,,,,,,,,,,,,,,,,,,,,,,a,3.549999952,GUITA,FALSE,,,,,,,47,guitarra,Spanish,Sounds/spa_guitarra.mp3,2020-06-04_17h19.14.050,TranslationElicitation_eng-prolific,3.2.4,Win32,60,5eb2d2df52bcce074be5583a,,1,0,98,43,1,97
,,,,,,,,,,,,,,,,,,,,,,,,,,,,,,,,,,,,,,,,,r,3.782999992,GUITAR,FALSE,,,,,,,47,guitarra,Spanish,Sounds/spa_guitarra.mp3,2020-06-04_17h19.14.050,TranslationElicitation_eng-prolific,3.2.4,Win32,60,5eb2d2df52bcce074be5583a,,1,0,98,43,1,97
,,,,,,,,,,,,,,,,,,,,,,,,,,,,,,,,,,,,,,,,,r,5.814999819,GUITARR,FALSE,,,,,,,47,guitarra,Spanish,Sounds/spa_guitarra.mp3,2020-06-04_17h19.14.050,TranslationElicitation_eng-prolific,3.2.4,Win32,60,5eb2d2df52bcce074be5583a,,1,0,98,43,1,97
,,,,,,,,,,,,,,,,,,,,,,,,,,,,,,,,,,,,,,,,,a,5.950999975,GUITARRA,FALSE,,,,,,,47,guitarra,Spanish,Sounds/spa_guitarra.mp3,2020-06-04_17h19.14.050,TranslationElicitation_eng-prolific,3.2.4,Win32,60,5eb2d2df52bcce074be5583a,,1,0,98,43,1,97
,,,,,,,,,,,,,,,,,,,,,,,,,,,,,,,,,,,,,,,,,return,8.030999899,GUITARRA,FALSE,,,,,,,47,guitarra,Spanish,Sounds/spa_guitarra.mp3,2020-06-04_17h19.14.050,TranslationElicitation_eng-prolific,3.2.4,Win32,60,5eb2d2df52bcce074be5583a,8.030999899,1,0,98,43,1,97
,,,,,,,,,,,,,,,,,,,,,,,,,,,,,,,,,,,,,,,,,,,,,,,,,,,47,guitarra,Spanish,Sounds/spa_guitarra.mp3,2020-06-04_17h19.14.050,TranslationElicitation_eng-prolific,3.2.4,Win32,60,5eb2d2df52bcce074be5583a,,1,0,98,43,1,97
,,,,,,,,,,,,,,,,,,,,,,,,,,,,,,,,,,,,,,,,,return,8.578999996,,FALSE,,,,,,,76,panal,Spanish,Sounds/spa_panal.mp3,2020-06-04_17h19.14.050,TranslationElicitation_eng-prolific,3.2.4,Win32,60,5eb2d2df52bcce074be5583a,8.578999996,1,0,98,71,1,97
,,,,,,,,,,,,,,,,,,,,,,,,,,,,,,,,,,,,,,,,,,,,,,,,,,,76,panal,Spanish,Sounds/spa_panal.mp3,2020-06-04_17h19.14.050,TranslationElicitation_eng-prolific,3.2.4,Win32,60,5eb2d2df52bcce074be5583a,,1,0,98,71,1,97
,,,,,,,,,,,,,,,,,,,,,,,,,,,,,,,,,,,,,,,,,return,3.104000092,,FALSE,,,,,,,74,pajaro,Spanish,Sounds/spa_pajaro.mp3,2020-06-04_17h19.14.050,TranslationElicitation_eng-prolific,3.2.4,Win32,60,5eb2d2df52bcce074be5583a,3.104000092,1,0,98,69,1,97
,,,,,,,,,,,,,,,,,,,,,,,,,,,,,,,,,,,,,,,,,,,,,,,,,,,74,pajaro,Spanish,Sounds/spa_pajaro.mp3,2020-06-04_17h19.14.050,TranslationElicitation_eng-prolific,3.2.4,Win32,60,5eb2d2df52bcce074be5583a,,1,0,98,69,1,97
,,,,,,,,,,,,,,,,,,,,,,,,,,,,,,,,,,,,,,,,,p,3.532999992,P,FALSE,,,,,,,88,plato,Spanish,Sounds/spa_plato.mp3,2020-06-04_17h19.14.050,TranslationElicitation_eng-prolific,3.2.4,Win32,60,5eb2d2df52bcce074be5583a,,1,0,98,83,1,97
,,,,,,,,,,,,,,,,,,,,,,,,,,,,,,,,,,,,,,,,,l,3.73300004,PL,FALSE,,,,,,,88,plato,Spanish,Sounds/spa_plato.mp3,2020-06-04_17h19.14.050,TranslationElicitation_eng-prolific,3.2.4,Win32,60,5eb2d2df52bcce074be5583a,,1,0,98,83,1,97
,,,,,,,,,,,,,,,,,,,,,,,,,,,,,,,,,,,,,,,,,a,3.868000031,PLA,FALSE,,,,,,,88,plato,Spanish,Sounds/spa_plato.mp3,2020-06-04_17h19.14.050,TranslationElicitation_eng-prolific,3.2.4,Win32,60,5eb2d2df52bcce074be5583a,,1,0,98,83,1,97
,,,,,,,,,,,,,,,,,,,,,,,,,,,,,,,,,,,,,,,,,t,4.118000031,PLAT,FALSE,,,,,,,88,plato,Spanish,Sounds/spa_plato.mp3,2020-06-04_17h19.14.050,TranslationElicitation_eng-prolific,3.2.4,Win32,60,5eb2d2df52bcce074be5583a,,1,0,98,83,1,97
,,,,,,,,,,,,,,,,,,,,,,,,,,,,,,,,,,,,,,,,,o,4.416999817,PLATO,FALSE,,,,,,,88,plato,Spanish,Sounds/spa_plato.mp3,2020-06-04_17h19.14.050,TranslationElicitation_eng-prolific,3.2.4,Win32,60,5eb2d2df52bcce074be5583a,,1,0,98,83,1,97
,,,,,,,,,,,,,,,,,,,,,,,,,,,,,,,,,,,,,,,,,return,5.118000031,PLATO,FALSE,,,,,,,88,plato,Spanish,Sounds/spa_plato.mp3,2020-06-04_17h19.14.050,TranslationElicitation_eng-prolific,3.2.4,Win32,60,5eb2d2df52bcce074be5583a,5.118000031,1,0,98,83,1,97
,,,,,,,,,,,,,,,,,,,,,,,,,,,,,,,,,,,,,,,,,,,,,,,,,,,88,plato,Spanish,Sounds/spa_plato.mp3,2020-06-04_17h19.14.050,TranslationElicitation_eng-prolific,3.2.4,Win32,60,5eb2d2df52bcce074be5583a,,1,0,98,83,1,97
,,,,,,,,,,,,,,,,,,,,,,,,,,,,,,,,,,,,,,,,,p,2.213999987,P,FALSE,,,,,,,6,boca,Spanish,Sounds/spa_boca.mp3,2020-06-04_17h19.14.050,TranslationElicitation_eng-prolific,3.2.4,Win32,60,5eb2d2df52bcce074be5583a,,1,0,98,4,1,97
,,,,,,,,,,,,,,,,,,,,,,,,,,,,,,,,,,,,,,,,,o,2.398000002,PO,FALSE,,,,,,,6,boca,Spanish,Sounds/spa_boca.mp3,2020-06-04_17h19.14.050,TranslationElicitation_eng-prolific,3.2.4,Win32,60,5eb2d2df52bcce074be5583a,,1,0,98,4,1,97
,,,,,,,,,,,,,,,,,,,,,,,,,,,,,,,,,,,,,,,,,c,2.764000177,POC,FALSE,,,,,,,6,boca,Spanish,Sounds/spa_boca.mp3,2020-06-04_17h19.14.050,TranslationElicitation_eng-prolific,3.2.4,Win32,60,5eb2d2df52bcce074be5583a,,1,0,98,4,1,97
,,,,,,,,,,,,,,,,,,,,,,,,,,,,,,,,,,,,,,,,,a,2.881000042,POCA,FALSE,,,,,,,6,boca,Spanish,Sounds/spa_boca.mp3,2020-06-04_17h19.14.050,TranslationElicitation_eng-prolific,3.2.4,Win32,60,5eb2d2df52bcce074be5583a,,1,0,98,4,1,97
,,,,,,,,,,,,,,,,,,,,,,,,,,,,,,,,,,,,,,,,,return,3.197000027,POCA,FALSE,,,,,,,6,boca,Spanish,Sounds/spa_boca.mp3,2020-06-04_17h19.14.050,TranslationElicitation_eng-prolific,3.2.4,Win32,60,5eb2d2df52bcce074be5583a,3.197000027,1,0,98,4,1,97
,,,,,,,,,,,,,,,,,,,,,,,,,,,,,,,,,,,,,,,,,,,,,,,,,,,6,boca,Spanish,Sounds/spa_boca.mp3,2020-06-04_17h19.14.050,TranslationElicitation_eng-prolific,3.2.4,Win32,60,5eb2d2df52bcce074be5583a,,1,0,98,4,1,97
,,,,,,,,,,,,,,,,,,,,,,,,,,,,,,,,,,,,,,,,,p,1.715999842,P,FALSE,,,,,,,10,botella,Spanish,Sounds/spa_botella.mp3,2020-06-04_17h19.14.050,TranslationElicitation_eng-prolific,3.2.4,Win32,60,5eb2d2df52bcce074be5583a,,1,0,98,8,1,97
,,,,,,,,,,,,,,,,,,,,,,,,,,,,,,,,,,,,,,,,,o,1.914000034,PO,FALSE,,,,,,,10,botella,Spanish,Sounds/spa_botella.mp3,2020-06-04_17h19.14.050,TranslationElicitation_eng-prolific,3.2.4,Win32,60,5eb2d2df52bcce074be5583a,,1,0,98,8,1,97
,,,,,,,,,,,,,,,,,,,,,,,,,,,,,,,,,,,,,,,,,t,2.247999907,POT,FALSE,,,,,,,10,botella,Spanish,Sounds/spa_botella.mp3,2020-06-04_17h19.14.050,TranslationElicitation_eng-prolific,3.2.4,Win32,60,5eb2d2df52bcce074be5583a,,1,0,98,8,1,97
,,,,,,,,,,,,,,,,,,,,,,,,,,,,,,,,,,,,,,,,,a,2.363999844,POTA,FALSE,,,,,,,10,botella,Spanish,Sounds/spa_botella.mp3,2020-06-04_17h19.14.050,TranslationElicitation_eng-prolific,3.2.4,Win32,60,5eb2d2df52bcce074be5583a,,1,0,98,8,1,97
,,,,,,,,,,,,,,,,,,,,,,,,,,,,,,,,,,,,,,,,,t,2.513999939,POTAT,FALSE,,,,,,,10,botella,Spanish,Sounds/spa_botella.mp3,2020-06-04_17h19.14.050,TranslationElicitation_eng-prolific,3.2.4,Win32,60,5eb2d2df52bcce074be5583a,,1,0,98,8,1,97
,,,,,,,,,,,,,,,,,,,,,,,,,,,,,,,,,,,,,,,,,o,3.266000032,POTATO,FALSE,,,,,,,10,botella,Spanish,Sounds/spa_botella.mp3,2020-06-04_17h19.14.050,TranslationElicitation_eng-prolific,3.2.4,Win32,60,5eb2d2df52bcce074be5583a,,1,0,98,8,1,97
,,,,,,,,,,,,,,,,,,,,,,,,,,,,,,,,,,,,,,,,,return,3.555999994,POTATO,FALSE,,,,,,,10,botella,Spanish,Sounds/spa_botella.mp3,2020-06-04_17h19.14.050,TranslationElicitation_eng-prolific,3.2.4,Win32,60,5eb2d2df52bcce074be5583a,3.555999994,1,0,98,8,1,97
,,,,,,,,,,,,,,,,,,,,,,,,,,,,,,,,,,,,,,,,,,,,,,,,,,,10,botella,Spanish,Sounds/spa_botella.mp3,2020-06-04_17h19.14.050,TranslationElicitation_eng-prolific,3.2.4,Win32,60,5eb2d2df52bcce074be5583a,,1,0,98,8,1,97
,,,,,,,,,,,,,,,,,,,,,,,,,,,,,,,,,,,,,,,,,m,3.082000017,M,FALSE,,,,,,,53,leche,Spanish,Sounds/spa_leche.mp3,2020-06-04_17h19.14.050,TranslationElicitation_eng-prolific,3.2.4,Win32,60,5eb2d2df52bcce074be5583a,,1,0,98,49,1,97
,,,,,,,,,,,,,,,,,,,,,,,,,,,,,,,,,,,,,,,,,i,3.313999891,MI,FALSE,,,,,,,53,leche,Spanish,Sounds/spa_leche.mp3,2020-06-04_17h19.14.050,TranslationElicitation_eng-prolific,3.2.4,Win32,60,5eb2d2df52bcce074be5583a,,1,0,98,49,1,97
,,,,,,,,,,,,,,,,,,,,,,,,,,,,,,,,,,,,,,,,,l,3.514999866,MIL,FALSE,,,,,,,53,leche,Spanish,Sounds/spa_leche.mp3,2020-06-04_17h19.14.050,TranslationElicitation_eng-prolific,3.2.4,Win32,60,5eb2d2df52bcce074be5583a,,1,0,98,49,1,97
,,,,,,,,,,,,,,,,,,,,,,,,,,,,,,,,,,,,,,,,,k,3.697999954,MILK,FALSE,,,,,,,53,leche,Spanish,Sounds/spa_leche.mp3,2020-06-04_17h19.14.050,TranslationElicitation_eng-prolific,3.2.4,Win32,60,5eb2d2df52bcce074be5583a,,1,0,98,49,1,97
,,,,,,,,,,,,,,,,,,,,,,,,,,,,,,,,,,,,,,,,,return,4.347999811,MILK,FALSE,,,,,,,53,leche,Spanish,Sounds/spa_leche.mp3,2020-06-04_17h19.14.050,TranslationElicitation_eng-prolific,3.2.4,Win32,60,5eb2d2df52bcce074be5583a,4.347999811,1,0,98,49,1,97
,,,,,,,,,,,,,,,,,,,,,,,,,,,,,,,,,,,,,,,,,,,,,,,,,,,53,leche,Spanish,Sounds/spa_leche.mp3,2020-06-04_17h19.14.050,TranslationElicitation_eng-prolific,3.2.4,Win32,60,5eb2d2df52bcce074be5583a,,1,0,98,49,1,97
,,,,,,,,,,,,,,,,,,,,,,,,,,,,,,,,,,,,,,,,,return,3.865999937,,FALSE,,,,,,,102,ventana,Spanish,Sounds/spa_ventana.mp3,2020-06-04_17h19.14.050,TranslationElicitation_eng-prolific,3.2.4,Win32,60,5eb2d2df52bcce074be5583a,3.865999937,1,0,98,96,1,97
,,,,,,,,,,,,,,,,,,,,,,,,,,,,,,,,,,,,,,,,,,,,,,,,,,,102,ventana,Spanish,Sounds/spa_ventana.mp3,2020-06-04_17h19.14.050,TranslationElicitation_eng-prolific,3.2.4,Win32,60,5eb2d2df52bcce074be5583a,,1,0,98,96,1,97
,,,,,,,,,,,,,,,,,,,,,,,,,,,,,,,,,,,,,,,,,p,3.483999968,P,FALSE,,,,,,,87,platano,Spanish,Sounds/spa_platano.mp3,2020-06-04_17h19.14.050,TranslationElicitation_eng-prolific,3.2.4,Win32,60,5eb2d2df52bcce074be5583a,,1,0,98,82,1,97
,,,,,,,,,,,,,,,,,,,,,,,,,,,,,,,,,,,,,,,,,a,3.584000111,PA,FALSE,,,,,,,87,platano,Spanish,Sounds/spa_platano.mp3,2020-06-04_17h19.14.050,TranslationElicitation_eng-prolific,3.2.4,Win32,60,5eb2d2df52bcce074be5583a,,1,0,98,82,1,97
,,,,,,,,,,,,,,,,,,,,,,,,,,,,,,,,,,,,,,,,,p,3.667999983,PAP,FALSE,,,,,,,87,platano,Spanish,Sounds/spa_platano.mp3,2020-06-04_17h19.14.050,TranslationElicitation_eng-prolific,3.2.4,Win32,60,5eb2d2df52bcce074be5583a,,1,0,98,82,1,97
,,,,,,,,,,,,,,,,,,,,,,,,,,,,,,,,,,,,,,,,,e,4.01699996,PAPE,FALSE,,,,,,,87,platano,Spanish,Sounds/spa_platano.mp3,2020-06-04_17h19.14.050,TranslationElicitation_eng-prolific,3.2.4,Win32,60,5eb2d2df52bcce074be5583a,,1,0,98,82,1,97
,,,,,,,,,,,,,,,,,,,,,,,,,,,,,,,,,,,,,,,,,r,4.365999937,PAPER,FALSE,,,,,,,87,platano,Spanish,Sounds/spa_platano.mp3,2020-06-04_17h19.14.050,TranslationElicitation_eng-prolific,3.2.4,Win32,60,5eb2d2df52bcce074be5583a,,1,0,98,82,1,97
,,,,,,,,,,,,,,,,,,,,,,,,,,,,,,,,,,,,,,,,,return,4.750999928,PAPER,FALSE,,,,,,,87,platano,Spanish,Sounds/spa_platano.mp3,2020-06-04_17h19.14.050,TranslationElicitation_eng-prolific,3.2.4,Win32,60,5eb2d2df52bcce074be5583a,4.750999928,1,0,98,82,1,97
,,,,,,,,,,,,,,,,,,,,,,,,,,,,,,,,,,,,,,,,,,,,,,,,,,,87,platano,Spanish,Sounds/spa_platano.mp3,2020-06-04_17h19.14.050,TranslationElicitation_eng-prolific,3.2.4,Win32,60,5eb2d2df52bcce074be5583a,,1,0,98,82,1,97
,,,,,,,,,,,,,,,,,,,,,,,,,,,,,,,,,,,,,,,,,b,2.382999897,B,FALSE,,,,,,,11,boton,Spanish,Sounds/spa_boton.mp3,2020-06-04_17h19.14.050,TranslationElicitation_eng-prolific,3.2.4,Win32,60,5eb2d2df52bcce074be5583a,,1,0,98,9,1,97
,,,,,,,,,,,,,,,,,,,,,,,,,,,,,,,,,,,,,,,,,u,2.649999857,BU,FALSE,,,,,,,11,boton,Spanish,Sounds/spa_boton.mp3,2020-06-04_17h19.14.050,TranslationElicitation_eng-prolific,3.2.4,Win32,60,5eb2d2df52bcce074be5583a,,1,0,98,9,1,97
,,,,,,,,,,,,,,,,,,,,,,,,,,,,,,,,,,,,,,,,,t,3.05099988,BUT,FALSE,,,,,,,11,boton,Spanish,Sounds/spa_boton.mp3,2020-06-04_17h19.14.050,TranslationElicitation_eng-prolific,3.2.4,Win32,60,5eb2d2df52bcce074be5583a,,1,0,98,9,1,97
,,,,,,,,,,,,,,,,,,,,,,,,,,,,,,,,,,,,,,,,,t,3.200999975,BUTT,FALSE,,,,,,,11,boton,Spanish,Sounds/spa_boton.mp3,2020-06-04_17h19.14.050,TranslationElicitation_eng-prolific,3.2.4,Win32,60,5eb2d2df52bcce074be5583a,,1,0,98,9,1,97
,,,,,,,,,,,,,,,,,,,,,,,,,,,,,,,,,,,,,,,,,o,3.25,BUTTO,FALSE,,,,,,,11,boton,Spanish,Sounds/spa_boton.mp3,2020-06-04_17h19.14.050,TranslationElicitation_eng-prolific,3.2.4,Win32,60,5eb2d2df52bcce074be5583a,,1,0,98,9,1,97
,,,,,,,,,,,,,,,,,,,,,,,,,,,,,,,,,,,,,,,,,n,4.28399992,BUTTON,FALSE,,,,,,,11,boton,Spanish,Sounds/spa_boton.mp3,2020-06-04_17h19.14.050,TranslationElicitation_eng-prolific,3.2.4,Win32,60,5eb2d2df52bcce074be5583a,,1,0,98,9,1,97
,,,,,,,,,,,,,,,,,,,,,,,,,,,,,,,,,,,,,,,,,return,4.701999903,BUTTON,FALSE,,,,,,,11,boton,Spanish,Sounds/spa_boton.mp3,2020-06-04_17h19.14.050,TranslationElicitation_eng-prolific,3.2.4,Win32,60,5eb2d2df52bcce074be5583a,4.701999903,1,0,98,9,1,97
,,,,,,,,,,,,,,,,,,,,,,,,,,,,,,,,,,,,,,,,,,,,,,,,,,,11,boton,Spanish,Sounds/spa_boton.mp3,2020-06-04_17h19.14.050,TranslationElicitation_eng-prolific,3.2.4,Win32,60,5eb2d2df52bcce074be5583a,,1,0,98,9,1,97
,,,,,,,,,,,,,,,,,,,,,,,,,,,,,,,,,,,,,,,,,return,5.798000097,,FALSE,,,,,,,44,gorrion,Spanish,Sounds/spa_gorrion.mp3,2020-06-04_17h19.14.050,TranslationElicitation_eng-prolific,3.2.4,Win32,60,5eb2d2df52bcce074be5583a,5.798000097,1,0,98,40,1,97
,,,,,,,,,,,,,,,,,,,,,,,,,,,,,,,,,,,,,,,,,,,,,,,,,,,44,gorrion,Spanish,Sounds/spa_gorrion.mp3,2020-06-04_17h19.14.050,TranslationElicitation_eng-prolific,3.2.4,Win32,60,5eb2d2df52bcce074be5583a,,1,0,98,40,1,97
,,,,,,,,,,,,,,,,,,,,,,,,,,,,,,,,,,,,,,,,,return,2.149999857,,FALSE,,,,,,,98,tobogan,Spanish,Sounds/spa_tobogan.mp3,2020-06-04_17h19.14.050,TranslationElicitation_eng-prolific,3.2.4,Win32,60,5eb2d2df52bcce074be5583a,2.149999857,1,0,98,92,1,97
,,,,,,,,,,,,,,,,,,,,,,,,,,,,,,,,,,,,,,,,,,,,,,,,,,,98,tobogan,Spanish,Sounds/spa_tobogan.mp3,2020-06-04_17h19.14.050,TranslationElicitation_eng-prolific,3.2.4,Win32,60,5eb2d2df52bcce074be5583a,,1,0,98,92,1,97
,,,,,,,,,,,,,,,,,,,,,,,,,,,,,,,,,,,,,,,,,n,4.98300004,N,FALSE,,,,,,,69,nariz,Spanish,Sounds/spa_nariz.mp3,2020-06-04_17h19.14.050,TranslationElicitation_eng-prolific,3.2.4,Win32,60,5eb2d2df52bcce074be5583a,,1,0,98,65,1,97
,,,,,,,,,,,,,,,,,,,,,,,,,,,,,,,,,,,,,,,,,a,5.61500001,NA,FALSE,,,,,,,69,nariz,Spanish,Sounds/spa_nariz.mp3,2020-06-04_17h19.14.050,TranslationElicitation_eng-prolific,3.2.4,Win32,60,5eb2d2df52bcce074be5583a,,1,0,98,65,1,97
,,,,,,,,,,,,,,,,,,,,,,,,,,,,,,,,,,,,,,,,,r,6.881000042,NAR,FALSE,,,,,,,69,nariz,Spanish,Sounds/spa_nariz.mp3,2020-06-04_17h19.14.050,TranslationElicitation_eng-prolific,3.2.4,Win32,60,5eb2d2df52bcce074be5583a,,1,0,98,65,1,97
,,,,,,,,,,,,,,,,,,,,,,,,,,,,,,,,,,,,,,,,,r,7.148000002,NARR,FALSE,,,,,,,69,nariz,Spanish,Sounds/spa_nariz.mp3,2020-06-04_17h19.14.050,TranslationElicitation_eng-prolific,3.2.4,Win32,60,5eb2d2df52bcce074be5583a,,1,0,98,65,1,97
,,,,,,,,,,,,,,,,,,,,,,,,,,,,,,,,,,,,,,,,,a,7.431000233,NARRA,FALSE,,,,,,,69,nariz,Spanish,Sounds/spa_nariz.mp3,2020-06-04_17h19.14.050,TranslationElicitation_eng-prolific,3.2.4,Win32,60,5eb2d2df52bcce074be5583a,,1,0,98,65,1,97
,,,,,,,,,,,,,,,,,,,,,,,,,,,,,,,,,,,,,,,,,t,7.880000114,NARRAT,FALSE,,,,,,,69,nariz,Spanish,Sounds/spa_nariz.mp3,2020-06-04_17h19.14.050,TranslationElicitation_eng-prolific,3.2.4,Win32,60,5eb2d2df52bcce074be5583a,,1,0,98,65,1,97
,,,,,,,,,,,,,,,,,,,,,,,,,,,,,,,,,,,,,,,,,i,8.049000025,NARRATI,FALSE,,,,,,,69,nariz,Spanish,Sounds/spa_nariz.mp3,2020-06-04_17h19.14.050,TranslationElicitation_eng-prolific,3.2.4,Win32,60,5eb2d2df52bcce074be5583a,,1,0,98,65,1,97
,,,,,,,,,,,,,,,,,,,,,,,,,,,,,,,,,,,,,,,,,v,8.31400013,NARRATIV,FALSE,,,,,,,69,nariz,Spanish,Sounds/spa_nariz.mp3,2020-06-04_17h19.14.050,TranslationElicitation_eng-prolific,3.2.4,Win32,60,5eb2d2df52bcce074be5583a,,1,0,98,65,1,97
,,,,,,,,,,,,,,,,,,,,,,,,,,,,,,,,,,,,,,,,,e,8.465000153,NARRATIVE,FALSE,,,,,,,69,nariz,Spanish,Sounds/spa_nariz.mp3,2020-06-04_17h19.14.050,TranslationElicitation_eng-prolific,3.2.4,Win32,60,5eb2d2df52bcce074be5583a,,1,0,98,65,1,97
,,,,,,,,,,,,,,,,,,,,,,,,,,,,,,,,,,,,,,,,,return,8.856000185,NARRATIVE,FALSE,,,,,,,69,nariz,Spanish,Sounds/spa_nariz.mp3,2020-06-04_17h19.14.050,TranslationElicitation_eng-prolific,3.2.4,Win32,60,5eb2d2df52bcce074be5583a,8.856000185,1,0,98,65,1,97
,,,,,,,,,,,,,,,,,,,,,,,,,,,,,,,,,,,,,,,,,,,,,,,,,,,69,nariz,Spanish,Sounds/spa_nariz.mp3,2020-06-04_17h19.14.050,TranslationElicitation_eng-prolific,3.2.4,Win32,60,5eb2d2df52bcce074be5583a,,1,0,98,65,1,97
,,,,,,,,,,,,,,,,,,,,,,,,,,,,,,,,,,,,,,,,,return,2.815000057,,FALSE,,,,,,,103,zanahoria,Spanish,Sounds/spa_zanahoria.mp3,2020-06-04_17h19.14.050,TranslationElicitation_eng-prolific,3.2.4,Win32,60,5eb2d2df52bcce074be5583a,2.815000057,1,0,98,97,1,97
,,,,,,,,,,,,,,,,,,,,,,,,,,,,,,,,,,,,,,,,,,,,,,,,,,,103,zanahoria,Spanish,Sounds/spa_zanahoria.mp3,2020-06-04_17h19.14.050,TranslationElicitation_eng-prolific,3.2.4,Win32,60,5eb2d2df52bcce074be5583a,,1,0,98,97,1,97
,,,,,,,,,,,,,,,,,,,,,,,,,,,,,,,,,,,,,,,,,l,2.19900012,L,FALSE,,,,,,,54,lengua,Spanish,Sounds/spa_lengua.mp3,2020-06-04_17h19.14.050,TranslationElicitation_eng-prolific,3.2.4,Win32,60,5eb2d2df52bcce074be5583a,,1,0,98,50,1,97
,,,,,,,,,,,,,,,,,,,,,,,,,,,,,,,,,,,,,,,,,a,2.398000002,LA,FALSE,,,,,,,54,lengua,Spanish,Sounds/spa_lengua.mp3,2020-06-04_17h19.14.050,TranslationElicitation_eng-prolific,3.2.4,Win32,60,5eb2d2df52bcce074be5583a,,1,0,98,50,1,97
,,,,,,,,,,,,,,,,,,,,,,,,,,,,,,,,,,,,,,,,,n,2.634000063,LAN,FALSE,,,,,,,54,lengua,Spanish,Sounds/spa_lengua.mp3,2020-06-04_17h19.14.050,TranslationElicitation_eng-prolific,3.2.4,Win32,60,5eb2d2df52bcce074be5583a,,1,0,98,50,1,97
,,,,,,,,,,,,,,,,,,,,,,,,,,,,,,,,,,,,,,,,,g,2.950999975,LANG,FALSE,,,,,,,54,lengua,Spanish,Sounds/spa_lengua.mp3,2020-06-04_17h19.14.050,TranslationElicitation_eng-prolific,3.2.4,Win32,60,5eb2d2df52bcce074be5583a,,1,0,98,50,1,97
,,,,,,,,,,,,,,,,,,,,,,,,,,,,,,,,,,,,,,,,,u,3.164999962,LANGU,FALSE,,,,,,,54,lengua,Spanish,Sounds/spa_lengua.mp3,2020-06-04_17h19.14.050,TranslationElicitation_eng-prolific,3.2.4,Win32,60,5eb2d2df52bcce074be5583a,,1,0,98,50,1,97
,,,,,,,,,,,,,,,,,,,,,,,,,,,,,,,,,,,,,,,,,a,3.315000057,LANGUA,FALSE,,,,,,,54,lengua,Spanish,Sounds/spa_lengua.mp3,2020-06-04_17h19.14.050,TranslationElicitation_eng-prolific,3.2.4,Win32,60,5eb2d2df52bcce074be5583a,,1,0,98,50,1,97
,,,,,,,,,,,,,,,,,,,,,,,,,,,,,,,,,,,,,,,,,g,3.447999954,LANGUAG,FALSE,,,,,,,54,lengua,Spanish,Sounds/spa_lengua.mp3,2020-06-04_17h19.14.050,TranslationElicitation_eng-prolific,3.2.4,Win32,60,5eb2d2df52bcce074be5583a,,1,0,98,50,1,97
,,,,,,,,,,,,,,,,,,,,,,,,,,,,,,,,,,,,,,,,,e,3.532000065,LANGUAGE,FALSE,,,,,,,54,lengua,Spanish,Sounds/spa_lengua.mp3,2020-06-04_17h19.14.050,TranslationElicitation_eng-prolific,3.2.4,Win32,60,5eb2d2df52bcce074be5583a,,1,0,98,50,1,97
,,,,,,,,,,,,,,,,,,,,,,,,,,,,,,,,,,,,,,,,,return,4.133000135,LANGUAGE,FALSE,,,,,,,54,lengua,Spanish,Sounds/spa_lengua.mp3,2020-06-04_17h19.14.050,TranslationElicitation_eng-prolific,3.2.4,Win32,60,5eb2d2df52bcce074be5583a,4.133000135,1,0,98,50,1,97
,,,,,,,,,,,,,,,,,,,,,,,,,,,,,,,,,,,,,,,,,,,,,,,,,,,54,lengua,Spanish,Sounds/spa_lengua.mp3,2020-06-04_17h19.14.050,TranslationElicitation_eng-prolific,3.2.4,Win32,60,5eb2d2df52bcce074be5583a,,1,0,98,50,1,97
,,,,,,,,,,,,,,,,,,,,,,,,,,,,,,,,,,,,,,,,,return,4.098999977,,FALSE,,,,,,,52,lapiz,Spanish,Sounds/spa_lapiz.mp3,2020-06-04_17h19.14.050,TranslationElicitation_eng-prolific,3.2.4,Win32,60,5eb2d2df52bcce074be5583a,4.098999977,1,0,98,48,1,97
,,,,,,,,,,,,,,,,,,,,,,,,,,,,,,,,,,,,,,,,,,,,,,,,,,,52,lapiz,Spanish,Sounds/spa_lapiz.mp3,2020-06-04_17h19.14.050,TranslationElicitation_eng-prolific,3.2.4,Win32,60,5eb2d2df52bcce074be5583a,,1,0,98,48,1,97
,,,,,,,,,,,,,,,,,,,,,,,,,,,,,,,,,,,,,,,,,t,1.532000065,T,FALSE,,,,,,,99,tomate,Spanish,Sounds/spa_tomate.mp3,2020-06-04_17h19.14.050,TranslationElicitation_eng-prolific,3.2.4,Win32,60,5eb2d2df52bcce074be5583a,,1,0,98,93,1,97
,,,,,,,,,,,,,,,,,,,,,,,,,,,,,,,,,,,,,,,,,o,1.732000113,TO,FALSE,,,,,,,99,tomate,Spanish,Sounds/spa_tomate.mp3,2020-06-04_17h19.14.050,TranslationElicitation_eng-prolific,3.2.4,Win32,60,5eb2d2df52bcce074be5583a,,1,0,98,93,1,97
,,,,,,,,,,,,,,,,,,,,,,,,,,,,,,,,,,,,,,,,,m,1.998000145,TOM,FALSE,,,,,,,99,tomate,Spanish,Sounds/spa_tomate.mp3,2020-06-04_17h19.14.050,TranslationElicitation_eng-prolific,3.2.4,Win32,60,5eb2d2df52bcce074be5583a,,1,0,98,93,1,97
,,,,,,,,,,,,,,,,,,,,,,,,,,,,,,,,,,,,,,,,,a,2.232000113,TOMA,FALSE,,,,,,,99,tomate,Spanish,Sounds/spa_tomate.mp3,2020-06-04_17h19.14.050,TranslationElicitation_eng-prolific,3.2.4,Win32,60,5eb2d2df52bcce074be5583a,,1,0,98,93,1,97
,,,,,,,,,,,,,,,,,,,,,,,,,,,,,,,,,,,,,,,,,t,2.599000216,TOMAT,FALSE,,,,,,,99,tomate,Spanish,Sounds/spa_tomate.mp3,2020-06-04_17h19.14.050,TranslationElicitation_eng-prolific,3.2.4,Win32,60,5eb2d2df52bcce074be5583a,,1,0,98,93,1,97
,,,,,,,,,,,,,,,,,,,,,,,,,,,,,,,,,,,,,,,,,o,2.815999985,TOMATO,FALSE,,,,,,,99,tomate,Spanish,Sounds/spa_tomate.mp3,2020-06-04_17h19.14.050,TranslationElicitation_eng-prolific,3.2.4,Win32,60,5eb2d2df52bcce074be5583a,,1,0,98,93,1,97
,,,,,,,,,,,,,,,,,,,,,,,,,,,,,,,,,,,,,,,,,return,3.134000063,TOMATO,FALSE,,,,,,,99,tomate,Spanish,Sounds/spa_tomate.mp3,2020-06-04_17h19.14.050,TranslationElicitation_eng-prolific,3.2.4,Win32,60,5eb2d2df52bcce074be5583a,3.134000063,1,0,98,93,1,97
,,,,,,,,,,,,,,,,,,,,,,,,,,,,,,,,,,,,,,,,,,,,,,,,,,,99,tomate,Spanish,Sounds/spa_tomate.mp3,2020-06-04_17h19.14.050,TranslationElicitation_eng-prolific,3.2.4,Win32,60,5eb2d2df52bcce074be5583a,,1,0,98,93,1,97
,,,,,,,,,,,,,,,,,,,,,,,,,,,,,,,,,,,,,,,,,return,3.565999985,,FALSE,,,,,,,71,ombligo,Spanish,Sounds/spa_ombligo.mp3,2020-06-04_17h19.14.050,TranslationElicitation_eng-prolific,3.2.4,Win32,60,5eb2d2df52bcce074be5583a,3.565999985,1,0,98,66,1,97
,,,,,,,,,,,,,,,,,,,,,,,,,,,,,,,,,,,,,,,,,,,,,,,,,,,71,ombligo,Spanish,Sounds/spa_ombligo.mp3,2020-06-04_17h19.14.050,TranslationElicitation_eng-prolific,3.2.4,Win32,60,5eb2d2df52bcce074be5583a,,1,0,98,66,1,97
,,,,,,,,,,,,,,,,,,,,,,,,,,,,,,,,,,,,,,,,,d,2.799000025,D,FALSE,,,,,,,3,barco,Spanish,Sounds/spa_barco.mp3,2020-06-04_17h19.14.050,TranslationElicitation_eng-prolific,3.2.4,Win32,60,5eb2d2df52bcce074be5583a,,1,0,98,1,1,97
,,,,,,,,,,,,,,,,,,,,,,,,,,,,,,,,,,,,,,,,,o,3.064999819,DO,FALSE,,,,,,,3,barco,Spanish,Sounds/spa_barco.mp3,2020-06-04_17h19.14.050,TranslationElicitation_eng-prolific,3.2.4,Win32,60,5eb2d2df52bcce074be5583a,,1,0,98,1,1,97
,,,,,,,,,,,,,,,,,,,,,,,,,,,,,,,,,,,,,,,,,g,3.381999969,DOG,FALSE,,,,,,,3,barco,Spanish,Sounds/spa_barco.mp3,2020-06-04_17h19.14.050,TranslationElicitation_eng-prolific,3.2.4,Win32,60,5eb2d2df52bcce074be5583a,,1,0,98,1,1,97
,,,,,,,,,,,,,,,,,,,,,,,,,,,,,,,,,,,,,,,,,return,3.78399992,DOG,FALSE,,,,,,,3,barco,Spanish,Sounds/spa_barco.mp3,2020-06-04_17h19.14.050,TranslationElicitation_eng-prolific,3.2.4,Win32,60,5eb2d2df52bcce074be5583a,3.78399992,1,0,98,1,1,97
,,,,,,,,,,,,,,,,,,,,,,,,,,,,,,,,,,,,,,,,,,,,,,,,,,,3,barco,Spanish,Sounds/spa_barco.mp3,2020-06-04_17h19.14.050,TranslationElicitation_eng-prolific,3.2.4,Win32,60,5eb2d2df52bcce074be5583a,,1,0,98,1,1,97
,,,,,,,,,,,,,,,,,,,,,,,,,,,,,,,,,,,,,,,,,b,13.09700012,B,FALSE,,,,,,,34,ensalada,Spanish,Sounds/spa_ensalada.mp3,2020-06-04_17h19.14.050,TranslationElicitation_eng-prolific,3.2.4,Win32,60,5eb2d2df52bcce074be5583a,,1,0,98,30,1,97
,,,,,,,,,,,,,,,,,,,,,,,,,,,,,,,,,,,,,,,,,u,13.38100004,BU,FALSE,,,,,,,34,ensalada,Spanish,Sounds/spa_ensalada.mp3,2020-06-04_17h19.14.050,TranslationElicitation_eng-prolific,3.2.4,Win32,60,5eb2d2df52bcce074be5583a,,1,0,98,30,1,97
,,,,,,,,,,,,,,,,,,,,,,,,,,,,,,,,,,,,,,,,,r,13.61400008,BUR,FALSE,,,,,,,34,ensalada,Spanish,Sounds/spa_ensalada.mp3,2020-06-04_17h19.14.050,TranslationElicitation_eng-prolific,3.2.4,Win32,60,5eb2d2df52bcce074be5583a,,1,0,98,30,1,97
,,,,,,,,,,,,,,,,,,,,,,,,,,,,,,,,,,,,,,,,,r,13.73300004,BURR,FALSE,,,,,,,34,ensalada,Spanish,Sounds/spa_ensalada.mp3,2020-06-04_17h19.14.050,TranslationElicitation_eng-prolific,3.2.4,Win32,60,5eb2d2df52bcce074be5583a,,1,0,98,30,1,97
,,,,,,,,,,,,,,,,,,,,,,,,,,,,,,,,,,,,,,,,,i,14.34600019,BURRI,FALSE,,,,,,,34,ensalada,Spanish,Sounds/spa_ensalada.mp3,2020-06-04_17h19.14.050,TranslationElicitation_eng-prolific,3.2.4,Win32,60,5eb2d2df52bcce074be5583a,,1,0,98,30,1,97
,,,,,,,,,,,,,,,,,,,,,,,,,,,,,,,,,,,,,,,,,t,14.49800014,BURRIT,FALSE,,,,,,,34,ensalada,Spanish,Sounds/spa_ensalada.mp3,2020-06-04_17h19.14.050,TranslationElicitation_eng-prolific,3.2.4,Win32,60,5eb2d2df52bcce074be5583a,,1,0,98,30,1,97
,,,,,,,,,,,,,,,,,,,,,,,,,,,,,,,,,,,,,,,,,o,14.63000011,BURRITO,FALSE,,,,,,,34,ensalada,Spanish,Sounds/spa_ensalada.mp3,2020-06-04_17h19.14.050,TranslationElicitation_eng-prolific,3.2.4,Win32,60,5eb2d2df52bcce074be5583a,,1,0,98,30,1,97
,,,,,,,,,,,,,,,,,,,,,,,,,,,,,,,,,,,,,,,,,return,14.98000002,BURRITO,FALSE,,,,,,,34,ensalada,Spanish,Sounds/spa_ensalada.mp3,2020-06-04_17h19.14.050,TranslationElicitation_eng-prolific,3.2.4,Win32,60,5eb2d2df52bcce074be5583a,14.98000002,1,0,98,30,1,97
,,,,,,,,,,,,,,,,,,,,,,,,,,,,,,,,,,,,,,,,,,,,,,,,,,,34,ensalada,Spanish,Sounds/spa_ensalada.mp3,2020-06-04_17h19.14.050,TranslationElicitation_eng-prolific,3.2.4,Win32,60,5eb2d2df52bcce074be5583a,,1,0,98,30,1,97
,,,,,,,,,,,,,,,,,,,,,,,,,,,,,,,,,,,,,,,,,c,2.149000168,C,FALSE,,,,,,,17,calcetin,Spanish,Sounds/spa_calcetin.mp3,2020-06-04_17h19.14.050,TranslationElicitation_eng-prolific,3.2.4,Win32,60,5eb2d2df52bcce074be5583a,,1,0,98,15,1,97
,,,,,,,,,,,,,,,,,,,,,,,,,,,,,,,,,,,,,,,,,a,2.567000151,CA,FALSE,,,,,,,17,calcetin,Spanish,Sounds/spa_calcetin.mp3,2020-06-04_17h19.14.050,TranslationElicitation_eng-prolific,3.2.4,Win32,60,5eb2d2df52bcce074be5583a,,1,0,98,15,1,97
,,,,,,,,,,,,,,,,,,,,,,,,,,,,,,,,,,,,,,,,,l,2.849000216,CAL,FALSE,,,,,,,17,calcetin,Spanish,Sounds/spa_calcetin.mp3,2020-06-04_17h19.14.050,TranslationElicitation_eng-prolific,3.2.4,Win32,60,5eb2d2df52bcce074be5583a,,1,0,98,15,1,97
,,,,,,,,,,,,,,,,,,,,,,,,,,,,,,,,,,,,,,,,,c,3.082000017,CALC,FALSE,,,,,,,17,calcetin,Spanish,Sounds/spa_calcetin.mp3,2020-06-04_17h19.14.050,TranslationElicitation_eng-prolific,3.2.4,Win32,60,5eb2d2df52bcce074be5583a,,1,0,98,15,1,97
,,,,,,,,,,,,,,,,,,,,,,,,,,,,,,,,,,,,,,,,,i,3.325000048,CALCI,FALSE,,,,,,,17,calcetin,Spanish,Sounds/spa_calcetin.mp3,2020-06-04_17h19.14.050,TranslationElicitation_eng-prolific,3.2.4,Win32,60,5eb2d2df52bcce074be5583a,,1,0,98,15,1,97
,,,,,,,,,,,,,,,,,,,,,,,,,,,,,,,,,,,,,,,,,u,3.498000145,CALCIU,FALSE,,,,,,,17,calcetin,Spanish,Sounds/spa_calcetin.mp3,2020-06-04_17h19.14.050,TranslationElicitation_eng-prolific,3.2.4,Win32,60,5eb2d2df52bcce074be5583a,,1,0,98,15,1,97
,,,,,,,,,,,,,,,,,,,,,,,,,,,,,,,,,,,,,,,,,m,3.749000072,CALCIUM,FALSE,,,,,,,17,calcetin,Spanish,Sounds/spa_calcetin.mp3,2020-06-04_17h19.14.050,TranslationElicitation_eng-prolific,3.2.4,Win32,60,5eb2d2df52bcce074be5583a,,1,0,98,15,1,97
,,,,,,,,,,,,,,,,,,,,,,,,,,,,,,,,,,,,,,,,,return,4.133000135,CALCIUM,FALSE,,,,,,,17,calcetin,Spanish,Sounds/spa_calcetin.mp3,2020-06-04_17h19.14.050,TranslationElicitation_eng-prolific,3.2.4,Win32,60,5eb2d2df52bcce074be5583a,4.133000135,1,0,98,15,1,97
,,,,,,,,,,,,,,,,,,,,,,,,,,,,,,,,,,,,,,,,,,,,,,,,,,,17,calcetin,Spanish,Sounds/spa_calcetin.mp3,2020-06-04_17h19.14.050,TranslationElicitation_eng-prolific,3.2.4,Win32,60,5eb2d2df52bcce074be5583a,,1,0,98,15,1,97
,,,,,,,,,,,,,,,,,,,,,,,,,,,,,,,,,,,,,,,,,z,2.016000032,Z,FALSE,,,,,,,21,cebra,Spanish,Sounds/spa_cebra.mp3,2020-06-04_17h19.14.050,TranslationElicitation_eng-prolific,3.2.4,Win32,60,5eb2d2df52bcce074be5583a,,1,0,98,19,1,97
,,,,,,,,,,,,,,,,,,,,,,,,,,,,,,,,,,,,,,,,,e,2.335000038,ZE,FALSE,,,,,,,21,cebra,Spanish,Sounds/spa_cebra.mp3,2020-06-04_17h19.14.050,TranslationElicitation_eng-prolific,3.2.4,Win32,60,5eb2d2df52bcce074be5583a,,1,0,98,19,1,97
,,,,,,,,,,,,,,,,,,,,,,,,,,,,,,,,,,,,,,,,,b,2.900000095,ZEB,FALSE,,,,,,,21,cebra,Spanish,Sounds/spa_cebra.mp3,2020-06-04_17h19.14.050,TranslationElicitation_eng-prolific,3.2.4,Win32,60,5eb2d2df52bcce074be5583a,,1,0,98,19,1,97
,,,,,,,,,,,,,,,,,,,,,,,,,,,,,,,,,,,,,,,,,r,3.085000038,ZEBR,FALSE,,,,,,,21,cebra,Spanish,Sounds/spa_cebra.mp3,2020-06-04_17h19.14.050,TranslationElicitation_eng-prolific,3.2.4,Win32,60,5eb2d2df52bcce074be5583a,,1,0,98,19,1,97
,,,,,,,,,,,,,,,,,,,,,,,,,,,,,,,,,,,,,,,,,a,3.75,ZEBRA,FALSE,,,,,,,21,cebra,Spanish,Sounds/spa_cebra.mp3,2020-06-04_17h19.14.050,TranslationElicitation_eng-prolific,3.2.4,Win32,60,5eb2d2df52bcce074be5583a,,1,0,98,19,1,97
,,,,,,,,,,,,,,,,,,,,,,,,,,,,,,,,,,,,,,,,,return,4.100000143,ZEBRA,FALSE,,,,,,,21,cebra,Spanish,Sounds/spa_cebra.mp3,2020-06-04_17h19.14.050,TranslationElicitation_eng-prolific,3.2.4,Win32,60,5eb2d2df52bcce074be5583a,4.100000143,1,0,98,19,1,97
,,,,,,,,,,,,,,,,,,,,,,,,,,,,,,,,,,,,,,,,,,,,,,,,,,,21,cebra,Spanish,Sounds/spa_cebra.mp3,2020-06-04_17h19.14.050,TranslationElicitation_eng-prolific,3.2.4,Win32,60,5eb2d2df52bcce074be5583a,,1,0,98,19,1,97
,,,,,,,,,,,,,,,,,,,,,,,,,,,,,,,,,,,,,,,,,p,1.86500001,P,FALSE,,,,,,,48,gusano,Spanish,Sounds/spa_gusano.mp3,2020-06-04_17h19.14.050,TranslationElicitation_eng-prolific,3.2.4,Win32,60,5eb2d2df52bcce074be5583a,,1,0,98,44,1,97
,,,,,,,,,,,,,,,,,,,,,,,,,,,,,,,,,,,,,,,,,i,2.11500001,PI,FALSE,,,,,,,48,gusano,Spanish,Sounds/spa_gusano.mp3,2020-06-04_17h19.14.050,TranslationElicitation_eng-prolific,3.2.4,Win32,60,5eb2d2df52bcce074be5583a,,1,0,98,44,1,97
,,,,,,,,,,,,,,,,,,,,,,,,,,,,,,,,,,,,,,,,,a,2.332000017,PIA,FALSE,,,,,,,48,gusano,Spanish,Sounds/spa_gusano.mp3,2020-06-04_17h19.14.050,TranslationElicitation_eng-prolific,3.2.4,Win32,60,5eb2d2df52bcce074be5583a,,1,0,98,44,1,97
,,,,,,,,,,,,,,,,,,,,,,,,,,,,,,,,,,,,,,,,,n,2.530999899,PIAN,FALSE,,,,,,,48,gusano,Spanish,Sounds/spa_gusano.mp3,2020-06-04_17h19.14.050,TranslationElicitation_eng-prolific,3.2.4,Win32,60,5eb2d2df52bcce074be5583a,,1,0,98,44,1,97
,,,,,,,,,,,,,,,,,,,,,,,,,,,,,,,,,,,,,,,,,o,2.730999947,PIANO,FALSE,,,,,,,48,gusano,Spanish,Sounds/spa_gusano.mp3,2020-06-04_17h19.14.050,TranslationElicitation_eng-prolific,3.2.4,Win32,60,5eb2d2df52bcce074be5583a,,1,0,98,44,1,97
,,,,,,,,,,,,,,,,,,,,,,,,,,,,,,,,,,,,,,,,,return,3.082000017,PIANO,FALSE,,,,,,,48,gusano,Spanish,Sounds/spa_gusano.mp3,2020-06-04_17h19.14.050,TranslationElicitation_eng-prolific,3.2.4,Win32,60,5eb2d2df52bcce074be5583a,3.082000017,1,0,98,44,1,97
,,,,,,,,,,,,,,,,,,,,,,,,,,,,,,,,,,,,,,,,,,,,,,,,,,,48,gusano,Spanish,Sounds/spa_gusano.mp3,2020-06-04_17h19.14.050,TranslationElicitation_eng-prolific,3.2.4,Win32,60,5eb2d2df52bcce074be5583a,,1,0,98,44,1,97
,,,,,,,,,,,,,,,,,,,,,,,,,,,,,,,,,,,,,,,,,return,2.404000044,,FALSE,,,,,,,49,hormiga,Spanish,Sounds/spa_hormiga.mp3,2020-06-04_17h19.14.050,TranslationElicitation_eng-prolific,3.2.4,Win32,60,5eb2d2df52bcce074be5583a,2.404000044,1,0,98,45,1,97
,,,,,,,,,,,,,,,,,,,,,,,,,,,,,,,,,,,,,,,,,,,,,,,,,,,49,hormiga,Spanish,Sounds/spa_hormiga.mp3,2020-06-04_17h19.14.050,TranslationElicitation_eng-prolific,3.2.4,Win32,60,5eb2d2df52bcce074be5583a,,1,0,98,45,1,97
,,,,,,,,,,,,,,,,,,,,,,,,,,,,,,,,,,,,,,,,,p,1.782000065,P,FALSE,,,,,,,31,cubo,Spanish,Sounds/spa_cubo.mp3,2020-06-04_17h19.14.050,TranslationElicitation_eng-prolific,3.2.4,Win32,60,5eb2d2df52bcce074be5583a,,1,0,98,27,1,97
,,,,,,,,,,,,,,,,,,,,,,,,,,,,,,,,,,,,,,,,,o,1.982000113,PO,FALSE,,,,,,,31,cubo,Spanish,Sounds/spa_cubo.mp3,2020-06-04_17h19.14.050,TranslationElicitation_eng-prolific,3.2.4,Win32,60,5eb2d2df52bcce074be5583a,,1,0,98,27,1,97
,,,,,,,,,,,,,,,,,,,,,,,,,,,,,,,,,,,,,,,,,o,2.114000082,POO,FALSE,,,,,,,31,cubo,Spanish,Sounds/spa_cubo.mp3,2020-06-04_17h19.14.050,TranslationElicitation_eng-prolific,3.2.4,Win32,60,5eb2d2df52bcce074be5583a,,1,0,98,27,1,97
,,,,,,,,,,,,,,,,,,,,,,,,,,,,,,,,,,,,,,,,,c,2.399000168,POOC,FALSE,,,,,,,31,cubo,Spanish,Sounds/spa_cubo.mp3,2020-06-04_17h19.14.050,TranslationElicitation_eng-prolific,3.2.4,Win32,60,5eb2d2df52bcce074be5583a,,1,0,98,27,1,97
,,,,,,,,,,,,,,,,,,,,,,,,,,,,,,,,,,,,,,,,,backspace,3.015000105,POO,TRUE,,,,,,,31,cubo,Spanish,Sounds/spa_cubo.mp3,2020-06-04_17h19.14.050,TranslationElicitation_eng-prolific,3.2.4,Win32,60,5eb2d2df52bcce074be5583a,,1,0,98,27,1,97
,,,,,,,,,,,,,,,,,,,,,,,,,,,,,,,,,,,,,,,,,d,3.43200016,POOD,TRUE,,,,,,,31,cubo,Spanish,Sounds/spa_cubo.mp3,2020-06-04_17h19.14.050,TranslationElicitation_eng-prolific,3.2.4,Win32,60,5eb2d2df52bcce074be5583a,,1,0,98,27,1,97
,,,,,,,,,,,,,,,,,,,,,,,,,,,,,,,,,,,,,,,,,l,3.605000019,POODL,TRUE,,,,,,,31,cubo,Spanish,Sounds/spa_cubo.mp3,2020-06-04_17h19.14.050,TranslationElicitation_eng-prolific,3.2.4,Win32,60,5eb2d2df52bcce074be5583a,,1,0,98,27,1,97
,,,,,,,,,,,,,,,,,,,,,,,,,,,,,,,,,,,,,,,,,e,3.767000198,POODLE,TRUE,,,,,,,31,cubo,Spanish,Sounds/spa_cubo.mp3,2020-06-04_17h19.14.050,TranslationElicitation_eng-prolific,3.2.4,Win32,60,5eb2d2df52bcce074be5583a,,1,0,98,27,1,97
,,,,,,,,,,,,,,,,,,,,,,,,,,,,,,,,,,,,,,,,,return,4.134000063,POODLE,TRUE,,,,,,,31,cubo,Spanish,Sounds/spa_cubo.mp3,2020-06-04_17h19.14.050,TranslationElicitation_eng-prolific,3.2.4,Win32,60,5eb2d2df52bcce074be5583a,4.134000063,1,0,98,27,1,97
,,,,,,,,,,,,,,,,,,,,,,,,,,,,,,,,,,,,,,,,,,,,,,,,,,,31,cubo,Spanish,Sounds/spa_cubo.mp3,2020-06-04_17h19.14.050,TranslationElicitation_eng-prolific,3.2.4,Win32,60,5eb2d2df52bcce074be5583a,,1,0,98,27,1,97
,,,,,,,,,,,,,,,,,,,,,,,,,,,,,,,,,,,,,,,,,return,1.697000027,,FALSE,,,,,,,35,esponja,Spanish,Sounds/spa_esponja.mp3,2020-06-04_17h19.14.050,TranslationElicitation_eng-prolific,3.2.4,Win32,60,5eb2d2df52bcce074be5583a,1.697000027,1,0,98,31,1,97
,,,,,,,,,,,,,,,,,,,,,,,,,,,,,,,,,,,,,,,,,,,,,,,,,,,35,esponja,Spanish,Sounds/spa_esponja.mp3,2020-06-04_17h19.14.050,TranslationElicitation_eng-prolific,3.2.4,Win32,60,5eb2d2df52bcce074be5583a,,1,0,98,31,1,97
,,,,,,,,,,,,,,,,,,,,,,,,,,,,,,,,,,,,,,,,,l,3.766000032,L,FALSE,,,,,,,57,loro,Spanish,Sounds/spa_loro.mp3,2020-06-04_17h19.14.050,TranslationElicitation_eng-prolific,3.2.4,Win32,60,5eb2d2df52bcce074be5583a,,1,0,98,53,1,97
,,,,,,,,,,,,,,,,,,,,,,,,,,,,,,,,,,,,,,,,,o,3.94900012,LO,FALSE,,,,,,,57,loro,Spanish,Sounds/spa_loro.mp3,2020-06-04_17h19.14.050,TranslationElicitation_eng-prolific,3.2.4,Win32,60,5eb2d2df52bcce074be5583a,,1,0,98,53,1,97
,,,,,,,,,,,,,,,,,,,,,,,,,,,,,,,,,,,,,,,,,y,4.250999928,LOY,FALSE,,,,,,,57,loro,Spanish,Sounds/spa_loro.mp3,2020-06-04_17h19.14.050,TranslationElicitation_eng-prolific,3.2.4,Win32,60,5eb2d2df52bcce074be5583a,,1,0,98,53,1,97
,,,,,,,,,,,,,,,,,,,,,,,,,,,,,,,,,,,,,,,,,a,4.615999937,LOYA,FALSE,,,,,,,57,loro,Spanish,Sounds/spa_loro.mp3,2020-06-04_17h19.14.050,TranslationElicitation_eng-prolific,3.2.4,Win32,60,5eb2d2df52bcce074be5583a,,1,0,98,53,1,97
,,,,,,,,,,,,,,,,,,,,,,,,,,,,,,,,,,,,,,,,,l,5.313999891,LOYAL,FALSE,,,,,,,57,loro,Spanish,Sounds/spa_loro.mp3,2020-06-04_17h19.14.050,TranslationElicitation_eng-prolific,3.2.4,Win32,60,5eb2d2df52bcce074be5583a,,1,0,98,53,1,97
,,,,,,,,,,,,,,,,,,,,,,,,,,,,,,,,,,,,,,,,,return,5.615999937,LOYAL,FALSE,,,,,,,57,loro,Spanish,Sounds/spa_loro.mp3,2020-06-04_17h19.14.050,TranslationElicitation_eng-prolific,3.2.4,Win32,60,5eb2d2df52bcce074be5583a,5.615999937,1,0,98,53,1,97
,,,,,,,,,,,,,,,,,,,,,,,,,,,,,,,,,,,,,,,,,,,,,,,,,,,57,loro,Spanish,Sounds/spa_loro.mp3,2020-06-04_17h19.14.050,TranslationElicitation_eng-prolific,3.2.4,Win32,60,5eb2d2df52bcce074be5583a,,1,0,98,53,1,97
,,,,,,,,,,,,,,,,,,,,,,,,,,,,,,,,,,,,,,,,,m,1.816999912,M,FALSE,,,,,,,64,moneda,Spanish,Sounds/spa_moneda.mp3,2020-06-04_17h19.14.050,TranslationElicitation_eng-prolific,3.2.4,Win32,60,5eb2d2df52bcce074be5583a,,1,0,98,60,1,97
,,,,,,,,,,,,,,,,,,,,,,,,,,,,,,,,,,,,,,,,,u,2.082999945,MU,FALSE,,,,,,,64,moneda,Spanish,Sounds/spa_moneda.mp3,2020-06-04_17h19.14.050,TranslationElicitation_eng-prolific,3.2.4,Win32,60,5eb2d2df52bcce074be5583a,,1,0,98,60,1,97
,,,,,,,,,,,,,,,,,,,,,,,,,,,,,,,,,,,,,,,,,backspace,3.207000017,M,TRUE,,,,,,,64,moneda,Spanish,Sounds/spa_moneda.mp3,2020-06-04_17h19.14.050,TranslationElicitation_eng-prolific,3.2.4,Win32,60,5eb2d2df52bcce074be5583a,,1,0,98,60,1,97
,,,,,,,,,,,,,,,,,,,,,,,,,,,,,,,,,,,,,,,,,backspace,4.01699996,,TRUE,,,,,,,64,moneda,Spanish,Sounds/spa_moneda.mp3,2020-06-04_17h19.14.050,TranslationElicitation_eng-prolific,3.2.4,Win32,60,5eb2d2df52bcce074be5583a,,1,0,98,60,1,97
,,,,,,,,,,,,,,,,,,,,,,,,,,,,,,,,,,,,,,,,,return,4.599999905,,TRUE,,,,,,,64,moneda,Spanish,Sounds/spa_moneda.mp3,2020-06-04_17h19.14.050,TranslationElicitation_eng-prolific,3.2.4,Win32,60,5eb2d2df52bcce074be5583a,4.599999905,1,0,98,60,1,97
,,,,,,,,,,,,,,,,,,,,,,,,,,,,,,,,,,,,,,,,,,,,,,,,,,,64,moneda,Spanish,Sounds/spa_moneda.mp3,2020-06-04_17h19.14.050,TranslationElicitation_eng-prolific,3.2.4,Win32,60,5eb2d2df52bcce074be5583a,,1,0,98,60,1,97
,,,,,,,,,,,,,,,,,,,,,,,,,,,,,,,,,,,,,,,,,c,6.999000072,C,FALSE,,,,,,,72,osito,Spanish,Sounds/spa_osito.mp3,2020-06-04_17h19.14.050,TranslationElicitation_eng-prolific,3.2.4,Win32,60,5eb2d2df52bcce074be5583a,,1,0,98,67,1,97
,,,,,,,,,,,,,,,,,,,,,,,,,,,,,,,,,,,,,,,,,h,7.230999947,CH,FALSE,,,,,,,72,osito,Spanish,Sounds/spa_osito.mp3,2020-06-04_17h19.14.050,TranslationElicitation_eng-prolific,3.2.4,Win32,60,5eb2d2df52bcce074be5583a,,1,0,98,67,1,97
,,,,,,,,,,,,,,,,,,,,,,,,,,,,,,,,,,,,,,,,,i,7.578999996,CHI,FALSE,,,,,,,72,osito,Spanish,Sounds/spa_osito.mp3,2020-06-04_17h19.14.050,TranslationElicitation_eng-prolific,3.2.4,Win32,60,5eb2d2df52bcce074be5583a,,1,0,98,67,1,97
,,,,,,,,,,,,,,,,,,,,,,,,,,,,,,,,,,,,,,,,,l,7.861999989,CHIL,FALSE,,,,,,,72,osito,Spanish,Sounds/spa_osito.mp3,2020-06-04_17h19.14.050,TranslationElicitation_eng-prolific,3.2.4,Win32,60,5eb2d2df52bcce074be5583a,,1,0,98,67,1,97
,,,,,,,,,,,,,,,,,,,,,,,,,,,,,,,,,,,,,,,,,d,8.046000004,CHILD,FALSE,,,,,,,72,osito,Spanish,Sounds/spa_osito.mp3,2020-06-04_17h19.14.050,TranslationElicitation_eng-prolific,3.2.4,Win32,60,5eb2d2df52bcce074be5583a,,1,0,98,67,1,97
,,,,,,,,,,,,,,,,,,,,,,,,,,,,,,,,,,,,,,,,,return,8.332000017,CHILD,FALSE,,,,,,,72,osito,Spanish,Sounds/spa_osito.mp3,2020-06-04_17h19.14.050,TranslationElicitation_eng-prolific,3.2.4,Win32,60,5eb2d2df52bcce074be5583a,8.332000017,1,0,98,67,1,97
,,,,,,,,,,,,,,,,,,,,,,,,,,,,,,,,,,,,,,,,,,,,,,,,,,,72,osito,Spanish,Sounds/spa_osito.mp3,2020-06-04_17h19.14.050,TranslationElicitation_eng-prolific,3.2.4,Win32,60,5eb2d2df52bcce074be5583a,,1,0,98,67,1,97
,,,,,,,,,,,,,,,,,,,,,,,,,,,,,,,,,,,,,,,,,k,2.901000023,K,FALSE,,,,,,,61,mariposa,Spanish,Sounds/spa_mariposa.mp3,2020-06-04_17h19.14.050,TranslationElicitation_eng-prolific,3.2.4,Win32,60,5eb2d2df52bcce074be5583a,,1,0,98,57,1,97
,,,,,,,,,,,,,,,,,,,,,,,,,,,,,,,,,,,,,,,,,a,3.19900012,KA,FALSE,,,,,,,61,mariposa,Spanish,Sounds/spa_mariposa.mp3,2020-06-04_17h19.14.050,TranslationElicitation_eng-prolific,3.2.4,Win32,60,5eb2d2df52bcce074be5583a,,1,0,98,57,1,97
,,,,,,,,,,,,,,,,,,,,,,,,,,,,,,,,,,,,,,,,,r,3.500999928,KAR,FALSE,,,,,,,61,mariposa,Spanish,Sounds/spa_mariposa.mp3,2020-06-04_17h19.14.050,TranslationElicitation_eng-prolific,3.2.4,Win32,60,5eb2d2df52bcce074be5583a,,1,0,98,57,1,97
,,,,,,,,,,,,,,,,,,,,,,,,,,,,,,,,,,,,,,,,,r,3.684999943,KARR,FALSE,,,,,,,61,mariposa,Spanish,Sounds/spa_mariposa.mp3,2020-06-04_17h19.14.050,TranslationElicitation_eng-prolific,3.2.4,Win32,60,5eb2d2df52bcce074be5583a,,1,0,98,57,1,97
,,,,,,,,,,,,,,,,,,,,,,,,,,,,,,,,,,,,,,,,,y,3.828000069,KARRY,FALSE,,,,,,,61,mariposa,Spanish,Sounds/spa_mariposa.mp3,2020-06-04_17h19.14.050,TranslationElicitation_eng-prolific,3.2.4,Win32,60,5eb2d2df52bcce074be5583a,,1,0,98,57,1,97
,,,,,,,,,,,,,,,,,,,,,,,,,,,,,,,,,,,,,,,,,space,4.051000118,KARRY ,FALSE,,,,,,,61,mariposa,Spanish,Sounds/spa_mariposa.mp3,2020-06-04_17h19.14.050,TranslationElicitation_eng-prolific,3.2.4,Win32,60,5eb2d2df52bcce074be5583a,,1,0,98,57,1,97
,,,,,,,,,,,,,,,,,,,,,,,,,,,,,,,,,,,,,,,,,backspace,4.701999903,KARRY,TRUE,,,,,,,61,mariposa,Spanish,Sounds/spa_mariposa.mp3,2020-06-04_17h19.14.050,TranslationElicitation_eng-prolific,3.2.4,Win32,60,5eb2d2df52bcce074be5583a,,1,0,98,57,1,97
,,,,,,,,,,,,,,,,,,,,,,,,,,,,,,,,,,,,,,,,,backspace,4.832999945,KARR,TRUE,,,,,,,61,mariposa,Spanish,Sounds/spa_mariposa.mp3,2020-06-04_17h19.14.050,TranslationElicitation_eng-prolific,3.2.4,Win32,60,5eb2d2df52bcce074be5583a,,1,0,98,57,1,97
,,,,,,,,,,,,,,,,,,,,,,,,,,,,,,,,,,,,,,,,,backspace,5.016000032,KAR,TRUE,,,,,,,61,mariposa,Spanish,Sounds/spa_mariposa.mp3,2020-06-04_17h19.14.050,TranslationElicitation_eng-prolific,3.2.4,Win32,60,5eb2d2df52bcce074be5583a,,1,0,98,57,1,97
,,,,,,,,,,,,,,,,,,,,,,,,,,,,,,,,,,,,,,,,,backspace,5.181999922,KA,TRUE,,,,,,,61,mariposa,Spanish,Sounds/spa_mariposa.mp3,2020-06-04_17h19.14.050,TranslationElicitation_eng-prolific,3.2.4,Win32,60,5eb2d2df52bcce074be5583a,,1,0,98,57,1,97
,,,,,,,,,,,,,,,,,,,,,,,,,,,,,,,,,,,,,,,,,backspace,5.365999937,K,TRUE,,,,,,,61,mariposa,Spanish,Sounds/spa_mariposa.mp3,2020-06-04_17h19.14.050,TranslationElicitation_eng-prolific,3.2.4,Win32,60,5eb2d2df52bcce074be5583a,,1,0,98,57,1,97
,,,,,,,,,,,,,,,,,,,,,,,,,,,,,,,,,,,,,,,,,backspace,5.532000065,,TRUE,,,,,,,61,mariposa,Spanish,Sounds/spa_mariposa.mp3,2020-06-04_17h19.14.050,TranslationElicitation_eng-prolific,3.2.4,Win32,60,5eb2d2df52bcce074be5583a,,1,0,98,57,1,97
,,,,,,,,,,,,,,,,,,,,,,,,,,,,,,,,,,,,,,,,,h,6.598999977,H,TRUE,,,,,,,61,mariposa,Spanish,Sounds/spa_mariposa.mp3,2020-06-04_17h19.14.050,TranslationElicitation_eng-prolific,3.2.4,Win32,60,5eb2d2df52bcce074be5583a,,1,0,98,57,1,97
,,,,,,,,,,,,,,,,,,,,,,,,,,,,,,,,,,,,,,,,,a,6.750999928,HA,TRUE,,,,,,,61,mariposa,Spanish,Sounds/spa_mariposa.mp3,2020-06-04_17h19.14.050,TranslationElicitation_eng-prolific,3.2.4,Win32,60,5eb2d2df52bcce074be5583a,,1,0,98,57,1,97
,,,,,,,,,,,,,,,,,,,,,,,,,,,,,,,,,,,,,,,,,r,7.315999985,HAR,TRUE,,,,,,,61,mariposa,Spanish,Sounds/spa_mariposa.mp3,2020-06-04_17h19.14.050,TranslationElicitation_eng-prolific,3.2.4,Win32,60,5eb2d2df52bcce074be5583a,,1,0,98,57,1,97
,,,,,,,,,,,,,,,,,,,,,,,,,,,,,,,,,,,,,,,,,r,7.482000113,HARR,TRUE,,,,,,,61,mariposa,Spanish,Sounds/spa_mariposa.mp3,2020-06-04_17h19.14.050,TranslationElicitation_eng-prolific,3.2.4,Win32,60,5eb2d2df52bcce074be5583a,,1,0,98,57,1,97
,,,,,,,,,,,,,,,,,,,,,,,,,,,,,,,,,,,,,,,,,y,7.681999922,HARRY,TRUE,,,,,,,61,mariposa,Spanish,Sounds/spa_mariposa.mp3,2020-06-04_17h19.14.050,TranslationElicitation_eng-prolific,3.2.4,Win32,60,5eb2d2df52bcce074be5583a,,1,0,98,57,1,97
,,,,,,,,,,,,,,,,,,,,,,,,,,,,,,,,,,,,,,,,,space,7.898000002,HARRY ,TRUE,,,,,,,61,mariposa,Spanish,Sounds/spa_mariposa.mp3,2020-06-04_17h19.14.050,TranslationElicitation_eng-prolific,3.2.4,Win32,60,5eb2d2df52bcce074be5583a,,1,0,98,57,1,97
,,,,,,,,,,,,,,,,,,,,,,,,,,,,,,,,,,,,,,,,,p,8.232000113,HARRY P,TRUE,,,,,,,61,mariposa,Spanish,Sounds/spa_mariposa.mp3,2020-06-04_17h19.14.050,TranslationElicitation_eng-prolific,3.2.4,Win32,60,5eb2d2df52bcce074be5583a,,1,0,98,57,1,97
,,,,,,,,,,,,,,,,,,,,,,,,,,,,,,,,,,,,,,,,,o,8.416000128,HARRY PO,TRUE,,,,,,,61,mariposa,Spanish,Sounds/spa_mariposa.mp3,2020-06-04_17h19.14.050,TranslationElicitation_eng-prolific,3.2.4,Win32,60,5eb2d2df52bcce074be5583a,,1,0,98,57,1,97
,,,,,,,,,,,,,,,,,,,,,,,,,,,,,,,,,,,,,,,,,t,8.707999945,HARRY POT,TRUE,,,,,,,61,mariposa,Spanish,Sounds/spa_mariposa.mp3,2020-06-04_17h19.14.050,TranslationElicitation_eng-prolific,3.2.4,Win32,60,5eb2d2df52bcce074be5583a,,1,0,98,57,1,97
,,,,,,,,,,,,,,,,,,,,,,,,,,,,,,,,,,,,,,,,,t,8.819000006,HARRY POTT,TRUE,,,,,,,61,mariposa,Spanish,Sounds/spa_mariposa.mp3,2020-06-04_17h19.14.050,TranslationElicitation_eng-prolific,3.2.4,Win32,60,5eb2d2df52bcce074be5583a,,1,0,98,57,1,97
,,,,,,,,,,,,,,,,,,,,,,,,,,,,,,,,,,,,,,,,,e,8.931999922,HARRY POTTE,TRUE,,,,,,,61,mariposa,Spanish,Sounds/spa_mariposa.mp3,2020-06-04_17h19.14.050,TranslationElicitation_eng-prolific,3.2.4,Win32,60,5eb2d2df52bcce074be5583a,,1,0,98,57,1,97
,,,,,,,,,,,,,,,,,,,,,,,,,,,,,,,,,,,,,,,,,r,9.638999939,HARRY POTTER,TRUE,,,,,,,61,mariposa,Spanish,Sounds/spa_mariposa.mp3,2020-06-04_17h19.14.050,TranslationElicitation_eng-prolific,3.2.4,Win32,60,5eb2d2df52bcce074be5583a,,1,0,98,57,1,97
,,,,,,,,,,,,,,,,,,,,,,,,,,,,,,,,,,,,,,,,,return,10.08200002,HARRY POTTER,TRUE,,,,,,,61,mariposa,Spanish,Sounds/spa_mariposa.mp3,2020-06-04_17h19.14.050,TranslationElicitation_eng-prolific,3.2.4,Win32,60,5eb2d2df52bcce074be5583a,10.08200002,1,0,98,57,1,97
,,,,,,,,,,,,,,,,,,,,,,,,,,,,,,,,,,,,,,,,,,,,,,,,,,,61,mariposa,Spanish,Sounds/spa_mariposa.mp3,2020-06-04_17h19.14.050,TranslationElicitation_eng-prolific,3.2.4,Win32,60,5eb2d2df52bcce074be5583a,,1,0,98,57,1,97
,,,,,,,,,,,,,,,,,,,,,,,,,,,,,,,,,,,,,,,,,o,2.281000137,O,FALSE,,,,,,,15,caballo,Spanish,Sounds/spa_caballo.mp3,2020-06-04_17h19.14.050,TranslationElicitation_eng-prolific,3.2.4,Win32,60,5eb2d2df52bcce074be5583a,,1,0,98,13,1,97
,,,,,,,,,,,,,,,,,,,,,,,,,,,,,,,,,,,,,,,,,r,2.448000193,OR,FALSE,,,,,,,15,caballo,Spanish,Sounds/spa_caballo.mp3,2020-06-04_17h19.14.050,TranslationElicitation_eng-prolific,3.2.4,Win32,60,5eb2d2df52bcce074be5583a,,1,0,98,13,1,97
,,,,,,,,,,,,,,,,,,,,,,,,,,,,,,,,,,,,,,,,,s,2.731000185,ORS,FALSE,,,,,,,15,caballo,Spanish,Sounds/spa_caballo.mp3,2020-06-04_17h19.14.050,TranslationElicitation_eng-prolific,3.2.4,Win32,60,5eb2d2df52bcce074be5583a,,1,0,98,13,1,97
,,,,,,,,,,,,,,,,,,,,,,,,,,,,,,,,,,,,,,,,,backspace,3.031000137,OR,TRUE,,,,,,,15,caballo,Spanish,Sounds/spa_caballo.mp3,2020-06-04_17h19.14.050,TranslationElicitation_eng-prolific,3.2.4,Win32,60,5eb2d2df52bcce074be5583a,,1,0,98,13,1,97
,,,,,,,,,,,,,,,,,,,,,,,,,,,,,,,,,,,,,,,,,backspace,3.18900013,O,TRUE,,,,,,,15,caballo,Spanish,Sounds/spa_caballo.mp3,2020-06-04_17h19.14.050,TranslationElicitation_eng-prolific,3.2.4,Win32,60,5eb2d2df52bcce074be5583a,,1,0,98,13,1,97
,,,,,,,,,,,,,,,,,,,,,,,,,,,,,,,,,,,,,,,,,backspace,3.366000175,,TRUE,,,,,,,15,caballo,Spanish,Sounds/spa_caballo.mp3,2020-06-04_17h19.14.050,TranslationElicitation_eng-prolific,3.2.4,Win32,60,5eb2d2df52bcce074be5583a,,1,0,98,13,1,97
,,,,,,,,,,,,,,,,,,,,,,,,,,,,,,,,,,,,,,,,,h,4.031000137,H,TRUE,,,,,,,15,caballo,Spanish,Sounds/spa_caballo.mp3,2020-06-04_17h19.14.050,TranslationElicitation_eng-prolific,3.2.4,Win32,60,5eb2d2df52bcce074be5583a,,1,0,98,13,1,97
,,,,,,,,,,,,,,,,,,,,,,,,,,,,,,,,,,,,,,,,,o,4.948000193,HO,TRUE,,,,,,,15,caballo,Spanish,Sounds/spa_caballo.mp3,2020-06-04_17h19.14.050,TranslationElicitation_eng-prolific,3.2.4,Win32,60,5eb2d2df52bcce074be5583a,,1,0,98,13,1,97
,,,,,,,,,,,,,,,,,,,,,,,,,,,,,,,,,,,,,,,,,d,5.414999962,HOD,TRUE,,,,,,,15,caballo,Spanish,Sounds/spa_caballo.mp3,2020-06-04_17h19.14.050,TranslationElicitation_eng-prolific,3.2.4,Win32,60,5eb2d2df52bcce074be5583a,,1,0,98,13,1,97
,,,,,,,,,,,,,,,,,,,,,,,,,,,,,,,,,,,,,,,,,backspace,6.397000074,HO,TRUE,,,,,,,15,caballo,Spanish,Sounds/spa_caballo.mp3,2020-06-04_17h19.14.050,TranslationElicitation_eng-prolific,3.2.4,Win32,60,5eb2d2df52bcce074be5583a,,1,0,98,13,1,97
,,,,,,,,,,,,,,,,,,,,,,,,,,,,,,,,,,,,,,,,,r,6.832000017,HOR,TRUE,,,,,,,15,caballo,Spanish,Sounds/spa_caballo.mp3,2020-06-04_17h19.14.050,TranslationElicitation_eng-prolific,3.2.4,Win32,60,5eb2d2df52bcce074be5583a,,1,0,98,13,1,97
,,,,,,,,,,,,,,,,,,,,,,,,,,,,,,,,,,,,,,,,,s,6.94900012,HORS,TRUE,,,,,,,15,caballo,Spanish,Sounds/spa_caballo.mp3,2020-06-04_17h19.14.050,TranslationElicitation_eng-prolific,3.2.4,Win32,60,5eb2d2df52bcce074be5583a,,1,0,98,13,1,97
,,,,,,,,,,,,,,,,,,,,,,,,,,,,,,,,,,,,,,,,,e,7.083000183,HORSE,TRUE,,,,,,,15,caballo,Spanish,Sounds/spa_caballo.mp3,2020-06-04_17h19.14.050,TranslationElicitation_eng-prolific,3.2.4,Win32,60,5eb2d2df52bcce074be5583a,,1,0,98,13,1,97
,,,,,,,,,,,,,,,,,,,,,,,,,,,,,,,,,,,,,,,,,return,7.514000177,HORSE,TRUE,,,,,,,15,caballo,Spanish,Sounds/spa_caballo.mp3,2020-06-04_17h19.14.050,TranslationElicitation_eng-prolific,3.2.4,Win32,60,5eb2d2df52bcce074be5583a,7.514000177,1,0,98,13,1,97
,,,,,,,,,,,,,,,,,,,,,,,,,,,,,,,,,,,,,,,,,,,,,,,,,,,15,caballo,Spanish,Sounds/spa_caballo.mp3,2020-06-04_17h19.14.050,TranslationElicitation_eng-prolific,3.2.4,Win32,60,5eb2d2df52bcce074be5583a,,1,0,98,13,1,97
,,,,,,,,,,,,,,,,,,,,,,,,,,,,,,,,,,,,,,,,,p,1.684000015,P,FALSE,,,,,,,81,pelota,Spanish,Sounds/spa_pelota.mp3,2020-06-04_17h19.14.050,TranslationElicitation_eng-prolific,3.2.4,Win32,60,5eb2d2df52bcce074be5583a,,1,0,98,76,1,97
,,,,,,,,,,,,,,,,,,,,,,,,,,,,,,,,,,,,,,,,,i,1.935000181,PI,FALSE,,,,,,,81,pelota,Spanish,Sounds/spa_pelota.mp3,2020-06-04_17h19.14.050,TranslationElicitation_eng-prolific,3.2.4,Win32,60,5eb2d2df52bcce074be5583a,,1,0,98,76,1,97
,,,,,,,,,,,,,,,,,,,,,,,,,,,,,,,,,,,,,,,,,l,2.150000095,PIL,FALSE,,,,,,,81,pelota,Spanish,Sounds/spa_pelota.mp3,2020-06-04_17h19.14.050,TranslationElicitation_eng-prolific,3.2.4,Win32,60,5eb2d2df52bcce074be5583a,,1,0,98,76,1,97
,,,,,,,,,,,,,,,,,,,,,,,,,,,,,,,,,,,,,,,,,l,2.282999992,PILL,FALSE,,,,,,,81,pelota,Spanish,Sounds/spa_pelota.mp3,2020-06-04_17h19.14.050,TranslationElicitation_eng-prolific,3.2.4,Win32,60,5eb2d2df52bcce074be5583a,,1,0,98,76,1,97
,,,,,,,,,,,,,,,,,,,,,,,,,,,,,,,,,,,,,,,,,o,2.450999975,PILLO,FALSE,,,,,,,81,pelota,Spanish,Sounds/spa_pelota.mp3,2020-06-04_17h19.14.050,TranslationElicitation_eng-prolific,3.2.4,Win32,60,5eb2d2df52bcce074be5583a,,1,0,98,76,1,97
,,,,,,,,,,,,,,,,,,,,,,,,,,,,,,,,,,,,,,,,,w,3.082999945,PILLOW,FALSE,,,,,,,81,pelota,Spanish,Sounds/spa_pelota.mp3,2020-06-04_17h19.14.050,TranslationElicitation_eng-prolific,3.2.4,Win32,60,5eb2d2df52bcce074be5583a,,1,0,98,76,1,97
,,,,,,,,,,,,,,,,,,,,,,,,,,,,,,,,,,,,,,,,,return,3.38499999,PILLOW,FALSE,,,,,,,81,pelota,Spanish,Sounds/spa_pelota.mp3,2020-06-04_17h19.14.050,TranslationElicitation_eng-prolific,3.2.4,Win32,60,5eb2d2df52bcce074be5583a,3.38499999,1,0,98,76,1,97
,,,,,,,,,,,,,,,,,,,,,,,,,,,,,,,,,,,,,,,,,,,,,,,,,,,81,pelota,Spanish,Sounds/spa_pelota.mp3,2020-06-04_17h19.14.050,TranslationElicitation_eng-prolific,3.2.4,Win32,60,5eb2d2df52bcce074be5583a,,1,0,98,76,1,97
,,,,,,,,,,,,,,,,,,,,,,,,,,,,,,,,,,,,,,,,,return,1.867000103,,FALSE,,,,,,,18,camisa,Spanish,Sounds/spa_camisa.mp3,2020-06-04_17h19.14.050,TranslationElicitation_eng-prolific,3.2.4,Win32,60,5eb2d2df52bcce074be5583a,1.867000103,1,0,98,16,1,97
,,,,,,,,,,,,,,,,,,,,,,,,,,,,,,,,,,,,,,,,,,,,,,,,,,,18,camisa,Spanish,Sounds/spa_camisa.mp3,2020-06-04_17h19.14.050,TranslationElicitation_eng-prolific,3.2.4,Win32,60,5eb2d2df52bcce074be5583a,,1,0,98,16,1,97
,,,,,,,,,,,,,,,,,,,,,,,,,,,,,,,,,,,,,,,,,m,2.049999952,M,FALSE,,,,,,,62,martillo,Spanish,Sounds/spa_martillo.mp3,2020-06-04_17h19.14.050,TranslationElicitation_eng-prolific,3.2.4,Win32,60,5eb2d2df52bcce074be5583a,,1,0,98,58,1,97
,,,,,,,,,,,,,,,,,,,,,,,,,,,,,,,,,,,,,,,,,a,2.282000065,MA,FALSE,,,,,,,62,martillo,Spanish,Sounds/spa_martillo.mp3,2020-06-04_17h19.14.050,TranslationElicitation_eng-prolific,3.2.4,Win32,60,5eb2d2df52bcce074be5583a,,1,0,98,58,1,97
,,,,,,,,,,,,,,,,,,,,,,,,,,,,,,,,,,,,,,,,,t,2.649999857,MAT,FALSE,,,,,,,62,martillo,Spanish,Sounds/spa_martillo.mp3,2020-06-04_17h19.14.050,TranslationElicitation_eng-prolific,3.2.4,Win32,60,5eb2d2df52bcce074be5583a,,1,0,98,58,1,97
,,,,,,,,,,,,,,,,,,,,,,,,,,,,,,,,,,,,,,,,,i,2.948999882,MATI,FALSE,,,,,,,62,martillo,Spanish,Sounds/spa_martillo.mp3,2020-06-04_17h19.14.050,TranslationElicitation_eng-prolific,3.2.4,Win32,60,5eb2d2df52bcce074be5583a,,1,0,98,58,1,97
,,,,,,,,,,,,,,,,,,,,,,,,,,,,,,,,,,,,,,,,,n,3.832999945,MATIN,FALSE,,,,,,,62,martillo,Spanish,Sounds/spa_martillo.mp3,2020-06-04_17h19.14.050,TranslationElicitation_eng-prolific,3.2.4,Win32,60,5eb2d2df52bcce074be5583a,,1,0,98,58,1,97
,,,,,,,,,,,,,,,,,,,,,,,,,,,,,,,,,,,,,,,,,i,4.14199996,MATINI,FALSE,,,,,,,62,martillo,Spanish,Sounds/spa_martillo.mp3,2020-06-04_17h19.14.050,TranslationElicitation_eng-prolific,3.2.4,Win32,60,5eb2d2df52bcce074be5583a,,1,0,98,58,1,97
,,,,,,,,,,,,,,,,,,,,,,,,,,,,,,,,,,,,,,,,,return,4.497999907,MATINI,FALSE,,,,,,,62,martillo,Spanish,Sounds/spa_martillo.mp3,2020-06-04_17h19.14.050,TranslationElicitation_eng-prolific,3.2.4,Win32,60,5eb2d2df52bcce074be5583a,4.497999907,1,0,98,58,1,97
,,,,,,,,,,,,,,,,,,,,,,,,,,,,,,,,,,,,,,,,,,,,,,,,,,,62,martillo,Spanish,Sounds/spa_martillo.mp3,2020-06-04_17h19.14.050,TranslationElicitation_eng-prolific,3.2.4,Win32,60,5eb2d2df52bcce074be5583a,,1,0,98,58,1,97
,,,,,,,,,,,,,,,,,,,,,,,,,,,,,,,,,,,,,,,,,t,2.548999786,T,FALSE,,,,,,,23,cerdo,Spanish,Sounds/spa_cerdo.mp3,2020-06-04_17h19.14.050,TranslationElicitation_eng-prolific,3.2.4,Win32,60,5eb2d2df52bcce074be5583a,,1,0,98,21,1,97
,,,,,,,,,,,,,,,,,,,,,,,,,,,,,,,,,,,,,,,,,h,2.715999842,TH,FALSE,,,,,,,23,cerdo,Spanish,Sounds/spa_cerdo.mp3,2020-06-04_17h19.14.050,TranslationElicitation_eng-prolific,3.2.4,Win32,60,5eb2d2df52bcce074be5583a,,1,0,98,21,1,97
,,,,,,,,,,,,,,,,,,,,,,,,,,,,,,,,,,,,,,,,,r,3.032999992,THR,FALSE,,,,,,,23,cerdo,Spanish,Sounds/spa_cerdo.mp3,2020-06-04_17h19.14.050,TranslationElicitation_eng-prolific,3.2.4,Win32,60,5eb2d2df52bcce074be5583a,,1,0,98,21,1,97
,,,,,,,,,,,,,,,,,,,,,,,,,,,,,,,,,,,,,,,,,backspace,3.433999777,TH,TRUE,,,,,,,23,cerdo,Spanish,Sounds/spa_cerdo.mp3,2020-06-04_17h19.14.050,TranslationElicitation_eng-prolific,3.2.4,Win32,60,5eb2d2df52bcce074be5583a,,1,0,98,21,1,97
,,,,,,,,,,,,,,,,,,,,,,,,,,,,,,,,,,,,,,,,,i,3.717999935,THI,TRUE,,,,,,,23,cerdo,Spanish,Sounds/spa_cerdo.mp3,2020-06-04_17h19.14.050,TranslationElicitation_eng-prolific,3.2.4,Win32,60,5eb2d2df52bcce074be5583a,,1,0,98,21,1,97
,,,,,,,,,,,,,,,,,,,,,,,,,,,,,,,,,,,,,,,,,r,3.833999872,THIR,TRUE,,,,,,,23,cerdo,Spanish,Sounds/spa_cerdo.mp3,2020-06-04_17h19.14.050,TranslationElicitation_eng-prolific,3.2.4,Win32,60,5eb2d2df52bcce074be5583a,,1,0,98,21,1,97
,,,,,,,,,,,,,,,,,,,,,,,,,,,,,,,,,,,,,,,,,d,4.03399992,THIRD,TRUE,,,,,,,23,cerdo,Spanish,Sounds/spa_cerdo.mp3,2020-06-04_17h19.14.050,TranslationElicitation_eng-prolific,3.2.4,Win32,60,5eb2d2df52bcce074be5583a,,1,0,98,21,1,97
,,,,,,,,,,,,,,,,,,,,,,,,,,,,,,,,,,,,,,,,,return,4.349999905,THIRD,TRUE,,,,,,,23,cerdo,Spanish,Sounds/spa_cerdo.mp3,2020-06-04_17h19.14.050,TranslationElicitation_eng-prolific,3.2.4,Win32,60,5eb2d2df52bcce074be5583a,4.349999905,1,0,98,21,1,97
,,,,,,,,,,,,,,,,,,,,,,,,,,,,,,,,,,,,,,,,,,,,,,,,,,,23,cerdo,Spanish,Sounds/spa_cerdo.mp3,2020-06-04_17h19.14.050,TranslationElicitation_eng-prolific,3.2.4,Win32,60,5eb2d2df52bcce074be5583a,,1,0,98,21,1,97
,,,,,,,,,,,,,,,,,,,,,,,,,,,,,,,,,,,,,,,,,o,1.699999809,O,FALSE,,,,,,,73,oveja,Spanish,Sounds/spa_oveja.mp3,2020-06-04_17h19.14.050,TranslationElicitation_eng-prolific,3.2.4,Win32,60,5eb2d2df52bcce074be5583a,,1,0,98,68,1,97
,,,,,,,,,,,,,,,,,,,,,,,,,,,,,,,,,,,,,,,,,b,2.032999992,OB,FALSE,,,,,,,73,oveja,Spanish,Sounds/spa_oveja.mp3,2020-06-04_17h19.14.050,TranslationElicitation_eng-prolific,3.2.4,Win32,60,5eb2d2df52bcce074be5583a,,1,0,98,68,1,97
,,,,,,,,,,,,,,,,,,,,,,,,,,,,,,,,,,,,,,,,,e,2.366999865,OBE,FALSE,,,,,,,73,oveja,Spanish,Sounds/spa_oveja.mp3,2020-06-04_17h19.14.050,TranslationElicitation_eng-prolific,3.2.4,Win32,60,5eb2d2df52bcce074be5583a,,1,0,98,68,1,97
,,,,,,,,,,,,,,,,,,,,,,,,,,,,,,,,,,,,,,,,,y,3.03399992,OBEY,FALSE,,,,,,,73,oveja,Spanish,Sounds/spa_oveja.mp3,2020-06-04_17h19.14.050,TranslationElicitation_eng-prolific,3.2.4,Win32,60,5eb2d2df52bcce074be5583a,,1,0,98,68,1,97
,,,,,,,,,,,,,,,,,,,,,,,,,,,,,,,,,,,,,,,,,return,3.431999922,OBEY,FALSE,,,,,,,73,oveja,Spanish,Sounds/spa_oveja.mp3,2020-06-04_17h19.14.050,TranslationElicitation_eng-prolific,3.2.4,Win32,60,5eb2d2df52bcce074be5583a,3.431999922,1,0,98,68,1,97
,,,,,,,,,,,,,,,,,,,,,,,,,,,,,,,,,,,,,,,,,,,,,,,,,,,73,oveja,Spanish,Sounds/spa_oveja.mp3,2020-06-04_17h19.14.050,TranslationElicitation_eng-prolific,3.2.4,Win32,60,5eb2d2df52bcce074be5583a,,1,0,98,68,1,97
,,,,,,,,,,,,,,,,,,,,,,,,,,,,,,,,,,,,,,,,,g,3.798999786,G,FALSE,,,,,,,45,gorro,Spanish,Sounds/spa_gorro.mp3,2020-06-04_17h19.14.050,TranslationElicitation_eng-prolific,3.2.4,Win32,60,5eb2d2df52bcce074be5583a,,1,0,98,41,1,97
,,,,,,,,,,,,,,,,,,,,,,,,,,,,,,,,,,,,,,,,,o,4.315999985,GO,FALSE,,,,,,,45,gorro,Spanish,Sounds/spa_gorro.mp3,2020-06-04_17h19.14.050,TranslationElicitation_eng-prolific,3.2.4,Win32,60,5eb2d2df52bcce074be5583a,,1,0,98,41,1,97
,,,,,,,,,,,,,,,,,,,,,,,,,,,,,,,,,,,,,,,,,r,4.548999786,GOR,FALSE,,,,,,,45,gorro,Spanish,Sounds/spa_gorro.mp3,2020-06-04_17h19.14.050,TranslationElicitation_eng-prolific,3.2.4,Win32,60,5eb2d2df52bcce074be5583a,,1,0,98,41,1,97
,,,,,,,,,,,,,,,,,,,,,,,,,,,,,,,,,,,,,,,,,i,4.764999866,GORI,FALSE,,,,,,,45,gorro,Spanish,Sounds/spa_gorro.mp3,2020-06-04_17h19.14.050,TranslationElicitation_eng-prolific,3.2.4,Win32,60,5eb2d2df52bcce074be5583a,,1,0,98,41,1,97
,,,,,,,,,,,,,,,,,,,,,,,,,,,,,,,,,,,,,,,,,l,5.014999866,GORIL,FALSE,,,,,,,45,gorro,Spanish,Sounds/spa_gorro.mp3,2020-06-04_17h19.14.050,TranslationElicitation_eng-prolific,3.2.4,Win32,60,5eb2d2df52bcce074be5583a,,1,0,98,41,1,97
,,,,,,,,,,,,,,,,,,,,,,,,,,,,,,,,,,,,,,,,,l,5.181999922,GORILL,FALSE,,,,,,,45,gorro,Spanish,Sounds/spa_gorro.mp3,2020-06-04_17h19.14.050,TranslationElicitation_eng-prolific,3.2.4,Win32,60,5eb2d2df52bcce074be5583a,,1,0,98,41,1,97
,,,,,,,,,,,,,,,,,,,,,,,,,,,,,,,,,,,,,,,,,a,5.329999924,GORILLA,FALSE,,,,,,,45,gorro,Spanish,Sounds/spa_gorro.mp3,2020-06-04_17h19.14.050,TranslationElicitation_eng-prolific,3.2.4,Win32,60,5eb2d2df52bcce074be5583a,,1,0,98,41,1,97
,,,,,,,,,,,,,,,,,,,,,,,,,,,,,,,,,,,,,,,,,return,5.765999794,GORILLA,FALSE,,,,,,,45,gorro,Spanish,Sounds/spa_gorro.mp3,2020-06-04_17h19.14.050,TranslationElicitation_eng-prolific,3.2.4,Win32,60,5eb2d2df52bcce074be5583a,5.765999794,1,0,98,41,1,97
,,,,,,,,,,,,,,,,,,,,,,,,,,,,,,,,,,,,,,,,,,,,,,,,,,,45,gorro,Spanish,Sounds/spa_gorro.mp3,2020-06-04_17h19.14.050,TranslationElicitation_eng-prolific,3.2.4,Win32,60,5eb2d2df52bcce074be5583a,,1,0,98,41,1,97
,,,,,,,,,,,,,,,,,,,,,,,,,,,,,,,,,,,,,,,,,return,1.698999882,,FALSE,,,,,,,12,brazo,Spanish,Sounds/spa_brazo.mp3,2020-06-04_17h19.14.050,TranslationElicitation_eng-prolific,3.2.4,Win32,60,5eb2d2df52bcce074be5583a,1.698999882,1,0,98,10,1,97
,,,,,,,,,,,,,,,,,,,,,,,,,,,,,,,,,,,,,,,,,,,,,,,,,,,12,brazo,Spanish,Sounds/spa_brazo.mp3,2020-06-04_17h19.14.050,TranslationElicitation_eng-prolific,3.2.4,Win32,60,5eb2d2df52bcce074be5583a,,1,0,98,10,1,97
,,,,,,,,,,,,,,,,,,,,,,,,,,,,,,,,,,,,,,,,,p,2.149999857,P,FALSE,,,,,,,91,puerta,Spanish,Sounds/spa_puerta.mp3,2020-06-04_17h19.14.050,TranslationElicitation_eng-prolific,3.2.4,Win32,60,5eb2d2df52bcce074be5583a,,1,0,98,86,1,97
,,,,,,,,,,,,,,,,,,,,,,,,,,,,,,,,,,,,,,,,,r,2.599999905,PR,FALSE,,,,,,,91,puerta,Spanish,Sounds/spa_puerta.mp3,2020-06-04_17h19.14.050,TranslationElicitation_eng-prolific,3.2.4,Win32,60,5eb2d2df52bcce074be5583a,,1,0,98,86,1,97
,,,,,,,,,,,,,,,,,,,,,,,,,,,,,,,,,,,,,,,,,e,2.799000025,PRE,FALSE,,,,,,,91,puerta,Spanish,Sounds/spa_puerta.mp3,2020-06-04_17h19.14.050,TranslationElicitation_eng-prolific,3.2.4,Win32,60,5eb2d2df52bcce074be5583a,,1,0,98,86,1,97
,,,,,,,,,,,,,,,,,,,,,,,,,,,,,,,,,,,,,,,,,t,3.064999819,PRET,FALSE,,,,,,,91,puerta,Spanish,Sounds/spa_puerta.mp3,2020-06-04_17h19.14.050,TranslationElicitation_eng-prolific,3.2.4,Win32,60,5eb2d2df52bcce074be5583a,,1,0,98,86,1,97
,,,,,,,,,,,,,,,,,,,,,,,,,,,,,,,,,,,,,,,,,t,3.213999987,PRETT,FALSE,,,,,,,91,puerta,Spanish,Sounds/spa_puerta.mp3,2020-06-04_17h19.14.050,TranslationElicitation_eng-prolific,3.2.4,Win32,60,5eb2d2df52bcce074be5583a,,1,0,98,86,1,97
,,,,,,,,,,,,,,,,,,,,,,,,,,,,,,,,,,,,,,,,,y,3.383999825,PRETTY,FALSE,,,,,,,91,puerta,Spanish,Sounds/spa_puerta.mp3,2020-06-04_17h19.14.050,TranslationElicitation_eng-prolific,3.2.4,Win32,60,5eb2d2df52bcce074be5583a,,1,0,98,86,1,97
,,,,,,,,,,,,,,,,,,,,,,,,,,,,,,,,,,,,,,,,,return,3.714999914,PRETTY,FALSE,,,,,,,91,puerta,Spanish,Sounds/spa_puerta.mp3,2020-06-04_17h19.14.050,TranslationElicitation_eng-prolific,3.2.4,Win32,60,5eb2d2df52bcce074be5583a,3.714999914,1,0,98,86,1,97
,,,,,,,,,,,,,,,,,,,,,,,,,,,,,,,,,,,,,,,,,,,,,,,,,,,91,puerta,Spanish,Sounds/spa_puerta.mp3,2020-06-04_17h19.14.050,TranslationElicitation_eng-prolific,3.2.4,Win32,60,5eb2d2df52bcce074be5583a,,1,0,98,86,1,97
,,,,,,,,,,,,,,,,,,,,,,,,,,,,,,,,,,,,,,,,,c,3.200000048,C,FALSE,,,,,,,66,moto,Spanish,Sounds/spa_moto.mp3,2020-06-04_17h19.14.050,TranslationElicitation_eng-prolific,3.2.4,Win32,60,5eb2d2df52bcce074be5583a,,1,0,98,62,1,97
,,,,,,,,,,,,,,,,,,,,,,,,,,,,,,,,,,,,,,,,,a,3.700000048,CA,FALSE,,,,,,,66,moto,Spanish,Sounds/spa_moto.mp3,2020-06-04_17h19.14.050,TranslationElicitation_eng-prolific,3.2.4,Win32,60,5eb2d2df52bcce074be5583a,,1,0,98,62,1,97
,,,,,,,,,,,,,,,,,,,,,,,,,,,,,,,,,,,,,,,,,r,4.01699996,CAR,FALSE,,,,,,,66,moto,Spanish,Sounds/spa_moto.mp3,2020-06-04_17h19.14.050,TranslationElicitation_eng-prolific,3.2.4,Win32,60,5eb2d2df52bcce074be5583a,,1,0,98,62,1,97
,,,,,,,,,,,,,,,,,,,,,,,,,,,,,,,,,,,,,,,,,return,4.5,CAR,FALSE,,,,,,,66,moto,Spanish,Sounds/spa_moto.mp3,2020-06-04_17h19.14.050,TranslationElicitation_eng-prolific,3.2.4,Win32,60,5eb2d2df52bcce074be5583a,4.5,1,0,98,62,1,97
,,,,,,,,,,,,,,,,,,,,,,,,,,,,,,,,,,,,,,,,,,,,,,,,,,,66,moto,Spanish,Sounds/spa_moto.mp3,2020-06-04_17h19.14.050,TranslationElicitation_eng-prolific,3.2.4,Win32,60,5eb2d2df52bcce074be5583a,,1,0,98,62,1,97
,,,,,,,,,,,,,,,,,,,,,,,,,,,,,,,,,,,,,,,,,return,1.731999874,,FALSE,,,,,,,14,burro,Spanish,Sounds/spa_burro.mp3,2020-06-04_17h19.14.050,TranslationElicitation_eng-prolific,3.2.4,Win32,60,5eb2d2df52bcce074be5583a,1.731999874,1,0,98,12,1,97
,,,,,,,,,,,,,,,,,,,,,,,,,,,,,,,,,,,,,,,,,,,,,,,,,,,14,burro,Spanish,Sounds/spa_burro.mp3,2020-06-04_17h19.14.050,TranslationElicitation_eng-prolific,3.2.4,Win32,60,5eb2d2df52bcce074be5583a,,1,0,98,12,1,97
,,,,,,,,,,,,,,,,,,,,,,,,,,,,,,,,,,,,,,,,,b,2.632999897,B,FALSE,,,,,,,8,bol,Spanish,Sounds/spa_bol.mp3,2020-06-04_17h19.14.050,TranslationElicitation_eng-prolific,3.2.4,Win32,60,5eb2d2df52bcce074be5583a,,1,0,98,6,1,97
,,,,,,,,,,,,,,,,,,,,,,,,,,,,,,,,,,,,,,,,,a,2.816999912,BA,FALSE,,,,,,,8,bol,Spanish,Sounds/spa_bol.mp3,2020-06-04_17h19.14.050,TranslationElicitation_eng-prolific,3.2.4,Win32,60,5eb2d2df52bcce074be5583a,,1,0,98,6,1,97
,,,,,,,,,,,,,,,,,,,,,,,,,,,,,,,,,,,,,,,,,l,3.549999952,BAL,FALSE,,,,,,,8,bol,Spanish,Sounds/spa_bol.mp3,2020-06-04_17h19.14.050,TranslationElicitation_eng-prolific,3.2.4,Win32,60,5eb2d2df52bcce074be5583a,,1,0,98,6,1,97
,,,,,,,,,,,,,,,,,,,,,,,,,,,,,,,,,,,,,,,,,l,3.736000061,BALL,FALSE,,,,,,,8,bol,Spanish,Sounds/spa_bol.mp3,2020-06-04_17h19.14.050,TranslationElicitation_eng-prolific,3.2.4,Win32,60,5eb2d2df52bcce074be5583a,,1,0,98,6,1,97
,,,,,,,,,,,,,,,,,,,,,,,,,,,,,,,,,,,,,,,,,return,3.99000001,BALL,FALSE,,,,,,,8,bol,Spanish,Sounds/spa_bol.mp3,2020-06-04_17h19.14.050,TranslationElicitation_eng-prolific,3.2.4,Win32,60,5eb2d2df52bcce074be5583a,3.99000001,1,0,98,6,1,97
,,,,,,,,,,,,,,,,,,,,,,,,,,,,,,,,,,,,,,,,,,,,,,,,,,,8,bol,Spanish,Sounds/spa_bol.mp3,2020-06-04_17h19.14.050,TranslationElicitation_eng-prolific,3.2.4,Win32,60,5eb2d2df52bcce074be5583a,,1,0,98,6,1,97
,,,,,,,,,,,,,,,,,,,,,,,,,,,,,,,,,,,,,,,,,return,1.665999889,,FALSE,,,,,,,50,jirafa,Spanish,Sounds/spa_jirafa.mp3,2020-06-04_17h19.14.050,TranslationElicitation_eng-prolific,3.2.4,Win32,60,5eb2d2df52bcce074be5583a,1.665999889,1,0,98,46,1,97
,,,,,,,,,,,,,,,,,,,,,,,,,,,,,,,,,,,,,,,,,,,,,,,,,,,50,jirafa,Spanish,Sounds/spa_jirafa.mp3,2020-06-04_17h19.14.050,TranslationElicitation_eng-prolific,3.2.4,Win32,60,5eb2d2df52bcce074be5583a,,1,0,98,46,1,97
,,,,,,,,,,,,,,,,,,,,,,,,,,,,,,,,,,,,,,,,,f,1.634000063,F,FALSE,,,,,,,37,flor,Spanish,Sounds/spa_flor.mp3,2020-06-04_17h19.14.050,TranslationElicitation_eng-prolific,3.2.4,Win32,60,5eb2d2df52bcce074be5583a,,1,0,98,33,1,97
,,,,,,,,,,,,,,,,,,,,,,,,,,,,,,,,,,,,,,,,,l,2.102999926,FL,FALSE,,,,,,,37,flor,Spanish,Sounds/spa_flor.mp3,2020-06-04_17h19.14.050,TranslationElicitation_eng-prolific,3.2.4,Win32,60,5eb2d2df52bcce074be5583a,,1,0,98,33,1,97
,,,,,,,,,,,,,,,,,,,,,,,,,,,,,,,,,,,,,,,,,o,2.316999912,FLO,FALSE,,,,,,,37,flor,Spanish,Sounds/spa_flor.mp3,2020-06-04_17h19.14.050,TranslationElicitation_eng-prolific,3.2.4,Win32,60,5eb2d2df52bcce074be5583a,,1,0,98,33,1,97
,,,,,,,,,,,,,,,,,,,,,,,,,,,,,,,,,,,,,,,,,o,2.450999975,FLOO,FALSE,,,,,,,37,flor,Spanish,Sounds/spa_flor.mp3,2020-06-04_17h19.14.050,TranslationElicitation_eng-prolific,3.2.4,Win32,60,5eb2d2df52bcce074be5583a,,1,0,98,33,1,97
,,,,,,,,,,,,,,,,,,,,,,,,,,,,,,,,,,,,,,,,,r,3.667999983,FLOOR,FALSE,,,,,,,37,flor,Spanish,Sounds/spa_flor.mp3,2020-06-04_17h19.14.050,TranslationElicitation_eng-prolific,3.2.4,Win32,60,5eb2d2df52bcce074be5583a,,1,0,98,33,1,97
,,,,,,,,,,,,,,,,,,,,,,,,,,,,,,,,,,,,,,,,,return,4.117000103,FLOOR,FALSE,,,,,,,37,flor,Spanish,Sounds/spa_flor.mp3,2020-06-04_17h19.14.050,TranslationElicitation_eng-prolific,3.2.4,Win32,60,5eb2d2df52bcce074be5583a,4.117000103,1,0,98,33,1,97
,,,,,,,,,,,,,,,,,,,,,,,,,,,,,,,,,,,,,,,,,,,,,,,,,,,37,flor,Spanish,Sounds/spa_flor.mp3,2020-06-04_17h19.14.050,TranslationElicitation_eng-prolific,3.2.4,Win32,60,5eb2d2df52bcce074be5583a,,1,0,98,33,1,97
,,,,,,,,,,,,,,,,,,,,,,,,,,,,,,,,,,,,,,,,,y,3,Y,FALSE,,,,,,,41,gallina,Spanish,Sounds/spa_gallina.mp3,2020-06-04_17h19.14.050,TranslationElicitation_eng-prolific,3.2.4,Win32,60,5eb2d2df52bcce074be5583a,,1,0,98,37,1,97
,,,,,,,,,,,,,,,,,,,,,,,,,,,,,,,,,,,,,,,,,e,3.851000071,YE,FALSE,,,,,,,41,gallina,Spanish,Sounds/spa_gallina.mp3,2020-06-04_17h19.14.050,TranslationElicitation_eng-prolific,3.2.4,Win32,60,5eb2d2df52bcce074be5583a,,1,0,98,37,1,97
,,,,,,,,,,,,,,,,,,,,,,,,,,,,,,,,,,,,,,,,,n,4.300000191,YEN,FALSE,,,,,,,41,gallina,Spanish,Sounds/spa_gallina.mp3,2020-06-04_17h19.14.050,TranslationElicitation_eng-prolific,3.2.4,Win32,60,5eb2d2df52bcce074be5583a,,1,0,98,37,1,97
,,,,,,,,,,,,,,,,,,,,,,,,,,,,,,,,,,,,,,,,,a,4.598999977,YENA,FALSE,,,,,,,41,gallina,Spanish,Sounds/spa_gallina.mp3,2020-06-04_17h19.14.050,TranslationElicitation_eng-prolific,3.2.4,Win32,60,5eb2d2df52bcce074be5583a,,1,0,98,37,1,97
,,,,,,,,,,,,,,,,,,,,,,,,,,,,,,,,,,,,,,,,,backspace,5.200000048,YEN,TRUE,,,,,,,41,gallina,Spanish,Sounds/spa_gallina.mp3,2020-06-04_17h19.14.050,TranslationElicitation_eng-prolific,3.2.4,Win32,60,5eb2d2df52bcce074be5583a,,1,0,98,37,1,97
,,,,,,,,,,,,,,,,,,,,,,,,,,,,,,,,,,,,,,,,,backspace,5.433000088,YE,TRUE,,,,,,,41,gallina,Spanish,Sounds/spa_gallina.mp3,2020-06-04_17h19.14.050,TranslationElicitation_eng-prolific,3.2.4,Win32,60,5eb2d2df52bcce074be5583a,,1,0,98,37,1,97
,,,,,,,,,,,,,,,,,,,,,,,,,,,,,,,,,,,,,,,,,backspace,5.584000111,Y,TRUE,,,,,,,41,gallina,Spanish,Sounds/spa_gallina.mp3,2020-06-04_17h19.14.050,TranslationElicitation_eng-prolific,3.2.4,Win32,60,5eb2d2df52bcce074be5583a,,1,0,98,37,1,97
,,,,,,,,,,,,,,,,,,,,,,,,,,,,,,,,,,,,,,,,,backspace,5.732000113,,TRUE,,,,,,,41,gallina,Spanish,Sounds/spa_gallina.mp3,2020-06-04_17h19.14.050,TranslationElicitation_eng-prolific,3.2.4,Win32,60,5eb2d2df52bcce074be5583a,,1,0,98,37,1,97
,,,,,,,,,,,,,,,,,,,,,,,,,,,,,,,,,,,,,,,,,h,6.448000193,H,TRUE,,,,,,,41,gallina,Spanish,Sounds/spa_gallina.mp3,2020-06-04_17h19.14.050,TranslationElicitation_eng-prolific,3.2.4,Win32,60,5eb2d2df52bcce074be5583a,,1,0,98,37,1,97
,,,,,,,,,,,,,,,,,,,,,,,,,,,,,,,,,,,,,,,,,y,6.666000128,HY,TRUE,,,,,,,41,gallina,Spanish,Sounds/spa_gallina.mp3,2020-06-04_17h19.14.050,TranslationElicitation_eng-prolific,3.2.4,Win32,60,5eb2d2df52bcce074be5583a,,1,0,98,37,1,97
,,,,,,,,,,,,,,,,,,,,,,,,,,,,,,,,,,,,,,,,,e,7.275000095,HYE,TRUE,,,,,,,41,gallina,Spanish,Sounds/spa_gallina.mp3,2020-06-04_17h19.14.050,TranslationElicitation_eng-prolific,3.2.4,Win32,60,5eb2d2df52bcce074be5583a,,1,0,98,37,1,97
,,,,,,,,,,,,,,,,,,,,,,,,,,,,,,,,,,,,,,,,,n,7.748000145,HYEN,TRUE,,,,,,,41,gallina,Spanish,Sounds/spa_gallina.mp3,2020-06-04_17h19.14.050,TranslationElicitation_eng-prolific,3.2.4,Win32,60,5eb2d2df52bcce074be5583a,,1,0,98,37,1,97
,,,,,,,,,,,,,,,,,,,,,,,,,,,,,,,,,,,,,,,,,a,8.116000175,HYENA,TRUE,,,,,,,41,gallina,Spanish,Sounds/spa_gallina.mp3,2020-06-04_17h19.14.050,TranslationElicitation_eng-prolific,3.2.4,Win32,60,5eb2d2df52bcce074be5583a,,1,0,98,37,1,97
,,,,,,,,,,,,,,,,,,,,,,,,,,,,,,,,,,,,,,,,,return,8.916000128,HYENA,TRUE,,,,,,,41,gallina,Spanish,Sounds/spa_gallina.mp3,2020-06-04_17h19.14.050,TranslationElicitation_eng-prolific,3.2.4,Win32,60,5eb2d2df52bcce074be5583a,8.916000128,1,0,98,37,1,97
,,,,,,,,,,,,,,,,,,,,,,,,,,,,,,,,,,,,,,,,,,,,,,,,,,,41,gallina,Spanish,Sounds/spa_gallina.mp3,2020-06-04_17h19.14.050,TranslationElicitation_eng-prolific,3.2.4,Win32,60,5eb2d2df52bcce074be5583a,,1,0,98,37,1,97
,,,,,,,,,,,,,,,,,,,,,,,,,,,,,,,,,,,,,,,,,t,9.228999853,T,FALSE,,,,,,,101,tren,Spanish,Sounds/spa_tren.mp3,2020-06-04_17h19.14.050,TranslationElicitation_eng-prolific,3.2.4,Win32,60,5eb2d2df52bcce074be5583a,,1,0,98,95,1,97
,,,,,,,,,,,,,,,,,,,,,,,,,,,,,,,,,,,,,,,,,h,9.362999916,TH,FALSE,,,,,,,101,tren,Spanish,Sounds/spa_tren.mp3,2020-06-04_17h19.14.050,TranslationElicitation_eng-prolific,3.2.4,Win32,60,5eb2d2df52bcce074be5583a,,1,0,98,95,1,97
,,,,,,,,,,,,,,,,,,,,,,,,,,,,,,,,,,,,,,,,,i,9.579999924,THI,FALSE,,,,,,,101,tren,Spanish,Sounds/spa_tren.mp3,2020-06-04_17h19.14.050,TranslationElicitation_eng-prolific,3.2.4,Win32,60,5eb2d2df52bcce074be5583a,,1,0,98,95,1,97
,,,,,,,,,,,,,,,,,,,,,,,,,,,,,,,,,,,,,,,,,r,9.779999971,THIR,FALSE,,,,,,,101,tren,Spanish,Sounds/spa_tren.mp3,2020-06-04_17h19.14.050,TranslationElicitation_eng-prolific,3.2.4,Win32,60,5eb2d2df52bcce074be5583a,,1,0,98,95,1,97
,,,,,,,,,,,,,,,,,,,,,,,,,,,,,,,,,,,,,,,,,t,9.947999954,THIRT,FALSE,,,,,,,101,tren,Spanish,Sounds/spa_tren.mp3,2020-06-04_17h19.14.050,TranslationElicitation_eng-prolific,3.2.4,Win32,60,5eb2d2df52bcce074be5583a,,1,0,98,95,1,97
,,,,,,,,,,,,,,,,,,,,,,,,,,,,,,,,,,,,,,,,,y,10.06399989,THIRTY,FALSE,,,,,,,101,tren,Spanish,Sounds/spa_tren.mp3,2020-06-04_17h19.14.050,TranslationElicitation_eng-prolific,3.2.4,Win32,60,5eb2d2df52bcce074be5583a,,1,0,98,95,1,97
,,,,,,,,,,,,,,,,,,,,,,,,,,,,,,,,,,,,,,,,,return,10.68199992,THIRTY,FALSE,,,,,,,101,tren,Spanish,Sounds/spa_tren.mp3,2020-06-04_17h19.14.050,TranslationElicitation_eng-prolific,3.2.4,Win32,60,5eb2d2df52bcce074be5583a,10.68199992,1,0,98,95,1,97
,,,,,,,,,,,,,,,,,,,,,,,,,,,,,,,,,,,,,,,,,,,,,,,,,,,101,tren,Spanish,Sounds/spa_tren.mp3,2020-06-04_17h19.14.050,TranslationElicitation_eng-prolific,3.2.4,Win32,60,5eb2d2df52bcce074be5583a,,1,0,98,95,1,97
,,,,,,,,,,,,,,,,,,,,,,,,,,,,,,,,,,,,,,,,,return,2.265000105,,FALSE,,,,,,,19,camiseta,Spanish,Sounds/spa_camiseta.mp3,2020-06-04_17h19.14.050,TranslationElicitation_eng-prolific,3.2.4,Win32,60,5eb2d2df52bcce074be5583a,2.265000105,1,0,98,17,1,97
,,,,,,,,,,,,,,,,,,,,,,,,,,,,,,,,,,,,,,,,,,,,,,,,,,,19,camiseta,Spanish,Sounds/spa_camiseta.mp3,2020-06-04_17h19.14.050,TranslationElicitation_eng-prolific,3.2.4,Win32,60,5eb2d2df52bcce074be5583a,,1,0,98,17,1,97
,,,,,,,,,,,,,,,,,,,,,,,,,,,,,,,,,,,,,,,,,return,2.84800005,,FALSE,,,,,,,60,manzana,Spanish,Sounds/spa_manzana.mp3,2020-06-04_17h19.14.050,TranslationElicitation_eng-prolific,3.2.4,Win32,60,5eb2d2df52bcce074be5583a,2.84800005,1,0,98,56,1,97
,,,,,,,,,,,,,,,,,,,,,,,,,,,,,,,,,,,,,,,,,,,,,,,,,,,60,manzana,Spanish,Sounds/spa_manzana.mp3,2020-06-04_17h19.14.050,TranslationElicitation_eng-prolific,3.2.4,Win32,60,5eb2d2df52bcce074be5583a,,1,0,98,56,1,97
,,,,,,,,,,,,,,,,,,,,,,,,,,,,,,,,,,,,,,,,,s,3.645000219,S,FALSE,,,,,,,59,mano,Spanish,Sounds/spa_mano.mp3,2020-06-04_17h19.14.050,TranslationElicitation_eng-prolific,3.2.4,Win32,60,5eb2d2df52bcce074be5583a,,1,0,98,55,1,97
,,,,,,,,,,,,,,,,,,,,,,,,,,,,,,,,,,,,,,,,,n,4.082000017,SN,FALSE,,,,,,,59,mano,Spanish,Sounds/spa_mano.mp3,2020-06-04_17h19.14.050,TranslationElicitation_eng-prolific,3.2.4,Win32,60,5eb2d2df52bcce074be5583a,,1,0,98,55,1,97
,,,,,,,,,,,,,,,,,,,,,,,,,,,,,,,,,,,,,,,,,g,4.349000216,SNG,FALSE,,,,,,,59,mano,Spanish,Sounds/spa_mano.mp3,2020-06-04_17h19.14.050,TranslationElicitation_eng-prolific,3.2.4,Win32,60,5eb2d2df52bcce074be5583a,,1,0,98,55,1,97
,,,,,,,,,,,,,,,,,,,,,,,,,,,,,,,,,,,,,,,,,backspace,4.81400013,SN,TRUE,,,,,,,59,mano,Spanish,Sounds/spa_mano.mp3,2020-06-04_17h19.14.050,TranslationElicitation_eng-prolific,3.2.4,Win32,60,5eb2d2df52bcce074be5583a,,1,0,98,55,1,97
,,,,,,,,,,,,,,,,,,,,,,,,,,,,,,,,,,,,,,,,,backspace,4.998000145,S,TRUE,,,,,,,59,mano,Spanish,Sounds/spa_mano.mp3,2020-06-04_17h19.14.050,TranslationElicitation_eng-prolific,3.2.4,Win32,60,5eb2d2df52bcce074be5583a,,1,0,98,55,1,97
,,,,,,,,,,,,,,,,,,,,,,,,,,,,,,,,,,,,,,,,,i,5.515000105,SI,TRUE,,,,,,,59,mano,Spanish,Sounds/spa_mano.mp3,2020-06-04_17h19.14.050,TranslationElicitation_eng-prolific,3.2.4,Win32,60,5eb2d2df52bcce074be5583a,,1,0,98,55,1,97
,,,,,,,,,,,,,,,,,,,,,,,,,,,,,,,,,,,,,,,,,n,5.782999992,SIN,TRUE,,,,,,,59,mano,Spanish,Sounds/spa_mano.mp3,2020-06-04_17h19.14.050,TranslationElicitation_eng-prolific,3.2.4,Win32,60,5eb2d2df52bcce074be5583a,,1,0,98,55,1,97
,,,,,,,,,,,,,,,,,,,,,,,,,,,,,,,,,,,,,,,,,g,6.031000137,SING,TRUE,,,,,,,59,mano,Spanish,Sounds/spa_mano.mp3,2020-06-04_17h19.14.050,TranslationElicitation_eng-prolific,3.2.4,Win32,60,5eb2d2df52bcce074be5583a,,1,0,98,55,1,97
,,,,,,,,,,,,,,,,,,,,,,,,,,,,,,,,,,,,,,,,,l,6.531000137,SINGL,TRUE,,,,,,,59,mano,Spanish,Sounds/spa_mano.mp3,2020-06-04_17h19.14.050,TranslationElicitation_eng-prolific,3.2.4,Win32,60,5eb2d2df52bcce074be5583a,,1,0,98,55,1,97
,,,,,,,,,,,,,,,,,,,,,,,,,,,,,,,,,,,,,,,,,e,6.68200016,SINGLE,TRUE,,,,,,,59,mano,Spanish,Sounds/spa_mano.mp3,2020-06-04_17h19.14.050,TranslationElicitation_eng-prolific,3.2.4,Win32,60,5eb2d2df52bcce074be5583a,,1,0,98,55,1,97
,,,,,,,,,,,,,,,,,,,,,,,,,,,,,,,,,,,,,,,,,return,7.56400013,SINGLE,TRUE,,,,,,,59,mano,Spanish,Sounds/spa_mano.mp3,2020-06-04_17h19.14.050,TranslationElicitation_eng-prolific,3.2.4,Win32,60,5eb2d2df52bcce074be5583a,7.56400013,1,0,98,55,1,97
,,,,,,,,,,,,,,,,,,,,,,,,,,,,,,,,,,,,,,,,,,,,,,,,,,,59,mano,Spanish,Sounds/spa_mano.mp3,2020-06-04_17h19.14.050,TranslationElicitation_eng-prolific,3.2.4,Win32,60,5eb2d2df52bcce074be5583a,,1,0,98,55,1,97
,,,,,,,,,,,,,,,,,,,,,,,,,,,,,,,,,,,,,,,,,p,2.532000065,P,FALSE,,,,,,,79,patata,Spanish,Sounds/spa_patata.mp3,2020-06-04_17h19.14.050,TranslationElicitation_eng-prolific,3.2.4,Win32,60,5eb2d2df52bcce074be5583a,,1,0,98,74,1,97
,,,,,,,,,,,,,,,,,,,,,,,,,,,,,,,,,,,,,,,,,o,2.766000032,PO,FALSE,,,,,,,79,patata,Spanish,Sounds/spa_patata.mp3,2020-06-04_17h19.14.050,TranslationElicitation_eng-prolific,3.2.4,Win32,60,5eb2d2df52bcce074be5583a,,1,0,98,74,1,97
,,,,,,,,,,,,,,,,,,,,,,,,,,,,,,,,,,,,,,,,,t,3.231999874,POT,FALSE,,,,,,,79,patata,Spanish,Sounds/spa_patata.mp3,2020-06-04_17h19.14.050,TranslationElicitation_eng-prolific,3.2.4,Win32,60,5eb2d2df52bcce074be5583a,,1,0,98,74,1,97
,,,,,,,,,,,,,,,,,,,,,,,,,,,,,,,,,,,,,,,,,a,3.384000063,POTA,FALSE,,,,,,,79,patata,Spanish,Sounds/spa_patata.mp3,2020-06-04_17h19.14.050,TranslationElicitation_eng-prolific,3.2.4,Win32,60,5eb2d2df52bcce074be5583a,,1,0,98,74,1,97
,,,,,,,,,,,,,,,,,,,,,,,,,,,,,,,,,,,,,,,,,t,3.519000053,POTAT,FALSE,,,,,,,79,patata,Spanish,Sounds/spa_patata.mp3,2020-06-04_17h19.14.050,TranslationElicitation_eng-prolific,3.2.4,Win32,60,5eb2d2df52bcce074be5583a,,1,0,98,74,1,97
,,,,,,,,,,,,,,,,,,,,,,,,,,,,,,,,,,,,,,,,,o,4.115999937,POTATO,FALSE,,,,,,,79,patata,Spanish,Sounds/spa_patata.mp3,2020-06-04_17h19.14.050,TranslationElicitation_eng-prolific,3.2.4,Win32,60,5eb2d2df52bcce074be5583a,,1,0,98,74,1,97
,,,,,,,,,,,,,,,,,,,,,,,,,,,,,,,,,,,,,,,,,return,4.815000057,POTATO,FALSE,,,,,,,79,patata,Spanish,Sounds/spa_patata.mp3,2020-06-04_17h19.14.050,TranslationElicitation_eng-prolific,3.2.4,Win32,60,5eb2d2df52bcce074be5583a,4.815000057,1,0,98,74,1,97
,,,,,,,,,,,,,,,,,,,,,,,,,,,,,,,,,,,,,,,,,,,,,,,,,,,79,patata,Spanish,Sounds/spa_patata.mp3,2020-06-04_17h19.14.050,TranslationElicitation_eng-prolific,3.2.4,Win32,60,5eb2d2df52bcce074be5583a,,1,0,98,74,1,97
,,,,,,,,,,,,,,,,,,,,,,,,,,,,,,,,,,,,,,,,,return,2.881999969,,FALSE,,,,,,,68,naranja,Spanish,Sounds/spa_naranja.mp3,2020-06-04_17h19.14.050,TranslationElicitation_eng-prolific,3.2.4,Win32,60,5eb2d2df52bcce074be5583a,2.881999969,1,0,98,64,1,97
,,,,,,,,,,,,,,,,,,,,,,,,,,,,,,,,,,,,,,,,,,,,,,,,,,,68,naranja,Spanish,Sounds/spa_naranja.mp3,2020-06-04_17h19.14.050,TranslationElicitation_eng-prolific,3.2.4,Win32,60,5eb2d2df52bcce074be5583a,,1,0,98,64,1,97
,,,,,,,,,,,,,,,,,,,,,,,,,,,,,,,,,,,,,,,,,g,2.983999968,G,FALSE,,,,,,,42,gato,Spanish,Sounds/spa_gato.mp3,2020-06-04_17h19.14.050,TranslationElicitation_eng-prolific,3.2.4,Win32,60,5eb2d2df52bcce074be5583a,,1,0,98,38,1,97
,,,,,,,,,,,,,,,,,,,,,,,,,,,,,,,,,,,,,,,,,a,3.148000002,GA,FALSE,,,,,,,42,gato,Spanish,Sounds/spa_gato.mp3,2020-06-04_17h19.14.050,TranslationElicitation_eng-prolific,3.2.4,Win32,60,5eb2d2df52bcce074be5583a,,1,0,98,38,1,97
,,,,,,,,,,,,,,,,,,,,,,,,,,,,,,,,,,,,,,,,,t,3.508000135,GAT,FALSE,,,,,,,42,gato,Spanish,Sounds/spa_gato.mp3,2020-06-04_17h19.14.050,TranslationElicitation_eng-prolific,3.2.4,Win32,60,5eb2d2df52bcce074be5583a,,1,0,98,38,1,97
,,,,,,,,,,,,,,,,,,,,,,,,,,,,,,,,,,,,,,,,,o,3.733999968,GATO,FALSE,,,,,,,42,gato,Spanish,Sounds/spa_gato.mp3,2020-06-04_17h19.14.050,TranslationElicitation_eng-prolific,3.2.4,Win32,60,5eb2d2df52bcce074be5583a,,1,0,98,38,1,97
,,,,,,,,,,,,,,,,,,,,,,,,,,,,,,,,,,,,,,,,,backspace,6.56400013,GAT,TRUE,,,,,,,42,gato,Spanish,Sounds/spa_gato.mp3,2020-06-04_17h19.14.050,TranslationElicitation_eng-prolific,3.2.4,Win32,60,5eb2d2df52bcce074be5583a,,1,0,98,38,1,97
,,,,,,,,,,,,,,,,,,,,,,,,,,,,,,,,,,,,,,,,,backspace,6.697000027,GA,TRUE,,,,,,,42,gato,Spanish,Sounds/spa_gato.mp3,2020-06-04_17h19.14.050,TranslationElicitation_eng-prolific,3.2.4,Win32,60,5eb2d2df52bcce074be5583a,,1,0,98,38,1,97
,,,,,,,,,,,,,,,,,,,,,,,,,,,,,,,,,,,,,,,,,backspace,7.082000017,G,TRUE,,,,,,,42,gato,Spanish,Sounds/spa_gato.mp3,2020-06-04_17h19.14.050,TranslationElicitation_eng-prolific,3.2.4,Win32,60,5eb2d2df52bcce074be5583a,,1,0,98,38,1,97
,,,,,,,,,,,,,,,,,,,,,,,,,,,,,,,,,,,,,,,,,u,7.513999939,GU,TRUE,,,,,,,42,gato,Spanish,Sounds/spa_gato.mp3,2020-06-04_17h19.14.050,TranslationElicitation_eng-prolific,3.2.4,Win32,60,5eb2d2df52bcce074be5583a,,1,0,98,38,1,97
