consentKey.keys,consentKey.rt,languageL1Key.keys,languageL1Key.rt,languageL2,languageL2OralKey.keys,languageL2OralKey.rt,languageL2WrittenKey.keys,languageL2WrittenKey.rt,languageL3OralKey.keys,languageL3OralKey.rt,languageL3WrittenKey.keys,languageL3WrittenKey.rt,languageCatalanOralKey.keys,languageCatalanOralKey.rt,languageCatalanWrittenKey.keys,languageCatalanWrittenKey.rt,languageCatalanTimeKey.keys,languageCatalanTimeKey.rt,languageSpanishOralKey.keys,languageSpanishOralKey.rt,languageSpanishWrittenKey.keys,languageSpanishWrittenKey.rt,languageSpanishTimeKey.keys,languageSpanishTimeKey.rt,age,demoSexKey.keys,demoSexKey.rt,demoEducationKey.keys,demoEducationKey.rt,city,demoVisionKey.keys,demoVisionKey.rt,demoLanguageKey.keys,demoLanguageKey.rt,setupLocationKey.keys,setupLocationKey.rt,setupNoiseKey.keys,setupNoiseKey.rt,instructionsKeys.keys,instructionsKeys.rt,keyPressed,keyPressTime,inputText,error,trialsPracticeSpanish.thisRepN,trialsPracticeSpanish.thisTrialN,trialsPracticeSpanish.thisN,trialsPracticeSpanish.thisIndex,trialsPracticeSpanish.ran,trialsPracticeSpanish.order,trial_id,word,test_language,soundfile,date,expName,psychopyVersion,OS,frameRate,participant,trialOffset,trialsSpanish.thisRepN,trialsSpanish.thisTrialN,trialsSpanish.thisN,trialsSpanish.thisIndex,trialsSpanish.ran,trialsSpanish.order
space,3.677999973,e,3.294000149,,,,,,,,,,1,4.127000093,1,5.494000196,1,4.819000244,2,5.4150002,1,1.920000076,1,3.327000141,24,f,1.784000158,4,3.948000193,GRIMSBY,y,3.303000212,n,4.016000032,1,2.270000219,1,1.934999943,space,13.60900021,t,3.349000216,T,FALSE,1,0,5,4,1,4,96,tigre,Spanish,Sounds/spa_tigre.mp3,2020-06-05_16h22.32.021,TranslationElicitation_eng-prolific,3.2.4,Win32,60,5eb3c2e29eb7cb1a6d8054bc,,,,,,,
,,,,,,,,,,,,,,,,,,,,,,,,,,,,,,,,,,,,,,,,,i,4,TI,FALSE,1,0,5,4,1,4,96,tigre,Spanish,Sounds/spa_tigre.mp3,2020-06-05_16h22.32.021,TranslationElicitation_eng-prolific,3.2.4,Win32,60,5eb3c2e29eb7cb1a6d8054bc,,,,,,,
,,,,,,,,,,,,,,,,,,,,,,,,,,,,,,,,,,,,,,,,,g,4.11500001,TIG,FALSE,1,0,5,4,1,4,96,tigre,Spanish,Sounds/spa_tigre.mp3,2020-06-05_16h22.32.021,TranslationElicitation_eng-prolific,3.2.4,Win32,60,5eb3c2e29eb7cb1a6d8054bc,,,,,,,
,,,,,,,,,,,,,,,,,,,,,,,,,,,,,,,,,,,,,,,,,e,4.433000088,TIGE,FALSE,1,0,5,4,1,4,96,tigre,Spanish,Sounds/spa_tigre.mp3,2020-06-05_16h22.32.021,TranslationElicitation_eng-prolific,3.2.4,Win32,60,5eb3c2e29eb7cb1a6d8054bc,,,,,,,
,,,,,,,,,,,,,,,,,,,,,,,,,,,,,,,,,,,,,,,,,r,4.499000072,TIGER,FALSE,1,0,5,4,1,4,96,tigre,Spanish,Sounds/spa_tigre.mp3,2020-06-05_16h22.32.021,TranslationElicitation_eng-prolific,3.2.4,Win32,60,5eb3c2e29eb7cb1a6d8054bc,,,,,,,
,,,,,,,,,,,,,,,,,,,,,,,,,,,,,,,,,,,,,,,,,return,5.299000025,TIGER,FALSE,1,0,5,4,1,4,96,tigre,Spanish,Sounds/spa_tigre.mp3,2020-06-05_16h22.32.021,TranslationElicitation_eng-prolific,3.2.4,Win32,60,5eb3c2e29eb7cb1a6d8054bc,5.299000025,,,,,,
,,,,,,,,,,,,,,,,,,,,,,,,,,,,,,,,,,,,,,,,,,,,,1,0,5,4,1,4,96,tigre,Spanish,Sounds/spa_tigre.mp3,2020-06-05_16h22.32.021,TranslationElicitation_eng-prolific,3.2.4,Win32,60,5eb3c2e29eb7cb1a6d8054bc,,,,,,,
,,,,,,,,,,,,,,,,,,,,,,,,,,,,,,,,,,,,,,,,,c,3.98300004,C,FALSE,1,0,5,1,1,4,30,corona,Spanish,Sounds/spa_corona.mp3,2020-06-05_16h22.32.021,TranslationElicitation_eng-prolific,3.2.4,Win32,60,5eb3c2e29eb7cb1a6d8054bc,,,,,,,
,,,,,,,,,,,,,,,,,,,,,,,,,,,,,,,,,,,,,,,,,o,4.133000135,CO,FALSE,1,0,5,1,1,4,30,corona,Spanish,Sounds/spa_corona.mp3,2020-06-05_16h22.32.021,TranslationElicitation_eng-prolific,3.2.4,Win32,60,5eb3c2e29eb7cb1a6d8054bc,,,,,,,
,,,,,,,,,,,,,,,,,,,,,,,,,,,,,,,,,,,,,,,,,r,4.282000065,COR,FALSE,1,0,5,1,1,4,30,corona,Spanish,Sounds/spa_corona.mp3,2020-06-05_16h22.32.021,TranslationElicitation_eng-prolific,3.2.4,Win32,60,5eb3c2e29eb7cb1a6d8054bc,,,,,,,
,,,,,,,,,,,,,,,,,,,,,,,,,,,,,,,,,,,,,,,,,o,4.48300004,CORO,FALSE,1,0,5,1,1,4,30,corona,Spanish,Sounds/spa_corona.mp3,2020-06-05_16h22.32.021,TranslationElicitation_eng-prolific,3.2.4,Win32,60,5eb3c2e29eb7cb1a6d8054bc,,,,,,,
,,,,,,,,,,,,,,,,,,,,,,,,,,,,,,,,,,,,,,,,,n,4.815999985,CORON,FALSE,1,0,5,1,1,4,30,corona,Spanish,Sounds/spa_corona.mp3,2020-06-05_16h22.32.021,TranslationElicitation_eng-prolific,3.2.4,Win32,60,5eb3c2e29eb7cb1a6d8054bc,,,,,,,
,,,,,,,,,,,,,,,,,,,,,,,,,,,,,,,,,,,,,,,,,a,5.082000017,CORONA,FALSE,1,0,5,1,1,4,30,corona,Spanish,Sounds/spa_corona.mp3,2020-06-05_16h22.32.021,TranslationElicitation_eng-prolific,3.2.4,Win32,60,5eb3c2e29eb7cb1a6d8054bc,,,,,,,
,,,,,,,,,,,,,,,,,,,,,,,,,,,,,,,,,,,,,,,,,return,6.73300004,CORONA,FALSE,1,0,5,1,1,4,30,corona,Spanish,Sounds/spa_corona.mp3,2020-06-05_16h22.32.021,TranslationElicitation_eng-prolific,3.2.4,Win32,60,5eb3c2e29eb7cb1a6d8054bc,6.73300004,,,,,,
,,,,,,,,,,,,,,,,,,,,,,,,,,,,,,,,,,,,,,,,,,,,,1,0,5,1,1,4,30,corona,Spanish,Sounds/spa_corona.mp3,2020-06-05_16h22.32.021,TranslationElicitation_eng-prolific,3.2.4,Win32,60,5eb3c2e29eb7cb1a6d8054bc,,,,,,,
,,,,,,,,,,,,,,,,,,,,,,,,,,,,,,,,,,,,,,,,,j,6.717000008,J,FALSE,1,0,5,2,1,4,26,chaqueta,Spanish,Sounds/spa_chaqueta.mp3,2020-06-05_16h22.32.021,TranslationElicitation_eng-prolific,3.2.4,Win32,60,5eb3c2e29eb7cb1a6d8054bc,,,,,,,
,,,,,,,,,,,,,,,,,,,,,,,,,,,,,,,,,,,,,,,,,a,6.799999952,JA,FALSE,1,0,5,2,1,4,26,chaqueta,Spanish,Sounds/spa_chaqueta.mp3,2020-06-05_16h22.32.021,TranslationElicitation_eng-prolific,3.2.4,Win32,60,5eb3c2e29eb7cb1a6d8054bc,,,,,,,
,,,,,,,,,,,,,,,,,,,,,,,,,,,,,,,,,,,,,,,,,c,7.065999985,JAC,FALSE,1,0,5,2,1,4,26,chaqueta,Spanish,Sounds/spa_chaqueta.mp3,2020-06-05_16h22.32.021,TranslationElicitation_eng-prolific,3.2.4,Win32,60,5eb3c2e29eb7cb1a6d8054bc,,,,,,,
,,,,,,,,,,,,,,,,,,,,,,,,,,,,,,,,,,,,,,,,,k,7.382999897,JACK,FALSE,1,0,5,2,1,4,26,chaqueta,Spanish,Sounds/spa_chaqueta.mp3,2020-06-05_16h22.32.021,TranslationElicitation_eng-prolific,3.2.4,Win32,60,5eb3c2e29eb7cb1a6d8054bc,,,,,,,
,,,,,,,,,,,,,,,,,,,,,,,,,,,,,,,,,,,,,,,,,e,7.71600008,JACKE,FALSE,1,0,5,2,1,4,26,chaqueta,Spanish,Sounds/spa_chaqueta.mp3,2020-06-05_16h22.32.021,TranslationElicitation_eng-prolific,3.2.4,Win32,60,5eb3c2e29eb7cb1a6d8054bc,,,,,,,
,,,,,,,,,,,,,,,,,,,,,,,,,,,,,,,,,,,,,,,,,t,7.849999905,JACKET,FALSE,1,0,5,2,1,4,26,chaqueta,Spanish,Sounds/spa_chaqueta.mp3,2020-06-05_16h22.32.021,TranslationElicitation_eng-prolific,3.2.4,Win32,60,5eb3c2e29eb7cb1a6d8054bc,,,,,,,
,,,,,,,,,,,,,,,,,,,,,,,,,,,,,,,,,,,,,,,,,return,8.21600008,JACKET,FALSE,1,0,5,2,1,4,26,chaqueta,Spanish,Sounds/spa_chaqueta.mp3,2020-06-05_16h22.32.021,TranslationElicitation_eng-prolific,3.2.4,Win32,60,5eb3c2e29eb7cb1a6d8054bc,8.21600008,,,,,,
,,,,,,,,,,,,,,,,,,,,,,,,,,,,,,,,,,,,,,,,,,,,,1,0,5,2,1,4,26,chaqueta,Spanish,Sounds/spa_chaqueta.mp3,2020-06-05_16h22.32.021,TranslationElicitation_eng-prolific,3.2.4,Win32,60,5eb3c2e29eb7cb1a6d8054bc,,,,,,,
,,,,,,,,,,,,,,,,,,,,,,,,,,,,,,,,,,,,,,,,,h,3.449999809,H,FALSE,1,0,5,0,1,4,1,arbol,Spanish,Sounds/spa_arbol.mp3,2020-06-05_16h22.32.021,TranslationElicitation_eng-prolific,3.2.4,Win32,60,5eb3c2e29eb7cb1a6d8054bc,,,,,,,
,,,,,,,,,,,,,,,,,,,,,,,,,,,,,,,,,,,,,,,,,i,3.565999985,HI,FALSE,1,0,5,0,1,4,1,arbol,Spanish,Sounds/spa_arbol.mp3,2020-06-05_16h22.32.021,TranslationElicitation_eng-prolific,3.2.4,Win32,60,5eb3c2e29eb7cb1a6d8054bc,,,,,,,
,,,,,,,,,,,,,,,,,,,,,,,,,,,,,,,,,,,,,,,,,g,3.648999929,HIG,FALSE,1,0,5,0,1,4,1,arbol,Spanish,Sounds/spa_arbol.mp3,2020-06-05_16h22.32.021,TranslationElicitation_eng-prolific,3.2.4,Win32,60,5eb3c2e29eb7cb1a6d8054bc,,,,,,,
,,,,,,,,,,,,,,,,,,,,,,,,,,,,,,,,,,,,,,,,,h,3.717000008,HIGH,FALSE,1,0,5,0,1,4,1,arbol,Spanish,Sounds/spa_arbol.mp3,2020-06-05_16h22.32.021,TranslationElicitation_eng-prolific,3.2.4,Win32,60,5eb3c2e29eb7cb1a6d8054bc,,,,,,,
,,,,,,,,,,,,,,,,,,,,,,,,,,,,,,,,,,,,,,,,,space,3.949999809,HIGH ,FALSE,1,0,5,0,1,4,1,arbol,Spanish,Sounds/spa_arbol.mp3,2020-06-05_16h22.32.021,TranslationElicitation_eng-prolific,3.2.4,Win32,60,5eb3c2e29eb7cb1a6d8054bc,,,,,,,
,,,,,,,,,,,,,,,,,,,,,,,,,,,,,,,,,,,,,,,,,w,4.348999977,HIGH W,FALSE,1,0,5,0,1,4,1,arbol,Spanish,Sounds/spa_arbol.mp3,2020-06-05_16h22.32.021,TranslationElicitation_eng-prolific,3.2.4,Win32,60,5eb3c2e29eb7cb1a6d8054bc,,,,,,,
,,,,,,,,,,,,,,,,,,,,,,,,,,,,,,,,,,,,,,,,,a,4.565999985,HIGH WA,FALSE,1,0,5,0,1,4,1,arbol,Spanish,Sounds/spa_arbol.mp3,2020-06-05_16h22.32.021,TranslationElicitation_eng-prolific,3.2.4,Win32,60,5eb3c2e29eb7cb1a6d8054bc,,,,,,,
,,,,,,,,,,,,,,,,,,,,,,,,,,,,,,,,,,,,,,,,,l,4.682999849,HIGH WAL,FALSE,1,0,5,0,1,4,1,arbol,Spanish,Sounds/spa_arbol.mp3,2020-06-05_16h22.32.021,TranslationElicitation_eng-prolific,3.2.4,Win32,60,5eb3c2e29eb7cb1a6d8054bc,,,,,,,
,,,,,,,,,,,,,,,,,,,,,,,,,,,,,,,,,,,,,,,,,l,4.832999945,HIGH WALL,FALSE,1,0,5,0,1,4,1,arbol,Spanish,Sounds/spa_arbol.mp3,2020-06-05_16h22.32.021,TranslationElicitation_eng-prolific,3.2.4,Win32,60,5eb3c2e29eb7cb1a6d8054bc,,,,,,,
,,,,,,,,,,,,,,,,,,,,,,,,,,,,,,,,,,,,,,,,,return,5.182999849,HIGH WALL,FALSE,1,0,5,0,1,4,1,arbol,Spanish,Sounds/spa_arbol.mp3,2020-06-05_16h22.32.021,TranslationElicitation_eng-prolific,3.2.4,Win32,60,5eb3c2e29eb7cb1a6d8054bc,5.182999849,,,,,,
,,,,,,,,,,,,,,,,,,,,,,,,,,,,,,,,,,,,,,,,,,,,,1,0,5,0,1,4,1,arbol,Spanish,Sounds/spa_arbol.mp3,2020-06-05_16h22.32.021,TranslationElicitation_eng-prolific,3.2.4,Win32,60,5eb3c2e29eb7cb1a6d8054bc,,,,,,,
,,,,,,,,,,,,,,,,,,,,,,,,,,,,,,,,,,,,,,,,,o,3.117000103,O,FALSE,1,0,5,3,1,4,70,ola,Spanish,Sounds/spa_ola.mp3,2020-06-05_16h22.32.021,TranslationElicitation_eng-prolific,3.2.4,Win32,60,5eb3c2e29eb7cb1a6d8054bc,,,,,,,
,,,,,,,,,,,,,,,,,,,,,,,,,,,,,,,,,,,,,,,,,r,3.23300004,OR,FALSE,1,0,5,3,1,4,70,ola,Spanish,Sounds/spa_ola.mp3,2020-06-05_16h22.32.021,TranslationElicitation_eng-prolific,3.2.4,Win32,60,5eb3c2e29eb7cb1a6d8054bc,,,,,,,
,,,,,,,,,,,,,,,,,,,,,,,,,,,,,,,,,,,,,,,,,l,3.383000135,ORL,FALSE,1,0,5,3,1,4,70,ola,Spanish,Sounds/spa_ola.mp3,2020-06-05_16h22.32.021,TranslationElicitation_eng-prolific,3.2.4,Win32,60,5eb3c2e29eb7cb1a6d8054bc,,,,,,,
,,,,,,,,,,,,,,,,,,,,,,,,,,,,,,,,,,,,,,,,,a,3.549999952,ORLA,FALSE,1,0,5,3,1,4,70,ola,Spanish,Sounds/spa_ola.mp3,2020-06-05_16h22.32.021,TranslationElicitation_eng-prolific,3.2.4,Win32,60,5eb3c2e29eb7cb1a6d8054bc,,,,,,,
,,,,,,,,,,,,,,,,,,,,,,,,,,,,,,,,,,,,,,,,,return,3.933000088,ORLA,FALSE,1,0,5,3,1,4,70,ola,Spanish,Sounds/spa_ola.mp3,2020-06-05_16h22.32.021,TranslationElicitation_eng-prolific,3.2.4,Win32,60,5eb3c2e29eb7cb1a6d8054bc,3.933000088,,,,,,
,,,,,,,,,,,,,,,,,,,,,,,,,,,,,,,,,,,,,,,,,,,,,1,0,5,3,1,4,70,ola,Spanish,Sounds/spa_ola.mp3,2020-06-05_16h22.32.021,TranslationElicitation_eng-prolific,3.2.4,Win32,60,5eb3c2e29eb7cb1a6d8054bc,,,,,,,
,,,,,,,,,,,,,,,,,,,,,,,,,,,,,,,,,,,,,,,,,l,2.650999784,L,FALSE,,,,,,,55,leon,Spanish,Sounds/spa_leon.mp3,2020-06-05_16h22.32.021,TranslationElicitation_eng-prolific,3.2.4,Win32,60,5eb3c2e29eb7cb1a6d8054bc,,1,0,98,51,1,97
,,,,,,,,,,,,,,,,,,,,,,,,,,,,,,,,,,,,,,,,,e,2.849999905,LE,FALSE,,,,,,,55,leon,Spanish,Sounds/spa_leon.mp3,2020-06-05_16h22.32.021,TranslationElicitation_eng-prolific,3.2.4,Win32,60,5eb3c2e29eb7cb1a6d8054bc,,1,0,98,51,1,97
,,,,,,,,,,,,,,,,,,,,,,,,,,,,,,,,,,,,,,,,,o,2.967999935,LEO,FALSE,,,,,,,55,leon,Spanish,Sounds/spa_leon.mp3,2020-06-05_16h22.32.021,TranslationElicitation_eng-prolific,3.2.4,Win32,60,5eb3c2e29eb7cb1a6d8054bc,,1,0,98,51,1,97
,,,,,,,,,,,,,,,,,,,,,,,,,,,,,,,,,,,,,,,,,n,3.333999872,LEON,FALSE,,,,,,,55,leon,Spanish,Sounds/spa_leon.mp3,2020-06-05_16h22.32.021,TranslationElicitation_eng-prolific,3.2.4,Win32,60,5eb3c2e29eb7cb1a6d8054bc,,1,0,98,51,1,97
,,,,,,,,,,,,,,,,,,,,,,,,,,,,,,,,,,,,,,,,,return,3.883999825,LEON,FALSE,,,,,,,55,leon,Spanish,Sounds/spa_leon.mp3,2020-06-05_16h22.32.021,TranslationElicitation_eng-prolific,3.2.4,Win32,60,5eb3c2e29eb7cb1a6d8054bc,3.883999825,1,0,98,51,1,97
,,,,,,,,,,,,,,,,,,,,,,,,,,,,,,,,,,,,,,,,,,,,,,,,,,,55,leon,Spanish,Sounds/spa_leon.mp3,2020-06-05_16h22.32.021,TranslationElicitation_eng-prolific,3.2.4,Win32,60,5eb3c2e29eb7cb1a6d8054bc,,1,0,98,51,1,97
,,,,,,,,,,,,,,,,,,,,,,,,,,,,,,,,,,,,,,,,,g,10.56500006,G,FALSE,,,,,,,44,gorrion,Spanish,Sounds/spa_gorrion.mp3,2020-06-05_16h22.32.021,TranslationElicitation_eng-prolific,3.2.4,Win32,60,5eb3c2e29eb7cb1a6d8054bc,,1,0,98,40,1,97
,,,,,,,,,,,,,,,,,,,,,,,,,,,,,,,,,,,,,,,,,a,11.18200016,GA,FALSE,,,,,,,44,gorrion,Spanish,Sounds/spa_gorrion.mp3,2020-06-05_16h22.32.021,TranslationElicitation_eng-prolific,3.2.4,Win32,60,5eb3c2e29eb7cb1a6d8054bc,,1,0,98,40,1,97
,,,,,,,,,,,,,,,,,,,,,,,,,,,,,,,,,,,,,,,,,r,11.39900017,GAR,FALSE,,,,,,,44,gorrion,Spanish,Sounds/spa_gorrion.mp3,2020-06-05_16h22.32.021,TranslationElicitation_eng-prolific,3.2.4,Win32,60,5eb3c2e29eb7cb1a6d8054bc,,1,0,98,40,1,97
,,,,,,,,,,,,,,,,,,,,,,,,,,,,,,,,,,,,,,,,,d,11.66499996,GARD,FALSE,,,,,,,44,gorrion,Spanish,Sounds/spa_gorrion.mp3,2020-06-05_16h22.32.021,TranslationElicitation_eng-prolific,3.2.4,Win32,60,5eb3c2e29eb7cb1a6d8054bc,,1,0,98,40,1,97
,,,,,,,,,,,,,,,,,,,,,,,,,,,,,,,,,,,,,,,,,backspace,12.28200006,GAR,TRUE,,,,,,,44,gorrion,Spanish,Sounds/spa_gorrion.mp3,2020-06-05_16h22.32.021,TranslationElicitation_eng-prolific,3.2.4,Win32,60,5eb3c2e29eb7cb1a6d8054bc,,1,0,98,40,1,97
,,,,,,,,,,,,,,,,,,,,,,,,,,,,,,,,,,,,,,,,,backspace,12.44799995,GA,TRUE,,,,,,,44,gorrion,Spanish,Sounds/spa_gorrion.mp3,2020-06-05_16h22.32.021,TranslationElicitation_eng-prolific,3.2.4,Win32,60,5eb3c2e29eb7cb1a6d8054bc,,1,0,98,40,1,97
,,,,,,,,,,,,,,,,,,,,,,,,,,,,,,,,,,,,,,,,,backspace,12.71500015,G,TRUE,,,,,,,44,gorrion,Spanish,Sounds/spa_gorrion.mp3,2020-06-05_16h22.32.021,TranslationElicitation_eng-prolific,3.2.4,Win32,60,5eb3c2e29eb7cb1a6d8054bc,,1,0,98,40,1,97
,,,,,,,,,,,,,,,,,,,,,,,,,,,,,,,,,,,,,,,,,u,13.03200006,GU,TRUE,,,,,,,44,gorrion,Spanish,Sounds/spa_gorrion.mp3,2020-06-05_16h22.32.021,TranslationElicitation_eng-prolific,3.2.4,Win32,60,5eb3c2e29eb7cb1a6d8054bc,,1,0,98,40,1,97
,,,,,,,,,,,,,,,,,,,,,,,,,,,,,,,,,,,,,,,,,a,13.23200011,GUA,TRUE,,,,,,,44,gorrion,Spanish,Sounds/spa_gorrion.mp3,2020-06-05_16h22.32.021,TranslationElicitation_eng-prolific,3.2.4,Win32,60,5eb3c2e29eb7cb1a6d8054bc,,1,0,98,40,1,97
,,,,,,,,,,,,,,,,,,,,,,,,,,,,,,,,,,,,,,,,,r,14.09800005,GUAR,TRUE,,,,,,,44,gorrion,Spanish,Sounds/spa_gorrion.mp3,2020-06-05_16h22.32.021,TranslationElicitation_eng-prolific,3.2.4,Win32,60,5eb3c2e29eb7cb1a6d8054bc,,1,0,98,40,1,97
,,,,,,,,,,,,,,,,,,,,,,,,,,,,,,,,,,,,,,,,,d,14.33200002,GUARD,TRUE,,,,,,,44,gorrion,Spanish,Sounds/spa_gorrion.mp3,2020-06-05_16h22.32.021,TranslationElicitation_eng-prolific,3.2.4,Win32,60,5eb3c2e29eb7cb1a6d8054bc,,1,0,98,40,1,97
,,,,,,,,,,,,,,,,,,,,,,,,,,,,,,,,,,,,,,,,,i,14.44799995,GUARDI,TRUE,,,,,,,44,gorrion,Spanish,Sounds/spa_gorrion.mp3,2020-06-05_16h22.32.021,TranslationElicitation_eng-prolific,3.2.4,Win32,60,5eb3c2e29eb7cb1a6d8054bc,,1,0,98,40,1,97
,,,,,,,,,,,,,,,,,,,,,,,,,,,,,,,,,,,,,,,,,a,14.58200002,GUARDIA,TRUE,,,,,,,44,gorrion,Spanish,Sounds/spa_gorrion.mp3,2020-06-05_16h22.32.021,TranslationElicitation_eng-prolific,3.2.4,Win32,60,5eb3c2e29eb7cb1a6d8054bc,,1,0,98,40,1,97
,,,,,,,,,,,,,,,,,,,,,,,,,,,,,,,,,,,,,,,,,n,14.68200016,GUARDIAN,TRUE,,,,,,,44,gorrion,Spanish,Sounds/spa_gorrion.mp3,2020-06-05_16h22.32.021,TranslationElicitation_eng-prolific,3.2.4,Win32,60,5eb3c2e29eb7cb1a6d8054bc,,1,0,98,40,1,97
,,,,,,,,,,,,,,,,,,,,,,,,,,,,,,,,,,,,,,,,,return,15.0480001,GUARDIAN,TRUE,,,,,,,44,gorrion,Spanish,Sounds/spa_gorrion.mp3,2020-06-05_16h22.32.021,TranslationElicitation_eng-prolific,3.2.4,Win32,60,5eb3c2e29eb7cb1a6d8054bc,15.0480001,1,0,98,40,1,97
,,,,,,,,,,,,,,,,,,,,,,,,,,,,,,,,,,,,,,,,,,,,,,,,,,,44,gorrion,Spanish,Sounds/spa_gorrion.mp3,2020-06-05_16h22.32.021,TranslationElicitation_eng-prolific,3.2.4,Win32,60,5eb3c2e29eb7cb1a6d8054bc,,1,0,98,40,1,97
,,,,,,,,,,,,,,,,,,,,,,,,,,,,,,,,,,,,,,,,,s,2.799999952,S,FALSE,,,,,,,93,sol,Spanish,Sounds/spa_sol.mp3,2020-06-05_16h22.32.021,TranslationElicitation_eng-prolific,3.2.4,Win32,60,5eb3c2e29eb7cb1a6d8054bc,,1,0,98,88,1,97
,,,,,,,,,,,,,,,,,,,,,,,,,,,,,,,,,,,,,,,,,u,2.899999857,SU,FALSE,,,,,,,93,sol,Spanish,Sounds/spa_sol.mp3,2020-06-05_16h22.32.021,TranslationElicitation_eng-prolific,3.2.4,Win32,60,5eb3c2e29eb7cb1a6d8054bc,,1,0,98,88,1,97
,,,,,,,,,,,,,,,,,,,,,,,,,,,,,,,,,,,,,,,,,n,3.116999865,SUN,FALSE,,,,,,,93,sol,Spanish,Sounds/spa_sol.mp3,2020-06-05_16h22.32.021,TranslationElicitation_eng-prolific,3.2.4,Win32,60,5eb3c2e29eb7cb1a6d8054bc,,1,0,98,88,1,97
,,,,,,,,,,,,,,,,,,,,,,,,,,,,,,,,,,,,,,,,,return,3.582999945,SUN,FALSE,,,,,,,93,sol,Spanish,Sounds/spa_sol.mp3,2020-06-05_16h22.32.021,TranslationElicitation_eng-prolific,3.2.4,Win32,60,5eb3c2e29eb7cb1a6d8054bc,3.582999945,1,0,98,88,1,97
,,,,,,,,,,,,,,,,,,,,,,,,,,,,,,,,,,,,,,,,,,,,,,,,,,,93,sol,Spanish,Sounds/spa_sol.mp3,2020-06-05_16h22.32.021,TranslationElicitation_eng-prolific,3.2.4,Win32,60,5eb3c2e29eb7cb1a6d8054bc,,1,0,98,88,1,97
,,,,,,,,,,,,,,,,,,,,,,,,,,,,,,,,,,,,,,,,,a,1.94900012,A,FALSE,,,,,,,36,estrella,Spanish,Sounds/spa_estrella.mp3,2020-06-05_16h22.32.021,TranslationElicitation_eng-prolific,3.2.4,Win32,60,5eb3c2e29eb7cb1a6d8054bc,,1,0,98,32,1,97
,,,,,,,,,,,,,,,,,,,,,,,,,,,,,,,,,,,,,,,,,u,2.066999912,AU,FALSE,,,,,,,36,estrella,Spanish,Sounds/spa_estrella.mp3,2020-06-05_16h22.32.021,TranslationElicitation_eng-prolific,3.2.4,Win32,60,5eb3c2e29eb7cb1a6d8054bc,,1,0,98,32,1,97
,,,,,,,,,,,,,,,,,,,,,,,,,,,,,,,,,,,,,,,,,s,2.183000088,AUS,FALSE,,,,,,,36,estrella,Spanish,Sounds/spa_estrella.mp3,2020-06-05_16h22.32.021,TranslationElicitation_eng-prolific,3.2.4,Win32,60,5eb3c2e29eb7cb1a6d8054bc,,1,0,98,32,1,97
,,,,,,,,,,,,,,,,,,,,,,,,,,,,,,,,,,,,,,,,,t,2.44900012,AUST,FALSE,,,,,,,36,estrella,Spanish,Sounds/spa_estrella.mp3,2020-06-05_16h22.32.021,TranslationElicitation_eng-prolific,3.2.4,Win32,60,5eb3c2e29eb7cb1a6d8054bc,,1,0,98,32,1,97
,,,,,,,,,,,,,,,,,,,,,,,,,,,,,,,,,,,,,,,,,r,2.48300004,AUSTR,FALSE,,,,,,,36,estrella,Spanish,Sounds/spa_estrella.mp3,2020-06-05_16h22.32.021,TranslationElicitation_eng-prolific,3.2.4,Win32,60,5eb3c2e29eb7cb1a6d8054bc,,1,0,98,32,1,97
,,,,,,,,,,,,,,,,,,,,,,,,,,,,,,,,,,,,,,,,,a,2.933000088,AUSTRA,FALSE,,,,,,,36,estrella,Spanish,Sounds/spa_estrella.mp3,2020-06-05_16h22.32.021,TranslationElicitation_eng-prolific,3.2.4,Win32,60,5eb3c2e29eb7cb1a6d8054bc,,1,0,98,32,1,97
,,,,,,,,,,,,,,,,,,,,,,,,,,,,,,,,,,,,,,,,,i,3,AUSTRAI,FALSE,,,,,,,36,estrella,Spanish,Sounds/spa_estrella.mp3,2020-06-05_16h22.32.021,TranslationElicitation_eng-prolific,3.2.4,Win32,60,5eb3c2e29eb7cb1a6d8054bc,,1,0,98,32,1,97
,,,,,,,,,,,,,,,,,,,,,,,,,,,,,,,,,,,,,,,,,l,3.25,AUSTRAIL,FALSE,,,,,,,36,estrella,Spanish,Sounds/spa_estrella.mp3,2020-06-05_16h22.32.021,TranslationElicitation_eng-prolific,3.2.4,Win32,60,5eb3c2e29eb7cb1a6d8054bc,,1,0,98,32,1,97
,,,,,,,,,,,,,,,,,,,,,,,,,,,,,,,,,,,,,,,,,i,3.5,AUSTRAILI,FALSE,,,,,,,36,estrella,Spanish,Sounds/spa_estrella.mp3,2020-06-05_16h22.32.021,TranslationElicitation_eng-prolific,3.2.4,Win32,60,5eb3c2e29eb7cb1a6d8054bc,,1,0,98,32,1,97
,,,,,,,,,,,,,,,,,,,,,,,,,,,,,,,,,,,,,,,,,a,3.615999937,AUSTRAILIA,FALSE,,,,,,,36,estrella,Spanish,Sounds/spa_estrella.mp3,2020-06-05_16h22.32.021,TranslationElicitation_eng-prolific,3.2.4,Win32,60,5eb3c2e29eb7cb1a6d8054bc,,1,0,98,32,1,97
,,,,,,,,,,,,,,,,,,,,,,,,,,,,,,,,,,,,,,,,,return,3.950000048,AUSTRAILIA,FALSE,,,,,,,36,estrella,Spanish,Sounds/spa_estrella.mp3,2020-06-05_16h22.32.021,TranslationElicitation_eng-prolific,3.2.4,Win32,60,5eb3c2e29eb7cb1a6d8054bc,3.950000048,1,0,98,32,1,97
,,,,,,,,,,,,,,,,,,,,,,,,,,,,,,,,,,,,,,,,,,,,,,,,,,,36,estrella,Spanish,Sounds/spa_estrella.mp3,2020-06-05_16h22.32.021,TranslationElicitation_eng-prolific,3.2.4,Win32,60,5eb3c2e29eb7cb1a6d8054bc,,1,0,98,32,1,97
,,,,,,,,,,,,,,,,,,,,,,,,,,,,,,,,,,,,,,,,,g,8.23300004,G,FALSE,,,,,,,39,gafas,Spanish,Sounds/spa_gafas.mp3,2020-06-05_16h22.32.021,TranslationElicitation_eng-prolific,3.2.4,Win32,60,5eb3c2e29eb7cb1a6d8054bc,,1,0,98,35,1,97
,,,,,,,,,,,,,,,,,,,,,,,,,,,,,,,,,,,,,,,,,u,8.532000065,GU,FALSE,,,,,,,39,gafas,Spanish,Sounds/spa_gafas.mp3,2020-06-05_16h22.32.021,TranslationElicitation_eng-prolific,3.2.4,Win32,60,5eb3c2e29eb7cb1a6d8054bc,,1,0,98,35,1,97
,,,,,,,,,,,,,,,,,,,,,,,,,,,,,,,,,,,,,,,,,y,8.598999977,GUY,FALSE,,,,,,,39,gafas,Spanish,Sounds/spa_gafas.mp3,2020-06-05_16h22.32.021,TranslationElicitation_eng-prolific,3.2.4,Win32,60,5eb3c2e29eb7cb1a6d8054bc,,1,0,98,35,1,97
,,,,,,,,,,,,,,,,,,,,,,,,,,,,,,,,,,,,,,,,,return,9.115999937,GUY,FALSE,,,,,,,39,gafas,Spanish,Sounds/spa_gafas.mp3,2020-06-05_16h22.32.021,TranslationElicitation_eng-prolific,3.2.4,Win32,60,5eb3c2e29eb7cb1a6d8054bc,9.115999937,1,0,98,35,1,97
,,,,,,,,,,,,,,,,,,,,,,,,,,,,,,,,,,,,,,,,,,,,,,,,,,,39,gafas,Spanish,Sounds/spa_gafas.mp3,2020-06-05_16h22.32.021,TranslationElicitation_eng-prolific,3.2.4,Win32,60,5eb3c2e29eb7cb1a6d8054bc,,1,0,98,35,1,97
,,,,,,,,,,,,,,,,,,,,,,,,,,,,,,,,,,,,,,,,,e,4.849999905,E,FALSE,,,,,,,34,ensalada,Spanish,Sounds/spa_ensalada.mp3,2020-06-05_16h22.32.021,TranslationElicitation_eng-prolific,3.2.4,Win32,60,5eb3c2e29eb7cb1a6d8054bc,,1,0,98,30,1,97
,,,,,,,,,,,,,,,,,,,,,,,,,,,,,,,,,,,,,,,,,n,4.950000048,EN,FALSE,,,,,,,34,ensalada,Spanish,Sounds/spa_ensalada.mp3,2020-06-05_16h22.32.021,TranslationElicitation_eng-prolific,3.2.4,Win32,60,5eb3c2e29eb7cb1a6d8054bc,,1,0,98,30,1,97
,,,,,,,,,,,,,,,,,,,,,,,,,,,,,,,,,,,,,,,,,t,5.099999905,ENT,FALSE,,,,,,,34,ensalada,Spanish,Sounds/spa_ensalada.mp3,2020-06-05_16h22.32.021,TranslationElicitation_eng-prolific,3.2.4,Win32,60,5eb3c2e29eb7cb1a6d8054bc,,1,0,98,30,1,97
,,,,,,,,,,,,,,,,,,,,,,,,,,,,,,,,,,,,,,,,,e,5.316999912,ENTE,FALSE,,,,,,,34,ensalada,Spanish,Sounds/spa_ensalada.mp3,2020-06-05_16h22.32.021,TranslationElicitation_eng-prolific,3.2.4,Win32,60,5eb3c2e29eb7cb1a6d8054bc,,1,0,98,30,1,97
,,,,,,,,,,,,,,,,,,,,,,,,,,,,,,,,,,,,,,,,,r,5.382999897,ENTER,FALSE,,,,,,,34,ensalada,Spanish,Sounds/spa_ensalada.mp3,2020-06-05_16h22.32.021,TranslationElicitation_eng-prolific,3.2.4,Win32,60,5eb3c2e29eb7cb1a6d8054bc,,1,0,98,30,1,97
,,,,,,,,,,,,,,,,,,,,,,,,,,,,,,,,,,,,,,,,,return,5.983999968,ENTER,FALSE,,,,,,,34,ensalada,Spanish,Sounds/spa_ensalada.mp3,2020-06-05_16h22.32.021,TranslationElicitation_eng-prolific,3.2.4,Win32,60,5eb3c2e29eb7cb1a6d8054bc,5.983999968,1,0,98,30,1,97
,,,,,,,,,,,,,,,,,,,,,,,,,,,,,,,,,,,,,,,,,,,,,,,,,,,34,ensalada,Spanish,Sounds/spa_ensalada.mp3,2020-06-05_16h22.32.021,TranslationElicitation_eng-prolific,3.2.4,Win32,60,5eb3c2e29eb7cb1a6d8054bc,,1,0,98,30,1,97
,,,,,,,,,,,,,,,,,,,,,,,,,,,,,,,,,,,,,,,,,w,5.09800005,W,FALSE,,,,,,,31,cubo,Spanish,Sounds/spa_cubo.mp3,2020-06-05_16h22.32.021,TranslationElicitation_eng-prolific,3.2.4,Win32,60,5eb3c2e29eb7cb1a6d8054bc,,1,0,98,27,1,97
,,,,,,,,,,,,,,,,,,,,,,,,,,,,,,,,,,,,,,,,,a,5.299000025,WA,FALSE,,,,,,,31,cubo,Spanish,Sounds/spa_cubo.mp3,2020-06-05_16h22.32.021,TranslationElicitation_eng-prolific,3.2.4,Win32,60,5eb3c2e29eb7cb1a6d8054bc,,1,0,98,27,1,97
,,,,,,,,,,,,,,,,,,,,,,,,,,,,,,,,,,,,,,,,,l,5.532000065,WAL,FALSE,,,,,,,31,cubo,Spanish,Sounds/spa_cubo.mp3,2020-06-05_16h22.32.021,TranslationElicitation_eng-prolific,3.2.4,Win32,60,5eb3c2e29eb7cb1a6d8054bc,,1,0,98,27,1,97
,,,,,,,,,,,,,,,,,,,,,,,,,,,,,,,,,,,,,,,,,l,5.782000065,WALL,FALSE,,,,,,,31,cubo,Spanish,Sounds/spa_cubo.mp3,2020-06-05_16h22.32.021,TranslationElicitation_eng-prolific,3.2.4,Win32,60,5eb3c2e29eb7cb1a6d8054bc,,1,0,98,27,1,97
,,,,,,,,,,,,,,,,,,,,,,,,,,,,,,,,,,,,,,,,,return,7.065000057,WALL,FALSE,,,,,,,31,cubo,Spanish,Sounds/spa_cubo.mp3,2020-06-05_16h22.32.021,TranslationElicitation_eng-prolific,3.2.4,Win32,60,5eb3c2e29eb7cb1a6d8054bc,7.065000057,1,0,98,27,1,97
,,,,,,,,,,,,,,,,,,,,,,,,,,,,,,,,,,,,,,,,,,,,,,,,,,,31,cubo,Spanish,Sounds/spa_cubo.mp3,2020-06-05_16h22.32.021,TranslationElicitation_eng-prolific,3.2.4,Win32,60,5eb3c2e29eb7cb1a6d8054bc,,1,0,98,27,1,97
,,,,,,,,,,,,,,,,,,,,,,,,,,,,,,,,,,,,,,,,,h,5.332999945,H,FALSE,,,,,,,50,jirafa,Spanish,Sounds/spa_jirafa.mp3,2020-06-05_16h22.32.021,TranslationElicitation_eng-prolific,3.2.4,Win32,60,5eb3c2e29eb7cb1a6d8054bc,,1,0,98,46,1,97
,,,,,,,,,,,,,,,,,,,,,,,,,,,,,,,,,,,,,,,,,i,5.549999952,HI,FALSE,,,,,,,50,jirafa,Spanish,Sounds/spa_jirafa.mp3,2020-06-05_16h22.32.021,TranslationElicitation_eng-prolific,3.2.4,Win32,60,5eb3c2e29eb7cb1a6d8054bc,,1,0,98,46,1,97
,,,,,,,,,,,,,,,,,,,,,,,,,,,,,,,,,,,,,,,,,m,5.967000008,HIM,FALSE,,,,,,,50,jirafa,Spanish,Sounds/spa_jirafa.mp3,2020-06-05_16h22.32.021,TranslationElicitation_eng-prolific,3.2.4,Win32,60,5eb3c2e29eb7cb1a6d8054bc,,1,0,98,46,1,97
,,,,,,,,,,,,,,,,,,,,,,,,,,,,,,,,,,,,,,,,,return,7.131999969,HIM,FALSE,,,,,,,50,jirafa,Spanish,Sounds/spa_jirafa.mp3,2020-06-05_16h22.32.021,TranslationElicitation_eng-prolific,3.2.4,Win32,60,5eb3c2e29eb7cb1a6d8054bc,7.131999969,1,0,98,46,1,97
,,,,,,,,,,,,,,,,,,,,,,,,,,,,,,,,,,,,,,,,,,,,,,,,,,,50,jirafa,Spanish,Sounds/spa_jirafa.mp3,2020-06-05_16h22.32.021,TranslationElicitation_eng-prolific,3.2.4,Win32,60,5eb3c2e29eb7cb1a6d8054bc,,1,0,98,46,1,97
,,,,,,,,,,,,,,,,,,,,,,,,,,,,,,,,,,,,,,,,,return,6.46600008,,FALSE,,,,,,,19,camiseta,Spanish,Sounds/spa_camiseta.mp3,2020-06-05_16h22.32.021,TranslationElicitation_eng-prolific,3.2.4,Win32,60,5eb3c2e29eb7cb1a6d8054bc,6.46600008,1,0,98,17,1,97
,,,,,,,,,,,,,,,,,,,,,,,,,,,,,,,,,,,,,,,,,,,,,,,,,,,19,camiseta,Spanish,Sounds/spa_camiseta.mp3,2020-06-05_16h22.32.021,TranslationElicitation_eng-prolific,3.2.4,Win32,60,5eb3c2e29eb7cb1a6d8054bc,,1,0,98,17,1,97
,,,,,,,,,,,,,,,,,,,,,,,,,,,,,,,,,,,,,,,,,l,1.96600008,L,FALSE,,,,,,,54,lengua,Spanish,Sounds/spa_lengua.mp3,2020-06-05_16h22.32.021,TranslationElicitation_eng-prolific,3.2.4,Win32,60,5eb3c2e29eb7cb1a6d8054bc,,1,0,98,50,1,97
,,,,,,,,,,,,,,,,,,,,,,,,,,,,,,,,,,,,,,,,,a,2.21600008,LA,FALSE,,,,,,,54,lengua,Spanish,Sounds/spa_lengua.mp3,2020-06-05_16h22.32.021,TranslationElicitation_eng-prolific,3.2.4,Win32,60,5eb3c2e29eb7cb1a6d8054bc,,1,0,98,50,1,97
,,,,,,,,,,,,,,,,,,,,,,,,,,,,,,,,,,,,,,,,,n,2.398999929,LAN,FALSE,,,,,,,54,lengua,Spanish,Sounds/spa_lengua.mp3,2020-06-05_16h22.32.021,TranslationElicitation_eng-prolific,3.2.4,Win32,60,5eb3c2e29eb7cb1a6d8054bc,,1,0,98,50,1,97
,,,,,,,,,,,,,,,,,,,,,,,,,,,,,,,,,,,,,,,,,g,2.665999889,LANG,FALSE,,,,,,,54,lengua,Spanish,Sounds/spa_lengua.mp3,2020-06-05_16h22.32.021,TranslationElicitation_eng-prolific,3.2.4,Win32,60,5eb3c2e29eb7cb1a6d8054bc,,1,0,98,50,1,97
,,,,,,,,,,,,,,,,,,,,,,,,,,,,,,,,,,,,,,,,,u,2.766000032,LANGU,FALSE,,,,,,,54,lengua,Spanish,Sounds/spa_lengua.mp3,2020-06-05_16h22.32.021,TranslationElicitation_eng-prolific,3.2.4,Win32,60,5eb3c2e29eb7cb1a6d8054bc,,1,0,98,50,1,97
,,,,,,,,,,,,,,,,,,,,,,,,,,,,,,,,,,,,,,,,,a,2.915999889,LANGUA,FALSE,,,,,,,54,lengua,Spanish,Sounds/spa_lengua.mp3,2020-06-05_16h22.32.021,TranslationElicitation_eng-prolific,3.2.4,Win32,60,5eb3c2e29eb7cb1a6d8054bc,,1,0,98,50,1,97
,,,,,,,,,,,,,,,,,,,,,,,,,,,,,,,,,,,,,,,,,g,3.182999849,LANGUAG,FALSE,,,,,,,54,lengua,Spanish,Sounds/spa_lengua.mp3,2020-06-05_16h22.32.021,TranslationElicitation_eng-prolific,3.2.4,Win32,60,5eb3c2e29eb7cb1a6d8054bc,,1,0,98,50,1,97
,,,,,,,,,,,,,,,,,,,,,,,,,,,,,,,,,,,,,,,,,e,3.332999945,LANGUAGE,FALSE,,,,,,,54,lengua,Spanish,Sounds/spa_lengua.mp3,2020-06-05_16h22.32.021,TranslationElicitation_eng-prolific,3.2.4,Win32,60,5eb3c2e29eb7cb1a6d8054bc,,1,0,98,50,1,97
,,,,,,,,,,,,,,,,,,,,,,,,,,,,,,,,,,,,,,,,,return,3.766000032,LANGUAGE,FALSE,,,,,,,54,lengua,Spanish,Sounds/spa_lengua.mp3,2020-06-05_16h22.32.021,TranslationElicitation_eng-prolific,3.2.4,Win32,60,5eb3c2e29eb7cb1a6d8054bc,3.766000032,1,0,98,50,1,97
,,,,,,,,,,,,,,,,,,,,,,,,,,,,,,,,,,,,,,,,,,,,,,,,,,,54,lengua,Spanish,Sounds/spa_lengua.mp3,2020-06-05_16h22.32.021,TranslationElicitation_eng-prolific,3.2.4,Win32,60,5eb3c2e29eb7cb1a6d8054bc,,1,0,98,50,1,97
,,,,,,,,,,,,,,,,,,,,,,,,,,,,,,,,,,,,,,,,,c,3.115999937,C,FALSE,,,,,,,15,caballo,Spanish,Sounds/spa_caballo.mp3,2020-06-05_16h22.32.021,TranslationElicitation_eng-prolific,3.2.4,Win32,60,5eb3c2e29eb7cb1a6d8054bc,,1,0,98,13,1,97
,,,,,,,,,,,,,,,,,,,,,,,,,,,,,,,,,,,,,,,,,a,3.399999857,CA,FALSE,,,,,,,15,caballo,Spanish,Sounds/spa_caballo.mp3,2020-06-05_16h22.32.021,TranslationElicitation_eng-prolific,3.2.4,Win32,60,5eb3c2e29eb7cb1a6d8054bc,,1,0,98,13,1,97
,,,,,,,,,,,,,,,,,,,,,,,,,,,,,,,,,,,,,,,,,r,3.715999842,CAR,FALSE,,,,,,,15,caballo,Spanish,Sounds/spa_caballo.mp3,2020-06-05_16h22.32.021,TranslationElicitation_eng-prolific,3.2.4,Win32,60,5eb3c2e29eb7cb1a6d8054bc,,1,0,98,13,1,97
,,,,,,,,,,,,,,,,,,,,,,,,,,,,,,,,,,,,,,,,,v,3.967000008,CARV,FALSE,,,,,,,15,caballo,Spanish,Sounds/spa_caballo.mp3,2020-06-05_16h22.32.021,TranslationElicitation_eng-prolific,3.2.4,Win32,60,5eb3c2e29eb7cb1a6d8054bc,,1,0,98,13,1,97
,,,,,,,,,,,,,,,,,,,,,,,,,,,,,,,,,,,,,,,,,a,4.166999817,CARVA,FALSE,,,,,,,15,caballo,Spanish,Sounds/spa_caballo.mp3,2020-06-05_16h22.32.021,TranslationElicitation_eng-prolific,3.2.4,Win32,60,5eb3c2e29eb7cb1a6d8054bc,,1,0,98,13,1,97
,,,,,,,,,,,,,,,,,,,,,,,,,,,,,,,,,,,,,,,,,l,4.366999865,CARVAL,FALSE,,,,,,,15,caballo,Spanish,Sounds/spa_caballo.mp3,2020-06-05_16h22.32.021,TranslationElicitation_eng-prolific,3.2.4,Win32,60,5eb3c2e29eb7cb1a6d8054bc,,1,0,98,13,1,97
,,,,,,,,,,,,,,,,,,,,,,,,,,,,,,,,,,,,,,,,,h,4.532999992,CARVALH,FALSE,,,,,,,15,caballo,Spanish,Sounds/spa_caballo.mp3,2020-06-05_16h22.32.021,TranslationElicitation_eng-prolific,3.2.4,Win32,60,5eb3c2e29eb7cb1a6d8054bc,,1,0,98,13,1,97
,,,,,,,,,,,,,,,,,,,,,,,,,,,,,,,,,,,,,,,,,o,4.615999937,CARVALHO,FALSE,,,,,,,15,caballo,Spanish,Sounds/spa_caballo.mp3,2020-06-05_16h22.32.021,TranslationElicitation_eng-prolific,3.2.4,Win32,60,5eb3c2e29eb7cb1a6d8054bc,,1,0,98,13,1,97
,,,,,,,,,,,,,,,,,,,,,,,,,,,,,,,,,,,,,,,,,return,5.115999937,CARVALHO,FALSE,,,,,,,15,caballo,Spanish,Sounds/spa_caballo.mp3,2020-06-05_16h22.32.021,TranslationElicitation_eng-prolific,3.2.4,Win32,60,5eb3c2e29eb7cb1a6d8054bc,5.115999937,1,0,98,13,1,97
,,,,,,,,,,,,,,,,,,,,,,,,,,,,,,,,,,,,,,,,,,,,,,,,,,,15,caballo,Spanish,Sounds/spa_caballo.mp3,2020-06-05_16h22.32.021,TranslationElicitation_eng-prolific,3.2.4,Win32,60,5eb3c2e29eb7cb1a6d8054bc,,1,0,98,13,1,97
,,,,,,,,,,,,,,,,,,,,,,,,,,,,,,,,,,,,,,,,,c,1.75,C,FALSE,,,,,,,16,caja,Spanish,Sounds/spa_caja.mp3,2020-06-05_16h22.32.021,TranslationElicitation_eng-prolific,3.2.4,Win32,60,5eb3c2e29eb7cb1a6d8054bc,,1,0,98,14,1,97
,,,,,,,,,,,,,,,,,,,,,,,,,,,,,,,,,,,,,,,,,a,1.934000015,CA,FALSE,,,,,,,16,caja,Spanish,Sounds/spa_caja.mp3,2020-06-05_16h22.32.021,TranslationElicitation_eng-prolific,3.2.4,Win32,60,5eb3c2e29eb7cb1a6d8054bc,,1,0,98,14,1,97
,,,,,,,,,,,,,,,,,,,,,,,,,,,,,,,,,,,,,,,,,r,2.132999897,CAR,FALSE,,,,,,,16,caja,Spanish,Sounds/spa_caja.mp3,2020-06-05_16h22.32.021,TranslationElicitation_eng-prolific,3.2.4,Win32,60,5eb3c2e29eb7cb1a6d8054bc,,1,0,98,14,1,97
,,,,,,,,,,,,,,,,,,,,,,,,,,,,,,,,,,,,,,,,,return,2.632999897,CAR,FALSE,,,,,,,16,caja,Spanish,Sounds/spa_caja.mp3,2020-06-05_16h22.32.021,TranslationElicitation_eng-prolific,3.2.4,Win32,60,5eb3c2e29eb7cb1a6d8054bc,2.632999897,1,0,98,14,1,97
,,,,,,,,,,,,,,,,,,,,,,,,,,,,,,,,,,,,,,,,,,,,,,,,,,,16,caja,Spanish,Sounds/spa_caja.mp3,2020-06-05_16h22.32.021,TranslationElicitation_eng-prolific,3.2.4,Win32,60,5eb3c2e29eb7cb1a6d8054bc,,1,0,98,14,1,97
,,,,,,,,,,,,,,,,,,,,,,,,,,,,,,,,,,,,,,,,,m,2.032999992,M,FALSE,,,,,,,14,burro,Spanish,Sounds/spa_burro.mp3,2020-06-05_16h22.32.021,TranslationElicitation_eng-prolific,3.2.4,Win32,60,5eb3c2e29eb7cb1a6d8054bc,,1,0,98,12,1,97
,,,,,,,,,,,,,,,,,,,,,,,,,,,,,,,,,,,,,,,,,r,2.300000191,MR,FALSE,,,,,,,14,burro,Spanish,Sounds/spa_burro.mp3,2020-06-05_16h22.32.021,TranslationElicitation_eng-prolific,3.2.4,Win32,60,5eb3c2e29eb7cb1a6d8054bc,,1,0,98,12,1,97
,,,,,,,,,,,,,,,,,,,,,,,,,,,,,,,,,,,,,,,,,o,2.400000095,MRO,FALSE,,,,,,,14,burro,Spanish,Sounds/spa_burro.mp3,2020-06-05_16h22.32.021,TranslationElicitation_eng-prolific,3.2.4,Win32,60,5eb3c2e29eb7cb1a6d8054bc,,1,0,98,12,1,97
,,,,,,,,,,,,,,,,,,,,,,,,,,,,,,,,,,,,,,,,,o,2.567000151,MROO,FALSE,,,,,,,14,burro,Spanish,Sounds/spa_burro.mp3,2020-06-05_16h22.32.021,TranslationElicitation_eng-prolific,3.2.4,Win32,60,5eb3c2e29eb7cb1a6d8054bc,,1,0,98,12,1,97
,,,,,,,,,,,,,,,,,,,,,,,,,,,,,,,,,,,,,,,,,backspace,2.883000135,MRO,TRUE,,,,,,,14,burro,Spanish,Sounds/spa_burro.mp3,2020-06-05_16h22.32.021,TranslationElicitation_eng-prolific,3.2.4,Win32,60,5eb3c2e29eb7cb1a6d8054bc,,1,0,98,12,1,97
,,,,,,,,,,,,,,,,,,,,,,,,,,,,,,,,,,,,,,,,,n,3,MRON,TRUE,,,,,,,14,burro,Spanish,Sounds/spa_burro.mp3,2020-06-05_16h22.32.021,TranslationElicitation_eng-prolific,3.2.4,Win32,60,5eb3c2e29eb7cb1a6d8054bc,,1,0,98,12,1,97
,,,,,,,,,,,,,,,,,,,,,,,,,,,,,,,,,,,,,,,,,backspace,3.282999992,MRO,TRUE,,,,,,,14,burro,Spanish,Sounds/spa_burro.mp3,2020-06-05_16h22.32.021,TranslationElicitation_eng-prolific,3.2.4,Win32,60,5eb3c2e29eb7cb1a6d8054bc,,1,0,98,12,1,97
,,,,,,,,,,,,,,,,,,,,,,,,,,,,,,,,,,,,,,,,,backspace,3.450000048,MR,TRUE,,,,,,,14,burro,Spanish,Sounds/spa_burro.mp3,2020-06-05_16h22.32.021,TranslationElicitation_eng-prolific,3.2.4,Win32,60,5eb3c2e29eb7cb1a6d8054bc,,1,0,98,12,1,97
,,,,,,,,,,,,,,,,,,,,,,,,,,,,,,,,,,,,,,,,,o,3.634000063,MRO,TRUE,,,,,,,14,burro,Spanish,Sounds/spa_burro.mp3,2020-06-05_16h22.32.021,TranslationElicitation_eng-prolific,3.2.4,Win32,60,5eb3c2e29eb7cb1a6d8054bc,,1,0,98,12,1,97
,,,,,,,,,,,,,,,,,,,,,,,,,,,,,,,,,,,,,,,,,r,3.800000191,MROR,TRUE,,,,,,,14,burro,Spanish,Sounds/spa_burro.mp3,2020-06-05_16h22.32.021,TranslationElicitation_eng-prolific,3.2.4,Win32,60,5eb3c2e29eb7cb1a6d8054bc,,1,0,98,12,1,97
,,,,,,,,,,,,,,,,,,,,,,,,,,,,,,,,,,,,,,,,,backspace,4.050000191,MRO,TRUE,,,,,,,14,burro,Spanish,Sounds/spa_burro.mp3,2020-06-05_16h22.32.021,TranslationElicitation_eng-prolific,3.2.4,Win32,60,5eb3c2e29eb7cb1a6d8054bc,,1,0,98,12,1,97
,,,,,,,,,,,,,,,,,,,,,,,,,,,,,,,,,,,,,,,,,backspace,4.234000206,MR,TRUE,,,,,,,14,burro,Spanish,Sounds/spa_burro.mp3,2020-06-05_16h22.32.021,TranslationElicitation_eng-prolific,3.2.4,Win32,60,5eb3c2e29eb7cb1a6d8054bc,,1,0,98,12,1,97
,,,,,,,,,,,,,,,,,,,,,,,,,,,,,,,,,,,,,,,,,backspace,4.400000095,M,TRUE,,,,,,,14,burro,Spanish,Sounds/spa_burro.mp3,2020-06-05_16h22.32.021,TranslationElicitation_eng-prolific,3.2.4,Win32,60,5eb3c2e29eb7cb1a6d8054bc,,1,0,98,12,1,97
,,,,,,,,,,,,,,,,,,,,,,,,,,,,,,,,,,,,,,,,,o,4.600000143,MO,TRUE,,,,,,,14,burro,Spanish,Sounds/spa_burro.mp3,2020-06-05_16h22.32.021,TranslationElicitation_eng-prolific,3.2.4,Win32,60,5eb3c2e29eb7cb1a6d8054bc,,1,0,98,12,1,97
,,,,,,,,,,,,,,,,,,,,,,,,,,,,,,,,,,,,,,,,,r,4.767000198,MOR,TRUE,,,,,,,14,burro,Spanish,Sounds/spa_burro.mp3,2020-06-05_16h22.32.021,TranslationElicitation_eng-prolific,3.2.4,Win32,60,5eb3c2e29eb7cb1a6d8054bc,,1,0,98,12,1,97
,,,,,,,,,,,,,,,,,,,,,,,,,,,,,,,,,,,,,,,,,o,4.98300004,MORO,TRUE,,,,,,,14,burro,Spanish,Sounds/spa_burro.mp3,2020-06-05_16h22.32.021,TranslationElicitation_eng-prolific,3.2.4,Win32,60,5eb3c2e29eb7cb1a6d8054bc,,1,0,98,12,1,97
,,,,,,,,,,,,,,,,,,,,,,,,,,,,,,,,,,,,,,,,,n,5.167000055,MORON,TRUE,,,,,,,14,burro,Spanish,Sounds/spa_burro.mp3,2020-06-05_16h22.32.021,TranslationElicitation_eng-prolific,3.2.4,Win32,60,5eb3c2e29eb7cb1a6d8054bc,,1,0,98,12,1,97
,,,,,,,,,,,,,,,,,,,,,,,,,,,,,,,,,,,,,,,,,return,5.600000143,MORON,TRUE,,,,,,,14,burro,Spanish,Sounds/spa_burro.mp3,2020-06-05_16h22.32.021,TranslationElicitation_eng-prolific,3.2.4,Win32,60,5eb3c2e29eb7cb1a6d8054bc,5.600000143,1,0,98,12,1,97
,,,,,,,,,,,,,,,,,,,,,,,,,,,,,,,,,,,,,,,,,,,,,,,,,,,14,burro,Spanish,Sounds/spa_burro.mp3,2020-06-05_16h22.32.021,TranslationElicitation_eng-prolific,3.2.4,Win32,60,5eb3c2e29eb7cb1a6d8054bc,,1,0,98,12,1,97
,,,,,,,,,,,,,,,,,,,,,,,,,,,,,,,,,,,,,,,,,t,1.999000072,T,FALSE,,,,,,,23,cerdo,Spanish,Sounds/spa_cerdo.mp3,2020-06-05_16h22.32.021,TranslationElicitation_eng-prolific,3.2.4,Win32,60,5eb3c2e29eb7cb1a6d8054bc,,1,0,98,21,1,97
,,,,,,,,,,,,,,,,,,,,,,,,,,,,,,,,,,,,,,,,,h,2.082999945,TH,FALSE,,,,,,,23,cerdo,Spanish,Sounds/spa_cerdo.mp3,2020-06-05_16h22.32.021,TranslationElicitation_eng-prolific,3.2.4,Win32,60,5eb3c2e29eb7cb1a6d8054bc,,1,0,98,21,1,97
,,,,,,,,,,,,,,,,,,,,,,,,,,,,,,,,,,,,,,,,,i,2.249000072,THI,FALSE,,,,,,,23,cerdo,Spanish,Sounds/spa_cerdo.mp3,2020-06-05_16h22.32.021,TranslationElicitation_eng-prolific,3.2.4,Win32,60,5eb3c2e29eb7cb1a6d8054bc,,1,0,98,21,1,97
,,,,,,,,,,,,,,,,,,,,,,,,,,,,,,,,,,,,,,,,,r,2.665999889,THIR,FALSE,,,,,,,23,cerdo,Spanish,Sounds/spa_cerdo.mp3,2020-06-05_16h22.32.021,TranslationElicitation_eng-prolific,3.2.4,Win32,60,5eb3c2e29eb7cb1a6d8054bc,,1,0,98,21,1,97
,,,,,,,,,,,,,,,,,,,,,,,,,,,,,,,,,,,,,,,,,d,2.981999874,THIRD,FALSE,,,,,,,23,cerdo,Spanish,Sounds/spa_cerdo.mp3,2020-06-05_16h22.32.021,TranslationElicitation_eng-prolific,3.2.4,Win32,60,5eb3c2e29eb7cb1a6d8054bc,,1,0,98,21,1,97
,,,,,,,,,,,,,,,,,,,,,,,,,,,,,,,,,,,,,,,,,space,3.266000032,THIRD ,FALSE,,,,,,,23,cerdo,Spanish,Sounds/spa_cerdo.mp3,2020-06-05_16h22.32.021,TranslationElicitation_eng-prolific,3.2.4,Win32,60,5eb3c2e29eb7cb1a6d8054bc,,1,0,98,21,1,97
,,,,,,,,,,,,,,,,,,,,,,,,,,,,,,,,,,,,,,,,,return,3.965999842,THIRD ,FALSE,,,,,,,23,cerdo,Spanish,Sounds/spa_cerdo.mp3,2020-06-05_16h22.32.021,TranslationElicitation_eng-prolific,3.2.4,Win32,60,5eb3c2e29eb7cb1a6d8054bc,3.965999842,1,0,98,21,1,97
,,,,,,,,,,,,,,,,,,,,,,,,,,,,,,,,,,,,,,,,,,,,,,,,,,,23,cerdo,Spanish,Sounds/spa_cerdo.mp3,2020-06-05_16h22.32.021,TranslationElicitation_eng-prolific,3.2.4,Win32,60,5eb3c2e29eb7cb1a6d8054bc,,1,0,98,21,1,97
,,,,,,,,,,,,,,,,,,,,,,,,,,,,,,,,,,,,,,,,,b,1.650000095,B,FALSE,,,,,,,3,barco,Spanish,Sounds/spa_barco.mp3,2020-06-05_16h22.32.021,TranslationElicitation_eng-prolific,3.2.4,Win32,60,5eb3c2e29eb7cb1a6d8054bc,,1,0,98,1,1,97
,,,,,,,,,,,,,,,,,,,,,,,,,,,,,,,,,,,,,,,,,a,1.999000072,BA,FALSE,,,,,,,3,barco,Spanish,Sounds/spa_barco.mp3,2020-06-05_16h22.32.021,TranslationElicitation_eng-prolific,3.2.4,Win32,60,5eb3c2e29eb7cb1a6d8054bc,,1,0,98,1,1,97
,,,,,,,,,,,,,,,,,,,,,,,,,,,,,,,,,,,,,,,,,r,2.25,BAR,FALSE,,,,,,,3,barco,Spanish,Sounds/spa_barco.mp3,2020-06-05_16h22.32.021,TranslationElicitation_eng-prolific,3.2.4,Win32,60,5eb3c2e29eb7cb1a6d8054bc,,1,0,98,1,1,97
,,,,,,,,,,,,,,,,,,,,,,,,,,,,,,,,,,,,,,,,,space,2.44900012,BAR ,FALSE,,,,,,,3,barco,Spanish,Sounds/spa_barco.mp3,2020-06-05_16h22.32.021,TranslationElicitation_eng-prolific,3.2.4,Win32,60,5eb3c2e29eb7cb1a6d8054bc,,1,0,98,1,1,97
,,,,,,,,,,,,,,,,,,,,,,,,,,,,,,,,,,,,,,,,,backspace,2.849000216,BAR,TRUE,,,,,,,3,barco,Spanish,Sounds/spa_barco.mp3,2020-06-05_16h22.32.021,TranslationElicitation_eng-prolific,3.2.4,Win32,60,5eb3c2e29eb7cb1a6d8054bc,,1,0,98,1,1,97
,,,,,,,,,,,,,,,,,,,,,,,,,,,,,,,,,,,,,,,,,c,3.100000143,BARC,TRUE,,,,,,,3,barco,Spanish,Sounds/spa_barco.mp3,2020-06-05_16h22.32.021,TranslationElicitation_eng-prolific,3.2.4,Win32,60,5eb3c2e29eb7cb1a6d8054bc,,1,0,98,1,1,97
,,,,,,,,,,,,,,,,,,,,,,,,,,,,,,,,,,,,,,,,,d,3.450000048,BARCD,TRUE,,,,,,,3,barco,Spanish,Sounds/spa_barco.mp3,2020-06-05_16h22.32.021,TranslationElicitation_eng-prolific,3.2.4,Win32,60,5eb3c2e29eb7cb1a6d8054bc,,1,0,98,1,1,97
,,,,,,,,,,,,,,,,,,,,,,,,,,,,,,,,,,,,,,,,,o,3.533000231,BARCDO,TRUE,,,,,,,3,barco,Spanish,Sounds/spa_barco.mp3,2020-06-05_16h22.32.021,TranslationElicitation_eng-prolific,3.2.4,Win32,60,5eb3c2e29eb7cb1a6d8054bc,,1,0,98,1,1,97
,,,,,,,,,,,,,,,,,,,,,,,,,,,,,,,,,,,,,,,,,backspace,3.850000143,BARCD,TRUE,,,,,,,3,barco,Spanish,Sounds/spa_barco.mp3,2020-06-05_16h22.32.021,TranslationElicitation_eng-prolific,3.2.4,Win32,60,5eb3c2e29eb7cb1a6d8054bc,,1,0,98,1,1,97
,,,,,,,,,,,,,,,,,,,,,,,,,,,,,,,,,,,,,,,,,backspace,4.067000151,BARC,TRUE,,,,,,,3,barco,Spanish,Sounds/spa_barco.mp3,2020-06-05_16h22.32.021,TranslationElicitation_eng-prolific,3.2.4,Win32,60,5eb3c2e29eb7cb1a6d8054bc,,1,0,98,1,1,97
,,,,,,,,,,,,,,,,,,,,,,,,,,,,,,,,,,,,,,,,,o,4.21600008,BARCO,TRUE,,,,,,,3,barco,Spanish,Sounds/spa_barco.mp3,2020-06-05_16h22.32.021,TranslationElicitation_eng-prolific,3.2.4,Win32,60,5eb3c2e29eb7cb1a6d8054bc,,1,0,98,1,1,97
,,,,,,,,,,,,,,,,,,,,,,,,,,,,,,,,,,,,,,,,,d,4.283000231,BARCOD,TRUE,,,,,,,3,barco,Spanish,Sounds/spa_barco.mp3,2020-06-05_16h22.32.021,TranslationElicitation_eng-prolific,3.2.4,Win32,60,5eb3c2e29eb7cb1a6d8054bc,,1,0,98,1,1,97
,,,,,,,,,,,,,,,,,,,,,,,,,,,,,,,,,,,,,,,,,e,4.467000008,BARCODE,TRUE,,,,,,,3,barco,Spanish,Sounds/spa_barco.mp3,2020-06-05_16h22.32.021,TranslationElicitation_eng-prolific,3.2.4,Win32,60,5eb3c2e29eb7cb1a6d8054bc,,1,0,98,1,1,97
,,,,,,,,,,,,,,,,,,,,,,,,,,,,,,,,,,,,,,,,,return,4.633000135,BARCODE,TRUE,,,,,,,3,barco,Spanish,Sounds/spa_barco.mp3,2020-06-05_16h22.32.021,TranslationElicitation_eng-prolific,3.2.4,Win32,60,5eb3c2e29eb7cb1a6d8054bc,4.633000135,1,0,98,1,1,97
,,,,,,,,,,,,,,,,,,,,,,,,,,,,,,,,,,,,,,,,,,,,,,,,,,,3,barco,Spanish,Sounds/spa_barco.mp3,2020-06-05_16h22.32.021,TranslationElicitation_eng-prolific,3.2.4,Win32,60,5eb3c2e29eb7cb1a6d8054bc,,1,0,98,1,1,97
,,,,,,,,,,,,,,,,,,,,,,,,,,,,,,,,,,,,,,,,,s,1.816999912,S,FALSE,,,,,,,92,sandwich,Spanish,Sounds/spa_sandwich.mp3,2020-06-05_16h22.32.021,TranslationElicitation_eng-prolific,3.2.4,Win32,60,5eb3c2e29eb7cb1a6d8054bc,,1,0,98,87,1,97
,,,,,,,,,,,,,,,,,,,,,,,,,,,,,,,,,,,,,,,,,a,1.983999968,SA,FALSE,,,,,,,92,sandwich,Spanish,Sounds/spa_sandwich.mp3,2020-06-05_16h22.32.021,TranslationElicitation_eng-prolific,3.2.4,Win32,60,5eb3c2e29eb7cb1a6d8054bc,,1,0,98,87,1,97
,,,,,,,,,,,,,,,,,,,,,,,,,,,,,,,,,,,,,,,,,n,2.100999832,SAN,FALSE,,,,,,,92,sandwich,Spanish,Sounds/spa_sandwich.mp3,2020-06-05_16h22.32.021,TranslationElicitation_eng-prolific,3.2.4,Win32,60,5eb3c2e29eb7cb1a6d8054bc,,1,0,98,87,1,97
,,,,,,,,,,,,,,,,,,,,,,,,,,,,,,,,,,,,,,,,,d,2.282999992,SAND,FALSE,,,,,,,92,sandwich,Spanish,Sounds/spa_sandwich.mp3,2020-06-05_16h22.32.021,TranslationElicitation_eng-prolific,3.2.4,Win32,60,5eb3c2e29eb7cb1a6d8054bc,,1,0,98,87,1,97
,,,,,,,,,,,,,,,,,,,,,,,,,,,,,,,,,,,,,,,,,w,2.416999817,SANDW,FALSE,,,,,,,92,sandwich,Spanish,Sounds/spa_sandwich.mp3,2020-06-05_16h22.32.021,TranslationElicitation_eng-prolific,3.2.4,Win32,60,5eb3c2e29eb7cb1a6d8054bc,,1,0,98,87,1,97
,,,,,,,,,,,,,,,,,,,,,,,,,,,,,,,,,,,,,,,,,i,2.482999802,SANDWI,FALSE,,,,,,,92,sandwich,Spanish,Sounds/spa_sandwich.mp3,2020-06-05_16h22.32.021,TranslationElicitation_eng-prolific,3.2.4,Win32,60,5eb3c2e29eb7cb1a6d8054bc,,1,0,98,87,1,97
,,,,,,,,,,,,,,,,,,,,,,,,,,,,,,,,,,,,,,,,,c,2.649999857,SANDWIC,FALSE,,,,,,,92,sandwich,Spanish,Sounds/spa_sandwich.mp3,2020-06-05_16h22.32.021,TranslationElicitation_eng-prolific,3.2.4,Win32,60,5eb3c2e29eb7cb1a6d8054bc,,1,0,98,87,1,97
,,,,,,,,,,,,,,,,,,,,,,,,,,,,,,,,,,,,,,,,,h,2.733999968,SANDWICH,FALSE,,,,,,,92,sandwich,Spanish,Sounds/spa_sandwich.mp3,2020-06-05_16h22.32.021,TranslationElicitation_eng-prolific,3.2.4,Win32,60,5eb3c2e29eb7cb1a6d8054bc,,1,0,98,87,1,97
,,,,,,,,,,,,,,,,,,,,,,,,,,,,,,,,,,,,,,,,,return,3.03399992,SANDWICH,FALSE,,,,,,,92,sandwich,Spanish,Sounds/spa_sandwich.mp3,2020-06-05_16h22.32.021,TranslationElicitation_eng-prolific,3.2.4,Win32,60,5eb3c2e29eb7cb1a6d8054bc,3.03399992,1,0,98,87,1,97
,,,,,,,,,,,,,,,,,,,,,,,,,,,,,,,,,,,,,,,,,,,,,,,,,,,92,sandwich,Spanish,Sounds/spa_sandwich.mp3,2020-06-05_16h22.32.021,TranslationElicitation_eng-prolific,3.2.4,Win32,60,5eb3c2e29eb7cb1a6d8054bc,,1,0,98,87,1,97
,,,,,,,,,,,,,,,,,,,,,,,,,,,,,,,,,,,,,,,,,p,1.499000072,P,FALSE,,,,,,,78,pastel,Spanish,Sounds/spa_pastel.mp3,2020-06-05_16h22.32.021,TranslationElicitation_eng-prolific,3.2.4,Win32,60,5eb3c2e29eb7cb1a6d8054bc,,1,0,98,73,1,97
,,,,,,,,,,,,,,,,,,,,,,,,,,,,,,,,,,,,,,,,,a,1.582999945,PA,FALSE,,,,,,,78,pastel,Spanish,Sounds/spa_pastel.mp3,2020-06-05_16h22.32.021,TranslationElicitation_eng-prolific,3.2.4,Win32,60,5eb3c2e29eb7cb1a6d8054bc,,1,0,98,73,1,97
,,,,,,,,,,,,,,,,,,,,,,,,,,,,,,,,,,,,,,,,,s,1.632999897,PAS,FALSE,,,,,,,78,pastel,Spanish,Sounds/spa_pastel.mp3,2020-06-05_16h22.32.021,TranslationElicitation_eng-prolific,3.2.4,Win32,60,5eb3c2e29eb7cb1a6d8054bc,,1,0,98,73,1,97
,,,,,,,,,,,,,,,,,,,,,,,,,,,,,,,,,,,,,,,,,t,1.915999889,PAST,FALSE,,,,,,,78,pastel,Spanish,Sounds/spa_pastel.mp3,2020-06-05_16h22.32.021,TranslationElicitation_eng-prolific,3.2.4,Win32,60,5eb3c2e29eb7cb1a6d8054bc,,1,0,98,73,1,97
,,,,,,,,,,,,,,,,,,,,,,,,,,,,,,,,,,,,,,,,,i,1.96600008,PASTI,FALSE,,,,,,,78,pastel,Spanish,Sounds/spa_pastel.mp3,2020-06-05_16h22.32.021,TranslationElicitation_eng-prolific,3.2.4,Win32,60,5eb3c2e29eb7cb1a6d8054bc,,1,0,98,73,1,97
,,,,,,,,,,,,,,,,,,,,,,,,,,,,,,,,,,,,,,,,,l,2.21600008,PASTIL,FALSE,,,,,,,78,pastel,Spanish,Sounds/spa_pastel.mp3,2020-06-05_16h22.32.021,TranslationElicitation_eng-prolific,3.2.4,Win32,60,5eb3c2e29eb7cb1a6d8054bc,,1,0,98,73,1,97
,,,,,,,,,,,,,,,,,,,,,,,,,,,,,,,,,,,,,,,,,l,2.348999977,PASTILL,FALSE,,,,,,,78,pastel,Spanish,Sounds/spa_pastel.mp3,2020-06-05_16h22.32.021,TranslationElicitation_eng-prolific,3.2.4,Win32,60,5eb3c2e29eb7cb1a6d8054bc,,1,0,98,73,1,97
,,,,,,,,,,,,,,,,,,,,,,,,,,,,,,,,,,,,,,,,,e,2.48300004,PASTILLE,FALSE,,,,,,,78,pastel,Spanish,Sounds/spa_pastel.mp3,2020-06-05_16h22.32.021,TranslationElicitation_eng-prolific,3.2.4,Win32,60,5eb3c2e29eb7cb1a6d8054bc,,1,0,98,73,1,97
,,,,,,,,,,,,,,,,,,,,,,,,,,,,,,,,,,,,,,,,,return,2.582000017,PASTILLE,FALSE,,,,,,,78,pastel,Spanish,Sounds/spa_pastel.mp3,2020-06-05_16h22.32.021,TranslationElicitation_eng-prolific,3.2.4,Win32,60,5eb3c2e29eb7cb1a6d8054bc,2.582000017,1,0,98,73,1,97
,,,,,,,,,,,,,,,,,,,,,,,,,,,,,,,,,,,,,,,,,,,,,,,,,,,78,pastel,Spanish,Sounds/spa_pastel.mp3,2020-06-05_16h22.32.021,TranslationElicitation_eng-prolific,3.2.4,Win32,60,5eb3c2e29eb7cb1a6d8054bc,,1,0,98,73,1,97
,,,,,,,,,,,,,,,,,,,,,,,,,,,,,,,,,,,,,,,,,g,2.315999985,G,FALSE,,,,,,,42,gato,Spanish,Sounds/spa_gato.mp3,2020-06-05_16h22.32.021,TranslationElicitation_eng-prolific,3.2.4,Win32,60,5eb3c2e29eb7cb1a6d8054bc,,1,0,98,38,1,97
,,,,,,,,,,,,,,,,,,,,,,,,,,,,,,,,,,,,,,,,,a,2.69900012,GA,FALSE,,,,,,,42,gato,Spanish,Sounds/spa_gato.mp3,2020-06-05_16h22.32.021,TranslationElicitation_eng-prolific,3.2.4,Win32,60,5eb3c2e29eb7cb1a6d8054bc,,1,0,98,38,1,97
,,,,,,,,,,,,,,,,,,,,,,,,,,,,,,,,,,,,,,,,,backspace,3.782000065,G,TRUE,,,,,,,42,gato,Spanish,Sounds/spa_gato.mp3,2020-06-05_16h22.32.021,TranslationElicitation_eng-prolific,3.2.4,Win32,60,5eb3c2e29eb7cb1a6d8054bc,,1,0,98,38,1,97
,,,,,,,,,,,,,,,,,,,,,,,,,,,,,,,,,,,,,,,,,u,4.032999992,GU,TRUE,,,,,,,42,gato,Spanish,Sounds/spa_gato.mp3,2020-06-05_16h22.32.021,TranslationElicitation_eng-prolific,3.2.4,Win32,60,5eb3c2e29eb7cb1a6d8054bc,,1,0,98,38,1,97
,,,,,,,,,,,,,,,,,,,,,,,,,,,,,,,,,,,,,,,,,a,4.166000128,GUA,TRUE,,,,,,,42,gato,Spanish,Sounds/spa_gato.mp3,2020-06-05_16h22.32.021,TranslationElicitation_eng-prolific,3.2.4,Win32,60,5eb3c2e29eb7cb1a6d8054bc,,1,0,98,38,1,97
,,,,,,,,,,,,,,,,,,,,,,,,,,,,,,,,,,,,,,,,,r,4.332999945,GUAR,TRUE,,,,,,,42,gato,Spanish,Sounds/spa_gato.mp3,2020-06-05_16h22.32.021,TranslationElicitation_eng-prolific,3.2.4,Win32,60,5eb3c2e29eb7cb1a6d8054bc,,1,0,98,38,1,97
,,,,,,,,,,,,,,,,,,,,,,,,,,,,,,,,,,,,,,,,,d,4.516000032,GUARD,TRUE,,,,,,,42,gato,Spanish,Sounds/spa_gato.mp3,2020-06-05_16h22.32.021,TranslationElicitation_eng-prolific,3.2.4,Win32,60,5eb3c2e29eb7cb1a6d8054bc,,1,0,98,38,1,97
,,,,,,,,,,,,,,,,,,,,,,,,,,,,,,,,,,,,,,,,,return,4.832000017,GUARD,TRUE,,,,,,,42,gato,Spanish,Sounds/spa_gato.mp3,2020-06-05_16h22.32.021,TranslationElicitation_eng-prolific,3.2.4,Win32,60,5eb3c2e29eb7cb1a6d8054bc,4.832000017,1,0,98,38,1,97
,,,,,,,,,,,,,,,,,,,,,,,,,,,,,,,,,,,,,,,,,,,,,,,,,,,42,gato,Spanish,Sounds/spa_gato.mp3,2020-06-05_16h22.32.021,TranslationElicitation_eng-prolific,3.2.4,Win32,60,5eb3c2e29eb7cb1a6d8054bc,,1,0,98,38,1,97
,,,,,,,,,,,,,,,,,,,,,,,,,,,,,,,,,,,,,,,,,p,1.666000128,P,FALSE,,,,,,,86,pingüino,Spanish,Sounds/spa_pinguino.mp3,2020-06-05_16h22.32.021,TranslationElicitation_eng-prolific,3.2.4,Win32,60,5eb3c2e29eb7cb1a6d8054bc,,1,0,98,81,1,97
,,,,,,,,,,,,,,,,,,,,,,,,,,,,,,,,,,,,,,,,,e,1.849000216,PE,FALSE,,,,,,,86,pingüino,Spanish,Sounds/spa_pinguino.mp3,2020-06-05_16h22.32.021,TranslationElicitation_eng-prolific,3.2.4,Win32,60,5eb3c2e29eb7cb1a6d8054bc,,1,0,98,81,1,97
,,,,,,,,,,,,,,,,,,,,,,,,,,,,,,,,,,,,,,,,,g,2.016000032,PEG,FALSE,,,,,,,86,pingüino,Spanish,Sounds/spa_pinguino.mp3,2020-06-05_16h22.32.021,TranslationElicitation_eng-prolific,3.2.4,Win32,60,5eb3c2e29eb7cb1a6d8054bc,,1,0,98,81,1,97
,,,,,,,,,,,,,,,,,,,,,,,,,,,,,,,,,,,,,,,,,u,2.833000183,PEGU,FALSE,,,,,,,86,pingüino,Spanish,Sounds/spa_pinguino.mp3,2020-06-05_16h22.32.021,TranslationElicitation_eng-prolific,3.2.4,Win32,60,5eb3c2e29eb7cb1a6d8054bc,,1,0,98,81,1,97
,,,,,,,,,,,,,,,,,,,,,,,,,,,,,,,,,,,,,,,,,i,2.999000072,PEGUI,FALSE,,,,,,,86,pingüino,Spanish,Sounds/spa_pinguino.mp3,2020-06-05_16h22.32.021,TranslationElicitation_eng-prolific,3.2.4,Win32,60,5eb3c2e29eb7cb1a6d8054bc,,1,0,98,81,1,97
,,,,,,,,,,,,,,,,,,,,,,,,,,,,,,,,,,,,,,,,,n,3.166000128,PEGUIN,FALSE,,,,,,,86,pingüino,Spanish,Sounds/spa_pinguino.mp3,2020-06-05_16h22.32.021,TranslationElicitation_eng-prolific,3.2.4,Win32,60,5eb3c2e29eb7cb1a6d8054bc,,1,0,98,81,1,97
,,,,,,,,,,,,,,,,,,,,,,,,,,,,,,,,,,,,,,,,,return,4.015000105,PEGUIN,FALSE,,,,,,,86,pingüino,Spanish,Sounds/spa_pinguino.mp3,2020-06-05_16h22.32.021,TranslationElicitation_eng-prolific,3.2.4,Win32,60,5eb3c2e29eb7cb1a6d8054bc,4.015000105,1,0,98,81,1,97
,,,,,,,,,,,,,,,,,,,,,,,,,,,,,,,,,,,,,,,,,,,,,,,,,,,86,pingüino,Spanish,Sounds/spa_pinguino.mp3,2020-06-05_16h22.32.021,TranslationElicitation_eng-prolific,3.2.4,Win32,60,5eb3c2e29eb7cb1a6d8054bc,,1,0,98,81,1,97
,,,,,,,,,,,,,,,,,,,,,,,,,,,,,,,,,,,,,,,,,d,2.133000135,D,FALSE,,,,,,,81,pelota,Spanish,Sounds/spa_pelota.mp3,2020-06-05_16h22.32.021,TranslationElicitation_eng-prolific,3.2.4,Win32,60,5eb3c2e29eb7cb1a6d8054bc,,1,0,98,76,1,97
,,,,,,,,,,,,,,,,,,,,,,,,,,,,,,,,,,,,,,,,,backspace,2.583000183,,TRUE,,,,,,,81,pelota,Spanish,Sounds/spa_pelota.mp3,2020-06-05_16h22.32.021,TranslationElicitation_eng-prolific,3.2.4,Win32,60,5eb3c2e29eb7cb1a6d8054bc,,1,0,98,76,1,97
,,,,,,,,,,,,,,,,,,,,,,,,,,,,,,,,,,,,,,,,,b,2.832000017,B,TRUE,,,,,,,81,pelota,Spanish,Sounds/spa_pelota.mp3,2020-06-05_16h22.32.021,TranslationElicitation_eng-prolific,3.2.4,Win32,60,5eb3c2e29eb7cb1a6d8054bc,,1,0,98,76,1,97
,,,,,,,,,,,,,,,,,,,,,,,,,,,,,,,,,,,,,,,,,e,3.21600008,BE,TRUE,,,,,,,81,pelota,Spanish,Sounds/spa_pelota.mp3,2020-06-05_16h22.32.021,TranslationElicitation_eng-prolific,3.2.4,Win32,60,5eb3c2e29eb7cb1a6d8054bc,,1,0,98,76,1,97
,,,,,,,,,,,,,,,,,,,,,,,,,,,,,,,,,,,,,,,,,l,3.44900012,BEL,TRUE,,,,,,,81,pelota,Spanish,Sounds/spa_pelota.mp3,2020-06-05_16h22.32.021,TranslationElicitation_eng-prolific,3.2.4,Win32,60,5eb3c2e29eb7cb1a6d8054bc,,1,0,98,76,1,97
,,,,,,,,,,,,,,,,,,,,,,,,,,,,,,,,,,,,,,,,,o,3.683000088,BELO,TRUE,,,,,,,81,pelota,Spanish,Sounds/spa_pelota.mp3,2020-06-05_16h22.32.021,TranslationElicitation_eng-prolific,3.2.4,Win32,60,5eb3c2e29eb7cb1a6d8054bc,,1,0,98,76,1,97
,,,,,,,,,,,,,,,,,,,,,,,,,,,,,,,,,,,,,,,,,backspace,5.082000017,BEL,TRUE,,,,,,,81,pelota,Spanish,Sounds/spa_pelota.mp3,2020-06-05_16h22.32.021,TranslationElicitation_eng-prolific,3.2.4,Win32,60,5eb3c2e29eb7cb1a6d8054bc,,1,0,98,76,1,97
,,,,,,,,,,,,,,,,,,,,,,,,,,,,,,,,,,,,,,,,,backspace,5.73300004,BE,TRUE,,,,,,,81,pelota,Spanish,Sounds/spa_pelota.mp3,2020-06-05_16h22.32.021,TranslationElicitation_eng-prolific,3.2.4,Win32,60,5eb3c2e29eb7cb1a6d8054bc,,1,0,98,76,1,97
,,,,,,,,,,,,,,,,,,,,,,,,,,,,,,,,,,,,,,,,,backspace,5.982000113,B,TRUE,,,,,,,81,pelota,Spanish,Sounds/spa_pelota.mp3,2020-06-05_16h22.32.021,TranslationElicitation_eng-prolific,3.2.4,Win32,60,5eb3c2e29eb7cb1a6d8054bc,,1,0,98,76,1,97
,,,,,,,,,,,,,,,,,,,,,,,,,,,,,,,,,,,,,,,,,backspace,6.21600008,,TRUE,,,,,,,81,pelota,Spanish,Sounds/spa_pelota.mp3,2020-06-05_16h22.32.021,TranslationElicitation_eng-prolific,3.2.4,Win32,60,5eb3c2e29eb7cb1a6d8054bc,,1,0,98,76,1,97
,,,,,,,,,,,,,,,,,,,,,,,,,,,,,,,,,,,,,,,,,backspace,6.399000168,,TRUE,,,,,,,81,pelota,Spanish,Sounds/spa_pelota.mp3,2020-06-05_16h22.32.021,TranslationElicitation_eng-prolific,3.2.4,Win32,60,5eb3c2e29eb7cb1a6d8054bc,,1,0,98,76,1,97
,,,,,,,,,,,,,,,,,,,,,,,,,,,,,,,,,,,,,,,,,return,6.69900012,,TRUE,,,,,,,81,pelota,Spanish,Sounds/spa_pelota.mp3,2020-06-05_16h22.32.021,TranslationElicitation_eng-prolific,3.2.4,Win32,60,5eb3c2e29eb7cb1a6d8054bc,6.69900012,1,0,98,76,1,97
,,,,,,,,,,,,,,,,,,,,,,,,,,,,,,,,,,,,,,,,,,,,,,,,,,,81,pelota,Spanish,Sounds/spa_pelota.mp3,2020-06-05_16h22.32.021,TranslationElicitation_eng-prolific,3.2.4,Win32,60,5eb3c2e29eb7cb1a6d8054bc,,1,0,98,76,1,97
,,,,,,,,,,,,,,,,,,,,,,,,,,,,,,,,,,,,,,,,,p,1.467000008,P,FALSE,,,,,,,75,pan,Spanish,Sounds/spa_pan.mp3,2020-06-05_16h22.32.021,TranslationElicitation_eng-prolific,3.2.4,Win32,60,5eb3c2e29eb7cb1a6d8054bc,,1,0,98,70,1,97
,,,,,,,,,,,,,,,,,,,,,,,,,,,,,,,,,,,,,,,,,a,1.73300004,PA,FALSE,,,,,,,75,pan,Spanish,Sounds/spa_pan.mp3,2020-06-05_16h22.32.021,TranslationElicitation_eng-prolific,3.2.4,Win32,60,5eb3c2e29eb7cb1a6d8054bc,,1,0,98,70,1,97
,,,,,,,,,,,,,,,,,,,,,,,,,,,,,,,,,,,,,,,,,n,1.884000063,PAN,FALSE,,,,,,,75,pan,Spanish,Sounds/spa_pan.mp3,2020-06-05_16h22.32.021,TranslationElicitation_eng-prolific,3.2.4,Win32,60,5eb3c2e29eb7cb1a6d8054bc,,1,0,98,70,1,97
,,,,,,,,,,,,,,,,,,,,,,,,,,,,,,,,,,,,,,,,,return,2.082999945,PAN,FALSE,,,,,,,75,pan,Spanish,Sounds/spa_pan.mp3,2020-06-05_16h22.32.021,TranslationElicitation_eng-prolific,3.2.4,Win32,60,5eb3c2e29eb7cb1a6d8054bc,2.082999945,1,0,98,70,1,97
,,,,,,,,,,,,,,,,,,,,,,,,,,,,,,,,,,,,,,,,,,,,,,,,,,,75,pan,Spanish,Sounds/spa_pan.mp3,2020-06-05_16h22.32.021,TranslationElicitation_eng-prolific,3.2.4,Win32,60,5eb3c2e29eb7cb1a6d8054bc,,1,0,98,70,1,97
,,,,,,,,,,,,,,,,,,,,,,,,,,,,,,,,,,,,,,,,,h,1.651000023,H,FALSE,,,,,,,41,gallina,Spanish,Sounds/spa_gallina.mp3,2020-06-05_16h22.32.021,TranslationElicitation_eng-prolific,3.2.4,Win32,60,5eb3c2e29eb7cb1a6d8054bc,,1,0,98,37,1,97
,,,,,,,,,,,,,,,,,,,,,,,,,,,,,,,,,,,,,,,,,y,1.849999905,HY,FALSE,,,,,,,41,gallina,Spanish,Sounds/spa_gallina.mp3,2020-06-05_16h22.32.021,TranslationElicitation_eng-prolific,3.2.4,Win32,60,5eb3c2e29eb7cb1a6d8054bc,,1,0,98,37,1,97
,,,,,,,,,,,,,,,,,,,,,,,,,,,,,,,,,,,,,,,,,e,2.75,HYE,FALSE,,,,,,,41,gallina,Spanish,Sounds/spa_gallina.mp3,2020-06-05_16h22.32.021,TranslationElicitation_eng-prolific,3.2.4,Win32,60,5eb3c2e29eb7cb1a6d8054bc,,1,0,98,37,1,97
,,,,,,,,,,,,,,,,,,,,,,,,,,,,,,,,,,,,,,,,,n,2.832999945,HYEN,FALSE,,,,,,,41,gallina,Spanish,Sounds/spa_gallina.mp3,2020-06-05_16h22.32.021,TranslationElicitation_eng-prolific,3.2.4,Win32,60,5eb3c2e29eb7cb1a6d8054bc,,1,0,98,37,1,97
,,,,,,,,,,,,,,,,,,,,,,,,,,,,,,,,,,,,,,,,,a,3.01699996,HYENA,FALSE,,,,,,,41,gallina,Spanish,Sounds/spa_gallina.mp3,2020-06-05_16h22.32.021,TranslationElicitation_eng-prolific,3.2.4,Win32,60,5eb3c2e29eb7cb1a6d8054bc,,1,0,98,37,1,97
,,,,,,,,,,,,,,,,,,,,,,,,,,,,,,,,,,,,,,,,,return,3.349999905,HYENA,FALSE,,,,,,,41,gallina,Spanish,Sounds/spa_gallina.mp3,2020-06-05_16h22.32.021,TranslationElicitation_eng-prolific,3.2.4,Win32,60,5eb3c2e29eb7cb1a6d8054bc,3.349999905,1,0,98,37,1,97
,,,,,,,,,,,,,,,,,,,,,,,,,,,,,,,,,,,,,,,,,,,,,,,,,,,41,gallina,Spanish,Sounds/spa_gallina.mp3,2020-06-05_16h22.32.021,TranslationElicitation_eng-prolific,3.2.4,Win32,60,5eb3c2e29eb7cb1a6d8054bc,,1,0,98,37,1,97
,,,,,,,,,,,,,,,,,,,,,,,,,,,,,,,,,,,,,,,,,p,1.600000143,P,FALSE,,,,,,,79,patata,Spanish,Sounds/spa_patata.mp3,2020-06-05_16h22.32.021,TranslationElicitation_eng-prolific,3.2.4,Win32,60,5eb3c2e29eb7cb1a6d8054bc,,1,0,98,74,1,97
,,,,,,,,,,,,,,,,,,,,,,,,,,,,,,,,,,,,,,,,,o,1.833000183,PO,FALSE,,,,,,,79,patata,Spanish,Sounds/spa_patata.mp3,2020-06-05_16h22.32.021,TranslationElicitation_eng-prolific,3.2.4,Win32,60,5eb3c2e29eb7cb1a6d8054bc,,1,0,98,74,1,97
,,,,,,,,,,,,,,,,,,,,,,,,,,,,,,,,,,,,,,,,,t,1.900000095,POT,FALSE,,,,,,,79,patata,Spanish,Sounds/spa_patata.mp3,2020-06-05_16h22.32.021,TranslationElicitation_eng-prolific,3.2.4,Win32,60,5eb3c2e29eb7cb1a6d8054bc,,1,0,98,74,1,97
,,,,,,,,,,,,,,,,,,,,,,,,,,,,,,,,,,,,,,,,,a,2.116000175,POTA,FALSE,,,,,,,79,patata,Spanish,Sounds/spa_patata.mp3,2020-06-05_16h22.32.021,TranslationElicitation_eng-prolific,3.2.4,Win32,60,5eb3c2e29eb7cb1a6d8054bc,,1,0,98,74,1,97
,,,,,,,,,,,,,,,,,,,,,,,,,,,,,,,,,,,,,,,,,t,2.232000113,POTAT,FALSE,,,,,,,79,patata,Spanish,Sounds/spa_patata.mp3,2020-06-05_16h22.32.021,TranslationElicitation_eng-prolific,3.2.4,Win32,60,5eb3c2e29eb7cb1a6d8054bc,,1,0,98,74,1,97
,,,,,,,,,,,,,,,,,,,,,,,,,,,,,,,,,,,,,,,,,o,2.383000135,POTATO,FALSE,,,,,,,79,patata,Spanish,Sounds/spa_patata.mp3,2020-06-05_16h22.32.021,TranslationElicitation_eng-prolific,3.2.4,Win32,60,5eb3c2e29eb7cb1a6d8054bc,,1,0,98,74,1,97
,,,,,,,,,,,,,,,,,,,,,,,,,,,,,,,,,,,,,,,,,return,2.633000135,POTATO,FALSE,,,,,,,79,patata,Spanish,Sounds/spa_patata.mp3,2020-06-05_16h22.32.021,TranslationElicitation_eng-prolific,3.2.4,Win32,60,5eb3c2e29eb7cb1a6d8054bc,2.633000135,1,0,98,74,1,97
,,,,,,,,,,,,,,,,,,,,,,,,,,,,,,,,,,,,,,,,,,,,,,,,,,,79,patata,Spanish,Sounds/spa_patata.mp3,2020-06-05_16h22.32.021,TranslationElicitation_eng-prolific,3.2.4,Win32,60,5eb3c2e29eb7cb1a6d8054bc,,1,0,98,74,1,97
,,,,,,,,,,,,,,,,,,,,,,,,,,,,,,,,,,,,,,,,,m,1.582999945,M,FALSE,,,,,,,65,mono,Spanish,Sounds/spa_mono.mp3,2020-06-05_16h22.32.021,TranslationElicitation_eng-prolific,3.2.4,Win32,60,5eb3c2e29eb7cb1a6d8054bc,,1,0,98,61,1,97
,,,,,,,,,,,,,,,,,,,,,,,,,,,,,,,,,,,,,,,,,o,1.782999992,MO,FALSE,,,,,,,65,mono,Spanish,Sounds/spa_mono.mp3,2020-06-05_16h22.32.021,TranslationElicitation_eng-prolific,3.2.4,Win32,60,5eb3c2e29eb7cb1a6d8054bc,,1,0,98,61,1,97
,,,,,,,,,,,,,,,,,,,,,,,,,,,,,,,,,,,,,,,,,r,1.917000055,MOR,FALSE,,,,,,,65,mono,Spanish,Sounds/spa_mono.mp3,2020-06-05_16h22.32.021,TranslationElicitation_eng-prolific,3.2.4,Win32,60,5eb3c2e29eb7cb1a6d8054bc,,1,0,98,61,1,97
,,,,,,,,,,,,,,,,,,,,,,,,,,,,,,,,,,,,,,,,,n,2,MORN,FALSE,,,,,,,65,mono,Spanish,Sounds/spa_mono.mp3,2020-06-05_16h22.32.021,TranslationElicitation_eng-prolific,3.2.4,Win32,60,5eb3c2e29eb7cb1a6d8054bc,,1,0,98,61,1,97
,,,,,,,,,,,,,,,,,,,,,,,,,,,,,,,,,,,,,,,,,i,2.181999922,MORNI,FALSE,,,,,,,65,mono,Spanish,Sounds/spa_mono.mp3,2020-06-05_16h22.32.021,TranslationElicitation_eng-prolific,3.2.4,Win32,60,5eb3c2e29eb7cb1a6d8054bc,,1,0,98,61,1,97
,,,,,,,,,,,,,,,,,,,,,,,,,,,,,,,,,,,,,,,,,n,2.266000032,MORNIN,FALSE,,,,,,,65,mono,Spanish,Sounds/spa_mono.mp3,2020-06-05_16h22.32.021,TranslationElicitation_eng-prolific,3.2.4,Win32,60,5eb3c2e29eb7cb1a6d8054bc,,1,0,98,61,1,97
,,,,,,,,,,,,,,,,,,,,,,,,,,,,,,,,,,,,,,,,,g,2.365999937,MORNING,FALSE,,,,,,,65,mono,Spanish,Sounds/spa_mono.mp3,2020-06-05_16h22.32.021,TranslationElicitation_eng-prolific,3.2.4,Win32,60,5eb3c2e29eb7cb1a6d8054bc,,1,0,98,61,1,97
,,,,,,,,,,,,,,,,,,,,,,,,,,,,,,,,,,,,,,,,,return,2.499000072,MORNING,FALSE,,,,,,,65,mono,Spanish,Sounds/spa_mono.mp3,2020-06-05_16h22.32.021,TranslationElicitation_eng-prolific,3.2.4,Win32,60,5eb3c2e29eb7cb1a6d8054bc,2.499000072,1,0,98,61,1,97
,,,,,,,,,,,,,,,,,,,,,,,,,,,,,,,,,,,,,,,,,,,,,,,,,,,65,mono,Spanish,Sounds/spa_mono.mp3,2020-06-05_16h22.32.021,TranslationElicitation_eng-prolific,3.2.4,Win32,60,5eb3c2e29eb7cb1a6d8054bc,,1,0,98,61,1,97
,,,,,,,,,,,,,,,,,,,,,,,,,,,,,,,,,,,,,,,,,return,5.115999937,,FALSE,,,,,,,82,perro,Spanish,Sounds/spa_perro.mp3,2020-06-05_16h22.32.021,TranslationElicitation_eng-prolific,3.2.4,Win32,60,5eb3c2e29eb7cb1a6d8054bc,5.115999937,1,0,98,77,1,97
,,,,,,,,,,,,,,,,,,,,,,,,,,,,,,,,,,,,,,,,,,,,,,,,,,,82,perro,Spanish,Sounds/spa_perro.mp3,2020-06-05_16h22.32.021,TranslationElicitation_eng-prolific,3.2.4,Win32,60,5eb3c2e29eb7cb1a6d8054bc,,1,0,98,77,1,97
,,,,,,,,,,,,,,,,,,,,,,,,,,,,,,,,,,,,,,,,,l,1.532999992,L,FALSE,,,,,,,48,gusano,Spanish,Sounds/spa_gusano.mp3,2020-06-05_16h22.32.021,TranslationElicitation_eng-prolific,3.2.4,Win32,60,5eb3c2e29eb7cb1a6d8054bc,,1,0,98,44,1,97
,,,,,,,,,,,,,,,,,,,,,,,,,,,,,,,,,,,,,,,,,a,1.648999929,LA,FALSE,,,,,,,48,gusano,Spanish,Sounds/spa_gusano.mp3,2020-06-05_16h22.32.021,TranslationElicitation_eng-prolific,3.2.4,Win32,60,5eb3c2e29eb7cb1a6d8054bc,,1,0,98,44,1,97
,,,,,,,,,,,,,,,,,,,,,,,,,,,,,,,,,,,,,,,,,s,1.799999952,LAS,FALSE,,,,,,,48,gusano,Spanish,Sounds/spa_gusano.mp3,2020-06-05_16h22.32.021,TranslationElicitation_eng-prolific,3.2.4,Win32,60,5eb3c2e29eb7cb1a6d8054bc,,1,0,98,44,1,97
,,,,,,,,,,,,,,,,,,,,,,,,,,,,,,,,,,,,,,,,,a,2.065999985,LASA,FALSE,,,,,,,48,gusano,Spanish,Sounds/spa_gusano.mp3,2020-06-05_16h22.32.021,TranslationElicitation_eng-prolific,3.2.4,Win32,60,5eb3c2e29eb7cb1a6d8054bc,,1,0,98,44,1,97
,,,,,,,,,,,,,,,,,,,,,,,,,,,,,,,,,,,,,,,,,g,2.299999952,LASAG,FALSE,,,,,,,48,gusano,Spanish,Sounds/spa_gusano.mp3,2020-06-05_16h22.32.021,TranslationElicitation_eng-prolific,3.2.4,Win32,60,5eb3c2e29eb7cb1a6d8054bc,,1,0,98,44,1,97
,,,,,,,,,,,,,,,,,,,,,,,,,,,,,,,,,,,,,,,,,n,2.381999969,LASAGN,FALSE,,,,,,,48,gusano,Spanish,Sounds/spa_gusano.mp3,2020-06-05_16h22.32.021,TranslationElicitation_eng-prolific,3.2.4,Win32,60,5eb3c2e29eb7cb1a6d8054bc,,1,0,98,44,1,97
,,,,,,,,,,,,,,,,,,,,,,,,,,,,,,,,,,,,,,,,,e,2.516000032,LASAGNE,FALSE,,,,,,,48,gusano,Spanish,Sounds/spa_gusano.mp3,2020-06-05_16h22.32.021,TranslationElicitation_eng-prolific,3.2.4,Win32,60,5eb3c2e29eb7cb1a6d8054bc,,1,0,98,44,1,97
,,,,,,,,,,,,,,,,,,,,,,,,,,,,,,,,,,,,,,,,,return,2.683000088,LASAGNE,FALSE,,,,,,,48,gusano,Spanish,Sounds/spa_gusano.mp3,2020-06-05_16h22.32.021,TranslationElicitation_eng-prolific,3.2.4,Win32,60,5eb3c2e29eb7cb1a6d8054bc,2.683000088,1,0,98,44,1,97
,,,,,,,,,,,,,,,,,,,,,,,,,,,,,,,,,,,,,,,,,,,,,,,,,,,48,gusano,Spanish,Sounds/spa_gusano.mp3,2020-06-05_16h22.32.021,TranslationElicitation_eng-prolific,3.2.4,Win32,60,5eb3c2e29eb7cb1a6d8054bc,,1,0,98,44,1,97
,,,,,,,,,,,,,,,,,,,,,,,,,,,,,,,,,,,,,,,,,b,2.715999842,B,FALSE,,,,,,,13,buho,Spanish,Sounds/spa_buho.mp3,2020-06-05_16h22.32.021,TranslationElicitation_eng-prolific,3.2.4,Win32,60,5eb3c2e29eb7cb1a6d8054bc,,1,0,98,11,1,97
,,,,,,,,,,,,,,,,,,,,,,,,,,,,,,,,,,,,,,,,,o,3.432999849,BO,FALSE,,,,,,,13,buho,Spanish,Sounds/spa_buho.mp3,2020-06-05_16h22.32.021,TranslationElicitation_eng-prolific,3.2.4,Win32,60,5eb3c2e29eb7cb1a6d8054bc,,1,0,98,11,1,97
,,,,,,,,,,,,,,,,,,,,,,,,,,,,,,,,,,,,,,,,,a,4.73300004,BOA,FALSE,,,,,,,13,buho,Spanish,Sounds/spa_buho.mp3,2020-06-05_16h22.32.021,TranslationElicitation_eng-prolific,3.2.4,Win32,60,5eb3c2e29eb7cb1a6d8054bc,,1,0,98,11,1,97
,,,,,,,,,,,,,,,,,,,,,,,,,,,,,,,,,,,,,,,,,r,4.998999834,BOAR,FALSE,,,,,,,13,buho,Spanish,Sounds/spa_buho.mp3,2020-06-05_16h22.32.021,TranslationElicitation_eng-prolific,3.2.4,Win32,60,5eb3c2e29eb7cb1a6d8054bc,,1,0,98,11,1,97
,,,,,,,,,,,,,,,,,,,,,,,,,,,,,,,,,,,,,,,,,return,5.365999937,BOAR,FALSE,,,,,,,13,buho,Spanish,Sounds/spa_buho.mp3,2020-06-05_16h22.32.021,TranslationElicitation_eng-prolific,3.2.4,Win32,60,5eb3c2e29eb7cb1a6d8054bc,5.365999937,1,0,98,11,1,97
,,,,,,,,,,,,,,,,,,,,,,,,,,,,,,,,,,,,,,,,,,,,,,,,,,,13,buho,Spanish,Sounds/spa_buho.mp3,2020-06-05_16h22.32.021,TranslationElicitation_eng-prolific,3.2.4,Win32,60,5eb3c2e29eb7cb1a6d8054bc,,1,0,98,11,1,97
,,,,,,,,,,,,,,,,,,,,,,,,,,,,,,,,,,,,,,,,,f,1.75,F,FALSE,,,,,,,21,cebra,Spanish,Sounds/spa_cebra.mp3,2020-06-05_16h22.32.021,TranslationElicitation_eng-prolific,3.2.4,Win32,60,5eb3c2e29eb7cb1a6d8054bc,,1,0,98,19,1,97
,,,,,,,,,,,,,,,,,,,,,,,,,,,,,,,,,,,,,,,,,a,1.917000055,FA,FALSE,,,,,,,21,cebra,Spanish,Sounds/spa_cebra.mp3,2020-06-05_16h22.32.021,TranslationElicitation_eng-prolific,3.2.4,Win32,60,5eb3c2e29eb7cb1a6d8054bc,,1,0,98,19,1,97
,,,,,,,,,,,,,,,,,,,,,,,,,,,,,,,,,,,,,,,,,v,2.099999905,FAV,FALSE,,,,,,,21,cebra,Spanish,Sounds/spa_cebra.mp3,2020-06-05_16h22.32.021,TranslationElicitation_eng-prolific,3.2.4,Win32,60,5eb3c2e29eb7cb1a6d8054bc,,1,0,98,19,1,97
,,,,,,,,,,,,,,,,,,,,,,,,,,,,,,,,,,,,,,,,,o,2.21600008,FAVO,FALSE,,,,,,,21,cebra,Spanish,Sounds/spa_cebra.mp3,2020-06-05_16h22.32.021,TranslationElicitation_eng-prolific,3.2.4,Win32,60,5eb3c2e29eb7cb1a6d8054bc,,1,0,98,19,1,97
,,,,,,,,,,,,,,,,,,,,,,,,,,,,,,,,,,,,,,,,,u,2.433000088,FAVOU,FALSE,,,,,,,21,cebra,Spanish,Sounds/spa_cebra.mp3,2020-06-05_16h22.32.021,TranslationElicitation_eng-prolific,3.2.4,Win32,60,5eb3c2e29eb7cb1a6d8054bc,,1,0,98,19,1,97
,,,,,,,,,,,,,,,,,,,,,,,,,,,,,,,,,,,,,,,,,r,2.516000032,FAVOUR,FALSE,,,,,,,21,cebra,Spanish,Sounds/spa_cebra.mp3,2020-06-05_16h22.32.021,TranslationElicitation_eng-prolific,3.2.4,Win32,60,5eb3c2e29eb7cb1a6d8054bc,,1,0,98,19,1,97
,,,,,,,,,,,,,,,,,,,,,,,,,,,,,,,,,,,,,,,,,i,2.650000095,FAVOURI,FALSE,,,,,,,21,cebra,Spanish,Sounds/spa_cebra.mp3,2020-06-05_16h22.32.021,TranslationElicitation_eng-prolific,3.2.4,Win32,60,5eb3c2e29eb7cb1a6d8054bc,,1,0,98,19,1,97
,,,,,,,,,,,,,,,,,,,,,,,,,,,,,,,,,,,,,,,,,t,2.71600008,FAVOURIT,FALSE,,,,,,,21,cebra,Spanish,Sounds/spa_cebra.mp3,2020-06-05_16h22.32.021,TranslationElicitation_eng-prolific,3.2.4,Win32,60,5eb3c2e29eb7cb1a6d8054bc,,1,0,98,19,1,97
,,,,,,,,,,,,,,,,,,,,,,,,,,,,,,,,,,,,,,,,,e,2.867000103,FAVOURITE,FALSE,,,,,,,21,cebra,Spanish,Sounds/spa_cebra.mp3,2020-06-05_16h22.32.021,TranslationElicitation_eng-prolific,3.2.4,Win32,60,5eb3c2e29eb7cb1a6d8054bc,,1,0,98,19,1,97
,,,,,,,,,,,,,,,,,,,,,,,,,,,,,,,,,,,,,,,,,return,2.98300004,FAVOURITE,FALSE,,,,,,,21,cebra,Spanish,Sounds/spa_cebra.mp3,2020-06-05_16h22.32.021,TranslationElicitation_eng-prolific,3.2.4,Win32,60,5eb3c2e29eb7cb1a6d8054bc,2.98300004,1,0,98,19,1,97
,,,,,,,,,,,,,,,,,,,,,,,,,,,,,,,,,,,,,,,,,,,,,,,,,,,21,cebra,Spanish,Sounds/spa_cebra.mp3,2020-06-05_16h22.32.021,TranslationElicitation_eng-prolific,3.2.4,Win32,60,5eb3c2e29eb7cb1a6d8054bc,,1,0,98,19,1,97
,,,,,,,,,,,,,,,,,,,,,,,,,,,,,,,,,,,,,,,,,m,1.398999929,M,FALSE,,,,,,,66,moto,Spanish,Sounds/spa_moto.mp3,2020-06-05_16h22.32.021,TranslationElicitation_eng-prolific,3.2.4,Win32,60,5eb3c2e29eb7cb1a6d8054bc,,1,0,98,62,1,97
,,,,,,,,,,,,,,,,,,,,,,,,,,,,,,,,,,,,,,,,,o,1.766000032,MO,FALSE,,,,,,,66,moto,Spanish,Sounds/spa_moto.mp3,2020-06-05_16h22.32.021,TranslationElicitation_eng-prolific,3.2.4,Win32,60,5eb3c2e29eb7cb1a6d8054bc,,1,0,98,62,1,97
,,,,,,,,,,,,,,,,,,,,,,,,,,,,,,,,,,,,,,,,,r,1.865999937,MOR,FALSE,,,,,,,66,moto,Spanish,Sounds/spa_moto.mp3,2020-06-05_16h22.32.021,TranslationElicitation_eng-prolific,3.2.4,Win32,60,5eb3c2e29eb7cb1a6d8054bc,,1,0,98,62,1,97
,,,,,,,,,,,,,,,,,,,,,,,,,,,,,,,,,,,,,,,,,t,1.967000008,MORT,FALSE,,,,,,,66,moto,Spanish,Sounds/spa_moto.mp3,2020-06-05_16h22.32.021,TranslationElicitation_eng-prolific,3.2.4,Win32,60,5eb3c2e29eb7cb1a6d8054bc,,1,0,98,62,1,97
,,,,,,,,,,,,,,,,,,,,,,,,,,,,,,,,,,,,,,,,,a,2.200000048,MORTA,FALSE,,,,,,,66,moto,Spanish,Sounds/spa_moto.mp3,2020-06-05_16h22.32.021,TranslationElicitation_eng-prolific,3.2.4,Win32,60,5eb3c2e29eb7cb1a6d8054bc,,1,0,98,62,1,97
,,,,,,,,,,,,,,,,,,,,,,,,,,,,,,,,,,,,,,,,,l,2.282999992,MORTAL,FALSE,,,,,,,66,moto,Spanish,Sounds/spa_moto.mp3,2020-06-05_16h22.32.021,TranslationElicitation_eng-prolific,3.2.4,Win32,60,5eb3c2e29eb7cb1a6d8054bc,,1,0,98,62,1,97
,,,,,,,,,,,,,,,,,,,,,,,,,,,,,,,,,,,,,,,,,return,2.467000008,MORTAL,FALSE,,,,,,,66,moto,Spanish,Sounds/spa_moto.mp3,2020-06-05_16h22.32.021,TranslationElicitation_eng-prolific,3.2.4,Win32,60,5eb3c2e29eb7cb1a6d8054bc,2.467000008,1,0,98,62,1,97
,,,,,,,,,,,,,,,,,,,,,,,,,,,,,,,,,,,,,,,,,,,,,,,,,,,66,moto,Spanish,Sounds/spa_moto.mp3,2020-06-05_16h22.32.021,TranslationElicitation_eng-prolific,3.2.4,Win32,60,5eb3c2e29eb7cb1a6d8054bc,,1,0,98,62,1,97
,,,,,,,,,,,,,,,,,,,,,,,,,,,,,,,,,,,,,,,,,g,1.450000048,G,FALSE,,,,,,,46,grifo,Spanish,Sounds/spa_grifo.mp3,2020-06-05_16h22.32.021,TranslationElicitation_eng-prolific,3.2.4,Win32,60,5eb3c2e29eb7cb1a6d8054bc,,1,0,98,42,1,97
,,,,,,,,,,,,,,,,,,,,,,,,,,,,,,,,,,,,,,,,,r,1.700000048,GR,FALSE,,,,,,,46,grifo,Spanish,Sounds/spa_grifo.mp3,2020-06-05_16h22.32.021,TranslationElicitation_eng-prolific,3.2.4,Win32,60,5eb3c2e29eb7cb1a6d8054bc,,1,0,98,42,1,97
,,,,,,,,,,,,,,,,,,,,,,,,,,,,,,,,,,,,,,,,,i,1.96600008,GRI,FALSE,,,,,,,46,grifo,Spanish,Sounds/spa_grifo.mp3,2020-06-05_16h22.32.021,TranslationElicitation_eng-prolific,3.2.4,Win32,60,5eb3c2e29eb7cb1a6d8054bc,,1,0,98,42,1,97
,,,,,,,,,,,,,,,,,,,,,,,,,,,,,,,,,,,,,,,,,e,2.183000088,GRIE,FALSE,,,,,,,46,grifo,Spanish,Sounds/spa_grifo.mp3,2020-06-05_16h22.32.021,TranslationElicitation_eng-prolific,3.2.4,Win32,60,5eb3c2e29eb7cb1a6d8054bc,,1,0,98,42,1,97
,,,,,,,,,,,,,,,,,,,,,,,,,,,,,,,,,,,,,,,,,f,2.400000095,GRIEF,FALSE,,,,,,,46,grifo,Spanish,Sounds/spa_grifo.mp3,2020-06-05_16h22.32.021,TranslationElicitation_eng-prolific,3.2.4,Win32,60,5eb3c2e29eb7cb1a6d8054bc,,1,0,98,42,1,97
,,,,,,,,,,,,,,,,,,,,,,,,,,,,,,,,,,,,,,,,,return,2.650000095,GRIEF,FALSE,,,,,,,46,grifo,Spanish,Sounds/spa_grifo.mp3,2020-06-05_16h22.32.021,TranslationElicitation_eng-prolific,3.2.4,Win32,60,5eb3c2e29eb7cb1a6d8054bc,2.650000095,1,0,98,42,1,97
,,,,,,,,,,,,,,,,,,,,,,,,,,,,,,,,,,,,,,,,,,,,,,,,,,,46,grifo,Spanish,Sounds/spa_grifo.mp3,2020-06-05_16h22.32.021,TranslationElicitation_eng-prolific,3.2.4,Win32,60,5eb3c2e29eb7cb1a6d8054bc,,1,0,98,42,1,97
,,,,,,,,,,,,,,,,,,,,,,,,,,,,,,,,,,,,,,,,,b,1.816999912,B,FALSE,,,,,,,102,ventana,Spanish,Sounds/spa_ventana.mp3,2020-06-05_16h22.32.021,TranslationElicitation_eng-prolific,3.2.4,Win32,60,5eb3c2e29eb7cb1a6d8054bc,,1,0,98,96,1,97
,,,,,,,,,,,,,,,,,,,,,,,,,,,,,,,,,,,,,,,,,a,2.06799984,BA,FALSE,,,,,,,102,ventana,Spanish,Sounds/spa_ventana.mp3,2020-06-05_16h22.32.021,TranslationElicitation_eng-prolific,3.2.4,Win32,60,5eb3c2e29eb7cb1a6d8054bc,,1,0,98,96,1,97
,,,,,,,,,,,,,,,,,,,,,,,,,,,,,,,,,,,,,,,,,n,2.167000055,BAN,FALSE,,,,,,,102,ventana,Spanish,Sounds/spa_ventana.mp3,2020-06-05_16h22.32.021,TranslationElicitation_eng-prolific,3.2.4,Win32,60,5eb3c2e29eb7cb1a6d8054bc,,1,0,98,96,1,97
,,,,,,,,,,,,,,,,,,,,,,,,,,,,,,,,,,,,,,,,,d,2.600999832,BAND,FALSE,,,,,,,102,ventana,Spanish,Sounds/spa_ventana.mp3,2020-06-05_16h22.32.021,TranslationElicitation_eng-prolific,3.2.4,Win32,60,5eb3c2e29eb7cb1a6d8054bc,,1,0,98,96,1,97
,,,,,,,,,,,,,,,,,,,,,,,,,,,,,,,,,,,,,,,,,a,2.833999872,BANDA,FALSE,,,,,,,102,ventana,Spanish,Sounds/spa_ventana.mp3,2020-06-05_16h22.32.021,TranslationElicitation_eng-prolific,3.2.4,Win32,60,5eb3c2e29eb7cb1a6d8054bc,,1,0,98,96,1,97
,,,,,,,,,,,,,,,,,,,,,,,,,,,,,,,,,,,,,,,,,n,3.01699996,BANDAN,FALSE,,,,,,,102,ventana,Spanish,Sounds/spa_ventana.mp3,2020-06-05_16h22.32.021,TranslationElicitation_eng-prolific,3.2.4,Win32,60,5eb3c2e29eb7cb1a6d8054bc,,1,0,98,96,1,97
,,,,,,,,,,,,,,,,,,,,,,,,,,,,,,,,,,,,,,,,,a,3.151000023,BANDANA,FALSE,,,,,,,102,ventana,Spanish,Sounds/spa_ventana.mp3,2020-06-05_16h22.32.021,TranslationElicitation_eng-prolific,3.2.4,Win32,60,5eb3c2e29eb7cb1a6d8054bc,,1,0,98,96,1,97
,,,,,,,,,,,,,,,,,,,,,,,,,,,,,,,,,,,,,,,,,return,3.26699996,BANDANA,FALSE,,,,,,,102,ventana,Spanish,Sounds/spa_ventana.mp3,2020-06-05_16h22.32.021,TranslationElicitation_eng-prolific,3.2.4,Win32,60,5eb3c2e29eb7cb1a6d8054bc,3.26699996,1,0,98,96,1,97
,,,,,,,,,,,,,,,,,,,,,,,,,,,,,,,,,,,,,,,,,,,,,,,,,,,102,ventana,Spanish,Sounds/spa_ventana.mp3,2020-06-05_16h22.32.021,TranslationElicitation_eng-prolific,3.2.4,Win32,60,5eb3c2e29eb7cb1a6d8054bc,,1,0,98,96,1,97
,,,,,,,,,,,,,,,,,,,,,,,,,,,,,,,,,,,,,,,,,return,3.382999897,,FALSE,,,,,,,67,muneca,Spanish,Sounds/spa_muneca.mp3,2020-06-05_16h22.32.021,TranslationElicitation_eng-prolific,3.2.4,Win32,60,5eb3c2e29eb7cb1a6d8054bc,3.382999897,1,0,98,63,1,97
,,,,,,,,,,,,,,,,,,,,,,,,,,,,,,,,,,,,,,,,,,,,,,,,,,,67,muneca,Spanish,Sounds/spa_muneca.mp3,2020-06-05_16h22.32.021,TranslationElicitation_eng-prolific,3.2.4,Win32,60,5eb3c2e29eb7cb1a6d8054bc,,1,0,98,63,1,97
,,,,,,,,,,,,,,,,,,,,,,,,,,,,,,,,,,,,,,,,,m,1.96600008,M,FALSE,,,,,,,62,martillo,Spanish,Sounds/spa_martillo.mp3,2020-06-05_16h22.32.021,TranslationElicitation_eng-prolific,3.2.4,Win32,60,5eb3c2e29eb7cb1a6d8054bc,,1,0,98,58,1,97
,,,,,,,,,,,,,,,,,,,,,,,,,,,,,,,,,,,,,,,,,a,2.083000183,MA,FALSE,,,,,,,62,martillo,Spanish,Sounds/spa_martillo.mp3,2020-06-05_16h22.32.021,TranslationElicitation_eng-prolific,3.2.4,Win32,60,5eb3c2e29eb7cb1a6d8054bc,,1,0,98,58,1,97
,,,,,,,,,,,,,,,,,,,,,,,,,,,,,,,,,,,,,,,,,r,2.317000151,MAR,FALSE,,,,,,,62,martillo,Spanish,Sounds/spa_martillo.mp3,2020-06-05_16h22.32.021,TranslationElicitation_eng-prolific,3.2.4,Win32,60,5eb3c2e29eb7cb1a6d8054bc,,1,0,98,58,1,97
,,,,,,,,,,,,,,,,,,,,,,,,,,,,,,,,,,,,,,,,,t,2.950000048,MART,FALSE,,,,,,,62,martillo,Spanish,Sounds/spa_martillo.mp3,2020-06-05_16h22.32.021,TranslationElicitation_eng-prolific,3.2.4,Win32,60,5eb3c2e29eb7cb1a6d8054bc,,1,0,98,58,1,97
,,,,,,,,,,,,,,,,,,,,,,,,,,,,,,,,,,,,,,,,,i,3.017000198,MARTI,FALSE,,,,,,,62,martillo,Spanish,Sounds/spa_martillo.mp3,2020-06-05_16h22.32.021,TranslationElicitation_eng-prolific,3.2.4,Win32,60,5eb3c2e29eb7cb1a6d8054bc,,1,0,98,58,1,97
,,,,,,,,,,,,,,,,,,,,,,,,,,,,,,,,,,,,,,,,,n,3.282999992,MARTIN,FALSE,,,,,,,62,martillo,Spanish,Sounds/spa_martillo.mp3,2020-06-05_16h22.32.021,TranslationElicitation_eng-prolific,3.2.4,Win32,60,5eb3c2e29eb7cb1a6d8054bc,,1,0,98,58,1,97
,,,,,,,,,,,,,,,,,,,,,,,,,,,,,,,,,,,,,,,,,o,3.366000175,MARTINO,FALSE,,,,,,,62,martillo,Spanish,Sounds/spa_martillo.mp3,2020-06-05_16h22.32.021,TranslationElicitation_eng-prolific,3.2.4,Win32,60,5eb3c2e29eb7cb1a6d8054bc,,1,0,98,58,1,97
,,,,,,,,,,,,,,,,,,,,,,,,,,,,,,,,,,,,,,,,,return,4.583000183,MARTINO,FALSE,,,,,,,62,martillo,Spanish,Sounds/spa_martillo.mp3,2020-06-05_16h22.32.021,TranslationElicitation_eng-prolific,3.2.4,Win32,60,5eb3c2e29eb7cb1a6d8054bc,4.583000183,1,0,98,58,1,97
,,,,,,,,,,,,,,,,,,,,,,,,,,,,,,,,,,,,,,,,,,,,,,,,,,,62,martillo,Spanish,Sounds/spa_martillo.mp3,2020-06-05_16h22.32.021,TranslationElicitation_eng-prolific,3.2.4,Win32,60,5eb3c2e29eb7cb1a6d8054bc,,1,0,98,58,1,97
,,,,,,,,,,,,,,,,,,,,,,,,,,,,,,,,,,,,,,,,,return,2.382999897,,FALSE,,,,,,,4,biberon,Spanish,Sounds/spa_biberon.mp3,2020-06-05_16h22.32.021,TranslationElicitation_eng-prolific,3.2.4,Win32,60,5eb3c2e29eb7cb1a6d8054bc,2.382999897,1,0,98,2,1,97
,,,,,,,,,,,,,,,,,,,,,,,,,,,,,,,,,,,,,,,,,,,,,,,,,,,4,biberon,Spanish,Sounds/spa_biberon.mp3,2020-06-05_16h22.32.021,TranslationElicitation_eng-prolific,3.2.4,Win32,60,5eb3c2e29eb7cb1a6d8054bc,,1,0,98,2,1,97
,,,,,,,,,,,,,,,,,,,,,,,,,,,,,,,,,,,,,,,,,return,2.832999945,,FALSE,,,,,,,72,osito,Spanish,Sounds/spa_osito.mp3,2020-06-05_16h22.32.021,TranslationElicitation_eng-prolific,3.2.4,Win32,60,5eb3c2e29eb7cb1a6d8054bc,2.832999945,1,0,98,67,1,97
,,,,,,,,,,,,,,,,,,,,,,,,,,,,,,,,,,,,,,,,,,,,,,,,,,,72,osito,Spanish,Sounds/spa_osito.mp3,2020-06-05_16h22.32.021,TranslationElicitation_eng-prolific,3.2.4,Win32,60,5eb3c2e29eb7cb1a6d8054bc,,1,0,98,67,1,97
,,,,,,,,,,,,,,,,,,,,,,,,,,,,,,,,,,,,,,,,,t,2.299999952,T,FALSE,,,,,,,101,tren,Spanish,Sounds/spa_tren.mp3,2020-06-05_16h22.32.021,TranslationElicitation_eng-prolific,3.2.4,Win32,60,5eb3c2e29eb7cb1a6d8054bc,,1,0,98,95,1,97
,,,,,,,,,,,,,,,,,,,,,,,,,,,,,,,,,,,,,,,,,h,2.433000088,TH,FALSE,,,,,,,101,tren,Spanish,Sounds/spa_tren.mp3,2020-06-05_16h22.32.021,TranslationElicitation_eng-prolific,3.2.4,Win32,60,5eb3c2e29eb7cb1a6d8054bc,,1,0,98,95,1,97
,,,,,,,,,,,,,,,,,,,,,,,,,,,,,,,,,,,,,,,,,i,2.916000128,THI,FALSE,,,,,,,101,tren,Spanish,Sounds/spa_tren.mp3,2020-06-05_16h22.32.021,TranslationElicitation_eng-prolific,3.2.4,Win32,60,5eb3c2e29eb7cb1a6d8054bc,,1,0,98,95,1,97
,,,,,,,,,,,,,,,,,,,,,,,,,,,,,,,,,,,,,,,,,r,3.083000183,THIR,FALSE,,,,,,,101,tren,Spanish,Sounds/spa_tren.mp3,2020-06-05_16h22.32.021,TranslationElicitation_eng-prolific,3.2.4,Win32,60,5eb3c2e29eb7cb1a6d8054bc,,1,0,98,95,1,97
,,,,,,,,,,,,,,,,,,,,,,,,,,,,,,,,,,,,,,,,,backspace,3.633000135,THI,TRUE,,,,,,,101,tren,Spanish,Sounds/spa_tren.mp3,2020-06-05_16h22.32.021,TranslationElicitation_eng-prolific,3.2.4,Win32,60,5eb3c2e29eb7cb1a6d8054bc,,1,0,98,95,1,97
,,,,,,,,,,,,,,,,,,,,,,,,,,,,,,,,,,,,,,,,,backspace,3.815999985,TH,TRUE,,,,,,,101,tren,Spanish,Sounds/spa_tren.mp3,2020-06-05_16h22.32.021,TranslationElicitation_eng-prolific,3.2.4,Win32,60,5eb3c2e29eb7cb1a6d8054bc,,1,0,98,95,1,97
,,,,,,,,,,,,,,,,,,,,,,,,,,,,,,,,,,,,,,,,,r,4.332000017,THR,TRUE,,,,,,,101,tren,Spanish,Sounds/spa_tren.mp3,2020-06-05_16h22.32.021,TranslationElicitation_eng-prolific,3.2.4,Win32,60,5eb3c2e29eb7cb1a6d8054bc,,1,0,98,95,1,97
,,,,,,,,,,,,,,,,,,,,,,,,,,,,,,,,,,,,,,,,,e,4.467000008,THRE,TRUE,,,,,,,101,tren,Spanish,Sounds/spa_tren.mp3,2020-06-05_16h22.32.021,TranslationElicitation_eng-prolific,3.2.4,Win32,60,5eb3c2e29eb7cb1a6d8054bc,,1,0,98,95,1,97
,,,,,,,,,,,,,,,,,,,,,,,,,,,,,,,,,,,,,,,,,e,4.650000095,THREE,TRUE,,,,,,,101,tren,Spanish,Sounds/spa_tren.mp3,2020-06-05_16h22.32.021,TranslationElicitation_eng-prolific,3.2.4,Win32,60,5eb3c2e29eb7cb1a6d8054bc,,1,0,98,95,1,97
,,,,,,,,,,,,,,,,,,,,,,,,,,,,,,,,,,,,,,,,,return,4.916000128,THREE,TRUE,,,,,,,101,tren,Spanish,Sounds/spa_tren.mp3,2020-06-05_16h22.32.021,TranslationElicitation_eng-prolific,3.2.4,Win32,60,5eb3c2e29eb7cb1a6d8054bc,4.916000128,1,0,98,95,1,97
,,,,,,,,,,,,,,,,,,,,,,,,,,,,,,,,,,,,,,,,,,,,,,,,,,,101,tren,Spanish,Sounds/spa_tren.mp3,2020-06-05_16h22.32.021,TranslationElicitation_eng-prolific,3.2.4,Win32,60,5eb3c2e29eb7cb1a6d8054bc,,1,0,98,95,1,97
,,,,,,,,,,,,,,,,,,,,,,,,,,,,,,,,,,,,,,,,,return,2.465999842,,FALSE,,,,,,,69,nariz,Spanish,Sounds/spa_nariz.mp3,2020-06-05_16h22.32.021,TranslationElicitation_eng-prolific,3.2.4,Win32,60,5eb3c2e29eb7cb1a6d8054bc,2.465999842,1,0,98,65,1,97
,,,,,,,,,,,,,,,,,,,,,,,,,,,,,,,,,,,,,,,,,,,,,,,,,,,69,nariz,Spanish,Sounds/spa_nariz.mp3,2020-06-05_16h22.32.021,TranslationElicitation_eng-prolific,3.2.4,Win32,60,5eb3c2e29eb7cb1a6d8054bc,,1,0,98,65,1,97
,,,,,,,,,,,,,,,,,,,,,,,,,,,,,,,,,,,,,,,,,e,3.098999977,E,FALSE,,,,,,,100,toro,Spanish,Sounds/spa_toro.mp3,2020-06-05_16h22.32.021,TranslationElicitation_eng-prolific,3.2.4,Win32,60,5eb3c2e29eb7cb1a6d8054bc,,1,0,98,94,1,97
,,,,,,,,,,,,,,,,,,,,,,,,,,,,,,,,,,,,,,,,,v,3.315999985,EV,FALSE,,,,,,,100,toro,Spanish,Sounds/spa_toro.mp3,2020-06-05_16h22.32.021,TranslationElicitation_eng-prolific,3.2.4,Win32,60,5eb3c2e29eb7cb1a6d8054bc,,1,0,98,94,1,97
,,,,,,,,,,,,,,,,,,,,,,,,,,,,,,,,,,,,,,,,,e,3.498999834,EVE,FALSE,,,,,,,100,toro,Spanish,Sounds/spa_toro.mp3,2020-06-05_16h22.32.021,TranslationElicitation_eng-prolific,3.2.4,Win32,60,5eb3c2e29eb7cb1a6d8054bc,,1,0,98,94,1,97
,,,,,,,,,,,,,,,,,,,,,,,,,,,,,,,,,,,,,,,,,n,3.648999929,EVEN,FALSE,,,,,,,100,toro,Spanish,Sounds/spa_toro.mp3,2020-06-05_16h22.32.021,TranslationElicitation_eng-prolific,3.2.4,Win32,60,5eb3c2e29eb7cb1a6d8054bc,,1,0,98,94,1,97
,,,,,,,,,,,,,,,,,,,,,,,,,,,,,,,,,,,,,,,,,i,3.848999977,EVENI,FALSE,,,,,,,100,toro,Spanish,Sounds/spa_toro.mp3,2020-06-05_16h22.32.021,TranslationElicitation_eng-prolific,3.2.4,Win32,60,5eb3c2e29eb7cb1a6d8054bc,,1,0,98,94,1,97
,,,,,,,,,,,,,,,,,,,,,,,,,,,,,,,,,,,,,,,,,n,3.932999849,EVENIN,FALSE,,,,,,,100,toro,Spanish,Sounds/spa_toro.mp3,2020-06-05_16h22.32.021,TranslationElicitation_eng-prolific,3.2.4,Win32,60,5eb3c2e29eb7cb1a6d8054bc,,1,0,98,94,1,97
,,,,,,,,,,,,,,,,,,,,,,,,,,,,,,,,,,,,,,,,,g,4.016000032,EVENING,FALSE,,,,,,,100,toro,Spanish,Sounds/spa_toro.mp3,2020-06-05_16h22.32.021,TranslationElicitation_eng-prolific,3.2.4,Win32,60,5eb3c2e29eb7cb1a6d8054bc,,1,0,98,94,1,97
,,,,,,,,,,,,,,,,,,,,,,,,,,,,,,,,,,,,,,,,,return,4.215999842,EVENING,FALSE,,,,,,,100,toro,Spanish,Sounds/spa_toro.mp3,2020-06-05_16h22.32.021,TranslationElicitation_eng-prolific,3.2.4,Win32,60,5eb3c2e29eb7cb1a6d8054bc,4.215999842,1,0,98,94,1,97
,,,,,,,,,,,,,,,,,,,,,,,,,,,,,,,,,,,,,,,,,,,,,,,,,,,100,toro,Spanish,Sounds/spa_toro.mp3,2020-06-05_16h22.32.021,TranslationElicitation_eng-prolific,3.2.4,Win32,60,5eb3c2e29eb7cb1a6d8054bc,,1,0,98,94,1,97
,,,,,,,,,,,,,,,,,,,,,,,,,,,,,,,,,,,,,,,,,m,1.815999985,M,FALSE,,,,,,,58,luna,Spanish,Sounds/spa_luna.mp3,2020-06-05_16h22.32.021,TranslationElicitation_eng-prolific,3.2.4,Win32,60,5eb3c2e29eb7cb1a6d8054bc,,1,0,98,54,1,97
,,,,,,,,,,,,,,,,,,,,,,,,,,,,,,,,,,,,,,,,,o,2.016000032,MO,FALSE,,,,,,,58,luna,Spanish,Sounds/spa_luna.mp3,2020-06-05_16h22.32.021,TranslationElicitation_eng-prolific,3.2.4,Win32,60,5eb3c2e29eb7cb1a6d8054bc,,1,0,98,54,1,97
,,,,,,,,,,,,,,,,,,,,,,,,,,,,,,,,,,,,,,,,,o,2.149000168,MOO,FALSE,,,,,,,58,luna,Spanish,Sounds/spa_luna.mp3,2020-06-05_16h22.32.021,TranslationElicitation_eng-prolific,3.2.4,Win32,60,5eb3c2e29eb7cb1a6d8054bc,,1,0,98,54,1,97
,,,,,,,,,,,,,,,,,,,,,,,,,,,,,,,,,,,,,,,,,n,2.266000032,MOON,FALSE,,,,,,,58,luna,Spanish,Sounds/spa_luna.mp3,2020-06-05_16h22.32.021,TranslationElicitation_eng-prolific,3.2.4,Win32,60,5eb3c2e29eb7cb1a6d8054bc,,1,0,98,54,1,97
,,,,,,,,,,,,,,,,,,,,,,,,,,,,,,,,,,,,,,,,,return,2.366000175,MOON,FALSE,,,,,,,58,luna,Spanish,Sounds/spa_luna.mp3,2020-06-05_16h22.32.021,TranslationElicitation_eng-prolific,3.2.4,Win32,60,5eb3c2e29eb7cb1a6d8054bc,2.366000175,1,0,98,54,1,97
,,,,,,,,,,,,,,,,,,,,,,,,,,,,,,,,,,,,,,,,,,,,,,,,,,,58,luna,Spanish,Sounds/spa_luna.mp3,2020-06-05_16h22.32.021,TranslationElicitation_eng-prolific,3.2.4,Win32,60,5eb3c2e29eb7cb1a6d8054bc,,1,0,98,54,1,97
,,,,,,,,,,,,,,,,,,,,,,,,,,,,,,,,,,,,,,,,,m,1.399999857,M,FALSE,,,,,,,99,tomate,Spanish,Sounds/spa_tomate.mp3,2020-06-05_16h22.32.021,TranslationElicitation_eng-prolific,3.2.4,Win32,60,5eb3c2e29eb7cb1a6d8054bc,,1,0,98,93,1,97
,,,,,,,,,,,,,,,,,,,,,,,,,,,,,,,,,,,,,,,,,a,1.483999968,MA,FALSE,,,,,,,99,tomate,Spanish,Sounds/spa_tomate.mp3,2020-06-05_16h22.32.021,TranslationElicitation_eng-prolific,3.2.4,Win32,60,5eb3c2e29eb7cb1a6d8054bc,,1,0,98,93,1,97
,,,,,,,,,,,,,,,,,,,,,,,,,,,,,,,,,,,,,,,,,t,1.682999849,MAT,FALSE,,,,,,,99,tomate,Spanish,Sounds/spa_tomate.mp3,2020-06-05_16h22.32.021,TranslationElicitation_eng-prolific,3.2.4,Win32,60,5eb3c2e29eb7cb1a6d8054bc,,1,0,98,93,1,97
,,,,,,,,,,,,,,,,,,,,,,,,,,,,,,,,,,,,,,,,,o,1.75,MATO,FALSE,,,,,,,99,tomate,Spanish,Sounds/spa_tomate.mp3,2020-06-05_16h22.32.021,TranslationElicitation_eng-prolific,3.2.4,Win32,60,5eb3c2e29eb7cb1a6d8054bc,,1,0,98,93,1,97
,,,,,,,,,,,,,,,,,,,,,,,,,,,,,,,,,,,,,,,,,return,2.032999992,MATO,FALSE,,,,,,,99,tomate,Spanish,Sounds/spa_tomate.mp3,2020-06-05_16h22.32.021,TranslationElicitation_eng-prolific,3.2.4,Win32,60,5eb3c2e29eb7cb1a6d8054bc,2.032999992,1,0,98,93,1,97
,,,,,,,,,,,,,,,,,,,,,,,,,,,,,,,,,,,,,,,,,,,,,,,,,,,99,tomate,Spanish,Sounds/spa_tomate.mp3,2020-06-05_16h22.32.021,TranslationElicitation_eng-prolific,3.2.4,Win32,60,5eb3c2e29eb7cb1a6d8054bc,,1,0,98,93,1,97
,,,,,,,,,,,,,,,,,,,,,,,,,,,,,,,,,,,,,,,,,y,4.332999945,Y,FALSE,,,,,,,38,frambuesa,Spanish,Sounds/spa_frambuesa.mp3,2020-06-05_16h22.32.021,TranslationElicitation_eng-prolific,3.2.4,Win32,60,5eb3c2e29eb7cb1a6d8054bc,,1,0,98,34,1,97
,,,,,,,,,,,,,,,,,,,,,,,,,,,,,,,,,,,,,,,,,o,4.398999929,YO,FALSE,,,,,,,38,frambuesa,Spanish,Sounds/spa_frambuesa.mp3,2020-06-05_16h22.32.021,TranslationElicitation_eng-prolific,3.2.4,Win32,60,5eb3c2e29eb7cb1a6d8054bc,,1,0,98,34,1,97
,,,,,,,,,,,,,,,,,,,,,,,,,,,,,,,,,,,,,,,,,g,4.615999937,YOG,FALSE,,,,,,,38,frambuesa,Spanish,Sounds/spa_frambuesa.mp3,2020-06-05_16h22.32.021,TranslationElicitation_eng-prolific,3.2.4,Win32,60,5eb3c2e29eb7cb1a6d8054bc,,1,0,98,34,1,97
,,,,,,,,,,,,,,,,,,,,,,,,,,,,,,,,,,,,,,,,,u,4.748999834,YOGU,FALSE,,,,,,,38,frambuesa,Spanish,Sounds/spa_frambuesa.mp3,2020-06-05_16h22.32.021,TranslationElicitation_eng-prolific,3.2.4,Win32,60,5eb3c2e29eb7cb1a6d8054bc,,1,0,98,34,1,97
,,,,,,,,,,,,,,,,,,,,,,,,,,,,,,,,,,,,,,,,,r,5.099999905,YOGUR,FALSE,,,,,,,38,frambuesa,Spanish,Sounds/spa_frambuesa.mp3,2020-06-05_16h22.32.021,TranslationElicitation_eng-prolific,3.2.4,Win32,60,5eb3c2e29eb7cb1a6d8054bc,,1,0,98,34,1,97
,,,,,,,,,,,,,,,,,,,,,,,,,,,,,,,,,,,,,,,,,t,5.165999889,YOGURT,FALSE,,,,,,,38,frambuesa,Spanish,Sounds/spa_frambuesa.mp3,2020-06-05_16h22.32.021,TranslationElicitation_eng-prolific,3.2.4,Win32,60,5eb3c2e29eb7cb1a6d8054bc,,1,0,98,34,1,97
,,,,,,,,,,,,,,,,,,,,,,,,,,,,,,,,,,,,,,,,,return,5.381999969,YOGURT,FALSE,,,,,,,38,frambuesa,Spanish,Sounds/spa_frambuesa.mp3,2020-06-05_16h22.32.021,TranslationElicitation_eng-prolific,3.2.4,Win32,60,5eb3c2e29eb7cb1a6d8054bc,5.381999969,1,0,98,34,1,97
,,,,,,,,,,,,,,,,,,,,,,,,,,,,,,,,,,,,,,,,,,,,,,,,,,,38,frambuesa,Spanish,Sounds/spa_frambuesa.mp3,2020-06-05_16h22.32.021,TranslationElicitation_eng-prolific,3.2.4,Win32,60,5eb3c2e29eb7cb1a6d8054bc,,1,0,98,34,1,97
,,,,,,,,,,,,,,,,,,,,,,,,,,,,,,,,,,,,,,,,,g,1.299999952,G,FALSE,,,,,,,47,guitarra,Spanish,Sounds/spa_guitarra.mp3,2020-06-05_16h22.32.021,TranslationElicitation_eng-prolific,3.2.4,Win32,60,5eb3c2e29eb7cb1a6d8054bc,,1,0,98,43,1,97
,,,,,,,,,,,,,,,,,,,,,,,,,,,,,,,,,,,,,,,,,u,1.532999992,GU,FALSE,,,,,,,47,guitarra,Spanish,Sounds/spa_guitarra.mp3,2020-06-05_16h22.32.021,TranslationElicitation_eng-prolific,3.2.4,Win32,60,5eb3c2e29eb7cb1a6d8054bc,,1,0,98,43,1,97
,,,,,,,,,,,,,,,,,,,,,,,,,,,,,,,,,,,,,,,,,i,1.69900012,GUI,FALSE,,,,,,,47,guitarra,Spanish,Sounds/spa_guitarra.mp3,2020-06-05_16h22.32.021,TranslationElicitation_eng-prolific,3.2.4,Win32,60,5eb3c2e29eb7cb1a6d8054bc,,1,0,98,43,1,97
,,,,,,,,,,,,,,,,,,,,,,,,,,,,,,,,,,,,,,,,,t,1.815999985,GUIT,FALSE,,,,,,,47,guitarra,Spanish,Sounds/spa_guitarra.mp3,2020-06-05_16h22.32.021,TranslationElicitation_eng-prolific,3.2.4,Win32,60,5eb3c2e29eb7cb1a6d8054bc,,1,0,98,43,1,97
,,,,,,,,,,,,,,,,,,,,,,,,,,,,,,,,,,,,,,,,,a,2.032999992,GUITA,FALSE,,,,,,,47,guitarra,Spanish,Sounds/spa_guitarra.mp3,2020-06-05_16h22.32.021,TranslationElicitation_eng-prolific,3.2.4,Win32,60,5eb3c2e29eb7cb1a6d8054bc,,1,0,98,43,1,97
,,,,,,,,,,,,,,,,,,,,,,,,,,,,,,,,,,,,,,,,,r,2.183000088,GUITAR,FALSE,,,,,,,47,guitarra,Spanish,Sounds/spa_guitarra.mp3,2020-06-05_16h22.32.021,TranslationElicitation_eng-prolific,3.2.4,Win32,60,5eb3c2e29eb7cb1a6d8054bc,,1,0,98,43,1,97
,,,,,,,,,,,,,,,,,,,,,,,,,,,,,,,,,,,,,,,,,return,2.266000032,GUITAR,FALSE,,,,,,,47,guitarra,Spanish,Sounds/spa_guitarra.mp3,2020-06-05_16h22.32.021,TranslationElicitation_eng-prolific,3.2.4,Win32,60,5eb3c2e29eb7cb1a6d8054bc,2.266000032,1,0,98,43,1,97
,,,,,,,,,,,,,,,,,,,,,,,,,,,,,,,,,,,,,,,,,,,,,,,,,,,47,guitarra,Spanish,Sounds/spa_guitarra.mp3,2020-06-05_16h22.32.021,TranslationElicitation_eng-prolific,3.2.4,Win32,60,5eb3c2e29eb7cb1a6d8054bc,,1,0,98,43,1,97
,,,,,,,,,,,,,,,,,,,,,,,,,,,,,,,,,,,,,,,,,return,2.082999945,,FALSE,,,,,,,63,mesa,Spanish,Sounds/spa_mesa.mp3,2020-06-05_16h22.32.021,TranslationElicitation_eng-prolific,3.2.4,Win32,60,5eb3c2e29eb7cb1a6d8054bc,2.082999945,1,0,98,59,1,97
,,,,,,,,,,,,,,,,,,,,,,,,,,,,,,,,,,,,,,,,,,,,,,,,,,,63,mesa,Spanish,Sounds/spa_mesa.mp3,2020-06-05_16h22.32.021,TranslationElicitation_eng-prolific,3.2.4,Win32,60,5eb3c2e29eb7cb1a6d8054bc,,1,0,98,59,1,97
,,,,,,,,,,,,,,,,,,,,,,,,,,,,,,,,,,,,,,,,,p,1.832999945,P,FALSE,,,,,,,77,pantalon,Spanish,Sounds/spa_pantalon.mp3,2020-06-05_16h22.32.021,TranslationElicitation_eng-prolific,3.2.4,Win32,60,5eb3c2e29eb7cb1a6d8054bc,,1,0,98,72,1,97
,,,,,,,,,,,,,,,,,,,,,,,,,,,,,,,,,,,,,,,,,a,1.967000008,PA,FALSE,,,,,,,77,pantalon,Spanish,Sounds/spa_pantalon.mp3,2020-06-05_16h22.32.021,TranslationElicitation_eng-prolific,3.2.4,Win32,60,5eb3c2e29eb7cb1a6d8054bc,,1,0,98,72,1,97
,,,,,,,,,,,,,,,,,,,,,,,,,,,,,,,,,,,,,,,,,n,2.100000143,PAN,FALSE,,,,,,,77,pantalon,Spanish,Sounds/spa_pantalon.mp3,2020-06-05_16h22.32.021,TranslationElicitation_eng-prolific,3.2.4,Win32,60,5eb3c2e29eb7cb1a6d8054bc,,1,0,98,72,1,97
,,,,,,,,,,,,,,,,,,,,,,,,,,,,,,,,,,,,,,,,,t,2.233999968,PANT,FALSE,,,,,,,77,pantalon,Spanish,Sounds/spa_pantalon.mp3,2020-06-05_16h22.32.021,TranslationElicitation_eng-prolific,3.2.4,Win32,60,5eb3c2e29eb7cb1a6d8054bc,,1,0,98,72,1,97
,,,,,,,,,,,,,,,,,,,,,,,,,,,,,,,,,,,,,,,,,s,2.48300004,PANTS,FALSE,,,,,,,77,pantalon,Spanish,Sounds/spa_pantalon.mp3,2020-06-05_16h22.32.021,TranslationElicitation_eng-prolific,3.2.4,Win32,60,5eb3c2e29eb7cb1a6d8054bc,,1,0,98,72,1,97
,,,,,,,,,,,,,,,,,,,,,,,,,,,,,,,,,,,,,,,,,return,2.684000015,PANTS,FALSE,,,,,,,77,pantalon,Spanish,Sounds/spa_pantalon.mp3,2020-06-05_16h22.32.021,TranslationElicitation_eng-prolific,3.2.4,Win32,60,5eb3c2e29eb7cb1a6d8054bc,2.684000015,1,0,98,72,1,97
,,,,,,,,,,,,,,,,,,,,,,,,,,,,,,,,,,,,,,,,,,,,,,,,,,,77,pantalon,Spanish,Sounds/spa_pantalon.mp3,2020-06-05_16h22.32.021,TranslationElicitation_eng-prolific,3.2.4,Win32,60,5eb3c2e29eb7cb1a6d8054bc,,1,0,98,72,1,97
,,,,,,,,,,,,,,,,,,,,,,,,,,,,,,,,,,,,,,,,,m,1.61500001,M,FALSE,,,,,,,64,moneda,Spanish,Sounds/spa_moneda.mp3,2020-06-05_16h22.32.021,TranslationElicitation_eng-prolific,3.2.4,Win32,60,5eb3c2e29eb7cb1a6d8054bc,,1,0,98,60,1,97
,,,,,,,,,,,,,,,,,,,,,,,,,,,,,,,,,,,,,,,,,o,1.799000025,MO,FALSE,,,,,,,64,moneda,Spanish,Sounds/spa_moneda.mp3,2020-06-05_16h22.32.021,TranslationElicitation_eng-prolific,3.2.4,Win32,60,5eb3c2e29eb7cb1a6d8054bc,,1,0,98,60,1,97
,,,,,,,,,,,,,,,,,,,,,,,,,,,,,,,,,,,,,,,,,n,2.016000032,MON,FALSE,,,,,,,64,moneda,Spanish,Sounds/spa_moneda.mp3,2020-06-05_16h22.32.021,TranslationElicitation_eng-prolific,3.2.4,Win32,60,5eb3c2e29eb7cb1a6d8054bc,,1,0,98,60,1,97
,,,,,,,,,,,,,,,,,,,,,,,,,,,,,,,,,,,,,,,,,e,2.115999937,MONE,FALSE,,,,,,,64,moneda,Spanish,Sounds/spa_moneda.mp3,2020-06-05_16h22.32.021,TranslationElicitation_eng-prolific,3.2.4,Win32,60,5eb3c2e29eb7cb1a6d8054bc,,1,0,98,60,1,97
,,,,,,,,,,,,,,,,,,,,,,,,,,,,,,,,,,,,,,,,,y,2.365999937,MONEY,FALSE,,,,,,,64,moneda,Spanish,Sounds/spa_moneda.mp3,2020-06-05_16h22.32.021,TranslationElicitation_eng-prolific,3.2.4,Win32,60,5eb3c2e29eb7cb1a6d8054bc,,1,0,98,60,1,97
,,,,,,,,,,,,,,,,,,,,,,,,,,,,,,,,,,,,,,,,,return,2.615999937,MONEY,FALSE,,,,,,,64,moneda,Spanish,Sounds/spa_moneda.mp3,2020-06-05_16h22.32.021,TranslationElicitation_eng-prolific,3.2.4,Win32,60,5eb3c2e29eb7cb1a6d8054bc,2.615999937,1,0,98,60,1,97
,,,,,,,,,,,,,,,,,,,,,,,,,,,,,,,,,,,,,,,,,,,,,,,,,,,64,moneda,Spanish,Sounds/spa_moneda.mp3,2020-06-05_16h22.32.021,TranslationElicitation_eng-prolific,3.2.4,Win32,60,5eb3c2e29eb7cb1a6d8054bc,,1,0,98,60,1,97
,,,,,,,,,,,,,,,,,,,,,,,,,,,,,,,,,,,,,,,,,return,1.884000063,,FALSE,,,,,,,17,calcetin,Spanish,Sounds/spa_calcetin.mp3,2020-06-05_16h22.32.021,TranslationElicitation_eng-prolific,3.2.4,Win32,60,5eb3c2e29eb7cb1a6d8054bc,1.884000063,1,0,98,15,1,97
,,,,,,,,,,,,,,,,,,,,,,,,,,,,,,,,,,,,,,,,,,,,,,,,,,,17,calcetin,Spanish,Sounds/spa_calcetin.mp3,2020-06-05_16h22.32.021,TranslationElicitation_eng-prolific,3.2.4,Win32,60,5eb3c2e29eb7cb1a6d8054bc,,1,0,98,15,1,97
,,,,,,,,,,,,,,,,,,,,,,,,,,,,,,,,,,,,,,,,,return,1.799999952,,FALSE,,,,,,,33,dedo,Spanish,Sounds/spa_dedo.mp3,2020-06-05_16h22.32.021,TranslationElicitation_eng-prolific,3.2.4,Win32,60,5eb3c2e29eb7cb1a6d8054bc,1.799999952,1,0,98,29,1,97
,,,,,,,,,,,,,,,,,,,,,,,,,,,,,,,,,,,,,,,,,,,,,,,,,,,33,dedo,Spanish,Sounds/spa_dedo.mp3,2020-06-05_16h22.32.021,TranslationElicitation_eng-prolific,3.2.4,Win32,60,5eb3c2e29eb7cb1a6d8054bc,,1,0,98,29,1,97
,,,,,,,,,,,,,,,,,,,,,,,,,,,,,,,,,,,,,,,,,return,2.932999849,,FALSE,,,,,,,91,puerta,Spanish,Sounds/spa_puerta.mp3,2020-06-05_16h22.32.021,TranslationElicitation_eng-prolific,3.2.4,Win32,60,5eb3c2e29eb7cb1a6d8054bc,2.932999849,1,0,98,86,1,97
,,,,,,,,,,,,,,,,,,,,,,,,,,,,,,,,,,,,,,,,,,,,,,,,,,,91,puerta,Spanish,Sounds/spa_puerta.mp3,2020-06-05_16h22.32.021,TranslationElicitation_eng-prolific,3.2.4,Win32,60,5eb3c2e29eb7cb1a6d8054bc,,1,0,98,86,1,97
,,,,,,,,,,,,,,,,,,,,,,,,,,,,,,,,,,,,,,,,,return,4.333000183,,FALSE,,,,,,,61,mariposa,Spanish,Sounds/spa_mariposa.mp3,2020-06-05_16h22.32.021,TranslationElicitation_eng-prolific,3.2.4,Win32,60,5eb3c2e29eb7cb1a6d8054bc,4.333000183,1,0,98,57,1,97
,,,,,,,,,,,,,,,,,,,,,,,,,,,,,,,,,,,,,,,,,,,,,,,,,,,61,mariposa,Spanish,Sounds/spa_mariposa.mp3,2020-06-05_16h22.32.021,TranslationElicitation_eng-prolific,3.2.4,Win32,60,5eb3c2e29eb7cb1a6d8054bc,,1,0,98,57,1,97
,,,,,,,,,,,,,,,,,,,,,,,,,,,,,,,,,,,,,,,,,p,4.217000008,P,FALSE,,,,,,,90,pollo,Spanish,Sounds/spa_pollo.mp3,2020-06-05_16h22.32.021,TranslationElicitation_eng-prolific,3.2.4,Win32,60,5eb3c2e29eb7cb1a6d8054bc,,1,0,98,85,1,97
,,,,,,,,,,,,,,,,,,,,,,,,,,,,,,,,,,,,,,,,,l,4.416999817,PL,FALSE,,,,,,,90,pollo,Spanish,Sounds/spa_pollo.mp3,2020-06-05_16h22.32.021,TranslationElicitation_eng-prolific,3.2.4,Win32,60,5eb3c2e29eb7cb1a6d8054bc,,1,0,98,85,1,97
,,,,,,,,,,,,,,,,,,,,,,,,,,,,,,,,,,,,,,,,,a,4.75,PLA,FALSE,,,,,,,90,pollo,Spanish,Sounds/spa_pollo.mp3,2020-06-05_16h22.32.021,TranslationElicitation_eng-prolific,3.2.4,Win32,60,5eb3c2e29eb7cb1a6d8054bc,,1,0,98,85,1,97
,,,,,,,,,,,,,,,,,,,,,,,,,,,,,,,,,,,,,,,,,y,5.082999945,PLAY,FALSE,,,,,,,90,pollo,Spanish,Sounds/spa_pollo.mp3,2020-06-05_16h22.32.021,TranslationElicitation_eng-prolific,3.2.4,Win32,60,5eb3c2e29eb7cb1a6d8054bc,,1,0,98,85,1,97
,,,,,,,,,,,,,,,,,,,,,,,,,,,,,,,,,,,,,,,,,return,5.349999905,PLAY,FALSE,,,,,,,90,pollo,Spanish,Sounds/spa_pollo.mp3,2020-06-05_16h22.32.021,TranslationElicitation_eng-prolific,3.2.4,Win32,60,5eb3c2e29eb7cb1a6d8054bc,5.349999905,1,0,98,85,1,97
,,,,,,,,,,,,,,,,,,,,,,,,,,,,,,,,,,,,,,,,,,,,,,,,,,,90,pollo,Spanish,Sounds/spa_pollo.mp3,2020-06-05_16h22.32.021,TranslationElicitation_eng-prolific,3.2.4,Win32,60,5eb3c2e29eb7cb1a6d8054bc,,1,0,98,85,1,97
,,,,,,,,,,,,,,,,,,,,,,,,,,,,,,,,,,,,,,,,,return,4.198999882,,FALSE,,,,,,,10,botella,Spanish,Sounds/spa_botella.mp3,2020-06-05_16h22.32.021,TranslationElicitation_eng-prolific,3.2.4,Win32,60,5eb3c2e29eb7cb1a6d8054bc,4.198999882,1,0,98,8,1,97
,,,,,,,,,,,,,,,,,,,,,,,,,,,,,,,,,,,,,,,,,,,,,,,,,,,10,botella,Spanish,Sounds/spa_botella.mp3,2020-06-05_16h22.32.021,TranslationElicitation_eng-prolific,3.2.4,Win32,60,5eb3c2e29eb7cb1a6d8054bc,,1,0,98,8,1,97
,,,,,,,,,,,,,,,,,,,,,,,,,,,,,,,,,,,,,,,,,t,2.683000088,T,FALSE,,,,,,,94,tambor,Spanish,Sounds/spa_tambor.mp3,2020-06-05_16h22.32.021,TranslationElicitation_eng-prolific,3.2.4,Win32,60,5eb3c2e29eb7cb1a6d8054bc,,1,0,98,89,1,97
,,,,,,,,,,,,,,,,,,,,,,,,,,,,,,,,,,,,,,,,,a,2.967000008,TA,FALSE,,,,,,,94,tambor,Spanish,Sounds/spa_tambor.mp3,2020-06-05_16h22.32.021,TranslationElicitation_eng-prolific,3.2.4,Win32,60,5eb3c2e29eb7cb1a6d8054bc,,1,0,98,89,1,97
,,,,,,,,,,,,,,,,,,,,,,,,,,,,,,,,,,,,,,,,,m,3.117000103,TAM,FALSE,,,,,,,94,tambor,Spanish,Sounds/spa_tambor.mp3,2020-06-05_16h22.32.021,TranslationElicitation_eng-prolific,3.2.4,Win32,60,5eb3c2e29eb7cb1a6d8054bc,,1,0,98,89,1,97
,,,,,,,,,,,,,,,,,,,,,,,,,,,,,,,,,,,,,,,,,b,3.384000063,TAMB,FALSE,,,,,,,94,tambor,Spanish,Sounds/spa_tambor.mp3,2020-06-05_16h22.32.021,TranslationElicitation_eng-prolific,3.2.4,Win32,60,5eb3c2e29eb7cb1a6d8054bc,,1,0,98,89,1,97
,,,,,,,,,,,,,,,,,,,,,,,,,,,,,,,,,,,,,,,,,o,3.467000008,TAMBO,FALSE,,,,,,,94,tambor,Spanish,Sounds/spa_tambor.mp3,2020-06-05_16h22.32.021,TranslationElicitation_eng-prolific,3.2.4,Win32,60,5eb3c2e29eb7cb1a6d8054bc,,1,0,98,89,1,97
,,,,,,,,,,,,,,,,,,,,,,,,,,,,,,,,,,,,,,,,,r,3.683000088,TAMBOR,FALSE,,,,,,,94,tambor,Spanish,Sounds/spa_tambor.mp3,2020-06-05_16h22.32.021,TranslationElicitation_eng-prolific,3.2.4,Win32,60,5eb3c2e29eb7cb1a6d8054bc,,1,0,98,89,1,97
,,,,,,,,,,,,,,,,,,,,,,,,,,,,,,,,,,,,,,,,,i,3.73300004,TAMBORI,FALSE,,,,,,,94,tambor,Spanish,Sounds/spa_tambor.mp3,2020-06-05_16h22.32.021,TranslationElicitation_eng-prolific,3.2.4,Win32,60,5eb3c2e29eb7cb1a6d8054bc,,1,0,98,89,1,97
,,,,,,,,,,,,,,,,,,,,,,,,,,,,,,,,,,,,,,,,,n,3.917000055,TAMBORIN,FALSE,,,,,,,94,tambor,Spanish,Sounds/spa_tambor.mp3,2020-06-05_16h22.32.021,TranslationElicitation_eng-prolific,3.2.4,Win32,60,5eb3c2e29eb7cb1a6d8054bc,,1,0,98,89,1,97
,,,,,,,,,,,,,,,,,,,,,,,,,,,,,,,,,,,,,,,,,e,4,TAMBORINE,FALSE,,,,,,,94,tambor,Spanish,Sounds/spa_tambor.mp3,2020-06-05_16h22.32.021,TranslationElicitation_eng-prolific,3.2.4,Win32,60,5eb3c2e29eb7cb1a6d8054bc,,1,0,98,89,1,97
,,,,,,,,,,,,,,,,,,,,,,,,,,,,,,,,,,,,,,,,,return,4.384000063,TAMBORINE,FALSE,,,,,,,94,tambor,Spanish,Sounds/spa_tambor.mp3,2020-06-05_16h22.32.021,TranslationElicitation_eng-prolific,3.2.4,Win32,60,5eb3c2e29eb7cb1a6d8054bc,4.384000063,1,0,98,89,1,97
,,,,,,,,,,,,,,,,,,,,,,,,,,,,,,,,,,,,,,,,,,,,,,,,,,,94,tambor,Spanish,Sounds/spa_tambor.mp3,2020-06-05_16h22.32.021,TranslationElicitation_eng-prolific,3.2.4,Win32,60,5eb3c2e29eb7cb1a6d8054bc,,1,0,98,89,1,97
,,,,,,,,,,,,,,,,,,,,,,,,,,,,,,,,,,,,,,,,,s,2.26699996,S,FALSE,,,,,,,25,cesta,Spanish,Sounds/spa_cesta.mp3,2020-06-05_16h22.32.021,TranslationElicitation_eng-prolific,3.2.4,Win32,60,5eb3c2e29eb7cb1a6d8054bc,,1,0,98,23,1,97
,,,,,,,,,,,,,,,,,,,,,,,,,,,,,,,,,,,,,,,,,l,2.382999897,SL,FALSE,,,,,,,25,cesta,Spanish,Sounds/spa_cesta.mp3,2020-06-05_16h22.32.021,TranslationElicitation_eng-prolific,3.2.4,Win32,60,5eb3c2e29eb7cb1a6d8054bc,,1,0,98,23,1,97
,,,,,,,,,,,,,,,,,,,,,,,,,,,,,,,,,,,,,,,,,e,2.48300004,SLE,FALSE,,,,,,,25,cesta,Spanish,Sounds/spa_cesta.mp3,2020-06-05_16h22.32.021,TranslationElicitation_eng-prolific,3.2.4,Win32,60,5eb3c2e29eb7cb1a6d8054bc,,1,0,98,23,1,97
,,,,,,,,,,,,,,,,,,,,,,,,,,,,,,,,,,,,,,,,,e,2.648999929,SLEE,FALSE,,,,,,,25,cesta,Spanish,Sounds/spa_cesta.mp3,2020-06-05_16h22.32.021,TranslationElicitation_eng-prolific,3.2.4,Win32,60,5eb3c2e29eb7cb1a6d8054bc,,1,0,98,23,1,97
,,,,,,,,,,,,,,,,,,,,,,,,,,,,,,,,,,,,,,,,,p,2.75,SLEEP,FALSE,,,,,,,25,cesta,Spanish,Sounds/spa_cesta.mp3,2020-06-05_16h22.32.021,TranslationElicitation_eng-prolific,3.2.4,Win32,60,5eb3c2e29eb7cb1a6d8054bc,,1,0,98,23,1,97
,,,,,,,,,,,,,,,,,,,,,,,,,,,,,,,,,,,,,,,,,return,2.933000088,SLEEP,FALSE,,,,,,,25,cesta,Spanish,Sounds/spa_cesta.mp3,2020-06-05_16h22.32.021,TranslationElicitation_eng-prolific,3.2.4,Win32,60,5eb3c2e29eb7cb1a6d8054bc,2.933000088,1,0,98,23,1,97
,,,,,,,,,,,,,,,,,,,,,,,,,,,,,,,,,,,,,,,,,,,,,,,,,,,25,cesta,Spanish,Sounds/spa_cesta.mp3,2020-06-05_16h22.32.021,TranslationElicitation_eng-prolific,3.2.4,Win32,60,5eb3c2e29eb7cb1a6d8054bc,,1,0,98,23,1,97
,,,,,,,,,,,,,,,,,,,,,,,,,,,,,,,,,,,,,,,,,return,2.332999945,,FALSE,,,,,,,35,esponja,Spanish,Sounds/spa_esponja.mp3,2020-06-05_16h22.32.021,TranslationElicitation_eng-prolific,3.2.4,Win32,60,5eb3c2e29eb7cb1a6d8054bc,2.332999945,1,0,98,31,1,97
,,,,,,,,,,,,,,,,,,,,,,,,,,,,,,,,,,,,,,,,,,,,,,,,,,,35,esponja,Spanish,Sounds/spa_esponja.mp3,2020-06-05_16h22.32.021,TranslationElicitation_eng-prolific,3.2.4,Win32,60,5eb3c2e29eb7cb1a6d8054bc,,1,0,98,31,1,97
,,,,,,,,,,,,,,,,,,,,,,,,,,,,,,,,,,,,,,,,,p,3.23300004,P,FALSE,,,,,,,9,boli,Spanish,Sounds/spa_boli.mp3,2020-06-05_16h22.32.021,TranslationElicitation_eng-prolific,3.2.4,Win32,60,5eb3c2e29eb7cb1a6d8054bc,,1,0,98,7,1,97
,,,,,,,,,,,,,,,,,,,,,,,,,,,,,,,,,,,,,,,,,o,3.450000048,PO,FALSE,,,,,,,9,boli,Spanish,Sounds/spa_boli.mp3,2020-06-05_16h22.32.021,TranslationElicitation_eng-prolific,3.2.4,Win32,60,5eb3c2e29eb7cb1a6d8054bc,,1,0,98,7,1,97
,,,,,,,,,,,,,,,,,,,,,,,,,,,,,,,,,,,,,,,,,o,3.549000025,POO,FALSE,,,,,,,9,boli,Spanish,Sounds/spa_boli.mp3,2020-06-05_16h22.32.021,TranslationElicitation_eng-prolific,3.2.4,Win32,60,5eb3c2e29eb7cb1a6d8054bc,,1,0,98,7,1,97
,,,,,,,,,,,,,,,,,,,,,,,,,,,,,,,,,,,,,,,,,r,3.832999945,POOR,FALSE,,,,,,,9,boli,Spanish,Sounds/spa_boli.mp3,2020-06-05_16h22.32.021,TranslationElicitation_eng-prolific,3.2.4,Win32,60,5eb3c2e29eb7cb1a6d8054bc,,1,0,98,7,1,97
,,,,,,,,,,,,,,,,,,,,,,,,,,,,,,,,,,,,,,,,,l,3.915999889,POORL,FALSE,,,,,,,9,boli,Spanish,Sounds/spa_boli.mp3,2020-06-05_16h22.32.021,TranslationElicitation_eng-prolific,3.2.4,Win32,60,5eb3c2e29eb7cb1a6d8054bc,,1,0,98,7,1,97
,,,,,,,,,,,,,,,,,,,,,,,,,,,,,,,,,,,,,,,,,y,4.167000055,POORLY,FALSE,,,,,,,9,boli,Spanish,Sounds/spa_boli.mp3,2020-06-05_16h22.32.021,TranslationElicitation_eng-prolific,3.2.4,Win32,60,5eb3c2e29eb7cb1a6d8054bc,,1,0,98,7,1,97
,,,,,,,,,,,,,,,,,,,,,,,,,,,,,,,,,,,,,,,,,return,4.549999952,POORLY,FALSE,,,,,,,9,boli,Spanish,Sounds/spa_boli.mp3,2020-06-05_16h22.32.021,TranslationElicitation_eng-prolific,3.2.4,Win32,60,5eb3c2e29eb7cb1a6d8054bc,4.549999952,1,0,98,7,1,97
,,,,,,,,,,,,,,,,,,,,,,,,,,,,,,,,,,,,,,,,,,,,,,,,,,,9,boli,Spanish,Sounds/spa_boli.mp3,2020-06-05_16h22.32.021,TranslationElicitation_eng-prolific,3.2.4,Win32,60,5eb3c2e29eb7cb1a6d8054bc,,1,0,98,7,1,97
,,,,,,,,,,,,,,,,,,,,,,,,,,,,,,,,,,,,,,,,,return,1.549999952,,FALSE,,,,,,,24,cereza,Spanish,Sounds/spa_cereza.mp3,2020-06-05_16h22.32.021,TranslationElicitation_eng-prolific,3.2.4,Win32,60,5eb3c2e29eb7cb1a6d8054bc,1.549999952,1,0,98,22,1,97
,,,,,,,,,,,,,,,,,,,,,,,,,,,,,,,,,,,,,,,,,,,,,,,,,,,24,cereza,Spanish,Sounds/spa_cereza.mp3,2020-06-05_16h22.32.021,TranslationElicitation_eng-prolific,3.2.4,Win32,60,5eb3c2e29eb7cb1a6d8054bc,,1,0,98,22,1,97
,,,,,,,,,,,,,,,,,,,,,,,,,,,,,,,,,,,,,,,,,return,2.381999969,,FALSE,,,,,,,71,ombligo,Spanish,Sounds/spa_ombligo.mp3,2020-06-05_16h22.32.021,TranslationElicitation_eng-prolific,3.2.4,Win32,60,5eb3c2e29eb7cb1a6d8054bc,2.381999969,1,0,98,66,1,97
,,,,,,,,,,,,,,,,,,,,,,,,,,,,,,,,,,,,,,,,,,,,,,,,,,,71,ombligo,Spanish,Sounds/spa_ombligo.mp3,2020-06-05_16h22.32.021,TranslationElicitation_eng-prolific,3.2.4,Win32,60,5eb3c2e29eb7cb1a6d8054bc,,1,0,98,66,1,97
,,,,,,,,,,,,,,,,,,,,,,,,,,,,,,,,,,,,,,,,,f,1.800000191,F,FALSE,,,,,,,84,pie,Spanish,Sounds/spa_pie.mp3,2020-06-05_16h22.32.021,TranslationElicitation_eng-prolific,3.2.4,Win32,60,5eb3c2e29eb7cb1a6d8054bc,,1,0,98,79,1,97
,,,,,,,,,,,,,,,,,,,,,,,,,,,,,,,,,,,,,,,,,r,2.01699996,FR,FALSE,,,,,,,84,pie,Spanish,Sounds/spa_pie.mp3,2020-06-05_16h22.32.021,TranslationElicitation_eng-prolific,3.2.4,Win32,60,5eb3c2e29eb7cb1a6d8054bc,,1,0,98,79,1,97
,,,,,,,,,,,,,,,,,,,,,,,,,,,,,,,,,,,,,,,,,i,2.100000143,FRI,FALSE,,,,,,,84,pie,Spanish,Sounds/spa_pie.mp3,2020-06-05_16h22.32.021,TranslationElicitation_eng-prolific,3.2.4,Win32,60,5eb3c2e29eb7cb1a6d8054bc,,1,0,98,79,1,97
,,,,,,,,,,,,,,,,,,,,,,,,,,,,,,,,,,,,,,,,,e,2.26699996,FRIE,FALSE,,,,,,,84,pie,Spanish,Sounds/spa_pie.mp3,2020-06-05_16h22.32.021,TranslationElicitation_eng-prolific,3.2.4,Win32,60,5eb3c2e29eb7cb1a6d8054bc,,1,0,98,79,1,97
