consentKey.keys,consentKey.rt,languageL1Key.keys,languageL1Key.rt,languageL2,languageL2OralKey.keys,languageL2OralKey.rt,languageL2WrittenKey.keys,languageL2WrittenKey.rt,languageL3OralKey.keys,languageL3OralKey.rt,languageL3WrittenKey.keys,languageL3WrittenKey.rt,languageCatalanOralKey.keys,languageCatalanOralKey.rt,languageCatalanWrittenKey.keys,languageCatalanWrittenKey.rt,languageCatalanTimeKey.keys,languageCatalanTimeKey.rt,languageSpanishOralKey.keys,languageSpanishOralKey.rt,languageSpanishWrittenKey.keys,languageSpanishWrittenKey.rt,languageSpanishTimeKey.keys,languageSpanishTimeKey.rt,age,demoSexKey.keys,demoSexKey.rt,demoEducationKey.keys,demoEducationKey.rt,city,demoVisionKey.keys,demoVisionKey.rt,demoLanguageKey.keys,demoLanguageKey.rt,setupLocationKey.keys,setupLocationKey.rt,setupNoiseKey.keys,setupNoiseKey.rt,instructionsKeys.keys,instructionsKeys.rt,keyPressed,keyPressTime,inputText,error,trialsPracticeCatalan.thisRepN,trialsPracticeCatalan.thisTrialN,trialsPracticeCatalan.thisN,trialsPracticeCatalan.thisIndex,trialsPracticeCatalan.ran,trialsPracticeCatalan.order,trial_id,word,test_language,soundfile,date,expName,psychopyVersion,OS,frameRate,participant,trialOffset,trialsCatalan.thisRepN,trialsCatalan.thisTrialN,trialsCatalan.thisN,trialsCatalan.thisIndex,trialsCatalan.ran,trialsCatalan.order
space,1.203000307,e,1.802000046,,,,,,,,,,1,2.845000029,1,1.78000021,1,1.36500001,1,1.14199996,1,1.177000046,1,1.018000126,22,f,1.13100028,4,1.463000298,COLCHESTER,y,2.748000145,n,1.68900013,1,1.478000164,1,0.950000048,space,3.228000164,c,2.867000103,C,FALSE,1,0,5,0,1,4,109,arbre,Catalan,Sounds/cat_arbre.mp3,2020-06-08_18h24.16.200,TranslationElicitation_eng-prolific,3.2.4,MacIntel,60,5eb450d3f625d5290ee37303,,,,,,,
,,,,,,,,,,,,,,,,,,,,,,,,,,,,,,,,,,,,,,,,,a,3.567000151,CA,FALSE,1,0,5,0,1,4,109,arbre,Catalan,Sounds/cat_arbre.mp3,2020-06-08_18h24.16.200,TranslationElicitation_eng-prolific,3.2.4,MacIntel,60,5eb450d3f625d5290ee37303,,,,,,,
,,,,,,,,,,,,,,,,,,,,,,,,,,,,,,,,,,,,,,,,,r,3.865999937,CAR,FALSE,1,0,5,0,1,4,109,arbre,Catalan,Sounds/cat_arbre.mp3,2020-06-08_18h24.16.200,TranslationElicitation_eng-prolific,3.2.4,MacIntel,60,5eb450d3f625d5290ee37303,,,,,,,
,,,,,,,,,,,,,,,,,,,,,,,,,,,,,,,,,,,,,,,,,d,4.065999985,CARD,FALSE,1,0,5,0,1,4,109,arbre,Catalan,Sounds/cat_arbre.mp3,2020-06-08_18h24.16.200,TranslationElicitation_eng-prolific,3.2.4,MacIntel,60,5eb450d3f625d5290ee37303,,,,,,,
,,,,,,,,,,,,,,,,,,,,,,,,,,,,,,,,,,,,,,,,,i,4.315999985,CARDI,FALSE,1,0,5,0,1,4,109,arbre,Catalan,Sounds/cat_arbre.mp3,2020-06-08_18h24.16.200,TranslationElicitation_eng-prolific,3.2.4,MacIntel,60,5eb450d3f625d5290ee37303,,,,,,,
,,,,,,,,,,,,,,,,,,,,,,,,,,,,,,,,,,,,,,,,,g,5.032999992,CARDIG,FALSE,1,0,5,0,1,4,109,arbre,Catalan,Sounds/cat_arbre.mp3,2020-06-08_18h24.16.200,TranslationElicitation_eng-prolific,3.2.4,MacIntel,60,5eb450d3f625d5290ee37303,,,,,,,
,,,,,,,,,,,,,,,,,,,,,,,,,,,,,,,,,,,,,,,,,a,5.131999969,CARDIGA,FALSE,1,0,5,0,1,4,109,arbre,Catalan,Sounds/cat_arbre.mp3,2020-06-08_18h24.16.200,TranslationElicitation_eng-prolific,3.2.4,MacIntel,60,5eb450d3f625d5290ee37303,,,,,,,
,,,,,,,,,,,,,,,,,,,,,,,,,,,,,,,,,,,,,,,,,n,5.25,CARDIGAN,FALSE,1,0,5,0,1,4,109,arbre,Catalan,Sounds/cat_arbre.mp3,2020-06-08_18h24.16.200,TranslationElicitation_eng-prolific,3.2.4,MacIntel,60,5eb450d3f625d5290ee37303,,,,,,,
,,,,,,,,,,,,,,,,,,,,,,,,,,,,,,,,,,,,,,,,,return,5.53399992,CARDIGAN,FALSE,1,0,5,0,1,4,109,arbre,Catalan,Sounds/cat_arbre.mp3,2020-06-08_18h24.16.200,TranslationElicitation_eng-prolific,3.2.4,MacIntel,60,5eb450d3f625d5290ee37303,5.53399992,,,,,,
,,,,,,,,,,,,,,,,,,,,,,,,,,,,,,,,,,,,,,,,,,,,,1,0,5,0,1,4,109,arbre,Catalan,Sounds/cat_arbre.mp3,2020-06-08_18h24.16.200,TranslationElicitation_eng-prolific,3.2.4,MacIntel,60,5eb450d3f625d5290ee37303,,,,,,,
,,,,,,,,,,,,,,,,,,,,,,,,,,,,,,,,,,,,,,,,,i,1.599000216,I,FALSE,1,0,5,4,1,4,179,tigre,Catalan,Sounds/cat_tigre.mp3,2020-06-08_18h24.16.200,TranslationElicitation_eng-prolific,3.2.4,MacIntel,60,5eb450d3f625d5290ee37303,,,,,,,
,,,,,,,,,,,,,,,,,,,,,,,,,,,,,,,,,,,,,,,,,g,1.799000025,IG,FALSE,1,0,5,4,1,4,179,tigre,Catalan,Sounds/cat_tigre.mp3,2020-06-08_18h24.16.200,TranslationElicitation_eng-prolific,3.2.4,MacIntel,60,5eb450d3f625d5290ee37303,,,,,,,
,,,,,,,,,,,,,,,,,,,,,,,,,,,,,,,,,,,,,,,,,backspace,2.23300004,I,TRUE,1,0,5,4,1,4,179,tigre,Catalan,Sounds/cat_tigre.mp3,2020-06-08_18h24.16.200,TranslationElicitation_eng-prolific,3.2.4,MacIntel,60,5eb450d3f625d5290ee37303,,,,,,,
,,,,,,,,,,,,,,,,,,,,,,,,,,,,,,,,,,,,,,,,,backspace,2.366000175,,TRUE,1,0,5,4,1,4,179,tigre,Catalan,Sounds/cat_tigre.mp3,2020-06-08_18h24.16.200,TranslationElicitation_eng-prolific,3.2.4,MacIntel,60,5eb450d3f625d5290ee37303,,,,,,,
,,,,,,,,,,,,,,,,,,,,,,,,,,,,,,,,,,,,,,,,,t,2.516000032,T,TRUE,1,0,5,4,1,4,179,tigre,Catalan,Sounds/cat_tigre.mp3,2020-06-08_18h24.16.200,TranslationElicitation_eng-prolific,3.2.4,MacIntel,60,5eb450d3f625d5290ee37303,,,,,,,
,,,,,,,,,,,,,,,,,,,,,,,,,,,,,,,,,,,,,,,,,i,2.69900012,TI,TRUE,1,0,5,4,1,4,179,tigre,Catalan,Sounds/cat_tigre.mp3,2020-06-08_18h24.16.200,TranslationElicitation_eng-prolific,3.2.4,MacIntel,60,5eb450d3f625d5290ee37303,,,,,,,
,,,,,,,,,,,,,,,,,,,,,,,,,,,,,,,,,,,,,,,,,g,2.965000153,TIG,TRUE,1,0,5,4,1,4,179,tigre,Catalan,Sounds/cat_tigre.mp3,2020-06-08_18h24.16.200,TranslationElicitation_eng-prolific,3.2.4,MacIntel,60,5eb450d3f625d5290ee37303,,,,,,,
,,,,,,,,,,,,,,,,,,,,,,,,,,,,,,,,,,,,,,,,,e,3.150000095,TIGE,TRUE,1,0,5,4,1,4,179,tigre,Catalan,Sounds/cat_tigre.mp3,2020-06-08_18h24.16.200,TranslationElicitation_eng-prolific,3.2.4,MacIntel,60,5eb450d3f625d5290ee37303,,,,,,,
,,,,,,,,,,,,,,,,,,,,,,,,,,,,,,,,,,,,,,,,,r,3.215000153,TIGER,TRUE,1,0,5,4,1,4,179,tigre,Catalan,Sounds/cat_tigre.mp3,2020-06-08_18h24.16.200,TranslationElicitation_eng-prolific,3.2.4,MacIntel,60,5eb450d3f625d5290ee37303,,,,,,,
,,,,,,,,,,,,,,,,,,,,,,,,,,,,,,,,,,,,,,,,,return,3.400000095,TIGER,TRUE,1,0,5,4,1,4,179,tigre,Catalan,Sounds/cat_tigre.mp3,2020-06-08_18h24.16.200,TranslationElicitation_eng-prolific,3.2.4,MacIntel,60,5eb450d3f625d5290ee37303,3.400000095,,,,,,
,,,,,,,,,,,,,,,,,,,,,,,,,,,,,,,,,,,,,,,,,,,,,1,0,5,4,1,4,179,tigre,Catalan,Sounds/cat_tigre.mp3,2020-06-08_18h24.16.200,TranslationElicitation_eng-prolific,3.2.4,MacIntel,60,5eb450d3f625d5290ee37303,,,,,,,
,,,,,,,,,,,,,,,,,,,,,,,,,,,,,,,,,,,,,,,,,o,4.667000055,O,FALSE,1,0,5,3,1,4,159,onada,Catalan,Sounds/cat_onada.mp3,2020-06-08_18h24.16.200,TranslationElicitation_eng-prolific,3.2.4,MacIntel,60,5eb450d3f625d5290ee37303,,,,,,,
,,,,,,,,,,,,,,,,,,,,,,,,,,,,,,,,,,,,,,,,,n,4.76699996,ON,FALSE,1,0,5,3,1,4,159,onada,Catalan,Sounds/cat_onada.mp3,2020-06-08_18h24.16.200,TranslationElicitation_eng-prolific,3.2.4,MacIntel,60,5eb450d3f625d5290ee37303,,,,,,,
,,,,,,,,,,,,,,,,,,,,,,,,,,,,,,,,,,,,,,,,,e,4.967000008,ONE,FALSE,1,0,5,3,1,4,159,onada,Catalan,Sounds/cat_onada.mp3,2020-06-08_18h24.16.200,TranslationElicitation_eng-prolific,3.2.4,MacIntel,60,5eb450d3f625d5290ee37303,,,,,,,
,,,,,,,,,,,,,,,,,,,,,,,,,,,,,,,,,,,,,,,,,return,5.068000078,ONE,FALSE,1,0,5,3,1,4,159,onada,Catalan,Sounds/cat_onada.mp3,2020-06-08_18h24.16.200,TranslationElicitation_eng-prolific,3.2.4,MacIntel,60,5eb450d3f625d5290ee37303,5.068000078,,,,,,
,,,,,,,,,,,,,,,,,,,,,,,,,,,,,,,,,,,,,,,,,,,,,1,0,5,3,1,4,159,onada,Catalan,Sounds/cat_onada.mp3,2020-06-08_18h24.16.200,TranslationElicitation_eng-prolific,3.2.4,MacIntel,60,5eb450d3f625d5290ee37303,,,,,,,
,,,,,,,,,,,,,,,,,,,,,,,,,,,,,,,,,,,,,,,,,j,1.21600008,J,FALSE,1,0,5,2,1,4,147,jaqueta,Catalan,Sounds/cat_jaqueta.mp3,2020-06-08_18h24.16.200,TranslationElicitation_eng-prolific,3.2.4,MacIntel,60,5eb450d3f625d5290ee37303,,,,,,,
,,,,,,,,,,,,,,,,,,,,,,,,,,,,,,,,,,,,,,,,,a,1.334000111,JA,FALSE,1,0,5,2,1,4,147,jaqueta,Catalan,Sounds/cat_jaqueta.mp3,2020-06-08_18h24.16.200,TranslationElicitation_eng-prolific,3.2.4,MacIntel,60,5eb450d3f625d5290ee37303,,,,,,,
,,,,,,,,,,,,,,,,,,,,,,,,,,,,,,,,,,,,,,,,,c,1.583000183,JAC,FALSE,1,0,5,2,1,4,147,jaqueta,Catalan,Sounds/cat_jaqueta.mp3,2020-06-08_18h24.16.200,TranslationElicitation_eng-prolific,3.2.4,MacIntel,60,5eb450d3f625d5290ee37303,,,,,,,
,,,,,,,,,,,,,,,,,,,,,,,,,,,,,,,,,,,,,,,,,k,2.184000015,JACK,FALSE,1,0,5,2,1,4,147,jaqueta,Catalan,Sounds/cat_jaqueta.mp3,2020-06-08_18h24.16.200,TranslationElicitation_eng-prolific,3.2.4,MacIntel,60,5eb450d3f625d5290ee37303,,,,,,,
,,,,,,,,,,,,,,,,,,,,,,,,,,,,,,,,,,,,,,,,,e,2.282999992,JACKE,FALSE,1,0,5,2,1,4,147,jaqueta,Catalan,Sounds/cat_jaqueta.mp3,2020-06-08_18h24.16.200,TranslationElicitation_eng-prolific,3.2.4,MacIntel,60,5eb450d3f625d5290ee37303,,,,,,,
,,,,,,,,,,,,,,,,,,,,,,,,,,,,,,,,,,,,,,,,,t,2.417000055,JACKET,FALSE,1,0,5,2,1,4,147,jaqueta,Catalan,Sounds/cat_jaqueta.mp3,2020-06-08_18h24.16.200,TranslationElicitation_eng-prolific,3.2.4,MacIntel,60,5eb450d3f625d5290ee37303,,,,,,,
,,,,,,,,,,,,,,,,,,,,,,,,,,,,,,,,,,,,,,,,,return,2.634000063,JACKET,FALSE,1,0,5,2,1,4,147,jaqueta,Catalan,Sounds/cat_jaqueta.mp3,2020-06-08_18h24.16.200,TranslationElicitation_eng-prolific,3.2.4,MacIntel,60,5eb450d3f625d5290ee37303,2.634000063,,,,,,
,,,,,,,,,,,,,,,,,,,,,,,,,,,,,,,,,,,,,,,,,,,,,1,0,5,2,1,4,147,jaqueta,Catalan,Sounds/cat_jaqueta.mp3,2020-06-08_18h24.16.200,TranslationElicitation_eng-prolific,3.2.4,MacIntel,60,5eb450d3f625d5290ee37303,,,,,,,
,,,,,,,,,,,,,,,,,,,,,,,,,,,,,,,,,,,,,,,,,c,1.401000023,C,FALSE,1,0,5,1,1,4,126,corona,Catalan,Sounds/cat_corona.mp3,2020-06-08_18h24.16.200,TranslationElicitation_eng-prolific,3.2.4,MacIntel,60,5eb450d3f625d5290ee37303,,,,,,,
,,,,,,,,,,,,,,,,,,,,,,,,,,,,,,,,,,,,,,,,,o,1.616999865,CO,FALSE,1,0,5,1,1,4,126,corona,Catalan,Sounds/cat_corona.mp3,2020-06-08_18h24.16.200,TranslationElicitation_eng-prolific,3.2.4,MacIntel,60,5eb450d3f625d5290ee37303,,,,,,,
,,,,,,,,,,,,,,,,,,,,,,,,,,,,,,,,,,,,,,,,,r,2.101000071,COR,FALSE,1,0,5,1,1,4,126,corona,Catalan,Sounds/cat_corona.mp3,2020-06-08_18h24.16.200,TranslationElicitation_eng-prolific,3.2.4,MacIntel,60,5eb450d3f625d5290ee37303,,,,,,,
,,,,,,,,,,,,,,,,,,,,,,,,,,,,,,,,,,,,,,,,,o,2.467000008,CORO,FALSE,1,0,5,1,1,4,126,corona,Catalan,Sounds/cat_corona.mp3,2020-06-08_18h24.16.200,TranslationElicitation_eng-prolific,3.2.4,MacIntel,60,5eb450d3f625d5290ee37303,,,,,,,
,,,,,,,,,,,,,,,,,,,,,,,,,,,,,,,,,,,,,,,,,n,2.950999975,CORON,FALSE,1,0,5,1,1,4,126,corona,Catalan,Sounds/cat_corona.mp3,2020-06-08_18h24.16.200,TranslationElicitation_eng-prolific,3.2.4,MacIntel,60,5eb450d3f625d5290ee37303,,,,,,,
,,,,,,,,,,,,,,,,,,,,,,,,,,,,,,,,,,,,,,,,,a,3.134000063,CORONA,FALSE,1,0,5,1,1,4,126,corona,Catalan,Sounds/cat_corona.mp3,2020-06-08_18h24.16.200,TranslationElicitation_eng-prolific,3.2.4,MacIntel,60,5eb450d3f625d5290ee37303,,,,,,,
,,,,,,,,,,,,,,,,,,,,,,,,,,,,,,,,,,,,,,,,,v,3.667999983,CORONAV,FALSE,1,0,5,1,1,4,126,corona,Catalan,Sounds/cat_corona.mp3,2020-06-08_18h24.16.200,TranslationElicitation_eng-prolific,3.2.4,MacIntel,60,5eb450d3f625d5290ee37303,,,,,,,
,,,,,,,,,,,,,,,,,,,,,,,,,,,,,,,,,,,,,,,,,i,3.80099988,CORONAVI,FALSE,1,0,5,1,1,4,126,corona,Catalan,Sounds/cat_corona.mp3,2020-06-08_18h24.16.200,TranslationElicitation_eng-prolific,3.2.4,MacIntel,60,5eb450d3f625d5290ee37303,,,,,,,
,,,,,,,,,,,,,,,,,,,,,,,,,,,,,,,,,,,,,,,,,r,3.901000023,CORONAVIR,FALSE,1,0,5,1,1,4,126,corona,Catalan,Sounds/cat_corona.mp3,2020-06-08_18h24.16.200,TranslationElicitation_eng-prolific,3.2.4,MacIntel,60,5eb450d3f625d5290ee37303,,,,,,,
,,,,,,,,,,,,,,,,,,,,,,,,,,,,,,,,,,,,,,,,,u,4.083999872,CORONAVIRU,FALSE,1,0,5,1,1,4,126,corona,Catalan,Sounds/cat_corona.mp3,2020-06-08_18h24.16.200,TranslationElicitation_eng-prolific,3.2.4,MacIntel,60,5eb450d3f625d5290ee37303,,,,,,,
,,,,,,,,,,,,,,,,,,,,,,,,,,,,,,,,,,,,,,,,,s,4.151000023,CORONAVIRUS,FALSE,1,0,5,1,1,4,126,corona,Catalan,Sounds/cat_corona.mp3,2020-06-08_18h24.16.200,TranslationElicitation_eng-prolific,3.2.4,MacIntel,60,5eb450d3f625d5290ee37303,,,,,,,
,,,,,,,,,,,,,,,,,,,,,,,,,,,,,,,,,,,,,,,,,return,4.368000031,CORONAVIRUS,FALSE,1,0,5,1,1,4,126,corona,Catalan,Sounds/cat_corona.mp3,2020-06-08_18h24.16.200,TranslationElicitation_eng-prolific,3.2.4,MacIntel,60,5eb450d3f625d5290ee37303,4.368000031,,,,,,
,,,,,,,,,,,,,,,,,,,,,,,,,,,,,,,,,,,,,,,,,,,,,1,0,5,1,1,4,126,corona,Catalan,Sounds/cat_corona.mp3,2020-06-08_18h24.16.200,TranslationElicitation_eng-prolific,3.2.4,MacIntel,60,5eb450d3f625d5290ee37303,,,,,,,
,,,,,,,,,,,,,,,,,,,,,,,,,,,,,,,,,,,,,,,,,b,4.01699996,B,FALSE,,,,,,,110,berenar,Catalan,Sounds/cat_berenar.mp3,2020-06-08_18h24.16.200,TranslationElicitation_eng-prolific,3.2.4,MacIntel,60,5eb450d3f625d5290ee37303,,1,0,81,5,1,80
,,,,,,,,,,,,,,,,,,,,,,,,,,,,,,,,,,,,,,,,,r,4.182999849,BR,FALSE,,,,,,,110,berenar,Catalan,Sounds/cat_berenar.mp3,2020-06-08_18h24.16.200,TranslationElicitation_eng-prolific,3.2.4,MacIntel,60,5eb450d3f625d5290ee37303,,1,0,81,5,1,80
,,,,,,,,,,,,,,,,,,,,,,,,,,,,,,,,,,,,,,,,,i,4.467000008,BRI,FALSE,,,,,,,110,berenar,Catalan,Sounds/cat_berenar.mp3,2020-06-08_18h24.16.200,TranslationElicitation_eng-prolific,3.2.4,MacIntel,60,5eb450d3f625d5290ee37303,,1,0,81,5,1,80
,,,,,,,,,,,,,,,,,,,,,,,,,,,,,,,,,,,,,,,,,n,4.5,BRIN,FALSE,,,,,,,110,berenar,Catalan,Sounds/cat_berenar.mp3,2020-06-08_18h24.16.200,TranslationElicitation_eng-prolific,3.2.4,MacIntel,60,5eb450d3f625d5290ee37303,,1,0,81,5,1,80
,,,,,,,,,,,,,,,,,,,,,,,,,,,,,,,,,,,,,,,,,backspace,4.883999825,BRI,TRUE,,,,,,,110,berenar,Catalan,Sounds/cat_berenar.mp3,2020-06-08_18h24.16.200,TranslationElicitation_eng-prolific,3.2.4,MacIntel,60,5eb450d3f625d5290ee37303,,1,0,81,5,1,80
,,,,,,,,,,,,,,,,,,,,,,,,,,,,,,,,,,,,,,,,,backspace,5.015999794,BR,TRUE,,,,,,,110,berenar,Catalan,Sounds/cat_berenar.mp3,2020-06-08_18h24.16.200,TranslationElicitation_eng-prolific,3.2.4,MacIntel,60,5eb450d3f625d5290ee37303,,1,0,81,5,1,80
,,,,,,,,,,,,,,,,,,,,,,,,,,,,,,,,,,,,,,,,,a,5.117999792,BRA,TRUE,,,,,,,110,berenar,Catalan,Sounds/cat_berenar.mp3,2020-06-08_18h24.16.200,TranslationElicitation_eng-prolific,3.2.4,MacIntel,60,5eb450d3f625d5290ee37303,,1,0,81,5,1,80
,,,,,,,,,,,,,,,,,,,,,,,,,,,,,,,,,,,,,,,,,i,5.30099988,BRAI,TRUE,,,,,,,110,berenar,Catalan,Sounds/cat_berenar.mp3,2020-06-08_18h24.16.200,TranslationElicitation_eng-prolific,3.2.4,MacIntel,60,5eb450d3f625d5290ee37303,,1,0,81,5,1,80
,,,,,,,,,,,,,,,,,,,,,,,,,,,,,,,,,,,,,,,,,n,5.383999825,BRAIN,TRUE,,,,,,,110,berenar,Catalan,Sounds/cat_berenar.mp3,2020-06-08_18h24.16.200,TranslationElicitation_eng-prolific,3.2.4,MacIntel,60,5eb450d3f625d5290ee37303,,1,0,81,5,1,80
,,,,,,,,,,,,,,,,,,,,,,,,,,,,,,,,,,,,,,,,,return,5.666999817,BRAIN,TRUE,,,,,,,110,berenar,Catalan,Sounds/cat_berenar.mp3,2020-06-08_18h24.16.200,TranslationElicitation_eng-prolific,3.2.4,MacIntel,60,5eb450d3f625d5290ee37303,5.666999817,1,0,81,5,1,80
,,,,,,,,,,,,,,,,,,,,,,,,,,,,,,,,,,,,,,,,,,,,,,,,,,,110,berenar,Catalan,Sounds/cat_berenar.mp3,2020-06-08_18h24.16.200,TranslationElicitation_eng-prolific,3.2.4,MacIntel,60,5eb450d3f625d5290ee37303,,1,0,81,5,1,80
,,,,,,,,,,,,,,,,,,,,,,,,,,,,,,,,,,,,,,,,,b,1.967000008,B,FALSE,,,,,,,106,aixeta,Catalan,Sounds/cat_aixeta.mp3,2020-06-08_18h24.16.200,TranslationElicitation_eng-prolific,3.2.4,MacIntel,60,5eb450d3f625d5290ee37303,,1,0,81,2,1,80
,,,,,,,,,,,,,,,,,,,,,,,,,,,,,,,,,,,,,,,,,r,2.282999992,BR,FALSE,,,,,,,106,aixeta,Catalan,Sounds/cat_aixeta.mp3,2020-06-08_18h24.16.200,TranslationElicitation_eng-prolific,3.2.4,MacIntel,60,5eb450d3f625d5290ee37303,,1,0,81,2,1,80
,,,,,,,,,,,,,,,,,,,,,,,,,,,,,,,,,,,,,,,,,r,2.599999905,BRR,FALSE,,,,,,,106,aixeta,Catalan,Sounds/cat_aixeta.mp3,2020-06-08_18h24.16.200,TranslationElicitation_eng-prolific,3.2.4,MacIntel,60,5eb450d3f625d5290ee37303,,1,0,81,2,1,80
,,,,,,,,,,,,,,,,,,,,,,,,,,,,,,,,,,,,,,,,,u,2.732999802,BRRU,FALSE,,,,,,,106,aixeta,Catalan,Sounds/cat_aixeta.mp3,2020-06-08_18h24.16.200,TranslationElicitation_eng-prolific,3.2.4,MacIntel,60,5eb450d3f625d5290ee37303,,1,0,81,2,1,80
,,,,,,,,,,,,,,,,,,,,,,,,,,,,,,,,,,,,,,,,,s,2.832999945,BRRUS,FALSE,,,,,,,106,aixeta,Catalan,Sounds/cat_aixeta.mp3,2020-06-08_18h24.16.200,TranslationElicitation_eng-prolific,3.2.4,MacIntel,60,5eb450d3f625d5290ee37303,,1,0,81,2,1,80
,,,,,,,,,,,,,,,,,,,,,,,,,,,,,,,,,,,,,,,,,h,2.948999882,BRRUSH,FALSE,,,,,,,106,aixeta,Catalan,Sounds/cat_aixeta.mp3,2020-06-08_18h24.16.200,TranslationElicitation_eng-prolific,3.2.4,MacIntel,60,5eb450d3f625d5290ee37303,,1,0,81,2,1,80
,,,,,,,,,,,,,,,,,,,,,,,,,,,,,,,,,,,,,,,,,backspace,3.299999952,BRRUS,TRUE,,,,,,,106,aixeta,Catalan,Sounds/cat_aixeta.mp3,2020-06-08_18h24.16.200,TranslationElicitation_eng-prolific,3.2.4,MacIntel,60,5eb450d3f625d5290ee37303,,1,0,81,2,1,80
,,,,,,,,,,,,,,,,,,,,,,,,,,,,,,,,,,,,,,,,,backspace,3.431999922,BRRU,TRUE,,,,,,,106,aixeta,Catalan,Sounds/cat_aixeta.mp3,2020-06-08_18h24.16.200,TranslationElicitation_eng-prolific,3.2.4,MacIntel,60,5eb450d3f625d5290ee37303,,1,0,81,2,1,80
,,,,,,,,,,,,,,,,,,,,,,,,,,,,,,,,,,,,,,,,,backspace,3.531999826,BRR,TRUE,,,,,,,106,aixeta,Catalan,Sounds/cat_aixeta.mp3,2020-06-08_18h24.16.200,TranslationElicitation_eng-prolific,3.2.4,MacIntel,60,5eb450d3f625d5290ee37303,,1,0,81,2,1,80
,,,,,,,,,,,,,,,,,,,,,,,,,,,,,,,,,,,,,,,,,backspace,3.632999897,BR,TRUE,,,,,,,106,aixeta,Catalan,Sounds/cat_aixeta.mp3,2020-06-08_18h24.16.200,TranslationElicitation_eng-prolific,3.2.4,MacIntel,60,5eb450d3f625d5290ee37303,,1,0,81,2,1,80
,,,,,,,,,,,,,,,,,,,,,,,,,,,,,,,,,,,,,,,,,u,4.232999802,BRU,TRUE,,,,,,,106,aixeta,Catalan,Sounds/cat_aixeta.mp3,2020-06-08_18h24.16.200,TranslationElicitation_eng-prolific,3.2.4,MacIntel,60,5eb450d3f625d5290ee37303,,1,0,81,2,1,80
,,,,,,,,,,,,,,,,,,,,,,,,,,,,,,,,,,,,,,,,,s,4.349999905,BRUS,TRUE,,,,,,,106,aixeta,Catalan,Sounds/cat_aixeta.mp3,2020-06-08_18h24.16.200,TranslationElicitation_eng-prolific,3.2.4,MacIntel,60,5eb450d3f625d5290ee37303,,1,0,81,2,1,80
,,,,,,,,,,,,,,,,,,,,,,,,,,,,,,,,,,,,,,,,,h,4.448999882,BRUSH,TRUE,,,,,,,106,aixeta,Catalan,Sounds/cat_aixeta.mp3,2020-06-08_18h24.16.200,TranslationElicitation_eng-prolific,3.2.4,MacIntel,60,5eb450d3f625d5290ee37303,,1,0,81,2,1,80
,,,,,,,,,,,,,,,,,,,,,,,,,,,,,,,,,,,,,,,,,e,4.599999905,BRUSHE,TRUE,,,,,,,106,aixeta,Catalan,Sounds/cat_aixeta.mp3,2020-06-08_18h24.16.200,TranslationElicitation_eng-prolific,3.2.4,MacIntel,60,5eb450d3f625d5290ee37303,,1,0,81,2,1,80
,,,,,,,,,,,,,,,,,,,,,,,,,,,,,,,,,,,,,,,,,t,4.898999929,BRUSHET,TRUE,,,,,,,106,aixeta,Catalan,Sounds/cat_aixeta.mp3,2020-06-08_18h24.16.200,TranslationElicitation_eng-prolific,3.2.4,MacIntel,60,5eb450d3f625d5290ee37303,,1,0,81,2,1,80
,,,,,,,,,,,,,,,,,,,,,,,,,,,,,,,,,,,,,,,,,t,5.015999794,BRUSHETT,TRUE,,,,,,,106,aixeta,Catalan,Sounds/cat_aixeta.mp3,2020-06-08_18h24.16.200,TranslationElicitation_eng-prolific,3.2.4,MacIntel,60,5eb450d3f625d5290ee37303,,1,0,81,2,1,80
,,,,,,,,,,,,,,,,,,,,,,,,,,,,,,,,,,,,,,,,,a,5.083999872,BRUSHETTA,TRUE,,,,,,,106,aixeta,Catalan,Sounds/cat_aixeta.mp3,2020-06-08_18h24.16.200,TranslationElicitation_eng-prolific,3.2.4,MacIntel,60,5eb450d3f625d5290ee37303,,1,0,81,2,1,80
,,,,,,,,,,,,,,,,,,,,,,,,,,,,,,,,,,,,,,,,,return,5.467000008,BRUSHETTA,TRUE,,,,,,,106,aixeta,Catalan,Sounds/cat_aixeta.mp3,2020-06-08_18h24.16.200,TranslationElicitation_eng-prolific,3.2.4,MacIntel,60,5eb450d3f625d5290ee37303,5.467000008,1,0,81,2,1,80
,,,,,,,,,,,,,,,,,,,,,,,,,,,,,,,,,,,,,,,,,,,,,,,,,,,106,aixeta,Catalan,Sounds/cat_aixeta.mp3,2020-06-08_18h24.16.200,TranslationElicitation_eng-prolific,3.2.4,MacIntel,60,5eb450d3f625d5290ee37303,,1,0,81,2,1,80
,,,,,,,,,,,,,,,,,,,,,,,,,,,,,,,,,,,,,,,,,s,2.432999849,S,FALSE,,,,,,,187,vaixell,Catalan,Sounds/cat_vaixell.mp3,2020-06-08_18h24.16.200,TranslationElicitation_eng-prolific,3.2.4,MacIntel,60,5eb450d3f625d5290ee37303,,1,0,81,78,1,80
,,,,,,,,,,,,,,,,,,,,,,,,,,,,,,,,,,,,,,,,,h,2.566999912,SH,FALSE,,,,,,,187,vaixell,Catalan,Sounds/cat_vaixell.mp3,2020-06-08_18h24.16.200,TranslationElicitation_eng-prolific,3.2.4,MacIntel,60,5eb450d3f625d5290ee37303,,1,0,81,78,1,80
,,,,,,,,,,,,,,,,,,,,,,,,,,,,,,,,,,,,,,,,,e,2.681999922,SHE,FALSE,,,,,,,187,vaixell,Catalan,Sounds/cat_vaixell.mp3,2020-06-08_18h24.16.200,TranslationElicitation_eng-prolific,3.2.4,MacIntel,60,5eb450d3f625d5290ee37303,,1,0,81,78,1,80
,,,,,,,,,,,,,,,,,,,,,,,,,,,,,,,,,,,,,,,,,l,2.816999912,SHEL,FALSE,,,,,,,187,vaixell,Catalan,Sounds/cat_vaixell.mp3,2020-06-08_18h24.16.200,TranslationElicitation_eng-prolific,3.2.4,MacIntel,60,5eb450d3f625d5290ee37303,,1,0,81,78,1,80
,,,,,,,,,,,,,,,,,,,,,,,,,,,,,,,,,,,,,,,,,l,2.965999842,SHELL,FALSE,,,,,,,187,vaixell,Catalan,Sounds/cat_vaixell.mp3,2020-06-08_18h24.16.200,TranslationElicitation_eng-prolific,3.2.4,MacIntel,60,5eb450d3f625d5290ee37303,,1,0,81,78,1,80
,,,,,,,,,,,,,,,,,,,,,,,,,,,,,,,,,,,,,,,,,return,3.215999842,SHELL,FALSE,,,,,,,187,vaixell,Catalan,Sounds/cat_vaixell.mp3,2020-06-08_18h24.16.200,TranslationElicitation_eng-prolific,3.2.4,MacIntel,60,5eb450d3f625d5290ee37303,3.215999842,1,0,81,78,1,80
,,,,,,,,,,,,,,,,,,,,,,,,,,,,,,,,,,,,,,,,,,,,,,,,,,,187,vaixell,Catalan,Sounds/cat_vaixell.mp3,2020-06-08_18h24.16.200,TranslationElicitation_eng-prolific,3.2.4,MacIntel,60,5eb450d3f625d5290ee37303,,1,0,81,78,1,80
,,,,,,,,,,,,,,,,,,,,,,,,,,,,,,,,,,,,,,,,,b,1.532999992,B,FALSE,,,,,,,166,peu,Catalan,Sounds/cat_peu.mp3,2020-06-08_18h24.16.200,TranslationElicitation_eng-prolific,3.2.4,MacIntel,60,5eb450d3f625d5290ee37303,,1,0,81,58,1,80
,,,,,,,,,,,,,,,,,,,,,,,,,,,,,,,,,,,,,,,,,e,1.665999889,BE,FALSE,,,,,,,166,peu,Catalan,Sounds/cat_peu.mp3,2020-06-08_18h24.16.200,TranslationElicitation_eng-prolific,3.2.4,MacIntel,60,5eb450d3f625d5290ee37303,,1,0,81,58,1,80
,,,,,,,,,,,,,,,,,,,,,,,,,,,,,,,,,,,,,,,,,l,1.833999872,BEL,FALSE,,,,,,,166,peu,Catalan,Sounds/cat_peu.mp3,2020-06-08_18h24.16.200,TranslationElicitation_eng-prolific,3.2.4,MacIntel,60,5eb450d3f625d5290ee37303,,1,0,81,58,1,80
,,,,,,,,,,,,,,,,,,,,,,,,,,,,,,,,,,,,,,,,,l,1.967000008,BELL,FALSE,,,,,,,166,peu,Catalan,Sounds/cat_peu.mp3,2020-06-08_18h24.16.200,TranslationElicitation_eng-prolific,3.2.4,MacIntel,60,5eb450d3f625d5290ee37303,,1,0,81,58,1,80
,,,,,,,,,,,,,,,,,,,,,,,,,,,,,,,,,,,,,,,,,return,2.199999809,BELL,FALSE,,,,,,,166,peu,Catalan,Sounds/cat_peu.mp3,2020-06-08_18h24.16.200,TranslationElicitation_eng-prolific,3.2.4,MacIntel,60,5eb450d3f625d5290ee37303,2.199999809,1,0,81,58,1,80
,,,,,,,,,,,,,,,,,,,,,,,,,,,,,,,,,,,,,,,,,,,,,,,,,,,166,peu,Catalan,Sounds/cat_peu.mp3,2020-06-08_18h24.16.200,TranslationElicitation_eng-prolific,3.2.4,MacIntel,60,5eb450d3f625d5290ee37303,,1,0,81,58,1,80
,,,,,,,,,,,,,,,,,,,,,,,,,,,,,,,,,,,,,,,,,p,1.650000095,P,FALSE,,,,,,,173,porc,Catalan,Sounds/cat_porc.mp3,2020-06-08_18h24.16.200,TranslationElicitation_eng-prolific,3.2.4,MacIntel,60,5eb450d3f625d5290ee37303,,1,0,81,65,1,80
,,,,,,,,,,,,,,,,,,,,,,,,,,,,,,,,,,,,,,,,,a,1.782999992,PA,FALSE,,,,,,,173,porc,Catalan,Sounds/cat_porc.mp3,2020-06-08_18h24.16.200,TranslationElicitation_eng-prolific,3.2.4,MacIntel,60,5eb450d3f625d5290ee37303,,1,0,81,65,1,80
,,,,,,,,,,,,,,,,,,,,,,,,,,,,,,,,,,,,,,,,,r,2.032999992,PAR,FALSE,,,,,,,173,porc,Catalan,Sounds/cat_porc.mp3,2020-06-08_18h24.16.200,TranslationElicitation_eng-prolific,3.2.4,MacIntel,60,5eb450d3f625d5290ee37303,,1,0,81,65,1,80
,,,,,,,,,,,,,,,,,,,,,,,,,,,,,,,,,,,,,,,,,k,2.233999968,PARK,FALSE,,,,,,,173,porc,Catalan,Sounds/cat_porc.mp3,2020-06-08_18h24.16.200,TranslationElicitation_eng-prolific,3.2.4,MacIntel,60,5eb450d3f625d5290ee37303,,1,0,81,65,1,80
,,,,,,,,,,,,,,,,,,,,,,,,,,,,,,,,,,,,,,,,,return,2.517000198,PARK,FALSE,,,,,,,173,porc,Catalan,Sounds/cat_porc.mp3,2020-06-08_18h24.16.200,TranslationElicitation_eng-prolific,3.2.4,MacIntel,60,5eb450d3f625d5290ee37303,2.517000198,1,0,81,65,1,80
,,,,,,,,,,,,,,,,,,,,,,,,,,,,,,,,,,,,,,,,,,,,,,,,,,,173,porc,Catalan,Sounds/cat_porc.mp3,2020-06-08_18h24.16.200,TranslationElicitation_eng-prolific,3.2.4,MacIntel,60,5eb450d3f625d5290ee37303,,1,0,81,65,1,80
,,,,,,,,,,,,,,,,,,,,,,,,,,,,,,,,,,,,,,,,,m,1.865999937,M,FALSE,,,,,,,156,moto,Catalan,Sounds/cat_moto.mp3,2020-06-08_18h24.16.200,TranslationElicitation_eng-prolific,3.2.4,MacIntel,60,5eb450d3f625d5290ee37303,,1,0,81,49,1,80
,,,,,,,,,,,,,,,,,,,,,,,,,,,,,,,,,,,,,,,,,o,2.05099988,MO,FALSE,,,,,,,156,moto,Catalan,Sounds/cat_moto.mp3,2020-06-08_18h24.16.200,TranslationElicitation_eng-prolific,3.2.4,MacIntel,60,5eb450d3f625d5290ee37303,,1,0,81,49,1,80
,,,,,,,,,,,,,,,,,,,,,,,,,,,,,,,,,,,,,,,,,t,2.216999769,MOT,FALSE,,,,,,,156,moto,Catalan,Sounds/cat_moto.mp3,2020-06-08_18h24.16.200,TranslationElicitation_eng-prolific,3.2.4,MacIntel,60,5eb450d3f625d5290ee37303,,1,0,81,49,1,80
,,,,,,,,,,,,,,,,,,,,,,,,,,,,,,,,,,,,,,,,,o,2.350999832,MOTO,FALSE,,,,,,,156,moto,Catalan,Sounds/cat_moto.mp3,2020-06-08_18h24.16.200,TranslationElicitation_eng-prolific,3.2.4,MacIntel,60,5eb450d3f625d5290ee37303,,1,0,81,49,1,80
,,,,,,,,,,,,,,,,,,,,,,,,,,,,,,,,,,,,,,,,,r,3.250999928,MOTOR,FALSE,,,,,,,156,moto,Catalan,Sounds/cat_moto.mp3,2020-06-08_18h24.16.200,TranslationElicitation_eng-prolific,3.2.4,MacIntel,60,5eb450d3f625d5290ee37303,,1,0,81,49,1,80
,,,,,,,,,,,,,,,,,,,,,,,,,,,,,,,,,,,,,,,,,backspace,3.583999872,MOTO,TRUE,,,,,,,156,moto,Catalan,Sounds/cat_moto.mp3,2020-06-08_18h24.16.200,TranslationElicitation_eng-prolific,3.2.4,MacIntel,60,5eb450d3f625d5290ee37303,,1,0,81,49,1,80
,,,,,,,,,,,,,,,,,,,,,,,,,,,,,,,,,,,,,,,,,backspace,3.733999968,MOT,TRUE,,,,,,,156,moto,Catalan,Sounds/cat_moto.mp3,2020-06-08_18h24.16.200,TranslationElicitation_eng-prolific,3.2.4,MacIntel,60,5eb450d3f625d5290ee37303,,1,0,81,49,1,80
,,,,,,,,,,,,,,,,,,,,,,,,,,,,,,,,,,,,,,,,,backspace,3.833999872,MO,TRUE,,,,,,,156,moto,Catalan,Sounds/cat_moto.mp3,2020-06-08_18h24.16.200,TranslationElicitation_eng-prolific,3.2.4,MacIntel,60,5eb450d3f625d5290ee37303,,1,0,81,49,1,80
,,,,,,,,,,,,,,,,,,,,,,,,,,,,,,,,,,,,,,,,,backspace,3.932999849,M,TRUE,,,,,,,156,moto,Catalan,Sounds/cat_moto.mp3,2020-06-08_18h24.16.200,TranslationElicitation_eng-prolific,3.2.4,MacIntel,60,5eb450d3f625d5290ee37303,,1,0,81,49,1,80
,,,,,,,,,,,,,,,,,,,,,,,,,,,,,,,,,,,,,,,,,backspace,4.066999912,,TRUE,,,,,,,156,moto,Catalan,Sounds/cat_moto.mp3,2020-06-08_18h24.16.200,TranslationElicitation_eng-prolific,3.2.4,MacIntel,60,5eb450d3f625d5290ee37303,,1,0,81,49,1,80
,,,,,,,,,,,,,,,,,,,,,,,,,,,,,,,,,,,,,,,,,c,4.399999857,C,TRUE,,,,,,,156,moto,Catalan,Sounds/cat_moto.mp3,2020-06-08_18h24.16.200,TranslationElicitation_eng-prolific,3.2.4,MacIntel,60,5eb450d3f625d5290ee37303,,1,0,81,49,1,80
,,,,,,,,,,,,,,,,,,,,,,,,,,,,,,,,,,,,,,,,,a,4.583999872,CA,TRUE,,,,,,,156,moto,Catalan,Sounds/cat_moto.mp3,2020-06-08_18h24.16.200,TranslationElicitation_eng-prolific,3.2.4,MacIntel,60,5eb450d3f625d5290ee37303,,1,0,81,49,1,80
,,,,,,,,,,,,,,,,,,,,,,,,,,,,,,,,,,,,,,,,,r,4.750999928,CAR,TRUE,,,,,,,156,moto,Catalan,Sounds/cat_moto.mp3,2020-06-08_18h24.16.200,TranslationElicitation_eng-prolific,3.2.4,MacIntel,60,5eb450d3f625d5290ee37303,,1,0,81,49,1,80
,,,,,,,,,,,,,,,,,,,,,,,,,,,,,,,,,,,,,,,,,return,5.100999832,CAR,TRUE,,,,,,,156,moto,Catalan,Sounds/cat_moto.mp3,2020-06-08_18h24.16.200,TranslationElicitation_eng-prolific,3.2.4,MacIntel,60,5eb450d3f625d5290ee37303,5.100999832,1,0,81,49,1,80
,,,,,,,,,,,,,,,,,,,,,,,,,,,,,,,,,,,,,,,,,,,,,,,,,,,156,moto,Catalan,Sounds/cat_moto.mp3,2020-06-08_18h24.16.200,TranslationElicitation_eng-prolific,3.2.4,MacIntel,60,5eb450d3f625d5290ee37303,,1,0,81,49,1,80
,,,,,,,,,,,,,,,,,,,,,,,,,,,,,,,,,,,,,,,,,d,2.650000095,D,FALSE,,,,,,,180,tisores,Catalan,Sounds/cat_tisores.mp3,2020-06-08_18h24.16.200,TranslationElicitation_eng-prolific,3.2.4,MacIntel,60,5eb450d3f625d5290ee37303,,1,0,81,71,1,80
,,,,,,,,,,,,,,,,,,,,,,,,,,,,,,,,,,,,,,,,,e,2.799999952,DE,FALSE,,,,,,,180,tisores,Catalan,Sounds/cat_tisores.mp3,2020-06-08_18h24.16.200,TranslationElicitation_eng-prolific,3.2.4,MacIntel,60,5eb450d3f625d5290ee37303,,1,0,81,71,1,80
,,,,,,,,,,,,,,,,,,,,,,,,,,,,,,,,,,,,,,,,,s,2.983999968,DES,FALSE,,,,,,,180,tisores,Catalan,Sounds/cat_tisores.mp3,2020-06-08_18h24.16.200,TranslationElicitation_eng-prolific,3.2.4,MacIntel,60,5eb450d3f625d5290ee37303,,1,0,81,71,1,80
,,,,,,,,,,,,,,,,,,,,,,,,,,,,,,,,,,,,,,,,,s,3.134000063,DESS,FALSE,,,,,,,180,tisores,Catalan,Sounds/cat_tisores.mp3,2020-06-08_18h24.16.200,TranslationElicitation_eng-prolific,3.2.4,MacIntel,60,5eb450d3f625d5290ee37303,,1,0,81,71,1,80
,,,,,,,,,,,,,,,,,,,,,,,,,,,,,,,,,,,,,,,,,e,3.299999952,DESSE,FALSE,,,,,,,180,tisores,Catalan,Sounds/cat_tisores.mp3,2020-06-08_18h24.16.200,TranslationElicitation_eng-prolific,3.2.4,MacIntel,60,5eb450d3f625d5290ee37303,,1,0,81,71,1,80
,,,,,,,,,,,,,,,,,,,,,,,,,,,,,,,,,,,,,,,,,r,3.467000008,DESSER,FALSE,,,,,,,180,tisores,Catalan,Sounds/cat_tisores.mp3,2020-06-08_18h24.16.200,TranslationElicitation_eng-prolific,3.2.4,MacIntel,60,5eb450d3f625d5290ee37303,,1,0,81,71,1,80
,,,,,,,,,,,,,,,,,,,,,,,,,,,,,,,,,,,,,,,,,t,3.567000151,DESSERT,FALSE,,,,,,,180,tisores,Catalan,Sounds/cat_tisores.mp3,2020-06-08_18h24.16.200,TranslationElicitation_eng-prolific,3.2.4,MacIntel,60,5eb450d3f625d5290ee37303,,1,0,81,71,1,80
,,,,,,,,,,,,,,,,,,,,,,,,,,,,,,,,,,,,,,,,,return,3.884000063,DESSERT,FALSE,,,,,,,180,tisores,Catalan,Sounds/cat_tisores.mp3,2020-06-08_18h24.16.200,TranslationElicitation_eng-prolific,3.2.4,MacIntel,60,5eb450d3f625d5290ee37303,3.884000063,1,0,81,71,1,80
,,,,,,,,,,,,,,,,,,,,,,,,,,,,,,,,,,,,,,,,,,,,,,,,,,,180,tisores,Catalan,Sounds/cat_tisores.mp3,2020-06-08_18h24.16.200,TranslationElicitation_eng-prolific,3.2.4,MacIntel,60,5eb450d3f625d5290ee37303,,1,0,81,71,1,80
,,,,,,,,,,,,,,,,,,,,,,,,,,,,,,,,,,,,,,,,,c,1.950000048,C,FALSE,,,,,,,108,ampolla,Catalan,Sounds/cat_ampolla.mp3,2020-06-08_18h24.16.200,TranslationElicitation_eng-prolific,3.2.4,MacIntel,60,5eb450d3f625d5290ee37303,,1,0,81,4,1,80
,,,,,,,,,,,,,,,,,,,,,,,,,,,,,,,,,,,,,,,,,backspace,2.598999977,,TRUE,,,,,,,108,ampolla,Catalan,Sounds/cat_ampolla.mp3,2020-06-08_18h24.16.200,TranslationElicitation_eng-prolific,3.2.4,MacIntel,60,5eb450d3f625d5290ee37303,,1,0,81,4,1,80
,,,,,,,,,,,,,,,,,,,,,,,,,,,,,,,,,,,,,,,,,m,2.865999937,M,TRUE,,,,,,,108,ampolla,Catalan,Sounds/cat_ampolla.mp3,2020-06-08_18h24.16.200,TranslationElicitation_eng-prolific,3.2.4,MacIntel,60,5eb450d3f625d5290ee37303,,1,0,81,4,1,80
,,,,,,,,,,,,,,,,,,,,,,,,,,,,,,,,,,,,,,,,,o,3.049999952,MO,TRUE,,,,,,,108,ampolla,Catalan,Sounds/cat_ampolla.mp3,2020-06-08_18h24.16.200,TranslationElicitation_eng-prolific,3.2.4,MacIntel,60,5eb450d3f625d5290ee37303,,1,0,81,4,1,80
,,,,,,,,,,,,,,,,,,,,,,,,,,,,,,,,,,,,,,,,,u,3.200000048,MOU,TRUE,,,,,,,108,ampolla,Catalan,Sounds/cat_ampolla.mp3,2020-06-08_18h24.16.200,TranslationElicitation_eng-prolific,3.2.4,MacIntel,60,5eb450d3f625d5290ee37303,,1,0,81,4,1,80
,,,,,,,,,,,,,,,,,,,,,,,,,,,,,,,,,,,,,,,,,n,3.400000095,MOUN,TRUE,,,,,,,108,ampolla,Catalan,Sounds/cat_ampolla.mp3,2020-06-08_18h24.16.200,TranslationElicitation_eng-prolific,3.2.4,MacIntel,60,5eb450d3f625d5290ee37303,,1,0,81,4,1,80
,,,,,,,,,,,,,,,,,,,,,,,,,,,,,,,,,,,,,,,,,t,3.48300004,MOUNT,TRUE,,,,,,,108,ampolla,Catalan,Sounds/cat_ampolla.mp3,2020-06-08_18h24.16.200,TranslationElicitation_eng-prolific,3.2.4,MacIntel,60,5eb450d3f625d5290ee37303,,1,0,81,4,1,80
,,,,,,,,,,,,,,,,,,,,,,,,,,,,,,,,,,,,,,,,,a,3.71600008,MOUNTA,TRUE,,,,,,,108,ampolla,Catalan,Sounds/cat_ampolla.mp3,2020-06-08_18h24.16.200,TranslationElicitation_eng-prolific,3.2.4,MacIntel,60,5eb450d3f625d5290ee37303,,1,0,81,4,1,80
,,,,,,,,,,,,,,,,,,,,,,,,,,,,,,,,,,,,,,,,,i,3.782999992,MOUNTAI,TRUE,,,,,,,108,ampolla,Catalan,Sounds/cat_ampolla.mp3,2020-06-08_18h24.16.200,TranslationElicitation_eng-prolific,3.2.4,MacIntel,60,5eb450d3f625d5290ee37303,,1,0,81,4,1,80
,,,,,,,,,,,,,,,,,,,,,,,,,,,,,,,,,,,,,,,,,n,3.832999945,MOUNTAIN,TRUE,,,,,,,108,ampolla,Catalan,Sounds/cat_ampolla.mp3,2020-06-08_18h24.16.200,TranslationElicitation_eng-prolific,3.2.4,MacIntel,60,5eb450d3f625d5290ee37303,,1,0,81,4,1,80
,,,,,,,,,,,,,,,,,,,,,,,,,,,,,,,,,,,,,,,,,return,4.25,MOUNTAIN,TRUE,,,,,,,108,ampolla,Catalan,Sounds/cat_ampolla.mp3,2020-06-08_18h24.16.200,TranslationElicitation_eng-prolific,3.2.4,MacIntel,60,5eb450d3f625d5290ee37303,4.25,1,0,81,4,1,80
,,,,,,,,,,,,,,,,,,,,,,,,,,,,,,,,,,,,,,,,,,,,,,,,,,,108,ampolla,Catalan,Sounds/cat_ampolla.mp3,2020-06-08_18h24.16.200,TranslationElicitation_eng-prolific,3.2.4,MacIntel,60,5eb450d3f625d5290ee37303,,1,0,81,4,1,80
,,,,,,,,,,,,,,,,,,,,,,,,,,,,,,,,,,,,,,,,,g,4.134000063,G,FALSE,,,,,,,139,galleda,Catalan,Sounds/cat_galleda.mp3,2020-06-08_18h24.16.200,TranslationElicitation_eng-prolific,3.2.4,MacIntel,60,5eb450d3f625d5290ee37303,,1,0,81,33,1,80
,,,,,,,,,,,,,,,,,,,,,,,,,,,,,,,,,,,,,,,,,l,4.417000055,GL,FALSE,,,,,,,139,galleda,Catalan,Sounds/cat_galleda.mp3,2020-06-08_18h24.16.200,TranslationElicitation_eng-prolific,3.2.4,MacIntel,60,5eb450d3f625d5290ee37303,,1,0,81,33,1,80
,,,,,,,,,,,,,,,,,,,,,,,,,,,,,,,,,,,,,,,,,a,4.53399992,GLA,FALSE,,,,,,,139,galleda,Catalan,Sounds/cat_galleda.mp3,2020-06-08_18h24.16.200,TranslationElicitation_eng-prolific,3.2.4,MacIntel,60,5eb450d3f625d5290ee37303,,1,0,81,33,1,80
,,,,,,,,,,,,,,,,,,,,,,,,,,,,,,,,,,,,,,,,,s,4.665999889,GLAS,FALSE,,,,,,,139,galleda,Catalan,Sounds/cat_galleda.mp3,2020-06-08_18h24.16.200,TranslationElicitation_eng-prolific,3.2.4,MacIntel,60,5eb450d3f625d5290ee37303,,1,0,81,33,1,80
,,,,,,,,,,,,,,,,,,,,,,,,,,,,,,,,,,,,,,,,,s,4.833999872,GLASS,FALSE,,,,,,,139,galleda,Catalan,Sounds/cat_galleda.mp3,2020-06-08_18h24.16.200,TranslationElicitation_eng-prolific,3.2.4,MacIntel,60,5eb450d3f625d5290ee37303,,1,0,81,33,1,80
,,,,,,,,,,,,,,,,,,,,,,,,,,,,,,,,,,,,,,,,,return,5.167000055,GLASS,FALSE,,,,,,,139,galleda,Catalan,Sounds/cat_galleda.mp3,2020-06-08_18h24.16.200,TranslationElicitation_eng-prolific,3.2.4,MacIntel,60,5eb450d3f625d5290ee37303,5.167000055,1,0,81,33,1,80
,,,,,,,,,,,,,,,,,,,,,,,,,,,,,,,,,,,,,,,,,,,,,,,,,,,139,galleda,Catalan,Sounds/cat_galleda.mp3,2020-06-08_18h24.16.200,TranslationElicitation_eng-prolific,3.2.4,MacIntel,60,5eb450d3f625d5290ee37303,,1,0,81,33,1,80
,,,,,,,,,,,,,,,,,,,,,,,,,,,,,,,,,,,,,,,,,i,3.517999887,I,FALSE,,,,,,,105,aigua,Catalan,Sounds/cat_aigua.mp3,2020-06-08_18h24.16.200,TranslationElicitation_eng-prolific,3.2.4,MacIntel,60,5eb450d3f625d5290ee37303,,1,0,81,1,1,80
,,,,,,,,,,,,,,,,,,,,,,,,,,,,,,,,,,,,,,,,,g,3.733999968,IG,FALSE,,,,,,,105,aigua,Catalan,Sounds/cat_aigua.mp3,2020-06-08_18h24.16.200,TranslationElicitation_eng-prolific,3.2.4,MacIntel,60,5eb450d3f625d5290ee37303,,1,0,81,1,1,80
,,,,,,,,,,,,,,,,,,,,,,,,,,,,,,,,,,,,,,,,,l,3.868000031,IGL,FALSE,,,,,,,105,aigua,Catalan,Sounds/cat_aigua.mp3,2020-06-08_18h24.16.200,TranslationElicitation_eng-prolific,3.2.4,MacIntel,60,5eb450d3f625d5290ee37303,,1,0,81,1,1,80
,,,,,,,,,,,,,,,,,,,,,,,,,,,,,,,,,,,,,,,,,o,4.03399992,IGLO,FALSE,,,,,,,105,aigua,Catalan,Sounds/cat_aigua.mp3,2020-06-08_18h24.16.200,TranslationElicitation_eng-prolific,3.2.4,MacIntel,60,5eb450d3f625d5290ee37303,,1,0,81,1,1,80
,,,,,,,,,,,,,,,,,,,,,,,,,,,,,,,,,,,,,,,,,o,4.151000023,IGLOO,FALSE,,,,,,,105,aigua,Catalan,Sounds/cat_aigua.mp3,2020-06-08_18h24.16.200,TranslationElicitation_eng-prolific,3.2.4,MacIntel,60,5eb450d3f625d5290ee37303,,1,0,81,1,1,80
,,,,,,,,,,,,,,,,,,,,,,,,,,,,,,,,,,,,,,,,,return,4.666999817,IGLOO,FALSE,,,,,,,105,aigua,Catalan,Sounds/cat_aigua.mp3,2020-06-08_18h24.16.200,TranslationElicitation_eng-prolific,3.2.4,MacIntel,60,5eb450d3f625d5290ee37303,4.666999817,1,0,81,1,1,80
,,,,,,,,,,,,,,,,,,,,,,,,,,,,,,,,,,,,,,,,,,,,,,,,,,,105,aigua,Catalan,Sounds/cat_aigua.mp3,2020-06-08_18h24.16.200,TranslationElicitation_eng-prolific,3.2.4,MacIntel,60,5eb450d3f625d5290ee37303,,1,0,81,1,1,80
,,,,,,,,,,,,,,,,,,,,,,,,,,,,,,,,,,,,,,,,,m,2.217000008,M,FALSE,,,,,,,152,ma,Catalan,Sounds/cat_ma.mp3,2020-06-08_18h24.16.200,TranslationElicitation_eng-prolific,3.2.4,MacIntel,60,5eb450d3f625d5290ee37303,,1,0,81,45,1,80
,,,,,,,,,,,,,,,,,,,,,,,,,,,,,,,,,,,,,,,,,u,2.465999842,MU,FALSE,,,,,,,152,ma,Catalan,Sounds/cat_ma.mp3,2020-06-08_18h24.16.200,TranslationElicitation_eng-prolific,3.2.4,MacIntel,60,5eb450d3f625d5290ee37303,,1,0,81,45,1,80
,,,,,,,,,,,,,,,,,,,,,,,,,,,,,,,,,,,,,,,,,m,3.082999945,MUM,FALSE,,,,,,,152,ma,Catalan,Sounds/cat_ma.mp3,2020-06-08_18h24.16.200,TranslationElicitation_eng-prolific,3.2.4,MacIntel,60,5eb450d3f625d5290ee37303,,1,0,81,45,1,80
,,,,,,,,,,,,,,,,,,,,,,,,,,,,,,,,,,,,,,,,,return,3.48300004,MUM,FALSE,,,,,,,152,ma,Catalan,Sounds/cat_ma.mp3,2020-06-08_18h24.16.200,TranslationElicitation_eng-prolific,3.2.4,MacIntel,60,5eb450d3f625d5290ee37303,3.48300004,1,0,81,45,1,80
,,,,,,,,,,,,,,,,,,,,,,,,,,,,,,,,,,,,,,,,,,,,,,,,,,,152,ma,Catalan,Sounds/cat_ma.mp3,2020-06-08_18h24.16.200,TranslationElicitation_eng-prolific,3.2.4,MacIntel,60,5eb450d3f625d5290ee37303,,1,0,81,45,1,80
,,,,,,,,,,,,,,,,,,,,,,,,,,,,,,,,,,,,,,,,,f,2.332000017,F,FALSE,,,,,,,174,porta,Catalan,Sounds/cat_porta.mp3,2020-06-08_18h24.16.200,TranslationElicitation_eng-prolific,3.2.4,MacIntel,60,5eb450d3f625d5290ee37303,,1,0,81,66,1,80
,,,,,,,,,,,,,,,,,,,,,,,,,,,,,,,,,,,,,,,,,a,2.59800005,FA,FALSE,,,,,,,174,porta,Catalan,Sounds/cat_porta.mp3,2020-06-08_18h24.16.200,TranslationElicitation_eng-prolific,3.2.4,MacIntel,60,5eb450d3f625d5290ee37303,,1,0,81,66,1,80
,,,,,,,,,,,,,,,,,,,,,,,,,,,,,,,,,,,,,,,,,t,2.749000072,FAT,FALSE,,,,,,,174,porta,Catalan,Sounds/cat_porta.mp3,2020-06-08_18h24.16.200,TranslationElicitation_eng-prolific,3.2.4,MacIntel,60,5eb450d3f625d5290ee37303,,1,0,81,66,1,80
,,,,,,,,,,,,,,,,,,,,,,,,,,,,,,,,,,,,,,,,,h,2.798000097,FATH,FALSE,,,,,,,174,porta,Catalan,Sounds/cat_porta.mp3,2020-06-08_18h24.16.200,TranslationElicitation_eng-prolific,3.2.4,MacIntel,60,5eb450d3f625d5290ee37303,,1,0,81,66,1,80
,,,,,,,,,,,,,,,,,,,,,,,,,,,,,,,,,,,,,,,,,e,2.916000128,FATHE,FALSE,,,,,,,174,porta,Catalan,Sounds/cat_porta.mp3,2020-06-08_18h24.16.200,TranslationElicitation_eng-prolific,3.2.4,MacIntel,60,5eb450d3f625d5290ee37303,,1,0,81,66,1,80
,,,,,,,,,,,,,,,,,,,,,,,,,,,,,,,,,,,,,,,,,r,3.032000065,FATHER,FALSE,,,,,,,174,porta,Catalan,Sounds/cat_porta.mp3,2020-06-08_18h24.16.200,TranslationElicitation_eng-prolific,3.2.4,MacIntel,60,5eb450d3f625d5290ee37303,,1,0,81,66,1,80
,,,,,,,,,,,,,,,,,,,,,,,,,,,,,,,,,,,,,,,,,return,3.265000105,FATHER,FALSE,,,,,,,174,porta,Catalan,Sounds/cat_porta.mp3,2020-06-08_18h24.16.200,TranslationElicitation_eng-prolific,3.2.4,MacIntel,60,5eb450d3f625d5290ee37303,3.265000105,1,0,81,66,1,80
,,,,,,,,,,,,,,,,,,,,,,,,,,,,,,,,,,,,,,,,,,,,,,,,,,,174,porta,Catalan,Sounds/cat_porta.mp3,2020-06-08_18h24.16.200,TranslationElicitation_eng-prolific,3.2.4,MacIntel,60,5eb450d3f625d5290ee37303,,1,0,81,66,1,80
,,,,,,,,,,,,,,,,,,,,,,,,,,,,,,,,,,,,,,,,,t,1.049999952,T,FALSE,,,,,,,182,tomaquet,Catalan,Sounds/cat_tomaquet.mp3,2020-06-08_18h24.16.200,TranslationElicitation_eng-prolific,3.2.4,MacIntel,60,5eb450d3f625d5290ee37303,,1,0,81,73,1,80
,,,,,,,,,,,,,,,,,,,,,,,,,,,,,,,,,,,,,,,,,o,1.333999872,TO,FALSE,,,,,,,182,tomaquet,Catalan,Sounds/cat_tomaquet.mp3,2020-06-08_18h24.16.200,TranslationElicitation_eng-prolific,3.2.4,MacIntel,60,5eb450d3f625d5290ee37303,,1,0,81,73,1,80
,,,,,,,,,,,,,,,,,,,,,,,,,,,,,,,,,,,,,,,,,m,1.55099988,TOM,FALSE,,,,,,,182,tomaquet,Catalan,Sounds/cat_tomaquet.mp3,2020-06-08_18h24.16.200,TranslationElicitation_eng-prolific,3.2.4,MacIntel,60,5eb450d3f625d5290ee37303,,1,0,81,73,1,80
,,,,,,,,,,,,,,,,,,,,,,,,,,,,,,,,,,,,,,,,,o,1.733999968,TOMO,FALSE,,,,,,,182,tomaquet,Catalan,Sounds/cat_tomaquet.mp3,2020-06-08_18h24.16.200,TranslationElicitation_eng-prolific,3.2.4,MacIntel,60,5eb450d3f625d5290ee37303,,1,0,81,73,1,80
,,,,,,,,,,,,,,,,,,,,,,,,,,,,,,,,,,,,,,,,,t,1.832999945,TOMOT,FALSE,,,,,,,182,tomaquet,Catalan,Sounds/cat_tomaquet.mp3,2020-06-08_18h24.16.200,TranslationElicitation_eng-prolific,3.2.4,MacIntel,60,5eb450d3f625d5290ee37303,,1,0,81,73,1,80
,,,,,,,,,,,,,,,,,,,,,,,,,,,,,,,,,,,,,,,,,a,2.184000015,TOMOTA,FALSE,,,,,,,182,tomaquet,Catalan,Sounds/cat_tomaquet.mp3,2020-06-08_18h24.16.200,TranslationElicitation_eng-prolific,3.2.4,MacIntel,60,5eb450d3f625d5290ee37303,,1,0,81,73,1,80
,,,,,,,,,,,,,,,,,,,,,,,,,,,,,,,,,,,,,,,,,backspace,3.30099988,TOMOT,TRUE,,,,,,,182,tomaquet,Catalan,Sounds/cat_tomaquet.mp3,2020-06-08_18h24.16.200,TranslationElicitation_eng-prolific,3.2.4,MacIntel,60,5eb450d3f625d5290ee37303,,1,0,81,73,1,80
,,,,,,,,,,,,,,,,,,,,,,,,,,,,,,,,,,,,,,,,,backspace,3.450000048,TOMO,TRUE,,,,,,,182,tomaquet,Catalan,Sounds/cat_tomaquet.mp3,2020-06-08_18h24.16.200,TranslationElicitation_eng-prolific,3.2.4,MacIntel,60,5eb450d3f625d5290ee37303,,1,0,81,73,1,80
,,,,,,,,,,,,,,,,,,,,,,,,,,,,,,,,,,,,,,,,,backspace,3.55099988,TOM,TRUE,,,,,,,182,tomaquet,Catalan,Sounds/cat_tomaquet.mp3,2020-06-08_18h24.16.200,TranslationElicitation_eng-prolific,3.2.4,MacIntel,60,5eb450d3f625d5290ee37303,,1,0,81,73,1,80
,,,,,,,,,,,,,,,,,,,,,,,,,,,,,,,,,,,,,,,,,backspace,3.667999983,TO,TRUE,,,,,,,182,tomaquet,Catalan,Sounds/cat_tomaquet.mp3,2020-06-08_18h24.16.200,TranslationElicitation_eng-prolific,3.2.4,MacIntel,60,5eb450d3f625d5290ee37303,,1,0,81,73,1,80
,,,,,,,,,,,,,,,,,,,,,,,,,,,,,,,,,,,,,,,,,backspace,3.80099988,T,TRUE,,,,,,,182,tomaquet,Catalan,Sounds/cat_tomaquet.mp3,2020-06-08_18h24.16.200,TranslationElicitation_eng-prolific,3.2.4,MacIntel,60,5eb450d3f625d5290ee37303,,1,0,81,73,1,80
,,,,,,,,,,,,,,,,,,,,,,,,,,,,,,,,,,,,,,,,,backspace,4.733999968,,TRUE,,,,,,,182,tomaquet,Catalan,Sounds/cat_tomaquet.mp3,2020-06-08_18h24.16.200,TranslationElicitation_eng-prolific,3.2.4,MacIntel,60,5eb450d3f625d5290ee37303,,1,0,81,73,1,80
,,,,,,,,,,,,,,,,,,,,,,,,,,,,,,,,,,,,,,,,,m,5.167999983,M,TRUE,,,,,,,182,tomaquet,Catalan,Sounds/cat_tomaquet.mp3,2020-06-08_18h24.16.200,TranslationElicitation_eng-prolific,3.2.4,MacIntel,60,5eb450d3f625d5290ee37303,,1,0,81,73,1,80
,,,,,,,,,,,,,,,,,,,,,,,,,,,,,,,,,,,,,,,,,a,5.368000031,MA,TRUE,,,,,,,182,tomaquet,Catalan,Sounds/cat_tomaquet.mp3,2020-06-08_18h24.16.200,TranslationElicitation_eng-prolific,3.2.4,MacIntel,60,5eb450d3f625d5290ee37303,,1,0,81,73,1,80
,,,,,,,,,,,,,,,,,,,,,,,,,,,,,,,,,,,,,,,,,r,5.601000071,MAR,TRUE,,,,,,,182,tomaquet,Catalan,Sounds/cat_tomaquet.mp3,2020-06-08_18h24.16.200,TranslationElicitation_eng-prolific,3.2.4,MacIntel,60,5eb450d3f625d5290ee37303,,1,0,81,73,1,80
,,,,,,,,,,,,,,,,,,,,,,,,,,,,,,,,,,,,,,,,,k,5.750999928,MARK,TRUE,,,,,,,182,tomaquet,Catalan,Sounds/cat_tomaquet.mp3,2020-06-08_18h24.16.200,TranslationElicitation_eng-prolific,3.2.4,MacIntel,60,5eb450d3f625d5290ee37303,,1,0,81,73,1,80
,,,,,,,,,,,,,,,,,,,,,,,,,,,,,,,,,,,,,,,,,e,5.81799984,MARKE,TRUE,,,,,,,182,tomaquet,Catalan,Sounds/cat_tomaquet.mp3,2020-06-08_18h24.16.200,TranslationElicitation_eng-prolific,3.2.4,MacIntel,60,5eb450d3f625d5290ee37303,,1,0,81,73,1,80
,,,,,,,,,,,,,,,,,,,,,,,,,,,,,,,,,,,,,,,,,t,5.983999968,MARKET,TRUE,,,,,,,182,tomaquet,Catalan,Sounds/cat_tomaquet.mp3,2020-06-08_18h24.16.200,TranslationElicitation_eng-prolific,3.2.4,MacIntel,60,5eb450d3f625d5290ee37303,,1,0,81,73,1,80
,,,,,,,,,,,,,,,,,,,,,,,,,,,,,,,,,,,,,,,,,return,6.233999968,MARKET,TRUE,,,,,,,182,tomaquet,Catalan,Sounds/cat_tomaquet.mp3,2020-06-08_18h24.16.200,TranslationElicitation_eng-prolific,3.2.4,MacIntel,60,5eb450d3f625d5290ee37303,6.233999968,1,0,81,73,1,80
,,,,,,,,,,,,,,,,,,,,,,,,,,,,,,,,,,,,,,,,,,,,,,,,,,,182,tomaquet,Catalan,Sounds/cat_tomaquet.mp3,2020-06-08_18h24.16.200,TranslationElicitation_eng-prolific,3.2.4,MacIntel,60,5eb450d3f625d5290ee37303,,1,0,81,73,1,80
,,,,,,,,,,,,,,,,,,,,,,,,,,,,,,,,,,,,,,,,,u,1.433000088,U,FALSE,,,,,,,160,orella,Catalan,Sounds/cat_orella.mp3,2020-06-08_18h24.16.200,TranslationElicitation_eng-prolific,3.2.4,MacIntel,60,5eb450d3f625d5290ee37303,,1,0,81,52,1,80
,,,,,,,,,,,,,,,,,,,,,,,,,,,,,,,,,,,,,,,,,m,1.617000103,UM,FALSE,,,,,,,160,orella,Catalan,Sounds/cat_orella.mp3,2020-06-08_18h24.16.200,TranslationElicitation_eng-prolific,3.2.4,MacIntel,60,5eb450d3f625d5290ee37303,,1,0,81,52,1,80
,,,,,,,,,,,,,,,,,,,,,,,,,,,,,,,,,,,,,,,,,b,1.799999952,UMB,FALSE,,,,,,,160,orella,Catalan,Sounds/cat_orella.mp3,2020-06-08_18h24.16.200,TranslationElicitation_eng-prolific,3.2.4,MacIntel,60,5eb450d3f625d5290ee37303,,1,0,81,52,1,80
,,,,,,,,,,,,,,,,,,,,,,,,,,,,,,,,,,,,,,,,,r,1.900000095,UMBR,FALSE,,,,,,,160,orella,Catalan,Sounds/cat_orella.mp3,2020-06-08_18h24.16.200,TranslationElicitation_eng-prolific,3.2.4,MacIntel,60,5eb450d3f625d5290ee37303,,1,0,81,52,1,80
,,,,,,,,,,,,,,,,,,,,,,,,,,,,,,,,,,,,,,,,,e,2.067000151,UMBRE,FALSE,,,,,,,160,orella,Catalan,Sounds/cat_orella.mp3,2020-06-08_18h24.16.200,TranslationElicitation_eng-prolific,3.2.4,MacIntel,60,5eb450d3f625d5290ee37303,,1,0,81,52,1,80
,,,,,,,,,,,,,,,,,,,,,,,,,,,,,,,,,,,,,,,,,l,2.332999945,UMBREL,FALSE,,,,,,,160,orella,Catalan,Sounds/cat_orella.mp3,2020-06-08_18h24.16.200,TranslationElicitation_eng-prolific,3.2.4,MacIntel,60,5eb450d3f625d5290ee37303,,1,0,81,52,1,80
,,,,,,,,,,,,,,,,,,,,,,,,,,,,,,,,,,,,,,,,,l,2.450000048,UMBRELL,FALSE,,,,,,,160,orella,Catalan,Sounds/cat_orella.mp3,2020-06-08_18h24.16.200,TranslationElicitation_eng-prolific,3.2.4,MacIntel,60,5eb450d3f625d5290ee37303,,1,0,81,52,1,80
,,,,,,,,,,,,,,,,,,,,,,,,,,,,,,,,,,,,,,,,,a,2.584000111,UMBRELLA,FALSE,,,,,,,160,orella,Catalan,Sounds/cat_orella.mp3,2020-06-08_18h24.16.200,TranslationElicitation_eng-prolific,3.2.4,MacIntel,60,5eb450d3f625d5290ee37303,,1,0,81,52,1,80
,,,,,,,,,,,,,,,,,,,,,,,,,,,,,,,,,,,,,,,,,return,2.799999952,UMBRELLA,FALSE,,,,,,,160,orella,Catalan,Sounds/cat_orella.mp3,2020-06-08_18h24.16.200,TranslationElicitation_eng-prolific,3.2.4,MacIntel,60,5eb450d3f625d5290ee37303,2.799999952,1,0,81,52,1,80
,,,,,,,,,,,,,,,,,,,,,,,,,,,,,,,,,,,,,,,,,,,,,,,,,,,160,orella,Catalan,Sounds/cat_orella.mp3,2020-06-08_18h24.16.200,TranslationElicitation_eng-prolific,3.2.4,MacIntel,60,5eb450d3f625d5290ee37303,,1,0,81,52,1,80
,,,,,,,,,,,,,,,,,,,,,,,,,,,,,,,,,,,,,,,,,a,1.799000025,A,FALSE,,,,,,,132,estrella,Catalan,Sounds/cat_estrella.mp3,2020-06-08_18h24.16.200,TranslationElicitation_eng-prolific,3.2.4,MacIntel,60,5eb450d3f625d5290ee37303,,1,0,81,26,1,80
,,,,,,,,,,,,,,,,,,,,,,,,,,,,,,,,,,,,,,,,,u,1.94900012,AU,FALSE,,,,,,,132,estrella,Catalan,Sounds/cat_estrella.mp3,2020-06-08_18h24.16.200,TranslationElicitation_eng-prolific,3.2.4,MacIntel,60,5eb450d3f625d5290ee37303,,1,0,81,26,1,80
,,,,,,,,,,,,,,,,,,,,,,,,,,,,,,,,,,,,,,,,,s,2.032999992,AUS,FALSE,,,,,,,132,estrella,Catalan,Sounds/cat_estrella.mp3,2020-06-08_18h24.16.200,TranslationElicitation_eng-prolific,3.2.4,MacIntel,60,5eb450d3f625d5290ee37303,,1,0,81,26,1,80
,,,,,,,,,,,,,,,,,,,,,,,,,,,,,,,,,,,,,,,,,t,2.183000088,AUST,FALSE,,,,,,,132,estrella,Catalan,Sounds/cat_estrella.mp3,2020-06-08_18h24.16.200,TranslationElicitation_eng-prolific,3.2.4,MacIntel,60,5eb450d3f625d5290ee37303,,1,0,81,26,1,80
,,,,,,,,,,,,,,,,,,,,,,,,,,,,,,,,,,,,,,,,,r,2.933000088,AUSTR,FALSE,,,,,,,132,estrella,Catalan,Sounds/cat_estrella.mp3,2020-06-08_18h24.16.200,TranslationElicitation_eng-prolific,3.2.4,MacIntel,60,5eb450d3f625d5290ee37303,,1,0,81,26,1,80
,,,,,,,,,,,,,,,,,,,,,,,,,,,,,,,,,,,,,,,,,a,3.032999992,AUSTRA,FALSE,,,,,,,132,estrella,Catalan,Sounds/cat_estrella.mp3,2020-06-08_18h24.16.200,TranslationElicitation_eng-prolific,3.2.4,MacIntel,60,5eb450d3f625d5290ee37303,,1,0,81,26,1,80
,,,,,,,,,,,,,,,,,,,,,,,,,,,,,,,,,,,,,,,,,l,3.267000198,AUSTRAL,FALSE,,,,,,,132,estrella,Catalan,Sounds/cat_estrella.mp3,2020-06-08_18h24.16.200,TranslationElicitation_eng-prolific,3.2.4,MacIntel,60,5eb450d3f625d5290ee37303,,1,0,81,26,1,80
,,,,,,,,,,,,,,,,,,,,,,,,,,,,,,,,,,,,,,,,,i,3.367000103,AUSTRALI,FALSE,,,,,,,132,estrella,Catalan,Sounds/cat_estrella.mp3,2020-06-08_18h24.16.200,TranslationElicitation_eng-prolific,3.2.4,MacIntel,60,5eb450d3f625d5290ee37303,,1,0,81,26,1,80
,,,,,,,,,,,,,,,,,,,,,,,,,,,,,,,,,,,,,,,,,a,3.48300004,AUSTRALIA,FALSE,,,,,,,132,estrella,Catalan,Sounds/cat_estrella.mp3,2020-06-08_18h24.16.200,TranslationElicitation_eng-prolific,3.2.4,MacIntel,60,5eb450d3f625d5290ee37303,,1,0,81,26,1,80
,,,,,,,,,,,,,,,,,,,,,,,,,,,,,,,,,,,,,,,,,return,3.651000023,AUSTRALIA,FALSE,,,,,,,132,estrella,Catalan,Sounds/cat_estrella.mp3,2020-06-08_18h24.16.200,TranslationElicitation_eng-prolific,3.2.4,MacIntel,60,5eb450d3f625d5290ee37303,3.651000023,1,0,81,26,1,80
,,,,,,,,,,,,,,,,,,,,,,,,,,,,,,,,,,,,,,,,,,,,,,,,,,,132,estrella,Catalan,Sounds/cat_estrella.mp3,2020-06-08_18h24.16.200,TranslationElicitation_eng-prolific,3.2.4,MacIntel,60,5eb450d3f625d5290ee37303,,1,0,81,26,1,80
,,,,,,,,,,,,,,,,,,,,,,,,,,,,,,,,,,,,,,,,,h,1.365999937,H,FALSE,,,,,,,188,xocolata,Catalan,Sounds/cat_xocolata.mp3,2020-06-08_18h24.16.200,TranslationElicitation_eng-prolific,3.2.4,MacIntel,60,5eb450d3f625d5290ee37303,,1,0,81,79,1,80
,,,,,,,,,,,,,,,,,,,,,,,,,,,,,,,,,,,,,,,,,o,1.634000063,HO,FALSE,,,,,,,188,xocolata,Catalan,Sounds/cat_xocolata.mp3,2020-06-08_18h24.16.200,TranslationElicitation_eng-prolific,3.2.4,MacIntel,60,5eb450d3f625d5290ee37303,,1,0,81,79,1,80
,,,,,,,,,,,,,,,,,,,,,,,,,,,,,,,,,,,,,,,,,backspace,2.332999945,H,TRUE,,,,,,,188,xocolata,Catalan,Sounds/cat_xocolata.mp3,2020-06-08_18h24.16.200,TranslationElicitation_eng-prolific,3.2.4,MacIntel,60,5eb450d3f625d5290ee37303,,1,0,81,79,1,80
,,,,,,,,,,,,,,,,,,,,,,,,,,,,,,,,,,,,,,,,,backspace,2.467000008,,TRUE,,,,,,,188,xocolata,Catalan,Sounds/cat_xocolata.mp3,2020-06-08_18h24.16.200,TranslationElicitation_eng-prolific,3.2.4,MacIntel,60,5eb450d3f625d5290ee37303,,1,0,81,79,1,80
,,,,,,,,,,,,,,,,,,,,,,,,,,,,,,,,,,,,,,,,,c,2.599999905,C,TRUE,,,,,,,188,xocolata,Catalan,Sounds/cat_xocolata.mp3,2020-06-08_18h24.16.200,TranslationElicitation_eng-prolific,3.2.4,MacIntel,60,5eb450d3f625d5290ee37303,,1,0,81,79,1,80
,,,,,,,,,,,,,,,,,,,,,,,,,,,,,,,,,,,,,,,,,h,2.782999992,CH,TRUE,,,,,,,188,xocolata,Catalan,Sounds/cat_xocolata.mp3,2020-06-08_18h24.16.200,TranslationElicitation_eng-prolific,3.2.4,MacIntel,60,5eb450d3f625d5290ee37303,,1,0,81,79,1,80
,,,,,,,,,,,,,,,,,,,,,,,,,,,,,,,,,,,,,,,,,o,2.950999975,CHO,TRUE,,,,,,,188,xocolata,Catalan,Sounds/cat_xocolata.mp3,2020-06-08_18h24.16.200,TranslationElicitation_eng-prolific,3.2.4,MacIntel,60,5eb450d3f625d5290ee37303,,1,0,81,79,1,80
,,,,,,,,,,,,,,,,,,,,,,,,,,,,,,,,,,,,,,,,,c,3.099999905,CHOC,TRUE,,,,,,,188,xocolata,Catalan,Sounds/cat_xocolata.mp3,2020-06-08_18h24.16.200,TranslationElicitation_eng-prolific,3.2.4,MacIntel,60,5eb450d3f625d5290ee37303,,1,0,81,79,1,80
,,,,,,,,,,,,,,,,,,,,,,,,,,,,,,,,,,,,,,,,,o,3.23300004,CHOCO,TRUE,,,,,,,188,xocolata,Catalan,Sounds/cat_xocolata.mp3,2020-06-08_18h24.16.200,TranslationElicitation_eng-prolific,3.2.4,MacIntel,60,5eb450d3f625d5290ee37303,,1,0,81,79,1,80
,,,,,,,,,,,,,,,,,,,,,,,,,,,,,,,,,,,,,,,,,l,3.615999937,CHOCOL,TRUE,,,,,,,188,xocolata,Catalan,Sounds/cat_xocolata.mp3,2020-06-08_18h24.16.200,TranslationElicitation_eng-prolific,3.2.4,MacIntel,60,5eb450d3f625d5290ee37303,,1,0,81,79,1,80
,,,,,,,,,,,,,,,,,,,,,,,,,,,,,,,,,,,,,,,,,a,3.733999968,CHOCOLA,TRUE,,,,,,,188,xocolata,Catalan,Sounds/cat_xocolata.mp3,2020-06-08_18h24.16.200,TranslationElicitation_eng-prolific,3.2.4,MacIntel,60,5eb450d3f625d5290ee37303,,1,0,81,79,1,80
,,,,,,,,,,,,,,,,,,,,,,,,,,,,,,,,,,,,,,,,,t,3.868000031,CHOCOLAT,TRUE,,,,,,,188,xocolata,Catalan,Sounds/cat_xocolata.mp3,2020-06-08_18h24.16.200,TranslationElicitation_eng-prolific,3.2.4,MacIntel,60,5eb450d3f625d5290ee37303,,1,0,81,79,1,80
,,,,,,,,,,,,,,,,,,,,,,,,,,,,,,,,,,,,,,,,,e,4.01699996,CHOCOLATE,TRUE,,,,,,,188,xocolata,Catalan,Sounds/cat_xocolata.mp3,2020-06-08_18h24.16.200,TranslationElicitation_eng-prolific,3.2.4,MacIntel,60,5eb450d3f625d5290ee37303,,1,0,81,79,1,80
,,,,,,,,,,,,,,,,,,,,,,,,,,,,,,,,,,,,,,,,,return,5.084000111,CHOCOLATE,TRUE,,,,,,,188,xocolata,Catalan,Sounds/cat_xocolata.mp3,2020-06-08_18h24.16.200,TranslationElicitation_eng-prolific,3.2.4,MacIntel,60,5eb450d3f625d5290ee37303,5.084000111,1,0,81,79,1,80
,,,,,,,,,,,,,,,,,,,,,,,,,,,,,,,,,,,,,,,,,,,,,,,,,,,188,xocolata,Catalan,Sounds/cat_xocolata.mp3,2020-06-08_18h24.16.200,TranslationElicitation_eng-prolific,3.2.4,MacIntel,60,5eb450d3f625d5290ee37303,,1,0,81,79,1,80
,,,,,,,,,,,,,,,,,,,,,,,,,,,,,,,,,,,,,,,,,b,2.233999968,B,FALSE,,,,,,,149,llibre,Catalan,Sounds/cat_llibre.mp3,2020-06-08_18h24.16.200,TranslationElicitation_eng-prolific,3.2.4,MacIntel,60,5eb450d3f625d5290ee37303,,1,0,81,42,1,80
,,,,,,,,,,,,,,,,,,,,,,,,,,,,,,,,,,,,,,,,,o,2.500999928,BO,FALSE,,,,,,,149,llibre,Catalan,Sounds/cat_llibre.mp3,2020-06-08_18h24.16.200,TranslationElicitation_eng-prolific,3.2.4,MacIntel,60,5eb450d3f625d5290ee37303,,1,0,81,42,1,80
,,,,,,,,,,,,,,,,,,,,,,,,,,,,,,,,,,,,,,,,,backspace,2.782999992,B,TRUE,,,,,,,149,llibre,Catalan,Sounds/cat_llibre.mp3,2020-06-08_18h24.16.200,TranslationElicitation_eng-prolific,3.2.4,MacIntel,60,5eb450d3f625d5290ee37303,,1,0,81,42,1,80
,,,,,,,,,,,,,,,,,,,,,,,,,,,,,,,,,,,,,,,,,backspace,2.900999784,,TRUE,,,,,,,149,llibre,Catalan,Sounds/cat_llibre.mp3,2020-06-08_18h24.16.200,TranslationElicitation_eng-prolific,3.2.4,MacIntel,60,5eb450d3f625d5290ee37303,,1,0,81,42,1,80
,,,,,,,,,,,,,,,,,,,,,,,,,,,,,,,,,,,,,,,,,l,3.299999952,L,TRUE,,,,,,,149,llibre,Catalan,Sounds/cat_llibre.mp3,2020-06-08_18h24.16.200,TranslationElicitation_eng-prolific,3.2.4,MacIntel,60,5eb450d3f625d5290ee37303,,1,0,81,42,1,80
,,,,,,,,,,,,,,,,,,,,,,,,,,,,,,,,,,,,,,,,,i,3.383999825,LI,TRUE,,,,,,,149,llibre,Catalan,Sounds/cat_llibre.mp3,2020-06-08_18h24.16.200,TranslationElicitation_eng-prolific,3.2.4,MacIntel,60,5eb450d3f625d5290ee37303,,1,0,81,42,1,80
,,,,,,,,,,,,,,,,,,,,,,,,,,,,,,,,,,,,,,,,,b,3.632999897,LIB,TRUE,,,,,,,149,llibre,Catalan,Sounds/cat_llibre.mp3,2020-06-08_18h24.16.200,TranslationElicitation_eng-prolific,3.2.4,MacIntel,60,5eb450d3f625d5290ee37303,,1,0,81,42,1,80
,,,,,,,,,,,,,,,,,,,,,,,,,,,,,,,,,,,,,,,,,a,3.733999968,LIBA,TRUE,,,,,,,149,llibre,Catalan,Sounds/cat_llibre.mp3,2020-06-08_18h24.16.200,TranslationElicitation_eng-prolific,3.2.4,MacIntel,60,5eb450d3f625d5290ee37303,,1,0,81,42,1,80
,,,,,,,,,,,,,,,,,,,,,,,,,,,,,,,,,,,,,,,,,r,3.949999809,LIBAR,TRUE,,,,,,,149,llibre,Catalan,Sounds/cat_llibre.mp3,2020-06-08_18h24.16.200,TranslationElicitation_eng-prolific,3.2.4,MacIntel,60,5eb450d3f625d5290ee37303,,1,0,81,42,1,80
,,,,,,,,,,,,,,,,,,,,,,,,,,,,,,,,,,,,,,,,,y,4.05099988,LIBARY,TRUE,,,,,,,149,llibre,Catalan,Sounds/cat_llibre.mp3,2020-06-08_18h24.16.200,TranslationElicitation_eng-prolific,3.2.4,MacIntel,60,5eb450d3f625d5290ee37303,,1,0,81,42,1,80
,,,,,,,,,,,,,,,,,,,,,,,,,,,,,,,,,,,,,,,,,return,4.434000015,LIBARY,TRUE,,,,,,,149,llibre,Catalan,Sounds/cat_llibre.mp3,2020-06-08_18h24.16.200,TranslationElicitation_eng-prolific,3.2.4,MacIntel,60,5eb450d3f625d5290ee37303,4.434000015,1,0,81,42,1,80
,,,,,,,,,,,,,,,,,,,,,,,,,,,,,,,,,,,,,,,,,,,,,,,,,,,149,llibre,Catalan,Sounds/cat_llibre.mp3,2020-06-08_18h24.16.200,TranslationElicitation_eng-prolific,3.2.4,MacIntel,60,5eb450d3f625d5290ee37303,,1,0,81,42,1,80
,,,,,,,,,,,,,,,,,,,,,,,,,,,,,,,,,,,,,,,,,b,3.733999968,B,FALSE,,,,,,,117,boto,Catalan,Sounds/cat_boto.mp3,2020-06-08_18h24.16.200,TranslationElicitation_eng-prolific,3.2.4,MacIntel,60,5eb450d3f625d5290ee37303,,1,0,81,12,1,80
,,,,,,,,,,,,,,,,,,,,,,,,,,,,,,,,,,,,,,,,,o,3.966999769,BO,FALSE,,,,,,,117,boto,Catalan,Sounds/cat_boto.mp3,2020-06-08_18h24.16.200,TranslationElicitation_eng-prolific,3.2.4,MacIntel,60,5eb450d3f625d5290ee37303,,1,0,81,12,1,80
,,,,,,,,,,,,,,,,,,,,,,,,,,,,,,,,,,,,,,,,,t,4.099999905,BOT,FALSE,,,,,,,117,boto,Catalan,Sounds/cat_boto.mp3,2020-06-08_18h24.16.200,TranslationElicitation_eng-prolific,3.2.4,MacIntel,60,5eb450d3f625d5290ee37303,,1,0,81,12,1,80
,,,,,,,,,,,,,,,,,,,,,,,,,,,,,,,,,,,,,,,,,t,4.250999928,BOTT,FALSE,,,,,,,117,boto,Catalan,Sounds/cat_boto.mp3,2020-06-08_18h24.16.200,TranslationElicitation_eng-prolific,3.2.4,MacIntel,60,5eb450d3f625d5290ee37303,,1,0,81,12,1,80
,,,,,,,,,,,,,,,,,,,,,,,,,,,,,,,,,,,,,,,,,l,4.349999905,BOTTL,FALSE,,,,,,,117,boto,Catalan,Sounds/cat_boto.mp3,2020-06-08_18h24.16.200,TranslationElicitation_eng-prolific,3.2.4,MacIntel,60,5eb450d3f625d5290ee37303,,1,0,81,12,1,80
,,,,,,,,,,,,,,,,,,,,,,,,,,,,,,,,,,,,,,,,,e,4.450999975,BOTTLE,FALSE,,,,,,,117,boto,Catalan,Sounds/cat_boto.mp3,2020-06-08_18h24.16.200,TranslationElicitation_eng-prolific,3.2.4,MacIntel,60,5eb450d3f625d5290ee37303,,1,0,81,12,1,80
,,,,,,,,,,,,,,,,,,,,,,,,,,,,,,,,,,,,,,,,,return,4.599999905,BOTTLE,FALSE,,,,,,,117,boto,Catalan,Sounds/cat_boto.mp3,2020-06-08_18h24.16.200,TranslationElicitation_eng-prolific,3.2.4,MacIntel,60,5eb450d3f625d5290ee37303,4.599999905,1,0,81,12,1,80
,,,,,,,,,,,,,,,,,,,,,,,,,,,,,,,,,,,,,,,,,,,,,,,,,,,117,boto,Catalan,Sounds/cat_boto.mp3,2020-06-08_18h24.16.200,TranslationElicitation_eng-prolific,3.2.4,MacIntel,60,5eb450d3f625d5290ee37303,,1,0,81,12,1,80
,,,,,,,,,,,,,,,,,,,,,,,,,,,,,,,,,,,,,,,,,y,4.332999945,Y,FALSE,,,,,,,150,lloro,Catalan,Sounds/cat_lloro.mp3,2020-06-08_18h24.16.200,TranslationElicitation_eng-prolific,3.2.4,MacIntel,60,5eb450d3f625d5290ee37303,,1,0,81,43,1,80
,,,,,,,,,,,,,,,,,,,,,,,,,,,,,,,,,,,,,,,,,o,4.617000103,YO,FALSE,,,,,,,150,lloro,Catalan,Sounds/cat_lloro.mp3,2020-06-08_18h24.16.200,TranslationElicitation_eng-prolific,3.2.4,MacIntel,60,5eb450d3f625d5290ee37303,,1,0,81,43,1,80
,,,,,,,,,,,,,,,,,,,,,,,,,,,,,,,,,,,,,,,,,y,4.850000143,YOY,FALSE,,,,,,,150,lloro,Catalan,Sounds/cat_lloro.mp3,2020-06-08_18h24.16.200,TranslationElicitation_eng-prolific,3.2.4,MacIntel,60,5eb450d3f625d5290ee37303,,1,0,81,43,1,80
,,,,,,,,,,,,,,,,,,,,,,,,,,,,,,,,,,,,,,,,,o,4.916000128,YOYO,FALSE,,,,,,,150,lloro,Catalan,Sounds/cat_lloro.mp3,2020-06-08_18h24.16.200,TranslationElicitation_eng-prolific,3.2.4,MacIntel,60,5eb450d3f625d5290ee37303,,1,0,81,43,1,80
,,,,,,,,,,,,,,,,,,,,,,,,,,,,,,,,,,,,,,,,,return,5.150000095,YOYO,FALSE,,,,,,,150,lloro,Catalan,Sounds/cat_lloro.mp3,2020-06-08_18h24.16.200,TranslationElicitation_eng-prolific,3.2.4,MacIntel,60,5eb450d3f625d5290ee37303,5.150000095,1,0,81,43,1,80
,,,,,,,,,,,,,,,,,,,,,,,,,,,,,,,,,,,,,,,,,,,,,,,,,,,150,lloro,Catalan,Sounds/cat_lloro.mp3,2020-06-08_18h24.16.200,TranslationElicitation_eng-prolific,3.2.4,MacIntel,60,5eb450d3f625d5290ee37303,,1,0,81,43,1,80
,,,,,,,,,,,,,,,,,,,,,,,,,,,,,,,,,,,,,,,,,g,2.200000048,G,FALSE,,,,,,,129,dit,Catalan,Sounds/cat_dit.mp3,2020-06-08_18h24.16.200,TranslationElicitation_eng-prolific,3.2.4,MacIntel,60,5eb450d3f625d5290ee37303,,1,0,81,23,1,80
,,,,,,,,,,,,,,,,,,,,,,,,,,,,,,,,,,,,,,,,,r,2.315999985,GR,FALSE,,,,,,,129,dit,Catalan,Sounds/cat_dit.mp3,2020-06-08_18h24.16.200,TranslationElicitation_eng-prolific,3.2.4,MacIntel,60,5eb450d3f625d5290ee37303,,1,0,81,23,1,80
,,,,,,,,,,,,,,,,,,,,,,,,,,,,,,,,,,,,,,,,,r,2.499000072,GRR,FALSE,,,,,,,129,dit,Catalan,Sounds/cat_dit.mp3,2020-06-08_18h24.16.200,TranslationElicitation_eng-prolific,3.2.4,MacIntel,60,5eb450d3f625d5290ee37303,,1,0,81,23,1,80
,,,,,,,,,,,,,,,,,,,,,,,,,,,,,,,,,,,,,,,,,e,2.782999992,GRRE,FALSE,,,,,,,129,dit,Catalan,Sounds/cat_dit.mp3,2020-06-08_18h24.16.200,TranslationElicitation_eng-prolific,3.2.4,MacIntel,60,5eb450d3f625d5290ee37303,,1,0,81,23,1,80
,,,,,,,,,,,,,,,,,,,,,,,,,,,,,,,,,,,,,,,,,e,2.933000088,GRREE,FALSE,,,,,,,129,dit,Catalan,Sounds/cat_dit.mp3,2020-06-08_18h24.16.200,TranslationElicitation_eng-prolific,3.2.4,MacIntel,60,5eb450d3f625d5290ee37303,,1,0,81,23,1,80
,,,,,,,,,,,,,,,,,,,,,,,,,,,,,,,,,,,,,,,,,d,3.181999922,GRREED,FALSE,,,,,,,129,dit,Catalan,Sounds/cat_dit.mp3,2020-06-08_18h24.16.200,TranslationElicitation_eng-prolific,3.2.4,MacIntel,60,5eb450d3f625d5290ee37303,,1,0,81,23,1,80
,,,,,,,,,,,,,,,,,,,,,,,,,,,,,,,,,,,,,,,,,backspace,3.549000025,GRREE,TRUE,,,,,,,129,dit,Catalan,Sounds/cat_dit.mp3,2020-06-08_18h24.16.200,TranslationElicitation_eng-prolific,3.2.4,MacIntel,60,5eb450d3f625d5290ee37303,,1,0,81,23,1,80
,,,,,,,,,,,,,,,,,,,,,,,,,,,,,,,,,,,,,,,,,backspace,3.683000088,GRRE,TRUE,,,,,,,129,dit,Catalan,Sounds/cat_dit.mp3,2020-06-08_18h24.16.200,TranslationElicitation_eng-prolific,3.2.4,MacIntel,60,5eb450d3f625d5290ee37303,,1,0,81,23,1,80
,,,,,,,,,,,,,,,,,,,,,,,,,,,,,,,,,,,,,,,,,backspace,3.782999992,GRR,TRUE,,,,,,,129,dit,Catalan,Sounds/cat_dit.mp3,2020-06-08_18h24.16.200,TranslationElicitation_eng-prolific,3.2.4,MacIntel,60,5eb450d3f625d5290ee37303,,1,0,81,23,1,80
,,,,,,,,,,,,,,,,,,,,,,,,,,,,,,,,,,,,,,,,,e,4.032999992,GRRE,TRUE,,,,,,,129,dit,Catalan,Sounds/cat_dit.mp3,2020-06-08_18h24.16.200,TranslationElicitation_eng-prolific,3.2.4,MacIntel,60,5eb450d3f625d5290ee37303,,1,0,81,23,1,80
,,,,,,,,,,,,,,,,,,,,,,,,,,,,,,,,,,,,,,,,,backspace,4.315999985,GRR,TRUE,,,,,,,129,dit,Catalan,Sounds/cat_dit.mp3,2020-06-08_18h24.16.200,TranslationElicitation_eng-prolific,3.2.4,MacIntel,60,5eb450d3f625d5290ee37303,,1,0,81,23,1,80
,,,,,,,,,,,,,,,,,,,,,,,,,,,,,,,,,,,,,,,,,backspace,4.46600008,GR,TRUE,,,,,,,129,dit,Catalan,Sounds/cat_dit.mp3,2020-06-08_18h24.16.200,TranslationElicitation_eng-prolific,3.2.4,MacIntel,60,5eb450d3f625d5290ee37303,,1,0,81,23,1,80
,,,,,,,,,,,,,,,,,,,,,,,,,,,,,,,,,,,,,,,,,e,4.617000103,GRE,TRUE,,,,,,,129,dit,Catalan,Sounds/cat_dit.mp3,2020-06-08_18h24.16.200,TranslationElicitation_eng-prolific,3.2.4,MacIntel,60,5eb450d3f625d5290ee37303,,1,0,81,23,1,80
,,,,,,,,,,,,,,,,,,,,,,,,,,,,,,,,,,,,,,,,,e,4.73300004,GREE,TRUE,,,,,,,129,dit,Catalan,Sounds/cat_dit.mp3,2020-06-08_18h24.16.200,TranslationElicitation_eng-prolific,3.2.4,MacIntel,60,5eb450d3f625d5290ee37303,,1,0,81,23,1,80
,,,,,,,,,,,,,,,,,,,,,,,,,,,,,,,,,,,,,,,,,d,4.950000048,GREED,TRUE,,,,,,,129,dit,Catalan,Sounds/cat_dit.mp3,2020-06-08_18h24.16.200,TranslationElicitation_eng-prolific,3.2.4,MacIntel,60,5eb450d3f625d5290ee37303,,1,0,81,23,1,80
,,,,,,,,,,,,,,,,,,,,,,,,,,,,,,,,,,,,,,,,,return,5.200000048,GREED,TRUE,,,,,,,129,dit,Catalan,Sounds/cat_dit.mp3,2020-06-08_18h24.16.200,TranslationElicitation_eng-prolific,3.2.4,MacIntel,60,5eb450d3f625d5290ee37303,5.200000048,1,0,81,23,1,80
,,,,,,,,,,,,,,,,,,,,,,,,,,,,,,,,,,,,,,,,,,,,,,,,,,,129,dit,Catalan,Sounds/cat_dit.mp3,2020-06-08_18h24.16.200,TranslationElicitation_eng-prolific,3.2.4,MacIntel,60,5eb450d3f625d5290ee37303,,1,0,81,23,1,80
,,,,,,,,,,,,,,,,,,,,,,,,,,,,,,,,,,,,,,,,,n,2.566999912,N,FALSE,,,,,,,158,nas,Catalan,Sounds/cat_nas.mp3,2020-06-08_18h24.16.200,TranslationElicitation_eng-prolific,3.2.4,MacIntel,60,5eb450d3f625d5290ee37303,,1,0,81,51,1,80
,,,,,,,,,,,,,,,,,,,,,,,,,,,,,,,,,,,,,,,,,o,2.801999807,NO,FALSE,,,,,,,158,nas,Catalan,Sounds/cat_nas.mp3,2020-06-08_18h24.16.200,TranslationElicitation_eng-prolific,3.2.4,MacIntel,60,5eb450d3f625d5290ee37303,,1,0,81,51,1,80
,,,,,,,,,,,,,,,,,,,,,,,,,,,,,,,,,,,,,,,,,t,2.950999975,NOT,FALSE,,,,,,,158,nas,Catalan,Sounds/cat_nas.mp3,2020-06-08_18h24.16.200,TranslationElicitation_eng-prolific,3.2.4,MacIntel,60,5eb450d3f625d5290ee37303,,1,0,81,51,1,80
,,,,,,,,,,,,,,,,,,,,,,,,,,,,,,,,,,,,,,,,,return,3.601999998,NOT,FALSE,,,,,,,158,nas,Catalan,Sounds/cat_nas.mp3,2020-06-08_18h24.16.200,TranslationElicitation_eng-prolific,3.2.4,MacIntel,60,5eb450d3f625d5290ee37303,3.601999998,1,0,81,51,1,80
,,,,,,,,,,,,,,,,,,,,,,,,,,,,,,,,,,,,,,,,,,,,,,,,,,,158,nas,Catalan,Sounds/cat_nas.mp3,2020-06-08_18h24.16.200,TranslationElicitation_eng-prolific,3.2.4,MacIntel,60,5eb450d3f625d5290ee37303,,1,0,81,51,1,80
,,,,,,,,,,,,,,,,,,,,,,,,,,,,,,,,,,,,,,,,,i,1.651000023,I,FALSE,,,,,,,138,galeta,Catalan,Sounds/cat_galeta.mp3,2020-06-08_18h24.16.200,TranslationElicitation_eng-prolific,3.2.4,MacIntel,60,5eb450d3f625d5290ee37303,,1,0,81,32,1,80
,,,,,,,,,,,,,,,,,,,,,,,,,,,,,,,,,,,,,,,,,c,1.768000126,IC,FALSE,,,,,,,138,galeta,Catalan,Sounds/cat_galeta.mp3,2020-06-08_18h24.16.200,TranslationElicitation_eng-prolific,3.2.4,MacIntel,60,5eb450d3f625d5290ee37303,,1,0,81,32,1,80
,,,,,,,,,,,,,,,,,,,,,,,,,,,,,,,,,,,,,,,,,e,1.950000048,ICE,FALSE,,,,,,,138,galeta,Catalan,Sounds/cat_galeta.mp3,2020-06-08_18h24.16.200,TranslationElicitation_eng-prolific,3.2.4,MacIntel,60,5eb450d3f625d5290ee37303,,1,0,81,32,1,80
,,,,,,,,,,,,,,,,,,,,,,,,,,,,,,,,,,,,,,,,,c,2.434000015,ICEC,FALSE,,,,,,,138,galeta,Catalan,Sounds/cat_galeta.mp3,2020-06-08_18h24.16.200,TranslationElicitation_eng-prolific,3.2.4,MacIntel,60,5eb450d3f625d5290ee37303,,1,0,81,32,1,80
,,,,,,,,,,,,,,,,,,,,,,,,,,,,,,,,,,,,,,,,,r,2.583000183,ICECR,FALSE,,,,,,,138,galeta,Catalan,Sounds/cat_galeta.mp3,2020-06-08_18h24.16.200,TranslationElicitation_eng-prolific,3.2.4,MacIntel,60,5eb450d3f625d5290ee37303,,1,0,81,32,1,80
,,,,,,,,,,,,,,,,,,,,,,,,,,,,,,,,,,,,,,,,,e,2.751000166,ICECRE,FALSE,,,,,,,138,galeta,Catalan,Sounds/cat_galeta.mp3,2020-06-08_18h24.16.200,TranslationElicitation_eng-prolific,3.2.4,MacIntel,60,5eb450d3f625d5290ee37303,,1,0,81,32,1,80
,,,,,,,,,,,,,,,,,,,,,,,,,,,,,,,,,,,,,,,,,a,2.950999975,ICECREA,FALSE,,,,,,,138,galeta,Catalan,Sounds/cat_galeta.mp3,2020-06-08_18h24.16.200,TranslationElicitation_eng-prolific,3.2.4,MacIntel,60,5eb450d3f625d5290ee37303,,1,0,81,32,1,80
,,,,,,,,,,,,,,,,,,,,,,,,,,,,,,,,,,,,,,,,,m,3.084000111,ICECREAM,FALSE,,,,,,,138,galeta,Catalan,Sounds/cat_galeta.mp3,2020-06-08_18h24.16.200,TranslationElicitation_eng-prolific,3.2.4,MacIntel,60,5eb450d3f625d5290ee37303,,1,0,81,32,1,80
,,,,,,,,,,,,,,,,,,,,,,,,,,,,,,,,,,,,,,,,,return,3.417999983,ICECREAM,FALSE,,,,,,,138,galeta,Catalan,Sounds/cat_galeta.mp3,2020-06-08_18h24.16.200,TranslationElicitation_eng-prolific,3.2.4,MacIntel,60,5eb450d3f625d5290ee37303,3.417999983,1,0,81,32,1,80
,,,,,,,,,,,,,,,,,,,,,,,,,,,,,,,,,,,,,,,,,,,,,,,,,,,138,galeta,Catalan,Sounds/cat_galeta.mp3,2020-06-08_18h24.16.200,TranslationElicitation_eng-prolific,3.2.4,MacIntel,60,5eb450d3f625d5290ee37303,,1,0,81,32,1,80
,,,,,,,,,,,,,,,,,,,,,,,,,,,,,,,,,,,,,,,,,s,4.550000191,S,FALSE,,,,,,,176,samarreta,Catalan,Sounds/cat_samarreta.mp3,2020-06-08_18h24.16.200,TranslationElicitation_eng-prolific,3.2.4,MacIntel,60,5eb450d3f625d5290ee37303,,1,0,81,68,1,80
,,,,,,,,,,,,,,,,,,,,,,,,,,,,,,,,,,,,,,,,,u,4.69900012,SU,FALSE,,,,,,,176,samarreta,Catalan,Sounds/cat_samarreta.mp3,2020-06-08_18h24.16.200,TranslationElicitation_eng-prolific,3.2.4,MacIntel,60,5eb450d3f625d5290ee37303,,1,0,81,68,1,80
,,,,,,,,,,,,,,,,,,,,,,,,,,,,,,,,,,,,,,,,,m,4.934000015,SUM,FALSE,,,,,,,176,samarreta,Catalan,Sounds/cat_samarreta.mp3,2020-06-08_18h24.16.200,TranslationElicitation_eng-prolific,3.2.4,MacIntel,60,5eb450d3f625d5290ee37303,,1,0,81,68,1,80
,,,,,,,,,,,,,,,,,,,,,,,,,,,,,,,,,,,,,,,,,m,5.084000111,SUMM,FALSE,,,,,,,176,samarreta,Catalan,Sounds/cat_samarreta.mp3,2020-06-08_18h24.16.200,TranslationElicitation_eng-prolific,3.2.4,MacIntel,60,5eb450d3f625d5290ee37303,,1,0,81,68,1,80
,,,,,,,,,,,,,,,,,,,,,,,,,,,,,,,,,,,,,,,,,e,5.166000128,SUMME,FALSE,,,,,,,176,samarreta,Catalan,Sounds/cat_samarreta.mp3,2020-06-08_18h24.16.200,TranslationElicitation_eng-prolific,3.2.4,MacIntel,60,5eb450d3f625d5290ee37303,,1,0,81,68,1,80
,,,,,,,,,,,,,,,,,,,,,,,,,,,,,,,,,,,,,,,,,r,5.23300004,SUMMER,FALSE,,,,,,,176,samarreta,Catalan,Sounds/cat_samarreta.mp3,2020-06-08_18h24.16.200,TranslationElicitation_eng-prolific,3.2.4,MacIntel,60,5eb450d3f625d5290ee37303,,1,0,81,68,1,80
,,,,,,,,,,,,,,,,,,,,,,,,,,,,,,,,,,,,,,,,,return,5.900000095,SUMMER,FALSE,,,,,,,176,samarreta,Catalan,Sounds/cat_samarreta.mp3,2020-06-08_18h24.16.200,TranslationElicitation_eng-prolific,3.2.4,MacIntel,60,5eb450d3f625d5290ee37303,5.900000095,1,0,81,68,1,80
,,,,,,,,,,,,,,,,,,,,,,,,,,,,,,,,,,,,,,,,,,,,,,,,,,,176,samarreta,Catalan,Sounds/cat_samarreta.mp3,2020-06-08_18h24.16.200,TranslationElicitation_eng-prolific,3.2.4,MacIntel,60,5eb450d3f625d5290ee37303,,1,0,81,68,1,80
,,,,,,,,,,,,,,,,,,,,,,,,,,,,,,,,,,,,,,,,,h,3.91899991,H,FALSE,,,,,,,171,pollastre,Catalan,Sounds/cat_pollastre.mp3,2020-06-08_18h24.16.200,TranslationElicitation_eng-prolific,3.2.4,MacIntel,60,5eb450d3f625d5290ee37303,,1,0,81,63,1,80
,,,,,,,,,,,,,,,,,,,,,,,,,,,,,,,,,,,,,,,,,a,4.051999807,HA,FALSE,,,,,,,171,pollastre,Catalan,Sounds/cat_pollastre.mp3,2020-06-08_18h24.16.200,TranslationElicitation_eng-prolific,3.2.4,MacIntel,60,5eb450d3f625d5290ee37303,,1,0,81,63,1,80
,,,,,,,,,,,,,,,,,,,,,,,,,,,,,,,,,,,,,,,,,m,4.151000023,HAM,FALSE,,,,,,,171,pollastre,Catalan,Sounds/cat_pollastre.mp3,2020-06-08_18h24.16.200,TranslationElicitation_eng-prolific,3.2.4,MacIntel,60,5eb450d3f625d5290ee37303,,1,0,81,63,1,80
,,,,,,,,,,,,,,,,,,,,,,,,,,,,,,,,,,,,,,,,,return,4.38499999,HAM,FALSE,,,,,,,171,pollastre,Catalan,Sounds/cat_pollastre.mp3,2020-06-08_18h24.16.200,TranslationElicitation_eng-prolific,3.2.4,MacIntel,60,5eb450d3f625d5290ee37303,4.38499999,1,0,81,63,1,80
,,,,,,,,,,,,,,,,,,,,,,,,,,,,,,,,,,,,,,,,,,,,,,,,,,,171,pollastre,Catalan,Sounds/cat_pollastre.mp3,2020-06-08_18h24.16.200,TranslationElicitation_eng-prolific,3.2.4,MacIntel,60,5eb450d3f625d5290ee37303,,1,0,81,63,1,80
,,,,,,,,,,,,,,,,,,,,,,,,,,,,,,,,,,,,,,,,,b,2.083999872,B,FALSE,,,,,,,165,pernil,Catalan,Sounds/cat_pernil.mp3,2020-06-08_18h24.16.200,TranslationElicitation_eng-prolific,3.2.4,MacIntel,60,5eb450d3f625d5290ee37303,,1,0,81,57,1,80
,,,,,,,,,,,,,,,,,,,,,,,,,,,,,,,,,,,,,,,,,e,2.25,BE,FALSE,,,,,,,165,pernil,Catalan,Sounds/cat_pernil.mp3,2020-06-08_18h24.16.200,TranslationElicitation_eng-prolific,3.2.4,MacIntel,60,5eb450d3f625d5290ee37303,,1,0,81,57,1,80
,,,,,,,,,,,,,,,,,,,,,,,,,,,,,,,,,,,,,,,,,r,2.450000048,BER,FALSE,,,,,,,165,pernil,Catalan,Sounds/cat_pernil.mp3,2020-06-08_18h24.16.200,TranslationElicitation_eng-prolific,3.2.4,MacIntel,60,5eb450d3f625d5290ee37303,,1,0,81,57,1,80
,,,,,,,,,,,,,,,,,,,,,,,,,,,,,,,,,,,,,,,,,l,2.55099988,BERL,FALSE,,,,,,,165,pernil,Catalan,Sounds/cat_pernil.mp3,2020-06-08_18h24.16.200,TranslationElicitation_eng-prolific,3.2.4,MacIntel,60,5eb450d3f625d5290ee37303,,1,0,81,57,1,80
,,,,,,,,,,,,,,,,,,,,,,,,,,,,,,,,,,,,,,,,,i,2.633999825,BERLI,FALSE,,,,,,,165,pernil,Catalan,Sounds/cat_pernil.mp3,2020-06-08_18h24.16.200,TranslationElicitation_eng-prolific,3.2.4,MacIntel,60,5eb450d3f625d5290ee37303,,1,0,81,57,1,80
,,,,,,,,,,,,,,,,,,,,,,,,,,,,,,,,,,,,,,,,,n,2.815999985,BERLIN,FALSE,,,,,,,165,pernil,Catalan,Sounds/cat_pernil.mp3,2020-06-08_18h24.16.200,TranslationElicitation_eng-prolific,3.2.4,MacIntel,60,5eb450d3f625d5290ee37303,,1,0,81,57,1,80
,,,,,,,,,,,,,,,,,,,,,,,,,,,,,,,,,,,,,,,,,return,4.065999985,BERLIN,FALSE,,,,,,,165,pernil,Catalan,Sounds/cat_pernil.mp3,2020-06-08_18h24.16.200,TranslationElicitation_eng-prolific,3.2.4,MacIntel,60,5eb450d3f625d5290ee37303,4.065999985,1,0,81,57,1,80
,,,,,,,,,,,,,,,,,,,,,,,,,,,,,,,,,,,,,,,,,,,,,,,,,,,165,pernil,Catalan,Sounds/cat_pernil.mp3,2020-06-08_18h24.16.200,TranslationElicitation_eng-prolific,3.2.4,MacIntel,60,5eb450d3f625d5290ee37303,,1,0,81,57,1,80
,,,,,,,,,,,,,,,,,,,,,,,,,,,,,,,,,,,,,,,,,r,6.133000135,R,FALSE,,,,,,,181,tobogan,Catalan,Sounds/cat_tobogan.mp3,2020-06-08_18h24.16.200,TranslationElicitation_eng-prolific,3.2.4,MacIntel,60,5eb450d3f625d5290ee37303,,1,0,81,72,1,80
,,,,,,,,,,,,,,,,,,,,,,,,,,,,,,,,,,,,,,,,,u,6.250999928,RU,FALSE,,,,,,,181,tobogan,Catalan,Sounds/cat_tobogan.mp3,2020-06-08_18h24.16.200,TranslationElicitation_eng-prolific,3.2.4,MacIntel,60,5eb450d3f625d5290ee37303,,1,0,81,72,1,80
,,,,,,,,,,,,,,,,,,,,,,,,,,,,,,,,,,,,,,,,,n,6.334000111,RUN,FALSE,,,,,,,181,tobogan,Catalan,Sounds/cat_tobogan.mp3,2020-06-08_18h24.16.200,TranslationElicitation_eng-prolific,3.2.4,MacIntel,60,5eb450d3f625d5290ee37303,,1,0,81,72,1,80
,,,,,,,,,,,,,,,,,,,,,,,,,,,,,,,,,,,,,,,,,return,6.601000071,RUN,FALSE,,,,,,,181,tobogan,Catalan,Sounds/cat_tobogan.mp3,2020-06-08_18h24.16.200,TranslationElicitation_eng-prolific,3.2.4,MacIntel,60,5eb450d3f625d5290ee37303,6.601000071,1,0,81,72,1,80
,,,,,,,,,,,,,,,,,,,,,,,,,,,,,,,,,,,,,,,,,,,,,,,,,,,181,tobogan,Catalan,Sounds/cat_tobogan.mp3,2020-06-08_18h24.16.200,TranslationElicitation_eng-prolific,3.2.4,MacIntel,60,5eb450d3f625d5290ee37303,,1,0,81,72,1,80
,,,,,,,,,,,,,,,,,,,,,,,,,,,,,,,,,,,,,,,,,c,1.698999882,C,FALSE,,,,,,,119,caixa,Catalan,Sounds/cat_caixa.mp3,2020-06-08_18h24.16.200,TranslationElicitation_eng-prolific,3.2.4,MacIntel,60,5eb450d3f625d5290ee37303,,1,0,81,14,1,80
,,,,,,,,,,,,,,,,,,,,,,,,,,,,,,,,,,,,,,,,,a,1.917000055,CA,FALSE,,,,,,,119,caixa,Catalan,Sounds/cat_caixa.mp3,2020-06-08_18h24.16.200,TranslationElicitation_eng-prolific,3.2.4,MacIntel,60,5eb450d3f625d5290ee37303,,1,0,81,14,1,80
,,,,,,,,,,,,,,,,,,,,,,,,,,,,,,,,,,,,,,,,,s,2.049999952,CAS,FALSE,,,,,,,119,caixa,Catalan,Sounds/cat_caixa.mp3,2020-06-08_18h24.16.200,TranslationElicitation_eng-prolific,3.2.4,MacIntel,60,5eb450d3f625d5290ee37303,,1,0,81,14,1,80
,,,,,,,,,,,,,,,,,,,,,,,,,,,,,,,,,,,,,,,,,h,2.23300004,CASH,FALSE,,,,,,,119,caixa,Catalan,Sounds/cat_caixa.mp3,2020-06-08_18h24.16.200,TranslationElicitation_eng-prolific,3.2.4,MacIntel,60,5eb450d3f625d5290ee37303,,1,0,81,14,1,80
,,,,,,,,,,,,,,,,,,,,,,,,,,,,,,,,,,,,,,,,,return,2.75,CASH,FALSE,,,,,,,119,caixa,Catalan,Sounds/cat_caixa.mp3,2020-06-08_18h24.16.200,TranslationElicitation_eng-prolific,3.2.4,MacIntel,60,5eb450d3f625d5290ee37303,2.75,1,0,81,14,1,80
,,,,,,,,,,,,,,,,,,,,,,,,,,,,,,,,,,,,,,,,,,,,,,,,,,,119,caixa,Catalan,Sounds/cat_caixa.mp3,2020-06-08_18h24.16.200,TranslationElicitation_eng-prolific,3.2.4,MacIntel,60,5eb450d3f625d5290ee37303,,1,0,81,14,1,80
,,,,,,,,,,,,,,,,,,,,,,,,,,,,,,,,,,,,,,,,,c,1.899999857,C,FALSE,,,,,,,128,cuc,Catalan,Sounds/cat_cuc.mp3,2020-06-08_18h24.16.200,TranslationElicitation_eng-prolific,3.2.4,MacIntel,60,5eb450d3f625d5290ee37303,,1,0,81,22,1,80
,,,,,,,,,,,,,,,,,,,,,,,,,,,,,,,,,,,,,,,,,o,2.116999865,CO,FALSE,,,,,,,128,cuc,Catalan,Sounds/cat_cuc.mp3,2020-06-08_18h24.16.200,TranslationElicitation_eng-prolific,3.2.4,MacIntel,60,5eb450d3f625d5290ee37303,,1,0,81,22,1,80
,,,,,,,,,,,,,,,,,,,,,,,,,,,,,,,,,,,,,,,,,o,2.250999928,COO,FALSE,,,,,,,128,cuc,Catalan,Sounds/cat_cuc.mp3,2020-06-08_18h24.16.200,TranslationElicitation_eng-prolific,3.2.4,MacIntel,60,5eb450d3f625d5290ee37303,,1,0,81,22,1,80
,,,,,,,,,,,,,,,,,,,,,,,,,,,,,,,,,,,,,,,,,k,2.349999905,COOK,FALSE,,,,,,,128,cuc,Catalan,Sounds/cat_cuc.mp3,2020-06-08_18h24.16.200,TranslationElicitation_eng-prolific,3.2.4,MacIntel,60,5eb450d3f625d5290ee37303,,1,0,81,22,1,80
,,,,,,,,,,,,,,,,,,,,,,,,,,,,,,,,,,,,,,,,,return,2.599999905,COOK,FALSE,,,,,,,128,cuc,Catalan,Sounds/cat_cuc.mp3,2020-06-08_18h24.16.200,TranslationElicitation_eng-prolific,3.2.4,MacIntel,60,5eb450d3f625d5290ee37303,2.599999905,1,0,81,22,1,80
,,,,,,,,,,,,,,,,,,,,,,,,,,,,,,,,,,,,,,,,,,,,,,,,,,,128,cuc,Catalan,Sounds/cat_cuc.mp3,2020-06-08_18h24.16.200,TranslationElicitation_eng-prolific,3.2.4,MacIntel,60,5eb450d3f625d5290ee37303,,1,0,81,22,1,80
,,,,,,,,,,,,,,,,,,,,,,,,,,,,,,,,,,,,,,,,,p,1.584000111,P,FALSE,,,,,,,169,plat,Catalan,Sounds/cat_plat.mp3,2020-06-08_18h24.16.200,TranslationElicitation_eng-prolific,3.2.4,MacIntel,60,5eb450d3f625d5290ee37303,,1,0,81,61,1,80
,,,,,,,,,,,,,,,,,,,,,,,,,,,,,,,,,,,,,,,,,l,1.667000055,PL,FALSE,,,,,,,169,plat,Catalan,Sounds/cat_plat.mp3,2020-06-08_18h24.16.200,TranslationElicitation_eng-prolific,3.2.4,MacIntel,60,5eb450d3f625d5290ee37303,,1,0,81,61,1,80
,,,,,,,,,,,,,,,,,,,,,,,,,,,,,,,,,,,,,,,,,a,2.067000151,PLA,FALSE,,,,,,,169,plat,Catalan,Sounds/cat_plat.mp3,2020-06-08_18h24.16.200,TranslationElicitation_eng-prolific,3.2.4,MacIntel,60,5eb450d3f625d5290ee37303,,1,0,81,61,1,80
,,,,,,,,,,,,,,,,,,,,,,,,,,,,,,,,,,,,,,,,,n,2.200999975,PLAN,FALSE,,,,,,,169,plat,Catalan,Sounds/cat_plat.mp3,2020-06-08_18h24.16.200,TranslationElicitation_eng-prolific,3.2.4,MacIntel,60,5eb450d3f625d5290ee37303,,1,0,81,61,1,80
,,,,,,,,,,,,,,,,,,,,,,,,,,,,,,,,,,,,,,,,,t,2.384000063,PLANT,FALSE,,,,,,,169,plat,Catalan,Sounds/cat_plat.mp3,2020-06-08_18h24.16.200,TranslationElicitation_eng-prolific,3.2.4,MacIntel,60,5eb450d3f625d5290ee37303,,1,0,81,61,1,80
,,,,,,,,,,,,,,,,,,,,,,,,,,,,,,,,,,,,,,,,,return,4.317000151,PLANT,FALSE,,,,,,,169,plat,Catalan,Sounds/cat_plat.mp3,2020-06-08_18h24.16.200,TranslationElicitation_eng-prolific,3.2.4,MacIntel,60,5eb450d3f625d5290ee37303,4.317000151,1,0,81,61,1,80
,,,,,,,,,,,,,,,,,,,,,,,,,,,,,,,,,,,,,,,,,,,,,,,,,,,169,plat,Catalan,Sounds/cat_plat.mp3,2020-06-08_18h24.16.200,TranslationElicitation_eng-prolific,3.2.4,MacIntel,60,5eb450d3f625d5290ee37303,,1,0,81,61,1,80
,,,,,,,,,,,,,,,,,,,,,,,,,,,,,,,,,,,,,,,,,d,4.417000055,D,FALSE,,,,,,,183,tren,Catalan,Sounds/cat_tren.mp3,2020-06-08_18h24.16.200,TranslationElicitation_eng-prolific,3.2.4,MacIntel,60,5eb450d3f625d5290ee37303,,1,0,81,74,1,80
,,,,,,,,,,,,,,,,,,,,,,,,,,,,,,,,,,,,,,,,,r,4.582999945,DR,FALSE,,,,,,,183,tren,Catalan,Sounds/cat_tren.mp3,2020-06-08_18h24.16.200,TranslationElicitation_eng-prolific,3.2.4,MacIntel,60,5eb450d3f625d5290ee37303,,1,0,81,74,1,80
,,,,,,,,,,,,,,,,,,,,,,,,,,,,,,,,,,,,,,,,,a,4.832999945,DRA,FALSE,,,,,,,183,tren,Catalan,Sounds/cat_tren.mp3,2020-06-08_18h24.16.200,TranslationElicitation_eng-prolific,3.2.4,MacIntel,60,5eb450d3f625d5290ee37303,,1,0,81,74,1,80
,,,,,,,,,,,,,,,,,,,,,,,,,,,,,,,,,,,,,,,,,i,4.917000055,DRAI,FALSE,,,,,,,183,tren,Catalan,Sounds/cat_tren.mp3,2020-06-08_18h24.16.200,TranslationElicitation_eng-prolific,3.2.4,MacIntel,60,5eb450d3f625d5290ee37303,,1,0,81,74,1,80
,,,,,,,,,,,,,,,,,,,,,,,,,,,,,,,,,,,,,,,,,n,4.983999968,DRAIN,FALSE,,,,,,,183,tren,Catalan,Sounds/cat_tren.mp3,2020-06-08_18h24.16.200,TranslationElicitation_eng-prolific,3.2.4,MacIntel,60,5eb450d3f625d5290ee37303,,1,0,81,74,1,80
,,,,,,,,,,,,,,,,,,,,,,,,,,,,,,,,,,,,,,,,,backspace,5.316999912,DRAI,TRUE,,,,,,,183,tren,Catalan,Sounds/cat_tren.mp3,2020-06-08_18h24.16.200,TranslationElicitation_eng-prolific,3.2.4,MacIntel,60,5eb450d3f625d5290ee37303,,1,0,81,74,1,80
,,,,,,,,,,,,,,,,,,,,,,,,,,,,,,,,,,,,,,,,,backspace,5.467000008,DRA,TRUE,,,,,,,183,tren,Catalan,Sounds/cat_tren.mp3,2020-06-08_18h24.16.200,TranslationElicitation_eng-prolific,3.2.4,MacIntel,60,5eb450d3f625d5290ee37303,,1,0,81,74,1,80
,,,,,,,,,,,,,,,,,,,,,,,,,,,,,,,,,,,,,,,,,backspace,5.582999945,DR,TRUE,,,,,,,183,tren,Catalan,Sounds/cat_tren.mp3,2020-06-08_18h24.16.200,TranslationElicitation_eng-prolific,3.2.4,MacIntel,60,5eb450d3f625d5290ee37303,,1,0,81,74,1,80
,,,,,,,,,,,,,,,,,,,,,,,,,,,,,,,,,,,,,,,,,backspace,5.700999975,D,TRUE,,,,,,,183,tren,Catalan,Sounds/cat_tren.mp3,2020-06-08_18h24.16.200,TranslationElicitation_eng-prolific,3.2.4,MacIntel,60,5eb450d3f625d5290ee37303,,1,0,81,74,1,80
,,,,,,,,,,,,,,,,,,,,,,,,,,,,,,,,,,,,,,,,,backspace,5.816999912,,TRUE,,,,,,,183,tren,Catalan,Sounds/cat_tren.mp3,2020-06-08_18h24.16.200,TranslationElicitation_eng-prolific,3.2.4,MacIntel,60,5eb450d3f625d5290ee37303,,1,0,81,74,1,80
,,,,,,,,,,,,,,,,,,,,,,,,,,,,,,,,,,,,,,,,,backspace,5.917000055,,TRUE,,,,,,,183,tren,Catalan,Sounds/cat_tren.mp3,2020-06-08_18h24.16.200,TranslationElicitation_eng-prolific,3.2.4,MacIntel,60,5eb450d3f625d5290ee37303,,1,0,81,74,1,80
,,,,,,,,,,,,,,,,,,,,,,,,,,,,,,,,,,,,,,,,,t,6,T,TRUE,,,,,,,183,tren,Catalan,Sounds/cat_tren.mp3,2020-06-08_18h24.16.200,TranslationElicitation_eng-prolific,3.2.4,MacIntel,60,5eb450d3f625d5290ee37303,,1,0,81,74,1,80
,,,,,,,,,,,,,,,,,,,,,,,,,,,,,,,,,,,,,,,,,r,6.083999872,TR,TRUE,,,,,,,183,tren,Catalan,Sounds/cat_tren.mp3,2020-06-08_18h24.16.200,TranslationElicitation_eng-prolific,3.2.4,MacIntel,60,5eb450d3f625d5290ee37303,,1,0,81,74,1,80
,,,,,,,,,,,,,,,,,,,,,,,,,,,,,,,,,,,,,,,,,a,6.382999897,TRA,TRUE,,,,,,,183,tren,Catalan,Sounds/cat_tren.mp3,2020-06-08_18h24.16.200,TranslationElicitation_eng-prolific,3.2.4,MacIntel,60,5eb450d3f625d5290ee37303,,1,0,81,74,1,80
,,,,,,,,,,,,,,,,,,,,,,,,,,,,,,,,,,,,,,,,,i,6.582999945,TRAI,TRUE,,,,,,,183,tren,Catalan,Sounds/cat_tren.mp3,2020-06-08_18h24.16.200,TranslationElicitation_eng-prolific,3.2.4,MacIntel,60,5eb450d3f625d5290ee37303,,1,0,81,74,1,80
,,,,,,,,,,,,,,,,,,,,,,,,,,,,,,,,,,,,,,,,,n,6.649999857,TRAIN,TRUE,,,,,,,183,tren,Catalan,Sounds/cat_tren.mp3,2020-06-08_18h24.16.200,TranslationElicitation_eng-prolific,3.2.4,MacIntel,60,5eb450d3f625d5290ee37303,,1,0,81,74,1,80
,,,,,,,,,,,,,,,,,,,,,,,,,,,,,,,,,,,,,,,,,return,6.884000063,TRAIN,TRUE,,,,,,,183,tren,Catalan,Sounds/cat_tren.mp3,2020-06-08_18h24.16.200,TranslationElicitation_eng-prolific,3.2.4,MacIntel,60,5eb450d3f625d5290ee37303,6.884000063,1,0,81,74,1,80
,,,,,,,,,,,,,,,,,,,,,,,,,,,,,,,,,,,,,,,,,,,,,,,,,,,183,tren,Catalan,Sounds/cat_tren.mp3,2020-06-08_18h24.16.200,TranslationElicitation_eng-prolific,3.2.4,MacIntel,60,5eb450d3f625d5290ee37303,,1,0,81,74,1,80
,,,,,,,,,,,,,,,,,,,,,,,,,,,,,,,,,,,,,,,,,g,2.983999968,G,FALSE,,,,,,,186,ungla,Catalan,Sounds/cat_ungla.mp3,2020-06-08_18h24.16.200,TranslationElicitation_eng-prolific,3.2.4,MacIntel,60,5eb450d3f625d5290ee37303,,1,0,81,77,1,80
,,,,,,,,,,,,,,,,,,,,,,,,,,,,,,,,,,,,,,,,,o,3.13499999,GO,FALSE,,,,,,,186,ungla,Catalan,Sounds/cat_ungla.mp3,2020-06-08_18h24.16.200,TranslationElicitation_eng-prolific,3.2.4,MacIntel,60,5eb450d3f625d5290ee37303,,1,0,81,77,1,80
,,,,,,,,,,,,,,,,,,,,,,,,,,,,,,,,,,,,,,,,,o,3.268000126,GOO,FALSE,,,,,,,186,ungla,Catalan,Sounds/cat_ungla.mp3,2020-06-08_18h24.16.200,TranslationElicitation_eng-prolific,3.2.4,MacIntel,60,5eb450d3f625d5290ee37303,,1,0,81,77,1,80
,,,,,,,,,,,,,,,,,,,,,,,,,,,,,,,,,,,,,,,,,g,3.483999968,GOOG,FALSE,,,,,,,186,ungla,Catalan,Sounds/cat_ungla.mp3,2020-06-08_18h24.16.200,TranslationElicitation_eng-prolific,3.2.4,MacIntel,60,5eb450d3f625d5290ee37303,,1,0,81,77,1,80
,,,,,,,,,,,,,,,,,,,,,,,,,,,,,,,,,,,,,,,,,l,3.617000103,GOOGL,FALSE,,,,,,,186,ungla,Catalan,Sounds/cat_ungla.mp3,2020-06-08_18h24.16.200,TranslationElicitation_eng-prolific,3.2.4,MacIntel,60,5eb450d3f625d5290ee37303,,1,0,81,77,1,80
,,,,,,,,,,,,,,,,,,,,,,,,,,,,,,,,,,,,,,,,,e,3.969000101,GOOGLE,FALSE,,,,,,,186,ungla,Catalan,Sounds/cat_ungla.mp3,2020-06-08_18h24.16.200,TranslationElicitation_eng-prolific,3.2.4,MacIntel,60,5eb450d3f625d5290ee37303,,1,0,81,77,1,80
,,,,,,,,,,,,,,,,,,,,,,,,,,,,,,,,,,,,,,,,,return,4.26699996,GOOGLE,FALSE,,,,,,,186,ungla,Catalan,Sounds/cat_ungla.mp3,2020-06-08_18h24.16.200,TranslationElicitation_eng-prolific,3.2.4,MacIntel,60,5eb450d3f625d5290ee37303,4.26699996,1,0,81,77,1,80
,,,,,,,,,,,,,,,,,,,,,,,,,,,,,,,,,,,,,,,,,,,,,,,,,,,186,ungla,Catalan,Sounds/cat_ungla.mp3,2020-06-08_18h24.16.200,TranslationElicitation_eng-prolific,3.2.4,MacIntel,60,5eb450d3f625d5290ee37303,,1,0,81,77,1,80
,,,,,,,,,,,,,,,,,,,,,,,,,,,,,,,,,,,,,,,,,a,2.667000055,A,FALSE,,,,,,,104,abella,Catalan,Sounds/cat_abella.mp3,2020-06-08_18h24.16.200,TranslationElicitation_eng-prolific,3.2.4,MacIntel,60,5eb450d3f625d5290ee37303,,1,0,81,0,1,80
,,,,,,,,,,,,,,,,,,,,,,,,,,,,,,,,,,,,,,,,,r,2.815999985,AR,FALSE,,,,,,,104,abella,Catalan,Sounds/cat_abella.mp3,2020-06-08_18h24.16.200,TranslationElicitation_eng-prolific,3.2.4,MacIntel,60,5eb450d3f625d5290ee37303,,1,0,81,0,1,80
,,,,,,,,,,,,,,,,,,,,,,,,,,,,,,,,,,,,,,,,,r,2.934000015,ARR,FALSE,,,,,,,104,abella,Catalan,Sounds/cat_abella.mp3,2020-06-08_18h24.16.200,TranslationElicitation_eng-prolific,3.2.4,MacIntel,60,5eb450d3f625d5290ee37303,,1,0,81,0,1,80
,,,,,,,,,,,,,,,,,,,,,,,,,,,,,,,,,,,,,,,,,i,3.184000015,ARRI,FALSE,,,,,,,104,abella,Catalan,Sounds/cat_abella.mp3,2020-06-08_18h24.16.200,TranslationElicitation_eng-prolific,3.2.4,MacIntel,60,5eb450d3f625d5290ee37303,,1,0,81,0,1,80
,,,,,,,,,,,,,,,,,,,,,,,,,,,,,,,,,,,,,,,,,v,3.384000063,ARRIV,FALSE,,,,,,,104,abella,Catalan,Sounds/cat_abella.mp3,2020-06-08_18h24.16.200,TranslationElicitation_eng-prolific,3.2.4,MacIntel,60,5eb450d3f625d5290ee37303,,1,0,81,0,1,80
,,,,,,,,,,,,,,,,,,,,,,,,,,,,,,,,,,,,,,,,,e,3.399999857,ARRIVE,FALSE,,,,,,,104,abella,Catalan,Sounds/cat_abella.mp3,2020-06-08_18h24.16.200,TranslationElicitation_eng-prolific,3.2.4,MacIntel,60,5eb450d3f625d5290ee37303,,1,0,81,0,1,80
,,,,,,,,,,,,,,,,,,,,,,,,,,,,,,,,,,,,,,,,,return,3.934000015,ARRIVE,FALSE,,,,,,,104,abella,Catalan,Sounds/cat_abella.mp3,2020-06-08_18h24.16.200,TranslationElicitation_eng-prolific,3.2.4,MacIntel,60,5eb450d3f625d5290ee37303,3.934000015,1,0,81,0,1,80
,,,,,,,,,,,,,,,,,,,,,,,,,,,,,,,,,,,,,,,,,,,,,,,,,,,104,abella,Catalan,Sounds/cat_abella.mp3,2020-06-08_18h24.16.200,TranslationElicitation_eng-prolific,3.2.4,MacIntel,60,5eb450d3f625d5290ee37303,,1,0,81,0,1,80
,,,,,,,,,,,,,,,,,,,,,,,,,,,,,,,,,,,,,,,,,m,4.53399992,M,FALSE,,,,,,,153,mico,Catalan,Sounds/cat_mico.mp3,2020-06-08_18h24.16.200,TranslationElicitation_eng-prolific,3.2.4,MacIntel,60,5eb450d3f625d5290ee37303,,1,0,81,46,1,80
,,,,,,,,,,,,,,,,,,,,,,,,,,,,,,,,,,,,,,,,,e,4.600999832,ME,FALSE,,,,,,,153,mico,Catalan,Sounds/cat_mico.mp3,2020-06-08_18h24.16.200,TranslationElicitation_eng-prolific,3.2.4,MacIntel,60,5eb450d3f625d5290ee37303,,1,0,81,46,1,80
,,,,,,,,,,,,,,,,,,,,,,,,,,,,,,,,,,,,,,,,,return,5.30099988,ME,FALSE,,,,,,,153,mico,Catalan,Sounds/cat_mico.mp3,2020-06-08_18h24.16.200,TranslationElicitation_eng-prolific,3.2.4,MacIntel,60,5eb450d3f625d5290ee37303,5.30099988,1,0,81,46,1,80
,,,,,,,,,,,,,,,,,,,,,,,,,,,,,,,,,,,,,,,,,,,,,,,,,,,153,mico,Catalan,Sounds/cat_mico.mp3,2020-06-08_18h24.16.200,TranslationElicitation_eng-prolific,3.2.4,MacIntel,60,5eb450d3f625d5290ee37303,,1,0,81,46,1,80
,,,,,,,,,,,,,,,,,,,,,,,,,,,,,,,,,,,,,,,,,f,1.517999887,F,FALSE,,,,,,,134,flor,Catalan,Sounds/cat_flor.mp3,2020-06-08_18h24.16.200,TranslationElicitation_eng-prolific,3.2.4,MacIntel,60,5eb450d3f625d5290ee37303,,1,0,81,28,1,80
,,,,,,,,,,,,,,,,,,,,,,,,,,,,,,,,,,,,,,,,,l,1.667999983,FL,FALSE,,,,,,,134,flor,Catalan,Sounds/cat_flor.mp3,2020-06-08_18h24.16.200,TranslationElicitation_eng-prolific,3.2.4,MacIntel,60,5eb450d3f625d5290ee37303,,1,0,81,28,1,80
,,,,,,,,,,,,,,,,,,,,,,,,,,,,,,,,,,,,,,,,,o,1.833999872,FLO,FALSE,,,,,,,134,flor,Catalan,Sounds/cat_flor.mp3,2020-06-08_18h24.16.200,TranslationElicitation_eng-prolific,3.2.4,MacIntel,60,5eb450d3f625d5290ee37303,,1,0,81,28,1,80
,,,,,,,,,,,,,,,,,,,,,,,,,,,,,,,,,,,,,,,,,w,1.901000023,FLOW,FALSE,,,,,,,134,flor,Catalan,Sounds/cat_flor.mp3,2020-06-08_18h24.16.200,TranslationElicitation_eng-prolific,3.2.4,MacIntel,60,5eb450d3f625d5290ee37303,,1,0,81,28,1,80
,,,,,,,,,,,,,,,,,,,,,,,,,,,,,,,,,,,,,,,,,e,2.000999928,FLOWE,FALSE,,,,,,,134,flor,Catalan,Sounds/cat_flor.mp3,2020-06-08_18h24.16.200,TranslationElicitation_eng-prolific,3.2.4,MacIntel,60,5eb450d3f625d5290ee37303,,1,0,81,28,1,80
,,,,,,,,,,,,,,,,,,,,,,,,,,,,,,,,,,,,,,,,,r,2.184000015,FLOWER,FALSE,,,,,,,134,flor,Catalan,Sounds/cat_flor.mp3,2020-06-08_18h24.16.200,TranslationElicitation_eng-prolific,3.2.4,MacIntel,60,5eb450d3f625d5290ee37303,,1,0,81,28,1,80
,,,,,,,,,,,,,,,,,,,,,,,,,,,,,,,,,,,,,,,,,return,2.599999905,FLOWER,FALSE,,,,,,,134,flor,Catalan,Sounds/cat_flor.mp3,2020-06-08_18h24.16.200,TranslationElicitation_eng-prolific,3.2.4,MacIntel,60,5eb450d3f625d5290ee37303,2.599999905,1,0,81,28,1,80
,,,,,,,,,,,,,,,,,,,,,,,,,,,,,,,,,,,,,,,,,,,,,,,,,,,134,flor,Catalan,Sounds/cat_flor.mp3,2020-06-08_18h24.16.200,TranslationElicitation_eng-prolific,3.2.4,MacIntel,60,5eb450d3f625d5290ee37303,,1,0,81,28,1,80
,,,,,,,,,,,,,,,,,,,,,,,,,,,,,,,,,,,,,,,,,c,1.934000015,C,FALSE,,,,,,,127,cotxe,Catalan,Sounds/cat_cotxe.mp3,2020-06-08_18h24.16.200,TranslationElicitation_eng-prolific,3.2.4,MacIntel,60,5eb450d3f625d5290ee37303,,1,0,81,21,1,80
,,,,,,,,,,,,,,,,,,,,,,,,,,,,,,,,,,,,,,,,,a,2.149999857,CA,FALSE,,,,,,,127,cotxe,Catalan,Sounds/cat_cotxe.mp3,2020-06-08_18h24.16.200,TranslationElicitation_eng-prolific,3.2.4,MacIntel,60,5eb450d3f625d5290ee37303,,1,0,81,21,1,80
,,,,,,,,,,,,,,,,,,,,,,,,,,,,,,,,,,,,,,,,,t,2.416999817,CAT,FALSE,,,,,,,127,cotxe,Catalan,Sounds/cat_cotxe.mp3,2020-06-08_18h24.16.200,TranslationElicitation_eng-prolific,3.2.4,MacIntel,60,5eb450d3f625d5290ee37303,,1,0,81,21,1,80
,,,,,,,,,,,,,,,,,,,,,,,,,,,,,,,,,,,,,,,,,c,2.566999912,CATC,FALSE,,,,,,,127,cotxe,Catalan,Sounds/cat_cotxe.mp3,2020-06-08_18h24.16.200,TranslationElicitation_eng-prolific,3.2.4,MacIntel,60,5eb450d3f625d5290ee37303,,1,0,81,21,1,80
,,,,,,,,,,,,,,,,,,,,,,,,,,,,,,,,,,,,,,,,,h,2.699999809,CATCH,FALSE,,,,,,,127,cotxe,Catalan,Sounds/cat_cotxe.mp3,2020-06-08_18h24.16.200,TranslationElicitation_eng-prolific,3.2.4,MacIntel,60,5eb450d3f625d5290ee37303,,1,0,81,21,1,80
,,,,,,,,,,,,,,,,,,,,,,,,,,,,,,,,,,,,,,,,,return,3.165999889,CATCH,FALSE,,,,,,,127,cotxe,Catalan,Sounds/cat_cotxe.mp3,2020-06-08_18h24.16.200,TranslationElicitation_eng-prolific,3.2.4,MacIntel,60,5eb450d3f625d5290ee37303,3.165999889,1,0,81,21,1,80
,,,,,,,,,,,,,,,,,,,,,,,,,,,,,,,,,,,,,,,,,,,,,,,,,,,127,cotxe,Catalan,Sounds/cat_cotxe.mp3,2020-06-08_18h24.16.200,TranslationElicitation_eng-prolific,3.2.4,MacIntel,60,5eb450d3f625d5290ee37303,,1,0,81,21,1,80
,,,,,,,,,,,,,,,,,,,,,,,,,,,,,,,,,,,,,,,,,f,6.134000063,F,FALSE,,,,,,,136,forquilla,Catalan,Sounds/cat_forquilla.mp3,2020-06-08_18h24.16.200,TranslationElicitation_eng-prolific,3.2.4,MacIntel,60,5eb450d3f625d5290ee37303,,1,0,81,30,1,80
,,,,,,,,,,,,,,,,,,,,,,,,,,,,,,,,,,,,,,,,,o,6.301000118,FO,FALSE,,,,,,,136,forquilla,Catalan,Sounds/cat_forquilla.mp3,2020-06-08_18h24.16.200,TranslationElicitation_eng-prolific,3.2.4,MacIntel,60,5eb450d3f625d5290ee37303,,1,0,81,30,1,80
,,,,,,,,,,,,,,,,,,,,,,,,,,,,,,,,,,,,,,,,,r,6.384000063,FOR,FALSE,,,,,,,136,forquilla,Catalan,Sounds/cat_forquilla.mp3,2020-06-08_18h24.16.200,TranslationElicitation_eng-prolific,3.2.4,MacIntel,60,5eb450d3f625d5290ee37303,,1,0,81,30,1,80
,,,,,,,,,,,,,,,,,,,,,,,,,,,,,,,,,,,,,,,,,k,6.468000174,FORK,FALSE,,,,,,,136,forquilla,Catalan,Sounds/cat_forquilla.mp3,2020-06-08_18h24.16.200,TranslationElicitation_eng-prolific,3.2.4,MacIntel,60,5eb450d3f625d5290ee37303,,1,0,81,30,1,80
,,,,,,,,,,,,,,,,,,,,,,,,,,,,,,,,,,,,,,,,,return,6.75,FORK,FALSE,,,,,,,136,forquilla,Catalan,Sounds/cat_forquilla.mp3,2020-06-08_18h24.16.200,TranslationElicitation_eng-prolific,3.2.4,MacIntel,60,5eb450d3f625d5290ee37303,6.75,1,0,81,30,1,80
,,,,,,,,,,,,,,,,,,,,,,,,,,,,,,,,,,,,,,,,,,,,,,,,,,,136,forquilla,Catalan,Sounds/cat_forquilla.mp3,2020-06-08_18h24.16.200,TranslationElicitation_eng-prolific,3.2.4,MacIntel,60,5eb450d3f625d5290ee37303,,1,0,81,30,1,80
,,,,,,,,,,,,,,,,,,,,,,,,,,,,,,,,,,,,,,,,,c,4.200999975,C,FALSE,,,,,,,123,cavall,Catalan,Sounds/cat_cavall.mp3,2020-06-08_18h24.16.200,TranslationElicitation_eng-prolific,3.2.4,MacIntel,60,5eb450d3f625d5290ee37303,,1,0,81,18,1,80
,,,,,,,,,,,,,,,,,,,,,,,,,,,,,,,,,,,,,,,,,a,4.682999849,CA,FALSE,,,,,,,123,cavall,Catalan,Sounds/cat_cavall.mp3,2020-06-08_18h24.16.200,TranslationElicitation_eng-prolific,3.2.4,MacIntel,60,5eb450d3f625d5290ee37303,,1,0,81,18,1,80
,,,,,,,,,,,,,,,,,,,,,,,,,,,,,,,,,,,,,,,,,r,4.965999842,CAR,FALSE,,,,,,,123,cavall,Catalan,Sounds/cat_cavall.mp3,2020-06-08_18h24.16.200,TranslationElicitation_eng-prolific,3.2.4,MacIntel,60,5eb450d3f625d5290ee37303,,1,0,81,18,1,80
,,,,,,,,,,,,,,,,,,,,,,,,,,,,,,,,,,,,,,,,,n,5.184000015,CARN,FALSE,,,,,,,123,cavall,Catalan,Sounds/cat_cavall.mp3,2020-06-08_18h24.16.200,TranslationElicitation_eng-prolific,3.2.4,MacIntel,60,5eb450d3f625d5290ee37303,,1,0,81,18,1,80
,,,,,,,,,,,,,,,,,,,,,,,,,,,,,,,,,,,,,,,,,i,5.366999865,CARNI,FALSE,,,,,,,123,cavall,Catalan,Sounds/cat_cavall.mp3,2020-06-08_18h24.16.200,TranslationElicitation_eng-prolific,3.2.4,MacIntel,60,5eb450d3f625d5290ee37303,,1,0,81,18,1,80
,,,,,,,,,,,,,,,,,,,,,,,,,,,,,,,,,,,,,,,,,v,5.483999968,CARNIV,FALSE,,,,,,,123,cavall,Catalan,Sounds/cat_cavall.mp3,2020-06-08_18h24.16.200,TranslationElicitation_eng-prolific,3.2.4,MacIntel,60,5eb450d3f625d5290ee37303,,1,0,81,18,1,80
,,,,,,,,,,,,,,,,,,,,,,,,,,,,,,,,,,,,,,,,,a,5.717000008,CARNIVA,FALSE,,,,,,,123,cavall,Catalan,Sounds/cat_cavall.mp3,2020-06-08_18h24.16.200,TranslationElicitation_eng-prolific,3.2.4,MacIntel,60,5eb450d3f625d5290ee37303,,1,0,81,18,1,80
,,,,,,,,,,,,,,,,,,,,,,,,,,,,,,,,,,,,,,,,,l,5.832999945,CARNIVAL,FALSE,,,,,,,123,cavall,Catalan,Sounds/cat_cavall.mp3,2020-06-08_18h24.16.200,TranslationElicitation_eng-prolific,3.2.4,MacIntel,60,5eb450d3f625d5290ee37303,,1,0,81,18,1,80
,,,,,,,,,,,,,,,,,,,,,,,,,,,,,,,,,,,,,,,,,return,6.083999872,CARNIVAL,FALSE,,,,,,,123,cavall,Catalan,Sounds/cat_cavall.mp3,2020-06-08_18h24.16.200,TranslationElicitation_eng-prolific,3.2.4,MacIntel,60,5eb450d3f625d5290ee37303,6.083999872,1,0,81,18,1,80
,,,,,,,,,,,,,,,,,,,,,,,,,,,,,,,,,,,,,,,,,,,,,,,,,,,123,cavall,Catalan,Sounds/cat_cavall.mp3,2020-06-08_18h24.16.200,TranslationElicitation_eng-prolific,3.2.4,MacIntel,60,5eb450d3f625d5290ee37303,,1,0,81,18,1,80
,,,,,,,,,,,,,,,,,,,,,,,,,,,,,,,,,,,,,,,,,s,8.601999998,S,FALSE,,,,,,,133,estruc,Catalan,Sounds/cat_estruc.mp3,2020-06-08_18h24.16.200,TranslationElicitation_eng-prolific,3.2.4,MacIntel,60,5eb450d3f625d5290ee37303,,1,0,81,27,1,80
,,,,,,,,,,,,,,,,,,,,,,,,,,,,,,,,,,,,,,,,,t,8.769000053,ST,FALSE,,,,,,,133,estruc,Catalan,Sounds/cat_estruc.mp3,2020-06-08_18h24.16.200,TranslationElicitation_eng-prolific,3.2.4,MacIntel,60,5eb450d3f625d5290ee37303,,1,0,81,27,1,80
,,,,,,,,,,,,,,,,,,,,,,,,,,,,,,,,,,,,,,,,,r,8.951999903,STR,FALSE,,,,,,,133,estruc,Catalan,Sounds/cat_estruc.mp3,2020-06-08_18h24.16.200,TranslationElicitation_eng-prolific,3.2.4,MacIntel,60,5eb450d3f625d5290ee37303,,1,0,81,27,1,80
,,,,,,,,,,,,,,,,,,,,,,,,,,,,,,,,,,,,,,,,,e,9.184999943,STRE,FALSE,,,,,,,133,estruc,Catalan,Sounds/cat_estruc.mp3,2020-06-08_18h24.16.200,TranslationElicitation_eng-prolific,3.2.4,MacIntel,60,5eb450d3f625d5290ee37303,,1,0,81,27,1,80
,,,,,,,,,,,,,,,,,,,,,,,,,,,,,,,,,,,,,,,,,e,9.351999998,STREE,FALSE,,,,,,,133,estruc,Catalan,Sounds/cat_estruc.mp3,2020-06-08_18h24.16.200,TranslationElicitation_eng-prolific,3.2.4,MacIntel,60,5eb450d3f625d5290ee37303,,1,0,81,27,1,80
,,,,,,,,,,,,,,,,,,,,,,,,,,,,,,,,,,,,,,,,,t,9.41899991,STREET,FALSE,,,,,,,133,estruc,Catalan,Sounds/cat_estruc.mp3,2020-06-08_18h24.16.200,TranslationElicitation_eng-prolific,3.2.4,MacIntel,60,5eb450d3f625d5290ee37303,,1,0,81,27,1,80
,,,,,,,,,,,,,,,,,,,,,,,,,,,,,,,,,,,,,,,,,return,9.901000023,STREET,FALSE,,,,,,,133,estruc,Catalan,Sounds/cat_estruc.mp3,2020-06-08_18h24.16.200,TranslationElicitation_eng-prolific,3.2.4,MacIntel,60,5eb450d3f625d5290ee37303,9.901000023,1,0,81,27,1,80
,,,,,,,,,,,,,,,,,,,,,,,,,,,,,,,,,,,,,,,,,,,,,,,,,,,133,estruc,Catalan,Sounds/cat_estruc.mp3,2020-06-08_18h24.16.200,TranslationElicitation_eng-prolific,3.2.4,MacIntel,60,5eb450d3f625d5290ee37303,,1,0,81,27,1,80
,,,,,,,,,,,,,,,,,,,,,,,,,,,,,,,,,,,,,,,,,p,2.482000113,P,FALSE,,,,,,,162,pa,Catalan,Sounds/cat_pa.mp3,2020-06-08_18h24.16.200,TranslationElicitation_eng-prolific,3.2.4,MacIntel,60,5eb450d3f625d5290ee37303,,1,0,81,54,1,80
,,,,,,,,,,,,,,,,,,,,,,,,,,,,,,,,,,,,,,,,,a,2.599000216,PA,FALSE,,,,,,,162,pa,Catalan,Sounds/cat_pa.mp3,2020-06-08_18h24.16.200,TranslationElicitation_eng-prolific,3.2.4,MacIntel,60,5eb450d3f625d5290ee37303,,1,0,81,54,1,80
,,,,,,,,,,,,,,,,,,,,,,,,,,,,,,,,,,,,,,,,,n,2.69900012,PAN,FALSE,,,,,,,162,pa,Catalan,Sounds/cat_pa.mp3,2020-06-08_18h24.16.200,TranslationElicitation_eng-prolific,3.2.4,MacIntel,60,5eb450d3f625d5290ee37303,,1,0,81,54,1,80
,,,,,,,,,,,,,,,,,,,,,,,,,,,,,,,,,,,,,,,,,s,2.832000017,PANS,FALSE,,,,,,,162,pa,Catalan,Sounds/cat_pa.mp3,2020-06-08_18h24.16.200,TranslationElicitation_eng-prolific,3.2.4,MacIntel,60,5eb450d3f625d5290ee37303,,1,0,81,54,1,80
,,,,,,,,,,,,,,,,,,,,,,,,,,,,,,,,,,,,,,,,,return,3.349000216,PANS,FALSE,,,,,,,162,pa,Catalan,Sounds/cat_pa.mp3,2020-06-08_18h24.16.200,TranslationElicitation_eng-prolific,3.2.4,MacIntel,60,5eb450d3f625d5290ee37303,3.349000216,1,0,81,54,1,80
,,,,,,,,,,,,,,,,,,,,,,,,,,,,,,,,,,,,,,,,,,,,,,,,,,,162,pa,Catalan,Sounds/cat_pa.mp3,2020-06-08_18h24.16.200,TranslationElicitation_eng-prolific,3.2.4,MacIntel,60,5eb450d3f625d5290ee37303,,1,0,81,54,1,80
,,,,,,,,,,,,,,,,,,,,,,,,,,,,,,,,,,,,,,,,,m,3.23300004,M,FALSE,,,,,,,112,bici,Catalan,Sounds/cat_bici.mp3,2020-06-08_18h24.16.200,TranslationElicitation_eng-prolific,3.2.4,MacIntel,60,5eb450d3f625d5290ee37303,,1,0,81,7,1,80
,,,,,,,,,,,,,,,,,,,,,,,,,,,,,,,,,,,,,,,,,i,3.465999842,MI,FALSE,,,,,,,112,bici,Catalan,Sounds/cat_bici.mp3,2020-06-08_18h24.16.200,TranslationElicitation_eng-prolific,3.2.4,MacIntel,60,5eb450d3f625d5290ee37303,,1,0,81,7,1,80
,,,,,,,,,,,,,,,,,,,,,,,,,,,,,,,,,,,,,,,,,s,3.598999977,MIS,FALSE,,,,,,,112,bici,Catalan,Sounds/cat_bici.mp3,2020-06-08_18h24.16.200,TranslationElicitation_eng-prolific,3.2.4,MacIntel,60,5eb450d3f625d5290ee37303,,1,0,81,7,1,80
,,,,,,,,,,,,,,,,,,,,,,,,,,,,,,,,,,,,,,,,,s,3.749000072,MISS,FALSE,,,,,,,112,bici,Catalan,Sounds/cat_bici.mp3,2020-06-08_18h24.16.200,TranslationElicitation_eng-prolific,3.2.4,MacIntel,60,5eb450d3f625d5290ee37303,,1,0,81,7,1,80
,,,,,,,,,,,,,,,,,,,,,,,,,,,,,,,,,,,,,,,,,i,3.848999977,MISSI,FALSE,,,,,,,112,bici,Catalan,Sounds/cat_bici.mp3,2020-06-08_18h24.16.200,TranslationElicitation_eng-prolific,3.2.4,MacIntel,60,5eb450d3f625d5290ee37303,,1,0,81,7,1,80
,,,,,,,,,,,,,,,,,,,,,,,,,,,,,,,,,,,,,,,,,n,3.899999857,MISSIN,FALSE,,,,,,,112,bici,Catalan,Sounds/cat_bici.mp3,2020-06-08_18h24.16.200,TranslationElicitation_eng-prolific,3.2.4,MacIntel,60,5eb450d3f625d5290ee37303,,1,0,81,7,1,80
,,,,,,,,,,,,,,,,,,,,,,,,,,,,,,,,,,,,,,,,,g,4.066999912,MISSING,FALSE,,,,,,,112,bici,Catalan,Sounds/cat_bici.mp3,2020-06-08_18h24.16.200,TranslationElicitation_eng-prolific,3.2.4,MacIntel,60,5eb450d3f625d5290ee37303,,1,0,81,7,1,80
,,,,,,,,,,,,,,,,,,,,,,,,,,,,,,,,,,,,,,,,,return,4.565999985,MISSING,FALSE,,,,,,,112,bici,Catalan,Sounds/cat_bici.mp3,2020-06-08_18h24.16.200,TranslationElicitation_eng-prolific,3.2.4,MacIntel,60,5eb450d3f625d5290ee37303,4.565999985,1,0,81,7,1,80
,,,,,,,,,,,,,,,,,,,,,,,,,,,,,,,,,,,,,,,,,,,,,,,,,,,112,bici,Catalan,Sounds/cat_bici.mp3,2020-06-08_18h24.16.200,TranslationElicitation_eng-prolific,3.2.4,MacIntel,60,5eb450d3f625d5290ee37303,,1,0,81,7,1,80
,,,,,,,,,,,,,,,,,,,,,,,,,,,,,,,,,,,,,,,,,b,1.96600008,B,FALSE,,,,,,,114,bol,Catalan,Sounds/cat_bol.mp3,2020-06-08_18h24.16.200,TranslationElicitation_eng-prolific,3.2.4,MacIntel,60,5eb450d3f625d5290ee37303,,1,0,81,9,1,80
,,,,,,,,,,,,,,,,,,,,,,,,,,,,,,,,,,,,,,,,,o,2.217000008,BO,FALSE,,,,,,,114,bol,Catalan,Sounds/cat_bol.mp3,2020-06-08_18h24.16.200,TranslationElicitation_eng-prolific,3.2.4,MacIntel,60,5eb450d3f625d5290ee37303,,1,0,81,9,1,80
,,,,,,,,,,,,,,,,,,,,,,,,,,,,,,,,,,,,,,,,,w,2.332000017,BOW,FALSE,,,,,,,114,bol,Catalan,Sounds/cat_bol.mp3,2020-06-08_18h24.16.200,TranslationElicitation_eng-prolific,3.2.4,MacIntel,60,5eb450d3f625d5290ee37303,,1,0,81,9,1,80
,,,,,,,,,,,,,,,,,,,,,,,,,,,,,,,,,,,,,,,,,l,2.433000088,BOWL,FALSE,,,,,,,114,bol,Catalan,Sounds/cat_bol.mp3,2020-06-08_18h24.16.200,TranslationElicitation_eng-prolific,3.2.4,MacIntel,60,5eb450d3f625d5290ee37303,,1,0,81,9,1,80
,,,,,,,,,,,,,,,,,,,,,,,,,,,,,,,,,,,,,,,,,return,2.749000072,BOWL,FALSE,,,,,,,114,bol,Catalan,Sounds/cat_bol.mp3,2020-06-08_18h24.16.200,TranslationElicitation_eng-prolific,3.2.4,MacIntel,60,5eb450d3f625d5290ee37303,2.749000072,1,0,81,9,1,80
,,,,,,,,,,,,,,,,,,,,,,,,,,,,,,,,,,,,,,,,,,,,,,,,,,,114,bol,Catalan,Sounds/cat_bol.mp3,2020-06-08_18h24.16.200,TranslationElicitation_eng-prolific,3.2.4,MacIntel,60,5eb450d3f625d5290ee37303,,1,0,81,9,1,80
,,,,,,,,,,,,,,,,,,,,,,,,,,,,,,,,,,,,,,,,,m,3.834000111,M,FALSE,,,,,,,157,mussol,Catalan,Sounds/cat_mussol.mp3,2020-06-08_18h24.16.200,TranslationElicitation_eng-prolific,3.2.4,MacIntel,60,5eb450d3f625d5290ee37303,,1,0,81,50,1,80
,,,,,,,,,,,,,,,,,,,,,,,,,,,,,,,,,,,,,,,,,o,3.98300004,MO,FALSE,,,,,,,157,mussol,Catalan,Sounds/cat_mussol.mp3,2020-06-08_18h24.16.200,TranslationElicitation_eng-prolific,3.2.4,MacIntel,60,5eb450d3f625d5290ee37303,,1,0,81,50,1,80
,,,,,,,,,,,,,,,,,,,,,,,,,,,,,,,,,,,,,,,,,u,4.084000111,MOU,FALSE,,,,,,,157,mussol,Catalan,Sounds/cat_mussol.mp3,2020-06-08_18h24.16.200,TranslationElicitation_eng-prolific,3.2.4,MacIntel,60,5eb450d3f625d5290ee37303,,1,0,81,50,1,80
,,,,,,,,,,,,,,,,,,,,,,,,,,,,,,,,,,,,,,,,,s,4.217000008,MOUS,FALSE,,,,,,,157,mussol,Catalan,Sounds/cat_mussol.mp3,2020-06-08_18h24.16.200,TranslationElicitation_eng-prolific,3.2.4,MacIntel,60,5eb450d3f625d5290ee37303,,1,0,81,50,1,80
,,,,,,,,,,,,,,,,,,,,,,,,,,,,,,,,,,,,,,,,,t,4.334000111,MOUST,FALSE,,,,,,,157,mussol,Catalan,Sounds/cat_mussol.mp3,2020-06-08_18h24.16.200,TranslationElicitation_eng-prolific,3.2.4,MacIntel,60,5eb450d3f625d5290ee37303,,1,0,81,50,1,80
,,,,,,,,,,,,,,,,,,,,,,,,,,,,,,,,,,,,,,,,,a,4.433000088,MOUSTA,FALSE,,,,,,,157,mussol,Catalan,Sounds/cat_mussol.mp3,2020-06-08_18h24.16.200,TranslationElicitation_eng-prolific,3.2.4,MacIntel,60,5eb450d3f625d5290ee37303,,1,0,81,50,1,80
,,,,,,,,,,,,,,,,,,,,,,,,,,,,,,,,,,,,,,,,,c,4.650000095,MOUSTAC,FALSE,,,,,,,157,mussol,Catalan,Sounds/cat_mussol.mp3,2020-06-08_18h24.16.200,TranslationElicitation_eng-prolific,3.2.4,MacIntel,60,5eb450d3f625d5290ee37303,,1,0,81,50,1,80
,,,,,,,,,,,,,,,,,,,,,,,,,,,,,,,,,,,,,,,,,h,4.71600008,MOUSTACH,FALSE,,,,,,,157,mussol,Catalan,Sounds/cat_mussol.mp3,2020-06-08_18h24.16.200,TranslationElicitation_eng-prolific,3.2.4,MacIntel,60,5eb450d3f625d5290ee37303,,1,0,81,50,1,80
,,,,,,,,,,,,,,,,,,,,,,,,,,,,,,,,,,,,,,,,,e,4.884000063,MOUSTACHE,FALSE,,,,,,,157,mussol,Catalan,Sounds/cat_mussol.mp3,2020-06-08_18h24.16.200,TranslationElicitation_eng-prolific,3.2.4,MacIntel,60,5eb450d3f625d5290ee37303,,1,0,81,50,1,80
,,,,,,,,,,,,,,,,,,,,,,,,,,,,,,,,,,,,,,,,,return,5.067000151,MOUSTACHE,FALSE,,,,,,,157,mussol,Catalan,Sounds/cat_mussol.mp3,2020-06-08_18h24.16.200,TranslationElicitation_eng-prolific,3.2.4,MacIntel,60,5eb450d3f625d5290ee37303,5.067000151,1,0,81,50,1,80
,,,,,,,,,,,,,,,,,,,,,,,,,,,,,,,,,,,,,,,,,,,,,,,,,,,157,mussol,Catalan,Sounds/cat_mussol.mp3,2020-06-08_18h24.16.200,TranslationElicitation_eng-prolific,3.2.4,MacIntel,60,5eb450d3f625d5290ee37303,,1,0,81,50,1,80
,,,,,,,,,,,,,,,,,,,,,,,,,,,,,,,,,,,,,,,,,b,1.75,B,FALSE,,,,,,,116,bolquer,Catalan,Sounds/cat_bolquer.mp3,2020-06-08_18h24.16.200,TranslationElicitation_eng-prolific,3.2.4,MacIntel,60,5eb450d3f625d5290ee37303,,1,0,81,11,1,80
