consentKey.keys,consentKey.rt,languageL1Key.keys,languageL1Key.rt,languageL2,languageL2OralKey.keys,languageL2OralKey.rt,languageL2WrittenKey.keys,languageL2WrittenKey.rt,languageL3OralKey.keys,languageL3OralKey.rt,languageL3WrittenKey.keys,languageL3WrittenKey.rt,languageCatalanOralKey.keys,languageCatalanOralKey.rt,languageCatalanWrittenKey.keys,languageCatalanWrittenKey.rt,languageCatalanTimeKey.keys,languageCatalanTimeKey.rt,languageSpanishOralKey.keys,languageSpanishOralKey.rt,languageSpanishWrittenKey.keys,languageSpanishWrittenKey.rt,languageSpanishTimeKey.keys,languageSpanishTimeKey.rt,age,demoSexKey.keys,demoSexKey.rt,demoEducationKey.keys,demoEducationKey.rt,city,demoVisionKey.keys,demoVisionKey.rt,demoLanguageKey.keys,demoLanguageKey.rt,setupLocationKey.keys,setupLocationKey.rt,setupNoiseKey.keys,setupNoiseKey.rt,instructionsKeys.keys,instructionsKeys.rt,keyPressed,keyPressTime,inputText,error,trialsPracticeSpanish.thisRepN,trialsPracticeSpanish.thisTrialN,trialsPracticeSpanish.thisN,trialsPracticeSpanish.thisIndex,trialsPracticeSpanish.ran,trialsPracticeSpanish.order,trial_id,word,test_language,soundfile,date,expName,psychopyVersion,OS,frameRate,participant,trialOffset,trialsSpanish.thisRepN,trialsSpanish.thisTrialN,trialsSpanish.thisN,trialsSpanish.thisIndex,trialsSpanish.ran,trialsSpanish.order
space,2.18900013,e,1.527999878,,,,,,,,,,1,2.101999998,1,0.852999926,1,0.724999905,1,0.766999722,1,0.767999887,1,0.766999722,22,f,1.059999943,4,1.693000078,COLCHESTER,y,1.503000021,n,1.178999901,1,1.336999893,1,0.944000006,space,13.33999991,j,1.116000175,J,FALSE,1,0,5,2,1,4,26,chaqueta,Spanish,Sounds/spa_chaqueta.mp3,2020-06-08_18h35.25.234,TranslationElicitation_eng-prolific,3.2.4,MacIntel,60,5eb450d3f625d5290ee37303,,,,,,,
,,,,,,,,,,,,,,,,,,,,,,,,,,,,,,,,,,,,,,,,,a,1.232000113,JA,FALSE,1,0,5,2,1,4,26,chaqueta,Spanish,Sounds/spa_chaqueta.mp3,2020-06-08_18h35.25.234,TranslationElicitation_eng-prolific,3.2.4,MacIntel,60,5eb450d3f625d5290ee37303,,,,,,,
,,,,,,,,,,,,,,,,,,,,,,,,,,,,,,,,,,,,,,,,,c,1.467000008,JAC,FALSE,1,0,5,2,1,4,26,chaqueta,Spanish,Sounds/spa_chaqueta.mp3,2020-06-08_18h35.25.234,TranslationElicitation_eng-prolific,3.2.4,MacIntel,60,5eb450d3f625d5290ee37303,,,,,,,
,,,,,,,,,,,,,,,,,,,,,,,,,,,,,,,,,,,,,,,,,k,1.549000025,JACK,FALSE,1,0,5,2,1,4,26,chaqueta,Spanish,Sounds/spa_chaqueta.mp3,2020-06-08_18h35.25.234,TranslationElicitation_eng-prolific,3.2.4,MacIntel,60,5eb450d3f625d5290ee37303,,,,,,,
,,,,,,,,,,,,,,,,,,,,,,,,,,,,,,,,,,,,,,,,,e,1.667000055,JACKE,FALSE,1,0,5,2,1,4,26,chaqueta,Spanish,Sounds/spa_chaqueta.mp3,2020-06-08_18h35.25.234,TranslationElicitation_eng-prolific,3.2.4,MacIntel,60,5eb450d3f625d5290ee37303,,,,,,,
,,,,,,,,,,,,,,,,,,,,,,,,,,,,,,,,,,,,,,,,,t,1.866000175,JACKET,FALSE,1,0,5,2,1,4,26,chaqueta,Spanish,Sounds/spa_chaqueta.mp3,2020-06-08_18h35.25.234,TranslationElicitation_eng-prolific,3.2.4,MacIntel,60,5eb450d3f625d5290ee37303,,,,,,,
,,,,,,,,,,,,,,,,,,,,,,,,,,,,,,,,,,,,,,,,,return,2.234000206,JACKET,FALSE,1,0,5,2,1,4,26,chaqueta,Spanish,Sounds/spa_chaqueta.mp3,2020-06-08_18h35.25.234,TranslationElicitation_eng-prolific,3.2.4,MacIntel,60,5eb450d3f625d5290ee37303,2.234000206,,,,,,
,,,,,,,,,,,,,,,,,,,,,,,,,,,,,,,,,,,,,,,,,,,,,1,0,5,2,1,4,26,chaqueta,Spanish,Sounds/spa_chaqueta.mp3,2020-06-08_18h35.25.234,TranslationElicitation_eng-prolific,3.2.4,MacIntel,60,5eb450d3f625d5290ee37303,,,,,,,
,,,,,,,,,,,,,,,,,,,,,,,,,,,,,,,,,,,,,,,,,t,1.367000103,T,FALSE,1,0,5,4,1,4,96,tigre,Spanish,Sounds/spa_tigre.mp3,2020-06-08_18h35.25.234,TranslationElicitation_eng-prolific,3.2.4,MacIntel,60,5eb450d3f625d5290ee37303,,,,,,,
,,,,,,,,,,,,,,,,,,,,,,,,,,,,,,,,,,,,,,,,,i,1.534000158,TI,FALSE,1,0,5,4,1,4,96,tigre,Spanish,Sounds/spa_tigre.mp3,2020-06-08_18h35.25.234,TranslationElicitation_eng-prolific,3.2.4,MacIntel,60,5eb450d3f625d5290ee37303,,,,,,,
,,,,,,,,,,,,,,,,,,,,,,,,,,,,,,,,,,,,,,,,,g,1.71600008,TIG,FALSE,1,0,5,4,1,4,96,tigre,Spanish,Sounds/spa_tigre.mp3,2020-06-08_18h35.25.234,TranslationElicitation_eng-prolific,3.2.4,MacIntel,60,5eb450d3f625d5290ee37303,,,,,,,
,,,,,,,,,,,,,,,,,,,,,,,,,,,,,,,,,,,,,,,,,e,1.76699996,TIGE,FALSE,1,0,5,4,1,4,96,tigre,Spanish,Sounds/spa_tigre.mp3,2020-06-08_18h35.25.234,TranslationElicitation_eng-prolific,3.2.4,MacIntel,60,5eb450d3f625d5290ee37303,,,,,,,
,,,,,,,,,,,,,,,,,,,,,,,,,,,,,,,,,,,,,,,,,r,1.866000175,TIGER,FALSE,1,0,5,4,1,4,96,tigre,Spanish,Sounds/spa_tigre.mp3,2020-06-08_18h35.25.234,TranslationElicitation_eng-prolific,3.2.4,MacIntel,60,5eb450d3f625d5290ee37303,,,,,,,
,,,,,,,,,,,,,,,,,,,,,,,,,,,,,,,,,,,,,,,,,return,1.983999968,TIGER,FALSE,1,0,5,4,1,4,96,tigre,Spanish,Sounds/spa_tigre.mp3,2020-06-08_18h35.25.234,TranslationElicitation_eng-prolific,3.2.4,MacIntel,60,5eb450d3f625d5290ee37303,1.983999968,,,,,,
,,,,,,,,,,,,,,,,,,,,,,,,,,,,,,,,,,,,,,,,,,,,,1,0,5,4,1,4,96,tigre,Spanish,Sounds/spa_tigre.mp3,2020-06-08_18h35.25.234,TranslationElicitation_eng-prolific,3.2.4,MacIntel,60,5eb450d3f625d5290ee37303,,,,,,,
,,,,,,,,,,,,,,,,,,,,,,,,,,,,,,,,,,,,,,,,,r,1.46600008,R,FALSE,1,0,5,1,1,4,30,corona,Spanish,Sounds/spa_corona.mp3,2020-06-08_18h35.25.234,TranslationElicitation_eng-prolific,3.2.4,MacIntel,60,5eb450d3f625d5290ee37303,,,,,,,
,,,,,,,,,,,,,,,,,,,,,,,,,,,,,,,,,,,,,,,,,o,1.616000175,RO,FALSE,1,0,5,1,1,4,30,corona,Spanish,Sounds/spa_corona.mp3,2020-06-08_18h35.25.234,TranslationElicitation_eng-prolific,3.2.4,MacIntel,60,5eb450d3f625d5290ee37303,,,,,,,
,,,,,,,,,,,,,,,,,,,,,,,,,,,,,,,,,,,,,,,,,backspace,2.084000111,R,TRUE,1,0,5,1,1,4,30,corona,Spanish,Sounds/spa_corona.mp3,2020-06-08_18h35.25.234,TranslationElicitation_eng-prolific,3.2.4,MacIntel,60,5eb450d3f625d5290ee37303,,,,,,,
,,,,,,,,,,,,,,,,,,,,,,,,,,,,,,,,,,,,,,,,,backspace,2.217000008,,TRUE,1,0,5,1,1,4,30,corona,Spanish,Sounds/spa_corona.mp3,2020-06-08_18h35.25.234,TranslationElicitation_eng-prolific,3.2.4,MacIntel,60,5eb450d3f625d5290ee37303,,,,,,,
,,,,,,,,,,,,,,,,,,,,,,,,,,,,,,,,,,,,,,,,,backspace,2.316000223,,TRUE,1,0,5,1,1,4,30,corona,Spanish,Sounds/spa_corona.mp3,2020-06-08_18h35.25.234,TranslationElicitation_eng-prolific,3.2.4,MacIntel,60,5eb450d3f625d5290ee37303,,,,,,,
,,,,,,,,,,,,,,,,,,,,,,,,,,,,,,,,,,,,,,,,,c,2.383000135,C,TRUE,1,0,5,1,1,4,30,corona,Spanish,Sounds/spa_corona.mp3,2020-06-08_18h35.25.234,TranslationElicitation_eng-prolific,3.2.4,MacIntel,60,5eb450d3f625d5290ee37303,,,,,,,
,,,,,,,,,,,,,,,,,,,,,,,,,,,,,,,,,,,,,,,,,o,2.617000103,CO,TRUE,1,0,5,1,1,4,30,corona,Spanish,Sounds/spa_corona.mp3,2020-06-08_18h35.25.234,TranslationElicitation_eng-prolific,3.2.4,MacIntel,60,5eb450d3f625d5290ee37303,,,,,,,
,,,,,,,,,,,,,,,,,,,,,,,,,,,,,,,,,,,,,,,,,r,2.801000118,COR,TRUE,1,0,5,1,1,4,30,corona,Spanish,Sounds/spa_corona.mp3,2020-06-08_18h35.25.234,TranslationElicitation_eng-prolific,3.2.4,MacIntel,60,5eb450d3f625d5290ee37303,,,,,,,
,,,,,,,,,,,,,,,,,,,,,,,,,,,,,,,,,,,,,,,,,o,2.899000168,CORO,TRUE,1,0,5,1,1,4,30,corona,Spanish,Sounds/spa_corona.mp3,2020-06-08_18h35.25.234,TranslationElicitation_eng-prolific,3.2.4,MacIntel,60,5eb450d3f625d5290ee37303,,,,,,,
,,,,,,,,,,,,,,,,,,,,,,,,,,,,,,,,,,,,,,,,,n,3.401000023,CORON,TRUE,1,0,5,1,1,4,30,corona,Spanish,Sounds/spa_corona.mp3,2020-06-08_18h35.25.234,TranslationElicitation_eng-prolific,3.2.4,MacIntel,60,5eb450d3f625d5290ee37303,,,,,,,
,,,,,,,,,,,,,,,,,,,,,,,,,,,,,,,,,,,,,,,,,a,3.801000118,CORONA,TRUE,1,0,5,1,1,4,30,corona,Spanish,Sounds/spa_corona.mp3,2020-06-08_18h35.25.234,TranslationElicitation_eng-prolific,3.2.4,MacIntel,60,5eb450d3f625d5290ee37303,,,,,,,
,,,,,,,,,,,,,,,,,,,,,,,,,,,,,,,,,,,,,,,,,v,3.967000008,CORONAV,TRUE,1,0,5,1,1,4,30,corona,Spanish,Sounds/spa_corona.mp3,2020-06-08_18h35.25.234,TranslationElicitation_eng-prolific,3.2.4,MacIntel,60,5eb450d3f625d5290ee37303,,,,,,,
,,,,,,,,,,,,,,,,,,,,,,,,,,,,,,,,,,,,,,,,,i,4.150000095,CORONAVI,TRUE,1,0,5,1,1,4,30,corona,Spanish,Sounds/spa_corona.mp3,2020-06-08_18h35.25.234,TranslationElicitation_eng-prolific,3.2.4,MacIntel,60,5eb450d3f625d5290ee37303,,,,,,,
,,,,,,,,,,,,,,,,,,,,,,,,,,,,,,,,,,,,,,,,,r,4.266000032,CORONAVIR,TRUE,1,0,5,1,1,4,30,corona,Spanish,Sounds/spa_corona.mp3,2020-06-08_18h35.25.234,TranslationElicitation_eng-prolific,3.2.4,MacIntel,60,5eb450d3f625d5290ee37303,,,,,,,
,,,,,,,,,,,,,,,,,,,,,,,,,,,,,,,,,,,,,,,,,u,4.434000015,CORONAVIRU,TRUE,1,0,5,1,1,4,30,corona,Spanish,Sounds/spa_corona.mp3,2020-06-08_18h35.25.234,TranslationElicitation_eng-prolific,3.2.4,MacIntel,60,5eb450d3f625d5290ee37303,,,,,,,
,,,,,,,,,,,,,,,,,,,,,,,,,,,,,,,,,,,,,,,,,s,4.567000151,CORONAVIRUS,TRUE,1,0,5,1,1,4,30,corona,Spanish,Sounds/spa_corona.mp3,2020-06-08_18h35.25.234,TranslationElicitation_eng-prolific,3.2.4,MacIntel,60,5eb450d3f625d5290ee37303,,,,,,,
,,,,,,,,,,,,,,,,,,,,,,,,,,,,,,,,,,,,,,,,,return,4.734000206,CORONAVIRUS,TRUE,1,0,5,1,1,4,30,corona,Spanish,Sounds/spa_corona.mp3,2020-06-08_18h35.25.234,TranslationElicitation_eng-prolific,3.2.4,MacIntel,60,5eb450d3f625d5290ee37303,4.734000206,,,,,,
,,,,,,,,,,,,,,,,,,,,,,,,,,,,,,,,,,,,,,,,,,,,,1,0,5,1,1,4,30,corona,Spanish,Sounds/spa_corona.mp3,2020-06-08_18h35.25.234,TranslationElicitation_eng-prolific,3.2.4,MacIntel,60,5eb450d3f625d5290ee37303,,,,,,,
,,,,,,,,,,,,,,,,,,,,,,,,,,,,,,,,,,,,,,,,,h,1.299999952,H,FALSE,1,0,5,3,1,4,70,ola,Spanish,Sounds/spa_ola.mp3,2020-06-08_18h35.25.234,TranslationElicitation_eng-prolific,3.2.4,MacIntel,60,5eb450d3f625d5290ee37303,,,,,,,
,,,,,,,,,,,,,,,,,,,,,,,,,,,,,,,,,,,,,,,,,e,1.449999809,HE,FALSE,1,0,5,3,1,4,70,ola,Spanish,Sounds/spa_ola.mp3,2020-06-08_18h35.25.234,TranslationElicitation_eng-prolific,3.2.4,MacIntel,60,5eb450d3f625d5290ee37303,,,,,,,
,,,,,,,,,,,,,,,,,,,,,,,,,,,,,,,,,,,,,,,,,l,1.849999905,HEL,FALSE,1,0,5,3,1,4,70,ola,Spanish,Sounds/spa_ola.mp3,2020-06-08_18h35.25.234,TranslationElicitation_eng-prolific,3.2.4,MacIntel,60,5eb450d3f625d5290ee37303,,,,,,,
,,,,,,,,,,,,,,,,,,,,,,,,,,,,,,,,,,,,,,,,,o,2.01699996,HELO,FALSE,1,0,5,3,1,4,70,ola,Spanish,Sounds/spa_ola.mp3,2020-06-08_18h35.25.234,TranslationElicitation_eng-prolific,3.2.4,MacIntel,60,5eb450d3f625d5290ee37303,,,,,,,
,,,,,,,,,,,,,,,,,,,,,,,,,,,,,,,,,,,,,,,,,backspace,2.432999849,HEL,TRUE,1,0,5,3,1,4,70,ola,Spanish,Sounds/spa_ola.mp3,2020-06-08_18h35.25.234,TranslationElicitation_eng-prolific,3.2.4,MacIntel,60,5eb450d3f625d5290ee37303,,,,,,,
,,,,,,,,,,,,,,,,,,,,,,,,,,,,,,,,,,,,,,,,,l,2.665999889,HELL,TRUE,1,0,5,3,1,4,70,ola,Spanish,Sounds/spa_ola.mp3,2020-06-08_18h35.25.234,TranslationElicitation_eng-prolific,3.2.4,MacIntel,60,5eb450d3f625d5290ee37303,,,,,,,
,,,,,,,,,,,,,,,,,,,,,,,,,,,,,,,,,,,,,,,,,o,2.833999872,HELLO,TRUE,1,0,5,3,1,4,70,ola,Spanish,Sounds/spa_ola.mp3,2020-06-08_18h35.25.234,TranslationElicitation_eng-prolific,3.2.4,MacIntel,60,5eb450d3f625d5290ee37303,,,,,,,
,,,,,,,,,,,,,,,,,,,,,,,,,,,,,,,,,,,,,,,,,return,3.05099988,HELLO,TRUE,1,0,5,3,1,4,70,ola,Spanish,Sounds/spa_ola.mp3,2020-06-08_18h35.25.234,TranslationElicitation_eng-prolific,3.2.4,MacIntel,60,5eb450d3f625d5290ee37303,3.05099988,,,,,,
,,,,,,,,,,,,,,,,,,,,,,,,,,,,,,,,,,,,,,,,,,,,,1,0,5,3,1,4,70,ola,Spanish,Sounds/spa_ola.mp3,2020-06-08_18h35.25.234,TranslationElicitation_eng-prolific,3.2.4,MacIntel,60,5eb450d3f625d5290ee37303,,,,,,,
,,,,,,,,,,,,,,,,,,,,,,,,,,,,,,,,,,,,,,,,,c,2.049999952,C,FALSE,1,0,5,0,1,4,1,arbol,Spanish,Sounds/spa_arbol.mp3,2020-06-08_18h35.25.234,TranslationElicitation_eng-prolific,3.2.4,MacIntel,60,5eb450d3f625d5290ee37303,,,,,,,
,,,,,,,,,,,,,,,,,,,,,,,,,,,,,,,,,,,,,,,,,a,2.25,CA,FALSE,1,0,5,0,1,4,1,arbol,Spanish,Sounds/spa_arbol.mp3,2020-06-08_18h35.25.234,TranslationElicitation_eng-prolific,3.2.4,MacIntel,60,5eb450d3f625d5290ee37303,,,,,,,
,,,,,,,,,,,,,,,,,,,,,,,,,,,,,,,,,,,,,,,,,r,2.417000055,CAR,FALSE,1,0,5,0,1,4,1,arbol,Spanish,Sounds/spa_arbol.mp3,2020-06-08_18h35.25.234,TranslationElicitation_eng-prolific,3.2.4,MacIntel,60,5eb450d3f625d5290ee37303,,,,,,,
,,,,,,,,,,,,,,,,,,,,,,,,,,,,,,,,,,,,,,,,,b,2.583999872,CARB,FALSE,1,0,5,0,1,4,1,arbol,Spanish,Sounds/spa_arbol.mp3,2020-06-08_18h35.25.234,TranslationElicitation_eng-prolific,3.2.4,MacIntel,60,5eb450d3f625d5290ee37303,,,,,,,
,,,,,,,,,,,,,,,,,,,,,,,,,,,,,,,,,,,,,,,,,o,3.467000008,CARBO,FALSE,1,0,5,0,1,4,1,arbol,Spanish,Sounds/spa_arbol.mp3,2020-06-08_18h35.25.234,TranslationElicitation_eng-prolific,3.2.4,MacIntel,60,5eb450d3f625d5290ee37303,,,,,,,
,,,,,,,,,,,,,,,,,,,,,,,,,,,,,,,,,,,,,,,,,a,3.53399992,CARBOA,FALSE,1,0,5,0,1,4,1,arbol,Spanish,Sounds/spa_arbol.mp3,2020-06-08_18h35.25.234,TranslationElicitation_eng-prolific,3.2.4,MacIntel,60,5eb450d3f625d5290ee37303,,,,,,,
,,,,,,,,,,,,,,,,,,,,,,,,,,,,,,,,,,,,,,,,,r,3.767999887,CARBOAR,FALSE,1,0,5,0,1,4,1,arbol,Spanish,Sounds/spa_arbol.mp3,2020-06-08_18h35.25.234,TranslationElicitation_eng-prolific,3.2.4,MacIntel,60,5eb450d3f625d5290ee37303,,,,,,,
,,,,,,,,,,,,,,,,,,,,,,,,,,,,,,,,,,,,,,,,,d,3.932999849,CARBOARD,FALSE,1,0,5,0,1,4,1,arbol,Spanish,Sounds/spa_arbol.mp3,2020-06-08_18h35.25.234,TranslationElicitation_eng-prolific,3.2.4,MacIntel,60,5eb450d3f625d5290ee37303,,,,,,,
,,,,,,,,,,,,,,,,,,,,,,,,,,,,,,,,,,,,,,,,,return,4.05099988,CARBOARD,FALSE,1,0,5,0,1,4,1,arbol,Spanish,Sounds/spa_arbol.mp3,2020-06-08_18h35.25.234,TranslationElicitation_eng-prolific,3.2.4,MacIntel,60,5eb450d3f625d5290ee37303,4.05099988,,,,,,
,,,,,,,,,,,,,,,,,,,,,,,,,,,,,,,,,,,,,,,,,,,,,1,0,5,0,1,4,1,arbol,Spanish,Sounds/spa_arbol.mp3,2020-06-08_18h35.25.234,TranslationElicitation_eng-prolific,3.2.4,MacIntel,60,5eb450d3f625d5290ee37303,,,,,,,
,,,,,,,,,,,,,,,,,,,,,,,,,,,,,,,,,,,,,,,,,p,2.118000031,P,FALSE,,,,,,,87,platano,Spanish,Sounds/spa_platano.mp3,2020-06-08_18h35.25.234,TranslationElicitation_eng-prolific,3.2.4,MacIntel,60,5eb450d3f625d5290ee37303,,1,0,98,82,1,97
,,,,,,,,,,,,,,,,,,,,,,,,,,,,,,,,,,,,,,,,,l,2.217999935,PL,FALSE,,,,,,,87,platano,Spanish,Sounds/spa_platano.mp3,2020-06-08_18h35.25.234,TranslationElicitation_eng-prolific,3.2.4,MacIntel,60,5eb450d3f625d5290ee37303,,1,0,98,82,1,97
,,,,,,,,,,,,,,,,,,,,,,,,,,,,,,,,,,,,,,,,,a,2.333999872,PLA,FALSE,,,,,,,87,platano,Spanish,Sounds/spa_platano.mp3,2020-06-08_18h35.25.234,TranslationElicitation_eng-prolific,3.2.4,MacIntel,60,5eb450d3f625d5290ee37303,,1,0,98,82,1,97
,,,,,,,,,,,,,,,,,,,,,,,,,,,,,,,,,,,,,,,,,t,2.700000048,PLAT,FALSE,,,,,,,87,platano,Spanish,Sounds/spa_platano.mp3,2020-06-08_18h35.25.234,TranslationElicitation_eng-prolific,3.2.4,MacIntel,60,5eb450d3f625d5290ee37303,,1,0,98,82,1,97
,,,,,,,,,,,,,,,,,,,,,,,,,,,,,,,,,,,,,,,,,i,3.31799984,PLATI,FALSE,,,,,,,87,platano,Spanish,Sounds/spa_platano.mp3,2020-06-08_18h35.25.234,TranslationElicitation_eng-prolific,3.2.4,MacIntel,60,5eb450d3f625d5290ee37303,,1,0,98,82,1,97
,,,,,,,,,,,,,,,,,,,,,,,,,,,,,,,,,,,,,,,,,n,3.517999887,PLATIN,FALSE,,,,,,,87,platano,Spanish,Sounds/spa_platano.mp3,2020-06-08_18h35.25.234,TranslationElicitation_eng-prolific,3.2.4,MacIntel,60,5eb450d3f625d5290ee37303,,1,0,98,82,1,97
,,,,,,,,,,,,,,,,,,,,,,,,,,,,,,,,,,,,,,,,,u,3.684000015,PLATINU,FALSE,,,,,,,87,platano,Spanish,Sounds/spa_platano.mp3,2020-06-08_18h35.25.234,TranslationElicitation_eng-prolific,3.2.4,MacIntel,60,5eb450d3f625d5290ee37303,,1,0,98,82,1,97
,,,,,,,,,,,,,,,,,,,,,,,,,,,,,,,,,,,,,,,,,m,3.866999865,PLATINUM,FALSE,,,,,,,87,platano,Spanish,Sounds/spa_platano.mp3,2020-06-08_18h35.25.234,TranslationElicitation_eng-prolific,3.2.4,MacIntel,60,5eb450d3f625d5290ee37303,,1,0,98,82,1,97
,,,,,,,,,,,,,,,,,,,,,,,,,,,,,,,,,,,,,,,,,return,4.483999968,PLATINUM,FALSE,,,,,,,87,platano,Spanish,Sounds/spa_platano.mp3,2020-06-08_18h35.25.234,TranslationElicitation_eng-prolific,3.2.4,MacIntel,60,5eb450d3f625d5290ee37303,4.483999968,1,0,98,82,1,97
,,,,,,,,,,,,,,,,,,,,,,,,,,,,,,,,,,,,,,,,,,,,,,,,,,,87,platano,Spanish,Sounds/spa_platano.mp3,2020-06-08_18h35.25.234,TranslationElicitation_eng-prolific,3.2.4,MacIntel,60,5eb450d3f625d5290ee37303,,1,0,98,82,1,97
,,,,,,,,,,,,,,,,,,,,,,,,,,,,,,,,,,,,,,,,,t,1.799000025,T,FALSE,,,,,,,99,tomate,Spanish,Sounds/spa_tomate.mp3,2020-06-08_18h35.25.234,TranslationElicitation_eng-prolific,3.2.4,MacIntel,60,5eb450d3f625d5290ee37303,,1,0,98,93,1,97
,,,,,,,,,,,,,,,,,,,,,,,,,,,,,,,,,,,,,,,,,o,1.94900012,TO,FALSE,,,,,,,99,tomate,Spanish,Sounds/spa_tomate.mp3,2020-06-08_18h35.25.234,TranslationElicitation_eng-prolific,3.2.4,MacIntel,60,5eb450d3f625d5290ee37303,,1,0,98,93,1,97
,,,,,,,,,,,,,,,,,,,,,,,,,,,,,,,,,,,,,,,,,m,2.082000017,TOM,FALSE,,,,,,,99,tomate,Spanish,Sounds/spa_tomate.mp3,2020-06-08_18h35.25.234,TranslationElicitation_eng-prolific,3.2.4,MacIntel,60,5eb450d3f625d5290ee37303,,1,0,98,93,1,97
,,,,,,,,,,,,,,,,,,,,,,,,,,,,,,,,,,,,,,,,,o,2.265000105,TOMO,FALSE,,,,,,,99,tomate,Spanish,Sounds/spa_tomate.mp3,2020-06-08_18h35.25.234,TranslationElicitation_eng-prolific,3.2.4,MacIntel,60,5eb450d3f625d5290ee37303,,1,0,98,93,1,97
,,,,,,,,,,,,,,,,,,,,,,,,,,,,,,,,,,,,,,,,,a,2.683000088,TOMOA,FALSE,,,,,,,99,tomate,Spanish,Sounds/spa_tomate.mp3,2020-06-08_18h35.25.234,TranslationElicitation_eng-prolific,3.2.4,MacIntel,60,5eb450d3f625d5290ee37303,,1,0,98,93,1,97
,,,,,,,,,,,,,,,,,,,,,,,,,,,,,,,,,,,,,,,,,backspace,3.032000065,TOMO,TRUE,,,,,,,99,tomate,Spanish,Sounds/spa_tomate.mp3,2020-06-08_18h35.25.234,TranslationElicitation_eng-prolific,3.2.4,MacIntel,60,5eb450d3f625d5290ee37303,,1,0,98,93,1,97
,,,,,,,,,,,,,,,,,,,,,,,,,,,,,,,,,,,,,,,,,backspace,3.200000048,TOM,TRUE,,,,,,,99,tomate,Spanish,Sounds/spa_tomate.mp3,2020-06-08_18h35.25.234,TranslationElicitation_eng-prolific,3.2.4,MacIntel,60,5eb450d3f625d5290ee37303,,1,0,98,93,1,97
,,,,,,,,,,,,,,,,,,,,,,,,,,,,,,,,,,,,,,,,,t,3.299999952,TOMT,TRUE,,,,,,,99,tomate,Spanish,Sounds/spa_tomate.mp3,2020-06-08_18h35.25.234,TranslationElicitation_eng-prolific,3.2.4,MacIntel,60,5eb450d3f625d5290ee37303,,1,0,98,93,1,97
,,,,,,,,,,,,,,,,,,,,,,,,,,,,,,,,,,,,,,,,,a,3.667000055,TOMTA,TRUE,,,,,,,99,tomate,Spanish,Sounds/spa_tomate.mp3,2020-06-08_18h35.25.234,TranslationElicitation_eng-prolific,3.2.4,MacIntel,60,5eb450d3f625d5290ee37303,,1,0,98,93,1,97
,,,,,,,,,,,,,,,,,,,,,,,,,,,,,,,,,,,,,,,,,backspace,4.065999985,TOMT,TRUE,,,,,,,99,tomate,Spanish,Sounds/spa_tomate.mp3,2020-06-08_18h35.25.234,TranslationElicitation_eng-prolific,3.2.4,MacIntel,60,5eb450d3f625d5290ee37303,,1,0,98,93,1,97
,,,,,,,,,,,,,,,,,,,,,,,,,,,,,,,,,,,,,,,,,backspace,4.200000048,TOM,TRUE,,,,,,,99,tomate,Spanish,Sounds/spa_tomate.mp3,2020-06-08_18h35.25.234,TranslationElicitation_eng-prolific,3.2.4,MacIntel,60,5eb450d3f625d5290ee37303,,1,0,98,93,1,97
,,,,,,,,,,,,,,,,,,,,,,,,,,,,,,,,,,,,,,,,,a,4.249000072,TOMA,TRUE,,,,,,,99,tomate,Spanish,Sounds/spa_tomate.mp3,2020-06-08_18h35.25.234,TranslationElicitation_eng-prolific,3.2.4,MacIntel,60,5eb450d3f625d5290ee37303,,1,0,98,93,1,97
,,,,,,,,,,,,,,,,,,,,,,,,,,,,,,,,,,,,,,,,,o,4.516000032,TOMAO,TRUE,,,,,,,99,tomate,Spanish,Sounds/spa_tomate.mp3,2020-06-08_18h35.25.234,TranslationElicitation_eng-prolific,3.2.4,MacIntel,60,5eb450d3f625d5290ee37303,,1,0,98,93,1,97
,,,,,,,,,,,,,,,,,,,,,,,,,,,,,,,,,,,,,,,,,backspace,5.115999937,TOMA,TRUE,,,,,,,99,tomate,Spanish,Sounds/spa_tomate.mp3,2020-06-08_18h35.25.234,TranslationElicitation_eng-prolific,3.2.4,MacIntel,60,5eb450d3f625d5290ee37303,,1,0,98,93,1,97
,,,,,,,,,,,,,,,,,,,,,,,,,,,,,,,,,,,,,,,,,t,5.249000072,TOMAT,TRUE,,,,,,,99,tomate,Spanish,Sounds/spa_tomate.mp3,2020-06-08_18h35.25.234,TranslationElicitation_eng-prolific,3.2.4,MacIntel,60,5eb450d3f625d5290ee37303,,1,0,98,93,1,97
,,,,,,,,,,,,,,,,,,,,,,,,,,,,,,,,,,,,,,,,,o,5.36500001,TOMATO,TRUE,,,,,,,99,tomate,Spanish,Sounds/spa_tomate.mp3,2020-06-08_18h35.25.234,TranslationElicitation_eng-prolific,3.2.4,MacIntel,60,5eb450d3f625d5290ee37303,,1,0,98,93,1,97
,,,,,,,,,,,,,,,,,,,,,,,,,,,,,,,,,,,,,,,,,return,5.683000088,TOMATO,TRUE,,,,,,,99,tomate,Spanish,Sounds/spa_tomate.mp3,2020-06-08_18h35.25.234,TranslationElicitation_eng-prolific,3.2.4,MacIntel,60,5eb450d3f625d5290ee37303,5.683000088,1,0,98,93,1,97
,,,,,,,,,,,,,,,,,,,,,,,,,,,,,,,,,,,,,,,,,,,,,,,,,,,99,tomate,Spanish,Sounds/spa_tomate.mp3,2020-06-08_18h35.25.234,TranslationElicitation_eng-prolific,3.2.4,MacIntel,60,5eb450d3f625d5290ee37303,,1,0,98,93,1,97
,,,,,,,,,,,,,,,,,,,,,,,,,,,,,,,,,,,,,,,,,l,4.400999784,L,FALSE,,,,,,,54,lengua,Spanish,Sounds/spa_lengua.mp3,2020-06-08_18h35.25.234,TranslationElicitation_eng-prolific,3.2.4,MacIntel,60,5eb450d3f625d5290ee37303,,1,0,98,50,1,97
,,,,,,,,,,,,,,,,,,,,,,,,,,,,,,,,,,,,,,,,,a,4.501999855,LA,FALSE,,,,,,,54,lengua,Spanish,Sounds/spa_lengua.mp3,2020-06-08_18h35.25.234,TranslationElicitation_eng-prolific,3.2.4,MacIntel,60,5eb450d3f625d5290ee37303,,1,0,98,50,1,97
,,,,,,,,,,,,,,,,,,,,,,,,,,,,,,,,,,,,,,,,,n,4.600999832,LAN,FALSE,,,,,,,54,lengua,Spanish,Sounds/spa_lengua.mp3,2020-06-08_18h35.25.234,TranslationElicitation_eng-prolific,3.2.4,MacIntel,60,5eb450d3f625d5290ee37303,,1,0,98,50,1,97
,,,,,,,,,,,,,,,,,,,,,,,,,,,,,,,,,,,,,,,,,g,4.80099988,LANG,FALSE,,,,,,,54,lengua,Spanish,Sounds/spa_lengua.mp3,2020-06-08_18h35.25.234,TranslationElicitation_eng-prolific,3.2.4,MacIntel,60,5eb450d3f625d5290ee37303,,1,0,98,50,1,97
,,,,,,,,,,,,,,,,,,,,,,,,,,,,,,,,,,,,,,,,,u,4.934999943,LANGU,FALSE,,,,,,,54,lengua,Spanish,Sounds/spa_lengua.mp3,2020-06-08_18h35.25.234,TranslationElicitation_eng-prolific,3.2.4,MacIntel,60,5eb450d3f625d5290ee37303,,1,0,98,50,1,97
,,,,,,,,,,,,,,,,,,,,,,,,,,,,,,,,,,,,,,,,,a,5.034999847,LANGUA,FALSE,,,,,,,54,lengua,Spanish,Sounds/spa_lengua.mp3,2020-06-08_18h35.25.234,TranslationElicitation_eng-prolific,3.2.4,MacIntel,60,5eb450d3f625d5290ee37303,,1,0,98,50,1,97
,,,,,,,,,,,,,,,,,,,,,,,,,,,,,,,,,,,,,,,,,g,5.117999792,LANGUAG,FALSE,,,,,,,54,lengua,Spanish,Sounds/spa_lengua.mp3,2020-06-08_18h35.25.234,TranslationElicitation_eng-prolific,3.2.4,MacIntel,60,5eb450d3f625d5290ee37303,,1,0,98,50,1,97
,,,,,,,,,,,,,,,,,,,,,,,,,,,,,,,,,,,,,,,,,e,5.233999968,LANGUAGE,FALSE,,,,,,,54,lengua,Spanish,Sounds/spa_lengua.mp3,2020-06-08_18h35.25.234,TranslationElicitation_eng-prolific,3.2.4,MacIntel,60,5eb450d3f625d5290ee37303,,1,0,98,50,1,97
,,,,,,,,,,,,,,,,,,,,,,,,,,,,,,,,,,,,,,,,,return,5.750999928,LANGUAGE,FALSE,,,,,,,54,lengua,Spanish,Sounds/spa_lengua.mp3,2020-06-08_18h35.25.234,TranslationElicitation_eng-prolific,3.2.4,MacIntel,60,5eb450d3f625d5290ee37303,5.750999928,1,0,98,50,1,97
,,,,,,,,,,,,,,,,,,,,,,,,,,,,,,,,,,,,,,,,,,,,,,,,,,,54,lengua,Spanish,Sounds/spa_lengua.mp3,2020-06-08_18h35.25.234,TranslationElicitation_eng-prolific,3.2.4,MacIntel,60,5eb450d3f625d5290ee37303,,1,0,98,50,1,97
,,,,,,,,,,,,,,,,,,,,,,,,,,,,,,,,,,,,,,,,,v,3.684000015,V,FALSE,,,,,,,7,bocadillo,Spanish,Sounds/spa_bocadillo.mp3,2020-06-08_18h35.25.234,TranslationElicitation_eng-prolific,3.2.4,MacIntel,60,5eb450d3f625d5290ee37303,,1,0,98,5,1,97
,,,,,,,,,,,,,,,,,,,,,,,,,,,,,,,,,,,,,,,,,i,3.917000055,VI,FALSE,,,,,,,7,bocadillo,Spanish,Sounds/spa_bocadillo.mp3,2020-06-08_18h35.25.234,TranslationElicitation_eng-prolific,3.2.4,MacIntel,60,5eb450d3f625d5290ee37303,,1,0,98,5,1,97
,,,,,,,,,,,,,,,,,,,,,,,,,,,,,,,,,,,,,,,,,d,4.01699996,VID,FALSE,,,,,,,7,bocadillo,Spanish,Sounds/spa_bocadillo.mp3,2020-06-08_18h35.25.234,TranslationElicitation_eng-prolific,3.2.4,MacIntel,60,5eb450d3f625d5290ee37303,,1,0,98,5,1,97
,,,,,,,,,,,,,,,,,,,,,,,,,,,,,,,,,,,,,,,,,e,4.183000088,VIDE,FALSE,,,,,,,7,bocadillo,Spanish,Sounds/spa_bocadillo.mp3,2020-06-08_18h35.25.234,TranslationElicitation_eng-prolific,3.2.4,MacIntel,60,5eb450d3f625d5290ee37303,,1,0,98,5,1,97
,,,,,,,,,,,,,,,,,,,,,,,,,,,,,,,,,,,,,,,,,o,4.28399992,VIDEO,FALSE,,,,,,,7,bocadillo,Spanish,Sounds/spa_bocadillo.mp3,2020-06-08_18h35.25.234,TranslationElicitation_eng-prolific,3.2.4,MacIntel,60,5eb450d3f625d5290ee37303,,1,0,98,5,1,97
,,,,,,,,,,,,,,,,,,,,,,,,,,,,,,,,,,,,,,,,,return,4.499000072,VIDEO,FALSE,,,,,,,7,bocadillo,Spanish,Sounds/spa_bocadillo.mp3,2020-06-08_18h35.25.234,TranslationElicitation_eng-prolific,3.2.4,MacIntel,60,5eb450d3f625d5290ee37303,4.499000072,1,0,98,5,1,97
,,,,,,,,,,,,,,,,,,,,,,,,,,,,,,,,,,,,,,,,,,,,,,,,,,,7,bocadillo,Spanish,Sounds/spa_bocadillo.mp3,2020-06-08_18h35.25.234,TranslationElicitation_eng-prolific,3.2.4,MacIntel,60,5eb450d3f625d5290ee37303,,1,0,98,5,1,97
,,,,,,,,,,,,,,,,,,,,,,,,,,,,,,,,,,,,,,,,,n,4.383000135,N,FALSE,,,,,,,67,muneca,Spanish,Sounds/spa_muneca.mp3,2020-06-08_18h35.25.234,TranslationElicitation_eng-prolific,3.2.4,MacIntel,60,5eb450d3f625d5290ee37303,,1,0,98,63,1,97
,,,,,,,,,,,,,,,,,,,,,,,,,,,,,,,,,,,,,,,,,e,4.44900012,NE,FALSE,,,,,,,67,muneca,Spanish,Sounds/spa_muneca.mp3,2020-06-08_18h35.25.234,TranslationElicitation_eng-prolific,3.2.4,MacIntel,60,5eb450d3f625d5290ee37303,,1,0,98,63,1,97
,,,,,,,,,,,,,,,,,,,,,,,,,,,,,,,,,,,,,,,,,c,4.634000063,NEC,FALSE,,,,,,,67,muneca,Spanish,Sounds/spa_muneca.mp3,2020-06-08_18h35.25.234,TranslationElicitation_eng-prolific,3.2.4,MacIntel,60,5eb450d3f625d5290ee37303,,1,0,98,63,1,97
,,,,,,,,,,,,,,,,,,,,,,,,,,,,,,,,,,,,,,,,,k,4.75,NECK,FALSE,,,,,,,67,muneca,Spanish,Sounds/spa_muneca.mp3,2020-06-08_18h35.25.234,TranslationElicitation_eng-prolific,3.2.4,MacIntel,60,5eb450d3f625d5290ee37303,,1,0,98,63,1,97
,,,,,,,,,,,,,,,,,,,,,,,,,,,,,,,,,,,,,,,,,return,5.334000111,NECK,FALSE,,,,,,,67,muneca,Spanish,Sounds/spa_muneca.mp3,2020-06-08_18h35.25.234,TranslationElicitation_eng-prolific,3.2.4,MacIntel,60,5eb450d3f625d5290ee37303,5.334000111,1,0,98,63,1,97
,,,,,,,,,,,,,,,,,,,,,,,,,,,,,,,,,,,,,,,,,,,,,,,,,,,67,muneca,Spanish,Sounds/spa_muneca.mp3,2020-06-08_18h35.25.234,TranslationElicitation_eng-prolific,3.2.4,MacIntel,60,5eb450d3f625d5290ee37303,,1,0,98,63,1,97
,,,,,,,,,,,,,,,,,,,,,,,,,,,,,,,,,,,,,,,,,t,3.099999905,T,FALSE,,,,,,,100,toro,Spanish,Sounds/spa_toro.mp3,2020-06-08_18h35.25.234,TranslationElicitation_eng-prolific,3.2.4,MacIntel,60,5eb450d3f625d5290ee37303,,1,0,98,94,1,97
,,,,,,,,,,,,,,,,,,,,,,,,,,,,,,,,,,,,,,,,,o,3.233999968,TO,FALSE,,,,,,,100,toro,Spanish,Sounds/spa_toro.mp3,2020-06-08_18h35.25.234,TranslationElicitation_eng-prolific,3.2.4,MacIntel,60,5eb450d3f625d5290ee37303,,1,0,98,94,1,97
,,,,,,,,,,,,,,,,,,,,,,,,,,,,,,,,,,,,,,,,,i,3.316999912,TOI,FALSE,,,,,,,100,toro,Spanish,Sounds/spa_toro.mp3,2020-06-08_18h35.25.234,TranslationElicitation_eng-prolific,3.2.4,MacIntel,60,5eb450d3f625d5290ee37303,,1,0,98,94,1,97
,,,,,,,,,,,,,,,,,,,,,,,,,,,,,,,,,,,,,,,,,l,3.517999887,TOIL,FALSE,,,,,,,100,toro,Spanish,Sounds/spa_toro.mp3,2020-06-08_18h35.25.234,TranslationElicitation_eng-prolific,3.2.4,MacIntel,60,5eb450d3f625d5290ee37303,,1,0,98,94,1,97
,,,,,,,,,,,,,,,,,,,,,,,,,,,,,,,,,,,,,,,,,backspace,4.01699996,TOI,TRUE,,,,,,,100,toro,Spanish,Sounds/spa_toro.mp3,2020-06-08_18h35.25.234,TranslationElicitation_eng-prolific,3.2.4,MacIntel,60,5eb450d3f625d5290ee37303,,1,0,98,94,1,97
,,,,,,,,,,,,,,,,,,,,,,,,,,,,,,,,,,,,,,,,,backspace,4.417999983,TO,TRUE,,,,,,,100,toro,Spanish,Sounds/spa_toro.mp3,2020-06-08_18h35.25.234,TranslationElicitation_eng-prolific,3.2.4,MacIntel,60,5eb450d3f625d5290ee37303,,1,0,98,94,1,97
,,,,,,,,,,,,,,,,,,,,,,,,,,,,,,,,,,,,,,,,,backspace,4.56799984,T,TRUE,,,,,,,100,toro,Spanish,Sounds/spa_toro.mp3,2020-06-08_18h35.25.234,TranslationElicitation_eng-prolific,3.2.4,MacIntel,60,5eb450d3f625d5290ee37303,,1,0,98,94,1,97
,,,,,,,,,,,,,,,,,,,,,,,,,,,,,,,,,,,,,,,,,backspace,4.700999975,,TRUE,,,,,,,100,toro,Spanish,Sounds/spa_toro.mp3,2020-06-08_18h35.25.234,TranslationElicitation_eng-prolific,3.2.4,MacIntel,60,5eb450d3f625d5290ee37303,,1,0,98,94,1,97
,,,,,,,,,,,,,,,,,,,,,,,,,,,,,,,,,,,,,,,,,d,5.116999865,D,TRUE,,,,,,,100,toro,Spanish,Sounds/spa_toro.mp3,2020-06-08_18h35.25.234,TranslationElicitation_eng-prolific,3.2.4,MacIntel,60,5eb450d3f625d5290ee37303,,1,0,98,94,1,97
,,,,,,,,,,,,,,,,,,,,,,,,,,,,,,,,,,,,,,,,,o,5.3349998,DO,TRUE,,,,,,,100,toro,Spanish,Sounds/spa_toro.mp3,2020-06-08_18h35.25.234,TranslationElicitation_eng-prolific,3.2.4,MacIntel,60,5eb450d3f625d5290ee37303,,1,0,98,94,1,97
,,,,,,,,,,,,,,,,,,,,,,,,,,,,,,,,,,,,,,,,,o,5.450999975,DOO,TRUE,,,,,,,100,toro,Spanish,Sounds/spa_toro.mp3,2020-06-08_18h35.25.234,TranslationElicitation_eng-prolific,3.2.4,MacIntel,60,5eb450d3f625d5290ee37303,,1,0,98,94,1,97
,,,,,,,,,,,,,,,,,,,,,,,,,,,,,,,,,,,,,,,,,r,5.55099988,DOOR,TRUE,,,,,,,100,toro,Spanish,Sounds/spa_toro.mp3,2020-06-08_18h35.25.234,TranslationElicitation_eng-prolific,3.2.4,MacIntel,60,5eb450d3f625d5290ee37303,,1,0,98,94,1,97
,,,,,,,,,,,,,,,,,,,,,,,,,,,,,,,,,,,,,,,,,return,5.699999809,DOOR,TRUE,,,,,,,100,toro,Spanish,Sounds/spa_toro.mp3,2020-06-08_18h35.25.234,TranslationElicitation_eng-prolific,3.2.4,MacIntel,60,5eb450d3f625d5290ee37303,5.699999809,1,0,98,94,1,97
,,,,,,,,,,,,,,,,,,,,,,,,,,,,,,,,,,,,,,,,,,,,,,,,,,,100,toro,Spanish,Sounds/spa_toro.mp3,2020-06-08_18h35.25.234,TranslationElicitation_eng-prolific,3.2.4,MacIntel,60,5eb450d3f625d5290ee37303,,1,0,98,94,1,97
,,,,,,,,,,,,,,,,,,,,,,,,,,,,,,,,,,,,,,,,,l,1.965999842,L,FALSE,,,,,,,53,leche,Spanish,Sounds/spa_leche.mp3,2020-06-08_18h35.25.234,TranslationElicitation_eng-prolific,3.2.4,MacIntel,60,5eb450d3f625d5290ee37303,,1,0,98,49,1,97
,,,,,,,,,,,,,,,,,,,,,,,,,,,,,,,,,,,,,,,,,e,2.098999977,LE,FALSE,,,,,,,53,leche,Spanish,Sounds/spa_leche.mp3,2020-06-08_18h35.25.234,TranslationElicitation_eng-prolific,3.2.4,MacIntel,60,5eb450d3f625d5290ee37303,,1,0,98,49,1,97
,,,,,,,,,,,,,,,,,,,,,,,,,,,,,,,,,,,,,,,,,t,2.348999977,LET,FALSE,,,,,,,53,leche,Spanish,Sounds/spa_leche.mp3,2020-06-08_18h35.25.234,TranslationElicitation_eng-prolific,3.2.4,MacIntel,60,5eb450d3f625d5290ee37303,,1,0,98,49,1,97
,,,,,,,,,,,,,,,,,,,,,,,,,,,,,,,,,,,,,,,,,t,2.48300004,LETT,FALSE,,,,,,,53,leche,Spanish,Sounds/spa_leche.mp3,2020-06-08_18h35.25.234,TranslationElicitation_eng-prolific,3.2.4,MacIntel,60,5eb450d3f625d5290ee37303,,1,0,98,49,1,97
,,,,,,,,,,,,,,,,,,,,,,,,,,,,,,,,,,,,,,,,,e,2.532999992,LETTE,FALSE,,,,,,,53,leche,Spanish,Sounds/spa_leche.mp3,2020-06-08_18h35.25.234,TranslationElicitation_eng-prolific,3.2.4,MacIntel,60,5eb450d3f625d5290ee37303,,1,0,98,49,1,97
,,,,,,,,,,,,,,,,,,,,,,,,,,,,,,,,,,,,,,,,,r,2.615999937,LETTER,FALSE,,,,,,,53,leche,Spanish,Sounds/spa_leche.mp3,2020-06-08_18h35.25.234,TranslationElicitation_eng-prolific,3.2.4,MacIntel,60,5eb450d3f625d5290ee37303,,1,0,98,49,1,97
,,,,,,,,,,,,,,,,,,,,,,,,,,,,,,,,,,,,,,,,,return,2.998999834,LETTER,FALSE,,,,,,,53,leche,Spanish,Sounds/spa_leche.mp3,2020-06-08_18h35.25.234,TranslationElicitation_eng-prolific,3.2.4,MacIntel,60,5eb450d3f625d5290ee37303,2.998999834,1,0,98,49,1,97
,,,,,,,,,,,,,,,,,,,,,,,,,,,,,,,,,,,,,,,,,,,,,,,,,,,53,leche,Spanish,Sounds/spa_leche.mp3,2020-06-08_18h35.25.234,TranslationElicitation_eng-prolific,3.2.4,MacIntel,60,5eb450d3f625d5290ee37303,,1,0,98,49,1,97
,,,,,,,,,,,,,,,,,,,,,,,,,,,,,,,,,,,,,,,,,p,1.549999952,P,FALSE,,,,,,,78,pastel,Spanish,Sounds/spa_pastel.mp3,2020-06-08_18h35.25.234,TranslationElicitation_eng-prolific,3.2.4,MacIntel,60,5eb450d3f625d5290ee37303,,1,0,98,73,1,97
,,,,,,,,,,,,,,,,,,,,,,,,,,,,,,,,,,,,,,,,,a,1.650000095,PA,FALSE,,,,,,,78,pastel,Spanish,Sounds/spa_pastel.mp3,2020-06-08_18h35.25.234,TranslationElicitation_eng-prolific,3.2.4,MacIntel,60,5eb450d3f625d5290ee37303,,1,0,98,73,1,97
,,,,,,,,,,,,,,,,,,,,,,,,,,,,,,,,,,,,,,,,,s,1.766000032,PAS,FALSE,,,,,,,78,pastel,Spanish,Sounds/spa_pastel.mp3,2020-06-08_18h35.25.234,TranslationElicitation_eng-prolific,3.2.4,MacIntel,60,5eb450d3f625d5290ee37303,,1,0,98,73,1,97
,,,,,,,,,,,,,,,,,,,,,,,,,,,,,,,,,,,,,,,,,t,1.865999937,PAST,FALSE,,,,,,,78,pastel,Spanish,Sounds/spa_pastel.mp3,2020-06-08_18h35.25.234,TranslationElicitation_eng-prolific,3.2.4,MacIntel,60,5eb450d3f625d5290ee37303,,1,0,98,73,1,97
,,,,,,,,,,,,,,,,,,,,,,,,,,,,,,,,,,,,,,,,,a,1.967000008,PASTA,FALSE,,,,,,,78,pastel,Spanish,Sounds/spa_pastel.mp3,2020-06-08_18h35.25.234,TranslationElicitation_eng-prolific,3.2.4,MacIntel,60,5eb450d3f625d5290ee37303,,1,0,98,73,1,97
,,,,,,,,,,,,,,,,,,,,,,,,,,,,,,,,,,,,,,,,,return,2.332999945,PASTA,FALSE,,,,,,,78,pastel,Spanish,Sounds/spa_pastel.mp3,2020-06-08_18h35.25.234,TranslationElicitation_eng-prolific,3.2.4,MacIntel,60,5eb450d3f625d5290ee37303,2.332999945,1,0,98,73,1,97
,,,,,,,,,,,,,,,,,,,,,,,,,,,,,,,,,,,,,,,,,,,,,,,,,,,78,pastel,Spanish,Sounds/spa_pastel.mp3,2020-06-08_18h35.25.234,TranslationElicitation_eng-prolific,3.2.4,MacIntel,60,5eb450d3f625d5290ee37303,,1,0,98,73,1,97
,,,,,,,,,,,,,,,,,,,,,,,,,,,,,,,,,,,,,,,,,p,1.601000071,P,FALSE,,,,,,,88,plato,Spanish,Sounds/spa_plato.mp3,2020-06-08_18h35.25.234,TranslationElicitation_eng-prolific,3.2.4,MacIntel,60,5eb450d3f625d5290ee37303,,1,0,98,83,1,97
,,,,,,,,,,,,,,,,,,,,,,,,,,,,,,,,,,,,,,,,,l,1.666000128,PL,FALSE,,,,,,,88,plato,Spanish,Sounds/spa_plato.mp3,2020-06-08_18h35.25.234,TranslationElicitation_eng-prolific,3.2.4,MacIntel,60,5eb450d3f625d5290ee37303,,1,0,98,83,1,97
,,,,,,,,,,,,,,,,,,,,,,,,,,,,,,,,,,,,,,,,,a,1.784000158,PLA,FALSE,,,,,,,88,plato,Spanish,Sounds/spa_plato.mp3,2020-06-08_18h35.25.234,TranslationElicitation_eng-prolific,3.2.4,MacIntel,60,5eb450d3f625d5290ee37303,,1,0,98,83,1,97
,,,,,,,,,,,,,,,,,,,,,,,,,,,,,,,,,,,,,,,,,n,1.950000048,PLAN,FALSE,,,,,,,88,plato,Spanish,Sounds/spa_plato.mp3,2020-06-08_18h35.25.234,TranslationElicitation_eng-prolific,3.2.4,MacIntel,60,5eb450d3f625d5290ee37303,,1,0,98,83,1,97
,,,,,,,,,,,,,,,,,,,,,,,,,,,,,,,,,,,,,,,,,t,2.049999952,PLANT,FALSE,,,,,,,88,plato,Spanish,Sounds/spa_plato.mp3,2020-06-08_18h35.25.234,TranslationElicitation_eng-prolific,3.2.4,MacIntel,60,5eb450d3f625d5290ee37303,,1,0,98,83,1,97
,,,,,,,,,,,,,,,,,,,,,,,,,,,,,,,,,,,,,,,,,return,2.184000015,PLANT,FALSE,,,,,,,88,plato,Spanish,Sounds/spa_plato.mp3,2020-06-08_18h35.25.234,TranslationElicitation_eng-prolific,3.2.4,MacIntel,60,5eb450d3f625d5290ee37303,2.184000015,1,0,98,83,1,97
,,,,,,,,,,,,,,,,,,,,,,,,,,,,,,,,,,,,,,,,,,,,,,,,,,,88,plato,Spanish,Sounds/spa_plato.mp3,2020-06-08_18h35.25.234,TranslationElicitation_eng-prolific,3.2.4,MacIntel,60,5eb450d3f625d5290ee37303,,1,0,98,83,1,97
,,,,,,,,,,,,,,,,,,,,,,,,,,,,,,,,,,,,,,,,,b,1.282999992,B,FALSE,,,,,,,13,buho,Spanish,Sounds/spa_buho.mp3,2020-06-08_18h35.25.234,TranslationElicitation_eng-prolific,3.2.4,MacIntel,60,5eb450d3f625d5290ee37303,,1,0,98,11,1,97
,,,,,,,,,,,,,,,,,,,,,,,,,,,,,,,,,,,,,,,,,o,1.517999887,BO,FALSE,,,,,,,13,buho,Spanish,Sounds/spa_buho.mp3,2020-06-08_18h35.25.234,TranslationElicitation_eng-prolific,3.2.4,MacIntel,60,5eb450d3f625d5290ee37303,,1,0,98,11,1,97
,,,,,,,,,,,,,,,,,,,,,,,,,,,,,,,,,,,,,,,,,w,1.616999865,BOW,FALSE,,,,,,,13,buho,Spanish,Sounds/spa_buho.mp3,2020-06-08_18h35.25.234,TranslationElicitation_eng-prolific,3.2.4,MacIntel,60,5eb450d3f625d5290ee37303,,1,0,98,11,1,97
,,,,,,,,,,,,,,,,,,,,,,,,,,,,,,,,,,,,,,,,,l,1.734999895,BOWL,FALSE,,,,,,,13,buho,Spanish,Sounds/spa_buho.mp3,2020-06-08_18h35.25.234,TranslationElicitation_eng-prolific,3.2.4,MacIntel,60,5eb450d3f625d5290ee37303,,1,0,98,11,1,97
,,,,,,,,,,,,,,,,,,,,,,,,,,,,,,,,,,,,,,,,,return,2.167999983,BOWL,FALSE,,,,,,,13,buho,Spanish,Sounds/spa_buho.mp3,2020-06-08_18h35.25.234,TranslationElicitation_eng-prolific,3.2.4,MacIntel,60,5eb450d3f625d5290ee37303,2.167999983,1,0,98,11,1,97
,,,,,,,,,,,,,,,,,,,,,,,,,,,,,,,,,,,,,,,,,,,,,,,,,,,13,buho,Spanish,Sounds/spa_buho.mp3,2020-06-08_18h35.25.234,TranslationElicitation_eng-prolific,3.2.4,MacIntel,60,5eb450d3f625d5290ee37303,,1,0,98,11,1,97
,,,,,,,,,,,,,,,,,,,,,,,,,,,,,,,,,,,,,,,,,m,2.30099988,M,FALSE,,,,,,,62,martillo,Spanish,Sounds/spa_martillo.mp3,2020-06-08_18h35.25.234,TranslationElicitation_eng-prolific,3.2.4,MacIntel,60,5eb450d3f625d5290ee37303,,1,0,98,58,1,97
,,,,,,,,,,,,,,,,,,,,,,,,,,,,,,,,,,,,,,,,,a,2.417999983,MA,FALSE,,,,,,,62,martillo,Spanish,Sounds/spa_martillo.mp3,2020-06-08_18h35.25.234,TranslationElicitation_eng-prolific,3.2.4,MacIntel,60,5eb450d3f625d5290ee37303,,1,0,98,58,1,97
,,,,,,,,,,,,,,,,,,,,,,,,,,,,,,,,,,,,,,,,,r,2.63499999,MAR,FALSE,,,,,,,62,martillo,Spanish,Sounds/spa_martillo.mp3,2020-06-08_18h35.25.234,TranslationElicitation_eng-prolific,3.2.4,MacIntel,60,5eb450d3f625d5290ee37303,,1,0,98,58,1,97
,,,,,,,,,,,,,,,,,,,,,,,,,,,,,,,,,,,,,,,,,t,2.835000038,MART,FALSE,,,,,,,62,martillo,Spanish,Sounds/spa_martillo.mp3,2020-06-08_18h35.25.234,TranslationElicitation_eng-prolific,3.2.4,MacIntel,60,5eb450d3f625d5290ee37303,,1,0,98,58,1,97
,,,,,,,,,,,,,,,,,,,,,,,,,,,,,,,,,,,,,,,,,i,3.200999975,MARTI,FALSE,,,,,,,62,martillo,Spanish,Sounds/spa_martillo.mp3,2020-06-08_18h35.25.234,TranslationElicitation_eng-prolific,3.2.4,MacIntel,60,5eb450d3f625d5290ee37303,,1,0,98,58,1,97
,,,,,,,,,,,,,,,,,,,,,,,,,,,,,,,,,,,,,,,,,n,3.984999895,MARTIN,FALSE,,,,,,,62,martillo,Spanish,Sounds/spa_martillo.mp3,2020-06-08_18h35.25.234,TranslationElicitation_eng-prolific,3.2.4,MacIntel,60,5eb450d3f625d5290ee37303,,1,0,98,58,1,97
,,,,,,,,,,,,,,,,,,,,,,,,,,,,,,,,,,,,,,,,,i,4.100999832,MARTINI,FALSE,,,,,,,62,martillo,Spanish,Sounds/spa_martillo.mp3,2020-06-08_18h35.25.234,TranslationElicitation_eng-prolific,3.2.4,MacIntel,60,5eb450d3f625d5290ee37303,,1,0,98,58,1,97
,,,,,,,,,,,,,,,,,,,,,,,,,,,,,,,,,,,,,,,,,return,4.53399992,MARTINI,FALSE,,,,,,,62,martillo,Spanish,Sounds/spa_martillo.mp3,2020-06-08_18h35.25.234,TranslationElicitation_eng-prolific,3.2.4,MacIntel,60,5eb450d3f625d5290ee37303,4.53399992,1,0,98,58,1,97
,,,,,,,,,,,,,,,,,,,,,,,,,,,,,,,,,,,,,,,,,,,,,,,,,,,62,martillo,Spanish,Sounds/spa_martillo.mp3,2020-06-08_18h35.25.234,TranslationElicitation_eng-prolific,3.2.4,MacIntel,60,5eb450d3f625d5290ee37303,,1,0,98,58,1,97
,,,,,,,,,,,,,,,,,,,,,,,,,,,,,,,,,,,,,,,,,b,5.233999968,B,FALSE,,,,,,,82,perro,Spanish,Sounds/spa_perro.mp3,2020-06-08_18h35.25.234,TranslationElicitation_eng-prolific,3.2.4,MacIntel,60,5eb450d3f625d5290ee37303,,1,0,98,77,1,97
,,,,,,,,,,,,,,,,,,,,,,,,,,,,,,,,,,,,,,,,,i,5.650000095,BI,FALSE,,,,,,,82,perro,Spanish,Sounds/spa_perro.mp3,2020-06-08_18h35.25.234,TranslationElicitation_eng-prolific,3.2.4,MacIntel,60,5eb450d3f625d5290ee37303,,1,0,98,77,1,97
,,,,,,,,,,,,,,,,,,,,,,,,,,,,,,,,,,,,,,,,,r,5.76699996,BIR,FALSE,,,,,,,82,perro,Spanish,Sounds/spa_perro.mp3,2020-06-08_18h35.25.234,TranslationElicitation_eng-prolific,3.2.4,MacIntel,60,5eb450d3f625d5290ee37303,,1,0,98,77,1,97
,,,,,,,,,,,,,,,,,,,,,,,,,,,,,,,,,,,,,,,,,d,5.933000088,BIRD,FALSE,,,,,,,82,perro,Spanish,Sounds/spa_perro.mp3,2020-06-08_18h35.25.234,TranslationElicitation_eng-prolific,3.2.4,MacIntel,60,5eb450d3f625d5290ee37303,,1,0,98,77,1,97
,,,,,,,,,,,,,,,,,,,,,,,,,,,,,,,,,,,,,,,,,return,6.315999985,BIRD,FALSE,,,,,,,82,perro,Spanish,Sounds/spa_perro.mp3,2020-06-08_18h35.25.234,TranslationElicitation_eng-prolific,3.2.4,MacIntel,60,5eb450d3f625d5290ee37303,6.315999985,1,0,98,77,1,97
,,,,,,,,,,,,,,,,,,,,,,,,,,,,,,,,,,,,,,,,,,,,,,,,,,,82,perro,Spanish,Sounds/spa_perro.mp3,2020-06-08_18h35.25.234,TranslationElicitation_eng-prolific,3.2.4,MacIntel,60,5eb450d3f625d5290ee37303,,1,0,98,77,1,97
,,,,,,,,,,,,,,,,,,,,,,,,,,,,,,,,,,,,,,,,,s,1.648999929,S,FALSE,,,,,,,93,sol,Spanish,Sounds/spa_sol.mp3,2020-06-08_18h35.25.234,TranslationElicitation_eng-prolific,3.2.4,MacIntel,60,5eb450d3f625d5290ee37303,,1,0,98,88,1,97
,,,,,,,,,,,,,,,,,,,,,,,,,,,,,,,,,,,,,,,,,u,2.016000032,SU,FALSE,,,,,,,93,sol,Spanish,Sounds/spa_sol.mp3,2020-06-08_18h35.25.234,TranslationElicitation_eng-prolific,3.2.4,MacIntel,60,5eb450d3f625d5290ee37303,,1,0,98,88,1,97
,,,,,,,,,,,,,,,,,,,,,,,,,,,,,,,,,,,,,,,,,n,2.200000048,SUN,FALSE,,,,,,,93,sol,Spanish,Sounds/spa_sol.mp3,2020-06-08_18h35.25.234,TranslationElicitation_eng-prolific,3.2.4,MacIntel,60,5eb450d3f625d5290ee37303,,1,0,98,88,1,97
,,,,,,,,,,,,,,,,,,,,,,,,,,,,,,,,,,,,,,,,,return,2.46600008,SUN,FALSE,,,,,,,93,sol,Spanish,Sounds/spa_sol.mp3,2020-06-08_18h35.25.234,TranslationElicitation_eng-prolific,3.2.4,MacIntel,60,5eb450d3f625d5290ee37303,2.46600008,1,0,98,88,1,97
,,,,,,,,,,,,,,,,,,,,,,,,,,,,,,,,,,,,,,,,,,,,,,,,,,,93,sol,Spanish,Sounds/spa_sol.mp3,2020-06-08_18h35.25.234,TranslationElicitation_eng-prolific,3.2.4,MacIntel,60,5eb450d3f625d5290ee37303,,1,0,98,88,1,97
,,,,,,,,,,,,,,,,,,,,,,,,,,,,,,,,,,,,,,,,,m,1.601000071,M,FALSE,,,,,,,58,luna,Spanish,Sounds/spa_luna.mp3,2020-06-08_18h35.25.234,TranslationElicitation_eng-prolific,3.2.4,MacIntel,60,5eb450d3f625d5290ee37303,,1,0,98,54,1,97
,,,,,,,,,,,,,,,,,,,,,,,,,,,,,,,,,,,,,,,,,o,1.785000086,MO,FALSE,,,,,,,58,luna,Spanish,Sounds/spa_luna.mp3,2020-06-08_18h35.25.234,TranslationElicitation_eng-prolific,3.2.4,MacIntel,60,5eb450d3f625d5290ee37303,,1,0,98,54,1,97
,,,,,,,,,,,,,,,,,,,,,,,,,,,,,,,,,,,,,,,,,o,1.917999983,MOO,FALSE,,,,,,,58,luna,Spanish,Sounds/spa_luna.mp3,2020-06-08_18h35.25.234,TranslationElicitation_eng-prolific,3.2.4,MacIntel,60,5eb450d3f625d5290ee37303,,1,0,98,54,1,97
,,,,,,,,,,,,,,,,,,,,,,,,,,,,,,,,,,,,,,,,,n,2.017000198,MOON,FALSE,,,,,,,58,luna,Spanish,Sounds/spa_luna.mp3,2020-06-08_18h35.25.234,TranslationElicitation_eng-prolific,3.2.4,MacIntel,60,5eb450d3f625d5290ee37303,,1,0,98,54,1,97
,,,,,,,,,,,,,,,,,,,,,,,,,,,,,,,,,,,,,,,,,return,2.435000181,MOON,FALSE,,,,,,,58,luna,Spanish,Sounds/spa_luna.mp3,2020-06-08_18h35.25.234,TranslationElicitation_eng-prolific,3.2.4,MacIntel,60,5eb450d3f625d5290ee37303,2.435000181,1,0,98,54,1,97
,,,,,,,,,,,,,,,,,,,,,,,,,,,,,,,,,,,,,,,,,,,,,,,,,,,58,luna,Spanish,Sounds/spa_luna.mp3,2020-06-08_18h35.25.234,TranslationElicitation_eng-prolific,3.2.4,MacIntel,60,5eb450d3f625d5290ee37303,,1,0,98,54,1,97
,,,,,,,,,,,,,,,,,,,,,,,,,,,,,,,,,,,,,,,,,s,3.535000086,S,FALSE,,,,,,,2,avestruz,Spanish,Sounds/spa_avestruz.mp3,2020-06-08_18h35.25.234,TranslationElicitation_eng-prolific,3.2.4,MacIntel,60,5eb450d3f625d5290ee37303,,1,0,98,0,1,97
,,,,,,,,,,,,,,,,,,,,,,,,,,,,,,,,,,,,,,,,,t,3.76699996,ST,FALSE,,,,,,,2,avestruz,Spanish,Sounds/spa_avestruz.mp3,2020-06-08_18h35.25.234,TranslationElicitation_eng-prolific,3.2.4,MacIntel,60,5eb450d3f625d5290ee37303,,1,0,98,0,1,97
,,,,,,,,,,,,,,,,,,,,,,,,,,,,,,,,,,,,,,,,,o,3.950000048,STO,FALSE,,,,,,,2,avestruz,Spanish,Sounds/spa_avestruz.mp3,2020-06-08_18h35.25.234,TranslationElicitation_eng-prolific,3.2.4,MacIntel,60,5eb450d3f625d5290ee37303,,1,0,98,0,1,97
,,,,,,,,,,,,,,,,,,,,,,,,,,,,,,,,,,,,,,,,,o,4.084000111,STOO,FALSE,,,,,,,2,avestruz,Spanish,Sounds/spa_avestruz.mp3,2020-06-08_18h35.25.234,TranslationElicitation_eng-prolific,3.2.4,MacIntel,60,5eb450d3f625d5290ee37303,,1,0,98,0,1,97
,,,,,,,,,,,,,,,,,,,,,,,,,,,,,,,,,,,,,,,,,l,4.268000126,STOOL,FALSE,,,,,,,2,avestruz,Spanish,Sounds/spa_avestruz.mp3,2020-06-08_18h35.25.234,TranslationElicitation_eng-prolific,3.2.4,MacIntel,60,5eb450d3f625d5290ee37303,,1,0,98,0,1,97
,,,,,,,,,,,,,,,,,,,,,,,,,,,,,,,,,,,,,,,,,return,4.483999968,STOOL,FALSE,,,,,,,2,avestruz,Spanish,Sounds/spa_avestruz.mp3,2020-06-08_18h35.25.234,TranslationElicitation_eng-prolific,3.2.4,MacIntel,60,5eb450d3f625d5290ee37303,4.483999968,1,0,98,0,1,97
,,,,,,,,,,,,,,,,,,,,,,,,,,,,,,,,,,,,,,,,,,,,,,,,,,,2,avestruz,Spanish,Sounds/spa_avestruz.mp3,2020-06-08_18h35.25.234,TranslationElicitation_eng-prolific,3.2.4,MacIntel,60,5eb450d3f625d5290ee37303,,1,0,98,0,1,97
,,,,,,,,,,,,,,,,,,,,,,,,,,,,,,,,,,,,,,,,,h,2.48300004,H,FALSE,,,,,,,98,tobogan,Spanish,Sounds/spa_tobogan.mp3,2020-06-08_18h35.25.234,TranslationElicitation_eng-prolific,3.2.4,MacIntel,60,5eb450d3f625d5290ee37303,,1,0,98,92,1,97
,,,,,,,,,,,,,,,,,,,,,,,,,,,,,,,,,,,,,,,,,a,2.582999945,HA,FALSE,,,,,,,98,tobogan,Spanish,Sounds/spa_tobogan.mp3,2020-06-08_18h35.25.234,TranslationElicitation_eng-prolific,3.2.4,MacIntel,60,5eb450d3f625d5290ee37303,,1,0,98,92,1,97
,,,,,,,,,,,,,,,,,,,,,,,,,,,,,,,,,,,,,,,,,n,2.682999849,HAN,FALSE,,,,,,,98,tobogan,Spanish,Sounds/spa_tobogan.mp3,2020-06-08_18h35.25.234,TranslationElicitation_eng-prolific,3.2.4,MacIntel,60,5eb450d3f625d5290ee37303,,1,0,98,92,1,97
,,,,,,,,,,,,,,,,,,,,,,,,,,,,,,,,,,,,,,,,,d,2.766000032,HAND,FALSE,,,,,,,98,tobogan,Spanish,Sounds/spa_tobogan.mp3,2020-06-08_18h35.25.234,TranslationElicitation_eng-prolific,3.2.4,MacIntel,60,5eb450d3f625d5290ee37303,,1,0,98,92,1,97
,,,,,,,,,,,,,,,,,,,,,,,,,,,,,,,,,,,,,,,,,return,3.599999905,HAND,FALSE,,,,,,,98,tobogan,Spanish,Sounds/spa_tobogan.mp3,2020-06-08_18h35.25.234,TranslationElicitation_eng-prolific,3.2.4,MacIntel,60,5eb450d3f625d5290ee37303,3.599999905,1,0,98,92,1,97
,,,,,,,,,,,,,,,,,,,,,,,,,,,,,,,,,,,,,,,,,,,,,,,,,,,98,tobogan,Spanish,Sounds/spa_tobogan.mp3,2020-06-08_18h35.25.234,TranslationElicitation_eng-prolific,3.2.4,MacIntel,60,5eb450d3f625d5290ee37303,,1,0,98,92,1,97
,,,,,,,,,,,,,,,,,,,,,,,,,,,,,,,,,,,,,,,,,m,1.383000135,M,FALSE,,,,,,,66,moto,Spanish,Sounds/spa_moto.mp3,2020-06-08_18h35.25.234,TranslationElicitation_eng-prolific,3.2.4,MacIntel,60,5eb450d3f625d5290ee37303,,1,0,98,62,1,97
,,,,,,,,,,,,,,,,,,,,,,,,,,,,,,,,,,,,,,,,,o,1.601000071,MO,FALSE,,,,,,,66,moto,Spanish,Sounds/spa_moto.mp3,2020-06-08_18h35.25.234,TranslationElicitation_eng-prolific,3.2.4,MacIntel,60,5eb450d3f625d5290ee37303,,1,0,98,62,1,97
,,,,,,,,,,,,,,,,,,,,,,,,,,,,,,,,,,,,,,,,,backspace,2.584000111,M,TRUE,,,,,,,66,moto,Spanish,Sounds/spa_moto.mp3,2020-06-08_18h35.25.234,TranslationElicitation_eng-prolific,3.2.4,MacIntel,60,5eb450d3f625d5290ee37303,,1,0,98,62,1,97
,,,,,,,,,,,,,,,,,,,,,,,,,,,,,,,,,,,,,,,,,o,3.167000055,MO,TRUE,,,,,,,66,moto,Spanish,Sounds/spa_moto.mp3,2020-06-08_18h35.25.234,TranslationElicitation_eng-prolific,3.2.4,MacIntel,60,5eb450d3f625d5290ee37303,,1,0,98,62,1,97
,,,,,,,,,,,,,,,,,,,,,,,,,,,,,,,,,,,,,,,,,r,3.417000055,MOR,TRUE,,,,,,,66,moto,Spanish,Sounds/spa_moto.mp3,2020-06-08_18h35.25.234,TranslationElicitation_eng-prolific,3.2.4,MacIntel,60,5eb450d3f625d5290ee37303,,1,0,98,62,1,97
,,,,,,,,,,,,,,,,,,,,,,,,,,,,,,,,,,,,,,,,,t,3.650000095,MORT,TRUE,,,,,,,66,moto,Spanish,Sounds/spa_moto.mp3,2020-06-08_18h35.25.234,TranslationElicitation_eng-prolific,3.2.4,MacIntel,60,5eb450d3f625d5290ee37303,,1,0,98,62,1,97
,,,,,,,,,,,,,,,,,,,,,,,,,,,,,,,,,,,,,,,,,a,3.901000023,MORTA,TRUE,,,,,,,66,moto,Spanish,Sounds/spa_moto.mp3,2020-06-08_18h35.25.234,TranslationElicitation_eng-prolific,3.2.4,MacIntel,60,5eb450d3f625d5290ee37303,,1,0,98,62,1,97
,,,,,,,,,,,,,,,,,,,,,,,,,,,,,,,,,,,,,,,,,r,4.26699996,MORTAR,TRUE,,,,,,,66,moto,Spanish,Sounds/spa_moto.mp3,2020-06-08_18h35.25.234,TranslationElicitation_eng-prolific,3.2.4,MacIntel,60,5eb450d3f625d5290ee37303,,1,0,98,62,1,97
,,,,,,,,,,,,,,,,,,,,,,,,,,,,,,,,,,,,,,,,,return,4.884000063,MORTAR,TRUE,,,,,,,66,moto,Spanish,Sounds/spa_moto.mp3,2020-06-08_18h35.25.234,TranslationElicitation_eng-prolific,3.2.4,MacIntel,60,5eb450d3f625d5290ee37303,4.884000063,1,0,98,62,1,97
,,,,,,,,,,,,,,,,,,,,,,,,,,,,,,,,,,,,,,,,,,,,,,,,,,,66,moto,Spanish,Sounds/spa_moto.mp3,2020-06-08_18h35.25.234,TranslationElicitation_eng-prolific,3.2.4,MacIntel,60,5eb450d3f625d5290ee37303,,1,0,98,62,1,97
,,,,,,,,,,,,,,,,,,,,,,,,,,,,,,,,,,,,,,,,,b,3.833999872,B,FALSE,,,,,,,65,mono,Spanish,Sounds/spa_mono.mp3,2020-06-08_18h35.25.234,TranslationElicitation_eng-prolific,3.2.4,MacIntel,60,5eb450d3f625d5290ee37303,,1,0,98,61,1,97
,,,,,,,,,,,,,,,,,,,,,,,,,,,,,,,,,,,,,,,,,l,4.01699996,BL,FALSE,,,,,,,65,mono,Spanish,Sounds/spa_mono.mp3,2020-06-08_18h35.25.234,TranslationElicitation_eng-prolific,3.2.4,MacIntel,60,5eb450d3f625d5290ee37303,,1,0,98,61,1,97
,,,,,,,,,,,,,,,,,,,,,,,,,,,,,,,,,,,,,,,,,backspace,4.950000048,B,TRUE,,,,,,,65,mono,Spanish,Sounds/spa_mono.mp3,2020-06-08_18h35.25.234,TranslationElicitation_eng-prolific,3.2.4,MacIntel,60,5eb450d3f625d5290ee37303,,1,0,98,61,1,97
,,,,,,,,,,,,,,,,,,,,,,,,,,,,,,,,,,,,,,,,,backspace,5.101000071,,TRUE,,,,,,,65,mono,Spanish,Sounds/spa_mono.mp3,2020-06-08_18h35.25.234,TranslationElicitation_eng-prolific,3.2.4,MacIntel,60,5eb450d3f625d5290ee37303,,1,0,98,61,1,97
,,,,,,,,,,,,,,,,,,,,,,,,,,,,,,,,,,,,,,,,,m,5.500999928,M,TRUE,,,,,,,65,mono,Spanish,Sounds/spa_mono.mp3,2020-06-08_18h35.25.234,TranslationElicitation_eng-prolific,3.2.4,MacIntel,60,5eb450d3f625d5290ee37303,,1,0,98,61,1,97
,,,,,,,,,,,,,,,,,,,,,,,,,,,,,,,,,,,,,,,,,o,5.700999975,MO,TRUE,,,,,,,65,mono,Spanish,Sounds/spa_mono.mp3,2020-06-08_18h35.25.234,TranslationElicitation_eng-prolific,3.2.4,MacIntel,60,5eb450d3f625d5290ee37303,,1,0,98,61,1,97
,,,,,,,,,,,,,,,,,,,,,,,,,,,,,,,,,,,,,,,,,n,5.882999897,MON,TRUE,,,,,,,65,mono,Spanish,Sounds/spa_mono.mp3,2020-06-08_18h35.25.234,TranslationElicitation_eng-prolific,3.2.4,MacIntel,60,5eb450d3f625d5290ee37303,,1,0,98,61,1,97
,,,,,,,,,,,,,,,,,,,,,,,,,,,,,,,,,,,,,,,,,o,6.065999985,MONO,TRUE,,,,,,,65,mono,Spanish,Sounds/spa_mono.mp3,2020-06-08_18h35.25.234,TranslationElicitation_eng-prolific,3.2.4,MacIntel,60,5eb450d3f625d5290ee37303,,1,0,98,61,1,97
,,,,,,,,,,,,,,,,,,,,,,,,,,,,,,,,,,,,,,,,,c,6.433000088,MONOC,TRUE,,,,,,,65,mono,Spanish,Sounds/spa_mono.mp3,2020-06-08_18h35.25.234,TranslationElicitation_eng-prolific,3.2.4,MacIntel,60,5eb450d3f625d5290ee37303,,1,0,98,61,1,97
,,,,,,,,,,,,,,,,,,,,,,,,,,,,,,,,,,,,,,,,,h,6.55099988,MONOCH,TRUE,,,,,,,65,mono,Spanish,Sounds/spa_mono.mp3,2020-06-08_18h35.25.234,TranslationElicitation_eng-prolific,3.2.4,MacIntel,60,5eb450d3f625d5290ee37303,,1,0,98,61,1,97
,,,,,,,,,,,,,,,,,,,,,,,,,,,,,,,,,,,,,,,,,r,6.651000023,MONOCHR,TRUE,,,,,,,65,mono,Spanish,Sounds/spa_mono.mp3,2020-06-08_18h35.25.234,TranslationElicitation_eng-prolific,3.2.4,MacIntel,60,5eb450d3f625d5290ee37303,,1,0,98,61,1,97
,,,,,,,,,,,,,,,,,,,,,,,,,,,,,,,,,,,,,,,,,o,6.80099988,MONOCHRO,TRUE,,,,,,,65,mono,Spanish,Sounds/spa_mono.mp3,2020-06-08_18h35.25.234,TranslationElicitation_eng-prolific,3.2.4,MacIntel,60,5eb450d3f625d5290ee37303,,1,0,98,61,1,97
,,,,,,,,,,,,,,,,,,,,,,,,,,,,,,,,,,,,,,,,,m,7.01699996,MONOCHROM,TRUE,,,,,,,65,mono,Spanish,Sounds/spa_mono.mp3,2020-06-08_18h35.25.234,TranslationElicitation_eng-prolific,3.2.4,MacIntel,60,5eb450d3f625d5290ee37303,,1,0,98,61,1,97
,,,,,,,,,,,,,,,,,,,,,,,,,,,,,,,,,,,,,,,,,e,7.132999897,MONOCHROME,TRUE,,,,,,,65,mono,Spanish,Sounds/spa_mono.mp3,2020-06-08_18h35.25.234,TranslationElicitation_eng-prolific,3.2.4,MacIntel,60,5eb450d3f625d5290ee37303,,1,0,98,61,1,97
,,,,,,,,,,,,,,,,,,,,,,,,,,,,,,,,,,,,,,,,,return,7.368000031,MONOCHROME,TRUE,,,,,,,65,mono,Spanish,Sounds/spa_mono.mp3,2020-06-08_18h35.25.234,TranslationElicitation_eng-prolific,3.2.4,MacIntel,60,5eb450d3f625d5290ee37303,7.368000031,1,0,98,61,1,97
,,,,,,,,,,,,,,,,,,,,,,,,,,,,,,,,,,,,,,,,,,,,,,,,,,,65,mono,Spanish,Sounds/spa_mono.mp3,2020-06-08_18h35.25.234,TranslationElicitation_eng-prolific,3.2.4,MacIntel,60,5eb450d3f625d5290ee37303,,1,0,98,61,1,97
,,,,,,,,,,,,,,,,,,,,,,,,,,,,,,,,,,,,,,,,,m,2.318000078,M,FALSE,,,,,,,63,mesa,Spanish,Sounds/spa_mesa.mp3,2020-06-08_18h35.25.234,TranslationElicitation_eng-prolific,3.2.4,MacIntel,60,5eb450d3f625d5290ee37303,,1,0,98,59,1,97
,,,,,,,,,,,,,,,,,,,,,,,,,,,,,,,,,,,,,,,,,i,2.550000191,MI,FALSE,,,,,,,63,mesa,Spanish,Sounds/spa_mesa.mp3,2020-06-08_18h35.25.234,TranslationElicitation_eng-prolific,3.2.4,MacIntel,60,5eb450d3f625d5290ee37303,,1,0,98,59,1,97
,,,,,,,,,,,,,,,,,,,,,,,,,,,,,,,,,,,,,,,,,s,2.683000088,MIS,FALSE,,,,,,,63,mesa,Spanish,Sounds/spa_mesa.mp3,2020-06-08_18h35.25.234,TranslationElicitation_eng-prolific,3.2.4,MacIntel,60,5eb450d3f625d5290ee37303,,1,0,98,59,1,97
,,,,,,,,,,,,,,,,,,,,,,,,,,,,,,,,,,,,,,,,,s,2.867000103,MISS,FALSE,,,,,,,63,mesa,Spanish,Sounds/spa_mesa.mp3,2020-06-08_18h35.25.234,TranslationElicitation_eng-prolific,3.2.4,MacIntel,60,5eb450d3f625d5290ee37303,,1,0,98,59,1,97
,,,,,,,,,,,,,,,,,,,,,,,,,,,,,,,,,,,,,,,,,return,3.507000208,MISS,FALSE,,,,,,,63,mesa,Spanish,Sounds/spa_mesa.mp3,2020-06-08_18h35.25.234,TranslationElicitation_eng-prolific,3.2.4,MacIntel,60,5eb450d3f625d5290ee37303,3.507000208,1,0,98,59,1,97
,,,,,,,,,,,,,,,,,,,,,,,,,,,,,,,,,,,,,,,,,,,,,,,,,,,63,mesa,Spanish,Sounds/spa_mesa.mp3,2020-06-08_18h35.25.234,TranslationElicitation_eng-prolific,3.2.4,MacIntel,60,5eb450d3f625d5290ee37303,,1,0,98,59,1,97
,,,,,,,,,,,,,,,,,,,,,,,,,,,,,,,,,,,,,,,,,c,1.665999889,C,FALSE,,,,,,,29,coche,Spanish,Sounds/spa_coche.mp3,2020-06-08_18h35.25.234,TranslationElicitation_eng-prolific,3.2.4,MacIntel,60,5eb450d3f625d5290ee37303,,1,0,98,26,1,97
,,,,,,,,,,,,,,,,,,,,,,,,,,,,,,,,,,,,,,,,,a,1.915999889,CA,FALSE,,,,,,,29,coche,Spanish,Sounds/spa_coche.mp3,2020-06-08_18h35.25.234,TranslationElicitation_eng-prolific,3.2.4,MacIntel,60,5eb450d3f625d5290ee37303,,1,0,98,26,1,97
,,,,,,,,,,,,,,,,,,,,,,,,,,,,,,,,,,,,,,,,,t,2.065999985,CAT,FALSE,,,,,,,29,coche,Spanish,Sounds/spa_coche.mp3,2020-06-08_18h35.25.234,TranslationElicitation_eng-prolific,3.2.4,MacIntel,60,5eb450d3f625d5290ee37303,,1,0,98,26,1,97
,,,,,,,,,,,,,,,,,,,,,,,,,,,,,,,,,,,,,,,,,c,2.182999849,CATC,FALSE,,,,,,,29,coche,Spanish,Sounds/spa_coche.mp3,2020-06-08_18h35.25.234,TranslationElicitation_eng-prolific,3.2.4,MacIntel,60,5eb450d3f625d5290ee37303,,1,0,98,26,1,97
,,,,,,,,,,,,,,,,,,,,,,,,,,,,,,,,,,,,,,,,,h,2.315999985,CATCH,FALSE,,,,,,,29,coche,Spanish,Sounds/spa_coche.mp3,2020-06-08_18h35.25.234,TranslationElicitation_eng-prolific,3.2.4,MacIntel,60,5eb450d3f625d5290ee37303,,1,0,98,26,1,97
,,,,,,,,,,,,,,,,,,,,,,,,,,,,,,,,,,,,,,,,,return,2.582999945,CATCH,FALSE,,,,,,,29,coche,Spanish,Sounds/spa_coche.mp3,2020-06-08_18h35.25.234,TranslationElicitation_eng-prolific,3.2.4,MacIntel,60,5eb450d3f625d5290ee37303,2.582999945,1,0,98,26,1,97
,,,,,,,,,,,,,,,,,,,,,,,,,,,,,,,,,,,,,,,,,,,,,,,,,,,29,coche,Spanish,Sounds/spa_coche.mp3,2020-06-08_18h35.25.234,TranslationElicitation_eng-prolific,3.2.4,MacIntel,60,5eb450d3f625d5290ee37303,,1,0,98,26,1,97
,,,,,,,,,,,,,,,,,,,,,,,,,,,,,,,,,,,,,,,,,l,1.616000175,L,FALSE,,,,,,,55,leon,Spanish,Sounds/spa_leon.mp3,2020-06-08_18h35.25.234,TranslationElicitation_eng-prolific,3.2.4,MacIntel,60,5eb450d3f625d5290ee37303,,1,0,98,51,1,97
,,,,,,,,,,,,,,,,,,,,,,,,,,,,,,,,,,,,,,,,,i,1.883000135,LI,FALSE,,,,,,,55,leon,Spanish,Sounds/spa_leon.mp3,2020-06-08_18h35.25.234,TranslationElicitation_eng-prolific,3.2.4,MacIntel,60,5eb450d3f625d5290ee37303,,1,0,98,51,1,97
,,,,,,,,,,,,,,,,,,,,,,,,,,,,,,,,,,,,,,,,,o,2.067000151,LIO,FALSE,,,,,,,55,leon,Spanish,Sounds/spa_leon.mp3,2020-06-08_18h35.25.234,TranslationElicitation_eng-prolific,3.2.4,MacIntel,60,5eb450d3f625d5290ee37303,,1,0,98,51,1,97
,,,,,,,,,,,,,,,,,,,,,,,,,,,,,,,,,,,,,,,,,n,2.26699996,LION,FALSE,,,,,,,55,leon,Spanish,Sounds/spa_leon.mp3,2020-06-08_18h35.25.234,TranslationElicitation_eng-prolific,3.2.4,MacIntel,60,5eb450d3f625d5290ee37303,,1,0,98,51,1,97
,,,,,,,,,,,,,,,,,,,,,,,,,,,,,,,,,,,,,,,,,return,2.51699996,LION,FALSE,,,,,,,55,leon,Spanish,Sounds/spa_leon.mp3,2020-06-08_18h35.25.234,TranslationElicitation_eng-prolific,3.2.4,MacIntel,60,5eb450d3f625d5290ee37303,2.51699996,1,0,98,51,1,97
,,,,,,,,,,,,,,,,,,,,,,,,,,,,,,,,,,,,,,,,,,,,,,,,,,,55,leon,Spanish,Sounds/spa_leon.mp3,2020-06-08_18h35.25.234,TranslationElicitation_eng-prolific,3.2.4,MacIntel,60,5eb450d3f625d5290ee37303,,1,0,98,51,1,97
,,,,,,,,,,,,,,,,,,,,,,,,,,,,,,,,,,,,,,,,,l,2.332999945,L,FALSE,,,,,,,51,ladrillo,Spanish,Sounds/spa_ladrillo.mp3,2020-06-08_18h35.25.234,TranslationElicitation_eng-prolific,3.2.4,MacIntel,60,5eb450d3f625d5290ee37303,,1,0,98,47,1,97
,,,,,,,,,,,,,,,,,,,,,,,,,,,,,,,,,,,,,,,,,a,2.467000008,LA,FALSE,,,,,,,51,ladrillo,Spanish,Sounds/spa_ladrillo.mp3,2020-06-08_18h35.25.234,TranslationElicitation_eng-prolific,3.2.4,MacIntel,60,5eb450d3f625d5290ee37303,,1,0,98,47,1,97
,,,,,,,,,,,,,,,,,,,,,,,,,,,,,,,,,,,,,,,,,v,2.934000015,LAV,FALSE,,,,,,,51,ladrillo,Spanish,Sounds/spa_ladrillo.mp3,2020-06-08_18h35.25.234,TranslationElicitation_eng-prolific,3.2.4,MacIntel,60,5eb450d3f625d5290ee37303,,1,0,98,47,1,97
,,,,,,,,,,,,,,,,,,,,,,,,,,,,,,,,,,,,,,,,,a,3.084000111,LAVA,FALSE,,,,,,,51,ladrillo,Spanish,Sounds/spa_ladrillo.mp3,2020-06-08_18h35.25.234,TranslationElicitation_eng-prolific,3.2.4,MacIntel,60,5eb450d3f625d5290ee37303,,1,0,98,47,1,97
,,,,,,,,,,,,,,,,,,,,,,,,,,,,,,,,,,,,,,,,,t,3.351000071,LAVAT,FALSE,,,,,,,51,ladrillo,Spanish,Sounds/spa_ladrillo.mp3,2020-06-08_18h35.25.234,TranslationElicitation_eng-prolific,3.2.4,MacIntel,60,5eb450d3f625d5290ee37303,,1,0,98,47,1,97
,,,,,,,,,,,,,,,,,,,,,,,,,,,,,,,,,,,,,,,,,o,3.5,LAVATO,FALSE,,,,,,,51,ladrillo,Spanish,Sounds/spa_ladrillo.mp3,2020-06-08_18h35.25.234,TranslationElicitation_eng-prolific,3.2.4,MacIntel,60,5eb450d3f625d5290ee37303,,1,0,98,47,1,97
,,,,,,,,,,,,,,,,,,,,,,,,,,,,,,,,,,,,,,,,,r,3.567000151,LAVATOR,FALSE,,,,,,,51,ladrillo,Spanish,Sounds/spa_ladrillo.mp3,2020-06-08_18h35.25.234,TranslationElicitation_eng-prolific,3.2.4,MacIntel,60,5eb450d3f625d5290ee37303,,1,0,98,47,1,97
,,,,,,,,,,,,,,,,,,,,,,,,,,,,,,,,,,,,,,,,,y,3.717999935,LAVATORY,FALSE,,,,,,,51,ladrillo,Spanish,Sounds/spa_ladrillo.mp3,2020-06-08_18h35.25.234,TranslationElicitation_eng-prolific,3.2.4,MacIntel,60,5eb450d3f625d5290ee37303,,1,0,98,47,1,97
,,,,,,,,,,,,,,,,,,,,,,,,,,,,,,,,,,,,,,,,,return,4.851000071,LAVATORY,FALSE,,,,,,,51,ladrillo,Spanish,Sounds/spa_ladrillo.mp3,2020-06-08_18h35.25.234,TranslationElicitation_eng-prolific,3.2.4,MacIntel,60,5eb450d3f625d5290ee37303,4.851000071,1,0,98,47,1,97
,,,,,,,,,,,,,,,,,,,,,,,,,,,,,,,,,,,,,,,,,,,,,,,,,,,51,ladrillo,Spanish,Sounds/spa_ladrillo.mp3,2020-06-08_18h35.25.234,TranslationElicitation_eng-prolific,3.2.4,MacIntel,60,5eb450d3f625d5290ee37303,,1,0,98,47,1,97
,,,,,,,,,,,,,,,,,,,,,,,,,,,,,,,,,,,,,,,,,b,2.98300004,B,FALSE,,,,,,,48,gusano,Spanish,Sounds/spa_gusano.mp3,2020-06-08_18h35.25.234,TranslationElicitation_eng-prolific,3.2.4,MacIntel,60,5eb450d3f625d5290ee37303,,1,0,98,44,1,97
,,,,,,,,,,,,,,,,,,,,,,,,,,,,,,,,,,,,,,,,,u,3.134000063,BU,FALSE,,,,,,,48,gusano,Spanish,Sounds/spa_gusano.mp3,2020-06-08_18h35.25.234,TranslationElicitation_eng-prolific,3.2.4,MacIntel,60,5eb450d3f625d5290ee37303,,1,0,98,44,1,97
,,,,,,,,,,,,,,,,,,,,,,,,,,,,,,,,,,,,,,,,,s,3.333999872,BUS,FALSE,,,,,,,48,gusano,Spanish,Sounds/spa_gusano.mp3,2020-06-08_18h35.25.234,TranslationElicitation_eng-prolific,3.2.4,MacIntel,60,5eb450d3f625d5290ee37303,,1,0,98,44,1,97
,,,,,,,,,,,,,,,,,,,,,,,,,,,,,,,,,,,,,,,,,return,3.599999905,BUS,FALSE,,,,,,,48,gusano,Spanish,Sounds/spa_gusano.mp3,2020-06-08_18h35.25.234,TranslationElicitation_eng-prolific,3.2.4,MacIntel,60,5eb450d3f625d5290ee37303,3.599999905,1,0,98,44,1,97
,,,,,,,,,,,,,,,,,,,,,,,,,,,,,,,,,,,,,,,,,,,,,,,,,,,48,gusano,Spanish,Sounds/spa_gusano.mp3,2020-06-08_18h35.25.234,TranslationElicitation_eng-prolific,3.2.4,MacIntel,60,5eb450d3f625d5290ee37303,,1,0,98,44,1,97
,,,,,,,,,,,,,,,,,,,,,,,,,,,,,,,,,,,,,,,,,c,10.41699982,C,FALSE,,,,,,,32,cuchara,Spanish,Sounds/spa_cuchara.mp3,2020-06-08_18h35.25.234,TranslationElicitation_eng-prolific,3.2.4,MacIntel,60,5eb450d3f625d5290ee37303,,1,0,98,28,1,97
,,,,,,,,,,,,,,,,,,,,,,,,,,,,,,,,,,,,,,,,,h,10.55099988,CH,FALSE,,,,,,,32,cuchara,Spanish,Sounds/spa_cuchara.mp3,2020-06-08_18h35.25.234,TranslationElicitation_eng-prolific,3.2.4,MacIntel,60,5eb450d3f625d5290ee37303,,1,0,98,28,1,97
,,,,,,,,,,,,,,,,,,,,,,,,,,,,,,,,,,,,,,,,,a,10.64999986,CHA,FALSE,,,,,,,32,cuchara,Spanish,Sounds/spa_cuchara.mp3,2020-06-08_18h35.25.234,TranslationElicitation_eng-prolific,3.2.4,MacIntel,60,5eb450d3f625d5290ee37303,,1,0,98,28,1,97
,,,,,,,,,,,,,,,,,,,,,,,,,,,,,,,,,,,,,,,,,r,11.04999995,CHAR,FALSE,,,,,,,32,cuchara,Spanish,Sounds/spa_cuchara.mp3,2020-06-08_18h35.25.234,TranslationElicitation_eng-prolific,3.2.4,MacIntel,60,5eb450d3f625d5290ee37303,,1,0,98,28,1,97
,,,,,,,,,,,,,,,,,,,,,,,,,,,,,,,,,,,,,,,,,backspace,11.86799979,CHA,TRUE,,,,,,,32,cuchara,Spanish,Sounds/spa_cuchara.mp3,2020-06-08_18h35.25.234,TranslationElicitation_eng-prolific,3.2.4,MacIntel,60,5eb450d3f625d5290ee37303,,1,0,98,28,1,97
,,,,,,,,,,,,,,,,,,,,,,,,,,,,,,,,,,,,,,,,,r,12.50099993,CHAR,TRUE,,,,,,,32,cuchara,Spanish,Sounds/spa_cuchara.mp3,2020-06-08_18h35.25.234,TranslationElicitation_eng-prolific,3.2.4,MacIntel,60,5eb450d3f625d5290ee37303,,1,0,98,28,1,97
,,,,,,,,,,,,,,,,,,,,,,,,,,,,,,,,,,,,,,,,,backspace,13.04999995,CHA,TRUE,,,,,,,32,cuchara,Spanish,Sounds/spa_cuchara.mp3,2020-06-08_18h35.25.234,TranslationElicitation_eng-prolific,3.2.4,MacIntel,60,5eb450d3f625d5290ee37303,,1,0,98,28,1,97
,,,,,,,,,,,,,,,,,,,,,,,,,,,,,,,,,,,,,,,,,i,13.28499985,CHAI,TRUE,,,,,,,32,cuchara,Spanish,Sounds/spa_cuchara.mp3,2020-06-08_18h35.25.234,TranslationElicitation_eng-prolific,3.2.4,MacIntel,60,5eb450d3f625d5290ee37303,,1,0,98,28,1,97
,,,,,,,,,,,,,,,,,,,,,,,,,,,,,,,,,,,,,,,,,r,13.38399982,CHAIR,TRUE,,,,,,,32,cuchara,Spanish,Sounds/spa_cuchara.mp3,2020-06-08_18h35.25.234,TranslationElicitation_eng-prolific,3.2.4,MacIntel,60,5eb450d3f625d5290ee37303,,1,0,98,28,1,97
,,,,,,,,,,,,,,,,,,,,,,,,,,,,,,,,,,,,,,,,,return,13.60099983,CHAIR,TRUE,,,,,,,32,cuchara,Spanish,Sounds/spa_cuchara.mp3,2020-06-08_18h35.25.234,TranslationElicitation_eng-prolific,3.2.4,MacIntel,60,5eb450d3f625d5290ee37303,13.60099983,1,0,98,28,1,97
,,,,,,,,,,,,,,,,,,,,,,,,,,,,,,,,,,,,,,,,,,,,,,,,,,,32,cuchara,Spanish,Sounds/spa_cuchara.mp3,2020-06-08_18h35.25.234,TranslationElicitation_eng-prolific,3.2.4,MacIntel,60,5eb450d3f625d5290ee37303,,1,0,98,28,1,97
,,,,,,,,,,,,,,,,,,,,,,,,,,,,,,,,,,,,,,,,,v,3.733999968,V,FALSE,,,,,,,102,ventana,Spanish,Sounds/spa_ventana.mp3,2020-06-08_18h35.25.234,TranslationElicitation_eng-prolific,3.2.4,MacIntel,60,5eb450d3f625d5290ee37303,,1,0,98,96,1,97
,,,,,,,,,,,,,,,,,,,,,,,,,,,,,,,,,,,,,,,,,e,3.817000151,VE,FALSE,,,,,,,102,ventana,Spanish,Sounds/spa_ventana.mp3,2020-06-08_18h35.25.234,TranslationElicitation_eng-prolific,3.2.4,MacIntel,60,5eb450d3f625d5290ee37303,,1,0,98,96,1,97
,,,,,,,,,,,,,,,,,,,,,,,,,,,,,,,,,,,,,,,,,b,3.934000015,VEB,FALSE,,,,,,,102,ventana,Spanish,Sounds/spa_ventana.mp3,2020-06-08_18h35.25.234,TranslationElicitation_eng-prolific,3.2.4,MacIntel,60,5eb450d3f625d5290ee37303,,1,0,98,96,1,97
,,,,,,,,,,,,,,,,,,,,,,,,,,,,,,,,,,,,,,,,,t,4.049999952,VEBT,FALSE,,,,,,,102,ventana,Spanish,Sounds/spa_ventana.mp3,2020-06-08_18h35.25.234,TranslationElicitation_eng-prolific,3.2.4,MacIntel,60,5eb450d3f625d5290ee37303,,1,0,98,96,1,97
,,,,,,,,,,,,,,,,,,,,,,,,,,,,,,,,,,,,,,,,,backspace,4.532999992,VEB,TRUE,,,,,,,102,ventana,Spanish,Sounds/spa_ventana.mp3,2020-06-08_18h35.25.234,TranslationElicitation_eng-prolific,3.2.4,MacIntel,60,5eb450d3f625d5290ee37303,,1,0,98,96,1,97
,,,,,,,,,,,,,,,,,,,,,,,,,,,,,,,,,,,,,,,,,backspace,4.684000015,VE,TRUE,,,,,,,102,ventana,Spanish,Sounds/spa_ventana.mp3,2020-06-08_18h35.25.234,TranslationElicitation_eng-prolific,3.2.4,MacIntel,60,5eb450d3f625d5290ee37303,,1,0,98,96,1,97
,,,,,,,,,,,,,,,,,,,,,,,,,,,,,,,,,,,,,,,,,backspace,4.799999952,V,TRUE,,,,,,,102,ventana,Spanish,Sounds/spa_ventana.mp3,2020-06-08_18h35.25.234,TranslationElicitation_eng-prolific,3.2.4,MacIntel,60,5eb450d3f625d5290ee37303,,1,0,98,96,1,97
,,,,,,,,,,,,,,,,,,,,,,,,,,,,,,,,,,,,,,,,,backspace,4.917000055,,TRUE,,,,,,,102,ventana,Spanish,Sounds/spa_ventana.mp3,2020-06-08_18h35.25.234,TranslationElicitation_eng-prolific,3.2.4,MacIntel,60,5eb450d3f625d5290ee37303,,1,0,98,96,1,97
,,,,,,,,,,,,,,,,,,,,,,,,,,,,,,,,,,,,,,,,,b,5.383000135,B,TRUE,,,,,,,102,ventana,Spanish,Sounds/spa_ventana.mp3,2020-06-08_18h35.25.234,TranslationElicitation_eng-prolific,3.2.4,MacIntel,60,5eb450d3f625d5290ee37303,,1,0,98,96,1,97
,,,,,,,,,,,,,,,,,,,,,,,,,,,,,,,,,,,,,,,,,e,5.51699996,BE,TRUE,,,,,,,102,ventana,Spanish,Sounds/spa_ventana.mp3,2020-06-08_18h35.25.234,TranslationElicitation_eng-prolific,3.2.4,MacIntel,60,5eb450d3f625d5290ee37303,,1,0,98,96,1,97
,,,,,,,,,,,,,,,,,,,,,,,,,,,,,,,,,,,,,,,,,n,5.617000103,BEN,TRUE,,,,,,,102,ventana,Spanish,Sounds/spa_ventana.mp3,2020-06-08_18h35.25.234,TranslationElicitation_eng-prolific,3.2.4,MacIntel,60,5eb450d3f625d5290ee37303,,1,0,98,96,1,97
,,,,,,,,,,,,,,,,,,,,,,,,,,,,,,,,,,,,,,,,,t,5.73300004,BENT,TRUE,,,,,,,102,ventana,Spanish,Sounds/spa_ventana.mp3,2020-06-08_18h35.25.234,TranslationElicitation_eng-prolific,3.2.4,MacIntel,60,5eb450d3f625d5290ee37303,,1,0,98,96,1,97
,,,,,,,,,,,,,,,,,,,,,,,,,,,,,,,,,,,,,,,,,return,6.118000031,BENT,TRUE,,,,,,,102,ventana,Spanish,Sounds/spa_ventana.mp3,2020-06-08_18h35.25.234,TranslationElicitation_eng-prolific,3.2.4,MacIntel,60,5eb450d3f625d5290ee37303,6.118000031,1,0,98,96,1,97
,,,,,,,,,,,,,,,,,,,,,,,,,,,,,,,,,,,,,,,,,,,,,,,,,,,102,ventana,Spanish,Sounds/spa_ventana.mp3,2020-06-08_18h35.25.234,TranslationElicitation_eng-prolific,3.2.4,MacIntel,60,5eb450d3f625d5290ee37303,,1,0,98,96,1,97
,,,,,,,,,,,,,,,,,,,,,,,,,,,,,,,,,,,,,,,,,l,2.566999912,L,FALSE,,,,,,,57,loro,Spanish,Sounds/spa_loro.mp3,2020-06-08_18h35.25.234,TranslationElicitation_eng-prolific,3.2.4,MacIntel,60,5eb450d3f625d5290ee37303,,1,0,98,53,1,97
,,,,,,,,,,,,,,,,,,,,,,,,,,,,,,,,,,,,,,,,,o,2.799000025,LO,FALSE,,,,,,,57,loro,Spanish,Sounds/spa_loro.mp3,2020-06-08_18h35.25.234,TranslationElicitation_eng-prolific,3.2.4,MacIntel,60,5eb450d3f625d5290ee37303,,1,0,98,53,1,97
,,,,,,,,,,,,,,,,,,,,,,,,,,,,,,,,,,,,,,,,,r,2.967000008,LOR,FALSE,,,,,,,57,loro,Spanish,Sounds/spa_loro.mp3,2020-06-08_18h35.25.234,TranslationElicitation_eng-prolific,3.2.4,MacIntel,60,5eb450d3f625d5290ee37303,,1,0,98,53,1,97
,,,,,,,,,,,,,,,,,,,,,,,,,,,,,,,,,,,,,,,,,r,3.115999937,LORR,FALSE,,,,,,,57,loro,Spanish,Sounds/spa_loro.mp3,2020-06-08_18h35.25.234,TranslationElicitation_eng-prolific,3.2.4,MacIntel,60,5eb450d3f625d5290ee37303,,1,0,98,53,1,97
,,,,,,,,,,,,,,,,,,,,,,,,,,,,,,,,,,,,,,,,,y,3.181999922,LORRY,FALSE,,,,,,,57,loro,Spanish,Sounds/spa_loro.mp3,2020-06-08_18h35.25.234,TranslationElicitation_eng-prolific,3.2.4,MacIntel,60,5eb450d3f625d5290ee37303,,1,0,98,53,1,97
,,,,,,,,,,,,,,,,,,,,,,,,,,,,,,,,,,,,,,,,,return,3.433000088,LORRY,FALSE,,,,,,,57,loro,Spanish,Sounds/spa_loro.mp3,2020-06-08_18h35.25.234,TranslationElicitation_eng-prolific,3.2.4,MacIntel,60,5eb450d3f625d5290ee37303,3.433000088,1,0,98,53,1,97
,,,,,,,,,,,,,,,,,,,,,,,,,,,,,,,,,,,,,,,,,,,,,,,,,,,57,loro,Spanish,Sounds/spa_loro.mp3,2020-06-08_18h35.25.234,TranslationElicitation_eng-prolific,3.2.4,MacIntel,60,5eb450d3f625d5290ee37303,,1,0,98,53,1,97
,,,,,,,,,,,,,,,,,,,,,,,,,,,,,,,,,,,,,,,,,g,1.682999849,G,FALSE,,,,,,,47,guitarra,Spanish,Sounds/spa_guitarra.mp3,2020-06-08_18h35.25.234,TranslationElicitation_eng-prolific,3.2.4,MacIntel,60,5eb450d3f625d5290ee37303,,1,0,98,43,1,97
,,,,,,,,,,,,,,,,,,,,,,,,,,,,,,,,,,,,,,,,,u,1.883999825,GU,FALSE,,,,,,,47,guitarra,Spanish,Sounds/spa_guitarra.mp3,2020-06-08_18h35.25.234,TranslationElicitation_eng-prolific,3.2.4,MacIntel,60,5eb450d3f625d5290ee37303,,1,0,98,43,1,97
,,,,,,,,,,,,,,,,,,,,,,,,,,,,,,,,,,,,,,,,,i,2.083999872,GUI,FALSE,,,,,,,47,guitarra,Spanish,Sounds/spa_guitarra.mp3,2020-06-08_18h35.25.234,TranslationElicitation_eng-prolific,3.2.4,MacIntel,60,5eb450d3f625d5290ee37303,,1,0,98,43,1,97
,,,,,,,,,,,,,,,,,,,,,,,,,,,,,,,,,,,,,,,,,t,2.30099988,GUIT,FALSE,,,,,,,47,guitarra,Spanish,Sounds/spa_guitarra.mp3,2020-06-08_18h35.25.234,TranslationElicitation_eng-prolific,3.2.4,MacIntel,60,5eb450d3f625d5290ee37303,,1,0,98,43,1,97
,,,,,,,,,,,,,,,,,,,,,,,,,,,,,,,,,,,,,,,,,a,2.417000055,GUITA,FALSE,,,,,,,47,guitarra,Spanish,Sounds/spa_guitarra.mp3,2020-06-08_18h35.25.234,TranslationElicitation_eng-prolific,3.2.4,MacIntel,60,5eb450d3f625d5290ee37303,,1,0,98,43,1,97
,,,,,,,,,,,,,,,,,,,,,,,,,,,,,,,,,,,,,,,,,r,2.565999985,GUITAR,FALSE,,,,,,,47,guitarra,Spanish,Sounds/spa_guitarra.mp3,2020-06-08_18h35.25.234,TranslationElicitation_eng-prolific,3.2.4,MacIntel,60,5eb450d3f625d5290ee37303,,1,0,98,43,1,97
,,,,,,,,,,,,,,,,,,,,,,,,,,,,,,,,,,,,,,,,,return,2.950999975,GUITAR,FALSE,,,,,,,47,guitarra,Spanish,Sounds/spa_guitarra.mp3,2020-06-08_18h35.25.234,TranslationElicitation_eng-prolific,3.2.4,MacIntel,60,5eb450d3f625d5290ee37303,2.950999975,1,0,98,43,1,97
,,,,,,,,,,,,,,,,,,,,,,,,,,,,,,,,,,,,,,,,,,,,,,,,,,,47,guitarra,Spanish,Sounds/spa_guitarra.mp3,2020-06-08_18h35.25.234,TranslationElicitation_eng-prolific,3.2.4,MacIntel,60,5eb450d3f625d5290ee37303,,1,0,98,43,1,97
,,,,,,,,,,,,,,,,,,,,,,,,,,,,,,,,,,,,,,,,,g,1.415999889,G,FALSE,,,,,,,46,grifo,Spanish,Sounds/spa_grifo.mp3,2020-06-08_18h35.25.234,TranslationElicitation_eng-prolific,3.2.4,MacIntel,60,5eb450d3f625d5290ee37303,,1,0,98,42,1,97
,,,,,,,,,,,,,,,,,,,,,,,,,,,,,,,,,,,,,,,,,r,1.615999937,GR,FALSE,,,,,,,46,grifo,Spanish,Sounds/spa_grifo.mp3,2020-06-08_18h35.25.234,TranslationElicitation_eng-prolific,3.2.4,MacIntel,60,5eb450d3f625d5290ee37303,,1,0,98,42,1,97
,,,,,,,,,,,,,,,,,,,,,,,,,,,,,,,,,,,,,,,,,i,1.865999937,GRI,FALSE,,,,,,,46,grifo,Spanish,Sounds/spa_grifo.mp3,2020-06-08_18h35.25.234,TranslationElicitation_eng-prolific,3.2.4,MacIntel,60,5eb450d3f625d5290ee37303,,1,0,98,42,1,97
,,,,,,,,,,,,,,,,,,,,,,,,,,,,,,,,,,,,,,,,,e,1.950000048,GRIE,FALSE,,,,,,,46,grifo,Spanish,Sounds/spa_grifo.mp3,2020-06-08_18h35.25.234,TranslationElicitation_eng-prolific,3.2.4,MacIntel,60,5eb450d3f625d5290ee37303,,1,0,98,42,1,97
,,,,,,,,,,,,,,,,,,,,,,,,,,,,,,,,,,,,,,,,,f,2.098999977,GRIEF,FALSE,,,,,,,46,grifo,Spanish,Sounds/spa_grifo.mp3,2020-06-08_18h35.25.234,TranslationElicitation_eng-prolific,3.2.4,MacIntel,60,5eb450d3f625d5290ee37303,,1,0,98,42,1,97
,,,,,,,,,,,,,,,,,,,,,,,,,,,,,,,,,,,,,,,,,return,2.53399992,GRIEF,FALSE,,,,,,,46,grifo,Spanish,Sounds/spa_grifo.mp3,2020-06-08_18h35.25.234,TranslationElicitation_eng-prolific,3.2.4,MacIntel,60,5eb450d3f625d5290ee37303,2.53399992,1,0,98,42,1,97
,,,,,,,,,,,,,,,,,,,,,,,,,,,,,,,,,,,,,,,,,,,,,,,,,,,46,grifo,Spanish,Sounds/spa_grifo.mp3,2020-06-08_18h35.25.234,TranslationElicitation_eng-prolific,3.2.4,MacIntel,60,5eb450d3f625d5290ee37303,,1,0,98,42,1,97
,,,,,,,,,,,,,,,,,,,,,,,,,,,,,,,,,,,,,,,,,c,1.898999929,C,FALSE,,,,,,,15,caballo,Spanish,Sounds/spa_caballo.mp3,2020-06-08_18h35.25.234,TranslationElicitation_eng-prolific,3.2.4,MacIntel,60,5eb450d3f625d5290ee37303,,1,0,98,13,1,97
,,,,,,,,,,,,,,,,,,,,,,,,,,,,,,,,,,,,,,,,,a,2.049999952,CA,FALSE,,,,,,,15,caballo,Spanish,Sounds/spa_caballo.mp3,2020-06-08_18h35.25.234,TranslationElicitation_eng-prolific,3.2.4,MacIntel,60,5eb450d3f625d5290ee37303,,1,0,98,13,1,97
,,,,,,,,,,,,,,,,,,,,,,,,,,,,,,,,,,,,,,,,,r,2.200000048,CAR,FALSE,,,,,,,15,caballo,Spanish,Sounds/spa_caballo.mp3,2020-06-08_18h35.25.234,TranslationElicitation_eng-prolific,3.2.4,MacIntel,60,5eb450d3f625d5290ee37303,,1,0,98,13,1,97
,,,,,,,,,,,,,,,,,,,,,,,,,,,,,,,,,,,,,,,,,a,2.282000065,CARA,FALSE,,,,,,,15,caballo,Spanish,Sounds/spa_caballo.mp3,2020-06-08_18h35.25.234,TranslationElicitation_eng-prolific,3.2.4,MacIntel,60,5eb450d3f625d5290ee37303,,1,0,98,13,1,97
,,,,,,,,,,,,,,,,,,,,,,,,,,,,,,,,,,,,,,,,,v,2.5,CARAV,FALSE,,,,,,,15,caballo,Spanish,Sounds/spa_caballo.mp3,2020-06-08_18h35.25.234,TranslationElicitation_eng-prolific,3.2.4,MacIntel,60,5eb450d3f625d5290ee37303,,1,0,98,13,1,97
,,,,,,,,,,,,,,,,,,,,,,,,,,,,,,,,,,,,,,,,,a,2.633000135,CARAVA,FALSE,,,,,,,15,caballo,Spanish,Sounds/spa_caballo.mp3,2020-06-08_18h35.25.234,TranslationElicitation_eng-prolific,3.2.4,MacIntel,60,5eb450d3f625d5290ee37303,,1,0,98,13,1,97
,,,,,,,,,,,,,,,,,,,,,,,,,,,,,,,,,,,,,,,,,n,3.350000143,CARAVAN,FALSE,,,,,,,15,caballo,Spanish,Sounds/spa_caballo.mp3,2020-06-08_18h35.25.234,TranslationElicitation_eng-prolific,3.2.4,MacIntel,60,5eb450d3f625d5290ee37303,,1,0,98,13,1,97
,,,,,,,,,,,,,,,,,,,,,,,,,,,,,,,,,,,,,,,,,return,3.565000057,CARAVAN,FALSE,,,,,,,15,caballo,Spanish,Sounds/spa_caballo.mp3,2020-06-08_18h35.25.234,TranslationElicitation_eng-prolific,3.2.4,MacIntel,60,5eb450d3f625d5290ee37303,3.565000057,1,0,98,13,1,97
,,,,,,,,,,,,,,,,,,,,,,,,,,,,,,,,,,,,,,,,,,,,,,,,,,,15,caballo,Spanish,Sounds/spa_caballo.mp3,2020-06-08_18h35.25.234,TranslationElicitation_eng-prolific,3.2.4,MacIntel,60,5eb450d3f625d5290ee37303,,1,0,98,13,1,97
,,,,,,,,,,,,,,,,,,,,,,,,,,,,,,,,,,,,,,,,,o,4.117000103,O,FALSE,,,,,,,4,biberon,Spanish,Sounds/spa_biberon.mp3,2020-06-08_18h35.25.234,TranslationElicitation_eng-prolific,3.2.4,MacIntel,60,5eb450d3f625d5290ee37303,,1,0,98,2,1,97
,,,,,,,,,,,,,,,,,,,,,,,,,,,,,,,,,,,,,,,,,n,4.200999975,ON,FALSE,,,,,,,4,biberon,Spanish,Sounds/spa_biberon.mp3,2020-06-08_18h35.25.234,TranslationElicitation_eng-prolific,3.2.4,MacIntel,60,5eb450d3f625d5290ee37303,,1,0,98,2,1,97
,,,,,,,,,,,,,,,,,,,,,,,,,,,,,,,,,,,,,,,,,return,4.468000174,ON,FALSE,,,,,,,4,biberon,Spanish,Sounds/spa_biberon.mp3,2020-06-08_18h35.25.234,TranslationElicitation_eng-prolific,3.2.4,MacIntel,60,5eb450d3f625d5290ee37303,4.468000174,1,0,98,2,1,97
,,,,,,,,,,,,,,,,,,,,,,,,,,,,,,,,,,,,,,,,,,,,,,,,,,,4,biberon,Spanish,Sounds/spa_biberon.mp3,2020-06-08_18h35.25.234,TranslationElicitation_eng-prolific,3.2.4,MacIntel,60,5eb450d3f625d5290ee37303,,1,0,98,2,1,97
,,,,,,,,,,,,,,,,,,,,,,,,,,,,,,,,,,,,,,,,,b,1.465999842,B,FALSE,,,,,,,11,boton,Spanish,Sounds/spa_boton.mp3,2020-06-08_18h35.25.234,TranslationElicitation_eng-prolific,3.2.4,MacIntel,60,5eb450d3f625d5290ee37303,,1,0,98,9,1,97
,,,,,,,,,,,,,,,,,,,,,,,,,,,,,,,,,,,,,,,,,a,2.049999952,BA,FALSE,,,,,,,11,boton,Spanish,Sounds/spa_boton.mp3,2020-06-08_18h35.25.234,TranslationElicitation_eng-prolific,3.2.4,MacIntel,60,5eb450d3f625d5290ee37303,,1,0,98,9,1,97
,,,,,,,,,,,,,,,,,,,,,,,,,,,,,,,,,,,,,,,,,t,2.25,BAT,FALSE,,,,,,,11,boton,Spanish,Sounds/spa_boton.mp3,2020-06-08_18h35.25.234,TranslationElicitation_eng-prolific,3.2.4,MacIntel,60,5eb450d3f625d5290ee37303,,1,0,98,9,1,97
,,,,,,,,,,,,,,,,,,,,,,,,,,,,,,,,,,,,,,,,,o,2.816999912,BATO,FALSE,,,,,,,11,boton,Spanish,Sounds/spa_boton.mp3,2020-06-08_18h35.25.234,TranslationElicitation_eng-prolific,3.2.4,MacIntel,60,5eb450d3f625d5290ee37303,,1,0,98,9,1,97
,,,,,,,,,,,,,,,,,,,,,,,,,,,,,,,,,,,,,,,,,n,2.899999857,BATON,FALSE,,,,,,,11,boton,Spanish,Sounds/spa_boton.mp3,2020-06-08_18h35.25.234,TranslationElicitation_eng-prolific,3.2.4,MacIntel,60,5eb450d3f625d5290ee37303,,1,0,98,9,1,97
,,,,,,,,,,,,,,,,,,,,,,,,,,,,,,,,,,,,,,,,,return,3.616999865,BATON,FALSE,,,,,,,11,boton,Spanish,Sounds/spa_boton.mp3,2020-06-08_18h35.25.234,TranslationElicitation_eng-prolific,3.2.4,MacIntel,60,5eb450d3f625d5290ee37303,3.616999865,1,0,98,9,1,97
,,,,,,,,,,,,,,,,,,,,,,,,,,,,,,,,,,,,,,,,,,,,,,,,,,,11,boton,Spanish,Sounds/spa_boton.mp3,2020-06-08_18h35.25.234,TranslationElicitation_eng-prolific,3.2.4,MacIntel,60,5eb450d3f625d5290ee37303,,1,0,98,9,1,97
,,,,,,,,,,,,,,,,,,,,,,,,,,,,,,,,,,,,,,,,,b,1.56799984,B,FALSE,,,,,,,8,bol,Spanish,Sounds/spa_bol.mp3,2020-06-08_18h35.25.234,TranslationElicitation_eng-prolific,3.2.4,MacIntel,60,5eb450d3f625d5290ee37303,,1,0,98,6,1,97
,,,,,,,,,,,,,,,,,,,,,,,,,,,,,,,,,,,,,,,,,o,2.083999872,BO,FALSE,,,,,,,8,bol,Spanish,Sounds/spa_bol.mp3,2020-06-08_18h35.25.234,TranslationElicitation_eng-prolific,3.2.4,MacIntel,60,5eb450d3f625d5290ee37303,,1,0,98,6,1,97
,,,,,,,,,,,,,,,,,,,,,,,,,,,,,,,,,,,,,,,,,w,2.217999935,BOW,FALSE,,,,,,,8,bol,Spanish,Sounds/spa_bol.mp3,2020-06-08_18h35.25.234,TranslationElicitation_eng-prolific,3.2.4,MacIntel,60,5eb450d3f625d5290ee37303,,1,0,98,6,1,97
,,,,,,,,,,,,,,,,,,,,,,,,,,,,,,,,,,,,,,,,,l,2.368000031,BOWL,FALSE,,,,,,,8,bol,Spanish,Sounds/spa_bol.mp3,2020-06-08_18h35.25.234,TranslationElicitation_eng-prolific,3.2.4,MacIntel,60,5eb450d3f625d5290ee37303,,1,0,98,6,1,97
,,,,,,,,,,,,,,,,,,,,,,,,,,,,,,,,,,,,,,,,,return,2.63499999,BOWL,FALSE,,,,,,,8,bol,Spanish,Sounds/spa_bol.mp3,2020-06-08_18h35.25.234,TranslationElicitation_eng-prolific,3.2.4,MacIntel,60,5eb450d3f625d5290ee37303,2.63499999,1,0,98,6,1,97
,,,,,,,,,,,,,,,,,,,,,,,,,,,,,,,,,,,,,,,,,,,,,,,,,,,8,bol,Spanish,Sounds/spa_bol.mp3,2020-06-08_18h35.25.234,TranslationElicitation_eng-prolific,3.2.4,MacIntel,60,5eb450d3f625d5290ee37303,,1,0,98,6,1,97
,,,,,,,,,,,,,,,,,,,,,,,,,,,,,,,,,,,,,,,,,p,1.465999842,P,FALSE,,,,,,,79,patata,Spanish,Sounds/spa_patata.mp3,2020-06-08_18h35.25.234,TranslationElicitation_eng-prolific,3.2.4,MacIntel,60,5eb450d3f625d5290ee37303,,1,0,98,74,1,97
,,,,,,,,,,,,,,,,,,,,,,,,,,,,,,,,,,,,,,,,,o,1.665999889,PO,FALSE,,,,,,,79,patata,Spanish,Sounds/spa_patata.mp3,2020-06-08_18h35.25.234,TranslationElicitation_eng-prolific,3.2.4,MacIntel,60,5eb450d3f625d5290ee37303,,1,0,98,74,1,97
,,,,,,,,,,,,,,,,,,,,,,,,,,,,,,,,,,,,,,,,,t,1.900999784,POT,FALSE,,,,,,,79,patata,Spanish,Sounds/spa_patata.mp3,2020-06-08_18h35.25.234,TranslationElicitation_eng-prolific,3.2.4,MacIntel,60,5eb450d3f625d5290ee37303,,1,0,98,74,1,97
,,,,,,,,,,,,,,,,,,,,,,,,,,,,,,,,,,,,,,,,,a,2.066999912,POTA,FALSE,,,,,,,79,patata,Spanish,Sounds/spa_patata.mp3,2020-06-08_18h35.25.234,TranslationElicitation_eng-prolific,3.2.4,MacIntel,60,5eb450d3f625d5290ee37303,,1,0,98,74,1,97
,,,,,,,,,,,,,,,,,,,,,,,,,,,,,,,,,,,,,,,,,t,2.150999784,POTAT,FALSE,,,,,,,79,patata,Spanish,Sounds/spa_patata.mp3,2020-06-08_18h35.25.234,TranslationElicitation_eng-prolific,3.2.4,MacIntel,60,5eb450d3f625d5290ee37303,,1,0,98,74,1,97
,,,,,,,,,,,,,,,,,,,,,,,,,,,,,,,,,,,,,,,,,o,2.367999792,POTATO,FALSE,,,,,,,79,patata,Spanish,Sounds/spa_patata.mp3,2020-06-08_18h35.25.234,TranslationElicitation_eng-prolific,3.2.4,MacIntel,60,5eb450d3f625d5290ee37303,,1,0,98,74,1,97
,,,,,,,,,,,,,,,,,,,,,,,,,,,,,,,,,,,,,,,,,return,2.699999809,POTATO,FALSE,,,,,,,79,patata,Spanish,Sounds/spa_patata.mp3,2020-06-08_18h35.25.234,TranslationElicitation_eng-prolific,3.2.4,MacIntel,60,5eb450d3f625d5290ee37303,2.699999809,1,0,98,74,1,97
,,,,,,,,,,,,,,,,,,,,,,,,,,,,,,,,,,,,,,,,,,,,,,,,,,,79,patata,Spanish,Sounds/spa_patata.mp3,2020-06-08_18h35.25.234,TranslationElicitation_eng-prolific,3.2.4,MacIntel,60,5eb450d3f625d5290ee37303,,1,0,98,74,1,97
,,,,,,,,,,,,,,,,,,,,,,,,,,,,,,,,,,,,,,,,,t,1.449999809,T,FALSE,,,,,,,95,tenedor,Spanish,Sounds/spa_tenedor.mp3,2020-06-08_18h35.25.234,TranslationElicitation_eng-prolific,3.2.4,MacIntel,60,5eb450d3f625d5290ee37303,,1,0,98,90,1,97
,,,,,,,,,,,,,,,,,,,,,,,,,,,,,,,,,,,,,,,,,e,1.633999825,TE,FALSE,,,,,,,95,tenedor,Spanish,Sounds/spa_tenedor.mp3,2020-06-08_18h35.25.234,TranslationElicitation_eng-prolific,3.2.4,MacIntel,60,5eb450d3f625d5290ee37303,,1,0,98,90,1,97
,,,,,,,,,,,,,,,,,,,,,,,,,,,,,,,,,,,,,,,,,n,1.799999952,TEN,FALSE,,,,,,,95,tenedor,Spanish,Sounds/spa_tenedor.mp3,2020-06-08_18h35.25.234,TranslationElicitation_eng-prolific,3.2.4,MacIntel,60,5eb450d3f625d5290ee37303,,1,0,98,90,1,97
,,,,,,,,,,,,,,,,,,,,,,,,,,,,,,,,,,,,,,,,,n,1.967000008,TENN,FALSE,,,,,,,95,tenedor,Spanish,Sounds/spa_tenedor.mp3,2020-06-08_18h35.25.234,TranslationElicitation_eng-prolific,3.2.4,MacIntel,60,5eb450d3f625d5290ee37303,,1,0,98,90,1,97
,,,,,,,,,,,,,,,,,,,,,,,,,,,,,,,,,,,,,,,,,backspace,3.383999825,TEN,TRUE,,,,,,,95,tenedor,Spanish,Sounds/spa_tenedor.mp3,2020-06-08_18h35.25.234,TranslationElicitation_eng-prolific,3.2.4,MacIntel,60,5eb450d3f625d5290ee37303,,1,0,98,90,1,97
,,,,,,,,,,,,,,,,,,,,,,,,,,,,,,,,,,,,,,,,,return,3.850999832,TEN,TRUE,,,,,,,95,tenedor,Spanish,Sounds/spa_tenedor.mp3,2020-06-08_18h35.25.234,TranslationElicitation_eng-prolific,3.2.4,MacIntel,60,5eb450d3f625d5290ee37303,3.850999832,1,0,98,90,1,97
,,,,,,,,,,,,,,,,,,,,,,,,,,,,,,,,,,,,,,,,,,,,,,,,,,,95,tenedor,Spanish,Sounds/spa_tenedor.mp3,2020-06-08_18h35.25.234,TranslationElicitation_eng-prolific,3.2.4,MacIntel,60,5eb450d3f625d5290ee37303,,1,0,98,90,1,97
,,,,,,,,,,,,,,,,,,,,,,,,,,,,,,,,,,,,,,,,,g,3.900000095,G,FALSE,,,,,,,44,gorrion,Spanish,Sounds/spa_gorrion.mp3,2020-06-08_18h35.25.234,TranslationElicitation_eng-prolific,3.2.4,MacIntel,60,5eb450d3f625d5290ee37303,,1,0,98,40,1,97
,,,,,,,,,,,,,,,,,,,,,,,,,,,,,,,,,,,,,,,,,o,4.167000055,GO,FALSE,,,,,,,44,gorrion,Spanish,Sounds/spa_gorrion.mp3,2020-06-08_18h35.25.234,TranslationElicitation_eng-prolific,3.2.4,MacIntel,60,5eb450d3f625d5290ee37303,,1,0,98,40,1,97
,,,,,,,,,,,,,,,,,,,,,,,,,,,,,,,,,,,,,,,,,return,4.44900012,GO,FALSE,,,,,,,44,gorrion,Spanish,Sounds/spa_gorrion.mp3,2020-06-08_18h35.25.234,TranslationElicitation_eng-prolific,3.2.4,MacIntel,60,5eb450d3f625d5290ee37303,4.44900012,1,0,98,40,1,97
,,,,,,,,,,,,,,,,,,,,,,,,,,,,,,,,,,,,,,,,,,,,,,,,,,,44,gorrion,Spanish,Sounds/spa_gorrion.mp3,2020-06-08_18h35.25.234,TranslationElicitation_eng-prolific,3.2.4,MacIntel,60,5eb450d3f625d5290ee37303,,1,0,98,40,1,97
,,,,,,,,,,,,,,,,,,,,,,,,,,,,,,,,,,,,,,,,,s,1.884000063,S,FALSE,,,,,,,92,sandwich,Spanish,Sounds/spa_sandwich.mp3,2020-06-08_18h35.25.234,TranslationElicitation_eng-prolific,3.2.4,MacIntel,60,5eb450d3f625d5290ee37303,,1,0,98,87,1,97
,,,,,,,,,,,,,,,,,,,,,,,,,,,,,,,,,,,,,,,,,a,2.084000111,SA,FALSE,,,,,,,92,sandwich,Spanish,Sounds/spa_sandwich.mp3,2020-06-08_18h35.25.234,TranslationElicitation_eng-prolific,3.2.4,MacIntel,60,5eb450d3f625d5290ee37303,,1,0,98,87,1,97
,,,,,,,,,,,,,,,,,,,,,,,,,,,,,,,,,,,,,,,,,n,2.26699996,SAN,FALSE,,,,,,,92,sandwich,Spanish,Sounds/spa_sandwich.mp3,2020-06-08_18h35.25.234,TranslationElicitation_eng-prolific,3.2.4,MacIntel,60,5eb450d3f625d5290ee37303,,1,0,98,87,1,97
,,,,,,,,,,,,,,,,,,,,,,,,,,,,,,,,,,,,,,,,,d,2.400000095,SAND,FALSE,,,,,,,92,sandwich,Spanish,Sounds/spa_sandwich.mp3,2020-06-08_18h35.25.234,TranslationElicitation_eng-prolific,3.2.4,MacIntel,60,5eb450d3f625d5290ee37303,,1,0,98,87,1,97
,,,,,,,,,,,,,,,,,,,,,,,,,,,,,,,,,,,,,,,,,w,2.617000103,SANDW,FALSE,,,,,,,92,sandwich,Spanish,Sounds/spa_sandwich.mp3,2020-06-08_18h35.25.234,TranslationElicitation_eng-prolific,3.2.4,MacIntel,60,5eb450d3f625d5290ee37303,,1,0,98,87,1,97
,,,,,,,,,,,,,,,,,,,,,,,,,,,,,,,,,,,,,,,,,i,2.78399992,SANDWI,FALSE,,,,,,,92,sandwich,Spanish,Sounds/spa_sandwich.mp3,2020-06-08_18h35.25.234,TranslationElicitation_eng-prolific,3.2.4,MacIntel,60,5eb450d3f625d5290ee37303,,1,0,98,87,1,97
,,,,,,,,,,,,,,,,,,,,,,,,,,,,,,,,,,,,,,,,,c,2.865999937,SANDWIC,FALSE,,,,,,,92,sandwich,Spanish,Sounds/spa_sandwich.mp3,2020-06-08_18h35.25.234,TranslationElicitation_eng-prolific,3.2.4,MacIntel,60,5eb450d3f625d5290ee37303,,1,0,98,87,1,97
,,,,,,,,,,,,,,,,,,,,,,,,,,,,,,,,,,,,,,,,,h,3.016000032,SANDWICH,FALSE,,,,,,,92,sandwich,Spanish,Sounds/spa_sandwich.mp3,2020-06-08_18h35.25.234,TranslationElicitation_eng-prolific,3.2.4,MacIntel,60,5eb450d3f625d5290ee37303,,1,0,98,87,1,97
,,,,,,,,,,,,,,,,,,,,,,,,,,,,,,,,,,,,,,,,,return,3.483999968,SANDWICH,FALSE,,,,,,,92,sandwich,Spanish,Sounds/spa_sandwich.mp3,2020-06-08_18h35.25.234,TranslationElicitation_eng-prolific,3.2.4,MacIntel,60,5eb450d3f625d5290ee37303,3.483999968,1,0,98,87,1,97
,,,,,,,,,,,,,,,,,,,,,,,,,,,,,,,,,,,,,,,,,,,,,,,,,,,92,sandwich,Spanish,Sounds/spa_sandwich.mp3,2020-06-08_18h35.25.234,TranslationElicitation_eng-prolific,3.2.4,MacIntel,60,5eb450d3f625d5290ee37303,,1,0,98,87,1,97
,,,,,,,,,,,,,,,,,,,,,,,,,,,,,,,,,,,,,,,,,o,1.683000088,O,FALSE,,,,,,,73,oveja,Spanish,Sounds/spa_oveja.mp3,2020-06-08_18h35.25.234,TranslationElicitation_eng-prolific,3.2.4,MacIntel,60,5eb450d3f625d5290ee37303,,1,0,98,68,1,97
,,,,,,,,,,,,,,,,,,,,,,,,,,,,,,,,,,,,,,,,,r,1.850000143,OR,FALSE,,,,,,,73,oveja,Spanish,Sounds/spa_oveja.mp3,2020-06-08_18h35.25.234,TranslationElicitation_eng-prolific,3.2.4,MacIntel,60,5eb450d3f625d5290ee37303,,1,0,98,68,1,97
,,,,,,,,,,,,,,,,,,,,,,,,,,,,,,,,,,,,,,,,,n,2.450000048,ORN,FALSE,,,,,,,73,oveja,Spanish,Sounds/spa_oveja.mp3,2020-06-08_18h35.25.234,TranslationElicitation_eng-prolific,3.2.4,MacIntel,60,5eb450d3f625d5290ee37303,,1,0,98,68,1,97
,,,,,,,,,,,,,,,,,,,,,,,,,,,,,,,,,,,,,,,,,g,2.650000095,ORNG,FALSE,,,,,,,73,oveja,Spanish,Sounds/spa_oveja.mp3,2020-06-08_18h35.25.234,TranslationElicitation_eng-prolific,3.2.4,MacIntel,60,5eb450d3f625d5290ee37303,,1,0,98,68,1,97
,,,,,,,,,,,,,,,,,,,,,,,,,,,,,,,,,,,,,,,,,e,2.732000113,ORNGE,FALSE,,,,,,,73,oveja,Spanish,Sounds/spa_oveja.mp3,2020-06-08_18h35.25.234,TranslationElicitation_eng-prolific,3.2.4,MacIntel,60,5eb450d3f625d5290ee37303,,1,0,98,68,1,97
,,,,,,,,,,,,,,,,,,,,,,,,,,,,,,,,,,,,,,,,,return,2.93200016,ORNGE,FALSE,,,,,,,73,oveja,Spanish,Sounds/spa_oveja.mp3,2020-06-08_18h35.25.234,TranslationElicitation_eng-prolific,3.2.4,MacIntel,60,5eb450d3f625d5290ee37303,2.93200016,1,0,98,68,1,97
,,,,,,,,,,,,,,,,,,,,,,,,,,,,,,,,,,,,,,,,,,,,,,,,,,,73,oveja,Spanish,Sounds/spa_oveja.mp3,2020-06-08_18h35.25.234,TranslationElicitation_eng-prolific,3.2.4,MacIntel,60,5eb450d3f625d5290ee37303,,1,0,98,68,1,97
,,,,,,,,,,,,,,,,,,,,,,,,,,,,,,,,,,,,,,,,,f,7.850000143,F,FALSE,,,,,,,21,cebra,Spanish,Sounds/spa_cebra.mp3,2020-06-08_18h35.25.234,TranslationElicitation_eng-prolific,3.2.4,MacIntel,60,5eb450d3f625d5290ee37303,,1,0,98,19,1,97
,,,,,,,,,,,,,,,,,,,,,,,,,,,,,,,,,,,,,,,,,e,7.999000072,FE,FALSE,,,,,,,21,cebra,Spanish,Sounds/spa_cebra.mp3,2020-06-08_18h35.25.234,TranslationElicitation_eng-prolific,3.2.4,MacIntel,60,5eb450d3f625d5290ee37303,,1,0,98,19,1,97
,,,,,,,,,,,,,,,,,,,,,,,,,,,,,,,,,,,,,,,,,v,8.133000135,FEV,FALSE,,,,,,,21,cebra,Spanish,Sounds/spa_cebra.mp3,2020-06-08_18h35.25.234,TranslationElicitation_eng-prolific,3.2.4,MacIntel,60,5eb450d3f625d5290ee37303,,1,0,98,19,1,97
,,,,,,,,,,,,,,,,,,,,,,,,,,,,,,,,,,,,,,,,,e,8.233999968,FEVE,FALSE,,,,,,,21,cebra,Spanish,Sounds/spa_cebra.mp3,2020-06-08_18h35.25.234,TranslationElicitation_eng-prolific,3.2.4,MacIntel,60,5eb450d3f625d5290ee37303,,1,0,98,19,1,97
,,,,,,,,,,,,,,,,,,,,,,,,,,,,,,,,,,,,,,,,,r,8.400000095,FEVER,FALSE,,,,,,,21,cebra,Spanish,Sounds/spa_cebra.mp3,2020-06-08_18h35.25.234,TranslationElicitation_eng-prolific,3.2.4,MacIntel,60,5eb450d3f625d5290ee37303,,1,0,98,19,1,97
,,,,,,,,,,,,,,,,,,,,,,,,,,,,,,,,,,,,,,,,,return,9.01699996,FEVER,FALSE,,,,,,,21,cebra,Spanish,Sounds/spa_cebra.mp3,2020-06-08_18h35.25.234,TranslationElicitation_eng-prolific,3.2.4,MacIntel,60,5eb450d3f625d5290ee37303,9.01699996,1,0,98,19,1,97
,,,,,,,,,,,,,,,,,,,,,,,,,,,,,,,,,,,,,,,,,,,,,,,,,,,21,cebra,Spanish,Sounds/spa_cebra.mp3,2020-06-08_18h35.25.234,TranslationElicitation_eng-prolific,3.2.4,MacIntel,60,5eb450d3f625d5290ee37303,,1,0,98,19,1,97
,,,,,,,,,,,,,,,,,,,,,,,,,,,,,,,,,,,,,,,,,y,4.634000063,Y,FALSE,,,,,,,28,cielo,Spanish,Sounds/spa_cielo.mp3,2020-06-08_18h35.25.234,TranslationElicitation_eng-prolific,3.2.4,MacIntel,60,5eb450d3f625d5290ee37303,,1,0,98,25,1,97
,,,,,,,,,,,,,,,,,,,,,,,,,,,,,,,,,,,,,,,,,e,4.801000118,YE,FALSE,,,,,,,28,cielo,Spanish,Sounds/spa_cielo.mp3,2020-06-08_18h35.25.234,TranslationElicitation_eng-prolific,3.2.4,MacIntel,60,5eb450d3f625d5290ee37303,,1,0,98,25,1,97
,,,,,,,,,,,,,,,,,,,,,,,,,,,,,,,,,,,,,,,,,l,4.950000048,YEL,FALSE,,,,,,,28,cielo,Spanish,Sounds/spa_cielo.mp3,2020-06-08_18h35.25.234,TranslationElicitation_eng-prolific,3.2.4,MacIntel,60,5eb450d3f625d5290ee37303,,1,0,98,25,1,97
,,,,,,,,,,,,,,,,,,,,,,,,,,,,,,,,,,,,,,,,,l,5.117000103,YELL,FALSE,,,,,,,28,cielo,Spanish,Sounds/spa_cielo.mp3,2020-06-08_18h35.25.234,TranslationElicitation_eng-prolific,3.2.4,MacIntel,60,5eb450d3f625d5290ee37303,,1,0,98,25,1,97
,,,,,,,,,,,,,,,,,,,,,,,,,,,,,,,,,,,,,,,,,o,5.251000166,YELLO,FALSE,,,,,,,28,cielo,Spanish,Sounds/spa_cielo.mp3,2020-06-08_18h35.25.234,TranslationElicitation_eng-prolific,3.2.4,MacIntel,60,5eb450d3f625d5290ee37303,,1,0,98,25,1,97
,,,,,,,,,,,,,,,,,,,,,,,,,,,,,,,,,,,,,,,,,w,5.351000071,YELLOW,FALSE,,,,,,,28,cielo,Spanish,Sounds/spa_cielo.mp3,2020-06-08_18h35.25.234,TranslationElicitation_eng-prolific,3.2.4,MacIntel,60,5eb450d3f625d5290ee37303,,1,0,98,25,1,97
,,,,,,,,,,,,,,,,,,,,,,,,,,,,,,,,,,,,,,,,,return,5.784000158,YELLOW,FALSE,,,,,,,28,cielo,Spanish,Sounds/spa_cielo.mp3,2020-06-08_18h35.25.234,TranslationElicitation_eng-prolific,3.2.4,MacIntel,60,5eb450d3f625d5290ee37303,5.784000158,1,0,98,25,1,97
,,,,,,,,,,,,,,,,,,,,,,,,,,,,,,,,,,,,,,,,,,,,,,,,,,,28,cielo,Spanish,Sounds/spa_cielo.mp3,2020-06-08_18h35.25.234,TranslationElicitation_eng-prolific,3.2.4,MacIntel,60,5eb450d3f625d5290ee37303,,1,0,98,25,1,97
,,,,,,,,,,,,,,,,,,,,,,,,,,,,,,,,,,,,,,,,,c,3.735000134,C,FALSE,,,,,,,18,camisa,Spanish,Sounds/spa_camisa.mp3,2020-06-08_18h35.25.234,TranslationElicitation_eng-prolific,3.2.4,MacIntel,60,5eb450d3f625d5290ee37303,,1,0,98,16,1,97
,,,,,,,,,,,,,,,,,,,,,,,,,,,,,,,,,,,,,,,,,a,3.985000134,CA,FALSE,,,,,,,18,camisa,Spanish,Sounds/spa_camisa.mp3,2020-06-08_18h35.25.234,TranslationElicitation_eng-prolific,3.2.4,MacIntel,60,5eb450d3f625d5290ee37303,,1,0,98,16,1,97
,,,,,,,,,,,,,,,,,,,,,,,,,,,,,,,,,,,,,,,,,m,4.217000008,CAM,FALSE,,,,,,,18,camisa,Spanish,Sounds/spa_camisa.mp3,2020-06-08_18h35.25.234,TranslationElicitation_eng-prolific,3.2.4,MacIntel,60,5eb450d3f625d5290ee37303,,1,0,98,16,1,97
,,,,,,,,,,,,,,,,,,,,,,,,,,,,,,,,,,,,,,,,,i,4.417000055,CAMI,FALSE,,,,,,,18,camisa,Spanish,Sounds/spa_camisa.mp3,2020-06-08_18h35.25.234,TranslationElicitation_eng-prolific,3.2.4,MacIntel,60,5eb450d3f625d5290ee37303,,1,0,98,16,1,97
,,,,,,,,,,,,,,,,,,,,,,,,,,,,,,,,,,,,,,,,,s,4.551000118,CAMIS,FALSE,,,,,,,18,camisa,Spanish,Sounds/spa_camisa.mp3,2020-06-08_18h35.25.234,TranslationElicitation_eng-prolific,3.2.4,MacIntel,60,5eb450d3f625d5290ee37303,,1,0,98,16,1,97
,,,,,,,,,,,,,,,,,,,,,,,,,,,,,,,,,,,,,,,,,o,4.652000189,CAMISO,FALSE,,,,,,,18,camisa,Spanish,Sounds/spa_camisa.mp3,2020-06-08_18h35.25.234,TranslationElicitation_eng-prolific,3.2.4,MacIntel,60,5eb450d3f625d5290ee37303,,1,0,98,16,1,97
,,,,,,,,,,,,,,,,,,,,,,,,,,,,,,,,,,,,,,,,,l,4.818000078,CAMISOL,FALSE,,,,,,,18,camisa,Spanish,Sounds/spa_camisa.mp3,2020-06-08_18h35.25.234,TranslationElicitation_eng-prolific,3.2.4,MacIntel,60,5eb450d3f625d5290ee37303,,1,0,98,16,1,97
,,,,,,,,,,,,,,,,,,,,,,,,,,,,,,,,,,,,,,,,,e,4.935000181,CAMISOLE,FALSE,,,,,,,18,camisa,Spanish,Sounds/spa_camisa.mp3,2020-06-08_18h35.25.234,TranslationElicitation_eng-prolific,3.2.4,MacIntel,60,5eb450d3f625d5290ee37303,,1,0,98,16,1,97
,,,,,,,,,,,,,,,,,,,,,,,,,,,,,,,,,,,,,,,,,return,5.468000174,CAMISOLE,FALSE,,,,,,,18,camisa,Spanish,Sounds/spa_camisa.mp3,2020-06-08_18h35.25.234,TranslationElicitation_eng-prolific,3.2.4,MacIntel,60,5eb450d3f625d5290ee37303,5.468000174,1,0,98,16,1,97
,,,,,,,,,,,,,,,,,,,,,,,,,,,,,,,,,,,,,,,,,,,,,,,,,,,18,camisa,Spanish,Sounds/spa_camisa.mp3,2020-06-08_18h35.25.234,TranslationElicitation_eng-prolific,3.2.4,MacIntel,60,5eb450d3f625d5290ee37303,,1,0,98,16,1,97
,,,,,,,,,,,,,,,,,,,,,,,,,,,,,,,,,,,,,,,,,b,1.464999914,B,FALSE,,,,,,,6,boca,Spanish,Sounds/spa_boca.mp3,2020-06-08_18h35.25.234,TranslationElicitation_eng-prolific,3.2.4,MacIntel,60,5eb450d3f625d5290ee37303,,1,0,98,4,1,97
,,,,,,,,,,,,,,,,,,,,,,,,,,,,,,,,,,,,,,,,,o,1.75,BO,FALSE,,,,,,,6,boca,Spanish,Sounds/spa_boca.mp3,2020-06-08_18h35.25.234,TranslationElicitation_eng-prolific,3.2.4,MacIntel,60,5eb450d3f625d5290ee37303,,1,0,98,4,1,97
,,,,,,,,,,,,,,,,,,,,,,,,,,,,,,,,,,,,,,,,,o,1.882999897,BOO,FALSE,,,,,,,6,boca,Spanish,Sounds/spa_boca.mp3,2020-06-08_18h35.25.234,TranslationElicitation_eng-prolific,3.2.4,MacIntel,60,5eb450d3f625d5290ee37303,,1,0,98,4,1,97
,,,,,,,,,,,,,,,,,,,,,,,,,,,,,,,,,,,,,,,,,k,1.999000072,BOOK,FALSE,,,,,,,6,boca,Spanish,Sounds/spa_boca.mp3,2020-06-08_18h35.25.234,TranslationElicitation_eng-prolific,3.2.4,MacIntel,60,5eb450d3f625d5290ee37303,,1,0,98,4,1,97
,,,,,,,,,,,,,,,,,,,,,,,,,,,,,,,,,,,,,,,,,return,2.615999937,BOOK,FALSE,,,,,,,6,boca,Spanish,Sounds/spa_boca.mp3,2020-06-08_18h35.25.234,TranslationElicitation_eng-prolific,3.2.4,MacIntel,60,5eb450d3f625d5290ee37303,2.615999937,1,0,98,4,1,97
,,,,,,,,,,,,,,,,,,,,,,,,,,,,,,,,,,,,,,,,,,,,,,,,,,,6,boca,Spanish,Sounds/spa_boca.mp3,2020-06-08_18h35.25.234,TranslationElicitation_eng-prolific,3.2.4,MacIntel,60,5eb450d3f625d5290ee37303,,1,0,98,4,1,97
,,,,,,,,,,,,,,,,,,,,,,,,,,,,,,,,,,,,,,,,,a,1.564999819,A,FALSE,,,,,,,36,estrella,Spanish,Sounds/spa_estrella.mp3,2020-06-08_18h35.25.234,TranslationElicitation_eng-prolific,3.2.4,MacIntel,60,5eb450d3f625d5290ee37303,,1,0,98,32,1,97
,,,,,,,,,,,,,,,,,,,,,,,,,,,,,,,,,,,,,,,,,u,1.915999889,AU,FALSE,,,,,,,36,estrella,Spanish,Sounds/spa_estrella.mp3,2020-06-08_18h35.25.234,TranslationElicitation_eng-prolific,3.2.4,MacIntel,60,5eb450d3f625d5290ee37303,,1,0,98,32,1,97
,,,,,,,,,,,,,,,,,,,,,,,,,,,,,,,,,,,,,,,,,s,2.165999889,AUS,FALSE,,,,,,,36,estrella,Spanish,Sounds/spa_estrella.mp3,2020-06-08_18h35.25.234,TranslationElicitation_eng-prolific,3.2.4,MacIntel,60,5eb450d3f625d5290ee37303,,1,0,98,32,1,97
,,,,,,,,,,,,,,,,,,,,,,,,,,,,,,,,,,,,,,,,,t,2.36500001,AUST,FALSE,,,,,,,36,estrella,Spanish,Sounds/spa_estrella.mp3,2020-06-08_18h35.25.234,TranslationElicitation_eng-prolific,3.2.4,MacIntel,60,5eb450d3f625d5290ee37303,,1,0,98,32,1,97
,,,,,,,,,,,,,,,,,,,,,,,,,,,,,,,,,,,,,,,,,r,2.565999985,AUSTR,FALSE,,,,,,,36,estrella,Spanish,Sounds/spa_estrella.mp3,2020-06-08_18h35.25.234,TranslationElicitation_eng-prolific,3.2.4,MacIntel,60,5eb450d3f625d5290ee37303,,1,0,98,32,1,97
,,,,,,,,,,,,,,,,,,,,,,,,,,,,,,,,,,,,,,,,,a,2.782999992,AUSTRA,FALSE,,,,,,,36,estrella,Spanish,Sounds/spa_estrella.mp3,2020-06-08_18h35.25.234,TranslationElicitation_eng-prolific,3.2.4,MacIntel,60,5eb450d3f625d5290ee37303,,1,0,98,32,1,97
,,,,,,,,,,,,,,,,,,,,,,,,,,,,,,,,,,,,,,,,,l,3.316999912,AUSTRAL,FALSE,,,,,,,36,estrella,Spanish,Sounds/spa_estrella.mp3,2020-06-08_18h35.25.234,TranslationElicitation_eng-prolific,3.2.4,MacIntel,60,5eb450d3f625d5290ee37303,,1,0,98,32,1,97
,,,,,,,,,,,,,,,,,,,,,,,,,,,,,,,,,,,,,,,,,i,3.515999794,AUSTRALI,FALSE,,,,,,,36,estrella,Spanish,Sounds/spa_estrella.mp3,2020-06-08_18h35.25.234,TranslationElicitation_eng-prolific,3.2.4,MacIntel,60,5eb450d3f625d5290ee37303,,1,0,98,32,1,97
,,,,,,,,,,,,,,,,,,,,,,,,,,,,,,,,,,,,,,,,,a,3.982999802,AUSTRALIA,FALSE,,,,,,,36,estrella,Spanish,Sounds/spa_estrella.mp3,2020-06-08_18h35.25.234,TranslationElicitation_eng-prolific,3.2.4,MacIntel,60,5eb450d3f625d5290ee37303,,1,0,98,32,1,97
,,,,,,,,,,,,,,,,,,,,,,,,,,,,,,,,,,,,,,,,,return,4.866999865,AUSTRALIA,FALSE,,,,,,,36,estrella,Spanish,Sounds/spa_estrella.mp3,2020-06-08_18h35.25.234,TranslationElicitation_eng-prolific,3.2.4,MacIntel,60,5eb450d3f625d5290ee37303,4.866999865,1,0,98,32,1,97
,,,,,,,,,,,,,,,,,,,,,,,,,,,,,,,,,,,,,,,,,,,,,,,,,,,36,estrella,Spanish,Sounds/spa_estrella.mp3,2020-06-08_18h35.25.234,TranslationElicitation_eng-prolific,3.2.4,MacIntel,60,5eb450d3f625d5290ee37303,,1,0,98,32,1,97
,,,,,,,,,,,,,,,,,,,,,,,,,,,,,,,,,,,,,,,,,l,1.916000128,L,FALSE,,,,,,,43,globo,Spanish,Sounds/spa_globo.mp3,2020-06-08_18h35.25.234,TranslationElicitation_eng-prolific,3.2.4,MacIntel,60,5eb450d3f625d5290ee37303,,1,0,98,39,1,97
,,,,,,,,,,,,,,,,,,,,,,,,,,,,,,,,,,,,,,,,,o,2.133000135,LO,FALSE,,,,,,,43,globo,Spanish,Sounds/spa_globo.mp3,2020-06-08_18h35.25.234,TranslationElicitation_eng-prolific,3.2.4,MacIntel,60,5eb450d3f625d5290ee37303,,1,0,98,39,1,97
,,,,,,,,,,,,,,,,,,,,,,,,,,,,,,,,,,,,,,,,,n,2.400000095,LON,FALSE,,,,,,,43,globo,Spanish,Sounds/spa_globo.mp3,2020-06-08_18h35.25.234,TranslationElicitation_eng-prolific,3.2.4,MacIntel,60,5eb450d3f625d5290ee37303,,1,0,98,39,1,97
,,,,,,,,,,,,,,,,,,,,,,,,,,,,,,,,,,,,,,,,,g,2.600000143,LONG,FALSE,,,,,,,43,globo,Spanish,Sounds/spa_globo.mp3,2020-06-08_18h35.25.234,TranslationElicitation_eng-prolific,3.2.4,MacIntel,60,5eb450d3f625d5290ee37303,,1,0,98,39,1,97
,,,,,,,,,,,,,,,,,,,,,,,,,,,,,,,,,,,,,,,,,return,4.549999952,LONG,FALSE,,,,,,,43,globo,Spanish,Sounds/spa_globo.mp3,2020-06-08_18h35.25.234,TranslationElicitation_eng-prolific,3.2.4,MacIntel,60,5eb450d3f625d5290ee37303,4.549999952,1,0,98,39,1,97
,,,,,,,,,,,,,,,,,,,,,,,,,,,,,,,,,,,,,,,,,,,,,,,,,,,43,globo,Spanish,Sounds/spa_globo.mp3,2020-06-08_18h35.25.234,TranslationElicitation_eng-prolific,3.2.4,MacIntel,60,5eb450d3f625d5290ee37303,,1,0,98,39,1,97
,,,,,,,,,,,,,,,,,,,,,,,,,,,,,,,,,,,,,,,,,c,1.868000031,C,FALSE,,,,,,,74,pajaro,Spanish,Sounds/spa_pajaro.mp3,2020-06-08_18h35.25.234,TranslationElicitation_eng-prolific,3.2.4,MacIntel,60,5eb450d3f625d5290ee37303,,1,0,98,69,1,97
,,,,,,,,,,,,,,,,,,,,,,,,,,,,,,,,,,,,,,,,,o,2.38499999,CO,FALSE,,,,,,,74,pajaro,Spanish,Sounds/spa_pajaro.mp3,2020-06-08_18h35.25.234,TranslationElicitation_eng-prolific,3.2.4,MacIntel,60,5eb450d3f625d5290ee37303,,1,0,98,69,1,97
,,,,,,,,,,,,,,,,,,,,,,,,,,,,,,,,,,,,,,,,,r,2.502000093,COR,FALSE,,,,,,,74,pajaro,Spanish,Sounds/spa_pajaro.mp3,2020-06-08_18h35.25.234,TranslationElicitation_eng-prolific,3.2.4,MacIntel,60,5eb450d3f625d5290ee37303,,1,0,98,69,1,97
,,,,,,,,,,,,,,,,,,,,,,,,,,,,,,,,,,,,,,,,,r,2.65199995,CORR,FALSE,,,,,,,74,pajaro,Spanish,Sounds/spa_pajaro.mp3,2020-06-08_18h35.25.234,TranslationElicitation_eng-prolific,3.2.4,MacIntel,60,5eb450d3f625d5290ee37303,,1,0,98,69,1,97
,,,,,,,,,,,,,,,,,,,,,,,,,,,,,,,,,,,,,,,,,i,2.78399992,CORRI,FALSE,,,,,,,74,pajaro,Spanish,Sounds/spa_pajaro.mp3,2020-06-08_18h35.25.234,TranslationElicitation_eng-prolific,3.2.4,MacIntel,60,5eb450d3f625d5290ee37303,,1,0,98,69,1,97
,,,,,,,,,,,,,,,,,,,,,,,,,,,,,,,,,,,,,,,,,d,3.417999983,CORRID,FALSE,,,,,,,74,pajaro,Spanish,Sounds/spa_pajaro.mp3,2020-06-08_18h35.25.234,TranslationElicitation_eng-prolific,3.2.4,MacIntel,60,5eb450d3f625d5290ee37303,,1,0,98,69,1,97
,,,,,,,,,,,,,,,,,,,,,,,,,,,,,,,,,,,,,,,,,o,3.51699996,CORRIDO,FALSE,,,,,,,74,pajaro,Spanish,Sounds/spa_pajaro.mp3,2020-06-08_18h35.25.234,TranslationElicitation_eng-prolific,3.2.4,MacIntel,60,5eb450d3f625d5290ee37303,,1,0,98,69,1,97
,,,,,,,,,,,,,,,,,,,,,,,,,,,,,,,,,,,,,,,,,r,3.601999998,CORRIDOR,FALSE,,,,,,,74,pajaro,Spanish,Sounds/spa_pajaro.mp3,2020-06-08_18h35.25.234,TranslationElicitation_eng-prolific,3.2.4,MacIntel,60,5eb450d3f625d5290ee37303,,1,0,98,69,1,97
,,,,,,,,,,,,,,,,,,,,,,,,,,,,,,,,,,,,,,,,,return,4.234999895,CORRIDOR,FALSE,,,,,,,74,pajaro,Spanish,Sounds/spa_pajaro.mp3,2020-06-08_18h35.25.234,TranslationElicitation_eng-prolific,3.2.4,MacIntel,60,5eb450d3f625d5290ee37303,4.234999895,1,0,98,69,1,97
,,,,,,,,,,,,,,,,,,,,,,,,,,,,,,,,,,,,,,,,,,,,,,,,,,,74,pajaro,Spanish,Sounds/spa_pajaro.mp3,2020-06-08_18h35.25.234,TranslationElicitation_eng-prolific,3.2.4,MacIntel,60,5eb450d3f625d5290ee37303,,1,0,98,69,1,97
,,,,,,,,,,,,,,,,,,,,,,,,,,,,,,,,,,,,,,,,,n,2.401000023,N,FALSE,,,,,,,69,nariz,Spanish,Sounds/spa_nariz.mp3,2020-06-08_18h35.25.234,TranslationElicitation_eng-prolific,3.2.4,MacIntel,60,5eb450d3f625d5290ee37303,,1,0,98,65,1,97
,,,,,,,,,,,,,,,,,,,,,,,,,,,,,,,,,,,,,,,,,a,2.75,NA,FALSE,,,,,,,69,nariz,Spanish,Sounds/spa_nariz.mp3,2020-06-08_18h35.25.234,TranslationElicitation_eng-prolific,3.2.4,MacIntel,60,5eb450d3f625d5290ee37303,,1,0,98,65,1,97
,,,,,,,,,,,,,,,,,,,,,,,,,,,,,,,,,,,,,,,,,r,3.282999992,NAR,FALSE,,,,,,,69,nariz,Spanish,Sounds/spa_nariz.mp3,2020-06-08_18h35.25.234,TranslationElicitation_eng-prolific,3.2.4,MacIntel,60,5eb450d3f625d5290ee37303,,1,0,98,65,1,97
,,,,,,,,,,,,,,,,,,,,,,,,,,,,,,,,,,,,,,,,,r,3.501000166,NARR,FALSE,,,,,,,69,nariz,Spanish,Sounds/spa_nariz.mp3,2020-06-08_18h35.25.234,TranslationElicitation_eng-prolific,3.2.4,MacIntel,60,5eb450d3f625d5290ee37303,,1,0,98,65,1,97
,,,,,,,,,,,,,,,,,,,,,,,,,,,,,,,,,,,,,,,,,a,3.633000135,NARRA,FALSE,,,,,,,69,nariz,Spanish,Sounds/spa_nariz.mp3,2020-06-08_18h35.25.234,TranslationElicitation_eng-prolific,3.2.4,MacIntel,60,5eb450d3f625d5290ee37303,,1,0,98,65,1,97
,,,,,,,,,,,,,,,,,,,,,,,,,,,,,,,,,,,,,,,,,t,4.467000008,NARRAT,FALSE,,,,,,,69,nariz,Spanish,Sounds/spa_nariz.mp3,2020-06-08_18h35.25.234,TranslationElicitation_eng-prolific,3.2.4,MacIntel,60,5eb450d3f625d5290ee37303,,1,0,98,65,1,97
,,,,,,,,,,,,,,,,,,,,,,,,,,,,,,,,,,,,,,,,,i,4.717000008,NARRATI,FALSE,,,,,,,69,nariz,Spanish,Sounds/spa_nariz.mp3,2020-06-08_18h35.25.234,TranslationElicitation_eng-prolific,3.2.4,MacIntel,60,5eb450d3f625d5290ee37303,,1,0,98,65,1,97
,,,,,,,,,,,,,,,,,,,,,,,,,,,,,,,,,,,,,,,,,v,4.884000063,NARRATIV,FALSE,,,,,,,69,nariz,Spanish,Sounds/spa_nariz.mp3,2020-06-08_18h35.25.234,TranslationElicitation_eng-prolific,3.2.4,MacIntel,60,5eb450d3f625d5290ee37303,,1,0,98,65,1,97
,,,,,,,,,,,,,,,,,,,,,,,,,,,,,,,,,,,,,,,,,e,5.084000111,NARRATIVE,FALSE,,,,,,,69,nariz,Spanish,Sounds/spa_nariz.mp3,2020-06-08_18h35.25.234,TranslationElicitation_eng-prolific,3.2.4,MacIntel,60,5eb450d3f625d5290ee37303,,1,0,98,65,1,97
,,,,,,,,,,,,,,,,,,,,,,,,,,,,,,,,,,,,,,,,,return,5.450000048,NARRATIVE,FALSE,,,,,,,69,nariz,Spanish,Sounds/spa_nariz.mp3,2020-06-08_18h35.25.234,TranslationElicitation_eng-prolific,3.2.4,MacIntel,60,5eb450d3f625d5290ee37303,5.450000048,1,0,98,65,1,97
,,,,,,,,,,,,,,,,,,,,,,,,,,,,,,,,,,,,,,,,,,,,,,,,,,,69,nariz,Spanish,Sounds/spa_nariz.mp3,2020-06-08_18h35.25.234,TranslationElicitation_eng-prolific,3.2.4,MacIntel,60,5eb450d3f625d5290ee37303,,1,0,98,65,1,97
,,,,,,,,,,,,,,,,,,,,,,,,,,,,,,,,,,,,,,,,,b,2.315999985,B,FALSE,,,,,,,90,pollo,Spanish,Sounds/spa_pollo.mp3,2020-06-08_18h35.25.234,TranslationElicitation_eng-prolific,3.2.4,MacIntel,60,5eb450d3f625d5290ee37303,,1,0,98,85,1,97
,,,,,,,,,,,,,,,,,,,,,,,,,,,,,,,,,,,,,,,,,o,2.431999922,BO,FALSE,,,,,,,90,pollo,Spanish,Sounds/spa_pollo.mp3,2020-06-08_18h35.25.234,TranslationElicitation_eng-prolific,3.2.4,MacIntel,60,5eb450d3f625d5290ee37303,,1,0,98,85,1,97
,,,,,,,,,,,,,,,,,,,,,,,,,,,,,,,,,,,,,,,,,y,2.799999952,BOY,FALSE,,,,,,,90,pollo,Spanish,Sounds/spa_pollo.mp3,2020-06-08_18h35.25.234,TranslationElicitation_eng-prolific,3.2.4,MacIntel,60,5eb450d3f625d5290ee37303,,1,0,98,85,1,97
,,,,,,,,,,,,,,,,,,,,,,,,,,,,,,,,,,,,,,,,,return,3.566999912,BOY,FALSE,,,,,,,90,pollo,Spanish,Sounds/spa_pollo.mp3,2020-06-08_18h35.25.234,TranslationElicitation_eng-prolific,3.2.4,MacIntel,60,5eb450d3f625d5290ee37303,3.566999912,1,0,98,85,1,97
,,,,,,,,,,,,,,,,,,,,,,,,,,,,,,,,,,,,,,,,,,,,,,,,,,,90,pollo,Spanish,Sounds/spa_pollo.mp3,2020-06-08_18h35.25.234,TranslationElicitation_eng-prolific,3.2.4,MacIntel,60,5eb450d3f625d5290ee37303,,1,0,98,85,1,97
,,,,,,,,,,,,,,,,,,,,,,,,,,,,,,,,,,,,,,,,,d,3.06799984,D,FALSE,,,,,,,33,dedo,Spanish,Sounds/spa_dedo.mp3,2020-06-08_18h35.25.234,TranslationElicitation_eng-prolific,3.2.4,MacIntel,60,5eb450d3f625d5290ee37303,,1,0,98,29,1,97
,,,,,,,,,,,,,,,,,,,,,,,,,,,,,,,,,,,,,,,,,e,3.234999895,DE,FALSE,,,,,,,33,dedo,Spanish,Sounds/spa_dedo.mp3,2020-06-08_18h35.25.234,TranslationElicitation_eng-prolific,3.2.4,MacIntel,60,5eb450d3f625d5290ee37303,,1,0,98,29,1,97
