consentKey.keys,consentKey.rt,languageL1Key.keys,languageL1Key.rt,languageL2,languageL2OralKey.keys,languageL2OralKey.rt,languageL2WrittenKey.keys,languageL2WrittenKey.rt,languageL3OralKey.keys,languageL3OralKey.rt,languageL3WrittenKey.keys,languageL3WrittenKey.rt,languageCatalanOralKey.keys,languageCatalanOralKey.rt,languageCatalanWrittenKey.keys,languageCatalanWrittenKey.rt,languageCatalanTimeKey.keys,languageCatalanTimeKey.rt,languageSpanishOralKey.keys,languageSpanishOralKey.rt,languageSpanishWrittenKey.keys,languageSpanishWrittenKey.rt,languageSpanishTimeKey.keys,languageSpanishTimeKey.rt,age,demoSexKey.keys,demoSexKey.rt,demoEducationKey.keys,demoEducationKey.rt,city,demoVisionKey.keys,demoVisionKey.rt,demoLanguageKey.keys,demoLanguageKey.rt,setupLocationKey.keys,setupLocationKey.rt,setupNoiseKey.keys,setupNoiseKey.rt,instructionsKeys.keys,instructionsKeys.rt,keyPressed,keyPressTime,inputText,error,trialsPracticeSpanish.thisRepN,trialsPracticeSpanish.thisTrialN,trialsPracticeSpanish.thisN,trialsPracticeSpanish.thisIndex,trialsPracticeSpanish.ran,trialsPracticeSpanish.order,trial_id,word,test_language,soundfile,date,expName,psychopyVersion,OS,frameRate,participant,trialOffset,trialsSpanish.thisRepN,trialsSpanish.thisTrialN,trialsSpanish.thisN,trialsSpanish.thisIndex,trialsSpanish.ran,trialsSpanish.order
space,18.59200001,e,5.796000004,,,,,,,,,,1,7.963999987,1,6.353000164,1,5.905999899,1,5.772000074,1,3.388999939,1,1.798000097,23,f,1.884000063,4,6.867000103,ROTHERHAM,y,2.750999928,n,4.272000074,1,3.957999945,1,9.430999994,space,29.55900002,j,2.97300005,J,FALSE,1,0,5,2,1,4,26,chaqueta,Spanish,Sounds/spa_chaqueta.mp3,2020-06-08_18h11.10.493,TranslationElicitation_eng-prolific,3.2.4,Linux aarch64,60,5eb54aacca57073d0b74f0ac,,,,,,,
,,,,,,,,,,,,,,,,,,,,,,,,,,,,,,,,,,,,,,,,,a,3.036000013,JA,FALSE,1,0,5,2,1,4,26,chaqueta,Spanish,Sounds/spa_chaqueta.mp3,2020-06-08_18h11.10.493,TranslationElicitation_eng-prolific,3.2.4,Linux aarch64,60,5eb54aacca57073d0b74f0ac,,,,,,,
,,,,,,,,,,,,,,,,,,,,,,,,,,,,,,,,,,,,,,,,,c,3.252000093,JAC,FALSE,1,0,5,2,1,4,26,chaqueta,Spanish,Sounds/spa_chaqueta.mp3,2020-06-08_18h11.10.493,TranslationElicitation_eng-prolific,3.2.4,Linux aarch64,60,5eb54aacca57073d0b74f0ac,,,,,,,
,,,,,,,,,,,,,,,,,,,,,,,,,,,,,,,,,,,,,,,,,k,3.332999945,JACK,FALSE,1,0,5,2,1,4,26,chaqueta,Spanish,Sounds/spa_chaqueta.mp3,2020-06-08_18h11.10.493,TranslationElicitation_eng-prolific,3.2.4,Linux aarch64,60,5eb54aacca57073d0b74f0ac,,,,,,,
,,,,,,,,,,,,,,,,,,,,,,,,,,,,,,,,,,,,,,,,,e,3.437000036,JACKE,FALSE,1,0,5,2,1,4,26,chaqueta,Spanish,Sounds/spa_chaqueta.mp3,2020-06-08_18h11.10.493,TranslationElicitation_eng-prolific,3.2.4,Linux aarch64,60,5eb54aacca57073d0b74f0ac,,,,,,,
,,,,,,,,,,,,,,,,,,,,,,,,,,,,,,,,,,,,,,,,,t,3.596999884,JACKET,FALSE,1,0,5,2,1,4,26,chaqueta,Spanish,Sounds/spa_chaqueta.mp3,2020-06-08_18h11.10.493,TranslationElicitation_eng-prolific,3.2.4,Linux aarch64,60,5eb54aacca57073d0b74f0ac,,,,,,,
,,,,,,,,,,,,,,,,,,,,,,,,,,,,,,,,,,,,,,,,,return,5.292000055,JACKET,FALSE,1,0,5,2,1,4,26,chaqueta,Spanish,Sounds/spa_chaqueta.mp3,2020-06-08_18h11.10.493,TranslationElicitation_eng-prolific,3.2.4,Linux aarch64,60,5eb54aacca57073d0b74f0ac,5.292000055,,,,,,
,,,,,,,,,,,,,,,,,,,,,,,,,,,,,,,,,,,,,,,,,,,,,1,0,5,2,1,4,26,chaqueta,Spanish,Sounds/spa_chaqueta.mp3,2020-06-08_18h11.10.493,TranslationElicitation_eng-prolific,3.2.4,Linux aarch64,60,5eb54aacca57073d0b74f0ac,,,,,,,
,,,,,,,,,,,,,,,,,,,,,,,,,,,,,,,,,,,,,,,,,p,2.667000055,P,FALSE,1,0,5,0,1,4,1,arbol,Spanish,Sounds/spa_arbol.mp3,2020-06-08_18h11.10.493,TranslationElicitation_eng-prolific,3.2.4,Linux aarch64,60,5eb54aacca57073d0b74f0ac,,,,,,,
,,,,,,,,,,,,,,,,,,,,,,,,,,,,,,,,,,,,,,,,,a,2.776000023,PA,FALSE,1,0,5,0,1,4,1,arbol,Spanish,Sounds/spa_arbol.mp3,2020-06-08_18h11.10.493,TranslationElicitation_eng-prolific,3.2.4,Linux aarch64,60,5eb54aacca57073d0b74f0ac,,,,,,,
,,,,,,,,,,,,,,,,,,,,,,,,,,,,,,,,,,,,,,,,,r,2.877000093,PAR,FALSE,1,0,5,0,1,4,1,arbol,Spanish,Sounds/spa_arbol.mp3,2020-06-08_18h11.10.493,TranslationElicitation_eng-prolific,3.2.4,Linux aarch64,60,5eb54aacca57073d0b74f0ac,,,,,,,
,,,,,,,,,,,,,,,,,,,,,,,,,,,,,,,,,,,,,,,,,v,3.111000061,PARV,FALSE,1,0,5,0,1,4,1,arbol,Spanish,Sounds/spa_arbol.mp3,2020-06-08_18h11.10.493,TranslationElicitation_eng-prolific,3.2.4,Linux aarch64,60,5eb54aacca57073d0b74f0ac,,,,,,,
,,,,,,,,,,,,,,,,,,,,,,,,,,,,,,,,,,,,,,,,,o,3.212000132,PARVO,FALSE,1,0,5,0,1,4,1,arbol,Spanish,Sounds/spa_arbol.mp3,2020-06-08_18h11.10.493,TranslationElicitation_eng-prolific,3.2.4,Linux aarch64,60,5eb54aacca57073d0b74f0ac,,,,,,,
,,,,,,,,,,,,,,,,,,,,,,,,,,,,,,,,,,,,,,,,,return,3.924999952,PARVO,FALSE,1,0,5,0,1,4,1,arbol,Spanish,Sounds/spa_arbol.mp3,2020-06-08_18h11.10.493,TranslationElicitation_eng-prolific,3.2.4,Linux aarch64,60,5eb54aacca57073d0b74f0ac,3.924999952,,,,,,
,,,,,,,,,,,,,,,,,,,,,,,,,,,,,,,,,,,,,,,,,,,,,1,0,5,0,1,4,1,arbol,Spanish,Sounds/spa_arbol.mp3,2020-06-08_18h11.10.493,TranslationElicitation_eng-prolific,3.2.4,Linux aarch64,60,5eb54aacca57073d0b74f0ac,,,,,,,
,,,,,,,,,,,,,,,,,,,,,,,,,,,,,,,,,,,,,,,,,c,2.631999969,C,FALSE,1,0,5,1,1,4,30,corona,Spanish,Sounds/spa_corona.mp3,2020-06-08_18h11.10.493,TranslationElicitation_eng-prolific,3.2.4,Linux aarch64,60,5eb54aacca57073d0b74f0ac,,,,,,,
,,,,,,,,,,,,,,,,,,,,,,,,,,,,,,,,,,,,,,,,,o,2.761000156,CO,FALSE,1,0,5,1,1,4,30,corona,Spanish,Sounds/spa_corona.mp3,2020-06-08_18h11.10.493,TranslationElicitation_eng-prolific,3.2.4,Linux aarch64,60,5eb54aacca57073d0b74f0ac,,,,,,,
,,,,,,,,,,,,,,,,,,,,,,,,,,,,,,,,,,,,,,,,,r,3.136000156,COR,FALSE,1,0,5,1,1,4,30,corona,Spanish,Sounds/spa_corona.mp3,2020-06-08_18h11.10.493,TranslationElicitation_eng-prolific,3.2.4,Linux aarch64,60,5eb54aacca57073d0b74f0ac,,,,,,,
,,,,,,,,,,,,,,,,,,,,,,,,,,,,,,,,,,,,,,,,,o,3.577000141,CORO,FALSE,1,0,5,1,1,4,30,corona,Spanish,Sounds/spa_corona.mp3,2020-06-08_18h11.10.493,TranslationElicitation_eng-prolific,3.2.4,Linux aarch64,60,5eb54aacca57073d0b74f0ac,,,,,,,
,,,,,,,,,,,,,,,,,,,,,,,,,,,,,,,,,,,,,,,,,n,3.838999987,CORON,FALSE,1,0,5,1,1,4,30,corona,Spanish,Sounds/spa_corona.mp3,2020-06-08_18h11.10.493,TranslationElicitation_eng-prolific,3.2.4,Linux aarch64,60,5eb54aacca57073d0b74f0ac,,,,,,,
,,,,,,,,,,,,,,,,,,,,,,,,,,,,,,,,,,,,,,,,,a,3.934999943,CORONA,FALSE,1,0,5,1,1,4,30,corona,Spanish,Sounds/spa_corona.mp3,2020-06-08_18h11.10.493,TranslationElicitation_eng-prolific,3.2.4,Linux aarch64,60,5eb54aacca57073d0b74f0ac,,,,,,,
,,,,,,,,,,,,,,,,,,,,,,,,,,,,,,,,,,,,,,,,,return,4.838999987,CORONA,FALSE,1,0,5,1,1,4,30,corona,Spanish,Sounds/spa_corona.mp3,2020-06-08_18h11.10.493,TranslationElicitation_eng-prolific,3.2.4,Linux aarch64,60,5eb54aacca57073d0b74f0ac,4.838999987,,,,,,
,,,,,,,,,,,,,,,,,,,,,,,,,,,,,,,,,,,,,,,,,,,,,1,0,5,1,1,4,30,corona,Spanish,Sounds/spa_corona.mp3,2020-06-08_18h11.10.493,TranslationElicitation_eng-prolific,3.2.4,Linux aarch64,60,5eb54aacca57073d0b74f0ac,,,,,,,
,,,,,,,,,,,,,,,,,,,,,,,,,,,,,,,,,,,,,,,,,t,4.844000101,T,FALSE,1,0,5,4,1,4,96,tigre,Spanish,Sounds/spa_tigre.mp3,2020-06-08_18h11.10.493,TranslationElicitation_eng-prolific,3.2.4,Linux aarch64,60,5eb54aacca57073d0b74f0ac,,,,,,,
,,,,,,,,,,,,,,,,,,,,,,,,,,,,,,,,,,,,,,,,,a,5.065999985,TA,FALSE,1,0,5,4,1,4,96,tigre,Spanish,Sounds/spa_tigre.mp3,2020-06-08_18h11.10.493,TranslationElicitation_eng-prolific,3.2.4,Linux aarch64,60,5eb54aacca57073d0b74f0ac,,,,,,,
,,,,,,,,,,,,,,,,,,,,,,,,,,,,,,,,,,,,,,,,,r,5.265000105,TAR,FALSE,1,0,5,4,1,4,96,tigre,Spanish,Sounds/spa_tigre.mp3,2020-06-08_18h11.10.493,TranslationElicitation_eng-prolific,3.2.4,Linux aarch64,60,5eb54aacca57073d0b74f0ac,,,,,,,
,,,,,,,,,,,,,,,,,,,,,,,,,,,,,,,,,,,,,,,,,g,5.469000101,TARG,FALSE,1,0,5,4,1,4,96,tigre,Spanish,Sounds/spa_tigre.mp3,2020-06-08_18h11.10.493,TranslationElicitation_eng-prolific,3.2.4,Linux aarch64,60,5eb54aacca57073d0b74f0ac,,,,,,,
,,,,,,,,,,,,,,,,,,,,,,,,,,,,,,,,,,,,,,,,,e,5.669000149,TARGE,FALSE,1,0,5,4,1,4,96,tigre,Spanish,Sounds/spa_tigre.mp3,2020-06-08_18h11.10.493,TranslationElicitation_eng-prolific,3.2.4,Linux aarch64,60,5eb54aacca57073d0b74f0ac,,,,,,,
,,,,,,,,,,,,,,,,,,,,,,,,,,,,,,,,,,,,,,,,,t,5.78000021,TARGET,FALSE,1,0,5,4,1,4,96,tigre,Spanish,Sounds/spa_tigre.mp3,2020-06-08_18h11.10.493,TranslationElicitation_eng-prolific,3.2.4,Linux aarch64,60,5eb54aacca57073d0b74f0ac,,,,,,,
,,,,,,,,,,,,,,,,,,,,,,,,,,,,,,,,,,,,,,,,,return,6.299000025,TARGET,FALSE,1,0,5,4,1,4,96,tigre,Spanish,Sounds/spa_tigre.mp3,2020-06-08_18h11.10.493,TranslationElicitation_eng-prolific,3.2.4,Linux aarch64,60,5eb54aacca57073d0b74f0ac,6.299000025,,,,,,
,,,,,,,,,,,,,,,,,,,,,,,,,,,,,,,,,,,,,,,,,,,,,1,0,5,4,1,4,96,tigre,Spanish,Sounds/spa_tigre.mp3,2020-06-08_18h11.10.493,TranslationElicitation_eng-prolific,3.2.4,Linux aarch64,60,5eb54aacca57073d0b74f0ac,,,,,,,
,,,,,,,,,,,,,,,,,,,,,,,,,,,,,,,,,,,,,,,,,h,1.726000071,H,FALSE,1,0,5,3,1,4,70,ola,Spanish,Sounds/spa_ola.mp3,2020-06-08_18h11.10.493,TranslationElicitation_eng-prolific,3.2.4,Linux aarch64,60,5eb54aacca57073d0b74f0ac,,,,,,,
,,,,,,,,,,,,,,,,,,,,,,,,,,,,,,,,,,,,,,,,,e,2.110000134,HE,FALSE,1,0,5,3,1,4,70,ola,Spanish,Sounds/spa_ola.mp3,2020-06-08_18h11.10.493,TranslationElicitation_eng-prolific,3.2.4,Linux aarch64,60,5eb54aacca57073d0b74f0ac,,,,,,,
,,,,,,,,,,,,,,,,,,,,,,,,,,,,,,,,,,,,,,,,,l,2.327000141,HEL,FALSE,1,0,5,3,1,4,70,ola,Spanish,Sounds/spa_ola.mp3,2020-06-08_18h11.10.493,TranslationElicitation_eng-prolific,3.2.4,Linux aarch64,60,5eb54aacca57073d0b74f0ac,,,,,,,
,,,,,,,,,,,,,,,,,,,,,,,,,,,,,,,,,,,,,,,,,l,2.460000038,HELL,FALSE,1,0,5,3,1,4,70,ola,Spanish,Sounds/spa_ola.mp3,2020-06-08_18h11.10.493,TranslationElicitation_eng-prolific,3.2.4,Linux aarch64,60,5eb54aacca57073d0b74f0ac,,,,,,,
,,,,,,,,,,,,,,,,,,,,,,,,,,,,,,,,,,,,,,,,,o,2.657999992,HELLO,FALSE,1,0,5,3,1,4,70,ola,Spanish,Sounds/spa_ola.mp3,2020-06-08_18h11.10.493,TranslationElicitation_eng-prolific,3.2.4,Linux aarch64,60,5eb54aacca57073d0b74f0ac,,,,,,,
,,,,,,,,,,,,,,,,,,,,,,,,,,,,,,,,,,,,,,,,,return,3.34100008,HELLO,FALSE,1,0,5,3,1,4,70,ola,Spanish,Sounds/spa_ola.mp3,2020-06-08_18h11.10.493,TranslationElicitation_eng-prolific,3.2.4,Linux aarch64,60,5eb54aacca57073d0b74f0ac,3.34100008,,,,,,
,,,,,,,,,,,,,,,,,,,,,,,,,,,,,,,,,,,,,,,,,,,,,1,0,5,3,1,4,70,ola,Spanish,Sounds/spa_ola.mp3,2020-06-08_18h11.10.493,TranslationElicitation_eng-prolific,3.2.4,Linux aarch64,60,5eb54aacca57073d0b74f0ac,,,,,,,
,,,,,,,,,,,,,,,,,,,,,,,,,,,,,,,,,,,,,,,,,p,1.665999889,P,FALSE,,,,,,,80,pato,Spanish,Sounds/spa_pato.mp3,2020-06-08_18h11.10.493,TranslationElicitation_eng-prolific,3.2.4,Linux aarch64,60,5eb54aacca57073d0b74f0ac,,1,0,98,75,1,97
,,,,,,,,,,,,,,,,,,,,,,,,,,,,,,,,,,,,,,,,,a,1.804999828,PA,FALSE,,,,,,,80,pato,Spanish,Sounds/spa_pato.mp3,2020-06-08_18h11.10.493,TranslationElicitation_eng-prolific,3.2.4,Linux aarch64,60,5eb54aacca57073d0b74f0ac,,1,0,98,75,1,97
,,,,,,,,,,,,,,,,,,,,,,,,,,,,,,,,,,,,,,,,,r,2.027999878,PAR,FALSE,,,,,,,80,pato,Spanish,Sounds/spa_pato.mp3,2020-06-08_18h11.10.493,TranslationElicitation_eng-prolific,3.2.4,Linux aarch64,60,5eb54aacca57073d0b74f0ac,,1,0,98,75,1,97
,,,,,,,,,,,,,,,,,,,,,,,,,,,,,,,,,,,,,,,,,t,2.273999929,PART,FALSE,,,,,,,80,pato,Spanish,Sounds/spa_pato.mp3,2020-06-08_18h11.10.493,TranslationElicitation_eng-prolific,3.2.4,Linux aarch64,60,5eb54aacca57073d0b74f0ac,,1,0,98,75,1,97
,,,,,,,,,,,,,,,,,,,,,,,,,,,,,,,,,,,,,,,,,y,3.614999771,PARTY,FALSE,,,,,,,80,pato,Spanish,Sounds/spa_pato.mp3,2020-06-08_18h11.10.493,TranslationElicitation_eng-prolific,3.2.4,Linux aarch64,60,5eb54aacca57073d0b74f0ac,,1,0,98,75,1,97
,,,,,,,,,,,,,,,,,,,,,,,,,,,,,,,,,,,,,,,,,return,4.197999954,PARTY,FALSE,,,,,,,80,pato,Spanish,Sounds/spa_pato.mp3,2020-06-08_18h11.10.493,TranslationElicitation_eng-prolific,3.2.4,Linux aarch64,60,5eb54aacca57073d0b74f0ac,4.197999954,1,0,98,75,1,97
,,,,,,,,,,,,,,,,,,,,,,,,,,,,,,,,,,,,,,,,,,,,,,,,,,,80,pato,Spanish,Sounds/spa_pato.mp3,2020-06-08_18h11.10.493,TranslationElicitation_eng-prolific,3.2.4,Linux aarch64,60,5eb54aacca57073d0b74f0ac,,1,0,98,75,1,97
,,,,,,,,,,,,,,,,,,,,,,,,,,,,,,,,,,,,,,,,,s,1.962999821,S,FALSE,,,,,,,92,sandwich,Spanish,Sounds/spa_sandwich.mp3,2020-06-08_18h11.10.493,TranslationElicitation_eng-prolific,3.2.4,Linux aarch64,60,5eb54aacca57073d0b74f0ac,,1,0,98,87,1,97
,,,,,,,,,,,,,,,,,,,,,,,,,,,,,,,,,,,,,,,,,a,2.066999912,SA,FALSE,,,,,,,92,sandwich,Spanish,Sounds/spa_sandwich.mp3,2020-06-08_18h11.10.493,TranslationElicitation_eng-prolific,3.2.4,Linux aarch64,60,5eb54aacca57073d0b74f0ac,,1,0,98,87,1,97
,,,,,,,,,,,,,,,,,,,,,,,,,,,,,,,,,,,,,,,,,n,2.311999798,SAN,FALSE,,,,,,,92,sandwich,Spanish,Sounds/spa_sandwich.mp3,2020-06-08_18h11.10.493,TranslationElicitation_eng-prolific,3.2.4,Linux aarch64,60,5eb54aacca57073d0b74f0ac,,1,0,98,87,1,97
,,,,,,,,,,,,,,,,,,,,,,,,,,,,,,,,,,,,,,,,,d,2.902999878,SAND,FALSE,,,,,,,92,sandwich,Spanish,Sounds/spa_sandwich.mp3,2020-06-08_18h11.10.493,TranslationElicitation_eng-prolific,3.2.4,Linux aarch64,60,5eb54aacca57073d0b74f0ac,,1,0,98,87,1,97
,,,,,,,,,,,,,,,,,,,,,,,,,,,,,,,,,,,,,,,,,w,3.085999966,SANDW,FALSE,,,,,,,92,sandwich,Spanish,Sounds/spa_sandwich.mp3,2020-06-08_18h11.10.493,TranslationElicitation_eng-prolific,3.2.4,Linux aarch64,60,5eb54aacca57073d0b74f0ac,,1,0,98,87,1,97
,,,,,,,,,,,,,,,,,,,,,,,,,,,,,,,,,,,,,,,,,i,3.226999998,SANDWI,FALSE,,,,,,,92,sandwich,Spanish,Sounds/spa_sandwich.mp3,2020-06-08_18h11.10.493,TranslationElicitation_eng-prolific,3.2.4,Linux aarch64,60,5eb54aacca57073d0b74f0ac,,1,0,98,87,1,97
,,,,,,,,,,,,,,,,,,,,,,,,,,,,,,,,,,,,,,,,,c,3.383999825,SANDWIC,FALSE,,,,,,,92,sandwich,Spanish,Sounds/spa_sandwich.mp3,2020-06-08_18h11.10.493,TranslationElicitation_eng-prolific,3.2.4,Linux aarch64,60,5eb54aacca57073d0b74f0ac,,1,0,98,87,1,97
,,,,,,,,,,,,,,,,,,,,,,,,,,,,,,,,,,,,,,,,,h,3.555999994,SANDWICH,FALSE,,,,,,,92,sandwich,Spanish,Sounds/spa_sandwich.mp3,2020-06-08_18h11.10.493,TranslationElicitation_eng-prolific,3.2.4,Linux aarch64,60,5eb54aacca57073d0b74f0ac,,1,0,98,87,1,97
,,,,,,,,,,,,,,,,,,,,,,,,,,,,,,,,,,,,,,,,,return,4.291999817,SANDWICH,FALSE,,,,,,,92,sandwich,Spanish,Sounds/spa_sandwich.mp3,2020-06-08_18h11.10.493,TranslationElicitation_eng-prolific,3.2.4,Linux aarch64,60,5eb54aacca57073d0b74f0ac,4.291999817,1,0,98,87,1,97
,,,,,,,,,,,,,,,,,,,,,,,,,,,,,,,,,,,,,,,,,,,,,,,,,,,92,sandwich,Spanish,Sounds/spa_sandwich.mp3,2020-06-08_18h11.10.493,TranslationElicitation_eng-prolific,3.2.4,Linux aarch64,60,5eb54aacca57073d0b74f0ac,,1,0,98,87,1,97
,,,,,,,,,,,,,,,,,,,,,,,,,,,,,,,,,,,,,,,,,e,2.444999933,E,FALSE,,,,,,,34,ensalada,Spanish,Sounds/spa_ensalada.mp3,2020-06-08_18h11.10.493,TranslationElicitation_eng-prolific,3.2.4,Linux aarch64,60,5eb54aacca57073d0b74f0ac,,1,0,98,30,1,97
,,,,,,,,,,,,,,,,,,,,,,,,,,,,,,,,,,,,,,,,,n,2.607000113,EN,FALSE,,,,,,,34,ensalada,Spanish,Sounds/spa_ensalada.mp3,2020-06-08_18h11.10.493,TranslationElicitation_eng-prolific,3.2.4,Linux aarch64,60,5eb54aacca57073d0b74f0ac,,1,0,98,30,1,97
,,,,,,,,,,,,,,,,,,,,,,,,,,,,,,,,,,,,,,,,,c,2.852999926,ENC,FALSE,,,,,,,34,ensalada,Spanish,Sounds/spa_ensalada.mp3,2020-06-08_18h11.10.493,TranslationElicitation_eng-prolific,3.2.4,Linux aarch64,60,5eb54aacca57073d0b74f0ac,,1,0,98,30,1,97
,,,,,,,,,,,,,,,,,,,,,,,,,,,,,,,,,,,,,,,,,h,3.092000008,ENCH,FALSE,,,,,,,34,ensalada,Spanish,Sounds/spa_ensalada.mp3,2020-06-08_18h11.10.493,TranslationElicitation_eng-prolific,3.2.4,Linux aarch64,60,5eb54aacca57073d0b74f0ac,,1,0,98,30,1,97
,,,,,,,,,,,,,,,,,,,,,,,,,,,,,,,,,,,,,,,,,a,3.584000111,ENCHA,FALSE,,,,,,,34,ensalada,Spanish,Sounds/spa_ensalada.mp3,2020-06-08_18h11.10.493,TranslationElicitation_eng-prolific,3.2.4,Linux aarch64,60,5eb54aacca57073d0b74f0ac,,1,0,98,30,1,97
,,,,,,,,,,,,,,,,,,,,,,,,,,,,,,,,,,,,,,,,,l,4.234999895,ENCHAL,FALSE,,,,,,,34,ensalada,Spanish,Sounds/spa_ensalada.mp3,2020-06-08_18h11.10.493,TranslationElicitation_eng-prolific,3.2.4,Linux aarch64,60,5eb54aacca57073d0b74f0ac,,1,0,98,30,1,97
,,,,,,,,,,,,,,,,,,,,,,,,,,,,,,,,,,,,,,,,,a,4.361000061,ENCHALA,FALSE,,,,,,,34,ensalada,Spanish,Sounds/spa_ensalada.mp3,2020-06-08_18h11.10.493,TranslationElicitation_eng-prolific,3.2.4,Linux aarch64,60,5eb54aacca57073d0b74f0ac,,1,0,98,30,1,97
,,,,,,,,,,,,,,,,,,,,,,,,,,,,,,,,,,,,,,,,,d,4.572999954,ENCHALAD,FALSE,,,,,,,34,ensalada,Spanish,Sounds/spa_ensalada.mp3,2020-06-08_18h11.10.493,TranslationElicitation_eng-prolific,3.2.4,Linux aarch64,60,5eb54aacca57073d0b74f0ac,,1,0,98,30,1,97
,,,,,,,,,,,,,,,,,,,,,,,,,,,,,,,,,,,,,,,,,a,4.644000053,ENCHALADA,FALSE,,,,,,,34,ensalada,Spanish,Sounds/spa_ensalada.mp3,2020-06-08_18h11.10.493,TranslationElicitation_eng-prolific,3.2.4,Linux aarch64,60,5eb54aacca57073d0b74f0ac,,1,0,98,30,1,97
,,,,,,,,,,,,,,,,,,,,,,,,,,,,,,,,,,,,,,,,,return,5.571000099,ENCHALADA,FALSE,,,,,,,34,ensalada,Spanish,Sounds/spa_ensalada.mp3,2020-06-08_18h11.10.493,TranslationElicitation_eng-prolific,3.2.4,Linux aarch64,60,5eb54aacca57073d0b74f0ac,5.571000099,1,0,98,30,1,97
,,,,,,,,,,,,,,,,,,,,,,,,,,,,,,,,,,,,,,,,,,,,,,,,,,,34,ensalada,Spanish,Sounds/spa_ensalada.mp3,2020-06-08_18h11.10.493,TranslationElicitation_eng-prolific,3.2.4,Linux aarch64,60,5eb54aacca57073d0b74f0ac,,1,0,98,30,1,97
,,,,,,,,,,,,,,,,,,,,,,,,,,,,,,,,,,,,,,,,,p,1.542999983,P,FALSE,,,,,,,88,plato,Spanish,Sounds/spa_plato.mp3,2020-06-08_18h11.10.493,TranslationElicitation_eng-prolific,3.2.4,Linux aarch64,60,5eb54aacca57073d0b74f0ac,,1,0,98,83,1,97
,,,,,,,,,,,,,,,,,,,,,,,,,,,,,,,,,,,,,,,,,l,1.715000153,PL,FALSE,,,,,,,88,plato,Spanish,Sounds/spa_plato.mp3,2020-06-08_18h11.10.493,TranslationElicitation_eng-prolific,3.2.4,Linux aarch64,60,5eb54aacca57073d0b74f0ac,,1,0,98,83,1,97
,,,,,,,,,,,,,,,,,,,,,,,,,,,,,,,,,,,,,,,,,a,1.838999987,PLA,FALSE,,,,,,,88,plato,Spanish,Sounds/spa_plato.mp3,2020-06-08_18h11.10.493,TranslationElicitation_eng-prolific,3.2.4,Linux aarch64,60,5eb54aacca57073d0b74f0ac,,1,0,98,83,1,97
,,,,,,,,,,,,,,,,,,,,,,,,,,,,,,,,,,,,,,,,,t,2.231000185,PLAT,FALSE,,,,,,,88,plato,Spanish,Sounds/spa_plato.mp3,2020-06-08_18h11.10.493,TranslationElicitation_eng-prolific,3.2.4,Linux aarch64,60,5eb54aacca57073d0b74f0ac,,1,0,98,83,1,97
,,,,,,,,,,,,,,,,,,,,,,,,,,,,,,,,,,,,,,,,,e,2.328000069,PLATE,FALSE,,,,,,,88,plato,Spanish,Sounds/spa_plato.mp3,2020-06-08_18h11.10.493,TranslationElicitation_eng-prolific,3.2.4,Linux aarch64,60,5eb54aacca57073d0b74f0ac,,1,0,98,83,1,97
,,,,,,,,,,,,,,,,,,,,,,,,,,,,,,,,,,,,,,,,,return,3.450999975,PLATE,FALSE,,,,,,,88,plato,Spanish,Sounds/spa_plato.mp3,2020-06-08_18h11.10.493,TranslationElicitation_eng-prolific,3.2.4,Linux aarch64,60,5eb54aacca57073d0b74f0ac,3.450999975,1,0,98,83,1,97
,,,,,,,,,,,,,,,,,,,,,,,,,,,,,,,,,,,,,,,,,,,,,,,,,,,88,plato,Spanish,Sounds/spa_plato.mp3,2020-06-08_18h11.10.493,TranslationElicitation_eng-prolific,3.2.4,Linux aarch64,60,5eb54aacca57073d0b74f0ac,,1,0,98,83,1,97
,,,,,,,,,,,,,,,,,,,,,,,,,,,,,,,,,,,,,,,,,c,1.577000141,C,FALSE,,,,,,,29,coche,Spanish,Sounds/spa_coche.mp3,2020-06-08_18h11.10.493,TranslationElicitation_eng-prolific,3.2.4,Linux aarch64,60,5eb54aacca57073d0b74f0ac,,1,0,98,26,1,97
,,,,,,,,,,,,,,,,,,,,,,,,,,,,,,,,,,,,,,,,,o,1.709000111,CO,FALSE,,,,,,,29,coche,Spanish,Sounds/spa_coche.mp3,2020-06-08_18h11.10.493,TranslationElicitation_eng-prolific,3.2.4,Linux aarch64,60,5eb54aacca57073d0b74f0ac,,1,0,98,26,1,97
,,,,,,,,,,,,,,,,,,,,,,,,,,,,,,,,,,,,,,,,,a,1.804000139,COA,FALSE,,,,,,,29,coche,Spanish,Sounds/spa_coche.mp3,2020-06-08_18h11.10.493,TranslationElicitation_eng-prolific,3.2.4,Linux aarch64,60,5eb54aacca57073d0b74f0ac,,1,0,98,26,1,97
,,,,,,,,,,,,,,,,,,,,,,,,,,,,,,,,,,,,,,,,,c,1.953999996,COAC,FALSE,,,,,,,29,coche,Spanish,Sounds/spa_coche.mp3,2020-06-08_18h11.10.493,TranslationElicitation_eng-prolific,3.2.4,Linux aarch64,60,5eb54aacca57073d0b74f0ac,,1,0,98,26,1,97
,,,,,,,,,,,,,,,,,,,,,,,,,,,,,,,,,,,,,,,,,h,2.078999996,COACH,FALSE,,,,,,,29,coche,Spanish,Sounds/spa_coche.mp3,2020-06-08_18h11.10.493,TranslationElicitation_eng-prolific,3.2.4,Linux aarch64,60,5eb54aacca57073d0b74f0ac,,1,0,98,26,1,97
,,,,,,,,,,,,,,,,,,,,,,,,,,,,,,,,,,,,,,,,,return,2.828999996,COACH,FALSE,,,,,,,29,coche,Spanish,Sounds/spa_coche.mp3,2020-06-08_18h11.10.493,TranslationElicitation_eng-prolific,3.2.4,Linux aarch64,60,5eb54aacca57073d0b74f0ac,2.828999996,1,0,98,26,1,97
,,,,,,,,,,,,,,,,,,,,,,,,,,,,,,,,,,,,,,,,,,,,,,,,,,,29,coche,Spanish,Sounds/spa_coche.mp3,2020-06-08_18h11.10.493,TranslationElicitation_eng-prolific,3.2.4,Linux aarch64,60,5eb54aacca57073d0b74f0ac,,1,0,98,26,1,97
,,,,,,,,,,,,,,,,,,,,,,,,,,,,,,,,,,,,,,,,,m,5.476999998,M,FALSE,,,,,,,60,manzana,Spanish,Sounds/spa_manzana.mp3,2020-06-08_18h11.10.493,TranslationElicitation_eng-prolific,3.2.4,Linux aarch64,60,5eb54aacca57073d0b74f0ac,,1,0,98,56,1,97
,,,,,,,,,,,,,,,,,,,,,,,,,,,,,,,,,,,,,,,,,a,5.917999983,MA,FALSE,,,,,,,60,manzana,Spanish,Sounds/spa_manzana.mp3,2020-06-08_18h11.10.493,TranslationElicitation_eng-prolific,3.2.4,Linux aarch64,60,5eb54aacca57073d0b74f0ac,,1,0,98,56,1,97
,,,,,,,,,,,,,,,,,,,,,,,,,,,,,,,,,,,,,,,,,n,6.57400012,MAN,FALSE,,,,,,,60,manzana,Spanish,Sounds/spa_manzana.mp3,2020-06-08_18h11.10.493,TranslationElicitation_eng-prolific,3.2.4,Linux aarch64,60,5eb54aacca57073d0b74f0ac,,1,0,98,56,1,97
,,,,,,,,,,,,,,,,,,,,,,,,,,,,,,,,,,,,,,,,,return,7.150000095,MAN,FALSE,,,,,,,60,manzana,Spanish,Sounds/spa_manzana.mp3,2020-06-08_18h11.10.493,TranslationElicitation_eng-prolific,3.2.4,Linux aarch64,60,5eb54aacca57073d0b74f0ac,7.150000095,1,0,98,56,1,97
,,,,,,,,,,,,,,,,,,,,,,,,,,,,,,,,,,,,,,,,,,,,,,,,,,,60,manzana,Spanish,Sounds/spa_manzana.mp3,2020-06-08_18h11.10.493,TranslationElicitation_eng-prolific,3.2.4,Linux aarch64,60,5eb54aacca57073d0b74f0ac,,1,0,98,56,1,97
,,,,,,,,,,,,,,,,,,,,,,,,,,,,,,,,,,,,,,,,,m,1.842000008,M,FALSE,,,,,,,64,moneda,Spanish,Sounds/spa_moneda.mp3,2020-06-08_18h11.10.493,TranslationElicitation_eng-prolific,3.2.4,Linux aarch64,60,5eb54aacca57073d0b74f0ac,,1,0,98,60,1,97
,,,,,,,,,,,,,,,,,,,,,,,,,,,,,,,,,,,,,,,,,o,2.011000156,MO,FALSE,,,,,,,64,moneda,Spanish,Sounds/spa_moneda.mp3,2020-06-08_18h11.10.493,TranslationElicitation_eng-prolific,3.2.4,Linux aarch64,60,5eb54aacca57073d0b74f0ac,,1,0,98,60,1,97
,,,,,,,,,,,,,,,,,,,,,,,,,,,,,,,,,,,,,,,,,n,2.202000141,MON,FALSE,,,,,,,64,moneda,Spanish,Sounds/spa_moneda.mp3,2020-06-08_18h11.10.493,TranslationElicitation_eng-prolific,3.2.4,Linux aarch64,60,5eb54aacca57073d0b74f0ac,,1,0,98,60,1,97
,,,,,,,,,,,,,,,,,,,,,,,,,,,,,,,,,,,,,,,,,e,2.335000038,MONE,FALSE,,,,,,,64,moneda,Spanish,Sounds/spa_moneda.mp3,2020-06-08_18h11.10.493,TranslationElicitation_eng-prolific,3.2.4,Linux aarch64,60,5eb54aacca57073d0b74f0ac,,1,0,98,60,1,97
,,,,,,,,,,,,,,,,,,,,,,,,,,,,,,,,,,,,,,,,,y,2.767000198,MONEY,FALSE,,,,,,,64,moneda,Spanish,Sounds/spa_moneda.mp3,2020-06-08_18h11.10.493,TranslationElicitation_eng-prolific,3.2.4,Linux aarch64,60,5eb54aacca57073d0b74f0ac,,1,0,98,60,1,97
,,,,,,,,,,,,,,,,,,,,,,,,,,,,,,,,,,,,,,,,,return,3.524000168,MONEY,FALSE,,,,,,,64,moneda,Spanish,Sounds/spa_moneda.mp3,2020-06-08_18h11.10.493,TranslationElicitation_eng-prolific,3.2.4,Linux aarch64,60,5eb54aacca57073d0b74f0ac,3.524000168,1,0,98,60,1,97
,,,,,,,,,,,,,,,,,,,,,,,,,,,,,,,,,,,,,,,,,,,,,,,,,,,64,moneda,Spanish,Sounds/spa_moneda.mp3,2020-06-08_18h11.10.493,TranslationElicitation_eng-prolific,3.2.4,Linux aarch64,60,5eb54aacca57073d0b74f0ac,,1,0,98,60,1,97
,,,,,,,,,,,,,,,,,,,,,,,,,,,,,,,,,,,,,,,,,c,4.759000063,C,FALSE,,,,,,,20,caracol,Spanish,Sounds/spa_caracol.mp3,2020-06-08_18h11.10.493,TranslationElicitation_eng-prolific,3.2.4,Linux aarch64,60,5eb54aacca57073d0b74f0ac,,1,0,98,18,1,97
,,,,,,,,,,,,,,,,,,,,,,,,,,,,,,,,,,,,,,,,,a,4.880000114,CA,FALSE,,,,,,,20,caracol,Spanish,Sounds/spa_caracol.mp3,2020-06-08_18h11.10.493,TranslationElicitation_eng-prolific,3.2.4,Linux aarch64,60,5eb54aacca57073d0b74f0ac,,1,0,98,18,1,97
,,,,,,,,,,,,,,,,,,,,,,,,,,,,,,,,,,,,,,,,,l,5.035000086,CAL,FALSE,,,,,,,20,caracol,Spanish,Sounds/spa_caracol.mp3,2020-06-08_18h11.10.493,TranslationElicitation_eng-prolific,3.2.4,Linux aarch64,60,5eb54aacca57073d0b74f0ac,,1,0,98,18,1,97
,,,,,,,,,,,,,,,,,,,,,,,,,,,,,,,,,,,,,,,,,l,5.174999952,CALL,FALSE,,,,,,,20,caracol,Spanish,Sounds/spa_caracol.mp3,2020-06-08_18h11.10.493,TranslationElicitation_eng-prolific,3.2.4,Linux aarch64,60,5eb54aacca57073d0b74f0ac,,1,0,98,18,1,97
,,,,,,,,,,,,,,,,,,,,,,,,,,,,,,,,,,,,,,,,,return,5.732000113,CALL,FALSE,,,,,,,20,caracol,Spanish,Sounds/spa_caracol.mp3,2020-06-08_18h11.10.493,TranslationElicitation_eng-prolific,3.2.4,Linux aarch64,60,5eb54aacca57073d0b74f0ac,5.732000113,1,0,98,18,1,97
,,,,,,,,,,,,,,,,,,,,,,,,,,,,,,,,,,,,,,,,,,,,,,,,,,,20,caracol,Spanish,Sounds/spa_caracol.mp3,2020-06-08_18h11.10.493,TranslationElicitation_eng-prolific,3.2.4,Linux aarch64,60,5eb54aacca57073d0b74f0ac,,1,0,98,18,1,97
,,,,,,,,,,,,,,,,,,,,,,,,,,,,,,,,,,,,,,,,,h,4.631000042,H,FALSE,,,,,,,39,gafas,Spanish,Sounds/spa_gafas.mp3,2020-06-08_18h11.10.493,TranslationElicitation_eng-prolific,3.2.4,Linux aarch64,60,5eb54aacca57073d0b74f0ac,,1,0,98,35,1,97
,,,,,,,,,,,,,,,,,,,,,,,,,,,,,,,,,,,,,,,,,o,4.878000021,HO,FALSE,,,,,,,39,gafas,Spanish,Sounds/spa_gafas.mp3,2020-06-08_18h11.10.493,TranslationElicitation_eng-prolific,3.2.4,Linux aarch64,60,5eb54aacca57073d0b74f0ac,,1,0,98,35,1,97
,,,,,,,,,,,,,,,,,,,,,,,,,,,,,,,,,,,,,,,,,m,5.049000025,HOM,FALSE,,,,,,,39,gafas,Spanish,Sounds/spa_gafas.mp3,2020-06-08_18h11.10.493,TranslationElicitation_eng-prolific,3.2.4,Linux aarch64,60,5eb54aacca57073d0b74f0ac,,1,0,98,35,1,97
,,,,,,,,,,,,,,,,,,,,,,,,,,,,,,,,,,,,,,,,,e,5.139000177,HOME,FALSE,,,,,,,39,gafas,Spanish,Sounds/spa_gafas.mp3,2020-06-08_18h11.10.493,TranslationElicitation_eng-prolific,3.2.4,Linux aarch64,60,5eb54aacca57073d0b74f0ac,,1,0,98,35,1,97
,,,,,,,,,,,,,,,,,,,,,,,,,,,,,,,,,,,,,,,,,return,5.962000132,HOME,FALSE,,,,,,,39,gafas,Spanish,Sounds/spa_gafas.mp3,2020-06-08_18h11.10.493,TranslationElicitation_eng-prolific,3.2.4,Linux aarch64,60,5eb54aacca57073d0b74f0ac,5.962000132,1,0,98,35,1,97
,,,,,,,,,,,,,,,,,,,,,,,,,,,,,,,,,,,,,,,,,,,,,,,,,,,39,gafas,Spanish,Sounds/spa_gafas.mp3,2020-06-08_18h11.10.493,TranslationElicitation_eng-prolific,3.2.4,Linux aarch64,60,5eb54aacca57073d0b74f0ac,,1,0,98,35,1,97
,,,,,,,,,,,,,,,,,,,,,,,,,,,,,,,,,,,,,,,,,l,2.20299983,L,FALSE,,,,,,,57,loro,Spanish,Sounds/spa_loro.mp3,2020-06-08_18h11.10.493,TranslationElicitation_eng-prolific,3.2.4,Linux aarch64,60,5eb54aacca57073d0b74f0ac,,1,0,98,53,1,97
,,,,,,,,,,,,,,,,,,,,,,,,,,,,,,,,,,,,,,,,,a,2.3349998,LA,FALSE,,,,,,,57,loro,Spanish,Sounds/spa_loro.mp3,2020-06-08_18h11.10.493,TranslationElicitation_eng-prolific,3.2.4,Linux aarch64,60,5eb54aacca57073d0b74f0ac,,1,0,98,53,1,97
,,,,,,,,,,,,,,,,,,,,,,,,,,,,,,,,,,,,,,,,,w,2.433999777,LAW,FALSE,,,,,,,57,loro,Spanish,Sounds/spa_loro.mp3,2020-06-08_18h11.10.493,TranslationElicitation_eng-prolific,3.2.4,Linux aarch64,60,5eb54aacca57073d0b74f0ac,,1,0,98,53,1,97
,,,,,,,,,,,,,,,,,,,,,,,,,,,,,,,,,,,,,,,,,return,3.130999804,LAW,FALSE,,,,,,,57,loro,Spanish,Sounds/spa_loro.mp3,2020-06-08_18h11.10.493,TranslationElicitation_eng-prolific,3.2.4,Linux aarch64,60,5eb54aacca57073d0b74f0ac,3.130999804,1,0,98,53,1,97
,,,,,,,,,,,,,,,,,,,,,,,,,,,,,,,,,,,,,,,,,,,,,,,,,,,57,loro,Spanish,Sounds/spa_loro.mp3,2020-06-08_18h11.10.493,TranslationElicitation_eng-prolific,3.2.4,Linux aarch64,60,5eb54aacca57073d0b74f0ac,,1,0,98,53,1,97
,,,,,,,,,,,,,,,,,,,,,,,,,,,,,,,,,,,,,,,,,m,4.680000067,M,FALSE,,,,,,,19,camiseta,Spanish,Sounds/spa_camiseta.mp3,2020-06-08_18h11.10.493,TranslationElicitation_eng-prolific,3.2.4,Linux aarch64,60,5eb54aacca57073d0b74f0ac,,1,0,98,17,1,97
,,,,,,,,,,,,,,,,,,,,,,,,,,,,,,,,,,,,,,,,,backspace,5.583999872,,TRUE,,,,,,,19,camiseta,Spanish,Sounds/spa_camiseta.mp3,2020-06-08_18h11.10.493,TranslationElicitation_eng-prolific,3.2.4,Linux aarch64,60,5eb54aacca57073d0b74f0ac,,1,0,98,17,1,97
,,,,,,,,,,,,,,,,,,,,,,,,,,,,,,,,,,,,,,,,,c,6.411000013,C,TRUE,,,,,,,19,camiseta,Spanish,Sounds/spa_camiseta.mp3,2020-06-08_18h11.10.493,TranslationElicitation_eng-prolific,3.2.4,Linux aarch64,60,5eb54aacca57073d0b74f0ac,,1,0,98,17,1,97
,,,,,,,,,,,,,,,,,,,,,,,,,,,,,,,,,,,,,,,,,a,6.5,CA,TRUE,,,,,,,19,camiseta,Spanish,Sounds/spa_camiseta.mp3,2020-06-08_18h11.10.493,TranslationElicitation_eng-prolific,3.2.4,Linux aarch64,60,5eb54aacca57073d0b74f0ac,,1,0,98,17,1,97
,,,,,,,,,,,,,,,,,,,,,,,,,,,,,,,,,,,,,,,,,m,6.631000042,CAM,TRUE,,,,,,,19,camiseta,Spanish,Sounds/spa_camiseta.mp3,2020-06-08_18h11.10.493,TranslationElicitation_eng-prolific,3.2.4,Linux aarch64,60,5eb54aacca57073d0b74f0ac,,1,0,98,17,1,97
,,,,,,,,,,,,,,,,,,,,,,,,,,,,,,,,,,,,,,,,,e,6.846999884,CAME,TRUE,,,,,,,19,camiseta,Spanish,Sounds/spa_camiseta.mp3,2020-06-08_18h11.10.493,TranslationElicitation_eng-prolific,3.2.4,Linux aarch64,60,5eb54aacca57073d0b74f0ac,,1,0,98,17,1,97
,,,,,,,,,,,,,,,,,,,,,,,,,,,,,,,,,,,,,,,,,r,6.945999861,CAMER,TRUE,,,,,,,19,camiseta,Spanish,Sounds/spa_camiseta.mp3,2020-06-08_18h11.10.493,TranslationElicitation_eng-prolific,3.2.4,Linux aarch64,60,5eb54aacca57073d0b74f0ac,,1,0,98,17,1,97
,,,,,,,,,,,,,,,,,,,,,,,,,,,,,,,,,,,,,,,,,a,7.129999876,CAMERA,TRUE,,,,,,,19,camiseta,Spanish,Sounds/spa_camiseta.mp3,2020-06-08_18h11.10.493,TranslationElicitation_eng-prolific,3.2.4,Linux aarch64,60,5eb54aacca57073d0b74f0ac,,1,0,98,17,1,97
,,,,,,,,,,,,,,,,,,,,,,,,,,,,,,,,,,,,,,,,,return,7.52699995,CAMERA,TRUE,,,,,,,19,camiseta,Spanish,Sounds/spa_camiseta.mp3,2020-06-08_18h11.10.493,TranslationElicitation_eng-prolific,3.2.4,Linux aarch64,60,5eb54aacca57073d0b74f0ac,7.52699995,1,0,98,17,1,97
,,,,,,,,,,,,,,,,,,,,,,,,,,,,,,,,,,,,,,,,,,,,,,,,,,,19,camiseta,Spanish,Sounds/spa_camiseta.mp3,2020-06-08_18h11.10.493,TranslationElicitation_eng-prolific,3.2.4,Linux aarch64,60,5eb54aacca57073d0b74f0ac,,1,0,98,17,1,97
,,,,,,,,,,,,,,,,,,,,,,,,,,,,,,,,,,,,,,,,,f,3.368000031,F,FALSE,,,,,,,38,frambuesa,Spanish,Sounds/spa_frambuesa.mp3,2020-06-08_18h11.10.493,TranslationElicitation_eng-prolific,3.2.4,Linux aarch64,60,5eb54aacca57073d0b74f0ac,,1,0,98,34,1,97
,,,,,,,,,,,,,,,,,,,,,,,,,,,,,,,,,,,,,,,,,l,3.999000072,FL,FALSE,,,,,,,38,frambuesa,Spanish,Sounds/spa_frambuesa.mp3,2020-06-08_18h11.10.493,TranslationElicitation_eng-prolific,3.2.4,Linux aarch64,60,5eb54aacca57073d0b74f0ac,,1,0,98,34,1,97
,,,,,,,,,,,,,,,,,,,,,,,,,,,,,,,,,,,,,,,,,a,4.65199995,FLA,FALSE,,,,,,,38,frambuesa,Spanish,Sounds/spa_frambuesa.mp3,2020-06-08_18h11.10.493,TranslationElicitation_eng-prolific,3.2.4,Linux aarch64,60,5eb54aacca57073d0b74f0ac,,1,0,98,34,1,97
,,,,,,,,,,,,,,,,,,,,,,,,,,,,,,,,,,,,,,,,,m,4.809999943,FLAM,FALSE,,,,,,,38,frambuesa,Spanish,Sounds/spa_frambuesa.mp3,2020-06-08_18h11.10.493,TranslationElicitation_eng-prolific,3.2.4,Linux aarch64,60,5eb54aacca57073d0b74f0ac,,1,0,98,34,1,97
,,,,,,,,,,,,,,,,,,,,,,,,,,,,,,,,,,,,,,,,,b,5.653000116,FLAMB,FALSE,,,,,,,38,frambuesa,Spanish,Sounds/spa_frambuesa.mp3,2020-06-08_18h11.10.493,TranslationElicitation_eng-prolific,3.2.4,Linux aarch64,60,5eb54aacca57073d0b74f0ac,,1,0,98,34,1,97
,,,,,,,,,,,,,,,,,,,,,,,,,,,,,,,,,,,,,,,,,o,5.927000046,FLAMBO,FALSE,,,,,,,38,frambuesa,Spanish,Sounds/spa_frambuesa.mp3,2020-06-08_18h11.10.493,TranslationElicitation_eng-prolific,3.2.4,Linux aarch64,60,5eb54aacca57073d0b74f0ac,,1,0,98,34,1,97
,,,,,,,,,,,,,,,,,,,,,,,,,,,,,,,,,,,,,,,,,i,6.070000172,FLAMBOI,FALSE,,,,,,,38,frambuesa,Spanish,Sounds/spa_frambuesa.mp3,2020-06-08_18h11.10.493,TranslationElicitation_eng-prolific,3.2.4,Linux aarch64,60,5eb54aacca57073d0b74f0ac,,1,0,98,34,1,97
,,,,,,,,,,,,,,,,,,,,,,,,,,,,,,,,,,,,,,,,,n,6.233999968,FLAMBOIN,FALSE,,,,,,,38,frambuesa,Spanish,Sounds/spa_frambuesa.mp3,2020-06-08_18h11.10.493,TranslationElicitation_eng-prolific,3.2.4,Linux aarch64,60,5eb54aacca57073d0b74f0ac,,1,0,98,34,1,97
,,,,,,,,,,,,,,,,,,,,,,,,,,,,,,,,,,,,,,,,,t,6.350000143,FLAMBOINT,FALSE,,,,,,,38,frambuesa,Spanish,Sounds/spa_frambuesa.mp3,2020-06-08_18h11.10.493,TranslationElicitation_eng-prolific,3.2.4,Linux aarch64,60,5eb54aacca57073d0b74f0ac,,1,0,98,34,1,97
,,,,,,,,,,,,,,,,,,,,,,,,,,,,,,,,,,,,,,,,,return,6.876000166,FLAMBOINT,FALSE,,,,,,,38,frambuesa,Spanish,Sounds/spa_frambuesa.mp3,2020-06-08_18h11.10.493,TranslationElicitation_eng-prolific,3.2.4,Linux aarch64,60,5eb54aacca57073d0b74f0ac,6.876000166,1,0,98,34,1,97
,,,,,,,,,,,,,,,,,,,,,,,,,,,,,,,,,,,,,,,,,,,,,,,,,,,38,frambuesa,Spanish,Sounds/spa_frambuesa.mp3,2020-06-08_18h11.10.493,TranslationElicitation_eng-prolific,3.2.4,Linux aarch64,60,5eb54aacca57073d0b74f0ac,,1,0,98,34,1,97
,,,,,,,,,,,,,,,,,,,,,,,,,,,,,,,,,,,,,,,,,b,2.114000082,B,FALSE,,,,,,,11,boton,Spanish,Sounds/spa_boton.mp3,2020-06-08_18h11.10.493,TranslationElicitation_eng-prolific,3.2.4,Linux aarch64,60,5eb54aacca57073d0b74f0ac,,1,0,98,9,1,97
,,,,,,,,,,,,,,,,,,,,,,,,,,,,,,,,,,,,,,,,,u,2.340000153,BU,FALSE,,,,,,,11,boton,Spanish,Sounds/spa_boton.mp3,2020-06-08_18h11.10.493,TranslationElicitation_eng-prolific,3.2.4,Linux aarch64,60,5eb54aacca57073d0b74f0ac,,1,0,98,9,1,97
,,,,,,,,,,,,,,,,,,,,,,,,,,,,,,,,,,,,,,,,,t,2.5,BUT,FALSE,,,,,,,11,boton,Spanish,Sounds/spa_boton.mp3,2020-06-08_18h11.10.493,TranslationElicitation_eng-prolific,3.2.4,Linux aarch64,60,5eb54aacca57073d0b74f0ac,,1,0,98,9,1,97
,,,,,,,,,,,,,,,,,,,,,,,,,,,,,,,,,,,,,,,,,t,2.619000196,BUTT,FALSE,,,,,,,11,boton,Spanish,Sounds/spa_boton.mp3,2020-06-08_18h11.10.493,TranslationElicitation_eng-prolific,3.2.4,Linux aarch64,60,5eb54aacca57073d0b74f0ac,,1,0,98,9,1,97
,,,,,,,,,,,,,,,,,,,,,,,,,,,,,,,,,,,,,,,,,o,2.94900012,BUTTO,FALSE,,,,,,,11,boton,Spanish,Sounds/spa_boton.mp3,2020-06-08_18h11.10.493,TranslationElicitation_eng-prolific,3.2.4,Linux aarch64,60,5eb54aacca57073d0b74f0ac,,1,0,98,9,1,97
,,,,,,,,,,,,,,,,,,,,,,,,,,,,,,,,,,,,,,,,,n,3.036000013,BUTTON,FALSE,,,,,,,11,boton,Spanish,Sounds/spa_boton.mp3,2020-06-08_18h11.10.493,TranslationElicitation_eng-prolific,3.2.4,Linux aarch64,60,5eb54aacca57073d0b74f0ac,,1,0,98,9,1,97
,,,,,,,,,,,,,,,,,,,,,,,,,,,,,,,,,,,,,,,,,return,3.440999985,BUTTON,FALSE,,,,,,,11,boton,Spanish,Sounds/spa_boton.mp3,2020-06-08_18h11.10.493,TranslationElicitation_eng-prolific,3.2.4,Linux aarch64,60,5eb54aacca57073d0b74f0ac,3.440999985,1,0,98,9,1,97
,,,,,,,,,,,,,,,,,,,,,,,,,,,,,,,,,,,,,,,,,,,,,,,,,,,11,boton,Spanish,Sounds/spa_boton.mp3,2020-06-08_18h11.10.493,TranslationElicitation_eng-prolific,3.2.4,Linux aarch64,60,5eb54aacca57073d0b74f0ac,,1,0,98,9,1,97
,,,,,,,,,,,,,,,,,,,,,,,,,,,,,,,,,,,,,,,,,m,2.026000023,M,FALSE,,,,,,,59,mano,Spanish,Sounds/spa_mano.mp3,2020-06-08_18h11.10.493,TranslationElicitation_eng-prolific,3.2.4,Linux aarch64,60,5eb54aacca57073d0b74f0ac,,1,0,98,55,1,97
,,,,,,,,,,,,,,,,,,,,,,,,,,,,,,,,,,,,,,,,,a,2.123000145,MA,FALSE,,,,,,,59,mano,Spanish,Sounds/spa_mano.mp3,2020-06-08_18h11.10.493,TranslationElicitation_eng-prolific,3.2.4,Linux aarch64,60,5eb54aacca57073d0b74f0ac,,1,0,98,55,1,97
,,,,,,,,,,,,,,,,,,,,,,,,,,,,,,,,,,,,,,,,,n,2.209000111,MAN,FALSE,,,,,,,59,mano,Spanish,Sounds/spa_mano.mp3,2020-06-08_18h11.10.493,TranslationElicitation_eng-prolific,3.2.4,Linux aarch64,60,5eb54aacca57073d0b74f0ac,,1,0,98,55,1,97
,,,,,,,,,,,,,,,,,,,,,,,,,,,,,,,,,,,,,,,,,return,3.911000013,MAN,FALSE,,,,,,,59,mano,Spanish,Sounds/spa_mano.mp3,2020-06-08_18h11.10.493,TranslationElicitation_eng-prolific,3.2.4,Linux aarch64,60,5eb54aacca57073d0b74f0ac,3.911000013,1,0,98,55,1,97
,,,,,,,,,,,,,,,,,,,,,,,,,,,,,,,,,,,,,,,,,,,,,,,,,,,59,mano,Spanish,Sounds/spa_mano.mp3,2020-06-08_18h11.10.493,TranslationElicitation_eng-prolific,3.2.4,Linux aarch64,60,5eb54aacca57073d0b74f0ac,,1,0,98,55,1,97
,,,,,,,,,,,,,,,,,,,,,,,,,,,,,,,,,,,,,,,,,b,3.881000042,B,FALSE,,,,,,,12,brazo,Spanish,Sounds/spa_brazo.mp3,2020-06-08_18h11.10.493,TranslationElicitation_eng-prolific,3.2.4,Linux aarch64,60,5eb54aacca57073d0b74f0ac,,1,0,98,10,1,97
,,,,,,,,,,,,,,,,,,,,,,,,,,,,,,,,,,,,,,,,,r,4.209000111,BR,FALSE,,,,,,,12,brazo,Spanish,Sounds/spa_brazo.mp3,2020-06-08_18h11.10.493,TranslationElicitation_eng-prolific,3.2.4,Linux aarch64,60,5eb54aacca57073d0b74f0ac,,1,0,98,10,1,97
,,,,,,,,,,,,,,,,,,,,,,,,,,,,,,,,,,,,,,,,,a,4.289999962,BRA,FALSE,,,,,,,12,brazo,Spanish,Sounds/spa_brazo.mp3,2020-06-08_18h11.10.493,TranslationElicitation_eng-prolific,3.2.4,Linux aarch64,60,5eb54aacca57073d0b74f0ac,,1,0,98,10,1,97
,,,,,,,,,,,,,,,,,,,,,,,,,,,,,,,,,,,,,,,,,return,4.707000017,BRA,FALSE,,,,,,,12,brazo,Spanish,Sounds/spa_brazo.mp3,2020-06-08_18h11.10.493,TranslationElicitation_eng-prolific,3.2.4,Linux aarch64,60,5eb54aacca57073d0b74f0ac,4.707000017,1,0,98,10,1,97
,,,,,,,,,,,,,,,,,,,,,,,,,,,,,,,,,,,,,,,,,,,,,,,,,,,12,brazo,Spanish,Sounds/spa_brazo.mp3,2020-06-08_18h11.10.493,TranslationElicitation_eng-prolific,3.2.4,Linux aarch64,60,5eb54aacca57073d0b74f0ac,,1,0,98,10,1,97
,,,,,,,,,,,,,,,,,,,,,,,,,,,,,,,,,,,,,,,,,p,2.290999889,P,FALSE,,,,,,,82,perro,Spanish,Sounds/spa_perro.mp3,2020-06-08_18h11.10.493,TranslationElicitation_eng-prolific,3.2.4,Linux aarch64,60,5eb54aacca57073d0b74f0ac,,1,0,98,77,1,97
,,,,,,,,,,,,,,,,,,,,,,,,,,,,,,,,,,,,,,,,,a,2.371999979,PA,FALSE,,,,,,,82,perro,Spanish,Sounds/spa_perro.mp3,2020-06-08_18h11.10.493,TranslationElicitation_eng-prolific,3.2.4,Linux aarch64,60,5eb54aacca57073d0b74f0ac,,1,0,98,77,1,97
,,,,,,,,,,,,,,,,,,,,,,,,,,,,,,,,,,,,,,,,,i,2.484999895,PAI,FALSE,,,,,,,82,perro,Spanish,Sounds/spa_perro.mp3,2020-06-08_18h11.10.493,TranslationElicitation_eng-prolific,3.2.4,Linux aarch64,60,5eb54aacca57073d0b74f0ac,,1,0,98,77,1,97
,,,,,,,,,,,,,,,,,,,,,,,,,,,,,,,,,,,,,,,,,r,2.580999851,PAIR,FALSE,,,,,,,82,perro,Spanish,Sounds/spa_perro.mp3,2020-06-08_18h11.10.493,TranslationElicitation_eng-prolific,3.2.4,Linux aarch64,60,5eb54aacca57073d0b74f0ac,,1,0,98,77,1,97
,,,,,,,,,,,,,,,,,,,,,,,,,,,,,,,,,,,,,,,,,return,3.07799983,PAIR,FALSE,,,,,,,82,perro,Spanish,Sounds/spa_perro.mp3,2020-06-08_18h11.10.493,TranslationElicitation_eng-prolific,3.2.4,Linux aarch64,60,5eb54aacca57073d0b74f0ac,3.07799983,1,0,98,77,1,97
,,,,,,,,,,,,,,,,,,,,,,,,,,,,,,,,,,,,,,,,,,,,,,,,,,,82,perro,Spanish,Sounds/spa_perro.mp3,2020-06-08_18h11.10.493,TranslationElicitation_eng-prolific,3.2.4,Linux aarch64,60,5eb54aacca57073d0b74f0ac,,1,0,98,77,1,97
,,,,,,,,,,,,,,,,,,,,,,,,,,,,,,,,,,,,,,,,,g,4.573999882,G,FALSE,,,,,,,44,gorrion,Spanish,Sounds/spa_gorrion.mp3,2020-06-08_18h11.10.493,TranslationElicitation_eng-prolific,3.2.4,Linux aarch64,60,5eb54aacca57073d0b74f0ac,,1,0,98,40,1,97
,,,,,,,,,,,,,,,,,,,,,,,,,,,,,,,,,,,,,,,,,o,4.654999971,GO,FALSE,,,,,,,44,gorrion,Spanish,Sounds/spa_gorrion.mp3,2020-06-08_18h11.10.493,TranslationElicitation_eng-prolific,3.2.4,Linux aarch64,60,5eb54aacca57073d0b74f0ac,,1,0,98,40,1,97
,,,,,,,,,,,,,,,,,,,,,,,,,,,,,,,,,,,,,,,,,r,4.826999903,GOR,FALSE,,,,,,,44,gorrion,Spanish,Sounds/spa_gorrion.mp3,2020-06-08_18h11.10.493,TranslationElicitation_eng-prolific,3.2.4,Linux aarch64,60,5eb54aacca57073d0b74f0ac,,1,0,98,40,1,97
,,,,,,,,,,,,,,,,,,,,,,,,,,,,,,,,,,,,,,,,,i,5.030999899,GORI,FALSE,,,,,,,44,gorrion,Spanish,Sounds/spa_gorrion.mp3,2020-06-08_18h11.10.493,TranslationElicitation_eng-prolific,3.2.4,Linux aarch64,60,5eb54aacca57073d0b74f0ac,,1,0,98,40,1,97
,,,,,,,,,,,,,,,,,,,,,,,,,,,,,,,,,,,,,,,,,l,5.291999817,GORIL,FALSE,,,,,,,44,gorrion,Spanish,Sounds/spa_gorrion.mp3,2020-06-08_18h11.10.493,TranslationElicitation_eng-prolific,3.2.4,Linux aarch64,60,5eb54aacca57073d0b74f0ac,,1,0,98,40,1,97
,,,,,,,,,,,,,,,,,,,,,,,,,,,,,,,,,,,,,,,,,l,5.405999899,GORILL,FALSE,,,,,,,44,gorrion,Spanish,Sounds/spa_gorrion.mp3,2020-06-08_18h11.10.493,TranslationElicitation_eng-prolific,3.2.4,Linux aarch64,60,5eb54aacca57073d0b74f0ac,,1,0,98,40,1,97
,,,,,,,,,,,,,,,,,,,,,,,,,,,,,,,,,,,,,,,,,a,5.513999939,GORILLA,FALSE,,,,,,,44,gorrion,Spanish,Sounds/spa_gorrion.mp3,2020-06-08_18h11.10.493,TranslationElicitation_eng-prolific,3.2.4,Linux aarch64,60,5eb54aacca57073d0b74f0ac,,1,0,98,40,1,97
,,,,,,,,,,,,,,,,,,,,,,,,,,,,,,,,,,,,,,,,,return,6.011999846,GORILLA,FALSE,,,,,,,44,gorrion,Spanish,Sounds/spa_gorrion.mp3,2020-06-08_18h11.10.493,TranslationElicitation_eng-prolific,3.2.4,Linux aarch64,60,5eb54aacca57073d0b74f0ac,6.011999846,1,0,98,40,1,97
,,,,,,,,,,,,,,,,,,,,,,,,,,,,,,,,,,,,,,,,,,,,,,,,,,,44,gorrion,Spanish,Sounds/spa_gorrion.mp3,2020-06-08_18h11.10.493,TranslationElicitation_eng-prolific,3.2.4,Linux aarch64,60,5eb54aacca57073d0b74f0ac,,1,0,98,40,1,97
,,,,,,,,,,,,,,,,,,,,,,,,,,,,,,,,,,,,,,,,,m,2.843999863,M,FALSE,,,,,,,58,luna,Spanish,Sounds/spa_luna.mp3,2020-06-08_18h11.10.493,TranslationElicitation_eng-prolific,3.2.4,Linux aarch64,60,5eb54aacca57073d0b74f0ac,,1,0,98,54,1,97
,,,,,,,,,,,,,,,,,,,,,,,,,,,,,,,,,,,,,,,,,o,3.04399991,MO,FALSE,,,,,,,58,luna,Spanish,Sounds/spa_luna.mp3,2020-06-08_18h11.10.493,TranslationElicitation_eng-prolific,3.2.4,Linux aarch64,60,5eb54aacca57073d0b74f0ac,,1,0,98,54,1,97
,,,,,,,,,,,,,,,,,,,,,,,,,,,,,,,,,,,,,,,,,o,3.197999954,MOO,FALSE,,,,,,,58,luna,Spanish,Sounds/spa_luna.mp3,2020-06-08_18h11.10.493,TranslationElicitation_eng-prolific,3.2.4,Linux aarch64,60,5eb54aacca57073d0b74f0ac,,1,0,98,54,1,97
,,,,,,,,,,,,,,,,,,,,,,,,,,,,,,,,,,,,,,,,,n,3.394999981,MOON,FALSE,,,,,,,58,luna,Spanish,Sounds/spa_luna.mp3,2020-06-08_18h11.10.493,TranslationElicitation_eng-prolific,3.2.4,Linux aarch64,60,5eb54aacca57073d0b74f0ac,,1,0,98,54,1,97
,,,,,,,,,,,,,,,,,,,,,,,,,,,,,,,,,,,,,,,,,return,4.730999947,MOON,FALSE,,,,,,,58,luna,Spanish,Sounds/spa_luna.mp3,2020-06-08_18h11.10.493,TranslationElicitation_eng-prolific,3.2.4,Linux aarch64,60,5eb54aacca57073d0b74f0ac,4.730999947,1,0,98,54,1,97
,,,,,,,,,,,,,,,,,,,,,,,,,,,,,,,,,,,,,,,,,,,,,,,,,,,58,luna,Spanish,Sounds/spa_luna.mp3,2020-06-08_18h11.10.493,TranslationElicitation_eng-prolific,3.2.4,Linux aarch64,60,5eb54aacca57073d0b74f0ac,,1,0,98,54,1,97
,,,,,,,,,,,,,,,,,,,,,,,,,,,,,,,,,,,,,,,,,b,3.132999897,B,FALSE,,,,,,,14,burro,Spanish,Sounds/spa_burro.mp3,2020-06-08_18h11.10.493,TranslationElicitation_eng-prolific,3.2.4,Linux aarch64,60,5eb54aacca57073d0b74f0ac,,1,0,98,12,1,97
,,,,,,,,,,,,,,,,,,,,,,,,,,,,,,,,,,,,,,,,,o,3.40199995,BO,FALSE,,,,,,,14,burro,Spanish,Sounds/spa_burro.mp3,2020-06-08_18h11.10.493,TranslationElicitation_eng-prolific,3.2.4,Linux aarch64,60,5eb54aacca57073d0b74f0ac,,1,0,98,12,1,97
,,,,,,,,,,,,,,,,,,,,,,,,,,,,,,,,,,,,,,,,,r,3.667999983,BOR,FALSE,,,,,,,14,burro,Spanish,Sounds/spa_burro.mp3,2020-06-08_18h11.10.493,TranslationElicitation_eng-prolific,3.2.4,Linux aarch64,60,5eb54aacca57073d0b74f0ac,,1,0,98,12,1,97
,,,,,,,,,,,,,,,,,,,,,,,,,,,,,,,,,,,,,,,,,r,3.823999882,BORR,FALSE,,,,,,,14,burro,Spanish,Sounds/spa_burro.mp3,2020-06-08_18h11.10.493,TranslationElicitation_eng-prolific,3.2.4,Linux aarch64,60,5eb54aacca57073d0b74f0ac,,1,0,98,12,1,97
,,,,,,,,,,,,,,,,,,,,,,,,,,,,,,,,,,,,,,,,,o,3.927999973,BORRO,FALSE,,,,,,,14,burro,Spanish,Sounds/spa_burro.mp3,2020-06-08_18h11.10.493,TranslationElicitation_eng-prolific,3.2.4,Linux aarch64,60,5eb54aacca57073d0b74f0ac,,1,0,98,12,1,97
,,,,,,,,,,,,,,,,,,,,,,,,,,,,,,,,,,,,,,,,,w,4.049000025,BORROW,FALSE,,,,,,,14,burro,Spanish,Sounds/spa_burro.mp3,2020-06-08_18h11.10.493,TranslationElicitation_eng-prolific,3.2.4,Linux aarch64,60,5eb54aacca57073d0b74f0ac,,1,0,98,12,1,97
,,,,,,,,,,,,,,,,,,,,,,,,,,,,,,,,,,,,,,,,,return,4.540999889,BORROW,FALSE,,,,,,,14,burro,Spanish,Sounds/spa_burro.mp3,2020-06-08_18h11.10.493,TranslationElicitation_eng-prolific,3.2.4,Linux aarch64,60,5eb54aacca57073d0b74f0ac,4.540999889,1,0,98,12,1,97
,,,,,,,,,,,,,,,,,,,,,,,,,,,,,,,,,,,,,,,,,,,,,,,,,,,14,burro,Spanish,Sounds/spa_burro.mp3,2020-06-08_18h11.10.493,TranslationElicitation_eng-prolific,3.2.4,Linux aarch64,60,5eb54aacca57073d0b74f0ac,,1,0,98,12,1,97
,,,,,,,,,,,,,,,,,,,,,,,,,,,,,,,,,,,,,,,,,g,5.878999949,G,FALSE,,,,,,,48,gusano,Spanish,Sounds/spa_gusano.mp3,2020-06-08_18h11.10.493,TranslationElicitation_eng-prolific,3.2.4,Linux aarch64,60,5eb54aacca57073d0b74f0ac,,1,0,98,44,1,97
,,,,,,,,,,,,,,,,,,,,,,,,,,,,,,,,,,,,,,,,,u,6.062000036,GU,FALSE,,,,,,,48,gusano,Spanish,Sounds/spa_gusano.mp3,2020-06-08_18h11.10.493,TranslationElicitation_eng-prolific,3.2.4,Linux aarch64,60,5eb54aacca57073d0b74f0ac,,1,0,98,44,1,97
,,,,,,,,,,,,,,,,,,,,,,,,,,,,,,,,,,,,,,,,,s,6.145999908,GUS,FALSE,,,,,,,48,gusano,Spanish,Sounds/spa_gusano.mp3,2020-06-08_18h11.10.493,TranslationElicitation_eng-prolific,3.2.4,Linux aarch64,60,5eb54aacca57073d0b74f0ac,,1,0,98,44,1,97
,,,,,,,,,,,,,,,,,,,,,,,,,,,,,,,,,,,,,,,,,h,6.234999895,GUSH,FALSE,,,,,,,48,gusano,Spanish,Sounds/spa_gusano.mp3,2020-06-08_18h11.10.493,TranslationElicitation_eng-prolific,3.2.4,Linux aarch64,60,5eb54aacca57073d0b74f0ac,,1,0,98,44,1,97
,,,,,,,,,,,,,,,,,,,,,,,,,,,,,,,,,,,,,,,,,return,6.828999996,GUSH,FALSE,,,,,,,48,gusano,Spanish,Sounds/spa_gusano.mp3,2020-06-08_18h11.10.493,TranslationElicitation_eng-prolific,3.2.4,Linux aarch64,60,5eb54aacca57073d0b74f0ac,6.828999996,1,0,98,44,1,97
,,,,,,,,,,,,,,,,,,,,,,,,,,,,,,,,,,,,,,,,,,,,,,,,,,,48,gusano,Spanish,Sounds/spa_gusano.mp3,2020-06-08_18h11.10.493,TranslationElicitation_eng-prolific,3.2.4,Linux aarch64,60,5eb54aacca57073d0b74f0ac,,1,0,98,44,1,97
,,,,,,,,,,,,,,,,,,,,,,,,,,,,,,,,,,,,,,,,,g,1.450999975,G,FALSE,,,,,,,47,guitarra,Spanish,Sounds/spa_guitarra.mp3,2020-06-08_18h11.10.493,TranslationElicitation_eng-prolific,3.2.4,Linux aarch64,60,5eb54aacca57073d0b74f0ac,,1,0,98,43,1,97
,,,,,,,,,,,,,,,,,,,,,,,,,,,,,,,,,,,,,,,,,u,1.617000103,GU,FALSE,,,,,,,47,guitarra,Spanish,Sounds/spa_guitarra.mp3,2020-06-08_18h11.10.493,TranslationElicitation_eng-prolific,3.2.4,Linux aarch64,60,5eb54aacca57073d0b74f0ac,,1,0,98,43,1,97
,,,,,,,,,,,,,,,,,,,,,,,,,,,,,,,,,,,,,,,,,i,1.781000137,GUI,FALSE,,,,,,,47,guitarra,Spanish,Sounds/spa_guitarra.mp3,2020-06-08_18h11.10.493,TranslationElicitation_eng-prolific,3.2.4,Linux aarch64,60,5eb54aacca57073d0b74f0ac,,1,0,98,43,1,97
,,,,,,,,,,,,,,,,,,,,,,,,,,,,,,,,,,,,,,,,,t,1.881999969,GUIT,FALSE,,,,,,,47,guitarra,Spanish,Sounds/spa_guitarra.mp3,2020-06-08_18h11.10.493,TranslationElicitation_eng-prolific,3.2.4,Linux aarch64,60,5eb54aacca57073d0b74f0ac,,1,0,98,43,1,97
,,,,,,,,,,,,,,,,,,,,,,,,,,,,,,,,,,,,,,,,,a,2.06400013,GUITA,FALSE,,,,,,,47,guitarra,Spanish,Sounds/spa_guitarra.mp3,2020-06-08_18h11.10.493,TranslationElicitation_eng-prolific,3.2.4,Linux aarch64,60,5eb54aacca57073d0b74f0ac,,1,0,98,43,1,97
,,,,,,,,,,,,,,,,,,,,,,,,,,,,,,,,,,,,,,,,,r,2.173000097,GUITAR,FALSE,,,,,,,47,guitarra,Spanish,Sounds/spa_guitarra.mp3,2020-06-08_18h11.10.493,TranslationElicitation_eng-prolific,3.2.4,Linux aarch64,60,5eb54aacca57073d0b74f0ac,,1,0,98,43,1,97
,,,,,,,,,,,,,,,,,,,,,,,,,,,,,,,,,,,,,,,,,return,2.861000061,GUITAR,FALSE,,,,,,,47,guitarra,Spanish,Sounds/spa_guitarra.mp3,2020-06-08_18h11.10.493,TranslationElicitation_eng-prolific,3.2.4,Linux aarch64,60,5eb54aacca57073d0b74f0ac,2.861000061,1,0,98,43,1,97
,,,,,,,,,,,,,,,,,,,,,,,,,,,,,,,,,,,,,,,,,,,,,,,,,,,47,guitarra,Spanish,Sounds/spa_guitarra.mp3,2020-06-08_18h11.10.493,TranslationElicitation_eng-prolific,3.2.4,Linux aarch64,60,5eb54aacca57073d0b74f0ac,,1,0,98,43,1,97
,,,,,,,,,,,,,,,,,,,,,,,,,,,,,,,,,,,,,,,,,b,2.320999861,B,FALSE,,,,,,,3,barco,Spanish,Sounds/spa_barco.mp3,2020-06-08_18h11.10.493,TranslationElicitation_eng-prolific,3.2.4,Linux aarch64,60,5eb54aacca57073d0b74f0ac,,1,0,98,1,1,97
,,,,,,,,,,,,,,,,,,,,,,,,,,,,,,,,,,,,,,,,,a,2.416999817,BA,FALSE,,,,,,,3,barco,Spanish,Sounds/spa_barco.mp3,2020-06-08_18h11.10.493,TranslationElicitation_eng-prolific,3.2.4,Linux aarch64,60,5eb54aacca57073d0b74f0ac,,1,0,98,1,1,97
,,,,,,,,,,,,,,,,,,,,,,,,,,,,,,,,,,,,,,,,,r,2.52699995,BAR,FALSE,,,,,,,3,barco,Spanish,Sounds/spa_barco.mp3,2020-06-08_18h11.10.493,TranslationElicitation_eng-prolific,3.2.4,Linux aarch64,60,5eb54aacca57073d0b74f0ac,,1,0,98,1,1,97
,,,,,,,,,,,,,,,,,,,,,,,,,,,,,,,,,,,,,,,,,k,2.720999956,BARK,FALSE,,,,,,,3,barco,Spanish,Sounds/spa_barco.mp3,2020-06-08_18h11.10.493,TranslationElicitation_eng-prolific,3.2.4,Linux aarch64,60,5eb54aacca57073d0b74f0ac,,1,0,98,1,1,97
,,,,,,,,,,,,,,,,,,,,,,,,,,,,,,,,,,,,,,,,,return,3.381999969,BARK,FALSE,,,,,,,3,barco,Spanish,Sounds/spa_barco.mp3,2020-06-08_18h11.10.493,TranslationElicitation_eng-prolific,3.2.4,Linux aarch64,60,5eb54aacca57073d0b74f0ac,3.381999969,1,0,98,1,1,97
,,,,,,,,,,,,,,,,,,,,,,,,,,,,,,,,,,,,,,,,,,,,,,,,,,,3,barco,Spanish,Sounds/spa_barco.mp3,2020-06-08_18h11.10.493,TranslationElicitation_eng-prolific,3.2.4,Linux aarch64,60,5eb54aacca57073d0b74f0ac,,1,0,98,1,1,97
,,,,,,,,,,,,,,,,,,,,,,,,,,,,,,,,,,,,,,,,,g,1.595000029,G,FALSE,,,,,,,43,globo,Spanish,Sounds/spa_globo.mp3,2020-06-08_18h11.10.493,TranslationElicitation_eng-prolific,3.2.4,Linux aarch64,60,5eb54aacca57073d0b74f0ac,,1,0,98,39,1,97
,,,,,,,,,,,,,,,,,,,,,,,,,,,,,,,,,,,,,,,,,l,1.674999952,GL,FALSE,,,,,,,43,globo,Spanish,Sounds/spa_globo.mp3,2020-06-08_18h11.10.493,TranslationElicitation_eng-prolific,3.2.4,Linux aarch64,60,5eb54aacca57073d0b74f0ac,,1,0,98,39,1,97
,,,,,,,,,,,,,,,,,,,,,,,,,,,,,,,,,,,,,,,,,o,1.804999828,GLO,FALSE,,,,,,,43,globo,Spanish,Sounds/spa_globo.mp3,2020-06-08_18h11.10.493,TranslationElicitation_eng-prolific,3.2.4,Linux aarch64,60,5eb54aacca57073d0b74f0ac,,1,0,98,39,1,97
,,,,,,,,,,,,,,,,,,,,,,,,,,,,,,,,,,,,,,,,,v,1.914999962,GLOV,FALSE,,,,,,,43,globo,Spanish,Sounds/spa_globo.mp3,2020-06-08_18h11.10.493,TranslationElicitation_eng-prolific,3.2.4,Linux aarch64,60,5eb54aacca57073d0b74f0ac,,1,0,98,39,1,97
,,,,,,,,,,,,,,,,,,,,,,,,,,,,,,,,,,,,,,,,,e,2,GLOVE,FALSE,,,,,,,43,globo,Spanish,Sounds/spa_globo.mp3,2020-06-08_18h11.10.493,TranslationElicitation_eng-prolific,3.2.4,Linux aarch64,60,5eb54aacca57073d0b74f0ac,,1,0,98,39,1,97
,,,,,,,,,,,,,,,,,,,,,,,,,,,,,,,,,,,,,,,,,return,2.524999857,GLOVE,FALSE,,,,,,,43,globo,Spanish,Sounds/spa_globo.mp3,2020-06-08_18h11.10.493,TranslationElicitation_eng-prolific,3.2.4,Linux aarch64,60,5eb54aacca57073d0b74f0ac,2.524999857,1,0,98,39,1,97
,,,,,,,,,,,,,,,,,,,,,,,,,,,,,,,,,,,,,,,,,,,,,,,,,,,43,globo,Spanish,Sounds/spa_globo.mp3,2020-06-08_18h11.10.493,TranslationElicitation_eng-prolific,3.2.4,Linux aarch64,60,5eb54aacca57073d0b74f0ac,,1,0,98,39,1,97
,,,,,,,,,,,,,,,,,,,,,,,,,,,,,,,,,,,,,,,,,u,1.861999989,U,FALSE,,,,,,,36,estrella,Spanish,Sounds/spa_estrella.mp3,2020-06-08_18h11.10.493,TranslationElicitation_eng-prolific,3.2.4,Linux aarch64,60,5eb54aacca57073d0b74f0ac,,1,0,98,32,1,97
,,,,,,,,,,,,,,,,,,,,,,,,,,,,,,,,,,,,,,,,,backspace,2.373000145,,TRUE,,,,,,,36,estrella,Spanish,Sounds/spa_estrella.mp3,2020-06-08_18h11.10.493,TranslationElicitation_eng-prolific,3.2.4,Linux aarch64,60,5eb54aacca57073d0b74f0ac,,1,0,98,32,1,97
,,,,,,,,,,,,,,,,,,,,,,,,,,,,,,,,,,,,,,,,,a,2.575000048,A,TRUE,,,,,,,36,estrella,Spanish,Sounds/spa_estrella.mp3,2020-06-08_18h11.10.493,TranslationElicitation_eng-prolific,3.2.4,Linux aarch64,60,5eb54aacca57073d0b74f0ac,,1,0,98,32,1,97
,,,,,,,,,,,,,,,,,,,,,,,,,,,,,,,,,,,,,,,,,u,2.730000019,AU,TRUE,,,,,,,36,estrella,Spanish,Sounds/spa_estrella.mp3,2020-06-08_18h11.10.493,TranslationElicitation_eng-prolific,3.2.4,Linux aarch64,60,5eb54aacca57073d0b74f0ac,,1,0,98,32,1,97
,,,,,,,,,,,,,,,,,,,,,,,,,,,,,,,,,,,,,,,,,s,3.072000027,AUS,TRUE,,,,,,,36,estrella,Spanish,Sounds/spa_estrella.mp3,2020-06-08_18h11.10.493,TranslationElicitation_eng-prolific,3.2.4,Linux aarch64,60,5eb54aacca57073d0b74f0ac,,1,0,98,32,1,97
,,,,,,,,,,,,,,,,,,,,,,,,,,,,,,,,,,,,,,,,,t,3.366000175,AUST,TRUE,,,,,,,36,estrella,Spanish,Sounds/spa_estrella.mp3,2020-06-08_18h11.10.493,TranslationElicitation_eng-prolific,3.2.4,Linux aarch64,60,5eb54aacca57073d0b74f0ac,,1,0,98,32,1,97
,,,,,,,,,,,,,,,,,,,,,,,,,,,,,,,,,,,,,,,,,r,3.429000139,AUSTR,TRUE,,,,,,,36,estrella,Spanish,Sounds/spa_estrella.mp3,2020-06-08_18h11.10.493,TranslationElicitation_eng-prolific,3.2.4,Linux aarch64,60,5eb54aacca57073d0b74f0ac,,1,0,98,32,1,97
,,,,,,,,,,,,,,,,,,,,,,,,,,,,,,,,,,,,,,,,,a,3.800000191,AUSTRA,TRUE,,,,,,,36,estrella,Spanish,Sounds/spa_estrella.mp3,2020-06-08_18h11.10.493,TranslationElicitation_eng-prolific,3.2.4,Linux aarch64,60,5eb54aacca57073d0b74f0ac,,1,0,98,32,1,97
,,,,,,,,,,,,,,,,,,,,,,,,,,,,,,,,,,,,,,,,,l,4.273000002,AUSTRAL,TRUE,,,,,,,36,estrella,Spanish,Sounds/spa_estrella.mp3,2020-06-08_18h11.10.493,TranslationElicitation_eng-prolific,3.2.4,Linux aarch64,60,5eb54aacca57073d0b74f0ac,,1,0,98,32,1,97
,,,,,,,,,,,,,,,,,,,,,,,,,,,,,,,,,,,,,,,,,i,4.452000141,AUSTRALI,TRUE,,,,,,,36,estrella,Spanish,Sounds/spa_estrella.mp3,2020-06-08_18h11.10.493,TranslationElicitation_eng-prolific,3.2.4,Linux aarch64,60,5eb54aacca57073d0b74f0ac,,1,0,98,32,1,97
,,,,,,,,,,,,,,,,,,,,,,,,,,,,,,,,,,,,,,,,,a,4.578000069,AUSTRALIA,TRUE,,,,,,,36,estrella,Spanish,Sounds/spa_estrella.mp3,2020-06-08_18h11.10.493,TranslationElicitation_eng-prolific,3.2.4,Linux aarch64,60,5eb54aacca57073d0b74f0ac,,1,0,98,32,1,97
,,,,,,,,,,,,,,,,,,,,,,,,,,,,,,,,,,,,,,,,,return,5.534000158,AUSTRALIA,TRUE,,,,,,,36,estrella,Spanish,Sounds/spa_estrella.mp3,2020-06-08_18h11.10.493,TranslationElicitation_eng-prolific,3.2.4,Linux aarch64,60,5eb54aacca57073d0b74f0ac,5.534000158,1,0,98,32,1,97
,,,,,,,,,,,,,,,,,,,,,,,,,,,,,,,,,,,,,,,,,,,,,,,,,,,36,estrella,Spanish,Sounds/spa_estrella.mp3,2020-06-08_18h11.10.493,TranslationElicitation_eng-prolific,3.2.4,Linux aarch64,60,5eb54aacca57073d0b74f0ac,,1,0,98,32,1,97
,,,,,,,,,,,,,,,,,,,,,,,,,,,,,,,,,,,,,,,,,p,3.309000015,P,FALSE,,,,,,,77,pantalon,Spanish,Sounds/spa_pantalon.mp3,2020-06-08_18h11.10.493,TranslationElicitation_eng-prolific,3.2.4,Linux aarch64,60,5eb54aacca57073d0b74f0ac,,1,0,98,72,1,97
,,,,,,,,,,,,,,,,,,,,,,,,,,,,,,,,,,,,,,,,,a,3.470000029,PA,FALSE,,,,,,,77,pantalon,Spanish,Sounds/spa_pantalon.mp3,2020-06-08_18h11.10.493,TranslationElicitation_eng-prolific,3.2.4,Linux aarch64,60,5eb54aacca57073d0b74f0ac,,1,0,98,72,1,97
,,,,,,,,,,,,,,,,,,,,,,,,,,,,,,,,,,,,,,,,,b,3.644000053,PAB,FALSE,,,,,,,77,pantalon,Spanish,Sounds/spa_pantalon.mp3,2020-06-08_18h11.10.493,TranslationElicitation_eng-prolific,3.2.4,Linux aarch64,60,5eb54aacca57073d0b74f0ac,,1,0,98,72,1,97
,,,,,,,,,,,,,,,,,,,,,,,,,,,,,,,,,,,,,,,,,t,4.003999949,PABT,FALSE,,,,,,,77,pantalon,Spanish,Sounds/spa_pantalon.mp3,2020-06-08_18h11.10.493,TranslationElicitation_eng-prolific,3.2.4,Linux aarch64,60,5eb54aacca57073d0b74f0ac,,1,0,98,72,1,97
,,,,,,,,,,,,,,,,,,,,,,,,,,,,,,,,,,,,,,,,,backspace,4.651000023,PAB,TRUE,,,,,,,77,pantalon,Spanish,Sounds/spa_pantalon.mp3,2020-06-08_18h11.10.493,TranslationElicitation_eng-prolific,3.2.4,Linux aarch64,60,5eb54aacca57073d0b74f0ac,,1,0,98,72,1,97
,,,,,,,,,,,,,,,,,,,,,,,,,,,,,,,,,,,,,,,,,backspace,4.76699996,PA,TRUE,,,,,,,77,pantalon,Spanish,Sounds/spa_pantalon.mp3,2020-06-08_18h11.10.493,TranslationElicitation_eng-prolific,3.2.4,Linux aarch64,60,5eb54aacca57073d0b74f0ac,,1,0,98,72,1,97
,,,,,,,,,,,,,,,,,,,,,,,,,,,,,,,,,,,,,,,,,n,5.33100009,PAN,TRUE,,,,,,,77,pantalon,Spanish,Sounds/spa_pantalon.mp3,2020-06-08_18h11.10.493,TranslationElicitation_eng-prolific,3.2.4,Linux aarch64,60,5eb54aacca57073d0b74f0ac,,1,0,98,72,1,97
,,,,,,,,,,,,,,,,,,,,,,,,,,,,,,,,,,,,,,,,,t,5.453999996,PANT,TRUE,,,,,,,77,pantalon,Spanish,Sounds/spa_pantalon.mp3,2020-06-08_18h11.10.493,TranslationElicitation_eng-prolific,3.2.4,Linux aarch64,60,5eb54aacca57073d0b74f0ac,,1,0,98,72,1,97
,,,,,,,,,,,,,,,,,,,,,,,,,,,,,,,,,,,,,,,,,s,5.888000011,PANTS,TRUE,,,,,,,77,pantalon,Spanish,Sounds/spa_pantalon.mp3,2020-06-08_18h11.10.493,TranslationElicitation_eng-prolific,3.2.4,Linux aarch64,60,5eb54aacca57073d0b74f0ac,,1,0,98,72,1,97
,,,,,,,,,,,,,,,,,,,,,,,,,,,,,,,,,,,,,,,,,return,6.937999964,PANTS,TRUE,,,,,,,77,pantalon,Spanish,Sounds/spa_pantalon.mp3,2020-06-08_18h11.10.493,TranslationElicitation_eng-prolific,3.2.4,Linux aarch64,60,5eb54aacca57073d0b74f0ac,6.937999964,1,0,98,72,1,97
,,,,,,,,,,,,,,,,,,,,,,,,,,,,,,,,,,,,,,,,,,,,,,,,,,,77,pantalon,Spanish,Sounds/spa_pantalon.mp3,2020-06-08_18h11.10.493,TranslationElicitation_eng-prolific,3.2.4,Linux aarch64,60,5eb54aacca57073d0b74f0ac,,1,0,98,72,1,97
,,,,,,,,,,,,,,,,,,,,,,,,,,,,,,,,,,,,,,,,,p,2.361000061,P,FALSE,,,,,,,75,pan,Spanish,Sounds/spa_pan.mp3,2020-06-08_18h11.10.493,TranslationElicitation_eng-prolific,3.2.4,Linux aarch64,60,5eb54aacca57073d0b74f0ac,,1,0,98,70,1,97
,,,,,,,,,,,,,,,,,,,,,,,,,,,,,,,,,,,,,,,,,a,2.486000061,PA,FALSE,,,,,,,75,pan,Spanish,Sounds/spa_pan.mp3,2020-06-08_18h11.10.493,TranslationElicitation_eng-prolific,3.2.4,Linux aarch64,60,5eb54aacca57073d0b74f0ac,,1,0,98,70,1,97
,,,,,,,,,,,,,,,,,,,,,,,,,,,,,,,,,,,,,,,,,n,2.612999916,PAN,FALSE,,,,,,,75,pan,Spanish,Sounds/spa_pan.mp3,2020-06-08_18h11.10.493,TranslationElicitation_eng-prolific,3.2.4,Linux aarch64,60,5eb54aacca57073d0b74f0ac,,1,0,98,70,1,97
,,,,,,,,,,,,,,,,,,,,,,,,,,,,,,,,,,,,,,,,,return,3.172999859,PAN,FALSE,,,,,,,75,pan,Spanish,Sounds/spa_pan.mp3,2020-06-08_18h11.10.493,TranslationElicitation_eng-prolific,3.2.4,Linux aarch64,60,5eb54aacca57073d0b74f0ac,3.172999859,1,0,98,70,1,97
,,,,,,,,,,,,,,,,,,,,,,,,,,,,,,,,,,,,,,,,,,,,,,,,,,,75,pan,Spanish,Sounds/spa_pan.mp3,2020-06-08_18h11.10.493,TranslationElicitation_eng-prolific,3.2.4,Linux aarch64,60,5eb54aacca57073d0b74f0ac,,1,0,98,70,1,97
,,,,,,,,,,,,,,,,,,,,,,,,,,,,,,,,,,,,,,,,,s,5.437999964,S,FALSE,,,,,,,23,cerdo,Spanish,Sounds/spa_cerdo.mp3,2020-06-08_18h11.10.493,TranslationElicitation_eng-prolific,3.2.4,Linux aarch64,60,5eb54aacca57073d0b74f0ac,,1,0,98,21,1,97
,,,,,,,,,,,,,,,,,,,,,,,,,,,,,,,,,,,,,,,,,i,5.539999962,SI,FALSE,,,,,,,23,cerdo,Spanish,Sounds/spa_cerdo.mp3,2020-06-08_18h11.10.493,TranslationElicitation_eng-prolific,3.2.4,Linux aarch64,60,5eb54aacca57073d0b74f0ac,,1,0,98,21,1,97
,,,,,,,,,,,,,,,,,,,,,,,,,,,,,,,,,,,,,,,,,l,5.705999851,SIL,FALSE,,,,,,,23,cerdo,Spanish,Sounds/spa_cerdo.mp3,2020-06-08_18h11.10.493,TranslationElicitation_eng-prolific,3.2.4,Linux aarch64,60,5eb54aacca57073d0b74f0ac,,1,0,98,21,1,97
,,,,,,,,,,,,,,,,,,,,,,,,,,,,,,,,,,,,,,,,,v,5.819999933,SILV,FALSE,,,,,,,23,cerdo,Spanish,Sounds/spa_cerdo.mp3,2020-06-08_18h11.10.493,TranslationElicitation_eng-prolific,3.2.4,Linux aarch64,60,5eb54aacca57073d0b74f0ac,,1,0,98,21,1,97
,,,,,,,,,,,,,,,,,,,,,,,,,,,,,,,,,,,,,,,,,e,5.904999971,SILVE,FALSE,,,,,,,23,cerdo,Spanish,Sounds/spa_cerdo.mp3,2020-06-08_18h11.10.493,TranslationElicitation_eng-prolific,3.2.4,Linux aarch64,60,5eb54aacca57073d0b74f0ac,,1,0,98,21,1,97
,,,,,,,,,,,,,,,,,,,,,,,,,,,,,,,,,,,,,,,,,r,6.069999933,SILVER,FALSE,,,,,,,23,cerdo,Spanish,Sounds/spa_cerdo.mp3,2020-06-08_18h11.10.493,TranslationElicitation_eng-prolific,3.2.4,Linux aarch64,60,5eb54aacca57073d0b74f0ac,,1,0,98,21,1,97
,,,,,,,,,,,,,,,,,,,,,,,,,,,,,,,,,,,,,,,,,return,6.490999937,SILVER,FALSE,,,,,,,23,cerdo,Spanish,Sounds/spa_cerdo.mp3,2020-06-08_18h11.10.493,TranslationElicitation_eng-prolific,3.2.4,Linux aarch64,60,5eb54aacca57073d0b74f0ac,6.490999937,1,0,98,21,1,97
,,,,,,,,,,,,,,,,,,,,,,,,,,,,,,,,,,,,,,,,,,,,,,,,,,,23,cerdo,Spanish,Sounds/spa_cerdo.mp3,2020-06-08_18h11.10.493,TranslationElicitation_eng-prolific,3.2.4,Linux aarch64,60,5eb54aacca57073d0b74f0ac,,1,0,98,21,1,97
,,,,,,,,,,,,,,,,,,,,,,,,,,,,,,,,,,,,,,,,,o,8.430999994,O,FALSE,,,,,,,68,naranja,Spanish,Sounds/spa_naranja.mp3,2020-06-08_18h11.10.493,TranslationElicitation_eng-prolific,3.2.4,Linux aarch64,60,5eb54aacca57073d0b74f0ac,,1,0,98,64,1,97
,,,,,,,,,,,,,,,,,,,,,,,,,,,,,,,,,,,,,,,,,r,8.621999979,OR,FALSE,,,,,,,68,naranja,Spanish,Sounds/spa_naranja.mp3,2020-06-08_18h11.10.493,TranslationElicitation_eng-prolific,3.2.4,Linux aarch64,60,5eb54aacca57073d0b74f0ac,,1,0,98,64,1,97
,,,,,,,,,,,,,,,,,,,,,,,,,,,,,,,,,,,,,,,,,a,8.697999954,ORA,FALSE,,,,,,,68,naranja,Spanish,Sounds/spa_naranja.mp3,2020-06-08_18h11.10.493,TranslationElicitation_eng-prolific,3.2.4,Linux aarch64,60,5eb54aacca57073d0b74f0ac,,1,0,98,64,1,97
,,,,,,,,,,,,,,,,,,,,,,,,,,,,,,,,,,,,,,,,,n,8.974999905,ORAN,FALSE,,,,,,,68,naranja,Spanish,Sounds/spa_naranja.mp3,2020-06-08_18h11.10.493,TranslationElicitation_eng-prolific,3.2.4,Linux aarch64,60,5eb54aacca57073d0b74f0ac,,1,0,98,64,1,97
,,,,,,,,,,,,,,,,,,,,,,,,,,,,,,,,,,,,,,,,,g,9.174999952,ORANG,FALSE,,,,,,,68,naranja,Spanish,Sounds/spa_naranja.mp3,2020-06-08_18h11.10.493,TranslationElicitation_eng-prolific,3.2.4,Linux aarch64,60,5eb54aacca57073d0b74f0ac,,1,0,98,64,1,97
,,,,,,,,,,,,,,,,,,,,,,,,,,,,,,,,,,,,,,,,,e,9.315000057,ORANGE,FALSE,,,,,,,68,naranja,Spanish,Sounds/spa_naranja.mp3,2020-06-08_18h11.10.493,TranslationElicitation_eng-prolific,3.2.4,Linux aarch64,60,5eb54aacca57073d0b74f0ac,,1,0,98,64,1,97
,,,,,,,,,,,,,,,,,,,,,,,,,,,,,,,,,,,,,,,,,return,9.871999979,ORANGE,FALSE,,,,,,,68,naranja,Spanish,Sounds/spa_naranja.mp3,2020-06-08_18h11.10.493,TranslationElicitation_eng-prolific,3.2.4,Linux aarch64,60,5eb54aacca57073d0b74f0ac,9.871999979,1,0,98,64,1,97
,,,,,,,,,,,,,,,,,,,,,,,,,,,,,,,,,,,,,,,,,,,,,,,,,,,68,naranja,Spanish,Sounds/spa_naranja.mp3,2020-06-08_18h11.10.493,TranslationElicitation_eng-prolific,3.2.4,Linux aarch64,60,5eb54aacca57073d0b74f0ac,,1,0,98,64,1,97
,,,,,,,,,,,,,,,,,,,,,,,,,,,,,,,,,,,,,,,,,c,1.436000109,C,FALSE,,,,,,,27,chocolate,Spanish,Sounds/spa_chocolate.mp3,2020-06-08_18h11.10.493,TranslationElicitation_eng-prolific,3.2.4,Linux aarch64,60,5eb54aacca57073d0b74f0ac,,1,0,98,24,1,97
,,,,,,,,,,,,,,,,,,,,,,,,,,,,,,,,,,,,,,,,,h,1.542000055,CH,FALSE,,,,,,,27,chocolate,Spanish,Sounds/spa_chocolate.mp3,2020-06-08_18h11.10.493,TranslationElicitation_eng-prolific,3.2.4,Linux aarch64,60,5eb54aacca57073d0b74f0ac,,1,0,98,24,1,97
,,,,,,,,,,,,,,,,,,,,,,,,,,,,,,,,,,,,,,,,,o,1.889000177,CHO,FALSE,,,,,,,27,chocolate,Spanish,Sounds/spa_chocolate.mp3,2020-06-08_18h11.10.493,TranslationElicitation_eng-prolific,3.2.4,Linux aarch64,60,5eb54aacca57073d0b74f0ac,,1,0,98,24,1,97
,,,,,,,,,,,,,,,,,,,,,,,,,,,,,,,,,,,,,,,,,l,2.230000019,CHOL,FALSE,,,,,,,27,chocolate,Spanish,Sounds/spa_chocolate.mp3,2020-06-08_18h11.10.493,TranslationElicitation_eng-prolific,3.2.4,Linux aarch64,60,5eb54aacca57073d0b74f0ac,,1,0,98,24,1,97
,,,,,,,,,,,,,,,,,,,,,,,,,,,,,,,,,,,,,,,,,o,2.575000048,CHOLO,FALSE,,,,,,,27,chocolate,Spanish,Sounds/spa_chocolate.mp3,2020-06-08_18h11.10.493,TranslationElicitation_eng-prolific,3.2.4,Linux aarch64,60,5eb54aacca57073d0b74f0ac,,1,0,98,24,1,97
,,,,,,,,,,,,,,,,,,,,,,,,,,,,,,,,,,,,,,,,,backspace,2.940999985,CHOL,TRUE,,,,,,,27,chocolate,Spanish,Sounds/spa_chocolate.mp3,2020-06-08_18h11.10.493,TranslationElicitation_eng-prolific,3.2.4,Linux aarch64,60,5eb54aacca57073d0b74f0ac,,1,0,98,24,1,97
,,,,,,,,,,,,,,,,,,,,,,,,,,,,,,,,,,,,,,,,,backspace,3.090000153,CHO,TRUE,,,,,,,27,chocolate,Spanish,Sounds/spa_chocolate.mp3,2020-06-08_18h11.10.493,TranslationElicitation_eng-prolific,3.2.4,Linux aarch64,60,5eb54aacca57073d0b74f0ac,,1,0,98,24,1,97
,,,,,,,,,,,,,,,,,,,,,,,,,,,,,,,,,,,,,,,,,c,3.286000013,CHOC,TRUE,,,,,,,27,chocolate,Spanish,Sounds/spa_chocolate.mp3,2020-06-08_18h11.10.493,TranslationElicitation_eng-prolific,3.2.4,Linux aarch64,60,5eb54aacca57073d0b74f0ac,,1,0,98,24,1,97
,,,,,,,,,,,,,,,,,,,,,,,,,,,,,,,,,,,,,,,,,o,3.371999979,CHOCO,TRUE,,,,,,,27,chocolate,Spanish,Sounds/spa_chocolate.mp3,2020-06-08_18h11.10.493,TranslationElicitation_eng-prolific,3.2.4,Linux aarch64,60,5eb54aacca57073d0b74f0ac,,1,0,98,24,1,97
,,,,,,,,,,,,,,,,,,,,,,,,,,,,,,,,,,,,,,,,,l,3.608999968,CHOCOL,TRUE,,,,,,,27,chocolate,Spanish,Sounds/spa_chocolate.mp3,2020-06-08_18h11.10.493,TranslationElicitation_eng-prolific,3.2.4,Linux aarch64,60,5eb54aacca57073d0b74f0ac,,1,0,98,24,1,97
,,,,,,,,,,,,,,,,,,,,,,,,,,,,,,,,,,,,,,,,,a,4.256999969,CHOCOLA,TRUE,,,,,,,27,chocolate,Spanish,Sounds/spa_chocolate.mp3,2020-06-08_18h11.10.493,TranslationElicitation_eng-prolific,3.2.4,Linux aarch64,60,5eb54aacca57073d0b74f0ac,,1,0,98,24,1,97
,,,,,,,,,,,,,,,,,,,,,,,,,,,,,,,,,,,,,,,,,t,4.450000048,CHOCOLAT,TRUE,,,,,,,27,chocolate,Spanish,Sounds/spa_chocolate.mp3,2020-06-08_18h11.10.493,TranslationElicitation_eng-prolific,3.2.4,Linux aarch64,60,5eb54aacca57073d0b74f0ac,,1,0,98,24,1,97
,,,,,,,,,,,,,,,,,,,,,,,,,,,,,,,,,,,,,,,,,e,4.541000128,CHOCOLATE,TRUE,,,,,,,27,chocolate,Spanish,Sounds/spa_chocolate.mp3,2020-06-08_18h11.10.493,TranslationElicitation_eng-prolific,3.2.4,Linux aarch64,60,5eb54aacca57073d0b74f0ac,,1,0,98,24,1,97
,,,,,,,,,,,,,,,,,,,,,,,,,,,,,,,,,,,,,,,,,return,5.654999971,CHOCOLATE,TRUE,,,,,,,27,chocolate,Spanish,Sounds/spa_chocolate.mp3,2020-06-08_18h11.10.493,TranslationElicitation_eng-prolific,3.2.4,Linux aarch64,60,5eb54aacca57073d0b74f0ac,5.654999971,1,0,98,24,1,97
,,,,,,,,,,,,,,,,,,,,,,,,,,,,,,,,,,,,,,,,,,,,,,,,,,,27,chocolate,Spanish,Sounds/spa_chocolate.mp3,2020-06-08_18h11.10.493,TranslationElicitation_eng-prolific,3.2.4,Linux aarch64,60,5eb54aacca57073d0b74f0ac,,1,0,98,24,1,97
,,,,,,,,,,,,,,,,,,,,,,,,,,,,,,,,,,,,,,,,,h,1.894999981,H,FALSE,,,,,,,41,gallina,Spanish,Sounds/spa_gallina.mp3,2020-06-08_18h11.10.493,TranslationElicitation_eng-prolific,3.2.4,Linux aarch64,60,5eb54aacca57073d0b74f0ac,,1,0,98,37,1,97
,,,,,,,,,,,,,,,,,,,,,,,,,,,,,,,,,,,,,,,,,y,2.184000015,HY,FALSE,,,,,,,41,gallina,Spanish,Sounds/spa_gallina.mp3,2020-06-08_18h11.10.493,TranslationElicitation_eng-prolific,3.2.4,Linux aarch64,60,5eb54aacca57073d0b74f0ac,,1,0,98,37,1,97
,,,,,,,,,,,,,,,,,,,,,,,,,,,,,,,,,,,,,,,,,e,3.087999821,HYE,FALSE,,,,,,,41,gallina,Spanish,Sounds/spa_gallina.mp3,2020-06-08_18h11.10.493,TranslationElicitation_eng-prolific,3.2.4,Linux aarch64,60,5eb54aacca57073d0b74f0ac,,1,0,98,37,1,97
,,,,,,,,,,,,,,,,,,,,,,,,,,,,,,,,,,,,,,,,,n,3.221999884,HYEN,FALSE,,,,,,,41,gallina,Spanish,Sounds/spa_gallina.mp3,2020-06-08_18h11.10.493,TranslationElicitation_eng-prolific,3.2.4,Linux aarch64,60,5eb54aacca57073d0b74f0ac,,1,0,98,37,1,97
,,,,,,,,,,,,,,,,,,,,,,,,,,,,,,,,,,,,,,,,,a,3.319000006,HYENA,FALSE,,,,,,,41,gallina,Spanish,Sounds/spa_gallina.mp3,2020-06-08_18h11.10.493,TranslationElicitation_eng-prolific,3.2.4,Linux aarch64,60,5eb54aacca57073d0b74f0ac,,1,0,98,37,1,97
,,,,,,,,,,,,,,,,,,,,,,,,,,,,,,,,,,,,,,,,,return,3.94299984,HYENA,FALSE,,,,,,,41,gallina,Spanish,Sounds/spa_gallina.mp3,2020-06-08_18h11.10.493,TranslationElicitation_eng-prolific,3.2.4,Linux aarch64,60,5eb54aacca57073d0b74f0ac,3.94299984,1,0,98,37,1,97
,,,,,,,,,,,,,,,,,,,,,,,,,,,,,,,,,,,,,,,,,,,,,,,,,,,41,gallina,Spanish,Sounds/spa_gallina.mp3,2020-06-08_18h11.10.493,TranslationElicitation_eng-prolific,3.2.4,Linux aarch64,60,5eb54aacca57073d0b74f0ac,,1,0,98,37,1,97
,,,,,,,,,,,,,,,,,,,,,,,,,,,,,,,,,,,,,,,,,t,2.484999895,T,FALSE,,,,,,,22,cepillo,Spanish,Sounds/spa_cepillo.mp3,2020-06-08_18h11.10.493,TranslationElicitation_eng-prolific,3.2.4,Linux aarch64,60,5eb54aacca57073d0b74f0ac,,1,0,98,20,1,97
,,,,,,,,,,,,,,,,,,,,,,,,,,,,,,,,,,,,,,,,,h,2.625,TH,FALSE,,,,,,,22,cepillo,Spanish,Sounds/spa_cepillo.mp3,2020-06-08_18h11.10.493,TranslationElicitation_eng-prolific,3.2.4,Linux aarch64,60,5eb54aacca57073d0b74f0ac,,1,0,98,20,1,97
,,,,,,,,,,,,,,,,,,,,,,,,,,,,,,,,,,,,,,,,,e,2.853999853,THE,FALSE,,,,,,,22,cepillo,Spanish,Sounds/spa_cepillo.mp3,2020-06-08_18h11.10.493,TranslationElicitation_eng-prolific,3.2.4,Linux aarch64,60,5eb54aacca57073d0b74f0ac,,1,0,98,20,1,97
,,,,,,,,,,,,,,,,,,,,,,,,,,,,,,,,,,,,,,,,,r,2.95600009,THER,FALSE,,,,,,,22,cepillo,Spanish,Sounds/spa_cepillo.mp3,2020-06-08_18h11.10.493,TranslationElicitation_eng-prolific,3.2.4,Linux aarch64,60,5eb54aacca57073d0b74f0ac,,1,0,98,20,1,97
,,,,,,,,,,,,,,,,,,,,,,,,,,,,,,,,,,,,,,,,,a,4.167999983,THERA,FALSE,,,,,,,22,cepillo,Spanish,Sounds/spa_cepillo.mp3,2020-06-08_18h11.10.493,TranslationElicitation_eng-prolific,3.2.4,Linux aarch64,60,5eb54aacca57073d0b74f0ac,,1,0,98,20,1,97
,,,,,,,,,,,,,,,,,,,,,,,,,,,,,,,,,,,,,,,,,p,4.313999891,THERAP,FALSE,,,,,,,22,cepillo,Spanish,Sounds/spa_cepillo.mp3,2020-06-08_18h11.10.493,TranslationElicitation_eng-prolific,3.2.4,Linux aarch64,60,5eb54aacca57073d0b74f0ac,,1,0,98,20,1,97
,,,,,,,,,,,,,,,,,,,,,,,,,,,,,,,,,,,,,,,,,y,4.447000027,THERAPY,FALSE,,,,,,,22,cepillo,Spanish,Sounds/spa_cepillo.mp3,2020-06-08_18h11.10.493,TranslationElicitation_eng-prolific,3.2.4,Linux aarch64,60,5eb54aacca57073d0b74f0ac,,1,0,98,20,1,97
,,,,,,,,,,,,,,,,,,,,,,,,,,,,,,,,,,,,,,,,,return,4.976999998,THERAPY,FALSE,,,,,,,22,cepillo,Spanish,Sounds/spa_cepillo.mp3,2020-06-08_18h11.10.493,TranslationElicitation_eng-prolific,3.2.4,Linux aarch64,60,5eb54aacca57073d0b74f0ac,4.976999998,1,0,98,20,1,97
,,,,,,,,,,,,,,,,,,,,,,,,,,,,,,,,,,,,,,,,,,,,,,,,,,,22,cepillo,Spanish,Sounds/spa_cepillo.mp3,2020-06-08_18h11.10.493,TranslationElicitation_eng-prolific,3.2.4,Linux aarch64,60,5eb54aacca57073d0b74f0ac,,1,0,98,20,1,97
,,,,,,,,,,,,,,,,,,,,,,,,,,,,,,,,,,,,,,,,,l,5.174000025,L,FALSE,,,,,,,51,ladrillo,Spanish,Sounds/spa_ladrillo.mp3,2020-06-08_18h11.10.493,TranslationElicitation_eng-prolific,3.2.4,Linux aarch64,60,5eb54aacca57073d0b74f0ac,,1,0,98,47,1,97
,,,,,,,,,,,,,,,,,,,,,,,,,,,,,,,,,,,,,,,,,a,5.35800004,LA,FALSE,,,,,,,51,ladrillo,Spanish,Sounds/spa_ladrillo.mp3,2020-06-08_18h11.10.493,TranslationElicitation_eng-prolific,3.2.4,Linux aarch64,60,5eb54aacca57073d0b74f0ac,,1,0,98,47,1,97
,,,,,,,,,,,,,,,,,,,,,,,,,,,,,,,,,,,,,,,,,b,5.585000038,LAB,FALSE,,,,,,,51,ladrillo,Spanish,Sounds/spa_ladrillo.mp3,2020-06-08_18h11.10.493,TranslationElicitation_eng-prolific,3.2.4,Linux aarch64,60,5eb54aacca57073d0b74f0ac,,1,0,98,47,1,97
,,,,,,,,,,,,,,,,,,,,,,,,,,,,,,,,,,,,,,,,,return,7.415999889,LAB,FALSE,,,,,,,51,ladrillo,Spanish,Sounds/spa_ladrillo.mp3,2020-06-08_18h11.10.493,TranslationElicitation_eng-prolific,3.2.4,Linux aarch64,60,5eb54aacca57073d0b74f0ac,7.415999889,1,0,98,47,1,97
,,,,,,,,,,,,,,,,,,,,,,,,,,,,,,,,,,,,,,,,,,,,,,,,,,,51,ladrillo,Spanish,Sounds/spa_ladrillo.mp3,2020-06-08_18h11.10.493,TranslationElicitation_eng-prolific,3.2.4,Linux aarch64,60,5eb54aacca57073d0b74f0ac,,1,0,98,47,1,97
,,,,,,,,,,,,,,,,,,,,,,,,,,,,,,,,,,,,,,,,,g,3.364000082,G,FALSE,,,,,,,84,pie,Spanish,Sounds/spa_pie.mp3,2020-06-08_18h11.10.493,TranslationElicitation_eng-prolific,3.2.4,Linux aarch64,60,5eb54aacca57073d0b74f0ac,,1,0,98,79,1,97
,,,,,,,,,,,,,,,,,,,,,,,,,,,,,,,,,,,,,,,,,o,3.480999947,GO,FALSE,,,,,,,84,pie,Spanish,Sounds/spa_pie.mp3,2020-06-08_18h11.10.493,TranslationElicitation_eng-prolific,3.2.4,Linux aarch64,60,5eb54aacca57073d0b74f0ac,,1,0,98,79,1,97
,,,,,,,,,,,,,,,,,,,,,,,,,,,,,,,,,,,,,,,,,o,3.620000124,GOO,FALSE,,,,,,,84,pie,Spanish,Sounds/spa_pie.mp3,2020-06-08_18h11.10.493,TranslationElicitation_eng-prolific,3.2.4,Linux aarch64,60,5eb54aacca57073d0b74f0ac,,1,0,98,79,1,97
,,,,,,,,,,,,,,,,,,,,,,,,,,,,,,,,,,,,,,,,,d,4.085999966,GOOD,FALSE,,,,,,,84,pie,Spanish,Sounds/spa_pie.mp3,2020-06-08_18h11.10.493,TranslationElicitation_eng-prolific,3.2.4,Linux aarch64,60,5eb54aacca57073d0b74f0ac,,1,0,98,79,1,97
,,,,,,,,,,,,,,,,,,,,,,,,,,,,,,,,,,,,,,,,,return,4.45600009,GOOD,FALSE,,,,,,,84,pie,Spanish,Sounds/spa_pie.mp3,2020-06-08_18h11.10.493,TranslationElicitation_eng-prolific,3.2.4,Linux aarch64,60,5eb54aacca57073d0b74f0ac,4.45600009,1,0,98,79,1,97
,,,,,,,,,,,,,,,,,,,,,,,,,,,,,,,,,,,,,,,,,,,,,,,,,,,84,pie,Spanish,Sounds/spa_pie.mp3,2020-06-08_18h11.10.493,TranslationElicitation_eng-prolific,3.2.4,Linux aarch64,60,5eb54aacca57073d0b74f0ac,,1,0,98,79,1,97
,,,,,,,,,,,,,,,,,,,,,,,,,,,,,,,,,,,,,,,,,s,3.554000139,S,FALSE,,,,,,,93,sol,Spanish,Sounds/spa_sol.mp3,2020-06-08_18h11.10.493,TranslationElicitation_eng-prolific,3.2.4,Linux aarch64,60,5eb54aacca57073d0b74f0ac,,1,0,98,88,1,97
,,,,,,,,,,,,,,,,,,,,,,,,,,,,,,,,,,,,,,,,,u,3.663000107,SU,FALSE,,,,,,,93,sol,Spanish,Sounds/spa_sol.mp3,2020-06-08_18h11.10.493,TranslationElicitation_eng-prolific,3.2.4,Linux aarch64,60,5eb54aacca57073d0b74f0ac,,1,0,98,88,1,97
,,,,,,,,,,,,,,,,,,,,,,,,,,,,,,,,,,,,,,,,,n,3.854000092,SUN,FALSE,,,,,,,93,sol,Spanish,Sounds/spa_sol.mp3,2020-06-08_18h11.10.493,TranslationElicitation_eng-prolific,3.2.4,Linux aarch64,60,5eb54aacca57073d0b74f0ac,,1,0,98,88,1,97
,,,,,,,,,,,,,,,,,,,,,,,,,,,,,,,,,,,,,,,,,return,4.332000017,SUN,FALSE,,,,,,,93,sol,Spanish,Sounds/spa_sol.mp3,2020-06-08_18h11.10.493,TranslationElicitation_eng-prolific,3.2.4,Linux aarch64,60,5eb54aacca57073d0b74f0ac,4.332000017,1,0,98,88,1,97
,,,,,,,,,,,,,,,,,,,,,,,,,,,,,,,,,,,,,,,,,,,,,,,,,,,93,sol,Spanish,Sounds/spa_sol.mp3,2020-06-08_18h11.10.493,TranslationElicitation_eng-prolific,3.2.4,Linux aarch64,60,5eb54aacca57073d0b74f0ac,,1,0,98,88,1,97
,,,,,,,,,,,,,,,,,,,,,,,,,,,,,,,,,,,,,,,,,t,2.673000097,T,FALSE,,,,,,,94,tambor,Spanish,Sounds/spa_tambor.mp3,2020-06-08_18h11.10.493,TranslationElicitation_eng-prolific,3.2.4,Linux aarch64,60,5eb54aacca57073d0b74f0ac,,1,0,98,89,1,97
,,,,,,,,,,,,,,,,,,,,,,,,,,,,,,,,,,,,,,,,,a,2.812000036,TA,FALSE,,,,,,,94,tambor,Spanish,Sounds/spa_tambor.mp3,2020-06-08_18h11.10.493,TranslationElicitation_eng-prolific,3.2.4,Linux aarch64,60,5eb54aacca57073d0b74f0ac,,1,0,98,89,1,97
,,,,,,,,,,,,,,,,,,,,,,,,,,,,,,,,,,,,,,,,,m,3.090000153,TAM,FALSE,,,,,,,94,tambor,Spanish,Sounds/spa_tambor.mp3,2020-06-08_18h11.10.493,TranslationElicitation_eng-prolific,3.2.4,Linux aarch64,60,5eb54aacca57073d0b74f0ac,,1,0,98,89,1,97
,,,,,,,,,,,,,,,,,,,,,,,,,,,,,,,,,,,,,,,,,b,3.590000153,TAMB,FALSE,,,,,,,94,tambor,Spanish,Sounds/spa_tambor.mp3,2020-06-08_18h11.10.493,TranslationElicitation_eng-prolific,3.2.4,Linux aarch64,60,5eb54aacca57073d0b74f0ac,,1,0,98,89,1,97
,,,,,,,,,,,,,,,,,,,,,,,,,,,,,,,,,,,,,,,,,o,3.896000147,TAMBO,FALSE,,,,,,,94,tambor,Spanish,Sounds/spa_tambor.mp3,2020-06-08_18h11.10.493,TranslationElicitation_eng-prolific,3.2.4,Linux aarch64,60,5eb54aacca57073d0b74f0ac,,1,0,98,89,1,97
,,,,,,,,,,,,,,,,,,,,,,,,,,,,,,,,,,,,,,,,,u,4.167999983,TAMBOU,FALSE,,,,,,,94,tambor,Spanish,Sounds/spa_tambor.mp3,2020-06-08_18h11.10.493,TranslationElicitation_eng-prolific,3.2.4,Linux aarch64,60,5eb54aacca57073d0b74f0ac,,1,0,98,89,1,97
,,,,,,,,,,,,,,,,,,,,,,,,,,,,,,,,,,,,,,,,,r,4.886000156,TAMBOUR,FALSE,,,,,,,94,tambor,Spanish,Sounds/spa_tambor.mp3,2020-06-08_18h11.10.493,TranslationElicitation_eng-prolific,3.2.4,Linux aarch64,60,5eb54aacca57073d0b74f0ac,,1,0,98,89,1,97
,,,,,,,,,,,,,,,,,,,,,,,,,,,,,,,,,,,,,,,,,i,4.976000071,TAMBOURI,FALSE,,,,,,,94,tambor,Spanish,Sounds/spa_tambor.mp3,2020-06-08_18h11.10.493,TranslationElicitation_eng-prolific,3.2.4,Linux aarch64,60,5eb54aacca57073d0b74f0ac,,1,0,98,89,1,97
,,,,,,,,,,,,,,,,,,,,,,,,,,,,,,,,,,,,,,,,,n,5.200999975,TAMBOURIN,FALSE,,,,,,,94,tambor,Spanish,Sounds/spa_tambor.mp3,2020-06-08_18h11.10.493,TranslationElicitation_eng-prolific,3.2.4,Linux aarch64,60,5eb54aacca57073d0b74f0ac,,1,0,98,89,1,97
,,,,,,,,,,,,,,,,,,,,,,,,,,,,,,,,,,,,,,,,,e,5.243000031,TAMBOURINE,FALSE,,,,,,,94,tambor,Spanish,Sounds/spa_tambor.mp3,2020-06-08_18h11.10.493,TranslationElicitation_eng-prolific,3.2.4,Linux aarch64,60,5eb54aacca57073d0b74f0ac,,1,0,98,89,1,97
,,,,,,,,,,,,,,,,,,,,,,,,,,,,,,,,,,,,,,,,,return,5.881999969,TAMBOURINE,FALSE,,,,,,,94,tambor,Spanish,Sounds/spa_tambor.mp3,2020-06-08_18h11.10.493,TranslationElicitation_eng-prolific,3.2.4,Linux aarch64,60,5eb54aacca57073d0b74f0ac,5.881999969,1,0,98,89,1,97
,,,,,,,,,,,,,,,,,,,,,,,,,,,,,,,,,,,,,,,,,,,,,,,,,,,94,tambor,Spanish,Sounds/spa_tambor.mp3,2020-06-08_18h11.10.493,TranslationElicitation_eng-prolific,3.2.4,Linux aarch64,60,5eb54aacca57073d0b74f0ac,,1,0,98,89,1,97
,,,,,,,,,,,,,,,,,,,,,,,,,,,,,,,,,,,,,,,,,t,1.583000183,T,FALSE,,,,,,,95,tenedor,Spanish,Sounds/spa_tenedor.mp3,2020-06-08_18h11.10.493,TranslationElicitation_eng-prolific,3.2.4,Linux aarch64,60,5eb54aacca57073d0b74f0ac,,1,0,98,90,1,97
,,,,,,,,,,,,,,,,,,,,,,,,,,,,,,,,,,,,,,,,,e,1.664999962,TE,FALSE,,,,,,,95,tenedor,Spanish,Sounds/spa_tenedor.mp3,2020-06-08_18h11.10.493,TranslationElicitation_eng-prolific,3.2.4,Linux aarch64,60,5eb54aacca57073d0b74f0ac,,1,0,98,90,1,97
,,,,,,,,,,,,,,,,,,,,,,,,,,,,,,,,,,,,,,,,,n,1.81400013,TEN,FALSE,,,,,,,95,tenedor,Spanish,Sounds/spa_tenedor.mp3,2020-06-08_18h11.10.493,TranslationElicitation_eng-prolific,3.2.4,Linux aarch64,60,5eb54aacca57073d0b74f0ac,,1,0,98,90,1,97
,,,,,,,,,,,,,,,,,,,,,,,,,,,,,,,,,,,,,,,,,n,1.946000099,TENN,FALSE,,,,,,,95,tenedor,Spanish,Sounds/spa_tenedor.mp3,2020-06-08_18h11.10.493,TranslationElicitation_eng-prolific,3.2.4,Linux aarch64,60,5eb54aacca57073d0b74f0ac,,1,0,98,90,1,97
,,,,,,,,,,,,,,,,,,,,,,,,,,,,,,,,,,,,,,,,,i,2.142000198,TENNI,FALSE,,,,,,,95,tenedor,Spanish,Sounds/spa_tenedor.mp3,2020-06-08_18h11.10.493,TranslationElicitation_eng-prolific,3.2.4,Linux aarch64,60,5eb54aacca57073d0b74f0ac,,1,0,98,90,1,97
,,,,,,,,,,,,,,,,,,,,,,,,,,,,,,,,,,,,,,,,,s,2.223999977,TENNIS,FALSE,,,,,,,95,tenedor,Spanish,Sounds/spa_tenedor.mp3,2020-06-08_18h11.10.493,TranslationElicitation_eng-prolific,3.2.4,Linux aarch64,60,5eb54aacca57073d0b74f0ac,,1,0,98,90,1,97
,,,,,,,,,,,,,,,,,,,,,,,,,,,,,,,,,,,,,,,,,return,2.708000183,TENNIS,FALSE,,,,,,,95,tenedor,Spanish,Sounds/spa_tenedor.mp3,2020-06-08_18h11.10.493,TranslationElicitation_eng-prolific,3.2.4,Linux aarch64,60,5eb54aacca57073d0b74f0ac,2.708000183,1,0,98,90,1,97
,,,,,,,,,,,,,,,,,,,,,,,,,,,,,,,,,,,,,,,,,,,,,,,,,,,95,tenedor,Spanish,Sounds/spa_tenedor.mp3,2020-06-08_18h11.10.493,TranslationElicitation_eng-prolific,3.2.4,Linux aarch64,60,5eb54aacca57073d0b74f0ac,,1,0,98,90,1,97
,,,,,,,,,,,,,,,,,,,,,,,,,,,,,,,,,,,,,,,,,b,4.20299983,B,FALSE,,,,,,,35,esponja,Spanish,Sounds/spa_esponja.mp3,2020-06-08_18h11.10.493,TranslationElicitation_eng-prolific,3.2.4,Linux aarch64,60,5eb54aacca57073d0b74f0ac,,1,0,98,31,1,97
,,,,,,,,,,,,,,,,,,,,,,,,,,,,,,,,,,,,,,,,,o,4.312999964,BO,FALSE,,,,,,,35,esponja,Spanish,Sounds/spa_esponja.mp3,2020-06-08_18h11.10.493,TranslationElicitation_eng-prolific,3.2.4,Linux aarch64,60,5eb54aacca57073d0b74f0ac,,1,0,98,31,1,97
,,,,,,,,,,,,,,,,,,,,,,,,,,,,,,,,,,,,,,,,,g,4.471999884,BOG,FALSE,,,,,,,35,esponja,Spanish,Sounds/spa_esponja.mp3,2020-06-08_18h11.10.493,TranslationElicitation_eng-prolific,3.2.4,Linux aarch64,60,5eb54aacca57073d0b74f0ac,,1,0,98,31,1,97
,,,,,,,,,,,,,,,,,,,,,,,,,,,,,,,,,,,,,,,,,backspace,5.324999809,BO,TRUE,,,,,,,35,esponja,Spanish,Sounds/spa_esponja.mp3,2020-06-08_18h11.10.493,TranslationElicitation_eng-prolific,3.2.4,Linux aarch64,60,5eb54aacca57073d0b74f0ac,,1,0,98,31,1,97
,,,,,,,,,,,,,,,,,,,,,,,,,,,,,,,,,,,,,,,,,n,5.632999897,BON,TRUE,,,,,,,35,esponja,Spanish,Sounds/spa_esponja.mp3,2020-06-08_18h11.10.493,TranslationElicitation_eng-prolific,3.2.4,Linux aarch64,60,5eb54aacca57073d0b74f0ac,,1,0,98,31,1,97
,,,,,,,,,,,,,,,,,,,,,,,,,,,,,,,,,,,,,,,,,g,5.849999905,BONG,TRUE,,,,,,,35,esponja,Spanish,Sounds/spa_esponja.mp3,2020-06-08_18h11.10.493,TranslationElicitation_eng-prolific,3.2.4,Linux aarch64,60,5eb54aacca57073d0b74f0ac,,1,0,98,31,1,97
,,,,,,,,,,,,,,,,,,,,,,,,,,,,,,,,,,,,,,,,,return,6.230000019,BONG,TRUE,,,,,,,35,esponja,Spanish,Sounds/spa_esponja.mp3,2020-06-08_18h11.10.493,TranslationElicitation_eng-prolific,3.2.4,Linux aarch64,60,5eb54aacca57073d0b74f0ac,6.230000019,1,0,98,31,1,97
,,,,,,,,,,,,,,,,,,,,,,,,,,,,,,,,,,,,,,,,,,,,,,,,,,,35,esponja,Spanish,Sounds/spa_esponja.mp3,2020-06-08_18h11.10.493,TranslationElicitation_eng-prolific,3.2.4,Linux aarch64,60,5eb54aacca57073d0b74f0ac,,1,0,98,31,1,97
,,,,,,,,,,,,,,,,,,,,,,,,,,,,,,,,,,,,,,,,,m,2.390000105,M,FALSE,,,,,,,65,mono,Spanish,Sounds/spa_mono.mp3,2020-06-08_18h11.10.493,TranslationElicitation_eng-prolific,3.2.4,Linux aarch64,60,5eb54aacca57073d0b74f0ac,,1,0,98,61,1,97
,,,,,,,,,,,,,,,,,,,,,,,,,,,,,,,,,,,,,,,,,o,2.561000109,MO,FALSE,,,,,,,65,mono,Spanish,Sounds/spa_mono.mp3,2020-06-08_18h11.10.493,TranslationElicitation_eng-prolific,3.2.4,Linux aarch64,60,5eb54aacca57073d0b74f0ac,,1,0,98,61,1,97
,,,,,,,,,,,,,,,,,,,,,,,,,,,,,,,,,,,,,,,,,n,2.828000069,MON,FALSE,,,,,,,65,mono,Spanish,Sounds/spa_mono.mp3,2020-06-08_18h11.10.493,TranslationElicitation_eng-prolific,3.2.4,Linux aarch64,60,5eb54aacca57073d0b74f0ac,,1,0,98,61,1,97
,,,,,,,,,,,,,,,,,,,,,,,,,,,,,,,,,,,,,,,,,backspace,3.879000187,MO,TRUE,,,,,,,65,mono,Spanish,Sounds/spa_mono.mp3,2020-06-08_18h11.10.493,TranslationElicitation_eng-prolific,3.2.4,Linux aarch64,60,5eb54aacca57073d0b74f0ac,,1,0,98,61,1,97
,,,,,,,,,,,,,,,,,,,,,,,,,,,,,,,,,,,,,,,,,backspace,4.0400002,M,TRUE,,,,,,,65,mono,Spanish,Sounds/spa_mono.mp3,2020-06-08_18h11.10.493,TranslationElicitation_eng-prolific,3.2.4,Linux aarch64,60,5eb54aacca57073d0b74f0ac,,1,0,98,61,1,97
,,,,,,,,,,,,,,,,,,,,,,,,,,,,,,,,,,,,,,,,,backspace,4.209000111,,TRUE,,,,,,,65,mono,Spanish,Sounds/spa_mono.mp3,2020-06-08_18h11.10.493,TranslationElicitation_eng-prolific,3.2.4,Linux aarch64,60,5eb54aacca57073d0b74f0ac,,1,0,98,61,1,97
,,,,,,,,,,,,,,,,,,,,,,,,,,,,,,,,,,,,,,,,,backspace,4.332000017,,TRUE,,,,,,,65,mono,Spanish,Sounds/spa_mono.mp3,2020-06-08_18h11.10.493,TranslationElicitation_eng-prolific,3.2.4,Linux aarch64,60,5eb54aacca57073d0b74f0ac,,1,0,98,61,1,97
,,,,,,,,,,,,,,,,,,,,,,,,,,,,,,,,,,,,,,,,,m,5.167000055,M,TRUE,,,,,,,65,mono,Spanish,Sounds/spa_mono.mp3,2020-06-08_18h11.10.493,TranslationElicitation_eng-prolific,3.2.4,Linux aarch64,60,5eb54aacca57073d0b74f0ac,,1,0,98,61,1,97
,,,,,,,,,,,,,,,,,,,,,,,,,,,,,,,,,,,,,,,,,o,5.343000174,MO,TRUE,,,,,,,65,mono,Spanish,Sounds/spa_mono.mp3,2020-06-08_18h11.10.493,TranslationElicitation_eng-prolific,3.2.4,Linux aarch64,60,5eb54aacca57073d0b74f0ac,,1,0,98,61,1,97
,,,,,,,,,,,,,,,,,,,,,,,,,,,,,,,,,,,,,,,,,n,5.54700017,MON,TRUE,,,,,,,65,mono,Spanish,Sounds/spa_mono.mp3,2020-06-08_18h11.10.493,TranslationElicitation_eng-prolific,3.2.4,Linux aarch64,60,5eb54aacca57073d0b74f0ac,,1,0,98,61,1,97
,,,,,,,,,,,,,,,,,,,,,,,,,,,,,,,,,,,,,,,,,o,5.757000208,MONO,TRUE,,,,,,,65,mono,Spanish,Sounds/spa_mono.mp3,2020-06-08_18h11.10.493,TranslationElicitation_eng-prolific,3.2.4,Linux aarch64,60,5eb54aacca57073d0b74f0ac,,1,0,98,61,1,97
,,,,,,,,,,,,,,,,,,,,,,,,,,,,,,,,,,,,,,,,,return,6.176000118,MONO,TRUE,,,,,,,65,mono,Spanish,Sounds/spa_mono.mp3,2020-06-08_18h11.10.493,TranslationElicitation_eng-prolific,3.2.4,Linux aarch64,60,5eb54aacca57073d0b74f0ac,6.176000118,1,0,98,61,1,97
,,,,,,,,,,,,,,,,,,,,,,,,,,,,,,,,,,,,,,,,,,,,,,,,,,,65,mono,Spanish,Sounds/spa_mono.mp3,2020-06-08_18h11.10.493,TranslationElicitation_eng-prolific,3.2.4,Linux aarch64,60,5eb54aacca57073d0b74f0ac,,1,0,98,61,1,97
,,,,,,,,,,,,,,,,,,,,,,,,,,,,,,,,,,,,,,,,,b,3.523000002,B,FALSE,,,,,,,42,gato,Spanish,Sounds/spa_gato.mp3,2020-06-08_18h11.10.493,TranslationElicitation_eng-prolific,3.2.4,Linux aarch64,60,5eb54aacca57073d0b74f0ac,,1,0,98,38,1,97
,,,,,,,,,,,,,,,,,,,,,,,,,,,,,,,,,,,,,,,,,i,3.66899991,BI,FALSE,,,,,,,42,gato,Spanish,Sounds/spa_gato.mp3,2020-06-08_18h11.10.493,TranslationElicitation_eng-prolific,3.2.4,Linux aarch64,60,5eb54aacca57073d0b74f0ac,,1,0,98,38,1,97
,,,,,,,,,,,,,,,,,,,,,,,,,,,,,,,,,,,,,,,,,g,3.796999931,BIG,FALSE,,,,,,,42,gato,Spanish,Sounds/spa_gato.mp3,2020-06-08_18h11.10.493,TranslationElicitation_eng-prolific,3.2.4,Linux aarch64,60,5eb54aacca57073d0b74f0ac,,1,0,98,38,1,97
,,,,,,,,,,,,,,,,,,,,,,,,,,,,,,,,,,,,,,,,,return,5.085000038,BIG,FALSE,,,,,,,42,gato,Spanish,Sounds/spa_gato.mp3,2020-06-08_18h11.10.493,TranslationElicitation_eng-prolific,3.2.4,Linux aarch64,60,5eb54aacca57073d0b74f0ac,5.085000038,1,0,98,38,1,97
,,,,,,,,,,,,,,,,,,,,,,,,,,,,,,,,,,,,,,,,,,,,,,,,,,,42,gato,Spanish,Sounds/spa_gato.mp3,2020-06-08_18h11.10.493,TranslationElicitation_eng-prolific,3.2.4,Linux aarch64,60,5eb54aacca57073d0b74f0ac,,1,0,98,38,1,97
,,,,,,,,,,,,,,,,,,,,,,,,,,,,,,,,,,,,,,,,,c,2.186000109,C,FALSE,,,,,,,90,pollo,Spanish,Sounds/spa_pollo.mp3,2020-06-08_18h11.10.493,TranslationElicitation_eng-prolific,3.2.4,Linux aarch64,60,5eb54aacca57073d0b74f0ac,,1,0,98,85,1,97
,,,,,,,,,,,,,,,,,,,,,,,,,,,,,,,,,,,,,,,,,h,2.278000116,CH,FALSE,,,,,,,90,pollo,Spanish,Sounds/spa_pollo.mp3,2020-06-08_18h11.10.493,TranslationElicitation_eng-prolific,3.2.4,Linux aarch64,60,5eb54aacca57073d0b74f0ac,,1,0,98,85,1,97
,,,,,,,,,,,,,,,,,,,,,,,,,,,,,,,,,,,,,,,,,i,2.47300005,CHI,FALSE,,,,,,,90,pollo,Spanish,Sounds/spa_pollo.mp3,2020-06-08_18h11.10.493,TranslationElicitation_eng-prolific,3.2.4,Linux aarch64,60,5eb54aacca57073d0b74f0ac,,1,0,98,85,1,97
,,,,,,,,,,,,,,,,,,,,,,,,,,,,,,,,,,,,,,,,,c,2.562999964,CHIC,FALSE,,,,,,,90,pollo,Spanish,Sounds/spa_pollo.mp3,2020-06-08_18h11.10.493,TranslationElicitation_eng-prolific,3.2.4,Linux aarch64,60,5eb54aacca57073d0b74f0ac,,1,0,98,85,1,97
,,,,,,,,,,,,,,,,,,,,,,,,,,,,,,,,,,,,,,,,,k,2.660000086,CHICK,FALSE,,,,,,,90,pollo,Spanish,Sounds/spa_pollo.mp3,2020-06-08_18h11.10.493,TranslationElicitation_eng-prolific,3.2.4,Linux aarch64,60,5eb54aacca57073d0b74f0ac,,1,0,98,85,1,97
,,,,,,,,,,,,,,,,,,,,,,,,,,,,,,,,,,,,,,,,,e,3.006999969,CHICKE,FALSE,,,,,,,90,pollo,Spanish,Sounds/spa_pollo.mp3,2020-06-08_18h11.10.493,TranslationElicitation_eng-prolific,3.2.4,Linux aarch64,60,5eb54aacca57073d0b74f0ac,,1,0,98,85,1,97
,,,,,,,,,,,,,,,,,,,,,,,,,,,,,,,,,,,,,,,,,n,3.078999996,CHICKEN,FALSE,,,,,,,90,pollo,Spanish,Sounds/spa_pollo.mp3,2020-06-08_18h11.10.493,TranslationElicitation_eng-prolific,3.2.4,Linux aarch64,60,5eb54aacca57073d0b74f0ac,,1,0,98,85,1,97
,,,,,,,,,,,,,,,,,,,,,,,,,,,,,,,,,,,,,,,,,return,6.740999937,CHICKEN,FALSE,,,,,,,90,pollo,Spanish,Sounds/spa_pollo.mp3,2020-06-08_18h11.10.493,TranslationElicitation_eng-prolific,3.2.4,Linux aarch64,60,5eb54aacca57073d0b74f0ac,6.740999937,1,0,98,85,1,97
,,,,,,,,,,,,,,,,,,,,,,,,,,,,,,,,,,,,,,,,,,,,,,,,,,,90,pollo,Spanish,Sounds/spa_pollo.mp3,2020-06-08_18h11.10.493,TranslationElicitation_eng-prolific,3.2.4,Linux aarch64,60,5eb54aacca57073d0b74f0ac,,1,0,98,85,1,97
,,,,,,,,,,,,,,,,,,,,,,,,,,,,,,,,,,,,,,,,,o,5.947999954,O,FALSE,,,,,,,71,ombligo,Spanish,Sounds/spa_ombligo.mp3,2020-06-08_18h11.10.493,TranslationElicitation_eng-prolific,3.2.4,Linux aarch64,60,5eb54aacca57073d0b74f0ac,,1,0,98,66,1,97
,,,,,,,,,,,,,,,,,,,,,,,,,,,,,,,,,,,,,,,,,b,7.259000063,OB,FALSE,,,,,,,71,ombligo,Spanish,Sounds/spa_ombligo.mp3,2020-06-08_18h11.10.493,TranslationElicitation_eng-prolific,3.2.4,Linux aarch64,60,5eb54aacca57073d0b74f0ac,,1,0,98,66,1,97
,,,,,,,,,,,,,,,,,,,,,,,,,,,,,,,,,,,,,,,,,l,7.568000078,OBL,FALSE,,,,,,,71,ombligo,Spanish,Sounds/spa_ombligo.mp3,2020-06-08_18h11.10.493,TranslationElicitation_eng-prolific,3.2.4,Linux aarch64,60,5eb54aacca57073d0b74f0ac,,1,0,98,66,1,97
,,,,,,,,,,,,,,,,,,,,,,,,,,,,,,,,,,,,,,,,,i,7.729000092,OBLI,FALSE,,,,,,,71,ombligo,Spanish,Sounds/spa_ombligo.mp3,2020-06-08_18h11.10.493,TranslationElicitation_eng-prolific,3.2.4,Linux aarch64,60,5eb54aacca57073d0b74f0ac,,1,0,98,66,1,97
,,,,,,,,,,,,,,,,,,,,,,,,,,,,,,,,,,,,,,,,,q,7.94900012,OBLIQ,FALSE,,,,,,,71,ombligo,Spanish,Sounds/spa_ombligo.mp3,2020-06-08_18h11.10.493,TranslationElicitation_eng-prolific,3.2.4,Linux aarch64,60,5eb54aacca57073d0b74f0ac,,1,0,98,66,1,97
,,,,,,,,,,,,,,,,,,,,,,,,,,,,,,,,,,,,,,,,,u,8.039000034,OBLIQU,FALSE,,,,,,,71,ombligo,Spanish,Sounds/spa_ombligo.mp3,2020-06-08_18h11.10.493,TranslationElicitation_eng-prolific,3.2.4,Linux aarch64,60,5eb54aacca57073d0b74f0ac,,1,0,98,66,1,97
,,,,,,,,,,,,,,,,,,,,,,,,,,,,,,,,,,,,,,,,,e,8.133000135,OBLIQUE,FALSE,,,,,,,71,ombligo,Spanish,Sounds/spa_ombligo.mp3,2020-06-08_18h11.10.493,TranslationElicitation_eng-prolific,3.2.4,Linux aarch64,60,5eb54aacca57073d0b74f0ac,,1,0,98,66,1,97
,,,,,,,,,,,,,,,,,,,,,,,,,,,,,,,,,,,,,,,,,return,8.59800005,OBLIQUE,FALSE,,,,,,,71,ombligo,Spanish,Sounds/spa_ombligo.mp3,2020-06-08_18h11.10.493,TranslationElicitation_eng-prolific,3.2.4,Linux aarch64,60,5eb54aacca57073d0b74f0ac,8.59800005,1,0,98,66,1,97
,,,,,,,,,,,,,,,,,,,,,,,,,,,,,,,,,,,,,,,,,,,,,,,,,,,71,ombligo,Spanish,Sounds/spa_ombligo.mp3,2020-06-08_18h11.10.493,TranslationElicitation_eng-prolific,3.2.4,Linux aarch64,60,5eb54aacca57073d0b74f0ac,,1,0,98,66,1,97
,,,,,,,,,,,,,,,,,,,,,,,,,,,,,,,,,,,,,,,,,o,2.50999999,O,FALSE,,,,,,,66,moto,Spanish,Sounds/spa_moto.mp3,2020-06-08_18h11.10.493,TranslationElicitation_eng-prolific,3.2.4,Linux aarch64,60,5eb54aacca57073d0b74f0ac,,1,0,98,62,1,97
,,,,,,,,,,,,,,,,,,,,,,,,,,,,,,,,,,,,,,,,,backspace,3.233999968,,TRUE,,,,,,,66,moto,Spanish,Sounds/spa_moto.mp3,2020-06-08_18h11.10.493,TranslationElicitation_eng-prolific,3.2.4,Linux aarch64,60,5eb54aacca57073d0b74f0ac,,1,0,98,62,1,97
,,,,,,,,,,,,,,,,,,,,,,,,,,,,,,,,,,,,,,,,,m,3.509000063,M,TRUE,,,,,,,66,moto,Spanish,Sounds/spa_moto.mp3,2020-06-08_18h11.10.493,TranslationElicitation_eng-prolific,3.2.4,Linux aarch64,60,5eb54aacca57073d0b74f0ac,,1,0,98,62,1,97
,,,,,,,,,,,,,,,,,,,,,,,,,,,,,,,,,,,,,,,,,o,3.684999943,MO,TRUE,,,,,,,66,moto,Spanish,Sounds/spa_moto.mp3,2020-06-08_18h11.10.493,TranslationElicitation_eng-prolific,3.2.4,Linux aarch64,60,5eb54aacca57073d0b74f0ac,,1,0,98,62,1,97
,,,,,,,,,,,,,,,,,,,,,,,,,,,,,,,,,,,,,,,,,t,3.903000116,MOT,TRUE,,,,,,,66,moto,Spanish,Sounds/spa_moto.mp3,2020-06-08_18h11.10.493,TranslationElicitation_eng-prolific,3.2.4,Linux aarch64,60,5eb54aacca57073d0b74f0ac,,1,0,98,62,1,97
,,,,,,,,,,,,,,,,,,,,,,,,,,,,,,,,,,,,,,,,,o,4.049000025,MOTO,TRUE,,,,,,,66,moto,Spanish,Sounds/spa_moto.mp3,2020-06-08_18h11.10.493,TranslationElicitation_eng-prolific,3.2.4,Linux aarch64,60,5eb54aacca57073d0b74f0ac,,1,0,98,62,1,97
,,,,,,,,,,,,,,,,,,,,,,,,,,,,,,,,,,,,,,,,,backspace,4.923000097,MOT,TRUE,,,,,,,66,moto,Spanish,Sounds/spa_moto.mp3,2020-06-08_18h11.10.493,TranslationElicitation_eng-prolific,3.2.4,Linux aarch64,60,5eb54aacca57073d0b74f0ac,,1,0,98,62,1,97
,,,,,,,,,,,,,,,,,,,,,,,,,,,,,,,,,,,,,,,,,t,5.07400012,MOTT,TRUE,,,,,,,66,moto,Spanish,Sounds/spa_moto.mp3,2020-06-08_18h11.10.493,TranslationElicitation_eng-prolific,3.2.4,Linux aarch64,60,5eb54aacca57073d0b74f0ac,,1,0,98,62,1,97
,,,,,,,,,,,,,,,,,,,,,,,,,,,,,,,,,,,,,,,,,o,5.176000118,MOTTO,TRUE,,,,,,,66,moto,Spanish,Sounds/spa_moto.mp3,2020-06-08_18h11.10.493,TranslationElicitation_eng-prolific,3.2.4,Linux aarch64,60,5eb54aacca57073d0b74f0ac,,1,0,98,62,1,97
,,,,,,,,,,,,,,,,,,,,,,,,,,,,,,,,,,,,,,,,,return,6.299999952,MOTTO,TRUE,,,,,,,66,moto,Spanish,Sounds/spa_moto.mp3,2020-06-08_18h11.10.493,TranslationElicitation_eng-prolific,3.2.4,Linux aarch64,60,5eb54aacca57073d0b74f0ac,6.299999952,1,0,98,62,1,97
,,,,,,,,,,,,,,,,,,,,,,,,,,,,,,,,,,,,,,,,,,,,,,,,,,,66,moto,Spanish,Sounds/spa_moto.mp3,2020-06-08_18h11.10.493,TranslationElicitation_eng-prolific,3.2.4,Linux aarch64,60,5eb54aacca57073d0b74f0ac,,1,0,98,62,1,97
,,,,,,,,,,,,,,,,,,,,,,,,,,,,,,,,,,,,,,,,,d,4.075000048,D,FALSE,,,,,,,33,dedo,Spanish,Sounds/spa_dedo.mp3,2020-06-08_18h11.10.493,TranslationElicitation_eng-prolific,3.2.4,Linux aarch64,60,5eb54aacca57073d0b74f0ac,,1,0,98,29,1,97
,,,,,,,,,,,,,,,,,,,,,,,,,,,,,,,,,,,,,,,,,a,4.151000023,DA,FALSE,,,,,,,33,dedo,Spanish,Sounds/spa_dedo.mp3,2020-06-08_18h11.10.493,TranslationElicitation_eng-prolific,3.2.4,Linux aarch64,60,5eb54aacca57073d0b74f0ac,,1,0,98,29,1,97
,,,,,,,,,,,,,,,,,,,,,,,,,,,,,,,,,,,,,,,,,y,4.268000126,DAY,FALSE,,,,,,,33,dedo,Spanish,Sounds/spa_dedo.mp3,2020-06-08_18h11.10.493,TranslationElicitation_eng-prolific,3.2.4,Linux aarch64,60,5eb54aacca57073d0b74f0ac,,1,0,98,29,1,97
,,,,,,,,,,,,,,,,,,,,,,,,,,,,,,,,,,,,,,,,,return,4.900000095,DAY,FALSE,,,,,,,33,dedo,Spanish,Sounds/spa_dedo.mp3,2020-06-08_18h11.10.493,TranslationElicitation_eng-prolific,3.2.4,Linux aarch64,60,5eb54aacca57073d0b74f0ac,4.900000095,1,0,98,29,1,97
,,,,,,,,,,,,,,,,,,,,,,,,,,,,,,,,,,,,,,,,,,,,,,,,,,,33,dedo,Spanish,Sounds/spa_dedo.mp3,2020-06-08_18h11.10.493,TranslationElicitation_eng-prolific,3.2.4,Linux aarch64,60,5eb54aacca57073d0b74f0ac,,1,0,98,29,1,97
,,,,,,,,,,,,,,,,,,,,,,,,,,,,,,,,,,,,,,,,,c,3.20600009,C,FALSE,,,,,,,15,caballo,Spanish,Sounds/spa_caballo.mp3,2020-06-08_18h11.10.493,TranslationElicitation_eng-prolific,3.2.4,Linux aarch64,60,5eb54aacca57073d0b74f0ac,,1,0,98,13,1,97
,,,,,,,,,,,,,,,,,,,,,,,,,,,,,,,,,,,,,,,,,a,3.295000076,CA,FALSE,,,,,,,15,caballo,Spanish,Sounds/spa_caballo.mp3,2020-06-08_18h11.10.493,TranslationElicitation_eng-prolific,3.2.4,Linux aarch64,60,5eb54aacca57073d0b74f0ac,,1,0,98,13,1,97
,,,,,,,,,,,,,,,,,,,,,,,,,,,,,,,,,,,,,,,,,b,3.617000103,CAB,FALSE,,,,,,,15,caballo,Spanish,Sounds/spa_caballo.mp3,2020-06-08_18h11.10.493,TranslationElicitation_eng-prolific,3.2.4,Linux aarch64,60,5eb54aacca57073d0b74f0ac,,1,0,98,13,1,97
,,,,,,,,,,,,,,,,,,,,,,,,,,,,,,,,,,,,,,,,,b,3.736000061,CABB,FALSE,,,,,,,15,caballo,Spanish,Sounds/spa_caballo.mp3,2020-06-08_18h11.10.493,TranslationElicitation_eng-prolific,3.2.4,Linux aarch64,60,5eb54aacca57073d0b74f0ac,,1,0,98,13,1,97
,,,,,,,,,,,,,,,,,,,,,,,,,,,,,,,,,,,,,,,,,a,3.848999977,CABBA,FALSE,,,,,,,15,caballo,Spanish,Sounds/spa_caballo.mp3,2020-06-08_18h11.10.493,TranslationElicitation_eng-prolific,3.2.4,Linux aarch64,60,5eb54aacca57073d0b74f0ac,,1,0,98,13,1,97
,,,,,,,,,,,,,,,,,,,,,,,,,,,,,,,,,,,,,,,,,g,3.967000008,CABBAG,FALSE,,,,,,,15,caballo,Spanish,Sounds/spa_caballo.mp3,2020-06-08_18h11.10.493,TranslationElicitation_eng-prolific,3.2.4,Linux aarch64,60,5eb54aacca57073d0b74f0ac,,1,0,98,13,1,97
,,,,,,,,,,,,,,,,,,,,,,,,,,,,,,,,,,,,,,,,,e,4.095000029,CABBAGE,FALSE,,,,,,,15,caballo,Spanish,Sounds/spa_caballo.mp3,2020-06-08_18h11.10.493,TranslationElicitation_eng-prolific,3.2.4,Linux aarch64,60,5eb54aacca57073d0b74f0ac,,1,0,98,13,1,97
,,,,,,,,,,,,,,,,,,,,,,,,,,,,,,,,,,,,,,,,,return,4.605999947,CABBAGE,FALSE,,,,,,,15,caballo,Spanish,Sounds/spa_caballo.mp3,2020-06-08_18h11.10.493,TranslationElicitation_eng-prolific,3.2.4,Linux aarch64,60,5eb54aacca57073d0b74f0ac,4.605999947,1,0,98,13,1,97
,,,,,,,,,,,,,,,,,,,,,,,,,,,,,,,,,,,,,,,,,,,,,,,,,,,15,caballo,Spanish,Sounds/spa_caballo.mp3,2020-06-08_18h11.10.493,TranslationElicitation_eng-prolific,3.2.4,Linux aarch64,60,5eb54aacca57073d0b74f0ac,,1,0,98,13,1,97
,,,,,,,,,,,,,,,,,,,,,,,,,,,,,,,,,,,,,,,,,b,3.65899992,B,FALSE,,,,,,,10,botella,Spanish,Sounds/spa_botella.mp3,2020-06-08_18h11.10.493,TranslationElicitation_eng-prolific,3.2.4,Linux aarch64,60,5eb54aacca57073d0b74f0ac,,1,0,98,8,1,97
,,,,,,,,,,,,,,,,,,,,,,,,,,,,,,,,,,,,,,,,,u,4.088999987,BU,FALSE,,,,,,,10,botella,Spanish,Sounds/spa_botella.mp3,2020-06-08_18h11.10.493,TranslationElicitation_eng-prolific,3.2.4,Linux aarch64,60,5eb54aacca57073d0b74f0ac,,1,0,98,8,1,97
,,,,,,,,,,,,,,,,,,,,,,,,,,,,,,,,,,,,,,,,,t,4.236999989,BUT,FALSE,,,,,,,10,botella,Spanish,Sounds/spa_botella.mp3,2020-06-08_18h11.10.493,TranslationElicitation_eng-prolific,3.2.4,Linux aarch64,60,5eb54aacca57073d0b74f0ac,,1,0,98,8,1,97
,,,,,,,,,,,,,,,,,,,,,,,,,,,,,,,,,,,,,,,,,t,4.38499999,BUTT,FALSE,,,,,,,10,botella,Spanish,Sounds/spa_botella.mp3,2020-06-08_18h11.10.493,TranslationElicitation_eng-prolific,3.2.4,Linux aarch64,60,5eb54aacca57073d0b74f0ac,,1,0,98,8,1,97
,,,,,,,,,,,,,,,,,,,,,,,,,,,,,,,,,,,,,,,,,o,4.477999926,BUTTO,FALSE,,,,,,,10,botella,Spanish,Sounds/spa_botella.mp3,2020-06-08_18h11.10.493,TranslationElicitation_eng-prolific,3.2.4,Linux aarch64,60,5eb54aacca57073d0b74f0ac,,1,0,98,8,1,97
,,,,,,,,,,,,,,,,,,,,,,,,,,,,,,,,,,,,,,,,,n,4.654000044,BUTTON,FALSE,,,,,,,10,botella,Spanish,Sounds/spa_botella.mp3,2020-06-08_18h11.10.493,TranslationElicitation_eng-prolific,3.2.4,Linux aarch64,60,5eb54aacca57073d0b74f0ac,,1,0,98,8,1,97
,,,,,,,,,,,,,,,,,,,,,,,,,,,,,,,,,,,,,,,,,return,5.09800005,BUTTON,FALSE,,,,,,,10,botella,Spanish,Sounds/spa_botella.mp3,2020-06-08_18h11.10.493,TranslationElicitation_eng-prolific,3.2.4,Linux aarch64,60,5eb54aacca57073d0b74f0ac,5.09800005,1,0,98,8,1,97
,,,,,,,,,,,,,,,,,,,,,,,,,,,,,,,,,,,,,,,,,,,,,,,,,,,10,botella,Spanish,Sounds/spa_botella.mp3,2020-06-08_18h11.10.493,TranslationElicitation_eng-prolific,3.2.4,Linux aarch64,60,5eb54aacca57073d0b74f0ac,,1,0,98,8,1,97
,,,,,,,,,,,,,,,,,,,,,,,,,,,,,,,,,,,,,,,,,b,2.830999851,B,FALSE,,,,,,,13,buho,Spanish,Sounds/spa_buho.mp3,2020-06-08_18h11.10.493,TranslationElicitation_eng-prolific,3.2.4,Linux aarch64,60,5eb54aacca57073d0b74f0ac,,1,0,98,11,1,97
,,,,,,,,,,,,,,,,,,,,,,,,,,,,,,,,,,,,,,,,,o,2.971999884,BO,FALSE,,,,,,,13,buho,Spanish,Sounds/spa_buho.mp3,2020-06-08_18h11.10.493,TranslationElicitation_eng-prolific,3.2.4,Linux aarch64,60,5eb54aacca57073d0b74f0ac,,1,0,98,11,1,97
,,,,,,,,,,,,,,,,,,,,,,,,,,,,,,,,,,,,,,,,,o,3.110999823,BOO,FALSE,,,,,,,13,buho,Spanish,Sounds/spa_buho.mp3,2020-06-08_18h11.10.493,TranslationElicitation_eng-prolific,3.2.4,Linux aarch64,60,5eb54aacca57073d0b74f0ac,,1,0,98,11,1,97
,,,,,,,,,,,,,,,,,,,,,,,,,,,,,,,,,,,,,,,,,return,3.780999899,BOO,FALSE,,,,,,,13,buho,Spanish,Sounds/spa_buho.mp3,2020-06-08_18h11.10.493,TranslationElicitation_eng-prolific,3.2.4,Linux aarch64,60,5eb54aacca57073d0b74f0ac,3.780999899,1,0,98,11,1,97
,,,,,,,,,,,,,,,,,,,,,,,,,,,,,,,,,,,,,,,,,,,,,,,,,,,13,buho,Spanish,Sounds/spa_buho.mp3,2020-06-08_18h11.10.493,TranslationElicitation_eng-prolific,3.2.4,Linux aarch64,60,5eb54aacca57073d0b74f0ac,,1,0,98,11,1,97
,,,,,,,,,,,,,,,,,,,,,,,,,,,,,,,,,,,,,,,,,s,4.635999918,S,FALSE,,,,,,,2,avestruz,Spanish,Sounds/spa_avestruz.mp3,2020-06-08_18h11.10.493,TranslationElicitation_eng-prolific,3.2.4,Linux aarch64,60,5eb54aacca57073d0b74f0ac,,1,0,98,0,1,97
,,,,,,,,,,,,,,,,,,,,,,,,,,,,,,,,,,,,,,,,,t,4.827000141,ST,FALSE,,,,,,,2,avestruz,Spanish,Sounds/spa_avestruz.mp3,2020-06-08_18h11.10.493,TranslationElicitation_eng-prolific,3.2.4,Linux aarch64,60,5eb54aacca57073d0b74f0ac,,1,0,98,0,1,97
,,,,,,,,,,,,,,,,,,,,,,,,,,,,,,,,,,,,,,,,,o,5.002000093,STO,FALSE,,,,,,,2,avestruz,Spanish,Sounds/spa_avestruz.mp3,2020-06-08_18h11.10.493,TranslationElicitation_eng-prolific,3.2.4,Linux aarch64,60,5eb54aacca57073d0b74f0ac,,1,0,98,0,1,97
,,,,,,,,,,,,,,,,,,,,,,,,,,,,,,,,,,,,,,,,,o,5.138999939,STOO,FALSE,,,,,,,2,avestruz,Spanish,Sounds/spa_avestruz.mp3,2020-06-08_18h11.10.493,TranslationElicitation_eng-prolific,3.2.4,Linux aarch64,60,5eb54aacca57073d0b74f0ac,,1,0,98,0,1,97
,,,,,,,,,,,,,,,,,,,,,,,,,,,,,,,,,,,,,,,,,l,5.33100009,STOOL,FALSE,,,,,,,2,avestruz,Spanish,Sounds/spa_avestruz.mp3,2020-06-08_18h11.10.493,TranslationElicitation_eng-prolific,3.2.4,Linux aarch64,60,5eb54aacca57073d0b74f0ac,,1,0,98,0,1,97
,,,,,,,,,,,,,,,,,,,,,,,,,,,,,,,,,,,,,,,,,return,5.779999971,STOOL,FALSE,,,,,,,2,avestruz,Spanish,Sounds/spa_avestruz.mp3,2020-06-08_18h11.10.493,TranslationElicitation_eng-prolific,3.2.4,Linux aarch64,60,5eb54aacca57073d0b74f0ac,5.779999971,1,0,98,0,1,97
,,,,,,,,,,,,,,,,,,,,,,,,,,,,,,,,,,,,,,,,,,,,,,,,,,,2,avestruz,Spanish,Sounds/spa_avestruz.mp3,2020-06-08_18h11.10.493,TranslationElicitation_eng-prolific,3.2.4,Linux aarch64,60,5eb54aacca57073d0b74f0ac,,1,0,98,0,1,97
,,,,,,,,,,,,,,,,,,,,,,,,,,,,,,,,,,,,,,,,,b,3.430000067,B,FALSE,,,,,,,9,boli,Spanish,Sounds/spa_boli.mp3,2020-06-08_18h11.10.493,TranslationElicitation_eng-prolific,3.2.4,Linux aarch64,60,5eb54aacca57073d0b74f0ac,,1,0,98,7,1,97
,,,,,,,,,,,,,,,,,,,,,,,,,,,,,,,,,,,,,,,,,a,3.603000164,BA,FALSE,,,,,,,9,boli,Spanish,Sounds/spa_boli.mp3,2020-06-08_18h11.10.493,TranslationElicitation_eng-prolific,3.2.4,Linux aarch64,60,5eb54aacca57073d0b74f0ac,,1,0,98,7,1,97
,,,,,,,,,,,,,,,,,,,,,,,,,,,,,,,,,,,,,,,,,l,3.855000019,BAL,FALSE,,,,,,,9,boli,Spanish,Sounds/spa_boli.mp3,2020-06-08_18h11.10.493,TranslationElicitation_eng-prolific,3.2.4,Linux aarch64,60,5eb54aacca57073d0b74f0ac,,1,0,98,7,1,97
,,,,,,,,,,,,,,,,,,,,,,,,,,,,,,,,,,,,,,,,,l,3.992000103,BALL,FALSE,,,,,,,9,boli,Spanish,Sounds/spa_boli.mp3,2020-06-08_18h11.10.493,TranslationElicitation_eng-prolific,3.2.4,Linux aarch64,60,5eb54aacca57073d0b74f0ac,,1,0,98,7,1,97
,,,,,,,,,,,,,,,,,,,,,,,,,,,,,,,,,,,,,,,,,backspace,5.220999956,BAL,TRUE,,,,,,,9,boli,Spanish,Sounds/spa_boli.mp3,2020-06-08_18h11.10.493,TranslationElicitation_eng-prolific,3.2.4,Linux aarch64,60,5eb54aacca57073d0b74f0ac,,1,0,98,7,1,97
,,,,,,,,,,,,,,,,,,,,,,,,,,,,,,,,,,,,,,,,,i,5.587000132,BALI,TRUE,,,,,,,9,boli,Spanish,Sounds/spa_boli.mp3,2020-06-08_18h11.10.493,TranslationElicitation_eng-prolific,3.2.4,Linux aarch64,60,5eb54aacca57073d0b74f0ac,,1,0,98,7,1,97
,,,,,,,,,,,,,,,,,,,,,,,,,,,,,,,,,,,,,,,,,return,6.89199996,BALI,TRUE,,,,,,,9,boli,Spanish,Sounds/spa_boli.mp3,2020-06-08_18h11.10.493,TranslationElicitation_eng-prolific,3.2.4,Linux aarch64,60,5eb54aacca57073d0b74f0ac,6.89199996,1,0,98,7,1,97
,,,,,,,,,,,,,,,,,,,,,,,,,,,,,,,,,,,,,,,,,,,,,,,,,,,9,boli,Spanish,Sounds/spa_boli.mp3,2020-06-08_18h11.10.493,TranslationElicitation_eng-prolific,3.2.4,Linux aarch64,60,5eb54aacca57073d0b74f0ac,,1,0,98,7,1,97
,,,,,,,,,,,,,,,,,,,,,,,,,,,,,,,,,,,,,,,,,m,1.821000099,M,FALSE,,,,,,,67,muneca,Spanish,Sounds/spa_muneca.mp3,2020-06-08_18h11.10.493,TranslationElicitation_eng-prolific,3.2.4,Linux aarch64,60,5eb54aacca57073d0b74f0ac,,1,0,98,63,1,97
,,,,,,,,,,,,,,,,,,,,,,,,,,,,,,,,,,,,,,,,,o,1.980000019,MO,FALSE,,,,,,,67,muneca,Spanish,Sounds/spa_muneca.mp3,2020-06-08_18h11.10.493,TranslationElicitation_eng-prolific,3.2.4,Linux aarch64,60,5eb54aacca57073d0b74f0ac,,1,0,98,63,1,97
,,,,,,,,,,,,,,,,,,,,,,,,,,,,,,,,,,,,,,,,,e,2.164000034,MOE,FALSE,,,,,,,67,muneca,Spanish,Sounds/spa_muneca.mp3,2020-06-08_18h11.10.493,TranslationElicitation_eng-prolific,3.2.4,Linux aarch64,60,5eb54aacca57073d0b74f0ac,,1,0,98,63,1,97
,,,,,,,,,,,,,,,,,,,,,,,,,,,,,,,,,,,,,,,,,n,2.219000101,MOEN,FALSE,,,,,,,67,muneca,Spanish,Sounds/spa_muneca.mp3,2020-06-08_18h11.10.493,TranslationElicitation_eng-prolific,3.2.4,Linux aarch64,60,5eb54aacca57073d0b74f0ac,,1,0,98,63,1,97
