consentKey.keys,consentKey.rt,languageL1Key.keys,languageL1Key.rt,languageL2,languageL2OralKey.keys,languageL2OralKey.rt,languageL2WrittenKey.keys,languageL2WrittenKey.rt,languageL3OralKey.keys,languageL3OralKey.rt,languageL3WrittenKey.keys,languageL3WrittenKey.rt,languageCatalanOralKey.keys,languageCatalanOralKey.rt,languageCatalanWrittenKey.keys,languageCatalanWrittenKey.rt,languageCatalanTimeKey.keys,languageCatalanTimeKey.rt,languageSpanishOralKey.keys,languageSpanishOralKey.rt,languageSpanishWrittenKey.keys,languageSpanishWrittenKey.rt,languageSpanishTimeKey.keys,languageSpanishTimeKey.rt,age,demoSexKey.keys,demoSexKey.rt,demoEducationKey.keys,demoEducationKey.rt,city,demoVisionKey.keys,demoVisionKey.rt,demoLanguageKey.keys,demoLanguageKey.rt,setupLocationKey.keys,setupLocationKey.rt,setupNoiseKey.keys,setupNoiseKey.rt,instructionsKeys.keys,instructionsKeys.rt,keyPressed,keyPressTime,inputText,error,trialsPracticeSpanish.thisRepN,trialsPracticeSpanish.thisTrialN,trialsPracticeSpanish.thisN,trialsPracticeSpanish.thisIndex,trialsPracticeSpanish.ran,trialsPracticeSpanish.order,trial_id,word,test_language,soundfile,date,expName,psychopyVersion,OS,frameRate,participant,trialOffset,trialsSpanish.thisRepN,trialsSpanish.thisTrialN,trialsSpanish.thisN,trialsSpanish.thisIndex,trialsSpanish.ran,trialsSpanish.order
space,1.11500001,e,4.277999878,,,,,,,,,,1,6.979000092,1,4.162999868,1,4.651000023,1,6.050000191,1,4.148999929,1,2.967999935,23,m,1.769000053,4,4.016000032,LSHIFTBERKSHIRE,y,5.148000002,n,1.812000036,1,2.872999907,2,4.246999979,space,17.58400011,space,6.667000055, ,FALSE,1,0,5,4,1,4,96,tigre,Spanish,Sounds/spa_tigre.mp3,2020-06-25_09h14.55.725,TranslationElicitation_eng-prolific-spa,3.2.4,MacIntel,60,5eb9b011e926960deb4d6d91,,,,,,,
,,,,,,,,,,,,,,,,,,,,,,,,,,,,,,,,,,,,,,,,,return,11.6500001, ,FALSE,1,0,5,4,1,4,96,tigre,Spanish,Sounds/spa_tigre.mp3,2020-06-25_09h14.55.725,TranslationElicitation_eng-prolific-spa,3.2.4,MacIntel,60,5eb9b011e926960deb4d6d91,11.6500001,,,,,,
,,,,,,,,,,,,,,,,,,,,,,,,,,,,,,,,,,,,,,,,,,,,,1,0,5,4,1,4,96,tigre,Spanish,Sounds/spa_tigre.mp3,2020-06-25_09h14.55.725,TranslationElicitation_eng-prolific-spa,3.2.4,MacIntel,60,5eb9b011e926960deb4d6d91,,,,,,,
,,,,,,,,,,,,,,,,,,,,,,,,,,,,,,,,,,,,,,,,,return,1.884000063,,FALSE,1,0,5,2,1,4,26,chaqueta,Spanish,Sounds/spa_chaqueta.mp3,2020-06-25_09h14.55.725,TranslationElicitation_eng-prolific-spa,3.2.4,MacIntel,60,5eb9b011e926960deb4d6d91,1.884000063,,,,,,
,,,,,,,,,,,,,,,,,,,,,,,,,,,,,,,,,,,,,,,,,,,,,1,0,5,2,1,4,26,chaqueta,Spanish,Sounds/spa_chaqueta.mp3,2020-06-25_09h14.55.725,TranslationElicitation_eng-prolific-spa,3.2.4,MacIntel,60,5eb9b011e926960deb4d6d91,,,,,,,
,,,,,,,,,,,,,,,,,,,,,,,,,,,,,,,,,,,,,,,,,return,2.099000216,,FALSE,1,0,5,3,1,4,70,ola,Spanish,Sounds/spa_ola.mp3,2020-06-25_09h14.55.725,TranslationElicitation_eng-prolific-spa,3.2.4,MacIntel,60,5eb9b011e926960deb4d6d91,2.099000216,,,,,,
,,,,,,,,,,,,,,,,,,,,,,,,,,,,,,,,,,,,,,,,,,,,,1,0,5,3,1,4,70,ola,Spanish,Sounds/spa_ola.mp3,2020-06-25_09h14.55.725,TranslationElicitation_eng-prolific-spa,3.2.4,MacIntel,60,5eb9b011e926960deb4d6d91,,,,,,,
,,,,,,,,,,,,,,,,,,,,,,,,,,,,,,,,,,,,,,,,,return,2.483999968,,FALSE,1,0,5,0,1,4,1,arbol,Spanish,Sounds/spa_arbol.mp3,2020-06-25_09h14.55.725,TranslationElicitation_eng-prolific-spa,3.2.4,MacIntel,60,5eb9b011e926960deb4d6d91,2.483999968,,,,,,
,,,,,,,,,,,,,,,,,,,,,,,,,,,,,,,,,,,,,,,,,,,,,1,0,5,0,1,4,1,arbol,Spanish,Sounds/spa_arbol.mp3,2020-06-25_09h14.55.725,TranslationElicitation_eng-prolific-spa,3.2.4,MacIntel,60,5eb9b011e926960deb4d6d91,,,,,,,
,,,,,,,,,,,,,,,,,,,,,,,,,,,,,,,,,,,,,,,,,return,8.101000071,,FALSE,1,0,5,1,1,4,30,corona,Spanish,Sounds/spa_corona.mp3,2020-06-25_09h14.55.725,TranslationElicitation_eng-prolific-spa,3.2.4,MacIntel,60,5eb9b011e926960deb4d6d91,8.101000071,,,,,,
,,,,,,,,,,,,,,,,,,,,,,,,,,,,,,,,,,,,,,,,,,,,,1,0,5,1,1,4,30,corona,Spanish,Sounds/spa_corona.mp3,2020-06-25_09h14.55.725,TranslationElicitation_eng-prolific-spa,3.2.4,MacIntel,60,5eb9b011e926960deb4d6d91,,,,,,,
,,,,,,,,,,,,,,,,,,,,,,,,,,,,,,,,,,,,,,,,,return,2.465000153,,FALSE,,,,,,,64,moneda,Spanish,Sounds/spa_moneda.mp3,2020-06-25_09h14.55.725,TranslationElicitation_eng-prolific-spa,3.2.4,MacIntel,60,5eb9b011e926960deb4d6d91,2.465000153,1,0,98,60,1,97
,,,,,,,,,,,,,,,,,,,,,,,,,,,,,,,,,,,,,,,,,,,,,,,,,,,64,moneda,Spanish,Sounds/spa_moneda.mp3,2020-06-25_09h14.55.725,TranslationElicitation_eng-prolific-spa,3.2.4,MacIntel,60,5eb9b011e926960deb4d6d91,,1,0,98,60,1,97
,,,,,,,,,,,,,,,,,,,,,,,,,,,,,,,,,,,,,,,,,return,11.50099993,,FALSE,,,,,,,87,platano,Spanish,Sounds/spa_platano.mp3,2020-06-25_09h14.55.725,TranslationElicitation_eng-prolific-spa,3.2.4,MacIntel,60,5eb9b011e926960deb4d6d91,11.50099993,1,0,98,82,1,97
,,,,,,,,,,,,,,,,,,,,,,,,,,,,,,,,,,,,,,,,,,,,,,,,,,,87,platano,Spanish,Sounds/spa_platano.mp3,2020-06-25_09h14.55.725,TranslationElicitation_eng-prolific-spa,3.2.4,MacIntel,60,5eb9b011e926960deb4d6d91,,1,0,98,82,1,97
,,,,,,,,,,,,,,,,,,,,,,,,,,,,,,,,,,,,,,,,,return,5.167000055,,FALSE,,,,,,,63,mesa,Spanish,Sounds/spa_mesa.mp3,2020-06-25_09h14.55.725,TranslationElicitation_eng-prolific-spa,3.2.4,MacIntel,60,5eb9b011e926960deb4d6d91,5.167000055,1,0,98,59,1,97
,,,,,,,,,,,,,,,,,,,,,,,,,,,,,,,,,,,,,,,,,,,,,,,,,,,63,mesa,Spanish,Sounds/spa_mesa.mp3,2020-06-25_09h14.55.725,TranslationElicitation_eng-prolific-spa,3.2.4,MacIntel,60,5eb9b011e926960deb4d6d91,,1,0,98,59,1,97
,,,,,,,,,,,,,,,,,,,,,,,,,,,,,,,,,,,,,,,,,return,2.536000013,,FALSE,,,,,,,59,mano,Spanish,Sounds/spa_mano.mp3,2020-06-25_09h14.55.725,TranslationElicitation_eng-prolific-spa,3.2.4,MacIntel,60,5eb9b011e926960deb4d6d91,2.536000013,1,0,98,55,1,97
,,,,,,,,,,,,,,,,,,,,,,,,,,,,,,,,,,,,,,,,,,,,,,,,,,,59,mano,Spanish,Sounds/spa_mano.mp3,2020-06-25_09h14.55.725,TranslationElicitation_eng-prolific-spa,3.2.4,MacIntel,60,5eb9b011e926960deb4d6d91,,1,0,98,55,1,97
,,,,,,,,,,,,,,,,,,,,,,,,,,,,,,,,,,,,,,,,,return,2.350999832,,FALSE,,,,,,,103,zanahoria,Spanish,Sounds/spa_zanahoria.mp3,2020-06-25_09h14.55.725,TranslationElicitation_eng-prolific-spa,3.2.4,MacIntel,60,5eb9b011e926960deb4d6d91,2.350999832,1,0,98,97,1,97
,,,,,,,,,,,,,,,,,,,,,,,,,,,,,,,,,,,,,,,,,,,,,,,,,,,103,zanahoria,Spanish,Sounds/spa_zanahoria.mp3,2020-06-25_09h14.55.725,TranslationElicitation_eng-prolific-spa,3.2.4,MacIntel,60,5eb9b011e926960deb4d6d91,,1,0,98,97,1,97
,,,,,,,,,,,,,,,,,,,,,,,,,,,,,,,,,,,,,,,,,return,2.434000015,,FALSE,,,,,,,25,cesta,Spanish,Sounds/spa_cesta.mp3,2020-06-25_09h14.55.725,TranslationElicitation_eng-prolific-spa,3.2.4,MacIntel,60,5eb9b011e926960deb4d6d91,2.434000015,1,0,98,23,1,97
,,,,,,,,,,,,,,,,,,,,,,,,,,,,,,,,,,,,,,,,,,,,,,,,,,,25,cesta,Spanish,Sounds/spa_cesta.mp3,2020-06-25_09h14.55.725,TranslationElicitation_eng-prolific-spa,3.2.4,MacIntel,60,5eb9b011e926960deb4d6d91,,1,0,98,23,1,97
,,,,,,,,,,,,,,,,,,,,,,,,,,,,,,,,,,,,,,,,,return,2.615999937,,FALSE,,,,,,,8,bol,Spanish,Sounds/spa_bol.mp3,2020-06-25_09h14.55.725,TranslationElicitation_eng-prolific-spa,3.2.4,MacIntel,60,5eb9b011e926960deb4d6d91,2.615999937,1,0,98,6,1,97
,,,,,,,,,,,,,,,,,,,,,,,,,,,,,,,,,,,,,,,,,,,,,,,,,,,8,bol,Spanish,Sounds/spa_bol.mp3,2020-06-25_09h14.55.725,TranslationElicitation_eng-prolific-spa,3.2.4,MacIntel,60,5eb9b011e926960deb4d6d91,,1,0,98,6,1,97
,,,,,,,,,,,,,,,,,,,,,,,,,,,,,,,,,,,,,,,,,return,3.217999935,,FALSE,,,,,,,75,pan,Spanish,Sounds/spa_pan.mp3,2020-06-25_09h14.55.725,TranslationElicitation_eng-prolific-spa,3.2.4,MacIntel,60,5eb9b011e926960deb4d6d91,3.217999935,1,0,98,70,1,97
,,,,,,,,,,,,,,,,,,,,,,,,,,,,,,,,,,,,,,,,,,,,,,,,,,,75,pan,Spanish,Sounds/spa_pan.mp3,2020-06-25_09h14.55.725,TranslationElicitation_eng-prolific-spa,3.2.4,MacIntel,60,5eb9b011e926960deb4d6d91,,1,0,98,70,1,97
,,,,,,,,,,,,,,,,,,,,,,,,,,,,,,,,,,,,,,,,,return,2.281999826,,FALSE,,,,,,,83,pez,Spanish,Sounds/spa_pez.mp3,2020-06-25_09h14.55.725,TranslationElicitation_eng-prolific-spa,3.2.4,MacIntel,60,5eb9b011e926960deb4d6d91,2.281999826,1,0,98,78,1,97
,,,,,,,,,,,,,,,,,,,,,,,,,,,,,,,,,,,,,,,,,,,,,,,,,,,83,pez,Spanish,Sounds/spa_pez.mp3,2020-06-25_09h14.55.725,TranslationElicitation_eng-prolific-spa,3.2.4,MacIntel,60,5eb9b011e926960deb4d6d91,,1,0,98,78,1,97
,,,,,,,,,,,,,,,,,,,,,,,,,,,,,,,,,,,,,,,,,return,6.367000103,,FALSE,,,,,,,48,gusano,Spanish,Sounds/spa_gusano.mp3,2020-06-25_09h14.55.725,TranslationElicitation_eng-prolific-spa,3.2.4,MacIntel,60,5eb9b011e926960deb4d6d91,6.367000103,1,0,98,44,1,97
,,,,,,,,,,,,,,,,,,,,,,,,,,,,,,,,,,,,,,,,,,,,,,,,,,,48,gusano,Spanish,Sounds/spa_gusano.mp3,2020-06-25_09h14.55.725,TranslationElicitation_eng-prolific-spa,3.2.4,MacIntel,60,5eb9b011e926960deb4d6d91,,1,0,98,44,1,97
,,,,,,,,,,,,,,,,,,,,,,,,,,,,,,,,,,,,,,,,,return,2.532999992,,FALSE,,,,,,,85,pierna,Spanish,Sounds/spa_pierna.mp3,2020-06-25_09h14.55.725,TranslationElicitation_eng-prolific-spa,3.2.4,MacIntel,60,5eb9b011e926960deb4d6d91,2.532999992,1,0,98,80,1,97
,,,,,,,,,,,,,,,,,,,,,,,,,,,,,,,,,,,,,,,,,,,,,,,,,,,85,pierna,Spanish,Sounds/spa_pierna.mp3,2020-06-25_09h14.55.725,TranslationElicitation_eng-prolific-spa,3.2.4,MacIntel,60,5eb9b011e926960deb4d6d91,,1,0,98,80,1,97
,,,,,,,,,,,,,,,,,,,,,,,,,,,,,,,,,,,,,,,,,return,6.282999992,,FALSE,,,,,,,11,boton,Spanish,Sounds/spa_boton.mp3,2020-06-25_09h14.55.725,TranslationElicitation_eng-prolific-spa,3.2.4,MacIntel,60,5eb9b011e926960deb4d6d91,6.282999992,1,0,98,9,1,97
,,,,,,,,,,,,,,,,,,,,,,,,,,,,,,,,,,,,,,,,,,,,,,,,,,,11,boton,Spanish,Sounds/spa_boton.mp3,2020-06-25_09h14.55.725,TranslationElicitation_eng-prolific-spa,3.2.4,MacIntel,60,5eb9b011e926960deb4d6d91,,1,0,98,9,1,97
,,,,,,,,,,,,,,,,,,,,,,,,,,,,,,,,,,,,,,,,,return,5.266000032,,FALSE,,,,,,,22,cepillo,Spanish,Sounds/spa_cepillo.mp3,2020-06-25_09h14.55.725,TranslationElicitation_eng-prolific-spa,3.2.4,MacIntel,60,5eb9b011e926960deb4d6d91,5.266000032,1,0,98,20,1,97
,,,,,,,,,,,,,,,,,,,,,,,,,,,,,,,,,,,,,,,,,,,,,,,,,,,22,cepillo,Spanish,Sounds/spa_cepillo.mp3,2020-06-25_09h14.55.725,TranslationElicitation_eng-prolific-spa,3.2.4,MacIntel,60,5eb9b011e926960deb4d6d91,,1,0,98,20,1,97
,,,,,,,,,,,,,,,,,,,,,,,,,,,,,,,,,,,,,,,,,return,2.753000021,,FALSE,,,,,,,32,cuchara,Spanish,Sounds/spa_cuchara.mp3,2020-06-25_09h14.55.725,TranslationElicitation_eng-prolific-spa,3.2.4,MacIntel,60,5eb9b011e926960deb4d6d91,2.753000021,1,0,98,28,1,97
,,,,,,,,,,,,,,,,,,,,,,,,,,,,,,,,,,,,,,,,,,,,,,,,,,,32,cuchara,Spanish,Sounds/spa_cuchara.mp3,2020-06-25_09h14.55.725,TranslationElicitation_eng-prolific-spa,3.2.4,MacIntel,60,5eb9b011e926960deb4d6d91,,1,0,98,28,1,97
,,,,,,,,,,,,,,,,,,,,,,,,,,,,,,,,,,,,,,,,,return,4.299000025,,FALSE,,,,,,,100,toro,Spanish,Sounds/spa_toro.mp3,2020-06-25_09h14.55.725,TranslationElicitation_eng-prolific-spa,3.2.4,MacIntel,60,5eb9b011e926960deb4d6d91,4.299000025,1,0,98,94,1,97
,,,,,,,,,,,,,,,,,,,,,,,,,,,,,,,,,,,,,,,,,,,,,,,,,,,100,toro,Spanish,Sounds/spa_toro.mp3,2020-06-25_09h14.55.725,TranslationElicitation_eng-prolific-spa,3.2.4,MacIntel,60,5eb9b011e926960deb4d6d91,,1,0,98,94,1,97
,,,,,,,,,,,,,,,,,,,,,,,,,,,,,,,,,,,,,,,,,return,3.133000135,,FALSE,,,,,,,76,panal,Spanish,Sounds/spa_panal.mp3,2020-06-25_09h14.55.725,TranslationElicitation_eng-prolific-spa,3.2.4,MacIntel,60,5eb9b011e926960deb4d6d91,3.133000135,1,0,98,71,1,97
,,,,,,,,,,,,,,,,,,,,,,,,,,,,,,,,,,,,,,,,,,,,,,,,,,,76,panal,Spanish,Sounds/spa_panal.mp3,2020-06-25_09h14.55.725,TranslationElicitation_eng-prolific-spa,3.2.4,MacIntel,60,5eb9b011e926960deb4d6d91,,1,0,98,71,1,97
,,,,,,,,,,,,,,,,,,,,,,,,,,,,,,,,,,,,,,,,,return,6.406000137,,FALSE,,,,,,,56,libro,Spanish,Sounds/spa_libro.mp3,2020-06-25_09h14.55.725,TranslationElicitation_eng-prolific-spa,3.2.4,MacIntel,60,5eb9b011e926960deb4d6d91,6.406000137,1,0,98,52,1,97
,,,,,,,,,,,,,,,,,,,,,,,,,,,,,,,,,,,,,,,,,,,,,,,,,,,56,libro,Spanish,Sounds/spa_libro.mp3,2020-06-25_09h14.55.725,TranslationElicitation_eng-prolific-spa,3.2.4,MacIntel,60,5eb9b011e926960deb4d6d91,,1,0,98,52,1,97
,,,,,,,,,,,,,,,,,,,,,,,,,,,,,,,,,,,,,,,,,return,2.552000046,,FALSE,,,,,,,19,camiseta,Spanish,Sounds/spa_camiseta.mp3,2020-06-25_09h14.55.725,TranslationElicitation_eng-prolific-spa,3.2.4,MacIntel,60,5eb9b011e926960deb4d6d91,2.552000046,1,0,98,17,1,97
,,,,,,,,,,,,,,,,,,,,,,,,,,,,,,,,,,,,,,,,,,,,,,,,,,,19,camiseta,Spanish,Sounds/spa_camiseta.mp3,2020-06-25_09h14.55.725,TranslationElicitation_eng-prolific-spa,3.2.4,MacIntel,60,5eb9b011e926960deb4d6d91,,1,0,98,17,1,97
,,,,,,,,,,,,,,,,,,,,,,,,,,,,,,,,,,,,,,,,,return,5.080999851,,FALSE,,,,,,,21,cebra,Spanish,Sounds/spa_cebra.mp3,2020-06-25_09h14.55.725,TranslationElicitation_eng-prolific-spa,3.2.4,MacIntel,60,5eb9b011e926960deb4d6d91,5.080999851,1,0,98,19,1,97
,,,,,,,,,,,,,,,,,,,,,,,,,,,,,,,,,,,,,,,,,,,,,,,,,,,21,cebra,Spanish,Sounds/spa_cebra.mp3,2020-06-25_09h14.55.725,TranslationElicitation_eng-prolific-spa,3.2.4,MacIntel,60,5eb9b011e926960deb4d6d91,,1,0,98,19,1,97
,,,,,,,,,,,,,,,,,,,,,,,,,,,,,,,,,,,,,,,,,backspace,1.765000105,,TRUE,,,,,,,7,bocadillo,Spanish,Sounds/spa_bocadillo.mp3,2020-06-25_09h14.55.725,TranslationElicitation_eng-prolific-spa,3.2.4,MacIntel,60,5eb9b011e926960deb4d6d91,,1,0,98,5,1,97
,,,,,,,,,,,,,,,,,,,,,,,,,,,,,,,,,,,,,,,,,backspace,3.381999969,,TRUE,,,,,,,7,bocadillo,Spanish,Sounds/spa_bocadillo.mp3,2020-06-25_09h14.55.725,TranslationElicitation_eng-prolific-spa,3.2.4,MacIntel,60,5eb9b011e926960deb4d6d91,,1,0,98,5,1,97
,,,,,,,,,,,,,,,,,,,,,,,,,,,,,,,,,,,,,,,,,backspace,4.282999992,,TRUE,,,,,,,7,bocadillo,Spanish,Sounds/spa_bocadillo.mp3,2020-06-25_09h14.55.725,TranslationElicitation_eng-prolific-spa,3.2.4,MacIntel,60,5eb9b011e926960deb4d6d91,,1,0,98,5,1,97
,,,,,,,,,,,,,,,,,,,,,,,,,,,,,,,,,,,,,,,,,return,5.048000097,,TRUE,,,,,,,7,bocadillo,Spanish,Sounds/spa_bocadillo.mp3,2020-06-25_09h14.55.725,TranslationElicitation_eng-prolific-spa,3.2.4,MacIntel,60,5eb9b011e926960deb4d6d91,5.048000097,1,0,98,5,1,97
,,,,,,,,,,,,,,,,,,,,,,,,,,,,,,,,,,,,,,,,,,,,,,,,,,,7,bocadillo,Spanish,Sounds/spa_bocadillo.mp3,2020-06-25_09h14.55.725,TranslationElicitation_eng-prolific-spa,3.2.4,MacIntel,60,5eb9b011e926960deb4d6d91,,1,0,98,5,1,97
,,,,,,,,,,,,,,,,,,,,,,,,,,,,,,,,,,,,,,,,,return,2.365999937,,FALSE,,,,,,,29,coche,Spanish,Sounds/spa_coche.mp3,2020-06-25_09h14.55.725,TranslationElicitation_eng-prolific-spa,3.2.4,MacIntel,60,5eb9b011e926960deb4d6d91,2.365999937,1,0,98,26,1,97
,,,,,,,,,,,,,,,,,,,,,,,,,,,,,,,,,,,,,,,,,,,,,,,,,,,29,coche,Spanish,Sounds/spa_coche.mp3,2020-06-25_09h14.55.725,TranslationElicitation_eng-prolific-spa,3.2.4,MacIntel,60,5eb9b011e926960deb4d6d91,,1,0,98,26,1,97
,,,,,,,,,,,,,,,,,,,,,,,,,,,,,,,,,,,,,,,,,return,2.066999912,,FALSE,,,,,,,34,ensalada,Spanish,Sounds/spa_ensalada.mp3,2020-06-25_09h14.55.725,TranslationElicitation_eng-prolific-spa,3.2.4,MacIntel,60,5eb9b011e926960deb4d6d91,2.066999912,1,0,98,30,1,97
,,,,,,,,,,,,,,,,,,,,,,,,,,,,,,,,,,,,,,,,,,,,,,,,,,,34,ensalada,Spanish,Sounds/spa_ensalada.mp3,2020-06-25_09h14.55.725,TranslationElicitation_eng-prolific-spa,3.2.4,MacIntel,60,5eb9b011e926960deb4d6d91,,1,0,98,30,1,97
,,,,,,,,,,,,,,,,,,,,,,,,,,,,,,,,,,,,,,,,,return,2.632000208,,FALSE,,,,,,,18,camisa,Spanish,Sounds/spa_camisa.mp3,2020-06-25_09h14.55.725,TranslationElicitation_eng-prolific-spa,3.2.4,MacIntel,60,5eb9b011e926960deb4d6d91,2.632000208,1,0,98,16,1,97
,,,,,,,,,,,,,,,,,,,,,,,,,,,,,,,,,,,,,,,,,,,,,,,,,,,18,camisa,Spanish,Sounds/spa_camisa.mp3,2020-06-25_09h14.55.725,TranslationElicitation_eng-prolific-spa,3.2.4,MacIntel,60,5eb9b011e926960deb4d6d91,,1,0,98,16,1,97
,,,,,,,,,,,,,,,,,,,,,,,,,,,,,,,,,,,,,,,,,return,1.998999834,,FALSE,,,,,,,46,grifo,Spanish,Sounds/spa_grifo.mp3,2020-06-25_09h14.55.725,TranslationElicitation_eng-prolific-spa,3.2.4,MacIntel,60,5eb9b011e926960deb4d6d91,1.998999834,1,0,98,42,1,97
,,,,,,,,,,,,,,,,,,,,,,,,,,,,,,,,,,,,,,,,,,,,,,,,,,,46,grifo,Spanish,Sounds/spa_grifo.mp3,2020-06-25_09h14.55.725,TranslationElicitation_eng-prolific-spa,3.2.4,MacIntel,60,5eb9b011e926960deb4d6d91,,1,0,98,42,1,97
,,,,,,,,,,,,,,,,,,,,,,,,,,,,,,,,,,,,,,,,,return,3.365999937,,FALSE,,,,,,,67,muneca,Spanish,Sounds/spa_muneca.mp3,2020-06-25_09h14.55.725,TranslationElicitation_eng-prolific-spa,3.2.4,MacIntel,60,5eb9b011e926960deb4d6d91,3.365999937,1,0,98,63,1,97
,,,,,,,,,,,,,,,,,,,,,,,,,,,,,,,,,,,,,,,,,,,,,,,,,,,67,muneca,Spanish,Sounds/spa_muneca.mp3,2020-06-25_09h14.55.725,TranslationElicitation_eng-prolific-spa,3.2.4,MacIntel,60,5eb9b011e926960deb4d6d91,,1,0,98,63,1,97
,,,,,,,,,,,,,,,,,,,,,,,,,,,,,,,,,,,,,,,,,return,2.69900012,,FALSE,,,,,,,42,gato,Spanish,Sounds/spa_gato.mp3,2020-06-25_09h14.55.725,TranslationElicitation_eng-prolific-spa,3.2.4,MacIntel,60,5eb9b011e926960deb4d6d91,2.69900012,1,0,98,38,1,97
,,,,,,,,,,,,,,,,,,,,,,,,,,,,,,,,,,,,,,,,,,,,,,,,,,,42,gato,Spanish,Sounds/spa_gato.mp3,2020-06-25_09h14.55.725,TranslationElicitation_eng-prolific-spa,3.2.4,MacIntel,60,5eb9b011e926960deb4d6d91,,1,0,98,38,1,97
,,,,,,,,,,,,,,,,,,,,,,,,,,,,,,,,,,,,,,,,,return,2.121000051,,FALSE,,,,,,,71,ombligo,Spanish,Sounds/spa_ombligo.mp3,2020-06-25_09h14.55.725,TranslationElicitation_eng-prolific-spa,3.2.4,MacIntel,60,5eb9b011e926960deb4d6d91,2.121000051,1,0,98,66,1,97
,,,,,,,,,,,,,,,,,,,,,,,,,,,,,,,,,,,,,,,,,,,,,,,,,,,71,ombligo,Spanish,Sounds/spa_ombligo.mp3,2020-06-25_09h14.55.725,TranslationElicitation_eng-prolific-spa,3.2.4,MacIntel,60,5eb9b011e926960deb4d6d91,,1,0,98,66,1,97
,,,,,,,,,,,,,,,,,,,,,,,,,,,,,,,,,,,,,,,,,return,2.639999866,,FALSE,,,,,,,98,tobogan,Spanish,Sounds/spa_tobogan.mp3,2020-06-25_09h14.55.725,TranslationElicitation_eng-prolific-spa,3.2.4,MacIntel,60,5eb9b011e926960deb4d6d91,2.639999866,1,0,98,92,1,97
,,,,,,,,,,,,,,,,,,,,,,,,,,,,,,,,,,,,,,,,,,,,,,,,,,,98,tobogan,Spanish,Sounds/spa_tobogan.mp3,2020-06-25_09h14.55.725,TranslationElicitation_eng-prolific-spa,3.2.4,MacIntel,60,5eb9b011e926960deb4d6d91,,1,0,98,92,1,97
,,,,,,,,,,,,,,,,,,,,,,,,,,,,,,,,,,,,,,,,,return,2.101000071,,FALSE,,,,,,,27,chocolate,Spanish,Sounds/spa_chocolate.mp3,2020-06-25_09h14.55.725,TranslationElicitation_eng-prolific-spa,3.2.4,MacIntel,60,5eb9b011e926960deb4d6d91,2.101000071,1,0,98,24,1,97
,,,,,,,,,,,,,,,,,,,,,,,,,,,,,,,,,,,,,,,,,,,,,,,,,,,27,chocolate,Spanish,Sounds/spa_chocolate.mp3,2020-06-25_09h14.55.725,TranslationElicitation_eng-prolific-spa,3.2.4,MacIntel,60,5eb9b011e926960deb4d6d91,,1,0,98,24,1,97
,,,,,,,,,,,,,,,,,,,,,,,,,,,,,,,,,,,,,,,,,return,3.368999958,,FALSE,,,,,,,73,oveja,Spanish,Sounds/spa_oveja.mp3,2020-06-25_09h14.55.725,TranslationElicitation_eng-prolific-spa,3.2.4,MacIntel,60,5eb9b011e926960deb4d6d91,3.368999958,1,0,98,68,1,97
,,,,,,,,,,,,,,,,,,,,,,,,,,,,,,,,,,,,,,,,,,,,,,,,,,,73,oveja,Spanish,Sounds/spa_oveja.mp3,2020-06-25_09h14.55.725,TranslationElicitation_eng-prolific-spa,3.2.4,MacIntel,60,5eb9b011e926960deb4d6d91,,1,0,98,68,1,97
,,,,,,,,,,,,,,,,,,,,,,,,,,,,,,,,,,,,,,,,,return,2.235000134,,FALSE,,,,,,,79,patata,Spanish,Sounds/spa_patata.mp3,2020-06-25_09h14.55.725,TranslationElicitation_eng-prolific-spa,3.2.4,MacIntel,60,5eb9b011e926960deb4d6d91,2.235000134,1,0,98,74,1,97
,,,,,,,,,,,,,,,,,,,,,,,,,,,,,,,,,,,,,,,,,,,,,,,,,,,79,patata,Spanish,Sounds/spa_patata.mp3,2020-06-25_09h14.55.725,TranslationElicitation_eng-prolific-spa,3.2.4,MacIntel,60,5eb9b011e926960deb4d6d91,,1,0,98,74,1,97
,,,,,,,,,,,,,,,,,,,,,,,,,,,,,,,,,,,,,,,,,return,5.685000181,,FALSE,,,,,,,17,calcetin,Spanish,Sounds/spa_calcetin.mp3,2020-06-25_09h14.55.725,TranslationElicitation_eng-prolific-spa,3.2.4,MacIntel,60,5eb9b011e926960deb4d6d91,5.685000181,1,0,98,15,1,97
,,,,,,,,,,,,,,,,,,,,,,,,,,,,,,,,,,,,,,,,,,,,,,,,,,,17,calcetin,Spanish,Sounds/spa_calcetin.mp3,2020-06-25_09h14.55.725,TranslationElicitation_eng-prolific-spa,3.2.4,MacIntel,60,5eb9b011e926960deb4d6d91,,1,0,98,15,1,97
,,,,,,,,,,,,,,,,,,,,,,,,,,,,,,,,,,,,,,,,,return,2.584000111,,FALSE,,,,,,,28,cielo,Spanish,Sounds/spa_cielo.mp3,2020-06-25_09h14.55.725,TranslationElicitation_eng-prolific-spa,3.2.4,MacIntel,60,5eb9b011e926960deb4d6d91,2.584000111,1,0,98,25,1,97
,,,,,,,,,,,,,,,,,,,,,,,,,,,,,,,,,,,,,,,,,,,,,,,,,,,28,cielo,Spanish,Sounds/spa_cielo.mp3,2020-06-25_09h14.55.725,TranslationElicitation_eng-prolific-spa,3.2.4,MacIntel,60,5eb9b011e926960deb4d6d91,,1,0,98,25,1,97
,,,,,,,,,,,,,,,,,,,,,,,,,,,,,,,,,,,,,,,,,return,1.967000008,,FALSE,,,,,,,49,hormiga,Spanish,Sounds/spa_hormiga.mp3,2020-06-25_09h14.55.725,TranslationElicitation_eng-prolific-spa,3.2.4,MacIntel,60,5eb9b011e926960deb4d6d91,1.967000008,1,0,98,45,1,97
,,,,,,,,,,,,,,,,,,,,,,,,,,,,,,,,,,,,,,,,,,,,,,,,,,,49,hormiga,Spanish,Sounds/spa_hormiga.mp3,2020-06-25_09h14.55.725,TranslationElicitation_eng-prolific-spa,3.2.4,MacIntel,60,5eb9b011e926960deb4d6d91,,1,0,98,45,1,97
,,,,,,,,,,,,,,,,,,,,,,,,,,,,,,,,,,,,,,,,,return,2.851999998,,FALSE,,,,,,,15,caballo,Spanish,Sounds/spa_caballo.mp3,2020-06-25_09h14.55.725,TranslationElicitation_eng-prolific-spa,3.2.4,MacIntel,60,5eb9b011e926960deb4d6d91,2.851999998,1,0,98,13,1,97
,,,,,,,,,,,,,,,,,,,,,,,,,,,,,,,,,,,,,,,,,,,,,,,,,,,15,caballo,Spanish,Sounds/spa_caballo.mp3,2020-06-25_09h14.55.725,TranslationElicitation_eng-prolific-spa,3.2.4,MacIntel,60,5eb9b011e926960deb4d6d91,,1,0,98,13,1,97
,,,,,,,,,,,,,,,,,,,,,,,,,,,,,,,,,,,,,,,,,return,2.616999865,,FALSE,,,,,,,5,bici,Spanish,Sounds/spa_bici.mp3,2020-06-25_09h14.55.725,TranslationElicitation_eng-prolific-spa,3.2.4,MacIntel,60,5eb9b011e926960deb4d6d91,2.616999865,1,0,98,3,1,97
,,,,,,,,,,,,,,,,,,,,,,,,,,,,,,,,,,,,,,,,,,,,,,,,,,,5,bici,Spanish,Sounds/spa_bici.mp3,2020-06-25_09h14.55.725,TranslationElicitation_eng-prolific-spa,3.2.4,MacIntel,60,5eb9b011e926960deb4d6d91,,1,0,98,3,1,97
,,,,,,,,,,,,,,,,,,,,,,,,,,,,,,,,,,,,,,,,,return,2.483999968,,FALSE,,,,,,,54,lengua,Spanish,Sounds/spa_lengua.mp3,2020-06-25_09h14.55.725,TranslationElicitation_eng-prolific-spa,3.2.4,MacIntel,60,5eb9b011e926960deb4d6d91,2.483999968,1,0,98,50,1,97
,,,,,,,,,,,,,,,,,,,,,,,,,,,,,,,,,,,,,,,,,,,,,,,,,,,54,lengua,Spanish,Sounds/spa_lengua.mp3,2020-06-25_09h14.55.725,TranslationElicitation_eng-prolific-spa,3.2.4,MacIntel,60,5eb9b011e926960deb4d6d91,,1,0,98,50,1,97
,,,,,,,,,,,,,,,,,,,,,,,,,,,,,,,,,,,,,,,,,return,2.332999945,,FALSE,,,,,,,68,naranja,Spanish,Sounds/spa_naranja.mp3,2020-06-25_09h14.55.725,TranslationElicitation_eng-prolific-spa,3.2.4,MacIntel,60,5eb9b011e926960deb4d6d91,2.332999945,1,0,98,64,1,97
,,,,,,,,,,,,,,,,,,,,,,,,,,,,,,,,,,,,,,,,,,,,,,,,,,,68,naranja,Spanish,Sounds/spa_naranja.mp3,2020-06-25_09h14.55.725,TranslationElicitation_eng-prolific-spa,3.2.4,MacIntel,60,5eb9b011e926960deb4d6d91,,1,0,98,64,1,97
,,,,,,,,,,,,,,,,,,,,,,,,,,,,,,,,,,,,,,,,,return,3.851000071,,FALSE,,,,,,,58,luna,Spanish,Sounds/spa_luna.mp3,2020-06-25_09h14.55.725,TranslationElicitation_eng-prolific-spa,3.2.4,MacIntel,60,5eb9b011e926960deb4d6d91,3.851000071,1,0,98,54,1,97
,,,,,,,,,,,,,,,,,,,,,,,,,,,,,,,,,,,,,,,,,,,,,,,,,,,58,luna,Spanish,Sounds/spa_luna.mp3,2020-06-25_09h14.55.725,TranslationElicitation_eng-prolific-spa,3.2.4,MacIntel,60,5eb9b011e926960deb4d6d91,,1,0,98,54,1,97
,,,,,,,,,,,,,,,,,,,,,,,,,,,,,,,,,,,,,,,,,return,1.815999985,,FALSE,,,,,,,16,caja,Spanish,Sounds/spa_caja.mp3,2020-06-25_09h14.55.725,TranslationElicitation_eng-prolific-spa,3.2.4,MacIntel,60,5eb9b011e926960deb4d6d91,1.815999985,1,0,98,14,1,97
,,,,,,,,,,,,,,,,,,,,,,,,,,,,,,,,,,,,,,,,,,,,,,,,,,,16,caja,Spanish,Sounds/spa_caja.mp3,2020-06-25_09h14.55.725,TranslationElicitation_eng-prolific-spa,3.2.4,MacIntel,60,5eb9b011e926960deb4d6d91,,1,0,98,14,1,97
,,,,,,,,,,,,,,,,,,,,,,,,,,,,,,,,,,,,,,,,,return,1.400000095,,FALSE,,,,,,,13,buho,Spanish,Sounds/spa_buho.mp3,2020-06-25_09h14.55.725,TranslationElicitation_eng-prolific-spa,3.2.4,MacIntel,60,5eb9b011e926960deb4d6d91,1.400000095,1,0,98,11,1,97
,,,,,,,,,,,,,,,,,,,,,,,,,,,,,,,,,,,,,,,,,,,,,,,,,,,13,buho,Spanish,Sounds/spa_buho.mp3,2020-06-25_09h14.55.725,TranslationElicitation_eng-prolific-spa,3.2.4,MacIntel,60,5eb9b011e926960deb4d6d91,,1,0,98,11,1,97
,,,,,,,,,,,,,,,,,,,,,,,,,,,,,,,,,,,,,,,,,return,2.349999905,,FALSE,,,,,,,3,barco,Spanish,Sounds/spa_barco.mp3,2020-06-25_09h14.55.725,TranslationElicitation_eng-prolific-spa,3.2.4,MacIntel,60,5eb9b011e926960deb4d6d91,2.349999905,1,0,98,1,1,97
,,,,,,,,,,,,,,,,,,,,,,,,,,,,,,,,,,,,,,,,,,,,,,,,,,,3,barco,Spanish,Sounds/spa_barco.mp3,2020-06-25_09h14.55.725,TranslationElicitation_eng-prolific-spa,3.2.4,MacIntel,60,5eb9b011e926960deb4d6d91,,1,0,98,1,1,97
,,,,,,,,,,,,,,,,,,,,,,,,,,,,,,,,,,,,,,,,,return,2.23300004,,FALSE,,,,,,,101,tren,Spanish,Sounds/spa_tren.mp3,2020-06-25_09h14.55.725,TranslationElicitation_eng-prolific-spa,3.2.4,MacIntel,60,5eb9b011e926960deb4d6d91,2.23300004,1,0,98,95,1,97
,,,,,,,,,,,,,,,,,,,,,,,,,,,,,,,,,,,,,,,,,,,,,,,,,,,101,tren,Spanish,Sounds/spa_tren.mp3,2020-06-25_09h14.55.725,TranslationElicitation_eng-prolific-spa,3.2.4,MacIntel,60,5eb9b011e926960deb4d6d91,,1,0,98,95,1,97
,,,,,,,,,,,,,,,,,,,,,,,,,,,,,,,,,,,,,,,,,return,1.901000023,,FALSE,,,,,,,99,tomate,Spanish,Sounds/spa_tomate.mp3,2020-06-25_09h14.55.725,TranslationElicitation_eng-prolific-spa,3.2.4,MacIntel,60,5eb9b011e926960deb4d6d91,1.901000023,1,0,98,93,1,97
,,,,,,,,,,,,,,,,,,,,,,,,,,,,,,,,,,,,,,,,,,,,,,,,,,,99,tomate,Spanish,Sounds/spa_tomate.mp3,2020-06-25_09h14.55.725,TranslationElicitation_eng-prolific-spa,3.2.4,MacIntel,60,5eb9b011e926960deb4d6d91,,1,0,98,93,1,97
,,,,,,,,,,,,,,,,,,,,,,,,,,,,,,,,,,,,,,,,,return,1.917000055,,FALSE,,,,,,,86,pingüino,Spanish,Sounds/spa_pinguino.mp3,2020-06-25_09h14.55.725,TranslationElicitation_eng-prolific-spa,3.2.4,MacIntel,60,5eb9b011e926960deb4d6d91,1.917000055,1,0,98,81,1,97
,,,,,,,,,,,,,,,,,,,,,,,,,,,,,,,,,,,,,,,,,,,,,,,,,,,86,pingüino,Spanish,Sounds/spa_pinguino.mp3,2020-06-25_09h14.55.725,TranslationElicitation_eng-prolific-spa,3.2.4,MacIntel,60,5eb9b011e926960deb4d6d91,,1,0,98,81,1,97
,,,,,,,,,,,,,,,,,,,,,,,,,,,,,,,,,,,,,,,,,return,3.132999897,,FALSE,,,,,,,9,boli,Spanish,Sounds/spa_boli.mp3,2020-06-25_09h14.55.725,TranslationElicitation_eng-prolific-spa,3.2.4,MacIntel,60,5eb9b011e926960deb4d6d91,3.132999897,1,0,98,7,1,97
,,,,,,,,,,,,,,,,,,,,,,,,,,,,,,,,,,,,,,,,,,,,,,,,,,,9,boli,Spanish,Sounds/spa_boli.mp3,2020-06-25_09h14.55.725,TranslationElicitation_eng-prolific-spa,3.2.4,MacIntel,60,5eb9b011e926960deb4d6d91,,1,0,98,7,1,97
,,,,,,,,,,,,,,,,,,,,,,,,,,,,,,,,,,,,,,,,,return,2.766000032,,FALSE,,,,,,,77,pantalon,Spanish,Sounds/spa_pantalon.mp3,2020-06-25_09h14.55.725,TranslationElicitation_eng-prolific-spa,3.2.4,MacIntel,60,5eb9b011e926960deb4d6d91,2.766000032,1,0,98,72,1,97
,,,,,,,,,,,,,,,,,,,,,,,,,,,,,,,,,,,,,,,,,,,,,,,,,,,77,pantalon,Spanish,Sounds/spa_pantalon.mp3,2020-06-25_09h14.55.725,TranslationElicitation_eng-prolific-spa,3.2.4,MacIntel,60,5eb9b011e926960deb4d6d91,,1,0,98,72,1,97
,,,,,,,,,,,,,,,,,,,,,,,,,,,,,,,,,,,,,,,,,return,8.799000025,,FALSE,,,,,,,50,jirafa,Spanish,Sounds/spa_jirafa.mp3,2020-06-25_09h14.55.725,TranslationElicitation_eng-prolific-spa,3.2.4,MacIntel,60,5eb9b011e926960deb4d6d91,8.799000025,1,0,98,46,1,97
,,,,,,,,,,,,,,,,,,,,,,,,,,,,,,,,,,,,,,,,,,,,,,,,,,,50,jirafa,Spanish,Sounds/spa_jirafa.mp3,2020-06-25_09h14.55.725,TranslationElicitation_eng-prolific-spa,3.2.4,MacIntel,60,5eb9b011e926960deb4d6d91,,1,0,98,46,1,97
,,,,,,,,,,,,,,,,,,,,,,,,,,,,,,,,,,,,,,,,,return,9.569000006,,FALSE,,,,,,,62,martillo,Spanish,Sounds/spa_martillo.mp3,2020-06-25_09h14.55.725,TranslationElicitation_eng-prolific-spa,3.2.4,MacIntel,60,5eb9b011e926960deb4d6d91,9.569000006,1,0,98,58,1,97
,,,,,,,,,,,,,,,,,,,,,,,,,,,,,,,,,,,,,,,,,,,,,,,,,,,62,martillo,Spanish,Sounds/spa_martillo.mp3,2020-06-25_09h14.55.725,TranslationElicitation_eng-prolific-spa,3.2.4,MacIntel,60,5eb9b011e926960deb4d6d91,,1,0,98,58,1,97
,,,,,,,,,,,,,,,,,,,,,,,,,,,,,,,,,,,,,,,,,return,3.569999933,,FALSE,,,,,,,33,dedo,Spanish,Sounds/spa_dedo.mp3,2020-06-25_09h14.55.725,TranslationElicitation_eng-prolific-spa,3.2.4,MacIntel,60,5eb9b011e926960deb4d6d91,3.569999933,1,0,98,29,1,97
,,,,,,,,,,,,,,,,,,,,,,,,,,,,,,,,,,,,,,,,,,,,,,,,,,,33,dedo,Spanish,Sounds/spa_dedo.mp3,2020-06-25_09h14.55.725,TranslationElicitation_eng-prolific-spa,3.2.4,MacIntel,60,5eb9b011e926960deb4d6d91,,1,0,98,29,1,97
,,,,,,,,,,,,,,,,,,,,,,,,,,,,,,,,,,,,,,,,,return,1.583999872,,FALSE,,,,,,,20,caracol,Spanish,Sounds/spa_caracol.mp3,2020-06-25_09h14.55.725,TranslationElicitation_eng-prolific-spa,3.2.4,MacIntel,60,5eb9b011e926960deb4d6d91,1.583999872,1,0,98,18,1,97
,,,,,,,,,,,,,,,,,,,,,,,,,,,,,,,,,,,,,,,,,,,,,,,,,,,20,caracol,Spanish,Sounds/spa_caracol.mp3,2020-06-25_09h14.55.725,TranslationElicitation_eng-prolific-spa,3.2.4,MacIntel,60,5eb9b011e926960deb4d6d91,,1,0,98,18,1,97
,,,,,,,,,,,,,,,,,,,,,,,,,,,,,,,,,,,,,,,,,return,5.051000118,,FALSE,,,,,,,72,osito,Spanish,Sounds/spa_osito.mp3,2020-06-25_09h14.55.725,TranslationElicitation_eng-prolific-spa,3.2.4,MacIntel,60,5eb9b011e926960deb4d6d91,5.051000118,1,0,98,67,1,97
,,,,,,,,,,,,,,,,,,,,,,,,,,,,,,,,,,,,,,,,,,,,,,,,,,,72,osito,Spanish,Sounds/spa_osito.mp3,2020-06-25_09h14.55.725,TranslationElicitation_eng-prolific-spa,3.2.4,MacIntel,60,5eb9b011e926960deb4d6d91,,1,0,98,67,1,97
,,,,,,,,,,,,,,,,,,,,,,,,,,,,,,,,,,,,,,,,,return,6.234999895,,FALSE,,,,,,,88,plato,Spanish,Sounds/spa_plato.mp3,2020-06-25_09h14.55.725,TranslationElicitation_eng-prolific-spa,3.2.4,MacIntel,60,5eb9b011e926960deb4d6d91,6.234999895,1,0,98,83,1,97
,,,,,,,,,,,,,,,,,,,,,,,,,,,,,,,,,,,,,,,,,,,,,,,,,,,88,plato,Spanish,Sounds/spa_plato.mp3,2020-06-25_09h14.55.725,TranslationElicitation_eng-prolific-spa,3.2.4,MacIntel,60,5eb9b011e926960deb4d6d91,,1,0,98,83,1,97
,,,,,,,,,,,,,,,,,,,,,,,,,,,,,,,,,,,,,,,,,return,4.215999842,,FALSE,,,,,,,97,tijeras,Spanish,Sounds/spa_tijeras.mp3,2020-06-25_09h14.55.725,TranslationElicitation_eng-prolific-spa,3.2.4,MacIntel,60,5eb9b011e926960deb4d6d91,4.215999842,1,0,98,91,1,97
,,,,,,,,,,,,,,,,,,,,,,,,,,,,,,,,,,,,,,,,,,,,,,,,,,,97,tijeras,Spanish,Sounds/spa_tijeras.mp3,2020-06-25_09h14.55.725,TranslationElicitation_eng-prolific-spa,3.2.4,MacIntel,60,5eb9b011e926960deb4d6d91,,1,0,98,91,1,97
,,,,,,,,,,,,,,,,,,,,,,,,,,,,,,,,,,,,,,,,,return,6.832000017,,FALSE,,,,,,,60,manzana,Spanish,Sounds/spa_manzana.mp3,2020-06-25_09h14.55.725,TranslationElicitation_eng-prolific-spa,3.2.4,MacIntel,60,5eb9b011e926960deb4d6d91,6.832000017,1,0,98,56,1,97
,,,,,,,,,,,,,,,,,,,,,,,,,,,,,,,,,,,,,,,,,,,,,,,,,,,60,manzana,Spanish,Sounds/spa_manzana.mp3,2020-06-25_09h14.55.725,TranslationElicitation_eng-prolific-spa,3.2.4,MacIntel,60,5eb9b011e926960deb4d6d91,,1,0,98,56,1,97
,,,,,,,,,,,,,,,,,,,,,,,,,,,,,,,,,,,,,,,,,return,2.822999954,,FALSE,,,,,,,92,sandwich,Spanish,Sounds/spa_sandwich.mp3,2020-06-25_09h14.55.725,TranslationElicitation_eng-prolific-spa,3.2.4,MacIntel,60,5eb9b011e926960deb4d6d91,2.822999954,1,0,98,87,1,97
,,,,,,,,,,,,,,,,,,,,,,,,,,,,,,,,,,,,,,,,,,,,,,,,,,,92,sandwich,Spanish,Sounds/spa_sandwich.mp3,2020-06-25_09h14.55.725,TranslationElicitation_eng-prolific-spa,3.2.4,MacIntel,60,5eb9b011e926960deb4d6d91,,1,0,98,87,1,97
,,,,,,,,,,,,,,,,,,,,,,,,,,,,,,,,,,,,,,,,,return,2.269999981,,FALSE,,,,,,,74,pajaro,Spanish,Sounds/spa_pajaro.mp3,2020-06-25_09h14.55.725,TranslationElicitation_eng-prolific-spa,3.2.4,MacIntel,60,5eb9b011e926960deb4d6d91,2.269999981,1,0,98,69,1,97
,,,,,,,,,,,,,,,,,,,,,,,,,,,,,,,,,,,,,,,,,,,,,,,,,,,74,pajaro,Spanish,Sounds/spa_pajaro.mp3,2020-06-25_09h14.55.725,TranslationElicitation_eng-prolific-spa,3.2.4,MacIntel,60,5eb9b011e926960deb4d6d91,,1,0,98,69,1,97
,,,,,,,,,,,,,,,,,,,,,,,,,,,,,,,,,,,,,,,,,return,1.983999968,,FALSE,,,,,,,14,burro,Spanish,Sounds/spa_burro.mp3,2020-06-25_09h14.55.725,TranslationElicitation_eng-prolific-spa,3.2.4,MacIntel,60,5eb9b011e926960deb4d6d91,1.983999968,1,0,98,12,1,97
,,,,,,,,,,,,,,,,,,,,,,,,,,,,,,,,,,,,,,,,,,,,,,,,,,,14,burro,Spanish,Sounds/spa_burro.mp3,2020-06-25_09h14.55.725,TranslationElicitation_eng-prolific-spa,3.2.4,MacIntel,60,5eb9b011e926960deb4d6d91,,1,0,98,12,1,97
,,,,,,,,,,,,,,,,,,,,,,,,,,,,,,,,,,,,,,,,,return,2.23300004,,FALSE,,,,,,,93,sol,Spanish,Sounds/spa_sol.mp3,2020-06-25_09h14.55.725,TranslationElicitation_eng-prolific-spa,3.2.4,MacIntel,60,5eb9b011e926960deb4d6d91,2.23300004,1,0,98,88,1,97
,,,,,,,,,,,,,,,,,,,,,,,,,,,,,,,,,,,,,,,,,,,,,,,,,,,93,sol,Spanish,Sounds/spa_sol.mp3,2020-06-25_09h14.55.725,TranslationElicitation_eng-prolific-spa,3.2.4,MacIntel,60,5eb9b011e926960deb4d6d91,,1,0,98,88,1,97
,,,,,,,,,,,,,,,,,,,,,,,,,,,,,,,,,,,,,,,,,return,1.299000025,,FALSE,,,,,,,6,boca,Spanish,Sounds/spa_boca.mp3,2020-06-25_09h14.55.725,TranslationElicitation_eng-prolific-spa,3.2.4,MacIntel,60,5eb9b011e926960deb4d6d91,1.299000025,1,0,98,4,1,97
,,,,,,,,,,,,,,,,,,,,,,,,,,,,,,,,,,,,,,,,,,,,,,,,,,,6,boca,Spanish,Sounds/spa_boca.mp3,2020-06-25_09h14.55.725,TranslationElicitation_eng-prolific-spa,3.2.4,MacIntel,60,5eb9b011e926960deb4d6d91,,1,0,98,4,1,97
,,,,,,,,,,,,,,,,,,,,,,,,,,,,,,,,,,,,,,,,,return,1.251000166,,FALSE,,,,,,,57,loro,Spanish,Sounds/spa_loro.mp3,2020-06-25_09h14.55.725,TranslationElicitation_eng-prolific-spa,3.2.4,MacIntel,60,5eb9b011e926960deb4d6d91,1.251000166,1,0,98,53,1,97
,,,,,,,,,,,,,,,,,,,,,,,,,,,,,,,,,,,,,,,,,,,,,,,,,,,57,loro,Spanish,Sounds/spa_loro.mp3,2020-06-25_09h14.55.725,TranslationElicitation_eng-prolific-spa,3.2.4,MacIntel,60,5eb9b011e926960deb4d6d91,,1,0,98,53,1,97
,,,,,,,,,,,,,,,,,,,,,,,,,,,,,,,,,,,,,,,,,return,1.483999968,,FALSE,,,,,,,80,pato,Spanish,Sounds/spa_pato.mp3,2020-06-25_09h14.55.725,TranslationElicitation_eng-prolific-spa,3.2.4,MacIntel,60,5eb9b011e926960deb4d6d91,1.483999968,1,0,98,75,1,97
,,,,,,,,,,,,,,,,,,,,,,,,,,,,,,,,,,,,,,,,,,,,,,,,,,,80,pato,Spanish,Sounds/spa_pato.mp3,2020-06-25_09h14.55.725,TranslationElicitation_eng-prolific-spa,3.2.4,MacIntel,60,5eb9b011e926960deb4d6d91,,1,0,98,75,1,97
,,,,,,,,,,,,,,,,,,,,,,,,,,,,,,,,,,,,,,,,,return,1.101000071,,FALSE,,,,,,,31,cubo,Spanish,Sounds/spa_cubo.mp3,2020-06-25_09h14.55.725,TranslationElicitation_eng-prolific-spa,3.2.4,MacIntel,60,5eb9b011e926960deb4d6d91,1.101000071,1,0,98,27,1,97
,,,,,,,,,,,,,,,,,,,,,,,,,,,,,,,,,,,,,,,,,,,,,,,,,,,31,cubo,Spanish,Sounds/spa_cubo.mp3,2020-06-25_09h14.55.725,TranslationElicitation_eng-prolific-spa,3.2.4,MacIntel,60,5eb9b011e926960deb4d6d91,,1,0,98,27,1,97
,,,,,,,,,,,,,,,,,,,,,,,,,,,,,,,,,,,,,,,,,return,4.755999804,,FALSE,,,,,,,44,gorrion,Spanish,Sounds/spa_gorrion.mp3,2020-06-25_09h14.55.725,TranslationElicitation_eng-prolific-spa,3.2.4,MacIntel,60,5eb9b011e926960deb4d6d91,4.755999804,1,0,98,40,1,97
,,,,,,,,,,,,,,,,,,,,,,,,,,,,,,,,,,,,,,,,,,,,,,,,,,,44,gorrion,Spanish,Sounds/spa_gorrion.mp3,2020-06-25_09h14.55.725,TranslationElicitation_eng-prolific-spa,3.2.4,MacIntel,60,5eb9b011e926960deb4d6d91,,1,0,98,40,1,97
,,,,,,,,,,,,,,,,,,,,,,,,,,,,,,,,,,,,,,,,,return,1.5,,FALSE,,,,,,,23,cerdo,Spanish,Sounds/spa_cerdo.mp3,2020-06-25_09h14.55.725,TranslationElicitation_eng-prolific-spa,3.2.4,MacIntel,60,5eb9b011e926960deb4d6d91,1.5,1,0,98,21,1,97
,,,,,,,,,,,,,,,,,,,,,,,,,,,,,,,,,,,,,,,,,,,,,,,,,,,23,cerdo,Spanish,Sounds/spa_cerdo.mp3,2020-06-25_09h14.55.725,TranslationElicitation_eng-prolific-spa,3.2.4,MacIntel,60,5eb9b011e926960deb4d6d91,,1,0,98,21,1,97
,,,,,,,,,,,,,,,,,,,,,,,,,,,,,,,,,,,,,,,,,return,1.75,,FALSE,,,,,,,65,mono,Spanish,Sounds/spa_mono.mp3,2020-06-25_09h14.55.725,TranslationElicitation_eng-prolific-spa,3.2.4,MacIntel,60,5eb9b011e926960deb4d6d91,1.75,1,0,98,61,1,97
,,,,,,,,,,,,,,,,,,,,,,,,,,,,,,,,,,,,,,,,,,,,,,,,,,,65,mono,Spanish,Sounds/spa_mono.mp3,2020-06-25_09h14.55.725,TranslationElicitation_eng-prolific-spa,3.2.4,MacIntel,60,5eb9b011e926960deb4d6d91,,1,0,98,61,1,97
,,,,,,,,,,,,,,,,,,,,,,,,,,,,,,,,,,,,,,,,,return,1.667000055,,FALSE,,,,,,,41,gallina,Spanish,Sounds/spa_gallina.mp3,2020-06-25_09h14.55.725,TranslationElicitation_eng-prolific-spa,3.2.4,MacIntel,60,5eb9b011e926960deb4d6d91,1.667000055,1,0,98,37,1,97
,,,,,,,,,,,,,,,,,,,,,,,,,,,,,,,,,,,,,,,,,,,,,,,,,,,41,gallina,Spanish,Sounds/spa_gallina.mp3,2020-06-25_09h14.55.725,TranslationElicitation_eng-prolific-spa,3.2.4,MacIntel,60,5eb9b011e926960deb4d6d91,,1,0,98,37,1,97
,,,,,,,,,,,,,,,,,,,,,,,,,,,,,,,,,,,,,,,,,return,1.916999817,,FALSE,,,,,,,91,puerta,Spanish,Sounds/spa_puerta.mp3,2020-06-25_09h14.55.725,TranslationElicitation_eng-prolific-spa,3.2.4,MacIntel,60,5eb9b011e926960deb4d6d91,1.916999817,1,0,98,86,1,97
,,,,,,,,,,,,,,,,,,,,,,,,,,,,,,,,,,,,,,,,,,,,,,,,,,,91,puerta,Spanish,Sounds/spa_puerta.mp3,2020-06-25_09h14.55.725,TranslationElicitation_eng-prolific-spa,3.2.4,MacIntel,60,5eb9b011e926960deb4d6d91,,1,0,98,86,1,97
,,,,,,,,,,,,,,,,,,,,,,,,,,,,,,,,,,,,,,,,,return,2.266000032,,FALSE,,,,,,,55,leon,Spanish,Sounds/spa_leon.mp3,2020-06-25_09h14.55.725,TranslationElicitation_eng-prolific-spa,3.2.4,MacIntel,60,5eb9b011e926960deb4d6d91,2.266000032,1,0,98,51,1,97
,,,,,,,,,,,,,,,,,,,,,,,,,,,,,,,,,,,,,,,,,,,,,,,,,,,55,leon,Spanish,Sounds/spa_leon.mp3,2020-06-25_09h14.55.725,TranslationElicitation_eng-prolific-spa,3.2.4,MacIntel,60,5eb9b011e926960deb4d6d91,,1,0,98,51,1,97
,,,,,,,,,,,,,,,,,,,,,,,,,,,,,,,,,,,,,,,,,return,2.167999983,,FALSE,,,,,,,89,pluma,Spanish,Sounds/spa_pluma.mp3,2020-06-25_09h14.55.725,TranslationElicitation_eng-prolific-spa,3.2.4,MacIntel,60,5eb9b011e926960deb4d6d91,2.167999983,1,0,98,84,1,97
,,,,,,,,,,,,,,,,,,,,,,,,,,,,,,,,,,,,,,,,,,,,,,,,,,,89,pluma,Spanish,Sounds/spa_pluma.mp3,2020-06-25_09h14.55.725,TranslationElicitation_eng-prolific-spa,3.2.4,MacIntel,60,5eb9b011e926960deb4d6d91,,1,0,98,84,1,97
,,,,,,,,,,,,,,,,,,,,,,,,,,,,,,,,,,,,,,,,,return,1.935000181,,FALSE,,,,,,,40,galleta,Spanish,Sounds/spa_galleta.mp3,2020-06-25_09h14.55.725,TranslationElicitation_eng-prolific-spa,3.2.4,MacIntel,60,5eb9b011e926960deb4d6d91,1.935000181,1,0,98,36,1,97
,,,,,,,,,,,,,,,,,,,,,,,,,,,,,,,,,,,,,,,,,,,,,,,,,,,40,galleta,Spanish,Sounds/spa_galleta.mp3,2020-06-25_09h14.55.725,TranslationElicitation_eng-prolific-spa,3.2.4,MacIntel,60,5eb9b011e926960deb4d6d91,,1,0,98,36,1,97
,,,,,,,,,,,,,,,,,,,,,,,,,,,,,,,,,,,,,,,,,return,1.817000151,,FALSE,,,,,,,94,tambor,Spanish,Sounds/spa_tambor.mp3,2020-06-25_09h14.55.725,TranslationElicitation_eng-prolific-spa,3.2.4,MacIntel,60,5eb9b011e926960deb4d6d91,1.817000151,1,0,98,89,1,97
,,,,,,,,,,,,,,,,,,,,,,,,,,,,,,,,,,,,,,,,,,,,,,,,,,,94,tambor,Spanish,Sounds/spa_tambor.mp3,2020-06-25_09h14.55.725,TranslationElicitation_eng-prolific-spa,3.2.4,MacIntel,60,5eb9b011e926960deb4d6d91,,1,0,98,89,1,97
,,,,,,,,,,,,,,,,,,,,,,,,,,,,,,,,,,,,,,,,,return,1.615999937,,FALSE,,,,,,,45,gorro,Spanish,Sounds/spa_gorro.mp3,2020-06-25_09h14.55.725,TranslationElicitation_eng-prolific-spa,3.2.4,MacIntel,60,5eb9b011e926960deb4d6d91,1.615999937,1,0,98,41,1,97
,,,,,,,,,,,,,,,,,,,,,,,,,,,,,,,,,,,,,,,,,,,,,,,,,,,45,gorro,Spanish,Sounds/spa_gorro.mp3,2020-06-25_09h14.55.725,TranslationElicitation_eng-prolific-spa,3.2.4,MacIntel,60,5eb9b011e926960deb4d6d91,,1,0,98,41,1,97
,,,,,,,,,,,,,,,,,,,,,,,,,,,,,,,,,,,,,,,,,return,1.203999996,,FALSE,,,,,,,69,nariz,Spanish,Sounds/spa_nariz.mp3,2020-06-25_09h14.55.725,TranslationElicitation_eng-prolific-spa,3.2.4,MacIntel,60,5eb9b011e926960deb4d6d91,1.203999996,1,0,98,65,1,97
,,,,,,,,,,,,,,,,,,,,,,,,,,,,,,,,,,,,,,,,,,,,,,,,,,,69,nariz,Spanish,Sounds/spa_nariz.mp3,2020-06-25_09h14.55.725,TranslationElicitation_eng-prolific-spa,3.2.4,MacIntel,60,5eb9b011e926960deb4d6d91,,1,0,98,65,1,97
,,,,,,,,,,,,,,,,,,,,,,,,,,,,,,,,,,,,,,,,,return,2.55099988,,FALSE,,,,,,,38,frambuesa,Spanish,Sounds/spa_frambuesa.mp3,2020-06-25_09h14.55.725,TranslationElicitation_eng-prolific-spa,3.2.4,MacIntel,60,5eb9b011e926960deb4d6d91,2.55099988,1,0,98,34,1,97
,,,,,,,,,,,,,,,,,,,,,,,,,,,,,,,,,,,,,,,,,,,,,,,,,,,38,frambuesa,Spanish,Sounds/spa_frambuesa.mp3,2020-06-25_09h14.55.725,TranslationElicitation_eng-prolific-spa,3.2.4,MacIntel,60,5eb9b011e926960deb4d6d91,,1,0,98,34,1,97
,,,,,,,,,,,,,,,,,,,,,,,,,,,,,,,,,,,,,,,,,return,4.585999966,,FALSE,,,,,,,52,lapiz,Spanish,Sounds/spa_lapiz.mp3,2020-06-25_09h14.55.725,TranslationElicitation_eng-prolific-spa,3.2.4,MacIntel,60,5eb9b011e926960deb4d6d91,4.585999966,1,0,98,48,1,97
,,,,,,,,,,,,,,,,,,,,,,,,,,,,,,,,,,,,,,,,,,,,,,,,,,,52,lapiz,Spanish,Sounds/spa_lapiz.mp3,2020-06-25_09h14.55.725,TranslationElicitation_eng-prolific-spa,3.2.4,MacIntel,60,5eb9b011e926960deb4d6d91,,1,0,98,48,1,97
,,,,,,,,,,,,,,,,,,,,,,,,,,,,,,,,,,,,,,,,,return,2.032999992,,FALSE,,,,,,,39,gafas,Spanish,Sounds/spa_gafas.mp3,2020-06-25_09h14.55.725,TranslationElicitation_eng-prolific-spa,3.2.4,MacIntel,60,5eb9b011e926960deb4d6d91,2.032999992,1,0,98,35,1,97
,,,,,,,,,,,,,,,,,,,,,,,,,,,,,,,,,,,,,,,,,,,,,,,,,,,39,gafas,Spanish,Sounds/spa_gafas.mp3,2020-06-25_09h14.55.725,TranslationElicitation_eng-prolific-spa,3.2.4,MacIntel,60,5eb9b011e926960deb4d6d91,,1,0,98,35,1,97
,,,,,,,,,,,,,,,,,,,,,,,,,,,,,,,,,,,,,,,,,return,2.232000113,,FALSE,,,,,,,12,brazo,Spanish,Sounds/spa_brazo.mp3,2020-06-25_09h14.55.725,TranslationElicitation_eng-prolific-spa,3.2.4,MacIntel,60,5eb9b011e926960deb4d6d91,2.232000113,1,0,98,10,1,97
,,,,,,,,,,,,,,,,,,,,,,,,,,,,,,,,,,,,,,,,,,,,,,,,,,,12,brazo,Spanish,Sounds/spa_brazo.mp3,2020-06-25_09h14.55.725,TranslationElicitation_eng-prolific-spa,3.2.4,MacIntel,60,5eb9b011e926960deb4d6d91,,1,0,98,10,1,97
,,,,,,,,,,,,,,,,,,,,,,,,,,,,,,,,,,,,,,,,,return,3.218999863,,FALSE,,,,,,,36,estrella,Spanish,Sounds/spa_estrella.mp3,2020-06-25_09h14.55.725,TranslationElicitation_eng-prolific-spa,3.2.4,MacIntel,60,5eb9b011e926960deb4d6d91,3.218999863,1,0,98,32,1,97
,,,,,,,,,,,,,,,,,,,,,,,,,,,,,,,,,,,,,,,,,,,,,,,,,,,36,estrella,Spanish,Sounds/spa_estrella.mp3,2020-06-25_09h14.55.725,TranslationElicitation_eng-prolific-spa,3.2.4,MacIntel,60,5eb9b011e926960deb4d6d91,,1,0,98,32,1,97
,,,,,,,,,,,,,,,,,,,,,,,,,,,,,,,,,,,,,,,,,return,2.133000135,,FALSE,,,,,,,90,pollo,Spanish,Sounds/spa_pollo.mp3,2020-06-25_09h14.55.725,TranslationElicitation_eng-prolific-spa,3.2.4,MacIntel,60,5eb9b011e926960deb4d6d91,2.133000135,1,0,98,85,1,97
,,,,,,,,,,,,,,,,,,,,,,,,,,,,,,,,,,,,,,,,,,,,,,,,,,,90,pollo,Spanish,Sounds/spa_pollo.mp3,2020-06-25_09h14.55.725,TranslationElicitation_eng-prolific-spa,3.2.4,MacIntel,60,5eb9b011e926960deb4d6d91,,1,0,98,85,1,97
,,,,,,,,,,,,,,,,,,,,,,,,,,,,,,,,,,,,,,,,,return,2.31799984,,FALSE,,,,,,,51,ladrillo,Spanish,Sounds/spa_ladrillo.mp3,2020-06-25_09h14.55.725,TranslationElicitation_eng-prolific-spa,3.2.4,MacIntel,60,5eb9b011e926960deb4d6d91,2.31799984,1,0,98,47,1,97
,,,,,,,,,,,,,,,,,,,,,,,,,,,,,,,,,,,,,,,,,,,,,,,,,,,51,ladrillo,Spanish,Sounds/spa_ladrillo.mp3,2020-06-25_09h14.55.725,TranslationElicitation_eng-prolific-spa,3.2.4,MacIntel,60,5eb9b011e926960deb4d6d91,,1,0,98,47,1,97
,,,,,,,,,,,,,,,,,,,,,,,,,,,,,,,,,,,,,,,,,return,1.866999865,,FALSE,,,,,,,78,pastel,Spanish,Sounds/spa_pastel.mp3,2020-06-25_09h14.55.725,TranslationElicitation_eng-prolific-spa,3.2.4,MacIntel,60,5eb9b011e926960deb4d6d91,1.866999865,1,0,98,73,1,97
,,,,,,,,,,,,,,,,,,,,,,,,,,,,,,,,,,,,,,,,,,,,,,,,,,,78,pastel,Spanish,Sounds/spa_pastel.mp3,2020-06-25_09h14.55.725,TranslationElicitation_eng-prolific-spa,3.2.4,MacIntel,60,5eb9b011e926960deb4d6d91,,1,0,98,73,1,97
,,,,,,,,,,,,,,,,,,,,,,,,,,,,,,,,,,,,,,,,,return,2.833999872,,FALSE,,,,,,,61,mariposa,Spanish,Sounds/spa_mariposa.mp3,2020-06-25_09h14.55.725,TranslationElicitation_eng-prolific-spa,3.2.4,MacIntel,60,5eb9b011e926960deb4d6d91,2.833999872,1,0,98,57,1,97
,,,,,,,,,,,,,,,,,,,,,,,,,,,,,,,,,,,,,,,,,,,,,,,,,,,61,mariposa,Spanish,Sounds/spa_mariposa.mp3,2020-06-25_09h14.55.725,TranslationElicitation_eng-prolific-spa,3.2.4,MacIntel,60,5eb9b011e926960deb4d6d91,,1,0,98,57,1,97
,,,,,,,,,,,,,,,,,,,,,,,,,,,,,,,,,,,,,,,,,return,2.335999966,,FALSE,,,,,,,53,leche,Spanish,Sounds/spa_leche.mp3,2020-06-25_09h14.55.725,TranslationElicitation_eng-prolific-spa,3.2.4,MacIntel,60,5eb9b011e926960deb4d6d91,2.335999966,1,0,98,49,1,97
,,,,,,,,,,,,,,,,,,,,,,,,,,,,,,,,,,,,,,,,,,,,,,,,,,,53,leche,Spanish,Sounds/spa_leche.mp3,2020-06-25_09h14.55.725,TranslationElicitation_eng-prolific-spa,3.2.4,MacIntel,60,5eb9b011e926960deb4d6d91,,1,0,98,49,1,97
,,,,,,,,,,,,,,,,,,,,,,,,,,,,,,,,,,,,,,,,,return,2.251000166,,FALSE,,,,,,,37,flor,Spanish,Sounds/spa_flor.mp3,2020-06-25_09h14.55.725,TranslationElicitation_eng-prolific-spa,3.2.4,MacIntel,60,5eb9b011e926960deb4d6d91,2.251000166,1,0,98,33,1,97
,,,,,,,,,,,,,,,,,,,,,,,,,,,,,,,,,,,,,,,,,,,,,,,,,,,37,flor,Spanish,Sounds/spa_flor.mp3,2020-06-25_09h14.55.725,TranslationElicitation_eng-prolific-spa,3.2.4,MacIntel,60,5eb9b011e926960deb4d6d91,,1,0,98,33,1,97
,,,,,,,,,,,,,,,,,,,,,,,,,,,,,,,,,,,,,,,,,return,3.13499999,,FALSE,,,,,,,2,avestruz,Spanish,Sounds/spa_avestruz.mp3,2020-06-25_09h14.55.725,TranslationElicitation_eng-prolific-spa,3.2.4,MacIntel,60,5eb9b011e926960deb4d6d91,3.13499999,1,0,98,0,1,97
,,,,,,,,,,,,,,,,,,,,,,,,,,,,,,,,,,,,,,,,,,,,,,,,,,,2,avestruz,Spanish,Sounds/spa_avestruz.mp3,2020-06-25_09h14.55.725,TranslationElicitation_eng-prolific-spa,3.2.4,MacIntel,60,5eb9b011e926960deb4d6d91,,1,0,98,0,1,97
,,,,,,,,,,,,,,,,,,,,,,,,,,,,,,,,,,,,,,,,,return,1.949999809,,FALSE,,,,,,,102,ventana,Spanish,Sounds/spa_ventana.mp3,2020-06-25_09h14.55.725,TranslationElicitation_eng-prolific-spa,3.2.4,MacIntel,60,5eb9b011e926960deb4d6d91,1.949999809,1,0,98,96,1,97
,,,,,,,,,,,,,,,,,,,,,,,,,,,,,,,,,,,,,,,,,,,,,,,,,,,102,ventana,Spanish,Sounds/spa_ventana.mp3,2020-06-25_09h14.55.725,TranslationElicitation_eng-prolific-spa,3.2.4,MacIntel,60,5eb9b011e926960deb4d6d91,,1,0,98,96,1,97
,,,,,,,,,,,,,,,,,,,,,,,,,,,,,,,,,,,,,,,,,return,1.452000141,,FALSE,,,,,,,81,pelota,Spanish,Sounds/spa_pelota.mp3,2020-06-25_09h14.55.725,TranslationElicitation_eng-prolific-spa,3.2.4,MacIntel,60,5eb9b011e926960deb4d6d91,1.452000141,1,0,98,76,1,97
,,,,,,,,,,,,,,,,,,,,,,,,,,,,,,,,,,,,,,,,,,,,,,,,,,,81,pelota,Spanish,Sounds/spa_pelota.mp3,2020-06-25_09h14.55.725,TranslationElicitation_eng-prolific-spa,3.2.4,MacIntel,60,5eb9b011e926960deb4d6d91,,1,0,98,76,1,97
,,,,,,,,,,,,,,,,,,,,,,,,,,,,,,,,,,,,,,,,,return,4.718999863,,FALSE,,,,,,,84,pie,Spanish,Sounds/spa_pie.mp3,2020-06-25_09h14.55.725,TranslationElicitation_eng-prolific-spa,3.2.4,MacIntel,60,5eb9b011e926960deb4d6d91,4.718999863,1,0,98,79,1,97
,,,,,,,,,,,,,,,,,,,,,,,,,,,,,,,,,,,,,,,,,,,,,,,,,,,84,pie,Spanish,Sounds/spa_pie.mp3,2020-06-25_09h14.55.725,TranslationElicitation_eng-prolific-spa,3.2.4,MacIntel,60,5eb9b011e926960deb4d6d91,,1,0,98,79,1,97
,,,,,,,,,,,,,,,,,,,,,,,,,,,,,,,,,,,,,,,,,return,2.149999857,,FALSE,,,,,,,10,botella,Spanish,Sounds/spa_botella.mp3,2020-06-25_09h14.55.725,TranslationElicitation_eng-prolific-spa,3.2.4,MacIntel,60,5eb9b011e926960deb4d6d91,2.149999857,1,0,98,8,1,97
,,,,,,,,,,,,,,,,,,,,,,,,,,,,,,,,,,,,,,,,,,,,,,,,,,,10,botella,Spanish,Sounds/spa_botella.mp3,2020-06-25_09h14.55.725,TranslationElicitation_eng-prolific-spa,3.2.4,MacIntel,60,5eb9b011e926960deb4d6d91,,1,0,98,8,1,97
,,,,,,,,,,,,,,,,,,,,,,,,,,,,,,,,,,,,,,,,,return,1.565999985,,FALSE,,,,,,,47,guitarra,Spanish,Sounds/spa_guitarra.mp3,2020-06-25_09h14.55.725,TranslationElicitation_eng-prolific-spa,3.2.4,MacIntel,60,5eb9b011e926960deb4d6d91,1.565999985,1,0,98,43,1,97
,,,,,,,,,,,,,,,,,,,,,,,,,,,,,,,,,,,,,,,,,,,,,,,,,,,47,guitarra,Spanish,Sounds/spa_guitarra.mp3,2020-06-25_09h14.55.725,TranslationElicitation_eng-prolific-spa,3.2.4,MacIntel,60,5eb9b011e926960deb4d6d91,,1,0,98,43,1,97
,,,,,,,,,,,,,,,,,,,,,,,,,,,,,,,,,,,,,,,,,return,2.552000046,,FALSE,,,,,,,66,moto,Spanish,Sounds/spa_moto.mp3,2020-06-25_09h14.55.725,TranslationElicitation_eng-prolific-spa,3.2.4,MacIntel,60,5eb9b011e926960deb4d6d91,2.552000046,1,0,98,62,1,97
,,,,,,,,,,,,,,,,,,,,,,,,,,,,,,,,,,,,,,,,,,,,,,,,,,,66,moto,Spanish,Sounds/spa_moto.mp3,2020-06-25_09h14.55.725,TranslationElicitation_eng-prolific-spa,3.2.4,MacIntel,60,5eb9b011e926960deb4d6d91,,1,0,98,62,1,97
,,,,,,,,,,,,,,,,,,,,,,,,,,,,,,,,,,,,,,,,,return,3.597999811,,FALSE,,,,,,,4,biberon,Spanish,Sounds/spa_biberon.mp3,2020-06-25_09h14.55.725,TranslationElicitation_eng-prolific-spa,3.2.4,MacIntel,60,5eb9b011e926960deb4d6d91,3.597999811,1,0,98,2,1,97
,,,,,,,,,,,,,,,,,,,,,,,,,,,,,,,,,,,,,,,,,,,,,,,,,,,4,biberon,Spanish,Sounds/spa_biberon.mp3,2020-06-25_09h14.55.725,TranslationElicitation_eng-prolific-spa,3.2.4,MacIntel,60,5eb9b011e926960deb4d6d91,,1,0,98,2,1,97
,,,,,,,,,,,,,,,,,,,,,,,,,,,,,,,,,,,,,,,,,return,2.282999992,,FALSE,,,,,,,82,perro,Spanish,Sounds/spa_perro.mp3,2020-06-25_09h14.55.725,TranslationElicitation_eng-prolific-spa,3.2.4,MacIntel,60,5eb9b011e926960deb4d6d91,2.282999992,1,0,98,77,1,97
,,,,,,,,,,,,,,,,,,,,,,,,,,,,,,,,,,,,,,,,,,,,,,,,,,,82,perro,Spanish,Sounds/spa_perro.mp3,2020-06-25_09h14.55.725,TranslationElicitation_eng-prolific-spa,3.2.4,MacIntel,60,5eb9b011e926960deb4d6d91,,1,0,98,77,1,97
,,,,,,,,,,,,,,,,,,,,,,,,,,,,,,,,,,,,,,,,,return,2.154000044,,FALSE,,,,,,,24,cereza,Spanish,Sounds/spa_cereza.mp3,2020-06-25_09h14.55.725,TranslationElicitation_eng-prolific-spa,3.2.4,MacIntel,60,5eb9b011e926960deb4d6d91,2.154000044,1,0,98,22,1,97
,,,,,,,,,,,,,,,,,,,,,,,,,,,,,,,,,,,,,,,,,,,,,,,,,,,24,cereza,Spanish,Sounds/spa_cereza.mp3,2020-06-25_09h14.55.725,TranslationElicitation_eng-prolific-spa,3.2.4,MacIntel,60,5eb9b011e926960deb4d6d91,,1,0,98,22,1,97
,,,,,,,,,,,,,,,,,,,,,,,,,,,,,,,,,,,,,,,,,return,1.767000198,,FALSE,,,,,,,95,tenedor,Spanish,Sounds/spa_tenedor.mp3,2020-06-25_09h14.55.725,TranslationElicitation_eng-prolific-spa,3.2.4,MacIntel,60,5eb9b011e926960deb4d6d91,1.767000198,1,0,98,90,1,97
,,,,,,,,,,,,,,,,,,,,,,,,,,,,,,,,,,,,,,,,,,,,,,,,,,,95,tenedor,Spanish,Sounds/spa_tenedor.mp3,2020-06-25_09h14.55.725,TranslationElicitation_eng-prolific-spa,3.2.4,MacIntel,60,5eb9b011e926960deb4d6d91,,1,0,98,90,1,97
,,,,,,,,,,,,,,,,,,,,,,,,,,,,,,,,,,,,,,,,,return,1.599999905,,FALSE,,,,,,,43,globo,Spanish,Sounds/spa_globo.mp3,2020-06-25_09h14.55.725,TranslationElicitation_eng-prolific-spa,3.2.4,MacIntel,60,5eb9b011e926960deb4d6d91,1.599999905,1,0,98,39,1,97
,,,,,,,,,,,,,,,,,,,,,,,,,,,,,,,,,,,,,,,,,,,,,,,,,,,43,globo,Spanish,Sounds/spa_globo.mp3,2020-06-25_09h14.55.725,TranslationElicitation_eng-prolific-spa,3.2.4,MacIntel,60,5eb9b011e926960deb4d6d91,,1,0,98,39,1,97
,,,,,,,,,,,,,,,,,,,,,,,,,,,,,,,,,,,,,,,,,return,1.887000084,,FALSE,,,,,,,35,esponja,Spanish,Sounds/spa_esponja.mp3,2020-06-25_09h14.55.725,TranslationElicitation_eng-prolific-spa,3.2.4,MacIntel,60,5eb9b011e926960deb4d6d91,1.887000084,1,0,98,31,1,97
,,,,,,,,,,,,,,,,,,,,,,,,,,,,,,,,,,,,,,,,,,,,,,,,,,,35,esponja,Spanish,Sounds/spa_esponja.mp3,2020-06-25_09h14.55.725,TranslationElicitation_eng-prolific-spa,3.2.4,MacIntel,60,5eb9b011e926960deb4d6d91,,1,0,98,31,1,97
