consentKey.keys,consentKey.rt,languageL1Key.keys,languageL1Key.rt,languageL2,languageL2OralKey.keys,languageL2OralKey.rt,languageL2WrittenKey.keys,languageL2WrittenKey.rt,languageL3OralKey.keys,languageL3OralKey.rt,languageL3WrittenKey.keys,languageL3WrittenKey.rt,languageCatalanOralKey.keys,languageCatalanOralKey.rt,languageCatalanWrittenKey.keys,languageCatalanWrittenKey.rt,languageCatalanTimeKey.keys,languageCatalanTimeKey.rt,languageSpanishOralKey.keys,languageSpanishOralKey.rt,languageSpanishWrittenKey.keys,languageSpanishWrittenKey.rt,languageSpanishTimeKey.keys,languageSpanishTimeKey.rt,age,demoSexKey.keys,demoSexKey.rt,demoEducationKey.keys,demoEducationKey.rt,city,demoVisionKey.keys,demoVisionKey.rt,demoLanguageKey.keys,demoLanguageKey.rt,setupLocationKey.keys,setupLocationKey.rt,setupNoiseKey.keys,setupNoiseKey.rt,instructionsKeys.keys,instructionsKeys.rt,keyPressed,keyPressTime,inputText,error,trialsPracticeSpanish.thisRepN,trialsPracticeSpanish.thisTrialN,trialsPracticeSpanish.thisN,trialsPracticeSpanish.thisIndex,trialsPracticeSpanish.ran,trialsPracticeSpanish.order,trial_id,word,test_language,soundfile,date,expName,psychopyVersion,OS,frameRate,participant,trialOffset,trialsSpanish.thisRepN,trialsSpanish.thisTrialN,trialsSpanish.thisN,trialsSpanish.thisIndex,trialsSpanish.ran,trialsSpanish.order
space,0.99000001,e,2.403000116,,,,,,,,,,1,4.38499999,1,7.781999826,1,6.521000147,1,2.198999882,1,1.819999933,1,0.996000051,20,m,1.389999866,3,6.438999891,LONDON,y,3.516000032,n,2.411999941,1,2.661000013,2,3.304999828,space,2.085000038,c,3.695999861,C,FALSE,1,0,5,2,1,4,26,chaqueta,Spanish,Sounds/spa_chaqueta.mp3,2020-06-11_10h20.39.483,TranslationElicitation_eng-prolific,3.2.4,Win32,60,5eb9e9546dffac12320418e9,,,,,,,
,,,,,,,,,,,,,,,,,,,,,,,,,,,,,,,,,,,,,,,,,h,4.111999989,CH,FALSE,1,0,5,2,1,4,26,chaqueta,Spanish,Sounds/spa_chaqueta.mp3,2020-06-11_10h20.39.483,TranslationElicitation_eng-prolific,3.2.4,Win32,60,5eb9e9546dffac12320418e9,,,,,,,
,,,,,,,,,,,,,,,,,,,,,,,,,,,,,,,,,,,,,,,,,a,4.529000044,CHA,FALSE,1,0,5,2,1,4,26,chaqueta,Spanish,Sounds/spa_chaqueta.mp3,2020-06-11_10h20.39.483,TranslationElicitation_eng-prolific,3.2.4,Win32,60,5eb9e9546dffac12320418e9,,,,,,,
,,,,,,,,,,,,,,,,,,,,,,,,,,,,,,,,,,,,,,,,,space,5.194999933,CHA ,FALSE,1,0,5,2,1,4,26,chaqueta,Spanish,Sounds/spa_chaqueta.mp3,2020-06-11_10h20.39.483,TranslationElicitation_eng-prolific,3.2.4,Win32,60,5eb9e9546dffac12320418e9,,,,,,,
,,,,,,,,,,,,,,,,,,,,,,,,,,,,,,,,,,,,,,,,,q,5.976999998,CHA Q,FALSE,1,0,5,2,1,4,26,chaqueta,Spanish,Sounds/spa_chaqueta.mp3,2020-06-11_10h20.39.483,TranslationElicitation_eng-prolific,3.2.4,Win32,60,5eb9e9546dffac12320418e9,,,,,,,
,,,,,,,,,,,,,,,,,,,,,,,,,,,,,,,,,,,,,,,,,u,6.109999895,CHA QU,FALSE,1,0,5,2,1,4,26,chaqueta,Spanish,Sounds/spa_chaqueta.mp3,2020-06-11_10h20.39.483,TranslationElicitation_eng-prolific,3.2.4,Win32,60,5eb9e9546dffac12320418e9,,,,,,,
,,,,,,,,,,,,,,,,,,,,,,,,,,,,,,,,,,,,,,,,,e,6.262000084,CHA QUE,FALSE,1,0,5,2,1,4,26,chaqueta,Spanish,Sounds/spa_chaqueta.mp3,2020-06-11_10h20.39.483,TranslationElicitation_eng-prolific,3.2.4,Win32,60,5eb9e9546dffac12320418e9,,,,,,,
,,,,,,,,,,,,,,,,,,,,,,,,,,,,,,,,,,,,,,,,,space,6.476999998,CHA QUE ,FALSE,1,0,5,2,1,4,26,chaqueta,Spanish,Sounds/spa_chaqueta.mp3,2020-06-11_10h20.39.483,TranslationElicitation_eng-prolific,3.2.4,Win32,60,5eb9e9546dffac12320418e9,,,,,,,
,,,,,,,,,,,,,,,,,,,,,,,,,,,,,,,,,,,,,,,,,t,6.592999935,CHA QUE T,FALSE,1,0,5,2,1,4,26,chaqueta,Spanish,Sounds/spa_chaqueta.mp3,2020-06-11_10h20.39.483,TranslationElicitation_eng-prolific,3.2.4,Win32,60,5eb9e9546dffac12320418e9,,,,,,,
,,,,,,,,,,,,,,,,,,,,,,,,,,,,,,,,,,,,,,,,,a,6.825999975,CHA QUE TA,FALSE,1,0,5,2,1,4,26,chaqueta,Spanish,Sounds/spa_chaqueta.mp3,2020-06-11_10h20.39.483,TranslationElicitation_eng-prolific,3.2.4,Win32,60,5eb9e9546dffac12320418e9,,,,,,,
,,,,,,,,,,,,,,,,,,,,,,,,,,,,,,,,,,,,,,,,,return,7.191999912,CHA QUE TA,FALSE,1,0,5,2,1,4,26,chaqueta,Spanish,Sounds/spa_chaqueta.mp3,2020-06-11_10h20.39.483,TranslationElicitation_eng-prolific,3.2.4,Win32,60,5eb9e9546dffac12320418e9,7.191999912,,,,,,
,,,,,,,,,,,,,,,,,,,,,,,,,,,,,,,,,,,,,,,,,,,,,1,0,5,2,1,4,26,chaqueta,Spanish,Sounds/spa_chaqueta.mp3,2020-06-11_10h20.39.483,TranslationElicitation_eng-prolific,3.2.4,Win32,60,5eb9e9546dffac12320418e9,,,,,,,
,,,,,,,,,,,,,,,,,,,,,,,,,,,,,,,,,,,,,,,,,h,2.065000057,H,FALSE,1,0,5,0,1,4,1,arbol,Spanish,Sounds/spa_arbol.mp3,2020-06-11_10h20.39.483,TranslationElicitation_eng-prolific,3.2.4,Win32,60,5eb9e9546dffac12320418e9,,,,,,,
,,,,,,,,,,,,,,,,,,,,,,,,,,,,,,,,,,,,,,,,,e,2.398000002,HE,FALSE,1,0,5,0,1,4,1,arbol,Spanish,Sounds/spa_arbol.mp3,2020-06-11_10h20.39.483,TranslationElicitation_eng-prolific,3.2.4,Win32,60,5eb9e9546dffac12320418e9,,,,,,,
,,,,,,,,,,,,,,,,,,,,,,,,,,,,,,,,,,,,,,,,,l,2.496999979,HEL,FALSE,1,0,5,0,1,4,1,arbol,Spanish,Sounds/spa_arbol.mp3,2020-06-11_10h20.39.483,TranslationElicitation_eng-prolific,3.2.4,Win32,60,5eb9e9546dffac12320418e9,,,,,,,
,,,,,,,,,,,,,,,,,,,,,,,,,,,,,,,,,,,,,,,,,l,2.597000122,HELL,FALSE,1,0,5,0,1,4,1,arbol,Spanish,Sounds/spa_arbol.mp3,2020-06-11_10h20.39.483,TranslationElicitation_eng-prolific,3.2.4,Win32,60,5eb9e9546dffac12320418e9,,,,,,,
,,,,,,,,,,,,,,,,,,,,,,,,,,,,,,,,,,,,,,,,,o,2.763999939,HELLO,FALSE,1,0,5,0,1,4,1,arbol,Spanish,Sounds/spa_arbol.mp3,2020-06-11_10h20.39.483,TranslationElicitation_eng-prolific,3.2.4,Win32,60,5eb9e9546dffac12320418e9,,,,,,,
,,,,,,,,,,,,,,,,,,,,,,,,,,,,,,,,,,,,,,,,,return,3.180000067,HELLO,FALSE,1,0,5,0,1,4,1,arbol,Spanish,Sounds/spa_arbol.mp3,2020-06-11_10h20.39.483,TranslationElicitation_eng-prolific,3.2.4,Win32,60,5eb9e9546dffac12320418e9,3.180000067,,,,,,
,,,,,,,,,,,,,,,,,,,,,,,,,,,,,,,,,,,,,,,,,,,,,1,0,5,0,1,4,1,arbol,Spanish,Sounds/spa_arbol.mp3,2020-06-11_10h20.39.483,TranslationElicitation_eng-prolific,3.2.4,Win32,60,5eb9e9546dffac12320418e9,,,,,,,
,,,,,,,,,,,,,,,,,,,,,,,,,,,,,,,,,,,,,,,,,c,2.996999979,C,FALSE,1,0,5,4,1,4,96,tigre,Spanish,Sounds/spa_tigre.mp3,2020-06-11_10h20.39.483,TranslationElicitation_eng-prolific,3.2.4,Win32,60,5eb9e9546dffac12320418e9,,,,,,,
,,,,,,,,,,,,,,,,,,,,,,,,,,,,,,,,,,,,,,,,,l,3.046000004,CL,FALSE,1,0,5,4,1,4,96,tigre,Spanish,Sounds/spa_tigre.mp3,2020-06-11_10h20.39.483,TranslationElicitation_eng-prolific,3.2.4,Win32,60,5eb9e9546dffac12320418e9,,,,,,,
,,,,,,,,,,,,,,,,,,,,,,,,,,,,,,,,,,,,,,,,,i,3.230000019,CLI,FALSE,1,0,5,4,1,4,96,tigre,Spanish,Sounds/spa_tigre.mp3,2020-06-11_10h20.39.483,TranslationElicitation_eng-prolific,3.2.4,Win32,60,5eb9e9546dffac12320418e9,,,,,,,
,,,,,,,,,,,,,,,,,,,,,,,,,,,,,,,,,,,,,,,,,n,3.412999868,CLIN,FALSE,1,0,5,4,1,4,96,tigre,Spanish,Sounds/spa_tigre.mp3,2020-06-11_10h20.39.483,TranslationElicitation_eng-prolific,3.2.4,Win32,60,5eb9e9546dffac12320418e9,,,,,,,
,,,,,,,,,,,,,,,,,,,,,,,,,,,,,,,,,,,,,,,,,g,3.478999853,CLING,FALSE,1,0,5,4,1,4,96,tigre,Spanish,Sounds/spa_tigre.mp3,2020-06-11_10h20.39.483,TranslationElicitation_eng-prolific,3.2.4,Win32,60,5eb9e9546dffac12320418e9,,,,,,,
,,,,,,,,,,,,,,,,,,,,,,,,,,,,,,,,,,,,,,,,,e,4.062000036,CLINGE,FALSE,1,0,5,4,1,4,96,tigre,Spanish,Sounds/spa_tigre.mp3,2020-06-11_10h20.39.483,TranslationElicitation_eng-prolific,3.2.4,Win32,60,5eb9e9546dffac12320418e9,,,,,,,
,,,,,,,,,,,,,,,,,,,,,,,,,,,,,,,,,,,,,,,,,l,4.312000036,CLINGEL,FALSE,1,0,5,4,1,4,96,tigre,Spanish,Sounds/spa_tigre.mp3,2020-06-11_10h20.39.483,TranslationElicitation_eng-prolific,3.2.4,Win32,60,5eb9e9546dffac12320418e9,,,,,,,
,,,,,,,,,,,,,,,,,,,,,,,,,,,,,,,,,,,,,,,,,e,4.511999846,CLINGELE,FALSE,1,0,5,4,1,4,96,tigre,Spanish,Sounds/spa_tigre.mp3,2020-06-11_10h20.39.483,TranslationElicitation_eng-prolific,3.2.4,Win32,60,5eb9e9546dffac12320418e9,,,,,,,
,,,,,,,,,,,,,,,,,,,,,,,,,,,,,,,,,,,,,,,,,return,4.893999815,CLINGELE,FALSE,1,0,5,4,1,4,96,tigre,Spanish,Sounds/spa_tigre.mp3,2020-06-11_10h20.39.483,TranslationElicitation_eng-prolific,3.2.4,Win32,60,5eb9e9546dffac12320418e9,4.893999815,,,,,,
,,,,,,,,,,,,,,,,,,,,,,,,,,,,,,,,,,,,,,,,,,,,,1,0,5,4,1,4,96,tigre,Spanish,Sounds/spa_tigre.mp3,2020-06-11_10h20.39.483,TranslationElicitation_eng-prolific,3.2.4,Win32,60,5eb9e9546dffac12320418e9,,,,,,,
,,,,,,,,,,,,,,,,,,,,,,,,,,,,,,,,,,,,,,,,,h,1.680999994,H,FALSE,1,0,5,3,1,4,70,ola,Spanish,Sounds/spa_ola.mp3,2020-06-11_10h20.39.483,TranslationElicitation_eng-prolific,3.2.4,Win32,60,5eb9e9546dffac12320418e9,,,,,,,
,,,,,,,,,,,,,,,,,,,,,,,,,,,,,,,,,,,,,,,,,o,1.898000002,HO,FALSE,1,0,5,3,1,4,70,ola,Spanish,Sounds/spa_ola.mp3,2020-06-11_10h20.39.483,TranslationElicitation_eng-prolific,3.2.4,Win32,60,5eb9e9546dffac12320418e9,,,,,,,
,,,,,,,,,,,,,,,,,,,,,,,,,,,,,,,,,,,,,,,,,l,2.04700017,HOL,FALSE,1,0,5,3,1,4,70,ola,Spanish,Sounds/spa_ola.mp3,2020-06-11_10h20.39.483,TranslationElicitation_eng-prolific,3.2.4,Win32,60,5eb9e9546dffac12320418e9,,,,,,,
,,,,,,,,,,,,,,,,,,,,,,,,,,,,,,,,,,,,,,,,,a,2.147000074,HOLA,FALSE,1,0,5,3,1,4,70,ola,Spanish,Sounds/spa_ola.mp3,2020-06-11_10h20.39.483,TranslationElicitation_eng-prolific,3.2.4,Win32,60,5eb9e9546dffac12320418e9,,,,,,,
,,,,,,,,,,,,,,,,,,,,,,,,,,,,,,,,,,,,,,,,,return,2.29700017,HOLA,FALSE,1,0,5,3,1,4,70,ola,Spanish,Sounds/spa_ola.mp3,2020-06-11_10h20.39.483,TranslationElicitation_eng-prolific,3.2.4,Win32,60,5eb9e9546dffac12320418e9,2.29700017,,,,,,
,,,,,,,,,,,,,,,,,,,,,,,,,,,,,,,,,,,,,,,,,,,,,1,0,5,3,1,4,70,ola,Spanish,Sounds/spa_ola.mp3,2020-06-11_10h20.39.483,TranslationElicitation_eng-prolific,3.2.4,Win32,60,5eb9e9546dffac12320418e9,,,,,,,
,,,,,,,,,,,,,,,,,,,,,,,,,,,,,,,,,,,,,,,,,c,1.582000017,C,FALSE,1,0,5,1,1,4,30,corona,Spanish,Sounds/spa_corona.mp3,2020-06-11_10h20.39.483,TranslationElicitation_eng-prolific,3.2.4,Win32,60,5eb9e9546dffac12320418e9,,,,,,,
,,,,,,,,,,,,,,,,,,,,,,,,,,,,,,,,,,,,,,,,,o,1.68200016,CO,FALSE,1,0,5,1,1,4,30,corona,Spanish,Sounds/spa_corona.mp3,2020-06-11_10h20.39.483,TranslationElicitation_eng-prolific,3.2.4,Win32,60,5eb9e9546dffac12320418e9,,,,,,,
,,,,,,,,,,,,,,,,,,,,,,,,,,,,,,,,,,,,,,,,,r,1.815000057,COR,FALSE,1,0,5,1,1,4,30,corona,Spanish,Sounds/spa_corona.mp3,2020-06-11_10h20.39.483,TranslationElicitation_eng-prolific,3.2.4,Win32,60,5eb9e9546dffac12320418e9,,,,,,,
,,,,,,,,,,,,,,,,,,,,,,,,,,,,,,,,,,,,,,,,,o,2.33100009,CORO,FALSE,1,0,5,1,1,4,30,corona,Spanish,Sounds/spa_corona.mp3,2020-06-11_10h20.39.483,TranslationElicitation_eng-prolific,3.2.4,Win32,60,5eb9e9546dffac12320418e9,,,,,,,
,,,,,,,,,,,,,,,,,,,,,,,,,,,,,,,,,,,,,,,,,n,2.54700017,CORON,FALSE,1,0,5,1,1,4,30,corona,Spanish,Sounds/spa_corona.mp3,2020-06-11_10h20.39.483,TranslationElicitation_eng-prolific,3.2.4,Win32,60,5eb9e9546dffac12320418e9,,,,,,,
,,,,,,,,,,,,,,,,,,,,,,,,,,,,,,,,,,,,,,,,,a,2.631000042,CORONA,FALSE,1,0,5,1,1,4,30,corona,Spanish,Sounds/spa_corona.mp3,2020-06-11_10h20.39.483,TranslationElicitation_eng-prolific,3.2.4,Win32,60,5eb9e9546dffac12320418e9,,,,,,,
,,,,,,,,,,,,,,,,,,,,,,,,,,,,,,,,,,,,,,,,,return,2.830000162,CORONA,FALSE,1,0,5,1,1,4,30,corona,Spanish,Sounds/spa_corona.mp3,2020-06-11_10h20.39.483,TranslationElicitation_eng-prolific,3.2.4,Win32,60,5eb9e9546dffac12320418e9,2.830000162,,,,,,
,,,,,,,,,,,,,,,,,,,,,,,,,,,,,,,,,,,,,,,,,,,,,1,0,5,1,1,4,30,corona,Spanish,Sounds/spa_corona.mp3,2020-06-11_10h20.39.483,TranslationElicitation_eng-prolific,3.2.4,Win32,60,5eb9e9546dffac12320418e9,,,,,,,
,,,,,,,,,,,,,,,,,,,,,,,,,,,,,,,,,,,,,,,,,b,1.715000153,B,FALSE,,,,,,,74,pajaro,Spanish,Sounds/spa_pajaro.mp3,2020-06-11_10h20.39.483,TranslationElicitation_eng-prolific,3.2.4,Win32,60,5eb9e9546dffac12320418e9,,1,0,98,69,1,97
,,,,,,,,,,,,,,,,,,,,,,,,,,,,,,,,,,,,,,,,,a,1.914000034,BA,FALSE,,,,,,,74,pajaro,Spanish,Sounds/spa_pajaro.mp3,2020-06-11_10h20.39.483,TranslationElicitation_eng-prolific,3.2.4,Win32,60,5eb9e9546dffac12320418e9,,1,0,98,69,1,97
,,,,,,,,,,,,,,,,,,,,,,,,,,,,,,,,,,,,,,,,,r,2.231000185,BAR,FALSE,,,,,,,74,pajaro,Spanish,Sounds/spa_pajaro.mp3,2020-06-11_10h20.39.483,TranslationElicitation_eng-prolific,3.2.4,Win32,60,5eb9e9546dffac12320418e9,,1,0,98,69,1,97
,,,,,,,,,,,,,,,,,,,,,,,,,,,,,,,,,,,,,,,,,space,3.080000162,BAR ,FALSE,,,,,,,74,pajaro,Spanish,Sounds/spa_pajaro.mp3,2020-06-11_10h20.39.483,TranslationElicitation_eng-prolific,3.2.4,Win32,60,5eb9e9546dffac12320418e9,,1,0,98,69,1,97
,,,,,,,,,,,,,,,,,,,,,,,,,,,,,,,,,,,,,,,,,h,3.330000162,BAR H,FALSE,,,,,,,74,pajaro,Spanish,Sounds/spa_pajaro.mp3,2020-06-11_10h20.39.483,TranslationElicitation_eng-prolific,3.2.4,Win32,60,5eb9e9546dffac12320418e9,,1,0,98,69,1,97
,,,,,,,,,,,,,,,,,,,,,,,,,,,,,,,,,,,,,,,,,a,3.479000092,BAR HA,FALSE,,,,,,,74,pajaro,Spanish,Sounds/spa_pajaro.mp3,2020-06-11_10h20.39.483,TranslationElicitation_eng-prolific,3.2.4,Win32,60,5eb9e9546dffac12320418e9,,1,0,98,69,1,97
,,,,,,,,,,,,,,,,,,,,,,,,,,,,,,,,,,,,,,,,,r,3.696000099,BAR HAR,FALSE,,,,,,,74,pajaro,Spanish,Sounds/spa_pajaro.mp3,2020-06-11_10h20.39.483,TranslationElicitation_eng-prolific,3.2.4,Win32,60,5eb9e9546dffac12320418e9,,1,0,98,69,1,97
,,,,,,,,,,,,,,,,,,,,,,,,,,,,,,,,,,,,,,,,,r,3.846000195,BAR HARR,FALSE,,,,,,,74,pajaro,Spanish,Sounds/spa_pajaro.mp3,2020-06-11_10h20.39.483,TranslationElicitation_eng-prolific,3.2.4,Win32,60,5eb9e9546dffac12320418e9,,1,0,98,69,1,97
,,,,,,,,,,,,,,,,,,,,,,,,,,,,,,,,,,,,,,,,,o,3.946000099,BAR HARRO,FALSE,,,,,,,74,pajaro,Spanish,Sounds/spa_pajaro.mp3,2020-06-11_10h20.39.483,TranslationElicitation_eng-prolific,3.2.4,Win32,60,5eb9e9546dffac12320418e9,,1,0,98,69,1,97
,,,,,,,,,,,,,,,,,,,,,,,,,,,,,,,,,,,,,,,,,return,4.262000084,BAR HARRO,FALSE,,,,,,,74,pajaro,Spanish,Sounds/spa_pajaro.mp3,2020-06-11_10h20.39.483,TranslationElicitation_eng-prolific,3.2.4,Win32,60,5eb9e9546dffac12320418e9,4.262000084,1,0,98,69,1,97
,,,,,,,,,,,,,,,,,,,,,,,,,,,,,,,,,,,,,,,,,,,,,,,,,,,74,pajaro,Spanish,Sounds/spa_pajaro.mp3,2020-06-11_10h20.39.483,TranslationElicitation_eng-prolific,3.2.4,Win32,60,5eb9e9546dffac12320418e9,,1,0,98,69,1,97
,,,,,,,,,,,,,,,,,,,,,,,,,,,,,,,,,,,,,,,,,e,1.914000034,E,FALSE,,,,,,,34,ensalada,Spanish,Sounds/spa_ensalada.mp3,2020-06-11_10h20.39.483,TranslationElicitation_eng-prolific,3.2.4,Win32,60,5eb9e9546dffac12320418e9,,1,0,98,30,1,97
,,,,,,,,,,,,,,,,,,,,,,,,,,,,,,,,,,,,,,,,,n,2.496000051,EN,FALSE,,,,,,,34,ensalada,Spanish,Sounds/spa_ensalada.mp3,2020-06-11_10h20.39.483,TranslationElicitation_eng-prolific,3.2.4,Win32,60,5eb9e9546dffac12320418e9,,1,0,98,30,1,97
,,,,,,,,,,,,,,,,,,,,,,,,,,,,,,,,,,,,,,,,,s,2.895999908,ENS,FALSE,,,,,,,34,ensalada,Spanish,Sounds/spa_ensalada.mp3,2020-06-11_10h20.39.483,TranslationElicitation_eng-prolific,3.2.4,Win32,60,5eb9e9546dffac12320418e9,,1,0,98,30,1,97
,,,,,,,,,,,,,,,,,,,,,,,,,,,,,,,,,,,,,,,,,a,3.128999949,ENSA,FALSE,,,,,,,34,ensalada,Spanish,Sounds/spa_ensalada.mp3,2020-06-11_10h20.39.483,TranslationElicitation_eng-prolific,3.2.4,Win32,60,5eb9e9546dffac12320418e9,,1,0,98,30,1,97
,,,,,,,,,,,,,,,,,,,,,,,,,,,,,,,,,,,,,,,,,l,3.262000084,ENSAL,FALSE,,,,,,,34,ensalada,Spanish,Sounds/spa_ensalada.mp3,2020-06-11_10h20.39.483,TranslationElicitation_eng-prolific,3.2.4,Win32,60,5eb9e9546dffac12320418e9,,1,0,98,30,1,97
,,,,,,,,,,,,,,,,,,,,,,,,,,,,,,,,,,,,,,,,,a,3.444999933,ENSALA,FALSE,,,,,,,34,ensalada,Spanish,Sounds/spa_ensalada.mp3,2020-06-11_10h20.39.483,TranslationElicitation_eng-prolific,3.2.4,Win32,60,5eb9e9546dffac12320418e9,,1,0,98,30,1,97
,,,,,,,,,,,,,,,,,,,,,,,,,,,,,,,,,,,,,,,,,d,3.745000124,ENSALAD,FALSE,,,,,,,34,ensalada,Spanish,Sounds/spa_ensalada.mp3,2020-06-11_10h20.39.483,TranslationElicitation_eng-prolific,3.2.4,Win32,60,5eb9e9546dffac12320418e9,,1,0,98,30,1,97
,,,,,,,,,,,,,,,,,,,,,,,,,,,,,,,,,,,,,,,,,a,3.911999941,ENSALADA,FALSE,,,,,,,34,ensalada,Spanish,Sounds/spa_ensalada.mp3,2020-06-11_10h20.39.483,TranslationElicitation_eng-prolific,3.2.4,Win32,60,5eb9e9546dffac12320418e9,,1,0,98,30,1,97
,,,,,,,,,,,,,,,,,,,,,,,,,,,,,,,,,,,,,,,,,return,4.378000021,ENSALADA,FALSE,,,,,,,34,ensalada,Spanish,Sounds/spa_ensalada.mp3,2020-06-11_10h20.39.483,TranslationElicitation_eng-prolific,3.2.4,Win32,60,5eb9e9546dffac12320418e9,4.378000021,1,0,98,30,1,97
,,,,,,,,,,,,,,,,,,,,,,,,,,,,,,,,,,,,,,,,,,,,,,,,,,,34,ensalada,Spanish,Sounds/spa_ensalada.mp3,2020-06-11_10h20.39.483,TranslationElicitation_eng-prolific,3.2.4,Win32,60,5eb9e9546dffac12320418e9,,1,0,98,30,1,97
,,,,,,,,,,,,,,,,,,,,,,,,,,,,,,,,,,,,,,,,,b,1.597000122,B,FALSE,,,,,,,89,pluma,Spanish,Sounds/spa_pluma.mp3,2020-06-11_10h20.39.483,TranslationElicitation_eng-prolific,3.2.4,Win32,60,5eb9e9546dffac12320418e9,,1,0,98,84,1,97
,,,,,,,,,,,,,,,,,,,,,,,,,,,,,,,,,,,,,,,,,l,1.930000067,BL,FALSE,,,,,,,89,pluma,Spanish,Sounds/spa_pluma.mp3,2020-06-11_10h20.39.483,TranslationElicitation_eng-prolific,3.2.4,Win32,60,5eb9e9546dffac12320418e9,,1,0,98,84,1,97
,,,,,,,,,,,,,,,,,,,,,,,,,,,,,,,,,,,,,,,,,o,2.130000114,BLO,FALSE,,,,,,,89,pluma,Spanish,Sounds/spa_pluma.mp3,2020-06-11_10h20.39.483,TranslationElicitation_eng-prolific,3.2.4,Win32,60,5eb9e9546dffac12320418e9,,1,0,98,84,1,97
,,,,,,,,,,,,,,,,,,,,,,,,,,,,,,,,,,,,,,,,,o,2.246000051,BLOO,FALSE,,,,,,,89,pluma,Spanish,Sounds/spa_pluma.mp3,2020-06-11_10h20.39.483,TranslationElicitation_eng-prolific,3.2.4,Win32,60,5eb9e9546dffac12320418e9,,1,0,98,84,1,97
,,,,,,,,,,,,,,,,,,,,,,,,,,,,,,,,,,,,,,,,,m,2.446000099,BLOOM,FALSE,,,,,,,89,pluma,Spanish,Sounds/spa_pluma.mp3,2020-06-11_10h20.39.483,TranslationElicitation_eng-prolific,3.2.4,Win32,60,5eb9e9546dffac12320418e9,,1,0,98,84,1,97
,,,,,,,,,,,,,,,,,,,,,,,,,,,,,,,,,,,,,,,,,a,2.779000044,BLOOMA,FALSE,,,,,,,89,pluma,Spanish,Sounds/spa_pluma.mp3,2020-06-11_10h20.39.483,TranslationElicitation_eng-prolific,3.2.4,Win32,60,5eb9e9546dffac12320418e9,,1,0,98,84,1,97
,,,,,,,,,,,,,,,,,,,,,,,,,,,,,,,,,,,,,,,,,return,2.996000051,BLOOMA,FALSE,,,,,,,89,pluma,Spanish,Sounds/spa_pluma.mp3,2020-06-11_10h20.39.483,TranslationElicitation_eng-prolific,3.2.4,Win32,60,5eb9e9546dffac12320418e9,2.996000051,1,0,98,84,1,97
,,,,,,,,,,,,,,,,,,,,,,,,,,,,,,,,,,,,,,,,,,,,,,,,,,,89,pluma,Spanish,Sounds/spa_pluma.mp3,2020-06-11_10h20.39.483,TranslationElicitation_eng-prolific,3.2.4,Win32,60,5eb9e9546dffac12320418e9,,1,0,98,84,1,97
,,,,,,,,,,,,,,,,,,,,,,,,,,,,,,,,,,,,,,,,,h,1.947999954,H,FALSE,,,,,,,15,caballo,Spanish,Sounds/spa_caballo.mp3,2020-06-11_10h20.39.483,TranslationElicitation_eng-prolific,3.2.4,Win32,60,5eb9e9546dffac12320418e9,,1,0,98,13,1,97
,,,,,,,,,,,,,,,,,,,,,,,,,,,,,,,,,,,,,,,,,a,2.096999884,HA,FALSE,,,,,,,15,caballo,Spanish,Sounds/spa_caballo.mp3,2020-06-11_10h20.39.483,TranslationElicitation_eng-prolific,3.2.4,Win32,60,5eb9e9546dffac12320418e9,,1,0,98,13,1,97
,,,,,,,,,,,,,,,,,,,,,,,,,,,,,,,,,,,,,,,,,v,2.296999931,HAV,FALSE,,,,,,,15,caballo,Spanish,Sounds/spa_caballo.mp3,2020-06-11_10h20.39.483,TranslationElicitation_eng-prolific,3.2.4,Win32,60,5eb9e9546dffac12320418e9,,1,0,98,13,1,97
,,,,,,,,,,,,,,,,,,,,,,,,,,,,,,,,,,,,,,,,,a,2.463999987,HAVA,FALSE,,,,,,,15,caballo,Spanish,Sounds/spa_caballo.mp3,2020-06-11_10h20.39.483,TranslationElicitation_eng-prolific,3.2.4,Win32,60,5eb9e9546dffac12320418e9,,1,0,98,13,1,97
,,,,,,,,,,,,,,,,,,,,,,,,,,,,,,,,,,,,,,,,,i,2.596999884,HAVAI,FALSE,,,,,,,15,caballo,Spanish,Sounds/spa_caballo.mp3,2020-06-11_10h20.39.483,TranslationElicitation_eng-prolific,3.2.4,Win32,60,5eb9e9546dffac12320418e9,,1,0,98,13,1,97
,,,,,,,,,,,,,,,,,,,,,,,,,,,,,,,,,,,,,,,,,o,3.961999893,HAVAIO,FALSE,,,,,,,15,caballo,Spanish,Sounds/spa_caballo.mp3,2020-06-11_10h20.39.483,TranslationElicitation_eng-prolific,3.2.4,Win32,60,5eb9e9546dffac12320418e9,,1,0,98,13,1,97
,,,,,,,,,,,,,,,,,,,,,,,,,,,,,,,,,,,,,,,,,return,4.177999973,HAVAIO,FALSE,,,,,,,15,caballo,Spanish,Sounds/spa_caballo.mp3,2020-06-11_10h20.39.483,TranslationElicitation_eng-prolific,3.2.4,Win32,60,5eb9e9546dffac12320418e9,4.177999973,1,0,98,13,1,97
,,,,,,,,,,,,,,,,,,,,,,,,,,,,,,,,,,,,,,,,,,,,,,,,,,,15,caballo,Spanish,Sounds/spa_caballo.mp3,2020-06-11_10h20.39.483,TranslationElicitation_eng-prolific,3.2.4,Win32,60,5eb9e9546dffac12320418e9,,1,0,98,13,1,97
,,,,,,,,,,,,,,,,,,,,,,,,,,,,,,,,,,,,,,,,,c,1.847999811,C,FALSE,,,,,,,19,camiseta,Spanish,Sounds/spa_camiseta.mp3,2020-06-11_10h20.39.483,TranslationElicitation_eng-prolific,3.2.4,Win32,60,5eb9e9546dffac12320418e9,,1,0,98,17,1,97
,,,,,,,,,,,,,,,,,,,,,,,,,,,,,,,,,,,,,,,,,a,2.662999868,CA,FALSE,,,,,,,19,camiseta,Spanish,Sounds/spa_camiseta.mp3,2020-06-11_10h20.39.483,TranslationElicitation_eng-prolific,3.2.4,Win32,60,5eb9e9546dffac12320418e9,,1,0,98,17,1,97
,,,,,,,,,,,,,,,,,,,,,,,,,,,,,,,,,,,,,,,,,m,2.779999971,CAM,FALSE,,,,,,,19,camiseta,Spanish,Sounds/spa_camiseta.mp3,2020-06-11_10h20.39.483,TranslationElicitation_eng-prolific,3.2.4,Win32,60,5eb9e9546dffac12320418e9,,1,0,98,17,1,97
,,,,,,,,,,,,,,,,,,,,,,,,,,,,,,,,,,,,,,,,,e,2.995999813,CAME,FALSE,,,,,,,19,camiseta,Spanish,Sounds/spa_camiseta.mp3,2020-06-11_10h20.39.483,TranslationElicitation_eng-prolific,3.2.4,Win32,60,5eb9e9546dffac12320418e9,,1,0,98,17,1,97
,,,,,,,,,,,,,,,,,,,,,,,,,,,,,,,,,,,,,,,,,c,3.345999956,CAMEC,FALSE,,,,,,,19,camiseta,Spanish,Sounds/spa_camiseta.mp3,2020-06-11_10h20.39.483,TranslationElicitation_eng-prolific,3.2.4,Win32,60,5eb9e9546dffac12320418e9,,1,0,98,17,1,97
,,,,,,,,,,,,,,,,,,,,,,,,,,,,,,,,,,,,,,,,,e,3.595999956,CAMECE,FALSE,,,,,,,19,camiseta,Spanish,Sounds/spa_camiseta.mp3,2020-06-11_10h20.39.483,TranslationElicitation_eng-prolific,3.2.4,Win32,60,5eb9e9546dffac12320418e9,,1,0,98,17,1,97
,,,,,,,,,,,,,,,,,,,,,,,,,,,,,,,,,,,,,,,,,t,3.861999989,CAMECET,FALSE,,,,,,,19,camiseta,Spanish,Sounds/spa_camiseta.mp3,2020-06-11_10h20.39.483,TranslationElicitation_eng-prolific,3.2.4,Win32,60,5eb9e9546dffac12320418e9,,1,0,98,17,1,97
,,,,,,,,,,,,,,,,,,,,,,,,,,,,,,,,,,,,,,,,,a,4.044999838,CAMECETA,FALSE,,,,,,,19,camiseta,Spanish,Sounds/spa_camiseta.mp3,2020-06-11_10h20.39.483,TranslationElicitation_eng-prolific,3.2.4,Win32,60,5eb9e9546dffac12320418e9,,1,0,98,17,1,97
,,,,,,,,,,,,,,,,,,,,,,,,,,,,,,,,,,,,,,,,,return,4.244999886,CAMECETA,FALSE,,,,,,,19,camiseta,Spanish,Sounds/spa_camiseta.mp3,2020-06-11_10h20.39.483,TranslationElicitation_eng-prolific,3.2.4,Win32,60,5eb9e9546dffac12320418e9,4.244999886,1,0,98,17,1,97
,,,,,,,,,,,,,,,,,,,,,,,,,,,,,,,,,,,,,,,,,,,,,,,,,,,19,camiseta,Spanish,Sounds/spa_camiseta.mp3,2020-06-11_10h20.39.483,TranslationElicitation_eng-prolific,3.2.4,Win32,60,5eb9e9546dffac12320418e9,,1,0,98,17,1,97
,,,,,,,,,,,,,,,,,,,,,,,,,,,,,,,,,,,,,,,,,q,1.513999939,Q,FALSE,,,,,,,40,galleta,Spanish,Sounds/spa_galleta.mp3,2020-06-11_10h20.39.483,TranslationElicitation_eng-prolific,3.2.4,Win32,60,5eb9e9546dffac12320418e9,,1,0,98,36,1,97
,,,,,,,,,,,,,,,,,,,,,,,,,,,,,,,,,,,,,,,,,u,1.647000074,QU,FALSE,,,,,,,40,galleta,Spanish,Sounds/spa_galleta.mp3,2020-06-11_10h20.39.483,TranslationElicitation_eng-prolific,3.2.4,Win32,60,5eb9e9546dffac12320418e9,,1,0,98,36,1,97
,,,,,,,,,,,,,,,,,,,,,,,,,,,,,,,,,,,,,,,,,a,1.829999924,QUA,FALSE,,,,,,,40,galleta,Spanish,Sounds/spa_galleta.mp3,2020-06-11_10h20.39.483,TranslationElicitation_eng-prolific,3.2.4,Win32,60,5eb9e9546dffac12320418e9,,1,0,98,36,1,97
,,,,,,,,,,,,,,,,,,,,,,,,,,,,,,,,,,,,,,,,,i,2.446000099,QUAI,FALSE,,,,,,,40,galleta,Spanish,Sounds/spa_galleta.mp3,2020-06-11_10h20.39.483,TranslationElicitation_eng-prolific,3.2.4,Win32,60,5eb9e9546dffac12320418e9,,1,0,98,36,1,97
,,,,,,,,,,,,,,,,,,,,,,,,,,,,,,,,,,,,,,,,,backspace,2.929000139,QUA,TRUE,,,,,,,40,galleta,Spanish,Sounds/spa_galleta.mp3,2020-06-11_10h20.39.483,TranslationElicitation_eng-prolific,3.2.4,Win32,60,5eb9e9546dffac12320418e9,,1,0,98,36,1,97
,,,,,,,,,,,,,,,,,,,,,,,,,,,,,,,,,,,,,,,,,e,3.046000004,QUAE,TRUE,,,,,,,40,galleta,Spanish,Sounds/spa_galleta.mp3,2020-06-11_10h20.39.483,TranslationElicitation_eng-prolific,3.2.4,Win32,60,5eb9e9546dffac12320418e9,,1,0,98,36,1,97
,,,,,,,,,,,,,,,,,,,,,,,,,,,,,,,,,,,,,,,,,t,3.194999933,QUAET,TRUE,,,,,,,40,galleta,Spanish,Sounds/spa_galleta.mp3,2020-06-11_10h20.39.483,TranslationElicitation_eng-prolific,3.2.4,Win32,60,5eb9e9546dffac12320418e9,,1,0,98,36,1,97
,,,,,,,,,,,,,,,,,,,,,,,,,,,,,,,,,,,,,,,,,a,3.628000021,QUAETA,TRUE,,,,,,,40,galleta,Spanish,Sounds/spa_galleta.mp3,2020-06-11_10h20.39.483,TranslationElicitation_eng-prolific,3.2.4,Win32,60,5eb9e9546dffac12320418e9,,1,0,98,36,1,97
,,,,,,,,,,,,,,,,,,,,,,,,,,,,,,,,,,,,,,,,,return,4.243999958,QUAETA,TRUE,,,,,,,40,galleta,Spanish,Sounds/spa_galleta.mp3,2020-06-11_10h20.39.483,TranslationElicitation_eng-prolific,3.2.4,Win32,60,5eb9e9546dffac12320418e9,4.243999958,1,0,98,36,1,97
,,,,,,,,,,,,,,,,,,,,,,,,,,,,,,,,,,,,,,,,,,,,,,,,,,,40,galleta,Spanish,Sounds/spa_galleta.mp3,2020-06-11_10h20.39.483,TranslationElicitation_eng-prolific,3.2.4,Win32,60,5eb9e9546dffac12320418e9,,1,0,98,36,1,97
,,,,,,,,,,,,,,,,,,,,,,,,,,,,,,,,,,,,,,,,,s,1.862999916,S,FALSE,,,,,,,24,cereza,Spanish,Sounds/spa_cereza.mp3,2020-06-11_10h20.39.483,TranslationElicitation_eng-prolific,3.2.4,Win32,60,5eb9e9546dffac12320418e9,,1,0,98,22,1,97
,,,,,,,,,,,,,,,,,,,,,,,,,,,,,,,,,,,,,,,,,e,2.062999964,SE,FALSE,,,,,,,24,cereza,Spanish,Sounds/spa_cereza.mp3,2020-06-11_10h20.39.483,TranslationElicitation_eng-prolific,3.2.4,Win32,60,5eb9e9546dffac12320418e9,,1,0,98,22,1,97
,,,,,,,,,,,,,,,,,,,,,,,,,,,,,,,,,,,,,,,,,r,2.178999901,SER,FALSE,,,,,,,24,cereza,Spanish,Sounds/spa_cereza.mp3,2020-06-11_10h20.39.483,TranslationElicitation_eng-prolific,3.2.4,Win32,60,5eb9e9546dffac12320418e9,,1,0,98,22,1,97
,,,,,,,,,,,,,,,,,,,,,,,,,,,,,,,,,,,,,,,,,a,2.445999861,SERA,FALSE,,,,,,,24,cereza,Spanish,Sounds/spa_cereza.mp3,2020-06-11_10h20.39.483,TranslationElicitation_eng-prolific,3.2.4,Win32,60,5eb9e9546dffac12320418e9,,1,0,98,22,1,97
,,,,,,,,,,,,,,,,,,,,,,,,,,,,,,,,,,,,,,,,,backspace,2.861999989,SER,TRUE,,,,,,,24,cereza,Spanish,Sounds/spa_cereza.mp3,2020-06-11_10h20.39.483,TranslationElicitation_eng-prolific,3.2.4,Win32,60,5eb9e9546dffac12320418e9,,1,0,98,22,1,97
,,,,,,,,,,,,,,,,,,,,,,,,,,,,,,,,,,,,,,,,,e,3.061999798,SERE,TRUE,,,,,,,24,cereza,Spanish,Sounds/spa_cereza.mp3,2020-06-11_10h20.39.483,TranslationElicitation_eng-prolific,3.2.4,Win32,60,5eb9e9546dffac12320418e9,,1,0,98,22,1,97
,,,,,,,,,,,,,,,,,,,,,,,,,,,,,,,,,,,,,,,,,t,3.177999973,SERET,TRUE,,,,,,,24,cereza,Spanish,Sounds/spa_cereza.mp3,2020-06-11_10h20.39.483,TranslationElicitation_eng-prolific,3.2.4,Win32,60,5eb9e9546dffac12320418e9,,1,0,98,22,1,97
,,,,,,,,,,,,,,,,,,,,,,,,,,,,,,,,,,,,,,,,,a,3.377999783,SERETA,TRUE,,,,,,,24,cereza,Spanish,Sounds/spa_cereza.mp3,2020-06-11_10h20.39.483,TranslationElicitation_eng-prolific,3.2.4,Win32,60,5eb9e9546dffac12320418e9,,1,0,98,22,1,97
,,,,,,,,,,,,,,,,,,,,,,,,,,,,,,,,,,,,,,,,,return,3.627999783,SERETA,TRUE,,,,,,,24,cereza,Spanish,Sounds/spa_cereza.mp3,2020-06-11_10h20.39.483,TranslationElicitation_eng-prolific,3.2.4,Win32,60,5eb9e9546dffac12320418e9,3.627999783,1,0,98,22,1,97
,,,,,,,,,,,,,,,,,,,,,,,,,,,,,,,,,,,,,,,,,,,,,,,,,,,24,cereza,Spanish,Sounds/spa_cereza.mp3,2020-06-11_10h20.39.483,TranslationElicitation_eng-prolific,3.2.4,Win32,60,5eb9e9546dffac12320418e9,,1,0,98,22,1,97
,,,,,,,,,,,,,,,,,,,,,,,,,,,,,,,,,,,,,,,,,i,1.84800005,I,FALSE,,,,,,,39,gafas,Spanish,Sounds/spa_gafas.mp3,2020-06-11_10h20.39.483,TranslationElicitation_eng-prolific,3.2.4,Win32,60,5eb9e9546dffac12320418e9,,1,0,98,35,1,97
,,,,,,,,,,,,,,,,,,,,,,,,,,,,,,,,,,,,,,,,,a,1.996999979,IA,FALSE,,,,,,,39,gafas,Spanish,Sounds/spa_gafas.mp3,2020-06-11_10h20.39.483,TranslationElicitation_eng-prolific,3.2.4,Win32,60,5eb9e9546dffac12320418e9,,1,0,98,35,1,97
,,,,,,,,,,,,,,,,,,,,,,,,,,,,,,,,,,,,,,,,,s,2.131000042,IAS,FALSE,,,,,,,39,gafas,Spanish,Sounds/spa_gafas.mp3,2020-06-11_10h20.39.483,TranslationElicitation_eng-prolific,3.2.4,Win32,60,5eb9e9546dffac12320418e9,,1,0,98,35,1,97
,,,,,,,,,,,,,,,,,,,,,,,,,,,,,,,,,,,,,,,,,p,2.513000011,IASP,FALSE,,,,,,,39,gafas,Spanish,Sounds/spa_gafas.mp3,2020-06-11_10h20.39.483,TranslationElicitation_eng-prolific,3.2.4,Win32,60,5eb9e9546dffac12320418e9,,1,0,98,35,1,97
,,,,,,,,,,,,,,,,,,,,,,,,,,,,,,,,,,,,,,,,,a,2.746000051,IASPA,FALSE,,,,,,,39,gafas,Spanish,Sounds/spa_gafas.mp3,2020-06-11_10h20.39.483,TranslationElicitation_eng-prolific,3.2.4,Win32,60,5eb9e9546dffac12320418e9,,1,0,98,35,1,97
,,,,,,,,,,,,,,,,,,,,,,,,,,,,,,,,,,,,,,,,,s,3.013000011,IASPAS,FALSE,,,,,,,39,gafas,Spanish,Sounds/spa_gafas.mp3,2020-06-11_10h20.39.483,TranslationElicitation_eng-prolific,3.2.4,Win32,60,5eb9e9546dffac12320418e9,,1,0,98,35,1,97
,,,,,,,,,,,,,,,,,,,,,,,,,,,,,,,,,,,,,,,,,return,3.213000059,IASPAS,FALSE,,,,,,,39,gafas,Spanish,Sounds/spa_gafas.mp3,2020-06-11_10h20.39.483,TranslationElicitation_eng-prolific,3.2.4,Win32,60,5eb9e9546dffac12320418e9,3.213000059,1,0,98,35,1,97
,,,,,,,,,,,,,,,,,,,,,,,,,,,,,,,,,,,,,,,,,,,,,,,,,,,39,gafas,Spanish,Sounds/spa_gafas.mp3,2020-06-11_10h20.39.483,TranslationElicitation_eng-prolific,3.2.4,Win32,60,5eb9e9546dffac12320418e9,,1,0,98,35,1,97
,,,,,,,,,,,,,,,,,,,,,,,,,,,,,,,,,,,,,,,,,b,1.730999947,B,FALSE,,,,,,,5,bici,Spanish,Sounds/spa_bici.mp3,2020-06-11_10h20.39.483,TranslationElicitation_eng-prolific,3.2.4,Win32,60,5eb9e9546dffac12320418e9,,1,0,98,3,1,97
,,,,,,,,,,,,,,,,,,,,,,,,,,,,,,,,,,,,,,,,,e,2.113999844,BE,FALSE,,,,,,,5,bici,Spanish,Sounds/spa_bici.mp3,2020-06-11_10h20.39.483,TranslationElicitation_eng-prolific,3.2.4,Win32,60,5eb9e9546dffac12320418e9,,1,0,98,3,1,97
,,,,,,,,,,,,,,,,,,,,,,,,,,,,,,,,,,,,,,,,,e,2.313999891,BEE,FALSE,,,,,,,5,bici,Spanish,Sounds/spa_bici.mp3,2020-06-11_10h20.39.483,TranslationElicitation_eng-prolific,3.2.4,Win32,60,5eb9e9546dffac12320418e9,,1,0,98,3,1,97
,,,,,,,,,,,,,,,,,,,,,,,,,,,,,,,,,,,,,,,,,f,2.480000019,BEEF,FALSE,,,,,,,5,bici,Spanish,Sounds/spa_bici.mp3,2020-06-11_10h20.39.483,TranslationElicitation_eng-prolific,3.2.4,Win32,60,5eb9e9546dffac12320418e9,,1,0,98,3,1,97
,,,,,,,,,,,,,,,,,,,,,,,,,,,,,,,,,,,,,,,,,y,3.145999908,BEEFY,FALSE,,,,,,,5,bici,Spanish,Sounds/spa_bici.mp3,2020-06-11_10h20.39.483,TranslationElicitation_eng-prolific,3.2.4,Win32,60,5eb9e9546dffac12320418e9,,1,0,98,3,1,97
,,,,,,,,,,,,,,,,,,,,,,,,,,,,,,,,,,,,,,,,,return,3.396999836,BEEFY,FALSE,,,,,,,5,bici,Spanish,Sounds/spa_bici.mp3,2020-06-11_10h20.39.483,TranslationElicitation_eng-prolific,3.2.4,Win32,60,5eb9e9546dffac12320418e9,3.396999836,1,0,98,3,1,97
,,,,,,,,,,,,,,,,,,,,,,,,,,,,,,,,,,,,,,,,,,,,,,,,,,,5,bici,Spanish,Sounds/spa_bici.mp3,2020-06-11_10h20.39.483,TranslationElicitation_eng-prolific,3.2.4,Win32,60,5eb9e9546dffac12320418e9,,1,0,98,3,1,97
,,,,,,,,,,,,,,,,,,,,,,,,,,,,,,,,,,,,,,,,,p,1.464999914,P,FALSE,,,,,,,80,pato,Spanish,Sounds/spa_pato.mp3,2020-06-11_10h20.39.483,TranslationElicitation_eng-prolific,3.2.4,Win32,60,5eb9e9546dffac12320418e9,,1,0,98,75,1,97
,,,,,,,,,,,,,,,,,,,,,,,,,,,,,,,,,,,,,,,,,a,1.747999907,PA,FALSE,,,,,,,80,pato,Spanish,Sounds/spa_pato.mp3,2020-06-11_10h20.39.483,TranslationElicitation_eng-prolific,3.2.4,Win32,60,5eb9e9546dffac12320418e9,,1,0,98,75,1,97
,,,,,,,,,,,,,,,,,,,,,,,,,,,,,,,,,,,,,,,,,r,1.914999962,PAR,FALSE,,,,,,,80,pato,Spanish,Sounds/spa_pato.mp3,2020-06-11_10h20.39.483,TranslationElicitation_eng-prolific,3.2.4,Win32,60,5eb9e9546dffac12320418e9,,1,0,98,75,1,97
,,,,,,,,,,,,,,,,,,,,,,,,,,,,,,,,,,,,,,,,,t,2.080999851,PART,FALSE,,,,,,,80,pato,Spanish,Sounds/spa_pato.mp3,2020-06-11_10h20.39.483,TranslationElicitation_eng-prolific,3.2.4,Win32,60,5eb9e9546dffac12320418e9,,1,0,98,75,1,97
,,,,,,,,,,,,,,,,,,,,,,,,,,,,,,,,,,,,,,,,,o,2.197999954,PARTO,FALSE,,,,,,,80,pato,Spanish,Sounds/spa_pato.mp3,2020-06-11_10h20.39.483,TranslationElicitation_eng-prolific,3.2.4,Win32,60,5eb9e9546dffac12320418e9,,1,0,98,75,1,97
,,,,,,,,,,,,,,,,,,,,,,,,,,,,,,,,,,,,,,,,,return,2.430999994,PARTO,FALSE,,,,,,,80,pato,Spanish,Sounds/spa_pato.mp3,2020-06-11_10h20.39.483,TranslationElicitation_eng-prolific,3.2.4,Win32,60,5eb9e9546dffac12320418e9,2.430999994,1,0,98,75,1,97
,,,,,,,,,,,,,,,,,,,,,,,,,,,,,,,,,,,,,,,,,,,,,,,,,,,80,pato,Spanish,Sounds/spa_pato.mp3,2020-06-11_10h20.39.483,TranslationElicitation_eng-prolific,3.2.4,Win32,60,5eb9e9546dffac12320418e9,,1,0,98,75,1,97
,,,,,,,,,,,,,,,,,,,,,,,,,,,,,,,,,,,,,,,,,t,1.618000031,T,FALSE,,,,,,,94,tambor,Spanish,Sounds/spa_tambor.mp3,2020-06-11_10h20.39.483,TranslationElicitation_eng-prolific,3.2.4,Win32,60,5eb9e9546dffac12320418e9,,1,0,98,89,1,97
,,,,,,,,,,,,,,,,,,,,,,,,,,,,,,,,,,,,,,,,,a,1.881000042,TA,FALSE,,,,,,,94,tambor,Spanish,Sounds/spa_tambor.mp3,2020-06-11_10h20.39.483,TranslationElicitation_eng-prolific,3.2.4,Win32,60,5eb9e9546dffac12320418e9,,1,0,98,89,1,97
,,,,,,,,,,,,,,,,,,,,,,,,,,,,,,,,,,,,,,,,,b,2.697000027,TAB,FALSE,,,,,,,94,tambor,Spanish,Sounds/spa_tambor.mp3,2020-06-11_10h20.39.483,TranslationElicitation_eng-prolific,3.2.4,Win32,60,5eb9e9546dffac12320418e9,,1,0,98,89,1,97
,,,,,,,,,,,,,,,,,,,,,,,,,,,,,,,,,,,,,,,,,o,3.096000195,TABO,FALSE,,,,,,,94,tambor,Spanish,Sounds/spa_tambor.mp3,2020-06-11_10h20.39.483,TranslationElicitation_eng-prolific,3.2.4,Win32,60,5eb9e9546dffac12320418e9,,1,0,98,89,1,97
,,,,,,,,,,,,,,,,,,,,,,,,,,,,,,,,,,,,,,,,,return,3.429000139,TABO,FALSE,,,,,,,94,tambor,Spanish,Sounds/spa_tambor.mp3,2020-06-11_10h20.39.483,TranslationElicitation_eng-prolific,3.2.4,Win32,60,5eb9e9546dffac12320418e9,3.429000139,1,0,98,89,1,97
,,,,,,,,,,,,,,,,,,,,,,,,,,,,,,,,,,,,,,,,,,,,,,,,,,,94,tambor,Spanish,Sounds/spa_tambor.mp3,2020-06-11_10h20.39.483,TranslationElicitation_eng-prolific,3.2.4,Win32,60,5eb9e9546dffac12320418e9,,1,0,98,89,1,97
,,,,,,,,,,,,,,,,,,,,,,,,,,,,,,,,,,,,,,,,,b,1.680999994,B,FALSE,,,,,,,91,puerta,Spanish,Sounds/spa_puerta.mp3,2020-06-11_10h20.39.483,TranslationElicitation_eng-prolific,3.2.4,Win32,60,5eb9e9546dffac12320418e9,,1,0,98,86,1,97
,,,,,,,,,,,,,,,,,,,,,,,,,,,,,,,,,,,,,,,,,u,2.447000027,BU,FALSE,,,,,,,91,puerta,Spanish,Sounds/spa_puerta.mp3,2020-06-11_10h20.39.483,TranslationElicitation_eng-prolific,3.2.4,Win32,60,5eb9e9546dffac12320418e9,,1,0,98,86,1,97
,,,,,,,,,,,,,,,,,,,,,,,,,,,,,,,,,,,,,,,,,e,2.647000074,BUE,FALSE,,,,,,,91,puerta,Spanish,Sounds/spa_puerta.mp3,2020-06-11_10h20.39.483,TranslationElicitation_eng-prolific,3.2.4,Win32,60,5eb9e9546dffac12320418e9,,1,0,98,86,1,97
,,,,,,,,,,,,,,,,,,,,,,,,,,,,,,,,,,,,,,,,,r,3.095999956,BUER,FALSE,,,,,,,91,puerta,Spanish,Sounds/spa_puerta.mp3,2020-06-11_10h20.39.483,TranslationElicitation_eng-prolific,3.2.4,Win32,60,5eb9e9546dffac12320418e9,,1,0,98,86,1,97
,,,,,,,,,,,,,,,,,,,,,,,,,,,,,,,,,,,,,,,,,t,3.378999949,BUERT,FALSE,,,,,,,91,puerta,Spanish,Sounds/spa_puerta.mp3,2020-06-11_10h20.39.483,TranslationElicitation_eng-prolific,3.2.4,Win32,60,5eb9e9546dffac12320418e9,,1,0,98,86,1,97
,,,,,,,,,,,,,,,,,,,,,,,,,,,,,,,,,,,,,,,,,a,3.578999996,BUERTA,FALSE,,,,,,,91,puerta,Spanish,Sounds/spa_puerta.mp3,2020-06-11_10h20.39.483,TranslationElicitation_eng-prolific,3.2.4,Win32,60,5eb9e9546dffac12320418e9,,1,0,98,86,1,97
,,,,,,,,,,,,,,,,,,,,,,,,,,,,,,,,,,,,,,,,,return,3.761999846,BUERTA,FALSE,,,,,,,91,puerta,Spanish,Sounds/spa_puerta.mp3,2020-06-11_10h20.39.483,TranslationElicitation_eng-prolific,3.2.4,Win32,60,5eb9e9546dffac12320418e9,3.761999846,1,0,98,86,1,97
,,,,,,,,,,,,,,,,,,,,,,,,,,,,,,,,,,,,,,,,,,,,,,,,,,,91,puerta,Spanish,Sounds/spa_puerta.mp3,2020-06-11_10h20.39.483,TranslationElicitation_eng-prolific,3.2.4,Win32,60,5eb9e9546dffac12320418e9,,1,0,98,86,1,97
,,,,,,,,,,,,,,,,,,,,,,,,,,,,,,,,,,,,,,,,,f,1.315000057,F,FALSE,,,,,,,37,flor,Spanish,Sounds/spa_flor.mp3,2020-06-11_10h20.39.483,TranslationElicitation_eng-prolific,3.2.4,Win32,60,5eb9e9546dffac12320418e9,,1,0,98,33,1,97
,,,,,,,,,,,,,,,,,,,,,,,,,,,,,,,,,,,,,,,,,l,1.414999962,FL,FALSE,,,,,,,37,flor,Spanish,Sounds/spa_flor.mp3,2020-06-11_10h20.39.483,TranslationElicitation_eng-prolific,3.2.4,Win32,60,5eb9e9546dffac12320418e9,,1,0,98,33,1,97
,,,,,,,,,,,,,,,,,,,,,,,,,,,,,,,,,,,,,,,,,o,1.664999962,FLO,FALSE,,,,,,,37,flor,Spanish,Sounds/spa_flor.mp3,2020-06-11_10h20.39.483,TranslationElicitation_eng-prolific,3.2.4,Win32,60,5eb9e9546dffac12320418e9,,1,0,98,33,1,97
,,,,,,,,,,,,,,,,,,,,,,,,,,,,,,,,,,,,,,,,,return,1.998000145,FLO,FALSE,,,,,,,37,flor,Spanish,Sounds/spa_flor.mp3,2020-06-11_10h20.39.483,TranslationElicitation_eng-prolific,3.2.4,Win32,60,5eb9e9546dffac12320418e9,1.998000145,1,0,98,33,1,97
,,,,,,,,,,,,,,,,,,,,,,,,,,,,,,,,,,,,,,,,,,,,,,,,,,,37,flor,Spanish,Sounds/spa_flor.mp3,2020-06-11_10h20.39.483,TranslationElicitation_eng-prolific,3.2.4,Win32,60,5eb9e9546dffac12320418e9,,1,0,98,33,1,97
,,,,,,,,,,,,,,,,,,,,,,,,,,,,,,,,,,,,,,,,,l,1.414999962,L,FALSE,,,,,,,43,globo,Spanish,Sounds/spa_globo.mp3,2020-06-11_10h20.39.483,TranslationElicitation_eng-prolific,3.2.4,Win32,60,5eb9e9546dffac12320418e9,,1,0,98,39,1,97
,,,,,,,,,,,,,,,,,,,,,,,,,,,,,,,,,,,,,,,,,o,1.582000017,LO,FALSE,,,,,,,43,globo,Spanish,Sounds/spa_globo.mp3,2020-06-11_10h20.39.483,TranslationElicitation_eng-prolific,3.2.4,Win32,60,5eb9e9546dffac12320418e9,,1,0,98,39,1,97
,,,,,,,,,,,,,,,,,,,,,,,,,,,,,,,,,,,,,,,,,w,1.680999994,LOW,FALSE,,,,,,,43,globo,Spanish,Sounds/spa_globo.mp3,2020-06-11_10h20.39.483,TranslationElicitation_eng-prolific,3.2.4,Win32,60,5eb9e9546dffac12320418e9,,1,0,98,39,1,97
,,,,,,,,,,,,,,,,,,,,,,,,,,,,,,,,,,,,,,,,,o,1.81400013,LOWO,FALSE,,,,,,,43,globo,Spanish,Sounds/spa_globo.mp3,2020-06-11_10h20.39.483,TranslationElicitation_eng-prolific,3.2.4,Win32,60,5eb9e9546dffac12320418e9,,1,0,98,39,1,97
,,,,,,,,,,,,,,,,,,,,,,,,,,,,,,,,,,,,,,,,,return,2.031000137,LOWO,FALSE,,,,,,,43,globo,Spanish,Sounds/spa_globo.mp3,2020-06-11_10h20.39.483,TranslationElicitation_eng-prolific,3.2.4,Win32,60,5eb9e9546dffac12320418e9,2.031000137,1,0,98,39,1,97
,,,,,,,,,,,,,,,,,,,,,,,,,,,,,,,,,,,,,,,,,,,,,,,,,,,43,globo,Spanish,Sounds/spa_globo.mp3,2020-06-11_10h20.39.483,TranslationElicitation_eng-prolific,3.2.4,Win32,60,5eb9e9546dffac12320418e9,,1,0,98,39,1,97
,,,,,,,,,,,,,,,,,,,,,,,,,,,,,,,,,,,,,,,,,n,1.59800005,N,FALSE,,,,,,,69,nariz,Spanish,Sounds/spa_nariz.mp3,2020-06-11_10h20.39.483,TranslationElicitation_eng-prolific,3.2.4,Win32,60,5eb9e9546dffac12320418e9,,1,0,98,65,1,97
,,,,,,,,,,,,,,,,,,,,,,,,,,,,,,,,,,,,,,,,,a,1.715000153,NA,FALSE,,,,,,,69,nariz,Spanish,Sounds/spa_nariz.mp3,2020-06-11_10h20.39.483,TranslationElicitation_eng-prolific,3.2.4,Win32,60,5eb9e9546dffac12320418e9,,1,0,98,65,1,97
,,,,,,,,,,,,,,,,,,,,,,,,,,,,,,,,,,,,,,,,,r,1.981000185,NAR,FALSE,,,,,,,69,nariz,Spanish,Sounds/spa_nariz.mp3,2020-06-11_10h20.39.483,TranslationElicitation_eng-prolific,3.2.4,Win32,60,5eb9e9546dffac12320418e9,,1,0,98,65,1,97
,,,,,,,,,,,,,,,,,,,,,,,,,,,,,,,,,,,,,,,,,i,2.231000185,NARI,FALSE,,,,,,,69,nariz,Spanish,Sounds/spa_nariz.mp3,2020-06-11_10h20.39.483,TranslationElicitation_eng-prolific,3.2.4,Win32,60,5eb9e9546dffac12320418e9,,1,0,98,65,1,97
,,,,,,,,,,,,,,,,,,,,,,,,,,,,,,,,,,,,,,,,,return,2.496999979,NARI,FALSE,,,,,,,69,nariz,Spanish,Sounds/spa_nariz.mp3,2020-06-11_10h20.39.483,TranslationElicitation_eng-prolific,3.2.4,Win32,60,5eb9e9546dffac12320418e9,2.496999979,1,0,98,65,1,97
,,,,,,,,,,,,,,,,,,,,,,,,,,,,,,,,,,,,,,,,,,,,,,,,,,,69,nariz,Spanish,Sounds/spa_nariz.mp3,2020-06-11_10h20.39.483,TranslationElicitation_eng-prolific,3.2.4,Win32,60,5eb9e9546dffac12320418e9,,1,0,98,65,1,97
,,,,,,,,,,,,,,,,,,,,,,,,,,,,,,,,,,,,,,,,,b,1.56400013,B,FALSE,,,,,,,90,pollo,Spanish,Sounds/spa_pollo.mp3,2020-06-11_10h20.39.483,TranslationElicitation_eng-prolific,3.2.4,Win32,60,5eb9e9546dffac12320418e9,,1,0,98,85,1,97
,,,,,,,,,,,,,,,,,,,,,,,,,,,,,,,,,,,,,,,,,o,1.664000034,BO,FALSE,,,,,,,90,pollo,Spanish,Sounds/spa_pollo.mp3,2020-06-11_10h20.39.483,TranslationElicitation_eng-prolific,3.2.4,Win32,60,5eb9e9546dffac12320418e9,,1,0,98,85,1,97
,,,,,,,,,,,,,,,,,,,,,,,,,,,,,,,,,,,,,,,,,y,2.03000021,BOY,FALSE,,,,,,,90,pollo,Spanish,Sounds/spa_pollo.mp3,2020-06-11_10h20.39.483,TranslationElicitation_eng-prolific,3.2.4,Win32,60,5eb9e9546dffac12320418e9,,1,0,98,85,1,97
,,,,,,,,,,,,,,,,,,,,,,,,,,,,,,,,,,,,,,,,,o,2.180000067,BOYO,FALSE,,,,,,,90,pollo,Spanish,Sounds/spa_pollo.mp3,2020-06-11_10h20.39.483,TranslationElicitation_eng-prolific,3.2.4,Win32,60,5eb9e9546dffac12320418e9,,1,0,98,85,1,97
,,,,,,,,,,,,,,,,,,,,,,,,,,,,,,,,,,,,,,,,,return,2.829000235,BOYO,FALSE,,,,,,,90,pollo,Spanish,Sounds/spa_pollo.mp3,2020-06-11_10h20.39.483,TranslationElicitation_eng-prolific,3.2.4,Win32,60,5eb9e9546dffac12320418e9,2.829000235,1,0,98,85,1,97
,,,,,,,,,,,,,,,,,,,,,,,,,,,,,,,,,,,,,,,,,,,,,,,,,,,90,pollo,Spanish,Sounds/spa_pollo.mp3,2020-06-11_10h20.39.483,TranslationElicitation_eng-prolific,3.2.4,Win32,60,5eb9e9546dffac12320418e9,,1,0,98,85,1,97
,,,,,,,,,,,,,,,,,,,,,,,,,,,,,,,,,,,,,,,,,b,1.531999826,B,FALSE,,,,,,,8,bol,Spanish,Sounds/spa_bol.mp3,2020-06-11_10h20.39.483,TranslationElicitation_eng-prolific,3.2.4,Win32,60,5eb9e9546dffac12320418e9,,1,0,98,6,1,97
,,,,,,,,,,,,,,,,,,,,,,,,,,,,,,,,,,,,,,,,,a,1.764999866,BA,FALSE,,,,,,,8,bol,Spanish,Sounds/spa_bol.mp3,2020-06-11_10h20.39.483,TranslationElicitation_eng-prolific,3.2.4,Win32,60,5eb9e9546dffac12320418e9,,1,0,98,6,1,97
,,,,,,,,,,,,,,,,,,,,,,,,,,,,,,,,,,,,,,,,,l,1.913999796,BAL,FALSE,,,,,,,8,bol,Spanish,Sounds/spa_bol.mp3,2020-06-11_10h20.39.483,TranslationElicitation_eng-prolific,3.2.4,Win32,60,5eb9e9546dffac12320418e9,,1,0,98,6,1,97
,,,,,,,,,,,,,,,,,,,,,,,,,,,,,,,,,,,,,,,,,l,2.047999859,BALL,FALSE,,,,,,,8,bol,Spanish,Sounds/spa_bol.mp3,2020-06-11_10h20.39.483,TranslationElicitation_eng-prolific,3.2.4,Win32,60,5eb9e9546dffac12320418e9,,1,0,98,6,1,97
,,,,,,,,,,,,,,,,,,,,,,,,,,,,,,,,,,,,,,,,,return,2.246999979,BALL,FALSE,,,,,,,8,bol,Spanish,Sounds/spa_bol.mp3,2020-06-11_10h20.39.483,TranslationElicitation_eng-prolific,3.2.4,Win32,60,5eb9e9546dffac12320418e9,2.246999979,1,0,98,6,1,97
,,,,,,,,,,,,,,,,,,,,,,,,,,,,,,,,,,,,,,,,,,,,,,,,,,,8,bol,Spanish,Sounds/spa_bol.mp3,2020-06-11_10h20.39.483,TranslationElicitation_eng-prolific,3.2.4,Win32,60,5eb9e9546dffac12320418e9,,1,0,98,6,1,97
,,,,,,,,,,,,,,,,,,,,,,,,,,,,,,,,,,,,,,,,,b,1.297999859,B,FALSE,,,,,,,49,hormiga,Spanish,Sounds/spa_hormiga.mp3,2020-06-11_10h20.39.483,TranslationElicitation_eng-prolific,3.2.4,Win32,60,5eb9e9546dffac12320418e9,,1,0,98,45,1,97
,,,,,,,,,,,,,,,,,,,,,,,,,,,,,,,,,,,,,,,,,o,1.398000002,BO,FALSE,,,,,,,49,hormiga,Spanish,Sounds/spa_hormiga.mp3,2020-06-11_10h20.39.483,TranslationElicitation_eng-prolific,3.2.4,Win32,60,5eb9e9546dffac12320418e9,,1,0,98,45,1,97
,,,,,,,,,,,,,,,,,,,,,,,,,,,,,,,,,,,,,,,,,r,1.547999859,BOR,FALSE,,,,,,,49,hormiga,Spanish,Sounds/spa_hormiga.mp3,2020-06-11_10h20.39.483,TranslationElicitation_eng-prolific,3.2.4,Win32,60,5eb9e9546dffac12320418e9,,1,0,98,45,1,97
,,,,,,,,,,,,,,,,,,,,,,,,,,,,,,,,,,,,,,,,,m,1.730999947,BORM,FALSE,,,,,,,49,hormiga,Spanish,Sounds/spa_hormiga.mp3,2020-06-11_10h20.39.483,TranslationElicitation_eng-prolific,3.2.4,Win32,60,5eb9e9546dffac12320418e9,,1,0,98,45,1,97
,,,,,,,,,,,,,,,,,,,,,,,,,,,,,,,,,,,,,,,,,e,1.863999844,BORME,FALSE,,,,,,,49,hormiga,Spanish,Sounds/spa_hormiga.mp3,2020-06-11_10h20.39.483,TranslationElicitation_eng-prolific,3.2.4,Win32,60,5eb9e9546dffac12320418e9,,1,0,98,45,1,97
,,,,,,,,,,,,,,,,,,,,,,,,,,,,,,,,,,,,,,,,,g,2.096999884,BORMEG,FALSE,,,,,,,49,hormiga,Spanish,Sounds/spa_hormiga.mp3,2020-06-11_10h20.39.483,TranslationElicitation_eng-prolific,3.2.4,Win32,60,5eb9e9546dffac12320418e9,,1,0,98,45,1,97
,,,,,,,,,,,,,,,,,,,,,,,,,,,,,,,,,,,,,,,,,a,2.246999979,BORMEGA,FALSE,,,,,,,49,hormiga,Spanish,Sounds/spa_hormiga.mp3,2020-06-11_10h20.39.483,TranslationElicitation_eng-prolific,3.2.4,Win32,60,5eb9e9546dffac12320418e9,,1,0,98,45,1,97
,,,,,,,,,,,,,,,,,,,,,,,,,,,,,,,,,,,,,,,,,return,2.315999985,BORMEGA,FALSE,,,,,,,49,hormiga,Spanish,Sounds/spa_hormiga.mp3,2020-06-11_10h20.39.483,TranslationElicitation_eng-prolific,3.2.4,Win32,60,5eb9e9546dffac12320418e9,2.315999985,1,0,98,45,1,97
,,,,,,,,,,,,,,,,,,,,,,,,,,,,,,,,,,,,,,,,,,,,,,,,,,,49,hormiga,Spanish,Sounds/spa_hormiga.mp3,2020-06-11_10h20.39.483,TranslationElicitation_eng-prolific,3.2.4,Win32,60,5eb9e9546dffac12320418e9,,1,0,98,45,1,97
,,,,,,,,,,,,,,,,,,,,,,,,,,,,,,,,,,,,,,,,,a,1.315000057,A,FALSE,,,,,,,59,mano,Spanish,Sounds/spa_mano.mp3,2020-06-11_10h20.39.483,TranslationElicitation_eng-prolific,3.2.4,Win32,60,5eb9e9546dffac12320418e9,,1,0,98,55,1,97
,,,,,,,,,,,,,,,,,,,,,,,,,,,,,,,,,,,,,,,,,n,1.381000042,AN,FALSE,,,,,,,59,mano,Spanish,Sounds/spa_mano.mp3,2020-06-11_10h20.39.483,TranslationElicitation_eng-prolific,3.2.4,Win32,60,5eb9e9546dffac12320418e9,,1,0,98,55,1,97
,,,,,,,,,,,,,,,,,,,,,,,,,,,,,,,,,,,,,,,,,o,1.565000057,ANO,FALSE,,,,,,,59,mano,Spanish,Sounds/spa_mano.mp3,2020-06-11_10h20.39.483,TranslationElicitation_eng-prolific,3.2.4,Win32,60,5eb9e9546dffac12320418e9,,1,0,98,55,1,97
,,,,,,,,,,,,,,,,,,,,,,,,,,,,,,,,,,,,,,,,,return,1.780999899,ANO,FALSE,,,,,,,59,mano,Spanish,Sounds/spa_mano.mp3,2020-06-11_10h20.39.483,TranslationElicitation_eng-prolific,3.2.4,Win32,60,5eb9e9546dffac12320418e9,1.780999899,1,0,98,55,1,97
,,,,,,,,,,,,,,,,,,,,,,,,,,,,,,,,,,,,,,,,,,,,,,,,,,,59,mano,Spanish,Sounds/spa_mano.mp3,2020-06-11_10h20.39.483,TranslationElicitation_eng-prolific,3.2.4,Win32,60,5eb9e9546dffac12320418e9,,1,0,98,55,1,97
,,,,,,,,,,,,,,,,,,,,,,,,,,,,,,,,,,,,,,,,,b,1.214999914,B,FALSE,,,,,,,31,cubo,Spanish,Sounds/spa_cubo.mp3,2020-06-11_10h20.39.483,TranslationElicitation_eng-prolific,3.2.4,Win32,60,5eb9e9546dffac12320418e9,,1,0,98,27,1,97
,,,,,,,,,,,,,,,,,,,,,,,,,,,,,,,,,,,,,,,,,u,1.497999907,BU,FALSE,,,,,,,31,cubo,Spanish,Sounds/spa_cubo.mp3,2020-06-11_10h20.39.483,TranslationElicitation_eng-prolific,3.2.4,Win32,60,5eb9e9546dffac12320418e9,,1,0,98,27,1,97
,,,,,,,,,,,,,,,,,,,,,,,,,,,,,,,,,,,,,,,,,r,1.631999969,BUR,FALSE,,,,,,,31,cubo,Spanish,Sounds/spa_cubo.mp3,2020-06-11_10h20.39.483,TranslationElicitation_eng-prolific,3.2.4,Win32,60,5eb9e9546dffac12320418e9,,1,0,98,27,1,97
,,,,,,,,,,,,,,,,,,,,,,,,,,,,,,,,,,,,,,,,,r,1.764999866,BURR,FALSE,,,,,,,31,cubo,Spanish,Sounds/spa_cubo.mp3,2020-06-11_10h20.39.483,TranslationElicitation_eng-prolific,3.2.4,Win32,60,5eb9e9546dffac12320418e9,,1,0,98,27,1,97
,,,,,,,,,,,,,,,,,,,,,,,,,,,,,,,,,,,,,,,,,o,2.164000034,BURRO,FALSE,,,,,,,31,cubo,Spanish,Sounds/spa_cubo.mp3,2020-06-11_10h20.39.483,TranslationElicitation_eng-prolific,3.2.4,Win32,60,5eb9e9546dffac12320418e9,,1,0,98,27,1,97
,,,,,,,,,,,,,,,,,,,,,,,,,,,,,,,,,,,,,,,,,return,2.546999931,BURRO,FALSE,,,,,,,31,cubo,Spanish,Sounds/spa_cubo.mp3,2020-06-11_10h20.39.483,TranslationElicitation_eng-prolific,3.2.4,Win32,60,5eb9e9546dffac12320418e9,2.546999931,1,0,98,27,1,97
,,,,,,,,,,,,,,,,,,,,,,,,,,,,,,,,,,,,,,,,,,,,,,,,,,,31,cubo,Spanish,Sounds/spa_cubo.mp3,2020-06-11_10h20.39.483,TranslationElicitation_eng-prolific,3.2.4,Win32,60,5eb9e9546dffac12320418e9,,1,0,98,27,1,97
,,,,,,,,,,,,,,,,,,,,,,,,,,,,,,,,,,,,,,,,,u,1.481999874,U,FALSE,,,,,,,6,boca,Spanish,Sounds/spa_boca.mp3,2020-06-11_10h20.39.483,TranslationElicitation_eng-prolific,3.2.4,Win32,60,5eb9e9546dffac12320418e9,,1,0,98,4,1,97
,,,,,,,,,,,,,,,,,,,,,,,,,,,,,,,,,,,,,,,,,r,1.681999922,UR,FALSE,,,,,,,6,boca,Spanish,Sounds/spa_boca.mp3,2020-06-11_10h20.39.483,TranslationElicitation_eng-prolific,3.2.4,Win32,60,5eb9e9546dffac12320418e9,,1,0,98,4,1,97
,,,,,,,,,,,,,,,,,,,,,,,,,,,,,,,,,,,,,,,,,backspace,2.09800005,U,TRUE,,,,,,,6,boca,Spanish,Sounds/spa_boca.mp3,2020-06-11_10h20.39.483,TranslationElicitation_eng-prolific,3.2.4,Win32,60,5eb9e9546dffac12320418e9,,1,0,98,4,1,97
,,,,,,,,,,,,,,,,,,,,,,,,,,,,,,,,,,,,,,,,,backspace,2.217999935,,TRUE,,,,,,,6,boca,Spanish,Sounds/spa_boca.mp3,2020-06-11_10h20.39.483,TranslationElicitation_eng-prolific,3.2.4,Win32,60,5eb9e9546dffac12320418e9,,1,0,98,4,1,97
,,,,,,,,,,,,,,,,,,,,,,,,,,,,,,,,,,,,,,,,,b,2.430999994,B,TRUE,,,,,,,6,boca,Spanish,Sounds/spa_boca.mp3,2020-06-11_10h20.39.483,TranslationElicitation_eng-prolific,3.2.4,Win32,60,5eb9e9546dffac12320418e9,,1,0,98,4,1,97
,,,,,,,,,,,,,,,,,,,,,,,,,,,,,,,,,,,,,,,,,u,2.796999931,BU,TRUE,,,,,,,6,boca,Spanish,Sounds/spa_boca.mp3,2020-06-11_10h20.39.483,TranslationElicitation_eng-prolific,3.2.4,Win32,60,5eb9e9546dffac12320418e9,,1,0,98,4,1,97
,,,,,,,,,,,,,,,,,,,,,,,,,,,,,,,,,,,,,,,,,r,2.963999987,BUR,TRUE,,,,,,,6,boca,Spanish,Sounds/spa_boca.mp3,2020-06-11_10h20.39.483,TranslationElicitation_eng-prolific,3.2.4,Win32,60,5eb9e9546dffac12320418e9,,1,0,98,4,1,97
,,,,,,,,,,,,,,,,,,,,,,,,,,,,,,,,,,,,,,,,,k,3.114000082,BURK,TRUE,,,,,,,6,boca,Spanish,Sounds/spa_boca.mp3,2020-06-11_10h20.39.483,TranslationElicitation_eng-prolific,3.2.4,Win32,60,5eb9e9546dffac12320418e9,,1,0,98,4,1,97
,,,,,,,,,,,,,,,,,,,,,,,,,,,,,,,,,,,,,,,,,a,3.296999931,BURKA,TRUE,,,,,,,6,boca,Spanish,Sounds/spa_boca.mp3,2020-06-11_10h20.39.483,TranslationElicitation_eng-prolific,3.2.4,Win32,60,5eb9e9546dffac12320418e9,,1,0,98,4,1,97
,,,,,,,,,,,,,,,,,,,,,,,,,,,,,,,,,,,,,,,,,return,3.480000019,BURKA,TRUE,,,,,,,6,boca,Spanish,Sounds/spa_boca.mp3,2020-06-11_10h20.39.483,TranslationElicitation_eng-prolific,3.2.4,Win32,60,5eb9e9546dffac12320418e9,3.480000019,1,0,98,4,1,97
,,,,,,,,,,,,,,,,,,,,,,,,,,,,,,,,,,,,,,,,,,,,,,,,,,,6,boca,Spanish,Sounds/spa_boca.mp3,2020-06-11_10h20.39.483,TranslationElicitation_eng-prolific,3.2.4,Win32,60,5eb9e9546dffac12320418e9,,1,0,98,4,1,97
,,,,,,,,,,,,,,,,,,,,,,,,,,,,,,,,,,,,,,,,,s,1.498000145,S,FALSE,,,,,,,25,cesta,Spanish,Sounds/spa_cesta.mp3,2020-06-11_10h20.39.483,TranslationElicitation_eng-prolific,3.2.4,Win32,60,5eb9e9546dffac12320418e9,,1,0,98,23,1,97
,,,,,,,,,,,,,,,,,,,,,,,,,,,,,,,,,,,,,,,,,e,1.765000105,SE,FALSE,,,,,,,25,cesta,Spanish,Sounds/spa_cesta.mp3,2020-06-11_10h20.39.483,TranslationElicitation_eng-prolific,3.2.4,Win32,60,5eb9e9546dffac12320418e9,,1,0,98,23,1,97
,,,,,,,,,,,,,,,,,,,,,,,,,,,,,,,,,,,,,,,,,s,1.948000193,SES,FALSE,,,,,,,25,cesta,Spanish,Sounds/spa_cesta.mp3,2020-06-11_10h20.39.483,TranslationElicitation_eng-prolific,3.2.4,Win32,60,5eb9e9546dffac12320418e9,,1,0,98,23,1,97
,,,,,,,,,,,,,,,,,,,,,,,,,,,,,,,,,,,,,,,,,t,2.114000082,SEST,FALSE,,,,,,,25,cesta,Spanish,Sounds/spa_cesta.mp3,2020-06-11_10h20.39.483,TranslationElicitation_eng-prolific,3.2.4,Win32,60,5eb9e9546dffac12320418e9,,1,0,98,23,1,97
,,,,,,,,,,,,,,,,,,,,,,,,,,,,,,,,,,,,,,,,,a,2.29700017,SESTA,FALSE,,,,,,,25,cesta,Spanish,Sounds/spa_cesta.mp3,2020-06-11_10h20.39.483,TranslationElicitation_eng-prolific,3.2.4,Win32,60,5eb9e9546dffac12320418e9,,1,0,98,23,1,97
,,,,,,,,,,,,,,,,,,,,,,,,,,,,,,,,,,,,,,,,,return,2.447000027,SESTA,FALSE,,,,,,,25,cesta,Spanish,Sounds/spa_cesta.mp3,2020-06-11_10h20.39.483,TranslationElicitation_eng-prolific,3.2.4,Win32,60,5eb9e9546dffac12320418e9,2.447000027,1,0,98,23,1,97
,,,,,,,,,,,,,,,,,,,,,,,,,,,,,,,,,,,,,,,,,,,,,,,,,,,25,cesta,Spanish,Sounds/spa_cesta.mp3,2020-06-11_10h20.39.483,TranslationElicitation_eng-prolific,3.2.4,Win32,60,5eb9e9546dffac12320418e9,,1,0,98,23,1,97
,,,,,,,,,,,,,,,,,,,,,,,,,,,,,,,,,,,,,,,,,u,1.548000097,U,FALSE,,,,,,,58,luna,Spanish,Sounds/spa_luna.mp3,2020-06-11_10h20.39.483,TranslationElicitation_eng-prolific,3.2.4,Win32,60,5eb9e9546dffac12320418e9,,1,0,98,54,1,97
,,,,,,,,,,,,,,,,,,,,,,,,,,,,,,,,,,,,,,,,,backspace,2.015000105,,TRUE,,,,,,,58,luna,Spanish,Sounds/spa_luna.mp3,2020-06-11_10h20.39.483,TranslationElicitation_eng-prolific,3.2.4,Win32,60,5eb9e9546dffac12320418e9,,1,0,98,54,1,97
,,,,,,,,,,,,,,,,,,,,,,,,,,,,,,,,,,,,,,,,,l,2.398000002,L,TRUE,,,,,,,58,luna,Spanish,Sounds/spa_luna.mp3,2020-06-11_10h20.39.483,TranslationElicitation_eng-prolific,3.2.4,Win32,60,5eb9e9546dffac12320418e9,,1,0,98,54,1,97
,,,,,,,,,,,,,,,,,,,,,,,,,,,,,,,,,,,,,,,,,u,2.746999979,LU,TRUE,,,,,,,58,luna,Spanish,Sounds/spa_luna.mp3,2020-06-11_10h20.39.483,TranslationElicitation_eng-prolific,3.2.4,Win32,60,5eb9e9546dffac12320418e9,,1,0,98,54,1,97
,,,,,,,,,,,,,,,,,,,,,,,,,,,,,,,,,,,,,,,,,n,2.930000067,LUN,TRUE,,,,,,,58,luna,Spanish,Sounds/spa_luna.mp3,2020-06-11_10h20.39.483,TranslationElicitation_eng-prolific,3.2.4,Win32,60,5eb9e9546dffac12320418e9,,1,0,98,54,1,97
,,,,,,,,,,,,,,,,,,,,,,,,,,,,,,,,,,,,,,,,,a,3.046999931,LUNA,TRUE,,,,,,,58,luna,Spanish,Sounds/spa_luna.mp3,2020-06-11_10h20.39.483,TranslationElicitation_eng-prolific,3.2.4,Win32,60,5eb9e9546dffac12320418e9,,1,0,98,54,1,97
,,,,,,,,,,,,,,,,,,,,,,,,,,,,,,,,,,,,,,,,,return,3.213000059,LUNA,TRUE,,,,,,,58,luna,Spanish,Sounds/spa_luna.mp3,2020-06-11_10h20.39.483,TranslationElicitation_eng-prolific,3.2.4,Win32,60,5eb9e9546dffac12320418e9,3.213000059,1,0,98,54,1,97
,,,,,,,,,,,,,,,,,,,,,,,,,,,,,,,,,,,,,,,,,,,,,,,,,,,58,luna,Spanish,Sounds/spa_luna.mp3,2020-06-11_10h20.39.483,TranslationElicitation_eng-prolific,3.2.4,Win32,60,5eb9e9546dffac12320418e9,,1,0,98,54,1,97
,,,,,,,,,,,,,,,,,,,,,,,,,,,,,,,,,,,,,,,,,o,1.482000113,O,FALSE,,,,,,,45,gorro,Spanish,Sounds/spa_gorro.mp3,2020-06-11_10h20.39.483,TranslationElicitation_eng-prolific,3.2.4,Win32,60,5eb9e9546dffac12320418e9,,1,0,98,41,1,97
,,,,,,,,,,,,,,,,,,,,,,,,,,,,,,,,,,,,,,,,,r,1.68200016,OR,FALSE,,,,,,,45,gorro,Spanish,Sounds/spa_gorro.mp3,2020-06-11_10h20.39.483,TranslationElicitation_eng-prolific,3.2.4,Win32,60,5eb9e9546dffac12320418e9,,1,0,98,41,1,97
,,,,,,,,,,,,,,,,,,,,,,,,,,,,,,,,,,,,,,,,,backspace,2.09800005,O,TRUE,,,,,,,45,gorro,Spanish,Sounds/spa_gorro.mp3,2020-06-11_10h20.39.483,TranslationElicitation_eng-prolific,3.2.4,Win32,60,5eb9e9546dffac12320418e9,,1,0,98,41,1,97
,,,,,,,,,,,,,,,,,,,,,,,,,,,,,,,,,,,,,,,,,backspace,2.214000225,,TRUE,,,,,,,45,gorro,Spanish,Sounds/spa_gorro.mp3,2020-06-11_10h20.39.483,TranslationElicitation_eng-prolific,3.2.4,Win32,60,5eb9e9546dffac12320418e9,,1,0,98,41,1,97
,,,,,,,,,,,,,,,,,,,,,,,,,,,,,,,,,,,,,,,,,g,2.364000082,G,TRUE,,,,,,,45,gorro,Spanish,Sounds/spa_gorro.mp3,2020-06-11_10h20.39.483,TranslationElicitation_eng-prolific,3.2.4,Win32,60,5eb9e9546dffac12320418e9,,1,0,98,41,1,97
,,,,,,,,,,,,,,,,,,,,,,,,,,,,,,,,,,,,,,,,,o,2.514000177,GO,TRUE,,,,,,,45,gorro,Spanish,Sounds/spa_gorro.mp3,2020-06-11_10h20.39.483,TranslationElicitation_eng-prolific,3.2.4,Win32,60,5eb9e9546dffac12320418e9,,1,0,98,41,1,97
,,,,,,,,,,,,,,,,,,,,,,,,,,,,,,,,,,,,,,,,,r,2.631000042,GOR,TRUE,,,,,,,45,gorro,Spanish,Sounds/spa_gorro.mp3,2020-06-11_10h20.39.483,TranslationElicitation_eng-prolific,3.2.4,Win32,60,5eb9e9546dffac12320418e9,,1,0,98,41,1,97
,,,,,,,,,,,,,,,,,,,,,,,,,,,,,,,,,,,,,,,,,a,2.947000027,GORA,TRUE,,,,,,,45,gorro,Spanish,Sounds/spa_gorro.mp3,2020-06-11_10h20.39.483,TranslationElicitation_eng-prolific,3.2.4,Win32,60,5eb9e9546dffac12320418e9,,1,0,98,41,1,97
,,,,,,,,,,,,,,,,,,,,,,,,,,,,,,,,,,,,,,,,,backspace,3.247000217,GOR,TRUE,,,,,,,45,gorro,Spanish,Sounds/spa_gorro.mp3,2020-06-11_10h20.39.483,TranslationElicitation_eng-prolific,3.2.4,Win32,60,5eb9e9546dffac12320418e9,,1,0,98,41,1,97
,,,,,,,,,,,,,,,,,,,,,,,,,,,,,,,,,,,,,,,,,o,3.497000217,GORO,TRUE,,,,,,,45,gorro,Spanish,Sounds/spa_gorro.mp3,2020-06-11_10h20.39.483,TranslationElicitation_eng-prolific,3.2.4,Win32,60,5eb9e9546dffac12320418e9,,1,0,98,41,1,97
,,,,,,,,,,,,,,,,,,,,,,,,,,,,,,,,,,,,,,,,,return,3.980000019,GORO,TRUE,,,,,,,45,gorro,Spanish,Sounds/spa_gorro.mp3,2020-06-11_10h20.39.483,TranslationElicitation_eng-prolific,3.2.4,Win32,60,5eb9e9546dffac12320418e9,3.980000019,1,0,98,41,1,97
,,,,,,,,,,,,,,,,,,,,,,,,,,,,,,,,,,,,,,,,,,,,,,,,,,,45,gorro,Spanish,Sounds/spa_gorro.mp3,2020-06-11_10h20.39.483,TranslationElicitation_eng-prolific,3.2.4,Win32,60,5eb9e9546dffac12320418e9,,1,0,98,41,1,97
,,,,,,,,,,,,,,,,,,,,,,,,,,,,,,,,,,,,,,,,,c,1.364000082,C,FALSE,,,,,,,18,camisa,Spanish,Sounds/spa_camisa.mp3,2020-06-11_10h20.39.483,TranslationElicitation_eng-prolific,3.2.4,Win32,60,5eb9e9546dffac12320418e9,,1,0,98,16,1,97
,,,,,,,,,,,,,,,,,,,,,,,,,,,,,,,,,,,,,,,,,a,1.531000137,CA,FALSE,,,,,,,18,camisa,Spanish,Sounds/spa_camisa.mp3,2020-06-11_10h20.39.483,TranslationElicitation_eng-prolific,3.2.4,Win32,60,5eb9e9546dffac12320418e9,,1,0,98,16,1,97
,,,,,,,,,,,,,,,,,,,,,,,,,,,,,,,,,,,,,,,,,m,1.648999929,CAM,FALSE,,,,,,,18,camisa,Spanish,Sounds/spa_camisa.mp3,2020-06-11_10h20.39.483,TranslationElicitation_eng-prolific,3.2.4,Win32,60,5eb9e9546dffac12320418e9,,1,0,98,16,1,97
,,,,,,,,,,,,,,,,,,,,,,,,,,,,,,,,,,,,,,,,,i,1.963999987,CAMI,FALSE,,,,,,,18,camisa,Spanish,Sounds/spa_camisa.mp3,2020-06-11_10h20.39.483,TranslationElicitation_eng-prolific,3.2.4,Win32,60,5eb9e9546dffac12320418e9,,1,0,98,16,1,97
,,,,,,,,,,,,,,,,,,,,,,,,,,,,,,,,,,,,,,,,,c,2.130000114,CAMIC,FALSE,,,,,,,18,camisa,Spanish,Sounds/spa_camisa.mp3,2020-06-11_10h20.39.483,TranslationElicitation_eng-prolific,3.2.4,Win32,60,5eb9e9546dffac12320418e9,,1,0,98,16,1,97
,,,,,,,,,,,,,,,,,,,,,,,,,,,,,,,,,,,,,,,,,a,2.299999952,CAMICA,FALSE,,,,,,,18,camisa,Spanish,Sounds/spa_camisa.mp3,2020-06-11_10h20.39.483,TranslationElicitation_eng-prolific,3.2.4,Win32,60,5eb9e9546dffac12320418e9,,1,0,98,16,1,97
,,,,,,,,,,,,,,,,,,,,,,,,,,,,,,,,,,,,,,,,,return,2.480000019,CAMICA,FALSE,,,,,,,18,camisa,Spanish,Sounds/spa_camisa.mp3,2020-06-11_10h20.39.483,TranslationElicitation_eng-prolific,3.2.4,Win32,60,5eb9e9546dffac12320418e9,2.480000019,1,0,98,16,1,97
,,,,,,,,,,,,,,,,,,,,,,,,,,,,,,,,,,,,,,,,,,,,,,,,,,,18,camisa,Spanish,Sounds/spa_camisa.mp3,2020-06-11_10h20.39.483,TranslationElicitation_eng-prolific,3.2.4,Win32,60,5eb9e9546dffac12320418e9,,1,0,98,16,1,97
,,,,,,,,,,,,,,,,,,,,,,,,,,,,,,,,,,,,,,,,,b,2.679999828,B,FALSE,,,,,,,48,gusano,Spanish,Sounds/spa_gusano.mp3,2020-06-11_10h20.39.483,TranslationElicitation_eng-prolific,3.2.4,Win32,60,5eb9e9546dffac12320418e9,,1,0,98,44,1,97
,,,,,,,,,,,,,,,,,,,,,,,,,,,,,,,,,,,,,,,,,u,2.947000027,BU,FALSE,,,,,,,48,gusano,Spanish,Sounds/spa_gusano.mp3,2020-06-11_10h20.39.483,TranslationElicitation_eng-prolific,3.2.4,Win32,60,5eb9e9546dffac12320418e9,,1,0,98,44,1,97
,,,,,,,,,,,,,,,,,,,,,,,,,,,,,,,,,,,,,,,,,s,3.112999916,BUS,FALSE,,,,,,,48,gusano,Spanish,Sounds/spa_gusano.mp3,2020-06-11_10h20.39.483,TranslationElicitation_eng-prolific,3.2.4,Win32,60,5eb9e9546dffac12320418e9,,1,0,98,44,1,97
,,,,,,,,,,,,,,,,,,,,,,,,,,,,,,,,,,,,,,,,,a,3.312999964,BUSA,FALSE,,,,,,,48,gusano,Spanish,Sounds/spa_gusano.mp3,2020-06-11_10h20.39.483,TranslationElicitation_eng-prolific,3.2.4,Win32,60,5eb9e9546dffac12320418e9,,1,0,98,44,1,97
,,,,,,,,,,,,,,,,,,,,,,,,,,,,,,,,,,,,,,,,,n,3.712999821,BUSAN,FALSE,,,,,,,48,gusano,Spanish,Sounds/spa_gusano.mp3,2020-06-11_10h20.39.483,TranslationElicitation_eng-prolific,3.2.4,Win32,60,5eb9e9546dffac12320418e9,,1,0,98,44,1,97
,,,,,,,,,,,,,,,,,,,,,,,,,,,,,,,,,,,,,,,,,o,3.928999901,BUSANO,FALSE,,,,,,,48,gusano,Spanish,Sounds/spa_gusano.mp3,2020-06-11_10h20.39.483,TranslationElicitation_eng-prolific,3.2.4,Win32,60,5eb9e9546dffac12320418e9,,1,0,98,44,1,97
,,,,,,,,,,,,,,,,,,,,,,,,,,,,,,,,,,,,,,,,,return,4.228999853,BUSANO,FALSE,,,,,,,48,gusano,Spanish,Sounds/spa_gusano.mp3,2020-06-11_10h20.39.483,TranslationElicitation_eng-prolific,3.2.4,Win32,60,5eb9e9546dffac12320418e9,4.228999853,1,0,98,44,1,97
,,,,,,,,,,,,,,,,,,,,,,,,,,,,,,,,,,,,,,,,,,,,,,,,,,,48,gusano,Spanish,Sounds/spa_gusano.mp3,2020-06-11_10h20.39.483,TranslationElicitation_eng-prolific,3.2.4,Win32,60,5eb9e9546dffac12320418e9,,1,0,98,44,1,97
,,,,,,,,,,,,,,,,,,,,,,,,,,,,,,,,,,,,,,,,,b,1.36500001,B,FALSE,,,,,,,87,platano,Spanish,Sounds/spa_platano.mp3,2020-06-11_10h20.39.483,TranslationElicitation_eng-prolific,3.2.4,Win32,60,5eb9e9546dffac12320418e9,,1,0,98,82,1,97
,,,,,,,,,,,,,,,,,,,,,,,,,,,,,,,,,,,,,,,,,l,1.482000113,BL,FALSE,,,,,,,87,platano,Spanish,Sounds/spa_platano.mp3,2020-06-11_10h20.39.483,TranslationElicitation_eng-prolific,3.2.4,Win32,60,5eb9e9546dffac12320418e9,,1,0,98,82,1,97
,,,,,,,,,,,,,,,,,,,,,,,,,,,,,,,,,,,,,,,,,a,1.697999954,BLA,FALSE,,,,,,,87,platano,Spanish,Sounds/spa_platano.mp3,2020-06-11_10h20.39.483,TranslationElicitation_eng-prolific,3.2.4,Win32,60,5eb9e9546dffac12320418e9,,1,0,98,82,1,97
,,,,,,,,,,,,,,,,,,,,,,,,,,,,,,,,,,,,,,,,,t,1.864000082,BLAT,FALSE,,,,,,,87,platano,Spanish,Sounds/spa_platano.mp3,2020-06-11_10h20.39.483,TranslationElicitation_eng-prolific,3.2.4,Win32,60,5eb9e9546dffac12320418e9,,1,0,98,82,1,97
,,,,,,,,,,,,,,,,,,,,,,,,,,,,,,,,,,,,,,,,,a,2.046999931,BLATA,FALSE,,,,,,,87,platano,Spanish,Sounds/spa_platano.mp3,2020-06-11_10h20.39.483,TranslationElicitation_eng-prolific,3.2.4,Win32,60,5eb9e9546dffac12320418e9,,1,0,98,82,1,97
,,,,,,,,,,,,,,,,,,,,,,,,,,,,,,,,,,,,,,,,,n,2.131000042,BLATAN,FALSE,,,,,,,87,platano,Spanish,Sounds/spa_platano.mp3,2020-06-11_10h20.39.483,TranslationElicitation_eng-prolific,3.2.4,Win32,60,5eb9e9546dffac12320418e9,,1,0,98,82,1,97
,,,,,,,,,,,,,,,,,,,,,,,,,,,,,,,,,,,,,,,,,o,2.347000122,BLATANO,FALSE,,,,,,,87,platano,Spanish,Sounds/spa_platano.mp3,2020-06-11_10h20.39.483,TranslationElicitation_eng-prolific,3.2.4,Win32,60,5eb9e9546dffac12320418e9,,1,0,98,82,1,97
,,,,,,,,,,,,,,,,,,,,,,,,,,,,,,,,,,,,,,,,,return,2.612999916,BLATANO,FALSE,,,,,,,87,platano,Spanish,Sounds/spa_platano.mp3,2020-06-11_10h20.39.483,TranslationElicitation_eng-prolific,3.2.4,Win32,60,5eb9e9546dffac12320418e9,2.612999916,1,0,98,82,1,97
,,,,,,,,,,,,,,,,,,,,,,,,,,,,,,,,,,,,,,,,,,,,,,,,,,,87,platano,Spanish,Sounds/spa_platano.mp3,2020-06-11_10h20.39.483,TranslationElicitation_eng-prolific,3.2.4,Win32,60,5eb9e9546dffac12320418e9,,1,0,98,82,1,97
,,,,,,,,,,,,,,,,,,,,,,,,,,,,,,,,,,,,,,,,,l,1.36500001,L,FALSE,,,,,,,56,libro,Spanish,Sounds/spa_libro.mp3,2020-06-11_10h20.39.483,TranslationElicitation_eng-prolific,3.2.4,Win32,60,5eb9e9546dffac12320418e9,,1,0,98,52,1,97
,,,,,,,,,,,,,,,,,,,,,,,,,,,,,,,,,,,,,,,,,i,1.698000193,LI,FALSE,,,,,,,56,libro,Spanish,Sounds/spa_libro.mp3,2020-06-11_10h20.39.483,TranslationElicitation_eng-prolific,3.2.4,Win32,60,5eb9e9546dffac12320418e9,,1,0,98,52,1,97
,,,,,,,,,,,,,,,,,,,,,,,,,,,,,,,,,,,,,,,,,b,1.914000034,LIB,FALSE,,,,,,,56,libro,Spanish,Sounds/spa_libro.mp3,2020-06-11_10h20.39.483,TranslationElicitation_eng-prolific,3.2.4,Win32,60,5eb9e9546dffac12320418e9,,1,0,98,52,1,97
,,,,,,,,,,,,,,,,,,,,,,,,,,,,,,,,,,,,,,,,,r,2.198000193,LIBR,FALSE,,,,,,,56,libro,Spanish,Sounds/spa_libro.mp3,2020-06-11_10h20.39.483,TranslationElicitation_eng-prolific,3.2.4,Win32,60,5eb9e9546dffac12320418e9,,1,0,98,52,1,97
,,,,,,,,,,,,,,,,,,,,,,,,,,,,,,,,,,,,,,,,,o,2.397000074,LIBRO,FALSE,,,,,,,56,libro,Spanish,Sounds/spa_libro.mp3,2020-06-11_10h20.39.483,TranslationElicitation_eng-prolific,3.2.4,Win32,60,5eb9e9546dffac12320418e9,,1,0,98,52,1,97
,,,,,,,,,,,,,,,,,,,,,,,,,,,,,,,,,,,,,,,,,return,2.680000067,LIBRO,FALSE,,,,,,,56,libro,Spanish,Sounds/spa_libro.mp3,2020-06-11_10h20.39.483,TranslationElicitation_eng-prolific,3.2.4,Win32,60,5eb9e9546dffac12320418e9,2.680000067,1,0,98,52,1,97
,,,,,,,,,,,,,,,,,,,,,,,,,,,,,,,,,,,,,,,,,,,,,,,,,,,56,libro,Spanish,Sounds/spa_libro.mp3,2020-06-11_10h20.39.483,TranslationElicitation_eng-prolific,3.2.4,Win32,60,5eb9e9546dffac12320418e9,,1,0,98,52,1,97
,,,,,,,,,,,,,,,,,,,,,,,,,,,,,,,,,,,,,,,,,g,1.59800005,G,FALSE,,,,,,,44,gorrion,Spanish,Sounds/spa_gorrion.mp3,2020-06-11_10h20.39.483,TranslationElicitation_eng-prolific,3.2.4,Win32,60,5eb9e9546dffac12320418e9,,1,0,98,40,1,97
,,,,,,,,,,,,,,,,,,,,,,,,,,,,,,,,,,,,,,,,,o,1.931999922,GO,FALSE,,,,,,,44,gorrion,Spanish,Sounds/spa_gorrion.mp3,2020-06-11_10h20.39.483,TranslationElicitation_eng-prolific,3.2.4,Win32,60,5eb9e9546dffac12320418e9,,1,0,98,40,1,97
,,,,,,,,,,,,,,,,,,,,,,,,,,,,,,,,,,,,,,,,,r,2.131000042,GOR,FALSE,,,,,,,44,gorrion,Spanish,Sounds/spa_gorrion.mp3,2020-06-11_10h20.39.483,TranslationElicitation_eng-prolific,3.2.4,Win32,60,5eb9e9546dffac12320418e9,,1,0,98,40,1,97
,,,,,,,,,,,,,,,,,,,,,,,,,,,,,,,,,,,,,,,,,i,2.447000027,GORI,FALSE,,,,,,,44,gorrion,Spanish,Sounds/spa_gorrion.mp3,2020-06-11_10h20.39.483,TranslationElicitation_eng-prolific,3.2.4,Win32,60,5eb9e9546dffac12320418e9,,1,0,98,40,1,97
,,,,,,,,,,,,,,,,,,,,,,,,,,,,,,,,,,,,,,,,,o,2.746999979,GORIO,FALSE,,,,,,,44,gorrion,Spanish,Sounds/spa_gorrion.mp3,2020-06-11_10h20.39.483,TranslationElicitation_eng-prolific,3.2.4,Win32,60,5eb9e9546dffac12320418e9,,1,0,98,40,1,97
,,,,,,,,,,,,,,,,,,,,,,,,,,,,,,,,,,,,,,,,,n,2.980000019,GORION,FALSE,,,,,,,44,gorrion,Spanish,Sounds/spa_gorrion.mp3,2020-06-11_10h20.39.483,TranslationElicitation_eng-prolific,3.2.4,Win32,60,5eb9e9546dffac12320418e9,,1,0,98,40,1,97
,,,,,,,,,,,,,,,,,,,,,,,,,,,,,,,,,,,,,,,,,return,3.230000019,GORION,FALSE,,,,,,,44,gorrion,Spanish,Sounds/spa_gorrion.mp3,2020-06-11_10h20.39.483,TranslationElicitation_eng-prolific,3.2.4,Win32,60,5eb9e9546dffac12320418e9,3.230000019,1,0,98,40,1,97
,,,,,,,,,,,,,,,,,,,,,,,,,,,,,,,,,,,,,,,,,,,,,,,,,,,44,gorrion,Spanish,Sounds/spa_gorrion.mp3,2020-06-11_10h20.39.483,TranslationElicitation_eng-prolific,3.2.4,Win32,60,5eb9e9546dffac12320418e9,,1,0,98,40,1,97
,,,,,,,,,,,,,,,,,,,,,,,,,,,,,,,,,,,,,,,,,g,1.513999939,G,FALSE,,,,,,,46,grifo,Spanish,Sounds/spa_grifo.mp3,2020-06-11_10h20.39.483,TranslationElicitation_eng-prolific,3.2.4,Win32,60,5eb9e9546dffac12320418e9,,1,0,98,42,1,97
,,,,,,,,,,,,,,,,,,,,,,,,,,,,,,,,,,,,,,,,,r,1.713999987,GR,FALSE,,,,,,,46,grifo,Spanish,Sounds/spa_grifo.mp3,2020-06-11_10h20.39.483,TranslationElicitation_eng-prolific,3.2.4,Win32,60,5eb9e9546dffac12320418e9,,1,0,98,42,1,97
,,,,,,,,,,,,,,,,,,,,,,,,,,,,,,,,,,,,,,,,,i,2.246999979,GRI,FALSE,,,,,,,46,grifo,Spanish,Sounds/spa_grifo.mp3,2020-06-11_10h20.39.483,TranslationElicitation_eng-prolific,3.2.4,Win32,60,5eb9e9546dffac12320418e9,,1,0,98,42,1,97
,,,,,,,,,,,,,,,,,,,,,,,,,,,,,,,,,,,,,,,,,f,2.679999828,GRIF,FALSE,,,,,,,46,grifo,Spanish,Sounds/spa_grifo.mp3,2020-06-11_10h20.39.483,TranslationElicitation_eng-prolific,3.2.4,Win32,60,5eb9e9546dffac12320418e9,,1,0,98,42,1,97
,,,,,,,,,,,,,,,,,,,,,,,,,,,,,,,,,,,,,,,,,o,2.796000004,GRIFO,FALSE,,,,,,,46,grifo,Spanish,Sounds/spa_grifo.mp3,2020-06-11_10h20.39.483,TranslationElicitation_eng-prolific,3.2.4,Win32,60,5eb9e9546dffac12320418e9,,1,0,98,42,1,97
,,,,,,,,,,,,,,,,,,,,,,,,,,,,,,,,,,,,,,,,,return,3.062000036,GRIFO,FALSE,,,,,,,46,grifo,Spanish,Sounds/spa_grifo.mp3,2020-06-11_10h20.39.483,TranslationElicitation_eng-prolific,3.2.4,Win32,60,5eb9e9546dffac12320418e9,3.062000036,1,0,98,42,1,97
,,,,,,,,,,,,,,,,,,,,,,,,,,,,,,,,,,,,,,,,,,,,,,,,,,,46,grifo,Spanish,Sounds/spa_grifo.mp3,2020-06-11_10h20.39.483,TranslationElicitation_eng-prolific,3.2.4,Win32,60,5eb9e9546dffac12320418e9,,1,0,98,42,1,97
,,,,,,,,,,,,,,,,,,,,,,,,,,,,,,,,,,,,,,,,,g,1.264999866,G,FALSE,,,,,,,47,guitarra,Spanish,Sounds/spa_guitarra.mp3,2020-06-11_10h20.39.483,TranslationElicitation_eng-prolific,3.2.4,Win32,60,5eb9e9546dffac12320418e9,,1,0,98,43,1,97
,,,,,,,,,,,,,,,,,,,,,,,,,,,,,,,,,,,,,,,,,i,1.480999947,GI,FALSE,,,,,,,47,guitarra,Spanish,Sounds/spa_guitarra.mp3,2020-06-11_10h20.39.483,TranslationElicitation_eng-prolific,3.2.4,Win32,60,5eb9e9546dffac12320418e9,,1,0,98,43,1,97
,,,,,,,,,,,,,,,,,,,,,,,,,,,,,,,,,,,,,,,,,t,2.080999851,GIT,FALSE,,,,,,,47,guitarra,Spanish,Sounds/spa_guitarra.mp3,2020-06-11_10h20.39.483,TranslationElicitation_eng-prolific,3.2.4,Win32,60,5eb9e9546dffac12320418e9,,1,0,98,43,1,97
,,,,,,,,,,,,,,,,,,,,,,,,,,,,,,,,,,,,,,,,,a,2.696999788,GITA,FALSE,,,,,,,47,guitarra,Spanish,Sounds/spa_guitarra.mp3,2020-06-11_10h20.39.483,TranslationElicitation_eng-prolific,3.2.4,Win32,60,5eb9e9546dffac12320418e9,,1,0,98,43,1,97
,,,,,,,,,,,,,,,,,,,,,,,,,,,,,,,,,,,,,,,,,r,2.912999868,GITAR,FALSE,,,,,,,47,guitarra,Spanish,Sounds/spa_guitarra.mp3,2020-06-11_10h20.39.483,TranslationElicitation_eng-prolific,3.2.4,Win32,60,5eb9e9546dffac12320418e9,,1,0,98,43,1,97
,,,,,,,,,,,,,,,,,,,,,,,,,,,,,,,,,,,,,,,,,a,3.279999971,GITARA,FALSE,,,,,,,47,guitarra,Spanish,Sounds/spa_guitarra.mp3,2020-06-11_10h20.39.483,TranslationElicitation_eng-prolific,3.2.4,Win32,60,5eb9e9546dffac12320418e9,,1,0,98,43,1,97
,,,,,,,,,,,,,,,,,,,,,,,,,,,,,,,,,,,,,,,,,backspace,3.628999949,GITAR,TRUE,,,,,,,47,guitarra,Spanish,Sounds/spa_guitarra.mp3,2020-06-11_10h20.39.483,TranslationElicitation_eng-prolific,3.2.4,Win32,60,5eb9e9546dffac12320418e9,,1,0,98,43,1,97
,,,,,,,,,,,,,,,,,,,,,,,,,,,,,,,,,,,,,,,,,r,3.761999846,GITARR,TRUE,,,,,,,47,guitarra,Spanish,Sounds/spa_guitarra.mp3,2020-06-11_10h20.39.483,TranslationElicitation_eng-prolific,3.2.4,Win32,60,5eb9e9546dffac12320418e9,,1,0,98,43,1,97
,,,,,,,,,,,,,,,,,,,,,,,,,,,,,,,,,,,,,,,,,a,3.894999981,GITARRA,TRUE,,,,,,,47,guitarra,Spanish,Sounds/spa_guitarra.mp3,2020-06-11_10h20.39.483,TranslationElicitation_eng-prolific,3.2.4,Win32,60,5eb9e9546dffac12320418e9,,1,0,98,43,1,97
,,,,,,,,,,,,,,,,,,,,,,,,,,,,,,,,,,,,,,,,,return,4.127999783,GITARRA,TRUE,,,,,,,47,guitarra,Spanish,Sounds/spa_guitarra.mp3,2020-06-11_10h20.39.483,TranslationElicitation_eng-prolific,3.2.4,Win32,60,5eb9e9546dffac12320418e9,4.127999783,1,0,98,43,1,97
,,,,,,,,,,,,,,,,,,,,,,,,,,,,,,,,,,,,,,,,,,,,,,,,,,,47,guitarra,Spanish,Sounds/spa_guitarra.mp3,2020-06-11_10h20.39.483,TranslationElicitation_eng-prolific,3.2.4,Win32,60,5eb9e9546dffac12320418e9,,1,0,98,43,1,97
,,,,,,,,,,,,,,,,,,,,,,,,,,,,,,,,,,,,,,,,,b,1.548000097,B,FALSE,,,,,,,29,coche,Spanish,Sounds/spa_coche.mp3,2020-06-11_10h20.39.483,TranslationElicitation_eng-prolific,3.2.4,Win32,60,5eb9e9546dffac12320418e9,,1,0,98,26,1,97
,,,,,,,,,,,,,,,,,,,,,,,,,,,,,,,,,,,,,,,,,u,1.68200016,BU,FALSE,,,,,,,29,coche,Spanish,Sounds/spa_coche.mp3,2020-06-11_10h20.39.483,TranslationElicitation_eng-prolific,3.2.4,Win32,60,5eb9e9546dffac12320418e9,,1,0,98,26,1,97
,,,,,,,,,,,,,,,,,,,,,,,,,,,,,,,,,,,,,,,,,c,1.84800005,BUC,FALSE,,,,,,,29,coche,Spanish,Sounds/spa_coche.mp3,2020-06-11_10h20.39.483,TranslationElicitation_eng-prolific,3.2.4,Win32,60,5eb9e9546dffac12320418e9,,1,0,98,26,1,97
,,,,,,,,,,,,,,,,,,,,,,,,,,,,,,,,,,,,,,,,,h,1.93200016,BUCH,FALSE,,,,,,,29,coche,Spanish,Sounds/spa_coche.mp3,2020-06-11_10h20.39.483,TranslationElicitation_eng-prolific,3.2.4,Win32,60,5eb9e9546dffac12320418e9,,1,0,98,26,1,97
,,,,,,,,,,,,,,,,,,,,,,,,,,,,,,,,,,,,,,,,,a,2.031000137,BUCHA,FALSE,,,,,,,29,coche,Spanish,Sounds/spa_coche.mp3,2020-06-11_10h20.39.483,TranslationElicitation_eng-prolific,3.2.4,Win32,60,5eb9e9546dffac12320418e9,,1,0,98,26,1,97
,,,,,,,,,,,,,,,,,,,,,,,,,,,,,,,,,,,,,,,,,return,2.230999947,BUCHA,FALSE,,,,,,,29,coche,Spanish,Sounds/spa_coche.mp3,2020-06-11_10h20.39.483,TranslationElicitation_eng-prolific,3.2.4,Win32,60,5eb9e9546dffac12320418e9,2.230999947,1,0,98,26,1,97
,,,,,,,,,,,,,,,,,,,,,,,,,,,,,,,,,,,,,,,,,,,,,,,,,,,29,coche,Spanish,Sounds/spa_coche.mp3,2020-06-11_10h20.39.483,TranslationElicitation_eng-prolific,3.2.4,Win32,60,5eb9e9546dffac12320418e9,,1,0,98,26,1,97
,,,,,,,,,,,,,,,,,,,,,,,,,,,,,,,,,,,,,,,,,c,1.46600008,C,FALSE,,,,,,,27,chocolate,Spanish,Sounds/spa_chocolate.mp3,2020-06-11_10h20.39.483,TranslationElicitation_eng-prolific,3.2.4,Win32,60,5eb9e9546dffac12320418e9,,1,0,98,24,1,97
,,,,,,,,,,,,,,,,,,,,,,,,,,,,,,,,,,,,,,,,,h,1.532000065,CH,FALSE,,,,,,,27,chocolate,Spanish,Sounds/spa_chocolate.mp3,2020-06-11_10h20.39.483,TranslationElicitation_eng-prolific,3.2.4,Win32,60,5eb9e9546dffac12320418e9,,1,0,98,24,1,97
,,,,,,,,,,,,,,,,,,,,,,,,,,,,,,,,,,,,,,,,,o,1.765000105,CHO,FALSE,,,,,,,27,chocolate,Spanish,Sounds/spa_chocolate.mp3,2020-06-11_10h20.39.483,TranslationElicitation_eng-prolific,3.2.4,Win32,60,5eb9e9546dffac12320418e9,,1,0,98,24,1,97
,,,,,,,,,,,,,,,,,,,,,,,,,,,,,,,,,,,,,,,,,c,2.664000034,CHOC,FALSE,,,,,,,27,chocolate,Spanish,Sounds/spa_chocolate.mp3,2020-06-11_10h20.39.483,TranslationElicitation_eng-prolific,3.2.4,Win32,60,5eb9e9546dffac12320418e9,,1,0,98,24,1,97
,,,,,,,,,,,,,,,,,,,,,,,,,,,,,,,,,,,,,,,,,o,2.829999924,CHOCO,FALSE,,,,,,,27,chocolate,Spanish,Sounds/spa_chocolate.mp3,2020-06-11_10h20.39.483,TranslationElicitation_eng-prolific,3.2.4,Win32,60,5eb9e9546dffac12320418e9,,1,0,98,24,1,97
,,,,,,,,,,,,,,,,,,,,,,,,,,,,,,,,,,,,,,,,,l,3.163000107,CHOCOL,FALSE,,,,,,,27,chocolate,Spanish,Sounds/spa_chocolate.mp3,2020-06-11_10h20.39.483,TranslationElicitation_eng-prolific,3.2.4,Win32,60,5eb9e9546dffac12320418e9,,1,0,98,24,1,97
,,,,,,,,,,,,,,,,,,,,,,,,,,,,,,,,,,,,,,,,,a,3.263000011,CHOCOLA,FALSE,,,,,,,27,chocolate,Spanish,Sounds/spa_chocolate.mp3,2020-06-11_10h20.39.483,TranslationElicitation_eng-prolific,3.2.4,Win32,60,5eb9e9546dffac12320418e9,,1,0,98,24,1,97
,,,,,,,,,,,,,,,,,,,,,,,,,,,,,,,,,,,,,,,,,t,3.430000067,CHOCOLAT,FALSE,,,,,,,27,chocolate,Spanish,Sounds/spa_chocolate.mp3,2020-06-11_10h20.39.483,TranslationElicitation_eng-prolific,3.2.4,Win32,60,5eb9e9546dffac12320418e9,,1,0,98,24,1,97
,,,,,,,,,,,,,,,,,,,,,,,,,,,,,,,,,,,,,,,,,e,3.730000019,CHOCOLATE,FALSE,,,,,,,27,chocolate,Spanish,Sounds/spa_chocolate.mp3,2020-06-11_10h20.39.483,TranslationElicitation_eng-prolific,3.2.4,Win32,60,5eb9e9546dffac12320418e9,,1,0,98,24,1,97
,,,,,,,,,,,,,,,,,,,,,,,,,,,,,,,,,,,,,,,,,return,3.996000051,CHOCOLATE,FALSE,,,,,,,27,chocolate,Spanish,Sounds/spa_chocolate.mp3,2020-06-11_10h20.39.483,TranslationElicitation_eng-prolific,3.2.4,Win32,60,5eb9e9546dffac12320418e9,3.996000051,1,0,98,24,1,97
,,,,,,,,,,,,,,,,,,,,,,,,,,,,,,,,,,,,,,,,,,,,,,,,,,,27,chocolate,Spanish,Sounds/spa_chocolate.mp3,2020-06-11_10h20.39.483,TranslationElicitation_eng-prolific,3.2.4,Win32,60,5eb9e9546dffac12320418e9,,1,0,98,24,1,97
,,,,,,,,,,,,,,,,,,,,,,,,,,,,,,,,,,,,,,,,,g,1.864000082,G,FALSE,,,,,,,16,caja,Spanish,Sounds/spa_caja.mp3,2020-06-11_10h20.39.483,TranslationElicitation_eng-prolific,3.2.4,Win32,60,5eb9e9546dffac12320418e9,,1,0,98,14,1,97
,,,,,,,,,,,,,,,,,,,,,,,,,,,,,,,,,,,,,,,,,a,2.046999931,GA,FALSE,,,,,,,16,caja,Spanish,Sounds/spa_caja.mp3,2020-06-11_10h20.39.483,TranslationElicitation_eng-prolific,3.2.4,Win32,60,5eb9e9546dffac12320418e9,,1,0,98,14,1,97
,,,,,,,,,,,,,,,,,,,,,,,,,,,,,,,,,,,,,,,,,p,2.230000019,GAP,FALSE,,,,,,,16,caja,Spanish,Sounds/spa_caja.mp3,2020-06-11_10h20.39.483,TranslationElicitation_eng-prolific,3.2.4,Win32,60,5eb9e9546dffac12320418e9,,1,0,98,14,1,97
,,,,,,,,,,,,,,,,,,,,,,,,,,,,,,,,,,,,,,,,,a,2.412999868,GAPA,FALSE,,,,,,,16,caja,Spanish,Sounds/spa_caja.mp3,2020-06-11_10h20.39.483,TranslationElicitation_eng-prolific,3.2.4,Win32,60,5eb9e9546dffac12320418e9,,1,0,98,14,1,97
,,,,,,,,,,,,,,,,,,,,,,,,,,,,,,,,,,,,,,,,,return,2.546000004,GAPA,FALSE,,,,,,,16,caja,Spanish,Sounds/spa_caja.mp3,2020-06-11_10h20.39.483,TranslationElicitation_eng-prolific,3.2.4,Win32,60,5eb9e9546dffac12320418e9,2.546000004,1,0,98,14,1,97
,,,,,,,,,,,,,,,,,,,,,,,,,,,,,,,,,,,,,,,,,,,,,,,,,,,16,caja,Spanish,Sounds/spa_caja.mp3,2020-06-11_10h20.39.483,TranslationElicitation_eng-prolific,3.2.4,Win32,60,5eb9e9546dffac12320418e9,,1,0,98,14,1,97
,,,,,,,,,,,,,,,,,,,,,,,,,,,,,,,,,,,,,,,,,z,1.864000082,Z,FALSE,,,,,,,22,cepillo,Spanish,Sounds/spa_cepillo.mp3,2020-06-11_10h20.39.483,TranslationElicitation_eng-prolific,3.2.4,Win32,60,5eb9e9546dffac12320418e9,,1,0,98,20,1,97
,,,,,,,,,,,,,,,,,,,,,,,,,,,,,,,,,,,,,,,,,e,2.079999924,ZE,FALSE,,,,,,,22,cepillo,Spanish,Sounds/spa_cepillo.mp3,2020-06-11_10h20.39.483,TranslationElicitation_eng-prolific,3.2.4,Win32,60,5eb9e9546dffac12320418e9,,1,0,98,20,1,97
,,,,,,,,,,,,,,,,,,,,,,,,,,,,,,,,,,,,,,,,,b,2.395999908,ZEB,FALSE,,,,,,,22,cepillo,Spanish,Sounds/spa_cepillo.mp3,2020-06-11_10h20.39.483,TranslationElicitation_eng-prolific,3.2.4,Win32,60,5eb9e9546dffac12320418e9,,1,0,98,20,1,97
,,,,,,,,,,,,,,,,,,,,,,,,,,,,,,,,,,,,,,,,,e,2.629999876,ZEBE,FALSE,,,,,,,22,cepillo,Spanish,Sounds/spa_cepillo.mp3,2020-06-11_10h20.39.483,TranslationElicitation_eng-prolific,3.2.4,Win32,60,5eb9e9546dffac12320418e9,,1,0,98,20,1,97
,,,,,,,,,,,,,,,,,,,,,,,,,,,,,,,,,,,,,,,,,backspace,3.213000059,ZEB,TRUE,,,,,,,22,cepillo,Spanish,Sounds/spa_cepillo.mp3,2020-06-11_10h20.39.483,TranslationElicitation_eng-prolific,3.2.4,Win32,60,5eb9e9546dffac12320418e9,,1,0,98,20,1,97
,,,,,,,,,,,,,,,,,,,,,,,,,,,,,,,,,,,,,,,,,i,3.562000036,ZEBI,TRUE,,,,,,,22,cepillo,Spanish,Sounds/spa_cepillo.mp3,2020-06-11_10h20.39.483,TranslationElicitation_eng-prolific,3.2.4,Win32,60,5eb9e9546dffac12320418e9,,1,0,98,20,1,97
,,,,,,,,,,,,,,,,,,,,,,,,,,,,,,,,,,,,,,,,,n,3.762000084,ZEBIN,TRUE,,,,,,,22,cepillo,Spanish,Sounds/spa_cepillo.mp3,2020-06-11_10h20.39.483,TranslationElicitation_eng-prolific,3.2.4,Win32,60,5eb9e9546dffac12320418e9,,1,0,98,20,1,97
,,,,,,,,,,,,,,,,,,,,,,,,,,,,,,,,,,,,,,,,,g,3.812000036,ZEBING,TRUE,,,,,,,22,cepillo,Spanish,Sounds/spa_cepillo.mp3,2020-06-11_10h20.39.483,TranslationElicitation_eng-prolific,3.2.4,Win32,60,5eb9e9546dffac12320418e9,,1,0,98,20,1,97
,,,,,,,,,,,,,,,,,,,,,,,,,,,,,,,,,,,,,,,,,o,3.961999893,ZEBINGO,TRUE,,,,,,,22,cepillo,Spanish,Sounds/spa_cepillo.mp3,2020-06-11_10h20.39.483,TranslationElicitation_eng-prolific,3.2.4,Win32,60,5eb9e9546dffac12320418e9,,1,0,98,20,1,97
,,,,,,,,,,,,,,,,,,,,,,,,,,,,,,,,,,,,,,,,,return,4.177999973,ZEBINGO,TRUE,,,,,,,22,cepillo,Spanish,Sounds/spa_cepillo.mp3,2020-06-11_10h20.39.483,TranslationElicitation_eng-prolific,3.2.4,Win32,60,5eb9e9546dffac12320418e9,4.177999973,1,0,98,20,1,97
,,,,,,,,,,,,,,,,,,,,,,,,,,,,,,,,,,,,,,,,,,,,,,,,,,,22,cepillo,Spanish,Sounds/spa_cepillo.mp3,2020-06-11_10h20.39.483,TranslationElicitation_eng-prolific,3.2.4,Win32,60,5eb9e9546dffac12320418e9,,1,0,98,20,1,97
,,,,,,,,,,,,,,,,,,,,,,,,,,,,,,,,,,,,,,,,,c,2.362999916,C,FALSE,,,,,,,20,caracol,Spanish,Sounds/spa_caracol.mp3,2020-06-11_10h20.39.483,TranslationElicitation_eng-prolific,3.2.4,Win32,60,5eb9e9546dffac12320418e9,,1,0,98,18,1,97
,,,,,,,,,,,,,,,,,,,,,,,,,,,,,,,,,,,,,,,,,a,2.630000114,CA,FALSE,,,,,,,20,caracol,Spanish,Sounds/spa_caracol.mp3,2020-06-11_10h20.39.483,TranslationElicitation_eng-prolific,3.2.4,Win32,60,5eb9e9546dffac12320418e9,,1,0,98,18,1,97
,,,,,,,,,,,,,,,,,,,,,,,,,,,,,,,,,,,,,,,,,r,2.779999971,CAR,FALSE,,,,,,,20,caracol,Spanish,Sounds/spa_caracol.mp3,2020-06-11_10h20.39.483,TranslationElicitation_eng-prolific,3.2.4,Win32,60,5eb9e9546dffac12320418e9,,1,0,98,18,1,97
,,,,,,,,,,,,,,,,,,,,,,,,,,,,,,,,,,,,,,,,,a,2.946000099,CARA,FALSE,,,,,,,20,caracol,Spanish,Sounds/spa_caracol.mp3,2020-06-11_10h20.39.483,TranslationElicitation_eng-prolific,3.2.4,Win32,60,5eb9e9546dffac12320418e9,,1,0,98,18,1,97
,,,,,,,,,,,,,,,,,,,,,,,,,,,,,,,,,,,,,,,,,c,3.178999901,CARAC,FALSE,,,,,,,20,caracol,Spanish,Sounds/spa_caracol.mp3,2020-06-11_10h20.39.483,TranslationElicitation_eng-prolific,3.2.4,Win32,60,5eb9e9546dffac12320418e9,,1,0,98,18,1,97
,,,,,,,,,,,,,,,,,,,,,,,,,,,,,,,,,,,,,,,,,o,3.312000036,CARACO,FALSE,,,,,,,20,caracol,Spanish,Sounds/spa_caracol.mp3,2020-06-11_10h20.39.483,TranslationElicitation_eng-prolific,3.2.4,Win32,60,5eb9e9546dffac12320418e9,,1,0,98,18,1,97
,,,,,,,,,,,,,,,,,,,,,,,,,,,,,,,,,,,,,,,,,l,3.529000044,CARACOL,FALSE,,,,,,,20,caracol,Spanish,Sounds/spa_caracol.mp3,2020-06-11_10h20.39.483,TranslationElicitation_eng-prolific,3.2.4,Win32,60,5eb9e9546dffac12320418e9,,1,0,98,18,1,97
,,,,,,,,,,,,,,,,,,,,,,,,,,,,,,,,,,,,,,,,,return,3.944999933,CARACOL,FALSE,,,,,,,20,caracol,Spanish,Sounds/spa_caracol.mp3,2020-06-11_10h20.39.483,TranslationElicitation_eng-prolific,3.2.4,Win32,60,5eb9e9546dffac12320418e9,3.944999933,1,0,98,18,1,97
,,,,,,,,,,,,,,,,,,,,,,,,,,,,,,,,,,,,,,,,,,,,,,,,,,,20,caracol,Spanish,Sounds/spa_caracol.mp3,2020-06-11_10h20.39.483,TranslationElicitation_eng-prolific,3.2.4,Win32,60,5eb9e9546dffac12320418e9,,1,0,98,18,1,97
,,,,,,,,,,,,,,,,,,,,,,,,,,,,,,,,,,,,,,,,,b,1.664999962,B,FALSE,,,,,,,12,brazo,Spanish,Sounds/spa_brazo.mp3,2020-06-11_10h20.39.483,TranslationElicitation_eng-prolific,3.2.4,Win32,60,5eb9e9546dffac12320418e9,,1,0,98,10,1,97
,,,,,,,,,,,,,,,,,,,,,,,,,,,,,,,,,,,,,,,,,r,1.780999899,BR,FALSE,,,,,,,12,brazo,Spanish,Sounds/spa_brazo.mp3,2020-06-11_10h20.39.483,TranslationElicitation_eng-prolific,3.2.4,Win32,60,5eb9e9546dffac12320418e9,,1,0,98,10,1,97
,,,,,,,,,,,,,,,,,,,,,,,,,,,,,,,,,,,,,,,,,a,1.914999962,BRA,FALSE,,,,,,,12,brazo,Spanish,Sounds/spa_brazo.mp3,2020-06-11_10h20.39.483,TranslationElicitation_eng-prolific,3.2.4,Win32,60,5eb9e9546dffac12320418e9,,1,0,98,10,1,97
,,,,,,,,,,,,,,,,,,,,,,,,,,,,,,,,,,,,,,,,,z,2.213999987,BRAZ,FALSE,,,,,,,12,brazo,Spanish,Sounds/spa_brazo.mp3,2020-06-11_10h20.39.483,TranslationElicitation_eng-prolific,3.2.4,Win32,60,5eb9e9546dffac12320418e9,,1,0,98,10,1,97
,,,,,,,,,,,,,,,,,,,,,,,,,,,,,,,,,,,,,,,,,o,2.34800005,BRAZO,FALSE,,,,,,,12,brazo,Spanish,Sounds/spa_brazo.mp3,2020-06-11_10h20.39.483,TranslationElicitation_eng-prolific,3.2.4,Win32,60,5eb9e9546dffac12320418e9,,1,0,98,10,1,97
,,,,,,,,,,,,,,,,,,,,,,,,,,,,,,,,,,,,,,,,,return,2.579999924,BRAZO,FALSE,,,,,,,12,brazo,Spanish,Sounds/spa_brazo.mp3,2020-06-11_10h20.39.483,TranslationElicitation_eng-prolific,3.2.4,Win32,60,5eb9e9546dffac12320418e9,2.579999924,1,0,98,10,1,97
,,,,,,,,,,,,,,,,,,,,,,,,,,,,,,,,,,,,,,,,,,,,,,,,,,,12,brazo,Spanish,Sounds/spa_brazo.mp3,2020-06-11_10h20.39.483,TranslationElicitation_eng-prolific,3.2.4,Win32,60,5eb9e9546dffac12320418e9,,1,0,98,10,1,97
,,,,,,,,,,,,,,,,,,,,,,,,,,,,,,,,,,,,,,,,,e,1.847000122,E,FALSE,,,,,,,36,estrella,Spanish,Sounds/spa_estrella.mp3,2020-06-11_10h20.39.483,TranslationElicitation_eng-prolific,3.2.4,Win32,60,5eb9e9546dffac12320418e9,,1,0,98,32,1,97
,,,,,,,,,,,,,,,,,,,,,,,,,,,,,,,,,,,,,,,,,s,2.04700017,ES,FALSE,,,,,,,36,estrella,Spanish,Sounds/spa_estrella.mp3,2020-06-11_10h20.39.483,TranslationElicitation_eng-prolific,3.2.4,Win32,60,5eb9e9546dffac12320418e9,,1,0,98,32,1,97
,,,,,,,,,,,,,,,,,,,,,,,,,,,,,,,,,,,,,,,,,t,2.31400013,EST,FALSE,,,,,,,36,estrella,Spanish,Sounds/spa_estrella.mp3,2020-06-11_10h20.39.483,TranslationElicitation_eng-prolific,3.2.4,Win32,60,5eb9e9546dffac12320418e9,,1,0,98,32,1,97
,,,,,,,,,,,,,,,,,,,,,,,,,,,,,,,,,,,,,,,,,r,2.496000051,ESTR,FALSE,,,,,,,36,estrella,Spanish,Sounds/spa_estrella.mp3,2020-06-11_10h20.39.483,TranslationElicitation_eng-prolific,3.2.4,Win32,60,5eb9e9546dffac12320418e9,,1,0,98,32,1,97
,,,,,,,,,,,,,,,,,,,,,,,,,,,,,,,,,,,,,,,,,a,2.713000059,ESTRA,FALSE,,,,,,,36,estrella,Spanish,Sounds/spa_estrella.mp3,2020-06-11_10h20.39.483,TranslationElicitation_eng-prolific,3.2.4,Win32,60,5eb9e9546dffac12320418e9,,1,0,98,32,1,97
,,,,,,,,,,,,,,,,,,,,,,,,,,,,,,,,,,,,,,,,,backspace,3.080000162,ESTR,TRUE,,,,,,,36,estrella,Spanish,Sounds/spa_estrella.mp3,2020-06-11_10h20.39.483,TranslationElicitation_eng-prolific,3.2.4,Win32,60,5eb9e9546dffac12320418e9,,1,0,98,32,1,97
,,,,,,,,,,,,,,,,,,,,,,,,,,,,,,,,,,,,,,,,,e,3.263000011,ESTRE,TRUE,,,,,,,36,estrella,Spanish,Sounds/spa_estrella.mp3,2020-06-11_10h20.39.483,TranslationElicitation_eng-prolific,3.2.4,Win32,60,5eb9e9546dffac12320418e9,,1,0,98,32,1,97
,,,,,,,,,,,,,,,,,,,,,,,,,,,,,,,,,,,,,,,,,backspace,3.562999964,ESTR,TRUE,,,,,,,36,estrella,Spanish,Sounds/spa_estrella.mp3,2020-06-11_10h20.39.483,TranslationElicitation_eng-prolific,3.2.4,Win32,60,5eb9e9546dffac12320418e9,,1,0,98,32,1,97
,,,,,,,,,,,,,,,,,,,,,,,,,,,,,,,,,,,,,,,,,a,3.713000059,ESTRA,TRUE,,,,,,,36,estrella,Spanish,Sounds/spa_estrella.mp3,2020-06-11_10h20.39.483,TranslationElicitation_eng-prolific,3.2.4,Win32,60,5eb9e9546dffac12320418e9,,1,0,98,32,1,97
,,,,,,,,,,,,,,,,,,,,,,,,,,,,,,,,,,,,,,,,,g,3.896000147,ESTRAG,TRUE,,,,,,,36,estrella,Spanish,Sounds/spa_estrella.mp3,2020-06-11_10h20.39.483,TranslationElicitation_eng-prolific,3.2.4,Win32,60,5eb9e9546dffac12320418e9,,1,0,98,32,1,97
,,,,,,,,,,,,,,,,,,,,,,,,,,,,,,,,,,,,,,,,,a,4.212000132,ESTRAGA,TRUE,,,,,,,36,estrella,Spanish,Sounds/spa_estrella.mp3,2020-06-11_10h20.39.483,TranslationElicitation_eng-prolific,3.2.4,Win32,60,5eb9e9546dffac12320418e9,,1,0,98,32,1,97
,,,,,,,,,,,,,,,,,,,,,,,,,,,,,,,,,,,,,,,,,return,4.745000124,ESTRAGA,TRUE,,,,,,,36,estrella,Spanish,Sounds/spa_estrella.mp3,2020-06-11_10h20.39.483,TranslationElicitation_eng-prolific,3.2.4,Win32,60,5eb9e9546dffac12320418e9,4.745000124,1,0,98,32,1,97
,,,,,,,,,,,,,,,,,,,,,,,,,,,,,,,,,,,,,,,,,,,,,,,,,,,36,estrella,Spanish,Sounds/spa_estrella.mp3,2020-06-11_10h20.39.483,TranslationElicitation_eng-prolific,3.2.4,Win32,60,5eb9e9546dffac12320418e9,,1,0,98,32,1,97
,,,,,,,,,,,,,,,,,,,,,,,,,,,,,,,,,,,,,,,,,s,1.730999947,S,FALSE,,,,,,,2,avestruz,Spanish,Sounds/spa_avestruz.mp3,2020-06-11_10h20.39.483,TranslationElicitation_eng-prolific,3.2.4,Win32,60,5eb9e9546dffac12320418e9,,1,0,98,0,1,97
,,,,,,,,,,,,,,,,,,,,,,,,,,,,,,,,,,,,,,,,,t,1.929999828,ST,FALSE,,,,,,,2,avestruz,Spanish,Sounds/spa_avestruz.mp3,2020-06-11_10h20.39.483,TranslationElicitation_eng-prolific,3.2.4,Win32,60,5eb9e9546dffac12320418e9,,1,0,98,0,1,97
,,,,,,,,,,,,,,,,,,,,,,,,,,,,,,,,,,,,,,,,,r,2.096999884,STR,FALSE,,,,,,,2,avestruz,Spanish,Sounds/spa_avestruz.mp3,2020-06-11_10h20.39.483,TranslationElicitation_eng-prolific,3.2.4,Win32,60,5eb9e9546dffac12320418e9,,1,0,98,0,1,97
,,,,,,,,,,,,,,,,,,,,,,,,,,,,,,,,,,,,,,,,,o,2.201999903,STRO,FALSE,,,,,,,2,avestruz,Spanish,Sounds/spa_avestruz.mp3,2020-06-11_10h20.39.483,TranslationElicitation_eng-prolific,3.2.4,Win32,60,5eb9e9546dffac12320418e9,,1,0,98,0,1,97
,,,,,,,,,,,,,,,,,,,,,,,,,,,,,,,,,,,,,,,,,l,2.645999908,STROL,FALSE,,,,,,,2,avestruz,Spanish,Sounds/spa_avestruz.mp3,2020-06-11_10h20.39.483,TranslationElicitation_eng-prolific,3.2.4,Win32,60,5eb9e9546dffac12320418e9,,1,0,98,0,1,97
,,,,,,,,,,,,,,,,,,,,,,,,,,,,,,,,,,,,,,,,,return,2.928999901,STROL,FALSE,,,,,,,2,avestruz,Spanish,Sounds/spa_avestruz.mp3,2020-06-11_10h20.39.483,TranslationElicitation_eng-prolific,3.2.4,Win32,60,5eb9e9546dffac12320418e9,2.928999901,1,0,98,0,1,97
,,,,,,,,,,,,,,,,,,,,,,,,,,,,,,,,,,,,,,,,,,,,,,,,,,,2,avestruz,Spanish,Sounds/spa_avestruz.mp3,2020-06-11_10h20.39.483,TranslationElicitation_eng-prolific,3.2.4,Win32,60,5eb9e9546dffac12320418e9,,1,0,98,0,1,97
,,,,,,,,,,,,,,,,,,,,,,,,,,,,,,,,,,,,,,,,,b,1.898000002,B,FALSE,,,,,,,72,osito,Spanish,Sounds/spa_osito.mp3,2020-06-11_10h20.39.483,TranslationElicitation_eng-prolific,3.2.4,Win32,60,5eb9e9546dffac12320418e9,,1,0,98,67,1,97
,,,,,,,,,,,,,,,,,,,,,,,,,,,,,,,,,,,,,,,,,r,2.148000002,BR,FALSE,,,,,,,72,osito,Spanish,Sounds/spa_osito.mp3,2020-06-11_10h20.39.483,TranslationElicitation_eng-prolific,3.2.4,Win32,60,5eb9e9546dffac12320418e9,,1,0,98,67,1,97
,,,,,,,,,,,,,,,,,,,,,,,,,,,,,,,,,,,,,,,,,u,2.264999866,BRU,FALSE,,,,,,,72,osito,Spanish,Sounds/spa_osito.mp3,2020-06-11_10h20.39.483,TranslationElicitation_eng-prolific,3.2.4,Win32,60,5eb9e9546dffac12320418e9,,1,0,98,67,1,97
,,,,,,,,,,,,,,,,,,,,,,,,,,,,,,,,,,,,,,,,,c,2.430999994,BRUC,FALSE,,,,,,,72,osito,Spanish,Sounds/spa_osito.mp3,2020-06-11_10h20.39.483,TranslationElicitation_eng-prolific,3.2.4,Win32,60,5eb9e9546dffac12320418e9,,1,0,98,67,1,97
,,,,,,,,,,,,,,,,,,,,,,,,,,,,,,,,,,,,,,,,,c,2.813999891,BRUCC,FALSE,,,,,,,72,osito,Spanish,Sounds/spa_osito.mp3,2020-06-11_10h20.39.483,TranslationElicitation_eng-prolific,3.2.4,Win32,60,5eb9e9546dffac12320418e9,,1,0,98,67,1,97
,,,,,,,,,,,,,,,,,,,,,,,,,,,,,,,,,,,,,,,,,i,2.947000027,BRUCCI,FALSE,,,,,,,72,osito,Spanish,Sounds/spa_osito.mp3,2020-06-11_10h20.39.483,TranslationElicitation_eng-prolific,3.2.4,Win32,60,5eb9e9546dffac12320418e9,,1,0,98,67,1,97
,,,,,,,,,,,,,,,,,,,,,,,,,,,,,,,,,,,,,,,,,t,3.246000051,BRUCCIT,FALSE,,,,,,,72,osito,Spanish,Sounds/spa_osito.mp3,2020-06-11_10h20.39.483,TranslationElicitation_eng-prolific,3.2.4,Win32,60,5eb9e9546dffac12320418e9,,1,0,98,67,1,97
,,,,,,,,,,,,,,,,,,,,,,,,,,,,,,,,,,,,,,,,,o,3.362999916,BRUCCITO,FALSE,,,,,,,72,osito,Spanish,Sounds/spa_osito.mp3,2020-06-11_10h20.39.483,TranslationElicitation_eng-prolific,3.2.4,Win32,60,5eb9e9546dffac12320418e9,,1,0,98,67,1,97
,,,,,,,,,,,,,,,,,,,,,,,,,,,,,,,,,,,,,,,,,return,3.796000004,BRUCCITO,FALSE,,,,,,,72,osito,Spanish,Sounds/spa_osito.mp3,2020-06-11_10h20.39.483,TranslationElicitation_eng-prolific,3.2.4,Win32,60,5eb9e9546dffac12320418e9,3.796000004,1,0,98,67,1,97
,,,,,,,,,,,,,,,,,,,,,,,,,,,,,,,,,,,,,,,,,,,,,,,,,,,72,osito,Spanish,Sounds/spa_osito.mp3,2020-06-11_10h20.39.483,TranslationElicitation_eng-prolific,3.2.4,Win32,60,5eb9e9546dffac12320418e9,,1,0,98,67,1,97
,,,,,,,,,,,,,,,,,,,,,,,,,,,,,,,,,,,,,,,,,g,1.381000042,G,FALSE,,,,,,,42,gato,Spanish,Sounds/spa_gato.mp3,2020-06-11_10h20.39.483,TranslationElicitation_eng-prolific,3.2.4,Win32,60,5eb9e9546dffac12320418e9,,1,0,98,38,1,97
,,,,,,,,,,,,,,,,,,,,,,,,,,,,,,,,,,,,,,,,,a,1.614000082,GA,FALSE,,,,,,,42,gato,Spanish,Sounds/spa_gato.mp3,2020-06-11_10h20.39.483,TranslationElicitation_eng-prolific,3.2.4,Win32,60,5eb9e9546dffac12320418e9,,1,0,98,38,1,97
,,,,,,,,,,,,,,,,,,,,,,,,,,,,,,,,,,,,,,,,,r,2.013000011,GAR,FALSE,,,,,,,42,gato,Spanish,Sounds/spa_gato.mp3,2020-06-11_10h20.39.483,TranslationElicitation_eng-prolific,3.2.4,Win32,60,5eb9e9546dffac12320418e9,,1,0,98,38,1,97
,,,,,,,,,,,,,,,,,,,,,,,,,,,,,,,,,,,,,,,,,t,2.246999979,GART,FALSE,,,,,,,42,gato,Spanish,Sounds/spa_gato.mp3,2020-06-11_10h20.39.483,TranslationElicitation_eng-prolific,3.2.4,Win32,60,5eb9e9546dffac12320418e9,,1,0,98,38,1,97
,,,,,,,,,,,,,,,,,,,,,,,,,,,,,,,,,,,,,,,,,o,2.397000074,GARTO,FALSE,,,,,,,42,gato,Spanish,Sounds/spa_gato.mp3,2020-06-11_10h20.39.483,TranslationElicitation_eng-prolific,3.2.4,Win32,60,5eb9e9546dffac12320418e9,,1,0,98,38,1,97
,,,,,,,,,,,,,,,,,,,,,,,,,,,,,,,,,,,,,,,,,return,2.746000051,GARTO,FALSE,,,,,,,42,gato,Spanish,Sounds/spa_gato.mp3,2020-06-11_10h20.39.483,TranslationElicitation_eng-prolific,3.2.4,Win32,60,5eb9e9546dffac12320418e9,2.746000051,1,0,98,38,1,97
,,,,,,,,,,,,,,,,,,,,,,,,,,,,,,,,,,,,,,,,,,,,,,,,,,,42,gato,Spanish,Sounds/spa_gato.mp3,2020-06-11_10h20.39.483,TranslationElicitation_eng-prolific,3.2.4,Win32,60,5eb9e9546dffac12320418e9,,1,0,98,38,1,97
,,,,,,,,,,,,,,,,,,,,,,,,,,,,,,,,,,,,,,,,,o,1.297999859,O,FALSE,,,,,,,99,tomate,Spanish,Sounds/spa_tomate.mp3,2020-06-11_10h20.39.483,TranslationElicitation_eng-prolific,3.2.4,Win32,60,5eb9e9546dffac12320418e9,,1,0,98,93,1,97
,,,,,,,,,,,,,,,,,,,,,,,,,,,,,,,,,,,,,,,,,backspace,1.830999851,,TRUE,,,,,,,99,tomate,Spanish,Sounds/spa_tomate.mp3,2020-06-11_10h20.39.483,TranslationElicitation_eng-prolific,3.2.4,Win32,60,5eb9e9546dffac12320418e9,,1,0,98,93,1,97
,,,,,,,,,,,,,,,,,,,,,,,,,,,,,,,,,,,,,,,,,t,2.029999971,T,TRUE,,,,,,,99,tomate,Spanish,Sounds/spa_tomate.mp3,2020-06-11_10h20.39.483,TranslationElicitation_eng-prolific,3.2.4,Win32,60,5eb9e9546dffac12320418e9,,1,0,98,93,1,97
,,,,,,,,,,,,,,,,,,,,,,,,,,,,,,,,,,,,,,,,,o,2.113999844,TO,TRUE,,,,,,,99,tomate,Spanish,Sounds/spa_tomate.mp3,2020-06-11_10h20.39.483,TranslationElicitation_eng-prolific,3.2.4,Win32,60,5eb9e9546dffac12320418e9,,1,0,98,93,1,97
,,,,,,,,,,,,,,,,,,,,,,,,,,,,,,,,,,,,,,,,,m,2.329999924,TOM,TRUE,,,,,,,99,tomate,Spanish,Sounds/spa_tomate.mp3,2020-06-11_10h20.39.483,TranslationElicitation_eng-prolific,3.2.4,Win32,60,5eb9e9546dffac12320418e9,,1,0,98,93,1,97
,,,,,,,,,,,,,,,,,,,,,,,,,,,,,,,,,,,,,,,,,a,2.445999861,TOMA,TRUE,,,,,,,99,tomate,Spanish,Sounds/spa_tomate.mp3,2020-06-11_10h20.39.483,TranslationElicitation_eng-prolific,3.2.4,Win32,60,5eb9e9546dffac12320418e9,,1,0,98,93,1,97
,,,,,,,,,,,,,,,,,,,,,,,,,,,,,,,,,,,,,,,,,t,2.695999861,TOMAT,TRUE,,,,,,,99,tomate,Spanish,Sounds/spa_tomate.mp3,2020-06-11_10h20.39.483,TranslationElicitation_eng-prolific,3.2.4,Win32,60,5eb9e9546dffac12320418e9,,1,0,98,93,1,97
,,,,,,,,,,,,,,,,,,,,,,,,,,,,,,,,,,,,,,,,,e,3.145999908,TOMATE,TRUE,,,,,,,99,tomate,Spanish,Sounds/spa_tomate.mp3,2020-06-11_10h20.39.483,TranslationElicitation_eng-prolific,3.2.4,Win32,60,5eb9e9546dffac12320418e9,,1,0,98,93,1,97
,,,,,,,,,,,,,,,,,,,,,,,,,,,,,,,,,,,,,,,,,return,3.494999886,TOMATE,TRUE,,,,,,,99,tomate,Spanish,Sounds/spa_tomate.mp3,2020-06-11_10h20.39.483,TranslationElicitation_eng-prolific,3.2.4,Win32,60,5eb9e9546dffac12320418e9,3.494999886,1,0,98,93,1,97
,,,,,,,,,,,,,,,,,,,,,,,,,,,,,,,,,,,,,,,,,,,,,,,,,,,99,tomate,Spanish,Sounds/spa_tomate.mp3,2020-06-11_10h20.39.483,TranslationElicitation_eng-prolific,3.2.4,Win32,60,5eb9e9546dffac12320418e9,,1,0,98,93,1,97
,,,,,,,,,,,,,,,,,,,,,,,,,,,,,,,,,,,,,,,,,t,1.414999962,T,FALSE,,,,,,,100,toro,Spanish,Sounds/spa_toro.mp3,2020-06-11_10h20.39.483,TranslationElicitation_eng-prolific,3.2.4,Win32,60,5eb9e9546dffac12320418e9,,1,0,98,94,1,97
,,,,,,,,,,,,,,,,,,,,,,,,,,,,,,,,,,,,,,,,,o,1.498000145,TO,FALSE,,,,,,,100,toro,Spanish,Sounds/spa_toro.mp3,2020-06-11_10h20.39.483,TranslationElicitation_eng-prolific,3.2.4,Win32,60,5eb9e9546dffac12320418e9,,1,0,98,94,1,97
,,,,,,,,,,,,,,,,,,,,,,,,,,,,,,,,,,,,,,,,,r,1.83100009,TOR,FALSE,,,,,,,100,toro,Spanish,Sounds/spa_toro.mp3,2020-06-11_10h20.39.483,TranslationElicitation_eng-prolific,3.2.4,Win32,60,5eb9e9546dffac12320418e9,,1,0,98,94,1,97
,,,,,,,,,,,,,,,,,,,,,,,,,,,,,,,,,,,,,,,,,o,2.046999931,TORO,FALSE,,,,,,,100,toro,Spanish,Sounds/spa_toro.mp3,2020-06-11_10h20.39.483,TranslationElicitation_eng-prolific,3.2.4,Win32,60,5eb9e9546dffac12320418e9,,1,0,98,94,1,97
,,,,,,,,,,,,,,,,,,,,,,,,,,,,,,,,,,,,,,,,,return,2.263999939,TORO,FALSE,,,,,,,100,toro,Spanish,Sounds/spa_toro.mp3,2020-06-11_10h20.39.483,TranslationElicitation_eng-prolific,3.2.4,Win32,60,5eb9e9546dffac12320418e9,2.263999939,1,0,98,94,1,97
,,,,,,,,,,,,,,,,,,,,,,,,,,,,,,,,,,,,,,,,,,,,,,,,,,,100,toro,Spanish,Sounds/spa_toro.mp3,2020-06-11_10h20.39.483,TranslationElicitation_eng-prolific,3.2.4,Win32,60,5eb9e9546dffac12320418e9,,1,0,98,94,1,97
,,,,,,,,,,,,,,,,,,,,,,,,,,,,,,,,,,,,,,,,,p,1.34800005,P,FALSE,,,,,,,10,botella,Spanish,Sounds/spa_botella.mp3,2020-06-11_10h20.39.483,TranslationElicitation_eng-prolific,3.2.4,Win32,60,5eb9e9546dffac12320418e9,,1,0,98,8,1,97
,,,,,,,,,,,,,,,,,,,,,,,,,,,,,,,,,,,,,,,,,backspace,1.84800005,,TRUE,,,,,,,10,botella,Spanish,Sounds/spa_botella.mp3,2020-06-11_10h20.39.483,TranslationElicitation_eng-prolific,3.2.4,Win32,60,5eb9e9546dffac12320418e9,,1,0,98,8,1,97
,,,,,,,,,,,,,,,,,,,,,,,,,,,,,,,,,,,,,,,,,b,2.06400013,B,TRUE,,,,,,,10,botella,Spanish,Sounds/spa_botella.mp3,2020-06-11_10h20.39.483,TranslationElicitation_eng-prolific,3.2.4,Win32,60,5eb9e9546dffac12320418e9,,1,0,98,8,1,97
,,,,,,,,,,,,,,,,,,,,,,,,,,,,,,,,,,,,,,,,,o,2.197000027,BO,TRUE,,,,,,,10,botella,Spanish,Sounds/spa_botella.mp3,2020-06-11_10h20.39.483,TranslationElicitation_eng-prolific,3.2.4,Win32,60,5eb9e9546dffac12320418e9,,1,0,98,8,1,97
,,,,,,,,,,,,,,,,,,,,,,,,,,,,,,,,,,,,,,,,,g,2.529999971,BOG,TRUE,,,,,,,10,botella,Spanish,Sounds/spa_botella.mp3,2020-06-11_10h20.39.483,TranslationElicitation_eng-prolific,3.2.4,Win32,60,5eb9e9546dffac12320418e9,,1,0,98,8,1,97
,,,,,,,,,,,,,,,,,,,,,,,,,,,,,,,,,,,,,,,,,backspace,2.796999931,BO,TRUE,,,,,,,10,botella,Spanish,Sounds/spa_botella.mp3,2020-06-11_10h20.39.483,TranslationElicitation_eng-prolific,3.2.4,Win32,60,5eb9e9546dffac12320418e9,,1,0,98,8,1,97
,,,,,,,,,,,,,,,,,,,,,,,,,,,,,,,,,,,,,,,,,d,2.930000067,BOD,TRUE,,,,,,,10,botella,Spanish,Sounds/spa_botella.mp3,2020-06-11_10h20.39.483,TranslationElicitation_eng-prolific,3.2.4,Win32,60,5eb9e9546dffac12320418e9,,1,0,98,8,1,97
,,,,,,,,,,,,,,,,,,,,,,,,,,,,,,,,,,,,,,,,,e,3.097000122,BODE,TRUE,,,,,,,10,botella,Spanish,Sounds/spa_botella.mp3,2020-06-11_10h20.39.483,TranslationElicitation_eng-prolific,3.2.4,Win32,60,5eb9e9546dffac12320418e9,,1,0,98,8,1,97
,,,,,,,,,,,,,,,,,,,,,,,,,,,,,,,,,,,,,,,,,g,3.413000107,BODEG,TRUE,,,,,,,10,botella,Spanish,Sounds/spa_botella.mp3,2020-06-11_10h20.39.483,TranslationElicitation_eng-prolific,3.2.4,Win32,60,5eb9e9546dffac12320418e9,,1,0,98,8,1,97
,,,,,,,,,,,,,,,,,,,,,,,,,,,,,,,,,,,,,,,,,n,3.661999941,BODEGN,TRUE,,,,,,,10,botella,Spanish,Sounds/spa_botella.mp3,2020-06-11_10h20.39.483,TranslationElicitation_eng-prolific,3.2.4,Win32,60,5eb9e9546dffac12320418e9,,1,0,98,8,1,97
,,,,,,,,,,,,,,,,,,,,,,,,,,,,,,,,,,,,,,,,,a,3.845999956,BODEGNA,TRUE,,,,,,,10,botella,Spanish,Sounds/spa_botella.mp3,2020-06-11_10h20.39.483,TranslationElicitation_eng-prolific,3.2.4,Win32,60,5eb9e9546dffac12320418e9,,1,0,98,8,1,97
,,,,,,,,,,,,,,,,,,,,,,,,,,,,,,,,,,,,,,,,,return,4.012000084,BODEGNA,TRUE,,,,,,,10,botella,Spanish,Sounds/spa_botella.mp3,2020-06-11_10h20.39.483,TranslationElicitation_eng-prolific,3.2.4,Win32,60,5eb9e9546dffac12320418e9,4.012000084,1,0,98,8,1,97
,,,,,,,,,,,,,,,,,,,,,,,,,,,,,,,,,,,,,,,,,,,,,,,,,,,10,botella,Spanish,Sounds/spa_botella.mp3,2020-06-11_10h20.39.483,TranslationElicitation_eng-prolific,3.2.4,Win32,60,5eb9e9546dffac12320418e9,,1,0,98,8,1,97
,,,,,,,,,,,,,,,,,,,,,,,,,,,,,,,,,,,,,,,,,l,1.780999899,L,FALSE,,,,,,,88,plato,Spanish,Sounds/spa_plato.mp3,2020-06-11_10h20.39.483,TranslationElicitation_eng-prolific,3.2.4,Win32,60,5eb9e9546dffac12320418e9,,1,0,98,83,1,97
,,,,,,,,,,,,,,,,,,,,,,,,,,,,,,,,,,,,,,,,,a,1.896999836,LA,FALSE,,,,,,,88,plato,Spanish,Sounds/spa_plato.mp3,2020-06-11_10h20.39.483,TranslationElicitation_eng-prolific,3.2.4,Win32,60,5eb9e9546dffac12320418e9,,1,0,98,83,1,97
,,,,,,,,,,,,,,,,,,,,,,,,,,,,,,,,,,,,,,,,,t,2.013000011,LAT,FALSE,,,,,,,88,plato,Spanish,Sounds/spa_plato.mp3,2020-06-11_10h20.39.483,TranslationElicitation_eng-prolific,3.2.4,Win32,60,5eb9e9546dffac12320418e9,,1,0,98,83,1,97
,,,,,,,,,,,,,,,,,,,,,,,,,,,,,,,,,,,,,,,,,o,2.113999844,LATO,FALSE,,,,,,,88,plato,Spanish,Sounds/spa_plato.mp3,2020-06-11_10h20.39.483,TranslationElicitation_eng-prolific,3.2.4,Win32,60,5eb9e9546dffac12320418e9,,1,0,98,83,1,97
,,,,,,,,,,,,,,,,,,,,,,,,,,,,,,,,,,,,,,,,,return,2.395999908,LATO,FALSE,,,,,,,88,plato,Spanish,Sounds/spa_plato.mp3,2020-06-11_10h20.39.483,TranslationElicitation_eng-prolific,3.2.4,Win32,60,5eb9e9546dffac12320418e9,2.395999908,1,0,98,83,1,97
,,,,,,,,,,,,,,,,,,,,,,,,,,,,,,,,,,,,,,,,,,,,,,,,,,,88,plato,Spanish,Sounds/spa_plato.mp3,2020-06-11_10h20.39.483,TranslationElicitation_eng-prolific,3.2.4,Win32,60,5eb9e9546dffac12320418e9,,1,0,98,83,1,97
,,,,,,,,,,,,,,,,,,,,,,,,,,,,,,,,,,,,,,,,,m,1.214999914,M,FALSE,,,,,,,4,biberon,Spanish,Sounds/spa_biberon.mp3,2020-06-11_10h20.39.483,TranslationElicitation_eng-prolific,3.2.4,Win32,60,5eb9e9546dffac12320418e9,,1,0,98,2,1,97
,,,,,,,,,,,,,,,,,,,,,,,,,,,,,,,,,,,,,,,,,i,1.464999914,MI,FALSE,,,,,,,4,biberon,Spanish,Sounds/spa_biberon.mp3,2020-06-11_10h20.39.483,TranslationElicitation_eng-prolific,3.2.4,Win32,60,5eb9e9546dffac12320418e9,,1,0,98,2,1,97
,,,,,,,,,,,,,,,,,,,,,,,,,,,,,,,,,,,,,,,,,r,1.56400013,MIR,FALSE,,,,,,,4,biberon,Spanish,Sounds/spa_biberon.mp3,2020-06-11_10h20.39.483,TranslationElicitation_eng-prolific,3.2.4,Win32,60,5eb9e9546dffac12320418e9,,1,0,98,2,1,97
,,,,,,,,,,,,,,,,,,,,,,,,,,,,,,,,,,,,,,,,,i,1.730999947,MIRI,FALSE,,,,,,,4,biberon,Spanish,Sounds/spa_biberon.mp3,2020-06-11_10h20.39.483,TranslationElicitation_eng-prolific,3.2.4,Win32,60,5eb9e9546dffac12320418e9,,1,0,98,2,1,97
,,,,,,,,,,,,,,,,,,,,,,,,,,,,,,,,,,,,,,,,,n,2.029999971,MIRIN,FALSE,,,,,,,4,biberon,Spanish,Sounds/spa_biberon.mp3,2020-06-11_10h20.39.483,TranslationElicitation_eng-prolific,3.2.4,Win32,60,5eb9e9546dffac12320418e9,,1,0,98,2,1,97
,,,,,,,,,,,,,,,,,,,,,,,,,,,,,,,,,,,,,,,,,o,2.263999939,MIRINO,FALSE,,,,,,,4,biberon,Spanish,Sounds/spa_biberon.mp3,2020-06-11_10h20.39.483,TranslationElicitation_eng-prolific,3.2.4,Win32,60,5eb9e9546dffac12320418e9,,1,0,98,2,1,97
,,,,,,,,,,,,,,,,,,,,,,,,,,,,,,,,,,,,,,,,,return,2.746999979,MIRINO,FALSE,,,,,,,4,biberon,Spanish,Sounds/spa_biberon.mp3,2020-06-11_10h20.39.483,TranslationElicitation_eng-prolific,3.2.4,Win32,60,5eb9e9546dffac12320418e9,2.746999979,1,0,98,2,1,97
,,,,,,,,,,,,,,,,,,,,,,,,,,,,,,,,,,,,,,,,,,,,,,,,,,,4,biberon,Spanish,Sounds/spa_biberon.mp3,2020-06-11_10h20.39.483,TranslationElicitation_eng-prolific,3.2.4,Win32,60,5eb9e9546dffac12320418e9,,1,0,98,2,1,97
,,,,,,,,,,,,,,,,,,,,,,,,,,,,,,,,,,,,,,,,,s,1.282000065,S,FALSE,,,,,,,93,sol,Spanish,Sounds/spa_sol.mp3,2020-06-11_10h20.39.483,TranslationElicitation_eng-prolific,3.2.4,Win32,60,5eb9e9546dffac12320418e9,,1,0,98,88,1,97
,,,,,,,,,,,,,,,,,,,,,,,,,,,,,,,,,,,,,,,,,o,1.364000082,SO,FALSE,,,,,,,93,sol,Spanish,Sounds/spa_sol.mp3,2020-06-11_10h20.39.483,TranslationElicitation_eng-prolific,3.2.4,Win32,60,5eb9e9546dffac12320418e9,,1,0,98,88,1,97
,,,,,,,,,,,,,,,,,,,,,,,,,,,,,,,,,,,,,,,,,l,1.84800005,SOL,FALSE,,,,,,,93,sol,Spanish,Sounds/spa_sol.mp3,2020-06-11_10h20.39.483,TranslationElicitation_eng-prolific,3.2.4,Win32,60,5eb9e9546dffac12320418e9,,1,0,98,88,1,97
,,,,,,,,,,,,,,,,,,,,,,,,,,,,,,,,,,,,,,,,,return,2.030999899,SOL,FALSE,,,,,,,93,sol,Spanish,Sounds/spa_sol.mp3,2020-06-11_10h20.39.483,TranslationElicitation_eng-prolific,3.2.4,Win32,60,5eb9e9546dffac12320418e9,2.030999899,1,0,98,88,1,97
,,,,,,,,,,,,,,,,,,,,,,,,,,,,,,,,,,,,,,,,,,,,,,,,,,,93,sol,Spanish,Sounds/spa_sol.mp3,2020-06-11_10h20.39.483,TranslationElicitation_eng-prolific,3.2.4,Win32,60,5eb9e9546dffac12320418e9,,1,0,98,88,1,97
,,,,,,,,,,,,,,,,,,,,,,,,,,,,,,,,,,,,,,,,,n,1.332000017,N,FALSE,,,,,,,68,naranja,Spanish,Sounds/spa_naranja.mp3,2020-06-11_10h20.39.483,TranslationElicitation_eng-prolific,3.2.4,Win32,60,5eb9e9546dffac12320418e9,,1,0,98,64,1,97
,,,,,,,,,,,,,,,,,,,,,,,,,,,,,,,,,,,,,,,,,a,1.447999954,NA,FALSE,,,,,,,68,naranja,Spanish,Sounds/spa_naranja.mp3,2020-06-11_10h20.39.483,TranslationElicitation_eng-prolific,3.2.4,Win32,60,5eb9e9546dffac12320418e9,,1,0,98,64,1,97
,,,,,,,,,,,,,,,,,,,,,,,,,,,,,,,,,,,,,,,,,t,1.648000002,NAT,FALSE,,,,,,,68,naranja,Spanish,Sounds/spa_naranja.mp3,2020-06-11_10h20.39.483,TranslationElicitation_eng-prolific,3.2.4,Win32,60,5eb9e9546dffac12320418e9,,1,0,98,64,1,97
,,,,,,,,,,,,,,,,,,,,,,,,,,,,,,,,,,,,,,,,,backspace,2.013999939,NA,TRUE,,,,,,,68,naranja,Spanish,Sounds/spa_naranja.mp3,2020-06-11_10h20.39.483,TranslationElicitation_eng-prolific,3.2.4,Win32,60,5eb9e9546dffac12320418e9,,1,0,98,64,1,97
