consentKey.keys,consentKey.rt,languageL1Key.keys,languageL1Key.rt,languageL2,languageL2OralKey.keys,languageL2OralKey.rt,languageL2WrittenKey.keys,languageL2WrittenKey.rt,languageL3OralKey.keys,languageL3OralKey.rt,languageL3WrittenKey.keys,languageL3WrittenKey.rt,languageCatalanOralKey.keys,languageCatalanOralKey.rt,languageCatalanWrittenKey.keys,languageCatalanWrittenKey.rt,languageCatalanTimeKey.keys,languageCatalanTimeKey.rt,languageSpanishOralKey.keys,languageSpanishOralKey.rt,languageSpanishWrittenKey.keys,languageSpanishWrittenKey.rt,languageSpanishTimeKey.keys,languageSpanishTimeKey.rt,age,demoSexKey.keys,demoSexKey.rt,demoEducationKey.keys,demoEducationKey.rt,city,demoVisionKey.keys,demoVisionKey.rt,demoLanguageKey.keys,demoLanguageKey.rt,setupLocationKey.keys,setupLocationKey.rt,setupNoiseKey.keys,setupNoiseKey.rt,instructionsKeys.keys,instructionsKeys.rt,keyPressed,keyPressTime,inputText,error,trialsPracticeSpanish.thisRepN,trialsPracticeSpanish.thisTrialN,trialsPracticeSpanish.thisN,trialsPracticeSpanish.thisIndex,trialsPracticeSpanish.ran,trialsPracticeSpanish.order,trial_id,word,test_language,soundfile,date,expName,psychopyVersion,OS,frameRate,participant,trialOffset,trialsSpanish.thisRepN,trialsSpanish.thisTrialN,trialsSpanish.thisN,trialsSpanish.thisIndex,trialsSpanish.ran,trialsSpanish.order
space,0.769999981,e,1.730000019,,,,,,,,,,1,3.449999809,1,2.526000023,1,1.852999926,1,1.131999731,1,1.546999931,1,1.440999985,23,m,1.320999861,4,4.471999884,BERKSHIRE,y,3.832000017,n,1.451999903,1,3.912999868,2,3.963999748,space,3.943000078,c,2.535999775,C,FALSE,1,0,5,1,1,4,30,corona,Spanish,Sounds/spa_corona.mp3,2020-06-25_12h07.32.988,TranslationElicitation_eng-prolific-spa,3.2.4,MacIntel,60,5eb9b011e926960deb4d6d91,,,,,,,
,,,,,,,,,,,,,,,,,,,,,,,,,,,,,,,,,,,,,,,,,o,2.748999834,CO,FALSE,1,0,5,1,1,4,30,corona,Spanish,Sounds/spa_corona.mp3,2020-06-25_12h07.32.988,TranslationElicitation_eng-prolific-spa,3.2.4,MacIntel,60,5eb9b011e926960deb4d6d91,,,,,,,
,,,,,,,,,,,,,,,,,,,,,,,,,,,,,,,,,,,,,,,,,backspace,4.149999857,C,TRUE,1,0,5,1,1,4,30,corona,Spanish,Sounds/spa_corona.mp3,2020-06-25_12h07.32.988,TranslationElicitation_eng-prolific-spa,3.2.4,MacIntel,60,5eb9b011e926960deb4d6d91,,,,,,,
,,,,,,,,,,,,,,,,,,,,,,,,,,,,,,,,,,,,,,,,,backspace,4.483999968,,TRUE,1,0,5,1,1,4,30,corona,Spanish,Sounds/spa_corona.mp3,2020-06-25_12h07.32.988,TranslationElicitation_eng-prolific-spa,3.2.4,MacIntel,60,5eb9b011e926960deb4d6d91,,,,,,,
,,,,,,,,,,,,,,,,,,,,,,,,,,,,,,,,,,,,,,,,,b,5.000999928,B,TRUE,1,0,5,1,1,4,30,corona,Spanish,Sounds/spa_corona.mp3,2020-06-25_12h07.32.988,TranslationElicitation_eng-prolific-spa,3.2.4,MacIntel,60,5eb9b011e926960deb4d6d91,,,,,,,
,,,,,,,,,,,,,,,,,,,,,,,,,,,,,,,,,,,,,,,,,e,5.115999937,BE,TRUE,1,0,5,1,1,4,30,corona,Spanish,Sounds/spa_corona.mp3,2020-06-25_12h07.32.988,TranslationElicitation_eng-prolific-spa,3.2.4,MacIntel,60,5eb9b011e926960deb4d6d91,,,,,,,
,,,,,,,,,,,,,,,,,,,,,,,,,,,,,,,,,,,,,,,,,e,5.265999794,BEE,TRUE,1,0,5,1,1,4,30,corona,Spanish,Sounds/spa_corona.mp3,2020-06-25_12h07.32.988,TranslationElicitation_eng-prolific-spa,3.2.4,MacIntel,60,5eb9b011e926960deb4d6d91,,,,,,,
,,,,,,,,,,,,,,,,,,,,,,,,,,,,,,,,,,,,,,,,,r,5.465999842,BEER,TRUE,1,0,5,1,1,4,30,corona,Spanish,Sounds/spa_corona.mp3,2020-06-25_12h07.32.988,TranslationElicitation_eng-prolific-spa,3.2.4,MacIntel,60,5eb9b011e926960deb4d6d91,,,,,,,
,,,,,,,,,,,,,,,,,,,,,,,,,,,,,,,,,,,,,,,,,return,5.833999872,BEER,TRUE,1,0,5,1,1,4,30,corona,Spanish,Sounds/spa_corona.mp3,2020-06-25_12h07.32.988,TranslationElicitation_eng-prolific-spa,3.2.4,MacIntel,60,5eb9b011e926960deb4d6d91,5.833999872,,,,,,
,,,,,,,,,,,,,,,,,,,,,,,,,,,,,,,,,,,,,,,,,,,,,1,0,5,1,1,4,30,corona,Spanish,Sounds/spa_corona.mp3,2020-06-25_12h07.32.988,TranslationElicitation_eng-prolific-spa,3.2.4,MacIntel,60,5eb9b011e926960deb4d6d91,,,,,,,
,,,,,,,,,,,,,,,,,,,,,,,,,,,,,,,,,,,,,,,,,c,2.19900012,C,FALSE,1,0,5,2,1,4,26,chaqueta,Spanish,Sounds/spa_chaqueta.mp3,2020-06-25_12h07.32.988,TranslationElicitation_eng-prolific-spa,3.2.4,MacIntel,60,5eb9b011e926960deb4d6d91,,,,,,,
,,,,,,,,,,,,,,,,,,,,,,,,,,,,,,,,,,,,,,,,,h,2.335000038,CH,FALSE,1,0,5,2,1,4,26,chaqueta,Spanish,Sounds/spa_chaqueta.mp3,2020-06-25_12h07.32.988,TranslationElicitation_eng-prolific-spa,3.2.4,MacIntel,60,5eb9b011e926960deb4d6d91,,,,,,,
,,,,,,,,,,,,,,,,,,,,,,,,,,,,,,,,,,,,,,,,,i,2.433000088,CHI,FALSE,1,0,5,2,1,4,26,chaqueta,Spanish,Sounds/spa_chaqueta.mp3,2020-06-25_12h07.32.988,TranslationElicitation_eng-prolific-spa,3.2.4,MacIntel,60,5eb9b011e926960deb4d6d91,,,,,,,
,,,,,,,,,,,,,,,,,,,,,,,,,,,,,,,,,,,,,,,,,k,2.700000048,CHIK,FALSE,1,0,5,2,1,4,26,chaqueta,Spanish,Sounds/spa_chaqueta.mp3,2020-06-25_12h07.32.988,TranslationElicitation_eng-prolific-spa,3.2.4,MacIntel,60,5eb9b011e926960deb4d6d91,,,,,,,
,,,,,,,,,,,,,,,,,,,,,,,,,,,,,,,,,,,,,,,,,backspace,3.032999992,CHI,TRUE,1,0,5,2,1,4,26,chaqueta,Spanish,Sounds/spa_chaqueta.mp3,2020-06-25_12h07.32.988,TranslationElicitation_eng-prolific-spa,3.2.4,MacIntel,60,5eb9b011e926960deb4d6d91,,,,,,,
,,,,,,,,,,,,,,,,,,,,,,,,,,,,,,,,,,,,,,,,,c,3.166000128,CHIC,TRUE,1,0,5,2,1,4,26,chaqueta,Spanish,Sounds/spa_chaqueta.mp3,2020-06-25_12h07.32.988,TranslationElicitation_eng-prolific-spa,3.2.4,MacIntel,60,5eb9b011e926960deb4d6d91,,,,,,,
,,,,,,,,,,,,,,,,,,,,,,,,,,,,,,,,,,,,,,,,,k,3.249000072,CHICK,TRUE,1,0,5,2,1,4,26,chaqueta,Spanish,Sounds/spa_chaqueta.mp3,2020-06-25_12h07.32.988,TranslationElicitation_eng-prolific-spa,3.2.4,MacIntel,60,5eb9b011e926960deb4d6d91,,,,,,,
,,,,,,,,,,,,,,,,,,,,,,,,,,,,,,,,,,,,,,,,,e,3.417000055,CHICKE,TRUE,1,0,5,2,1,4,26,chaqueta,Spanish,Sounds/spa_chaqueta.mp3,2020-06-25_12h07.32.988,TranslationElicitation_eng-prolific-spa,3.2.4,MacIntel,60,5eb9b011e926960deb4d6d91,,,,,,,
,,,,,,,,,,,,,,,,,,,,,,,,,,,,,,,,,,,,,,,,,n,3.485000134,CHICKEN,TRUE,1,0,5,2,1,4,26,chaqueta,Spanish,Sounds/spa_chaqueta.mp3,2020-06-25_12h07.32.988,TranslationElicitation_eng-prolific-spa,3.2.4,MacIntel,60,5eb9b011e926960deb4d6d91,,,,,,,
,,,,,,,,,,,,,,,,,,,,,,,,,,,,,,,,,,,,,,,,,return,3.934999943,CHICKEN,TRUE,1,0,5,2,1,4,26,chaqueta,Spanish,Sounds/spa_chaqueta.mp3,2020-06-25_12h07.32.988,TranslationElicitation_eng-prolific-spa,3.2.4,MacIntel,60,5eb9b011e926960deb4d6d91,3.934999943,,,,,,
,,,,,,,,,,,,,,,,,,,,,,,,,,,,,,,,,,,,,,,,,,,,,1,0,5,2,1,4,26,chaqueta,Spanish,Sounds/spa_chaqueta.mp3,2020-06-25_12h07.32.988,TranslationElicitation_eng-prolific-spa,3.2.4,MacIntel,60,5eb9b011e926960deb4d6d91,,,,,,,
,,,,,,,,,,,,,,,,,,,,,,,,,,,,,,,,,,,,,,,,,h,1.585999966,H,FALSE,1,0,5,3,1,4,70,ola,Spanish,Sounds/spa_ola.mp3,2020-06-25_12h07.32.988,TranslationElicitation_eng-prolific-spa,3.2.4,MacIntel,60,5eb9b011e926960deb4d6d91,,,,,,,
,,,,,,,,,,,,,,,,,,,,,,,,,,,,,,,,,,,,,,,,,e,1.717000008,HE,FALSE,1,0,5,3,1,4,70,ola,Spanish,Sounds/spa_ola.mp3,2020-06-25_12h07.32.988,TranslationElicitation_eng-prolific-spa,3.2.4,MacIntel,60,5eb9b011e926960deb4d6d91,,,,,,,
,,,,,,,,,,,,,,,,,,,,,,,,,,,,,,,,,,,,,,,,,l,1.848999977,HEL,FALSE,1,0,5,3,1,4,70,ola,Spanish,Sounds/spa_ola.mp3,2020-06-25_12h07.32.988,TranslationElicitation_eng-prolific-spa,3.2.4,MacIntel,60,5eb9b011e926960deb4d6d91,,,,,,,
,,,,,,,,,,,,,,,,,,,,,,,,,,,,,,,,,,,,,,,,,l,1.98300004,HELL,FALSE,1,0,5,3,1,4,70,ola,Spanish,Sounds/spa_ola.mp3,2020-06-25_12h07.32.988,TranslationElicitation_eng-prolific-spa,3.2.4,MacIntel,60,5eb9b011e926960deb4d6d91,,,,,,,
,,,,,,,,,,,,,,,,,,,,,,,,,,,,,,,,,,,,,,,,,o,2.167000055,HELLO,FALSE,1,0,5,3,1,4,70,ola,Spanish,Sounds/spa_ola.mp3,2020-06-25_12h07.32.988,TranslationElicitation_eng-prolific-spa,3.2.4,MacIntel,60,5eb9b011e926960deb4d6d91,,,,,,,
,,,,,,,,,,,,,,,,,,,,,,,,,,,,,,,,,,,,,,,,,return,2.348999977,HELLO,FALSE,1,0,5,3,1,4,70,ola,Spanish,Sounds/spa_ola.mp3,2020-06-25_12h07.32.988,TranslationElicitation_eng-prolific-spa,3.2.4,MacIntel,60,5eb9b011e926960deb4d6d91,2.348999977,,,,,,
,,,,,,,,,,,,,,,,,,,,,,,,,,,,,,,,,,,,,,,,,,,,,1,0,5,3,1,4,70,ola,Spanish,Sounds/spa_ola.mp3,2020-06-25_12h07.32.988,TranslationElicitation_eng-prolific-spa,3.2.4,MacIntel,60,5eb9b011e926960deb4d6d91,,,,,,,
,,,,,,,,,,,,,,,,,,,,,,,,,,,,,,,,,,,,,,,,,c,6.832000017,C,FALSE,1,0,5,0,1,4,1,arbol,Spanish,Sounds/spa_arbol.mp3,2020-06-25_12h07.32.988,TranslationElicitation_eng-prolific-spa,3.2.4,MacIntel,60,5eb9b011e926960deb4d6d91,,,,,,,
,,,,,,,,,,,,,,,,,,,,,,,,,,,,,,,,,,,,,,,,,a,7.049000025,CA,FALSE,1,0,5,0,1,4,1,arbol,Spanish,Sounds/spa_arbol.mp3,2020-06-25_12h07.32.988,TranslationElicitation_eng-prolific-spa,3.2.4,MacIntel,60,5eb9b011e926960deb4d6d91,,,,,,,
,,,,,,,,,,,,,,,,,,,,,,,,,,,,,,,,,,,,,,,,,r,7.131999969,CAR,FALSE,1,0,5,0,1,4,1,arbol,Spanish,Sounds/spa_arbol.mp3,2020-06-25_12h07.32.988,TranslationElicitation_eng-prolific-spa,3.2.4,MacIntel,60,5eb9b011e926960deb4d6d91,,,,,,,
,,,,,,,,,,,,,,,,,,,,,,,,,,,,,,,,,,,,,,,,,return,7.465999842,CAR,FALSE,1,0,5,0,1,4,1,arbol,Spanish,Sounds/spa_arbol.mp3,2020-06-25_12h07.32.988,TranslationElicitation_eng-prolific-spa,3.2.4,MacIntel,60,5eb9b011e926960deb4d6d91,7.465999842,,,,,,
,,,,,,,,,,,,,,,,,,,,,,,,,,,,,,,,,,,,,,,,,,,,,1,0,5,0,1,4,1,arbol,Spanish,Sounds/spa_arbol.mp3,2020-06-25_12h07.32.988,TranslationElicitation_eng-prolific-spa,3.2.4,MacIntel,60,5eb9b011e926960deb4d6d91,,,,,,,
,,,,,,,,,,,,,,,,,,,,,,,,,,,,,,,,,,,,,,,,,t,2.417000055,T,FALSE,1,0,5,4,1,4,96,tigre,Spanish,Sounds/spa_tigre.mp3,2020-06-25_12h07.32.988,TranslationElicitation_eng-prolific-spa,3.2.4,MacIntel,60,5eb9b011e926960deb4d6d91,,,,,,,
,,,,,,,,,,,,,,,,,,,,,,,,,,,,,,,,,,,,,,,,,i,2.535000086,TI,FALSE,1,0,5,4,1,4,96,tigre,Spanish,Sounds/spa_tigre.mp3,2020-06-25_12h07.32.988,TranslationElicitation_eng-prolific-spa,3.2.4,MacIntel,60,5eb9b011e926960deb4d6d91,,,,,,,
,,,,,,,,,,,,,,,,,,,,,,,,,,,,,,,,,,,,,,,,,g,2.634000063,TIG,FALSE,1,0,5,4,1,4,96,tigre,Spanish,Sounds/spa_tigre.mp3,2020-06-25_12h07.32.988,TranslationElicitation_eng-prolific-spa,3.2.4,MacIntel,60,5eb9b011e926960deb4d6d91,,,,,,,
,,,,,,,,,,,,,,,,,,,,,,,,,,,,,,,,,,,,,,,,,e,2.835000038,TIGE,FALSE,1,0,5,4,1,4,96,tigre,Spanish,Sounds/spa_tigre.mp3,2020-06-25_12h07.32.988,TranslationElicitation_eng-prolific-spa,3.2.4,MacIntel,60,5eb9b011e926960deb4d6d91,,,,,,,
,,,,,,,,,,,,,,,,,,,,,,,,,,,,,,,,,,,,,,,,,r,2.900000095,TIGER,FALSE,1,0,5,4,1,4,96,tigre,Spanish,Sounds/spa_tigre.mp3,2020-06-25_12h07.32.988,TranslationElicitation_eng-prolific-spa,3.2.4,MacIntel,60,5eb9b011e926960deb4d6d91,,,,,,,
,,,,,,,,,,,,,,,,,,,,,,,,,,,,,,,,,,,,,,,,,return,3.117000103,TIGER,FALSE,1,0,5,4,1,4,96,tigre,Spanish,Sounds/spa_tigre.mp3,2020-06-25_12h07.32.988,TranslationElicitation_eng-prolific-spa,3.2.4,MacIntel,60,5eb9b011e926960deb4d6d91,3.117000103,,,,,,
,,,,,,,,,,,,,,,,,,,,,,,,,,,,,,,,,,,,,,,,,,,,,1,0,5,4,1,4,96,tigre,Spanish,Sounds/spa_tigre.mp3,2020-06-25_12h07.32.988,TranslationElicitation_eng-prolific-spa,3.2.4,MacIntel,60,5eb9b011e926960deb4d6d91,,,,,,,
,,,,,,,,,,,,,,,,,,,,,,,,,,,,,,,,,,,,,,,,,p,1.782999992,P,FALSE,,,,,,,86,pingüino,Spanish,Sounds/spa_pinguino.mp3,2020-06-25_12h07.32.988,TranslationElicitation_eng-prolific-spa,3.2.4,MacIntel,60,5eb9b011e926960deb4d6d91,,1,0,98,81,1,97
,,,,,,,,,,,,,,,,,,,,,,,,,,,,,,,,,,,,,,,,,e,1.882999897,PE,FALSE,,,,,,,86,pingüino,Spanish,Sounds/spa_pinguino.mp3,2020-06-25_12h07.32.988,TranslationElicitation_eng-prolific-spa,3.2.4,MacIntel,60,5eb9b011e926960deb4d6d91,,1,0,98,81,1,97
,,,,,,,,,,,,,,,,,,,,,,,,,,,,,,,,,,,,,,,,,n,2.049999952,PEN,FALSE,,,,,,,86,pingüino,Spanish,Sounds/spa_pinguino.mp3,2020-06-25_12h07.32.988,TranslationElicitation_eng-prolific-spa,3.2.4,MacIntel,60,5eb9b011e926960deb4d6d91,,1,0,98,81,1,97
,,,,,,,,,,,,,,,,,,,,,,,,,,,,,,,,,,,,,,,,,g,2.650999784,PENG,FALSE,,,,,,,86,pingüino,Spanish,Sounds/spa_pinguino.mp3,2020-06-25_12h07.32.988,TranslationElicitation_eng-prolific-spa,3.2.4,MacIntel,60,5eb9b011e926960deb4d6d91,,1,0,98,81,1,97
,,,,,,,,,,,,,,,,,,,,,,,,,,,,,,,,,,,,,,,,,u,2.816999912,PENGU,FALSE,,,,,,,86,pingüino,Spanish,Sounds/spa_pinguino.mp3,2020-06-25_12h07.32.988,TranslationElicitation_eng-prolific-spa,3.2.4,MacIntel,60,5eb9b011e926960deb4d6d91,,1,0,98,81,1,97
,,,,,,,,,,,,,,,,,,,,,,,,,,,,,,,,,,,,,,,,,i,2.88499999,PENGUI,FALSE,,,,,,,86,pingüino,Spanish,Sounds/spa_pinguino.mp3,2020-06-25_12h07.32.988,TranslationElicitation_eng-prolific-spa,3.2.4,MacIntel,60,5eb9b011e926960deb4d6d91,,1,0,98,81,1,97
,,,,,,,,,,,,,,,,,,,,,,,,,,,,,,,,,,,,,,,,,n,3.06799984,PENGUIN,FALSE,,,,,,,86,pingüino,Spanish,Sounds/spa_pinguino.mp3,2020-06-25_12h07.32.988,TranslationElicitation_eng-prolific-spa,3.2.4,MacIntel,60,5eb9b011e926960deb4d6d91,,1,0,98,81,1,97
,,,,,,,,,,,,,,,,,,,,,,,,,,,,,,,,,,,,,,,,,return,3.416999817,PENGUIN,FALSE,,,,,,,86,pingüino,Spanish,Sounds/spa_pinguino.mp3,2020-06-25_12h07.32.988,TranslationElicitation_eng-prolific-spa,3.2.4,MacIntel,60,5eb9b011e926960deb4d6d91,3.416999817,1,0,98,81,1,97
,,,,,,,,,,,,,,,,,,,,,,,,,,,,,,,,,,,,,,,,,,,,,,,,,,,86,pingüino,Spanish,Sounds/spa_pinguino.mp3,2020-06-25_12h07.32.988,TranslationElicitation_eng-prolific-spa,3.2.4,MacIntel,60,5eb9b011e926960deb4d6d91,,1,0,98,81,1,97
,,,,,,,,,,,,,,,,,,,,,,,,,,,,,,,,,,,,,,,,,p,6.980999947,P,FALSE,,,,,,,52,lapiz,Spanish,Sounds/spa_lapiz.mp3,2020-06-25_12h07.32.988,TranslationElicitation_eng-prolific-spa,3.2.4,MacIntel,60,5eb9b011e926960deb4d6d91,,1,0,98,48,1,97
,,,,,,,,,,,,,,,,,,,,,,,,,,,,,,,,,,,,,,,,,u,7.214999914,PU,FALSE,,,,,,,52,lapiz,Spanish,Sounds/spa_lapiz.mp3,2020-06-25_12h07.32.988,TranslationElicitation_eng-prolific-spa,3.2.4,MacIntel,60,5eb9b011e926960deb4d6d91,,1,0,98,48,1,97
,,,,,,,,,,,,,,,,,,,,,,,,,,,,,,,,,,,,,,,,,p,7.381999969,PUP,FALSE,,,,,,,52,lapiz,Spanish,Sounds/spa_lapiz.mp3,2020-06-25_12h07.32.988,TranslationElicitation_eng-prolific-spa,3.2.4,MacIntel,60,5eb9b011e926960deb4d6d91,,1,0,98,48,1,97
,,,,,,,,,,,,,,,,,,,,,,,,,,,,,,,,,,,,,,,,,p,7.549000025,PUPP,FALSE,,,,,,,52,lapiz,Spanish,Sounds/spa_lapiz.mp3,2020-06-25_12h07.32.988,TranslationElicitation_eng-prolific-spa,3.2.4,MacIntel,60,5eb9b011e926960deb4d6d91,,1,0,98,48,1,97
,,,,,,,,,,,,,,,,,,,,,,,,,,,,,,,,,,,,,,,,,i,7.714999914,PUPPI,FALSE,,,,,,,52,lapiz,Spanish,Sounds/spa_lapiz.mp3,2020-06-25_12h07.32.988,TranslationElicitation_eng-prolific-spa,3.2.4,MacIntel,60,5eb9b011e926960deb4d6d91,,1,0,98,48,1,97
,,,,,,,,,,,,,,,,,,,,,,,,,,,,,,,,,,,,,,,,,e,7.970000029,PUPPIE,FALSE,,,,,,,52,lapiz,Spanish,Sounds/spa_lapiz.mp3,2020-06-25_12h07.32.988,TranslationElicitation_eng-prolific-spa,3.2.4,MacIntel,60,5eb9b011e926960deb4d6d91,,1,0,98,48,1,97
,,,,,,,,,,,,,,,,,,,,,,,,,,,,,,,,,,,,,,,,,s,8.014999866,PUPPIES,FALSE,,,,,,,52,lapiz,Spanish,Sounds/spa_lapiz.mp3,2020-06-25_12h07.32.988,TranslationElicitation_eng-prolific-spa,3.2.4,MacIntel,60,5eb9b011e926960deb4d6d91,,1,0,98,48,1,97
,,,,,,,,,,,,,,,,,,,,,,,,,,,,,,,,,,,,,,,,,return,8.414999962,PUPPIES,FALSE,,,,,,,52,lapiz,Spanish,Sounds/spa_lapiz.mp3,2020-06-25_12h07.32.988,TranslationElicitation_eng-prolific-spa,3.2.4,MacIntel,60,5eb9b011e926960deb4d6d91,8.414999962,1,0,98,48,1,97
,,,,,,,,,,,,,,,,,,,,,,,,,,,,,,,,,,,,,,,,,,,,,,,,,,,52,lapiz,Spanish,Sounds/spa_lapiz.mp3,2020-06-25_12h07.32.988,TranslationElicitation_eng-prolific-spa,3.2.4,MacIntel,60,5eb9b011e926960deb4d6d91,,1,0,98,48,1,97
,,,,,,,,,,,,,,,,,,,,,,,,,,,,,,,,,,,,,,,,,h,1.583000183,H,FALSE,,,,,,,41,gallina,Spanish,Sounds/spa_gallina.mp3,2020-06-25_12h07.32.988,TranslationElicitation_eng-prolific-spa,3.2.4,MacIntel,60,5eb9b011e926960deb4d6d91,,1,0,98,37,1,97
,,,,,,,,,,,,,,,,,,,,,,,,,,,,,,,,,,,,,,,,,y,1.766000032,HY,FALSE,,,,,,,41,gallina,Spanish,Sounds/spa_gallina.mp3,2020-06-25_12h07.32.988,TranslationElicitation_eng-prolific-spa,3.2.4,MacIntel,60,5eb9b011e926960deb4d6d91,,1,0,98,37,1,97
,,,,,,,,,,,,,,,,,,,,,,,,,,,,,,,,,,,,,,,,,e,2.100000143,HYE,FALSE,,,,,,,41,gallina,Spanish,Sounds/spa_gallina.mp3,2020-06-25_12h07.32.988,TranslationElicitation_eng-prolific-spa,3.2.4,MacIntel,60,5eb9b011e926960deb4d6d91,,1,0,98,37,1,97
,,,,,,,,,,,,,,,,,,,,,,,,,,,,,,,,,,,,,,,,,backspace,2.700000048,HY,TRUE,,,,,,,41,gallina,Spanish,Sounds/spa_gallina.mp3,2020-06-25_12h07.32.988,TranslationElicitation_eng-prolific-spa,3.2.4,MacIntel,60,5eb9b011e926960deb4d6d91,,1,0,98,37,1,97
,,,,,,,,,,,,,,,,,,,,,,,,,,,,,,,,,,,,,,,,,e,3.017000198,HYE,TRUE,,,,,,,41,gallina,Spanish,Sounds/spa_gallina.mp3,2020-06-25_12h07.32.988,TranslationElicitation_eng-prolific-spa,3.2.4,MacIntel,60,5eb9b011e926960deb4d6d91,,1,0,98,37,1,97
,,,,,,,,,,,,,,,,,,,,,,,,,,,,,,,,,,,,,,,,,n,3.134000063,HYEN,TRUE,,,,,,,41,gallina,Spanish,Sounds/spa_gallina.mp3,2020-06-25_12h07.32.988,TranslationElicitation_eng-prolific-spa,3.2.4,MacIntel,60,5eb9b011e926960deb4d6d91,,1,0,98,37,1,97
,,,,,,,,,,,,,,,,,,,,,,,,,,,,,,,,,,,,,,,,,a,3.21600008,HYENA,TRUE,,,,,,,41,gallina,Spanish,Sounds/spa_gallina.mp3,2020-06-25_12h07.32.988,TranslationElicitation_eng-prolific-spa,3.2.4,MacIntel,60,5eb9b011e926960deb4d6d91,,1,0,98,37,1,97
,,,,,,,,,,,,,,,,,,,,,,,,,,,,,,,,,,,,,,,,,return,6.032999992,HYENA,TRUE,,,,,,,41,gallina,Spanish,Sounds/spa_gallina.mp3,2020-06-25_12h07.32.988,TranslationElicitation_eng-prolific-spa,3.2.4,MacIntel,60,5eb9b011e926960deb4d6d91,6.032999992,1,0,98,37,1,97
,,,,,,,,,,,,,,,,,,,,,,,,,,,,,,,,,,,,,,,,,,,,,,,,,,,41,gallina,Spanish,Sounds/spa_gallina.mp3,2020-06-25_12h07.32.988,TranslationElicitation_eng-prolific-spa,3.2.4,MacIntel,60,5eb9b011e926960deb4d6d91,,1,0,98,37,1,97
,,,,,,,,,,,,,,,,,,,,,,,,,,,,,,,,,,,,,,,,,s,3.366999865,S,FALSE,,,,,,,45,gorro,Spanish,Sounds/spa_gorro.mp3,2020-06-25_12h07.32.988,TranslationElicitation_eng-prolific-spa,3.2.4,MacIntel,60,5eb9b011e926960deb4d6d91,,1,0,98,41,1,97
,,,,,,,,,,,,,,,,,,,,,,,,,,,,,,,,,,,,,,,,,c,3.517999887,SC,FALSE,,,,,,,45,gorro,Spanish,Sounds/spa_gorro.mp3,2020-06-25_12h07.32.988,TranslationElicitation_eng-prolific-spa,3.2.4,MacIntel,60,5eb9b011e926960deb4d6d91,,1,0,98,41,1,97
,,,,,,,,,,,,,,,,,,,,,,,,,,,,,,,,,,,,,,,,,a,3.616999865,SCA,FALSE,,,,,,,45,gorro,Spanish,Sounds/spa_gorro.mp3,2020-06-25_12h07.32.988,TranslationElicitation_eng-prolific-spa,3.2.4,MacIntel,60,5eb9b011e926960deb4d6d91,,1,0,98,41,1,97
,,,,,,,,,,,,,,,,,,,,,,,,,,,,,,,,,,,,,,,,,r,3.75,SCAR,FALSE,,,,,,,45,gorro,Spanish,Sounds/spa_gorro.mp3,2020-06-25_12h07.32.988,TranslationElicitation_eng-prolific-spa,3.2.4,MacIntel,60,5eb9b011e926960deb4d6d91,,1,0,98,41,1,97
,,,,,,,,,,,,,,,,,,,,,,,,,,,,,,,,,,,,,,,,,y,3.967999935,SCARY,FALSE,,,,,,,45,gorro,Spanish,Sounds/spa_gorro.mp3,2020-06-25_12h07.32.988,TranslationElicitation_eng-prolific-spa,3.2.4,MacIntel,60,5eb9b011e926960deb4d6d91,,1,0,98,41,1,97
,,,,,,,,,,,,,,,,,,,,,,,,,,,,,,,,,,,,,,,,,return,4.984999895,SCARY,FALSE,,,,,,,45,gorro,Spanish,Sounds/spa_gorro.mp3,2020-06-25_12h07.32.988,TranslationElicitation_eng-prolific-spa,3.2.4,MacIntel,60,5eb9b011e926960deb4d6d91,4.984999895,1,0,98,41,1,97
,,,,,,,,,,,,,,,,,,,,,,,,,,,,,,,,,,,,,,,,,,,,,,,,,,,45,gorro,Spanish,Sounds/spa_gorro.mp3,2020-06-25_12h07.32.988,TranslationElicitation_eng-prolific-spa,3.2.4,MacIntel,60,5eb9b011e926960deb4d6d91,,1,0,98,41,1,97
,,,,,,,,,,,,,,,,,,,,,,,,,,,,,,,,,,,,,,,,,h,3.233999968,H,FALSE,,,,,,,103,zanahoria,Spanish,Sounds/spa_zanahoria.mp3,2020-06-25_12h07.32.988,TranslationElicitation_eng-prolific-spa,3.2.4,MacIntel,60,5eb9b011e926960deb4d6d91,,1,0,98,97,1,97
,,,,,,,,,,,,,,,,,,,,,,,,,,,,,,,,,,,,,,,,,a,3.350999832,HA,FALSE,,,,,,,103,zanahoria,Spanish,Sounds/spa_zanahoria.mp3,2020-06-25_12h07.32.988,TranslationElicitation_eng-prolific-spa,3.2.4,MacIntel,60,5eb9b011e926960deb4d6d91,,1,0,98,97,1,97
,,,,,,,,,,,,,,,,,,,,,,,,,,,,,,,,,,,,,,,,,t,3.433999777,HAT,FALSE,,,,,,,103,zanahoria,Spanish,Sounds/spa_zanahoria.mp3,2020-06-25_12h07.32.988,TranslationElicitation_eng-prolific-spa,3.2.4,MacIntel,60,5eb9b011e926960deb4d6d91,,1,0,98,97,1,97
,,,,,,,,,,,,,,,,,,,,,,,,,,,,,,,,,,,,,,,,,return,4.004999876,HAT,FALSE,,,,,,,103,zanahoria,Spanish,Sounds/spa_zanahoria.mp3,2020-06-25_12h07.32.988,TranslationElicitation_eng-prolific-spa,3.2.4,MacIntel,60,5eb9b011e926960deb4d6d91,4.004999876,1,0,98,97,1,97
,,,,,,,,,,,,,,,,,,,,,,,,,,,,,,,,,,,,,,,,,,,,,,,,,,,103,zanahoria,Spanish,Sounds/spa_zanahoria.mp3,2020-06-25_12h07.32.988,TranslationElicitation_eng-prolific-spa,3.2.4,MacIntel,60,5eb9b011e926960deb4d6d91,,1,0,98,97,1,97
,,,,,,,,,,,,,,,,,,,,,,,,,,,,,,,,,,,,,,,,,l,2.616999865,L,FALSE,,,,,,,57,loro,Spanish,Sounds/spa_loro.mp3,2020-06-25_12h07.32.988,TranslationElicitation_eng-prolific-spa,3.2.4,MacIntel,60,5eb9b011e926960deb4d6d91,,1,0,98,53,1,97
,,,,,,,,,,,,,,,,,,,,,,,,,,,,,,,,,,,,,,,,,a,2.700000048,LA,FALSE,,,,,,,57,loro,Spanish,Sounds/spa_loro.mp3,2020-06-25_12h07.32.988,TranslationElicitation_eng-prolific-spa,3.2.4,MacIntel,60,5eb9b011e926960deb4d6d91,,1,0,98,53,1,97
,,,,,,,,,,,,,,,,,,,,,,,,,,,,,,,,,,,,,,,,,w,2.934000015,LAW,FALSE,,,,,,,57,loro,Spanish,Sounds/spa_loro.mp3,2020-06-25_12h07.32.988,TranslationElicitation_eng-prolific-spa,3.2.4,MacIntel,60,5eb9b011e926960deb4d6d91,,1,0,98,53,1,97
,,,,,,,,,,,,,,,,,,,,,,,,,,,,,,,,,,,,,,,,,return,3.26699996,LAW,FALSE,,,,,,,57,loro,Spanish,Sounds/spa_loro.mp3,2020-06-25_12h07.32.988,TranslationElicitation_eng-prolific-spa,3.2.4,MacIntel,60,5eb9b011e926960deb4d6d91,3.26699996,1,0,98,53,1,97
,,,,,,,,,,,,,,,,,,,,,,,,,,,,,,,,,,,,,,,,,,,,,,,,,,,57,loro,Spanish,Sounds/spa_loro.mp3,2020-06-25_12h07.32.988,TranslationElicitation_eng-prolific-spa,3.2.4,MacIntel,60,5eb9b011e926960deb4d6d91,,1,0,98,53,1,97
,,,,,,,,,,,,,,,,,,,,,,,,,,,,,,,,,,,,,,,,,b,10.73199987,B,FALSE,,,,,,,102,ventana,Spanish,Sounds/spa_ventana.mp3,2020-06-25_12h07.32.988,TranslationElicitation_eng-prolific-spa,3.2.4,MacIntel,60,5eb9b011e926960deb4d6d91,,1,0,98,96,1,97
,,,,,,,,,,,,,,,,,,,,,,,,,,,,,,,,,,,,,,,,,a,10.81599998,BA,FALSE,,,,,,,102,ventana,Spanish,Sounds/spa_ventana.mp3,2020-06-25_12h07.32.988,TranslationElicitation_eng-prolific-spa,3.2.4,MacIntel,60,5eb9b011e926960deb4d6d91,,1,0,98,96,1,97
,,,,,,,,,,,,,,,,,,,,,,,,,,,,,,,,,,,,,,,,,n,10.96700001,BAN,FALSE,,,,,,,102,ventana,Spanish,Sounds/spa_ventana.mp3,2020-06-25_12h07.32.988,TranslationElicitation_eng-prolific-spa,3.2.4,MacIntel,60,5eb9b011e926960deb4d6d91,,1,0,98,96,1,97
,,,,,,,,,,,,,,,,,,,,,,,,,,,,,,,,,,,,,,,,,a,11.1329999,BANA,FALSE,,,,,,,102,ventana,Spanish,Sounds/spa_ventana.mp3,2020-06-25_12h07.32.988,TranslationElicitation_eng-prolific-spa,3.2.4,MacIntel,60,5eb9b011e926960deb4d6d91,,1,0,98,96,1,97
,,,,,,,,,,,,,,,,,,,,,,,,,,,,,,,,,,,,,,,,,n,11.5999999,BANAN,FALSE,,,,,,,102,ventana,Spanish,Sounds/spa_ventana.mp3,2020-06-25_12h07.32.988,TranslationElicitation_eng-prolific-spa,3.2.4,MacIntel,60,5eb9b011e926960deb4d6d91,,1,0,98,96,1,97
,,,,,,,,,,,,,,,,,,,,,,,,,,,,,,,,,,,,,,,,,a,11.68299985,BANANA,FALSE,,,,,,,102,ventana,Spanish,Sounds/spa_ventana.mp3,2020-06-25_12h07.32.988,TranslationElicitation_eng-prolific-spa,3.2.4,MacIntel,60,5eb9b011e926960deb4d6d91,,1,0,98,96,1,97
,,,,,,,,,,,,,,,,,,,,,,,,,,,,,,,,,,,,,,,,,return,12.35599995,BANANA,FALSE,,,,,,,102,ventana,Spanish,Sounds/spa_ventana.mp3,2020-06-25_12h07.32.988,TranslationElicitation_eng-prolific-spa,3.2.4,MacIntel,60,5eb9b011e926960deb4d6d91,12.35599995,1,0,98,96,1,97
,,,,,,,,,,,,,,,,,,,,,,,,,,,,,,,,,,,,,,,,,,,,,,,,,,,102,ventana,Spanish,Sounds/spa_ventana.mp3,2020-06-25_12h07.32.988,TranslationElicitation_eng-prolific-spa,3.2.4,MacIntel,60,5eb9b011e926960deb4d6d91,,1,0,98,96,1,97
,,,,,,,,,,,,,,,,,,,,,,,,,,,,,,,,,,,,,,,,,u,2.532999992,U,FALSE,,,,,,,9,boli,Spanish,Sounds/spa_boli.mp3,2020-06-25_12h07.32.988,TranslationElicitation_eng-prolific-spa,3.2.4,MacIntel,60,5eb9b011e926960deb4d6d91,,1,0,98,7,1,97
,,,,,,,,,,,,,,,,,,,,,,,,,,,,,,,,,,,,,,,,,n,2.749000072,UN,FALSE,,,,,,,9,boli,Spanish,Sounds/spa_boli.mp3,2020-06-25_12h07.32.988,TranslationElicitation_eng-prolific-spa,3.2.4,MacIntel,60,5eb9b011e926960deb4d6d91,,1,0,98,7,1,97
,,,,,,,,,,,,,,,,,,,,,,,,,,,,,,,,,,,,,,,,,b,3,UNB,FALSE,,,,,,,9,boli,Spanish,Sounds/spa_boli.mp3,2020-06-25_12h07.32.988,TranslationElicitation_eng-prolific-spa,3.2.4,MacIntel,60,5eb9b011e926960deb4d6d91,,1,0,98,7,1,97
,,,,,,,,,,,,,,,,,,,,,,,,,,,,,,,,,,,,,,,,,r,3.164999962,UNBR,FALSE,,,,,,,9,boli,Spanish,Sounds/spa_boli.mp3,2020-06-25_12h07.32.988,TranslationElicitation_eng-prolific-spa,3.2.4,MacIntel,60,5eb9b011e926960deb4d6d91,,1,0,98,7,1,97
,,,,,,,,,,,,,,,,,,,,,,,,,,,,,,,,,,,,,,,,,e,3.382999897,UNBRE,FALSE,,,,,,,9,boli,Spanish,Sounds/spa_boli.mp3,2020-06-25_12h07.32.988,TranslationElicitation_eng-prolific-spa,3.2.4,MacIntel,60,5eb9b011e926960deb4d6d91,,1,0,98,7,1,97
,,,,,,,,,,,,,,,,,,,,,,,,,,,,,,,,,,,,,,,,,l,3.467000008,UNBREL,FALSE,,,,,,,9,boli,Spanish,Sounds/spa_boli.mp3,2020-06-25_12h07.32.988,TranslationElicitation_eng-prolific-spa,3.2.4,MacIntel,60,5eb9b011e926960deb4d6d91,,1,0,98,7,1,97
,,,,,,,,,,,,,,,,,,,,,,,,,,,,,,,,,,,,,,,,,l,3.617000103,UNBRELL,FALSE,,,,,,,9,boli,Spanish,Sounds/spa_boli.mp3,2020-06-25_12h07.32.988,TranslationElicitation_eng-prolific-spa,3.2.4,MacIntel,60,5eb9b011e926960deb4d6d91,,1,0,98,7,1,97
,,,,,,,,,,,,,,,,,,,,,,,,,,,,,,,,,,,,,,,,,a,3.700999975,UNBRELLA,FALSE,,,,,,,9,boli,Spanish,Sounds/spa_boli.mp3,2020-06-25_12h07.32.988,TranslationElicitation_eng-prolific-spa,3.2.4,MacIntel,60,5eb9b011e926960deb4d6d91,,1,0,98,7,1,97
,,,,,,,,,,,,,,,,,,,,,,,,,,,,,,,,,,,,,,,,,backspace,5.516000032,UNBRELL,TRUE,,,,,,,9,boli,Spanish,Sounds/spa_boli.mp3,2020-06-25_12h07.32.988,TranslationElicitation_eng-prolific-spa,3.2.4,MacIntel,60,5eb9b011e926960deb4d6d91,,1,0,98,7,1,97
,,,,,,,,,,,,,,,,,,,,,,,,,,,,,,,,,,,,,,,,,backspace,5.700000048,UNBREL,TRUE,,,,,,,9,boli,Spanish,Sounds/spa_boli.mp3,2020-06-25_12h07.32.988,TranslationElicitation_eng-prolific-spa,3.2.4,MacIntel,60,5eb9b011e926960deb4d6d91,,1,0,98,7,1,97
,,,,,,,,,,,,,,,,,,,,,,,,,,,,,,,,,,,,,,,,,backspace,5.867000103,UNBRE,TRUE,,,,,,,9,boli,Spanish,Sounds/spa_boli.mp3,2020-06-25_12h07.32.988,TranslationElicitation_eng-prolific-spa,3.2.4,MacIntel,60,5eb9b011e926960deb4d6d91,,1,0,98,7,1,97
,,,,,,,,,,,,,,,,,,,,,,,,,,,,,,,,,,,,,,,,,backspace,6.01699996,UNBR,TRUE,,,,,,,9,boli,Spanish,Sounds/spa_boli.mp3,2020-06-25_12h07.32.988,TranslationElicitation_eng-prolific-spa,3.2.4,MacIntel,60,5eb9b011e926960deb4d6d91,,1,0,98,7,1,97
,,,,,,,,,,,,,,,,,,,,,,,,,,,,,,,,,,,,,,,,,backspace,6.183000088,UNB,TRUE,,,,,,,9,boli,Spanish,Sounds/spa_boli.mp3,2020-06-25_12h07.32.988,TranslationElicitation_eng-prolific-spa,3.2.4,MacIntel,60,5eb9b011e926960deb4d6d91,,1,0,98,7,1,97
,,,,,,,,,,,,,,,,,,,,,,,,,,,,,,,,,,,,,,,,,backspace,6.332999945,UN,TRUE,,,,,,,9,boli,Spanish,Sounds/spa_boli.mp3,2020-06-25_12h07.32.988,TranslationElicitation_eng-prolific-spa,3.2.4,MacIntel,60,5eb9b011e926960deb4d6d91,,1,0,98,7,1,97
,,,,,,,,,,,,,,,,,,,,,,,,,,,,,,,,,,,,,,,,,backspace,6.483999968,U,TRUE,,,,,,,9,boli,Spanish,Sounds/spa_boli.mp3,2020-06-25_12h07.32.988,TranslationElicitation_eng-prolific-spa,3.2.4,MacIntel,60,5eb9b011e926960deb4d6d91,,1,0,98,7,1,97
,,,,,,,,,,,,,,,,,,,,,,,,,,,,,,,,,,,,,,,,,m,7.084000111,UM,TRUE,,,,,,,9,boli,Spanish,Sounds/spa_boli.mp3,2020-06-25_12h07.32.988,TranslationElicitation_eng-prolific-spa,3.2.4,MacIntel,60,5eb9b011e926960deb4d6d91,,1,0,98,7,1,97
,,,,,,,,,,,,,,,,,,,,,,,,,,,,,,,,,,,,,,,,,b,7.334000111,UMB,TRUE,,,,,,,9,boli,Spanish,Sounds/spa_boli.mp3,2020-06-25_12h07.32.988,TranslationElicitation_eng-prolific-spa,3.2.4,MacIntel,60,5eb9b011e926960deb4d6d91,,1,0,98,7,1,97
,,,,,,,,,,,,,,,,,,,,,,,,,,,,,,,,,,,,,,,,,r,7.467000008,UMBR,TRUE,,,,,,,9,boli,Spanish,Sounds/spa_boli.mp3,2020-06-25_12h07.32.988,TranslationElicitation_eng-prolific-spa,3.2.4,MacIntel,60,5eb9b011e926960deb4d6d91,,1,0,98,7,1,97
,,,,,,,,,,,,,,,,,,,,,,,,,,,,,,,,,,,,,,,,,e,7.651000023,UMBRE,TRUE,,,,,,,9,boli,Spanish,Sounds/spa_boli.mp3,2020-06-25_12h07.32.988,TranslationElicitation_eng-prolific-spa,3.2.4,MacIntel,60,5eb9b011e926960deb4d6d91,,1,0,98,7,1,97
,,,,,,,,,,,,,,,,,,,,,,,,,,,,,,,,,,,,,,,,,l,7.752000093,UMBREL,TRUE,,,,,,,9,boli,Spanish,Sounds/spa_boli.mp3,2020-06-25_12h07.32.988,TranslationElicitation_eng-prolific-spa,3.2.4,MacIntel,60,5eb9b011e926960deb4d6d91,,1,0,98,7,1,97
,,,,,,,,,,,,,,,,,,,,,,,,,,,,,,,,,,,,,,,,,l,7.882999897,UMBRELL,TRUE,,,,,,,9,boli,Spanish,Sounds/spa_boli.mp3,2020-06-25_12h07.32.988,TranslationElicitation_eng-prolific-spa,3.2.4,MacIntel,60,5eb9b011e926960deb4d6d91,,1,0,98,7,1,97
,,,,,,,,,,,,,,,,,,,,,,,,,,,,,,,,,,,,,,,,,a,7.967000008,UMBRELLA,TRUE,,,,,,,9,boli,Spanish,Sounds/spa_boli.mp3,2020-06-25_12h07.32.988,TranslationElicitation_eng-prolific-spa,3.2.4,MacIntel,60,5eb9b011e926960deb4d6d91,,1,0,98,7,1,97
,,,,,,,,,,,,,,,,,,,,,,,,,,,,,,,,,,,,,,,,,return,8.167000055,UMBRELLA,TRUE,,,,,,,9,boli,Spanish,Sounds/spa_boli.mp3,2020-06-25_12h07.32.988,TranslationElicitation_eng-prolific-spa,3.2.4,MacIntel,60,5eb9b011e926960deb4d6d91,8.167000055,1,0,98,7,1,97
,,,,,,,,,,,,,,,,,,,,,,,,,,,,,,,,,,,,,,,,,,,,,,,,,,,9,boli,Spanish,Sounds/spa_boli.mp3,2020-06-25_12h07.32.988,TranslationElicitation_eng-prolific-spa,3.2.4,MacIntel,60,5eb9b011e926960deb4d6d91,,1,0,98,7,1,97
,,,,,,,,,,,,,,,,,,,,,,,,,,,,,,,,,,,,,,,,,e,15.273,E,FALSE,,,,,,,24,cereza,Spanish,Sounds/spa_cereza.mp3,2020-06-25_12h07.32.988,TranslationElicitation_eng-prolific-spa,3.2.4,MacIntel,60,5eb9b011e926960deb4d6d91,,1,0,98,22,1,97
,,,,,,,,,,,,,,,,,,,,,,,,,,,,,,,,,,,,,,,,,v,15.35099983,EV,FALSE,,,,,,,24,cereza,Spanish,Sounds/spa_cereza.mp3,2020-06-25_12h07.32.988,TranslationElicitation_eng-prolific-spa,3.2.4,MacIntel,60,5eb9b011e926960deb4d6d91,,1,0,98,22,1,97
,,,,,,,,,,,,,,,,,,,,,,,,,,,,,,,,,,,,,,,,,e,15.46799994,EVE,FALSE,,,,,,,24,cereza,Spanish,Sounds/spa_cereza.mp3,2020-06-25_12h07.32.988,TranslationElicitation_eng-prolific-spa,3.2.4,MacIntel,60,5eb9b011e926960deb4d6d91,,1,0,98,22,1,97
,,,,,,,,,,,,,,,,,,,,,,,,,,,,,,,,,,,,,,,,,n,16.01799989,EVEN,FALSE,,,,,,,24,cereza,Spanish,Sounds/spa_cereza.mp3,2020-06-25_12h07.32.988,TranslationElicitation_eng-prolific-spa,3.2.4,MacIntel,60,5eb9b011e926960deb4d6d91,,1,0,98,22,1,97
,,,,,,,,,,,,,,,,,,,,,,,,,,,,,,,,,,,,,,,,,i,16.20099998,EVENI,FALSE,,,,,,,24,cereza,Spanish,Sounds/spa_cereza.mp3,2020-06-25_12h07.32.988,TranslationElicitation_eng-prolific-spa,3.2.4,MacIntel,60,5eb9b011e926960deb4d6d91,,1,0,98,22,1,97
,,,,,,,,,,,,,,,,,,,,,,,,,,,,,,,,,,,,,,,,,n,16.30099988,EVENIN,FALSE,,,,,,,24,cereza,Spanish,Sounds/spa_cereza.mp3,2020-06-25_12h07.32.988,TranslationElicitation_eng-prolific-spa,3.2.4,MacIntel,60,5eb9b011e926960deb4d6d91,,1,0,98,22,1,97
,,,,,,,,,,,,,,,,,,,,,,,,,,,,,,,,,,,,,,,,,g,16.40299988,EVENING,FALSE,,,,,,,24,cereza,Spanish,Sounds/spa_cereza.mp3,2020-06-25_12h07.32.988,TranslationElicitation_eng-prolific-spa,3.2.4,MacIntel,60,5eb9b011e926960deb4d6d91,,1,0,98,22,1,97
,,,,,,,,,,,,,,,,,,,,,,,,,,,,,,,,,,,,,,,,,return,16.60299993,EVENING,FALSE,,,,,,,24,cereza,Spanish,Sounds/spa_cereza.mp3,2020-06-25_12h07.32.988,TranslationElicitation_eng-prolific-spa,3.2.4,MacIntel,60,5eb9b011e926960deb4d6d91,16.60299993,1,0,98,22,1,97
,,,,,,,,,,,,,,,,,,,,,,,,,,,,,,,,,,,,,,,,,,,,,,,,,,,24,cereza,Spanish,Sounds/spa_cereza.mp3,2020-06-25_12h07.32.988,TranslationElicitation_eng-prolific-spa,3.2.4,MacIntel,60,5eb9b011e926960deb4d6d91,,1,0,98,22,1,97
,,,,,,,,,,,,,,,,,,,,,,,,,,,,,,,,,,,,,,,,,s,3.06799984,S,FALSE,,,,,,,2,avestruz,Spanish,Sounds/spa_avestruz.mp3,2020-06-25_12h07.32.988,TranslationElicitation_eng-prolific-spa,3.2.4,MacIntel,60,5eb9b011e926960deb4d6d91,,1,0,98,0,1,97
,,,,,,,,,,,,,,,,,,,,,,,,,,,,,,,,,,,,,,,,,t,3.200000048,ST,FALSE,,,,,,,2,avestruz,Spanish,Sounds/spa_avestruz.mp3,2020-06-25_12h07.32.988,TranslationElicitation_eng-prolific-spa,3.2.4,MacIntel,60,5eb9b011e926960deb4d6d91,,1,0,98,0,1,97
,,,,,,,,,,,,,,,,,,,,,,,,,,,,,,,,,,,,,,,,,a,3.30099988,STA,FALSE,,,,,,,2,avestruz,Spanish,Sounds/spa_avestruz.mp3,2020-06-25_12h07.32.988,TranslationElicitation_eng-prolific-spa,3.2.4,MacIntel,60,5eb9b011e926960deb4d6d91,,1,0,98,0,1,97
,,,,,,,,,,,,,,,,,,,,,,,,,,,,,,,,,,,,,,,,,w,3.401000023,STAW,FALSE,,,,,,,2,avestruz,Spanish,Sounds/spa_avestruz.mp3,2020-06-25_12h07.32.988,TranslationElicitation_eng-prolific-spa,3.2.4,MacIntel,60,5eb9b011e926960deb4d6d91,,1,0,98,0,1,97
,,,,,,,,,,,,,,,,,,,,,,,,,,,,,,,,,,,,,,,,,s,4.03399992,STAWS,FALSE,,,,,,,2,avestruz,Spanish,Sounds/spa_avestruz.mp3,2020-06-25_12h07.32.988,TranslationElicitation_eng-prolific-spa,3.2.4,MacIntel,60,5eb9b011e926960deb4d6d91,,1,0,98,0,1,97
,,,,,,,,,,,,,,,,,,,,,,,,,,,,,,,,,,,,,,,,,return,4.565999985,STAWS,FALSE,,,,,,,2,avestruz,Spanish,Sounds/spa_avestruz.mp3,2020-06-25_12h07.32.988,TranslationElicitation_eng-prolific-spa,3.2.4,MacIntel,60,5eb9b011e926960deb4d6d91,4.565999985,1,0,98,0,1,97
,,,,,,,,,,,,,,,,,,,,,,,,,,,,,,,,,,,,,,,,,,,,,,,,,,,2,avestruz,Spanish,Sounds/spa_avestruz.mp3,2020-06-25_12h07.32.988,TranslationElicitation_eng-prolific-spa,3.2.4,MacIntel,60,5eb9b011e926960deb4d6d91,,1,0,98,0,1,97
,,,,,,,,,,,,,,,,,,,,,,,,,,,,,,,,,,,,,,,,,m,1.499000072,M,FALSE,,,,,,,66,moto,Spanish,Sounds/spa_moto.mp3,2020-06-25_12h07.32.988,TranslationElicitation_eng-prolific-spa,3.2.4,MacIntel,60,5eb9b011e926960deb4d6d91,,1,0,98,62,1,97
,,,,,,,,,,,,,,,,,,,,,,,,,,,,,,,,,,,,,,,,,o,1.650000095,MO,FALSE,,,,,,,66,moto,Spanish,Sounds/spa_moto.mp3,2020-06-25_12h07.32.988,TranslationElicitation_eng-prolific-spa,3.2.4,MacIntel,60,5eb9b011e926960deb4d6d91,,1,0,98,62,1,97
,,,,,,,,,,,,,,,,,,,,,,,,,,,,,,,,,,,,,,,,,t,1.75,MOT,FALSE,,,,,,,66,moto,Spanish,Sounds/spa_moto.mp3,2020-06-25_12h07.32.988,TranslationElicitation_eng-prolific-spa,3.2.4,MacIntel,60,5eb9b011e926960deb4d6d91,,1,0,98,62,1,97
,,,,,,,,,,,,,,,,,,,,,,,,,,,,,,,,,,,,,,,,,e,1.883000135,MOTE,FALSE,,,,,,,66,moto,Spanish,Sounds/spa_moto.mp3,2020-06-25_12h07.32.988,TranslationElicitation_eng-prolific-spa,3.2.4,MacIntel,60,5eb9b011e926960deb4d6d91,,1,0,98,62,1,97
,,,,,,,,,,,,,,,,,,,,,,,,,,,,,,,,,,,,,,,,,r,2,MOTER,FALSE,,,,,,,66,moto,Spanish,Sounds/spa_moto.mp3,2020-06-25_12h07.32.988,TranslationElicitation_eng-prolific-spa,3.2.4,MacIntel,60,5eb9b011e926960deb4d6d91,,1,0,98,62,1,97
,,,,,,,,,,,,,,,,,,,,,,,,,,,,,,,,,,,,,,,,,backspace,3.53399992,MOTE,TRUE,,,,,,,66,moto,Spanish,Sounds/spa_moto.mp3,2020-06-25_12h07.32.988,TranslationElicitation_eng-prolific-spa,3.2.4,MacIntel,60,5eb9b011e926960deb4d6d91,,1,0,98,62,1,97
,,,,,,,,,,,,,,,,,,,,,,,,,,,,,,,,,,,,,,,,,backspace,3.684000015,MOT,TRUE,,,,,,,66,moto,Spanish,Sounds/spa_moto.mp3,2020-06-25_12h07.32.988,TranslationElicitation_eng-prolific-spa,3.2.4,MacIntel,60,5eb9b011e926960deb4d6d91,,1,0,98,62,1,97
,,,,,,,,,,,,,,,,,,,,,,,,,,,,,,,,,,,,,,,,,backspace,4.03399992,MO,TRUE,,,,,,,66,moto,Spanish,Sounds/spa_moto.mp3,2020-06-25_12h07.32.988,TranslationElicitation_eng-prolific-spa,3.2.4,MacIntel,60,5eb9b011e926960deb4d6d91,,1,0,98,62,1,97
,,,,,,,,,,,,,,,,,,,,,,,,,,,,,,,,,,,,,,,,,t,4.75,MOT,TRUE,,,,,,,66,moto,Spanish,Sounds/spa_moto.mp3,2020-06-25_12h07.32.988,TranslationElicitation_eng-prolific-spa,3.2.4,MacIntel,60,5eb9b011e926960deb4d6d91,,1,0,98,62,1,97
,,,,,,,,,,,,,,,,,,,,,,,,,,,,,,,,,,,,,,,,,o,4.868000031,MOTO,TRUE,,,,,,,66,moto,Spanish,Sounds/spa_moto.mp3,2020-06-25_12h07.32.988,TranslationElicitation_eng-prolific-spa,3.2.4,MacIntel,60,5eb9b011e926960deb4d6d91,,1,0,98,62,1,97
,,,,,,,,,,,,,,,,,,,,,,,,,,,,,,,,,,,,,,,,,r,4.917999983,MOTOR,TRUE,,,,,,,66,moto,Spanish,Sounds/spa_moto.mp3,2020-06-25_12h07.32.988,TranslationElicitation_eng-prolific-spa,3.2.4,MacIntel,60,5eb9b011e926960deb4d6d91,,1,0,98,62,1,97
,,,,,,,,,,,,,,,,,,,,,,,,,,,,,,,,,,,,,,,,,return,5.500999928,MOTOR,TRUE,,,,,,,66,moto,Spanish,Sounds/spa_moto.mp3,2020-06-25_12h07.32.988,TranslationElicitation_eng-prolific-spa,3.2.4,MacIntel,60,5eb9b011e926960deb4d6d91,5.500999928,1,0,98,62,1,97
,,,,,,,,,,,,,,,,,,,,,,,,,,,,,,,,,,,,,,,,,,,,,,,,,,,66,moto,Spanish,Sounds/spa_moto.mp3,2020-06-25_12h07.32.988,TranslationElicitation_eng-prolific-spa,3.2.4,MacIntel,60,5eb9b011e926960deb4d6d91,,1,0,98,62,1,97
,,,,,,,,,,,,,,,,,,,,,,,,,,,,,,,,,,,,,,,,,c,7.936000109,C,FALSE,,,,,,,19,camiseta,Spanish,Sounds/spa_camiseta.mp3,2020-06-25_12h07.32.988,TranslationElicitation_eng-prolific-spa,3.2.4,MacIntel,60,5eb9b011e926960deb4d6d91,,1,0,98,17,1,97
,,,,,,,,,,,,,,,,,,,,,,,,,,,,,,,,,,,,,,,,,a,8.100000143,CA,FALSE,,,,,,,19,camiseta,Spanish,Sounds/spa_camiseta.mp3,2020-06-25_12h07.32.988,TranslationElicitation_eng-prolific-spa,3.2.4,MacIntel,60,5eb9b011e926960deb4d6d91,,1,0,98,17,1,97
,,,,,,,,,,,,,,,,,,,,,,,,,,,,,,,,,,,,,,,,,m,8.284000158,CAM,FALSE,,,,,,,19,camiseta,Spanish,Sounds/spa_camiseta.mp3,2020-06-25_12h07.32.988,TranslationElicitation_eng-prolific-spa,3.2.4,MacIntel,60,5eb9b011e926960deb4d6d91,,1,0,98,17,1,97
,,,,,,,,,,,,,,,,,,,,,,,,,,,,,,,,,,,,,,,,,e,8.5,CAME,FALSE,,,,,,,19,camiseta,Spanish,Sounds/spa_camiseta.mp3,2020-06-25_12h07.32.988,TranslationElicitation_eng-prolific-spa,3.2.4,MacIntel,60,5eb9b011e926960deb4d6d91,,1,0,98,17,1,97
,,,,,,,,,,,,,,,,,,,,,,,,,,,,,,,,,,,,,,,,,r,8.584000111,CAMER,FALSE,,,,,,,19,camiseta,Spanish,Sounds/spa_camiseta.mp3,2020-06-25_12h07.32.988,TranslationElicitation_eng-prolific-spa,3.2.4,MacIntel,60,5eb9b011e926960deb4d6d91,,1,0,98,17,1,97
,,,,,,,,,,,,,,,,,,,,,,,,,,,,,,,,,,,,,,,,,a,8.817000151,CAMERA,FALSE,,,,,,,19,camiseta,Spanish,Sounds/spa_camiseta.mp3,2020-06-25_12h07.32.988,TranslationElicitation_eng-prolific-spa,3.2.4,MacIntel,60,5eb9b011e926960deb4d6d91,,1,0,98,17,1,97
,,,,,,,,,,,,,,,,,,,,,,,,,,,,,,,,,,,,,,,,,return,9.084000111,CAMERA,FALSE,,,,,,,19,camiseta,Spanish,Sounds/spa_camiseta.mp3,2020-06-25_12h07.32.988,TranslationElicitation_eng-prolific-spa,3.2.4,MacIntel,60,5eb9b011e926960deb4d6d91,9.084000111,1,0,98,17,1,97
,,,,,,,,,,,,,,,,,,,,,,,,,,,,,,,,,,,,,,,,,,,,,,,,,,,19,camiseta,Spanish,Sounds/spa_camiseta.mp3,2020-06-25_12h07.32.988,TranslationElicitation_eng-prolific-spa,3.2.4,MacIntel,60,5eb9b011e926960deb4d6d91,,1,0,98,17,1,97
,,,,,,,,,,,,,,,,,,,,,,,,,,,,,,,,,,,,,,,,,o,5.069000006,O,FALSE,,,,,,,73,oveja,Spanish,Sounds/spa_oveja.mp3,2020-06-25_12h07.32.988,TranslationElicitation_eng-prolific-spa,3.2.4,MacIntel,60,5eb9b011e926960deb4d6d91,,1,0,98,68,1,97
,,,,,,,,,,,,,,,,,,,,,,,,,,,,,,,,,,,,,,,,,v,5.25,OV,FALSE,,,,,,,73,oveja,Spanish,Sounds/spa_oveja.mp3,2020-06-25_12h07.32.988,TranslationElicitation_eng-prolific-spa,3.2.4,MacIntel,60,5eb9b011e926960deb4d6d91,,1,0,98,68,1,97
,,,,,,,,,,,,,,,,,,,,,,,,,,,,,,,,,,,,,,,,,e,5.332999945,OVE,FALSE,,,,,,,73,oveja,Spanish,Sounds/spa_oveja.mp3,2020-06-25_12h07.32.988,TranslationElicitation_eng-prolific-spa,3.2.4,MacIntel,60,5eb9b011e926960deb4d6d91,,1,0,98,68,1,97
,,,,,,,,,,,,,,,,,,,,,,,,,,,,,,,,,,,,,,,,,n,5.5,OVEN,FALSE,,,,,,,73,oveja,Spanish,Sounds/spa_oveja.mp3,2020-06-25_12h07.32.988,TranslationElicitation_eng-prolific-spa,3.2.4,MacIntel,60,5eb9b011e926960deb4d6d91,,1,0,98,68,1,97
,,,,,,,,,,,,,,,,,,,,,,,,,,,,,,,,,,,,,,,,,return,6.066999912,OVEN,FALSE,,,,,,,73,oveja,Spanish,Sounds/spa_oveja.mp3,2020-06-25_12h07.32.988,TranslationElicitation_eng-prolific-spa,3.2.4,MacIntel,60,5eb9b011e926960deb4d6d91,6.066999912,1,0,98,68,1,97
,,,,,,,,,,,,,,,,,,,,,,,,,,,,,,,,,,,,,,,,,,,,,,,,,,,73,oveja,Spanish,Sounds/spa_oveja.mp3,2020-06-25_12h07.32.988,TranslationElicitation_eng-prolific-spa,3.2.4,MacIntel,60,5eb9b011e926960deb4d6d91,,1,0,98,68,1,97
,,,,,,,,,,,,,,,,,,,,,,,,,,,,,,,,,,,,,,,,,c,1.551000118,C,FALSE,,,,,,,16,caja,Spanish,Sounds/spa_caja.mp3,2020-06-25_12h07.32.988,TranslationElicitation_eng-prolific-spa,3.2.4,MacIntel,60,5eb9b011e926960deb4d6d91,,1,0,98,14,1,97
,,,,,,,,,,,,,,,,,,,,,,,,,,,,,,,,,,,,,,,,,a,1.717000008,CA,FALSE,,,,,,,16,caja,Spanish,Sounds/spa_caja.mp3,2020-06-25_12h07.32.988,TranslationElicitation_eng-prolific-spa,3.2.4,MacIntel,60,5eb9b011e926960deb4d6d91,,1,0,98,14,1,97
,,,,,,,,,,,,,,,,,,,,,,,,,,,,,,,,,,,,,,,,,r,1.834000111,CAR,FALSE,,,,,,,16,caja,Spanish,Sounds/spa_caja.mp3,2020-06-25_12h07.32.988,TranslationElicitation_eng-prolific-spa,3.2.4,MacIntel,60,5eb9b011e926960deb4d6d91,,1,0,98,14,1,97
,,,,,,,,,,,,,,,,,,,,,,,,,,,,,,,,,,,,,,,,,return,2.450000048,CAR,FALSE,,,,,,,16,caja,Spanish,Sounds/spa_caja.mp3,2020-06-25_12h07.32.988,TranslationElicitation_eng-prolific-spa,3.2.4,MacIntel,60,5eb9b011e926960deb4d6d91,2.450000048,1,0,98,14,1,97
,,,,,,,,,,,,,,,,,,,,,,,,,,,,,,,,,,,,,,,,,,,,,,,,,,,16,caja,Spanish,Sounds/spa_caja.mp3,2020-06-25_12h07.32.988,TranslationElicitation_eng-prolific-spa,3.2.4,MacIntel,60,5eb9b011e926960deb4d6d91,,1,0,98,14,1,97
,,,,,,,,,,,,,,,,,,,,,,,,,,,,,,,,,,,,,,,,,p,2.014999866,P,FALSE,,,,,,,74,pajaro,Spanish,Sounds/spa_pajaro.mp3,2020-06-25_12h07.32.988,TranslationElicitation_eng-prolific-spa,3.2.4,MacIntel,60,5eb9b011e926960deb4d6d91,,1,0,98,69,1,97
,,,,,,,,,,,,,,,,,,,,,,,,,,,,,,,,,,,,,,,,,a,2.082000017,PA,FALSE,,,,,,,74,pajaro,Spanish,Sounds/spa_pajaro.mp3,2020-06-25_12h07.32.988,TranslationElicitation_eng-prolific-spa,3.2.4,MacIntel,60,5eb9b011e926960deb4d6d91,,1,0,98,69,1,97
,,,,,,,,,,,,,,,,,,,,,,,,,,,,,,,,,,,,,,,,,r,2.332000017,PAR,FALSE,,,,,,,74,pajaro,Spanish,Sounds/spa_pajaro.mp3,2020-06-25_12h07.32.988,TranslationElicitation_eng-prolific-spa,3.2.4,MacIntel,60,5eb9b011e926960deb4d6d91,,1,0,98,69,1,97
,,,,,,,,,,,,,,,,,,,,,,,,,,,,,,,,,,,,,,,,,k,2.401000023,PARK,FALSE,,,,,,,74,pajaro,Spanish,Sounds/spa_pajaro.mp3,2020-06-25_12h07.32.988,TranslationElicitation_eng-prolific-spa,3.2.4,MacIntel,60,5eb9b011e926960deb4d6d91,,1,0,98,69,1,97
,,,,,,,,,,,,,,,,,,,,,,,,,,,,,,,,,,,,,,,,,i,2.532000065,PARKI,FALSE,,,,,,,74,pajaro,Spanish,Sounds/spa_pajaro.mp3,2020-06-25_12h07.32.988,TranslationElicitation_eng-prolific-spa,3.2.4,MacIntel,60,5eb9b011e926960deb4d6d91,,1,0,98,69,1,97
,,,,,,,,,,,,,,,,,,,,,,,,,,,,,,,,,,,,,,,,,n,2.715999842,PARKIN,FALSE,,,,,,,74,pajaro,Spanish,Sounds/spa_pajaro.mp3,2020-06-25_12h07.32.988,TranslationElicitation_eng-prolific-spa,3.2.4,MacIntel,60,5eb9b011e926960deb4d6d91,,1,0,98,69,1,97
,,,,,,,,,,,,,,,,,,,,,,,,,,,,,,,,,,,,,,,,,g,2.815999985,PARKING,FALSE,,,,,,,74,pajaro,Spanish,Sounds/spa_pajaro.mp3,2020-06-25_12h07.32.988,TranslationElicitation_eng-prolific-spa,3.2.4,MacIntel,60,5eb9b011e926960deb4d6d91,,1,0,98,69,1,97
,,,,,,,,,,,,,,,,,,,,,,,,,,,,,,,,,,,,,,,,,return,3.032000065,PARKING,FALSE,,,,,,,74,pajaro,Spanish,Sounds/spa_pajaro.mp3,2020-06-25_12h07.32.988,TranslationElicitation_eng-prolific-spa,3.2.4,MacIntel,60,5eb9b011e926960deb4d6d91,3.032000065,1,0,98,69,1,97
,,,,,,,,,,,,,,,,,,,,,,,,,,,,,,,,,,,,,,,,,,,,,,,,,,,74,pajaro,Spanish,Sounds/spa_pajaro.mp3,2020-06-25_12h07.32.988,TranslationElicitation_eng-prolific-spa,3.2.4,MacIntel,60,5eb9b011e926960deb4d6d91,,1,0,98,69,1,97
,,,,,,,,,,,,,,,,,,,,,,,,,,,,,,,,,,,,,,,,,o,1.468999863,O,FALSE,,,,,,,90,pollo,Spanish,Sounds/spa_pollo.mp3,2020-06-25_12h07.32.988,TranslationElicitation_eng-prolific-spa,3.2.4,MacIntel,60,5eb9b011e926960deb4d6d91,,1,0,98,85,1,97
,,,,,,,,,,,,,,,,,,,,,,,,,,,,,,,,,,,,,,,,,y,1.55099988,OY,FALSE,,,,,,,90,pollo,Spanish,Sounds/spa_pollo.mp3,2020-06-25_12h07.32.988,TranslationElicitation_eng-prolific-spa,3.2.4,MacIntel,60,5eb9b011e926960deb4d6d91,,1,0,98,85,1,97
,,,,,,,,,,,,,,,,,,,,,,,,,,,,,,,,,,,,,,,,,backspace,2.30099988,O,TRUE,,,,,,,90,pollo,Spanish,Sounds/spa_pollo.mp3,2020-06-25_12h07.32.988,TranslationElicitation_eng-prolific-spa,3.2.4,MacIntel,60,5eb9b011e926960deb4d6d91,,1,0,98,85,1,97
,,,,,,,,,,,,,,,,,,,,,,,,,,,,,,,,,,,,,,,,,backspace,2.450999975,,TRUE,,,,,,,90,pollo,Spanish,Sounds/spa_pollo.mp3,2020-06-25_12h07.32.988,TranslationElicitation_eng-prolific-spa,3.2.4,MacIntel,60,5eb9b011e926960deb4d6d91,,1,0,98,85,1,97
,,,,,,,,,,,,,,,,,,,,,,,,,,,,,,,,,,,,,,,,,b,2.733999968,B,TRUE,,,,,,,90,pollo,Spanish,Sounds/spa_pollo.mp3,2020-06-25_12h07.32.988,TranslationElicitation_eng-prolific-spa,3.2.4,MacIntel,60,5eb9b011e926960deb4d6d91,,1,0,98,85,1,97
,,,,,,,,,,,,,,,,,,,,,,,,,,,,,,,,,,,,,,,,,o,2.950999975,BO,TRUE,,,,,,,90,pollo,Spanish,Sounds/spa_pollo.mp3,2020-06-25_12h07.32.988,TranslationElicitation_eng-prolific-spa,3.2.4,MacIntel,60,5eb9b011e926960deb4d6d91,,1,0,98,85,1,97
,,,,,,,,,,,,,,,,,,,,,,,,,,,,,,,,,,,,,,,,,y,3.068999767,BOY,TRUE,,,,,,,90,pollo,Spanish,Sounds/spa_pollo.mp3,2020-06-25_12h07.32.988,TranslationElicitation_eng-prolific-spa,3.2.4,MacIntel,60,5eb9b011e926960deb4d6d91,,1,0,98,85,1,97
,,,,,,,,,,,,,,,,,,,,,,,,,,,,,,,,,,,,,,,,,return,3.599999905,BOY,TRUE,,,,,,,90,pollo,Spanish,Sounds/spa_pollo.mp3,2020-06-25_12h07.32.988,TranslationElicitation_eng-prolific-spa,3.2.4,MacIntel,60,5eb9b011e926960deb4d6d91,3.599999905,1,0,98,85,1,97
,,,,,,,,,,,,,,,,,,,,,,,,,,,,,,,,,,,,,,,,,,,,,,,,,,,90,pollo,Spanish,Sounds/spa_pollo.mp3,2020-06-25_12h07.32.988,TranslationElicitation_eng-prolific-spa,3.2.4,MacIntel,60,5eb9b011e926960deb4d6d91,,1,0,98,85,1,97
,,,,,,,,,,,,,,,,,,,,,,,,,,,,,,,,,,,,,,,,,a,1.799999952,A,FALSE,,,,,,,36,estrella,Spanish,Sounds/spa_estrella.mp3,2020-06-25_12h07.32.988,TranslationElicitation_eng-prolific-spa,3.2.4,MacIntel,60,5eb9b011e926960deb4d6d91,,1,0,98,32,1,97
,,,,,,,,,,,,,,,,,,,,,,,,,,,,,,,,,,,,,,,,,u,1.950000048,AU,FALSE,,,,,,,36,estrella,Spanish,Sounds/spa_estrella.mp3,2020-06-25_12h07.32.988,TranslationElicitation_eng-prolific-spa,3.2.4,MacIntel,60,5eb9b011e926960deb4d6d91,,1,0,98,32,1,97
,,,,,,,,,,,,,,,,,,,,,,,,,,,,,,,,,,,,,,,,,s,2.100000143,AUS,FALSE,,,,,,,36,estrella,Spanish,Sounds/spa_estrella.mp3,2020-06-25_12h07.32.988,TranslationElicitation_eng-prolific-spa,3.2.4,MacIntel,60,5eb9b011e926960deb4d6d91,,1,0,98,32,1,97
,,,,,,,,,,,,,,,,,,,,,,,,,,,,,,,,,,,,,,,,,t,2.282999992,AUST,FALSE,,,,,,,36,estrella,Spanish,Sounds/spa_estrella.mp3,2020-06-25_12h07.32.988,TranslationElicitation_eng-prolific-spa,3.2.4,MacIntel,60,5eb9b011e926960deb4d6d91,,1,0,98,32,1,97
,,,,,,,,,,,,,,,,,,,,,,,,,,,,,,,,,,,,,,,,,r,3.367000103,AUSTR,FALSE,,,,,,,36,estrella,Spanish,Sounds/spa_estrella.mp3,2020-06-25_12h07.32.988,TranslationElicitation_eng-prolific-spa,3.2.4,MacIntel,60,5eb9b011e926960deb4d6d91,,1,0,98,32,1,97
,,,,,,,,,,,,,,,,,,,,,,,,,,,,,,,,,,,,,,,,,a,3.549999952,AUSTRA,FALSE,,,,,,,36,estrella,Spanish,Sounds/spa_estrella.mp3,2020-06-25_12h07.32.988,TranslationElicitation_eng-prolific-spa,3.2.4,MacIntel,60,5eb9b011e926960deb4d6d91,,1,0,98,32,1,97
,,,,,,,,,,,,,,,,,,,,,,,,,,,,,,,,,,,,,,,,,l,3.799999952,AUSTRAL,FALSE,,,,,,,36,estrella,Spanish,Sounds/spa_estrella.mp3,2020-06-25_12h07.32.988,TranslationElicitation_eng-prolific-spa,3.2.4,MacIntel,60,5eb9b011e926960deb4d6d91,,1,0,98,32,1,97
,,,,,,,,,,,,,,,,,,,,,,,,,,,,,,,,,,,,,,,,,i,4,AUSTRALI,FALSE,,,,,,,36,estrella,Spanish,Sounds/spa_estrella.mp3,2020-06-25_12h07.32.988,TranslationElicitation_eng-prolific-spa,3.2.4,MacIntel,60,5eb9b011e926960deb4d6d91,,1,0,98,32,1,97
,,,,,,,,,,,,,,,,,,,,,,,,,,,,,,,,,,,,,,,,,a,4.085999966,AUSTRALIA,FALSE,,,,,,,36,estrella,Spanish,Sounds/spa_estrella.mp3,2020-06-25_12h07.32.988,TranslationElicitation_eng-prolific-spa,3.2.4,MacIntel,60,5eb9b011e926960deb4d6d91,,1,0,98,32,1,97
,,,,,,,,,,,,,,,,,,,,,,,,,,,,,,,,,,,,,,,,,return,4.485000134,AUSTRALIA,FALSE,,,,,,,36,estrella,Spanish,Sounds/spa_estrella.mp3,2020-06-25_12h07.32.988,TranslationElicitation_eng-prolific-spa,3.2.4,MacIntel,60,5eb9b011e926960deb4d6d91,4.485000134,1,0,98,32,1,97
,,,,,,,,,,,,,,,,,,,,,,,,,,,,,,,,,,,,,,,,,,,,,,,,,,,36,estrella,Spanish,Sounds/spa_estrella.mp3,2020-06-25_12h07.32.988,TranslationElicitation_eng-prolific-spa,3.2.4,MacIntel,60,5eb9b011e926960deb4d6d91,,1,0,98,32,1,97
,,,,,,,,,,,,,,,,,,,,,,,,,,,,,,,,,,,,,,,,,f,9.620000124,F,FALSE,,,,,,,23,cerdo,Spanish,Sounds/spa_cerdo.mp3,2020-06-25_12h07.32.988,TranslationElicitation_eng-prolific-spa,3.2.4,MacIntel,60,5eb9b011e926960deb4d6d91,,1,0,98,21,1,97
,,,,,,,,,,,,,,,,,,,,,,,,,,,,,,,,,,,,,,,,,u,9.751000166,FU,FALSE,,,,,,,23,cerdo,Spanish,Sounds/spa_cerdo.mp3,2020-06-25_12h07.32.988,TranslationElicitation_eng-prolific-spa,3.2.4,MacIntel,60,5eb9b011e926960deb4d6d91,,1,0,98,21,1,97
,,,,,,,,,,,,,,,,,,,,,,,,,,,,,,,,,,,,,,,,,r,9.851000071,FUR,FALSE,,,,,,,23,cerdo,Spanish,Sounds/spa_cerdo.mp3,2020-06-25_12h07.32.988,TranslationElicitation_eng-prolific-spa,3.2.4,MacIntel,60,5eb9b011e926960deb4d6d91,,1,0,98,21,1,97
,,,,,,,,,,,,,,,,,,,,,,,,,,,,,,,,,,,,,,,,,return,10.10000014,FUR,FALSE,,,,,,,23,cerdo,Spanish,Sounds/spa_cerdo.mp3,2020-06-25_12h07.32.988,TranslationElicitation_eng-prolific-spa,3.2.4,MacIntel,60,5eb9b011e926960deb4d6d91,10.10000014,1,0,98,21,1,97
,,,,,,,,,,,,,,,,,,,,,,,,,,,,,,,,,,,,,,,,,,,,,,,,,,,23,cerdo,Spanish,Sounds/spa_cerdo.mp3,2020-06-25_12h07.32.988,TranslationElicitation_eng-prolific-spa,3.2.4,MacIntel,60,5eb9b011e926960deb4d6d91,,1,0,98,21,1,97
,,,,,,,,,,,,,,,,,,,,,,,,,,,,,,,,,,,,,,,,,h,7,H,FALSE,,,,,,,15,caballo,Spanish,Sounds/spa_caballo.mp3,2020-06-25_12h07.32.988,TranslationElicitation_eng-prolific-spa,3.2.4,MacIntel,60,5eb9b011e926960deb4d6d91,,1,0,98,13,1,97
,,,,,,,,,,,,,,,,,,,,,,,,,,,,,,,,,,,,,,,,,o,7.15199995,HO,FALSE,,,,,,,15,caballo,Spanish,Sounds/spa_caballo.mp3,2020-06-25_12h07.32.988,TranslationElicitation_eng-prolific-spa,3.2.4,MacIntel,60,5eb9b011e926960deb4d6d91,,1,0,98,13,1,97
,,,,,,,,,,,,,,,,,,,,,,,,,,,,,,,,,,,,,,,,,l,7.367000103,HOL,FALSE,,,,,,,15,caballo,Spanish,Sounds/spa_caballo.mp3,2020-06-25_12h07.32.988,TranslationElicitation_eng-prolific-spa,3.2.4,MacIntel,60,5eb9b011e926960deb4d6d91,,1,0,98,13,1,97
,,,,,,,,,,,,,,,,,,,,,,,,,,,,,,,,,,,,,,,,,d,7.417000055,HOLD,FALSE,,,,,,,15,caballo,Spanish,Sounds/spa_caballo.mp3,2020-06-25_12h07.32.988,TranslationElicitation_eng-prolific-spa,3.2.4,MacIntel,60,5eb9b011e926960deb4d6d91,,1,0,98,13,1,97
,,,,,,,,,,,,,,,,,,,,,,,,,,,,,,,,,,,,,,,,,e,8.066999912,HOLDE,FALSE,,,,,,,15,caballo,Spanish,Sounds/spa_caballo.mp3,2020-06-25_12h07.32.988,TranslationElicitation_eng-prolific-spa,3.2.4,MacIntel,60,5eb9b011e926960deb4d6d91,,1,0,98,13,1,97
,,,,,,,,,,,,,,,,,,,,,,,,,,,,,,,,,,,,,,,,,r,8.151000023,HOLDER,FALSE,,,,,,,15,caballo,Spanish,Sounds/spa_caballo.mp3,2020-06-25_12h07.32.988,TranslationElicitation_eng-prolific-spa,3.2.4,MacIntel,60,5eb9b011e926960deb4d6d91,,1,0,98,13,1,97
,,,,,,,,,,,,,,,,,,,,,,,,,,,,,,,,,,,,,,,,,return,8.667000055,HOLDER,FALSE,,,,,,,15,caballo,Spanish,Sounds/spa_caballo.mp3,2020-06-25_12h07.32.988,TranslationElicitation_eng-prolific-spa,3.2.4,MacIntel,60,5eb9b011e926960deb4d6d91,8.667000055,1,0,98,13,1,97
,,,,,,,,,,,,,,,,,,,,,,,,,,,,,,,,,,,,,,,,,,,,,,,,,,,15,caballo,Spanish,Sounds/spa_caballo.mp3,2020-06-25_12h07.32.988,TranslationElicitation_eng-prolific-spa,3.2.4,MacIntel,60,5eb9b011e926960deb4d6d91,,1,0,98,13,1,97
,,,,,,,,,,,,,,,,,,,,,,,,,,,,,,,,,,,,,,,,,c,3.235000134,C,FALSE,,,,,,,20,caracol,Spanish,Sounds/spa_caracol.mp3,2020-06-25_12h07.32.988,TranslationElicitation_eng-prolific-spa,3.2.4,MacIntel,60,5eb9b011e926960deb4d6d91,,1,0,98,18,1,97
,,,,,,,,,,,,,,,,,,,,,,,,,,,,,,,,,,,,,,,,,o,3.416000128,CO,FALSE,,,,,,,20,caracol,Spanish,Sounds/spa_caracol.mp3,2020-06-25_12h07.32.988,TranslationElicitation_eng-prolific-spa,3.2.4,MacIntel,60,5eb9b011e926960deb4d6d91,,1,0,98,18,1,97
,,,,,,,,,,,,,,,,,,,,,,,,,,,,,,,,,,,,,,,,,l,3.582999945,COL,FALSE,,,,,,,20,caracol,Spanish,Sounds/spa_caracol.mp3,2020-06-25_12h07.32.988,TranslationElicitation_eng-prolific-spa,3.2.4,MacIntel,60,5eb9b011e926960deb4d6d91,,1,0,98,18,1,97
,,,,,,,,,,,,,,,,,,,,,,,,,,,,,,,,,,,,,,,,,a,3.684999943,COLA,FALSE,,,,,,,20,caracol,Spanish,Sounds/spa_caracol.mp3,2020-06-25_12h07.32.988,TranslationElicitation_eng-prolific-spa,3.2.4,MacIntel,60,5eb9b011e926960deb4d6d91,,1,0,98,18,1,97
,,,,,,,,,,,,,,,,,,,,,,,,,,,,,,,,,,,,,,,,,return,4.217999935,COLA,FALSE,,,,,,,20,caracol,Spanish,Sounds/spa_caracol.mp3,2020-06-25_12h07.32.988,TranslationElicitation_eng-prolific-spa,3.2.4,MacIntel,60,5eb9b011e926960deb4d6d91,4.217999935,1,0,98,18,1,97
,,,,,,,,,,,,,,,,,,,,,,,,,,,,,,,,,,,,,,,,,,,,,,,,,,,20,caracol,Spanish,Sounds/spa_caracol.mp3,2020-06-25_12h07.32.988,TranslationElicitation_eng-prolific-spa,3.2.4,MacIntel,60,5eb9b011e926960deb4d6d91,,1,0,98,18,1,97
,,,,,,,,,,,,,,,,,,,,,,,,,,,,,,,,,,,,,,,,,b,1.450000048,B,FALSE,,,,,,,8,bol,Spanish,Sounds/spa_bol.mp3,2020-06-25_12h07.32.988,TranslationElicitation_eng-prolific-spa,3.2.4,MacIntel,60,5eb9b011e926960deb4d6d91,,1,0,98,6,1,97
,,,,,,,,,,,,,,,,,,,,,,,,,,,,,,,,,,,,,,,,,a,1.71600008,BA,FALSE,,,,,,,8,bol,Spanish,Sounds/spa_bol.mp3,2020-06-25_12h07.32.988,TranslationElicitation_eng-prolific-spa,3.2.4,MacIntel,60,5eb9b011e926960deb4d6d91,,1,0,98,6,1,97
,,,,,,,,,,,,,,,,,,,,,,,,,,,,,,,,,,,,,,,,,l,1.933000088,BAL,FALSE,,,,,,,8,bol,Spanish,Sounds/spa_bol.mp3,2020-06-25_12h07.32.988,TranslationElicitation_eng-prolific-spa,3.2.4,MacIntel,60,5eb9b011e926960deb4d6d91,,1,0,98,6,1,97
,,,,,,,,,,,,,,,,,,,,,,,,,,,,,,,,,,,,,,,,,l,2.01699996,BALL,FALSE,,,,,,,8,bol,Spanish,Sounds/spa_bol.mp3,2020-06-25_12h07.32.988,TranslationElicitation_eng-prolific-spa,3.2.4,MacIntel,60,5eb9b011e926960deb4d6d91,,1,0,98,6,1,97
,,,,,,,,,,,,,,,,,,,,,,,,,,,,,,,,,,,,,,,,,return,2.532999992,BALL,FALSE,,,,,,,8,bol,Spanish,Sounds/spa_bol.mp3,2020-06-25_12h07.32.988,TranslationElicitation_eng-prolific-spa,3.2.4,MacIntel,60,5eb9b011e926960deb4d6d91,2.532999992,1,0,98,6,1,97
,,,,,,,,,,,,,,,,,,,,,,,,,,,,,,,,,,,,,,,,,,,,,,,,,,,8,bol,Spanish,Sounds/spa_bol.mp3,2020-06-25_12h07.32.988,TranslationElicitation_eng-prolific-spa,3.2.4,MacIntel,60,5eb9b011e926960deb4d6d91,,1,0,98,6,1,97
,,,,,,,,,,,,,,,,,,,,,,,,,,,,,,,,,,,,,,,,,t,2.846000195,T,FALSE,,,,,,,17,calcetin,Spanish,Sounds/spa_calcetin.mp3,2020-06-25_12h07.32.988,TranslationElicitation_eng-prolific-spa,3.2.4,MacIntel,60,5eb9b011e926960deb4d6d91,,1,0,98,15,1,97
,,,,,,,,,,,,,,,,,,,,,,,,,,,,,,,,,,,,,,,,,e,3.06400013,TE,FALSE,,,,,,,17,calcetin,Spanish,Sounds/spa_calcetin.mp3,2020-06-25_12h07.32.988,TranslationElicitation_eng-prolific-spa,3.2.4,MacIntel,60,5eb9b011e926960deb4d6d91,,1,0,98,15,1,97
,,,,,,,,,,,,,,,,,,,,,,,,,,,,,,,,,,,,,,,,,e,3.246000051,TEE,FALSE,,,,,,,17,calcetin,Spanish,Sounds/spa_calcetin.mp3,2020-06-25_12h07.32.988,TranslationElicitation_eng-prolific-spa,3.2.4,MacIntel,60,5eb9b011e926960deb4d6d91,,1,0,98,15,1,97
,,,,,,,,,,,,,,,,,,,,,,,,,,,,,,,,,,,,,,,,,n,3.397000074,TEEN,FALSE,,,,,,,17,calcetin,Spanish,Sounds/spa_calcetin.mp3,2020-06-25_12h07.32.988,TranslationElicitation_eng-prolific-spa,3.2.4,MacIntel,60,5eb9b011e926960deb4d6d91,,1,0,98,15,1,97
,,,,,,,,,,,,,,,,,,,,,,,,,,,,,,,,,,,,,,,,,a,3.652000189,TEENA,FALSE,,,,,,,17,calcetin,Spanish,Sounds/spa_calcetin.mp3,2020-06-25_12h07.32.988,TranslationElicitation_eng-prolific-spa,3.2.4,MacIntel,60,5eb9b011e926960deb4d6d91,,1,0,98,15,1,97
,,,,,,,,,,,,,,,,,,,,,,,,,,,,,,,,,,,,,,,,,g,3.863000154,TEENAG,FALSE,,,,,,,17,calcetin,Spanish,Sounds/spa_calcetin.mp3,2020-06-25_12h07.32.988,TranslationElicitation_eng-prolific-spa,3.2.4,MacIntel,60,5eb9b011e926960deb4d6d91,,1,0,98,15,1,97
,,,,,,,,,,,,,,,,,,,,,,,,,,,,,,,,,,,,,,,,,e,3.963000059,TEENAGE,FALSE,,,,,,,17,calcetin,Spanish,Sounds/spa_calcetin.mp3,2020-06-25_12h07.32.988,TranslationElicitation_eng-prolific-spa,3.2.4,MacIntel,60,5eb9b011e926960deb4d6d91,,1,0,98,15,1,97
,,,,,,,,,,,,,,,,,,,,,,,,,,,,,,,,,,,,,,,,,r,4.031000137,TEENAGER,FALSE,,,,,,,17,calcetin,Spanish,Sounds/spa_calcetin.mp3,2020-06-25_12h07.32.988,TranslationElicitation_eng-prolific-spa,3.2.4,MacIntel,60,5eb9b011e926960deb4d6d91,,1,0,98,15,1,97
,,,,,,,,,,,,,,,,,,,,,,,,,,,,,,,,,,,,,,,,,return,4.232000113,TEENAGER,FALSE,,,,,,,17,calcetin,Spanish,Sounds/spa_calcetin.mp3,2020-06-25_12h07.32.988,TranslationElicitation_eng-prolific-spa,3.2.4,MacIntel,60,5eb9b011e926960deb4d6d91,4.232000113,1,0,98,15,1,97
,,,,,,,,,,,,,,,,,,,,,,,,,,,,,,,,,,,,,,,,,,,,,,,,,,,17,calcetin,Spanish,Sounds/spa_calcetin.mp3,2020-06-25_12h07.32.988,TranslationElicitation_eng-prolific-spa,3.2.4,MacIntel,60,5eb9b011e926960deb4d6d91,,1,0,98,15,1,97
,,,,,,,,,,,,,,,,,,,,,,,,,,,,,,,,,,,,,,,,,m,1.505000114,M,FALSE,,,,,,,64,moneda,Spanish,Sounds/spa_moneda.mp3,2020-06-25_12h07.32.988,TranslationElicitation_eng-prolific-spa,3.2.4,MacIntel,60,5eb9b011e926960deb4d6d91,,1,0,98,60,1,97
,,,,,,,,,,,,,,,,,,,,,,,,,,,,,,,,,,,,,,,,,o,1.582999945,MO,FALSE,,,,,,,64,moneda,Spanish,Sounds/spa_moneda.mp3,2020-06-25_12h07.32.988,TranslationElicitation_eng-prolific-spa,3.2.4,MacIntel,60,5eb9b011e926960deb4d6d91,,1,0,98,60,1,97
,,,,,,,,,,,,,,,,,,,,,,,,,,,,,,,,,,,,,,,,,n,1.717000008,MON,FALSE,,,,,,,64,moneda,Spanish,Sounds/spa_moneda.mp3,2020-06-25_12h07.32.988,TranslationElicitation_eng-prolific-spa,3.2.4,MacIntel,60,5eb9b011e926960deb4d6d91,,1,0,98,60,1,97
,,,,,,,,,,,,,,,,,,,,,,,,,,,,,,,,,,,,,,,,,e,1.884000063,MONE,FALSE,,,,,,,64,moneda,Spanish,Sounds/spa_moneda.mp3,2020-06-25_12h07.32.988,TranslationElicitation_eng-prolific-spa,3.2.4,MacIntel,60,5eb9b011e926960deb4d6d91,,1,0,98,60,1,97
,,,,,,,,,,,,,,,,,,,,,,,,,,,,,,,,,,,,,,,,,y,2,MONEY,FALSE,,,,,,,64,moneda,Spanish,Sounds/spa_moneda.mp3,2020-06-25_12h07.32.988,TranslationElicitation_eng-prolific-spa,3.2.4,MacIntel,60,5eb9b011e926960deb4d6d91,,1,0,98,60,1,97
,,,,,,,,,,,,,,,,,,,,,,,,,,,,,,,,,,,,,,,,,return,2.301000118,MONEY,FALSE,,,,,,,64,moneda,Spanish,Sounds/spa_moneda.mp3,2020-06-25_12h07.32.988,TranslationElicitation_eng-prolific-spa,3.2.4,MacIntel,60,5eb9b011e926960deb4d6d91,2.301000118,1,0,98,60,1,97
,,,,,,,,,,,,,,,,,,,,,,,,,,,,,,,,,,,,,,,,,,,,,,,,,,,64,moneda,Spanish,Sounds/spa_moneda.mp3,2020-06-25_12h07.32.988,TranslationElicitation_eng-prolific-spa,3.2.4,MacIntel,60,5eb9b011e926960deb4d6d91,,1,0,98,60,1,97
,,,,,,,,,,,,,,,,,,,,,,,,,,,,,,,,,,,,,,,,,a,1.299000025,A,FALSE,,,,,,,78,pastel,Spanish,Sounds/spa_pastel.mp3,2020-06-25_12h07.32.988,TranslationElicitation_eng-prolific-spa,3.2.4,MacIntel,60,5eb9b011e926960deb4d6d91,,1,0,98,73,1,97
,,,,,,,,,,,,,,,,,,,,,,,,,,,,,,,,,,,,,,,,,s,1.5,AS,FALSE,,,,,,,78,pastel,Spanish,Sounds/spa_pastel.mp3,2020-06-25_12h07.32.988,TranslationElicitation_eng-prolific-spa,3.2.4,MacIntel,60,5eb9b011e926960deb4d6d91,,1,0,98,73,1,97
,,,,,,,,,,,,,,,,,,,,,,,,,,,,,,,,,,,,,,,,,backspace,2.065999985,A,TRUE,,,,,,,78,pastel,Spanish,Sounds/spa_pastel.mp3,2020-06-25_12h07.32.988,TranslationElicitation_eng-prolific-spa,3.2.4,MacIntel,60,5eb9b011e926960deb4d6d91,,1,0,98,73,1,97
,,,,,,,,,,,,,,,,,,,,,,,,,,,,,,,,,,,,,,,,,backspace,2.484999895,,TRUE,,,,,,,78,pastel,Spanish,Sounds/spa_pastel.mp3,2020-06-25_12h07.32.988,TranslationElicitation_eng-prolific-spa,3.2.4,MacIntel,60,5eb9b011e926960deb4d6d91,,1,0,98,73,1,97
,,,,,,,,,,,,,,,,,,,,,,,,,,,,,,,,,,,,,,,,,p,2.950000048,P,TRUE,,,,,,,78,pastel,Spanish,Sounds/spa_pastel.mp3,2020-06-25_12h07.32.988,TranslationElicitation_eng-prolific-spa,3.2.4,MacIntel,60,5eb9b011e926960deb4d6d91,,1,0,98,73,1,97
,,,,,,,,,,,,,,,,,,,,,,,,,,,,,,,,,,,,,,,,,a,3.032999992,PA,TRUE,,,,,,,78,pastel,Spanish,Sounds/spa_pastel.mp3,2020-06-25_12h07.32.988,TranslationElicitation_eng-prolific-spa,3.2.4,MacIntel,60,5eb9b011e926960deb4d6d91,,1,0,98,73,1,97
,,,,,,,,,,,,,,,,,,,,,,,,,,,,,,,,,,,,,,,,,s,3.099999905,PAS,TRUE,,,,,,,78,pastel,Spanish,Sounds/spa_pastel.mp3,2020-06-25_12h07.32.988,TranslationElicitation_eng-prolific-spa,3.2.4,MacIntel,60,5eb9b011e926960deb4d6d91,,1,0,98,73,1,97
,,,,,,,,,,,,,,,,,,,,,,,,,,,,,,,,,,,,,,,,,t,3.349999905,PAST,TRUE,,,,,,,78,pastel,Spanish,Sounds/spa_pastel.mp3,2020-06-25_12h07.32.988,TranslationElicitation_eng-prolific-spa,3.2.4,MacIntel,60,5eb9b011e926960deb4d6d91,,1,0,98,73,1,97
,,,,,,,,,,,,,,,,,,,,,,,,,,,,,,,,,,,,,,,,,l,3.599999905,PASTL,TRUE,,,,,,,78,pastel,Spanish,Sounds/spa_pastel.mp3,2020-06-25_12h07.32.988,TranslationElicitation_eng-prolific-spa,3.2.4,MacIntel,60,5eb9b011e926960deb4d6d91,,1,0,98,73,1,97
,,,,,,,,,,,,,,,,,,,,,,,,,,,,,,,,,,,,,,,,,e,3.682999849,PASTLE,TRUE,,,,,,,78,pastel,Spanish,Sounds/spa_pastel.mp3,2020-06-25_12h07.32.988,TranslationElicitation_eng-prolific-spa,3.2.4,MacIntel,60,5eb9b011e926960deb4d6d91,,1,0,98,73,1,97
,,,,,,,,,,,,,,,,,,,,,,,,,,,,,,,,,,,,,,,,,backspace,4.552000046,PASTL,TRUE,,,,,,,78,pastel,Spanish,Sounds/spa_pastel.mp3,2020-06-25_12h07.32.988,TranslationElicitation_eng-prolific-spa,3.2.4,MacIntel,60,5eb9b011e926960deb4d6d91,,1,0,98,73,1,97
,,,,,,,,,,,,,,,,,,,,,,,,,,,,,,,,,,,,,,,,,backspace,4.684999943,PAST,TRUE,,,,,,,78,pastel,Spanish,Sounds/spa_pastel.mp3,2020-06-25_12h07.32.988,TranslationElicitation_eng-prolific-spa,3.2.4,MacIntel,60,5eb9b011e926960deb4d6d91,,1,0,98,73,1,97
,,,,,,,,,,,,,,,,,,,,,,,,,,,,,,,,,,,,,,,,,e,4.81799984,PASTE,TRUE,,,,,,,78,pastel,Spanish,Sounds/spa_pastel.mp3,2020-06-25_12h07.32.988,TranslationElicitation_eng-prolific-spa,3.2.4,MacIntel,60,5eb9b011e926960deb4d6d91,,1,0,98,73,1,97
,,,,,,,,,,,,,,,,,,,,,,,,,,,,,,,,,,,,,,,,,l,4.98300004,PASTEL,TRUE,,,,,,,78,pastel,Spanish,Sounds/spa_pastel.mp3,2020-06-25_12h07.32.988,TranslationElicitation_eng-prolific-spa,3.2.4,MacIntel,60,5eb9b011e926960deb4d6d91,,1,0,98,73,1,97
,,,,,,,,,,,,,,,,,,,,,,,,,,,,,,,,,,,,,,,,,return,5.782999992,PASTEL,TRUE,,,,,,,78,pastel,Spanish,Sounds/spa_pastel.mp3,2020-06-25_12h07.32.988,TranslationElicitation_eng-prolific-spa,3.2.4,MacIntel,60,5eb9b011e926960deb4d6d91,5.782999992,1,0,98,73,1,97
,,,,,,,,,,,,,,,,,,,,,,,,,,,,,,,,,,,,,,,,,,,,,,,,,,,78,pastel,Spanish,Sounds/spa_pastel.mp3,2020-06-25_12h07.32.988,TranslationElicitation_eng-prolific-spa,3.2.4,MacIntel,60,5eb9b011e926960deb4d6d91,,1,0,98,73,1,97
,,,,,,,,,,,,,,,,,,,,,,,,,,,,,,,,,,,,,,,,,m,1.69900012,M,FALSE,,,,,,,82,perro,Spanish,Sounds/spa_perro.mp3,2020-06-25_12h07.32.988,TranslationElicitation_eng-prolific-spa,3.2.4,MacIntel,60,5eb9b011e926960deb4d6d91,,1,0,98,77,1,97
,,,,,,,,,,,,,,,,,,,,,,,,,,,,,,,,,,,,,,,,,o,1.815999985,MO,FALSE,,,,,,,82,perro,Spanish,Sounds/spa_perro.mp3,2020-06-25_12h07.32.988,TranslationElicitation_eng-prolific-spa,3.2.4,MacIntel,60,5eb9b011e926960deb4d6d91,,1,0,98,77,1,97
,,,,,,,,,,,,,,,,,,,,,,,,,,,,,,,,,,,,,,,,,n,1.916000128,MON,FALSE,,,,,,,82,perro,Spanish,Sounds/spa_perro.mp3,2020-06-25_12h07.32.988,TranslationElicitation_eng-prolific-spa,3.2.4,MacIntel,60,5eb9b011e926960deb4d6d91,,1,0,98,77,1,97
,,,,,,,,,,,,,,,,,,,,,,,,,,,,,,,,,,,,,,,,,e,2.049999952,MONE,FALSE,,,,,,,82,perro,Spanish,Sounds/spa_perro.mp3,2020-06-25_12h07.32.988,TranslationElicitation_eng-prolific-spa,3.2.4,MacIntel,60,5eb9b011e926960deb4d6d91,,1,0,98,77,1,97
,,,,,,,,,,,,,,,,,,,,,,,,,,,,,,,,,,,,,,,,,y,2.166000128,MONEY,FALSE,,,,,,,82,perro,Spanish,Sounds/spa_perro.mp3,2020-06-25_12h07.32.988,TranslationElicitation_eng-prolific-spa,3.2.4,MacIntel,60,5eb9b011e926960deb4d6d91,,1,0,98,77,1,97
,,,,,,,,,,,,,,,,,,,,,,,,,,,,,,,,,,,,,,,,,return,2.48300004,MONEY,FALSE,,,,,,,82,perro,Spanish,Sounds/spa_perro.mp3,2020-06-25_12h07.32.988,TranslationElicitation_eng-prolific-spa,3.2.4,MacIntel,60,5eb9b011e926960deb4d6d91,2.48300004,1,0,98,77,1,97
,,,,,,,,,,,,,,,,,,,,,,,,,,,,,,,,,,,,,,,,,,,,,,,,,,,82,perro,Spanish,Sounds/spa_perro.mp3,2020-06-25_12h07.32.988,TranslationElicitation_eng-prolific-spa,3.2.4,MacIntel,60,5eb9b011e926960deb4d6d91,,1,0,98,77,1,97
,,,,,,,,,,,,,,,,,,,,,,,,,,,,,,,,,,,,,,,,,h,3.082999945,H,FALSE,,,,,,,39,gafas,Spanish,Sounds/spa_gafas.mp3,2020-06-25_12h07.32.988,TranslationElicitation_eng-prolific-spa,3.2.4,MacIntel,60,5eb9b011e926960deb4d6d91,,1,0,98,35,1,97
,,,,,,,,,,,,,,,,,,,,,,,,,,,,,,,,,,,,,,,,,o,3.250999928,HO,FALSE,,,,,,,39,gafas,Spanish,Sounds/spa_gafas.mp3,2020-06-25_12h07.32.988,TranslationElicitation_eng-prolific-spa,3.2.4,MacIntel,60,5eb9b011e926960deb4d6d91,,1,0,98,35,1,97
,,,,,,,,,,,,,,,,,,,,,,,,,,,,,,,,,,,,,,,,,u,3.318000078,HOU,FALSE,,,,,,,39,gafas,Spanish,Sounds/spa_gafas.mp3,2020-06-25_12h07.32.988,TranslationElicitation_eng-prolific-spa,3.2.4,MacIntel,60,5eb9b011e926960deb4d6d91,,1,0,98,35,1,97
,,,,,,,,,,,,,,,,,,,,,,,,,,,,,,,,,,,,,,,,,s,3.41899991,HOUS,FALSE,,,,,,,39,gafas,Spanish,Sounds/spa_gafas.mp3,2020-06-25_12h07.32.988,TranslationElicitation_eng-prolific-spa,3.2.4,MacIntel,60,5eb9b011e926960deb4d6d91,,1,0,98,35,1,97
,,,,,,,,,,,,,,,,,,,,,,,,,,,,,,,,,,,,,,,,,e,3.549999952,HOUSE,FALSE,,,,,,,39,gafas,Spanish,Sounds/spa_gafas.mp3,2020-06-25_12h07.32.988,TranslationElicitation_eng-prolific-spa,3.2.4,MacIntel,60,5eb9b011e926960deb4d6d91,,1,0,98,35,1,97
,,,,,,,,,,,,,,,,,,,,,,,,,,,,,,,,,,,,,,,,,return,3.986000061,HOUSE,FALSE,,,,,,,39,gafas,Spanish,Sounds/spa_gafas.mp3,2020-06-25_12h07.32.988,TranslationElicitation_eng-prolific-spa,3.2.4,MacIntel,60,5eb9b011e926960deb4d6d91,3.986000061,1,0,98,35,1,97
,,,,,,,,,,,,,,,,,,,,,,,,,,,,,,,,,,,,,,,,,,,,,,,,,,,39,gafas,Spanish,Sounds/spa_gafas.mp3,2020-06-25_12h07.32.988,TranslationElicitation_eng-prolific-spa,3.2.4,MacIntel,60,5eb9b011e926960deb4d6d91,,1,0,98,35,1,97
,,,,,,,,,,,,,,,,,,,,,,,,,,,,,,,,,,,,,,,,,b,7.112999916,B,FALSE,,,,,,,12,brazo,Spanish,Sounds/spa_brazo.mp3,2020-06-25_12h07.32.988,TranslationElicitation_eng-prolific-spa,3.2.4,MacIntel,60,5eb9b011e926960deb4d6d91,,1,0,98,10,1,97
,,,,,,,,,,,,,,,,,,,,,,,,,,,,,,,,,,,,,,,,,a,7.180000067,BA,FALSE,,,,,,,12,brazo,Spanish,Sounds/spa_brazo.mp3,2020-06-25_12h07.32.988,TranslationElicitation_eng-prolific-spa,3.2.4,MacIntel,60,5eb9b011e926960deb4d6d91,,1,0,98,10,1,97
,,,,,,,,,,,,,,,,,,,,,,,,,,,,,,,,,,,,,,,,,r,7.414000034,BAR,FALSE,,,,,,,12,brazo,Spanish,Sounds/spa_brazo.mp3,2020-06-25_12h07.32.988,TranslationElicitation_eng-prolific-spa,3.2.4,MacIntel,60,5eb9b011e926960deb4d6d91,,1,0,98,10,1,97
,,,,,,,,,,,,,,,,,,,,,,,,,,,,,,,,,,,,,,,,,space,7.58100009,BAR ,FALSE,,,,,,,12,brazo,Spanish,Sounds/spa_brazo.mp3,2020-06-25_12h07.32.988,TranslationElicitation_eng-prolific-spa,3.2.4,MacIntel,60,5eb9b011e926960deb4d6d91,,1,0,98,10,1,97
,,,,,,,,,,,,,,,,,,,,,,,,,,,,,,,,,,,,,,,,,s,7.614000082,BAR S,FALSE,,,,,,,12,brazo,Spanish,Sounds/spa_brazo.mp3,2020-06-25_12h07.32.988,TranslationElicitation_eng-prolific-spa,3.2.4,MacIntel,60,5eb9b011e926960deb4d6d91,,1,0,98,10,1,97
,,,,,,,,,,,,,,,,,,,,,,,,,,,,,,,,,,,,,,,,,t,7.846999884,BAR ST,FALSE,,,,,,,12,brazo,Spanish,Sounds/spa_brazo.mp3,2020-06-25_12h07.32.988,TranslationElicitation_eng-prolific-spa,3.2.4,MacIntel,60,5eb9b011e926960deb4d6d91,,1,0,98,10,1,97
,,,,,,,,,,,,,,,,,,,,,,,,,,,,,,,,,,,,,,,,,o,7.950999975,BAR STO,FALSE,,,,,,,12,brazo,Spanish,Sounds/spa_brazo.mp3,2020-06-25_12h07.32.988,TranslationElicitation_eng-prolific-spa,3.2.4,MacIntel,60,5eb9b011e926960deb4d6d91,,1,0,98,10,1,97
,,,,,,,,,,,,,,,,,,,,,,,,,,,,,,,,,,,,,,,,,o,8.065000057,BAR STOO,FALSE,,,,,,,12,brazo,Spanish,Sounds/spa_brazo.mp3,2020-06-25_12h07.32.988,TranslationElicitation_eng-prolific-spa,3.2.4,MacIntel,60,5eb9b011e926960deb4d6d91,,1,0,98,10,1,97
,,,,,,,,,,,,,,,,,,,,,,,,,,,,,,,,,,,,,,,,,l,8.266000032,BAR STOOL,FALSE,,,,,,,12,brazo,Spanish,Sounds/spa_brazo.mp3,2020-06-25_12h07.32.988,TranslationElicitation_eng-prolific-spa,3.2.4,MacIntel,60,5eb9b011e926960deb4d6d91,,1,0,98,10,1,97
,,,,,,,,,,,,,,,,,,,,,,,,,,,,,,,,,,,,,,,,,return,8.513999939,BAR STOOL,FALSE,,,,,,,12,brazo,Spanish,Sounds/spa_brazo.mp3,2020-06-25_12h07.32.988,TranslationElicitation_eng-prolific-spa,3.2.4,MacIntel,60,5eb9b011e926960deb4d6d91,8.513999939,1,0,98,10,1,97
,,,,,,,,,,,,,,,,,,,,,,,,,,,,,,,,,,,,,,,,,,,,,,,,,,,12,brazo,Spanish,Sounds/spa_brazo.mp3,2020-06-25_12h07.32.988,TranslationElicitation_eng-prolific-spa,3.2.4,MacIntel,60,5eb9b011e926960deb4d6d91,,1,0,98,10,1,97
,,,,,,,,,,,,,,,,,,,,,,,,,,,,,,,,,,,,,,,,,m,7.001999855,M,FALSE,,,,,,,40,galleta,Spanish,Sounds/spa_galleta.mp3,2020-06-25_12h07.32.988,TranslationElicitation_eng-prolific-spa,3.2.4,MacIntel,60,5eb9b011e926960deb4d6d91,,1,0,98,36,1,97
,,,,,,,,,,,,,,,,,,,,,,,,,,,,,,,,,,,,,,,,,e,7.108999968,ME,FALSE,,,,,,,40,galleta,Spanish,Sounds/spa_galleta.mp3,2020-06-25_12h07.32.988,TranslationElicitation_eng-prolific-spa,3.2.4,MacIntel,60,5eb9b011e926960deb4d6d91,,1,0,98,36,1,97
,,,,,,,,,,,,,,,,,,,,,,,,,,,,,,,,,,,,,,,,,n,7.186999798,MEN,FALSE,,,,,,,40,galleta,Spanish,Sounds/spa_galleta.mp3,2020-06-25_12h07.32.988,TranslationElicitation_eng-prolific-spa,3.2.4,MacIntel,60,5eb9b011e926960deb4d6d91,,1,0,98,36,1,97
,,,,,,,,,,,,,,,,,,,,,,,,,,,,,,,,,,,,,,,,,return,9.183999777,MEN,FALSE,,,,,,,40,galleta,Spanish,Sounds/spa_galleta.mp3,2020-06-25_12h07.32.988,TranslationElicitation_eng-prolific-spa,3.2.4,MacIntel,60,5eb9b011e926960deb4d6d91,9.183999777,1,0,98,36,1,97
,,,,,,,,,,,,,,,,,,,,,,,,,,,,,,,,,,,,,,,,,,,,,,,,,,,40,galleta,Spanish,Sounds/spa_galleta.mp3,2020-06-25_12h07.32.988,TranslationElicitation_eng-prolific-spa,3.2.4,MacIntel,60,5eb9b011e926960deb4d6d91,,1,0,98,36,1,97
,,,,,,,,,,,,,,,,,,,,,,,,,,,,,,,,,,,,,,,,,s,3.883000135,S,FALSE,,,,,,,22,cepillo,Spanish,Sounds/spa_cepillo.mp3,2020-06-25_12h07.32.988,TranslationElicitation_eng-prolific-spa,3.2.4,MacIntel,60,5eb9b011e926960deb4d6d91,,1,0,98,20,1,97
,,,,,,,,,,,,,,,,,,,,,,,,,,,,,,,,,,,,,,,,,i,4.09800005,SI,FALSE,,,,,,,22,cepillo,Spanish,Sounds/spa_cepillo.mp3,2020-06-25_12h07.32.988,TranslationElicitation_eng-prolific-spa,3.2.4,MacIntel,60,5eb9b011e926960deb4d6d91,,1,0,98,20,1,97
,,,,,,,,,,,,,,,,,,,,,,,,,,,,,,,,,,,,,,,,,p,4.247999907,SIP,FALSE,,,,,,,22,cepillo,Spanish,Sounds/spa_cepillo.mp3,2020-06-25_12h07.32.988,TranslationElicitation_eng-prolific-spa,3.2.4,MacIntel,60,5eb9b011e926960deb4d6d91,,1,0,98,20,1,97
,,,,,,,,,,,,,,,,,,,,,,,,,,,,,,,,,,,,,,,,,p,4.431999922,SIPP,FALSE,,,,,,,22,cepillo,Spanish,Sounds/spa_cepillo.mp3,2020-06-25_12h07.32.988,TranslationElicitation_eng-prolific-spa,3.2.4,MacIntel,60,5eb9b011e926960deb4d6d91,,1,0,98,20,1,97
,,,,,,,,,,,,,,,,,,,,,,,,,,,,,,,,,,,,,,,,,i,4.532999992,SIPPI,FALSE,,,,,,,22,cepillo,Spanish,Sounds/spa_cepillo.mp3,2020-06-25_12h07.32.988,TranslationElicitation_eng-prolific-spa,3.2.4,MacIntel,60,5eb9b011e926960deb4d6d91,,1,0,98,20,1,97
,,,,,,,,,,,,,,,,,,,,,,,,,,,,,,,,,,,,,,,,,n,4.732000113,SIPPIN,FALSE,,,,,,,22,cepillo,Spanish,Sounds/spa_cepillo.mp3,2020-06-25_12h07.32.988,TranslationElicitation_eng-prolific-spa,3.2.4,MacIntel,60,5eb9b011e926960deb4d6d91,,1,0,98,20,1,97
,,,,,,,,,,,,,,,,,,,,,,,,,,,,,,,,,,,,,,,,,g,4.835000038,SIPPING,FALSE,,,,,,,22,cepillo,Spanish,Sounds/spa_cepillo.mp3,2020-06-25_12h07.32.988,TranslationElicitation_eng-prolific-spa,3.2.4,MacIntel,60,5eb9b011e926960deb4d6d91,,1,0,98,20,1,97
,,,,,,,,,,,,,,,,,,,,,,,,,,,,,,,,,,,,,,,,,return,5.032000065,SIPPING,FALSE,,,,,,,22,cepillo,Spanish,Sounds/spa_cepillo.mp3,2020-06-25_12h07.32.988,TranslationElicitation_eng-prolific-spa,3.2.4,MacIntel,60,5eb9b011e926960deb4d6d91,5.032000065,1,0,98,20,1,97
,,,,,,,,,,,,,,,,,,,,,,,,,,,,,,,,,,,,,,,,,,,,,,,,,,,22,cepillo,Spanish,Sounds/spa_cepillo.mp3,2020-06-25_12h07.32.988,TranslationElicitation_eng-prolific-spa,3.2.4,MacIntel,60,5eb9b011e926960deb4d6d91,,1,0,98,20,1,97
,,,,,,,,,,,,,,,,,,,,,,,,,,,,,,,,,,,,,,,,,t,1.615999937,T,FALSE,,,,,,,95,tenedor,Spanish,Sounds/spa_tenedor.mp3,2020-06-25_12h07.32.988,TranslationElicitation_eng-prolific-spa,3.2.4,MacIntel,60,5eb9b011e926960deb4d6d91,,1,0,98,90,1,97
,,,,,,,,,,,,,,,,,,,,,,,,,,,,,,,,,,,,,,,,,e,1.717000008,TE,FALSE,,,,,,,95,tenedor,Spanish,Sounds/spa_tenedor.mp3,2020-06-25_12h07.32.988,TranslationElicitation_eng-prolific-spa,3.2.4,MacIntel,60,5eb9b011e926960deb4d6d91,,1,0,98,90,1,97
,,,,,,,,,,,,,,,,,,,,,,,,,,,,,,,,,,,,,,,,,n,2.032999992,TEN,FALSE,,,,,,,95,tenedor,Spanish,Sounds/spa_tenedor.mp3,2020-06-25_12h07.32.988,TranslationElicitation_eng-prolific-spa,3.2.4,MacIntel,60,5eb9b011e926960deb4d6d91,,1,0,98,90,1,97
,,,,,,,,,,,,,,,,,,,,,,,,,,,,,,,,,,,,,,,,,n,2.200000048,TENN,FALSE,,,,,,,95,tenedor,Spanish,Sounds/spa_tenedor.mp3,2020-06-25_12h07.32.988,TranslationElicitation_eng-prolific-spa,3.2.4,MacIntel,60,5eb9b011e926960deb4d6d91,,1,0,98,90,1,97
,,,,,,,,,,,,,,,,,,,,,,,,,,,,,,,,,,,,,,,,,i,2.289999962,TENNI,FALSE,,,,,,,95,tenedor,Spanish,Sounds/spa_tenedor.mp3,2020-06-25_12h07.32.988,TranslationElicitation_eng-prolific-spa,3.2.4,MacIntel,60,5eb9b011e926960deb4d6d91,,1,0,98,90,1,97
,,,,,,,,,,,,,,,,,,,,,,,,,,,,,,,,,,,,,,,,,s,2.399999857,TENNIS,FALSE,,,,,,,95,tenedor,Spanish,Sounds/spa_tenedor.mp3,2020-06-25_12h07.32.988,TranslationElicitation_eng-prolific-spa,3.2.4,MacIntel,60,5eb9b011e926960deb4d6d91,,1,0,98,90,1,97
,,,,,,,,,,,,,,,,,,,,,,,,,,,,,,,,,,,,,,,,,return,2.618000031,TENNIS,FALSE,,,,,,,95,tenedor,Spanish,Sounds/spa_tenedor.mp3,2020-06-25_12h07.32.988,TranslationElicitation_eng-prolific-spa,3.2.4,MacIntel,60,5eb9b011e926960deb4d6d91,2.618000031,1,0,98,90,1,97
,,,,,,,,,,,,,,,,,,,,,,,,,,,,,,,,,,,,,,,,,,,,,,,,,,,95,tenedor,Spanish,Sounds/spa_tenedor.mp3,2020-06-25_12h07.32.988,TranslationElicitation_eng-prolific-spa,3.2.4,MacIntel,60,5eb9b011e926960deb4d6d91,,1,0,98,90,1,97
,,,,,,,,,,,,,,,,,,,,,,,,,,,,,,,,,,,,,,,,,t,2.398000002,T,FALSE,,,,,,,94,tambor,Spanish,Sounds/spa_tambor.mp3,2020-06-25_12h07.32.988,TranslationElicitation_eng-prolific-spa,3.2.4,MacIntel,60,5eb9b011e926960deb4d6d91,,1,0,98,89,1,97
,,,,,,,,,,,,,,,,,,,,,,,,,,,,,,,,,,,,,,,,,r,2.648999929,TR,FALSE,,,,,,,94,tambor,Spanish,Sounds/spa_tambor.mp3,2020-06-25_12h07.32.988,TranslationElicitation_eng-prolific-spa,3.2.4,MacIntel,60,5eb9b011e926960deb4d6d91,,1,0,98,89,1,97
,,,,,,,,,,,,,,,,,,,,,,,,,,,,,,,,,,,,,,,,,o,2.782000065,TRO,FALSE,,,,,,,94,tambor,Spanish,Sounds/spa_tambor.mp3,2020-06-25_12h07.32.988,TranslationElicitation_eng-prolific-spa,3.2.4,MacIntel,60,5eb9b011e926960deb4d6d91,,1,0,98,89,1,97
,,,,,,,,,,,,,,,,,,,,,,,,,,,,,,,,,,,,,,,,,m,2.984999895,TROM,FALSE,,,,,,,94,tambor,Spanish,Sounds/spa_tambor.mp3,2020-06-25_12h07.32.988,TranslationElicitation_eng-prolific-spa,3.2.4,MacIntel,60,5eb9b011e926960deb4d6d91,,1,0,98,89,1,97
,,,,,,,,,,,,,,,,,,,,,,,,,,,,,,,,,,,,,,,,,b,3.982000113,TROMB,FALSE,,,,,,,94,tambor,Spanish,Sounds/spa_tambor.mp3,2020-06-25_12h07.32.988,TranslationElicitation_eng-prolific-spa,3.2.4,MacIntel,60,5eb9b011e926960deb4d6d91,,1,0,98,89,1,97
,,,,,,,,,,,,,,,,,,,,,,,,,,,,,,,,,,,,,,,,,n,4.214999914,TROMBN,FALSE,,,,,,,94,tambor,Spanish,Sounds/spa_tambor.mp3,2020-06-25_12h07.32.988,TranslationElicitation_eng-prolific-spa,3.2.4,MacIntel,60,5eb9b011e926960deb4d6d91,,1,0,98,89,1,97
,,,,,,,,,,,,,,,,,,,,,,,,,,,,,,,,,,,,,,,,,e,4.349999905,TROMBNE,FALSE,,,,,,,94,tambor,Spanish,Sounds/spa_tambor.mp3,2020-06-25_12h07.32.988,TranslationElicitation_eng-prolific-spa,3.2.4,MacIntel,60,5eb9b011e926960deb4d6d91,,1,0,98,89,1,97
,,,,,,,,,,,,,,,,,,,,,,,,,,,,,,,,,,,,,,,,,backspace,4.765000105,TROMBN,TRUE,,,,,,,94,tambor,Spanish,Sounds/spa_tambor.mp3,2020-06-25_12h07.32.988,TranslationElicitation_eng-prolific-spa,3.2.4,MacIntel,60,5eb9b011e926960deb4d6d91,,1,0,98,89,1,97
,,,,,,,,,,,,,,,,,,,,,,,,,,,,,,,,,,,,,,,,,backspace,4.914999962,TROMB,TRUE,,,,,,,94,tambor,Spanish,Sounds/spa_tambor.mp3,2020-06-25_12h07.32.988,TranslationElicitation_eng-prolific-spa,3.2.4,MacIntel,60,5eb9b011e926960deb4d6d91,,1,0,98,89,1,97
,,,,,,,,,,,,,,,,,,,,,,,,,,,,,,,,,,,,,,,,,o,5.148000002,TROMBO,TRUE,,,,,,,94,tambor,Spanish,Sounds/spa_tambor.mp3,2020-06-25_12h07.32.988,TranslationElicitation_eng-prolific-spa,3.2.4,MacIntel,60,5eb9b011e926960deb4d6d91,,1,0,98,89,1,97
,,,,,,,,,,,,,,,,,,,,,,,,,,,,,,,,,,,,,,,,,n,5.247999907,TROMBON,TRUE,,,,,,,94,tambor,Spanish,Sounds/spa_tambor.mp3,2020-06-25_12h07.32.988,TranslationElicitation_eng-prolific-spa,3.2.4,MacIntel,60,5eb9b011e926960deb4d6d91,,1,0,98,89,1,97
,,,,,,,,,,,,,,,,,,,,,,,,,,,,,,,,,,,,,,,,,e,5.381999969,TROMBONE,TRUE,,,,,,,94,tambor,Spanish,Sounds/spa_tambor.mp3,2020-06-25_12h07.32.988,TranslationElicitation_eng-prolific-spa,3.2.4,MacIntel,60,5eb9b011e926960deb4d6d91,,1,0,98,89,1,97
,,,,,,,,,,,,,,,,,,,,,,,,,,,,,,,,,,,,,,,,,return,6.082000017,TROMBONE,TRUE,,,,,,,94,tambor,Spanish,Sounds/spa_tambor.mp3,2020-06-25_12h07.32.988,TranslationElicitation_eng-prolific-spa,3.2.4,MacIntel,60,5eb9b011e926960deb4d6d91,6.082000017,1,0,98,89,1,97
,,,,,,,,,,,,,,,,,,,,,,,,,,,,,,,,,,,,,,,,,,,,,,,,,,,94,tambor,Spanish,Sounds/spa_tambor.mp3,2020-06-25_12h07.32.988,TranslationElicitation_eng-prolific-spa,3.2.4,MacIntel,60,5eb9b011e926960deb4d6d91,,1,0,98,89,1,97
,,,,,,,,,,,,,,,,,,,,,,,,,,,,,,,,,,,,,,,,,a,1.46600008,A,FALSE,,,,,,,34,ensalada,Spanish,Sounds/spa_ensalada.mp3,2020-06-25_12h07.32.988,TranslationElicitation_eng-prolific-spa,3.2.4,MacIntel,60,5eb9b011e926960deb4d6d91,,1,0,98,30,1,97
,,,,,,,,,,,,,,,,,,,,,,,,,,,,,,,,,,,,,,,,,l,1.618000031,AL,FALSE,,,,,,,34,ensalada,Spanish,Sounds/spa_ensalada.mp3,2020-06-25_12h07.32.988,TranslationElicitation_eng-prolific-spa,3.2.4,MacIntel,60,5eb9b011e926960deb4d6d91,,1,0,98,30,1,97
,,,,,,,,,,,,,,,,,,,,,,,,,,,,,,,,,,,,,,,,,a,1.683000088,ALA,FALSE,,,,,,,34,ensalada,Spanish,Sounds/spa_ensalada.mp3,2020-06-25_12h07.32.988,TranslationElicitation_eng-prolific-spa,3.2.4,MacIntel,60,5eb9b011e926960deb4d6d91,,1,0,98,30,1,97
,,,,,,,,,,,,,,,,,,,,,,,,,,,,,,,,,,,,,,,,,backspace,2.066999912,AL,TRUE,,,,,,,34,ensalada,Spanish,Sounds/spa_ensalada.mp3,2020-06-25_12h07.32.988,TranslationElicitation_eng-prolific-spa,3.2.4,MacIntel,60,5eb9b011e926960deb4d6d91,,1,0,98,30,1,97
,,,,,,,,,,,,,,,,,,,,,,,,,,,,,,,,,,,,,,,,,backspace,2.244999886,A,TRUE,,,,,,,34,ensalada,Spanish,Sounds/spa_ensalada.mp3,2020-06-25_12h07.32.988,TranslationElicitation_eng-prolific-spa,3.2.4,MacIntel,60,5eb9b011e926960deb4d6d91,,1,0,98,30,1,97
,,,,,,,,,,,,,,,,,,,,,,,,,,,,,,,,,,,,,,,,,backspace,2.384000063,,TRUE,,,,,,,34,ensalada,Spanish,Sounds/spa_ensalada.mp3,2020-06-25_12h07.32.988,TranslationElicitation_eng-prolific-spa,3.2.4,MacIntel,60,5eb9b011e926960deb4d6d91,,1,0,98,30,1,97
,,,,,,,,,,,,,,,,,,,,,,,,,,,,,,,,,,,,,,,,,s,2.434000015,S,TRUE,,,,,,,34,ensalada,Spanish,Sounds/spa_ensalada.mp3,2020-06-25_12h07.32.988,TranslationElicitation_eng-prolific-spa,3.2.4,MacIntel,60,5eb9b011e926960deb4d6d91,,1,0,98,30,1,97
,,,,,,,,,,,,,,,,,,,,,,,,,,,,,,,,,,,,,,,,,a,2.568000078,SA,TRUE,,,,,,,34,ensalada,Spanish,Sounds/spa_ensalada.mp3,2020-06-25_12h07.32.988,TranslationElicitation_eng-prolific-spa,3.2.4,MacIntel,60,5eb9b011e926960deb4d6d91,,1,0,98,30,1,97
,,,,,,,,,,,,,,,,,,,,,,,,,,,,,,,,,,,,,,,,,l,3.184000015,SAL,TRUE,,,,,,,34,ensalada,Spanish,Sounds/spa_ensalada.mp3,2020-06-25_12h07.32.988,TranslationElicitation_eng-prolific-spa,3.2.4,MacIntel,60,5eb9b011e926960deb4d6d91,,1,0,98,30,1,97
,,,,,,,,,,,,,,,,,,,,,,,,,,,,,,,,,,,,,,,,,a,3.25,SALA,TRUE,,,,,,,34,ensalada,Spanish,Sounds/spa_ensalada.mp3,2020-06-25_12h07.32.988,TranslationElicitation_eng-prolific-spa,3.2.4,MacIntel,60,5eb9b011e926960deb4d6d91,,1,0,98,30,1,97
,,,,,,,,,,,,,,,,,,,,,,,,,,,,,,,,,,,,,,,,,d,3.35800004,SALAD,TRUE,,,,,,,34,ensalada,Spanish,Sounds/spa_ensalada.mp3,2020-06-25_12h07.32.988,TranslationElicitation_eng-prolific-spa,3.2.4,MacIntel,60,5eb9b011e926960deb4d6d91,,1,0,98,30,1,97
,,,,,,,,,,,,,,,,,,,,,,,,,,,,,,,,,,,,,,,,,return,3.767999887,SALAD,TRUE,,,,,,,34,ensalada,Spanish,Sounds/spa_ensalada.mp3,2020-06-25_12h07.32.988,TranslationElicitation_eng-prolific-spa,3.2.4,MacIntel,60,5eb9b011e926960deb4d6d91,3.767999887,1,0,98,30,1,97
,,,,,,,,,,,,,,,,,,,,,,,,,,,,,,,,,,,,,,,,,,,,,,,,,,,34,ensalada,Spanish,Sounds/spa_ensalada.mp3,2020-06-25_12h07.32.988,TranslationElicitation_eng-prolific-spa,3.2.4,MacIntel,60,5eb9b011e926960deb4d6d91,,1,0,98,30,1,97
,,,,,,,,,,,,,,,,,,,,,,,,,,,,,,,,,,,,,,,,,p,3.301000118,P,FALSE,,,,,,,7,bocadillo,Spanish,Sounds/spa_bocadillo.mp3,2020-06-25_12h07.32.988,TranslationElicitation_eng-prolific-spa,3.2.4,MacIntel,60,5eb9b011e926960deb4d6d91,,1,0,98,5,1,97
,,,,,,,,,,,,,,,,,,,,,,,,,,,,,,,,,,,,,,,,,o,3.750999928,PO,FALSE,,,,,,,7,bocadillo,Spanish,Sounds/spa_bocadillo.mp3,2020-06-25_12h07.32.988,TranslationElicitation_eng-prolific-spa,3.2.4,MacIntel,60,5eb9b011e926960deb4d6d91,,1,0,98,5,1,97
,,,,,,,,,,,,,,,,,,,,,,,,,,,,,,,,,,,,,,,,,r,3.801000118,POR,FALSE,,,,,,,7,bocadillo,Spanish,Sounds/spa_bocadillo.mp3,2020-06-25_12h07.32.988,TranslationElicitation_eng-prolific-spa,3.2.4,MacIntel,60,5eb9b011e926960deb4d6d91,,1,0,98,5,1,97
,,,,,,,,,,,,,,,,,,,,,,,,,,,,,,,,,,,,,,,,,k,3.950000048,PORK,FALSE,,,,,,,7,bocadillo,Spanish,Sounds/spa_bocadillo.mp3,2020-06-25_12h07.32.988,TranslationElicitation_eng-prolific-spa,3.2.4,MacIntel,60,5eb9b011e926960deb4d6d91,,1,0,98,5,1,97
,,,,,,,,,,,,,,,,,,,,,,,,,,,,,,,,,,,,,,,,,return,4.250999928,PORK,FALSE,,,,,,,7,bocadillo,Spanish,Sounds/spa_bocadillo.mp3,2020-06-25_12h07.32.988,TranslationElicitation_eng-prolific-spa,3.2.4,MacIntel,60,5eb9b011e926960deb4d6d91,4.250999928,1,0,98,5,1,97
,,,,,,,,,,,,,,,,,,,,,,,,,,,,,,,,,,,,,,,,,,,,,,,,,,,7,bocadillo,Spanish,Sounds/spa_bocadillo.mp3,2020-06-25_12h07.32.988,TranslationElicitation_eng-prolific-spa,3.2.4,MacIntel,60,5eb9b011e926960deb4d6d91,,1,0,98,5,1,97
,,,,,,,,,,,,,,,,,,,,,,,,,,,,,,,,,,,,,,,,,g,10.53600001,G,FALSE,,,,,,,97,tijeras,Spanish,Sounds/spa_tijeras.mp3,2020-06-25_12h07.32.988,TranslationElicitation_eng-prolific-spa,3.2.4,MacIntel,60,5eb9b011e926960deb4d6d91,,1,0,98,91,1,97
,,,,,,,,,,,,,,,,,,,,,,,,,,,,,,,,,,,,,,,,,a,10.68300009,GA,FALSE,,,,,,,97,tijeras,Spanish,Sounds/spa_tijeras.mp3,2020-06-25_12h07.32.988,TranslationElicitation_eng-prolific-spa,3.2.4,MacIntel,60,5eb9b011e926960deb4d6d91,,1,0,98,91,1,97
,,,,,,,,,,,,,,,,,,,,,,,,,,,,,,,,,,,,,,,,,r,10.95099998,GAR,FALSE,,,,,,,97,tijeras,Spanish,Sounds/spa_tijeras.mp3,2020-06-25_12h07.32.988,TranslationElicitation_eng-prolific-spa,3.2.4,MacIntel,60,5eb9b011e926960deb4d6d91,,1,0,98,91,1,97
,,,,,,,,,,,,,,,,,,,,,,,,,,,,,,,,,,,,,,,,,d,11.20099998,GARD,FALSE,,,,,,,97,tijeras,Spanish,Sounds/spa_tijeras.mp3,2020-06-25_12h07.32.988,TranslationElicitation_eng-prolific-spa,3.2.4,MacIntel,60,5eb9b011e926960deb4d6d91,,1,0,98,91,1,97
,,,,,,,,,,,,,,,,,,,,,,,,,,,,,,,,,,,,,,,,,e,11.4000001,GARDE,FALSE,,,,,,,97,tijeras,Spanish,Sounds/spa_tijeras.mp3,2020-06-25_12h07.32.988,TranslationElicitation_eng-prolific-spa,3.2.4,MacIntel,60,5eb9b011e926960deb4d6d91,,1,0,98,91,1,97
,,,,,,,,,,,,,,,,,,,,,,,,,,,,,,,,,,,,,,,,,n,11.55200005,GARDEN,FALSE,,,,,,,97,tijeras,Spanish,Sounds/spa_tijeras.mp3,2020-06-25_12h07.32.988,TranslationElicitation_eng-prolific-spa,3.2.4,MacIntel,60,5eb9b011e926960deb4d6d91,,1,0,98,91,1,97
,,,,,,,,,,,,,,,,,,,,,,,,,,,,,,,,,,,,,,,,,s,11.63499999,GARDENS,FALSE,,,,,,,97,tijeras,Spanish,Sounds/spa_tijeras.mp3,2020-06-25_12h07.32.988,TranslationElicitation_eng-prolific-spa,3.2.4,MacIntel,60,5eb9b011e926960deb4d6d91,,1,0,98,91,1,97
,,,,,,,,,,,,,,,,,,,,,,,,,,,,,,,,,,,,,,,,,return,12.00200009,GARDENS,FALSE,,,,,,,97,tijeras,Spanish,Sounds/spa_tijeras.mp3,2020-06-25_12h07.32.988,TranslationElicitation_eng-prolific-spa,3.2.4,MacIntel,60,5eb9b011e926960deb4d6d91,12.00200009,1,0,98,91,1,97
,,,,,,,,,,,,,,,,,,,,,,,,,,,,,,,,,,,,,,,,,,,,,,,,,,,97,tijeras,Spanish,Sounds/spa_tijeras.mp3,2020-06-25_12h07.32.988,TranslationElicitation_eng-prolific-spa,3.2.4,MacIntel,60,5eb9b011e926960deb4d6d91,,1,0,98,91,1,97
,,,,,,,,,,,,,,,,,,,,,,,,,,,,,,,,,,,,,,,,,f,3.536000013,F,FALSE,,,,,,,38,frambuesa,Spanish,Sounds/spa_frambuesa.mp3,2020-06-25_12h07.32.988,TranslationElicitation_eng-prolific-spa,3.2.4,MacIntel,60,5eb9b011e926960deb4d6d91,,1,0,98,34,1,97
,,,,,,,,,,,,,,,,,,,,,,,,,,,,,,,,,,,,,,,,,l,3.667999983,FL,FALSE,,,,,,,38,frambuesa,Spanish,Sounds/spa_frambuesa.mp3,2020-06-25_12h07.32.988,TranslationElicitation_eng-prolific-spa,3.2.4,MacIntel,60,5eb9b011e926960deb4d6d91,,1,0,98,34,1,97
,,,,,,,,,,,,,,,,,,,,,,,,,,,,,,,,,,,,,,,,,a,3.852999926,FLA,FALSE,,,,,,,38,frambuesa,Spanish,Sounds/spa_frambuesa.mp3,2020-06-25_12h07.32.988,TranslationElicitation_eng-prolific-spa,3.2.4,MacIntel,60,5eb9b011e926960deb4d6d91,,1,0,98,34,1,97
,,,,,,,,,,,,,,,,,,,,,,,,,,,,,,,,,,,,,,,,,m,4.273999929,FLAM,FALSE,,,,,,,38,frambuesa,Spanish,Sounds/spa_frambuesa.mp3,2020-06-25_12h07.32.988,TranslationElicitation_eng-prolific-spa,3.2.4,MacIntel,60,5eb9b011e926960deb4d6d91,,1,0,98,34,1,97
,,,,,,,,,,,,,,,,,,,,,,,,,,,,,,,,,,,,,,,,,b,4.88499999,FLAMB,FALSE,,,,,,,38,frambuesa,Spanish,Sounds/spa_frambuesa.mp3,2020-06-25_12h07.32.988,TranslationElicitation_eng-prolific-spa,3.2.4,MacIntel,60,5eb9b011e926960deb4d6d91,,1,0,98,34,1,97
,,,,,,,,,,,,,,,,,,,,,,,,,,,,,,,,,,,,,,,,,o,5.085999966,FLAMBO,FALSE,,,,,,,38,frambuesa,Spanish,Sounds/spa_frambuesa.mp3,2020-06-25_12h07.32.988,TranslationElicitation_eng-prolific-spa,3.2.4,MacIntel,60,5eb9b011e926960deb4d6d91,,1,0,98,34,1,97
,,,,,,,,,,,,,,,,,,,,,,,,,,,,,,,,,,,,,,,,,i,5.233999968,FLAMBOI,FALSE,,,,,,,38,frambuesa,Spanish,Sounds/spa_frambuesa.mp3,2020-06-25_12h07.32.988,TranslationElicitation_eng-prolific-spa,3.2.4,MacIntel,60,5eb9b011e926960deb4d6d91,,1,0,98,34,1,97
,,,,,,,,,,,,,,,,,,,,,,,,,,,,,,,,,,,,,,,,,n,5.484999895,FLAMBOIN,FALSE,,,,,,,38,frambuesa,Spanish,Sounds/spa_frambuesa.mp3,2020-06-25_12h07.32.988,TranslationElicitation_eng-prolific-spa,3.2.4,MacIntel,60,5eb9b011e926960deb4d6d91,,1,0,98,34,1,97
,,,,,,,,,,,,,,,,,,,,,,,,,,,,,,,,,,,,,,,,,a,6.034999847,FLAMBOINA,FALSE,,,,,,,38,frambuesa,Spanish,Sounds/spa_frambuesa.mp3,2020-06-25_12h07.32.988,TranslationElicitation_eng-prolific-spa,3.2.4,MacIntel,60,5eb9b011e926960deb4d6d91,,1,0,98,34,1,97
,,,,,,,,,,,,,,,,,,,,,,,,,,,,,,,,,,,,,,,,,n,6.417999983,FLAMBOINAN,FALSE,,,,,,,38,frambuesa,Spanish,Sounds/spa_frambuesa.mp3,2020-06-25_12h07.32.988,TranslationElicitation_eng-prolific-spa,3.2.4,MacIntel,60,5eb9b011e926960deb4d6d91,,1,0,98,34,1,97
,,,,,,,,,,,,,,,,,,,,,,,,,,,,,,,,,,,,,,,,,t,6.519999981,FLAMBOINANT,FALSE,,,,,,,38,frambuesa,Spanish,Sounds/spa_frambuesa.mp3,2020-06-25_12h07.32.988,TranslationElicitation_eng-prolific-spa,3.2.4,MacIntel,60,5eb9b011e926960deb4d6d91,,1,0,98,34,1,97
,,,,,,,,,,,,,,,,,,,,,,,,,,,,,,,,,,,,,,,,,return,6.886999846,FLAMBOINANT,FALSE,,,,,,,38,frambuesa,Spanish,Sounds/spa_frambuesa.mp3,2020-06-25_12h07.32.988,TranslationElicitation_eng-prolific-spa,3.2.4,MacIntel,60,5eb9b011e926960deb4d6d91,6.886999846,1,0,98,34,1,97
,,,,,,,,,,,,,,,,,,,,,,,,,,,,,,,,,,,,,,,,,,,,,,,,,,,38,frambuesa,Spanish,Sounds/spa_frambuesa.mp3,2020-06-25_12h07.32.988,TranslationElicitation_eng-prolific-spa,3.2.4,MacIntel,60,5eb9b011e926960deb4d6d91,,1,0,98,34,1,97
,,,,,,,,,,,,,,,,,,,,,,,,,,,,,,,,,,,,,,,,,l,1.5,L,FALSE,,,,,,,53,leche,Spanish,Sounds/spa_leche.mp3,2020-06-25_12h07.32.988,TranslationElicitation_eng-prolific-spa,3.2.4,MacIntel,60,5eb9b011e926960deb4d6d91,,1,0,98,49,1,97
,,,,,,,,,,,,,,,,,,,,,,,,,,,,,,,,,,,,,,,,,e,1.632999897,LE,FALSE,,,,,,,53,leche,Spanish,Sounds/spa_leche.mp3,2020-06-25_12h07.32.988,TranslationElicitation_eng-prolific-spa,3.2.4,MacIntel,60,5eb9b011e926960deb4d6d91,,1,0,98,49,1,97
,,,,,,,,,,,,,,,,,,,,,,,,,,,,,,,,,,,,,,,,,t,1.900000095,LET,FALSE,,,,,,,53,leche,Spanish,Sounds/spa_leche.mp3,2020-06-25_12h07.32.988,TranslationElicitation_eng-prolific-spa,3.2.4,MacIntel,60,5eb9b011e926960deb4d6d91,,1,0,98,49,1,97
,,,,,,,,,,,,,,,,,,,,,,,,,,,,,,,,,,,,,,,,,t,2.03399992,LETT,FALSE,,,,,,,53,leche,Spanish,Sounds/spa_leche.mp3,2020-06-25_12h07.32.988,TranslationElicitation_eng-prolific-spa,3.2.4,MacIntel,60,5eb9b011e926960deb4d6d91,,1,0,98,49,1,97
,,,,,,,,,,,,,,,,,,,,,,,,,,,,,,,,,,,,,,,,,u,2.16899991,LETTU,FALSE,,,,,,,53,leche,Spanish,Sounds/spa_leche.mp3,2020-06-25_12h07.32.988,TranslationElicitation_eng-prolific-spa,3.2.4,MacIntel,60,5eb9b011e926960deb4d6d91,,1,0,98,49,1,97
,,,,,,,,,,,,,,,,,,,,,,,,,,,,,,,,,,,,,,,,,c,2.28399992,LETTUC,FALSE,,,,,,,53,leche,Spanish,Sounds/spa_leche.mp3,2020-06-25_12h07.32.988,TranslationElicitation_eng-prolific-spa,3.2.4,MacIntel,60,5eb9b011e926960deb4d6d91,,1,0,98,49,1,97
,,,,,,,,,,,,,,,,,,,,,,,,,,,,,,,,,,,,,,,,,e,2.368000031,LETTUCE,FALSE,,,,,,,53,leche,Spanish,Sounds/spa_leche.mp3,2020-06-25_12h07.32.988,TranslationElicitation_eng-prolific-spa,3.2.4,MacIntel,60,5eb9b011e926960deb4d6d91,,1,0,98,49,1,97
,,,,,,,,,,,,,,,,,,,,,,,,,,,,,,,,,,,,,,,,,return,2.549999952,LETTUCE,FALSE,,,,,,,53,leche,Spanish,Sounds/spa_leche.mp3,2020-06-25_12h07.32.988,TranslationElicitation_eng-prolific-spa,3.2.4,MacIntel,60,5eb9b011e926960deb4d6d91,2.549999952,1,0,98,49,1,97
,,,,,,,,,,,,,,,,,,,,,,,,,,,,,,,,,,,,,,,,,,,,,,,,,,,53,leche,Spanish,Sounds/spa_leche.mp3,2020-06-25_12h07.32.988,TranslationElicitation_eng-prolific-spa,3.2.4,MacIntel,60,5eb9b011e926960deb4d6d91,,1,0,98,49,1,97
,,,,,,,,,,,,,,,,,,,,,,,,,,,,,,,,,,,,,,,,,b,6.549999952,B,FALSE,,,,,,,4,biberon,Spanish,Sounds/spa_biberon.mp3,2020-06-25_12h07.32.988,TranslationElicitation_eng-prolific-spa,3.2.4,MacIntel,60,5eb9b011e926960deb4d6d91,,1,0,98,2,1,97
,,,,,,,,,,,,,,,,,,,,,,,,,,,,,,,,,,,,,,,,,backspace,8.150999784,,TRUE,,,,,,,4,biberon,Spanish,Sounds/spa_biberon.mp3,2020-06-25_12h07.32.988,TranslationElicitation_eng-prolific-spa,3.2.4,MacIntel,60,5eb9b011e926960deb4d6d91,,1,0,98,2,1,97
,,,,,,,,,,,,,,,,,,,,,,,,,,,,,,,,,,,,,,,,,c,17.03599977,C,TRUE,,,,,,,4,biberon,Spanish,Sounds/spa_biberon.mp3,2020-06-25_12h07.32.988,TranslationElicitation_eng-prolific-spa,3.2.4,MacIntel,60,5eb9b011e926960deb4d6d91,,1,0,98,2,1,97
,,,,,,,,,,,,,,,,,,,,,,,,,,,,,,,,,,,,,,,,,h,17.28599977,CH,TRUE,,,,,,,4,biberon,Spanish,Sounds/spa_biberon.mp3,2020-06-25_12h07.32.988,TranslationElicitation_eng-prolific-spa,3.2.4,MacIntel,60,5eb9b011e926960deb4d6d91,,1,0,98,2,1,97
,,,,,,,,,,,,,,,,,,,,,,,,,,,,,,,,,,,,,,,,,e,17.48599982,CHE,TRUE,,,,,,,4,biberon,Spanish,Sounds/spa_biberon.mp3,2020-06-25_12h07.32.988,TranslationElicitation_eng-prolific-spa,3.2.4,MacIntel,60,5eb9b011e926960deb4d6d91,,1,0,98,2,1,97
,,,,,,,,,,,,,,,,,,,,,,,,,,,,,,,,,,,,,,,,,e,17.60299993,CHEE,TRUE,,,,,,,4,biberon,Spanish,Sounds/spa_biberon.mp3,2020-06-25_12h07.32.988,TranslationElicitation_eng-prolific-spa,3.2.4,MacIntel,60,5eb9b011e926960deb4d6d91,,1,0,98,2,1,97
,,,,,,,,,,,,,,,,,,,,,,,,,,,,,,,,,,,,,,,,,s,17.81900001,CHEES,TRUE,,,,,,,4,biberon,Spanish,Sounds/spa_biberon.mp3,2020-06-25_12h07.32.988,TranslationElicitation_eng-prolific-spa,3.2.4,MacIntel,60,5eb9b011e926960deb4d6d91,,1,0,98,2,1,97
,,,,,,,,,,,,,,,,,,,,,,,,,,,,,,,,,,,,,,,,,e,17.93599987,CHEESE,TRUE,,,,,,,4,biberon,Spanish,Sounds/spa_biberon.mp3,2020-06-25_12h07.32.988,TranslationElicitation_eng-prolific-spa,3.2.4,MacIntel,60,5eb9b011e926960deb4d6d91,,1,0,98,2,1,97
,,,,,,,,,,,,,,,,,,,,,,,,,,,,,,,,,,,,,,,,,return,18.16899991,CHEESE,TRUE,,,,,,,4,biberon,Spanish,Sounds/spa_biberon.mp3,2020-06-25_12h07.32.988,TranslationElicitation_eng-prolific-spa,3.2.4,MacIntel,60,5eb9b011e926960deb4d6d91,18.16899991,1,0,98,2,1,97
,,,,,,,,,,,,,,,,,,,,,,,,,,,,,,,,,,,,,,,,,,,,,,,,,,,4,biberon,Spanish,Sounds/spa_biberon.mp3,2020-06-25_12h07.32.988,TranslationElicitation_eng-prolific-spa,3.2.4,MacIntel,60,5eb9b011e926960deb4d6d91,,1,0,98,2,1,97
,,,,,,,,,,,,,,,,,,,,,,,,,,,,,,,,,,,,,,,,,o,1.316999912,O,FALSE,,,,,,,99,tomate,Spanish,Sounds/spa_tomate.mp3,2020-06-25_12h07.32.988,TranslationElicitation_eng-prolific-spa,3.2.4,MacIntel,60,5eb9b011e926960deb4d6d91,,1,0,98,93,1,97
,,,,,,,,,,,,,,,,,,,,,,,,,,,,,,,,,,,,,,,,,m,1.549999952,OM,FALSE,,,,,,,99,tomate,Spanish,Sounds/spa_tomate.mp3,2020-06-25_12h07.32.988,TranslationElicitation_eng-prolific-spa,3.2.4,MacIntel,60,5eb9b011e926960deb4d6d91,,1,0,98,93,1,97
,,,,,,,,,,,,,,,,,,,,,,,,,,,,,,,,,,,,,,,,,backspace,1.865999937,O,TRUE,,,,,,,99,tomate,Spanish,Sounds/spa_tomate.mp3,2020-06-25_12h07.32.988,TranslationElicitation_eng-prolific-spa,3.2.4,MacIntel,60,5eb9b011e926960deb4d6d91,,1,0,98,93,1,97
,,,,,,,,,,,,,,,,,,,,,,,,,,,,,,,,,,,,,,,,,backspace,1.98300004,,TRUE,,,,,,,99,tomate,Spanish,Sounds/spa_tomate.mp3,2020-06-25_12h07.32.988,TranslationElicitation_eng-prolific-spa,3.2.4,MacIntel,60,5eb9b011e926960deb4d6d91,,1,0,98,93,1,97
,,,,,,,,,,,,,,,,,,,,,,,,,,,,,,,,,,,,,,,,,t,2.401000023,T,TRUE,,,,,,,99,tomate,Spanish,Sounds/spa_tomate.mp3,2020-06-25_12h07.32.988,TranslationElicitation_eng-prolific-spa,3.2.4,MacIntel,60,5eb9b011e926960deb4d6d91,,1,0,98,93,1,97
,,,,,,,,,,,,,,,,,,,,,,,,,,,,,,,,,,,,,,,,,o,2.549999952,TO,TRUE,,,,,,,99,tomate,Spanish,Sounds/spa_tomate.mp3,2020-06-25_12h07.32.988,TranslationElicitation_eng-prolific-spa,3.2.4,MacIntel,60,5eb9b011e926960deb4d6d91,,1,0,98,93,1,97
,,,,,,,,,,,,,,,,,,,,,,,,,,,,,,,,,,,,,,,,,m,2.782999992,TOM,TRUE,,,,,,,99,tomate,Spanish,Sounds/spa_tomate.mp3,2020-06-25_12h07.32.988,TranslationElicitation_eng-prolific-spa,3.2.4,MacIntel,60,5eb9b011e926960deb4d6d91,,1,0,98,93,1,97
,,,,,,,,,,,,,,,,,,,,,,,,,,,,,,,,,,,,,,,,,o,2.950999975,TOMO,TRUE,,,,,,,99,tomate,Spanish,Sounds/spa_tomate.mp3,2020-06-25_12h07.32.988,TranslationElicitation_eng-prolific-spa,3.2.4,MacIntel,60,5eb9b011e926960deb4d6d91,,1,0,98,93,1,97
,,,,,,,,,,,,,,,,,,,,,,,,,,,,,,,,,,,,,,,,,backspace,3.701999903,TOM,TRUE,,,,,,,99,tomate,Spanish,Sounds/spa_tomate.mp3,2020-06-25_12h07.32.988,TranslationElicitation_eng-prolific-spa,3.2.4,MacIntel,60,5eb9b011e926960deb4d6d91,,1,0,98,93,1,97
,,,,,,,,,,,,,,,,,,,,,,,,,,,,,,,,,,,,,,,,,a,4.80099988,TOMA,TRUE,,,,,,,99,tomate,Spanish,Sounds/spa_tomate.mp3,2020-06-25_12h07.32.988,TranslationElicitation_eng-prolific-spa,3.2.4,MacIntel,60,5eb9b011e926960deb4d6d91,,1,0,98,93,1,97
,,,,,,,,,,,,,,,,,,,,,,,,,,,,,,,,,,,,,,,,,t,5.099999905,TOMAT,TRUE,,,,,,,99,tomate,Spanish,Sounds/spa_tomate.mp3,2020-06-25_12h07.32.988,TranslationElicitation_eng-prolific-spa,3.2.4,MacIntel,60,5eb9b011e926960deb4d6d91,,1,0,98,93,1,97
,,,,,,,,,,,,,,,,,,,,,,,,,,,,,,,,,,,,,,,,,o,5.217999935,TOMATO,TRUE,,,,,,,99,tomate,Spanish,Sounds/spa_tomate.mp3,2020-06-25_12h07.32.988,TranslationElicitation_eng-prolific-spa,3.2.4,MacIntel,60,5eb9b011e926960deb4d6d91,,1,0,98,93,1,97
,,,,,,,,,,,,,,,,,,,,,,,,,,,,,,,,,,,,,,,,,e,5.433000088,TOMATOE,TRUE,,,,,,,99,tomate,Spanish,Sounds/spa_tomate.mp3,2020-06-25_12h07.32.988,TranslationElicitation_eng-prolific-spa,3.2.4,MacIntel,60,5eb9b011e926960deb4d6d91,,1,0,98,93,1,97
,,,,,,,,,,,,,,,,,,,,,,,,,,,,,,,,,,,,,,,,,backspace,6.226000071,TOMATO,TRUE,,,,,,,99,tomate,Spanish,Sounds/spa_tomate.mp3,2020-06-25_12h07.32.988,TranslationElicitation_eng-prolific-spa,3.2.4,MacIntel,60,5eb9b011e926960deb4d6d91,,1,0,98,93,1,97
,,,,,,,,,,,,,,,,,,,,,,,,,,,,,,,,,,,,,,,,,return,6.634000063,TOMATO,TRUE,,,,,,,99,tomate,Spanish,Sounds/spa_tomate.mp3,2020-06-25_12h07.32.988,TranslationElicitation_eng-prolific-spa,3.2.4,MacIntel,60,5eb9b011e926960deb4d6d91,6.634000063,1,0,98,93,1,97
,,,,,,,,,,,,,,,,,,,,,,,,,,,,,,,,,,,,,,,,,,,,,,,,,,,99,tomate,Spanish,Sounds/spa_tomate.mp3,2020-06-25_12h07.32.988,TranslationElicitation_eng-prolific-spa,3.2.4,MacIntel,60,5eb9b011e926960deb4d6d91,,1,0,98,93,1,97
,,,,,,,,,,,,,,,,,,,,,,,,,,,,,,,,,,,,,,,,,b,2.70299983,B,FALSE,,,,,,,91,puerta,Spanish,Sounds/spa_puerta.mp3,2020-06-25_12h07.32.988,TranslationElicitation_eng-prolific-spa,3.2.4,MacIntel,60,5eb9b011e926960deb4d6d91,,1,0,98,86,1,97
,,,,,,,,,,,,,,,,,,,,,,,,,,,,,,,,,,,,,,,,,r,2.883999825,BR,FALSE,,,,,,,91,puerta,Spanish,Sounds/spa_puerta.mp3,2020-06-25_12h07.32.988,TranslationElicitation_eng-prolific-spa,3.2.4,MacIntel,60,5eb9b011e926960deb4d6d91,,1,0,98,86,1,97
,,,,,,,,,,,,,,,,,,,,,,,,,,,,,,,,,,,,,,,,,e,2.967000008,BRE,FALSE,,,,,,,91,puerta,Spanish,Sounds/spa_puerta.mp3,2020-06-25_12h07.32.988,TranslationElicitation_eng-prolific-spa,3.2.4,MacIntel,60,5eb9b011e926960deb4d6d91,,1,0,98,86,1,97
,,,,,,,,,,,,,,,,,,,,,,,,,,,,,,,,,,,,,,,,,a,3.243999958,BREA,FALSE,,,,,,,91,puerta,Spanish,Sounds/spa_puerta.mp3,2020-06-25_12h07.32.988,TranslationElicitation_eng-prolific-spa,3.2.4,MacIntel,60,5eb9b011e926960deb4d6d91,,1,0,98,86,1,97
,,,,,,,,,,,,,,,,,,,,,,,,,,,,,,,,,,,,,,,,,d,3.333999872,BREAD,FALSE,,,,,,,91,puerta,Spanish,Sounds/spa_puerta.mp3,2020-06-25_12h07.32.988,TranslationElicitation_eng-prolific-spa,3.2.4,MacIntel,60,5eb9b011e926960deb4d6d91,,1,0,98,86,1,97
,,,,,,,,,,,,,,,,,,,,,,,,,,,,,,,,,,,,,,,,,return,3.649999857,BREAD,FALSE,,,,,,,91,puerta,Spanish,Sounds/spa_puerta.mp3,2020-06-25_12h07.32.988,TranslationElicitation_eng-prolific-spa,3.2.4,MacIntel,60,5eb9b011e926960deb4d6d91,3.649999857,1,0,98,86,1,97
,,,,,,,,,,,,,,,,,,,,,,,,,,,,,,,,,,,,,,,,,,,,,,,,,,,91,puerta,Spanish,Sounds/spa_puerta.mp3,2020-06-25_12h07.32.988,TranslationElicitation_eng-prolific-spa,3.2.4,MacIntel,60,5eb9b011e926960deb4d6d91,,1,0,98,86,1,97
,,,,,,,,,,,,,,,,,,,,,,,,,,,,,,,,,,,,,,,,,b,1.618000031,B,FALSE,,,,,,,3,barco,Spanish,Sounds/spa_barco.mp3,2020-06-25_12h07.32.988,TranslationElicitation_eng-prolific-spa,3.2.4,MacIntel,60,5eb9b011e926960deb4d6d91,,1,0,98,1,1,97
,,,,,,,,,,,,,,,,,,,,,,,,,,,,,,,,,,,,,,,,,a,1.718000174,BA,FALSE,,,,,,,3,barco,Spanish,Sounds/spa_barco.mp3,2020-06-25_12h07.32.988,TranslationElicitation_eng-prolific-spa,3.2.4,MacIntel,60,5eb9b011e926960deb4d6d91,,1,0,98,1,1,97
,,,,,,,,,,,,,,,,,,,,,,,,,,,,,,,,,,,,,,,,,r,2.018000126,BAR,FALSE,,,,,,,3,barco,Spanish,Sounds/spa_barco.mp3,2020-06-25_12h07.32.988,TranslationElicitation_eng-prolific-spa,3.2.4,MacIntel,60,5eb9b011e926960deb4d6d91,,1,0,98,1,1,97
,,,,,,,,,,,,,,,,,,,,,,,,,,,,,,,,,,,,,,,,,c,2.200999975,BARC,FALSE,,,,,,,3,barco,Spanish,Sounds/spa_barco.mp3,2020-06-25_12h07.32.988,TranslationElicitation_eng-prolific-spa,3.2.4,MacIntel,60,5eb9b011e926960deb4d6d91,,1,0,98,1,1,97
,,,,,,,,,,,,,,,,,,,,,,,,,,,,,,,,,,,,,,,,,o,2.400000095,BARCO,FALSE,,,,,,,3,barco,Spanish,Sounds/spa_barco.mp3,2020-06-25_12h07.32.988,TranslationElicitation_eng-prolific-spa,3.2.4,MacIntel,60,5eb9b011e926960deb4d6d91,,1,0,98,1,1,97
,,,,,,,,,,,,,,,,,,,,,,,,,,,,,,,,,,,,,,,,,d,2.450999975,BARCOD,FALSE,,,,,,,3,barco,Spanish,Sounds/spa_barco.mp3,2020-06-25_12h07.32.988,TranslationElicitation_eng-prolific-spa,3.2.4,MacIntel,60,5eb9b011e926960deb4d6d91,,1,0,98,1,1,97
,,,,,,,,,,,,,,,,,,,,,,,,,,,,,,,,,,,,,,,,,e,2.567000151,BARCODE,FALSE,,,,,,,3,barco,Spanish,Sounds/spa_barco.mp3,2020-06-25_12h07.32.988,TranslationElicitation_eng-prolific-spa,3.2.4,MacIntel,60,5eb9b011e926960deb4d6d91,,1,0,98,1,1,97
,,,,,,,,,,,,,,,,,,,,,,,,,,,,,,,,,,,,,,,,,return,3.067000151,BARCODE,FALSE,,,,,,,3,barco,Spanish,Sounds/spa_barco.mp3,2020-06-25_12h07.32.988,TranslationElicitation_eng-prolific-spa,3.2.4,MacIntel,60,5eb9b011e926960deb4d6d91,3.067000151,1,0,98,1,1,97
,,,,,,,,,,,,,,,,,,,,,,,,,,,,,,,,,,,,,,,,,,,,,,,,,,,3,barco,Spanish,Sounds/spa_barco.mp3,2020-06-25_12h07.32.988,TranslationElicitation_eng-prolific-spa,3.2.4,MacIntel,60,5eb9b011e926960deb4d6d91,,1,0,98,1,1,97
,,,,,,,,,,,,,,,,,,,,,,,,,,,,,,,,,,,,,,,,,h,1.518000126,H,FALSE,,,,,,,27,chocolate,Spanish,Sounds/spa_chocolate.mp3,2020-06-25_12h07.32.988,TranslationElicitation_eng-prolific-spa,3.2.4,MacIntel,60,5eb9b011e926960deb4d6d91,,1,0,98,24,1,97
,,,,,,,,,,,,,,,,,,,,,,,,,,,,,,,,,,,,,,,,,backspace,1.967000008,,TRUE,,,,,,,27,chocolate,Spanish,Sounds/spa_chocolate.mp3,2020-06-25_12h07.32.988,TranslationElicitation_eng-prolific-spa,3.2.4,MacIntel,60,5eb9b011e926960deb4d6d91,,1,0,98,24,1,97
,,,,,,,,,,,,,,,,,,,,,,,,,,,,,,,,,,,,,,,,,c,2.082000017,C,TRUE,,,,,,,27,chocolate,Spanish,Sounds/spa_chocolate.mp3,2020-06-25_12h07.32.988,TranslationElicitation_eng-prolific-spa,3.2.4,MacIntel,60,5eb9b011e926960deb4d6d91,,1,0,98,24,1,97
,,,,,,,,,,,,,,,,,,,,,,,,,,,,,,,,,,,,,,,,,h,2.23300004,CH,TRUE,,,,,,,27,chocolate,Spanish,Sounds/spa_chocolate.mp3,2020-06-25_12h07.32.988,TranslationElicitation_eng-prolific-spa,3.2.4,MacIntel,60,5eb9b011e926960deb4d6d91,,1,0,98,24,1,97
,,,,,,,,,,,,,,,,,,,,,,,,,,,,,,,,,,,,,,,,,o,2.467000008,CHO,TRUE,,,,,,,27,chocolate,Spanish,Sounds/spa_chocolate.mp3,2020-06-25_12h07.32.988,TranslationElicitation_eng-prolific-spa,3.2.4,MacIntel,60,5eb9b011e926960deb4d6d91,,1,0,98,24,1,97
,,,,,,,,,,,,,,,,,,,,,,,,,,,,,,,,,,,,,,,,,c,3.166000128,CHOC,TRUE,,,,,,,27,chocolate,Spanish,Sounds/spa_chocolate.mp3,2020-06-25_12h07.32.988,TranslationElicitation_eng-prolific-spa,3.2.4,MacIntel,60,5eb9b011e926960deb4d6d91,,1,0,98,24,1,97
,,,,,,,,,,,,,,,,,,,,,,,,,,,,,,,,,,,,,,,,,o,3.717000008,CHOCO,TRUE,,,,,,,27,chocolate,Spanish,Sounds/spa_chocolate.mp3,2020-06-25_12h07.32.988,TranslationElicitation_eng-prolific-spa,3.2.4,MacIntel,60,5eb9b011e926960deb4d6d91,,1,0,98,24,1,97
,,,,,,,,,,,,,,,,,,,,,,,,,,,,,,,,,,,,,,,,,l,3.916000128,CHOCOL,TRUE,,,,,,,27,chocolate,Spanish,Sounds/spa_chocolate.mp3,2020-06-25_12h07.32.988,TranslationElicitation_eng-prolific-spa,3.2.4,MacIntel,60,5eb9b011e926960deb4d6d91,,1,0,98,24,1,97
,,,,,,,,,,,,,,,,,,,,,,,,,,,,,,,,,,,,,,,,,a,4.054000139,CHOCOLA,TRUE,,,,,,,27,chocolate,Spanish,Sounds/spa_chocolate.mp3,2020-06-25_12h07.32.988,TranslationElicitation_eng-prolific-spa,3.2.4,MacIntel,60,5eb9b011e926960deb4d6d91,,1,0,98,24,1,97
,,,,,,,,,,,,,,,,,,,,,,,,,,,,,,,,,,,,,,,,,t,4.200999975,CHOCOLAT,TRUE,,,,,,,27,chocolate,Spanish,Sounds/spa_chocolate.mp3,2020-06-25_12h07.32.988,TranslationElicitation_eng-prolific-spa,3.2.4,MacIntel,60,5eb9b011e926960deb4d6d91,,1,0,98,24,1,97
,,,,,,,,,,,,,,,,,,,,,,,,,,,,,,,,,,,,,,,,,e,4.301000118,CHOCOLATE,TRUE,,,,,,,27,chocolate,Spanish,Sounds/spa_chocolate.mp3,2020-06-25_12h07.32.988,TranslationElicitation_eng-prolific-spa,3.2.4,MacIntel,60,5eb9b011e926960deb4d6d91,,1,0,98,24,1,97
,,,,,,,,,,,,,,,,,,,,,,,,,,,,,,,,,,,,,,,,,return,4.534000158,CHOCOLATE,TRUE,,,,,,,27,chocolate,Spanish,Sounds/spa_chocolate.mp3,2020-06-25_12h07.32.988,TranslationElicitation_eng-prolific-spa,3.2.4,MacIntel,60,5eb9b011e926960deb4d6d91,4.534000158,1,0,98,24,1,97
,,,,,,,,,,,,,,,,,,,,,,,,,,,,,,,,,,,,,,,,,,,,,,,,,,,27,chocolate,Spanish,Sounds/spa_chocolate.mp3,2020-06-25_12h07.32.988,TranslationElicitation_eng-prolific-spa,3.2.4,MacIntel,60,5eb9b011e926960deb4d6d91,,1,0,98,24,1,97
,,,,,,,,,,,,,,,,,,,,,,,,,,,,,,,,,,,,,,,,,i,1.848999977,I,FALSE,,,,,,,61,mariposa,Spanish,Sounds/spa_mariposa.mp3,2020-06-25_12h07.32.988,TranslationElicitation_eng-prolific-spa,3.2.4,MacIntel,60,5eb9b011e926960deb4d6d91,,1,0,98,57,1,97
