consentKey.keys,consentKey.rt,languageL1Key.keys,languageL1Key.rt,languageL2,languageL2OralKey.keys,languageL2OralKey.rt,languageL2WrittenKey.keys,languageL2WrittenKey.rt,languageL3OralKey.keys,languageL3OralKey.rt,languageL3WrittenKey.keys,languageL3WrittenKey.rt,languageCatalanOralKey.keys,languageCatalanOralKey.rt,languageCatalanWrittenKey.keys,languageCatalanWrittenKey.rt,languageCatalanTimeKey.keys,languageCatalanTimeKey.rt,languageSpanishOralKey.keys,languageSpanishOralKey.rt,languageSpanishWrittenKey.keys,languageSpanishWrittenKey.rt,languageSpanishTimeKey.keys,languageSpanishTimeKey.rt,age,demoSexKey.keys,demoSexKey.rt,demoEducationKey.keys,demoEducationKey.rt,city,demoVisionKey.keys,demoVisionKey.rt,demoLanguageKey.keys,demoLanguageKey.rt,setupLocationKey.keys,setupLocationKey.rt,setupNoiseKey.keys,setupNoiseKey.rt,instructionsKeys.keys,instructionsKeys.rt,keyPressed,keyPressTime,inputText,error,trialsPracticeCatalan.thisRepN,trialsPracticeCatalan.thisTrialN,trialsPracticeCatalan.thisN,trialsPracticeCatalan.thisIndex,trialsPracticeCatalan.ran,trialsPracticeCatalan.order,trial_id,word,test_language,soundfile,date,expName,psychopyVersion,OS,frameRate,participant,trialOffset,trialsCatalan.thisRepN,trialsCatalan.thisTrialN,trialsCatalan.thisN,trialsCatalan.thisIndex,trialsCatalan.ran,trialsCatalan.order
space,1.095999718,e,1.299999952,,,,,,,,,,1,1.835999966,1,1.872999907,1,0.838999987,1,1.182999849,1,1.074999809,1,1.463999987,23,m,1.24399972,4,2.036000013,BIRMINGHAM,y,3.174999952,n,1.296999931,1,1.796999931,1,1.868999958,space,16.35500002,j,3.584000111,J,FALSE,1,0,5,2,1,4,147,jaqueta,Catalan,Sounds/cat_jaqueta.mp3,2020-06-05_17h09.45.594,TranslationElicitation_eng-prolific,3.2.4,Win32,60,5ebac91735226005282f48dd,,,,,,,
,,,,,,,,,,,,,,,,,,,,,,,,,,,,,,,,,,,,,,,,,a,3.700999975,JA,FALSE,1,0,5,2,1,4,147,jaqueta,Catalan,Sounds/cat_jaqueta.mp3,2020-06-05_17h09.45.594,TranslationElicitation_eng-prolific,3.2.4,Win32,60,5ebac91735226005282f48dd,,,,,,,
,,,,,,,,,,,,,,,,,,,,,,,,,,,,,,,,,,,,,,,,,c,3.900000095,JAC,FALSE,1,0,5,2,1,4,147,jaqueta,Catalan,Sounds/cat_jaqueta.mp3,2020-06-05_17h09.45.594,TranslationElicitation_eng-prolific,3.2.4,Win32,60,5ebac91735226005282f48dd,,,,,,,
,,,,,,,,,,,,,,,,,,,,,,,,,,,,,,,,,,,,,,,,,k,4,JACK,FALSE,1,0,5,2,1,4,147,jaqueta,Catalan,Sounds/cat_jaqueta.mp3,2020-06-05_17h09.45.594,TranslationElicitation_eng-prolific,3.2.4,Win32,60,5ebac91735226005282f48dd,,,,,,,
,,,,,,,,,,,,,,,,,,,,,,,,,,,,,,,,,,,,,,,,,e,4.101000071,JACKE,FALSE,1,0,5,2,1,4,147,jaqueta,Catalan,Sounds/cat_jaqueta.mp3,2020-06-05_17h09.45.594,TranslationElicitation_eng-prolific,3.2.4,Win32,60,5ebac91735226005282f48dd,,,,,,,
,,,,,,,,,,,,,,,,,,,,,,,,,,,,,,,,,,,,,,,,,t,4.316999912,JACKET,FALSE,1,0,5,2,1,4,147,jaqueta,Catalan,Sounds/cat_jaqueta.mp3,2020-06-05_17h09.45.594,TranslationElicitation_eng-prolific,3.2.4,Win32,60,5ebac91735226005282f48dd,,,,,,,
,,,,,,,,,,,,,,,,,,,,,,,,,,,,,,,,,,,,,,,,,return,5.015000105,JACKET,FALSE,1,0,5,2,1,4,147,jaqueta,Catalan,Sounds/cat_jaqueta.mp3,2020-06-05_17h09.45.594,TranslationElicitation_eng-prolific,3.2.4,Win32,60,5ebac91735226005282f48dd,5.015000105,,,,,,
,,,,,,,,,,,,,,,,,,,,,,,,,,,,,,,,,,,,,,,,,,,,,1,0,5,2,1,4,147,jaqueta,Catalan,Sounds/cat_jaqueta.mp3,2020-06-05_17h09.45.594,TranslationElicitation_eng-prolific,3.2.4,Win32,60,5ebac91735226005282f48dd,,,,,,,
,,,,,,,,,,,,,,,,,,,,,,,,,,,,,,,,,,,,,,,,,c,2.281000137,C,FALSE,1,0,5,0,1,4,109,arbre,Catalan,Sounds/cat_arbre.mp3,2020-06-05_17h09.45.594,TranslationElicitation_eng-prolific,3.2.4,Win32,60,5ebac91735226005282f48dd,,,,,,,
,,,,,,,,,,,,,,,,,,,,,,,,,,,,,,,,,,,,,,,,,m,2.667000055,CM,FALSE,1,0,5,0,1,4,109,arbre,Catalan,Sounds/cat_arbre.mp3,2020-06-05_17h09.45.594,TranslationElicitation_eng-prolific,3.2.4,Win32,60,5ebac91735226005282f48dd,,,,,,,
,,,,,,,,,,,,,,,,,,,,,,,,,,,,,,,,,,,,,,,,,backspace,2.98300004,C,TRUE,1,0,5,0,1,4,109,arbre,Catalan,Sounds/cat_arbre.mp3,2020-06-05_17h09.45.594,TranslationElicitation_eng-prolific,3.2.4,Win32,60,5ebac91735226005282f48dd,,,,,,,
,,,,,,,,,,,,,,,,,,,,,,,,,,,,,,,,,,,,,,,,,a,3.034000158,CA,TRUE,1,0,5,0,1,4,109,arbre,Catalan,Sounds/cat_arbre.mp3,2020-06-05_17h09.45.594,TranslationElicitation_eng-prolific,3.2.4,Win32,60,5ebac91735226005282f48dd,,,,,,,
,,,,,,,,,,,,,,,,,,,,,,,,,,,,,,,,,,,,,,,,,m,3.219000101,CAM,TRUE,1,0,5,0,1,4,109,arbre,Catalan,Sounds/cat_arbre.mp3,2020-06-05_17h09.45.594,TranslationElicitation_eng-prolific,3.2.4,Win32,60,5ebac91735226005282f48dd,,,,,,,
,,,,,,,,,,,,,,,,,,,,,,,,,,,,,,,,,,,,,,,,,e,3.299999952,CAME,TRUE,1,0,5,0,1,4,109,arbre,Catalan,Sounds/cat_arbre.mp3,2020-06-05_17h09.45.594,TranslationElicitation_eng-prolific,3.2.4,Win32,60,5ebac91735226005282f48dd,,,,,,,
,,,,,,,,,,,,,,,,,,,,,,,,,,,,,,,,,,,,,,,,,r,3.751000166,CAMER,TRUE,1,0,5,0,1,4,109,arbre,Catalan,Sounds/cat_arbre.mp3,2020-06-05_17h09.45.594,TranslationElicitation_eng-prolific,3.2.4,Win32,60,5ebac91735226005282f48dd,,,,,,,
,,,,,,,,,,,,,,,,,,,,,,,,,,,,,,,,,,,,,,,,,a,3.967999935,CAMERA,TRUE,1,0,5,0,1,4,109,arbre,Catalan,Sounds/cat_arbre.mp3,2020-06-05_17h09.45.594,TranslationElicitation_eng-prolific,3.2.4,Win32,60,5ebac91735226005282f48dd,,,,,,,
,,,,,,,,,,,,,,,,,,,,,,,,,,,,,,,,,,,,,,,,,return,4.100000143,CAMERA,TRUE,1,0,5,0,1,4,109,arbre,Catalan,Sounds/cat_arbre.mp3,2020-06-05_17h09.45.594,TranslationElicitation_eng-prolific,3.2.4,Win32,60,5ebac91735226005282f48dd,4.100000143,,,,,,
,,,,,,,,,,,,,,,,,,,,,,,,,,,,,,,,,,,,,,,,,,,,,1,0,5,0,1,4,109,arbre,Catalan,Sounds/cat_arbre.mp3,2020-06-05_17h09.45.594,TranslationElicitation_eng-prolific,3.2.4,Win32,60,5ebac91735226005282f48dd,,,,,,,
,,,,,,,,,,,,,,,,,,,,,,,,,,,,,,,,,,,,,,,,,c,1.684000015,C,FALSE,1,0,5,1,1,4,126,corona,Catalan,Sounds/cat_corona.mp3,2020-06-05_17h09.45.594,TranslationElicitation_eng-prolific,3.2.4,Win32,60,5ebac91735226005282f48dd,,,,,,,
,,,,,,,,,,,,,,,,,,,,,,,,,,,,,,,,,,,,,,,,,o,1.768000126,CO,FALSE,1,0,5,1,1,4,126,corona,Catalan,Sounds/cat_corona.mp3,2020-06-05_17h09.45.594,TranslationElicitation_eng-prolific,3.2.4,Win32,60,5ebac91735226005282f48dd,,,,,,,
,,,,,,,,,,,,,,,,,,,,,,,,,,,,,,,,,,,,,,,,,n,1.952000141,CON,FALSE,1,0,5,1,1,4,126,corona,Catalan,Sounds/cat_corona.mp3,2020-06-05_17h09.45.594,TranslationElicitation_eng-prolific,3.2.4,Win32,60,5ebac91735226005282f48dd,,,,,,,
,,,,,,,,,,,,,,,,,,,,,,,,,,,,,,,,,,,,,,,,,o,2.282999992,CONO,FALSE,1,0,5,1,1,4,126,corona,Catalan,Sounds/cat_corona.mp3,2020-06-05_17h09.45.594,TranslationElicitation_eng-prolific,3.2.4,Win32,60,5ebac91735226005282f48dd,,,,,,,
,,,,,,,,,,,,,,,,,,,,,,,,,,,,,,,,,,,,,,,,,backspace,3.018000126,CON,TRUE,1,0,5,1,1,4,126,corona,Catalan,Sounds/cat_corona.mp3,2020-06-05_17h09.45.594,TranslationElicitation_eng-prolific,3.2.4,Win32,60,5ebac91735226005282f48dd,,,,,,,
,,,,,,,,,,,,,,,,,,,,,,,,,,,,,,,,,,,,,,,,,backspace,3.23300004,CO,TRUE,1,0,5,1,1,4,126,corona,Catalan,Sounds/cat_corona.mp3,2020-06-05_17h09.45.594,TranslationElicitation_eng-prolific,3.2.4,Win32,60,5ebac91735226005282f48dd,,,,,,,
,,,,,,,,,,,,,,,,,,,,,,,,,,,,,,,,,,,,,,,,,r,3.333000183,COR,TRUE,1,0,5,1,1,4,126,corona,Catalan,Sounds/cat_corona.mp3,2020-06-05_17h09.45.594,TranslationElicitation_eng-prolific,3.2.4,Win32,60,5ebac91735226005282f48dd,,,,,,,
,,,,,,,,,,,,,,,,,,,,,,,,,,,,,,,,,,,,,,,,,o,3.48300004,CORO,TRUE,1,0,5,1,1,4,126,corona,Catalan,Sounds/cat_corona.mp3,2020-06-05_17h09.45.594,TranslationElicitation_eng-prolific,3.2.4,Win32,60,5ebac91735226005282f48dd,,,,,,,
,,,,,,,,,,,,,,,,,,,,,,,,,,,,,,,,,,,,,,,,,n,3.685000181,CORON,TRUE,1,0,5,1,1,4,126,corona,Catalan,Sounds/cat_corona.mp3,2020-06-05_17h09.45.594,TranslationElicitation_eng-prolific,3.2.4,Win32,60,5ebac91735226005282f48dd,,,,,,,
,,,,,,,,,,,,,,,,,,,,,,,,,,,,,,,,,,,,,,,,,a,3.802000046,CORONA,TRUE,1,0,5,1,1,4,126,corona,Catalan,Sounds/cat_corona.mp3,2020-06-05_17h09.45.594,TranslationElicitation_eng-prolific,3.2.4,Win32,60,5ebac91735226005282f48dd,,,,,,,
,,,,,,,,,,,,,,,,,,,,,,,,,,,,,,,,,,,,,,,,,return,4.185000181,CORONA,TRUE,1,0,5,1,1,4,126,corona,Catalan,Sounds/cat_corona.mp3,2020-06-05_17h09.45.594,TranslationElicitation_eng-prolific,3.2.4,Win32,60,5ebac91735226005282f48dd,4.185000181,,,,,,
,,,,,,,,,,,,,,,,,,,,,,,,,,,,,,,,,,,,,,,,,,,,,1,0,5,1,1,4,126,corona,Catalan,Sounds/cat_corona.mp3,2020-06-05_17h09.45.594,TranslationElicitation_eng-prolific,3.2.4,Win32,60,5ebac91735226005282f48dd,,,,,,,
,,,,,,,,,,,,,,,,,,,,,,,,,,,,,,,,,,,,,,,,,p,2.814999819,P,FALSE,1,0,5,3,1,4,159,onada,Catalan,Sounds/cat_onada.mp3,2020-06-05_17h09.45.594,TranslationElicitation_eng-prolific,3.2.4,Win32,60,5ebac91735226005282f48dd,,,,,,,
,,,,,,,,,,,,,,,,,,,,,,,,,,,,,,,,,,,,,,,,,a,3.014999866,PA,FALSE,1,0,5,3,1,4,159,onada,Catalan,Sounds/cat_onada.mp3,2020-06-05_17h09.45.594,TranslationElicitation_eng-prolific,3.2.4,Win32,60,5ebac91735226005282f48dd,,,,,,,
,,,,,,,,,,,,,,,,,,,,,,,,,,,,,,,,,,,,,,,,,n,3.165999889,PAN,FALSE,1,0,5,3,1,4,159,onada,Catalan,Sounds/cat_onada.mp3,2020-06-05_17h09.45.594,TranslationElicitation_eng-prolific,3.2.4,Win32,60,5ebac91735226005282f48dd,,,,,,,
,,,,,,,,,,,,,,,,,,,,,,,,,,,,,,,,,,,,,,,,,backspace,4.214999914,PA,TRUE,1,0,5,3,1,4,159,onada,Catalan,Sounds/cat_onada.mp3,2020-06-05_17h09.45.594,TranslationElicitation_eng-prolific,3.2.4,Win32,60,5ebac91735226005282f48dd,,,,,,,
,,,,,,,,,,,,,,,,,,,,,,,,,,,,,,,,,,,,,,,,,i,4.449999809,PAI,TRUE,1,0,5,3,1,4,159,onada,Catalan,Sounds/cat_onada.mp3,2020-06-05_17h09.45.594,TranslationElicitation_eng-prolific,3.2.4,Win32,60,5ebac91735226005282f48dd,,,,,,,
,,,,,,,,,,,,,,,,,,,,,,,,,,,,,,,,,,,,,,,,,n,4.632999897,PAIN,TRUE,1,0,5,3,1,4,159,onada,Catalan,Sounds/cat_onada.mp3,2020-06-05_17h09.45.594,TranslationElicitation_eng-prolific,3.2.4,Win32,60,5ebac91735226005282f48dd,,,,,,,
,,,,,,,,,,,,,,,,,,,,,,,,,,,,,,,,,,,,,,,,,t,4.732999802,PAINT,TRUE,1,0,5,3,1,4,159,onada,Catalan,Sounds/cat_onada.mp3,2020-06-05_17h09.45.594,TranslationElicitation_eng-prolific,3.2.4,Win32,60,5ebac91735226005282f48dd,,,,,,,
,,,,,,,,,,,,,,,,,,,,,,,,,,,,,,,,,,,,,,,,,return,5,PAINT,TRUE,1,0,5,3,1,4,159,onada,Catalan,Sounds/cat_onada.mp3,2020-06-05_17h09.45.594,TranslationElicitation_eng-prolific,3.2.4,Win32,60,5ebac91735226005282f48dd,5,,,,,,
,,,,,,,,,,,,,,,,,,,,,,,,,,,,,,,,,,,,,,,,,,,,,1,0,5,3,1,4,159,onada,Catalan,Sounds/cat_onada.mp3,2020-06-05_17h09.45.594,TranslationElicitation_eng-prolific,3.2.4,Win32,60,5ebac91735226005282f48dd,,,,,,,
,,,,,,,,,,,,,,,,,,,,,,,,,,,,,,,,,,,,,,,,,t,3.484999895,T,FALSE,1,0,5,4,1,4,179,tigre,Catalan,Sounds/cat_tigre.mp3,2020-06-05_17h09.45.594,TranslationElicitation_eng-prolific,3.2.4,Win32,60,5ebac91735226005282f48dd,,,,,,,
,,,,,,,,,,,,,,,,,,,,,,,,,,,,,,,,,,,,,,,,,h,4.351999998,TH,FALSE,1,0,5,4,1,4,179,tigre,Catalan,Sounds/cat_tigre.mp3,2020-06-05_17h09.45.594,TranslationElicitation_eng-prolific,3.2.4,Win32,60,5ebac91735226005282f48dd,,,,,,,
,,,,,,,,,,,,,,,,,,,,,,,,,,,,,,,,,,,,,,,,,backspace,5.085000038,T,TRUE,1,0,5,4,1,4,179,tigre,Catalan,Sounds/cat_tigre.mp3,2020-06-05_17h09.45.594,TranslationElicitation_eng-prolific,3.2.4,Win32,60,5ebac91735226005282f48dd,,,,,,,
,,,,,,,,,,,,,,,,,,,,,,,,,,,,,,,,,,,,,,,,,backspace,5.217999935,,TRUE,1,0,5,4,1,4,179,tigre,Catalan,Sounds/cat_tigre.mp3,2020-06-05_17h09.45.594,TranslationElicitation_eng-prolific,3.2.4,Win32,60,5ebac91735226005282f48dd,,,,,,,
,,,,,,,,,,,,,,,,,,,,,,,,,,,,,,,,,,,,,,,,,a,7.234999895,A,TRUE,1,0,5,4,1,4,179,tigre,Catalan,Sounds/cat_tigre.mp3,2020-06-05_17h09.45.594,TranslationElicitation_eng-prolific,3.2.4,Win32,60,5ebac91735226005282f48dd,,,,,,,
,,,,,,,,,,,,,,,,,,,,,,,,,,,,,,,,,,,,,,,,,l,7.333999872,AL,TRUE,1,0,5,4,1,4,179,tigre,Catalan,Sounds/cat_tigre.mp3,2020-06-05_17h09.45.594,TranslationElicitation_eng-prolific,3.2.4,Win32,60,5ebac91735226005282f48dd,,,,,,,
,,,,,,,,,,,,,,,,,,,,,,,,,,,,,,,,,,,,,,,,,l,7.469000101,ALL,TRUE,1,0,5,4,1,4,179,tigre,Catalan,Sounds/cat_tigre.mp3,2020-06-05_17h09.45.594,TranslationElicitation_eng-prolific,3.2.4,Win32,60,5ebac91735226005282f48dd,,,,,,,
,,,,,,,,,,,,,,,,,,,,,,,,,,,,,,,,,,,,,,,,,space,7.66899991,ALL ,TRUE,1,0,5,4,1,4,179,tigre,Catalan,Sounds/cat_tigre.mp3,2020-06-05_17h09.45.594,TranslationElicitation_eng-prolific,3.2.4,Win32,60,5ebac91735226005282f48dd,,,,,,,
,,,,,,,,,,,,,,,,,,,,,,,,,,,,,,,,,,,,,,,,,g,8.236000061,ALL G,TRUE,1,0,5,4,1,4,179,tigre,Catalan,Sounds/cat_tigre.mp3,2020-06-05_17h09.45.594,TranslationElicitation_eng-prolific,3.2.4,Win32,60,5ebac91735226005282f48dd,,,,,,,
,,,,,,,,,,,,,,,,,,,,,,,,,,,,,,,,,,,,,,,,,o,8.28399992,ALL GO,TRUE,1,0,5,4,1,4,179,tigre,Catalan,Sounds/cat_tigre.mp3,2020-06-05_17h09.45.594,TranslationElicitation_eng-prolific,3.2.4,Win32,60,5ebac91735226005282f48dd,,,,,,,
,,,,,,,,,,,,,,,,,,,,,,,,,,,,,,,,,,,,,,,,,o,8.43599987,ALL GOO,TRUE,1,0,5,4,1,4,179,tigre,Catalan,Sounds/cat_tigre.mp3,2020-06-05_17h09.45.594,TranslationElicitation_eng-prolific,3.2.4,Win32,60,5ebac91735226005282f48dd,,,,,,,
,,,,,,,,,,,,,,,,,,,,,,,,,,,,,,,,,,,,,,,,,d,8.500999928,ALL GOOD,TRUE,1,0,5,4,1,4,179,tigre,Catalan,Sounds/cat_tigre.mp3,2020-06-05_17h09.45.594,TranslationElicitation_eng-prolific,3.2.4,Win32,60,5ebac91735226005282f48dd,,,,,,,
,,,,,,,,,,,,,,,,,,,,,,,,,,,,,,,,,,,,,,,,,return,8.802999973,ALL GOOD,TRUE,1,0,5,4,1,4,179,tigre,Catalan,Sounds/cat_tigre.mp3,2020-06-05_17h09.45.594,TranslationElicitation_eng-prolific,3.2.4,Win32,60,5ebac91735226005282f48dd,8.802999973,,,,,,
,,,,,,,,,,,,,,,,,,,,,,,,,,,,,,,,,,,,,,,,,,,,,1,0,5,4,1,4,179,tigre,Catalan,Sounds/cat_tigre.mp3,2020-06-05_17h09.45.594,TranslationElicitation_eng-prolific,3.2.4,Win32,60,5ebac91735226005282f48dd,,,,,,,
,,,,,,,,,,,,,,,,,,,,,,,,,,,,,,,,,,,,,,,,,t,2.414000034,T,FALSE,,,,,,,182,tomaquet,Catalan,Sounds/cat_tomaquet.mp3,2020-06-05_17h09.45.594,TranslationElicitation_eng-prolific,3.2.4,Win32,60,5ebac91735226005282f48dd,,1,0,81,73,1,80
,,,,,,,,,,,,,,,,,,,,,,,,,,,,,,,,,,,,,,,,,o,2.649999857,TO,FALSE,,,,,,,182,tomaquet,Catalan,Sounds/cat_tomaquet.mp3,2020-06-05_17h09.45.594,TranslationElicitation_eng-prolific,3.2.4,Win32,60,5ebac91735226005282f48dd,,1,0,81,73,1,80
,,,,,,,,,,,,,,,,,,,,,,,,,,,,,,,,,,,,,,,,,m,2.832999945,TOM,FALSE,,,,,,,182,tomaquet,Catalan,Sounds/cat_tomaquet.mp3,2020-06-05_17h09.45.594,TranslationElicitation_eng-prolific,3.2.4,Win32,60,5ebac91735226005282f48dd,,1,0,81,73,1,80
,,,,,,,,,,,,,,,,,,,,,,,,,,,,,,,,,,,,,,,,,a,2.997999907,TOMA,FALSE,,,,,,,182,tomaquet,Catalan,Sounds/cat_tomaquet.mp3,2020-06-05_17h09.45.594,TranslationElicitation_eng-prolific,3.2.4,Win32,60,5ebac91735226005282f48dd,,1,0,81,73,1,80
,,,,,,,,,,,,,,,,,,,,,,,,,,,,,,,,,,,,,,,,,t,3.299999952,TOMAT,FALSE,,,,,,,182,tomaquet,Catalan,Sounds/cat_tomaquet.mp3,2020-06-05_17h09.45.594,TranslationElicitation_eng-prolific,3.2.4,Win32,60,5ebac91735226005282f48dd,,1,0,81,73,1,80
,,,,,,,,,,,,,,,,,,,,,,,,,,,,,,,,,,,,,,,,,o,3.383999825,TOMATO,FALSE,,,,,,,182,tomaquet,Catalan,Sounds/cat_tomaquet.mp3,2020-06-05_17h09.45.594,TranslationElicitation_eng-prolific,3.2.4,Win32,60,5ebac91735226005282f48dd,,1,0,81,73,1,80
,,,,,,,,,,,,,,,,,,,,,,,,,,,,,,,,,,,,,,,,,return,3.830999851,TOMATO,FALSE,,,,,,,182,tomaquet,Catalan,Sounds/cat_tomaquet.mp3,2020-06-05_17h09.45.594,TranslationElicitation_eng-prolific,3.2.4,Win32,60,5ebac91735226005282f48dd,3.830999851,1,0,81,73,1,80
,,,,,,,,,,,,,,,,,,,,,,,,,,,,,,,,,,,,,,,,,,,,,,,,,,,182,tomaquet,Catalan,Sounds/cat_tomaquet.mp3,2020-06-05_17h09.45.594,TranslationElicitation_eng-prolific,3.2.4,Win32,60,5ebac91735226005282f48dd,,1,0,81,73,1,80
,,,,,,,,,,,,,,,,,,,,,,,,,,,,,,,,,,,,,,,,,f,5.717999935,F,FALSE,,,,,,,136,forquilla,Catalan,Sounds/cat_forquilla.mp3,2020-06-05_17h09.45.594,TranslationElicitation_eng-prolific,3.2.4,Win32,60,5ebac91735226005282f48dd,,1,0,81,30,1,80
,,,,,,,,,,,,,,,,,,,,,,,,,,,,,,,,,,,,,,,,,u,6.0849998,FU,FALSE,,,,,,,136,forquilla,Catalan,Sounds/cat_forquilla.mp3,2020-06-05_17h09.45.594,TranslationElicitation_eng-prolific,3.2.4,Win32,60,5ebac91735226005282f48dd,,1,0,81,30,1,80
,,,,,,,,,,,,,,,,,,,,,,,,,,,,,,,,,,,,,,,,,r,6.201999903,FUR,FALSE,,,,,,,136,forquilla,Catalan,Sounds/cat_forquilla.mp3,2020-06-05_17h09.45.594,TranslationElicitation_eng-prolific,3.2.4,Win32,60,5ebac91735226005282f48dd,,1,0,81,30,1,80
,,,,,,,,,,,,,,,,,,,,,,,,,,,,,,,,,,,,,,,,,backspace,7.451999903,FU,TRUE,,,,,,,136,forquilla,Catalan,Sounds/cat_forquilla.mp3,2020-06-05_17h09.45.594,TranslationElicitation_eng-prolific,3.2.4,Win32,60,5ebac91735226005282f48dd,,1,0,81,30,1,80
,,,,,,,,,,,,,,,,,,,,,,,,,,,,,,,,,,,,,,,,,backspace,7.5849998,F,TRUE,,,,,,,136,forquilla,Catalan,Sounds/cat_forquilla.mp3,2020-06-05_17h09.45.594,TranslationElicitation_eng-prolific,3.2.4,Win32,60,5ebac91735226005282f48dd,,1,0,81,30,1,80
,,,,,,,,,,,,,,,,,,,,,,,,,,,,,,,,,,,,,,,,,backspace,8.018999815,,TRUE,,,,,,,136,forquilla,Catalan,Sounds/cat_forquilla.mp3,2020-06-05_17h09.45.594,TranslationElicitation_eng-prolific,3.2.4,Win32,60,5ebac91735226005282f48dd,,1,0,81,30,1,80
,,,,,,,,,,,,,,,,,,,,,,,,,,,,,,,,,,,,,,,,,k,12.51799989,K,TRUE,,,,,,,136,forquilla,Catalan,Sounds/cat_forquilla.mp3,2020-06-05_17h09.45.594,TranslationElicitation_eng-prolific,3.2.4,Win32,60,5ebac91735226005282f48dd,,1,0,81,30,1,80
,,,,,,,,,,,,,,,,,,,,,,,,,,,,,,,,,,,,,,,,,i,12.66699982,KI,TRUE,,,,,,,136,forquilla,Catalan,Sounds/cat_forquilla.mp3,2020-06-05_17h09.45.594,TranslationElicitation_eng-prolific,3.2.4,Win32,60,5ebac91735226005282f48dd,,1,0,81,30,1,80
,,,,,,,,,,,,,,,,,,,,,,,,,,,,,,,,,,,,,,,,,n,12.83299994,KIN,TRUE,,,,,,,136,forquilla,Catalan,Sounds/cat_forquilla.mp3,2020-06-05_17h09.45.594,TranslationElicitation_eng-prolific,3.2.4,Win32,60,5ebac91735226005282f48dd,,1,0,81,30,1,80
,,,,,,,,,,,,,,,,,,,,,,,,,,,,,,,,,,,,,,,,,d,12.93499994,KIND,TRUE,,,,,,,136,forquilla,Catalan,Sounds/cat_forquilla.mp3,2020-06-05_17h09.45.594,TranslationElicitation_eng-prolific,3.2.4,Win32,60,5ebac91735226005282f48dd,,1,0,81,30,1,80
,,,,,,,,,,,,,,,,,,,,,,,,,,,,,,,,,,,,,,,,,e,13.13499999,KINDE,TRUE,,,,,,,136,forquilla,Catalan,Sounds/cat_forquilla.mp3,2020-06-05_17h09.45.594,TranslationElicitation_eng-prolific,3.2.4,Win32,60,5ebac91735226005282f48dd,,1,0,81,30,1,80
,,,,,,,,,,,,,,,,,,,,,,,,,,,,,,,,,,,,,,,,,r,13.30199981,KINDER,TRUE,,,,,,,136,forquilla,Catalan,Sounds/cat_forquilla.mp3,2020-06-05_17h09.45.594,TranslationElicitation_eng-prolific,3.2.4,Win32,60,5ebac91735226005282f48dd,,1,0,81,30,1,80
,,,,,,,,,,,,,,,,,,,,,,,,,,,,,,,,,,,,,,,,,return,13.50199986,KINDER,TRUE,,,,,,,136,forquilla,Catalan,Sounds/cat_forquilla.mp3,2020-06-05_17h09.45.594,TranslationElicitation_eng-prolific,3.2.4,Win32,60,5ebac91735226005282f48dd,13.50199986,1,0,81,30,1,80
,,,,,,,,,,,,,,,,,,,,,,,,,,,,,,,,,,,,,,,,,,,,,,,,,,,136,forquilla,Catalan,Sounds/cat_forquilla.mp3,2020-06-05_17h09.45.594,TranslationElicitation_eng-prolific,3.2.4,Win32,60,5ebac91735226005282f48dd,,1,0,81,30,1,80
,,,,,,,,,,,,,,,,,,,,,,,,,,,,,,,,,,,,,,,,,y,13.96600008,Y,FALSE,,,,,,,105,aigua,Catalan,Sounds/cat_aigua.mp3,2020-06-05_17h09.45.594,TranslationElicitation_eng-prolific,3.2.4,Win32,60,5ebac91735226005282f48dd,,1,0,81,1,1,80
,,,,,,,,,,,,,,,,,,,,,,,,,,,,,,,,,,,,,,,,,backspace,14.63300014,,TRUE,,,,,,,105,aigua,Catalan,Sounds/cat_aigua.mp3,2020-06-05_17h09.45.594,TranslationElicitation_eng-prolific,3.2.4,Win32,60,5ebac91735226005282f48dd,,1,0,81,1,1,80
,,,,,,,,,,,,,,,,,,,,,,,,,,,,,,,,,,,,,,,,,y,15.898,Y,TRUE,,,,,,,105,aigua,Catalan,Sounds/cat_aigua.mp3,2020-06-05_17h09.45.594,TranslationElicitation_eng-prolific,3.2.4,Win32,60,5ebac91735226005282f48dd,,1,0,81,1,1,80
,,,,,,,,,,,,,,,,,,,,,,,,,,,,,,,,,,,,,,,,,o,16.20000005,YO,TRUE,,,,,,,105,aigua,Catalan,Sounds/cat_aigua.mp3,2020-06-05_17h09.45.594,TranslationElicitation_eng-prolific,3.2.4,Win32,60,5ebac91735226005282f48dd,,1,0,81,1,1,80
,,,,,,,,,,,,,,,,,,,,,,,,,,,,,,,,,,,,,,,,,backspace,16.73399997,Y,TRUE,,,,,,,105,aigua,Catalan,Sounds/cat_aigua.mp3,2020-06-05_17h09.45.594,TranslationElicitation_eng-prolific,3.2.4,Win32,60,5ebac91735226005282f48dd,,1,0,81,1,1,80
,,,,,,,,,,,,,,,,,,,,,,,,,,,,,,,,,,,,,,,,,backspace,16.83299994,,TRUE,,,,,,,105,aigua,Catalan,Sounds/cat_aigua.mp3,2020-06-05_17h09.45.594,TranslationElicitation_eng-prolific,3.2.4,Win32,60,5ebac91735226005282f48dd,,1,0,81,1,1,80
,,,,,,,,,,,,,,,,,,,,,,,,,,,,,,,,,,,,,,,,,f,17.91600013,F,TRUE,,,,,,,105,aigua,Catalan,Sounds/cat_aigua.mp3,2020-06-05_17h09.45.594,TranslationElicitation_eng-prolific,3.2.4,Win32,60,5ebac91735226005282f48dd,,1,0,81,1,1,80
,,,,,,,,,,,,,,,,,,,,,,,,,,,,,,,,,,,,,,,,,a,18.18400002,FA,TRUE,,,,,,,105,aigua,Catalan,Sounds/cat_aigua.mp3,2020-06-05_17h09.45.594,TranslationElicitation_eng-prolific,3.2.4,Win32,60,5ebac91735226005282f48dd,,1,0,81,1,1,80
,,,,,,,,,,,,,,,,,,,,,,,,,,,,,,,,,,,,,,,,,t,18.31500006,FAT,TRUE,,,,,,,105,aigua,Catalan,Sounds/cat_aigua.mp3,2020-06-05_17h09.45.594,TranslationElicitation_eng-prolific,3.2.4,Win32,60,5ebac91735226005282f48dd,,1,0,81,1,1,80
,,,,,,,,,,,,,,,,,,,,,,,,,,,,,,,,,,,,,,,,,backspace,18.96700001,FA,TRUE,,,,,,,105,aigua,Catalan,Sounds/cat_aigua.mp3,2020-06-05_17h09.45.594,TranslationElicitation_eng-prolific,3.2.4,Win32,60,5ebac91735226005282f48dd,,1,0,81,1,1,80
,,,,,,,,,,,,,,,,,,,,,,,,,,,,,,,,,,,,,,,,,backspace,19.11599994,F,TRUE,,,,,,,105,aigua,Catalan,Sounds/cat_aigua.mp3,2020-06-05_17h09.45.594,TranslationElicitation_eng-prolific,3.2.4,Win32,60,5ebac91735226005282f48dd,,1,0,81,1,1,80
,,,,,,,,,,,,,,,,,,,,,,,,,,,,,,,,,,,,,,,,,backspace,19.21700001,,TRUE,,,,,,,105,aigua,Catalan,Sounds/cat_aigua.mp3,2020-06-05_17h09.45.594,TranslationElicitation_eng-prolific,3.2.4,Win32,60,5ebac91735226005282f48dd,,1,0,81,1,1,80
,,,,,,,,,,,,,,,,,,,,,,,,,,,,,,,,,,,,,,,,,p,20.11599994,P,TRUE,,,,,,,105,aigua,Catalan,Sounds/cat_aigua.mp3,2020-06-05_17h09.45.594,TranslationElicitation_eng-prolific,3.2.4,Win32,60,5ebac91735226005282f48dd,,1,0,81,1,1,80
,,,,,,,,,,,,,,,,,,,,,,,,,,,,,,,,,,,,,,,,,a,20.29999995,PA,TRUE,,,,,,,105,aigua,Catalan,Sounds/cat_aigua.mp3,2020-06-05_17h09.45.594,TranslationElicitation_eng-prolific,3.2.4,Win32,60,5ebac91735226005282f48dd,,1,0,81,1,1,80
,,,,,,,,,,,,,,,,,,,,,,,,,,,,,,,,,,,,,,,,,p,20.38199997,PAP,TRUE,,,,,,,105,aigua,Catalan,Sounds/cat_aigua.mp3,2020-06-05_17h09.45.594,TranslationElicitation_eng-prolific,3.2.4,Win32,60,5ebac91735226005282f48dd,,1,0,81,1,1,80
,,,,,,,,,,,,,,,,,,,,,,,,,,,,,,,,,,,,,,,,,p,20.80100012,PAPP,TRUE,,,,,,,105,aigua,Catalan,Sounds/cat_aigua.mp3,2020-06-05_17h09.45.594,TranslationElicitation_eng-prolific,3.2.4,Win32,60,5ebac91735226005282f48dd,,1,0,81,1,1,80
,,,,,,,,,,,,,,,,,,,,,,,,,,,,,,,,,,,,,,,,,a,20.93200016,PAPPA,TRUE,,,,,,,105,aigua,Catalan,Sounds/cat_aigua.mp3,2020-06-05_17h09.45.594,TranslationElicitation_eng-prolific,3.2.4,Win32,60,5ebac91735226005282f48dd,,1,0,81,1,1,80
,,,,,,,,,,,,,,,,,,,,,,,,,,,,,,,,,,,,,,,,,backspace,21.55100012,PAPP,TRUE,,,,,,,105,aigua,Catalan,Sounds/cat_aigua.mp3,2020-06-05_17h09.45.594,TranslationElicitation_eng-prolific,3.2.4,Win32,60,5ebac91735226005282f48dd,,1,0,81,1,1,80
,,,,,,,,,,,,,,,,,,,,,,,,,,,,,,,,,,,,,,,,,backspace,21.69900012,PAP,TRUE,,,,,,,105,aigua,Catalan,Sounds/cat_aigua.mp3,2020-06-05_17h09.45.594,TranslationElicitation_eng-prolific,3.2.4,Win32,60,5ebac91735226005282f48dd,,1,0,81,1,1,80
,,,,,,,,,,,,,,,,,,,,,,,,,,,,,,,,,,,,,,,,,backspace,21.83400011,PA,TRUE,,,,,,,105,aigua,Catalan,Sounds/cat_aigua.mp3,2020-06-05_17h09.45.594,TranslationElicitation_eng-prolific,3.2.4,Win32,60,5ebac91735226005282f48dd,,1,0,81,1,1,80
,,,,,,,,,,,,,,,,,,,,,,,,,,,,,,,,,,,,,,,,,backspace,21.96700001,P,TRUE,,,,,,,105,aigua,Catalan,Sounds/cat_aigua.mp3,2020-06-05_17h09.45.594,TranslationElicitation_eng-prolific,3.2.4,Win32,60,5ebac91735226005282f48dd,,1,0,81,1,1,80
,,,,,,,,,,,,,,,,,,,,,,,,,,,,,,,,,,,,,,,,,backspace,22.09800005,,TRUE,,,,,,,105,aigua,Catalan,Sounds/cat_aigua.mp3,2020-06-05_17h09.45.594,TranslationElicitation_eng-prolific,3.2.4,Win32,60,5ebac91735226005282f48dd,,1,0,81,1,1,80
,,,,,,,,,,,,,,,,,,,,,,,,,,,,,,,,,,,,,,,,,c,27.14899993,C,TRUE,,,,,,,105,aigua,Catalan,Sounds/cat_aigua.mp3,2020-06-05_17h09.45.594,TranslationElicitation_eng-prolific,3.2.4,Win32,60,5ebac91735226005282f48dd,,1,0,81,1,1,80
,,,,,,,,,,,,,,,,,,,,,,,,,,,,,,,,,,,,,,,,,e,27.38199997,CE,TRUE,,,,,,,105,aigua,Catalan,Sounds/cat_aigua.mp3,2020-06-05_17h09.45.594,TranslationElicitation_eng-prolific,3.2.4,Win32,60,5ebac91735226005282f48dd,,1,0,81,1,1,80
,,,,,,,,,,,,,,,,,,,,,,,,,,,,,,,,,,,,,,,,,l,27.68400002,CEL,TRUE,,,,,,,105,aigua,Catalan,Sounds/cat_aigua.mp3,2020-06-05_17h09.45.594,TranslationElicitation_eng-prolific,3.2.4,Win32,60,5ebac91735226005282f48dd,,1,0,81,1,1,80
,,,,,,,,,,,,,,,,,,,,,,,,,,,,,,,,,,,,,,,,,e,27.80200005,CELE,TRUE,,,,,,,105,aigua,Catalan,Sounds/cat_aigua.mp3,2020-06-05_17h09.45.594,TranslationElicitation_eng-prolific,3.2.4,Win32,60,5ebac91735226005282f48dd,,1,0,81,1,1,80
,,,,,,,,,,,,,,,,,,,,,,,,,,,,,,,,,,,,,,,,,r,28.01800013,CELER,TRUE,,,,,,,105,aigua,Catalan,Sounds/cat_aigua.mp3,2020-06-05_17h09.45.594,TranslationElicitation_eng-prolific,3.2.4,Win32,60,5ebac91735226005282f48dd,,1,0,81,1,1,80
,,,,,,,,,,,,,,,,,,,,,,,,,,,,,,,,,,,,,,,,,t,28.26800013,CELERT,TRUE,,,,,,,105,aigua,Catalan,Sounds/cat_aigua.mp3,2020-06-05_17h09.45.594,TranslationElicitation_eng-prolific,3.2.4,Win32,60,5ebac91735226005282f48dd,,1,0,81,1,1,80
,,,,,,,,,,,,,,,,,,,,,,,,,,,,,,,,,,,,,,,,,y,28.40100002,CELERTY,TRUE,,,,,,,105,aigua,Catalan,Sounds/cat_aigua.mp3,2020-06-05_17h09.45.594,TranslationElicitation_eng-prolific,3.2.4,Win32,60,5ebac91735226005282f48dd,,1,0,81,1,1,80
,,,,,,,,,,,,,,,,,,,,,,,,,,,,,,,,,,,,,,,,,backspace,28.99900007,CELERT,TRUE,,,,,,,105,aigua,Catalan,Sounds/cat_aigua.mp3,2020-06-05_17h09.45.594,TranslationElicitation_eng-prolific,3.2.4,Win32,60,5ebac91735226005282f48dd,,1,0,81,1,1,80
,,,,,,,,,,,,,,,,,,,,,,,,,,,,,,,,,,,,,,,,,backspace,29.1500001,CELER,TRUE,,,,,,,105,aigua,Catalan,Sounds/cat_aigua.mp3,2020-06-05_17h09.45.594,TranslationElicitation_eng-prolific,3.2.4,Win32,60,5ebac91735226005282f48dd,,1,0,81,1,1,80
,,,,,,,,,,,,,,,,,,,,,,,,,,,,,,,,,,,,,,,,,y,30.36599994,CELERY,TRUE,,,,,,,105,aigua,Catalan,Sounds/cat_aigua.mp3,2020-06-05_17h09.45.594,TranslationElicitation_eng-prolific,3.2.4,Win32,60,5ebac91735226005282f48dd,,1,0,81,1,1,80
,,,,,,,,,,,,,,,,,,,,,,,,,,,,,,,,,,,,,,,,,return,31.54999995,CELERY,TRUE,,,,,,,105,aigua,Catalan,Sounds/cat_aigua.mp3,2020-06-05_17h09.45.594,TranslationElicitation_eng-prolific,3.2.4,Win32,60,5ebac91735226005282f48dd,31.54999995,1,0,81,1,1,80
,,,,,,,,,,,,,,,,,,,,,,,,,,,,,,,,,,,,,,,,,,,,,,,,,,,105,aigua,Catalan,Sounds/cat_aigua.mp3,2020-06-05_17h09.45.594,TranslationElicitation_eng-prolific,3.2.4,Win32,60,5ebac91735226005282f48dd,,1,0,81,1,1,80
,,,,,,,,,,,,,,,,,,,,,,,,,,,,,,,,,,,,,,,,,j,18.49899983,J,FALSE,,,,,,,141,gerd,Catalan,Sounds/cat_gerd.mp3,2020-06-05_17h09.45.594,TranslationElicitation_eng-prolific,3.2.4,Win32,60,5ebac91735226005282f48dd,,1,0,81,35,1,80
,,,,,,,,,,,,,,,,,,,,,,,,,,,,,,,,,,,,,,,,,e,18.76699996,JE,FALSE,,,,,,,141,gerd,Catalan,Sounds/cat_gerd.mp3,2020-06-05_17h09.45.594,TranslationElicitation_eng-prolific,3.2.4,Win32,60,5ebac91735226005282f48dd,,1,0,81,35,1,80
,,,,,,,,,,,,,,,,,,,,,,,,,,,,,,,,,,,,,,,,,r,18.98300004,JER,FALSE,,,,,,,141,gerd,Catalan,Sounds/cat_gerd.mp3,2020-06-05_17h09.45.594,TranslationElicitation_eng-prolific,3.2.4,Win32,60,5ebac91735226005282f48dd,,1,0,81,35,1,80
,,,,,,,,,,,,,,,,,,,,,,,,,,,,,,,,,,,,,,,,,r,19.10099983,JERR,FALSE,,,,,,,141,gerd,Catalan,Sounds/cat_gerd.mp3,2020-06-05_17h09.45.594,TranslationElicitation_eng-prolific,3.2.4,Win32,60,5ebac91735226005282f48dd,,1,0,81,35,1,80
,,,,,,,,,,,,,,,,,,,,,,,,,,,,,,,,,,,,,,,,,y,19.20099998,JERRY,FALSE,,,,,,,141,gerd,Catalan,Sounds/cat_gerd.mp3,2020-06-05_17h09.45.594,TranslationElicitation_eng-prolific,3.2.4,Win32,60,5ebac91735226005282f48dd,,1,0,81,35,1,80
,,,,,,,,,,,,,,,,,,,,,,,,,,,,,,,,,,,,,,,,,return,19.54999995,JERRY,FALSE,,,,,,,141,gerd,Catalan,Sounds/cat_gerd.mp3,2020-06-05_17h09.45.594,TranslationElicitation_eng-prolific,3.2.4,Win32,60,5ebac91735226005282f48dd,19.54999995,1,0,81,35,1,80
,,,,,,,,,,,,,,,,,,,,,,,,,,,,,,,,,,,,,,,,,,,,,,,,,,,141,gerd,Catalan,Sounds/cat_gerd.mp3,2020-06-05_17h09.45.594,TranslationElicitation_eng-prolific,3.2.4,Win32,60,5ebac91735226005282f48dd,,1,0,81,35,1,80
,,,,,,,,,,,,,,,,,,,,,,,,,,,,,,,,,,,,,,,,,f,3.26699996,F,FALSE,,,,,,,167,pingui,Catalan,Sounds/cat_pingui.mp3,2020-06-05_17h09.45.594,TranslationElicitation_eng-prolific,3.2.4,Win32,60,5ebac91735226005282f48dd,,1,0,81,59,1,80
,,,,,,,,,,,,,,,,,,,,,,,,,,,,,,,,,,,,,,,,,u,3.367000103,FU,FALSE,,,,,,,167,pingui,Catalan,Sounds/cat_pingui.mp3,2020-06-05_17h09.45.594,TranslationElicitation_eng-prolific,3.2.4,Win32,60,5ebac91735226005282f48dd,,1,0,81,59,1,80
,,,,,,,,,,,,,,,,,,,,,,,,,,,,,,,,,,,,,,,,,n,3.532000065,FUN,FALSE,,,,,,,167,pingui,Catalan,Sounds/cat_pingui.mp3,2020-06-05_17h09.45.594,TranslationElicitation_eng-prolific,3.2.4,Win32,60,5ebac91735226005282f48dd,,1,0,81,59,1,80
,,,,,,,,,,,,,,,,,,,,,,,,,,,,,,,,,,,,,,,,,return,3.900000095,FUN,FALSE,,,,,,,167,pingui,Catalan,Sounds/cat_pingui.mp3,2020-06-05_17h09.45.594,TranslationElicitation_eng-prolific,3.2.4,Win32,60,5ebac91735226005282f48dd,3.900000095,1,0,81,59,1,80
,,,,,,,,,,,,,,,,,,,,,,,,,,,,,,,,,,,,,,,,,,,,,,,,,,,167,pingui,Catalan,Sounds/cat_pingui.mp3,2020-06-05_17h09.45.594,TranslationElicitation_eng-prolific,3.2.4,Win32,60,5ebac91735226005282f48dd,,1,0,81,59,1,80
,,,,,,,,,,,,,,,,,,,,,,,,,,,,,,,,,,,,,,,,,c,1.551000118,C,FALSE,,,,,,,127,cotxe,Catalan,Sounds/cat_cotxe.mp3,2020-06-05_17h09.45.594,TranslationElicitation_eng-prolific,3.2.4,Win32,60,5ebac91735226005282f48dd,,1,0,81,21,1,80
,,,,,,,,,,,,,,,,,,,,,,,,,,,,,,,,,,,,,,,,,o,2.335999966,CO,FALSE,,,,,,,127,cotxe,Catalan,Sounds/cat_cotxe.mp3,2020-06-05_17h09.45.594,TranslationElicitation_eng-prolific,3.2.4,Win32,60,5ebac91735226005282f48dd,,1,0,81,21,1,80
,,,,,,,,,,,,,,,,,,,,,,,,,,,,,,,,,,,,,,,,,a,2.450000048,COA,FALSE,,,,,,,127,cotxe,Catalan,Sounds/cat_cotxe.mp3,2020-06-05_17h09.45.594,TranslationElicitation_eng-prolific,3.2.4,Win32,60,5ebac91735226005282f48dd,,1,0,81,21,1,80
,,,,,,,,,,,,,,,,,,,,,,,,,,,,,,,,,,,,,,,,,c,2.750999928,COAC,FALSE,,,,,,,127,cotxe,Catalan,Sounds/cat_cotxe.mp3,2020-06-05_17h09.45.594,TranslationElicitation_eng-prolific,3.2.4,Win32,60,5ebac91735226005282f48dd,,1,0,81,21,1,80
,,,,,,,,,,,,,,,,,,,,,,,,,,,,,,,,,,,,,,,,,h,2.835999966,COACH,FALSE,,,,,,,127,cotxe,Catalan,Sounds/cat_cotxe.mp3,2020-06-05_17h09.45.594,TranslationElicitation_eng-prolific,3.2.4,Win32,60,5ebac91735226005282f48dd,,1,0,81,21,1,80
,,,,,,,,,,,,,,,,,,,,,,,,,,,,,,,,,,,,,,,,,return,3.282999992,COACH,FALSE,,,,,,,127,cotxe,Catalan,Sounds/cat_cotxe.mp3,2020-06-05_17h09.45.594,TranslationElicitation_eng-prolific,3.2.4,Win32,60,5ebac91735226005282f48dd,3.282999992,1,0,81,21,1,80
,,,,,,,,,,,,,,,,,,,,,,,,,,,,,,,,,,,,,,,,,,,,,,,,,,,127,cotxe,Catalan,Sounds/cat_cotxe.mp3,2020-06-05_17h09.45.594,TranslationElicitation_eng-prolific,3.2.4,Win32,60,5ebac91735226005282f48dd,,1,0,81,21,1,80
,,,,,,,,,,,,,,,,,,,,,,,,,,,,,,,,,,,,,,,,,l,2.450000048,L,FALSE,,,,,,,148,lleo,Catalan,Sounds/cat_lleo.mp3,2020-06-05_17h09.45.594,TranslationElicitation_eng-prolific,3.2.4,Win32,60,5ebac91735226005282f48dd,,1,0,81,41,1,80
,,,,,,,,,,,,,,,,,,,,,,,,,,,,,,,,,,,,,,,,,o,2.765000105,LO,FALSE,,,,,,,148,lleo,Catalan,Sounds/cat_lleo.mp3,2020-06-05_17h09.45.594,TranslationElicitation_eng-prolific,3.2.4,Win32,60,5ebac91735226005282f48dd,,1,0,81,41,1,80
,,,,,,,,,,,,,,,,,,,,,,,,,,,,,,,,,,,,,,,,,u,3.01699996,LOU,FALSE,,,,,,,148,lleo,Catalan,Sounds/cat_lleo.mp3,2020-06-05_17h09.45.594,TranslationElicitation_eng-prolific,3.2.4,Win32,60,5ebac91735226005282f48dd,,1,0,81,41,1,80
,,,,,,,,,,,,,,,,,,,,,,,,,,,,,,,,,,,,,,,,,d,3.21600008,LOUD,FALSE,,,,,,,148,lleo,Catalan,Sounds/cat_lleo.mp3,2020-06-05_17h09.45.594,TranslationElicitation_eng-prolific,3.2.4,Win32,60,5ebac91735226005282f48dd,,1,0,81,41,1,80
,,,,,,,,,,,,,,,,,,,,,,,,,,,,,,,,,,,,,,,,,return,3.648999929,LOUD,FALSE,,,,,,,148,lleo,Catalan,Sounds/cat_lleo.mp3,2020-06-05_17h09.45.594,TranslationElicitation_eng-prolific,3.2.4,Win32,60,5ebac91735226005282f48dd,3.648999929,1,0,81,41,1,80
,,,,,,,,,,,,,,,,,,,,,,,,,,,,,,,,,,,,,,,,,,,,,,,,,,,148,lleo,Catalan,Sounds/cat_lleo.mp3,2020-06-05_17h09.45.594,TranslationElicitation_eng-prolific,3.2.4,Win32,60,5ebac91735226005282f48dd,,1,0,81,41,1,80
,,,,,,,,,,,,,,,,,,,,,,,,,,,,,,,,,,,,,,,,,l,5.901000023,L,FALSE,,,,,,,151,lluna,Catalan,Sounds/cat_lluna.mp3,2020-06-05_17h09.45.594,TranslationElicitation_eng-prolific,3.2.4,Win32,60,5ebac91735226005282f48dd,,1,0,81,44,1,80
,,,,,,,,,,,,,,,,,,,,,,,,,,,,,,,,,,,,,,,,,u,6.101000071,LU,FALSE,,,,,,,151,lluna,Catalan,Sounds/cat_lluna.mp3,2020-06-05_17h09.45.594,TranslationElicitation_eng-prolific,3.2.4,Win32,60,5ebac91735226005282f48dd,,1,0,81,44,1,80
,,,,,,,,,,,,,,,,,,,,,,,,,,,,,,,,,,,,,,,,,n,6.284000158,LUN,FALSE,,,,,,,151,lluna,Catalan,Sounds/cat_lluna.mp3,2020-06-05_17h09.45.594,TranslationElicitation_eng-prolific,3.2.4,Win32,60,5ebac91735226005282f48dd,,1,0,81,44,1,80
,,,,,,,,,,,,,,,,,,,,,,,,,,,,,,,,,,,,,,,,,a,6.417999983,LUNA,FALSE,,,,,,,151,lluna,Catalan,Sounds/cat_lluna.mp3,2020-06-05_17h09.45.594,TranslationElicitation_eng-prolific,3.2.4,Win32,60,5ebac91735226005282f48dd,,1,0,81,44,1,80
,,,,,,,,,,,,,,,,,,,,,,,,,,,,,,,,,,,,,,,,,r,6.582000017,LUNAR,FALSE,,,,,,,151,lluna,Catalan,Sounds/cat_lluna.mp3,2020-06-05_17h09.45.594,TranslationElicitation_eng-prolific,3.2.4,Win32,60,5ebac91735226005282f48dd,,1,0,81,44,1,80
,,,,,,,,,,,,,,,,,,,,,,,,,,,,,,,,,,,,,,,,,return,6.999000072,LUNAR,FALSE,,,,,,,151,lluna,Catalan,Sounds/cat_lluna.mp3,2020-06-05_17h09.45.594,TranslationElicitation_eng-prolific,3.2.4,Win32,60,5ebac91735226005282f48dd,6.999000072,1,0,81,44,1,80
,,,,,,,,,,,,,,,,,,,,,,,,,,,,,,,,,,,,,,,,,,,,,,,,,,,151,lluna,Catalan,Sounds/cat_lluna.mp3,2020-06-05_17h09.45.594,TranslationElicitation_eng-prolific,3.2.4,Win32,60,5ebac91735226005282f48dd,,1,0,81,44,1,80
,,,,,,,,,,,,,,,,,,,,,,,,,,,,,,,,,,,,,,,,,g,3.633999825,G,FALSE,,,,,,,140,gat,Catalan,Sounds/cat_gat.mp3,2020-06-05_17h09.45.594,TranslationElicitation_eng-prolific,3.2.4,Win32,60,5ebac91735226005282f48dd,,1,0,81,34,1,80
,,,,,,,,,,,,,,,,,,,,,,,,,,,,,,,,,,,,,,,,,i,3.883999825,GI,FALSE,,,,,,,140,gat,Catalan,Sounds/cat_gat.mp3,2020-06-05_17h09.45.594,TranslationElicitation_eng-prolific,3.2.4,Win32,60,5ebac91735226005282f48dd,,1,0,81,34,1,80
,,,,,,,,,,,,,,,,,,,,,,,,,,,,,,,,,,,,,,,,,backspace,4.434000015,G,TRUE,,,,,,,140,gat,Catalan,Sounds/cat_gat.mp3,2020-06-05_17h09.45.594,TranslationElicitation_eng-prolific,3.2.4,Win32,60,5ebac91735226005282f48dd,,1,0,81,34,1,80
,,,,,,,,,,,,,,,,,,,,,,,,,,,,,,,,,,,,,,,,,o,4.648999929,GO,TRUE,,,,,,,140,gat,Catalan,Sounds/cat_gat.mp3,2020-06-05_17h09.45.594,TranslationElicitation_eng-prolific,3.2.4,Win32,60,5ebac91735226005282f48dd,,1,0,81,34,1,80
,,,,,,,,,,,,,,,,,,,,,,,,,,,,,,,,,,,,,,,,,d,4.814999819,GOD,TRUE,,,,,,,140,gat,Catalan,Sounds/cat_gat.mp3,2020-06-05_17h09.45.594,TranslationElicitation_eng-prolific,3.2.4,Win32,60,5ebac91735226005282f48dd,,1,0,81,34,1,80
,,,,,,,,,,,,,,,,,,,,,,,,,,,,,,,,,,,,,,,,,return,7.631999969,GOD,TRUE,,,,,,,140,gat,Catalan,Sounds/cat_gat.mp3,2020-06-05_17h09.45.594,TranslationElicitation_eng-prolific,3.2.4,Win32,60,5ebac91735226005282f48dd,7.631999969,1,0,81,34,1,80
,,,,,,,,,,,,,,,,,,,,,,,,,,,,,,,,,,,,,,,,,,,,,,,,,,,140,gat,Catalan,Sounds/cat_gat.mp3,2020-06-05_17h09.45.594,TranslationElicitation_eng-prolific,3.2.4,Win32,60,5ebac91735226005282f48dd,,1,0,81,34,1,80
,,,,,,,,,,,,,,,,,,,,,,,,,,,,,,,,,,,,,,,,,h,3.73300004,H,FALSE,,,,,,,108,ampolla,Catalan,Sounds/cat_ampolla.mp3,2020-06-05_17h09.45.594,TranslationElicitation_eng-prolific,3.2.4,Win32,60,5ebac91735226005282f48dd,,1,0,81,4,1,80
,,,,,,,,,,,,,,,,,,,,,,,,,,,,,,,,,,,,,,,,,u,3.898000002,HU,FALSE,,,,,,,108,ampolla,Catalan,Sounds/cat_ampolla.mp3,2020-06-05_17h09.45.594,TranslationElicitation_eng-prolific,3.2.4,Win32,60,5ebac91735226005282f48dd,,1,0,81,4,1,80
,,,,,,,,,,,,,,,,,,,,,,,,,,,,,,,,,,,,,,,,,m,4.132000208,HUM,FALSE,,,,,,,108,ampolla,Catalan,Sounds/cat_ampolla.mp3,2020-06-05_17h09.45.594,TranslationElicitation_eng-prolific,3.2.4,Win32,60,5ebac91735226005282f48dd,,1,0,81,4,1,80
,,,,,,,,,,,,,,,,,,,,,,,,,,,,,,,,,,,,,,,,,b,4.71600008,HUMB,FALSE,,,,,,,108,ampolla,Catalan,Sounds/cat_ampolla.mp3,2020-06-05_17h09.45.594,TranslationElicitation_eng-prolific,3.2.4,Win32,60,5ebac91735226005282f48dd,,1,0,81,4,1,80
,,,,,,,,,,,,,,,,,,,,,,,,,,,,,,,,,,,,,,,,,backspace,5.516000032,HUM,TRUE,,,,,,,108,ampolla,Catalan,Sounds/cat_ampolla.mp3,2020-06-05_17h09.45.594,TranslationElicitation_eng-prolific,3.2.4,Win32,60,5ebac91735226005282f48dd,,1,0,81,4,1,80
,,,,,,,,,,,,,,,,,,,,,,,,,,,,,,,,,,,,,,,,,backspace,5.68200016,HU,TRUE,,,,,,,108,ampolla,Catalan,Sounds/cat_ampolla.mp3,2020-06-05_17h09.45.594,TranslationElicitation_eng-prolific,3.2.4,Win32,60,5ebac91735226005282f48dd,,1,0,81,4,1,80
,,,,,,,,,,,,,,,,,,,,,,,,,,,,,,,,,,,,,,,,,m,6.898000002,HUM,TRUE,,,,,,,108,ampolla,Catalan,Sounds/cat_ampolla.mp3,2020-06-05_17h09.45.594,TranslationElicitation_eng-prolific,3.2.4,Win32,60,5ebac91735226005282f48dd,,1,0,81,4,1,80
,,,,,,,,,,,,,,,,,,,,,,,,,,,,,,,,,,,,,,,,,p,7.100000143,HUMP,TRUE,,,,,,,108,ampolla,Catalan,Sounds/cat_ampolla.mp3,2020-06-05_17h09.45.594,TranslationElicitation_eng-prolific,3.2.4,Win32,60,5ebac91735226005282f48dd,,1,0,81,4,1,80
,,,,,,,,,,,,,,,,,,,,,,,,,,,,,,,,,,,,,,,,,return,7.649000168,HUMP,TRUE,,,,,,,108,ampolla,Catalan,Sounds/cat_ampolla.mp3,2020-06-05_17h09.45.594,TranslationElicitation_eng-prolific,3.2.4,Win32,60,5ebac91735226005282f48dd,7.649000168,1,0,81,4,1,80
,,,,,,,,,,,,,,,,,,,,,,,,,,,,,,,,,,,,,,,,,,,,,,,,,,,108,ampolla,Catalan,Sounds/cat_ampolla.mp3,2020-06-05_17h09.45.594,TranslationElicitation_eng-prolific,3.2.4,Win32,60,5ebac91735226005282f48dd,,1,0,81,4,1,80
,,,,,,,,,,,,,,,,,,,,,,,,,,,,,,,,,,,,,,,,,h,6.53399992,H,FALSE,,,,,,,176,samarreta,Catalan,Sounds/cat_samarreta.mp3,2020-06-05_17h09.45.594,TranslationElicitation_eng-prolific,3.2.4,Win32,60,5ebac91735226005282f48dd,,1,0,81,68,1,80
,,,,,,,,,,,,,,,,,,,,,,,,,,,,,,,,,,,,,,,,,a,6.650000095,HA,FALSE,,,,,,,176,samarreta,Catalan,Sounds/cat_samarreta.mp3,2020-06-05_17h09.45.594,TranslationElicitation_eng-prolific,3.2.4,Win32,60,5ebac91735226005282f48dd,,1,0,81,68,1,80
,,,,,,,,,,,,,,,,,,,,,,,,,,,,,,,,,,,,,,,,,t,6.799999952,HAT,FALSE,,,,,,,176,samarreta,Catalan,Sounds/cat_samarreta.mp3,2020-06-05_17h09.45.594,TranslationElicitation_eng-prolific,3.2.4,Win32,60,5ebac91735226005282f48dd,,1,0,81,68,1,80
,,,,,,,,,,,,,,,,,,,,,,,,,,,,,,,,,,,,,,,,,backspace,7.632999897,HA,TRUE,,,,,,,176,samarreta,Catalan,Sounds/cat_samarreta.mp3,2020-06-05_17h09.45.594,TranslationElicitation_eng-prolific,3.2.4,Win32,60,5ebac91735226005282f48dd,,1,0,81,68,1,80
,,,,,,,,,,,,,,,,,,,,,,,,,,,,,,,,,,,,,,,,,backspace,7.799999952,H,TRUE,,,,,,,176,samarreta,Catalan,Sounds/cat_samarreta.mp3,2020-06-05_17h09.45.594,TranslationElicitation_eng-prolific,3.2.4,Win32,60,5ebac91735226005282f48dd,,1,0,81,68,1,80
,,,,,,,,,,,,,,,,,,,,,,,,,,,,,,,,,,,,,,,,,backspace,7.916000128,,TRUE,,,,,,,176,samarreta,Catalan,Sounds/cat_samarreta.mp3,2020-06-05_17h09.45.594,TranslationElicitation_eng-prolific,3.2.4,Win32,60,5ebac91735226005282f48dd,,1,0,81,68,1,80
,,,,,,,,,,,,,,,,,,,,,,,,,,,,,,,,,,,,,,,,,s,12.21700001,S,TRUE,,,,,,,176,samarreta,Catalan,Sounds/cat_samarreta.mp3,2020-06-05_17h09.45.594,TranslationElicitation_eng-prolific,3.2.4,Win32,60,5ebac91735226005282f48dd,,1,0,81,68,1,80
,,,,,,,,,,,,,,,,,,,,,,,,,,,,,,,,,,,,,,,,,o,12.5,SO,TRUE,,,,,,,176,samarreta,Catalan,Sounds/cat_samarreta.mp3,2020-06-05_17h09.45.594,TranslationElicitation_eng-prolific,3.2.4,Win32,60,5ebac91735226005282f48dd,,1,0,81,68,1,80
,,,,,,,,,,,,,,,,,,,,,,,,,,,,,,,,,,,,,,,,,backspace,12.90100002,S,TRUE,,,,,,,176,samarreta,Catalan,Sounds/cat_samarreta.mp3,2020-06-05_17h09.45.594,TranslationElicitation_eng-prolific,3.2.4,Win32,60,5ebac91735226005282f48dd,,1,0,81,68,1,80
,,,,,,,,,,,,,,,,,,,,,,,,,,,,,,,,,,,,,,,,,backspace,13.03299999,,TRUE,,,,,,,176,samarreta,Catalan,Sounds/cat_samarreta.mp3,2020-06-05_17h09.45.594,TranslationElicitation_eng-prolific,3.2.4,Win32,60,5ebac91735226005282f48dd,,1,0,81,68,1,80
,,,,,,,,,,,,,,,,,,,,,,,,,,,,,,,,,,,,,,,,,l,14.33200002,L,TRUE,,,,,,,176,samarreta,Catalan,Sounds/cat_samarreta.mp3,2020-06-05_17h09.45.594,TranslationElicitation_eng-prolific,3.2.4,Win32,60,5ebac91735226005282f48dd,,1,0,81,68,1,80
,,,,,,,,,,,,,,,,,,,,,,,,,,,,,,,,,,,,,,,,,a,14.46499991,LA,TRUE,,,,,,,176,samarreta,Catalan,Sounds/cat_samarreta.mp3,2020-06-05_17h09.45.594,TranslationElicitation_eng-prolific,3.2.4,Win32,60,5ebac91735226005282f48dd,,1,0,81,68,1,80
,,,,,,,,,,,,,,,,,,,,,,,,,,,,,,,,,,,,,,,,,r,14.68400002,LAR,TRUE,,,,,,,176,samarreta,Catalan,Sounds/cat_samarreta.mp3,2020-06-05_17h09.45.594,TranslationElicitation_eng-prolific,3.2.4,Win32,60,5ebac91735226005282f48dd,,1,0,81,68,1,80
,,,,,,,,,,,,,,,,,,,,,,,,,,,,,,,,,,,,,,,,,g,14.80100012,LARG,TRUE,,,,,,,176,samarreta,Catalan,Sounds/cat_samarreta.mp3,2020-06-05_17h09.45.594,TranslationElicitation_eng-prolific,3.2.4,Win32,60,5ebac91735226005282f48dd,,1,0,81,68,1,80
,,,,,,,,,,,,,,,,,,,,,,,,,,,,,,,,,,,,,,,,,e,14.90100002,LARGE,TRUE,,,,,,,176,samarreta,Catalan,Sounds/cat_samarreta.mp3,2020-06-05_17h09.45.594,TranslationElicitation_eng-prolific,3.2.4,Win32,60,5ebac91735226005282f48dd,,1,0,81,68,1,80
,,,,,,,,,,,,,,,,,,,,,,,,,,,,,,,,,,,,,,,,,space,15.06599998,LARGE ,TRUE,,,,,,,176,samarreta,Catalan,Sounds/cat_samarreta.mp3,2020-06-05_17h09.45.594,TranslationElicitation_eng-prolific,3.2.4,Win32,60,5ebac91735226005282f48dd,,1,0,81,68,1,80
,,,,,,,,,,,,,,,,,,,,,,,,,,,,,,,,,,,,,,,,,h,15.38199997,LARGE H,TRUE,,,,,,,176,samarreta,Catalan,Sounds/cat_samarreta.mp3,2020-06-05_17h09.45.594,TranslationElicitation_eng-prolific,3.2.4,Win32,60,5ebac91735226005282f48dd,,1,0,81,68,1,80
,,,,,,,,,,,,,,,,,,,,,,,,,,,,,,,,,,,,,,,,,a,15.45000005,LARGE HA,TRUE,,,,,,,176,samarreta,Catalan,Sounds/cat_samarreta.mp3,2020-06-05_17h09.45.594,TranslationElicitation_eng-prolific,3.2.4,Win32,60,5ebac91735226005282f48dd,,1,0,81,68,1,80
,,,,,,,,,,,,,,,,,,,,,,,,,,,,,,,,,,,,,,,,,t,15.56599998,LARGE HAT,TRUE,,,,,,,176,samarreta,Catalan,Sounds/cat_samarreta.mp3,2020-06-05_17h09.45.594,TranslationElicitation_eng-prolific,3.2.4,Win32,60,5ebac91735226005282f48dd,,1,0,81,68,1,80
,,,,,,,,,,,,,,,,,,,,,,,,,,,,,,,,,,,,,,,,,return,15.93400002,LARGE HAT,TRUE,,,,,,,176,samarreta,Catalan,Sounds/cat_samarreta.mp3,2020-06-05_17h09.45.594,TranslationElicitation_eng-prolific,3.2.4,Win32,60,5ebac91735226005282f48dd,15.93400002,1,0,81,68,1,80
,,,,,,,,,,,,,,,,,,,,,,,,,,,,,,,,,,,,,,,,,,,,,,,,,,,176,samarreta,Catalan,Sounds/cat_samarreta.mp3,2020-06-05_17h09.45.594,TranslationElicitation_eng-prolific,3.2.4,Win32,60,5ebac91735226005282f48dd,,1,0,81,68,1,80
,,,,,,,,,,,,,,,,,,,,,,,,,,,,,,,,,,,,,,,,,l,1.782999992,L,FALSE,,,,,,,170,ploma,Catalan,Sounds/cat_ploma.mp3,2020-06-05_17h09.45.594,TranslationElicitation_eng-prolific,3.2.4,Win32,60,5ebac91735226005282f48dd,,1,0,81,62,1,80
,,,,,,,,,,,,,,,,,,,,,,,,,,,,,,,,,,,,,,,,,i,1.950000048,LI,FALSE,,,,,,,170,ploma,Catalan,Sounds/cat_ploma.mp3,2020-06-05_17h09.45.594,TranslationElicitation_eng-prolific,3.2.4,Win32,60,5ebac91735226005282f48dd,,1,0,81,62,1,80
,,,,,,,,,,,,,,,,,,,,,,,,,,,,,,,,,,,,,,,,,g,2.532999992,LIG,FALSE,,,,,,,170,ploma,Catalan,Sounds/cat_ploma.mp3,2020-06-05_17h09.45.594,TranslationElicitation_eng-prolific,3.2.4,Win32,60,5ebac91735226005282f48dd,,1,0,81,62,1,80
,,,,,,,,,,,,,,,,,,,,,,,,,,,,,,,,,,,,,,,,,h,2.648000002,LIGH,FALSE,,,,,,,170,ploma,Catalan,Sounds/cat_ploma.mp3,2020-06-05_17h09.45.594,TranslationElicitation_eng-prolific,3.2.4,Win32,60,5ebac91735226005282f48dd,,1,0,81,62,1,80
,,,,,,,,,,,,,,,,,,,,,,,,,,,,,,,,,,,,,,,,,t,3.066999912,LIGHT,FALSE,,,,,,,170,ploma,Catalan,Sounds/cat_ploma.mp3,2020-06-05_17h09.45.594,TranslationElicitation_eng-prolific,3.2.4,Win32,60,5ebac91735226005282f48dd,,1,0,81,62,1,80
,,,,,,,,,,,,,,,,,,,,,,,,,,,,,,,,,,,,,,,,,backspace,4.417000055,LIGH,TRUE,,,,,,,170,ploma,Catalan,Sounds/cat_ploma.mp3,2020-06-05_17h09.45.594,TranslationElicitation_eng-prolific,3.2.4,Win32,60,5ebac91735226005282f48dd,,1,0,81,62,1,80
,,,,,,,,,,,,,,,,,,,,,,,,,,,,,,,,,,,,,,,,,backspace,4.566999912,LIG,TRUE,,,,,,,170,ploma,Catalan,Sounds/cat_ploma.mp3,2020-06-05_17h09.45.594,TranslationElicitation_eng-prolific,3.2.4,Win32,60,5ebac91735226005282f48dd,,1,0,81,62,1,80
,,,,,,,,,,,,,,,,,,,,,,,,,,,,,,,,,,,,,,,,,backspace,4.634000063,LI,TRUE,,,,,,,170,ploma,Catalan,Sounds/cat_ploma.mp3,2020-06-05_17h09.45.594,TranslationElicitation_eng-prolific,3.2.4,Win32,60,5ebac91735226005282f48dd,,1,0,81,62,1,80
,,,,,,,,,,,,,,,,,,,,,,,,,,,,,,,,,,,,,,,,,backspace,4.765000105,L,TRUE,,,,,,,170,ploma,Catalan,Sounds/cat_ploma.mp3,2020-06-05_17h09.45.594,TranslationElicitation_eng-prolific,3.2.4,Win32,60,5ebac91735226005282f48dd,,1,0,81,62,1,80
,,,,,,,,,,,,,,,,,,,,,,,,,,,,,,,,,,,,,,,,,backspace,4.931999922,,TRUE,,,,,,,170,ploma,Catalan,Sounds/cat_ploma.mp3,2020-06-05_17h09.45.594,TranslationElicitation_eng-prolific,3.2.4,Win32,60,5ebac91735226005282f48dd,,1,0,81,62,1,80
,,,,,,,,,,,,,,,,,,,,,,,,,,,,,,,,,,,,,,,,,o,5.434000015,O,TRUE,,,,,,,170,ploma,Catalan,Sounds/cat_ploma.mp3,2020-06-05_17h09.45.594,TranslationElicitation_eng-prolific,3.2.4,Win32,60,5ebac91735226005282f48dd,,1,0,81,62,1,80
,,,,,,,,,,,,,,,,,,,,,,,,,,,,,,,,,,,,,,,,,t,5.516000032,OT,TRUE,,,,,,,170,ploma,Catalan,Sounds/cat_ploma.mp3,2020-06-05_17h09.45.594,TranslationElicitation_eng-prolific,3.2.4,Win32,60,5ebac91735226005282f48dd,,1,0,81,62,1,80
,,,,,,,,,,,,,,,,,,,,,,,,,,,,,,,,,,,,,,,,,backspace,5.78399992,O,TRUE,,,,,,,170,ploma,Catalan,Sounds/cat_ploma.mp3,2020-06-05_17h09.45.594,TranslationElicitation_eng-prolific,3.2.4,Win32,60,5ebac91735226005282f48dd,,1,0,81,62,1,80
,,,,,,,,,,,,,,,,,,,,,,,,,,,,,,,,,,,,,,,,,backspace,5.933000088,,TRUE,,,,,,,170,ploma,Catalan,Sounds/cat_ploma.mp3,2020-06-05_17h09.45.594,TranslationElicitation_eng-prolific,3.2.4,Win32,60,5ebac91735226005282f48dd,,1,0,81,62,1,80
,,,,,,,,,,,,,,,,,,,,,,,,,,,,,,,,,,,,,,,,,t,6.01699996,T,TRUE,,,,,,,170,ploma,Catalan,Sounds/cat_ploma.mp3,2020-06-05_17h09.45.594,TranslationElicitation_eng-prolific,3.2.4,Win32,60,5ebac91735226005282f48dd,,1,0,81,62,1,80
,,,,,,,,,,,,,,,,,,,,,,,,,,,,,,,,,,,,,,,,,o,6.134000063,TO,TRUE,,,,,,,170,ploma,Catalan,Sounds/cat_ploma.mp3,2020-06-05_17h09.45.594,TranslationElicitation_eng-prolific,3.2.4,Win32,60,5ebac91735226005282f48dd,,1,0,81,62,1,80
,,,,,,,,,,,,,,,,,,,,,,,,,,,,,,,,,,,,,,,,,r,6.450000048,TOR,TRUE,,,,,,,170,ploma,Catalan,Sounds/cat_ploma.mp3,2020-06-05_17h09.45.594,TranslationElicitation_eng-prolific,3.2.4,Win32,60,5ebac91735226005282f48dd,,1,0,81,62,1,80
,,,,,,,,,,,,,,,,,,,,,,,,,,,,,,,,,,,,,,,,,c,6.73300004,TORC,TRUE,,,,,,,170,ploma,Catalan,Sounds/cat_ploma.mp3,2020-06-05_17h09.45.594,TranslationElicitation_eng-prolific,3.2.4,Win32,60,5ebac91735226005282f48dd,,1,0,81,62,1,80
,,,,,,,,,,,,,,,,,,,,,,,,,,,,,,,,,,,,,,,,,h,6.815000057,TORCH,TRUE,,,,,,,170,ploma,Catalan,Sounds/cat_ploma.mp3,2020-06-05_17h09.45.594,TranslationElicitation_eng-prolific,3.2.4,Win32,60,5ebac91735226005282f48dd,,1,0,81,62,1,80
,,,,,,,,,,,,,,,,,,,,,,,,,,,,,,,,,,,,,,,,,return,7.299999952,TORCH,TRUE,,,,,,,170,ploma,Catalan,Sounds/cat_ploma.mp3,2020-06-05_17h09.45.594,TranslationElicitation_eng-prolific,3.2.4,Win32,60,5ebac91735226005282f48dd,7.299999952,1,0,81,62,1,80
,,,,,,,,,,,,,,,,,,,,,,,,,,,,,,,,,,,,,,,,,,,,,,,,,,,170,ploma,Catalan,Sounds/cat_ploma.mp3,2020-06-05_17h09.45.594,TranslationElicitation_eng-prolific,3.2.4,Win32,60,5ebac91735226005282f48dd,,1,0,81,62,1,80
,,,,,,,,,,,,,,,,,,,,,,,,,,,,,,,,,,,,,,,,,c,4.901000023,C,FALSE,,,,,,,125,colom,Catalan,Sounds/cat_colom.mp3,2020-06-05_17h09.45.594,TranslationElicitation_eng-prolific,3.2.4,Win32,60,5ebac91735226005282f48dd,,1,0,81,20,1,80
,,,,,,,,,,,,,,,,,,,,,,,,,,,,,,,,,,,,,,,,,u,5,CU,FALSE,,,,,,,125,colom,Catalan,Sounds/cat_colom.mp3,2020-06-05_17h09.45.594,TranslationElicitation_eng-prolific,3.2.4,Win32,60,5ebac91735226005282f48dd,,1,0,81,20,1,80
,,,,,,,,,,,,,,,,,,,,,,,,,,,,,,,,,,,,,,,,,c,5.48300004,CUC,FALSE,,,,,,,125,colom,Catalan,Sounds/cat_colom.mp3,2020-06-05_17h09.45.594,TranslationElicitation_eng-prolific,3.2.4,Win32,60,5ebac91735226005282f48dd,,1,0,81,20,1,80
,,,,,,,,,,,,,,,,,,,,,,,,,,,,,,,,,,,,,,,,,u,5.68200016,CUCU,FALSE,,,,,,,125,colom,Catalan,Sounds/cat_colom.mp3,2020-06-05_17h09.45.594,TranslationElicitation_eng-prolific,3.2.4,Win32,60,5ebac91735226005282f48dd,,1,0,81,20,1,80
,,,,,,,,,,,,,,,,,,,,,,,,,,,,,,,,,,,,,,,,,m,5.900000095,CUCUM,FALSE,,,,,,,125,colom,Catalan,Sounds/cat_colom.mp3,2020-06-05_17h09.45.594,TranslationElicitation_eng-prolific,3.2.4,Win32,60,5ebac91735226005282f48dd,,1,0,81,20,1,80
,,,,,,,,,,,,,,,,,,,,,,,,,,,,,,,,,,,,,,,,,b,6.167000055,CUCUMB,FALSE,,,,,,,125,colom,Catalan,Sounds/cat_colom.mp3,2020-06-05_17h09.45.594,TranslationElicitation_eng-prolific,3.2.4,Win32,60,5ebac91735226005282f48dd,,1,0,81,20,1,80
,,,,,,,,,,,,,,,,,,,,,,,,,,,,,,,,,,,,,,,,,e,6.282999992,CUCUMBE,FALSE,,,,,,,125,colom,Catalan,Sounds/cat_colom.mp3,2020-06-05_17h09.45.594,TranslationElicitation_eng-prolific,3.2.4,Win32,60,5ebac91735226005282f48dd,,1,0,81,20,1,80
,,,,,,,,,,,,,,,,,,,,,,,,,,,,,,,,,,,,,,,,,r,6.430000067,CUCUMBER,FALSE,,,,,,,125,colom,Catalan,Sounds/cat_colom.mp3,2020-06-05_17h09.45.594,TranslationElicitation_eng-prolific,3.2.4,Win32,60,5ebac91735226005282f48dd,,1,0,81,20,1,80
,,,,,,,,,,,,,,,,,,,,,,,,,,,,,,,,,,,,,,,,,return,7.26699996,CUCUMBER,FALSE,,,,,,,125,colom,Catalan,Sounds/cat_colom.mp3,2020-06-05_17h09.45.594,TranslationElicitation_eng-prolific,3.2.4,Win32,60,5ebac91735226005282f48dd,7.26699996,1,0,81,20,1,80
,,,,,,,,,,,,,,,,,,,,,,,,,,,,,,,,,,,,,,,,,,,,,,,,,,,125,colom,Catalan,Sounds/cat_colom.mp3,2020-06-05_17h09.45.594,TranslationElicitation_eng-prolific,3.2.4,Win32,60,5ebac91735226005282f48dd,,1,0,81,20,1,80
,,,,,,,,,,,,,,,,,,,,,,,,,,,,,,,,,,,,,,,,,a,5.116000175,A,FALSE,,,,,,,172,poma,Catalan,Sounds/cat_poma.mp3,2020-06-05_17h09.45.594,TranslationElicitation_eng-prolific,3.2.4,Win32,60,5ebac91735226005282f48dd,,1,0,81,64,1,80
,,,,,,,,,,,,,,,,,,,,,,,,,,,,,,,,,,,,,,,,,u,5.215000153,AU,FALSE,,,,,,,172,poma,Catalan,Sounds/cat_poma.mp3,2020-06-05_17h09.45.594,TranslationElicitation_eng-prolific,3.2.4,Win32,60,5ebac91735226005282f48dd,,1,0,81,64,1,80
,,,,,,,,,,,,,,,,,,,,,,,,,,,,,,,,,,,,,,,,,n,5.565999985,AUN,FALSE,,,,,,,172,poma,Catalan,Sounds/cat_poma.mp3,2020-06-05_17h09.45.594,TranslationElicitation_eng-prolific,3.2.4,Win32,60,5ebac91735226005282f48dd,,1,0,81,64,1,80
,,,,,,,,,,,,,,,,,,,,,,,,,,,,,,,,,,,,,,,,,t,5.765000105,AUNT,FALSE,,,,,,,172,poma,Catalan,Sounds/cat_poma.mp3,2020-06-05_17h09.45.594,TranslationElicitation_eng-prolific,3.2.4,Win32,60,5ebac91735226005282f48dd,,1,0,81,64,1,80
,,,,,,,,,,,,,,,,,,,,,,,,,,,,,,,,,,,,,,,,,y,5.867000103,AUNTY,FALSE,,,,,,,172,poma,Catalan,Sounds/cat_poma.mp3,2020-06-05_17h09.45.594,TranslationElicitation_eng-prolific,3.2.4,Win32,60,5ebac91735226005282f48dd,,1,0,81,64,1,80
,,,,,,,,,,,,,,,,,,,,,,,,,,,,,,,,,,,,,,,,,return,6.36500001,AUNTY,FALSE,,,,,,,172,poma,Catalan,Sounds/cat_poma.mp3,2020-06-05_17h09.45.594,TranslationElicitation_eng-prolific,3.2.4,Win32,60,5ebac91735226005282f48dd,6.36500001,1,0,81,64,1,80
,,,,,,,,,,,,,,,,,,,,,,,,,,,,,,,,,,,,,,,,,,,,,,,,,,,172,poma,Catalan,Sounds/cat_poma.mp3,2020-06-05_17h09.45.594,TranslationElicitation_eng-prolific,3.2.4,Win32,60,5ebac91735226005282f48dd,,1,0,81,64,1,80
,,,,,,,,,,,,,,,,,,,,,,,,,,,,,,,,,,,,,,,,,b,2.731999874,B,FALSE,,,,,,,143,globus,Catalan,Sounds/cat_globus.mp3,2020-06-05_17h09.45.594,TranslationElicitation_eng-prolific,3.2.4,Win32,60,5ebac91735226005282f48dd,,1,0,81,37,1,80
,,,,,,,,,,,,,,,,,,,,,,,,,,,,,,,,,,,,,,,,,l,2.964999914,BL,FALSE,,,,,,,143,globus,Catalan,Sounds/cat_globus.mp3,2020-06-05_17h09.45.594,TranslationElicitation_eng-prolific,3.2.4,Win32,60,5ebac91735226005282f48dd,,1,0,81,37,1,80
,,,,,,,,,,,,,,,,,,,,,,,,,,,,,,,,,,,,,,,,,o,3.11500001,BLO,FALSE,,,,,,,143,globus,Catalan,Sounds/cat_globus.mp3,2020-06-05_17h09.45.594,TranslationElicitation_eng-prolific,3.2.4,Win32,60,5ebac91735226005282f48dd,,1,0,81,37,1,80
,,,,,,,,,,,,,,,,,,,,,,,,,,,,,,,,,,,,,,,,,u,3.315000057,BLOU,FALSE,,,,,,,143,globus,Catalan,Sounds/cat_globus.mp3,2020-06-05_17h09.45.594,TranslationElicitation_eng-prolific,3.2.4,Win32,60,5ebac91735226005282f48dd,,1,0,81,37,1,80
,,,,,,,,,,,,,,,,,,,,,,,,,,,,,,,,,,,,,,,,,d,3.467000008,BLOUD,FALSE,,,,,,,143,globus,Catalan,Sounds/cat_globus.mp3,2020-06-05_17h09.45.594,TranslationElicitation_eng-prolific,3.2.4,Win32,60,5ebac91735226005282f48dd,,1,0,81,37,1,80
,,,,,,,,,,,,,,,,,,,,,,,,,,,,,,,,,,,,,,,,,backspace,3.865999937,BLOU,TRUE,,,,,,,143,globus,Catalan,Sounds/cat_globus.mp3,2020-06-05_17h09.45.594,TranslationElicitation_eng-prolific,3.2.4,Win32,60,5ebac91735226005282f48dd,,1,0,81,37,1,80
,,,,,,,,,,,,,,,,,,,,,,,,,,,,,,,,,,,,,,,,,s,3.917000055,BLOUS,TRUE,,,,,,,143,globus,Catalan,Sounds/cat_globus.mp3,2020-06-05_17h09.45.594,TranslationElicitation_eng-prolific,3.2.4,Win32,60,5ebac91735226005282f48dd,,1,0,81,37,1,80
,,,,,,,,,,,,,,,,,,,,,,,,,,,,,,,,,,,,,,,,,e,4.065999985,BLOUSE,TRUE,,,,,,,143,globus,Catalan,Sounds/cat_globus.mp3,2020-06-05_17h09.45.594,TranslationElicitation_eng-prolific,3.2.4,Win32,60,5ebac91735226005282f48dd,,1,0,81,37,1,80
,,,,,,,,,,,,,,,,,,,,,,,,,,,,,,,,,,,,,,,,,return,4.617000103,BLOUSE,TRUE,,,,,,,143,globus,Catalan,Sounds/cat_globus.mp3,2020-06-05_17h09.45.594,TranslationElicitation_eng-prolific,3.2.4,Win32,60,5ebac91735226005282f48dd,4.617000103,1,0,81,37,1,80
,,,,,,,,,,,,,,,,,,,,,,,,,,,,,,,,,,,,,,,,,,,,,,,,,,,143,globus,Catalan,Sounds/cat_globus.mp3,2020-06-05_17h09.45.594,TranslationElicitation_eng-prolific,3.2.4,Win32,60,5ebac91735226005282f48dd,,1,0,81,37,1,80
,,,,,,,,,,,,,,,,,,,,,,,,,,,,,,,,,,,,,,,,,c,2.934000015,C,FALSE,,,,,,,120,cama,Catalan,Sounds/cat_cama.mp3,2020-06-05_17h09.45.594,TranslationElicitation_eng-prolific,3.2.4,Win32,60,5ebac91735226005282f48dd,,1,0,81,15,1,80
,,,,,,,,,,,,,,,,,,,,,,,,,,,,,,,,,,,,,,,,,a,3.233999968,CA,FALSE,,,,,,,120,cama,Catalan,Sounds/cat_cama.mp3,2020-06-05_17h09.45.594,TranslationElicitation_eng-prolific,3.2.4,Win32,60,5ebac91735226005282f48dd,,1,0,81,15,1,80
,,,,,,,,,,,,,,,,,,,,,,,,,,,,,,,,,,,,,,,,,m,3.401000023,CAM,FALSE,,,,,,,120,cama,Catalan,Sounds/cat_cama.mp3,2020-06-05_17h09.45.594,TranslationElicitation_eng-prolific,3.2.4,Win32,60,5ebac91735226005282f48dd,,1,0,81,15,1,80
,,,,,,,,,,,,,,,,,,,,,,,,,,,,,,,,,,,,,,,,,e,3.501000166,CAME,FALSE,,,,,,,120,cama,Catalan,Sounds/cat_cama.mp3,2020-06-05_17h09.45.594,TranslationElicitation_eng-prolific,3.2.4,Win32,60,5ebac91735226005282f48dd,,1,0,81,15,1,80
,,,,,,,,,,,,,,,,,,,,,,,,,,,,,,,,,,,,,,,,,l,3.667000055,CAMEL,FALSE,,,,,,,120,cama,Catalan,Sounds/cat_cama.mp3,2020-06-05_17h09.45.594,TranslationElicitation_eng-prolific,3.2.4,Win32,60,5ebac91735226005282f48dd,,1,0,81,15,1,80
,,,,,,,,,,,,,,,,,,,,,,,,,,,,,,,,,,,,,,,,,return,4.034000158,CAMEL,FALSE,,,,,,,120,cama,Catalan,Sounds/cat_cama.mp3,2020-06-05_17h09.45.594,TranslationElicitation_eng-prolific,3.2.4,Win32,60,5ebac91735226005282f48dd,4.034000158,1,0,81,15,1,80
,,,,,,,,,,,,,,,,,,,,,,,,,,,,,,,,,,,,,,,,,,,,,,,,,,,120,cama,Catalan,Sounds/cat_cama.mp3,2020-06-05_17h09.45.594,TranslationElicitation_eng-prolific,3.2.4,Win32,60,5ebac91735226005282f48dd,,1,0,81,15,1,80
,,,,,,,,,,,,,,,,,,,,,,,,,,,,,,,,,,,,,,,,,m,8.832999945,M,FALSE,,,,,,,181,tobogan,Catalan,Sounds/cat_tobogan.mp3,2020-06-05_17h09.45.594,TranslationElicitation_eng-prolific,3.2.4,Win32,60,5ebac91735226005282f48dd,,1,0,81,72,1,80
,,,,,,,,,,,,,,,,,,,,,,,,,,,,,,,,,,,,,,,,,i,9.018000126,MI,FALSE,,,,,,,181,tobogan,Catalan,Sounds/cat_tobogan.mp3,2020-06-05_17h09.45.594,TranslationElicitation_eng-prolific,3.2.4,Win32,60,5ebac91735226005282f48dd,,1,0,81,72,1,80
,,,,,,,,,,,,,,,,,,,,,,,,,,,,,,,,,,,,,,,,,g,9.268000126,MIG,FALSE,,,,,,,181,tobogan,Catalan,Sounds/cat_tobogan.mp3,2020-06-05_17h09.45.594,TranslationElicitation_eng-prolific,3.2.4,Win32,60,5ebac91735226005282f48dd,,1,0,81,72,1,80
,,,,,,,,,,,,,,,,,,,,,,,,,,,,,,,,,,,,,,,,,a,9.450999975,MIGA,FALSE,,,,,,,181,tobogan,Catalan,Sounds/cat_tobogan.mp3,2020-06-05_17h09.45.594,TranslationElicitation_eng-prolific,3.2.4,Win32,60,5ebac91735226005282f48dd,,1,0,81,72,1,80
,,,,,,,,,,,,,,,,,,,,,,,,,,,,,,,,,,,,,,,,,n,9.51699996,MIGAN,FALSE,,,,,,,181,tobogan,Catalan,Sounds/cat_tobogan.mp3,2020-06-05_17h09.45.594,TranslationElicitation_eng-prolific,3.2.4,Win32,60,5ebac91735226005282f48dd,,1,0,81,72,1,80
,,,,,,,,,,,,,,,,,,,,,,,,,,,,,,,,,,,,,,,,,backspace,10.3670001,MIGA,TRUE,,,,,,,181,tobogan,Catalan,Sounds/cat_tobogan.mp3,2020-06-05_17h09.45.594,TranslationElicitation_eng-prolific,3.2.4,Win32,60,5ebac91735226005282f48dd,,1,0,81,72,1,80
,,,,,,,,,,,,,,,,,,,,,,,,,,,,,,,,,,,,,,,,,backspace,10.51800013,MIG,TRUE,,,,,,,181,tobogan,Catalan,Sounds/cat_tobogan.mp3,2020-06-05_17h09.45.594,TranslationElicitation_eng-prolific,3.2.4,Win32,60,5ebac91735226005282f48dd,,1,0,81,72,1,80
,,,,,,,,,,,,,,,,,,,,,,,,,,,,,,,,,,,,,,,,,a,11.63499999,MIGA,TRUE,,,,,,,181,tobogan,Catalan,Sounds/cat_tobogan.mp3,2020-06-05_17h09.45.594,TranslationElicitation_eng-prolific,3.2.4,Win32,60,5ebac91735226005282f48dd,,1,0,81,72,1,80
,,,,,,,,,,,,,,,,,,,,,,,,,,,,,,,,,,,,,,,,,n,11.76699996,MIGAN,TRUE,,,,,,,181,tobogan,Catalan,Sounds/cat_tobogan.mp3,2020-06-05_17h09.45.594,TranslationElicitation_eng-prolific,3.2.4,Win32,60,5ebac91735226005282f48dd,,1,0,81,72,1,80
,,,,,,,,,,,,,,,,,,,,,,,,,,,,,,,,,,,,,,,,,backspace,12.3210001,MIGA,TRUE,,,,,,,181,tobogan,Catalan,Sounds/cat_tobogan.mp3,2020-06-05_17h09.45.594,TranslationElicitation_eng-prolific,3.2.4,Win32,60,5ebac91735226005282f48dd,,1,0,81,72,1,80
,,,,,,,,,,,,,,,,,,,,,,,,,,,,,,,,,,,,,,,,,backspace,12.88400006,MIG,TRUE,,,,,,,181,tobogan,Catalan,Sounds/cat_tobogan.mp3,2020-06-05_17h09.45.594,TranslationElicitation_eng-prolific,3.2.4,Win32,60,5ebac91735226005282f48dd,,1,0,81,72,1,80
,,,,,,,,,,,,,,,,,,,,,,,,,,,,,,,,,,,,,,,,,backspace,12.91700006,MI,TRUE,,,,,,,181,tobogan,Catalan,Sounds/cat_tobogan.mp3,2020-06-05_17h09.45.594,TranslationElicitation_eng-prolific,3.2.4,Win32,60,5ebac91735226005282f48dd,,1,0,81,72,1,80
,,,,,,,,,,,,,,,,,,,,,,,,,,,,,,,,,,,,,,,,,backspace,12.95000005,M,TRUE,,,,,,,181,tobogan,Catalan,Sounds/cat_tobogan.mp3,2020-06-05_17h09.45.594,TranslationElicitation_eng-prolific,3.2.4,Win32,60,5ebac91735226005282f48dd,,1,0,81,72,1,80
,,,,,,,,,,,,,,,,,,,,,,,,,,,,,,,,,,,,,,,,,backspace,12.98399997,,TRUE,,,,,,,181,tobogan,Catalan,Sounds/cat_tobogan.mp3,2020-06-05_17h09.45.594,TranslationElicitation_eng-prolific,3.2.4,Win32,60,5ebac91735226005282f48dd,,1,0,81,72,1,80
,,,,,,,,,,,,,,,,,,,,,,,,,,,,,,,,,,,,,,,,,backspace,13.01699996,,TRUE,,,,,,,181,tobogan,Catalan,Sounds/cat_tobogan.mp3,2020-06-05_17h09.45.594,TranslationElicitation_eng-prolific,3.2.4,Win32,60,5ebac91735226005282f48dd,,1,0,81,72,1,80
,,,,,,,,,,,,,,,,,,,,,,,,,,,,,,,,,,,,,,,,,backspace,13.05100012,,TRUE,,,,,,,181,tobogan,Catalan,Sounds/cat_tobogan.mp3,2020-06-05_17h09.45.594,TranslationElicitation_eng-prolific,3.2.4,Win32,60,5ebac91735226005282f48dd,,1,0,81,72,1,80
,,,,,,,,,,,,,,,,,,,,,,,,,,,,,,,,,,,,,,,,,backspace,13.08500004,,TRUE,,,,,,,181,tobogan,Catalan,Sounds/cat_tobogan.mp3,2020-06-05_17h09.45.594,TranslationElicitation_eng-prolific,3.2.4,Win32,60,5ebac91735226005282f48dd,,1,0,81,72,1,80
,,,,,,,,,,,,,,,,,,,,,,,,,,,,,,,,,,,,,,,,,space,21.06700015, ,TRUE,,,,,,,181,tobogan,Catalan,Sounds/cat_tobogan.mp3,2020-06-05_17h09.45.594,TranslationElicitation_eng-prolific,3.2.4,Win32,60,5ebac91735226005282f48dd,,1,0,81,72,1,80
,,,,,,,,,,,,,,,,,,,,,,,,,,,,,,,,,,,,,,,,,m,25.66700006, M,TRUE,,,,,,,181,tobogan,Catalan,Sounds/cat_tobogan.mp3,2020-06-05_17h09.45.594,TranslationElicitation_eng-prolific,3.2.4,Win32,60,5ebac91735226005282f48dd,,1,0,81,72,1,80
,,,,,,,,,,,,,,,,,,,,,,,,,,,,,,,,,,,,,,,,,i,25.88499999, MI,TRUE,,,,,,,181,tobogan,Catalan,Sounds/cat_tobogan.mp3,2020-06-05_17h09.45.594,TranslationElicitation_eng-prolific,3.2.4,Win32,60,5ebac91735226005282f48dd,,1,0,81,72,1,80
,,,,,,,,,,,,,,,,,,,,,,,,,,,,,,,,,,,,,,,,,l,26.20200014, MIL,TRUE,,,,,,,181,tobogan,Catalan,Sounds/cat_tobogan.mp3,2020-06-05_17h09.45.594,TranslationElicitation_eng-prolific,3.2.4,Win32,60,5ebac91735226005282f48dd,,1,0,81,72,1,80
,,,,,,,,,,,,,,,,,,,,,,,,,,,,,,,,,,,,,,,,,a,26.33400011, MILA,TRUE,,,,,,,181,tobogan,Catalan,Sounds/cat_tobogan.mp3,2020-06-05_17h09.45.594,TranslationElicitation_eng-prolific,3.2.4,Win32,60,5ebac91735226005282f48dd,,1,0,81,72,1,80
,,,,,,,,,,,,,,,,,,,,,,,,,,,,,,,,,,,,,,,,,n,26.4690001, MILAN,TRUE,,,,,,,181,tobogan,Catalan,Sounds/cat_tobogan.mp3,2020-06-05_17h09.45.594,TranslationElicitation_eng-prolific,3.2.4,Win32,60,5ebac91735226005282f48dd,,1,0,81,72,1,80
,,,,,,,,,,,,,,,,,,,,,,,,,,,,,,,,,,,,,,,,,return,27.602, MILAN,TRUE,,,,,,,181,tobogan,Catalan,Sounds/cat_tobogan.mp3,2020-06-05_17h09.45.594,TranslationElicitation_eng-prolific,3.2.4,Win32,60,5ebac91735226005282f48dd,27.602,1,0,81,72,1,80
,,,,,,,,,,,,,,,,,,,,,,,,,,,,,,,,,,,,,,,,,,,,,,,,,,,181,tobogan,Catalan,Sounds/cat_tobogan.mp3,2020-06-05_17h09.45.594,TranslationElicitation_eng-prolific,3.2.4,Win32,60,5ebac91735226005282f48dd,,1,0,81,72,1,80
,,,,,,,,,,,,,,,,,,,,,,,,,,,,,,,,,,,,,,,,,w,3.648999929,W,FALSE,,,,,,,144,gorra,Catalan,Sounds/cat_gorra.mp3,2020-06-05_17h09.45.594,TranslationElicitation_eng-prolific,3.2.4,Win32,60,5ebac91735226005282f48dd,,1,0,81,38,1,80
,,,,,,,,,,,,,,,,,,,,,,,,,,,,,,,,,,,,,,,,,h,3.748999834,WH,FALSE,,,,,,,144,gorra,Catalan,Sounds/cat_gorra.mp3,2020-06-05_17h09.45.594,TranslationElicitation_eng-prolific,3.2.4,Win32,60,5ebac91735226005282f48dd,,1,0,81,38,1,80
,,,,,,,,,,,,,,,,,,,,,,,,,,,,,,,,,,,,,,,,,i,3.914999962,WHI,FALSE,,,,,,,144,gorra,Catalan,Sounds/cat_gorra.mp3,2020-06-05_17h09.45.594,TranslationElicitation_eng-prolific,3.2.4,Win32,60,5ebac91735226005282f48dd,,1,0,81,38,1,80
,,,,,,,,,,,,,,,,,,,,,,,,,,,,,,,,,,,,,,,,,t,4.448999882,WHIT,FALSE,,,,,,,144,gorra,Catalan,Sounds/cat_gorra.mp3,2020-06-05_17h09.45.594,TranslationElicitation_eng-prolific,3.2.4,Win32,60,5ebac91735226005282f48dd,,1,0,81,38,1,80
,,,,,,,,,,,,,,,,,,,,,,,,,,,,,,,,,,,,,,,,,e,4.665999889,WHITE,FALSE,,,,,,,144,gorra,Catalan,Sounds/cat_gorra.mp3,2020-06-05_17h09.45.594,TranslationElicitation_eng-prolific,3.2.4,Win32,60,5ebac91735226005282f48dd,,1,0,81,38,1,80
,,,,,,,,,,,,,,,,,,,,,,,,,,,,,,,,,,,,,,,,,return,5.198999882,WHITE,FALSE,,,,,,,144,gorra,Catalan,Sounds/cat_gorra.mp3,2020-06-05_17h09.45.594,TranslationElicitation_eng-prolific,3.2.4,Win32,60,5ebac91735226005282f48dd,5.198999882,1,0,81,38,1,80
,,,,,,,,,,,,,,,,,,,,,,,,,,,,,,,,,,,,,,,,,,,,,,,,,,,144,gorra,Catalan,Sounds/cat_gorra.mp3,2020-06-05_17h09.45.594,TranslationElicitation_eng-prolific,3.2.4,Win32,60,5ebac91735226005282f48dd,,1,0,81,38,1,80
,,,,,,,,,,,,,,,,,,,,,,,,,,,,,,,,,,,,,,,,,p,3.19900012,P,FALSE,,,,,,,173,porc,Catalan,Sounds/cat_porc.mp3,2020-06-05_17h09.45.594,TranslationElicitation_eng-prolific,3.2.4,Win32,60,5ebac91735226005282f48dd,,1,0,81,65,1,80
,,,,,,,,,,,,,,,,,,,,,,,,,,,,,,,,,,,,,,,,,o,3.430999994,PO,FALSE,,,,,,,173,porc,Catalan,Sounds/cat_porc.mp3,2020-06-05_17h09.45.594,TranslationElicitation_eng-prolific,3.2.4,Win32,60,5ebac91735226005282f48dd,,1,0,81,65,1,80
,,,,,,,,,,,,,,,,,,,,,,,,,,,,,,,,,,,,,,,,,r,3.565000057,POR,FALSE,,,,,,,173,porc,Catalan,Sounds/cat_porc.mp3,2020-06-05_17h09.45.594,TranslationElicitation_eng-prolific,3.2.4,Win32,60,5ebac91735226005282f48dd,,1,0,81,65,1,80
,,,,,,,,,,,,,,,,,,,,,,,,,,,,,,,,,,,,,,,,,k,3.71600008,PORK,FALSE,,,,,,,173,porc,Catalan,Sounds/cat_porc.mp3,2020-06-05_17h09.45.594,TranslationElicitation_eng-prolific,3.2.4,Win32,60,5ebac91735226005282f48dd,,1,0,81,65,1,80
,,,,,,,,,,,,,,,,,,,,,,,,,,,,,,,,,,,,,,,,,return,4.265000105,PORK,FALSE,,,,,,,173,porc,Catalan,Sounds/cat_porc.mp3,2020-06-05_17h09.45.594,TranslationElicitation_eng-prolific,3.2.4,Win32,60,5ebac91735226005282f48dd,4.265000105,1,0,81,65,1,80
,,,,,,,,,,,,,,,,,,,,,,,,,,,,,,,,,,,,,,,,,,,,,,,,,,,173,porc,Catalan,Sounds/cat_porc.mp3,2020-06-05_17h09.45.594,TranslationElicitation_eng-prolific,3.2.4,Win32,60,5ebac91735226005282f48dd,,1,0,81,65,1,80
,,,,,,,,,,,,,,,,,,,,,,,,,,,,,,,,,,,,,,,,,p,7.700000048,P,FALSE,,,,,,,166,peu,Catalan,Sounds/cat_peu.mp3,2020-06-05_17h09.45.594,TranslationElicitation_eng-prolific,3.2.4,Win32,60,5ebac91735226005282f48dd,,1,0,81,58,1,80
,,,,,,,,,,,,,,,,,,,,,,,,,,,,,,,,,,,,,,,,,e,7.934999943,PE,FALSE,,,,,,,166,peu,Catalan,Sounds/cat_peu.mp3,2020-06-05_17h09.45.594,TranslationElicitation_eng-prolific,3.2.4,Win32,60,5ebac91735226005282f48dd,,1,0,81,58,1,80
,,,,,,,,,,,,,,,,,,,,,,,,,,,,,,,,,,,,,,,,,a,8.200999975,PEA,FALSE,,,,,,,166,peu,Catalan,Sounds/cat_peu.mp3,2020-06-05_17h09.45.594,TranslationElicitation_eng-prolific,3.2.4,Win32,60,5ebac91735226005282f48dd,,1,0,81,58,1,80
,,,,,,,,,,,,,,,,,,,,,,,,,,,,,,,,,,,,,,,,,return,8.733999968,PEA,FALSE,,,,,,,166,peu,Catalan,Sounds/cat_peu.mp3,2020-06-05_17h09.45.594,TranslationElicitation_eng-prolific,3.2.4,Win32,60,5ebac91735226005282f48dd,8.733999968,1,0,81,58,1,80
,,,,,,,,,,,,,,,,,,,,,,,,,,,,,,,,,,,,,,,,,,,,,,,,,,,166,peu,Catalan,Sounds/cat_peu.mp3,2020-06-05_17h09.45.594,TranslationElicitation_eng-prolific,3.2.4,Win32,60,5ebac91735226005282f48dd,,1,0,81,58,1,80
,,,,,,,,,,,,,,,,,,,,,,,,,,,,,,,,,,,,,,,,,s,10.46700001,S,FALSE,,,,,,,157,mussol,Catalan,Sounds/cat_mussol.mp3,2020-06-05_17h09.45.594,TranslationElicitation_eng-prolific,3.2.4,Win32,60,5ebac91735226005282f48dd,,1,0,81,50,1,80
,,,,,,,,,,,,,,,,,,,,,,,,,,,,,,,,,,,,,,,,,h,10.63400006,SH,FALSE,,,,,,,157,mussol,Catalan,Sounds/cat_mussol.mp3,2020-06-05_17h09.45.594,TranslationElicitation_eng-prolific,3.2.4,Win32,60,5ebac91735226005282f48dd,,1,0,81,50,1,80
,,,,,,,,,,,,,,,,,,,,,,,,,,,,,,,,,,,,,,,,,i,11.13400006,SHI,FALSE,,,,,,,157,mussol,Catalan,Sounds/cat_mussol.mp3,2020-06-05_17h09.45.594,TranslationElicitation_eng-prolific,3.2.4,Win32,60,5ebac91735226005282f48dd,,1,0,81,50,1,80
,,,,,,,,,,,,,,,,,,,,,,,,,,,,,,,,,,,,,,,,,r,11.35000014,SHIR,FALSE,,,,,,,157,mussol,Catalan,Sounds/cat_mussol.mp3,2020-06-05_17h09.45.594,TranslationElicitation_eng-prolific,3.2.4,Win32,60,5ebac91735226005282f48dd,,1,0,81,50,1,80
,,,,,,,,,,,,,,,,,,,,,,,,,,,,,,,,,,,,,,,,,t,11.63199997,SHIRT,FALSE,,,,,,,157,mussol,Catalan,Sounds/cat_mussol.mp3,2020-06-05_17h09.45.594,TranslationElicitation_eng-prolific,3.2.4,Win32,60,5ebac91735226005282f48dd,,1,0,81,50,1,80
,,,,,,,,,,,,,,,,,,,,,,,,,,,,,,,,,,,,,,,,,return,12.56700015,SHIRT,FALSE,,,,,,,157,mussol,Catalan,Sounds/cat_mussol.mp3,2020-06-05_17h09.45.594,TranslationElicitation_eng-prolific,3.2.4,Win32,60,5ebac91735226005282f48dd,12.56700015,1,0,81,50,1,80
,,,,,,,,,,,,,,,,,,,,,,,,,,,,,,,,,,,,,,,,,,,,,,,,,,,157,mussol,Catalan,Sounds/cat_mussol.mp3,2020-06-05_17h09.45.594,TranslationElicitation_eng-prolific,3.2.4,Win32,60,5ebac91735226005282f48dd,,1,0,81,50,1,80
,,,,,,,,,,,,,,,,,,,,,,,,,,,,,,,,,,,,,,,,,b,2.881999969,B,FALSE,,,,,,,121,camisa,Catalan,Sounds/cat_camisa.mp3,2020-06-05_17h09.45.594,TranslationElicitation_eng-prolific,3.2.4,Win32,60,5ebac91735226005282f48dd,,1,0,81,16,1,80
,,,,,,,,,,,,,,,,,,,,,,,,,,,,,,,,,,,,,,,,,l,3.116999865,BL,FALSE,,,,,,,121,camisa,Catalan,Sounds/cat_camisa.mp3,2020-06-05_17h09.45.594,TranslationElicitation_eng-prolific,3.2.4,Win32,60,5ebac91735226005282f48dd,,1,0,81,16,1,80
,,,,,,,,,,,,,,,,,,,,,,,,,,,,,,,,,,,,,,,,,o,3.264999866,BLO,FALSE,,,,,,,121,camisa,Catalan,Sounds/cat_camisa.mp3,2020-06-05_17h09.45.594,TranslationElicitation_eng-prolific,3.2.4,Win32,60,5ebac91735226005282f48dd,,1,0,81,16,1,80
,,,,,,,,,,,,,,,,,,,,,,,,,,,,,,,,,,,,,,,,,u,3.51699996,BLOU,FALSE,,,,,,,121,camisa,Catalan,Sounds/cat_camisa.mp3,2020-06-05_17h09.45.594,TranslationElicitation_eng-prolific,3.2.4,Win32,60,5ebac91735226005282f48dd,,1,0,81,16,1,80
,,,,,,,,,,,,,,,,,,,,,,,,,,,,,,,,,,,,,,,,,s,3.682999849,BLOUS,FALSE,,,,,,,121,camisa,Catalan,Sounds/cat_camisa.mp3,2020-06-05_17h09.45.594,TranslationElicitation_eng-prolific,3.2.4,Win32,60,5ebac91735226005282f48dd,,1,0,81,16,1,80
,,,,,,,,,,,,,,,,,,,,,,,,,,,,,,,,,,,,,,,,,e,3.934000015,BLOUSE,FALSE,,,,,,,121,camisa,Catalan,Sounds/cat_camisa.mp3,2020-06-05_17h09.45.594,TranslationElicitation_eng-prolific,3.2.4,Win32,60,5ebac91735226005282f48dd,,1,0,81,16,1,80
,,,,,,,,,,,,,,,,,,,,,,,,,,,,,,,,,,,,,,,,,return,4.399999857,BLOUSE,FALSE,,,,,,,121,camisa,Catalan,Sounds/cat_camisa.mp3,2020-06-05_17h09.45.594,TranslationElicitation_eng-prolific,3.2.4,Win32,60,5ebac91735226005282f48dd,4.399999857,1,0,81,16,1,80
,,,,,,,,,,,,,,,,,,,,,,,,,,,,,,,,,,,,,,,,,,,,,,,,,,,121,camisa,Catalan,Sounds/cat_camisa.mp3,2020-06-05_17h09.45.594,TranslationElicitation_eng-prolific,3.2.4,Win32,60,5ebac91735226005282f48dd,,1,0,81,16,1,80
,,,,,,,,,,,,,,,,,,,,,,,,,,,,,,,,,,,,,,,,,p,3.18200016,P,FALSE,,,,,,,169,plat,Catalan,Sounds/cat_plat.mp3,2020-06-05_17h09.45.594,TranslationElicitation_eng-prolific,3.2.4,Win32,60,5ebac91735226005282f48dd,,1,0,81,61,1,80
,,,,,,,,,,,,,,,,,,,,,,,,,,,,,,,,,,,,,,,,,l,3.366000175,PL,FALSE,,,,,,,169,plat,Catalan,Sounds/cat_plat.mp3,2020-06-05_17h09.45.594,TranslationElicitation_eng-prolific,3.2.4,Win32,60,5ebac91735226005282f48dd,,1,0,81,61,1,80
,,,,,,,,,,,,,,,,,,,,,,,,,,,,,,,,,,,,,,,,,a,3.832000017,PLA,FALSE,,,,,,,169,plat,Catalan,Sounds/cat_plat.mp3,2020-06-05_17h09.45.594,TranslationElicitation_eng-prolific,3.2.4,Win32,60,5ebac91735226005282f48dd,,1,0,81,61,1,80
,,,,,,,,,,,,,,,,,,,,,,,,,,,,,,,,,,,,,,,,,i,4.050000191,PLAI,FALSE,,,,,,,169,plat,Catalan,Sounds/cat_plat.mp3,2020-06-05_17h09.45.594,TranslationElicitation_eng-prolific,3.2.4,Win32,60,5ebac91735226005282f48dd,,1,0,81,61,1,80
,,,,,,,,,,,,,,,,,,,,,,,,,,,,,,,,,,,,,,,,,t,4.483999968,PLAIT,FALSE,,,,,,,169,plat,Catalan,Sounds/cat_plat.mp3,2020-06-05_17h09.45.594,TranslationElicitation_eng-prolific,3.2.4,Win32,60,5ebac91735226005282f48dd,,1,0,81,61,1,80
,,,,,,,,,,,,,,,,,,,,,,,,,,,,,,,,,,,,,,,,,return,5.200000048,PLAIT,FALSE,,,,,,,169,plat,Catalan,Sounds/cat_plat.mp3,2020-06-05_17h09.45.594,TranslationElicitation_eng-prolific,3.2.4,Win32,60,5ebac91735226005282f48dd,5.200000048,1,0,81,61,1,80
,,,,,,,,,,,,,,,,,,,,,,,,,,,,,,,,,,,,,,,,,,,,,,,,,,,169,plat,Catalan,Sounds/cat_plat.mp3,2020-06-05_17h09.45.594,TranslationElicitation_eng-prolific,3.2.4,Win32,60,5ebac91735226005282f48dd,,1,0,81,61,1,80
,,,,,,,,,,,,,,,,,,,,,,,,,,,,,,,,,,,,,,,,,n,3.648999929,N,FALSE,,,,,,,158,nas,Catalan,Sounds/cat_nas.mp3,2020-06-05_17h09.45.594,TranslationElicitation_eng-prolific,3.2.4,Win32,60,5ebac91735226005282f48dd,,1,0,81,51,1,80
,,,,,,,,,,,,,,,,,,,,,,,,,,,,,,,,,,,,,,,,,i,3.799999952,NI,FALSE,,,,,,,158,nas,Catalan,Sounds/cat_nas.mp3,2020-06-05_17h09.45.594,TranslationElicitation_eng-prolific,3.2.4,Win32,60,5ebac91735226005282f48dd,,1,0,81,51,1,80
,,,,,,,,,,,,,,,,,,,,,,,,,,,,,,,,,,,,,,,,,c,3.967999935,NIC,FALSE,,,,,,,158,nas,Catalan,Sounds/cat_nas.mp3,2020-06-05_17h09.45.594,TranslationElicitation_eng-prolific,3.2.4,Win32,60,5ebac91735226005282f48dd,,1,0,81,51,1,80
,,,,,,,,,,,,,,,,,,,,,,,,,,,,,,,,,,,,,,,,,e,4.217999935,NICE,FALSE,,,,,,,158,nas,Catalan,Sounds/cat_nas.mp3,2020-06-05_17h09.45.594,TranslationElicitation_eng-prolific,3.2.4,Win32,60,5ebac91735226005282f48dd,,1,0,81,51,1,80
,,,,,,,,,,,,,,,,,,,,,,,,,,,,,,,,,,,,,,,,,return,4.700999975,NICE,FALSE,,,,,,,158,nas,Catalan,Sounds/cat_nas.mp3,2020-06-05_17h09.45.594,TranslationElicitation_eng-prolific,3.2.4,Win32,60,5ebac91735226005282f48dd,4.700999975,1,0,81,51,1,80
,,,,,,,,,,,,,,,,,,,,,,,,,,,,,,,,,,,,,,,,,,,,,,,,,,,158,nas,Catalan,Sounds/cat_nas.mp3,2020-06-05_17h09.45.594,TranslationElicitation_eng-prolific,3.2.4,Win32,60,5ebac91735226005282f48dd,,1,0,81,51,1,80
,,,,,,,,,,,,,,,,,,,,,,,,,,,,,,,,,,,,,,,,,v,11.6170001,V,FALSE,,,,,,,161,ovella,Catalan,Sounds/cat_ovella.mp3,2020-06-05_17h09.45.594,TranslationElicitation_eng-prolific,3.2.4,Win32,60,5ebac91735226005282f48dd,,1,0,81,53,1,80
,,,,,,,,,,,,,,,,,,,,,,,,,,,,,,,,,,,,,,,,,a,12.16600013,VA,FALSE,,,,,,,161,ovella,Catalan,Sounds/cat_ovella.mp3,2020-06-05_17h09.45.594,TranslationElicitation_eng-prolific,3.2.4,Win32,60,5ebac91735226005282f48dd,,1,0,81,53,1,80
,,,,,,,,,,,,,,,,,,,,,,,,,,,,,,,,,,,,,,,,,l,12.5,VAL,FALSE,,,,,,,161,ovella,Catalan,Sounds/cat_ovella.mp3,2020-06-05_17h09.45.594,TranslationElicitation_eng-prolific,3.2.4,Win32,60,5ebac91735226005282f48dd,,1,0,81,53,1,80
,,,,,,,,,,,,,,,,,,,,,,,,,,,,,,,,,,,,,,,,,l,12.68300009,VALL,FALSE,,,,,,,161,ovella,Catalan,Sounds/cat_ovella.mp3,2020-06-05_17h09.45.594,TranslationElicitation_eng-prolific,3.2.4,Win32,60,5ebac91735226005282f48dd,,1,0,81,53,1,80
,,,,,,,,,,,,,,,,,,,,,,,,,,,,,,,,,,,,,,,,,e,12.78299999,VALLE,FALSE,,,,,,,161,ovella,Catalan,Sounds/cat_ovella.mp3,2020-06-05_17h09.45.594,TranslationElicitation_eng-prolific,3.2.4,Win32,60,5ebac91735226005282f48dd,,1,0,81,53,1,80
,,,,,,,,,,,,,,,,,,,,,,,,,,,,,,,,,,,,,,,,,y,13.3670001,VALLEY,FALSE,,,,,,,161,ovella,Catalan,Sounds/cat_ovella.mp3,2020-06-05_17h09.45.594,TranslationElicitation_eng-prolific,3.2.4,Win32,60,5ebac91735226005282f48dd,,1,0,81,53,1,80
,,,,,,,,,,,,,,,,,,,,,,,,,,,,,,,,,,,,,,,,,return,13.70000005,VALLEY,FALSE,,,,,,,161,ovella,Catalan,Sounds/cat_ovella.mp3,2020-06-05_17h09.45.594,TranslationElicitation_eng-prolific,3.2.4,Win32,60,5ebac91735226005282f48dd,13.70000005,1,0,81,53,1,80
,,,,,,,,,,,,,,,,,,,,,,,,,,,,,,,,,,,,,,,,,,,,,,,,,,,161,ovella,Catalan,Sounds/cat_ovella.mp3,2020-06-05_17h09.45.594,TranslationElicitation_eng-prolific,3.2.4,Win32,60,5ebac91735226005282f48dd,,1,0,81,53,1,80
,,,,,,,,,,,,,,,,,,,,,,,,,,,,,,,,,,,,,,,,,i,3.499000072,I,FALSE,,,,,,,184,ull,Catalan,Sounds/cat_ull.mp3,2020-06-05_17h09.45.594,TranslationElicitation_eng-prolific,3.2.4,Win32,60,5ebac91735226005282f48dd,,1,0,81,75,1,80
,,,,,,,,,,,,,,,,,,,,,,,,,,,,,,,,,,,,,,,,,n,3.680999994,IN,FALSE,,,,,,,184,ull,Catalan,Sounds/cat_ull.mp3,2020-06-05_17h09.45.594,TranslationElicitation_eng-prolific,3.2.4,Win32,60,5ebac91735226005282f48dd,,1,0,81,75,1,80
,,,,,,,,,,,,,,,,,,,,,,,,,,,,,,,,,,,,,,,,,t,3.899000168,INT,FALSE,,,,,,,184,ull,Catalan,Sounds/cat_ull.mp3,2020-06-05_17h09.45.594,TranslationElicitation_eng-prolific,3.2.4,Win32,60,5ebac91735226005282f48dd,,1,0,81,75,1,80
,,,,,,,,,,,,,,,,,,,,,,,,,,,,,,,,,,,,,,,,,e,3.998000145,INTE,FALSE,,,,,,,184,ull,Catalan,Sounds/cat_ull.mp3,2020-06-05_17h09.45.594,TranslationElicitation_eng-prolific,3.2.4,Win32,60,5ebac91735226005282f48dd,,1,0,81,75,1,80
,,,,,,,,,,,,,,,,,,,,,,,,,,,,,,,,,,,,,,,,,backspace,4.532999992,INT,TRUE,,,,,,,184,ull,Catalan,Sounds/cat_ull.mp3,2020-06-05_17h09.45.594,TranslationElicitation_eng-prolific,3.2.4,Win32,60,5ebac91735226005282f48dd,,1,0,81,75,1,80
,,,,,,,,,,,,,,,,,,,,,,,,,,,,,,,,,,,,,,,,,backspace,4.815999985,IN,TRUE,,,,,,,184,ull,Catalan,Sounds/cat_ull.mp3,2020-06-05_17h09.45.594,TranslationElicitation_eng-prolific,3.2.4,Win32,60,5ebac91735226005282f48dd,,1,0,81,75,1,80
,,,,,,,,,,,,,,,,,,,,,,,,,,,,,,,,,,,,,,,,,backspace,5.082000017,I,TRUE,,,,,,,184,ull,Catalan,Sounds/cat_ull.mp3,2020-06-05_17h09.45.594,TranslationElicitation_eng-prolific,3.2.4,Win32,60,5ebac91735226005282f48dd,,1,0,81,75,1,80
,,,,,,,,,,,,,,,,,,,,,,,,,,,,,,,,,,,,,,,,,backspace,5.21600008,,TRUE,,,,,,,184,ull,Catalan,Sounds/cat_ull.mp3,2020-06-05_17h09.45.594,TranslationElicitation_eng-prolific,3.2.4,Win32,60,5ebac91735226005282f48dd,,1,0,81,75,1,80
,,,,,,,,,,,,,,,,,,,,,,,,,,,,,,,,,,,,,,,,,t,6.515000105,T,TRUE,,,,,,,184,ull,Catalan,Sounds/cat_ull.mp3,2020-06-05_17h09.45.594,TranslationElicitation_eng-prolific,3.2.4,Win32,60,5ebac91735226005282f48dd,,1,0,81,75,1,80
,,,,,,,,,,,,,,,,,,,,,,,,,,,,,,,,,,,,,,,,,a,6.600000143,TA,TRUE,,,,,,,184,ull,Catalan,Sounds/cat_ull.mp3,2020-06-05_17h09.45.594,TranslationElicitation_eng-prolific,3.2.4,Win32,60,5ebac91735226005282f48dd,,1,0,81,75,1,80
,,,,,,,,,,,,,,,,,,,,,,,,,,,,,,,,,,,,,,,,,s,6.764000177,TAS,TRUE,,,,,,,184,ull,Catalan,Sounds/cat_ull.mp3,2020-06-05_17h09.45.594,TranslationElicitation_eng-prolific,3.2.4,Win32,60,5ebac91735226005282f48dd,,1,0,81,75,1,80
,,,,,,,,,,,,,,,,,,,,,,,,,,,,,,,,,,,,,,,,,t,6.900000095,TAST,TRUE,,,,,,,184,ull,Catalan,Sounds/cat_ull.mp3,2020-06-05_17h09.45.594,TranslationElicitation_eng-prolific,3.2.4,Win32,60,5ebac91735226005282f48dd,,1,0,81,75,1,80
,,,,,,,,,,,,,,,,,,,,,,,,,,,,,,,,,,,,,,,,,u,7.100000143,TASTU,TRUE,,,,,,,184,ull,Catalan,Sounds/cat_ull.mp3,2020-06-05_17h09.45.594,TranslationElicitation_eng-prolific,3.2.4,Win32,60,5ebac91735226005282f48dd,,1,0,81,75,1,80
,,,,,,,,,,,,,,,,,,,,,,,,,,,,,,,,,,,,,,,,,backspace,7.710000038,TAST,TRUE,,,,,,,184,ull,Catalan,Sounds/cat_ull.mp3,2020-06-05_17h09.45.594,TranslationElicitation_eng-prolific,3.2.4,Win32,60,5ebac91735226005282f48dd,,1,0,81,75,1,80
,,,,,,,,,,,,,,,,,,,,,,,,,,,,,,,,,,,,,,,,,y,7.933000088,TASTY,TRUE,,,,,,,184,ull,Catalan,Sounds/cat_ull.mp3,2020-06-05_17h09.45.594,TranslationElicitation_eng-prolific,3.2.4,Win32,60,5ebac91735226005282f48dd,,1,0,81,75,1,80
,,,,,,,,,,,,,,,,,,,,,,,,,,,,,,,,,,,,,,,,,return,8.44900012,TASTY,TRUE,,,,,,,184,ull,Catalan,Sounds/cat_ull.mp3,2020-06-05_17h09.45.594,TranslationElicitation_eng-prolific,3.2.4,Win32,60,5ebac91735226005282f48dd,8.44900012,1,0,81,75,1,80
,,,,,,,,,,,,,,,,,,,,,,,,,,,,,,,,,,,,,,,,,,,,,,,,,,,184,ull,Catalan,Sounds/cat_ull.mp3,2020-06-05_17h09.45.594,TranslationElicitation_eng-prolific,3.2.4,Win32,60,5ebac91735226005282f48dd,,1,0,81,75,1,80
,,,,,,,,,,,,,,,,,,,,,,,,,,,,,,,,,,,,,,,,,m,2.015000105,M,FALSE,,,,,,,154,mirall,Catalan,Sounds/cat_mirall.mp3,2020-06-05_17h09.45.594,TranslationElicitation_eng-prolific,3.2.4,Win32,60,5ebac91735226005282f48dd,,1,0,81,47,1,80
,,,,,,,,,,,,,,,,,,,,,,,,,,,,,,,,,,,,,,,,,o,2.131000042,MO,FALSE,,,,,,,154,mirall,Catalan,Sounds/cat_mirall.mp3,2020-06-05_17h09.45.594,TranslationElicitation_eng-prolific,3.2.4,Win32,60,5ebac91735226005282f48dd,,1,0,81,47,1,80
,,,,,,,,,,,,,,,,,,,,,,,,,,,,,,,,,,,,,,,,,r,2.23300004,MOR,FALSE,,,,,,,154,mirall,Catalan,Sounds/cat_mirall.mp3,2020-06-05_17h09.45.594,TranslationElicitation_eng-prolific,3.2.4,Win32,60,5ebac91735226005282f48dd,,1,0,81,47,1,80
,,,,,,,,,,,,,,,,,,,,,,,,,,,,,,,,,,,,,,,,,a,2.499000072,MORA,FALSE,,,,,,,154,mirall,Catalan,Sounds/cat_mirall.mp3,2020-06-05_17h09.45.594,TranslationElicitation_eng-prolific,3.2.4,Win32,60,5ebac91735226005282f48dd,,1,0,81,47,1,80
,,,,,,,,,,,,,,,,,,,,,,,,,,,,,,,,,,,,,,,,,l,2.58100009,MORAL,FALSE,,,,,,,154,mirall,Catalan,Sounds/cat_mirall.mp3,2020-06-05_17h09.45.594,TranslationElicitation_eng-prolific,3.2.4,Win32,60,5ebac91735226005282f48dd,,1,0,81,47,1,80
,,,,,,,,,,,,,,,,,,,,,,,,,,,,,,,,,,,,,,,,,e,2.69900012,MORALE,FALSE,,,,,,,154,mirall,Catalan,Sounds/cat_mirall.mp3,2020-06-05_17h09.45.594,TranslationElicitation_eng-prolific,3.2.4,Win32,60,5ebac91735226005282f48dd,,1,0,81,47,1,80
,,,,,,,,,,,,,,,,,,,,,,,,,,,,,,,,,,,,,,,,,return,3.214999914,MORALE,FALSE,,,,,,,154,mirall,Catalan,Sounds/cat_mirall.mp3,2020-06-05_17h09.45.594,TranslationElicitation_eng-prolific,3.2.4,Win32,60,5ebac91735226005282f48dd,3.214999914,1,0,81,47,1,80
,,,,,,,,,,,,,,,,,,,,,,,,,,,,,,,,,,,,,,,,,,,,,,,,,,,154,mirall,Catalan,Sounds/cat_mirall.mp3,2020-06-05_17h09.45.594,TranslationElicitation_eng-prolific,3.2.4,Win32,60,5ebac91735226005282f48dd,,1,0,81,47,1,80
,,,,,,,,,,,,,,,,,,,,,,,,,,,,,,,,,,,,,,,,,p,1.46600008,P,FALSE,,,,,,,168,planta,Catalan,Sounds/cat_planta.mp3,2020-06-05_17h09.45.594,TranslationElicitation_eng-prolific,3.2.4,Win32,60,5ebac91735226005282f48dd,,1,0,81,60,1,80
,,,,,,,,,,,,,,,,,,,,,,,,,,,,,,,,,,,,,,,,,l,1.664999962,PL,FALSE,,,,,,,168,planta,Catalan,Sounds/cat_planta.mp3,2020-06-05_17h09.45.594,TranslationElicitation_eng-prolific,3.2.4,Win32,60,5ebac91735226005282f48dd,,1,0,81,60,1,80
,,,,,,,,,,,,,,,,,,,,,,,,,,,,,,,,,,,,,,,,,a,1.76699996,PLA,FALSE,,,,,,,168,planta,Catalan,Sounds/cat_planta.mp3,2020-06-05_17h09.45.594,TranslationElicitation_eng-prolific,3.2.4,Win32,60,5ebac91735226005282f48dd,,1,0,81,60,1,80
,,,,,,,,,,,,,,,,,,,,,,,,,,,,,,,,,,,,,,,,,n,1.950000048,PLAN,FALSE,,,,,,,168,planta,Catalan,Sounds/cat_planta.mp3,2020-06-05_17h09.45.594,TranslationElicitation_eng-prolific,3.2.4,Win32,60,5ebac91735226005282f48dd,,1,0,81,60,1,80
,,,,,,,,,,,,,,,,,,,,,,,,,,,,,,,,,,,,,,,,,t,2.414999962,PLANT,FALSE,,,,,,,168,planta,Catalan,Sounds/cat_planta.mp3,2020-06-05_17h09.45.594,TranslationElicitation_eng-prolific,3.2.4,Win32,60,5ebac91735226005282f48dd,,1,0,81,60,1,80
,,,,,,,,,,,,,,,,,,,,,,,,,,,,,,,,,,,,,,,,,return,3.433000088,PLANT,FALSE,,,,,,,168,planta,Catalan,Sounds/cat_planta.mp3,2020-06-05_17h09.45.594,TranslationElicitation_eng-prolific,3.2.4,Win32,60,5ebac91735226005282f48dd,3.433000088,1,0,81,60,1,80
,,,,,,,,,,,,,,,,,,,,,,,,,,,,,,,,,,,,,,,,,,,,,,,,,,,168,planta,Catalan,Sounds/cat_planta.mp3,2020-06-05_17h09.45.594,TranslationElicitation_eng-prolific,3.2.4,Win32,60,5ebac91735226005282f48dd,,1,0,81,60,1,80
,,,,,,,,,,,,,,,,,,,,,,,,,,,,,,,,,,,,,,,,,g,2.415999889,G,FALSE,,,,,,,145,got,Catalan,Sounds/cat_got.mp3,2020-06-05_17h09.45.594,TranslationElicitation_eng-prolific,3.2.4,Win32,60,5ebac91735226005282f48dd,,1,0,81,39,1,80
,,,,,,,,,,,,,,,,,,,,,,,,,,,,,,,,,,,,,,,,,o,2.681999922,GO,FALSE,,,,,,,145,got,Catalan,Sounds/cat_got.mp3,2020-06-05_17h09.45.594,TranslationElicitation_eng-prolific,3.2.4,Win32,60,5ebac91735226005282f48dd,,1,0,81,39,1,80
,,,,,,,,,,,,,,,,,,,,,,,,,,,,,,,,,,,,,,,,,d,2.782999992,GOD,FALSE,,,,,,,145,got,Catalan,Sounds/cat_got.mp3,2020-06-05_17h09.45.594,TranslationElicitation_eng-prolific,3.2.4,Win32,60,5ebac91735226005282f48dd,,1,0,81,39,1,80
,,,,,,,,,,,,,,,,,,,,,,,,,,,,,,,,,,,,,,,,,return,3.315999985,GOD,FALSE,,,,,,,145,got,Catalan,Sounds/cat_got.mp3,2020-06-05_17h09.45.594,TranslationElicitation_eng-prolific,3.2.4,Win32,60,5ebac91735226005282f48dd,3.315999985,1,0,81,39,1,80
,,,,,,,,,,,,,,,,,,,,,,,,,,,,,,,,,,,,,,,,,,,,,,,,,,,145,got,Catalan,Sounds/cat_got.mp3,2020-06-05_17h09.45.594,TranslationElicitation_eng-prolific,3.2.4,Win32,60,5ebac91735226005282f48dd,,1,0,81,39,1,80
,,,,,,,,,,,,,,,,,,,,,,,,,,,,,,,,,,,,,,,,,b,8.901000023,B,FALSE,,,,,,,112,bici,Catalan,Sounds/cat_bici.mp3,2020-06-05_17h09.45.594,TranslationElicitation_eng-prolific,3.2.4,Win32,60,5ebac91735226005282f48dd,,1,0,81,7,1,80
,,,,,,,,,,,,,,,,,,,,,,,,,,,,,,,,,,,,,,,,,e,9.049000025,BE,FALSE,,,,,,,112,bici,Catalan,Sounds/cat_bici.mp3,2020-06-05_17h09.45.594,TranslationElicitation_eng-prolific,3.2.4,Win32,60,5ebac91735226005282f48dd,,1,0,81,7,1,80
,,,,,,,,,,,,,,,,,,,,,,,,,,,,,,,,,,,,,,,,,e,9.200999975,BEE,FALSE,,,,,,,112,bici,Catalan,Sounds/cat_bici.mp3,2020-06-05_17h09.45.594,TranslationElicitation_eng-prolific,3.2.4,Win32,60,5ebac91735226005282f48dd,,1,0,81,7,1,80
,,,,,,,,,,,,,,,,,,,,,,,,,,,,,,,,,,,,,,,,,return,9.467000008,BEE,FALSE,,,,,,,112,bici,Catalan,Sounds/cat_bici.mp3,2020-06-05_17h09.45.594,TranslationElicitation_eng-prolific,3.2.4,Win32,60,5ebac91735226005282f48dd,9.467000008,1,0,81,7,1,80
,,,,,,,,,,,,,,,,,,,,,,,,,,,,,,,,,,,,,,,,,,,,,,,,,,,112,bici,Catalan,Sounds/cat_bici.mp3,2020-06-05_17h09.45.594,TranslationElicitation_eng-prolific,3.2.4,Win32,60,5ebac91735226005282f48dd,,1,0,81,7,1,80
,,,,,,,,,,,,,,,,,,,,,,,,,,,,,,,,,,,,,,,,,e,3.548000097,E,FALSE,,,,,,,130,entrepa,Catalan,Sounds/cat_entrepa.mp3,2020-06-05_17h09.45.594,TranslationElicitation_eng-prolific,3.2.4,Win32,60,5ebac91735226005282f48dd,,1,0,81,24,1,80
,,,,,,,,,,,,,,,,,,,,,,,,,,,,,,,,,,,,,,,,,n,3.69900012,EN,FALSE,,,,,,,130,entrepa,Catalan,Sounds/cat_entrepa.mp3,2020-06-05_17h09.45.594,TranslationElicitation_eng-prolific,3.2.4,Win32,60,5ebac91735226005282f48dd,,1,0,81,24,1,80
,,,,,,,,,,,,,,,,,,,,,,,,,,,,,,,,,,,,,,,,,t,4.03399992,ENT,FALSE,,,,,,,130,entrepa,Catalan,Sounds/cat_entrepa.mp3,2020-06-05_17h09.45.594,TranslationElicitation_eng-prolific,3.2.4,Win32,60,5ebac91735226005282f48dd,,1,0,81,24,1,80
,,,,,,,,,,,,,,,,,,,,,,,,,,,,,,,,,,,,,,,,,e,4.166000128,ENTE,FALSE,,,,,,,130,entrepa,Catalan,Sounds/cat_entrepa.mp3,2020-06-05_17h09.45.594,TranslationElicitation_eng-prolific,3.2.4,Win32,60,5ebac91735226005282f48dd,,1,0,81,24,1,80
,,,,,,,,,,,,,,,,,,,,,,,,,,,,,,,,,,,,,,,,,r,4.335000038,ENTER,FALSE,,,,,,,130,entrepa,Catalan,Sounds/cat_entrepa.mp3,2020-06-05_17h09.45.594,TranslationElicitation_eng-prolific,3.2.4,Win32,60,5ebac91735226005282f48dd,,1,0,81,24,1,80
,,,,,,,,,,,,,,,,,,,,,,,,,,,,,,,,,,,,,,,,,backspace,5.082999945,ENTE,TRUE,,,,,,,130,entrepa,Catalan,Sounds/cat_entrepa.mp3,2020-06-05_17h09.45.594,TranslationElicitation_eng-prolific,3.2.4,Win32,60,5ebac91735226005282f48dd,,1,0,81,24,1,80
,,,,,,,,,,,,,,,,,,,,,,,,,,,,,,,,,,,,,,,,,backspace,5.220000029,ENT,TRUE,,,,,,,130,entrepa,Catalan,Sounds/cat_entrepa.mp3,2020-06-05_17h09.45.594,TranslationElicitation_eng-prolific,3.2.4,Win32,60,5ebac91735226005282f48dd,,1,0,81,24,1,80
,,,,,,,,,,,,,,,,,,,,,,,,,,,,,,,,,,,,,,,,,p,5.901000023,ENTP,TRUE,,,,,,,130,entrepa,Catalan,Sounds/cat_entrepa.mp3,2020-06-05_17h09.45.594,TranslationElicitation_eng-prolific,3.2.4,Win32,60,5ebac91735226005282f48dd,,1,0,81,24,1,80
,,,,,,,,,,,,,,,,,,,,,,,,,,,,,,,,,,,,,,,,,r,6.268000126,ENTPR,TRUE,,,,,,,130,entrepa,Catalan,Sounds/cat_entrepa.mp3,2020-06-05_17h09.45.594,TranslationElicitation_eng-prolific,3.2.4,Win32,60,5ebac91735226005282f48dd,,1,0,81,24,1,80
,,,,,,,,,,,,,,,,,,,,,,,,,,,,,,,,,,,,,,,,,e,6.499000072,ENTPRE,TRUE,,,,,,,130,entrepa,Catalan,Sounds/cat_entrepa.mp3,2020-06-05_17h09.45.594,TranslationElicitation_eng-prolific,3.2.4,Win32,60,5ebac91735226005282f48dd,,1,0,81,24,1,80
,,,,,,,,,,,,,,,,,,,,,,,,,,,,,,,,,,,,,,,,,p,7.128999949,ENTPREP,TRUE,,,,,,,130,entrepa,Catalan,Sounds/cat_entrepa.mp3,2020-06-05_17h09.45.594,TranslationElicitation_eng-prolific,3.2.4,Win32,60,5ebac91735226005282f48dd,,1,0,81,24,1,80
,,,,,,,,,,,,,,,,,,,,,,,,,,,,,,,,,,,,,,,,,r,7.266000032,ENTPREPR,TRUE,,,,,,,130,entrepa,Catalan,Sounds/cat_entrepa.mp3,2020-06-05_17h09.45.594,TranslationElicitation_eng-prolific,3.2.4,Win32,60,5ebac91735226005282f48dd,,1,0,81,24,1,80
,,,,,,,,,,,,,,,,,,,,,,,,,,,,,,,,,,,,,,,,,e,7.467000008,ENTPREPRE,TRUE,,,,,,,130,entrepa,Catalan,Sounds/cat_entrepa.mp3,2020-06-05_17h09.45.594,TranslationElicitation_eng-prolific,3.2.4,Win32,60,5ebac91735226005282f48dd,,1,0,81,24,1,80
,,,,,,,,,,,,,,,,,,,,,,,,,,,,,,,,,,,,,,,,,n,7.667999983,ENTPREPREN,TRUE,,,,,,,130,entrepa,Catalan,Sounds/cat_entrepa.mp3,2020-06-05_17h09.45.594,TranslationElicitation_eng-prolific,3.2.4,Win32,60,5ebac91735226005282f48dd,,1,0,81,24,1,80
,,,,,,,,,,,,,,,,,,,,,,,,,,,,,,,,,,,,,,,,,u,8.44900012,ENTPREPRENU,TRUE,,,,,,,130,entrepa,Catalan,Sounds/cat_entrepa.mp3,2020-06-05_17h09.45.594,TranslationElicitation_eng-prolific,3.2.4,Win32,60,5ebac91735226005282f48dd,,1,0,81,24,1,80
,,,,,,,,,,,,,,,,,,,,,,,,,,,,,,,,,,,,,,,,,e,8.611999989,ENTPREPRENUE,TRUE,,,,,,,130,entrepa,Catalan,Sounds/cat_entrepa.mp3,2020-06-05_17h09.45.594,TranslationElicitation_eng-prolific,3.2.4,Win32,60,5ebac91735226005282f48dd,,1,0,81,24,1,80
,,,,,,,,,,,,,,,,,,,,,,,,,,,,,,,,,,,,,,,,,backspace,9.28399992,ENTPREPRENU,TRUE,,,,,,,130,entrepa,Catalan,Sounds/cat_entrepa.mp3,2020-06-05_17h09.45.594,TranslationElicitation_eng-prolific,3.2.4,Win32,60,5ebac91735226005282f48dd,,1,0,81,24,1,80
,,,,,,,,,,,,,,,,,,,,,,,,,,,,,,,,,,,,,,,,,backspace,9.882999897,ENTPREPREN,TRUE,,,,,,,130,entrepa,Catalan,Sounds/cat_entrepa.mp3,2020-06-05_17h09.45.594,TranslationElicitation_eng-prolific,3.2.4,Win32,60,5ebac91735226005282f48dd,,1,0,81,24,1,80
,,,,,,,,,,,,,,,,,,,,,,,,,,,,,,,,,,,,,,,,,backspace,9.917000055,ENTPREPRE,TRUE,,,,,,,130,entrepa,Catalan,Sounds/cat_entrepa.mp3,2020-06-05_17h09.45.594,TranslationElicitation_eng-prolific,3.2.4,Win32,60,5ebac91735226005282f48dd,,1,0,81,24,1,80
,,,,,,,,,,,,,,,,,,,,,,,,,,,,,,,,,,,,,,,,,backspace,9.950999975,ENTPREPR,TRUE,,,,,,,130,entrepa,Catalan,Sounds/cat_entrepa.mp3,2020-06-05_17h09.45.594,TranslationElicitation_eng-prolific,3.2.4,Win32,60,5ebac91735226005282f48dd,,1,0,81,24,1,80
,,,,,,,,,,,,,,,,,,,,,,,,,,,,,,,,,,,,,,,,,backspace,9.983999968,ENTPREP,TRUE,,,,,,,130,entrepa,Catalan,Sounds/cat_entrepa.mp3,2020-06-05_17h09.45.594,TranslationElicitation_eng-prolific,3.2.4,Win32,60,5ebac91735226005282f48dd,,1,0,81,24,1,80
,,,,,,,,,,,,,,,,,,,,,,,,,,,,,,,,,,,,,,,,,backspace,10.01699996,ENTPRE,TRUE,,,,,,,130,entrepa,Catalan,Sounds/cat_entrepa.mp3,2020-06-05_17h09.45.594,TranslationElicitation_eng-prolific,3.2.4,Win32,60,5ebac91735226005282f48dd,,1,0,81,24,1,80
,,,,,,,,,,,,,,,,,,,,,,,,,,,,,,,,,,,,,,,,,backspace,10.05999994,ENTPR,TRUE,,,,,,,130,entrepa,Catalan,Sounds/cat_entrepa.mp3,2020-06-05_17h09.45.594,TranslationElicitation_eng-prolific,3.2.4,Win32,60,5ebac91735226005282f48dd,,1,0,81,24,1,80
,,,,,,,,,,,,,,,,,,,,,,,,,,,,,,,,,,,,,,,,,backspace,10.08400011,ENTP,TRUE,,,,,,,130,entrepa,Catalan,Sounds/cat_entrepa.mp3,2020-06-05_17h09.45.594,TranslationElicitation_eng-prolific,3.2.4,Win32,60,5ebac91735226005282f48dd,,1,0,81,24,1,80
,,,,,,,,,,,,,,,,,,,,,,,,,,,,,,,,,,,,,,,,,backspace,10.11599994,ENT,TRUE,,,,,,,130,entrepa,Catalan,Sounds/cat_entrepa.mp3,2020-06-05_17h09.45.594,TranslationElicitation_eng-prolific,3.2.4,Win32,60,5ebac91735226005282f48dd,,1,0,81,24,1,80
,,,,,,,,,,,,,,,,,,,,,,,,,,,,,,,,,,,,,,,,,backspace,10.1500001,EN,TRUE,,,,,,,130,entrepa,Catalan,Sounds/cat_entrepa.mp3,2020-06-05_17h09.45.594,TranslationElicitation_eng-prolific,3.2.4,Win32,60,5ebac91735226005282f48dd,,1,0,81,24,1,80
,,,,,,,,,,,,,,,,,,,,,,,,,,,,,,,,,,,,,,,,,backspace,10.18400002,E,TRUE,,,,,,,130,entrepa,Catalan,Sounds/cat_entrepa.mp3,2020-06-05_17h09.45.594,TranslationElicitation_eng-prolific,3.2.4,Win32,60,5ebac91735226005282f48dd,,1,0,81,24,1,80
,,,,,,,,,,,,,,,,,,,,,,,,,,,,,,,,,,,,,,,,,backspace,10.21700001,,TRUE,,,,,,,130,entrepa,Catalan,Sounds/cat_entrepa.mp3,2020-06-05_17h09.45.594,TranslationElicitation_eng-prolific,3.2.4,Win32,60,5ebac91735226005282f48dd,,1,0,81,24,1,80
,,,,,,,,,,,,,,,,,,,,,,,,,,,,,,,,,,,,,,,,,e,24.13499999,E,TRUE,,,,,,,130,entrepa,Catalan,Sounds/cat_entrepa.mp3,2020-06-05_17h09.45.594,TranslationElicitation_eng-prolific,3.2.4,Win32,60,5ebac91735226005282f48dd,,1,0,81,24,1,80
,,,,,,,,,,,,,,,,,,,,,,,,,,,,,,,,,,,,,,,,,n,24.20099998,EN,TRUE,,,,,,,130,entrepa,Catalan,Sounds/cat_entrepa.mp3,2020-06-05_17h09.45.594,TranslationElicitation_eng-prolific,3.2.4,Win32,60,5ebac91735226005282f48dd,,1,0,81,24,1,80
,,,,,,,,,,,,,,,,,,,,,,,,,,,,,,,,,,,,,,,,,t,24.63400006,ENT,TRUE,,,,,,,130,entrepa,Catalan,Sounds/cat_entrepa.mp3,2020-06-05_17h09.45.594,TranslationElicitation_eng-prolific,3.2.4,Win32,60,5ebac91735226005282f48dd,,1,0,81,24,1,80
,,,,,,,,,,,,,,,,,,,,,,,,,,,,,,,,,,,,,,,,,r,24.78399992,ENTR,TRUE,,,,,,,130,entrepa,Catalan,Sounds/cat_entrepa.mp3,2020-06-05_17h09.45.594,TranslationElicitation_eng-prolific,3.2.4,Win32,60,5ebac91735226005282f48dd,,1,0,81,24,1,80
,,,,,,,,,,,,,,,,,,,,,,,,,,,,,,,,,,,,,,,,,e,24.96700001,ENTRE,TRUE,,,,,,,130,entrepa,Catalan,Sounds/cat_entrepa.mp3,2020-06-05_17h09.45.594,TranslationElicitation_eng-prolific,3.2.4,Win32,60,5ebac91735226005282f48dd,,1,0,81,24,1,80
,,,,,,,,,,,,,,,,,,,,,,,,,,,,,,,,,,,,,,,,,p,25.25099993,ENTREP,TRUE,,,,,,,130,entrepa,Catalan,Sounds/cat_entrepa.mp3,2020-06-05_17h09.45.594,TranslationElicitation_eng-prolific,3.2.4,Win32,60,5ebac91735226005282f48dd,,1,0,81,24,1,80
,,,,,,,,,,,,,,,,,,,,,,,,,,,,,,,,,,,,,,,,,r,25.48399997,ENTREPR,TRUE,,,,,,,130,entrepa,Catalan,Sounds/cat_entrepa.mp3,2020-06-05_17h09.45.594,TranslationElicitation_eng-prolific,3.2.4,Win32,60,5ebac91735226005282f48dd,,1,0,81,24,1,80
,,,,,,,,,,,,,,,,,,,,,,,,,,,,,,,,,,,,,,,,,e,25.60100007,ENTREPRE,TRUE,,,,,,,130,entrepa,Catalan,Sounds/cat_entrepa.mp3,2020-06-05_17h09.45.594,TranslationElicitation_eng-prolific,3.2.4,Win32,60,5ebac91735226005282f48dd,,1,0,81,24,1,80
,,,,,,,,,,,,,,,,,,,,,,,,,,,,,,,,,,,,,,,,,n,26.11800003,ENTREPREN,TRUE,,,,,,,130,entrepa,Catalan,Sounds/cat_entrepa.mp3,2020-06-05_17h09.45.594,TranslationElicitation_eng-prolific,3.2.4,Win32,60,5ebac91735226005282f48dd,,1,0,81,24,1,80
,,,,,,,,,,,,,,,,,,,,,,,,,,,,,,,,,,,,,,,,,r,27.63499999,ENTREPRENR,TRUE,,,,,,,130,entrepa,Catalan,Sounds/cat_entrepa.mp3,2020-06-05_17h09.45.594,TranslationElicitation_eng-prolific,3.2.4,Win32,60,5ebac91735226005282f48dd,,1,0,81,24,1,80
,,,,,,,,,,,,,,,,,,,,,,,,,,,,,,,,,,,,,,,,,u,28.40100002,ENTREPRENRU,TRUE,,,,,,,130,entrepa,Catalan,Sounds/cat_entrepa.mp3,2020-06-05_17h09.45.594,TranslationElicitation_eng-prolific,3.2.4,Win32,60,5ebac91735226005282f48dd,,1,0,81,24,1,80
,,,,,,,,,,,,,,,,,,,,,,,,,,,,,,,,,,,,,,,,,backspace,28.86800003,ENTREPRENR,TRUE,,,,,,,130,entrepa,Catalan,Sounds/cat_entrepa.mp3,2020-06-05_17h09.45.594,TranslationElicitation_eng-prolific,3.2.4,Win32,60,5ebac91735226005282f48dd,,1,0,81,24,1,80
,,,,,,,,,,,,,,,,,,,,,,,,,,,,,,,,,,,,,,,,,backspace,29.13499999,ENTREPREN,TRUE,,,,,,,130,entrepa,Catalan,Sounds/cat_entrepa.mp3,2020-06-05_17h09.45.594,TranslationElicitation_eng-prolific,3.2.4,Win32,60,5ebac91735226005282f48dd,,1,0,81,24,1,80
,,,,,,,,,,,,,,,,,,,,,,,,,,,,,,,,,,,,,,,,,backspace,29.26699996,ENTREPRE,TRUE,,,,,,,130,entrepa,Catalan,Sounds/cat_entrepa.mp3,2020-06-05_17h09.45.594,TranslationElicitation_eng-prolific,3.2.4,Win32,60,5ebac91735226005282f48dd,,1,0,81,24,1,80
,,,,,,,,,,,,,,,,,,,,,,,,,,,,,,,,,,,,,,,,,backspace,29.40100002,ENTREPR,TRUE,,,,,,,130,entrepa,Catalan,Sounds/cat_entrepa.mp3,2020-06-05_17h09.45.594,TranslationElicitation_eng-prolific,3.2.4,Win32,60,5ebac91735226005282f48dd,,1,0,81,24,1,80
,,,,,,,,,,,,,,,,,,,,,,,,,,,,,,,,,,,,,,,,,backspace,29.51800013,ENTREP,TRUE,,,,,,,130,entrepa,Catalan,Sounds/cat_entrepa.mp3,2020-06-05_17h09.45.594,TranslationElicitation_eng-prolific,3.2.4,Win32,60,5ebac91735226005282f48dd,,1,0,81,24,1,80
,,,,,,,,,,,,,,,,,,,,,,,,,,,,,,,,,,,,,,,,,backspace,29.66799998,ENTRE,TRUE,,,,,,,130,entrepa,Catalan,Sounds/cat_entrepa.mp3,2020-06-05_17h09.45.594,TranslationElicitation_eng-prolific,3.2.4,Win32,60,5ebac91735226005282f48dd,,1,0,81,24,1,80
,,,,,,,,,,,,,,,,,,,,,,,,,,,,,,,,,,,,,,,,,backspace,29.78299999,ENTR,TRUE,,,,,,,130,entrepa,Catalan,Sounds/cat_entrepa.mp3,2020-06-05_17h09.45.594,TranslationElicitation_eng-prolific,3.2.4,Win32,60,5ebac91735226005282f48dd,,1,0,81,24,1,80
,,,,,,,,,,,,,,,,,,,,,,,,,,,,,,,,,,,,,,,,,backspace,31.13400006,ENT,TRUE,,,,,,,130,entrepa,Catalan,Sounds/cat_entrepa.mp3,2020-06-05_17h09.45.594,TranslationElicitation_eng-prolific,3.2.4,Win32,60,5ebac91735226005282f48dd,,1,0,81,24,1,80
,,,,,,,,,,,,,,,,,,,,,,,,,,,,,,,,,,,,,,,,,r,32.2019999,ENTR,TRUE,,,,,,,130,entrepa,Catalan,Sounds/cat_entrepa.mp3,2020-06-05_17h09.45.594,TranslationElicitation_eng-prolific,3.2.4,Win32,60,5ebac91735226005282f48dd,,1,0,81,24,1,80
,,,,,,,,,,,,,,,,,,,,,,,,,,,,,,,,,,,,,,,,,e,32.4000001,ENTRE,TRUE,,,,,,,130,entrepa,Catalan,Sounds/cat_entrepa.mp3,2020-06-05_17h09.45.594,TranslationElicitation_eng-prolific,3.2.4,Win32,60,5ebac91735226005282f48dd,,1,0,81,24,1,80
,,,,,,,,,,,,,,,,,,,,,,,,,,,,,,,,,,,,,,,,,p,33.55200005,ENTREP,TRUE,,,,,,,130,entrepa,Catalan,Sounds/cat_entrepa.mp3,2020-06-05_17h09.45.594,TranslationElicitation_eng-prolific,3.2.4,Win32,60,5ebac91735226005282f48dd,,1,0,81,24,1,80
,,,,,,,,,,,,,,,,,,,,,,,,,,,,,,,,,,,,,,,,,r,33.7349999,ENTREPR,TRUE,,,,,,,130,entrepa,Catalan,Sounds/cat_entrepa.mp3,2020-06-05_17h09.45.594,TranslationElicitation_eng-prolific,3.2.4,Win32,60,5ebac91735226005282f48dd,,1,0,81,24,1,80
,,,,,,,,,,,,,,,,,,,,,,,,,,,,,,,,,,,,,,,,,e,33.91700006,ENTREPRE,TRUE,,,,,,,130,entrepa,Catalan,Sounds/cat_entrepa.mp3,2020-06-05_17h09.45.594,TranslationElicitation_eng-prolific,3.2.4,Win32,60,5ebac91735226005282f48dd,,1,0,81,24,1,80
,,,,,,,,,,,,,,,,,,,,,,,,,,,,,,,,,,,,,,,,,n,34.26999998,ENTREPREN,TRUE,,,,,,,130,entrepa,Catalan,Sounds/cat_entrepa.mp3,2020-06-05_17h09.45.594,TranslationElicitation_eng-prolific,3.2.4,Win32,60,5ebac91735226005282f48dd,,1,0,81,24,1,80
,,,,,,,,,,,,,,,,,,,,,,,,,,,,,,,,,,,,,,,,,e,34.43499994,ENTREPRENE,TRUE,,,,,,,130,entrepa,Catalan,Sounds/cat_entrepa.mp3,2020-06-05_17h09.45.594,TranslationElicitation_eng-prolific,3.2.4,Win32,60,5ebac91735226005282f48dd,,1,0,81,24,1,80
,,,,,,,,,,,,,,,,,,,,,,,,,,,,,,,,,,,,,,,,,u,34.63499999,ENTREPRENEU,TRUE,,,,,,,130,entrepa,Catalan,Sounds/cat_entrepa.mp3,2020-06-05_17h09.45.594,TranslationElicitation_eng-prolific,3.2.4,Win32,60,5ebac91735226005282f48dd,,1,0,81,24,1,80
,,,,,,,,,,,,,,,,,,,,,,,,,,,,,,,,,,,,,,,,,r,34.75200009,ENTREPRENEUR,TRUE,,,,,,,130,entrepa,Catalan,Sounds/cat_entrepa.mp3,2020-06-05_17h09.45.594,TranslationElicitation_eng-prolific,3.2.4,Win32,60,5ebac91735226005282f48dd,,1,0,81,24,1,80
,,,,,,,,,,,,,,,,,,,,,,,,,,,,,,,,,,,,,,,,,return,35.28600001,ENTREPRENEUR,TRUE,,,,,,,130,entrepa,Catalan,Sounds/cat_entrepa.mp3,2020-06-05_17h09.45.594,TranslationElicitation_eng-prolific,3.2.4,Win32,60,5ebac91735226005282f48dd,35.28600001,1,0,81,24,1,80
,,,,,,,,,,,,,,,,,,,,,,,,,,,,,,,,,,,,,,,,,,,,,,,,,,,130,entrepa,Catalan,Sounds/cat_entrepa.mp3,2020-06-05_17h09.45.594,TranslationElicitation_eng-prolific,3.2.4,Win32,60,5ebac91735226005282f48dd,,1,0,81,24,1,80
,,,,,,,,,,,,,,,,,,,,,,,,,,,,,,,,,,,,,,,,,g,5.039000034,G,FALSE,,,,,,,142,girafa,Catalan,Sounds/cat_girafa.mp3,2020-06-05_17h09.45.594,TranslationElicitation_eng-prolific,3.2.4,Win32,60,5ebac91735226005282f48dd,,1,0,81,36,1,80
,,,,,,,,,,,,,,,,,,,,,,,,,,,,,,,,,,,,,,,,,i,7.76699996,GI,FALSE,,,,,,,142,girafa,Catalan,Sounds/cat_girafa.mp3,2020-06-05_17h09.45.594,TranslationElicitation_eng-prolific,3.2.4,Win32,60,5ebac91735226005282f48dd,,1,0,81,36,1,80
,,,,,,,,,,,,,,,,,,,,,,,,,,,,,,,,,,,,,,,,,r,8.066999912,GIR,FALSE,,,,,,,142,girafa,Catalan,Sounds/cat_girafa.mp3,2020-06-05_17h09.45.594,TranslationElicitation_eng-prolific,3.2.4,Win32,60,5ebac91735226005282f48dd,,1,0,81,36,1,80
,,,,,,,,,,,,,,,,,,,,,,,,,,,,,,,,,,,,,,,,,a,8.487999916,GIRA,FALSE,,,,,,,142,girafa,Catalan,Sounds/cat_girafa.mp3,2020-06-05_17h09.45.594,TranslationElicitation_eng-prolific,3.2.4,Win32,60,5ebac91735226005282f48dd,,1,0,81,36,1,80
,,,,,,,,,,,,,,,,,,,,,,,,,,,,,,,,,,,,,,,,,g,8.649999857,GIRAG,FALSE,,,,,,,142,girafa,Catalan,Sounds/cat_girafa.mp3,2020-06-05_17h09.45.594,TranslationElicitation_eng-prolific,3.2.4,Win32,60,5ebac91735226005282f48dd,,1,0,81,36,1,80
,,,,,,,,,,,,,,,,,,,,,,,,,,,,,,,,,,,,,,,,,backspace,9.083999872,GIRA,TRUE,,,,,,,142,girafa,Catalan,Sounds/cat_girafa.mp3,2020-06-05_17h09.45.594,TranslationElicitation_eng-prolific,3.2.4,Win32,60,5ebac91735226005282f48dd,,1,0,81,36,1,80
,,,,,,,,,,,,,,,,,,,,,,,,,,,,,,,,,,,,,,,,,f,9.167999983,GIRAF,TRUE,,,,,,,142,girafa,Catalan,Sounds/cat_girafa.mp3,2020-06-05_17h09.45.594,TranslationElicitation_eng-prolific,3.2.4,Win32,60,5ebac91735226005282f48dd,,1,0,81,36,1,80
,,,,,,,,,,,,,,,,,,,,,,,,,,,,,,,,,,,,,,,,,f,9.388000011,GIRAFF,TRUE,,,,,,,142,girafa,Catalan,Sounds/cat_girafa.mp3,2020-06-05_17h09.45.594,TranslationElicitation_eng-prolific,3.2.4,Win32,60,5ebac91735226005282f48dd,,1,0,81,36,1,80
,,,,,,,,,,,,,,,,,,,,,,,,,,,,,,,,,,,,,,,,,e,9.633999825,GIRAFFE,TRUE,,,,,,,142,girafa,Catalan,Sounds/cat_girafa.mp3,2020-06-05_17h09.45.594,TranslationElicitation_eng-prolific,3.2.4,Win32,60,5ebac91735226005282f48dd,,1,0,81,36,1,80
,,,,,,,,,,,,,,,,,,,,,,,,,,,,,,,,,,,,,,,,,return,9.883999825,GIRAFFE,TRUE,,,,,,,142,girafa,Catalan,Sounds/cat_girafa.mp3,2020-06-05_17h09.45.594,TranslationElicitation_eng-prolific,3.2.4,Win32,60,5ebac91735226005282f48dd,9.883999825,1,0,81,36,1,80
,,,,,,,,,,,,,,,,,,,,,,,,,,,,,,,,,,,,,,,,,,,,,,,,,,,142,girafa,Catalan,Sounds/cat_girafa.mp3,2020-06-05_17h09.45.594,TranslationElicitation_eng-prolific,3.2.4,Win32,60,5ebac91735226005282f48dd,,1,0,81,36,1,80
,,,,,,,,,,,,,,,,,,,,,,,,,,,,,,,,,,,,,,,,,a,2.384000063,A,FALSE,,,,,,,104,abella,Catalan,Sounds/cat_abella.mp3,2020-06-05_17h09.45.594,TranslationElicitation_eng-prolific,3.2.4,Win32,60,5ebac91735226005282f48dd,,1,0,81,0,1,80
,,,,,,,,,,,,,,,,,,,,,,,,,,,,,,,,,,,,,,,,,v,2.517000198,AV,FALSE,,,,,,,104,abella,Catalan,Sounds/cat_abella.mp3,2020-06-05_17h09.45.594,TranslationElicitation_eng-prolific,3.2.4,Win32,60,5ebac91735226005282f48dd,,1,0,81,0,1,80
,,,,,,,,,,,,,,,,,,,,,,,,,,,,,,,,,,,,,,,,,a,2.667000055,AVA,FALSE,,,,,,,104,abella,Catalan,Sounds/cat_abella.mp3,2020-06-05_17h09.45.594,TranslationElicitation_eng-prolific,3.2.4,Win32,60,5ebac91735226005282f48dd,,1,0,81,0,1,80
,,,,,,,,,,,,,,,,,,,,,,,,,,,,,,,,,,,,,,,,,i,2.815999985,AVAI,FALSE,,,,,,,104,abella,Catalan,Sounds/cat_abella.mp3,2020-06-05_17h09.45.594,TranslationElicitation_eng-prolific,3.2.4,Win32,60,5ebac91735226005282f48dd,,1,0,81,0,1,80
,,,,,,,,,,,,,,,,,,,,,,,,,,,,,,,,,,,,,,,,,l,2.982000113,AVAIL,FALSE,,,,,,,104,abella,Catalan,Sounds/cat_abella.mp3,2020-06-05_17h09.45.594,TranslationElicitation_eng-prolific,3.2.4,Win32,60,5ebac91735226005282f48dd,,1,0,81,0,1,80
,,,,,,,,,,,,,,,,,,,,,,,,,,,,,,,,,,,,,,,,,a,3.498000145,AVAILA,FALSE,,,,,,,104,abella,Catalan,Sounds/cat_abella.mp3,2020-06-05_17h09.45.594,TranslationElicitation_eng-prolific,3.2.4,Win32,60,5ebac91735226005282f48dd,,1,0,81,0,1,80
