consentKey.keys,consentKey.rt,languageL1Key.keys,languageL1Key.rt,languageL2,languageL2OralKey.keys,languageL2OralKey.rt,languageL2WrittenKey.keys,languageL2WrittenKey.rt,languageL3OralKey.keys,languageL3OralKey.rt,languageL3WrittenKey.keys,languageL3WrittenKey.rt,languageCatalanOralKey.keys,languageCatalanOralKey.rt,languageCatalanWrittenKey.keys,languageCatalanWrittenKey.rt,languageCatalanTimeKey.keys,languageCatalanTimeKey.rt,languageSpanishOralKey.keys,languageSpanishOralKey.rt,languageSpanishWrittenKey.keys,languageSpanishWrittenKey.rt,languageSpanishTimeKey.keys,languageSpanishTimeKey.rt,age,demoSexKey.keys,demoSexKey.rt,demoEducationKey.keys,demoEducationKey.rt,city,demoVisionKey.keys,demoVisionKey.rt,demoLanguageKey.keys,demoLanguageKey.rt,setupLocationKey.keys,setupLocationKey.rt,setupNoiseKey.keys,setupNoiseKey.rt,instructionsKeys.keys,instructionsKeys.rt,keyPressed,keyPressTime,inputText,error,trialsPracticeCatalan.thisRepN,trialsPracticeCatalan.thisTrialN,trialsPracticeCatalan.thisN,trialsPracticeCatalan.thisIndex,trialsPracticeCatalan.ran,trialsPracticeCatalan.order,trial_id,word,test_language,soundfile,date,expName,psychopyVersion,OS,frameRate,participant,trialOffset,trialsCatalan.thisRepN,trialsCatalan.thisTrialN,trialsCatalan.thisN,trialsCatalan.thisIndex,trialsCatalan.ran,trialsCatalan.order
space,0.635999918,e,1.570999861,,,,,,,,,,1,1.244999886,1,0.548999786,1,0.53399992,1,0.716999769,1,0.585999966,1,0.447999954,25,m,1.320999861,4,1.493000031,BRISTOL,y,2.000999928,n,1.3349998,1,1.503999949,2,1.147000074,space,24.15999985,c,1.717000008,C,FALSE,1,0,5,1,1,4,126,corona,Catalan,Sounds/cat_corona.mp3,2020-06-12_20h53.01.662,TranslationElicitation_eng-prolific,3.2.4,MacIntel,60,5ebd2a07fa52241862dbca05,,,,,,,
,,,,,,,,,,,,,,,,,,,,,,,,,,,,,,,,,,,,,,,,,o,1.865999937,CO,FALSE,1,0,5,1,1,4,126,corona,Catalan,Sounds/cat_corona.mp3,2020-06-12_20h53.01.662,TranslationElicitation_eng-prolific,3.2.4,MacIntel,60,5ebd2a07fa52241862dbca05,,,,,,,
,,,,,,,,,,,,,,,,,,,,,,,,,,,,,,,,,,,,,,,,,r,2.151000023,COR,FALSE,1,0,5,1,1,4,126,corona,Catalan,Sounds/cat_corona.mp3,2020-06-12_20h53.01.662,TranslationElicitation_eng-prolific,3.2.4,MacIntel,60,5ebd2a07fa52241862dbca05,,,,,,,
,,,,,,,,,,,,,,,,,,,,,,,,,,,,,,,,,,,,,,,,,o,2.315999985,CORO,FALSE,1,0,5,1,1,4,126,corona,Catalan,Sounds/cat_corona.mp3,2020-06-12_20h53.01.662,TranslationElicitation_eng-prolific,3.2.4,MacIntel,60,5ebd2a07fa52241862dbca05,,,,,,,
,,,,,,,,,,,,,,,,,,,,,,,,,,,,,,,,,,,,,,,,,n,2.5,CORON,FALSE,1,0,5,1,1,4,126,corona,Catalan,Sounds/cat_corona.mp3,2020-06-12_20h53.01.662,TranslationElicitation_eng-prolific,3.2.4,MacIntel,60,5ebd2a07fa52241862dbca05,,,,,,,
,,,,,,,,,,,,,,,,,,,,,,,,,,,,,,,,,,,,,,,,,a,2.633000135,CORONA,FALSE,1,0,5,1,1,4,126,corona,Catalan,Sounds/cat_corona.mp3,2020-06-12_20h53.01.662,TranslationElicitation_eng-prolific,3.2.4,MacIntel,60,5ebd2a07fa52241862dbca05,,,,,,,
,,,,,,,,,,,,,,,,,,,,,,,,,,,,,,,,,,,,,,,,,return,3.582999945,CORONA,FALSE,1,0,5,1,1,4,126,corona,Catalan,Sounds/cat_corona.mp3,2020-06-12_20h53.01.662,TranslationElicitation_eng-prolific,3.2.4,MacIntel,60,5ebd2a07fa52241862dbca05,3.582999945,,,,,,
,,,,,,,,,,,,,,,,,,,,,,,,,,,,,,,,,,,,,,,,,,,,,1,0,5,1,1,4,126,corona,Catalan,Sounds/cat_corona.mp3,2020-06-12_20h53.01.662,TranslationElicitation_eng-prolific,3.2.4,MacIntel,60,5ebd2a07fa52241862dbca05,,,,,,,
,,,,,,,,,,,,,,,,,,,,,,,,,,,,,,,,,,,,,,,,,t,1.998999834,T,FALSE,1,0,5,4,1,4,179,tigre,Catalan,Sounds/cat_tigre.mp3,2020-06-12_20h53.01.662,TranslationElicitation_eng-prolific,3.2.4,MacIntel,60,5ebd2a07fa52241862dbca05,,,,,,,
,,,,,,,,,,,,,,,,,,,,,,,,,,,,,,,,,,,,,,,,,i,2.182999849,TI,FALSE,1,0,5,4,1,4,179,tigre,Catalan,Sounds/cat_tigre.mp3,2020-06-12_20h53.01.662,TranslationElicitation_eng-prolific,3.2.4,MacIntel,60,5ebd2a07fa52241862dbca05,,,,,,,
,,,,,,,,,,,,,,,,,,,,,,,,,,,,,,,,,,,,,,,,,g,2.415999889,TIG,FALSE,1,0,5,4,1,4,179,tigre,Catalan,Sounds/cat_tigre.mp3,2020-06-12_20h53.01.662,TranslationElicitation_eng-prolific,3.2.4,MacIntel,60,5ebd2a07fa52241862dbca05,,,,,,,
,,,,,,,,,,,,,,,,,,,,,,,,,,,,,,,,,,,,,,,,,e,2.565999985,TIGE,FALSE,1,0,5,4,1,4,179,tigre,Catalan,Sounds/cat_tigre.mp3,2020-06-12_20h53.01.662,TranslationElicitation_eng-prolific,3.2.4,MacIntel,60,5ebd2a07fa52241862dbca05,,,,,,,
,,,,,,,,,,,,,,,,,,,,,,,,,,,,,,,,,,,,,,,,,r,2.649999857,TIGER,FALSE,1,0,5,4,1,4,179,tigre,Catalan,Sounds/cat_tigre.mp3,2020-06-12_20h53.01.662,TranslationElicitation_eng-prolific,3.2.4,MacIntel,60,5ebd2a07fa52241862dbca05,,,,,,,
,,,,,,,,,,,,,,,,,,,,,,,,,,,,,,,,,,,,,,,,,return,3.214999914,TIGER,FALSE,1,0,5,4,1,4,179,tigre,Catalan,Sounds/cat_tigre.mp3,2020-06-12_20h53.01.662,TranslationElicitation_eng-prolific,3.2.4,MacIntel,60,5ebd2a07fa52241862dbca05,3.214999914,,,,,,
,,,,,,,,,,,,,,,,,,,,,,,,,,,,,,,,,,,,,,,,,,,,,1,0,5,4,1,4,179,tigre,Catalan,Sounds/cat_tigre.mp3,2020-06-12_20h53.01.662,TranslationElicitation_eng-prolific,3.2.4,MacIntel,60,5ebd2a07fa52241862dbca05,,,,,,,
,,,,,,,,,,,,,,,,,,,,,,,,,,,,,,,,,,,,,,,,,n,6.068000078,N,FALSE,1,0,5,3,1,4,159,onada,Catalan,Sounds/cat_onada.mp3,2020-06-12_20h53.01.662,TranslationElicitation_eng-prolific,3.2.4,MacIntel,60,5ebd2a07fa52241862dbca05,,,,,,,
,,,,,,,,,,,,,,,,,,,,,,,,,,,,,,,,,,,,,,,,,e,6.23300004,NE,FALSE,1,0,5,3,1,4,159,onada,Catalan,Sounds/cat_onada.mp3,2020-06-12_20h53.01.662,TranslationElicitation_eng-prolific,3.2.4,MacIntel,60,5ebd2a07fa52241862dbca05,,,,,,,
,,,,,,,,,,,,,,,,,,,,,,,,,,,,,,,,,,,,,,,,,p,6.448999882,NEP,FALSE,1,0,5,3,1,4,159,onada,Catalan,Sounds/cat_onada.mp3,2020-06-12_20h53.01.662,TranslationElicitation_eng-prolific,3.2.4,MacIntel,60,5ebd2a07fa52241862dbca05,,,,,,,
,,,,,,,,,,,,,,,,,,,,,,,,,,,,,,,,,,,,,,,,,h,6.815999985,NEPH,FALSE,1,0,5,3,1,4,159,onada,Catalan,Sounds/cat_onada.mp3,2020-06-12_20h53.01.662,TranslationElicitation_eng-prolific,3.2.4,MacIntel,60,5ebd2a07fa52241862dbca05,,,,,,,
,,,,,,,,,,,,,,,,,,,,,,,,,,,,,,,,,,,,,,,,,e,7.299000025,NEPHE,FALSE,1,0,5,3,1,4,159,onada,Catalan,Sounds/cat_onada.mp3,2020-06-12_20h53.01.662,TranslationElicitation_eng-prolific,3.2.4,MacIntel,60,5ebd2a07fa52241862dbca05,,,,,,,
,,,,,,,,,,,,,,,,,,,,,,,,,,,,,,,,,,,,,,,,,w,7.447999954,NEPHEW,FALSE,1,0,5,3,1,4,159,onada,Catalan,Sounds/cat_onada.mp3,2020-06-12_20h53.01.662,TranslationElicitation_eng-prolific,3.2.4,MacIntel,60,5ebd2a07fa52241862dbca05,,,,,,,
,,,,,,,,,,,,,,,,,,,,,,,,,,,,,,,,,,,,,,,,,return,8.016000032,NEPHEW,FALSE,1,0,5,3,1,4,159,onada,Catalan,Sounds/cat_onada.mp3,2020-06-12_20h53.01.662,TranslationElicitation_eng-prolific,3.2.4,MacIntel,60,5ebd2a07fa52241862dbca05,8.016000032,,,,,,
,,,,,,,,,,,,,,,,,,,,,,,,,,,,,,,,,,,,,,,,,,,,,1,0,5,3,1,4,159,onada,Catalan,Sounds/cat_onada.mp3,2020-06-12_20h53.01.662,TranslationElicitation_eng-prolific,3.2.4,MacIntel,60,5ebd2a07fa52241862dbca05,,,,,,,
,,,,,,,,,,,,,,,,,,,,,,,,,,,,,,,,,,,,,,,,,h,2.032999992,H,FALSE,1,0,5,0,1,4,109,arbre,Catalan,Sounds/cat_arbre.mp3,2020-06-12_20h53.01.662,TranslationElicitation_eng-prolific,3.2.4,MacIntel,60,5ebd2a07fa52241862dbca05,,,,,,,
,,,,,,,,,,,,,,,,,,,,,,,,,,,,,,,,,,,,,,,,,a,2.116999865,HA,FALSE,1,0,5,0,1,4,109,arbre,Catalan,Sounds/cat_arbre.mp3,2020-06-12_20h53.01.662,TranslationElicitation_eng-prolific,3.2.4,MacIntel,60,5ebd2a07fa52241862dbca05,,,,,,,
,,,,,,,,,,,,,,,,,,,,,,,,,,,,,,,,,,,,,,,,,r,2.299999952,HAR,FALSE,1,0,5,0,1,4,109,arbre,Catalan,Sounds/cat_arbre.mp3,2020-06-12_20h53.01.662,TranslationElicitation_eng-prolific,3.2.4,MacIntel,60,5ebd2a07fa52241862dbca05,,,,,,,
,,,,,,,,,,,,,,,,,,,,,,,,,,,,,,,,,,,,,,,,,d,2.481999874,HARD,FALSE,1,0,5,0,1,4,109,arbre,Catalan,Sounds/cat_arbre.mp3,2020-06-12_20h53.01.662,TranslationElicitation_eng-prolific,3.2.4,MacIntel,60,5ebd2a07fa52241862dbca05,,,,,,,
,,,,,,,,,,,,,,,,,,,,,,,,,,,,,,,,,,,,,,,,,return,2.76699996,HARD,FALSE,1,0,5,0,1,4,109,arbre,Catalan,Sounds/cat_arbre.mp3,2020-06-12_20h53.01.662,TranslationElicitation_eng-prolific,3.2.4,MacIntel,60,5ebd2a07fa52241862dbca05,2.76699996,,,,,,
,,,,,,,,,,,,,,,,,,,,,,,,,,,,,,,,,,,,,,,,,,,,,1,0,5,0,1,4,109,arbre,Catalan,Sounds/cat_arbre.mp3,2020-06-12_20h53.01.662,TranslationElicitation_eng-prolific,3.2.4,MacIntel,60,5ebd2a07fa52241862dbca05,,,,,,,
,,,,,,,,,,,,,,,,,,,,,,,,,,,,,,,,,,,,,,,,,j,1.131999969,J,FALSE,1,0,5,2,1,4,147,jaqueta,Catalan,Sounds/cat_jaqueta.mp3,2020-06-12_20h53.01.662,TranslationElicitation_eng-prolific,3.2.4,MacIntel,60,5ebd2a07fa52241862dbca05,,,,,,,
,,,,,,,,,,,,,,,,,,,,,,,,,,,,,,,,,,,,,,,,,e,1.299999952,JE,FALSE,1,0,5,2,1,4,147,jaqueta,Catalan,Sounds/cat_jaqueta.mp3,2020-06-12_20h53.01.662,TranslationElicitation_eng-prolific,3.2.4,MacIntel,60,5ebd2a07fa52241862dbca05,,,,,,,
,,,,,,,,,,,,,,,,,,,,,,,,,,,,,,,,,,,,,,,,,backspace,2.014999866,J,TRUE,1,0,5,2,1,4,147,jaqueta,Catalan,Sounds/cat_jaqueta.mp3,2020-06-12_20h53.01.662,TranslationElicitation_eng-prolific,3.2.4,MacIntel,60,5ebd2a07fa52241862dbca05,,,,,,,
,,,,,,,,,,,,,,,,,,,,,,,,,,,,,,,,,,,,,,,,,a,2.167999983,JA,TRUE,1,0,5,2,1,4,147,jaqueta,Catalan,Sounds/cat_jaqueta.mp3,2020-06-12_20h53.01.662,TranslationElicitation_eng-prolific,3.2.4,MacIntel,60,5ebd2a07fa52241862dbca05,,,,,,,
,,,,,,,,,,,,,,,,,,,,,,,,,,,,,,,,,,,,,,,,,c,2.448999882,JAC,TRUE,1,0,5,2,1,4,147,jaqueta,Catalan,Sounds/cat_jaqueta.mp3,2020-06-12_20h53.01.662,TranslationElicitation_eng-prolific,3.2.4,MacIntel,60,5ebd2a07fa52241862dbca05,,,,,,,
,,,,,,,,,,,,,,,,,,,,,,,,,,,,,,,,,,,,,,,,,k,2.700000048,JACK,TRUE,1,0,5,2,1,4,147,jaqueta,Catalan,Sounds/cat_jaqueta.mp3,2020-06-12_20h53.01.662,TranslationElicitation_eng-prolific,3.2.4,MacIntel,60,5ebd2a07fa52241862dbca05,,,,,,,
,,,,,,,,,,,,,,,,,,,,,,,,,,,,,,,,,,,,,,,,,e,2.865999937,JACKE,TRUE,1,0,5,2,1,4,147,jaqueta,Catalan,Sounds/cat_jaqueta.mp3,2020-06-12_20h53.01.662,TranslationElicitation_eng-prolific,3.2.4,MacIntel,60,5ebd2a07fa52241862dbca05,,,,,,,
,,,,,,,,,,,,,,,,,,,,,,,,,,,,,,,,,,,,,,,,,t,3.549000025,JACKET,TRUE,1,0,5,2,1,4,147,jaqueta,Catalan,Sounds/cat_jaqueta.mp3,2020-06-12_20h53.01.662,TranslationElicitation_eng-prolific,3.2.4,MacIntel,60,5ebd2a07fa52241862dbca05,,,,,,,
,,,,,,,,,,,,,,,,,,,,,,,,,,,,,,,,,,,,,,,,,return,3.717000008,JACKET,TRUE,1,0,5,2,1,4,147,jaqueta,Catalan,Sounds/cat_jaqueta.mp3,2020-06-12_20h53.01.662,TranslationElicitation_eng-prolific,3.2.4,MacIntel,60,5ebd2a07fa52241862dbca05,3.717000008,,,,,,
,,,,,,,,,,,,,,,,,,,,,,,,,,,,,,,,,,,,,,,,,,,,,1,0,5,2,1,4,147,jaqueta,Catalan,Sounds/cat_jaqueta.mp3,2020-06-12_20h53.01.662,TranslationElicitation_eng-prolific,3.2.4,MacIntel,60,5ebd2a07fa52241862dbca05,,,,,,,
,,,,,,,,,,,,,,,,,,,,,,,,,,,,,,,,,,,,,,,,,e,1.502000093,E,FALSE,,,,,,,167,pingui,Catalan,Sounds/cat_pingui.mp3,2020-06-12_20h53.01.662,TranslationElicitation_eng-prolific,3.2.4,MacIntel,60,5ebd2a07fa52241862dbca05,,1,0,81,59,1,80
,,,,,,,,,,,,,,,,,,,,,,,,,,,,,,,,,,,,,,,,,n,1.73300004,EN,FALSE,,,,,,,167,pingui,Catalan,Sounds/cat_pingui.mp3,2020-06-12_20h53.01.662,TranslationElicitation_eng-prolific,3.2.4,MacIntel,60,5ebd2a07fa52241862dbca05,,1,0,81,59,1,80
,,,,,,,,,,,,,,,,,,,,,,,,,,,,,,,,,,,,,,,,,g,2.049000025,ENG,FALSE,,,,,,,167,pingui,Catalan,Sounds/cat_pingui.mp3,2020-06-12_20h53.01.662,TranslationElicitation_eng-prolific,3.2.4,MacIntel,60,5ebd2a07fa52241862dbca05,,1,0,81,59,1,80
,,,,,,,,,,,,,,,,,,,,,,,,,,,,,,,,,,,,,,,,,u,2.23300004,ENGU,FALSE,,,,,,,167,pingui,Catalan,Sounds/cat_pingui.mp3,2020-06-12_20h53.01.662,TranslationElicitation_eng-prolific,3.2.4,MacIntel,60,5ebd2a07fa52241862dbca05,,1,0,81,59,1,80
,,,,,,,,,,,,,,,,,,,,,,,,,,,,,,,,,,,,,,,,,i,2.383000135,ENGUI,FALSE,,,,,,,167,pingui,Catalan,Sounds/cat_pingui.mp3,2020-06-12_20h53.01.662,TranslationElicitation_eng-prolific,3.2.4,MacIntel,60,5ebd2a07fa52241862dbca05,,1,0,81,59,1,80
,,,,,,,,,,,,,,,,,,,,,,,,,,,,,,,,,,,,,,,,,n,2.565999985,ENGUIN,FALSE,,,,,,,167,pingui,Catalan,Sounds/cat_pingui.mp3,2020-06-12_20h53.01.662,TranslationElicitation_eng-prolific,3.2.4,MacIntel,60,5ebd2a07fa52241862dbca05,,1,0,81,59,1,80
,,,,,,,,,,,,,,,,,,,,,,,,,,,,,,,,,,,,,,,,,backspace,4.504000187,ENGUI,TRUE,,,,,,,167,pingui,Catalan,Sounds/cat_pingui.mp3,2020-06-12_20h53.01.662,TranslationElicitation_eng-prolific,3.2.4,MacIntel,60,5ebd2a07fa52241862dbca05,,1,0,81,59,1,80
,,,,,,,,,,,,,,,,,,,,,,,,,,,,,,,,,,,,,,,,,backspace,4.683000088,ENGU,TRUE,,,,,,,167,pingui,Catalan,Sounds/cat_pingui.mp3,2020-06-12_20h53.01.662,TranslationElicitation_eng-prolific,3.2.4,MacIntel,60,5ebd2a07fa52241862dbca05,,1,0,81,59,1,80
,,,,,,,,,,,,,,,,,,,,,,,,,,,,,,,,,,,,,,,,,backspace,4.848999977,ENG,TRUE,,,,,,,167,pingui,Catalan,Sounds/cat_pingui.mp3,2020-06-12_20h53.01.662,TranslationElicitation_eng-prolific,3.2.4,MacIntel,60,5ebd2a07fa52241862dbca05,,1,0,81,59,1,80
,,,,,,,,,,,,,,,,,,,,,,,,,,,,,,,,,,,,,,,,,backspace,4.999000072,EN,TRUE,,,,,,,167,pingui,Catalan,Sounds/cat_pingui.mp3,2020-06-12_20h53.01.662,TranslationElicitation_eng-prolific,3.2.4,MacIntel,60,5ebd2a07fa52241862dbca05,,1,0,81,59,1,80
,,,,,,,,,,,,,,,,,,,,,,,,,,,,,,,,,,,,,,,,,backspace,5.167000055,E,TRUE,,,,,,,167,pingui,Catalan,Sounds/cat_pingui.mp3,2020-06-12_20h53.01.662,TranslationElicitation_eng-prolific,3.2.4,MacIntel,60,5ebd2a07fa52241862dbca05,,1,0,81,59,1,80
,,,,,,,,,,,,,,,,,,,,,,,,,,,,,,,,,,,,,,,,,backspace,5.532999992,,TRUE,,,,,,,167,pingui,Catalan,Sounds/cat_pingui.mp3,2020-06-12_20h53.01.662,TranslationElicitation_eng-prolific,3.2.4,MacIntel,60,5ebd2a07fa52241862dbca05,,1,0,81,59,1,80
,,,,,,,,,,,,,,,,,,,,,,,,,,,,,,,,,,,,,,,,,p,6.249000072,P,TRUE,,,,,,,167,pingui,Catalan,Sounds/cat_pingui.mp3,2020-06-12_20h53.01.662,TranslationElicitation_eng-prolific,3.2.4,MacIntel,60,5ebd2a07fa52241862dbca05,,1,0,81,59,1,80
,,,,,,,,,,,,,,,,,,,,,,,,,,,,,,,,,,,,,,,,,e,6.499000072,PE,TRUE,,,,,,,167,pingui,Catalan,Sounds/cat_pingui.mp3,2020-06-12_20h53.01.662,TranslationElicitation_eng-prolific,3.2.4,MacIntel,60,5ebd2a07fa52241862dbca05,,1,0,81,59,1,80
,,,,,,,,,,,,,,,,,,,,,,,,,,,,,,,,,,,,,,,,,n,6.715000153,PEN,TRUE,,,,,,,167,pingui,Catalan,Sounds/cat_pingui.mp3,2020-06-12_20h53.01.662,TranslationElicitation_eng-prolific,3.2.4,MacIntel,60,5ebd2a07fa52241862dbca05,,1,0,81,59,1,80
,,,,,,,,,,,,,,,,,,,,,,,,,,,,,,,,,,,,,,,,,g,7,PENG,TRUE,,,,,,,167,pingui,Catalan,Sounds/cat_pingui.mp3,2020-06-12_20h53.01.662,TranslationElicitation_eng-prolific,3.2.4,MacIntel,60,5ebd2a07fa52241862dbca05,,1,0,81,59,1,80
,,,,,,,,,,,,,,,,,,,,,,,,,,,,,,,,,,,,,,,,,u,7.166000128,PENGU,TRUE,,,,,,,167,pingui,Catalan,Sounds/cat_pingui.mp3,2020-06-12_20h53.01.662,TranslationElicitation_eng-prolific,3.2.4,MacIntel,60,5ebd2a07fa52241862dbca05,,1,0,81,59,1,80
,,,,,,,,,,,,,,,,,,,,,,,,,,,,,,,,,,,,,,,,,i,7.299000025,PENGUI,TRUE,,,,,,,167,pingui,Catalan,Sounds/cat_pingui.mp3,2020-06-12_20h53.01.662,TranslationElicitation_eng-prolific,3.2.4,MacIntel,60,5ebd2a07fa52241862dbca05,,1,0,81,59,1,80
,,,,,,,,,,,,,,,,,,,,,,,,,,,,,,,,,,,,,,,,,n,7.46600008,PENGUIN,TRUE,,,,,,,167,pingui,Catalan,Sounds/cat_pingui.mp3,2020-06-12_20h53.01.662,TranslationElicitation_eng-prolific,3.2.4,MacIntel,60,5ebd2a07fa52241862dbca05,,1,0,81,59,1,80
,,,,,,,,,,,,,,,,,,,,,,,,,,,,,,,,,,,,,,,,,return,8.26699996,PENGUIN,TRUE,,,,,,,167,pingui,Catalan,Sounds/cat_pingui.mp3,2020-06-12_20h53.01.662,TranslationElicitation_eng-prolific,3.2.4,MacIntel,60,5ebd2a07fa52241862dbca05,8.26699996,1,0,81,59,1,80
,,,,,,,,,,,,,,,,,,,,,,,,,,,,,,,,,,,,,,,,,,,,,,,,,,,167,pingui,Catalan,Sounds/cat_pingui.mp3,2020-06-12_20h53.01.662,TranslationElicitation_eng-prolific,3.2.4,MacIntel,60,5ebd2a07fa52241862dbca05,,1,0,81,59,1,80
,,,,,,,,,,,,,,,,,,,,,,,,,,,,,,,,,,,,,,,,,g,1.116000175,G,FALSE,,,,,,,146,guitarra,Catalan,Sounds/cat_guitarra.mp3,2020-06-12_20h53.01.662,TranslationElicitation_eng-prolific,3.2.4,MacIntel,60,5ebd2a07fa52241862dbca05,,1,0,81,40,1,80
,,,,,,,,,,,,,,,,,,,,,,,,,,,,,,,,,,,,,,,,,u,1.249000072,GU,FALSE,,,,,,,146,guitarra,Catalan,Sounds/cat_guitarra.mp3,2020-06-12_20h53.01.662,TranslationElicitation_eng-prolific,3.2.4,MacIntel,60,5ebd2a07fa52241862dbca05,,1,0,81,40,1,80
,,,,,,,,,,,,,,,,,,,,,,,,,,,,,,,,,,,,,,,,,i,1.416000128,GUI,FALSE,,,,,,,146,guitarra,Catalan,Sounds/cat_guitarra.mp3,2020-06-12_20h53.01.662,TranslationElicitation_eng-prolific,3.2.4,MacIntel,60,5ebd2a07fa52241862dbca05,,1,0,81,40,1,80
,,,,,,,,,,,,,,,,,,,,,,,,,,,,,,,,,,,,,,,,,t,1.567000151,GUIT,FALSE,,,,,,,146,guitarra,Catalan,Sounds/cat_guitarra.mp3,2020-06-12_20h53.01.662,TranslationElicitation_eng-prolific,3.2.4,MacIntel,60,5ebd2a07fa52241862dbca05,,1,0,81,40,1,80
,,,,,,,,,,,,,,,,,,,,,,,,,,,,,,,,,,,,,,,,,a,1.782999992,GUITA,FALSE,,,,,,,146,guitarra,Catalan,Sounds/cat_guitarra.mp3,2020-06-12_20h53.01.662,TranslationElicitation_eng-prolific,3.2.4,MacIntel,60,5ebd2a07fa52241862dbca05,,1,0,81,40,1,80
,,,,,,,,,,,,,,,,,,,,,,,,,,,,,,,,,,,,,,,,,r,1.999000072,GUITAR,FALSE,,,,,,,146,guitarra,Catalan,Sounds/cat_guitarra.mp3,2020-06-12_20h53.01.662,TranslationElicitation_eng-prolific,3.2.4,MacIntel,60,5ebd2a07fa52241862dbca05,,1,0,81,40,1,80
,,,,,,,,,,,,,,,,,,,,,,,,,,,,,,,,,,,,,,,,,return,2.367000103,GUITAR,FALSE,,,,,,,146,guitarra,Catalan,Sounds/cat_guitarra.mp3,2020-06-12_20h53.01.662,TranslationElicitation_eng-prolific,3.2.4,MacIntel,60,5ebd2a07fa52241862dbca05,2.367000103,1,0,81,40,1,80
,,,,,,,,,,,,,,,,,,,,,,,,,,,,,,,,,,,,,,,,,,,,,,,,,,,146,guitarra,Catalan,Sounds/cat_guitarra.mp3,2020-06-12_20h53.01.662,TranslationElicitation_eng-prolific,3.2.4,MacIntel,60,5ebd2a07fa52241862dbca05,,1,0,81,40,1,80
,,,,,,,,,,,,,,,,,,,,,,,,,,,,,,,,,,,,,,,,,p,2.73300004,P,FALSE,,,,,,,173,porc,Catalan,Sounds/cat_porc.mp3,2020-06-12_20h53.01.662,TranslationElicitation_eng-prolific,3.2.4,MacIntel,60,5ebd2a07fa52241862dbca05,,1,0,81,65,1,80
,,,,,,,,,,,,,,,,,,,,,,,,,,,,,,,,,,,,,,,,,i,3,PI,FALSE,,,,,,,173,porc,Catalan,Sounds/cat_porc.mp3,2020-06-12_20h53.01.662,TranslationElicitation_eng-prolific,3.2.4,MacIntel,60,5ebd2a07fa52241862dbca05,,1,0,81,65,1,80
,,,,,,,,,,,,,,,,,,,,,,,,,,,,,,,,,,,,,,,,,g,3.281999826,PIG,FALSE,,,,,,,173,porc,Catalan,Sounds/cat_porc.mp3,2020-06-12_20h53.01.662,TranslationElicitation_eng-prolific,3.2.4,MacIntel,60,5ebd2a07fa52241862dbca05,,1,0,81,65,1,80
,,,,,,,,,,,,,,,,,,,,,,,,,,,,,,,,,,,,,,,,,return,3.666999817,PIG,FALSE,,,,,,,173,porc,Catalan,Sounds/cat_porc.mp3,2020-06-12_20h53.01.662,TranslationElicitation_eng-prolific,3.2.4,MacIntel,60,5ebd2a07fa52241862dbca05,3.666999817,1,0,81,65,1,80
,,,,,,,,,,,,,,,,,,,,,,,,,,,,,,,,,,,,,,,,,,,,,,,,,,,173,porc,Catalan,Sounds/cat_porc.mp3,2020-06-12_20h53.01.662,TranslationElicitation_eng-prolific,3.2.4,MacIntel,60,5ebd2a07fa52241862dbca05,,1,0,81,65,1,80
,,,,,,,,,,,,,,,,,,,,,,,,,,,,,,,,,,,,,,,,,b,2.734000206,B,FALSE,,,,,,,187,vaixell,Catalan,Sounds/cat_vaixell.mp3,2020-06-12_20h53.01.662,TranslationElicitation_eng-prolific,3.2.4,MacIntel,60,5ebd2a07fa52241862dbca05,,1,0,81,78,1,80
,,,,,,,,,,,,,,,,,,,,,,,,,,,,,,,,,,,,,,,,,u,3.117000103,BU,FALSE,,,,,,,187,vaixell,Catalan,Sounds/cat_vaixell.mp3,2020-06-12_20h53.01.662,TranslationElicitation_eng-prolific,3.2.4,MacIntel,60,5ebd2a07fa52241862dbca05,,1,0,81,78,1,80
,,,,,,,,,,,,,,,,,,,,,,,,,,,,,,,,,,,,,,,,,s,3.267000198,BUS,FALSE,,,,,,,187,vaixell,Catalan,Sounds/cat_vaixell.mp3,2020-06-12_20h53.01.662,TranslationElicitation_eng-prolific,3.2.4,MacIntel,60,5ebd2a07fa52241862dbca05,,1,0,81,78,1,80
,,,,,,,,,,,,,,,,,,,,,,,,,,,,,,,,,,,,,,,,,h,3.417000055,BUSH,FALSE,,,,,,,187,vaixell,Catalan,Sounds/cat_vaixell.mp3,2020-06-12_20h53.01.662,TranslationElicitation_eng-prolific,3.2.4,MacIntel,60,5ebd2a07fa52241862dbca05,,1,0,81,78,1,80
,,,,,,,,,,,,,,,,,,,,,,,,,,,,,,,,,,,,,,,,,return,4.067000151,BUSH,FALSE,,,,,,,187,vaixell,Catalan,Sounds/cat_vaixell.mp3,2020-06-12_20h53.01.662,TranslationElicitation_eng-prolific,3.2.4,MacIntel,60,5ebd2a07fa52241862dbca05,4.067000151,1,0,81,78,1,80
,,,,,,,,,,,,,,,,,,,,,,,,,,,,,,,,,,,,,,,,,,,,,,,,,,,187,vaixell,Catalan,Sounds/cat_vaixell.mp3,2020-06-12_20h53.01.662,TranslationElicitation_eng-prolific,3.2.4,MacIntel,60,5ebd2a07fa52241862dbca05,,1,0,81,78,1,80
,,,,,,,,,,,,,,,,,,,,,,,,,,,,,,,,,,,,,,,,,b,2.366999865,B,FALSE,,,,,,,116,bolquer,Catalan,Sounds/cat_bolquer.mp3,2020-06-12_20h53.01.662,TranslationElicitation_eng-prolific,3.2.4,MacIntel,60,5ebd2a07fa52241862dbca05,,1,0,81,11,1,80
,,,,,,,,,,,,,,,,,,,,,,,,,,,,,,,,,,,,,,,,,u,3.26699996,BU,FALSE,,,,,,,116,bolquer,Catalan,Sounds/cat_bolquer.mp3,2020-06-12_20h53.01.662,TranslationElicitation_eng-prolific,3.2.4,MacIntel,60,5ebd2a07fa52241862dbca05,,1,0,81,11,1,80
,,,,,,,,,,,,,,,,,,,,,,,,,,,,,,,,,,,,,,,,,l,3.585999966,BUL,FALSE,,,,,,,116,bolquer,Catalan,Sounds/cat_bolquer.mp3,2020-06-12_20h53.01.662,TranslationElicitation_eng-prolific,3.2.4,MacIntel,60,5ebd2a07fa52241862dbca05,,1,0,81,11,1,80
,,,,,,,,,,,,,,,,,,,,,,,,,,,,,,,,,,,,,,,,,k,3.78399992,BULK,FALSE,,,,,,,116,bolquer,Catalan,Sounds/cat_bolquer.mp3,2020-06-12_20h53.01.662,TranslationElicitation_eng-prolific,3.2.4,MacIntel,60,5ebd2a07fa52241862dbca05,,1,0,81,11,1,80
,,,,,,,,,,,,,,,,,,,,,,,,,,,,,,,,,,,,,,,,,y,4.083999872,BULKY,FALSE,,,,,,,116,bolquer,Catalan,Sounds/cat_bolquer.mp3,2020-06-12_20h53.01.662,TranslationElicitation_eng-prolific,3.2.4,MacIntel,60,5ebd2a07fa52241862dbca05,,1,0,81,11,1,80
,,,,,,,,,,,,,,,,,,,,,,,,,,,,,,,,,,,,,,,,,return,4.752999783,BULKY,FALSE,,,,,,,116,bolquer,Catalan,Sounds/cat_bolquer.mp3,2020-06-12_20h53.01.662,TranslationElicitation_eng-prolific,3.2.4,MacIntel,60,5ebd2a07fa52241862dbca05,4.752999783,1,0,81,11,1,80
,,,,,,,,,,,,,,,,,,,,,,,,,,,,,,,,,,,,,,,,,,,,,,,,,,,116,bolquer,Catalan,Sounds/cat_bolquer.mp3,2020-06-12_20h53.01.662,TranslationElicitation_eng-prolific,3.2.4,MacIntel,60,5ebd2a07fa52241862dbca05,,1,0,81,11,1,80
,,,,,,,,,,,,,,,,,,,,,,,,,,,,,,,,,,,,,,,,,c,2.848999977,C,FALSE,,,,,,,125,colom,Catalan,Sounds/cat_colom.mp3,2020-06-12_20h53.01.662,TranslationElicitation_eng-prolific,3.2.4,MacIntel,60,5ebd2a07fa52241862dbca05,,1,0,81,20,1,80
,,,,,,,,,,,,,,,,,,,,,,,,,,,,,,,,,,,,,,,,,o,2.965000153,CO,FALSE,,,,,,,125,colom,Catalan,Sounds/cat_colom.mp3,2020-06-12_20h53.01.662,TranslationElicitation_eng-prolific,3.2.4,MacIntel,60,5ebd2a07fa52241862dbca05,,1,0,81,20,1,80
,,,,,,,,,,,,,,,,,,,,,,,,,,,,,,,,,,,,,,,,,m,3.131999969,COM,FALSE,,,,,,,125,colom,Catalan,Sounds/cat_colom.mp3,2020-06-12_20h53.01.662,TranslationElicitation_eng-prolific,3.2.4,MacIntel,60,5ebd2a07fa52241862dbca05,,1,0,81,20,1,80
,,,,,,,,,,,,,,,,,,,,,,,,,,,,,,,,,,,,,,,,,b,3.36500001,COMB,FALSE,,,,,,,125,colom,Catalan,Sounds/cat_colom.mp3,2020-06-12_20h53.01.662,TranslationElicitation_eng-prolific,3.2.4,MacIntel,60,5ebd2a07fa52241862dbca05,,1,0,81,20,1,80
,,,,,,,,,,,,,,,,,,,,,,,,,,,,,,,,,,,,,,,,,return,3.931999922,COMB,FALSE,,,,,,,125,colom,Catalan,Sounds/cat_colom.mp3,2020-06-12_20h53.01.662,TranslationElicitation_eng-prolific,3.2.4,MacIntel,60,5ebd2a07fa52241862dbca05,3.931999922,1,0,81,20,1,80
,,,,,,,,,,,,,,,,,,,,,,,,,,,,,,,,,,,,,,,,,,,,,,,,,,,125,colom,Catalan,Sounds/cat_colom.mp3,2020-06-12_20h53.01.662,TranslationElicitation_eng-prolific,3.2.4,MacIntel,60,5ebd2a07fa52241862dbca05,,1,0,81,20,1,80
,,,,,,,,,,,,,,,,,,,,,,,,,,,,,,,,,,,,,,,,,f,3.967999935,F,FALSE,,,,,,,136,forquilla,Catalan,Sounds/cat_forquilla.mp3,2020-06-12_20h53.01.662,TranslationElicitation_eng-prolific,3.2.4,MacIntel,60,5ebd2a07fa52241862dbca05,,1,0,81,30,1,80
,,,,,,,,,,,,,,,,,,,,,,,,,,,,,,,,,,,,,,,,,i,4.132999897,FI,FALSE,,,,,,,136,forquilla,Catalan,Sounds/cat_forquilla.mp3,2020-06-12_20h53.01.662,TranslationElicitation_eng-prolific,3.2.4,MacIntel,60,5ebd2a07fa52241862dbca05,,1,0,81,30,1,80
,,,,,,,,,,,,,,,,,,,,,,,,,,,,,,,,,,,,,,,,,g,4.264999866,FIG,FALSE,,,,,,,136,forquilla,Catalan,Sounds/cat_forquilla.mp3,2020-06-12_20h53.01.662,TranslationElicitation_eng-prolific,3.2.4,MacIntel,60,5ebd2a07fa52241862dbca05,,1,0,81,30,1,80
,,,,,,,,,,,,,,,,,,,,,,,,,,,,,,,,,,,,,,,,,u,4.399999857,FIGU,FALSE,,,,,,,136,forquilla,Catalan,Sounds/cat_forquilla.mp3,2020-06-12_20h53.01.662,TranslationElicitation_eng-prolific,3.2.4,MacIntel,60,5ebd2a07fa52241862dbca05,,1,0,81,30,1,80
,,,,,,,,,,,,,,,,,,,,,,,,,,,,,,,,,,,,,,,,,r,4.664999962,FIGUR,FALSE,,,,,,,136,forquilla,Catalan,Sounds/cat_forquilla.mp3,2020-06-12_20h53.01.662,TranslationElicitation_eng-prolific,3.2.4,MacIntel,60,5ebd2a07fa52241862dbca05,,1,0,81,30,1,80
,,,,,,,,,,,,,,,,,,,,,,,,,,,,,,,,,,,,,,,,,e,4.848999977,FIGURE,FALSE,,,,,,,136,forquilla,Catalan,Sounds/cat_forquilla.mp3,2020-06-12_20h53.01.662,TranslationElicitation_eng-prolific,3.2.4,MacIntel,60,5ebd2a07fa52241862dbca05,,1,0,81,30,1,80
,,,,,,,,,,,,,,,,,,,,,,,,,,,,,,,,,,,,,,,,,return,5.099999905,FIGURE,FALSE,,,,,,,136,forquilla,Catalan,Sounds/cat_forquilla.mp3,2020-06-12_20h53.01.662,TranslationElicitation_eng-prolific,3.2.4,MacIntel,60,5ebd2a07fa52241862dbca05,5.099999905,1,0,81,30,1,80
,,,,,,,,,,,,,,,,,,,,,,,,,,,,,,,,,,,,,,,,,,,,,,,,,,,136,forquilla,Catalan,Sounds/cat_forquilla.mp3,2020-06-12_20h53.01.662,TranslationElicitation_eng-prolific,3.2.4,MacIntel,60,5ebd2a07fa52241862dbca05,,1,0,81,30,1,80
,,,,,,,,,,,,,,,,,,,,,,,,,,,,,,,,,,,,,,,,,h,8.782999992,H,FALSE,,,,,,,150,lloro,Catalan,Sounds/cat_lloro.mp3,2020-06-12_20h53.01.662,TranslationElicitation_eng-prolific,3.2.4,MacIntel,60,5ebd2a07fa52241862dbca05,,1,0,81,43,1,80
,,,,,,,,,,,,,,,,,,,,,,,,,,,,,,,,,,,,,,,,,a,8.933000088,HA,FALSE,,,,,,,150,lloro,Catalan,Sounds/cat_lloro.mp3,2020-06-12_20h53.01.662,TranslationElicitation_eng-prolific,3.2.4,MacIntel,60,5ebd2a07fa52241862dbca05,,1,0,81,43,1,80
,,,,,,,,,,,,,,,,,,,,,,,,,,,,,,,,,,,,,,,,,t,9.183000088,HAT,FALSE,,,,,,,150,lloro,Catalan,Sounds/cat_lloro.mp3,2020-06-12_20h53.01.662,TranslationElicitation_eng-prolific,3.2.4,MacIntel,60,5ebd2a07fa52241862dbca05,,1,0,81,43,1,80
,,,,,,,,,,,,,,,,,,,,,,,,,,,,,,,,,,,,,,,,,return,9.615999937,HAT,FALSE,,,,,,,150,lloro,Catalan,Sounds/cat_lloro.mp3,2020-06-12_20h53.01.662,TranslationElicitation_eng-prolific,3.2.4,MacIntel,60,5ebd2a07fa52241862dbca05,9.615999937,1,0,81,43,1,80
,,,,,,,,,,,,,,,,,,,,,,,,,,,,,,,,,,,,,,,,,,,,,,,,,,,150,lloro,Catalan,Sounds/cat_lloro.mp3,2020-06-12_20h53.01.662,TranslationElicitation_eng-prolific,3.2.4,MacIntel,60,5ebd2a07fa52241862dbca05,,1,0,81,43,1,80
,,,,,,,,,,,,,,,,,,,,,,,,,,,,,,,,,,,,,,,,,s,2.666000128,S,FALSE,,,,,,,162,pa,Catalan,Sounds/cat_pa.mp3,2020-06-12_20h53.01.662,TranslationElicitation_eng-prolific,3.2.4,MacIntel,60,5ebd2a07fa52241862dbca05,,1,0,81,54,1,80
,,,,,,,,,,,,,,,,,,,,,,,,,,,,,,,,,,,,,,,,,h,2.800000191,SH,FALSE,,,,,,,162,pa,Catalan,Sounds/cat_pa.mp3,2020-06-12_20h53.01.662,TranslationElicitation_eng-prolific,3.2.4,MacIntel,60,5ebd2a07fa52241862dbca05,,1,0,81,54,1,80
,,,,,,,,,,,,,,,,,,,,,,,,,,,,,,,,,,,,,,,,,e,3.034000158,SHE,FALSE,,,,,,,162,pa,Catalan,Sounds/cat_pa.mp3,2020-06-12_20h53.01.662,TranslationElicitation_eng-prolific,3.2.4,MacIntel,60,5ebd2a07fa52241862dbca05,,1,0,81,54,1,80
,,,,,,,,,,,,,,,,,,,,,,,,,,,,,,,,,,,,,,,,,e,3.150000095,SHEE,FALSE,,,,,,,162,pa,Catalan,Sounds/cat_pa.mp3,2020-06-12_20h53.01.662,TranslationElicitation_eng-prolific,3.2.4,MacIntel,60,5ebd2a07fa52241862dbca05,,1,0,81,54,1,80
,,,,,,,,,,,,,,,,,,,,,,,,,,,,,,,,,,,,,,,,,p,3.400000095,SHEEP,FALSE,,,,,,,162,pa,Catalan,Sounds/cat_pa.mp3,2020-06-12_20h53.01.662,TranslationElicitation_eng-prolific,3.2.4,MacIntel,60,5ebd2a07fa52241862dbca05,,1,0,81,54,1,80
,,,,,,,,,,,,,,,,,,,,,,,,,,,,,,,,,,,,,,,,,return,4,SHEEP,FALSE,,,,,,,162,pa,Catalan,Sounds/cat_pa.mp3,2020-06-12_20h53.01.662,TranslationElicitation_eng-prolific,3.2.4,MacIntel,60,5ebd2a07fa52241862dbca05,4,1,0,81,54,1,80
,,,,,,,,,,,,,,,,,,,,,,,,,,,,,,,,,,,,,,,,,,,,,,,,,,,162,pa,Catalan,Sounds/cat_pa.mp3,2020-06-12_20h53.01.662,TranslationElicitation_eng-prolific,3.2.4,MacIntel,60,5ebd2a07fa52241862dbca05,,1,0,81,54,1,80
,,,,,,,,,,,,,,,,,,,,,,,,,,,,,,,,,,,,,,,,,b,1.800000191,B,FALSE,,,,,,,110,berenar,Catalan,Sounds/cat_berenar.mp3,2020-06-12_20h53.01.662,TranslationElicitation_eng-prolific,3.2.4,MacIntel,60,5ebd2a07fa52241862dbca05,,1,0,81,5,1,80
,,,,,,,,,,,,,,,,,,,,,,,,,,,,,,,,,,,,,,,,,a,1.98300004,BA,FALSE,,,,,,,110,berenar,Catalan,Sounds/cat_berenar.mp3,2020-06-12_20h53.01.662,TranslationElicitation_eng-prolific,3.2.4,MacIntel,60,5ebd2a07fa52241862dbca05,,1,0,81,5,1,80
,,,,,,,,,,,,,,,,,,,,,,,,,,,,,,,,,,,,,,,,,n,2.183000088,BAN,FALSE,,,,,,,110,berenar,Catalan,Sounds/cat_berenar.mp3,2020-06-12_20h53.01.662,TranslationElicitation_eng-prolific,3.2.4,MacIntel,60,5ebd2a07fa52241862dbca05,,1,0,81,5,1,80
,,,,,,,,,,,,,,,,,,,,,,,,,,,,,,,,,,,,,,,,,a,2.282999992,BANA,FALSE,,,,,,,110,berenar,Catalan,Sounds/cat_berenar.mp3,2020-06-12_20h53.01.662,TranslationElicitation_eng-prolific,3.2.4,MacIntel,60,5ebd2a07fa52241862dbca05,,1,0,81,5,1,80
,,,,,,,,,,,,,,,,,,,,,,,,,,,,,,,,,,,,,,,,,n,2.400000095,BANAN,FALSE,,,,,,,110,berenar,Catalan,Sounds/cat_berenar.mp3,2020-06-12_20h53.01.662,TranslationElicitation_eng-prolific,3.2.4,MacIntel,60,5ebd2a07fa52241862dbca05,,1,0,81,5,1,80
,,,,,,,,,,,,,,,,,,,,,,,,,,,,,,,,,,,,,,,,,a,3.083000183,BANANA,FALSE,,,,,,,110,berenar,Catalan,Sounds/cat_berenar.mp3,2020-06-12_20h53.01.662,TranslationElicitation_eng-prolific,3.2.4,MacIntel,60,5ebd2a07fa52241862dbca05,,1,0,81,5,1,80
,,,,,,,,,,,,,,,,,,,,,,,,,,,,,,,,,,,,,,,,,return,3.333000183,BANANA,FALSE,,,,,,,110,berenar,Catalan,Sounds/cat_berenar.mp3,2020-06-12_20h53.01.662,TranslationElicitation_eng-prolific,3.2.4,MacIntel,60,5ebd2a07fa52241862dbca05,3.333000183,1,0,81,5,1,80
,,,,,,,,,,,,,,,,,,,,,,,,,,,,,,,,,,,,,,,,,,,,,,,,,,,110,berenar,Catalan,Sounds/cat_berenar.mp3,2020-06-12_20h53.01.662,TranslationElicitation_eng-prolific,3.2.4,MacIntel,60,5ebd2a07fa52241862dbca05,,1,0,81,5,1,80
,,,,,,,,,,,,,,,,,,,,,,,,,,,,,,,,,,,,,,,,,t,1.849999905,T,FALSE,,,,,,,181,tobogan,Catalan,Sounds/cat_tobogan.mp3,2020-06-12_20h53.01.662,TranslationElicitation_eng-prolific,3.2.4,MacIntel,60,5ebd2a07fa52241862dbca05,,1,0,81,72,1,80
,,,,,,,,,,,,,,,,,,,,,,,,,,,,,,,,,,,,,,,,,o,1.982000113,TO,FALSE,,,,,,,181,tobogan,Catalan,Sounds/cat_tobogan.mp3,2020-06-12_20h53.01.662,TranslationElicitation_eng-prolific,3.2.4,MacIntel,60,5ebd2a07fa52241862dbca05,,1,0,81,72,1,80
,,,,,,,,,,,,,,,,,,,,,,,,,,,,,,,,,,,,,,,,,b,2.23300004,TOB,FALSE,,,,,,,181,tobogan,Catalan,Sounds/cat_tobogan.mp3,2020-06-12_20h53.01.662,TranslationElicitation_eng-prolific,3.2.4,MacIntel,60,5ebd2a07fa52241862dbca05,,1,0,81,72,1,80
,,,,,,,,,,,,,,,,,,,,,,,,,,,,,,,,,,,,,,,,,o,2.933000088,TOBO,FALSE,,,,,,,181,tobogan,Catalan,Sounds/cat_tobogan.mp3,2020-06-12_20h53.01.662,TranslationElicitation_eng-prolific,3.2.4,MacIntel,60,5ebd2a07fa52241862dbca05,,1,0,81,72,1,80
,,,,,,,,,,,,,,,,,,,,,,,,,,,,,,,,,,,,,,,,,g,3.150000095,TOBOG,FALSE,,,,,,,181,tobogan,Catalan,Sounds/cat_tobogan.mp3,2020-06-12_20h53.01.662,TranslationElicitation_eng-prolific,3.2.4,MacIntel,60,5ebd2a07fa52241862dbca05,,1,0,81,72,1,80
,,,,,,,,,,,,,,,,,,,,,,,,,,,,,,,,,,,,,,,,,o,4.933000088,TOBOGO,FALSE,,,,,,,181,tobogan,Catalan,Sounds/cat_tobogan.mp3,2020-06-12_20h53.01.662,TranslationElicitation_eng-prolific,3.2.4,MacIntel,60,5ebd2a07fa52241862dbca05,,1,0,81,72,1,80
,,,,,,,,,,,,,,,,,,,,,,,,,,,,,,,,,,,,,,,,,n,5.171000004,TOBOGON,FALSE,,,,,,,181,tobogan,Catalan,Sounds/cat_tobogan.mp3,2020-06-12_20h53.01.662,TranslationElicitation_eng-prolific,3.2.4,MacIntel,60,5ebd2a07fa52241862dbca05,,1,0,81,72,1,80
,,,,,,,,,,,,,,,,,,,,,,,,,,,,,,,,,,,,,,,,,e,5.351000071,TOBOGONE,FALSE,,,,,,,181,tobogan,Catalan,Sounds/cat_tobogan.mp3,2020-06-12_20h53.01.662,TranslationElicitation_eng-prolific,3.2.4,MacIntel,60,5ebd2a07fa52241862dbca05,,1,0,81,72,1,80
,,,,,,,,,,,,,,,,,,,,,,,,,,,,,,,,,,,,,,,,,return,6.936000109,TOBOGONE,FALSE,,,,,,,181,tobogan,Catalan,Sounds/cat_tobogan.mp3,2020-06-12_20h53.01.662,TranslationElicitation_eng-prolific,3.2.4,MacIntel,60,5ebd2a07fa52241862dbca05,6.936000109,1,0,81,72,1,80
,,,,,,,,,,,,,,,,,,,,,,,,,,,,,,,,,,,,,,,,,,,,,,,,,,,181,tobogan,Catalan,Sounds/cat_tobogan.mp3,2020-06-12_20h53.01.662,TranslationElicitation_eng-prolific,3.2.4,MacIntel,60,5ebd2a07fa52241862dbca05,,1,0,81,72,1,80
,,,,,,,,,,,,,,,,,,,,,,,,,,,,,,,,,,,,,,,,,c,1.448999882,C,FALSE,,,,,,,188,xocolata,Catalan,Sounds/cat_xocolata.mp3,2020-06-12_20h53.01.662,TranslationElicitation_eng-prolific,3.2.4,MacIntel,60,5ebd2a07fa52241862dbca05,,1,0,81,79,1,80
,,,,,,,,,,,,,,,,,,,,,,,,,,,,,,,,,,,,,,,,,h,1.631999969,CH,FALSE,,,,,,,188,xocolata,Catalan,Sounds/cat_xocolata.mp3,2020-06-12_20h53.01.662,TranslationElicitation_eng-prolific,3.2.4,MacIntel,60,5ebd2a07fa52241862dbca05,,1,0,81,79,1,80
,,,,,,,,,,,,,,,,,,,,,,,,,,,,,,,,,,,,,,,,,o,2.152999878,CHO,FALSE,,,,,,,188,xocolata,Catalan,Sounds/cat_xocolata.mp3,2020-06-12_20h53.01.662,TranslationElicitation_eng-prolific,3.2.4,MacIntel,60,5ebd2a07fa52241862dbca05,,1,0,81,79,1,80
,,,,,,,,,,,,,,,,,,,,,,,,,,,,,,,,,,,,,,,,,c,2.335999966,CHOC,FALSE,,,,,,,188,xocolata,Catalan,Sounds/cat_xocolata.mp3,2020-06-12_20h53.01.662,TranslationElicitation_eng-prolific,3.2.4,MacIntel,60,5ebd2a07fa52241862dbca05,,1,0,81,79,1,80
,,,,,,,,,,,,,,,,,,,,,,,,,,,,,,,,,,,,,,,,,o,2.483999968,CHOCO,FALSE,,,,,,,188,xocolata,Catalan,Sounds/cat_xocolata.mp3,2020-06-12_20h53.01.662,TranslationElicitation_eng-prolific,3.2.4,MacIntel,60,5ebd2a07fa52241862dbca05,,1,0,81,79,1,80
,,,,,,,,,,,,,,,,,,,,,,,,,,,,,,,,,,,,,,,,,l,2.691999912,CHOCOL,FALSE,,,,,,,188,xocolata,Catalan,Sounds/cat_xocolata.mp3,2020-06-12_20h53.01.662,TranslationElicitation_eng-prolific,3.2.4,MacIntel,60,5ebd2a07fa52241862dbca05,,1,0,81,79,1,80
,,,,,,,,,,,,,,,,,,,,,,,,,,,,,,,,,,,,,,,,,a,2.953999996,CHOCOLA,FALSE,,,,,,,188,xocolata,Catalan,Sounds/cat_xocolata.mp3,2020-06-12_20h53.01.662,TranslationElicitation_eng-prolific,3.2.4,MacIntel,60,5ebd2a07fa52241862dbca05,,1,0,81,79,1,80
,,,,,,,,,,,,,,,,,,,,,,,,,,,,,,,,,,,,,,,,,t,3.338000059,CHOCOLAT,FALSE,,,,,,,188,xocolata,Catalan,Sounds/cat_xocolata.mp3,2020-06-12_20h53.01.662,TranslationElicitation_eng-prolific,3.2.4,MacIntel,60,5ebd2a07fa52241862dbca05,,1,0,81,79,1,80
,,,,,,,,,,,,,,,,,,,,,,,,,,,,,,,,,,,,,,,,,e,3.51699996,CHOCOLATE,FALSE,,,,,,,188,xocolata,Catalan,Sounds/cat_xocolata.mp3,2020-06-12_20h53.01.662,TranslationElicitation_eng-prolific,3.2.4,MacIntel,60,5ebd2a07fa52241862dbca05,,1,0,81,79,1,80
,,,,,,,,,,,,,,,,,,,,,,,,,,,,,,,,,,,,,,,,,return,4.799000025,CHOCOLATE,FALSE,,,,,,,188,xocolata,Catalan,Sounds/cat_xocolata.mp3,2020-06-12_20h53.01.662,TranslationElicitation_eng-prolific,3.2.4,MacIntel,60,5ebd2a07fa52241862dbca05,4.799000025,1,0,81,79,1,80
,,,,,,,,,,,,,,,,,,,,,,,,,,,,,,,,,,,,,,,,,,,,,,,,,,,188,xocolata,Catalan,Sounds/cat_xocolata.mp3,2020-06-12_20h53.01.662,TranslationElicitation_eng-prolific,3.2.4,MacIntel,60,5ebd2a07fa52241862dbca05,,1,0,81,79,1,80
,,,,,,,,,,,,,,,,,,,,,,,,,,,,,,,,,,,,,,,,,g,3.016000032,G,FALSE,,,,,,,151,lluna,Catalan,Sounds/cat_lluna.mp3,2020-06-12_20h53.01.662,TranslationElicitation_eng-prolific,3.2.4,MacIntel,60,5ebd2a07fa52241862dbca05,,1,0,81,44,1,80
,,,,,,,,,,,,,,,,,,,,,,,,,,,,,,,,,,,,,,,,,l,3.181999922,GL,FALSE,,,,,,,151,lluna,Catalan,Sounds/cat_lluna.mp3,2020-06-12_20h53.01.662,TranslationElicitation_eng-prolific,3.2.4,MacIntel,60,5ebd2a07fa52241862dbca05,,1,0,81,44,1,80
,,,,,,,,,,,,,,,,,,,,,,,,,,,,,,,,,,,,,,,,,u,3.350000143,GLU,FALSE,,,,,,,151,lluna,Catalan,Sounds/cat_lluna.mp3,2020-06-12_20h53.01.662,TranslationElicitation_eng-prolific,3.2.4,MacIntel,60,5ebd2a07fa52241862dbca05,,1,0,81,44,1,80
,,,,,,,,,,,,,,,,,,,,,,,,,,,,,,,,,,,,,,,,,e,3.549999952,GLUE,FALSE,,,,,,,151,lluna,Catalan,Sounds/cat_lluna.mp3,2020-06-12_20h53.01.662,TranslationElicitation_eng-prolific,3.2.4,MacIntel,60,5ebd2a07fa52241862dbca05,,1,0,81,44,1,80
,,,,,,,,,,,,,,,,,,,,,,,,,,,,,,,,,,,,,,,,,return,3.921999931,GLUE,FALSE,,,,,,,151,lluna,Catalan,Sounds/cat_lluna.mp3,2020-06-12_20h53.01.662,TranslationElicitation_eng-prolific,3.2.4,MacIntel,60,5ebd2a07fa52241862dbca05,3.921999931,1,0,81,44,1,80
,,,,,,,,,,,,,,,,,,,,,,,,,,,,,,,,,,,,,,,,,,,,,,,,,,,151,lluna,Catalan,Sounds/cat_lluna.mp3,2020-06-12_20h53.01.662,TranslationElicitation_eng-prolific,3.2.4,MacIntel,60,5ebd2a07fa52241862dbca05,,1,0,81,44,1,80
,,,,,,,,,,,,,,,,,,,,,,,,,,,,,,,,,,,,,,,,,m,1.200999975,M,FALSE,,,,,,,155,moneda,Catalan,Sounds/cat_moneda.mp3,2020-06-12_20h53.01.662,TranslationElicitation_eng-prolific,3.2.4,MacIntel,60,5ebd2a07fa52241862dbca05,,1,0,81,48,1,80
,,,,,,,,,,,,,,,,,,,,,,,,,,,,,,,,,,,,,,,,,o,1.348999977,MO,FALSE,,,,,,,155,moneda,Catalan,Sounds/cat_moneda.mp3,2020-06-12_20h53.01.662,TranslationElicitation_eng-prolific,3.2.4,MacIntel,60,5ebd2a07fa52241862dbca05,,1,0,81,48,1,80
,,,,,,,,,,,,,,,,,,,,,,,,,,,,,,,,,,,,,,,,,n,1.566999912,MON,FALSE,,,,,,,155,moneda,Catalan,Sounds/cat_moneda.mp3,2020-06-12_20h53.01.662,TranslationElicitation_eng-prolific,3.2.4,MacIntel,60,5ebd2a07fa52241862dbca05,,1,0,81,48,1,80
,,,,,,,,,,,,,,,,,,,,,,,,,,,,,,,,,,,,,,,,,e,1.75,MONE,FALSE,,,,,,,155,moneda,Catalan,Sounds/cat_moneda.mp3,2020-06-12_20h53.01.662,TranslationElicitation_eng-prolific,3.2.4,MacIntel,60,5ebd2a07fa52241862dbca05,,1,0,81,48,1,80
,,,,,,,,,,,,,,,,,,,,,,,,,,,,,,,,,,,,,,,,,y,1.865999937,MONEY,FALSE,,,,,,,155,moneda,Catalan,Sounds/cat_moneda.mp3,2020-06-12_20h53.01.662,TranslationElicitation_eng-prolific,3.2.4,MacIntel,60,5ebd2a07fa52241862dbca05,,1,0,81,48,1,80
,,,,,,,,,,,,,,,,,,,,,,,,,,,,,,,,,,,,,,,,,return,2.465999842,MONEY,FALSE,,,,,,,155,moneda,Catalan,Sounds/cat_moneda.mp3,2020-06-12_20h53.01.662,TranslationElicitation_eng-prolific,3.2.4,MacIntel,60,5ebd2a07fa52241862dbca05,2.465999842,1,0,81,48,1,80
,,,,,,,,,,,,,,,,,,,,,,,,,,,,,,,,,,,,,,,,,,,,,,,,,,,155,moneda,Catalan,Sounds/cat_moneda.mp3,2020-06-12_20h53.01.662,TranslationElicitation_eng-prolific,3.2.4,MacIntel,60,5ebd2a07fa52241862dbca05,,1,0,81,48,1,80
,,,,,,,,,,,,,,,,,,,,,,,,,,,,,,,,,,,,,,,,,o,1.381999969,O,FALSE,,,,,,,174,porta,Catalan,Sounds/cat_porta.mp3,2020-06-12_20h53.01.662,TranslationElicitation_eng-prolific,3.2.4,MacIntel,60,5ebd2a07fa52241862dbca05,,1,0,81,66,1,80
,,,,,,,,,,,,,,,,,,,,,,,,,,,,,,,,,,,,,,,,,r,1.549000025,OR,FALSE,,,,,,,174,porta,Catalan,Sounds/cat_porta.mp3,2020-06-12_20h53.01.662,TranslationElicitation_eng-prolific,3.2.4,MacIntel,60,5ebd2a07fa52241862dbca05,,1,0,81,66,1,80
,,,,,,,,,,,,,,,,,,,,,,,,,,,,,,,,,,,,,,,,,t,1.697999954,ORT,FALSE,,,,,,,174,porta,Catalan,Sounds/cat_porta.mp3,2020-06-12_20h53.01.662,TranslationElicitation_eng-prolific,3.2.4,MacIntel,60,5ebd2a07fa52241862dbca05,,1,0,81,66,1,80
,,,,,,,,,,,,,,,,,,,,,,,,,,,,,,,,,,,,,,,,,return,2.032000065,ORT,FALSE,,,,,,,174,porta,Catalan,Sounds/cat_porta.mp3,2020-06-12_20h53.01.662,TranslationElicitation_eng-prolific,3.2.4,MacIntel,60,5ebd2a07fa52241862dbca05,2.032000065,1,0,81,66,1,80
,,,,,,,,,,,,,,,,,,,,,,,,,,,,,,,,,,,,,,,,,,,,,,,,,,,174,porta,Catalan,Sounds/cat_porta.mp3,2020-06-12_20h53.01.662,TranslationElicitation_eng-prolific,3.2.4,MacIntel,60,5ebd2a07fa52241862dbca05,,1,0,81,66,1,80
,,,,,,,,,,,,,,,,,,,,,,,,,,,,,,,,,,,,,,,,,g,1.434000015,G,FALSE,,,,,,,140,gat,Catalan,Sounds/cat_gat.mp3,2020-06-12_20h53.01.662,TranslationElicitation_eng-prolific,3.2.4,MacIntel,60,5ebd2a07fa52241862dbca05,,1,0,81,34,1,80
,,,,,,,,,,,,,,,,,,,,,,,,,,,,,,,,,,,,,,,,,o,1.850999832,GO,FALSE,,,,,,,140,gat,Catalan,Sounds/cat_gat.mp3,2020-06-12_20h53.01.662,TranslationElicitation_eng-prolific,3.2.4,MacIntel,60,5ebd2a07fa52241862dbca05,,1,0,81,34,1,80
,,,,,,,,,,,,,,,,,,,,,,,,,,,,,,,,,,,,,,,,,d,2.28399992,GOD,FALSE,,,,,,,140,gat,Catalan,Sounds/cat_gat.mp3,2020-06-12_20h53.01.662,TranslationElicitation_eng-prolific,3.2.4,MacIntel,60,5ebd2a07fa52241862dbca05,,1,0,81,34,1,80
,,,,,,,,,,,,,,,,,,,,,,,,,,,,,,,,,,,,,,,,,return,2.632999897,GOD,FALSE,,,,,,,140,gat,Catalan,Sounds/cat_gat.mp3,2020-06-12_20h53.01.662,TranslationElicitation_eng-prolific,3.2.4,MacIntel,60,5ebd2a07fa52241862dbca05,2.632999897,1,0,81,34,1,80
,,,,,,,,,,,,,,,,,,,,,,,,,,,,,,,,,,,,,,,,,,,,,,,,,,,140,gat,Catalan,Sounds/cat_gat.mp3,2020-06-12_20h53.01.662,TranslationElicitation_eng-prolific,3.2.4,MacIntel,60,5ebd2a07fa52241862dbca05,,1,0,81,34,1,80
,,,,,,,,,,,,,,,,,,,,,,,,,,,,,,,,,,,,,,,,,b,1.75,B,FALSE,,,,,,,117,boto,Catalan,Sounds/cat_boto.mp3,2020-06-12_20h53.01.662,TranslationElicitation_eng-prolific,3.2.4,MacIntel,60,5ebd2a07fa52241862dbca05,,1,0,81,12,1,80
,,,,,,,,,,,,,,,,,,,,,,,,,,,,,,,,,,,,,,,,,u,2.023000002,BU,FALSE,,,,,,,117,boto,Catalan,Sounds/cat_boto.mp3,2020-06-12_20h53.01.662,TranslationElicitation_eng-prolific,3.2.4,MacIntel,60,5ebd2a07fa52241862dbca05,,1,0,81,12,1,80
,,,,,,,,,,,,,,,,,,,,,,,,,,,,,,,,,,,,,,,,,backspace,6.801000118,B,TRUE,,,,,,,117,boto,Catalan,Sounds/cat_boto.mp3,2020-06-12_20h53.01.662,TranslationElicitation_eng-prolific,3.2.4,MacIntel,60,5ebd2a07fa52241862dbca05,,1,0,81,12,1,80
,,,,,,,,,,,,,,,,,,,,,,,,,,,,,,,,,,,,,,,,,backspace,8.018000126,,TRUE,,,,,,,117,boto,Catalan,Sounds/cat_boto.mp3,2020-06-12_20h53.01.662,TranslationElicitation_eng-prolific,3.2.4,MacIntel,60,5ebd2a07fa52241862dbca05,,1,0,81,12,1,80
,,,,,,,,,,,,,,,,,,,,,,,,,,,,,,,,,,,,,,,,,p,8.38499999,P,TRUE,,,,,,,117,boto,Catalan,Sounds/cat_boto.mp3,2020-06-12_20h53.01.662,TranslationElicitation_eng-prolific,3.2.4,MacIntel,60,5ebd2a07fa52241862dbca05,,1,0,81,12,1,80
,,,,,,,,,,,,,,,,,,,,,,,,,,,,,,,,,,,,,,,,,l,8.532999992,PL,TRUE,,,,,,,117,boto,Catalan,Sounds/cat_boto.mp3,2020-06-12_20h53.01.662,TranslationElicitation_eng-prolific,3.2.4,MacIntel,60,5ebd2a07fa52241862dbca05,,1,0,81,12,1,80
,,,,,,,,,,,,,,,,,,,,,,,,,,,,,,,,,,,,,,,,,u,8.768000126,PLU,TRUE,,,,,,,117,boto,Catalan,Sounds/cat_boto.mp3,2020-06-12_20h53.01.662,TranslationElicitation_eng-prolific,3.2.4,MacIntel,60,5ebd2a07fa52241862dbca05,,1,0,81,12,1,80
,,,,,,,,,,,,,,,,,,,,,,,,,,,,,,,,,,,,,,,,,g,9.132999897,PLUG,TRUE,,,,,,,117,boto,Catalan,Sounds/cat_boto.mp3,2020-06-12_20h53.01.662,TranslationElicitation_eng-prolific,3.2.4,MacIntel,60,5ebd2a07fa52241862dbca05,,1,0,81,12,1,80
,,,,,,,,,,,,,,,,,,,,,,,,,,,,,,,,,,,,,,,,,h,9.400000095,PLUGH,TRUE,,,,,,,117,boto,Catalan,Sounds/cat_boto.mp3,2020-06-12_20h53.01.662,TranslationElicitation_eng-prolific,3.2.4,MacIntel,60,5ebd2a07fa52241862dbca05,,1,0,81,12,1,80
,,,,,,,,,,,,,,,,,,,,,,,,,,,,,,,,,,,,,,,,,o,9.733999968,PLUGHO,TRUE,,,,,,,117,boto,Catalan,Sounds/cat_boto.mp3,2020-06-12_20h53.01.662,TranslationElicitation_eng-prolific,3.2.4,MacIntel,60,5ebd2a07fa52241862dbca05,,1,0,81,12,1,80
,,,,,,,,,,,,,,,,,,,,,,,,,,,,,,,,,,,,,,,,,l,9.867000103,PLUGHOL,TRUE,,,,,,,117,boto,Catalan,Sounds/cat_boto.mp3,2020-06-12_20h53.01.662,TranslationElicitation_eng-prolific,3.2.4,MacIntel,60,5ebd2a07fa52241862dbca05,,1,0,81,12,1,80
,,,,,,,,,,,,,,,,,,,,,,,,,,,,,,,,,,,,,,,,,e,10.03399992,PLUGHOLE,TRUE,,,,,,,117,boto,Catalan,Sounds/cat_boto.mp3,2020-06-12_20h53.01.662,TranslationElicitation_eng-prolific,3.2.4,MacIntel,60,5ebd2a07fa52241862dbca05,,1,0,81,12,1,80
,,,,,,,,,,,,,,,,,,,,,,,,,,,,,,,,,,,,,,,,,return,10.56699991,PLUGHOLE,TRUE,,,,,,,117,boto,Catalan,Sounds/cat_boto.mp3,2020-06-12_20h53.01.662,TranslationElicitation_eng-prolific,3.2.4,MacIntel,60,5ebd2a07fa52241862dbca05,10.56699991,1,0,81,12,1,80
,,,,,,,,,,,,,,,,,,,,,,,,,,,,,,,,,,,,,,,,,,,,,,,,,,,117,boto,Catalan,Sounds/cat_boto.mp3,2020-06-12_20h53.01.662,TranslationElicitation_eng-prolific,3.2.4,MacIntel,60,5ebd2a07fa52241862dbca05,,1,0,81,12,1,80
,,,,,,,,,,,,,,,,,,,,,,,,,,,,,,,,,,,,,,,,,p,1.865999937,P,FALSE,,,,,,,163,papallona,Catalan,Sounds/cat_papallona.mp3,2020-06-12_20h53.01.662,TranslationElicitation_eng-prolific,3.2.4,MacIntel,60,5ebd2a07fa52241862dbca05,,1,0,81,55,1,80
,,,,,,,,,,,,,,,,,,,,,,,,,,,,,,,,,,,,,,,,,backspace,3.714999914,,TRUE,,,,,,,163,papallona,Catalan,Sounds/cat_papallona.mp3,2020-06-12_20h53.01.662,TranslationElicitation_eng-prolific,3.2.4,MacIntel,60,5ebd2a07fa52241862dbca05,,1,0,81,55,1,80
,,,,,,,,,,,,,,,,,,,,,,,,,,,,,,,,,,,,,,,,,f,4.01699996,F,TRUE,,,,,,,163,papallona,Catalan,Sounds/cat_papallona.mp3,2020-06-12_20h53.01.662,TranslationElicitation_eng-prolific,3.2.4,MacIntel,60,5ebd2a07fa52241862dbca05,,1,0,81,55,1,80
,,,,,,,,,,,,,,,,,,,,,,,,,,,,,,,,,,,,,,,,,a,4.182999849,FA,TRUE,,,,,,,163,papallona,Catalan,Sounds/cat_papallona.mp3,2020-06-12_20h53.01.662,TranslationElicitation_eng-prolific,3.2.4,MacIntel,60,5ebd2a07fa52241862dbca05,,1,0,81,55,1,80
,,,,,,,,,,,,,,,,,,,,,,,,,,,,,,,,,,,,,,,,,t,4.382999897,FAT,TRUE,,,,,,,163,papallona,Catalan,Sounds/cat_papallona.mp3,2020-06-12_20h53.01.662,TranslationElicitation_eng-prolific,3.2.4,MacIntel,60,5ebd2a07fa52241862dbca05,,1,0,81,55,1,80
,,,,,,,,,,,,,,,,,,,,,,,,,,,,,,,,,,,,,,,,,h,4.61500001,FATH,TRUE,,,,,,,163,papallona,Catalan,Sounds/cat_papallona.mp3,2020-06-12_20h53.01.662,TranslationElicitation_eng-prolific,3.2.4,MacIntel,60,5ebd2a07fa52241862dbca05,,1,0,81,55,1,80
,,,,,,,,,,,,,,,,,,,,,,,,,,,,,,,,,,,,,,,,,e,4.748999834,FATHE,TRUE,,,,,,,163,papallona,Catalan,Sounds/cat_papallona.mp3,2020-06-12_20h53.01.662,TranslationElicitation_eng-prolific,3.2.4,MacIntel,60,5ebd2a07fa52241862dbca05,,1,0,81,55,1,80
,,,,,,,,,,,,,,,,,,,,,,,,,,,,,,,,,,,,,,,,,r,4.799000025,FATHER,TRUE,,,,,,,163,papallona,Catalan,Sounds/cat_papallona.mp3,2020-06-12_20h53.01.662,TranslationElicitation_eng-prolific,3.2.4,MacIntel,60,5ebd2a07fa52241862dbca05,,1,0,81,55,1,80
,,,,,,,,,,,,,,,,,,,,,,,,,,,,,,,,,,,,,,,,,return,5.313999891,FATHER,TRUE,,,,,,,163,papallona,Catalan,Sounds/cat_papallona.mp3,2020-06-12_20h53.01.662,TranslationElicitation_eng-prolific,3.2.4,MacIntel,60,5ebd2a07fa52241862dbca05,5.313999891,1,0,81,55,1,80
,,,,,,,,,,,,,,,,,,,,,,,,,,,,,,,,,,,,,,,,,,,,,,,,,,,163,papallona,Catalan,Sounds/cat_papallona.mp3,2020-06-12_20h53.01.662,TranslationElicitation_eng-prolific,3.2.4,MacIntel,60,5ebd2a07fa52241862dbca05,,1,0,81,55,1,80
,,,,,,,,,,,,,,,,,,,,,,,,,,,,,,,,,,,,,,,,,z,2.549999952,Z,FALSE,,,,,,,189,zebra,Catalan,Sounds/cat_zebra.mp3,2020-06-12_20h53.01.662,TranslationElicitation_eng-prolific,3.2.4,MacIntel,60,5ebd2a07fa52241862dbca05,,1,0,81,80,1,80
,,,,,,,,,,,,,,,,,,,,,,,,,,,,,,,,,,,,,,,,,e,2.866999865,ZE,FALSE,,,,,,,189,zebra,Catalan,Sounds/cat_zebra.mp3,2020-06-12_20h53.01.662,TranslationElicitation_eng-prolific,3.2.4,MacIntel,60,5ebd2a07fa52241862dbca05,,1,0,81,80,1,80
,,,,,,,,,,,,,,,,,,,,,,,,,,,,,,,,,,,,,,,,,b,3.23300004,ZEB,FALSE,,,,,,,189,zebra,Catalan,Sounds/cat_zebra.mp3,2020-06-12_20h53.01.662,TranslationElicitation_eng-prolific,3.2.4,MacIntel,60,5ebd2a07fa52241862dbca05,,1,0,81,80,1,80
,,,,,,,,,,,,,,,,,,,,,,,,,,,,,,,,,,,,,,,,,r,3.399999857,ZEBR,FALSE,,,,,,,189,zebra,Catalan,Sounds/cat_zebra.mp3,2020-06-12_20h53.01.662,TranslationElicitation_eng-prolific,3.2.4,MacIntel,60,5ebd2a07fa52241862dbca05,,1,0,81,80,1,80
,,,,,,,,,,,,,,,,,,,,,,,,,,,,,,,,,,,,,,,,,a,3.598999977,ZEBRA,FALSE,,,,,,,189,zebra,Catalan,Sounds/cat_zebra.mp3,2020-06-12_20h53.01.662,TranslationElicitation_eng-prolific,3.2.4,MacIntel,60,5ebd2a07fa52241862dbca05,,1,0,81,80,1,80
,,,,,,,,,,,,,,,,,,,,,,,,,,,,,,,,,,,,,,,,,return,4.25,ZEBRA,FALSE,,,,,,,189,zebra,Catalan,Sounds/cat_zebra.mp3,2020-06-12_20h53.01.662,TranslationElicitation_eng-prolific,3.2.4,MacIntel,60,5ebd2a07fa52241862dbca05,4.25,1,0,81,80,1,80
,,,,,,,,,,,,,,,,,,,,,,,,,,,,,,,,,,,,,,,,,,,,,,,,,,,189,zebra,Catalan,Sounds/cat_zebra.mp3,2020-06-12_20h53.01.662,TranslationElicitation_eng-prolific,3.2.4,MacIntel,60,5ebd2a07fa52241862dbca05,,1,0,81,80,1,80
,,,,,,,,,,,,,,,,,,,,,,,,,,,,,,,,,,,,,,,,,c,2.132999897,C,FALSE,,,,,,,128,cuc,Catalan,Sounds/cat_cuc.mp3,2020-06-12_20h53.01.662,TranslationElicitation_eng-prolific,3.2.4,MacIntel,60,5ebd2a07fa52241862dbca05,,1,0,81,22,1,80
,,,,,,,,,,,,,,,,,,,,,,,,,,,,,,,,,,,,,,,,,o,2.299999952,CO,FALSE,,,,,,,128,cuc,Catalan,Sounds/cat_cuc.mp3,2020-06-12_20h53.01.662,TranslationElicitation_eng-prolific,3.2.4,MacIntel,60,5ebd2a07fa52241862dbca05,,1,0,81,22,1,80
,,,,,,,,,,,,,,,,,,,,,,,,,,,,,,,,,,,,,,,,,k,2.450000048,COK,FALSE,,,,,,,128,cuc,Catalan,Sounds/cat_cuc.mp3,2020-06-12_20h53.01.662,TranslationElicitation_eng-prolific,3.2.4,MacIntel,60,5ebd2a07fa52241862dbca05,,1,0,81,22,1,80
,,,,,,,,,,,,,,,,,,,,,,,,,,,,,,,,,,,,,,,,,e,2.549999952,COKE,FALSE,,,,,,,128,cuc,Catalan,Sounds/cat_cuc.mp3,2020-06-12_20h53.01.662,TranslationElicitation_eng-prolific,3.2.4,MacIntel,60,5ebd2a07fa52241862dbca05,,1,0,81,22,1,80
,,,,,,,,,,,,,,,,,,,,,,,,,,,,,,,,,,,,,,,,,return,3.238999844,COKE,FALSE,,,,,,,128,cuc,Catalan,Sounds/cat_cuc.mp3,2020-06-12_20h53.01.662,TranslationElicitation_eng-prolific,3.2.4,MacIntel,60,5ebd2a07fa52241862dbca05,3.238999844,1,0,81,22,1,80
,,,,,,,,,,,,,,,,,,,,,,,,,,,,,,,,,,,,,,,,,,,,,,,,,,,128,cuc,Catalan,Sounds/cat_cuc.mp3,2020-06-12_20h53.01.662,TranslationElicitation_eng-prolific,3.2.4,MacIntel,60,5ebd2a07fa52241862dbca05,,1,0,81,22,1,80
,,,,,,,,,,,,,,,,,,,,,,,,,,,,,,,,,,,,,,,,,f,2.165999889,F,FALSE,,,,,,,134,flor,Catalan,Sounds/cat_flor.mp3,2020-06-12_20h53.01.662,TranslationElicitation_eng-prolific,3.2.4,MacIntel,60,5ebd2a07fa52241862dbca05,,1,0,81,28,1,80
,,,,,,,,,,,,,,,,,,,,,,,,,,,,,,,,,,,,,,,,,l,2.398999929,FL,FALSE,,,,,,,134,flor,Catalan,Sounds/cat_flor.mp3,2020-06-12_20h53.01.662,TranslationElicitation_eng-prolific,3.2.4,MacIntel,60,5ebd2a07fa52241862dbca05,,1,0,81,28,1,80
,,,,,,,,,,,,,,,,,,,,,,,,,,,,,,,,,,,,,,,,,o,2.599999905,FLO,FALSE,,,,,,,134,flor,Catalan,Sounds/cat_flor.mp3,2020-06-12_20h53.01.662,TranslationElicitation_eng-prolific,3.2.4,MacIntel,60,5ebd2a07fa52241862dbca05,,1,0,81,28,1,80
,,,,,,,,,,,,,,,,,,,,,,,,,,,,,,,,,,,,,,,,,w,2.782999992,FLOW,FALSE,,,,,,,134,flor,Catalan,Sounds/cat_flor.mp3,2020-06-12_20h53.01.662,TranslationElicitation_eng-prolific,3.2.4,MacIntel,60,5ebd2a07fa52241862dbca05,,1,0,81,28,1,80
,,,,,,,,,,,,,,,,,,,,,,,,,,,,,,,,,,,,,,,,,return,3.167000055,FLOW,FALSE,,,,,,,134,flor,Catalan,Sounds/cat_flor.mp3,2020-06-12_20h53.01.662,TranslationElicitation_eng-prolific,3.2.4,MacIntel,60,5ebd2a07fa52241862dbca05,3.167000055,1,0,81,28,1,80
,,,,,,,,,,,,,,,,,,,,,,,,,,,,,,,,,,,,,,,,,,,,,,,,,,,134,flor,Catalan,Sounds/cat_flor.mp3,2020-06-12_20h53.01.662,TranslationElicitation_eng-prolific,3.2.4,MacIntel,60,5ebd2a07fa52241862dbca05,,1,0,81,28,1,80
,,,,,,,,,,,,,,,,,,,,,,,,,,,,,,,,,,,,,,,,,g,2.23300004,G,FALSE,,,,,,,144,gorra,Catalan,Sounds/cat_gorra.mp3,2020-06-12_20h53.01.662,TranslationElicitation_eng-prolific,3.2.4,MacIntel,60,5ebd2a07fa52241862dbca05,,1,0,81,38,1,80
,,,,,,,,,,,,,,,,,,,,,,,,,,,,,,,,,,,,,,,,,o,2.564999819,GO,FALSE,,,,,,,144,gorra,Catalan,Sounds/cat_gorra.mp3,2020-06-12_20h53.01.662,TranslationElicitation_eng-prolific,3.2.4,MacIntel,60,5ebd2a07fa52241862dbca05,,1,0,81,38,1,80
,,,,,,,,,,,,,,,,,,,,,,,,,,,,,,,,,,,,,,,,,r,2.717000008,GOR,FALSE,,,,,,,144,gorra,Catalan,Sounds/cat_gorra.mp3,2020-06-12_20h53.01.662,TranslationElicitation_eng-prolific,3.2.4,MacIntel,60,5ebd2a07fa52241862dbca05,,1,0,81,38,1,80
,,,,,,,,,,,,,,,,,,,,,,,,,,,,,,,,,,,,,,,,,d,2.964999914,GORD,FALSE,,,,,,,144,gorra,Catalan,Sounds/cat_gorra.mp3,2020-06-12_20h53.01.662,TranslationElicitation_eng-prolific,3.2.4,MacIntel,60,5ebd2a07fa52241862dbca05,,1,0,81,38,1,80
,,,,,,,,,,,,,,,,,,,,,,,,,,,,,,,,,,,,,,,,,o,3.516000032,GORDO,FALSE,,,,,,,144,gorra,Catalan,Sounds/cat_gorra.mp3,2020-06-12_20h53.01.662,TranslationElicitation_eng-prolific,3.2.4,MacIntel,60,5ebd2a07fa52241862dbca05,,1,0,81,38,1,80
,,,,,,,,,,,,,,,,,,,,,,,,,,,,,,,,,,,,,,,,,n,3.748999834,GORDON,FALSE,,,,,,,144,gorra,Catalan,Sounds/cat_gorra.mp3,2020-06-12_20h53.01.662,TranslationElicitation_eng-prolific,3.2.4,MacIntel,60,5ebd2a07fa52241862dbca05,,1,0,81,38,1,80
,,,,,,,,,,,,,,,,,,,,,,,,,,,,,,,,,,,,,,,,,return,4.467000008,GORDON,FALSE,,,,,,,144,gorra,Catalan,Sounds/cat_gorra.mp3,2020-06-12_20h53.01.662,TranslationElicitation_eng-prolific,3.2.4,MacIntel,60,5ebd2a07fa52241862dbca05,4.467000008,1,0,81,38,1,80
,,,,,,,,,,,,,,,,,,,,,,,,,,,,,,,,,,,,,,,,,,,,,,,,,,,144,gorra,Catalan,Sounds/cat_gorra.mp3,2020-06-12_20h53.01.662,TranslationElicitation_eng-prolific,3.2.4,MacIntel,60,5ebd2a07fa52241862dbca05,,1,0,81,38,1,80
,,,,,,,,,,,,,,,,,,,,,,,,,,,,,,,,,,,,,,,,,m,2.351000071,M,FALSE,,,,,,,152,ma,Catalan,Sounds/cat_ma.mp3,2020-06-12_20h53.01.662,TranslationElicitation_eng-prolific,3.2.4,MacIntel,60,5ebd2a07fa52241862dbca05,,1,0,81,45,1,80
,,,,,,,,,,,,,,,,,,,,,,,,,,,,,,,,,,,,,,,,,o,2.551000118,MO,FALSE,,,,,,,152,ma,Catalan,Sounds/cat_ma.mp3,2020-06-12_20h53.01.662,TranslationElicitation_eng-prolific,3.2.4,MacIntel,60,5ebd2a07fa52241862dbca05,,1,0,81,45,1,80
,,,,,,,,,,,,,,,,,,,,,,,,,,,,,,,,,,,,,,,,,t,2.766000032,MOT,FALSE,,,,,,,152,ma,Catalan,Sounds/cat_ma.mp3,2020-06-12_20h53.01.662,TranslationElicitation_eng-prolific,3.2.4,MacIntel,60,5ebd2a07fa52241862dbca05,,1,0,81,45,1,80
,,,,,,,,,,,,,,,,,,,,,,,,,,,,,,,,,,,,,,,,,t,2.866000175,MOTT,FALSE,,,,,,,152,ma,Catalan,Sounds/cat_ma.mp3,2020-06-12_20h53.01.662,TranslationElicitation_eng-prolific,3.2.4,MacIntel,60,5ebd2a07fa52241862dbca05,,1,0,81,45,1,80
,,,,,,,,,,,,,,,,,,,,,,,,,,,,,,,,,,,,,,,,,h,3.050000191,MOTTH,FALSE,,,,,,,152,ma,Catalan,Sounds/cat_ma.mp3,2020-06-12_20h53.01.662,TranslationElicitation_eng-prolific,3.2.4,MacIntel,60,5ebd2a07fa52241862dbca05,,1,0,81,45,1,80
,,,,,,,,,,,,,,,,,,,,,,,,,,,,,,,,,,,,,,,,,e,3.200000048,MOTTHE,FALSE,,,,,,,152,ma,Catalan,Sounds/cat_ma.mp3,2020-06-12_20h53.01.662,TranslationElicitation_eng-prolific,3.2.4,MacIntel,60,5ebd2a07fa52241862dbca05,,1,0,81,45,1,80
,,,,,,,,,,,,,,,,,,,,,,,,,,,,,,,,,,,,,,,,,r,3.284000158,MOTTHER,FALSE,,,,,,,152,ma,Catalan,Sounds/cat_ma.mp3,2020-06-12_20h53.01.662,TranslationElicitation_eng-prolific,3.2.4,MacIntel,60,5ebd2a07fa52241862dbca05,,1,0,81,45,1,80
,,,,,,,,,,,,,,,,,,,,,,,,,,,,,,,,,,,,,,,,,backspace,4.049000025,MOTTHE,TRUE,,,,,,,152,ma,Catalan,Sounds/cat_ma.mp3,2020-06-12_20h53.01.662,TranslationElicitation_eng-prolific,3.2.4,MacIntel,60,5ebd2a07fa52241862dbca05,,1,0,81,45,1,80
,,,,,,,,,,,,,,,,,,,,,,,,,,,,,,,,,,,,,,,,,backspace,4.202000141,MOTTH,TRUE,,,,,,,152,ma,Catalan,Sounds/cat_ma.mp3,2020-06-12_20h53.01.662,TranslationElicitation_eng-prolific,3.2.4,MacIntel,60,5ebd2a07fa52241862dbca05,,1,0,81,45,1,80
,,,,,,,,,,,,,,,,,,,,,,,,,,,,,,,,,,,,,,,,,backspace,4.351000071,MOTT,TRUE,,,,,,,152,ma,Catalan,Sounds/cat_ma.mp3,2020-06-12_20h53.01.662,TranslationElicitation_eng-prolific,3.2.4,MacIntel,60,5ebd2a07fa52241862dbca05,,1,0,81,45,1,80
,,,,,,,,,,,,,,,,,,,,,,,,,,,,,,,,,,,,,,,,,backspace,4.718000174,MOT,TRUE,,,,,,,152,ma,Catalan,Sounds/cat_ma.mp3,2020-06-12_20h53.01.662,TranslationElicitation_eng-prolific,3.2.4,MacIntel,60,5ebd2a07fa52241862dbca05,,1,0,81,45,1,80
,,,,,,,,,,,,,,,,,,,,,,,,,,,,,,,,,,,,,,,,,h,5.267000198,MOTH,TRUE,,,,,,,152,ma,Catalan,Sounds/cat_ma.mp3,2020-06-12_20h53.01.662,TranslationElicitation_eng-prolific,3.2.4,MacIntel,60,5ebd2a07fa52241862dbca05,,1,0,81,45,1,80
,,,,,,,,,,,,,,,,,,,,,,,,,,,,,,,,,,,,,,,,,e,5.450000048,MOTHE,TRUE,,,,,,,152,ma,Catalan,Sounds/cat_ma.mp3,2020-06-12_20h53.01.662,TranslationElicitation_eng-prolific,3.2.4,MacIntel,60,5ebd2a07fa52241862dbca05,,1,0,81,45,1,80
,,,,,,,,,,,,,,,,,,,,,,,,,,,,,,,,,,,,,,,,,r,5.534000158,MOTHER,TRUE,,,,,,,152,ma,Catalan,Sounds/cat_ma.mp3,2020-06-12_20h53.01.662,TranslationElicitation_eng-prolific,3.2.4,MacIntel,60,5ebd2a07fa52241862dbca05,,1,0,81,45,1,80
,,,,,,,,,,,,,,,,,,,,,,,,,,,,,,,,,,,,,,,,,return,5.950000048,MOTHER,TRUE,,,,,,,152,ma,Catalan,Sounds/cat_ma.mp3,2020-06-12_20h53.01.662,TranslationElicitation_eng-prolific,3.2.4,MacIntel,60,5ebd2a07fa52241862dbca05,5.950000048,1,0,81,45,1,80
,,,,,,,,,,,,,,,,,,,,,,,,,,,,,,,,,,,,,,,,,,,,,,,,,,,152,ma,Catalan,Sounds/cat_ma.mp3,2020-06-12_20h53.01.662,TranslationElicitation_eng-prolific,3.2.4,MacIntel,60,5ebd2a07fa52241862dbca05,,1,0,81,45,1,80
,,,,,,,,,,,,,,,,,,,,,,,,,,,,,,,,,,,,,,,,,r,1.76699996,R,FALSE,,,,,,,175,raspall,Catalan,Sounds/cat_raspall.mp3,2020-06-12_20h53.01.662,TranslationElicitation_eng-prolific,3.2.4,MacIntel,60,5ebd2a07fa52241862dbca05,,1,0,81,67,1,80
,,,,,,,,,,,,,,,,,,,,,,,,,,,,,,,,,,,,,,,,,e,1.883000135,RE,FALSE,,,,,,,175,raspall,Catalan,Sounds/cat_raspall.mp3,2020-06-12_20h53.01.662,TranslationElicitation_eng-prolific,3.2.4,MacIntel,60,5ebd2a07fa52241862dbca05,,1,0,81,67,1,80
,,,,,,,,,,,,,,,,,,,,,,,,,,,,,,,,,,,,,,,,,s,2.167000055,RES,FALSE,,,,,,,175,raspall,Catalan,Sounds/cat_raspall.mp3,2020-06-12_20h53.01.662,TranslationElicitation_eng-prolific,3.2.4,MacIntel,60,5ebd2a07fa52241862dbca05,,1,0,81,67,1,80
,,,,,,,,,,,,,,,,,,,,,,,,,,,,,,,,,,,,,,,,,p,2.273999929,RESP,FALSE,,,,,,,175,raspall,Catalan,Sounds/cat_raspall.mp3,2020-06-12_20h53.01.662,TranslationElicitation_eng-prolific,3.2.4,MacIntel,60,5ebd2a07fa52241862dbca05,,1,0,81,67,1,80
,,,,,,,,,,,,,,,,,,,,,,,,,,,,,,,,,,,,,,,,,e,2.383000135,RESPE,FALSE,,,,,,,175,raspall,Catalan,Sounds/cat_raspall.mp3,2020-06-12_20h53.01.662,TranslationElicitation_eng-prolific,3.2.4,MacIntel,60,5ebd2a07fa52241862dbca05,,1,0,81,67,1,80
,,,,,,,,,,,,,,,,,,,,,,,,,,,,,,,,,,,,,,,,,c,2.568000078,RESPEC,FALSE,,,,,,,175,raspall,Catalan,Sounds/cat_raspall.mp3,2020-06-12_20h53.01.662,TranslationElicitation_eng-prolific,3.2.4,MacIntel,60,5ebd2a07fa52241862dbca05,,1,0,81,67,1,80
,,,,,,,,,,,,,,,,,,,,,,,,,,,,,,,,,,,,,,,,,t,2.76699996,RESPECT,FALSE,,,,,,,175,raspall,Catalan,Sounds/cat_raspall.mp3,2020-06-12_20h53.01.662,TranslationElicitation_eng-prolific,3.2.4,MacIntel,60,5ebd2a07fa52241862dbca05,,1,0,81,67,1,80
,,,,,,,,,,,,,,,,,,,,,,,,,,,,,,,,,,,,,,,,,return,3.133000135,RESPECT,FALSE,,,,,,,175,raspall,Catalan,Sounds/cat_raspall.mp3,2020-06-12_20h53.01.662,TranslationElicitation_eng-prolific,3.2.4,MacIntel,60,5ebd2a07fa52241862dbca05,3.133000135,1,0,81,67,1,80
,,,,,,,,,,,,,,,,,,,,,,,,,,,,,,,,,,,,,,,,,,,,,,,,,,,175,raspall,Catalan,Sounds/cat_raspall.mp3,2020-06-12_20h53.01.662,TranslationElicitation_eng-prolific,3.2.4,MacIntel,60,5ebd2a07fa52241862dbca05,,1,0,81,67,1,80
,,,,,,,,,,,,,,,,,,,,,,,,,,,,,,,,,,,,,,,,,o,1.083999872,O,FALSE,,,,,,,182,tomaquet,Catalan,Sounds/cat_tomaquet.mp3,2020-06-12_20h53.01.662,TranslationElicitation_eng-prolific,3.2.4,MacIntel,60,5ebd2a07fa52241862dbca05,,1,0,81,73,1,80
,,,,,,,,,,,,,,,,,,,,,,,,,,,,,,,,,,,,,,,,,m,1.282999992,OM,FALSE,,,,,,,182,tomaquet,Catalan,Sounds/cat_tomaquet.mp3,2020-06-12_20h53.01.662,TranslationElicitation_eng-prolific,3.2.4,MacIntel,60,5ebd2a07fa52241862dbca05,,1,0,81,73,1,80
,,,,,,,,,,,,,,,,,,,,,,,,,,,,,,,,,,,,,,,,,a,1.433000088,OMA,FALSE,,,,,,,182,tomaquet,Catalan,Sounds/cat_tomaquet.mp3,2020-06-12_20h53.01.662,TranslationElicitation_eng-prolific,3.2.4,MacIntel,60,5ebd2a07fa52241862dbca05,,1,0,81,73,1,80
,,,,,,,,,,,,,,,,,,,,,,,,,,,,,,,,,,,,,,,,,t,1.632999897,OMAT,FALSE,,,,,,,182,tomaquet,Catalan,Sounds/cat_tomaquet.mp3,2020-06-12_20h53.01.662,TranslationElicitation_eng-prolific,3.2.4,MacIntel,60,5ebd2a07fa52241862dbca05,,1,0,81,73,1,80
,,,,,,,,,,,,,,,,,,,,,,,,,,,,,,,,,,,,,,,,,o,2.032999992,OMATO,FALSE,,,,,,,182,tomaquet,Catalan,Sounds/cat_tomaquet.mp3,2020-06-12_20h53.01.662,TranslationElicitation_eng-prolific,3.2.4,MacIntel,60,5ebd2a07fa52241862dbca05,,1,0,81,73,1,80
,,,,,,,,,,,,,,,,,,,,,,,,,,,,,,,,,,,,,,,,,backspace,2.901000023,OMAT,TRUE,,,,,,,182,tomaquet,Catalan,Sounds/cat_tomaquet.mp3,2020-06-12_20h53.01.662,TranslationElicitation_eng-prolific,3.2.4,MacIntel,60,5ebd2a07fa52241862dbca05,,1,0,81,73,1,80
,,,,,,,,,,,,,,,,,,,,,,,,,,,,,,,,,,,,,,,,,backspace,3.382999897,OMA,TRUE,,,,,,,182,tomaquet,Catalan,Sounds/cat_tomaquet.mp3,2020-06-12_20h53.01.662,TranslationElicitation_eng-prolific,3.2.4,MacIntel,60,5ebd2a07fa52241862dbca05,,1,0,81,73,1,80
,,,,,,,,,,,,,,,,,,,,,,,,,,,,,,,,,,,,,,,,,backspace,3.467000008,OM,TRUE,,,,,,,182,tomaquet,Catalan,Sounds/cat_tomaquet.mp3,2020-06-12_20h53.01.662,TranslationElicitation_eng-prolific,3.2.4,MacIntel,60,5ebd2a07fa52241862dbca05,,1,0,81,73,1,80
,,,,,,,,,,,,,,,,,,,,,,,,,,,,,,,,,,,,,,,,,backspace,3.552000046,O,TRUE,,,,,,,182,tomaquet,Catalan,Sounds/cat_tomaquet.mp3,2020-06-12_20h53.01.662,TranslationElicitation_eng-prolific,3.2.4,MacIntel,60,5ebd2a07fa52241862dbca05,,1,0,81,73,1,80
,,,,,,,,,,,,,,,,,,,,,,,,,,,,,,,,,,,,,,,,,backspace,3.632999897,,TRUE,,,,,,,182,tomaquet,Catalan,Sounds/cat_tomaquet.mp3,2020-06-12_20h53.01.662,TranslationElicitation_eng-prolific,3.2.4,MacIntel,60,5ebd2a07fa52241862dbca05,,1,0,81,73,1,80
,,,,,,,,,,,,,,,,,,,,,,,,,,,,,,,,,,,,,,,,,backspace,3.71600008,,TRUE,,,,,,,182,tomaquet,Catalan,Sounds/cat_tomaquet.mp3,2020-06-12_20h53.01.662,TranslationElicitation_eng-prolific,3.2.4,MacIntel,60,5ebd2a07fa52241862dbca05,,1,0,81,73,1,80
,,,,,,,,,,,,,,,,,,,,,,,,,,,,,,,,,,,,,,,,,backspace,3.799999952,,TRUE,,,,,,,182,tomaquet,Catalan,Sounds/cat_tomaquet.mp3,2020-06-12_20h53.01.662,TranslationElicitation_eng-prolific,3.2.4,MacIntel,60,5ebd2a07fa52241862dbca05,,1,0,81,73,1,80
,,,,,,,,,,,,,,,,,,,,,,,,,,,,,,,,,,,,,,,,,t,4.21600008,T,TRUE,,,,,,,182,tomaquet,Catalan,Sounds/cat_tomaquet.mp3,2020-06-12_20h53.01.662,TranslationElicitation_eng-prolific,3.2.4,MacIntel,60,5ebd2a07fa52241862dbca05,,1,0,81,73,1,80
,,,,,,,,,,,,,,,,,,,,,,,,,,,,,,,,,,,,,,,,,o,4.365999937,TO,TRUE,,,,,,,182,tomaquet,Catalan,Sounds/cat_tomaquet.mp3,2020-06-12_20h53.01.662,TranslationElicitation_eng-prolific,3.2.4,MacIntel,60,5ebd2a07fa52241862dbca05,,1,0,81,73,1,80
,,,,,,,,,,,,,,,,,,,,,,,,,,,,,,,,,,,,,,,,,m,4.565000057,TOM,TRUE,,,,,,,182,tomaquet,Catalan,Sounds/cat_tomaquet.mp3,2020-06-12_20h53.01.662,TranslationElicitation_eng-prolific,3.2.4,MacIntel,60,5ebd2a07fa52241862dbca05,,1,0,81,73,1,80
,,,,,,,,,,,,,,,,,,,,,,,,,,,,,,,,,,,,,,,,,a,4.882999897,TOMA,TRUE,,,,,,,182,tomaquet,Catalan,Sounds/cat_tomaquet.mp3,2020-06-12_20h53.01.662,TranslationElicitation_eng-prolific,3.2.4,MacIntel,60,5ebd2a07fa52241862dbca05,,1,0,81,73,1,80
,,,,,,,,,,,,,,,,,,,,,,,,,,,,,,,,,,,,,,,,,t,5.132999897,TOMAT,TRUE,,,,,,,182,tomaquet,Catalan,Sounds/cat_tomaquet.mp3,2020-06-12_20h53.01.662,TranslationElicitation_eng-prolific,3.2.4,MacIntel,60,5ebd2a07fa52241862dbca05,,1,0,81,73,1,80
,,,,,,,,,,,,,,,,,,,,,,,,,,,,,,,,,,,,,,,,,o,5.266000032,TOMATO,TRUE,,,,,,,182,tomaquet,Catalan,Sounds/cat_tomaquet.mp3,2020-06-12_20h53.01.662,TranslationElicitation_eng-prolific,3.2.4,MacIntel,60,5ebd2a07fa52241862dbca05,,1,0,81,73,1,80
,,,,,,,,,,,,,,,,,,,,,,,,,,,,,,,,,,,,,,,,,return,5.898999929,TOMATO,TRUE,,,,,,,182,tomaquet,Catalan,Sounds/cat_tomaquet.mp3,2020-06-12_20h53.01.662,TranslationElicitation_eng-prolific,3.2.4,MacIntel,60,5ebd2a07fa52241862dbca05,5.898999929,1,0,81,73,1,80
,,,,,,,,,,,,,,,,,,,,,,,,,,,,,,,,,,,,,,,,,,,,,,,,,,,182,tomaquet,Catalan,Sounds/cat_tomaquet.mp3,2020-06-12_20h53.01.662,TranslationElicitation_eng-prolific,3.2.4,MacIntel,60,5ebd2a07fa52241862dbca05,,1,0,81,73,1,80
,,,,,,,,,,,,,,,,,,,,,,,,,,,,,,,,,,,,,,,,,t,3.733999968,T,FALSE,,,,,,,130,entrepa,Catalan,Sounds/cat_entrepa.mp3,2020-06-12_20h53.01.662,TranslationElicitation_eng-prolific,3.2.4,MacIntel,60,5ebd2a07fa52241862dbca05,,1,0,81,24,1,80
,,,,,,,,,,,,,,,,,,,,,,,,,,,,,,,,,,,,,,,,,r,3.868000031,TR,FALSE,,,,,,,130,entrepa,Catalan,Sounds/cat_entrepa.mp3,2020-06-12_20h53.01.662,TranslationElicitation_eng-prolific,3.2.4,MacIntel,60,5ebd2a07fa52241862dbca05,,1,0,81,24,1,80
,,,,,,,,,,,,,,,,,,,,,,,,,,,,,,,,,,,,,,,,,i,4.01699996,TRI,FALSE,,,,,,,130,entrepa,Catalan,Sounds/cat_entrepa.mp3,2020-06-12_20h53.01.662,TranslationElicitation_eng-prolific,3.2.4,MacIntel,60,5ebd2a07fa52241862dbca05,,1,0,81,24,1,80
,,,,,,,,,,,,,,,,,,,,,,,,,,,,,,,,,,,,,,,,,p,4.334000111,TRIP,FALSE,,,,,,,130,entrepa,Catalan,Sounds/cat_entrepa.mp3,2020-06-12_20h53.01.662,TranslationElicitation_eng-prolific,3.2.4,MacIntel,60,5ebd2a07fa52241862dbca05,,1,0,81,24,1,80
,,,,,,,,,,,,,,,,,,,,,,,,,,,,,,,,,,,,,,,,,return,5.084000111,TRIP,FALSE,,,,,,,130,entrepa,Catalan,Sounds/cat_entrepa.mp3,2020-06-12_20h53.01.662,TranslationElicitation_eng-prolific,3.2.4,MacIntel,60,5ebd2a07fa52241862dbca05,5.084000111,1,0,81,24,1,80
,,,,,,,,,,,,,,,,,,,,,,,,,,,,,,,,,,,,,,,,,,,,,,,,,,,130,entrepa,Catalan,Sounds/cat_entrepa.mp3,2020-06-12_20h53.01.662,TranslationElicitation_eng-prolific,3.2.4,MacIntel,60,5ebd2a07fa52241862dbca05,,1,0,81,24,1,80
,,,,,,,,,,,,,,,,,,,,,,,,,,,,,,,,,,,,,,,,,a,1.335999966,A,FALSE,,,,,,,120,cama,Catalan,Sounds/cat_cama.mp3,2020-06-12_20h53.01.662,TranslationElicitation_eng-prolific,3.2.4,MacIntel,60,5ebd2a07fa52241862dbca05,,1,0,81,15,1,80
,,,,,,,,,,,,,,,,,,,,,,,,,,,,,,,,,,,,,,,,,m,1.450999975,AM,FALSE,,,,,,,120,cama,Catalan,Sounds/cat_cama.mp3,2020-06-12_20h53.01.662,TranslationElicitation_eng-prolific,3.2.4,MacIntel,60,5ebd2a07fa52241862dbca05,,1,0,81,15,1,80
,,,,,,,,,,,,,,,,,,,,,,,,,,,,,,,,,,,,,,,,,r,1.674000025,AMR,FALSE,,,,,,,120,cama,Catalan,Sounds/cat_cama.mp3,2020-06-12_20h53.01.662,TranslationElicitation_eng-prolific,3.2.4,MacIntel,60,5ebd2a07fa52241862dbca05,,1,0,81,15,1,80
,,,,,,,,,,,,,,,,,,,,,,,,,,,,,,,,,,,,,,,,,e,1.849999905,AMRE,FALSE,,,,,,,120,cama,Catalan,Sounds/cat_cama.mp3,2020-06-12_20h53.01.662,TranslationElicitation_eng-prolific,3.2.4,MacIntel,60,5ebd2a07fa52241862dbca05,,1,0,81,15,1,80
,,,,,,,,,,,,,,,,,,,,,,,,,,,,,,,,,,,,,,,,,backspace,2.302000046,AMR,TRUE,,,,,,,120,cama,Catalan,Sounds/cat_cama.mp3,2020-06-12_20h53.01.662,TranslationElicitation_eng-prolific,3.2.4,MacIntel,60,5ebd2a07fa52241862dbca05,,1,0,81,15,1,80
,,,,,,,,,,,,,,,,,,,,,,,,,,,,,,,,,,,,,,,,,backspace,2.465999842,AM,TRUE,,,,,,,120,cama,Catalan,Sounds/cat_cama.mp3,2020-06-12_20h53.01.662,TranslationElicitation_eng-prolific,3.2.4,MacIntel,60,5ebd2a07fa52241862dbca05,,1,0,81,15,1,80
,,,,,,,,,,,,,,,,,,,,,,,,,,,,,,,,,,,,,,,,,backspace,2.618999958,A,TRUE,,,,,,,120,cama,Catalan,Sounds/cat_cama.mp3,2020-06-12_20h53.01.662,TranslationElicitation_eng-prolific,3.2.4,MacIntel,60,5ebd2a07fa52241862dbca05,,1,0,81,15,1,80
,,,,,,,,,,,,,,,,,,,,,,,,,,,,,,,,,,,,,,,,,backspace,2.76699996,,TRUE,,,,,,,120,cama,Catalan,Sounds/cat_cama.mp3,2020-06-12_20h53.01.662,TranslationElicitation_eng-prolific,3.2.4,MacIntel,60,5ebd2a07fa52241862dbca05,,1,0,81,15,1,80
,,,,,,,,,,,,,,,,,,,,,,,,,,,,,,,,,,,,,,,,,backspace,2.899999857,,TRUE,,,,,,,120,cama,Catalan,Sounds/cat_cama.mp3,2020-06-12_20h53.01.662,TranslationElicitation_eng-prolific,3.2.4,MacIntel,60,5ebd2a07fa52241862dbca05,,1,0,81,15,1,80
,,,,,,,,,,,,,,,,,,,,,,,,,,,,,,,,,,,,,,,,,c,3.200000048,C,TRUE,,,,,,,120,cama,Catalan,Sounds/cat_cama.mp3,2020-06-12_20h53.01.662,TranslationElicitation_eng-prolific,3.2.4,MacIntel,60,5ebd2a07fa52241862dbca05,,1,0,81,15,1,80
,,,,,,,,,,,,,,,,,,,,,,,,,,,,,,,,,,,,,,,,,a,3.600999832,CA,TRUE,,,,,,,120,cama,Catalan,Sounds/cat_cama.mp3,2020-06-12_20h53.01.662,TranslationElicitation_eng-prolific,3.2.4,MacIntel,60,5ebd2a07fa52241862dbca05,,1,0,81,15,1,80
,,,,,,,,,,,,,,,,,,,,,,,,,,,,,,,,,,,,,,,,,m,3.782999992,CAM,TRUE,,,,,,,120,cama,Catalan,Sounds/cat_cama.mp3,2020-06-12_20h53.01.662,TranslationElicitation_eng-prolific,3.2.4,MacIntel,60,5ebd2a07fa52241862dbca05,,1,0,81,15,1,80
,,,,,,,,,,,,,,,,,,,,,,,,,,,,,,,,,,,,,,,,,e,4.05099988,CAME,TRUE,,,,,,,120,cama,Catalan,Sounds/cat_cama.mp3,2020-06-12_20h53.01.662,TranslationElicitation_eng-prolific,3.2.4,MacIntel,60,5ebd2a07fa52241862dbca05,,1,0,81,15,1,80
,,,,,,,,,,,,,,,,,,,,,,,,,,,,,,,,,,,,,,,,,r,4.133999825,CAMER,TRUE,,,,,,,120,cama,Catalan,Sounds/cat_cama.mp3,2020-06-12_20h53.01.662,TranslationElicitation_eng-prolific,3.2.4,MacIntel,60,5ebd2a07fa52241862dbca05,,1,0,81,15,1,80
,,,,,,,,,,,,,,,,,,,,,,,,,,,,,,,,,,,,,,,,,a,4.582999945,CAMERA,TRUE,,,,,,,120,cama,Catalan,Sounds/cat_cama.mp3,2020-06-12_20h53.01.662,TranslationElicitation_eng-prolific,3.2.4,MacIntel,60,5ebd2a07fa52241862dbca05,,1,0,81,15,1,80
,,,,,,,,,,,,,,,,,,,,,,,,,,,,,,,,,,,,,,,,,return,4.883999825,CAMERA,TRUE,,,,,,,120,cama,Catalan,Sounds/cat_cama.mp3,2020-06-12_20h53.01.662,TranslationElicitation_eng-prolific,3.2.4,MacIntel,60,5ebd2a07fa52241862dbca05,4.883999825,1,0,81,15,1,80
,,,,,,,,,,,,,,,,,,,,,,,,,,,,,,,,,,,,,,,,,,,,,,,,,,,120,cama,Catalan,Sounds/cat_cama.mp3,2020-06-12_20h53.01.662,TranslationElicitation_eng-prolific,3.2.4,MacIntel,60,5ebd2a07fa52241862dbca05,,1,0,81,15,1,80
,,,,,,,,,,,,,,,,,,,,,,,,,,,,,,,,,,,,,,,,,g,1.617000103,G,FALSE,,,,,,,139,galleda,Catalan,Sounds/cat_galleda.mp3,2020-06-12_20h53.01.662,TranslationElicitation_eng-prolific,3.2.4,MacIntel,60,5ebd2a07fa52241862dbca05,,1,0,81,33,1,80
,,,,,,,,,,,,,,,,,,,,,,,,,,,,,,,,,,,,,,,,,u,1.792000055,GU,FALSE,,,,,,,139,galleda,Catalan,Sounds/cat_galleda.mp3,2020-06-12_20h53.01.662,TranslationElicitation_eng-prolific,3.2.4,MacIntel,60,5ebd2a07fa52241862dbca05,,1,0,81,33,1,80
,,,,,,,,,,,,,,,,,,,,,,,,,,,,,,,,,,,,,,,,,i,1.952000141,GUI,FALSE,,,,,,,139,galleda,Catalan,Sounds/cat_galleda.mp3,2020-06-12_20h53.01.662,TranslationElicitation_eng-prolific,3.2.4,MacIntel,60,5ebd2a07fa52241862dbca05,,1,0,81,33,1,80
,,,,,,,,,,,,,,,,,,,,,,,,,,,,,,,,,,,,,,,,,l,2.183000088,GUIL,FALSE,,,,,,,139,galleda,Catalan,Sounds/cat_galleda.mp3,2020-06-12_20h53.01.662,TranslationElicitation_eng-prolific,3.2.4,MacIntel,60,5ebd2a07fa52241862dbca05,,1,0,81,33,1,80
,,,,,,,,,,,,,,,,,,,,,,,,,,,,,,,,,,,,,,,,,t,2.367000103,GUILT,FALSE,,,,,,,139,galleda,Catalan,Sounds/cat_galleda.mp3,2020-06-12_20h53.01.662,TranslationElicitation_eng-prolific,3.2.4,MacIntel,60,5ebd2a07fa52241862dbca05,,1,0,81,33,1,80
,,,,,,,,,,,,,,,,,,,,,,,,,,,,,,,,,,,,,,,,,y,2.558000088,GUILTY,FALSE,,,,,,,139,galleda,Catalan,Sounds/cat_galleda.mp3,2020-06-12_20h53.01.662,TranslationElicitation_eng-prolific,3.2.4,MacIntel,60,5ebd2a07fa52241862dbca05,,1,0,81,33,1,80
,,,,,,,,,,,,,,,,,,,,,,,,,,,,,,,,,,,,,,,,,return,2.851000071,GUILTY,FALSE,,,,,,,139,galleda,Catalan,Sounds/cat_galleda.mp3,2020-06-12_20h53.01.662,TranslationElicitation_eng-prolific,3.2.4,MacIntel,60,5ebd2a07fa52241862dbca05,2.851000071,1,0,81,33,1,80
,,,,,,,,,,,,,,,,,,,,,,,,,,,,,,,,,,,,,,,,,,,,,,,,,,,139,galleda,Catalan,Sounds/cat_galleda.mp3,2020-06-12_20h53.01.662,TranslationElicitation_eng-prolific,3.2.4,MacIntel,60,5ebd2a07fa52241862dbca05,,1,0,81,33,1,80
,,,,,,,,,,,,,,,,,,,,,,,,,,,,,,,,,,,,,,,,,s,1.549000025,S,FALSE,,,,,,,157,mussol,Catalan,Sounds/cat_mussol.mp3,2020-06-12_20h53.01.662,TranslationElicitation_eng-prolific,3.2.4,MacIntel,60,5ebd2a07fa52241862dbca05,,1,0,81,50,1,80
,,,,,,,,,,,,,,,,,,,,,,,,,,,,,,,,,,,,,,,,,backspace,2.46600008,,TRUE,,,,,,,157,mussol,Catalan,Sounds/cat_mussol.mp3,2020-06-12_20h53.01.662,TranslationElicitation_eng-prolific,3.2.4,MacIntel,60,5ebd2a07fa52241862dbca05,,1,0,81,50,1,80
,,,,,,,,,,,,,,,,,,,,,,,,,,,,,,,,,,,,,,,,,m,3,M,TRUE,,,,,,,157,mussol,Catalan,Sounds/cat_mussol.mp3,2020-06-12_20h53.01.662,TranslationElicitation_eng-prolific,3.2.4,MacIntel,60,5ebd2a07fa52241862dbca05,,1,0,81,50,1,80
,,,,,,,,,,,,,,,,,,,,,,,,,,,,,,,,,,,,,,,,,u,3.23300004,MU,TRUE,,,,,,,157,mussol,Catalan,Sounds/cat_mussol.mp3,2020-06-12_20h53.01.662,TranslationElicitation_eng-prolific,3.2.4,MacIntel,60,5ebd2a07fa52241862dbca05,,1,0,81,50,1,80
,,,,,,,,,,,,,,,,,,,,,,,,,,,,,,,,,,,,,,,,,c,3.366999865,MUC,TRUE,,,,,,,157,mussol,Catalan,Sounds/cat_mussol.mp3,2020-06-12_20h53.01.662,TranslationElicitation_eng-prolific,3.2.4,MacIntel,60,5ebd2a07fa52241862dbca05,,1,0,81,50,1,80
,,,,,,,,,,,,,,,,,,,,,,,,,,,,,,,,,,,,,,,,,backspace,4.415999889,MU,TRUE,,,,,,,157,mussol,Catalan,Sounds/cat_mussol.mp3,2020-06-12_20h53.01.662,TranslationElicitation_eng-prolific,3.2.4,MacIntel,60,5ebd2a07fa52241862dbca05,,1,0,81,50,1,80
,,,,,,,,,,,,,,,,,,,,,,,,,,,,,,,,,,,,,,,,,s,4.585000038,MUS,TRUE,,,,,,,157,mussol,Catalan,Sounds/cat_mussol.mp3,2020-06-12_20h53.01.662,TranslationElicitation_eng-prolific,3.2.4,MacIntel,60,5ebd2a07fa52241862dbca05,,1,0,81,50,1,80
,,,,,,,,,,,,,,,,,,,,,,,,,,,,,,,,,,,,,,,,,c,4.717000008,MUSC,TRUE,,,,,,,157,mussol,Catalan,Sounds/cat_mussol.mp3,2020-06-12_20h53.01.662,TranslationElicitation_eng-prolific,3.2.4,MacIntel,60,5ebd2a07fa52241862dbca05,,1,0,81,50,1,80
,,,,,,,,,,,,,,,,,,,,,,,,,,,,,,,,,,,,,,,,,l,4.884000063,MUSCL,TRUE,,,,,,,157,mussol,Catalan,Sounds/cat_mussol.mp3,2020-06-12_20h53.01.662,TranslationElicitation_eng-prolific,3.2.4,MacIntel,60,5ebd2a07fa52241862dbca05,,1,0,81,50,1,80
,,,,,,,,,,,,,,,,,,,,,,,,,,,,,,,,,,,,,,,,,e,4.974999905,MUSCLE,TRUE,,,,,,,157,mussol,Catalan,Sounds/cat_mussol.mp3,2020-06-12_20h53.01.662,TranslationElicitation_eng-prolific,3.2.4,MacIntel,60,5ebd2a07fa52241862dbca05,,1,0,81,50,1,80
,,,,,,,,,,,,,,,,,,,,,,,,,,,,,,,,,,,,,,,,,return,5.398999929,MUSCLE,TRUE,,,,,,,157,mussol,Catalan,Sounds/cat_mussol.mp3,2020-06-12_20h53.01.662,TranslationElicitation_eng-prolific,3.2.4,MacIntel,60,5ebd2a07fa52241862dbca05,5.398999929,1,0,81,50,1,80
,,,,,,,,,,,,,,,,,,,,,,,,,,,,,,,,,,,,,,,,,,,,,,,,,,,157,mussol,Catalan,Sounds/cat_mussol.mp3,2020-06-12_20h53.01.662,TranslationElicitation_eng-prolific,3.2.4,MacIntel,60,5ebd2a07fa52241862dbca05,,1,0,81,50,1,80
,,,,,,,,,,,,,,,,,,,,,,,,,,,,,,,,,,,,,,,,,s,1.849000216,S,FALSE,,,,,,,106,aixeta,Catalan,Sounds/cat_aixeta.mp3,2020-06-12_20h53.01.662,TranslationElicitation_eng-prolific,3.2.4,MacIntel,60,5ebd2a07fa52241862dbca05,,1,0,81,2,1,80
,,,,,,,,,,,,,,,,,,,,,,,,,,,,,,,,,,,,,,,,,h,1.982000113,SH,FALSE,,,,,,,106,aixeta,Catalan,Sounds/cat_aixeta.mp3,2020-06-12_20h53.01.662,TranslationElicitation_eng-prolific,3.2.4,MacIntel,60,5ebd2a07fa52241862dbca05,,1,0,81,2,1,80
,,,,,,,,,,,,,,,,,,,,,,,,,,,,,,,,,,,,,,,,,o,2.400000095,SHO,FALSE,,,,,,,106,aixeta,Catalan,Sounds/cat_aixeta.mp3,2020-06-12_20h53.01.662,TranslationElicitation_eng-prolific,3.2.4,MacIntel,60,5ebd2a07fa52241862dbca05,,1,0,81,2,1,80
,,,,,,,,,,,,,,,,,,,,,,,,,,,,,,,,,,,,,,,,,r,2.599000216,SHOR,FALSE,,,,,,,106,aixeta,Catalan,Sounds/cat_aixeta.mp3,2020-06-12_20h53.01.662,TranslationElicitation_eng-prolific,3.2.4,MacIntel,60,5ebd2a07fa52241862dbca05,,1,0,81,2,1,80
,,,,,,,,,,,,,,,,,,,,,,,,,,,,,,,,,,,,,,,,,t,2.767000198,SHORT,FALSE,,,,,,,106,aixeta,Catalan,Sounds/cat_aixeta.mp3,2020-06-12_20h53.01.662,TranslationElicitation_eng-prolific,3.2.4,MacIntel,60,5ebd2a07fa52241862dbca05,,1,0,81,2,1,80
,,,,,,,,,,,,,,,,,,,,,,,,,,,,,,,,,,,,,,,,,return,3.082000017,SHORT,FALSE,,,,,,,106,aixeta,Catalan,Sounds/cat_aixeta.mp3,2020-06-12_20h53.01.662,TranslationElicitation_eng-prolific,3.2.4,MacIntel,60,5ebd2a07fa52241862dbca05,3.082000017,1,0,81,2,1,80
,,,,,,,,,,,,,,,,,,,,,,,,,,,,,,,,,,,,,,,,,,,,,,,,,,,106,aixeta,Catalan,Sounds/cat_aixeta.mp3,2020-06-12_20h53.01.662,TranslationElicitation_eng-prolific,3.2.4,MacIntel,60,5ebd2a07fa52241862dbca05,,1,0,81,2,1,80
,,,,,,,,,,,,,,,,,,,,,,,,,,,,,,,,,,,,,,,,,b,6.072000027,B,FALSE,,,,,,,112,bici,Catalan,Sounds/cat_bici.mp3,2020-06-12_20h53.01.662,TranslationElicitation_eng-prolific,3.2.4,MacIntel,60,5ebd2a07fa52241862dbca05,,1,0,81,7,1,80
,,,,,,,,,,,,,,,,,,,,,,,,,,,,,,,,,,,,,,,,,u,6.51699996,BU,FALSE,,,,,,,112,bici,Catalan,Sounds/cat_bici.mp3,2020-06-12_20h53.01.662,TranslationElicitation_eng-prolific,3.2.4,MacIntel,60,5ebd2a07fa52241862dbca05,,1,0,81,7,1,80
,,,,,,,,,,,,,,,,,,,,,,,,,,,,,,,,,,,,,,,,,s,6.665999889,BUS,FALSE,,,,,,,112,bici,Catalan,Sounds/cat_bici.mp3,2020-06-12_20h53.01.662,TranslationElicitation_eng-prolific,3.2.4,MacIntel,60,5ebd2a07fa52241862dbca05,,1,0,81,7,1,80
,,,,,,,,,,,,,,,,,,,,,,,,,,,,,,,,,,,,,,,,,y,6.967000008,BUSY,FALSE,,,,,,,112,bici,Catalan,Sounds/cat_bici.mp3,2020-06-12_20h53.01.662,TranslationElicitation_eng-prolific,3.2.4,MacIntel,60,5ebd2a07fa52241862dbca05,,1,0,81,7,1,80
,,,,,,,,,,,,,,,,,,,,,,,,,,,,,,,,,,,,,,,,,return,7.682999849,BUSY,FALSE,,,,,,,112,bici,Catalan,Sounds/cat_bici.mp3,2020-06-12_20h53.01.662,TranslationElicitation_eng-prolific,3.2.4,MacIntel,60,5ebd2a07fa52241862dbca05,7.682999849,1,0,81,7,1,80
,,,,,,,,,,,,,,,,,,,,,,,,,,,,,,,,,,,,,,,,,,,,,,,,,,,112,bici,Catalan,Sounds/cat_bici.mp3,2020-06-12_20h53.01.662,TranslationElicitation_eng-prolific,3.2.4,MacIntel,60,5ebd2a07fa52241862dbca05,,1,0,81,7,1,80
,,,,,,,,,,,,,,,,,,,,,,,,,,,,,,,,,,,,,,,,,r,3.700000048,R,FALSE,,,,,,,160,orella,Catalan,Sounds/cat_orella.mp3,2020-06-12_20h53.01.662,TranslationElicitation_eng-prolific,3.2.4,MacIntel,60,5ebd2a07fa52241862dbca05,,1,0,81,52,1,80
,,,,,,,,,,,,,,,,,,,,,,,,,,,,,,,,,,,,,,,,,e,4.735000134,RE,FALSE,,,,,,,160,orella,Catalan,Sounds/cat_orella.mp3,2020-06-12_20h53.01.662,TranslationElicitation_eng-prolific,3.2.4,MacIntel,60,5ebd2a07fa52241862dbca05,,1,0,81,52,1,80
,,,,,,,,,,,,,,,,,,,,,,,,,,,,,,,,,,,,,,,,,a,4.901000023,REA,FALSE,,,,,,,160,orella,Catalan,Sounds/cat_orella.mp3,2020-06-12_20h53.01.662,TranslationElicitation_eng-prolific,3.2.4,MacIntel,60,5ebd2a07fa52241862dbca05,,1,0,81,52,1,80
,,,,,,,,,,,,,,,,,,,,,,,,,,,,,,,,,,,,,,,,,l,5.118000031,REAL,FALSE,,,,,,,160,orella,Catalan,Sounds/cat_orella.mp3,2020-06-12_20h53.01.662,TranslationElicitation_eng-prolific,3.2.4,MacIntel,60,5ebd2a07fa52241862dbca05,,1,0,81,52,1,80
,,,,,,,,,,,,,,,,,,,,,,,,,,,,,,,,,,,,,,,,,l,5.251000166,REALL,FALSE,,,,,,,160,orella,Catalan,Sounds/cat_orella.mp3,2020-06-12_20h53.01.662,TranslationElicitation_eng-prolific,3.2.4,MacIntel,60,5ebd2a07fa52241862dbca05,,1,0,81,52,1,80
,,,,,,,,,,,,,,,,,,,,,,,,,,,,,,,,,,,,,,,,,y,5.450000048,REALLY,FALSE,,,,,,,160,orella,Catalan,Sounds/cat_orella.mp3,2020-06-12_20h53.01.662,TranslationElicitation_eng-prolific,3.2.4,MacIntel,60,5ebd2a07fa52241862dbca05,,1,0,81,52,1,80
,,,,,,,,,,,,,,,,,,,,,,,,,,,,,,,,,,,,,,,,,return,5.893000126,REALLY,FALSE,,,,,,,160,orella,Catalan,Sounds/cat_orella.mp3,2020-06-12_20h53.01.662,TranslationElicitation_eng-prolific,3.2.4,MacIntel,60,5ebd2a07fa52241862dbca05,5.893000126,1,0,81,52,1,80
,,,,,,,,,,,,,,,,,,,,,,,,,,,,,,,,,,,,,,,,,,,,,,,,,,,160,orella,Catalan,Sounds/cat_orella.mp3,2020-06-12_20h53.01.662,TranslationElicitation_eng-prolific,3.2.4,MacIntel,60,5ebd2a07fa52241862dbca05,,1,0,81,52,1,80
,,,,,,,,,,,,,,,,,,,,,,,,,,,,,,,,,,,,,,,,,c,1.399000168,C,FALSE,,,,,,,127,cotxe,Catalan,Sounds/cat_cotxe.mp3,2020-06-12_20h53.01.662,TranslationElicitation_eng-prolific,3.2.4,MacIntel,60,5ebd2a07fa52241862dbca05,,1,0,81,21,1,80
,,,,,,,,,,,,,,,,,,,,,,,,,,,,,,,,,,,,,,,,,a,1.617000103,CA,FALSE,,,,,,,127,cotxe,Catalan,Sounds/cat_cotxe.mp3,2020-06-12_20h53.01.662,TranslationElicitation_eng-prolific,3.2.4,MacIntel,60,5ebd2a07fa52241862dbca05,,1,0,81,21,1,80
,,,,,,,,,,,,,,,,,,,,,,,,,,,,,,,,,,,,,,,,,t,1.799000025,CAT,FALSE,,,,,,,127,cotxe,Catalan,Sounds/cat_cotxe.mp3,2020-06-12_20h53.01.662,TranslationElicitation_eng-prolific,3.2.4,MacIntel,60,5ebd2a07fa52241862dbca05,,1,0,81,21,1,80
,,,,,,,,,,,,,,,,,,,,,,,,,,,,,,,,,,,,,,,,,c,2.084000111,CATC,FALSE,,,,,,,127,cotxe,Catalan,Sounds/cat_cotxe.mp3,2020-06-12_20h53.01.662,TranslationElicitation_eng-prolific,3.2.4,MacIntel,60,5ebd2a07fa52241862dbca05,,1,0,81,21,1,80
,,,,,,,,,,,,,,,,,,,,,,,,,,,,,,,,,,,,,,,,,h,2.299999952,CATCH,FALSE,,,,,,,127,cotxe,Catalan,Sounds/cat_cotxe.mp3,2020-06-12_20h53.01.662,TranslationElicitation_eng-prolific,3.2.4,MacIntel,60,5ebd2a07fa52241862dbca05,,1,0,81,21,1,80
,,,,,,,,,,,,,,,,,,,,,,,,,,,,,,,,,,,,,,,,,return,2.916000128,CATCH,FALSE,,,,,,,127,cotxe,Catalan,Sounds/cat_cotxe.mp3,2020-06-12_20h53.01.662,TranslationElicitation_eng-prolific,3.2.4,MacIntel,60,5ebd2a07fa52241862dbca05,2.916000128,1,0,81,21,1,80
,,,,,,,,,,,,,,,,,,,,,,,,,,,,,,,,,,,,,,,,,,,,,,,,,,,127,cotxe,Catalan,Sounds/cat_cotxe.mp3,2020-06-12_20h53.01.662,TranslationElicitation_eng-prolific,3.2.4,MacIntel,60,5ebd2a07fa52241862dbca05,,1,0,81,21,1,80
,,,,,,,,,,,,,,,,,,,,,,,,,,,,,,,,,,,,,,,,,o,2.684999943,O,FALSE,,,,,,,185,ulleres,Catalan,Sounds/cat_ulleres.mp3,2020-06-12_20h53.01.662,TranslationElicitation_eng-prolific,3.2.4,MacIntel,60,5ebd2a07fa52241862dbca05,,1,0,81,76,1,80
,,,,,,,,,,,,,,,,,,,,,,,,,,,,,,,,,,,,,,,,,l,2.901000023,OL,FALSE,,,,,,,185,ulleres,Catalan,Sounds/cat_ulleres.mp3,2020-06-12_20h53.01.662,TranslationElicitation_eng-prolific,3.2.4,MacIntel,60,5ebd2a07fa52241862dbca05,,1,0,81,76,1,80
,,,,,,,,,,,,,,,,,,,,,,,,,,,,,,,,,,,,,,,,,d,3.115999937,OLD,FALSE,,,,,,,185,ulleres,Catalan,Sounds/cat_ulleres.mp3,2020-06-12_20h53.01.662,TranslationElicitation_eng-prolific,3.2.4,MacIntel,60,5ebd2a07fa52241862dbca05,,1,0,81,76,1,80
,,,,,,,,,,,,,,,,,,,,,,,,,,,,,,,,,,,,,,,,,return,4.833999872,OLD,FALSE,,,,,,,185,ulleres,Catalan,Sounds/cat_ulleres.mp3,2020-06-12_20h53.01.662,TranslationElicitation_eng-prolific,3.2.4,MacIntel,60,5ebd2a07fa52241862dbca05,4.833999872,1,0,81,76,1,80
,,,,,,,,,,,,,,,,,,,,,,,,,,,,,,,,,,,,,,,,,,,,,,,,,,,185,ulleres,Catalan,Sounds/cat_ulleres.mp3,2020-06-12_20h53.01.662,TranslationElicitation_eng-prolific,3.2.4,MacIntel,60,5ebd2a07fa52241862dbca05,,1,0,81,76,1,80
,,,,,,,,,,,,,,,,,,,,,,,,,,,,,,,,,,,,,,,,,e,1.76699996,E,FALSE,,,,,,,153,mico,Catalan,Sounds/cat_mico.mp3,2020-06-12_20h53.01.662,TranslationElicitation_eng-prolific,3.2.4,MacIntel,60,5ebd2a07fa52241862dbca05,,1,0,81,46,1,80
,,,,,,,,,,,,,,,,,,,,,,,,,,,,,,,,,,,,,,,,,e,1.917999983,EE,FALSE,,,,,,,153,mico,Catalan,Sounds/cat_mico.mp3,2020-06-12_20h53.01.662,TranslationElicitation_eng-prolific,3.2.4,MacIntel,60,5ebd2a07fa52241862dbca05,,1,0,81,46,1,80
,,,,,,,,,,,,,,,,,,,,,,,,,,,,,,,,,,,,,,,,,backspace,2.500999928,E,TRUE,,,,,,,153,mico,Catalan,Sounds/cat_mico.mp3,2020-06-12_20h53.01.662,TranslationElicitation_eng-prolific,3.2.4,MacIntel,60,5ebd2a07fa52241862dbca05,,1,0,81,46,1,80
,,,,,,,,,,,,,,,,,,,,,,,,,,,,,,,,,,,,,,,,,backspace,2.651000023,,TRUE,,,,,,,153,mico,Catalan,Sounds/cat_mico.mp3,2020-06-12_20h53.01.662,TranslationElicitation_eng-prolific,3.2.4,MacIntel,60,5ebd2a07fa52241862dbca05,,1,0,81,46,1,80
,,,,,,,,,,,,,,,,,,,,,,,,,,,,,,,,,,,,,,,,,m,3.299999952,M,TRUE,,,,,,,153,mico,Catalan,Sounds/cat_mico.mp3,2020-06-12_20h53.01.662,TranslationElicitation_eng-prolific,3.2.4,MacIntel,60,5ebd2a07fa52241862dbca05,,1,0,81,46,1,80
,,,,,,,,,,,,,,,,,,,,,,,,,,,,,,,,,,,,,,,,,e,3.633000135,ME,TRUE,,,,,,,153,mico,Catalan,Sounds/cat_mico.mp3,2020-06-12_20h53.01.662,TranslationElicitation_eng-prolific,3.2.4,MacIntel,60,5ebd2a07fa52241862dbca05,,1,0,81,46,1,80
,,,,,,,,,,,,,,,,,,,,,,,,,,,,,,,,,,,,,,,,,e,3.789000034,MEE,TRUE,,,,,,,153,mico,Catalan,Sounds/cat_mico.mp3,2020-06-12_20h53.01.662,TranslationElicitation_eng-prolific,3.2.4,MacIntel,60,5ebd2a07fa52241862dbca05,,1,0,81,46,1,80
,,,,,,,,,,,,,,,,,,,,,,,,,,,,,,,,,,,,,,,,,k,3.967000008,MEEK,TRUE,,,,,,,153,mico,Catalan,Sounds/cat_mico.mp3,2020-06-12_20h53.01.662,TranslationElicitation_eng-prolific,3.2.4,MacIntel,60,5ebd2a07fa52241862dbca05,,1,0,81,46,1,80
,,,,,,,,,,,,,,,,,,,,,,,,,,,,,,,,,,,,,,,,,return,4.532999992,MEEK,TRUE,,,,,,,153,mico,Catalan,Sounds/cat_mico.mp3,2020-06-12_20h53.01.662,TranslationElicitation_eng-prolific,3.2.4,MacIntel,60,5ebd2a07fa52241862dbca05,4.532999992,1,0,81,46,1,80
,,,,,,,,,,,,,,,,,,,,,,,,,,,,,,,,,,,,,,,,,,,,,,,,,,,153,mico,Catalan,Sounds/cat_mico.mp3,2020-06-12_20h53.01.662,TranslationElicitation_eng-prolific,3.2.4,MacIntel,60,5ebd2a07fa52241862dbca05,,1,0,81,46,1,80
,,,,,,,,,,,,,,,,,,,,,,,,,,,,,,,,,,,,,,,,,f,1.381999969,F,FALSE,,,,,,,135,formiga,Catalan,Sounds/cat_formiga.mp3,2020-06-12_20h53.01.662,TranslationElicitation_eng-prolific,3.2.4,MacIntel,60,5ebd2a07fa52241862dbca05,,1,0,81,29,1,80
,,,,,,,,,,,,,,,,,,,,,,,,,,,,,,,,,,,,,,,,,o,2.315999985,FO,FALSE,,,,,,,135,formiga,Catalan,Sounds/cat_formiga.mp3,2020-06-12_20h53.01.662,TranslationElicitation_eng-prolific,3.2.4,MacIntel,60,5ebd2a07fa52241862dbca05,,1,0,81,29,1,80
,,,,,,,,,,,,,,,,,,,,,,,,,,,,,,,,,,,,,,,,,r,2.931999922,FOR,FALSE,,,,,,,135,formiga,Catalan,Sounds/cat_formiga.mp3,2020-06-12_20h53.01.662,TranslationElicitation_eng-prolific,3.2.4,MacIntel,60,5ebd2a07fa52241862dbca05,,1,0,81,29,1,80
,,,,,,,,,,,,,,,,,,,,,,,,,,,,,,,,,,,,,,,,,m,3.406999826,FORM,FALSE,,,,,,,135,formiga,Catalan,Sounds/cat_formiga.mp3,2020-06-12_20h53.01.662,TranslationElicitation_eng-prolific,3.2.4,MacIntel,60,5ebd2a07fa52241862dbca05,,1,0,81,29,1,80
,,,,,,,,,,,,,,,,,,,,,,,,,,,,,,,,,,,,,,,,,i,4.165999889,FORMI,FALSE,,,,,,,135,formiga,Catalan,Sounds/cat_formiga.mp3,2020-06-12_20h53.01.662,TranslationElicitation_eng-prolific,3.2.4,MacIntel,60,5ebd2a07fa52241862dbca05,,1,0,81,29,1,80
,,,,,,,,,,,,,,,,,,,,,,,,,,,,,,,,,,,,,,,,,g,4.431999922,FORMIG,FALSE,,,,,,,135,formiga,Catalan,Sounds/cat_formiga.mp3,2020-06-12_20h53.01.662,TranslationElicitation_eng-prolific,3.2.4,MacIntel,60,5ebd2a07fa52241862dbca05,,1,0,81,29,1,80
,,,,,,,,,,,,,,,,,,,,,,,,,,,,,,,,,,,,,,,,,a,4.799999952,FORMIGA,FALSE,,,,,,,135,formiga,Catalan,Sounds/cat_formiga.mp3,2020-06-12_20h53.01.662,TranslationElicitation_eng-prolific,3.2.4,MacIntel,60,5ebd2a07fa52241862dbca05,,1,0,81,29,1,80
,,,,,,,,,,,,,,,,,,,,,,,,,,,,,,,,,,,,,,,,,return,5.09800005,FORMIGA,FALSE,,,,,,,135,formiga,Catalan,Sounds/cat_formiga.mp3,2020-06-12_20h53.01.662,TranslationElicitation_eng-prolific,3.2.4,MacIntel,60,5ebd2a07fa52241862dbca05,5.09800005,1,0,81,29,1,80
,,,,,,,,,,,,,,,,,,,,,,,,,,,,,,,,,,,,,,,,,,,,,,,,,,,135,formiga,Catalan,Sounds/cat_formiga.mp3,2020-06-12_20h53.01.662,TranslationElicitation_eng-prolific,3.2.4,MacIntel,60,5ebd2a07fa52241862dbca05,,1,0,81,29,1,80
,,,,,,,,,,,,,,,,,,,,,,,,,,,,,,,,,,,,,,,,,n,3.06799984,N,FALSE,,,,,,,107,amanida,Catalan,Sounds/cat_amanida.mp3,2020-06-12_20h53.01.662,TranslationElicitation_eng-prolific,3.2.4,MacIntel,60,5ebd2a07fa52241862dbca05,,1,0,81,3,1,80
,,,,,,,,,,,,,,,,,,,,,,,,,,,,,,,,,,,,,,,,,e,3.316999912,NE,FALSE,,,,,,,107,amanida,Catalan,Sounds/cat_amanida.mp3,2020-06-12_20h53.01.662,TranslationElicitation_eng-prolific,3.2.4,MacIntel,60,5ebd2a07fa52241862dbca05,,1,0,81,3,1,80
,,,,,,,,,,,,,,,,,,,,,,,,,,,,,,,,,,,,,,,,,e,3.432999849,NEE,FALSE,,,,,,,107,amanida,Catalan,Sounds/cat_amanida.mp3,2020-06-12_20h53.01.662,TranslationElicitation_eng-prolific,3.2.4,MacIntel,60,5ebd2a07fa52241862dbca05,,1,0,81,3,1,80
,,,,,,,,,,,,,,,,,,,,,,,,,,,,,,,,,,,,,,,,,d,3.717000008,NEED,FALSE,,,,,,,107,amanida,Catalan,Sounds/cat_amanida.mp3,2020-06-12_20h53.01.662,TranslationElicitation_eng-prolific,3.2.4,MacIntel,60,5ebd2a07fa52241862dbca05,,1,0,81,3,1,80
,,,,,,,,,,,,,,,,,,,,,,,,,,,,,,,,,,,,,,,,,l,3.950999975,NEEDL,FALSE,,,,,,,107,amanida,Catalan,Sounds/cat_amanida.mp3,2020-06-12_20h53.01.662,TranslationElicitation_eng-prolific,3.2.4,MacIntel,60,5ebd2a07fa52241862dbca05,,1,0,81,3,1,80
,,,,,,,,,,,,,,,,,,,,,,,,,,,,,,,,,,,,,,,,,e,4.151000023,NEEDLE,FALSE,,,,,,,107,amanida,Catalan,Sounds/cat_amanida.mp3,2020-06-12_20h53.01.662,TranslationElicitation_eng-prolific,3.2.4,MacIntel,60,5ebd2a07fa52241862dbca05,,1,0,81,3,1,80
,,,,,,,,,,,,,,,,,,,,,,,,,,,,,,,,,,,,,,,,,return,4.599999905,NEEDLE,FALSE,,,,,,,107,amanida,Catalan,Sounds/cat_amanida.mp3,2020-06-12_20h53.01.662,TranslationElicitation_eng-prolific,3.2.4,MacIntel,60,5ebd2a07fa52241862dbca05,4.599999905,1,0,81,3,1,80
,,,,,,,,,,,,,,,,,,,,,,,,,,,,,,,,,,,,,,,,,,,,,,,,,,,107,amanida,Catalan,Sounds/cat_amanida.mp3,2020-06-12_20h53.01.662,TranslationElicitation_eng-prolific,3.2.4,MacIntel,60,5ebd2a07fa52241862dbca05,,1,0,81,3,1,80
,,,,,,,,,,,,,,,,,,,,,,,,,,,,,,,,,,,,,,,,,g,1.265999794,G,FALSE,,,,,,,142,girafa,Catalan,Sounds/cat_girafa.mp3,2020-06-12_20h53.01.662,TranslationElicitation_eng-prolific,3.2.4,MacIntel,60,5ebd2a07fa52241862dbca05,,1,0,81,36,1,80
,,,,,,,,,,,,,,,,,,,,,,,,,,,,,,,,,,,,,,,,,i,1.515999794,GI,FALSE,,,,,,,142,girafa,Catalan,Sounds/cat_girafa.mp3,2020-06-12_20h53.01.662,TranslationElicitation_eng-prolific,3.2.4,MacIntel,60,5ebd2a07fa52241862dbca05,,1,0,81,36,1,80
,,,,,,,,,,,,,,,,,,,,,,,,,,,,,,,,,,,,,,,,,r,1.648999929,GIR,FALSE,,,,,,,142,girafa,Catalan,Sounds/cat_girafa.mp3,2020-06-12_20h53.01.662,TranslationElicitation_eng-prolific,3.2.4,MacIntel,60,5ebd2a07fa52241862dbca05,,1,0,81,36,1,80
,,,,,,,,,,,,,,,,,,,,,,,,,,,,,,,,,,,,,,,,,a,1.865999937,GIRA,FALSE,,,,,,,142,girafa,Catalan,Sounds/cat_girafa.mp3,2020-06-12_20h53.01.662,TranslationElicitation_eng-prolific,3.2.4,MacIntel,60,5ebd2a07fa52241862dbca05,,1,0,81,36,1,80
,,,,,,,,,,,,,,,,,,,,,,,,,,,,,,,,,,,,,,,,,f,2.065999985,GIRAF,FALSE,,,,,,,142,girafa,Catalan,Sounds/cat_girafa.mp3,2020-06-12_20h53.01.662,TranslationElicitation_eng-prolific,3.2.4,MacIntel,60,5ebd2a07fa52241862dbca05,,1,0,81,36,1,80
,,,,,,,,,,,,,,,,,,,,,,,,,,,,,,,,,,,,,,,,,f,2.198999882,GIRAFF,FALSE,,,,,,,142,girafa,Catalan,Sounds/cat_girafa.mp3,2020-06-12_20h53.01.662,TranslationElicitation_eng-prolific,3.2.4,MacIntel,60,5ebd2a07fa52241862dbca05,,1,0,81,36,1,80
,,,,,,,,,,,,,,,,,,,,,,,,,,,,,,,,,,,,,,,,,e,2.382999897,GIRAFFE,FALSE,,,,,,,142,girafa,Catalan,Sounds/cat_girafa.mp3,2020-06-12_20h53.01.662,TranslationElicitation_eng-prolific,3.2.4,MacIntel,60,5ebd2a07fa52241862dbca05,,1,0,81,36,1,80
,,,,,,,,,,,,,,,,,,,,,,,,,,,,,,,,,,,,,,,,,return,2.841999769,GIRAFFE,FALSE,,,,,,,142,girafa,Catalan,Sounds/cat_girafa.mp3,2020-06-12_20h53.01.662,TranslationElicitation_eng-prolific,3.2.4,MacIntel,60,5ebd2a07fa52241862dbca05,2.841999769,1,0,81,36,1,80
,,,,,,,,,,,,,,,,,,,,,,,,,,,,,,,,,,,,,,,,,,,,,,,,,,,142,girafa,Catalan,Sounds/cat_girafa.mp3,2020-06-12_20h53.01.662,TranslationElicitation_eng-prolific,3.2.4,MacIntel,60,5ebd2a07fa52241862dbca05,,1,0,81,36,1,80
,,,,,,,,,,,,,,,,,,,,,,,,,,,,,,,,,,,,,,,,,c,1.01699996,C,FALSE,,,,,,,121,camisa,Catalan,Sounds/cat_camisa.mp3,2020-06-12_20h53.01.662,TranslationElicitation_eng-prolific,3.2.4,MacIntel,60,5ebd2a07fa52241862dbca05,,1,0,81,16,1,80
,,,,,,,,,,,,,,,,,,,,,,,,,,,,,,,,,,,,,,,,,a,1.265999794,CA,FALSE,,,,,,,121,camisa,Catalan,Sounds/cat_camisa.mp3,2020-06-12_20h53.01.662,TranslationElicitation_eng-prolific,3.2.4,MacIntel,60,5ebd2a07fa52241862dbca05,,1,0,81,16,1,80
,,,,,,,,,,,,,,,,,,,,,,,,,,,,,,,,,,,,,,,,,m,1.483999968,CAM,FALSE,,,,,,,121,camisa,Catalan,Sounds/cat_camisa.mp3,2020-06-12_20h53.01.662,TranslationElicitation_eng-prolific,3.2.4,MacIntel,60,5ebd2a07fa52241862dbca05,,1,0,81,16,1,80
,,,,,,,,,,,,,,,,,,,,,,,,,,,,,,,,,,,,,,,,,i,3.01699996,CAMI,FALSE,,,,,,,121,camisa,Catalan,Sounds/cat_camisa.mp3,2020-06-12_20h53.01.662,TranslationElicitation_eng-prolific,3.2.4,MacIntel,60,5ebd2a07fa52241862dbca05,,1,0,81,16,1,80
,,,,,,,,,,,,,,,,,,,,,,,,,,,,,,,,,,,,,,,,,l,3.282999992,CAMIL,FALSE,,,,,,,121,camisa,Catalan,Sounds/cat_camisa.mp3,2020-06-12_20h53.01.662,TranslationElicitation_eng-prolific,3.2.4,MacIntel,60,5ebd2a07fa52241862dbca05,,1,0,81,16,1,80
,,,,,,,,,,,,,,,,,,,,,,,,,,,,,,,,,,,,,,,,,l,3.44299984,CAMILL,FALSE,,,,,,,121,camisa,Catalan,Sounds/cat_camisa.mp3,2020-06-12_20h53.01.662,TranslationElicitation_eng-prolific,3.2.4,MacIntel,60,5ebd2a07fa52241862dbca05,,1,0,81,16,1,80
,,,,,,,,,,,,,,,,,,,,,,,,,,,,,,,,,,,,,,,,,e,3.566999912,CAMILLE,FALSE,,,,,,,121,camisa,Catalan,Sounds/cat_camisa.mp3,2020-06-12_20h53.01.662,TranslationElicitation_eng-prolific,3.2.4,MacIntel,60,5ebd2a07fa52241862dbca05,,1,0,81,16,1,80
,,,,,,,,,,,,,,,,,,,,,,,,,,,,,,,,,,,,,,,,,return,4.07799983,CAMILLE,FALSE,,,,,,,121,camisa,Catalan,Sounds/cat_camisa.mp3,2020-06-12_20h53.01.662,TranslationElicitation_eng-prolific,3.2.4,MacIntel,60,5ebd2a07fa52241862dbca05,4.07799983,1,0,81,16,1,80
,,,,,,,,,,,,,,,,,,,,,,,,,,,,,,,,,,,,,,,,,,,,,,,,,,,121,camisa,Catalan,Sounds/cat_camisa.mp3,2020-06-12_20h53.01.662,TranslationElicitation_eng-prolific,3.2.4,MacIntel,60,5ebd2a07fa52241862dbca05,,1,0,81,16,1,80
,,,,,,,,,,,,,,,,,,,,,,,,,,,,,,,,,,,,,,,,,c,1.44900012,C,FALSE,,,,,,,122,casa,Catalan,Sounds/cat_casa.mp3,2020-06-12_20h53.01.662,TranslationElicitation_eng-prolific,3.2.4,MacIntel,60,5ebd2a07fa52241862dbca05,,1,0,81,17,1,80
,,,,,,,,,,,,,,,,,,,,,,,,,,,,,,,,,,,,,,,,,a,1.667000055,CA,FALSE,,,,,,,122,casa,Catalan,Sounds/cat_casa.mp3,2020-06-12_20h53.01.662,TranslationElicitation_eng-prolific,3.2.4,MacIntel,60,5ebd2a07fa52241862dbca05,,1,0,81,17,1,80
,,,,,,,,,,,,,,,,,,,,,,,,,,,,,,,,,,,,,,,,,r,1.832999945,CAR,FALSE,,,,,,,122,casa,Catalan,Sounds/cat_casa.mp3,2020-06-12_20h53.01.662,TranslationElicitation_eng-prolific,3.2.4,MacIntel,60,5ebd2a07fa52241862dbca05,,1,0,81,17,1,80
,,,,,,,,,,,,,,,,,,,,,,,,,,,,,,,,,,,,,,,,,s,2.299000025,CARS,FALSE,,,,,,,122,casa,Catalan,Sounds/cat_casa.mp3,2020-06-12_20h53.01.662,TranslationElicitation_eng-prolific,3.2.4,MacIntel,60,5ebd2a07fa52241862dbca05,,1,0,81,17,1,80
,,,,,,,,,,,,,,,,,,,,,,,,,,,,,,,,,,,,,,,,,return,2.567000151,CARS,FALSE,,,,,,,122,casa,Catalan,Sounds/cat_casa.mp3,2020-06-12_20h53.01.662,TranslationElicitation_eng-prolific,3.2.4,MacIntel,60,5ebd2a07fa52241862dbca05,2.567000151,1,0,81,17,1,80
,,,,,,,,,,,,,,,,,,,,,,,,,,,,,,,,,,,,,,,,,,,,,,,,,,,122,casa,Catalan,Sounds/cat_casa.mp3,2020-06-12_20h53.01.662,TranslationElicitation_eng-prolific,3.2.4,MacIntel,60,5ebd2a07fa52241862dbca05,,1,0,81,17,1,80
,,,,,,,,,,,,,,,,,,,,,,,,,,,,,,,,,,,,,,,,,o,1.73300004,O,FALSE,,,,,,,184,ull,Catalan,Sounds/cat_ull.mp3,2020-06-12_20h53.01.662,TranslationElicitation_eng-prolific,3.2.4,MacIntel,60,5ebd2a07fa52241862dbca05,,1,0,81,75,1,80
,,,,,,,,,,,,,,,,,,,,,,,,,,,,,,,,,,,,,,,,,l,1.950000048,OL,FALSE,,,,,,,184,ull,Catalan,Sounds/cat_ull.mp3,2020-06-12_20h53.01.662,TranslationElicitation_eng-prolific,3.2.4,MacIntel,60,5ebd2a07fa52241862dbca05,,1,0,81,75,1,80
,,,,,,,,,,,,,,,,,,,,,,,,,,,,,,,,,,,,,,,,,d,2.100000143,OLD,FALSE,,,,,,,184,ull,Catalan,Sounds/cat_ull.mp3,2020-06-12_20h53.01.662,TranslationElicitation_eng-prolific,3.2.4,MacIntel,60,5ebd2a07fa52241862dbca05,,1,0,81,75,1,80
,,,,,,,,,,,,,,,,,,,,,,,,,,,,,,,,,,,,,,,,,return,2.567000151,OLD,FALSE,,,,,,,184,ull,Catalan,Sounds/cat_ull.mp3,2020-06-12_20h53.01.662,TranslationElicitation_eng-prolific,3.2.4,MacIntel,60,5ebd2a07fa52241862dbca05,2.567000151,1,0,81,75,1,80
,,,,,,,,,,,,,,,,,,,,,,,,,,,,,,,,,,,,,,,,,,,,,,,,,,,184,ull,Catalan,Sounds/cat_ull.mp3,2020-06-12_20h53.01.662,TranslationElicitation_eng-prolific,3.2.4,MacIntel,60,5ebd2a07fa52241862dbca05,,1,0,81,75,1,80
,,,,,,,,,,,,,,,,,,,,,,,,,,,,,,,,,,,,,,,,,b,2,B,FALSE,,,,,,,113,boca,Catalan,Sounds/cat_boca.mp3,2020-06-12_20h53.01.662,TranslationElicitation_eng-prolific,3.2.4,MacIntel,60,5ebd2a07fa52241862dbca05,,1,0,81,8,1,80
,,,,,,,,,,,,,,,,,,,,,,,,,,,,,,,,,,,,,,,,,a,2.149999857,BA,FALSE,,,,,,,113,boca,Catalan,Sounds/cat_boca.mp3,2020-06-12_20h53.01.662,TranslationElicitation_eng-prolific,3.2.4,MacIntel,60,5ebd2a07fa52241862dbca05,,1,0,81,8,1,80
,,,,,,,,,,,,,,,,,,,,,,,,,,,,,,,,,,,,,,,,,t,2.366999865,BAT,FALSE,,,,,,,113,boca,Catalan,Sounds/cat_boca.mp3,2020-06-12_20h53.01.662,TranslationElicitation_eng-prolific,3.2.4,MacIntel,60,5ebd2a07fa52241862dbca05,,1,0,81,8,1,80
,,,,,,,,,,,,,,,,,,,,,,,,,,,,,,,,,,,,,,,,,h,2.599999905,BATH,FALSE,,,,,,,113,boca,Catalan,Sounds/cat_boca.mp3,2020-06-12_20h53.01.662,TranslationElicitation_eng-prolific,3.2.4,MacIntel,60,5ebd2a07fa52241862dbca05,,1,0,81,8,1,80
,,,,,,,,,,,,,,,,,,,,,,,,,,,,,,,,,,,,,,,,,return,3.248999834,BATH,FALSE,,,,,,,113,boca,Catalan,Sounds/cat_boca.mp3,2020-06-12_20h53.01.662,TranslationElicitation_eng-prolific,3.2.4,MacIntel,60,5ebd2a07fa52241862dbca05,3.248999834,1,0,81,8,1,80
,,,,,,,,,,,,,,,,,,,,,,,,,,,,,,,,,,,,,,,,,,,,,,,,,,,113,boca,Catalan,Sounds/cat_boca.mp3,2020-06-12_20h53.01.662,TranslationElicitation_eng-prolific,3.2.4,MacIntel,60,5ebd2a07fa52241862dbca05,,1,0,81,8,1,80
,,,,,,,,,,,,,,,,,,,,,,,,,,,,,,,,,,,,,,,,,t,2.649999857,T,FALSE,,,,,,,180,tisores,Catalan,Sounds/cat_tisores.mp3,2020-06-12_20h53.01.662,TranslationElicitation_eng-prolific,3.2.4,MacIntel,60,5ebd2a07fa52241862dbca05,,1,0,81,71,1,80
,,,,,,,,,,,,,,,,,,,,,,,,,,,,,,,,,,,,,,,,,e,2.882999897,TE,FALSE,,,,,,,180,tisores,Catalan,Sounds/cat_tisores.mp3,2020-06-12_20h53.01.662,TranslationElicitation_eng-prolific,3.2.4,MacIntel,60,5ebd2a07fa52241862dbca05,,1,0,81,71,1,80
,,,,,,,,,,,,,,,,,,,,,,,,,,,,,,,,,,,,,,,,,a,3.066999912,TEA,FALSE,,,,,,,180,tisores,Catalan,Sounds/cat_tisores.mp3,2020-06-12_20h53.01.662,TranslationElicitation_eng-prolific,3.2.4,MacIntel,60,5ebd2a07fa52241862dbca05,,1,0,81,71,1,80
,,,,,,,,,,,,,,,,,,,,,,,,,,,,,,,,,,,,,,,,,c,3.28399992,TEAC,FALSE,,,,,,,180,tisores,Catalan,Sounds/cat_tisores.mp3,2020-06-12_20h53.01.662,TranslationElicitation_eng-prolific,3.2.4,MacIntel,60,5ebd2a07fa52241862dbca05,,1,0,81,71,1,80
,,,,,,,,,,,,,,,,,,,,,,,,,,,,,,,,,,,,,,,,,h,3.48300004,TEACH,FALSE,,,,,,,180,tisores,Catalan,Sounds/cat_tisores.mp3,2020-06-12_20h53.01.662,TranslationElicitation_eng-prolific,3.2.4,MacIntel,60,5ebd2a07fa52241862dbca05,,1,0,81,71,1,80
,,,,,,,,,,,,,,,,,,,,,,,,,,,,,,,,,,,,,,,,,e,3.586999893,TEACHE,FALSE,,,,,,,180,tisores,Catalan,Sounds/cat_tisores.mp3,2020-06-12_20h53.01.662,TranslationElicitation_eng-prolific,3.2.4,MacIntel,60,5ebd2a07fa52241862dbca05,,1,0,81,71,1,80
,,,,,,,,,,,,,,,,,,,,,,,,,,,,,,,,,,,,,,,,,r,3.648999929,TEACHER,FALSE,,,,,,,180,tisores,Catalan,Sounds/cat_tisores.mp3,2020-06-12_20h53.01.662,TranslationElicitation_eng-prolific,3.2.4,MacIntel,60,5ebd2a07fa52241862dbca05,,1,0,81,71,1,80
,,,,,,,,,,,,,,,,,,,,,,,,,,,,,,,,,,,,,,,,,s,3.932999849,TEACHERS,FALSE,,,,,,,180,tisores,Catalan,Sounds/cat_tisores.mp3,2020-06-12_20h53.01.662,TranslationElicitation_eng-prolific,3.2.4,MacIntel,60,5ebd2a07fa52241862dbca05,,1,0,81,71,1,80
,,,,,,,,,,,,,,,,,,,,,,,,,,,,,,,,,,,,,,,,,return,4.882999897,TEACHERS,FALSE,,,,,,,180,tisores,Catalan,Sounds/cat_tisores.mp3,2020-06-12_20h53.01.662,TranslationElicitation_eng-prolific,3.2.4,MacIntel,60,5ebd2a07fa52241862dbca05,4.882999897,1,0,81,71,1,80
,,,,,,,,,,,,,,,,,,,,,,,,,,,,,,,,,,,,,,,,,,,,,,,,,,,180,tisores,Catalan,Sounds/cat_tisores.mp3,2020-06-12_20h53.01.662,TranslationElicitation_eng-prolific,3.2.4,MacIntel,60,5ebd2a07fa52241862dbca05,,1,0,81,71,1,80
,,,,,,,,,,,,,,,,,,,,,,,,,,,,,,,,,,,,,,,,,u,1.187999964,U,FALSE,,,,,,,138,galeta,Catalan,Sounds/cat_galeta.mp3,2020-06-12_20h53.01.662,TranslationElicitation_eng-prolific,3.2.4,MacIntel,60,5ebd2a07fa52241862dbca05,,1,0,81,32,1,80
,,,,,,,,,,,,,,,,,,,,,,,,,,,,,,,,,,,,,,,,,i,1.334000111,UI,FALSE,,,,,,,138,galeta,Catalan,Sounds/cat_galeta.mp3,2020-06-12_20h53.01.662,TranslationElicitation_eng-prolific,3.2.4,MacIntel,60,5ebd2a07fa52241862dbca05,,1,0,81,32,1,80
,,,,,,,,,,,,,,,,,,,,,,,,,,,,,,,,,,,,,,,,,l,1.5,UIL,FALSE,,,,,,,138,galeta,Catalan,Sounds/cat_galeta.mp3,2020-06-12_20h53.01.662,TranslationElicitation_eng-prolific,3.2.4,MacIntel,60,5ebd2a07fa52241862dbca05,,1,0,81,32,1,80
,,,,,,,,,,,,,,,,,,,,,,,,,,,,,,,,,,,,,,,,,backspace,2.117000103,UI,TRUE,,,,,,,138,galeta,Catalan,Sounds/cat_galeta.mp3,2020-06-12_20h53.01.662,TranslationElicitation_eng-prolific,3.2.4,MacIntel,60,5ebd2a07fa52241862dbca05,,1,0,81,32,1,80
,,,,,,,,,,,,,,,,,,,,,,,,,,,,,,,,,,,,,,,,,backspace,2.309999943,U,TRUE,,,,,,,138,galeta,Catalan,Sounds/cat_galeta.mp3,2020-06-12_20h53.01.662,TranslationElicitation_eng-prolific,3.2.4,MacIntel,60,5ebd2a07fa52241862dbca05,,1,0,81,32,1,80
,,,,,,,,,,,,,,,,,,,,,,,,,,,,,,,,,,,,,,,,,backspace,2.450999975,,TRUE,,,,,,,138,galeta,Catalan,Sounds/cat_galeta.mp3,2020-06-12_20h53.01.662,TranslationElicitation_eng-prolific,3.2.4,MacIntel,60,5ebd2a07fa52241862dbca05,,1,0,81,32,1,80
,,,,,,,,,,,,,,,,,,,,,,,,,,,,,,,,,,,,,,,,,g,3.384000063,G,TRUE,,,,,,,138,galeta,Catalan,Sounds/cat_galeta.mp3,2020-06-12_20h53.01.662,TranslationElicitation_eng-prolific,3.2.4,MacIntel,60,5ebd2a07fa52241862dbca05,,1,0,81,32,1,80
,,,,,,,,,,,,,,,,,,,,,,,,,,,,,,,,,,,,,,,,,u,3.554000139,GU,TRUE,,,,,,,138,galeta,Catalan,Sounds/cat_galeta.mp3,2020-06-12_20h53.01.662,TranslationElicitation_eng-prolific,3.2.4,MacIntel,60,5ebd2a07fa52241862dbca05,,1,0,81,32,1,80
,,,,,,,,,,,,,,,,,,,,,,,,,,,,,,,,,,,,,,,,,i,3.733999968,GUI,TRUE,,,,,,,138,galeta,Catalan,Sounds/cat_galeta.mp3,2020-06-12_20h53.01.662,TranslationElicitation_eng-prolific,3.2.4,MacIntel,60,5ebd2a07fa52241862dbca05,,1,0,81,32,1,80
,,,,,,,,,,,,,,,,,,,,,,,,,,,,,,,,,,,,,,,,,l,4.01699996,GUIL,TRUE,,,,,,,138,galeta,Catalan,Sounds/cat_galeta.mp3,2020-06-12_20h53.01.662,TranslationElicitation_eng-prolific,3.2.4,MacIntel,60,5ebd2a07fa52241862dbca05,,1,0,81,32,1,80
,,,,,,,,,,,,,,,,,,,,,,,,,,,,,,,,,,,,,,,,,t,4.134000063,GUILT,TRUE,,,,,,,138,galeta,Catalan,Sounds/cat_galeta.mp3,2020-06-12_20h53.01.662,TranslationElicitation_eng-prolific,3.2.4,MacIntel,60,5ebd2a07fa52241862dbca05,,1,0,81,32,1,80
,,,,,,,,,,,,,,,,,,,,,,,,,,,,,,,,,,,,,,,,,y,4.332999945,GUILTY,TRUE,,,,,,,138,galeta,Catalan,Sounds/cat_galeta.mp3,2020-06-12_20h53.01.662,TranslationElicitation_eng-prolific,3.2.4,MacIntel,60,5ebd2a07fa52241862dbca05,,1,0,81,32,1,80
,,,,,,,,,,,,,,,,,,,,,,,,,,,,,,,,,,,,,,,,,return,4.532999992,GUILTY,TRUE,,,,,,,138,galeta,Catalan,Sounds/cat_galeta.mp3,2020-06-12_20h53.01.662,TranslationElicitation_eng-prolific,3.2.4,MacIntel,60,5ebd2a07fa52241862dbca05,4.532999992,1,0,81,32,1,80
,,,,,,,,,,,,,,,,,,,,,,,,,,,,,,,,,,,,,,,,,,,,,,,,,,,138,galeta,Catalan,Sounds/cat_galeta.mp3,2020-06-12_20h53.01.662,TranslationElicitation_eng-prolific,3.2.4,MacIntel,60,5ebd2a07fa52241862dbca05,,1,0,81,32,1,80
,,,,,,,,,,,,,,,,,,,,,,,,,,,,,,,,,,,,,,,,,m,1.368999958,M,FALSE,,,,,,,156,moto,Catalan,Sounds/cat_moto.mp3,2020-06-12_20h53.01.662,TranslationElicitation_eng-prolific,3.2.4,MacIntel,60,5ebd2a07fa52241862dbca05,,1,0,81,49,1,80
,,,,,,,,,,,,,,,,,,,,,,,,,,,,,,,,,,,,,,,,,o,1.584000111,MO,FALSE,,,,,,,156,moto,Catalan,Sounds/cat_moto.mp3,2020-06-12_20h53.01.662,TranslationElicitation_eng-prolific,3.2.4,MacIntel,60,5ebd2a07fa52241862dbca05,,1,0,81,49,1,80
,,,,,,,,,,,,,,,,,,,,,,,,,,,,,,,,,,,,,,,,,t,1.75,MOT,FALSE,,,,,,,156,moto,Catalan,Sounds/cat_moto.mp3,2020-06-12_20h53.01.662,TranslationElicitation_eng-prolific,3.2.4,MacIntel,60,5ebd2a07fa52241862dbca05,,1,0,81,49,1,80
,,,,,,,,,,,,,,,,,,,,,,,,,,,,,,,,,,,,,,,,,h,1.934000015,MOTH,FALSE,,,,,,,156,moto,Catalan,Sounds/cat_moto.mp3,2020-06-12_20h53.01.662,TranslationElicitation_eng-prolific,3.2.4,MacIntel,60,5ebd2a07fa52241862dbca05,,1,0,81,49,1,80
,,,,,,,,,,,,,,,,,,,,,,,,,,,,,,,,,,,,,,,,,e,2.049999952,MOTHE,FALSE,,,,,,,156,moto,Catalan,Sounds/cat_moto.mp3,2020-06-12_20h53.01.662,TranslationElicitation_eng-prolific,3.2.4,MacIntel,60,5ebd2a07fa52241862dbca05,,1,0,81,49,1,80
,,,,,,,,,,,,,,,,,,,,,,,,,,,,,,,,,,,,,,,,,r,2.150000095,MOTHER,FALSE,,,,,,,156,moto,Catalan,Sounds/cat_moto.mp3,2020-06-12_20h53.01.662,TranslationElicitation_eng-prolific,3.2.4,MacIntel,60,5ebd2a07fa52241862dbca05,,1,0,81,49,1,80
