consentKey.keys,consentKey.rt,languageL1Key.keys,languageL1Key.rt,languageL2,languageL2OralKey.keys,languageL2OralKey.rt,languageL2WrittenKey.keys,languageL2WrittenKey.rt,languageL3OralKey.keys,languageL3OralKey.rt,languageL3WrittenKey.keys,languageL3WrittenKey.rt,languageCatalanOralKey.keys,languageCatalanOralKey.rt,languageCatalanWrittenKey.keys,languageCatalanWrittenKey.rt,languageCatalanTimeKey.keys,languageCatalanTimeKey.rt,languageSpanishOralKey.keys,languageSpanishOralKey.rt,languageSpanishWrittenKey.keys,languageSpanishWrittenKey.rt,languageSpanishTimeKey.keys,languageSpanishTimeKey.rt,age,demoSexKey.keys,demoSexKey.rt,demoEducationKey.keys,demoEducationKey.rt,city,demoVisionKey.keys,demoVisionKey.rt,demoLanguageKey.keys,demoLanguageKey.rt,setupLocationKey.keys,setupLocationKey.rt,setupNoiseKey.keys,setupNoiseKey.rt,instructionsKeys.keys,instructionsKeys.rt,keyPressed,keyPressTime,inputText,error,trialsPracticeSpanish.thisRepN,trialsPracticeSpanish.thisTrialN,trialsPracticeSpanish.thisN,trialsPracticeSpanish.thisIndex,trialsPracticeSpanish.ran,trialsPracticeSpanish.order,trial_id,word,test_language,soundfile,date,expName,psychopyVersion,OS,frameRate,participant,trialOffset,trialsSpanish.thisRepN,trialsSpanish.thisTrialN,trialsSpanish.thisN,trialsSpanish.thisIndex,trialsSpanish.ran,trialsSpanish.order
space,1.349999905,e,2.967999935,,,,,,,,,,1,4.730000019,1,2.413999796,1,3.684999943,1,4.575999975,1,1.164999962,1,1.120999813,21,m,1.403999805,4,3.86199975,IRTHLINGBOROUG,y,4.032999992,n,2.419999838,1,2.047999859,1,4.26699996,space,3.01699996,t,3.907999992,T,FALSE,1,0,5,4,1,4,96,tigre,Spanish,Sounds/spa_tigre.mp3,2020-06-05_12h50.32.569,TranslationElicitation_eng-prolific,3.2.4,Win32,60,5ebef0ede70ab7160edd7ba5,,,,,,,
,,,,,,,,,,,,,,,,,,,,,,,,,,,,,,,,,,,,,,,,,i,4.308000088,TI,FALSE,1,0,5,4,1,4,96,tigre,Spanish,Sounds/spa_tigre.mp3,2020-06-05_12h50.32.569,TranslationElicitation_eng-prolific,3.2.4,Win32,60,5ebef0ede70ab7160edd7ba5,,,,,,,
,,,,,,,,,,,,,,,,,,,,,,,,,,,,,,,,,,,,,,,,,g,4.690000057,TIG,FALSE,1,0,5,4,1,4,96,tigre,Spanish,Sounds/spa_tigre.mp3,2020-06-05_12h50.32.569,TranslationElicitation_eng-prolific,3.2.4,Win32,60,5ebef0ede70ab7160edd7ba5,,,,,,,
,,,,,,,,,,,,,,,,,,,,,,,,,,,,,,,,,,,,,,,,,e,4.80700016,TIGE,FALSE,1,0,5,4,1,4,96,tigre,Spanish,Sounds/spa_tigre.mp3,2020-06-05_12h50.32.569,TranslationElicitation_eng-prolific,3.2.4,Win32,60,5ebef0ede70ab7160edd7ba5,,,,,,,
,,,,,,,,,,,,,,,,,,,,,,,,,,,,,,,,,,,,,,,,,r,5.355000019,TIGER,FALSE,1,0,5,4,1,4,96,tigre,Spanish,Sounds/spa_tigre.mp3,2020-06-05_12h50.32.569,TranslationElicitation_eng-prolific,3.2.4,Win32,60,5ebef0ede70ab7160edd7ba5,,,,,,,
,,,,,,,,,,,,,,,,,,,,,,,,,,,,,,,,,,,,,,,,,return,6.296000004,TIGER,FALSE,1,0,5,4,1,4,96,tigre,Spanish,Sounds/spa_tigre.mp3,2020-06-05_12h50.32.569,TranslationElicitation_eng-prolific,3.2.4,Win32,60,5ebef0ede70ab7160edd7ba5,6.296000004,,,,,,
,,,,,,,,,,,,,,,,,,,,,,,,,,,,,,,,,,,,,,,,,,,,,1,0,5,4,1,4,96,tigre,Spanish,Sounds/spa_tigre.mp3,2020-06-05_12h50.32.569,TranslationElicitation_eng-prolific,3.2.4,Win32,60,5ebef0ede70ab7160edd7ba5,,,,,,,
,,,,,,,,,,,,,,,,,,,,,,,,,,,,,,,,,,,,,,,,,h,3.842999935,H,FALSE,1,0,5,0,1,4,1,arbol,Spanish,Sounds/spa_arbol.mp3,2020-06-05_12h50.32.569,TranslationElicitation_eng-prolific,3.2.4,Win32,60,5ebef0ede70ab7160edd7ba5,,,,,,,
,,,,,,,,,,,,,,,,,,,,,,,,,,,,,,,,,,,,,,,,,a,3.94299984,HA,FALSE,1,0,5,0,1,4,1,arbol,Spanish,Sounds/spa_arbol.mp3,2020-06-05_12h50.32.569,TranslationElicitation_eng-prolific,3.2.4,Win32,60,5ebef0ede70ab7160edd7ba5,,,,,,,
,,,,,,,,,,,,,,,,,,,,,,,,,,,,,,,,,,,,,,,,,r,4.225999832,HAR,FALSE,1,0,5,0,1,4,1,arbol,Spanish,Sounds/spa_arbol.mp3,2020-06-05_12h50.32.569,TranslationElicitation_eng-prolific,3.2.4,Win32,60,5ebef0ede70ab7160edd7ba5,,,,,,,
,,,,,,,,,,,,,,,,,,,,,,,,,,,,,,,,,,,,,,,,,d,4.407999992,HARD,FALSE,1,0,5,0,1,4,1,arbol,Spanish,Sounds/spa_arbol.mp3,2020-06-05_12h50.32.569,TranslationElicitation_eng-prolific,3.2.4,Win32,60,5ebef0ede70ab7160edd7ba5,,,,,,,
,,,,,,,,,,,,,,,,,,,,,,,,,,,,,,,,,,,,,,,,,return,4.673999786,HARD,FALSE,1,0,5,0,1,4,1,arbol,Spanish,Sounds/spa_arbol.mp3,2020-06-05_12h50.32.569,TranslationElicitation_eng-prolific,3.2.4,Win32,60,5ebef0ede70ab7160edd7ba5,4.673999786,,,,,,
,,,,,,,,,,,,,,,,,,,,,,,,,,,,,,,,,,,,,,,,,,,,,1,0,5,0,1,4,1,arbol,Spanish,Sounds/spa_arbol.mp3,2020-06-05_12h50.32.569,TranslationElicitation_eng-prolific,3.2.4,Win32,60,5ebef0ede70ab7160edd7ba5,,,,,,,
,,,,,,,,,,,,,,,,,,,,,,,,,,,,,,,,,,,,,,,,,c,2.379000187,C,FALSE,1,0,5,2,1,4,26,chaqueta,Spanish,Sounds/spa_chaqueta.mp3,2020-06-05_12h50.32.569,TranslationElicitation_eng-prolific,3.2.4,Win32,60,5ebef0ede70ab7160edd7ba5,,,,,,,
,,,,,,,,,,,,,,,,,,,,,,,,,,,,,,,,,,,,,,,,,h,2.612000227,CH,FALSE,1,0,5,2,1,4,26,chaqueta,Spanish,Sounds/spa_chaqueta.mp3,2020-06-05_12h50.32.569,TranslationElicitation_eng-prolific,3.2.4,Win32,60,5ebef0ede70ab7160edd7ba5,,,,,,,
,,,,,,,,,,,,,,,,,,,,,,,,,,,,,,,,,,,,,,,,,i,2.862000227,CHI,FALSE,1,0,5,2,1,4,26,chaqueta,Spanish,Sounds/spa_chaqueta.mp3,2020-06-05_12h50.32.569,TranslationElicitation_eng-prolific,3.2.4,Win32,60,5ebef0ede70ab7160edd7ba5,,,,,,,
,,,,,,,,,,,,,,,,,,,,,,,,,,,,,,,,,,,,,,,,,c,3.080000162,CHIC,FALSE,1,0,5,2,1,4,26,chaqueta,Spanish,Sounds/spa_chaqueta.mp3,2020-06-05_12h50.32.569,TranslationElicitation_eng-prolific,3.2.4,Win32,60,5ebef0ede70ab7160edd7ba5,,,,,,,
,,,,,,,,,,,,,,,,,,,,,,,,,,,,,,,,,,,,,,,,,k,3.127000093,CHICK,FALSE,1,0,5,2,1,4,26,chaqueta,Spanish,Sounds/spa_chaqueta.mp3,2020-06-05_12h50.32.569,TranslationElicitation_eng-prolific,3.2.4,Win32,60,5ebef0ede70ab7160edd7ba5,,,,,,,
,,,,,,,,,,,,,,,,,,,,,,,,,,,,,,,,,,,,,,,,,e,3.311000109,CHICKE,FALSE,1,0,5,2,1,4,26,chaqueta,Spanish,Sounds/spa_chaqueta.mp3,2020-06-05_12h50.32.569,TranslationElicitation_eng-prolific,3.2.4,Win32,60,5ebef0ede70ab7160edd7ba5,,,,,,,
,,,,,,,,,,,,,,,,,,,,,,,,,,,,,,,,,,,,,,,,,n,3.44900012,CHICKEN,FALSE,1,0,5,2,1,4,26,chaqueta,Spanish,Sounds/spa_chaqueta.mp3,2020-06-05_12h50.32.569,TranslationElicitation_eng-prolific,3.2.4,Win32,60,5ebef0ede70ab7160edd7ba5,,,,,,,
,,,,,,,,,,,,,,,,,,,,,,,,,,,,,,,,,,,,,,,,,return,4.026000023,CHICKEN,FALSE,1,0,5,2,1,4,26,chaqueta,Spanish,Sounds/spa_chaqueta.mp3,2020-06-05_12h50.32.569,TranslationElicitation_eng-prolific,3.2.4,Win32,60,5ebef0ede70ab7160edd7ba5,4.026000023,,,,,,
,,,,,,,,,,,,,,,,,,,,,,,,,,,,,,,,,,,,,,,,,,,,,1,0,5,2,1,4,26,chaqueta,Spanish,Sounds/spa_chaqueta.mp3,2020-06-05_12h50.32.569,TranslationElicitation_eng-prolific,3.2.4,Win32,60,5ebef0ede70ab7160edd7ba5,,,,,,,
,,,,,,,,,,,,,,,,,,,,,,,,,,,,,,,,,,,,,,,,,h,1.597000122,H,FALSE,1,0,5,3,1,4,70,ola,Spanish,Sounds/spa_ola.mp3,2020-06-05_12h50.32.569,TranslationElicitation_eng-prolific,3.2.4,Win32,60,5ebef0ede70ab7160edd7ba5,,,,,,,
,,,,,,,,,,,,,,,,,,,,,,,,,,,,,,,,,,,,,,,,,e,1.732000113,HE,FALSE,1,0,5,3,1,4,70,ola,Spanish,Sounds/spa_ola.mp3,2020-06-05_12h50.32.569,TranslationElicitation_eng-prolific,3.2.4,Win32,60,5ebef0ede70ab7160edd7ba5,,,,,,,
,,,,,,,,,,,,,,,,,,,,,,,,,,,,,,,,,,,,,,,,,l,1.989000082,HEL,FALSE,1,0,5,3,1,4,70,ola,Spanish,Sounds/spa_ola.mp3,2020-06-05_12h50.32.569,TranslationElicitation_eng-prolific,3.2.4,Win32,60,5ebef0ede70ab7160edd7ba5,,,,,,,
,,,,,,,,,,,,,,,,,,,,,,,,,,,,,,,,,,,,,,,,,l,2.130000114,HELL,FALSE,1,0,5,3,1,4,70,ola,Spanish,Sounds/spa_ola.mp3,2020-06-05_12h50.32.569,TranslationElicitation_eng-prolific,3.2.4,Win32,60,5ebef0ede70ab7160edd7ba5,,,,,,,
,,,,,,,,,,,,,,,,,,,,,,,,,,,,,,,,,,,,,,,,,o,2.213000059,HELLO,FALSE,1,0,5,3,1,4,70,ola,Spanish,Sounds/spa_ola.mp3,2020-06-05_12h50.32.569,TranslationElicitation_eng-prolific,3.2.4,Win32,60,5ebef0ede70ab7160edd7ba5,,,,,,,
,,,,,,,,,,,,,,,,,,,,,,,,,,,,,,,,,,,,,,,,,return,2.812000036,HELLO,FALSE,1,0,5,3,1,4,70,ola,Spanish,Sounds/spa_ola.mp3,2020-06-05_12h50.32.569,TranslationElicitation_eng-prolific,3.2.4,Win32,60,5ebef0ede70ab7160edd7ba5,2.812000036,,,,,,
,,,,,,,,,,,,,,,,,,,,,,,,,,,,,,,,,,,,,,,,,,,,,1,0,5,3,1,4,70,ola,Spanish,Sounds/spa_ola.mp3,2020-06-05_12h50.32.569,TranslationElicitation_eng-prolific,3.2.4,Win32,60,5ebef0ede70ab7160edd7ba5,,,,,,,
,,,,,,,,,,,,,,,,,,,,,,,,,,,,,,,,,,,,,,,,,b,1.862999916,B,FALSE,1,0,5,1,1,4,30,corona,Spanish,Sounds/spa_corona.mp3,2020-06-05_12h50.32.569,TranslationElicitation_eng-prolific,3.2.4,Win32,60,5ebef0ede70ab7160edd7ba5,,,,,,,
,,,,,,,,,,,,,,,,,,,,,,,,,,,,,,,,,,,,,,,,,e,2.011999846,BE,FALSE,1,0,5,1,1,4,30,corona,Spanish,Sounds/spa_corona.mp3,2020-06-05_12h50.32.569,TranslationElicitation_eng-prolific,3.2.4,Win32,60,5ebef0ede70ab7160edd7ba5,,,,,,,
,,,,,,,,,,,,,,,,,,,,,,,,,,,,,,,,,,,,,,,,,e,2.178999901,BEE,FALSE,1,0,5,1,1,4,30,corona,Spanish,Sounds/spa_corona.mp3,2020-06-05_12h50.32.569,TranslationElicitation_eng-prolific,3.2.4,Win32,60,5ebef0ede70ab7160edd7ba5,,,,,,,
,,,,,,,,,,,,,,,,,,,,,,,,,,,,,,,,,,,,,,,,,r,2.378999949,BEER,FALSE,1,0,5,1,1,4,30,corona,Spanish,Sounds/spa_corona.mp3,2020-06-05_12h50.32.569,TranslationElicitation_eng-prolific,3.2.4,Win32,60,5ebef0ede70ab7160edd7ba5,,,,,,,
,,,,,,,,,,,,,,,,,,,,,,,,,,,,,,,,,,,,,,,,,return,2.510999918,BEER,FALSE,1,0,5,1,1,4,30,corona,Spanish,Sounds/spa_corona.mp3,2020-06-05_12h50.32.569,TranslationElicitation_eng-prolific,3.2.4,Win32,60,5ebef0ede70ab7160edd7ba5,2.510999918,,,,,,
,,,,,,,,,,,,,,,,,,,,,,,,,,,,,,,,,,,,,,,,,,,,,1,0,5,1,1,4,30,corona,Spanish,Sounds/spa_corona.mp3,2020-06-05_12h50.32.569,TranslationElicitation_eng-prolific,3.2.4,Win32,60,5ebef0ede70ab7160edd7ba5,,,,,,,
,,,,,,,,,,,,,,,,,,,,,,,,,,,,,,,,,,,,,,,,,h,5.34100008,H,FALSE,,,,,,,41,gallina,Spanish,Sounds/spa_gallina.mp3,2020-06-05_12h50.32.569,TranslationElicitation_eng-prolific,3.2.4,Win32,60,5ebef0ede70ab7160edd7ba5,,1,0,98,37,1,97
,,,,,,,,,,,,,,,,,,,,,,,,,,,,,,,,,,,,,,,,,y,5.524000168,HY,FALSE,,,,,,,41,gallina,Spanish,Sounds/spa_gallina.mp3,2020-06-05_12h50.32.569,TranslationElicitation_eng-prolific,3.2.4,Win32,60,5ebef0ede70ab7160edd7ba5,,1,0,98,37,1,97
,,,,,,,,,,,,,,,,,,,,,,,,,,,,,,,,,,,,,,,,,e,5.623000145,HYE,FALSE,,,,,,,41,gallina,Spanish,Sounds/spa_gallina.mp3,2020-06-05_12h50.32.569,TranslationElicitation_eng-prolific,3.2.4,Win32,60,5ebef0ede70ab7160edd7ba5,,1,0,98,37,1,97
,,,,,,,,,,,,,,,,,,,,,,,,,,,,,,,,,,,,,,,,,n,5.773000002,HYEN,FALSE,,,,,,,41,gallina,Spanish,Sounds/spa_gallina.mp3,2020-06-05_12h50.32.569,TranslationElicitation_eng-prolific,3.2.4,Win32,60,5ebef0ede70ab7160edd7ba5,,1,0,98,37,1,97
,,,,,,,,,,,,,,,,,,,,,,,,,,,,,,,,,,,,,,,,,a,5.957000017,HYENA,FALSE,,,,,,,41,gallina,Spanish,Sounds/spa_gallina.mp3,2020-06-05_12h50.32.569,TranslationElicitation_eng-prolific,3.2.4,Win32,60,5ebef0ede70ab7160edd7ba5,,1,0,98,37,1,97
,,,,,,,,,,,,,,,,,,,,,,,,,,,,,,,,,,,,,,,,,return,6.489000082,HYENA,FALSE,,,,,,,41,gallina,Spanish,Sounds/spa_gallina.mp3,2020-06-05_12h50.32.569,TranslationElicitation_eng-prolific,3.2.4,Win32,60,5ebef0ede70ab7160edd7ba5,6.489000082,1,0,98,37,1,97
,,,,,,,,,,,,,,,,,,,,,,,,,,,,,,,,,,,,,,,,,,,,,,,,,,,41,gallina,Spanish,Sounds/spa_gallina.mp3,2020-06-05_12h50.32.569,TranslationElicitation_eng-prolific,3.2.4,Win32,60,5ebef0ede70ab7160edd7ba5,,1,0,98,37,1,97
,,,,,,,,,,,,,,,,,,,,,,,,,,,,,,,,,,,,,,,,,m,3.06099987,M,FALSE,,,,,,,18,camisa,Spanish,Sounds/spa_camisa.mp3,2020-06-05_12h50.32.569,TranslationElicitation_eng-prolific,3.2.4,Win32,60,5ebef0ede70ab7160edd7ba5,,1,0,98,16,1,97
,,,,,,,,,,,,,,,,,,,,,,,,,,,,,,,,,,,,,,,,,backspace,3.542999983,,TRUE,,,,,,,18,camisa,Spanish,Sounds/spa_camisa.mp3,2020-06-05_12h50.32.569,TranslationElicitation_eng-prolific,3.2.4,Win32,60,5ebef0ede70ab7160edd7ba5,,1,0,98,16,1,97
,,,,,,,,,,,,,,,,,,,,,,,,,,,,,,,,,,,,,,,,,c,3.819999933,C,TRUE,,,,,,,18,camisa,Spanish,Sounds/spa_camisa.mp3,2020-06-05_12h50.32.569,TranslationElicitation_eng-prolific,3.2.4,Win32,60,5ebef0ede70ab7160edd7ba5,,1,0,98,16,1,97
,,,,,,,,,,,,,,,,,,,,,,,,,,,,,,,,,,,,,,,,,a,4.17599988,CA,TRUE,,,,,,,18,camisa,Spanish,Sounds/spa_camisa.mp3,2020-06-05_12h50.32.569,TranslationElicitation_eng-prolific,3.2.4,Win32,60,5ebef0ede70ab7160edd7ba5,,1,0,98,16,1,97
,,,,,,,,,,,,,,,,,,,,,,,,,,,,,,,,,,,,,,,,,m,4.292999983,CAM,TRUE,,,,,,,18,camisa,Spanish,Sounds/spa_camisa.mp3,2020-06-05_12h50.32.569,TranslationElicitation_eng-prolific,3.2.4,Win32,60,5ebef0ede70ab7160edd7ba5,,1,0,98,16,1,97
,,,,,,,,,,,,,,,,,,,,,,,,,,,,,,,,,,,,,,,,,e,4.41899991,CAME,TRUE,,,,,,,18,camisa,Spanish,Sounds/spa_camisa.mp3,2020-06-05_12h50.32.569,TranslationElicitation_eng-prolific,3.2.4,Win32,60,5ebef0ede70ab7160edd7ba5,,1,0,98,16,1,97
,,,,,,,,,,,,,,,,,,,,,,,,,,,,,,,,,,,,,,,,,r,4.625,CAMER,TRUE,,,,,,,18,camisa,Spanish,Sounds/spa_camisa.mp3,2020-06-05_12h50.32.569,TranslationElicitation_eng-prolific,3.2.4,Win32,60,5ebef0ede70ab7160edd7ba5,,1,0,98,16,1,97
,,,,,,,,,,,,,,,,,,,,,,,,,,,,,,,,,,,,,,,,,a,4.941999912,CAMERA,TRUE,,,,,,,18,camisa,Spanish,Sounds/spa_camisa.mp3,2020-06-05_12h50.32.569,TranslationElicitation_eng-prolific,3.2.4,Win32,60,5ebef0ede70ab7160edd7ba5,,1,0,98,16,1,97
,,,,,,,,,,,,,,,,,,,,,,,,,,,,,,,,,,,,,,,,,return,5.556999922,CAMERA,TRUE,,,,,,,18,camisa,Spanish,Sounds/spa_camisa.mp3,2020-06-05_12h50.32.569,TranslationElicitation_eng-prolific,3.2.4,Win32,60,5ebef0ede70ab7160edd7ba5,5.556999922,1,0,98,16,1,97
,,,,,,,,,,,,,,,,,,,,,,,,,,,,,,,,,,,,,,,,,,,,,,,,,,,18,camisa,Spanish,Sounds/spa_camisa.mp3,2020-06-05_12h50.32.569,TranslationElicitation_eng-prolific,3.2.4,Win32,60,5ebef0ede70ab7160edd7ba5,,1,0,98,16,1,97
,,,,,,,,,,,,,,,,,,,,,,,,,,,,,,,,,,,,,,,,,m,2.128999949,M,FALSE,,,,,,,59,mano,Spanish,Sounds/spa_mano.mp3,2020-06-05_12h50.32.569,TranslationElicitation_eng-prolific,3.2.4,Win32,60,5ebef0ede70ab7160edd7ba5,,1,0,98,55,1,97
,,,,,,,,,,,,,,,,,,,,,,,,,,,,,,,,,,,,,,,,,a,2.230000019,MA,FALSE,,,,,,,59,mano,Spanish,Sounds/spa_mano.mp3,2020-06-05_12h50.32.569,TranslationElicitation_eng-prolific,3.2.4,Win32,60,5ebef0ede70ab7160edd7ba5,,1,0,98,55,1,97
,,,,,,,,,,,,,,,,,,,,,,,,,,,,,,,,,,,,,,,,,n,2.328999996,MAN,FALSE,,,,,,,59,mano,Spanish,Sounds/spa_mano.mp3,2020-06-05_12h50.32.569,TranslationElicitation_eng-prolific,3.2.4,Win32,60,5ebef0ede70ab7160edd7ba5,,1,0,98,55,1,97
,,,,,,,,,,,,,,,,,,,,,,,,,,,,,,,,,,,,,,,,,return,2.894999981,MAN,FALSE,,,,,,,59,mano,Spanish,Sounds/spa_mano.mp3,2020-06-05_12h50.32.569,TranslationElicitation_eng-prolific,3.2.4,Win32,60,5ebef0ede70ab7160edd7ba5,2.894999981,1,0,98,55,1,97
,,,,,,,,,,,,,,,,,,,,,,,,,,,,,,,,,,,,,,,,,,,,,,,,,,,59,mano,Spanish,Sounds/spa_mano.mp3,2020-06-05_12h50.32.569,TranslationElicitation_eng-prolific,3.2.4,Win32,60,5ebef0ede70ab7160edd7ba5,,1,0,98,55,1,97
,,,,,,,,,,,,,,,,,,,,,,,,,,,,,,,,,,,,,,,,,s,2.728000164,S,FALSE,,,,,,,28,cielo,Spanish,Sounds/spa_cielo.mp3,2020-06-05_12h50.32.569,TranslationElicitation_eng-prolific,3.2.4,Win32,60,5ebef0ede70ab7160edd7ba5,,1,0,98,25,1,97
,,,,,,,,,,,,,,,,,,,,,,,,,,,,,,,,,,,,,,,,,l,2.861999989,SL,FALSE,,,,,,,28,cielo,Spanish,Sounds/spa_cielo.mp3,2020-06-05_12h50.32.569,TranslationElicitation_eng-prolific,3.2.4,Win32,60,5ebef0ede70ab7160edd7ba5,,1,0,98,25,1,97
,,,,,,,,,,,,,,,,,,,,,,,,,,,,,,,,,,,,,,,,,e,3.00999999,SLE,FALSE,,,,,,,28,cielo,Spanish,Sounds/spa_cielo.mp3,2020-06-05_12h50.32.569,TranslationElicitation_eng-prolific,3.2.4,Win32,60,5ebef0ede70ab7160edd7ba5,,1,0,98,25,1,97
,,,,,,,,,,,,,,,,,,,,,,,,,,,,,,,,,,,,,,,,,e,3.177000046,SLEE,FALSE,,,,,,,28,cielo,Spanish,Sounds/spa_cielo.mp3,2020-06-05_12h50.32.569,TranslationElicitation_eng-prolific,3.2.4,Win32,60,5ebef0ede70ab7160edd7ba5,,1,0,98,25,1,97
,,,,,,,,,,,,,,,,,,,,,,,,,,,,,,,,,,,,,,,,,p,3.245000124,SLEEP,FALSE,,,,,,,28,cielo,Spanish,Sounds/spa_cielo.mp3,2020-06-05_12h50.32.569,TranslationElicitation_eng-prolific,3.2.4,Win32,60,5ebef0ede70ab7160edd7ba5,,1,0,98,25,1,97
,,,,,,,,,,,,,,,,,,,,,,,,,,,,,,,,,,,,,,,,,return,3.776000023,SLEEP,FALSE,,,,,,,28,cielo,Spanish,Sounds/spa_cielo.mp3,2020-06-05_12h50.32.569,TranslationElicitation_eng-prolific,3.2.4,Win32,60,5ebef0ede70ab7160edd7ba5,3.776000023,1,0,98,25,1,97
,,,,,,,,,,,,,,,,,,,,,,,,,,,,,,,,,,,,,,,,,,,,,,,,,,,28,cielo,Spanish,Sounds/spa_cielo.mp3,2020-06-05_12h50.32.569,TranslationElicitation_eng-prolific,3.2.4,Win32,60,5ebef0ede70ab7160edd7ba5,,1,0,98,25,1,97
,,,,,,,,,,,,,,,,,,,,,,,,,,,,,,,,,,,,,,,,,s,3.243000031,S,FALSE,,,,,,,103,zanahoria,Spanish,Sounds/spa_zanahoria.mp3,2020-06-05_12h50.32.569,TranslationElicitation_eng-prolific,3.2.4,Win32,60,5ebef0ede70ab7160edd7ba5,,1,0,98,97,1,97
,,,,,,,,,,,,,,,,,,,,,,,,,,,,,,,,,,,,,,,,,a,3.460000038,SA,FALSE,,,,,,,103,zanahoria,Spanish,Sounds/spa_zanahoria.mp3,2020-06-05_12h50.32.569,TranslationElicitation_eng-prolific,3.2.4,Win32,60,5ebef0ede70ab7160edd7ba5,,1,0,98,97,1,97
,,,,,,,,,,,,,,,,,,,,,,,,,,,,,,,,,,,,,,,,,n,3.621999979,SAN,FALSE,,,,,,,103,zanahoria,Spanish,Sounds/spa_zanahoria.mp3,2020-06-05_12h50.32.569,TranslationElicitation_eng-prolific,3.2.4,Win32,60,5ebef0ede70ab7160edd7ba5,,1,0,98,97,1,97
,,,,,,,,,,,,,,,,,,,,,,,,,,,,,,,,,,,,,,,,,i,3.827000141,SANI,FALSE,,,,,,,103,zanahoria,Spanish,Sounds/spa_zanahoria.mp3,2020-06-05_12h50.32.569,TranslationElicitation_eng-prolific,3.2.4,Win32,60,5ebef0ede70ab7160edd7ba5,,1,0,98,97,1,97
,,,,,,,,,,,,,,,,,,,,,,,,,,,,,,,,,,,,,,,,,t,3.926000118,SANIT,FALSE,,,,,,,103,zanahoria,Spanish,Sounds/spa_zanahoria.mp3,2020-06-05_12h50.32.569,TranslationElicitation_eng-prolific,3.2.4,Win32,60,5ebef0ede70ab7160edd7ba5,,1,0,98,97,1,97
,,,,,,,,,,,,,,,,,,,,,,,,,,,,,,,,,,,,,,,,,i,4.625,SANITI,FALSE,,,,,,,103,zanahoria,Spanish,Sounds/spa_zanahoria.mp3,2020-06-05_12h50.32.569,TranslationElicitation_eng-prolific,3.2.4,Win32,60,5ebef0ede70ab7160edd7ba5,,1,0,98,97,1,97
,,,,,,,,,,,,,,,,,,,,,,,,,,,,,,,,,,,,,,,,,s,4.709000111,SANITIS,FALSE,,,,,,,103,zanahoria,Spanish,Sounds/spa_zanahoria.mp3,2020-06-05_12h50.32.569,TranslationElicitation_eng-prolific,3.2.4,Win32,60,5ebef0ede70ab7160edd7ba5,,1,0,98,97,1,97
,,,,,,,,,,,,,,,,,,,,,,,,,,,,,,,,,,,,,,,,,e,4.907999992,SANITISE,FALSE,,,,,,,103,zanahoria,Spanish,Sounds/spa_zanahoria.mp3,2020-06-05_12h50.32.569,TranslationElicitation_eng-prolific,3.2.4,Win32,60,5ebef0ede70ab7160edd7ba5,,1,0,98,97,1,97
,,,,,,,,,,,,,,,,,,,,,,,,,,,,,,,,,,,,,,,,,r,5.124000072,SANITISER,FALSE,,,,,,,103,zanahoria,Spanish,Sounds/spa_zanahoria.mp3,2020-06-05_12h50.32.569,TranslationElicitation_eng-prolific,3.2.4,Win32,60,5ebef0ede70ab7160edd7ba5,,1,0,98,97,1,97
,,,,,,,,,,,,,,,,,,,,,,,,,,,,,,,,,,,,,,,,,return,5.269000053,SANITISER,FALSE,,,,,,,103,zanahoria,Spanish,Sounds/spa_zanahoria.mp3,2020-06-05_12h50.32.569,TranslationElicitation_eng-prolific,3.2.4,Win32,60,5ebef0ede70ab7160edd7ba5,5.269000053,1,0,98,97,1,97
,,,,,,,,,,,,,,,,,,,,,,,,,,,,,,,,,,,,,,,,,,,,,,,,,,,103,zanahoria,Spanish,Sounds/spa_zanahoria.mp3,2020-06-05_12h50.32.569,TranslationElicitation_eng-prolific,3.2.4,Win32,60,5ebef0ede70ab7160edd7ba5,,1,0,98,97,1,97
,,,,,,,,,,,,,,,,,,,,,,,,,,,,,,,,,,,,,,,,,b,1.546999931,B,FALSE,,,,,,,6,boca,Spanish,Sounds/spa_boca.mp3,2020-06-05_12h50.32.569,TranslationElicitation_eng-prolific,3.2.4,Win32,60,5ebef0ede70ab7160edd7ba5,,1,0,98,4,1,97
,,,,,,,,,,,,,,,,,,,,,,,,,,,,,,,,,,,,,,,,,o,1.664000034,BO,FALSE,,,,,,,6,boca,Spanish,Sounds/spa_boca.mp3,2020-06-05_12h50.32.569,TranslationElicitation_eng-prolific,3.2.4,Win32,60,5ebef0ede70ab7160edd7ba5,,1,0,98,4,1,97
,,,,,,,,,,,,,,,,,,,,,,,,,,,,,,,,,,,,,,,,,o,1.773999929,BOO,FALSE,,,,,,,6,boca,Spanish,Sounds/spa_boca.mp3,2020-06-05_12h50.32.569,TranslationElicitation_eng-prolific,3.2.4,Win32,60,5ebef0ede70ab7160edd7ba5,,1,0,98,4,1,97
,,,,,,,,,,,,,,,,,,,,,,,,,,,,,,,,,,,,,,,,,k,1.947000027,BOOK,FALSE,,,,,,,6,boca,Spanish,Sounds/spa_boca.mp3,2020-06-05_12h50.32.569,TranslationElicitation_eng-prolific,3.2.4,Win32,60,5ebef0ede70ab7160edd7ba5,,1,0,98,4,1,97
,,,,,,,,,,,,,,,,,,,,,,,,,,,,,,,,,,,,,,,,,return,2.319000006,BOOK,FALSE,,,,,,,6,boca,Spanish,Sounds/spa_boca.mp3,2020-06-05_12h50.32.569,TranslationElicitation_eng-prolific,3.2.4,Win32,60,5ebef0ede70ab7160edd7ba5,2.319000006,1,0,98,4,1,97
,,,,,,,,,,,,,,,,,,,,,,,,,,,,,,,,,,,,,,,,,,,,,,,,,,,6,boca,Spanish,Sounds/spa_boca.mp3,2020-06-05_12h50.32.569,TranslationElicitation_eng-prolific,3.2.4,Win32,60,5ebef0ede70ab7160edd7ba5,,1,0,98,4,1,97
,,,,,,,,,,,,,,,,,,,,,,,,,,,,,,,,,,,,,,,,,t,5.34100008,T,FALSE,,,,,,,24,cereza,Spanish,Sounds/spa_cereza.mp3,2020-06-05_12h50.32.569,TranslationElicitation_eng-prolific,3.2.4,Win32,60,5ebef0ede70ab7160edd7ba5,,1,0,98,22,1,97
,,,,,,,,,,,,,,,,,,,,,,,,,,,,,,,,,,,,,,,,,h,6.638999939,TH,FALSE,,,,,,,24,cereza,Spanish,Sounds/spa_cereza.mp3,2020-06-05_12h50.32.569,TranslationElicitation_eng-prolific,3.2.4,Win32,60,5ebef0ede70ab7160edd7ba5,,1,0,98,22,1,97
,,,,,,,,,,,,,,,,,,,,,,,,,,,,,,,,,,,,,,,,,r,6.723999977,THR,FALSE,,,,,,,24,cereza,Spanish,Sounds/spa_cereza.mp3,2020-06-05_12h50.32.569,TranslationElicitation_eng-prolific,3.2.4,Win32,60,5ebef0ede70ab7160edd7ba5,,1,0,98,22,1,97
,,,,,,,,,,,,,,,,,,,,,,,,,,,,,,,,,,,,,,,,,e,7.003999949,THRE,FALSE,,,,,,,24,cereza,Spanish,Sounds/spa_cereza.mp3,2020-06-05_12h50.32.569,TranslationElicitation_eng-prolific,3.2.4,Win32,60,5ebef0ede70ab7160edd7ba5,,1,0,98,22,1,97
,,,,,,,,,,,,,,,,,,,,,,,,,,,,,,,,,,,,,,,,,e,7.135999918,THREE,FALSE,,,,,,,24,cereza,Spanish,Sounds/spa_cereza.mp3,2020-06-05_12h50.32.569,TranslationElicitation_eng-prolific,3.2.4,Win32,60,5ebef0ede70ab7160edd7ba5,,1,0,98,22,1,97
,,,,,,,,,,,,,,,,,,,,,,,,,,,,,,,,,,,,,,,,,return,7.619999886,THREE,FALSE,,,,,,,24,cereza,Spanish,Sounds/spa_cereza.mp3,2020-06-05_12h50.32.569,TranslationElicitation_eng-prolific,3.2.4,Win32,60,5ebef0ede70ab7160edd7ba5,7.619999886,1,0,98,22,1,97
,,,,,,,,,,,,,,,,,,,,,,,,,,,,,,,,,,,,,,,,,,,,,,,,,,,24,cereza,Spanish,Sounds/spa_cereza.mp3,2020-06-05_12h50.32.569,TranslationElicitation_eng-prolific,3.2.4,Win32,60,5ebef0ede70ab7160edd7ba5,,1,0,98,22,1,97
,,,,,,,,,,,,,,,,,,,,,,,,,,,,,,,,,,,,,,,,,t,1.647000074,T,FALSE,,,,,,,63,mesa,Spanish,Sounds/spa_mesa.mp3,2020-06-05_12h50.32.569,TranslationElicitation_eng-prolific,3.2.4,Win32,60,5ebef0ede70ab7160edd7ba5,,1,0,98,59,1,97
,,,,,,,,,,,,,,,,,,,,,,,,,,,,,,,,,,,,,,,,,a,1.779999971,TA,FALSE,,,,,,,63,mesa,Spanish,Sounds/spa_mesa.mp3,2020-06-05_12h50.32.569,TranslationElicitation_eng-prolific,3.2.4,Win32,60,5ebef0ede70ab7160edd7ba5,,1,0,98,59,1,97
,,,,,,,,,,,,,,,,,,,,,,,,,,,,,,,,,,,,,,,,,b,2.694999933,TAB,FALSE,,,,,,,63,mesa,Spanish,Sounds/spa_mesa.mp3,2020-06-05_12h50.32.569,TranslationElicitation_eng-prolific,3.2.4,Win32,60,5ebef0ede70ab7160edd7ba5,,1,0,98,59,1,97
,,,,,,,,,,,,,,,,,,,,,,,,,,,,,,,,,,,,,,,,,l,2.762000084,TABL,FALSE,,,,,,,63,mesa,Spanish,Sounds/spa_mesa.mp3,2020-06-05_12h50.32.569,TranslationElicitation_eng-prolific,3.2.4,Win32,60,5ebef0ede70ab7160edd7ba5,,1,0,98,59,1,97
,,,,,,,,,,,,,,,,,,,,,,,,,,,,,,,,,,,,,,,,,e,2.963000059,TABLE,FALSE,,,,,,,63,mesa,Spanish,Sounds/spa_mesa.mp3,2020-06-05_12h50.32.569,TranslationElicitation_eng-prolific,3.2.4,Win32,60,5ebef0ede70ab7160edd7ba5,,1,0,98,59,1,97
,,,,,,,,,,,,,,,,,,,,,,,,,,,,,,,,,,,,,,,,,return,3.15199995,TABLE,FALSE,,,,,,,63,mesa,Spanish,Sounds/spa_mesa.mp3,2020-06-05_12h50.32.569,TranslationElicitation_eng-prolific,3.2.4,Win32,60,5ebef0ede70ab7160edd7ba5,3.15199995,1,0,98,59,1,97
,,,,,,,,,,,,,,,,,,,,,,,,,,,,,,,,,,,,,,,,,,,,,,,,,,,63,mesa,Spanish,Sounds/spa_mesa.mp3,2020-06-05_12h50.32.569,TranslationElicitation_eng-prolific,3.2.4,Win32,60,5ebef0ede70ab7160edd7ba5,,1,0,98,59,1,97
,,,,,,,,,,,,,,,,,,,,,,,,,,,,,,,,,,,,,,,,,p,2.928999901,P,FALSE,,,,,,,80,pato,Spanish,Sounds/spa_pato.mp3,2020-06-05_12h50.32.569,TranslationElicitation_eng-prolific,3.2.4,Win32,60,5ebef0ede70ab7160edd7ba5,,1,0,98,75,1,97
,,,,,,,,,,,,,,,,,,,,,,,,,,,,,,,,,,,,,,,,,a,2.960999966,PA,FALSE,,,,,,,80,pato,Spanish,Sounds/spa_pato.mp3,2020-06-05_12h50.32.569,TranslationElicitation_eng-prolific,3.2.4,Win32,60,5ebef0ede70ab7160edd7ba5,,1,0,98,75,1,97
,,,,,,,,,,,,,,,,,,,,,,,,,,,,,,,,,,,,,,,,,t,3.343999863,PAT,FALSE,,,,,,,80,pato,Spanish,Sounds/spa_pato.mp3,2020-06-05_12h50.32.569,TranslationElicitation_eng-prolific,3.2.4,Win32,60,5ebef0ede70ab7160edd7ba5,,1,0,98,75,1,97
,,,,,,,,,,,,,,,,,,,,,,,,,,,,,,,,,,,,,,,,,i,3.460000038,PATI,FALSE,,,,,,,80,pato,Spanish,Sounds/spa_pato.mp3,2020-06-05_12h50.32.569,TranslationElicitation_eng-prolific,3.2.4,Win32,60,5ebef0ede70ab7160edd7ba5,,1,0,98,75,1,97
,,,,,,,,,,,,,,,,,,,,,,,,,,,,,,,,,,,,,,,,,o,3.626999855,PATIO,FALSE,,,,,,,80,pato,Spanish,Sounds/spa_pato.mp3,2020-06-05_12h50.32.569,TranslationElicitation_eng-prolific,3.2.4,Win32,60,5ebef0ede70ab7160edd7ba5,,1,0,98,75,1,97
,,,,,,,,,,,,,,,,,,,,,,,,,,,,,,,,,,,,,,,,,return,4.167000055,PATIO,FALSE,,,,,,,80,pato,Spanish,Sounds/spa_pato.mp3,2020-06-05_12h50.32.569,TranslationElicitation_eng-prolific,3.2.4,Win32,60,5ebef0ede70ab7160edd7ba5,4.167000055,1,0,98,75,1,97
,,,,,,,,,,,,,,,,,,,,,,,,,,,,,,,,,,,,,,,,,,,,,,,,,,,80,pato,Spanish,Sounds/spa_pato.mp3,2020-06-05_12h50.32.569,TranslationElicitation_eng-prolific,3.2.4,Win32,60,5ebef0ede70ab7160edd7ba5,,1,0,98,75,1,97
,,,,,,,,,,,,,,,,,,,,,,,,,,,,,,,,,,,,,,,,,g,1.680000067,G,FALSE,,,,,,,39,gafas,Spanish,Sounds/spa_gafas.mp3,2020-06-05_12h50.32.569,TranslationElicitation_eng-prolific,3.2.4,Win32,60,5ebef0ede70ab7160edd7ba5,,1,0,98,35,1,97
,,,,,,,,,,,,,,,,,,,,,,,,,,,,,,,,,,,,,,,,,a,1.830999851,GA,FALSE,,,,,,,39,gafas,Spanish,Sounds/spa_gafas.mp3,2020-06-05_12h50.32.569,TranslationElicitation_eng-prolific,3.2.4,Win32,60,5ebef0ede70ab7160edd7ba5,,1,0,98,35,1,97
,,,,,,,,,,,,,,,,,,,,,,,,,,,,,,,,,,,,,,,,,r,1.930999994,GAR,FALSE,,,,,,,39,gafas,Spanish,Sounds/spa_gafas.mp3,2020-06-05_12h50.32.569,TranslationElicitation_eng-prolific,3.2.4,Win32,60,5ebef0ede70ab7160edd7ba5,,1,0,98,35,1,97
,,,,,,,,,,,,,,,,,,,,,,,,,,,,,,,,,,,,,,,,,a,2.078999996,GARA,FALSE,,,,,,,39,gafas,Spanish,Sounds/spa_gafas.mp3,2020-06-05_12h50.32.569,TranslationElicitation_eng-prolific,3.2.4,Win32,60,5ebef0ede70ab7160edd7ba5,,1,0,98,35,1,97
,,,,,,,,,,,,,,,,,,,,,,,,,,,,,,,,,,,,,,,,,g,2.161999941,GARAG,FALSE,,,,,,,39,gafas,Spanish,Sounds/spa_gafas.mp3,2020-06-05_12h50.32.569,TranslationElicitation_eng-prolific,3.2.4,Win32,60,5ebef0ede70ab7160edd7ba5,,1,0,98,35,1,97
,,,,,,,,,,,,,,,,,,,,,,,,,,,,,,,,,,,,,,,,,e,2.35800004,GARAGE,FALSE,,,,,,,39,gafas,Spanish,Sounds/spa_gafas.mp3,2020-06-05_12h50.32.569,TranslationElicitation_eng-prolific,3.2.4,Win32,60,5ebef0ede70ab7160edd7ba5,,1,0,98,35,1,97
,,,,,,,,,,,,,,,,,,,,,,,,,,,,,,,,,,,,,,,,,return,2.595000029,GARAGE,FALSE,,,,,,,39,gafas,Spanish,Sounds/spa_gafas.mp3,2020-06-05_12h50.32.569,TranslationElicitation_eng-prolific,3.2.4,Win32,60,5ebef0ede70ab7160edd7ba5,2.595000029,1,0,98,35,1,97
,,,,,,,,,,,,,,,,,,,,,,,,,,,,,,,,,,,,,,,,,,,,,,,,,,,39,gafas,Spanish,Sounds/spa_gafas.mp3,2020-06-05_12h50.32.569,TranslationElicitation_eng-prolific,3.2.4,Win32,60,5ebef0ede70ab7160edd7ba5,,1,0,98,35,1,97
,,,,,,,,,,,,,,,,,,,,,,,,,,,,,,,,,,,,,,,,,s,9.185000181,S,FALSE,,,,,,,2,avestruz,Spanish,Sounds/spa_avestruz.mp3,2020-06-05_12h50.32.569,TranslationElicitation_eng-prolific,3.2.4,Win32,60,5ebef0ede70ab7160edd7ba5,,1,0,98,0,1,97
,,,,,,,,,,,,,,,,,,,,,,,,,,,,,,,,,,,,,,,,,o,9.301000118,SO,FALSE,,,,,,,2,avestruz,Spanish,Sounds/spa_avestruz.mp3,2020-06-05_12h50.32.569,TranslationElicitation_eng-prolific,3.2.4,Win32,60,5ebef0ede70ab7160edd7ba5,,1,0,98,0,1,97
,,,,,,,,,,,,,,,,,,,,,,,,,,,,,,,,,,,,,,,,,o,9.417000055,SOO,FALSE,,,,,,,2,avestruz,Spanish,Sounds/spa_avestruz.mp3,2020-06-05_12h50.32.569,TranslationElicitation_eng-prolific,3.2.4,Win32,60,5ebef0ede70ab7160edd7ba5,,1,0,98,0,1,97
,,,,,,,,,,,,,,,,,,,,,,,,,,,,,,,,,,,,,,,,,n,9.68900013,SOON,FALSE,,,,,,,2,avestruz,Spanish,Sounds/spa_avestruz.mp3,2020-06-05_12h50.32.569,TranslationElicitation_eng-prolific,3.2.4,Win32,60,5ebef0ede70ab7160edd7ba5,,1,0,98,0,1,97
,,,,,,,,,,,,,,,,,,,,,,,,,,,,,,,,,,,,,,,,,return,10.26600003,SOON,FALSE,,,,,,,2,avestruz,Spanish,Sounds/spa_avestruz.mp3,2020-06-05_12h50.32.569,TranslationElicitation_eng-prolific,3.2.4,Win32,60,5ebef0ede70ab7160edd7ba5,10.26600003,1,0,98,0,1,97
,,,,,,,,,,,,,,,,,,,,,,,,,,,,,,,,,,,,,,,,,,,,,,,,,,,2,avestruz,Spanish,Sounds/spa_avestruz.mp3,2020-06-05_12h50.32.569,TranslationElicitation_eng-prolific,3.2.4,Win32,60,5ebef0ede70ab7160edd7ba5,,1,0,98,0,1,97
,,,,,,,,,,,,,,,,,,,,,,,,,,,,,,,,,,,,,,,,,s,1.596999884,S,FALSE,,,,,,,25,cesta,Spanish,Sounds/spa_cesta.mp3,2020-06-05_12h50.32.569,TranslationElicitation_eng-prolific,3.2.4,Win32,60,5ebef0ede70ab7160edd7ba5,,1,0,98,23,1,97
,,,,,,,,,,,,,,,,,,,,,,,,,,,,,,,,,,,,,,,,,e,3.661000013,SE,FALSE,,,,,,,25,cesta,Spanish,Sounds/spa_cesta.mp3,2020-06-05_12h50.32.569,TranslationElicitation_eng-prolific,3.2.4,Win32,60,5ebef0ede70ab7160edd7ba5,,1,0,98,23,1,97
,,,,,,,,,,,,,,,,,,,,,,,,,,,,,,,,,,,,,,,,,x,3.894000053,SEX,FALSE,,,,,,,25,cesta,Spanish,Sounds/spa_cesta.mp3,2020-06-05_12h50.32.569,TranslationElicitation_eng-prolific,3.2.4,Win32,60,5ebef0ede70ab7160edd7ba5,,1,0,98,23,1,97
,,,,,,,,,,,,,,,,,,,,,,,,,,,,,,,,,,,,,,,,,return,4.40899992,SEX,FALSE,,,,,,,25,cesta,Spanish,Sounds/spa_cesta.mp3,2020-06-05_12h50.32.569,TranslationElicitation_eng-prolific,3.2.4,Win32,60,5ebef0ede70ab7160edd7ba5,4.40899992,1,0,98,23,1,97
,,,,,,,,,,,,,,,,,,,,,,,,,,,,,,,,,,,,,,,,,,,,,,,,,,,25,cesta,Spanish,Sounds/spa_cesta.mp3,2020-06-05_12h50.32.569,TranslationElicitation_eng-prolific,3.2.4,Win32,60,5ebef0ede70ab7160edd7ba5,,1,0,98,23,1,97
,,,,,,,,,,,,,,,,,,,,,,,,,,,,,,,,,,,,,,,,,s,2.228000164,S,FALSE,,,,,,,93,sol,Spanish,Sounds/spa_sol.mp3,2020-06-05_12h50.32.569,TranslationElicitation_eng-prolific,3.2.4,Win32,60,5ebef0ede70ab7160edd7ba5,,1,0,98,88,1,97
,,,,,,,,,,,,,,,,,,,,,,,,,,,,,,,,,,,,,,,,,u,2.394999981,SU,FALSE,,,,,,,93,sol,Spanish,Sounds/spa_sol.mp3,2020-06-05_12h50.32.569,TranslationElicitation_eng-prolific,3.2.4,Win32,60,5ebef0ede70ab7160edd7ba5,,1,0,98,88,1,97
,,,,,,,,,,,,,,,,,,,,,,,,,,,,,,,,,,,,,,,,,n,2.628000021,SUN,FALSE,,,,,,,93,sol,Spanish,Sounds/spa_sol.mp3,2020-06-05_12h50.32.569,TranslationElicitation_eng-prolific,3.2.4,Win32,60,5ebef0ede70ab7160edd7ba5,,1,0,98,88,1,97
,,,,,,,,,,,,,,,,,,,,,,,,,,,,,,,,,,,,,,,,,return,3.060000181,SUN,FALSE,,,,,,,93,sol,Spanish,Sounds/spa_sol.mp3,2020-06-05_12h50.32.569,TranslationElicitation_eng-prolific,3.2.4,Win32,60,5ebef0ede70ab7160edd7ba5,3.060000181,1,0,98,88,1,97
,,,,,,,,,,,,,,,,,,,,,,,,,,,,,,,,,,,,,,,,,,,,,,,,,,,93,sol,Spanish,Sounds/spa_sol.mp3,2020-06-05_12h50.32.569,TranslationElicitation_eng-prolific,3.2.4,Win32,60,5ebef0ede70ab7160edd7ba5,,1,0,98,88,1,97
,,,,,,,,,,,,,,,,,,,,,,,,,,,,,,,,,,,,,,,,,p,1.398000002,P,FALSE,,,,,,,78,pastel,Spanish,Sounds/spa_pastel.mp3,2020-06-05_12h50.32.569,TranslationElicitation_eng-prolific,3.2.4,Win32,60,5ebef0ede70ab7160edd7ba5,,1,0,98,73,1,97
,,,,,,,,,,,,,,,,,,,,,,,,,,,,,,,,,,,,,,,,,a,1.596999884,PA,FALSE,,,,,,,78,pastel,Spanish,Sounds/spa_pastel.mp3,2020-06-05_12h50.32.569,TranslationElicitation_eng-prolific,3.2.4,Win32,60,5ebef0ede70ab7160edd7ba5,,1,0,98,73,1,97
,,,,,,,,,,,,,,,,,,,,,,,,,,,,,,,,,,,,,,,,,s,1.812999964,PAS,FALSE,,,,,,,78,pastel,Spanish,Sounds/spa_pastel.mp3,2020-06-05_12h50.32.569,TranslationElicitation_eng-prolific,3.2.4,Win32,60,5ebef0ede70ab7160edd7ba5,,1,0,98,73,1,97
,,,,,,,,,,,,,,,,,,,,,,,,,,,,,,,,,,,,,,,,,t,1.895999908,PAST,FALSE,,,,,,,78,pastel,Spanish,Sounds/spa_pastel.mp3,2020-06-05_12h50.32.569,TranslationElicitation_eng-prolific,3.2.4,Win32,60,5ebef0ede70ab7160edd7ba5,,1,0,98,73,1,97
,,,,,,,,,,,,,,,,,,,,,,,,,,,,,,,,,,,,,,,,,a,2.263000011,PASTA,FALSE,,,,,,,78,pastel,Spanish,Sounds/spa_pastel.mp3,2020-06-05_12h50.32.569,TranslationElicitation_eng-prolific,3.2.4,Win32,60,5ebef0ede70ab7160edd7ba5,,1,0,98,73,1,97
,,,,,,,,,,,,,,,,,,,,,,,,,,,,,,,,,,,,,,,,,return,2.744999886,PASTA,FALSE,,,,,,,78,pastel,Spanish,Sounds/spa_pastel.mp3,2020-06-05_12h50.32.569,TranslationElicitation_eng-prolific,3.2.4,Win32,60,5ebef0ede70ab7160edd7ba5,2.744999886,1,0,98,73,1,97
,,,,,,,,,,,,,,,,,,,,,,,,,,,,,,,,,,,,,,,,,,,,,,,,,,,78,pastel,Spanish,Sounds/spa_pastel.mp3,2020-06-05_12h50.32.569,TranslationElicitation_eng-prolific,3.2.4,Win32,60,5ebef0ede70ab7160edd7ba5,,1,0,98,73,1,97
,,,,,,,,,,,,,,,,,,,,,,,,,,,,,,,,,,,,,,,,,c,3.144000053,C,FALSE,,,,,,,19,camiseta,Spanish,Sounds/spa_camiseta.mp3,2020-06-05_12h50.32.569,TranslationElicitation_eng-prolific,3.2.4,Win32,60,5ebef0ede70ab7160edd7ba5,,1,0,98,17,1,97
,,,,,,,,,,,,,,,,,,,,,,,,,,,,,,,,,,,,,,,,,a,3.394000053,CA,FALSE,,,,,,,19,camiseta,Spanish,Sounds/spa_camiseta.mp3,2020-06-05_12h50.32.569,TranslationElicitation_eng-prolific,3.2.4,Win32,60,5ebef0ede70ab7160edd7ba5,,1,0,98,17,1,97
,,,,,,,,,,,,,,,,,,,,,,,,,,,,,,,,,,,,,,,,,m,3.526000023,CAM,FALSE,,,,,,,19,camiseta,Spanish,Sounds/spa_camiseta.mp3,2020-06-05_12h50.32.569,TranslationElicitation_eng-prolific,3.2.4,Win32,60,5ebef0ede70ab7160edd7ba5,,1,0,98,17,1,97
,,,,,,,,,,,,,,,,,,,,,,,,,,,,,,,,,,,,,,,,,e,3.665999889,CAME,FALSE,,,,,,,19,camiseta,Spanish,Sounds/spa_camiseta.mp3,2020-06-05_12h50.32.569,TranslationElicitation_eng-prolific,3.2.4,Win32,60,5ebef0ede70ab7160edd7ba5,,1,0,98,17,1,97
,,,,,,,,,,,,,,,,,,,,,,,,,,,,,,,,,,,,,,,,,r,3.846999884,CAMER,FALSE,,,,,,,19,camiseta,Spanish,Sounds/spa_camiseta.mp3,2020-06-05_12h50.32.569,TranslationElicitation_eng-prolific,3.2.4,Win32,60,5ebef0ede70ab7160edd7ba5,,1,0,98,17,1,97
,,,,,,,,,,,,,,,,,,,,,,,,,,,,,,,,,,,,,,,,,a,4.174999952,CAMERA,FALSE,,,,,,,19,camiseta,Spanish,Sounds/spa_camiseta.mp3,2020-06-05_12h50.32.569,TranslationElicitation_eng-prolific,3.2.4,Win32,60,5ebef0ede70ab7160edd7ba5,,1,0,98,17,1,97
,,,,,,,,,,,,,,,,,,,,,,,,,,,,,,,,,,,,,,,,,return,4.458999872,CAMERA,FALSE,,,,,,,19,camiseta,Spanish,Sounds/spa_camiseta.mp3,2020-06-05_12h50.32.569,TranslationElicitation_eng-prolific,3.2.4,Win32,60,5ebef0ede70ab7160edd7ba5,4.458999872,1,0,98,17,1,97
,,,,,,,,,,,,,,,,,,,,,,,,,,,,,,,,,,,,,,,,,,,,,,,,,,,19,camiseta,Spanish,Sounds/spa_camiseta.mp3,2020-06-05_12h50.32.569,TranslationElicitation_eng-prolific,3.2.4,Win32,60,5ebef0ede70ab7160edd7ba5,,1,0,98,17,1,97
,,,,,,,,,,,,,,,,,,,,,,,,,,,,,,,,,,,,,,,,,m,2.196000099,M,FALSE,,,,,,,64,moneda,Spanish,Sounds/spa_moneda.mp3,2020-06-05_12h50.32.569,TranslationElicitation_eng-prolific,3.2.4,Win32,60,5ebef0ede70ab7160edd7ba5,,1,0,98,60,1,97
,,,,,,,,,,,,,,,,,,,,,,,,,,,,,,,,,,,,,,,,,o,2.378999949,MO,FALSE,,,,,,,64,moneda,Spanish,Sounds/spa_moneda.mp3,2020-06-05_12h50.32.569,TranslationElicitation_eng-prolific,3.2.4,Win32,60,5ebef0ede70ab7160edd7ba5,,1,0,98,60,1,97
,,,,,,,,,,,,,,,,,,,,,,,,,,,,,,,,,,,,,,,,,n,2.595000029,MON,FALSE,,,,,,,64,moneda,Spanish,Sounds/spa_moneda.mp3,2020-06-05_12h50.32.569,TranslationElicitation_eng-prolific,3.2.4,Win32,60,5ebef0ede70ab7160edd7ba5,,1,0,98,60,1,97
,,,,,,,,,,,,,,,,,,,,,,,,,,,,,,,,,,,,,,,,,e,2.710999966,MONE,FALSE,,,,,,,64,moneda,Spanish,Sounds/spa_moneda.mp3,2020-06-05_12h50.32.569,TranslationElicitation_eng-prolific,3.2.4,Win32,60,5ebef0ede70ab7160edd7ba5,,1,0,98,60,1,97
,,,,,,,,,,,,,,,,,,,,,,,,,,,,,,,,,,,,,,,,,y,2.795000076,MONEY,FALSE,,,,,,,64,moneda,Spanish,Sounds/spa_moneda.mp3,2020-06-05_12h50.32.569,TranslationElicitation_eng-prolific,3.2.4,Win32,60,5ebef0ede70ab7160edd7ba5,,1,0,98,60,1,97
,,,,,,,,,,,,,,,,,,,,,,,,,,,,,,,,,,,,,,,,,return,3.375999928,MONEY,FALSE,,,,,,,64,moneda,Spanish,Sounds/spa_moneda.mp3,2020-06-05_12h50.32.569,TranslationElicitation_eng-prolific,3.2.4,Win32,60,5ebef0ede70ab7160edd7ba5,3.375999928,1,0,98,60,1,97
,,,,,,,,,,,,,,,,,,,,,,,,,,,,,,,,,,,,,,,,,,,,,,,,,,,64,moneda,Spanish,Sounds/spa_moneda.mp3,2020-06-05_12h50.32.569,TranslationElicitation_eng-prolific,3.2.4,Win32,60,5ebef0ede70ab7160edd7ba5,,1,0,98,60,1,97
,,,,,,,,,,,,,,,,,,,,,,,,,,,,,,,,,,,,,,,,,d,2.413000107,D,FALSE,,,,,,,95,tenedor,Spanish,Sounds/spa_tenedor.mp3,2020-06-05_12h50.32.569,TranslationElicitation_eng-prolific,3.2.4,Win32,60,5ebef0ede70ab7160edd7ba5,,1,0,98,90,1,97
,,,,,,,,,,,,,,,,,,,,,,,,,,,,,,,,,,,,,,,,,o,2.463000059,DO,FALSE,,,,,,,95,tenedor,Spanish,Sounds/spa_tenedor.mp3,2020-06-05_12h50.32.569,TranslationElicitation_eng-prolific,3.2.4,Win32,60,5ebef0ede70ab7160edd7ba5,,1,0,98,90,1,97
,,,,,,,,,,,,,,,,,,,,,,,,,,,,,,,,,,,,,,,,,o,2.612999916,DOO,FALSE,,,,,,,95,tenedor,Spanish,Sounds/spa_tenedor.mp3,2020-06-05_12h50.32.569,TranslationElicitation_eng-prolific,3.2.4,Win32,60,5ebef0ede70ab7160edd7ba5,,1,0,98,90,1,97
,,,,,,,,,,,,,,,,,,,,,,,,,,,,,,,,,,,,,,,,,r,2.711999893,DOOR,FALSE,,,,,,,95,tenedor,Spanish,Sounds/spa_tenedor.mp3,2020-06-05_12h50.32.569,TranslationElicitation_eng-prolific,3.2.4,Win32,60,5ebef0ede70ab7160edd7ba5,,1,0,98,90,1,97
,,,,,,,,,,,,,,,,,,,,,,,,,,,,,,,,,,,,,,,,,return,2.947999954,DOOR,FALSE,,,,,,,95,tenedor,Spanish,Sounds/spa_tenedor.mp3,2020-06-05_12h50.32.569,TranslationElicitation_eng-prolific,3.2.4,Win32,60,5ebef0ede70ab7160edd7ba5,2.947999954,1,0,98,90,1,97
,,,,,,,,,,,,,,,,,,,,,,,,,,,,,,,,,,,,,,,,,,,,,,,,,,,95,tenedor,Spanish,Sounds/spa_tenedor.mp3,2020-06-05_12h50.32.569,TranslationElicitation_eng-prolific,3.2.4,Win32,60,5ebef0ede70ab7160edd7ba5,,1,0,98,90,1,97
,,,,,,,,,,,,,,,,,,,,,,,,,,,,,,,,,,,,,,,,,f,3.144999981,F,FALSE,,,,,,,31,cubo,Spanish,Sounds/spa_cubo.mp3,2020-06-05_12h50.32.569,TranslationElicitation_eng-prolific,3.2.4,Win32,60,5ebef0ede70ab7160edd7ba5,,1,0,98,27,1,97
,,,,,,,,,,,,,,,,,,,,,,,,,,,,,,,,,,,,,,,,,o,3.277999878,FO,FALSE,,,,,,,31,cubo,Spanish,Sounds/spa_cubo.mp3,2020-06-05_12h50.32.569,TranslationElicitation_eng-prolific,3.2.4,Win32,60,5ebef0ede70ab7160edd7ba5,,1,0,98,27,1,97
,,,,,,,,,,,,,,,,,,,,,,,,,,,,,,,,,,,,,,,,,o,3.483999968,FOO,FALSE,,,,,,,31,cubo,Spanish,Sounds/spa_cubo.mp3,2020-06-05_12h50.32.569,TranslationElicitation_eng-prolific,3.2.4,Win32,60,5ebef0ede70ab7160edd7ba5,,1,0,98,27,1,97
,,,,,,,,,,,,,,,,,,,,,,,,,,,,,,,,,,,,,,,,,return,3.677000046,FOO,FALSE,,,,,,,31,cubo,Spanish,Sounds/spa_cubo.mp3,2020-06-05_12h50.32.569,TranslationElicitation_eng-prolific,3.2.4,Win32,60,5ebef0ede70ab7160edd7ba5,3.677000046,1,0,98,27,1,97
,,,,,,,,,,,,,,,,,,,,,,,,,,,,,,,,,,,,,,,,,,,,,,,,,,,31,cubo,Spanish,Sounds/spa_cubo.mp3,2020-06-05_12h50.32.569,TranslationElicitation_eng-prolific,3.2.4,Win32,60,5ebef0ede70ab7160edd7ba5,,1,0,98,27,1,97
,,,,,,,,,,,,,,,,,,,,,,,,,,,,,,,,,,,,,,,,,p,2.744999886,P,FALSE,,,,,,,90,pollo,Spanish,Sounds/spa_pollo.mp3,2020-06-05_12h50.32.569,TranslationElicitation_eng-prolific,3.2.4,Win32,60,5ebef0ede70ab7160edd7ba5,,1,0,98,85,1,97
,,,,,,,,,,,,,,,,,,,,,,,,,,,,,,,,,,,,,,,,,o,3.00999999,PO,FALSE,,,,,,,90,pollo,Spanish,Sounds/spa_pollo.mp3,2020-06-05_12h50.32.569,TranslationElicitation_eng-prolific,3.2.4,Win32,60,5ebef0ede70ab7160edd7ba5,,1,0,98,85,1,97
,,,,,,,,,,,,,,,,,,,,,,,,,,,,,,,,,,,,,,,,,l,3.50999999,POL,FALSE,,,,,,,90,pollo,Spanish,Sounds/spa_pollo.mp3,2020-06-05_12h50.32.569,TranslationElicitation_eng-prolific,3.2.4,Win32,60,5ebef0ede70ab7160edd7ba5,,1,0,98,85,1,97
,,,,,,,,,,,,,,,,,,,,,,,,,,,,,,,,,,,,,,,,,l,3.875,POLL,FALSE,,,,,,,90,pollo,Spanish,Sounds/spa_pollo.mp3,2020-06-05_12h50.32.569,TranslationElicitation_eng-prolific,3.2.4,Win32,60,5ebef0ede70ab7160edd7ba5,,1,0,98,85,1,97
,,,,,,,,,,,,,,,,,,,,,,,,,,,,,,,,,,,,,,,,,e,4.039000034,POLLE,FALSE,,,,,,,90,pollo,Spanish,Sounds/spa_pollo.mp3,2020-06-05_12h50.32.569,TranslationElicitation_eng-prolific,3.2.4,Win32,60,5ebef0ede70ab7160edd7ba5,,1,0,98,85,1,97
,,,,,,,,,,,,,,,,,,,,,,,,,,,,,,,,,,,,,,,,,n,4.108999968,POLLEN,FALSE,,,,,,,90,pollo,Spanish,Sounds/spa_pollo.mp3,2020-06-05_12h50.32.569,TranslationElicitation_eng-prolific,3.2.4,Win32,60,5ebef0ede70ab7160edd7ba5,,1,0,98,85,1,97
,,,,,,,,,,,,,,,,,,,,,,,,,,,,,,,,,,,,,,,,,return,4.674999952,POLLEN,FALSE,,,,,,,90,pollo,Spanish,Sounds/spa_pollo.mp3,2020-06-05_12h50.32.569,TranslationElicitation_eng-prolific,3.2.4,Win32,60,5ebef0ede70ab7160edd7ba5,4.674999952,1,0,98,85,1,97
,,,,,,,,,,,,,,,,,,,,,,,,,,,,,,,,,,,,,,,,,,,,,,,,,,,90,pollo,Spanish,Sounds/spa_pollo.mp3,2020-06-05_12h50.32.569,TranslationElicitation_eng-prolific,3.2.4,Win32,60,5ebef0ede70ab7160edd7ba5,,1,0,98,85,1,97
,,,,,,,,,,,,,,,,,,,,,,,,,,,,,,,,,,,,,,,,,c,1.732000113,C,FALSE,,,,,,,29,coche,Spanish,Sounds/spa_coche.mp3,2020-06-05_12h50.32.569,TranslationElicitation_eng-prolific,3.2.4,Win32,60,5ebef0ede70ab7160edd7ba5,,1,0,98,26,1,97
,,,,,,,,,,,,,,,,,,,,,,,,,,,,,,,,,,,,,,,,,o,1.830000162,CO,FALSE,,,,,,,29,coche,Spanish,Sounds/spa_coche.mp3,2020-06-05_12h50.32.569,TranslationElicitation_eng-prolific,3.2.4,Win32,60,5ebef0ede70ab7160edd7ba5,,1,0,98,26,1,97
,,,,,,,,,,,,,,,,,,,,,,,,,,,,,,,,,,,,,,,,,a,2.046000004,COA,FALSE,,,,,,,29,coche,Spanish,Sounds/spa_coche.mp3,2020-06-05_12h50.32.569,TranslationElicitation_eng-prolific,3.2.4,Win32,60,5ebef0ede70ab7160edd7ba5,,1,0,98,26,1,97
,,,,,,,,,,,,,,,,,,,,,,,,,,,,,,,,,,,,,,,,,c,2.330000162,COAC,FALSE,,,,,,,29,coche,Spanish,Sounds/spa_coche.mp3,2020-06-05_12h50.32.569,TranslationElicitation_eng-prolific,3.2.4,Win32,60,5ebef0ede70ab7160edd7ba5,,1,0,98,26,1,97
,,,,,,,,,,,,,,,,,,,,,,,,,,,,,,,,,,,,,,,,,h,2.417999983,COACH,FALSE,,,,,,,29,coche,Spanish,Sounds/spa_coche.mp3,2020-06-05_12h50.32.569,TranslationElicitation_eng-prolific,3.2.4,Win32,60,5ebef0ede70ab7160edd7ba5,,1,0,98,26,1,97
,,,,,,,,,,,,,,,,,,,,,,,,,,,,,,,,,,,,,,,,,return,3.294000149,COACH,FALSE,,,,,,,29,coche,Spanish,Sounds/spa_coche.mp3,2020-06-05_12h50.32.569,TranslationElicitation_eng-prolific,3.2.4,Win32,60,5ebef0ede70ab7160edd7ba5,3.294000149,1,0,98,26,1,97
,,,,,,,,,,,,,,,,,,,,,,,,,,,,,,,,,,,,,,,,,,,,,,,,,,,29,coche,Spanish,Sounds/spa_coche.mp3,2020-06-05_12h50.32.569,TranslationElicitation_eng-prolific,3.2.4,Win32,60,5ebef0ede70ab7160edd7ba5,,1,0,98,26,1,97
,,,,,,,,,,,,,,,,,,,,,,,,,,,,,,,,,,,,,,,,,c,1.447000027,C,FALSE,,,,,,,16,caja,Spanish,Sounds/spa_caja.mp3,2020-06-05_12h50.32.569,TranslationElicitation_eng-prolific,3.2.4,Win32,60,5ebef0ede70ab7160edd7ba5,,1,0,98,14,1,97
,,,,,,,,,,,,,,,,,,,,,,,,,,,,,,,,,,,,,,,,,a,1.712999821,CA,FALSE,,,,,,,16,caja,Spanish,Sounds/spa_caja.mp3,2020-06-05_12h50.32.569,TranslationElicitation_eng-prolific,3.2.4,Win32,60,5ebef0ede70ab7160edd7ba5,,1,0,98,14,1,97
,,,,,,,,,,,,,,,,,,,,,,,,,,,,,,,,,,,,,,,,,r,1.995999813,CAR,FALSE,,,,,,,16,caja,Spanish,Sounds/spa_caja.mp3,2020-06-05_12h50.32.569,TranslationElicitation_eng-prolific,3.2.4,Win32,60,5ebef0ede70ab7160edd7ba5,,1,0,98,14,1,97
,,,,,,,,,,,,,,,,,,,,,,,,,,,,,,,,,,,,,,,,,return,2.112999916,CAR,FALSE,,,,,,,16,caja,Spanish,Sounds/spa_caja.mp3,2020-06-05_12h50.32.569,TranslationElicitation_eng-prolific,3.2.4,Win32,60,5ebef0ede70ab7160edd7ba5,2.112999916,1,0,98,14,1,97
,,,,,,,,,,,,,,,,,,,,,,,,,,,,,,,,,,,,,,,,,,,,,,,,,,,16,caja,Spanish,Sounds/spa_caja.mp3,2020-06-05_12h50.32.569,TranslationElicitation_eng-prolific,3.2.4,Win32,60,5ebef0ede70ab7160edd7ba5,,1,0,98,14,1,97
,,,,,,,,,,,,,,,,,,,,,,,,,,,,,,,,,,,,,,,,,p,1.514000177,P,FALSE,,,,,,,89,pluma,Spanish,Sounds/spa_pluma.mp3,2020-06-05_12h50.32.569,TranslationElicitation_eng-prolific,3.2.4,Win32,60,5ebef0ede70ab7160edd7ba5,,1,0,98,84,1,97
,,,,,,,,,,,,,,,,,,,,,,,,,,,,,,,,,,,,,,,,,l,1.730000019,PL,FALSE,,,,,,,89,pluma,Spanish,Sounds/spa_pluma.mp3,2020-06-05_12h50.32.569,TranslationElicitation_eng-prolific,3.2.4,Win32,60,5ebef0ede70ab7160edd7ba5,,1,0,98,84,1,97
,,,,,,,,,,,,,,,,,,,,,,,,,,,,,,,,,,,,,,,,,u,1.930000067,PLU,FALSE,,,,,,,89,pluma,Spanish,Sounds/spa_pluma.mp3,2020-06-05_12h50.32.569,TranslationElicitation_eng-prolific,3.2.4,Win32,60,5ebef0ede70ab7160edd7ba5,,1,0,98,84,1,97
,,,,,,,,,,,,,,,,,,,,,,,,,,,,,,,,,,,,,,,,,t,2.063000202,PLUT,FALSE,,,,,,,89,pluma,Spanish,Sounds/spa_pluma.mp3,2020-06-05_12h50.32.569,TranslationElicitation_eng-prolific,3.2.4,Win32,60,5ebef0ede70ab7160edd7ba5,,1,0,98,84,1,97
,,,,,,,,,,,,,,,,,,,,,,,,,,,,,,,,,,,,,,,,,o,2.146000147,PLUTO,FALSE,,,,,,,89,pluma,Spanish,Sounds/spa_pluma.mp3,2020-06-05_12h50.32.569,TranslationElicitation_eng-prolific,3.2.4,Win32,60,5ebef0ede70ab7160edd7ba5,,1,0,98,84,1,97
,,,,,,,,,,,,,,,,,,,,,,,,,,,,,,,,,,,,,,,,,return,2.460000038,PLUTO,FALSE,,,,,,,89,pluma,Spanish,Sounds/spa_pluma.mp3,2020-06-05_12h50.32.569,TranslationElicitation_eng-prolific,3.2.4,Win32,60,5ebef0ede70ab7160edd7ba5,2.460000038,1,0,98,84,1,97
,,,,,,,,,,,,,,,,,,,,,,,,,,,,,,,,,,,,,,,,,,,,,,,,,,,89,pluma,Spanish,Sounds/spa_pluma.mp3,2020-06-05_12h50.32.569,TranslationElicitation_eng-prolific,3.2.4,Win32,60,5ebef0ede70ab7160edd7ba5,,1,0,98,84,1,97
,,,,,,,,,,,,,,,,,,,,,,,,,,,,,,,,,,,,,,,,,c,2.796000004,C,FALSE,,,,,,,100,toro,Spanish,Sounds/spa_toro.mp3,2020-06-05_12h50.32.569,TranslationElicitation_eng-prolific,3.2.4,Win32,60,5ebef0ede70ab7160edd7ba5,,1,0,98,94,1,97
,,,,,,,,,,,,,,,,,,,,,,,,,,,,,,,,,,,,,,,,,h,2.927999973,CH,FALSE,,,,,,,100,toro,Spanish,Sounds/spa_toro.mp3,2020-06-05_12h50.32.569,TranslationElicitation_eng-prolific,3.2.4,Win32,60,5ebef0ede70ab7160edd7ba5,,1,0,98,94,1,97
,,,,,,,,,,,,,,,,,,,,,,,,,,,,,,,,,,,,,,,,,i,3.144999981,CHI,FALSE,,,,,,,100,toro,Spanish,Sounds/spa_toro.mp3,2020-06-05_12h50.32.569,TranslationElicitation_eng-prolific,3.2.4,Win32,60,5ebef0ede70ab7160edd7ba5,,1,0,98,94,1,97
,,,,,,,,,,,,,,,,,,,,,,,,,,,,,,,,,,,,,,,,,l,3.411000013,CHIL,FALSE,,,,,,,100,toro,Spanish,Sounds/spa_toro.mp3,2020-06-05_12h50.32.569,TranslationElicitation_eng-prolific,3.2.4,Win32,60,5ebef0ede70ab7160edd7ba5,,1,0,98,94,1,97
,,,,,,,,,,,,,,,,,,,,,,,,,,,,,,,,,,,,,,,,,d,3.494999886,CHILD,FALSE,,,,,,,100,toro,Spanish,Sounds/spa_toro.mp3,2020-06-05_12h50.32.569,TranslationElicitation_eng-prolific,3.2.4,Win32,60,5ebef0ede70ab7160edd7ba5,,1,0,98,94,1,97
,,,,,,,,,,,,,,,,,,,,,,,,,,,,,,,,,,,,,,,,,return,3.695999861,CHILD,FALSE,,,,,,,100,toro,Spanish,Sounds/spa_toro.mp3,2020-06-05_12h50.32.569,TranslationElicitation_eng-prolific,3.2.4,Win32,60,5ebef0ede70ab7160edd7ba5,3.695999861,1,0,98,94,1,97
,,,,,,,,,,,,,,,,,,,,,,,,,,,,,,,,,,,,,,,,,,,,,,,,,,,100,toro,Spanish,Sounds/spa_toro.mp3,2020-06-05_12h50.32.569,TranslationElicitation_eng-prolific,3.2.4,Win32,60,5ebef0ede70ab7160edd7ba5,,1,0,98,94,1,97
,,,,,,,,,,,,,,,,,,,,,,,,,,,,,,,,,,,,,,,,,n,3.161000013,N,FALSE,,,,,,,68,naranja,Spanish,Sounds/spa_naranja.mp3,2020-06-05_12h50.32.569,TranslationElicitation_eng-prolific,3.2.4,Win32,60,5ebef0ede70ab7160edd7ba5,,1,0,98,64,1,97
,,,,,,,,,,,,,,,,,,,,,,,,,,,,,,,,,,,,,,,,,e,3.344000101,NE,FALSE,,,,,,,68,naranja,Spanish,Sounds/spa_naranja.mp3,2020-06-05_12h50.32.569,TranslationElicitation_eng-prolific,3.2.4,Win32,60,5ebef0ede70ab7160edd7ba5,,1,0,98,64,1,97
,,,,,,,,,,,,,,,,,,,,,,,,,,,,,,,,,,,,,,,,,i,3.460999966,NEI,FALSE,,,,,,,68,naranja,Spanish,Sounds/spa_naranja.mp3,2020-06-05_12h50.32.569,TranslationElicitation_eng-prolific,3.2.4,Win32,60,5ebef0ede70ab7160edd7ba5,,1,0,98,64,1,97
,,,,,,,,,,,,,,,,,,,,,,,,,,,,,,,,,,,,,,,,,g,3.627000093,NEIG,FALSE,,,,,,,68,naranja,Spanish,Sounds/spa_naranja.mp3,2020-06-05_12h50.32.569,TranslationElicitation_eng-prolific,3.2.4,Win32,60,5ebef0ede70ab7160edd7ba5,,1,0,98,64,1,97
,,,,,,,,,,,,,,,,,,,,,,,,,,,,,,,,,,,,,,,,,h,3.710000038,NEIGH,FALSE,,,,,,,68,naranja,Spanish,Sounds/spa_naranja.mp3,2020-06-05_12h50.32.569,TranslationElicitation_eng-prolific,3.2.4,Win32,60,5ebef0ede70ab7160edd7ba5,,1,0,98,64,1,97
,,,,,,,,,,,,,,,,,,,,,,,,,,,,,,,,,,,,,,,,,b,3.875,NEIGHB,FALSE,,,,,,,68,naranja,Spanish,Sounds/spa_naranja.mp3,2020-06-05_12h50.32.569,TranslationElicitation_eng-prolific,3.2.4,Win32,60,5ebef0ede70ab7160edd7ba5,,1,0,98,64,1,97
,,,,,,,,,,,,,,,,,,,,,,,,,,,,,,,,,,,,,,,,,o,4.09800005,NEIGHBO,FALSE,,,,,,,68,naranja,Spanish,Sounds/spa_naranja.mp3,2020-06-05_12h50.32.569,TranslationElicitation_eng-prolific,3.2.4,Win32,60,5ebef0ede70ab7160edd7ba5,,1,0,98,64,1,97
,,,,,,,,,,,,,,,,,,,,,,,,,,,,,,,,,,,,,,,,,u,4.353000164,NEIGHBOU,FALSE,,,,,,,68,naranja,Spanish,Sounds/spa_naranja.mp3,2020-06-05_12h50.32.569,TranslationElicitation_eng-prolific,3.2.4,Win32,60,5ebef0ede70ab7160edd7ba5,,1,0,98,64,1,97
,,,,,,,,,,,,,,,,,,,,,,,,,,,,,,,,,,,,,,,,,r,4.370000124,NEIGHBOUR,FALSE,,,,,,,68,naranja,Spanish,Sounds/spa_naranja.mp3,2020-06-05_12h50.32.569,TranslationElicitation_eng-prolific,3.2.4,Win32,60,5ebef0ede70ab7160edd7ba5,,1,0,98,64,1,97
,,,,,,,,,,,,,,,,,,,,,,,,,,,,,,,,,,,,,,,,,return,4.735000134,NEIGHBOUR,FALSE,,,,,,,68,naranja,Spanish,Sounds/spa_naranja.mp3,2020-06-05_12h50.32.569,TranslationElicitation_eng-prolific,3.2.4,Win32,60,5ebef0ede70ab7160edd7ba5,4.735000134,1,0,98,64,1,97
,,,,,,,,,,,,,,,,,,,,,,,,,,,,,,,,,,,,,,,,,,,,,,,,,,,68,naranja,Spanish,Sounds/spa_naranja.mp3,2020-06-05_12h50.32.569,TranslationElicitation_eng-prolific,3.2.4,Win32,60,5ebef0ede70ab7160edd7ba5,,1,0,98,64,1,97
,,,,,,,,,,,,,,,,,,,,,,,,,,,,,,,,,,,,,,,,,r,2.809999943,R,FALSE,,,,,,,51,ladrillo,Spanish,Sounds/spa_ladrillo.mp3,2020-06-05_12h50.32.569,TranslationElicitation_eng-prolific,3.2.4,Win32,60,5ebef0ede70ab7160edd7ba5,,1,0,98,47,1,97
,,,,,,,,,,,,,,,,,,,,,,,,,,,,,,,,,,,,,,,,,e,2.993999958,RE,FALSE,,,,,,,51,ladrillo,Spanish,Sounds/spa_ladrillo.mp3,2020-06-05_12h50.32.569,TranslationElicitation_eng-prolific,3.2.4,Win32,60,5ebef0ede70ab7160edd7ba5,,1,0,98,47,1,97
,,,,,,,,,,,,,,,,,,,,,,,,,,,,,,,,,,,,,,,,,a,3.210000038,REA,FALSE,,,,,,,51,ladrillo,Spanish,Sounds/spa_ladrillo.mp3,2020-06-05_12h50.32.569,TranslationElicitation_eng-prolific,3.2.4,Win32,60,5ebef0ede70ab7160edd7ba5,,1,0,98,47,1,97
,,,,,,,,,,,,,,,,,,,,,,,,,,,,,,,,,,,,,,,,,d,3.464999914,READ,FALSE,,,,,,,51,ladrillo,Spanish,Sounds/spa_ladrillo.mp3,2020-06-05_12h50.32.569,TranslationElicitation_eng-prolific,3.2.4,Win32,60,5ebef0ede70ab7160edd7ba5,,1,0,98,47,1,97
,,,,,,,,,,,,,,,,,,,,,,,,,,,,,,,,,,,,,,,,,return,3.493000031,READ,FALSE,,,,,,,51,ladrillo,Spanish,Sounds/spa_ladrillo.mp3,2020-06-05_12h50.32.569,TranslationElicitation_eng-prolific,3.2.4,Win32,60,5ebef0ede70ab7160edd7ba5,3.493000031,1,0,98,47,1,97
,,,,,,,,,,,,,,,,,,,,,,,,,,,,,,,,,,,,,,,,,,,,,,,,,,,51,ladrillo,Spanish,Sounds/spa_ladrillo.mp3,2020-06-05_12h50.32.569,TranslationElicitation_eng-prolific,3.2.4,Win32,60,5ebef0ede70ab7160edd7ba5,,1,0,98,47,1,97
,,,,,,,,,,,,,,,,,,,,,,,,,,,,,,,,,,,,,,,,,o,2.828999996,O,FALSE,,,,,,,44,gorrion,Spanish,Sounds/spa_gorrion.mp3,2020-06-05_12h50.32.569,TranslationElicitation_eng-prolific,3.2.4,Win32,60,5ebef0ede70ab7160edd7ba5,,1,0,98,40,1,97
,,,,,,,,,,,,,,,,,,,,,,,,,,,,,,,,,,,,,,,,,r,2.961999893,OR,FALSE,,,,,,,44,gorrion,Spanish,Sounds/spa_gorrion.mp3,2020-06-05_12h50.32.569,TranslationElicitation_eng-prolific,3.2.4,Win32,60,5ebef0ede70ab7160edd7ba5,,1,0,98,40,1,97
,,,,,,,,,,,,,,,,,,,,,,,,,,,,,,,,,,,,,,,,,a,3.244999886,ORA,FALSE,,,,,,,44,gorrion,Spanish,Sounds/spa_gorrion.mp3,2020-06-05_12h50.32.569,TranslationElicitation_eng-prolific,3.2.4,Win32,60,5ebef0ede70ab7160edd7ba5,,1,0,98,40,1,97
,,,,,,,,,,,,,,,,,,,,,,,,,,,,,,,,,,,,,,,,,n,3.312000036,ORAN,FALSE,,,,,,,44,gorrion,Spanish,Sounds/spa_gorrion.mp3,2020-06-05_12h50.32.569,TranslationElicitation_eng-prolific,3.2.4,Win32,60,5ebef0ede70ab7160edd7ba5,,1,0,98,40,1,97
,,,,,,,,,,,,,,,,,,,,,,,,,,,,,,,,,,,,,,,,,g,3.621999979,ORANG,FALSE,,,,,,,44,gorrion,Spanish,Sounds/spa_gorrion.mp3,2020-06-05_12h50.32.569,TranslationElicitation_eng-prolific,3.2.4,Win32,60,5ebef0ede70ab7160edd7ba5,,1,0,98,40,1,97
,,,,,,,,,,,,,,,,,,,,,,,,,,,,,,,,,,,,,,,,,return,3.927999973,ORANG,FALSE,,,,,,,44,gorrion,Spanish,Sounds/spa_gorrion.mp3,2020-06-05_12h50.32.569,TranslationElicitation_eng-prolific,3.2.4,Win32,60,5ebef0ede70ab7160edd7ba5,3.927999973,1,0,98,40,1,97
,,,,,,,,,,,,,,,,,,,,,,,,,,,,,,,,,,,,,,,,,,,,,,,,,,,44,gorrion,Spanish,Sounds/spa_gorrion.mp3,2020-06-05_12h50.32.569,TranslationElicitation_eng-prolific,3.2.4,Win32,60,5ebef0ede70ab7160edd7ba5,,1,0,98,40,1,97
,,,,,,,,,,,,,,,,,,,,,,,,,,,,,,,,,,,,,,,,,b,2.846000195,B,FALSE,,,,,,,8,bol,Spanish,Sounds/spa_bol.mp3,2020-06-05_12h50.32.569,TranslationElicitation_eng-prolific,3.2.4,Win32,60,5ebef0ede70ab7160edd7ba5,,1,0,98,6,1,97
,,,,,,,,,,,,,,,,,,,,,,,,,,,,,,,,,,,,,,,,,a,3.211000204,BA,FALSE,,,,,,,8,bol,Spanish,Sounds/spa_bol.mp3,2020-06-05_12h50.32.569,TranslationElicitation_eng-prolific,3.2.4,Win32,60,5ebef0ede70ab7160edd7ba5,,1,0,98,6,1,97
,,,,,,,,,,,,,,,,,,,,,,,,,,,,,,,,,,,,,,,,,l,3.300000191,BAL,FALSE,,,,,,,8,bol,Spanish,Sounds/spa_bol.mp3,2020-06-05_12h50.32.569,TranslationElicitation_eng-prolific,3.2.4,Win32,60,5ebef0ede70ab7160edd7ba5,,1,0,98,6,1,97
,,,,,,,,,,,,,,,,,,,,,,,,,,,,,,,,,,,,,,,,,l,3.961000204,BALL,FALSE,,,,,,,8,bol,Spanish,Sounds/spa_bol.mp3,2020-06-05_12h50.32.569,TranslationElicitation_eng-prolific,3.2.4,Win32,60,5ebef0ede70ab7160edd7ba5,,1,0,98,6,1,97
,,,,,,,,,,,,,,,,,,,,,,,,,,,,,,,,,,,,,,,,,return,4.32400012,BALL,FALSE,,,,,,,8,bol,Spanish,Sounds/spa_bol.mp3,2020-06-05_12h50.32.569,TranslationElicitation_eng-prolific,3.2.4,Win32,60,5ebef0ede70ab7160edd7ba5,4.32400012,1,0,98,6,1,97
,,,,,,,,,,,,,,,,,,,,,,,,,,,,,,,,,,,,,,,,,,,,,,,,,,,8,bol,Spanish,Sounds/spa_bol.mp3,2020-06-05_12h50.32.569,TranslationElicitation_eng-prolific,3.2.4,Win32,60,5ebef0ede70ab7160edd7ba5,,1,0,98,6,1,97
,,,,,,,,,,,,,,,,,,,,,,,,,,,,,,,,,,,,,,,,,o,1.381000042,O,FALSE,,,,,,,73,oveja,Spanish,Sounds/spa_oveja.mp3,2020-06-05_12h50.32.569,TranslationElicitation_eng-prolific,3.2.4,Win32,60,5ebef0ede70ab7160edd7ba5,,1,0,98,68,1,97
,,,,,,,,,,,,,,,,,,,,,,,,,,,,,,,,,,,,,,,,,b,1.697999954,OB,FALSE,,,,,,,73,oveja,Spanish,Sounds/spa_oveja.mp3,2020-06-05_12h50.32.569,TranslationElicitation_eng-prolific,3.2.4,Win32,60,5ebef0ede70ab7160edd7ba5,,1,0,98,68,1,97
,,,,,,,,,,,,,,,,,,,,,,,,,,,,,,,,,,,,,,,,,e,1.83100009,OBE,FALSE,,,,,,,73,oveja,Spanish,Sounds/spa_oveja.mp3,2020-06-05_12h50.32.569,TranslationElicitation_eng-prolific,3.2.4,Win32,60,5ebef0ede70ab7160edd7ba5,,1,0,98,68,1,97
,,,,,,,,,,,,,,,,,,,,,,,,,,,,,,,,,,,,,,,,,y,1.90199995,OBEY,FALSE,,,,,,,73,oveja,Spanish,Sounds/spa_oveja.mp3,2020-06-05_12h50.32.569,TranslationElicitation_eng-prolific,3.2.4,Win32,60,5ebef0ede70ab7160edd7ba5,,1,0,98,68,1,97
,,,,,,,,,,,,,,,,,,,,,,,,,,,,,,,,,,,,,,,,,return,2.249000072,OBEY,FALSE,,,,,,,73,oveja,Spanish,Sounds/spa_oveja.mp3,2020-06-05_12h50.32.569,TranslationElicitation_eng-prolific,3.2.4,Win32,60,5ebef0ede70ab7160edd7ba5,2.249000072,1,0,98,68,1,97
,,,,,,,,,,,,,,,,,,,,,,,,,,,,,,,,,,,,,,,,,,,,,,,,,,,73,oveja,Spanish,Sounds/spa_oveja.mp3,2020-06-05_12h50.32.569,TranslationElicitation_eng-prolific,3.2.4,Win32,60,5ebef0ede70ab7160edd7ba5,,1,0,98,68,1,97
,,,,,,,,,,,,,,,,,,,,,,,,,,,,,,,,,,,,,,,,,p,2.627000093,P,FALSE,,,,,,,22,cepillo,Spanish,Sounds/spa_cepillo.mp3,2020-06-05_12h50.32.569,TranslationElicitation_eng-prolific,3.2.4,Win32,60,5ebef0ede70ab7160edd7ba5,,1,0,98,20,1,97
,,,,,,,,,,,,,,,,,,,,,,,,,,,,,,,,,,,,,,,,,i,2.844000101,PI,FALSE,,,,,,,22,cepillo,Spanish,Sounds/spa_cepillo.mp3,2020-06-05_12h50.32.569,TranslationElicitation_eng-prolific,3.2.4,Win32,60,5ebef0ede70ab7160edd7ba5,,1,0,98,20,1,97
,,,,,,,,,,,,,,,,,,,,,,,,,,,,,,,,,,,,,,,,,l,3.061000109,PIL,FALSE,,,,,,,22,cepillo,Spanish,Sounds/spa_cepillo.mp3,2020-06-05_12h50.32.569,TranslationElicitation_eng-prolific,3.2.4,Win32,60,5ebef0ede70ab7160edd7ba5,,1,0,98,20,1,97
,,,,,,,,,,,,,,,,,,,,,,,,,,,,,,,,,,,,,,,,,l,3.142999887,PILL,FALSE,,,,,,,22,cepillo,Spanish,Sounds/spa_cepillo.mp3,2020-06-05_12h50.32.569,TranslationElicitation_eng-prolific,3.2.4,Win32,60,5ebef0ede70ab7160edd7ba5,,1,0,98,20,1,97
,,,,,,,,,,,,,,,,,,,,,,,,,,,,,,,,,,,,,,,,,return,3.423000097,PILL,FALSE,,,,,,,22,cepillo,Spanish,Sounds/spa_cepillo.mp3,2020-06-05_12h50.32.569,TranslationElicitation_eng-prolific,3.2.4,Win32,60,5ebef0ede70ab7160edd7ba5,3.423000097,1,0,98,20,1,97
,,,,,,,,,,,,,,,,,,,,,,,,,,,,,,,,,,,,,,,,,,,,,,,,,,,22,cepillo,Spanish,Sounds/spa_cepillo.mp3,2020-06-05_12h50.32.569,TranslationElicitation_eng-prolific,3.2.4,Win32,60,5ebef0ede70ab7160edd7ba5,,1,0,98,20,1,97
,,,,,,,,,,,,,,,,,,,,,,,,,,,,,,,,,,,,,,,,,p,4.958999872,P,FALSE,,,,,,,91,puerta,Spanish,Sounds/spa_puerta.mp3,2020-06-05_12h50.32.569,TranslationElicitation_eng-prolific,3.2.4,Win32,60,5ebef0ede70ab7160edd7ba5,,1,0,98,86,1,97
,,,,,,,,,,,,,,,,,,,,,,,,,,,,,,,,,,,,,,,,,o,5.259000063,PO,FALSE,,,,,,,91,puerta,Spanish,Sounds/spa_puerta.mp3,2020-06-05_12h50.32.569,TranslationElicitation_eng-prolific,3.2.4,Win32,60,5ebef0ede70ab7160edd7ba5,,1,0,98,86,1,97
,,,,,,,,,,,,,,,,,,,,,,,,,,,,,,,,,,,,,,,,,o,5.378999949,POO,FALSE,,,,,,,91,puerta,Spanish,Sounds/spa_puerta.mp3,2020-06-05_12h50.32.569,TranslationElicitation_eng-prolific,3.2.4,Win32,60,5ebef0ede70ab7160edd7ba5,,1,0,98,86,1,97
,,,,,,,,,,,,,,,,,,,,,,,,,,,,,,,,,,,,,,,,,r,5.461999893,POOR,FALSE,,,,,,,91,puerta,Spanish,Sounds/spa_puerta.mp3,2020-06-05_12h50.32.569,TranslationElicitation_eng-prolific,3.2.4,Win32,60,5ebef0ede70ab7160edd7ba5,,1,0,98,86,1,97
,,,,,,,,,,,,,,,,,,,,,,,,,,,,,,,,,,,,,,,,,return,5.657000065,POOR,FALSE,,,,,,,91,puerta,Spanish,Sounds/spa_puerta.mp3,2020-06-05_12h50.32.569,TranslationElicitation_eng-prolific,3.2.4,Win32,60,5ebef0ede70ab7160edd7ba5,5.657000065,1,0,98,86,1,97
,,,,,,,,,,,,,,,,,,,,,,,,,,,,,,,,,,,,,,,,,,,,,,,,,,,91,puerta,Spanish,Sounds/spa_puerta.mp3,2020-06-05_12h50.32.569,TranslationElicitation_eng-prolific,3.2.4,Win32,60,5ebef0ede70ab7160edd7ba5,,1,0,98,86,1,97
,,,,,,,,,,,,,,,,,,,,,,,,,,,,,,,,,,,,,,,,,d,3.542999983,D,FALSE,,,,,,,4,biberon,Spanish,Sounds/spa_biberon.mp3,2020-06-05_12h50.32.569,TranslationElicitation_eng-prolific,3.2.4,Win32,60,5ebef0ede70ab7160edd7ba5,,1,0,98,2,1,97
,,,,,,,,,,,,,,,,,,,,,,,,,,,,,,,,,,,,,,,,,o,3.57799983,DO,FALSE,,,,,,,4,biberon,Spanish,Sounds/spa_biberon.mp3,2020-06-05_12h50.32.569,TranslationElicitation_eng-prolific,3.2.4,Win32,60,5ebef0ede70ab7160edd7ba5,,1,0,98,2,1,97
,,,,,,,,,,,,,,,,,,,,,,,,,,,,,,,,,,,,,,,,,n,3.77699995,DON,FALSE,,,,,,,4,biberon,Spanish,Sounds/spa_biberon.mp3,2020-06-05_12h50.32.569,TranslationElicitation_eng-prolific,3.2.4,Win32,60,5ebef0ede70ab7160edd7ba5,,1,0,98,2,1,97
,,,,,,,,,,,,,,,,,,,,,,,,,,,,,,,,,,,,,,,,,apostrophe,4.473999977,DON',FALSE,,,,,,,4,biberon,Spanish,Sounds/spa_biberon.mp3,2020-06-05_12h50.32.569,TranslationElicitation_eng-prolific,3.2.4,Win32,60,5ebef0ede70ab7160edd7ba5,,1,0,98,2,1,97
,,,,,,,,,,,,,,,,,,,,,,,,,,,,,,,,,,,,,,,,,t,4.914000034,DON'T,FALSE,,,,,,,4,biberon,Spanish,Sounds/spa_biberon.mp3,2020-06-05_12h50.32.569,TranslationElicitation_eng-prolific,3.2.4,Win32,60,5ebef0ede70ab7160edd7ba5,,1,0,98,2,1,97
,,,,,,,,,,,,,,,,,,,,,,,,,,,,,,,,,,,,,,,,,return,11.57499981,DON'T,FALSE,,,,,,,4,biberon,Spanish,Sounds/spa_biberon.mp3,2020-06-05_12h50.32.569,TranslationElicitation_eng-prolific,3.2.4,Win32,60,5ebef0ede70ab7160edd7ba5,11.57499981,1,0,98,2,1,97
,,,,,,,,,,,,,,,,,,,,,,,,,,,,,,,,,,,,,,,,,,,,,,,,,,,4,biberon,Spanish,Sounds/spa_biberon.mp3,2020-06-05_12h50.32.569,TranslationElicitation_eng-prolific,3.2.4,Win32,60,5ebef0ede70ab7160edd7ba5,,1,0,98,2,1,97
,,,,,,,,,,,,,,,,,,,,,,,,,,,,,,,,,,,,,,,,,p,2.211999893,P,FALSE,,,,,,,82,perro,Spanish,Sounds/spa_perro.mp3,2020-06-05_12h50.32.569,TranslationElicitation_eng-prolific,3.2.4,Win32,60,5ebef0ede70ab7160edd7ba5,,1,0,98,77,1,97
,,,,,,,,,,,,,,,,,,,,,,,,,,,,,,,,,,,,,,,,,i,2.444999933,PI,FALSE,,,,,,,82,perro,Spanish,Sounds/spa_perro.mp3,2020-06-05_12h50.32.569,TranslationElicitation_eng-prolific,3.2.4,Win32,60,5ebef0ede70ab7160edd7ba5,,1,0,98,77,1,97
,,,,,,,,,,,,,,,,,,,,,,,,,,,,,,,,,,,,,,,,,g,2.559999943,PIG,FALSE,,,,,,,82,perro,Spanish,Sounds/spa_perro.mp3,2020-06-05_12h50.32.569,TranslationElicitation_eng-prolific,3.2.4,Win32,60,5ebef0ede70ab7160edd7ba5,,1,0,98,77,1,97
,,,,,,,,,,,,,,,,,,,,,,,,,,,,,,,,,,,,,,,,,return,2.760999918,PIG,FALSE,,,,,,,82,perro,Spanish,Sounds/spa_perro.mp3,2020-06-05_12h50.32.569,TranslationElicitation_eng-prolific,3.2.4,Win32,60,5ebef0ede70ab7160edd7ba5,2.760999918,1,0,98,77,1,97
,,,,,,,,,,,,,,,,,,,,,,,,,,,,,,,,,,,,,,,,,,,,,,,,,,,82,perro,Spanish,Sounds/spa_perro.mp3,2020-06-05_12h50.32.569,TranslationElicitation_eng-prolific,3.2.4,Win32,60,5ebef0ede70ab7160edd7ba5,,1,0,98,77,1,97
,,,,,,,,,,,,,,,,,,,,,,,,,,,,,,,,,,,,,,,,,b,2.295000076,B,FALSE,,,,,,,7,bocadillo,Spanish,Sounds/spa_bocadillo.mp3,2020-06-05_12h50.32.569,TranslationElicitation_eng-prolific,3.2.4,Win32,60,5ebef0ede70ab7160edd7ba5,,1,0,98,5,1,97
,,,,,,,,,,,,,,,,,,,,,,,,,,,,,,,,,,,,,,,,,o,2.413000107,BO,FALSE,,,,,,,7,bocadillo,Spanish,Sounds/spa_bocadillo.mp3,2020-06-05_12h50.32.569,TranslationElicitation_eng-prolific,3.2.4,Win32,60,5ebef0ede70ab7160edd7ba5,,1,0,98,5,1,97
,,,,,,,,,,,,,,,,,,,,,,,,,,,,,,,,,,,,,,,,,o,2.561000109,BOO,FALSE,,,,,,,7,bocadillo,Spanish,Sounds/spa_bocadillo.mp3,2020-06-05_12h50.32.569,TranslationElicitation_eng-prolific,3.2.4,Win32,60,5ebef0ede70ab7160edd7ba5,,1,0,98,5,1,97
,,,,,,,,,,,,,,,,,,,,,,,,,,,,,,,,,,,,,,,,,k,2.728000164,BOOK,FALSE,,,,,,,7,bocadillo,Spanish,Sounds/spa_bocadillo.mp3,2020-06-05_12h50.32.569,TranslationElicitation_eng-prolific,3.2.4,Win32,60,5ebef0ede70ab7160edd7ba5,,1,0,98,5,1,97
,,,,,,,,,,,,,,,,,,,,,,,,,,,,,,,,,,,,,,,,,return,3.029999971,BOOK,FALSE,,,,,,,7,bocadillo,Spanish,Sounds/spa_bocadillo.mp3,2020-06-05_12h50.32.569,TranslationElicitation_eng-prolific,3.2.4,Win32,60,5ebef0ede70ab7160edd7ba5,3.029999971,1,0,98,5,1,97
,,,,,,,,,,,,,,,,,,,,,,,,,,,,,,,,,,,,,,,,,,,,,,,,,,,7,bocadillo,Spanish,Sounds/spa_bocadillo.mp3,2020-06-05_12h50.32.569,TranslationElicitation_eng-prolific,3.2.4,Win32,60,5ebef0ede70ab7160edd7ba5,,1,0,98,5,1,97
,,,,,,,,,,,,,,,,,,,,,,,,,,,,,,,,,,,,,,,,,c,1.946000099,C,FALSE,,,,,,,17,calcetin,Spanish,Sounds/spa_calcetin.mp3,2020-06-05_12h50.32.569,TranslationElicitation_eng-prolific,3.2.4,Win32,60,5ebef0ede70ab7160edd7ba5,,1,0,98,15,1,97
,,,,,,,,,,,,,,,,,,,,,,,,,,,,,,,,,,,,,,,,,a,2.31400013,CA,FALSE,,,,,,,17,calcetin,Spanish,Sounds/spa_calcetin.mp3,2020-06-05_12h50.32.569,TranslationElicitation_eng-prolific,3.2.4,Win32,60,5ebef0ede70ab7160edd7ba5,,1,0,98,15,1,97
,,,,,,,,,,,,,,,,,,,,,,,,,,,,,,,,,,,,,,,,,r,3.127000093,CAR,FALSE,,,,,,,17,calcetin,Spanish,Sounds/spa_calcetin.mp3,2020-06-05_12h50.32.569,TranslationElicitation_eng-prolific,3.2.4,Win32,60,5ebef0ede70ab7160edd7ba5,,1,0,98,15,1,97
,,,,,,,,,,,,,,,,,,,,,,,,,,,,,,,,,,,,,,,,,backspace,3.650000095,CA,TRUE,,,,,,,17,calcetin,Spanish,Sounds/spa_calcetin.mp3,2020-06-05_12h50.32.569,TranslationElicitation_eng-prolific,3.2.4,Win32,60,5ebef0ede70ab7160edd7ba5,,1,0,98,15,1,97
,,,,,,,,,,,,,,,,,,,,,,,,,,,,,,,,,,,,,,,,,backspace,3.802999973,C,TRUE,,,,,,,17,calcetin,Spanish,Sounds/spa_calcetin.mp3,2020-06-05_12h50.32.569,TranslationElicitation_eng-prolific,3.2.4,Win32,60,5ebef0ede70ab7160edd7ba5,,1,0,98,15,1,97
,,,,,,,,,,,,,,,,,,,,,,,,,,,,,,,,,,,,,,,,,backspace,3.926000118,,TRUE,,,,,,,17,calcetin,Spanish,Sounds/spa_calcetin.mp3,2020-06-05_12h50.32.569,TranslationElicitation_eng-prolific,3.2.4,Win32,60,5ebef0ede70ab7160edd7ba5,,1,0,98,15,1,97
,,,,,,,,,,,,,,,,,,,,,,,,,,,,,,,,,,,,,,,,,s,4.476000071,S,TRUE,,,,,,,17,calcetin,Spanish,Sounds/spa_calcetin.mp3,2020-06-05_12h50.32.569,TranslationElicitation_eng-prolific,3.2.4,Win32,60,5ebef0ede70ab7160edd7ba5,,1,0,98,15,1,97
,,,,,,,,,,,,,,,,,,,,,,,,,,,,,,,,,,,,,,,,,i,4.64199996,SI,TRUE,,,,,,,17,calcetin,Spanish,Sounds/spa_calcetin.mp3,2020-06-05_12h50.32.569,TranslationElicitation_eng-prolific,3.2.4,Win32,60,5ebef0ede70ab7160edd7ba5,,1,0,98,15,1,97
,,,,,,,,,,,,,,,,,,,,,,,,,,,,,,,,,,,,,,,,,d,4.725000143,SID,TRUE,,,,,,,17,calcetin,Spanish,Sounds/spa_calcetin.mp3,2020-06-05_12h50.32.569,TranslationElicitation_eng-prolific,3.2.4,Win32,60,5ebef0ede70ab7160edd7ba5,,1,0,98,15,1,97
,,,,,,,,,,,,,,,,,,,,,,,,,,,,,,,,,,,,,,,,,e,4.891000032,SIDE,TRUE,,,,,,,17,calcetin,Spanish,Sounds/spa_calcetin.mp3,2020-06-05_12h50.32.569,TranslationElicitation_eng-prolific,3.2.4,Win32,60,5ebef0ede70ab7160edd7ba5,,1,0,98,15,1,97
,,,,,,,,,,,,,,,,,,,,,,,,,,,,,,,,,,,,,,,,,c,5.226000071,SIDEC,TRUE,,,,,,,17,calcetin,Spanish,Sounds/spa_calcetin.mp3,2020-06-05_12h50.32.569,TranslationElicitation_eng-prolific,3.2.4,Win32,60,5ebef0ede70ab7160edd7ba5,,1,0,98,15,1,97
,,,,,,,,,,,,,,,,,,,,,,,,,,,,,,,,,,,,,,,,,a,5.374000072,SIDECA,TRUE,,,,,,,17,calcetin,Spanish,Sounds/spa_calcetin.mp3,2020-06-05_12h50.32.569,TranslationElicitation_eng-prolific,3.2.4,Win32,60,5ebef0ede70ab7160edd7ba5,,1,0,98,15,1,97
,,,,,,,,,,,,,,,,,,,,,,,,,,,,,,,,,,,,,,,,,r,5.424000025,SIDECAR,TRUE,,,,,,,17,calcetin,Spanish,Sounds/spa_calcetin.mp3,2020-06-05_12h50.32.569,TranslationElicitation_eng-prolific,3.2.4,Win32,60,5ebef0ede70ab7160edd7ba5,,1,0,98,15,1,97
,,,,,,,,,,,,,,,,,,,,,,,,,,,,,,,,,,,,,,,,,return,5.978000164,SIDECAR,TRUE,,,,,,,17,calcetin,Spanish,Sounds/spa_calcetin.mp3,2020-06-05_12h50.32.569,TranslationElicitation_eng-prolific,3.2.4,Win32,60,5ebef0ede70ab7160edd7ba5,5.978000164,1,0,98,15,1,97
,,,,,,,,,,,,,,,,,,,,,,,,,,,,,,,,,,,,,,,,,,,,,,,,,,,17,calcetin,Spanish,Sounds/spa_calcetin.mp3,2020-06-05_12h50.32.569,TranslationElicitation_eng-prolific,3.2.4,Win32,60,5ebef0ede70ab7160edd7ba5,,1,0,98,15,1,97
,,,,,,,,,,,,,,,,,,,,,,,,,,,,,,,,,,,,,,,,,m,1.695999861,M,FALSE,,,,,,,66,moto,Spanish,Sounds/spa_moto.mp3,2020-06-05_12h50.32.569,TranslationElicitation_eng-prolific,3.2.4,Win32,60,5ebef0ede70ab7160edd7ba5,,1,0,98,62,1,97
,,,,,,,,,,,,,,,,,,,,,,,,,,,,,,,,,,,,,,,,,o,1.930999994,MO,FALSE,,,,,,,66,moto,Spanish,Sounds/spa_moto.mp3,2020-06-05_12h50.32.569,TranslationElicitation_eng-prolific,3.2.4,Win32,60,5ebef0ede70ab7160edd7ba5,,1,0,98,62,1,97
,,,,,,,,,,,,,,,,,,,,,,,,,,,,,,,,,,,,,,,,,t,2.121999979,MOT,FALSE,,,,,,,66,moto,Spanish,Sounds/spa_moto.mp3,2020-06-05_12h50.32.569,TranslationElicitation_eng-prolific,3.2.4,Win32,60,5ebef0ede70ab7160edd7ba5,,1,0,98,62,1,97
,,,,,,,,,,,,,,,,,,,,,,,,,,,,,,,,,,,,,,,,,t,2.254999876,MOTT,FALSE,,,,,,,66,moto,Spanish,Sounds/spa_moto.mp3,2020-06-05_12h50.32.569,TranslationElicitation_eng-prolific,3.2.4,Win32,60,5ebef0ede70ab7160edd7ba5,,1,0,98,62,1,97
,,,,,,,,,,,,,,,,,,,,,,,,,,,,,,,,,,,,,,,,,o,2.467000008,MOTTO,FALSE,,,,,,,66,moto,Spanish,Sounds/spa_moto.mp3,2020-06-05_12h50.32.569,TranslationElicitation_eng-prolific,3.2.4,Win32,60,5ebef0ede70ab7160edd7ba5,,1,0,98,62,1,97
,,,,,,,,,,,,,,,,,,,,,,,,,,,,,,,,,,,,,,,,,return,2.809999943,MOTTO,FALSE,,,,,,,66,moto,Spanish,Sounds/spa_moto.mp3,2020-06-05_12h50.32.569,TranslationElicitation_eng-prolific,3.2.4,Win32,60,5ebef0ede70ab7160edd7ba5,2.809999943,1,0,98,62,1,97
,,,,,,,,,,,,,,,,,,,,,,,,,,,,,,,,,,,,,,,,,,,,,,,,,,,66,moto,Spanish,Sounds/spa_moto.mp3,2020-06-05_12h50.32.569,TranslationElicitation_eng-prolific,3.2.4,Win32,60,5ebef0ede70ab7160edd7ba5,,1,0,98,62,1,97
,,,,,,,,,,,,,,,,,,,,,,,,,,,,,,,,,,,,,,,,,s,2.779000044,S,FALSE,,,,,,,23,cerdo,Spanish,Sounds/spa_cerdo.mp3,2020-06-05_12h50.32.569,TranslationElicitation_eng-prolific,3.2.4,Win32,60,5ebef0ede70ab7160edd7ba5,,1,0,98,21,1,97
,,,,,,,,,,,,,,,,,,,,,,,,,,,,,,,,,,,,,,,,,i,2.945000172,SI,FALSE,,,,,,,23,cerdo,Spanish,Sounds/spa_cerdo.mp3,2020-06-05_12h50.32.569,TranslationElicitation_eng-prolific,3.2.4,Win32,60,5ebef0ede70ab7160edd7ba5,,1,0,98,21,1,97
,,,,,,,,,,,,,,,,,,,,,,,,,,,,,,,,,,,,,,,,,r,3.032999992,SIR,FALSE,,,,,,,23,cerdo,Spanish,Sounds/spa_cerdo.mp3,2020-06-05_12h50.32.569,TranslationElicitation_eng-prolific,3.2.4,Win32,60,5ebef0ede70ab7160edd7ba5,,1,0,98,21,1,97
,,,,,,,,,,,,,,,,,,,,,,,,,,,,,,,,,,,,,,,,,return,3.328999996,SIR,FALSE,,,,,,,23,cerdo,Spanish,Sounds/spa_cerdo.mp3,2020-06-05_12h50.32.569,TranslationElicitation_eng-prolific,3.2.4,Win32,60,5ebef0ede70ab7160edd7ba5,3.328999996,1,0,98,21,1,97
,,,,,,,,,,,,,,,,,,,,,,,,,,,,,,,,,,,,,,,,,,,,,,,,,,,23,cerdo,Spanish,Sounds/spa_cerdo.mp3,2020-06-05_12h50.32.569,TranslationElicitation_eng-prolific,3.2.4,Win32,60,5ebef0ede70ab7160edd7ba5,,1,0,98,21,1,97
,,,,,,,,,,,,,,,,,,,,,,,,,,,,,,,,,,,,,,,,,s,1.399000168,S,FALSE,,,,,,,34,ensalada,Spanish,Sounds/spa_ensalada.mp3,2020-06-05_12h50.32.569,TranslationElicitation_eng-prolific,3.2.4,Win32,60,5ebef0ede70ab7160edd7ba5,,1,0,98,30,1,97
,,,,,,,,,,,,,,,,,,,,,,,,,,,,,,,,,,,,,,,,,a,1.613000154,SA,FALSE,,,,,,,34,ensalada,Spanish,Sounds/spa_ensalada.mp3,2020-06-05_12h50.32.569,TranslationElicitation_eng-prolific,3.2.4,Win32,60,5ebef0ede70ab7160edd7ba5,,1,0,98,30,1,97
,,,,,,,,,,,,,,,,,,,,,,,,,,,,,,,,,,,,,,,,,l,1.729000092,SAL,FALSE,,,,,,,34,ensalada,Spanish,Sounds/spa_ensalada.mp3,2020-06-05_12h50.32.569,TranslationElicitation_eng-prolific,3.2.4,Win32,60,5ebef0ede70ab7160edd7ba5,,1,0,98,30,1,97
,,,,,,,,,,,,,,,,,,,,,,,,,,,,,,,,,,,,,,,,,a,1.847000122,SALA,FALSE,,,,,,,34,ensalada,Spanish,Sounds/spa_ensalada.mp3,2020-06-05_12h50.32.569,TranslationElicitation_eng-prolific,3.2.4,Win32,60,5ebef0ede70ab7160edd7ba5,,1,0,98,30,1,97
,,,,,,,,,,,,,,,,,,,,,,,,,,,,,,,,,,,,,,,,,d,2.095000029,SALAD,FALSE,,,,,,,34,ensalada,Spanish,Sounds/spa_ensalada.mp3,2020-06-05_12h50.32.569,TranslationElicitation_eng-prolific,3.2.4,Win32,60,5ebef0ede70ab7160edd7ba5,,1,0,98,30,1,97
,,,,,,,,,,,,,,,,,,,,,,,,,,,,,,,,,,,,,,,,,return,2.279000044,SALAD,FALSE,,,,,,,34,ensalada,Spanish,Sounds/spa_ensalada.mp3,2020-06-05_12h50.32.569,TranslationElicitation_eng-prolific,3.2.4,Win32,60,5ebef0ede70ab7160edd7ba5,2.279000044,1,0,98,30,1,97
,,,,,,,,,,,,,,,,,,,,,,,,,,,,,,,,,,,,,,,,,,,,,,,,,,,34,ensalada,Spanish,Sounds/spa_ensalada.mp3,2020-06-05_12h50.32.569,TranslationElicitation_eng-prolific,3.2.4,Win32,60,5ebef0ede70ab7160edd7ba5,,1,0,98,30,1,97
,,,,,,,,,,,,,,,,,,,,,,,,,,,,,,,,,,,,,,,,,h,1.214999914,H,FALSE,,,,,,,27,chocolate,Spanish,Sounds/spa_chocolate.mp3,2020-06-05_12h50.32.569,TranslationElicitation_eng-prolific,3.2.4,Win32,60,5ebef0ede70ab7160edd7ba5,,1,0,98,24,1,97
,,,,,,,,,,,,,,,,,,,,,,,,,,,,,,,,,,,,,,,,,o,1.430000067,HO,FALSE,,,,,,,27,chocolate,Spanish,Sounds/spa_chocolate.mp3,2020-06-05_12h50.32.569,TranslationElicitation_eng-prolific,3.2.4,Win32,60,5ebef0ede70ab7160edd7ba5,,1,0,98,24,1,97
,,,,,,,,,,,,,,,,,,,,,,,,,,,,,,,,,,,,,,,,,c,1.664000034,HOC,FALSE,,,,,,,27,chocolate,Spanish,Sounds/spa_chocolate.mp3,2020-06-05_12h50.32.569,TranslationElicitation_eng-prolific,3.2.4,Win32,60,5ebef0ede70ab7160edd7ba5,,1,0,98,24,1,97
,,,,,,,,,,,,,,,,,,,,,,,,,,,,,,,,,,,,,,,,,backspace,1.894999981,HO,TRUE,,,,,,,27,chocolate,Spanish,Sounds/spa_chocolate.mp3,2020-06-05_12h50.32.569,TranslationElicitation_eng-prolific,3.2.4,Win32,60,5ebef0ede70ab7160edd7ba5,,1,0,98,24,1,97
,,,,,,,,,,,,,,,,,,,,,,,,,,,,,,,,,,,,,,,,,backspace,2.046000004,H,TRUE,,,,,,,27,chocolate,Spanish,Sounds/spa_chocolate.mp3,2020-06-05_12h50.32.569,TranslationElicitation_eng-prolific,3.2.4,Win32,60,5ebef0ede70ab7160edd7ba5,,1,0,98,24,1,97
,,,,,,,,,,,,,,,,,,,,,,,,,,,,,,,,,,,,,,,,,backspace,2.178999901,,TRUE,,,,,,,27,chocolate,Spanish,Sounds/spa_chocolate.mp3,2020-06-05_12h50.32.569,TranslationElicitation_eng-prolific,3.2.4,Win32,60,5ebef0ede70ab7160edd7ba5,,1,0,98,24,1,97
,,,,,,,,,,,,,,,,,,,,,,,,,,,,,,,,,,,,,,,,,c,2.628000021,C,TRUE,,,,,,,27,chocolate,Spanish,Sounds/spa_chocolate.mp3,2020-06-05_12h50.32.569,TranslationElicitation_eng-prolific,3.2.4,Win32,60,5ebef0ede70ab7160edd7ba5,,1,0,98,24,1,97
,,,,,,,,,,,,,,,,,,,,,,,,,,,,,,,,,,,,,,,,,h,2.711999893,CH,TRUE,,,,,,,27,chocolate,Spanish,Sounds/spa_chocolate.mp3,2020-06-05_12h50.32.569,TranslationElicitation_eng-prolific,3.2.4,Win32,60,5ebef0ede70ab7160edd7ba5,,1,0,98,24,1,97
,,,,,,,,,,,,,,,,,,,,,,,,,,,,,,,,,,,,,,,,,o,2.945999861,CHO,TRUE,,,,,,,27,chocolate,Spanish,Sounds/spa_chocolate.mp3,2020-06-05_12h50.32.569,TranslationElicitation_eng-prolific,3.2.4,Win32,60,5ebef0ede70ab7160edd7ba5,,1,0,98,24,1,97
,,,,,,,,,,,,,,,,,,,,,,,,,,,,,,,,,,,,,,,,,c,3.095000029,CHOC,TRUE,,,,,,,27,chocolate,Spanish,Sounds/spa_chocolate.mp3,2020-06-05_12h50.32.569,TranslationElicitation_eng-prolific,3.2.4,Win32,60,5ebef0ede70ab7160edd7ba5,,1,0,98,24,1,97
,,,,,,,,,,,,,,,,,,,,,,,,,,,,,,,,,,,,,,,,,o,3.376999855,CHOCO,TRUE,,,,,,,27,chocolate,Spanish,Sounds/spa_chocolate.mp3,2020-06-05_12h50.32.569,TranslationElicitation_eng-prolific,3.2.4,Win32,60,5ebef0ede70ab7160edd7ba5,,1,0,98,24,1,97
,,,,,,,,,,,,,,,,,,,,,,,,,,,,,,,,,,,,,,,,,l,3.599999905,CHOCOL,TRUE,,,,,,,27,chocolate,Spanish,Sounds/spa_chocolate.mp3,2020-06-05_12h50.32.569,TranslationElicitation_eng-prolific,3.2.4,Win32,60,5ebef0ede70ab7160edd7ba5,,1,0,98,24,1,97
,,,,,,,,,,,,,,,,,,,,,,,,,,,,,,,,,,,,,,,,,a,3.697999954,CHOCOLA,TRUE,,,,,,,27,chocolate,Spanish,Sounds/spa_chocolate.mp3,2020-06-05_12h50.32.569,TranslationElicitation_eng-prolific,3.2.4,Win32,60,5ebef0ede70ab7160edd7ba5,,1,0,98,24,1,97
,,,,,,,,,,,,,,,,,,,,,,,,,,,,,,,,,,,,,,,,,t,3.888999939,CHOCOLAT,TRUE,,,,,,,27,chocolate,Spanish,Sounds/spa_chocolate.mp3,2020-06-05_12h50.32.569,TranslationElicitation_eng-prolific,3.2.4,Win32,60,5ebef0ede70ab7160edd7ba5,,1,0,98,24,1,97
,,,,,,,,,,,,,,,,,,,,,,,,,,,,,,,,,,,,,,,,,e,4.019999981,CHOCOLATE,TRUE,,,,,,,27,chocolate,Spanish,Sounds/spa_chocolate.mp3,2020-06-05_12h50.32.569,TranslationElicitation_eng-prolific,3.2.4,Win32,60,5ebef0ede70ab7160edd7ba5,,1,0,98,24,1,97
,,,,,,,,,,,,,,,,,,,,,,,,,,,,,,,,,,,,,,,,,return,4.351999998,CHOCOLATE,TRUE,,,,,,,27,chocolate,Spanish,Sounds/spa_chocolate.mp3,2020-06-05_12h50.32.569,TranslationElicitation_eng-prolific,3.2.4,Win32,60,5ebef0ede70ab7160edd7ba5,4.351999998,1,0,98,24,1,97
,,,,,,,,,,,,,,,,,,,,,,,,,,,,,,,,,,,,,,,,,,,,,,,,,,,27,chocolate,Spanish,Sounds/spa_chocolate.mp3,2020-06-05_12h50.32.569,TranslationElicitation_eng-prolific,3.2.4,Win32,60,5ebef0ede70ab7160edd7ba5,,1,0,98,24,1,97
,,,,,,,,,,,,,,,,,,,,,,,,,,,,,,,,,,,,,,,,,m,1.945999861,M,FALSE,,,,,,,58,luna,Spanish,Sounds/spa_luna.mp3,2020-06-05_12h50.32.569,TranslationElicitation_eng-prolific,3.2.4,Win32,60,5ebef0ede70ab7160edd7ba5,,1,0,98,54,1,97
,,,,,,,,,,,,,,,,,,,,,,,,,,,,,,,,,,,,,,,,,o,2.213000059,MO,FALSE,,,,,,,58,luna,Spanish,Sounds/spa_luna.mp3,2020-06-05_12h50.32.569,TranslationElicitation_eng-prolific,3.2.4,Win32,60,5ebef0ede70ab7160edd7ba5,,1,0,98,54,1,97
,,,,,,,,,,,,,,,,,,,,,,,,,,,,,,,,,,,,,,,,,o,2.328999996,MOO,FALSE,,,,,,,58,luna,Spanish,Sounds/spa_luna.mp3,2020-06-05_12h50.32.569,TranslationElicitation_eng-prolific,3.2.4,Win32,60,5ebef0ede70ab7160edd7ba5,,1,0,98,54,1,97
,,,,,,,,,,,,,,,,,,,,,,,,,,,,,,,,,,,,,,,,,n,2.523999929,MOON,FALSE,,,,,,,58,luna,Spanish,Sounds/spa_luna.mp3,2020-06-05_12h50.32.569,TranslationElicitation_eng-prolific,3.2.4,Win32,60,5ebef0ede70ab7160edd7ba5,,1,0,98,54,1,97
,,,,,,,,,,,,,,,,,,,,,,,,,,,,,,,,,,,,,,,,,return,2.852999926,MOON,FALSE,,,,,,,58,luna,Spanish,Sounds/spa_luna.mp3,2020-06-05_12h50.32.569,TranslationElicitation_eng-prolific,3.2.4,Win32,60,5ebef0ede70ab7160edd7ba5,2.852999926,1,0,98,54,1,97
,,,,,,,,,,,,,,,,,,,,,,,,,,,,,,,,,,,,,,,,,,,,,,,,,,,58,luna,Spanish,Sounds/spa_luna.mp3,2020-06-05_12h50.32.569,TranslationElicitation_eng-prolific,3.2.4,Win32,60,5ebef0ede70ab7160edd7ba5,,1,0,98,54,1,97
,,,,,,,,,,,,,,,,,,,,,,,,,,,,,,,,,,,,,,,,,l,1.945000172,L,FALSE,,,,,,,53,leche,Spanish,Sounds/spa_leche.mp3,2020-06-05_12h50.32.569,TranslationElicitation_eng-prolific,3.2.4,Win32,60,5ebef0ede70ab7160edd7ba5,,1,0,98,49,1,97
,,,,,,,,,,,,,,,,,,,,,,,,,,,,,,,,,,,,,,,,,e,2.062000036,LE,FALSE,,,,,,,53,leche,Spanish,Sounds/spa_leche.mp3,2020-06-05_12h50.32.569,TranslationElicitation_eng-prolific,3.2.4,Win32,60,5ebef0ede70ab7160edd7ba5,,1,0,98,49,1,97
,,,,,,,,,,,,,,,,,,,,,,,,,,,,,,,,,,,,,,,,,t,2.294000149,LET,FALSE,,,,,,,53,leche,Spanish,Sounds/spa_leche.mp3,2020-06-05_12h50.32.569,TranslationElicitation_eng-prolific,3.2.4,Win32,60,5ebef0ede70ab7160edd7ba5,,1,0,98,49,1,97
,,,,,,,,,,,,,,,,,,,,,,,,,,,,,,,,,,,,,,,,,t,2.462000132,LETT,FALSE,,,,,,,53,leche,Spanish,Sounds/spa_leche.mp3,2020-06-05_12h50.32.569,TranslationElicitation_eng-prolific,3.2.4,Win32,60,5ebef0ede70ab7160edd7ba5,,1,0,98,49,1,97
,,,,,,,,,,,,,,,,,,,,,,,,,,,,,,,,,,,,,,,,,u,2.648000002,LETTU,FALSE,,,,,,,53,leche,Spanish,Sounds/spa_leche.mp3,2020-06-05_12h50.32.569,TranslationElicitation_eng-prolific,3.2.4,Win32,60,5ebef0ede70ab7160edd7ba5,,1,0,98,49,1,97
,,,,,,,,,,,,,,,,,,,,,,,,,,,,,,,,,,,,,,,,,c,2.745000124,LETTUC,FALSE,,,,,,,53,leche,Spanish,Sounds/spa_leche.mp3,2020-06-05_12h50.32.569,TranslationElicitation_eng-prolific,3.2.4,Win32,60,5ebef0ede70ab7160edd7ba5,,1,0,98,49,1,97
,,,,,,,,,,,,,,,,,,,,,,,,,,,,,,,,,,,,,,,,,e,2.923000097,LETTUCE,FALSE,,,,,,,53,leche,Spanish,Sounds/spa_leche.mp3,2020-06-05_12h50.32.569,TranslationElicitation_eng-prolific,3.2.4,Win32,60,5ebef0ede70ab7160edd7ba5,,1,0,98,49,1,97
,,,,,,,,,,,,,,,,,,,,,,,,,,,,,,,,,,,,,,,,,return,3.055999994,LETTUCE,FALSE,,,,,,,53,leche,Spanish,Sounds/spa_leche.mp3,2020-06-05_12h50.32.569,TranslationElicitation_eng-prolific,3.2.4,Win32,60,5ebef0ede70ab7160edd7ba5,3.055999994,1,0,98,49,1,97
,,,,,,,,,,,,,,,,,,,,,,,,,,,,,,,,,,,,,,,,,,,,,,,,,,,53,leche,Spanish,Sounds/spa_leche.mp3,2020-06-05_12h50.32.569,TranslationElicitation_eng-prolific,3.2.4,Win32,60,5ebef0ede70ab7160edd7ba5,,1,0,98,49,1,97
,,,,,,,,,,,,,,,,,,,,,,,,,,,,,,,,,,,,,,,,,b,3.243000031,B,FALSE,,,,,,,85,pierna,Spanish,Sounds/spa_pierna.mp3,2020-06-05_12h50.32.569,TranslationElicitation_eng-prolific,3.2.4,Win32,60,5ebef0ede70ab7160edd7ba5,,1,0,98,80,1,97
,,,,,,,,,,,,,,,,,,,,,,,,,,,,,,,,,,,,,,,,,a,3.392999887,BA,FALSE,,,,,,,85,pierna,Spanish,Sounds/spa_pierna.mp3,2020-06-05_12h50.32.569,TranslationElicitation_eng-prolific,3.2.4,Win32,60,5ebef0ede70ab7160edd7ba5,,1,0,98,80,1,97
,,,,,,,,,,,,,,,,,,,,,,,,,,,,,,,,,,,,,,,,,l,3.527999878,BAL,FALSE,,,,,,,85,pierna,Spanish,Sounds/spa_pierna.mp3,2020-06-05_12h50.32.569,TranslationElicitation_eng-prolific,3.2.4,Win32,60,5ebef0ede70ab7160edd7ba5,,1,0,98,80,1,97
,,,,,,,,,,,,,,,,,,,,,,,,,,,,,,,,,,,,,,,,,c,3.651000023,BALC,FALSE,,,,,,,85,pierna,Spanish,Sounds/spa_pierna.mp3,2020-06-05_12h50.32.569,TranslationElicitation_eng-prolific,3.2.4,Win32,60,5ebef0ede70ab7160edd7ba5,,1,0,98,80,1,97
,,,,,,,,,,,,,,,,,,,,,,,,,,,,,,,,,,,,,,,,,o,3.809999943,BALCO,FALSE,,,,,,,85,pierna,Spanish,Sounds/spa_pierna.mp3,2020-06-05_12h50.32.569,TranslationElicitation_eng-prolific,3.2.4,Win32,60,5ebef0ede70ab7160edd7ba5,,1,0,98,80,1,97
,,,,,,,,,,,,,,,,,,,,,,,,,,,,,,,,,,,,,,,,,n,4.026000023,BALCON,FALSE,,,,,,,85,pierna,Spanish,Sounds/spa_pierna.mp3,2020-06-05_12h50.32.569,TranslationElicitation_eng-prolific,3.2.4,Win32,60,5ebef0ede70ab7160edd7ba5,,1,0,98,80,1,97
,,,,,,,,,,,,,,,,,,,,,,,,,,,,,,,,,,,,,,,,,y,4.17599988,BALCONY,FALSE,,,,,,,85,pierna,Spanish,Sounds/spa_pierna.mp3,2020-06-05_12h50.32.569,TranslationElicitation_eng-prolific,3.2.4,Win32,60,5ebef0ede70ab7160edd7ba5,,1,0,98,80,1,97
,,,,,,,,,,,,,,,,,,,,,,,,,,,,,,,,,,,,,,,,,return,4.440999985,BALCONY,FALSE,,,,,,,85,pierna,Spanish,Sounds/spa_pierna.mp3,2020-06-05_12h50.32.569,TranslationElicitation_eng-prolific,3.2.4,Win32,60,5ebef0ede70ab7160edd7ba5,4.440999985,1,0,98,80,1,97
,,,,,,,,,,,,,,,,,,,,,,,,,,,,,,,,,,,,,,,,,,,,,,,,,,,85,pierna,Spanish,Sounds/spa_pierna.mp3,2020-06-05_12h50.32.569,TranslationElicitation_eng-prolific,3.2.4,Win32,60,5ebef0ede70ab7160edd7ba5,,1,0,98,80,1,97
,,,,,,,,,,,,,,,,,,,,,,,,,,,,,,,,,,,,,,,,,e,1.462999821,E,FALSE,,,,,,,5,bici,Spanish,Sounds/spa_bici.mp3,2020-06-05_12h50.32.569,TranslationElicitation_eng-prolific,3.2.4,Win32,60,5ebef0ede70ab7160edd7ba5,,1,0,98,3,1,97
,,,,,,,,,,,,,,,,,,,,,,,,,,,,,,,,,,,,,,,,,a,1.671000004,EA,FALSE,,,,,,,5,bici,Spanish,Sounds/spa_bici.mp3,2020-06-05_12h50.32.569,TranslationElicitation_eng-prolific,3.2.4,Win32,60,5ebef0ede70ab7160edd7ba5,,1,0,98,3,1,97
,,,,,,,,,,,,,,,,,,,,,,,,,,,,,,,,,,,,,,,,,c,1.894999981,EAC,FALSE,,,,,,,5,bici,Spanish,Sounds/spa_bici.mp3,2020-06-05_12h50.32.569,TranslationElicitation_eng-prolific,3.2.4,Win32,60,5ebef0ede70ab7160edd7ba5,,1,0,98,3,1,97
,,,,,,,,,,,,,,,,,,,,,,,,,,,,,,,,,,,,,,,,,backspace,2.378999949,EA,TRUE,,,,,,,5,bici,Spanish,Sounds/spa_bici.mp3,2020-06-05_12h50.32.569,TranslationElicitation_eng-prolific,3.2.4,Win32,60,5ebef0ede70ab7160edd7ba5,,1,0,98,3,1,97
,,,,,,,,,,,,,,,,,,,,,,,,,,,,,,,,,,,,,,,,,backspace,2.494999886,E,TRUE,,,,,,,5,bici,Spanish,Sounds/spa_bici.mp3,2020-06-05_12h50.32.569,TranslationElicitation_eng-prolific,3.2.4,Win32,60,5ebef0ede70ab7160edd7ba5,,1,0,98,3,1,97
,,,,,,,,,,,,,,,,,,,,,,,,,,,,,,,,,,,,,,,,,backspace,2.628999949,,TRUE,,,,,,,5,bici,Spanish,Sounds/spa_bici.mp3,2020-06-05_12h50.32.569,TranslationElicitation_eng-prolific,3.2.4,Win32,60,5ebef0ede70ab7160edd7ba5,,1,0,98,3,1,97
,,,,,,,,,,,,,,,,,,,,,,,,,,,,,,,,,,,,,,,,,b,3.210000038,B,TRUE,,,,,,,5,bici,Spanish,Sounds/spa_bici.mp3,2020-06-05_12h50.32.569,TranslationElicitation_eng-prolific,3.2.4,Win32,60,5ebef0ede70ab7160edd7ba5,,1,0,98,3,1,97
,,,,,,,,,,,,,,,,,,,,,,,,,,,,,,,,,,,,,,,,,e,3.576999903,BE,TRUE,,,,,,,5,bici,Spanish,Sounds/spa_bici.mp3,2020-06-05_12h50.32.569,TranslationElicitation_eng-prolific,3.2.4,Win32,60,5ebef0ede70ab7160edd7ba5,,1,0,98,3,1,97
,,,,,,,,,,,,,,,,,,,,,,,,,,,,,,,,,,,,,,,,,a,3.796000004,BEA,TRUE,,,,,,,5,bici,Spanish,Sounds/spa_bici.mp3,2020-06-05_12h50.32.569,TranslationElicitation_eng-prolific,3.2.4,Win32,60,5ebef0ede70ab7160edd7ba5,,1,0,98,3,1,97
,,,,,,,,,,,,,,,,,,,,,,,,,,,,,,,,,,,,,,,,,c,4.029999971,BEAC,TRUE,,,,,,,5,bici,Spanish,Sounds/spa_bici.mp3,2020-06-05_12h50.32.569,TranslationElicitation_eng-prolific,3.2.4,Win32,60,5ebef0ede70ab7160edd7ba5,,1,0,98,3,1,97
,,,,,,,,,,,,,,,,,,,,,,,,,,,,,,,,,,,,,,,,,h,4.10800004,BEACH,TRUE,,,,,,,5,bici,Spanish,Sounds/spa_bici.mp3,2020-06-05_12h50.32.569,TranslationElicitation_eng-prolific,3.2.4,Win32,60,5ebef0ede70ab7160edd7ba5,,1,0,98,3,1,97
,,,,,,,,,,,,,,,,,,,,,,,,,,,,,,,,,,,,,,,,,return,4.724999905,BEACH,TRUE,,,,,,,5,bici,Spanish,Sounds/spa_bici.mp3,2020-06-05_12h50.32.569,TranslationElicitation_eng-prolific,3.2.4,Win32,60,5ebef0ede70ab7160edd7ba5,4.724999905,1,0,98,3,1,97
,,,,,,,,,,,,,,,,,,,,,,,,,,,,,,,,,,,,,,,,,,,,,,,,,,,5,bici,Spanish,Sounds/spa_bici.mp3,2020-06-05_12h50.32.569,TranslationElicitation_eng-prolific,3.2.4,Win32,60,5ebef0ede70ab7160edd7ba5,,1,0,98,3,1,97
,,,,,,,,,,,,,,,,,,,,,,,,,,,,,,,,,,,,,,,,,b,2.062999964,B,FALSE,,,,,,,9,boli,Spanish,Sounds/spa_boli.mp3,2020-06-05_12h50.32.569,TranslationElicitation_eng-prolific,3.2.4,Win32,60,5ebef0ede70ab7160edd7ba5,,1,0,98,7,1,97
,,,,,,,,,,,,,,,,,,,,,,,,,,,,,,,,,,,,,,,,,a,2.395999908,BA,FALSE,,,,,,,9,boli,Spanish,Sounds/spa_boli.mp3,2020-06-05_12h50.32.569,TranslationElicitation_eng-prolific,3.2.4,Win32,60,5ebef0ede70ab7160edd7ba5,,1,0,98,7,1,97
,,,,,,,,,,,,,,,,,,,,,,,,,,,,,,,,,,,,,,,,,l,2.529999971,BAL,FALSE,,,,,,,9,boli,Spanish,Sounds/spa_boli.mp3,2020-06-05_12h50.32.569,TranslationElicitation_eng-prolific,3.2.4,Win32,60,5ebef0ede70ab7160edd7ba5,,1,0,98,7,1,97
,,,,,,,,,,,,,,,,,,,,,,,,,,,,,,,,,,,,,,,,,l,2.678999901,BALL,FALSE,,,,,,,9,boli,Spanish,Sounds/spa_boli.mp3,2020-06-05_12h50.32.569,TranslationElicitation_eng-prolific,3.2.4,Win32,60,5ebef0ede70ab7160edd7ba5,,1,0,98,7,1,97
,,,,,,,,,,,,,,,,,,,,,,,,,,,,,,,,,,,,,,,,,return,3.037999868,BALL,FALSE,,,,,,,9,boli,Spanish,Sounds/spa_boli.mp3,2020-06-05_12h50.32.569,TranslationElicitation_eng-prolific,3.2.4,Win32,60,5ebef0ede70ab7160edd7ba5,3.037999868,1,0,98,7,1,97
,,,,,,,,,,,,,,,,,,,,,,,,,,,,,,,,,,,,,,,,,,,,,,,,,,,9,boli,Spanish,Sounds/spa_boli.mp3,2020-06-05_12h50.32.569,TranslationElicitation_eng-prolific,3.2.4,Win32,60,5ebef0ede70ab7160edd7ba5,,1,0,98,7,1,97
,,,,,,,,,,,,,,,,,,,,,,,,,,,,,,,,,,,,,,,,,o,1.413000107,O,FALSE,,,,,,,99,tomate,Spanish,Sounds/spa_tomate.mp3,2020-06-05_12h50.32.569,TranslationElicitation_eng-prolific,3.2.4,Win32,60,5ebef0ede70ab7160edd7ba5,,1,0,98,93,1,97
,,,,,,,,,,,,,,,,,,,,,,,,,,,,,,,,,,,,,,,,,m,1.680000067,OM,FALSE,,,,,,,99,tomate,Spanish,Sounds/spa_tomate.mp3,2020-06-05_12h50.32.569,TranslationElicitation_eng-prolific,3.2.4,Win32,60,5ebef0ede70ab7160edd7ba5,,1,0,98,93,1,97
,,,,,,,,,,,,,,,,,,,,,,,,,,,,,,,,,,,,,,,,,a,1.85800004,OMA,FALSE,,,,,,,99,tomate,Spanish,Sounds/spa_tomate.mp3,2020-06-05_12h50.32.569,TranslationElicitation_eng-prolific,3.2.4,Win32,60,5ebef0ede70ab7160edd7ba5,,1,0,98,93,1,97
,,,,,,,,,,,,,,,,,,,,,,,,,,,,,,,,,,,,,,,,,t,2.019000053,OMAT,FALSE,,,,,,,99,tomate,Spanish,Sounds/spa_tomate.mp3,2020-06-05_12h50.32.569,TranslationElicitation_eng-prolific,3.2.4,Win32,60,5ebef0ede70ab7160edd7ba5,,1,0,98,93,1,97
,,,,,,,,,,,,,,,,,,,,,,,,,,,,,,,,,,,,,,,,,backspace,2.477999926,OMA,TRUE,,,,,,,99,tomate,Spanish,Sounds/spa_tomate.mp3,2020-06-05_12h50.32.569,TranslationElicitation_eng-prolific,3.2.4,Win32,60,5ebef0ede70ab7160edd7ba5,,1,0,98,93,1,97
,,,,,,,,,,,,,,,,,,,,,,,,,,,,,,,,,,,,,,,,,backspace,2.625,OM,TRUE,,,,,,,99,tomate,Spanish,Sounds/spa_tomate.mp3,2020-06-05_12h50.32.569,TranslationElicitation_eng-prolific,3.2.4,Win32,60,5ebef0ede70ab7160edd7ba5,,1,0,98,93,1,97
,,,,,,,,,,,,,,,,,,,,,,,,,,,,,,,,,,,,,,,,,backspace,2.749000072,O,TRUE,,,,,,,99,tomate,Spanish,Sounds/spa_tomate.mp3,2020-06-05_12h50.32.569,TranslationElicitation_eng-prolific,3.2.4,Win32,60,5ebef0ede70ab7160edd7ba5,,1,0,98,93,1,97
,,,,,,,,,,,,,,,,,,,,,,,,,,,,,,,,,,,,,,,,,backspace,2.878999949,,TRUE,,,,,,,99,tomate,Spanish,Sounds/spa_tomate.mp3,2020-06-05_12h50.32.569,TranslationElicitation_eng-prolific,3.2.4,Win32,60,5ebef0ede70ab7160edd7ba5,,1,0,98,93,1,97
,,,,,,,,,,,,,,,,,,,,,,,,,,,,,,,,,,,,,,,,,t,3.29399991,T,TRUE,,,,,,,99,tomate,Spanish,Sounds/spa_tomate.mp3,2020-06-05_12h50.32.569,TranslationElicitation_eng-prolific,3.2.4,Win32,60,5ebef0ede70ab7160edd7ba5,,1,0,98,93,1,97
,,,,,,,,,,,,,,,,,,,,,,,,,,,,,,,,,,,,,,,,,o,3.460000038,TO,TRUE,,,,,,,99,tomate,Spanish,Sounds/spa_tomate.mp3,2020-06-05_12h50.32.569,TranslationElicitation_eng-prolific,3.2.4,Win32,60,5ebef0ede70ab7160edd7ba5,,1,0,98,93,1,97
,,,,,,,,,,,,,,,,,,,,,,,,,,,,,,,,,,,,,,,,,m,3.660000086,TOM,TRUE,,,,,,,99,tomate,Spanish,Sounds/spa_tomate.mp3,2020-06-05_12h50.32.569,TranslationElicitation_eng-prolific,3.2.4,Win32,60,5ebef0ede70ab7160edd7ba5,,1,0,98,93,1,97
,,,,,,,,,,,,,,,,,,,,,,,,,,,,,,,,,,,,,,,,,a,3.84100008,TOMA,TRUE,,,,,,,99,tomate,Spanish,Sounds/spa_tomate.mp3,2020-06-05_12h50.32.569,TranslationElicitation_eng-prolific,3.2.4,Win32,60,5ebef0ede70ab7160edd7ba5,,1,0,98,93,1,97
,,,,,,,,,,,,,,,,,,,,,,,,,,,,,,,,,,,,,,,,,t,3.992000103,TOMAT,TRUE,,,,,,,99,tomate,Spanish,Sounds/spa_tomate.mp3,2020-06-05_12h50.32.569,TranslationElicitation_eng-prolific,3.2.4,Win32,60,5ebef0ede70ab7160edd7ba5,,1,0,98,93,1,97
,,,,,,,,,,,,,,,,,,,,,,,,,,,,,,,,,,,,,,,,,o,4.342999935,TOMATO,TRUE,,,,,,,99,tomate,Spanish,Sounds/spa_tomate.mp3,2020-06-05_12h50.32.569,TranslationElicitation_eng-prolific,3.2.4,Win32,60,5ebef0ede70ab7160edd7ba5,,1,0,98,93,1,97
,,,,,,,,,,,,,,,,,,,,,,,,,,,,,,,,,,,,,,,,,return,4.990999937,TOMATO,TRUE,,,,,,,99,tomate,Spanish,Sounds/spa_tomate.mp3,2020-06-05_12h50.32.569,TranslationElicitation_eng-prolific,3.2.4,Win32,60,5ebef0ede70ab7160edd7ba5,4.990999937,1,0,98,93,1,97
,,,,,,,,,,,,,,,,,,,,,,,,,,,,,,,,,,,,,,,,,,,,,,,,,,,99,tomate,Spanish,Sounds/spa_tomate.mp3,2020-06-05_12h50.32.569,TranslationElicitation_eng-prolific,3.2.4,Win32,60,5ebef0ede70ab7160edd7ba5,,1,0,98,93,1,97
,,,,,,,,,,,,,,,,,,,,,,,,,,,,,,,,,,,,,,,,,d,2.312000036,D,FALSE,,,,,,,83,pez,Spanish,Sounds/spa_pez.mp3,2020-06-05_12h50.32.569,TranslationElicitation_eng-prolific,3.2.4,Win32,60,5ebef0ede70ab7160edd7ba5,,1,0,98,78,1,97
,,,,,,,,,,,,,,,,,,,,,,,,,,,,,,,,,,,,,,,,,e,2.497999907,DE,FALSE,,,,,,,83,pez,Spanish,Sounds/spa_pez.mp3,2020-06-05_12h50.32.569,TranslationElicitation_eng-prolific,3.2.4,Win32,60,5ebef0ede70ab7160edd7ba5,,1,0,98,78,1,97
,,,,,,,,,,,,,,,,,,,,,,,,,,,,,,,,,,,,,,,,,n,2.994999886,DEN,FALSE,,,,,,,83,pez,Spanish,Sounds/spa_pez.mp3,2020-06-05_12h50.32.569,TranslationElicitation_eng-prolific,3.2.4,Win32,60,5ebef0ede70ab7160edd7ba5,,1,0,98,78,1,97
,,,,,,,,,,,,,,,,,,,,,,,,,,,,,,,,,,,,,,,,,return,3.559999943,DEN,FALSE,,,,,,,83,pez,Spanish,Sounds/spa_pez.mp3,2020-06-05_12h50.32.569,TranslationElicitation_eng-prolific,3.2.4,Win32,60,5ebef0ede70ab7160edd7ba5,3.559999943,1,0,98,78,1,97
,,,,,,,,,,,,,,,,,,,,,,,,,,,,,,,,,,,,,,,,,,,,,,,,,,,83,pez,Spanish,Sounds/spa_pez.mp3,2020-06-05_12h50.32.569,TranslationElicitation_eng-prolific,3.2.4,Win32,60,5ebef0ede70ab7160edd7ba5,,1,0,98,78,1,97
,,,,,,,,,,,,,,,,,,,,,,,,,,,,,,,,,,,,,,,,,r,2.828999996,R,FALSE,,,,,,,101,tren,Spanish,Sounds/spa_tren.mp3,2020-06-05_12h50.32.569,TranslationElicitation_eng-prolific,3.2.4,Win32,60,5ebef0ede70ab7160edd7ba5,,1,0,98,95,1,97
,,,,,,,,,,,,,,,,,,,,,,,,,,,,,,,,,,,,,,,,,e,3.011000156,RE,FALSE,,,,,,,101,tren,Spanish,Sounds/spa_tren.mp3,2020-06-05_12h50.32.569,TranslationElicitation_eng-prolific,3.2.4,Win32,60,5ebef0ede70ab7160edd7ba5,,1,0,98,95,1,97
,,,,,,,,,,,,,,,,,,,,,,,,,,,,,,,,,,,,,,,,,n,3.419000149,REN,FALSE,,,,,,,101,tren,Spanish,Sounds/spa_tren.mp3,2020-06-05_12h50.32.569,TranslationElicitation_eng-prolific,3.2.4,Win32,60,5ebef0ede70ab7160edd7ba5,,1,0,98,95,1,97
,,,,,,,,,,,,,,,,,,,,,,,,,,,,,,,,,,,,,,,,,return,3.775000095,REN,FALSE,,,,,,,101,tren,Spanish,Sounds/spa_tren.mp3,2020-06-05_12h50.32.569,TranslationElicitation_eng-prolific,3.2.4,Win32,60,5ebef0ede70ab7160edd7ba5,3.775000095,1,0,98,95,1,97
,,,,,,,,,,,,,,,,,,,,,,,,,,,,,,,,,,,,,,,,,,,,,,,,,,,101,tren,Spanish,Sounds/spa_tren.mp3,2020-06-05_12h50.32.569,TranslationElicitation_eng-prolific,3.2.4,Win32,60,5ebef0ede70ab7160edd7ba5,,1,0,98,95,1,97
,,,,,,,,,,,,,,,,,,,,,,,,,,,,,,,,,,,,,,,,,d,2.544999838,D,FALSE,,,,,,,88,plato,Spanish,Sounds/spa_plato.mp3,2020-06-05_12h50.32.569,TranslationElicitation_eng-prolific,3.2.4,Win32,60,5ebef0ede70ab7160edd7ba5,,1,0,98,83,1,97
,,,,,,,,,,,,,,,,,,,,,,,,,,,,,,,,,,,,,,,,,o,2.677999973,DO,FALSE,,,,,,,88,plato,Spanish,Sounds/spa_plato.mp3,2020-06-05_12h50.32.569,TranslationElicitation_eng-prolific,3.2.4,Win32,60,5ebef0ede70ab7160edd7ba5,,1,0,98,83,1,97
,,,,,,,,,,,,,,,,,,,,,,,,,,,,,,,,,,,,,,,,,o,2.790999889,DOO,FALSE,,,,,,,88,plato,Spanish,Sounds/spa_plato.mp3,2020-06-05_12h50.32.569,TranslationElicitation_eng-prolific,3.2.4,Win32,60,5ebef0ede70ab7160edd7ba5,,1,0,98,83,1,97
,,,,,,,,,,,,,,,,,,,,,,,,,,,,,,,,,,,,,,,,,r,2.902999878,DOOR,FALSE,,,,,,,88,plato,Spanish,Sounds/spa_plato.mp3,2020-06-05_12h50.32.569,TranslationElicitation_eng-prolific,3.2.4,Win32,60,5ebef0ede70ab7160edd7ba5,,1,0,98,83,1,97
,,,,,,,,,,,,,,,,,,,,,,,,,,,,,,,,,,,,,,,,,return,3.093999863,DOOR,FALSE,,,,,,,88,plato,Spanish,Sounds/spa_plato.mp3,2020-06-05_12h50.32.569,TranslationElicitation_eng-prolific,3.2.4,Win32,60,5ebef0ede70ab7160edd7ba5,3.093999863,1,0,98,83,1,97
,,,,,,,,,,,,,,,,,,,,,,,,,,,,,,,,,,,,,,,,,,,,,,,,,,,88,plato,Spanish,Sounds/spa_plato.mp3,2020-06-05_12h50.32.569,TranslationElicitation_eng-prolific,3.2.4,Win32,60,5ebef0ede70ab7160edd7ba5,,1,0,98,83,1,97
,,,,,,,,,,,,,,,,,,,,,,,,,,,,,,,,,,,,,,,,,c,2.695000172,C,FALSE,,,,,,,49,hormiga,Spanish,Sounds/spa_hormiga.mp3,2020-06-05_12h50.32.569,TranslationElicitation_eng-prolific,3.2.4,Win32,60,5ebef0ede70ab7160edd7ba5,,1,0,98,45,1,97
,,,,,,,,,,,,,,,,,,,,,,,,,,,,,,,,,,,,,,,,,h,2.845000029,CH,FALSE,,,,,,,49,hormiga,Spanish,Sounds/spa_hormiga.mp3,2020-06-05_12h50.32.569,TranslationElicitation_eng-prolific,3.2.4,Win32,60,5ebef0ede70ab7160edd7ba5,,1,0,98,45,1,97
,,,,,,,,,,,,,,,,,,,,,,,,,,,,,,,,,,,,,,,,,e,2.994000196,CHE,FALSE,,,,,,,49,hormiga,Spanish,Sounds/spa_hormiga.mp3,2020-06-05_12h50.32.569,TranslationElicitation_eng-prolific,3.2.4,Win32,60,5ebef0ede70ab7160edd7ba5,,1,0,98,45,1,97
,,,,,,,,,,,,,,,,,,,,,,,,,,,,,,,,,,,,,,,,,e,3.170000076,CHEE,FALSE,,,,,,,49,hormiga,Spanish,Sounds/spa_hormiga.mp3,2020-06-05_12h50.32.569,TranslationElicitation_eng-prolific,3.2.4,Win32,60,5ebef0ede70ab7160edd7ba5,,1,0,98,45,1,97
,,,,,,,,,,,,,,,,,,,,,,,,,,,,,,,,,,,,,,,,,s,3.327000141,CHEES,FALSE,,,,,,,49,hormiga,Spanish,Sounds/spa_hormiga.mp3,2020-06-05_12h50.32.569,TranslationElicitation_eng-prolific,3.2.4,Win32,60,5ebef0ede70ab7160edd7ba5,,1,0,98,45,1,97
,,,,,,,,,,,,,,,,,,,,,,,,,,,,,,,,,,,,,,,,,e,3.509000063,CHEESE,FALSE,,,,,,,49,hormiga,Spanish,Sounds/spa_hormiga.mp3,2020-06-05_12h50.32.569,TranslationElicitation_eng-prolific,3.2.4,Win32,60,5ebef0ede70ab7160edd7ba5,,1,0,98,45,1,97
,,,,,,,,,,,,,,,,,,,,,,,,,,,,,,,,,,,,,,,,,return,3.630000114,CHEESE,FALSE,,,,,,,49,hormiga,Spanish,Sounds/spa_hormiga.mp3,2020-06-05_12h50.32.569,TranslationElicitation_eng-prolific,3.2.4,Win32,60,5ebef0ede70ab7160edd7ba5,3.630000114,1,0,98,45,1,97
,,,,,,,,,,,,,,,,,,,,,,,,,,,,,,,,,,,,,,,,,,,,,,,,,,,49,hormiga,Spanish,Sounds/spa_hormiga.mp3,2020-06-05_12h50.32.569,TranslationElicitation_eng-prolific,3.2.4,Win32,60,5ebef0ede70ab7160edd7ba5,,1,0,98,45,1,97
,,,,,,,,,,,,,,,,,,,,,,,,,,,,,,,,,,,,,,,,,p,1.664000034,P,FALSE,,,,,,,86,pingino,Spanish,Sounds/spa_pinguino.mp3,2020-06-05_12h50.32.569,TranslationElicitation_eng-prolific,3.2.4,Win32,60,5ebef0ede70ab7160edd7ba5,,1,0,98,81,1,97
,,,,,,,,,,,,,,,,,,,,,,,,,,,,,,,,,,,,,,,,,i,1.898000002,PI,FALSE,,,,,,,86,pingino,Spanish,Sounds/spa_pinguino.mp3,2020-06-05_12h50.32.569,TranslationElicitation_eng-prolific,3.2.4,Win32,60,5ebef0ede70ab7160edd7ba5,,1,0,98,81,1,97
,,,,,,,,,,,,,,,,,,,,,,,,,,,,,,,,,,,,,,,,,z,2.179000139,PIZ,FALSE,,,,,,,86,pingino,Spanish,Sounds/spa_pinguino.mp3,2020-06-05_12h50.32.569,TranslationElicitation_eng-prolific,3.2.4,Win32,60,5ebef0ede70ab7160edd7ba5,,1,0,98,81,1,97
,,,,,,,,,,,,,,,,,,,,,,,,,,,,,,,,,,,,,,,,,z,2.328000069,PIZZ,FALSE,,,,,,,86,pingino,Spanish,Sounds/spa_pinguino.mp3,2020-06-05_12h50.32.569,TranslationElicitation_eng-prolific,3.2.4,Win32,60,5ebef0ede70ab7160edd7ba5,,1,0,98,81,1,97
,,,,,,,,,,,,,,,,,,,,,,,,,,,,,,,,,,,,,,,,,a,2.567000151,PIZZA,FALSE,,,,,,,86,pingino,Spanish,Sounds/spa_pinguino.mp3,2020-06-05_12h50.32.569,TranslationElicitation_eng-prolific,3.2.4,Win32,60,5ebef0ede70ab7160edd7ba5,,1,0,98,81,1,97
,,,,,,,,,,,,,,,,,,,,,,,,,,,,,,,,,,,,,,,,,return,2.728000164,PIZZA,FALSE,,,,,,,86,pingino,Spanish,Sounds/spa_pinguino.mp3,2020-06-05_12h50.32.569,TranslationElicitation_eng-prolific,3.2.4,Win32,60,5ebef0ede70ab7160edd7ba5,2.728000164,1,0,98,81,1,97
,,,,,,,,,,,,,,,,,,,,,,,,,,,,,,,,,,,,,,,,,,,,,,,,,,,86,pingino,Spanish,Sounds/spa_pinguino.mp3,2020-06-05_12h50.32.569,TranslationElicitation_eng-prolific,3.2.4,Win32,60,5ebef0ede70ab7160edd7ba5,,1,0,98,81,1,97
,,,,,,,,,,,,,,,,,,,,,,,,,,,,,,,,,,,,,,,,,b,2.03000021,B,FALSE,,,,,,,11,boton,Spanish,Sounds/spa_boton.mp3,2020-06-05_12h50.32.569,TranslationElicitation_eng-prolific,3.2.4,Win32,60,5ebef0ede70ab7160edd7ba5,,1,0,98,9,1,97
,,,,,,,,,,,,,,,,,,,,,,,,,,,,,,,,,,,,,,,,,a,2.114000082,BA,FALSE,,,,,,,11,boton,Spanish,Sounds/spa_boton.mp3,2020-06-05_12h50.32.569,TranslationElicitation_eng-prolific,3.2.4,Win32,60,5ebef0ede70ab7160edd7ba5,,1,0,98,9,1,97
,,,,,,,,,,,,,,,,,,,,,,,,,,,,,,,,,,,,,,,,,t,2.447000027,BAT,FALSE,,,,,,,11,boton,Spanish,Sounds/spa_boton.mp3,2020-06-05_12h50.32.569,TranslationElicitation_eng-prolific,3.2.4,Win32,60,5ebef0ede70ab7160edd7ba5,,1,0,98,9,1,97
,,,,,,,,,,,,,,,,,,,,,,,,,,,,,,,,,,,,,,,,,n,2.661000013,BATN,FALSE,,,,,,,11,boton,Spanish,Sounds/spa_boton.mp3,2020-06-05_12h50.32.569,TranslationElicitation_eng-prolific,3.2.4,Win32,60,5ebef0ede70ab7160edd7ba5,,1,0,98,9,1,97
,,,,,,,,,,,,,,,,,,,,,,,,,,,,,,,,,,,,,,,,,t,3.827000141,BATNT,FALSE,,,,,,,11,boton,Spanish,Sounds/spa_boton.mp3,2020-06-05_12h50.32.569,TranslationElicitation_eng-prolific,3.2.4,Win32,60,5ebef0ede70ab7160edd7ba5,,1,0,98,9,1,97
,,,,,,,,,,,,,,,,,,,,,,,,,,,,,,,,,,,,,,,,,backspace,4.389000177,BATN,TRUE,,,,,,,11,boton,Spanish,Sounds/spa_boton.mp3,2020-06-05_12h50.32.569,TranslationElicitation_eng-prolific,3.2.4,Win32,60,5ebef0ede70ab7160edd7ba5,,1,0,98,9,1,97
,,,,,,,,,,,,,,,,,,,,,,,,,,,,,,,,,,,,,,,,,backspace,4.558000088,BAT,TRUE,,,,,,,11,boton,Spanish,Sounds/spa_boton.mp3,2020-06-05_12h50.32.569,TranslationElicitation_eng-prolific,3.2.4,Win32,60,5ebef0ede70ab7160edd7ba5,,1,0,98,9,1,97
,,,,,,,,,,,,,,,,,,,,,,,,,,,,,,,,,,,,,,,,,o,5.125,BATO,TRUE,,,,,,,11,boton,Spanish,Sounds/spa_boton.mp3,2020-06-05_12h50.32.569,TranslationElicitation_eng-prolific,3.2.4,Win32,60,5ebef0ede70ab7160edd7ba5,,1,0,98,9,1,97
,,,,,,,,,,,,,,,,,,,,,,,,,,,,,,,,,,,,,,,,,n,5.391000032,BATON,TRUE,,,,,,,11,boton,Spanish,Sounds/spa_boton.mp3,2020-06-05_12h50.32.569,TranslationElicitation_eng-prolific,3.2.4,Win32,60,5ebef0ede70ab7160edd7ba5,,1,0,98,9,1,97
,,,,,,,,,,,,,,,,,,,,,,,,,,,,,,,,,,,,,,,,,return,5.738000154,BATON,TRUE,,,,,,,11,boton,Spanish,Sounds/spa_boton.mp3,2020-06-05_12h50.32.569,TranslationElicitation_eng-prolific,3.2.4,Win32,60,5ebef0ede70ab7160edd7ba5,5.738000154,1,0,98,9,1,97
,,,,,,,,,,,,,,,,,,,,,,,,,,,,,,,,,,,,,,,,,,,,,,,,,,,11,boton,Spanish,Sounds/spa_boton.mp3,2020-06-05_12h50.32.569,TranslationElicitation_eng-prolific,3.2.4,Win32,60,5ebef0ede70ab7160edd7ba5,,1,0,98,9,1,97
,,,,,,,,,,,,,,,,,,,,,,,,,,,,,,,,,,,,,,,,,l,1.580000162,L,FALSE,,,,,,,54,lengua,Spanish,Sounds/spa_lengua.mp3,2020-06-05_12h50.32.569,TranslationElicitation_eng-prolific,3.2.4,Win32,60,5ebef0ede70ab7160edd7ba5,,1,0,98,50,1,97
,,,,,,,,,,,,,,,,,,,,,,,,,,,,,,,,,,,,,,,,,a,1.996000051,LA,FALSE,,,,,,,54,lengua,Spanish,Sounds/spa_lengua.mp3,2020-06-05_12h50.32.569,TranslationElicitation_eng-prolific,3.2.4,Win32,60,5ebef0ede70ab7160edd7ba5,,1,0,98,50,1,97
,,,,,,,,,,,,,,,,,,,,,,,,,,,,,,,,,,,,,,,,,n,2.111999989,LAN,FALSE,,,,,,,54,lengua,Spanish,Sounds/spa_lengua.mp3,2020-06-05_12h50.32.569,TranslationElicitation_eng-prolific,3.2.4,Win32,60,5ebef0ede70ab7160edd7ba5,,1,0,98,50,1,97
,,,,,,,,,,,,,,,,,,,,,,,,,,,,,,,,,,,,,,,,,g,2.361000061,LANG,FALSE,,,,,,,54,lengua,Spanish,Sounds/spa_lengua.mp3,2020-06-05_12h50.32.569,TranslationElicitation_eng-prolific,3.2.4,Win32,60,5ebef0ede70ab7160edd7ba5,,1,0,98,50,1,97
,,,,,,,,,,,,,,,,,,,,,,,,,,,,,,,,,,,,,,,,,a,2.529000044,LANGA,FALSE,,,,,,,54,lengua,Spanish,Sounds/spa_lengua.mp3,2020-06-05_12h50.32.569,TranslationElicitation_eng-prolific,3.2.4,Win32,60,5ebef0ede70ab7160edd7ba5,,1,0,98,50,1,97
,,,,,,,,,,,,,,,,,,,,,,,,,,,,,,,,,,,,,,,,,u,2.588999987,LANGAU,FALSE,,,,,,,54,lengua,Spanish,Sounds/spa_lengua.mp3,2020-06-05_12h50.32.569,TranslationElicitation_eng-prolific,3.2.4,Win32,60,5ebef0ede70ab7160edd7ba5,,1,0,98,50,1,97
,,,,,,,,,,,,,,,,,,,,,,,,,,,,,,,,,,,,,,,,,g,2.910000086,LANGAUG,FALSE,,,,,,,54,lengua,Spanish,Sounds/spa_lengua.mp3,2020-06-05_12h50.32.569,TranslationElicitation_eng-prolific,3.2.4,Win32,60,5ebef0ede70ab7160edd7ba5,,1,0,98,50,1,97
,,,,,,,,,,,,,,,,,,,,,,,,,,,,,,,,,,,,,,,,,e,3.011000156,LANGAUGE,FALSE,,,,,,,54,lengua,Spanish,Sounds/spa_lengua.mp3,2020-06-05_12h50.32.569,TranslationElicitation_eng-prolific,3.2.4,Win32,60,5ebef0ede70ab7160edd7ba5,,1,0,98,50,1,97
,,,,,,,,,,,,,,,,,,,,,,,,,,,,,,,,,,,,,,,,,return,3.410000086,LANGAUGE,FALSE,,,,,,,54,lengua,Spanish,Sounds/spa_lengua.mp3,2020-06-05_12h50.32.569,TranslationElicitation_eng-prolific,3.2.4,Win32,60,5ebef0ede70ab7160edd7ba5,3.410000086,1,0,98,50,1,97
,,,,,,,,,,,,,,,,,,,,,,,,,,,,,,,,,,,,,,,,,,,,,,,,,,,54,lengua,Spanish,Sounds/spa_lengua.mp3,2020-06-05_12h50.32.569,TranslationElicitation_eng-prolific,3.2.4,Win32,60,5ebef0ede70ab7160edd7ba5,,1,0,98,50,1,97
,,,,,,,,,,,,,,,,,,,,,,,,,,,,,,,,,,,,,,,,,b,2.661999941,B,FALSE,,,,,,,102,ventana,Spanish,Sounds/spa_ventana.mp3,2020-06-05_12h50.32.569,TranslationElicitation_eng-prolific,3.2.4,Win32,60,5ebef0ede70ab7160edd7ba5,,1,0,98,96,1,97
,,,,,,,,,,,,,,,,,,,,,,,,,,,,,,,,,,,,,,,,,u,2.90199995,BU,FALSE,,,,,,,102,ventana,Spanish,Sounds/spa_ventana.mp3,2020-06-05_12h50.32.569,TranslationElicitation_eng-prolific,3.2.4,Win32,60,5ebef0ede70ab7160edd7ba5,,1,0,98,96,1,97
,,,,,,,,,,,,,,,,,,,,,,,,,,,,,,,,,,,,,,,,,s,2.961999893,BUS,FALSE,,,,,,,102,ventana,Spanish,Sounds/spa_ventana.mp3,2020-06-05_12h50.32.569,TranslationElicitation_eng-prolific,3.2.4,Win32,60,5ebef0ede70ab7160edd7ba5,,1,0,98,96,1,97
,,,,,,,,,,,,,,,,,,,,,,,,,,,,,,,,,,,,,,,,,return,3.226999998,BUS,FALSE,,,,,,,102,ventana,Spanish,Sounds/spa_ventana.mp3,2020-06-05_12h50.32.569,TranslationElicitation_eng-prolific,3.2.4,Win32,60,5ebef0ede70ab7160edd7ba5,3.226999998,1,0,98,96,1,97
,,,,,,,,,,,,,,,,,,,,,,,,,,,,,,,,,,,,,,,,,,,,,,,,,,,102,ventana,Spanish,Sounds/spa_ventana.mp3,2020-06-05_12h50.32.569,TranslationElicitation_eng-prolific,3.2.4,Win32,60,5ebef0ede70ab7160edd7ba5,,1,0,98,96,1,97
,,,,,,,,,,,,,,,,,,,,,,,,,,,,,,,,,,,,,,,,,t,2.411999941,T,FALSE,,,,,,,98,tobogan,Spanish,Sounds/spa_tobogan.mp3,2020-06-05_12h50.32.569,TranslationElicitation_eng-prolific,3.2.4,Win32,60,5ebef0ede70ab7160edd7ba5,,1,0,98,92,1,97
,,,,,,,,,,,,,,,,,,,,,,,,,,,,,,,,,,,,,,,,,o,2.562000036,TO,FALSE,,,,,,,98,tobogan,Spanish,Sounds/spa_tobogan.mp3,2020-06-05_12h50.32.569,TranslationElicitation_eng-prolific,3.2.4,Win32,60,5ebef0ede70ab7160edd7ba5,,1,0,98,92,1,97
,,,,,,,,,,,,,,,,,,,,,,,,,,,,,,,,,,,,,,,,,b,2.861999989,TOB,FALSE,,,,,,,98,tobogan,Spanish,Sounds/spa_tobogan.mp3,2020-06-05_12h50.32.569,TranslationElicitation_eng-prolific,3.2.4,Win32,60,5ebef0ede70ab7160edd7ba5,,1,0,98,92,1,97
,,,,,,,,,,,,,,,,,,,,,,,,,,,,,,,,,,,,,,,,,a,2.960000038,TOBA,FALSE,,,,,,,98,tobogan,Spanish,Sounds/spa_tobogan.mp3,2020-06-05_12h50.32.569,TranslationElicitation_eng-prolific,3.2.4,Win32,60,5ebef0ede70ab7160edd7ba5,,1,0,98,92,1,97
,,,,,,,,,,,,,,,,,,,,,,,,,,,,,,,,,,,,,,,,,c,3.227999926,TOBAC,FALSE,,,,,,,98,tobogan,Spanish,Sounds/spa_tobogan.mp3,2020-06-05_12h50.32.569,TranslationElicitation_eng-prolific,3.2.4,Win32,60,5ebef0ede70ab7160edd7ba5,,1,0,98,92,1,97
,,,,,,,,,,,,,,,,,,,,,,,,,,,,,,,,,,,,,,,,,c,3.359999895,TOBACC,FALSE,,,,,,,98,tobogan,Spanish,Sounds/spa_tobogan.mp3,2020-06-05_12h50.32.569,TranslationElicitation_eng-prolific,3.2.4,Win32,60,5ebef0ede70ab7160edd7ba5,,1,0,98,92,1,97
,,,,,,,,,,,,,,,,,,,,,,,,,,,,,,,,,,,,,,,,,o,3.42599988,TOBACCO,FALSE,,,,,,,98,tobogan,Spanish,Sounds/spa_tobogan.mp3,2020-06-05_12h50.32.569,TranslationElicitation_eng-prolific,3.2.4,Win32,60,5ebef0ede70ab7160edd7ba5,,1,0,98,92,1,97
,,,,,,,,,,,,,,,,,,,,,,,,,,,,,,,,,,,,,,,,,return,3.825999975,TOBACCO,FALSE,,,,,,,98,tobogan,Spanish,Sounds/spa_tobogan.mp3,2020-06-05_12h50.32.569,TranslationElicitation_eng-prolific,3.2.4,Win32,60,5ebef0ede70ab7160edd7ba5,3.825999975,1,0,98,92,1,97
,,,,,,,,,,,,,,,,,,,,,,,,,,,,,,,,,,,,,,,,,,,,,,,,,,,98,tobogan,Spanish,Sounds/spa_tobogan.mp3,2020-06-05_12h50.32.569,TranslationElicitation_eng-prolific,3.2.4,Win32,60,5ebef0ede70ab7160edd7ba5,,1,0,98,92,1,97
