consentKey.keys,consentKey.rt,languageL1Key.keys,languageL1Key.rt,languageL2,languageL2OralKey.keys,languageL2OralKey.rt,languageL2WrittenKey.keys,languageL2WrittenKey.rt,languageL3,languageL3OralKey.keys,languageL3OralKey.rt,languageL3WrittenKey.keys,languageL3WrittenKey.rt,languageCatalanOralKey.keys,languageCatalanOralKey.rt,languageCatalanWrittenKey.keys,languageCatalanWrittenKey.rt,languageCatalanTimeKey.keys,languageCatalanTimeKey.rt,languageSpanishOralKey.keys,languageSpanishOralKey.rt,languageSpanishWrittenKey.keys,languageSpanishWrittenKey.rt,languageSpanishTimeKey.keys,languageSpanishTimeKey.rt,age,demoSexKey.keys,demoSexKey.rt,demoEducationKey.keys,demoEducationKey.rt,city,demoVisionKey.keys,demoVisionKey.rt,demoLanguageKey.keys,demoLanguageKey.rt,setupLocationKey.keys,setupLocationKey.rt,setupNoiseKey.keys,setupNoiseKey.rt,instructionsKeys.keys,instructionsKeys.rt,keyPressed,keyPressTime,inputText,error,trialsPracticeSpanish.thisRepN,trialsPracticeSpanish.thisTrialN,trialsPracticeSpanish.thisN,trialsPracticeSpanish.thisIndex,trialsPracticeSpanish.ran,trialsPracticeSpanish.order,trial_id,word,test_language,soundfile,date,expName,psychopyVersion,OS,frameRate,participant,trialOffset,trialsSpanish.thisRepN,trialsSpanish.thisTrialN,trialsSpanish.thisN,trialsSpanish.thisIndex,trialsSpanish.ran,trialsSpanish.order
space,4.47699976,e,3.154999733, ,2,10.87999988,2,14.02299976,,,,,,1,6.483999968,1,2.466999769,2,10.95899987,1,2.905999899,1,1.107999802,2,6.747999668,24,m,1.316999912,4,3.494999886,LSHIFTBEDFORDSHIRE,y,3.674999714,n,4.543999672,1,3.119999886,1,4.162999868,space,9.05099988,c,4.124000072,C,FALSE,1,0,5,1,1,4,30,corona,Spanish,Sounds/spa_corona.mp3,2020-06-08_18h11.04.154,TranslationElicitation_eng-prolific,3.2.4,MacIntel,60,5ec27b1c7207c90574afa448,,,,,,,
,,,,,,,,,,,,,,,,,,,,,,,,,,,,,,,,,,,,,,,,,,o,4.243000031,CO,FALSE,1,0,5,1,1,4,30,corona,Spanish,Sounds/spa_corona.mp3,2020-06-08_18h11.04.154,TranslationElicitation_eng-prolific,3.2.4,MacIntel,60,5ec27b1c7207c90574afa448,,,,,,,
,,,,,,,,,,,,,,,,,,,,,,,,,,,,,,,,,,,,,,,,,,r,4.305999994,COR,FALSE,1,0,5,1,1,4,30,corona,Spanish,Sounds/spa_corona.mp3,2020-06-08_18h11.04.154,TranslationElicitation_eng-prolific,3.2.4,MacIntel,60,5ec27b1c7207c90574afa448,,,,,,,
,,,,,,,,,,,,,,,,,,,,,,,,,,,,,,,,,,,,,,,,,,i,4.47300005,CORI,FALSE,1,0,5,1,1,4,30,corona,Spanish,Sounds/spa_corona.mp3,2020-06-08_18h11.04.154,TranslationElicitation_eng-prolific,3.2.4,MacIntel,60,5ec27b1c7207c90574afa448,,,,,,,
,,,,,,,,,,,,,,,,,,,,,,,,,,,,,,,,,,,,,,,,,,n,4.789000034,CORIN,FALSE,1,0,5,1,1,4,30,corona,Spanish,Sounds/spa_corona.mp3,2020-06-08_18h11.04.154,TranslationElicitation_eng-prolific,3.2.4,MacIntel,60,5ec27b1c7207c90574afa448,,,,,,,
,,,,,,,,,,,,,,,,,,,,,,,,,,,,,,,,,,,,,,,,,,a,4.888000011,CORINA,FALSE,1,0,5,1,1,4,30,corona,Spanish,Sounds/spa_corona.mp3,2020-06-08_18h11.04.154,TranslationElicitation_eng-prolific,3.2.4,MacIntel,60,5ec27b1c7207c90574afa448,,,,,,,
,,,,,,,,,,,,,,,,,,,,,,,,,,,,,,,,,,,,,,,,,,backspace,5.121999979,CORIN,TRUE,1,0,5,1,1,4,30,corona,Spanish,Sounds/spa_corona.mp3,2020-06-08_18h11.04.154,TranslationElicitation_eng-prolific,3.2.4,MacIntel,60,5ec27b1c7207c90574afa448,,,,,,,
,,,,,,,,,,,,,,,,,,,,,,,,,,,,,,,,,,,,,,,,,,backspace,5.272000074,CORI,TRUE,1,0,5,1,1,4,30,corona,Spanish,Sounds/spa_corona.mp3,2020-06-08_18h11.04.154,TranslationElicitation_eng-prolific,3.2.4,MacIntel,60,5ec27b1c7207c90574afa448,,,,,,,
,,,,,,,,,,,,,,,,,,,,,,,,,,,,,,,,,,,,,,,,,,backspace,5.421000004,COR,TRUE,1,0,5,1,1,4,30,corona,Spanish,Sounds/spa_corona.mp3,2020-06-08_18h11.04.154,TranslationElicitation_eng-prolific,3.2.4,MacIntel,60,5ec27b1c7207c90574afa448,,,,,,,
,,,,,,,,,,,,,,,,,,,,,,,,,,,,,,,,,,,,,,,,,,o,6.019000053,CORO,TRUE,1,0,5,1,1,4,30,corona,Spanish,Sounds/spa_corona.mp3,2020-06-08_18h11.04.154,TranslationElicitation_eng-prolific,3.2.4,MacIntel,60,5ec27b1c7207c90574afa448,,,,,,,
,,,,,,,,,,,,,,,,,,,,,,,,,,,,,,,,,,,,,,,,,,n,6.302000046,CORON,TRUE,1,0,5,1,1,4,30,corona,Spanish,Sounds/spa_corona.mp3,2020-06-08_18h11.04.154,TranslationElicitation_eng-prolific,3.2.4,MacIntel,60,5ec27b1c7207c90574afa448,,,,,,,
,,,,,,,,,,,,,,,,,,,,,,,,,,,,,,,,,,,,,,,,,,a,6.351000071,CORONA,TRUE,1,0,5,1,1,4,30,corona,Spanish,Sounds/spa_corona.mp3,2020-06-08_18h11.04.154,TranslationElicitation_eng-prolific,3.2.4,MacIntel,60,5ec27b1c7207c90574afa448,,,,,,,
,,,,,,,,,,,,,,,,,,,,,,,,,,,,,,,,,,,,,,,,,,return,7.565999985,CORONA,TRUE,1,0,5,1,1,4,30,corona,Spanish,Sounds/spa_corona.mp3,2020-06-08_18h11.04.154,TranslationElicitation_eng-prolific,3.2.4,MacIntel,60,5ec27b1c7207c90574afa448,7.565999985,,,,,,
,,,,,,,,,,,,,,,,,,,,,,,,,,,,,,,,,,,,,,,,,,,,,,1,0,5,1,1,4,30,corona,Spanish,Sounds/spa_corona.mp3,2020-06-08_18h11.04.154,TranslationElicitation_eng-prolific,3.2.4,MacIntel,60,5ec27b1c7207c90574afa448,,,,,,,
,,,,,,,,,,,,,,,,,,,,,,,,,,,,,,,,,,,,,,,,,,d,2.677999973,D,FALSE,1,0,5,4,1,4,96,tigre,Spanish,Sounds/spa_tigre.mp3,2020-06-08_18h11.04.154,TranslationElicitation_eng-prolific,3.2.4,MacIntel,60,5ec27b1c7207c90574afa448,,,,,,,
,,,,,,,,,,,,,,,,,,,,,,,,,,,,,,,,,,,,,,,,,,i,2.778000116,DI,FALSE,1,0,5,4,1,4,96,tigre,Spanish,Sounds/spa_tigre.mp3,2020-06-08_18h11.04.154,TranslationElicitation_eng-prolific,3.2.4,MacIntel,60,5ec27b1c7207c90574afa448,,,,,,,
,,,,,,,,,,,,,,,,,,,,,,,,,,,,,,,,,,,,,,,,,,g,3.060000181,DIG,FALSE,1,0,5,4,1,4,96,tigre,Spanish,Sounds/spa_tigre.mp3,2020-06-08_18h11.04.154,TranslationElicitation_eng-prolific,3.2.4,MacIntel,60,5ec27b1c7207c90574afa448,,,,,,,
,,,,,,,,,,,,,,,,,,,,,,,,,,,,,,,,,,,,,,,,,,g,3.177000046,DIGG,FALSE,1,0,5,4,1,4,96,tigre,Spanish,Sounds/spa_tigre.mp3,2020-06-08_18h11.04.154,TranslationElicitation_eng-prolific,3.2.4,MacIntel,60,5ec27b1c7207c90574afa448,,,,,,,
,,,,,,,,,,,,,,,,,,,,,,,,,,,,,,,,,,,,,,,,,,e,3.276000023,DIGGE,FALSE,1,0,5,4,1,4,96,tigre,Spanish,Sounds/spa_tigre.mp3,2020-06-08_18h11.04.154,TranslationElicitation_eng-prolific,3.2.4,MacIntel,60,5ec27b1c7207c90574afa448,,,,,,,
,,,,,,,,,,,,,,,,,,,,,,,,,,,,,,,,,,,,,,,,,,r,3.409000158,DIGGER,FALSE,1,0,5,4,1,4,96,tigre,Spanish,Sounds/spa_tigre.mp3,2020-06-08_18h11.04.154,TranslationElicitation_eng-prolific,3.2.4,MacIntel,60,5ec27b1c7207c90574afa448,,,,,,,
,,,,,,,,,,,,,,,,,,,,,,,,,,,,,,,,,,,,,,,,,,return,3.85800004,DIGGER,FALSE,1,0,5,4,1,4,96,tigre,Spanish,Sounds/spa_tigre.mp3,2020-06-08_18h11.04.154,TranslationElicitation_eng-prolific,3.2.4,MacIntel,60,5ec27b1c7207c90574afa448,3.85800004,,,,,,
,,,,,,,,,,,,,,,,,,,,,,,,,,,,,,,,,,,,,,,,,,,,,,1,0,5,4,1,4,96,tigre,Spanish,Sounds/spa_tigre.mp3,2020-06-08_18h11.04.154,TranslationElicitation_eng-prolific,3.2.4,MacIntel,60,5ec27b1c7207c90574afa448,,,,,,,
,,,,,,,,,,,,,,,,,,,,,,,,,,,,,,,,,,,,,,,,,,h,1.746000051,H,FALSE,1,0,5,3,1,4,70,ola,Spanish,Sounds/spa_ola.mp3,2020-06-08_18h11.04.154,TranslationElicitation_eng-prolific,3.2.4,MacIntel,60,5ec27b1c7207c90574afa448,,,,,,,
,,,,,,,,,,,,,,,,,,,,,,,,,,,,,,,,,,,,,,,,,,e,1.830000162,HE,FALSE,1,0,5,3,1,4,70,ola,Spanish,Sounds/spa_ola.mp3,2020-06-08_18h11.04.154,TranslationElicitation_eng-prolific,3.2.4,MacIntel,60,5ec27b1c7207c90574afa448,,,,,,,
,,,,,,,,,,,,,,,,,,,,,,,,,,,,,,,,,,,,,,,,,,l,1.979000092,HEL,FALSE,1,0,5,3,1,4,70,ola,Spanish,Sounds/spa_ola.mp3,2020-06-08_18h11.04.154,TranslationElicitation_eng-prolific,3.2.4,MacIntel,60,5ec27b1c7207c90574afa448,,,,,,,
,,,,,,,,,,,,,,,,,,,,,,,,,,,,,,,,,,,,,,,,,,l,2.111000061,HELL,FALSE,1,0,5,3,1,4,70,ola,Spanish,Sounds/spa_ola.mp3,2020-06-08_18h11.04.154,TranslationElicitation_eng-prolific,3.2.4,MacIntel,60,5ec27b1c7207c90574afa448,,,,,,,
,,,,,,,,,,,,,,,,,,,,,,,,,,,,,,,,,,,,,,,,,,o,2.294000149,HELLO,FALSE,1,0,5,3,1,4,70,ola,Spanish,Sounds/spa_ola.mp3,2020-06-08_18h11.04.154,TranslationElicitation_eng-prolific,3.2.4,MacIntel,60,5ec27b1c7207c90574afa448,,,,,,,
,,,,,,,,,,,,,,,,,,,,,,,,,,,,,,,,,,,,,,,,,,return,2.578000069,HELLO,FALSE,1,0,5,3,1,4,70,ola,Spanish,Sounds/spa_ola.mp3,2020-06-08_18h11.04.154,TranslationElicitation_eng-prolific,3.2.4,MacIntel,60,5ec27b1c7207c90574afa448,2.578000069,,,,,,
,,,,,,,,,,,,,,,,,,,,,,,,,,,,,,,,,,,,,,,,,,,,,,1,0,5,3,1,4,70,ola,Spanish,Sounds/spa_ola.mp3,2020-06-08_18h11.04.154,TranslationElicitation_eng-prolific,3.2.4,MacIntel,60,5ec27b1c7207c90574afa448,,,,,,,
,,,,,,,,,,,,,,,,,,,,,,,,,,,,,,,,,,,,,,,,,,h,2.210999966,H,FALSE,1,0,5,0,1,4,1,arbol,Spanish,Sounds/spa_arbol.mp3,2020-06-08_18h11.04.154,TranslationElicitation_eng-prolific,3.2.4,MacIntel,60,5ec27b1c7207c90574afa448,,,,,,,
,,,,,,,,,,,,,,,,,,,,,,,,,,,,,,,,,,,,,,,,,,a,2.328000069,HA,FALSE,1,0,5,0,1,4,1,arbol,Spanish,Sounds/spa_arbol.mp3,2020-06-08_18h11.04.154,TranslationElicitation_eng-prolific,3.2.4,MacIntel,60,5ec27b1c7207c90574afa448,,,,,,,
,,,,,,,,,,,,,,,,,,,,,,,,,,,,,,,,,,,,,,,,,,n,2.394999981,HAN,FALSE,1,0,5,0,1,4,1,arbol,Spanish,Sounds/spa_arbol.mp3,2020-06-08_18h11.04.154,TranslationElicitation_eng-prolific,3.2.4,MacIntel,60,5ec27b1c7207c90574afa448,,,,,,,
,,,,,,,,,,,,,,,,,,,,,,,,,,,,,,,,,,,,,,,,,,d,2.50999999,HAND,FALSE,1,0,5,0,1,4,1,arbol,Spanish,Sounds/spa_arbol.mp3,2020-06-08_18h11.04.154,TranslationElicitation_eng-prolific,3.2.4,MacIntel,60,5ec27b1c7207c90574afa448,,,,,,,
,,,,,,,,,,,,,,,,,,,,,,,,,,,,,,,,,,,,,,,,,,b,2.660000086,HANDB,FALSE,1,0,5,0,1,4,1,arbol,Spanish,Sounds/spa_arbol.mp3,2020-06-08_18h11.04.154,TranslationElicitation_eng-prolific,3.2.4,MacIntel,60,5ec27b1c7207c90574afa448,,,,,,,
,,,,,,,,,,,,,,,,,,,,,,,,,,,,,,,,,,,,,,,,,,a,2.77699995,HANDBA,FALSE,1,0,5,0,1,4,1,arbol,Spanish,Sounds/spa_arbol.mp3,2020-06-08_18h11.04.154,TranslationElicitation_eng-prolific,3.2.4,MacIntel,60,5ec27b1c7207c90574afa448,,,,,,,
,,,,,,,,,,,,,,,,,,,,,,,,,,,,,,,,,,,,,,,,,,l,2.893000126,HANDBAL,FALSE,1,0,5,0,1,4,1,arbol,Spanish,Sounds/spa_arbol.mp3,2020-06-08_18h11.04.154,TranslationElicitation_eng-prolific,3.2.4,MacIntel,60,5ec27b1c7207c90574afa448,,,,,,,
,,,,,,,,,,,,,,,,,,,,,,,,,,,,,,,,,,,,,,,,,,l,3.042999983,HANDBALL,FALSE,1,0,5,0,1,4,1,arbol,Spanish,Sounds/spa_arbol.mp3,2020-06-08_18h11.04.154,TranslationElicitation_eng-prolific,3.2.4,MacIntel,60,5ec27b1c7207c90574afa448,,,,,,,
,,,,,,,,,,,,,,,,,,,,,,,,,,,,,,,,,,,,,,,,,,return,3.325000048,HANDBALL,FALSE,1,0,5,0,1,4,1,arbol,Spanish,Sounds/spa_arbol.mp3,2020-06-08_18h11.04.154,TranslationElicitation_eng-prolific,3.2.4,MacIntel,60,5ec27b1c7207c90574afa448,3.325000048,,,,,,
,,,,,,,,,,,,,,,,,,,,,,,,,,,,,,,,,,,,,,,,,,,,,,1,0,5,0,1,4,1,arbol,Spanish,Sounds/spa_arbol.mp3,2020-06-08_18h11.04.154,TranslationElicitation_eng-prolific,3.2.4,MacIntel,60,5ec27b1c7207c90574afa448,,,,,,,
,,,,,,,,,,,,,,,,,,,,,,,,,,,,,,,,,,,,,,,,,,a,2.528000116,A,FALSE,1,0,5,2,1,4,26,chaqueta,Spanish,Sounds/spa_chaqueta.mp3,2020-06-08_18h11.04.154,TranslationElicitation_eng-prolific,3.2.4,MacIntel,60,5ec27b1c7207c90574afa448,,,,,,,
,,,,,,,,,,,,,,,,,,,,,,,,,,,,,,,,,,,,,,,,,,backspace,2.809999943,,TRUE,1,0,5,2,1,4,26,chaqueta,Spanish,Sounds/spa_chaqueta.mp3,2020-06-08_18h11.04.154,TranslationElicitation_eng-prolific,3.2.4,MacIntel,60,5ec27b1c7207c90574afa448,,,,,,,
,,,,,,,,,,,,,,,,,,,,,,,,,,,,,,,,,,,,,,,,,,a,3.209000111,A,TRUE,1,0,5,2,1,4,26,chaqueta,Spanish,Sounds/spa_chaqueta.mp3,2020-06-08_18h11.04.154,TranslationElicitation_eng-prolific,3.2.4,MacIntel,60,5ec27b1c7207c90574afa448,,,,,,,
,,,,,,,,,,,,,,,,,,,,,,,,,,,,,,,,,,,,,,,,,,backspace,3.542000055,,TRUE,1,0,5,2,1,4,26,chaqueta,Spanish,Sounds/spa_chaqueta.mp3,2020-06-08_18h11.04.154,TranslationElicitation_eng-prolific,3.2.4,MacIntel,60,5ec27b1c7207c90574afa448,,,,,,,
,,,,,,,,,,,,,,,,,,,,,,,,,,,,,,,,,,,,,,,,,,p,3.758000135,P,TRUE,1,0,5,2,1,4,26,chaqueta,Spanish,Sounds/spa_chaqueta.mp3,2020-06-08_18h11.04.154,TranslationElicitation_eng-prolific,3.2.4,MacIntel,60,5ec27b1c7207c90574afa448,,,,,,,
,,,,,,,,,,,,,,,,,,,,,,,,,,,,,,,,,,,,,,,,,,a,3.808000088,PA,TRUE,1,0,5,2,1,4,26,chaqueta,Spanish,Sounds/spa_chaqueta.mp3,2020-06-08_18h11.04.154,TranslationElicitation_eng-prolific,3.2.4,MacIntel,60,5ec27b1c7207c90574afa448,,,,,,,
,,,,,,,,,,,,,,,,,,,,,,,,,,,,,,,,,,,,,,,,,,s,3.957999945,PAS,TRUE,1,0,5,2,1,4,26,chaqueta,Spanish,Sounds/spa_chaqueta.mp3,2020-06-08_18h11.04.154,TranslationElicitation_eng-prolific,3.2.4,MacIntel,60,5ec27b1c7207c90574afa448,,,,,,,
,,,,,,,,,,,,,,,,,,,,,,,,,,,,,,,,,,,,,,,,,,s,4.10800004,PASS,TRUE,1,0,5,2,1,4,26,chaqueta,Spanish,Sounds/spa_chaqueta.mp3,2020-06-08_18h11.04.154,TranslationElicitation_eng-prolific,3.2.4,MacIntel,60,5ec27b1c7207c90574afa448,,,,,,,
,,,,,,,,,,,,,,,,,,,,,,,,,,,,,,,,,,,,,,,,,,return,4.20600009,PASS,TRUE,1,0,5,2,1,4,26,chaqueta,Spanish,Sounds/spa_chaqueta.mp3,2020-06-08_18h11.04.154,TranslationElicitation_eng-prolific,3.2.4,MacIntel,60,5ec27b1c7207c90574afa448,4.20600009,,,,,,
,,,,,,,,,,,,,,,,,,,,,,,,,,,,,,,,,,,,,,,,,,,,,,1,0,5,2,1,4,26,chaqueta,Spanish,Sounds/spa_chaqueta.mp3,2020-06-08_18h11.04.154,TranslationElicitation_eng-prolific,3.2.4,MacIntel,60,5ec27b1c7207c90574afa448,,,,,,,
,,,,,,,,,,,,,,,,,,,,,,,,,,,,,,,,,,,,,,,,,,m,3.741000175,M,FALSE,,,,,,,58,luna,Spanish,Sounds/spa_luna.mp3,2020-06-08_18h11.04.154,TranslationElicitation_eng-prolific,3.2.4,MacIntel,60,5ec27b1c7207c90574afa448,,1,0,98,54,1,97
,,,,,,,,,,,,,,,,,,,,,,,,,,,,,,,,,,,,,,,,,,o,3.890000105,MO,FALSE,,,,,,,58,luna,Spanish,Sounds/spa_luna.mp3,2020-06-08_18h11.04.154,TranslationElicitation_eng-prolific,3.2.4,MacIntel,60,5ec27b1c7207c90574afa448,,1,0,98,54,1,97
,,,,,,,,,,,,,,,,,,,,,,,,,,,,,,,,,,,,,,,,,,o,4.024000168,MOO,FALSE,,,,,,,58,luna,Spanish,Sounds/spa_luna.mp3,2020-06-08_18h11.04.154,TranslationElicitation_eng-prolific,3.2.4,MacIntel,60,5ec27b1c7207c90574afa448,,1,0,98,54,1,97
,,,,,,,,,,,,,,,,,,,,,,,,,,,,,,,,,,,,,,,,,,n,4.20600009,MOON,FALSE,,,,,,,58,luna,Spanish,Sounds/spa_luna.mp3,2020-06-08_18h11.04.154,TranslationElicitation_eng-prolific,3.2.4,MacIntel,60,5ec27b1c7207c90574afa448,,1,0,98,54,1,97
,,,,,,,,,,,,,,,,,,,,,,,,,,,,,,,,,,,,,,,,,,return,5.004000187,MOON,FALSE,,,,,,,58,luna,Spanish,Sounds/spa_luna.mp3,2020-06-08_18h11.04.154,TranslationElicitation_eng-prolific,3.2.4,MacIntel,60,5ec27b1c7207c90574afa448,5.004000187,1,0,98,54,1,97
,,,,,,,,,,,,,,,,,,,,,,,,,,,,,,,,,,,,,,,,,,,,,,,,,,,,58,luna,Spanish,Sounds/spa_luna.mp3,2020-06-08_18h11.04.154,TranslationElicitation_eng-prolific,3.2.4,MacIntel,60,5ec27b1c7207c90574afa448,,1,0,98,54,1,97
,,,,,,,,,,,,,,,,,,,,,,,,,,,,,,,,,,,,,,,,,,p,1.762000084,P,FALSE,,,,,,,86,pingüino,Spanish,Sounds/spa_pinguino.mp3,2020-06-08_18h11.04.154,TranslationElicitation_eng-prolific,3.2.4,MacIntel,60,5ec27b1c7207c90574afa448,,1,0,98,81,1,97
,,,,,,,,,,,,,,,,,,,,,,,,,,,,,,,,,,,,,,,,,,e,1.895999908,PE,FALSE,,,,,,,86,pingüino,Spanish,Sounds/spa_pinguino.mp3,2020-06-08_18h11.04.154,TranslationElicitation_eng-prolific,3.2.4,MacIntel,60,5ec27b1c7207c90574afa448,,1,0,98,81,1,97
,,,,,,,,,,,,,,,,,,,,,,,,,,,,,,,,,,,,,,,,,,n,2.012000084,PEN,FALSE,,,,,,,86,pingüino,Spanish,Sounds/spa_pinguino.mp3,2020-06-08_18h11.04.154,TranslationElicitation_eng-prolific,3.2.4,MacIntel,60,5ec27b1c7207c90574afa448,,1,0,98,81,1,97
,,,,,,,,,,,,,,,,,,,,,,,,,,,,,,,,,,,,,,,,,,g,2.177000046,PENG,FALSE,,,,,,,86,pingüino,Spanish,Sounds/spa_pinguino.mp3,2020-06-08_18h11.04.154,TranslationElicitation_eng-prolific,3.2.4,MacIntel,60,5ec27b1c7207c90574afa448,,1,0,98,81,1,97
,,,,,,,,,,,,,,,,,,,,,,,,,,,,,,,,,,,,,,,,,,u,2.411000013,PENGU,FALSE,,,,,,,86,pingüino,Spanish,Sounds/spa_pinguino.mp3,2020-06-08_18h11.04.154,TranslationElicitation_eng-prolific,3.2.4,MacIntel,60,5ec27b1c7207c90574afa448,,1,0,98,81,1,97
,,,,,,,,,,,,,,,,,,,,,,,,,,,,,,,,,,,,,,,,,,o,2.576999903,PENGUO,FALSE,,,,,,,86,pingüino,Spanish,Sounds/spa_pinguino.mp3,2020-06-08_18h11.04.154,TranslationElicitation_eng-prolific,3.2.4,MacIntel,60,5ec27b1c7207c90574afa448,,1,0,98,81,1,97
,,,,,,,,,,,,,,,,,,,,,,,,,,,,,,,,,,,,,,,,,,backspace,3.14199996,PENGU,TRUE,,,,,,,86,pingüino,Spanish,Sounds/spa_pinguino.mp3,2020-06-08_18h11.04.154,TranslationElicitation_eng-prolific,3.2.4,MacIntel,60,5ec27b1c7207c90574afa448,,1,0,98,81,1,97
,,,,,,,,,,,,,,,,,,,,,,,,,,,,,,,,,,,,,,,,,,i,3.325999975,PENGUI,TRUE,,,,,,,86,pingüino,Spanish,Sounds/spa_pinguino.mp3,2020-06-08_18h11.04.154,TranslationElicitation_eng-prolific,3.2.4,MacIntel,60,5ec27b1c7207c90574afa448,,1,0,98,81,1,97
,,,,,,,,,,,,,,,,,,,,,,,,,,,,,,,,,,,,,,,,,,n,3.507999897,PENGUIN,TRUE,,,,,,,86,pingüino,Spanish,Sounds/spa_pinguino.mp3,2020-06-08_18h11.04.154,TranslationElicitation_eng-prolific,3.2.4,MacIntel,60,5ec27b1c7207c90574afa448,,1,0,98,81,1,97
,,,,,,,,,,,,,,,,,,,,,,,,,,,,,,,,,,,,,,,,,,return,3.990999937,PENGUIN,TRUE,,,,,,,86,pingüino,Spanish,Sounds/spa_pinguino.mp3,2020-06-08_18h11.04.154,TranslationElicitation_eng-prolific,3.2.4,MacIntel,60,5ec27b1c7207c90574afa448,3.990999937,1,0,98,81,1,97
,,,,,,,,,,,,,,,,,,,,,,,,,,,,,,,,,,,,,,,,,,,,,,,,,,,,86,pingüino,Spanish,Sounds/spa_pinguino.mp3,2020-06-08_18h11.04.154,TranslationElicitation_eng-prolific,3.2.4,MacIntel,60,5ec27b1c7207c90574afa448,,1,0,98,81,1,97
,,,,,,,,,,,,,,,,,,,,,,,,,,,,,,,,,,,,,,,,,,n,4.291000128,N,FALSE,,,,,,,69,nariz,Spanish,Sounds/spa_nariz.mp3,2020-06-08_18h11.04.154,TranslationElicitation_eng-prolific,3.2.4,MacIntel,60,5ec27b1c7207c90574afa448,,1,0,98,65,1,97
,,,,,,,,,,,,,,,,,,,,,,,,,,,,,,,,,,,,,,,,,,o,4.440999985,NO,FALSE,,,,,,,69,nariz,Spanish,Sounds/spa_nariz.mp3,2020-06-08_18h11.04.154,TranslationElicitation_eng-prolific,3.2.4,MacIntel,60,5ec27b1c7207c90574afa448,,1,0,98,65,1,97
,,,,,,,,,,,,,,,,,,,,,,,,,,,,,,,,,,,,,,,,,,i,4.590000153,NOI,FALSE,,,,,,,69,nariz,Spanish,Sounds/spa_nariz.mp3,2020-06-08_18h11.04.154,TranslationElicitation_eng-prolific,3.2.4,MacIntel,60,5ec27b1c7207c90574afa448,,1,0,98,65,1,97
,,,,,,,,,,,,,,,,,,,,,,,,,,,,,,,,,,,,,,,,,,s,4.67200017,NOIS,FALSE,,,,,,,69,nariz,Spanish,Sounds/spa_nariz.mp3,2020-06-08_18h11.04.154,TranslationElicitation_eng-prolific,3.2.4,MacIntel,60,5ec27b1c7207c90574afa448,,1,0,98,65,1,97
,,,,,,,,,,,,,,,,,,,,,,,,,,,,,,,,,,,,,,,,,,e,4.838999987,NOISE,FALSE,,,,,,,69,nariz,Spanish,Sounds/spa_nariz.mp3,2020-06-08_18h11.04.154,TranslationElicitation_eng-prolific,3.2.4,MacIntel,60,5ec27b1c7207c90574afa448,,1,0,98,65,1,97
,,,,,,,,,,,,,,,,,,,,,,,,,,,,,,,,,,,,,,,,,,return,5.121000051,NOISE,FALSE,,,,,,,69,nariz,Spanish,Sounds/spa_nariz.mp3,2020-06-08_18h11.04.154,TranslationElicitation_eng-prolific,3.2.4,MacIntel,60,5ec27b1c7207c90574afa448,5.121000051,1,0,98,65,1,97
,,,,,,,,,,,,,,,,,,,,,,,,,,,,,,,,,,,,,,,,,,,,,,,,,,,,69,nariz,Spanish,Sounds/spa_nariz.mp3,2020-06-08_18h11.04.154,TranslationElicitation_eng-prolific,3.2.4,MacIntel,60,5ec27b1c7207c90574afa448,,1,0,98,65,1,97
,,,,,,,,,,,,,,,,,,,,,,,,,,,,,,,,,,,,,,,,,,b,2.575999975,B,FALSE,,,,,,,11,boton,Spanish,Sounds/spa_boton.mp3,2020-06-08_18h11.04.154,TranslationElicitation_eng-prolific,3.2.4,MacIntel,60,5ec27b1c7207c90574afa448,,1,0,98,9,1,97
,,,,,,,,,,,,,,,,,,,,,,,,,,,,,,,,,,,,,,,,,,o,2.825999975,BO,FALSE,,,,,,,11,boton,Spanish,Sounds/spa_boton.mp3,2020-06-08_18h11.04.154,TranslationElicitation_eng-prolific,3.2.4,MacIntel,60,5ec27b1c7207c90574afa448,,1,0,98,9,1,97
,,,,,,,,,,,,,,,,,,,,,,,,,,,,,,,,,,,,,,,,,,t,3.141000032,BOT,FALSE,,,,,,,11,boton,Spanish,Sounds/spa_boton.mp3,2020-06-08_18h11.04.154,TranslationElicitation_eng-prolific,3.2.4,MacIntel,60,5ec27b1c7207c90574afa448,,1,0,98,9,1,97
,,,,,,,,,,,,,,,,,,,,,,,,,,,,,,,,,,,,,,,,,,t,3.307999849,BOTT,FALSE,,,,,,,11,boton,Spanish,Sounds/spa_boton.mp3,2020-06-08_18h11.04.154,TranslationElicitation_eng-prolific,3.2.4,MacIntel,60,5ec27b1c7207c90574afa448,,1,0,98,9,1,97
,,,,,,,,,,,,,,,,,,,,,,,,,,,,,,,,,,,,,,,,,,o,3.540999889,BOTTO,FALSE,,,,,,,11,boton,Spanish,Sounds/spa_boton.mp3,2020-06-08_18h11.04.154,TranslationElicitation_eng-prolific,3.2.4,MacIntel,60,5ec27b1c7207c90574afa448,,1,0,98,9,1,97
,,,,,,,,,,,,,,,,,,,,,,,,,,,,,,,,,,,,,,,,,,m,3.74000001,BOTTOM,FALSE,,,,,,,11,boton,Spanish,Sounds/spa_boton.mp3,2020-06-08_18h11.04.154,TranslationElicitation_eng-prolific,3.2.4,MacIntel,60,5ec27b1c7207c90574afa448,,1,0,98,9,1,97
,,,,,,,,,,,,,,,,,,,,,,,,,,,,,,,,,,,,,,,,,,return,4.322000027,BOTTOM,FALSE,,,,,,,11,boton,Spanish,Sounds/spa_boton.mp3,2020-06-08_18h11.04.154,TranslationElicitation_eng-prolific,3.2.4,MacIntel,60,5ec27b1c7207c90574afa448,4.322000027,1,0,98,9,1,97
,,,,,,,,,,,,,,,,,,,,,,,,,,,,,,,,,,,,,,,,,,,,,,,,,,,,11,boton,Spanish,Sounds/spa_boton.mp3,2020-06-08_18h11.04.154,TranslationElicitation_eng-prolific,3.2.4,MacIntel,60,5ec27b1c7207c90574afa448,,1,0,98,9,1,97
,,,,,,,,,,,,,,,,,,,,,,,,,,,,,,,,,,,,,,,,,,p,4.605000019,P,FALSE,,,,,,,85,pierna,Spanish,Sounds/spa_pierna.mp3,2020-06-08_18h11.04.154,TranslationElicitation_eng-prolific,3.2.4,MacIntel,60,5ec27b1c7207c90574afa448,,1,0,98,80,1,97
,,,,,,,,,,,,,,,,,,,,,,,,,,,,,,,,,,,,,,,,,,e,4.970000029,PE,FALSE,,,,,,,85,pierna,Spanish,Sounds/spa_pierna.mp3,2020-06-08_18h11.04.154,TranslationElicitation_eng-prolific,3.2.4,MacIntel,60,5ec27b1c7207c90574afa448,,1,0,98,80,1,97
,,,,,,,,,,,,,,,,,,,,,,,,,,,,,,,,,,,,,,,,,,e,5.104000092,PEE,FALSE,,,,,,,85,pierna,Spanish,Sounds/spa_pierna.mp3,2020-06-08_18h11.04.154,TranslationElicitation_eng-prolific,3.2.4,MacIntel,60,5ec27b1c7207c90574afa448,,1,0,98,80,1,97
,,,,,,,,,,,,,,,,,,,,,,,,,,,,,,,,,,,,,,,,,,r,5.269999981,PEER,FALSE,,,,,,,85,pierna,Spanish,Sounds/spa_pierna.mp3,2020-06-08_18h11.04.154,TranslationElicitation_eng-prolific,3.2.4,MacIntel,60,5ec27b1c7207c90574afa448,,1,0,98,80,1,97
,,,,,,,,,,,,,,,,,,,,,,,,,,,,,,,,,,,,,,,,,,return,5.502000093,PEER,FALSE,,,,,,,85,pierna,Spanish,Sounds/spa_pierna.mp3,2020-06-08_18h11.04.154,TranslationElicitation_eng-prolific,3.2.4,MacIntel,60,5ec27b1c7207c90574afa448,5.502000093,1,0,98,80,1,97
,,,,,,,,,,,,,,,,,,,,,,,,,,,,,,,,,,,,,,,,,,,,,,,,,,,,85,pierna,Spanish,Sounds/spa_pierna.mp3,2020-06-08_18h11.04.154,TranslationElicitation_eng-prolific,3.2.4,MacIntel,60,5ec27b1c7207c90574afa448,,1,0,98,80,1,97
,,,,,,,,,,,,,,,,,,,,,,,,,,,,,,,,,,,,,,,,,,g,4.006999969,G,FALSE,,,,,,,44,gorrion,Spanish,Sounds/spa_gorrion.mp3,2020-06-08_18h11.04.154,TranslationElicitation_eng-prolific,3.2.4,MacIntel,60,5ec27b1c7207c90574afa448,,1,0,98,40,1,97
,,,,,,,,,,,,,,,,,,,,,,,,,,,,,,,,,,,,,,,,,,o,4.49000001,GO,FALSE,,,,,,,44,gorrion,Spanish,Sounds/spa_gorrion.mp3,2020-06-08_18h11.04.154,TranslationElicitation_eng-prolific,3.2.4,MacIntel,60,5ec27b1c7207c90574afa448,,1,0,98,40,1,97
,,,,,,,,,,,,,,,,,,,,,,,,,,,,,,,,,,,,,,,,,,r,4.838999987,GOR,FALSE,,,,,,,44,gorrion,Spanish,Sounds/spa_gorrion.mp3,2020-06-08_18h11.04.154,TranslationElicitation_eng-prolific,3.2.4,MacIntel,60,5ec27b1c7207c90574afa448,,1,0,98,40,1,97
,,,,,,,,,,,,,,,,,,,,,,,,,,,,,,,,,,,,,,,,,,r,4.988000154,GORR,FALSE,,,,,,,44,gorrion,Spanish,Sounds/spa_gorrion.mp3,2020-06-08_18h11.04.154,TranslationElicitation_eng-prolific,3.2.4,MacIntel,60,5ec27b1c7207c90574afa448,,1,0,98,40,1,97
,,,,,,,,,,,,,,,,,,,,,,,,,,,,,,,,,,,,,,,,,,i,5.105000019,GORRI,FALSE,,,,,,,44,gorrion,Spanish,Sounds/spa_gorrion.mp3,2020-06-08_18h11.04.154,TranslationElicitation_eng-prolific,3.2.4,MacIntel,60,5ec27b1c7207c90574afa448,,1,0,98,40,1,97
,,,,,,,,,,,,,,,,,,,,,,,,,,,,,,,,,,,,,,,,,,l,5.337000132,GORRIL,FALSE,,,,,,,44,gorrion,Spanish,Sounds/spa_gorrion.mp3,2020-06-08_18h11.04.154,TranslationElicitation_eng-prolific,3.2.4,MacIntel,60,5ec27b1c7207c90574afa448,,1,0,98,40,1,97
,,,,,,,,,,,,,,,,,,,,,,,,,,,,,,,,,,,,,,,,,,a,5.421000004,GORRILA,FALSE,,,,,,,44,gorrion,Spanish,Sounds/spa_gorrion.mp3,2020-06-08_18h11.04.154,TranslationElicitation_eng-prolific,3.2.4,MacIntel,60,5ec27b1c7207c90574afa448,,1,0,98,40,1,97
,,,,,,,,,,,,,,,,,,,,,,,,,,,,,,,,,,,,,,,,,,return,6.037000179,GORRILA,FALSE,,,,,,,44,gorrion,Spanish,Sounds/spa_gorrion.mp3,2020-06-08_18h11.04.154,TranslationElicitation_eng-prolific,3.2.4,MacIntel,60,5ec27b1c7207c90574afa448,6.037000179,1,0,98,40,1,97
,,,,,,,,,,,,,,,,,,,,,,,,,,,,,,,,,,,,,,,,,,,,,,,,,,,,44,gorrion,Spanish,Sounds/spa_gorrion.mp3,2020-06-08_18h11.04.154,TranslationElicitation_eng-prolific,3.2.4,MacIntel,60,5ec27b1c7207c90574afa448,,1,0,98,40,1,97
,,,,,,,,,,,,,,,,,,,,,,,,,,,,,,,,,,,,,,,,,,g,1.996000051,G,FALSE,,,,,,,47,guitarra,Spanish,Sounds/spa_guitarra.mp3,2020-06-08_18h11.04.154,TranslationElicitation_eng-prolific,3.2.4,MacIntel,60,5ec27b1c7207c90574afa448,,1,0,98,43,1,97
,,,,,,,,,,,,,,,,,,,,,,,,,,,,,,,,,,,,,,,,,,u,2.228000164,GU,FALSE,,,,,,,47,guitarra,Spanish,Sounds/spa_guitarra.mp3,2020-06-08_18h11.04.154,TranslationElicitation_eng-prolific,3.2.4,MacIntel,60,5ec27b1c7207c90574afa448,,1,0,98,43,1,97
,,,,,,,,,,,,,,,,,,,,,,,,,,,,,,,,,,,,,,,,,,i,2.394000053,GUI,FALSE,,,,,,,47,guitarra,Spanish,Sounds/spa_guitarra.mp3,2020-06-08_18h11.04.154,TranslationElicitation_eng-prolific,3.2.4,MacIntel,60,5ec27b1c7207c90574afa448,,1,0,98,43,1,97
,,,,,,,,,,,,,,,,,,,,,,,,,,,,,,,,,,,,,,,,,,t,2.594000101,GUIT,FALSE,,,,,,,47,guitarra,Spanish,Sounds/spa_guitarra.mp3,2020-06-08_18h11.04.154,TranslationElicitation_eng-prolific,3.2.4,MacIntel,60,5ec27b1c7207c90574afa448,,1,0,98,43,1,97
,,,,,,,,,,,,,,,,,,,,,,,,,,,,,,,,,,,,,,,,,,a,2.660000086,GUITA,FALSE,,,,,,,47,guitarra,Spanish,Sounds/spa_guitarra.mp3,2020-06-08_18h11.04.154,TranslationElicitation_eng-prolific,3.2.4,MacIntel,60,5ec27b1c7207c90574afa448,,1,0,98,43,1,97
,,,,,,,,,,,,,,,,,,,,,,,,,,,,,,,,,,,,,,,,,,r,2.876000166,GUITAR,FALSE,,,,,,,47,guitarra,Spanish,Sounds/spa_guitarra.mp3,2020-06-08_18h11.04.154,TranslationElicitation_eng-prolific,3.2.4,MacIntel,60,5ec27b1c7207c90574afa448,,1,0,98,43,1,97
,,,,,,,,,,,,,,,,,,,,,,,,,,,,,,,,,,,,,,,,,,return,3.027000189,GUITAR,FALSE,,,,,,,47,guitarra,Spanish,Sounds/spa_guitarra.mp3,2020-06-08_18h11.04.154,TranslationElicitation_eng-prolific,3.2.4,MacIntel,60,5ec27b1c7207c90574afa448,3.027000189,1,0,98,43,1,97
,,,,,,,,,,,,,,,,,,,,,,,,,,,,,,,,,,,,,,,,,,,,,,,,,,,,47,guitarra,Spanish,Sounds/spa_guitarra.mp3,2020-06-08_18h11.04.154,TranslationElicitation_eng-prolific,3.2.4,MacIntel,60,5ec27b1c7207c90574afa448,,1,0,98,43,1,97
,,,,,,,,,,,,,,,,,,,,,,,,,,,,,,,,,,,,,,,,,,g,1.664000034,G,FALSE,,,,,,,43,globo,Spanish,Sounds/spa_globo.mp3,2020-06-08_18h11.04.154,TranslationElicitation_eng-prolific,3.2.4,MacIntel,60,5ec27b1c7207c90574afa448,,1,0,98,39,1,97
,,,,,,,,,,,,,,,,,,,,,,,,,,,,,,,,,,,,,,,,,,l,1.763000011,GL,FALSE,,,,,,,43,globo,Spanish,Sounds/spa_globo.mp3,2020-06-08_18h11.04.154,TranslationElicitation_eng-prolific,3.2.4,MacIntel,60,5ec27b1c7207c90574afa448,,1,0,98,39,1,97
,,,,,,,,,,,,,,,,,,,,,,,,,,,,,,,,,,,,,,,,,,o,1.897000074,GLO,FALSE,,,,,,,43,globo,Spanish,Sounds/spa_globo.mp3,2020-06-08_18h11.04.154,TranslationElicitation_eng-prolific,3.2.4,MacIntel,60,5ec27b1c7207c90574afa448,,1,0,98,39,1,97
,,,,,,,,,,,,,,,,,,,,,,,,,,,,,,,,,,,,,,,,,,b,2.096000195,GLOB,FALSE,,,,,,,43,globo,Spanish,Sounds/spa_globo.mp3,2020-06-08_18h11.04.154,TranslationElicitation_eng-prolific,3.2.4,MacIntel,60,5ec27b1c7207c90574afa448,,1,0,98,39,1,97
,,,,,,,,,,,,,,,,,,,,,,,,,,,,,,,,,,,,,,,,,,a,2.195000172,GLOBA,FALSE,,,,,,,43,globo,Spanish,Sounds/spa_globo.mp3,2020-06-08_18h11.04.154,TranslationElicitation_eng-prolific,3.2.4,MacIntel,60,5ec27b1c7207c90574afa448,,1,0,98,39,1,97
,,,,,,,,,,,,,,,,,,,,,,,,,,,,,,,,,,,,,,,,,,l,2.295000076,GLOBAL,FALSE,,,,,,,43,globo,Spanish,Sounds/spa_globo.mp3,2020-06-08_18h11.04.154,TranslationElicitation_eng-prolific,3.2.4,MacIntel,60,5ec27b1c7207c90574afa448,,1,0,98,39,1,97
,,,,,,,,,,,,,,,,,,,,,,,,,,,,,,,,,,,,,,,,,,return,2.728000164,GLOBAL,FALSE,,,,,,,43,globo,Spanish,Sounds/spa_globo.mp3,2020-06-08_18h11.04.154,TranslationElicitation_eng-prolific,3.2.4,MacIntel,60,5ec27b1c7207c90574afa448,2.728000164,1,0,98,39,1,97
,,,,,,,,,,,,,,,,,,,,,,,,,,,,,,,,,,,,,,,,,,,,,,,,,,,,43,globo,Spanish,Sounds/spa_globo.mp3,2020-06-08_18h11.04.154,TranslationElicitation_eng-prolific,3.2.4,MacIntel,60,5ec27b1c7207c90574afa448,,1,0,98,39,1,97
,,,,,,,,,,,,,,,,,,,,,,,,,,,,,,,,,,,,,,,,,,f,1.680000067,F,FALSE,,,,,,,21,cebra,Spanish,Sounds/spa_cebra.mp3,2020-06-08_18h11.04.154,TranslationElicitation_eng-prolific,3.2.4,MacIntel,60,5ec27b1c7207c90574afa448,,1,0,98,19,1,97
,,,,,,,,,,,,,,,,,,,,,,,,,,,,,,,,,,,,,,,,,,a,1.878000021,FA,FALSE,,,,,,,21,cebra,Spanish,Sounds/spa_cebra.mp3,2020-06-08_18h11.04.154,TranslationElicitation_eng-prolific,3.2.4,MacIntel,60,5ec27b1c7207c90574afa448,,1,0,98,19,1,97
,,,,,,,,,,,,,,,,,,,,,,,,,,,,,,,,,,,,,,,,,,v,2.02699995,FAV,FALSE,,,,,,,21,cebra,Spanish,Sounds/spa_cebra.mp3,2020-06-08_18h11.04.154,TranslationElicitation_eng-prolific,3.2.4,MacIntel,60,5ec27b1c7207c90574afa448,,1,0,98,19,1,97
,,,,,,,,,,,,,,,,,,,,,,,,,,,,,,,,,,,,,,,,,,o,2.260999918,FAVO,FALSE,,,,,,,21,cebra,Spanish,Sounds/spa_cebra.mp3,2020-06-08_18h11.04.154,TranslationElicitation_eng-prolific,3.2.4,MacIntel,60,5ec27b1c7207c90574afa448,,1,0,98,19,1,97
,,,,,,,,,,,,,,,,,,,,,,,,,,,,,,,,,,,,,,,,,,u,2.326999903,FAVOU,FALSE,,,,,,,21,cebra,Spanish,Sounds/spa_cebra.mp3,2020-06-08_18h11.04.154,TranslationElicitation_eng-prolific,3.2.4,MacIntel,60,5ec27b1c7207c90574afa448,,1,0,98,19,1,97
,,,,,,,,,,,,,,,,,,,,,,,,,,,,,,,,,,,,,,,,,,r,2.411000013,FAVOUR,FALSE,,,,,,,21,cebra,Spanish,Sounds/spa_cebra.mp3,2020-06-08_18h11.04.154,TranslationElicitation_eng-prolific,3.2.4,MacIntel,60,5ec27b1c7207c90574afa448,,1,0,98,19,1,97
,,,,,,,,,,,,,,,,,,,,,,,,,,,,,,,,,,,,,,,,,,i,2.510999918,FAVOURI,FALSE,,,,,,,21,cebra,Spanish,Sounds/spa_cebra.mp3,2020-06-08_18h11.04.154,TranslationElicitation_eng-prolific,3.2.4,MacIntel,60,5ec27b1c7207c90574afa448,,1,0,98,19,1,97
,,,,,,,,,,,,,,,,,,,,,,,,,,,,,,,,,,,,,,,,,,t,2.724999905,FAVOURIT,FALSE,,,,,,,21,cebra,Spanish,Sounds/spa_cebra.mp3,2020-06-08_18h11.04.154,TranslationElicitation_eng-prolific,3.2.4,MacIntel,60,5ec27b1c7207c90574afa448,,1,0,98,19,1,97
,,,,,,,,,,,,,,,,,,,,,,,,,,,,,,,,,,,,,,,,,,e,2.77699995,FAVOURITE,FALSE,,,,,,,21,cebra,Spanish,Sounds/spa_cebra.mp3,2020-06-08_18h11.04.154,TranslationElicitation_eng-prolific,3.2.4,MacIntel,60,5ec27b1c7207c90574afa448,,1,0,98,19,1,97
,,,,,,,,,,,,,,,,,,,,,,,,,,,,,,,,,,,,,,,,,,return,3.026000023,FAVOURITE,FALSE,,,,,,,21,cebra,Spanish,Sounds/spa_cebra.mp3,2020-06-08_18h11.04.154,TranslationElicitation_eng-prolific,3.2.4,MacIntel,60,5ec27b1c7207c90574afa448,3.026000023,1,0,98,19,1,97
,,,,,,,,,,,,,,,,,,,,,,,,,,,,,,,,,,,,,,,,,,,,,,,,,,,,21,cebra,Spanish,Sounds/spa_cebra.mp3,2020-06-08_18h11.04.154,TranslationElicitation_eng-prolific,3.2.4,MacIntel,60,5ec27b1c7207c90574afa448,,1,0,98,19,1,97
,,,,,,,,,,,,,,,,,,,,,,,,,,,,,,,,,,,,,,,,,,s,1.878000021,S,FALSE,,,,,,,92,sandwich,Spanish,Sounds/spa_sandwich.mp3,2020-06-08_18h11.04.154,TranslationElicitation_eng-prolific,3.2.4,MacIntel,60,5ec27b1c7207c90574afa448,,1,0,98,87,1,97
,,,,,,,,,,,,,,,,,,,,,,,,,,,,,,,,,,,,,,,,,,a,2.095000029,SA,FALSE,,,,,,,92,sandwich,Spanish,Sounds/spa_sandwich.mp3,2020-06-08_18h11.04.154,TranslationElicitation_eng-prolific,3.2.4,MacIntel,60,5ec27b1c7207c90574afa448,,1,0,98,87,1,97
,,,,,,,,,,,,,,,,,,,,,,,,,,,,,,,,,,,,,,,,,,n,2.260999918,SAN,FALSE,,,,,,,92,sandwich,Spanish,Sounds/spa_sandwich.mp3,2020-06-08_18h11.04.154,TranslationElicitation_eng-prolific,3.2.4,MacIntel,60,5ec27b1c7207c90574afa448,,1,0,98,87,1,97
,,,,,,,,,,,,,,,,,,,,,,,,,,,,,,,,,,,,,,,,,,d,2.328000069,SAND,FALSE,,,,,,,92,sandwich,Spanish,Sounds/spa_sandwich.mp3,2020-06-08_18h11.04.154,TranslationElicitation_eng-prolific,3.2.4,MacIntel,60,5ec27b1c7207c90574afa448,,1,0,98,87,1,97
,,,,,,,,,,,,,,,,,,,,,,,,,,,,,,,,,,,,,,,,,,i,2.50999999,SANDI,FALSE,,,,,,,92,sandwich,Spanish,Sounds/spa_sandwich.mp3,2020-06-08_18h11.04.154,TranslationElicitation_eng-prolific,3.2.4,MacIntel,60,5ec27b1c7207c90574afa448,,1,0,98,87,1,97
,,,,,,,,,,,,,,,,,,,,,,,,,,,,,,,,,,,,,,,,,,w,2.610000134,SANDIW,FALSE,,,,,,,92,sandwich,Spanish,Sounds/spa_sandwich.mp3,2020-06-08_18h11.04.154,TranslationElicitation_eng-prolific,3.2.4,MacIntel,60,5ec27b1c7207c90574afa448,,1,0,98,87,1,97
,,,,,,,,,,,,,,,,,,,,,,,,,,,,,,,,,,,,,,,,,,backspace,3.059000015,SANDI,TRUE,,,,,,,92,sandwich,Spanish,Sounds/spa_sandwich.mp3,2020-06-08_18h11.04.154,TranslationElicitation_eng-prolific,3.2.4,MacIntel,60,5ec27b1c7207c90574afa448,,1,0,98,87,1,97
,,,,,,,,,,,,,,,,,,,,,,,,,,,,,,,,,,,,,,,,,,backspace,3.607000113,SAND,TRUE,,,,,,,92,sandwich,Spanish,Sounds/spa_sandwich.mp3,2020-06-08_18h11.04.154,TranslationElicitation_eng-prolific,3.2.4,MacIntel,60,5ec27b1c7207c90574afa448,,1,0,98,87,1,97
,,,,,,,,,,,,,,,,,,,,,,,,,,,,,,,,,,,,,,,,,,w,3.723999977,SANDW,TRUE,,,,,,,92,sandwich,Spanish,Sounds/spa_sandwich.mp3,2020-06-08_18h11.04.154,TranslationElicitation_eng-prolific,3.2.4,MacIntel,60,5ec27b1c7207c90574afa448,,1,0,98,87,1,97
,,,,,,,,,,,,,,,,,,,,,,,,,,,,,,,,,,,,,,,,,,i,3.845999956,SANDWI,TRUE,,,,,,,92,sandwich,Spanish,Sounds/spa_sandwich.mp3,2020-06-08_18h11.04.154,TranslationElicitation_eng-prolific,3.2.4,MacIntel,60,5ec27b1c7207c90574afa448,,1,0,98,87,1,97
,,,,,,,,,,,,,,,,,,,,,,,,,,,,,,,,,,,,,,,,,,c,3.97300005,SANDWIC,TRUE,,,,,,,92,sandwich,Spanish,Sounds/spa_sandwich.mp3,2020-06-08_18h11.04.154,TranslationElicitation_eng-prolific,3.2.4,MacIntel,60,5ec27b1c7207c90574afa448,,1,0,98,87,1,97
,,,,,,,,,,,,,,,,,,,,,,,,,,,,,,,,,,,,,,,,,,h,4.023000002,SANDWICH,TRUE,,,,,,,92,sandwich,Spanish,Sounds/spa_sandwich.mp3,2020-06-08_18h11.04.154,TranslationElicitation_eng-prolific,3.2.4,MacIntel,60,5ec27b1c7207c90574afa448,,1,0,98,87,1,97
,,,,,,,,,,,,,,,,,,,,,,,,,,,,,,,,,,,,,,,,,,return,4.421999931,SANDWICH,TRUE,,,,,,,92,sandwich,Spanish,Sounds/spa_sandwich.mp3,2020-06-08_18h11.04.154,TranslationElicitation_eng-prolific,3.2.4,MacIntel,60,5ec27b1c7207c90574afa448,4.421999931,1,0,98,87,1,97
,,,,,,,,,,,,,,,,,,,,,,,,,,,,,,,,,,,,,,,,,,,,,,,,,,,,92,sandwich,Spanish,Sounds/spa_sandwich.mp3,2020-06-08_18h11.04.154,TranslationElicitation_eng-prolific,3.2.4,MacIntel,60,5ec27b1c7207c90574afa448,,1,0,98,87,1,97
,,,,,,,,,,,,,,,,,,,,,,,,,,,,,,,,,,,,,,,,,,l,8.977999926,L,FALSE,,,,,,,57,loro,Spanish,Sounds/spa_loro.mp3,2020-06-08_18h11.04.154,TranslationElicitation_eng-prolific,3.2.4,MacIntel,60,5ec27b1c7207c90574afa448,,1,0,98,53,1,97
,,,,,,,,,,,,,,,,,,,,,,,,,,,,,,,,,,,,,,,,,,o,9.594000101,LO,FALSE,,,,,,,57,loro,Spanish,Sounds/spa_loro.mp3,2020-06-08_18h11.04.154,TranslationElicitation_eng-prolific,3.2.4,MacIntel,60,5ec27b1c7207c90574afa448,,1,0,98,53,1,97
,,,,,,,,,,,,,,,,,,,,,,,,,,,,,,,,,,,,,,,,,,w,9.677000046,LOW,FALSE,,,,,,,57,loro,Spanish,Sounds/spa_loro.mp3,2020-06-08_18h11.04.154,TranslationElicitation_eng-prolific,3.2.4,MacIntel,60,5ec27b1c7207c90574afa448,,1,0,98,53,1,97
,,,,,,,,,,,,,,,,,,,,,,,,,,,,,,,,,,,,,,,,,,return,10.05900002,LOW,FALSE,,,,,,,57,loro,Spanish,Sounds/spa_loro.mp3,2020-06-08_18h11.04.154,TranslationElicitation_eng-prolific,3.2.4,MacIntel,60,5ec27b1c7207c90574afa448,10.05900002,1,0,98,53,1,97
,,,,,,,,,,,,,,,,,,,,,,,,,,,,,,,,,,,,,,,,,,,,,,,,,,,,57,loro,Spanish,Sounds/spa_loro.mp3,2020-06-08_18h11.04.154,TranslationElicitation_eng-prolific,3.2.4,MacIntel,60,5ec27b1c7207c90574afa448,,1,0,98,53,1,97
,,,,,,,,,,,,,,,,,,,,,,,,,,,,,,,,,,,,,,,,,,s,3.808000088,S,FALSE,,,,,,,103,zanahoria,Spanish,Sounds/spa_zanahoria.mp3,2020-06-08_18h11.04.154,TranslationElicitation_eng-prolific,3.2.4,MacIntel,60,5ec27b1c7207c90574afa448,,1,0,98,97,1,97
,,,,,,,,,,,,,,,,,,,,,,,,,,,,,,,,,,,,,,,,,,a,5.519999981,SA,FALSE,,,,,,,103,zanahoria,Spanish,Sounds/spa_zanahoria.mp3,2020-06-08_18h11.04.154,TranslationElicitation_eng-prolific,3.2.4,MacIntel,60,5ec27b1c7207c90574afa448,,1,0,98,97,1,97
,,,,,,,,,,,,,,,,,,,,,,,,,,,,,,,,,,,,,,,,,,backspace,7.184000015,S,TRUE,,,,,,,103,zanahoria,Spanish,Sounds/spa_zanahoria.mp3,2020-06-08_18h11.04.154,TranslationElicitation_eng-prolific,3.2.4,MacIntel,60,5ec27b1c7207c90574afa448,,1,0,98,97,1,97
,,,,,,,,,,,,,,,,,,,,,,,,,,,,,,,,,,,,,,,,,,backspace,7.431999922,,TRUE,,,,,,,103,zanahoria,Spanish,Sounds/spa_zanahoria.mp3,2020-06-08_18h11.04.154,TranslationElicitation_eng-prolific,3.2.4,MacIntel,60,5ec27b1c7207c90574afa448,,1,0,98,97,1,97
,,,,,,,,,,,,,,,,,,,,,,,,,,,,,,,,,,,,,,,,,,u,7.683000088,U,TRUE,,,,,,,103,zanahoria,Spanish,Sounds/spa_zanahoria.mp3,2020-06-08_18h11.04.154,TranslationElicitation_eng-prolific,3.2.4,MacIntel,60,5ec27b1c7207c90574afa448,,1,0,98,97,1,97
,,,,,,,,,,,,,,,,,,,,,,,,,,,,,,,,,,,,,,,,,,backspace,8.265000105,,TRUE,,,,,,,103,zanahoria,Spanish,Sounds/spa_zanahoria.mp3,2020-06-08_18h11.04.154,TranslationElicitation_eng-prolific,3.2.4,MacIntel,60,5ec27b1c7207c90574afa448,,1,0,98,97,1,97
,,,,,,,,,,,,,,,,,,,,,,,,,,,,,,,,,,,,,,,,,,s,8.33100009,S,TRUE,,,,,,,103,zanahoria,Spanish,Sounds/spa_zanahoria.mp3,2020-06-08_18h11.04.154,TranslationElicitation_eng-prolific,3.2.4,MacIntel,60,5ec27b1c7207c90574afa448,,1,0,98,97,1,97
,,,,,,,,,,,,,,,,,,,,,,,,,,,,,,,,,,,,,,,,,,u,8.447000027,SU,TRUE,,,,,,,103,zanahoria,Spanish,Sounds/spa_zanahoria.mp3,2020-06-08_18h11.04.154,TranslationElicitation_eng-prolific,3.2.4,MacIntel,60,5ec27b1c7207c90574afa448,,1,0,98,97,1,97
,,,,,,,,,,,,,,,,,,,,,,,,,,,,,,,,,,,,,,,,,,n,8.796000004,SUN,TRUE,,,,,,,103,zanahoria,Spanish,Sounds/spa_zanahoria.mp3,2020-06-08_18h11.04.154,TranslationElicitation_eng-prolific,3.2.4,MacIntel,60,5ec27b1c7207c90574afa448,,1,0,98,97,1,97
,,,,,,,,,,,,,,,,,,,,,,,,,,,,,,,,,,,,,,,,,,n,8.963000059,SUNN,TRUE,,,,,,,103,zanahoria,Spanish,Sounds/spa_zanahoria.mp3,2020-06-08_18h11.04.154,TranslationElicitation_eng-prolific,3.2.4,MacIntel,60,5ec27b1c7207c90574afa448,,1,0,98,97,1,97
,,,,,,,,,,,,,,,,,,,,,,,,,,,,,,,,,,,,,,,,,,i,9.512000084,SUNNI,TRUE,,,,,,,103,zanahoria,Spanish,Sounds/spa_zanahoria.mp3,2020-06-08_18h11.04.154,TranslationElicitation_eng-prolific,3.2.4,MacIntel,60,5ec27b1c7207c90574afa448,,1,0,98,97,1,97
,,,,,,,,,,,,,,,,,,,,,,,,,,,,,,,,,,,,,,,,,,e,9.595000029,SUNNIE,TRUE,,,,,,,103,zanahoria,Spanish,Sounds/spa_zanahoria.mp3,2020-06-08_18h11.04.154,TranslationElicitation_eng-prolific,3.2.4,MacIntel,60,5ec27b1c7207c90574afa448,,1,0,98,97,1,97
,,,,,,,,,,,,,,,,,,,,,,,,,,,,,,,,,,,,,,,,,,r,9.743999958,SUNNIER,TRUE,,,,,,,103,zanahoria,Spanish,Sounds/spa_zanahoria.mp3,2020-06-08_18h11.04.154,TranslationElicitation_eng-prolific,3.2.4,MacIntel,60,5ec27b1c7207c90574afa448,,1,0,98,97,1,97
,,,,,,,,,,,,,,,,,,,,,,,,,,,,,,,,,,,,,,,,,,return,10.24399996,SUNNIER,TRUE,,,,,,,103,zanahoria,Spanish,Sounds/spa_zanahoria.mp3,2020-06-08_18h11.04.154,TranslationElicitation_eng-prolific,3.2.4,MacIntel,60,5ec27b1c7207c90574afa448,10.24399996,1,0,98,97,1,97
,,,,,,,,,,,,,,,,,,,,,,,,,,,,,,,,,,,,,,,,,,,,,,,,,,,,103,zanahoria,Spanish,Sounds/spa_zanahoria.mp3,2020-06-08_18h11.04.154,TranslationElicitation_eng-prolific,3.2.4,MacIntel,60,5ec27b1c7207c90574afa448,,1,0,98,97,1,97
,,,,,,,,,,,,,,,,,,,,,,,,,,,,,,,,,,,,,,,,,,p,1.712000132,P,FALSE,,,,,,,81,pelota,Spanish,Sounds/spa_pelota.mp3,2020-06-08_18h11.04.154,TranslationElicitation_eng-prolific,3.2.4,MacIntel,60,5ec27b1c7207c90574afa448,,1,0,98,76,1,97
,,,,,,,,,,,,,,,,,,,,,,,,,,,,,,,,,,,,,,,,,,i,6.617000103,PI,FALSE,,,,,,,81,pelota,Spanish,Sounds/spa_pelota.mp3,2020-06-08_18h11.04.154,TranslationElicitation_eng-prolific,3.2.4,MacIntel,60,5ec27b1c7207c90574afa448,,1,0,98,76,1,97
,,,,,,,,,,,,,,,,,,,,,,,,,,,,,,,,,,,,,,,,,,l,6.782999992,PIL,FALSE,,,,,,,81,pelota,Spanish,Sounds/spa_pelota.mp3,2020-06-08_18h11.04.154,TranslationElicitation_eng-prolific,3.2.4,MacIntel,60,5ec27b1c7207c90574afa448,,1,0,98,76,1,97
,,,,,,,,,,,,,,,,,,,,,,,,,,,,,,,,,,,,,,,,,,l,6.916000128,PILL,FALSE,,,,,,,81,pelota,Spanish,Sounds/spa_pelota.mp3,2020-06-08_18h11.04.154,TranslationElicitation_eng-prolific,3.2.4,MacIntel,60,5ec27b1c7207c90574afa448,,1,0,98,76,1,97
,,,,,,,,,,,,,,,,,,,,,,,,,,,,,,,,,,,,,,,,,,return,7.183000088,PILL,FALSE,,,,,,,81,pelota,Spanish,Sounds/spa_pelota.mp3,2020-06-08_18h11.04.154,TranslationElicitation_eng-prolific,3.2.4,MacIntel,60,5ec27b1c7207c90574afa448,7.183000088,1,0,98,76,1,97
,,,,,,,,,,,,,,,,,,,,,,,,,,,,,,,,,,,,,,,,,,,,,,,,,,,,81,pelota,Spanish,Sounds/spa_pelota.mp3,2020-06-08_18h11.04.154,TranslationElicitation_eng-prolific,3.2.4,MacIntel,60,5ec27b1c7207c90574afa448,,1,0,98,76,1,97
,,,,,,,,,,,,,,,,,,,,,,,,,,,,,,,,,,,,,,,,,,l,4.305999994,L,FALSE,,,,,,,56,libro,Spanish,Sounds/spa_libro.mp3,2020-06-08_18h11.04.154,TranslationElicitation_eng-prolific,3.2.4,MacIntel,60,5ec27b1c7207c90574afa448,,1,0,98,52,1,97
,,,,,,,,,,,,,,,,,,,,,,,,,,,,,,,,,,,,,,,,,,i,4.489000082,LI,FALSE,,,,,,,56,libro,Spanish,Sounds/spa_libro.mp3,2020-06-08_18h11.04.154,TranslationElicitation_eng-prolific,3.2.4,MacIntel,60,5ec27b1c7207c90574afa448,,1,0,98,52,1,97
,,,,,,,,,,,,,,,,,,,,,,,,,,,,,,,,,,,,,,,,,,v,4.805000067,LIV,FALSE,,,,,,,56,libro,Spanish,Sounds/spa_libro.mp3,2020-06-08_18h11.04.154,TranslationElicitation_eng-prolific,3.2.4,MacIntel,60,5ec27b1c7207c90574afa448,,1,0,98,52,1,97
,,,,,,,,,,,,,,,,,,,,,,,,,,,,,,,,,,,,,,,,,,e,4.888000011,LIVE,FALSE,,,,,,,56,libro,Spanish,Sounds/spa_libro.mp3,2020-06-08_18h11.04.154,TranslationElicitation_eng-prolific,3.2.4,MacIntel,60,5ec27b1c7207c90574afa448,,1,0,98,52,1,97
,,,,,,,,,,,,,,,,,,,,,,,,,,,,,,,,,,,,,,,,,,return,5.170000076,LIVE,FALSE,,,,,,,56,libro,Spanish,Sounds/spa_libro.mp3,2020-06-08_18h11.04.154,TranslationElicitation_eng-prolific,3.2.4,MacIntel,60,5ec27b1c7207c90574afa448,5.170000076,1,0,98,52,1,97
,,,,,,,,,,,,,,,,,,,,,,,,,,,,,,,,,,,,,,,,,,,,,,,,,,,,56,libro,Spanish,Sounds/spa_libro.mp3,2020-06-08_18h11.04.154,TranslationElicitation_eng-prolific,3.2.4,MacIntel,60,5ec27b1c7207c90574afa448,,1,0,98,52,1,97
,,,,,,,,,,,,,,,,,,,,,,,,,,,,,,,,,,,,,,,,,,g,3.27699995,G,FALSE,,,,,,,39,gafas,Spanish,Sounds/spa_gafas.mp3,2020-06-08_18h11.04.154,TranslationElicitation_eng-prolific,3.2.4,MacIntel,60,5ec27b1c7207c90574afa448,,1,0,98,35,1,97
,,,,,,,,,,,,,,,,,,,,,,,,,,,,,,,,,,,,,,,,,,a,3.358999968,GA,FALSE,,,,,,,39,gafas,Spanish,Sounds/spa_gafas.mp3,2020-06-08_18h11.04.154,TranslationElicitation_eng-prolific,3.2.4,MacIntel,60,5ec27b1c7207c90574afa448,,1,0,98,35,1,97
,,,,,,,,,,,,,,,,,,,,,,,,,,,,,,,,,,,,,,,,,,r,3.559999943,GAR,FALSE,,,,,,,39,gafas,Spanish,Sounds/spa_gafas.mp3,2020-06-08_18h11.04.154,TranslationElicitation_eng-prolific,3.2.4,MacIntel,60,5ec27b1c7207c90574afa448,,1,0,98,35,1,97
,,,,,,,,,,,,,,,,,,,,,,,,,,,,,,,,,,,,,,,,,,d,3.691999912,GARD,FALSE,,,,,,,39,gafas,Spanish,Sounds/spa_gafas.mp3,2020-06-08_18h11.04.154,TranslationElicitation_eng-prolific,3.2.4,MacIntel,60,5ec27b1c7207c90574afa448,,1,0,98,35,1,97
,,,,,,,,,,,,,,,,,,,,,,,,,,,,,,,,,,,,,,,,,,e,3.858999968,GARDE,FALSE,,,,,,,39,gafas,Spanish,Sounds/spa_gafas.mp3,2020-06-08_18h11.04.154,TranslationElicitation_eng-prolific,3.2.4,MacIntel,60,5ec27b1c7207c90574afa448,,1,0,98,35,1,97
,,,,,,,,,,,,,,,,,,,,,,,,,,,,,,,,,,,,,,,,,,n,3.907999992,GARDEN,FALSE,,,,,,,39,gafas,Spanish,Sounds/spa_gafas.mp3,2020-06-08_18h11.04.154,TranslationElicitation_eng-prolific,3.2.4,MacIntel,60,5ec27b1c7207c90574afa448,,1,0,98,35,1,97
,,,,,,,,,,,,,,,,,,,,,,,,,,,,,,,,,,,,,,,,,,n,4.056999922,GARDENN,FALSE,,,,,,,39,gafas,Spanish,Sounds/spa_gafas.mp3,2020-06-08_18h11.04.154,TranslationElicitation_eng-prolific,3.2.4,MacIntel,60,5ec27b1c7207c90574afa448,,1,0,98,35,1,97
,,,,,,,,,,,,,,,,,,,,,,,,,,,,,,,,,,,,,,,,,,e,4.107000113,GARDENNE,FALSE,,,,,,,39,gafas,Spanish,Sounds/spa_gafas.mp3,2020-06-08_18h11.04.154,TranslationElicitation_eng-prolific,3.2.4,MacIntel,60,5ec27b1c7207c90574afa448,,1,0,98,35,1,97
,,,,,,,,,,,,,,,,,,,,,,,,,,,,,,,,,,,,,,,,,,r,4.240999937,GARDENNER,FALSE,,,,,,,39,gafas,Spanish,Sounds/spa_gafas.mp3,2020-06-08_18h11.04.154,TranslationElicitation_eng-prolific,3.2.4,MacIntel,60,5ec27b1c7207c90574afa448,,1,0,98,35,1,97
,,,,,,,,,,,,,,,,,,,,,,,,,,,,,,,,,,,,,,,,,,backspace,4.523000002,GARDENNE,TRUE,,,,,,,39,gafas,Spanish,Sounds/spa_gafas.mp3,2020-06-08_18h11.04.154,TranslationElicitation_eng-prolific,3.2.4,MacIntel,60,5ec27b1c7207c90574afa448,,1,0,98,35,1,97
,,,,,,,,,,,,,,,,,,,,,,,,,,,,,,,,,,,,,,,,,,backspace,4.656000137,GARDENN,TRUE,,,,,,,39,gafas,Spanish,Sounds/spa_gafas.mp3,2020-06-08_18h11.04.154,TranslationElicitation_eng-prolific,3.2.4,MacIntel,60,5ec27b1c7207c90574afa448,,1,0,98,35,1,97
,,,,,,,,,,,,,,,,,,,,,,,,,,,,,,,,,,,,,,,,,,backspace,4.789999962,GARDEN,TRUE,,,,,,,39,gafas,Spanish,Sounds/spa_gafas.mp3,2020-06-08_18h11.04.154,TranslationElicitation_eng-prolific,3.2.4,MacIntel,60,5ec27b1c7207c90574afa448,,1,0,98,35,1,97
,,,,,,,,,,,,,,,,,,,,,,,,,,,,,,,,,,,,,,,,,,e,4.890000105,GARDENE,TRUE,,,,,,,39,gafas,Spanish,Sounds/spa_gafas.mp3,2020-06-08_18h11.04.154,TranslationElicitation_eng-prolific,3.2.4,MacIntel,60,5ec27b1c7207c90574afa448,,1,0,98,35,1,97
,,,,,,,,,,,,,,,,,,,,,,,,,,,,,,,,,,,,,,,,,,r,5.023000002,GARDENER,TRUE,,,,,,,39,gafas,Spanish,Sounds/spa_gafas.mp3,2020-06-08_18h11.04.154,TranslationElicitation_eng-prolific,3.2.4,MacIntel,60,5ec27b1c7207c90574afa448,,1,0,98,35,1,97
,,,,,,,,,,,,,,,,,,,,,,,,,,,,,,,,,,,,,,,,,,return,5.404000044,GARDENER,TRUE,,,,,,,39,gafas,Spanish,Sounds/spa_gafas.mp3,2020-06-08_18h11.04.154,TranslationElicitation_eng-prolific,3.2.4,MacIntel,60,5ec27b1c7207c90574afa448,5.404000044,1,0,98,35,1,97
,,,,,,,,,,,,,,,,,,,,,,,,,,,,,,,,,,,,,,,,,,,,,,,,,,,,39,gafas,Spanish,Sounds/spa_gafas.mp3,2020-06-08_18h11.04.154,TranslationElicitation_eng-prolific,3.2.4,MacIntel,60,5ec27b1c7207c90574afa448,,1,0,98,35,1,97
,,,,,,,,,,,,,,,,,,,,,,,,,,,,,,,,,,,,,,,,,,p,1.447000027,P,FALSE,,,,,,,10,botella,Spanish,Sounds/spa_botella.mp3,2020-06-08_18h11.04.154,TranslationElicitation_eng-prolific,3.2.4,MacIntel,60,5ec27b1c7207c90574afa448,,1,0,98,8,1,97
,,,,,,,,,,,,,,,,,,,,,,,,,,,,,,,,,,,,,,,,,,o,1.578999996,PO,FALSE,,,,,,,10,botella,Spanish,Sounds/spa_botella.mp3,2020-06-08_18h11.04.154,TranslationElicitation_eng-prolific,3.2.4,MacIntel,60,5ec27b1c7207c90574afa448,,1,0,98,8,1,97
,,,,,,,,,,,,,,,,,,,,,,,,,,,,,,,,,,,,,,,,,,t,1.845000029,POT,FALSE,,,,,,,10,botella,Spanish,Sounds/spa_botella.mp3,2020-06-08_18h11.04.154,TranslationElicitation_eng-prolific,3.2.4,MacIntel,60,5ec27b1c7207c90574afa448,,1,0,98,8,1,97
,,,,,,,,,,,,,,,,,,,,,,,,,,,,,,,,,,,,,,,,,,a,1.978000164,POTA,FALSE,,,,,,,10,botella,Spanish,Sounds/spa_botella.mp3,2020-06-08_18h11.04.154,TranslationElicitation_eng-prolific,3.2.4,MacIntel,60,5ec27b1c7207c90574afa448,,1,0,98,8,1,97
,,,,,,,,,,,,,,,,,,,,,,,,,,,,,,,,,,,,,,,,,,t,1.994000196,POTAT,FALSE,,,,,,,10,botella,Spanish,Sounds/spa_botella.mp3,2020-06-08_18h11.04.154,TranslationElicitation_eng-prolific,3.2.4,MacIntel,60,5ec27b1c7207c90574afa448,,1,0,98,8,1,97
,,,,,,,,,,,,,,,,,,,,,,,,,,,,,,,,,,,,,,,,,,o,2.777000189,POTATO,FALSE,,,,,,,10,botella,Spanish,Sounds/spa_botella.mp3,2020-06-08_18h11.04.154,TranslationElicitation_eng-prolific,3.2.4,MacIntel,60,5ec27b1c7207c90574afa448,,1,0,98,8,1,97
,,,,,,,,,,,,,,,,,,,,,,,,,,,,,,,,,,,,,,,,,,return,2.993000031,POTATO,FALSE,,,,,,,10,botella,Spanish,Sounds/spa_botella.mp3,2020-06-08_18h11.04.154,TranslationElicitation_eng-prolific,3.2.4,MacIntel,60,5ec27b1c7207c90574afa448,2.993000031,1,0,98,8,1,97
,,,,,,,,,,,,,,,,,,,,,,,,,,,,,,,,,,,,,,,,,,,,,,,,,,,,10,botella,Spanish,Sounds/spa_botella.mp3,2020-06-08_18h11.04.154,TranslationElicitation_eng-prolific,3.2.4,MacIntel,60,5ec27b1c7207c90574afa448,,1,0,98,8,1,97
,,,,,,,,,,,,,,,,,,,,,,,,,,,,,,,,,,,,,,,,,,c,4.30700016,C,FALSE,,,,,,,15,caballo,Spanish,Sounds/spa_caballo.mp3,2020-06-08_18h11.04.154,TranslationElicitation_eng-prolific,3.2.4,MacIntel,60,5ec27b1c7207c90574afa448,,1,0,98,13,1,97
,,,,,,,,,,,,,,,,,,,,,,,,,,,,,,,,,,,,,,,,,,a,4.508000135,CA,FALSE,,,,,,,15,caballo,Spanish,Sounds/spa_caballo.mp3,2020-06-08_18h11.04.154,TranslationElicitation_eng-prolific,3.2.4,MacIntel,60,5ec27b1c7207c90574afa448,,1,0,98,13,1,97
,,,,,,,,,,,,,,,,,,,,,,,,,,,,,,,,,,,,,,,,,,r,4.756999969,CAR,FALSE,,,,,,,15,caballo,Spanish,Sounds/spa_caballo.mp3,2020-06-08_18h11.04.154,TranslationElicitation_eng-prolific,3.2.4,MacIntel,60,5ec27b1c7207c90574afa448,,1,0,98,13,1,97
,,,,,,,,,,,,,,,,,,,,,,,,,,,,,,,,,,,,,,,,,,v,4.873000145,CARV,FALSE,,,,,,,15,caballo,Spanish,Sounds/spa_caballo.mp3,2020-06-08_18h11.04.154,TranslationElicitation_eng-prolific,3.2.4,MacIntel,60,5ec27b1c7207c90574afa448,,1,0,98,13,1,97
,,,,,,,,,,,,,,,,,,,,,,,,,,,,,,,,,,,,,,,,,,a,5.072000027,CARVA,FALSE,,,,,,,15,caballo,Spanish,Sounds/spa_caballo.mp3,2020-06-08_18h11.04.154,TranslationElicitation_eng-prolific,3.2.4,MacIntel,60,5ec27b1c7207c90574afa448,,1,0,98,13,1,97
,,,,,,,,,,,,,,,,,,,,,,,,,,,,,,,,,,,,,,,,,,l,5.338000059,CARVAL,FALSE,,,,,,,15,caballo,Spanish,Sounds/spa_caballo.mp3,2020-06-08_18h11.04.154,TranslationElicitation_eng-prolific,3.2.4,MacIntel,60,5ec27b1c7207c90574afa448,,1,0,98,13,1,97
,,,,,,,,,,,,,,,,,,,,,,,,,,,,,,,,,,,,,,,,,,h,6.019999981,CARVALH,FALSE,,,,,,,15,caballo,Spanish,Sounds/spa_caballo.mp3,2020-06-08_18h11.04.154,TranslationElicitation_eng-prolific,3.2.4,MacIntel,60,5ec27b1c7207c90574afa448,,1,0,98,13,1,97
,,,,,,,,,,,,,,,,,,,,,,,,,,,,,,,,,,,,,,,,,,o,6.253000021,CARVALHO,FALSE,,,,,,,15,caballo,Spanish,Sounds/spa_caballo.mp3,2020-06-08_18h11.04.154,TranslationElicitation_eng-prolific,3.2.4,MacIntel,60,5ec27b1c7207c90574afa448,,1,0,98,13,1,97
,,,,,,,,,,,,,,,,,,,,,,,,,,,,,,,,,,,,,,,,,,return,7.034000158,CARVALHO,FALSE,,,,,,,15,caballo,Spanish,Sounds/spa_caballo.mp3,2020-06-08_18h11.04.154,TranslationElicitation_eng-prolific,3.2.4,MacIntel,60,5ec27b1c7207c90574afa448,7.034000158,1,0,98,13,1,97
,,,,,,,,,,,,,,,,,,,,,,,,,,,,,,,,,,,,,,,,,,,,,,,,,,,,15,caballo,Spanish,Sounds/spa_caballo.mp3,2020-06-08_18h11.04.154,TranslationElicitation_eng-prolific,3.2.4,MacIntel,60,5ec27b1c7207c90574afa448,,1,0,98,13,1,97
,,,,,,,,,,,,,,,,,,,,,,,,,,,,,,,,,,,,,,,,,,s,5.503999949,S,FALSE,,,,,,,72,osito,Spanish,Sounds/spa_osito.mp3,2020-06-08_18h11.04.154,TranslationElicitation_eng-prolific,3.2.4,MacIntel,60,5ec27b1c7207c90574afa448,,1,0,98,67,1,97
,,,,,,,,,,,,,,,,,,,,,,,,,,,,,,,,,,,,,,,,,,e,5.654000044,SE,FALSE,,,,,,,72,osito,Spanish,Sounds/spa_osito.mp3,2020-06-08_18h11.04.154,TranslationElicitation_eng-prolific,3.2.4,MacIntel,60,5ec27b1c7207c90574afa448,,1,0,98,67,1,97
,,,,,,,,,,,,,,,,,,,,,,,,,,,,,,,,,,,,,,,,,,r,5.836999893,SER,FALSE,,,,,,,72,osito,Spanish,Sounds/spa_osito.mp3,2020-06-08_18h11.04.154,TranslationElicitation_eng-prolific,3.2.4,MacIntel,60,5ec27b1c7207c90574afa448,,1,0,98,67,1,97
,,,,,,,,,,,,,,,,,,,,,,,,,,,,,,,,,,,,,,,,,,v,5.953999996,SERV,FALSE,,,,,,,72,osito,Spanish,Sounds/spa_osito.mp3,2020-06-08_18h11.04.154,TranslationElicitation_eng-prolific,3.2.4,MacIntel,60,5ec27b1c7207c90574afa448,,1,0,98,67,1,97
,,,,,,,,,,,,,,,,,,,,,,,,,,,,,,,,,,,,,,,,,,a,6.085999966,SERVA,FALSE,,,,,,,72,osito,Spanish,Sounds/spa_osito.mp3,2020-06-08_18h11.04.154,TranslationElicitation_eng-prolific,3.2.4,MacIntel,60,5ec27b1c7207c90574afa448,,1,0,98,67,1,97
,,,,,,,,,,,,,,,,,,,,,,,,,,,,,,,,,,,,,,,,,,n,6.16899991,SERVAN,FALSE,,,,,,,72,osito,Spanish,Sounds/spa_osito.mp3,2020-06-08_18h11.04.154,TranslationElicitation_eng-prolific,3.2.4,MacIntel,60,5ec27b1c7207c90574afa448,,1,0,98,67,1,97
,,,,,,,,,,,,,,,,,,,,,,,,,,,,,,,,,,,,,,,,,,t,6.368000031,SERVANT,FALSE,,,,,,,72,osito,Spanish,Sounds/spa_osito.mp3,2020-06-08_18h11.04.154,TranslationElicitation_eng-prolific,3.2.4,MacIntel,60,5ec27b1c7207c90574afa448,,1,0,98,67,1,97
,,,,,,,,,,,,,,,,,,,,,,,,,,,,,,,,,,,,,,,,,,return,6.700999975,SERVANT,FALSE,,,,,,,72,osito,Spanish,Sounds/spa_osito.mp3,2020-06-08_18h11.04.154,TranslationElicitation_eng-prolific,3.2.4,MacIntel,60,5ec27b1c7207c90574afa448,6.700999975,1,0,98,67,1,97
,,,,,,,,,,,,,,,,,,,,,,,,,,,,,,,,,,,,,,,,,,,,,,,,,,,,72,osito,Spanish,Sounds/spa_osito.mp3,2020-06-08_18h11.04.154,TranslationElicitation_eng-prolific,3.2.4,MacIntel,60,5ec27b1c7207c90574afa448,,1,0,98,67,1,97
,,,,,,,,,,,,,,,,,,,,,,,,,,,,,,,,,,,,,,,,,,r,2.428999901,R,FALSE,,,,,,,71,ombligo,Spanish,Sounds/spa_ombligo.mp3,2020-06-08_18h11.04.154,TranslationElicitation_eng-prolific,3.2.4,MacIntel,60,5ec27b1c7207c90574afa448,,1,0,98,66,1,97
,,,,,,,,,,,,,,,,,,,,,,,,,,,,,,,,,,,,,,,,,,i,2.493999958,RI,FALSE,,,,,,,71,ombligo,Spanish,Sounds/spa_ombligo.mp3,2020-06-08_18h11.04.154,TranslationElicitation_eng-prolific,3.2.4,MacIntel,60,5ec27b1c7207c90574afa448,,1,0,98,66,1,97
,,,,,,,,,,,,,,,,,,,,,,,,,,,,,,,,,,,,,,,,,,n,2.661000013,RIN,FALSE,,,,,,,71,ombligo,Spanish,Sounds/spa_ombligo.mp3,2020-06-08_18h11.04.154,TranslationElicitation_eng-prolific,3.2.4,MacIntel,60,5ec27b1c7207c90574afa448,,1,0,98,66,1,97
,,,,,,,,,,,,,,,,,,,,,,,,,,,,,,,,,,,,,,,,,,g,2.825999975,RING,FALSE,,,,,,,71,ombligo,Spanish,Sounds/spa_ombligo.mp3,2020-06-08_18h11.04.154,TranslationElicitation_eng-prolific,3.2.4,MacIntel,60,5ec27b1c7207c90574afa448,,1,0,98,66,1,97
,,,,,,,,,,,,,,,,,,,,,,,,,,,,,,,,,,,,,,,,,,return,3.076999903,RING,FALSE,,,,,,,71,ombligo,Spanish,Sounds/spa_ombligo.mp3,2020-06-08_18h11.04.154,TranslationElicitation_eng-prolific,3.2.4,MacIntel,60,5ec27b1c7207c90574afa448,3.076999903,1,0,98,66,1,97
,,,,,,,,,,,,,,,,,,,,,,,,,,,,,,,,,,,,,,,,,,,,,,,,,,,,71,ombligo,Spanish,Sounds/spa_ombligo.mp3,2020-06-08_18h11.04.154,TranslationElicitation_eng-prolific,3.2.4,MacIntel,60,5ec27b1c7207c90574afa448,,1,0,98,66,1,97
,,,,,,,,,,,,,,,,,,,,,,,,,,,,,,,,,,,,,,,,,,b,2.659999847,B,FALSE,,,,,,,12,brazo,Spanish,Sounds/spa_brazo.mp3,2020-06-08_18h11.04.154,TranslationElicitation_eng-prolific,3.2.4,MacIntel,60,5ec27b1c7207c90574afa448,,1,0,98,10,1,97
,,,,,,,,,,,,,,,,,,,,,,,,,,,,,,,,,,,,,,,,,,r,2.858999968,BR,FALSE,,,,,,,12,brazo,Spanish,Sounds/spa_brazo.mp3,2020-06-08_18h11.04.154,TranslationElicitation_eng-prolific,3.2.4,MacIntel,60,5ec27b1c7207c90574afa448,,1,0,98,10,1,97
,,,,,,,,,,,,,,,,,,,,,,,,,,,,,,,,,,,,,,,,,,backspace,4.256999969,B,TRUE,,,,,,,12,brazo,Spanish,Sounds/spa_brazo.mp3,2020-06-08_18h11.04.154,TranslationElicitation_eng-prolific,3.2.4,MacIntel,60,5ec27b1c7207c90574afa448,,1,0,98,10,1,97
,,,,,,,,,,,,,,,,,,,,,,,,,,,,,,,,,,,,,,,,,,backspace,4.787999868,,TRUE,,,,,,,12,brazo,Spanish,Sounds/spa_brazo.mp3,2020-06-08_18h11.04.154,TranslationElicitation_eng-prolific,3.2.4,MacIntel,60,5ec27b1c7207c90574afa448,,1,0,98,10,1,97
,,,,,,,,,,,,,,,,,,,,,,,,,,,,,,,,,,,,,,,,,,b,5.138000011,B,TRUE,,,,,,,12,brazo,Spanish,Sounds/spa_brazo.mp3,2020-06-08_18h11.04.154,TranslationElicitation_eng-prolific,3.2.4,MacIntel,60,5ec27b1c7207c90574afa448,,1,0,98,10,1,97
,,,,,,,,,,,,,,,,,,,,,,,,,,,,,,,,,,,,,,,,,,a,5.203999996,BA,TRUE,,,,,,,12,brazo,Spanish,Sounds/spa_brazo.mp3,2020-06-08_18h11.04.154,TranslationElicitation_eng-prolific,3.2.4,MacIntel,60,5ec27b1c7207c90574afa448,,1,0,98,10,1,97
,,,,,,,,,,,,,,,,,,,,,,,,,,,,,,,,,,,,,,,,,,r,5.385999918,BAR,TRUE,,,,,,,12,brazo,Spanish,Sounds/spa_brazo.mp3,2020-06-08_18h11.04.154,TranslationElicitation_eng-prolific,3.2.4,MacIntel,60,5ec27b1c7207c90574afa448,,1,0,98,10,1,97
,,,,,,,,,,,,,,,,,,,,,,,,,,,,,,,,,,,,,,,,,,return,5.684999943,BAR,TRUE,,,,,,,12,brazo,Spanish,Sounds/spa_brazo.mp3,2020-06-08_18h11.04.154,TranslationElicitation_eng-prolific,3.2.4,MacIntel,60,5ec27b1c7207c90574afa448,5.684999943,1,0,98,10,1,97
,,,,,,,,,,,,,,,,,,,,,,,,,,,,,,,,,,,,,,,,,,,,,,,,,,,,12,brazo,Spanish,Sounds/spa_brazo.mp3,2020-06-08_18h11.04.154,TranslationElicitation_eng-prolific,3.2.4,MacIntel,60,5ec27b1c7207c90574afa448,,1,0,98,10,1,97
,,,,,,,,,,,,,,,,,,,,,,,,,,,,,,,,,,,,,,,,,,p,1.646000147,P,FALSE,,,,,,,83,pez,Spanish,Sounds/spa_pez.mp3,2020-06-08_18h11.04.154,TranslationElicitation_eng-prolific,3.2.4,MacIntel,60,5ec27b1c7207c90574afa448,,1,0,98,78,1,97
,,,,,,,,,,,,,,,,,,,,,,,,,,,,,,,,,,,,,,,,,,e,1.712000132,PE,FALSE,,,,,,,83,pez,Spanish,Sounds/spa_pez.mp3,2020-06-08_18h11.04.154,TranslationElicitation_eng-prolific,3.2.4,MacIntel,60,5ec27b1c7207c90574afa448,,1,0,98,78,1,97
,,,,,,,,,,,,,,,,,,,,,,,,,,,,,,,,,,,,,,,,,,a,1.912000179,PEA,FALSE,,,,,,,83,pez,Spanish,Sounds/spa_pez.mp3,2020-06-08_18h11.04.154,TranslationElicitation_eng-prolific,3.2.4,MacIntel,60,5ec27b1c7207c90574afa448,,1,0,98,78,1,97
,,,,,,,,,,,,,,,,,,,,,,,,,,,,,,,,,,,,,,,,,,r,2.111999989,PEAR,FALSE,,,,,,,83,pez,Spanish,Sounds/spa_pez.mp3,2020-06-08_18h11.04.154,TranslationElicitation_eng-prolific,3.2.4,MacIntel,60,5ec27b1c7207c90574afa448,,1,0,98,78,1,97
,,,,,,,,,,,,,,,,,,,,,,,,,,,,,,,,,,,,,,,,,,return,2.195000172,PEAR,FALSE,,,,,,,83,pez,Spanish,Sounds/spa_pez.mp3,2020-06-08_18h11.04.154,TranslationElicitation_eng-prolific,3.2.4,MacIntel,60,5ec27b1c7207c90574afa448,2.195000172,1,0,98,78,1,97
,,,,,,,,,,,,,,,,,,,,,,,,,,,,,,,,,,,,,,,,,,,,,,,,,,,,83,pez,Spanish,Sounds/spa_pez.mp3,2020-06-08_18h11.04.154,TranslationElicitation_eng-prolific,3.2.4,MacIntel,60,5ec27b1c7207c90574afa448,,1,0,98,78,1,97
,,,,,,,,,,,,,,,,,,,,,,,,,,,,,,,,,,,,,,,,,,s,3.076999903,S,FALSE,,,,,,,48,gusano,Spanish,Sounds/spa_gusano.mp3,2020-06-08_18h11.04.154,TranslationElicitation_eng-prolific,3.2.4,MacIntel,60,5ec27b1c7207c90574afa448,,1,0,98,44,1,97
,,,,,,,,,,,,,,,,,,,,,,,,,,,,,,,,,,,,,,,,,,e,3.27699995,SE,FALSE,,,,,,,48,gusano,Spanish,Sounds/spa_gusano.mp3,2020-06-08_18h11.04.154,TranslationElicitation_eng-prolific,3.2.4,MacIntel,60,5ec27b1c7207c90574afa448,,1,0,98,44,1,97
,,,,,,,,,,,,,,,,,,,,,,,,,,,,,,,,,,,,,,,,,,r,3.409999847,SER,FALSE,,,,,,,48,gusano,Spanish,Sounds/spa_gusano.mp3,2020-06-08_18h11.04.154,TranslationElicitation_eng-prolific,3.2.4,MacIntel,60,5ec27b1c7207c90574afa448,,1,0,98,44,1,97
,,,,,,,,,,,,,,,,,,,,,,,,,,,,,,,,,,,,,,,,,,v,3.542999983,SERV,FALSE,,,,,,,48,gusano,Spanish,Sounds/spa_gusano.mp3,2020-06-08_18h11.04.154,TranslationElicitation_eng-prolific,3.2.4,MacIntel,60,5ec27b1c7207c90574afa448,,1,0,98,44,1,97
,,,,,,,,,,,,,,,,,,,,,,,,,,,,,,,,,,,,,,,,,,a,3.64199996,SERVA,FALSE,,,,,,,48,gusano,Spanish,Sounds/spa_gusano.mp3,2020-06-08_18h11.04.154,TranslationElicitation_eng-prolific,3.2.4,MacIntel,60,5ec27b1c7207c90574afa448,,1,0,98,44,1,97
,,,,,,,,,,,,,,,,,,,,,,,,,,,,,,,,,,,,,,,,,,n,3.741999865,SERVAN,FALSE,,,,,,,48,gusano,Spanish,Sounds/spa_gusano.mp3,2020-06-08_18h11.04.154,TranslationElicitation_eng-prolific,3.2.4,MacIntel,60,5ec27b1c7207c90574afa448,,1,0,98,44,1,97
,,,,,,,,,,,,,,,,,,,,,,,,,,,,,,,,,,,,,,,,,,t,3.990999937,SERVANT,FALSE,,,,,,,48,gusano,Spanish,Sounds/spa_gusano.mp3,2020-06-08_18h11.04.154,TranslationElicitation_eng-prolific,3.2.4,MacIntel,60,5ec27b1c7207c90574afa448,,1,0,98,44,1,97
,,,,,,,,,,,,,,,,,,,,,,,,,,,,,,,,,,,,,,,,,,return,4.439999819,SERVANT,FALSE,,,,,,,48,gusano,Spanish,Sounds/spa_gusano.mp3,2020-06-08_18h11.04.154,TranslationElicitation_eng-prolific,3.2.4,MacIntel,60,5ec27b1c7207c90574afa448,4.439999819,1,0,98,44,1,97
,,,,,,,,,,,,,,,,,,,,,,,,,,,,,,,,,,,,,,,,,,,,,,,,,,,,48,gusano,Spanish,Sounds/spa_gusano.mp3,2020-06-08_18h11.04.154,TranslationElicitation_eng-prolific,3.2.4,MacIntel,60,5ec27b1c7207c90574afa448,,1,0,98,44,1,97
,,,,,,,,,,,,,,,,,,,,,,,,,,,,,,,,,,,,,,,,,,c,1.345999956,C,FALSE,,,,,,,16,caja,Spanish,Sounds/spa_caja.mp3,2020-06-08_18h11.04.154,TranslationElicitation_eng-prolific,3.2.4,MacIntel,60,5ec27b1c7207c90574afa448,,1,0,98,14,1,97
,,,,,,,,,,,,,,,,,,,,,,,,,,,,,,,,,,,,,,,,,,a,1.562000036,CA,FALSE,,,,,,,16,caja,Spanish,Sounds/spa_caja.mp3,2020-06-08_18h11.04.154,TranslationElicitation_eng-prolific,3.2.4,MacIntel,60,5ec27b1c7207c90574afa448,,1,0,98,14,1,97
,,,,,,,,,,,,,,,,,,,,,,,,,,,,,,,,,,,,,,,,,,r,1.779000044,CAR,FALSE,,,,,,,16,caja,Spanish,Sounds/spa_caja.mp3,2020-06-08_18h11.04.154,TranslationElicitation_eng-prolific,3.2.4,MacIntel,60,5ec27b1c7207c90574afa448,,1,0,98,14,1,97
,,,,,,,,,,,,,,,,,,,,,,,,,,,,,,,,,,,,,,,,,,return,2.010999918,CAR,FALSE,,,,,,,16,caja,Spanish,Sounds/spa_caja.mp3,2020-06-08_18h11.04.154,TranslationElicitation_eng-prolific,3.2.4,MacIntel,60,5ec27b1c7207c90574afa448,2.010999918,1,0,98,14,1,97
,,,,,,,,,,,,,,,,,,,,,,,,,,,,,,,,,,,,,,,,,,,,,,,,,,,,16,caja,Spanish,Sounds/spa_caja.mp3,2020-06-08_18h11.04.154,TranslationElicitation_eng-prolific,3.2.4,MacIntel,60,5ec27b1c7207c90574afa448,,1,0,98,14,1,97
,,,,,,,,,,,,,,,,,,,,,,,,,,,,,,,,,,,,,,,,,,k,2.992999792,K,FALSE,,,,,,,20,caracol,Spanish,Sounds/spa_caracol.mp3,2020-06-08_18h11.04.154,TranslationElicitation_eng-prolific,3.2.4,MacIntel,60,5ec27b1c7207c90574afa448,,1,0,98,18,1,97
,,,,,,,,,,,,,,,,,,,,,,,,,,,,,,,,,,,,,,,,,,a,3.358999968,KA,FALSE,,,,,,,20,caracol,Spanish,Sounds/spa_caracol.mp3,2020-06-08_18h11.04.154,TranslationElicitation_eng-prolific,3.2.4,MacIntel,60,5ec27b1c7207c90574afa448,,1,0,98,18,1,97
,,,,,,,,,,,,,,,,,,,,,,,,,,,,,,,,,,,,,,,,,,r,3.590999842,KAR,FALSE,,,,,,,20,caracol,Spanish,Sounds/spa_caracol.mp3,2020-06-08_18h11.04.154,TranslationElicitation_eng-prolific,3.2.4,MacIntel,60,5ec27b1c7207c90574afa448,,1,0,98,18,1,97
,,,,,,,,,,,,,,,,,,,,,,,,,,,,,,,,,,,,,,,,,,e,3.906999826,KARE,FALSE,,,,,,,20,caracol,Spanish,Sounds/spa_caracol.mp3,2020-06-08_18h11.04.154,TranslationElicitation_eng-prolific,3.2.4,MacIntel,60,5ec27b1c7207c90574afa448,,1,0,98,18,1,97
,,,,,,,,,,,,,,,,,,,,,,,,,,,,,,,,,,,,,,,,,,o,4.155999899,KAREO,FALSE,,,,,,,20,caracol,Spanish,Sounds/spa_caracol.mp3,2020-06-08_18h11.04.154,TranslationElicitation_eng-prolific,3.2.4,MacIntel,60,5ec27b1c7207c90574afa448,,1,0,98,18,1,97
,,,,,,,,,,,,,,,,,,,,,,,,,,,,,,,,,,,,,,,,,,k,4.356999874,KAREOK,FALSE,,,,,,,20,caracol,Spanish,Sounds/spa_caracol.mp3,2020-06-08_18h11.04.154,TranslationElicitation_eng-prolific,3.2.4,MacIntel,60,5ec27b1c7207c90574afa448,,1,0,98,18,1,97
,,,,,,,,,,,,,,,,,,,,,,,,,,,,,,,,,,,,,,,,,,backspace,4.655999899,KAREO,TRUE,,,,,,,20,caracol,Spanish,Sounds/spa_caracol.mp3,2020-06-08_18h11.04.154,TranslationElicitation_eng-prolific,3.2.4,MacIntel,60,5ec27b1c7207c90574afa448,,1,0,98,18,1,97
,,,,,,,,,,,,,,,,,,,,,,,,,,,,,,,,,,,,,,,,,,backspace,4.822999954,KARE,TRUE,,,,,,,20,caracol,Spanish,Sounds/spa_caracol.mp3,2020-06-08_18h11.04.154,TranslationElicitation_eng-prolific,3.2.4,MacIntel,60,5ec27b1c7207c90574afa448,,1,0,98,18,1,97
,,,,,,,,,,,,,,,,,,,,,,,,,,,,,,,,,,,,,,,,,,backspace,5.021999836,KAR,TRUE,,,,,,,20,caracol,Spanish,Sounds/spa_caracol.mp3,2020-06-08_18h11.04.154,TranslationElicitation_eng-prolific,3.2.4,MacIntel,60,5ec27b1c7207c90574afa448,,1,0,98,18,1,97
,,,,,,,,,,,,,,,,,,,,,,,,,,,,,,,,,,,,,,,,,,backspace,5.270999908,KA,TRUE,,,,,,,20,caracol,Spanish,Sounds/spa_caracol.mp3,2020-06-08_18h11.04.154,TranslationElicitation_eng-prolific,3.2.4,MacIntel,60,5ec27b1c7207c90574afa448,,1,0,98,18,1,97
,,,,,,,,,,,,,,,,,,,,,,,,,,,,,,,,,,,,,,,,,,backspace,6.0849998,K,TRUE,,,,,,,20,caracol,Spanish,Sounds/spa_caracol.mp3,2020-06-08_18h11.04.154,TranslationElicitation_eng-prolific,3.2.4,MacIntel,60,5ec27b1c7207c90574afa448,,1,0,98,18,1,97
,,,,,,,,,,,,,,,,,,,,,,,,,,,,,,,,,,,,,,,,,,backspace,6.253000021,,TRUE,,,,,,,20,caracol,Spanish,Sounds/spa_caracol.mp3,2020-06-08_18h11.04.154,TranslationElicitation_eng-prolific,3.2.4,MacIntel,60,5ec27b1c7207c90574afa448,,1,0,98,18,1,97
,,,,,,,,,,,,,,,,,,,,,,,,,,,,,,,,,,,,,,,,,,s,6.717999935,S,TRUE,,,,,,,20,caracol,Spanish,Sounds/spa_caracol.mp3,2020-06-08_18h11.04.154,TranslationElicitation_eng-prolific,3.2.4,MacIntel,60,5ec27b1c7207c90574afa448,,1,0,98,18,1,97
,,,,,,,,,,,,,,,,,,,,,,,,,,,,,,,,,,,,,,,,,,i,6.833999872,SI,TRUE,,,,,,,20,caracol,Spanish,Sounds/spa_caracol.mp3,2020-06-08_18h11.04.154,TranslationElicitation_eng-prolific,3.2.4,MacIntel,60,5ec27b1c7207c90574afa448,,1,0,98,18,1,97
,,,,,,,,,,,,,,,,,,,,,,,,,,,,,,,,,,,,,,,,,,n,7,SIN,TRUE,,,,,,,20,caracol,Spanish,Sounds/spa_caracol.mp3,2020-06-08_18h11.04.154,TranslationElicitation_eng-prolific,3.2.4,MacIntel,60,5ec27b1c7207c90574afa448,,1,0,98,18,1,97
,,,,,,,,,,,,,,,,,,,,,,,,,,,,,,,,,,,,,,,,,,g,7.133999825,SING,TRUE,,,,,,,20,caracol,Spanish,Sounds/spa_caracol.mp3,2020-06-08_18h11.04.154,TranslationElicitation_eng-prolific,3.2.4,MacIntel,60,5ec27b1c7207c90574afa448,,1,0,98,18,1,97
,,,,,,,,,,,,,,,,,,,,,,,,,,,,,,,,,,,,,,,,,,i,7.315999985,SINGI,TRUE,,,,,,,20,caracol,Spanish,Sounds/spa_caracol.mp3,2020-06-08_18h11.04.154,TranslationElicitation_eng-prolific,3.2.4,MacIntel,60,5ec27b1c7207c90574afa448,,1,0,98,18,1,97
,,,,,,,,,,,,,,,,,,,,,,,,,,,,,,,,,,,,,,,,,,n,7.464999914,SINGIN,TRUE,,,,,,,20,caracol,Spanish,Sounds/spa_caracol.mp3,2020-06-08_18h11.04.154,TranslationElicitation_eng-prolific,3.2.4,MacIntel,60,5ec27b1c7207c90574afa448,,1,0,98,18,1,97
,,,,,,,,,,,,,,,,,,,,,,,,,,,,,,,,,,,,,,,,,,g,7.598999977,SINGING,TRUE,,,,,,,20,caracol,Spanish,Sounds/spa_caracol.mp3,2020-06-08_18h11.04.154,TranslationElicitation_eng-prolific,3.2.4,MacIntel,60,5ec27b1c7207c90574afa448,,1,0,98,18,1,97
,,,,,,,,,,,,,,,,,,,,,,,,,,,,,,,,,,,,,,,,,,return,7.880999804,SINGING,TRUE,,,,,,,20,caracol,Spanish,Sounds/spa_caracol.mp3,2020-06-08_18h11.04.154,TranslationElicitation_eng-prolific,3.2.4,MacIntel,60,5ec27b1c7207c90574afa448,7.880999804,1,0,98,18,1,97
,,,,,,,,,,,,,,,,,,,,,,,,,,,,,,,,,,,,,,,,,,,,,,,,,,,,20,caracol,Spanish,Sounds/spa_caracol.mp3,2020-06-08_18h11.04.154,TranslationElicitation_eng-prolific,3.2.4,MacIntel,60,5ec27b1c7207c90574afa448,,1,0,98,18,1,97
,,,,,,,,,,,,,,,,,,,,,,,,,,,,,,,,,,,,,,,,,,e,3.947999954,E,FALSE,,,,,,,18,camisa,Spanish,Sounds/spa_camisa.mp3,2020-06-08_18h11.04.154,TranslationElicitation_eng-prolific,3.2.4,MacIntel,60,5ec27b1c7207c90574afa448,,1,0,98,16,1,97
,,,,,,,,,,,,,,,,,,,,,,,,,,,,,,,,,,,,,,,,,,t,4.22300005,ET,FALSE,,,,,,,18,camisa,Spanish,Sounds/spa_camisa.mp3,2020-06-08_18h11.04.154,TranslationElicitation_eng-prolific,3.2.4,MacIntel,60,5ec27b1c7207c90574afa448,,1,0,98,16,1,97
,,,,,,,,,,,,,,,,,,,,,,,,,,,,,,,,,,,,,,,,,,e,4.272000074,ETE,FALSE,,,,,,,18,camisa,Spanish,Sounds/spa_camisa.mp3,2020-06-08_18h11.04.154,TranslationElicitation_eng-prolific,3.2.4,MacIntel,60,5ec27b1c7207c90574afa448,,1,0,98,16,1,97
,,,,,,,,,,,,,,,,,,,,,,,,,,,,,,,,,,,,,,,,,,r,4.405999899,ETER,FALSE,,,,,,,18,camisa,Spanish,Sounds/spa_camisa.mp3,2020-06-08_18h11.04.154,TranslationElicitation_eng-prolific,3.2.4,MacIntel,60,5ec27b1c7207c90574afa448,,1,0,98,16,1,97
,,,,,,,,,,,,,,,,,,,,,,,,,,,,,,,,,,,,,,,,,,backspace,4.687999964,ETE,TRUE,,,,,,,18,camisa,Spanish,Sounds/spa_camisa.mp3,2020-06-08_18h11.04.154,TranslationElicitation_eng-prolific,3.2.4,MacIntel,60,5ec27b1c7207c90574afa448,,1,0,98,16,1,97
,,,,,,,,,,,,,,,,,,,,,,,,,,,,,,,,,,,,,,,,,,backspace,4.838000059,ET,TRUE,,,,,,,18,camisa,Spanish,Sounds/spa_camisa.mp3,2020-06-08_18h11.04.154,TranslationElicitation_eng-prolific,3.2.4,MacIntel,60,5ec27b1c7207c90574afa448,,1,0,98,16,1,97
,,,,,,,,,,,,,,,,,,,,,,,,,,,,,,,,,,,,,,,,,,backspace,4.987999916,E,TRUE,,,,,,,18,camisa,Spanish,Sounds/spa_camisa.mp3,2020-06-08_18h11.04.154,TranslationElicitation_eng-prolific,3.2.4,MacIntel,60,5ec27b1c7207c90574afa448,,1,0,98,16,1,97
,,,,,,,,,,,,,,,,,,,,,,,,,,,,,,,,,,,,,,,,,,n,5.203999996,EN,TRUE,,,,,,,18,camisa,Spanish,Sounds/spa_camisa.mp3,2020-06-08_18h11.04.154,TranslationElicitation_eng-prolific,3.2.4,MacIntel,60,5ec27b1c7207c90574afa448,,1,0,98,16,1,97
,,,,,,,,,,,,,,,,,,,,,,,,,,,,,,,,,,,,,,,,,,t,5.386999846,ENT,TRUE,,,,,,,18,camisa,Spanish,Sounds/spa_camisa.mp3,2020-06-08_18h11.04.154,TranslationElicitation_eng-prolific,3.2.4,MacIntel,60,5ec27b1c7207c90574afa448,,1,0,98,16,1,97
,,,,,,,,,,,,,,,,,,,,,,,,,,,,,,,,,,,,,,,,,,e,5.453999996,ENTE,TRUE,,,,,,,18,camisa,Spanish,Sounds/spa_camisa.mp3,2020-06-08_18h11.04.154,TranslationElicitation_eng-prolific,3.2.4,MacIntel,60,5ec27b1c7207c90574afa448,,1,0,98,16,1,97
,,,,,,,,,,,,,,,,,,,,,,,,,,,,,,,,,,,,,,,,,,r,5.569999933,ENTER,TRUE,,,,,,,18,camisa,Spanish,Sounds/spa_camisa.mp3,2020-06-08_18h11.04.154,TranslationElicitation_eng-prolific,3.2.4,MacIntel,60,5ec27b1c7207c90574afa448,,1,0,98,16,1,97
,,,,,,,,,,,,,,,,,,,,,,,,,,,,,,,,,,,,,,,,,,return,5.736999989,ENTER,TRUE,,,,,,,18,camisa,Spanish,Sounds/spa_camisa.mp3,2020-06-08_18h11.04.154,TranslationElicitation_eng-prolific,3.2.4,MacIntel,60,5ec27b1c7207c90574afa448,5.736999989,1,0,98,16,1,97
,,,,,,,,,,,,,,,,,,,,,,,,,,,,,,,,,,,,,,,,,,,,,,,,,,,,18,camisa,Spanish,Sounds/spa_camisa.mp3,2020-06-08_18h11.04.154,TranslationElicitation_eng-prolific,3.2.4,MacIntel,60,5ec27b1c7207c90574afa448,,1,0,98,16,1,97
,,,,,,,,,,,,,,,,,,,,,,,,,,,,,,,,,,,,,,,,,,p,8.428999901,P,FALSE,,,,,,,82,perro,Spanish,Sounds/spa_perro.mp3,2020-06-08_18h11.04.154,TranslationElicitation_eng-prolific,3.2.4,MacIntel,60,5ec27b1c7207c90574afa448,,1,0,98,77,1,97
,,,,,,,,,,,,,,,,,,,,,,,,,,,,,,,,,,,,,,,,,,e,8.861999989,PE,FALSE,,,,,,,82,perro,Spanish,Sounds/spa_perro.mp3,2020-06-08_18h11.04.154,TranslationElicitation_eng-prolific,3.2.4,MacIntel,60,5ec27b1c7207c90574afa448,,1,0,98,77,1,97
,,,,,,,,,,,,,,,,,,,,,,,,,,,,,,,,,,,,,,,,,,a,9.144999981,PEA,FALSE,,,,,,,82,perro,Spanish,Sounds/spa_perro.mp3,2020-06-08_18h11.04.154,TranslationElicitation_eng-prolific,3.2.4,MacIntel,60,5ec27b1c7207c90574afa448,,1,0,98,77,1,97
,,,,,,,,,,,,,,,,,,,,,,,,,,,,,,,,,,,,,,,,,,r,9.494999886,PEAR,FALSE,,,,,,,82,perro,Spanish,Sounds/spa_perro.mp3,2020-06-08_18h11.04.154,TranslationElicitation_eng-prolific,3.2.4,MacIntel,60,5ec27b1c7207c90574afa448,,1,0,98,77,1,97
,,,,,,,,,,,,,,,,,,,,,,,,,,,,,,,,,,,,,,,,,,return,9.644000053,PEAR,FALSE,,,,,,,82,perro,Spanish,Sounds/spa_perro.mp3,2020-06-08_18h11.04.154,TranslationElicitation_eng-prolific,3.2.4,MacIntel,60,5ec27b1c7207c90574afa448,9.644000053,1,0,98,77,1,97
,,,,,,,,,,,,,,,,,,,,,,,,,,,,,,,,,,,,,,,,,,,,,,,,,,,,82,perro,Spanish,Sounds/spa_perro.mp3,2020-06-08_18h11.04.154,TranslationElicitation_eng-prolific,3.2.4,MacIntel,60,5ec27b1c7207c90574afa448,,1,0,98,77,1,97
,,,,,,,,,,,,,,,,,,,,,,,,,,,,,,,,,,,,,,,,,,s,4.388999939,S,FALSE,,,,,,,60,manzana,Spanish,Sounds/spa_manzana.mp3,2020-06-08_18h11.04.154,TranslationElicitation_eng-prolific,3.2.4,MacIntel,60,5ec27b1c7207c90574afa448,,1,0,98,56,1,97
,,,,,,,,,,,,,,,,,,,,,,,,,,,,,,,,,,,,,,,,,,d,4.671999931,SD,FALSE,,,,,,,60,manzana,Spanish,Sounds/spa_manzana.mp3,2020-06-08_18h11.04.154,TranslationElicitation_eng-prolific,3.2.4,MacIntel,60,5ec27b1c7207c90574afa448,,1,0,98,56,1,97
,,,,,,,,,,,,,,,,,,,,,,,,,,,,,,,,,,,,,,,,,,a,4.855000019,SDA,FALSE,,,,,,,60,manzana,Spanish,Sounds/spa_manzana.mp3,2020-06-08_18h11.04.154,TranslationElicitation_eng-prolific,3.2.4,MacIntel,60,5ec27b1c7207c90574afa448,,1,0,98,56,1,97
,,,,,,,,,,,,,,,,,,,,,,,,,,,,,,,,,,,,,,,,,,n,4.937999964,SDAN,FALSE,,,,,,,60,manzana,Spanish,Sounds/spa_manzana.mp3,2020-06-08_18h11.04.154,TranslationElicitation_eng-prolific,3.2.4,MacIntel,60,5ec27b1c7207c90574afa448,,1,0,98,56,1,97
,,,,,,,,,,,,,,,,,,,,,,,,,,,,,,,,,,,,,,,,,,backspace,5.270999908,SDA,TRUE,,,,,,,60,manzana,Spanish,Sounds/spa_manzana.mp3,2020-06-08_18h11.04.154,TranslationElicitation_eng-prolific,3.2.4,MacIntel,60,5ec27b1c7207c90574afa448,,1,0,98,56,1,97
,,,,,,,,,,,,,,,,,,,,,,,,,,,,,,,,,,,,,,,,,,backspace,5.419999838,SD,TRUE,,,,,,,60,manzana,Spanish,Sounds/spa_manzana.mp3,2020-06-08_18h11.04.154,TranslationElicitation_eng-prolific,3.2.4,MacIntel,60,5ec27b1c7207c90574afa448,,1,0,98,56,1,97
,,,,,,,,,,,,,,,,,,,,,,,,,,,,,,,,,,,,,,,,,,backspace,5.569999933,S,TRUE,,,,,,,60,manzana,Spanish,Sounds/spa_manzana.mp3,2020-06-08_18h11.04.154,TranslationElicitation_eng-prolific,3.2.4,MacIntel,60,5ec27b1c7207c90574afa448,,1,0,98,56,1,97
,,,,,,,,,,,,,,,,,,,,,,,,,,,,,,,,,,,,,,,,,,backspace,5.736000061,,TRUE,,,,,,,60,manzana,Spanish,Sounds/spa_manzana.mp3,2020-06-08_18h11.04.154,TranslationElicitation_eng-prolific,3.2.4,MacIntel,60,5ec27b1c7207c90574afa448,,1,0,98,56,1,97
,,,,,,,,,,,,,,,,,,,,,,,,,,,,,,,,,,,,,,,,,,d,5.91899991,D,TRUE,,,,,,,60,manzana,Spanish,Sounds/spa_manzana.mp3,2020-06-08_18h11.04.154,TranslationElicitation_eng-prolific,3.2.4,MacIntel,60,5ec27b1c7207c90574afa448,,1,0,98,56,1,97
,,,,,,,,,,,,,,,,,,,,,,,,,,,,,,,,,,,,,,,,,,a,6.269000053,DA,TRUE,,,,,,,60,manzana,Spanish,Sounds/spa_manzana.mp3,2020-06-08_18h11.04.154,TranslationElicitation_eng-prolific,3.2.4,MacIntel,60,5ec27b1c7207c90574afa448,,1,0,98,56,1,97
,,,,,,,,,,,,,,,,,,,,,,,,,,,,,,,,,,,,,,,,,,n,6.38499999,DAN,TRUE,,,,,,,60,manzana,Spanish,Sounds/spa_manzana.mp3,2020-06-08_18h11.04.154,TranslationElicitation_eng-prolific,3.2.4,MacIntel,60,5ec27b1c7207c90574afa448,,1,0,98,56,1,97
,,,,,,,,,,,,,,,,,,,,,,,,,,,,,,,,,,,,,,,,,,c,6.517999887,DANC,TRUE,,,,,,,60,manzana,Spanish,Sounds/spa_manzana.mp3,2020-06-08_18h11.04.154,TranslationElicitation_eng-prolific,3.2.4,MacIntel,60,5ec27b1c7207c90574afa448,,1,0,98,56,1,97
,,,,,,,,,,,,,,,,,,,,,,,,,,,,,,,,,,,,,,,,,,e,6.667000055,DANCE,TRUE,,,,,,,60,manzana,Spanish,Sounds/spa_manzana.mp3,2020-06-08_18h11.04.154,TranslationElicitation_eng-prolific,3.2.4,MacIntel,60,5ec27b1c7207c90574afa448,,1,0,98,56,1,97
,,,,,,,,,,,,,,,,,,,,,,,,,,,,,,,,,,,,,,,,,,r,6.816999912,DANCER,TRUE,,,,,,,60,manzana,Spanish,Sounds/spa_manzana.mp3,2020-06-08_18h11.04.154,TranslationElicitation_eng-prolific,3.2.4,MacIntel,60,5ec27b1c7207c90574afa448,,1,0,98,56,1,97
,,,,,,,,,,,,,,,,,,,,,,,,,,,,,,,,,,,,,,,,,,return,6.965999842,DANCER,TRUE,,,,,,,60,manzana,Spanish,Sounds/spa_manzana.mp3,2020-06-08_18h11.04.154,TranslationElicitation_eng-prolific,3.2.4,MacIntel,60,5ec27b1c7207c90574afa448,6.965999842,1,0,98,56,1,97
,,,,,,,,,,,,,,,,,,,,,,,,,,,,,,,,,,,,,,,,,,,,,,,,,,,,60,manzana,Spanish,Sounds/spa_manzana.mp3,2020-06-08_18h11.04.154,TranslationElicitation_eng-prolific,3.2.4,MacIntel,60,5ec27b1c7207c90574afa448,,1,0,98,56,1,97
,,,,,,,,,,,,,,,,,,,,,,,,,,,,,,,,,,,,,,,,,,b,2.111999989,B,FALSE,,,,,,,7,bocadillo,Spanish,Sounds/spa_bocadillo.mp3,2020-06-08_18h11.04.154,TranslationElicitation_eng-prolific,3.2.4,MacIntel,60,5ec27b1c7207c90574afa448,,1,0,98,5,1,97
,,,,,,,,,,,,,,,,,,,,,,,,,,,,,,,,,,,,,,,,,,o,2.411000013,BO,FALSE,,,,,,,7,bocadillo,Spanish,Sounds/spa_bocadillo.mp3,2020-06-08_18h11.04.154,TranslationElicitation_eng-prolific,3.2.4,MacIntel,60,5ec27b1c7207c90574afa448,,1,0,98,5,1,97
,,,,,,,,,,,,,,,,,,,,,,,,,,,,,,,,,,,,,,,,,,o,2.578000069,BOO,FALSE,,,,,,,7,bocadillo,Spanish,Sounds/spa_bocadillo.mp3,2020-06-08_18h11.04.154,TranslationElicitation_eng-prolific,3.2.4,MacIntel,60,5ec27b1c7207c90574afa448,,1,0,98,5,1,97
,,,,,,,,,,,,,,,,,,,,,,,,,,,,,,,,,,,,,,,,,,k,2.760999918,BOOK,FALSE,,,,,,,7,bocadillo,Spanish,Sounds/spa_bocadillo.mp3,2020-06-08_18h11.04.154,TranslationElicitation_eng-prolific,3.2.4,MacIntel,60,5ec27b1c7207c90574afa448,,1,0,98,5,1,97
,,,,,,,,,,,,,,,,,,,,,,,,,,,,,,,,,,,,,,,,,,return,3.276000023,BOOK,FALSE,,,,,,,7,bocadillo,Spanish,Sounds/spa_bocadillo.mp3,2020-06-08_18h11.04.154,TranslationElicitation_eng-prolific,3.2.4,MacIntel,60,5ec27b1c7207c90574afa448,3.276000023,1,0,98,5,1,97
,,,,,,,,,,,,,,,,,,,,,,,,,,,,,,,,,,,,,,,,,,,,,,,,,,,,7,bocadillo,Spanish,Sounds/spa_bocadillo.mp3,2020-06-08_18h11.04.154,TranslationElicitation_eng-prolific,3.2.4,MacIntel,60,5ec27b1c7207c90574afa448,,1,0,98,5,1,97
,,,,,,,,,,,,,,,,,,,,,,,,,,,,,,,,,,,,,,,,,,f,2.295000076,F,FALSE,,,,,,,38,frambuesa,Spanish,Sounds/spa_frambuesa.mp3,2020-06-08_18h11.04.154,TranslationElicitation_eng-prolific,3.2.4,MacIntel,60,5ec27b1c7207c90574afa448,,1,0,98,34,1,97
,,,,,,,,,,,,,,,,,,,,,,,,,,,,,,,,,,,,,,,,,,l,2.493999958,FL,FALSE,,,,,,,38,frambuesa,Spanish,Sounds/spa_frambuesa.mp3,2020-06-08_18h11.04.154,TranslationElicitation_eng-prolific,3.2.4,MacIntel,60,5ec27b1c7207c90574afa448,,1,0,98,34,1,97
,,,,,,,,,,,,,,,,,,,,,,,,,,,,,,,,,,,,,,,,,,a,2.626999855,FLA,FALSE,,,,,,,38,frambuesa,Spanish,Sounds/spa_frambuesa.mp3,2020-06-08_18h11.04.154,TranslationElicitation_eng-prolific,3.2.4,MacIntel,60,5ec27b1c7207c90574afa448,,1,0,98,34,1,97
,,,,,,,,,,,,,,,,,,,,,,,,,,,,,,,,,,,,,,,,,,m,2.694000006,FLAM,FALSE,,,,,,,38,frambuesa,Spanish,Sounds/spa_frambuesa.mp3,2020-06-08_18h11.04.154,TranslationElicitation_eng-prolific,3.2.4,MacIntel,60,5ec27b1c7207c90574afa448,,1,0,98,34,1,97
,,,,,,,,,,,,,,,,,,,,,,,,,,,,,,,,,,,,,,,,,,n,3.392999887,FLAMN,FALSE,,,,,,,38,frambuesa,Spanish,Sounds/spa_frambuesa.mp3,2020-06-08_18h11.04.154,TranslationElicitation_eng-prolific,3.2.4,MacIntel,60,5ec27b1c7207c90574afa448,,1,0,98,34,1,97
,,,,,,,,,,,,,,,,,,,,,,,,,,,,,,,,,,,,,,,,,,backspace,4.073999882,FLAM,TRUE,,,,,,,38,frambuesa,Spanish,Sounds/spa_frambuesa.mp3,2020-06-08_18h11.04.154,TranslationElicitation_eng-prolific,3.2.4,MacIntel,60,5ec27b1c7207c90574afa448,,1,0,98,34,1,97
,,,,,,,,,,,,,,,,,,,,,,,,,,,,,,,,,,,,,,,,,,b,4.457999945,FLAMB,TRUE,,,,,,,38,frambuesa,Spanish,Sounds/spa_frambuesa.mp3,2020-06-08_18h11.04.154,TranslationElicitation_eng-prolific,3.2.4,MacIntel,60,5ec27b1c7207c90574afa448,,1,0,98,34,1,97
,,,,,,,,,,,,,,,,,,,,,,,,,,,,,,,,,,,,,,,,,,o,4.989000082,FLAMBO,TRUE,,,,,,,38,frambuesa,Spanish,Sounds/spa_frambuesa.mp3,2020-06-08_18h11.04.154,TranslationElicitation_eng-prolific,3.2.4,MacIntel,60,5ec27b1c7207c90574afa448,,1,0,98,34,1,97
,,,,,,,,,,,,,,,,,,,,,,,,,,,,,,,,,,,,,,,,,,y,5.371000051,FLAMBOY,TRUE,,,,,,,38,frambuesa,Spanish,Sounds/spa_frambuesa.mp3,2020-06-08_18h11.04.154,TranslationElicitation_eng-prolific,3.2.4,MacIntel,60,5ec27b1c7207c90574afa448,,1,0,98,34,1,97
,,,,,,,,,,,,,,,,,,,,,,,,,,,,,,,,,,,,,,,,,,a,5.486999989,FLAMBOYA,TRUE,,,,,,,38,frambuesa,Spanish,Sounds/spa_frambuesa.mp3,2020-06-08_18h11.04.154,TranslationElicitation_eng-prolific,3.2.4,MacIntel,60,5ec27b1c7207c90574afa448,,1,0,98,34,1,97
,,,,,,,,,,,,,,,,,,,,,,,,,,,,,,,,,,,,,,,,,,n,5.585999966,FLAMBOYAN,TRUE,,,,,,,38,frambuesa,Spanish,Sounds/spa_frambuesa.mp3,2020-06-08_18h11.04.154,TranslationElicitation_eng-prolific,3.2.4,MacIntel,60,5ec27b1c7207c90574afa448,,1,0,98,34,1,97
,,,,,,,,,,,,,,,,,,,,,,,,,,,,,,,,,,,,,,,,,,t,5.769999981,FLAMBOYANT,TRUE,,,,,,,38,frambuesa,Spanish,Sounds/spa_frambuesa.mp3,2020-06-08_18h11.04.154,TranslationElicitation_eng-prolific,3.2.4,MacIntel,60,5ec27b1c7207c90574afa448,,1,0,98,34,1,97
,,,,,,,,,,,,,,,,,,,,,,,,,,,,,,,,,,,,,,,,,,return,6.053999901,FLAMBOYANT,TRUE,,,,,,,38,frambuesa,Spanish,Sounds/spa_frambuesa.mp3,2020-06-08_18h11.04.154,TranslationElicitation_eng-prolific,3.2.4,MacIntel,60,5ec27b1c7207c90574afa448,6.053999901,1,0,98,34,1,97
,,,,,,,,,,,,,,,,,,,,,,,,,,,,,,,,,,,,,,,,,,,,,,,,,,,,38,frambuesa,Spanish,Sounds/spa_frambuesa.mp3,2020-06-08_18h11.04.154,TranslationElicitation_eng-prolific,3.2.4,MacIntel,60,5ec27b1c7207c90574afa448,,1,0,98,34,1,97
,,,,,,,,,,,,,,,,,,,,,,,,,,,,,,,,,,,,,,,,,,h,2.577000141,H,FALSE,,,,,,,50,jirafa,Spanish,Sounds/spa_jirafa.mp3,2020-06-08_18h11.04.154,TranslationElicitation_eng-prolific,3.2.4,MacIntel,60,5ec27b1c7207c90574afa448,,1,0,98,46,1,97
,,,,,,,,,,,,,,,,,,,,,,,,,,,,,,,,,,,,,,,,,,e,2.593000174,HE,FALSE,,,,,,,50,jirafa,Spanish,Sounds/spa_jirafa.mp3,2020-06-08_18h11.04.154,TranslationElicitation_eng-prolific,3.2.4,MacIntel,60,5ec27b1c7207c90574afa448,,1,0,98,46,1,97
,,,,,,,,,,,,,,,,,,,,,,,,,,,,,,,,,,,,,,,,,,a,2.776000023,HEA,FALSE,,,,,,,50,jirafa,Spanish,Sounds/spa_jirafa.mp3,2020-06-08_18h11.04.154,TranslationElicitation_eng-prolific,3.2.4,MacIntel,60,5ec27b1c7207c90574afa448,,1,0,98,46,1,97
,,,,,,,,,,,,,,,,,,,,,,,,,,,,,,,,,,,,,,,,,,t,2.943000078,HEAT,FALSE,,,,,,,50,jirafa,Spanish,Sounds/spa_jirafa.mp3,2020-06-08_18h11.04.154,TranslationElicitation_eng-prolific,3.2.4,MacIntel,60,5ec27b1c7207c90574afa448,,1,0,98,46,1,97
,,,,,,,,,,,,,,,,,,,,,,,,,,,,,,,,,,,,,,,,,,h,3.075999975,HEATH,FALSE,,,,,,,50,jirafa,Spanish,Sounds/spa_jirafa.mp3,2020-06-08_18h11.04.154,TranslationElicitation_eng-prolific,3.2.4,MacIntel,60,5ec27b1c7207c90574afa448,,1,0,98,46,1,97
,,,,,,,,,,,,,,,,,,,,,,,,,,,,,,,,,,,,,,,,,,i,3.225000143,HEATHI,FALSE,,,,,,,50,jirafa,Spanish,Sounds/spa_jirafa.mp3,2020-06-08_18h11.04.154,TranslationElicitation_eng-prolific,3.2.4,MacIntel,60,5ec27b1c7207c90574afa448,,1,0,98,46,1,97
,,,,,,,,,,,,,,,,,,,,,,,,,,,,,,,,,,,,,,,,,,n,3.391000032,HEATHIN,FALSE,,,,,,,50,jirafa,Spanish,Sounds/spa_jirafa.mp3,2020-06-08_18h11.04.154,TranslationElicitation_eng-prolific,3.2.4,MacIntel,60,5ec27b1c7207c90574afa448,,1,0,98,46,1,97
,,,,,,,,,,,,,,,,,,,,,,,,,,,,,,,,,,,,,,,,,,g,3.524000168,HEATHING,FALSE,,,,,,,50,jirafa,Spanish,Sounds/spa_jirafa.mp3,2020-06-08_18h11.04.154,TranslationElicitation_eng-prolific,3.2.4,MacIntel,60,5ec27b1c7207c90574afa448,,1,0,98,46,1,97
,,,,,,,,,,,,,,,,,,,,,,,,,,,,,,,,,,,,,,,,,,return,3.791000128,HEATHING,FALSE,,,,,,,50,jirafa,Spanish,Sounds/spa_jirafa.mp3,2020-06-08_18h11.04.154,TranslationElicitation_eng-prolific,3.2.4,MacIntel,60,5ec27b1c7207c90574afa448,3.791000128,1,0,98,46,1,97
,,,,,,,,,,,,,,,,,,,,,,,,,,,,,,,,,,,,,,,,,,,,,,,,,,,,50,jirafa,Spanish,Sounds/spa_jirafa.mp3,2020-06-08_18h11.04.154,TranslationElicitation_eng-prolific,3.2.4,MacIntel,60,5ec27b1c7207c90574afa448,,1,0,98,46,1,97
,,,,,,,,,,,,,,,,,,,,,,,,,,,,,,,,,,,,,,,,,,p,2.54399991,P,FALSE,,,,,,,80,pato,Spanish,Sounds/spa_pato.mp3,2020-06-08_18h11.04.154,TranslationElicitation_eng-prolific,3.2.4,MacIntel,60,5ec27b1c7207c90574afa448,,1,0,98,75,1,97
,,,,,,,,,,,,,,,,,,,,,,,,,,,,,,,,,,,,,,,,,,a,2.809999943,PA,FALSE,,,,,,,80,pato,Spanish,Sounds/spa_pato.mp3,2020-06-08_18h11.04.154,TranslationElicitation_eng-prolific,3.2.4,MacIntel,60,5ec27b1c7207c90574afa448,,1,0,98,75,1,97
,,,,,,,,,,,,,,,,,,,,,,,,,,,,,,,,,,,,,,,,,,r,3.059999943,PAR,FALSE,,,,,,,80,pato,Spanish,Sounds/spa_pato.mp3,2020-06-08_18h11.04.154,TranslationElicitation_eng-prolific,3.2.4,MacIntel,60,5ec27b1c7207c90574afa448,,1,0,98,75,1,97
,,,,,,,,,,,,,,,,,,,,,,,,,,,,,,,,,,,,,,,,,,t,3.259000063,PART,FALSE,,,,,,,80,pato,Spanish,Sounds/spa_pato.mp3,2020-06-08_18h11.04.154,TranslationElicitation_eng-prolific,3.2.4,MacIntel,60,5ec27b1c7207c90574afa448,,1,0,98,75,1,97
,,,,,,,,,,,,,,,,,,,,,,,,,,,,,,,,,,,,,,,,,,y,3.40899992,PARTY,FALSE,,,,,,,80,pato,Spanish,Sounds/spa_pato.mp3,2020-06-08_18h11.04.154,TranslationElicitation_eng-prolific,3.2.4,MacIntel,60,5ec27b1c7207c90574afa448,,1,0,98,75,1,97
,,,,,,,,,,,,,,,,,,,,,,,,,,,,,,,,,,,,,,,,,,return,3.740999937,PARTY,FALSE,,,,,,,80,pato,Spanish,Sounds/spa_pato.mp3,2020-06-08_18h11.04.154,TranslationElicitation_eng-prolific,3.2.4,MacIntel,60,5ec27b1c7207c90574afa448,3.740999937,1,0,98,75,1,97
,,,,,,,,,,,,,,,,,,,,,,,,,,,,,,,,,,,,,,,,,,,,,,,,,,,,80,pato,Spanish,Sounds/spa_pato.mp3,2020-06-08_18h11.04.154,TranslationElicitation_eng-prolific,3.2.4,MacIntel,60,5ec27b1c7207c90574afa448,,1,0,98,75,1,97
,,,,,,,,,,,,,,,,,,,,,,,,,,,,,,,,,,,,,,,,,,m,1.379999876,M,FALSE,,,,,,,64,moneda,Spanish,Sounds/spa_moneda.mp3,2020-06-08_18h11.04.154,TranslationElicitation_eng-prolific,3.2.4,MacIntel,60,5ec27b1c7207c90574afa448,,1,0,98,60,1,97
,,,,,,,,,,,,,,,,,,,,,,,,,,,,,,,,,,,,,,,,,,o,3.17599988,MO,FALSE,,,,,,,64,moneda,Spanish,Sounds/spa_moneda.mp3,2020-06-08_18h11.04.154,TranslationElicitation_eng-prolific,3.2.4,MacIntel,60,5ec27b1c7207c90574afa448,,1,0,98,60,1,97
,,,,,,,,,,,,,,,,,,,,,,,,,,,,,,,,,,,,,,,,,,n,3.375,MON,FALSE,,,,,,,64,moneda,Spanish,Sounds/spa_moneda.mp3,2020-06-08_18h11.04.154,TranslationElicitation_eng-prolific,3.2.4,MacIntel,60,5ec27b1c7207c90574afa448,,1,0,98,60,1,97
,,,,,,,,,,,,,,,,,,,,,,,,,,,,,,,,,,,,,,,,,,backspace,3.760999918,MO,TRUE,,,,,,,64,moneda,Spanish,Sounds/spa_moneda.mp3,2020-06-08_18h11.04.154,TranslationElicitation_eng-prolific,3.2.4,MacIntel,60,5ec27b1c7207c90574afa448,,1,0,98,60,1,97
,,,,,,,,,,,,,,,,,,,,,,,,,,,,,,,,,,,,,,,,,,n,4.355999947,MON,TRUE,,,,,,,64,moneda,Spanish,Sounds/spa_moneda.mp3,2020-06-08_18h11.04.154,TranslationElicitation_eng-prolific,3.2.4,MacIntel,60,5ec27b1c7207c90574afa448,,1,0,98,60,1,97
,,,,,,,,,,,,,,,,,,,,,,,,,,,,,,,,,,,,,,,,,,e,4.455999851,MONE,TRUE,,,,,,,64,moneda,Spanish,Sounds/spa_moneda.mp3,2020-06-08_18h11.04.154,TranslationElicitation_eng-prolific,3.2.4,MacIntel,60,5ec27b1c7207c90574afa448,,1,0,98,60,1,97
,,,,,,,,,,,,,,,,,,,,,,,,,,,,,,,,,,,,,,,,,,y,4.555999994,MONEY,TRUE,,,,,,,64,moneda,Spanish,Sounds/spa_moneda.mp3,2020-06-08_18h11.04.154,TranslationElicitation_eng-prolific,3.2.4,MacIntel,60,5ec27b1c7207c90574afa448,,1,0,98,60,1,97
,,,,,,,,,,,,,,,,,,,,,,,,,,,,,,,,,,,,,,,,,,return,4.921999931,MONEY,TRUE,,,,,,,64,moneda,Spanish,Sounds/spa_moneda.mp3,2020-06-08_18h11.04.154,TranslationElicitation_eng-prolific,3.2.4,MacIntel,60,5ec27b1c7207c90574afa448,4.921999931,1,0,98,60,1,97
,,,,,,,,,,,,,,,,,,,,,,,,,,,,,,,,,,,,,,,,,,,,,,,,,,,,64,moneda,Spanish,Sounds/spa_moneda.mp3,2020-06-08_18h11.04.154,TranslationElicitation_eng-prolific,3.2.4,MacIntel,60,5ec27b1c7207c90574afa448,,1,0,98,60,1,97
,,,,,,,,,,,,,,,,,,,,,,,,,,,,,,,,,,,,,,,,,,h,3.058000088,H,FALSE,,,,,,,51,ladrillo,Spanish,Sounds/spa_ladrillo.mp3,2020-06-08_18h11.04.154,TranslationElicitation_eng-prolific,3.2.4,MacIntel,60,5ec27b1c7207c90574afa448,,1,0,98,47,1,97
,,,,,,,,,,,,,,,,,,,,,,,,,,,,,,,,,,,,,,,,,,e,3.742000103,HE,FALSE,,,,,,,51,ladrillo,Spanish,Sounds/spa_ladrillo.mp3,2020-06-08_18h11.04.154,TranslationElicitation_eng-prolific,3.2.4,MacIntel,60,5ec27b1c7207c90574afa448,,1,0,98,47,1,97
,,,,,,,,,,,,,,,,,,,,,,,,,,,,,,,,,,,,,,,,,,r,3.990999937,HER,FALSE,,,,,,,51,ladrillo,Spanish,Sounds/spa_ladrillo.mp3,2020-06-08_18h11.04.154,TranslationElicitation_eng-prolific,3.2.4,MacIntel,60,5ec27b1c7207c90574afa448,,1,0,98,47,1,97
,,,,,,,,,,,,,,,,,,,,,,,,,,,,,,,,,,,,,,,,,,o,4.09100008,HERO,FALSE,,,,,,,51,ladrillo,Spanish,Sounds/spa_ladrillo.mp3,2020-06-08_18h11.04.154,TranslationElicitation_eng-prolific,3.2.4,MacIntel,60,5ec27b1c7207c90574afa448,,1,0,98,47,1,97
,,,,,,,,,,,,,,,,,,,,,,,,,,,,,,,,,,,,,,,,,,return,4.457000017,HERO,FALSE,,,,,,,51,ladrillo,Spanish,Sounds/spa_ladrillo.mp3,2020-06-08_18h11.04.154,TranslationElicitation_eng-prolific,3.2.4,MacIntel,60,5ec27b1c7207c90574afa448,4.457000017,1,0,98,47,1,97
,,,,,,,,,,,,,,,,,,,,,,,,,,,,,,,,,,,,,,,,,,,,,,,,,,,,51,ladrillo,Spanish,Sounds/spa_ladrillo.mp3,2020-06-08_18h11.04.154,TranslationElicitation_eng-prolific,3.2.4,MacIntel,60,5ec27b1c7207c90574afa448,,1,0,98,47,1,97
,,,,,,,,,,,,,,,,,,,,,,,,,,,,,,,,,,,,,,,,,,o,3.042999983,O,FALSE,,,,,,,73,oveja,Spanish,Sounds/spa_oveja.mp3,2020-06-08_18h11.04.154,TranslationElicitation_eng-prolific,3.2.4,MacIntel,60,5ec27b1c7207c90574afa448,,1,0,98,68,1,97
,,,,,,,,,,,,,,,,,,,,,,,,,,,,,,,,,,,,,,,,,,r,3.125999928,OR,FALSE,,,,,,,73,oveja,Spanish,Sounds/spa_oveja.mp3,2020-06-08_18h11.04.154,TranslationElicitation_eng-prolific,3.2.4,MacIntel,60,5ec27b1c7207c90574afa448,,1,0,98,68,1,97
,,,,,,,,,,,,,,,,,,,,,,,,,,,,,,,,,,,,,,,,,,backspace,3.508999825,O,TRUE,,,,,,,73,oveja,Spanish,Sounds/spa_oveja.mp3,2020-06-08_18h11.04.154,TranslationElicitation_eng-prolific,3.2.4,MacIntel,60,5ec27b1c7207c90574afa448,,1,0,98,68,1,97
,,,,,,,,,,,,,,,,,,,,,,,,,,,,,,,,,,,,,,,,,,e,3.708999872,OE,TRUE,,,,,,,73,oveja,Spanish,Sounds/spa_oveja.mp3,2020-06-08_18h11.04.154,TranslationElicitation_eng-prolific,3.2.4,MacIntel,60,5ec27b1c7207c90574afa448,,1,0,98,68,1,97
,,,,,,,,,,,,,,,,,,,,,,,,,,,,,,,,,,,,,,,,,,backspace,4.123999834,O,TRUE,,,,,,,73,oveja,Spanish,Sounds/spa_oveja.mp3,2020-06-08_18h11.04.154,TranslationElicitation_eng-prolific,3.2.4,MacIntel,60,5ec27b1c7207c90574afa448,,1,0,98,68,1,97
,,,,,,,,,,,,,,,,,,,,,,,,,,,,,,,,,,,,,,,,,,backspace,4.405999899,,TRUE,,,,,,,73,oveja,Spanish,Sounds/spa_oveja.mp3,2020-06-08_18h11.04.154,TranslationElicitation_eng-prolific,3.2.4,MacIntel,60,5ec27b1c7207c90574afa448,,1,0,98,68,1,97
,,,,,,,,,,,,,,,,,,,,,,,,,,,,,,,,,,,,,,,,,,i,4.638999939,I,TRUE,,,,,,,73,oveja,Spanish,Sounds/spa_oveja.mp3,2020-06-08_18h11.04.154,TranslationElicitation_eng-prolific,3.2.4,MacIntel,60,5ec27b1c7207c90574afa448,,1,0,98,68,1,97
,,,,,,,,,,,,,,,,,,,,,,,,,,,,,,,,,,,,,,,,,,r,4.705999851,IR,TRUE,,,,,,,73,oveja,Spanish,Sounds/spa_oveja.mp3,2020-06-08_18h11.04.154,TranslationElicitation_eng-prolific,3.2.4,MacIntel,60,5ec27b1c7207c90574afa448,,1,0,98,68,1,97
,,,,,,,,,,,,,,,,,,,,,,,,,,,,,,,,,,,,,,,,,,r,4.822000027,IRR,TRUE,,,,,,,73,oveja,Spanish,Sounds/spa_oveja.mp3,2020-06-08_18h11.04.154,TranslationElicitation_eng-prolific,3.2.4,MacIntel,60,5ec27b1c7207c90574afa448,,1,0,98,68,1,97
,,,,,,,,,,,,,,,,,,,,,,,,,,,,,,,,,,,,,,,,,,e,5.004999876,IRRE,TRUE,,,,,,,73,oveja,Spanish,Sounds/spa_oveja.mp3,2020-06-08_18h11.04.154,TranslationElicitation_eng-prolific,3.2.4,MacIntel,60,5ec27b1c7207c90574afa448,,1,0,98,68,1,97
,,,,,,,,,,,,,,,,,,,,,,,,,,,,,,,,,,,,,,,,,,g,5.171000004,IRREG,TRUE,,,,,,,73,oveja,Spanish,Sounds/spa_oveja.mp3,2020-06-08_18h11.04.154,TranslationElicitation_eng-prolific,3.2.4,MacIntel,60,5ec27b1c7207c90574afa448,,1,0,98,68,1,97
,,,,,,,,,,,,,,,,,,,,,,,,,,,,,,,,,,,,,,,,,,u,5.703999996,IRREGU,TRUE,,,,,,,73,oveja,Spanish,Sounds/spa_oveja.mp3,2020-06-08_18h11.04.154,TranslationElicitation_eng-prolific,3.2.4,MacIntel,60,5ec27b1c7207c90574afa448,,1,0,98,68,1,97
,,,,,,,,,,,,,,,,,,,,,,,,,,,,,,,,,,,,,,,,,,l,5.902999878,IRREGUL,TRUE,,,,,,,73,oveja,Spanish,Sounds/spa_oveja.mp3,2020-06-08_18h11.04.154,TranslationElicitation_eng-prolific,3.2.4,MacIntel,60,5ec27b1c7207c90574afa448,,1,0,98,68,1,97
,,,,,,,,,,,,,,,,,,,,,,,,,,,,,,,,,,,,,,,,,,a,6.052999973,IRREGULA,TRUE,,,,,,,73,oveja,Spanish,Sounds/spa_oveja.mp3,2020-06-08_18h11.04.154,TranslationElicitation_eng-prolific,3.2.4,MacIntel,60,5ec27b1c7207c90574afa448,,1,0,98,68,1,97
,,,,,,,,,,,,,,,,,,,,,,,,,,,,,,,,,,,,,,,,,,r,6.251999855,IRREGULAR,TRUE,,,,,,,73,oveja,Spanish,Sounds/spa_oveja.mp3,2020-06-08_18h11.04.154,TranslationElicitation_eng-prolific,3.2.4,MacIntel,60,5ec27b1c7207c90574afa448,,1,0,98,68,1,97
,,,,,,,,,,,,,,,,,,,,,,,,,,,,,,,,,,,,,,,,,,return,6.551999807,IRREGULAR,TRUE,,,,,,,73,oveja,Spanish,Sounds/spa_oveja.mp3,2020-06-08_18h11.04.154,TranslationElicitation_eng-prolific,3.2.4,MacIntel,60,5ec27b1c7207c90574afa448,6.551999807,1,0,98,68,1,97
,,,,,,,,,,,,,,,,,,,,,,,,,,,,,,,,,,,,,,,,,,,,,,,,,,,,73,oveja,Spanish,Sounds/spa_oveja.mp3,2020-06-08_18h11.04.154,TranslationElicitation_eng-prolific,3.2.4,MacIntel,60,5ec27b1c7207c90574afa448,,1,0,98,68,1,97
,,,,,,,,,,,,,,,,,,,,,,,,,,,,,,,,,,,,,,,,,,h,16.44400001,H,FALSE,,,,,,,14,burro,Spanish,Sounds/spa_burro.mp3,2020-06-08_18h11.04.154,TranslationElicitation_eng-prolific,3.2.4,MacIntel,60,5ec27b1c7207c90574afa448,,1,0,98,12,1,97
,,,,,,,,,,,,,,,,,,,,,,,,,,,,,,,,,,,,,,,,,,e,16.57799983,HE,FALSE,,,,,,,14,burro,Spanish,Sounds/spa_burro.mp3,2020-06-08_18h11.04.154,TranslationElicitation_eng-prolific,3.2.4,MacIntel,60,5ec27b1c7207c90574afa448,,1,0,98,12,1,97
,,,,,,,,,,,,,,,,,,,,,,,,,,,,,,,,,,,,,,,,,,backspace,17.02699995,H,TRUE,,,,,,,14,burro,Spanish,Sounds/spa_burro.mp3,2020-06-08_18h11.04.154,TranslationElicitation_eng-prolific,3.2.4,MacIntel,60,5ec27b1c7207c90574afa448,,1,0,98,12,1,97
,,,,,,,,,,,,,,,,,,,,,,,,,,,,,,,,,,,,,,,,,,a,17.15999985,HA,TRUE,,,,,,,14,burro,Spanish,Sounds/spa_burro.mp3,2020-06-08_18h11.04.154,TranslationElicitation_eng-prolific,3.2.4,MacIntel,60,5ec27b1c7207c90574afa448,,1,0,98,12,1,97
,,,,,,,,,,,,,,,,,,,,,,,,,,,,,,,,,,,,,,,,,,i,17.70899987,HAI,TRUE,,,,,,,14,burro,Spanish,Sounds/spa_burro.mp3,2020-06-08_18h11.04.154,TranslationElicitation_eng-prolific,3.2.4,MacIntel,60,5ec27b1c7207c90574afa448,,1,0,98,12,1,97
,,,,,,,,,,,,,,,,,,,,,,,,,,,,,,,,,,,,,,,,,,r,17.77399993,HAIR,TRUE,,,,,,,14,burro,Spanish,Sounds/spa_burro.mp3,2020-06-08_18h11.04.154,TranslationElicitation_eng-prolific,3.2.4,MacIntel,60,5ec27b1c7207c90574afa448,,1,0,98,12,1,97
,,,,,,,,,,,,,,,,,,,,,,,,,,,,,,,,,,,,,,,,,,return,18.09099984,HAIR,TRUE,,,,,,,14,burro,Spanish,Sounds/spa_burro.mp3,2020-06-08_18h11.04.154,TranslationElicitation_eng-prolific,3.2.4,MacIntel,60,5ec27b1c7207c90574afa448,18.09099984,1,0,98,12,1,97
,,,,,,,,,,,,,,,,,,,,,,,,,,,,,,,,,,,,,,,,,,,,,,,,,,,,14,burro,Spanish,Sounds/spa_burro.mp3,2020-06-08_18h11.04.154,TranslationElicitation_eng-prolific,3.2.4,MacIntel,60,5ec27b1c7207c90574afa448,,1,0,98,12,1,97
,,,,,,,,,,,,,,,,,,,,,,,,,,,,,,,,,,,,,,,,,,f,1.430000067,F,FALSE,,,,,,,37,flor,Spanish,Sounds/spa_flor.mp3,2020-06-08_18h11.04.154,TranslationElicitation_eng-prolific,3.2.4,MacIntel,60,5ec27b1c7207c90574afa448,,1,0,98,33,1,97
,,,,,,,,,,,,,,,,,,,,,,,,,,,,,,,,,,,,,,,,,,l,1.514000177,FL,FALSE,,,,,,,37,flor,Spanish,Sounds/spa_flor.mp3,2020-06-08_18h11.04.154,TranslationElicitation_eng-prolific,3.2.4,MacIntel,60,5ec27b1c7207c90574afa448,,1,0,98,33,1,97
,,,,,,,,,,,,,,,,,,,,,,,,,,,,,,,,,,,,,,,,,,o,1.830000162,FLO,FALSE,,,,,,,37,flor,Spanish,Sounds/spa_flor.mp3,2020-06-08_18h11.04.154,TranslationElicitation_eng-prolific,3.2.4,MacIntel,60,5ec27b1c7207c90574afa448,,1,0,98,33,1,97
,,,,,,,,,,,,,,,,,,,,,,,,,,,,,,,,,,,,,,,,,,r,1.896000147,FLOR,FALSE,,,,,,,37,flor,Spanish,Sounds/spa_flor.mp3,2020-06-08_18h11.04.154,TranslationElicitation_eng-prolific,3.2.4,MacIntel,60,5ec27b1c7207c90574afa448,,1,0,98,33,1,97
,,,,,,,,,,,,,,,,,,,,,,,,,,,,,,,,,,,,,,,,,,backspace,2.594000101,FLO,TRUE,,,,,,,37,flor,Spanish,Sounds/spa_flor.mp3,2020-06-08_18h11.04.154,TranslationElicitation_eng-prolific,3.2.4,MacIntel,60,5ec27b1c7207c90574afa448,,1,0,98,33,1,97
,,,,,,,,,,,,,,,,,,,,,,,,,,,,,,,,,,,,,,,,,,o,2.810000181,FLOO,TRUE,,,,,,,37,flor,Spanish,Sounds/spa_flor.mp3,2020-06-08_18h11.04.154,TranslationElicitation_eng-prolific,3.2.4,MacIntel,60,5ec27b1c7207c90574afa448,,1,0,98,33,1,97
,,,,,,,,,,,,,,,,,,,,,,,,,,,,,,,,,,,,,,,,,,r,2.894000053,FLOOR,TRUE,,,,,,,37,flor,Spanish,Sounds/spa_flor.mp3,2020-06-08_18h11.04.154,TranslationElicitation_eng-prolific,3.2.4,MacIntel,60,5ec27b1c7207c90574afa448,,1,0,98,33,1,97
,,,,,,,,,,,,,,,,,,,,,,,,,,,,,,,,,,,,,,,,,,return,3.242000103,FLOOR,TRUE,,,,,,,37,flor,Spanish,Sounds/spa_flor.mp3,2020-06-08_18h11.04.154,TranslationElicitation_eng-prolific,3.2.4,MacIntel,60,5ec27b1c7207c90574afa448,3.242000103,1,0,98,33,1,97
,,,,,,,,,,,,,,,,,,,,,,,,,,,,,,,,,,,,,,,,,,,,,,,,,,,,37,flor,Spanish,Sounds/spa_flor.mp3,2020-06-08_18h11.04.154,TranslationElicitation_eng-prolific,3.2.4,MacIntel,60,5ec27b1c7207c90574afa448,,1,0,98,33,1,97
,,,,,,,,,,,,,,,,,,,,,,,,,,,,,,,,,,,,,,,,,,i,6.383999825,I,FALSE,,,,,,,93,sol,Spanish,Sounds/spa_sol.mp3,2020-06-08_18h11.04.154,TranslationElicitation_eng-prolific,3.2.4,MacIntel,60,5ec27b1c7207c90574afa448,,1,0,98,88,1,97
,,,,,,,,,,,,,,,,,,,,,,,,,,,,,,,,,,,,,,,,,,backspace,6.898999929,,TRUE,,,,,,,93,sol,Spanish,Sounds/spa_sol.mp3,2020-06-08_18h11.04.154,TranslationElicitation_eng-prolific,3.2.4,MacIntel,60,5ec27b1c7207c90574afa448,,1,0,98,88,1,97
,,,,,,,,,,,,,,,,,,,,,,,,,,,,,,,,,,,,,,,,,,l,7.414999962,L,TRUE,,,,,,,93,sol,Spanish,Sounds/spa_sol.mp3,2020-06-08_18h11.04.154,TranslationElicitation_eng-prolific,3.2.4,MacIntel,60,5ec27b1c7207c90574afa448,,1,0,98,88,1,97
,,,,,,,,,,,,,,,,,,,,,,,,,,,,,,,,,,,,,,,,,,i,7.564999819,LI,TRUE,,,,,,,93,sol,Spanish,Sounds/spa_sol.mp3,2020-06-08_18h11.04.154,TranslationElicitation_eng-prolific,3.2.4,MacIntel,60,5ec27b1c7207c90574afa448,,1,0,98,88,1,97
,,,,,,,,,,,,,,,,,,,,,,,,,,,,,,,,,,,,,,,,,,m,7.730999947,LIM,TRUE,,,,,,,93,sol,Spanish,Sounds/spa_sol.mp3,2020-06-08_18h11.04.154,TranslationElicitation_eng-prolific,3.2.4,MacIntel,60,5ec27b1c7207c90574afa448,,1,0,98,88,1,97
,,,,,,,,,,,,,,,,,,,,,,,,,,,,,,,,,,,,,,,,,,e,7.813999891,LIME,TRUE,,,,,,,93,sol,Spanish,Sounds/spa_sol.mp3,2020-06-08_18h11.04.154,TranslationElicitation_eng-prolific,3.2.4,MacIntel,60,5ec27b1c7207c90574afa448,,1,0,98,88,1,97
,,,,,,,,,,,,,,,,,,,,,,,,,,,,,,,,,,,,,,,,,,return,8.129999876,LIME,TRUE,,,,,,,93,sol,Spanish,Sounds/spa_sol.mp3,2020-06-08_18h11.04.154,TranslationElicitation_eng-prolific,3.2.4,MacIntel,60,5ec27b1c7207c90574afa448,8.129999876,1,0,98,88,1,97
,,,,,,,,,,,,,,,,,,,,,,,,,,,,,,,,,,,,,,,,,,,,,,,,,,,,93,sol,Spanish,Sounds/spa_sol.mp3,2020-06-08_18h11.04.154,TranslationElicitation_eng-prolific,3.2.4,MacIntel,60,5ec27b1c7207c90574afa448,,1,0,98,88,1,97
,,,,,,,,,,,,,,,,,,,,,,,,,,,,,,,,,,,,,,,,,,l,1.778000116,L,FALSE,,,,,,,55,leon,Spanish,Sounds/spa_leon.mp3,2020-06-08_18h11.04.154,TranslationElicitation_eng-prolific,3.2.4,MacIntel,60,5ec27b1c7207c90574afa448,,1,0,98,51,1,97
,,,,,,,,,,,,,,,,,,,,,,,,,,,,,,,,,,,,,,,,,,e,1.895000219,LE,FALSE,,,,,,,55,leon,Spanish,Sounds/spa_leon.mp3,2020-06-08_18h11.04.154,TranslationElicitation_eng-prolific,3.2.4,MacIntel,60,5ec27b1c7207c90574afa448,,1,0,98,51,1,97
,,,,,,,,,,,,,,,,,,,,,,,,,,,,,,,,,,,,,,,,,,m,1.994000196,LEM,FALSE,,,,,,,55,leon,Spanish,Sounds/spa_leon.mp3,2020-06-08_18h11.04.154,TranslationElicitation_eng-prolific,3.2.4,MacIntel,60,5ec27b1c7207c90574afa448,,1,0,98,51,1,97
,,,,,,,,,,,,,,,,,,,,,,,,,,,,,,,,,,,,,,,,,,o,2.161000013,LEMO,FALSE,,,,,,,55,leon,Spanish,Sounds/spa_leon.mp3,2020-06-08_18h11.04.154,TranslationElicitation_eng-prolific,3.2.4,MacIntel,60,5ec27b1c7207c90574afa448,,1,0,98,51,1,97
,,,,,,,,,,,,,,,,,,,,,,,,,,,,,,,,,,,,,,,,,,n,2.310000181,LEMON,FALSE,,,,,,,55,leon,Spanish,Sounds/spa_leon.mp3,2020-06-08_18h11.04.154,TranslationElicitation_eng-prolific,3.2.4,MacIntel,60,5ec27b1c7207c90574afa448,,1,0,98,51,1,97
,,,,,,,,,,,,,,,,,,,,,,,,,,,,,,,,,,,,,,,,,,return,2.626000166,LEMON,FALSE,,,,,,,55,leon,Spanish,Sounds/spa_leon.mp3,2020-06-08_18h11.04.154,TranslationElicitation_eng-prolific,3.2.4,MacIntel,60,5ec27b1c7207c90574afa448,2.626000166,1,0,98,51,1,97
,,,,,,,,,,,,,,,,,,,,,,,,,,,,,,,,,,,,,,,,,,,,,,,,,,,,55,leon,Spanish,Sounds/spa_leon.mp3,2020-06-08_18h11.04.154,TranslationElicitation_eng-prolific,3.2.4,MacIntel,60,5ec27b1c7207c90574afa448,,1,0,98,51,1,97
,,,,,,,,,,,,,,,,,,,,,,,,,,,,,,,,,,,,,,,,,,h,3.624000072,H,FALSE,,,,,,,41,gallina,Spanish,Sounds/spa_gallina.mp3,2020-06-08_18h11.04.154,TranslationElicitation_eng-prolific,3.2.4,MacIntel,60,5ec27b1c7207c90574afa448,,1,0,98,37,1,97
,,,,,,,,,,,,,,,,,,,,,,,,,,,,,,,,,,,,,,,,,,i,3.940000057,HI,FALSE,,,,,,,41,gallina,Spanish,Sounds/spa_gallina.mp3,2020-06-08_18h11.04.154,TranslationElicitation_eng-prolific,3.2.4,MacIntel,60,5ec27b1c7207c90574afa448,,1,0,98,37,1,97
,,,,,,,,,,,,,,,,,,,,,,,,,,,,,,,,,,,,,,,,,,backspace,4.273000002,H,TRUE,,,,,,,41,gallina,Spanish,Sounds/spa_gallina.mp3,2020-06-08_18h11.04.154,TranslationElicitation_eng-prolific,3.2.4,MacIntel,60,5ec27b1c7207c90574afa448,,1,0,98,37,1,97
,,,,,,,,,,,,,,,,,,,,,,,,,,,,,,,,,,,,,,,,,,y,4.539000034,HY,TRUE,,,,,,,41,gallina,Spanish,Sounds/spa_gallina.mp3,2020-06-08_18h11.04.154,TranslationElicitation_eng-prolific,3.2.4,MacIntel,60,5ec27b1c7207c90574afa448,,1,0,98,37,1,97
,,,,,,,,,,,,,,,,,,,,,,,,,,,,,,,,,,,,,,,,,,i,4.93900013,HYI,TRUE,,,,,,,41,gallina,Spanish,Sounds/spa_gallina.mp3,2020-06-08_18h11.04.154,TranslationElicitation_eng-prolific,3.2.4,MacIntel,60,5ec27b1c7207c90574afa448,,1,0,98,37,1,97
,,,,,,,,,,,,,,,,,,,,,,,,,,,,,,,,,,,,,,,,,,n,5.238000154,HYIN,TRUE,,,,,,,41,gallina,Spanish,Sounds/spa_gallina.mp3,2020-06-08_18h11.04.154,TranslationElicitation_eng-prolific,3.2.4,MacIntel,60,5ec27b1c7207c90574afa448,,1,0,98,37,1,97
,,,,,,,,,,,,,,,,,,,,,,,,,,,,,,,,,,,,,,,,,,a,5.569999933,HYINA,TRUE,,,,,,,41,gallina,Spanish,Sounds/spa_gallina.mp3,2020-06-08_18h11.04.154,TranslationElicitation_eng-prolific,3.2.4,MacIntel,60,5ec27b1c7207c90574afa448,,1,0,98,37,1,97
,,,,,,,,,,,,,,,,,,,,,,,,,,,,,,,,,,,,,,,,,,backspace,6.319000006,HYIN,TRUE,,,,,,,41,gallina,Spanish,Sounds/spa_gallina.mp3,2020-06-08_18h11.04.154,TranslationElicitation_eng-prolific,3.2.4,MacIntel,60,5ec27b1c7207c90574afa448,,1,0,98,37,1,97
,,,,,,,,,,,,,,,,,,,,,,,,,,,,,,,,,,,,,,,,,,backspace,6.483999968,HYI,TRUE,,,,,,,41,gallina,Spanish,Sounds/spa_gallina.mp3,2020-06-08_18h11.04.154,TranslationElicitation_eng-prolific,3.2.4,MacIntel,60,5ec27b1c7207c90574afa448,,1,0,98,37,1,97
,,,,,,,,,,,,,,,,,,,,,,,,,,,,,,,,,,,,,,,,,,backspace,6.651000023,HY,TRUE,,,,,,,41,gallina,Spanish,Sounds/spa_gallina.mp3,2020-06-08_18h11.04.154,TranslationElicitation_eng-prolific,3.2.4,MacIntel,60,5ec27b1c7207c90574afa448,,1,0,98,37,1,97
,,,,,,,,,,,,,,,,,,,,,,,,,,,,,,,,,,,,,,,,,,backspace,7.549999952,H,TRUE,,,,,,,41,gallina,Spanish,Sounds/spa_gallina.mp3,2020-06-08_18h11.04.154,TranslationElicitation_eng-prolific,3.2.4,MacIntel,60,5ec27b1c7207c90574afa448,,1,0,98,37,1,97
,,,,,,,,,,,,,,,,,,,,,,,,,,,,,,,,,,,,,,,,,,i,7.749000072,HI,TRUE,,,,,,,41,gallina,Spanish,Sounds/spa_gallina.mp3,2020-06-08_18h11.04.154,TranslationElicitation_eng-prolific,3.2.4,MacIntel,60,5ec27b1c7207c90574afa448,,1,0,98,37,1,97
,,,,,,,,,,,,,,,,,,,,,,,,,,,,,,,,,,,,,,,,,,e,7.832000017,HIE,TRUE,,,,,,,41,gallina,Spanish,Sounds/spa_gallina.mp3,2020-06-08_18h11.04.154,TranslationElicitation_eng-prolific,3.2.4,MacIntel,60,5ec27b1c7207c90574afa448,,1,0,98,37,1,97
,,,,,,,,,,,,,,,,,,,,,,,,,,,,,,,,,,,,,,,,,,n,7.94900012,HIEN,TRUE,,,,,,,41,gallina,Spanish,Sounds/spa_gallina.mp3,2020-06-08_18h11.04.154,TranslationElicitation_eng-prolific,3.2.4,MacIntel,60,5ec27b1c7207c90574afa448,,1,0,98,37,1,97
,,,,,,,,,,,,,,,,,,,,,,,,,,,,,,,,,,,,,,,,,,a,8.09800005,HIENA,TRUE,,,,,,,41,gallina,Spanish,Sounds/spa_gallina.mp3,2020-06-08_18h11.04.154,TranslationElicitation_eng-prolific,3.2.4,MacIntel,60,5ec27b1c7207c90574afa448,,1,0,98,37,1,97
,,,,,,,,,,,,,,,,,,,,,,,,,,,,,,,,,,,,,,,,,,return,8.345999956,HIENA,TRUE,,,,,,,41,gallina,Spanish,Sounds/spa_gallina.mp3,2020-06-08_18h11.04.154,TranslationElicitation_eng-prolific,3.2.4,MacIntel,60,5ec27b1c7207c90574afa448,8.345999956,1,0,98,37,1,97
,,,,,,,,,,,,,,,,,,,,,,,,,,,,,,,,,,,,,,,,,,,,,,,,,,,,41,gallina,Spanish,Sounds/spa_gallina.mp3,2020-06-08_18h11.04.154,TranslationElicitation_eng-prolific,3.2.4,MacIntel,60,5ec27b1c7207c90574afa448,,1,0,98,37,1,97
,,,,,,,,,,,,,,,,,,,,,,,,,,,,,,,,,,,,,,,,,,d,1.811000109,D,FALSE,,,,,,,33,dedo,Spanish,Sounds/spa_dedo.mp3,2020-06-08_18h11.04.154,TranslationElicitation_eng-prolific,3.2.4,MacIntel,60,5ec27b1c7207c90574afa448,,1,0,98,29,1,97
,,,,,,,,,,,,,,,,,,,,,,,,,,,,,,,,,,,,,,,,,,e,2.476000071,DE,FALSE,,,,,,,33,dedo,Spanish,Sounds/spa_dedo.mp3,2020-06-08_18h11.04.154,TranslationElicitation_eng-prolific,3.2.4,MacIntel,60,5ec27b1c7207c90574afa448,,1,0,98,29,1,97
