consentKey.keys,consentKey.rt,languageL1Key.keys,languageL1Key.rt,languageL2,languageL2OralKey.keys,languageL2OralKey.rt,languageL2WrittenKey.keys,languageL2WrittenKey.rt,languageL3OralKey.keys,languageL3OralKey.rt,languageL3WrittenKey.keys,languageL3WrittenKey.rt,languageCatalanOralKey.keys,languageCatalanOralKey.rt,languageCatalanWrittenKey.keys,languageCatalanWrittenKey.rt,languageCatalanTimeKey.keys,languageCatalanTimeKey.rt,languageSpanishOralKey.keys,languageSpanishOralKey.rt,languageSpanishWrittenKey.keys,languageSpanishWrittenKey.rt,languageSpanishTimeKey.keys,languageSpanishTimeKey.rt,age,demoSexKey.keys,demoSexKey.rt,demoEducationKey.keys,demoEducationKey.rt,city,demoVisionKey.keys,demoVisionKey.rt,demoLanguageKey.keys,demoLanguageKey.rt,setupLocationKey.keys,setupLocationKey.rt,setupNoiseKey.keys,setupNoiseKey.rt,instructionsKeys.keys,instructionsKeys.rt,keyPressed,keyPressTime,inputText,error,trialsPracticeCatalan.thisRepN,trialsPracticeCatalan.thisTrialN,trialsPracticeCatalan.thisN,trialsPracticeCatalan.thisIndex,trialsPracticeCatalan.ran,trialsPracticeCatalan.order,trial_id,word,test_language,soundfile,date,expName,psychopyVersion,OS,frameRate,participant,trialOffset,trialsCatalan.thisRepN,trialsCatalan.thisTrialN,trialsCatalan.thisN,trialsCatalan.thisIndex,trialsCatalan.ran,trialsCatalan.order
space,8.246999979,e,4.582999945,,,,,,,,,,1,24.7349999,1,5.436999798,1,6.017999887,2,3.682999849,1,2.865999937,1,6.064999819,21,f,1.842000008,4,2.887000084,CHELTENHAM,y,3.30099988,n,3.068000078,1,3.464999914,1,3.718999863,space,28.38199997,w,33.18499994,W,FALSE,1,0,5,0,1,4,109,arbre,Catalan,Sounds/cat_arbre.mp3,2020-06-04_21h21.28.217,TranslationElicitation_eng-prolific,3.2.4,MacIntel,60,5ec56cd8269fcc53a3dfb6c4,,,,,,,
,,,,,,,,,,,,,,,,,,,,,,,,,,,,,,,,,,,,,,,,,e,33.41499996,WE,FALSE,1,0,5,0,1,4,109,arbre,Catalan,Sounds/cat_arbre.mp3,2020-06-04_21h21.28.217,TranslationElicitation_eng-prolific,3.2.4,MacIntel,60,5ec56cd8269fcc53a3dfb6c4,,,,,,,
,,,,,,,,,,,,,,,,,,,,,,,,,,,,,,,,,,,,,,,,,l,33.5849998,WEL,FALSE,1,0,5,0,1,4,109,arbre,Catalan,Sounds/cat_arbre.mp3,2020-06-04_21h21.28.217,TranslationElicitation_eng-prolific,3.2.4,MacIntel,60,5ec56cd8269fcc53a3dfb6c4,,,,,,,
,,,,,,,,,,,,,,,,,,,,,,,,,,,,,,,,,,,,,,,,,l,33.82099986,WELL,FALSE,1,0,5,0,1,4,109,arbre,Catalan,Sounds/cat_arbre.mp3,2020-06-04_21h21.28.217,TranslationElicitation_eng-prolific,3.2.4,MacIntel,60,5ec56cd8269fcc53a3dfb6c4,,,,,,,
,,,,,,,,,,,,,,,,,,,,,,,,,,,,,,,,,,,,,,,,,space,33.85599995,WELL ,FALSE,1,0,5,0,1,4,109,arbre,Catalan,Sounds/cat_arbre.mp3,2020-06-04_21h21.28.217,TranslationElicitation_eng-prolific,3.2.4,MacIntel,60,5ec56cd8269fcc53a3dfb6c4,,,,,,,
,,,,,,,,,,,,,,,,,,,,,,,,,,,,,,,,,,,,,,,,,d,34.04199982,WELL D,FALSE,1,0,5,0,1,4,109,arbre,Catalan,Sounds/cat_arbre.mp3,2020-06-04_21h21.28.217,TranslationElicitation_eng-prolific,3.2.4,MacIntel,60,5ec56cd8269fcc53a3dfb6c4,,,,,,,
,,,,,,,,,,,,,,,,,,,,,,,,,,,,,,,,,,,,,,,,,o,34.17499995,WELL DO,FALSE,1,0,5,0,1,4,109,arbre,Catalan,Sounds/cat_arbre.mp3,2020-06-04_21h21.28.217,TranslationElicitation_eng-prolific,3.2.4,MacIntel,60,5ec56cd8269fcc53a3dfb6c4,,,,,,,
,,,,,,,,,,,,,,,,,,,,,,,,,,,,,,,,,,,,,,,,,n,34.3829999,WELL DON,FALSE,1,0,5,0,1,4,109,arbre,Catalan,Sounds/cat_arbre.mp3,2020-06-04_21h21.28.217,TranslationElicitation_eng-prolific,3.2.4,MacIntel,60,5ec56cd8269fcc53a3dfb6c4,,,,,,,
,,,,,,,,,,,,,,,,,,,,,,,,,,,,,,,,,,,,,,,,,e,34.4749999,WELL DONE,FALSE,1,0,5,0,1,4,109,arbre,Catalan,Sounds/cat_arbre.mp3,2020-06-04_21h21.28.217,TranslationElicitation_eng-prolific,3.2.4,MacIntel,60,5ec56cd8269fcc53a3dfb6c4,,,,,,,
,,,,,,,,,,,,,,,,,,,,,,,,,,,,,,,,,,,,,,,,,return,35.80900002,WELL DONE,FALSE,1,0,5,0,1,4,109,arbre,Catalan,Sounds/cat_arbre.mp3,2020-06-04_21h21.28.217,TranslationElicitation_eng-prolific,3.2.4,MacIntel,60,5ec56cd8269fcc53a3dfb6c4,35.80900002,,,,,,
,,,,,,,,,,,,,,,,,,,,,,,,,,,,,,,,,,,,,,,,,,,,,1,0,5,0,1,4,109,arbre,Catalan,Sounds/cat_arbre.mp3,2020-06-04_21h21.28.217,TranslationElicitation_eng-prolific,3.2.4,MacIntel,60,5ec56cd8269fcc53a3dfb6c4,,,,,,,
,,,,,,,,,,,,,,,,,,,,,,,,,,,,,,,,,,,,,,,,,n,6.302000046,N,FALSE,1,0,5,2,1,4,147,jaqueta,Catalan,Sounds/cat_jaqueta.mp3,2020-06-04_21h21.28.217,TranslationElicitation_eng-prolific,3.2.4,MacIntel,60,5ec56cd8269fcc53a3dfb6c4,,,,,,,
,,,,,,,,,,,,,,,,,,,,,,,,,,,,,,,,,,,,,,,,,i,6.522000074,NI,FALSE,1,0,5,2,1,4,147,jaqueta,Catalan,Sounds/cat_jaqueta.mp3,2020-06-04_21h21.28.217,TranslationElicitation_eng-prolific,3.2.4,MacIntel,60,5ec56cd8269fcc53a3dfb6c4,,,,,,,
,,,,,,,,,,,,,,,,,,,,,,,,,,,,,,,,,,,,,,,,,c,6.786000013,NIC,FALSE,1,0,5,2,1,4,147,jaqueta,Catalan,Sounds/cat_jaqueta.mp3,2020-06-04_21h21.28.217,TranslationElicitation_eng-prolific,3.2.4,MacIntel,60,5ec56cd8269fcc53a3dfb6c4,,,,,,,
,,,,,,,,,,,,,,,,,,,,,,,,,,,,,,,,,,,,,,,,,e,7.105999947,NICE,FALSE,1,0,5,2,1,4,147,jaqueta,Catalan,Sounds/cat_jaqueta.mp3,2020-06-04_21h21.28.217,TranslationElicitation_eng-prolific,3.2.4,MacIntel,60,5ec56cd8269fcc53a3dfb6c4,,,,,,,
,,,,,,,,,,,,,,,,,,,,,,,,,,,,,,,,,,,,,,,,,space,7.316999912,NICE ,FALSE,1,0,5,2,1,4,147,jaqueta,Catalan,Sounds/cat_jaqueta.mp3,2020-06-04_21h21.28.217,TranslationElicitation_eng-prolific,3.2.4,MacIntel,60,5ec56cd8269fcc53a3dfb6c4,,,,,,,
,,,,,,,,,,,,,,,,,,,,,,,,,,,,,,,,,,,,,,,,,o,7.417000055,NICE O,FALSE,1,0,5,2,1,4,147,jaqueta,Catalan,Sounds/cat_jaqueta.mp3,2020-06-04_21h21.28.217,TranslationElicitation_eng-prolific,3.2.4,MacIntel,60,5ec56cd8269fcc53a3dfb6c4,,,,,,,
,,,,,,,,,,,,,,,,,,,,,,,,,,,,,,,,,,,,,,,,,n,7.651000023,NICE ON,FALSE,1,0,5,2,1,4,147,jaqueta,Catalan,Sounds/cat_jaqueta.mp3,2020-06-04_21h21.28.217,TranslationElicitation_eng-prolific,3.2.4,MacIntel,60,5ec56cd8269fcc53a3dfb6c4,,,,,,,
,,,,,,,,,,,,,,,,,,,,,,,,,,,,,,,,,,,,,,,,,e,7.739000082,NICE ONE,FALSE,1,0,5,2,1,4,147,jaqueta,Catalan,Sounds/cat_jaqueta.mp3,2020-06-04_21h21.28.217,TranslationElicitation_eng-prolific,3.2.4,MacIntel,60,5ec56cd8269fcc53a3dfb6c4,,,,,,,
,,,,,,,,,,,,,,,,,,,,,,,,,,,,,,,,,,,,,,,,,return,10.19300008,NICE ONE,FALSE,1,0,5,2,1,4,147,jaqueta,Catalan,Sounds/cat_jaqueta.mp3,2020-06-04_21h21.28.217,TranslationElicitation_eng-prolific,3.2.4,MacIntel,60,5ec56cd8269fcc53a3dfb6c4,10.19300008,,,,,,
,,,,,,,,,,,,,,,,,,,,,,,,,,,,,,,,,,,,,,,,,,,,,1,0,5,2,1,4,147,jaqueta,Catalan,Sounds/cat_jaqueta.mp3,2020-06-04_21h21.28.217,TranslationElicitation_eng-prolific,3.2.4,MacIntel,60,5ec56cd8269fcc53a3dfb6c4,,,,,,,
,,,,,,,,,,,,,,,,,,,,,,,,,,,,,,,,,,,,,,,,,m,16.90199995,M,FALSE,1,0,5,1,1,4,126,corona,Catalan,Sounds/cat_corona.mp3,2020-06-04_21h21.28.217,TranslationElicitation_eng-prolific,3.2.4,MacIntel,60,5ec56cd8269fcc53a3dfb6c4,,,,,,,
,,,,,,,,,,,,,,,,,,,,,,,,,,,,,,,,,,,,,,,,,a,17.08799982,MA,FALSE,1,0,5,1,1,4,126,corona,Catalan,Sounds/cat_corona.mp3,2020-06-04_21h21.28.217,TranslationElicitation_eng-prolific,3.2.4,MacIntel,60,5ec56cd8269fcc53a3dfb6c4,,,,,,,
,,,,,,,,,,,,,,,,,,,,,,,,,,,,,,,,,,,,,,,,,y,17.26699996,MAY,FALSE,1,0,5,1,1,4,126,corona,Catalan,Sounds/cat_corona.mp3,2020-06-04_21h21.28.217,TranslationElicitation_eng-prolific,3.2.4,MacIntel,60,5ec56cd8269fcc53a3dfb6c4,,,,,,,
,,,,,,,,,,,,,,,,,,,,,,,,,,,,,,,,,,,,,,,,,b,17.48899984,MAYB,FALSE,1,0,5,1,1,4,126,corona,Catalan,Sounds/cat_corona.mp3,2020-06-04_21h21.28.217,TranslationElicitation_eng-prolific,3.2.4,MacIntel,60,5ec56cd8269fcc53a3dfb6c4,,,,,,,
,,,,,,,,,,,,,,,,,,,,,,,,,,,,,,,,,,,,,,,,,e,17.62199998,MAYBE,FALSE,1,0,5,1,1,4,126,corona,Catalan,Sounds/cat_corona.mp3,2020-06-04_21h21.28.217,TranslationElicitation_eng-prolific,3.2.4,MacIntel,60,5ec56cd8269fcc53a3dfb6c4,,,,,,,
,,,,,,,,,,,,,,,,,,,,,,,,,,,,,,,,,,,,,,,,,return,18.02199984,MAYBE,FALSE,1,0,5,1,1,4,126,corona,Catalan,Sounds/cat_corona.mp3,2020-06-04_21h21.28.217,TranslationElicitation_eng-prolific,3.2.4,MacIntel,60,5ec56cd8269fcc53a3dfb6c4,18.02199984,,,,,,
,,,,,,,,,,,,,,,,,,,,,,,,,,,,,,,,,,,,,,,,,,,,,1,0,5,1,1,4,126,corona,Catalan,Sounds/cat_corona.mp3,2020-06-04_21h21.28.217,TranslationElicitation_eng-prolific,3.2.4,MacIntel,60,5ec56cd8269fcc53a3dfb6c4,,,,,,,
,,,,,,,,,,,,,,,,,,,,,,,,,,,,,,,,,,,,,,,,,d,4.322000027,D,FALSE,1,0,5,3,1,4,159,onada,Catalan,Sounds/cat_onada.mp3,2020-06-04_21h21.28.217,TranslationElicitation_eng-prolific,3.2.4,MacIntel,60,5ec56cd8269fcc53a3dfb6c4,,,,,,,
,,,,,,,,,,,,,,,,,,,,,,,,,,,,,,,,,,,,,,,,,e,4.453999996,DE,FALSE,1,0,5,3,1,4,159,onada,Catalan,Sounds/cat_onada.mp3,2020-06-04_21h21.28.217,TranslationElicitation_eng-prolific,3.2.4,MacIntel,60,5ec56cd8269fcc53a3dfb6c4,,,,,,,
,,,,,,,,,,,,,,,,,,,,,,,,,,,,,,,,,,,,,,,,,f,4.667999983,DEF,FALSE,1,0,5,3,1,4,159,onada,Catalan,Sounds/cat_onada.mp3,2020-06-04_21h21.28.217,TranslationElicitation_eng-prolific,3.2.4,MacIntel,60,5ec56cd8269fcc53a3dfb6c4,,,,,,,
,,,,,,,,,,,,,,,,,,,,,,,,,,,,,,,,,,,,,,,,,i,4.871999979,DEFI,FALSE,1,0,5,3,1,4,159,onada,Catalan,Sounds/cat_onada.mp3,2020-06-04_21h21.28.217,TranslationElicitation_eng-prolific,3.2.4,MacIntel,60,5ec56cd8269fcc53a3dfb6c4,,,,,,,
,,,,,,,,,,,,,,,,,,,,,,,,,,,,,,,,,,,,,,,,,n,5.071000099,DEFIN,FALSE,1,0,5,3,1,4,159,onada,Catalan,Sounds/cat_onada.mp3,2020-06-04_21h21.28.217,TranslationElicitation_eng-prolific,3.2.4,MacIntel,60,5ec56cd8269fcc53a3dfb6c4,,,,,,,
,,,,,,,,,,,,,,,,,,,,,,,,,,,,,,,,,,,,,,,,,i,5.25999999,DEFINI,FALSE,1,0,5,3,1,4,159,onada,Catalan,Sounds/cat_onada.mp3,2020-06-04_21h21.28.217,TranslationElicitation_eng-prolific,3.2.4,MacIntel,60,5ec56cd8269fcc53a3dfb6c4,,,,,,,
,,,,,,,,,,,,,,,,,,,,,,,,,,,,,,,,,,,,,,,,,t,5.299000025,DEFINIT,FALSE,1,0,5,3,1,4,159,onada,Catalan,Sounds/cat_onada.mp3,2020-06-04_21h21.28.217,TranslationElicitation_eng-prolific,3.2.4,MacIntel,60,5ec56cd8269fcc53a3dfb6c4,,,,,,,
,,,,,,,,,,,,,,,,,,,,,,,,,,,,,,,,,,,,,,,,,e,5.388999939,DEFINITE,FALSE,1,0,5,3,1,4,159,onada,Catalan,Sounds/cat_onada.mp3,2020-06-04_21h21.28.217,TranslationElicitation_eng-prolific,3.2.4,MacIntel,60,5ec56cd8269fcc53a3dfb6c4,,,,,,,
,,,,,,,,,,,,,,,,,,,,,,,,,,,,,,,,,,,,,,,,,l,5.521000147,DEFINITEL,FALSE,1,0,5,3,1,4,159,onada,Catalan,Sounds/cat_onada.mp3,2020-06-04_21h21.28.217,TranslationElicitation_eng-prolific,3.2.4,MacIntel,60,5ec56cd8269fcc53a3dfb6c4,,,,,,,
,,,,,,,,,,,,,,,,,,,,,,,,,,,,,,,,,,,,,,,,,y,5.600000143,DEFINITELY,FALSE,1,0,5,3,1,4,159,onada,Catalan,Sounds/cat_onada.mp3,2020-06-04_21h21.28.217,TranslationElicitation_eng-prolific,3.2.4,MacIntel,60,5ec56cd8269fcc53a3dfb6c4,,,,,,,
,,,,,,,,,,,,,,,,,,,,,,,,,,,,,,,,,,,,,,,,,return,6.496999979,DEFINITELY,FALSE,1,0,5,3,1,4,159,onada,Catalan,Sounds/cat_onada.mp3,2020-06-04_21h21.28.217,TranslationElicitation_eng-prolific,3.2.4,MacIntel,60,5ec56cd8269fcc53a3dfb6c4,6.496999979,,,,,,
,,,,,,,,,,,,,,,,,,,,,,,,,,,,,,,,,,,,,,,,,,,,,1,0,5,3,1,4,159,onada,Catalan,Sounds/cat_onada.mp3,2020-06-04_21h21.28.217,TranslationElicitation_eng-prolific,3.2.4,MacIntel,60,5ec56cd8269fcc53a3dfb6c4,,,,,,,
,,,,,,,,,,,,,,,,,,,,,,,,,,,,,,,,,,,,,,,,,p,14.85000014,P,FALSE,1,0,5,4,1,4,179,tigre,Catalan,Sounds/cat_tigre.mp3,2020-06-04_21h21.28.217,TranslationElicitation_eng-prolific,3.2.4,MacIntel,60,5ec56cd8269fcc53a3dfb6c4,,,,,,,
,,,,,,,,,,,,,,,,,,,,,,,,,,,,,,,,,,,,,,,,,e,15.06900001,PE,FALSE,1,0,5,4,1,4,179,tigre,Catalan,Sounds/cat_tigre.mp3,2020-06-04_21h21.28.217,TranslationElicitation_eng-prolific,3.2.4,MacIntel,60,5ec56cd8269fcc53a3dfb6c4,,,,,,,
,,,,,,,,,,,,,,,,,,,,,,,,,,,,,,,,,,,,,,,,,r,15.25600004,PER,FALSE,1,0,5,4,1,4,179,tigre,Catalan,Sounds/cat_tigre.mp3,2020-06-04_21h21.28.217,TranslationElicitation_eng-prolific,3.2.4,MacIntel,60,5ec56cd8269fcc53a3dfb6c4,,,,,,,
,,,,,,,,,,,,,,,,,,,,,,,,,,,,,,,,,,,,,,,,,h,15.75600004,PERH,FALSE,1,0,5,4,1,4,179,tigre,Catalan,Sounds/cat_tigre.mp3,2020-06-04_21h21.28.217,TranslationElicitation_eng-prolific,3.2.4,MacIntel,60,5ec56cd8269fcc53a3dfb6c4,,,,,,,
,,,,,,,,,,,,,,,,,,,,,,,,,,,,,,,,,,,,,,,,,a,15.93099999,PERHA,FALSE,1,0,5,4,1,4,179,tigre,Catalan,Sounds/cat_tigre.mp3,2020-06-04_21h21.28.217,TranslationElicitation_eng-prolific,3.2.4,MacIntel,60,5ec56cd8269fcc53a3dfb6c4,,,,,,,
,,,,,,,,,,,,,,,,,,,,,,,,,,,,,,,,,,,,,,,,,p,16.42400002,PERHAP,FALSE,1,0,5,4,1,4,179,tigre,Catalan,Sounds/cat_tigre.mp3,2020-06-04_21h21.28.217,TranslationElicitation_eng-prolific,3.2.4,MacIntel,60,5ec56cd8269fcc53a3dfb6c4,,,,,,,
,,,,,,,,,,,,,,,,,,,,,,,,,,,,,,,,,,,,,,,,,s,16.59700012,PERHAPS,FALSE,1,0,5,4,1,4,179,tigre,Catalan,Sounds/cat_tigre.mp3,2020-06-04_21h21.28.217,TranslationElicitation_eng-prolific,3.2.4,MacIntel,60,5ec56cd8269fcc53a3dfb6c4,,,,,,,
,,,,,,,,,,,,,,,,,,,,,,,,,,,,,,,,,,,,,,,,,return,18.74800014,PERHAPS,FALSE,1,0,5,4,1,4,179,tigre,Catalan,Sounds/cat_tigre.mp3,2020-06-04_21h21.28.217,TranslationElicitation_eng-prolific,3.2.4,MacIntel,60,5ec56cd8269fcc53a3dfb6c4,18.74800014,,,,,,
,,,,,,,,,,,,,,,,,,,,,,,,,,,,,,,,,,,,,,,,,,,,,1,0,5,4,1,4,179,tigre,Catalan,Sounds/cat_tigre.mp3,2020-06-04_21h21.28.217,TranslationElicitation_eng-prolific,3.2.4,MacIntel,60,5ec56cd8269fcc53a3dfb6c4,,,,,,,
,,,,,,,,,,,,,,,,,,,,,,,,,,,,,,,,,,,,,,,,,p,1.802999973,P,FALSE,,,,,,,174,porta,Catalan,Sounds/cat_porta.mp3,2020-06-04_21h21.28.217,TranslationElicitation_eng-prolific,3.2.4,MacIntel,60,5ec56cd8269fcc53a3dfb6c4,,1,0,81,66,1,80
,,,,,,,,,,,,,,,,,,,,,,,,,,,,,,,,,,,,,,,,,a,1.931999922,PA,FALSE,,,,,,,174,porta,Catalan,Sounds/cat_porta.mp3,2020-06-04_21h21.28.217,TranslationElicitation_eng-prolific,3.2.4,MacIntel,60,5ec56cd8269fcc53a3dfb6c4,,1,0,81,66,1,80
,,,,,,,,,,,,,,,,,,,,,,,,,,,,,,,,,,,,,,,,,r,1.976000071,PAR,FALSE,,,,,,,174,porta,Catalan,Sounds/cat_porta.mp3,2020-06-04_21h21.28.217,TranslationElicitation_eng-prolific,3.2.4,MacIntel,60,5ec56cd8269fcc53a3dfb6c4,,1,0,81,66,1,80
,,,,,,,,,,,,,,,,,,,,,,,,,,,,,,,,,,,,,,,,,t,2.482000113,PART,FALSE,,,,,,,174,porta,Catalan,Sounds/cat_porta.mp3,2020-06-04_21h21.28.217,TranslationElicitation_eng-prolific,3.2.4,MacIntel,60,5ec56cd8269fcc53a3dfb6c4,,1,0,81,66,1,80
,,,,,,,,,,,,,,,,,,,,,,,,,,,,,,,,,,,,,,,,,y,2.694000006,PARTY,FALSE,,,,,,,174,porta,Catalan,Sounds/cat_porta.mp3,2020-06-04_21h21.28.217,TranslationElicitation_eng-prolific,3.2.4,MacIntel,60,5ec56cd8269fcc53a3dfb6c4,,1,0,81,66,1,80
,,,,,,,,,,,,,,,,,,,,,,,,,,,,,,,,,,,,,,,,,return,3.190999985,PARTY,FALSE,,,,,,,174,porta,Catalan,Sounds/cat_porta.mp3,2020-06-04_21h21.28.217,TranslationElicitation_eng-prolific,3.2.4,MacIntel,60,5ec56cd8269fcc53a3dfb6c4,3.190999985,1,0,81,66,1,80
,,,,,,,,,,,,,,,,,,,,,,,,,,,,,,,,,,,,,,,,,,,,,,,,,,,174,porta,Catalan,Sounds/cat_porta.mp3,2020-06-04_21h21.28.217,TranslationElicitation_eng-prolific,3.2.4,MacIntel,60,5ec56cd8269fcc53a3dfb6c4,,1,0,81,66,1,80
,,,,,,,,,,,,,,,,,,,,,,,,,,,,,,,,,,,,,,,,,c,3.614000082,C,FALSE,,,,,,,140,gat,Catalan,Sounds/cat_gat.mp3,2020-06-04_21h21.28.217,TranslationElicitation_eng-prolific,3.2.4,MacIntel,60,5ec56cd8269fcc53a3dfb6c4,,1,0,81,34,1,80
,,,,,,,,,,,,,,,,,,,,,,,,,,,,,,,,,,,,,,,,,a,3.712000132,CA,FALSE,,,,,,,140,gat,Catalan,Sounds/cat_gat.mp3,2020-06-04_21h21.28.217,TranslationElicitation_eng-prolific,3.2.4,MacIntel,60,5ec56cd8269fcc53a3dfb6c4,,1,0,81,34,1,80
,,,,,,,,,,,,,,,,,,,,,,,,,,,,,,,,,,,,,,,,,k,3.845999956,CAK,FALSE,,,,,,,140,gat,Catalan,Sounds/cat_gat.mp3,2020-06-04_21h21.28.217,TranslationElicitation_eng-prolific,3.2.4,MacIntel,60,5ec56cd8269fcc53a3dfb6c4,,1,0,81,34,1,80
,,,,,,,,,,,,,,,,,,,,,,,,,,,,,,,,,,,,,,,,,e,3.934000015,CAKE,FALSE,,,,,,,140,gat,Catalan,Sounds/cat_gat.mp3,2020-06-04_21h21.28.217,TranslationElicitation_eng-prolific,3.2.4,MacIntel,60,5ec56cd8269fcc53a3dfb6c4,,1,0,81,34,1,80
,,,,,,,,,,,,,,,,,,,,,,,,,,,,,,,,,,,,,,,,,return,4.281000137,CAKE,FALSE,,,,,,,140,gat,Catalan,Sounds/cat_gat.mp3,2020-06-04_21h21.28.217,TranslationElicitation_eng-prolific,3.2.4,MacIntel,60,5ec56cd8269fcc53a3dfb6c4,4.281000137,1,0,81,34,1,80
,,,,,,,,,,,,,,,,,,,,,,,,,,,,,,,,,,,,,,,,,,,,,,,,,,,140,gat,Catalan,Sounds/cat_gat.mp3,2020-06-04_21h21.28.217,TranslationElicitation_eng-prolific,3.2.4,MacIntel,60,5ec56cd8269fcc53a3dfb6c4,,1,0,81,34,1,80
,,,,,,,,,,,,,,,,,,,,,,,,,,,,,,,,,,,,,,,,,s,6.029000044,S,FALSE,,,,,,,141,gerd,Catalan,Sounds/cat_gerd.mp3,2020-06-04_21h21.28.217,TranslationElicitation_eng-prolific,3.2.4,MacIntel,60,5ec56cd8269fcc53a3dfb6c4,,1,0,81,35,1,80
,,,,,,,,,,,,,,,,,,,,,,,,,,,,,,,,,,,,,,,,,h,6.251000166,SH,FALSE,,,,,,,141,gerd,Catalan,Sounds/cat_gerd.mp3,2020-06-04_21h21.28.217,TranslationElicitation_eng-prolific,3.2.4,MacIntel,60,5ec56cd8269fcc53a3dfb6c4,,1,0,81,35,1,80
,,,,,,,,,,,,,,,,,,,,,,,,,,,,,,,,,,,,,,,,,e,6.332000017,SHE,FALSE,,,,,,,141,gerd,Catalan,Sounds/cat_gerd.mp3,2020-06-04_21h21.28.217,TranslationElicitation_eng-prolific,3.2.4,MacIntel,60,5ec56cd8269fcc53a3dfb6c4,,1,0,81,35,1,80
,,,,,,,,,,,,,,,,,,,,,,,,,,,,,,,,,,,,,,,,,d,6.526000023,SHED,FALSE,,,,,,,141,gerd,Catalan,Sounds/cat_gerd.mp3,2020-06-04_21h21.28.217,TranslationElicitation_eng-prolific,3.2.4,MacIntel,60,5ec56cd8269fcc53a3dfb6c4,,1,0,81,35,1,80
,,,,,,,,,,,,,,,,,,,,,,,,,,,,,,,,,,,,,,,,,return,7.151000023,SHED,FALSE,,,,,,,141,gerd,Catalan,Sounds/cat_gerd.mp3,2020-06-04_21h21.28.217,TranslationElicitation_eng-prolific,3.2.4,MacIntel,60,5ec56cd8269fcc53a3dfb6c4,7.151000023,1,0,81,35,1,80
,,,,,,,,,,,,,,,,,,,,,,,,,,,,,,,,,,,,,,,,,,,,,,,,,,,141,gerd,Catalan,Sounds/cat_gerd.mp3,2020-06-04_21h21.28.217,TranslationElicitation_eng-prolific,3.2.4,MacIntel,60,5ec56cd8269fcc53a3dfb6c4,,1,0,81,35,1,80
,,,,,,,,,,,,,,,,,,,,,,,,,,,,,,,,,,,,,,,,,g,3.065000057,G,FALSE,,,,,,,161,ovella,Catalan,Sounds/cat_ovella.mp3,2020-06-04_21h21.28.217,TranslationElicitation_eng-prolific,3.2.4,MacIntel,60,5ec56cd8269fcc53a3dfb6c4,,1,0,81,53,1,80
,,,,,,,,,,,,,,,,,,,,,,,,,,,,,,,,,,,,,,,,,r,3.23300004,GR,FALSE,,,,,,,161,ovella,Catalan,Sounds/cat_ovella.mp3,2020-06-04_21h21.28.217,TranslationElicitation_eng-prolific,3.2.4,MacIntel,60,5ec56cd8269fcc53a3dfb6c4,,1,0,81,53,1,80
,,,,,,,,,,,,,,,,,,,,,,,,,,,,,,,,,,,,,,,,,a,3.333000183,GRA,FALSE,,,,,,,161,ovella,Catalan,Sounds/cat_ovella.mp3,2020-06-04_21h21.28.217,TranslationElicitation_eng-prolific,3.2.4,MacIntel,60,5ec56cd8269fcc53a3dfb6c4,,1,0,81,53,1,80
,,,,,,,,,,,,,,,,,,,,,,,,,,,,,,,,,,,,,,,,,n,3.502000093,GRAN,FALSE,,,,,,,161,ovella,Catalan,Sounds/cat_ovella.mp3,2020-06-04_21h21.28.217,TranslationElicitation_eng-prolific,3.2.4,MacIntel,60,5ec56cd8269fcc53a3dfb6c4,,1,0,81,53,1,80
,,,,,,,,,,,,,,,,,,,,,,,,,,,,,,,,,,,,,,,,,d,3.887000084,GRAND,FALSE,,,,,,,161,ovella,Catalan,Sounds/cat_ovella.mp3,2020-06-04_21h21.28.217,TranslationElicitation_eng-prolific,3.2.4,MacIntel,60,5ec56cd8269fcc53a3dfb6c4,,1,0,81,53,1,80
,,,,,,,,,,,,,,,,,,,,,,,,,,,,,,,,,,,,,,,,,m,4.111000061,GRANDM,FALSE,,,,,,,161,ovella,Catalan,Sounds/cat_ovella.mp3,2020-06-04_21h21.28.217,TranslationElicitation_eng-prolific,3.2.4,MacIntel,60,5ec56cd8269fcc53a3dfb6c4,,1,0,81,53,1,80
,,,,,,,,,,,,,,,,,,,,,,,,,,,,,,,,,,,,,,,,,a,4.245000124,GRANDMA,FALSE,,,,,,,161,ovella,Catalan,Sounds/cat_ovella.mp3,2020-06-04_21h21.28.217,TranslationElicitation_eng-prolific,3.2.4,MacIntel,60,5ec56cd8269fcc53a3dfb6c4,,1,0,81,53,1,80
,,,,,,,,,,,,,,,,,,,,,,,,,,,,,,,,,,,,,,,,,backspace,5.488000154,GRANDM,TRUE,,,,,,,161,ovella,Catalan,Sounds/cat_ovella.mp3,2020-06-04_21h21.28.217,TranslationElicitation_eng-prolific,3.2.4,MacIntel,60,5ec56cd8269fcc53a3dfb6c4,,1,0,81,53,1,80
,,,,,,,,,,,,,,,,,,,,,,,,,,,,,,,,,,,,,,,,,o,5.697000027,GRANDMO,TRUE,,,,,,,161,ovella,Catalan,Sounds/cat_ovella.mp3,2020-06-04_21h21.28.217,TranslationElicitation_eng-prolific,3.2.4,MacIntel,60,5ec56cd8269fcc53a3dfb6c4,,1,0,81,53,1,80
,,,,,,,,,,,,,,,,,,,,,,,,,,,,,,,,,,,,,,,,,t,5.888000011,GRANDMOT,TRUE,,,,,,,161,ovella,Catalan,Sounds/cat_ovella.mp3,2020-06-04_21h21.28.217,TranslationElicitation_eng-prolific,3.2.4,MacIntel,60,5ec56cd8269fcc53a3dfb6c4,,1,0,81,53,1,80
,,,,,,,,,,,,,,,,,,,,,,,,,,,,,,,,,,,,,,,,,h,6.061000109,GRANDMOTH,TRUE,,,,,,,161,ovella,Catalan,Sounds/cat_ovella.mp3,2020-06-04_21h21.28.217,TranslationElicitation_eng-prolific,3.2.4,MacIntel,60,5ec56cd8269fcc53a3dfb6c4,,1,0,81,53,1,80
,,,,,,,,,,,,,,,,,,,,,,,,,,,,,,,,,,,,,,,,,e,6.194000006,GRANDMOTHE,TRUE,,,,,,,161,ovella,Catalan,Sounds/cat_ovella.mp3,2020-06-04_21h21.28.217,TranslationElicitation_eng-prolific,3.2.4,MacIntel,60,5ec56cd8269fcc53a3dfb6c4,,1,0,81,53,1,80
,,,,,,,,,,,,,,,,,,,,,,,,,,,,,,,,,,,,,,,,,return,6.629000187,GRANDMOTHE,TRUE,,,,,,,161,ovella,Catalan,Sounds/cat_ovella.mp3,2020-06-04_21h21.28.217,TranslationElicitation_eng-prolific,3.2.4,MacIntel,60,5ec56cd8269fcc53a3dfb6c4,6.629000187,1,0,81,53,1,80
,,,,,,,,,,,,,,,,,,,,,,,,,,,,,,,,,,,,,,,,,,,,,,,,,,,161,ovella,Catalan,Sounds/cat_ovella.mp3,2020-06-04_21h21.28.217,TranslationElicitation_eng-prolific,3.2.4,MacIntel,60,5ec56cd8269fcc53a3dfb6c4,,1,0,81,53,1,80
,,,,,,,,,,,,,,,,,,,,,,,,,,,,,,,,,,,,,,,,,c,7.834000111,C,FALSE,,,,,,,142,girafa,Catalan,Sounds/cat_girafa.mp3,2020-06-04_21h21.28.217,TranslationElicitation_eng-prolific,3.2.4,MacIntel,60,5ec56cd8269fcc53a3dfb6c4,,1,0,81,36,1,80
,,,,,,,,,,,,,,,,,,,,,,,,,,,,,,,,,,,,,,,,,h,8.022000074,CH,FALSE,,,,,,,142,girafa,Catalan,Sounds/cat_girafa.mp3,2020-06-04_21h21.28.217,TranslationElicitation_eng-prolific,3.2.4,MacIntel,60,5ec56cd8269fcc53a3dfb6c4,,1,0,81,36,1,80
,,,,,,,,,,,,,,,,,,,,,,,,,,,,,,,,,,,,,,,,,i,8.733999968,CHI,FALSE,,,,,,,142,girafa,Catalan,Sounds/cat_girafa.mp3,2020-06-04_21h21.28.217,TranslationElicitation_eng-prolific,3.2.4,MacIntel,60,5ec56cd8269fcc53a3dfb6c4,,1,0,81,36,1,80
,,,,,,,,,,,,,,,,,,,,,,,,,,,,,,,,,,,,,,,,,l,8.964999914,CHIL,FALSE,,,,,,,142,girafa,Catalan,Sounds/cat_girafa.mp3,2020-06-04_21h21.28.217,TranslationElicitation_eng-prolific,3.2.4,MacIntel,60,5ec56cd8269fcc53a3dfb6c4,,1,0,81,36,1,80
,,,,,,,,,,,,,,,,,,,,,,,,,,,,,,,,,,,,,,,,,d,9.055000067,CHILD,FALSE,,,,,,,142,girafa,Catalan,Sounds/cat_girafa.mp3,2020-06-04_21h21.28.217,TranslationElicitation_eng-prolific,3.2.4,MacIntel,60,5ec56cd8269fcc53a3dfb6c4,,1,0,81,36,1,80
,,,,,,,,,,,,,,,,,,,,,,,,,,,,,,,,,,,,,,,,,return,10.4289999,CHILD,FALSE,,,,,,,142,girafa,Catalan,Sounds/cat_girafa.mp3,2020-06-04_21h21.28.217,TranslationElicitation_eng-prolific,3.2.4,MacIntel,60,5ec56cd8269fcc53a3dfb6c4,10.4289999,1,0,81,36,1,80
,,,,,,,,,,,,,,,,,,,,,,,,,,,,,,,,,,,,,,,,,,,,,,,,,,,142,girafa,Catalan,Sounds/cat_girafa.mp3,2020-06-04_21h21.28.217,TranslationElicitation_eng-prolific,3.2.4,MacIntel,60,5ec56cd8269fcc53a3dfb6c4,,1,0,81,36,1,80
,,,,,,,,,,,,,,,,,,,,,,,,,,,,,,,,,,,,,,,,,p,1.928999901,P,FALSE,,,,,,,173,porc,Catalan,Sounds/cat_porc.mp3,2020-06-04_21h21.28.217,TranslationElicitation_eng-prolific,3.2.4,MacIntel,60,5ec56cd8269fcc53a3dfb6c4,,1,0,81,65,1,80
,,,,,,,,,,,,,,,,,,,,,,,,,,,,,,,,,,,,,,,,,a,2.027999878,PA,FALSE,,,,,,,173,porc,Catalan,Sounds/cat_porc.mp3,2020-06-04_21h21.28.217,TranslationElicitation_eng-prolific,3.2.4,MacIntel,60,5ec56cd8269fcc53a3dfb6c4,,1,0,81,65,1,80
,,,,,,,,,,,,,,,,,,,,,,,,,,,,,,,,,,,,,,,,,r,2.115999937,PAR,FALSE,,,,,,,173,porc,Catalan,Sounds/cat_porc.mp3,2020-06-04_21h21.28.217,TranslationElicitation_eng-prolific,3.2.4,MacIntel,60,5ec56cd8269fcc53a3dfb6c4,,1,0,81,65,1,80
,,,,,,,,,,,,,,,,,,,,,,,,,,,,,,,,,,,,,,,,,k,2.398999929,PARK,FALSE,,,,,,,173,porc,Catalan,Sounds/cat_porc.mp3,2020-06-04_21h21.28.217,TranslationElicitation_eng-prolific,3.2.4,MacIntel,60,5ec56cd8269fcc53a3dfb6c4,,1,0,81,65,1,80
,,,,,,,,,,,,,,,,,,,,,,,,,,,,,,,,,,,,,,,,,return,2.704999924,PARK,FALSE,,,,,,,173,porc,Catalan,Sounds/cat_porc.mp3,2020-06-04_21h21.28.217,TranslationElicitation_eng-prolific,3.2.4,MacIntel,60,5ec56cd8269fcc53a3dfb6c4,2.704999924,1,0,81,65,1,80
,,,,,,,,,,,,,,,,,,,,,,,,,,,,,,,,,,,,,,,,,,,,,,,,,,,173,porc,Catalan,Sounds/cat_porc.mp3,2020-06-04_21h21.28.217,TranslationElicitation_eng-prolific,3.2.4,MacIntel,60,5ec56cd8269fcc53a3dfb6c4,,1,0,81,65,1,80
,,,,,,,,,,,,,,,,,,,,,,,,,,,,,,,,,,,,,,,,,f,1.52699995,F,FALSE,,,,,,,134,flor,Catalan,Sounds/cat_flor.mp3,2020-06-04_21h21.28.217,TranslationElicitation_eng-prolific,3.2.4,MacIntel,60,5ec56cd8269fcc53a3dfb6c4,,1,0,81,28,1,80
,,,,,,,,,,,,,,,,,,,,,,,,,,,,,,,,,,,,,,,,,l,1.661000013,FL,FALSE,,,,,,,134,flor,Catalan,Sounds/cat_flor.mp3,2020-06-04_21h21.28.217,TranslationElicitation_eng-prolific,3.2.4,MacIntel,60,5ec56cd8269fcc53a3dfb6c4,,1,0,81,28,1,80
,,,,,,,,,,,,,,,,,,,,,,,,,,,,,,,,,,,,,,,,,o,1.828999996,FLO,FALSE,,,,,,,134,flor,Catalan,Sounds/cat_flor.mp3,2020-06-04_21h21.28.217,TranslationElicitation_eng-prolific,3.2.4,MacIntel,60,5ec56cd8269fcc53a3dfb6c4,,1,0,81,28,1,80
,,,,,,,,,,,,,,,,,,,,,,,,,,,,,,,,,,,,,,,,,w,2.015999794,FLOW,FALSE,,,,,,,134,flor,Catalan,Sounds/cat_flor.mp3,2020-06-04_21h21.28.217,TranslationElicitation_eng-prolific,3.2.4,MacIntel,60,5ec56cd8269fcc53a3dfb6c4,,1,0,81,28,1,80
,,,,,,,,,,,,,,,,,,,,,,,,,,,,,,,,,,,,,,,,,e,2.061999798,FLOWE,FALSE,,,,,,,134,flor,Catalan,Sounds/cat_flor.mp3,2020-06-04_21h21.28.217,TranslationElicitation_eng-prolific,3.2.4,MacIntel,60,5ec56cd8269fcc53a3dfb6c4,,1,0,81,28,1,80
,,,,,,,,,,,,,,,,,,,,,,,,,,,,,,,,,,,,,,,,,r,2.299999952,FLOWER,FALSE,,,,,,,134,flor,Catalan,Sounds/cat_flor.mp3,2020-06-04_21h21.28.217,TranslationElicitation_eng-prolific,3.2.4,MacIntel,60,5ec56cd8269fcc53a3dfb6c4,,1,0,81,28,1,80
,,,,,,,,,,,,,,,,,,,,,,,,,,,,,,,,,,,,,,,,,return,4.194000006,FLOWER,FALSE,,,,,,,134,flor,Catalan,Sounds/cat_flor.mp3,2020-06-04_21h21.28.217,TranslationElicitation_eng-prolific,3.2.4,MacIntel,60,5ec56cd8269fcc53a3dfb6c4,4.194000006,1,0,81,28,1,80
,,,,,,,,,,,,,,,,,,,,,,,,,,,,,,,,,,,,,,,,,,,,,,,,,,,134,flor,Catalan,Sounds/cat_flor.mp3,2020-06-04_21h21.28.217,TranslationElicitation_eng-prolific,3.2.4,MacIntel,60,5ec56cd8269fcc53a3dfb6c4,,1,0,81,28,1,80
,,,,,,,,,,,,,,,,,,,,,,,,,,,,,,,,,,,,,,,,,b,9.199999809,B,FALSE,,,,,,,170,ploma,Catalan,Sounds/cat_ploma.mp3,2020-06-04_21h21.28.217,TranslationElicitation_eng-prolific,3.2.4,MacIntel,60,5ec56cd8269fcc53a3dfb6c4,,1,0,81,62,1,80
,,,,,,,,,,,,,,,,,,,,,,,,,,,,,,,,,,,,,,,,,r,9.243999958,BR,FALSE,,,,,,,170,ploma,Catalan,Sounds/cat_ploma.mp3,2020-06-04_21h21.28.217,TranslationElicitation_eng-prolific,3.2.4,MacIntel,60,5ec56cd8269fcc53a3dfb6c4,,1,0,81,62,1,80
,,,,,,,,,,,,,,,,,,,,,,,,,,,,,,,,,,,,,,,,,g,9.645999908,BRG,FALSE,,,,,,,170,ploma,Catalan,Sounds/cat_ploma.mp3,2020-06-04_21h21.28.217,TranslationElicitation_eng-prolific,3.2.4,MacIntel,60,5ec56cd8269fcc53a3dfb6c4,,1,0,81,62,1,80
,,,,,,,,,,,,,,,,,,,,,,,,,,,,,,,,,,,,,,,,,backspace,10.13399982,BR,TRUE,,,,,,,170,ploma,Catalan,Sounds/cat_ploma.mp3,2020-06-04_21h21.28.217,TranslationElicitation_eng-prolific,3.2.4,MacIntel,60,5ec56cd8269fcc53a3dfb6c4,,1,0,81,62,1,80
,,,,,,,,,,,,,,,,,,,,,,,,,,,,,,,,,,,,,,,,,i,10.5309999,BRI,TRUE,,,,,,,170,ploma,Catalan,Sounds/cat_ploma.mp3,2020-06-04_21h21.28.217,TranslationElicitation_eng-prolific,3.2.4,MacIntel,60,5ec56cd8269fcc53a3dfb6c4,,1,0,81,62,1,80
,,,,,,,,,,,,,,,,,,,,,,,,,,,,,,,,,,,,,,,,,g,10.66199994,BRIG,TRUE,,,,,,,170,ploma,Catalan,Sounds/cat_ploma.mp3,2020-06-04_21h21.28.217,TranslationElicitation_eng-prolific,3.2.4,MacIntel,60,5ec56cd8269fcc53a3dfb6c4,,1,0,81,62,1,80
,,,,,,,,,,,,,,,,,,,,,,,,,,,,,,,,,,,,,,,,,h,10.796,BRIGH,TRUE,,,,,,,170,ploma,Catalan,Sounds/cat_ploma.mp3,2020-06-04_21h21.28.217,TranslationElicitation_eng-prolific,3.2.4,MacIntel,60,5ec56cd8269fcc53a3dfb6c4,,1,0,81,62,1,80
,,,,,,,,,,,,,,,,,,,,,,,,,,,,,,,,,,,,,,,,,t,10.89299989,BRIGHT,TRUE,,,,,,,170,ploma,Catalan,Sounds/cat_ploma.mp3,2020-06-04_21h21.28.217,TranslationElicitation_eng-prolific,3.2.4,MacIntel,60,5ec56cd8269fcc53a3dfb6c4,,1,0,81,62,1,80
,,,,,,,,,,,,,,,,,,,,,,,,,,,,,,,,,,,,,,,,,return,11.25,BRIGHT,TRUE,,,,,,,170,ploma,Catalan,Sounds/cat_ploma.mp3,2020-06-04_21h21.28.217,TranslationElicitation_eng-prolific,3.2.4,MacIntel,60,5ec56cd8269fcc53a3dfb6c4,11.25,1,0,81,62,1,80
,,,,,,,,,,,,,,,,,,,,,,,,,,,,,,,,,,,,,,,,,,,,,,,,,,,170,ploma,Catalan,Sounds/cat_ploma.mp3,2020-06-04_21h21.28.217,TranslationElicitation_eng-prolific,3.2.4,MacIntel,60,5ec56cd8269fcc53a3dfb6c4,,1,0,81,62,1,80
,,,,,,,,,,,,,,,,,,,,,,,,,,,,,,,,,,,,,,,,,b,5.404999971,B,FALSE,,,,,,,115,bolet,Catalan,Sounds/cat_bolet.mp3,2020-06-04_21h21.28.217,TranslationElicitation_eng-prolific,3.2.4,MacIntel,60,5ec56cd8269fcc53a3dfb6c4,,1,0,81,10,1,80
,,,,,,,,,,,,,,,,,,,,,,,,,,,,,,,,,,,,,,,,,u,5.605000019,BU,FALSE,,,,,,,115,bolet,Catalan,Sounds/cat_bolet.mp3,2020-06-04_21h21.28.217,TranslationElicitation_eng-prolific,3.2.4,MacIntel,60,5ec56cd8269fcc53a3dfb6c4,,1,0,81,10,1,80
,,,,,,,,,,,,,,,,,,,,,,,,,,,,,,,,,,,,,,,,,l,5.932999849,BUL,FALSE,,,,,,,115,bolet,Catalan,Sounds/cat_bolet.mp3,2020-06-04_21h21.28.217,TranslationElicitation_eng-prolific,3.2.4,MacIntel,60,5ec56cd8269fcc53a3dfb6c4,,1,0,81,10,1,80
,,,,,,,,,,,,,,,,,,,,,,,,,,,,,,,,,,,,,,,,,l,6.100999832,BULL,FALSE,,,,,,,115,bolet,Catalan,Sounds/cat_bolet.mp3,2020-06-04_21h21.28.217,TranslationElicitation_eng-prolific,3.2.4,MacIntel,60,5ec56cd8269fcc53a3dfb6c4,,1,0,81,10,1,80
,,,,,,,,,,,,,,,,,,,,,,,,,,,,,,,,,,,,,,,,,e,6.254999876,BULLE,FALSE,,,,,,,115,bolet,Catalan,Sounds/cat_bolet.mp3,2020-06-04_21h21.28.217,TranslationElicitation_eng-prolific,3.2.4,MacIntel,60,5ec56cd8269fcc53a3dfb6c4,,1,0,81,10,1,80
,,,,,,,,,,,,,,,,,,,,,,,,,,,,,,,,,,,,,,,,,t,6.299000025,BULLET,FALSE,,,,,,,115,bolet,Catalan,Sounds/cat_bolet.mp3,2020-06-04_21h21.28.217,TranslationElicitation_eng-prolific,3.2.4,MacIntel,60,5ec56cd8269fcc53a3dfb6c4,,1,0,81,10,1,80
,,,,,,,,,,,,,,,,,,,,,,,,,,,,,,,,,,,,,,,,,return,6.786999941,BULLET,FALSE,,,,,,,115,bolet,Catalan,Sounds/cat_bolet.mp3,2020-06-04_21h21.28.217,TranslationElicitation_eng-prolific,3.2.4,MacIntel,60,5ec56cd8269fcc53a3dfb6c4,6.786999941,1,0,81,10,1,80
,,,,,,,,,,,,,,,,,,,,,,,,,,,,,,,,,,,,,,,,,,,,,,,,,,,115,bolet,Catalan,Sounds/cat_bolet.mp3,2020-06-04_21h21.28.217,TranslationElicitation_eng-prolific,3.2.4,MacIntel,60,5ec56cd8269fcc53a3dfb6c4,,1,0,81,10,1,80
,,,,,,,,,,,,,,,,,,,,,,,,,,,,,,,,,,,,,,,,,b,15.87199998,B,FALSE,,,,,,,117,boto,Catalan,Sounds/cat_boto.mp3,2020-06-04_21h21.28.217,TranslationElicitation_eng-prolific,3.2.4,MacIntel,60,5ec56cd8269fcc53a3dfb6c4,,1,0,81,12,1,80
,,,,,,,,,,,,,,,,,,,,,,,,,,,,,,,,,,,,,,,,,e,16.00600004,BE,FALSE,,,,,,,117,boto,Catalan,Sounds/cat_boto.mp3,2020-06-04_21h21.28.217,TranslationElicitation_eng-prolific,3.2.4,MacIntel,60,5ec56cd8269fcc53a3dfb6c4,,1,0,81,12,1,80
,,,,,,,,,,,,,,,,,,,,,,,,,,,,,,,,,,,,,,,,,d,16.18400002,BED,FALSE,,,,,,,117,boto,Catalan,Sounds/cat_boto.mp3,2020-06-04_21h21.28.217,TranslationElicitation_eng-prolific,3.2.4,MacIntel,60,5ec56cd8269fcc53a3dfb6c4,,1,0,81,12,1,80
,,,,,,,,,,,,,,,,,,,,,,,,,,,,,,,,,,,,,,,,,r,16.40499997,BEDR,FALSE,,,,,,,117,boto,Catalan,Sounds/cat_boto.mp3,2020-06-04_21h21.28.217,TranslationElicitation_eng-prolific,3.2.4,MacIntel,60,5ec56cd8269fcc53a3dfb6c4,,1,0,81,12,1,80
,,,,,,,,,,,,,,,,,,,,,,,,,,,,,,,,,,,,,,,,,o,17.02999997,BEDRO,FALSE,,,,,,,117,boto,Catalan,Sounds/cat_boto.mp3,2020-06-04_21h21.28.217,TranslationElicitation_eng-prolific,3.2.4,MacIntel,60,5ec56cd8269fcc53a3dfb6c4,,1,0,81,12,1,80
,,,,,,,,,,,,,,,,,,,,,,,,,,,,,,,,,,,,,,,,,o,17.11800003,BEDROO,FALSE,,,,,,,117,boto,Catalan,Sounds/cat_boto.mp3,2020-06-04_21h21.28.217,TranslationElicitation_eng-prolific,3.2.4,MacIntel,60,5ec56cd8269fcc53a3dfb6c4,,1,0,81,12,1,80
,,,,,,,,,,,,,,,,,,,,,,,,,,,,,,,,,,,,,,,,,m,17.34700012,BEDROOM,FALSE,,,,,,,117,boto,Catalan,Sounds/cat_boto.mp3,2020-06-04_21h21.28.217,TranslationElicitation_eng-prolific,3.2.4,MacIntel,60,5ec56cd8269fcc53a3dfb6c4,,1,0,81,12,1,80
,,,,,,,,,,,,,,,,,,,,,,,,,,,,,,,,,,,,,,,,,return,17.6500001,BEDROOM,FALSE,,,,,,,117,boto,Catalan,Sounds/cat_boto.mp3,2020-06-04_21h21.28.217,TranslationElicitation_eng-prolific,3.2.4,MacIntel,60,5ec56cd8269fcc53a3dfb6c4,17.6500001,1,0,81,12,1,80
,,,,,,,,,,,,,,,,,,,,,,,,,,,,,,,,,,,,,,,,,,,,,,,,,,,117,boto,Catalan,Sounds/cat_boto.mp3,2020-06-04_21h21.28.217,TranslationElicitation_eng-prolific,3.2.4,MacIntel,60,5ec56cd8269fcc53a3dfb6c4,,1,0,81,12,1,80
,,,,,,,,,,,,,,,,,,,,,,,,,,,,,,,,,,,,,,,,,d,1.684000015,D,FALSE,,,,,,,180,tisores,Catalan,Sounds/cat_tisores.mp3,2020-06-04_21h21.28.217,TranslationElicitation_eng-prolific,3.2.4,MacIntel,60,5ec56cd8269fcc53a3dfb6c4,,1,0,81,71,1,80
,,,,,,,,,,,,,,,,,,,,,,,,,,,,,,,,,,,,,,,,,e,1.870000124,DE,FALSE,,,,,,,180,tisores,Catalan,Sounds/cat_tisores.mp3,2020-06-04_21h21.28.217,TranslationElicitation_eng-prolific,3.2.4,MacIntel,60,5ec56cd8269fcc53a3dfb6c4,,1,0,81,71,1,80
,,,,,,,,,,,,,,,,,,,,,,,,,,,,,,,,,,,,,,,,,s,2.085000038,DES,FALSE,,,,,,,180,tisores,Catalan,Sounds/cat_tisores.mp3,2020-06-04_21h21.28.217,TranslationElicitation_eng-prolific,3.2.4,MacIntel,60,5ec56cd8269fcc53a3dfb6c4,,1,0,81,71,1,80
,,,,,,,,,,,,,,,,,,,,,,,,,,,,,,,,,,,,,,,,,s,2.96600008,DESS,FALSE,,,,,,,180,tisores,Catalan,Sounds/cat_tisores.mp3,2020-06-04_21h21.28.217,TranslationElicitation_eng-prolific,3.2.4,MacIntel,60,5ec56cd8269fcc53a3dfb6c4,,1,0,81,71,1,80
,,,,,,,,,,,,,,,,,,,,,,,,,,,,,,,,,,,,,,,,,e,3.200000048,DESSE,FALSE,,,,,,,180,tisores,Catalan,Sounds/cat_tisores.mp3,2020-06-04_21h21.28.217,TranslationElicitation_eng-prolific,3.2.4,MacIntel,60,5ec56cd8269fcc53a3dfb6c4,,1,0,81,71,1,80
,,,,,,,,,,,,,,,,,,,,,,,,,,,,,,,,,,,,,,,,,r,3.296000004,DESSER,FALSE,,,,,,,180,tisores,Catalan,Sounds/cat_tisores.mp3,2020-06-04_21h21.28.217,TranslationElicitation_eng-prolific,3.2.4,MacIntel,60,5ec56cd8269fcc53a3dfb6c4,,1,0,81,71,1,80
,,,,,,,,,,,,,,,,,,,,,,,,,,,,,,,,,,,,,,,,,t,3.597000122,DESSERT,FALSE,,,,,,,180,tisores,Catalan,Sounds/cat_tisores.mp3,2020-06-04_21h21.28.217,TranslationElicitation_eng-prolific,3.2.4,MacIntel,60,5ec56cd8269fcc53a3dfb6c4,,1,0,81,71,1,80
,,,,,,,,,,,,,,,,,,,,,,,,,,,,,,,,,,,,,,,,,return,4.053000212,DESSERT,FALSE,,,,,,,180,tisores,Catalan,Sounds/cat_tisores.mp3,2020-06-04_21h21.28.217,TranslationElicitation_eng-prolific,3.2.4,MacIntel,60,5ec56cd8269fcc53a3dfb6c4,4.053000212,1,0,81,71,1,80
,,,,,,,,,,,,,,,,,,,,,,,,,,,,,,,,,,,,,,,,,,,,,,,,,,,180,tisores,Catalan,Sounds/cat_tisores.mp3,2020-06-04_21h21.28.217,TranslationElicitation_eng-prolific,3.2.4,MacIntel,60,5ec56cd8269fcc53a3dfb6c4,,1,0,81,71,1,80
,,,,,,,,,,,,,,,,,,,,,,,,,,,,,,,,,,,,,,,,,b,2.5,B,FALSE,,,,,,,118,bou,Catalan,Sounds/cat_bou.mp3,2020-06-04_21h21.28.217,TranslationElicitation_eng-prolific,3.2.4,MacIntel,60,5ec56cd8269fcc53a3dfb6c4,,1,0,81,13,1,80
,,,,,,,,,,,,,,,,,,,,,,,,,,,,,,,,,,,,,,,,,o,2.687999964,BO,FALSE,,,,,,,118,bou,Catalan,Sounds/cat_bou.mp3,2020-06-04_21h21.28.217,TranslationElicitation_eng-prolific,3.2.4,MacIntel,60,5ec56cd8269fcc53a3dfb6c4,,1,0,81,13,1,80
,,,,,,,,,,,,,,,,,,,,,,,,,,,,,,,,,,,,,,,,,w,2.865999937,BOW,FALSE,,,,,,,118,bou,Catalan,Sounds/cat_bou.mp3,2020-06-04_21h21.28.217,TranslationElicitation_eng-prolific,3.2.4,MacIntel,60,5ec56cd8269fcc53a3dfb6c4,,1,0,81,13,1,80
,,,,,,,,,,,,,,,,,,,,,,,,,,,,,,,,,,,,,,,,,return,4.280999899,BOW,FALSE,,,,,,,118,bou,Catalan,Sounds/cat_bou.mp3,2020-06-04_21h21.28.217,TranslationElicitation_eng-prolific,3.2.4,MacIntel,60,5ec56cd8269fcc53a3dfb6c4,4.280999899,1,0,81,13,1,80
,,,,,,,,,,,,,,,,,,,,,,,,,,,,,,,,,,,,,,,,,,,,,,,,,,,118,bou,Catalan,Sounds/cat_bou.mp3,2020-06-04_21h21.28.217,TranslationElicitation_eng-prolific,3.2.4,MacIntel,60,5ec56cd8269fcc53a3dfb6c4,,1,0,81,13,1,80
,,,,,,,,,,,,,,,,,,,,,,,,,,,,,,,,,,,,,,,,,b,1.977999926,B,FALSE,,,,,,,169,plat,Catalan,Sounds/cat_plat.mp3,2020-06-04_21h21.28.217,TranslationElicitation_eng-prolific,3.2.4,MacIntel,60,5ec56cd8269fcc53a3dfb6c4,,1,0,81,61,1,80
,,,,,,,,,,,,,,,,,,,,,,,,,,,,,,,,,,,,,,,,,l,2.164999962,BL,FALSE,,,,,,,169,plat,Catalan,Sounds/cat_plat.mp3,2020-06-04_21h21.28.217,TranslationElicitation_eng-prolific,3.2.4,MacIntel,60,5ec56cd8269fcc53a3dfb6c4,,1,0,81,61,1,80
,,,,,,,,,,,,,,,,,,,,,,,,,,,,,,,,,,,,,,,,,o,2.351999998,BLO,FALSE,,,,,,,169,plat,Catalan,Sounds/cat_plat.mp3,2020-06-04_21h21.28.217,TranslationElicitation_eng-prolific,3.2.4,MacIntel,60,5ec56cd8269fcc53a3dfb6c4,,1,0,81,61,1,80
,,,,,,,,,,,,,,,,,,,,,,,,,,,,,,,,,,,,,,,,,o,2.491999865,BLOO,FALSE,,,,,,,169,plat,Catalan,Sounds/cat_plat.mp3,2020-06-04_21h21.28.217,TranslationElicitation_eng-prolific,3.2.4,MacIntel,60,5ec56cd8269fcc53a3dfb6c4,,1,0,81,61,1,80
,,,,,,,,,,,,,,,,,,,,,,,,,,,,,,,,,,,,,,,,,d,2.625,BLOOD,FALSE,,,,,,,169,plat,Catalan,Sounds/cat_plat.mp3,2020-06-04_21h21.28.217,TranslationElicitation_eng-prolific,3.2.4,MacIntel,60,5ec56cd8269fcc53a3dfb6c4,,1,0,81,61,1,80
,,,,,,,,,,,,,,,,,,,,,,,,,,,,,,,,,,,,,,,,,return,3.115999937,BLOOD,FALSE,,,,,,,169,plat,Catalan,Sounds/cat_plat.mp3,2020-06-04_21h21.28.217,TranslationElicitation_eng-prolific,3.2.4,MacIntel,60,5ec56cd8269fcc53a3dfb6c4,3.115999937,1,0,81,61,1,80
,,,,,,,,,,,,,,,,,,,,,,,,,,,,,,,,,,,,,,,,,,,,,,,,,,,169,plat,Catalan,Sounds/cat_plat.mp3,2020-06-04_21h21.28.217,TranslationElicitation_eng-prolific,3.2.4,MacIntel,60,5ec56cd8269fcc53a3dfb6c4,,1,0,81,61,1,80
,,,,,,,,,,,,,,,,,,,,,,,,,,,,,,,,,,,,,,,,,z,4.01699996,Z,FALSE,,,,,,,189,zebra,Catalan,Sounds/cat_zebra.mp3,2020-06-04_21h21.28.217,TranslationElicitation_eng-prolific,3.2.4,MacIntel,60,5ec56cd8269fcc53a3dfb6c4,,1,0,81,80,1,80
,,,,,,,,,,,,,,,,,,,,,,,,,,,,,,,,,,,,,,,,,i,4.247999907,ZI,FALSE,,,,,,,189,zebra,Catalan,Sounds/cat_zebra.mp3,2020-06-04_21h21.28.217,TranslationElicitation_eng-prolific,3.2.4,MacIntel,60,5ec56cd8269fcc53a3dfb6c4,,1,0,81,80,1,80
,,,,,,,,,,,,,,,,,,,,,,,,,,,,,,,,,,,,,,,,,p,4.43599987,ZIP,FALSE,,,,,,,189,zebra,Catalan,Sounds/cat_zebra.mp3,2020-06-04_21h21.28.217,TranslationElicitation_eng-prolific,3.2.4,MacIntel,60,5ec56cd8269fcc53a3dfb6c4,,1,0,81,80,1,80
,,,,,,,,,,,,,,,,,,,,,,,,,,,,,,,,,,,,,,,,,p,4.613999844,ZIPP,FALSE,,,,,,,189,zebra,Catalan,Sounds/cat_zebra.mp3,2020-06-04_21h21.28.217,TranslationElicitation_eng-prolific,3.2.4,MacIntel,60,5ec56cd8269fcc53a3dfb6c4,,1,0,81,80,1,80
,,,,,,,,,,,,,,,,,,,,,,,,,,,,,,,,,,,,,,,,,e,4.70299983,ZIPPE,FALSE,,,,,,,189,zebra,Catalan,Sounds/cat_zebra.mp3,2020-06-04_21h21.28.217,TranslationElicitation_eng-prolific,3.2.4,MacIntel,60,5ec56cd8269fcc53a3dfb6c4,,1,0,81,80,1,80
,,,,,,,,,,,,,,,,,,,,,,,,,,,,,,,,,,,,,,,,,r,4.743999958,ZIPPER,FALSE,,,,,,,189,zebra,Catalan,Sounds/cat_zebra.mp3,2020-06-04_21h21.28.217,TranslationElicitation_eng-prolific,3.2.4,MacIntel,60,5ec56cd8269fcc53a3dfb6c4,,1,0,81,80,1,80
,,,,,,,,,,,,,,,,,,,,,,,,,,,,,,,,,,,,,,,,,return,5.437999964,ZIPPER,FALSE,,,,,,,189,zebra,Catalan,Sounds/cat_zebra.mp3,2020-06-04_21h21.28.217,TranslationElicitation_eng-prolific,3.2.4,MacIntel,60,5ec56cd8269fcc53a3dfb6c4,5.437999964,1,0,81,80,1,80
,,,,,,,,,,,,,,,,,,,,,,,,,,,,,,,,,,,,,,,,,,,,,,,,,,,189,zebra,Catalan,Sounds/cat_zebra.mp3,2020-06-04_21h21.28.217,TranslationElicitation_eng-prolific,3.2.4,MacIntel,60,5ec56cd8269fcc53a3dfb6c4,,1,0,81,80,1,80
,,,,,,,,,,,,,,,,,,,,,,,,,,,,,,,,,,,,,,,,,l,4.796000004,L,FALSE,,,,,,,185,ulleres,Catalan,Sounds/cat_ulleres.mp3,2020-06-04_21h21.28.217,TranslationElicitation_eng-prolific,3.2.4,MacIntel,60,5ec56cd8269fcc53a3dfb6c4,,1,0,81,76,1,80
,,,,,,,,,,,,,,,,,,,,,,,,,,,,,,,,,,,,,,,,,e,4.894999981,LE,FALSE,,,,,,,185,ulleres,Catalan,Sounds/cat_ulleres.mp3,2020-06-04_21h21.28.217,TranslationElicitation_eng-prolific,3.2.4,MacIntel,60,5ec56cd8269fcc53a3dfb6c4,,1,0,81,76,1,80
,,,,,,,,,,,,,,,,,,,,,,,,,,,,,,,,,,,,,,,,,t,4.98300004,LET,FALSE,,,,,,,185,ulleres,Catalan,Sounds/cat_ulleres.mp3,2020-06-04_21h21.28.217,TranslationElicitation_eng-prolific,3.2.4,MacIntel,60,5ec56cd8269fcc53a3dfb6c4,,1,0,81,76,1,80
,,,,,,,,,,,,,,,,,,,,,,,,,,,,,,,,,,,,,,,,,s,5.187000036,LETS,FALSE,,,,,,,185,ulleres,Catalan,Sounds/cat_ulleres.mp3,2020-06-04_21h21.28.217,TranslationElicitation_eng-prolific,3.2.4,MacIntel,60,5ec56cd8269fcc53a3dfb6c4,,1,0,81,76,1,80
,,,,,,,,,,,,,,,,,,,,,,,,,,,,,,,,,,,,,,,,,space,5.332999945,LETS ,FALSE,,,,,,,185,ulleres,Catalan,Sounds/cat_ulleres.mp3,2020-06-04_21h21.28.217,TranslationElicitation_eng-prolific,3.2.4,MacIntel,60,5ec56cd8269fcc53a3dfb6c4,,1,0,81,76,1,80
,,,,,,,,,,,,,,,,,,,,,,,,,,,,,,,,,,,,,,,,,g,5.478000164,LETS G,FALSE,,,,,,,185,ulleres,Catalan,Sounds/cat_ulleres.mp3,2020-06-04_21h21.28.217,TranslationElicitation_eng-prolific,3.2.4,MacIntel,60,5ec56cd8269fcc53a3dfb6c4,,1,0,81,76,1,80
,,,,,,,,,,,,,,,,,,,,,,,,,,,,,,,,,,,,,,,,,o,5.60800004,LETS GO,FALSE,,,,,,,185,ulleres,Catalan,Sounds/cat_ulleres.mp3,2020-06-04_21h21.28.217,TranslationElicitation_eng-prolific,3.2.4,MacIntel,60,5ec56cd8269fcc53a3dfb6c4,,1,0,81,76,1,80
,,,,,,,,,,,,,,,,,,,,,,,,,,,,,,,,,,,,,,,,,return,6.14199996,LETS GO,FALSE,,,,,,,185,ulleres,Catalan,Sounds/cat_ulleres.mp3,2020-06-04_21h21.28.217,TranslationElicitation_eng-prolific,3.2.4,MacIntel,60,5ec56cd8269fcc53a3dfb6c4,6.14199996,1,0,81,76,1,80
,,,,,,,,,,,,,,,,,,,,,,,,,,,,,,,,,,,,,,,,,,,,,,,,,,,185,ulleres,Catalan,Sounds/cat_ulleres.mp3,2020-06-04_21h21.28.217,TranslationElicitation_eng-prolific,3.2.4,MacIntel,60,5ec56cd8269fcc53a3dfb6c4,,1,0,81,76,1,80
,,,,,,,,,,,,,,,,,,,,,,,,,,,,,,,,,,,,,,,,,a,1.462000132,A,FALSE,,,,,,,132,estrella,Catalan,Sounds/cat_estrella.mp3,2020-06-04_21h21.28.217,TranslationElicitation_eng-prolific,3.2.4,MacIntel,60,5ec56cd8269fcc53a3dfb6c4,,1,0,81,26,1,80
,,,,,,,,,,,,,,,,,,,,,,,,,,,,,,,,,,,,,,,,,u,1.782999992,AU,FALSE,,,,,,,132,estrella,Catalan,Sounds/cat_estrella.mp3,2020-06-04_21h21.28.217,TranslationElicitation_eng-prolific,3.2.4,MacIntel,60,5ec56cd8269fcc53a3dfb6c4,,1,0,81,26,1,80
,,,,,,,,,,,,,,,,,,,,,,,,,,,,,,,,,,,,,,,,,s,1.861999989,AUS,FALSE,,,,,,,132,estrella,Catalan,Sounds/cat_estrella.mp3,2020-06-04_21h21.28.217,TranslationElicitation_eng-prolific,3.2.4,MacIntel,60,5ec56cd8269fcc53a3dfb6c4,,1,0,81,26,1,80
,,,,,,,,,,,,,,,,,,,,,,,,,,,,,,,,,,,,,,,,,t,2.046000004,AUST,FALSE,,,,,,,132,estrella,Catalan,Sounds/cat_estrella.mp3,2020-06-04_21h21.28.217,TranslationElicitation_eng-prolific,3.2.4,MacIntel,60,5ec56cd8269fcc53a3dfb6c4,,1,0,81,26,1,80
,,,,,,,,,,,,,,,,,,,,,,,,,,,,,,,,,,,,,,,,,r,2.21600008,AUSTR,FALSE,,,,,,,132,estrella,Catalan,Sounds/cat_estrella.mp3,2020-06-04_21h21.28.217,TranslationElicitation_eng-prolific,3.2.4,MacIntel,60,5ec56cd8269fcc53a3dfb6c4,,1,0,81,26,1,80
,,,,,,,,,,,,,,,,,,,,,,,,,,,,,,,,,,,,,,,,,a,2.777000189,AUSTRA,FALSE,,,,,,,132,estrella,Catalan,Sounds/cat_estrella.mp3,2020-06-04_21h21.28.217,TranslationElicitation_eng-prolific,3.2.4,MacIntel,60,5ec56cd8269fcc53a3dfb6c4,,1,0,81,26,1,80
,,,,,,,,,,,,,,,,,,,,,,,,,,,,,,,,,,,,,,,,,l,2.875,AUSTRAL,FALSE,,,,,,,132,estrella,Catalan,Sounds/cat_estrella.mp3,2020-06-04_21h21.28.217,TranslationElicitation_eng-prolific,3.2.4,MacIntel,60,5ec56cd8269fcc53a3dfb6c4,,1,0,81,26,1,80
,,,,,,,,,,,,,,,,,,,,,,,,,,,,,,,,,,,,,,,,,i,3.100000143,AUSTRALI,FALSE,,,,,,,132,estrella,Catalan,Sounds/cat_estrella.mp3,2020-06-04_21h21.28.217,TranslationElicitation_eng-prolific,3.2.4,MacIntel,60,5ec56cd8269fcc53a3dfb6c4,,1,0,81,26,1,80
,,,,,,,,,,,,,,,,,,,,,,,,,,,,,,,,,,,,,,,,,a,3.177000046,AUSTRALIA,FALSE,,,,,,,132,estrella,Catalan,Sounds/cat_estrella.mp3,2020-06-04_21h21.28.217,TranslationElicitation_eng-prolific,3.2.4,MacIntel,60,5ec56cd8269fcc53a3dfb6c4,,1,0,81,26,1,80
,,,,,,,,,,,,,,,,,,,,,,,,,,,,,,,,,,,,,,,,,return,3.976999998,AUSTRALIA,FALSE,,,,,,,132,estrella,Catalan,Sounds/cat_estrella.mp3,2020-06-04_21h21.28.217,TranslationElicitation_eng-prolific,3.2.4,MacIntel,60,5ec56cd8269fcc53a3dfb6c4,3.976999998,1,0,81,26,1,80
,,,,,,,,,,,,,,,,,,,,,,,,,,,,,,,,,,,,,,,,,,,,,,,,,,,132,estrella,Catalan,Sounds/cat_estrella.mp3,2020-06-04_21h21.28.217,TranslationElicitation_eng-prolific,3.2.4,MacIntel,60,5ec56cd8269fcc53a3dfb6c4,,1,0,81,26,1,80
,,,,,,,,,,,,,,,,,,,,,,,,,,,,,,,,,,,,,,,,,o,3.195999861,O,FALSE,,,,,,,184,ull,Catalan,Sounds/cat_ull.mp3,2020-06-04_21h21.28.217,TranslationElicitation_eng-prolific,3.2.4,MacIntel,60,5ec56cd8269fcc53a3dfb6c4,,1,0,81,75,1,80
,,,,,,,,,,,,,,,,,,,,,,,,,,,,,,,,,,,,,,,,,l,3.417999983,OL,FALSE,,,,,,,184,ull,Catalan,Sounds/cat_ull.mp3,2020-06-04_21h21.28.217,TranslationElicitation_eng-prolific,3.2.4,MacIntel,60,5ec56cd8269fcc53a3dfb6c4,,1,0,81,75,1,80
,,,,,,,,,,,,,,,,,,,,,,,,,,,,,,,,,,,,,,,,,d,3.552000046,OLD,FALSE,,,,,,,184,ull,Catalan,Sounds/cat_ull.mp3,2020-06-04_21h21.28.217,TranslationElicitation_eng-prolific,3.2.4,MacIntel,60,5ec56cd8269fcc53a3dfb6c4,,1,0,81,75,1,80
,,,,,,,,,,,,,,,,,,,,,,,,,,,,,,,,,,,,,,,,,return,3.997999907,OLD,FALSE,,,,,,,184,ull,Catalan,Sounds/cat_ull.mp3,2020-06-04_21h21.28.217,TranslationElicitation_eng-prolific,3.2.4,MacIntel,60,5ec56cd8269fcc53a3dfb6c4,3.997999907,1,0,81,75,1,80
,,,,,,,,,,,,,,,,,,,,,,,,,,,,,,,,,,,,,,,,,,,,,,,,,,,184,ull,Catalan,Sounds/cat_ull.mp3,2020-06-04_21h21.28.217,TranslationElicitation_eng-prolific,3.2.4,MacIntel,60,5ec56cd8269fcc53a3dfb6c4,,1,0,81,75,1,80
,,,,,,,,,,,,,,,,,,,,,,,,,,,,,,,,,,,,,,,,,m,1.751000166,M,FALSE,,,,,,,152,ma,Catalan,Sounds/cat_ma.mp3,2020-06-04_21h21.28.217,TranslationElicitation_eng-prolific,3.2.4,MacIntel,60,5ec56cd8269fcc53a3dfb6c4,,1,0,81,45,1,80
,,,,,,,,,,,,,,,,,,,,,,,,,,,,,,,,,,,,,,,,,o,1.928000212,MO,FALSE,,,,,,,152,ma,Catalan,Sounds/cat_ma.mp3,2020-06-04_21h21.28.217,TranslationElicitation_eng-prolific,3.2.4,MacIntel,60,5ec56cd8269fcc53a3dfb6c4,,1,0,81,45,1,80
,,,,,,,,,,,,,,,,,,,,,,,,,,,,,,,,,,,,,,,,,t,2.063000202,MOT,FALSE,,,,,,,152,ma,Catalan,Sounds/cat_ma.mp3,2020-06-04_21h21.28.217,TranslationElicitation_eng-prolific,3.2.4,MacIntel,60,5ec56cd8269fcc53a3dfb6c4,,1,0,81,45,1,80
,,,,,,,,,,,,,,,,,,,,,,,,,,,,,,,,,,,,,,,,,e,2.291000128,MOTE,FALSE,,,,,,,152,ma,Catalan,Sounds/cat_ma.mp3,2020-06-04_21h21.28.217,TranslationElicitation_eng-prolific,3.2.4,MacIntel,60,5ec56cd8269fcc53a3dfb6c4,,1,0,81,45,1,80
,,,,,,,,,,,,,,,,,,,,,,,,,,,,,,,,,,,,,,,,,r,2.443000078,MOTER,FALSE,,,,,,,152,ma,Catalan,Sounds/cat_ma.mp3,2020-06-04_21h21.28.217,TranslationElicitation_eng-prolific,3.2.4,MacIntel,60,5ec56cd8269fcc53a3dfb6c4,,1,0,81,45,1,80
,,,,,,,,,,,,,,,,,,,,,,,,,,,,,,,,,,,,,,,,,backspace,3.067000151,MOTE,TRUE,,,,,,,152,ma,Catalan,Sounds/cat_ma.mp3,2020-06-04_21h21.28.217,TranslationElicitation_eng-prolific,3.2.4,MacIntel,60,5ec56cd8269fcc53a3dfb6c4,,1,0,81,45,1,80
,,,,,,,,,,,,,,,,,,,,,,,,,,,,,,,,,,,,,,,,,backspace,3.19900012,MOT,TRUE,,,,,,,152,ma,Catalan,Sounds/cat_ma.mp3,2020-06-04_21h21.28.217,TranslationElicitation_eng-prolific,3.2.4,MacIntel,60,5ec56cd8269fcc53a3dfb6c4,,1,0,81,45,1,80
,,,,,,,,,,,,,,,,,,,,,,,,,,,,,,,,,,,,,,,,,h,3.333000183,MOTH,TRUE,,,,,,,152,ma,Catalan,Sounds/cat_ma.mp3,2020-06-04_21h21.28.217,TranslationElicitation_eng-prolific,3.2.4,MacIntel,60,5ec56cd8269fcc53a3dfb6c4,,1,0,81,45,1,80
,,,,,,,,,,,,,,,,,,,,,,,,,,,,,,,,,,,,,,,,,e,3.600000143,MOTHE,TRUE,,,,,,,152,ma,Catalan,Sounds/cat_ma.mp3,2020-06-04_21h21.28.217,TranslationElicitation_eng-prolific,3.2.4,MacIntel,60,5ec56cd8269fcc53a3dfb6c4,,1,0,81,45,1,80
,,,,,,,,,,,,,,,,,,,,,,,,,,,,,,,,,,,,,,,,,r,3.676000118,MOTHER,TRUE,,,,,,,152,ma,Catalan,Sounds/cat_ma.mp3,2020-06-04_21h21.28.217,TranslationElicitation_eng-prolific,3.2.4,MacIntel,60,5ec56cd8269fcc53a3dfb6c4,,1,0,81,45,1,80
,,,,,,,,,,,,,,,,,,,,,,,,,,,,,,,,,,,,,,,,,return,4.175000191,MOTHER,TRUE,,,,,,,152,ma,Catalan,Sounds/cat_ma.mp3,2020-06-04_21h21.28.217,TranslationElicitation_eng-prolific,3.2.4,MacIntel,60,5ec56cd8269fcc53a3dfb6c4,4.175000191,1,0,81,45,1,80
,,,,,,,,,,,,,,,,,,,,,,,,,,,,,,,,,,,,,,,,,,,,,,,,,,,152,ma,Catalan,Sounds/cat_ma.mp3,2020-06-04_21h21.28.217,TranslationElicitation_eng-prolific,3.2.4,MacIntel,60,5ec56cd8269fcc53a3dfb6c4,,1,0,81,45,1,80
,,,,,,,,,,,,,,,,,,,,,,,,,,,,,,,,,,,,,,,,,c,8.94900012,C,FALSE,,,,,,,171,pollastre,Catalan,Sounds/cat_pollastre.mp3,2020-06-04_21h21.28.217,TranslationElicitation_eng-prolific,3.2.4,MacIntel,60,5ec56cd8269fcc53a3dfb6c4,,1,0,81,63,1,80
,,,,,,,,,,,,,,,,,,,,,,,,,,,,,,,,,,,,,,,,,h,9.082000017,CH,FALSE,,,,,,,171,pollastre,Catalan,Sounds/cat_pollastre.mp3,2020-06-04_21h21.28.217,TranslationElicitation_eng-prolific,3.2.4,MacIntel,60,5ec56cd8269fcc53a3dfb6c4,,1,0,81,63,1,80
,,,,,,,,,,,,,,,,,,,,,,,,,,,,,,,,,,,,,,,,,i,9.348999977,CHI,FALSE,,,,,,,171,pollastre,Catalan,Sounds/cat_pollastre.mp3,2020-06-04_21h21.28.217,TranslationElicitation_eng-prolific,3.2.4,MacIntel,60,5ec56cd8269fcc53a3dfb6c4,,1,0,81,63,1,80
,,,,,,,,,,,,,,,,,,,,,,,,,,,,,,,,,,,,,,,,,c,9.394999981,CHIC,FALSE,,,,,,,171,pollastre,Catalan,Sounds/cat_pollastre.mp3,2020-06-04_21h21.28.217,TranslationElicitation_eng-prolific,3.2.4,MacIntel,60,5ec56cd8269fcc53a3dfb6c4,,1,0,81,63,1,80
,,,,,,,,,,,,,,,,,,,,,,,,,,,,,,,,,,,,,,,,,k,9.525000095,CHICK,FALSE,,,,,,,171,pollastre,Catalan,Sounds/cat_pollastre.mp3,2020-06-04_21h21.28.217,TranslationElicitation_eng-prolific,3.2.4,MacIntel,60,5ec56cd8269fcc53a3dfb6c4,,1,0,81,63,1,80
,,,,,,,,,,,,,,,,,,,,,,,,,,,,,,,,,,,,,,,,,e,9.69900012,CHICKE,FALSE,,,,,,,171,pollastre,Catalan,Sounds/cat_pollastre.mp3,2020-06-04_21h21.28.217,TranslationElicitation_eng-prolific,3.2.4,MacIntel,60,5ec56cd8269fcc53a3dfb6c4,,1,0,81,63,1,80
,,,,,,,,,,,,,,,,,,,,,,,,,,,,,,,,,,,,,,,,,n,9.832999945,CHICKEN,FALSE,,,,,,,171,pollastre,Catalan,Sounds/cat_pollastre.mp3,2020-06-04_21h21.28.217,TranslationElicitation_eng-prolific,3.2.4,MacIntel,60,5ec56cd8269fcc53a3dfb6c4,,1,0,81,63,1,80
,,,,,,,,,,,,,,,,,,,,,,,,,,,,,,,,,,,,,,,,,return,10.52600002,CHICKEN,FALSE,,,,,,,171,pollastre,Catalan,Sounds/cat_pollastre.mp3,2020-06-04_21h21.28.217,TranslationElicitation_eng-prolific,3.2.4,MacIntel,60,5ec56cd8269fcc53a3dfb6c4,10.52600002,1,0,81,63,1,80
,,,,,,,,,,,,,,,,,,,,,,,,,,,,,,,,,,,,,,,,,,,,,,,,,,,171,pollastre,Catalan,Sounds/cat_pollastre.mp3,2020-06-04_21h21.28.217,TranslationElicitation_eng-prolific,3.2.4,MacIntel,60,5ec56cd8269fcc53a3dfb6c4,,1,0,81,63,1,80
,,,,,,,,,,,,,,,,,,,,,,,,,,,,,,,,,,,,,,,,,e,11.9519999,E,FALSE,,,,,,,111,bibero,Catalan,Sounds/cat_bibero.mp3,2020-06-04_21h21.28.217,TranslationElicitation_eng-prolific,3.2.4,MacIntel,60,5ec56cd8269fcc53a3dfb6c4,,1,0,81,6,1,80
,,,,,,,,,,,,,,,,,,,,,,,,,,,,,,,,,,,,,,,,,x,12.16499996,EX,FALSE,,,,,,,111,bibero,Catalan,Sounds/cat_bibero.mp3,2020-06-04_21h21.28.217,TranslationElicitation_eng-prolific,3.2.4,MacIntel,60,5ec56cd8269fcc53a3dfb6c4,,1,0,81,6,1,80
,,,,,,,,,,,,,,,,,,,,,,,,,,,,,,,,,,,,,,,,,c,12.34800005,EXC,FALSE,,,,,,,111,bibero,Catalan,Sounds/cat_bibero.mp3,2020-06-04_21h21.28.217,TranslationElicitation_eng-prolific,3.2.4,MacIntel,60,5ec56cd8269fcc53a3dfb6c4,,1,0,81,6,1,80
,,,,,,,,,,,,,,,,,,,,,,,,,,,,,,,,,,,,,,,,,i,12.53399992,EXCI,FALSE,,,,,,,111,bibero,Catalan,Sounds/cat_bibero.mp3,2020-06-04_21h21.28.217,TranslationElicitation_eng-prolific,3.2.4,MacIntel,60,5ec56cd8269fcc53a3dfb6c4,,1,0,81,6,1,80
,,,,,,,,,,,,,,,,,,,,,,,,,,,,,,,,,,,,,,,,,t,12.61500001,EXCIT,FALSE,,,,,,,111,bibero,Catalan,Sounds/cat_bibero.mp3,2020-06-04_21h21.28.217,TranslationElicitation_eng-prolific,3.2.4,MacIntel,60,5ec56cd8269fcc53a3dfb6c4,,1,0,81,6,1,80
,,,,,,,,,,,,,,,,,,,,,,,,,,,,,,,,,,,,,,,,,i,12.71199989,EXCITI,FALSE,,,,,,,111,bibero,Catalan,Sounds/cat_bibero.mp3,2020-06-04_21h21.28.217,TranslationElicitation_eng-prolific,3.2.4,MacIntel,60,5ec56cd8269fcc53a3dfb6c4,,1,0,81,6,1,80
,,,,,,,,,,,,,,,,,,,,,,,,,,,,,,,,,,,,,,,,,n,12.94300008,EXCITIN,FALSE,,,,,,,111,bibero,Catalan,Sounds/cat_bibero.mp3,2020-06-04_21h21.28.217,TranslationElicitation_eng-prolific,3.2.4,MacIntel,60,5ec56cd8269fcc53a3dfb6c4,,1,0,81,6,1,80
,,,,,,,,,,,,,,,,,,,,,,,,,,,,,,,,,,,,,,,,,g,13.03399992,EXCITING,FALSE,,,,,,,111,bibero,Catalan,Sounds/cat_bibero.mp3,2020-06-04_21h21.28.217,TranslationElicitation_eng-prolific,3.2.4,MacIntel,60,5ec56cd8269fcc53a3dfb6c4,,1,0,81,6,1,80
,,,,,,,,,,,,,,,,,,,,,,,,,,,,,,,,,,,,,,,,,return,13.64499998,EXCITING,FALSE,,,,,,,111,bibero,Catalan,Sounds/cat_bibero.mp3,2020-06-04_21h21.28.217,TranslationElicitation_eng-prolific,3.2.4,MacIntel,60,5ec56cd8269fcc53a3dfb6c4,13.64499998,1,0,81,6,1,80
,,,,,,,,,,,,,,,,,,,,,,,,,,,,,,,,,,,,,,,,,,,,,,,,,,,111,bibero,Catalan,Sounds/cat_bibero.mp3,2020-06-04_21h21.28.217,TranslationElicitation_eng-prolific,3.2.4,MacIntel,60,5ec56cd8269fcc53a3dfb6c4,,1,0,81,6,1,80
,,,,,,,,,,,,,,,,,,,,,,,,,,,,,,,,,,,,,,,,,d,4.837000132,D,FALSE,,,,,,,113,boca,Catalan,Sounds/cat_boca.mp3,2020-06-04_21h21.28.217,TranslationElicitation_eng-prolific,3.2.4,MacIntel,60,5ec56cd8269fcc53a3dfb6c4,,1,0,81,8,1,80
,,,,,,,,,,,,,,,,,,,,,,,,,,,,,,,,,,,,,,,,,o,4.972000122,DO,FALSE,,,,,,,113,boca,Catalan,Sounds/cat_boca.mp3,2020-06-04_21h21.28.217,TranslationElicitation_eng-prolific,3.2.4,MacIntel,60,5ec56cd8269fcc53a3dfb6c4,,1,0,81,8,1,80
,,,,,,,,,,,,,,,,,,,,,,,,,,,,,,,,,,,,,,,,,g,5.138999939,DOG,FALSE,,,,,,,113,boca,Catalan,Sounds/cat_boca.mp3,2020-06-04_21h21.28.217,TranslationElicitation_eng-prolific,3.2.4,MacIntel,60,5ec56cd8269fcc53a3dfb6c4,,1,0,81,8,1,80
,,,,,,,,,,,,,,,,,,,,,,,,,,,,,,,,,,,,,,,,,return,6.559999943,DOG,FALSE,,,,,,,113,boca,Catalan,Sounds/cat_boca.mp3,2020-06-04_21h21.28.217,TranslationElicitation_eng-prolific,3.2.4,MacIntel,60,5ec56cd8269fcc53a3dfb6c4,6.559999943,1,0,81,8,1,80
,,,,,,,,,,,,,,,,,,,,,,,,,,,,,,,,,,,,,,,,,,,,,,,,,,,113,boca,Catalan,Sounds/cat_boca.mp3,2020-06-04_21h21.28.217,TranslationElicitation_eng-prolific,3.2.4,MacIntel,60,5ec56cd8269fcc53a3dfb6c4,,1,0,81,8,1,80
,,,,,,,,,,,,,,,,,,,,,,,,,,,,,,,,,,,,,,,,,t,1.694999933,T,FALSE,,,,,,,178,taronja,Catalan,Sounds/cat_taronja.mp3,2020-06-04_21h21.28.217,TranslationElicitation_eng-prolific,3.2.4,MacIntel,60,5ec56cd8269fcc53a3dfb6c4,,1,0,81,70,1,80
,,,,,,,,,,,,,,,,,,,,,,,,,,,,,,,,,,,,,,,,,a,1.915999889,TA,FALSE,,,,,,,178,taronja,Catalan,Sounds/cat_taronja.mp3,2020-06-04_21h21.28.217,TranslationElicitation_eng-prolific,3.2.4,MacIntel,60,5ec56cd8269fcc53a3dfb6c4,,1,0,81,70,1,80
,,,,,,,,,,,,,,,,,,,,,,,,,,,,,,,,,,,,,,,,,r,2.012000084,TAR,FALSE,,,,,,,178,taronja,Catalan,Sounds/cat_taronja.mp3,2020-06-04_21h21.28.217,TranslationElicitation_eng-prolific,3.2.4,MacIntel,60,5ec56cd8269fcc53a3dfb6c4,,1,0,81,70,1,80
,,,,,,,,,,,,,,,,,,,,,,,,,,,,,,,,,,,,,,,,,a,2.145999908,TARA,FALSE,,,,,,,178,taronja,Catalan,Sounds/cat_taronja.mp3,2020-06-04_21h21.28.217,TranslationElicitation_eng-prolific,3.2.4,MacIntel,60,5ec56cd8269fcc53a3dfb6c4,,1,0,81,70,1,80
,,,,,,,,,,,,,,,,,,,,,,,,,,,,,,,,,,,,,,,,,n,2.332999945,TARAN,FALSE,,,,,,,178,taronja,Catalan,Sounds/cat_taronja.mp3,2020-06-04_21h21.28.217,TranslationElicitation_eng-prolific,3.2.4,MacIntel,60,5ec56cd8269fcc53a3dfb6c4,,1,0,81,70,1,80
,,,,,,,,,,,,,,,,,,,,,,,,,,,,,,,,,,,,,,,,,t,2.431999922,TARANT,FALSE,,,,,,,178,taronja,Catalan,Sounds/cat_taronja.mp3,2020-06-04_21h21.28.217,TranslationElicitation_eng-prolific,3.2.4,MacIntel,60,5ec56cd8269fcc53a3dfb6c4,,1,0,81,70,1,80
,,,,,,,,,,,,,,,,,,,,,,,,,,,,,,,,,,,,,,,,,u,2.595000029,TARANTU,FALSE,,,,,,,178,taronja,Catalan,Sounds/cat_taronja.mp3,2020-06-04_21h21.28.217,TranslationElicitation_eng-prolific,3.2.4,MacIntel,60,5ec56cd8269fcc53a3dfb6c4,,1,0,81,70,1,80
,,,,,,,,,,,,,,,,,,,,,,,,,,,,,,,,,,,,,,,,,l,2.858999968,TARANTUL,FALSE,,,,,,,178,taronja,Catalan,Sounds/cat_taronja.mp3,2020-06-04_21h21.28.217,TranslationElicitation_eng-prolific,3.2.4,MacIntel,60,5ec56cd8269fcc53a3dfb6c4,,1,0,81,70,1,80
,,,,,,,,,,,,,,,,,,,,,,,,,,,,,,,,,,,,,,,,,a,2.993999958,TARANTULA,FALSE,,,,,,,178,taronja,Catalan,Sounds/cat_taronja.mp3,2020-06-04_21h21.28.217,TranslationElicitation_eng-prolific,3.2.4,MacIntel,60,5ec56cd8269fcc53a3dfb6c4,,1,0,81,70,1,80
,,,,,,,,,,,,,,,,,,,,,,,,,,,,,,,,,,,,,,,,,return,3.490999937,TARANTULA,FALSE,,,,,,,178,taronja,Catalan,Sounds/cat_taronja.mp3,2020-06-04_21h21.28.217,TranslationElicitation_eng-prolific,3.2.4,MacIntel,60,5ec56cd8269fcc53a3dfb6c4,3.490999937,1,0,81,70,1,80
,,,,,,,,,,,,,,,,,,,,,,,,,,,,,,,,,,,,,,,,,,,,,,,,,,,178,taronja,Catalan,Sounds/cat_taronja.mp3,2020-06-04_21h21.28.217,TranslationElicitation_eng-prolific,3.2.4,MacIntel,60,5ec56cd8269fcc53a3dfb6c4,,1,0,81,70,1,80
,,,,,,,,,,,,,,,,,,,,,,,,,,,,,,,,,,,,,,,,,m,49.94400001,M,FALSE,,,,,,,136,forquilla,Catalan,Sounds/cat_forquilla.mp3,2020-06-04_21h21.28.217,TranslationElicitation_eng-prolific,3.2.4,MacIntel,60,5ec56cd8269fcc53a3dfb6c4,,1,0,81,30,1,80
,,,,,,,,,,,,,,,,,,,,,,,,,,,,,,,,,,,,,,,,,a,50.07599998,MA,FALSE,,,,,,,136,forquilla,Catalan,Sounds/cat_forquilla.mp3,2020-06-04_21h21.28.217,TranslationElicitation_eng-prolific,3.2.4,MacIntel,60,5ec56cd8269fcc53a3dfb6c4,,1,0,81,30,1,80
,,,,,,,,,,,,,,,,,,,,,,,,,,,,,,,,,,,,,,,,,y,50.71099997,MAY,FALSE,,,,,,,136,forquilla,Catalan,Sounds/cat_forquilla.mp3,2020-06-04_21h21.28.217,TranslationElicitation_eng-prolific,3.2.4,MacIntel,60,5ec56cd8269fcc53a3dfb6c4,,1,0,81,30,1,80
,,,,,,,,,,,,,,,,,,,,,,,,,,,,,,,,,,,,,,,,,b,50.88899994,MAYB,FALSE,,,,,,,136,forquilla,Catalan,Sounds/cat_forquilla.mp3,2020-06-04_21h21.28.217,TranslationElicitation_eng-prolific,3.2.4,MacIntel,60,5ec56cd8269fcc53a3dfb6c4,,1,0,81,30,1,80
,,,,,,,,,,,,,,,,,,,,,,,,,,,,,,,,,,,,,,,,,e,51.023,MAYBE,FALSE,,,,,,,136,forquilla,Catalan,Sounds/cat_forquilla.mp3,2020-06-04_21h21.28.217,TranslationElicitation_eng-prolific,3.2.4,MacIntel,60,5ec56cd8269fcc53a3dfb6c4,,1,0,81,30,1,80
,,,,,,,,,,,,,,,,,,,,,,,,,,,,,,,,,,,,,,,,,return,51.42700005,MAYBE,FALSE,,,,,,,136,forquilla,Catalan,Sounds/cat_forquilla.mp3,2020-06-04_21h21.28.217,TranslationElicitation_eng-prolific,3.2.4,MacIntel,60,5ec56cd8269fcc53a3dfb6c4,51.42700005,1,0,81,30,1,80
,,,,,,,,,,,,,,,,,,,,,,,,,,,,,,,,,,,,,,,,,,,,,,,,,,,136,forquilla,Catalan,Sounds/cat_forquilla.mp3,2020-06-04_21h21.28.217,TranslationElicitation_eng-prolific,3.2.4,MacIntel,60,5ec56cd8269fcc53a3dfb6c4,,1,0,81,30,1,80
,,,,,,,,,,,,,,,,,,,,,,,,,,,,,,,,,,,,,,,,,a,12.38499999,A,FALSE,,,,,,,106,aixeta,Catalan,Sounds/cat_aixeta.mp3,2020-06-04_21h21.28.217,TranslationElicitation_eng-prolific,3.2.4,MacIntel,60,5ec56cd8269fcc53a3dfb6c4,,1,0,81,2,1,80
,,,,,,,,,,,,,,,,,,,,,,,,,,,,,,,,,,,,,,,,,s,12.46700001,AS,FALSE,,,,,,,106,aixeta,Catalan,Sounds/cat_aixeta.mp3,2020-06-04_21h21.28.217,TranslationElicitation_eng-prolific,3.2.4,MacIntel,60,5ec56cd8269fcc53a3dfb6c4,,1,0,81,2,1,80
,,,,,,,,,,,,,,,,,,,,,,,,,,,,,,,,,,,,,,,,,h,12.704,ASH,FALSE,,,,,,,106,aixeta,Catalan,Sounds/cat_aixeta.mp3,2020-06-04_21h21.28.217,TranslationElicitation_eng-prolific,3.2.4,MacIntel,60,5ec56cd8269fcc53a3dfb6c4,,1,0,81,2,1,80
,,,,,,,,,,,,,,,,,,,,,,,,,,,,,,,,,,,,,,,,,e,12.87900019,ASHE,FALSE,,,,,,,106,aixeta,Catalan,Sounds/cat_aixeta.mp3,2020-06-04_21h21.28.217,TranslationElicitation_eng-prolific,3.2.4,MacIntel,60,5ec56cd8269fcc53a3dfb6c4,,1,0,81,2,1,80
,,,,,,,,,,,,,,,,,,,,,,,,,,,,,,,,,,,,,,,,,s,13.11000013,ASHES,FALSE,,,,,,,106,aixeta,Catalan,Sounds/cat_aixeta.mp3,2020-06-04_21h21.28.217,TranslationElicitation_eng-prolific,3.2.4,MacIntel,60,5ec56cd8269fcc53a3dfb6c4,,1,0,81,2,1,80
,,,,,,,,,,,,,,,,,,,,,,,,,,,,,,,,,,,,,,,,,return,13.67900014,ASHES,FALSE,,,,,,,106,aixeta,Catalan,Sounds/cat_aixeta.mp3,2020-06-04_21h21.28.217,TranslationElicitation_eng-prolific,3.2.4,MacIntel,60,5ec56cd8269fcc53a3dfb6c4,13.67900014,1,0,81,2,1,80
,,,,,,,,,,,,,,,,,,,,,,,,,,,,,,,,,,,,,,,,,,,,,,,,,,,106,aixeta,Catalan,Sounds/cat_aixeta.mp3,2020-06-04_21h21.28.217,TranslationElicitation_eng-prolific,3.2.4,MacIntel,60,5ec56cd8269fcc53a3dfb6c4,,1,0,81,2,1,80
,,,,,,,,,,,,,,,,,,,,,,,,,,,,,,,,,,,,,,,,,g,1.154000044,G,FALSE,,,,,,,146,guitarra,Catalan,Sounds/cat_guitarra.mp3,2020-06-04_21h21.28.217,TranslationElicitation_eng-prolific,3.2.4,MacIntel,60,5ec56cd8269fcc53a3dfb6c4,,1,0,81,40,1,80
,,,,,,,,,,,,,,,,,,,,,,,,,,,,,,,,,,,,,,,,,u,1.332000017,GU,FALSE,,,,,,,146,guitarra,Catalan,Sounds/cat_guitarra.mp3,2020-06-04_21h21.28.217,TranslationElicitation_eng-prolific,3.2.4,MacIntel,60,5ec56cd8269fcc53a3dfb6c4,,1,0,81,40,1,80
,,,,,,,,,,,,,,,,,,,,,,,,,,,,,,,,,,,,,,,,,i,1.495999813,GUI,FALSE,,,,,,,146,guitarra,Catalan,Sounds/cat_guitarra.mp3,2020-06-04_21h21.28.217,TranslationElicitation_eng-prolific,3.2.4,MacIntel,60,5ec56cd8269fcc53a3dfb6c4,,1,0,81,40,1,80
,,,,,,,,,,,,,,,,,,,,,,,,,,,,,,,,,,,,,,,,,t,1.553999901,GUIT,FALSE,,,,,,,146,guitarra,Catalan,Sounds/cat_guitarra.mp3,2020-06-04_21h21.28.217,TranslationElicitation_eng-prolific,3.2.4,MacIntel,60,5ec56cd8269fcc53a3dfb6c4,,1,0,81,40,1,80
,,,,,,,,,,,,,,,,,,,,,,,,,,,,,,,,,,,,,,,,,a,1.730999947,GUITA,FALSE,,,,,,,146,guitarra,Catalan,Sounds/cat_guitarra.mp3,2020-06-04_21h21.28.217,TranslationElicitation_eng-prolific,3.2.4,MacIntel,60,5ec56cd8269fcc53a3dfb6c4,,1,0,81,40,1,80
,,,,,,,,,,,,,,,,,,,,,,,,,,,,,,,,,,,,,,,,,r,1.766000032,GUITAR,FALSE,,,,,,,146,guitarra,Catalan,Sounds/cat_guitarra.mp3,2020-06-04_21h21.28.217,TranslationElicitation_eng-prolific,3.2.4,MacIntel,60,5ec56cd8269fcc53a3dfb6c4,,1,0,81,40,1,80
,,,,,,,,,,,,,,,,,,,,,,,,,,,,,,,,,,,,,,,,,return,2.497999907,GUITAR,FALSE,,,,,,,146,guitarra,Catalan,Sounds/cat_guitarra.mp3,2020-06-04_21h21.28.217,TranslationElicitation_eng-prolific,3.2.4,MacIntel,60,5ec56cd8269fcc53a3dfb6c4,2.497999907,1,0,81,40,1,80
,,,,,,,,,,,,,,,,,,,,,,,,,,,,,,,,,,,,,,,,,,,,,,,,,,,146,guitarra,Catalan,Sounds/cat_guitarra.mp3,2020-06-04_21h21.28.217,TranslationElicitation_eng-prolific,3.2.4,MacIntel,60,5ec56cd8269fcc53a3dfb6c4,,1,0,81,40,1,80
,,,,,,,,,,,,,,,,,,,,,,,,,,,,,,,,,,,,,,,,,b,2.048000097,B,FALSE,,,,,,,112,bici,Catalan,Sounds/cat_bici.mp3,2020-06-04_21h21.28.217,TranslationElicitation_eng-prolific,3.2.4,MacIntel,60,5ec56cd8269fcc53a3dfb6c4,,1,0,81,7,1,80
,,,,,,,,,,,,,,,,,,,,,,,,,,,,,,,,,,,,,,,,,u,2.244000196,BU,FALSE,,,,,,,112,bici,Catalan,Sounds/cat_bici.mp3,2020-06-04_21h21.28.217,TranslationElicitation_eng-prolific,3.2.4,MacIntel,60,5ec56cd8269fcc53a3dfb6c4,,1,0,81,7,1,80
,,,,,,,,,,,,,,,,,,,,,,,,,,,,,,,,,,,,,,,,,s,2.413000107,BUS,FALSE,,,,,,,112,bici,Catalan,Sounds/cat_bici.mp3,2020-06-04_21h21.28.217,TranslationElicitation_eng-prolific,3.2.4,MacIntel,60,5ec56cd8269fcc53a3dfb6c4,,1,0,81,7,1,80
,,,,,,,,,,,,,,,,,,,,,,,,,,,,,,,,,,,,,,,,,y,2.512000084,BUSY,FALSE,,,,,,,112,bici,Catalan,Sounds/cat_bici.mp3,2020-06-04_21h21.28.217,TranslationElicitation_eng-prolific,3.2.4,MacIntel,60,5ec56cd8269fcc53a3dfb6c4,,1,0,81,7,1,80
,,,,,,,,,,,,,,,,,,,,,,,,,,,,,,,,,,,,,,,,,return,3.147000074,BUSY,FALSE,,,,,,,112,bici,Catalan,Sounds/cat_bici.mp3,2020-06-04_21h21.28.217,TranslationElicitation_eng-prolific,3.2.4,MacIntel,60,5ec56cd8269fcc53a3dfb6c4,3.147000074,1,0,81,7,1,80
,,,,,,,,,,,,,,,,,,,,,,,,,,,,,,,,,,,,,,,,,,,,,,,,,,,112,bici,Catalan,Sounds/cat_bici.mp3,2020-06-04_21h21.28.217,TranslationElicitation_eng-prolific,3.2.4,MacIntel,60,5ec56cd8269fcc53a3dfb6c4,,1,0,81,7,1,80
,,,,,,,,,,,,,,,,,,,,,,,,,,,,,,,,,,,,,,,,,c,12.13599992,C,FALSE,,,,,,,144,gorra,Catalan,Sounds/cat_gorra.mp3,2020-06-04_21h21.28.217,TranslationElicitation_eng-prolific,3.2.4,MacIntel,60,5ec56cd8269fcc53a3dfb6c4,,1,0,81,38,1,80
,,,,,,,,,,,,,,,,,,,,,,,,,,,,,,,,,,,,,,,,,backspace,12.71399999,,TRUE,,,,,,,144,gorra,Catalan,Sounds/cat_gorra.mp3,2020-06-04_21h21.28.217,TranslationElicitation_eng-prolific,3.2.4,MacIntel,60,5ec56cd8269fcc53a3dfb6c4,,1,0,81,38,1,80
,,,,,,,,,,,,,,,,,,,,,,,,,,,,,,,,,,,,,,,,,b,12.90199995,B,TRUE,,,,,,,144,gorra,Catalan,Sounds/cat_gorra.mp3,2020-06-04_21h21.28.217,TranslationElicitation_eng-prolific,3.2.4,MacIntel,60,5ec56cd8269fcc53a3dfb6c4,,1,0,81,38,1,80
,,,,,,,,,,,,,,,,,,,,,,,,,,,,,,,,,,,,,,,,,e,13.21399999,BE,TRUE,,,,,,,144,gorra,Catalan,Sounds/cat_gorra.mp3,2020-06-04_21h21.28.217,TranslationElicitation_eng-prolific,3.2.4,MacIntel,60,5ec56cd8269fcc53a3dfb6c4,,1,0,81,38,1,80
,,,,,,,,,,,,,,,,,,,,,,,,,,,,,,,,,,,,,,,,,e,13.3829999,BEE,TRUE,,,,,,,144,gorra,Catalan,Sounds/cat_gorra.mp3,2020-06-04_21h21.28.217,TranslationElicitation_eng-prolific,3.2.4,MacIntel,60,5ec56cd8269fcc53a3dfb6c4,,1,0,81,38,1,80
,,,,,,,,,,,,,,,,,,,,,,,,,,,,,,,,,,,,,,,,,r,13.56900001,BEER,TRUE,,,,,,,144,gorra,Catalan,Sounds/cat_gorra.mp3,2020-06-04_21h21.28.217,TranslationElicitation_eng-prolific,3.2.4,MacIntel,60,5ec56cd8269fcc53a3dfb6c4,,1,0,81,38,1,80
,,,,,,,,,,,,,,,,,,,,,,,,,,,,,,,,,,,,,,,,,return,14.102,BEER,TRUE,,,,,,,144,gorra,Catalan,Sounds/cat_gorra.mp3,2020-06-04_21h21.28.217,TranslationElicitation_eng-prolific,3.2.4,MacIntel,60,5ec56cd8269fcc53a3dfb6c4,14.102,1,0,81,38,1,80
,,,,,,,,,,,,,,,,,,,,,,,,,,,,,,,,,,,,,,,,,,,,,,,,,,,144,gorra,Catalan,Sounds/cat_gorra.mp3,2020-06-04_21h21.28.217,TranslationElicitation_eng-prolific,3.2.4,MacIntel,60,5ec56cd8269fcc53a3dfb6c4,,1,0,81,38,1,80
,,,,,,,,,,,,,,,,,,,,,,,,,,,,,,,,,,,,,,,,,p,1.352999926,P,FALSE,,,,,,,168,planta,Catalan,Sounds/cat_planta.mp3,2020-06-04_21h21.28.217,TranslationElicitation_eng-prolific,3.2.4,MacIntel,60,5ec56cd8269fcc53a3dfb6c4,,1,0,81,60,1,80
,,,,,,,,,,,,,,,,,,,,,,,,,,,,,,,,,,,,,,,,,l,1.530999899,PL,FALSE,,,,,,,168,planta,Catalan,Sounds/cat_planta.mp3,2020-06-04_21h21.28.217,TranslationElicitation_eng-prolific,3.2.4,MacIntel,60,5ec56cd8269fcc53a3dfb6c4,,1,0,81,60,1,80
,,,,,,,,,,,,,,,,,,,,,,,,,,,,,,,,,,,,,,,,,a,1.697999954,PLA,FALSE,,,,,,,168,planta,Catalan,Sounds/cat_planta.mp3,2020-06-04_21h21.28.217,TranslationElicitation_eng-prolific,3.2.4,MacIntel,60,5ec56cd8269fcc53a3dfb6c4,,1,0,81,60,1,80
,,,,,,,,,,,,,,,,,,,,,,,,,,,,,,,,,,,,,,,,,n,1.885999918,PLAN,FALSE,,,,,,,168,planta,Catalan,Sounds/cat_planta.mp3,2020-06-04_21h21.28.217,TranslationElicitation_eng-prolific,3.2.4,MacIntel,60,5ec56cd8269fcc53a3dfb6c4,,1,0,81,60,1,80
,,,,,,,,,,,,,,,,,,,,,,,,,,,,,,,,,,,,,,,,,t,2.019000053,PLANT,FALSE,,,,,,,168,planta,Catalan,Sounds/cat_planta.mp3,2020-06-04_21h21.28.217,TranslationElicitation_eng-prolific,3.2.4,MacIntel,60,5ec56cd8269fcc53a3dfb6c4,,1,0,81,60,1,80
,,,,,,,,,,,,,,,,,,,,,,,,,,,,,,,,,,,,,,,,,return,2.326999903,PLANT,FALSE,,,,,,,168,planta,Catalan,Sounds/cat_planta.mp3,2020-06-04_21h21.28.217,TranslationElicitation_eng-prolific,3.2.4,MacIntel,60,5ec56cd8269fcc53a3dfb6c4,2.326999903,1,0,81,60,1,80
,,,,,,,,,,,,,,,,,,,,,,,,,,,,,,,,,,,,,,,,,,,,,,,,,,,168,planta,Catalan,Sounds/cat_planta.mp3,2020-06-04_21h21.28.217,TranslationElicitation_eng-prolific,3.2.4,MacIntel,60,5ec56cd8269fcc53a3dfb6c4,,1,0,81,60,1,80
,,,,,,,,,,,,,,,,,,,,,,,,,,,,,,,,,,,,,,,,,o,1.367000103,O,FALSE,,,,,,,188,xocolata,Catalan,Sounds/cat_xocolata.mp3,2020-06-04_21h21.28.217,TranslationElicitation_eng-prolific,3.2.4,MacIntel,60,5ec56cd8269fcc53a3dfb6c4,,1,0,81,79,1,80
,,,,,,,,,,,,,,,,,,,,,,,,,,,,,,,,,,,,,,,,,l,1.535000086,OL,FALSE,,,,,,,188,xocolata,Catalan,Sounds/cat_xocolata.mp3,2020-06-04_21h21.28.217,TranslationElicitation_eng-prolific,3.2.4,MacIntel,60,5ec56cd8269fcc53a3dfb6c4,,1,0,81,79,1,80
,,,,,,,,,,,,,,,,,,,,,,,,,,,,,,,,,,,,,,,,,c,1.634000063,OLC,FALSE,,,,,,,188,xocolata,Catalan,Sounds/cat_xocolata.mp3,2020-06-04_21h21.28.217,TranslationElicitation_eng-prolific,3.2.4,MacIntel,60,5ec56cd8269fcc53a3dfb6c4,,1,0,81,79,1,80
,,,,,,,,,,,,,,,,,,,,,,,,,,,,,,,,,,,,,,,,,a,1.732000113,OLCA,FALSE,,,,,,,188,xocolata,Catalan,Sounds/cat_xocolata.mp3,2020-06-04_21h21.28.217,TranslationElicitation_eng-prolific,3.2.4,MacIntel,60,5ec56cd8269fcc53a3dfb6c4,,1,0,81,79,1,80
,,,,,,,,,,,,,,,,,,,,,,,,,,,,,,,,,,,,,,,,,t,1.862999916,OLCAT,FALSE,,,,,,,188,xocolata,Catalan,Sounds/cat_xocolata.mp3,2020-06-04_21h21.28.217,TranslationElicitation_eng-prolific,3.2.4,MacIntel,60,5ec56cd8269fcc53a3dfb6c4,,1,0,81,79,1,80
,,,,,,,,,,,,,,,,,,,,,,,,,,,,,,,,,,,,,,,,,e,1.997999907,OLCATE,FALSE,,,,,,,188,xocolata,Catalan,Sounds/cat_xocolata.mp3,2020-06-04_21h21.28.217,TranslationElicitation_eng-prolific,3.2.4,MacIntel,60,5ec56cd8269fcc53a3dfb6c4,,1,0,81,79,1,80
,,,,,,,,,,,,,,,,,,,,,,,,,,,,,,,,,,,,,,,,,backspace,2.355000019,OLCAT,TRUE,,,,,,,188,xocolata,Catalan,Sounds/cat_xocolata.mp3,2020-06-04_21h21.28.217,TranslationElicitation_eng-prolific,3.2.4,MacIntel,60,5ec56cd8269fcc53a3dfb6c4,,1,0,81,79,1,80
,,,,,,,,,,,,,,,,,,,,,,,,,,,,,,,,,,,,,,,,,backspace,2.503999949,OLCA,TRUE,,,,,,,188,xocolata,Catalan,Sounds/cat_xocolata.mp3,2020-06-04_21h21.28.217,TranslationElicitation_eng-prolific,3.2.4,MacIntel,60,5ec56cd8269fcc53a3dfb6c4,,1,0,81,79,1,80
,,,,,,,,,,,,,,,,,,,,,,,,,,,,,,,,,,,,,,,,,backspace,2.681999922,OLC,TRUE,,,,,,,188,xocolata,Catalan,Sounds/cat_xocolata.mp3,2020-06-04_21h21.28.217,TranslationElicitation_eng-prolific,3.2.4,MacIntel,60,5ec56cd8269fcc53a3dfb6c4,,1,0,81,79,1,80
,,,,,,,,,,,,,,,,,,,,,,,,,,,,,,,,,,,,,,,,,backspace,2.851999998,OL,TRUE,,,,,,,188,xocolata,Catalan,Sounds/cat_xocolata.mp3,2020-06-04_21h21.28.217,TranslationElicitation_eng-prolific,3.2.4,MacIntel,60,5ec56cd8269fcc53a3dfb6c4,,1,0,81,79,1,80
,,,,,,,,,,,,,,,,,,,,,,,,,,,,,,,,,,,,,,,,,backspace,3.038000107,O,TRUE,,,,,,,188,xocolata,Catalan,Sounds/cat_xocolata.mp3,2020-06-04_21h21.28.217,TranslationElicitation_eng-prolific,3.2.4,MacIntel,60,5ec56cd8269fcc53a3dfb6c4,,1,0,81,79,1,80
,,,,,,,,,,,,,,,,,,,,,,,,,,,,,,,,,,,,,,,,,backspace,3.180999994,,TRUE,,,,,,,188,xocolata,Catalan,Sounds/cat_xocolata.mp3,2020-06-04_21h21.28.217,TranslationElicitation_eng-prolific,3.2.4,MacIntel,60,5ec56cd8269fcc53a3dfb6c4,,1,0,81,79,1,80
,,,,,,,,,,,,,,,,,,,,,,,,,,,,,,,,,,,,,,,,,c,3.447999954,C,TRUE,,,,,,,188,xocolata,Catalan,Sounds/cat_xocolata.mp3,2020-06-04_21h21.28.217,TranslationElicitation_eng-prolific,3.2.4,MacIntel,60,5ec56cd8269fcc53a3dfb6c4,,1,0,81,79,1,80
,,,,,,,,,,,,,,,,,,,,,,,,,,,,,,,,,,,,,,,,,h,3.98300004,CH,TRUE,,,,,,,188,xocolata,Catalan,Sounds/cat_xocolata.mp3,2020-06-04_21h21.28.217,TranslationElicitation_eng-prolific,3.2.4,MacIntel,60,5ec56cd8269fcc53a3dfb6c4,,1,0,81,79,1,80
,,,,,,,,,,,,,,,,,,,,,,,,,,,,,,,,,,,,,,,,,o,4.217000008,CHO,TRUE,,,,,,,188,xocolata,Catalan,Sounds/cat_xocolata.mp3,2020-06-04_21h21.28.217,TranslationElicitation_eng-prolific,3.2.4,MacIntel,60,5ec56cd8269fcc53a3dfb6c4,,1,0,81,79,1,80
,,,,,,,,,,,,,,,,,,,,,,,,,,,,,,,,,,,,,,,,,c,4.404999971,CHOC,TRUE,,,,,,,188,xocolata,Catalan,Sounds/cat_xocolata.mp3,2020-06-04_21h21.28.217,TranslationElicitation_eng-prolific,3.2.4,MacIntel,60,5ec56cd8269fcc53a3dfb6c4,,1,0,81,79,1,80
,,,,,,,,,,,,,,,,,,,,,,,,,,,,,,,,,,,,,,,,,o,4.94900012,CHOCO,TRUE,,,,,,,188,xocolata,Catalan,Sounds/cat_xocolata.mp3,2020-06-04_21h21.28.217,TranslationElicitation_eng-prolific,3.2.4,MacIntel,60,5ec56cd8269fcc53a3dfb6c4,,1,0,81,79,1,80
,,,,,,,,,,,,,,,,,,,,,,,,,,,,,,,,,,,,,,,,,l,5.259000063,CHOCOL,TRUE,,,,,,,188,xocolata,Catalan,Sounds/cat_xocolata.mp3,2020-06-04_21h21.28.217,TranslationElicitation_eng-prolific,3.2.4,MacIntel,60,5ec56cd8269fcc53a3dfb6c4,,1,0,81,79,1,80
,,,,,,,,,,,,,,,,,,,,,,,,,,,,,,,,,,,,,,,,,a,5.404000044,CHOCOLA,TRUE,,,,,,,188,xocolata,Catalan,Sounds/cat_xocolata.mp3,2020-06-04_21h21.28.217,TranslationElicitation_eng-prolific,3.2.4,MacIntel,60,5ec56cd8269fcc53a3dfb6c4,,1,0,81,79,1,80
,,,,,,,,,,,,,,,,,,,,,,,,,,,,,,,,,,,,,,,,,t,5.444000006,CHOCOLAT,TRUE,,,,,,,188,xocolata,Catalan,Sounds/cat_xocolata.mp3,2020-06-04_21h21.28.217,TranslationElicitation_eng-prolific,3.2.4,MacIntel,60,5ec56cd8269fcc53a3dfb6c4,,1,0,81,79,1,80
,,,,,,,,,,,,,,,,,,,,,,,,,,,,,,,,,,,,,,,,,e,5.532000065,CHOCOLATE,TRUE,,,,,,,188,xocolata,Catalan,Sounds/cat_xocolata.mp3,2020-06-04_21h21.28.217,TranslationElicitation_eng-prolific,3.2.4,MacIntel,60,5ec56cd8269fcc53a3dfb6c4,,1,0,81,79,1,80
,,,,,,,,,,,,,,,,,,,,,,,,,,,,,,,,,,,,,,,,,return,6.154999971,CHOCOLATE,TRUE,,,,,,,188,xocolata,Catalan,Sounds/cat_xocolata.mp3,2020-06-04_21h21.28.217,TranslationElicitation_eng-prolific,3.2.4,MacIntel,60,5ec56cd8269fcc53a3dfb6c4,6.154999971,1,0,81,79,1,80
,,,,,,,,,,,,,,,,,,,,,,,,,,,,,,,,,,,,,,,,,,,,,,,,,,,188,xocolata,Catalan,Sounds/cat_xocolata.mp3,2020-06-04_21h21.28.217,TranslationElicitation_eng-prolific,3.2.4,MacIntel,60,5ec56cd8269fcc53a3dfb6c4,,1,0,81,79,1,80
,,,,,,,,,,,,,,,,,,,,,,,,,,,,,,,,,,,,,,,,,b,2.097000122,B,FALSE,,,,,,,187,vaixell,Catalan,Sounds/cat_vaixell.mp3,2020-06-04_21h21.28.217,TranslationElicitation_eng-prolific,3.2.4,MacIntel,60,5ec56cd8269fcc53a3dfb6c4,,1,0,81,78,1,80
,,,,,,,,,,,,,,,,,,,,,,,,,,,,,,,,,,,,,,,,,r,2.230000019,BR,FALSE,,,,,,,187,vaixell,Catalan,Sounds/cat_vaixell.mp3,2020-06-04_21h21.28.217,TranslationElicitation_eng-prolific,3.2.4,MacIntel,60,5ec56cd8269fcc53a3dfb6c4,,1,0,81,78,1,80
,,,,,,,,,,,,,,,,,,,,,,,,,,,,,,,,,,,,,,,,,e,2.328999996,BRE,FALSE,,,,,,,187,vaixell,Catalan,Sounds/cat_vaixell.mp3,2020-06-04_21h21.28.217,TranslationElicitation_eng-prolific,3.2.4,MacIntel,60,5ec56cd8269fcc53a3dfb6c4,,1,0,81,78,1,80
,,,,,,,,,,,,,,,,,,,,,,,,,,,,,,,,,,,,,,,,,a,2.498000145,BREA,FALSE,,,,,,,187,vaixell,Catalan,Sounds/cat_vaixell.mp3,2020-06-04_21h21.28.217,TranslationElicitation_eng-prolific,3.2.4,MacIntel,60,5ec56cd8269fcc53a3dfb6c4,,1,0,81,78,1,80
,,,,,,,,,,,,,,,,,,,,,,,,,,,,,,,,,,,,,,,,,d,2.550000191,BREAD,FALSE,,,,,,,187,vaixell,Catalan,Sounds/cat_vaixell.mp3,2020-06-04_21h21.28.217,TranslationElicitation_eng-prolific,3.2.4,MacIntel,60,5ec56cd8269fcc53a3dfb6c4,,1,0,81,78,1,80
,,,,,,,,,,,,,,,,,,,,,,,,,,,,,,,,,,,,,,,,,return,3.059000015,BREAD,FALSE,,,,,,,187,vaixell,Catalan,Sounds/cat_vaixell.mp3,2020-06-04_21h21.28.217,TranslationElicitation_eng-prolific,3.2.4,MacIntel,60,5ec56cd8269fcc53a3dfb6c4,3.059000015,1,0,81,78,1,80
,,,,,,,,,,,,,,,,,,,,,,,,,,,,,,,,,,,,,,,,,,,,,,,,,,,187,vaixell,Catalan,Sounds/cat_vaixell.mp3,2020-06-04_21h21.28.217,TranslationElicitation_eng-prolific,3.2.4,MacIntel,60,5ec56cd8269fcc53a3dfb6c4,,1,0,81,78,1,80
,,,,,,,,,,,,,,,,,,,,,,,,,,,,,,,,,,,,,,,,,u,6.046000004,U,FALSE,,,,,,,160,orella,Catalan,Sounds/cat_orella.mp3,2020-06-04_21h21.28.217,TranslationElicitation_eng-prolific,3.2.4,MacIntel,60,5ec56cd8269fcc53a3dfb6c4,,1,0,81,52,1,80
,,,,,,,,,,,,,,,,,,,,,,,,,,,,,,,,,,,,,,,,,m,6.223999977,UM,FALSE,,,,,,,160,orella,Catalan,Sounds/cat_orella.mp3,2020-06-04_21h21.28.217,TranslationElicitation_eng-prolific,3.2.4,MacIntel,60,5ec56cd8269fcc53a3dfb6c4,,1,0,81,52,1,80
,,,,,,,,,,,,,,,,,,,,,,,,,,,,,,,,,,,,,,,,,b,6.446000099,UMB,FALSE,,,,,,,160,orella,Catalan,Sounds/cat_orella.mp3,2020-06-04_21h21.28.217,TranslationElicitation_eng-prolific,3.2.4,MacIntel,60,5ec56cd8269fcc53a3dfb6c4,,1,0,81,52,1,80
,,,,,,,,,,,,,,,,,,,,,,,,,,,,,,,,,,,,,,,,,r,6.546999931,UMBR,FALSE,,,,,,,160,orella,Catalan,Sounds/cat_orella.mp3,2020-06-04_21h21.28.217,TranslationElicitation_eng-prolific,3.2.4,MacIntel,60,5ec56cd8269fcc53a3dfb6c4,,1,0,81,52,1,80
,,,,,,,,,,,,,,,,,,,,,,,,,,,,,,,,,,,,,,,,,e,6.590000153,UMBRE,FALSE,,,,,,,160,orella,Catalan,Sounds/cat_orella.mp3,2020-06-04_21h21.28.217,TranslationElicitation_eng-prolific,3.2.4,MacIntel,60,5ec56cd8269fcc53a3dfb6c4,,1,0,81,52,1,80
,,,,,,,,,,,,,,,,,,,,,,,,,,,,,,,,,,,,,,,,,l,6.720999956,UMBREL,FALSE,,,,,,,160,orella,Catalan,Sounds/cat_orella.mp3,2020-06-04_21h21.28.217,TranslationElicitation_eng-prolific,3.2.4,MacIntel,60,5ec56cd8269fcc53a3dfb6c4,,1,0,81,52,1,80
,,,,,,,,,,,,,,,,,,,,,,,,,,,,,,,,,,,,,,,,,l,6.890000105,UMBRELL,FALSE,,,,,,,160,orella,Catalan,Sounds/cat_orella.mp3,2020-06-04_21h21.28.217,TranslationElicitation_eng-prolific,3.2.4,MacIntel,60,5ec56cd8269fcc53a3dfb6c4,,1,0,81,52,1,80
,,,,,,,,,,,,,,,,,,,,,,,,,,,,,,,,,,,,,,,,,a,7.023000002,UMBRELLA,FALSE,,,,,,,160,orella,Catalan,Sounds/cat_orella.mp3,2020-06-04_21h21.28.217,TranslationElicitation_eng-prolific,3.2.4,MacIntel,60,5ec56cd8269fcc53a3dfb6c4,,1,0,81,52,1,80
,,,,,,,,,,,,,,,,,,,,,,,,,,,,,,,,,,,,,,,,,return,7.222000122,UMBRELLA,FALSE,,,,,,,160,orella,Catalan,Sounds/cat_orella.mp3,2020-06-04_21h21.28.217,TranslationElicitation_eng-prolific,3.2.4,MacIntel,60,5ec56cd8269fcc53a3dfb6c4,7.222000122,1,0,81,52,1,80
,,,,,,,,,,,,,,,,,,,,,,,,,,,,,,,,,,,,,,,,,,,,,,,,,,,160,orella,Catalan,Sounds/cat_orella.mp3,2020-06-04_21h21.28.217,TranslationElicitation_eng-prolific,3.2.4,MacIntel,60,5ec56cd8269fcc53a3dfb6c4,,1,0,81,52,1,80
,,,,,,,,,,,,,,,,,,,,,,,,,,,,,,,,,,,,,,,,,p,7.601000071,P,FALSE,,,,,,,172,poma,Catalan,Sounds/cat_poma.mp3,2020-06-04_21h21.28.217,TranslationElicitation_eng-prolific,3.2.4,MacIntel,60,5ec56cd8269fcc53a3dfb6c4,,1,0,81,64,1,80
,,,,,,,,,,,,,,,,,,,,,,,,,,,,,,,,,,,,,,,,,i,7.868000031,PI,FALSE,,,,,,,172,poma,Catalan,Sounds/cat_poma.mp3,2020-06-04_21h21.28.217,TranslationElicitation_eng-prolific,3.2.4,MacIntel,60,5ec56cd8269fcc53a3dfb6c4,,1,0,81,64,1,80
,,,,,,,,,,,,,,,,,,,,,,,,,,,,,,,,,,,,,,,,,d,8.010999918,PID,FALSE,,,,,,,172,poma,Catalan,Sounds/cat_poma.mp3,2020-06-04_21h21.28.217,TranslationElicitation_eng-prolific,3.2.4,MacIntel,60,5ec56cd8269fcc53a3dfb6c4,,1,0,81,64,1,80
,,,,,,,,,,,,,,,,,,,,,,,,,,,,,,,,,,,,,,,,,g,8.234999895,PIDG,FALSE,,,,,,,172,poma,Catalan,Sounds/cat_poma.mp3,2020-06-04_21h21.28.217,TranslationElicitation_eng-prolific,3.2.4,MacIntel,60,5ec56cd8269fcc53a3dfb6c4,,1,0,81,64,1,80
,,,,,,,,,,,,,,,,,,,,,,,,,,,,,,,,,,,,,,,,,i,8.315000057,PIDGI,FALSE,,,,,,,172,poma,Catalan,Sounds/cat_poma.mp3,2020-06-04_21h21.28.217,TranslationElicitation_eng-prolific,3.2.4,MacIntel,60,5ec56cd8269fcc53a3dfb6c4,,1,0,81,64,1,80
,,,,,,,,,,,,,,,,,,,,,,,,,,,,,,,,,,,,,,,,,n,8.599999905,PIDGIN,FALSE,,,,,,,172,poma,Catalan,Sounds/cat_poma.mp3,2020-06-04_21h21.28.217,TranslationElicitation_eng-prolific,3.2.4,MacIntel,60,5ec56cd8269fcc53a3dfb6c4,,1,0,81,64,1,80
,,,,,,,,,,,,,,,,,,,,,,,,,,,,,,,,,,,,,,,,,backspace,9.134000063,PIDGI,TRUE,,,,,,,172,poma,Catalan,Sounds/cat_poma.mp3,2020-06-04_21h21.28.217,TranslationElicitation_eng-prolific,3.2.4,MacIntel,60,5ec56cd8269fcc53a3dfb6c4,,1,0,81,64,1,80
,,,,,,,,,,,,,,,,,,,,,,,,,,,,,,,,,,,,,,,,,backspace,9.312000036,PIDG,TRUE,,,,,,,172,poma,Catalan,Sounds/cat_poma.mp3,2020-06-04_21h21.28.217,TranslationElicitation_eng-prolific,3.2.4,MacIntel,60,5ec56cd8269fcc53a3dfb6c4,,1,0,81,64,1,80
,,,,,,,,,,,,,,,,,,,,,,,,,,,,,,,,,,,,,,,,,backspace,9.532000065,PID,TRUE,,,,,,,172,poma,Catalan,Sounds/cat_poma.mp3,2020-06-04_21h21.28.217,TranslationElicitation_eng-prolific,3.2.4,MacIntel,60,5ec56cd8269fcc53a3dfb6c4,,1,0,81,64,1,80
,,,,,,,,,,,,,,,,,,,,,,,,,,,,,,,,,,,,,,,,,backspace,9.763000011,PI,TRUE,,,,,,,172,poma,Catalan,Sounds/cat_poma.mp3,2020-06-04_21h21.28.217,TranslationElicitation_eng-prolific,3.2.4,MacIntel,60,5ec56cd8269fcc53a3dfb6c4,,1,0,81,64,1,80
,,,,,,,,,,,,,,,,,,,,,,,,,,,,,,,,,,,,,,,,,backspace,9.950999975,P,TRUE,,,,,,,172,poma,Catalan,Sounds/cat_poma.mp3,2020-06-04_21h21.28.217,TranslationElicitation_eng-prolific,3.2.4,MacIntel,60,5ec56cd8269fcc53a3dfb6c4,,1,0,81,64,1,80
,,,,,,,,,,,,,,,,,,,,,,,,,,,,,,,,,,,,,,,,,backspace,10.2980001,,TRUE,,,,,,,172,poma,Catalan,Sounds/cat_poma.mp3,2020-06-04_21h21.28.217,TranslationElicitation_eng-prolific,3.2.4,MacIntel,60,5ec56cd8269fcc53a3dfb6c4,,1,0,81,64,1,80
,,,,,,,,,,,,,,,,,,,,,,,,,,,,,,,,,,,,,,,,,d,12.7980001,D,TRUE,,,,,,,172,poma,Catalan,Sounds/cat_poma.mp3,2020-06-04_21h21.28.217,TranslationElicitation_eng-prolific,3.2.4,MacIntel,60,5ec56cd8269fcc53a3dfb6c4,,1,0,81,64,1,80
,,,,,,,,,,,,,,,,,,,,,,,,,,,,,,,,,,,,,,,,,o,12.93099999,DO,TRUE,,,,,,,172,poma,Catalan,Sounds/cat_poma.mp3,2020-06-04_21h21.28.217,TranslationElicitation_eng-prolific,3.2.4,MacIntel,60,5ec56cd8269fcc53a3dfb6c4,,1,0,81,64,1,80
,,,,,,,,,,,,,,,,,,,,,,,,,,,,,,,,,,,,,,,,,o,13.06500006,DOO,TRUE,,,,,,,172,poma,Catalan,Sounds/cat_poma.mp3,2020-06-04_21h21.28.217,TranslationElicitation_eng-prolific,3.2.4,MacIntel,60,5ec56cd8269fcc53a3dfb6c4,,1,0,81,64,1,80
,,,,,,,,,,,,,,,,,,,,,,,,,,,,,,,,,,,,,,,,,r,13.19899988,DOOR,TRUE,,,,,,,172,poma,Catalan,Sounds/cat_poma.mp3,2020-06-04_21h21.28.217,TranslationElicitation_eng-prolific,3.2.4,MacIntel,60,5ec56cd8269fcc53a3dfb6c4,,1,0,81,64,1,80
,,,,,,,,,,,,,,,,,,,,,,,,,,,,,,,,,,,,,,,,,m,13.29699993,DOORM,TRUE,,,,,,,172,poma,Catalan,Sounds/cat_poma.mp3,2020-06-04_21h21.28.217,TranslationElicitation_eng-prolific,3.2.4,MacIntel,60,5ec56cd8269fcc53a3dfb6c4,,1,0,81,64,1,80
,,,,,,,,,,,,,,,,,,,,,,,,,,,,,,,,,,,,,,,,,a,13.56200004,DOORMA,TRUE,,,,,,,172,poma,Catalan,Sounds/cat_poma.mp3,2020-06-04_21h21.28.217,TranslationElicitation_eng-prolific,3.2.4,MacIntel,60,5ec56cd8269fcc53a3dfb6c4,,1,0,81,64,1,80
,,,,,,,,,,,,,,,,,,,,,,,,,,,,,,,,,,,,,,,,,n,13.6960001,DOORMAN,TRUE,,,,,,,172,poma,Catalan,Sounds/cat_poma.mp3,2020-06-04_21h21.28.217,TranslationElicitation_eng-prolific,3.2.4,MacIntel,60,5ec56cd8269fcc53a3dfb6c4,,1,0,81,64,1,80
,,,,,,,,,,,,,,,,,,,,,,,,,,,,,,,,,,,,,,,,,return,14.2420001,DOORMAN,TRUE,,,,,,,172,poma,Catalan,Sounds/cat_poma.mp3,2020-06-04_21h21.28.217,TranslationElicitation_eng-prolific,3.2.4,MacIntel,60,5ec56cd8269fcc53a3dfb6c4,14.2420001,1,0,81,64,1,80
,,,,,,,,,,,,,,,,,,,,,,,,,,,,,,,,,,,,,,,,,,,,,,,,,,,172,poma,Catalan,Sounds/cat_poma.mp3,2020-06-04_21h21.28.217,TranslationElicitation_eng-prolific,3.2.4,MacIntel,60,5ec56cd8269fcc53a3dfb6c4,,1,0,81,64,1,80
,,,,,,,,,,,,,,,,,,,,,,,,,,,,,,,,,,,,,,,,,m,7.777000189,M,FALSE,,,,,,,154,mirall,Catalan,Sounds/cat_mirall.mp3,2020-06-04_21h21.28.217,TranslationElicitation_eng-prolific,3.2.4,MacIntel,60,5ec56cd8269fcc53a3dfb6c4,,1,0,81,47,1,80
,,,,,,,,,,,,,,,,,,,,,,,,,,,,,,,,,,,,,,,,,u,8.001000166,MU,FALSE,,,,,,,154,mirall,Catalan,Sounds/cat_mirall.mp3,2020-06-04_21h21.28.217,TranslationElicitation_eng-prolific,3.2.4,MacIntel,60,5ec56cd8269fcc53a3dfb6c4,,1,0,81,47,1,80
,,,,,,,,,,,,,,,,,,,,,,,,,,,,,,,,,,,,,,,,,r,8.13499999,MUR,FALSE,,,,,,,154,mirall,Catalan,Sounds/cat_mirall.mp3,2020-06-04_21h21.28.217,TranslationElicitation_eng-prolific,3.2.4,MacIntel,60,5ec56cd8269fcc53a3dfb6c4,,1,0,81,47,1,80
,,,,,,,,,,,,,,,,,,,,,,,,,,,,,,,,,,,,,,,,,a,8.215000153,MURA,FALSE,,,,,,,154,mirall,Catalan,Sounds/cat_mirall.mp3,2020-06-04_21h21.28.217,TranslationElicitation_eng-prolific,3.2.4,MacIntel,60,5ec56cd8269fcc53a3dfb6c4,,1,0,81,47,1,80
,,,,,,,,,,,,,,,,,,,,,,,,,,,,,,,,,,,,,,,,,l,8.31400013,MURAL,FALSE,,,,,,,154,mirall,Catalan,Sounds/cat_mirall.mp3,2020-06-04_21h21.28.217,TranslationElicitation_eng-prolific,3.2.4,MacIntel,60,5ec56cd8269fcc53a3dfb6c4,,1,0,81,47,1,80
,,,,,,,,,,,,,,,,,,,,,,,,,,,,,,,,,,,,,,,,,return,8.894000053,MURAL,FALSE,,,,,,,154,mirall,Catalan,Sounds/cat_mirall.mp3,2020-06-04_21h21.28.217,TranslationElicitation_eng-prolific,3.2.4,MacIntel,60,5ec56cd8269fcc53a3dfb6c4,8.894000053,1,0,81,47,1,80
,,,,,,,,,,,,,,,,,,,,,,,,,,,,,,,,,,,,,,,,,,,,,,,,,,,154,mirall,Catalan,Sounds/cat_mirall.mp3,2020-06-04_21h21.28.217,TranslationElicitation_eng-prolific,3.2.4,MacIntel,60,5ec56cd8269fcc53a3dfb6c4,,1,0,81,47,1,80
,,,,,,,,,,,,,,,,,,,,,,,,,,,,,,,,,,,,,,,,,m,3.101000071,M,FALSE,,,,,,,153,mico,Catalan,Sounds/cat_mico.mp3,2020-06-04_21h21.28.217,TranslationElicitation_eng-prolific,3.2.4,MacIntel,60,5ec56cd8269fcc53a3dfb6c4,,1,0,81,46,1,80
,,,,,,,,,,,,,,,,,,,,,,,,,,,,,,,,,,,,,,,,,i,3.31400013,MI,FALSE,,,,,,,153,mico,Catalan,Sounds/cat_mico.mp3,2020-06-04_21h21.28.217,TranslationElicitation_eng-prolific,3.2.4,MacIntel,60,5ec56cd8269fcc53a3dfb6c4,,1,0,81,46,1,80
,,,,,,,,,,,,,,,,,,,,,,,,,,,,,,,,,,,,,,,,,c,3.46600008,MIC,FALSE,,,,,,,153,mico,Catalan,Sounds/cat_mico.mp3,2020-06-04_21h21.28.217,TranslationElicitation_eng-prolific,3.2.4,MacIntel,60,5ec56cd8269fcc53a3dfb6c4,,1,0,81,46,1,80
,,,,,,,,,,,,,,,,,,,,,,,,,,,,,,,,,,,,,,,,,o,3.545000076,MICO,FALSE,,,,,,,153,mico,Catalan,Sounds/cat_mico.mp3,2020-06-04_21h21.28.217,TranslationElicitation_eng-prolific,3.2.4,MacIntel,60,5ec56cd8269fcc53a3dfb6c4,,1,0,81,46,1,80
,,,,,,,,,,,,,,,,,,,,,,,,,,,,,,,,,,,,,,,,,backspace,4.099000216,MIC,TRUE,,,,,,,153,mico,Catalan,Sounds/cat_mico.mp3,2020-06-04_21h21.28.217,TranslationElicitation_eng-prolific,3.2.4,MacIntel,60,5ec56cd8269fcc53a3dfb6c4,,1,0,81,46,1,80
,,,,,,,,,,,,,,,,,,,,,,,,,,,,,,,,,,,,,,,,,backspace,4.278000116,MI,TRUE,,,,,,,153,mico,Catalan,Sounds/cat_mico.mp3,2020-06-04_21h21.28.217,TranslationElicitation_eng-prolific,3.2.4,MacIntel,60,5ec56cd8269fcc53a3dfb6c4,,1,0,81,46,1,80
,,,,,,,,,,,,,,,,,,,,,,,,,,,,,,,,,,,,,,,,,backspace,4.448000193,M,TRUE,,,,,,,153,mico,Catalan,Sounds/cat_mico.mp3,2020-06-04_21h21.28.217,TranslationElicitation_eng-prolific,3.2.4,MacIntel,60,5ec56cd8269fcc53a3dfb6c4,,1,0,81,46,1,80
,,,,,,,,,,,,,,,,,,,,,,,,,,,,,,,,,,,,,,,,,backspace,4.633000135,,TRUE,,,,,,,153,mico,Catalan,Sounds/cat_mico.mp3,2020-06-04_21h21.28.217,TranslationElicitation_eng-prolific,3.2.4,MacIntel,60,5ec56cd8269fcc53a3dfb6c4,,1,0,81,46,1,80
,,,,,,,,,,,,,,,,,,,,,,,,,,,,,,,,,,,,,,,,,r,5.134000063,R,TRUE,,,,,,,153,mico,Catalan,Sounds/cat_mico.mp3,2020-06-04_21h21.28.217,TranslationElicitation_eng-prolific,3.2.4,MacIntel,60,5ec56cd8269fcc53a3dfb6c4,,1,0,81,46,1,80
,,,,,,,,,,,,,,,,,,,,,,,,,,,,,,,,,,,,,,,,,a,5.368000031,RA,TRUE,,,,,,,153,mico,Catalan,Sounds/cat_mico.mp3,2020-06-04_21h21.28.217,TranslationElicitation_eng-prolific,3.2.4,MacIntel,60,5ec56cd8269fcc53a3dfb6c4,,1,0,81,46,1,80
,,,,,,,,,,,,,,,,,,,,,,,,,,,,,,,,,,,,,,,,,c,5.573000193,RAC,TRUE,,,,,,,153,mico,Catalan,Sounds/cat_mico.mp3,2020-06-04_21h21.28.217,TranslationElicitation_eng-prolific,3.2.4,MacIntel,60,5ec56cd8269fcc53a3dfb6c4,,1,0,81,46,1,80
,,,,,,,,,,,,,,,,,,,,,,,,,,,,,,,,,,,,,,,,,c,5.747000217,RACC,TRUE,,,,,,,153,mico,Catalan,Sounds/cat_mico.mp3,2020-06-04_21h21.28.217,TranslationElicitation_eng-prolific,3.2.4,MacIntel,60,5ec56cd8269fcc53a3dfb6c4,,1,0,81,46,1,80
,,,,,,,,,,,,,,,,,,,,,,,,,,,,,,,,,,,,,,,,,o,5.881000042,RACCO,TRUE,,,,,,,153,mico,Catalan,Sounds/cat_mico.mp3,2020-06-04_21h21.28.217,TranslationElicitation_eng-prolific,3.2.4,MacIntel,60,5ec56cd8269fcc53a3dfb6c4,,1,0,81,46,1,80
,,,,,,,,,,,,,,,,,,,,,,,,,,,,,,,,,,,,,,,,,o,6.065999985,RACCOO,TRUE,,,,,,,153,mico,Catalan,Sounds/cat_mico.mp3,2020-06-04_21h21.28.217,TranslationElicitation_eng-prolific,3.2.4,MacIntel,60,5ec56cd8269fcc53a3dfb6c4,,1,0,81,46,1,80
,,,,,,,,,,,,,,,,,,,,,,,,,,,,,,,,,,,,,,,,,n,6.291000128,RACCOON,TRUE,,,,,,,153,mico,Catalan,Sounds/cat_mico.mp3,2020-06-04_21h21.28.217,TranslationElicitation_eng-prolific,3.2.4,MacIntel,60,5ec56cd8269fcc53a3dfb6c4,,1,0,81,46,1,80
,,,,,,,,,,,,,,,,,,,,,,,,,,,,,,,,,,,,,,,,,return,7.761000156,RACCOON,TRUE,,,,,,,153,mico,Catalan,Sounds/cat_mico.mp3,2020-06-04_21h21.28.217,TranslationElicitation_eng-prolific,3.2.4,MacIntel,60,5ec56cd8269fcc53a3dfb6c4,7.761000156,1,0,81,46,1,80
,,,,,,,,,,,,,,,,,,,,,,,,,,,,,,,,,,,,,,,,,,,,,,,,,,,153,mico,Catalan,Sounds/cat_mico.mp3,2020-06-04_21h21.28.217,TranslationElicitation_eng-prolific,3.2.4,MacIntel,60,5ec56cd8269fcc53a3dfb6c4,,1,0,81,46,1,80
,,,,,,,,,,,,,,,,,,,,,,,,,,,,,,,,,,,,,,,,,r,2.684000015,R,FALSE,,,,,,,175,raspall,Catalan,Sounds/cat_raspall.mp3,2020-06-04_21h21.28.217,TranslationElicitation_eng-prolific,3.2.4,MacIntel,60,5ec56cd8269fcc53a3dfb6c4,,1,0,81,67,1,80
,,,,,,,,,,,,,,,,,,,,,,,,,,,,,,,,,,,,,,,,,a,2.832999945,RA,FALSE,,,,,,,175,raspall,Catalan,Sounds/cat_raspall.mp3,2020-06-04_21h21.28.217,TranslationElicitation_eng-prolific,3.2.4,MacIntel,60,5ec56cd8269fcc53a3dfb6c4,,1,0,81,67,1,80
,,,,,,,,,,,,,,,,,,,,,,,,,,,,,,,,,,,,,,,,,s,3.010999918,RAS,FALSE,,,,,,,175,raspall,Catalan,Sounds/cat_raspall.mp3,2020-06-04_21h21.28.217,TranslationElicitation_eng-prolific,3.2.4,MacIntel,60,5ec56cd8269fcc53a3dfb6c4,,1,0,81,67,1,80
,,,,,,,,,,,,,,,,,,,,,,,,,,,,,,,,,,,,,,,,,p,3.181999922,RASP,FALSE,,,,,,,175,raspall,Catalan,Sounds/cat_raspall.mp3,2020-06-04_21h21.28.217,TranslationElicitation_eng-prolific,3.2.4,MacIntel,60,5ec56cd8269fcc53a3dfb6c4,,1,0,81,67,1,80
,,,,,,,,,,,,,,,,,,,,,,,,,,,,,,,,,,,,,,,,,e,3.294999838,RASPE,FALSE,,,,,,,175,raspall,Catalan,Sounds/cat_raspall.mp3,2020-06-04_21h21.28.217,TranslationElicitation_eng-prolific,3.2.4,MacIntel,60,5ec56cd8269fcc53a3dfb6c4,,1,0,81,67,1,80
,,,,,,,,,,,,,,,,,,,,,,,,,,,,,,,,,,,,,,,,,backspace,4.194999933,RASP,TRUE,,,,,,,175,raspall,Catalan,Sounds/cat_raspall.mp3,2020-06-04_21h21.28.217,TranslationElicitation_eng-prolific,3.2.4,MacIntel,60,5ec56cd8269fcc53a3dfb6c4,,1,0,81,67,1,80
,,,,,,,,,,,,,,,,,,,,,,,,,,,,,,,,,,,,,,,,,b,4.282999992,RASPB,TRUE,,,,,,,175,raspall,Catalan,Sounds/cat_raspall.mp3,2020-06-04_21h21.28.217,TranslationElicitation_eng-prolific,3.2.4,MacIntel,60,5ec56cd8269fcc53a3dfb6c4,,1,0,81,67,1,80
,,,,,,,,,,,,,,,,,,,,,,,,,,,,,,,,,,,,,,,,,e,4.460000038,RASPBE,TRUE,,,,,,,175,raspall,Catalan,Sounds/cat_raspall.mp3,2020-06-04_21h21.28.217,TranslationElicitation_eng-prolific,3.2.4,MacIntel,60,5ec56cd8269fcc53a3dfb6c4,,1,0,81,67,1,80
,,,,,,,,,,,,,,,,,,,,,,,,,,,,,,,,,,,,,,,,,r,4.592000008,RASPBER,TRUE,,,,,,,175,raspall,Catalan,Sounds/cat_raspall.mp3,2020-06-04_21h21.28.217,TranslationElicitation_eng-prolific,3.2.4,MacIntel,60,5ec56cd8269fcc53a3dfb6c4,,1,0,81,67,1,80
,,,,,,,,,,,,,,,,,,,,,,,,,,,,,,,,,,,,,,,,,r,4.760999918,RASPBERR,TRUE,,,,,,,175,raspall,Catalan,Sounds/cat_raspall.mp3,2020-06-04_21h21.28.217,TranslationElicitation_eng-prolific,3.2.4,MacIntel,60,5ec56cd8269fcc53a3dfb6c4,,1,0,81,67,1,80
,,,,,,,,,,,,,,,,,,,,,,,,,,,,,,,,,,,,,,,,,y,5.076999903,RASPBERRY,TRUE,,,,,,,175,raspall,Catalan,Sounds/cat_raspall.mp3,2020-06-04_21h21.28.217,TranslationElicitation_eng-prolific,3.2.4,MacIntel,60,5ec56cd8269fcc53a3dfb6c4,,1,0,81,67,1,80
,,,,,,,,,,,,,,,,,,,,,,,,,,,,,,,,,,,,,,,,,return,5.724999905,RASPBERRY,TRUE,,,,,,,175,raspall,Catalan,Sounds/cat_raspall.mp3,2020-06-04_21h21.28.217,TranslationElicitation_eng-prolific,3.2.4,MacIntel,60,5ec56cd8269fcc53a3dfb6c4,5.724999905,1,0,81,67,1,80
,,,,,,,,,,,,,,,,,,,,,,,,,,,,,,,,,,,,,,,,,,,,,,,,,,,175,raspall,Catalan,Sounds/cat_raspall.mp3,2020-06-04_21h21.28.217,TranslationElicitation_eng-prolific,3.2.4,MacIntel,60,5ec56cd8269fcc53a3dfb6c4,,1,0,81,67,1,80
,,,,,,,,,,,,,,,,,,,,,,,,,,,,,,,,,,,,,,,,,m,1.730000019,M,FALSE,,,,,,,151,lluna,Catalan,Sounds/cat_lluna.mp3,2020-06-04_21h21.28.217,TranslationElicitation_eng-prolific,3.2.4,MacIntel,60,5ec56cd8269fcc53a3dfb6c4,,1,0,81,44,1,80
,,,,,,,,,,,,,,,,,,,,,,,,,,,,,,,,,,,,,,,,,o,1.911999941,MO,FALSE,,,,,,,151,lluna,Catalan,Sounds/cat_lluna.mp3,2020-06-04_21h21.28.217,TranslationElicitation_eng-prolific,3.2.4,MacIntel,60,5ec56cd8269fcc53a3dfb6c4,,1,0,81,44,1,80
,,,,,,,,,,,,,,,,,,,,,,,,,,,,,,,,,,,,,,,,,o,2.078000069,MOO,FALSE,,,,,,,151,lluna,Catalan,Sounds/cat_lluna.mp3,2020-06-04_21h21.28.217,TranslationElicitation_eng-prolific,3.2.4,MacIntel,60,5ec56cd8269fcc53a3dfb6c4,,1,0,81,44,1,80
,,,,,,,,,,,,,,,,,,,,,,,,,,,,,,,,,,,,,,,,,n,2.177000046,MOON,FALSE,,,,,,,151,lluna,Catalan,Sounds/cat_lluna.mp3,2020-06-04_21h21.28.217,TranslationElicitation_eng-prolific,3.2.4,MacIntel,60,5ec56cd8269fcc53a3dfb6c4,,1,0,81,44,1,80
,,,,,,,,,,,,,,,,,,,,,,,,,,,,,,,,,,,,,,,,,return,2.532999992,MOON,FALSE,,,,,,,151,lluna,Catalan,Sounds/cat_lluna.mp3,2020-06-04_21h21.28.217,TranslationElicitation_eng-prolific,3.2.4,MacIntel,60,5ec56cd8269fcc53a3dfb6c4,2.532999992,1,0,81,44,1,80
,,,,,,,,,,,,,,,,,,,,,,,,,,,,,,,,,,,,,,,,,,,,,,,,,,,151,lluna,Catalan,Sounds/cat_lluna.mp3,2020-06-04_21h21.28.217,TranslationElicitation_eng-prolific,3.2.4,MacIntel,60,5ec56cd8269fcc53a3dfb6c4,,1,0,81,44,1,80
,,,,,,,,,,,,,,,,,,,,,,,,,,,,,,,,,,,,,,,,,s,2.28399992,S,FALSE,,,,,,,107,amanida,Catalan,Sounds/cat_amanida.mp3,2020-06-04_21h21.28.217,TranslationElicitation_eng-prolific,3.2.4,MacIntel,60,5ec56cd8269fcc53a3dfb6c4,,1,0,81,3,1,80
,,,,,,,,,,,,,,,,,,,,,,,,,,,,,,,,,,,,,,,,,t,2.551999807,ST,FALSE,,,,,,,107,amanida,Catalan,Sounds/cat_amanida.mp3,2020-06-04_21h21.28.217,TranslationElicitation_eng-prolific,3.2.4,MacIntel,60,5ec56cd8269fcc53a3dfb6c4,,1,0,81,3,1,80
,,,,,,,,,,,,,,,,,,,,,,,,,,,,,,,,,,,,,,,,,a,2.758999825,STA,FALSE,,,,,,,107,amanida,Catalan,Sounds/cat_amanida.mp3,2020-06-04_21h21.28.217,TranslationElicitation_eng-prolific,3.2.4,MacIntel,60,5ec56cd8269fcc53a3dfb6c4,,1,0,81,3,1,80
,,,,,,,,,,,,,,,,,,,,,,,,,,,,,,,,,,,,,,,,,r,2.994999886,STAR,FALSE,,,,,,,107,amanida,Catalan,Sounds/cat_amanida.mp3,2020-06-04_21h21.28.217,TranslationElicitation_eng-prolific,3.2.4,MacIntel,60,5ec56cd8269fcc53a3dfb6c4,,1,0,81,3,1,80
,,,,,,,,,,,,,,,,,,,,,,,,,,,,,,,,,,,,,,,,,s,3.129999876,STARS,FALSE,,,,,,,107,amanida,Catalan,Sounds/cat_amanida.mp3,2020-06-04_21h21.28.217,TranslationElicitation_eng-prolific,3.2.4,MacIntel,60,5ec56cd8269fcc53a3dfb6c4,,1,0,81,3,1,80
,,,,,,,,,,,,,,,,,,,,,,,,,,,,,,,,,,,,,,,,,return,3.659999847,STARS,FALSE,,,,,,,107,amanida,Catalan,Sounds/cat_amanida.mp3,2020-06-04_21h21.28.217,TranslationElicitation_eng-prolific,3.2.4,MacIntel,60,5ec56cd8269fcc53a3dfb6c4,3.659999847,1,0,81,3,1,80
,,,,,,,,,,,,,,,,,,,,,,,,,,,,,,,,,,,,,,,,,,,,,,,,,,,107,amanida,Catalan,Sounds/cat_amanida.mp3,2020-06-04_21h21.28.217,TranslationElicitation_eng-prolific,3.2.4,MacIntel,60,5ec56cd8269fcc53a3dfb6c4,,1,0,81,3,1,80
,,,,,,,,,,,,,,,,,,,,,,,,,,,,,,,,,,,,,,,,,c,4.970999956,C,FALSE,,,,,,,139,galleda,Catalan,Sounds/cat_galleda.mp3,2020-06-04_21h21.28.217,TranslationElicitation_eng-prolific,3.2.4,MacIntel,60,5ec56cd8269fcc53a3dfb6c4,,1,0,81,33,1,80
,,,,,,,,,,,,,,,,,,,,,,,,,,,,,,,,,,,,,,,,,l,5.233999968,CL,FALSE,,,,,,,139,galleda,Catalan,Sounds/cat_galleda.mp3,2020-06-04_21h21.28.217,TranslationElicitation_eng-prolific,3.2.4,MacIntel,60,5ec56cd8269fcc53a3dfb6c4,,1,0,81,33,1,80
,,,,,,,,,,,,,,,,,,,,,,,,,,,,,,,,,,,,,,,,,e,5.420000076,CLE,FALSE,,,,,,,139,galleda,Catalan,Sounds/cat_galleda.mp3,2020-06-04_21h21.28.217,TranslationElicitation_eng-prolific,3.2.4,MacIntel,60,5ec56cd8269fcc53a3dfb6c4,,1,0,81,33,1,80
,,,,,,,,,,,,,,,,,,,,,,,,,,,,,,,,,,,,,,,,,v,5.59800005,CLEV,FALSE,,,,,,,139,galleda,Catalan,Sounds/cat_galleda.mp3,2020-06-04_21h21.28.217,TranslationElicitation_eng-prolific,3.2.4,MacIntel,60,5ec56cd8269fcc53a3dfb6c4,,1,0,81,33,1,80
,,,,,,,,,,,,,,,,,,,,,,,,,,,,,,,,,,,,,,,,,e,5.788000107,CLEVE,FALSE,,,,,,,139,galleda,Catalan,Sounds/cat_galleda.mp3,2020-06-04_21h21.28.217,TranslationElicitation_eng-prolific,3.2.4,MacIntel,60,5ec56cd8269fcc53a3dfb6c4,,1,0,81,33,1,80
,,,,,,,,,,,,,,,,,,,,,,,,,,,,,,,,,,,,,,,,,r,5.865999937,CLEVER,FALSE,,,,,,,139,galleda,Catalan,Sounds/cat_galleda.mp3,2020-06-04_21h21.28.217,TranslationElicitation_eng-prolific,3.2.4,MacIntel,60,5ec56cd8269fcc53a3dfb6c4,,1,0,81,33,1,80
,,,,,,,,,,,,,,,,,,,,,,,,,,,,,,,,,,,,,,,,,return,6.227999926,CLEVER,FALSE,,,,,,,139,galleda,Catalan,Sounds/cat_galleda.mp3,2020-06-04_21h21.28.217,TranslationElicitation_eng-prolific,3.2.4,MacIntel,60,5ec56cd8269fcc53a3dfb6c4,6.227999926,1,0,81,33,1,80
,,,,,,,,,,,,,,,,,,,,,,,,,,,,,,,,,,,,,,,,,,,,,,,,,,,139,galleda,Catalan,Sounds/cat_galleda.mp3,2020-06-04_21h21.28.217,TranslationElicitation_eng-prolific,3.2.4,MacIntel,60,5ec56cd8269fcc53a3dfb6c4,,1,0,81,33,1,80
,,,,,,,,,,,,,,,,,,,,,,,,,,,,,,,,,,,,,,,,,o,9.181999922,O,FALSE,,,,,,,155,moneda,Catalan,Sounds/cat_moneda.mp3,2020-06-04_21h21.28.217,TranslationElicitation_eng-prolific,3.2.4,MacIntel,60,5ec56cd8269fcc53a3dfb6c4,,1,0,81,48,1,80
,,,,,,,,,,,,,,,,,,,,,,,,,,,,,,,,,,,,,,,,,v,9.269000053,OV,FALSE,,,,,,,155,moneda,Catalan,Sounds/cat_moneda.mp3,2020-06-04_21h21.28.217,TranslationElicitation_eng-prolific,3.2.4,MacIntel,60,5ec56cd8269fcc53a3dfb6c4,,1,0,81,48,1,80
,,,,,,,,,,,,,,,,,,,,,,,,,,,,,,,,,,,,,,,,,e,9.503000021,OVE,FALSE,,,,,,,155,moneda,Catalan,Sounds/cat_moneda.mp3,2020-06-04_21h21.28.217,TranslationElicitation_eng-prolific,3.2.4,MacIntel,60,5ec56cd8269fcc53a3dfb6c4,,1,0,81,48,1,80
,,,,,,,,,,,,,,,,,,,,,,,,,,,,,,,,,,,,,,,,,r,9.868000031,OVER,FALSE,,,,,,,155,moneda,Catalan,Sounds/cat_moneda.mp3,2020-06-04_21h21.28.217,TranslationElicitation_eng-prolific,3.2.4,MacIntel,60,5ec56cd8269fcc53a3dfb6c4,,1,0,81,48,1,80
,,,,,,,,,,,,,,,,,,,,,,,,,,,,,,,,,,,,,,,,,return,10.26100016,OVER,FALSE,,,,,,,155,moneda,Catalan,Sounds/cat_moneda.mp3,2020-06-04_21h21.28.217,TranslationElicitation_eng-prolific,3.2.4,MacIntel,60,5ec56cd8269fcc53a3dfb6c4,10.26100016,1,0,81,48,1,80
,,,,,,,,,,,,,,,,,,,,,,,,,,,,,,,,,,,,,,,,,,,,,,,,,,,155,moneda,Catalan,Sounds/cat_moneda.mp3,2020-06-04_21h21.28.217,TranslationElicitation_eng-prolific,3.2.4,MacIntel,60,5ec56cd8269fcc53a3dfb6c4,,1,0,81,48,1,80
,,,,,,,,,,,,,,,,,,,,,,,,,,,,,,,,,,,,,,,,,b,1.834000111,B,FALSE,,,,,,,167,pingui,Catalan,Sounds/cat_pingui.mp3,2020-06-04_21h21.28.217,TranslationElicitation_eng-prolific,3.2.4,MacIntel,60,5ec56cd8269fcc53a3dfb6c4,,1,0,81,59,1,80
,,,,,,,,,,,,,,,,,,,,,,,,,,,,,,,,,,,,,,,,,i,2.334000111,BI,FALSE,,,,,,,167,pingui,Catalan,Sounds/cat_pingui.mp3,2020-06-04_21h21.28.217,TranslationElicitation_eng-prolific,3.2.4,MacIntel,60,5ec56cd8269fcc53a3dfb6c4,,1,0,81,59,1,80
,,,,,,,,,,,,,,,,,,,,,,,,,,,,,,,,,,,,,,,,,n,2.512000084,BIN,FALSE,,,,,,,167,pingui,Catalan,Sounds/cat_pingui.mp3,2020-06-04_21h21.28.217,TranslationElicitation_eng-prolific,3.2.4,MacIntel,60,5ec56cd8269fcc53a3dfb6c4,,1,0,81,59,1,80
,,,,,,,,,,,,,,,,,,,,,,,,,,,,,,,,,,,,,,,,,g,2.750999928,BING,FALSE,,,,,,,167,pingui,Catalan,Sounds/cat_pingui.mp3,2020-06-04_21h21.28.217,TranslationElicitation_eng-prolific,3.2.4,MacIntel,60,5ec56cd8269fcc53a3dfb6c4,,1,0,81,59,1,80
,,,,,,,,,,,,,,,,,,,,,,,,,,,,,,,,,,,,,,,,,o,3.063999891,BINGO,FALSE,,,,,,,167,pingui,Catalan,Sounds/cat_pingui.mp3,2020-06-04_21h21.28.217,TranslationElicitation_eng-prolific,3.2.4,MacIntel,60,5ec56cd8269fcc53a3dfb6c4,,1,0,81,59,1,80
,,,,,,,,,,,,,,,,,,,,,,,,,,,,,,,,,,,,,,,,,return,3.592000008,BINGO,FALSE,,,,,,,167,pingui,Catalan,Sounds/cat_pingui.mp3,2020-06-04_21h21.28.217,TranslationElicitation_eng-prolific,3.2.4,MacIntel,60,5ec56cd8269fcc53a3dfb6c4,3.592000008,1,0,81,59,1,80
,,,,,,,,,,,,,,,,,,,,,,,,,,,,,,,,,,,,,,,,,,,,,,,,,,,167,pingui,Catalan,Sounds/cat_pingui.mp3,2020-06-04_21h21.28.217,TranslationElicitation_eng-prolific,3.2.4,MacIntel,60,5ec56cd8269fcc53a3dfb6c4,,1,0,81,59,1,80
,,,,,,,,,,,,,,,,,,,,,,,,,,,,,,,,,,,,,,,,,c,2.130000114,C,FALSE,,,,,,,138,galeta,Catalan,Sounds/cat_galeta.mp3,2020-06-04_21h21.28.217,TranslationElicitation_eng-prolific,3.2.4,MacIntel,60,5ec56cd8269fcc53a3dfb6c4,,1,0,81,32,1,80
,,,,,,,,,,,,,,,,,,,,,,,,,,,,,,,,,,,,,,,,,o,2.245000124,CO,FALSE,,,,,,,138,galeta,Catalan,Sounds/cat_galeta.mp3,2020-06-04_21h21.28.217,TranslationElicitation_eng-prolific,3.2.4,MacIntel,60,5ec56cd8269fcc53a3dfb6c4,,1,0,81,32,1,80
,,,,,,,,,,,,,,,,,,,,,,,,,,,,,,,,,,,,,,,,,l,2.414000034,COL,FALSE,,,,,,,138,galeta,Catalan,Sounds/cat_galeta.mp3,2020-06-04_21h21.28.217,TranslationElicitation_eng-prolific,3.2.4,MacIntel,60,5ec56cd8269fcc53a3dfb6c4,,1,0,81,32,1,80
,,,,,,,,,,,,,,,,,,,,,,,,,,,,,,,,,,,,,,,,,l,2.54700017,COLL,FALSE,,,,,,,138,galeta,Catalan,Sounds/cat_galeta.mp3,2020-06-04_21h21.28.217,TranslationElicitation_eng-prolific,3.2.4,MacIntel,60,5ec56cd8269fcc53a3dfb6c4,,1,0,81,32,1,80
,,,,,,,,,,,,,,,,,,,,,,,,,,,,,,,,,,,,,,,,,e,2.647000074,COLLE,FALSE,,,,,,,138,galeta,Catalan,Sounds/cat_galeta.mp3,2020-06-04_21h21.28.217,TranslationElicitation_eng-prolific,3.2.4,MacIntel,60,5ec56cd8269fcc53a3dfb6c4,,1,0,81,32,1,80
,,,,,,,,,,,,,,,,,,,,,,,,,,,,,,,,,,,,,,,,,c,2.700999975,COLLEC,FALSE,,,,,,,138,galeta,Catalan,Sounds/cat_galeta.mp3,2020-06-04_21h21.28.217,TranslationElicitation_eng-prolific,3.2.4,MacIntel,60,5ec56cd8269fcc53a3dfb6c4,,1,0,81,32,1,80
,,,,,,,,,,,,,,,,,,,,,,,,,,,,,,,,,,,,,,,,,t,2.876000166,COLLECT,FALSE,,,,,,,138,galeta,Catalan,Sounds/cat_galeta.mp3,2020-06-04_21h21.28.217,TranslationElicitation_eng-prolific,3.2.4,MacIntel,60,5ec56cd8269fcc53a3dfb6c4,,1,0,81,32,1,80
,,,,,,,,,,,,,,,,,,,,,,,,,,,,,,,,,,,,,,,,,return,3.142000198,COLLECT,FALSE,,,,,,,138,galeta,Catalan,Sounds/cat_galeta.mp3,2020-06-04_21h21.28.217,TranslationElicitation_eng-prolific,3.2.4,MacIntel,60,5ec56cd8269fcc53a3dfb6c4,3.142000198,1,0,81,32,1,80
,,,,,,,,,,,,,,,,,,,,,,,,,,,,,,,,,,,,,,,,,,,,,,,,,,,138,galeta,Catalan,Sounds/cat_galeta.mp3,2020-06-04_21h21.28.217,TranslationElicitation_eng-prolific,3.2.4,MacIntel,60,5ec56cd8269fcc53a3dfb6c4,,1,0,81,32,1,80
,,,,,,,,,,,,,,,,,,,,,,,,,,,,,,,,,,,,,,,,,p,4.430000067,P,FALSE,,,,,,,165,pernil,Catalan,Sounds/cat_pernil.mp3,2020-06-04_21h21.28.217,TranslationElicitation_eng-prolific,3.2.4,MacIntel,60,5ec56cd8269fcc53a3dfb6c4,,1,0,81,57,1,80
,,,,,,,,,,,,,,,,,,,,,,,,,,,,,,,,,,,,,,,,,a,4.56400013,PA,FALSE,,,,,,,165,pernil,Catalan,Sounds/cat_pernil.mp3,2020-06-04_21h21.28.217,TranslationElicitation_eng-prolific,3.2.4,MacIntel,60,5ec56cd8269fcc53a3dfb6c4,,1,0,81,57,1,80
,,,,,,,,,,,,,,,,,,,,,,,,,,,,,,,,,,,,,,,,,r,4.751000166,PAR,FALSE,,,,,,,165,pernil,Catalan,Sounds/cat_pernil.mp3,2020-06-04_21h21.28.217,TranslationElicitation_eng-prolific,3.2.4,MacIntel,60,5ec56cd8269fcc53a3dfb6c4,,1,0,81,57,1,80
,,,,,,,,,,,,,,,,,,,,,,,,,,,,,,,,,,,,,,,,,r,4.929000139,PARR,FALSE,,,,,,,165,pernil,Catalan,Sounds/cat_pernil.mp3,2020-06-04_21h21.28.217,TranslationElicitation_eng-prolific,3.2.4,MacIntel,60,5ec56cd8269fcc53a3dfb6c4,,1,0,81,57,1,80
,,,,,,,,,,,,,,,,,,,,,,,,,,,,,,,,,,,,,,,,,o,5.018000126,PARRO,FALSE,,,,,,,165,pernil,Catalan,Sounds/cat_pernil.mp3,2020-06-04_21h21.28.217,TranslationElicitation_eng-prolific,3.2.4,MacIntel,60,5ec56cd8269fcc53a3dfb6c4,,1,0,81,57,1,80
,,,,,,,,,,,,,,,,,,,,,,,,,,,,,,,,,,,,,,,,,t,5.146000147,PARROT,FALSE,,,,,,,165,pernil,Catalan,Sounds/cat_pernil.mp3,2020-06-04_21h21.28.217,TranslationElicitation_eng-prolific,3.2.4,MacIntel,60,5ec56cd8269fcc53a3dfb6c4,,1,0,81,57,1,80
,,,,,,,,,,,,,,,,,,,,,,,,,,,,,,,,,,,,,,,,,return,5.435000181,PARROT,FALSE,,,,,,,165,pernil,Catalan,Sounds/cat_pernil.mp3,2020-06-04_21h21.28.217,TranslationElicitation_eng-prolific,3.2.4,MacIntel,60,5ec56cd8269fcc53a3dfb6c4,5.435000181,1,0,81,57,1,80
,,,,,,,,,,,,,,,,,,,,,,,,,,,,,,,,,,,,,,,,,,,,,,,,,,,165,pernil,Catalan,Sounds/cat_pernil.mp3,2020-06-04_21h21.28.217,TranslationElicitation_eng-prolific,3.2.4,MacIntel,60,5ec56cd8269fcc53a3dfb6c4,,1,0,81,57,1,80
,,,,,,,,,,,,,,,,,,,,,,,,,,,,,,,,,,,,,,,,,w,2.268000126,W,FALSE,,,,,,,105,aigua,Catalan,Sounds/cat_aigua.mp3,2020-06-04_21h21.28.217,TranslationElicitation_eng-prolific,3.2.4,MacIntel,60,5ec56cd8269fcc53a3dfb6c4,,1,0,81,1,1,80
,,,,,,,,,,,,,,,,,,,,,,,,,,,,,,,,,,,,,,,,,a,2.461000204,WA,FALSE,,,,,,,105,aigua,Catalan,Sounds/cat_aigua.mp3,2020-06-04_21h21.28.217,TranslationElicitation_eng-prolific,3.2.4,MacIntel,60,5ec56cd8269fcc53a3dfb6c4,,1,0,81,1,1,80
