consentKey.keys,consentKey.rt,languageL1Key.keys,languageL1Key.rt,languageL2,languageL2OralKey.keys,languageL2OralKey.rt,languageL2WrittenKey.keys,languageL2WrittenKey.rt,languageL3,languageL3OralKey.keys,languageL3OralKey.rt,languageL3WrittenKey.keys,languageL3WrittenKey.rt,languageCatalanOralKey.keys,languageCatalanOralKey.rt,languageCatalanWrittenKey.keys,languageCatalanWrittenKey.rt,languageCatalanTimeKey.keys,languageCatalanTimeKey.rt,languageSpanishOralKey.keys,languageSpanishOralKey.rt,languageSpanishWrittenKey.keys,languageSpanishWrittenKey.rt,languageSpanishTimeKey.keys,languageSpanishTimeKey.rt,age,demoSexKey.keys,demoSexKey.rt,demoEducationKey.keys,demoEducationKey.rt,city,demoVisionKey.keys,demoVisionKey.rt,demoLanguageKey.keys,demoLanguageKey.rt,setupLocationKey.keys,setupLocationKey.rt,setupNoiseKey.keys,setupNoiseKey.rt,instructionsKeys.keys,instructionsKeys.rt,keyPressed,keyPressTime,inputText,error,trialsPracticeCatalan.thisRepN,trialsPracticeCatalan.thisTrialN,trialsPracticeCatalan.thisN,trialsPracticeCatalan.thisIndex,trialsPracticeCatalan.ran,trialsPracticeCatalan.order,trial_id,word,test_language,soundfile,date,expName,psychopyVersion,OS,frameRate,participant,trialOffset,trialsCatalan.thisRepN,trialsCatalan.thisTrialN,trialsCatalan.thisN,trialsCatalan.thisIndex,trialsCatalan.ran,trialsCatalan.order
space,0.190999985,e,1.097000122, ,1,1.099999905,2,0.165999889,,,,,,1,0.877000093,2,0.177999973,1,0.15199995,1,0.217000008,2,0.107000113,1,0.10800004,18,m,1.287999868,2,1.271000147,LONDON,y,1.582999945,n,2.055999994,1,1.513000011,1,0.763000011,space,0.990999937,h,1.498000145,H,FALSE,1,0,5,0,1,4,109,arbre,Catalan,Sounds/cat_arbre.mp3,2020-06-12_20h53.05.746,TranslationElicitation_eng-prolific,3.2.4,Win32,60,5ec54a7637927134ac7d3dc3,,,,,,,
,,,,,,,,,,,,,,,,,,,,,,,,,,,,,,,,,,,,,,,,,,a,1.820000172,HA,FALSE,1,0,5,0,1,4,109,arbre,Catalan,Sounds/cat_arbre.mp3,2020-06-12_20h53.05.746,TranslationElicitation_eng-prolific,3.2.4,Win32,60,5ec54a7637927134ac7d3dc3,,,,,,,
,,,,,,,,,,,,,,,,,,,,,,,,,,,,,,,,,,,,,,,,,,b,2.251000166,HAB,FALSE,1,0,5,0,1,4,109,arbre,Catalan,Sounds/cat_arbre.mp3,2020-06-12_20h53.05.746,TranslationElicitation_eng-prolific,3.2.4,Win32,60,5ec54a7637927134ac7d3dc3,,,,,,,
,,,,,,,,,,,,,,,,,,,,,,,,,,,,,,,,,,,,,,,,,,r,2.59100008,HABR,FALSE,1,0,5,0,1,4,109,arbre,Catalan,Sounds/cat_arbre.mp3,2020-06-12_20h53.05.746,TranslationElicitation_eng-prolific,3.2.4,Win32,60,5ec54a7637927134ac7d3dc3,,,,,,,
,,,,,,,,,,,,,,,,,,,,,,,,,,,,,,,,,,,,,,,,,,e,2.764000177,HABRE,FALSE,1,0,5,0,1,4,109,arbre,Catalan,Sounds/cat_arbre.mp3,2020-06-12_20h53.05.746,TranslationElicitation_eng-prolific,3.2.4,Win32,60,5ec54a7637927134ac7d3dc3,,,,,,,
,,,,,,,,,,,,,,,,,,,,,,,,,,,,,,,,,,,,,,,,,,return,2.861999989,HABRE,FALSE,1,0,5,0,1,4,109,arbre,Catalan,Sounds/cat_arbre.mp3,2020-06-12_20h53.05.746,TranslationElicitation_eng-prolific,3.2.4,Win32,60,5ec54a7637927134ac7d3dc3,2.861999989,,,,,,
,,,,,,,,,,,,,,,,,,,,,,,,,,,,,,,,,,,,,,,,,,,,,,1,0,5,0,1,4,109,arbre,Catalan,Sounds/cat_arbre.mp3,2020-06-12_20h53.05.746,TranslationElicitation_eng-prolific,3.2.4,Win32,60,5ec54a7637927134ac7d3dc3,,,,,,,
,,,,,,,,,,,,,,,,,,,,,,,,,,,,,,,,,,,,,,,,,,s,2.812999964,S,FALSE,1,0,5,2,1,4,147,jaqueta,Catalan,Sounds/cat_jaqueta.mp3,2020-06-12_20h53.05.746,TranslationElicitation_eng-prolific,3.2.4,Win32,60,5ec54a7637927134ac7d3dc3,,,,,,,
,,,,,,,,,,,,,,,,,,,,,,,,,,,,,,,,,,,,,,,,,,e,3.062999964,SE,FALSE,1,0,5,2,1,4,147,jaqueta,Catalan,Sounds/cat_jaqueta.mp3,2020-06-12_20h53.05.746,TranslationElicitation_eng-prolific,3.2.4,Win32,60,5ec54a7637927134ac7d3dc3,,,,,,,
,,,,,,,,,,,,,,,,,,,,,,,,,,,,,,,,,,,,,,,,,,c,3.312999964,SEC,FALSE,1,0,5,2,1,4,147,jaqueta,Catalan,Sounds/cat_jaqueta.mp3,2020-06-12_20h53.05.746,TranslationElicitation_eng-prolific,3.2.4,Win32,60,5ec54a7637927134ac7d3dc3,,,,,,,
,,,,,,,,,,,,,,,,,,,,,,,,,,,,,,,,,,,,,,,,,,e,3.549000025,SECE,FALSE,1,0,5,2,1,4,147,jaqueta,Catalan,Sounds/cat_jaqueta.mp3,2020-06-12_20h53.05.746,TranslationElicitation_eng-prolific,3.2.4,Win32,60,5ec54a7637927134ac7d3dc3,,,,,,,
,,,,,,,,,,,,,,,,,,,,,,,,,,,,,,,,,,,,,,,,,,t,3.826999903,SECET,FALSE,1,0,5,2,1,4,147,jaqueta,Catalan,Sounds/cat_jaqueta.mp3,2020-06-12_20h53.05.746,TranslationElicitation_eng-prolific,3.2.4,Win32,60,5ec54a7637927134ac7d3dc3,,,,,,,
,,,,,,,,,,,,,,,,,,,,,,,,,,,,,,,,,,,,,,,,,,a,4.092000008,SECETA,FALSE,1,0,5,2,1,4,147,jaqueta,Catalan,Sounds/cat_jaqueta.mp3,2020-06-12_20h53.05.746,TranslationElicitation_eng-prolific,3.2.4,Win32,60,5ec54a7637927134ac7d3dc3,,,,,,,
,,,,,,,,,,,,,,,,,,,,,,,,,,,,,,,,,,,,,,,,,,return,4.278000116,SECETA,FALSE,1,0,5,2,1,4,147,jaqueta,Catalan,Sounds/cat_jaqueta.mp3,2020-06-12_20h53.05.746,TranslationElicitation_eng-prolific,3.2.4,Win32,60,5ec54a7637927134ac7d3dc3,4.278000116,,,,,,
,,,,,,,,,,,,,,,,,,,,,,,,,,,,,,,,,,,,,,,,,,,,,,1,0,5,2,1,4,147,jaqueta,Catalan,Sounds/cat_jaqueta.mp3,2020-06-12_20h53.05.746,TranslationElicitation_eng-prolific,3.2.4,Win32,60,5ec54a7637927134ac7d3dc3,,,,,,,
,,,,,,,,,,,,,,,,,,,,,,,,,,,,,,,,,,,,,,,,,,o,1.138000011,O,FALSE,1,0,5,1,1,4,126,corona,Catalan,Sounds/cat_corona.mp3,2020-06-12_20h53.05.746,TranslationElicitation_eng-prolific,3.2.4,Win32,60,5ec54a7637927134ac7d3dc3,,,,,,,
,,,,,,,,,,,,,,,,,,,,,,,,,,,,,,,,,,,,,,,,,,backspace,1.652000189,,TRUE,1,0,5,1,1,4,126,corona,Catalan,Sounds/cat_corona.mp3,2020-06-12_20h53.05.746,TranslationElicitation_eng-prolific,3.2.4,Win32,60,5ec54a7637927134ac7d3dc3,,,,,,,
,,,,,,,,,,,,,,,,,,,,,,,,,,,,,,,,,,,,,,,,,,c,1.769999981,C,TRUE,1,0,5,1,1,4,126,corona,Catalan,Sounds/cat_corona.mp3,2020-06-12_20h53.05.746,TranslationElicitation_eng-prolific,3.2.4,Win32,60,5ec54a7637927134ac7d3dc3,,,,,,,
,,,,,,,,,,,,,,,,,,,,,,,,,,,,,,,,,,,,,,,,,,o,1.944000006,CO,TRUE,1,0,5,1,1,4,126,corona,Catalan,Sounds/cat_corona.mp3,2020-06-12_20h53.05.746,TranslationElicitation_eng-prolific,3.2.4,Win32,60,5ec54a7637927134ac7d3dc3,,,,,,,
,,,,,,,,,,,,,,,,,,,,,,,,,,,,,,,,,,,,,,,,,,r,2.048000097,COR,TRUE,1,0,5,1,1,4,126,corona,Catalan,Sounds/cat_corona.mp3,2020-06-12_20h53.05.746,TranslationElicitation_eng-prolific,3.2.4,Win32,60,5ec54a7637927134ac7d3dc3,,,,,,,
,,,,,,,,,,,,,,,,,,,,,,,,,,,,,,,,,,,,,,,,,,o,2.607000113,CORO,TRUE,1,0,5,1,1,4,126,corona,Catalan,Sounds/cat_corona.mp3,2020-06-12_20h53.05.746,TranslationElicitation_eng-prolific,3.2.4,Win32,60,5ec54a7637927134ac7d3dc3,,,,,,,
,,,,,,,,,,,,,,,,,,,,,,,,,,,,,,,,,,,,,,,,,,n,2.876000166,CORON,TRUE,1,0,5,1,1,4,126,corona,Catalan,Sounds/cat_corona.mp3,2020-06-12_20h53.05.746,TranslationElicitation_eng-prolific,3.2.4,Win32,60,5ec54a7637927134ac7d3dc3,,,,,,,
,,,,,,,,,,,,,,,,,,,,,,,,,,,,,,,,,,,,,,,,,,a,3.021000147,CORONA,TRUE,1,0,5,1,1,4,126,corona,Catalan,Sounds/cat_corona.mp3,2020-06-12_20h53.05.746,TranslationElicitation_eng-prolific,3.2.4,Win32,60,5ec54a7637927134ac7d3dc3,,,,,,,
,,,,,,,,,,,,,,,,,,,,,,,,,,,,,,,,,,,,,,,,,,return,3.174000025,CORONA,TRUE,1,0,5,1,1,4,126,corona,Catalan,Sounds/cat_corona.mp3,2020-06-12_20h53.05.746,TranslationElicitation_eng-prolific,3.2.4,Win32,60,5ec54a7637927134ac7d3dc3,3.174000025,,,,,,
,,,,,,,,,,,,,,,,,,,,,,,,,,,,,,,,,,,,,,,,,,,,,,1,0,5,1,1,4,126,corona,Catalan,Sounds/cat_corona.mp3,2020-06-12_20h53.05.746,TranslationElicitation_eng-prolific,3.2.4,Win32,60,5ec54a7637927134ac7d3dc3,,,,,,,
,,,,,,,,,,,,,,,,,,,,,,,,,,,,,,,,,,,,,,,,,,t,2.118000031,T,FALSE,1,0,5,4,1,4,179,tigre,Catalan,Sounds/cat_tigre.mp3,2020-06-12_20h53.05.746,TranslationElicitation_eng-prolific,3.2.4,Win32,60,5ec54a7637927134ac7d3dc3,,,,,,,
,,,,,,,,,,,,,,,,,,,,,,,,,,,,,,,,,,,,,,,,,,e,2.368000031,TE,FALSE,1,0,5,4,1,4,179,tigre,Catalan,Sounds/cat_tigre.mp3,2020-06-12_20h53.05.746,TranslationElicitation_eng-prolific,3.2.4,Win32,60,5ec54a7637927134ac7d3dc3,,,,,,,
,,,,,,,,,,,,,,,,,,,,,,,,,,,,,,,,,,,,,,,,,,e,2.521000147,TEE,FALSE,1,0,5,4,1,4,179,tigre,Catalan,Sounds/cat_tigre.mp3,2020-06-12_20h53.05.746,TranslationElicitation_eng-prolific,3.2.4,Win32,60,5ec54a7637927134ac7d3dc3,,,,,,,
,,,,,,,,,,,,,,,,,,,,,,,,,,,,,,,,,,,,,,,,,,g,2.736000061,TEEG,FALSE,1,0,5,4,1,4,179,tigre,Catalan,Sounds/cat_tigre.mp3,2020-06-12_20h53.05.746,TranslationElicitation_eng-prolific,3.2.4,Win32,60,5ec54a7637927134ac7d3dc3,,,,,,,
,,,,,,,,,,,,,,,,,,,,,,,,,,,,,,,,,,,,,,,,,,r,2.937000036,TEEGR,FALSE,1,0,5,4,1,4,179,tigre,Catalan,Sounds/cat_tigre.mp3,2020-06-12_20h53.05.746,TranslationElicitation_eng-prolific,3.2.4,Win32,60,5ec54a7637927134ac7d3dc3,,,,,,,
,,,,,,,,,,,,,,,,,,,,,,,,,,,,,,,,,,,,,,,,,,a,3.166000128,TEEGRA,FALSE,1,0,5,4,1,4,179,tigre,Catalan,Sounds/cat_tigre.mp3,2020-06-12_20h53.05.746,TranslationElicitation_eng-prolific,3.2.4,Win32,60,5ec54a7637927134ac7d3dc3,,,,,,,
,,,,,,,,,,,,,,,,,,,,,,,,,,,,,,,,,,,,,,,,,,return,3.319000006,TEEGRA,FALSE,1,0,5,4,1,4,179,tigre,Catalan,Sounds/cat_tigre.mp3,2020-06-12_20h53.05.746,TranslationElicitation_eng-prolific,3.2.4,Win32,60,5ec54a7637927134ac7d3dc3,3.319000006,,,,,,
,,,,,,,,,,,,,,,,,,,,,,,,,,,,,,,,,,,,,,,,,,,,,,1,0,5,4,1,4,179,tigre,Catalan,Sounds/cat_tigre.mp3,2020-06-12_20h53.05.746,TranslationElicitation_eng-prolific,3.2.4,Win32,60,5ec54a7637927134ac7d3dc3,,,,,,,
,,,,,,,,,,,,,,,,,,,,,,,,,,,,,,,,,,,,,,,,,,u,1.472000122,U,FALSE,1,0,5,3,1,4,159,onada,Catalan,Sounds/cat_onada.mp3,2020-06-12_20h53.05.746,TranslationElicitation_eng-prolific,3.2.4,Win32,60,5ec54a7637927134ac7d3dc3,,,,,,,
,,,,,,,,,,,,,,,,,,,,,,,,,,,,,,,,,,,,,,,,,,m,1.930999994,UM,FALSE,1,0,5,3,1,4,159,onada,Catalan,Sounds/cat_onada.mp3,2020-06-12_20h53.05.746,TranslationElicitation_eng-prolific,3.2.4,Win32,60,5ec54a7637927134ac7d3dc3,,,,,,,
,,,,,,,,,,,,,,,,,,,,,,,,,,,,,,,,,,,,,,,,,,a,2.312999964,UMA,FALSE,1,0,5,3,1,4,159,onada,Catalan,Sounds/cat_onada.mp3,2020-06-12_20h53.05.746,TranslationElicitation_eng-prolific,3.2.4,Win32,60,5ec54a7637927134ac7d3dc3,,,,,,,
,,,,,,,,,,,,,,,,,,,,,,,,,,,,,,,,,,,,,,,,,,backspace,2.680999994,UM,TRUE,1,0,5,3,1,4,159,onada,Catalan,Sounds/cat_onada.mp3,2020-06-12_20h53.05.746,TranslationElicitation_eng-prolific,3.2.4,Win32,60,5ec54a7637927134ac7d3dc3,,,,,,,
,,,,,,,,,,,,,,,,,,,,,,,,,,,,,,,,,,,,,,,,,,backspace,2.84100008,U,TRUE,1,0,5,3,1,4,159,onada,Catalan,Sounds/cat_onada.mp3,2020-06-12_20h53.05.746,TranslationElicitation_eng-prolific,3.2.4,Win32,60,5ec54a7637927134ac7d3dc3,,,,,,,
,,,,,,,,,,,,,,,,,,,,,,,,,,,,,,,,,,,,,,,,,,n,3.660000086,UN,TRUE,1,0,5,3,1,4,159,onada,Catalan,Sounds/cat_onada.mp3,2020-06-12_20h53.05.746,TranslationElicitation_eng-prolific,3.2.4,Win32,60,5ec54a7637927134ac7d3dc3,,,,,,,
,,,,,,,,,,,,,,,,,,,,,,,,,,,,,,,,,,,,,,,,,,a,4.006000042,UNA,TRUE,1,0,5,3,1,4,159,onada,Catalan,Sounds/cat_onada.mp3,2020-06-12_20h53.05.746,TranslationElicitation_eng-prolific,3.2.4,Win32,60,5ec54a7637927134ac7d3dc3,,,,,,,
,,,,,,,,,,,,,,,,,,,,,,,,,,,,,,,,,,,,,,,,,,d,4.631999969,UNAD,TRUE,1,0,5,3,1,4,159,onada,Catalan,Sounds/cat_onada.mp3,2020-06-12_20h53.05.746,TranslationElicitation_eng-prolific,3.2.4,Win32,60,5ec54a7637927134ac7d3dc3,,,,,,,
,,,,,,,,,,,,,,,,,,,,,,,,,,,,,,,,,,,,,,,,,,a,4.881999969,UNADA,TRUE,1,0,5,3,1,4,159,onada,Catalan,Sounds/cat_onada.mp3,2020-06-12_20h53.05.746,TranslationElicitation_eng-prolific,3.2.4,Win32,60,5ec54a7637927134ac7d3dc3,,,,,,,
,,,,,,,,,,,,,,,,,,,,,,,,,,,,,,,,,,,,,,,,,,return,5.007999897,UNADA,TRUE,1,0,5,3,1,4,159,onada,Catalan,Sounds/cat_onada.mp3,2020-06-12_20h53.05.746,TranslationElicitation_eng-prolific,3.2.4,Win32,60,5ec54a7637927134ac7d3dc3,5.007999897,,,,,,
,,,,,,,,,,,,,,,,,,,,,,,,,,,,,,,,,,,,,,,,,,,,,,1,0,5,3,1,4,159,onada,Catalan,Sounds/cat_onada.mp3,2020-06-12_20h53.05.746,TranslationElicitation_eng-prolific,3.2.4,Win32,60,5ec54a7637927134ac7d3dc3,,,,,,,
,,,,,,,,,,,,,,,,,,,,,,,,,,,,,,,,,,,,,,,,,,f,1.547999859,F,FALSE,,,,,,,135,formiga,Catalan,Sounds/cat_formiga.mp3,2020-06-12_20h53.05.746,TranslationElicitation_eng-prolific,3.2.4,Win32,60,5ec54a7637927134ac7d3dc3,,1,0,81,29,1,80
,,,,,,,,,,,,,,,,,,,,,,,,,,,,,,,,,,,,,,,,,,o,1.728999853,FO,FALSE,,,,,,,135,formiga,Catalan,Sounds/cat_formiga.mp3,2020-06-12_20h53.05.746,TranslationElicitation_eng-prolific,3.2.4,Win32,60,5ec54a7637927134ac7d3dc3,,1,0,81,29,1,80
,,,,,,,,,,,,,,,,,,,,,,,,,,,,,,,,,,,,,,,,,,r,1.860999823,FOR,FALSE,,,,,,,135,formiga,Catalan,Sounds/cat_formiga.mp3,2020-06-12_20h53.05.746,TranslationElicitation_eng-prolific,3.2.4,Win32,60,5ec54a7637927134ac7d3dc3,,1,0,81,29,1,80
,,,,,,,,,,,,,,,,,,,,,,,,,,,,,,,,,,,,,,,,,,m,2.311999798,FORM,FALSE,,,,,,,135,formiga,Catalan,Sounds/cat_formiga.mp3,2020-06-12_20h53.05.746,TranslationElicitation_eng-prolific,3.2.4,Win32,60,5ec54a7637927134ac7d3dc3,,1,0,81,29,1,80
,,,,,,,,,,,,,,,,,,,,,,,,,,,,,,,,,,,,,,,,,,i,2.700999975,FORMI,FALSE,,,,,,,135,formiga,Catalan,Sounds/cat_formiga.mp3,2020-06-12_20h53.05.746,TranslationElicitation_eng-prolific,3.2.4,Win32,60,5ec54a7637927134ac7d3dc3,,1,0,81,29,1,80
,,,,,,,,,,,,,,,,,,,,,,,,,,,,,,,,,,,,,,,,,,o,2.728999853,FORMIO,FALSE,,,,,,,135,formiga,Catalan,Sounds/cat_formiga.mp3,2020-06-12_20h53.05.746,TranslationElicitation_eng-prolific,3.2.4,Win32,60,5ec54a7637927134ac7d3dc3,,1,0,81,29,1,80
,,,,,,,,,,,,,,,,,,,,,,,,,,,,,,,,,,,,,,,,,,backspace,3.040999889,FORMI,TRUE,,,,,,,135,formiga,Catalan,Sounds/cat_formiga.mp3,2020-06-12_20h53.05.746,TranslationElicitation_eng-prolific,3.2.4,Win32,60,5ec54a7637927134ac7d3dc3,,1,0,81,29,1,80
,,,,,,,,,,,,,,,,,,,,,,,,,,,,,,,,,,,,,,,,,,g,3.27699995,FORMIG,TRUE,,,,,,,135,formiga,Catalan,Sounds/cat_formiga.mp3,2020-06-12_20h53.05.746,TranslationElicitation_eng-prolific,3.2.4,Win32,60,5ec54a7637927134ac7d3dc3,,1,0,81,29,1,80
,,,,,,,,,,,,,,,,,,,,,,,,,,,,,,,,,,,,,,,,,,a,3.56099987,FORMIGA,TRUE,,,,,,,135,formiga,Catalan,Sounds/cat_formiga.mp3,2020-06-12_20h53.05.746,TranslationElicitation_eng-prolific,3.2.4,Win32,60,5ec54a7637927134ac7d3dc3,,1,0,81,29,1,80
,,,,,,,,,,,,,,,,,,,,,,,,,,,,,,,,,,,,,,,,,,return,3.68599987,FORMIGA,TRUE,,,,,,,135,formiga,Catalan,Sounds/cat_formiga.mp3,2020-06-12_20h53.05.746,TranslationElicitation_eng-prolific,3.2.4,Win32,60,5ec54a7637927134ac7d3dc3,3.68599987,1,0,81,29,1,80
,,,,,,,,,,,,,,,,,,,,,,,,,,,,,,,,,,,,,,,,,,,,,,,,,,,,135,formiga,Catalan,Sounds/cat_formiga.mp3,2020-06-12_20h53.05.746,TranslationElicitation_eng-prolific,3.2.4,Win32,60,5ec54a7637927134ac7d3dc3,,1,0,81,29,1,80
,,,,,,,,,,,,,,,,,,,,,,,,,,,,,,,,,,,,,,,,,,t,1.402000189,T,FALSE,,,,,,,180,tisores,Catalan,Sounds/cat_tisores.mp3,2020-06-12_20h53.05.746,TranslationElicitation_eng-prolific,3.2.4,Win32,60,5ec54a7637927134ac7d3dc3,,1,0,81,71,1,80
,,,,,,,,,,,,,,,,,,,,,,,,,,,,,,,,,,,,,,,,,,i,1.644999981,TI,FALSE,,,,,,,180,tisores,Catalan,Sounds/cat_tisores.mp3,2020-06-12_20h53.05.746,TranslationElicitation_eng-prolific,3.2.4,Win32,60,5ec54a7637927134ac7d3dc3,,1,0,81,71,1,80
,,,,,,,,,,,,,,,,,,,,,,,,,,,,,,,,,,,,,,,,,,t,1.986000061,TIT,FALSE,,,,,,,180,tisores,Catalan,Sounds/cat_tisores.mp3,2020-06-12_20h53.05.746,TranslationElicitation_eng-prolific,3.2.4,Win32,60,5ec54a7637927134ac7d3dc3,,1,0,81,71,1,80
,,,,,,,,,,,,,,,,,,,,,,,,,,,,,,,,,,,,,,,,,,o,2.325999975,TITO,FALSE,,,,,,,180,tisores,Catalan,Sounds/cat_tisores.mp3,2020-06-12_20h53.05.746,TranslationElicitation_eng-prolific,3.2.4,Win32,60,5ec54a7637927134ac7d3dc3,,1,0,81,71,1,80
,,,,,,,,,,,,,,,,,,,,,,,,,,,,,,,,,,,,,,,,,,r,2.472000122,TITOR,FALSE,,,,,,,180,tisores,Catalan,Sounds/cat_tisores.mp3,2020-06-12_20h53.05.746,TranslationElicitation_eng-prolific,3.2.4,Win32,60,5ec54a7637927134ac7d3dc3,,1,0,81,71,1,80
,,,,,,,,,,,,,,,,,,,,,,,,,,,,,,,,,,,,,,,,,,e,2.703000069,TITORE,FALSE,,,,,,,180,tisores,Catalan,Sounds/cat_tisores.mp3,2020-06-12_20h53.05.746,TranslationElicitation_eng-prolific,3.2.4,Win32,60,5ec54a7637927134ac7d3dc3,,1,0,81,71,1,80
,,,,,,,,,,,,,,,,,,,,,,,,,,,,,,,,,,,,,,,,,,s,2.909000158,TITORES,FALSE,,,,,,,180,tisores,Catalan,Sounds/cat_tisores.mp3,2020-06-12_20h53.05.746,TranslationElicitation_eng-prolific,3.2.4,Win32,60,5ec54a7637927134ac7d3dc3,,1,0,81,71,1,80
,,,,,,,,,,,,,,,,,,,,,,,,,,,,,,,,,,,,,,,,,,return,3.019999981,TITORES,FALSE,,,,,,,180,tisores,Catalan,Sounds/cat_tisores.mp3,2020-06-12_20h53.05.746,TranslationElicitation_eng-prolific,3.2.4,Win32,60,5ec54a7637927134ac7d3dc3,3.019999981,1,0,81,71,1,80
,,,,,,,,,,,,,,,,,,,,,,,,,,,,,,,,,,,,,,,,,,,,,,,,,,,,180,tisores,Catalan,Sounds/cat_tisores.mp3,2020-06-12_20h53.05.746,TranslationElicitation_eng-prolific,3.2.4,Win32,60,5ec54a7637927134ac7d3dc3,,1,0,81,71,1,80
,,,,,,,,,,,,,,,,,,,,,,,,,,,,,,,,,,,,,,,,,,a,1.743000031,A,FALSE,,,,,,,105,aigua,Catalan,Sounds/cat_aigua.mp3,2020-06-12_20h53.05.746,TranslationElicitation_eng-prolific,3.2.4,Win32,60,5ec54a7637927134ac7d3dc3,,1,0,81,1,1,80
,,,,,,,,,,,,,,,,,,,,,,,,,,,,,,,,,,,,,,,,,,g,2.195000172,AG,FALSE,,,,,,,105,aigua,Catalan,Sounds/cat_aigua.mp3,2020-06-12_20h53.05.746,TranslationElicitation_eng-prolific,3.2.4,Win32,60,5ec54a7637927134ac7d3dc3,,1,0,81,1,1,80
,,,,,,,,,,,,,,,,,,,,,,,,,,,,,,,,,,,,,,,,,,u,2.729000092,AGU,FALSE,,,,,,,105,aigua,Catalan,Sounds/cat_aigua.mp3,2020-06-12_20h53.05.746,TranslationElicitation_eng-prolific,3.2.4,Win32,60,5ec54a7637927134ac7d3dc3,,1,0,81,1,1,80
,,,,,,,,,,,,,,,,,,,,,,,,,,,,,,,,,,,,,,,,,,a,2.945000172,AGUA,FALSE,,,,,,,105,aigua,Catalan,Sounds/cat_aigua.mp3,2020-06-12_20h53.05.746,TranslationElicitation_eng-prolific,3.2.4,Win32,60,5ec54a7637927134ac7d3dc3,,1,0,81,1,1,80
,,,,,,,,,,,,,,,,,,,,,,,,,,,,,,,,,,,,,,,,,,return,3.070000172,AGUA,FALSE,,,,,,,105,aigua,Catalan,Sounds/cat_aigua.mp3,2020-06-12_20h53.05.746,TranslationElicitation_eng-prolific,3.2.4,Win32,60,5ec54a7637927134ac7d3dc3,3.070000172,1,0,81,1,1,80
,,,,,,,,,,,,,,,,,,,,,,,,,,,,,,,,,,,,,,,,,,,,,,,,,,,,105,aigua,Catalan,Sounds/cat_aigua.mp3,2020-06-12_20h53.05.746,TranslationElicitation_eng-prolific,3.2.4,Win32,60,5ec54a7637927134ac7d3dc3,,1,0,81,1,1,80
,,,,,,,,,,,,,,,,,,,,,,,,,,,,,,,,,,,,,,,,,,t,1.166000128,T,FALSE,,,,,,,181,tobogan,Catalan,Sounds/cat_tobogan.mp3,2020-06-12_20h53.05.746,TranslationElicitation_eng-prolific,3.2.4,Win32,60,5ec54a7637927134ac7d3dc3,,1,0,81,72,1,80
,,,,,,,,,,,,,,,,,,,,,,,,,,,,,,,,,,,,,,,,,,o,1.368000031,TO,FALSE,,,,,,,181,tobogan,Catalan,Sounds/cat_tobogan.mp3,2020-06-12_20h53.05.746,TranslationElicitation_eng-prolific,3.2.4,Win32,60,5ec54a7637927134ac7d3dc3,,1,0,81,72,1,80
,,,,,,,,,,,,,,,,,,,,,,,,,,,,,,,,,,,,,,,,,,b,1.659000158,TOB,FALSE,,,,,,,181,tobogan,Catalan,Sounds/cat_tobogan.mp3,2020-06-12_20h53.05.746,TranslationElicitation_eng-prolific,3.2.4,Win32,60,5ec54a7637927134ac7d3dc3,,1,0,81,72,1,80
,,,,,,,,,,,,,,,,,,,,,,,,,,,,,,,,,,,,,,,,,,o,1.930000067,TOBO,FALSE,,,,,,,181,tobogan,Catalan,Sounds/cat_tobogan.mp3,2020-06-12_20h53.05.746,TranslationElicitation_eng-prolific,3.2.4,Win32,60,5ec54a7637927134ac7d3dc3,,1,0,81,72,1,80
,,,,,,,,,,,,,,,,,,,,,,,,,,,,,,,,,,,,,,,,,,o,2.114000082,TOBOO,FALSE,,,,,,,181,tobogan,Catalan,Sounds/cat_tobogan.mp3,2020-06-12_20h53.05.746,TranslationElicitation_eng-prolific,3.2.4,Win32,60,5ec54a7637927134ac7d3dc3,,1,0,81,72,1,80
,,,,,,,,,,,,,,,,,,,,,,,,,,,,,,,,,,,,,,,,,,g,2.923000097,TOBOOG,FALSE,,,,,,,181,tobogan,Catalan,Sounds/cat_tobogan.mp3,2020-06-12_20h53.05.746,TranslationElicitation_eng-prolific,3.2.4,Win32,60,5ec54a7637927134ac7d3dc3,,1,0,81,72,1,80
,,,,,,,,,,,,,,,,,,,,,,,,,,,,,,,,,,,,,,,,,,a,3.680000067,TOBOOGA,FALSE,,,,,,,181,tobogan,Catalan,Sounds/cat_tobogan.mp3,2020-06-12_20h53.05.746,TranslationElicitation_eng-prolific,3.2.4,Win32,60,5ec54a7637927134ac7d3dc3,,1,0,81,72,1,80
,,,,,,,,,,,,,,,,,,,,,,,,,,,,,,,,,,,,,,,,,,n,3.833000183,TOBOOGAN,FALSE,,,,,,,181,tobogan,Catalan,Sounds/cat_tobogan.mp3,2020-06-12_20h53.05.746,TranslationElicitation_eng-prolific,3.2.4,Win32,60,5ec54a7637927134ac7d3dc3,,1,0,81,72,1,80
,,,,,,,,,,,,,,,,,,,,,,,,,,,,,,,,,,,,,,,,,,return,4.035000086,TOBOOGAN,FALSE,,,,,,,181,tobogan,Catalan,Sounds/cat_tobogan.mp3,2020-06-12_20h53.05.746,TranslationElicitation_eng-prolific,3.2.4,Win32,60,5ec54a7637927134ac7d3dc3,4.035000086,1,0,81,72,1,80
,,,,,,,,,,,,,,,,,,,,,,,,,,,,,,,,,,,,,,,,,,,,,,,,,,,,181,tobogan,Catalan,Sounds/cat_tobogan.mp3,2020-06-12_20h53.05.746,TranslationElicitation_eng-prolific,3.2.4,Win32,60,5ec54a7637927134ac7d3dc3,,1,0,81,72,1,80
,,,,,,,,,,,,,,,,,,,,,,,,,,,,,,,,,,,,,,,,,,e,2.848999977,E,FALSE,,,,,,,131,esponja,Catalan,Sounds/cat_esponja.mp3,2020-06-12_20h53.05.746,TranslationElicitation_eng-prolific,3.2.4,Win32,60,5ec54a7637927134ac7d3dc3,,1,0,81,25,1,80
,,,,,,,,,,,,,,,,,,,,,,,,,,,,,,,,,,,,,,,,,,s,3.070999861,ES,FALSE,,,,,,,131,esponja,Catalan,Sounds/cat_esponja.mp3,2020-06-12_20h53.05.746,TranslationElicitation_eng-prolific,3.2.4,Win32,60,5ec54a7637927134ac7d3dc3,,1,0,81,25,1,80
,,,,,,,,,,,,,,,,,,,,,,,,,,,,,,,,,,,,,,,,,,space,3.181999922,ES ,FALSE,,,,,,,131,esponja,Catalan,Sounds/cat_esponja.mp3,2020-06-12_20h53.05.746,TranslationElicitation_eng-prolific,3.2.4,Win32,60,5ec54a7637927134ac7d3dc3,,1,0,81,25,1,80
,,,,,,,,,,,,,,,,,,,,,,,,,,,,,,,,,,,,,,,,,,s,3.40899992,ES S,FALSE,,,,,,,131,esponja,Catalan,Sounds/cat_esponja.mp3,2020-06-12_20h53.05.746,TranslationElicitation_eng-prolific,3.2.4,Win32,60,5ec54a7637927134ac7d3dc3,,1,0,81,25,1,80
,,,,,,,,,,,,,,,,,,,,,,,,,,,,,,,,,,,,,,,,,,p,4.494999886,ES SP,FALSE,,,,,,,131,esponja,Catalan,Sounds/cat_esponja.mp3,2020-06-12_20h53.05.746,TranslationElicitation_eng-prolific,3.2.4,Win32,60,5ec54a7637927134ac7d3dc3,,1,0,81,25,1,80
,,,,,,,,,,,,,,,,,,,,,,,,,,,,,,,,,,,,,,,,,,o,4.855999947,ES SPO,FALSE,,,,,,,131,esponja,Catalan,Sounds/cat_esponja.mp3,2020-06-12_20h53.05.746,TranslationElicitation_eng-prolific,3.2.4,Win32,60,5ec54a7637927134ac7d3dc3,,1,0,81,25,1,80
,,,,,,,,,,,,,,,,,,,,,,,,,,,,,,,,,,,,,,,,,,n,5.092000008,ES SPON,FALSE,,,,,,,131,esponja,Catalan,Sounds/cat_esponja.mp3,2020-06-12_20h53.05.746,TranslationElicitation_eng-prolific,3.2.4,Win32,60,5ec54a7637927134ac7d3dc3,,1,0,81,25,1,80
,,,,,,,,,,,,,,,,,,,,,,,,,,,,,,,,,,,,,,,,,,g,5.278999805,ES SPONG,FALSE,,,,,,,131,esponja,Catalan,Sounds/cat_esponja.mp3,2020-06-12_20h53.05.746,TranslationElicitation_eng-prolific,3.2.4,Win32,60,5ec54a7637927134ac7d3dc3,,1,0,81,25,1,80
,,,,,,,,,,,,,,,,,,,,,,,,,,,,,,,,,,,,,,,,,,e,5.542999983,ES SPONGE,FALSE,,,,,,,131,esponja,Catalan,Sounds/cat_esponja.mp3,2020-06-12_20h53.05.746,TranslationElicitation_eng-prolific,3.2.4,Win32,60,5ec54a7637927134ac7d3dc3,,1,0,81,25,1,80
,,,,,,,,,,,,,,,,,,,,,,,,,,,,,,,,,,,,,,,,,,return,5.688999891,ES SPONGE,FALSE,,,,,,,131,esponja,Catalan,Sounds/cat_esponja.mp3,2020-06-12_20h53.05.746,TranslationElicitation_eng-prolific,3.2.4,Win32,60,5ec54a7637927134ac7d3dc3,5.688999891,1,0,81,25,1,80
,,,,,,,,,,,,,,,,,,,,,,,,,,,,,,,,,,,,,,,,,,,,,,,,,,,,131,esponja,Catalan,Sounds/cat_esponja.mp3,2020-06-12_20h53.05.746,TranslationElicitation_eng-prolific,3.2.4,Win32,60,5ec54a7637927134ac7d3dc3,,1,0,81,25,1,80
,,,,,,,,,,,,,,,,,,,,,,,,,,,,,,,,,,,,,,,,,,p,1.805999994,P,FALSE,,,,,,,165,pernil,Catalan,Sounds/cat_pernil.mp3,2020-06-12_20h53.05.746,TranslationElicitation_eng-prolific,3.2.4,Win32,60,5ec54a7637927134ac7d3dc3,,1,0,81,57,1,80
,,,,,,,,,,,,,,,,,,,,,,,,,,,,,,,,,,,,,,,,,,a,2.361999989,PA,FALSE,,,,,,,165,pernil,Catalan,Sounds/cat_pernil.mp3,2020-06-12_20h53.05.746,TranslationElicitation_eng-prolific,3.2.4,Win32,60,5ec54a7637927134ac7d3dc3,,1,0,81,57,1,80
,,,,,,,,,,,,,,,,,,,,,,,,,,,,,,,,,,,,,,,,,,backspace,2.861999989,P,TRUE,,,,,,,165,pernil,Catalan,Sounds/cat_pernil.mp3,2020-06-12_20h53.05.746,TranslationElicitation_eng-prolific,3.2.4,Win32,60,5ec54a7637927134ac7d3dc3,,1,0,81,57,1,80
,,,,,,,,,,,,,,,,,,,,,,,,,,,,,,,,,,,,,,,,,,backspace,3.036000013,,TRUE,,,,,,,165,pernil,Catalan,Sounds/cat_pernil.mp3,2020-06-12_20h53.05.746,TranslationElicitation_eng-prolific,3.2.4,Win32,60,5ec54a7637927134ac7d3dc3,,1,0,81,57,1,80
,,,,,,,,,,,,,,,,,,,,,,,,,,,,,,,,,,,,,,,,,,p,3.659999847,P,TRUE,,,,,,,165,pernil,Catalan,Sounds/cat_pernil.mp3,2020-06-12_20h53.05.746,TranslationElicitation_eng-prolific,3.2.4,Win32,60,5ec54a7637927134ac7d3dc3,,1,0,81,57,1,80
,,,,,,,,,,,,,,,,,,,,,,,,,,,,,,,,,,,,,,,,,,a,3.835999966,PA,TRUE,,,,,,,165,pernil,Catalan,Sounds/cat_pernil.mp3,2020-06-12_20h53.05.746,TranslationElicitation_eng-prolific,3.2.4,Win32,60,5ec54a7637927134ac7d3dc3,,1,0,81,57,1,80
,,,,,,,,,,,,,,,,,,,,,,,,,,,,,,,,,,,,,,,,,,r,4.179999828,PAR,TRUE,,,,,,,165,pernil,Catalan,Sounds/cat_pernil.mp3,2020-06-12_20h53.05.746,TranslationElicitation_eng-prolific,3.2.4,Win32,60,5ec54a7637927134ac7d3dc3,,1,0,81,57,1,80
,,,,,,,,,,,,,,,,,,,,,,,,,,,,,,,,,,,,,,,,,,n,4.763999939,PARN,TRUE,,,,,,,165,pernil,Catalan,Sounds/cat_pernil.mp3,2020-06-12_20h53.05.746,TranslationElicitation_eng-prolific,3.2.4,Win32,60,5ec54a7637927134ac7d3dc3,,1,0,81,57,1,80
,,,,,,,,,,,,,,,,,,,,,,,,,,,,,,,,,,,,,,,,,,i,5.036000013,PARNI,TRUE,,,,,,,165,pernil,Catalan,Sounds/cat_pernil.mp3,2020-06-12_20h53.05.746,TranslationElicitation_eng-prolific,3.2.4,Win32,60,5ec54a7637927134ac7d3dc3,,1,0,81,57,1,80
,,,,,,,,,,,,,,,,,,,,,,,,,,,,,,,,,,,,,,,,,,l,5.291999817,PARNIL,TRUE,,,,,,,165,pernil,Catalan,Sounds/cat_pernil.mp3,2020-06-12_20h53.05.746,TranslationElicitation_eng-prolific,3.2.4,Win32,60,5ec54a7637927134ac7d3dc3,,1,0,81,57,1,80
,,,,,,,,,,,,,,,,,,,,,,,,,,,,,,,,,,,,,,,,,,return,5.605000019,PARNIL,TRUE,,,,,,,165,pernil,Catalan,Sounds/cat_pernil.mp3,2020-06-12_20h53.05.746,TranslationElicitation_eng-prolific,3.2.4,Win32,60,5ec54a7637927134ac7d3dc3,5.605000019,1,0,81,57,1,80
,,,,,,,,,,,,,,,,,,,,,,,,,,,,,,,,,,,,,,,,,,,,,,,,,,,,165,pernil,Catalan,Sounds/cat_pernil.mp3,2020-06-12_20h53.05.746,TranslationElicitation_eng-prolific,3.2.4,Win32,60,5ec54a7637927134ac7d3dc3,,1,0,81,57,1,80
,,,,,,,,,,,,,,,,,,,,,,,,,,,,,,,,,,,,,,,,,,u,1.457000017,U,FALSE,,,,,,,136,forquilla,Catalan,Sounds/cat_forquilla.mp3,2020-06-12_20h53.05.746,TranslationElicitation_eng-prolific,3.2.4,Win32,60,5ec54a7637927134ac7d3dc3,,1,0,81,30,1,80
,,,,,,,,,,,,,,,,,,,,,,,,,,,,,,,,,,,,,,,,,,backspace,2.035000086,,TRUE,,,,,,,136,forquilla,Catalan,Sounds/cat_forquilla.mp3,2020-06-12_20h53.05.746,TranslationElicitation_eng-prolific,3.2.4,Win32,60,5ec54a7637927134ac7d3dc3,,1,0,81,30,1,80
,,,,,,,,,,,,,,,,,,,,,,,,,,,,,,,,,,,,,,,,,,f,2.194000006,F,TRUE,,,,,,,136,forquilla,Catalan,Sounds/cat_forquilla.mp3,2020-06-12_20h53.05.746,TranslationElicitation_eng-prolific,3.2.4,Win32,60,5ec54a7637927134ac7d3dc3,,1,0,81,30,1,80
,,,,,,,,,,,,,,,,,,,,,,,,,,,,,,,,,,,,,,,,,,u,2.403000116,FU,TRUE,,,,,,,136,forquilla,Catalan,Sounds/cat_forquilla.mp3,2020-06-12_20h53.05.746,TranslationElicitation_eng-prolific,3.2.4,Win32,60,5ec54a7637927134ac7d3dc3,,1,0,81,30,1,80
,,,,,,,,,,,,,,,,,,,,,,,,,,,,,,,,,,,,,,,,,,q,3.770000219,FUQ,TRUE,,,,,,,136,forquilla,Catalan,Sounds/cat_forquilla.mp3,2020-06-12_20h53.05.746,TranslationElicitation_eng-prolific,3.2.4,Win32,60,5ec54a7637927134ac7d3dc3,,1,0,81,30,1,80
,,,,,,,,,,,,,,,,,,,,,,,,,,,,,,,,,,,,,,,,,,u,4.055999994,FUQU,TRUE,,,,,,,136,forquilla,Catalan,Sounds/cat_forquilla.mp3,2020-06-12_20h53.05.746,TranslationElicitation_eng-prolific,3.2.4,Win32,60,5ec54a7637927134ac7d3dc3,,1,0,81,30,1,80
,,,,,,,,,,,,,,,,,,,,,,,,,,,,,,,,,,,,,,,,,,i,4.222000122,FUQUI,TRUE,,,,,,,136,forquilla,Catalan,Sounds/cat_forquilla.mp3,2020-06-12_20h53.05.746,TranslationElicitation_eng-prolific,3.2.4,Win32,60,5ec54a7637927134ac7d3dc3,,1,0,81,30,1,80
,,,,,,,,,,,,,,,,,,,,,,,,,,,,,,,,,,,,,,,,,,l,4.458000183,FUQUIL,TRUE,,,,,,,136,forquilla,Catalan,Sounds/cat_forquilla.mp3,2020-06-12_20h53.05.746,TranslationElicitation_eng-prolific,3.2.4,Win32,60,5ec54a7637927134ac7d3dc3,,1,0,81,30,1,80
,,,,,,,,,,,,,,,,,,,,,,,,,,,,,,,,,,,,,,,,,,l,4.764000177,FUQUILL,TRUE,,,,,,,136,forquilla,Catalan,Sounds/cat_forquilla.mp3,2020-06-12_20h53.05.746,TranslationElicitation_eng-prolific,3.2.4,Win32,60,5ec54a7637927134ac7d3dc3,,1,0,81,30,1,80
,,,,,,,,,,,,,,,,,,,,,,,,,,,,,,,,,,,,,,,,,,a,4.896000147,FUQUILLA,TRUE,,,,,,,136,forquilla,Catalan,Sounds/cat_forquilla.mp3,2020-06-12_20h53.05.746,TranslationElicitation_eng-prolific,3.2.4,Win32,60,5ec54a7637927134ac7d3dc3,,1,0,81,30,1,80
,,,,,,,,,,,,,,,,,,,,,,,,,,,,,,,,,,,,,,,,,,return,5.014000177,FUQUILLA,TRUE,,,,,,,136,forquilla,Catalan,Sounds/cat_forquilla.mp3,2020-06-12_20h53.05.746,TranslationElicitation_eng-prolific,3.2.4,Win32,60,5ec54a7637927134ac7d3dc3,5.014000177,1,0,81,30,1,80
,,,,,,,,,,,,,,,,,,,,,,,,,,,,,,,,,,,,,,,,,,,,,,,,,,,,136,forquilla,Catalan,Sounds/cat_forquilla.mp3,2020-06-12_20h53.05.746,TranslationElicitation_eng-prolific,3.2.4,Win32,60,5ec54a7637927134ac7d3dc3,,1,0,81,30,1,80
,,,,,,,,,,,,,,,,,,,,,,,,,,,,,,,,,,,,,,,,,,c,1.965000153,C,FALSE,,,,,,,125,colom,Catalan,Sounds/cat_colom.mp3,2020-06-12_20h53.05.746,TranslationElicitation_eng-prolific,3.2.4,Win32,60,5ec54a7637927134ac7d3dc3,,1,0,81,20,1,80
,,,,,,,,,,,,,,,,,,,,,,,,,,,,,,,,,,,,,,,,,,l,2.34100008,CL,FALSE,,,,,,,125,colom,Catalan,Sounds/cat_colom.mp3,2020-06-12_20h53.05.746,TranslationElicitation_eng-prolific,3.2.4,Win32,60,5ec54a7637927134ac7d3dc3,,1,0,81,20,1,80
,,,,,,,,,,,,,,,,,,,,,,,,,,,,,,,,,,,,,,,,,,backspace,2.633000135,C,TRUE,,,,,,,125,colom,Catalan,Sounds/cat_colom.mp3,2020-06-12_20h53.05.746,TranslationElicitation_eng-prolific,3.2.4,Win32,60,5ec54a7637927134ac7d3dc3,,1,0,81,20,1,80
,,,,,,,,,,,,,,,,,,,,,,,,,,,,,,,,,,,,,,,,,,u,3.084000111,CU,TRUE,,,,,,,125,colom,Catalan,Sounds/cat_colom.mp3,2020-06-12_20h53.05.746,TranslationElicitation_eng-prolific,3.2.4,Win32,60,5ec54a7637927134ac7d3dc3,,1,0,81,20,1,80
,,,,,,,,,,,,,,,,,,,,,,,,,,,,,,,,,,,,,,,,,,l,3.321000099,CUL,TRUE,,,,,,,125,colom,Catalan,Sounds/cat_colom.mp3,2020-06-12_20h53.05.746,TranslationElicitation_eng-prolific,3.2.4,Win32,60,5ec54a7637927134ac7d3dc3,,1,0,81,20,1,80
,,,,,,,,,,,,,,,,,,,,,,,,,,,,,,,,,,,,,,,,,,o,3.522000074,CULO,TRUE,,,,,,,125,colom,Catalan,Sounds/cat_colom.mp3,2020-06-12_20h53.05.746,TranslationElicitation_eng-prolific,3.2.4,Win32,60,5ec54a7637927134ac7d3dc3,,1,0,81,20,1,80
,,,,,,,,,,,,,,,,,,,,,,,,,,,,,,,,,,,,,,,,,,n,3.730000019,CULON,TRUE,,,,,,,125,colom,Catalan,Sounds/cat_colom.mp3,2020-06-12_20h53.05.746,TranslationElicitation_eng-prolific,3.2.4,Win32,60,5ec54a7637927134ac7d3dc3,,1,0,81,20,1,80
,,,,,,,,,,,,,,,,,,,,,,,,,,,,,,,,,,,,,,,,,,e,3.861999989,CULONE,TRUE,,,,,,,125,colom,Catalan,Sounds/cat_colom.mp3,2020-06-12_20h53.05.746,TranslationElicitation_eng-prolific,3.2.4,Win32,60,5ec54a7637927134ac7d3dc3,,1,0,81,20,1,80
,,,,,,,,,,,,,,,,,,,,,,,,,,,,,,,,,,,,,,,,,,backspace,4.110000134,CULON,TRUE,,,,,,,125,colom,Catalan,Sounds/cat_colom.mp3,2020-06-12_20h53.05.746,TranslationElicitation_eng-prolific,3.2.4,Win32,60,5ec54a7637927134ac7d3dc3,,1,0,81,20,1,80
,,,,,,,,,,,,,,,,,,,,,,,,,,,,,,,,,,,,,,,,,,backspace,4.299999952,CULO,TRUE,,,,,,,125,colom,Catalan,Sounds/cat_colom.mp3,2020-06-12_20h53.05.746,TranslationElicitation_eng-prolific,3.2.4,Win32,60,5ec54a7637927134ac7d3dc3,,1,0,81,20,1,80
,,,,,,,,,,,,,,,,,,,,,,,,,,,,,,,,,,,,,,,,,,m,4.534000158,CULOM,TRUE,,,,,,,125,colom,Catalan,Sounds/cat_colom.mp3,2020-06-12_20h53.05.746,TranslationElicitation_eng-prolific,3.2.4,Win32,60,5ec54a7637927134ac7d3dc3,,1,0,81,20,1,80
,,,,,,,,,,,,,,,,,,,,,,,,,,,,,,,,,,,,,,,,,,e,4.660000086,CULOME,TRUE,,,,,,,125,colom,Catalan,Sounds/cat_colom.mp3,2020-06-12_20h53.05.746,TranslationElicitation_eng-prolific,3.2.4,Win32,60,5ec54a7637927134ac7d3dc3,,1,0,81,20,1,80
,,,,,,,,,,,,,,,,,,,,,,,,,,,,,,,,,,,,,,,,,,return,4.799999952,CULOME,TRUE,,,,,,,125,colom,Catalan,Sounds/cat_colom.mp3,2020-06-12_20h53.05.746,TranslationElicitation_eng-prolific,3.2.4,Win32,60,5ec54a7637927134ac7d3dc3,4.799999952,1,0,81,20,1,80
,,,,,,,,,,,,,,,,,,,,,,,,,,,,,,,,,,,,,,,,,,,,,,,,,,,,125,colom,Catalan,Sounds/cat_colom.mp3,2020-06-12_20h53.05.746,TranslationElicitation_eng-prolific,3.2.4,Win32,60,5ec54a7637927134ac7d3dc3,,1,0,81,20,1,80
,,,,,,,,,,,,,,,,,,,,,,,,,,,,,,,,,,,,,,,,,,n,1.638000011,N,FALSE,,,,,,,158,nas,Catalan,Sounds/cat_nas.mp3,2020-06-12_20h53.05.746,TranslationElicitation_eng-prolific,3.2.4,Win32,60,5ec54a7637927134ac7d3dc3,,1,0,81,51,1,80
,,,,,,,,,,,,,,,,,,,,,,,,,,,,,,,,,,,,,,,,,,a,2.305999994,NA,FALSE,,,,,,,158,nas,Catalan,Sounds/cat_nas.mp3,2020-06-12_20h53.05.746,TranslationElicitation_eng-prolific,3.2.4,Win32,60,5ec54a7637927134ac7d3dc3,,1,0,81,51,1,80
,,,,,,,,,,,,,,,,,,,,,,,,,,,,,,,,,,,,,,,,,,s,2.520999908,NAS,FALSE,,,,,,,158,nas,Catalan,Sounds/cat_nas.mp3,2020-06-12_20h53.05.746,TranslationElicitation_eng-prolific,3.2.4,Win32,60,5ec54a7637927134ac7d3dc3,,1,0,81,51,1,80
,,,,,,,,,,,,,,,,,,,,,,,,,,,,,,,,,,,,,,,,,,return,2.834000111,NAS,FALSE,,,,,,,158,nas,Catalan,Sounds/cat_nas.mp3,2020-06-12_20h53.05.746,TranslationElicitation_eng-prolific,3.2.4,Win32,60,5ec54a7637927134ac7d3dc3,2.834000111,1,0,81,51,1,80
,,,,,,,,,,,,,,,,,,,,,,,,,,,,,,,,,,,,,,,,,,,,,,,,,,,,158,nas,Catalan,Sounds/cat_nas.mp3,2020-06-12_20h53.05.746,TranslationElicitation_eng-prolific,3.2.4,Win32,60,5ec54a7637927134ac7d3dc3,,1,0,81,51,1,80
,,,,,,,,,,,,,,,,,,,,,,,,,,,,,,,,,,,,,,,,,,r,1.930999994,R,FALSE,,,,,,,175,raspall,Catalan,Sounds/cat_raspall.mp3,2020-06-12_20h53.05.746,TranslationElicitation_eng-prolific,3.2.4,Win32,60,5ec54a7637927134ac7d3dc3,,1,0,81,67,1,80
,,,,,,,,,,,,,,,,,,,,,,,,,,,,,,,,,,,,,,,,,,e,2.132999897,RE,FALSE,,,,,,,175,raspall,Catalan,Sounds/cat_raspall.mp3,2020-06-12_20h53.05.746,TranslationElicitation_eng-prolific,3.2.4,Win32,60,5ec54a7637927134ac7d3dc3,,1,0,81,67,1,80
,,,,,,,,,,,,,,,,,,,,,,,,,,,,,,,,,,,,,,,,,,s,2.335000038,RES,FALSE,,,,,,,175,raspall,Catalan,Sounds/cat_raspall.mp3,2020-06-12_20h53.05.746,TranslationElicitation_eng-prolific,3.2.4,Win32,60,5ec54a7637927134ac7d3dc3,,1,0,81,67,1,80
,,,,,,,,,,,,,,,,,,,,,,,,,,,,,,,,,,,,,,,,,,p,2.688999891,RESP,FALSE,,,,,,,175,raspall,Catalan,Sounds/cat_raspall.mp3,2020-06-12_20h53.05.746,TranslationElicitation_eng-prolific,3.2.4,Win32,60,5ec54a7637927134ac7d3dc3,,1,0,81,67,1,80
,,,,,,,,,,,,,,,,,,,,,,,,,,,,,,,,,,,,,,,,,,a,2.897000074,RESPA,FALSE,,,,,,,175,raspall,Catalan,Sounds/cat_raspall.mp3,2020-06-12_20h53.05.746,TranslationElicitation_eng-prolific,3.2.4,Win32,60,5ec54a7637927134ac7d3dc3,,1,0,81,67,1,80
,,,,,,,,,,,,,,,,,,,,,,,,,,,,,,,,,,,,,,,,,,l,3.042999983,RESPAL,FALSE,,,,,,,175,raspall,Catalan,Sounds/cat_raspall.mp3,2020-06-12_20h53.05.746,TranslationElicitation_eng-prolific,3.2.4,Win32,60,5ec54a7637927134ac7d3dc3,,1,0,81,67,1,80
,,,,,,,,,,,,,,,,,,,,,,,,,,,,,,,,,,,,,,,,,,return,3.195999861,RESPAL,FALSE,,,,,,,175,raspall,Catalan,Sounds/cat_raspall.mp3,2020-06-12_20h53.05.746,TranslationElicitation_eng-prolific,3.2.4,Win32,60,5ec54a7637927134ac7d3dc3,3.195999861,1,0,81,67,1,80
,,,,,,,,,,,,,,,,,,,,,,,,,,,,,,,,,,,,,,,,,,,,,,,,,,,,175,raspall,Catalan,Sounds/cat_raspall.mp3,2020-06-12_20h53.05.746,TranslationElicitation_eng-prolific,3.2.4,Win32,60,5ec54a7637927134ac7d3dc3,,1,0,81,67,1,80
,,,,,,,,,,,,,,,,,,,,,,,,,,,,,,,,,,,,,,,,,,l,1.707999945,L,FALSE,,,,,,,150,lloro,Catalan,Sounds/cat_lloro.mp3,2020-06-12_20h53.05.746,TranslationElicitation_eng-prolific,3.2.4,Win32,60,5ec54a7637927134ac7d3dc3,,1,0,81,43,1,80
,,,,,,,,,,,,,,,,,,,,,,,,,,,,,,,,,,,,,,,,,,o,1.993000031,LO,FALSE,,,,,,,150,lloro,Catalan,Sounds/cat_lloro.mp3,2020-06-12_20h53.05.746,TranslationElicitation_eng-prolific,3.2.4,Win32,60,5ec54a7637927134ac7d3dc3,,1,0,81,43,1,80
,,,,,,,,,,,,,,,,,,,,,,,,,,,,,,,,,,,,,,,,,,r,2.132999897,LOR,FALSE,,,,,,,150,lloro,Catalan,Sounds/cat_lloro.mp3,2020-06-12_20h53.05.746,TranslationElicitation_eng-prolific,3.2.4,Win32,60,5ec54a7637927134ac7d3dc3,,1,0,81,43,1,80
,,,,,,,,,,,,,,,,,,,,,,,,,,,,,,,,,,,,,,,,,,r,2.306999922,LORR,FALSE,,,,,,,150,lloro,Catalan,Sounds/cat_lloro.mp3,2020-06-12_20h53.05.746,TranslationElicitation_eng-prolific,3.2.4,Win32,60,5ec54a7637927134ac7d3dc3,,1,0,81,43,1,80
,,,,,,,,,,,,,,,,,,,,,,,,,,,,,,,,,,,,,,,,,,o,2.750999928,LORRO,FALSE,,,,,,,150,lloro,Catalan,Sounds/cat_lloro.mp3,2020-06-12_20h53.05.746,TranslationElicitation_eng-prolific,3.2.4,Win32,60,5ec54a7637927134ac7d3dc3,,1,0,81,43,1,80
,,,,,,,,,,,,,,,,,,,,,,,,,,,,,,,,,,,,,,,,,,return,2.946000099,LORRO,FALSE,,,,,,,150,lloro,Catalan,Sounds/cat_lloro.mp3,2020-06-12_20h53.05.746,TranslationElicitation_eng-prolific,3.2.4,Win32,60,5ec54a7637927134ac7d3dc3,2.946000099,1,0,81,43,1,80
,,,,,,,,,,,,,,,,,,,,,,,,,,,,,,,,,,,,,,,,,,,,,,,,,,,,150,lloro,Catalan,Sounds/cat_lloro.mp3,2020-06-12_20h53.05.746,TranslationElicitation_eng-prolific,3.2.4,Win32,60,5ec54a7637927134ac7d3dc3,,1,0,81,43,1,80
,,,,,,,,,,,,,,,,,,,,,,,,,,,,,,,,,,,,,,,,,,k,2.953000069,K,FALSE,,,,,,,149,llibre,Catalan,Sounds/cat_llibre.mp3,2020-06-12_20h53.05.746,TranslationElicitation_eng-prolific,3.2.4,Win32,60,5ec54a7637927134ac7d3dc3,,1,0,81,42,1,80
,,,,,,,,,,,,,,,,,,,,,,,,,,,,,,,,,,,,,,,,,,i,3.161000013,KI,FALSE,,,,,,,149,llibre,Catalan,Sounds/cat_llibre.mp3,2020-06-12_20h53.05.746,TranslationElicitation_eng-prolific,3.2.4,Win32,60,5ec54a7637927134ac7d3dc3,,1,0,81,42,1,80
,,,,,,,,,,,,,,,,,,,,,,,,,,,,,,,,,,,,,,,,,,b,3.397000074,KIB,FALSE,,,,,,,149,llibre,Catalan,Sounds/cat_llibre.mp3,2020-06-12_20h53.05.746,TranslationElicitation_eng-prolific,3.2.4,Win32,60,5ec54a7637927134ac7d3dc3,,1,0,81,42,1,80
,,,,,,,,,,,,,,,,,,,,,,,,,,,,,,,,,,,,,,,,,,r,3.632999897,KIBR,FALSE,,,,,,,149,llibre,Catalan,Sounds/cat_llibre.mp3,2020-06-12_20h53.05.746,TranslationElicitation_eng-prolific,3.2.4,Win32,60,5ec54a7637927134ac7d3dc3,,1,0,81,42,1,80
,,,,,,,,,,,,,,,,,,,,,,,,,,,,,,,,,,,,,,,,,,a,4.25,KIBRA,FALSE,,,,,,,149,llibre,Catalan,Sounds/cat_llibre.mp3,2020-06-12_20h53.05.746,TranslationElicitation_eng-prolific,3.2.4,Win32,60,5ec54a7637927134ac7d3dc3,,1,0,81,42,1,80
,,,,,,,,,,,,,,,,,,,,,,,,,,,,,,,,,,,,,,,,,,return,4.382999897,KIBRA,FALSE,,,,,,,149,llibre,Catalan,Sounds/cat_llibre.mp3,2020-06-12_20h53.05.746,TranslationElicitation_eng-prolific,3.2.4,Win32,60,5ec54a7637927134ac7d3dc3,4.382999897,1,0,81,42,1,80
,,,,,,,,,,,,,,,,,,,,,,,,,,,,,,,,,,,,,,,,,,,,,,,,,,,,149,llibre,Catalan,Sounds/cat_llibre.mp3,2020-06-12_20h53.05.746,TranslationElicitation_eng-prolific,3.2.4,Win32,60,5ec54a7637927134ac7d3dc3,,1,0,81,42,1,80
,,,,,,,,,,,,,,,,,,,,,,,,,,,,,,,,,,,,,,,,,,p,1.555000067,P,FALSE,,,,,,,173,porc,Catalan,Sounds/cat_porc.mp3,2020-06-12_20h53.05.746,TranslationElicitation_eng-prolific,3.2.4,Win32,60,5ec54a7637927134ac7d3dc3,,1,0,81,65,1,80
,,,,,,,,,,,,,,,,,,,,,,,,,,,,,,,,,,,,,,,,,,o,1.743000031,PO,FALSE,,,,,,,173,porc,Catalan,Sounds/cat_porc.mp3,2020-06-12_20h53.05.746,TranslationElicitation_eng-prolific,3.2.4,Win32,60,5ec54a7637927134ac7d3dc3,,1,0,81,65,1,80
,,,,,,,,,,,,,,,,,,,,,,,,,,,,,,,,,,,,,,,,,,r,1.846999884,POR,FALSE,,,,,,,173,porc,Catalan,Sounds/cat_porc.mp3,2020-06-12_20h53.05.746,TranslationElicitation_eng-prolific,3.2.4,Win32,60,5ec54a7637927134ac7d3dc3,,1,0,81,65,1,80
,,,,,,,,,,,,,,,,,,,,,,,,,,,,,,,,,,,,,,,,,,k,2.062000036,PORK,FALSE,,,,,,,173,porc,Catalan,Sounds/cat_porc.mp3,2020-06-12_20h53.05.746,TranslationElicitation_eng-prolific,3.2.4,Win32,60,5ec54a7637927134ac7d3dc3,,1,0,81,65,1,80
,,,,,,,,,,,,,,,,,,,,,,,,,,,,,,,,,,,,,,,,,,return,2.381999969,PORK,FALSE,,,,,,,173,porc,Catalan,Sounds/cat_porc.mp3,2020-06-12_20h53.05.746,TranslationElicitation_eng-prolific,3.2.4,Win32,60,5ec54a7637927134ac7d3dc3,2.381999969,1,0,81,65,1,80
,,,,,,,,,,,,,,,,,,,,,,,,,,,,,,,,,,,,,,,,,,,,,,,,,,,,173,porc,Catalan,Sounds/cat_porc.mp3,2020-06-12_20h53.05.746,TranslationElicitation_eng-prolific,3.2.4,Win32,60,5ec54a7637927134ac7d3dc3,,1,0,81,65,1,80
,,,,,,,,,,,,,,,,,,,,,,,,,,,,,,,,,,,,,,,,,,g,2.118000031,G,FALSE,,,,,,,141,gerd,Catalan,Sounds/cat_gerd.mp3,2020-06-12_20h53.05.746,TranslationElicitation_eng-prolific,3.2.4,Win32,60,5ec54a7637927134ac7d3dc3,,1,0,81,35,1,80
,,,,,,,,,,,,,,,,,,,,,,,,,,,,,,,,,,,,,,,,,,e,2.395999908,GE,FALSE,,,,,,,141,gerd,Catalan,Sounds/cat_gerd.mp3,2020-06-12_20h53.05.746,TranslationElicitation_eng-prolific,3.2.4,Win32,60,5ec54a7637927134ac7d3dc3,,1,0,81,35,1,80
,,,,,,,,,,,,,,,,,,,,,,,,,,,,,,,,,,,,,,,,,,r,2.575999975,GER,FALSE,,,,,,,141,gerd,Catalan,Sounds/cat_gerd.mp3,2020-06-12_20h53.05.746,TranslationElicitation_eng-prolific,3.2.4,Win32,60,5ec54a7637927134ac7d3dc3,,1,0,81,35,1,80
,,,,,,,,,,,,,,,,,,,,,,,,,,,,,,,,,,,,,,,,,,return,2.65899992,GER,FALSE,,,,,,,141,gerd,Catalan,Sounds/cat_gerd.mp3,2020-06-12_20h53.05.746,TranslationElicitation_eng-prolific,3.2.4,Win32,60,5ec54a7637927134ac7d3dc3,2.65899992,1,0,81,35,1,80
,,,,,,,,,,,,,,,,,,,,,,,,,,,,,,,,,,,,,,,,,,,,,,,,,,,,141,gerd,Catalan,Sounds/cat_gerd.mp3,2020-06-12_20h53.05.746,TranslationElicitation_eng-prolific,3.2.4,Win32,60,5ec54a7637927134ac7d3dc3,,1,0,81,35,1,80
,,,,,,,,,,,,,,,,,,,,,,,,,,,,,,,,,,,,,,,,,,g,1.319000006,G,FALSE,,,,,,,145,got,Catalan,Sounds/cat_got.mp3,2020-06-12_20h53.05.746,TranslationElicitation_eng-prolific,3.2.4,Win32,60,5ec54a7637927134ac7d3dc3,,1,0,81,39,1,80
,,,,,,,,,,,,,,,,,,,,,,,,,,,,,,,,,,,,,,,,,,o,1.548000097,GO,FALSE,,,,,,,145,got,Catalan,Sounds/cat_got.mp3,2020-06-12_20h53.05.746,TranslationElicitation_eng-prolific,3.2.4,Win32,60,5ec54a7637927134ac7d3dc3,,1,0,81,39,1,80
,,,,,,,,,,,,,,,,,,,,,,,,,,,,,,,,,,,,,,,,,,a,1.763000011,GOA,FALSE,,,,,,,145,got,Catalan,Sounds/cat_got.mp3,2020-06-12_20h53.05.746,TranslationElicitation_eng-prolific,3.2.4,Win32,60,5ec54a7637927134ac7d3dc3,,1,0,81,39,1,80
,,,,,,,,,,,,,,,,,,,,,,,,,,,,,,,,,,,,,,,,,,t,2.284000158,GOAT,FALSE,,,,,,,145,got,Catalan,Sounds/cat_got.mp3,2020-06-12_20h53.05.746,TranslationElicitation_eng-prolific,3.2.4,Win32,60,5ec54a7637927134ac7d3dc3,,1,0,81,39,1,80
,,,,,,,,,,,,,,,,,,,,,,,,,,,,,,,,,,,,,,,,,,return,2.394999981,GOAT,FALSE,,,,,,,145,got,Catalan,Sounds/cat_got.mp3,2020-06-12_20h53.05.746,TranslationElicitation_eng-prolific,3.2.4,Win32,60,5ec54a7637927134ac7d3dc3,2.394999981,1,0,81,39,1,80
,,,,,,,,,,,,,,,,,,,,,,,,,,,,,,,,,,,,,,,,,,,,,,,,,,,,145,got,Catalan,Sounds/cat_got.mp3,2020-06-12_20h53.05.746,TranslationElicitation_eng-prolific,3.2.4,Win32,60,5ec54a7637927134ac7d3dc3,,1,0,81,39,1,80
,,,,,,,,,,,,,,,,,,,,,,,,,,,,,,,,,,,,,,,,,,p,1.153000116,P,FALSE,,,,,,,163,papallona,Catalan,Sounds/cat_papallona.mp3,2020-06-12_20h53.05.746,TranslationElicitation_eng-prolific,3.2.4,Win32,60,5ec54a7637927134ac7d3dc3,,1,0,81,55,1,80
,,,,,,,,,,,,,,,,,,,,,,,,,,,,,,,,,,,,,,,,,,a,1.403000116,PA,FALSE,,,,,,,163,papallona,Catalan,Sounds/cat_papallona.mp3,2020-06-12_20h53.05.746,TranslationElicitation_eng-prolific,3.2.4,Win32,60,5ec54a7637927134ac7d3dc3,,1,0,81,55,1,80
,,,,,,,,,,,,,,,,,,,,,,,,,,,,,,,,,,,,,,,,,,o,1.785000086,PAO,FALSE,,,,,,,163,papallona,Catalan,Sounds/cat_papallona.mp3,2020-06-12_20h53.05.746,TranslationElicitation_eng-prolific,3.2.4,Win32,60,5ec54a7637927134ac7d3dc3,,1,0,81,55,1,80
,,,,,,,,,,,,,,,,,,,,,,,,,,,,,,,,,,,,,,,,,,backspace,2.292000055,PA,TRUE,,,,,,,163,papallona,Catalan,Sounds/cat_papallona.mp3,2020-06-12_20h53.05.746,TranslationElicitation_eng-prolific,3.2.4,Win32,60,5ec54a7637927134ac7d3dc3,,1,0,81,55,1,80
,,,,,,,,,,,,,,,,,,,,,,,,,,,,,,,,,,,,,,,,,,backspace,2.639000177,P,TRUE,,,,,,,163,papallona,Catalan,Sounds/cat_papallona.mp3,2020-06-12_20h53.05.746,TranslationElicitation_eng-prolific,3.2.4,Win32,60,5ec54a7637927134ac7d3dc3,,1,0,81,55,1,80
,,,,,,,,,,,,,,,,,,,,,,,,,,,,,,,,,,,,,,,,,,backspace,2.875,,TRUE,,,,,,,163,papallona,Catalan,Sounds/cat_papallona.mp3,2020-06-12_20h53.05.746,TranslationElicitation_eng-prolific,3.2.4,Win32,60,5ec54a7637927134ac7d3dc3,,1,0,81,55,1,80
,,,,,,,,,,,,,,,,,,,,,,,,,,,,,,,,,,,,,,,,,,b,3.417000055,B,TRUE,,,,,,,163,papallona,Catalan,Sounds/cat_papallona.mp3,2020-06-12_20h53.05.746,TranslationElicitation_eng-prolific,3.2.4,Win32,60,5ec54a7637927134ac7d3dc3,,1,0,81,55,1,80
,,,,,,,,,,,,,,,,,,,,,,,,,,,,,,,,,,,,,,,,,,a,3.674000025,BA,TRUE,,,,,,,163,papallona,Catalan,Sounds/cat_papallona.mp3,2020-06-12_20h53.05.746,TranslationElicitation_eng-prolific,3.2.4,Win32,60,5ec54a7637927134ac7d3dc3,,1,0,81,55,1,80
,,,,,,,,,,,,,,,,,,,,,,,,,,,,,,,,,,,,,,,,,,r,3.952000141,BAR,TRUE,,,,,,,163,papallona,Catalan,Sounds/cat_papallona.mp3,2020-06-12_20h53.05.746,TranslationElicitation_eng-prolific,3.2.4,Win32,60,5ec54a7637927134ac7d3dc3,,1,0,81,55,1,80
,,,,,,,,,,,,,,,,,,,,,,,,,,,,,,,,,,,,,,,,,,c,4.243000031,BARC,TRUE,,,,,,,163,papallona,Catalan,Sounds/cat_papallona.mp3,2020-06-12_20h53.05.746,TranslationElicitation_eng-prolific,3.2.4,Win32,60,5ec54a7637927134ac7d3dc3,,1,0,81,55,1,80
,,,,,,,,,,,,,,,,,,,,,,,,,,,,,,,,,,,,,,,,,,e,4.445000172,BARCE,TRUE,,,,,,,163,papallona,Catalan,Sounds/cat_papallona.mp3,2020-06-12_20h53.05.746,TranslationElicitation_eng-prolific,3.2.4,Win32,60,5ec54a7637927134ac7d3dc3,,1,0,81,55,1,80
,,,,,,,,,,,,,,,,,,,,,,,,,,,,,,,,,,,,,,,,,,l,4.597000122,BARCEL,TRUE,,,,,,,163,papallona,Catalan,Sounds/cat_papallona.mp3,2020-06-12_20h53.05.746,TranslationElicitation_eng-prolific,3.2.4,Win32,60,5ec54a7637927134ac7d3dc3,,1,0,81,55,1,80
,,,,,,,,,,,,,,,,,,,,,,,,,,,,,,,,,,,,,,,,,,o,4.799000025,BARCELO,TRUE,,,,,,,163,papallona,Catalan,Sounds/cat_papallona.mp3,2020-06-12_20h53.05.746,TranslationElicitation_eng-prolific,3.2.4,Win32,60,5ec54a7637927134ac7d3dc3,,1,0,81,55,1,80
,,,,,,,,,,,,,,,,,,,,,,,,,,,,,,,,,,,,,,,,,,n,5.300000191,BARCELON,TRUE,,,,,,,163,papallona,Catalan,Sounds/cat_papallona.mp3,2020-06-12_20h53.05.746,TranslationElicitation_eng-prolific,3.2.4,Win32,60,5ec54a7637927134ac7d3dc3,,1,0,81,55,1,80
,,,,,,,,,,,,,,,,,,,,,,,,,,,,,,,,,,,,,,,,,,a,5.653000116,BARCELONA,TRUE,,,,,,,163,papallona,Catalan,Sounds/cat_papallona.mp3,2020-06-12_20h53.05.746,TranslationElicitation_eng-prolific,3.2.4,Win32,60,5ec54a7637927134ac7d3dc3,,1,0,81,55,1,80
,,,,,,,,,,,,,,,,,,,,,,,,,,,,,,,,,,,,,,,,,,return,6.062999964,BARCELONA,TRUE,,,,,,,163,papallona,Catalan,Sounds/cat_papallona.mp3,2020-06-12_20h53.05.746,TranslationElicitation_eng-prolific,3.2.4,Win32,60,5ec54a7637927134ac7d3dc3,6.062999964,1,0,81,55,1,80
,,,,,,,,,,,,,,,,,,,,,,,,,,,,,,,,,,,,,,,,,,,,,,,,,,,,163,papallona,Catalan,Sounds/cat_papallona.mp3,2020-06-12_20h53.05.746,TranslationElicitation_eng-prolific,3.2.4,Win32,60,5ec54a7637927134ac7d3dc3,,1,0,81,55,1,80
,,,,,,,,,,,,,,,,,,,,,,,,,,,,,,,,,,,,,,,,,,f,1.666000128,F,FALSE,,,,,,,137,fulla,Catalan,Sounds/cat_fulla.mp3,2020-06-12_20h53.05.746,TranslationElicitation_eng-prolific,3.2.4,Win32,60,5ec54a7637927134ac7d3dc3,,1,0,81,31,1,80
,,,,,,,,,,,,,,,,,,,,,,,,,,,,,,,,,,,,,,,,,,o,1.825999975,FO,FALSE,,,,,,,137,fulla,Catalan,Sounds/cat_fulla.mp3,2020-06-12_20h53.05.746,TranslationElicitation_eng-prolific,3.2.4,Win32,60,5ec54a7637927134ac7d3dc3,,1,0,81,31,1,80
,,,,,,,,,,,,,,,,,,,,,,,,,,,,,,,,,,,,,,,,,,o,1.988000154,FOO,FALSE,,,,,,,137,fulla,Catalan,Sounds/cat_fulla.mp3,2020-06-12_20h53.05.746,TranslationElicitation_eng-prolific,3.2.4,Win32,60,5ec54a7637927134ac7d3dc3,,1,0,81,31,1,80
,,,,,,,,,,,,,,,,,,,,,,,,,,,,,,,,,,,,,,,,,,l,2.59100008,FOOL,FALSE,,,,,,,137,fulla,Catalan,Sounds/cat_fulla.mp3,2020-06-12_20h53.05.746,TranslationElicitation_eng-prolific,3.2.4,Win32,60,5ec54a7637927134ac7d3dc3,,1,0,81,31,1,80
,,,,,,,,,,,,,,,,,,,,,,,,,,,,,,,,,,,,,,,,,,return,3.231000185,FOOL,FALSE,,,,,,,137,fulla,Catalan,Sounds/cat_fulla.mp3,2020-06-12_20h53.05.746,TranslationElicitation_eng-prolific,3.2.4,Win32,60,5ec54a7637927134ac7d3dc3,3.231000185,1,0,81,31,1,80
,,,,,,,,,,,,,,,,,,,,,,,,,,,,,,,,,,,,,,,,,,,,,,,,,,,,137,fulla,Catalan,Sounds/cat_fulla.mp3,2020-06-12_20h53.05.746,TranslationElicitation_eng-prolific,3.2.4,Win32,60,5ec54a7637927134ac7d3dc3,,1,0,81,31,1,80
,,,,,,,,,,,,,,,,,,,,,,,,,,,,,,,,,,,,,,,,,,p,1.820999861,P,FALSE,,,,,,,168,planta,Catalan,Sounds/cat_planta.mp3,2020-06-12_20h53.05.746,TranslationElicitation_eng-prolific,3.2.4,Win32,60,5ec54a7637927134ac7d3dc3,,1,0,81,60,1,80
,,,,,,,,,,,,,,,,,,,,,,,,,,,,,,,,,,,,,,,,,,l,1.980000019,PL,FALSE,,,,,,,168,planta,Catalan,Sounds/cat_planta.mp3,2020-06-12_20h53.05.746,TranslationElicitation_eng-prolific,3.2.4,Win32,60,5ec54a7637927134ac7d3dc3,,1,0,81,60,1,80
,,,,,,,,,,,,,,,,,,,,,,,,,,,,,,,,,,,,,,,,,,a,2.078000069,PLA,FALSE,,,,,,,168,planta,Catalan,Sounds/cat_planta.mp3,2020-06-12_20h53.05.746,TranslationElicitation_eng-prolific,3.2.4,Win32,60,5ec54a7637927134ac7d3dc3,,1,0,81,60,1,80
,,,,,,,,,,,,,,,,,,,,,,,,,,,,,,,,,,,,,,,,,,t,2.404000044,PLAT,FALSE,,,,,,,168,planta,Catalan,Sounds/cat_planta.mp3,2020-06-12_20h53.05.746,TranslationElicitation_eng-prolific,3.2.4,Win32,60,5ec54a7637927134ac7d3dc3,,1,0,81,60,1,80
,,,,,,,,,,,,,,,,,,,,,,,,,,,,,,,,,,,,,,,,,,a,2.59800005,PLATA,FALSE,,,,,,,168,planta,Catalan,Sounds/cat_planta.mp3,2020-06-12_20h53.05.746,TranslationElicitation_eng-prolific,3.2.4,Win32,60,5ec54a7637927134ac7d3dc3,,1,0,81,60,1,80
,,,,,,,,,,,,,,,,,,,,,,,,,,,,,,,,,,,,,,,,,,return,2.72300005,PLATA,FALSE,,,,,,,168,planta,Catalan,Sounds/cat_planta.mp3,2020-06-12_20h53.05.746,TranslationElicitation_eng-prolific,3.2.4,Win32,60,5ec54a7637927134ac7d3dc3,2.72300005,1,0,81,60,1,80
,,,,,,,,,,,,,,,,,,,,,,,,,,,,,,,,,,,,,,,,,,,,,,,,,,,,168,planta,Catalan,Sounds/cat_planta.mp3,2020-06-12_20h53.05.746,TranslationElicitation_eng-prolific,3.2.4,Win32,60,5ec54a7637927134ac7d3dc3,,1,0,81,60,1,80
,,,,,,,,,,,,,,,,,,,,,,,,,,,,,,,,,,,,,,,,,,p,1.480000019,P,FALSE,,,,,,,169,plat,Catalan,Sounds/cat_plat.mp3,2020-06-12_20h53.05.746,TranslationElicitation_eng-prolific,3.2.4,Win32,60,5ec54a7637927134ac7d3dc3,,1,0,81,61,1,80
,,,,,,,,,,,,,,,,,,,,,,,,,,,,,,,,,,,,,,,,,,l,1.786000013,PL,FALSE,,,,,,,169,plat,Catalan,Sounds/cat_plat.mp3,2020-06-12_20h53.05.746,TranslationElicitation_eng-prolific,3.2.4,Win32,60,5ec54a7637927134ac7d3dc3,,1,0,81,61,1,80
,,,,,,,,,,,,,,,,,,,,,,,,,,,,,,,,,,,,,,,,,,a,2.078000069,PLA,FALSE,,,,,,,169,plat,Catalan,Sounds/cat_plat.mp3,2020-06-12_20h53.05.746,TranslationElicitation_eng-prolific,3.2.4,Win32,60,5ec54a7637927134ac7d3dc3,,1,0,81,61,1,80
,,,,,,,,,,,,,,,,,,,,,,,,,,,,,,,,,,,,,,,,,,t,2.30700016,PLAT,FALSE,,,,,,,169,plat,Catalan,Sounds/cat_plat.mp3,2020-06-12_20h53.05.746,TranslationElicitation_eng-prolific,3.2.4,Win32,60,5ec54a7637927134ac7d3dc3,,1,0,81,61,1,80
,,,,,,,,,,,,,,,,,,,,,,,,,,,,,,,,,,,,,,,,,,return,2.473999977,PLAT,FALSE,,,,,,,169,plat,Catalan,Sounds/cat_plat.mp3,2020-06-12_20h53.05.746,TranslationElicitation_eng-prolific,3.2.4,Win32,60,5ec54a7637927134ac7d3dc3,2.473999977,1,0,81,61,1,80
,,,,,,,,,,,,,,,,,,,,,,,,,,,,,,,,,,,,,,,,,,,,,,,,,,,,169,plat,Catalan,Sounds/cat_plat.mp3,2020-06-12_20h53.05.746,TranslationElicitation_eng-prolific,3.2.4,Win32,60,5ec54a7637927134ac7d3dc3,,1,0,81,61,1,80
,,,,,,,,,,,,,,,,,,,,,,,,,,,,,,,,,,,,,,,,,,c,1.326999903,C,FALSE,,,,,,,120,cama,Catalan,Sounds/cat_cama.mp3,2020-06-12_20h53.05.746,TranslationElicitation_eng-prolific,3.2.4,Win32,60,5ec54a7637927134ac7d3dc3,,1,0,81,15,1,80
,,,,,,,,,,,,,,,,,,,,,,,,,,,,,,,,,,,,,,,,,,a,1.625999928,CA,FALSE,,,,,,,120,cama,Catalan,Sounds/cat_cama.mp3,2020-06-12_20h53.05.746,TranslationElicitation_eng-prolific,3.2.4,Win32,60,5ec54a7637927134ac7d3dc3,,1,0,81,15,1,80
,,,,,,,,,,,,,,,,,,,,,,,,,,,,,,,,,,,,,,,,,,a,1.931999922,CAA,FALSE,,,,,,,120,cama,Catalan,Sounds/cat_cama.mp3,2020-06-12_20h53.05.746,TranslationElicitation_eng-prolific,3.2.4,Win32,60,5ec54a7637927134ac7d3dc3,,1,0,81,15,1,80
,,,,,,,,,,,,,,,,,,,,,,,,,,,,,,,,,,,,,,,,,,m,2.001999855,CAAM,FALSE,,,,,,,120,cama,Catalan,Sounds/cat_cama.mp3,2020-06-12_20h53.05.746,TranslationElicitation_eng-prolific,3.2.4,Win32,60,5ec54a7637927134ac7d3dc3,,1,0,81,15,1,80
,,,,,,,,,,,,,,,,,,,,,,,,,,,,,,,,,,,,,,,,,,backspace,2.299999952,CAA,TRUE,,,,,,,120,cama,Catalan,Sounds/cat_cama.mp3,2020-06-12_20h53.05.746,TranslationElicitation_eng-prolific,3.2.4,Win32,60,5ec54a7637927134ac7d3dc3,,1,0,81,15,1,80
,,,,,,,,,,,,,,,,,,,,,,,,,,,,,,,,,,,,,,,,,,backspace,2.487999916,CA,TRUE,,,,,,,120,cama,Catalan,Sounds/cat_cama.mp3,2020-06-12_20h53.05.746,TranslationElicitation_eng-prolific,3.2.4,Win32,60,5ec54a7637927134ac7d3dc3,,1,0,81,15,1,80
,,,,,,,,,,,,,,,,,,,,,,,,,,,,,,,,,,,,,,,,,,m,2.681999922,CAM,TRUE,,,,,,,120,cama,Catalan,Sounds/cat_cama.mp3,2020-06-12_20h53.05.746,TranslationElicitation_eng-prolific,3.2.4,Win32,60,5ec54a7637927134ac7d3dc3,,1,0,81,15,1,80
,,,,,,,,,,,,,,,,,,,,,,,,,,,,,,,,,,,,,,,,,,a,2.737999916,CAMA,TRUE,,,,,,,120,cama,Catalan,Sounds/cat_cama.mp3,2020-06-12_20h53.05.746,TranslationElicitation_eng-prolific,3.2.4,Win32,60,5ec54a7637927134ac7d3dc3,,1,0,81,15,1,80
,,,,,,,,,,,,,,,,,,,,,,,,,,,,,,,,,,,,,,,,,,return,2.903999805,CAMA,TRUE,,,,,,,120,cama,Catalan,Sounds/cat_cama.mp3,2020-06-12_20h53.05.746,TranslationElicitation_eng-prolific,3.2.4,Win32,60,5ec54a7637927134ac7d3dc3,2.903999805,1,0,81,15,1,80
,,,,,,,,,,,,,,,,,,,,,,,,,,,,,,,,,,,,,,,,,,,,,,,,,,,,120,cama,Catalan,Sounds/cat_cama.mp3,2020-06-12_20h53.05.746,TranslationElicitation_eng-prolific,3.2.4,Win32,60,5ec54a7637927134ac7d3dc3,,1,0,81,15,1,80
,,,,,,,,,,,,,,,,,,,,,,,,,,,,,,,,,,,,,,,,,,u,1.555000067,U,FALSE,,,,,,,185,ulleres,Catalan,Sounds/cat_ulleres.mp3,2020-06-12_20h53.05.746,TranslationElicitation_eng-prolific,3.2.4,Win32,60,5ec54a7637927134ac7d3dc3,,1,0,81,76,1,80
,,,,,,,,,,,,,,,,,,,,,,,,,,,,,,,,,,,,,,,,,,l,1.799000025,UL,FALSE,,,,,,,185,ulleres,Catalan,Sounds/cat_ulleres.mp3,2020-06-12_20h53.05.746,TranslationElicitation_eng-prolific,3.2.4,Win32,60,5ec54a7637927134ac7d3dc3,,1,0,81,76,1,80
,,,,,,,,,,,,,,,,,,,,,,,,,,,,,,,,,,,,,,,,,,e,3.006999969,ULE,FALSE,,,,,,,185,ulleres,Catalan,Sounds/cat_ulleres.mp3,2020-06-12_20h53.05.746,TranslationElicitation_eng-prolific,3.2.4,Win32,60,5ec54a7637927134ac7d3dc3,,1,0,81,76,1,80
,,,,,,,,,,,,,,,,,,,,,,,,,,,,,,,,,,,,,,,,,,r,3.180999994,ULER,FALSE,,,,,,,185,ulleres,Catalan,Sounds/cat_ulleres.mp3,2020-06-12_20h53.05.746,TranslationElicitation_eng-prolific,3.2.4,Win32,60,5ec54a7637927134ac7d3dc3,,1,0,81,76,1,80
,,,,,,,,,,,,,,,,,,,,,,,,,,,,,,,,,,,,,,,,,,s,3.548000097,ULERS,FALSE,,,,,,,185,ulleres,Catalan,Sounds/cat_ulleres.mp3,2020-06-12_20h53.05.746,TranslationElicitation_eng-prolific,3.2.4,Win32,60,5ec54a7637927134ac7d3dc3,,1,0,81,76,1,80
,,,,,,,,,,,,,,,,,,,,,,,,,,,,,,,,,,,,,,,,,,backspace,4.065000057,ULER,TRUE,,,,,,,185,ulleres,Catalan,Sounds/cat_ulleres.mp3,2020-06-12_20h53.05.746,TranslationElicitation_eng-prolific,3.2.4,Win32,60,5ec54a7637927134ac7d3dc3,,1,0,81,76,1,80
,,,,,,,,,,,,,,,,,,,,,,,,,,,,,,,,,,,,,,,,,,a,4.160000086,ULERA,TRUE,,,,,,,185,ulleres,Catalan,Sounds/cat_ulleres.mp3,2020-06-12_20h53.05.746,TranslationElicitation_eng-prolific,3.2.4,Win32,60,5ec54a7637927134ac7d3dc3,,1,0,81,76,1,80
,,,,,,,,,,,,,,,,,,,,,,,,,,,,,,,,,,,,,,,,,,s,4.332000017,ULERAS,TRUE,,,,,,,185,ulleres,Catalan,Sounds/cat_ulleres.mp3,2020-06-12_20h53.05.746,TranslationElicitation_eng-prolific,3.2.4,Win32,60,5ec54a7637927134ac7d3dc3,,1,0,81,76,1,80
,,,,,,,,,,,,,,,,,,,,,,,,,,,,,,,,,,,,,,,,,,return,4.424999952,ULERAS,TRUE,,,,,,,185,ulleres,Catalan,Sounds/cat_ulleres.mp3,2020-06-12_20h53.05.746,TranslationElicitation_eng-prolific,3.2.4,Win32,60,5ec54a7637927134ac7d3dc3,4.424999952,1,0,81,76,1,80
,,,,,,,,,,,,,,,,,,,,,,,,,,,,,,,,,,,,,,,,,,,,,,,,,,,,185,ulleres,Catalan,Sounds/cat_ulleres.mp3,2020-06-12_20h53.05.746,TranslationElicitation_eng-prolific,3.2.4,Win32,60,5ec54a7637927134ac7d3dc3,,1,0,81,76,1,80
,,,,,,,,,,,,,,,,,,,,,,,,,,,,,,,,,,,,,,,,,,e,1.353999853,E,FALSE,,,,,,,130,entrepa,Catalan,Sounds/cat_entrepa.mp3,2020-06-12_20h53.05.746,TranslationElicitation_eng-prolific,3.2.4,Win32,60,5ec54a7637927134ac7d3dc3,,1,0,81,24,1,80
,,,,,,,,,,,,,,,,,,,,,,,,,,,,,,,,,,,,,,,,,,n,1.575999975,EN,FALSE,,,,,,,130,entrepa,Catalan,Sounds/cat_entrepa.mp3,2020-06-12_20h53.05.746,TranslationElicitation_eng-prolific,3.2.4,Win32,60,5ec54a7637927134ac7d3dc3,,1,0,81,24,1,80
,,,,,,,,,,,,,,,,,,,,,,,,,,,,,,,,,,,,,,,,,,t,1.735999823,ENT,FALSE,,,,,,,130,entrepa,Catalan,Sounds/cat_entrepa.mp3,2020-06-12_20h53.05.746,TranslationElicitation_eng-prolific,3.2.4,Win32,60,5ec54a7637927134ac7d3dc3,,1,0,81,24,1,80
,,,,,,,,,,,,,,,,,,,,,,,,,,,,,,,,,,,,,,,,,,r,2.049999952,ENTR,FALSE,,,,,,,130,entrepa,Catalan,Sounds/cat_entrepa.mp3,2020-06-12_20h53.05.746,TranslationElicitation_eng-prolific,3.2.4,Win32,60,5ec54a7637927134ac7d3dc3,,1,0,81,24,1,80
,,,,,,,,,,,,,,,,,,,,,,,,,,,,,,,,,,,,,,,,,,a,2.306999922,ENTRA,FALSE,,,,,,,130,entrepa,Catalan,Sounds/cat_entrepa.mp3,2020-06-12_20h53.05.746,TranslationElicitation_eng-prolific,3.2.4,Win32,60,5ec54a7637927134ac7d3dc3,,1,0,81,24,1,80
,,,,,,,,,,,,,,,,,,,,,,,,,,,,,,,,,,,,,,,,,,p,2.549999952,ENTRAP,FALSE,,,,,,,130,entrepa,Catalan,Sounds/cat_entrepa.mp3,2020-06-12_20h53.05.746,TranslationElicitation_eng-prolific,3.2.4,Win32,60,5ec54a7637927134ac7d3dc3,,1,0,81,24,1,80
,,,,,,,,,,,,,,,,,,,,,,,,,,,,,,,,,,,,,,,,,,a,2.730000019,ENTRAPA,FALSE,,,,,,,130,entrepa,Catalan,Sounds/cat_entrepa.mp3,2020-06-12_20h53.05.746,TranslationElicitation_eng-prolific,3.2.4,Win32,60,5ec54a7637927134ac7d3dc3,,1,0,81,24,1,80
,,,,,,,,,,,,,,,,,,,,,,,,,,,,,,,,,,,,,,,,,,l,2.786000013,ENTRAPAL,FALSE,,,,,,,130,entrepa,Catalan,Sounds/cat_entrepa.mp3,2020-06-12_20h53.05.746,TranslationElicitation_eng-prolific,3.2.4,Win32,60,5ec54a7637927134ac7d3dc3,,1,0,81,24,1,80
,,,,,,,,,,,,,,,,,,,,,,,,,,,,,,,,,,,,,,,,,,return,2.958999872,ENTRAPAL,FALSE,,,,,,,130,entrepa,Catalan,Sounds/cat_entrepa.mp3,2020-06-12_20h53.05.746,TranslationElicitation_eng-prolific,3.2.4,Win32,60,5ec54a7637927134ac7d3dc3,2.958999872,1,0,81,24,1,80
,,,,,,,,,,,,,,,,,,,,,,,,,,,,,,,,,,,,,,,,,,,,,,,,,,,,130,entrepa,Catalan,Sounds/cat_entrepa.mp3,2020-06-12_20h53.05.746,TranslationElicitation_eng-prolific,3.2.4,Win32,60,5ec54a7637927134ac7d3dc3,,1,0,81,24,1,80
,,,,,,,,,,,,,,,,,,,,,,,,,,,,,,,,,,,,,,,,,,p,0.950000048,P,FALSE,,,,,,,164,patata,Catalan,Sounds/cat_patata.mp3,2020-06-12_20h53.05.746,TranslationElicitation_eng-prolific,3.2.4,Win32,60,5ec54a7637927134ac7d3dc3,,1,0,81,56,1,80
,,,,,,,,,,,,,,,,,,,,,,,,,,,,,,,,,,,,,,,,,,a,1.145999908,PA,FALSE,,,,,,,164,patata,Catalan,Sounds/cat_patata.mp3,2020-06-12_20h53.05.746,TranslationElicitation_eng-prolific,3.2.4,Win32,60,5ec54a7637927134ac7d3dc3,,1,0,81,56,1,80
,,,,,,,,,,,,,,,,,,,,,,,,,,,,,,,,,,,,,,,,,,t,1.46600008,PAT,FALSE,,,,,,,164,patata,Catalan,Sounds/cat_patata.mp3,2020-06-12_20h53.05.746,TranslationElicitation_eng-prolific,3.2.4,Win32,60,5ec54a7637927134ac7d3dc3,,1,0,81,56,1,80
,,,,,,,,,,,,,,,,,,,,,,,,,,,,,,,,,,,,,,,,,,a,1.694999933,PATA,FALSE,,,,,,,164,patata,Catalan,Sounds/cat_patata.mp3,2020-06-12_20h53.05.746,TranslationElicitation_eng-prolific,3.2.4,Win32,60,5ec54a7637927134ac7d3dc3,,1,0,81,56,1,80
,,,,,,,,,,,,,,,,,,,,,,,,,,,,,,,,,,,,,,,,,,p,1.875999928,PATAP,FALSE,,,,,,,164,patata,Catalan,Sounds/cat_patata.mp3,2020-06-12_20h53.05.746,TranslationElicitation_eng-prolific,3.2.4,Win32,60,5ec54a7637927134ac7d3dc3,,1,0,81,56,1,80
,,,,,,,,,,,,,,,,,,,,,,,,,,,,,,,,,,,,,,,,,,backspace,2.250999928,PATA,TRUE,,,,,,,164,patata,Catalan,Sounds/cat_patata.mp3,2020-06-12_20h53.05.746,TranslationElicitation_eng-prolific,3.2.4,Win32,60,5ec54a7637927134ac7d3dc3,,1,0,81,56,1,80
,,,,,,,,,,,,,,,,,,,,,,,,,,,,,,,,,,,,,,,,,,t,2.417000055,PATAT,TRUE,,,,,,,164,patata,Catalan,Sounds/cat_patata.mp3,2020-06-12_20h53.05.746,TranslationElicitation_eng-prolific,3.2.4,Win32,60,5ec54a7637927134ac7d3dc3,,1,0,81,56,1,80
,,,,,,,,,,,,,,,,,,,,,,,,,,,,,,,,,,,,,,,,,,a,2.513999939,PATATA,TRUE,,,,,,,164,patata,Catalan,Sounds/cat_patata.mp3,2020-06-12_20h53.05.746,TranslationElicitation_eng-prolific,3.2.4,Win32,60,5ec54a7637927134ac7d3dc3,,1,0,81,56,1,80
,,,,,,,,,,,,,,,,,,,,,,,,,,,,,,,,,,,,,,,,,,return,2.631999969,PATATA,TRUE,,,,,,,164,patata,Catalan,Sounds/cat_patata.mp3,2020-06-12_20h53.05.746,TranslationElicitation_eng-prolific,3.2.4,Win32,60,5ec54a7637927134ac7d3dc3,2.631999969,1,0,81,56,1,80
,,,,,,,,,,,,,,,,,,,,,,,,,,,,,,,,,,,,,,,,,,,,,,,,,,,,164,patata,Catalan,Sounds/cat_patata.mp3,2020-06-12_20h53.05.746,TranslationElicitation_eng-prolific,3.2.4,Win32,60,5ec54a7637927134ac7d3dc3,,1,0,81,56,1,80
,,,,,,,,,,,,,,,,,,,,,,,,,,,,,,,,,,,,,,,,,,l,1.882999897,L,FALSE,,,,,,,151,lluna,Catalan,Sounds/cat_lluna.mp3,2020-06-12_20h53.05.746,TranslationElicitation_eng-prolific,3.2.4,Win32,60,5ec54a7637927134ac7d3dc3,,1,0,81,44,1,80
,,,,,,,,,,,,,,,,,,,,,,,,,,,,,,,,,,,,,,,,,,o,2.125999928,LO,FALSE,,,,,,,151,lluna,Catalan,Sounds/cat_lluna.mp3,2020-06-12_20h53.05.746,TranslationElicitation_eng-prolific,3.2.4,Win32,60,5ec54a7637927134ac7d3dc3,,1,0,81,44,1,80
,,,,,,,,,,,,,,,,,,,,,,,,,,,,,,,,,,,,,,,,,,o,2.328000069,LOO,FALSE,,,,,,,151,lluna,Catalan,Sounds/cat_lluna.mp3,2020-06-12_20h53.05.746,TranslationElicitation_eng-prolific,3.2.4,Win32,60,5ec54a7637927134ac7d3dc3,,1,0,81,44,1,80
,,,,,,,,,,,,,,,,,,,,,,,,,,,,,,,,,,,,,,,,,,n,2.570999861,LOON,FALSE,,,,,,,151,lluna,Catalan,Sounds/cat_lluna.mp3,2020-06-12_20h53.05.746,TranslationElicitation_eng-prolific,3.2.4,Win32,60,5ec54a7637927134ac7d3dc3,,1,0,81,44,1,80
,,,,,,,,,,,,,,,,,,,,,,,,,,,,,,,,,,,,,,,,,,a,2.701999903,LOONA,FALSE,,,,,,,151,lluna,Catalan,Sounds/cat_lluna.mp3,2020-06-12_20h53.05.746,TranslationElicitation_eng-prolific,3.2.4,Win32,60,5ec54a7637927134ac7d3dc3,,1,0,81,44,1,80
,,,,,,,,,,,,,,,,,,,,,,,,,,,,,,,,,,,,,,,,,,return,2.839999914,LOONA,FALSE,,,,,,,151,lluna,Catalan,Sounds/cat_lluna.mp3,2020-06-12_20h53.05.746,TranslationElicitation_eng-prolific,3.2.4,Win32,60,5ec54a7637927134ac7d3dc3,2.839999914,1,0,81,44,1,80
,,,,,,,,,,,,,,,,,,,,,,,,,,,,,,,,,,,,,,,,,,,,,,,,,,,,151,lluna,Catalan,Sounds/cat_lluna.mp3,2020-06-12_20h53.05.746,TranslationElicitation_eng-prolific,3.2.4,Win32,60,5ec54a7637927134ac7d3dc3,,1,0,81,44,1,80
,,,,,,,,,,,,,,,,,,,,,,,,,,,,,,,,,,,,,,,,,,c,3.203000069,C,FALSE,,,,,,,140,gat,Catalan,Sounds/cat_gat.mp3,2020-06-12_20h53.05.746,TranslationElicitation_eng-prolific,3.2.4,Win32,60,5ec54a7637927134ac7d3dc3,,1,0,81,34,1,80
,,,,,,,,,,,,,,,,,,,,,,,,,,,,,,,,,,,,,,,,,,a,3.453000069,CA,FALSE,,,,,,,140,gat,Catalan,Sounds/cat_gat.mp3,2020-06-12_20h53.05.746,TranslationElicitation_eng-prolific,3.2.4,Win32,60,5ec54a7637927134ac7d3dc3,,1,0,81,34,1,80
,,,,,,,,,,,,,,,,,,,,,,,,,,,,,,,,,,,,,,,,,,t,3.806999922,CAT,FALSE,,,,,,,140,gat,Catalan,Sounds/cat_gat.mp3,2020-06-12_20h53.05.746,TranslationElicitation_eng-prolific,3.2.4,Win32,60,5ec54a7637927134ac7d3dc3,,1,0,81,34,1,80
,,,,,,,,,,,,,,,,,,,,,,,,,,,,,,,,,,,,,,,,,,return,4.022000074,CAT,FALSE,,,,,,,140,gat,Catalan,Sounds/cat_gat.mp3,2020-06-12_20h53.05.746,TranslationElicitation_eng-prolific,3.2.4,Win32,60,5ec54a7637927134ac7d3dc3,4.022000074,1,0,81,34,1,80
,,,,,,,,,,,,,,,,,,,,,,,,,,,,,,,,,,,,,,,,,,,,,,,,,,,,140,gat,Catalan,Sounds/cat_gat.mp3,2020-06-12_20h53.05.746,TranslationElicitation_eng-prolific,3.2.4,Win32,60,5ec54a7637927134ac7d3dc3,,1,0,81,34,1,80
,,,,,,,,,,,,,,,,,,,,,,,,,,,,,,,,,,,,,,,,,,m,1.261000156,M,FALSE,,,,,,,155,moneda,Catalan,Sounds/cat_moneda.mp3,2020-06-12_20h53.05.746,TranslationElicitation_eng-prolific,3.2.4,Win32,60,5ec54a7637927134ac7d3dc3,,1,0,81,48,1,80
,,,,,,,,,,,,,,,,,,,,,,,,,,,,,,,,,,,,,,,,,,u,1.605000019,MU,FALSE,,,,,,,155,moneda,Catalan,Sounds/cat_moneda.mp3,2020-06-12_20h53.05.746,TranslationElicitation_eng-prolific,3.2.4,Win32,60,5ec54a7637927134ac7d3dc3,,1,0,81,48,1,80
,,,,,,,,,,,,,,,,,,,,,,,,,,,,,,,,,,,,,,,,,,n,1.96600008,MUN,FALSE,,,,,,,155,moneda,Catalan,Sounds/cat_moneda.mp3,2020-06-12_20h53.05.746,TranslationElicitation_eng-prolific,3.2.4,Win32,60,5ec54a7637927134ac7d3dc3,,1,0,81,48,1,80
,,,,,,,,,,,,,,,,,,,,,,,,,,,,,,,,,,,,,,,,,,r,2.393000126,MUNR,FALSE,,,,,,,155,moneda,Catalan,Sounds/cat_moneda.mp3,2020-06-12_20h53.05.746,TranslationElicitation_eng-prolific,3.2.4,Win32,60,5ec54a7637927134ac7d3dc3,,1,0,81,48,1,80
,,,,,,,,,,,,,,,,,,,,,,,,,,,,,,,,,,,,,,,,,,backspace,2.80700016,MUN,TRUE,,,,,,,155,moneda,Catalan,Sounds/cat_moneda.mp3,2020-06-12_20h53.05.746,TranslationElicitation_eng-prolific,3.2.4,Win32,60,5ec54a7637927134ac7d3dc3,,1,0,81,48,1,80
,,,,,,,,,,,,,,,,,,,,,,,,,,,,,,,,,,,,,,,,,,e,3.139000177,MUNE,TRUE,,,,,,,155,moneda,Catalan,Sounds/cat_moneda.mp3,2020-06-12_20h53.05.746,TranslationElicitation_eng-prolific,3.2.4,Win32,60,5ec54a7637927134ac7d3dc3,,1,0,81,48,1,80
,,,,,,,,,,,,,,,,,,,,,,,,,,,,,,,,,,,,,,,,,,r,3.319000006,MUNER,TRUE,,,,,,,155,moneda,Catalan,Sounds/cat_moneda.mp3,2020-06-12_20h53.05.746,TranslationElicitation_eng-prolific,3.2.4,Win32,60,5ec54a7637927134ac7d3dc3,,1,0,81,48,1,80
,,,,,,,,,,,,,,,,,,,,,,,,,,,,,,,,,,,,,,,,,,d,3.514000177,MUNERD,TRUE,,,,,,,155,moneda,Catalan,Sounds/cat_moneda.mp3,2020-06-12_20h53.05.746,TranslationElicitation_eng-prolific,3.2.4,Win32,60,5ec54a7637927134ac7d3dc3,,1,0,81,48,1,80
,,,,,,,,,,,,,,,,,,,,,,,,,,,,,,,,,,,,,,,,,,a,3.743000031,MUNERDA,TRUE,,,,,,,155,moneda,Catalan,Sounds/cat_moneda.mp3,2020-06-12_20h53.05.746,TranslationElicitation_eng-prolific,3.2.4,Win32,60,5ec54a7637927134ac7d3dc3,,1,0,81,48,1,80
,,,,,,,,,,,,,,,,,,,,,,,,,,,,,,,,,,,,,,,,,,return,3.894999981,MUNERDA,TRUE,,,,,,,155,moneda,Catalan,Sounds/cat_moneda.mp3,2020-06-12_20h53.05.746,TranslationElicitation_eng-prolific,3.2.4,Win32,60,5ec54a7637927134ac7d3dc3,3.894999981,1,0,81,48,1,80
,,,,,,,,,,,,,,,,,,,,,,,,,,,,,,,,,,,,,,,,,,,,,,,,,,,,155,moneda,Catalan,Sounds/cat_moneda.mp3,2020-06-12_20h53.05.746,TranslationElicitation_eng-prolific,3.2.4,Win32,60,5ec54a7637927134ac7d3dc3,,1,0,81,48,1,80
,,,,,,,,,,,,,,,,,,,,,,,,,,,,,,,,,,,,,,,,,,g,1.554999828,G,FALSE,,,,,,,146,guitarra,Catalan,Sounds/cat_guitarra.mp3,2020-06-12_20h53.05.746,TranslationElicitation_eng-prolific,3.2.4,Win32,60,5ec54a7637927134ac7d3dc3,,1,0,81,40,1,80
,,,,,,,,,,,,,,,,,,,,,,,,,,,,,,,,,,,,,,,,,,u,1.880999804,GU,FALSE,,,,,,,146,guitarra,Catalan,Sounds/cat_guitarra.mp3,2020-06-12_20h53.05.746,TranslationElicitation_eng-prolific,3.2.4,Win32,60,5ec54a7637927134ac7d3dc3,,1,0,81,40,1,80
,,,,,,,,,,,,,,,,,,,,,,,,,,,,,,,,,,,,,,,,,,i,2.53399992,GUI,FALSE,,,,,,,146,guitarra,Catalan,Sounds/cat_guitarra.mp3,2020-06-12_20h53.05.746,TranslationElicitation_eng-prolific,3.2.4,Win32,60,5ec54a7637927134ac7d3dc3,,1,0,81,40,1,80
,,,,,,,,,,,,,,,,,,,,,,,,,,,,,,,,,,,,,,,,,,t,2.694999933,GUIT,FALSE,,,,,,,146,guitarra,Catalan,Sounds/cat_guitarra.mp3,2020-06-12_20h53.05.746,TranslationElicitation_eng-prolific,3.2.4,Win32,60,5ec54a7637927134ac7d3dc3,,1,0,81,40,1,80
,,,,,,,,,,,,,,,,,,,,,,,,,,,,,,,,,,,,,,,,,,a,2.950999975,GUITA,FALSE,,,,,,,146,guitarra,Catalan,Sounds/cat_guitarra.mp3,2020-06-12_20h53.05.746,TranslationElicitation_eng-prolific,3.2.4,Win32,60,5ec54a7637927134ac7d3dc3,,1,0,81,40,1,80
,,,,,,,,,,,,,,,,,,,,,,,,,,,,,,,,,,,,,,,,,,r,3.166999817,GUITAR,FALSE,,,,,,,146,guitarra,Catalan,Sounds/cat_guitarra.mp3,2020-06-12_20h53.05.746,TranslationElicitation_eng-prolific,3.2.4,Win32,60,5ec54a7637927134ac7d3dc3,,1,0,81,40,1,80
,,,,,,,,,,,,,,,,,,,,,,,,,,,,,,,,,,,,,,,,,,a,3.394999981,GUITARA,FALSE,,,,,,,146,guitarra,Catalan,Sounds/cat_guitarra.mp3,2020-06-12_20h53.05.746,TranslationElicitation_eng-prolific,3.2.4,Win32,60,5ec54a7637927134ac7d3dc3,,1,0,81,40,1,80
,,,,,,,,,,,,,,,,,,,,,,,,,,,,,,,,,,,,,,,,,,return,3.492999792,GUITARA,FALSE,,,,,,,146,guitarra,Catalan,Sounds/cat_guitarra.mp3,2020-06-12_20h53.05.746,TranslationElicitation_eng-prolific,3.2.4,Win32,60,5ec54a7637927134ac7d3dc3,3.492999792,1,0,81,40,1,80
,,,,,,,,,,,,,,,,,,,,,,,,,,,,,,,,,,,,,,,,,,,,,,,,,,,,146,guitarra,Catalan,Sounds/cat_guitarra.mp3,2020-06-12_20h53.05.746,TranslationElicitation_eng-prolific,3.2.4,Win32,60,5ec54a7637927134ac7d3dc3,,1,0,81,40,1,80
,,,,,,,,,,,,,,,,,,,,,,,,,,,,,,,,,,,,,,,,,,e,2.506999969,E,FALSE,,,,,,,133,estruc,Catalan,Sounds/cat_estruc.mp3,2020-06-12_20h53.05.746,TranslationElicitation_eng-prolific,3.2.4,Win32,60,5ec54a7637927134ac7d3dc3,,1,0,81,27,1,80
,,,,,,,,,,,,,,,,,,,,,,,,,,,,,,,,,,,,,,,,,,s,2.778000116,ES,FALSE,,,,,,,133,estruc,Catalan,Sounds/cat_estruc.mp3,2020-06-12_20h53.05.746,TranslationElicitation_eng-prolific,3.2.4,Win32,60,5ec54a7637927134ac7d3dc3,,1,0,81,27,1,80
,,,,,,,,,,,,,,,,,,,,,,,,,,,,,,,,,,,,,,,,,,space,2.937999964,ES ,FALSE,,,,,,,133,estruc,Catalan,Sounds/cat_estruc.mp3,2020-06-12_20h53.05.746,TranslationElicitation_eng-prolific,3.2.4,Win32,60,5ec54a7637927134ac7d3dc3,,1,0,81,27,1,80
,,,,,,,,,,,,,,,,,,,,,,,,,,,,,,,,,,,,,,,,,,s,3.143000126,ES S,FALSE,,,,,,,133,estruc,Catalan,Sounds/cat_estruc.mp3,2020-06-12_20h53.05.746,TranslationElicitation_eng-prolific,3.2.4,Win32,60,5ec54a7637927134ac7d3dc3,,1,0,81,27,1,80
,,,,,,,,,,,,,,,,,,,,,,,,,,,,,,,,,,,,,,,,,,t,3.472000122,ES ST,FALSE,,,,,,,133,estruc,Catalan,Sounds/cat_estruc.mp3,2020-06-12_20h53.05.746,TranslationElicitation_eng-prolific,3.2.4,Win32,60,5ec54a7637927134ac7d3dc3,,1,0,81,27,1,80
,,,,,,,,,,,,,,,,,,,,,,,,,,,,,,,,,,,,,,,,,,r,3.667000055,ES STR,FALSE,,,,,,,133,estruc,Catalan,Sounds/cat_estruc.mp3,2020-06-12_20h53.05.746,TranslationElicitation_eng-prolific,3.2.4,Win32,60,5ec54a7637927134ac7d3dc3,,1,0,81,27,1,80
,,,,,,,,,,,,,,,,,,,,,,,,,,,,,,,,,,,,,,,,,,o,4.131999969,ES STRO,FALSE,,,,,,,133,estruc,Catalan,Sounds/cat_estruc.mp3,2020-06-12_20h53.05.746,TranslationElicitation_eng-prolific,3.2.4,Win32,60,5ec54a7637927134ac7d3dc3,,1,0,81,27,1,80
,,,,,,,,,,,,,,,,,,,,,,,,,,,,,,,,,,,,,,,,,,o,4.298000097,ES STROO,FALSE,,,,,,,133,estruc,Catalan,Sounds/cat_estruc.mp3,2020-06-12_20h53.05.746,TranslationElicitation_eng-prolific,3.2.4,Win32,60,5ec54a7637927134ac7d3dc3,,1,0,81,27,1,80
,,,,,,,,,,,,,,,,,,,,,,,,,,,,,,,,,,,,,,,,,,s,4.403000116,ES STROOS,FALSE,,,,,,,133,estruc,Catalan,Sounds/cat_estruc.mp3,2020-06-12_20h53.05.746,TranslationElicitation_eng-prolific,3.2.4,Win32,60,5ec54a7637927134ac7d3dc3,,1,0,81,27,1,80
,,,,,,,,,,,,,,,,,,,,,,,,,,,,,,,,,,,,,,,,,,return,4.528000116,ES STROOS,FALSE,,,,,,,133,estruc,Catalan,Sounds/cat_estruc.mp3,2020-06-12_20h53.05.746,TranslationElicitation_eng-prolific,3.2.4,Win32,60,5ec54a7637927134ac7d3dc3,4.528000116,1,0,81,27,1,80
,,,,,,,,,,,,,,,,,,,,,,,,,,,,,,,,,,,,,,,,,,,,,,,,,,,,133,estruc,Catalan,Sounds/cat_estruc.mp3,2020-06-12_20h53.05.746,TranslationElicitation_eng-prolific,3.2.4,Win32,60,5ec54a7637927134ac7d3dc3,,1,0,81,27,1,80
,,,,,,,,,,,,,,,,,,,,,,,,,,,,,,,,,,,,,,,,,,c,1.297999859,C,FALSE,,,,,,,122,casa,Catalan,Sounds/cat_casa.mp3,2020-06-12_20h53.05.746,TranslationElicitation_eng-prolific,3.2.4,Win32,60,5ec54a7637927134ac7d3dc3,,1,0,81,17,1,80
,,,,,,,,,,,,,,,,,,,,,,,,,,,,,,,,,,,,,,,,,,a,1.52699995,CA,FALSE,,,,,,,122,casa,Catalan,Sounds/cat_casa.mp3,2020-06-12_20h53.05.746,TranslationElicitation_eng-prolific,3.2.4,Win32,60,5ec54a7637927134ac7d3dc3,,1,0,81,17,1,80
,,,,,,,,,,,,,,,,,,,,,,,,,,,,,,,,,,,,,,,,,,s,1.707999945,CAS,FALSE,,,,,,,122,casa,Catalan,Sounds/cat_casa.mp3,2020-06-12_20h53.05.746,TranslationElicitation_eng-prolific,3.2.4,Win32,60,5ec54a7637927134ac7d3dc3,,1,0,81,17,1,80
,,,,,,,,,,,,,,,,,,,,,,,,,,,,,,,,,,,,,,,,,,a,1.930999994,CASA,FALSE,,,,,,,122,casa,Catalan,Sounds/cat_casa.mp3,2020-06-12_20h53.05.746,TranslationElicitation_eng-prolific,3.2.4,Win32,60,5ec54a7637927134ac7d3dc3,,1,0,81,17,1,80
,,,,,,,,,,,,,,,,,,,,,,,,,,,,,,,,,,,,,,,,,,return,2.103999853,CASA,FALSE,,,,,,,122,casa,Catalan,Sounds/cat_casa.mp3,2020-06-12_20h53.05.746,TranslationElicitation_eng-prolific,3.2.4,Win32,60,5ec54a7637927134ac7d3dc3,2.103999853,1,0,81,17,1,80
,,,,,,,,,,,,,,,,,,,,,,,,,,,,,,,,,,,,,,,,,,,,,,,,,,,,122,casa,Catalan,Sounds/cat_casa.mp3,2020-06-12_20h53.05.746,TranslationElicitation_eng-prolific,3.2.4,Win32,60,5ec54a7637927134ac7d3dc3,,1,0,81,17,1,80
,,,,,,,,,,,,,,,,,,,,,,,,,,,,,,,,,,,,,,,,,,h,1.631999969,H,FALSE,,,,,,,104,abella,Catalan,Sounds/cat_abella.mp3,2020-06-12_20h53.05.746,TranslationElicitation_eng-prolific,3.2.4,Win32,60,5ec54a7637927134ac7d3dc3,,1,0,81,0,1,80
,,,,,,,,,,,,,,,,,,,,,,,,,,,,,,,,,,,,,,,,,,a,1.840000153,HA,FALSE,,,,,,,104,abella,Catalan,Sounds/cat_abella.mp3,2020-06-12_20h53.05.746,TranslationElicitation_eng-prolific,3.2.4,Win32,60,5ec54a7637927134ac7d3dc3,,1,0,81,0,1,80
,,,,,,,,,,,,,,,,,,,,,,,,,,,,,,,,,,,,,,,,,,v,2.069000006,HAV,FALSE,,,,,,,104,abella,Catalan,Sounds/cat_abella.mp3,2020-06-12_20h53.05.746,TranslationElicitation_eng-prolific,3.2.4,Win32,60,5ec54a7637927134ac7d3dc3,,1,0,81,0,1,80
,,,,,,,,,,,,,,,,,,,,,,,,,,,,,,,,,,,,,,,,,,e,2.278000116,HAVE,FALSE,,,,,,,104,abella,Catalan,Sounds/cat_abella.mp3,2020-06-12_20h53.05.746,TranslationElicitation_eng-prolific,3.2.4,Win32,60,5ec54a7637927134ac7d3dc3,,1,0,81,0,1,80
,,,,,,,,,,,,,,,,,,,,,,,,,,,,,,,,,,,,,,,,,,l,2.423000097,HAVEL,FALSE,,,,,,,104,abella,Catalan,Sounds/cat_abella.mp3,2020-06-12_20h53.05.746,TranslationElicitation_eng-prolific,3.2.4,Win32,60,5ec54a7637927134ac7d3dc3,,1,0,81,0,1,80
,,,,,,,,,,,,,,,,,,,,,,,,,,,,,,,,,,,,,,,,,,l,2.590000153,HAVELL,FALSE,,,,,,,104,abella,Catalan,Sounds/cat_abella.mp3,2020-06-12_20h53.05.746,TranslationElicitation_eng-prolific,3.2.4,Win32,60,5ec54a7637927134ac7d3dc3,,1,0,81,0,1,80
,,,,,,,,,,,,,,,,,,,,,,,,,,,,,,,,,,,,,,,,,,return,2.819000006,HAVELL,FALSE,,,,,,,104,abella,Catalan,Sounds/cat_abella.mp3,2020-06-12_20h53.05.746,TranslationElicitation_eng-prolific,3.2.4,Win32,60,5ec54a7637927134ac7d3dc3,2.819000006,1,0,81,0,1,80
,,,,,,,,,,,,,,,,,,,,,,,,,,,,,,,,,,,,,,,,,,,,,,,,,,,,104,abella,Catalan,Sounds/cat_abella.mp3,2020-06-12_20h53.05.746,TranslationElicitation_eng-prolific,3.2.4,Win32,60,5ec54a7637927134ac7d3dc3,,1,0,81,0,1,80
,,,,,,,,,,,,,,,,,,,,,,,,,,,,,,,,,,,,,,,,,,l,1.743000031,L,FALSE,,,,,,,148,lleo,Catalan,Sounds/cat_lleo.mp3,2020-06-12_20h53.05.746,TranslationElicitation_eng-prolific,3.2.4,Win32,60,5ec54a7637927134ac7d3dc3,,1,0,81,41,1,80
,,,,,,,,,,,,,,,,,,,,,,,,,,,,,,,,,,,,,,,,,,o,2.147000074,LO,FALSE,,,,,,,148,lleo,Catalan,Sounds/cat_lleo.mp3,2020-06-12_20h53.05.746,TranslationElicitation_eng-prolific,3.2.4,Win32,60,5ec54a7637927134ac7d3dc3,,1,0,81,41,1,80
,,,,,,,,,,,,,,,,,,,,,,,,,,,,,,,,,,,,,,,,,,backspace,2.41899991,L,TRUE,,,,,,,148,lleo,Catalan,Sounds/cat_lleo.mp3,2020-06-12_20h53.05.746,TranslationElicitation_eng-prolific,3.2.4,Win32,60,5ec54a7637927134ac7d3dc3,,1,0,81,41,1,80
,,,,,,,,,,,,,,,,,,,,,,,,,,,,,,,,,,,,,,,,,,a,2.585000038,LA,TRUE,,,,,,,148,lleo,Catalan,Sounds/cat_lleo.mp3,2020-06-12_20h53.05.746,TranslationElicitation_eng-prolific,3.2.4,Win32,60,5ec54a7637927134ac7d3dc3,,1,0,81,41,1,80
,,,,,,,,,,,,,,,,,,,,,,,,,,,,,,,,,,,,,,,,,,h,3.183000088,LAH,TRUE,,,,,,,148,lleo,Catalan,Sounds/cat_lleo.mp3,2020-06-12_20h53.05.746,TranslationElicitation_eng-prolific,3.2.4,Win32,60,5ec54a7637927134ac7d3dc3,,1,0,81,41,1,80
,,,,,,,,,,,,,,,,,,,,,,,,,,,,,,,,,,,,,,,,,,o,3.306999922,LAHO,TRUE,,,,,,,148,lleo,Catalan,Sounds/cat_lleo.mp3,2020-06-12_20h53.05.746,TranslationElicitation_eng-prolific,3.2.4,Win32,60,5ec54a7637927134ac7d3dc3,,1,0,81,41,1,80
,,,,,,,,,,,,,,,,,,,,,,,,,,,,,,,,,,,,,,,,,,return,3.453000069,LAHO,TRUE,,,,,,,148,lleo,Catalan,Sounds/cat_lleo.mp3,2020-06-12_20h53.05.746,TranslationElicitation_eng-prolific,3.2.4,Win32,60,5ec54a7637927134ac7d3dc3,3.453000069,1,0,81,41,1,80
,,,,,,,,,,,,,,,,,,,,,,,,,,,,,,,,,,,,,,,,,,,,,,,,,,,,148,lleo,Catalan,Sounds/cat_lleo.mp3,2020-06-12_20h53.05.746,TranslationElicitation_eng-prolific,3.2.4,Win32,60,5ec54a7637927134ac7d3dc3,,1,0,81,41,1,80
,,,,,,,,,,,,,,,,,,,,,,,,,,,,,,,,,,,,,,,,,,a,1.207000017,A,FALSE,,,,,,,132,estrella,Catalan,Sounds/cat_estrella.mp3,2020-06-12_20h53.05.746,TranslationElicitation_eng-prolific,3.2.4,Win32,60,5ec54a7637927134ac7d3dc3,,1,0,81,26,1,80
,,,,,,,,,,,,,,,,,,,,,,,,,,,,,,,,,,,,,,,,,,u,1.477999926,AU,FALSE,,,,,,,132,estrella,Catalan,Sounds/cat_estrella.mp3,2020-06-12_20h53.05.746,TranslationElicitation_eng-prolific,3.2.4,Win32,60,5ec54a7637927134ac7d3dc3,,1,0,81,26,1,80
,,,,,,,,,,,,,,,,,,,,,,,,,,,,,,,,,,,,,,,,,,s,1.638999939,AUS,FALSE,,,,,,,132,estrella,Catalan,Sounds/cat_estrella.mp3,2020-06-12_20h53.05.746,TranslationElicitation_eng-prolific,3.2.4,Win32,60,5ec54a7637927134ac7d3dc3,,1,0,81,26,1,80
,,,,,,,,,,,,,,,,,,,,,,,,,,,,,,,,,,,,,,,,,,t,2.020999908,AUST,FALSE,,,,,,,132,estrella,Catalan,Sounds/cat_estrella.mp3,2020-06-12_20h53.05.746,TranslationElicitation_eng-prolific,3.2.4,Win32,60,5ec54a7637927134ac7d3dc3,,1,0,81,26,1,80
,,,,,,,,,,,,,,,,,,,,,,,,,,,,,,,,,,,,,,,,,,r,2.31799984,AUSTR,FALSE,,,,,,,132,estrella,Catalan,Sounds/cat_estrella.mp3,2020-06-12_20h53.05.746,TranslationElicitation_eng-prolific,3.2.4,Win32,60,5ec54a7637927134ac7d3dc3,,1,0,81,26,1,80
,,,,,,,,,,,,,,,,,,,,,,,,,,,,,,,,,,,,,,,,,,a,2.846999884,AUSTRA,FALSE,,,,,,,132,estrella,Catalan,Sounds/cat_estrella.mp3,2020-06-12_20h53.05.746,TranslationElicitation_eng-prolific,3.2.4,Win32,60,5ec54a7637927134ac7d3dc3,,1,0,81,26,1,80
,,,,,,,,,,,,,,,,,,,,,,,,,,,,,,,,,,,,,,,,,,i,3.006999969,AUSTRAI,FALSE,,,,,,,132,estrella,Catalan,Sounds/cat_estrella.mp3,2020-06-12_20h53.05.746,TranslationElicitation_eng-prolific,3.2.4,Win32,60,5ec54a7637927134ac7d3dc3,,1,0,81,26,1,80
,,,,,,,,,,,,,,,,,,,,,,,,,,,,,,,,,,,,,,,,,,l,3.430999994,AUSTRAIL,FALSE,,,,,,,132,estrella,Catalan,Sounds/cat_estrella.mp3,2020-06-12_20h53.05.746,TranslationElicitation_eng-prolific,3.2.4,Win32,60,5ec54a7637927134ac7d3dc3,,1,0,81,26,1,80
,,,,,,,,,,,,,,,,,,,,,,,,,,,,,,,,,,,,,,,,,,i,3.763999939,AUSTRAILI,FALSE,,,,,,,132,estrella,Catalan,Sounds/cat_estrella.mp3,2020-06-12_20h53.05.746,TranslationElicitation_eng-prolific,3.2.4,Win32,60,5ec54a7637927134ac7d3dc3,,1,0,81,26,1,80
,,,,,,,,,,,,,,,,,,,,,,,,,,,,,,,,,,,,,,,,,,a,3.902999878,AUSTRAILIA,FALSE,,,,,,,132,estrella,Catalan,Sounds/cat_estrella.mp3,2020-06-12_20h53.05.746,TranslationElicitation_eng-prolific,3.2.4,Win32,60,5ec54a7637927134ac7d3dc3,,1,0,81,26,1,80
,,,,,,,,,,,,,,,,,,,,,,,,,,,,,,,,,,,,,,,,,,return,4.041999817,AUSTRAILIA,FALSE,,,,,,,132,estrella,Catalan,Sounds/cat_estrella.mp3,2020-06-12_20h53.05.746,TranslationElicitation_eng-prolific,3.2.4,Win32,60,5ec54a7637927134ac7d3dc3,4.041999817,1,0,81,26,1,80
,,,,,,,,,,,,,,,,,,,,,,,,,,,,,,,,,,,,,,,,,,,,,,,,,,,,132,estrella,Catalan,Sounds/cat_estrella.mp3,2020-06-12_20h53.05.746,TranslationElicitation_eng-prolific,3.2.4,Win32,60,5ec54a7637927134ac7d3dc3,,1,0,81,26,1,80
,,,,,,,,,,,,,,,,,,,,,,,,,,,,,,,,,,,,,,,,,,f,1.417000055,F,FALSE,,,,,,,134,flor,Catalan,Sounds/cat_flor.mp3,2020-06-12_20h53.05.746,TranslationElicitation_eng-prolific,3.2.4,Win32,60,5ec54a7637927134ac7d3dc3,,1,0,81,28,1,80
,,,,,,,,,,,,,,,,,,,,,,,,,,,,,,,,,,,,,,,,,,l,1.562999964,FL,FALSE,,,,,,,134,flor,Catalan,Sounds/cat_flor.mp3,2020-06-12_20h53.05.746,TranslationElicitation_eng-prolific,3.2.4,Win32,60,5ec54a7637927134ac7d3dc3,,1,0,81,28,1,80
,,,,,,,,,,,,,,,,,,,,,,,,,,,,,,,,,,,,,,,,,,o,1.757999897,FLO,FALSE,,,,,,,134,flor,Catalan,Sounds/cat_flor.mp3,2020-06-12_20h53.05.746,TranslationElicitation_eng-prolific,3.2.4,Win32,60,5ec54a7637927134ac7d3dc3,,1,0,81,28,1,80
,,,,,,,,,,,,,,,,,,,,,,,,,,,,,,,,,,,,,,,,,,o,1.897000074,FLOO,FALSE,,,,,,,134,flor,Catalan,Sounds/cat_flor.mp3,2020-06-12_20h53.05.746,TranslationElicitation_eng-prolific,3.2.4,Win32,60,5ec54a7637927134ac7d3dc3,,1,0,81,28,1,80
,,,,,,,,,,,,,,,,,,,,,,,,,,,,,,,,,,,,,,,,,,r,2.000999928,FLOOR,FALSE,,,,,,,134,flor,Catalan,Sounds/cat_flor.mp3,2020-06-12_20h53.05.746,TranslationElicitation_eng-prolific,3.2.4,Win32,60,5ec54a7637927134ac7d3dc3,,1,0,81,28,1,80
,,,,,,,,,,,,,,,,,,,,,,,,,,,,,,,,,,,,,,,,,,return,2.118999958,FLOOR,FALSE,,,,,,,134,flor,Catalan,Sounds/cat_flor.mp3,2020-06-12_20h53.05.746,TranslationElicitation_eng-prolific,3.2.4,Win32,60,5ec54a7637927134ac7d3dc3,2.118999958,1,0,81,28,1,80
,,,,,,,,,,,,,,,,,,,,,,,,,,,,,,,,,,,,,,,,,,,,,,,,,,,,134,flor,Catalan,Sounds/cat_flor.mp3,2020-06-12_20h53.05.746,TranslationElicitation_eng-prolific,3.2.4,Win32,60,5ec54a7637927134ac7d3dc3,,1,0,81,28,1,80
,,,,,,,,,,,,,,,,,,,,,,,,,,,,,,,,,,,,,,,,,,m,1.687999964,M,FALSE,,,,,,,156,moto,Catalan,Sounds/cat_moto.mp3,2020-06-12_20h53.05.746,TranslationElicitation_eng-prolific,3.2.4,Win32,60,5ec54a7637927134ac7d3dc3,,1,0,81,49,1,80
,,,,,,,,,,,,,,,,,,,,,,,,,,,,,,,,,,,,,,,,,,o,2.174000025,MO,FALSE,,,,,,,156,moto,Catalan,Sounds/cat_moto.mp3,2020-06-12_20h53.05.746,TranslationElicitation_eng-prolific,3.2.4,Win32,60,5ec54a7637927134ac7d3dc3,,1,0,81,49,1,80
,,,,,,,,,,,,,,,,,,,,,,,,,,,,,,,,,,,,,,,,,,t,2.611999989,MOT,FALSE,,,,,,,156,moto,Catalan,Sounds/cat_moto.mp3,2020-06-12_20h53.05.746,TranslationElicitation_eng-prolific,3.2.4,Win32,60,5ec54a7637927134ac7d3dc3,,1,0,81,49,1,80
,,,,,,,,,,,,,,,,,,,,,,,,,,,,,,,,,,,,,,,,,,o,3.097999811,MOTO,FALSE,,,,,,,156,moto,Catalan,Sounds/cat_moto.mp3,2020-06-12_20h53.05.746,TranslationElicitation_eng-prolific,3.2.4,Win32,60,5ec54a7637927134ac7d3dc3,,1,0,81,49,1,80
,,,,,,,,,,,,,,,,,,,,,,,,,,,,,,,,,,,,,,,,,,return,3.270999908,MOTO,FALSE,,,,,,,156,moto,Catalan,Sounds/cat_moto.mp3,2020-06-12_20h53.05.746,TranslationElicitation_eng-prolific,3.2.4,Win32,60,5ec54a7637927134ac7d3dc3,3.270999908,1,0,81,49,1,80
,,,,,,,,,,,,,,,,,,,,,,,,,,,,,,,,,,,,,,,,,,,,,,,,,,,,156,moto,Catalan,Sounds/cat_moto.mp3,2020-06-12_20h53.05.746,TranslationElicitation_eng-prolific,3.2.4,Win32,60,5ec54a7637927134ac7d3dc3,,1,0,81,49,1,80
,,,,,,,,,,,,,,,,,,,,,,,,,,,,,,,,,,,,,,,,,,a,1.598999977,A,FALSE,,,,,,,106,aixeta,Catalan,Sounds/cat_aixeta.mp3,2020-06-12_20h53.05.746,TranslationElicitation_eng-prolific,3.2.4,Win32,60,5ec54a7637927134ac7d3dc3,,1,0,81,2,1,80
,,,,,,,,,,,,,,,,,,,,,,,,,,,,,,,,,,,,,,,,,,space,1.876999855,A ,FALSE,,,,,,,106,aixeta,Catalan,Sounds/cat_aixeta.mp3,2020-06-12_20h53.05.746,TranslationElicitation_eng-prolific,3.2.4,Win32,60,5ec54a7637927134ac7d3dc3,,1,0,81,2,1,80
,,,,,,,,,,,,,,,,,,,,,,,,,,,,,,,,,,,,,,,,,,s,2.195999861,A S,FALSE,,,,,,,106,aixeta,Catalan,Sounds/cat_aixeta.mp3,2020-06-12_20h53.05.746,TranslationElicitation_eng-prolific,3.2.4,Win32,60,5ec54a7637927134ac7d3dc3,,1,0,81,2,1,80
,,,,,,,,,,,,,,,,,,,,,,,,,,,,,,,,,,,,,,,,,,h,2.896999836,A SH,FALSE,,,,,,,106,aixeta,Catalan,Sounds/cat_aixeta.mp3,2020-06-12_20h53.05.746,TranslationElicitation_eng-prolific,3.2.4,Win32,60,5ec54a7637927134ac7d3dc3,,1,0,81,2,1,80
,,,,,,,,,,,,,,,,,,,,,,,,,,,,,,,,,,,,,,,,,,e,3.070999861,A SHE,FALSE,,,,,,,106,aixeta,Catalan,Sounds/cat_aixeta.mp3,2020-06-12_20h53.05.746,TranslationElicitation_eng-prolific,3.2.4,Win32,60,5ec54a7637927134ac7d3dc3,,1,0,81,2,1,80
,,,,,,,,,,,,,,,,,,,,,,,,,,,,,,,,,,,,,,,,,,d,3.258999825,A SHED,FALSE,,,,,,,106,aixeta,Catalan,Sounds/cat_aixeta.mp3,2020-06-12_20h53.05.746,TranslationElicitation_eng-prolific,3.2.4,Win32,60,5ec54a7637927134ac7d3dc3,,1,0,81,2,1,80
,,,,,,,,,,,,,,,,,,,,,,,,,,,,,,,,,,,,,,,,,,return,3.445999861,A SHED,FALSE,,,,,,,106,aixeta,Catalan,Sounds/cat_aixeta.mp3,2020-06-12_20h53.05.746,TranslationElicitation_eng-prolific,3.2.4,Win32,60,5ec54a7637927134ac7d3dc3,3.445999861,1,0,81,2,1,80
,,,,,,,,,,,,,,,,,,,,,,,,,,,,,,,,,,,,,,,,,,,,,,,,,,,,106,aixeta,Catalan,Sounds/cat_aixeta.mp3,2020-06-12_20h53.05.746,TranslationElicitation_eng-prolific,3.2.4,Win32,60,5ec54a7637927134ac7d3dc3,,1,0,81,2,1,80
,,,,,,,,,,,,,,,,,,,,,,,,,,,,,,,,,,,,,,,,,,b,1.498999834,B,FALSE,,,,,,,110,berenar,Catalan,Sounds/cat_berenar.mp3,2020-06-12_20h53.05.746,TranslationElicitation_eng-prolific,3.2.4,Win32,60,5ec54a7637927134ac7d3dc3,,1,0,81,5,1,80
,,,,,,,,,,,,,,,,,,,,,,,,,,,,,,,,,,,,,,,,,,r,1.730000019,BR,FALSE,,,,,,,110,berenar,Catalan,Sounds/cat_berenar.mp3,2020-06-12_20h53.05.746,TranslationElicitation_eng-prolific,3.2.4,Win32,60,5ec54a7637927134ac7d3dc3,,1,0,81,5,1,80
,,,,,,,,,,,,,,,,,,,,,,,,,,,,,,,,,,,,,,,,,,n,2.090999842,BRN,FALSE,,,,,,,110,berenar,Catalan,Sounds/cat_berenar.mp3,2020-06-12_20h53.05.746,TranslationElicitation_eng-prolific,3.2.4,Win32,60,5ec54a7637927134ac7d3dc3,,1,0,81,5,1,80
,,,,,,,,,,,,,,,,,,,,,,,,,,,,,,,,,,,,,,,,,,backspace,2.465999842,BR,TRUE,,,,,,,110,berenar,Catalan,Sounds/cat_berenar.mp3,2020-06-12_20h53.05.746,TranslationElicitation_eng-prolific,3.2.4,Win32,60,5ec54a7637927134ac7d3dc3,,1,0,81,5,1,80
,,,,,,,,,,,,,,,,,,,,,,,,,,,,,,,,,,,,,,,,,,a,2.596999884,BRA,TRUE,,,,,,,110,berenar,Catalan,Sounds/cat_berenar.mp3,2020-06-12_20h53.05.746,TranslationElicitation_eng-prolific,3.2.4,Win32,60,5ec54a7637927134ac7d3dc3,,1,0,81,5,1,80
,,,,,,,,,,,,,,,,,,,,,,,,,,,,,,,,,,,,,,,,,,n,2.743999958,BRAN,TRUE,,,,,,,110,berenar,Catalan,Sounds/cat_berenar.mp3,2020-06-12_20h53.05.746,TranslationElicitation_eng-prolific,3.2.4,Win32,60,5ec54a7637927134ac7d3dc3,,1,0,81,5,1,80
,,,,,,,,,,,,,,,,,,,,,,,,,,,,,,,,,,,,,,,,,,a,2.904000044,BRANA,TRUE,,,,,,,110,berenar,Catalan,Sounds/cat_berenar.mp3,2020-06-12_20h53.05.746,TranslationElicitation_eng-prolific,3.2.4,Win32,60,5ec54a7637927134ac7d3dc3,,1,0,81,5,1,80
,,,,,,,,,,,,,,,,,,,,,,,,,,,,,,,,,,,,,,,,,,return,3.021999836,BRANA,TRUE,,,,,,,110,berenar,Catalan,Sounds/cat_berenar.mp3,2020-06-12_20h53.05.746,TranslationElicitation_eng-prolific,3.2.4,Win32,60,5ec54a7637927134ac7d3dc3,3.021999836,1,0,81,5,1,80
,,,,,,,,,,,,,,,,,,,,,,,,,,,,,,,,,,,,,,,,,,,,,,,,,,,,110,berenar,Catalan,Sounds/cat_berenar.mp3,2020-06-12_20h53.05.746,TranslationElicitation_eng-prolific,3.2.4,Win32,60,5ec54a7637927134ac7d3dc3,,1,0,81,5,1,80
,,,,,,,,,,,,,,,,,,,,,,,,,,,,,,,,,,,,,,,,,,m,2.021999836,M,FALSE,,,,,,,152,ma,Catalan,Sounds/cat_ma.mp3,2020-06-12_20h53.05.746,TranslationElicitation_eng-prolific,3.2.4,Win32,60,5ec54a7637927134ac7d3dc3,,1,0,81,45,1,80
,,,,,,,,,,,,,,,,,,,,,,,,,,,,,,,,,,,,,,,,,,a,2.286000013,MA,FALSE,,,,,,,152,ma,Catalan,Sounds/cat_ma.mp3,2020-06-12_20h53.05.746,TranslationElicitation_eng-prolific,3.2.4,Win32,60,5ec54a7637927134ac7d3dc3,,1,0,81,45,1,80
,,,,,,,,,,,,,,,,,,,,,,,,,,,,,,,,,,,,,,,,,,r,2.751999855,MAR,FALSE,,,,,,,152,ma,Catalan,Sounds/cat_ma.mp3,2020-06-12_20h53.05.746,TranslationElicitation_eng-prolific,3.2.4,Win32,60,5ec54a7637927134ac7d3dc3,,1,0,81,45,1,80
,,,,,,,,,,,,,,,,,,,,,,,,,,,,,,,,,,,,,,,,,,return,2.862999916,MAR,FALSE,,,,,,,152,ma,Catalan,Sounds/cat_ma.mp3,2020-06-12_20h53.05.746,TranslationElicitation_eng-prolific,3.2.4,Win32,60,5ec54a7637927134ac7d3dc3,2.862999916,1,0,81,45,1,80
,,,,,,,,,,,,,,,,,,,,,,,,,,,,,,,,,,,,,,,,,,,,,,,,,,,,152,ma,Catalan,Sounds/cat_ma.mp3,2020-06-12_20h53.05.746,TranslationElicitation_eng-prolific,3.2.4,Win32,60,5ec54a7637927134ac7d3dc3,,1,0,81,45,1,80
,,,,,,,,,,,,,,,,,,,,,,,,,,,,,,,,,,,,,,,,,,c,2.076999903,C,FALSE,,,,,,,128,cuc,Catalan,Sounds/cat_cuc.mp3,2020-06-12_20h53.05.746,TranslationElicitation_eng-prolific,3.2.4,Win32,60,5ec54a7637927134ac7d3dc3,,1,0,81,22,1,80
,,,,,,,,,,,,,,,,,,,,,,,,,,,,,,,,,,,,,,,,,,o,2.215999842,CO,FALSE,,,,,,,128,cuc,Catalan,Sounds/cat_cuc.mp3,2020-06-12_20h53.05.746,TranslationElicitation_eng-prolific,3.2.4,Win32,60,5ec54a7637927134ac7d3dc3,,1,0,81,22,1,80
,,,,,,,,,,,,,,,,,,,,,,,,,,,,,,,,,,,,,,,,,,o,2.368999958,COO,FALSE,,,,,,,128,cuc,Catalan,Sounds/cat_cuc.mp3,2020-06-12_20h53.05.746,TranslationElicitation_eng-prolific,3.2.4,Win32,60,5ec54a7637927134ac7d3dc3,,1,0,81,22,1,80
,,,,,,,,,,,,,,,,,,,,,,,,,,,,,,,,,,,,,,,,,,k,2.514999866,COOK,FALSE,,,,,,,128,cuc,Catalan,Sounds/cat_cuc.mp3,2020-06-12_20h53.05.746,TranslationElicitation_eng-prolific,3.2.4,Win32,60,5ec54a7637927134ac7d3dc3,,1,0,81,22,1,80
,,,,,,,,,,,,,,,,,,,,,,,,,,,,,,,,,,,,,,,,,,return,2.743999958,COOK,FALSE,,,,,,,128,cuc,Catalan,Sounds/cat_cuc.mp3,2020-06-12_20h53.05.746,TranslationElicitation_eng-prolific,3.2.4,Win32,60,5ec54a7637927134ac7d3dc3,2.743999958,1,0,81,22,1,80
,,,,,,,,,,,,,,,,,,,,,,,,,,,,,,,,,,,,,,,,,,,,,,,,,,,,128,cuc,Catalan,Sounds/cat_cuc.mp3,2020-06-12_20h53.05.746,TranslationElicitation_eng-prolific,3.2.4,Win32,60,5ec54a7637927134ac7d3dc3,,1,0,81,22,1,80
,,,,,,,,,,,,,,,,,,,,,,,,,,,,,,,,,,,,,,,,,,p,1.298000097,P,FALSE,,,,,,,171,pollastre,Catalan,Sounds/cat_pollastre.mp3,2020-06-12_20h53.05.746,TranslationElicitation_eng-prolific,3.2.4,Win32,60,5ec54a7637927134ac7d3dc3,,1,0,81,63,1,80
,,,,,,,,,,,,,,,,,,,,,,,,,,,,,,,,,,,,,,,,,,o,2.050000191,PO,FALSE,,,,,,,171,pollastre,Catalan,Sounds/cat_pollastre.mp3,2020-06-12_20h53.05.746,TranslationElicitation_eng-prolific,3.2.4,Win32,60,5ec54a7637927134ac7d3dc3,,1,0,81,63,1,80
,,,,,,,,,,,,,,,,,,,,,,,,,,,,,,,,,,,,,,,,,,l,2.202000141,POL,FALSE,,,,,,,171,pollastre,Catalan,Sounds/cat_pollastre.mp3,2020-06-12_20h53.05.746,TranslationElicitation_eng-prolific,3.2.4,Win32,60,5ec54a7637927134ac7d3dc3,,1,0,81,63,1,80
,,,,,,,,,,,,,,,,,,,,,,,,,,,,,,,,,,,,,,,,,,a,2.355000019,POLA,FALSE,,,,,,,171,pollastre,Catalan,Sounds/cat_pollastre.mp3,2020-06-12_20h53.05.746,TranslationElicitation_eng-prolific,3.2.4,Win32,60,5ec54a7637927134ac7d3dc3,,1,0,81,63,1,80
,,,,,,,,,,,,,,,,,,,,,,,,,,,,,,,,,,,,,,,,,,s,2.985000134,POLAS,FALSE,,,,,,,171,pollastre,Catalan,Sounds/cat_pollastre.mp3,2020-06-12_20h53.05.746,TranslationElicitation_eng-prolific,3.2.4,Win32,60,5ec54a7637927134ac7d3dc3,,1,0,81,63,1,80
,,,,,,,,,,,,,,,,,,,,,,,,,,,,,,,,,,,,,,,,,,t,3.376000166,POLAST,FALSE,,,,,,,171,pollastre,Catalan,Sounds/cat_pollastre.mp3,2020-06-12_20h53.05.746,TranslationElicitation_eng-prolific,3.2.4,Win32,60,5ec54a7637927134ac7d3dc3,,1,0,81,63,1,80
,,,,,,,,,,,,,,,,,,,,,,,,,,,,,,,,,,,,,,,,,,r,3.883000135,POLASTR,FALSE,,,,,,,171,pollastre,Catalan,Sounds/cat_pollastre.mp3,2020-06-12_20h53.05.746,TranslationElicitation_eng-prolific,3.2.4,Win32,60,5ec54a7637927134ac7d3dc3,,1,0,81,63,1,80
,,,,,,,,,,,,,,,,,,,,,,,,,,,,,,,,,,,,,,,,,,a,4.131000042,POLASTRA,FALSE,,,,,,,171,pollastre,Catalan,Sounds/cat_pollastre.mp3,2020-06-12_20h53.05.746,TranslationElicitation_eng-prolific,3.2.4,Win32,60,5ec54a7637927134ac7d3dc3,,1,0,81,63,1,80
,,,,,,,,,,,,,,,,,,,,,,,,,,,,,,,,,,,,,,,,,,return,4.251000166,POLASTRA,FALSE,,,,,,,171,pollastre,Catalan,Sounds/cat_pollastre.mp3,2020-06-12_20h53.05.746,TranslationElicitation_eng-prolific,3.2.4,Win32,60,5ec54a7637927134ac7d3dc3,4.251000166,1,0,81,63,1,80
,,,,,,,,,,,,,,,,,,,,,,,,,,,,,,,,,,,,,,,,,,,,,,,,,,,,171,pollastre,Catalan,Sounds/cat_pollastre.mp3,2020-06-12_20h53.05.746,TranslationElicitation_eng-prolific,3.2.4,Win32,60,5ec54a7637927134ac7d3dc3,,1,0,81,63,1,80
,,,,,,,,,,,,,,,,,,,,,,,,,,,,,,,,,,,,,,,,,,g,1.953000069,G,FALSE,,,,,,,143,globus,Catalan,Sounds/cat_globus.mp3,2020-06-12_20h53.05.746,TranslationElicitation_eng-prolific,3.2.4,Win32,60,5ec54a7637927134ac7d3dc3,,1,0,81,37,1,80
,,,,,,,,,,,,,,,,,,,,,,,,,,,,,,,,,,,,,,,,,,l,2.570000172,GL,FALSE,,,,,,,143,globus,Catalan,Sounds/cat_globus.mp3,2020-06-12_20h53.05.746,TranslationElicitation_eng-prolific,3.2.4,Win32,60,5ec54a7637927134ac7d3dc3,,1,0,81,37,1,80
,,,,,,,,,,,,,,,,,,,,,,,,,,,,,,,,,,,,,,,,,,o,2.765000105,GLO,FALSE,,,,,,,143,globus,Catalan,Sounds/cat_globus.mp3,2020-06-12_20h53.05.746,TranslationElicitation_eng-prolific,3.2.4,Win32,60,5ec54a7637927134ac7d3dc3,,1,0,81,37,1,80
,,,,,,,,,,,,,,,,,,,,,,,,,,,,,,,,,,,,,,,,,,v,2.917999983,GLOV,FALSE,,,,,,,143,globus,Catalan,Sounds/cat_globus.mp3,2020-06-12_20h53.05.746,TranslationElicitation_eng-prolific,3.2.4,Win32,60,5ec54a7637927134ac7d3dc3,,1,0,81,37,1,80
,,,,,,,,,,,,,,,,,,,,,,,,,,,,,,,,,,,,,,,,,,e,3.09800005,GLOVE,FALSE,,,,,,,143,globus,Catalan,Sounds/cat_globus.mp3,2020-06-12_20h53.05.746,TranslationElicitation_eng-prolific,3.2.4,Win32,60,5ec54a7637927134ac7d3dc3,,1,0,81,37,1,80
,,,,,,,,,,,,,,,,,,,,,,,,,,,,,,,,,,,,,,,,,,s,3.292999983,GLOVES,FALSE,,,,,,,143,globus,Catalan,Sounds/cat_globus.mp3,2020-06-12_20h53.05.746,TranslationElicitation_eng-prolific,3.2.4,Win32,60,5ec54a7637927134ac7d3dc3,,1,0,81,37,1,80
,,,,,,,,,,,,,,,,,,,,,,,,,,,,,,,,,,,,,,,,,,return,3.355000019,GLOVES,FALSE,,,,,,,143,globus,Catalan,Sounds/cat_globus.mp3,2020-06-12_20h53.05.746,TranslationElicitation_eng-prolific,3.2.4,Win32,60,5ec54a7637927134ac7d3dc3,3.355000019,1,0,81,37,1,80
,,,,,,,,,,,,,,,,,,,,,,,,,,,,,,,,,,,,,,,,,,,,,,,,,,,,143,globus,Catalan,Sounds/cat_globus.mp3,2020-06-12_20h53.05.746,TranslationElicitation_eng-prolific,3.2.4,Win32,60,5ec54a7637927134ac7d3dc3,,1,0,81,37,1,80
,,,,,,,,,,,,,,,,,,,,,,,,,,,,,,,,,,,,,,,,,,o,1.596999884,O,FALSE,,,,,,,184,ull,Catalan,Sounds/cat_ull.mp3,2020-06-12_20h53.05.746,TranslationElicitation_eng-prolific,3.2.4,Win32,60,5ec54a7637927134ac7d3dc3,,1,0,81,75,1,80
,,,,,,,,,,,,,,,,,,,,,,,,,,,,,,,,,,,,,,,,,,o,1.769999981,OO,FALSE,,,,,,,184,ull,Catalan,Sounds/cat_ull.mp3,2020-06-12_20h53.05.746,TranslationElicitation_eng-prolific,3.2.4,Win32,60,5ec54a7637927134ac7d3dc3,,1,0,81,75,1,80
,,,,,,,,,,,,,,,,,,,,,,,,,,,,,,,,,,,,,,,,,,k,1.984999895,OOK,FALSE,,,,,,,184,ull,Catalan,Sounds/cat_ull.mp3,2020-06-12_20h53.05.746,TranslationElicitation_eng-prolific,3.2.4,Win32,60,5ec54a7637927134ac7d3dc3,,1,0,81,75,1,80
,,,,,,,,,,,,,,,,,,,,,,,,,,,,,,,,,,,,,,,,,,backspace,2.540999889,OO,TRUE,,,,,,,184,ull,Catalan,Sounds/cat_ull.mp3,2020-06-12_20h53.05.746,TranslationElicitation_eng-prolific,3.2.4,Win32,60,5ec54a7637927134ac7d3dc3,,1,0,81,75,1,80
,,,,,,,,,,,,,,,,,,,,,,,,,,,,,,,,,,,,,,,,,,backspace,2.763000011,O,TRUE,,,,,,,184,ull,Catalan,Sounds/cat_ull.mp3,2020-06-12_20h53.05.746,TranslationElicitation_eng-prolific,3.2.4,Win32,60,5ec54a7637927134ac7d3dc3,,1,0,81,75,1,80
,,,,,,,,,,,,,,,,,,,,,,,,,,,,,,,,,,,,,,,,,,w,2.944000006,OW,TRUE,,,,,,,184,ull,Catalan,Sounds/cat_ull.mp3,2020-06-12_20h53.05.746,TranslationElicitation_eng-prolific,3.2.4,Win32,60,5ec54a7637927134ac7d3dc3,,1,0,81,75,1,80
,,,,,,,,,,,,,,,,,,,,,,,,,,,,,,,,,,,,,,,,,,l,3.118000031,OWL,TRUE,,,,,,,184,ull,Catalan,Sounds/cat_ull.mp3,2020-06-12_20h53.05.746,TranslationElicitation_eng-prolific,3.2.4,Win32,60,5ec54a7637927134ac7d3dc3,,1,0,81,75,1,80
,,,,,,,,,,,,,,,,,,,,,,,,,,,,,,,,,,,,,,,,,,return,3.290999889,OWL,TRUE,,,,,,,184,ull,Catalan,Sounds/cat_ull.mp3,2020-06-12_20h53.05.746,TranslationElicitation_eng-prolific,3.2.4,Win32,60,5ec54a7637927134ac7d3dc3,3.290999889,1,0,81,75,1,80
,,,,,,,,,,,,,,,,,,,,,,,,,,,,,,,,,,,,,,,,,,,,,,,,,,,,184,ull,Catalan,Sounds/cat_ull.mp3,2020-06-12_20h53.05.746,TranslationElicitation_eng-prolific,3.2.4,Win32,60,5ec54a7637927134ac7d3dc3,,1,0,81,75,1,80
,,,,,,,,,,,,,,,,,,,,,,,,,,,,,,,,,,,,,,,,,,s,1.464999914,S,FALSE,,,,,,,188,xocolata,Catalan,Sounds/cat_xocolata.mp3,2020-06-12_20h53.05.746,TranslationElicitation_eng-prolific,3.2.4,Win32,60,5ec54a7637927134ac7d3dc3,,1,0,81,79,1,80
,,,,,,,,,,,,,,,,,,,,,,,,,,,,,,,,,,,,,,,,,,h,1.957999945,SH,FALSE,,,,,,,188,xocolata,Catalan,Sounds/cat_xocolata.mp3,2020-06-12_20h53.05.746,TranslationElicitation_eng-prolific,3.2.4,Win32,60,5ec54a7637927134ac7d3dc3,,1,0,81,79,1,80
,,,,,,,,,,,,,,,,,,,,,,,,,,,,,,,,,,,,,,,,,,o,2.153000116,SHO,FALSE,,,,,,,188,xocolata,Catalan,Sounds/cat_xocolata.mp3,2020-06-12_20h53.05.746,TranslationElicitation_eng-prolific,3.2.4,Win32,60,5ec54a7637927134ac7d3dc3,,1,0,81,79,1,80
,,,,,,,,,,,,,,,,,,,,,,,,,,,,,,,,,,,,,,,,,,k,2.403000116,SHOK,FALSE,,,,,,,188,xocolata,Catalan,Sounds/cat_xocolata.mp3,2020-06-12_20h53.05.746,TranslationElicitation_eng-prolific,3.2.4,Win32,60,5ec54a7637927134ac7d3dc3,,1,0,81,79,1,80
,,,,,,,,,,,,,,,,,,,,,,,,,,,,,,,,,,,,,,,,,,backspace,3.278000116,SHO,TRUE,,,,,,,188,xocolata,Catalan,Sounds/cat_xocolata.mp3,2020-06-12_20h53.05.746,TranslationElicitation_eng-prolific,3.2.4,Win32,60,5ec54a7637927134ac7d3dc3,,1,0,81,79,1,80
,,,,,,,,,,,,,,,,,,,,,,,,,,,,,,,,,,,,,,,,,,o,3.625,SHOO,TRUE,,,,,,,188,xocolata,Catalan,Sounds/cat_xocolata.mp3,2020-06-12_20h53.05.746,TranslationElicitation_eng-prolific,3.2.4,Win32,60,5ec54a7637927134ac7d3dc3,,1,0,81,79,1,80
,,,,,,,,,,,,,,,,,,,,,,,,,,,,,,,,,,,,,,,,,,k,3.812999964,SHOOK,TRUE,,,,,,,188,xocolata,Catalan,Sounds/cat_xocolata.mp3,2020-06-12_20h53.05.746,TranslationElicitation_eng-prolific,3.2.4,Win32,60,5ec54a7637927134ac7d3dc3,,1,0,81,79,1,80
,,,,,,,,,,,,,,,,,,,,,,,,,,,,,,,,,,,,,,,,,,o,4.138999939,SHOOKO,TRUE,,,,,,,188,xocolata,Catalan,Sounds/cat_xocolata.mp3,2020-06-12_20h53.05.746,TranslationElicitation_eng-prolific,3.2.4,Win32,60,5ec54a7637927134ac7d3dc3,,1,0,81,79,1,80
,,,,,,,,,,,,,,,,,,,,,,,,,,,,,,,,,,,,,,,,,,l,4.452000141,SHOOKOL,TRUE,,,,,,,188,xocolata,Catalan,Sounds/cat_xocolata.mp3,2020-06-12_20h53.05.746,TranslationElicitation_eng-prolific,3.2.4,Win32,60,5ec54a7637927134ac7d3dc3,,1,0,81,79,1,80
,,,,,,,,,,,,,,,,,,,,,,,,,,,,,,,,,,,,,,,,,,a,4.625999928,SHOOKOLA,TRUE,,,,,,,188,xocolata,Catalan,Sounds/cat_xocolata.mp3,2020-06-12_20h53.05.746,TranslationElicitation_eng-prolific,3.2.4,Win32,60,5ec54a7637927134ac7d3dc3,,1,0,81,79,1,80
,,,,,,,,,,,,,,,,,,,,,,,,,,,,,,,,,,,,,,,,,,t,4.930999994,SHOOKOLAT,TRUE,,,,,,,188,xocolata,Catalan,Sounds/cat_xocolata.mp3,2020-06-12_20h53.05.746,TranslationElicitation_eng-prolific,3.2.4,Win32,60,5ec54a7637927134ac7d3dc3,,1,0,81,79,1,80
,,,,,,,,,,,,,,,,,,,,,,,,,,,,,,,,,,,,,,,,,,a,5.180999994,SHOOKOLATA,TRUE,,,,,,,188,xocolata,Catalan,Sounds/cat_xocolata.mp3,2020-06-12_20h53.05.746,TranslationElicitation_eng-prolific,3.2.4,Win32,60,5ec54a7637927134ac7d3dc3,,1,0,81,79,1,80
,,,,,,,,,,,,,,,,,,,,,,,,,,,,,,,,,,,,,,,,,,return,5.327000141,SHOOKOLATA,TRUE,,,,,,,188,xocolata,Catalan,Sounds/cat_xocolata.mp3,2020-06-12_20h53.05.746,TranslationElicitation_eng-prolific,3.2.4,Win32,60,5ec54a7637927134ac7d3dc3,5.327000141,1,0,81,79,1,80
,,,,,,,,,,,,,,,,,,,,,,,,,,,,,,,,,,,,,,,,,,,,,,,,,,,,188,xocolata,Catalan,Sounds/cat_xocolata.mp3,2020-06-12_20h53.05.746,TranslationElicitation_eng-prolific,3.2.4,Win32,60,5ec54a7637927134ac7d3dc3,,1,0,81,79,1,80
,,,,,,,,,,,,,,,,,,,,,,,,,,,,,,,,,,,,,,,,,,c,1.777000189,C,FALSE,,,,,,,144,gorra,Catalan,Sounds/cat_gorra.mp3,2020-06-12_20h53.05.746,TranslationElicitation_eng-prolific,3.2.4,Win32,60,5ec54a7637927134ac7d3dc3,,1,0,81,38,1,80
,,,,,,,,,,,,,,,,,,,,,,,,,,,,,,,,,,,,,,,,,,o,1.986000061,CO,FALSE,,,,,,,144,gorra,Catalan,Sounds/cat_gorra.mp3,2020-06-12_20h53.05.746,TranslationElicitation_eng-prolific,3.2.4,Win32,60,5ec54a7637927134ac7d3dc3,,1,0,81,38,1,80
,,,,,,,,,,,,,,,,,,,,,,,,,,,,,,,,,,,,,,,,,,r,2.249000072,COR,FALSE,,,,,,,144,gorra,Catalan,Sounds/cat_gorra.mp3,2020-06-12_20h53.05.746,TranslationElicitation_eng-prolific,3.2.4,Win32,60,5ec54a7637927134ac7d3dc3,,1,0,81,38,1,80
,,,,,,,,,,,,,,,,,,,,,,,,,,,,,,,,,,,,,,,,,,r,2.423000097,CORR,FALSE,,,,,,,144,gorra,Catalan,Sounds/cat_gorra.mp3,2020-06-12_20h53.05.746,TranslationElicitation_eng-prolific,3.2.4,Win32,60,5ec54a7637927134ac7d3dc3,,1,0,81,38,1,80
,,,,,,,,,,,,,,,,,,,,,,,,,,,,,,,,,,,,,,,,,,a,2.618000031,CORRA,FALSE,,,,,,,144,gorra,Catalan,Sounds/cat_gorra.mp3,2020-06-12_20h53.05.746,TranslationElicitation_eng-prolific,3.2.4,Win32,60,5ec54a7637927134ac7d3dc3,,1,0,81,38,1,80
,,,,,,,,,,,,,,,,,,,,,,,,,,,,,,,,,,,,,,,,,,return,2.825999975,CORRA,FALSE,,,,,,,144,gorra,Catalan,Sounds/cat_gorra.mp3,2020-06-12_20h53.05.746,TranslationElicitation_eng-prolific,3.2.4,Win32,60,5ec54a7637927134ac7d3dc3,2.825999975,1,0,81,38,1,80
,,,,,,,,,,,,,,,,,,,,,,,,,,,,,,,,,,,,,,,,,,,,,,,,,,,,144,gorra,Catalan,Sounds/cat_gorra.mp3,2020-06-12_20h53.05.746,TranslationElicitation_eng-prolific,3.2.4,Win32,60,5ec54a7637927134ac7d3dc3,,1,0,81,38,1,80
,,,,,,,,,,,,,,,,,,,,,,,,,,,,,,,,,,,,,,,,,,p,1.368000031,P,FALSE,,,,,,,174,porta,Catalan,Sounds/cat_porta.mp3,2020-06-12_20h53.05.746,TranslationElicitation_eng-prolific,3.2.4,Win32,60,5ec54a7637927134ac7d3dc3,,1,0,81,66,1,80
,,,,,,,,,,,,,,,,,,,,,,,,,,,,,,,,,,,,,,,,,,o,1.611000061,PO,FALSE,,,,,,,174,porta,Catalan,Sounds/cat_porta.mp3,2020-06-12_20h53.05.746,TranslationElicitation_eng-prolific,3.2.4,Win32,60,5ec54a7637927134ac7d3dc3,,1,0,81,66,1,80
,,,,,,,,,,,,,,,,,,,,,,,,,,,,,,,,,,,,,,,,,,r,1.708000183,POR,FALSE,,,,,,,174,porta,Catalan,Sounds/cat_porta.mp3,2020-06-12_20h53.05.746,TranslationElicitation_eng-prolific,3.2.4,Win32,60,5ec54a7637927134ac7d3dc3,,1,0,81,66,1,80
,,,,,,,,,,,,,,,,,,,,,,,,,,,,,,,,,,,,,,,,,,t,1.875,PORT,FALSE,,,,,,,174,porta,Catalan,Sounds/cat_porta.mp3,2020-06-12_20h53.05.746,TranslationElicitation_eng-prolific,3.2.4,Win32,60,5ec54a7637927134ac7d3dc3,,1,0,81,66,1,80
,,,,,,,,,,,,,,,,,,,,,,,,,,,,,,,,,,,,,,,,,,return,2.139000177,PORT,FALSE,,,,,,,174,porta,Catalan,Sounds/cat_porta.mp3,2020-06-12_20h53.05.746,TranslationElicitation_eng-prolific,3.2.4,Win32,60,5ec54a7637927134ac7d3dc3,2.139000177,1,0,81,66,1,80
,,,,,,,,,,,,,,,,,,,,,,,,,,,,,,,,,,,,,,,,,,,,,,,,,,,,174,porta,Catalan,Sounds/cat_porta.mp3,2020-06-12_20h53.05.746,TranslationElicitation_eng-prolific,3.2.4,Win32,60,5ec54a7637927134ac7d3dc3,,1,0,81,66,1,80
,,,,,,,,,,,,,,,,,,,,,,,,,,,,,,,,,,,,,,,,,,i,1.486000061,I,FALSE,,,,,,,154,mirall,Catalan,Sounds/cat_mirall.mp3,2020-06-12_20h53.05.746,TranslationElicitation_eng-prolific,3.2.4,Win32,60,5ec54a7637927134ac7d3dc3,,1,0,81,47,1,80
,,,,,,,,,,,,,,,,,,,,,,,,,,,,,,,,,,,,,,,,,,backspace,2.008000135,,TRUE,,,,,,,154,mirall,Catalan,Sounds/cat_mirall.mp3,2020-06-12_20h53.05.746,TranslationElicitation_eng-prolific,3.2.4,Win32,60,5ec54a7637927134ac7d3dc3,,1,0,81,47,1,80
,,,,,,,,,,,,,,,,,,,,,,,,,,,,,,,,,,,,,,,,,,m,2.487000227,M,TRUE,,,,,,,154,mirall,Catalan,Sounds/cat_mirall.mp3,2020-06-12_20h53.05.746,TranslationElicitation_eng-prolific,3.2.4,Win32,60,5ec54a7637927134ac7d3dc3,,1,0,81,47,1,80
,,,,,,,,,,,,,,,,,,,,,,,,,,,,,,,,,,,,,,,,,,i,2.744000196,MI,TRUE,,,,,,,154,mirall,Catalan,Sounds/cat_mirall.mp3,2020-06-12_20h53.05.746,TranslationElicitation_eng-prolific,3.2.4,Win32,60,5ec54a7637927134ac7d3dc3,,1,0,81,47,1,80
,,,,,,,,,,,,,,,,,,,,,,,,,,,,,,,,,,,,,,,,,,w,3.112000227,MIW,TRUE,,,,,,,154,mirall,Catalan,Sounds/cat_mirall.mp3,2020-06-12_20h53.05.746,TranslationElicitation_eng-prolific,3.2.4,Win32,60,5ec54a7637927134ac7d3dc3,,1,0,81,47,1,80
,,,,,,,,,,,,,,,,,,,,,,,,,,,,,,,,,,,,,,,,,,backspace,3.404000044,MI,TRUE,,,,,,,154,mirall,Catalan,Sounds/cat_mirall.mp3,2020-06-12_20h53.05.746,TranslationElicitation_eng-prolific,3.2.4,Win32,60,5ec54a7637927134ac7d3dc3,,1,0,81,47,1,80
,,,,,,,,,,,,,,,,,,,,,,,,,,,,,,,,,,,,,,,,,,r,3.515000105,MIR,TRUE,,,,,,,154,mirall,Catalan,Sounds/cat_mirall.mp3,2020-06-12_20h53.05.746,TranslationElicitation_eng-prolific,3.2.4,Win32,60,5ec54a7637927134ac7d3dc3,,1,0,81,47,1,80
,,,,,,,,,,,,,,,,,,,,,,,,,,,,,,,,,,,,,,,,,,a,3.737000227,MIRA,TRUE,,,,,,,154,mirall,Catalan,Sounds/cat_mirall.mp3,2020-06-12_20h53.05.746,TranslationElicitation_eng-prolific,3.2.4,Win32,60,5ec54a7637927134ac7d3dc3,,1,0,81,47,1,80
,,,,,,,,,,,,,,,,,,,,,,,,,,,,,,,,,,,,,,,,,,l,3.847000122,MIRAL,TRUE,,,,,,,154,mirall,Catalan,Sounds/cat_mirall.mp3,2020-06-12_20h53.05.746,TranslationElicitation_eng-prolific,3.2.4,Win32,60,5ec54a7637927134ac7d3dc3,,1,0,81,47,1,80
