consentKey.keys,consentKey.rt,languageL1Key.keys,languageL1Key.rt,languageL2,languageL2OralKey.keys,languageL2OralKey.rt,languageL2WrittenKey.keys,languageL2WrittenKey.rt,languageL3OralKey.keys,languageL3OralKey.rt,languageL3WrittenKey.keys,languageL3WrittenKey.rt,languageCatalanOralKey.keys,languageCatalanOralKey.rt,languageCatalanWrittenKey.keys,languageCatalanWrittenKey.rt,languageCatalanTimeKey.keys,languageCatalanTimeKey.rt,languageSpanishOralKey.keys,languageSpanishOralKey.rt,languageSpanishWrittenKey.keys,languageSpanishWrittenKey.rt,languageSpanishTimeKey.keys,languageSpanishTimeKey.rt,age,demoSexKey.keys,demoSexKey.rt,demoEducationKey.keys,demoEducationKey.rt,city,demoVisionKey.keys,demoVisionKey.rt,demoLanguageKey.keys,demoLanguageKey.rt,setupLocationKey.keys,setupLocationKey.rt,setupNoiseKey.keys,setupNoiseKey.rt,instructionsKeys.keys,instructionsKeys.rt,keyPressed,keyPressTime,inputText,error,trialsPracticeSpanish.thisRepN,trialsPracticeSpanish.thisTrialN,trialsPracticeSpanish.thisN,trialsPracticeSpanish.thisIndex,trialsPracticeSpanish.ran,trialsPracticeSpanish.order,trial_id,word,test_language,soundfile,date,expName,psychopyVersion,OS,frameRate,participant,trialOffset,trialsSpanish.thisRepN,trialsSpanish.thisTrialN,trialsSpanish.thisN,trialsSpanish.thisIndex,trialsSpanish.ran,trialsSpanish.order
space,2.01699996,e,2.454999924,,,,,,,,,,1,5.45600009,1,1.934000015,1,5.915999889,1,2.336999893,1,4.100999832,1,2.569999933,23,f,1.613999844,3,5.445999861,ASHFORD,y,5.098999739,n,3.532999992,1,2.081999779,1,4.940999985,space,13.20499992,t,3.615999937,T,FALSE,1,0,5,4,1,4,96,tigre,Spanish,Sounds/spa_tigre.mp3,2020-06-24_18h03.15.124,TranslationElicitation_eng-prolific-spa,3.2.4,Win32,60,5ec7e258f052ac26af7aafc5,,,,,,,
,,,,,,,,,,,,,,,,,,,,,,,,,,,,,,,,,,,,,,,,,i,3.717000008,TI,FALSE,1,0,5,4,1,4,96,tigre,Spanish,Sounds/spa_tigre.mp3,2020-06-24_18h03.15.124,TranslationElicitation_eng-prolific-spa,3.2.4,Win32,60,5ec7e258f052ac26af7aafc5,,,,,,,
,,,,,,,,,,,,,,,,,,,,,,,,,,,,,,,,,,,,,,,,,g,3.917000055,TIG,FALSE,1,0,5,4,1,4,96,tigre,Spanish,Sounds/spa_tigre.mp3,2020-06-24_18h03.15.124,TranslationElicitation_eng-prolific-spa,3.2.4,Win32,60,5ec7e258f052ac26af7aafc5,,,,,,,
,,,,,,,,,,,,,,,,,,,,,,,,,,,,,,,,,,,,,,,,,e,3.98300004,TIGE,FALSE,1,0,5,4,1,4,96,tigre,Spanish,Sounds/spa_tigre.mp3,2020-06-24_18h03.15.124,TranslationElicitation_eng-prolific-spa,3.2.4,Win32,60,5ec7e258f052ac26af7aafc5,,,,,,,
,,,,,,,,,,,,,,,,,,,,,,,,,,,,,,,,,,,,,,,,,r,4.150000095,TIGER,FALSE,1,0,5,4,1,4,96,tigre,Spanish,Sounds/spa_tigre.mp3,2020-06-24_18h03.15.124,TranslationElicitation_eng-prolific-spa,3.2.4,Win32,60,5ec7e258f052ac26af7aafc5,,,,,,,
,,,,,,,,,,,,,,,,,,,,,,,,,,,,,,,,,,,,,,,,,return,4.566999912,TIGER,FALSE,1,0,5,4,1,4,96,tigre,Spanish,Sounds/spa_tigre.mp3,2020-06-24_18h03.15.124,TranslationElicitation_eng-prolific-spa,3.2.4,Win32,60,5ec7e258f052ac26af7aafc5,4.566999912,,,,,,
,,,,,,,,,,,,,,,,,,,,,,,,,,,,,,,,,,,,,,,,,,,,,1,0,5,4,1,4,96,tigre,Spanish,Sounds/spa_tigre.mp3,2020-06-24_18h03.15.124,TranslationElicitation_eng-prolific-spa,3.2.4,Win32,60,5ec7e258f052ac26af7aafc5,,,,,,,
,,,,,,,,,,,,,,,,,,,,,,,,,,,,,,,,,,,,,,,,,h,1.600000143,H,FALSE,1,0,5,3,1,4,70,ola,Spanish,Sounds/spa_ola.mp3,2020-06-24_18h03.15.124,TranslationElicitation_eng-prolific-spa,3.2.4,Win32,60,5ec7e258f052ac26af7aafc5,,,,,,,
,,,,,,,,,,,,,,,,,,,,,,,,,,,,,,,,,,,,,,,,,e,1.71600008,HE,FALSE,1,0,5,3,1,4,70,ola,Spanish,Sounds/spa_ola.mp3,2020-06-24_18h03.15.124,TranslationElicitation_eng-prolific-spa,3.2.4,Win32,60,5ec7e258f052ac26af7aafc5,,,,,,,
,,,,,,,,,,,,,,,,,,,,,,,,,,,,,,,,,,,,,,,,,l,1.833000183,HEL,FALSE,1,0,5,3,1,4,70,ola,Spanish,Sounds/spa_ola.mp3,2020-06-24_18h03.15.124,TranslationElicitation_eng-prolific-spa,3.2.4,Win32,60,5ec7e258f052ac26af7aafc5,,,,,,,
,,,,,,,,,,,,,,,,,,,,,,,,,,,,,,,,,,,,,,,,,l,1.950000048,HELL,FALSE,1,0,5,3,1,4,70,ola,Spanish,Sounds/spa_ola.mp3,2020-06-24_18h03.15.124,TranslationElicitation_eng-prolific-spa,3.2.4,Win32,60,5ec7e258f052ac26af7aafc5,,,,,,,
,,,,,,,,,,,,,,,,,,,,,,,,,,,,,,,,,,,,,,,,,o,2.100000143,HELLO,FALSE,1,0,5,3,1,4,70,ola,Spanish,Sounds/spa_ola.mp3,2020-06-24_18h03.15.124,TranslationElicitation_eng-prolific-spa,3.2.4,Win32,60,5ec7e258f052ac26af7aafc5,,,,,,,
,,,,,,,,,,,,,,,,,,,,,,,,,,,,,,,,,,,,,,,,,return,2.315999985,HELLO,FALSE,1,0,5,3,1,4,70,ola,Spanish,Sounds/spa_ola.mp3,2020-06-24_18h03.15.124,TranslationElicitation_eng-prolific-spa,3.2.4,Win32,60,5ec7e258f052ac26af7aafc5,2.315999985,,,,,,
,,,,,,,,,,,,,,,,,,,,,,,,,,,,,,,,,,,,,,,,,,,,,1,0,5,3,1,4,70,ola,Spanish,Sounds/spa_ola.mp3,2020-06-24_18h03.15.124,TranslationElicitation_eng-prolific-spa,3.2.4,Win32,60,5ec7e258f052ac26af7aafc5,,,,,,,
,,,,,,,,,,,,,,,,,,,,,,,,,,,,,,,,,,,,,,,,,l,113.8340001,L,FALSE,1,0,5,2,1,4,26,chaqueta,Spanish,Sounds/spa_chaqueta.mp3,2020-06-24_18h03.15.124,TranslationElicitation_eng-prolific-spa,3.2.4,Win32,60,5ec7e258f052ac26af7aafc5,,,,,,,
,,,,,,,,,,,,,,,,,,,,,,,,,,,,,,,,,,,,,,,,,i,113.9850001,LI,FALSE,1,0,5,2,1,4,26,chaqueta,Spanish,Sounds/spa_chaqueta.mp3,2020-06-24_18h03.15.124,TranslationElicitation_eng-prolific-spa,3.2.4,Win32,60,5ec7e258f052ac26af7aafc5,,,,,,,
,,,,,,,,,,,,,,,,,,,,,,,,,,,,,,,,,,,,,,,,,t,114.0510001,LIT,FALSE,1,0,5,2,1,4,26,chaqueta,Spanish,Sounds/spa_chaqueta.mp3,2020-06-24_18h03.15.124,TranslationElicitation_eng-prolific-spa,3.2.4,Win32,60,5ec7e258f052ac26af7aafc5,,,,,,,
,,,,,,,,,,,,,,,,,,,,,,,,,,,,,,,,,,,,,,,,,t,114.151,LITT,FALSE,1,0,5,2,1,4,26,chaqueta,Spanish,Sounds/spa_chaqueta.mp3,2020-06-24_18h03.15.124,TranslationElicitation_eng-prolific-spa,3.2.4,Win32,60,5ec7e258f052ac26af7aafc5,,,,,,,
,,,,,,,,,,,,,,,,,,,,,,,,,,,,,,,,,,,,,,,,,l,114.2840002,LITTL,FALSE,1,0,5,2,1,4,26,chaqueta,Spanish,Sounds/spa_chaqueta.mp3,2020-06-24_18h03.15.124,TranslationElicitation_eng-prolific-spa,3.2.4,Win32,60,5ec7e258f052ac26af7aafc5,,,,,,,
,,,,,,,,,,,,,,,,,,,,,,,,,,,,,,,,,,,,,,,,,e,114.401,LITTLE,FALSE,1,0,5,2,1,4,26,chaqueta,Spanish,Sounds/spa_chaqueta.mp3,2020-06-24_18h03.15.124,TranslationElicitation_eng-prolific-spa,3.2.4,Win32,60,5ec7e258f052ac26af7aafc5,,,,,,,
,,,,,,,,,,,,,,,,,,,,,,,,,,,,,,,,,,,,,,,,,space,114.5010002,LITTLE ,FALSE,1,0,5,2,1,4,26,chaqueta,Spanish,Sounds/spa_chaqueta.mp3,2020-06-24_18h03.15.124,TranslationElicitation_eng-prolific-spa,3.2.4,Win32,60,5ec7e258f052ac26af7aafc5,,,,,,,
,,,,,,,,,,,,,,,,,,,,,,,,,,,,,,,,,,,,,,,,,g,114.6010001,LITTLE G,FALSE,1,0,5,2,1,4,26,chaqueta,Spanish,Sounds/spa_chaqueta.mp3,2020-06-24_18h03.15.124,TranslationElicitation_eng-prolific-spa,3.2.4,Win32,60,5ec7e258f052ac26af7aafc5,,,,,,,
,,,,,,,,,,,,,,,,,,,,,,,,,,,,,,,,,,,,,,,,,i,114.6730001,LITTLE GI,FALSE,1,0,5,2,1,4,26,chaqueta,Spanish,Sounds/spa_chaqueta.mp3,2020-06-24_18h03.15.124,TranslationElicitation_eng-prolific-spa,3.2.4,Win32,60,5ec7e258f052ac26af7aafc5,,,,,,,
,,,,,,,,,,,,,,,,,,,,,,,,,,,,,,,,,,,,,,,,,e,114.8010001,LITTLE GIE,FALSE,1,0,5,2,1,4,26,chaqueta,Spanish,Sounds/spa_chaqueta.mp3,2020-06-24_18h03.15.124,TranslationElicitation_eng-prolific-spa,3.2.4,Win32,60,5ec7e258f052ac26af7aafc5,,,,,,,
,,,,,,,,,,,,,,,,,,,,,,,,,,,,,,,,,,,,,,,,,l,114.868,LITTLE GIEL,FALSE,1,0,5,2,1,4,26,chaqueta,Spanish,Sounds/spa_chaqueta.mp3,2020-06-24_18h03.15.124,TranslationElicitation_eng-prolific-spa,3.2.4,Win32,60,5ec7e258f052ac26af7aafc5,,,,,,,
,,,,,,,,,,,,,,,,,,,,,,,,,,,,,,,,,,,,,,,,,backspace,115.3040001,LITTLE GIE,TRUE,1,0,5,2,1,4,26,chaqueta,Spanish,Sounds/spa_chaqueta.mp3,2020-06-24_18h03.15.124,TranslationElicitation_eng-prolific-spa,3.2.4,Win32,60,5ec7e258f052ac26af7aafc5,,,,,,,
,,,,,,,,,,,,,,,,,,,,,,,,,,,,,,,,,,,,,,,,,backspace,115.4180002,LITTLE GI,TRUE,1,0,5,2,1,4,26,chaqueta,Spanish,Sounds/spa_chaqueta.mp3,2020-06-24_18h03.15.124,TranslationElicitation_eng-prolific-spa,3.2.4,Win32,60,5ec7e258f052ac26af7aafc5,,,,,,,
,,,,,,,,,,,,,,,,,,,,,,,,,,,,,,,,,,,,,,,,,r,115.5180001,LITTLE GIR,TRUE,1,0,5,2,1,4,26,chaqueta,Spanish,Sounds/spa_chaqueta.mp3,2020-06-24_18h03.15.124,TranslationElicitation_eng-prolific-spa,3.2.4,Win32,60,5ec7e258f052ac26af7aafc5,,,,,,,
,,,,,,,,,,,,,,,,,,,,,,,,,,,,,,,,,,,,,,,,,l,115.5840001,LITTLE GIRL,TRUE,1,0,5,2,1,4,26,chaqueta,Spanish,Sounds/spa_chaqueta.mp3,2020-06-24_18h03.15.124,TranslationElicitation_eng-prolific-spa,3.2.4,Win32,60,5ec7e258f052ac26af7aafc5,,,,,,,
,,,,,,,,,,,,,,,,,,,,,,,,,,,,,,,,,,,,,,,,,return,115.8340001,LITTLE GIRL,TRUE,1,0,5,2,1,4,26,chaqueta,Spanish,Sounds/spa_chaqueta.mp3,2020-06-24_18h03.15.124,TranslationElicitation_eng-prolific-spa,3.2.4,Win32,60,5ec7e258f052ac26af7aafc5,115.8340001,,,,,,
,,,,,,,,,,,,,,,,,,,,,,,,,,,,,,,,,,,,,,,,,,,,,1,0,5,2,1,4,26,chaqueta,Spanish,Sounds/spa_chaqueta.mp3,2020-06-24_18h03.15.124,TranslationElicitation_eng-prolific-spa,3.2.4,Win32,60,5ec7e258f052ac26af7aafc5,,,,,,,
,,,,,,,,,,,,,,,,,,,,,,,,,,,,,,,,,,,,,,,,,c,64.36500001,C,FALSE,1,0,5,1,1,4,30,corona,Spanish,Sounds/spa_corona.mp3,2020-06-24_18h03.15.124,TranslationElicitation_eng-prolific-spa,3.2.4,Win32,60,5ec7e258f052ac26af7aafc5,,,,,,,
,,,,,,,,,,,,,,,,,,,,,,,,,,,,,,,,,,,,,,,,,i,64.39900017,CI,FALSE,1,0,5,1,1,4,30,corona,Spanish,Sounds/spa_corona.mp3,2020-06-24_18h03.15.124,TranslationElicitation_eng-prolific-spa,3.2.4,Win32,60,5ec7e258f052ac26af7aafc5,,,,,,,
,,,,,,,,,,,,,,,,,,,,,,,,,,,,,,,,,,,,,,,,,r,64.56599998,CIR,FALSE,1,0,5,1,1,4,30,corona,Spanish,Sounds/spa_corona.mp3,2020-06-24_18h03.15.124,TranslationElicitation_eng-prolific-spa,3.2.4,Win32,60,5ec7e258f052ac26af7aafc5,,,,,,,
,,,,,,,,,,,,,,,,,,,,,,,,,,,,,,,,,,,,,,,,,l,64.66600013,CIRL,FALSE,1,0,5,1,1,4,30,corona,Spanish,Sounds/spa_corona.mp3,2020-06-24_18h03.15.124,TranslationElicitation_eng-prolific-spa,3.2.4,Win32,60,5ec7e258f052ac26af7aafc5,,,,,,,
,,,,,,,,,,,,,,,,,,,,,,,,,,,,,,,,,,,,,,,,,backspace,64.98200011,CIR,TRUE,1,0,5,1,1,4,30,corona,Spanish,Sounds/spa_corona.mp3,2020-06-24_18h03.15.124,TranslationElicitation_eng-prolific-spa,3.2.4,Win32,60,5ec7e258f052ac26af7aafc5,,,,,,,
,,,,,,,,,,,,,,,,,,,,,,,,,,,,,,,,,,,,,,,,,backspace,65.10100007,CI,TRUE,1,0,5,1,1,4,30,corona,Spanish,Sounds/spa_corona.mp3,2020-06-24_18h03.15.124,TranslationElicitation_eng-prolific-spa,3.2.4,Win32,60,5ec7e258f052ac26af7aafc5,,,,,,,
,,,,,,,,,,,,,,,,,,,,,,,,,,,,,,,,,,,,,,,,,r,65.88199997,CIR,TRUE,1,0,5,1,1,4,30,corona,Spanish,Sounds/spa_corona.mp3,2020-06-24_18h03.15.124,TranslationElicitation_eng-prolific-spa,3.2.4,Win32,60,5ec7e258f052ac26af7aafc5,,,,,,,
,,,,,,,,,,,,,,,,,,,,,,,,,,,,,,,,,,,,,,,,,c,66.08300018,CIRC,TRUE,1,0,5,1,1,4,30,corona,Spanish,Sounds/spa_corona.mp3,2020-06-24_18h03.15.124,TranslationElicitation_eng-prolific-spa,3.2.4,Win32,60,5ec7e258f052ac26af7aafc5,,,,,,,
,,,,,,,,,,,,,,,,,,,,,,,,,,,,,,,,,,,,,,,,,l,66.14900017,CIRCL,TRUE,1,0,5,1,1,4,30,corona,Spanish,Sounds/spa_corona.mp3,2020-06-24_18h03.15.124,TranslationElicitation_eng-prolific-spa,3.2.4,Win32,60,5ec7e258f052ac26af7aafc5,,,,,,,
,,,,,,,,,,,,,,,,,,,,,,,,,,,,,,,,,,,,,,,,,e,66.26600003,CIRCLE,TRUE,1,0,5,1,1,4,30,corona,Spanish,Sounds/spa_corona.mp3,2020-06-24_18h03.15.124,TranslationElicitation_eng-prolific-spa,3.2.4,Win32,60,5ec7e258f052ac26af7aafc5,,,,,,,
,,,,,,,,,,,,,,,,,,,,,,,,,,,,,,,,,,,,,,,,,return,66.46500015,CIRCLE,TRUE,1,0,5,1,1,4,30,corona,Spanish,Sounds/spa_corona.mp3,2020-06-24_18h03.15.124,TranslationElicitation_eng-prolific-spa,3.2.4,Win32,60,5ec7e258f052ac26af7aafc5,66.46500015,,,,,,
,,,,,,,,,,,,,,,,,,,,,,,,,,,,,,,,,,,,,,,,,,,,,1,0,5,1,1,4,30,corona,Spanish,Sounds/spa_corona.mp3,2020-06-24_18h03.15.124,TranslationElicitation_eng-prolific-spa,3.2.4,Win32,60,5ec7e258f052ac26af7aafc5,,,,,,,
,,,,,,,,,,,,,,,,,,,,,,,,,,,,,,,,,,,,,,,,,h,2.433000088,H,FALSE,1,0,5,0,1,4,1,arbol,Spanish,Sounds/spa_arbol.mp3,2020-06-24_18h03.15.124,TranslationElicitation_eng-prolific-spa,3.2.4,Win32,60,5ec7e258f052ac26af7aafc5,,,,,,,
,,,,,,,,,,,,,,,,,,,,,,,,,,,,,,,,,,,,,,,,,a,2.5,HA,FALSE,1,0,5,0,1,4,1,arbol,Spanish,Sounds/spa_arbol.mp3,2020-06-24_18h03.15.124,TranslationElicitation_eng-prolific-spa,3.2.4,Win32,60,5ec7e258f052ac26af7aafc5,,,,,,,
,,,,,,,,,,,,,,,,,,,,,,,,,,,,,,,,,,,,,,,,,r,2.700000048,HAR,FALSE,1,0,5,0,1,4,1,arbol,Spanish,Sounds/spa_arbol.mp3,2020-06-24_18h03.15.124,TranslationElicitation_eng-prolific-spa,3.2.4,Win32,60,5ec7e258f052ac26af7aafc5,,,,,,,
,,,,,,,,,,,,,,,,,,,,,,,,,,,,,,,,,,,,,,,,,d,2.848999977,HARD,FALSE,1,0,5,0,1,4,1,arbol,Spanish,Sounds/spa_arbol.mp3,2020-06-24_18h03.15.124,TranslationElicitation_eng-prolific-spa,3.2.4,Win32,60,5ec7e258f052ac26af7aafc5,,,,,,,
,,,,,,,,,,,,,,,,,,,,,,,,,,,,,,,,,,,,,,,,,w,3.016000032,HARDW,FALSE,1,0,5,0,1,4,1,arbol,Spanish,Sounds/spa_arbol.mp3,2020-06-24_18h03.15.124,TranslationElicitation_eng-prolific-spa,3.2.4,Win32,60,5ec7e258f052ac26af7aafc5,,,,,,,
,,,,,,,,,,,,,,,,,,,,,,,,,,,,,,,,,,,,,,,,,a,3.150000095,HARDWA,FALSE,1,0,5,0,1,4,1,arbol,Spanish,Sounds/spa_arbol.mp3,2020-06-24_18h03.15.124,TranslationElicitation_eng-prolific-spa,3.2.4,Win32,60,5ec7e258f052ac26af7aafc5,,,,,,,
,,,,,,,,,,,,,,,,,,,,,,,,,,,,,,,,,,,,,,,,,l,3.25,HARDWAL,FALSE,1,0,5,0,1,4,1,arbol,Spanish,Sounds/spa_arbol.mp3,2020-06-24_18h03.15.124,TranslationElicitation_eng-prolific-spa,3.2.4,Win32,60,5ec7e258f052ac26af7aafc5,,,,,,,
,,,,,,,,,,,,,,,,,,,,,,,,,,,,,,,,,,,,,,,,,l,3.382999897,HARDWALL,FALSE,1,0,5,0,1,4,1,arbol,Spanish,Sounds/spa_arbol.mp3,2020-06-24_18h03.15.124,TranslationElicitation_eng-prolific-spa,3.2.4,Win32,60,5ec7e258f052ac26af7aafc5,,,,,,,
,,,,,,,,,,,,,,,,,,,,,,,,,,,,,,,,,,,,,,,,,return,3.615999937,HARDWALL,FALSE,1,0,5,0,1,4,1,arbol,Spanish,Sounds/spa_arbol.mp3,2020-06-24_18h03.15.124,TranslationElicitation_eng-prolific-spa,3.2.4,Win32,60,5ec7e258f052ac26af7aafc5,3.615999937,,,,,,
,,,,,,,,,,,,,,,,,,,,,,,,,,,,,,,,,,,,,,,,,,,,,1,0,5,0,1,4,1,arbol,Spanish,Sounds/spa_arbol.mp3,2020-06-24_18h03.15.124,TranslationElicitation_eng-prolific-spa,3.2.4,Win32,60,5ec7e258f052ac26af7aafc5,,,,,,,
,,,,,,,,,,,,,,,,,,,,,,,,,,,,,,,,,,,,,,,,,b,15.8499999,B,FALSE,,,,,,,35,esponja,Spanish,Sounds/spa_esponja.mp3,2020-06-24_18h03.15.124,TranslationElicitation_eng-prolific-spa,3.2.4,Win32,60,5ec7e258f052ac26af7aafc5,,1,0,98,31,1,97
,,,,,,,,,,,,,,,,,,,,,,,,,,,,,,,,,,,,,,,,,o,15.91700006,BO,FALSE,,,,,,,35,esponja,Spanish,Sounds/spa_esponja.mp3,2020-06-24_18h03.15.124,TranslationElicitation_eng-prolific-spa,3.2.4,Win32,60,5ec7e258f052ac26af7aafc5,,1,0,98,31,1,97
,,,,,,,,,,,,,,,,,,,,,,,,,,,,,,,,,,,,,,,,,n,16.01699996,BON,FALSE,,,,,,,35,esponja,Spanish,Sounds/spa_esponja.mp3,2020-06-24_18h03.15.124,TranslationElicitation_eng-prolific-spa,3.2.4,Win32,60,5ec7e258f052ac26af7aafc5,,1,0,98,31,1,97
,,,,,,,,,,,,,,,,,,,,,,,,,,,,,,,,,,,,,,,,,k,16.18299985,BONK,FALSE,,,,,,,35,esponja,Spanish,Sounds/spa_esponja.mp3,2020-06-24_18h03.15.124,TranslationElicitation_eng-prolific-spa,3.2.4,Win32,60,5ec7e258f052ac26af7aafc5,,1,0,98,31,1,97
,,,,,,,,,,,,,,,,,,,,,,,,,,,,,,,,,,,,,,,,,e,16.23300004,BONKE,FALSE,,,,,,,35,esponja,Spanish,Sounds/spa_esponja.mp3,2020-06-24_18h03.15.124,TranslationElicitation_eng-prolific-spa,3.2.4,Win32,60,5ec7e258f052ac26af7aafc5,,1,0,98,31,1,97
,,,,,,,,,,,,,,,,,,,,,,,,,,,,,,,,,,,,,,,,,r,16.3829999,BONKER,FALSE,,,,,,,35,esponja,Spanish,Sounds/spa_esponja.mp3,2020-06-24_18h03.15.124,TranslationElicitation_eng-prolific-spa,3.2.4,Win32,60,5ec7e258f052ac26af7aafc5,,1,0,98,31,1,97
,,,,,,,,,,,,,,,,,,,,,,,,,,,,,,,,,,,,,,,,,s,16.54999995,BONKERS,FALSE,,,,,,,35,esponja,Spanish,Sounds/spa_esponja.mp3,2020-06-24_18h03.15.124,TranslationElicitation_eng-prolific-spa,3.2.4,Win32,60,5ec7e258f052ac26af7aafc5,,1,0,98,31,1,97
,,,,,,,,,,,,,,,,,,,,,,,,,,,,,,,,,,,,,,,,,return,16.71700001,BONKERS,FALSE,,,,,,,35,esponja,Spanish,Sounds/spa_esponja.mp3,2020-06-24_18h03.15.124,TranslationElicitation_eng-prolific-spa,3.2.4,Win32,60,5ec7e258f052ac26af7aafc5,16.71700001,1,0,98,31,1,97
,,,,,,,,,,,,,,,,,,,,,,,,,,,,,,,,,,,,,,,,,,,,,,,,,,,35,esponja,Spanish,Sounds/spa_esponja.mp3,2020-06-24_18h03.15.124,TranslationElicitation_eng-prolific-spa,3.2.4,Win32,60,5ec7e258f052ac26af7aafc5,,1,0,98,31,1,97
,,,,,,,,,,,,,,,,,,,,,,,,,,,,,,,,,,,,,,,,,l,23.64999986,L,FALSE,,,,,,,57,loro,Spanish,Sounds/spa_loro.mp3,2020-06-24_18h03.15.124,TranslationElicitation_eng-prolific-spa,3.2.4,Win32,60,5ec7e258f052ac26af7aafc5,,1,0,98,53,1,97
,,,,,,,,,,,,,,,,,,,,,,,,,,,,,,,,,,,,,,,,,o,23.83299994,LO,FALSE,,,,,,,57,loro,Spanish,Sounds/spa_loro.mp3,2020-06-24_18h03.15.124,TranslationElicitation_eng-prolific-spa,3.2.4,Win32,60,5ec7e258f052ac26af7aafc5,,1,0,98,53,1,97
,,,,,,,,,,,,,,,,,,,,,,,,,,,,,,,,,,,,,,,,,w,23.95000005,LOW,FALSE,,,,,,,57,loro,Spanish,Sounds/spa_loro.mp3,2020-06-24_18h03.15.124,TranslationElicitation_eng-prolific-spa,3.2.4,Win32,60,5ec7e258f052ac26af7aafc5,,1,0,98,53,1,97
,,,,,,,,,,,,,,,,,,,,,,,,,,,,,,,,,,,,,,,,,space,24.14999986,LOW ,FALSE,,,,,,,57,loro,Spanish,Sounds/spa_loro.mp3,2020-06-24_18h03.15.124,TranslationElicitation_eng-prolific-spa,3.2.4,Win32,60,5ec7e258f052ac26af7aafc5,,1,0,98,53,1,97
,,,,,,,,,,,,,,,,,,,,,,,,,,,,,,,,,,,,,,,,,d,24.51600003,LOW D,FALSE,,,,,,,57,loro,Spanish,Sounds/spa_loro.mp3,2020-06-24_18h03.15.124,TranslationElicitation_eng-prolific-spa,3.2.4,Win32,60,5ec7e258f052ac26af7aafc5,,1,0,98,53,1,97
,,,,,,,,,,,,,,,,,,,,,,,,,,,,,,,,,,,,,,,,,o,24.58299994,LOW DO,FALSE,,,,,,,57,loro,Spanish,Sounds/spa_loro.mp3,2020-06-24_18h03.15.124,TranslationElicitation_eng-prolific-spa,3.2.4,Win32,60,5ec7e258f052ac26af7aafc5,,1,0,98,53,1,97
,,,,,,,,,,,,,,,,,,,,,,,,,,,,,,,,,,,,,,,,,w,24.71599984,LOW DOW,FALSE,,,,,,,57,loro,Spanish,Sounds/spa_loro.mp3,2020-06-24_18h03.15.124,TranslationElicitation_eng-prolific-spa,3.2.4,Win32,60,5ec7e258f052ac26af7aafc5,,1,0,98,53,1,97
,,,,,,,,,,,,,,,,,,,,,,,,,,,,,,,,,,,,,,,,,n,24.82399988,LOW DOWN,FALSE,,,,,,,57,loro,Spanish,Sounds/spa_loro.mp3,2020-06-24_18h03.15.124,TranslationElicitation_eng-prolific-spa,3.2.4,Win32,60,5ec7e258f052ac26af7aafc5,,1,0,98,53,1,97
,,,,,,,,,,,,,,,,,,,,,,,,,,,,,,,,,,,,,,,,,return,25.18299985,LOW DOWN,FALSE,,,,,,,57,loro,Spanish,Sounds/spa_loro.mp3,2020-06-24_18h03.15.124,TranslationElicitation_eng-prolific-spa,3.2.4,Win32,60,5ec7e258f052ac26af7aafc5,25.18299985,1,0,98,53,1,97
,,,,,,,,,,,,,,,,,,,,,,,,,,,,,,,,,,,,,,,,,,,,,,,,,,,57,loro,Spanish,Sounds/spa_loro.mp3,2020-06-24_18h03.15.124,TranslationElicitation_eng-prolific-spa,3.2.4,Win32,60,5ec7e258f052ac26af7aafc5,,1,0,98,53,1,97
,,,,,,,,,,,,,,,,,,,,,,,,,,,,,,,,,,,,,,,,,n,26.21599984,N,FALSE,,,,,,,69,nariz,Spanish,Sounds/spa_nariz.mp3,2020-06-24_18h03.15.124,TranslationElicitation_eng-prolific-spa,3.2.4,Win32,60,5ec7e258f052ac26af7aafc5,,1,0,98,65,1,97
,,,,,,,,,,,,,,,,,,,,,,,,,,,,,,,,,,,,,,,,,i,26.41599989,NI,FALSE,,,,,,,69,nariz,Spanish,Sounds/spa_nariz.mp3,2020-06-24_18h03.15.124,TranslationElicitation_eng-prolific-spa,3.2.4,Win32,60,5ec7e258f052ac26af7aafc5,,1,0,98,65,1,97
,,,,,,,,,,,,,,,,,,,,,,,,,,,,,,,,,,,,,,,,,n,26.58299994,NIN,FALSE,,,,,,,69,nariz,Spanish,Sounds/spa_nariz.mp3,2020-06-24_18h03.15.124,TranslationElicitation_eng-prolific-spa,3.2.4,Win32,60,5ec7e258f052ac26af7aafc5,,1,0,98,65,1,97
,,,,,,,,,,,,,,,,,,,,,,,,,,,,,,,,,,,,,,,,,e,26.66799998,NINE,FALSE,,,,,,,69,nariz,Spanish,Sounds/spa_nariz.mp3,2020-06-24_18h03.15.124,TranslationElicitation_eng-prolific-spa,3.2.4,Win32,60,5ec7e258f052ac26af7aafc5,,1,0,98,65,1,97
,,,,,,,,,,,,,,,,,,,,,,,,,,,,,,,,,,,,,,,,,return,26.99899983,NINE,FALSE,,,,,,,69,nariz,Spanish,Sounds/spa_nariz.mp3,2020-06-24_18h03.15.124,TranslationElicitation_eng-prolific-spa,3.2.4,Win32,60,5ec7e258f052ac26af7aafc5,26.99899983,1,0,98,65,1,97
,,,,,,,,,,,,,,,,,,,,,,,,,,,,,,,,,,,,,,,,,,,,,,,,,,,69,nariz,Spanish,Sounds/spa_nariz.mp3,2020-06-24_18h03.15.124,TranslationElicitation_eng-prolific-spa,3.2.4,Win32,60,5ec7e258f052ac26af7aafc5,,1,0,98,65,1,97
,,,,,,,,,,,,,,,,,,,,,,,,,,,,,,,,,,,,,,,,,t,2.292999983,T,FALSE,,,,,,,101,tren,Spanish,Sounds/spa_tren.mp3,2020-06-24_18h03.15.124,TranslationElicitation_eng-prolific-spa,3.2.4,Win32,60,5ec7e258f052ac26af7aafc5,,1,0,98,95,1,97
,,,,,,,,,,,,,,,,,,,,,,,,,,,,,,,,,,,,,,,,,r,2.382999897,TR,FALSE,,,,,,,101,tren,Spanish,Sounds/spa_tren.mp3,2020-06-24_18h03.15.124,TranslationElicitation_eng-prolific-spa,3.2.4,Win32,60,5ec7e258f052ac26af7aafc5,,1,0,98,95,1,97
,,,,,,,,,,,,,,,,,,,,,,,,,,,,,,,,,,,,,,,,,a,2.582999945,TRA,FALSE,,,,,,,101,tren,Spanish,Sounds/spa_tren.mp3,2020-06-24_18h03.15.124,TranslationElicitation_eng-prolific-spa,3.2.4,Win32,60,5ec7e258f052ac26af7aafc5,,1,0,98,95,1,97
,,,,,,,,,,,,,,,,,,,,,,,,,,,,,,,,,,,,,,,,,i,2.632999897,TRAI,FALSE,,,,,,,101,tren,Spanish,Sounds/spa_tren.mp3,2020-06-24_18h03.15.124,TranslationElicitation_eng-prolific-spa,3.2.4,Win32,60,5ec7e258f052ac26af7aafc5,,1,0,98,95,1,97
,,,,,,,,,,,,,,,,,,,,,,,,,,,,,,,,,,,,,,,,,n,2.815999985,TRAIN,FALSE,,,,,,,101,tren,Spanish,Sounds/spa_tren.mp3,2020-06-24_18h03.15.124,TranslationElicitation_eng-prolific-spa,3.2.4,Win32,60,5ec7e258f052ac26af7aafc5,,1,0,98,95,1,97
,,,,,,,,,,,,,,,,,,,,,,,,,,,,,,,,,,,,,,,,,return,3.082999945,TRAIN,FALSE,,,,,,,101,tren,Spanish,Sounds/spa_tren.mp3,2020-06-24_18h03.15.124,TranslationElicitation_eng-prolific-spa,3.2.4,Win32,60,5ec7e258f052ac26af7aafc5,3.082999945,1,0,98,95,1,97
,,,,,,,,,,,,,,,,,,,,,,,,,,,,,,,,,,,,,,,,,,,,,,,,,,,101,tren,Spanish,Sounds/spa_tren.mp3,2020-06-24_18h03.15.124,TranslationElicitation_eng-prolific-spa,3.2.4,Win32,60,5ec7e258f052ac26af7aafc5,,1,0,98,95,1,97
,,,,,,,,,,,,,,,,,,,,,,,,,,,,,,,,,,,,,,,,,s,48.5,S,FALSE,,,,,,,103,zanahoria,Spanish,Sounds/spa_zanahoria.mp3,2020-06-24_18h03.15.124,TranslationElicitation_eng-prolific-spa,3.2.4,Win32,60,5ec7e258f052ac26af7aafc5,,1,0,98,97,1,97
,,,,,,,,,,,,,,,,,,,,,,,,,,,,,,,,,,,,,,,,,e,48.66700006,SE,FALSE,,,,,,,103,zanahoria,Spanish,Sounds/spa_zanahoria.mp3,2020-06-24_18h03.15.124,TranslationElicitation_eng-prolific-spa,3.2.4,Win32,60,5ec7e258f052ac26af7aafc5,,1,0,98,97,1,97
,,,,,,,,,,,,,,,,,,,,,,,,,,,,,,,,,,,,,,,,,n,48.75,SEN,FALSE,,,,,,,103,zanahoria,Spanish,Sounds/spa_zanahoria.mp3,2020-06-24_18h03.15.124,TranslationElicitation_eng-prolific-spa,3.2.4,Win32,60,5ec7e258f052ac26af7aafc5,,1,0,98,97,1,97
,,,,,,,,,,,,,,,,,,,,,,,,,,,,,,,,,,,,,,,,,t,48.95700002,SENT,FALSE,,,,,,,103,zanahoria,Spanish,Sounds/spa_zanahoria.mp3,2020-06-24_18h03.15.124,TranslationElicitation_eng-prolific-spa,3.2.4,Win32,60,5ec7e258f052ac26af7aafc5,,1,0,98,97,1,97
,,,,,,,,,,,,,,,,,,,,,,,,,,,,,,,,,,,,,,,,,e,49.03299999,SENTE,FALSE,,,,,,,103,zanahoria,Spanish,Sounds/spa_zanahoria.mp3,2020-06-24_18h03.15.124,TranslationElicitation_eng-prolific-spa,3.2.4,Win32,60,5ec7e258f052ac26af7aafc5,,1,0,98,97,1,97
,,,,,,,,,,,,,,,,,,,,,,,,,,,,,,,,,,,,,,,,,n,49.15100002,SENTEN,FALSE,,,,,,,103,zanahoria,Spanish,Sounds/spa_zanahoria.mp3,2020-06-24_18h03.15.124,TranslationElicitation_eng-prolific-spa,3.2.4,Win32,60,5ec7e258f052ac26af7aafc5,,1,0,98,97,1,97
,,,,,,,,,,,,,,,,,,,,,,,,,,,,,,,,,,,,,,,,,c,49.25,SENTENC,FALSE,,,,,,,103,zanahoria,Spanish,Sounds/spa_zanahoria.mp3,2020-06-24_18h03.15.124,TranslationElicitation_eng-prolific-spa,3.2.4,Win32,60,5ec7e258f052ac26af7aafc5,,1,0,98,97,1,97
,,,,,,,,,,,,,,,,,,,,,,,,,,,,,,,,,,,,,,,,,e,49.41700006,SENTENCE,FALSE,,,,,,,103,zanahoria,Spanish,Sounds/spa_zanahoria.mp3,2020-06-24_18h03.15.124,TranslationElicitation_eng-prolific-spa,3.2.4,Win32,60,5ec7e258f052ac26af7aafc5,,1,0,98,97,1,97
,,,,,,,,,,,,,,,,,,,,,,,,,,,,,,,,,,,,,,,,,return,49.51699996,SENTENCE,FALSE,,,,,,,103,zanahoria,Spanish,Sounds/spa_zanahoria.mp3,2020-06-24_18h03.15.124,TranslationElicitation_eng-prolific-spa,3.2.4,Win32,60,5ec7e258f052ac26af7aafc5,49.51699996,1,0,98,97,1,97
,,,,,,,,,,,,,,,,,,,,,,,,,,,,,,,,,,,,,,,,,,,,,,,,,,,103,zanahoria,Spanish,Sounds/spa_zanahoria.mp3,2020-06-24_18h03.15.124,TranslationElicitation_eng-prolific-spa,3.2.4,Win32,60,5ec7e258f052ac26af7aafc5,,1,0,98,97,1,97
,,,,,,,,,,,,,,,,,,,,,,,,,,,,,,,,,,,,,,,,,d,1.967000008,D,FALSE,,,,,,,80,pato,Spanish,Sounds/spa_pato.mp3,2020-06-24_18h03.15.124,TranslationElicitation_eng-prolific-spa,3.2.4,Win32,60,5ec7e258f052ac26af7aafc5,,1,0,98,75,1,97
,,,,,,,,,,,,,,,,,,,,,,,,,,,,,,,,,,,,,,,,,a,2.167000055,DA,FALSE,,,,,,,80,pato,Spanish,Sounds/spa_pato.mp3,2020-06-24_18h03.15.124,TranslationElicitation_eng-prolific-spa,3.2.4,Win32,60,5ec7e258f052ac26af7aafc5,,1,0,98,75,1,97
,,,,,,,,,,,,,,,,,,,,,,,,,,,,,,,,,,,,,,,,,d,2.350000143,DAD,FALSE,,,,,,,80,pato,Spanish,Sounds/spa_pato.mp3,2020-06-24_18h03.15.124,TranslationElicitation_eng-prolific-spa,3.2.4,Win32,60,5ec7e258f052ac26af7aafc5,,1,0,98,75,1,97
,,,,,,,,,,,,,,,,,,,,,,,,,,,,,,,,,,,,,,,,,backspace,2.832999945,DA,TRUE,,,,,,,80,pato,Spanish,Sounds/spa_pato.mp3,2020-06-24_18h03.15.124,TranslationElicitation_eng-prolific-spa,3.2.4,Win32,60,5ec7e258f052ac26af7aafc5,,1,0,98,75,1,97
,,,,,,,,,,,,,,,,,,,,,,,,,,,,,,,,,,,,,,,,,backspace,2.967000008,D,TRUE,,,,,,,80,pato,Spanish,Sounds/spa_pato.mp3,2020-06-24_18h03.15.124,TranslationElicitation_eng-prolific-spa,3.2.4,Win32,60,5ec7e258f052ac26af7aafc5,,1,0,98,75,1,97
,,,,,,,,,,,,,,,,,,,,,,,,,,,,,,,,,,,,,,,,,backspace,3.100000143,,TRUE,,,,,,,80,pato,Spanish,Sounds/spa_pato.mp3,2020-06-24_18h03.15.124,TranslationElicitation_eng-prolific-spa,3.2.4,Win32,60,5ec7e258f052ac26af7aafc5,,1,0,98,75,1,97
,,,,,,,,,,,,,,,,,,,,,,,,,,,,,,,,,,,,,,,,,backspace,3.217000008,,TRUE,,,,,,,80,pato,Spanish,Sounds/spa_pato.mp3,2020-06-24_18h03.15.124,TranslationElicitation_eng-prolific-spa,3.2.4,Win32,60,5ec7e258f052ac26af7aafc5,,1,0,98,75,1,97
,,,,,,,,,,,,,,,,,,,,,,,,,,,,,,,,,,,,,,,,,f,3.650000095,F,TRUE,,,,,,,80,pato,Spanish,Sounds/spa_pato.mp3,2020-06-24_18h03.15.124,TranslationElicitation_eng-prolific-spa,3.2.4,Win32,60,5ec7e258f052ac26af7aafc5,,1,0,98,75,1,97
,,,,,,,,,,,,,,,,,,,,,,,,,,,,,,,,,,,,,,,,,a,3.76699996,FA,TRUE,,,,,,,80,pato,Spanish,Sounds/spa_pato.mp3,2020-06-24_18h03.15.124,TranslationElicitation_eng-prolific-spa,3.2.4,Win32,60,5ec7e258f052ac26af7aafc5,,1,0,98,75,1,97
,,,,,,,,,,,,,,,,,,,,,,,,,,,,,,,,,,,,,,,,,t,3.868000031,FAT,TRUE,,,,,,,80,pato,Spanish,Sounds/spa_pato.mp3,2020-06-24_18h03.15.124,TranslationElicitation_eng-prolific-spa,3.2.4,Win32,60,5ec7e258f052ac26af7aafc5,,1,0,98,75,1,97
,,,,,,,,,,,,,,,,,,,,,,,,,,,,,,,,,,,,,,,,,h,4.032999992,FATH,TRUE,,,,,,,80,pato,Spanish,Sounds/spa_pato.mp3,2020-06-24_18h03.15.124,TranslationElicitation_eng-prolific-spa,3.2.4,Win32,60,5ec7e258f052ac26af7aafc5,,1,0,98,75,1,97
,,,,,,,,,,,,,,,,,,,,,,,,,,,,,,,,,,,,,,,,,e,4.084000111,FATHE,TRUE,,,,,,,80,pato,Spanish,Sounds/spa_pato.mp3,2020-06-24_18h03.15.124,TranslationElicitation_eng-prolific-spa,3.2.4,Win32,60,5ec7e258f052ac26af7aafc5,,1,0,98,75,1,97
,,,,,,,,,,,,,,,,,,,,,,,,,,,,,,,,,,,,,,,,,r,4.25,FATHER,TRUE,,,,,,,80,pato,Spanish,Sounds/spa_pato.mp3,2020-06-24_18h03.15.124,TranslationElicitation_eng-prolific-spa,3.2.4,Win32,60,5ec7e258f052ac26af7aafc5,,1,0,98,75,1,97
,,,,,,,,,,,,,,,,,,,,,,,,,,,,,,,,,,,,,,,,,return,4.900000095,FATHER,TRUE,,,,,,,80,pato,Spanish,Sounds/spa_pato.mp3,2020-06-24_18h03.15.124,TranslationElicitation_eng-prolific-spa,3.2.4,Win32,60,5ec7e258f052ac26af7aafc5,4.900000095,1,0,98,75,1,97
,,,,,,,,,,,,,,,,,,,,,,,,,,,,,,,,,,,,,,,,,,,,,,,,,,,80,pato,Spanish,Sounds/spa_pato.mp3,2020-06-24_18h03.15.124,TranslationElicitation_eng-prolific-spa,3.2.4,Win32,60,5ec7e258f052ac26af7aafc5,,1,0,98,75,1,97
,,,,,,,,,,,,,,,,,,,,,,,,,,,,,,,,,,,,,,,,,m,9.48300004,M,FALSE,,,,,,,61,mariposa,Spanish,Sounds/spa_mariposa.mp3,2020-06-24_18h03.15.124,TranslationElicitation_eng-prolific-spa,3.2.4,Win32,60,5ec7e258f052ac26af7aafc5,,1,0,98,57,1,97
,,,,,,,,,,,,,,,,,,,,,,,,,,,,,,,,,,,,,,,,,e,9.616999865,ME,FALSE,,,,,,,61,mariposa,Spanish,Sounds/spa_mariposa.mp3,2020-06-24_18h03.15.124,TranslationElicitation_eng-prolific-spa,3.2.4,Win32,60,5ec7e258f052ac26af7aafc5,,1,0,98,57,1,97
,,,,,,,,,,,,,,,,,,,,,,,,,,,,,,,,,,,,,,,,,r,9.782999992,MER,FALSE,,,,,,,61,mariposa,Spanish,Sounds/spa_mariposa.mp3,2020-06-24_18h03.15.124,TranslationElicitation_eng-prolific-spa,3.2.4,Win32,60,5ec7e258f052ac26af7aafc5,,1,0,98,57,1,97
,,,,,,,,,,,,,,,,,,,,,,,,,,,,,,,,,,,,,,,,,r,9.883999825,MERR,FALSE,,,,,,,61,mariposa,Spanish,Sounds/spa_mariposa.mp3,2020-06-24_18h03.15.124,TranslationElicitation_eng-prolific-spa,3.2.4,Win32,60,5ec7e258f052ac26af7aafc5,,1,0,98,57,1,97
,,,,,,,,,,,,,,,,,,,,,,,,,,,,,,,,,,,,,,,,,y,9.98300004,MERRY,FALSE,,,,,,,61,mariposa,Spanish,Sounds/spa_mariposa.mp3,2020-06-24_18h03.15.124,TranslationElicitation_eng-prolific-spa,3.2.4,Win32,60,5ec7e258f052ac26af7aafc5,,1,0,98,57,1,97
,,,,,,,,,,,,,,,,,,,,,,,,,,,,,,,,,,,,,,,,,space,10.08399987,MERRY ,FALSE,,,,,,,61,mariposa,Spanish,Sounds/spa_mariposa.mp3,2020-06-24_18h03.15.124,TranslationElicitation_eng-prolific-spa,3.2.4,Win32,60,5ec7e258f052ac26af7aafc5,,1,0,98,57,1,97
,,,,,,,,,,,,,,,,,,,,,,,,,,,,,,,,,,,,,,,,,c,10.14999986,MERRY C,FALSE,,,,,,,61,mariposa,Spanish,Sounds/spa_mariposa.mp3,2020-06-24_18h03.15.124,TranslationElicitation_eng-prolific-spa,3.2.4,Win32,60,5ec7e258f052ac26af7aafc5,,1,0,98,57,1,97
,,,,,,,,,,,,,,,,,,,,,,,,,,,,,,,,,,,,,,,,,a,10.29999995,MERRY CA,FALSE,,,,,,,61,mariposa,Spanish,Sounds/spa_mariposa.mp3,2020-06-24_18h03.15.124,TranslationElicitation_eng-prolific-spa,3.2.4,Win32,60,5ec7e258f052ac26af7aafc5,,1,0,98,57,1,97
,,,,,,,,,,,,,,,,,,,,,,,,,,,,,,,,,,,,,,,,,t,10.3829999,MERRY CAT,FALSE,,,,,,,61,mariposa,Spanish,Sounds/spa_mariposa.mp3,2020-06-24_18h03.15.124,TranslationElicitation_eng-prolific-spa,3.2.4,Win32,60,5ec7e258f052ac26af7aafc5,,1,0,98,57,1,97
,,,,,,,,,,,,,,,,,,,,,,,,,,,,,,,,,,,,,,,,,return,10.64999986,MERRY CAT,FALSE,,,,,,,61,mariposa,Spanish,Sounds/spa_mariposa.mp3,2020-06-24_18h03.15.124,TranslationElicitation_eng-prolific-spa,3.2.4,Win32,60,5ec7e258f052ac26af7aafc5,10.64999986,1,0,98,57,1,97
,,,,,,,,,,,,,,,,,,,,,,,,,,,,,,,,,,,,,,,,,,,,,,,,,,,61,mariposa,Spanish,Sounds/spa_mariposa.mp3,2020-06-24_18h03.15.124,TranslationElicitation_eng-prolific-spa,3.2.4,Win32,60,5ec7e258f052ac26af7aafc5,,1,0,98,57,1,97
,,,,,,,,,,,,,,,,,,,,,,,,,,,,,,,,,,,,,,,,,l,1.600000143,L,FALSE,,,,,,,55,leon,Spanish,Sounds/spa_leon.mp3,2020-06-24_18h03.15.124,TranslationElicitation_eng-prolific-spa,3.2.4,Win32,60,5ec7e258f052ac26af7aafc5,,1,0,98,51,1,97
,,,,,,,,,,,,,,,,,,,,,,,,,,,,,,,,,,,,,,,,,i,1.782999992,LI,FALSE,,,,,,,55,leon,Spanish,Sounds/spa_leon.mp3,2020-06-24_18h03.15.124,TranslationElicitation_eng-prolific-spa,3.2.4,Win32,60,5ec7e258f052ac26af7aafc5,,1,0,98,51,1,97
,,,,,,,,,,,,,,,,,,,,,,,,,,,,,,,,,,,,,,,,,o,1.933000088,LIO,FALSE,,,,,,,55,leon,Spanish,Sounds/spa_leon.mp3,2020-06-24_18h03.15.124,TranslationElicitation_eng-prolific-spa,3.2.4,Win32,60,5ec7e258f052ac26af7aafc5,,1,0,98,51,1,97
,,,,,,,,,,,,,,,,,,,,,,,,,,,,,,,,,,,,,,,,,n,2.100000143,LION,FALSE,,,,,,,55,leon,Spanish,Sounds/spa_leon.mp3,2020-06-24_18h03.15.124,TranslationElicitation_eng-prolific-spa,3.2.4,Win32,60,5ec7e258f052ac26af7aafc5,,1,0,98,51,1,97
,,,,,,,,,,,,,,,,,,,,,,,,,,,,,,,,,,,,,,,,,return,2.317000151,LION,FALSE,,,,,,,55,leon,Spanish,Sounds/spa_leon.mp3,2020-06-24_18h03.15.124,TranslationElicitation_eng-prolific-spa,3.2.4,Win32,60,5ec7e258f052ac26af7aafc5,2.317000151,1,0,98,51,1,97
,,,,,,,,,,,,,,,,,,,,,,,,,,,,,,,,,,,,,,,,,,,,,,,,,,,55,leon,Spanish,Sounds/spa_leon.mp3,2020-06-24_18h03.15.124,TranslationElicitation_eng-prolific-spa,3.2.4,Win32,60,5ec7e258f052ac26af7aafc5,,1,0,98,51,1,97
,,,,,,,,,,,,,,,,,,,,,,,,,,,,,,,,,,,,,,,,,t,4.399999857,T,FALSE,,,,,,,84,pie,Spanish,Sounds/spa_pie.mp3,2020-06-24_18h03.15.124,TranslationElicitation_eng-prolific-spa,3.2.4,Win32,60,5ec7e258f052ac26af7aafc5,,1,0,98,79,1,97
,,,,,,,,,,,,,,,,,,,,,,,,,,,,,,,,,,,,,,,,,h,4.48300004,TH,FALSE,,,,,,,84,pie,Spanish,Sounds/spa_pie.mp3,2020-06-24_18h03.15.124,TranslationElicitation_eng-prolific-spa,3.2.4,Win32,60,5ec7e258f052ac26af7aafc5,,1,0,98,79,1,97
,,,,,,,,,,,,,,,,,,,,,,,,,,,,,,,,,,,,,,,,,e,4.582999945,THE,FALSE,,,,,,,84,pie,Spanish,Sounds/spa_pie.mp3,2020-06-24_18h03.15.124,TranslationElicitation_eng-prolific-spa,3.2.4,Win32,60,5ec7e258f052ac26af7aafc5,,1,0,98,79,1,97
,,,,,,,,,,,,,,,,,,,,,,,,,,,,,,,,,,,,,,,,,y,4.649999857,THEY,FALSE,,,,,,,84,pie,Spanish,Sounds/spa_pie.mp3,2020-06-24_18h03.15.124,TranslationElicitation_eng-prolific-spa,3.2.4,Win32,60,5ec7e258f052ac26af7aafc5,,1,0,98,79,1,97
,,,,,,,,,,,,,,,,,,,,,,,,,,,,,,,,,,,,,,,,,return,4.965999842,THEY,FALSE,,,,,,,84,pie,Spanish,Sounds/spa_pie.mp3,2020-06-24_18h03.15.124,TranslationElicitation_eng-prolific-spa,3.2.4,Win32,60,5ec7e258f052ac26af7aafc5,4.965999842,1,0,98,79,1,97
,,,,,,,,,,,,,,,,,,,,,,,,,,,,,,,,,,,,,,,,,,,,,,,,,,,84,pie,Spanish,Sounds/spa_pie.mp3,2020-06-24_18h03.15.124,TranslationElicitation_eng-prolific-spa,3.2.4,Win32,60,5ec7e258f052ac26af7aafc5,,1,0,98,79,1,97
,,,,,,,,,,,,,,,,,,,,,,,,,,,,,,,,,,,,,,,,,g,6.667000055,G,FALSE,,,,,,,46,grifo,Spanish,Sounds/spa_grifo.mp3,2020-06-24_18h03.15.124,TranslationElicitation_eng-prolific-spa,3.2.4,Win32,60,5ec7e258f052ac26af7aafc5,,1,0,98,42,1,97
,,,,,,,,,,,,,,,,,,,,,,,,,,,,,,,,,,,,,,,,,o,6.784000158,GO,FALSE,,,,,,,46,grifo,Spanish,Sounds/spa_grifo.mp3,2020-06-24_18h03.15.124,TranslationElicitation_eng-prolific-spa,3.2.4,Win32,60,5ec7e258f052ac26af7aafc5,,1,0,98,42,1,97
,,,,,,,,,,,,,,,,,,,,,,,,,,,,,,,,,,,,,,,,,o,6.917000055,GOO,FALSE,,,,,,,46,grifo,Spanish,Sounds/spa_grifo.mp3,2020-06-24_18h03.15.124,TranslationElicitation_eng-prolific-spa,3.2.4,Win32,60,5ec7e258f052ac26af7aafc5,,1,0,98,42,1,97
,,,,,,,,,,,,,,,,,,,,,,,,,,,,,,,,,,,,,,,,,d,7.034000158,GOOD,FALSE,,,,,,,46,grifo,Spanish,Sounds/spa_grifo.mp3,2020-06-24_18h03.15.124,TranslationElicitation_eng-prolific-spa,3.2.4,Win32,60,5ec7e258f052ac26af7aafc5,,1,0,98,42,1,97
,,,,,,,,,,,,,,,,,,,,,,,,,,,,,,,,,,,,,,,,,space,7.117000103,GOOD ,FALSE,,,,,,,46,grifo,Spanish,Sounds/spa_grifo.mp3,2020-06-24_18h03.15.124,TranslationElicitation_eng-prolific-spa,3.2.4,Win32,60,5ec7e258f052ac26af7aafc5,,1,0,98,42,1,97
,,,,,,,,,,,,,,,,,,,,,,,,,,,,,,,,,,,,,,,,,g,7.550000191,GOOD G,FALSE,,,,,,,46,grifo,Spanish,Sounds/spa_grifo.mp3,2020-06-24_18h03.15.124,TranslationElicitation_eng-prolific-spa,3.2.4,Win32,60,5ec7e258f052ac26af7aafc5,,1,0,98,42,1,97
,,,,,,,,,,,,,,,,,,,,,,,,,,,,,,,,,,,,,,,,,r,7.717000008,GOOD GR,FALSE,,,,,,,46,grifo,Spanish,Sounds/spa_grifo.mp3,2020-06-24_18h03.15.124,TranslationElicitation_eng-prolific-spa,3.2.4,Win32,60,5ec7e258f052ac26af7aafc5,,1,0,98,42,1,97
,,,,,,,,,,,,,,,,,,,,,,,,,,,,,,,,,,,,,,,,,i,7.801000118,GOOD GRI,FALSE,,,,,,,46,grifo,Spanish,Sounds/spa_grifo.mp3,2020-06-24_18h03.15.124,TranslationElicitation_eng-prolific-spa,3.2.4,Win32,60,5ec7e258f052ac26af7aafc5,,1,0,98,42,1,97
,,,,,,,,,,,,,,,,,,,,,,,,,,,,,,,,,,,,,,,,,e,7.900000095,GOOD GRIE,FALSE,,,,,,,46,grifo,Spanish,Sounds/spa_grifo.mp3,2020-06-24_18h03.15.124,TranslationElicitation_eng-prolific-spa,3.2.4,Win32,60,5ec7e258f052ac26af7aafc5,,1,0,98,42,1,97
,,,,,,,,,,,,,,,,,,,,,,,,,,,,,,,,,,,,,,,,,f,8.067000151,GOOD GRIEF,FALSE,,,,,,,46,grifo,Spanish,Sounds/spa_grifo.mp3,2020-06-24_18h03.15.124,TranslationElicitation_eng-prolific-spa,3.2.4,Win32,60,5ec7e258f052ac26af7aafc5,,1,0,98,42,1,97
,,,,,,,,,,,,,,,,,,,,,,,,,,,,,,,,,,,,,,,,,backspace,10.13400006,GOOD GRIE,TRUE,,,,,,,46,grifo,Spanish,Sounds/spa_grifo.mp3,2020-06-24_18h03.15.124,TranslationElicitation_eng-prolific-spa,3.2.4,Win32,60,5ec7e258f052ac26af7aafc5,,1,0,98,42,1,97
,,,,,,,,,,,,,,,,,,,,,,,,,,,,,,,,,,,,,,,,,f,11.05100012,GOOD GRIEF,TRUE,,,,,,,46,grifo,Spanish,Sounds/spa_grifo.mp3,2020-06-24_18h03.15.124,TranslationElicitation_eng-prolific-spa,3.2.4,Win32,60,5ec7e258f052ac26af7aafc5,,1,0,98,42,1,97
,,,,,,,,,,,,,,,,,,,,,,,,,,,,,,,,,,,,,,,,,space,11.68600011,GOOD GRIEF ,TRUE,,,,,,,46,grifo,Spanish,Sounds/spa_grifo.mp3,2020-06-24_18h03.15.124,TranslationElicitation_eng-prolific-spa,3.2.4,Win32,60,5ec7e258f052ac26af7aafc5,,1,0,98,42,1,97
,,,,,,,,,,,,,,,,,,,,,,,,,,,,,,,,,,,,,,,,,o,11.88300014,GOOD GRIEF O,TRUE,,,,,,,46,grifo,Spanish,Sounds/spa_grifo.mp3,2020-06-24_18h03.15.124,TranslationElicitation_eng-prolific-spa,3.2.4,Win32,60,5ec7e258f052ac26af7aafc5,,1,0,98,42,1,97
,,,,,,,,,,,,,,,,,,,,,,,,,,,,,,,,,,,,,,,,,r,12.01900005,GOOD GRIEF OR,TRUE,,,,,,,46,grifo,Spanish,Sounds/spa_grifo.mp3,2020-06-24_18h03.15.124,TranslationElicitation_eng-prolific-spa,3.2.4,Win32,60,5ec7e258f052ac26af7aafc5,,1,0,98,42,1,97
,,,,,,,,,,,,,,,,,,,,,,,,,,,,,,,,,,,,,,,,,space,12.13300014,GOOD GRIEF OR ,TRUE,,,,,,,46,grifo,Spanish,Sounds/spa_grifo.mp3,2020-06-24_18h03.15.124,TranslationElicitation_eng-prolific-spa,3.2.4,Win32,60,5ec7e258f052ac26af7aafc5,,1,0,98,42,1,97
,,,,,,,,,,,,,,,,,,,,,,,,,,,,,,,,,,,,,,,,,s,12.53299999,GOOD GRIEF OR S,TRUE,,,,,,,46,grifo,Spanish,Sounds/spa_grifo.mp3,2020-06-24_18h03.15.124,TranslationElicitation_eng-prolific-spa,3.2.4,Win32,60,5ec7e258f052ac26af7aafc5,,1,0,98,42,1,97
,,,,,,,,,,,,,,,,,,,,,,,,,,,,,,,,,,,,,,,,,a,12.6500001,GOOD GRIEF OR SA,TRUE,,,,,,,46,grifo,Spanish,Sounds/spa_grifo.mp3,2020-06-24_18h03.15.124,TranslationElicitation_eng-prolific-spa,3.2.4,Win32,60,5ec7e258f052ac26af7aafc5,,1,0,98,42,1,97
,,,,,,,,,,,,,,,,,,,,,,,,,,,,,,,,,,,,,,,,,f,12.83400011,GOOD GRIEF OR SAF,TRUE,,,,,,,46,grifo,Spanish,Sounds/spa_grifo.mp3,2020-06-24_18h03.15.124,TranslationElicitation_eng-prolific-spa,3.2.4,Win32,60,5ec7e258f052ac26af7aafc5,,1,0,98,42,1,97
,,,,,,,,,,,,,,,,,,,,,,,,,,,,,,,,,,,,,,,,,n,13.26200008,GOOD GRIEF OR SAFN,TRUE,,,,,,,46,grifo,Spanish,Sounds/spa_grifo.mp3,2020-06-24_18h03.15.124,TranslationElicitation_eng-prolific-spa,3.2.4,Win32,60,5ec7e258f052ac26af7aafc5,,1,0,98,42,1,97
,,,,,,,,,,,,,,,,,,,,,,,,,,,,,,,,,,,,,,,,,backspace,13.73300004,GOOD GRIEF OR SAF,TRUE,,,,,,,46,grifo,Spanish,Sounds/spa_grifo.mp3,2020-06-24_18h03.15.124,TranslationElicitation_eng-prolific-spa,3.2.4,Win32,60,5ec7e258f052ac26af7aafc5,,1,0,98,42,1,97
,,,,,,,,,,,,,,,,,,,,,,,,,,,,,,,,,,,,,,,,,backspace,13.8670001,GOOD GRIEF OR SA,TRUE,,,,,,,46,grifo,Spanish,Sounds/spa_grifo.mp3,2020-06-24_18h03.15.124,TranslationElicitation_eng-prolific-spa,3.2.4,Win32,60,5ec7e258f052ac26af7aafc5,,1,0,98,42,1,97
,,,,,,,,,,,,,,,,,,,,,,,,,,,,,,,,,,,,,,,,,backspace,14.73200011,GOOD GRIEF OR S,TRUE,,,,,,,46,grifo,Spanish,Sounds/spa_grifo.mp3,2020-06-24_18h03.15.124,TranslationElicitation_eng-prolific-spa,3.2.4,Win32,60,5ec7e258f052ac26af7aafc5,,1,0,98,42,1,97
,,,,,,,,,,,,,,,,,,,,,,,,,,,,,,,,,,,,,,,,,backspace,14.9000001,GOOD GRIEF OR ,TRUE,,,,,,,46,grifo,Spanish,Sounds/spa_grifo.mp3,2020-06-24_18h03.15.124,TranslationElicitation_eng-prolific-spa,3.2.4,Win32,60,5ec7e258f052ac26af7aafc5,,1,0,98,42,1,97
,,,,,,,,,,,,,,,,,,,,,,,,,,,,,,,,,,,,,,,,,o,15.81700015,GOOD GRIEF OR O,TRUE,,,,,,,46,grifo,Spanish,Sounds/spa_grifo.mp3,2020-06-24_18h03.15.124,TranslationElicitation_eng-prolific-spa,3.2.4,Win32,60,5ec7e258f052ac26af7aafc5,,1,0,98,42,1,97
,,,,,,,,,,,,,,,,,,,,,,,,,,,,,,,,,,,,,,,,,h,16.05000019,GOOD GRIEF OR OH,TRUE,,,,,,,46,grifo,Spanish,Sounds/spa_grifo.mp3,2020-06-24_18h03.15.124,TranslationElicitation_eng-prolific-spa,3.2.4,Win32,60,5ec7e258f052ac26af7aafc5,,1,0,98,42,1,97
,,,,,,,,,,,,,,,,,,,,,,,,,,,,,,,,,,,,,,,,,space,16.11800003,GOOD GRIEF OR OH ,TRUE,,,,,,,46,grifo,Spanish,Sounds/spa_grifo.mp3,2020-06-24_18h03.15.124,TranslationElicitation_eng-prolific-spa,3.2.4,Win32,60,5ec7e258f052ac26af7aafc5,,1,0,98,42,1,97
,,,,,,,,,,,,,,,,,,,,,,,,,,,,,,,,,,,,,,,,,n,16.35000014,GOOD GRIEF OR OH N,TRUE,,,,,,,46,grifo,Spanish,Sounds/spa_grifo.mp3,2020-06-24_18h03.15.124,TranslationElicitation_eng-prolific-spa,3.2.4,Win32,60,5ec7e258f052ac26af7aafc5,,1,0,98,42,1,97
,,,,,,,,,,,,,,,,,,,,,,,,,,,,,,,,,,,,,,,,,o,16.43400002,GOOD GRIEF OR OH NO,TRUE,,,,,,,46,grifo,Spanish,Sounds/spa_grifo.mp3,2020-06-24_18h03.15.124,TranslationElicitation_eng-prolific-spa,3.2.4,Win32,60,5ec7e258f052ac26af7aafc5,,1,0,98,42,1,97
,,,,,,,,,,,,,,,,,,,,,,,,,,,,,,,,,,,,,,,,,return,17.08300018,GOOD GRIEF OR OH NO,TRUE,,,,,,,46,grifo,Spanish,Sounds/spa_grifo.mp3,2020-06-24_18h03.15.124,TranslationElicitation_eng-prolific-spa,3.2.4,Win32,60,5ec7e258f052ac26af7aafc5,17.08300018,1,0,98,42,1,97
,,,,,,,,,,,,,,,,,,,,,,,,,,,,,,,,,,,,,,,,,,,,,,,,,,,46,grifo,Spanish,Sounds/spa_grifo.mp3,2020-06-24_18h03.15.124,TranslationElicitation_eng-prolific-spa,3.2.4,Win32,60,5ec7e258f052ac26af7aafc5,,1,0,98,42,1,97
,,,,,,,,,,,,,,,,,,,,,,,,,,,,,,,,,,,,,,,,,p,32.14999986,P,FALSE,,,,,,,76,panal,Spanish,Sounds/spa_panal.mp3,2020-06-24_18h03.15.124,TranslationElicitation_eng-prolific-spa,3.2.4,Win32,60,5ec7e258f052ac26af7aafc5,,1,0,98,71,1,97
,,,,,,,,,,,,,,,,,,,,,,,,,,,,,,,,,,,,,,,,,a,32.56699991,PA,FALSE,,,,,,,76,panal,Spanish,Sounds/spa_panal.mp3,2020-06-24_18h03.15.124,TranslationElicitation_eng-prolific-spa,3.2.4,Win32,60,5ec7e258f052ac26af7aafc5,,1,0,98,71,1,97
,,,,,,,,,,,,,,,,,,,,,,,,,,,,,,,,,,,,,,,,,n,32.64999986,PAN,FALSE,,,,,,,76,panal,Spanish,Sounds/spa_panal.mp3,2020-06-24_18h03.15.124,TranslationElicitation_eng-prolific-spa,3.2.4,Win32,60,5ec7e258f052ac26af7aafc5,,1,0,98,71,1,97
,,,,,,,,,,,,,,,,,,,,,,,,,,,,,,,,,,,,,,,,,e,32.76699996,PANE,FALSE,,,,,,,76,panal,Spanish,Sounds/spa_panal.mp3,2020-06-24_18h03.15.124,TranslationElicitation_eng-prolific-spa,3.2.4,Win32,60,5ec7e258f052ac26af7aafc5,,1,0,98,71,1,97
,,,,,,,,,,,,,,,,,,,,,,,,,,,,,,,,,,,,,,,,,l,32.89999986,PANEL,FALSE,,,,,,,76,panal,Spanish,Sounds/spa_panal.mp3,2020-06-24_18h03.15.124,TranslationElicitation_eng-prolific-spa,3.2.4,Win32,60,5ec7e258f052ac26af7aafc5,,1,0,98,71,1,97
,,,,,,,,,,,,,,,,,,,,,,,,,,,,,,,,,,,,,,,,,space,35.28399992,PANEL ,FALSE,,,,,,,76,panal,Spanish,Sounds/spa_panal.mp3,2020-06-24_18h03.15.124,TranslationElicitation_eng-prolific-spa,3.2.4,Win32,60,5ec7e258f052ac26af7aafc5,,1,0,98,71,1,97
,,,,,,,,,,,,,,,,,,,,,,,,,,,,,,,,,,,,,,,,,return,36.3499999,PANEL ,FALSE,,,,,,,76,panal,Spanish,Sounds/spa_panal.mp3,2020-06-24_18h03.15.124,TranslationElicitation_eng-prolific-spa,3.2.4,Win32,60,5ec7e258f052ac26af7aafc5,36.3499999,1,0,98,71,1,97
,,,,,,,,,,,,,,,,,,,,,,,,,,,,,,,,,,,,,,,,,,,,,,,,,,,76,panal,Spanish,Sounds/spa_panal.mp3,2020-06-24_18h03.15.124,TranslationElicitation_eng-prolific-spa,3.2.4,Win32,60,5ec7e258f052ac26af7aafc5,,1,0,98,71,1,97
,,,,,,,,,,,,,,,,,,,,,,,,,,,,,,,,,,,,,,,,,m,2.348999977,M,FALSE,,,,,,,4,biberon,Spanish,Sounds/spa_biberon.mp3,2020-06-24_18h03.15.124,TranslationElicitation_eng-prolific-spa,3.2.4,Win32,60,5ec7e258f052ac26af7aafc5,,1,0,98,2,1,97
,,,,,,,,,,,,,,,,,,,,,,,,,,,,,,,,,,,,,,,,,o,2.532999992,MO,FALSE,,,,,,,4,biberon,Spanish,Sounds/spa_biberon.mp3,2020-06-24_18h03.15.124,TranslationElicitation_eng-prolific-spa,3.2.4,Win32,60,5ec7e258f052ac26af7aafc5,,1,0,98,2,1,97
,,,,,,,,,,,,,,,,,,,,,,,,,,,,,,,,,,,,,,,,,v,2.583000183,MOV,FALSE,,,,,,,4,biberon,Spanish,Sounds/spa_biberon.mp3,2020-06-24_18h03.15.124,TranslationElicitation_eng-prolific-spa,3.2.4,Win32,60,5ec7e258f052ac26af7aafc5,,1,0,98,2,1,97
,,,,,,,,,,,,,,,,,,,,,,,,,,,,,,,,,,,,,,,,,e,2.76699996,MOVE,FALSE,,,,,,,4,biberon,Spanish,Sounds/spa_biberon.mp3,2020-06-24_18h03.15.124,TranslationElicitation_eng-prolific-spa,3.2.4,Win32,60,5ec7e258f052ac26af7aafc5,,1,0,98,2,1,97
,,,,,,,,,,,,,,,,,,,,,,,,,,,,,,,,,,,,,,,,,o,2.933000088,MOVEO,FALSE,,,,,,,4,biberon,Spanish,Sounds/spa_biberon.mp3,2020-06-24_18h03.15.124,TranslationElicitation_eng-prolific-spa,3.2.4,Win32,60,5ec7e258f052ac26af7aafc5,,1,0,98,2,1,97
,,,,,,,,,,,,,,,,,,,,,,,,,,,,,,,,,,,,,,,,,n,3.016000032,MOVEON,FALSE,,,,,,,4,biberon,Spanish,Sounds/spa_biberon.mp3,2020-06-24_18h03.15.124,TranslationElicitation_eng-prolific-spa,3.2.4,Win32,60,5ec7e258f052ac26af7aafc5,,1,0,98,2,1,97
,,,,,,,,,,,,,,,,,,,,,,,,,,,,,,,,,,,,,,,,,backspace,3.565999985,MOVEO,TRUE,,,,,,,4,biberon,Spanish,Sounds/spa_biberon.mp3,2020-06-24_18h03.15.124,TranslationElicitation_eng-prolific-spa,3.2.4,Win32,60,5ec7e258f052ac26af7aafc5,,1,0,98,2,1,97
,,,,,,,,,,,,,,,,,,,,,,,,,,,,,,,,,,,,,,,,,backspace,3.684000015,MOVE,TRUE,,,,,,,4,biberon,Spanish,Sounds/spa_biberon.mp3,2020-06-24_18h03.15.124,TranslationElicitation_eng-prolific-spa,3.2.4,Win32,60,5ec7e258f052ac26af7aafc5,,1,0,98,2,1,97
,,,,,,,,,,,,,,,,,,,,,,,,,,,,,,,,,,,,,,,,,space,3.866000175,MOVE ,TRUE,,,,,,,4,biberon,Spanish,Sounds/spa_biberon.mp3,2020-06-24_18h03.15.124,TranslationElicitation_eng-prolific-spa,3.2.4,Win32,60,5ec7e258f052ac26af7aafc5,,1,0,98,2,1,97
,,,,,,,,,,,,,,,,,,,,,,,,,,,,,,,,,,,,,,,,,o,4.032999992,MOVE O,TRUE,,,,,,,4,biberon,Spanish,Sounds/spa_biberon.mp3,2020-06-24_18h03.15.124,TranslationElicitation_eng-prolific-spa,3.2.4,Win32,60,5ec7e258f052ac26af7aafc5,,1,0,98,2,1,97
,,,,,,,,,,,,,,,,,,,,,,,,,,,,,,,,,,,,,,,,,n,4.098999977,MOVE ON,TRUE,,,,,,,4,biberon,Spanish,Sounds/spa_biberon.mp3,2020-06-24_18h03.15.124,TranslationElicitation_eng-prolific-spa,3.2.4,Win32,60,5ec7e258f052ac26af7aafc5,,1,0,98,2,1,97
,,,,,,,,,,,,,,,,,,,,,,,,,,,,,,,,,,,,,,,,,return,4.48300004,MOVE ON,TRUE,,,,,,,4,biberon,Spanish,Sounds/spa_biberon.mp3,2020-06-24_18h03.15.124,TranslationElicitation_eng-prolific-spa,3.2.4,Win32,60,5ec7e258f052ac26af7aafc5,4.48300004,1,0,98,2,1,97
,,,,,,,,,,,,,,,,,,,,,,,,,,,,,,,,,,,,,,,,,,,,,,,,,,,4,biberon,Spanish,Sounds/spa_biberon.mp3,2020-06-24_18h03.15.124,TranslationElicitation_eng-prolific-spa,3.2.4,Win32,60,5ec7e258f052ac26af7aafc5,,1,0,98,2,1,97
,,,,,,,,,,,,,,,,,,,,,,,,,,,,,,,,,,,,,,,,,g,2,G,FALSE,,,,,,,43,globo,Spanish,Sounds/spa_globo.mp3,2020-06-24_18h03.15.124,TranslationElicitation_eng-prolific-spa,3.2.4,Win32,60,5ec7e258f052ac26af7aafc5,,1,0,98,39,1,97
,,,,,,,,,,,,,,,,,,,,,,,,,,,,,,,,,,,,,,,,,l,2.065999985,GL,FALSE,,,,,,,43,globo,Spanish,Sounds/spa_globo.mp3,2020-06-24_18h03.15.124,TranslationElicitation_eng-prolific-spa,3.2.4,Win32,60,5ec7e258f052ac26af7aafc5,,1,0,98,39,1,97
,,,,,,,,,,,,,,,,,,,,,,,,,,,,,,,,,,,,,,,,,o,2.23300004,GLO,FALSE,,,,,,,43,globo,Spanish,Sounds/spa_globo.mp3,2020-06-24_18h03.15.124,TranslationElicitation_eng-prolific-spa,3.2.4,Win32,60,5ec7e258f052ac26af7aafc5,,1,0,98,39,1,97
,,,,,,,,,,,,,,,,,,,,,,,,,,,,,,,,,,,,,,,,,w,2.316999912,GLOW,FALSE,,,,,,,43,globo,Spanish,Sounds/spa_globo.mp3,2020-06-24_18h03.15.124,TranslationElicitation_eng-prolific-spa,3.2.4,Win32,60,5ec7e258f052ac26af7aafc5,,1,0,98,39,1,97
,,,,,,,,,,,,,,,,,,,,,,,,,,,,,,,,,,,,,,,,,i,2.416000128,GLOWI,FALSE,,,,,,,43,globo,Spanish,Sounds/spa_globo.mp3,2020-06-24_18h03.15.124,TranslationElicitation_eng-prolific-spa,3.2.4,Win32,60,5ec7e258f052ac26af7aafc5,,1,0,98,39,1,97
,,,,,,,,,,,,,,,,,,,,,,,,,,,,,,,,,,,,,,,,,n,2.546999931,GLOWIN,FALSE,,,,,,,43,globo,Spanish,Sounds/spa_globo.mp3,2020-06-24_18h03.15.124,TranslationElicitation_eng-prolific-spa,3.2.4,Win32,60,5ec7e258f052ac26af7aafc5,,1,0,98,39,1,97
,,,,,,,,,,,,,,,,,,,,,,,,,,,,,,,,,,,,,,,,,g,2.650000095,GLOWING,FALSE,,,,,,,43,globo,Spanish,Sounds/spa_globo.mp3,2020-06-24_18h03.15.124,TranslationElicitation_eng-prolific-spa,3.2.4,Win32,60,5ec7e258f052ac26af7aafc5,,1,0,98,39,1,97
,,,,,,,,,,,,,,,,,,,,,,,,,,,,,,,,,,,,,,,,,return,2.865999937,GLOWING,FALSE,,,,,,,43,globo,Spanish,Sounds/spa_globo.mp3,2020-06-24_18h03.15.124,TranslationElicitation_eng-prolific-spa,3.2.4,Win32,60,5ec7e258f052ac26af7aafc5,2.865999937,1,0,98,39,1,97
,,,,,,,,,,,,,,,,,,,,,,,,,,,,,,,,,,,,,,,,,,,,,,,,,,,43,globo,Spanish,Sounds/spa_globo.mp3,2020-06-24_18h03.15.124,TranslationElicitation_eng-prolific-spa,3.2.4,Win32,60,5ec7e258f052ac26af7aafc5,,1,0,98,39,1,97
,,,,,,,,,,,,,,,,,,,,,,,,,,,,,,,,,,,,,,,,,s,2.415999889,S,FALSE,,,,,,,85,pierna,Spanish,Sounds/spa_pierna.mp3,2020-06-24_18h03.15.124,TranslationElicitation_eng-prolific-spa,3.2.4,Win32,60,5ec7e258f052ac26af7aafc5,,1,0,98,80,1,97
,,,,,,,,,,,,,,,,,,,,,,,,,,,,,,,,,,,,,,,,,i,2.498999834,SI,FALSE,,,,,,,85,pierna,Spanish,Sounds/spa_pierna.mp3,2020-06-24_18h03.15.124,TranslationElicitation_eng-prolific-spa,3.2.4,Win32,60,5ec7e258f052ac26af7aafc5,,1,0,98,80,1,97
,,,,,,,,,,,,,,,,,,,,,,,,,,,,,,,,,,,,,,,,,s,2.598999977,SIS,FALSE,,,,,,,85,pierna,Spanish,Sounds/spa_pierna.mp3,2020-06-24_18h03.15.124,TranslationElicitation_eng-prolific-spa,3.2.4,Win32,60,5ec7e258f052ac26af7aafc5,,1,0,98,80,1,97
,,,,,,,,,,,,,,,,,,,,,,,,,,,,,,,,,,,,,,,,,t,2.701999903,SIST,FALSE,,,,,,,85,pierna,Spanish,Sounds/spa_pierna.mp3,2020-06-24_18h03.15.124,TranslationElicitation_eng-prolific-spa,3.2.4,Win32,60,5ec7e258f052ac26af7aafc5,,1,0,98,80,1,97
,,,,,,,,,,,,,,,,,,,,,,,,,,,,,,,,,,,,,,,,,e,2.799000025,SISTE,FALSE,,,,,,,85,pierna,Spanish,Sounds/spa_pierna.mp3,2020-06-24_18h03.15.124,TranslationElicitation_eng-prolific-spa,3.2.4,Win32,60,5ec7e258f052ac26af7aafc5,,1,0,98,80,1,97
,,,,,,,,,,,,,,,,,,,,,,,,,,,,,,,,,,,,,,,,,r,2.915999889,SISTER,FALSE,,,,,,,85,pierna,Spanish,Sounds/spa_pierna.mp3,2020-06-24_18h03.15.124,TranslationElicitation_eng-prolific-spa,3.2.4,Win32,60,5ec7e258f052ac26af7aafc5,,1,0,98,80,1,97
,,,,,,,,,,,,,,,,,,,,,,,,,,,,,,,,,,,,,,,,,return,3.082999945,SISTER,FALSE,,,,,,,85,pierna,Spanish,Sounds/spa_pierna.mp3,2020-06-24_18h03.15.124,TranslationElicitation_eng-prolific-spa,3.2.4,Win32,60,5ec7e258f052ac26af7aafc5,3.082999945,1,0,98,80,1,97
,,,,,,,,,,,,,,,,,,,,,,,,,,,,,,,,,,,,,,,,,,,,,,,,,,,85,pierna,Spanish,Sounds/spa_pierna.mp3,2020-06-24_18h03.15.124,TranslationElicitation_eng-prolific-spa,3.2.4,Win32,60,5ec7e258f052ac26af7aafc5,,1,0,98,80,1,97
,,,,,,,,,,,,,,,,,,,,,,,,,,,,,,,,,,,,,,,,,p,5,P,FALSE,,,,,,,88,plato,Spanish,Sounds/spa_plato.mp3,2020-06-24_18h03.15.124,TranslationElicitation_eng-prolific-spa,3.2.4,Win32,60,5ec7e258f052ac26af7aafc5,,1,0,98,83,1,97
,,,,,,,,,,,,,,,,,,,,,,,,,,,,,,,,,,,,,,,,,l,5.066999912,PL,FALSE,,,,,,,88,plato,Spanish,Sounds/spa_plato.mp3,2020-06-24_18h03.15.124,TranslationElicitation_eng-prolific-spa,3.2.4,Win32,60,5ec7e258f052ac26af7aafc5,,1,0,98,83,1,97
,,,,,,,,,,,,,,,,,,,,,,,,,,,,,,,,,,,,,,,,,a,5.316999912,PLA,FALSE,,,,,,,88,plato,Spanish,Sounds/spa_plato.mp3,2020-06-24_18h03.15.124,TranslationElicitation_eng-prolific-spa,3.2.4,Win32,60,5ec7e258f052ac26af7aafc5,,1,0,98,83,1,97
,,,,,,,,,,,,,,,,,,,,,,,,,,,,,,,,,,,,,,,,,n,5.713999987,PLAN,FALSE,,,,,,,88,plato,Spanish,Sounds/spa_plato.mp3,2020-06-24_18h03.15.124,TranslationElicitation_eng-prolific-spa,3.2.4,Win32,60,5ec7e258f052ac26af7aafc5,,1,0,98,83,1,97
,,,,,,,,,,,,,,,,,,,,,,,,,,,,,,,,,,,,,,,,,e,6.05099988,PLANE,FALSE,,,,,,,88,plato,Spanish,Sounds/spa_plato.mp3,2020-06-24_18h03.15.124,TranslationElicitation_eng-prolific-spa,3.2.4,Win32,60,5ec7e258f052ac26af7aafc5,,1,0,98,83,1,97
,,,,,,,,,,,,,,,,,,,,,,,,,,,,,,,,,,,,,,,,,t,6.200000048,PLANET,FALSE,,,,,,,88,plato,Spanish,Sounds/spa_plato.mp3,2020-06-24_18h03.15.124,TranslationElicitation_eng-prolific-spa,3.2.4,Win32,60,5ec7e258f052ac26af7aafc5,,1,0,98,83,1,97
,,,,,,,,,,,,,,,,,,,,,,,,,,,,,,,,,,,,,,,,,return,6.532999992,PLANET,FALSE,,,,,,,88,plato,Spanish,Sounds/spa_plato.mp3,2020-06-24_18h03.15.124,TranslationElicitation_eng-prolific-spa,3.2.4,Win32,60,5ec7e258f052ac26af7aafc5,6.532999992,1,0,98,83,1,97
,,,,,,,,,,,,,,,,,,,,,,,,,,,,,,,,,,,,,,,,,,,,,,,,,,,88,plato,Spanish,Sounds/spa_plato.mp3,2020-06-24_18h03.15.124,TranslationElicitation_eng-prolific-spa,3.2.4,Win32,60,5ec7e258f052ac26af7aafc5,,1,0,98,83,1,97
,,,,,,,,,,,,,,,,,,,,,,,,,,,,,,,,,,,,,,,,,t,1.299000025,T,FALSE,,,,,,,99,tomate,Spanish,Sounds/spa_tomate.mp3,2020-06-24_18h03.15.124,TranslationElicitation_eng-prolific-spa,3.2.4,Win32,60,5ec7e258f052ac26af7aafc5,,1,0,98,93,1,97
,,,,,,,,,,,,,,,,,,,,,,,,,,,,,,,,,,,,,,,,,o,1.416000128,TO,FALSE,,,,,,,99,tomate,Spanish,Sounds/spa_tomate.mp3,2020-06-24_18h03.15.124,TranslationElicitation_eng-prolific-spa,3.2.4,Win32,60,5ec7e258f052ac26af7aafc5,,1,0,98,93,1,97
,,,,,,,,,,,,,,,,,,,,,,,,,,,,,,,,,,,,,,,,,m,1.582999945,TOM,FALSE,,,,,,,99,tomate,Spanish,Sounds/spa_tomate.mp3,2020-06-24_18h03.15.124,TranslationElicitation_eng-prolific-spa,3.2.4,Win32,60,5ec7e258f052ac26af7aafc5,,1,0,98,93,1,97
,,,,,,,,,,,,,,,,,,,,,,,,,,,,,,,,,,,,,,,,,a,1.649000168,TOMA,FALSE,,,,,,,99,tomate,Spanish,Sounds/spa_tomate.mp3,2020-06-24_18h03.15.124,TranslationElicitation_eng-prolific-spa,3.2.4,Win32,60,5ec7e258f052ac26af7aafc5,,1,0,98,93,1,97
,,,,,,,,,,,,,,,,,,,,,,,,,,,,,,,,,,,,,,,,,t,1.799000025,TOMAT,FALSE,,,,,,,99,tomate,Spanish,Sounds/spa_tomate.mp3,2020-06-24_18h03.15.124,TranslationElicitation_eng-prolific-spa,3.2.4,Win32,60,5ec7e258f052ac26af7aafc5,,1,0,98,93,1,97
,,,,,,,,,,,,,,,,,,,,,,,,,,,,,,,,,,,,,,,,,o,1.916000128,TOMATO,FALSE,,,,,,,99,tomate,Spanish,Sounds/spa_tomate.mp3,2020-06-24_18h03.15.124,TranslationElicitation_eng-prolific-spa,3.2.4,Win32,60,5ec7e258f052ac26af7aafc5,,1,0,98,93,1,97
,,,,,,,,,,,,,,,,,,,,,,,,,,,,,,,,,,,,,,,,,return,2.282999992,TOMATO,FALSE,,,,,,,99,tomate,Spanish,Sounds/spa_tomate.mp3,2020-06-24_18h03.15.124,TranslationElicitation_eng-prolific-spa,3.2.4,Win32,60,5ec7e258f052ac26af7aafc5,2.282999992,1,0,98,93,1,97
,,,,,,,,,,,,,,,,,,,,,,,,,,,,,,,,,,,,,,,,,,,,,,,,,,,99,tomate,Spanish,Sounds/spa_tomate.mp3,2020-06-24_18h03.15.124,TranslationElicitation_eng-prolific-spa,3.2.4,Win32,60,5ec7e258f052ac26af7aafc5,,1,0,98,93,1,97
,,,,,,,,,,,,,,,,,,,,,,,,,,,,,,,,,,,,,,,,,l,4.782999992,L,FALSE,,,,,,,51,ladrillo,Spanish,Sounds/spa_ladrillo.mp3,2020-06-24_18h03.15.124,TranslationElicitation_eng-prolific-spa,3.2.4,Win32,60,5ec7e258f052ac26af7aafc5,,1,0,98,47,1,97
,,,,,,,,,,,,,,,,,,,,,,,,,,,,,,,,,,,,,,,,,i,5.016000032,LI,FALSE,,,,,,,51,ladrillo,Spanish,Sounds/spa_ladrillo.mp3,2020-06-24_18h03.15.124,TranslationElicitation_eng-prolific-spa,3.2.4,Win32,60,5ec7e258f052ac26af7aafc5,,1,0,98,47,1,97
,,,,,,,,,,,,,,,,,,,,,,,,,,,,,,,,,,,,,,,,,t,5.133000135,LIT,FALSE,,,,,,,51,ladrillo,Spanish,Sounds/spa_ladrillo.mp3,2020-06-24_18h03.15.124,TranslationElicitation_eng-prolific-spa,3.2.4,Win32,60,5ec7e258f052ac26af7aafc5,,1,0,98,47,1,97
,,,,,,,,,,,,,,,,,,,,,,,,,,,,,,,,,,,,,,,,,t,5.272000074,LITT,FALSE,,,,,,,51,ladrillo,Spanish,Sounds/spa_ladrillo.mp3,2020-06-24_18h03.15.124,TranslationElicitation_eng-prolific-spa,3.2.4,Win32,60,5ec7e258f052ac26af7aafc5,,1,0,98,47,1,97
,,,,,,,,,,,,,,,,,,,,,,,,,,,,,,,,,,,,,,,,,l,5.366000175,LITTL,FALSE,,,,,,,51,ladrillo,Spanish,Sounds/spa_ladrillo.mp3,2020-06-24_18h03.15.124,TranslationElicitation_eng-prolific-spa,3.2.4,Win32,60,5ec7e258f052ac26af7aafc5,,1,0,98,47,1,97
,,,,,,,,,,,,,,,,,,,,,,,,,,,,,,,,,,,,,,,,,e,5.450000048,LITTLE,FALSE,,,,,,,51,ladrillo,Spanish,Sounds/spa_ladrillo.mp3,2020-06-24_18h03.15.124,TranslationElicitation_eng-prolific-spa,3.2.4,Win32,60,5ec7e258f052ac26af7aafc5,,1,0,98,47,1,97
,,,,,,,,,,,,,,,,,,,,,,,,,,,,,,,,,,,,,,,,,space,5.600000143,LITTLE ,FALSE,,,,,,,51,ladrillo,Spanish,Sounds/spa_ladrillo.mp3,2020-06-24_18h03.15.124,TranslationElicitation_eng-prolific-spa,3.2.4,Win32,60,5ec7e258f052ac26af7aafc5,,1,0,98,47,1,97
,,,,,,,,,,,,,,,,,,,,,,,,,,,,,,,,,,,,,,,,,l,5.75,LITTLE L,FALSE,,,,,,,51,ladrillo,Spanish,Sounds/spa_ladrillo.mp3,2020-06-24_18h03.15.124,TranslationElicitation_eng-prolific-spa,3.2.4,Win32,60,5ec7e258f052ac26af7aafc5,,1,0,98,47,1,97
,,,,,,,,,,,,,,,,,,,,,,,,,,,,,,,,,,,,,,,,,a,5.834000111,LITTLE LA,FALSE,,,,,,,51,ladrillo,Spanish,Sounds/spa_ladrillo.mp3,2020-06-24_18h03.15.124,TranslationElicitation_eng-prolific-spa,3.2.4,Win32,60,5ec7e258f052ac26af7aafc5,,1,0,98,47,1,97
,,,,,,,,,,,,,,,,,,,,,,,,,,,,,,,,,,,,,,,,,d,6.016000032,LITTLE LAD,FALSE,,,,,,,51,ladrillo,Spanish,Sounds/spa_ladrillo.mp3,2020-06-24_18h03.15.124,TranslationElicitation_eng-prolific-spa,3.2.4,Win32,60,5ec7e258f052ac26af7aafc5,,1,0,98,47,1,97
,,,,,,,,,,,,,,,,,,,,,,,,,,,,,,,,,,,,,,,,,y,6.083000183,LITTLE LADY,FALSE,,,,,,,51,ladrillo,Spanish,Sounds/spa_ladrillo.mp3,2020-06-24_18h03.15.124,TranslationElicitation_eng-prolific-spa,3.2.4,Win32,60,5ec7e258f052ac26af7aafc5,,1,0,98,47,1,97
,,,,,,,,,,,,,,,,,,,,,,,,,,,,,,,,,,,,,,,,,return,6.366000175,LITTLE LADY,FALSE,,,,,,,51,ladrillo,Spanish,Sounds/spa_ladrillo.mp3,2020-06-24_18h03.15.124,TranslationElicitation_eng-prolific-spa,3.2.4,Win32,60,5ec7e258f052ac26af7aafc5,6.366000175,1,0,98,47,1,97
,,,,,,,,,,,,,,,,,,,,,,,,,,,,,,,,,,,,,,,,,,,,,,,,,,,51,ladrillo,Spanish,Sounds/spa_ladrillo.mp3,2020-06-24_18h03.15.124,TranslationElicitation_eng-prolific-spa,3.2.4,Win32,60,5ec7e258f052ac26af7aafc5,,1,0,98,47,1,97
,,,,,,,,,,,,,,,,,,,,,,,,,,,,,,,,,,,,,,,,,c,5.299000025,C,FALSE,,,,,,,28,cielo,Spanish,Sounds/spa_cielo.mp3,2020-06-24_18h03.15.124,TranslationElicitation_eng-prolific-spa,3.2.4,Win32,60,5ec7e258f052ac26af7aafc5,,1,0,98,25,1,97
,,,,,,,,,,,,,,,,,,,,,,,,,,,,,,,,,,,,,,,,,i,5.382999897,CI,FALSE,,,,,,,28,cielo,Spanish,Sounds/spa_cielo.mp3,2020-06-24_18h03.15.124,TranslationElicitation_eng-prolific-spa,3.2.4,Win32,60,5ec7e258f052ac26af7aafc5,,1,0,98,25,1,97
,,,,,,,,,,,,,,,,,,,,,,,,,,,,,,,,,,,,,,,,,e,5.516000032,CIE,FALSE,,,,,,,28,cielo,Spanish,Sounds/spa_cielo.mp3,2020-06-24_18h03.15.124,TranslationElicitation_eng-prolific-spa,3.2.4,Win32,60,5ec7e258f052ac26af7aafc5,,1,0,98,25,1,97
,,,,,,,,,,,,,,,,,,,,,,,,,,,,,,,,,,,,,,,,,l,5.655999899,CIEL,FALSE,,,,,,,28,cielo,Spanish,Sounds/spa_cielo.mp3,2020-06-24_18h03.15.124,TranslationElicitation_eng-prolific-spa,3.2.4,Win32,60,5ec7e258f052ac26af7aafc5,,1,0,98,25,1,97
,,,,,,,,,,,,,,,,,,,,,,,,,,,,,,,,,,,,,,,,,l,5.766000032,CIELL,FALSE,,,,,,,28,cielo,Spanish,Sounds/spa_cielo.mp3,2020-06-24_18h03.15.124,TranslationElicitation_eng-prolific-spa,3.2.4,Win32,60,5ec7e258f052ac26af7aafc5,,1,0,98,25,1,97
,,,,,,,,,,,,,,,,,,,,,,,,,,,,,,,,,,,,,,,,,o,5.915999889,CIELLO,FALSE,,,,,,,28,cielo,Spanish,Sounds/spa_cielo.mp3,2020-06-24_18h03.15.124,TranslationElicitation_eng-prolific-spa,3.2.4,Win32,60,5ec7e258f052ac26af7aafc5,,1,0,98,25,1,97
,,,,,,,,,,,,,,,,,,,,,,,,,,,,,,,,,,,,,,,,,space,7.71600008,CIELLO ,FALSE,,,,,,,28,cielo,Spanish,Sounds/spa_cielo.mp3,2020-06-24_18h03.15.124,TranslationElicitation_eng-prolific-spa,3.2.4,Win32,60,5ec7e258f052ac26af7aafc5,,1,0,98,25,1,97
,,,,,,,,,,,,,,,,,,,,,,,,,,,,,,,,,,,,,,,,,l,8.065999985,CIELLO L,FALSE,,,,,,,28,cielo,Spanish,Sounds/spa_cielo.mp3,2020-06-24_18h03.15.124,TranslationElicitation_eng-prolific-spa,3.2.4,Win32,60,5ec7e258f052ac26af7aafc5,,1,0,98,25,1,97
,,,,,,,,,,,,,,,,,,,,,,,,,,,,,,,,,,,,,,,,,backspace,8.48300004,CIELLO ,TRUE,,,,,,,28,cielo,Spanish,Sounds/spa_cielo.mp3,2020-06-24_18h03.15.124,TranslationElicitation_eng-prolific-spa,3.2.4,Win32,60,5ec7e258f052ac26af7aafc5,,1,0,98,25,1,97
,,,,,,,,,,,,,,,,,,,,,,,,,,,,,,,,,,,,,,,,,t,8.848999977,CIELLO T,TRUE,,,,,,,28,cielo,Spanish,Sounds/spa_cielo.mp3,2020-06-24_18h03.15.124,TranslationElicitation_eng-prolific-spa,3.2.4,Win32,60,5ec7e258f052ac26af7aafc5,,1,0,98,25,1,97
,,,,,,,,,,,,,,,,,,,,,,,,,,,,,,,,,,,,,,,,,h,8.917000055,CIELLO TH,TRUE,,,,,,,28,cielo,Spanish,Sounds/spa_cielo.mp3,2020-06-24_18h03.15.124,TranslationElicitation_eng-prolific-spa,3.2.4,Win32,60,5ec7e258f052ac26af7aafc5,,1,0,98,25,1,97
,,,,,,,,,,,,,,,,,,,,,,,,,,,,,,,,,,,,,,,,,e,9.032000065,CIELLO THE,TRUE,,,,,,,28,cielo,Spanish,Sounds/spa_cielo.mp3,2020-06-24_18h03.15.124,TranslationElicitation_eng-prolific-spa,3.2.4,Win32,60,5ec7e258f052ac26af7aafc5,,1,0,98,25,1,97
,,,,,,,,,,,,,,,,,,,,,,,,,,,,,,,,,,,,,,,,,space,9.082999945,CIELLO THE ,TRUE,,,,,,,28,cielo,Spanish,Sounds/spa_cielo.mp3,2020-06-24_18h03.15.124,TranslationElicitation_eng-prolific-spa,3.2.4,Win32,60,5ec7e258f052ac26af7aafc5,,1,0,98,25,1,97
,,,,,,,,,,,,,,,,,,,,,,,,,,,,,,,,,,,,,,,,,i,9.198999882,CIELLO THE I,TRUE,,,,,,,28,cielo,Spanish,Sounds/spa_cielo.mp3,2020-06-24_18h03.15.124,TranslationElicitation_eng-prolific-spa,3.2.4,Win32,60,5ec7e258f052ac26af7aafc5,,1,0,98,25,1,97
,,,,,,,,,,,,,,,,,,,,,,,,,,,,,,,,,,,,,,,,,n,9.348999977,CIELLO THE IN,TRUE,,,,,,,28,cielo,Spanish,Sounds/spa_cielo.mp3,2020-06-24_18h03.15.124,TranslationElicitation_eng-prolific-spa,3.2.4,Win32,60,5ec7e258f052ac26af7aafc5,,1,0,98,25,1,97
,,,,,,,,,,,,,,,,,,,,,,,,,,,,,,,,,,,,,,,,,s,9.432999849,CIELLO THE INS,TRUE,,,,,,,28,cielo,Spanish,Sounds/spa_cielo.mp3,2020-06-24_18h03.15.124,TranslationElicitation_eng-prolific-spa,3.2.4,Win32,60,5ec7e258f052ac26af7aafc5,,1,0,98,25,1,97
,,,,,,,,,,,,,,,,,,,,,,,,,,,,,,,,,,,,,,,,,t,9.598999977,CIELLO THE INST,TRUE,,,,,,,28,cielo,Spanish,Sounds/spa_cielo.mp3,2020-06-24_18h03.15.124,TranslationElicitation_eng-prolific-spa,3.2.4,Win32,60,5ec7e258f052ac26af7aafc5,,1,0,98,25,1,97
,,,,,,,,,,,,,,,,,,,,,,,,,,,,,,,,,,,,,,,,,r,9.73300004,CIELLO THE INSTR,TRUE,,,,,,,28,cielo,Spanish,Sounds/spa_cielo.mp3,2020-06-24_18h03.15.124,TranslationElicitation_eng-prolific-spa,3.2.4,Win32,60,5ec7e258f052ac26af7aafc5,,1,0,98,25,1,97
,,,,,,,,,,,,,,,,,,,,,,,,,,,,,,,,,,,,,,,,,u,9.782999992,CIELLO THE INSTRU,TRUE,,,,,,,28,cielo,Spanish,Sounds/spa_cielo.mp3,2020-06-24_18h03.15.124,TranslationElicitation_eng-prolific-spa,3.2.4,Win32,60,5ec7e258f052ac26af7aafc5,,1,0,98,25,1,97
,,,,,,,,,,,,,,,,,,,,,,,,,,,,,,,,,,,,,,,,,m,9.950000048,CIELLO THE INSTRUM,TRUE,,,,,,,28,cielo,Spanish,Sounds/spa_cielo.mp3,2020-06-24_18h03.15.124,TranslationElicitation_eng-prolific-spa,3.2.4,Win32,60,5ec7e258f052ac26af7aafc5,,1,0,98,25,1,97
,,,,,,,,,,,,,,,,,,,,,,,,,,,,,,,,,,,,,,,,,e,10.01699996,CIELLO THE INSTRUME,TRUE,,,,,,,28,cielo,Spanish,Sounds/spa_cielo.mp3,2020-06-24_18h03.15.124,TranslationElicitation_eng-prolific-spa,3.2.4,Win32,60,5ec7e258f052ac26af7aafc5,,1,0,98,25,1,97
,,,,,,,,,,,,,,,,,,,,,,,,,,,,,,,,,,,,,,,,,n,10.11599994,CIELLO THE INSTRUMEN,TRUE,,,,,,,28,cielo,Spanish,Sounds/spa_cielo.mp3,2020-06-24_18h03.15.124,TranslationElicitation_eng-prolific-spa,3.2.4,Win32,60,5ec7e258f052ac26af7aafc5,,1,0,98,25,1,97
,,,,,,,,,,,,,,,,,,,,,,,,,,,,,,,,,,,,,,,,,t,10.21600008,CIELLO THE INSTRUMENT,TRUE,,,,,,,28,cielo,Spanish,Sounds/spa_cielo.mp3,2020-06-24_18h03.15.124,TranslationElicitation_eng-prolific-spa,3.2.4,Win32,60,5ec7e258f052ac26af7aafc5,,1,0,98,25,1,97
,,,,,,,,,,,,,,,,,,,,,,,,,,,,,,,,,,,,,,,,,return,10.41599989,CIELLO THE INSTRUMENT,TRUE,,,,,,,28,cielo,Spanish,Sounds/spa_cielo.mp3,2020-06-24_18h03.15.124,TranslationElicitation_eng-prolific-spa,3.2.4,Win32,60,5ec7e258f052ac26af7aafc5,10.41599989,1,0,98,25,1,97
,,,,,,,,,,,,,,,,,,,,,,,,,,,,,,,,,,,,,,,,,,,,,,,,,,,28,cielo,Spanish,Sounds/spa_cielo.mp3,2020-06-24_18h03.15.124,TranslationElicitation_eng-prolific-spa,3.2.4,Win32,60,5ec7e258f052ac26af7aafc5,,1,0,98,25,1,97
,,,,,,,,,,,,,,,,,,,,,,,,,,,,,,,,,,,,,,,,,b,2.198999882,B,FALSE,,,,,,,13,buho,Spanish,Sounds/spa_buho.mp3,2020-06-24_18h03.15.124,TranslationElicitation_eng-prolific-spa,3.2.4,Win32,60,5ec7e258f052ac26af7aafc5,,1,0,98,11,1,97
,,,,,,,,,,,,,,,,,,,,,,,,,,,,,,,,,,,,,,,,,i,2.299000025,BI,FALSE,,,,,,,13,buho,Spanish,Sounds/spa_buho.mp3,2020-06-24_18h03.15.124,TranslationElicitation_eng-prolific-spa,3.2.4,Win32,60,5ec7e258f052ac26af7aafc5,,1,0,98,11,1,97
,,,,,,,,,,,,,,,,,,,,,,,,,,,,,,,,,,,,,,,,,g,2.368000031,BIG,FALSE,,,,,,,13,buho,Spanish,Sounds/spa_buho.mp3,2020-06-24_18h03.15.124,TranslationElicitation_eng-prolific-spa,3.2.4,Win32,60,5ec7e258f052ac26af7aafc5,,1,0,98,11,1,97
,,,,,,,,,,,,,,,,,,,,,,,,,,,,,,,,,,,,,,,,,return,2.531999826,BIG,FALSE,,,,,,,13,buho,Spanish,Sounds/spa_buho.mp3,2020-06-24_18h03.15.124,TranslationElicitation_eng-prolific-spa,3.2.4,Win32,60,5ec7e258f052ac26af7aafc5,2.531999826,1,0,98,11,1,97
,,,,,,,,,,,,,,,,,,,,,,,,,,,,,,,,,,,,,,,,,,,,,,,,,,,13,buho,Spanish,Sounds/spa_buho.mp3,2020-06-24_18h03.15.124,TranslationElicitation_eng-prolific-spa,3.2.4,Win32,60,5ec7e258f052ac26af7aafc5,,1,0,98,11,1,97
,,,,,,,,,,,,,,,,,,,,,,,,,,,,,,,,,,,,,,,,,l,5.232999802,L,FALSE,,,,,,,53,leche,Spanish,Sounds/spa_leche.mp3,2020-06-24_18h03.15.124,TranslationElicitation_eng-prolific-spa,3.2.4,Win32,60,5ec7e258f052ac26af7aafc5,,1,0,98,49,1,97
,,,,,,,,,,,,,,,,,,,,,,,,,,,,,,,,,,,,,,,,,a,5.369999886,LA,FALSE,,,,,,,53,leche,Spanish,Sounds/spa_leche.mp3,2020-06-24_18h03.15.124,TranslationElicitation_eng-prolific-spa,3.2.4,Win32,60,5ec7e258f052ac26af7aafc5,,1,0,98,49,1,97
,,,,,,,,,,,,,,,,,,,,,,,,,,,,,,,,,,,,,,,,,t,5.498999834,LAT,FALSE,,,,,,,53,leche,Spanish,Sounds/spa_leche.mp3,2020-06-24_18h03.15.124,TranslationElicitation_eng-prolific-spa,3.2.4,Win32,60,5ec7e258f052ac26af7aafc5,,1,0,98,49,1,97
,,,,,,,,,,,,,,,,,,,,,,,,,,,,,,,,,,,,,,,,,e,5.615999937,LATE,FALSE,,,,,,,53,leche,Spanish,Sounds/spa_leche.mp3,2020-06-24_18h03.15.124,TranslationElicitation_eng-prolific-spa,3.2.4,Win32,60,5ec7e258f052ac26af7aafc5,,1,0,98,49,1,97
,,,,,,,,,,,,,,,,,,,,,,,,,,,,,,,,,,,,,,,,,return,5.815999985,LATE,FALSE,,,,,,,53,leche,Spanish,Sounds/spa_leche.mp3,2020-06-24_18h03.15.124,TranslationElicitation_eng-prolific-spa,3.2.4,Win32,60,5ec7e258f052ac26af7aafc5,5.815999985,1,0,98,49,1,97
,,,,,,,,,,,,,,,,,,,,,,,,,,,,,,,,,,,,,,,,,,,,,,,,,,,53,leche,Spanish,Sounds/spa_leche.mp3,2020-06-24_18h03.15.124,TranslationElicitation_eng-prolific-spa,3.2.4,Win32,60,5ec7e258f052ac26af7aafc5,,1,0,98,49,1,97
,,,,,,,,,,,,,,,,,,,,,,,,,,,,,,,,,,,,,,,,,m,5.849999905,M,FALSE,,,,,,,5,bici,Spanish,Sounds/spa_bici.mp3,2020-06-24_18h03.15.124,TranslationElicitation_eng-prolific-spa,3.2.4,Win32,60,5ec7e258f052ac26af7aafc5,,1,0,98,3,1,97
,,,,,,,,,,,,,,,,,,,,,,,,,,,,,,,,,,,,,,,,,a,5.932999849,MA,FALSE,,,,,,,5,bici,Spanish,Sounds/spa_bici.mp3,2020-06-24_18h03.15.124,TranslationElicitation_eng-prolific-spa,3.2.4,Win32,60,5ec7e258f052ac26af7aafc5,,1,0,98,3,1,97
,,,,,,,,,,,,,,,,,,,,,,,,,,,,,,,,,,,,,,,,,s,6.099999905,MAS,FALSE,,,,,,,5,bici,Spanish,Sounds/spa_bici.mp3,2020-06-24_18h03.15.124,TranslationElicitation_eng-prolific-spa,3.2.4,Win32,60,5ec7e258f052ac26af7aafc5,,1,0,98,3,1,97
,,,,,,,,,,,,,,,,,,,,,,,,,,,,,,,,,,,,,,,,,s,6.25,MASS,FALSE,,,,,,,5,bici,Spanish,Sounds/spa_bici.mp3,2020-06-24_18h03.15.124,TranslationElicitation_eng-prolific-spa,3.2.4,Win32,60,5ec7e258f052ac26af7aafc5,,1,0,98,3,1,97
,,,,,,,,,,,,,,,,,,,,,,,,,,,,,,,,,,,,,,,,,i,6.366999865,MASSI,FALSE,,,,,,,5,bici,Spanish,Sounds/spa_bici.mp3,2020-06-24_18h03.15.124,TranslationElicitation_eng-prolific-spa,3.2.4,Win32,60,5ec7e258f052ac26af7aafc5,,1,0,98,3,1,97
,,,,,,,,,,,,,,,,,,,,,,,,,,,,,,,,,,,,,,,,,v,6.450000048,MASSIV,FALSE,,,,,,,5,bici,Spanish,Sounds/spa_bici.mp3,2020-06-24_18h03.15.124,TranslationElicitation_eng-prolific-spa,3.2.4,Win32,60,5ec7e258f052ac26af7aafc5,,1,0,98,3,1,97
,,,,,,,,,,,,,,,,,,,,,,,,,,,,,,,,,,,,,,,,,e,6.632999897,MASSIVE,FALSE,,,,,,,5,bici,Spanish,Sounds/spa_bici.mp3,2020-06-24_18h03.15.124,TranslationElicitation_eng-prolific-spa,3.2.4,Win32,60,5ec7e258f052ac26af7aafc5,,1,0,98,3,1,97
,,,,,,,,,,,,,,,,,,,,,,,,,,,,,,,,,,,,,,,,,return,6.75,MASSIVE,FALSE,,,,,,,5,bici,Spanish,Sounds/spa_bici.mp3,2020-06-24_18h03.15.124,TranslationElicitation_eng-prolific-spa,3.2.4,Win32,60,5ec7e258f052ac26af7aafc5,6.75,1,0,98,3,1,97
,,,,,,,,,,,,,,,,,,,,,,,,,,,,,,,,,,,,,,,,,,,,,,,,,,,5,bici,Spanish,Sounds/spa_bici.mp3,2020-06-24_18h03.15.124,TranslationElicitation_eng-prolific-spa,3.2.4,Win32,60,5ec7e258f052ac26af7aafc5,,1,0,98,3,1,97
,,,,,,,,,,,,,,,,,,,,,,,,,,,,,,,,,,,,,,,,,f,2.632999897,F,FALSE,,,,,,,49,hormiga,Spanish,Sounds/spa_hormiga.mp3,2020-06-24_18h03.15.124,TranslationElicitation_eng-prolific-spa,3.2.4,Win32,60,5ec7e258f052ac26af7aafc5,,1,0,98,45,1,97
,,,,,,,,,,,,,,,,,,,,,,,,,,,,,,,,,,,,,,,,,r,2.766000032,FR,FALSE,,,,,,,49,hormiga,Spanish,Sounds/spa_hormiga.mp3,2020-06-24_18h03.15.124,TranslationElicitation_eng-prolific-spa,3.2.4,Win32,60,5ec7e258f052ac26af7aafc5,,1,0,98,45,1,97
,,,,,,,,,,,,,,,,,,,,,,,,,,,,,,,,,,,,,,,,,i,2.881999969,FRI,FALSE,,,,,,,49,hormiga,Spanish,Sounds/spa_hormiga.mp3,2020-06-24_18h03.15.124,TranslationElicitation_eng-prolific-spa,3.2.4,Win32,60,5ec7e258f052ac26af7aafc5,,1,0,98,45,1,97
,,,,,,,,,,,,,,,,,,,,,,,,,,,,,,,,,,,,,,,,,e,2.94900012,FRIE,FALSE,,,,,,,49,hormiga,Spanish,Sounds/spa_hormiga.mp3,2020-06-24_18h03.15.124,TranslationElicitation_eng-prolific-spa,3.2.4,Win32,60,5ec7e258f052ac26af7aafc5,,1,0,98,45,1,97
,,,,,,,,,,,,,,,,,,,,,,,,,,,,,,,,,,,,,,,,,n,3.049000025,FRIEN,FALSE,,,,,,,49,hormiga,Spanish,Sounds/spa_hormiga.mp3,2020-06-24_18h03.15.124,TranslationElicitation_eng-prolific-spa,3.2.4,Win32,60,5ec7e258f052ac26af7aafc5,,1,0,98,45,1,97
,,,,,,,,,,,,,,,,,,,,,,,,,,,,,,,,,,,,,,,,,d,3.131999969,FRIEND,FALSE,,,,,,,49,hormiga,Spanish,Sounds/spa_hormiga.mp3,2020-06-24_18h03.15.124,TranslationElicitation_eng-prolific-spa,3.2.4,Win32,60,5ec7e258f052ac26af7aafc5,,1,0,98,45,1,97
,,,,,,,,,,,,,,,,,,,,,,,,,,,,,,,,,,,,,,,,,return,3.351000071,FRIEND,FALSE,,,,,,,49,hormiga,Spanish,Sounds/spa_hormiga.mp3,2020-06-24_18h03.15.124,TranslationElicitation_eng-prolific-spa,3.2.4,Win32,60,5ec7e258f052ac26af7aafc5,3.351000071,1,0,98,45,1,97
,,,,,,,,,,,,,,,,,,,,,,,,,,,,,,,,,,,,,,,,,,,,,,,,,,,49,hormiga,Spanish,Sounds/spa_hormiga.mp3,2020-06-24_18h03.15.124,TranslationElicitation_eng-prolific-spa,3.2.4,Win32,60,5ec7e258f052ac26af7aafc5,,1,0,98,45,1,97
,,,,,,,,,,,,,,,,,,,,,,,,,,,,,,,,,,,,,,,,,m,2.134000063,M,FALSE,,,,,,,65,mono,Spanish,Sounds/spa_mono.mp3,2020-06-24_18h03.15.124,TranslationElicitation_eng-prolific-spa,3.2.4,Win32,60,5ec7e258f052ac26af7aafc5,,1,0,98,61,1,97
,,,,,,,,,,,,,,,,,,,,,,,,,,,,,,,,,,,,,,,,,o,2.48300004,MO,FALSE,,,,,,,65,mono,Spanish,Sounds/spa_mono.mp3,2020-06-24_18h03.15.124,TranslationElicitation_eng-prolific-spa,3.2.4,Win32,60,5ec7e258f052ac26af7aafc5,,1,0,98,61,1,97
,,,,,,,,,,,,,,,,,,,,,,,,,,,,,,,,,,,,,,,,,t,2.773999929,MOT,FALSE,,,,,,,65,mono,Spanish,Sounds/spa_mono.mp3,2020-06-24_18h03.15.124,TranslationElicitation_eng-prolific-spa,3.2.4,Win32,60,5ec7e258f052ac26af7aafc5,,1,0,98,61,1,97
,,,,,,,,,,,,,,,,,,,,,,,,,,,,,,,,,,,,,,,,,h,2.850000143,MOTH,FALSE,,,,,,,65,mono,Spanish,Sounds/spa_mono.mp3,2020-06-24_18h03.15.124,TranslationElicitation_eng-prolific-spa,3.2.4,Win32,60,5ec7e258f052ac26af7aafc5,,1,0,98,61,1,97
,,,,,,,,,,,,,,,,,,,,,,,,,,,,,,,,,,,,,,,,,e,2.950000048,MOTHE,FALSE,,,,,,,65,mono,Spanish,Sounds/spa_mono.mp3,2020-06-24_18h03.15.124,TranslationElicitation_eng-prolific-spa,3.2.4,Win32,60,5ec7e258f052ac26af7aafc5,,1,0,98,61,1,97
,,,,,,,,,,,,,,,,,,,,,,,,,,,,,,,,,,,,,,,,,r,3.100000143,MOTHER,FALSE,,,,,,,65,mono,Spanish,Sounds/spa_mono.mp3,2020-06-24_18h03.15.124,TranslationElicitation_eng-prolific-spa,3.2.4,Win32,60,5ec7e258f052ac26af7aafc5,,1,0,98,61,1,97
,,,,,,,,,,,,,,,,,,,,,,,,,,,,,,,,,,,,,,,,,return,3.25,MOTHER,FALSE,,,,,,,65,mono,Spanish,Sounds/spa_mono.mp3,2020-06-24_18h03.15.124,TranslationElicitation_eng-prolific-spa,3.2.4,Win32,60,5ec7e258f052ac26af7aafc5,3.25,1,0,98,61,1,97
,,,,,,,,,,,,,,,,,,,,,,,,,,,,,,,,,,,,,,,,,,,,,,,,,,,65,mono,Spanish,Sounds/spa_mono.mp3,2020-06-24_18h03.15.124,TranslationElicitation_eng-prolific-spa,3.2.4,Win32,60,5ec7e258f052ac26af7aafc5,,1,0,98,61,1,97
,,,,,,,,,,,,,,,,,,,,,,,,,,,,,,,,,,,,,,,,,t,8.217000008,T,FALSE,,,,,,,2,avestruz,Spanish,Sounds/spa_avestruz.mp3,2020-06-24_18h03.15.124,TranslationElicitation_eng-prolific-spa,3.2.4,Win32,60,5ec7e258f052ac26af7aafc5,,1,0,98,0,1,97
,,,,,,,,,,,,,,,,,,,,,,,,,,,,,,,,,,,,,,,,,e,8.400000095,TE,FALSE,,,,,,,2,avestruz,Spanish,Sounds/spa_avestruz.mp3,2020-06-24_18h03.15.124,TranslationElicitation_eng-prolific-spa,3.2.4,Win32,60,5ec7e258f052ac26af7aafc5,,1,0,98,0,1,97
,,,,,,,,,,,,,,,,,,,,,,,,,,,,,,,,,,,,,,,,,l,8.5,TEL,FALSE,,,,,,,2,avestruz,Spanish,Sounds/spa_avestruz.mp3,2020-06-24_18h03.15.124,TranslationElicitation_eng-prolific-spa,3.2.4,Win32,60,5ec7e258f052ac26af7aafc5,,1,0,98,0,1,97
,,,,,,,,,,,,,,,,,,,,,,,,,,,,,,,,,,,,,,,,,l,8.634000063,TELL,FALSE,,,,,,,2,avestruz,Spanish,Sounds/spa_avestruz.mp3,2020-06-24_18h03.15.124,TranslationElicitation_eng-prolific-spa,3.2.4,Win32,60,5ec7e258f052ac26af7aafc5,,1,0,98,0,1,97
,,,,,,,,,,,,,,,,,,,,,,,,,,,,,,,,,,,,,,,,,space,8.717000008,TELL ,FALSE,,,,,,,2,avestruz,Spanish,Sounds/spa_avestruz.mp3,2020-06-24_18h03.15.124,TranslationElicitation_eng-prolific-spa,3.2.4,Win32,60,5ec7e258f052ac26af7aafc5,,1,0,98,0,1,97
,,,,,,,,,,,,,,,,,,,,,,,,,,,,,,,,,,,,,,,,,t,8.816999912,TELL T,FALSE,,,,,,,2,avestruz,Spanish,Sounds/spa_avestruz.mp3,2020-06-24_18h03.15.124,TranslationElicitation_eng-prolific-spa,3.2.4,Win32,60,5ec7e258f052ac26af7aafc5,,1,0,98,0,1,97
,,,,,,,,,,,,,,,,,,,,,,,,,,,,,,,,,,,,,,,,,h,8.900000095,TELL TH,FALSE,,,,,,,2,avestruz,Spanish,Sounds/spa_avestruz.mp3,2020-06-24_18h03.15.124,TranslationElicitation_eng-prolific-spa,3.2.4,Win32,60,5ec7e258f052ac26af7aafc5,,1,0,98,0,1,97
,,,,,,,,,,,,,,,,,,,,,,,,,,,,,,,,,,,,,,,,,e,9.000999928,TELL THE,FALSE,,,,,,,2,avestruz,Spanish,Sounds/spa_avestruz.mp3,2020-06-24_18h03.15.124,TranslationElicitation_eng-prolific-spa,3.2.4,Win32,60,5ec7e258f052ac26af7aafc5,,1,0,98,0,1,97
,,,,,,,,,,,,,,,,,,,,,,,,,,,,,,,,,,,,,,,,,space,9.046999931,TELL THE ,FALSE,,,,,,,2,avestruz,Spanish,Sounds/spa_avestruz.mp3,2020-06-24_18h03.15.124,TranslationElicitation_eng-prolific-spa,3.2.4,Win32,60,5ec7e258f052ac26af7aafc5,,1,0,98,0,1,97
,,,,,,,,,,,,,,,,,,,,,,,,,,,,,,,,,,,,,,,,,t,9.167000055,TELL THE T,FALSE,,,,,,,2,avestruz,Spanish,Sounds/spa_avestruz.mp3,2020-06-24_18h03.15.124,TranslationElicitation_eng-prolific-spa,3.2.4,Win32,60,5ec7e258f052ac26af7aafc5,,1,0,98,0,1,97
,,,,,,,,,,,,,,,,,,,,,,,,,,,,,,,,,,,,,,,,,r,9.316999912,TELL THE TR,FALSE,,,,,,,2,avestruz,Spanish,Sounds/spa_avestruz.mp3,2020-06-24_18h03.15.124,TranslationElicitation_eng-prolific-spa,3.2.4,Win32,60,5ec7e258f052ac26af7aafc5,,1,0,98,0,1,97
,,,,,,,,,,,,,,,,,,,,,,,,,,,,,,,,,,,,,,,,,u,9.401000023,TELL THE TRU,FALSE,,,,,,,2,avestruz,Spanish,Sounds/spa_avestruz.mp3,2020-06-24_18h03.15.124,TranslationElicitation_eng-prolific-spa,3.2.4,Win32,60,5ec7e258f052ac26af7aafc5,,1,0,98,0,1,97
,,,,,,,,,,,,,,,,,,,,,,,,,,,,,,,,,,,,,,,,,t,9.5,TELL THE TRUT,FALSE,,,,,,,2,avestruz,Spanish,Sounds/spa_avestruz.mp3,2020-06-24_18h03.15.124,TranslationElicitation_eng-prolific-spa,3.2.4,Win32,60,5ec7e258f052ac26af7aafc5,,1,0,98,0,1,97
,,,,,,,,,,,,,,,,,,,,,,,,,,,,,,,,,,,,,,,,,h,9.600000143,TELL THE TRUTH,FALSE,,,,,,,2,avestruz,Spanish,Sounds/spa_avestruz.mp3,2020-06-24_18h03.15.124,TranslationElicitation_eng-prolific-spa,3.2.4,Win32,60,5ec7e258f052ac26af7aafc5,,1,0,98,0,1,97
,,,,,,,,,,,,,,,,,,,,,,,,,,,,,,,,,,,,,,,,,backspace,10,TELL THE TRUT,TRUE,,,,,,,2,avestruz,Spanish,Sounds/spa_avestruz.mp3,2020-06-24_18h03.15.124,TranslationElicitation_eng-prolific-spa,3.2.4,Win32,60,5ec7e258f052ac26af7aafc5,,1,0,98,0,1,97
,,,,,,,,,,,,,,,,,,,,,,,,,,,,,,,,,,,,,,,,,backspace,10.55400014,TELL THE TRU,TRUE,,,,,,,2,avestruz,Spanish,Sounds/spa_avestruz.mp3,2020-06-24_18h03.15.124,TranslationElicitation_eng-prolific-spa,3.2.4,Win32,60,5ec7e258f052ac26af7aafc5,,1,0,98,0,1,97
,,,,,,,,,,,,,,,,,,,,,,,,,,,,,,,,,,,,,,,,,backspace,10.58400011,TELL THE TR,TRUE,,,,,,,2,avestruz,Spanish,Sounds/spa_avestruz.mp3,2020-06-24_18h03.15.124,TranslationElicitation_eng-prolific-spa,3.2.4,Win32,60,5ec7e258f052ac26af7aafc5,,1,0,98,0,1,97
,,,,,,,,,,,,,,,,,,,,,,,,,,,,,,,,,,,,,,,,,backspace,10.6170001,TELL THE T,TRUE,,,,,,,2,avestruz,Spanish,Sounds/spa_avestruz.mp3,2020-06-24_18h03.15.124,TranslationElicitation_eng-prolific-spa,3.2.4,Win32,60,5ec7e258f052ac26af7aafc5,,1,0,98,0,1,97
,,,,,,,,,,,,,,,,,,,,,,,,,,,,,,,,,,,,,,,,,backspace,10.66199994,TELL THE ,TRUE,,,,,,,2,avestruz,Spanish,Sounds/spa_avestruz.mp3,2020-06-24_18h03.15.124,TranslationElicitation_eng-prolific-spa,3.2.4,Win32,60,5ec7e258f052ac26af7aafc5,,1,0,98,0,1,97
,,,,,,,,,,,,,,,,,,,,,,,,,,,,,,,,,,,,,,,,,backspace,10.68300009,TELL THE,TRUE,,,,,,,2,avestruz,Spanish,Sounds/spa_avestruz.mp3,2020-06-24_18h03.15.124,TranslationElicitation_eng-prolific-spa,3.2.4,Win32,60,5ec7e258f052ac26af7aafc5,,1,0,98,0,1,97
,,,,,,,,,,,,,,,,,,,,,,,,,,,,,,,,,,,,,,,,,backspace,10.73300004,TELL TH,TRUE,,,,,,,2,avestruz,Spanish,Sounds/spa_avestruz.mp3,2020-06-24_18h03.15.124,TranslationElicitation_eng-prolific-spa,3.2.4,Win32,60,5ec7e258f052ac26af7aafc5,,1,0,98,0,1,97
,,,,,,,,,,,,,,,,,,,,,,,,,,,,,,,,,,,,,,,,,backspace,10.76699996,TELL T,TRUE,,,,,,,2,avestruz,Spanish,Sounds/spa_avestruz.mp3,2020-06-24_18h03.15.124,TranslationElicitation_eng-prolific-spa,3.2.4,Win32,60,5ec7e258f052ac26af7aafc5,,1,0,98,0,1,97
,,,,,,,,,,,,,,,,,,,,,,,,,,,,,,,,,,,,,,,,,backspace,10.79999995,TELL ,TRUE,,,,,,,2,avestruz,Spanish,Sounds/spa_avestruz.mp3,2020-06-24_18h03.15.124,TranslationElicitation_eng-prolific-spa,3.2.4,Win32,60,5ec7e258f052ac26af7aafc5,,1,0,98,0,1,97
,,,,,,,,,,,,,,,,,,,,,,,,,,,,,,,,,,,,,,,,,backspace,10.83299994,TELL,TRUE,,,,,,,2,avestruz,Spanish,Sounds/spa_avestruz.mp3,2020-06-24_18h03.15.124,TranslationElicitation_eng-prolific-spa,3.2.4,Win32,60,5ec7e258f052ac26af7aafc5,,1,0,98,0,1,97
,,,,,,,,,,,,,,,,,,,,,,,,,,,,,,,,,,,,,,,,,backspace,10.8670001,TEL,TRUE,,,,,,,2,avestruz,Spanish,Sounds/spa_avestruz.mp3,2020-06-24_18h03.15.124,TranslationElicitation_eng-prolific-spa,3.2.4,Win32,60,5ec7e258f052ac26af7aafc5,,1,0,98,0,1,97
,,,,,,,,,,,,,,,,,,,,,,,,,,,,,,,,,,,,,,,,,backspace,10.9000001,TE,TRUE,,,,,,,2,avestruz,Spanish,Sounds/spa_avestruz.mp3,2020-06-24_18h03.15.124,TranslationElicitation_eng-prolific-spa,3.2.4,Win32,60,5ec7e258f052ac26af7aafc5,,1,0,98,0,1,97
,,,,,,,,,,,,,,,,,,,,,,,,,,,,,,,,,,,,,,,,,backspace,10.93400002,T,TRUE,,,,,,,2,avestruz,Spanish,Sounds/spa_avestruz.mp3,2020-06-24_18h03.15.124,TranslationElicitation_eng-prolific-spa,3.2.4,Win32,60,5ec7e258f052ac26af7aafc5,,1,0,98,0,1,97
,,,,,,,,,,,,,,,,,,,,,,,,,,,,,,,,,,,,,,,,,backspace,10.98399997,,TRUE,,,,,,,2,avestruz,Spanish,Sounds/spa_avestruz.mp3,2020-06-24_18h03.15.124,TranslationElicitation_eng-prolific-spa,3.2.4,Win32,60,5ec7e258f052ac26af7aafc5,,1,0,98,0,1,97
,,,,,,,,,,,,,,,,,,,,,,,,,,,,,,,,,,,,,,,,,backspace,11.01699996,,TRUE,,,,,,,2,avestruz,Spanish,Sounds/spa_avestruz.mp3,2020-06-24_18h03.15.124,TranslationElicitation_eng-prolific-spa,3.2.4,Win32,60,5ec7e258f052ac26af7aafc5,,1,0,98,0,1,97
,,,,,,,,,,,,,,,,,,,,,,,,,,,,,,,,,,,,,,,,,backspace,11.04999995,,TRUE,,,,,,,2,avestruz,Spanish,Sounds/spa_avestruz.mp3,2020-06-24_18h03.15.124,TranslationElicitation_eng-prolific-spa,3.2.4,Win32,60,5ec7e258f052ac26af7aafc5,,1,0,98,0,1,97
,,,,,,,,,,,,,,,,,,,,,,,,,,,,,,,,,,,,,,,,,backspace,11.08299994,,TRUE,,,,,,,2,avestruz,Spanish,Sounds/spa_avestruz.mp3,2020-06-24_18h03.15.124,TranslationElicitation_eng-prolific-spa,3.2.4,Win32,60,5ec7e258f052ac26af7aafc5,,1,0,98,0,1,97
,,,,,,,,,,,,,,,,,,,,,,,,,,,,,,,,,,,,,,,,,backspace,11.1170001,,TRUE,,,,,,,2,avestruz,Spanish,Sounds/spa_avestruz.mp3,2020-06-24_18h03.15.124,TranslationElicitation_eng-prolific-spa,3.2.4,Win32,60,5ec7e258f052ac26af7aafc5,,1,0,98,0,1,97
,,,,,,,,,,,,,,,,,,,,,,,,,,,,,,,,,,,,,,,,,t,11.60000014,T,TRUE,,,,,,,2,avestruz,Spanish,Sounds/spa_avestruz.mp3,2020-06-24_18h03.15.124,TranslationElicitation_eng-prolific-spa,3.2.4,Win32,60,5ec7e258f052ac26af7aafc5,,1,0,98,0,1,97
,,,,,,,,,,,,,,,,,,,,,,,,,,,,,,,,,,,,,,,,,r,11.76699996,TR,TRUE,,,,,,,2,avestruz,Spanish,Sounds/spa_avestruz.mp3,2020-06-24_18h03.15.124,TranslationElicitation_eng-prolific-spa,3.2.4,Win32,60,5ec7e258f052ac26af7aafc5,,1,0,98,0,1,97
,,,,,,,,,,,,,,,,,,,,,,,,,,,,,,,,,,,,,,,,,u,11.8670001,TRU,TRUE,,,,,,,2,avestruz,Spanish,Sounds/spa_avestruz.mp3,2020-06-24_18h03.15.124,TranslationElicitation_eng-prolific-spa,3.2.4,Win32,60,5ec7e258f052ac26af7aafc5,,1,0,98,0,1,97
,,,,,,,,,,,,,,,,,,,,,,,,,,,,,,,,,,,,,,,,,t,12,TRUT,TRUE,,,,,,,2,avestruz,Spanish,Sounds/spa_avestruz.mp3,2020-06-24_18h03.15.124,TranslationElicitation_eng-prolific-spa,3.2.4,Win32,60,5ec7e258f052ac26af7aafc5,,1,0,98,0,1,97
,,,,,,,,,,,,,,,,,,,,,,,,,,,,,,,,,,,,,,,,,h,12.10000014,TRUTH,TRUE,,,,,,,2,avestruz,Spanish,Sounds/spa_avestruz.mp3,2020-06-24_18h03.15.124,TranslationElicitation_eng-prolific-spa,3.2.4,Win32,60,5ec7e258f052ac26af7aafc5,,1,0,98,0,1,97
,,,,,,,,,,,,,,,,,,,,,,,,,,,,,,,,,,,,,,,,,f,12.40100002,TRUTHF,TRUE,,,,,,,2,avestruz,Spanish,Sounds/spa_avestruz.mp3,2020-06-24_18h03.15.124,TranslationElicitation_eng-prolific-spa,3.2.4,Win32,60,5ec7e258f052ac26af7aafc5,,1,0,98,0,1,97
,,,,,,,,,,,,,,,,,,,,,,,,,,,,,,,,,,,,,,,,,u,12.5,TRUTHFU,TRUE,,,,,,,2,avestruz,Spanish,Sounds/spa_avestruz.mp3,2020-06-24_18h03.15.124,TranslationElicitation_eng-prolific-spa,3.2.4,Win32,60,5ec7e258f052ac26af7aafc5,,1,0,98,0,1,97
,,,,,,,,,,,,,,,,,,,,,,,,,,,,,,,,,,,,,,,,,l,12.73600006,TRUTHFUL,TRUE,,,,,,,2,avestruz,Spanish,Sounds/spa_avestruz.mp3,2020-06-24_18h03.15.124,TranslationElicitation_eng-prolific-spa,3.2.4,Win32,60,5ec7e258f052ac26af7aafc5,,1,0,98,0,1,97
,,,,,,,,,,,,,,,,,,,,,,,,,,,,,,,,,,,,,,,,,l,12.8670001,TRUTHFULL,TRUE,,,,,,,2,avestruz,Spanish,Sounds/spa_avestruz.mp3,2020-06-24_18h03.15.124,TranslationElicitation_eng-prolific-spa,3.2.4,Win32,60,5ec7e258f052ac26af7aafc5,,1,0,98,0,1,97
,,,,,,,,,,,,,,,,,,,,,,,,,,,,,,,,,,,,,,,,,n,13.03299999,TRUTHFULLN,TRUE,,,,,,,2,avestruz,Spanish,Sounds/spa_avestruz.mp3,2020-06-24_18h03.15.124,TranslationElicitation_eng-prolific-spa,3.2.4,Win32,60,5ec7e258f052ac26af7aafc5,,1,0,98,0,1,97
,,,,,,,,,,,,,,,,,,,,,,,,,,,,,,,,,,,,,,,,,e,13.11800003,TRUTHFULLNE,TRUE,,,,,,,2,avestruz,Spanish,Sounds/spa_avestruz.mp3,2020-06-24_18h03.15.124,TranslationElicitation_eng-prolific-spa,3.2.4,Win32,60,5ec7e258f052ac26af7aafc5,,1,0,98,0,1,97
,,,,,,,,,,,,,,,,,,,,,,,,,,,,,,,,,,,,,,,,,s,13.28299999,TRUTHFULLNES,TRUE,,,,,,,2,avestruz,Spanish,Sounds/spa_avestruz.mp3,2020-06-24_18h03.15.124,TranslationElicitation_eng-prolific-spa,3.2.4,Win32,60,5ec7e258f052ac26af7aafc5,,1,0,98,0,1,97
,,,,,,,,,,,,,,,,,,,,,,,,,,,,,,,,,,,,,,,,,s,13.4000001,TRUTHFULLNESS,TRUE,,,,,,,2,avestruz,Spanish,Sounds/spa_avestruz.mp3,2020-06-24_18h03.15.124,TranslationElicitation_eng-prolific-spa,3.2.4,Win32,60,5ec7e258f052ac26af7aafc5,,1,0,98,0,1,97
,,,,,,,,,,,,,,,,,,,,,,,,,,,,,,,,,,,,,,,,,return,13.83299994,TRUTHFULLNESS,TRUE,,,,,,,2,avestruz,Spanish,Sounds/spa_avestruz.mp3,2020-06-24_18h03.15.124,TranslationElicitation_eng-prolific-spa,3.2.4,Win32,60,5ec7e258f052ac26af7aafc5,13.83299994,1,0,98,0,1,97
,,,,,,,,,,,,,,,,,,,,,,,,,,,,,,,,,,,,,,,,,,,,,,,,,,,2,avestruz,Spanish,Sounds/spa_avestruz.mp3,2020-06-24_18h03.15.124,TranslationElicitation_eng-prolific-spa,3.2.4,Win32,60,5ec7e258f052ac26af7aafc5,,1,0,98,0,1,97
,,,,,,,,,,,,,,,,,,,,,,,,,,,,,,,,,,,,,,,,,l,1.832999945,L,FALSE,,,,,,,54,lengua,Spanish,Sounds/spa_lengua.mp3,2020-06-24_18h03.15.124,TranslationElicitation_eng-prolific-spa,3.2.4,Win32,60,5ec7e258f052ac26af7aafc5,,1,0,98,50,1,97
,,,,,,,,,,,,,,,,,,,,,,,,,,,,,,,,,,,,,,,,,a,1.949999809,LA,FALSE,,,,,,,54,lengua,Spanish,Sounds/spa_lengua.mp3,2020-06-24_18h03.15.124,TranslationElicitation_eng-prolific-spa,3.2.4,Win32,60,5ec7e258f052ac26af7aafc5,,1,0,98,50,1,97
,,,,,,,,,,,,,,,,,,,,,,,,,,,,,,,,,,,,,,,,,n,2.082999945,LAN,FALSE,,,,,,,54,lengua,Spanish,Sounds/spa_lengua.mp3,2020-06-24_18h03.15.124,TranslationElicitation_eng-prolific-spa,3.2.4,Win32,60,5ec7e258f052ac26af7aafc5,,1,0,98,50,1,97
,,,,,,,,,,,,,,,,,,,,,,,,,,,,,,,,,,,,,,,,,g,2.132999897,LANG,FALSE,,,,,,,54,lengua,Spanish,Sounds/spa_lengua.mp3,2020-06-24_18h03.15.124,TranslationElicitation_eng-prolific-spa,3.2.4,Win32,60,5ec7e258f052ac26af7aafc5,,1,0,98,50,1,97
,,,,,,,,,,,,,,,,,,,,,,,,,,,,,,,,,,,,,,,,,u,2.282999992,LANGU,FALSE,,,,,,,54,lengua,Spanish,Sounds/spa_lengua.mp3,2020-06-24_18h03.15.124,TranslationElicitation_eng-prolific-spa,3.2.4,Win32,60,5ec7e258f052ac26af7aafc5,,1,0,98,50,1,97
,,,,,,,,,,,,,,,,,,,,,,,,,,,,,,,,,,,,,,,,,a,2.348999977,LANGUA,FALSE,,,,,,,54,lengua,Spanish,Sounds/spa_lengua.mp3,2020-06-24_18h03.15.124,TranslationElicitation_eng-prolific-spa,3.2.4,Win32,60,5ec7e258f052ac26af7aafc5,,1,0,98,50,1,97
,,,,,,,,,,,,,,,,,,,,,,,,,,,,,,,,,,,,,,,,,g,2.449999809,LANGUAG,FALSE,,,,,,,54,lengua,Spanish,Sounds/spa_lengua.mp3,2020-06-24_18h03.15.124,TranslationElicitation_eng-prolific-spa,3.2.4,Win32,60,5ec7e258f052ac26af7aafc5,,1,0,98,50,1,97
,,,,,,,,,,,,,,,,,,,,,,,,,,,,,,,,,,,,,,,,,e,2.549000025,LANGUAGE,FALSE,,,,,,,54,lengua,Spanish,Sounds/spa_lengua.mp3,2020-06-24_18h03.15.124,TranslationElicitation_eng-prolific-spa,3.2.4,Win32,60,5ec7e258f052ac26af7aafc5,,1,0,98,50,1,97
,,,,,,,,,,,,,,,,,,,,,,,,,,,,,,,,,,,,,,,,,return,2.78399992,LANGUAGE,FALSE,,,,,,,54,lengua,Spanish,Sounds/spa_lengua.mp3,2020-06-24_18h03.15.124,TranslationElicitation_eng-prolific-spa,3.2.4,Win32,60,5ec7e258f052ac26af7aafc5,2.78399992,1,0,98,50,1,97
,,,,,,,,,,,,,,,,,,,,,,,,,,,,,,,,,,,,,,,,,,,,,,,,,,,54,lengua,Spanish,Sounds/spa_lengua.mp3,2020-06-24_18h03.15.124,TranslationElicitation_eng-prolific-spa,3.2.4,Win32,60,5ec7e258f052ac26af7aafc5,,1,0,98,50,1,97
,,,,,,,,,,,,,,,,,,,,,,,,,,,,,,,,,,,,,,,,,c,5.199999809,C,FALSE,,,,,,,31,cubo,Spanish,Sounds/spa_cubo.mp3,2020-06-24_18h03.15.124,TranslationElicitation_eng-prolific-spa,3.2.4,Win32,60,5ec7e258f052ac26af7aafc5,,1,0,98,27,1,97
,,,,,,,,,,,,,,,,,,,,,,,,,,,,,,,,,,,,,,,,,o,5.282999992,CO,FALSE,,,,,,,31,cubo,Spanish,Sounds/spa_cubo.mp3,2020-06-24_18h03.15.124,TranslationElicitation_eng-prolific-spa,3.2.4,Win32,60,5ec7e258f052ac26af7aafc5,,1,0,98,27,1,97
,,,,,,,,,,,,,,,,,,,,,,,,,,,,,,,,,,,,,,,,,o,5.399999857,COO,FALSE,,,,,,,31,cubo,Spanish,Sounds/spa_cubo.mp3,2020-06-24_18h03.15.124,TranslationElicitation_eng-prolific-spa,3.2.4,Win32,60,5ec7e258f052ac26af7aafc5,,1,0,98,27,1,97
,,,,,,,,,,,,,,,,,,,,,,,,,,,,,,,,,,,,,,,,,l,5.541999817,COOL,FALSE,,,,,,,31,cubo,Spanish,Sounds/spa_cubo.mp3,2020-06-24_18h03.15.124,TranslationElicitation_eng-prolific-spa,3.2.4,Win32,60,5ec7e258f052ac26af7aafc5,,1,0,98,27,1,97
,,,,,,,,,,,,,,,,,,,,,,,,,,,,,,,,,,,,,,,,,return,5.75,COOL,FALSE,,,,,,,31,cubo,Spanish,Sounds/spa_cubo.mp3,2020-06-24_18h03.15.124,TranslationElicitation_eng-prolific-spa,3.2.4,Win32,60,5ec7e258f052ac26af7aafc5,5.75,1,0,98,27,1,97
,,,,,,,,,,,,,,,,,,,,,,,,,,,,,,,,,,,,,,,,,,,,,,,,,,,31,cubo,Spanish,Sounds/spa_cubo.mp3,2020-06-24_18h03.15.124,TranslationElicitation_eng-prolific-spa,3.2.4,Win32,60,5ec7e258f052ac26af7aafc5,,1,0,98,27,1,97
,,,,,,,,,,,,,,,,,,,,,,,,,,,,,,,,,,,,,,,,,t,1.449999809,T,FALSE,,,,,,,94,tambor,Spanish,Sounds/spa_tambor.mp3,2020-06-24_18h03.15.124,TranslationElicitation_eng-prolific-spa,3.2.4,Win32,60,5ec7e258f052ac26af7aafc5,,1,0,98,89,1,97
,,,,,,,,,,,,,,,,,,,,,,,,,,,,,,,,,,,,,,,,,a,1.684000015,TA,FALSE,,,,,,,94,tambor,Spanish,Sounds/spa_tambor.mp3,2020-06-24_18h03.15.124,TranslationElicitation_eng-prolific-spa,3.2.4,Win32,60,5ec7e258f052ac26af7aafc5,,1,0,98,89,1,97
,,,,,,,,,,,,,,,,,,,,,,,,,,,,,,,,,,,,,,,,,m,1.967000008,TAM,FALSE,,,,,,,94,tambor,Spanish,Sounds/spa_tambor.mp3,2020-06-24_18h03.15.124,TranslationElicitation_eng-prolific-spa,3.2.4,Win32,60,5ec7e258f052ac26af7aafc5,,1,0,98,89,1,97
,,,,,,,,,,,,,,,,,,,,,,,,,,,,,,,,,,,,,,,,,b,2.182999849,TAMB,FALSE,,,,,,,94,tambor,Spanish,Sounds/spa_tambor.mp3,2020-06-24_18h03.15.124,TranslationElicitation_eng-prolific-spa,3.2.4,Win32,60,5ec7e258f052ac26af7aafc5,,1,0,98,89,1,97
,,,,,,,,,,,,,,,,,,,,,,,,,,,,,,,,,,,,,,,,,o,2.383999825,TAMBO,FALSE,,,,,,,94,tambor,Spanish,Sounds/spa_tambor.mp3,2020-06-24_18h03.15.124,TranslationElicitation_eng-prolific-spa,3.2.4,Win32,60,5ec7e258f052ac26af7aafc5,,1,0,98,89,1,97
,,,,,,,,,,,,,,,,,,,,,,,,,,,,,,,,,,,,,,,,,r,2.48300004,TAMBOR,FALSE,,,,,,,94,tambor,Spanish,Sounds/spa_tambor.mp3,2020-06-24_18h03.15.124,TranslationElicitation_eng-prolific-spa,3.2.4,Win32,60,5ec7e258f052ac26af7aafc5,,1,0,98,89,1,97
,,,,,,,,,,,,,,,,,,,,,,,,,,,,,,,,,,,,,,,,,i,2.566999912,TAMBORI,FALSE,,,,,,,94,tambor,Spanish,Sounds/spa_tambor.mp3,2020-06-24_18h03.15.124,TranslationElicitation_eng-prolific-spa,3.2.4,Win32,60,5ec7e258f052ac26af7aafc5,,1,0,98,89,1,97
,,,,,,,,,,,,,,,,,,,,,,,,,,,,,,,,,,,,,,,,,n,2.75,TAMBORIN,FALSE,,,,,,,94,tambor,Spanish,Sounds/spa_tambor.mp3,2020-06-24_18h03.15.124,TranslationElicitation_eng-prolific-spa,3.2.4,Win32,60,5ec7e258f052ac26af7aafc5,,1,0,98,89,1,97
,,,,,,,,,,,,,,,,,,,,,,,,,,,,,,,,,,,,,,,,,e,2.866999865,TAMBORINE,FALSE,,,,,,,94,tambor,Spanish,Sounds/spa_tambor.mp3,2020-06-24_18h03.15.124,TranslationElicitation_eng-prolific-spa,3.2.4,Win32,60,5ec7e258f052ac26af7aafc5,,1,0,98,89,1,97
,,,,,,,,,,,,,,,,,,,,,,,,,,,,,,,,,,,,,,,,,return,3.215999842,TAMBORINE,FALSE,,,,,,,94,tambor,Spanish,Sounds/spa_tambor.mp3,2020-06-24_18h03.15.124,TranslationElicitation_eng-prolific-spa,3.2.4,Win32,60,5ec7e258f052ac26af7aafc5,3.215999842,1,0,98,89,1,97
,,,,,,,,,,,,,,,,,,,,,,,,,,,,,,,,,,,,,,,,,,,,,,,,,,,94,tambor,Spanish,Sounds/spa_tambor.mp3,2020-06-24_18h03.15.124,TranslationElicitation_eng-prolific-spa,3.2.4,Win32,60,5ec7e258f052ac26af7aafc5,,1,0,98,89,1,97
,,,,,,,,,,,,,,,,,,,,,,,,,,,,,,,,,,,,,,,,,l,1.932999849,L,FALSE,,,,,,,71,ombligo,Spanish,Sounds/spa_ombligo.mp3,2020-06-24_18h03.15.124,TranslationElicitation_eng-prolific-spa,3.2.4,Win32,60,5ec7e258f052ac26af7aafc5,,1,0,98,66,1,97
,,,,,,,,,,,,,,,,,,,,,,,,,,,,,,,,,,,,,,,,,e,2.032999992,LE,FALSE,,,,,,,71,ombligo,Spanish,Sounds/spa_ombligo.mp3,2020-06-24_18h03.15.124,TranslationElicitation_eng-prolific-spa,3.2.4,Win32,60,5ec7e258f052ac26af7aafc5,,1,0,98,66,1,97
,,,,,,,,,,,,,,,,,,,,,,,,,,,,,,,,,,,,,,,,,g,2.182999849,LEG,FALSE,,,,,,,71,ombligo,Spanish,Sounds/spa_ombligo.mp3,2020-06-24_18h03.15.124,TranslationElicitation_eng-prolific-spa,3.2.4,Win32,60,5ec7e258f052ac26af7aafc5,,1,0,98,66,1,97
,,,,,,,,,,,,,,,,,,,,,,,,,,,,,,,,,,,,,,,,,backspace,2.582999945,LE,TRUE,,,,,,,71,ombligo,Spanish,Sounds/spa_ombligo.mp3,2020-06-24_18h03.15.124,TranslationElicitation_eng-prolific-spa,3.2.4,Win32,60,5ec7e258f052ac26af7aafc5,,1,0,98,66,1,97
,,,,,,,,,,,,,,,,,,,,,,,,,,,,,,,,,,,,,,,,,backspace,2.684000015,L,TRUE,,,,,,,71,ombligo,Spanish,Sounds/spa_ombligo.mp3,2020-06-24_18h03.15.124,TranslationElicitation_eng-prolific-spa,3.2.4,Win32,60,5ec7e258f052ac26af7aafc5,,1,0,98,66,1,97
,,,,,,,,,,,,,,,,,,,,,,,,,,,,,,,,,,,,,,,,,backspace,2.815999985,,TRUE,,,,,,,71,ombligo,Spanish,Sounds/spa_ombligo.mp3,2020-06-24_18h03.15.124,TranslationElicitation_eng-prolific-spa,3.2.4,Win32,60,5ec7e258f052ac26af7aafc5,,1,0,98,66,1,97
,,,,,,,,,,,,,,,,,,,,,,,,,,,,,,,,,,,,,,,,,backspace,2.949999809,,TRUE,,,,,,,71,ombligo,Spanish,Sounds/spa_ombligo.mp3,2020-06-24_18h03.15.124,TranslationElicitation_eng-prolific-spa,3.2.4,Win32,60,5ec7e258f052ac26af7aafc5,,1,0,98,66,1,97
,,,,,,,,,,,,,,,,,,,,,,,,,,,,,,,,,,,,,,,,,i,3.215999842,I,TRUE,,,,,,,71,ombligo,Spanish,Sounds/spa_ombligo.mp3,2020-06-24_18h03.15.124,TranslationElicitation_eng-prolific-spa,3.2.4,Win32,60,5ec7e258f052ac26af7aafc5,,1,0,98,66,1,97
,,,,,,,,,,,,,,,,,,,,,,,,,,,,,,,,,,,,,,,,,l,3.399999857,IL,TRUE,,,,,,,71,ombligo,Spanish,Sounds/spa_ombligo.mp3,2020-06-24_18h03.15.124,TranslationElicitation_eng-prolific-spa,3.2.4,Win32,60,5ec7e258f052ac26af7aafc5,,1,0,98,66,1,97
,,,,,,,,,,,,,,,,,,,,,,,,,,,,,,,,,,,,,,,,,l,3.532999992,ILL,TRUE,,,,,,,71,ombligo,Spanish,Sounds/spa_ombligo.mp3,2020-06-24_18h03.15.124,TranslationElicitation_eng-prolific-spa,3.2.4,Win32,60,5ec7e258f052ac26af7aafc5,,1,0,98,66,1,97
,,,,,,,,,,,,,,,,,,,,,,,,,,,,,,,,,,,,,,,,,e,3.615999937,ILLE,TRUE,,,,,,,71,ombligo,Spanish,Sounds/spa_ombligo.mp3,2020-06-24_18h03.15.124,TranslationElicitation_eng-prolific-spa,3.2.4,Win32,60,5ec7e258f052ac26af7aafc5,,1,0,98,66,1,97
,,,,,,,,,,,,,,,,,,,,,,,,,,,,,,,,,,,,,,,,,g,3.715999842,ILLEG,TRUE,,,,,,,71,ombligo,Spanish,Sounds/spa_ombligo.mp3,2020-06-24_18h03.15.124,TranslationElicitation_eng-prolific-spa,3.2.4,Win32,60,5ec7e258f052ac26af7aafc5,,1,0,98,66,1,97
,,,,,,,,,,,,,,,,,,,,,,,,,,,,,,,,,,,,,,,,,a,3.815999985,ILLEGA,TRUE,,,,,,,71,ombligo,Spanish,Sounds/spa_ombligo.mp3,2020-06-24_18h03.15.124,TranslationElicitation_eng-prolific-spa,3.2.4,Win32,60,5ec7e258f052ac26af7aafc5,,1,0,98,66,1,97
,,,,,,,,,,,,,,,,,,,,,,,,,,,,,,,,,,,,,,,,,l,3.948999882,ILLEGAL,TRUE,,,,,,,71,ombligo,Spanish,Sounds/spa_ombligo.mp3,2020-06-24_18h03.15.124,TranslationElicitation_eng-prolific-spa,3.2.4,Win32,60,5ec7e258f052ac26af7aafc5,,1,0,98,66,1,97
,,,,,,,,,,,,,,,,,,,,,,,,,,,,,,,,,,,,,,,,,return,4.282999992,ILLEGAL,TRUE,,,,,,,71,ombligo,Spanish,Sounds/spa_ombligo.mp3,2020-06-24_18h03.15.124,TranslationElicitation_eng-prolific-spa,3.2.4,Win32,60,5ec7e258f052ac26af7aafc5,4.282999992,1,0,98,66,1,97
,,,,,,,,,,,,,,,,,,,,,,,,,,,,,,,,,,,,,,,,,,,,,,,,,,,71,ombligo,Spanish,Sounds/spa_ombligo.mp3,2020-06-24_18h03.15.124,TranslationElicitation_eng-prolific-spa,3.2.4,Win32,60,5ec7e258f052ac26af7aafc5,,1,0,98,66,1,97
,,,,,,,,,,,,,,,,,,,,,,,,,,,,,,,,,,,,,,,,,t,35.26600003,T,FALSE,,,,,,,98,tobogan,Spanish,Sounds/spa_tobogan.mp3,2020-06-24_18h03.15.124,TranslationElicitation_eng-prolific-spa,3.2.4,Win32,60,5ec7e258f052ac26af7aafc5,,1,0,98,92,1,97
,,,,,,,,,,,,,,,,,,,,,,,,,,,,,,,,,,,,,,,,,o,35.41599989,TO,FALSE,,,,,,,98,tobogan,Spanish,Sounds/spa_tobogan.mp3,2020-06-24_18h03.15.124,TranslationElicitation_eng-prolific-spa,3.2.4,Win32,60,5ec7e258f052ac26af7aafc5,,1,0,98,92,1,97
,,,,,,,,,,,,,,,,,,,,,,,,,,,,,,,,,,,,,,,,,space,35.49899983,TO ,FALSE,,,,,,,98,tobogan,Spanish,Sounds/spa_tobogan.mp3,2020-06-24_18h03.15.124,TranslationElicitation_eng-prolific-spa,3.2.4,Win32,60,5ec7e258f052ac26af7aafc5,,1,0,98,92,1,97
,,,,,,,,,,,,,,,,,,,,,,,,,,,,,,,,,,,,,,,,,r,35.6329999,TO R,FALSE,,,,,,,98,tobogan,Spanish,Sounds/spa_tobogan.mp3,2020-06-24_18h03.15.124,TranslationElicitation_eng-prolific-spa,3.2.4,Win32,60,5ec7e258f052ac26af7aafc5,,1,0,98,92,1,97
,,,,,,,,,,,,,,,,,,,,,,,,,,,,,,,,,,,,,,,,,u,35.69899988,TO RU,FALSE,,,,,,,98,tobogan,Spanish,Sounds/spa_tobogan.mp3,2020-06-24_18h03.15.124,TranslationElicitation_eng-prolific-spa,3.2.4,Win32,60,5ec7e258f052ac26af7aafc5,,1,0,98,92,1,97
,,,,,,,,,,,,,,,,,,,,,,,,,,,,,,,,,,,,,,,,,n,35.86599994,TO RUN,FALSE,,,,,,,98,tobogan,Spanish,Sounds/spa_tobogan.mp3,2020-06-24_18h03.15.124,TranslationElicitation_eng-prolific-spa,3.2.4,Win32,60,5ec7e258f052ac26af7aafc5,,1,0,98,92,1,97
,,,,,,,,,,,,,,,,,,,,,,,,,,,,,,,,,,,,,,,,,return,36.23300004,TO RUN,FALSE,,,,,,,98,tobogan,Spanish,Sounds/spa_tobogan.mp3,2020-06-24_18h03.15.124,TranslationElicitation_eng-prolific-spa,3.2.4,Win32,60,5ec7e258f052ac26af7aafc5,36.23300004,1,0,98,92,1,97
,,,,,,,,,,,,,,,,,,,,,,,,,,,,,,,,,,,,,,,,,,,,,,,,,,,98,tobogan,Spanish,Sounds/spa_tobogan.mp3,2020-06-24_18h03.15.124,TranslationElicitation_eng-prolific-spa,3.2.4,Win32,60,5ec7e258f052ac26af7aafc5,,1,0,98,92,1,97
,,,,,,,,,,,,,,,,,,,,,,,,,,,,,,,,,,,,,,,,,e,3.065999985,E,FALSE,,,,,,,97,tijeras,Spanish,Sounds/spa_tijeras.mp3,2020-06-24_18h03.15.124,TranslationElicitation_eng-prolific-spa,3.2.4,Win32,60,5ec7e258f052ac26af7aafc5,,1,0,98,91,1,97
,,,,,,,,,,,,,,,,,,,,,,,,,,,,,,,,,,,,,,,,,n,3.149999857,EN,FALSE,,,,,,,97,tijeras,Spanish,Sounds/spa_tijeras.mp3,2020-06-24_18h03.15.124,TranslationElicitation_eng-prolific-spa,3.2.4,Win32,60,5ec7e258f052ac26af7aafc5,,1,0,98,91,1,97
,,,,,,,,,,,,,,,,,,,,,,,,,,,,,,,,,,,,,,,,,e,3.232999802,ENE,FALSE,,,,,,,97,tijeras,Spanish,Sounds/spa_tijeras.mp3,2020-06-24_18h03.15.124,TranslationElicitation_eng-prolific-spa,3.2.4,Win32,60,5ec7e258f052ac26af7aafc5,,1,0,98,91,1,97
,,,,,,,,,,,,,,,,,,,,,,,,,,,,,,,,,,,,,,,,,m,3.349999905,ENEM,FALSE,,,,,,,97,tijeras,Spanish,Sounds/spa_tijeras.mp3,2020-06-24_18h03.15.124,TranslationElicitation_eng-prolific-spa,3.2.4,Win32,60,5ec7e258f052ac26af7aafc5,,1,0,98,91,1,97
,,,,,,,,,,,,,,,,,,,,,,,,,,,,,,,,,,,,,,,,,i,3.515999794,ENEMI,FALSE,,,,,,,97,tijeras,Spanish,Sounds/spa_tijeras.mp3,2020-06-24_18h03.15.124,TranslationElicitation_eng-prolific-spa,3.2.4,Win32,60,5ec7e258f052ac26af7aafc5,,1,0,98,91,1,97
,,,,,,,,,,,,,,,,,,,,,,,,,,,,,,,,,,,,,,,,,e,3.615999937,ENEMIE,FALSE,,,,,,,97,tijeras,Spanish,Sounds/spa_tijeras.mp3,2020-06-24_18h03.15.124,TranslationElicitation_eng-prolific-spa,3.2.4,Win32,60,5ec7e258f052ac26af7aafc5,,1,0,98,91,1,97
,,,,,,,,,,,,,,,,,,,,,,,,,,,,,,,,,,,,,,,,,s,3.765999794,ENEMIES,FALSE,,,,,,,97,tijeras,Spanish,Sounds/spa_tijeras.mp3,2020-06-24_18h03.15.124,TranslationElicitation_eng-prolific-spa,3.2.4,Win32,60,5ec7e258f052ac26af7aafc5,,1,0,98,91,1,97
,,,,,,,,,,,,,,,,,,,,,,,,,,,,,,,,,,,,,,,,,return,3.932999849,ENEMIES,FALSE,,,,,,,97,tijeras,Spanish,Sounds/spa_tijeras.mp3,2020-06-24_18h03.15.124,TranslationElicitation_eng-prolific-spa,3.2.4,Win32,60,5ec7e258f052ac26af7aafc5,3.932999849,1,0,98,91,1,97
,,,,,,,,,,,,,,,,,,,,,,,,,,,,,,,,,,,,,,,,,,,,,,,,,,,97,tijeras,Spanish,Sounds/spa_tijeras.mp3,2020-06-24_18h03.15.124,TranslationElicitation_eng-prolific-spa,3.2.4,Win32,60,5ec7e258f052ac26af7aafc5,,1,0,98,91,1,97
,,,,,,,,,,,,,,,,,,,,,,,,,,,,,,,,,,,,,,,,,g,1.98300004,G,FALSE,,,,,,,32,cuchara,Spanish,Sounds/spa_cuchara.mp3,2020-06-24_18h03.15.124,TranslationElicitation_eng-prolific-spa,3.2.4,Win32,60,5ec7e258f052ac26af7aafc5,,1,0,98,28,1,97
,,,,,,,,,,,,,,,,,,,,,,,,,,,,,,,,,,,,,,,,,o,2.082999945,GO,FALSE,,,,,,,32,cuchara,Spanish,Sounds/spa_cuchara.mp3,2020-06-24_18h03.15.124,TranslationElicitation_eng-prolific-spa,3.2.4,Win32,60,5ec7e258f052ac26af7aafc5,,1,0,98,28,1,97
,,,,,,,,,,,,,,,,,,,,,,,,,,,,,,,,,,,,,,,,,o,2.217000008,GOO,FALSE,,,,,,,32,cuchara,Spanish,Sounds/spa_cuchara.mp3,2020-06-24_18h03.15.124,TranslationElicitation_eng-prolific-spa,3.2.4,Win32,60,5ec7e258f052ac26af7aafc5,,1,0,98,28,1,97
,,,,,,,,,,,,,,,,,,,,,,,,,,,,,,,,,,,,,,,,,d,2.299999952,GOOD,FALSE,,,,,,,32,cuchara,Spanish,Sounds/spa_cuchara.mp3,2020-06-24_18h03.15.124,TranslationElicitation_eng-prolific-spa,3.2.4,Win32,60,5ec7e258f052ac26af7aafc5,,1,0,98,28,1,97
,,,,,,,,,,,,,,,,,,,,,,,,,,,,,,,,,,,,,,,,,backspace,4.367000103,GOO,TRUE,,,,,,,32,cuchara,Spanish,Sounds/spa_cuchara.mp3,2020-06-24_18h03.15.124,TranslationElicitation_eng-prolific-spa,3.2.4,Win32,60,5ec7e258f052ac26af7aafc5,,1,0,98,28,1,97
,,,,,,,,,,,,,,,,,,,,,,,,,,,,,,,,,,,,,,,,,backspace,4.900000095,GO,TRUE,,,,,,,32,cuchara,Spanish,Sounds/spa_cuchara.mp3,2020-06-24_18h03.15.124,TranslationElicitation_eng-prolific-spa,3.2.4,Win32,60,5ec7e258f052ac26af7aafc5,,1,0,98,28,1,97
,,,,,,,,,,,,,,,,,,,,,,,,,,,,,,,,,,,,,,,,,backspace,4.933000088,G,TRUE,,,,,,,32,cuchara,Spanish,Sounds/spa_cuchara.mp3,2020-06-24_18h03.15.124,TranslationElicitation_eng-prolific-spa,3.2.4,Win32,60,5ec7e258f052ac26af7aafc5,,1,0,98,28,1,97
,,,,,,,,,,,,,,,,,,,,,,,,,,,,,,,,,,,,,,,,,backspace,4.98300004,,TRUE,,,,,,,32,cuchara,Spanish,Sounds/spa_cuchara.mp3,2020-06-24_18h03.15.124,TranslationElicitation_eng-prolific-spa,3.2.4,Win32,60,5ec7e258f052ac26af7aafc5,,1,0,98,28,1,97
,,,,,,,,,,,,,,,,,,,,,,,,,,,,,,,,,,,,,,,,,backspace,5.01699996,,TRUE,,,,,,,32,cuchara,Spanish,Sounds/spa_cuchara.mp3,2020-06-24_18h03.15.124,TranslationElicitation_eng-prolific-spa,3.2.4,Win32,60,5ec7e258f052ac26af7aafc5,,1,0,98,28,1,97
,,,,,,,,,,,,,,,,,,,,,,,,,,,,,,,,,,,,,,,,,backspace,5.049999952,,TRUE,,,,,,,32,cuchara,Spanish,Sounds/spa_cuchara.mp3,2020-06-24_18h03.15.124,TranslationElicitation_eng-prolific-spa,3.2.4,Win32,60,5ec7e258f052ac26af7aafc5,,1,0,98,28,1,97
,,,,,,,,,,,,,,,,,,,,,,,,,,,,,,,,,,,,,,,,,backspace,5.082999945,,TRUE,,,,,,,32,cuchara,Spanish,Sounds/spa_cuchara.mp3,2020-06-24_18h03.15.124,TranslationElicitation_eng-prolific-spa,3.2.4,Win32,60,5ec7e258f052ac26af7aafc5,,1,0,98,28,1,97
,,,,,,,,,,,,,,,,,,,,,,,,,,,,,,,,,,,,,,,,,backspace,5.117000103,,TRUE,,,,,,,32,cuchara,Spanish,Sounds/spa_cuchara.mp3,2020-06-24_18h03.15.124,TranslationElicitation_eng-prolific-spa,3.2.4,Win32,60,5ec7e258f052ac26af7aafc5,,1,0,98,28,1,97
,,,,,,,,,,,,,,,,,,,,,,,,,,,,,,,,,,,,,,,,,backspace,5.150000095,,TRUE,,,,,,,32,cuchara,Spanish,Sounds/spa_cuchara.mp3,2020-06-24_18h03.15.124,TranslationElicitation_eng-prolific-spa,3.2.4,Win32,60,5ec7e258f052ac26af7aafc5,,1,0,98,28,1,97
,,,,,,,,,,,,,,,,,,,,,,,,,,,,,,,,,,,,,,,,,g,5.817000151,G,TRUE,,,,,,,32,cuchara,Spanish,Sounds/spa_cuchara.mp3,2020-06-24_18h03.15.124,TranslationElicitation_eng-prolific-spa,3.2.4,Win32,60,5ec7e258f052ac26af7aafc5,,1,0,98,28,1,97
,,,,,,,,,,,,,,,,,,,,,,,,,,,,,,,,,,,,,,,,,o,5.933000088,GO,TRUE,,,,,,,32,cuchara,Spanish,Sounds/spa_cuchara.mp3,2020-06-24_18h03.15.124,TranslationElicitation_eng-prolific-spa,3.2.4,Win32,60,5ec7e258f052ac26af7aafc5,,1,0,98,28,1,97
,,,,,,,,,,,,,,,,,,,,,,,,,,,,,,,,,,,,,,,,,o,6.067000151,GOO,TRUE,,,,,,,32,cuchara,Spanish,Sounds/spa_cuchara.mp3,2020-06-24_18h03.15.124,TranslationElicitation_eng-prolific-spa,3.2.4,Win32,60,5ec7e258f052ac26af7aafc5,,1,0,98,28,1,97
,,,,,,,,,,,,,,,,,,,,,,,,,,,,,,,,,,,,,,,,,d,6.167000055,GOOD,TRUE,,,,,,,32,cuchara,Spanish,Sounds/spa_cuchara.mp3,2020-06-24_18h03.15.124,TranslationElicitation_eng-prolific-spa,3.2.4,Win32,60,5ec7e258f052ac26af7aafc5,,1,0,98,28,1,97
,,,,,,,,,,,,,,,,,,,,,,,,,,,,,,,,,,,,,,,,,space,6.23300004,GOOD ,TRUE,,,,,,,32,cuchara,Spanish,Sounds/spa_cuchara.mp3,2020-06-24_18h03.15.124,TranslationElicitation_eng-prolific-spa,3.2.4,Win32,60,5ec7e258f052ac26af7aafc5,,1,0,98,28,1,97
,,,,,,,,,,,,,,,,,,,,,,,,,,,,,,,,,,,,,,,,,p,6.667000055,GOOD P,TRUE,,,,,,,32,cuchara,Spanish,Sounds/spa_cuchara.mp3,2020-06-24_18h03.15.124,TranslationElicitation_eng-prolific-spa,3.2.4,Win32,60,5ec7e258f052ac26af7aafc5,,1,0,98,28,1,97
,,,,,,,,,,,,,,,,,,,,,,,,,,,,,,,,,,,,,,,,,e,6.717000008,GOOD PE,TRUE,,,,,,,32,cuchara,Spanish,Sounds/spa_cuchara.mp3,2020-06-24_18h03.15.124,TranslationElicitation_eng-prolific-spa,3.2.4,Win32,60,5ec7e258f052ac26af7aafc5,,1,0,98,28,1,97
,,,,,,,,,,,,,,,,,,,,,,,,,,,,,,,,,,,,,,,,,e,6.851000071,GOOD PEE,TRUE,,,,,,,32,cuchara,Spanish,Sounds/spa_cuchara.mp3,2020-06-24_18h03.15.124,TranslationElicitation_eng-prolific-spa,3.2.4,Win32,60,5ec7e258f052ac26af7aafc5,,1,0,98,28,1,97
,,,,,,,,,,,,,,,,,,,,,,,,,,,,,,,,,,,,,,,,,backspace,7.367000103,GOOD PE,TRUE,,,,,,,32,cuchara,Spanish,Sounds/spa_cuchara.mp3,2020-06-24_18h03.15.124,TranslationElicitation_eng-prolific-spa,3.2.4,Win32,60,5ec7e258f052ac26af7aafc5,,1,0,98,28,1,97
