consentKey.keys,consentKey.rt,languageL1Key.keys,languageL1Key.rt,languageL2,languageL2OralKey.keys,languageL2OralKey.rt,languageL2WrittenKey.keys,languageL2WrittenKey.rt,languageL3OralKey.keys,languageL3OralKey.rt,languageL3WrittenKey.keys,languageL3WrittenKey.rt,languageCatalanOralKey.keys,languageCatalanOralKey.rt,languageCatalanWrittenKey.keys,languageCatalanWrittenKey.rt,languageCatalanTimeKey.keys,languageCatalanTimeKey.rt,languageSpanishOralKey.keys,languageSpanishOralKey.rt,languageSpanishWrittenKey.keys,languageSpanishWrittenKey.rt,languageSpanishTimeKey.keys,languageSpanishTimeKey.rt,age,demoSexKey.keys,demoSexKey.rt,demoEducationKey.keys,demoEducationKey.rt,city,demoVisionKey.keys,demoVisionKey.rt,demoLanguageKey.keys,demoLanguageKey.rt,setupLocationKey.keys,setupLocationKey.rt,setupNoiseKey.keys,setupNoiseKey.rt,instructionsKeys.keys,instructionsKeys.rt,keyPressed,keyPressTime,inputText,error,trialsPracticeCatalan.thisRepN,trialsPracticeCatalan.thisTrialN,trialsPracticeCatalan.thisN,trialsPracticeCatalan.thisIndex,trialsPracticeCatalan.ran,trialsPracticeCatalan.order,trial_id,word,test_language,soundfile,date,expName,psychopyVersion,OS,frameRate,participant,trialOffset,trialsCatalan.thisRepN,trialsCatalan.thisTrialN,trialsCatalan.thisN,trialsCatalan.thisIndex,trialsCatalan.ran,trialsCatalan.order
space,2.101000309,e,4.207000256,,,,,,,,,,1,6.728000164,1,4.47900033,1,8.732000113,2,5.668000221,2,6.092000246,1,7.224000216,21,m,2.082000256,3,5.798000097,MANCHESTER,y,3.683000088,n,2.76300025,1,2.342000246,1,9.208000183,space,32.06500006,h,17.69499993,H,FALSE,1,0,5,0,1,4,109,arbre,Catalan,Sounds/cat_arbre.mp3,2020-06-08_18h12.41.245,TranslationElicitation_eng-prolific,3.2.4,Win32,60,5ec8f15fce3f413ef07d6cc5,,,,,,,
,,,,,,,,,,,,,,,,,,,,,,,,,,,,,,,,,,,,,,,,,backspace,18.66199994,,TRUE,1,0,5,0,1,4,109,arbre,Catalan,Sounds/cat_arbre.mp3,2020-06-08_18h12.41.245,TranslationElicitation_eng-prolific,3.2.4,Win32,60,5ec8f15fce3f413ef07d6cc5,,,,,,,
,,,,,,,,,,,,,,,,,,,,,,,,,,,,,,,,,,,,,,,,,h,29.70799994,H,TRUE,1,0,5,0,1,4,109,arbre,Catalan,Sounds/cat_arbre.mp3,2020-06-08_18h12.41.245,TranslationElicitation_eng-prolific,3.2.4,Win32,60,5ec8f15fce3f413ef07d6cc5,,,,,,,
,,,,,,,,,,,,,,,,,,,,,,,,,,,,,,,,,,,,,,,,,o,29.90799999,HO,TRUE,1,0,5,0,1,4,109,arbre,Catalan,Sounds/cat_arbre.mp3,2020-06-08_18h12.41.245,TranslationElicitation_eng-prolific,3.2.4,Win32,60,5ec8f15fce3f413ef07d6cc5,,,,,,,
,,,,,,,,,,,,,,,,,,,,,,,,,,,,,,,,,,,,,,,,,u,30.125,HOU,TRUE,1,0,5,0,1,4,109,arbre,Catalan,Sounds/cat_arbre.mp3,2020-06-08_18h12.41.245,TranslationElicitation_eng-prolific,3.2.4,Win32,60,5ec8f15fce3f413ef07d6cc5,,,,,,,
,,,,,,,,,,,,,,,,,,,,,,,,,,,,,,,,,,,,,,,,,s,30.19099998,HOUS,TRUE,1,0,5,0,1,4,109,arbre,Catalan,Sounds/cat_arbre.mp3,2020-06-08_18h12.41.245,TranslationElicitation_eng-prolific,3.2.4,Win32,60,5ec8f15fce3f413ef07d6cc5,,,,,,,
,,,,,,,,,,,,,,,,,,,,,,,,,,,,,,,,,,,,,,,,,e,30.34200001,HOUSE,TRUE,1,0,5,0,1,4,109,arbre,Catalan,Sounds/cat_arbre.mp3,2020-06-08_18h12.41.245,TranslationElicitation_eng-prolific,3.2.4,Win32,60,5ec8f15fce3f413ef07d6cc5,,,,,,,
,,,,,,,,,,,,,,,,,,,,,,,,,,,,,,,,,,,,,,,,,backspace,32.17400002,HOUS,TRUE,1,0,5,0,1,4,109,arbre,Catalan,Sounds/cat_arbre.mp3,2020-06-08_18h12.41.245,TranslationElicitation_eng-prolific,3.2.4,Win32,60,5ec8f15fce3f413ef07d6cc5,,,,,,,
,,,,,,,,,,,,,,,,,,,,,,,,,,,,,,,,,,,,,,,,,backspace,32.34100008,HOU,TRUE,1,0,5,0,1,4,109,arbre,Catalan,Sounds/cat_arbre.mp3,2020-06-08_18h12.41.245,TranslationElicitation_eng-prolific,3.2.4,Win32,60,5ec8f15fce3f413ef07d6cc5,,,,,,,
,,,,,,,,,,,,,,,,,,,,,,,,,,,,,,,,,,,,,,,,,backspace,32.47399998,HO,TRUE,1,0,5,0,1,4,109,arbre,Catalan,Sounds/cat_arbre.mp3,2020-06-08_18h12.41.245,TranslationElicitation_eng-prolific,3.2.4,Win32,60,5ec8f15fce3f413ef07d6cc5,,,,,,,
,,,,,,,,,,,,,,,,,,,,,,,,,,,,,,,,,,,,,,,,,backspace,32.62400007,H,TRUE,1,0,5,0,1,4,109,arbre,Catalan,Sounds/cat_arbre.mp3,2020-06-08_18h12.41.245,TranslationElicitation_eng-prolific,3.2.4,Win32,60,5ec8f15fce3f413ef07d6cc5,,,,,,,
,,,,,,,,,,,,,,,,,,,,,,,,,,,,,,,,,,,,,,,,,backspace,32.77600002,,TRUE,1,0,5,0,1,4,109,arbre,Catalan,Sounds/cat_arbre.mp3,2020-06-08_18h12.41.245,TranslationElicitation_eng-prolific,3.2.4,Win32,60,5ec8f15fce3f413ef07d6cc5,,,,,,,
,,,,,,,,,,,,,,,,,,,,,,,,,,,,,,,,,,,,,,,,,return,33.28999996,,TRUE,1,0,5,0,1,4,109,arbre,Catalan,Sounds/cat_arbre.mp3,2020-06-08_18h12.41.245,TranslationElicitation_eng-prolific,3.2.4,Win32,60,5ec8f15fce3f413ef07d6cc5,33.28999996,,,,,,
,,,,,,,,,,,,,,,,,,,,,,,,,,,,,,,,,,,,,,,,,,,,,1,0,5,0,1,4,109,arbre,Catalan,Sounds/cat_arbre.mp3,2020-06-08_18h12.41.245,TranslationElicitation_eng-prolific,3.2.4,Win32,60,5ec8f15fce3f413ef07d6cc5,,,,,,,
,,,,,,,,,,,,,,,,,,,,,,,,,,,,,,,,,,,,,,,,,u,4.330000162,U,FALSE,1,0,5,3,1,4,159,onada,Catalan,Sounds/cat_onada.mp3,2020-06-08_18h12.41.245,TranslationElicitation_eng-prolific,3.2.4,Win32,60,5ec8f15fce3f413ef07d6cc5,,,,,,,
,,,,,,,,,,,,,,,,,,,,,,,,,,,,,,,,,,,,,,,,,n,4.480000019,UN,FALSE,1,0,5,3,1,4,159,onada,Catalan,Sounds/cat_onada.mp3,2020-06-08_18h12.41.245,TranslationElicitation_eng-prolific,3.2.4,Win32,60,5ec8f15fce3f413ef07d6cc5,,,,,,,
,,,,,,,,,,,,,,,,,,,,,,,,,,,,,,,,,,,,,,,,,i,4.630000114,UNI,FALSE,1,0,5,3,1,4,159,onada,Catalan,Sounds/cat_onada.mp3,2020-06-08_18h12.41.245,TranslationElicitation_eng-prolific,3.2.4,Win32,60,5ec8f15fce3f413ef07d6cc5,,,,,,,
,,,,,,,,,,,,,,,,,,,,,,,,,,,,,,,,,,,,,,,,,c,4.746999979,UNIC,FALSE,1,0,5,3,1,4,159,onada,Catalan,Sounds/cat_onada.mp3,2020-06-08_18h12.41.245,TranslationElicitation_eng-prolific,3.2.4,Win32,60,5ec8f15fce3f413ef07d6cc5,,,,,,,
,,,,,,,,,,,,,,,,,,,,,,,,,,,,,,,,,,,,,,,,,o,5.062999964,UNICO,FALSE,1,0,5,3,1,4,159,onada,Catalan,Sounds/cat_onada.mp3,2020-06-08_18h12.41.245,TranslationElicitation_eng-prolific,3.2.4,Win32,60,5ec8f15fce3f413ef07d6cc5,,,,,,,
,,,,,,,,,,,,,,,,,,,,,,,,,,,,,,,,,,,,,,,,,r,5.279999971,UNICOR,FALSE,1,0,5,3,1,4,159,onada,Catalan,Sounds/cat_onada.mp3,2020-06-08_18h12.41.245,TranslationElicitation_eng-prolific,3.2.4,Win32,60,5ec8f15fce3f413ef07d6cc5,,,,,,,
,,,,,,,,,,,,,,,,,,,,,,,,,,,,,,,,,,,,,,,,,n,5.680000067,UNICORN,FALSE,1,0,5,3,1,4,159,onada,Catalan,Sounds/cat_onada.mp3,2020-06-08_18h12.41.245,TranslationElicitation_eng-prolific,3.2.4,Win32,60,5ec8f15fce3f413ef07d6cc5,,,,,,,
,,,,,,,,,,,,,,,,,,,,,,,,,,,,,,,,,,,,,,,,,return,8.111999989,UNICORN,FALSE,1,0,5,3,1,4,159,onada,Catalan,Sounds/cat_onada.mp3,2020-06-08_18h12.41.245,TranslationElicitation_eng-prolific,3.2.4,Win32,60,5ec8f15fce3f413ef07d6cc5,8.111999989,,,,,,
,,,,,,,,,,,,,,,,,,,,,,,,,,,,,,,,,,,,,,,,,,,,,1,0,5,3,1,4,159,onada,Catalan,Sounds/cat_onada.mp3,2020-06-08_18h12.41.245,TranslationElicitation_eng-prolific,3.2.4,Win32,60,5ec8f15fce3f413ef07d6cc5,,,,,,,
,,,,,,,,,,,,,,,,,,,,,,,,,,,,,,,,,,,,,,,,,t,2.281999826,T,FALSE,1,0,5,4,1,4,179,tigre,Catalan,Sounds/cat_tigre.mp3,2020-06-08_18h12.41.245,TranslationElicitation_eng-prolific,3.2.4,Win32,60,5ec8f15fce3f413ef07d6cc5,,,,,,,
,,,,,,,,,,,,,,,,,,,,,,,,,,,,,,,,,,,,,,,,,i,2.36500001,TI,FALSE,1,0,5,4,1,4,179,tigre,Catalan,Sounds/cat_tigre.mp3,2020-06-08_18h12.41.245,TranslationElicitation_eng-prolific,3.2.4,Win32,60,5ec8f15fce3f413ef07d6cc5,,,,,,,
,,,,,,,,,,,,,,,,,,,,,,,,,,,,,,,,,,,,,,,,,g,2.582000017,TIG,FALSE,1,0,5,4,1,4,179,tigre,Catalan,Sounds/cat_tigre.mp3,2020-06-08_18h12.41.245,TranslationElicitation_eng-prolific,3.2.4,Win32,60,5ec8f15fce3f413ef07d6cc5,,,,,,,
,,,,,,,,,,,,,,,,,,,,,,,,,,,,,,,,,,,,,,,,,e,2.731999874,TIGE,FALSE,1,0,5,4,1,4,179,tigre,Catalan,Sounds/cat_tigre.mp3,2020-06-08_18h12.41.245,TranslationElicitation_eng-prolific,3.2.4,Win32,60,5ec8f15fce3f413ef07d6cc5,,,,,,,
,,,,,,,,,,,,,,,,,,,,,,,,,,,,,,,,,,,,,,,,,r,2.881999969,TIGER,FALSE,1,0,5,4,1,4,179,tigre,Catalan,Sounds/cat_tigre.mp3,2020-06-08_18h12.41.245,TranslationElicitation_eng-prolific,3.2.4,Win32,60,5ec8f15fce3f413ef07d6cc5,,,,,,,
,,,,,,,,,,,,,,,,,,,,,,,,,,,,,,,,,,,,,,,,,return,3.398000002,TIGER,FALSE,1,0,5,4,1,4,179,tigre,Catalan,Sounds/cat_tigre.mp3,2020-06-08_18h12.41.245,TranslationElicitation_eng-prolific,3.2.4,Win32,60,5ec8f15fce3f413ef07d6cc5,3.398000002,,,,,,
,,,,,,,,,,,,,,,,,,,,,,,,,,,,,,,,,,,,,,,,,,,,,1,0,5,4,1,4,179,tigre,Catalan,Sounds/cat_tigre.mp3,2020-06-08_18h12.41.245,TranslationElicitation_eng-prolific,3.2.4,Win32,60,5ec8f15fce3f413ef07d6cc5,,,,,,,
,,,,,,,,,,,,,,,,,,,,,,,,,,,,,,,,,,,,,,,,,c,2.148999929,C,FALSE,1,0,5,1,1,4,126,corona,Catalan,Sounds/cat_corona.mp3,2020-06-08_18h12.41.245,TranslationElicitation_eng-prolific,3.2.4,Win32,60,5ec8f15fce3f413ef07d6cc5,,,,,,,
,,,,,,,,,,,,,,,,,,,,,,,,,,,,,,,,,,,,,,,,,o,2.315999985,CO,FALSE,1,0,5,1,1,4,126,corona,Catalan,Sounds/cat_corona.mp3,2020-06-08_18h12.41.245,TranslationElicitation_eng-prolific,3.2.4,Win32,60,5ec8f15fce3f413ef07d6cc5,,,,,,,
,,,,,,,,,,,,,,,,,,,,,,,,,,,,,,,,,,,,,,,,,r,2.565999985,COR,FALSE,1,0,5,1,1,4,126,corona,Catalan,Sounds/cat_corona.mp3,2020-06-08_18h12.41.245,TranslationElicitation_eng-prolific,3.2.4,Win32,60,5ec8f15fce3f413ef07d6cc5,,,,,,,
,,,,,,,,,,,,,,,,,,,,,,,,,,,,,,,,,,,,,,,,,o,3.315999985,CORO,FALSE,1,0,5,1,1,4,126,corona,Catalan,Sounds/cat_corona.mp3,2020-06-08_18h12.41.245,TranslationElicitation_eng-prolific,3.2.4,Win32,60,5ec8f15fce3f413ef07d6cc5,,,,,,,
,,,,,,,,,,,,,,,,,,,,,,,,,,,,,,,,,,,,,,,,,n,3.516000032,CORON,FALSE,1,0,5,1,1,4,126,corona,Catalan,Sounds/cat_corona.mp3,2020-06-08_18h12.41.245,TranslationElicitation_eng-prolific,3.2.4,Win32,60,5ec8f15fce3f413ef07d6cc5,,,,,,,
,,,,,,,,,,,,,,,,,,,,,,,,,,,,,,,,,,,,,,,,,a,3.648999929,CORONA,FALSE,1,0,5,1,1,4,126,corona,Catalan,Sounds/cat_corona.mp3,2020-06-08_18h12.41.245,TranslationElicitation_eng-prolific,3.2.4,Win32,60,5ec8f15fce3f413ef07d6cc5,,,,,,,
,,,,,,,,,,,,,,,,,,,,,,,,,,,,,,,,,,,,,,,,,return,4.381999969,CORONA,FALSE,1,0,5,1,1,4,126,corona,Catalan,Sounds/cat_corona.mp3,2020-06-08_18h12.41.245,TranslationElicitation_eng-prolific,3.2.4,Win32,60,5ec8f15fce3f413ef07d6cc5,4.381999969,,,,,,
,,,,,,,,,,,,,,,,,,,,,,,,,,,,,,,,,,,,,,,,,,,,,1,0,5,1,1,4,126,corona,Catalan,Sounds/cat_corona.mp3,2020-06-08_18h12.41.245,TranslationElicitation_eng-prolific,3.2.4,Win32,60,5ec8f15fce3f413ef07d6cc5,,,,,,,
,,,,,,,,,,,,,,,,,,,,,,,,,,,,,,,,,,,,,,,,,r,2.898999929,R,FALSE,1,0,5,2,1,4,147,jaqueta,Catalan,Sounds/cat_jaqueta.mp3,2020-06-08_18h12.41.245,TranslationElicitation_eng-prolific,3.2.4,Win32,60,5ec8f15fce3f413ef07d6cc5,,,,,,,
,,,,,,,,,,,,,,,,,,,,,,,,,,,,,,,,,,,,,,,,,a,3.098999977,RA,FALSE,1,0,5,2,1,4,147,jaqueta,Catalan,Sounds/cat_jaqueta.mp3,2020-06-08_18h12.41.245,TranslationElicitation_eng-prolific,3.2.4,Win32,60,5ec8f15fce3f413ef07d6cc5,,,,,,,
,,,,,,,,,,,,,,,,,,,,,,,,,,,,,,,,,,,,,,,,,c,3.315000057,RAC,FALSE,1,0,5,2,1,4,147,jaqueta,Catalan,Sounds/cat_jaqueta.mp3,2020-06-08_18h12.41.245,TranslationElicitation_eng-prolific,3.2.4,Win32,60,5ec8f15fce3f413ef07d6cc5,,,,,,,
,,,,,,,,,,,,,,,,,,,,,,,,,,,,,,,,,,,,,,,,,k,3.431999922,RACK,FALSE,1,0,5,2,1,4,147,jaqueta,Catalan,Sounds/cat_jaqueta.mp3,2020-06-08_18h12.41.245,TranslationElicitation_eng-prolific,3.2.4,Win32,60,5ec8f15fce3f413ef07d6cc5,,,,,,,
,,,,,,,,,,,,,,,,,,,,,,,,,,,,,,,,,,,,,,,,,e,3.598999977,RACKE,FALSE,1,0,5,2,1,4,147,jaqueta,Catalan,Sounds/cat_jaqueta.mp3,2020-06-08_18h12.41.245,TranslationElicitation_eng-prolific,3.2.4,Win32,60,5ec8f15fce3f413ef07d6cc5,,,,,,,
,,,,,,,,,,,,,,,,,,,,,,,,,,,,,,,,,,,,,,,,,t,3.931999922,RACKET,FALSE,1,0,5,2,1,4,147,jaqueta,Catalan,Sounds/cat_jaqueta.mp3,2020-06-08_18h12.41.245,TranslationElicitation_eng-prolific,3.2.4,Win32,60,5ec8f15fce3f413ef07d6cc5,,,,,,,
,,,,,,,,,,,,,,,,,,,,,,,,,,,,,,,,,,,,,,,,,backspace,4.664999962,RACKE,TRUE,1,0,5,2,1,4,147,jaqueta,Catalan,Sounds/cat_jaqueta.mp3,2020-06-08_18h12.41.245,TranslationElicitation_eng-prolific,3.2.4,Win32,60,5ec8f15fce3f413ef07d6cc5,,,,,,,
,,,,,,,,,,,,,,,,,,,,,,,,,,,,,,,,,,,,,,,,,backspace,4.815000057,RACK,TRUE,1,0,5,2,1,4,147,jaqueta,Catalan,Sounds/cat_jaqueta.mp3,2020-06-08_18h12.41.245,TranslationElicitation_eng-prolific,3.2.4,Win32,60,5ec8f15fce3f413ef07d6cc5,,,,,,,
,,,,,,,,,,,,,,,,,,,,,,,,,,,,,,,,,,,,,,,,,backspace,4.963999987,RAC,TRUE,1,0,5,2,1,4,147,jaqueta,Catalan,Sounds/cat_jaqueta.mp3,2020-06-08_18h12.41.245,TranslationElicitation_eng-prolific,3.2.4,Win32,60,5ec8f15fce3f413ef07d6cc5,,,,,,,
,,,,,,,,,,,,,,,,,,,,,,,,,,,,,,,,,,,,,,,,,backspace,5.118000031,RA,TRUE,1,0,5,2,1,4,147,jaqueta,Catalan,Sounds/cat_jaqueta.mp3,2020-06-08_18h12.41.245,TranslationElicitation_eng-prolific,3.2.4,Win32,60,5ec8f15fce3f413ef07d6cc5,,,,,,,
,,,,,,,,,,,,,,,,,,,,,,,,,,,,,,,,,,,,,,,,,backspace,5.296999931,R,TRUE,1,0,5,2,1,4,147,jaqueta,Catalan,Sounds/cat_jaqueta.mp3,2020-06-08_18h12.41.245,TranslationElicitation_eng-prolific,3.2.4,Win32,60,5ec8f15fce3f413ef07d6cc5,,,,,,,
,,,,,,,,,,,,,,,,,,,,,,,,,,,,,,,,,,,,,,,,,backspace,5.563999891,,TRUE,1,0,5,2,1,4,147,jaqueta,Catalan,Sounds/cat_jaqueta.mp3,2020-06-08_18h12.41.245,TranslationElicitation_eng-prolific,3.2.4,Win32,60,5ec8f15fce3f413ef07d6cc5,,,,,,,
,,,,,,,,,,,,,,,,,,,,,,,,,,,,,,,,,,,,,,,,,j,6.396999836,J,TRUE,1,0,5,2,1,4,147,jaqueta,Catalan,Sounds/cat_jaqueta.mp3,2020-06-08_18h12.41.245,TranslationElicitation_eng-prolific,3.2.4,Win32,60,5ec8f15fce3f413ef07d6cc5,,,,,,,
,,,,,,,,,,,,,,,,,,,,,,,,,,,,,,,,,,,,,,,,,a,6.463999987,JA,TRUE,1,0,5,2,1,4,147,jaqueta,Catalan,Sounds/cat_jaqueta.mp3,2020-06-08_18h12.41.245,TranslationElicitation_eng-prolific,3.2.4,Win32,60,5ec8f15fce3f413ef07d6cc5,,,,,,,
,,,,,,,,,,,,,,,,,,,,,,,,,,,,,,,,,,,,,,,,,c,6.613999844,JAC,TRUE,1,0,5,2,1,4,147,jaqueta,Catalan,Sounds/cat_jaqueta.mp3,2020-06-08_18h12.41.245,TranslationElicitation_eng-prolific,3.2.4,Win32,60,5ec8f15fce3f413ef07d6cc5,,,,,,,
,,,,,,,,,,,,,,,,,,,,,,,,,,,,,,,,,,,,,,,,,k,6.796999931,JACK,TRUE,1,0,5,2,1,4,147,jaqueta,Catalan,Sounds/cat_jaqueta.mp3,2020-06-08_18h12.41.245,TranslationElicitation_eng-prolific,3.2.4,Win32,60,5ec8f15fce3f413ef07d6cc5,,,,,,,
,,,,,,,,,,,,,,,,,,,,,,,,,,,,,,,,,,,,,,,,,e,6.980000019,JACKE,TRUE,1,0,5,2,1,4,147,jaqueta,Catalan,Sounds/cat_jaqueta.mp3,2020-06-08_18h12.41.245,TranslationElicitation_eng-prolific,3.2.4,Win32,60,5ec8f15fce3f413ef07d6cc5,,,,,,,
,,,,,,,,,,,,,,,,,,,,,,,,,,,,,,,,,,,,,,,,,t,7.463999987,JACKET,TRUE,1,0,5,2,1,4,147,jaqueta,Catalan,Sounds/cat_jaqueta.mp3,2020-06-08_18h12.41.245,TranslationElicitation_eng-prolific,3.2.4,Win32,60,5ec8f15fce3f413ef07d6cc5,,,,,,,
,,,,,,,,,,,,,,,,,,,,,,,,,,,,,,,,,,,,,,,,,return,8.029999971,JACKET,TRUE,1,0,5,2,1,4,147,jaqueta,Catalan,Sounds/cat_jaqueta.mp3,2020-06-08_18h12.41.245,TranslationElicitation_eng-prolific,3.2.4,Win32,60,5ec8f15fce3f413ef07d6cc5,8.029999971,,,,,,
,,,,,,,,,,,,,,,,,,,,,,,,,,,,,,,,,,,,,,,,,,,,,1,0,5,2,1,4,147,jaqueta,Catalan,Sounds/cat_jaqueta.mp3,2020-06-08_18h12.41.245,TranslationElicitation_eng-prolific,3.2.4,Win32,60,5ec8f15fce3f413ef07d6cc5,,,,,,,
,,,,,,,,,,,,,,,,,,,,,,,,,,,,,,,,,,,,,,,,,s,2.948999882,S,FALSE,,,,,,,131,esponja,Catalan,Sounds/cat_esponja.mp3,2020-06-08_18h12.41.245,TranslationElicitation_eng-prolific,3.2.4,Win32,60,5ec8f15fce3f413ef07d6cc5,,1,0,81,25,1,80
,,,,,,,,,,,,,,,,,,,,,,,,,,,,,,,,,,,,,,,,,p,3.065000057,SP,FALSE,,,,,,,131,esponja,Catalan,Sounds/cat_esponja.mp3,2020-06-08_18h12.41.245,TranslationElicitation_eng-prolific,3.2.4,Win32,60,5ec8f15fce3f413ef07d6cc5,,1,0,81,25,1,80
,,,,,,,,,,,,,,,,,,,,,,,,,,,,,,,,,,,,,,,,,o,3.214999914,SPO,FALSE,,,,,,,131,esponja,Catalan,Sounds/cat_esponja.mp3,2020-06-08_18h12.41.245,TranslationElicitation_eng-prolific,3.2.4,Win32,60,5ec8f15fce3f413ef07d6cc5,,1,0,81,25,1,80
,,,,,,,,,,,,,,,,,,,,,,,,,,,,,,,,,,,,,,,,,n,3.398000002,SPON,FALSE,,,,,,,131,esponja,Catalan,Sounds/cat_esponja.mp3,2020-06-08_18h12.41.245,TranslationElicitation_eng-prolific,3.2.4,Win32,60,5ec8f15fce3f413ef07d6cc5,,1,0,81,25,1,80
,,,,,,,,,,,,,,,,,,,,,,,,,,,,,,,,,,,,,,,,,g,3.548000097,SPONG,FALSE,,,,,,,131,esponja,Catalan,Sounds/cat_esponja.mp3,2020-06-08_18h12.41.245,TranslationElicitation_eng-prolific,3.2.4,Win32,60,5ec8f15fce3f413ef07d6cc5,,1,0,81,25,1,80
,,,,,,,,,,,,,,,,,,,,,,,,,,,,,,,,,,,,,,,,,e,3.766000032,SPONGE,FALSE,,,,,,,131,esponja,Catalan,Sounds/cat_esponja.mp3,2020-06-08_18h12.41.245,TranslationElicitation_eng-prolific,3.2.4,Win32,60,5ec8f15fce3f413ef07d6cc5,,1,0,81,25,1,80
,,,,,,,,,,,,,,,,,,,,,,,,,,,,,,,,,,,,,,,,,return,4.964999914,SPONGE,FALSE,,,,,,,131,esponja,Catalan,Sounds/cat_esponja.mp3,2020-06-08_18h12.41.245,TranslationElicitation_eng-prolific,3.2.4,Win32,60,5ec8f15fce3f413ef07d6cc5,4.964999914,1,0,81,25,1,80
,,,,,,,,,,,,,,,,,,,,,,,,,,,,,,,,,,,,,,,,,,,,,,,,,,,131,esponja,Catalan,Sounds/cat_esponja.mp3,2020-06-08_18h12.41.245,TranslationElicitation_eng-prolific,3.2.4,Win32,60,5ec8f15fce3f413ef07d6cc5,,1,0,81,25,1,80
,,,,,,,,,,,,,,,,,,,,,,,,,,,,,,,,,,,,,,,,,c,2.065999985,C,FALSE,,,,,,,188,xocolata,Catalan,Sounds/cat_xocolata.mp3,2020-06-08_18h12.41.245,TranslationElicitation_eng-prolific,3.2.4,Win32,60,5ec8f15fce3f413ef07d6cc5,,1,0,81,79,1,80
,,,,,,,,,,,,,,,,,,,,,,,,,,,,,,,,,,,,,,,,,h,2.166000128,CH,FALSE,,,,,,,188,xocolata,Catalan,Sounds/cat_xocolata.mp3,2020-06-08_18h12.41.245,TranslationElicitation_eng-prolific,3.2.4,Win32,60,5ec8f15fce3f413ef07d6cc5,,1,0,81,79,1,80
,,,,,,,,,,,,,,,,,,,,,,,,,,,,,,,,,,,,,,,,,o,2.414999962,CHO,FALSE,,,,,,,188,xocolata,Catalan,Sounds/cat_xocolata.mp3,2020-06-08_18h12.41.245,TranslationElicitation_eng-prolific,3.2.4,Win32,60,5ec8f15fce3f413ef07d6cc5,,1,0,81,79,1,80
,,,,,,,,,,,,,,,,,,,,,,,,,,,,,,,,,,,,,,,,,c,3.332000017,CHOC,FALSE,,,,,,,188,xocolata,Catalan,Sounds/cat_xocolata.mp3,2020-06-08_18h12.41.245,TranslationElicitation_eng-prolific,3.2.4,Win32,60,5ec8f15fce3f413ef07d6cc5,,1,0,81,79,1,80
,,,,,,,,,,,,,,,,,,,,,,,,,,,,,,,,,,,,,,,,,o,3.565999985,CHOCO,FALSE,,,,,,,188,xocolata,Catalan,Sounds/cat_xocolata.mp3,2020-06-08_18h12.41.245,TranslationElicitation_eng-prolific,3.2.4,Win32,60,5ec8f15fce3f413ef07d6cc5,,1,0,81,79,1,80
,,,,,,,,,,,,,,,,,,,,,,,,,,,,,,,,,,,,,,,,,l,3.765000105,CHOCOL,FALSE,,,,,,,188,xocolata,Catalan,Sounds/cat_xocolata.mp3,2020-06-08_18h12.41.245,TranslationElicitation_eng-prolific,3.2.4,Win32,60,5ec8f15fce3f413ef07d6cc5,,1,0,81,79,1,80
,,,,,,,,,,,,,,,,,,,,,,,,,,,,,,,,,,,,,,,,,a,4.215000153,CHOCOLA,FALSE,,,,,,,188,xocolata,Catalan,Sounds/cat_xocolata.mp3,2020-06-08_18h12.41.245,TranslationElicitation_eng-prolific,3.2.4,Win32,60,5ec8f15fce3f413ef07d6cc5,,1,0,81,79,1,80
,,,,,,,,,,,,,,,,,,,,,,,,,,,,,,,,,,,,,,,,,t,4.315000057,CHOCOLAT,FALSE,,,,,,,188,xocolata,Catalan,Sounds/cat_xocolata.mp3,2020-06-08_18h12.41.245,TranslationElicitation_eng-prolific,3.2.4,Win32,60,5ec8f15fce3f413ef07d6cc5,,1,0,81,79,1,80
,,,,,,,,,,,,,,,,,,,,,,,,,,,,,,,,,,,,,,,,,e,4.482000113,CHOCOLATE,FALSE,,,,,,,188,xocolata,Catalan,Sounds/cat_xocolata.mp3,2020-06-08_18h12.41.245,TranslationElicitation_eng-prolific,3.2.4,Win32,60,5ec8f15fce3f413ef07d6cc5,,1,0,81,79,1,80
,,,,,,,,,,,,,,,,,,,,,,,,,,,,,,,,,,,,,,,,,return,5.463999987,CHOCOLATE,FALSE,,,,,,,188,xocolata,Catalan,Sounds/cat_xocolata.mp3,2020-06-08_18h12.41.245,TranslationElicitation_eng-prolific,3.2.4,Win32,60,5ec8f15fce3f413ef07d6cc5,5.463999987,1,0,81,79,1,80
,,,,,,,,,,,,,,,,,,,,,,,,,,,,,,,,,,,,,,,,,,,,,,,,,,,188,xocolata,Catalan,Sounds/cat_xocolata.mp3,2020-06-08_18h12.41.245,TranslationElicitation_eng-prolific,3.2.4,Win32,60,5ec8f15fce3f413ef07d6cc5,,1,0,81,79,1,80
,,,,,,,,,,,,,,,,,,,,,,,,,,,,,,,,,,,,,,,,,f,3.264999866,F,FALSE,,,,,,,107,amanida,Catalan,Sounds/cat_amanida.mp3,2020-06-08_18h12.41.245,TranslationElicitation_eng-prolific,3.2.4,Win32,60,5ec8f15fce3f413ef07d6cc5,,1,0,81,3,1,80
,,,,,,,,,,,,,,,,,,,,,,,,,,,,,,,,,,,,,,,,,r,3.447999954,FR,FALSE,,,,,,,107,amanida,Catalan,Sounds/cat_amanida.mp3,2020-06-08_18h12.41.245,TranslationElicitation_eng-prolific,3.2.4,Win32,60,5ec8f15fce3f413ef07d6cc5,,1,0,81,3,1,80
,,,,,,,,,,,,,,,,,,,,,,,,,,,,,,,,,,,,,,,,,i,3.547999859,FRI,FALSE,,,,,,,107,amanida,Catalan,Sounds/cat_amanida.mp3,2020-06-08_18h12.41.245,TranslationElicitation_eng-prolific,3.2.4,Win32,60,5ec8f15fce3f413ef07d6cc5,,1,0,81,3,1,80
,,,,,,,,,,,,,,,,,,,,,,,,,,,,,,,,,,,,,,,,,e,3.680999994,FRIE,FALSE,,,,,,,107,amanida,Catalan,Sounds/cat_amanida.mp3,2020-06-08_18h12.41.245,TranslationElicitation_eng-prolific,3.2.4,Win32,60,5ec8f15fce3f413ef07d6cc5,,1,0,81,3,1,80
,,,,,,,,,,,,,,,,,,,,,,,,,,,,,,,,,,,,,,,,,n,3.851999998,FRIEN,FALSE,,,,,,,107,amanida,Catalan,Sounds/cat_amanida.mp3,2020-06-08_18h12.41.245,TranslationElicitation_eng-prolific,3.2.4,Win32,60,5ec8f15fce3f413ef07d6cc5,,1,0,81,3,1,80
,,,,,,,,,,,,,,,,,,,,,,,,,,,,,,,,,,,,,,,,,d,3.980999947,FRIEND,FALSE,,,,,,,107,amanida,Catalan,Sounds/cat_amanida.mp3,2020-06-08_18h12.41.245,TranslationElicitation_eng-prolific,3.2.4,Win32,60,5ec8f15fce3f413ef07d6cc5,,1,0,81,3,1,80
,,,,,,,,,,,,,,,,,,,,,,,,,,,,,,,,,,,,,,,,,return,4.597999811,FRIEND,FALSE,,,,,,,107,amanida,Catalan,Sounds/cat_amanida.mp3,2020-06-08_18h12.41.245,TranslationElicitation_eng-prolific,3.2.4,Win32,60,5ec8f15fce3f413ef07d6cc5,4.597999811,1,0,81,3,1,80
,,,,,,,,,,,,,,,,,,,,,,,,,,,,,,,,,,,,,,,,,,,,,,,,,,,107,amanida,Catalan,Sounds/cat_amanida.mp3,2020-06-08_18h12.41.245,TranslationElicitation_eng-prolific,3.2.4,Win32,60,5ec8f15fce3f413ef07d6cc5,,1,0,81,3,1,80
,,,,,,,,,,,,,,,,,,,,,,,,,,,,,,,,,,,,,,,,,f,2.582000017,F,FALSE,,,,,,,134,flor,Catalan,Sounds/cat_flor.mp3,2020-06-08_18h12.41.245,TranslationElicitation_eng-prolific,3.2.4,Win32,60,5ec8f15fce3f413ef07d6cc5,,1,0,81,28,1,80
,,,,,,,,,,,,,,,,,,,,,,,,,,,,,,,,,,,,,,,,,l,2.6650002,FL,FALSE,,,,,,,134,flor,Catalan,Sounds/cat_flor.mp3,2020-06-08_18h12.41.245,TranslationElicitation_eng-prolific,3.2.4,Win32,60,5ec8f15fce3f413ef07d6cc5,,1,0,81,28,1,80
,,,,,,,,,,,,,,,,,,,,,,,,,,,,,,,,,,,,,,,,,o,2.815000057,FLO,FALSE,,,,,,,134,flor,Catalan,Sounds/cat_flor.mp3,2020-06-08_18h12.41.245,TranslationElicitation_eng-prolific,3.2.4,Win32,60,5ec8f15fce3f413ef07d6cc5,,1,0,81,28,1,80
,,,,,,,,,,,,,,,,,,,,,,,,,,,,,,,,,,,,,,,,,u,3.015000105,FLOU,FALSE,,,,,,,134,flor,Catalan,Sounds/cat_flor.mp3,2020-06-08_18h12.41.245,TranslationElicitation_eng-prolific,3.2.4,Win32,60,5ec8f15fce3f413ef07d6cc5,,1,0,81,28,1,80
,,,,,,,,,,,,,,,,,,,,,,,,,,,,,,,,,,,,,,,,,backspace,4.749000072,FLO,TRUE,,,,,,,134,flor,Catalan,Sounds/cat_flor.mp3,2020-06-08_18h12.41.245,TranslationElicitation_eng-prolific,3.2.4,Win32,60,5ec8f15fce3f413ef07d6cc5,,1,0,81,28,1,80
,,,,,,,,,,,,,,,,,,,,,,,,,,,,,,,,,,,,,,,,,o,6.447000027,FLOO,TRUE,,,,,,,134,flor,Catalan,Sounds/cat_flor.mp3,2020-06-08_18h12.41.245,TranslationElicitation_eng-prolific,3.2.4,Win32,60,5ec8f15fce3f413ef07d6cc5,,1,0,81,28,1,80
,,,,,,,,,,,,,,,,,,,,,,,,,,,,,,,,,,,,,,,,,r,6.664000034,FLOOR,TRUE,,,,,,,134,flor,Catalan,Sounds/cat_flor.mp3,2020-06-08_18h12.41.245,TranslationElicitation_eng-prolific,3.2.4,Win32,60,5ec8f15fce3f413ef07d6cc5,,1,0,81,28,1,80
,,,,,,,,,,,,,,,,,,,,,,,,,,,,,,,,,,,,,,,,,return,10.08000016,FLOOR,TRUE,,,,,,,134,flor,Catalan,Sounds/cat_flor.mp3,2020-06-08_18h12.41.245,TranslationElicitation_eng-prolific,3.2.4,Win32,60,5ec8f15fce3f413ef07d6cc5,10.08000016,1,0,81,28,1,80
,,,,,,,,,,,,,,,,,,,,,,,,,,,,,,,,,,,,,,,,,,,,,,,,,,,134,flor,Catalan,Sounds/cat_flor.mp3,2020-06-08_18h12.41.245,TranslationElicitation_eng-prolific,3.2.4,Win32,60,5ec8f15fce3f413ef07d6cc5,,1,0,81,28,1,80
,,,,,,,,,,,,,,,,,,,,,,,,,,,,,,,,,,,,,,,,,h,4.281000137,H,FALSE,,,,,,,124,cirera,Catalan,Sounds/cat_cirera.mp3,2020-06-08_18h12.41.245,TranslationElicitation_eng-prolific,3.2.4,Win32,60,5ec8f15fce3f413ef07d6cc5,,1,0,81,19,1,80
,,,,,,,,,,,,,,,,,,,,,,,,,,,,,,,,,,,,,,,,,a,4.446000099,HA,FALSE,,,,,,,124,cirera,Catalan,Sounds/cat_cirera.mp3,2020-06-08_18h12.41.245,TranslationElicitation_eng-prolific,3.2.4,Win32,60,5ec8f15fce3f413ef07d6cc5,,1,0,81,19,1,80
,,,,,,,,,,,,,,,,,,,,,,,,,,,,,,,,,,,,,,,,,t,4.613000154,HAT,FALSE,,,,,,,124,cirera,Catalan,Sounds/cat_cirera.mp3,2020-06-08_18h12.41.245,TranslationElicitation_eng-prolific,3.2.4,Win32,60,5ec8f15fce3f413ef07d6cc5,,1,0,81,19,1,80
,,,,,,,,,,,,,,,,,,,,,,,,,,,,,,,,,,,,,,,,,return,7.062000036,HAT,FALSE,,,,,,,124,cirera,Catalan,Sounds/cat_cirera.mp3,2020-06-08_18h12.41.245,TranslationElicitation_eng-prolific,3.2.4,Win32,60,5ec8f15fce3f413ef07d6cc5,7.062000036,1,0,81,19,1,80
,,,,,,,,,,,,,,,,,,,,,,,,,,,,,,,,,,,,,,,,,,,,,,,,,,,124,cirera,Catalan,Sounds/cat_cirera.mp3,2020-06-08_18h12.41.245,TranslationElicitation_eng-prolific,3.2.4,Win32,60,5ec8f15fce3f413ef07d6cc5,,1,0,81,19,1,80
,,,,,,,,,,,,,,,,,,,,,,,,,,,,,,,,,,,,,,,,,g,2.900000095,G,FALSE,,,,,,,145,got,Catalan,Sounds/cat_got.mp3,2020-06-08_18h12.41.245,TranslationElicitation_eng-prolific,3.2.4,Win32,60,5ec8f15fce3f413ef07d6cc5,,1,0,81,39,1,80
,,,,,,,,,,,,,,,,,,,,,,,,,,,,,,,,,,,,,,,,,o,3.015000105,GO,FALSE,,,,,,,145,got,Catalan,Sounds/cat_got.mp3,2020-06-08_18h12.41.245,TranslationElicitation_eng-prolific,3.2.4,Win32,60,5ec8f15fce3f413ef07d6cc5,,1,0,81,39,1,80
,,,,,,,,,,,,,,,,,,,,,,,,,,,,,,,,,,,,,,,,,d,3.381999969,GOD,FALSE,,,,,,,145,got,Catalan,Sounds/cat_got.mp3,2020-06-08_18h12.41.245,TranslationElicitation_eng-prolific,3.2.4,Win32,60,5ec8f15fce3f413ef07d6cc5,,1,0,81,39,1,80
,,,,,,,,,,,,,,,,,,,,,,,,,,,,,,,,,,,,,,,,,return,4.46600008,GOD,FALSE,,,,,,,145,got,Catalan,Sounds/cat_got.mp3,2020-06-08_18h12.41.245,TranslationElicitation_eng-prolific,3.2.4,Win32,60,5ec8f15fce3f413ef07d6cc5,4.46600008,1,0,81,39,1,80
,,,,,,,,,,,,,,,,,,,,,,,,,,,,,,,,,,,,,,,,,,,,,,,,,,,145,got,Catalan,Sounds/cat_got.mp3,2020-06-08_18h12.41.245,TranslationElicitation_eng-prolific,3.2.4,Win32,60,5ec8f15fce3f413ef07d6cc5,,1,0,81,39,1,80
,,,,,,,,,,,,,,,,,,,,,,,,,,,,,,,,,,,,,,,,,h,4.247999907,H,FALSE,,,,,,,121,camisa,Catalan,Sounds/cat_camisa.mp3,2020-06-08_18h12.41.245,TranslationElicitation_eng-prolific,3.2.4,Win32,60,5ec8f15fce3f413ef07d6cc5,,1,0,81,16,1,80
,,,,,,,,,,,,,,,,,,,,,,,,,,,,,,,,,,,,,,,,,o,4.563999891,HO,FALSE,,,,,,,121,camisa,Catalan,Sounds/cat_camisa.mp3,2020-06-08_18h12.41.245,TranslationElicitation_eng-prolific,3.2.4,Win32,60,5ec8f15fce3f413ef07d6cc5,,1,0,81,16,1,80
,,,,,,,,,,,,,,,,,,,,,,,,,,,,,,,,,,,,,,,,,u,4.763999939,HOU,FALSE,,,,,,,121,camisa,Catalan,Sounds/cat_camisa.mp3,2020-06-08_18h12.41.245,TranslationElicitation_eng-prolific,3.2.4,Win32,60,5ec8f15fce3f413ef07d6cc5,,1,0,81,16,1,80
,,,,,,,,,,,,,,,,,,,,,,,,,,,,,,,,,,,,,,,,,s,4.898000002,HOUS,FALSE,,,,,,,121,camisa,Catalan,Sounds/cat_camisa.mp3,2020-06-08_18h12.41.245,TranslationElicitation_eng-prolific,3.2.4,Win32,60,5ec8f15fce3f413ef07d6cc5,,1,0,81,16,1,80
,,,,,,,,,,,,,,,,,,,,,,,,,,,,,,,,,,,,,,,,,e,5.680999994,HOUSE,FALSE,,,,,,,121,camisa,Catalan,Sounds/cat_camisa.mp3,2020-06-08_18h12.41.245,TranslationElicitation_eng-prolific,3.2.4,Win32,60,5ec8f15fce3f413ef07d6cc5,,1,0,81,16,1,80
,,,,,,,,,,,,,,,,,,,,,,,,,,,,,,,,,,,,,,,,,return,6.546999931,HOUSE,FALSE,,,,,,,121,camisa,Catalan,Sounds/cat_camisa.mp3,2020-06-08_18h12.41.245,TranslationElicitation_eng-prolific,3.2.4,Win32,60,5ec8f15fce3f413ef07d6cc5,6.546999931,1,0,81,16,1,80
,,,,,,,,,,,,,,,,,,,,,,,,,,,,,,,,,,,,,,,,,,,,,,,,,,,121,camisa,Catalan,Sounds/cat_camisa.mp3,2020-06-08_18h12.41.245,TranslationElicitation_eng-prolific,3.2.4,Win32,60,5ec8f15fce3f413ef07d6cc5,,1,0,81,16,1,80
,,,,,,,,,,,,,,,,,,,,,,,,,,,,,,,,,,,,,,,,,c,2.6650002,C,FALSE,,,,,,,122,casa,Catalan,Sounds/cat_casa.mp3,2020-06-08_18h12.41.245,TranslationElicitation_eng-prolific,3.2.4,Win32,60,5ec8f15fce3f413ef07d6cc5,,1,0,81,17,1,80
,,,,,,,,,,,,,,,,,,,,,,,,,,,,,,,,,,,,,,,,,a,2.882000208,CA,FALSE,,,,,,,122,casa,Catalan,Sounds/cat_casa.mp3,2020-06-08_18h12.41.245,TranslationElicitation_eng-prolific,3.2.4,Win32,60,5ec8f15fce3f413ef07d6cc5,,1,0,81,17,1,80
,,,,,,,,,,,,,,,,,,,,,,,,,,,,,,,,,,,,,,,,,r,3.198000193,CAR,FALSE,,,,,,,122,casa,Catalan,Sounds/cat_casa.mp3,2020-06-08_18h12.41.245,TranslationElicitation_eng-prolific,3.2.4,Win32,60,5ec8f15fce3f413ef07d6cc5,,1,0,81,17,1,80
,,,,,,,,,,,,,,,,,,,,,,,,,,,,,,,,,,,,,,,,,return,3.931000233,CAR,FALSE,,,,,,,122,casa,Catalan,Sounds/cat_casa.mp3,2020-06-08_18h12.41.245,TranslationElicitation_eng-prolific,3.2.4,Win32,60,5ec8f15fce3f413ef07d6cc5,3.931000233,1,0,81,17,1,80
,,,,,,,,,,,,,,,,,,,,,,,,,,,,,,,,,,,,,,,,,,,,,,,,,,,122,casa,Catalan,Sounds/cat_casa.mp3,2020-06-08_18h12.41.245,TranslationElicitation_eng-prolific,3.2.4,Win32,60,5ec8f15fce3f413ef07d6cc5,,1,0,81,17,1,80
,,,,,,,,,,,,,,,,,,,,,,,,,,,,,,,,,,,,,,,,,p,5.364999771,P,FALSE,,,,,,,172,poma,Catalan,Sounds/cat_poma.mp3,2020-06-08_18h12.41.245,TranslationElicitation_eng-prolific,3.2.4,Win32,60,5ec8f15fce3f413ef07d6cc5,,1,0,81,64,1,80
,,,,,,,,,,,,,,,,,,,,,,,,,,,,,,,,,,,,,,,,,e,5.464999914,PE,FALSE,,,,,,,172,poma,Catalan,Sounds/cat_poma.mp3,2020-06-08_18h12.41.245,TranslationElicitation_eng-prolific,3.2.4,Win32,60,5ec8f15fce3f413ef07d6cc5,,1,0,81,64,1,80
,,,,,,,,,,,,,,,,,,,,,,,,,,,,,,,,,,,,,,,,,r,5.597999811,PER,FALSE,,,,,,,172,poma,Catalan,Sounds/cat_poma.mp3,2020-06-08_18h12.41.245,TranslationElicitation_eng-prolific,3.2.4,Win32,60,5ec8f15fce3f413ef07d6cc5,,1,0,81,64,1,80
,,,,,,,,,,,,,,,,,,,,,,,,,,,,,,,,,,,,,,,,,s,5.847999811,PERS,FALSE,,,,,,,172,poma,Catalan,Sounds/cat_poma.mp3,2020-06-08_18h12.41.245,TranslationElicitation_eng-prolific,3.2.4,Win32,60,5ec8f15fce3f413ef07d6cc5,,1,0,81,64,1,80
,,,,,,,,,,,,,,,,,,,,,,,,,,,,,,,,,,,,,,,,,o,6.413999796,PERSO,FALSE,,,,,,,172,poma,Catalan,Sounds/cat_poma.mp3,2020-06-08_18h12.41.245,TranslationElicitation_eng-prolific,3.2.4,Win32,60,5ec8f15fce3f413ef07d6cc5,,1,0,81,64,1,80
,,,,,,,,,,,,,,,,,,,,,,,,,,,,,,,,,,,,,,,,,n,6.697999954,PERSON,FALSE,,,,,,,172,poma,Catalan,Sounds/cat_poma.mp3,2020-06-08_18h12.41.245,TranslationElicitation_eng-prolific,3.2.4,Win32,60,5ec8f15fce3f413ef07d6cc5,,1,0,81,64,1,80
,,,,,,,,,,,,,,,,,,,,,,,,,,,,,,,,,,,,,,,,,return,7.547999859,PERSON,FALSE,,,,,,,172,poma,Catalan,Sounds/cat_poma.mp3,2020-06-08_18h12.41.245,TranslationElicitation_eng-prolific,3.2.4,Win32,60,5ec8f15fce3f413ef07d6cc5,7.547999859,1,0,81,64,1,80
,,,,,,,,,,,,,,,,,,,,,,,,,,,,,,,,,,,,,,,,,,,,,,,,,,,172,poma,Catalan,Sounds/cat_poma.mp3,2020-06-08_18h12.41.245,TranslationElicitation_eng-prolific,3.2.4,Win32,60,5ec8f15fce3f413ef07d6cc5,,1,0,81,64,1,80
,,,,,,,,,,,,,,,,,,,,,,,,,,,,,,,,,,,,,,,,,b,3.514000177,B,FALSE,,,,,,,112,bici,Catalan,Sounds/cat_bici.mp3,2020-06-08_18h12.41.245,TranslationElicitation_eng-prolific,3.2.4,Win32,60,5ec8f15fce3f413ef07d6cc5,,1,0,81,7,1,80
,,,,,,,,,,,,,,,,,,,,,,,,,,,,,,,,,,,,,,,,,i,4.113000154,BI,FALSE,,,,,,,112,bici,Catalan,Sounds/cat_bici.mp3,2020-06-08_18h12.41.245,TranslationElicitation_eng-prolific,3.2.4,Win32,60,5ec8f15fce3f413ef07d6cc5,,1,0,81,7,1,80
,,,,,,,,,,,,,,,,,,,,,,,,,,,,,,,,,,,,,,,,,k,4.480000019,BIK,FALSE,,,,,,,112,bici,Catalan,Sounds/cat_bici.mp3,2020-06-08_18h12.41.245,TranslationElicitation_eng-prolific,3.2.4,Win32,60,5ec8f15fce3f413ef07d6cc5,,1,0,81,7,1,80
,,,,,,,,,,,,,,,,,,,,,,,,,,,,,,,,,,,,,,,,,e,4.670000076,BIKE,FALSE,,,,,,,112,bici,Catalan,Sounds/cat_bici.mp3,2020-06-08_18h12.41.245,TranslationElicitation_eng-prolific,3.2.4,Win32,60,5ec8f15fce3f413ef07d6cc5,,1,0,81,7,1,80
,,,,,,,,,,,,,,,,,,,,,,,,,,,,,,,,,,,,,,,,,return,5.013000011,BIKE,FALSE,,,,,,,112,bici,Catalan,Sounds/cat_bici.mp3,2020-06-08_18h12.41.245,TranslationElicitation_eng-prolific,3.2.4,Win32,60,5ec8f15fce3f413ef07d6cc5,5.013000011,1,0,81,7,1,80
,,,,,,,,,,,,,,,,,,,,,,,,,,,,,,,,,,,,,,,,,,,,,,,,,,,112,bici,Catalan,Sounds/cat_bici.mp3,2020-06-08_18h12.41.245,TranslationElicitation_eng-prolific,3.2.4,Win32,60,5ec8f15fce3f413ef07d6cc5,,1,0,81,7,1,80
,,,,,,,,,,,,,,,,,,,,,,,,,,,,,,,,,,,,,,,,,p,5.381999969,P,FALSE,,,,,,,153,mico,Catalan,Sounds/cat_mico.mp3,2020-06-08_18h12.41.245,TranslationElicitation_eng-prolific,3.2.4,Win32,60,5ec8f15fce3f413ef07d6cc5,,1,0,81,46,1,80
,,,,,,,,,,,,,,,,,,,,,,,,,,,,,,,,,,,,,,,,,e,5.565000057,PE,FALSE,,,,,,,153,mico,Catalan,Sounds/cat_mico.mp3,2020-06-08_18h12.41.245,TranslationElicitation_eng-prolific,3.2.4,Win32,60,5ec8f15fce3f413ef07d6cc5,,1,0,81,46,1,80
,,,,,,,,,,,,,,,,,,,,,,,,,,,,,,,,,,,,,,,,,t,5.765000105,PET,FALSE,,,,,,,153,mico,Catalan,Sounds/cat_mico.mp3,2020-06-08_18h12.41.245,TranslationElicitation_eng-prolific,3.2.4,Win32,60,5ec8f15fce3f413ef07d6cc5,,1,0,81,46,1,80
,,,,,,,,,,,,,,,,,,,,,,,,,,,,,,,,,,,,,,,,,return,6.09800005,PET,FALSE,,,,,,,153,mico,Catalan,Sounds/cat_mico.mp3,2020-06-08_18h12.41.245,TranslationElicitation_eng-prolific,3.2.4,Win32,60,5ec8f15fce3f413ef07d6cc5,6.09800005,1,0,81,46,1,80
,,,,,,,,,,,,,,,,,,,,,,,,,,,,,,,,,,,,,,,,,,,,,,,,,,,153,mico,Catalan,Sounds/cat_mico.mp3,2020-06-08_18h12.41.245,TranslationElicitation_eng-prolific,3.2.4,Win32,60,5ec8f15fce3f413ef07d6cc5,,1,0,81,46,1,80
,,,,,,,,,,,,,,,,,,,,,,,,,,,,,,,,,,,,,,,,,w,4.315000057,W,FALSE,,,,,,,174,porta,Catalan,Sounds/cat_porta.mp3,2020-06-08_18h12.41.245,TranslationElicitation_eng-prolific,3.2.4,Win32,60,5ec8f15fce3f413ef07d6cc5,,1,0,81,66,1,80
,,,,,,,,,,,,,,,,,,,,,,,,,,,,,,,,,,,,,,,,,i,4.398000002,WI,FALSE,,,,,,,174,porta,Catalan,Sounds/cat_porta.mp3,2020-06-08_18h12.41.245,TranslationElicitation_eng-prolific,3.2.4,Win32,60,5ec8f15fce3f413ef07d6cc5,,1,0,81,66,1,80
,,,,,,,,,,,,,,,,,,,,,,,,,,,,,,,,,,,,,,,,,n,4.565000057,WIN,FALSE,,,,,,,174,porta,Catalan,Sounds/cat_porta.mp3,2020-06-08_18h12.41.245,TranslationElicitation_eng-prolific,3.2.4,Win32,60,5ec8f15fce3f413ef07d6cc5,,1,0,81,66,1,80
,,,,,,,,,,,,,,,,,,,,,,,,,,,,,,,,,,,,,,,,,e,4.747000217,WINE,FALSE,,,,,,,174,porta,Catalan,Sounds/cat_porta.mp3,2020-06-08_18h12.41.245,TranslationElicitation_eng-prolific,3.2.4,Win32,60,5ec8f15fce3f413ef07d6cc5,,1,0,81,66,1,80
,,,,,,,,,,,,,,,,,,,,,,,,,,,,,,,,,,,,,,,,,return,5.514000177,WINE,FALSE,,,,,,,174,porta,Catalan,Sounds/cat_porta.mp3,2020-06-08_18h12.41.245,TranslationElicitation_eng-prolific,3.2.4,Win32,60,5ec8f15fce3f413ef07d6cc5,5.514000177,1,0,81,66,1,80
,,,,,,,,,,,,,,,,,,,,,,,,,,,,,,,,,,,,,,,,,,,,,,,,,,,174,porta,Catalan,Sounds/cat_porta.mp3,2020-06-08_18h12.41.245,TranslationElicitation_eng-prolific,3.2.4,Win32,60,5ec8f15fce3f413ef07d6cc5,,1,0,81,66,1,80
,,,,,,,,,,,,,,,,,,,,,,,,,,,,,,,,,,,,,,,,,i,2.016000032,I,FALSE,,,,,,,130,entrepa,Catalan,Sounds/cat_entrepa.mp3,2020-06-08_18h12.41.245,TranslationElicitation_eng-prolific,3.2.4,Win32,60,5ec8f15fce3f413ef07d6cc5,,1,0,81,24,1,80
,,,,,,,,,,,,,,,,,,,,,,,,,,,,,,,,,,,,,,,,,n,2.198999882,IN,FALSE,,,,,,,130,entrepa,Catalan,Sounds/cat_entrepa.mp3,2020-06-08_18h12.41.245,TranslationElicitation_eng-prolific,3.2.4,Win32,60,5ec8f15fce3f413ef07d6cc5,,1,0,81,24,1,80
,,,,,,,,,,,,,,,,,,,,,,,,,,,,,,,,,,,,,,,,,t,2.281999826,INT,FALSE,,,,,,,130,entrepa,Catalan,Sounds/cat_entrepa.mp3,2020-06-08_18h12.41.245,TranslationElicitation_eng-prolific,3.2.4,Win32,60,5ec8f15fce3f413ef07d6cc5,,1,0,81,24,1,80
,,,,,,,,,,,,,,,,,,,,,,,,,,,,,,,,,,,,,,,,,e,2.467000008,INTE,FALSE,,,,,,,130,entrepa,Catalan,Sounds/cat_entrepa.mp3,2020-06-08_18h12.41.245,TranslationElicitation_eng-prolific,3.2.4,Win32,60,5ec8f15fce3f413ef07d6cc5,,1,0,81,24,1,80
,,,,,,,,,,,,,,,,,,,,,,,,,,,,,,,,,,,,,,,,,r,2.981999874,INTER,FALSE,,,,,,,130,entrepa,Catalan,Sounds/cat_entrepa.mp3,2020-06-08_18h12.41.245,TranslationElicitation_eng-prolific,3.2.4,Win32,60,5ec8f15fce3f413ef07d6cc5,,1,0,81,24,1,80
,,,,,,,,,,,,,,,,,,,,,,,,,,,,,,,,,,,,,,,,,p,4.214999914,INTERP,FALSE,,,,,,,130,entrepa,Catalan,Sounds/cat_entrepa.mp3,2020-06-08_18h12.41.245,TranslationElicitation_eng-prolific,3.2.4,Win32,60,5ec8f15fce3f413ef07d6cc5,,1,0,81,24,1,80
,,,,,,,,,,,,,,,,,,,,,,,,,,,,,,,,,,,,,,,,,r,4.36500001,INTERPR,FALSE,,,,,,,130,entrepa,Catalan,Sounds/cat_entrepa.mp3,2020-06-08_18h12.41.245,TranslationElicitation_eng-prolific,3.2.4,Win32,60,5ec8f15fce3f413ef07d6cc5,,1,0,81,24,1,80
,,,,,,,,,,,,,,,,,,,,,,,,,,,,,,,,,,,,,,,,,e,5.315999985,INTERPRE,FALSE,,,,,,,130,entrepa,Catalan,Sounds/cat_entrepa.mp3,2020-06-08_18h12.41.245,TranslationElicitation_eng-prolific,3.2.4,Win32,60,5ec8f15fce3f413ef07d6cc5,,1,0,81,24,1,80
,,,,,,,,,,,,,,,,,,,,,,,,,,,,,,,,,,,,,,,,,t,5.547999859,INTERPRET,FALSE,,,,,,,130,entrepa,Catalan,Sounds/cat_entrepa.mp3,2020-06-08_18h12.41.245,TranslationElicitation_eng-prolific,3.2.4,Win32,60,5ec8f15fce3f413ef07d6cc5,,1,0,81,24,1,80
,,,,,,,,,,,,,,,,,,,,,,,,,,,,,,,,,,,,,,,,,e,5.730999947,INTERPRETE,FALSE,,,,,,,130,entrepa,Catalan,Sounds/cat_entrepa.mp3,2020-06-08_18h12.41.245,TranslationElicitation_eng-prolific,3.2.4,Win32,60,5ec8f15fce3f413ef07d6cc5,,1,0,81,24,1,80
,,,,,,,,,,,,,,,,,,,,,,,,,,,,,,,,,,,,,,,,,r,5.782999992,INTERPRETER,FALSE,,,,,,,130,entrepa,Catalan,Sounds/cat_entrepa.mp3,2020-06-08_18h12.41.245,TranslationElicitation_eng-prolific,3.2.4,Win32,60,5ec8f15fce3f413ef07d6cc5,,1,0,81,24,1,80
,,,,,,,,,,,,,,,,,,,,,,,,,,,,,,,,,,,,,,,,,return,7.296999931,INTERPRETER,FALSE,,,,,,,130,entrepa,Catalan,Sounds/cat_entrepa.mp3,2020-06-08_18h12.41.245,TranslationElicitation_eng-prolific,3.2.4,Win32,60,5ec8f15fce3f413ef07d6cc5,7.296999931,1,0,81,24,1,80
,,,,,,,,,,,,,,,,,,,,,,,,,,,,,,,,,,,,,,,,,,,,,,,,,,,130,entrepa,Catalan,Sounds/cat_entrepa.mp3,2020-06-08_18h12.41.245,TranslationElicitation_eng-prolific,3.2.4,Win32,60,5ec8f15fce3f413ef07d6cc5,,1,0,81,24,1,80
,,,,,,,,,,,,,,,,,,,,,,,,,,,,,,,,,,,,,,,,,m,2.46600008,M,FALSE,,,,,,,152,ma,Catalan,Sounds/cat_ma.mp3,2020-06-08_18h12.41.245,TranslationElicitation_eng-prolific,3.2.4,Win32,60,5ec8f15fce3f413ef07d6cc5,,1,0,81,45,1,80
,,,,,,,,,,,,,,,,,,,,,,,,,,,,,,,,,,,,,,,,,o,2.648000002,MO,FALSE,,,,,,,152,ma,Catalan,Sounds/cat_ma.mp3,2020-06-08_18h12.41.245,TranslationElicitation_eng-prolific,3.2.4,Win32,60,5ec8f15fce3f413ef07d6cc5,,1,0,81,45,1,80
,,,,,,,,,,,,,,,,,,,,,,,,,,,,,,,,,,,,,,,,,t,2.782000065,MOT,FALSE,,,,,,,152,ma,Catalan,Sounds/cat_ma.mp3,2020-06-08_18h12.41.245,TranslationElicitation_eng-prolific,3.2.4,Win32,60,5ec8f15fce3f413ef07d6cc5,,1,0,81,45,1,80
,,,,,,,,,,,,,,,,,,,,,,,,,,,,,,,,,,,,,,,,,h,2.866000175,MOTH,FALSE,,,,,,,152,ma,Catalan,Sounds/cat_ma.mp3,2020-06-08_18h12.41.245,TranslationElicitation_eng-prolific,3.2.4,Win32,60,5ec8f15fce3f413ef07d6cc5,,1,0,81,45,1,80
,,,,,,,,,,,,,,,,,,,,,,,,,,,,,,,,,,,,,,,,,e,2.998000145,MOTHE,FALSE,,,,,,,152,ma,Catalan,Sounds/cat_ma.mp3,2020-06-08_18h12.41.245,TranslationElicitation_eng-prolific,3.2.4,Win32,60,5ec8f15fce3f413ef07d6cc5,,1,0,81,45,1,80
,,,,,,,,,,,,,,,,,,,,,,,,,,,,,,,,,,,,,,,,,r,3.482000113,MOTHER,FALSE,,,,,,,152,ma,Catalan,Sounds/cat_ma.mp3,2020-06-08_18h12.41.245,TranslationElicitation_eng-prolific,3.2.4,Win32,60,5ec8f15fce3f413ef07d6cc5,,1,0,81,45,1,80
,,,,,,,,,,,,,,,,,,,,,,,,,,,,,,,,,,,,,,,,,return,3.86500001,MOTHER,FALSE,,,,,,,152,ma,Catalan,Sounds/cat_ma.mp3,2020-06-08_18h12.41.245,TranslationElicitation_eng-prolific,3.2.4,Win32,60,5ec8f15fce3f413ef07d6cc5,3.86500001,1,0,81,45,1,80
,,,,,,,,,,,,,,,,,,,,,,,,,,,,,,,,,,,,,,,,,,,,,,,,,,,152,ma,Catalan,Sounds/cat_ma.mp3,2020-06-08_18h12.41.245,TranslationElicitation_eng-prolific,3.2.4,Win32,60,5ec8f15fce3f413ef07d6cc5,,1,0,81,45,1,80
,,,,,,,,,,,,,,,,,,,,,,,,,,,,,,,,,,,,,,,,,b,4.248000145,B,FALSE,,,,,,,144,gorra,Catalan,Sounds/cat_gorra.mp3,2020-06-08_18h12.41.245,TranslationElicitation_eng-prolific,3.2.4,Win32,60,5ec8f15fce3f413ef07d6cc5,,1,0,81,38,1,80
,,,,,,,,,,,,,,,,,,,,,,,,,,,,,,,,,,,,,,,,,l,4.33100009,BL,FALSE,,,,,,,144,gorra,Catalan,Sounds/cat_gorra.mp3,2020-06-08_18h12.41.245,TranslationElicitation_eng-prolific,3.2.4,Win32,60,5ec8f15fce3f413ef07d6cc5,,1,0,81,38,1,80
,,,,,,,,,,,,,,,,,,,,,,,,,,,,,,,,,,,,,,,,,o,4.531000137,BLO,FALSE,,,,,,,144,gorra,Catalan,Sounds/cat_gorra.mp3,2020-06-08_18h12.41.245,TranslationElicitation_eng-prolific,3.2.4,Win32,60,5ec8f15fce3f413ef07d6cc5,,1,0,81,38,1,80
,,,,,,,,,,,,,,,,,,,,,,,,,,,,,,,,,,,,,,,,,o,4.647000074,BLOO,FALSE,,,,,,,144,gorra,Catalan,Sounds/cat_gorra.mp3,2020-06-08_18h12.41.245,TranslationElicitation_eng-prolific,3.2.4,Win32,60,5ec8f15fce3f413ef07d6cc5,,1,0,81,38,1,80
,,,,,,,,,,,,,,,,,,,,,,,,,,,,,,,,,,,,,,,,,d,4.83100009,BLOOD,FALSE,,,,,,,144,gorra,Catalan,Sounds/cat_gorra.mp3,2020-06-08_18h12.41.245,TranslationElicitation_eng-prolific,3.2.4,Win32,60,5ec8f15fce3f413ef07d6cc5,,1,0,81,38,1,80
,,,,,,,,,,,,,,,,,,,,,,,,,,,,,,,,,,,,,,,,,return,5.197999954,BLOOD,FALSE,,,,,,,144,gorra,Catalan,Sounds/cat_gorra.mp3,2020-06-08_18h12.41.245,TranslationElicitation_eng-prolific,3.2.4,Win32,60,5ec8f15fce3f413ef07d6cc5,5.197999954,1,0,81,38,1,80
,,,,,,,,,,,,,,,,,,,,,,,,,,,,,,,,,,,,,,,,,,,,,,,,,,,144,gorra,Catalan,Sounds/cat_gorra.mp3,2020-06-08_18h12.41.245,TranslationElicitation_eng-prolific,3.2.4,Win32,60,5ec8f15fce3f413ef07d6cc5,,1,0,81,38,1,80
,,,,,,,,,,,,,,,,,,,,,,,,,,,,,,,,,,,,,,,,,b,3.515000105,B,FALSE,,,,,,,111,bibero,Catalan,Sounds/cat_bibero.mp3,2020-06-08_18h12.41.245,TranslationElicitation_eng-prolific,3.2.4,Win32,60,5ec8f15fce3f413ef07d6cc5,,1,0,81,6,1,80
,,,,,,,,,,,,,,,,,,,,,,,,,,,,,,,,,,,,,,,,,e,3.61500001,BE,FALSE,,,,,,,111,bibero,Catalan,Sounds/cat_bibero.mp3,2020-06-08_18h12.41.245,TranslationElicitation_eng-prolific,3.2.4,Win32,60,5ec8f15fce3f413ef07d6cc5,,1,0,81,6,1,80
,,,,,,,,,,,,,,,,,,,,,,,,,,,,,,,,,,,,,,,,,a,3.815000057,BEA,FALSE,,,,,,,111,bibero,Catalan,Sounds/cat_bibero.mp3,2020-06-08_18h12.41.245,TranslationElicitation_eng-prolific,3.2.4,Win32,60,5ec8f15fce3f413ef07d6cc5,,1,0,81,6,1,80
,,,,,,,,,,,,,,,,,,,,,,,,,,,,,,,,,,,,,,,,,v,3.9150002,BEAV,FALSE,,,,,,,111,bibero,Catalan,Sounds/cat_bibero.mp3,2020-06-08_18h12.41.245,TranslationElicitation_eng-prolific,3.2.4,Win32,60,5ec8f15fce3f413ef07d6cc5,,1,0,81,6,1,80
,,,,,,,,,,,,,,,,,,,,,,,,,,,,,,,,,,,,,,,,,e,4.065000057,BEAVE,FALSE,,,,,,,111,bibero,Catalan,Sounds/cat_bibero.mp3,2020-06-08_18h12.41.245,TranslationElicitation_eng-prolific,3.2.4,Win32,60,5ec8f15fce3f413ef07d6cc5,,1,0,81,6,1,80
,,,,,,,,,,,,,,,,,,,,,,,,,,,,,,,,,,,,,,,,,r,4.232000113,BEAVER,FALSE,,,,,,,111,bibero,Catalan,Sounds/cat_bibero.mp3,2020-06-08_18h12.41.245,TranslationElicitation_eng-prolific,3.2.4,Win32,60,5ec8f15fce3f413ef07d6cc5,,1,0,81,6,1,80
,,,,,,,,,,,,,,,,,,,,,,,,,,,,,,,,,,,,,,,,,return,4.881000042,BEAVER,FALSE,,,,,,,111,bibero,Catalan,Sounds/cat_bibero.mp3,2020-06-08_18h12.41.245,TranslationElicitation_eng-prolific,3.2.4,Win32,60,5ec8f15fce3f413ef07d6cc5,4.881000042,1,0,81,6,1,80
,,,,,,,,,,,,,,,,,,,,,,,,,,,,,,,,,,,,,,,,,,,,,,,,,,,111,bibero,Catalan,Sounds/cat_bibero.mp3,2020-06-08_18h12.41.245,TranslationElicitation_eng-prolific,3.2.4,Win32,60,5ec8f15fce3f413ef07d6cc5,,1,0,81,6,1,80
,,,,,,,,,,,,,,,,,,,,,,,,,,,,,,,,,,,,,,,,,b,2.400999784,B,FALSE,,,,,,,114,bol,Catalan,Sounds/cat_bol.mp3,2020-06-08_18h12.41.245,TranslationElicitation_eng-prolific,3.2.4,Win32,60,5ec8f15fce3f413ef07d6cc5,,1,0,81,9,1,80
,,,,,,,,,,,,,,,,,,,,,,,,,,,,,,,,,,,,,,,,,a,2.631999969,BA,FALSE,,,,,,,114,bol,Catalan,Sounds/cat_bol.mp3,2020-06-08_18h12.41.245,TranslationElicitation_eng-prolific,3.2.4,Win32,60,5ec8f15fce3f413ef07d6cc5,,1,0,81,9,1,80
,,,,,,,,,,,,,,,,,,,,,,,,,,,,,,,,,,,,,,,,,l,2.814999819,BAL,FALSE,,,,,,,114,bol,Catalan,Sounds/cat_bol.mp3,2020-06-08_18h12.41.245,TranslationElicitation_eng-prolific,3.2.4,Win32,60,5ec8f15fce3f413ef07d6cc5,,1,0,81,9,1,80
,,,,,,,,,,,,,,,,,,,,,,,,,,,,,,,,,,,,,,,,,l,2.948999882,BALL,FALSE,,,,,,,114,bol,Catalan,Sounds/cat_bol.mp3,2020-06-08_18h12.41.245,TranslationElicitation_eng-prolific,3.2.4,Win32,60,5ec8f15fce3f413ef07d6cc5,,1,0,81,9,1,80
,,,,,,,,,,,,,,,,,,,,,,,,,,,,,,,,,,,,,,,,,return,3.414999962,BALL,FALSE,,,,,,,114,bol,Catalan,Sounds/cat_bol.mp3,2020-06-08_18h12.41.245,TranslationElicitation_eng-prolific,3.2.4,Win32,60,5ec8f15fce3f413ef07d6cc5,3.414999962,1,0,81,9,1,80
,,,,,,,,,,,,,,,,,,,,,,,,,,,,,,,,,,,,,,,,,,,,,,,,,,,114,bol,Catalan,Sounds/cat_bol.mp3,2020-06-08_18h12.41.245,TranslationElicitation_eng-prolific,3.2.4,Win32,60,5ec8f15fce3f413ef07d6cc5,,1,0,81,9,1,80
,,,,,,,,,,,,,,,,,,,,,,,,,,,,,,,,,,,,,,,,,r,2.631999969,R,FALSE,,,,,,,175,raspall,Catalan,Sounds/cat_raspall.mp3,2020-06-08_18h12.41.245,TranslationElicitation_eng-prolific,3.2.4,Win32,60,5ec8f15fce3f413ef07d6cc5,,1,0,81,67,1,80
,,,,,,,,,,,,,,,,,,,,,,,,,,,,,,,,,,,,,,,,,e,2.797999859,RE,FALSE,,,,,,,175,raspall,Catalan,Sounds/cat_raspall.mp3,2020-06-08_18h12.41.245,TranslationElicitation_eng-prolific,3.2.4,Win32,60,5ec8f15fce3f413ef07d6cc5,,1,0,81,67,1,80
,,,,,,,,,,,,,,,,,,,,,,,,,,,,,,,,,,,,,,,,,c,3.031999826,REC,FALSE,,,,,,,175,raspall,Catalan,Sounds/cat_raspall.mp3,2020-06-08_18h12.41.245,TranslationElicitation_eng-prolific,3.2.4,Win32,60,5ec8f15fce3f413ef07d6cc5,,1,0,81,67,1,80
,,,,,,,,,,,,,,,,,,,,,,,,,,,,,,,,,,,,,,,,,i,3.164999962,RECI,FALSE,,,,,,,175,raspall,Catalan,Sounds/cat_raspall.mp3,2020-06-08_18h12.41.245,TranslationElicitation_eng-prolific,3.2.4,Win32,60,5ec8f15fce3f413ef07d6cc5,,1,0,81,67,1,80
,,,,,,,,,,,,,,,,,,,,,,,,,,,,,,,,,,,,,,,,,backspace,3.914999962,REC,TRUE,,,,,,,175,raspall,Catalan,Sounds/cat_raspall.mp3,2020-06-08_18h12.41.245,TranslationElicitation_eng-prolific,3.2.4,Win32,60,5ec8f15fce3f413ef07d6cc5,,1,0,81,67,1,80
,,,,,,,,,,,,,,,,,,,,,,,,,,,,,,,,,,,,,,,,,backspace,4.064999819,RE,TRUE,,,,,,,175,raspall,Catalan,Sounds/cat_raspall.mp3,2020-06-08_18h12.41.245,TranslationElicitation_eng-prolific,3.2.4,Win32,60,5ec8f15fce3f413ef07d6cc5,,1,0,81,67,1,80
,,,,,,,,,,,,,,,,,,,,,,,,,,,,,,,,,,,,,,,,,s,4.564999819,RES,TRUE,,,,,,,175,raspall,Catalan,Sounds/cat_raspall.mp3,2020-06-08_18h12.41.245,TranslationElicitation_eng-prolific,3.2.4,Win32,60,5ec8f15fce3f413ef07d6cc5,,1,0,81,67,1,80
,,,,,,,,,,,,,,,,,,,,,,,,,,,,,,,,,,,,,,,,,p,4.714999914,RESP,TRUE,,,,,,,175,raspall,Catalan,Sounds/cat_raspall.mp3,2020-06-08_18h12.41.245,TranslationElicitation_eng-prolific,3.2.4,Win32,60,5ec8f15fce3f413ef07d6cc5,,1,0,81,67,1,80
,,,,,,,,,,,,,,,,,,,,,,,,,,,,,,,,,,,,,,,,,o,4.914000034,RESPO,TRUE,,,,,,,175,raspall,Catalan,Sounds/cat_raspall.mp3,2020-06-08_18h12.41.245,TranslationElicitation_eng-prolific,3.2.4,Win32,60,5ec8f15fce3f413ef07d6cc5,,1,0,81,67,1,80
,,,,,,,,,,,,,,,,,,,,,,,,,,,,,,,,,,,,,,,,,n,5.396999836,RESPON,TRUE,,,,,,,175,raspall,Catalan,Sounds/cat_raspall.mp3,2020-06-08_18h12.41.245,TranslationElicitation_eng-prolific,3.2.4,Win32,60,5ec8f15fce3f413ef07d6cc5,,1,0,81,67,1,80
,,,,,,,,,,,,,,,,,,,,,,,,,,,,,,,,,,,,,,,,,s,6.763999939,RESPONS,TRUE,,,,,,,175,raspall,Catalan,Sounds/cat_raspall.mp3,2020-06-08_18h12.41.245,TranslationElicitation_eng-prolific,3.2.4,Win32,60,5ec8f15fce3f413ef07d6cc5,,1,0,81,67,1,80
,,,,,,,,,,,,,,,,,,,,,,,,,,,,,,,,,,,,,,,,,e,6.996999979,RESPONSE,TRUE,,,,,,,175,raspall,Catalan,Sounds/cat_raspall.mp3,2020-06-08_18h12.41.245,TranslationElicitation_eng-prolific,3.2.4,Win32,60,5ec8f15fce3f413ef07d6cc5,,1,0,81,67,1,80
,,,,,,,,,,,,,,,,,,,,,,,,,,,,,,,,,,,,,,,,,return,7.313999891,RESPONSE,TRUE,,,,,,,175,raspall,Catalan,Sounds/cat_raspall.mp3,2020-06-08_18h12.41.245,TranslationElicitation_eng-prolific,3.2.4,Win32,60,5ec8f15fce3f413ef07d6cc5,7.313999891,1,0,81,67,1,80
,,,,,,,,,,,,,,,,,,,,,,,,,,,,,,,,,,,,,,,,,,,,,,,,,,,175,raspall,Catalan,Sounds/cat_raspall.mp3,2020-06-08_18h12.41.245,TranslationElicitation_eng-prolific,3.2.4,Win32,60,5ec8f15fce3f413ef07d6cc5,,1,0,81,67,1,80
,,,,,,,,,,,,,,,,,,,,,,,,,,,,,,,,,,,,,,,,,b,2.414999962,B,FALSE,,,,,,,110,berenar,Catalan,Sounds/cat_berenar.mp3,2020-06-08_18h12.41.245,TranslationElicitation_eng-prolific,3.2.4,Win32,60,5ec8f15fce3f413ef07d6cc5,,1,0,81,5,1,80
,,,,,,,,,,,,,,,,,,,,,,,,,,,,,,,,,,,,,,,,,a,2.59800005,BA,FALSE,,,,,,,110,berenar,Catalan,Sounds/cat_berenar.mp3,2020-06-08_18h12.41.245,TranslationElicitation_eng-prolific,3.2.4,Win32,60,5ec8f15fce3f413ef07d6cc5,,1,0,81,5,1,80
,,,,,,,,,,,,,,,,,,,,,,,,,,,,,,,,,,,,,,,,,n,2.748000145,BAN,FALSE,,,,,,,110,berenar,Catalan,Sounds/cat_berenar.mp3,2020-06-08_18h12.41.245,TranslationElicitation_eng-prolific,3.2.4,Win32,60,5ec8f15fce3f413ef07d6cc5,,1,0,81,5,1,80
,,,,,,,,,,,,,,,,,,,,,,,,,,,,,,,,,,,,,,,,,a,2.914999962,BANA,FALSE,,,,,,,110,berenar,Catalan,Sounds/cat_berenar.mp3,2020-06-08_18h12.41.245,TranslationElicitation_eng-prolific,3.2.4,Win32,60,5ec8f15fce3f413ef07d6cc5,,1,0,81,5,1,80
,,,,,,,,,,,,,,,,,,,,,,,,,,,,,,,,,,,,,,,,,n,3.33100009,BANAN,FALSE,,,,,,,110,berenar,Catalan,Sounds/cat_berenar.mp3,2020-06-08_18h12.41.245,TranslationElicitation_eng-prolific,3.2.4,Win32,60,5ec8f15fce3f413ef07d6cc5,,1,0,81,5,1,80
,,,,,,,,,,,,,,,,,,,,,,,,,,,,,,,,,,,,,,,,,a,3.565000057,BANANA,FALSE,,,,,,,110,berenar,Catalan,Sounds/cat_berenar.mp3,2020-06-08_18h12.41.245,TranslationElicitation_eng-prolific,3.2.4,Win32,60,5ec8f15fce3f413ef07d6cc5,,1,0,81,5,1,80
,,,,,,,,,,,,,,,,,,,,,,,,,,,,,,,,,,,,,,,,,return,4.09800005,BANANA,FALSE,,,,,,,110,berenar,Catalan,Sounds/cat_berenar.mp3,2020-06-08_18h12.41.245,TranslationElicitation_eng-prolific,3.2.4,Win32,60,5ec8f15fce3f413ef07d6cc5,4.09800005,1,0,81,5,1,80
,,,,,,,,,,,,,,,,,,,,,,,,,,,,,,,,,,,,,,,,,,,,,,,,,,,110,berenar,Catalan,Sounds/cat_berenar.mp3,2020-06-08_18h12.41.245,TranslationElicitation_eng-prolific,3.2.4,Win32,60,5ec8f15fce3f413ef07d6cc5,,1,0,81,5,1,80
,,,,,,,,,,,,,,,,,,,,,,,,,,,,,,,,,,,,,,,,,g,1.582999945,G,FALSE,,,,,,,146,guitarra,Catalan,Sounds/cat_guitarra.mp3,2020-06-08_18h12.41.245,TranslationElicitation_eng-prolific,3.2.4,Win32,60,5ec8f15fce3f413ef07d6cc5,,1,0,81,40,1,80
,,,,,,,,,,,,,,,,,,,,,,,,,,,,,,,,,,,,,,,,,u,1.717999935,GU,FALSE,,,,,,,146,guitarra,Catalan,Sounds/cat_guitarra.mp3,2020-06-08_18h12.41.245,TranslationElicitation_eng-prolific,3.2.4,Win32,60,5ec8f15fce3f413ef07d6cc5,,1,0,81,40,1,80
,,,,,,,,,,,,,,,,,,,,,,,,,,,,,,,,,,,,,,,,,i,1.865999937,GUI,FALSE,,,,,,,146,guitarra,Catalan,Sounds/cat_guitarra.mp3,2020-06-08_18h12.41.245,TranslationElicitation_eng-prolific,3.2.4,Win32,60,5ec8f15fce3f413ef07d6cc5,,1,0,81,40,1,80
,,,,,,,,,,,,,,,,,,,,,,,,,,,,,,,,,,,,,,,,,t,2.049000025,GUIT,FALSE,,,,,,,146,guitarra,Catalan,Sounds/cat_guitarra.mp3,2020-06-08_18h12.41.245,TranslationElicitation_eng-prolific,3.2.4,Win32,60,5ec8f15fce3f413ef07d6cc5,,1,0,81,40,1,80
,,,,,,,,,,,,,,,,,,,,,,,,,,,,,,,,,,,,,,,,,a,2.625,GUITA,FALSE,,,,,,,146,guitarra,Catalan,Sounds/cat_guitarra.mp3,2020-06-08_18h12.41.245,TranslationElicitation_eng-prolific,3.2.4,Win32,60,5ec8f15fce3f413ef07d6cc5,,1,0,81,40,1,80
,,,,,,,,,,,,,,,,,,,,,,,,,,,,,,,,,,,,,,,,,r,2.832000017,GUITAR,FALSE,,,,,,,146,guitarra,Catalan,Sounds/cat_guitarra.mp3,2020-06-08_18h12.41.245,TranslationElicitation_eng-prolific,3.2.4,Win32,60,5ec8f15fce3f413ef07d6cc5,,1,0,81,40,1,80
,,,,,,,,,,,,,,,,,,,,,,,,,,,,,,,,,,,,,,,,,return,3.098999977,GUITAR,FALSE,,,,,,,146,guitarra,Catalan,Sounds/cat_guitarra.mp3,2020-06-08_18h12.41.245,TranslationElicitation_eng-prolific,3.2.4,Win32,60,5ec8f15fce3f413ef07d6cc5,3.098999977,1,0,81,40,1,80
,,,,,,,,,,,,,,,,,,,,,,,,,,,,,,,,,,,,,,,,,,,,,,,,,,,146,guitarra,Catalan,Sounds/cat_guitarra.mp3,2020-06-08_18h12.41.245,TranslationElicitation_eng-prolific,3.2.4,Win32,60,5ec8f15fce3f413ef07d6cc5,,1,0,81,40,1,80
,,,,,,,,,,,,,,,,,,,,,,,,,,,,,,,,,,,,,,,,,c,4.26699996,C,FALSE,,,,,,,184,ull,Catalan,Sounds/cat_ull.mp3,2020-06-08_18h12.41.245,TranslationElicitation_eng-prolific,3.2.4,Win32,60,5ec8f15fce3f413ef07d6cc5,,1,0,81,75,1,80
,,,,,,,,,,,,,,,,,,,,,,,,,,,,,,,,,,,,,,,,,o,4.398999929,CO,FALSE,,,,,,,184,ull,Catalan,Sounds/cat_ull.mp3,2020-06-08_18h12.41.245,TranslationElicitation_eng-prolific,3.2.4,Win32,60,5ec8f15fce3f413ef07d6cc5,,1,0,81,75,1,80
,,,,,,,,,,,,,,,,,,,,,,,,,,,,,,,,,,,,,,,,,i,4.582000017,COI,FALSE,,,,,,,184,ull,Catalan,Sounds/cat_ull.mp3,2020-06-08_18h12.41.245,TranslationElicitation_eng-prolific,3.2.4,Win32,60,5ec8f15fce3f413ef07d6cc5,,1,0,81,75,1,80
,,,,,,,,,,,,,,,,,,,,,,,,,,,,,,,,,,,,,,,,,n,4.782000065,COIN,FALSE,,,,,,,184,ull,Catalan,Sounds/cat_ull.mp3,2020-06-08_18h12.41.245,TranslationElicitation_eng-prolific,3.2.4,Win32,60,5ec8f15fce3f413ef07d6cc5,,1,0,81,75,1,80
,,,,,,,,,,,,,,,,,,,,,,,,,,,,,,,,,,,,,,,,,return,5.263999939,COIN,FALSE,,,,,,,184,ull,Catalan,Sounds/cat_ull.mp3,2020-06-08_18h12.41.245,TranslationElicitation_eng-prolific,3.2.4,Win32,60,5ec8f15fce3f413ef07d6cc5,5.263999939,1,0,81,75,1,80
,,,,,,,,,,,,,,,,,,,,,,,,,,,,,,,,,,,,,,,,,,,,,,,,,,,184,ull,Catalan,Sounds/cat_ull.mp3,2020-06-08_18h12.41.245,TranslationElicitation_eng-prolific,3.2.4,Win32,60,5ec8f15fce3f413ef07d6cc5,,1,0,81,75,1,80
,,,,,,,,,,,,,,,,,,,,,,,,,,,,,,,,,,,,,,,,,b,7.063999891,B,FALSE,,,,,,,160,orella,Catalan,Sounds/cat_orella.mp3,2020-06-08_18h12.41.245,TranslationElicitation_eng-prolific,3.2.4,Win32,60,5ec8f15fce3f413ef07d6cc5,,1,0,81,52,1,80
,,,,,,,,,,,,,,,,,,,,,,,,,,,,,,,,,,,,,,,,,o,7.282999992,BO,FALSE,,,,,,,160,orella,Catalan,Sounds/cat_orella.mp3,2020-06-08_18h12.41.245,TranslationElicitation_eng-prolific,3.2.4,Win32,60,5ec8f15fce3f413ef07d6cc5,,1,0,81,52,1,80
,,,,,,,,,,,,,,,,,,,,,,,,,,,,,,,,,,,,,,,,,y,7.447000027,BOY,FALSE,,,,,,,160,orella,Catalan,Sounds/cat_orella.mp3,2020-06-08_18h12.41.245,TranslationElicitation_eng-prolific,3.2.4,Win32,60,5ec8f15fce3f413ef07d6cc5,,1,0,81,52,1,80
,,,,,,,,,,,,,,,,,,,,,,,,,,,,,,,,,,,,,,,,,return,8.112999916,BOY,FALSE,,,,,,,160,orella,Catalan,Sounds/cat_orella.mp3,2020-06-08_18h12.41.245,TranslationElicitation_eng-prolific,3.2.4,Win32,60,5ec8f15fce3f413ef07d6cc5,8.112999916,1,0,81,52,1,80
,,,,,,,,,,,,,,,,,,,,,,,,,,,,,,,,,,,,,,,,,,,,,,,,,,,160,orella,Catalan,Sounds/cat_orella.mp3,2020-06-08_18h12.41.245,TranslationElicitation_eng-prolific,3.2.4,Win32,60,5ec8f15fce3f413ef07d6cc5,,1,0,81,52,1,80
,,,,,,,,,,,,,,,,,,,,,,,,,,,,,,,,,,,,,,,,,c,5.398000002,C,FALSE,,,,,,,170,ploma,Catalan,Sounds/cat_ploma.mp3,2020-06-08_18h12.41.245,TranslationElicitation_eng-prolific,3.2.4,Win32,60,5ec8f15fce3f413ef07d6cc5,,1,0,81,62,1,80
,,,,,,,,,,,,,,,,,,,,,,,,,,,,,,,,,,,,,,,,,backspace,6.11500001,,TRUE,,,,,,,170,ploma,Catalan,Sounds/cat_ploma.mp3,2020-06-08_18h12.41.245,TranslationElicitation_eng-prolific,3.2.4,Win32,60,5ec8f15fce3f413ef07d6cc5,,1,0,81,62,1,80
,,,,,,,,,,,,,,,,,,,,,,,,,,,,,,,,,,,,,,,,,s,6.548000097,S,TRUE,,,,,,,170,ploma,Catalan,Sounds/cat_ploma.mp3,2020-06-08_18h12.41.245,TranslationElicitation_eng-prolific,3.2.4,Win32,60,5ec8f15fce3f413ef07d6cc5,,1,0,81,62,1,80
,,,,,,,,,,,,,,,,,,,,,,,,,,,,,,,,,,,,,,,,,l,6.650000095,SL,TRUE,,,,,,,170,ploma,Catalan,Sounds/cat_ploma.mp3,2020-06-08_18h12.41.245,TranslationElicitation_eng-prolific,3.2.4,Win32,60,5ec8f15fce3f413ef07d6cc5,,1,0,81,62,1,80
,,,,,,,,,,,,,,,,,,,,,,,,,,,,,,,,,,,,,,,,,e,6.815000057,SLE,TRUE,,,,,,,170,ploma,Catalan,Sounds/cat_ploma.mp3,2020-06-08_18h12.41.245,TranslationElicitation_eng-prolific,3.2.4,Win32,60,5ec8f15fce3f413ef07d6cc5,,1,0,81,62,1,80
,,,,,,,,,,,,,,,,,,,,,,,,,,,,,,,,,,,,,,,,,e,6.947999954,SLEE,TRUE,,,,,,,170,ploma,Catalan,Sounds/cat_ploma.mp3,2020-06-08_18h12.41.245,TranslationElicitation_eng-prolific,3.2.4,Win32,60,5ec8f15fce3f413ef07d6cc5,,1,0,81,62,1,80
,,,,,,,,,,,,,,,,,,,,,,,,,,,,,,,,,,,,,,,,,p,7.030999899,SLEEP,TRUE,,,,,,,170,ploma,Catalan,Sounds/cat_ploma.mp3,2020-06-08_18h12.41.245,TranslationElicitation_eng-prolific,3.2.4,Win32,60,5ec8f15fce3f413ef07d6cc5,,1,0,81,62,1,80
,,,,,,,,,,,,,,,,,,,,,,,,,,,,,,,,,,,,,,,,,return,7.58100009,SLEEP,TRUE,,,,,,,170,ploma,Catalan,Sounds/cat_ploma.mp3,2020-06-08_18h12.41.245,TranslationElicitation_eng-prolific,3.2.4,Win32,60,5ec8f15fce3f413ef07d6cc5,7.58100009,1,0,81,62,1,80
,,,,,,,,,,,,,,,,,,,,,,,,,,,,,,,,,,,,,,,,,,,,,,,,,,,170,ploma,Catalan,Sounds/cat_ploma.mp3,2020-06-08_18h12.41.245,TranslationElicitation_eng-prolific,3.2.4,Win32,60,5ec8f15fce3f413ef07d6cc5,,1,0,81,62,1,80
,,,,,,,,,,,,,,,,,,,,,,,,,,,,,,,,,,,,,,,,,m,3.515999794,M,FALSE,,,,,,,157,mussol,Catalan,Sounds/cat_mussol.mp3,2020-06-08_18h12.41.245,TranslationElicitation_eng-prolific,3.2.4,Win32,60,5ec8f15fce3f413ef07d6cc5,,1,0,81,50,1,80
,,,,,,,,,,,,,,,,,,,,,,,,,,,,,,,,,,,,,,,,,o,3.748999834,MO,FALSE,,,,,,,157,mussol,Catalan,Sounds/cat_mussol.mp3,2020-06-08_18h12.41.245,TranslationElicitation_eng-prolific,3.2.4,Win32,60,5ec8f15fce3f413ef07d6cc5,,1,0,81,50,1,80
,,,,,,,,,,,,,,,,,,,,,,,,,,,,,,,,,,,,,,,,,u,3.915999889,MOU,FALSE,,,,,,,157,mussol,Catalan,Sounds/cat_mussol.mp3,2020-06-08_18h12.41.245,TranslationElicitation_eng-prolific,3.2.4,Win32,60,5ec8f15fce3f413ef07d6cc5,,1,0,81,50,1,80
,,,,,,,,,,,,,,,,,,,,,,,,,,,,,,,,,,,,,,,,,s,4.031999826,MOUS,FALSE,,,,,,,157,mussol,Catalan,Sounds/cat_mussol.mp3,2020-06-08_18h12.41.245,TranslationElicitation_eng-prolific,3.2.4,Win32,60,5ec8f15fce3f413ef07d6cc5,,1,0,81,50,1,80
,,,,,,,,,,,,,,,,,,,,,,,,,,,,,,,,,,,,,,,,,s,4.181999922,MOUSS,FALSE,,,,,,,157,mussol,Catalan,Sounds/cat_mussol.mp3,2020-06-08_18h12.41.245,TranslationElicitation_eng-prolific,3.2.4,Win32,60,5ec8f15fce3f413ef07d6cc5,,1,0,81,50,1,80
,,,,,,,,,,,,,,,,,,,,,,,,,,,,,,,,,,,,,,,,,e,4.381999969,MOUSSE,FALSE,,,,,,,157,mussol,Catalan,Sounds/cat_mussol.mp3,2020-06-08_18h12.41.245,TranslationElicitation_eng-prolific,3.2.4,Win32,60,5ec8f15fce3f413ef07d6cc5,,1,0,81,50,1,80
,,,,,,,,,,,,,,,,,,,,,,,,,,,,,,,,,,,,,,,,,return,5.559999943,MOUSSE,FALSE,,,,,,,157,mussol,Catalan,Sounds/cat_mussol.mp3,2020-06-08_18h12.41.245,TranslationElicitation_eng-prolific,3.2.4,Win32,60,5ec8f15fce3f413ef07d6cc5,5.559999943,1,0,81,50,1,80
,,,,,,,,,,,,,,,,,,,,,,,,,,,,,,,,,,,,,,,,,,,,,,,,,,,157,mussol,Catalan,Sounds/cat_mussol.mp3,2020-06-08_18h12.41.245,TranslationElicitation_eng-prolific,3.2.4,Win32,60,5ec8f15fce3f413ef07d6cc5,,1,0,81,50,1,80
,,,,,,,,,,,,,,,,,,,,,,,,,,,,,,,,,,,,,,,,,w,4.198000193,W,FALSE,,,,,,,105,aigua,Catalan,Sounds/cat_aigua.mp3,2020-06-08_18h12.41.245,TranslationElicitation_eng-prolific,3.2.4,Win32,60,5ec8f15fce3f413ef07d6cc5,,1,0,81,1,1,80
,,,,,,,,,,,,,,,,,,,,,,,,,,,,,,,,,,,,,,,,,a,4.366000175,WA,FALSE,,,,,,,105,aigua,Catalan,Sounds/cat_aigua.mp3,2020-06-08_18h12.41.245,TranslationElicitation_eng-prolific,3.2.4,Win32,60,5ec8f15fce3f413ef07d6cc5,,1,0,81,1,1,80
,,,,,,,,,,,,,,,,,,,,,,,,,,,,,,,,,,,,,,,,,t,4.498000145,WAT,FALSE,,,,,,,105,aigua,Catalan,Sounds/cat_aigua.mp3,2020-06-08_18h12.41.245,TranslationElicitation_eng-prolific,3.2.4,Win32,60,5ec8f15fce3f413ef07d6cc5,,1,0,81,1,1,80
,,,,,,,,,,,,,,,,,,,,,,,,,,,,,,,,,,,,,,,,,e,4.882000208,WATE,FALSE,,,,,,,105,aigua,Catalan,Sounds/cat_aigua.mp3,2020-06-08_18h12.41.245,TranslationElicitation_eng-prolific,3.2.4,Win32,60,5ec8f15fce3f413ef07d6cc5,,1,0,81,1,1,80
,,,,,,,,,,,,,,,,,,,,,,,,,,,,,,,,,,,,,,,,,r,5.031000137,WATER,FALSE,,,,,,,105,aigua,Catalan,Sounds/cat_aigua.mp3,2020-06-08_18h12.41.245,TranslationElicitation_eng-prolific,3.2.4,Win32,60,5ec8f15fce3f413ef07d6cc5,,1,0,81,1,1,80
,,,,,,,,,,,,,,,,,,,,,,,,,,,,,,,,,,,,,,,,,return,5.36500001,WATER,FALSE,,,,,,,105,aigua,Catalan,Sounds/cat_aigua.mp3,2020-06-08_18h12.41.245,TranslationElicitation_eng-prolific,3.2.4,Win32,60,5ec8f15fce3f413ef07d6cc5,5.36500001,1,0,81,1,1,80
,,,,,,,,,,,,,,,,,,,,,,,,,,,,,,,,,,,,,,,,,,,,,,,,,,,105,aigua,Catalan,Sounds/cat_aigua.mp3,2020-06-08_18h12.41.245,TranslationElicitation_eng-prolific,3.2.4,Win32,60,5ec8f15fce3f413ef07d6cc5,,1,0,81,1,1,80
,,,,,,,,,,,,,,,,,,,,,,,,,,,,,,,,,,,,,,,,,c,2.69900012,C,FALSE,,,,,,,141,gerd,Catalan,Sounds/cat_gerd.mp3,2020-06-08_18h12.41.245,TranslationElicitation_eng-prolific,3.2.4,Win32,60,5ec8f15fce3f413ef07d6cc5,,1,0,81,35,1,80
,,,,,,,,,,,,,,,,,,,,,,,,,,,,,,,,,,,,,,,,,h,2.882999897,CH,FALSE,,,,,,,141,gerd,Catalan,Sounds/cat_gerd.mp3,2020-06-08_18h12.41.245,TranslationElicitation_eng-prolific,3.2.4,Win32,60,5ec8f15fce3f413ef07d6cc5,,1,0,81,35,1,80
,,,,,,,,,,,,,,,,,,,,,,,,,,,,,,,,,,,,,,,,,a,3.381999969,CHA,FALSE,,,,,,,141,gerd,Catalan,Sounds/cat_gerd.mp3,2020-06-08_18h12.41.245,TranslationElicitation_eng-prolific,3.2.4,Win32,60,5ec8f15fce3f413ef07d6cc5,,1,0,81,35,1,80
,,,,,,,,,,,,,,,,,,,,,,,,,,,,,,,,,,,,,,,,,i,3.53399992,CHAI,FALSE,,,,,,,141,gerd,Catalan,Sounds/cat_gerd.mp3,2020-06-08_18h12.41.245,TranslationElicitation_eng-prolific,3.2.4,Win32,60,5ec8f15fce3f413ef07d6cc5,,1,0,81,35,1,80
,,,,,,,,,,,,,,,,,,,,,,,,,,,,,,,,,,,,,,,,,r,3.782000065,CHAIR,FALSE,,,,,,,141,gerd,Catalan,Sounds/cat_gerd.mp3,2020-06-08_18h12.41.245,TranslationElicitation_eng-prolific,3.2.4,Win32,60,5ec8f15fce3f413ef07d6cc5,,1,0,81,35,1,80
,,,,,,,,,,,,,,,,,,,,,,,,,,,,,,,,,,,,,,,,,return,4.232000113,CHAIR,FALSE,,,,,,,141,gerd,Catalan,Sounds/cat_gerd.mp3,2020-06-08_18h12.41.245,TranslationElicitation_eng-prolific,3.2.4,Win32,60,5ec8f15fce3f413ef07d6cc5,4.232000113,1,0,81,35,1,80
,,,,,,,,,,,,,,,,,,,,,,,,,,,,,,,,,,,,,,,,,,,,,,,,,,,141,gerd,Catalan,Sounds/cat_gerd.mp3,2020-06-08_18h12.41.245,TranslationElicitation_eng-prolific,3.2.4,Win32,60,5ec8f15fce3f413ef07d6cc5,,1,0,81,35,1,80
,,,,,,,,,,,,,,,,,,,,,,,,,,,,,,,,,,,,,,,,,f,4.398000002,F,FALSE,,,,,,,136,forquilla,Catalan,Sounds/cat_forquilla.mp3,2020-06-08_18h12.41.245,TranslationElicitation_eng-prolific,3.2.4,Win32,60,5ec8f15fce3f413ef07d6cc5,,1,0,81,30,1,80
,,,,,,,,,,,,,,,,,,,,,,,,,,,,,,,,,,,,,,,,,e,4.530999899,FE,FALSE,,,,,,,136,forquilla,Catalan,Sounds/cat_forquilla.mp3,2020-06-08_18h12.41.245,TranslationElicitation_eng-prolific,3.2.4,Win32,60,5ec8f15fce3f413ef07d6cc5,,1,0,81,30,1,80
,,,,,,,,,,,,,,,,,,,,,,,,,,,,,,,,,,,,,,,,,m,4.680999994,FEM,FALSE,,,,,,,136,forquilla,Catalan,Sounds/cat_forquilla.mp3,2020-06-08_18h12.41.245,TranslationElicitation_eng-prolific,3.2.4,Win32,60,5ec8f15fce3f413ef07d6cc5,,1,0,81,30,1,80
,,,,,,,,,,,,,,,,,,,,,,,,,,,,,,,,,,,,,,,,,a,4.864000082,FEMA,FALSE,,,,,,,136,forquilla,Catalan,Sounds/cat_forquilla.mp3,2020-06-08_18h12.41.245,TranslationElicitation_eng-prolific,3.2.4,Win32,60,5ec8f15fce3f413ef07d6cc5,,1,0,81,30,1,80
,,,,,,,,,,,,,,,,,,,,,,,,,,,,,,,,,,,,,,,,,l,5.563999891,FEMAL,FALSE,,,,,,,136,forquilla,Catalan,Sounds/cat_forquilla.mp3,2020-06-08_18h12.41.245,TranslationElicitation_eng-prolific,3.2.4,Win32,60,5ec8f15fce3f413ef07d6cc5,,1,0,81,30,1,80
,,,,,,,,,,,,,,,,,,,,,,,,,,,,,,,,,,,,,,,,,e,5.665999889,FEMALE,FALSE,,,,,,,136,forquilla,Catalan,Sounds/cat_forquilla.mp3,2020-06-08_18h12.41.245,TranslationElicitation_eng-prolific,3.2.4,Win32,60,5ec8f15fce3f413ef07d6cc5,,1,0,81,30,1,80
,,,,,,,,,,,,,,,,,,,,,,,,,,,,,,,,,,,,,,,,,return,5.930999994,FEMALE,FALSE,,,,,,,136,forquilla,Catalan,Sounds/cat_forquilla.mp3,2020-06-08_18h12.41.245,TranslationElicitation_eng-prolific,3.2.4,Win32,60,5ec8f15fce3f413ef07d6cc5,5.930999994,1,0,81,30,1,80
,,,,,,,,,,,,,,,,,,,,,,,,,,,,,,,,,,,,,,,,,,,,,,,,,,,136,forquilla,Catalan,Sounds/cat_forquilla.mp3,2020-06-08_18h12.41.245,TranslationElicitation_eng-prolific,3.2.4,Win32,60,5ec8f15fce3f413ef07d6cc5,,1,0,81,30,1,80
,,,,,,,,,,,,,,,,,,,,,,,,,,,,,,,,,,,,,,,,,d,1.749000072,D,FALSE,,,,,,,180,tisores,Catalan,Sounds/cat_tisores.mp3,2020-06-08_18h12.41.245,TranslationElicitation_eng-prolific,3.2.4,Win32,60,5ec8f15fce3f413ef07d6cc5,,1,0,81,71,1,80
,,,,,,,,,,,,,,,,,,,,,,,,,,,,,,,,,,,,,,,,,e,1.914999962,DE,FALSE,,,,,,,180,tisores,Catalan,Sounds/cat_tisores.mp3,2020-06-08_18h12.41.245,TranslationElicitation_eng-prolific,3.2.4,Win32,60,5ec8f15fce3f413ef07d6cc5,,1,0,81,71,1,80
,,,,,,,,,,,,,,,,,,,,,,,,,,,,,,,,,,,,,,,,,s,2.299000025,DES,FALSE,,,,,,,180,tisores,Catalan,Sounds/cat_tisores.mp3,2020-06-08_18h12.41.245,TranslationElicitation_eng-prolific,3.2.4,Win32,60,5ec8f15fce3f413ef07d6cc5,,1,0,81,71,1,80
,,,,,,,,,,,,,,,,,,,,,,,,,,,,,,,,,,,,,,,,,e,4.464999914,DESE,FALSE,,,,,,,180,tisores,Catalan,Sounds/cat_tisores.mp3,2020-06-08_18h12.41.245,TranslationElicitation_eng-prolific,3.2.4,Win32,60,5ec8f15fce3f413ef07d6cc5,,1,0,81,71,1,80
,,,,,,,,,,,,,,,,,,,,,,,,,,,,,,,,,,,,,,,,,r,4.714999914,DESER,FALSE,,,,,,,180,tisores,Catalan,Sounds/cat_tisores.mp3,2020-06-08_18h12.41.245,TranslationElicitation_eng-prolific,3.2.4,Win32,60,5ec8f15fce3f413ef07d6cc5,,1,0,81,71,1,80
,,,,,,,,,,,,,,,,,,,,,,,,,,,,,,,,,,,,,,,,,t,5.165999889,DESERT,FALSE,,,,,,,180,tisores,Catalan,Sounds/cat_tisores.mp3,2020-06-08_18h12.41.245,TranslationElicitation_eng-prolific,3.2.4,Win32,60,5ec8f15fce3f413ef07d6cc5,,1,0,81,71,1,80
,,,,,,,,,,,,,,,,,,,,,,,,,,,,,,,,,,,,,,,,,return,6.047999859,DESERT,FALSE,,,,,,,180,tisores,Catalan,Sounds/cat_tisores.mp3,2020-06-08_18h12.41.245,TranslationElicitation_eng-prolific,3.2.4,Win32,60,5ec8f15fce3f413ef07d6cc5,6.047999859,1,0,81,71,1,80
,,,,,,,,,,,,,,,,,,,,,,,,,,,,,,,,,,,,,,,,,,,,,,,,,,,180,tisores,Catalan,Sounds/cat_tisores.mp3,2020-06-08_18h12.41.245,TranslationElicitation_eng-prolific,3.2.4,Win32,60,5ec8f15fce3f413ef07d6cc5,,1,0,81,71,1,80
,,,,,,,,,,,,,,,,,,,,,,,,,,,,,,,,,,,,,,,,,f,3.732000113,F,FALSE,,,,,,,135,formiga,Catalan,Sounds/cat_formiga.mp3,2020-06-08_18h12.41.245,TranslationElicitation_eng-prolific,3.2.4,Win32,60,5ec8f15fce3f413ef07d6cc5,,1,0,81,29,1,80
,,,,,,,,,,,,,,,,,,,,,,,,,,,,,,,,,,,,,,,,,r,3.898000002,FR,FALSE,,,,,,,135,formiga,Catalan,Sounds/cat_formiga.mp3,2020-06-08_18h12.41.245,TranslationElicitation_eng-prolific,3.2.4,Win32,60,5ec8f15fce3f413ef07d6cc5,,1,0,81,29,1,80
,,,,,,,,,,,,,,,,,,,,,,,,,,,,,,,,,,,,,,,,,i,3.998000145,FRI,FALSE,,,,,,,135,formiga,Catalan,Sounds/cat_formiga.mp3,2020-06-08_18h12.41.245,TranslationElicitation_eng-prolific,3.2.4,Win32,60,5ec8f15fce3f413ef07d6cc5,,1,0,81,29,1,80
,,,,,,,,,,,,,,,,,,,,,,,,,,,,,,,,,,,,,,,,,e,4.09800005,FRIE,FALSE,,,,,,,135,formiga,Catalan,Sounds/cat_formiga.mp3,2020-06-08_18h12.41.245,TranslationElicitation_eng-prolific,3.2.4,Win32,60,5ec8f15fce3f413ef07d6cc5,,1,0,81,29,1,80
,,,,,,,,,,,,,,,,,,,,,,,,,,,,,,,,,,,,,,,,,backspace,5.732000113,FRI,TRUE,,,,,,,135,formiga,Catalan,Sounds/cat_formiga.mp3,2020-06-08_18h12.41.245,TranslationElicitation_eng-prolific,3.2.4,Win32,60,5ec8f15fce3f413ef07d6cc5,,1,0,81,29,1,80
,,,,,,,,,,,,,,,,,,,,,,,,,,,,,,,,,,,,,,,,,backspace,6.215000153,FR,TRUE,,,,,,,135,formiga,Catalan,Sounds/cat_formiga.mp3,2020-06-08_18h12.41.245,TranslationElicitation_eng-prolific,3.2.4,Win32,60,5ec8f15fce3f413ef07d6cc5,,1,0,81,29,1,80
,,,,,,,,,,,,,,,,,,,,,,,,,,,,,,,,,,,,,,,,,backspace,8.397000074,F,TRUE,,,,,,,135,formiga,Catalan,Sounds/cat_formiga.mp3,2020-06-08_18h12.41.245,TranslationElicitation_eng-prolific,3.2.4,Win32,60,5ec8f15fce3f413ef07d6cc5,,1,0,81,29,1,80
,,,,,,,,,,,,,,,,,,,,,,,,,,,,,,,,,,,,,,,,,r,12.56200004,FR,TRUE,,,,,,,135,formiga,Catalan,Sounds/cat_formiga.mp3,2020-06-08_18h12.41.245,TranslationElicitation_eng-prolific,3.2.4,Win32,60,5ec8f15fce3f413ef07d6cc5,,1,0,81,29,1,80
,,,,,,,,,,,,,,,,,,,,,,,,,,,,,,,,,,,,,,,,,i,12.71200013,FRI,TRUE,,,,,,,135,formiga,Catalan,Sounds/cat_formiga.mp3,2020-06-08_18h12.41.245,TranslationElicitation_eng-prolific,3.2.4,Win32,60,5ec8f15fce3f413ef07d6cc5,,1,0,81,29,1,80
,,,,,,,,,,,,,,,,,,,,,,,,,,,,,,,,,,,,,,,,,e,12.81200004,FRIE,TRUE,,,,,,,135,formiga,Catalan,Sounds/cat_formiga.mp3,2020-06-08_18h12.41.245,TranslationElicitation_eng-prolific,3.2.4,Win32,60,5ec8f15fce3f413ef07d6cc5,,1,0,81,29,1,80
,,,,,,,,,,,,,,,,,,,,,,,,,,,,,,,,,,,,,,,,,n,13.01200008,FRIEN,TRUE,,,,,,,135,formiga,Catalan,Sounds/cat_formiga.mp3,2020-06-08_18h12.41.245,TranslationElicitation_eng-prolific,3.2.4,Win32,60,5ec8f15fce3f413ef07d6cc5,,1,0,81,29,1,80
,,,,,,,,,,,,,,,,,,,,,,,,,,,,,,,,,,,,,,,,,d,13.11200023,FRIEND,TRUE,,,,,,,135,formiga,Catalan,Sounds/cat_formiga.mp3,2020-06-08_18h12.41.245,TranslationElicitation_eng-prolific,3.2.4,Win32,60,5ec8f15fce3f413ef07d6cc5,,1,0,81,29,1,80
,,,,,,,,,,,,,,,,,,,,,,,,,,,,,,,,,,,,,,,,,s,13.34500003,FRIENDS,TRUE,,,,,,,135,formiga,Catalan,Sounds/cat_formiga.mp3,2020-06-08_18h12.41.245,TranslationElicitation_eng-prolific,3.2.4,Win32,60,5ec8f15fce3f413ef07d6cc5,,1,0,81,29,1,80
,,,,,,,,,,,,,,,,,,,,,,,,,,,,,,,,,,,,,,,,,return,15.72800016,FRIENDS,TRUE,,,,,,,135,formiga,Catalan,Sounds/cat_formiga.mp3,2020-06-08_18h12.41.245,TranslationElicitation_eng-prolific,3.2.4,Win32,60,5ec8f15fce3f413ef07d6cc5,15.72800016,1,0,81,29,1,80
,,,,,,,,,,,,,,,,,,,,,,,,,,,,,,,,,,,,,,,,,,,,,,,,,,,135,formiga,Catalan,Sounds/cat_formiga.mp3,2020-06-08_18h12.41.245,TranslationElicitation_eng-prolific,3.2.4,Win32,60,5ec8f15fce3f413ef07d6cc5,,1,0,81,29,1,80
,,,,,,,,,,,,,,,,,,,,,,,,,,,,,,,,,,,,,,,,,g,3.282000065,G,FALSE,,,,,,,143,globus,Catalan,Sounds/cat_globus.mp3,2020-06-08_18h12.41.245,TranslationElicitation_eng-prolific,3.2.4,Win32,60,5ec8f15fce3f413ef07d6cc5,,1,0,81,37,1,80
,,,,,,,,,,,,,,,,,,,,,,,,,,,,,,,,,,,,,,,,,l,3.398999929,GL,FALSE,,,,,,,143,globus,Catalan,Sounds/cat_globus.mp3,2020-06-08_18h12.41.245,TranslationElicitation_eng-prolific,3.2.4,Win32,60,5ec8f15fce3f413ef07d6cc5,,1,0,81,37,1,80
,,,,,,,,,,,,,,,,,,,,,,,,,,,,,,,,,,,,,,,,,o,3.549000025,GLO,FALSE,,,,,,,143,globus,Catalan,Sounds/cat_globus.mp3,2020-06-08_18h12.41.245,TranslationElicitation_eng-prolific,3.2.4,Win32,60,5ec8f15fce3f413ef07d6cc5,,1,0,81,37,1,80
,,,,,,,,,,,,,,,,,,,,,,,,,,,,,,,,,,,,,,,,,b,3.764999866,GLOB,FALSE,,,,,,,143,globus,Catalan,Sounds/cat_globus.mp3,2020-06-08_18h12.41.245,TranslationElicitation_eng-prolific,3.2.4,Win32,60,5ec8f15fce3f413ef07d6cc5,,1,0,81,37,1,80
,,,,,,,,,,,,,,,,,,,,,,,,,,,,,,,,,,,,,,,,,a,3.86500001,GLOBA,FALSE,,,,,,,143,globus,Catalan,Sounds/cat_globus.mp3,2020-06-08_18h12.41.245,TranslationElicitation_eng-prolific,3.2.4,Win32,60,5ec8f15fce3f413ef07d6cc5,,1,0,81,37,1,80
,,,,,,,,,,,,,,,,,,,,,,,,,,,,,,,,,,,,,,,,,l,4.11500001,GLOBAL,FALSE,,,,,,,143,globus,Catalan,Sounds/cat_globus.mp3,2020-06-08_18h12.41.245,TranslationElicitation_eng-prolific,3.2.4,Win32,60,5ec8f15fce3f413ef07d6cc5,,1,0,81,37,1,80
,,,,,,,,,,,,,,,,,,,,,,,,,,,,,,,,,,,,,,,,,return,4.61500001,GLOBAL,FALSE,,,,,,,143,globus,Catalan,Sounds/cat_globus.mp3,2020-06-08_18h12.41.245,TranslationElicitation_eng-prolific,3.2.4,Win32,60,5ec8f15fce3f413ef07d6cc5,4.61500001,1,0,81,37,1,80
,,,,,,,,,,,,,,,,,,,,,,,,,,,,,,,,,,,,,,,,,,,,,,,,,,,143,globus,Catalan,Sounds/cat_globus.mp3,2020-06-08_18h12.41.245,TranslationElicitation_eng-prolific,3.2.4,Win32,60,5ec8f15fce3f413ef07d6cc5,,1,0,81,37,1,80
,,,,,,,,,,,,,,,,,,,,,,,,,,,,,,,,,,,,,,,,,g,1.915999889,G,FALSE,,,,,,,142,girafa,Catalan,Sounds/cat_girafa.mp3,2020-06-08_18h12.41.245,TranslationElicitation_eng-prolific,3.2.4,Win32,60,5ec8f15fce3f413ef07d6cc5,,1,0,81,36,1,80
,,,,,,,,,,,,,,,,,,,,,,,,,,,,,,,,,,,,,,,,,i,2.082999945,GI,FALSE,,,,,,,142,girafa,Catalan,Sounds/cat_girafa.mp3,2020-06-08_18h12.41.245,TranslationElicitation_eng-prolific,3.2.4,Win32,60,5ec8f15fce3f413ef07d6cc5,,1,0,81,36,1,80
,,,,,,,,,,,,,,,,,,,,,,,,,,,,,,,,,,,,,,,,,r,2.282999992,GIR,FALSE,,,,,,,142,girafa,Catalan,Sounds/cat_girafa.mp3,2020-06-08_18h12.41.245,TranslationElicitation_eng-prolific,3.2.4,Win32,60,5ec8f15fce3f413ef07d6cc5,,1,0,81,36,1,80
,,,,,,,,,,,,,,,,,,,,,,,,,,,,,,,,,,,,,,,,,a,2.582999945,GIRA,FALSE,,,,,,,142,girafa,Catalan,Sounds/cat_girafa.mp3,2020-06-08_18h12.41.245,TranslationElicitation_eng-prolific,3.2.4,Win32,60,5ec8f15fce3f413ef07d6cc5,,1,0,81,36,1,80
,,,,,,,,,,,,,,,,,,,,,,,,,,,,,,,,,,,,,,,,,f,2.799000025,GIRAF,FALSE,,,,,,,142,girafa,Catalan,Sounds/cat_girafa.mp3,2020-06-08_18h12.41.245,TranslationElicitation_eng-prolific,3.2.4,Win32,60,5ec8f15fce3f413ef07d6cc5,,1,0,81,36,1,80
,,,,,,,,,,,,,,,,,,,,,,,,,,,,,,,,,,,,,,,,,f,2.932999849,GIRAFF,FALSE,,,,,,,142,girafa,Catalan,Sounds/cat_girafa.mp3,2020-06-08_18h12.41.245,TranslationElicitation_eng-prolific,3.2.4,Win32,60,5ec8f15fce3f413ef07d6cc5,,1,0,81,36,1,80
,,,,,,,,,,,,,,,,,,,,,,,,,,,,,,,,,,,,,,,,,e,3.083999872,GIRAFFE,FALSE,,,,,,,142,girafa,Catalan,Sounds/cat_girafa.mp3,2020-06-08_18h12.41.245,TranslationElicitation_eng-prolific,3.2.4,Win32,60,5ec8f15fce3f413ef07d6cc5,,1,0,81,36,1,80
,,,,,,,,,,,,,,,,,,,,,,,,,,,,,,,,,,,,,,,,,return,3.414999962,GIRAFFE,FALSE,,,,,,,142,girafa,Catalan,Sounds/cat_girafa.mp3,2020-06-08_18h12.41.245,TranslationElicitation_eng-prolific,3.2.4,Win32,60,5ec8f15fce3f413ef07d6cc5,3.414999962,1,0,81,36,1,80
,,,,,,,,,,,,,,,,,,,,,,,,,,,,,,,,,,,,,,,,,,,,,,,,,,,142,girafa,Catalan,Sounds/cat_girafa.mp3,2020-06-08_18h12.41.245,TranslationElicitation_eng-prolific,3.2.4,Win32,60,5ec8f15fce3f413ef07d6cc5,,1,0,81,36,1,80
,,,,,,,,,,,,,,,,,,,,,,,,,,,,,,,,,,,,,,,,,p,6.815000057,P,FALSE,,,,,,,150,lloro,Catalan,Sounds/cat_lloro.mp3,2020-06-08_18h12.41.245,TranslationElicitation_eng-prolific,3.2.4,Win32,60,5ec8f15fce3f413ef07d6cc5,,1,0,81,43,1,80
,,,,,,,,,,,,,,,,,,,,,,,,,,,,,,,,,,,,,,,,,e,6.980999947,PE,FALSE,,,,,,,150,lloro,Catalan,Sounds/cat_lloro.mp3,2020-06-08_18h12.41.245,TranslationElicitation_eng-prolific,3.2.4,Win32,60,5ec8f15fce3f413ef07d6cc5,,1,0,81,43,1,80
,,,,,,,,,,,,,,,,,,,,,,,,,,,,,,,,,,,,,,,,,n,7.114000082,PEN,FALSE,,,,,,,150,lloro,Catalan,Sounds/cat_lloro.mp3,2020-06-08_18h12.41.245,TranslationElicitation_eng-prolific,3.2.4,Win32,60,5ec8f15fce3f413ef07d6cc5,,1,0,81,43,1,80
,,,,,,,,,,,,,,,,,,,,,,,,,,,,,,,,,,,,,,,,,return,7.713999987,PEN,FALSE,,,,,,,150,lloro,Catalan,Sounds/cat_lloro.mp3,2020-06-08_18h12.41.245,TranslationElicitation_eng-prolific,3.2.4,Win32,60,5ec8f15fce3f413ef07d6cc5,7.713999987,1,0,81,43,1,80
,,,,,,,,,,,,,,,,,,,,,,,,,,,,,,,,,,,,,,,,,,,,,,,,,,,150,lloro,Catalan,Sounds/cat_lloro.mp3,2020-06-08_18h12.41.245,TranslationElicitation_eng-prolific,3.2.4,Win32,60,5ec8f15fce3f413ef07d6cc5,,1,0,81,43,1,80
,,,,,,,,,,,,,,,,,,,,,,,,,,,,,,,,,,,,,,,,,p,1.549999952,P,FALSE,,,,,,,164,patata,Catalan,Sounds/cat_patata.mp3,2020-06-08_18h12.41.245,TranslationElicitation_eng-prolific,3.2.4,Win32,60,5ec8f15fce3f413ef07d6cc5,,1,0,81,56,1,80
,,,,,,,,,,,,,,,,,,,,,,,,,,,,,,,,,,,,,,,,,o,1.766000032,PO,FALSE,,,,,,,164,patata,Catalan,Sounds/cat_patata.mp3,2020-06-08_18h12.41.245,TranslationElicitation_eng-prolific,3.2.4,Win32,60,5ec8f15fce3f413ef07d6cc5,,1,0,81,56,1,80
,,,,,,,,,,,,,,,,,,,,,,,,,,,,,,,,,,,,,,,,,t,2.516000032,POT,FALSE,,,,,,,164,patata,Catalan,Sounds/cat_patata.mp3,2020-06-08_18h12.41.245,TranslationElicitation_eng-prolific,3.2.4,Win32,60,5ec8f15fce3f413ef07d6cc5,,1,0,81,56,1,80
,,,,,,,,,,,,,,,,,,,,,,,,,,,,,,,,,,,,,,,,,a,2.848999977,POTA,FALSE,,,,,,,164,patata,Catalan,Sounds/cat_patata.mp3,2020-06-08_18h12.41.245,TranslationElicitation_eng-prolific,3.2.4,Win32,60,5ec8f15fce3f413ef07d6cc5,,1,0,81,56,1,80
,,,,,,,,,,,,,,,,,,,,,,,,,,,,,,,,,,,,,,,,,t,3.049000025,POTAT,FALSE,,,,,,,164,patata,Catalan,Sounds/cat_patata.mp3,2020-06-08_18h12.41.245,TranslationElicitation_eng-prolific,3.2.4,Win32,60,5ec8f15fce3f413ef07d6cc5,,1,0,81,56,1,80
,,,,,,,,,,,,,,,,,,,,,,,,,,,,,,,,,,,,,,,,,o,3.615999937,POTATO,FALSE,,,,,,,164,patata,Catalan,Sounds/cat_patata.mp3,2020-06-08_18h12.41.245,TranslationElicitation_eng-prolific,3.2.4,Win32,60,5ec8f15fce3f413ef07d6cc5,,1,0,81,56,1,80
,,,,,,,,,,,,,,,,,,,,,,,,,,,,,,,,,,,,,,,,,return,4.082000017,POTATO,FALSE,,,,,,,164,patata,Catalan,Sounds/cat_patata.mp3,2020-06-08_18h12.41.245,TranslationElicitation_eng-prolific,3.2.4,Win32,60,5ec8f15fce3f413ef07d6cc5,4.082000017,1,0,81,56,1,80
,,,,,,,,,,,,,,,,,,,,,,,,,,,,,,,,,,,,,,,,,,,,,,,,,,,164,patata,Catalan,Sounds/cat_patata.mp3,2020-06-08_18h12.41.245,TranslationElicitation_eng-prolific,3.2.4,Win32,60,5ec8f15fce3f413ef07d6cc5,,1,0,81,56,1,80
,,,,,,,,,,,,,,,,,,,,,,,,,,,,,,,,,,,,,,,,,m,4.332999945,M,FALSE,,,,,,,156,moto,Catalan,Sounds/cat_moto.mp3,2020-06-08_18h12.41.245,TranslationElicitation_eng-prolific,3.2.4,Win32,60,5ec8f15fce3f413ef07d6cc5,,1,0,81,49,1,80
,,,,,,,,,,,,,,,,,,,,,,,,,,,,,,,,,,,,,,,,,a,4.532999992,MA,FALSE,,,,,,,156,moto,Catalan,Sounds/cat_moto.mp3,2020-06-08_18h12.41.245,TranslationElicitation_eng-prolific,3.2.4,Win32,60,5ec8f15fce3f413ef07d6cc5,,1,0,81,49,1,80
,,,,,,,,,,,,,,,,,,,,,,,,,,,,,,,,,,,,,,,,,t,4.848999977,MAT,FALSE,,,,,,,156,moto,Catalan,Sounds/cat_moto.mp3,2020-06-08_18h12.41.245,TranslationElicitation_eng-prolific,3.2.4,Win32,60,5ec8f15fce3f413ef07d6cc5,,1,0,81,49,1,80
,,,,,,,,,,,,,,,,,,,,,,,,,,,,,,,,,,,,,,,,,return,5.881000042,MAT,FALSE,,,,,,,156,moto,Catalan,Sounds/cat_moto.mp3,2020-06-08_18h12.41.245,TranslationElicitation_eng-prolific,3.2.4,Win32,60,5ec8f15fce3f413ef07d6cc5,5.881000042,1,0,81,49,1,80
,,,,,,,,,,,,,,,,,,,,,,,,,,,,,,,,,,,,,,,,,,,,,,,,,,,156,moto,Catalan,Sounds/cat_moto.mp3,2020-06-08_18h12.41.245,TranslationElicitation_eng-prolific,3.2.4,Win32,60,5ec8f15fce3f413ef07d6cc5,,1,0,81,49,1,80
,,,,,,,,,,,,,,,,,,,,,,,,,,,,,,,,,,,,,,,,,g,6.464999914,G,FALSE,,,,,,,155,moneda,Catalan,Sounds/cat_moneda.mp3,2020-06-08_18h12.41.245,TranslationElicitation_eng-prolific,3.2.4,Win32,60,5ec8f15fce3f413ef07d6cc5,,1,0,81,48,1,80
,,,,,,,,,,,,,,,,,,,,,,,,,,,,,,,,,,,,,,,,,a,6.61500001,GA,FALSE,,,,,,,155,moneda,Catalan,Sounds/cat_moneda.mp3,2020-06-08_18h12.41.245,TranslationElicitation_eng-prolific,3.2.4,Win32,60,5ec8f15fce3f413ef07d6cc5,,1,0,81,48,1,80
,,,,,,,,,,,,,,,,,,,,,,,,,,,,,,,,,,,,,,,,,r,6.780999899,GAR,FALSE,,,,,,,155,moneda,Catalan,Sounds/cat_moneda.mp3,2020-06-08_18h12.41.245,TranslationElicitation_eng-prolific,3.2.4,Win32,60,5ec8f15fce3f413ef07d6cc5,,1,0,81,48,1,80
,,,,,,,,,,,,,,,,,,,,,,,,,,,,,,,,,,,,,,,,,backspace,7.381000042,GA,TRUE,,,,,,,155,moneda,Catalan,Sounds/cat_moneda.mp3,2020-06-08_18h12.41.245,TranslationElicitation_eng-prolific,3.2.4,Win32,60,5ec8f15fce3f413ef07d6cc5,,1,0,81,48,1,80
,,,,,,,,,,,,,,,,,,,,,,,,,,,,,,,,,,,,,,,,,backspace,7.546999931,G,TRUE,,,,,,,155,moneda,Catalan,Sounds/cat_moneda.mp3,2020-06-08_18h12.41.245,TranslationElicitation_eng-prolific,3.2.4,Win32,60,5ec8f15fce3f413ef07d6cc5,,1,0,81,48,1,80
,,,,,,,,,,,,,,,,,,,,,,,,,,,,,,,,,,,,,,,,,backspace,7.763999939,,TRUE,,,,,,,155,moneda,Catalan,Sounds/cat_moneda.mp3,2020-06-08_18h12.41.245,TranslationElicitation_eng-prolific,3.2.4,Win32,60,5ec8f15fce3f413ef07d6cc5,,1,0,81,48,1,80
,,,,,,,,,,,,,,,,,,,,,,,,,,,,,,,,,,,,,,,,,t,9.914000034,T,TRUE,,,,,,,155,moneda,Catalan,Sounds/cat_moneda.mp3,2020-06-08_18h12.41.245,TranslationElicitation_eng-prolific,3.2.4,Win32,60,5ec8f15fce3f413ef07d6cc5,,1,0,81,48,1,80
,,,,,,,,,,,,,,,,,,,,,,,,,,,,,,,,,,,,,,,,,e,10.07999992,TE,TRUE,,,,,,,155,moneda,Catalan,Sounds/cat_moneda.mp3,2020-06-08_18h12.41.245,TranslationElicitation_eng-prolific,3.2.4,Win32,60,5ec8f15fce3f413ef07d6cc5,,1,0,81,48,1,80
,,,,,,,,,,,,,,,,,,,,,,,,,,,,,,,,,,,,,,,,,l,10.18099999,TEL,TRUE,,,,,,,155,moneda,Catalan,Sounds/cat_moneda.mp3,2020-06-08_18h12.41.245,TranslationElicitation_eng-prolific,3.2.4,Win32,60,5ec8f15fce3f413ef07d6cc5,,1,0,81,48,1,80
,,,,,,,,,,,,,,,,,,,,,,,,,,,,,,,,,,,,,,,,,e,10.28199983,TELE,TRUE,,,,,,,155,moneda,Catalan,Sounds/cat_moneda.mp3,2020-06-08_18h12.41.245,TranslationElicitation_eng-prolific,3.2.4,Win32,60,5ec8f15fce3f413ef07d6cc5,,1,0,81,48,1,80
,,,,,,,,,,,,,,,,,,,,,,,,,,,,,,,,,,,,,,,,,backspace,10.66299987,TEL,TRUE,,,,,,,155,moneda,Catalan,Sounds/cat_moneda.mp3,2020-06-08_18h12.41.245,TranslationElicitation_eng-prolific,3.2.4,Win32,60,5ec8f15fce3f413ef07d6cc5,,1,0,81,48,1,80
,,,,,,,,,,,,,,,,,,,,,,,,,,,,,,,,,,,,,,,,,backspace,10.84699988,TE,TRUE,,,,,,,155,moneda,Catalan,Sounds/cat_moneda.mp3,2020-06-08_18h12.41.245,TranslationElicitation_eng-prolific,3.2.4,Win32,60,5ec8f15fce3f413ef07d6cc5,,1,0,81,48,1,80
,,,,,,,,,,,,,,,,,,,,,,,,,,,,,,,,,,,,,,,,,backspace,11.01300001,T,TRUE,,,,,,,155,moneda,Catalan,Sounds/cat_moneda.mp3,2020-06-08_18h12.41.245,TranslationElicitation_eng-prolific,3.2.4,Win32,60,5ec8f15fce3f413ef07d6cc5,,1,0,81,48,1,80
,,,,,,,,,,,,,,,,,,,,,,,,,,,,,,,,,,,,,,,,,backspace,11.23000002,,TRUE,,,,,,,155,moneda,Catalan,Sounds/cat_moneda.mp3,2020-06-08_18h12.41.245,TranslationElicitation_eng-prolific,3.2.4,Win32,60,5ec8f15fce3f413ef07d6cc5,,1,0,81,48,1,80
,,,,,,,,,,,,,,,,,,,,,,,,,,,,,,,,,,,,,,,,,r,11.92499995,R,TRUE,,,,,,,155,moneda,Catalan,Sounds/cat_moneda.mp3,2020-06-08_18h12.41.245,TranslationElicitation_eng-prolific,3.2.4,Win32,60,5ec8f15fce3f413ef07d6cc5,,1,0,81,48,1,80
,,,,,,,,,,,,,,,,,,,,,,,,,,,,,,,,,,,,,,,,,backspace,12.4289999,,TRUE,,,,,,,155,moneda,Catalan,Sounds/cat_moneda.mp3,2020-06-08_18h12.41.245,TranslationElicitation_eng-prolific,3.2.4,Win32,60,5ec8f15fce3f413ef07d6cc5,,1,0,81,48,1,80
,,,,,,,,,,,,,,,,,,,,,,,,,,,,,,,,,,,,,,,,,t,14.66199994,T,TRUE,,,,,,,155,moneda,Catalan,Sounds/cat_moneda.mp3,2020-06-08_18h12.41.245,TranslationElicitation_eng-prolific,3.2.4,Win32,60,5ec8f15fce3f413ef07d6cc5,,1,0,81,48,1,80
,,,,,,,,,,,,,,,,,,,,,,,,,,,,,,,,,,,,,,,,,a,14.91199994,TA,TRUE,,,,,,,155,moneda,Catalan,Sounds/cat_moneda.mp3,2020-06-08_18h12.41.245,TranslationElicitation_eng-prolific,3.2.4,Win32,60,5ec8f15fce3f413ef07d6cc5,,1,0,81,48,1,80
,,,,,,,,,,,,,,,,,,,,,,,,,,,,,,,,,,,,,,,,,b,15.04499984,TAB,TRUE,,,,,,,155,moneda,Catalan,Sounds/cat_moneda.mp3,2020-06-08_18h12.41.245,TranslationElicitation_eng-prolific,3.2.4,Win32,60,5ec8f15fce3f413ef07d6cc5,,1,0,81,48,1,80
,,,,,,,,,,,,,,,,,,,,,,,,,,,,,,,,,,,,,,,,,l,16.52900004,TABL,TRUE,,,,,,,155,moneda,Catalan,Sounds/cat_moneda.mp3,2020-06-08_18h12.41.245,TranslationElicitation_eng-prolific,3.2.4,Win32,60,5ec8f15fce3f413ef07d6cc5,,1,0,81,48,1,80
,,,,,,,,,,,,,,,,,,,,,,,,,,,,,,,,,,,,,,,,,e,18.91100001,TABLE,TRUE,,,,,,,155,moneda,Catalan,Sounds/cat_moneda.mp3,2020-06-08_18h12.41.245,TranslationElicitation_eng-prolific,3.2.4,Win32,60,5ec8f15fce3f413ef07d6cc5,,1,0,81,48,1,80
,,,,,,,,,,,,,,,,,,,,,,,,,,,,,,,,,,,,,,,,,return,19.09399986,TABLE,TRUE,,,,,,,155,moneda,Catalan,Sounds/cat_moneda.mp3,2020-06-08_18h12.41.245,TranslationElicitation_eng-prolific,3.2.4,Win32,60,5ec8f15fce3f413ef07d6cc5,19.09399986,1,0,81,48,1,80
,,,,,,,,,,,,,,,,,,,,,,,,,,,,,,,,,,,,,,,,,,,,,,,,,,,155,moneda,Catalan,Sounds/cat_moneda.mp3,2020-06-08_18h12.41.245,TranslationElicitation_eng-prolific,3.2.4,Win32,60,5ec8f15fce3f413ef07d6cc5,,1,0,81,48,1,80
,,,,,,,,,,,,,,,,,,,,,,,,,,,,,,,,,,,,,,,,,c,2.129999876,C,FALSE,,,,,,,127,cotxe,Catalan,Sounds/cat_cotxe.mp3,2020-06-08_18h12.41.245,TranslationElicitation_eng-prolific,3.2.4,Win32,60,5ec8f15fce3f413ef07d6cc5,,1,0,81,21,1,80
,,,,,,,,,,,,,,,,,,,,,,,,,,,,,,,,,,,,,,,,,o,2.263999939,CO,FALSE,,,,,,,127,cotxe,Catalan,Sounds/cat_cotxe.mp3,2020-06-08_18h12.41.245,TranslationElicitation_eng-prolific,3.2.4,Win32,60,5ec8f15fce3f413ef07d6cc5,,1,0,81,21,1,80
,,,,,,,,,,,,,,,,,,,,,,,,,,,,,,,,,,,,,,,,,u,2.412999868,COU,FALSE,,,,,,,127,cotxe,Catalan,Sounds/cat_cotxe.mp3,2020-06-08_18h12.41.245,TranslationElicitation_eng-prolific,3.2.4,Win32,60,5ec8f15fce3f413ef07d6cc5,,1,0,81,21,1,80
,,,,,,,,,,,,,,,,,,,,,,,,,,,,,,,,,,,,,,,,,c,2.529999971,COUC,FALSE,,,,,,,127,cotxe,Catalan,Sounds/cat_cotxe.mp3,2020-06-08_18h12.41.245,TranslationElicitation_eng-prolific,3.2.4,Win32,60,5ec8f15fce3f413ef07d6cc5,,1,0,81,21,1,80
,,,,,,,,,,,,,,,,,,,,,,,,,,,,,,,,,,,,,,,,,h,2.614000082,COUCH,FALSE,,,,,,,127,cotxe,Catalan,Sounds/cat_cotxe.mp3,2020-06-08_18h12.41.245,TranslationElicitation_eng-prolific,3.2.4,Win32,60,5ec8f15fce3f413ef07d6cc5,,1,0,81,21,1,80
,,,,,,,,,,,,,,,,,,,,,,,,,,,,,,,,,,,,,,,,,return,3.412999868,COUCH,FALSE,,,,,,,127,cotxe,Catalan,Sounds/cat_cotxe.mp3,2020-06-08_18h12.41.245,TranslationElicitation_eng-prolific,3.2.4,Win32,60,5ec8f15fce3f413ef07d6cc5,3.412999868,1,0,81,21,1,80
,,,,,,,,,,,,,,,,,,,,,,,,,,,,,,,,,,,,,,,,,,,,,,,,,,,127,cotxe,Catalan,Sounds/cat_cotxe.mp3,2020-06-08_18h12.41.245,TranslationElicitation_eng-prolific,3.2.4,Win32,60,5ec8f15fce3f413ef07d6cc5,,1,0,81,21,1,80
,,,,,,,,,,,,,,,,,,,,,,,,,,,,,,,,,,,,,,,,,p,2.484000206,P,FALSE,,,,,,,173,porc,Catalan,Sounds/cat_porc.mp3,2020-06-08_18h12.41.245,TranslationElicitation_eng-prolific,3.2.4,Win32,60,5ec8f15fce3f413ef07d6cc5,,1,0,81,65,1,80
,,,,,,,,,,,,,,,,,,,,,,,,,,,,,,,,,,,,,,,,,a,2.566000223,PA,FALSE,,,,,,,173,porc,Catalan,Sounds/cat_porc.mp3,2020-06-08_18h12.41.245,TranslationElicitation_eng-prolific,3.2.4,Win32,60,5ec8f15fce3f413ef07d6cc5,,1,0,81,65,1,80
,,,,,,,,,,,,,,,,,,,,,,,,,,,,,,,,,,,,,,,,,r,2.767000198,PAR,FALSE,,,,,,,173,porc,Catalan,Sounds/cat_porc.mp3,2020-06-08_18h12.41.245,TranslationElicitation_eng-prolific,3.2.4,Win32,60,5ec8f15fce3f413ef07d6cc5,,1,0,81,65,1,80
,,,,,,,,,,,,,,,,,,,,,,,,,,,,,,,,,,,,,,,,,k,2.899000168,PARK,FALSE,,,,,,,173,porc,Catalan,Sounds/cat_porc.mp3,2020-06-08_18h12.41.245,TranslationElicitation_eng-prolific,3.2.4,Win32,60,5ec8f15fce3f413ef07d6cc5,,1,0,81,65,1,80
,,,,,,,,,,,,,,,,,,,,,,,,,,,,,,,,,,,,,,,,,return,3.332000017,PARK,FALSE,,,,,,,173,porc,Catalan,Sounds/cat_porc.mp3,2020-06-08_18h12.41.245,TranslationElicitation_eng-prolific,3.2.4,Win32,60,5ec8f15fce3f413ef07d6cc5,3.332000017,1,0,81,65,1,80
,,,,,,,,,,,,,,,,,,,,,,,,,,,,,,,,,,,,,,,,,,,,,,,,,,,173,porc,Catalan,Sounds/cat_porc.mp3,2020-06-08_18h12.41.245,TranslationElicitation_eng-prolific,3.2.4,Win32,60,5ec8f15fce3f413ef07d6cc5,,1,0,81,65,1,80
,,,,,,,,,,,,,,,,,,,,,,,,,,,,,,,,,,,,,,,,,b,2.267000198,B,FALSE,,,,,,,162,pa,Catalan,Sounds/cat_pa.mp3,2020-06-08_18h12.41.245,TranslationElicitation_eng-prolific,3.2.4,Win32,60,5ec8f15fce3f413ef07d6cc5,,1,0,81,54,1,80
,,,,,,,,,,,,,,,,,,,,,,,,,,,,,,,,,,,,,,,,,a,2.383000135,BA,FALSE,,,,,,,162,pa,Catalan,Sounds/cat_pa.mp3,2020-06-08_18h12.41.245,TranslationElicitation_eng-prolific,3.2.4,Win32,60,5ec8f15fce3f413ef07d6cc5,,1,0,81,54,1,80
,,,,,,,,,,,,,,,,,,,,,,,,,,,,,,,,,,,,,,,,,r,2.583000183,BAR,FALSE,,,,,,,162,pa,Catalan,Sounds/cat_pa.mp3,2020-06-08_18h12.41.245,TranslationElicitation_eng-prolific,3.2.4,Win32,60,5ec8f15fce3f413ef07d6cc5,,1,0,81,54,1,80
,,,,,,,,,,,,,,,,,,,,,,,,,,,,,,,,,,,,,,,,,return,2.815999985,BAR,FALSE,,,,,,,162,pa,Catalan,Sounds/cat_pa.mp3,2020-06-08_18h12.41.245,TranslationElicitation_eng-prolific,3.2.4,Win32,60,5ec8f15fce3f413ef07d6cc5,2.815999985,1,0,81,54,1,80
,,,,,,,,,,,,,,,,,,,,,,,,,,,,,,,,,,,,,,,,,,,,,,,,,,,162,pa,Catalan,Sounds/cat_pa.mp3,2020-06-08_18h12.41.245,TranslationElicitation_eng-prolific,3.2.4,Win32,60,5ec8f15fce3f413ef07d6cc5,,1,0,81,54,1,80
,,,,,,,,,,,,,,,,,,,,,,,,,,,,,,,,,,,,,,,,,g,2.549000025,G,FALSE,,,,,,,140,gat,Catalan,Sounds/cat_gat.mp3,2020-06-08_18h12.41.245,TranslationElicitation_eng-prolific,3.2.4,Win32,60,5ec8f15fce3f413ef07d6cc5,,1,0,81,34,1,80
,,,,,,,,,,,,,,,,,,,,,,,,,,,,,,,,,,,,,,,,,a,2.71600008,GA,FALSE,,,,,,,140,gat,Catalan,Sounds/cat_gat.mp3,2020-06-08_18h12.41.245,TranslationElicitation_eng-prolific,3.2.4,Win32,60,5ec8f15fce3f413ef07d6cc5,,1,0,81,34,1,80
,,,,,,,,,,,,,,,,,,,,,,,,,,,,,,,,,,,,,,,,,r,2.866000175,GAR,FALSE,,,,,,,140,gat,Catalan,Sounds/cat_gat.mp3,2020-06-08_18h12.41.245,TranslationElicitation_eng-prolific,3.2.4,Win32,60,5ec8f15fce3f413ef07d6cc5,,1,0,81,34,1,80
,,,,,,,,,,,,,,,,,,,,,,,,,,,,,,,,,,,,,,,,,d,2.982000113,GARD,FALSE,,,,,,,140,gat,Catalan,Sounds/cat_gat.mp3,2020-06-08_18h12.41.245,TranslationElicitation_eng-prolific,3.2.4,Win32,60,5ec8f15fce3f413ef07d6cc5,,1,0,81,34,1,80
,,,,,,,,,,,,,,,,,,,,,,,,,,,,,,,,,,,,,,,,,e,3.149000168,GARDE,FALSE,,,,,,,140,gat,Catalan,Sounds/cat_gat.mp3,2020-06-08_18h12.41.245,TranslationElicitation_eng-prolific,3.2.4,Win32,60,5ec8f15fce3f413ef07d6cc5,,1,0,81,34,1,80
,,,,,,,,,,,,,,,,,,,,,,,,,,,,,,,,,,,,,,,,,n,3.782000065,GARDEN,FALSE,,,,,,,140,gat,Catalan,Sounds/cat_gat.mp3,2020-06-08_18h12.41.245,TranslationElicitation_eng-prolific,3.2.4,Win32,60,5ec8f15fce3f413ef07d6cc5,,1,0,81,34,1,80
,,,,,,,,,,,,,,,,,,,,,,,,,,,,,,,,,,,,,,,,,return,4.198000193,GARDEN,FALSE,,,,,,,140,gat,Catalan,Sounds/cat_gat.mp3,2020-06-08_18h12.41.245,TranslationElicitation_eng-prolific,3.2.4,Win32,60,5ec8f15fce3f413ef07d6cc5,4.198000193,1,0,81,34,1,80
,,,,,,,,,,,,,,,,,,,,,,,,,,,,,,,,,,,,,,,,,,,,,,,,,,,140,gat,Catalan,Sounds/cat_gat.mp3,2020-06-08_18h12.41.245,TranslationElicitation_eng-prolific,3.2.4,Win32,60,5ec8f15fce3f413ef07d6cc5,,1,0,81,34,1,80
,,,,,,,,,,,,,,,,,,,,,,,,,,,,,,,,,,,,,,,,,b,2.5,B,FALSE,,,,,,,117,boto,Catalan,Sounds/cat_boto.mp3,2020-06-08_18h12.41.245,TranslationElicitation_eng-prolific,3.2.4,Win32,60,5ec8f15fce3f413ef07d6cc5,,1,0,81,12,1,80
,,,,,,,,,,,,,,,,,,,,,,,,,,,,,,,,,,,,,,,,,o,2.648999929,BO,FALSE,,,,,,,117,boto,Catalan,Sounds/cat_boto.mp3,2020-06-08_18h12.41.245,TranslationElicitation_eng-prolific,3.2.4,Win32,60,5ec8f15fce3f413ef07d6cc5,,1,0,81,12,1,80
,,,,,,,,,,,,,,,,,,,,,,,,,,,,,,,,,,,,,,,,,t,2.766000032,BOT,FALSE,,,,,,,117,boto,Catalan,Sounds/cat_boto.mp3,2020-06-08_18h12.41.245,TranslationElicitation_eng-prolific,3.2.4,Win32,60,5ec8f15fce3f413ef07d6cc5,,1,0,81,12,1,80
,,,,,,,,,,,,,,,,,,,,,,,,,,,,,,,,,,,,,,,,,t,2.898999929,BOTT,FALSE,,,,,,,117,boto,Catalan,Sounds/cat_boto.mp3,2020-06-08_18h12.41.245,TranslationElicitation_eng-prolific,3.2.4,Win32,60,5ec8f15fce3f413ef07d6cc5,,1,0,81,12,1,80
,,,,,,,,,,,,,,,,,,,,,,,,,,,,,,,,,,,,,,,,,l,2.998999834,BOTTL,FALSE,,,,,,,117,boto,Catalan,Sounds/cat_boto.mp3,2020-06-08_18h12.41.245,TranslationElicitation_eng-prolific,3.2.4,Win32,60,5ec8f15fce3f413ef07d6cc5,,1,0,81,12,1,80
,,,,,,,,,,,,,,,,,,,,,,,,,,,,,,,,,,,,,,,,,e,3.131999969,BOTTLE,FALSE,,,,,,,117,boto,Catalan,Sounds/cat_boto.mp3,2020-06-08_18h12.41.245,TranslationElicitation_eng-prolific,3.2.4,Win32,60,5ec8f15fce3f413ef07d6cc5,,1,0,81,12,1,80
,,,,,,,,,,,,,,,,,,,,,,,,,,,,,,,,,,,,,,,,,return,3.381999969,BOTTLE,FALSE,,,,,,,117,boto,Catalan,Sounds/cat_boto.mp3,2020-06-08_18h12.41.245,TranslationElicitation_eng-prolific,3.2.4,Win32,60,5ec8f15fce3f413ef07d6cc5,3.381999969,1,0,81,12,1,80
,,,,,,,,,,,,,,,,,,,,,,,,,,,,,,,,,,,,,,,,,,,,,,,,,,,117,boto,Catalan,Sounds/cat_boto.mp3,2020-06-08_18h12.41.245,TranslationElicitation_eng-prolific,3.2.4,Win32,60,5ec8f15fce3f413ef07d6cc5,,1,0,81,12,1,80
,,,,,,,,,,,,,,,,,,,,,,,,,,,,,,,,,,,,,,,,,c,1.815000057,C,FALSE,,,,,,,120,cama,Catalan,Sounds/cat_cama.mp3,2020-06-08_18h12.41.245,TranslationElicitation_eng-prolific,3.2.4,Win32,60,5ec8f15fce3f413ef07d6cc5,,1,0,81,15,1,80
,,,,,,,,,,,,,,,,,,,,,,,,,,,,,,,,,,,,,,,,,a,2.015000105,CA,FALSE,,,,,,,120,cama,Catalan,Sounds/cat_cama.mp3,2020-06-08_18h12.41.245,TranslationElicitation_eng-prolific,3.2.4,Win32,60,5ec8f15fce3f413ef07d6cc5,,1,0,81,15,1,80
,,,,,,,,,,,,,,,,,,,,,,,,,,,,,,,,,,,,,,,,,m,2.148999929,CAM,FALSE,,,,,,,120,cama,Catalan,Sounds/cat_cama.mp3,2020-06-08_18h12.41.245,TranslationElicitation_eng-prolific,3.2.4,Win32,60,5ec8f15fce3f413ef07d6cc5,,1,0,81,15,1,80
,,,,,,,,,,,,,,,,,,,,,,,,,,,,,,,,,,,,,,,,,e,2.298000097,CAME,FALSE,,,,,,,120,cama,Catalan,Sounds/cat_cama.mp3,2020-06-08_18h12.41.245,TranslationElicitation_eng-prolific,3.2.4,Win32,60,5ec8f15fce3f413ef07d6cc5,,1,0,81,15,1,80
,,,,,,,,,,,,,,,,,,,,,,,,,,,,,,,,,,,,,,,,,r,2.447999954,CAMER,FALSE,,,,,,,120,cama,Catalan,Sounds/cat_cama.mp3,2020-06-08_18h12.41.245,TranslationElicitation_eng-prolific,3.2.4,Win32,60,5ec8f15fce3f413ef07d6cc5,,1,0,81,15,1,80
,,,,,,,,,,,,,,,,,,,,,,,,,,,,,,,,,,,,,,,,,a,2.648000002,CAMERA,FALSE,,,,,,,120,cama,Catalan,Sounds/cat_cama.mp3,2020-06-08_18h12.41.245,TranslationElicitation_eng-prolific,3.2.4,Win32,60,5ec8f15fce3f413ef07d6cc5,,1,0,81,15,1,80
,,,,,,,,,,,,,,,,,,,,,,,,,,,,,,,,,,,,,,,,,return,2.997999907,CAMERA,FALSE,,,,,,,120,cama,Catalan,Sounds/cat_cama.mp3,2020-06-08_18h12.41.245,TranslationElicitation_eng-prolific,3.2.4,Win32,60,5ec8f15fce3f413ef07d6cc5,2.997999907,1,0,81,15,1,80
,,,,,,,,,,,,,,,,,,,,,,,,,,,,,,,,,,,,,,,,,,,,,,,,,,,120,cama,Catalan,Sounds/cat_cama.mp3,2020-06-08_18h12.41.245,TranslationElicitation_eng-prolific,3.2.4,Win32,60,5ec8f15fce3f413ef07d6cc5,,1,0,81,15,1,80
,,,,,,,,,,,,,,,,,,,,,,,,,,,,,,,,,,,,,,,,,v,3.230999947,V,FALSE,,,,,,,106,aixeta,Catalan,Sounds/cat_aixeta.mp3,2020-06-08_18h12.41.245,TranslationElicitation_eng-prolific,3.2.4,Win32,60,5ec8f15fce3f413ef07d6cc5,,1,0,81,2,1,80
,,,,,,,,,,,,,,,,,,,,,,,,,,,,,,,,,,,,,,,,,e,3.363999844,VE,FALSE,,,,,,,106,aixeta,Catalan,Sounds/cat_aixeta.mp3,2020-06-08_18h12.41.245,TranslationElicitation_eng-prolific,3.2.4,Win32,60,5ec8f15fce3f413ef07d6cc5,,1,0,81,2,1,80
,,,,,,,,,,,,,,,,,,,,,,,,,,,,,,,,,,,,,,,,,g,3.580999851,VEG,FALSE,,,,,,,106,aixeta,Catalan,Sounds/cat_aixeta.mp3,2020-06-08_18h12.41.245,TranslationElicitation_eng-prolific,3.2.4,Win32,60,5ec8f15fce3f413ef07d6cc5,,1,0,81,2,1,80
,,,,,,,,,,,,,,,,,,,,,,,,,,,,,,,,,,,,,,,,,e,3.764999866,VEGE,FALSE,,,,,,,106,aixeta,Catalan,Sounds/cat_aixeta.mp3,2020-06-08_18h12.41.245,TranslationElicitation_eng-prolific,3.2.4,Win32,60,5ec8f15fce3f413ef07d6cc5,,1,0,81,2,1,80
,,,,,,,,,,,,,,,,,,,,,,,,,,,,,,,,,,,,,,,,,backspace,7.248999834,VEG,TRUE,,,,,,,106,aixeta,Catalan,Sounds/cat_aixeta.mp3,2020-06-08_18h12.41.245,TranslationElicitation_eng-prolific,3.2.4,Win32,60,5ec8f15fce3f413ef07d6cc5,,1,0,81,2,1,80
,,,,,,,,,,,,,,,,,,,,,,,,,,,,,,,,,,,,,,,,,backspace,7.746000051,VE,TRUE,,,,,,,106,aixeta,Catalan,Sounds/cat_aixeta.mp3,2020-06-08_18h12.41.245,TranslationElicitation_eng-prolific,3.2.4,Win32,60,5ec8f15fce3f413ef07d6cc5,,1,0,81,2,1,80
,,,,,,,,,,,,,,,,,,,,,,,,,,,,,,,,,,,,,,,,,backspace,7.779999971,V,TRUE,,,,,,,106,aixeta,Catalan,Sounds/cat_aixeta.mp3,2020-06-08_18h12.41.245,TranslationElicitation_eng-prolific,3.2.4,Win32,60,5ec8f15fce3f413ef07d6cc5,,1,0,81,2,1,80
,,,,,,,,,,,,,,,,,,,,,,,,,,,,,,,,,,,,,,,,,backspace,8.279999971,,TRUE,,,,,,,106,aixeta,Catalan,Sounds/cat_aixeta.mp3,2020-06-08_18h12.41.245,TranslationElicitation_eng-prolific,3.2.4,Win32,60,5ec8f15fce3f413ef07d6cc5,,1,0,81,2,1,80
,,,,,,,,,,,,,,,,,,,,,,,,,,,,,,,,,,,,,,,,,r,8.496000051,R,TRUE,,,,,,,106,aixeta,Catalan,Sounds/cat_aixeta.mp3,2020-06-08_18h12.41.245,TranslationElicitation_eng-prolific,3.2.4,Win32,60,5ec8f15fce3f413ef07d6cc5,,1,0,81,2,1,80
,,,,,,,,,,,,,,,,,,,,,,,,,,,,,,,,,,,,,,,,,u,8.695999861,RU,TRUE,,,,,,,106,aixeta,Catalan,Sounds/cat_aixeta.mp3,2020-06-08_18h12.41.245,TranslationElicitation_eng-prolific,3.2.4,Win32,60,5ec8f15fce3f413ef07d6cc5,,1,0,81,2,1,80
,,,,,,,,,,,,,,,,,,,,,,,,,,,,,,,,,,,,,,,,,b,8.912999868,RUB,TRUE,,,,,,,106,aixeta,Catalan,Sounds/cat_aixeta.mp3,2020-06-08_18h12.41.245,TranslationElicitation_eng-prolific,3.2.4,Win32,60,5ec8f15fce3f413ef07d6cc5,,1,0,81,2,1,80
,,,,,,,,,,,,,,,,,,,,,,,,,,,,,,,,,,,,,,,,,b,9.029000044,RUBB,TRUE,,,,,,,106,aixeta,Catalan,Sounds/cat_aixeta.mp3,2020-06-08_18h12.41.245,TranslationElicitation_eng-prolific,3.2.4,Win32,60,5ec8f15fce3f413ef07d6cc5,,1,0,81,2,1,80
,,,,,,,,,,,,,,,,,,,,,,,,,,,,,,,,,,,,,,,,,i,9.213000059,RUBBI,TRUE,,,,,,,106,aixeta,Catalan,Sounds/cat_aixeta.mp3,2020-06-08_18h12.41.245,TranslationElicitation_eng-prolific,3.2.4,Win32,60,5ec8f15fce3f413ef07d6cc5,,1,0,81,2,1,80
,,,,,,,,,,,,,,,,,,,,,,,,,,,,,,,,,,,,,,,,,s,9.328999996,RUBBIS,TRUE,,,,,,,106,aixeta,Catalan,Sounds/cat_aixeta.mp3,2020-06-08_18h12.41.245,TranslationElicitation_eng-prolific,3.2.4,Win32,60,5ec8f15fce3f413ef07d6cc5,,1,0,81,2,1,80
,,,,,,,,,,,,,,,,,,,,,,,,,,,,,,,,,,,,,,,,,h,9.414000034,RUBBISH,TRUE,,,,,,,106,aixeta,Catalan,Sounds/cat_aixeta.mp3,2020-06-08_18h12.41.245,TranslationElicitation_eng-prolific,3.2.4,Win32,60,5ec8f15fce3f413ef07d6cc5,,1,0,81,2,1,80
,,,,,,,,,,,,,,,,,,,,,,,,,,,,,,,,,,,,,,,,,return,10.47899985,RUBBISH,TRUE,,,,,,,106,aixeta,Catalan,Sounds/cat_aixeta.mp3,2020-06-08_18h12.41.245,TranslationElicitation_eng-prolific,3.2.4,Win32,60,5ec8f15fce3f413ef07d6cc5,10.47899985,1,0,81,2,1,80
,,,,,,,,,,,,,,,,,,,,,,,,,,,,,,,,,,,,,,,,,,,,,,,,,,,106,aixeta,Catalan,Sounds/cat_aixeta.mp3,2020-06-08_18h12.41.245,TranslationElicitation_eng-prolific,3.2.4,Win32,60,5ec8f15fce3f413ef07d6cc5,,1,0,81,2,1,80
,,,,,,,,,,,,,,,,,,,,,,,,,,,,,,,,,,,,,,,,,m,1.94900012,M,FALSE,,,,,,,151,lluna,Catalan,Sounds/cat_lluna.mp3,2020-06-08_18h12.41.245,TranslationElicitation_eng-prolific,3.2.4,Win32,60,5ec8f15fce3f413ef07d6cc5,,1,0,81,44,1,80
,,,,,,,,,,,,,,,,,,,,,,,,,,,,,,,,,,,,,,,,,o,2.082000017,MO,FALSE,,,,,,,151,lluna,Catalan,Sounds/cat_lluna.mp3,2020-06-08_18h12.41.245,TranslationElicitation_eng-prolific,3.2.4,Win32,60,5ec8f15fce3f413ef07d6cc5,,1,0,81,44,1,80
,,,,,,,,,,,,,,,,,,,,,,,,,,,,,,,,,,,,,,,,,o,2.232000113,MOO,FALSE,,,,,,,151,lluna,Catalan,Sounds/cat_lluna.mp3,2020-06-08_18h12.41.245,TranslationElicitation_eng-prolific,3.2.4,Win32,60,5ec8f15fce3f413ef07d6cc5,,1,0,81,44,1,80
,,,,,,,,,,,,,,,,,,,,,,,,,,,,,,,,,,,,,,,,,n,3.049000025,MOON,FALSE,,,,,,,151,lluna,Catalan,Sounds/cat_lluna.mp3,2020-06-08_18h12.41.245,TranslationElicitation_eng-prolific,3.2.4,Win32,60,5ec8f15fce3f413ef07d6cc5,,1,0,81,44,1,80
,,,,,,,,,,,,,,,,,,,,,,,,,,,,,,,,,,,,,,,,,return,3.465000153,MOON,FALSE,,,,,,,151,lluna,Catalan,Sounds/cat_lluna.mp3,2020-06-08_18h12.41.245,TranslationElicitation_eng-prolific,3.2.4,Win32,60,5ec8f15fce3f413ef07d6cc5,3.465000153,1,0,81,44,1,80
,,,,,,,,,,,,,,,,,,,,,,,,,,,,,,,,,,,,,,,,,,,,,,,,,,,151,lluna,Catalan,Sounds/cat_lluna.mp3,2020-06-08_18h12.41.245,TranslationElicitation_eng-prolific,3.2.4,Win32,60,5ec8f15fce3f413ef07d6cc5,,1,0,81,44,1,80
,,,,,,,,,,,,,,,,,,,,,,,,,,,,,,,,,,,,,,,,,b,2.398000002,B,FALSE,,,,,,,169,plat,Catalan,Sounds/cat_plat.mp3,2020-06-08_18h12.41.245,TranslationElicitation_eng-prolific,3.2.4,Win32,60,5ec8f15fce3f413ef07d6cc5,,1,0,81,61,1,80
,,,,,,,,,,,,,,,,,,,,,,,,,,,,,,,,,,,,,,,,,l,3.58100009,BL,FALSE,,,,,,,169,plat,Catalan,Sounds/cat_plat.mp3,2020-06-08_18h12.41.245,TranslationElicitation_eng-prolific,3.2.4,Win32,60,5ec8f15fce3f413ef07d6cc5,,1,0,81,61,1,80
,,,,,,,,,,,,,,,,,,,,,,,,,,,,,,,,,,,,,,,,,a,3.664999962,BLA,FALSE,,,,,,,169,plat,Catalan,Sounds/cat_plat.mp3,2020-06-08_18h12.41.245,TranslationElicitation_eng-prolific,3.2.4,Win32,60,5ec8f15fce3f413ef07d6cc5,,1,0,81,61,1,80
,,,,,,,,,,,,,,,,,,,,,,,,,,,,,,,,,,,,,,,,,c,3.84800005,BLAC,FALSE,,,,,,,169,plat,Catalan,Sounds/cat_plat.mp3,2020-06-08_18h12.41.245,TranslationElicitation_eng-prolific,3.2.4,Win32,60,5ec8f15fce3f413ef07d6cc5,,1,0,81,61,1,80
,,,,,,,,,,,,,,,,,,,,,,,,,,,,,,,,,,,,,,,,,k,3.947999954,BLACK,FALSE,,,,,,,169,plat,Catalan,Sounds/cat_plat.mp3,2020-06-08_18h12.41.245,TranslationElicitation_eng-prolific,3.2.4,Win32,60,5ec8f15fce3f413ef07d6cc5,,1,0,81,61,1,80
,,,,,,,,,,,,,,,,,,,,,,,,,,,,,,,,,,,,,,,,,return,4.280999899,BLACK,FALSE,,,,,,,169,plat,Catalan,Sounds/cat_plat.mp3,2020-06-08_18h12.41.245,TranslationElicitation_eng-prolific,3.2.4,Win32,60,5ec8f15fce3f413ef07d6cc5,4.280999899,1,0,81,61,1,80
,,,,,,,,,,,,,,,,,,,,,,,,,,,,,,,,,,,,,,,,,,,,,,,,,,,169,plat,Catalan,Sounds/cat_plat.mp3,2020-06-08_18h12.41.245,TranslationElicitation_eng-prolific,3.2.4,Win32,60,5ec8f15fce3f413ef07d6cc5,,1,0,81,61,1,80
,,,,,,,,,,,,,,,,,,,,,,,,,,,,,,,,,,,,,,,,,a,1.999000072,A,FALSE,,,,,,,132,estrella,Catalan,Sounds/cat_estrella.mp3,2020-06-08_18h12.41.245,TranslationElicitation_eng-prolific,3.2.4,Win32,60,5ec8f15fce3f413ef07d6cc5,,1,0,81,26,1,80
,,,,,,,,,,,,,,,,,,,,,,,,,,,,,,,,,,,,,,,,,u,2.133000135,AU,FALSE,,,,,,,132,estrella,Catalan,Sounds/cat_estrella.mp3,2020-06-08_18h12.41.245,TranslationElicitation_eng-prolific,3.2.4,Win32,60,5ec8f15fce3f413ef07d6cc5,,1,0,81,26,1,80
,,,,,,,,,,,,,,,,,,,,,,,,,,,,,,,,,,,,,,,,,s,2.21600008,AUS,FALSE,,,,,,,132,estrella,Catalan,Sounds/cat_estrella.mp3,2020-06-08_18h12.41.245,TranslationElicitation_eng-prolific,3.2.4,Win32,60,5ec8f15fce3f413ef07d6cc5,,1,0,81,26,1,80
,,,,,,,,,,,,,,,,,,,,,,,,,,,,,,,,,,,,,,,,,t,2.882000208,AUST,FALSE,,,,,,,132,estrella,Catalan,Sounds/cat_estrella.mp3,2020-06-08_18h12.41.245,TranslationElicitation_eng-prolific,3.2.4,Win32,60,5ec8f15fce3f413ef07d6cc5,,1,0,81,26,1,80
,,,,,,,,,,,,,,,,,,,,,,,,,,,,,,,,,,,,,,,,,r,3.016000032,AUSTR,FALSE,,,,,,,132,estrella,Catalan,Sounds/cat_estrella.mp3,2020-06-08_18h12.41.245,TranslationElicitation_eng-prolific,3.2.4,Win32,60,5ec8f15fce3f413ef07d6cc5,,1,0,81,26,1,80
,,,,,,,,,,,,,,,,,,,,,,,,,,,,,,,,,,,,,,,,,a,3.649000168,AUSTRA,FALSE,,,,,,,132,estrella,Catalan,Sounds/cat_estrella.mp3,2020-06-08_18h12.41.245,TranslationElicitation_eng-prolific,3.2.4,Win32,60,5ec8f15fce3f413ef07d6cc5,,1,0,81,26,1,80
,,,,,,,,,,,,,,,,,,,,,,,,,,,,,,,,,,,,,,,,,l,3.846000195,AUSTRAL,FALSE,,,,,,,132,estrella,Catalan,Sounds/cat_estrella.mp3,2020-06-08_18h12.41.245,TranslationElicitation_eng-prolific,3.2.4,Win32,60,5ec8f15fce3f413ef07d6cc5,,1,0,81,26,1,80
,,,,,,,,,,,,,,,,,,,,,,,,,,,,,,,,,,,,,,,,,i,4.032000065,AUSTRALI,FALSE,,,,,,,132,estrella,Catalan,Sounds/cat_estrella.mp3,2020-06-08_18h12.41.245,TranslationElicitation_eng-prolific,3.2.4,Win32,60,5ec8f15fce3f413ef07d6cc5,,1,0,81,26,1,80
,,,,,,,,,,,,,,,,,,,,,,,,,,,,,,,,,,,,,,,,,a,4.116000175,AUSTRALIA,FALSE,,,,,,,132,estrella,Catalan,Sounds/cat_estrella.mp3,2020-06-08_18h12.41.245,TranslationElicitation_eng-prolific,3.2.4,Win32,60,5ec8f15fce3f413ef07d6cc5,,1,0,81,26,1,80
,,,,,,,,,,,,,,,,,,,,,,,,,,,,,,,,,,,,,,,,,return,4.6650002,AUSTRALIA,FALSE,,,,,,,132,estrella,Catalan,Sounds/cat_estrella.mp3,2020-06-08_18h12.41.245,TranslationElicitation_eng-prolific,3.2.4,Win32,60,5ec8f15fce3f413ef07d6cc5,4.6650002,1,0,81,26,1,80
,,,,,,,,,,,,,,,,,,,,,,,,,,,,,,,,,,,,,,,,,,,,,,,,,,,132,estrella,Catalan,Sounds/cat_estrella.mp3,2020-06-08_18h12.41.245,TranslationElicitation_eng-prolific,3.2.4,Win32,60,5ec8f15fce3f413ef07d6cc5,,1,0,81,26,1,80
,,,,,,,,,,,,,,,,,,,,,,,,,,,,,,,,,,,,,,,,,c,4.164999962,C,FALSE,,,,,,,129,dit,Catalan,Sounds/cat_dit.mp3,2020-06-08_18h12.41.245,TranslationElicitation_eng-prolific,3.2.4,Win32,60,5ec8f15fce3f413ef07d6cc5,,1,0,81,23,1,80
,,,,,,,,,,,,,,,,,,,,,,,,,,,,,,,,,,,,,,,,,h,4.248999834,CH,FALSE,,,,,,,129,dit,Catalan,Sounds/cat_dit.mp3,2020-06-08_18h12.41.245,TranslationElicitation_eng-prolific,3.2.4,Win32,60,5ec8f15fce3f413ef07d6cc5,,1,0,81,23,1,80
,,,,,,,,,,,,,,,,,,,,,,,,,,,,,,,,,,,,,,,,,o,4.414999962,CHO,FALSE,,,,,,,129,dit,Catalan,Sounds/cat_dit.mp3,2020-06-08_18h12.41.245,TranslationElicitation_eng-prolific,3.2.4,Win32,60,5ec8f15fce3f413ef07d6cc5,,1,0,81,23,1,80
,,,,,,,,,,,,,,,,,,,,,,,,,,,,,,,,,,,,,,,,,r,4.498999834,CHOR,FALSE,,,,,,,129,dit,Catalan,Sounds/cat_dit.mp3,2020-06-08_18h12.41.245,TranslationElicitation_eng-prolific,3.2.4,Win32,60,5ec8f15fce3f413ef07d6cc5,,1,0,81,23,1,80
,,,,,,,,,,,,,,,,,,,,,,,,,,,,,,,,,,,,,,,,,e,4.686999798,CHORE,FALSE,,,,,,,129,dit,Catalan,Sounds/cat_dit.mp3,2020-06-08_18h12.41.245,TranslationElicitation_eng-prolific,3.2.4,Win32,60,5ec8f15fce3f413ef07d6cc5,,1,0,81,23,1,80
,,,,,,,,,,,,,,,,,,,,,,,,,,,,,,,,,,,,,,,,,return,5.330999851,CHORE,FALSE,,,,,,,129,dit,Catalan,Sounds/cat_dit.mp3,2020-06-08_18h12.41.245,TranslationElicitation_eng-prolific,3.2.4,Win32,60,5ec8f15fce3f413ef07d6cc5,5.330999851,1,0,81,23,1,80
,,,,,,,,,,,,,,,,,,,,,,,,,,,,,,,,,,,,,,,,,,,,,,,,,,,129,dit,Catalan,Sounds/cat_dit.mp3,2020-06-08_18h12.41.245,TranslationElicitation_eng-prolific,3.2.4,Win32,60,5ec8f15fce3f413ef07d6cc5,,1,0,81,23,1,80
