consentKey.keys,consentKey.rt,languageL1Key.keys,languageL1Key.rt,languageL2,languageL2OralKey.keys,languageL2OralKey.rt,languageL2WrittenKey.keys,languageL2WrittenKey.rt,languageL3OralKey.keys,languageL3OralKey.rt,languageL3WrittenKey.keys,languageL3WrittenKey.rt,languageCatalanOralKey.keys,languageCatalanOralKey.rt,languageCatalanWrittenKey.keys,languageCatalanWrittenKey.rt,languageCatalanTimeKey.keys,languageCatalanTimeKey.rt,languageSpanishOralKey.keys,languageSpanishOralKey.rt,languageSpanishWrittenKey.keys,languageSpanishWrittenKey.rt,languageSpanishTimeKey.keys,languageSpanishTimeKey.rt,age,demoSexKey.keys,demoSexKey.rt,demoEducationKey.keys,demoEducationKey.rt,city,demoVisionKey.keys,demoVisionKey.rt,demoLanguageKey.keys,demoLanguageKey.rt,setupLocationKey.keys,setupLocationKey.rt,setupNoiseKey.keys,setupNoiseKey.rt,instructionsKeys.keys,instructionsKeys.rt,keyPressed,keyPressTime,inputText,error,trialsPracticeSpanish.thisRepN,trialsPracticeSpanish.thisTrialN,trialsPracticeSpanish.thisN,trialsPracticeSpanish.thisIndex,trialsPracticeSpanish.ran,trialsPracticeSpanish.order,trial_id,word,test_language,soundfile,date,expName,psychopyVersion,OS,frameRate,participant,trialOffset,trialsSpanish.thisRepN,trialsSpanish.thisTrialN,trialsSpanish.thisN,trialsSpanish.thisIndex,trialsSpanish.ran,trialsSpanish.order
space,1.541999817,e,4.013000011,,,,,,,,,,1,5.098999739,1,6.148999929,1,5.874000072,1,3.493000031,1,2.573999882,1,5.205999851,23,f,1.361999989,4,5.315999985,CAMBORNE,y,2.813999891,n,3.073999882,1,2.842999935,1,5.36500001,space,20.32199979,j,2.766000032,J,FALSE,1,0,5,2,1,4,26,chaqueta,Spanish,Sounds/spa_chaqueta.mp3,2020-06-05_16h23.01.244,TranslationElicitation_eng-prolific,3.2.4,Win32,60,5ec83d67cfe53914464d2062,,,,,,,
,,,,,,,,,,,,,,,,,,,,,,,,,,,,,,,,,,,,,,,,,a,2.832000017,JA,FALSE,1,0,5,2,1,4,26,chaqueta,Spanish,Sounds/spa_chaqueta.mp3,2020-06-05_16h23.01.244,TranslationElicitation_eng-prolific,3.2.4,Win32,60,5ec83d67cfe53914464d2062,,,,,,,
,,,,,,,,,,,,,,,,,,,,,,,,,,,,,,,,,,,,,,,,,c,3.016000032,JAC,FALSE,1,0,5,2,1,4,26,chaqueta,Spanish,Sounds/spa_chaqueta.mp3,2020-06-05_16h23.01.244,TranslationElicitation_eng-prolific,3.2.4,Win32,60,5ec83d67cfe53914464d2062,,,,,,,
,,,,,,,,,,,,,,,,,,,,,,,,,,,,,,,,,,,,,,,,,k,3.115999937,JACK,FALSE,1,0,5,2,1,4,26,chaqueta,Spanish,Sounds/spa_chaqueta.mp3,2020-06-05_16h23.01.244,TranslationElicitation_eng-prolific,3.2.4,Win32,60,5ec83d67cfe53914464d2062,,,,,,,
,,,,,,,,,,,,,,,,,,,,,,,,,,,,,,,,,,,,,,,,,e,3.232000113,JACKE,FALSE,1,0,5,2,1,4,26,chaqueta,Spanish,Sounds/spa_chaqueta.mp3,2020-06-05_16h23.01.244,TranslationElicitation_eng-prolific,3.2.4,Win32,60,5ec83d67cfe53914464d2062,,,,,,,
,,,,,,,,,,,,,,,,,,,,,,,,,,,,,,,,,,,,,,,,,t,3.381999969,JACKET,FALSE,1,0,5,2,1,4,26,chaqueta,Spanish,Sounds/spa_chaqueta.mp3,2020-06-05_16h23.01.244,TranslationElicitation_eng-prolific,3.2.4,Win32,60,5ec83d67cfe53914464d2062,,,,,,,
,,,,,,,,,,,,,,,,,,,,,,,,,,,,,,,,,,,,,,,,,return,4.582000017,JACKET,FALSE,1,0,5,2,1,4,26,chaqueta,Spanish,Sounds/spa_chaqueta.mp3,2020-06-05_16h23.01.244,TranslationElicitation_eng-prolific,3.2.4,Win32,60,5ec83d67cfe53914464d2062,4.582000017,,,,,,
,,,,,,,,,,,,,,,,,,,,,,,,,,,,,,,,,,,,,,,,,,,,,1,0,5,2,1,4,26,chaqueta,Spanish,Sounds/spa_chaqueta.mp3,2020-06-05_16h23.01.244,TranslationElicitation_eng-prolific,3.2.4,Win32,60,5ec83d67cfe53914464d2062,,,,,,,
,,,,,,,,,,,,,,,,,,,,,,,,,,,,,,,,,,,,,,,,,t,2.683000088,T,FALSE,1,0,5,4,1,4,96,tigre,Spanish,Sounds/spa_tigre.mp3,2020-06-05_16h23.01.244,TranslationElicitation_eng-prolific,3.2.4,Win32,60,5ec83d67cfe53914464d2062,,,,,,,
,,,,,,,,,,,,,,,,,,,,,,,,,,,,,,,,,,,,,,,,,o,2.782999992,TO,FALSE,1,0,5,4,1,4,96,tigre,Spanish,Sounds/spa_tigre.mp3,2020-06-05_16h23.01.244,TranslationElicitation_eng-prolific,3.2.4,Win32,60,5ec83d67cfe53914464d2062,,,,,,,
,,,,,,,,,,,,,,,,,,,,,,,,,,,,,,,,,,,,,,,,,d,2.916000128,TOD,FALSE,1,0,5,4,1,4,96,tigre,Spanish,Sounds/spa_tigre.mp3,2020-06-05_16h23.01.244,TranslationElicitation_eng-prolific,3.2.4,Win32,60,5ec83d67cfe53914464d2062,,,,,,,
,,,,,,,,,,,,,,,,,,,,,,,,,,,,,,,,,,,,,,,,,a,3.065999985,TODA,FALSE,1,0,5,4,1,4,96,tigre,Spanish,Sounds/spa_tigre.mp3,2020-06-05_16h23.01.244,TranslationElicitation_eng-prolific,3.2.4,Win32,60,5ec83d67cfe53914464d2062,,,,,,,
,,,,,,,,,,,,,,,,,,,,,,,,,,,,,,,,,,,,,,,,,y,3.150000095,TODAY,FALSE,1,0,5,4,1,4,96,tigre,Spanish,Sounds/spa_tigre.mp3,2020-06-05_16h23.01.244,TranslationElicitation_eng-prolific,3.2.4,Win32,60,5ec83d67cfe53914464d2062,,,,,,,
,,,,,,,,,,,,,,,,,,,,,,,,,,,,,,,,,,,,,,,,,return,3.598999977,TODAY,FALSE,1,0,5,4,1,4,96,tigre,Spanish,Sounds/spa_tigre.mp3,2020-06-05_16h23.01.244,TranslationElicitation_eng-prolific,3.2.4,Win32,60,5ec83d67cfe53914464d2062,3.598999977,,,,,,
,,,,,,,,,,,,,,,,,,,,,,,,,,,,,,,,,,,,,,,,,,,,,1,0,5,4,1,4,96,tigre,Spanish,Sounds/spa_tigre.mp3,2020-06-05_16h23.01.244,TranslationElicitation_eng-prolific,3.2.4,Win32,60,5ec83d67cfe53914464d2062,,,,,,,
,,,,,,,,,,,,,,,,,,,,,,,,,,,,,,,,,,,,,,,,,h,1.567000151,H,FALSE,1,0,5,3,1,4,70,ola,Spanish,Sounds/spa_ola.mp3,2020-06-05_16h23.01.244,TranslationElicitation_eng-prolific,3.2.4,Win32,60,5ec83d67cfe53914464d2062,,,,,,,
,,,,,,,,,,,,,,,,,,,,,,,,,,,,,,,,,,,,,,,,,e,1.667000055,HE,FALSE,1,0,5,3,1,4,70,ola,Spanish,Sounds/spa_ola.mp3,2020-06-05_16h23.01.244,TranslationElicitation_eng-prolific,3.2.4,Win32,60,5ec83d67cfe53914464d2062,,,,,,,
,,,,,,,,,,,,,,,,,,,,,,,,,,,,,,,,,,,,,,,,,l,1.799999952,HEL,FALSE,1,0,5,3,1,4,70,ola,Spanish,Sounds/spa_ola.mp3,2020-06-05_16h23.01.244,TranslationElicitation_eng-prolific,3.2.4,Win32,60,5ec83d67cfe53914464d2062,,,,,,,
,,,,,,,,,,,,,,,,,,,,,,,,,,,,,,,,,,,,,,,,,l,1.917000055,HELL,FALSE,1,0,5,3,1,4,70,ola,Spanish,Sounds/spa_ola.mp3,2020-06-05_16h23.01.244,TranslationElicitation_eng-prolific,3.2.4,Win32,60,5ec83d67cfe53914464d2062,,,,,,,
,,,,,,,,,,,,,,,,,,,,,,,,,,,,,,,,,,,,,,,,,o,2.067000151,HELLO,FALSE,1,0,5,3,1,4,70,ola,Spanish,Sounds/spa_ola.mp3,2020-06-05_16h23.01.244,TranslationElicitation_eng-prolific,3.2.4,Win32,60,5ec83d67cfe53914464d2062,,,,,,,
,,,,,,,,,,,,,,,,,,,,,,,,,,,,,,,,,,,,,,,,,return,2.332999945,HELLO,FALSE,1,0,5,3,1,4,70,ola,Spanish,Sounds/spa_ola.mp3,2020-06-05_16h23.01.244,TranslationElicitation_eng-prolific,3.2.4,Win32,60,5ec83d67cfe53914464d2062,2.332999945,,,,,,
,,,,,,,,,,,,,,,,,,,,,,,,,,,,,,,,,,,,,,,,,,,,,1,0,5,3,1,4,70,ola,Spanish,Sounds/spa_ola.mp3,2020-06-05_16h23.01.244,TranslationElicitation_eng-prolific,3.2.4,Win32,60,5ec83d67cfe53914464d2062,,,,,,,
,,,,,,,,,,,,,,,,,,,,,,,,,,,,,,,,,,,,,,,,,g,2.667000055,G,FALSE,1,0,5,0,1,4,1,arbol,Spanish,Sounds/spa_arbol.mp3,2020-06-05_16h23.01.244,TranslationElicitation_eng-prolific,3.2.4,Win32,60,5ec83d67cfe53914464d2062,,,,,,,
,,,,,,,,,,,,,,,,,,,,,,,,,,,,,,,,,,,,,,,,,o,2.75,GO,FALSE,1,0,5,0,1,4,1,arbol,Spanish,Sounds/spa_arbol.mp3,2020-06-05_16h23.01.244,TranslationElicitation_eng-prolific,3.2.4,Win32,60,5ec83d67cfe53914464d2062,,,,,,,
,,,,,,,,,,,,,,,,,,,,,,,,,,,,,,,,,,,,,,,,,o,2.866000175,GOO,FALSE,1,0,5,0,1,4,1,arbol,Spanish,Sounds/spa_arbol.mp3,2020-06-05_16h23.01.244,TranslationElicitation_eng-prolific,3.2.4,Win32,60,5ec83d67cfe53914464d2062,,,,,,,
,,,,,,,,,,,,,,,,,,,,,,,,,,,,,,,,,,,,,,,,,d,2.950000048,GOOD,FALSE,1,0,5,0,1,4,1,arbol,Spanish,Sounds/spa_arbol.mp3,2020-06-05_16h23.01.244,TranslationElicitation_eng-prolific,3.2.4,Win32,60,5ec83d67cfe53914464d2062,,,,,,,
,,,,,,,,,,,,,,,,,,,,,,,,,,,,,,,,,,,,,,,,,a,4.049000025,GOODA,FALSE,1,0,5,0,1,4,1,arbol,Spanish,Sounds/spa_arbol.mp3,2020-06-05_16h23.01.244,TranslationElicitation_eng-prolific,3.2.4,Win32,60,5ec83d67cfe53914464d2062,,,,,,,
,,,,,,,,,,,,,,,,,,,,,,,,,,,,,,,,,,,,,,,,,y,4.166000128,GOODAY,FALSE,1,0,5,0,1,4,1,arbol,Spanish,Sounds/spa_arbol.mp3,2020-06-05_16h23.01.244,TranslationElicitation_eng-prolific,3.2.4,Win32,60,5ec83d67cfe53914464d2062,,,,,,,
,,,,,,,,,,,,,,,,,,,,,,,,,,,,,,,,,,,,,,,,,backspace,4.549000025,GOODA,TRUE,1,0,5,0,1,4,1,arbol,Spanish,Sounds/spa_arbol.mp3,2020-06-05_16h23.01.244,TranslationElicitation_eng-prolific,3.2.4,Win32,60,5ec83d67cfe53914464d2062,,,,,,,
,,,,,,,,,,,,,,,,,,,,,,,,,,,,,,,,,,,,,,,,,backspace,4.666000128,GOOD,TRUE,1,0,5,0,1,4,1,arbol,Spanish,Sounds/spa_arbol.mp3,2020-06-05_16h23.01.244,TranslationElicitation_eng-prolific,3.2.4,Win32,60,5ec83d67cfe53914464d2062,,,,,,,
,,,,,,,,,,,,,,,,,,,,,,,,,,,,,,,,,,,,,,,,,d,4.73300004,GOODD,TRUE,1,0,5,0,1,4,1,arbol,Spanish,Sounds/spa_arbol.mp3,2020-06-05_16h23.01.244,TranslationElicitation_eng-prolific,3.2.4,Win32,60,5ec83d67cfe53914464d2062,,,,,,,
,,,,,,,,,,,,,,,,,,,,,,,,,,,,,,,,,,,,,,,,,a,4.900000095,GOODDA,TRUE,1,0,5,0,1,4,1,arbol,Spanish,Sounds/spa_arbol.mp3,2020-06-05_16h23.01.244,TranslationElicitation_eng-prolific,3.2.4,Win32,60,5ec83d67cfe53914464d2062,,,,,,,
,,,,,,,,,,,,,,,,,,,,,,,,,,,,,,,,,,,,,,,,,y,5.023000002,GOODDAY,TRUE,1,0,5,0,1,4,1,arbol,Spanish,Sounds/spa_arbol.mp3,2020-06-05_16h23.01.244,TranslationElicitation_eng-prolific,3.2.4,Win32,60,5ec83d67cfe53914464d2062,,,,,,,
,,,,,,,,,,,,,,,,,,,,,,,,,,,,,,,,,,,,,,,,,return,5.933000088,GOODDAY,TRUE,1,0,5,0,1,4,1,arbol,Spanish,Sounds/spa_arbol.mp3,2020-06-05_16h23.01.244,TranslationElicitation_eng-prolific,3.2.4,Win32,60,5ec83d67cfe53914464d2062,5.933000088,,,,,,
,,,,,,,,,,,,,,,,,,,,,,,,,,,,,,,,,,,,,,,,,,,,,1,0,5,0,1,4,1,arbol,Spanish,Sounds/spa_arbol.mp3,2020-06-05_16h23.01.244,TranslationElicitation_eng-prolific,3.2.4,Win32,60,5ec83d67cfe53914464d2062,,,,,,,
,,,,,,,,,,,,,,,,,,,,,,,,,,,,,,,,,,,,,,,,,b,2.28399992,B,FALSE,1,0,5,1,1,4,30,corona,Spanish,Sounds/spa_corona.mp3,2020-06-05_16h23.01.244,TranslationElicitation_eng-prolific,3.2.4,Win32,60,5ec83d67cfe53914464d2062,,,,,,,
,,,,,,,,,,,,,,,,,,,,,,,,,,,,,,,,,,,,,,,,,e,2.416999817,BE,FALSE,1,0,5,1,1,4,30,corona,Spanish,Sounds/spa_corona.mp3,2020-06-05_16h23.01.244,TranslationElicitation_eng-prolific,3.2.4,Win32,60,5ec83d67cfe53914464d2062,,,,,,,
,,,,,,,,,,,,,,,,,,,,,,,,,,,,,,,,,,,,,,,,,e,2.549999952,BEE,FALSE,1,0,5,1,1,4,30,corona,Spanish,Sounds/spa_corona.mp3,2020-06-05_16h23.01.244,TranslationElicitation_eng-prolific,3.2.4,Win32,60,5ec83d67cfe53914464d2062,,,,,,,
,,,,,,,,,,,,,,,,,,,,,,,,,,,,,,,,,,,,,,,,,r,2.666999817,BEER,FALSE,1,0,5,1,1,4,30,corona,Spanish,Sounds/spa_corona.mp3,2020-06-05_16h23.01.244,TranslationElicitation_eng-prolific,3.2.4,Win32,60,5ec83d67cfe53914464d2062,,,,,,,
,,,,,,,,,,,,,,,,,,,,,,,,,,,,,,,,,,,,,,,,,return,2.932999849,BEER,FALSE,1,0,5,1,1,4,30,corona,Spanish,Sounds/spa_corona.mp3,2020-06-05_16h23.01.244,TranslationElicitation_eng-prolific,3.2.4,Win32,60,5ec83d67cfe53914464d2062,2.932999849,,,,,,
,,,,,,,,,,,,,,,,,,,,,,,,,,,,,,,,,,,,,,,,,,,,,1,0,5,1,1,4,30,corona,Spanish,Sounds/spa_corona.mp3,2020-06-05_16h23.01.244,TranslationElicitation_eng-prolific,3.2.4,Win32,60,5ec83d67cfe53914464d2062,,,,,,,
,,,,,,,,,,,,,,,,,,,,,,,,,,,,,,,,,,,,,,,,,b,2.749000072,B,FALSE,,,,,,,90,pollo,Spanish,Sounds/spa_pollo.mp3,2020-06-05_16h23.01.244,TranslationElicitation_eng-prolific,3.2.4,Win32,60,5ec83d67cfe53914464d2062,,1,0,98,85,1,97
,,,,,,,,,,,,,,,,,,,,,,,,,,,,,,,,,,,,,,,,,o,2.96600008,BO,FALSE,,,,,,,90,pollo,Spanish,Sounds/spa_pollo.mp3,2020-06-05_16h23.01.244,TranslationElicitation_eng-prolific,3.2.4,Win32,60,5ec83d67cfe53914464d2062,,1,0,98,85,1,97
,,,,,,,,,,,,,,,,,,,,,,,,,,,,,,,,,,,,,,,,,y,3.099000216,BOY,FALSE,,,,,,,90,pollo,Spanish,Sounds/spa_pollo.mp3,2020-06-05_16h23.01.244,TranslationElicitation_eng-prolific,3.2.4,Win32,60,5ec83d67cfe53914464d2062,,1,0,98,85,1,97
,,,,,,,,,,,,,,,,,,,,,,,,,,,,,,,,,,,,,,,,,return,4.265000105,BOY,FALSE,,,,,,,90,pollo,Spanish,Sounds/spa_pollo.mp3,2020-06-05_16h23.01.244,TranslationElicitation_eng-prolific,3.2.4,Win32,60,5ec83d67cfe53914464d2062,4.265000105,1,0,98,85,1,97
,,,,,,,,,,,,,,,,,,,,,,,,,,,,,,,,,,,,,,,,,,,,,,,,,,,90,pollo,Spanish,Sounds/spa_pollo.mp3,2020-06-05_16h23.01.244,TranslationElicitation_eng-prolific,3.2.4,Win32,60,5ec83d67cfe53914464d2062,,1,0,98,85,1,97
,,,,,,,,,,,,,,,,,,,,,,,,,,,,,,,,,,,,,,,,,p,2.266000032,P,FALSE,,,,,,,86,pingüino,Spanish,Sounds/spa_pinguino.mp3,2020-06-05_16h23.01.244,TranslationElicitation_eng-prolific,3.2.4,Win32,60,5ec83d67cfe53914464d2062,,1,0,98,81,1,97
,,,,,,,,,,,,,,,,,,,,,,,,,,,,,,,,,,,,,,,,,e,2.382999897,PE,FALSE,,,,,,,86,pingüino,Spanish,Sounds/spa_pinguino.mp3,2020-06-05_16h23.01.244,TranslationElicitation_eng-prolific,3.2.4,Win32,60,5ec83d67cfe53914464d2062,,1,0,98,81,1,97
,,,,,,,,,,,,,,,,,,,,,,,,,,,,,,,,,,,,,,,,,n,2.48300004,PEN,FALSE,,,,,,,86,pingüino,Spanish,Sounds/spa_pinguino.mp3,2020-06-05_16h23.01.244,TranslationElicitation_eng-prolific,3.2.4,Win32,60,5ec83d67cfe53914464d2062,,1,0,98,81,1,97
,,,,,,,,,,,,,,,,,,,,,,,,,,,,,,,,,,,,,,,,,g,2.582999945,PENG,FALSE,,,,,,,86,pingüino,Spanish,Sounds/spa_pinguino.mp3,2020-06-05_16h23.01.244,TranslationElicitation_eng-prolific,3.2.4,Win32,60,5ec83d67cfe53914464d2062,,1,0,98,81,1,97
,,,,,,,,,,,,,,,,,,,,,,,,,,,,,,,,,,,,,,,,,u,2.717000008,PENGU,FALSE,,,,,,,86,pingüino,Spanish,Sounds/spa_pinguino.mp3,2020-06-05_16h23.01.244,TranslationElicitation_eng-prolific,3.2.4,Win32,60,5ec83d67cfe53914464d2062,,1,0,98,81,1,97
,,,,,,,,,,,,,,,,,,,,,,,,,,,,,,,,,,,,,,,,,i,2.799999952,PENGUI,FALSE,,,,,,,86,pingüino,Spanish,Sounds/spa_pinguino.mp3,2020-06-05_16h23.01.244,TranslationElicitation_eng-prolific,3.2.4,Win32,60,5ec83d67cfe53914464d2062,,1,0,98,81,1,97
,,,,,,,,,,,,,,,,,,,,,,,,,,,,,,,,,,,,,,,,,n,2.900000095,PENGUIN,FALSE,,,,,,,86,pingüino,Spanish,Sounds/spa_pinguino.mp3,2020-06-05_16h23.01.244,TranslationElicitation_eng-prolific,3.2.4,Win32,60,5ec83d67cfe53914464d2062,,1,0,98,81,1,97
,,,,,,,,,,,,,,,,,,,,,,,,,,,,,,,,,,,,,,,,,return,3.415999889,PENGUIN,FALSE,,,,,,,86,pingüino,Spanish,Sounds/spa_pinguino.mp3,2020-06-05_16h23.01.244,TranslationElicitation_eng-prolific,3.2.4,Win32,60,5ec83d67cfe53914464d2062,3.415999889,1,0,98,81,1,97
,,,,,,,,,,,,,,,,,,,,,,,,,,,,,,,,,,,,,,,,,,,,,,,,,,,86,pingüino,Spanish,Sounds/spa_pinguino.mp3,2020-06-05_16h23.01.244,TranslationElicitation_eng-prolific,3.2.4,Win32,60,5ec83d67cfe53914464d2062,,1,0,98,81,1,97
,,,,,,,,,,,,,,,,,,,,,,,,,,,,,,,,,,,,,,,,,m,1.834000111,M,FALSE,,,,,,,66,moto,Spanish,Sounds/spa_moto.mp3,2020-06-05_16h23.01.244,TranslationElicitation_eng-prolific,3.2.4,Win32,60,5ec83d67cfe53914464d2062,,1,0,98,62,1,97
,,,,,,,,,,,,,,,,,,,,,,,,,,,,,,,,,,,,,,,,,o,1.98300004,MO,FALSE,,,,,,,66,moto,Spanish,Sounds/spa_moto.mp3,2020-06-05_16h23.01.244,TranslationElicitation_eng-prolific,3.2.4,Win32,60,5ec83d67cfe53914464d2062,,1,0,98,62,1,97
,,,,,,,,,,,,,,,,,,,,,,,,,,,,,,,,,,,,,,,,,r,2.100000143,MOR,FALSE,,,,,,,66,moto,Spanish,Sounds/spa_moto.mp3,2020-06-05_16h23.01.244,TranslationElicitation_eng-prolific,3.2.4,Win32,60,5ec83d67cfe53914464d2062,,1,0,98,62,1,97
,,,,,,,,,,,,,,,,,,,,,,,,,,,,,,,,,,,,,,,,,e,2.234000206,MORE,FALSE,,,,,,,66,moto,Spanish,Sounds/spa_moto.mp3,2020-06-05_16h23.01.244,TranslationElicitation_eng-prolific,3.2.4,Win32,60,5ec83d67cfe53914464d2062,,1,0,98,62,1,97
,,,,,,,,,,,,,,,,,,,,,,,,,,,,,,,,,,,,,,,,,backspace,4.050000191,MOR,TRUE,,,,,,,66,moto,Spanish,Sounds/spa_moto.mp3,2020-06-05_16h23.01.244,TranslationElicitation_eng-prolific,3.2.4,Win32,60,5ec83d67cfe53914464d2062,,1,0,98,62,1,97
,,,,,,,,,,,,,,,,,,,,,,,,,,,,,,,,,,,,,,,,,backspace,4.350000143,MO,TRUE,,,,,,,66,moto,Spanish,Sounds/spa_moto.mp3,2020-06-05_16h23.01.244,TranslationElicitation_eng-prolific,3.2.4,Win32,60,5ec83d67cfe53914464d2062,,1,0,98,62,1,97
,,,,,,,,,,,,,,,,,,,,,,,,,,,,,,,,,,,,,,,,,backspace,4.5,M,TRUE,,,,,,,66,moto,Spanish,Sounds/spa_moto.mp3,2020-06-05_16h23.01.244,TranslationElicitation_eng-prolific,3.2.4,Win32,60,5ec83d67cfe53914464d2062,,1,0,98,62,1,97
,,,,,,,,,,,,,,,,,,,,,,,,,,,,,,,,,,,,,,,,,backspace,4.75,,TRUE,,,,,,,66,moto,Spanish,Sounds/spa_moto.mp3,2020-06-05_16h23.01.244,TranslationElicitation_eng-prolific,3.2.4,Win32,60,5ec83d67cfe53914464d2062,,1,0,98,62,1,97
,,,,,,,,,,,,,,,,,,,,,,,,,,,,,,,,,,,,,,,,,v,5.282999992,V,TRUE,,,,,,,66,moto,Spanish,Sounds/spa_moto.mp3,2020-06-05_16h23.01.244,TranslationElicitation_eng-prolific,3.2.4,Win32,60,5ec83d67cfe53914464d2062,,1,0,98,62,1,97
,,,,,,,,,,,,,,,,,,,,,,,,,,,,,,,,,,,,,,,,,e,5.383000135,VE,TRUE,,,,,,,66,moto,Spanish,Sounds/spa_moto.mp3,2020-06-05_16h23.01.244,TranslationElicitation_eng-prolific,3.2.4,Win32,60,5ec83d67cfe53914464d2062,,1,0,98,62,1,97
,,,,,,,,,,,,,,,,,,,,,,,,,,,,,,,,,,,,,,,,,r,5.5,VER,TRUE,,,,,,,66,moto,Spanish,Sounds/spa_moto.mp3,2020-06-05_16h23.01.244,TranslationElicitation_eng-prolific,3.2.4,Win32,60,5ec83d67cfe53914464d2062,,1,0,98,62,1,97
,,,,,,,,,,,,,,,,,,,,,,,,,,,,,,,,,,,,,,,,,y,5.566000223,VERY,TRUE,,,,,,,66,moto,Spanish,Sounds/spa_moto.mp3,2020-06-05_16h23.01.244,TranslationElicitation_eng-prolific,3.2.4,Win32,60,5ec83d67cfe53914464d2062,,1,0,98,62,1,97
,,,,,,,,,,,,,,,,,,,,,,,,,,,,,,,,,,,,,,,,,return,6.099000216,VERY,TRUE,,,,,,,66,moto,Spanish,Sounds/spa_moto.mp3,2020-06-05_16h23.01.244,TranslationElicitation_eng-prolific,3.2.4,Win32,60,5ec83d67cfe53914464d2062,6.099000216,1,0,98,62,1,97
,,,,,,,,,,,,,,,,,,,,,,,,,,,,,,,,,,,,,,,,,,,,,,,,,,,66,moto,Spanish,Sounds/spa_moto.mp3,2020-06-05_16h23.01.244,TranslationElicitation_eng-prolific,3.2.4,Win32,60,5ec83d67cfe53914464d2062,,1,0,98,62,1,97
,,,,,,,,,,,,,,,,,,,,,,,,,,,,,,,,,,,,,,,,,c,3.166999817,C,FALSE,,,,,,,17,calcetin,Spanish,Sounds/spa_calcetin.mp3,2020-06-05_16h23.01.244,TranslationElicitation_eng-prolific,3.2.4,Win32,60,5ec83d67cfe53914464d2062,,1,0,98,15,1,97
,,,,,,,,,,,,,,,,,,,,,,,,,,,,,,,,,,,,,,,,,a,3.365999937,CA,FALSE,,,,,,,17,calcetin,Spanish,Sounds/spa_calcetin.mp3,2020-06-05_16h23.01.244,TranslationElicitation_eng-prolific,3.2.4,Win32,60,5ec83d67cfe53914464d2062,,1,0,98,15,1,97
,,,,,,,,,,,,,,,,,,,,,,,,,,,,,,,,,,,,,,,,,r,3.549999952,CAR,FALSE,,,,,,,17,calcetin,Spanish,Sounds/spa_calcetin.mp3,2020-06-05_16h23.01.244,TranslationElicitation_eng-prolific,3.2.4,Win32,60,5ec83d67cfe53914464d2062,,1,0,98,15,1,97
,,,,,,,,,,,,,,,,,,,,,,,,,,,,,,,,,,,,,,,,,d,3.715999842,CARD,FALSE,,,,,,,17,calcetin,Spanish,Sounds/spa_calcetin.mp3,2020-06-05_16h23.01.244,TranslationElicitation_eng-prolific,3.2.4,Win32,60,5ec83d67cfe53914464d2062,,1,0,98,15,1,97
,,,,,,,,,,,,,,,,,,,,,,,,,,,,,,,,,,,,,,,,,i,3.75,CARDI,FALSE,,,,,,,17,calcetin,Spanish,Sounds/spa_calcetin.mp3,2020-06-05_16h23.01.244,TranslationElicitation_eng-prolific,3.2.4,Win32,60,5ec83d67cfe53914464d2062,,1,0,98,15,1,97
,,,,,,,,,,,,,,,,,,,,,,,,,,,,,,,,,,,,,,,,,g,3.866999865,CARDIG,FALSE,,,,,,,17,calcetin,Spanish,Sounds/spa_calcetin.mp3,2020-06-05_16h23.01.244,TranslationElicitation_eng-prolific,3.2.4,Win32,60,5ec83d67cfe53914464d2062,,1,0,98,15,1,97
,,,,,,,,,,,,,,,,,,,,,,,,,,,,,,,,,,,,,,,,,a,3.983999968,CARDIGA,FALSE,,,,,,,17,calcetin,Spanish,Sounds/spa_calcetin.mp3,2020-06-05_16h23.01.244,TranslationElicitation_eng-prolific,3.2.4,Win32,60,5ec83d67cfe53914464d2062,,1,0,98,15,1,97
,,,,,,,,,,,,,,,,,,,,,,,,,,,,,,,,,,,,,,,,,n,4.082999945,CARDIGAN,FALSE,,,,,,,17,calcetin,Spanish,Sounds/spa_calcetin.mp3,2020-06-05_16h23.01.244,TranslationElicitation_eng-prolific,3.2.4,Win32,60,5ec83d67cfe53914464d2062,,1,0,98,15,1,97
,,,,,,,,,,,,,,,,,,,,,,,,,,,,,,,,,,,,,,,,,return,4.467000008,CARDIGAN,FALSE,,,,,,,17,calcetin,Spanish,Sounds/spa_calcetin.mp3,2020-06-05_16h23.01.244,TranslationElicitation_eng-prolific,3.2.4,Win32,60,5ec83d67cfe53914464d2062,4.467000008,1,0,98,15,1,97
,,,,,,,,,,,,,,,,,,,,,,,,,,,,,,,,,,,,,,,,,,,,,,,,,,,17,calcetin,Spanish,Sounds/spa_calcetin.mp3,2020-06-05_16h23.01.244,TranslationElicitation_eng-prolific,3.2.4,Win32,60,5ec83d67cfe53914464d2062,,1,0,98,15,1,97
,,,,,,,,,,,,,,,,,,,,,,,,,,,,,,,,,,,,,,,,,o,1.848999977,O,FALSE,,,,,,,71,ombligo,Spanish,Sounds/spa_ombligo.mp3,2020-06-05_16h23.01.244,TranslationElicitation_eng-prolific,3.2.4,Win32,60,5ec83d67cfe53914464d2062,,1,0,98,66,1,97
,,,,,,,,,,,,,,,,,,,,,,,,,,,,,,,,,,,,,,,,,m,1.882999897,OM,FALSE,,,,,,,71,ombligo,Spanish,Sounds/spa_ombligo.mp3,2020-06-05_16h23.01.244,TranslationElicitation_eng-prolific,3.2.4,Win32,60,5ec83d67cfe53914464d2062,,1,0,98,66,1,97
,,,,,,,,,,,,,,,,,,,,,,,,,,,,,,,,,,,,,,,,,l,2.332999945,OML,FALSE,,,,,,,71,ombligo,Spanish,Sounds/spa_ombligo.mp3,2020-06-05_16h23.01.244,TranslationElicitation_eng-prolific,3.2.4,Win32,60,5ec83d67cfe53914464d2062,,1,0,98,66,1,97
,,,,,,,,,,,,,,,,,,,,,,,,,,,,,,,,,,,,,,,,,e,2.465999842,OMLE,FALSE,,,,,,,71,ombligo,Spanish,Sounds/spa_ombligo.mp3,2020-06-05_16h23.01.244,TranslationElicitation_eng-prolific,3.2.4,Win32,60,5ec83d67cfe53914464d2062,,1,0,98,66,1,97
,,,,,,,,,,,,,,,,,,,,,,,,,,,,,,,,,,,,,,,,,backspace,3.198999882,OML,TRUE,,,,,,,71,ombligo,Spanish,Sounds/spa_ombligo.mp3,2020-06-05_16h23.01.244,TranslationElicitation_eng-prolific,3.2.4,Win32,60,5ec83d67cfe53914464d2062,,1,0,98,66,1,97
,,,,,,,,,,,,,,,,,,,,,,,,,,,,,,,,,,,,,,,,,backspace,3.315999985,OM,TRUE,,,,,,,71,ombligo,Spanish,Sounds/spa_ombligo.mp3,2020-06-05_16h23.01.244,TranslationElicitation_eng-prolific,3.2.4,Win32,60,5ec83d67cfe53914464d2062,,1,0,98,66,1,97
,,,,,,,,,,,,,,,,,,,,,,,,,,,,,,,,,,,,,,,,,e,3.498999834,OME,TRUE,,,,,,,71,ombligo,Spanish,Sounds/spa_ombligo.mp3,2020-06-05_16h23.01.244,TranslationElicitation_eng-prolific,3.2.4,Win32,60,5ec83d67cfe53914464d2062,,1,0,98,66,1,97
,,,,,,,,,,,,,,,,,,,,,,,,,,,,,,,,,,,,,,,,,l,3.614999771,OMEL,TRUE,,,,,,,71,ombligo,Spanish,Sounds/spa_ombligo.mp3,2020-06-05_16h23.01.244,TranslationElicitation_eng-prolific,3.2.4,Win32,60,5ec83d67cfe53914464d2062,,1,0,98,66,1,97
,,,,,,,,,,,,,,,,,,,,,,,,,,,,,,,,,,,,,,,,,backspace,4.265999794,OME,TRUE,,,,,,,71,ombligo,Spanish,Sounds/spa_ombligo.mp3,2020-06-05_16h23.01.244,TranslationElicitation_eng-prolific,3.2.4,Win32,60,5ec83d67cfe53914464d2062,,1,0,98,66,1,97
,,,,,,,,,,,,,,,,,,,,,,,,,,,,,,,,,,,,,,,,,backspace,4.381999969,OM,TRUE,,,,,,,71,ombligo,Spanish,Sounds/spa_ombligo.mp3,2020-06-05_16h23.01.244,TranslationElicitation_eng-prolific,3.2.4,Win32,60,5ec83d67cfe53914464d2062,,1,0,98,66,1,97
,,,,,,,,,,,,,,,,,,,,,,,,,,,,,,,,,,,,,,,,,l,4.614999771,OML,TRUE,,,,,,,71,ombligo,Spanish,Sounds/spa_ombligo.mp3,2020-06-05_16h23.01.244,TranslationElicitation_eng-prolific,3.2.4,Win32,60,5ec83d67cfe53914464d2062,,1,0,98,66,1,97
,,,,,,,,,,,,,,,,,,,,,,,,,,,,,,,,,,,,,,,,,e,4.715999842,OMLE,TRUE,,,,,,,71,ombligo,Spanish,Sounds/spa_ombligo.mp3,2020-06-05_16h23.01.244,TranslationElicitation_eng-prolific,3.2.4,Win32,60,5ec83d67cfe53914464d2062,,1,0,98,66,1,97
,,,,,,,,,,,,,,,,,,,,,,,,,,,,,,,,,,,,,,,,,t,4.931999922,OMLET,TRUE,,,,,,,71,ombligo,Spanish,Sounds/spa_ombligo.mp3,2020-06-05_16h23.01.244,TranslationElicitation_eng-prolific,3.2.4,Win32,60,5ec83d67cfe53914464d2062,,1,0,98,66,1,97
,,,,,,,,,,,,,,,,,,,,,,,,,,,,,,,,,,,,,,,,,t,5.065999985,OMLETT,TRUE,,,,,,,71,ombligo,Spanish,Sounds/spa_ombligo.mp3,2020-06-05_16h23.01.244,TranslationElicitation_eng-prolific,3.2.4,Win32,60,5ec83d67cfe53914464d2062,,1,0,98,66,1,97
,,,,,,,,,,,,,,,,,,,,,,,,,,,,,,,,,,,,,,,,,e,5.248999834,OMLETTE,TRUE,,,,,,,71,ombligo,Spanish,Sounds/spa_ombligo.mp3,2020-06-05_16h23.01.244,TranslationElicitation_eng-prolific,3.2.4,Win32,60,5ec83d67cfe53914464d2062,,1,0,98,66,1,97
,,,,,,,,,,,,,,,,,,,,,,,,,,,,,,,,,,,,,,,,,return,7.514999866,OMLETTE,TRUE,,,,,,,71,ombligo,Spanish,Sounds/spa_ombligo.mp3,2020-06-05_16h23.01.244,TranslationElicitation_eng-prolific,3.2.4,Win32,60,5ec83d67cfe53914464d2062,7.514999866,1,0,98,66,1,97
,,,,,,,,,,,,,,,,,,,,,,,,,,,,,,,,,,,,,,,,,,,,,,,,,,,71,ombligo,Spanish,Sounds/spa_ombligo.mp3,2020-06-05_16h23.01.244,TranslationElicitation_eng-prolific,3.2.4,Win32,60,5ec83d67cfe53914464d2062,,1,0,98,66,1,97
,,,,,,,,,,,,,,,,,,,,,,,,,,,,,,,,,,,,,,,,,t,4.01699996,T,FALSE,,,,,,,7,bocadillo,Spanish,Sounds/spa_bocadillo.mp3,2020-06-05_16h23.01.244,TranslationElicitation_eng-prolific,3.2.4,Win32,60,5ec83d67cfe53914464d2062,,1,0,98,5,1,97
,,,,,,,,,,,,,,,,,,,,,,,,,,,,,,,,,,,,,,,,,r,4.082000017,TR,FALSE,,,,,,,7,bocadillo,Spanish,Sounds/spa_bocadillo.mp3,2020-06-05_16h23.01.244,TranslationElicitation_eng-prolific,3.2.4,Win32,60,5ec83d67cfe53914464d2062,,1,0,98,5,1,97
,,,,,,,,,,,,,,,,,,,,,,,,,,,,,,,,,,,,,,,,,a,4.167000055,TRA,FALSE,,,,,,,7,bocadillo,Spanish,Sounds/spa_bocadillo.mp3,2020-06-05_16h23.01.244,TranslationElicitation_eng-prolific,3.2.4,Win32,60,5ec83d67cfe53914464d2062,,1,0,98,5,1,97
,,,,,,,,,,,,,,,,,,,,,,,,,,,,,,,,,,,,,,,,,m,4.365999937,TRAM,FALSE,,,,,,,7,bocadillo,Spanish,Sounds/spa_bocadillo.mp3,2020-06-05_16h23.01.244,TranslationElicitation_eng-prolific,3.2.4,Win32,60,5ec83d67cfe53914464d2062,,1,0,98,5,1,97
,,,,,,,,,,,,,,,,,,,,,,,,,,,,,,,,,,,,,,,,,p,4.565999985,TRAMP,FALSE,,,,,,,7,bocadillo,Spanish,Sounds/spa_bocadillo.mp3,2020-06-05_16h23.01.244,TranslationElicitation_eng-prolific,3.2.4,Win32,60,5ec83d67cfe53914464d2062,,1,0,98,5,1,97
,,,,,,,,,,,,,,,,,,,,,,,,,,,,,,,,,,,,,,,,,o,4.615999937,TRAMPO,FALSE,,,,,,,7,bocadillo,Spanish,Sounds/spa_bocadillo.mp3,2020-06-05_16h23.01.244,TranslationElicitation_eng-prolific,3.2.4,Win32,60,5ec83d67cfe53914464d2062,,1,0,98,5,1,97
,,,,,,,,,,,,,,,,,,,,,,,,,,,,,,,,,,,,,,,,,l,4.799999952,TRAMPOL,FALSE,,,,,,,7,bocadillo,Spanish,Sounds/spa_bocadillo.mp3,2020-06-05_16h23.01.244,TranslationElicitation_eng-prolific,3.2.4,Win32,60,5ec83d67cfe53914464d2062,,1,0,98,5,1,97
,,,,,,,,,,,,,,,,,,,,,,,,,,,,,,,,,,,,,,,,,i,4.982000113,TRAMPOLI,FALSE,,,,,,,7,bocadillo,Spanish,Sounds/spa_bocadillo.mp3,2020-06-05_16h23.01.244,TranslationElicitation_eng-prolific,3.2.4,Win32,60,5ec83d67cfe53914464d2062,,1,0,98,5,1,97
,,,,,,,,,,,,,,,,,,,,,,,,,,,,,,,,,,,,,,,,,n,5.049000025,TRAMPOLIN,FALSE,,,,,,,7,bocadillo,Spanish,Sounds/spa_bocadillo.mp3,2020-06-05_16h23.01.244,TranslationElicitation_eng-prolific,3.2.4,Win32,60,5ec83d67cfe53914464d2062,,1,0,98,5,1,97
,,,,,,,,,,,,,,,,,,,,,,,,,,,,,,,,,,,,,,,,,e,5.115999937,TRAMPOLINE,FALSE,,,,,,,7,bocadillo,Spanish,Sounds/spa_bocadillo.mp3,2020-06-05_16h23.01.244,TranslationElicitation_eng-prolific,3.2.4,Win32,60,5ec83d67cfe53914464d2062,,1,0,98,5,1,97
,,,,,,,,,,,,,,,,,,,,,,,,,,,,,,,,,,,,,,,,,return,5.648999929,TRAMPOLINE,FALSE,,,,,,,7,bocadillo,Spanish,Sounds/spa_bocadillo.mp3,2020-06-05_16h23.01.244,TranslationElicitation_eng-prolific,3.2.4,Win32,60,5ec83d67cfe53914464d2062,5.648999929,1,0,98,5,1,97
,,,,,,,,,,,,,,,,,,,,,,,,,,,,,,,,,,,,,,,,,,,,,,,,,,,7,bocadillo,Spanish,Sounds/spa_bocadillo.mp3,2020-06-05_16h23.01.244,TranslationElicitation_eng-prolific,3.2.4,Win32,60,5ec83d67cfe53914464d2062,,1,0,98,5,1,97
,,,,,,,,,,,,,,,,,,,,,,,,,,,,,,,,,,,,,,,,,d,3.848999977,D,FALSE,,,,,,,53,leche,Spanish,Sounds/spa_leche.mp3,2020-06-05_16h23.01.244,TranslationElicitation_eng-prolific,3.2.4,Win32,60,5ec83d67cfe53914464d2062,,1,0,98,49,1,97
,,,,,,,,,,,,,,,,,,,,,,,,,,,,,,,,,,,,,,,,,a,4.016000032,DA,FALSE,,,,,,,53,leche,Spanish,Sounds/spa_leche.mp3,2020-06-05_16h23.01.244,TranslationElicitation_eng-prolific,3.2.4,Win32,60,5ec83d67cfe53914464d2062,,1,0,98,49,1,97
,,,,,,,,,,,,,,,,,,,,,,,,,,,,,,,,,,,,,,,,,n,4.116000175,DAN,FALSE,,,,,,,53,leche,Spanish,Sounds/spa_leche.mp3,2020-06-05_16h23.01.244,TranslationElicitation_eng-prolific,3.2.4,Win32,60,5ec83d67cfe53914464d2062,,1,0,98,49,1,97
,,,,,,,,,,,,,,,,,,,,,,,,,,,,,,,,,,,,,,,,,c,4.19900012,DANC,FALSE,,,,,,,53,leche,Spanish,Sounds/spa_leche.mp3,2020-06-05_16h23.01.244,TranslationElicitation_eng-prolific,3.2.4,Win32,60,5ec83d67cfe53914464d2062,,1,0,98,49,1,97
,,,,,,,,,,,,,,,,,,,,,,,,,,,,,,,,,,,,,,,,,i,4.282000065,DANCI,FALSE,,,,,,,53,leche,Spanish,Sounds/spa_leche.mp3,2020-06-05_16h23.01.244,TranslationElicitation_eng-prolific,3.2.4,Win32,60,5ec83d67cfe53914464d2062,,1,0,98,49,1,97
,,,,,,,,,,,,,,,,,,,,,,,,,,,,,,,,,,,,,,,,,n,4.315999985,DANCIN,FALSE,,,,,,,53,leche,Spanish,Sounds/spa_leche.mp3,2020-06-05_16h23.01.244,TranslationElicitation_eng-prolific,3.2.4,Win32,60,5ec83d67cfe53914464d2062,,1,0,98,49,1,97
,,,,,,,,,,,,,,,,,,,,,,,,,,,,,,,,,,,,,,,,,g,4.450000048,DANCING,FALSE,,,,,,,53,leche,Spanish,Sounds/spa_leche.mp3,2020-06-05_16h23.01.244,TranslationElicitation_eng-prolific,3.2.4,Win32,60,5ec83d67cfe53914464d2062,,1,0,98,49,1,97
,,,,,,,,,,,,,,,,,,,,,,,,,,,,,,,,,,,,,,,,,return,4.866000175,DANCING,FALSE,,,,,,,53,leche,Spanish,Sounds/spa_leche.mp3,2020-06-05_16h23.01.244,TranslationElicitation_eng-prolific,3.2.4,Win32,60,5ec83d67cfe53914464d2062,4.866000175,1,0,98,49,1,97
,,,,,,,,,,,,,,,,,,,,,,,,,,,,,,,,,,,,,,,,,,,,,,,,,,,53,leche,Spanish,Sounds/spa_leche.mp3,2020-06-05_16h23.01.244,TranslationElicitation_eng-prolific,3.2.4,Win32,60,5ec83d67cfe53914464d2062,,1,0,98,49,1,97
,,,,,,,,,,,,,,,,,,,,,,,,,,,,,,,,,,,,,,,,,g,2.799000025,G,FALSE,,,,,,,46,grifo,Spanish,Sounds/spa_grifo.mp3,2020-06-05_16h23.01.244,TranslationElicitation_eng-prolific,3.2.4,Win32,60,5ec83d67cfe53914464d2062,,1,0,98,42,1,97
,,,,,,,,,,,,,,,,,,,,,,,,,,,,,,,,,,,,,,,,,r,2.915999889,GR,FALSE,,,,,,,46,grifo,Spanish,Sounds/spa_grifo.mp3,2020-06-05_16h23.01.244,TranslationElicitation_eng-prolific,3.2.4,Win32,60,5ec83d67cfe53914464d2062,,1,0,98,42,1,97
,,,,,,,,,,,,,,,,,,,,,,,,,,,,,,,,,,,,,,,,,i,2.997999907,GRI,FALSE,,,,,,,46,grifo,Spanish,Sounds/spa_grifo.mp3,2020-06-05_16h23.01.244,TranslationElicitation_eng-prolific,3.2.4,Win32,60,5ec83d67cfe53914464d2062,,1,0,98,42,1,97
,,,,,,,,,,,,,,,,,,,,,,,,,,,,,,,,,,,,,,,,,e,3.115999937,GRIE,FALSE,,,,,,,46,grifo,Spanish,Sounds/spa_grifo.mp3,2020-06-05_16h23.01.244,TranslationElicitation_eng-prolific,3.2.4,Win32,60,5ec83d67cfe53914464d2062,,1,0,98,42,1,97
,,,,,,,,,,,,,,,,,,,,,,,,,,,,,,,,,,,,,,,,,f,3.282000065,GRIEF,FALSE,,,,,,,46,grifo,Spanish,Sounds/spa_grifo.mp3,2020-06-05_16h23.01.244,TranslationElicitation_eng-prolific,3.2.4,Win32,60,5ec83d67cfe53914464d2062,,1,0,98,42,1,97
,,,,,,,,,,,,,,,,,,,,,,,,,,,,,,,,,,,,,,,,,return,4.048000097,GRIEF,FALSE,,,,,,,46,grifo,Spanish,Sounds/spa_grifo.mp3,2020-06-05_16h23.01.244,TranslationElicitation_eng-prolific,3.2.4,Win32,60,5ec83d67cfe53914464d2062,4.048000097,1,0,98,42,1,97
,,,,,,,,,,,,,,,,,,,,,,,,,,,,,,,,,,,,,,,,,,,,,,,,,,,46,grifo,Spanish,Sounds/spa_grifo.mp3,2020-06-05_16h23.01.244,TranslationElicitation_eng-prolific,3.2.4,Win32,60,5ec83d67cfe53914464d2062,,1,0,98,42,1,97
,,,,,,,,,,,,,,,,,,,,,,,,,,,,,,,,,,,,,,,,,l,3.547999859,L,FALSE,,,,,,,57,loro,Spanish,Sounds/spa_loro.mp3,2020-06-05_16h23.01.244,TranslationElicitation_eng-prolific,3.2.4,Win32,60,5ec83d67cfe53914464d2062,,1,0,98,53,1,97
,,,,,,,,,,,,,,,,,,,,,,,,,,,,,,,,,,,,,,,,,a,3.71600008,LA,FALSE,,,,,,,57,loro,Spanish,Sounds/spa_loro.mp3,2020-06-05_16h23.01.244,TranslationElicitation_eng-prolific,3.2.4,Win32,60,5ec83d67cfe53914464d2062,,1,0,98,53,1,97
,,,,,,,,,,,,,,,,,,,,,,,,,,,,,,,,,,,,,,,,,u,3.848999977,LAU,FALSE,,,,,,,57,loro,Spanish,Sounds/spa_loro.mp3,2020-06-05_16h23.01.244,TranslationElicitation_eng-prolific,3.2.4,Win32,60,5ec83d67cfe53914464d2062,,1,0,98,53,1,97
,,,,,,,,,,,,,,,,,,,,,,,,,,,,,,,,,,,,,,,,,r,3.981999874,LAUR,FALSE,,,,,,,57,loro,Spanish,Sounds/spa_loro.mp3,2020-06-05_16h23.01.244,TranslationElicitation_eng-prolific,3.2.4,Win32,60,5ec83d67cfe53914464d2062,,1,0,98,53,1,97
,,,,,,,,,,,,,,,,,,,,,,,,,,,,,,,,,,,,,,,,,e,4.132999897,LAURE,FALSE,,,,,,,57,loro,Spanish,Sounds/spa_loro.mp3,2020-06-05_16h23.01.244,TranslationElicitation_eng-prolific,3.2.4,Win32,60,5ec83d67cfe53914464d2062,,1,0,98,53,1,97
,,,,,,,,,,,,,,,,,,,,,,,,,,,,,,,,,,,,,,,,,n,4.181999922,LAUREN,FALSE,,,,,,,57,loro,Spanish,Sounds/spa_loro.mp3,2020-06-05_16h23.01.244,TranslationElicitation_eng-prolific,3.2.4,Win32,60,5ec83d67cfe53914464d2062,,1,0,98,53,1,97
,,,,,,,,,,,,,,,,,,,,,,,,,,,,,,,,,,,,,,,,,return,4.59800005,LAUREN,FALSE,,,,,,,57,loro,Spanish,Sounds/spa_loro.mp3,2020-06-05_16h23.01.244,TranslationElicitation_eng-prolific,3.2.4,Win32,60,5ec83d67cfe53914464d2062,4.59800005,1,0,98,53,1,97
,,,,,,,,,,,,,,,,,,,,,,,,,,,,,,,,,,,,,,,,,,,,,,,,,,,57,loro,Spanish,Sounds/spa_loro.mp3,2020-06-05_16h23.01.244,TranslationElicitation_eng-prolific,3.2.4,Win32,60,5ec83d67cfe53914464d2062,,1,0,98,53,1,97
,,,,,,,,,,,,,,,,,,,,,,,,,,,,,,,,,,,,,,,,,u,2.731999874,U,FALSE,,,,,,,60,manzana,Spanish,Sounds/spa_manzana.mp3,2020-06-05_16h23.01.244,TranslationElicitation_eng-prolific,3.2.4,Win32,60,5ec83d67cfe53914464d2062,,1,0,98,56,1,97
,,,,,,,,,,,,,,,,,,,,,,,,,,,,,,,,,,,,,,,,,n,2.766000032,UN,FALSE,,,,,,,60,manzana,Spanish,Sounds/spa_manzana.mp3,2020-06-05_16h23.01.244,TranslationElicitation_eng-prolific,3.2.4,Win32,60,5ec83d67cfe53914464d2062,,1,0,98,56,1,97
,,,,,,,,,,,,,,,,,,,,,,,,,,,,,,,,,,,,,,,,,c,2.881999969,UNC,FALSE,,,,,,,60,manzana,Spanish,Sounds/spa_manzana.mp3,2020-06-05_16h23.01.244,TranslationElicitation_eng-prolific,3.2.4,Win32,60,5ec83d67cfe53914464d2062,,1,0,98,56,1,97
,,,,,,,,,,,,,,,,,,,,,,,,,,,,,,,,,,,,,,,,,l,3.032999992,UNCL,FALSE,,,,,,,60,manzana,Spanish,Sounds/spa_manzana.mp3,2020-06-05_16h23.01.244,TranslationElicitation_eng-prolific,3.2.4,Win32,60,5ec83d67cfe53914464d2062,,1,0,98,56,1,97
,,,,,,,,,,,,,,,,,,,,,,,,,,,,,,,,,,,,,,,,,e,3.181999922,UNCLE,FALSE,,,,,,,60,manzana,Spanish,Sounds/spa_manzana.mp3,2020-06-05_16h23.01.244,TranslationElicitation_eng-prolific,3.2.4,Win32,60,5ec83d67cfe53914464d2062,,1,0,98,56,1,97
,,,,,,,,,,,,,,,,,,,,,,,,,,,,,,,,,,,,,,,,,return,3.415999889,UNCLE,FALSE,,,,,,,60,manzana,Spanish,Sounds/spa_manzana.mp3,2020-06-05_16h23.01.244,TranslationElicitation_eng-prolific,3.2.4,Win32,60,5ec83d67cfe53914464d2062,3.415999889,1,0,98,56,1,97
,,,,,,,,,,,,,,,,,,,,,,,,,,,,,,,,,,,,,,,,,,,,,,,,,,,60,manzana,Spanish,Sounds/spa_manzana.mp3,2020-06-05_16h23.01.244,TranslationElicitation_eng-prolific,3.2.4,Win32,60,5ec83d67cfe53914464d2062,,1,0,98,56,1,97
,,,,,,,,,,,,,,,,,,,,,,,,,,,,,,,,,,,,,,,,,s,1.815999985,S,FALSE,,,,,,,25,cesta,Spanish,Sounds/spa_cesta.mp3,2020-06-05_16h23.01.244,TranslationElicitation_eng-prolific,3.2.4,Win32,60,5ec83d67cfe53914464d2062,,1,0,98,23,1,97
,,,,,,,,,,,,,,,,,,,,,,,,,,,,,,,,,,,,,,,,,i,1.900000095,SI,FALSE,,,,,,,25,cesta,Spanish,Sounds/spa_cesta.mp3,2020-06-05_16h23.01.244,TranslationElicitation_eng-prolific,3.2.4,Win32,60,5ec83d67cfe53914464d2062,,1,0,98,23,1,97
,,,,,,,,,,,,,,,,,,,,,,,,,,,,,,,,,,,,,,,,,s,1.96600008,SIS,FALSE,,,,,,,25,cesta,Spanish,Sounds/spa_cesta.mp3,2020-06-05_16h23.01.244,TranslationElicitation_eng-prolific,3.2.4,Win32,60,5ec83d67cfe53914464d2062,,1,0,98,23,1,97
,,,,,,,,,,,,,,,,,,,,,,,,,,,,,,,,,,,,,,,,,t,2.150000095,SIST,FALSE,,,,,,,25,cesta,Spanish,Sounds/spa_cesta.mp3,2020-06-05_16h23.01.244,TranslationElicitation_eng-prolific,3.2.4,Win32,60,5ec83d67cfe53914464d2062,,1,0,98,23,1,97
,,,,,,,,,,,,,,,,,,,,,,,,,,,,,,,,,,,,,,,,,e,2.217000008,SISTE,FALSE,,,,,,,25,cesta,Spanish,Sounds/spa_cesta.mp3,2020-06-05_16h23.01.244,TranslationElicitation_eng-prolific,3.2.4,Win32,60,5ec83d67cfe53914464d2062,,1,0,98,23,1,97
,,,,,,,,,,,,,,,,,,,,,,,,,,,,,,,,,,,,,,,,,r,2.349000216,SISTER,FALSE,,,,,,,25,cesta,Spanish,Sounds/spa_cesta.mp3,2020-06-05_16h23.01.244,TranslationElicitation_eng-prolific,3.2.4,Win32,60,5ec83d67cfe53914464d2062,,1,0,98,23,1,97
,,,,,,,,,,,,,,,,,,,,,,,,,,,,,,,,,,,,,,,,,return,2.69900012,SISTER,FALSE,,,,,,,25,cesta,Spanish,Sounds/spa_cesta.mp3,2020-06-05_16h23.01.244,TranslationElicitation_eng-prolific,3.2.4,Win32,60,5ec83d67cfe53914464d2062,2.69900012,1,0,98,23,1,97
,,,,,,,,,,,,,,,,,,,,,,,,,,,,,,,,,,,,,,,,,,,,,,,,,,,25,cesta,Spanish,Sounds/spa_cesta.mp3,2020-06-05_16h23.01.244,TranslationElicitation_eng-prolific,3.2.4,Win32,60,5ec83d67cfe53914464d2062,,1,0,98,23,1,97
,,,,,,,,,,,,,,,,,,,,,,,,,,,,,,,,,,,,,,,,,a,4,A,FALSE,,,,,,,97,tijeras,Spanish,Sounds/spa_tijeras.mp3,2020-06-05_16h23.01.244,TranslationElicitation_eng-prolific,3.2.4,Win32,60,5ec83d67cfe53914464d2062,,1,0,98,91,1,97
,,,,,,,,,,,,,,,,,,,,,,,,,,,,,,,,,,,,,,,,,u,4.065999985,AU,FALSE,,,,,,,97,tijeras,Spanish,Sounds/spa_tijeras.mp3,2020-06-05_16h23.01.244,TranslationElicitation_eng-prolific,3.2.4,Win32,60,5ec83d67cfe53914464d2062,,1,0,98,91,1,97
,,,,,,,,,,,,,,,,,,,,,,,,,,,,,,,,,,,,,,,,,n,4.21600008,AUN,FALSE,,,,,,,97,tijeras,Spanish,Sounds/spa_tijeras.mp3,2020-06-05_16h23.01.244,TranslationElicitation_eng-prolific,3.2.4,Win32,60,5ec83d67cfe53914464d2062,,1,0,98,91,1,97
,,,,,,,,,,,,,,,,,,,,,,,,,,,,,,,,,,,,,,,,,t,4.382999897,AUNT,FALSE,,,,,,,97,tijeras,Spanish,Sounds/spa_tijeras.mp3,2020-06-05_16h23.01.244,TranslationElicitation_eng-prolific,3.2.4,Win32,60,5ec83d67cfe53914464d2062,,1,0,98,91,1,97
,,,,,,,,,,,,,,,,,,,,,,,,,,,,,,,,,,,,,,,,,return,4.75,AUNT,FALSE,,,,,,,97,tijeras,Spanish,Sounds/spa_tijeras.mp3,2020-06-05_16h23.01.244,TranslationElicitation_eng-prolific,3.2.4,Win32,60,5ec83d67cfe53914464d2062,4.75,1,0,98,91,1,97
,,,,,,,,,,,,,,,,,,,,,,,,,,,,,,,,,,,,,,,,,,,,,,,,,,,97,tijeras,Spanish,Sounds/spa_tijeras.mp3,2020-06-05_16h23.01.244,TranslationElicitation_eng-prolific,3.2.4,Win32,60,5ec83d67cfe53914464d2062,,1,0,98,91,1,97
,,,,,,,,,,,,,,,,,,,,,,,,,,,,,,,,,,,,,,,,,f,3.381999969,F,FALSE,,,,,,,81,pelota,Spanish,Sounds/spa_pelota.mp3,2020-06-05_16h23.01.244,TranslationElicitation_eng-prolific,3.2.4,Win32,60,5ec83d67cfe53914464d2062,,1,0,98,76,1,97
,,,,,,,,,,,,,,,,,,,,,,,,,,,,,,,,,,,,,,,,,r,3.565000057,FR,FALSE,,,,,,,81,pelota,Spanish,Sounds/spa_pelota.mp3,2020-06-05_16h23.01.244,TranslationElicitation_eng-prolific,3.2.4,Win32,60,5ec83d67cfe53914464d2062,,1,0,98,76,1,97
,,,,,,,,,,,,,,,,,,,,,,,,,,,,,,,,,,,,,,,,,i,3.664999962,FRI,FALSE,,,,,,,81,pelota,Spanish,Sounds/spa_pelota.mp3,2020-06-05_16h23.01.244,TranslationElicitation_eng-prolific,3.2.4,Win32,60,5ec83d67cfe53914464d2062,,1,0,98,76,1,97
,,,,,,,,,,,,,,,,,,,,,,,,,,,,,,,,,,,,,,,,,e,3.731999874,FRIE,FALSE,,,,,,,81,pelota,Spanish,Sounds/spa_pelota.mp3,2020-06-05_16h23.01.244,TranslationElicitation_eng-prolific,3.2.4,Win32,60,5ec83d67cfe53914464d2062,,1,0,98,76,1,97
,,,,,,,,,,,,,,,,,,,,,,,,,,,,,,,,,,,,,,,,,n,3.832999945,FRIEN,FALSE,,,,,,,81,pelota,Spanish,Sounds/spa_pelota.mp3,2020-06-05_16h23.01.244,TranslationElicitation_eng-prolific,3.2.4,Win32,60,5ec83d67cfe53914464d2062,,1,0,98,76,1,97
,,,,,,,,,,,,,,,,,,,,,,,,,,,,,,,,,,,,,,,,,d,3.915999889,FRIEND,FALSE,,,,,,,81,pelota,Spanish,Sounds/spa_pelota.mp3,2020-06-05_16h23.01.244,TranslationElicitation_eng-prolific,3.2.4,Win32,60,5ec83d67cfe53914464d2062,,1,0,98,76,1,97
,,,,,,,,,,,,,,,,,,,,,,,,,,,,,,,,,,,,,,,,,s,4.049000025,FRIENDS,FALSE,,,,,,,81,pelota,Spanish,Sounds/spa_pelota.mp3,2020-06-05_16h23.01.244,TranslationElicitation_eng-prolific,3.2.4,Win32,60,5ec83d67cfe53914464d2062,,1,0,98,76,1,97
,,,,,,,,,,,,,,,,,,,,,,,,,,,,,,,,,,,,,,,,,return,4.348999977,FRIENDS,FALSE,,,,,,,81,pelota,Spanish,Sounds/spa_pelota.mp3,2020-06-05_16h23.01.244,TranslationElicitation_eng-prolific,3.2.4,Win32,60,5ec83d67cfe53914464d2062,4.348999977,1,0,98,76,1,97
,,,,,,,,,,,,,,,,,,,,,,,,,,,,,,,,,,,,,,,,,,,,,,,,,,,81,pelota,Spanish,Sounds/spa_pelota.mp3,2020-06-05_16h23.01.244,TranslationElicitation_eng-prolific,3.2.4,Win32,60,5ec83d67cfe53914464d2062,,1,0,98,76,1,97
,,,,,,,,,,,,,,,,,,,,,,,,,,,,,,,,,,,,,,,,,p,2.565999985,P,FALSE,,,,,,,87,platano,Spanish,Sounds/spa_platano.mp3,2020-06-05_16h23.01.244,TranslationElicitation_eng-prolific,3.2.4,Win32,60,5ec83d67cfe53914464d2062,,1,0,98,82,1,97
,,,,,,,,,,,,,,,,,,,,,,,,,,,,,,,,,,,,,,,,,l,2.632999897,PL,FALSE,,,,,,,87,platano,Spanish,Sounds/spa_platano.mp3,2020-06-05_16h23.01.244,TranslationElicitation_eng-prolific,3.2.4,Win32,60,5ec83d67cfe53914464d2062,,1,0,98,82,1,97
,,,,,,,,,,,,,,,,,,,,,,,,,,,,,,,,,,,,,,,,,a,2.96600008,PLA,FALSE,,,,,,,87,platano,Spanish,Sounds/spa_platano.mp3,2020-06-05_16h23.01.244,TranslationElicitation_eng-prolific,3.2.4,Win32,60,5ec83d67cfe53914464d2062,,1,0,98,82,1,97
,,,,,,,,,,,,,,,,,,,,,,,,,,,,,,,,,,,,,,,,,n,3.032999992,PLAN,FALSE,,,,,,,87,platano,Spanish,Sounds/spa_platano.mp3,2020-06-05_16h23.01.244,TranslationElicitation_eng-prolific,3.2.4,Win32,60,5ec83d67cfe53914464d2062,,1,0,98,82,1,97
,,,,,,,,,,,,,,,,,,,,,,,,,,,,,,,,,,,,,,,,,t,3.200000048,PLANT,FALSE,,,,,,,87,platano,Spanish,Sounds/spa_platano.mp3,2020-06-05_16h23.01.244,TranslationElicitation_eng-prolific,3.2.4,Win32,60,5ec83d67cfe53914464d2062,,1,0,98,82,1,97
,,,,,,,,,,,,,,,,,,,,,,,,,,,,,,,,,,,,,,,,,s,3.749000072,PLANTS,FALSE,,,,,,,87,platano,Spanish,Sounds/spa_platano.mp3,2020-06-05_16h23.01.244,TranslationElicitation_eng-prolific,3.2.4,Win32,60,5ec83d67cfe53914464d2062,,1,0,98,82,1,97
,,,,,,,,,,,,,,,,,,,,,,,,,,,,,,,,,,,,,,,,,return,4.082999945,PLANTS,FALSE,,,,,,,87,platano,Spanish,Sounds/spa_platano.mp3,2020-06-05_16h23.01.244,TranslationElicitation_eng-prolific,3.2.4,Win32,60,5ec83d67cfe53914464d2062,4.082999945,1,0,98,82,1,97
,,,,,,,,,,,,,,,,,,,,,,,,,,,,,,,,,,,,,,,,,,,,,,,,,,,87,platano,Spanish,Sounds/spa_platano.mp3,2020-06-05_16h23.01.244,TranslationElicitation_eng-prolific,3.2.4,Win32,60,5ec83d67cfe53914464d2062,,1,0,98,82,1,97
,,,,,,,,,,,,,,,,,,,,,,,,,,,,,,,,,,,,,,,,,d,2.299999952,D,FALSE,,,,,,,80,pato,Spanish,Sounds/spa_pato.mp3,2020-06-05_16h23.01.244,TranslationElicitation_eng-prolific,3.2.4,Win32,60,5ec83d67cfe53914464d2062,,1,0,98,75,1,97
,,,,,,,,,,,,,,,,,,,,,,,,,,,,,,,,,,,,,,,,,o,2.365999937,DO,FALSE,,,,,,,80,pato,Spanish,Sounds/spa_pato.mp3,2020-06-05_16h23.01.244,TranslationElicitation_eng-prolific,3.2.4,Win32,60,5ec83d67cfe53914464d2062,,1,0,98,75,1,97
,,,,,,,,,,,,,,,,,,,,,,,,,,,,,,,,,,,,,,,,,g,2.5,DOG,FALSE,,,,,,,80,pato,Spanish,Sounds/spa_pato.mp3,2020-06-05_16h23.01.244,TranslationElicitation_eng-prolific,3.2.4,Win32,60,5ec83d67cfe53914464d2062,,1,0,98,75,1,97
,,,,,,,,,,,,,,,,,,,,,,,,,,,,,,,,,,,,,,,,,return,2.916000128,DOG,FALSE,,,,,,,80,pato,Spanish,Sounds/spa_pato.mp3,2020-06-05_16h23.01.244,TranslationElicitation_eng-prolific,3.2.4,Win32,60,5ec83d67cfe53914464d2062,2.916000128,1,0,98,75,1,97
,,,,,,,,,,,,,,,,,,,,,,,,,,,,,,,,,,,,,,,,,,,,,,,,,,,80,pato,Spanish,Sounds/spa_pato.mp3,2020-06-05_16h23.01.244,TranslationElicitation_eng-prolific,3.2.4,Win32,60,5ec83d67cfe53914464d2062,,1,0,98,75,1,97
,,,,,,,,,,,,,,,,,,,,,,,,,,,,,,,,,,,,,,,,,h,3,H,FALSE,,,,,,,6,boca,Spanish,Sounds/spa_boca.mp3,2020-06-05_16h23.01.244,TranslationElicitation_eng-prolific,3.2.4,Win32,60,5ec83d67cfe53914464d2062,,1,0,98,4,1,97
,,,,,,,,,,,,,,,,,,,,,,,,,,,,,,,,,,,,,,,,,o,3.182999849,HO,FALSE,,,,,,,6,boca,Spanish,Sounds/spa_boca.mp3,2020-06-05_16h23.01.244,TranslationElicitation_eng-prolific,3.2.4,Win32,60,5ec83d67cfe53914464d2062,,1,0,98,4,1,97
,,,,,,,,,,,,,,,,,,,,,,,,,,,,,,,,,,,,,,,,,u,3.215999842,HOU,FALSE,,,,,,,6,boca,Spanish,Sounds/spa_boca.mp3,2020-06-05_16h23.01.244,TranslationElicitation_eng-prolific,3.2.4,Win32,60,5ec83d67cfe53914464d2062,,1,0,98,4,1,97
,,,,,,,,,,,,,,,,,,,,,,,,,,,,,,,,,,,,,,,,,s,3.299000025,HOUS,FALSE,,,,,,,6,boca,Spanish,Sounds/spa_boca.mp3,2020-06-05_16h23.01.244,TranslationElicitation_eng-prolific,3.2.4,Win32,60,5ec83d67cfe53914464d2062,,1,0,98,4,1,97
,,,,,,,,,,,,,,,,,,,,,,,,,,,,,,,,,,,,,,,,,e,3.5,HOUSE,FALSE,,,,,,,6,boca,Spanish,Sounds/spa_boca.mp3,2020-06-05_16h23.01.244,TranslationElicitation_eng-prolific,3.2.4,Win32,60,5ec83d67cfe53914464d2062,,1,0,98,4,1,97
,,,,,,,,,,,,,,,,,,,,,,,,,,,,,,,,,,,,,,,,,return,4.682999849,HOUSE,FALSE,,,,,,,6,boca,Spanish,Sounds/spa_boca.mp3,2020-06-05_16h23.01.244,TranslationElicitation_eng-prolific,3.2.4,Win32,60,5ec83d67cfe53914464d2062,4.682999849,1,0,98,4,1,97
,,,,,,,,,,,,,,,,,,,,,,,,,,,,,,,,,,,,,,,,,,,,,,,,,,,6,boca,Spanish,Sounds/spa_boca.mp3,2020-06-05_16h23.01.244,TranslationElicitation_eng-prolific,3.2.4,Win32,60,5ec83d67cfe53914464d2062,,1,0,98,4,1,97
,,,,,,,,,,,,,,,,,,,,,,,,,,,,,,,,,,,,,,,,,p,1.631999969,P,FALSE,,,,,,,79,patata,Spanish,Sounds/spa_patata.mp3,2020-06-05_16h23.01.244,TranslationElicitation_eng-prolific,3.2.4,Win32,60,5ec83d67cfe53914464d2062,,1,0,98,74,1,97
,,,,,,,,,,,,,,,,,,,,,,,,,,,,,,,,,,,,,,,,,o,1.766000032,PO,FALSE,,,,,,,79,patata,Spanish,Sounds/spa_patata.mp3,2020-06-05_16h23.01.244,TranslationElicitation_eng-prolific,3.2.4,Win32,60,5ec83d67cfe53914464d2062,,1,0,98,74,1,97
,,,,,,,,,,,,,,,,,,,,,,,,,,,,,,,,,,,,,,,,,t,1.899000168,POT,FALSE,,,,,,,79,patata,Spanish,Sounds/spa_patata.mp3,2020-06-05_16h23.01.244,TranslationElicitation_eng-prolific,3.2.4,Win32,60,5ec83d67cfe53914464d2062,,1,0,98,74,1,97
,,,,,,,,,,,,,,,,,,,,,,,,,,,,,,,,,,,,,,,,,a,2.098999977,POTA,FALSE,,,,,,,79,patata,Spanish,Sounds/spa_patata.mp3,2020-06-05_16h23.01.244,TranslationElicitation_eng-prolific,3.2.4,Win32,60,5ec83d67cfe53914464d2062,,1,0,98,74,1,97
,,,,,,,,,,,,,,,,,,,,,,,,,,,,,,,,,,,,,,,,,o,2.36500001,POTAO,FALSE,,,,,,,79,patata,Spanish,Sounds/spa_patata.mp3,2020-06-05_16h23.01.244,TranslationElicitation_eng-prolific,3.2.4,Win32,60,5ec83d67cfe53914464d2062,,1,0,98,74,1,97
,,,,,,,,,,,,,,,,,,,,,,,,,,,,,,,,,,,,,,,,,backspace,2.715000153,POTA,TRUE,,,,,,,79,patata,Spanish,Sounds/spa_patata.mp3,2020-06-05_16h23.01.244,TranslationElicitation_eng-prolific,3.2.4,Win32,60,5ec83d67cfe53914464d2062,,1,0,98,74,1,97
,,,,,,,,,,,,,,,,,,,,,,,,,,,,,,,,,,,,,,,,,t,2.832000017,POTAT,TRUE,,,,,,,79,patata,Spanish,Sounds/spa_patata.mp3,2020-06-05_16h23.01.244,TranslationElicitation_eng-prolific,3.2.4,Win32,60,5ec83d67cfe53914464d2062,,1,0,98,74,1,97
,,,,,,,,,,,,,,,,,,,,,,,,,,,,,,,,,,,,,,,,,o,2.899000168,POTATO,TRUE,,,,,,,79,patata,Spanish,Sounds/spa_patata.mp3,2020-06-05_16h23.01.244,TranslationElicitation_eng-prolific,3.2.4,Win32,60,5ec83d67cfe53914464d2062,,1,0,98,74,1,97
,,,,,,,,,,,,,,,,,,,,,,,,,,,,,,,,,,,,,,,,,return,3.616000175,POTATO,TRUE,,,,,,,79,patata,Spanish,Sounds/spa_patata.mp3,2020-06-05_16h23.01.244,TranslationElicitation_eng-prolific,3.2.4,Win32,60,5ec83d67cfe53914464d2062,3.616000175,1,0,98,74,1,97
,,,,,,,,,,,,,,,,,,,,,,,,,,,,,,,,,,,,,,,,,,,,,,,,,,,79,patata,Spanish,Sounds/spa_patata.mp3,2020-06-05_16h23.01.244,TranslationElicitation_eng-prolific,3.2.4,Win32,60,5ec83d67cfe53914464d2062,,1,0,98,74,1,97
,,,,,,,,,,,,,,,,,,,,,,,,,,,,,,,,,,,,,,,,,t,4.200000048,T,FALSE,,,,,,,40,galleta,Spanish,Sounds/spa_galleta.mp3,2020-06-05_16h23.01.244,TranslationElicitation_eng-prolific,3.2.4,Win32,60,5ec83d67cfe53914464d2062,,1,0,98,36,1,97
,,,,,,,,,,,,,,,,,,,,,,,,,,,,,,,,,,,,,,,,,r,4.315999985,TR,FALSE,,,,,,,40,galleta,Spanish,Sounds/spa_galleta.mp3,2020-06-05_16h23.01.244,TranslationElicitation_eng-prolific,3.2.4,Win32,60,5ec83d67cfe53914464d2062,,1,0,98,36,1,97
,,,,,,,,,,,,,,,,,,,,,,,,,,,,,,,,,,,,,,,,,a,4.5,TRA,FALSE,,,,,,,40,galleta,Spanish,Sounds/spa_galleta.mp3,2020-06-05_16h23.01.244,TranslationElicitation_eng-prolific,3.2.4,Win32,60,5ec83d67cfe53914464d2062,,1,0,98,36,1,97
,,,,,,,,,,,,,,,,,,,,,,,,,,,,,,,,,,,,,,,,,v,4.583000183,TRAV,FALSE,,,,,,,40,galleta,Spanish,Sounds/spa_galleta.mp3,2020-06-05_16h23.01.244,TranslationElicitation_eng-prolific,3.2.4,Win32,60,5ec83d67cfe53914464d2062,,1,0,98,36,1,97
,,,,,,,,,,,,,,,,,,,,,,,,,,,,,,,,,,,,,,,,,e,4.717000008,TRAVE,FALSE,,,,,,,40,galleta,Spanish,Sounds/spa_galleta.mp3,2020-06-05_16h23.01.244,TranslationElicitation_eng-prolific,3.2.4,Win32,60,5ec83d67cfe53914464d2062,,1,0,98,36,1,97
,,,,,,,,,,,,,,,,,,,,,,,,,,,,,,,,,,,,,,,,,l,4.833000183,TRAVEL,FALSE,,,,,,,40,galleta,Spanish,Sounds/spa_galleta.mp3,2020-06-05_16h23.01.244,TranslationElicitation_eng-prolific,3.2.4,Win32,60,5ec83d67cfe53914464d2062,,1,0,98,36,1,97
,,,,,,,,,,,,,,,,,,,,,,,,,,,,,,,,,,,,,,,,,return,5.21600008,TRAVEL,FALSE,,,,,,,40,galleta,Spanish,Sounds/spa_galleta.mp3,2020-06-05_16h23.01.244,TranslationElicitation_eng-prolific,3.2.4,Win32,60,5ec83d67cfe53914464d2062,5.21600008,1,0,98,36,1,97
,,,,,,,,,,,,,,,,,,,,,,,,,,,,,,,,,,,,,,,,,,,,,,,,,,,40,galleta,Spanish,Sounds/spa_galleta.mp3,2020-06-05_16h23.01.244,TranslationElicitation_eng-prolific,3.2.4,Win32,60,5ec83d67cfe53914464d2062,,1,0,98,36,1,97
,,,,,,,,,,,,,,,,,,,,,,,,,,,,,,,,,,,,,,,,,s,2.900000095,S,FALSE,,,,,,,34,ensalada,Spanish,Sounds/spa_ensalada.mp3,2020-06-05_16h23.01.244,TranslationElicitation_eng-prolific,3.2.4,Win32,60,5ec83d67cfe53914464d2062,,1,0,98,30,1,97
,,,,,,,,,,,,,,,,,,,,,,,,,,,,,,,,,,,,,,,,,a,3.03399992,SA,FALSE,,,,,,,34,ensalada,Spanish,Sounds/spa_ensalada.mp3,2020-06-05_16h23.01.244,TranslationElicitation_eng-prolific,3.2.4,Win32,60,5ec83d67cfe53914464d2062,,1,0,98,30,1,97
,,,,,,,,,,,,,,,,,,,,,,,,,,,,,,,,,,,,,,,,,l,3.115999937,SAL,FALSE,,,,,,,34,ensalada,Spanish,Sounds/spa_ensalada.mp3,2020-06-05_16h23.01.244,TranslationElicitation_eng-prolific,3.2.4,Win32,60,5ec83d67cfe53914464d2062,,1,0,98,30,1,97
,,,,,,,,,,,,,,,,,,,,,,,,,,,,,,,,,,,,,,,,,a,3.167000055,SALA,FALSE,,,,,,,34,ensalada,Spanish,Sounds/spa_ensalada.mp3,2020-06-05_16h23.01.244,TranslationElicitation_eng-prolific,3.2.4,Win32,60,5ec83d67cfe53914464d2062,,1,0,98,30,1,97
,,,,,,,,,,,,,,,,,,,,,,,,,,,,,,,,,,,,,,,,,d,3.332999945,SALAD,FALSE,,,,,,,34,ensalada,Spanish,Sounds/spa_ensalada.mp3,2020-06-05_16h23.01.244,TranslationElicitation_eng-prolific,3.2.4,Win32,60,5ec83d67cfe53914464d2062,,1,0,98,30,1,97
,,,,,,,,,,,,,,,,,,,,,,,,,,,,,,,,,,,,,,,,,return,3.700000048,SALAD,FALSE,,,,,,,34,ensalada,Spanish,Sounds/spa_ensalada.mp3,2020-06-05_16h23.01.244,TranslationElicitation_eng-prolific,3.2.4,Win32,60,5ec83d67cfe53914464d2062,3.700000048,1,0,98,30,1,97
,,,,,,,,,,,,,,,,,,,,,,,,,,,,,,,,,,,,,,,,,,,,,,,,,,,34,ensalada,Spanish,Sounds/spa_ensalada.mp3,2020-06-05_16h23.01.244,TranslationElicitation_eng-prolific,3.2.4,Win32,60,5ec83d67cfe53914464d2062,,1,0,98,30,1,97
,,,,,,,,,,,,,,,,,,,,,,,,,,,,,,,,,,,,,,,,,b,2.898999929,B,FALSE,,,,,,,13,buho,Spanish,Sounds/spa_buho.mp3,2020-06-05_16h23.01.244,TranslationElicitation_eng-prolific,3.2.4,Win32,60,5ec83d67cfe53914464d2062,,1,0,98,11,1,97
,,,,,,,,,,,,,,,,,,,,,,,,,,,,,,,,,,,,,,,,,u,3.281999826,BU,FALSE,,,,,,,13,buho,Spanish,Sounds/spa_buho.mp3,2020-06-05_16h23.01.244,TranslationElicitation_eng-prolific,3.2.4,Win32,60,5ec83d67cfe53914464d2062,,1,0,98,11,1,97
,,,,,,,,,,,,,,,,,,,,,,,,,,,,,,,,,,,,,,,,,y,3.332000017,BUY,FALSE,,,,,,,13,buho,Spanish,Sounds/spa_buho.mp3,2020-06-05_16h23.01.244,TranslationElicitation_eng-prolific,3.2.4,Win32,60,5ec83d67cfe53914464d2062,,1,0,98,11,1,97
,,,,,,,,,,,,,,,,,,,,,,,,,,,,,,,,,,,,,,,,,return,3.782999992,BUY,FALSE,,,,,,,13,buho,Spanish,Sounds/spa_buho.mp3,2020-06-05_16h23.01.244,TranslationElicitation_eng-prolific,3.2.4,Win32,60,5ec83d67cfe53914464d2062,3.782999992,1,0,98,11,1,97
,,,,,,,,,,,,,,,,,,,,,,,,,,,,,,,,,,,,,,,,,,,,,,,,,,,13,buho,Spanish,Sounds/spa_buho.mp3,2020-06-05_16h23.01.244,TranslationElicitation_eng-prolific,3.2.4,Win32,60,5ec83d67cfe53914464d2062,,1,0,98,11,1,97
,,,,,,,,,,,,,,,,,,,,,,,,,,,,,,,,,,,,,,,,,b,1.799000025,B,FALSE,,,,,,,8,bol,Spanish,Sounds/spa_bol.mp3,2020-06-05_16h23.01.244,TranslationElicitation_eng-prolific,3.2.4,Win32,60,5ec83d67cfe53914464d2062,,1,0,98,6,1,97
,,,,,,,,,,,,,,,,,,,,,,,,,,,,,,,,,,,,,,,,,a,1.932999849,BA,FALSE,,,,,,,8,bol,Spanish,Sounds/spa_bol.mp3,2020-06-05_16h23.01.244,TranslationElicitation_eng-prolific,3.2.4,Win32,60,5ec83d67cfe53914464d2062,,1,0,98,6,1,97
,,,,,,,,,,,,,,,,,,,,,,,,,,,,,,,,,,,,,,,,,l,2.082000017,BAL,FALSE,,,,,,,8,bol,Spanish,Sounds/spa_bol.mp3,2020-06-05_16h23.01.244,TranslationElicitation_eng-prolific,3.2.4,Win32,60,5ec83d67cfe53914464d2062,,1,0,98,6,1,97
,,,,,,,,,,,,,,,,,,,,,,,,,,,,,,,,,,,,,,,,,l,2.215999842,BALL,FALSE,,,,,,,8,bol,Spanish,Sounds/spa_bol.mp3,2020-06-05_16h23.01.244,TranslationElicitation_eng-prolific,3.2.4,Win32,60,5ec83d67cfe53914464d2062,,1,0,98,6,1,97
,,,,,,,,,,,,,,,,,,,,,,,,,,,,,,,,,,,,,,,,,return,2.465999842,BALL,FALSE,,,,,,,8,bol,Spanish,Sounds/spa_bol.mp3,2020-06-05_16h23.01.244,TranslationElicitation_eng-prolific,3.2.4,Win32,60,5ec83d67cfe53914464d2062,2.465999842,1,0,98,6,1,97
,,,,,,,,,,,,,,,,,,,,,,,,,,,,,,,,,,,,,,,,,,,,,,,,,,,8,bol,Spanish,Sounds/spa_bol.mp3,2020-06-05_16h23.01.244,TranslationElicitation_eng-prolific,3.2.4,Win32,60,5ec83d67cfe53914464d2062,,1,0,98,6,1,97
,,,,,,,,,,,,,,,,,,,,,,,,,,,,,,,,,,,,,,,,,h,4.616000175,H,FALSE,,,,,,,10,botella,Spanish,Sounds/spa_botella.mp3,2020-06-05_16h23.01.244,TranslationElicitation_eng-prolific,3.2.4,Win32,60,5ec83d67cfe53914464d2062,,1,0,98,8,1,97
,,,,,,,,,,,,,,,,,,,,,,,,,,,,,,,,,,,,,,,,,o,4.815000057,HO,FALSE,,,,,,,10,botella,Spanish,Sounds/spa_botella.mp3,2020-06-05_16h23.01.244,TranslationElicitation_eng-prolific,3.2.4,Win32,60,5ec83d67cfe53914464d2062,,1,0,98,8,1,97
,,,,,,,,,,,,,,,,,,,,,,,,,,,,,,,,,,,,,,,,,m,4.849000216,HOM,FALSE,,,,,,,10,botella,Spanish,Sounds/spa_botella.mp3,2020-06-05_16h23.01.244,TranslationElicitation_eng-prolific,3.2.4,Win32,60,5ec83d67cfe53914464d2062,,1,0,98,8,1,97
,,,,,,,,,,,,,,,,,,,,,,,,,,,,,,,,,,,,,,,,,e,4.94900012,HOME,FALSE,,,,,,,10,botella,Spanish,Sounds/spa_botella.mp3,2020-06-05_16h23.01.244,TranslationElicitation_eng-prolific,3.2.4,Win32,60,5ec83d67cfe53914464d2062,,1,0,98,8,1,97
,,,,,,,,,,,,,,,,,,,,,,,,,,,,,,,,,,,,,,,,,return,5.282999992,HOME,FALSE,,,,,,,10,botella,Spanish,Sounds/spa_botella.mp3,2020-06-05_16h23.01.244,TranslationElicitation_eng-prolific,3.2.4,Win32,60,5ec83d67cfe53914464d2062,5.282999992,1,0,98,8,1,97
,,,,,,,,,,,,,,,,,,,,,,,,,,,,,,,,,,,,,,,,,,,,,,,,,,,10,botella,Spanish,Sounds/spa_botella.mp3,2020-06-05_16h23.01.244,TranslationElicitation_eng-prolific,3.2.4,Win32,60,5ec83d67cfe53914464d2062,,1,0,98,8,1,97
,,,,,,,,,,,,,,,,,,,,,,,,,,,,,,,,,,,,,,,,,r,4.082999945,R,FALSE,,,,,,,4,biberon,Spanish,Sounds/spa_biberon.mp3,2020-06-05_16h23.01.244,TranslationElicitation_eng-prolific,3.2.4,Win32,60,5ec83d67cfe53914464d2062,,1,0,98,2,1,97
,,,,,,,,,,,,,,,,,,,,,,,,,,,,,,,,,,,,,,,,,u,4.133000135,RU,FALSE,,,,,,,4,biberon,Spanish,Sounds/spa_biberon.mp3,2020-06-05_16h23.01.244,TranslationElicitation_eng-prolific,3.2.4,Win32,60,5ec83d67cfe53914464d2062,,1,0,98,2,1,97
,,,,,,,,,,,,,,,,,,,,,,,,,,,,,,,,,,,,,,,,,n,4.23300004,RUN,FALSE,,,,,,,4,biberon,Spanish,Sounds/spa_biberon.mp3,2020-06-05_16h23.01.244,TranslationElicitation_eng-prolific,3.2.4,Win32,60,5ec83d67cfe53914464d2062,,1,0,98,2,1,97
,,,,,,,,,,,,,,,,,,,,,,,,,,,,,,,,,,,,,,,,,return,4.648999929,RUN,FALSE,,,,,,,4,biberon,Spanish,Sounds/spa_biberon.mp3,2020-06-05_16h23.01.244,TranslationElicitation_eng-prolific,3.2.4,Win32,60,5ec83d67cfe53914464d2062,4.648999929,1,0,98,2,1,97
,,,,,,,,,,,,,,,,,,,,,,,,,,,,,,,,,,,,,,,,,,,,,,,,,,,4,biberon,Spanish,Sounds/spa_biberon.mp3,2020-06-05_16h23.01.244,TranslationElicitation_eng-prolific,3.2.4,Win32,60,5ec83d67cfe53914464d2062,,1,0,98,2,1,97
,,,,,,,,,,,,,,,,,,,,,,,,,,,,,,,,,,,,,,,,,g,2.532999992,G,FALSE,,,,,,,50,jirafa,Spanish,Sounds/spa_jirafa.mp3,2020-06-05_16h23.01.244,TranslationElicitation_eng-prolific,3.2.4,Win32,60,5ec83d67cfe53914464d2062,,1,0,98,46,1,97
,,,,,,,,,,,,,,,,,,,,,,,,,,,,,,,,,,,,,,,,,r,2.681999922,GR,FALSE,,,,,,,50,jirafa,Spanish,Sounds/spa_jirafa.mp3,2020-06-05_16h23.01.244,TranslationElicitation_eng-prolific,3.2.4,Win32,60,5ec83d67cfe53914464d2062,,1,0,98,46,1,97
,,,,,,,,,,,,,,,,,,,,,,,,,,,,,,,,,,,,,,,,,a,2.898999929,GRA,FALSE,,,,,,,50,jirafa,Spanish,Sounds/spa_jirafa.mp3,2020-06-05_16h23.01.244,TranslationElicitation_eng-prolific,3.2.4,Win32,60,5ec83d67cfe53914464d2062,,1,0,98,46,1,97
,,,,,,,,,,,,,,,,,,,,,,,,,,,,,,,,,,,,,,,,,n,2.981999874,GRAN,FALSE,,,,,,,50,jirafa,Spanish,Sounds/spa_jirafa.mp3,2020-06-05_16h23.01.244,TranslationElicitation_eng-prolific,3.2.4,Win32,60,5ec83d67cfe53914464d2062,,1,0,98,46,1,97
,,,,,,,,,,,,,,,,,,,,,,,,,,,,,,,,,,,,,,,,,f,3.098999977,GRANF,FALSE,,,,,,,50,jirafa,Spanish,Sounds/spa_jirafa.mp3,2020-06-05_16h23.01.244,TranslationElicitation_eng-prolific,3.2.4,Win32,60,5ec83d67cfe53914464d2062,,1,0,98,46,1,97
,,,,,,,,,,,,,,,,,,,,,,,,,,,,,,,,,,,,,,,,,backspace,3.431999922,GRAN,TRUE,,,,,,,50,jirafa,Spanish,Sounds/spa_jirafa.mp3,2020-06-05_16h23.01.244,TranslationElicitation_eng-prolific,3.2.4,Win32,60,5ec83d67cfe53914464d2062,,1,0,98,46,1,97
,,,,,,,,,,,,,,,,,,,,,,,,,,,,,,,,,,,,,,,,,d,3.565999985,GRAND,TRUE,,,,,,,50,jirafa,Spanish,Sounds/spa_jirafa.mp3,2020-06-05_16h23.01.244,TranslationElicitation_eng-prolific,3.2.4,Win32,60,5ec83d67cfe53914464d2062,,1,0,98,46,1,97
,,,,,,,,,,,,,,,,,,,,,,,,,,,,,,,,,,,,,,,,,f,4.082000017,GRANDF,TRUE,,,,,,,50,jirafa,Spanish,Sounds/spa_jirafa.mp3,2020-06-05_16h23.01.244,TranslationElicitation_eng-prolific,3.2.4,Win32,60,5ec83d67cfe53914464d2062,,1,0,98,46,1,97
,,,,,,,,,,,,,,,,,,,,,,,,,,,,,,,,,,,,,,,,,a,4.247999907,GRANDFA,TRUE,,,,,,,50,jirafa,Spanish,Sounds/spa_jirafa.mp3,2020-06-05_16h23.01.244,TranslationElicitation_eng-prolific,3.2.4,Win32,60,5ec83d67cfe53914464d2062,,1,0,98,46,1,97
,,,,,,,,,,,,,,,,,,,,,,,,,,,,,,,,,,,,,,,,,t,4.299000025,GRANDFAT,TRUE,,,,,,,50,jirafa,Spanish,Sounds/spa_jirafa.mp3,2020-06-05_16h23.01.244,TranslationElicitation_eng-prolific,3.2.4,Win32,60,5ec83d67cfe53914464d2062,,1,0,98,46,1,97
,,,,,,,,,,,,,,,,,,,,,,,,,,,,,,,,,,,,,,,,,h,4.48300004,GRANDFATH,TRUE,,,,,,,50,jirafa,Spanish,Sounds/spa_jirafa.mp3,2020-06-05_16h23.01.244,TranslationElicitation_eng-prolific,3.2.4,Win32,60,5ec83d67cfe53914464d2062,,1,0,98,46,1,97
,,,,,,,,,,,,,,,,,,,,,,,,,,,,,,,,,,,,,,,,,e,4.582000017,GRANDFATHE,TRUE,,,,,,,50,jirafa,Spanish,Sounds/spa_jirafa.mp3,2020-06-05_16h23.01.244,TranslationElicitation_eng-prolific,3.2.4,Win32,60,5ec83d67cfe53914464d2062,,1,0,98,46,1,97
,,,,,,,,,,,,,,,,,,,,,,,,,,,,,,,,,,,,,,,,,r,4.698999882,GRANDFATHER,TRUE,,,,,,,50,jirafa,Spanish,Sounds/spa_jirafa.mp3,2020-06-05_16h23.01.244,TranslationElicitation_eng-prolific,3.2.4,Win32,60,5ec83d67cfe53914464d2062,,1,0,98,46,1,97
,,,,,,,,,,,,,,,,,,,,,,,,,,,,,,,,,,,,,,,,,return,5.115999937,GRANDFATHER,TRUE,,,,,,,50,jirafa,Spanish,Sounds/spa_jirafa.mp3,2020-06-05_16h23.01.244,TranslationElicitation_eng-prolific,3.2.4,Win32,60,5ec83d67cfe53914464d2062,5.115999937,1,0,98,46,1,97
,,,,,,,,,,,,,,,,,,,,,,,,,,,,,,,,,,,,,,,,,,,,,,,,,,,50,jirafa,Spanish,Sounds/spa_jirafa.mp3,2020-06-05_16h23.01.244,TranslationElicitation_eng-prolific,3.2.4,Win32,60,5ec83d67cfe53914464d2062,,1,0,98,46,1,97
,,,,,,,,,,,,,,,,,,,,,,,,,,,,,,,,,,,,,,,,,g,4.249000072,G,FALSE,,,,,,,91,puerta,Spanish,Sounds/spa_puerta.mp3,2020-06-05_16h23.01.244,TranslationElicitation_eng-prolific,3.2.4,Win32,60,5ec83d67cfe53914464d2062,,1,0,98,86,1,97
,,,,,,,,,,,,,,,,,,,,,,,,,,,,,,,,,,,,,,,,,o,4.332000017,GO,FALSE,,,,,,,91,puerta,Spanish,Sounds/spa_puerta.mp3,2020-06-05_16h23.01.244,TranslationElicitation_eng-prolific,3.2.4,Win32,60,5ec83d67cfe53914464d2062,,1,0,98,86,1,97
,,,,,,,,,,,,,,,,,,,,,,,,,,,,,,,,,,,,,,,,,return,5.947999954,GO,FALSE,,,,,,,91,puerta,Spanish,Sounds/spa_puerta.mp3,2020-06-05_16h23.01.244,TranslationElicitation_eng-prolific,3.2.4,Win32,60,5ec83d67cfe53914464d2062,5.947999954,1,0,98,86,1,97
,,,,,,,,,,,,,,,,,,,,,,,,,,,,,,,,,,,,,,,,,,,,,,,,,,,91,puerta,Spanish,Sounds/spa_puerta.mp3,2020-06-05_16h23.01.244,TranslationElicitation_eng-prolific,3.2.4,Win32,60,5ec83d67cfe53914464d2062,,1,0,98,86,1,97
,,,,,,,,,,,,,,,,,,,,,,,,,,,,,,,,,,,,,,,,,m,2.364999771,M,FALSE,,,,,,,63,mesa,Spanish,Sounds/spa_mesa.mp3,2020-06-05_16h23.01.244,TranslationElicitation_eng-prolific,3.2.4,Win32,60,5ec83d67cfe53914464d2062,,1,0,98,59,1,97
,,,,,,,,,,,,,,,,,,,,,,,,,,,,,,,,,,,,,,,,,e,2.515999794,ME,FALSE,,,,,,,63,mesa,Spanish,Sounds/spa_mesa.mp3,2020-06-05_16h23.01.244,TranslationElicitation_eng-prolific,3.2.4,Win32,60,5ec83d67cfe53914464d2062,,1,0,98,59,1,97
,,,,,,,,,,,,,,,,,,,,,,,,,,,,,,,,,,,,,,,,,s,2.665999889,MES,FALSE,,,,,,,63,mesa,Spanish,Sounds/spa_mesa.mp3,2020-06-05_16h23.01.244,TranslationElicitation_eng-prolific,3.2.4,Win32,60,5ec83d67cfe53914464d2062,,1,0,98,59,1,97
,,,,,,,,,,,,,,,,,,,,,,,,,,,,,,,,,,,,,,,,,s,2.765999794,MESS,FALSE,,,,,,,63,mesa,Spanish,Sounds/spa_mesa.mp3,2020-06-05_16h23.01.244,TranslationElicitation_eng-prolific,3.2.4,Win32,60,5ec83d67cfe53914464d2062,,1,0,98,59,1,97
,,,,,,,,,,,,,,,,,,,,,,,,,,,,,,,,,,,,,,,,,y,2.998999834,MESSY,FALSE,,,,,,,63,mesa,Spanish,Sounds/spa_mesa.mp3,2020-06-05_16h23.01.244,TranslationElicitation_eng-prolific,3.2.4,Win32,60,5ec83d67cfe53914464d2062,,1,0,98,59,1,97
,,,,,,,,,,,,,,,,,,,,,,,,,,,,,,,,,,,,,,,,,return,3.398999929,MESSY,FALSE,,,,,,,63,mesa,Spanish,Sounds/spa_mesa.mp3,2020-06-05_16h23.01.244,TranslationElicitation_eng-prolific,3.2.4,Win32,60,5ec83d67cfe53914464d2062,3.398999929,1,0,98,59,1,97
,,,,,,,,,,,,,,,,,,,,,,,,,,,,,,,,,,,,,,,,,,,,,,,,,,,63,mesa,Spanish,Sounds/spa_mesa.mp3,2020-06-05_16h23.01.244,TranslationElicitation_eng-prolific,3.2.4,Win32,60,5ec83d67cfe53914464d2062,,1,0,98,59,1,97
,,,,,,,,,,,,,,,,,,,,,,,,,,,,,,,,,,,,,,,,,f,2.415999889,F,FALSE,,,,,,,49,hormiga,Spanish,Sounds/spa_hormiga.mp3,2020-06-05_16h23.01.244,TranslationElicitation_eng-prolific,3.2.4,Win32,60,5ec83d67cfe53914464d2062,,1,0,98,45,1,97
,,,,,,,,,,,,,,,,,,,,,,,,,,,,,,,,,,,,,,,,,o,2.465999842,FO,FALSE,,,,,,,49,hormiga,Spanish,Sounds/spa_hormiga.mp3,2020-06-05_16h23.01.244,TranslationElicitation_eng-prolific,3.2.4,Win32,60,5ec83d67cfe53914464d2062,,1,0,98,45,1,97
,,,,,,,,,,,,,,,,,,,,,,,,,,,,,,,,,,,,,,,,,r,2.582999945,FOR,FALSE,,,,,,,49,hormiga,Spanish,Sounds/spa_hormiga.mp3,2020-06-05_16h23.01.244,TranslationElicitation_eng-prolific,3.2.4,Win32,60,5ec83d67cfe53914464d2062,,1,0,98,45,1,97
,,,,,,,,,,,,,,,,,,,,,,,,,,,,,,,,,,,,,,,,,m,2.649999857,FORM,FALSE,,,,,,,49,hormiga,Spanish,Sounds/spa_hormiga.mp3,2020-06-05_16h23.01.244,TranslationElicitation_eng-prolific,3.2.4,Win32,60,5ec83d67cfe53914464d2062,,1,0,98,45,1,97
,,,,,,,,,,,,,,,,,,,,,,,,,,,,,,,,,,,,,,,,,u,2.832999945,FORMU,FALSE,,,,,,,49,hormiga,Spanish,Sounds/spa_hormiga.mp3,2020-06-05_16h23.01.244,TranslationElicitation_eng-prolific,3.2.4,Win32,60,5ec83d67cfe53914464d2062,,1,0,98,45,1,97
,,,,,,,,,,,,,,,,,,,,,,,,,,,,,,,,,,,,,,,,,l,2.98300004,FORMUL,FALSE,,,,,,,49,hormiga,Spanish,Sounds/spa_hormiga.mp3,2020-06-05_16h23.01.244,TranslationElicitation_eng-prolific,3.2.4,Win32,60,5ec83d67cfe53914464d2062,,1,0,98,45,1,97
,,,,,,,,,,,,,,,,,,,,,,,,,,,,,,,,,,,,,,,,,a,3.266000032,FORMULA,FALSE,,,,,,,49,hormiga,Spanish,Sounds/spa_hormiga.mp3,2020-06-05_16h23.01.244,TranslationElicitation_eng-prolific,3.2.4,Win32,60,5ec83d67cfe53914464d2062,,1,0,98,45,1,97
,,,,,,,,,,,,,,,,,,,,,,,,,,,,,,,,,,,,,,,,,return,3.598999977,FORMULA,FALSE,,,,,,,49,hormiga,Spanish,Sounds/spa_hormiga.mp3,2020-06-05_16h23.01.244,TranslationElicitation_eng-prolific,3.2.4,Win32,60,5ec83d67cfe53914464d2062,3.598999977,1,0,98,45,1,97
,,,,,,,,,,,,,,,,,,,,,,,,,,,,,,,,,,,,,,,,,,,,,,,,,,,49,hormiga,Spanish,Sounds/spa_hormiga.mp3,2020-06-05_16h23.01.244,TranslationElicitation_eng-prolific,3.2.4,Win32,60,5ec83d67cfe53914464d2062,,1,0,98,45,1,97
,,,,,,,,,,,,,,,,,,,,,,,,,,,,,,,,,,,,,,,,,e,4.667000055,E,FALSE,,,,,,,82,perro,Spanish,Sounds/spa_perro.mp3,2020-06-05_16h23.01.244,TranslationElicitation_eng-prolific,3.2.4,Win32,60,5ec83d67cfe53914464d2062,,1,0,98,77,1,97
,,,,,,,,,,,,,,,,,,,,,,,,,,,,,,,,,,,,,,,,,a,4.900000095,EA,FALSE,,,,,,,82,perro,Spanish,Sounds/spa_perro.mp3,2020-06-05_16h23.01.244,TranslationElicitation_eng-prolific,3.2.4,Win32,60,5ec83d67cfe53914464d2062,,1,0,98,77,1,97
,,,,,,,,,,,,,,,,,,,,,,,,,,,,,,,,,,,,,,,,,t,4.98300004,EAT,FALSE,,,,,,,82,perro,Spanish,Sounds/spa_perro.mp3,2020-06-05_16h23.01.244,TranslationElicitation_eng-prolific,3.2.4,Win32,60,5ec83d67cfe53914464d2062,,1,0,98,77,1,97
,,,,,,,,,,,,,,,,,,,,,,,,,,,,,,,,,,,,,,,,,return,5.349999905,EAT,FALSE,,,,,,,82,perro,Spanish,Sounds/spa_perro.mp3,2020-06-05_16h23.01.244,TranslationElicitation_eng-prolific,3.2.4,Win32,60,5ec83d67cfe53914464d2062,5.349999905,1,0,98,77,1,97
,,,,,,,,,,,,,,,,,,,,,,,,,,,,,,,,,,,,,,,,,,,,,,,,,,,82,perro,Spanish,Sounds/spa_perro.mp3,2020-06-05_16h23.01.244,TranslationElicitation_eng-prolific,3.2.4,Win32,60,5ec83d67cfe53914464d2062,,1,0,98,77,1,97
,,,,,,,,,,,,,,,,,,,,,,,,,,,,,,,,,,,,,,,,,t,4.832000017,T,FALSE,,,,,,,31,cubo,Spanish,Sounds/spa_cubo.mp3,2020-06-05_16h23.01.244,TranslationElicitation_eng-prolific,3.2.4,Win32,60,5ec83d67cfe53914464d2062,,1,0,98,27,1,97
,,,,,,,,,,,,,,,,,,,,,,,,,,,,,,,,,,,,,,,,,r,4.965000153,TR,FALSE,,,,,,,31,cubo,Spanish,Sounds/spa_cubo.mp3,2020-06-05_16h23.01.244,TranslationElicitation_eng-prolific,3.2.4,Win32,60,5ec83d67cfe53914464d2062,,1,0,98,27,1,97
,,,,,,,,,,,,,,,,,,,,,,,,,,,,,,,,,,,,,,,,,y,5.016000032,TRY,FALSE,,,,,,,31,cubo,Spanish,Sounds/spa_cubo.mp3,2020-06-05_16h23.01.244,TranslationElicitation_eng-prolific,3.2.4,Win32,60,5ec83d67cfe53914464d2062,,1,0,98,27,1,97
,,,,,,,,,,,,,,,,,,,,,,,,,,,,,,,,,,,,,,,,,return,5.381999969,TRY,FALSE,,,,,,,31,cubo,Spanish,Sounds/spa_cubo.mp3,2020-06-05_16h23.01.244,TranslationElicitation_eng-prolific,3.2.4,Win32,60,5ec83d67cfe53914464d2062,5.381999969,1,0,98,27,1,97
,,,,,,,,,,,,,,,,,,,,,,,,,,,,,,,,,,,,,,,,,,,,,,,,,,,31,cubo,Spanish,Sounds/spa_cubo.mp3,2020-06-05_16h23.01.244,TranslationElicitation_eng-prolific,3.2.4,Win32,60,5ec83d67cfe53914464d2062,,1,0,98,27,1,97
,,,,,,,,,,,,,,,,,,,,,,,,,,,,,,,,,,,,,,,,,g,1.700000048,G,FALSE,,,,,,,84,pie,Spanish,Sounds/spa_pie.mp3,2020-06-05_16h23.01.244,TranslationElicitation_eng-prolific,3.2.4,Win32,60,5ec83d67cfe53914464d2062,,1,0,98,79,1,97
,,,,,,,,,,,,,,,,,,,,,,,,,,,,,,,,,,,,,,,,,o,1.784000158,GO,FALSE,,,,,,,84,pie,Spanish,Sounds/spa_pie.mp3,2020-06-05_16h23.01.244,TranslationElicitation_eng-prolific,3.2.4,Win32,60,5ec83d67cfe53914464d2062,,1,0,98,79,1,97
,,,,,,,,,,,,,,,,,,,,,,,,,,,,,,,,,,,,,,,,,o,1.883000135,GOO,FALSE,,,,,,,84,pie,Spanish,Sounds/spa_pie.mp3,2020-06-05_16h23.01.244,TranslationElicitation_eng-prolific,3.2.4,Win32,60,5ec83d67cfe53914464d2062,,1,0,98,79,1,97
,,,,,,,,,,,,,,,,,,,,,,,,,,,,,,,,,,,,,,,,,d,2.100000143,GOOD,FALSE,,,,,,,84,pie,Spanish,Sounds/spa_pie.mp3,2020-06-05_16h23.01.244,TranslationElicitation_eng-prolific,3.2.4,Win32,60,5ec83d67cfe53914464d2062,,1,0,98,79,1,97
,,,,,,,,,,,,,,,,,,,,,,,,,,,,,,,,,,,,,,,,,return,2.350000143,GOOD,FALSE,,,,,,,84,pie,Spanish,Sounds/spa_pie.mp3,2020-06-05_16h23.01.244,TranslationElicitation_eng-prolific,3.2.4,Win32,60,5ec83d67cfe53914464d2062,2.350000143,1,0,98,79,1,97
,,,,,,,,,,,,,,,,,,,,,,,,,,,,,,,,,,,,,,,,,,,,,,,,,,,84,pie,Spanish,Sounds/spa_pie.mp3,2020-06-05_16h23.01.244,TranslationElicitation_eng-prolific,3.2.4,Win32,60,5ec83d67cfe53914464d2062,,1,0,98,79,1,97
,,,,,,,,,,,,,,,,,,,,,,,,,,,,,,,,,,,,,,,,,l,2.316999912,L,FALSE,,,,,,,103,zanahoria,Spanish,Sounds/spa_zanahoria.mp3,2020-06-05_16h23.01.244,TranslationElicitation_eng-prolific,3.2.4,Win32,60,5ec83d67cfe53914464d2062,,1,0,98,97,1,97
,,,,,,,,,,,,,,,,,,,,,,,,,,,,,,,,,,,,,,,,,i,2.5,LI,FALSE,,,,,,,103,zanahoria,Spanish,Sounds/spa_zanahoria.mp3,2020-06-05_16h23.01.244,TranslationElicitation_eng-prolific,3.2.4,Win32,60,5ec83d67cfe53914464d2062,,1,0,98,97,1,97
,,,,,,,,,,,,,,,,,,,,,,,,,,,,,,,,,,,,,,,,,s,2.549999952,LIS,FALSE,,,,,,,103,zanahoria,Spanish,Sounds/spa_zanahoria.mp3,2020-06-05_16h23.01.244,TranslationElicitation_eng-prolific,3.2.4,Win32,60,5ec83d67cfe53914464d2062,,1,0,98,97,1,97
,,,,,,,,,,,,,,,,,,,,,,,,,,,,,,,,,,,,,,,,,t,2.76699996,LIST,FALSE,,,,,,,103,zanahoria,Spanish,Sounds/spa_zanahoria.mp3,2020-06-05_16h23.01.244,TranslationElicitation_eng-prolific,3.2.4,Win32,60,5ec83d67cfe53914464d2062,,1,0,98,97,1,97
,,,,,,,,,,,,,,,,,,,,,,,,,,,,,,,,,,,,,,,,,e,2.950999975,LISTE,FALSE,,,,,,,103,zanahoria,Spanish,Sounds/spa_zanahoria.mp3,2020-06-05_16h23.01.244,TranslationElicitation_eng-prolific,3.2.4,Win32,60,5ec83d67cfe53914464d2062,,1,0,98,97,1,97
,,,,,,,,,,,,,,,,,,,,,,,,,,,,,,,,,,,,,,,,,n,3.015999794,LISTEN,FALSE,,,,,,,103,zanahoria,Spanish,Sounds/spa_zanahoria.mp3,2020-06-05_16h23.01.244,TranslationElicitation_eng-prolific,3.2.4,Win32,60,5ec83d67cfe53914464d2062,,1,0,98,97,1,97
,,,,,,,,,,,,,,,,,,,,,,,,,,,,,,,,,,,,,,,,,return,3.333999872,LISTEN,FALSE,,,,,,,103,zanahoria,Spanish,Sounds/spa_zanahoria.mp3,2020-06-05_16h23.01.244,TranslationElicitation_eng-prolific,3.2.4,Win32,60,5ec83d67cfe53914464d2062,3.333999872,1,0,98,97,1,97
,,,,,,,,,,,,,,,,,,,,,,,,,,,,,,,,,,,,,,,,,,,,,,,,,,,103,zanahoria,Spanish,Sounds/spa_zanahoria.mp3,2020-06-05_16h23.01.244,TranslationElicitation_eng-prolific,3.2.4,Win32,60,5ec83d67cfe53914464d2062,,1,0,98,97,1,97
,,,,,,,,,,,,,,,,,,,,,,,,,,,,,,,,,,,,,,,,,b,1.815999985,B,FALSE,,,,,,,89,pluma,Spanish,Sounds/spa_pluma.mp3,2020-06-05_16h23.01.244,TranslationElicitation_eng-prolific,3.2.4,Win32,60,5ec83d67cfe53914464d2062,,1,0,98,84,1,97
,,,,,,,,,,,,,,,,,,,,,,,,,,,,,,,,,,,,,,,,,l,1.865999937,BL,FALSE,,,,,,,89,pluma,Spanish,Sounds/spa_pluma.mp3,2020-06-05_16h23.01.244,TranslationElicitation_eng-prolific,3.2.4,Win32,60,5ec83d67cfe53914464d2062,,1,0,98,84,1,97
,,,,,,,,,,,,,,,,,,,,,,,,,,,,,,,,,,,,,,,,,o,2.049999952,BLO,FALSE,,,,,,,89,pluma,Spanish,Sounds/spa_pluma.mp3,2020-06-05_16h23.01.244,TranslationElicitation_eng-prolific,3.2.4,Win32,60,5ec83d67cfe53914464d2062,,1,0,98,84,1,97
,,,,,,,,,,,,,,,,,,,,,,,,,,,,,,,,,,,,,,,,,o,2.166000128,BLOO,FALSE,,,,,,,89,pluma,Spanish,Sounds/spa_pluma.mp3,2020-06-05_16h23.01.244,TranslationElicitation_eng-prolific,3.2.4,Win32,60,5ec83d67cfe53914464d2062,,1,0,98,84,1,97
,,,,,,,,,,,,,,,,,,,,,,,,,,,,,,,,,,,,,,,,,m,2.299999952,BLOOM,FALSE,,,,,,,89,pluma,Spanish,Sounds/spa_pluma.mp3,2020-06-05_16h23.01.244,TranslationElicitation_eng-prolific,3.2.4,Win32,60,5ec83d67cfe53914464d2062,,1,0,98,84,1,97
,,,,,,,,,,,,,,,,,,,,,,,,,,,,,,,,,,,,,,,,,i,3.015000105,BLOOMI,FALSE,,,,,,,89,pluma,Spanish,Sounds/spa_pluma.mp3,2020-06-05_16h23.01.244,TranslationElicitation_eng-prolific,3.2.4,Win32,60,5ec83d67cfe53914464d2062,,1,0,98,84,1,97
,,,,,,,,,,,,,,,,,,,,,,,,,,,,,,,,,,,,,,,,,n,3.082000017,BLOOMIN,FALSE,,,,,,,89,pluma,Spanish,Sounds/spa_pluma.mp3,2020-06-05_16h23.01.244,TranslationElicitation_eng-prolific,3.2.4,Win32,60,5ec83d67cfe53914464d2062,,1,0,98,84,1,97
,,,,,,,,,,,,,,,,,,,,,,,,,,,,,,,,,,,,,,,,,g,3.181999922,BLOOMING,FALSE,,,,,,,89,pluma,Spanish,Sounds/spa_pluma.mp3,2020-06-05_16h23.01.244,TranslationElicitation_eng-prolific,3.2.4,Win32,60,5ec83d67cfe53914464d2062,,1,0,98,84,1,97
,,,,,,,,,,,,,,,,,,,,,,,,,,,,,,,,,,,,,,,,,return,3.714999914,BLOOMING,FALSE,,,,,,,89,pluma,Spanish,Sounds/spa_pluma.mp3,2020-06-05_16h23.01.244,TranslationElicitation_eng-prolific,3.2.4,Win32,60,5ec83d67cfe53914464d2062,3.714999914,1,0,98,84,1,97
,,,,,,,,,,,,,,,,,,,,,,,,,,,,,,,,,,,,,,,,,,,,,,,,,,,89,pluma,Spanish,Sounds/spa_pluma.mp3,2020-06-05_16h23.01.244,TranslationElicitation_eng-prolific,3.2.4,Win32,60,5ec83d67cfe53914464d2062,,1,0,98,84,1,97
,,,,,,,,,,,,,,,,,,,,,,,,,,,,,,,,,,,,,,,,,c,2.532999992,C,FALSE,,,,,,,29,coche,Spanish,Sounds/spa_coche.mp3,2020-06-05_16h23.01.244,TranslationElicitation_eng-prolific,3.2.4,Win32,60,5ec83d67cfe53914464d2062,,1,0,98,26,1,97
,,,,,,,,,,,,,,,,,,,,,,,,,,,,,,,,,,,,,,,,,a,2.717000008,CA,FALSE,,,,,,,29,coche,Spanish,Sounds/spa_coche.mp3,2020-06-05_16h23.01.244,TranslationElicitation_eng-prolific,3.2.4,Win32,60,5ec83d67cfe53914464d2062,,1,0,98,26,1,97
,,,,,,,,,,,,,,,,,,,,,,,,,,,,,,,,,,,,,,,,,t,2.816000223,CAT,FALSE,,,,,,,29,coche,Spanish,Sounds/spa_coche.mp3,2020-06-05_16h23.01.244,TranslationElicitation_eng-prolific,3.2.4,Win32,60,5ec83d67cfe53914464d2062,,1,0,98,26,1,97
,,,,,,,,,,,,,,,,,,,,,,,,,,,,,,,,,,,,,,,,,c,2.984000206,CATC,FALSE,,,,,,,29,coche,Spanish,Sounds/spa_coche.mp3,2020-06-05_16h23.01.244,TranslationElicitation_eng-prolific,3.2.4,Win32,60,5ec83d67cfe53914464d2062,,1,0,98,26,1,97
,,,,,,,,,,,,,,,,,,,,,,,,,,,,,,,,,,,,,,,,,h,3.25,CATCH,FALSE,,,,,,,29,coche,Spanish,Sounds/spa_coche.mp3,2020-06-05_16h23.01.244,TranslationElicitation_eng-prolific,3.2.4,Win32,60,5ec83d67cfe53914464d2062,,1,0,98,26,1,97
,,,,,,,,,,,,,,,,,,,,,,,,,,,,,,,,,,,,,,,,,return,3.583000183,CATCH,FALSE,,,,,,,29,coche,Spanish,Sounds/spa_coche.mp3,2020-06-05_16h23.01.244,TranslationElicitation_eng-prolific,3.2.4,Win32,60,5ec83d67cfe53914464d2062,3.583000183,1,0,98,26,1,97
,,,,,,,,,,,,,,,,,,,,,,,,,,,,,,,,,,,,,,,,,,,,,,,,,,,29,coche,Spanish,Sounds/spa_coche.mp3,2020-06-05_16h23.01.244,TranslationElicitation_eng-prolific,3.2.4,Win32,60,5ec83d67cfe53914464d2062,,1,0,98,26,1,97
,,,,,,,,,,,,,,,,,,,,,,,,,,,,,,,,,,,,,,,,,c,2.01699996,C,FALSE,,,,,,,19,camiseta,Spanish,Sounds/spa_camiseta.mp3,2020-06-05_16h23.01.244,TranslationElicitation_eng-prolific,3.2.4,Win32,60,5ec83d67cfe53914464d2062,,1,0,98,17,1,97
,,,,,,,,,,,,,,,,,,,,,,,,,,,,,,,,,,,,,,,,,a,2.332999945,CA,FALSE,,,,,,,19,camiseta,Spanish,Sounds/spa_camiseta.mp3,2020-06-05_16h23.01.244,TranslationElicitation_eng-prolific,3.2.4,Win32,60,5ec83d67cfe53914464d2062,,1,0,98,17,1,97
,,,,,,,,,,,,,,,,,,,,,,,,,,,,,,,,,,,,,,,,,m,2.449999809,CAM,FALSE,,,,,,,19,camiseta,Spanish,Sounds/spa_camiseta.mp3,2020-06-05_16h23.01.244,TranslationElicitation_eng-prolific,3.2.4,Win32,60,5ec83d67cfe53914464d2062,,1,0,98,17,1,97
,,,,,,,,,,,,,,,,,,,,,,,,,,,,,,,,,,,,,,,,,i,2.682999849,CAMI,FALSE,,,,,,,19,camiseta,Spanish,Sounds/spa_camiseta.mp3,2020-06-05_16h23.01.244,TranslationElicitation_eng-prolific,3.2.4,Win32,60,5ec83d67cfe53914464d2062,,1,0,98,17,1,97
,,,,,,,,,,,,,,,,,,,,,,,,,,,,,,,,,,,,,,,,,s,2.882999897,CAMIS,FALSE,,,,,,,19,camiseta,Spanish,Sounds/spa_camiseta.mp3,2020-06-05_16h23.01.244,TranslationElicitation_eng-prolific,3.2.4,Win32,60,5ec83d67cfe53914464d2062,,1,0,98,17,1,97
,,,,,,,,,,,,,,,,,,,,,,,,,,,,,,,,,,,,,,,,,o,2.998999834,CAMISO,FALSE,,,,,,,19,camiseta,Spanish,Sounds/spa_camiseta.mp3,2020-06-05_16h23.01.244,TranslationElicitation_eng-prolific,3.2.4,Win32,60,5ec83d67cfe53914464d2062,,1,0,98,17,1,97
,,,,,,,,,,,,,,,,,,,,,,,,,,,,,,,,,,,,,,,,,l,3.148999929,CAMISOL,FALSE,,,,,,,19,camiseta,Spanish,Sounds/spa_camiseta.mp3,2020-06-05_16h23.01.244,TranslationElicitation_eng-prolific,3.2.4,Win32,60,5ec83d67cfe53914464d2062,,1,0,98,17,1,97
,,,,,,,,,,,,,,,,,,,,,,,,,,,,,,,,,,,,,,,,,e,3.333999872,CAMISOLE,FALSE,,,,,,,19,camiseta,Spanish,Sounds/spa_camiseta.mp3,2020-06-05_16h23.01.244,TranslationElicitation_eng-prolific,3.2.4,Win32,60,5ec83d67cfe53914464d2062,,1,0,98,17,1,97
,,,,,,,,,,,,,,,,,,,,,,,,,,,,,,,,,,,,,,,,,return,3.599999905,CAMISOLE,FALSE,,,,,,,19,camiseta,Spanish,Sounds/spa_camiseta.mp3,2020-06-05_16h23.01.244,TranslationElicitation_eng-prolific,3.2.4,Win32,60,5ec83d67cfe53914464d2062,3.599999905,1,0,98,17,1,97
,,,,,,,,,,,,,,,,,,,,,,,,,,,,,,,,,,,,,,,,,,,,,,,,,,,19,camiseta,Spanish,Sounds/spa_camiseta.mp3,2020-06-05_16h23.01.244,TranslationElicitation_eng-prolific,3.2.4,Win32,60,5ec83d67cfe53914464d2062,,1,0,98,17,1,97
,,,,,,,,,,,,,,,,,,,,,,,,,,,,,,,,,,,,,,,,,b,2.149999857,B,FALSE,,,,,,,52,lapiz,Spanish,Sounds/spa_lapiz.mp3,2020-06-05_16h23.01.244,TranslationElicitation_eng-prolific,3.2.4,Win32,60,5ec83d67cfe53914464d2062,,1,0,98,48,1,97
,,,,,,,,,,,,,,,,,,,,,,,,,,,,,,,,,,,,,,,,,i,2.28399992,BI,FALSE,,,,,,,52,lapiz,Spanish,Sounds/spa_lapiz.mp3,2020-06-05_16h23.01.244,TranslationElicitation_eng-prolific,3.2.4,Win32,60,5ec83d67cfe53914464d2062,,1,0,98,48,1,97
,,,,,,,,,,,,,,,,,,,,,,,,,,,,,,,,,,,,,,,,,r,2.366999865,BIR,FALSE,,,,,,,52,lapiz,Spanish,Sounds/spa_lapiz.mp3,2020-06-05_16h23.01.244,TranslationElicitation_eng-prolific,3.2.4,Win32,60,5ec83d67cfe53914464d2062,,1,0,98,48,1,97
,,,,,,,,,,,,,,,,,,,,,,,,,,,,,,,,,,,,,,,,,d,2.53399992,BIRD,FALSE,,,,,,,52,lapiz,Spanish,Sounds/spa_lapiz.mp3,2020-06-05_16h23.01.244,TranslationElicitation_eng-prolific,3.2.4,Win32,60,5ec83d67cfe53914464d2062,,1,0,98,48,1,97
,,,,,,,,,,,,,,,,,,,,,,,,,,,,,,,,,,,,,,,,,s,2.684000015,BIRDS,FALSE,,,,,,,52,lapiz,Spanish,Sounds/spa_lapiz.mp3,2020-06-05_16h23.01.244,TranslationElicitation_eng-prolific,3.2.4,Win32,60,5ec83d67cfe53914464d2062,,1,0,98,48,1,97
,,,,,,,,,,,,,,,,,,,,,,,,,,,,,,,,,,,,,,,,,return,2.849999905,BIRDS,FALSE,,,,,,,52,lapiz,Spanish,Sounds/spa_lapiz.mp3,2020-06-05_16h23.01.244,TranslationElicitation_eng-prolific,3.2.4,Win32,60,5ec83d67cfe53914464d2062,2.849999905,1,0,98,48,1,97
,,,,,,,,,,,,,,,,,,,,,,,,,,,,,,,,,,,,,,,,,,,,,,,,,,,52,lapiz,Spanish,Sounds/spa_lapiz.mp3,2020-06-05_16h23.01.244,TranslationElicitation_eng-prolific,3.2.4,Win32,60,5ec83d67cfe53914464d2062,,1,0,98,48,1,97
,,,,,,,,,,,,,,,,,,,,,,,,,,,,,,,,,,,,,,,,,l,2.967000008,L,FALSE,,,,,,,56,libro,Spanish,Sounds/spa_libro.mp3,2020-06-05_16h23.01.244,TranslationElicitation_eng-prolific,3.2.4,Win32,60,5ec83d67cfe53914464d2062,,1,0,98,52,1,97
,,,,,,,,,,,,,,,,,,,,,,,,,,,,,,,,,,,,,,,,,i,3.284000158,LI,FALSE,,,,,,,56,libro,Spanish,Sounds/spa_libro.mp3,2020-06-05_16h23.01.244,TranslationElicitation_eng-prolific,3.2.4,Win32,60,5ec83d67cfe53914464d2062,,1,0,98,52,1,97
,,,,,,,,,,,,,,,,,,,,,,,,,,,,,,,,,,,,,,,,,b,3.433000088,LIB,FALSE,,,,,,,56,libro,Spanish,Sounds/spa_libro.mp3,2020-06-05_16h23.01.244,TranslationElicitation_eng-prolific,3.2.4,Win32,60,5ec83d67cfe53914464d2062,,1,0,98,52,1,97
,,,,,,,,,,,,,,,,,,,,,,,,,,,,,,,,,,,,,,,,,r,3.51699996,LIBR,FALSE,,,,,,,56,libro,Spanish,Sounds/spa_libro.mp3,2020-06-05_16h23.01.244,TranslationElicitation_eng-prolific,3.2.4,Win32,60,5ec83d67cfe53914464d2062,,1,0,98,52,1,97
,,,,,,,,,,,,,,,,,,,,,,,,,,,,,,,,,,,,,,,,,a,3.71600008,LIBRA,FALSE,,,,,,,56,libro,Spanish,Sounds/spa_libro.mp3,2020-06-05_16h23.01.244,TranslationElicitation_eng-prolific,3.2.4,Win32,60,5ec83d67cfe53914464d2062,,1,0,98,52,1,97
,,,,,,,,,,,,,,,,,,,,,,,,,,,,,,,,,,,,,,,,,return,4.065999985,LIBRA,FALSE,,,,,,,56,libro,Spanish,Sounds/spa_libro.mp3,2020-06-05_16h23.01.244,TranslationElicitation_eng-prolific,3.2.4,Win32,60,5ec83d67cfe53914464d2062,4.065999985,1,0,98,52,1,97
,,,,,,,,,,,,,,,,,,,,,,,,,,,,,,,,,,,,,,,,,,,,,,,,,,,56,libro,Spanish,Sounds/spa_libro.mp3,2020-06-05_16h23.01.244,TranslationElicitation_eng-prolific,3.2.4,Win32,60,5ec83d67cfe53914464d2062,,1,0,98,52,1,97
,,,,,,,,,,,,,,,,,,,,,,,,,,,,,,,,,,,,,,,,,h,5.25,H,FALSE,,,,,,,15,caballo,Spanish,Sounds/spa_caballo.mp3,2020-06-05_16h23.01.244,TranslationElicitation_eng-prolific,3.2.4,Win32,60,5ec83d67cfe53914464d2062,,1,0,98,13,1,97
,,,,,,,,,,,,,,,,,,,,,,,,,,,,,,,,,,,,,,,,,e,5.350000143,HE,FALSE,,,,,,,15,caballo,Spanish,Sounds/spa_caballo.mp3,2020-06-05_16h23.01.244,TranslationElicitation_eng-prolific,3.2.4,Win32,60,5ec83d67cfe53914464d2062,,1,0,98,13,1,97
,,,,,,,,,,,,,,,,,,,,,,,,,,,,,,,,,,,,,,,,,l,5.633000135,HEL,FALSE,,,,,,,15,caballo,Spanish,Sounds/spa_caballo.mp3,2020-06-05_16h23.01.244,TranslationElicitation_eng-prolific,3.2.4,Win32,60,5ec83d67cfe53914464d2062,,1,0,98,13,1,97
,,,,,,,,,,,,,,,,,,,,,,,,,,,,,,,,,,,,,,,,,l,5.832999945,HELL,FALSE,,,,,,,15,caballo,Spanish,Sounds/spa_caballo.mp3,2020-06-05_16h23.01.244,TranslationElicitation_eng-prolific,3.2.4,Win32,60,5ec83d67cfe53914464d2062,,1,0,98,13,1,97
,,,,,,,,,,,,,,,,,,,,,,,,,,,,,,,,,,,,,,,,,o,6.016000032,HELLO,FALSE,,,,,,,15,caballo,Spanish,Sounds/spa_caballo.mp3,2020-06-05_16h23.01.244,TranslationElicitation_eng-prolific,3.2.4,Win32,60,5ec83d67cfe53914464d2062,,1,0,98,13,1,97
,,,,,,,,,,,,,,,,,,,,,,,,,,,,,,,,,,,,,,,,,return,7.016000032,HELLO,FALSE,,,,,,,15,caballo,Spanish,Sounds/spa_caballo.mp3,2020-06-05_16h23.01.244,TranslationElicitation_eng-prolific,3.2.4,Win32,60,5ec83d67cfe53914464d2062,7.016000032,1,0,98,13,1,97
,,,,,,,,,,,,,,,,,,,,,,,,,,,,,,,,,,,,,,,,,,,,,,,,,,,15,caballo,Spanish,Sounds/spa_caballo.mp3,2020-06-05_16h23.01.244,TranslationElicitation_eng-prolific,3.2.4,Win32,60,5ec83d67cfe53914464d2062,,1,0,98,13,1,97
,,,,,,,,,,,,,,,,,,,,,,,,,,,,,,,,,,,,,,,,,c,3.116999865,C,FALSE,,,,,,,72,osito,Spanish,Sounds/spa_osito.mp3,2020-06-05_16h23.01.244,TranslationElicitation_eng-prolific,3.2.4,Win32,60,5ec83d67cfe53914464d2062,,1,0,98,67,1,97
,,,,,,,,,,,,,,,,,,,,,,,,,,,,,,,,,,,,,,,,,h,3.200000048,CH,FALSE,,,,,,,72,osito,Spanish,Sounds/spa_osito.mp3,2020-06-05_16h23.01.244,TranslationElicitation_eng-prolific,3.2.4,Win32,60,5ec83d67cfe53914464d2062,,1,0,98,67,1,97
,,,,,,,,,,,,,,,,,,,,,,,,,,,,,,,,,,,,,,,,,i,3.316999912,CHI,FALSE,,,,,,,72,osito,Spanish,Sounds/spa_osito.mp3,2020-06-05_16h23.01.244,TranslationElicitation_eng-prolific,3.2.4,Win32,60,5ec83d67cfe53914464d2062,,1,0,98,67,1,97
,,,,,,,,,,,,,,,,,,,,,,,,,,,,,,,,,,,,,,,,,l,3.5,CHIL,FALSE,,,,,,,72,osito,Spanish,Sounds/spa_osito.mp3,2020-06-05_16h23.01.244,TranslationElicitation_eng-prolific,3.2.4,Win32,60,5ec83d67cfe53914464d2062,,1,0,98,67,1,97
,,,,,,,,,,,,,,,,,,,,,,,,,,,,,,,,,,,,,,,,,d,3.601000071,CHILD,FALSE,,,,,,,72,osito,Spanish,Sounds/spa_osito.mp3,2020-06-05_16h23.01.244,TranslationElicitation_eng-prolific,3.2.4,Win32,60,5ec83d67cfe53914464d2062,,1,0,98,67,1,97
,,,,,,,,,,,,,,,,,,,,,,,,,,,,,,,,,,,,,,,,,return,3.816999912,CHILD,FALSE,,,,,,,72,osito,Spanish,Sounds/spa_osito.mp3,2020-06-05_16h23.01.244,TranslationElicitation_eng-prolific,3.2.4,Win32,60,5ec83d67cfe53914464d2062,3.816999912,1,0,98,67,1,97
,,,,,,,,,,,,,,,,,,,,,,,,,,,,,,,,,,,,,,,,,,,,,,,,,,,72,osito,Spanish,Sounds/spa_osito.mp3,2020-06-05_16h23.01.244,TranslationElicitation_eng-prolific,3.2.4,Win32,60,5ec83d67cfe53914464d2062,,1,0,98,67,1,97
,,,,,,,,,,,,,,,,,,,,,,,,,,,,,,,,,,,,,,,,,m,3.383000135,M,FALSE,,,,,,,61,mariposa,Spanish,Sounds/spa_mariposa.mp3,2020-06-05_16h23.01.244,TranslationElicitation_eng-prolific,3.2.4,Win32,60,5ec83d67cfe53914464d2062,,1,0,98,57,1,97
,,,,,,,,,,,,,,,,,,,,,,,,,,,,,,,,,,,,,,,,,a,3.51699996,MA,FALSE,,,,,,,61,mariposa,Spanish,Sounds/spa_mariposa.mp3,2020-06-05_16h23.01.244,TranslationElicitation_eng-prolific,3.2.4,Win32,60,5ec83d67cfe53914464d2062,,1,0,98,57,1,97
,,,,,,,,,,,,,,,,,,,,,,,,,,,,,,,,,,,,,,,,,r,3.799000025,MAR,FALSE,,,,,,,61,mariposa,Spanish,Sounds/spa_mariposa.mp3,2020-06-05_16h23.01.244,TranslationElicitation_eng-prolific,3.2.4,Win32,60,5ec83d67cfe53914464d2062,,1,0,98,57,1,97
,,,,,,,,,,,,,,,,,,,,,,,,,,,,,,,,,,,,,,,,,r,3.931999922,MARR,FALSE,,,,,,,61,mariposa,Spanish,Sounds/spa_mariposa.mp3,2020-06-05_16h23.01.244,TranslationElicitation_eng-prolific,3.2.4,Win32,60,5ec83d67cfe53914464d2062,,1,0,98,57,1,97
,,,,,,,,,,,,,,,,,,,,,,,,,,,,,,,,,,,,,,,,,i,4.049000025,MARRI,FALSE,,,,,,,61,mariposa,Spanish,Sounds/spa_mariposa.mp3,2020-06-05_16h23.01.244,TranslationElicitation_eng-prolific,3.2.4,Win32,60,5ec83d67cfe53914464d2062,,1,0,98,57,1,97
,,,,,,,,,,,,,,,,,,,,,,,,,,,,,,,,,,,,,,,,,a,4.398999929,MARRIA,FALSE,,,,,,,61,mariposa,Spanish,Sounds/spa_mariposa.mp3,2020-06-05_16h23.01.244,TranslationElicitation_eng-prolific,3.2.4,Win32,60,5ec83d67cfe53914464d2062,,1,0,98,57,1,97
,,,,,,,,,,,,,,,,,,,,,,,,,,,,,,,,,,,,,,,,,g,4.532999992,MARRIAG,FALSE,,,,,,,61,mariposa,Spanish,Sounds/spa_mariposa.mp3,2020-06-05_16h23.01.244,TranslationElicitation_eng-prolific,3.2.4,Win32,60,5ec83d67cfe53914464d2062,,1,0,98,57,1,97
,,,,,,,,,,,,,,,,,,,,,,,,,,,,,,,,,,,,,,,,,e,4.615999937,MARRIAGE,FALSE,,,,,,,61,mariposa,Spanish,Sounds/spa_mariposa.mp3,2020-06-05_16h23.01.244,TranslationElicitation_eng-prolific,3.2.4,Win32,60,5ec83d67cfe53914464d2062,,1,0,98,57,1,97
,,,,,,,,,,,,,,,,,,,,,,,,,,,,,,,,,,,,,,,,,return,4.933000088,MARRIAGE,FALSE,,,,,,,61,mariposa,Spanish,Sounds/spa_mariposa.mp3,2020-06-05_16h23.01.244,TranslationElicitation_eng-prolific,3.2.4,Win32,60,5ec83d67cfe53914464d2062,4.933000088,1,0,98,57,1,97
,,,,,,,,,,,,,,,,,,,,,,,,,,,,,,,,,,,,,,,,,,,,,,,,,,,61,mariposa,Spanish,Sounds/spa_mariposa.mp3,2020-06-05_16h23.01.244,TranslationElicitation_eng-prolific,3.2.4,Win32,60,5ec83d67cfe53914464d2062,,1,0,98,57,1,97
,,,,,,,,,,,,,,,,,,,,,,,,,,,,,,,,,,,,,,,,,c,1.365999937,C,FALSE,,,,,,,27,chocolate,Spanish,Sounds/spa_chocolate.mp3,2020-06-05_16h23.01.244,TranslationElicitation_eng-prolific,3.2.4,Win32,60,5ec83d67cfe53914464d2062,,1,0,98,24,1,97
,,,,,,,,,,,,,,,,,,,,,,,,,,,,,,,,,,,,,,,,,h,1.465999842,CH,FALSE,,,,,,,27,chocolate,Spanish,Sounds/spa_chocolate.mp3,2020-06-05_16h23.01.244,TranslationElicitation_eng-prolific,3.2.4,Win32,60,5ec83d67cfe53914464d2062,,1,0,98,24,1,97
,,,,,,,,,,,,,,,,,,,,,,,,,,,,,,,,,,,,,,,,,o,1.615999937,CHO,FALSE,,,,,,,27,chocolate,Spanish,Sounds/spa_chocolate.mp3,2020-06-05_16h23.01.244,TranslationElicitation_eng-prolific,3.2.4,Win32,60,5ec83d67cfe53914464d2062,,1,0,98,24,1,97
,,,,,,,,,,,,,,,,,,,,,,,,,,,,,,,,,,,,,,,,,c,1.715999842,CHOC,FALSE,,,,,,,27,chocolate,Spanish,Sounds/spa_chocolate.mp3,2020-06-05_16h23.01.244,TranslationElicitation_eng-prolific,3.2.4,Win32,60,5ec83d67cfe53914464d2062,,1,0,98,24,1,97
,,,,,,,,,,,,,,,,,,,,,,,,,,,,,,,,,,,,,,,,,o,1.815999985,CHOCO,FALSE,,,,,,,27,chocolate,Spanish,Sounds/spa_chocolate.mp3,2020-06-05_16h23.01.244,TranslationElicitation_eng-prolific,3.2.4,Win32,60,5ec83d67cfe53914464d2062,,1,0,98,24,1,97
,,,,,,,,,,,,,,,,,,,,,,,,,,,,,,,,,,,,,,,,,l,1.948999882,CHOCOL,FALSE,,,,,,,27,chocolate,Spanish,Sounds/spa_chocolate.mp3,2020-06-05_16h23.01.244,TranslationElicitation_eng-prolific,3.2.4,Win32,60,5ec83d67cfe53914464d2062,,1,0,98,24,1,97
,,,,,,,,,,,,,,,,,,,,,,,,,,,,,,,,,,,,,,,,,a,2.11500001,CHOCOLA,FALSE,,,,,,,27,chocolate,Spanish,Sounds/spa_chocolate.mp3,2020-06-05_16h23.01.244,TranslationElicitation_eng-prolific,3.2.4,Win32,60,5ec83d67cfe53914464d2062,,1,0,98,24,1,97
,,,,,,,,,,,,,,,,,,,,,,,,,,,,,,,,,,,,,,,,,t,2.282999992,CHOCOLAT,FALSE,,,,,,,27,chocolate,Spanish,Sounds/spa_chocolate.mp3,2020-06-05_16h23.01.244,TranslationElicitation_eng-prolific,3.2.4,Win32,60,5ec83d67cfe53914464d2062,,1,0,98,24,1,97
,,,,,,,,,,,,,,,,,,,,,,,,,,,,,,,,,,,,,,,,,e,2.382999897,CHOCOLATE,FALSE,,,,,,,27,chocolate,Spanish,Sounds/spa_chocolate.mp3,2020-06-05_16h23.01.244,TranslationElicitation_eng-prolific,3.2.4,Win32,60,5ec83d67cfe53914464d2062,,1,0,98,24,1,97
,,,,,,,,,,,,,,,,,,,,,,,,,,,,,,,,,,,,,,,,,return,2.73300004,CHOCOLATE,FALSE,,,,,,,27,chocolate,Spanish,Sounds/spa_chocolate.mp3,2020-06-05_16h23.01.244,TranslationElicitation_eng-prolific,3.2.4,Win32,60,5ec83d67cfe53914464d2062,2.73300004,1,0,98,24,1,97
,,,,,,,,,,,,,,,,,,,,,,,,,,,,,,,,,,,,,,,,,,,,,,,,,,,27,chocolate,Spanish,Sounds/spa_chocolate.mp3,2020-06-05_16h23.01.244,TranslationElicitation_eng-prolific,3.2.4,Win32,60,5ec83d67cfe53914464d2062,,1,0,98,24,1,97
,,,,,,,,,,,,,,,,,,,,,,,,,,,,,,,,,,,,,,,,,d,3.617000103,D,FALSE,,,,,,,35,esponja,Spanish,Sounds/spa_esponja.mp3,2020-06-05_16h23.01.244,TranslationElicitation_eng-prolific,3.2.4,Win32,60,5ec83d67cfe53914464d2062,,1,0,98,31,1,97
,,,,,,,,,,,,,,,,,,,,,,,,,,,,,,,,,,,,,,,,,r,3.799000025,DR,FALSE,,,,,,,35,esponja,Spanish,Sounds/spa_esponja.mp3,2020-06-05_16h23.01.244,TranslationElicitation_eng-prolific,3.2.4,Win32,60,5ec83d67cfe53914464d2062,,1,0,98,31,1,97
,,,,,,,,,,,,,,,,,,,,,,,,,,,,,,,,,,,,,,,,,i,3.900000095,DRI,FALSE,,,,,,,35,esponja,Spanish,Sounds/spa_esponja.mp3,2020-06-05_16h23.01.244,TranslationElicitation_eng-prolific,3.2.4,Win32,60,5ec83d67cfe53914464d2062,,1,0,98,31,1,97
,,,,,,,,,,,,,,,,,,,,,,,,,,,,,,,,,,,,,,,,,v,4,DRIV,FALSE,,,,,,,35,esponja,Spanish,Sounds/spa_esponja.mp3,2020-06-05_16h23.01.244,TranslationElicitation_eng-prolific,3.2.4,Win32,60,5ec83d67cfe53914464d2062,,1,0,98,31,1,97
,,,,,,,,,,,,,,,,,,,,,,,,,,,,,,,,,,,,,,,,,i,4.065999985,DRIVI,FALSE,,,,,,,35,esponja,Spanish,Sounds/spa_esponja.mp3,2020-06-05_16h23.01.244,TranslationElicitation_eng-prolific,3.2.4,Win32,60,5ec83d67cfe53914464d2062,,1,0,98,31,1,97
,,,,,,,,,,,,,,,,,,,,,,,,,,,,,,,,,,,,,,,,,n,4.120000124,DRIVIN,FALSE,,,,,,,35,esponja,Spanish,Sounds/spa_esponja.mp3,2020-06-05_16h23.01.244,TranslationElicitation_eng-prolific,3.2.4,Win32,60,5ec83d67cfe53914464d2062,,1,0,98,31,1,97
,,,,,,,,,,,,,,,,,,,,,,,,,,,,,,,,,,,,,,,,,g,4.183000088,DRIVING,FALSE,,,,,,,35,esponja,Spanish,Sounds/spa_esponja.mp3,2020-06-05_16h23.01.244,TranslationElicitation_eng-prolific,3.2.4,Win32,60,5ec83d67cfe53914464d2062,,1,0,98,31,1,97
,,,,,,,,,,,,,,,,,,,,,,,,,,,,,,,,,,,,,,,,,return,4.565999985,DRIVING,FALSE,,,,,,,35,esponja,Spanish,Sounds/spa_esponja.mp3,2020-06-05_16h23.01.244,TranslationElicitation_eng-prolific,3.2.4,Win32,60,5ec83d67cfe53914464d2062,4.565999985,1,0,98,31,1,97
,,,,,,,,,,,,,,,,,,,,,,,,,,,,,,,,,,,,,,,,,,,,,,,,,,,35,esponja,Spanish,Sounds/spa_esponja.mp3,2020-06-05_16h23.01.244,TranslationElicitation_eng-prolific,3.2.4,Win32,60,5ec83d67cfe53914464d2062,,1,0,98,31,1,97
,,,,,,,,,,,,,,,,,,,,,,,,,,,,,,,,,,,,,,,,,d,4.516000032,D,FALSE,,,,,,,51,ladrillo,Spanish,Sounds/spa_ladrillo.mp3,2020-06-05_16h23.01.244,TranslationElicitation_eng-prolific,3.2.4,Win32,60,5ec83d67cfe53914464d2062,,1,0,98,47,1,97
,,,,,,,,,,,,,,,,,,,,,,,,,,,,,,,,,,,,,,,,,r,4.714999914,DR,FALSE,,,,,,,51,ladrillo,Spanish,Sounds/spa_ladrillo.mp3,2020-06-05_16h23.01.244,TranslationElicitation_eng-prolific,3.2.4,Win32,60,5ec83d67cfe53914464d2062,,1,0,98,47,1,97
,,,,,,,,,,,,,,,,,,,,,,,,,,,,,,,,,,,,,,,,,i,4.797999859,DRI,FALSE,,,,,,,51,ladrillo,Spanish,Sounds/spa_ladrillo.mp3,2020-06-05_16h23.01.244,TranslationElicitation_eng-prolific,3.2.4,Win32,60,5ec83d67cfe53914464d2062,,1,0,98,47,1,97
,,,,,,,,,,,,,,,,,,,,,,,,,,,,,,,,,,,,,,,,,n,4.865999937,DRIN,FALSE,,,,,,,51,ladrillo,Spanish,Sounds/spa_ladrillo.mp3,2020-06-05_16h23.01.244,TranslationElicitation_eng-prolific,3.2.4,Win32,60,5ec83d67cfe53914464d2062,,1,0,98,47,1,97
,,,,,,,,,,,,,,,,,,,,,,,,,,,,,,,,,,,,,,,,,k,5.014999866,DRINK,FALSE,,,,,,,51,ladrillo,Spanish,Sounds/spa_ladrillo.mp3,2020-06-05_16h23.01.244,TranslationElicitation_eng-prolific,3.2.4,Win32,60,5ec83d67cfe53914464d2062,,1,0,98,47,1,97
,,,,,,,,,,,,,,,,,,,,,,,,,,,,,,,,,,,,,,,,,i,5.082000017,DRINKI,FALSE,,,,,,,51,ladrillo,Spanish,Sounds/spa_ladrillo.mp3,2020-06-05_16h23.01.244,TranslationElicitation_eng-prolific,3.2.4,Win32,60,5ec83d67cfe53914464d2062,,1,0,98,47,1,97
,,,,,,,,,,,,,,,,,,,,,,,,,,,,,,,,,,,,,,,,,n,5.165999889,DRINKIN,FALSE,,,,,,,51,ladrillo,Spanish,Sounds/spa_ladrillo.mp3,2020-06-05_16h23.01.244,TranslationElicitation_eng-prolific,3.2.4,Win32,60,5ec83d67cfe53914464d2062,,1,0,98,47,1,97
,,,,,,,,,,,,,,,,,,,,,,,,,,,,,,,,,,,,,,,,,g,5.231999874,DRINKING,FALSE,,,,,,,51,ladrillo,Spanish,Sounds/spa_ladrillo.mp3,2020-06-05_16h23.01.244,TranslationElicitation_eng-prolific,3.2.4,Win32,60,5ec83d67cfe53914464d2062,,1,0,98,47,1,97
,,,,,,,,,,,,,,,,,,,,,,,,,,,,,,,,,,,,,,,,,return,5.648000002,DRINKING,FALSE,,,,,,,51,ladrillo,Spanish,Sounds/spa_ladrillo.mp3,2020-06-05_16h23.01.244,TranslationElicitation_eng-prolific,3.2.4,Win32,60,5ec83d67cfe53914464d2062,5.648000002,1,0,98,47,1,97
,,,,,,,,,,,,,,,,,,,,,,,,,,,,,,,,,,,,,,,,,,,,,,,,,,,51,ladrillo,Spanish,Sounds/spa_ladrillo.mp3,2020-06-05_16h23.01.244,TranslationElicitation_eng-prolific,3.2.4,Win32,60,5ec83d67cfe53914464d2062,,1,0,98,47,1,97
,,,,,,,,,,,,,,,,,,,,,,,,,,,,,,,,,,,,,,,,,t,3.599999905,T,FALSE,,,,,,,45,gorro,Spanish,Sounds/spa_gorro.mp3,2020-06-05_16h23.01.244,TranslationElicitation_eng-prolific,3.2.4,Win32,60,5ec83d67cfe53914464d2062,,1,0,98,41,1,97
,,,,,,,,,,,,,,,,,,,,,,,,,,,,,,,,,,,,,,,,,a,3.799999952,TA,FALSE,,,,,,,45,gorro,Spanish,Sounds/spa_gorro.mp3,2020-06-05_16h23.01.244,TranslationElicitation_eng-prolific,3.2.4,Win32,60,5ec83d67cfe53914464d2062,,1,0,98,41,1,97
,,,,,,,,,,,,,,,,,,,,,,,,,,,,,,,,,,,,,,,,,b,3.882999897,TAB,FALSE,,,,,,,45,gorro,Spanish,Sounds/spa_gorro.mp3,2020-06-05_16h23.01.244,TranslationElicitation_eng-prolific,3.2.4,Win32,60,5ec83d67cfe53914464d2062,,1,0,98,41,1,97
,,,,,,,,,,,,,,,,,,,,,,,,,,,,,,,,,,,,,,,,,l,4.082999945,TABL,FALSE,,,,,,,45,gorro,Spanish,Sounds/spa_gorro.mp3,2020-06-05_16h23.01.244,TranslationElicitation_eng-prolific,3.2.4,Win32,60,5ec83d67cfe53914464d2062,,1,0,98,41,1,97
,,,,,,,,,,,,,,,,,,,,,,,,,,,,,,,,,,,,,,,,,e,4.132999897,TABLE,FALSE,,,,,,,45,gorro,Spanish,Sounds/spa_gorro.mp3,2020-06-05_16h23.01.244,TranslationElicitation_eng-prolific,3.2.4,Win32,60,5ec83d67cfe53914464d2062,,1,0,98,41,1,97
,,,,,,,,,,,,,,,,,,,,,,,,,,,,,,,,,,,,,,,,,return,4.5,TABLE,FALSE,,,,,,,45,gorro,Spanish,Sounds/spa_gorro.mp3,2020-06-05_16h23.01.244,TranslationElicitation_eng-prolific,3.2.4,Win32,60,5ec83d67cfe53914464d2062,4.5,1,0,98,41,1,97
,,,,,,,,,,,,,,,,,,,,,,,,,,,,,,,,,,,,,,,,,,,,,,,,,,,45,gorro,Spanish,Sounds/spa_gorro.mp3,2020-06-05_16h23.01.244,TranslationElicitation_eng-prolific,3.2.4,Win32,60,5ec83d67cfe53914464d2062,,1,0,98,41,1,97
,,,,,,,,,,,,,,,,,,,,,,,,,,,,,,,,,,,,,,,,,b,4.017000198,B,FALSE,,,,,,,32,cuchara,Spanish,Sounds/spa_cuchara.mp3,2020-06-05_16h23.01.244,TranslationElicitation_eng-prolific,3.2.4,Win32,60,5ec83d67cfe53914464d2062,,1,0,98,28,1,97
,,,,,,,,,,,,,,,,,,,,,,,,,,,,,,,,,,,,,,,,,a,4.100000143,BA,FALSE,,,,,,,32,cuchara,Spanish,Sounds/spa_cuchara.mp3,2020-06-05_16h23.01.244,TranslationElicitation_eng-prolific,3.2.4,Win32,60,5ec83d67cfe53914464d2062,,1,0,98,28,1,97
,,,,,,,,,,,,,,,,,,,,,,,,,,,,,,,,,,,,,,,,,n,4.200999975,BAN,FALSE,,,,,,,32,cuchara,Spanish,Sounds/spa_cuchara.mp3,2020-06-05_16h23.01.244,TranslationElicitation_eng-prolific,3.2.4,Win32,60,5ec83d67cfe53914464d2062,,1,0,98,28,1,97
,,,,,,,,,,,,,,,,,,,,,,,,,,,,,,,,,,,,,,,,,a,4.301000118,BANA,FALSE,,,,,,,32,cuchara,Spanish,Sounds/spa_cuchara.mp3,2020-06-05_16h23.01.244,TranslationElicitation_eng-prolific,3.2.4,Win32,60,5ec83d67cfe53914464d2062,,1,0,98,28,1,97
,,,,,,,,,,,,,,,,,,,,,,,,,,,,,,,,,,,,,,,,,n,4.400000095,BANAN,FALSE,,,,,,,32,cuchara,Spanish,Sounds/spa_cuchara.mp3,2020-06-05_16h23.01.244,TranslationElicitation_eng-prolific,3.2.4,Win32,60,5ec83d67cfe53914464d2062,,1,0,98,28,1,97
,,,,,,,,,,,,,,,,,,,,,,,,,,,,,,,,,,,,,,,,,a,4.517000198,BANANA,FALSE,,,,,,,32,cuchara,Spanish,Sounds/spa_cuchara.mp3,2020-06-05_16h23.01.244,TranslationElicitation_eng-prolific,3.2.4,Win32,60,5ec83d67cfe53914464d2062,,1,0,98,28,1,97
,,,,,,,,,,,,,,,,,,,,,,,,,,,,,,,,,,,,,,,,,return,5.017000198,BANANA,FALSE,,,,,,,32,cuchara,Spanish,Sounds/spa_cuchara.mp3,2020-06-05_16h23.01.244,TranslationElicitation_eng-prolific,3.2.4,Win32,60,5ec83d67cfe53914464d2062,5.017000198,1,0,98,28,1,97
,,,,,,,,,,,,,,,,,,,,,,,,,,,,,,,,,,,,,,,,,,,,,,,,,,,32,cuchara,Spanish,Sounds/spa_cuchara.mp3,2020-06-05_16h23.01.244,TranslationElicitation_eng-prolific,3.2.4,Win32,60,5ec83d67cfe53914464d2062,,1,0,98,28,1,97
,,,,,,,,,,,,,,,,,,,,,,,,,,,,,,,,,,,,,,,,,b,3.664999962,B,FALSE,,,,,,,14,burro,Spanish,Sounds/spa_burro.mp3,2020-06-05_16h23.01.244,TranslationElicitation_eng-prolific,3.2.4,Win32,60,5ec83d67cfe53914464d2062,,1,0,98,12,1,97
,,,,,,,,,,,,,,,,,,,,,,,,,,,,,,,,,,,,,,,,,o,3.815999985,BO,FALSE,,,,,,,14,burro,Spanish,Sounds/spa_burro.mp3,2020-06-05_16h23.01.244,TranslationElicitation_eng-prolific,3.2.4,Win32,60,5ec83d67cfe53914464d2062,,1,0,98,12,1,97
,,,,,,,,,,,,,,,,,,,,,,,,,,,,,,,,,,,,,,,,,r,3.832999945,BOR,FALSE,,,,,,,14,burro,Spanish,Sounds/spa_burro.mp3,2020-06-05_16h23.01.244,TranslationElicitation_eng-prolific,3.2.4,Win32,60,5ec83d67cfe53914464d2062,,1,0,98,12,1,97
,,,,,,,,,,,,,,,,,,,,,,,,,,,,,,,,,,,,,,,,,r,3.982999802,BORR,FALSE,,,,,,,14,burro,Spanish,Sounds/spa_burro.mp3,2020-06-05_16h23.01.244,TranslationElicitation_eng-prolific,3.2.4,Win32,60,5ec83d67cfe53914464d2062,,1,0,98,12,1,97
,,,,,,,,,,,,,,,,,,,,,,,,,,,,,,,,,,,,,,,,,o,4.032999992,BORRO,FALSE,,,,,,,14,burro,Spanish,Sounds/spa_burro.mp3,2020-06-05_16h23.01.244,TranslationElicitation_eng-prolific,3.2.4,Win32,60,5ec83d67cfe53914464d2062,,1,0,98,12,1,97
,,,,,,,,,,,,,,,,,,,,,,,,,,,,,,,,,,,,,,,,,w,4.165999889,BORROW,FALSE,,,,,,,14,burro,Spanish,Sounds/spa_burro.mp3,2020-06-05_16h23.01.244,TranslationElicitation_eng-prolific,3.2.4,Win32,60,5ec83d67cfe53914464d2062,,1,0,98,12,1,97
,,,,,,,,,,,,,,,,,,,,,,,,,,,,,,,,,,,,,,,,,return,4.465999842,BORROW,FALSE,,,,,,,14,burro,Spanish,Sounds/spa_burro.mp3,2020-06-05_16h23.01.244,TranslationElicitation_eng-prolific,3.2.4,Win32,60,5ec83d67cfe53914464d2062,4.465999842,1,0,98,12,1,97
,,,,,,,,,,,,,,,,,,,,,,,,,,,,,,,,,,,,,,,,,,,,,,,,,,,14,burro,Spanish,Sounds/spa_burro.mp3,2020-06-05_16h23.01.244,TranslationElicitation_eng-prolific,3.2.4,Win32,60,5ec83d67cfe53914464d2062,,1,0,98,12,1,97
,,,,,,,,,,,,,,,,,,,,,,,,,,,,,,,,,,,,,,,,,t,5.249000072,T,FALSE,,,,,,,73,oveja,Spanish,Sounds/spa_oveja.mp3,2020-06-05_16h23.01.244,TranslationElicitation_eng-prolific,3.2.4,Win32,60,5ec83d67cfe53914464d2062,,1,0,98,68,1,97
,,,,,,,,,,,,,,,,,,,,,,,,,,,,,,,,,,,,,,,,,h,5.332000017,TH,FALSE,,,,,,,73,oveja,Spanish,Sounds/spa_oveja.mp3,2020-06-05_16h23.01.244,TranslationElicitation_eng-prolific,3.2.4,Win32,60,5ec83d67cfe53914464d2062,,1,0,98,68,1,97
,,,,,,,,,,,,,,,,,,,,,,,,,,,,,,,,,,,,,,,,,a,5.516000032,THA,FALSE,,,,,,,73,oveja,Spanish,Sounds/spa_oveja.mp3,2020-06-05_16h23.01.244,TranslationElicitation_eng-prolific,3.2.4,Win32,60,5ec83d67cfe53914464d2062,,1,0,98,68,1,97
,,,,,,,,,,,,,,,,,,,,,,,,,,,,,,,,,,,,,,,,,n,5.582999945,THAN,FALSE,,,,,,,73,oveja,Spanish,Sounds/spa_oveja.mp3,2020-06-05_16h23.01.244,TranslationElicitation_eng-prolific,3.2.4,Win32,60,5ec83d67cfe53914464d2062,,1,0,98,68,1,97
,,,,,,,,,,,,,,,,,,,,,,,,,,,,,,,,,,,,,,,,,k,5.598999977,THANK,FALSE,,,,,,,73,oveja,Spanish,Sounds/spa_oveja.mp3,2020-06-05_16h23.01.244,TranslationElicitation_eng-prolific,3.2.4,Win32,60,5ec83d67cfe53914464d2062,,1,0,98,68,1,97
,,,,,,,,,,,,,,,,,,,,,,,,,,,,,,,,,,,,,,,,,space,5.815000057,THANK ,FALSE,,,,,,,73,oveja,Spanish,Sounds/spa_oveja.mp3,2020-06-05_16h23.01.244,TranslationElicitation_eng-prolific,3.2.4,Win32,60,5ec83d67cfe53914464d2062,,1,0,98,68,1,97
,,,,,,,,,,,,,,,,,,,,,,,,,,,,,,,,,,,,,,,,,y,5.94900012,THANK Y,FALSE,,,,,,,73,oveja,Spanish,Sounds/spa_oveja.mp3,2020-06-05_16h23.01.244,TranslationElicitation_eng-prolific,3.2.4,Win32,60,5ec83d67cfe53914464d2062,,1,0,98,68,1,97
,,,,,,,,,,,,,,,,,,,,,,,,,,,,,,,,,,,,,,,,,o,6.032000065,THANK YO,FALSE,,,,,,,73,oveja,Spanish,Sounds/spa_oveja.mp3,2020-06-05_16h23.01.244,TranslationElicitation_eng-prolific,3.2.4,Win32,60,5ec83d67cfe53914464d2062,,1,0,98,68,1,97
,,,,,,,,,,,,,,,,,,,,,,,,,,,,,,,,,,,,,,,,,u,6.799000025,THANK YOU,FALSE,,,,,,,73,oveja,Spanish,Sounds/spa_oveja.mp3,2020-06-05_16h23.01.244,TranslationElicitation_eng-prolific,3.2.4,Win32,60,5ec83d67cfe53914464d2062,,1,0,98,68,1,97
,,,,,,,,,,,,,,,,,,,,,,,,,,,,,,,,,,,,,,,,,return,6.98300004,THANK YOU,FALSE,,,,,,,73,oveja,Spanish,Sounds/spa_oveja.mp3,2020-06-05_16h23.01.244,TranslationElicitation_eng-prolific,3.2.4,Win32,60,5ec83d67cfe53914464d2062,6.98300004,1,0,98,68,1,97
,,,,,,,,,,,,,,,,,,,,,,,,,,,,,,,,,,,,,,,,,,,,,,,,,,,73,oveja,Spanish,Sounds/spa_oveja.mp3,2020-06-05_16h23.01.244,TranslationElicitation_eng-prolific,3.2.4,Win32,60,5ec83d67cfe53914464d2062,,1,0,98,68,1,97
,,,,,,,,,,,,,,,,,,,,,,,,,,,,,,,,,,,,,,,,,h,1.917000055,H,FALSE,,,,,,,41,gallina,Spanish,Sounds/spa_gallina.mp3,2020-06-05_16h23.01.244,TranslationElicitation_eng-prolific,3.2.4,Win32,60,5ec83d67cfe53914464d2062,,1,0,98,37,1,97
,,,,,,,,,,,,,,,,,,,,,,,,,,,,,,,,,,,,,,,,,y,2,HY,FALSE,,,,,,,41,gallina,Spanish,Sounds/spa_gallina.mp3,2020-06-05_16h23.01.244,TranslationElicitation_eng-prolific,3.2.4,Win32,60,5ec83d67cfe53914464d2062,,1,0,98,37,1,97
,,,,,,,,,,,,,,,,,,,,,,,,,,,,,,,,,,,,,,,,,e,2.101000071,HYE,FALSE,,,,,,,41,gallina,Spanish,Sounds/spa_gallina.mp3,2020-06-05_16h23.01.244,TranslationElicitation_eng-prolific,3.2.4,Win32,60,5ec83d67cfe53914464d2062,,1,0,98,37,1,97
,,,,,,,,,,,,,,,,,,,,,,,,,,,,,,,,,,,,,,,,,a,2.351000071,HYEA,FALSE,,,,,,,41,gallina,Spanish,Sounds/spa_gallina.mp3,2020-06-05_16h23.01.244,TranslationElicitation_eng-prolific,3.2.4,Win32,60,5ec83d67cfe53914464d2062,,1,0,98,37,1,97
,,,,,,,,,,,,,,,,,,,,,,,,,,,,,,,,,,,,,,,,,backspace,2.751000166,HYE,TRUE,,,,,,,41,gallina,Spanish,Sounds/spa_gallina.mp3,2020-06-05_16h23.01.244,TranslationElicitation_eng-prolific,3.2.4,Win32,60,5ec83d67cfe53914464d2062,,1,0,98,37,1,97
,,,,,,,,,,,,,,,,,,,,,,,,,,,,,,,,,,,,,,,,,n,2.967000008,HYEN,TRUE,,,,,,,41,gallina,Spanish,Sounds/spa_gallina.mp3,2020-06-05_16h23.01.244,TranslationElicitation_eng-prolific,3.2.4,Win32,60,5ec83d67cfe53914464d2062,,1,0,98,37,1,97
,,,,,,,,,,,,,,,,,,,,,,,,,,,,,,,,,,,,,,,,,a,3.017000198,HYENA,TRUE,,,,,,,41,gallina,Spanish,Sounds/spa_gallina.mp3,2020-06-05_16h23.01.244,TranslationElicitation_eng-prolific,3.2.4,Win32,60,5ec83d67cfe53914464d2062,,1,0,98,37,1,97
,,,,,,,,,,,,,,,,,,,,,,,,,,,,,,,,,,,,,,,,,return,3.467000008,HYENA,TRUE,,,,,,,41,gallina,Spanish,Sounds/spa_gallina.mp3,2020-06-05_16h23.01.244,TranslationElicitation_eng-prolific,3.2.4,Win32,60,5ec83d67cfe53914464d2062,3.467000008,1,0,98,37,1,97
,,,,,,,,,,,,,,,,,,,,,,,,,,,,,,,,,,,,,,,,,,,,,,,,,,,41,gallina,Spanish,Sounds/spa_gallina.mp3,2020-06-05_16h23.01.244,TranslationElicitation_eng-prolific,3.2.4,Win32,60,5ec83d67cfe53914464d2062,,1,0,98,37,1,97
,,,,,,,,,,,,,,,,,,,,,,,,,,,,,,,,,,,,,,,,,p,1.96600008,P,FALSE,,,,,,,88,plato,Spanish,Sounds/spa_plato.mp3,2020-06-05_16h23.01.244,TranslationElicitation_eng-prolific,3.2.4,Win32,60,5ec83d67cfe53914464d2062,,1,0,98,83,1,97
,,,,,,,,,,,,,,,,,,,,,,,,,,,,,,,,,,,,,,,,,l,2,PL,FALSE,,,,,,,88,plato,Spanish,Sounds/spa_plato.mp3,2020-06-05_16h23.01.244,TranslationElicitation_eng-prolific,3.2.4,Win32,60,5ec83d67cfe53914464d2062,,1,0,98,83,1,97
,,,,,,,,,,,,,,,,,,,,,,,,,,,,,,,,,,,,,,,,,a,2.150000095,PLA,FALSE,,,,,,,88,plato,Spanish,Sounds/spa_plato.mp3,2020-06-05_16h23.01.244,TranslationElicitation_eng-prolific,3.2.4,Win32,60,5ec83d67cfe53914464d2062,,1,0,98,83,1,97
,,,,,,,,,,,,,,,,,,,,,,,,,,,,,,,,,,,,,,,,,t,2.350000143,PLAT,FALSE,,,,,,,88,plato,Spanish,Sounds/spa_plato.mp3,2020-06-05_16h23.01.244,TranslationElicitation_eng-prolific,3.2.4,Win32,60,5ec83d67cfe53914464d2062,,1,0,98,83,1,97
,,,,,,,,,,,,,,,,,,,,,,,,,,,,,,,,,,,,,,,,,e,2.433000088,PLATE,FALSE,,,,,,,88,plato,Spanish,Sounds/spa_plato.mp3,2020-06-05_16h23.01.244,TranslationElicitation_eng-prolific,3.2.4,Win32,60,5ec83d67cfe53914464d2062,,1,0,98,83,1,97
,,,,,,,,,,,,,,,,,,,,,,,,,,,,,,,,,,,,,,,,,return,2.937000036,PLATE,FALSE,,,,,,,88,plato,Spanish,Sounds/spa_plato.mp3,2020-06-05_16h23.01.244,TranslationElicitation_eng-prolific,3.2.4,Win32,60,5ec83d67cfe53914464d2062,2.937000036,1,0,98,83,1,97
