consentKey.keys,consentKey.rt,languageL1Key.keys,languageL1Key.rt,languageL2,languageL2OralKey.keys,languageL2OralKey.rt,languageL2WrittenKey.keys,languageL2WrittenKey.rt,languageL3OralKey.keys,languageL3OralKey.rt,languageL3WrittenKey.keys,languageL3WrittenKey.rt,languageCatalanOralKey.keys,languageCatalanOralKey.rt,languageCatalanWrittenKey.keys,languageCatalanWrittenKey.rt,languageCatalanTimeKey.keys,languageCatalanTimeKey.rt,languageSpanishOralKey.keys,languageSpanishOralKey.rt,languageSpanishWrittenKey.keys,languageSpanishWrittenKey.rt,languageSpanishTimeKey.keys,languageSpanishTimeKey.rt,age,demoSexKey.keys,demoSexKey.rt,demoEducationKey.keys,demoEducationKey.rt,city,demoVisionKey.keys,demoVisionKey.rt,demoLanguageKey.keys,demoLanguageKey.rt,setupLocationKey.keys,setupLocationKey.rt,setupNoiseKey.keys,setupNoiseKey.rt,instructionsKeys.keys,instructionsKeys.rt,keyPressed,keyPressTime,inputText,error,trialsPracticeCatalan.thisRepN,trialsPracticeCatalan.thisTrialN,trialsPracticeCatalan.thisN,trialsPracticeCatalan.thisIndex,trialsPracticeCatalan.ran,trialsPracticeCatalan.order,trial_id,word,test_language,soundfile,date,expName,psychopyVersion,OS,frameRate,participant,trialOffset,trialsCatalan.thisRepN,trialsCatalan.thisTrialN,trialsCatalan.thisN,trialsCatalan.thisIndex,trialsCatalan.ran,trialsCatalan.order
space,6.142000198,e,3.07400012,,,,,,,,,,1,26.5170002,1,4.486000061,1,8.150000095,1,3.539000273,1,5.78000021,2,12.64900017,23,m,2.972000122,4,4.546000242,BOLTON,y,5.078999996,n,5.668000221,1,2.75,1,4.514000177,space,21.40400004,o,10.54900002,O,FALSE,1,0,5,0,1,4,109,arbre,Catalan,Sounds/cat_arbre.mp3,2020-06-05_15h36.04.575,TranslationElicitation_eng-prolific,3.2.4,Win32,60,5eca8f766efc6002c151bb05,,,,,,,
,,,,,,,,,,,,,,,,,,,,,,,,,,,,,,,,,,,,,,,,,k,10.71600008,OK,FALSE,1,0,5,0,1,4,109,arbre,Catalan,Sounds/cat_arbre.mp3,2020-06-05_15h36.04.575,TranslationElicitation_eng-prolific,3.2.4,Win32,60,5eca8f766efc6002c151bb05,,,,,,,
,,,,,,,,,,,,,,,,,,,,,,,,,,,,,,,,,,,,,,,,,return,11.33400011,OK,FALSE,1,0,5,0,1,4,109,arbre,Catalan,Sounds/cat_arbre.mp3,2020-06-05_15h36.04.575,TranslationElicitation_eng-prolific,3.2.4,Win32,60,5eca8f766efc6002c151bb05,11.33400011,,,,,,
,,,,,,,,,,,,,,,,,,,,,,,,,,,,,,,,,,,,,,,,,,,,,1,0,5,0,1,4,109,arbre,Catalan,Sounds/cat_arbre.mp3,2020-06-05_15h36.04.575,TranslationElicitation_eng-prolific,3.2.4,Win32,60,5eca8f766efc6002c151bb05,,,,,,,
,,,,,,,,,,,,,,,,,,,,,,,,,,,,,,,,,,,,,,,,,t,2.898999929,T,FALSE,1,0,5,4,1,4,179,tigre,Catalan,Sounds/cat_tigre.mp3,2020-06-05_15h36.04.575,TranslationElicitation_eng-prolific,3.2.4,Win32,60,5eca8f766efc6002c151bb05,,,,,,,
,,,,,,,,,,,,,,,,,,,,,,,,,,,,,,,,,,,,,,,,,e,3.25,TE,FALSE,1,0,5,4,1,4,179,tigre,Catalan,Sounds/cat_tigre.mp3,2020-06-05_15h36.04.575,TranslationElicitation_eng-prolific,3.2.4,Win32,60,5eca8f766efc6002c151bb05,,,,,,,
,,,,,,,,,,,,,,,,,,,,,,,,,,,,,,,,,,,,,,,,,backspace,4.181999922,T,TRUE,1,0,5,4,1,4,179,tigre,Catalan,Sounds/cat_tigre.mp3,2020-06-05_15h36.04.575,TranslationElicitation_eng-prolific,3.2.4,Win32,60,5eca8f766efc6002c151bb05,,,,,,,
,,,,,,,,,,,,,,,,,,,,,,,,,,,,,,,,,,,,,,,,,backspace,4.914999962,,TRUE,1,0,5,4,1,4,179,tigre,Catalan,Sounds/cat_tigre.mp3,2020-06-05_15h36.04.575,TranslationElicitation_eng-prolific,3.2.4,Win32,60,5eca8f766efc6002c151bb05,,,,,,,
,,,,,,,,,,,,,,,,,,,,,,,,,,,,,,,,,,,,,,,,,o,5.681999922,O,TRUE,1,0,5,4,1,4,179,tigre,Catalan,Sounds/cat_tigre.mp3,2020-06-05_15h36.04.575,TranslationElicitation_eng-prolific,3.2.4,Win32,60,5eca8f766efc6002c151bb05,,,,,,,
,,,,,,,,,,,,,,,,,,,,,,,,,,,,,,,,,,,,,,,,,k,5.898000002,OK,TRUE,1,0,5,4,1,4,179,tigre,Catalan,Sounds/cat_tigre.mp3,2020-06-05_15h36.04.575,TranslationElicitation_eng-prolific,3.2.4,Win32,60,5eca8f766efc6002c151bb05,,,,,,,
,,,,,,,,,,,,,,,,,,,,,,,,,,,,,,,,,,,,,,,,,a,6.214999914,OKA,TRUE,1,0,5,4,1,4,179,tigre,Catalan,Sounds/cat_tigre.mp3,2020-06-05_15h36.04.575,TranslationElicitation_eng-prolific,3.2.4,Win32,60,5eca8f766efc6002c151bb05,,,,,,,
,,,,,,,,,,,,,,,,,,,,,,,,,,,,,,,,,,,,,,,,,y,6.398999929,OKAY,TRUE,1,0,5,4,1,4,179,tigre,Catalan,Sounds/cat_tigre.mp3,2020-06-05_15h36.04.575,TranslationElicitation_eng-prolific,3.2.4,Win32,60,5eca8f766efc6002c151bb05,,,,,,,
,,,,,,,,,,,,,,,,,,,,,,,,,,,,,,,,,,,,,,,,,return,6.832000017,OKAY,TRUE,1,0,5,4,1,4,179,tigre,Catalan,Sounds/cat_tigre.mp3,2020-06-05_15h36.04.575,TranslationElicitation_eng-prolific,3.2.4,Win32,60,5eca8f766efc6002c151bb05,6.832000017,,,,,,
,,,,,,,,,,,,,,,,,,,,,,,,,,,,,,,,,,,,,,,,,,,,,1,0,5,4,1,4,179,tigre,Catalan,Sounds/cat_tigre.mp3,2020-06-05_15h36.04.575,TranslationElicitation_eng-prolific,3.2.4,Win32,60,5eca8f766efc6002c151bb05,,,,,,,
,,,,,,,,,,,,,,,,,,,,,,,,,,,,,,,,,,,,,,,,,g,4.715999842,G,FALSE,1,0,5,1,1,4,126,corona,Catalan,Sounds/cat_corona.mp3,2020-06-05_15h36.04.575,TranslationElicitation_eng-prolific,3.2.4,Win32,60,5eca8f766efc6002c151bb05,,,,,,,
,,,,,,,,,,,,,,,,,,,,,,,,,,,,,,,,,,,,,,,,,r,4.932999849,GR,FALSE,1,0,5,1,1,4,126,corona,Catalan,Sounds/cat_corona.mp3,2020-06-05_15h36.04.575,TranslationElicitation_eng-prolific,3.2.4,Win32,60,5eca8f766efc6002c151bb05,,,,,,,
,,,,,,,,,,,,,,,,,,,,,,,,,,,,,,,,,,,,,,,,,e,5.032999992,GRE,FALSE,1,0,5,1,1,4,126,corona,Catalan,Sounds/cat_corona.mp3,2020-06-05_15h36.04.575,TranslationElicitation_eng-prolific,3.2.4,Win32,60,5eca8f766efc6002c151bb05,,,,,,,
,,,,,,,,,,,,,,,,,,,,,,,,,,,,,,,,,,,,,,,,,e,5.248999834,GREE,FALSE,1,0,5,1,1,4,126,corona,Catalan,Sounds/cat_corona.mp3,2020-06-05_15h36.04.575,TranslationElicitation_eng-prolific,3.2.4,Win32,60,5eca8f766efc6002c151bb05,,,,,,,
,,,,,,,,,,,,,,,,,,,,,,,,,,,,,,,,,,,,,,,,,n,5.398999929,GREEN,FALSE,1,0,5,1,1,4,126,corona,Catalan,Sounds/cat_corona.mp3,2020-06-05_15h36.04.575,TranslationElicitation_eng-prolific,3.2.4,Win32,60,5eca8f766efc6002c151bb05,,,,,,,
,,,,,,,,,,,,,,,,,,,,,,,,,,,,,,,,,,,,,,,,,return,5.765999794,GREEN,FALSE,1,0,5,1,1,4,126,corona,Catalan,Sounds/cat_corona.mp3,2020-06-05_15h36.04.575,TranslationElicitation_eng-prolific,3.2.4,Win32,60,5eca8f766efc6002c151bb05,5.765999794,,,,,,
,,,,,,,,,,,,,,,,,,,,,,,,,,,,,,,,,,,,,,,,,,,,,1,0,5,1,1,4,126,corona,Catalan,Sounds/cat_corona.mp3,2020-06-05_15h36.04.575,TranslationElicitation_eng-prolific,3.2.4,Win32,60,5eca8f766efc6002c151bb05,,,,,,,
,,,,,,,,,,,,,,,,,,,,,,,,,,,,,,,,,,,,,,,,,u,4.034000158,U,FALSE,1,0,5,3,1,4,159,onada,Catalan,Sounds/cat_onada.mp3,2020-06-05_15h36.04.575,TranslationElicitation_eng-prolific,3.2.4,Win32,60,5eca8f766efc6002c151bb05,,,,,,,
,,,,,,,,,,,,,,,,,,,,,,,,,,,,,,,,,,,,,,,,,m,4.284000158,UM,FALSE,1,0,5,3,1,4,159,onada,Catalan,Sounds/cat_onada.mp3,2020-06-05_15h36.04.575,TranslationElicitation_eng-prolific,3.2.4,Win32,60,5eca8f766efc6002c151bb05,,,,,,,
,,,,,,,,,,,,,,,,,,,,,,,,,,,,,,,,,,,,,,,,,b,4.532999992,UMB,FALSE,1,0,5,3,1,4,159,onada,Catalan,Sounds/cat_onada.mp3,2020-06-05_15h36.04.575,TranslationElicitation_eng-prolific,3.2.4,Win32,60,5eca8f766efc6002c151bb05,,,,,,,
,,,,,,,,,,,,,,,,,,,,,,,,,,,,,,,,,,,,,,,,,r,4.683000088,UMBR,FALSE,1,0,5,3,1,4,159,onada,Catalan,Sounds/cat_onada.mp3,2020-06-05_15h36.04.575,TranslationElicitation_eng-prolific,3.2.4,Win32,60,5eca8f766efc6002c151bb05,,,,,,,
,,,,,,,,,,,,,,,,,,,,,,,,,,,,,,,,,,,,,,,,,e,4.749000072,UMBRE,FALSE,1,0,5,3,1,4,159,onada,Catalan,Sounds/cat_onada.mp3,2020-06-05_15h36.04.575,TranslationElicitation_eng-prolific,3.2.4,Win32,60,5eca8f766efc6002c151bb05,,,,,,,
,,,,,,,,,,,,,,,,,,,,,,,,,,,,,,,,,,,,,,,,,l,4.883000135,UMBREL,FALSE,1,0,5,3,1,4,159,onada,Catalan,Sounds/cat_onada.mp3,2020-06-05_15h36.04.575,TranslationElicitation_eng-prolific,3.2.4,Win32,60,5eca8f766efc6002c151bb05,,,,,,,
,,,,,,,,,,,,,,,,,,,,,,,,,,,,,,,,,,,,,,,,,l,5.050000191,UMBRELL,FALSE,1,0,5,3,1,4,159,onada,Catalan,Sounds/cat_onada.mp3,2020-06-05_15h36.04.575,TranslationElicitation_eng-prolific,3.2.4,Win32,60,5eca8f766efc6002c151bb05,,,,,,,
,,,,,,,,,,,,,,,,,,,,,,,,,,,,,,,,,,,,,,,,,a,5.149000168,UMBRELLA,FALSE,1,0,5,3,1,4,159,onada,Catalan,Sounds/cat_onada.mp3,2020-06-05_15h36.04.575,TranslationElicitation_eng-prolific,3.2.4,Win32,60,5eca8f766efc6002c151bb05,,,,,,,
,,,,,,,,,,,,,,,,,,,,,,,,,,,,,,,,,,,,,,,,,return,5.450000048,UMBRELLA,FALSE,1,0,5,3,1,4,159,onada,Catalan,Sounds/cat_onada.mp3,2020-06-05_15h36.04.575,TranslationElicitation_eng-prolific,3.2.4,Win32,60,5eca8f766efc6002c151bb05,5.450000048,,,,,,
,,,,,,,,,,,,,,,,,,,,,,,,,,,,,,,,,,,,,,,,,,,,,1,0,5,3,1,4,159,onada,Catalan,Sounds/cat_onada.mp3,2020-06-05_15h36.04.575,TranslationElicitation_eng-prolific,3.2.4,Win32,60,5eca8f766efc6002c151bb05,,,,,,,
,,,,,,,,,,,,,,,,,,,,,,,,,,,,,,,,,,,,,,,,,r,2.499000072,R,FALSE,1,0,5,2,1,4,147,jaqueta,Catalan,Sounds/cat_jaqueta.mp3,2020-06-05_15h36.04.575,TranslationElicitation_eng-prolific,3.2.4,Win32,60,5eca8f766efc6002c151bb05,,,,,,,
,,,,,,,,,,,,,,,,,,,,,,,,,,,,,,,,,,,,,,,,,o,2.68200016,RO,FALSE,1,0,5,2,1,4,147,jaqueta,Catalan,Sounds/cat_jaqueta.mp3,2020-06-05_15h36.04.575,TranslationElicitation_eng-prolific,3.2.4,Win32,60,5eca8f766efc6002c151bb05,,,,,,,
,,,,,,,,,,,,,,,,,,,,,,,,,,,,,,,,,,,,,,,,,c,2.84800005,ROC,FALSE,1,0,5,2,1,4,147,jaqueta,Catalan,Sounds/cat_jaqueta.mp3,2020-06-05_15h36.04.575,TranslationElicitation_eng-prolific,3.2.4,Win32,60,5eca8f766efc6002c151bb05,,,,,,,
,,,,,,,,,,,,,,,,,,,,,,,,,,,,,,,,,,,,,,,,,k,2.98300004,ROCK,FALSE,1,0,5,2,1,4,147,jaqueta,Catalan,Sounds/cat_jaqueta.mp3,2020-06-05_15h36.04.575,TranslationElicitation_eng-prolific,3.2.4,Win32,60,5eca8f766efc6002c151bb05,,,,,,,
,,,,,,,,,,,,,,,,,,,,,,,,,,,,,,,,,,,,,,,,,e,3.11500001,ROCKE,FALSE,1,0,5,2,1,4,147,jaqueta,Catalan,Sounds/cat_jaqueta.mp3,2020-06-05_15h36.04.575,TranslationElicitation_eng-prolific,3.2.4,Win32,60,5eca8f766efc6002c151bb05,,,,,,,
,,,,,,,,,,,,,,,,,,,,,,,,,,,,,,,,,,,,,,,,,t,3.215000153,ROCKET,FALSE,1,0,5,2,1,4,147,jaqueta,Catalan,Sounds/cat_jaqueta.mp3,2020-06-05_15h36.04.575,TranslationElicitation_eng-prolific,3.2.4,Win32,60,5eca8f766efc6002c151bb05,,,,,,,
,,,,,,,,,,,,,,,,,,,,,,,,,,,,,,,,,,,,,,,,,return,3.6650002,ROCKET,FALSE,1,0,5,2,1,4,147,jaqueta,Catalan,Sounds/cat_jaqueta.mp3,2020-06-05_15h36.04.575,TranslationElicitation_eng-prolific,3.2.4,Win32,60,5eca8f766efc6002c151bb05,3.6650002,,,,,,
,,,,,,,,,,,,,,,,,,,,,,,,,,,,,,,,,,,,,,,,,,,,,1,0,5,2,1,4,147,jaqueta,Catalan,Sounds/cat_jaqueta.mp3,2020-06-05_15h36.04.575,TranslationElicitation_eng-prolific,3.2.4,Win32,60,5eca8f766efc6002c151bb05,,,,,,,
,,,,,,,,,,,,,,,,,,,,,,,,,,,,,,,,,,,,,,,,,m,1.96600008,M,FALSE,,,,,,,156,moto,Catalan,Sounds/cat_moto.mp3,2020-06-05_15h36.04.575,TranslationElicitation_eng-prolific,3.2.4,Win32,60,5eca8f766efc6002c151bb05,,1,0,81,49,1,80
,,,,,,,,,,,,,,,,,,,,,,,,,,,,,,,,,,,,,,,,,o,2.187000036,MO,FALSE,,,,,,,156,moto,Catalan,Sounds/cat_moto.mp3,2020-06-05_15h36.04.575,TranslationElicitation_eng-prolific,3.2.4,Win32,60,5eca8f766efc6002c151bb05,,1,0,81,49,1,80
,,,,,,,,,,,,,,,,,,,,,,,,,,,,,,,,,,,,,,,,,u,2.399000168,MOU,FALSE,,,,,,,156,moto,Catalan,Sounds/cat_moto.mp3,2020-06-05_15h36.04.575,TranslationElicitation_eng-prolific,3.2.4,Win32,60,5eca8f766efc6002c151bb05,,1,0,81,49,1,80
,,,,,,,,,,,,,,,,,,,,,,,,,,,,,,,,,,,,,,,,,t,2.549000025,MOUT,FALSE,,,,,,,156,moto,Catalan,Sounds/cat_moto.mp3,2020-06-05_15h36.04.575,TranslationElicitation_eng-prolific,3.2.4,Win32,60,5eca8f766efc6002c151bb05,,1,0,81,49,1,80
,,,,,,,,,,,,,,,,,,,,,,,,,,,,,,,,,,,,,,,,,h,2.683000088,MOUTH,FALSE,,,,,,,156,moto,Catalan,Sounds/cat_moto.mp3,2020-06-05_15h36.04.575,TranslationElicitation_eng-prolific,3.2.4,Win32,60,5eca8f766efc6002c151bb05,,1,0,81,49,1,80
,,,,,,,,,,,,,,,,,,,,,,,,,,,,,,,,,,,,,,,,,return,3.149000168,MOUTH,FALSE,,,,,,,156,moto,Catalan,Sounds/cat_moto.mp3,2020-06-05_15h36.04.575,TranslationElicitation_eng-prolific,3.2.4,Win32,60,5eca8f766efc6002c151bb05,3.149000168,1,0,81,49,1,80
,,,,,,,,,,,,,,,,,,,,,,,,,,,,,,,,,,,,,,,,,,,,,,,,,,,156,moto,Catalan,Sounds/cat_moto.mp3,2020-06-05_15h36.04.575,TranslationElicitation_eng-prolific,3.2.4,Win32,60,5eca8f766efc6002c151bb05,,1,0,81,49,1,80
,,,,,,,,,,,,,,,,,,,,,,,,,,,,,,,,,,,,,,,,,j,5.21600008,J,FALSE,,,,,,,141,gerd,Catalan,Sounds/cat_gerd.mp3,2020-06-05_15h36.04.575,TranslationElicitation_eng-prolific,3.2.4,Win32,60,5eca8f766efc6002c151bb05,,1,0,81,35,1,80
,,,,,,,,,,,,,,,,,,,,,,,,,,,,,,,,,,,,,,,,,a,5.34800005,JA,FALSE,,,,,,,141,gerd,Catalan,Sounds/cat_gerd.mp3,2020-06-05_15h36.04.575,TranslationElicitation_eng-prolific,3.2.4,Win32,60,5eca8f766efc6002c151bb05,,1,0,81,35,1,80
,,,,,,,,,,,,,,,,,,,,,,,,,,,,,,,,,,,,,,,,,m,5.44900012,JAM,FALSE,,,,,,,141,gerd,Catalan,Sounds/cat_gerd.mp3,2020-06-05_15h36.04.575,TranslationElicitation_eng-prolific,3.2.4,Win32,60,5eca8f766efc6002c151bb05,,1,0,81,35,1,80
,,,,,,,,,,,,,,,,,,,,,,,,,,,,,,,,,,,,,,,,,return,5.866000175,JAM,FALSE,,,,,,,141,gerd,Catalan,Sounds/cat_gerd.mp3,2020-06-05_15h36.04.575,TranslationElicitation_eng-prolific,3.2.4,Win32,60,5eca8f766efc6002c151bb05,5.866000175,1,0,81,35,1,80
,,,,,,,,,,,,,,,,,,,,,,,,,,,,,,,,,,,,,,,,,,,,,,,,,,,141,gerd,Catalan,Sounds/cat_gerd.mp3,2020-06-05_15h36.04.575,TranslationElicitation_eng-prolific,3.2.4,Win32,60,5eca8f766efc6002c151bb05,,1,0,81,35,1,80
,,,,,,,,,,,,,,,,,,,,,,,,,,,,,,,,,,,,,,,,,p,3.431999922,P,FALSE,,,,,,,160,orella,Catalan,Sounds/cat_orella.mp3,2020-06-05_15h36.04.575,TranslationElicitation_eng-prolific,3.2.4,Win32,60,5eca8f766efc6002c151bb05,,1,0,81,52,1,80
,,,,,,,,,,,,,,,,,,,,,,,,,,,,,,,,,,,,,,,,,l,3.648999929,PL,FALSE,,,,,,,160,orella,Catalan,Sounds/cat_orella.mp3,2020-06-05_15h36.04.575,TranslationElicitation_eng-prolific,3.2.4,Win32,60,5eca8f766efc6002c151bb05,,1,0,81,52,1,80
,,,,,,,,,,,,,,,,,,,,,,,,,,,,,,,,,,,,,,,,,a,3.731999874,PLA,FALSE,,,,,,,160,orella,Catalan,Sounds/cat_orella.mp3,2020-06-05_15h36.04.575,TranslationElicitation_eng-prolific,3.2.4,Win32,60,5eca8f766efc6002c151bb05,,1,0,81,52,1,80
,,,,,,,,,,,,,,,,,,,,,,,,,,,,,,,,,,,,,,,,,y,3.815999985,PLAY,FALSE,,,,,,,160,orella,Catalan,Sounds/cat_orella.mp3,2020-06-05_15h36.04.575,TranslationElicitation_eng-prolific,3.2.4,Win32,60,5eca8f766efc6002c151bb05,,1,0,81,52,1,80
,,,,,,,,,,,,,,,,,,,,,,,,,,,,,,,,,,,,,,,,,e,3.964999914,PLAYE,FALSE,,,,,,,160,orella,Catalan,Sounds/cat_orella.mp3,2020-06-05_15h36.04.575,TranslationElicitation_eng-prolific,3.2.4,Win32,60,5eca8f766efc6002c151bb05,,1,0,81,52,1,80
,,,,,,,,,,,,,,,,,,,,,,,,,,,,,,,,,,,,,,,,,r,4.065999985,PLAYER,FALSE,,,,,,,160,orella,Catalan,Sounds/cat_orella.mp3,2020-06-05_15h36.04.575,TranslationElicitation_eng-prolific,3.2.4,Win32,60,5eca8f766efc6002c151bb05,,1,0,81,52,1,80
,,,,,,,,,,,,,,,,,,,,,,,,,,,,,,,,,,,,,,,,,return,4.531999826,PLAYER,FALSE,,,,,,,160,orella,Catalan,Sounds/cat_orella.mp3,2020-06-05_15h36.04.575,TranslationElicitation_eng-prolific,3.2.4,Win32,60,5eca8f766efc6002c151bb05,4.531999826,1,0,81,52,1,80
,,,,,,,,,,,,,,,,,,,,,,,,,,,,,,,,,,,,,,,,,,,,,,,,,,,160,orella,Catalan,Sounds/cat_orella.mp3,2020-06-05_15h36.04.575,TranslationElicitation_eng-prolific,3.2.4,Win32,60,5eca8f766efc6002c151bb05,,1,0,81,52,1,80
,,,,,,,,,,,,,,,,,,,,,,,,,,,,,,,,,,,,,,,,,g,2.350999832,G,FALSE,,,,,,,145,got,Catalan,Sounds/cat_got.mp3,2020-06-05_15h36.04.575,TranslationElicitation_eng-prolific,3.2.4,Win32,60,5eca8f766efc6002c151bb05,,1,0,81,39,1,80
,,,,,,,,,,,,,,,,,,,,,,,,,,,,,,,,,,,,,,,,,o,2.549999952,GO,FALSE,,,,,,,145,got,Catalan,Sounds/cat_got.mp3,2020-06-05_15h36.04.575,TranslationElicitation_eng-prolific,3.2.4,Win32,60,5eca8f766efc6002c151bb05,,1,0,81,39,1,80
,,,,,,,,,,,,,,,,,,,,,,,,,,,,,,,,,,,,,,,,,d,2.717000008,GOD,FALSE,,,,,,,145,got,Catalan,Sounds/cat_got.mp3,2020-06-05_15h36.04.575,TranslationElicitation_eng-prolific,3.2.4,Win32,60,5eca8f766efc6002c151bb05,,1,0,81,39,1,80
,,,,,,,,,,,,,,,,,,,,,,,,,,,,,,,,,,,,,,,,,return,3.26699996,GOD,FALSE,,,,,,,145,got,Catalan,Sounds/cat_got.mp3,2020-06-05_15h36.04.575,TranslationElicitation_eng-prolific,3.2.4,Win32,60,5eca8f766efc6002c151bb05,3.26699996,1,0,81,39,1,80
,,,,,,,,,,,,,,,,,,,,,,,,,,,,,,,,,,,,,,,,,,,,,,,,,,,145,got,Catalan,Sounds/cat_got.mp3,2020-06-05_15h36.04.575,TranslationElicitation_eng-prolific,3.2.4,Win32,60,5eca8f766efc6002c151bb05,,1,0,81,39,1,80
,,,,,,,,,,,,,,,,,,,,,,,,,,,,,,,,,,,,,,,,,p,1.766000032,P,FALSE,,,,,,,163,papallona,Catalan,Sounds/cat_papallona.mp3,2020-06-05_15h36.04.575,TranslationElicitation_eng-prolific,3.2.4,Win32,60,5eca8f766efc6002c151bb05,,1,0,81,55,1,80
,,,,,,,,,,,,,,,,,,,,,,,,,,,,,,,,,,,,,,,,,a,1.850000143,PA,FALSE,,,,,,,163,papallona,Catalan,Sounds/cat_papallona.mp3,2020-06-05_15h36.04.575,TranslationElicitation_eng-prolific,3.2.4,Win32,60,5eca8f766efc6002c151bb05,,1,0,81,55,1,80
,,,,,,,,,,,,,,,,,,,,,,,,,,,,,,,,,,,,,,,,,p,2.067000151,PAP,FALSE,,,,,,,163,papallona,Catalan,Sounds/cat_papallona.mp3,2020-06-05_15h36.04.575,TranslationElicitation_eng-prolific,3.2.4,Win32,60,5eca8f766efc6002c151bb05,,1,0,81,55,1,80
,,,,,,,,,,,,,,,,,,,,,,,,,,,,,,,,,,,,,,,,,backspace,2.5,PA,TRUE,,,,,,,163,papallona,Catalan,Sounds/cat_papallona.mp3,2020-06-05_15h36.04.575,TranslationElicitation_eng-prolific,3.2.4,Win32,60,5eca8f766efc6002c151bb05,,1,0,81,55,1,80
,,,,,,,,,,,,,,,,,,,,,,,,,,,,,,,,,,,,,,,,,backspace,2.684000015,P,TRUE,,,,,,,163,papallona,Catalan,Sounds/cat_papallona.mp3,2020-06-05_15h36.04.575,TranslationElicitation_eng-prolific,3.2.4,Win32,60,5eca8f766efc6002c151bb05,,1,0,81,55,1,80
,,,,,,,,,,,,,,,,,,,,,,,,,,,,,,,,,,,,,,,,,e,2.817000151,PE,TRUE,,,,,,,163,papallona,Catalan,Sounds/cat_papallona.mp3,2020-06-05_15h36.04.575,TranslationElicitation_eng-prolific,3.2.4,Win32,60,5eca8f766efc6002c151bb05,,1,0,81,55,1,80
,,,,,,,,,,,,,,,,,,,,,,,,,,,,,,,,,,,,,,,,,r,2.901000023,PER,TRUE,,,,,,,163,papallona,Catalan,Sounds/cat_papallona.mp3,2020-06-05_15h36.04.575,TranslationElicitation_eng-prolific,3.2.4,Win32,60,5eca8f766efc6002c151bb05,,1,0,81,55,1,80
,,,,,,,,,,,,,,,,,,,,,,,,,,,,,,,,,,,,,,,,,backspace,3.584000111,PE,TRUE,,,,,,,163,papallona,Catalan,Sounds/cat_papallona.mp3,2020-06-05_15h36.04.575,TranslationElicitation_eng-prolific,3.2.4,Win32,60,5eca8f766efc6002c151bb05,,1,0,81,55,1,80
,,,,,,,,,,,,,,,,,,,,,,,,,,,,,,,,,,,,,,,,,p,3.767000198,PEP,TRUE,,,,,,,163,papallona,Catalan,Sounds/cat_papallona.mp3,2020-06-05_15h36.04.575,TranslationElicitation_eng-prolific,3.2.4,Win32,60,5eca8f766efc6002c151bb05,,1,0,81,55,1,80
,,,,,,,,,,,,,,,,,,,,,,,,,,,,,,,,,,,,,,,,,e,3.917000055,PEPE,TRUE,,,,,,,163,papallona,Catalan,Sounds/cat_papallona.mp3,2020-06-05_15h36.04.575,TranslationElicitation_eng-prolific,3.2.4,Win32,60,5eca8f766efc6002c151bb05,,1,0,81,55,1,80
,,,,,,,,,,,,,,,,,,,,,,,,,,,,,,,,,,,,,,,,,r,3.98300004,PEPER,TRUE,,,,,,,163,papallona,Catalan,Sounds/cat_papallona.mp3,2020-06-05_15h36.04.575,TranslationElicitation_eng-prolific,3.2.4,Win32,60,5eca8f766efc6002c151bb05,,1,0,81,55,1,80
,,,,,,,,,,,,,,,,,,,,,,,,,,,,,,,,,,,,,,,,,o,5.001000166,PEPERO,TRUE,,,,,,,163,papallona,Catalan,Sounds/cat_papallona.mp3,2020-06-05_15h36.04.575,TranslationElicitation_eng-prolific,3.2.4,Win32,60,5eca8f766efc6002c151bb05,,1,0,81,55,1,80
,,,,,,,,,,,,,,,,,,,,,,,,,,,,,,,,,,,,,,,,,n,5.25,PEPERON,TRUE,,,,,,,163,papallona,Catalan,Sounds/cat_papallona.mp3,2020-06-05_15h36.04.575,TranslationElicitation_eng-prolific,3.2.4,Win32,60,5eca8f766efc6002c151bb05,,1,0,81,55,1,80
,,,,,,,,,,,,,,,,,,,,,,,,,,,,,,,,,,,,,,,,,i,5.48300004,PEPERONI,TRUE,,,,,,,163,papallona,Catalan,Sounds/cat_papallona.mp3,2020-06-05_15h36.04.575,TranslationElicitation_eng-prolific,3.2.4,Win32,60,5eca8f766efc6002c151bb05,,1,0,81,55,1,80
,,,,,,,,,,,,,,,,,,,,,,,,,,,,,,,,,,,,,,,,,backspace,6.068000078,PEPERON,TRUE,,,,,,,163,papallona,Catalan,Sounds/cat_papallona.mp3,2020-06-05_15h36.04.575,TranslationElicitation_eng-prolific,3.2.4,Win32,60,5eca8f766efc6002c151bb05,,1,0,81,55,1,80
,,,,,,,,,,,,,,,,,,,,,,,,,,,,,,,,,,,,,,,,,backspace,6.23300004,PEPERO,TRUE,,,,,,,163,papallona,Catalan,Sounds/cat_papallona.mp3,2020-06-05_15h36.04.575,TranslationElicitation_eng-prolific,3.2.4,Win32,60,5eca8f766efc6002c151bb05,,1,0,81,55,1,80
,,,,,,,,,,,,,,,,,,,,,,,,,,,,,,,,,,,,,,,,,backspace,6.420000076,PEPER,TRUE,,,,,,,163,papallona,Catalan,Sounds/cat_papallona.mp3,2020-06-05_15h36.04.575,TranslationElicitation_eng-prolific,3.2.4,Win32,60,5eca8f766efc6002c151bb05,,1,0,81,55,1,80
,,,,,,,,,,,,,,,,,,,,,,,,,,,,,,,,,,,,,,,,,backspace,6.617000103,PEPE,TRUE,,,,,,,163,papallona,Catalan,Sounds/cat_papallona.mp3,2020-06-05_15h36.04.575,TranslationElicitation_eng-prolific,3.2.4,Win32,60,5eca8f766efc6002c151bb05,,1,0,81,55,1,80
,,,,,,,,,,,,,,,,,,,,,,,,,,,,,,,,,,,,,,,,,backspace,6.784000158,PEP,TRUE,,,,,,,163,papallona,Catalan,Sounds/cat_papallona.mp3,2020-06-05_15h36.04.575,TranslationElicitation_eng-prolific,3.2.4,Win32,60,5eca8f766efc6002c151bb05,,1,0,81,55,1,80
,,,,,,,,,,,,,,,,,,,,,,,,,,,,,,,,,,,,,,,,,p,7.183000088,PEPP,TRUE,,,,,,,163,papallona,Catalan,Sounds/cat_papallona.mp3,2020-06-05_15h36.04.575,TranslationElicitation_eng-prolific,3.2.4,Win32,60,5eca8f766efc6002c151bb05,,1,0,81,55,1,80
,,,,,,,,,,,,,,,,,,,,,,,,,,,,,,,,,,,,,,,,,e,7.282999992,PEPPE,TRUE,,,,,,,163,papallona,Catalan,Sounds/cat_papallona.mp3,2020-06-05_15h36.04.575,TranslationElicitation_eng-prolific,3.2.4,Win32,60,5eca8f766efc6002c151bb05,,1,0,81,55,1,80
,,,,,,,,,,,,,,,,,,,,,,,,,,,,,,,,,,,,,,,,,r,7.749000072,PEPPER,TRUE,,,,,,,163,papallona,Catalan,Sounds/cat_papallona.mp3,2020-06-05_15h36.04.575,TranslationElicitation_eng-prolific,3.2.4,Win32,60,5eca8f766efc6002c151bb05,,1,0,81,55,1,80
,,,,,,,,,,,,,,,,,,,,,,,,,,,,,,,,,,,,,,,,,o,8.46600008,PEPPERO,TRUE,,,,,,,163,papallona,Catalan,Sounds/cat_papallona.mp3,2020-06-05_15h36.04.575,TranslationElicitation_eng-prolific,3.2.4,Win32,60,5eca8f766efc6002c151bb05,,1,0,81,55,1,80
,,,,,,,,,,,,,,,,,,,,,,,,,,,,,,,,,,,,,,,,,n,8.683000088,PEPPERON,TRUE,,,,,,,163,papallona,Catalan,Sounds/cat_papallona.mp3,2020-06-05_15h36.04.575,TranslationElicitation_eng-prolific,3.2.4,Win32,60,5eca8f766efc6002c151bb05,,1,0,81,55,1,80
,,,,,,,,,,,,,,,,,,,,,,,,,,,,,,,,,,,,,,,,,i,8.850000143,PEPPERONI,TRUE,,,,,,,163,papallona,Catalan,Sounds/cat_papallona.mp3,2020-06-05_15h36.04.575,TranslationElicitation_eng-prolific,3.2.4,Win32,60,5eca8f766efc6002c151bb05,,1,0,81,55,1,80
,,,,,,,,,,,,,,,,,,,,,,,,,,,,,,,,,,,,,,,,,return,9.300000191,PEPPERONI,TRUE,,,,,,,163,papallona,Catalan,Sounds/cat_papallona.mp3,2020-06-05_15h36.04.575,TranslationElicitation_eng-prolific,3.2.4,Win32,60,5eca8f766efc6002c151bb05,9.300000191,1,0,81,55,1,80
,,,,,,,,,,,,,,,,,,,,,,,,,,,,,,,,,,,,,,,,,,,,,,,,,,,163,papallona,Catalan,Sounds/cat_papallona.mp3,2020-06-05_15h36.04.575,TranslationElicitation_eng-prolific,3.2.4,Win32,60,5eca8f766efc6002c151bb05,,1,0,81,55,1,80
,,,,,,,,,,,,,,,,,,,,,,,,,,,,,,,,,,,,,,,,,p,2.666999817,P,FALSE,,,,,,,162,pa,Catalan,Sounds/cat_pa.mp3,2020-06-05_15h36.04.575,TranslationElicitation_eng-prolific,3.2.4,Win32,60,5eca8f766efc6002c151bb05,,1,0,81,54,1,80
,,,,,,,,,,,,,,,,,,,,,,,,,,,,,,,,,,,,,,,,,i,2.899999857,PI,FALSE,,,,,,,162,pa,Catalan,Sounds/cat_pa.mp3,2020-06-05_15h36.04.575,TranslationElicitation_eng-prolific,3.2.4,Win32,60,5eca8f766efc6002c151bb05,,1,0,81,54,1,80
,,,,,,,,,,,,,,,,,,,,,,,,,,,,,,,,,,,,,,,,,e,3,PIE,FALSE,,,,,,,162,pa,Catalan,Sounds/cat_pa.mp3,2020-06-05_15h36.04.575,TranslationElicitation_eng-prolific,3.2.4,Win32,60,5eca8f766efc6002c151bb05,,1,0,81,54,1,80
,,,,,,,,,,,,,,,,,,,,,,,,,,,,,,,,,,,,,,,,,return,3.265999794,PIE,FALSE,,,,,,,162,pa,Catalan,Sounds/cat_pa.mp3,2020-06-05_15h36.04.575,TranslationElicitation_eng-prolific,3.2.4,Win32,60,5eca8f766efc6002c151bb05,3.265999794,1,0,81,54,1,80
,,,,,,,,,,,,,,,,,,,,,,,,,,,,,,,,,,,,,,,,,,,,,,,,,,,162,pa,Catalan,Sounds/cat_pa.mp3,2020-06-05_15h36.04.575,TranslationElicitation_eng-prolific,3.2.4,Win32,60,5eca8f766efc6002c151bb05,,1,0,81,54,1,80
,,,,,,,,,,,,,,,,,,,,,,,,,,,,,,,,,,,,,,,,,p,1.767000198,P,FALSE,,,,,,,167,pingui,Catalan,Sounds/cat_pingui.mp3,2020-06-05_15h36.04.575,TranslationElicitation_eng-prolific,3.2.4,Win32,60,5eca8f766efc6002c151bb05,,1,0,81,59,1,80
,,,,,,,,,,,,,,,,,,,,,,,,,,,,,,,,,,,,,,,,,e,1.917000055,PE,FALSE,,,,,,,167,pingui,Catalan,Sounds/cat_pingui.mp3,2020-06-05_15h36.04.575,TranslationElicitation_eng-prolific,3.2.4,Win32,60,5eca8f766efc6002c151bb05,,1,0,81,59,1,80
,,,,,,,,,,,,,,,,,,,,,,,,,,,,,,,,,,,,,,,,,n,2.167000055,PEN,FALSE,,,,,,,167,pingui,Catalan,Sounds/cat_pingui.mp3,2020-06-05_15h36.04.575,TranslationElicitation_eng-prolific,3.2.4,Win32,60,5eca8f766efc6002c151bb05,,1,0,81,59,1,80
,,,,,,,,,,,,,,,,,,,,,,,,,,,,,,,,,,,,,,,,,g,2.534000158,PENG,FALSE,,,,,,,167,pingui,Catalan,Sounds/cat_pingui.mp3,2020-06-05_15h36.04.575,TranslationElicitation_eng-prolific,3.2.4,Win32,60,5eca8f766efc6002c151bb05,,1,0,81,59,1,80
,,,,,,,,,,,,,,,,,,,,,,,,,,,,,,,,,,,,,,,,,u,2.667000055,PENGU,FALSE,,,,,,,167,pingui,Catalan,Sounds/cat_pingui.mp3,2020-06-05_15h36.04.575,TranslationElicitation_eng-prolific,3.2.4,Win32,60,5eca8f766efc6002c151bb05,,1,0,81,59,1,80
,,,,,,,,,,,,,,,,,,,,,,,,,,,,,,,,,,,,,,,,,i,2.885000229,PENGUI,FALSE,,,,,,,167,pingui,Catalan,Sounds/cat_pingui.mp3,2020-06-05_15h36.04.575,TranslationElicitation_eng-prolific,3.2.4,Win32,60,5eca8f766efc6002c151bb05,,1,0,81,59,1,80
,,,,,,,,,,,,,,,,,,,,,,,,,,,,,,,,,,,,,,,,,n,3.150000095,PENGUIN,FALSE,,,,,,,167,pingui,Catalan,Sounds/cat_pingui.mp3,2020-06-05_15h36.04.575,TranslationElicitation_eng-prolific,3.2.4,Win32,60,5eca8f766efc6002c151bb05,,1,0,81,59,1,80
,,,,,,,,,,,,,,,,,,,,,,,,,,,,,,,,,,,,,,,,,return,3.584000111,PENGUIN,FALSE,,,,,,,167,pingui,Catalan,Sounds/cat_pingui.mp3,2020-06-05_15h36.04.575,TranslationElicitation_eng-prolific,3.2.4,Win32,60,5eca8f766efc6002c151bb05,3.584000111,1,0,81,59,1,80
,,,,,,,,,,,,,,,,,,,,,,,,,,,,,,,,,,,,,,,,,,,,,,,,,,,167,pingui,Catalan,Sounds/cat_pingui.mp3,2020-06-05_15h36.04.575,TranslationElicitation_eng-prolific,3.2.4,Win32,60,5eca8f766efc6002c151bb05,,1,0,81,59,1,80
,,,,,,,,,,,,,,,,,,,,,,,,,,,,,,,,,,,,,,,,,b,2.167000055,B,FALSE,,,,,,,166,peu,Catalan,Sounds/cat_peu.mp3,2020-06-05_15h36.04.575,TranslationElicitation_eng-prolific,3.2.4,Win32,60,5eca8f766efc6002c151bb05,,1,0,81,58,1,80
,,,,,,,,,,,,,,,,,,,,,,,,,,,,,,,,,,,,,,,,,e,2.434000015,BE,FALSE,,,,,,,166,peu,Catalan,Sounds/cat_peu.mp3,2020-06-05_15h36.04.575,TranslationElicitation_eng-prolific,3.2.4,Win32,60,5eca8f766efc6002c151bb05,,1,0,81,58,1,80
,,,,,,,,,,,,,,,,,,,,,,,,,,,,,,,,,,,,,,,,,a,2.900000095,BEA,FALSE,,,,,,,166,peu,Catalan,Sounds/cat_peu.mp3,2020-06-05_15h36.04.575,TranslationElicitation_eng-prolific,3.2.4,Win32,60,5eca8f766efc6002c151bb05,,1,0,81,58,1,80
,,,,,,,,,,,,,,,,,,,,,,,,,,,,,,,,,,,,,,,,,r,2.967999935,BEAR,FALSE,,,,,,,166,peu,Catalan,Sounds/cat_peu.mp3,2020-06-05_15h36.04.575,TranslationElicitation_eng-prolific,3.2.4,Win32,60,5eca8f766efc6002c151bb05,,1,0,81,58,1,80
,,,,,,,,,,,,,,,,,,,,,,,,,,,,,,,,,,,,,,,,,return,3.367000103,BEAR,FALSE,,,,,,,166,peu,Catalan,Sounds/cat_peu.mp3,2020-06-05_15h36.04.575,TranslationElicitation_eng-prolific,3.2.4,Win32,60,5eca8f766efc6002c151bb05,3.367000103,1,0,81,58,1,80
,,,,,,,,,,,,,,,,,,,,,,,,,,,,,,,,,,,,,,,,,,,,,,,,,,,166,peu,Catalan,Sounds/cat_peu.mp3,2020-06-05_15h36.04.575,TranslationElicitation_eng-prolific,3.2.4,Win32,60,5eca8f766efc6002c151bb05,,1,0,81,58,1,80
,,,,,,,,,,,,,,,,,,,,,,,,,,,,,,,,,,,,,,,,,t,4.365999937,T,FALSE,,,,,,,180,tisores,Catalan,Sounds/cat_tisores.mp3,2020-06-05_15h36.04.575,TranslationElicitation_eng-prolific,3.2.4,Win32,60,5eca8f766efc6002c151bb05,,1,0,81,71,1,80
,,,,,,,,,,,,,,,,,,,,,,,,,,,,,,,,,,,,,,,,,backspace,7.382999897,,TRUE,,,,,,,180,tisores,Catalan,Sounds/cat_tisores.mp3,2020-06-05_15h36.04.575,TranslationElicitation_eng-prolific,3.2.4,Win32,60,5eca8f766efc6002c151bb05,,1,0,81,71,1,80
,,,,,,,,,,,,,,,,,,,,,,,,,,,,,,,,,,,,,,,,,backspace,7.582999945,,TRUE,,,,,,,180,tisores,Catalan,Sounds/cat_tisores.mp3,2020-06-05_15h36.04.575,TranslationElicitation_eng-prolific,3.2.4,Win32,60,5eca8f766efc6002c151bb05,,1,0,81,71,1,80
,,,,,,,,,,,,,,,,,,,,,,,,,,,,,,,,,,,,,,,,,b,7.749000072,B,TRUE,,,,,,,180,tisores,Catalan,Sounds/cat_tisores.mp3,2020-06-05_15h36.04.575,TranslationElicitation_eng-prolific,3.2.4,Win32,60,5eca8f766efc6002c151bb05,,1,0,81,71,1,80
,,,,,,,,,,,,,,,,,,,,,,,,,,,,,,,,,,,,,,,,,e,7.948999882,BE,TRUE,,,,,,,180,tisores,Catalan,Sounds/cat_tisores.mp3,2020-06-05_15h36.04.575,TranslationElicitation_eng-prolific,3.2.4,Win32,60,5eca8f766efc6002c151bb05,,1,0,81,71,1,80
,,,,,,,,,,,,,,,,,,,,,,,,,,,,,,,,,,,,,,,,,r,8.016000032,BER,TRUE,,,,,,,180,tisores,Catalan,Sounds/cat_tisores.mp3,2020-06-05_15h36.04.575,TranslationElicitation_eng-prolific,3.2.4,Win32,60,5eca8f766efc6002c151bb05,,1,0,81,71,1,80
,,,,,,,,,,,,,,,,,,,,,,,,,,,,,,,,,,,,,,,,,r,8.198999882,BERR,TRUE,,,,,,,180,tisores,Catalan,Sounds/cat_tisores.mp3,2020-06-05_15h36.04.575,TranslationElicitation_eng-prolific,3.2.4,Win32,60,5eca8f766efc6002c151bb05,,1,0,81,71,1,80
,,,,,,,,,,,,,,,,,,,,,,,,,,,,,,,,,,,,,,,,,y,8.415999889,BERRY,TRUE,,,,,,,180,tisores,Catalan,Sounds/cat_tisores.mp3,2020-06-05_15h36.04.575,TranslationElicitation_eng-prolific,3.2.4,Win32,60,5eca8f766efc6002c151bb05,,1,0,81,71,1,80
,,,,,,,,,,,,,,,,,,,,,,,,,,,,,,,,,,,,,,,,,return,8.565000057,BERRY,TRUE,,,,,,,180,tisores,Catalan,Sounds/cat_tisores.mp3,2020-06-05_15h36.04.575,TranslationElicitation_eng-prolific,3.2.4,Win32,60,5eca8f766efc6002c151bb05,8.565000057,1,0,81,71,1,80
,,,,,,,,,,,,,,,,,,,,,,,,,,,,,,,,,,,,,,,,,,,,,,,,,,,180,tisores,Catalan,Sounds/cat_tisores.mp3,2020-06-05_15h36.04.575,TranslationElicitation_eng-prolific,3.2.4,Win32,60,5eca8f766efc6002c151bb05,,1,0,81,71,1,80
,,,,,,,,,,,,,,,,,,,,,,,,,,,,,,,,,,,,,,,,,b,2.48300004,B,FALSE,,,,,,,113,boca,Catalan,Sounds/cat_boca.mp3,2020-06-05_15h36.04.575,TranslationElicitation_eng-prolific,3.2.4,Win32,60,5eca8f766efc6002c151bb05,,1,0,81,8,1,80
,,,,,,,,,,,,,,,,,,,,,,,,,,,,,,,,,,,,,,,,,o,2.782999992,BO,FALSE,,,,,,,113,boca,Catalan,Sounds/cat_boca.mp3,2020-06-05_15h36.04.575,TranslationElicitation_eng-prolific,3.2.4,Win32,60,5eca8f766efc6002c151bb05,,1,0,81,8,1,80
,,,,,,,,,,,,,,,,,,,,,,,,,,,,,,,,,,,,,,,,,c,3.065999985,BOC,FALSE,,,,,,,113,boca,Catalan,Sounds/cat_boca.mp3,2020-06-05_15h36.04.575,TranslationElicitation_eng-prolific,3.2.4,Win32,60,5eca8f766efc6002c151bb05,,1,0,81,8,1,80
,,,,,,,,,,,,,,,,,,,,,,,,,,,,,,,,,,,,,,,,,a,3.25,BOCA,FALSE,,,,,,,113,boca,Catalan,Sounds/cat_boca.mp3,2020-06-05_15h36.04.575,TranslationElicitation_eng-prolific,3.2.4,Win32,60,5eca8f766efc6002c151bb05,,1,0,81,8,1,80
,,,,,,,,,,,,,,,,,,,,,,,,,,,,,,,,,,,,,,,,,backspace,3.76699996,BOC,TRUE,,,,,,,113,boca,Catalan,Sounds/cat_boca.mp3,2020-06-05_15h36.04.575,TranslationElicitation_eng-prolific,3.2.4,Win32,60,5eca8f766efc6002c151bb05,,1,0,81,8,1,80
,,,,,,,,,,,,,,,,,,,,,,,,,,,,,,,,,,,,,,,,,backspace,3.96600008,BO,TRUE,,,,,,,113,boca,Catalan,Sounds/cat_boca.mp3,2020-06-05_15h36.04.575,TranslationElicitation_eng-prolific,3.2.4,Win32,60,5eca8f766efc6002c151bb05,,1,0,81,8,1,80
,,,,,,,,,,,,,,,,,,,,,,,,,,,,,,,,,,,,,,,,,o,4.731999874,BOO,TRUE,,,,,,,113,boca,Catalan,Sounds/cat_boca.mp3,2020-06-05_15h36.04.575,TranslationElicitation_eng-prolific,3.2.4,Win32,60,5eca8f766efc6002c151bb05,,1,0,81,8,1,80
,,,,,,,,,,,,,,,,,,,,,,,,,,,,,,,,,,,,,,,,,k,4.950000048,BOOK,TRUE,,,,,,,113,boca,Catalan,Sounds/cat_boca.mp3,2020-06-05_15h36.04.575,TranslationElicitation_eng-prolific,3.2.4,Win32,60,5eca8f766efc6002c151bb05,,1,0,81,8,1,80
,,,,,,,,,,,,,,,,,,,,,,,,,,,,,,,,,,,,,,,,,return,5.150000095,BOOK,TRUE,,,,,,,113,boca,Catalan,Sounds/cat_boca.mp3,2020-06-05_15h36.04.575,TranslationElicitation_eng-prolific,3.2.4,Win32,60,5eca8f766efc6002c151bb05,5.150000095,1,0,81,8,1,80
,,,,,,,,,,,,,,,,,,,,,,,,,,,,,,,,,,,,,,,,,,,,,,,,,,,113,boca,Catalan,Sounds/cat_boca.mp3,2020-06-05_15h36.04.575,TranslationElicitation_eng-prolific,3.2.4,Win32,60,5eca8f766efc6002c151bb05,,1,0,81,8,1,80
,,,,,,,,,,,,,,,,,,,,,,,,,,,,,,,,,,,,,,,,,n,3.598999977,N,FALSE,,,,,,,158,nas,Catalan,Sounds/cat_nas.mp3,2020-06-05_15h36.04.575,TranslationElicitation_eng-prolific,3.2.4,Win32,60,5eca8f766efc6002c151bb05,,1,0,81,51,1,80
,,,,,,,,,,,,,,,,,,,,,,,,,,,,,,,,,,,,,,,,,a,4.349999905,NA,FALSE,,,,,,,158,nas,Catalan,Sounds/cat_nas.mp3,2020-06-05_15h36.04.575,TranslationElicitation_eng-prolific,3.2.4,Win32,60,5eca8f766efc6002c151bb05,,1,0,81,51,1,80
,,,,,,,,,,,,,,,,,,,,,,,,,,,,,,,,,,,,,,,,,s,4.448999882,NAS,FALSE,,,,,,,158,nas,Catalan,Sounds/cat_nas.mp3,2020-06-05_15h36.04.575,TranslationElicitation_eng-prolific,3.2.4,Win32,60,5eca8f766efc6002c151bb05,,1,0,81,51,1,80
,,,,,,,,,,,,,,,,,,,,,,,,,,,,,,,,,,,,,,,,,h,4.715999842,NASH,FALSE,,,,,,,158,nas,Catalan,Sounds/cat_nas.mp3,2020-06-05_15h36.04.575,TranslationElicitation_eng-prolific,3.2.4,Win32,60,5eca8f766efc6002c151bb05,,1,0,81,51,1,80
,,,,,,,,,,,,,,,,,,,,,,,,,,,,,,,,,,,,,,,,,backspace,5.298999786,NAS,TRUE,,,,,,,158,nas,Catalan,Sounds/cat_nas.mp3,2020-06-05_15h36.04.575,TranslationElicitation_eng-prolific,3.2.4,Win32,60,5eca8f766efc6002c151bb05,,1,0,81,51,1,80
,,,,,,,,,,,,,,,,,,,,,,,,,,,,,,,,,,,,,,,,,backspace,5.548999786,NA,TRUE,,,,,,,158,nas,Catalan,Sounds/cat_nas.mp3,2020-06-05_15h36.04.575,TranslationElicitation_eng-prolific,3.2.4,Win32,60,5eca8f766efc6002c151bb05,,1,0,81,51,1,80
,,,,,,,,,,,,,,,,,,,,,,,,,,,,,,,,,,,,,,,,,backspace,5.732999802,N,TRUE,,,,,,,158,nas,Catalan,Sounds/cat_nas.mp3,2020-06-05_15h36.04.575,TranslationElicitation_eng-prolific,3.2.4,Win32,60,5eca8f766efc6002c151bb05,,1,0,81,51,1,80
,,,,,,,,,,,,,,,,,,,,,,,,,,,,,,,,,,,,,,,,,e,6.781999826,NE,TRUE,,,,,,,158,nas,Catalan,Sounds/cat_nas.mp3,2020-06-05_15h36.04.575,TranslationElicitation_eng-prolific,3.2.4,Win32,60,5eca8f766efc6002c151bb05,,1,0,81,51,1,80
,,,,,,,,,,,,,,,,,,,,,,,,,,,,,,,,,,,,,,,,,t,6.882999897,NET,TRUE,,,,,,,158,nas,Catalan,Sounds/cat_nas.mp3,2020-06-05_15h36.04.575,TranslationElicitation_eng-prolific,3.2.4,Win32,60,5eca8f766efc6002c151bb05,,1,0,81,51,1,80
,,,,,,,,,,,,,,,,,,,,,,,,,,,,,,,,,,,,,,,,,return,7.115999937,NET,TRUE,,,,,,,158,nas,Catalan,Sounds/cat_nas.mp3,2020-06-05_15h36.04.575,TranslationElicitation_eng-prolific,3.2.4,Win32,60,5eca8f766efc6002c151bb05,7.115999937,1,0,81,51,1,80
,,,,,,,,,,,,,,,,,,,,,,,,,,,,,,,,,,,,,,,,,,,,,,,,,,,158,nas,Catalan,Sounds/cat_nas.mp3,2020-06-05_15h36.04.575,TranslationElicitation_eng-prolific,3.2.4,Win32,60,5eca8f766efc6002c151bb05,,1,0,81,51,1,80
,,,,,,,,,,,,,,,,,,,,,,,,,,,,,,,,,,,,,,,,,l,1.799000025,L,FALSE,,,,,,,149,llibre,Catalan,Sounds/cat_llibre.mp3,2020-06-05_15h36.04.575,TranslationElicitation_eng-prolific,3.2.4,Win32,60,5eca8f766efc6002c151bb05,,1,0,81,42,1,80
,,,,,,,,,,,,,,,,,,,,,,,,,,,,,,,,,,,,,,,,,e,1.883000135,LE,FALSE,,,,,,,149,llibre,Catalan,Sounds/cat_llibre.mp3,2020-06-05_15h36.04.575,TranslationElicitation_eng-prolific,3.2.4,Win32,60,5eca8f766efc6002c151bb05,,1,0,81,42,1,80
,,,,,,,,,,,,,,,,,,,,,,,,,,,,,,,,,,,,,,,,,a,2.032999992,LEA,FALSE,,,,,,,149,llibre,Catalan,Sounds/cat_llibre.mp3,2020-06-05_15h36.04.575,TranslationElicitation_eng-prolific,3.2.4,Win32,60,5eca8f766efc6002c151bb05,,1,0,81,42,1,80
,,,,,,,,,,,,,,,,,,,,,,,,,,,,,,,,,,,,,,,,,f,2.131999969,LEAF,FALSE,,,,,,,149,llibre,Catalan,Sounds/cat_llibre.mp3,2020-06-05_15h36.04.575,TranslationElicitation_eng-prolific,3.2.4,Win32,60,5eca8f766efc6002c151bb05,,1,0,81,42,1,80
,,,,,,,,,,,,,,,,,,,,,,,,,,,,,,,,,,,,,,,,,return,2.447999954,LEAF,FALSE,,,,,,,149,llibre,Catalan,Sounds/cat_llibre.mp3,2020-06-05_15h36.04.575,TranslationElicitation_eng-prolific,3.2.4,Win32,60,5eca8f766efc6002c151bb05,2.447999954,1,0,81,42,1,80
,,,,,,,,,,,,,,,,,,,,,,,,,,,,,,,,,,,,,,,,,,,,,,,,,,,149,llibre,Catalan,Sounds/cat_llibre.mp3,2020-06-05_15h36.04.575,TranslationElicitation_eng-prolific,3.2.4,Win32,60,5eca8f766efc6002c151bb05,,1,0,81,42,1,80
,,,,,,,,,,,,,,,,,,,,,,,,,,,,,,,,,,,,,,,,,g,5.049999952,G,FALSE,,,,,,,127,cotxe,Catalan,Sounds/cat_cotxe.mp3,2020-06-05_15h36.04.575,TranslationElicitation_eng-prolific,3.2.4,Win32,60,5eca8f766efc6002c151bb05,,1,0,81,21,1,80
,,,,,,,,,,,,,,,,,,,,,,,,,,,,,,,,,,,,,,,,,a,5.166999817,GA,FALSE,,,,,,,127,cotxe,Catalan,Sounds/cat_cotxe.mp3,2020-06-05_15h36.04.575,TranslationElicitation_eng-prolific,3.2.4,Win32,60,5eca8f766efc6002c151bb05,,1,0,81,21,1,80
,,,,,,,,,,,,,,,,,,,,,,,,,,,,,,,,,,,,,,,,,c,5.349999905,GAC,FALSE,,,,,,,127,cotxe,Catalan,Sounds/cat_cotxe.mp3,2020-06-05_15h36.04.575,TranslationElicitation_eng-prolific,3.2.4,Win32,60,5eca8f766efc6002c151bb05,,1,0,81,21,1,80
,,,,,,,,,,,,,,,,,,,,,,,,,,,,,,,,,,,,,,,,,h,5.53399992,GACH,FALSE,,,,,,,127,cotxe,Catalan,Sounds/cat_cotxe.mp3,2020-06-05_15h36.04.575,TranslationElicitation_eng-prolific,3.2.4,Win32,60,5eca8f766efc6002c151bb05,,1,0,81,21,1,80
,,,,,,,,,,,,,,,,,,,,,,,,,,,,,,,,,,,,,,,,,a,5.665999889,GACHA,FALSE,,,,,,,127,cotxe,Catalan,Sounds/cat_cotxe.mp3,2020-06-05_15h36.04.575,TranslationElicitation_eng-prolific,3.2.4,Win32,60,5eca8f766efc6002c151bb05,,1,0,81,21,1,80
,,,,,,,,,,,,,,,,,,,,,,,,,,,,,,,,,,,,,,,,,return,5.998999834,GACHA,FALSE,,,,,,,127,cotxe,Catalan,Sounds/cat_cotxe.mp3,2020-06-05_15h36.04.575,TranslationElicitation_eng-prolific,3.2.4,Win32,60,5eca8f766efc6002c151bb05,5.998999834,1,0,81,21,1,80
,,,,,,,,,,,,,,,,,,,,,,,,,,,,,,,,,,,,,,,,,,,,,,,,,,,127,cotxe,Catalan,Sounds/cat_cotxe.mp3,2020-06-05_15h36.04.575,TranslationElicitation_eng-prolific,3.2.4,Win32,60,5eca8f766efc6002c151bb05,,1,0,81,21,1,80
,,,,,,,,,,,,,,,,,,,,,,,,,,,,,,,,,,,,,,,,,g,2.914999962,G,FALSE,,,,,,,128,cuc,Catalan,Sounds/cat_cuc.mp3,2020-06-05_15h36.04.575,TranslationElicitation_eng-prolific,3.2.4,Win32,60,5eca8f766efc6002c151bb05,,1,0,81,22,1,80
,,,,,,,,,,,,,,,,,,,,,,,,,,,,,,,,,,,,,,,,,o,3.082000017,GO,FALSE,,,,,,,128,cuc,Catalan,Sounds/cat_cuc.mp3,2020-06-05_15h36.04.575,TranslationElicitation_eng-prolific,3.2.4,Win32,60,5eca8f766efc6002c151bb05,,1,0,81,22,1,80
,,,,,,,,,,,,,,,,,,,,,,,,,,,,,,,,,,,,,,,,,o,3.232000113,GOO,FALSE,,,,,,,128,cuc,Catalan,Sounds/cat_cuc.mp3,2020-06-05_15h36.04.575,TranslationElicitation_eng-prolific,3.2.4,Win32,60,5eca8f766efc6002c151bb05,,1,0,81,22,1,80
,,,,,,,,,,,,,,,,,,,,,,,,,,,,,,,,,,,,,,,,,p,3.430999994,GOOP,FALSE,,,,,,,128,cuc,Catalan,Sounds/cat_cuc.mp3,2020-06-05_15h36.04.575,TranslationElicitation_eng-prolific,3.2.4,Win32,60,5eca8f766efc6002c151bb05,,1,0,81,22,1,80
,,,,,,,,,,,,,,,,,,,,,,,,,,,,,,,,,,,,,,,,,return,3.748000145,GOOP,FALSE,,,,,,,128,cuc,Catalan,Sounds/cat_cuc.mp3,2020-06-05_15h36.04.575,TranslationElicitation_eng-prolific,3.2.4,Win32,60,5eca8f766efc6002c151bb05,3.748000145,1,0,81,22,1,80
,,,,,,,,,,,,,,,,,,,,,,,,,,,,,,,,,,,,,,,,,,,,,,,,,,,128,cuc,Catalan,Sounds/cat_cuc.mp3,2020-06-05_15h36.04.575,TranslationElicitation_eng-prolific,3.2.4,Win32,60,5eca8f766efc6002c151bb05,,1,0,81,22,1,80
,,,,,,,,,,,,,,,,,,,,,,,,,,,,,,,,,,,,,,,,,s,2.316999912,S,FALSE,,,,,,,187,vaixell,Catalan,Sounds/cat_vaixell.mp3,2020-06-05_15h36.04.575,TranslationElicitation_eng-prolific,3.2.4,Win32,60,5eca8f766efc6002c151bb05,,1,0,81,78,1,80
,,,,,,,,,,,,,,,,,,,,,,,,,,,,,,,,,,,,,,,,,h,2.515999794,SH,FALSE,,,,,,,187,vaixell,Catalan,Sounds/cat_vaixell.mp3,2020-06-05_15h36.04.575,TranslationElicitation_eng-prolific,3.2.4,Win32,60,5eca8f766efc6002c151bb05,,1,0,81,78,1,80
,,,,,,,,,,,,,,,,,,,,,,,,,,,,,,,,,,,,,,,,,e,2.682999849,SHE,FALSE,,,,,,,187,vaixell,Catalan,Sounds/cat_vaixell.mp3,2020-06-05_15h36.04.575,TranslationElicitation_eng-prolific,3.2.4,Win32,60,5eca8f766efc6002c151bb05,,1,0,81,78,1,80
,,,,,,,,,,,,,,,,,,,,,,,,,,,,,,,,,,,,,,,,,l,2.916999817,SHEL,FALSE,,,,,,,187,vaixell,Catalan,Sounds/cat_vaixell.mp3,2020-06-05_15h36.04.575,TranslationElicitation_eng-prolific,3.2.4,Win32,60,5eca8f766efc6002c151bb05,,1,0,81,78,1,80
,,,,,,,,,,,,,,,,,,,,,,,,,,,,,,,,,,,,,,,,,l,3.049999952,SHELL,FALSE,,,,,,,187,vaixell,Catalan,Sounds/cat_vaixell.mp3,2020-06-05_15h36.04.575,TranslationElicitation_eng-prolific,3.2.4,Win32,60,5eca8f766efc6002c151bb05,,1,0,81,78,1,80
,,,,,,,,,,,,,,,,,,,,,,,,,,,,,,,,,,,,,,,,,return,3.26699996,SHELL,FALSE,,,,,,,187,vaixell,Catalan,Sounds/cat_vaixell.mp3,2020-06-05_15h36.04.575,TranslationElicitation_eng-prolific,3.2.4,Win32,60,5eca8f766efc6002c151bb05,3.26699996,1,0,81,78,1,80
,,,,,,,,,,,,,,,,,,,,,,,,,,,,,,,,,,,,,,,,,,,,,,,,,,,187,vaixell,Catalan,Sounds/cat_vaixell.mp3,2020-06-05_15h36.04.575,TranslationElicitation_eng-prolific,3.2.4,Win32,60,5eca8f766efc6002c151bb05,,1,0,81,78,1,80
,,,,,,,,,,,,,,,,,,,,,,,,,,,,,,,,,,,,,,,,,w,7.016000032,W,FALSE,,,,,,,105,aigua,Catalan,Sounds/cat_aigua.mp3,2020-06-05_15h36.04.575,TranslationElicitation_eng-prolific,3.2.4,Win32,60,5eca8f766efc6002c151bb05,,1,0,81,1,1,80
,,,,,,,,,,,,,,,,,,,,,,,,,,,,,,,,,,,,,,,,,a,7.082999945,WA,FALSE,,,,,,,105,aigua,Catalan,Sounds/cat_aigua.mp3,2020-06-05_15h36.04.575,TranslationElicitation_eng-prolific,3.2.4,Win32,60,5eca8f766efc6002c151bb05,,1,0,81,1,1,80
,,,,,,,,,,,,,,,,,,,,,,,,,,,,,,,,,,,,,,,,,t,7.231999874,WAT,FALSE,,,,,,,105,aigua,Catalan,Sounds/cat_aigua.mp3,2020-06-05_15h36.04.575,TranslationElicitation_eng-prolific,3.2.4,Win32,60,5eca8f766efc6002c151bb05,,1,0,81,1,1,80
,,,,,,,,,,,,,,,,,,,,,,,,,,,,,,,,,,,,,,,,,backspace,7.632999897,WA,TRUE,,,,,,,105,aigua,Catalan,Sounds/cat_aigua.mp3,2020-06-05_15h36.04.575,TranslationElicitation_eng-prolific,3.2.4,Win32,60,5eca8f766efc6002c151bb05,,1,0,81,1,1,80
,,,,,,,,,,,,,,,,,,,,,,,,,,,,,,,,,,,,,,,,,backspace,7.848999977,W,TRUE,,,,,,,105,aigua,Catalan,Sounds/cat_aigua.mp3,2020-06-05_15h36.04.575,TranslationElicitation_eng-prolific,3.2.4,Win32,60,5eca8f766efc6002c151bb05,,1,0,81,1,1,80
,,,,,,,,,,,,,,,,,,,,,,,,,,,,,,,,,,,,,,,,,backspace,8.049000025,,TRUE,,,,,,,105,aigua,Catalan,Sounds/cat_aigua.mp3,2020-06-05_15h36.04.575,TranslationElicitation_eng-prolific,3.2.4,Win32,60,5eca8f766efc6002c151bb05,,1,0,81,1,1,80
,,,,,,,,,,,,,,,,,,,,,,,,,,,,,,,,,,,,,,,,,i,9.582999945,I,TRUE,,,,,,,105,aigua,Catalan,Sounds/cat_aigua.mp3,2020-06-05_15h36.04.575,TranslationElicitation_eng-prolific,3.2.4,Win32,60,5eca8f766efc6002c151bb05,,1,0,81,1,1,80
,,,,,,,,,,,,,,,,,,,,,,,,,,,,,,,,,,,,,,,,,g,9.832000017,IG,TRUE,,,,,,,105,aigua,Catalan,Sounds/cat_aigua.mp3,2020-06-05_15h36.04.575,TranslationElicitation_eng-prolific,3.2.4,Win32,60,5eca8f766efc6002c151bb05,,1,0,81,1,1,80
,,,,,,,,,,,,,,,,,,,,,,,,,,,,,,,,,,,,,,,,,l,10,IGL,TRUE,,,,,,,105,aigua,Catalan,Sounds/cat_aigua.mp3,2020-06-05_15h36.04.575,TranslationElicitation_eng-prolific,3.2.4,Win32,60,5eca8f766efc6002c151bb05,,1,0,81,1,1,80
,,,,,,,,,,,,,,,,,,,,,,,,,,,,,,,,,,,,,,,,,o,10.19899988,IGLO,TRUE,,,,,,,105,aigua,Catalan,Sounds/cat_aigua.mp3,2020-06-05_15h36.04.575,TranslationElicitation_eng-prolific,3.2.4,Win32,60,5eca8f766efc6002c151bb05,,1,0,81,1,1,80
,,,,,,,,,,,,,,,,,,,,,,,,,,,,,,,,,,,,,,,,,o,10.33299994,IGLOO,TRUE,,,,,,,105,aigua,Catalan,Sounds/cat_aigua.mp3,2020-06-05_15h36.04.575,TranslationElicitation_eng-prolific,3.2.4,Win32,60,5eca8f766efc6002c151bb05,,1,0,81,1,1,80
,,,,,,,,,,,,,,,,,,,,,,,,,,,,,,,,,,,,,,,,,return,10.53299999,IGLOO,TRUE,,,,,,,105,aigua,Catalan,Sounds/cat_aigua.mp3,2020-06-05_15h36.04.575,TranslationElicitation_eng-prolific,3.2.4,Win32,60,5eca8f766efc6002c151bb05,10.53299999,1,0,81,1,1,80
,,,,,,,,,,,,,,,,,,,,,,,,,,,,,,,,,,,,,,,,,,,,,,,,,,,105,aigua,Catalan,Sounds/cat_aigua.mp3,2020-06-05_15h36.04.575,TranslationElicitation_eng-prolific,3.2.4,Win32,60,5eca8f766efc6002c151bb05,,1,0,81,1,1,80
,,,,,,,,,,,,,,,,,,,,,,,,,,,,,,,,,,,,,,,,,f,2.233999968,F,FALSE,,,,,,,134,flor,Catalan,Sounds/cat_flor.mp3,2020-06-05_15h36.04.575,TranslationElicitation_eng-prolific,3.2.4,Win32,60,5eca8f766efc6002c151bb05,,1,0,81,28,1,80
,,,,,,,,,,,,,,,,,,,,,,,,,,,,,,,,,,,,,,,,,l,2.332999945,FL,FALSE,,,,,,,134,flor,Catalan,Sounds/cat_flor.mp3,2020-06-05_15h36.04.575,TranslationElicitation_eng-prolific,3.2.4,Win32,60,5eca8f766efc6002c151bb05,,1,0,81,28,1,80
,,,,,,,,,,,,,,,,,,,,,,,,,,,,,,,,,,,,,,,,,o,2.465999842,FLO,FALSE,,,,,,,134,flor,Catalan,Sounds/cat_flor.mp3,2020-06-05_15h36.04.575,TranslationElicitation_eng-prolific,3.2.4,Win32,60,5eca8f766efc6002c151bb05,,1,0,81,28,1,80
,,,,,,,,,,,,,,,,,,,,,,,,,,,,,,,,,,,,,,,,,w,2.582999945,FLOW,FALSE,,,,,,,134,flor,Catalan,Sounds/cat_flor.mp3,2020-06-05_15h36.04.575,TranslationElicitation_eng-prolific,3.2.4,Win32,60,5eca8f766efc6002c151bb05,,1,0,81,28,1,80
,,,,,,,,,,,,,,,,,,,,,,,,,,,,,,,,,,,,,,,,,return,2.766000032,FLOW,FALSE,,,,,,,134,flor,Catalan,Sounds/cat_flor.mp3,2020-06-05_15h36.04.575,TranslationElicitation_eng-prolific,3.2.4,Win32,60,5eca8f766efc6002c151bb05,2.766000032,1,0,81,28,1,80
,,,,,,,,,,,,,,,,,,,,,,,,,,,,,,,,,,,,,,,,,,,,,,,,,,,134,flor,Catalan,Sounds/cat_flor.mp3,2020-06-05_15h36.04.575,TranslationElicitation_eng-prolific,3.2.4,Win32,60,5eca8f766efc6002c151bb05,,1,0,81,28,1,80
,,,,,,,,,,,,,,,,,,,,,,,,,,,,,,,,,,,,,,,,,u,2.401000023,U,FALSE,,,,,,,186,ungla,Catalan,Sounds/cat_ungla.mp3,2020-06-05_15h36.04.575,TranslationElicitation_eng-prolific,3.2.4,Win32,60,5eca8f766efc6002c151bb05,,1,0,81,77,1,80
,,,,,,,,,,,,,,,,,,,,,,,,,,,,,,,,,,,,,,,,,m,3.217000008,UM,FALSE,,,,,,,186,ungla,Catalan,Sounds/cat_ungla.mp3,2020-06-05_15h36.04.575,TranslationElicitation_eng-prolific,3.2.4,Win32,60,5eca8f766efc6002c151bb05,,1,0,81,77,1,80
,,,,,,,,,,,,,,,,,,,,,,,,,,,,,,,,,,,,,,,,,b,3.467999935,UMB,FALSE,,,,,,,186,ungla,Catalan,Sounds/cat_ungla.mp3,2020-06-05_15h36.04.575,TranslationElicitation_eng-prolific,3.2.4,Win32,60,5eca8f766efc6002c151bb05,,1,0,81,77,1,80
,,,,,,,,,,,,,,,,,,,,,,,,,,,,,,,,,,,,,,,,,r,3.615999937,UMBR,FALSE,,,,,,,186,ungla,Catalan,Sounds/cat_ungla.mp3,2020-06-05_15h36.04.575,TranslationElicitation_eng-prolific,3.2.4,Win32,60,5eca8f766efc6002c151bb05,,1,0,81,77,1,80
,,,,,,,,,,,,,,,,,,,,,,,,,,,,,,,,,,,,,,,,,e,3.717000008,UMBRE,FALSE,,,,,,,186,ungla,Catalan,Sounds/cat_ungla.mp3,2020-06-05_15h36.04.575,TranslationElicitation_eng-prolific,3.2.4,Win32,60,5eca8f766efc6002c151bb05,,1,0,81,77,1,80
,,,,,,,,,,,,,,,,,,,,,,,,,,,,,,,,,,,,,,,,,l,3.883999825,UMBREL,FALSE,,,,,,,186,ungla,Catalan,Sounds/cat_ungla.mp3,2020-06-05_15h36.04.575,TranslationElicitation_eng-prolific,3.2.4,Win32,60,5eca8f766efc6002c151bb05,,1,0,81,77,1,80
,,,,,,,,,,,,,,,,,,,,,,,,,,,,,,,,,,,,,,,,,l,4.032999992,UMBRELL,FALSE,,,,,,,186,ungla,Catalan,Sounds/cat_ungla.mp3,2020-06-05_15h36.04.575,TranslationElicitation_eng-prolific,3.2.4,Win32,60,5eca8f766efc6002c151bb05,,1,0,81,77,1,80
,,,,,,,,,,,,,,,,,,,,,,,,,,,,,,,,,,,,,,,,,a,4.184000015,UMBRELLA,FALSE,,,,,,,186,ungla,Catalan,Sounds/cat_ungla.mp3,2020-06-05_15h36.04.575,TranslationElicitation_eng-prolific,3.2.4,Win32,60,5eca8f766efc6002c151bb05,,1,0,81,77,1,80
,,,,,,,,,,,,,,,,,,,,,,,,,,,,,,,,,,,,,,,,,return,4.382999897,UMBRELLA,FALSE,,,,,,,186,ungla,Catalan,Sounds/cat_ungla.mp3,2020-06-05_15h36.04.575,TranslationElicitation_eng-prolific,3.2.4,Win32,60,5eca8f766efc6002c151bb05,4.382999897,1,0,81,77,1,80
,,,,,,,,,,,,,,,,,,,,,,,,,,,,,,,,,,,,,,,,,,,,,,,,,,,186,ungla,Catalan,Sounds/cat_ungla.mp3,2020-06-05_15h36.04.575,TranslationElicitation_eng-prolific,3.2.4,Win32,60,5eca8f766efc6002c151bb05,,1,0,81,77,1,80
,,,,,,,,,,,,,,,,,,,,,,,,,,,,,,,,,,,,,,,,,g,2.367000103,G,FALSE,,,,,,,139,galleda,Catalan,Sounds/cat_galleda.mp3,2020-06-05_15h36.04.575,TranslationElicitation_eng-prolific,3.2.4,Win32,60,5eca8f766efc6002c151bb05,,1,0,81,33,1,80
,,,,,,,,,,,,,,,,,,,,,,,,,,,,,,,,,,,,,,,,,l,2.467000008,GL,FALSE,,,,,,,139,galleda,Catalan,Sounds/cat_galleda.mp3,2020-06-05_15h36.04.575,TranslationElicitation_eng-prolific,3.2.4,Win32,60,5eca8f766efc6002c151bb05,,1,0,81,33,1,80
,,,,,,,,,,,,,,,,,,,,,,,,,,,,,,,,,,,,,,,,,a,2.583000183,GLA,FALSE,,,,,,,139,galleda,Catalan,Sounds/cat_galleda.mp3,2020-06-05_15h36.04.575,TranslationElicitation_eng-prolific,3.2.4,Win32,60,5eca8f766efc6002c151bb05,,1,0,81,33,1,80
,,,,,,,,,,,,,,,,,,,,,,,,,,,,,,,,,,,,,,,,,s,2.634000063,GLAS,FALSE,,,,,,,139,galleda,Catalan,Sounds/cat_galleda.mp3,2020-06-05_15h36.04.575,TranslationElicitation_eng-prolific,3.2.4,Win32,60,5eca8f766efc6002c151bb05,,1,0,81,33,1,80
,,,,,,,,,,,,,,,,,,,,,,,,,,,,,,,,,,,,,,,,,s,2.834000111,GLASS,FALSE,,,,,,,139,galleda,Catalan,Sounds/cat_galleda.mp3,2020-06-05_15h36.04.575,TranslationElicitation_eng-prolific,3.2.4,Win32,60,5eca8f766efc6002c151bb05,,1,0,81,33,1,80
,,,,,,,,,,,,,,,,,,,,,,,,,,,,,,,,,,,,,,,,,return,2.98300004,GLASS,FALSE,,,,,,,139,galleda,Catalan,Sounds/cat_galleda.mp3,2020-06-05_15h36.04.575,TranslationElicitation_eng-prolific,3.2.4,Win32,60,5eca8f766efc6002c151bb05,2.98300004,1,0,81,33,1,80
,,,,,,,,,,,,,,,,,,,,,,,,,,,,,,,,,,,,,,,,,,,,,,,,,,,139,galleda,Catalan,Sounds/cat_galleda.mp3,2020-06-05_15h36.04.575,TranslationElicitation_eng-prolific,3.2.4,Win32,60,5eca8f766efc6002c151bb05,,1,0,81,33,1,80
,,,,,,,,,,,,,,,,,,,,,,,,,,,,,,,,,,,,,,,,,b,1.899999857,B,FALSE,,,,,,,117,boto,Catalan,Sounds/cat_boto.mp3,2020-06-05_15h36.04.575,TranslationElicitation_eng-prolific,3.2.4,Win32,60,5eca8f766efc6002c151bb05,,1,0,81,12,1,80
,,,,,,,,,,,,,,,,,,,,,,,,,,,,,,,,,,,,,,,,,u,2.61500001,BU,FALSE,,,,,,,117,boto,Catalan,Sounds/cat_boto.mp3,2020-06-05_15h36.04.575,TranslationElicitation_eng-prolific,3.2.4,Win32,60,5eca8f766efc6002c151bb05,,1,0,81,12,1,80
,,,,,,,,,,,,,,,,,,,,,,,,,,,,,,,,,,,,,,,,,t,2.765999794,BUT,FALSE,,,,,,,117,boto,Catalan,Sounds/cat_boto.mp3,2020-06-05_15h36.04.575,TranslationElicitation_eng-prolific,3.2.4,Win32,60,5eca8f766efc6002c151bb05,,1,0,81,12,1,80
,,,,,,,,,,,,,,,,,,,,,,,,,,,,,,,,,,,,,,,,,t,2.898999929,BUTT,FALSE,,,,,,,117,boto,Catalan,Sounds/cat_boto.mp3,2020-06-05_15h36.04.575,TranslationElicitation_eng-prolific,3.2.4,Win32,60,5eca8f766efc6002c151bb05,,1,0,81,12,1,80
,,,,,,,,,,,,,,,,,,,,,,,,,,,,,,,,,,,,,,,,,o,3.015999794,BUTTO,FALSE,,,,,,,117,boto,Catalan,Sounds/cat_boto.mp3,2020-06-05_15h36.04.575,TranslationElicitation_eng-prolific,3.2.4,Win32,60,5eca8f766efc6002c151bb05,,1,0,81,12,1,80
,,,,,,,,,,,,,,,,,,,,,,,,,,,,,,,,,,,,,,,,,c,3.217000008,BUTTOC,FALSE,,,,,,,117,boto,Catalan,Sounds/cat_boto.mp3,2020-06-05_15h36.04.575,TranslationElicitation_eng-prolific,3.2.4,Win32,60,5eca8f766efc6002c151bb05,,1,0,81,12,1,80
,,,,,,,,,,,,,,,,,,,,,,,,,,,,,,,,,,,,,,,,,k,3.349999905,BUTTOCK,FALSE,,,,,,,117,boto,Catalan,Sounds/cat_boto.mp3,2020-06-05_15h36.04.575,TranslationElicitation_eng-prolific,3.2.4,Win32,60,5eca8f766efc6002c151bb05,,1,0,81,12,1,80
,,,,,,,,,,,,,,,,,,,,,,,,,,,,,,,,,,,,,,,,,return,4.032999992,BUTTOCK,FALSE,,,,,,,117,boto,Catalan,Sounds/cat_boto.mp3,2020-06-05_15h36.04.575,TranslationElicitation_eng-prolific,3.2.4,Win32,60,5eca8f766efc6002c151bb05,4.032999992,1,0,81,12,1,80
,,,,,,,,,,,,,,,,,,,,,,,,,,,,,,,,,,,,,,,,,,,,,,,,,,,117,boto,Catalan,Sounds/cat_boto.mp3,2020-06-05_15h36.04.575,TranslationElicitation_eng-prolific,3.2.4,Win32,60,5eca8f766efc6002c151bb05,,1,0,81,12,1,80
,,,,,,,,,,,,,,,,,,,,,,,,,,,,,,,,,,,,,,,,,d,2.448999882,D,FALSE,,,,,,,129,dit,Catalan,Sounds/cat_dit.mp3,2020-06-05_15h36.04.575,TranslationElicitation_eng-prolific,3.2.4,Win32,60,5eca8f766efc6002c151bb05,,1,0,81,23,1,80
,,,,,,,,,,,,,,,,,,,,,,,,,,,,,,,,,,,,,,,,,e,2.664999962,DE,FALSE,,,,,,,129,dit,Catalan,Sounds/cat_dit.mp3,2020-06-05_15h36.04.575,TranslationElicitation_eng-prolific,3.2.4,Win32,60,5eca8f766efc6002c151bb05,,1,0,81,23,1,80
,,,,,,,,,,,,,,,,,,,,,,,,,,,,,,,,,,,,,,,,,e,2.865999937,DEE,FALSE,,,,,,,129,dit,Catalan,Sounds/cat_dit.mp3,2020-06-05_15h36.04.575,TranslationElicitation_eng-prolific,3.2.4,Win32,60,5eca8f766efc6002c151bb05,,1,0,81,23,1,80
,,,,,,,,,,,,,,,,,,,,,,,,,,,,,,,,,,,,,,,,,p,3,DEEP,FALSE,,,,,,,129,dit,Catalan,Sounds/cat_dit.mp3,2020-06-05_15h36.04.575,TranslationElicitation_eng-prolific,3.2.4,Win32,60,5eca8f766efc6002c151bb05,,1,0,81,23,1,80
,,,,,,,,,,,,,,,,,,,,,,,,,,,,,,,,,,,,,,,,,return,3.198999882,DEEP,FALSE,,,,,,,129,dit,Catalan,Sounds/cat_dit.mp3,2020-06-05_15h36.04.575,TranslationElicitation_eng-prolific,3.2.4,Win32,60,5eca8f766efc6002c151bb05,3.198999882,1,0,81,23,1,80
,,,,,,,,,,,,,,,,,,,,,,,,,,,,,,,,,,,,,,,,,,,,,,,,,,,129,dit,Catalan,Sounds/cat_dit.mp3,2020-06-05_15h36.04.575,TranslationElicitation_eng-prolific,3.2.4,Win32,60,5eca8f766efc6002c151bb05,,1,0,81,23,1,80
,,,,,,,,,,,,,,,,,,,,,,,,,,,,,,,,,,,,,,,,,c,1.334000111,C,FALSE,,,,,,,138,galeta,Catalan,Sounds/cat_galeta.mp3,2020-06-05_15h36.04.575,TranslationElicitation_eng-prolific,3.2.4,Win32,60,5eca8f766efc6002c151bb05,,1,0,81,32,1,80
,,,,,,,,,,,,,,,,,,,,,,,,,,,,,,,,,,,,,,,,,o,1.48300004,CO,FALSE,,,,,,,138,galeta,Catalan,Sounds/cat_galeta.mp3,2020-06-05_15h36.04.575,TranslationElicitation_eng-prolific,3.2.4,Win32,60,5eca8f766efc6002c151bb05,,1,0,81,32,1,80
,,,,,,,,,,,,,,,,,,,,,,,,,,,,,,,,,,,,,,,,,l,1.867000103,COL,FALSE,,,,,,,138,galeta,Catalan,Sounds/cat_galeta.mp3,2020-06-05_15h36.04.575,TranslationElicitation_eng-prolific,3.2.4,Win32,60,5eca8f766efc6002c151bb05,,1,0,81,32,1,80
,,,,,,,,,,,,,,,,,,,,,,,,,,,,,,,,,,,,,,,,,l,2.01699996,COLL,FALSE,,,,,,,138,galeta,Catalan,Sounds/cat_galeta.mp3,2020-06-05_15h36.04.575,TranslationElicitation_eng-prolific,3.2.4,Win32,60,5eca8f766efc6002c151bb05,,1,0,81,32,1,80
,,,,,,,,,,,,,,,,,,,,,,,,,,,,,,,,,,,,,,,,,r,2.200000048,COLLR,FALSE,,,,,,,138,galeta,Catalan,Sounds/cat_galeta.mp3,2020-06-05_15h36.04.575,TranslationElicitation_eng-prolific,3.2.4,Win32,60,5eca8f766efc6002c151bb05,,1,0,81,32,1,80
,,,,,,,,,,,,,,,,,,,,,,,,,,,,,,,,,,,,,,,,,backspace,2.775000095,COLL,TRUE,,,,,,,138,galeta,Catalan,Sounds/cat_galeta.mp3,2020-06-05_15h36.04.575,TranslationElicitation_eng-prolific,3.2.4,Win32,60,5eca8f766efc6002c151bb05,,1,0,81,32,1,80
,,,,,,,,,,,,,,,,,,,,,,,,,,,,,,,,,,,,,,,,,e,3.582999945,COLLE,TRUE,,,,,,,138,galeta,Catalan,Sounds/cat_galeta.mp3,2020-06-05_15h36.04.575,TranslationElicitation_eng-prolific,3.2.4,Win32,60,5eca8f766efc6002c151bb05,,1,0,81,32,1,80
,,,,,,,,,,,,,,,,,,,,,,,,,,,,,,,,,,,,,,,,,c,3.683000088,COLLEC,TRUE,,,,,,,138,galeta,Catalan,Sounds/cat_galeta.mp3,2020-06-05_15h36.04.575,TranslationElicitation_eng-prolific,3.2.4,Win32,60,5eca8f766efc6002c151bb05,,1,0,81,32,1,80
,,,,,,,,,,,,,,,,,,,,,,,,,,,,,,,,,,,,,,,,,t,3.967000008,COLLECT,TRUE,,,,,,,138,galeta,Catalan,Sounds/cat_galeta.mp3,2020-06-05_15h36.04.575,TranslationElicitation_eng-prolific,3.2.4,Win32,60,5eca8f766efc6002c151bb05,,1,0,81,32,1,80
,,,,,,,,,,,,,,,,,,,,,,,,,,,,,,,,,,,,,,,,,return,4.23300004,COLLECT,TRUE,,,,,,,138,galeta,Catalan,Sounds/cat_galeta.mp3,2020-06-05_15h36.04.575,TranslationElicitation_eng-prolific,3.2.4,Win32,60,5eca8f766efc6002c151bb05,4.23300004,1,0,81,32,1,80
,,,,,,,,,,,,,,,,,,,,,,,,,,,,,,,,,,,,,,,,,,,,,,,,,,,138,galeta,Catalan,Sounds/cat_galeta.mp3,2020-06-05_15h36.04.575,TranslationElicitation_eng-prolific,3.2.4,Win32,60,5eca8f766efc6002c151bb05,,1,0,81,32,1,80
,,,,,,,,,,,,,,,,,,,,,,,,,,,,,,,,,,,,,,,,,g,2.499000072,G,FALSE,,,,,,,144,gorra,Catalan,Sounds/cat_gorra.mp3,2020-06-05_15h36.04.575,TranslationElicitation_eng-prolific,3.2.4,Win32,60,5eca8f766efc6002c151bb05,,1,0,81,38,1,80
,,,,,,,,,,,,,,,,,,,,,,,,,,,,,,,,,,,,,,,,,o,2.782999992,GO,FALSE,,,,,,,144,gorra,Catalan,Sounds/cat_gorra.mp3,2020-06-05_15h36.04.575,TranslationElicitation_eng-prolific,3.2.4,Win32,60,5eca8f766efc6002c151bb05,,1,0,81,38,1,80
,,,,,,,,,,,,,,,,,,,,,,,,,,,,,,,,,,,,,,,,,r,2.98300004,GOR,FALSE,,,,,,,144,gorra,Catalan,Sounds/cat_gorra.mp3,2020-06-05_15h36.04.575,TranslationElicitation_eng-prolific,3.2.4,Win32,60,5eca8f766efc6002c151bb05,,1,0,81,38,1,80
,,,,,,,,,,,,,,,,,,,,,,,,,,,,,,,,,,,,,,,,,e,3.101000071,GORE,FALSE,,,,,,,144,gorra,Catalan,Sounds/cat_gorra.mp3,2020-06-05_15h36.04.575,TranslationElicitation_eng-prolific,3.2.4,Win32,60,5eca8f766efc6002c151bb05,,1,0,81,38,1,80
,,,,,,,,,,,,,,,,,,,,,,,,,,,,,,,,,,,,,,,,,backspace,3.532999992,GOR,TRUE,,,,,,,144,gorra,Catalan,Sounds/cat_gorra.mp3,2020-06-05_15h36.04.575,TranslationElicitation_eng-prolific,3.2.4,Win32,60,5eca8f766efc6002c151bb05,,1,0,81,38,1,80
,,,,,,,,,,,,,,,,,,,,,,,,,,,,,,,,,,,,,,,,,backspace,3.73300004,GO,TRUE,,,,,,,144,gorra,Catalan,Sounds/cat_gorra.mp3,2020-06-05_15h36.04.575,TranslationElicitation_eng-prolific,3.2.4,Win32,60,5eca8f766efc6002c151bb05,,1,0,81,38,1,80
,,,,,,,,,,,,,,,,,,,,,,,,,,,,,,,,,,,,,,,,,l,4.082999945,GOL,TRUE,,,,,,,144,gorra,Catalan,Sounds/cat_gorra.mp3,2020-06-05_15h36.04.575,TranslationElicitation_eng-prolific,3.2.4,Win32,60,5eca8f766efc6002c151bb05,,1,0,81,38,1,80
,,,,,,,,,,,,,,,,,,,,,,,,,,,,,,,,,,,,,,,,,d,4.19900012,GOLD,TRUE,,,,,,,144,gorra,Catalan,Sounds/cat_gorra.mp3,2020-06-05_15h36.04.575,TranslationElicitation_eng-prolific,3.2.4,Win32,60,5eca8f766efc6002c151bb05,,1,0,81,38,1,80
,,,,,,,,,,,,,,,,,,,,,,,,,,,,,,,,,,,,,,,,,return,5.166000128,GOLD,TRUE,,,,,,,144,gorra,Catalan,Sounds/cat_gorra.mp3,2020-06-05_15h36.04.575,TranslationElicitation_eng-prolific,3.2.4,Win32,60,5eca8f766efc6002c151bb05,5.166000128,1,0,81,38,1,80
,,,,,,,,,,,,,,,,,,,,,,,,,,,,,,,,,,,,,,,,,,,,,,,,,,,144,gorra,Catalan,Sounds/cat_gorra.mp3,2020-06-05_15h36.04.575,TranslationElicitation_eng-prolific,3.2.4,Win32,60,5eca8f766efc6002c151bb05,,1,0,81,38,1,80
,,,,,,,,,,,,,,,,,,,,,,,,,,,,,,,,,,,,,,,,,b,1.931999922,B,FALSE,,,,,,,118,bou,Catalan,Sounds/cat_bou.mp3,2020-06-05_15h36.04.575,TranslationElicitation_eng-prolific,3.2.4,Win32,60,5eca8f766efc6002c151bb05,,1,0,81,13,1,80
,,,,,,,,,,,,,,,,,,,,,,,,,,,,,,,,,,,,,,,,,o,2.148999929,BO,FALSE,,,,,,,118,bou,Catalan,Sounds/cat_bou.mp3,2020-06-05_15h36.04.575,TranslationElicitation_eng-prolific,3.2.4,Win32,60,5eca8f766efc6002c151bb05,,1,0,81,13,1,80
,,,,,,,,,,,,,,,,,,,,,,,,,,,,,,,,,,,,,,,,,backspace,2.431999922,B,TRUE,,,,,,,118,bou,Catalan,Sounds/cat_bou.mp3,2020-06-05_15h36.04.575,TranslationElicitation_eng-prolific,3.2.4,Win32,60,5eca8f766efc6002c151bb05,,1,0,81,13,1,80
,,,,,,,,,,,,,,,,,,,,,,,,,,,,,,,,,,,,,,,,,a,2.549000025,BA,TRUE,,,,,,,118,bou,Catalan,Sounds/cat_bou.mp3,2020-06-05_15h36.04.575,TranslationElicitation_eng-prolific,3.2.4,Win32,60,5eca8f766efc6002c151bb05,,1,0,81,13,1,80
,,,,,,,,,,,,,,,,,,,,,,,,,,,,,,,,,,,,,,,,,l,2.665999889,BAL,TRUE,,,,,,,118,bou,Catalan,Sounds/cat_bou.mp3,2020-06-05_15h36.04.575,TranslationElicitation_eng-prolific,3.2.4,Win32,60,5eca8f766efc6002c151bb05,,1,0,81,13,1,80
,,,,,,,,,,,,,,,,,,,,,,,,,,,,,,,,,,,,,,,,,l,2.799000025,BALL,TRUE,,,,,,,118,bou,Catalan,Sounds/cat_bou.mp3,2020-06-05_15h36.04.575,TranslationElicitation_eng-prolific,3.2.4,Win32,60,5eca8f766efc6002c151bb05,,1,0,81,13,1,80
,,,,,,,,,,,,,,,,,,,,,,,,,,,,,,,,,,,,,,,,,return,2.948999882,BALL,TRUE,,,,,,,118,bou,Catalan,Sounds/cat_bou.mp3,2020-06-05_15h36.04.575,TranslationElicitation_eng-prolific,3.2.4,Win32,60,5eca8f766efc6002c151bb05,2.948999882,1,0,81,13,1,80
,,,,,,,,,,,,,,,,,,,,,,,,,,,,,,,,,,,,,,,,,,,,,,,,,,,118,bou,Catalan,Sounds/cat_bou.mp3,2020-06-05_15h36.04.575,TranslationElicitation_eng-prolific,3.2.4,Win32,60,5eca8f766efc6002c151bb05,,1,0,81,13,1,80
,,,,,,,,,,,,,,,,,,,,,,,,,,,,,,,,,,,,,,,,,p,2.517000198,P,FALSE,,,,,,,172,poma,Catalan,Sounds/cat_poma.mp3,2020-06-05_15h36.04.575,TranslationElicitation_eng-prolific,3.2.4,Win32,60,5eca8f766efc6002c151bb05,,1,0,81,64,1,80
,,,,,,,,,,,,,,,,,,,,,,,,,,,,,,,,,,,,,,,,,o,2.75,PO,FALSE,,,,,,,172,poma,Catalan,Sounds/cat_poma.mp3,2020-06-05_15h36.04.575,TranslationElicitation_eng-prolific,3.2.4,Win32,60,5eca8f766efc6002c151bb05,,1,0,81,64,1,80
,,,,,,,,,,,,,,,,,,,,,,,,,,,,,,,,,,,,,,,,,m,2.950000048,POM,FALSE,,,,,,,172,poma,Catalan,Sounds/cat_poma.mp3,2020-06-05_15h36.04.575,TranslationElicitation_eng-prolific,3.2.4,Win32,60,5eca8f766efc6002c151bb05,,1,0,81,64,1,80
,,,,,,,,,,,,,,,,,,,,,,,,,,,,,,,,,,,,,,,,,a,3.083000183,POMA,FALSE,,,,,,,172,poma,Catalan,Sounds/cat_poma.mp3,2020-06-05_15h36.04.575,TranslationElicitation_eng-prolific,3.2.4,Win32,60,5eca8f766efc6002c151bb05,,1,0,81,64,1,80
,,,,,,,,,,,,,,,,,,,,,,,,,,,,,,,,,,,,,,,,,backspace,3.450000048,POM,TRUE,,,,,,,172,poma,Catalan,Sounds/cat_poma.mp3,2020-06-05_15h36.04.575,TranslationElicitation_eng-prolific,3.2.4,Win32,60,5eca8f766efc6002c151bb05,,1,0,81,64,1,80
,,,,,,,,,,,,,,,,,,,,,,,,,,,,,,,,,,,,,,,,,backspace,3.684000015,PO,TRUE,,,,,,,172,poma,Catalan,Sounds/cat_poma.mp3,2020-06-05_15h36.04.575,TranslationElicitation_eng-prolific,3.2.4,Win32,60,5eca8f766efc6002c151bb05,,1,0,81,64,1,80
,,,,,,,,,,,,,,,,,,,,,,,,,,,,,,,,,,,,,,,,,backspace,3.850000143,P,TRUE,,,,,,,172,poma,Catalan,Sounds/cat_poma.mp3,2020-06-05_15h36.04.575,TranslationElicitation_eng-prolific,3.2.4,Win32,60,5eca8f766efc6002c151bb05,,1,0,81,64,1,80
,,,,,,,,,,,,,,,,,,,,,,,,,,,,,,,,,,,,,,,,,backspace,4.067000151,,TRUE,,,,,,,172,poma,Catalan,Sounds/cat_poma.mp3,2020-06-05_15h36.04.575,TranslationElicitation_eng-prolific,3.2.4,Win32,60,5eca8f766efc6002c151bb05,,1,0,81,64,1,80
,,,,,,,,,,,,,,,,,,,,,,,,,,,,,,,,,,,,,,,,,p,9.033000231,P,TRUE,,,,,,,172,poma,Catalan,Sounds/cat_poma.mp3,2020-06-05_15h36.04.575,TranslationElicitation_eng-prolific,3.2.4,Win32,60,5eca8f766efc6002c151bb05,,1,0,81,64,1,80
,,,,,,,,,,,,,,,,,,,,,,,,,,,,,,,,,,,,,,,,,o,9.650000095,PO,TRUE,,,,,,,172,poma,Catalan,Sounds/cat_poma.mp3,2020-06-05_15h36.04.575,TranslationElicitation_eng-prolific,3.2.4,Win32,60,5eca8f766efc6002c151bb05,,1,0,81,64,1,80
,,,,,,,,,,,,,,,,,,,,,,,,,,,,,,,,,,,,,,,,,l,9.866000175,POL,TRUE,,,,,,,172,poma,Catalan,Sounds/cat_poma.mp3,2020-06-05_15h36.04.575,TranslationElicitation_eng-prolific,3.2.4,Win32,60,5eca8f766efc6002c151bb05,,1,0,81,64,1,80
,,,,,,,,,,,,,,,,,,,,,,,,,,,,,,,,,,,,,,,,,l,10.01600003,POLL,TRUE,,,,,,,172,poma,Catalan,Sounds/cat_poma.mp3,2020-06-05_15h36.04.575,TranslationElicitation_eng-prolific,3.2.4,Win32,60,5eca8f766efc6002c151bb05,,1,0,81,64,1,80
,,,,,,,,,,,,,,,,,,,,,,,,,,,,,,,,,,,,,,,,,return,10.1500001,POLL,TRUE,,,,,,,172,poma,Catalan,Sounds/cat_poma.mp3,2020-06-05_15h36.04.575,TranslationElicitation_eng-prolific,3.2.4,Win32,60,5eca8f766efc6002c151bb05,10.1500001,1,0,81,64,1,80
,,,,,,,,,,,,,,,,,,,,,,,,,,,,,,,,,,,,,,,,,,,,,,,,,,,172,poma,Catalan,Sounds/cat_poma.mp3,2020-06-05_15h36.04.575,TranslationElicitation_eng-prolific,3.2.4,Win32,60,5eca8f766efc6002c151bb05,,1,0,81,64,1,80
,,,,,,,,,,,,,,,,,,,,,,,,,,,,,,,,,,,,,,,,,g,1.867000103,G,FALSE,,,,,,,143,globus,Catalan,Sounds/cat_globus.mp3,2020-06-05_15h36.04.575,TranslationElicitation_eng-prolific,3.2.4,Win32,60,5eca8f766efc6002c151bb05,,1,0,81,37,1,80
,,,,,,,,,,,,,,,,,,,,,,,,,,,,,,,,,,,,,,,,,l,2.049999952,GL,FALSE,,,,,,,143,globus,Catalan,Sounds/cat_globus.mp3,2020-06-05_15h36.04.575,TranslationElicitation_eng-prolific,3.2.4,Win32,60,5eca8f766efc6002c151bb05,,1,0,81,37,1,80
,,,,,,,,,,,,,,,,,,,,,,,,,,,,,,,,,,,,,,,,,o,2.582999945,GLO,FALSE,,,,,,,143,globus,Catalan,Sounds/cat_globus.mp3,2020-06-05_15h36.04.575,TranslationElicitation_eng-prolific,3.2.4,Win32,60,5eca8f766efc6002c151bb05,,1,0,81,37,1,80
,,,,,,,,,,,,,,,,,,,,,,,,,,,,,,,,,,,,,,,,,b,2.75,GLOB,FALSE,,,,,,,143,globus,Catalan,Sounds/cat_globus.mp3,2020-06-05_15h36.04.575,TranslationElicitation_eng-prolific,3.2.4,Win32,60,5eca8f766efc6002c151bb05,,1,0,81,37,1,80
,,,,,,,,,,,,,,,,,,,,,,,,,,,,,,,,,,,,,,,,,e,2.849999905,GLOBE,FALSE,,,,,,,143,globus,Catalan,Sounds/cat_globus.mp3,2020-06-05_15h36.04.575,TranslationElicitation_eng-prolific,3.2.4,Win32,60,5eca8f766efc6002c151bb05,,1,0,81,37,1,80
,,,,,,,,,,,,,,,,,,,,,,,,,,,,,,,,,,,,,,,,,return,3.332999945,GLOBE,FALSE,,,,,,,143,globus,Catalan,Sounds/cat_globus.mp3,2020-06-05_15h36.04.575,TranslationElicitation_eng-prolific,3.2.4,Win32,60,5eca8f766efc6002c151bb05,3.332999945,1,0,81,37,1,80
,,,,,,,,,,,,,,,,,,,,,,,,,,,,,,,,,,,,,,,,,,,,,,,,,,,143,globus,Catalan,Sounds/cat_globus.mp3,2020-06-05_15h36.04.575,TranslationElicitation_eng-prolific,3.2.4,Win32,60,5eca8f766efc6002c151bb05,,1,0,81,37,1,80
,,,,,,,,,,,,,,,,,,,,,,,,,,,,,,,,,,,,,,,,,m,2.515999794,M,FALSE,,,,,,,152,ma,Catalan,Sounds/cat_ma.mp3,2020-06-05_15h36.04.575,TranslationElicitation_eng-prolific,3.2.4,Win32,60,5eca8f766efc6002c151bb05,,1,0,81,45,1,80
,,,,,,,,,,,,,,,,,,,,,,,,,,,,,,,,,,,,,,,,,a,2.748999834,MA,FALSE,,,,,,,152,ma,Catalan,Sounds/cat_ma.mp3,2020-06-05_15h36.04.575,TranslationElicitation_eng-prolific,3.2.4,Win32,60,5eca8f766efc6002c151bb05,,1,0,81,45,1,80
,,,,,,,,,,,,,,,,,,,,,,,,,,,,,,,,,,,,,,,,,backspace,3.815999985,M,TRUE,,,,,,,152,ma,Catalan,Sounds/cat_ma.mp3,2020-06-05_15h36.04.575,TranslationElicitation_eng-prolific,3.2.4,Win32,60,5eca8f766efc6002c151bb05,,1,0,81,45,1,80
,,,,,,,,,,,,,,,,,,,,,,,,,,,,,,,,,,,,,,,,,o,4.281999826,MO,TRUE,,,,,,,152,ma,Catalan,Sounds/cat_ma.mp3,2020-06-05_15h36.04.575,TranslationElicitation_eng-prolific,3.2.4,Win32,60,5eca8f766efc6002c151bb05,,1,0,81,45,1,80
,,,,,,,,,,,,,,,,,,,,,,,,,,,,,,,,,,,,,,,,,m,5.299000025,MOM,TRUE,,,,,,,152,ma,Catalan,Sounds/cat_ma.mp3,2020-06-05_15h36.04.575,TranslationElicitation_eng-prolific,3.2.4,Win32,60,5eca8f766efc6002c151bb05,,1,0,81,45,1,80
,,,,,,,,,,,,,,,,,,,,,,,,,,,,,,,,,,,,,,,,,return,5.682999849,MOM,TRUE,,,,,,,152,ma,Catalan,Sounds/cat_ma.mp3,2020-06-05_15h36.04.575,TranslationElicitation_eng-prolific,3.2.4,Win32,60,5eca8f766efc6002c151bb05,5.682999849,1,0,81,45,1,80
,,,,,,,,,,,,,,,,,,,,,,,,,,,,,,,,,,,,,,,,,,,,,,,,,,,152,ma,Catalan,Sounds/cat_ma.mp3,2020-06-05_15h36.04.575,TranslationElicitation_eng-prolific,3.2.4,Win32,60,5eca8f766efc6002c151bb05,,1,0,81,45,1,80
,,,,,,,,,,,,,,,,,,,,,,,,,,,,,,,,,,,,,,,,,g,3,G,FALSE,,,,,,,130,entrepa,Catalan,Sounds/cat_entrepa.mp3,2020-06-05_15h36.04.575,TranslationElicitation_eng-prolific,3.2.4,Win32,60,5eca8f766efc6002c151bb05,,1,0,81,24,1,80
,,,,,,,,,,,,,,,,,,,,,,,,,,,,,,,,,,,,,,,,,r,3.633000135,GR,FALSE,,,,,,,130,entrepa,Catalan,Sounds/cat_entrepa.mp3,2020-06-05_15h36.04.575,TranslationElicitation_eng-prolific,3.2.4,Win32,60,5eca8f766efc6002c151bb05,,1,0,81,24,1,80
,,,,,,,,,,,,,,,,,,,,,,,,,,,,,,,,,,,,,,,,,a,3.749000072,GRA,FALSE,,,,,,,130,entrepa,Catalan,Sounds/cat_entrepa.mp3,2020-06-05_15h36.04.575,TranslationElicitation_eng-prolific,3.2.4,Win32,60,5eca8f766efc6002c151bb05,,1,0,81,24,1,80
,,,,,,,,,,,,,,,,,,,,,,,,,,,,,,,,,,,,,,,,,n,3.900000095,GRAN,FALSE,,,,,,,130,entrepa,Catalan,Sounds/cat_entrepa.mp3,2020-06-05_15h36.04.575,TranslationElicitation_eng-prolific,3.2.4,Win32,60,5eca8f766efc6002c151bb05,,1,0,81,24,1,80
,,,,,,,,,,,,,,,,,,,,,,,,,,,,,,,,,,,,,,,,,d,4.049000025,GRAND,FALSE,,,,,,,130,entrepa,Catalan,Sounds/cat_entrepa.mp3,2020-06-05_15h36.04.575,TranslationElicitation_eng-prolific,3.2.4,Win32,60,5eca8f766efc6002c151bb05,,1,0,81,24,1,80
,,,,,,,,,,,,,,,,,,,,,,,,,,,,,,,,,,,,,,,,,f,4.282999992,GRANDF,FALSE,,,,,,,130,entrepa,Catalan,Sounds/cat_entrepa.mp3,2020-06-05_15h36.04.575,TranslationElicitation_eng-prolific,3.2.4,Win32,60,5eca8f766efc6002c151bb05,,1,0,81,24,1,80
,,,,,,,,,,,,,,,,,,,,,,,,,,,,,,,,,,,,,,,,,a,4.916000128,GRANDFA,FALSE,,,,,,,130,entrepa,Catalan,Sounds/cat_entrepa.mp3,2020-06-05_15h36.04.575,TranslationElicitation_eng-prolific,3.2.4,Win32,60,5eca8f766efc6002c151bb05,,1,0,81,24,1,80
,,,,,,,,,,,,,,,,,,,,,,,,,,,,,,,,,,,,,,,,,t,5.065999985,GRANDFAT,FALSE,,,,,,,130,entrepa,Catalan,Sounds/cat_entrepa.mp3,2020-06-05_15h36.04.575,TranslationElicitation_eng-prolific,3.2.4,Win32,60,5eca8f766efc6002c151bb05,,1,0,81,24,1,80
,,,,,,,,,,,,,,,,,,,,,,,,,,,,,,,,,,,,,,,,,h,5.266000032,GRANDFATH,FALSE,,,,,,,130,entrepa,Catalan,Sounds/cat_entrepa.mp3,2020-06-05_15h36.04.575,TranslationElicitation_eng-prolific,3.2.4,Win32,60,5eca8f766efc6002c151bb05,,1,0,81,24,1,80
,,,,,,,,,,,,,,,,,,,,,,,,,,,,,,,,,,,,,,,,,e,5.342000008,GRANDFATHE,FALSE,,,,,,,130,entrepa,Catalan,Sounds/cat_entrepa.mp3,2020-06-05_15h36.04.575,TranslationElicitation_eng-prolific,3.2.4,Win32,60,5eca8f766efc6002c151bb05,,1,0,81,24,1,80
,,,,,,,,,,,,,,,,,,,,,,,,,,,,,,,,,,,,,,,,,r,5.46600008,GRANDFATHER,FALSE,,,,,,,130,entrepa,Catalan,Sounds/cat_entrepa.mp3,2020-06-05_15h36.04.575,TranslationElicitation_eng-prolific,3.2.4,Win32,60,5eca8f766efc6002c151bb05,,1,0,81,24,1,80
,,,,,,,,,,,,,,,,,,,,,,,,,,,,,,,,,,,,,,,,,return,5.815999985,GRANDFATHER,FALSE,,,,,,,130,entrepa,Catalan,Sounds/cat_entrepa.mp3,2020-06-05_15h36.04.575,TranslationElicitation_eng-prolific,3.2.4,Win32,60,5eca8f766efc6002c151bb05,5.815999985,1,0,81,24,1,80
,,,,,,,,,,,,,,,,,,,,,,,,,,,,,,,,,,,,,,,,,,,,,,,,,,,130,entrepa,Catalan,Sounds/cat_entrepa.mp3,2020-06-05_15h36.04.575,TranslationElicitation_eng-prolific,3.2.4,Win32,60,5eca8f766efc6002c151bb05,,1,0,81,24,1,80
,,,,,,,,,,,,,,,,,,,,,,,,,,,,,,,,,,,,,,,,,h,5.867000103,H,FALSE,,,,,,,122,casa,Catalan,Sounds/cat_casa.mp3,2020-06-05_15h36.04.575,TranslationElicitation_eng-prolific,3.2.4,Win32,60,5eca8f766efc6002c151bb05,,1,0,81,17,1,80
,,,,,,,,,,,,,,,,,,,,,,,,,,,,,,,,,,,,,,,,,o,5.98300004,HO,FALSE,,,,,,,122,casa,Catalan,Sounds/cat_casa.mp3,2020-06-05_15h36.04.575,TranslationElicitation_eng-prolific,3.2.4,Win32,60,5eca8f766efc6002c151bb05,,1,0,81,17,1,80
,,,,,,,,,,,,,,,,,,,,,,,,,,,,,,,,,,,,,,,,,m,6.217000008,HOM,FALSE,,,,,,,122,casa,Catalan,Sounds/cat_casa.mp3,2020-06-05_15h36.04.575,TranslationElicitation_eng-prolific,3.2.4,Win32,60,5eca8f766efc6002c151bb05,,1,0,81,17,1,80
,,,,,,,,,,,,,,,,,,,,,,,,,,,,,,,,,,,,,,,,,e,6.400000095,HOME,FALSE,,,,,,,122,casa,Catalan,Sounds/cat_casa.mp3,2020-06-05_15h36.04.575,TranslationElicitation_eng-prolific,3.2.4,Win32,60,5eca8f766efc6002c151bb05,,1,0,81,17,1,80
,,,,,,,,,,,,,,,,,,,,,,,,,,,,,,,,,,,,,,,,,return,6.650000095,HOME,FALSE,,,,,,,122,casa,Catalan,Sounds/cat_casa.mp3,2020-06-05_15h36.04.575,TranslationElicitation_eng-prolific,3.2.4,Win32,60,5eca8f766efc6002c151bb05,6.650000095,1,0,81,17,1,80
,,,,,,,,,,,,,,,,,,,,,,,,,,,,,,,,,,,,,,,,,,,,,,,,,,,122,casa,Catalan,Sounds/cat_casa.mp3,2020-06-05_15h36.04.575,TranslationElicitation_eng-prolific,3.2.4,Win32,60,5eca8f766efc6002c151bb05,,1,0,81,17,1,80
,,,,,,,,,,,,,,,,,,,,,,,,,,,,,,,,,,,,,,,,,t,8.400000095,T,FALSE,,,,,,,181,tobogan,Catalan,Sounds/cat_tobogan.mp3,2020-06-05_15h36.04.575,TranslationElicitation_eng-prolific,3.2.4,Win32,60,5eca8f766efc6002c151bb05,,1,0,81,72,1,80
,,,,,,,,,,,,,,,,,,,,,,,,,,,,,,,,,,,,,,,,,o,8.516000032,TO,FALSE,,,,,,,181,tobogan,Catalan,Sounds/cat_tobogan.mp3,2020-06-05_15h36.04.575,TranslationElicitation_eng-prolific,3.2.4,Win32,60,5eca8f766efc6002c151bb05,,1,0,81,72,1,80
,,,,,,,,,,,,,,,,,,,,,,,,,,,,,,,,,,,,,,,,,g,8.632999897,TOG,FALSE,,,,,,,181,tobogan,Catalan,Sounds/cat_tobogan.mp3,2020-06-05_15h36.04.575,TranslationElicitation_eng-prolific,3.2.4,Win32,60,5eca8f766efc6002c151bb05,,1,0,81,72,1,80
,,,,,,,,,,,,,,,,,,,,,,,,,,,,,,,,,,,,,,,,,e,8.816999912,TOGE,FALSE,,,,,,,181,tobogan,Catalan,Sounds/cat_tobogan.mp3,2020-06-05_15h36.04.575,TranslationElicitation_eng-prolific,3.2.4,Win32,60,5eca8f766efc6002c151bb05,,1,0,81,72,1,80
,,,,,,,,,,,,,,,,,,,,,,,,,,,,,,,,,,,,,,,,,t,8.900000095,TOGET,FALSE,,,,,,,181,tobogan,Catalan,Sounds/cat_tobogan.mp3,2020-06-05_15h36.04.575,TranslationElicitation_eng-prolific,3.2.4,Win32,60,5eca8f766efc6002c151bb05,,1,0,81,72,1,80
,,,,,,,,,,,,,,,,,,,,,,,,,,,,,,,,,,,,,,,,,h,9,TOGETH,FALSE,,,,,,,181,tobogan,Catalan,Sounds/cat_tobogan.mp3,2020-06-05_15h36.04.575,TranslationElicitation_eng-prolific,3.2.4,Win32,60,5eca8f766efc6002c151bb05,,1,0,81,72,1,80
,,,,,,,,,,,,,,,,,,,,,,,,,,,,,,,,,,,,,,,,,e,9.098999977,TOGETHE,FALSE,,,,,,,181,tobogan,Catalan,Sounds/cat_tobogan.mp3,2020-06-05_15h36.04.575,TranslationElicitation_eng-prolific,3.2.4,Win32,60,5eca8f766efc6002c151bb05,,1,0,81,72,1,80
,,,,,,,,,,,,,,,,,,,,,,,,,,,,,,,,,,,,,,,,,r,9.178999901,TOGETHER,FALSE,,,,,,,181,tobogan,Catalan,Sounds/cat_tobogan.mp3,2020-06-05_15h36.04.575,TranslationElicitation_eng-prolific,3.2.4,Win32,60,5eca8f766efc6002c151bb05,,1,0,81,72,1,80
,,,,,,,,,,,,,,,,,,,,,,,,,,,,,,,,,,,,,,,,,return,9.667000055,TOGETHER,FALSE,,,,,,,181,tobogan,Catalan,Sounds/cat_tobogan.mp3,2020-06-05_15h36.04.575,TranslationElicitation_eng-prolific,3.2.4,Win32,60,5eca8f766efc6002c151bb05,9.667000055,1,0,81,72,1,80
,,,,,,,,,,,,,,,,,,,,,,,,,,,,,,,,,,,,,,,,,,,,,,,,,,,181,tobogan,Catalan,Sounds/cat_tobogan.mp3,2020-06-05_15h36.04.575,TranslationElicitation_eng-prolific,3.2.4,Win32,60,5eca8f766efc6002c151bb05,,1,0,81,72,1,80
,,,,,,,,,,,,,,,,,,,,,,,,,,,,,,,,,,,,,,,,,b,2.115999937,B,FALSE,,,,,,,169,plat,Catalan,Sounds/cat_plat.mp3,2020-06-05_15h36.04.575,TranslationElicitation_eng-prolific,3.2.4,Win32,60,5eca8f766efc6002c151bb05,,1,0,81,61,1,80
,,,,,,,,,,,,,,,,,,,,,,,,,,,,,,,,,,,,,,,,,l,3.366999865,BL,FALSE,,,,,,,169,plat,Catalan,Sounds/cat_plat.mp3,2020-06-05_15h36.04.575,TranslationElicitation_eng-prolific,3.2.4,Win32,60,5eca8f766efc6002c151bb05,,1,0,81,61,1,80
,,,,,,,,,,,,,,,,,,,,,,,,,,,,,,,,,,,,,,,,,a,3.532999992,BLA,FALSE,,,,,,,169,plat,Catalan,Sounds/cat_plat.mp3,2020-06-05_15h36.04.575,TranslationElicitation_eng-prolific,3.2.4,Win32,60,5eca8f766efc6002c151bb05,,1,0,81,61,1,80
,,,,,,,,,,,,,,,,,,,,,,,,,,,,,,,,,,,,,,,,,n,3.73300004,BLAN,FALSE,,,,,,,169,plat,Catalan,Sounds/cat_plat.mp3,2020-06-05_15h36.04.575,TranslationElicitation_eng-prolific,3.2.4,Win32,60,5eca8f766efc6002c151bb05,,1,0,81,61,1,80
,,,,,,,,,,,,,,,,,,,,,,,,,,,,,,,,,,,,,,,,,k,3.882999897,BLANK,FALSE,,,,,,,169,plat,Catalan,Sounds/cat_plat.mp3,2020-06-05_15h36.04.575,TranslationElicitation_eng-prolific,3.2.4,Win32,60,5eca8f766efc6002c151bb05,,1,0,81,61,1,80
,,,,,,,,,,,,,,,,,,,,,,,,,,,,,,,,,,,,,,,,,return,4.25,BLANK,FALSE,,,,,,,169,plat,Catalan,Sounds/cat_plat.mp3,2020-06-05_15h36.04.575,TranslationElicitation_eng-prolific,3.2.4,Win32,60,5eca8f766efc6002c151bb05,4.25,1,0,81,61,1,80
,,,,,,,,,,,,,,,,,,,,,,,,,,,,,,,,,,,,,,,,,,,,,,,,,,,169,plat,Catalan,Sounds/cat_plat.mp3,2020-06-05_15h36.04.575,TranslationElicitation_eng-prolific,3.2.4,Win32,60,5eca8f766efc6002c151bb05,,1,0,81,61,1,80
,,,,,,,,,,,,,,,,,,,,,,,,,,,,,,,,,,,,,,,,,p,1.599999905,P,FALSE,,,,,,,164,patata,Catalan,Sounds/cat_patata.mp3,2020-06-05_15h36.04.575,TranslationElicitation_eng-prolific,3.2.4,Win32,60,5eca8f766efc6002c151bb05,,1,0,81,56,1,80
,,,,,,,,,,,,,,,,,,,,,,,,,,,,,,,,,,,,,,,,,o,1.782999992,PO,FALSE,,,,,,,164,patata,Catalan,Sounds/cat_patata.mp3,2020-06-05_15h36.04.575,TranslationElicitation_eng-prolific,3.2.4,Win32,60,5eca8f766efc6002c151bb05,,1,0,81,56,1,80
,,,,,,,,,,,,,,,,,,,,,,,,,,,,,,,,,,,,,,,,,t,1.882999897,POT,FALSE,,,,,,,164,patata,Catalan,Sounds/cat_patata.mp3,2020-06-05_15h36.04.575,TranslationElicitation_eng-prolific,3.2.4,Win32,60,5eca8f766efc6002c151bb05,,1,0,81,56,1,80
,,,,,,,,,,,,,,,,,,,,,,,,,,,,,,,,,,,,,,,,,a,1.98300004,POTA,FALSE,,,,,,,164,patata,Catalan,Sounds/cat_patata.mp3,2020-06-05_15h36.04.575,TranslationElicitation_eng-prolific,3.2.4,Win32,60,5eca8f766efc6002c151bb05,,1,0,81,56,1,80
,,,,,,,,,,,,,,,,,,,,,,,,,,,,,,,,,,,,,,,,,t,2.059999943,POTAT,FALSE,,,,,,,164,patata,Catalan,Sounds/cat_patata.mp3,2020-06-05_15h36.04.575,TranslationElicitation_eng-prolific,3.2.4,Win32,60,5eca8f766efc6002c151bb05,,1,0,81,56,1,80
,,,,,,,,,,,,,,,,,,,,,,,,,,,,,,,,,,,,,,,,,o,2.26699996,POTATO,FALSE,,,,,,,164,patata,Catalan,Sounds/cat_patata.mp3,2020-06-05_15h36.04.575,TranslationElicitation_eng-prolific,3.2.4,Win32,60,5eca8f766efc6002c151bb05,,1,0,81,56,1,80
,,,,,,,,,,,,,,,,,,,,,,,,,,,,,,,,,,,,,,,,,return,2.75,POTATO,FALSE,,,,,,,164,patata,Catalan,Sounds/cat_patata.mp3,2020-06-05_15h36.04.575,TranslationElicitation_eng-prolific,3.2.4,Win32,60,5eca8f766efc6002c151bb05,2.75,1,0,81,56,1,80
,,,,,,,,,,,,,,,,,,,,,,,,,,,,,,,,,,,,,,,,,,,,,,,,,,,164,patata,Catalan,Sounds/cat_patata.mp3,2020-06-05_15h36.04.575,TranslationElicitation_eng-prolific,3.2.4,Win32,60,5eca8f766efc6002c151bb05,,1,0,81,56,1,80
,,,,,,,,,,,,,,,,,,,,,,,,,,,,,,,,,,,,,,,,,p,1.834000111,P,FALSE,,,,,,,173,porc,Catalan,Sounds/cat_porc.mp3,2020-06-05_15h36.04.575,TranslationElicitation_eng-prolific,3.2.4,Win32,60,5eca8f766efc6002c151bb05,,1,0,81,65,1,80
,,,,,,,,,,,,,,,,,,,,,,,,,,,,,,,,,,,,,,,,,o,2.017000198,PO,FALSE,,,,,,,173,porc,Catalan,Sounds/cat_porc.mp3,2020-06-05_15h36.04.575,TranslationElicitation_eng-prolific,3.2.4,Win32,60,5eca8f766efc6002c151bb05,,1,0,81,65,1,80
,,,,,,,,,,,,,,,,,,,,,,,,,,,,,,,,,,,,,,,,,r,2.134000063,POR,FALSE,,,,,,,173,porc,Catalan,Sounds/cat_porc.mp3,2020-06-05_15h36.04.575,TranslationElicitation_eng-prolific,3.2.4,Win32,60,5eca8f766efc6002c151bb05,,1,0,81,65,1,80
,,,,,,,,,,,,,,,,,,,,,,,,,,,,,,,,,,,,,,,,,k,2.251000166,PORK,FALSE,,,,,,,173,porc,Catalan,Sounds/cat_porc.mp3,2020-06-05_15h36.04.575,TranslationElicitation_eng-prolific,3.2.4,Win32,60,5eca8f766efc6002c151bb05,,1,0,81,65,1,80
,,,,,,,,,,,,,,,,,,,,,,,,,,,,,,,,,,,,,,,,,return,2.367000103,PORK,FALSE,,,,,,,173,porc,Catalan,Sounds/cat_porc.mp3,2020-06-05_15h36.04.575,TranslationElicitation_eng-prolific,3.2.4,Win32,60,5eca8f766efc6002c151bb05,2.367000103,1,0,81,65,1,80
,,,,,,,,,,,,,,,,,,,,,,,,,,,,,,,,,,,,,,,,,,,,,,,,,,,173,porc,Catalan,Sounds/cat_porc.mp3,2020-06-05_15h36.04.575,TranslationElicitation_eng-prolific,3.2.4,Win32,60,5eca8f766efc6002c151bb05,,1,0,81,65,1,80
,,,,,,,,,,,,,,,,,,,,,,,,,,,,,,,,,,,,,,,,,b,1.632999897,B,FALSE,,,,,,,114,bol,Catalan,Sounds/cat_bol.mp3,2020-06-05_15h36.04.575,TranslationElicitation_eng-prolific,3.2.4,Win32,60,5eca8f766efc6002c151bb05,,1,0,81,9,1,80
,,,,,,,,,,,,,,,,,,,,,,,,,,,,,,,,,,,,,,,,,a,1.799999952,BA,FALSE,,,,,,,114,bol,Catalan,Sounds/cat_bol.mp3,2020-06-05_15h36.04.575,TranslationElicitation_eng-prolific,3.2.4,Win32,60,5eca8f766efc6002c151bb05,,1,0,81,9,1,80
,,,,,,,,,,,,,,,,,,,,,,,,,,,,,,,,,,,,,,,,,l,1.934000015,BAL,FALSE,,,,,,,114,bol,Catalan,Sounds/cat_bol.mp3,2020-06-05_15h36.04.575,TranslationElicitation_eng-prolific,3.2.4,Win32,60,5eca8f766efc6002c151bb05,,1,0,81,9,1,80
,,,,,,,,,,,,,,,,,,,,,,,,,,,,,,,,,,,,,,,,,l,2.101999998,BALL,FALSE,,,,,,,114,bol,Catalan,Sounds/cat_bol.mp3,2020-06-05_15h36.04.575,TranslationElicitation_eng-prolific,3.2.4,Win32,60,5eca8f766efc6002c151bb05,,1,0,81,9,1,80
,,,,,,,,,,,,,,,,,,,,,,,,,,,,,,,,,,,,,,,,,return,2.950000048,BALL,FALSE,,,,,,,114,bol,Catalan,Sounds/cat_bol.mp3,2020-06-05_15h36.04.575,TranslationElicitation_eng-prolific,3.2.4,Win32,60,5eca8f766efc6002c151bb05,2.950000048,1,0,81,9,1,80
,,,,,,,,,,,,,,,,,,,,,,,,,,,,,,,,,,,,,,,,,,,,,,,,,,,114,bol,Catalan,Sounds/cat_bol.mp3,2020-06-05_15h36.04.575,TranslationElicitation_eng-prolific,3.2.4,Win32,60,5eca8f766efc6002c151bb05,,1,0,81,9,1,80
,,,,,,,,,,,,,,,,,,,,,,,,,,,,,,,,,,,,,,,,,w,2.866999865,W,FALSE,,,,,,,184,ull,Catalan,Sounds/cat_ull.mp3,2020-06-05_15h36.04.575,TranslationElicitation_eng-prolific,3.2.4,Win32,60,5eca8f766efc6002c151bb05,,1,0,81,75,1,80
,,,,,,,,,,,,,,,,,,,,,,,,,,,,,,,,,,,,,,,,,o,3.167000055,WO,FALSE,,,,,,,184,ull,Catalan,Sounds/cat_ull.mp3,2020-06-05_15h36.04.575,TranslationElicitation_eng-prolific,3.2.4,Win32,60,5eca8f766efc6002c151bb05,,1,0,81,75,1,80
,,,,,,,,,,,,,,,,,,,,,,,,,,,,,,,,,,,,,,,,,o,3.600999832,WOO,FALSE,,,,,,,184,ull,Catalan,Sounds/cat_ull.mp3,2020-06-05_15h36.04.575,TranslationElicitation_eng-prolific,3.2.4,Win32,60,5eca8f766efc6002c151bb05,,1,0,81,75,1,80
,,,,,,,,,,,,,,,,,,,,,,,,,,,,,,,,,,,,,,,,,l,3.866999865,WOOL,FALSE,,,,,,,184,ull,Catalan,Sounds/cat_ull.mp3,2020-06-05_15h36.04.575,TranslationElicitation_eng-prolific,3.2.4,Win32,60,5eca8f766efc6002c151bb05,,1,0,81,75,1,80
,,,,,,,,,,,,,,,,,,,,,,,,,,,,,,,,,,,,,,,,,return,4.899999857,WOOL,FALSE,,,,,,,184,ull,Catalan,Sounds/cat_ull.mp3,2020-06-05_15h36.04.575,TranslationElicitation_eng-prolific,3.2.4,Win32,60,5eca8f766efc6002c151bb05,4.899999857,1,0,81,75,1,80
,,,,,,,,,,,,,,,,,,,,,,,,,,,,,,,,,,,,,,,,,,,,,,,,,,,184,ull,Catalan,Sounds/cat_ull.mp3,2020-06-05_15h36.04.575,TranslationElicitation_eng-prolific,3.2.4,Win32,60,5eca8f766efc6002c151bb05,,1,0,81,75,1,80
,,,,,,,,,,,,,,,,,,,,,,,,,,,,,,,,,,,,,,,,,c,2.598999977,C,FALSE,,,,,,,123,cavall,Catalan,Sounds/cat_cavall.mp3,2020-06-05_15h36.04.575,TranslationElicitation_eng-prolific,3.2.4,Win32,60,5eca8f766efc6002c151bb05,,1,0,81,18,1,80
,,,,,,,,,,,,,,,,,,,,,,,,,,,,,,,,,,,,,,,,,a,2.732999802,CA,FALSE,,,,,,,123,cavall,Catalan,Sounds/cat_cavall.mp3,2020-06-05_15h36.04.575,TranslationElicitation_eng-prolific,3.2.4,Win32,60,5eca8f766efc6002c151bb05,,1,0,81,18,1,80
,,,,,,,,,,,,,,,,,,,,,,,,,,,,,,,,,,,,,,,,,v,2.90199995,CAV,FALSE,,,,,,,123,cavall,Catalan,Sounds/cat_cavall.mp3,2020-06-05_15h36.04.575,TranslationElicitation_eng-prolific,3.2.4,Win32,60,5eca8f766efc6002c151bb05,,1,0,81,18,1,80
,,,,,,,,,,,,,,,,,,,,,,,,,,,,,,,,,,,,,,,,,backspace,3.281999826,CA,TRUE,,,,,,,123,cavall,Catalan,Sounds/cat_cavall.mp3,2020-06-05_15h36.04.575,TranslationElicitation_eng-prolific,3.2.4,Win32,60,5eca8f766efc6002c151bb05,,1,0,81,18,1,80
,,,,,,,,,,,,,,,,,,,,,,,,,,,,,,,,,,,,,,,,,b,3.432999849,CAB,TRUE,,,,,,,123,cavall,Catalan,Sounds/cat_cavall.mp3,2020-06-05_15h36.04.575,TranslationElicitation_eng-prolific,3.2.4,Win32,60,5eca8f766efc6002c151bb05,,1,0,81,18,1,80
,,,,,,,,,,,,,,,,,,,,,,,,,,,,,,,,,,,,,,,,,a,3.467000008,CABA,TRUE,,,,,,,123,cavall,Catalan,Sounds/cat_cavall.mp3,2020-06-05_15h36.04.575,TranslationElicitation_eng-prolific,3.2.4,Win32,60,5eca8f766efc6002c151bb05,,1,0,81,18,1,80
,,,,,,,,,,,,,,,,,,,,,,,,,,,,,,,,,,,,,,,,,i,3.782999992,CABAI,TRUE,,,,,,,123,cavall,Catalan,Sounds/cat_cavall.mp3,2020-06-05_15h36.04.575,TranslationElicitation_eng-prolific,3.2.4,Win32,60,5eca8f766efc6002c151bb05,,1,0,81,18,1,80
,,,,,,,,,,,,,,,,,,,,,,,,,,,,,,,,,,,,,,,,,backspace,4.899999857,CABA,TRUE,,,,,,,123,cavall,Catalan,Sounds/cat_cavall.mp3,2020-06-05_15h36.04.575,TranslationElicitation_eng-prolific,3.2.4,Win32,60,5eca8f766efc6002c151bb05,,1,0,81,18,1,80
,,,,,,,,,,,,,,,,,,,,,,,,,,,,,,,,,,,,,,,,,backspace,5.332000017,CAB,TRUE,,,,,,,123,cavall,Catalan,Sounds/cat_cavall.mp3,2020-06-05_15h36.04.575,TranslationElicitation_eng-prolific,3.2.4,Win32,60,5eca8f766efc6002c151bb05,,1,0,81,18,1,80
,,,,,,,,,,,,,,,,,,,,,,,,,,,,,,,,,,,,,,,,,backspace,5.597999811,CA,TRUE,,,,,,,123,cavall,Catalan,Sounds/cat_cavall.mp3,2020-06-05_15h36.04.575,TranslationElicitation_eng-prolific,3.2.4,Win32,60,5eca8f766efc6002c151bb05,,1,0,81,18,1,80
,,,,,,,,,,,,,,,,,,,,,,,,,,,,,,,,,,,,,,,,,backspace,6.915999889,C,TRUE,,,,,,,123,cavall,Catalan,Sounds/cat_cavall.mp3,2020-06-05_15h36.04.575,TranslationElicitation_eng-prolific,3.2.4,Win32,60,5eca8f766efc6002c151bb05,,1,0,81,18,1,80
,,,,,,,,,,,,,,,,,,,,,,,,,,,,,,,,,,,,,,,,,h,11.51600003,CH,TRUE,,,,,,,123,cavall,Catalan,Sounds/cat_cavall.mp3,2020-06-05_15h36.04.575,TranslationElicitation_eng-prolific,3.2.4,Win32,60,5eca8f766efc6002c151bb05,,1,0,81,18,1,80
,,,,,,,,,,,,,,,,,,,,,,,,,,,,,,,,,,,,,,,,,o,11.78199983,CHO,TRUE,,,,,,,123,cavall,Catalan,Sounds/cat_cavall.mp3,2020-06-05_15h36.04.575,TranslationElicitation_eng-prolific,3.2.4,Win32,60,5eca8f766efc6002c151bb05,,1,0,81,18,1,80
,,,,,,,,,,,,,,,,,,,,,,,,,,,,,,,,,,,,,,,,,r,11.89899993,CHOR,TRUE,,,,,,,123,cavall,Catalan,Sounds/cat_cavall.mp3,2020-06-05_15h36.04.575,TranslationElicitation_eng-prolific,3.2.4,Win32,60,5eca8f766efc6002c151bb05,,1,0,81,18,1,80
,,,,,,,,,,,,,,,,,,,,,,,,,,,,,,,,,,,,,,,,,s,12.08200002,CHORS,TRUE,,,,,,,123,cavall,Catalan,Sounds/cat_cavall.mp3,2020-06-05_15h36.04.575,TranslationElicitation_eng-prolific,3.2.4,Win32,60,5eca8f766efc6002c151bb05,,1,0,81,18,1,80
,,,,,,,,,,,,,,,,,,,,,,,,,,,,,,,,,,,,,,,,,e,12.19799995,CHORSE,TRUE,,,,,,,123,cavall,Catalan,Sounds/cat_cavall.mp3,2020-06-05_15h36.04.575,TranslationElicitation_eng-prolific,3.2.4,Win32,60,5eca8f766efc6002c151bb05,,1,0,81,18,1,80
,,,,,,,,,,,,,,,,,,,,,,,,,,,,,,,,,,,,,,,,,backspace,12.56599998,CHORS,TRUE,,,,,,,123,cavall,Catalan,Sounds/cat_cavall.mp3,2020-06-05_15h36.04.575,TranslationElicitation_eng-prolific,3.2.4,Win32,60,5eca8f766efc6002c151bb05,,1,0,81,18,1,80
,,,,,,,,,,,,,,,,,,,,,,,,,,,,,,,,,,,,,,,,,backspace,13.08200002,CHOR,TRUE,,,,,,,123,cavall,Catalan,Sounds/cat_cavall.mp3,2020-06-05_15h36.04.575,TranslationElicitation_eng-prolific,3.2.4,Win32,60,5eca8f766efc6002c151bb05,,1,0,81,18,1,80
,,,,,,,,,,,,,,,,,,,,,,,,,,,,,,,,,,,,,,,,,backspace,13.09899998,CHO,TRUE,,,,,,,123,cavall,Catalan,Sounds/cat_cavall.mp3,2020-06-05_15h36.04.575,TranslationElicitation_eng-prolific,3.2.4,Win32,60,5eca8f766efc6002c151bb05,,1,0,81,18,1,80
,,,,,,,,,,,,,,,,,,,,,,,,,,,,,,,,,,,,,,,,,backspace,13.1329999,CH,TRUE,,,,,,,123,cavall,Catalan,Sounds/cat_cavall.mp3,2020-06-05_15h36.04.575,TranslationElicitation_eng-prolific,3.2.4,Win32,60,5eca8f766efc6002c151bb05,,1,0,81,18,1,80
,,,,,,,,,,,,,,,,,,,,,,,,,,,,,,,,,,,,,,,,,backspace,13.16499996,C,TRUE,,,,,,,123,cavall,Catalan,Sounds/cat_cavall.mp3,2020-06-05_15h36.04.575,TranslationElicitation_eng-prolific,3.2.4,Win32,60,5eca8f766efc6002c151bb05,,1,0,81,18,1,80
,,,,,,,,,,,,,,,,,,,,,,,,,,,,,,,,,,,,,,,,,backspace,13.19899988,,TRUE,,,,,,,123,cavall,Catalan,Sounds/cat_cavall.mp3,2020-06-05_15h36.04.575,TranslationElicitation_eng-prolific,3.2.4,Win32,60,5eca8f766efc6002c151bb05,,1,0,81,18,1,80
,,,,,,,,,,,,,,,,,,,,,,,,,,,,,,,,,,,,,,,,,backspace,13.23199987,,TRUE,,,,,,,123,cavall,Catalan,Sounds/cat_cavall.mp3,2020-06-05_15h36.04.575,TranslationElicitation_eng-prolific,3.2.4,Win32,60,5eca8f766efc6002c151bb05,,1,0,81,18,1,80
,,,,,,,,,,,,,,,,,,,,,,,,,,,,,,,,,,,,,,,,,backspace,13.26600003,,TRUE,,,,,,,123,cavall,Catalan,Sounds/cat_cavall.mp3,2020-06-05_15h36.04.575,TranslationElicitation_eng-prolific,3.2.4,Win32,60,5eca8f766efc6002c151bb05,,1,0,81,18,1,80
,,,,,,,,,,,,,,,,,,,,,,,,,,,,,,,,,,,,,,,,,backspace,13.31599998,,TRUE,,,,,,,123,cavall,Catalan,Sounds/cat_cavall.mp3,2020-06-05_15h36.04.575,TranslationElicitation_eng-prolific,3.2.4,Win32,60,5eca8f766efc6002c151bb05,,1,0,81,18,1,80
,,,,,,,,,,,,,,,,,,,,,,,,,,,,,,,,,,,,,,,,,c,14.26499987,C,TRUE,,,,,,,123,cavall,Catalan,Sounds/cat_cavall.mp3,2020-06-05_15h36.04.575,TranslationElicitation_eng-prolific,3.2.4,Win32,60,5eca8f766efc6002c151bb05,,1,0,81,18,1,80
,,,,,,,,,,,,,,,,,,,,,,,,,,,,,,,,,,,,,,,,,u,14.89999986,CU,TRUE,,,,,,,123,cavall,Catalan,Sounds/cat_cavall.mp3,2020-06-05_15h36.04.575,TranslationElicitation_eng-prolific,3.2.4,Win32,60,5eca8f766efc6002c151bb05,,1,0,81,18,1,80
,,,,,,,,,,,,,,,,,,,,,,,,,,,,,,,,,,,,,,,,,backspace,15.26600003,C,TRUE,,,,,,,123,cavall,Catalan,Sounds/cat_cavall.mp3,2020-06-05_15h36.04.575,TranslationElicitation_eng-prolific,3.2.4,Win32,60,5eca8f766efc6002c151bb05,,1,0,81,18,1,80
,,,,,,,,,,,,,,,,,,,,,,,,,,,,,,,,,,,,,,,,,o,15.43299985,CO,TRUE,,,,,,,123,cavall,Catalan,Sounds/cat_cavall.mp3,2020-06-05_15h36.04.575,TranslationElicitation_eng-prolific,3.2.4,Win32,60,5eca8f766efc6002c151bb05,,1,0,81,18,1,80
,,,,,,,,,,,,,,,,,,,,,,,,,,,,,,,,,,,,,,,,,u,15.89899993,COU,TRUE,,,,,,,123,cavall,Catalan,Sounds/cat_cavall.mp3,2020-06-05_15h36.04.575,TranslationElicitation_eng-prolific,3.2.4,Win32,60,5eca8f766efc6002c151bb05,,1,0,81,18,1,80
,,,,,,,,,,,,,,,,,,,,,,,,,,,,,,,,,,,,,,,,,r,16.06599998,COUR,TRUE,,,,,,,123,cavall,Catalan,Sounds/cat_cavall.mp3,2020-06-05_15h36.04.575,TranslationElicitation_eng-prolific,3.2.4,Win32,60,5eca8f766efc6002c151bb05,,1,0,81,18,1,80
,,,,,,,,,,,,,,,,,,,,,,,,,,,,,,,,,,,,,,,,,s,16.21599984,COURS,TRUE,,,,,,,123,cavall,Catalan,Sounds/cat_cavall.mp3,2020-06-05_15h36.04.575,TranslationElicitation_eng-prolific,3.2.4,Win32,60,5eca8f766efc6002c151bb05,,1,0,81,18,1,80
,,,,,,,,,,,,,,,,,,,,,,,,,,,,,,,,,,,,,,,,,e,16.34899998,COURSE,TRUE,,,,,,,123,cavall,Catalan,Sounds/cat_cavall.mp3,2020-06-05_15h36.04.575,TranslationElicitation_eng-prolific,3.2.4,Win32,60,5eca8f766efc6002c151bb05,,1,0,81,18,1,80
,,,,,,,,,,,,,,,,,,,,,,,,,,,,,,,,,,,,,,,,,return,16.58200002,COURSE,TRUE,,,,,,,123,cavall,Catalan,Sounds/cat_cavall.mp3,2020-06-05_15h36.04.575,TranslationElicitation_eng-prolific,3.2.4,Win32,60,5eca8f766efc6002c151bb05,16.58200002,1,0,81,18,1,80
,,,,,,,,,,,,,,,,,,,,,,,,,,,,,,,,,,,,,,,,,,,,,,,,,,,123,cavall,Catalan,Sounds/cat_cavall.mp3,2020-06-05_15h36.04.575,TranslationElicitation_eng-prolific,3.2.4,Win32,60,5eca8f766efc6002c151bb05,,1,0,81,18,1,80
,,,,,,,,,,,,,,,,,,,,,,,,,,,,,,,,,,,,,,,,,c,3.566999912,C,FALSE,,,,,,,150,lloro,Catalan,Sounds/cat_lloro.mp3,2020-06-05_15h36.04.575,TranslationElicitation_eng-prolific,3.2.4,Win32,60,5eca8f766efc6002c151bb05,,1,0,81,43,1,80
,,,,,,,,,,,,,,,,,,,,,,,,,,,,,,,,,,,,,,,,,h,3.73300004,CH,FALSE,,,,,,,150,lloro,Catalan,Sounds/cat_lloro.mp3,2020-06-05_15h36.04.575,TranslationElicitation_eng-prolific,3.2.4,Win32,60,5eca8f766efc6002c151bb05,,1,0,81,43,1,80
,,,,,,,,,,,,,,,,,,,,,,,,,,,,,,,,,,,,,,,,,u,3.950000048,CHU,FALSE,,,,,,,150,lloro,Catalan,Sounds/cat_lloro.mp3,2020-06-05_15h36.04.575,TranslationElicitation_eng-prolific,3.2.4,Win32,60,5eca8f766efc6002c151bb05,,1,0,81,43,1,80
,,,,,,,,,,,,,,,,,,,,,,,,,,,,,,,,,,,,,,,,,r,4.049999952,CHUR,FALSE,,,,,,,150,lloro,Catalan,Sounds/cat_lloro.mp3,2020-06-05_15h36.04.575,TranslationElicitation_eng-prolific,3.2.4,Win32,60,5eca8f766efc6002c151bb05,,1,0,81,43,1,80
,,,,,,,,,,,,,,,,,,,,,,,,,,,,,,,,,,,,,,,,,r,4.23300004,CHURR,FALSE,,,,,,,150,lloro,Catalan,Sounds/cat_lloro.mp3,2020-06-05_15h36.04.575,TranslationElicitation_eng-prolific,3.2.4,Win32,60,5eca8f766efc6002c151bb05,,1,0,81,43,1,80
,,,,,,,,,,,,,,,,,,,,,,,,,,,,,,,,,,,,,,,,,o,4.316999912,CHURRO,FALSE,,,,,,,150,lloro,Catalan,Sounds/cat_lloro.mp3,2020-06-05_15h36.04.575,TranslationElicitation_eng-prolific,3.2.4,Win32,60,5eca8f766efc6002c151bb05,,1,0,81,43,1,80
,,,,,,,,,,,,,,,,,,,,,,,,,,,,,,,,,,,,,,,,,return,4.799000025,CHURRO,FALSE,,,,,,,150,lloro,Catalan,Sounds/cat_lloro.mp3,2020-06-05_15h36.04.575,TranslationElicitation_eng-prolific,3.2.4,Win32,60,5eca8f766efc6002c151bb05,4.799000025,1,0,81,43,1,80
,,,,,,,,,,,,,,,,,,,,,,,,,,,,,,,,,,,,,,,,,,,,,,,,,,,150,lloro,Catalan,Sounds/cat_lloro.mp3,2020-06-05_15h36.04.575,TranslationElicitation_eng-prolific,3.2.4,Win32,60,5eca8f766efc6002c151bb05,,1,0,81,43,1,80
,,,,,,,,,,,,,,,,,,,,,,,,,,,,,,,,,,,,,,,,,l,2.566999912,L,FALSE,,,,,,,151,lluna,Catalan,Sounds/cat_lluna.mp3,2020-06-05_15h36.04.575,TranslationElicitation_eng-prolific,3.2.4,Win32,60,5eca8f766efc6002c151bb05,,1,0,81,44,1,80
,,,,,,,,,,,,,,,,,,,,,,,,,,,,,,,,,,,,,,,,,u,2.799000025,LU,FALSE,,,,,,,151,lluna,Catalan,Sounds/cat_lluna.mp3,2020-06-05_15h36.04.575,TranslationElicitation_eng-prolific,3.2.4,Win32,60,5eca8f766efc6002c151bb05,,1,0,81,44,1,80
,,,,,,,,,,,,,,,,,,,,,,,,,,,,,,,,,,,,,,,,,n,3.016000032,LUN,FALSE,,,,,,,151,lluna,Catalan,Sounds/cat_lluna.mp3,2020-06-05_15h36.04.575,TranslationElicitation_eng-prolific,3.2.4,Win32,60,5eca8f766efc6002c151bb05,,1,0,81,44,1,80
,,,,,,,,,,,,,,,,,,,,,,,,,,,,,,,,,,,,,,,,,a,3.099999905,LUNA,FALSE,,,,,,,151,lluna,Catalan,Sounds/cat_lluna.mp3,2020-06-05_15h36.04.575,TranslationElicitation_eng-prolific,3.2.4,Win32,60,5eca8f766efc6002c151bb05,,1,0,81,44,1,80
,,,,,,,,,,,,,,,,,,,,,,,,,,,,,,,,,,,,,,,,,backspace,4.332000017,LUN,TRUE,,,,,,,151,lluna,Catalan,Sounds/cat_lluna.mp3,2020-06-05_15h36.04.575,TranslationElicitation_eng-prolific,3.2.4,Win32,60,5eca8f766efc6002c151bb05,,1,0,81,44,1,80
,,,,,,,,,,,,,,,,,,,,,,,,,,,,,,,,,,,,,,,,,a,4.75,LUNA,TRUE,,,,,,,151,lluna,Catalan,Sounds/cat_lluna.mp3,2020-06-05_15h36.04.575,TranslationElicitation_eng-prolific,3.2.4,Win32,60,5eca8f766efc6002c151bb05,,1,0,81,44,1,80
,,,,,,,,,,,,,,,,,,,,,,,,,,,,,,,,,,,,,,,,,r,4.825999975,LUNAR,TRUE,,,,,,,151,lluna,Catalan,Sounds/cat_lluna.mp3,2020-06-05_15h36.04.575,TranslationElicitation_eng-prolific,3.2.4,Win32,60,5eca8f766efc6002c151bb05,,1,0,81,44,1,80
,,,,,,,,,,,,,,,,,,,,,,,,,,,,,,,,,,,,,,,,,return,5.21600008,LUNAR,TRUE,,,,,,,151,lluna,Catalan,Sounds/cat_lluna.mp3,2020-06-05_15h36.04.575,TranslationElicitation_eng-prolific,3.2.4,Win32,60,5eca8f766efc6002c151bb05,5.21600008,1,0,81,44,1,80
,,,,,,,,,,,,,,,,,,,,,,,,,,,,,,,,,,,,,,,,,,,,,,,,,,,151,lluna,Catalan,Sounds/cat_lluna.mp3,2020-06-05_15h36.04.575,TranslationElicitation_eng-prolific,3.2.4,Win32,60,5eca8f766efc6002c151bb05,,1,0,81,44,1,80
,,,,,,,,,,,,,,,,,,,,,,,,,,,,,,,,,,,,,,,,,m,3.648000002,M,FALSE,,,,,,,155,moneda,Catalan,Sounds/cat_moneda.mp3,2020-06-05_15h36.04.575,TranslationElicitation_eng-prolific,3.2.4,Win32,60,5eca8f766efc6002c151bb05,,1,0,81,48,1,80
,,,,,,,,,,,,,,,,,,,,,,,,,,,,,,,,,,,,,,,,,o,3.84800005,MO,FALSE,,,,,,,155,moneda,Catalan,Sounds/cat_moneda.mp3,2020-06-05_15h36.04.575,TranslationElicitation_eng-prolific,3.2.4,Win32,60,5eca8f766efc6002c151bb05,,1,0,81,48,1,80
,,,,,,,,,,,,,,,,,,,,,,,,,,,,,,,,,,,,,,,,,n,4.031000137,MON,FALSE,,,,,,,155,moneda,Catalan,Sounds/cat_moneda.mp3,2020-06-05_15h36.04.575,TranslationElicitation_eng-prolific,3.2.4,Win32,60,5eca8f766efc6002c151bb05,,1,0,81,48,1,80
,,,,,,,,,,,,,,,,,,,,,,,,,,,,,,,,,,,,,,,,,e,4.131999969,MONE,FALSE,,,,,,,155,moneda,Catalan,Sounds/cat_moneda.mp3,2020-06-05_15h36.04.575,TranslationElicitation_eng-prolific,3.2.4,Win32,60,5eca8f766efc6002c151bb05,,1,0,81,48,1,80
,,,,,,,,,,,,,,,,,,,,,,,,,,,,,,,,,,,,,,,,,y,4.248000145,MONEY,FALSE,,,,,,,155,moneda,Catalan,Sounds/cat_moneda.mp3,2020-06-05_15h36.04.575,TranslationElicitation_eng-prolific,3.2.4,Win32,60,5eca8f766efc6002c151bb05,,1,0,81,48,1,80
,,,,,,,,,,,,,,,,,,,,,,,,,,,,,,,,,,,,,,,,,return,4.515000105,MONEY,FALSE,,,,,,,155,moneda,Catalan,Sounds/cat_moneda.mp3,2020-06-05_15h36.04.575,TranslationElicitation_eng-prolific,3.2.4,Win32,60,5eca8f766efc6002c151bb05,4.515000105,1,0,81,48,1,80
,,,,,,,,,,,,,,,,,,,,,,,,,,,,,,,,,,,,,,,,,,,,,,,,,,,155,moneda,Catalan,Sounds/cat_moneda.mp3,2020-06-05_15h36.04.575,TranslationElicitation_eng-prolific,3.2.4,Win32,60,5eca8f766efc6002c151bb05,,1,0,81,48,1,80
,,,,,,,,,,,,,,,,,,,,,,,,,,,,,,,,,,,,,,,,,c,1.799000025,C,FALSE,,,,,,,188,xocolata,Catalan,Sounds/cat_xocolata.mp3,2020-06-05_15h36.04.575,TranslationElicitation_eng-prolific,3.2.4,Win32,60,5eca8f766efc6002c151bb05,,1,0,81,79,1,80
,,,,,,,,,,,,,,,,,,,,,,,,,,,,,,,,,,,,,,,,,i,2.032000065,CI,FALSE,,,,,,,188,xocolata,Catalan,Sounds/cat_xocolata.mp3,2020-06-05_15h36.04.575,TranslationElicitation_eng-prolific,3.2.4,Win32,60,5eca8f766efc6002c151bb05,,1,0,81,79,1,80
,,,,,,,,,,,,,,,,,,,,,,,,,,,,,,,,,,,,,,,,,backspace,2.43200016,C,TRUE,,,,,,,188,xocolata,Catalan,Sounds/cat_xocolata.mp3,2020-06-05_15h36.04.575,TranslationElicitation_eng-prolific,3.2.4,Win32,60,5eca8f766efc6002c151bb05,,1,0,81,79,1,80
,,,,,,,,,,,,,,,,,,,,,,,,,,,,,,,,,,,,,,,,,h,3.131999969,CH,TRUE,,,,,,,188,xocolata,Catalan,Sounds/cat_xocolata.mp3,2020-06-05_15h36.04.575,TranslationElicitation_eng-prolific,3.2.4,Win32,60,5eca8f766efc6002c151bb05,,1,0,81,79,1,80
,,,,,,,,,,,,,,,,,,,,,,,,,,,,,,,,,,,,,,,,,o,3.348999977,CHO,TRUE,,,,,,,188,xocolata,Catalan,Sounds/cat_xocolata.mp3,2020-06-05_15h36.04.575,TranslationElicitation_eng-prolific,3.2.4,Win32,60,5eca8f766efc6002c151bb05,,1,0,81,79,1,80
,,,,,,,,,,,,,,,,,,,,,,,,,,,,,,,,,,,,,,,,,c,3.549000025,CHOC,TRUE,,,,,,,188,xocolata,Catalan,Sounds/cat_xocolata.mp3,2020-06-05_15h36.04.575,TranslationElicitation_eng-prolific,3.2.4,Win32,60,5eca8f766efc6002c151bb05,,1,0,81,79,1,80
,,,,,,,,,,,,,,,,,,,,,,,,,,,,,,,,,,,,,,,,,o,3.782000065,CHOCO,TRUE,,,,,,,188,xocolata,Catalan,Sounds/cat_xocolata.mp3,2020-06-05_15h36.04.575,TranslationElicitation_eng-prolific,3.2.4,Win32,60,5eca8f766efc6002c151bb05,,1,0,81,79,1,80
,,,,,,,,,,,,,,,,,,,,,,,,,,,,,,,,,,,,,,,,,l,4.098999977,CHOCOL,TRUE,,,,,,,188,xocolata,Catalan,Sounds/cat_xocolata.mp3,2020-06-05_15h36.04.575,TranslationElicitation_eng-prolific,3.2.4,Win32,60,5eca8f766efc6002c151bb05,,1,0,81,79,1,80
,,,,,,,,,,,,,,,,,,,,,,,,,,,,,,,,,,,,,,,,,a,4.265000105,CHOCOLA,TRUE,,,,,,,188,xocolata,Catalan,Sounds/cat_xocolata.mp3,2020-06-05_15h36.04.575,TranslationElicitation_eng-prolific,3.2.4,Win32,60,5eca8f766efc6002c151bb05,,1,0,81,79,1,80
,,,,,,,,,,,,,,,,,,,,,,,,,,,,,,,,,,,,,,,,,t,4.465000153,CHOCOLAT,TRUE,,,,,,,188,xocolata,Catalan,Sounds/cat_xocolata.mp3,2020-06-05_15h36.04.575,TranslationElicitation_eng-prolific,3.2.4,Win32,60,5eca8f766efc6002c151bb05,,1,0,81,79,1,80
,,,,,,,,,,,,,,,,,,,,,,,,,,,,,,,,,,,,,,,,,e,4.615999937,CHOCOLATE,TRUE,,,,,,,188,xocolata,Catalan,Sounds/cat_xocolata.mp3,2020-06-05_15h36.04.575,TranslationElicitation_eng-prolific,3.2.4,Win32,60,5eca8f766efc6002c151bb05,,1,0,81,79,1,80
,,,,,,,,,,,,,,,,,,,,,,,,,,,,,,,,,,,,,,,,,return,11.6500001,CHOCOLATE,TRUE,,,,,,,188,xocolata,Catalan,Sounds/cat_xocolata.mp3,2020-06-05_15h36.04.575,TranslationElicitation_eng-prolific,3.2.4,Win32,60,5eca8f766efc6002c151bb05,11.6500001,1,0,81,79,1,80
,,,,,,,,,,,,,,,,,,,,,,,,,,,,,,,,,,,,,,,,,,,,,,,,,,,188,xocolata,Catalan,Sounds/cat_xocolata.mp3,2020-06-05_15h36.04.575,TranslationElicitation_eng-prolific,3.2.4,Win32,60,5eca8f766efc6002c151bb05,,1,0,81,79,1,80
,,,,,,,,,,,,,,,,,,,,,,,,,,,,,,,,,,,,,,,,,g,2.349999905,G,FALSE,,,,,,,120,cama,Catalan,Sounds/cat_cama.mp3,2020-06-05_15h36.04.575,TranslationElicitation_eng-prolific,3.2.4,Win32,60,5eca8f766efc6002c151bb05,,1,0,81,15,1,80
,,,,,,,,,,,,,,,,,,,,,,,,,,,,,,,,,,,,,,,,,a,2.515999794,GA,FALSE,,,,,,,120,cama,Catalan,Sounds/cat_cama.mp3,2020-06-05_15h36.04.575,TranslationElicitation_eng-prolific,3.2.4,Win32,60,5eca8f766efc6002c151bb05,,1,0,81,15,1,80
,,,,,,,,,,,,,,,,,,,,,,,,,,,,,,,,,,,,,,,,,m,2.665999889,GAM,FALSE,,,,,,,120,cama,Catalan,Sounds/cat_cama.mp3,2020-06-05_15h36.04.575,TranslationElicitation_eng-prolific,3.2.4,Win32,60,5eca8f766efc6002c151bb05,,1,0,81,15,1,80
,,,,,,,,,,,,,,,,,,,,,,,,,,,,,,,,,,,,,,,,,m,2.849999905,GAMM,FALSE,,,,,,,120,cama,Catalan,Sounds/cat_cama.mp3,2020-06-05_15h36.04.575,TranslationElicitation_eng-prolific,3.2.4,Win32,60,5eca8f766efc6002c151bb05,,1,0,81,15,1,80
,,,,,,,,,,,,,,,,,,,,,,,,,,,,,,,,,,,,,,,,,a,2.965999842,GAMMA,FALSE,,,,,,,120,cama,Catalan,Sounds/cat_cama.mp3,2020-06-05_15h36.04.575,TranslationElicitation_eng-prolific,3.2.4,Win32,60,5eca8f766efc6002c151bb05,,1,0,81,15,1,80
,,,,,,,,,,,,,,,,,,,,,,,,,,,,,,,,,,,,,,,,,return,3.366999865,GAMMA,FALSE,,,,,,,120,cama,Catalan,Sounds/cat_cama.mp3,2020-06-05_15h36.04.575,TranslationElicitation_eng-prolific,3.2.4,Win32,60,5eca8f766efc6002c151bb05,3.366999865,1,0,81,15,1,80
,,,,,,,,,,,,,,,,,,,,,,,,,,,,,,,,,,,,,,,,,,,,,,,,,,,120,cama,Catalan,Sounds/cat_cama.mp3,2020-06-05_15h36.04.575,TranslationElicitation_eng-prolific,3.2.4,Win32,60,5eca8f766efc6002c151bb05,,1,0,81,15,1,80
,,,,,,,,,,,,,,,,,,,,,,,,,,,,,,,,,,,,,,,,,g,2.049000025,G,FALSE,,,,,,,140,gat,Catalan,Sounds/cat_gat.mp3,2020-06-05_15h36.04.575,TranslationElicitation_eng-prolific,3.2.4,Win32,60,5eca8f766efc6002c151bb05,,1,0,81,34,1,80
,,,,,,,,,,,,,,,,,,,,,,,,,,,,,,,,,,,,,,,,,a,2.21600008,GA,FALSE,,,,,,,140,gat,Catalan,Sounds/cat_gat.mp3,2020-06-05_15h36.04.575,TranslationElicitation_eng-prolific,3.2.4,Win32,60,5eca8f766efc6002c151bb05,,1,0,81,34,1,80
,,,,,,,,,,,,,,,,,,,,,,,,,,,,,,,,,,,,,,,,,s,2.315999985,GAS,FALSE,,,,,,,140,gat,Catalan,Sounds/cat_gat.mp3,2020-06-05_15h36.04.575,TranslationElicitation_eng-prolific,3.2.4,Win32,60,5eca8f766efc6002c151bb05,,1,0,81,34,1,80
,,,,,,,,,,,,,,,,,,,,,,,,,,,,,,,,,,,,,,,,,return,3.282000065,GAS,FALSE,,,,,,,140,gat,Catalan,Sounds/cat_gat.mp3,2020-06-05_15h36.04.575,TranslationElicitation_eng-prolific,3.2.4,Win32,60,5eca8f766efc6002c151bb05,3.282000065,1,0,81,34,1,80
,,,,,,,,,,,,,,,,,,,,,,,,,,,,,,,,,,,,,,,,,,,,,,,,,,,140,gat,Catalan,Sounds/cat_gat.mp3,2020-06-05_15h36.04.575,TranslationElicitation_eng-prolific,3.2.4,Win32,60,5eca8f766efc6002c151bb05,,1,0,81,34,1,80
,,,,,,,,,,,,,,,,,,,,,,,,,,,,,,,,,,,,,,,,,p,2.765000105,P,FALSE,,,,,,,171,pollastre,Catalan,Sounds/cat_pollastre.mp3,2020-06-05_15h36.04.575,TranslationElicitation_eng-prolific,3.2.4,Win32,60,5eca8f766efc6002c151bb05,,1,0,81,63,1,80
,,,,,,,,,,,,,,,,,,,,,,,,,,,,,,,,,,,,,,,,,u,3.19900012,PU,FALSE,,,,,,,171,pollastre,Catalan,Sounds/cat_pollastre.mp3,2020-06-05_15h36.04.575,TranslationElicitation_eng-prolific,3.2.4,Win32,60,5eca8f766efc6002c151bb05,,1,0,81,63,1,80
,,,,,,,,,,,,,,,,,,,,,,,,,,,,,,,,,,,,,,,,,l,3.5,PUL,FALSE,,,,,,,171,pollastre,Catalan,Sounds/cat_pollastre.mp3,2020-06-05_15h36.04.575,TranslationElicitation_eng-prolific,3.2.4,Win32,60,5eca8f766efc6002c151bb05,,1,0,81,63,1,80
,,,,,,,,,,,,,,,,,,,,,,,,,,,,,,,,,,,,,,,,,l,3.649000168,PULL,FALSE,,,,,,,171,pollastre,Catalan,Sounds/cat_pollastre.mp3,2020-06-05_15h36.04.575,TranslationElicitation_eng-prolific,3.2.4,Win32,60,5eca8f766efc6002c151bb05,,1,0,81,63,1,80
,,,,,,,,,,,,,,,,,,,,,,,,,,,,,,,,,,,,,,,,,a,3.916000128,PULLA,FALSE,,,,,,,171,pollastre,Catalan,Sounds/cat_pollastre.mp3,2020-06-05_15h36.04.575,TranslationElicitation_eng-prolific,3.2.4,Win32,60,5eca8f766efc6002c151bb05,,1,0,81,63,1,80
,,,,,,,,,,,,,,,,,,,,,,,,,,,,,,,,,,,,,,,,,s,4.083000183,PULLAS,FALSE,,,,,,,171,pollastre,Catalan,Sounds/cat_pollastre.mp3,2020-06-05_15h36.04.575,TranslationElicitation_eng-prolific,3.2.4,Win32,60,5eca8f766efc6002c151bb05,,1,0,81,63,1,80
,,,,,,,,,,,,,,,,,,,,,,,,,,,,,,,,,,,,,,,,,t,4.232000113,PULLAST,FALSE,,,,,,,171,pollastre,Catalan,Sounds/cat_pollastre.mp3,2020-06-05_15h36.04.575,TranslationElicitation_eng-prolific,3.2.4,Win32,60,5eca8f766efc6002c151bb05,,1,0,81,63,1,80
,,,,,,,,,,,,,,,,,,,,,,,,,,,,,,,,,,,,,,,,,r,4.482000113,PULLASTR,FALSE,,,,,,,171,pollastre,Catalan,Sounds/cat_pollastre.mp3,2020-06-05_15h36.04.575,TranslationElicitation_eng-prolific,3.2.4,Win32,60,5eca8f766efc6002c151bb05,,1,0,81,63,1,80
,,,,,,,,,,,,,,,,,,,,,,,,,,,,,,,,,,,,,,,,,a,4.584000111,PULLASTRA,FALSE,,,,,,,171,pollastre,Catalan,Sounds/cat_pollastre.mp3,2020-06-05_15h36.04.575,TranslationElicitation_eng-prolific,3.2.4,Win32,60,5eca8f766efc6002c151bb05,,1,0,81,63,1,80
,,,,,,,,,,,,,,,,,,,,,,,,,,,,,,,,,,,,,,,,,backspace,6.732000113,PULLASTR,TRUE,,,,,,,171,pollastre,Catalan,Sounds/cat_pollastre.mp3,2020-06-05_15h36.04.575,TranslationElicitation_eng-prolific,3.2.4,Win32,60,5eca8f766efc6002c151bb05,,1,0,81,63,1,80
