consentKey.keys,consentKey.rt,languageL1Key.keys,languageL1Key.rt,languageL2,languageL2OralKey.keys,languageL2OralKey.rt,languageL2WrittenKey.keys,languageL2WrittenKey.rt,languageL3OralKey.keys,languageL3OralKey.rt,languageL3WrittenKey.keys,languageL3WrittenKey.rt,languageCatalanOralKey.keys,languageCatalanOralKey.rt,languageCatalanWrittenKey.keys,languageCatalanWrittenKey.rt,languageCatalanTimeKey.keys,languageCatalanTimeKey.rt,languageSpanishOralKey.keys,languageSpanishOralKey.rt,languageSpanishWrittenKey.keys,languageSpanishWrittenKey.rt,languageSpanishTimeKey.keys,languageSpanishTimeKey.rt,age,demoSexKey.keys,demoSexKey.rt,demoEducationKey.keys,demoEducationKey.rt,city,demoVisionKey.keys,demoVisionKey.rt,demoLanguageKey.keys,demoLanguageKey.rt,setupLocationKey.keys,setupLocationKey.rt,setupNoiseKey.keys,setupNoiseKey.rt,instructionsKeys.keys,instructionsKeys.rt,keyPressed,keyPressTime,inputText,error,trialsPracticeCatalan.thisRepN,trialsPracticeCatalan.thisTrialN,trialsPracticeCatalan.thisN,trialsPracticeCatalan.thisIndex,trialsPracticeCatalan.ran,trialsPracticeCatalan.order,trial_id,word,test_language,soundfile,date,expName,psychopyVersion,OS,frameRate,participant,trialOffset,trialsCatalan.thisRepN,trialsCatalan.thisTrialN,trialsCatalan.thisN,trialsCatalan.thisIndex,trialsCatalan.ran,trialsCatalan.order
space,0.70299983,e,1.953999758,,,,,,,,,,1,3.221999884,1,2.095999956,1,1.954999924,2,2.859999895,1,3.725999832,1,2.280999899,22,f,1.353999853,4,2.261999846,ESSEX,y,2.503000021,n,2.141999722,1,1.729999781,1,3.184999943,space,12.9849999,c,1.398999929,C,FALSE,1,0,5,1,1,4,126,corona,Catalan,Sounds/cat_corona.mp3,2020-06-08_18h21.10.067,TranslationElicitation_eng-prolific,3.2.4,MacIntel,60,5ece703852564823b1b07a59,,,,,,,
,,,,,,,,,,,,,,,,,,,,,,,,,,,,,,,,,,,,,,,,,o,1.565999985,CO,FALSE,1,0,5,1,1,4,126,corona,Catalan,Sounds/cat_corona.mp3,2020-06-08_18h21.10.067,TranslationElicitation_eng-prolific,3.2.4,MacIntel,60,5ece703852564823b1b07a59,,,,,,,
,,,,,,,,,,,,,,,,,,,,,,,,,,,,,,,,,,,,,,,,,r,1.700000048,COR,FALSE,1,0,5,1,1,4,126,corona,Catalan,Sounds/cat_corona.mp3,2020-06-08_18h21.10.067,TranslationElicitation_eng-prolific,3.2.4,MacIntel,60,5ece703852564823b1b07a59,,,,,,,
,,,,,,,,,,,,,,,,,,,,,,,,,,,,,,,,,,,,,,,,,o,1.799000025,CORO,FALSE,1,0,5,1,1,4,126,corona,Catalan,Sounds/cat_corona.mp3,2020-06-08_18h21.10.067,TranslationElicitation_eng-prolific,3.2.4,MacIntel,60,5ece703852564823b1b07a59,,,,,,,
,,,,,,,,,,,,,,,,,,,,,,,,,,,,,,,,,,,,,,,,,n,1.981999874,CORON,FALSE,1,0,5,1,1,4,126,corona,Catalan,Sounds/cat_corona.mp3,2020-06-08_18h21.10.067,TranslationElicitation_eng-prolific,3.2.4,MacIntel,60,5ece703852564823b1b07a59,,,,,,,
,,,,,,,,,,,,,,,,,,,,,,,,,,,,,,,,,,,,,,,,,a,2.115999937,CORONA,FALSE,1,0,5,1,1,4,126,corona,Catalan,Sounds/cat_corona.mp3,2020-06-08_18h21.10.067,TranslationElicitation_eng-prolific,3.2.4,MacIntel,60,5ece703852564823b1b07a59,,,,,,,
,,,,,,,,,,,,,,,,,,,,,,,,,,,,,,,,,,,,,,,,,return,2.467000008,CORONA,FALSE,1,0,5,1,1,4,126,corona,Catalan,Sounds/cat_corona.mp3,2020-06-08_18h21.10.067,TranslationElicitation_eng-prolific,3.2.4,MacIntel,60,5ece703852564823b1b07a59,2.467000008,,,,,,
,,,,,,,,,,,,,,,,,,,,,,,,,,,,,,,,,,,,,,,,,,,,,1,0,5,1,1,4,126,corona,Catalan,Sounds/cat_corona.mp3,2020-06-08_18h21.10.067,TranslationElicitation_eng-prolific,3.2.4,MacIntel,60,5ece703852564823b1b07a59,,,,,,,
,,,,,,,,,,,,,,,,,,,,,,,,,,,,,,,,,,,,,,,,,b,2.432999849,B,FALSE,1,0,5,3,1,4,159,onada,Catalan,Sounds/cat_onada.mp3,2020-06-08_18h21.10.067,TranslationElicitation_eng-prolific,3.2.4,MacIntel,60,5ece703852564823b1b07a59,,,,,,,
,,,,,,,,,,,,,,,,,,,,,,,,,,,,,,,,,,,,,,,,,a,2.549999952,BA,FALSE,1,0,5,3,1,4,159,onada,Catalan,Sounds/cat_onada.mp3,2020-06-08_18h21.10.067,TranslationElicitation_eng-prolific,3.2.4,MacIntel,60,5ece703852564823b1b07a59,,,,,,,
,,,,,,,,,,,,,,,,,,,,,,,,,,,,,,,,,,,,,,,,,n,2.700000048,BAN,FALSE,1,0,5,3,1,4,159,onada,Catalan,Sounds/cat_onada.mp3,2020-06-08_18h21.10.067,TranslationElicitation_eng-prolific,3.2.4,MacIntel,60,5ece703852564823b1b07a59,,,,,,,
,,,,,,,,,,,,,,,,,,,,,,,,,,,,,,,,,,,,,,,,,a,2.932999849,BANA,FALSE,1,0,5,3,1,4,159,onada,Catalan,Sounds/cat_onada.mp3,2020-06-08_18h21.10.067,TranslationElicitation_eng-prolific,3.2.4,MacIntel,60,5ece703852564823b1b07a59,,,,,,,
,,,,,,,,,,,,,,,,,,,,,,,,,,,,,,,,,,,,,,,,,n,3.615999937,BANAN,FALSE,1,0,5,3,1,4,159,onada,Catalan,Sounds/cat_onada.mp3,2020-06-08_18h21.10.067,TranslationElicitation_eng-prolific,3.2.4,MacIntel,60,5ece703852564823b1b07a59,,,,,,,
,,,,,,,,,,,,,,,,,,,,,,,,,,,,,,,,,,,,,,,,,a,3.73300004,BANANA,FALSE,1,0,5,3,1,4,159,onada,Catalan,Sounds/cat_onada.mp3,2020-06-08_18h21.10.067,TranslationElicitation_eng-prolific,3.2.4,MacIntel,60,5ece703852564823b1b07a59,,,,,,,
,,,,,,,,,,,,,,,,,,,,,,,,,,,,,,,,,,,,,,,,,return,4.049999952,BANANA,FALSE,1,0,5,3,1,4,159,onada,Catalan,Sounds/cat_onada.mp3,2020-06-08_18h21.10.067,TranslationElicitation_eng-prolific,3.2.4,MacIntel,60,5ece703852564823b1b07a59,4.049999952,,,,,,
,,,,,,,,,,,,,,,,,,,,,,,,,,,,,,,,,,,,,,,,,,,,,1,0,5,3,1,4,159,onada,Catalan,Sounds/cat_onada.mp3,2020-06-08_18h21.10.067,TranslationElicitation_eng-prolific,3.2.4,MacIntel,60,5ece703852564823b1b07a59,,,,,,,
,,,,,,,,,,,,,,,,,,,,,,,,,,,,,,,,,,,,,,,,,a,1.03399992,A,FALSE,1,0,5,2,1,4,147,jaqueta,Catalan,Sounds/cat_jaqueta.mp3,2020-06-08_18h21.10.067,TranslationElicitation_eng-prolific,3.2.4,MacIntel,60,5ece703852564823b1b07a59,,,,,,,
,,,,,,,,,,,,,,,,,,,,,,,,,,,,,,,,,,,,,,,,,c,1.483999968,AC,FALSE,1,0,5,2,1,4,147,jaqueta,Catalan,Sounds/cat_jaqueta.mp3,2020-06-08_18h21.10.067,TranslationElicitation_eng-prolific,3.2.4,MacIntel,60,5ece703852564823b1b07a59,,,,,,,
,,,,,,,,,,,,,,,,,,,,,,,,,,,,,,,,,,,,,,,,,k,1.599999905,ACK,FALSE,1,0,5,2,1,4,147,jaqueta,Catalan,Sounds/cat_jaqueta.mp3,2020-06-08_18h21.10.067,TranslationElicitation_eng-prolific,3.2.4,MacIntel,60,5ece703852564823b1b07a59,,,,,,,
,,,,,,,,,,,,,,,,,,,,,,,,,,,,,,,,,,,,,,,,,backspace,2.200000048,AC,TRUE,1,0,5,2,1,4,147,jaqueta,Catalan,Sounds/cat_jaqueta.mp3,2020-06-08_18h21.10.067,TranslationElicitation_eng-prolific,3.2.4,MacIntel,60,5ece703852564823b1b07a59,,,,,,,
,,,,,,,,,,,,,,,,,,,,,,,,,,,,,,,,,,,,,,,,,backspace,2.349999905,A,TRUE,1,0,5,2,1,4,147,jaqueta,Catalan,Sounds/cat_jaqueta.mp3,2020-06-08_18h21.10.067,TranslationElicitation_eng-prolific,3.2.4,MacIntel,60,5ece703852564823b1b07a59,,,,,,,
,,,,,,,,,,,,,,,,,,,,,,,,,,,,,,,,,,,,,,,,,backspace,2.499000072,,TRUE,1,0,5,2,1,4,147,jaqueta,Catalan,Sounds/cat_jaqueta.mp3,2020-06-08_18h21.10.067,TranslationElicitation_eng-prolific,3.2.4,MacIntel,60,5ece703852564823b1b07a59,,,,,,,
,,,,,,,,,,,,,,,,,,,,,,,,,,,,,,,,,,,,,,,,,j,3.01699996,J,TRUE,1,0,5,2,1,4,147,jaqueta,Catalan,Sounds/cat_jaqueta.mp3,2020-06-08_18h21.10.067,TranslationElicitation_eng-prolific,3.2.4,MacIntel,60,5ece703852564823b1b07a59,,,,,,,
,,,,,,,,,,,,,,,,,,,,,,,,,,,,,,,,,,,,,,,,,a,3.115999937,JA,TRUE,1,0,5,2,1,4,147,jaqueta,Catalan,Sounds/cat_jaqueta.mp3,2020-06-08_18h21.10.067,TranslationElicitation_eng-prolific,3.2.4,MacIntel,60,5ece703852564823b1b07a59,,,,,,,
,,,,,,,,,,,,,,,,,,,,,,,,,,,,,,,,,,,,,,,,,c,3.30099988,JAC,TRUE,1,0,5,2,1,4,147,jaqueta,Catalan,Sounds/cat_jaqueta.mp3,2020-06-08_18h21.10.067,TranslationElicitation_eng-prolific,3.2.4,MacIntel,60,5ece703852564823b1b07a59,,,,,,,
,,,,,,,,,,,,,,,,,,,,,,,,,,,,,,,,,,,,,,,,,k,3.450000048,JACK,TRUE,1,0,5,2,1,4,147,jaqueta,Catalan,Sounds/cat_jaqueta.mp3,2020-06-08_18h21.10.067,TranslationElicitation_eng-prolific,3.2.4,MacIntel,60,5ece703852564823b1b07a59,,,,,,,
,,,,,,,,,,,,,,,,,,,,,,,,,,,,,,,,,,,,,,,,,e,3.53399992,JACKE,TRUE,1,0,5,2,1,4,147,jaqueta,Catalan,Sounds/cat_jaqueta.mp3,2020-06-08_18h21.10.067,TranslationElicitation_eng-prolific,3.2.4,MacIntel,60,5ece703852564823b1b07a59,,,,,,,
,,,,,,,,,,,,,,,,,,,,,,,,,,,,,,,,,,,,,,,,,t,3.733999968,JACKET,TRUE,1,0,5,2,1,4,147,jaqueta,Catalan,Sounds/cat_jaqueta.mp3,2020-06-08_18h21.10.067,TranslationElicitation_eng-prolific,3.2.4,MacIntel,60,5ece703852564823b1b07a59,,,,,,,
,,,,,,,,,,,,,,,,,,,,,,,,,,,,,,,,,,,,,,,,,return,4.032999992,JACKET,TRUE,1,0,5,2,1,4,147,jaqueta,Catalan,Sounds/cat_jaqueta.mp3,2020-06-08_18h21.10.067,TranslationElicitation_eng-prolific,3.2.4,MacIntel,60,5ece703852564823b1b07a59,4.032999992,,,,,,
,,,,,,,,,,,,,,,,,,,,,,,,,,,,,,,,,,,,,,,,,,,,,1,0,5,2,1,4,147,jaqueta,Catalan,Sounds/cat_jaqueta.mp3,2020-06-08_18h21.10.067,TranslationElicitation_eng-prolific,3.2.4,MacIntel,60,5ece703852564823b1b07a59,,,,,,,
,,,,,,,,,,,,,,,,,,,,,,,,,,,,,,,,,,,,,,,,,t,1.934999943,T,FALSE,1,0,5,4,1,4,179,tigre,Catalan,Sounds/cat_tigre.mp3,2020-06-08_18h21.10.067,TranslationElicitation_eng-prolific,3.2.4,MacIntel,60,5ece703852564823b1b07a59,,,,,,,
,,,,,,,,,,,,,,,,,,,,,,,,,,,,,,,,,,,,,,,,,i,2.083999872,TI,FALSE,1,0,5,4,1,4,179,tigre,Catalan,Sounds/cat_tigre.mp3,2020-06-08_18h21.10.067,TranslationElicitation_eng-prolific,3.2.4,MacIntel,60,5ece703852564823b1b07a59,,,,,,,
,,,,,,,,,,,,,,,,,,,,,,,,,,,,,,,,,,,,,,,,,g,2.233999968,TIG,FALSE,1,0,5,4,1,4,179,tigre,Catalan,Sounds/cat_tigre.mp3,2020-06-08_18h21.10.067,TranslationElicitation_eng-prolific,3.2.4,MacIntel,60,5ece703852564823b1b07a59,,,,,,,
,,,,,,,,,,,,,,,,,,,,,,,,,,,,,,,,,,,,,,,,,e,2.417000055,TIGE,FALSE,1,0,5,4,1,4,179,tigre,Catalan,Sounds/cat_tigre.mp3,2020-06-08_18h21.10.067,TranslationElicitation_eng-prolific,3.2.4,MacIntel,60,5ece703852564823b1b07a59,,,,,,,
,,,,,,,,,,,,,,,,,,,,,,,,,,,,,,,,,,,,,,,,,r,2.568000078,TIGER,FALSE,1,0,5,4,1,4,179,tigre,Catalan,Sounds/cat_tigre.mp3,2020-06-08_18h21.10.067,TranslationElicitation_eng-prolific,3.2.4,MacIntel,60,5ece703852564823b1b07a59,,,,,,,
,,,,,,,,,,,,,,,,,,,,,,,,,,,,,,,,,,,,,,,,,return,2.767999887,TIGER,FALSE,1,0,5,4,1,4,179,tigre,Catalan,Sounds/cat_tigre.mp3,2020-06-08_18h21.10.067,TranslationElicitation_eng-prolific,3.2.4,MacIntel,60,5ece703852564823b1b07a59,2.767999887,,,,,,
,,,,,,,,,,,,,,,,,,,,,,,,,,,,,,,,,,,,,,,,,,,,,1,0,5,4,1,4,179,tigre,Catalan,Sounds/cat_tigre.mp3,2020-06-08_18h21.10.067,TranslationElicitation_eng-prolific,3.2.4,MacIntel,60,5ece703852564823b1b07a59,,,,,,,
,,,,,,,,,,,,,,,,,,,,,,,,,,,,,,,,,,,,,,,,,u,1.782999992,U,FALSE,1,0,5,0,1,4,109,arbre,Catalan,Sounds/cat_arbre.mp3,2020-06-08_18h21.10.067,TranslationElicitation_eng-prolific,3.2.4,MacIntel,60,5ece703852564823b1b07a59,,,,,,,
,,,,,,,,,,,,,,,,,,,,,,,,,,,,,,,,,,,,,,,,,m,2.016000032,UM,FALSE,1,0,5,0,1,4,109,arbre,Catalan,Sounds/cat_arbre.mp3,2020-06-08_18h21.10.067,TranslationElicitation_eng-prolific,3.2.4,MacIntel,60,5ece703852564823b1b07a59,,,,,,,
,,,,,,,,,,,,,,,,,,,,,,,,,,,,,,,,,,,,,,,,,b,2.23300004,UMB,FALSE,1,0,5,0,1,4,109,arbre,Catalan,Sounds/cat_arbre.mp3,2020-06-08_18h21.10.067,TranslationElicitation_eng-prolific,3.2.4,MacIntel,60,5ece703852564823b1b07a59,,,,,,,
,,,,,,,,,,,,,,,,,,,,,,,,,,,,,,,,,,,,,,,,,r,2.367000103,UMBR,FALSE,1,0,5,0,1,4,109,arbre,Catalan,Sounds/cat_arbre.mp3,2020-06-08_18h21.10.067,TranslationElicitation_eng-prolific,3.2.4,MacIntel,60,5ece703852564823b1b07a59,,,,,,,
,,,,,,,,,,,,,,,,,,,,,,,,,,,,,,,,,,,,,,,,,e,2.550000191,UMBRE,FALSE,1,0,5,0,1,4,109,arbre,Catalan,Sounds/cat_arbre.mp3,2020-06-08_18h21.10.067,TranslationElicitation_eng-prolific,3.2.4,MacIntel,60,5ece703852564823b1b07a59,,,,,,,
,,,,,,,,,,,,,,,,,,,,,,,,,,,,,,,,,,,,,,,,,l,2.73300004,UMBREL,FALSE,1,0,5,0,1,4,109,arbre,Catalan,Sounds/cat_arbre.mp3,2020-06-08_18h21.10.067,TranslationElicitation_eng-prolific,3.2.4,MacIntel,60,5ece703852564823b1b07a59,,,,,,,
,,,,,,,,,,,,,,,,,,,,,,,,,,,,,,,,,,,,,,,,,l,2.850000143,UMBRELL,FALSE,1,0,5,0,1,4,109,arbre,Catalan,Sounds/cat_arbre.mp3,2020-06-08_18h21.10.067,TranslationElicitation_eng-prolific,3.2.4,MacIntel,60,5ece703852564823b1b07a59,,,,,,,
,,,,,,,,,,,,,,,,,,,,,,,,,,,,,,,,,,,,,,,,,a,2.933000088,UMBRELLA,FALSE,1,0,5,0,1,4,109,arbre,Catalan,Sounds/cat_arbre.mp3,2020-06-08_18h21.10.067,TranslationElicitation_eng-prolific,3.2.4,MacIntel,60,5ece703852564823b1b07a59,,,,,,,
,,,,,,,,,,,,,,,,,,,,,,,,,,,,,,,,,,,,,,,,,return,3.150000095,UMBRELLA,FALSE,1,0,5,0,1,4,109,arbre,Catalan,Sounds/cat_arbre.mp3,2020-06-08_18h21.10.067,TranslationElicitation_eng-prolific,3.2.4,MacIntel,60,5ece703852564823b1b07a59,3.150000095,,,,,,
,,,,,,,,,,,,,,,,,,,,,,,,,,,,,,,,,,,,,,,,,,,,,1,0,5,0,1,4,109,arbre,Catalan,Sounds/cat_arbre.mp3,2020-06-08_18h21.10.067,TranslationElicitation_eng-prolific,3.2.4,MacIntel,60,5ece703852564823b1b07a59,,,,,,,
,,,,,,,,,,,,,,,,,,,,,,,,,,,,,,,,,,,,,,,,,a,1.23300004,A,FALSE,,,,,,,122,casa,Catalan,Sounds/cat_casa.mp3,2020-06-08_18h21.10.067,TranslationElicitation_eng-prolific,3.2.4,MacIntel,60,5ece703852564823b1b07a59,,1,0,81,17,1,80
,,,,,,,,,,,,,,,,,,,,,,,,,,,,,,,,,,,,,,,,,s,1.334000111,AS,FALSE,,,,,,,122,casa,Catalan,Sounds/cat_casa.mp3,2020-06-08_18h21.10.067,TranslationElicitation_eng-prolific,3.2.4,MacIntel,60,5ece703852564823b1b07a59,,1,0,81,17,1,80
,,,,,,,,,,,,,,,,,,,,,,,,,,,,,,,,,,,,,,,,,t,1.48300004,AST,FALSE,,,,,,,122,casa,Catalan,Sounds/cat_casa.mp3,2020-06-08_18h21.10.067,TranslationElicitation_eng-prolific,3.2.4,MacIntel,60,5ece703852564823b1b07a59,,1,0,81,17,1,80
,,,,,,,,,,,,,,,,,,,,,,,,,,,,,,,,,,,,,,,,,l,1.917000055,ASTL,FALSE,,,,,,,122,casa,Catalan,Sounds/cat_casa.mp3,2020-06-08_18h21.10.067,TranslationElicitation_eng-prolific,3.2.4,MacIntel,60,5ece703852564823b1b07a59,,1,0,81,17,1,80
,,,,,,,,,,,,,,,,,,,,,,,,,,,,,,,,,,,,,,,,,e,2,ASTLE,FALSE,,,,,,,122,casa,Catalan,Sounds/cat_casa.mp3,2020-06-08_18h21.10.067,TranslationElicitation_eng-prolific,3.2.4,MacIntel,60,5ece703852564823b1b07a59,,1,0,81,17,1,80
,,,,,,,,,,,,,,,,,,,,,,,,,,,,,,,,,,,,,,,,,backspace,2.534000158,ASTL,TRUE,,,,,,,122,casa,Catalan,Sounds/cat_casa.mp3,2020-06-08_18h21.10.067,TranslationElicitation_eng-prolific,3.2.4,MacIntel,60,5ece703852564823b1b07a59,,1,0,81,17,1,80
,,,,,,,,,,,,,,,,,,,,,,,,,,,,,,,,,,,,,,,,,backspace,2.684000015,AST,TRUE,,,,,,,122,casa,Catalan,Sounds/cat_casa.mp3,2020-06-08_18h21.10.067,TranslationElicitation_eng-prolific,3.2.4,MacIntel,60,5ece703852564823b1b07a59,,1,0,81,17,1,80
,,,,,,,,,,,,,,,,,,,,,,,,,,,,,,,,,,,,,,,,,backspace,2.833000183,AS,TRUE,,,,,,,122,casa,Catalan,Sounds/cat_casa.mp3,2020-06-08_18h21.10.067,TranslationElicitation_eng-prolific,3.2.4,MacIntel,60,5ece703852564823b1b07a59,,1,0,81,17,1,80
,,,,,,,,,,,,,,,,,,,,,,,,,,,,,,,,,,,,,,,,,backspace,2.984000206,A,TRUE,,,,,,,122,casa,Catalan,Sounds/cat_casa.mp3,2020-06-08_18h21.10.067,TranslationElicitation_eng-prolific,3.2.4,MacIntel,60,5ece703852564823b1b07a59,,1,0,81,17,1,80
,,,,,,,,,,,,,,,,,,,,,,,,,,,,,,,,,,,,,,,,,backspace,3.117000103,,TRUE,,,,,,,122,casa,Catalan,Sounds/cat_casa.mp3,2020-06-08_18h21.10.067,TranslationElicitation_eng-prolific,3.2.4,MacIntel,60,5ece703852564823b1b07a59,,1,0,81,17,1,80
,,,,,,,,,,,,,,,,,,,,,,,,,,,,,,,,,,,,,,,,,backspace,3.251000166,,TRUE,,,,,,,122,casa,Catalan,Sounds/cat_casa.mp3,2020-06-08_18h21.10.067,TranslationElicitation_eng-prolific,3.2.4,MacIntel,60,5ece703852564823b1b07a59,,1,0,81,17,1,80
,,,,,,,,,,,,,,,,,,,,,,,,,,,,,,,,,,,,,,,,,c,3.767000198,C,TRUE,,,,,,,122,casa,Catalan,Sounds/cat_casa.mp3,2020-06-08_18h21.10.067,TranslationElicitation_eng-prolific,3.2.4,MacIntel,60,5ece703852564823b1b07a59,,1,0,81,17,1,80
,,,,,,,,,,,,,,,,,,,,,,,,,,,,,,,,,,,,,,,,,a,3.950000048,CA,TRUE,,,,,,,122,casa,Catalan,Sounds/cat_casa.mp3,2020-06-08_18h21.10.067,TranslationElicitation_eng-prolific,3.2.4,MacIntel,60,5ece703852564823b1b07a59,,1,0,81,17,1,80
,,,,,,,,,,,,,,,,,,,,,,,,,,,,,,,,,,,,,,,,,s,4.051000118,CAS,TRUE,,,,,,,122,casa,Catalan,Sounds/cat_casa.mp3,2020-06-08_18h21.10.067,TranslationElicitation_eng-prolific,3.2.4,MacIntel,60,5ece703852564823b1b07a59,,1,0,81,17,1,80
,,,,,,,,,,,,,,,,,,,,,,,,,,,,,,,,,,,,,,,,,t,4.217000008,CAST,TRUE,,,,,,,122,casa,Catalan,Sounds/cat_casa.mp3,2020-06-08_18h21.10.067,TranslationElicitation_eng-prolific,3.2.4,MacIntel,60,5ece703852564823b1b07a59,,1,0,81,17,1,80
,,,,,,,,,,,,,,,,,,,,,,,,,,,,,,,,,,,,,,,,,l,4.767000198,CASTL,TRUE,,,,,,,122,casa,Catalan,Sounds/cat_casa.mp3,2020-06-08_18h21.10.067,TranslationElicitation_eng-prolific,3.2.4,MacIntel,60,5ece703852564823b1b07a59,,1,0,81,17,1,80
,,,,,,,,,,,,,,,,,,,,,,,,,,,,,,,,,,,,,,,,,e,4.884000063,CASTLE,TRUE,,,,,,,122,casa,Catalan,Sounds/cat_casa.mp3,2020-06-08_18h21.10.067,TranslationElicitation_eng-prolific,3.2.4,MacIntel,60,5ece703852564823b1b07a59,,1,0,81,17,1,80
,,,,,,,,,,,,,,,,,,,,,,,,,,,,,,,,,,,,,,,,,return,5.200999975,CASTLE,TRUE,,,,,,,122,casa,Catalan,Sounds/cat_casa.mp3,2020-06-08_18h21.10.067,TranslationElicitation_eng-prolific,3.2.4,MacIntel,60,5ece703852564823b1b07a59,5.200999975,1,0,81,17,1,80
,,,,,,,,,,,,,,,,,,,,,,,,,,,,,,,,,,,,,,,,,,,,,,,,,,,122,casa,Catalan,Sounds/cat_casa.mp3,2020-06-08_18h21.10.067,TranslationElicitation_eng-prolific,3.2.4,MacIntel,60,5ece703852564823b1b07a59,,1,0,81,17,1,80
,,,,,,,,,,,,,,,,,,,,,,,,,,,,,,,,,,,,,,,,,f,1.782999992,F,FALSE,,,,,,,137,fulla,Catalan,Sounds/cat_fulla.mp3,2020-06-08_18h21.10.067,TranslationElicitation_eng-prolific,3.2.4,MacIntel,60,5ece703852564823b1b07a59,,1,0,81,31,1,80
,,,,,,,,,,,,,,,,,,,,,,,,,,,,,,,,,,,,,,,,,o,1.901000023,FO,FALSE,,,,,,,137,fulla,Catalan,Sounds/cat_fulla.mp3,2020-06-08_18h21.10.067,TranslationElicitation_eng-prolific,3.2.4,MacIntel,60,5ece703852564823b1b07a59,,1,0,81,31,1,80
,,,,,,,,,,,,,,,,,,,,,,,,,,,,,,,,,,,,,,,,,i,2.068000078,FOI,FALSE,,,,,,,137,fulla,Catalan,Sounds/cat_fulla.mp3,2020-06-08_18h21.10.067,TranslationElicitation_eng-prolific,3.2.4,MacIntel,60,5ece703852564823b1b07a59,,1,0,81,31,1,80
,,,,,,,,,,,,,,,,,,,,,,,,,,,,,,,,,,,,,,,,,l,2.26699996,FOIL,FALSE,,,,,,,137,fulla,Catalan,Sounds/cat_fulla.mp3,2020-06-08_18h21.10.067,TranslationElicitation_eng-prolific,3.2.4,MacIntel,60,5ece703852564823b1b07a59,,1,0,81,31,1,80
,,,,,,,,,,,,,,,,,,,,,,,,,,,,,,,,,,,,,,,,,return,2.717000008,FOIL,FALSE,,,,,,,137,fulla,Catalan,Sounds/cat_fulla.mp3,2020-06-08_18h21.10.067,TranslationElicitation_eng-prolific,3.2.4,MacIntel,60,5ece703852564823b1b07a59,2.717000008,1,0,81,31,1,80
,,,,,,,,,,,,,,,,,,,,,,,,,,,,,,,,,,,,,,,,,,,,,,,,,,,137,fulla,Catalan,Sounds/cat_fulla.mp3,2020-06-08_18h21.10.067,TranslationElicitation_eng-prolific,3.2.4,MacIntel,60,5ece703852564823b1b07a59,,1,0,81,31,1,80
,,,,,,,,,,,,,,,,,,,,,,,,,,,,,,,,,,,,,,,,,d,1.950000048,D,FALSE,,,,,,,129,dit,Catalan,Sounds/cat_dit.mp3,2020-06-08_18h21.10.067,TranslationElicitation_eng-prolific,3.2.4,MacIntel,60,5ece703852564823b1b07a59,,1,0,81,23,1,80
,,,,,,,,,,,,,,,,,,,,,,,,,,,,,,,,,,,,,,,,,a,2.150000095,DA,FALSE,,,,,,,129,dit,Catalan,Sounds/cat_dit.mp3,2020-06-08_18h21.10.067,TranslationElicitation_eng-prolific,3.2.4,MacIntel,60,5ece703852564823b1b07a59,,1,0,81,23,1,80
,,,,,,,,,,,,,,,,,,,,,,,,,,,,,,,,,,,,,,,,,y,2.267000198,DAY,FALSE,,,,,,,129,dit,Catalan,Sounds/cat_dit.mp3,2020-06-08_18h21.10.067,TranslationElicitation_eng-prolific,3.2.4,MacIntel,60,5ece703852564823b1b07a59,,1,0,81,23,1,80
,,,,,,,,,,,,,,,,,,,,,,,,,,,,,,,,,,,,,,,,,return,2.69900012,DAY,FALSE,,,,,,,129,dit,Catalan,Sounds/cat_dit.mp3,2020-06-08_18h21.10.067,TranslationElicitation_eng-prolific,3.2.4,MacIntel,60,5ece703852564823b1b07a59,2.69900012,1,0,81,23,1,80
,,,,,,,,,,,,,,,,,,,,,,,,,,,,,,,,,,,,,,,,,,,,,,,,,,,129,dit,Catalan,Sounds/cat_dit.mp3,2020-06-08_18h21.10.067,TranslationElicitation_eng-prolific,3.2.4,MacIntel,60,5ece703852564823b1b07a59,,1,0,81,23,1,80
,,,,,,,,,,,,,,,,,,,,,,,,,,,,,,,,,,,,,,,,,p,4.25,P,FALSE,,,,,,,117,boto,Catalan,Sounds/cat_boto.mp3,2020-06-08_18h21.10.067,TranslationElicitation_eng-prolific,3.2.4,MacIntel,60,5ece703852564823b1b07a59,,1,0,81,12,1,80
,,,,,,,,,,,,,,,,,,,,,,,,,,,,,,,,,,,,,,,,,a,4.351000071,PA,FALSE,,,,,,,117,boto,Catalan,Sounds/cat_boto.mp3,2020-06-08_18h21.10.067,TranslationElicitation_eng-prolific,3.2.4,MacIntel,60,5ece703852564823b1b07a59,,1,0,81,12,1,80
,,,,,,,,,,,,,,,,,,,,,,,,,,,,,,,,,,,,,,,,,backspace,4.76699996,P,TRUE,,,,,,,117,boto,Catalan,Sounds/cat_boto.mp3,2020-06-08_18h21.10.067,TranslationElicitation_eng-prolific,3.2.4,MacIntel,60,5ece703852564823b1b07a59,,1,0,81,12,1,80
,,,,,,,,,,,,,,,,,,,,,,,,,,,,,,,,,,,,,,,,,backspace,4.917999983,,TRUE,,,,,,,117,boto,Catalan,Sounds/cat_boto.mp3,2020-06-08_18h21.10.067,TranslationElicitation_eng-prolific,3.2.4,MacIntel,60,5ece703852564823b1b07a59,,1,0,81,12,1,80
,,,,,,,,,,,,,,,,,,,,,,,,,,,,,,,,,,,,,,,,,b,5.450999975,B,TRUE,,,,,,,117,boto,Catalan,Sounds/cat_boto.mp3,2020-06-08_18h21.10.067,TranslationElicitation_eng-prolific,3.2.4,MacIntel,60,5ece703852564823b1b07a59,,1,0,81,12,1,80
,,,,,,,,,,,,,,,,,,,,,,,,,,,,,,,,,,,,,,,,,o,5.600000143,BO,TRUE,,,,,,,117,boto,Catalan,Sounds/cat_boto.mp3,2020-06-08_18h21.10.067,TranslationElicitation_eng-prolific,3.2.4,MacIntel,60,5ece703852564823b1b07a59,,1,0,81,12,1,80
,,,,,,,,,,,,,,,,,,,,,,,,,,,,,,,,,,,,,,,,,t,5.751000166,BOT,TRUE,,,,,,,117,boto,Catalan,Sounds/cat_boto.mp3,2020-06-08_18h21.10.067,TranslationElicitation_eng-prolific,3.2.4,MacIntel,60,5ece703852564823b1b07a59,,1,0,81,12,1,80
,,,,,,,,,,,,,,,,,,,,,,,,,,,,,,,,,,,,,,,,,t,5.884000063,BOTT,TRUE,,,,,,,117,boto,Catalan,Sounds/cat_boto.mp3,2020-06-08_18h21.10.067,TranslationElicitation_eng-prolific,3.2.4,MacIntel,60,5ece703852564823b1b07a59,,1,0,81,12,1,80
,,,,,,,,,,,,,,,,,,,,,,,,,,,,,,,,,,,,,,,,,l,6.016000032,BOTTL,TRUE,,,,,,,117,boto,Catalan,Sounds/cat_boto.mp3,2020-06-08_18h21.10.067,TranslationElicitation_eng-prolific,3.2.4,MacIntel,60,5ece703852564823b1b07a59,,1,0,81,12,1,80
,,,,,,,,,,,,,,,,,,,,,,,,,,,,,,,,,,,,,,,,,e,6.134000063,BOTTLE,TRUE,,,,,,,117,boto,Catalan,Sounds/cat_boto.mp3,2020-06-08_18h21.10.067,TranslationElicitation_eng-prolific,3.2.4,MacIntel,60,5ece703852564823b1b07a59,,1,0,81,12,1,80
,,,,,,,,,,,,,,,,,,,,,,,,,,,,,,,,,,,,,,,,,return,6.334000111,BOTTLE,TRUE,,,,,,,117,boto,Catalan,Sounds/cat_boto.mp3,2020-06-08_18h21.10.067,TranslationElicitation_eng-prolific,3.2.4,MacIntel,60,5ece703852564823b1b07a59,6.334000111,1,0,81,12,1,80
,,,,,,,,,,,,,,,,,,,,,,,,,,,,,,,,,,,,,,,,,,,,,,,,,,,117,boto,Catalan,Sounds/cat_boto.mp3,2020-06-08_18h21.10.067,TranslationElicitation_eng-prolific,3.2.4,MacIntel,60,5ece703852564823b1b07a59,,1,0,81,12,1,80
,,,,,,,,,,,,,,,,,,,,,,,,,,,,,,,,,,,,,,,,,o,4.866999865,O,FALSE,,,,,,,185,ulleres,Catalan,Sounds/cat_ulleres.mp3,2020-06-08_18h21.10.067,TranslationElicitation_eng-prolific,3.2.4,MacIntel,60,5ece703852564823b1b07a59,,1,0,81,76,1,80
,,,,,,,,,,,,,,,,,,,,,,,,,,,,,,,,,,,,,,,,,r,4.983999968,OR,FALSE,,,,,,,185,ulleres,Catalan,Sounds/cat_ulleres.mp3,2020-06-08_18h21.10.067,TranslationElicitation_eng-prolific,3.2.4,MacIntel,60,5ece703852564823b1b07a59,,1,0,81,76,1,80
,,,,,,,,,,,,,,,,,,,,,,,,,,,,,,,,,,,,,,,,,a,5.250999928,ORA,FALSE,,,,,,,185,ulleres,Catalan,Sounds/cat_ulleres.mp3,2020-06-08_18h21.10.067,TranslationElicitation_eng-prolific,3.2.4,MacIntel,60,5ece703852564823b1b07a59,,1,0,81,76,1,80
,,,,,,,,,,,,,,,,,,,,,,,,,,,,,,,,,,,,,,,,,n,5.417999983,ORAN,FALSE,,,,,,,185,ulleres,Catalan,Sounds/cat_ulleres.mp3,2020-06-08_18h21.10.067,TranslationElicitation_eng-prolific,3.2.4,MacIntel,60,5ece703852564823b1b07a59,,1,0,81,76,1,80
,,,,,,,,,,,,,,,,,,,,,,,,,,,,,,,,,,,,,,,,,g,5.618000031,ORANG,FALSE,,,,,,,185,ulleres,Catalan,Sounds/cat_ulleres.mp3,2020-06-08_18h21.10.067,TranslationElicitation_eng-prolific,3.2.4,MacIntel,60,5ece703852564823b1b07a59,,1,0,81,76,1,80
,,,,,,,,,,,,,,,,,,,,,,,,,,,,,,,,,,,,,,,,,e,5.733999968,ORANGE,FALSE,,,,,,,185,ulleres,Catalan,Sounds/cat_ulleres.mp3,2020-06-08_18h21.10.067,TranslationElicitation_eng-prolific,3.2.4,MacIntel,60,5ece703852564823b1b07a59,,1,0,81,76,1,80
,,,,,,,,,,,,,,,,,,,,,,,,,,,,,,,,,,,,,,,,,s,5.917000055,ORANGES,FALSE,,,,,,,185,ulleres,Catalan,Sounds/cat_ulleres.mp3,2020-06-08_18h21.10.067,TranslationElicitation_eng-prolific,3.2.4,MacIntel,60,5ece703852564823b1b07a59,,1,0,81,76,1,80
,,,,,,,,,,,,,,,,,,,,,,,,,,,,,,,,,,,,,,,,,return,6.434000015,ORANGES,FALSE,,,,,,,185,ulleres,Catalan,Sounds/cat_ulleres.mp3,2020-06-08_18h21.10.067,TranslationElicitation_eng-prolific,3.2.4,MacIntel,60,5ece703852564823b1b07a59,6.434000015,1,0,81,76,1,80
,,,,,,,,,,,,,,,,,,,,,,,,,,,,,,,,,,,,,,,,,,,,,,,,,,,185,ulleres,Catalan,Sounds/cat_ulleres.mp3,2020-06-08_18h21.10.067,TranslationElicitation_eng-prolific,3.2.4,MacIntel,60,5ece703852564823b1b07a59,,1,0,81,76,1,80
,,,,,,,,,,,,,,,,,,,,,,,,,,,,,,,,,,,,,,,,,w,3.032999992,W,FALSE,,,,,,,161,ovella,Catalan,Sounds/cat_ovella.mp3,2020-06-08_18h21.10.067,TranslationElicitation_eng-prolific,3.2.4,MacIntel,60,5ece703852564823b1b07a59,,1,0,81,53,1,80
,,,,,,,,,,,,,,,,,,,,,,,,,,,,,,,,,,,,,,,,,e,3.165999889,WE,FALSE,,,,,,,161,ovella,Catalan,Sounds/cat_ovella.mp3,2020-06-08_18h21.10.067,TranslationElicitation_eng-prolific,3.2.4,MacIntel,60,5ece703852564823b1b07a59,,1,0,81,53,1,80
,,,,,,,,,,,,,,,,,,,,,,,,,,,,,,,,,,,,,,,,,a,3.365999937,WEA,FALSE,,,,,,,161,ovella,Catalan,Sounds/cat_ovella.mp3,2020-06-08_18h21.10.067,TranslationElicitation_eng-prolific,3.2.4,MacIntel,60,5ece703852564823b1b07a59,,1,0,81,53,1,80
,,,,,,,,,,,,,,,,,,,,,,,,,,,,,,,,,,,,,,,,,t,3.61500001,WEAT,FALSE,,,,,,,161,ovella,Catalan,Sounds/cat_ovella.mp3,2020-06-08_18h21.10.067,TranslationElicitation_eng-prolific,3.2.4,MacIntel,60,5ece703852564823b1b07a59,,1,0,81,53,1,80
,,,,,,,,,,,,,,,,,,,,,,,,,,,,,,,,,,,,,,,,,h,3.749000072,WEATH,FALSE,,,,,,,161,ovella,Catalan,Sounds/cat_ovella.mp3,2020-06-08_18h21.10.067,TranslationElicitation_eng-prolific,3.2.4,MacIntel,60,5ece703852564823b1b07a59,,1,0,81,53,1,80
,,,,,,,,,,,,,,,,,,,,,,,,,,,,,,,,,,,,,,,,,e,3.799000025,WEATHE,FALSE,,,,,,,161,ovella,Catalan,Sounds/cat_ovella.mp3,2020-06-08_18h21.10.067,TranslationElicitation_eng-prolific,3.2.4,MacIntel,60,5ece703852564823b1b07a59,,1,0,81,53,1,80
,,,,,,,,,,,,,,,,,,,,,,,,,,,,,,,,,,,,,,,,,r,3.933000088,WEATHER,FALSE,,,,,,,161,ovella,Catalan,Sounds/cat_ovella.mp3,2020-06-08_18h21.10.067,TranslationElicitation_eng-prolific,3.2.4,MacIntel,60,5ece703852564823b1b07a59,,1,0,81,53,1,80
,,,,,,,,,,,,,,,,,,,,,,,,,,,,,,,,,,,,,,,,,return,4.450000048,WEATHER,FALSE,,,,,,,161,ovella,Catalan,Sounds/cat_ovella.mp3,2020-06-08_18h21.10.067,TranslationElicitation_eng-prolific,3.2.4,MacIntel,60,5ece703852564823b1b07a59,4.450000048,1,0,81,53,1,80
,,,,,,,,,,,,,,,,,,,,,,,,,,,,,,,,,,,,,,,,,,,,,,,,,,,161,ovella,Catalan,Sounds/cat_ovella.mp3,2020-06-08_18h21.10.067,TranslationElicitation_eng-prolific,3.2.4,MacIntel,60,5ece703852564823b1b07a59,,1,0,81,53,1,80
,,,,,,,,,,,,,,,,,,,,,,,,,,,,,,,,,,,,,,,,,m,1.631999969,M,FALSE,,,,,,,156,moto,Catalan,Sounds/cat_moto.mp3,2020-06-08_18h21.10.067,TranslationElicitation_eng-prolific,3.2.4,MacIntel,60,5ece703852564823b1b07a59,,1,0,81,49,1,80
,,,,,,,,,,,,,,,,,,,,,,,,,,,,,,,,,,,,,,,,,t,1.983999968,MT,FALSE,,,,,,,156,moto,Catalan,Sounds/cat_moto.mp3,2020-06-08_18h21.10.067,TranslationElicitation_eng-prolific,3.2.4,MacIntel,60,5ece703852564823b1b07a59,,1,0,81,49,1,80
,,,,,,,,,,,,,,,,,,,,,,,,,,,,,,,,,,,,,,,,,backspace,2.76699996,M,TRUE,,,,,,,156,moto,Catalan,Sounds/cat_moto.mp3,2020-06-08_18h21.10.067,TranslationElicitation_eng-prolific,3.2.4,MacIntel,60,5ece703852564823b1b07a59,,1,0,81,49,1,80
,,,,,,,,,,,,,,,,,,,,,,,,,,,,,,,,,,,,,,,,,o,3.065999985,MO,TRUE,,,,,,,156,moto,Catalan,Sounds/cat_moto.mp3,2020-06-08_18h21.10.067,TranslationElicitation_eng-prolific,3.2.4,MacIntel,60,5ece703852564823b1b07a59,,1,0,81,49,1,80
,,,,,,,,,,,,,,,,,,,,,,,,,,,,,,,,,,,,,,,,,t,3.266000032,MOT,TRUE,,,,,,,156,moto,Catalan,Sounds/cat_moto.mp3,2020-06-08_18h21.10.067,TranslationElicitation_eng-prolific,3.2.4,MacIntel,60,5ece703852564823b1b07a59,,1,0,81,49,1,80
,,,,,,,,,,,,,,,,,,,,,,,,,,,,,,,,,,,,,,,,,o,3.382999897,MOTO,TRUE,,,,,,,156,moto,Catalan,Sounds/cat_moto.mp3,2020-06-08_18h21.10.067,TranslationElicitation_eng-prolific,3.2.4,MacIntel,60,5ece703852564823b1b07a59,,1,0,81,49,1,80
,,,,,,,,,,,,,,,,,,,,,,,,,,,,,,,,,,,,,,,,,r,3.566999912,MOTOR,TRUE,,,,,,,156,moto,Catalan,Sounds/cat_moto.mp3,2020-06-08_18h21.10.067,TranslationElicitation_eng-prolific,3.2.4,MacIntel,60,5ece703852564823b1b07a59,,1,0,81,49,1,80
,,,,,,,,,,,,,,,,,,,,,,,,,,,,,,,,,,,,,,,,,return,3.934000015,MOTOR,TRUE,,,,,,,156,moto,Catalan,Sounds/cat_moto.mp3,2020-06-08_18h21.10.067,TranslationElicitation_eng-prolific,3.2.4,MacIntel,60,5ece703852564823b1b07a59,3.934000015,1,0,81,49,1,80
,,,,,,,,,,,,,,,,,,,,,,,,,,,,,,,,,,,,,,,,,,,,,,,,,,,156,moto,Catalan,Sounds/cat_moto.mp3,2020-06-08_18h21.10.067,TranslationElicitation_eng-prolific,3.2.4,MacIntel,60,5ece703852564823b1b07a59,,1,0,81,49,1,80
,,,,,,,,,,,,,,,,,,,,,,,,,,,,,,,,,,,,,,,,,w,3.367000103,W,FALSE,,,,,,,121,camisa,Catalan,Sounds/cat_camisa.mp3,2020-06-08_18h21.10.067,TranslationElicitation_eng-prolific,3.2.4,MacIntel,60,5ece703852564823b1b07a59,,1,0,81,16,1,80
,,,,,,,,,,,,,,,,,,,,,,,,,,,,,,,,,,,,,,,,,a,3.534000158,WA,FALSE,,,,,,,121,camisa,Catalan,Sounds/cat_camisa.mp3,2020-06-08_18h21.10.067,TranslationElicitation_eng-prolific,3.2.4,MacIntel,60,5ece703852564823b1b07a59,,1,0,81,16,1,80
,,,,,,,,,,,,,,,,,,,,,,,,,,,,,,,,,,,,,,,,,r,3.801000118,WAR,FALSE,,,,,,,121,camisa,Catalan,Sounds/cat_camisa.mp3,2020-06-08_18h21.10.067,TranslationElicitation_eng-prolific,3.2.4,MacIntel,60,5ece703852564823b1b07a59,,1,0,81,16,1,80
,,,,,,,,,,,,,,,,,,,,,,,,,,,,,,,,,,,,,,,,,d,3.984000206,WARD,FALSE,,,,,,,121,camisa,Catalan,Sounds/cat_camisa.mp3,2020-06-08_18h21.10.067,TranslationElicitation_eng-prolific,3.2.4,MacIntel,60,5ece703852564823b1b07a59,,1,0,81,16,1,80
,,,,,,,,,,,,,,,,,,,,,,,,,,,,,,,,,,,,,,,,,r,4.168000221,WARDR,FALSE,,,,,,,121,camisa,Catalan,Sounds/cat_camisa.mp3,2020-06-08_18h21.10.067,TranslationElicitation_eng-prolific,3.2.4,MacIntel,60,5ece703852564823b1b07a59,,1,0,81,16,1,80
,,,,,,,,,,,,,,,,,,,,,,,,,,,,,,,,,,,,,,,,,o,5.201000214,WARDRO,FALSE,,,,,,,121,camisa,Catalan,Sounds/cat_camisa.mp3,2020-06-08_18h21.10.067,TranslationElicitation_eng-prolific,3.2.4,MacIntel,60,5ece703852564823b1b07a59,,1,0,81,16,1,80
,,,,,,,,,,,,,,,,,,,,,,,,,,,,,,,,,,,,,,,,,b,5.451000214,WARDROB,FALSE,,,,,,,121,camisa,Catalan,Sounds/cat_camisa.mp3,2020-06-08_18h21.10.067,TranslationElicitation_eng-prolific,3.2.4,MacIntel,60,5ece703852564823b1b07a59,,1,0,81,16,1,80
,,,,,,,,,,,,,,,,,,,,,,,,,,,,,,,,,,,,,,,,,e,5.618000031,WARDROBE,FALSE,,,,,,,121,camisa,Catalan,Sounds/cat_camisa.mp3,2020-06-08_18h21.10.067,TranslationElicitation_eng-prolific,3.2.4,MacIntel,60,5ece703852564823b1b07a59,,1,0,81,16,1,80
,,,,,,,,,,,,,,,,,,,,,,,,,,,,,,,,,,,,,,,,,return,5.851000071,WARDROBE,FALSE,,,,,,,121,camisa,Catalan,Sounds/cat_camisa.mp3,2020-06-08_18h21.10.067,TranslationElicitation_eng-prolific,3.2.4,MacIntel,60,5ece703852564823b1b07a59,5.851000071,1,0,81,16,1,80
,,,,,,,,,,,,,,,,,,,,,,,,,,,,,,,,,,,,,,,,,,,,,,,,,,,121,camisa,Catalan,Sounds/cat_camisa.mp3,2020-06-08_18h21.10.067,TranslationElicitation_eng-prolific,3.2.4,MacIntel,60,5ece703852564823b1b07a59,,1,0,81,16,1,80
,,,,,,,,,,,,,,,,,,,,,,,,,,,,,,,,,,,,,,,,,g,2.149000168,G,FALSE,,,,,,,140,gat,Catalan,Sounds/cat_gat.mp3,2020-06-08_18h21.10.067,TranslationElicitation_eng-prolific,3.2.4,MacIntel,60,5ece703852564823b1b07a59,,1,0,81,34,1,80
,,,,,,,,,,,,,,,,,,,,,,,,,,,,,,,,,,,,,,,,,u,2.383000135,GU,FALSE,,,,,,,140,gat,Catalan,Sounds/cat_gat.mp3,2020-06-08_18h21.10.067,TranslationElicitation_eng-prolific,3.2.4,MacIntel,60,5ece703852564823b1b07a59,,1,0,81,34,1,80
,,,,,,,,,,,,,,,,,,,,,,,,,,,,,,,,,,,,,,,,,a,2.46600008,GUA,FALSE,,,,,,,140,gat,Catalan,Sounds/cat_gat.mp3,2020-06-08_18h21.10.067,TranslationElicitation_eng-prolific,3.2.4,MacIntel,60,5ece703852564823b1b07a59,,1,0,81,34,1,80
,,,,,,,,,,,,,,,,,,,,,,,,,,,,,,,,,,,,,,,,,r,2.700000048,GUAR,FALSE,,,,,,,140,gat,Catalan,Sounds/cat_gat.mp3,2020-06-08_18h21.10.067,TranslationElicitation_eng-prolific,3.2.4,MacIntel,60,5ece703852564823b1b07a59,,1,0,81,34,1,80
,,,,,,,,,,,,,,,,,,,,,,,,,,,,,,,,,,,,,,,,,d,2.883000135,GUARD,FALSE,,,,,,,140,gat,Catalan,Sounds/cat_gat.mp3,2020-06-08_18h21.10.067,TranslationElicitation_eng-prolific,3.2.4,MacIntel,60,5ece703852564823b1b07a59,,1,0,81,34,1,80
,,,,,,,,,,,,,,,,,,,,,,,,,,,,,,,,,,,,,,,,,return,3.100000143,GUARD,FALSE,,,,,,,140,gat,Catalan,Sounds/cat_gat.mp3,2020-06-08_18h21.10.067,TranslationElicitation_eng-prolific,3.2.4,MacIntel,60,5ece703852564823b1b07a59,3.100000143,1,0,81,34,1,80
,,,,,,,,,,,,,,,,,,,,,,,,,,,,,,,,,,,,,,,,,,,,,,,,,,,140,gat,Catalan,Sounds/cat_gat.mp3,2020-06-08_18h21.10.067,TranslationElicitation_eng-prolific,3.2.4,MacIntel,60,5ece703852564823b1b07a59,,1,0,81,34,1,80
,,,,,,,,,,,,,,,,,,,,,,,,,,,,,,,,,,,,,,,,,b,3.80099988,B,FALSE,,,,,,,110,berenar,Catalan,Sounds/cat_berenar.mp3,2020-06-08_18h21.10.067,TranslationElicitation_eng-prolific,3.2.4,MacIntel,60,5ece703852564823b1b07a59,,1,0,81,5,1,80
,,,,,,,,,,,,,,,,,,,,,,,,,,,,,,,,,,,,,,,,,a,3.917999983,BA,FALSE,,,,,,,110,berenar,Catalan,Sounds/cat_berenar.mp3,2020-06-08_18h21.10.067,TranslationElicitation_eng-prolific,3.2.4,MacIntel,60,5ece703852564823b1b07a59,,1,0,81,5,1,80
,,,,,,,,,,,,,,,,,,,,,,,,,,,,,,,,,,,,,,,,,n,4.083999872,BAN,FALSE,,,,,,,110,berenar,Catalan,Sounds/cat_berenar.mp3,2020-06-08_18h21.10.067,TranslationElicitation_eng-prolific,3.2.4,MacIntel,60,5ece703852564823b1b07a59,,1,0,81,5,1,80
,,,,,,,,,,,,,,,,,,,,,,,,,,,,,,,,,,,,,,,,,a,4.217000008,BANA,FALSE,,,,,,,110,berenar,Catalan,Sounds/cat_berenar.mp3,2020-06-08_18h21.10.067,TranslationElicitation_eng-prolific,3.2.4,MacIntel,60,5ece703852564823b1b07a59,,1,0,81,5,1,80
,,,,,,,,,,,,,,,,,,,,,,,,,,,,,,,,,,,,,,,,,n,4.434999943,BANAN,FALSE,,,,,,,110,berenar,Catalan,Sounds/cat_berenar.mp3,2020-06-08_18h21.10.067,TranslationElicitation_eng-prolific,3.2.4,MacIntel,60,5ece703852564823b1b07a59,,1,0,81,5,1,80
,,,,,,,,,,,,,,,,,,,,,,,,,,,,,,,,,,,,,,,,,a,4.566999912,BANANA,FALSE,,,,,,,110,berenar,Catalan,Sounds/cat_berenar.mp3,2020-06-08_18h21.10.067,TranslationElicitation_eng-prolific,3.2.4,MacIntel,60,5ece703852564823b1b07a59,,1,0,81,5,1,80
,,,,,,,,,,,,,,,,,,,,,,,,,,,,,,,,,,,,,,,,,return,4.967999935,BANANA,FALSE,,,,,,,110,berenar,Catalan,Sounds/cat_berenar.mp3,2020-06-08_18h21.10.067,TranslationElicitation_eng-prolific,3.2.4,MacIntel,60,5ece703852564823b1b07a59,4.967999935,1,0,81,5,1,80
,,,,,,,,,,,,,,,,,,,,,,,,,,,,,,,,,,,,,,,,,,,,,,,,,,,110,berenar,Catalan,Sounds/cat_berenar.mp3,2020-06-08_18h21.10.067,TranslationElicitation_eng-prolific,3.2.4,MacIntel,60,5ece703852564823b1b07a59,,1,0,81,5,1,80
,,,,,,,,,,,,,,,,,,,,,,,,,,,,,,,,,,,,,,,,,t,3.215999842,T,FALSE,,,,,,,178,taronja,Catalan,Sounds/cat_taronja.mp3,2020-06-08_18h21.10.067,TranslationElicitation_eng-prolific,3.2.4,MacIntel,60,5ece703852564823b1b07a59,,1,0,81,70,1,80
,,,,,,,,,,,,,,,,,,,,,,,,,,,,,,,,,,,,,,,,,a,3.366999865,TA,FALSE,,,,,,,178,taronja,Catalan,Sounds/cat_taronja.mp3,2020-06-08_18h21.10.067,TranslationElicitation_eng-prolific,3.2.4,MacIntel,60,5ece703852564823b1b07a59,,1,0,81,70,1,80
,,,,,,,,,,,,,,,,,,,,,,,,,,,,,,,,,,,,,,,,,r,3.967000008,TAR,FALSE,,,,,,,178,taronja,Catalan,Sounds/cat_taronja.mp3,2020-06-08_18h21.10.067,TranslationElicitation_eng-prolific,3.2.4,MacIntel,60,5ece703852564823b1b07a59,,1,0,81,70,1,80
,,,,,,,,,,,,,,,,,,,,,,,,,,,,,,,,,,,,,,,,,a,4.167000055,TARA,FALSE,,,,,,,178,taronja,Catalan,Sounds/cat_taronja.mp3,2020-06-08_18h21.10.067,TranslationElicitation_eng-prolific,3.2.4,MacIntel,60,5ece703852564823b1b07a59,,1,0,81,70,1,80
,,,,,,,,,,,,,,,,,,,,,,,,,,,,,,,,,,,,,,,,,n,4.365999937,TARAN,FALSE,,,,,,,178,taronja,Catalan,Sounds/cat_taronja.mp3,2020-06-08_18h21.10.067,TranslationElicitation_eng-prolific,3.2.4,MacIntel,60,5ece703852564823b1b07a59,,1,0,81,70,1,80
,,,,,,,,,,,,,,,,,,,,,,,,,,,,,,,,,,,,,,,,,t,4.465999842,TARANT,FALSE,,,,,,,178,taronja,Catalan,Sounds/cat_taronja.mp3,2020-06-08_18h21.10.067,TranslationElicitation_eng-prolific,3.2.4,MacIntel,60,5ece703852564823b1b07a59,,1,0,81,70,1,80
,,,,,,,,,,,,,,,,,,,,,,,,,,,,,,,,,,,,,,,,,u,4.649999857,TARANTU,FALSE,,,,,,,178,taronja,Catalan,Sounds/cat_taronja.mp3,2020-06-08_18h21.10.067,TranslationElicitation_eng-prolific,3.2.4,MacIntel,60,5ece703852564823b1b07a59,,1,0,81,70,1,80
,,,,,,,,,,,,,,,,,,,,,,,,,,,,,,,,,,,,,,,,,l,5.23300004,TARANTUL,FALSE,,,,,,,178,taronja,Catalan,Sounds/cat_taronja.mp3,2020-06-08_18h21.10.067,TranslationElicitation_eng-prolific,3.2.4,MacIntel,60,5ece703852564823b1b07a59,,1,0,81,70,1,80
,,,,,,,,,,,,,,,,,,,,,,,,,,,,,,,,,,,,,,,,,a,5.351000071,TARANTULA,FALSE,,,,,,,178,taronja,Catalan,Sounds/cat_taronja.mp3,2020-06-08_18h21.10.067,TranslationElicitation_eng-prolific,3.2.4,MacIntel,60,5ece703852564823b1b07a59,,1,0,81,70,1,80
,,,,,,,,,,,,,,,,,,,,,,,,,,,,,,,,,,,,,,,,,return,5.717000008,TARANTULA,FALSE,,,,,,,178,taronja,Catalan,Sounds/cat_taronja.mp3,2020-06-08_18h21.10.067,TranslationElicitation_eng-prolific,3.2.4,MacIntel,60,5ece703852564823b1b07a59,5.717000008,1,0,81,70,1,80
,,,,,,,,,,,,,,,,,,,,,,,,,,,,,,,,,,,,,,,,,,,,,,,,,,,178,taronja,Catalan,Sounds/cat_taronja.mp3,2020-06-08_18h21.10.067,TranslationElicitation_eng-prolific,3.2.4,MacIntel,60,5ece703852564823b1b07a59,,1,0,81,70,1,80
,,,,,,,,,,,,,,,,,,,,,,,,,,,,,,,,,,,,,,,,,s,2.915999889,S,FALSE,,,,,,,176,samarreta,Catalan,Sounds/cat_samarreta.mp3,2020-06-08_18h21.10.067,TranslationElicitation_eng-prolific,3.2.4,MacIntel,60,5ece703852564823b1b07a59,,1,0,81,68,1,80
,,,,,,,,,,,,,,,,,,,,,,,,,,,,,,,,,,,,,,,,,u,3.066999912,SU,FALSE,,,,,,,176,samarreta,Catalan,Sounds/cat_samarreta.mp3,2020-06-08_18h21.10.067,TranslationElicitation_eng-prolific,3.2.4,MacIntel,60,5ece703852564823b1b07a59,,1,0,81,68,1,80
,,,,,,,,,,,,,,,,,,,,,,,,,,,,,,,,,,,,,,,,,m,3.28399992,SUM,FALSE,,,,,,,176,samarreta,Catalan,Sounds/cat_samarreta.mp3,2020-06-08_18h21.10.067,TranslationElicitation_eng-prolific,3.2.4,MacIntel,60,5ece703852564823b1b07a59,,1,0,81,68,1,80
,,,,,,,,,,,,,,,,,,,,,,,,,,,,,,,,,,,,,,,,,m,3.417000055,SUMM,FALSE,,,,,,,176,samarreta,Catalan,Sounds/cat_samarreta.mp3,2020-06-08_18h21.10.067,TranslationElicitation_eng-prolific,3.2.4,MacIntel,60,5ece703852564823b1b07a59,,1,0,81,68,1,80
,,,,,,,,,,,,,,,,,,,,,,,,,,,,,,,,,,,,,,,,,e,3.51699996,SUMME,FALSE,,,,,,,176,samarreta,Catalan,Sounds/cat_samarreta.mp3,2020-06-08_18h21.10.067,TranslationElicitation_eng-prolific,3.2.4,MacIntel,60,5ece703852564823b1b07a59,,1,0,81,68,1,80
,,,,,,,,,,,,,,,,,,,,,,,,,,,,,,,,,,,,,,,,,r,3.700000048,SUMMER,FALSE,,,,,,,176,samarreta,Catalan,Sounds/cat_samarreta.mp3,2020-06-08_18h21.10.067,TranslationElicitation_eng-prolific,3.2.4,MacIntel,60,5ece703852564823b1b07a59,,1,0,81,68,1,80
,,,,,,,,,,,,,,,,,,,,,,,,,,,,,,,,,,,,,,,,,return,4.06799984,SUMMER,FALSE,,,,,,,176,samarreta,Catalan,Sounds/cat_samarreta.mp3,2020-06-08_18h21.10.067,TranslationElicitation_eng-prolific,3.2.4,MacIntel,60,5ece703852564823b1b07a59,4.06799984,1,0,81,68,1,80
,,,,,,,,,,,,,,,,,,,,,,,,,,,,,,,,,,,,,,,,,,,,,,,,,,,176,samarreta,Catalan,Sounds/cat_samarreta.mp3,2020-06-08_18h21.10.067,TranslationElicitation_eng-prolific,3.2.4,MacIntel,60,5ece703852564823b1b07a59,,1,0,81,68,1,80
,,,,,,,,,,,,,,,,,,,,,,,,,,,,,,,,,,,,,,,,,e,3.450000048,E,FALSE,,,,,,,105,aigua,Catalan,Sounds/cat_aigua.mp3,2020-06-08_18h21.10.067,TranslationElicitation_eng-prolific,3.2.4,MacIntel,60,5ece703852564823b1b07a59,,1,0,81,1,1,80
,,,,,,,,,,,,,,,,,,,,,,,,,,,,,,,,,,,,,,,,,y,3.583000183,EY,FALSE,,,,,,,105,aigua,Catalan,Sounds/cat_aigua.mp3,2020-06-08_18h21.10.067,TranslationElicitation_eng-prolific,3.2.4,MacIntel,60,5ece703852564823b1b07a59,,1,0,81,1,1,80
,,,,,,,,,,,,,,,,,,,,,,,,,,,,,,,,,,,,,,,,,e,3.683000088,EYE,FALSE,,,,,,,105,aigua,Catalan,Sounds/cat_aigua.mp3,2020-06-08_18h21.10.067,TranslationElicitation_eng-prolific,3.2.4,MacIntel,60,5ece703852564823b1b07a59,,1,0,81,1,1,80
,,,,,,,,,,,,,,,,,,,,,,,,,,,,,,,,,,,,,,,,,b,4.232000113,EYEB,FALSE,,,,,,,105,aigua,Catalan,Sounds/cat_aigua.mp3,2020-06-08_18h21.10.067,TranslationElicitation_eng-prolific,3.2.4,MacIntel,60,5ece703852564823b1b07a59,,1,0,81,1,1,80
,,,,,,,,,,,,,,,,,,,,,,,,,,,,,,,,,,,,,,,,,r,4.366000175,EYEBR,FALSE,,,,,,,105,aigua,Catalan,Sounds/cat_aigua.mp3,2020-06-08_18h21.10.067,TranslationElicitation_eng-prolific,3.2.4,MacIntel,60,5ece703852564823b1b07a59,,1,0,81,1,1,80
,,,,,,,,,,,,,,,,,,,,,,,,,,,,,,,,,,,,,,,,,o,4.700000048,EYEBRO,FALSE,,,,,,,105,aigua,Catalan,Sounds/cat_aigua.mp3,2020-06-08_18h21.10.067,TranslationElicitation_eng-prolific,3.2.4,MacIntel,60,5ece703852564823b1b07a59,,1,0,81,1,1,80
,,,,,,,,,,,,,,,,,,,,,,,,,,,,,,,,,,,,,,,,,w,4.800000191,EYEBROW,FALSE,,,,,,,105,aigua,Catalan,Sounds/cat_aigua.mp3,2020-06-08_18h21.10.067,TranslationElicitation_eng-prolific,3.2.4,MacIntel,60,5ece703852564823b1b07a59,,1,0,81,1,1,80
,,,,,,,,,,,,,,,,,,,,,,,,,,,,,,,,,,,,,,,,,return,5.333000183,EYEBROW,FALSE,,,,,,,105,aigua,Catalan,Sounds/cat_aigua.mp3,2020-06-08_18h21.10.067,TranslationElicitation_eng-prolific,3.2.4,MacIntel,60,5ece703852564823b1b07a59,5.333000183,1,0,81,1,1,80
,,,,,,,,,,,,,,,,,,,,,,,,,,,,,,,,,,,,,,,,,,,,,,,,,,,105,aigua,Catalan,Sounds/cat_aigua.mp3,2020-06-08_18h21.10.067,TranslationElicitation_eng-prolific,3.2.4,MacIntel,60,5ece703852564823b1b07a59,,1,0,81,1,1,80
,,,,,,,,,,,,,,,,,,,,,,,,,,,,,,,,,,,,,,,,,p,2.401000023,P,FALSE,,,,,,,174,porta,Catalan,Sounds/cat_porta.mp3,2020-06-08_18h21.10.067,TranslationElicitation_eng-prolific,3.2.4,MacIntel,60,5ece703852564823b1b07a59,,1,0,81,66,1,80
,,,,,,,,,,,,,,,,,,,,,,,,,,,,,,,,,,,,,,,,,o,2.718000174,PO,FALSE,,,,,,,174,porta,Catalan,Sounds/cat_porta.mp3,2020-06-08_18h21.10.067,TranslationElicitation_eng-prolific,3.2.4,MacIntel,60,5ece703852564823b1b07a59,,1,0,81,66,1,80
,,,,,,,,,,,,,,,,,,,,,,,,,,,,,,,,,,,,,,,,,r,2.851000071,POR,FALSE,,,,,,,174,porta,Catalan,Sounds/cat_porta.mp3,2020-06-08_18h21.10.067,TranslationElicitation_eng-prolific,3.2.4,MacIntel,60,5ece703852564823b1b07a59,,1,0,81,66,1,80
,,,,,,,,,,,,,,,,,,,,,,,,,,,,,,,,,,,,,,,,,t,3.018000126,PORT,FALSE,,,,,,,174,porta,Catalan,Sounds/cat_porta.mp3,2020-06-08_18h21.10.067,TranslationElicitation_eng-prolific,3.2.4,MacIntel,60,5ece703852564823b1b07a59,,1,0,81,66,1,80
,,,,,,,,,,,,,,,,,,,,,,,,,,,,,,,,,,,,,,,,,return,3.318000078,PORT,FALSE,,,,,,,174,porta,Catalan,Sounds/cat_porta.mp3,2020-06-08_18h21.10.067,TranslationElicitation_eng-prolific,3.2.4,MacIntel,60,5ece703852564823b1b07a59,3.318000078,1,0,81,66,1,80
,,,,,,,,,,,,,,,,,,,,,,,,,,,,,,,,,,,,,,,,,,,,,,,,,,,174,porta,Catalan,Sounds/cat_porta.mp3,2020-06-08_18h21.10.067,TranslationElicitation_eng-prolific,3.2.4,MacIntel,60,5ece703852564823b1b07a59,,1,0,81,66,1,80
,,,,,,,,,,,,,,,,,,,,,,,,,,,,,,,,,,,,,,,,,p,2.434000015,P,FALSE,,,,,,,162,pa,Catalan,Sounds/cat_pa.mp3,2020-06-08_18h21.10.067,TranslationElicitation_eng-prolific,3.2.4,MacIntel,60,5ece703852564823b1b07a59,,1,0,81,54,1,80
,,,,,,,,,,,,,,,,,,,,,,,,,,,,,,,,,,,,,,,,,a,2.53399992,PA,FALSE,,,,,,,162,pa,Catalan,Sounds/cat_pa.mp3,2020-06-08_18h21.10.067,TranslationElicitation_eng-prolific,3.2.4,MacIntel,60,5ece703852564823b1b07a59,,1,0,81,54,1,80
,,,,,,,,,,,,,,,,,,,,,,,,,,,,,,,,,,,,,,,,,r,2.78399992,PAR,FALSE,,,,,,,162,pa,Catalan,Sounds/cat_pa.mp3,2020-06-08_18h21.10.067,TranslationElicitation_eng-prolific,3.2.4,MacIntel,60,5ece703852564823b1b07a59,,1,0,81,54,1,80
,,,,,,,,,,,,,,,,,,,,,,,,,,,,,,,,,,,,,,,,,k,2.917999983,PARK,FALSE,,,,,,,162,pa,Catalan,Sounds/cat_pa.mp3,2020-06-08_18h21.10.067,TranslationElicitation_eng-prolific,3.2.4,MacIntel,60,5ece703852564823b1b07a59,,1,0,81,54,1,80
,,,,,,,,,,,,,,,,,,,,,,,,,,,,,,,,,,,,,,,,,return,3.434000015,PARK,FALSE,,,,,,,162,pa,Catalan,Sounds/cat_pa.mp3,2020-06-08_18h21.10.067,TranslationElicitation_eng-prolific,3.2.4,MacIntel,60,5ece703852564823b1b07a59,3.434000015,1,0,81,54,1,80
,,,,,,,,,,,,,,,,,,,,,,,,,,,,,,,,,,,,,,,,,,,,,,,,,,,162,pa,Catalan,Sounds/cat_pa.mp3,2020-06-08_18h21.10.067,TranslationElicitation_eng-prolific,3.2.4,MacIntel,60,5ece703852564823b1b07a59,,1,0,81,54,1,80
,,,,,,,,,,,,,,,,,,,,,,,,,,,,,,,,,,,,,,,,,b,3.316999912,B,FALSE,,,,,,,170,ploma,Catalan,Sounds/cat_ploma.mp3,2020-06-08_18h21.10.067,TranslationElicitation_eng-prolific,3.2.4,MacIntel,60,5ece703852564823b1b07a59,,1,0,81,62,1,80
,,,,,,,,,,,,,,,,,,,,,,,,,,,,,,,,,,,,,,,,,a,3.450999975,BA,FALSE,,,,,,,170,ploma,Catalan,Sounds/cat_ploma.mp3,2020-06-08_18h21.10.067,TranslationElicitation_eng-prolific,3.2.4,MacIntel,60,5ece703852564823b1b07a59,,1,0,81,62,1,80
,,,,,,,,,,,,,,,,,,,,,,,,,,,,,,,,,,,,,,,,,l,3.801000118,BAL,FALSE,,,,,,,170,ploma,Catalan,Sounds/cat_ploma.mp3,2020-06-08_18h21.10.067,TranslationElicitation_eng-prolific,3.2.4,MacIntel,60,5ece703852564823b1b07a59,,1,0,81,62,1,80
,,,,,,,,,,,,,,,,,,,,,,,,,,,,,,,,,,,,,,,,,l,3.933000088,BALL,FALSE,,,,,,,170,ploma,Catalan,Sounds/cat_ploma.mp3,2020-06-08_18h21.10.067,TranslationElicitation_eng-prolific,3.2.4,MacIntel,60,5ece703852564823b1b07a59,,1,0,81,62,1,80
,,,,,,,,,,,,,,,,,,,,,,,,,,,,,,,,,,,,,,,,,backspace,4.5,BAL,TRUE,,,,,,,170,ploma,Catalan,Sounds/cat_ploma.mp3,2020-06-08_18h21.10.067,TranslationElicitation_eng-prolific,3.2.4,MacIntel,60,5ece703852564823b1b07a59,,1,0,81,62,1,80
,,,,,,,,,,,,,,,,,,,,,,,,,,,,,,,,,,,,,,,,,backspace,4.650000095,BA,TRUE,,,,,,,170,ploma,Catalan,Sounds/cat_ploma.mp3,2020-06-08_18h21.10.067,TranslationElicitation_eng-prolific,3.2.4,MacIntel,60,5ece703852564823b1b07a59,,1,0,81,62,1,80
,,,,,,,,,,,,,,,,,,,,,,,,,,,,,,,,,,,,,,,,,backspace,4.849999905,B,TRUE,,,,,,,170,ploma,Catalan,Sounds/cat_ploma.mp3,2020-06-08_18h21.10.067,TranslationElicitation_eng-prolific,3.2.4,MacIntel,60,5ece703852564823b1b07a59,,1,0,81,62,1,80
,,,,,,,,,,,,,,,,,,,,,,,,,,,,,,,,,,,,,,,,,l,5.384000063,BL,TRUE,,,,,,,170,ploma,Catalan,Sounds/cat_ploma.mp3,2020-06-08_18h21.10.067,TranslationElicitation_eng-prolific,3.2.4,MacIntel,60,5ece703852564823b1b07a59,,1,0,81,62,1,80
,,,,,,,,,,,,,,,,,,,,,,,,,,,,,,,,,,,,,,,,,o,5.601000071,BLO,TRUE,,,,,,,170,ploma,Catalan,Sounds/cat_ploma.mp3,2020-06-08_18h21.10.067,TranslationElicitation_eng-prolific,3.2.4,MacIntel,60,5ece703852564823b1b07a59,,1,0,81,62,1,80
,,,,,,,,,,,,,,,,,,,,,,,,,,,,,,,,,,,,,,,,,o,5.700000048,BLOO,TRUE,,,,,,,170,ploma,Catalan,Sounds/cat_ploma.mp3,2020-06-08_18h21.10.067,TranslationElicitation_eng-prolific,3.2.4,MacIntel,60,5ece703852564823b1b07a59,,1,0,81,62,1,80
,,,,,,,,,,,,,,,,,,,,,,,,,,,,,,,,,,,,,,,,,m,6.184000015,BLOOM,TRUE,,,,,,,170,ploma,Catalan,Sounds/cat_ploma.mp3,2020-06-08_18h21.10.067,TranslationElicitation_eng-prolific,3.2.4,MacIntel,60,5ece703852564823b1b07a59,,1,0,81,62,1,80
,,,,,,,,,,,,,,,,,,,,,,,,,,,,,,,,,,,,,,,,,return,6.517999887,BLOOM,TRUE,,,,,,,170,ploma,Catalan,Sounds/cat_ploma.mp3,2020-06-08_18h21.10.067,TranslationElicitation_eng-prolific,3.2.4,MacIntel,60,5ece703852564823b1b07a59,6.517999887,1,0,81,62,1,80
,,,,,,,,,,,,,,,,,,,,,,,,,,,,,,,,,,,,,,,,,,,,,,,,,,,170,ploma,Catalan,Sounds/cat_ploma.mp3,2020-06-08_18h21.10.067,TranslationElicitation_eng-prolific,3.2.4,MacIntel,60,5ece703852564823b1b07a59,,1,0,81,62,1,80
,,,,,,,,,,,,,,,,,,,,,,,,,,,,,,,,,,,,,,,,,n,1.599000216,N,FALSE,,,,,,,167,pingui,Catalan,Sounds/cat_pingui.mp3,2020-06-08_18h21.10.067,TranslationElicitation_eng-prolific,3.2.4,MacIntel,60,5ece703852564823b1b07a59,,1,0,81,59,1,80
,,,,,,,,,,,,,,,,,,,,,,,,,,,,,,,,,,,,,,,,,g,1.700000048,NG,FALSE,,,,,,,167,pingui,Catalan,Sounds/cat_pingui.mp3,2020-06-08_18h21.10.067,TranslationElicitation_eng-prolific,3.2.4,MacIntel,60,5ece703852564823b1b07a59,,1,0,81,59,1,80
,,,,,,,,,,,,,,,,,,,,,,,,,,,,,,,,,,,,,,,,,u,1.883000135,NGU,FALSE,,,,,,,167,pingui,Catalan,Sounds/cat_pingui.mp3,2020-06-08_18h21.10.067,TranslationElicitation_eng-prolific,3.2.4,MacIntel,60,5ece703852564823b1b07a59,,1,0,81,59,1,80
,,,,,,,,,,,,,,,,,,,,,,,,,,,,,,,,,,,,,,,,,i,2.033000231,NGUI,FALSE,,,,,,,167,pingui,Catalan,Sounds/cat_pingui.mp3,2020-06-08_18h21.10.067,TranslationElicitation_eng-prolific,3.2.4,MacIntel,60,5ece703852564823b1b07a59,,1,0,81,59,1,80
,,,,,,,,,,,,,,,,,,,,,,,,,,,,,,,,,,,,,,,,,n,2.18200016,NGUIN,FALSE,,,,,,,167,pingui,Catalan,Sounds/cat_pingui.mp3,2020-06-08_18h21.10.067,TranslationElicitation_eng-prolific,3.2.4,MacIntel,60,5ece703852564823b1b07a59,,1,0,81,59,1,80
,,,,,,,,,,,,,,,,,,,,,,,,,,,,,,,,,,,,,,,,,return,2.44900012,NGUIN,FALSE,,,,,,,167,pingui,Catalan,Sounds/cat_pingui.mp3,2020-06-08_18h21.10.067,TranslationElicitation_eng-prolific,3.2.4,MacIntel,60,5ece703852564823b1b07a59,2.44900012,1,0,81,59,1,80
,,,,,,,,,,,,,,,,,,,,,,,,,,,,,,,,,,,,,,,,,,,,,,,,,,,167,pingui,Catalan,Sounds/cat_pingui.mp3,2020-06-08_18h21.10.067,TranslationElicitation_eng-prolific,3.2.4,MacIntel,60,5ece703852564823b1b07a59,,1,0,81,59,1,80
,,,,,,,,,,,,,,,,,,,,,,,,,,,,,,,,,,,,,,,,,t,0.999000072,T,FALSE,,,,,,,182,tomaquet,Catalan,Sounds/cat_tomaquet.mp3,2020-06-08_18h21.10.067,TranslationElicitation_eng-prolific,3.2.4,MacIntel,60,5ece703852564823b1b07a59,,1,0,81,73,1,80
,,,,,,,,,,,,,,,,,,,,,,,,,,,,,,,,,,,,,,,,,o,1.116000175,TO,FALSE,,,,,,,182,tomaquet,Catalan,Sounds/cat_tomaquet.mp3,2020-06-08_18h21.10.067,TranslationElicitation_eng-prolific,3.2.4,MacIntel,60,5ece703852564823b1b07a59,,1,0,81,73,1,80
,,,,,,,,,,,,,,,,,,,,,,,,,,,,,,,,,,,,,,,,,m,1.350000143,TOM,FALSE,,,,,,,182,tomaquet,Catalan,Sounds/cat_tomaquet.mp3,2020-06-08_18h21.10.067,TranslationElicitation_eng-prolific,3.2.4,MacIntel,60,5ece703852564823b1b07a59,,1,0,81,73,1,80
,,,,,,,,,,,,,,,,,,,,,,,,,,,,,,,,,,,,,,,,,a,1.549999952,TOMA,FALSE,,,,,,,182,tomaquet,Catalan,Sounds/cat_tomaquet.mp3,2020-06-08_18h21.10.067,TranslationElicitation_eng-prolific,3.2.4,MacIntel,60,5ece703852564823b1b07a59,,1,0,81,73,1,80
,,,,,,,,,,,,,,,,,,,,,,,,,,,,,,,,,,,,,,,,,t,1.782000065,TOMAT,FALSE,,,,,,,182,tomaquet,Catalan,Sounds/cat_tomaquet.mp3,2020-06-08_18h21.10.067,TranslationElicitation_eng-prolific,3.2.4,MacIntel,60,5ece703852564823b1b07a59,,1,0,81,73,1,80
,,,,,,,,,,,,,,,,,,,,,,,,,,,,,,,,,,,,,,,,,o,2.534000158,TOMATO,FALSE,,,,,,,182,tomaquet,Catalan,Sounds/cat_tomaquet.mp3,2020-06-08_18h21.10.067,TranslationElicitation_eng-prolific,3.2.4,MacIntel,60,5ece703852564823b1b07a59,,1,0,81,73,1,80
,,,,,,,,,,,,,,,,,,,,,,,,,,,,,,,,,,,,,,,,,return,3.034000158,TOMATO,FALSE,,,,,,,182,tomaquet,Catalan,Sounds/cat_tomaquet.mp3,2020-06-08_18h21.10.067,TranslationElicitation_eng-prolific,3.2.4,MacIntel,60,5ece703852564823b1b07a59,3.034000158,1,0,81,73,1,80
,,,,,,,,,,,,,,,,,,,,,,,,,,,,,,,,,,,,,,,,,,,,,,,,,,,182,tomaquet,Catalan,Sounds/cat_tomaquet.mp3,2020-06-08_18h21.10.067,TranslationElicitation_eng-prolific,3.2.4,MacIntel,60,5ece703852564823b1b07a59,,1,0,81,73,1,80
,,,,,,,,,,,,,,,,,,,,,,,,,,,,,,,,,,,,,,,,,p,2.949999809,P,FALSE,,,,,,,166,peu,Catalan,Sounds/cat_peu.mp3,2020-06-08_18h21.10.067,TranslationElicitation_eng-prolific,3.2.4,MacIntel,60,5ece703852564823b1b07a59,,1,0,81,58,1,80
,,,,,,,,,,,,,,,,,,,,,,,,,,,,,,,,,,,,,,,,,e,3.115999937,PE,FALSE,,,,,,,166,peu,Catalan,Sounds/cat_peu.mp3,2020-06-08_18h21.10.067,TranslationElicitation_eng-prolific,3.2.4,MacIntel,60,5ece703852564823b1b07a59,,1,0,81,58,1,80
,,,,,,,,,,,,,,,,,,,,,,,,,,,,,,,,,,,,,,,,,a,3.28399992,PEA,FALSE,,,,,,,166,peu,Catalan,Sounds/cat_peu.mp3,2020-06-08_18h21.10.067,TranslationElicitation_eng-prolific,3.2.4,MacIntel,60,5ece703852564823b1b07a59,,1,0,81,58,1,80
,,,,,,,,,,,,,,,,,,,,,,,,,,,,,,,,,,,,,,,,,r,3.53399992,PEAR,FALSE,,,,,,,166,peu,Catalan,Sounds/cat_peu.mp3,2020-06-08_18h21.10.067,TranslationElicitation_eng-prolific,3.2.4,MacIntel,60,5ece703852564823b1b07a59,,1,0,81,58,1,80
,,,,,,,,,,,,,,,,,,,,,,,,,,,,,,,,,,,,,,,,,return,4.066999912,PEAR,FALSE,,,,,,,166,peu,Catalan,Sounds/cat_peu.mp3,2020-06-08_18h21.10.067,TranslationElicitation_eng-prolific,3.2.4,MacIntel,60,5ece703852564823b1b07a59,4.066999912,1,0,81,58,1,80
,,,,,,,,,,,,,,,,,,,,,,,,,,,,,,,,,,,,,,,,,,,,,,,,,,,166,peu,Catalan,Sounds/cat_peu.mp3,2020-06-08_18h21.10.067,TranslationElicitation_eng-prolific,3.2.4,MacIntel,60,5ece703852564823b1b07a59,,1,0,81,58,1,80
,,,,,,,,,,,,,,,,,,,,,,,,,,,,,,,,,,,,,,,,,c,1.78399992,C,FALSE,,,,,,,119,caixa,Catalan,Sounds/cat_caixa.mp3,2020-06-08_18h21.10.067,TranslationElicitation_eng-prolific,3.2.4,MacIntel,60,5ece703852564823b1b07a59,,1,0,81,14,1,80
,,,,,,,,,,,,,,,,,,,,,,,,,,,,,,,,,,,,,,,,,a,1.999000072,CA,FALSE,,,,,,,119,caixa,Catalan,Sounds/cat_caixa.mp3,2020-06-08_18h21.10.067,TranslationElicitation_eng-prolific,3.2.4,MacIntel,60,5ece703852564823b1b07a59,,1,0,81,14,1,80
,,,,,,,,,,,,,,,,,,,,,,,,,,,,,,,,,,,,,,,,,s,2.117000103,CAS,FALSE,,,,,,,119,caixa,Catalan,Sounds/cat_caixa.mp3,2020-06-08_18h21.10.067,TranslationElicitation_eng-prolific,3.2.4,MacIntel,60,5ece703852564823b1b07a59,,1,0,81,14,1,80
,,,,,,,,,,,,,,,,,,,,,,,,,,,,,,,,,,,,,,,,,h,2.28399992,CASH,FALSE,,,,,,,119,caixa,Catalan,Sounds/cat_caixa.mp3,2020-06-08_18h21.10.067,TranslationElicitation_eng-prolific,3.2.4,MacIntel,60,5ece703852564823b1b07a59,,1,0,81,14,1,80
,,,,,,,,,,,,,,,,,,,,,,,,,,,,,,,,,,,,,,,,,return,2.834000111,CASH,FALSE,,,,,,,119,caixa,Catalan,Sounds/cat_caixa.mp3,2020-06-08_18h21.10.067,TranslationElicitation_eng-prolific,3.2.4,MacIntel,60,5ece703852564823b1b07a59,2.834000111,1,0,81,14,1,80
,,,,,,,,,,,,,,,,,,,,,,,,,,,,,,,,,,,,,,,,,,,,,,,,,,,119,caixa,Catalan,Sounds/cat_caixa.mp3,2020-06-08_18h21.10.067,TranslationElicitation_eng-prolific,3.2.4,MacIntel,60,5ece703852564823b1b07a59,,1,0,81,14,1,80
,,,,,,,,,,,,,,,,,,,,,,,,,,,,,,,,,,,,,,,,,p,2.282999992,P,FALSE,,,,,,,163,papallona,Catalan,Sounds/cat_papallona.mp3,2020-06-08_18h21.10.067,TranslationElicitation_eng-prolific,3.2.4,MacIntel,60,5ece703852564823b1b07a59,,1,0,81,55,1,80
,,,,,,,,,,,,,,,,,,,,,,,,,,,,,,,,,,,,,,,,,a,2.399999857,PA,FALSE,,,,,,,163,papallona,Catalan,Sounds/cat_papallona.mp3,2020-06-08_18h21.10.067,TranslationElicitation_eng-prolific,3.2.4,MacIntel,60,5ece703852564823b1b07a59,,1,0,81,55,1,80
,,,,,,,,,,,,,,,,,,,,,,,,,,,,,,,,,,,,,,,,,p,2.549999952,PAP,FALSE,,,,,,,163,papallona,Catalan,Sounds/cat_papallona.mp3,2020-06-08_18h21.10.067,TranslationElicitation_eng-prolific,3.2.4,MacIntel,60,5ece703852564823b1b07a59,,1,0,81,55,1,80
,,,,,,,,,,,,,,,,,,,,,,,,,,,,,,,,,,,,,,,,,e,2.682999849,PAPE,FALSE,,,,,,,163,papallona,Catalan,Sounds/cat_papallona.mp3,2020-06-08_18h21.10.067,TranslationElicitation_eng-prolific,3.2.4,MacIntel,60,5ece703852564823b1b07a59,,1,0,81,55,1,80
,,,,,,,,,,,,,,,,,,,,,,,,,,,,,,,,,,,,,,,,,r,2.866999865,PAPER,FALSE,,,,,,,163,papallona,Catalan,Sounds/cat_papallona.mp3,2020-06-08_18h21.10.067,TranslationElicitation_eng-prolific,3.2.4,MacIntel,60,5ece703852564823b1b07a59,,1,0,81,55,1,80
,,,,,,,,,,,,,,,,,,,,,,,,,,,,,,,,,,,,,,,,,return,3.482999802,PAPER,FALSE,,,,,,,163,papallona,Catalan,Sounds/cat_papallona.mp3,2020-06-08_18h21.10.067,TranslationElicitation_eng-prolific,3.2.4,MacIntel,60,5ece703852564823b1b07a59,3.482999802,1,0,81,55,1,80
,,,,,,,,,,,,,,,,,,,,,,,,,,,,,,,,,,,,,,,,,,,,,,,,,,,163,papallona,Catalan,Sounds/cat_papallona.mp3,2020-06-08_18h21.10.067,TranslationElicitation_eng-prolific,3.2.4,MacIntel,60,5ece703852564823b1b07a59,,1,0,81,55,1,80
,,,,,,,,,,,,,,,,,,,,,,,,,,,,,,,,,,,,,,,,,r,2.381999969,R,FALSE,,,,,,,104,abella,Catalan,Sounds/cat_abella.mp3,2020-06-08_18h21.10.067,TranslationElicitation_eng-prolific,3.2.4,MacIntel,60,5ece703852564823b1b07a59,,1,0,81,0,1,80
,,,,,,,,,,,,,,,,,,,,,,,,,,,,,,,,,,,,,,,,,u,2.532999992,RU,FALSE,,,,,,,104,abella,Catalan,Sounds/cat_abella.mp3,2020-06-08_18h21.10.067,TranslationElicitation_eng-prolific,3.2.4,MacIntel,60,5ece703852564823b1b07a59,,1,0,81,0,1,80
,,,,,,,,,,,,,,,,,,,,,,,,,,,,,,,,,,,,,,,,,l,2.915999889,RUL,FALSE,,,,,,,104,abella,Catalan,Sounds/cat_abella.mp3,2020-06-08_18h21.10.067,TranslationElicitation_eng-prolific,3.2.4,MacIntel,60,5ece703852564823b1b07a59,,1,0,81,0,1,80
,,,,,,,,,,,,,,,,,,,,,,,,,,,,,,,,,,,,,,,,,e,3.016000032,RULE,FALSE,,,,,,,104,abella,Catalan,Sounds/cat_abella.mp3,2020-06-08_18h21.10.067,TranslationElicitation_eng-prolific,3.2.4,MacIntel,60,5ece703852564823b1b07a59,,1,0,81,0,1,80
,,,,,,,,,,,,,,,,,,,,,,,,,,,,,,,,,,,,,,,,,r,3.182999849,RULER,FALSE,,,,,,,104,abella,Catalan,Sounds/cat_abella.mp3,2020-06-08_18h21.10.067,TranslationElicitation_eng-prolific,3.2.4,MacIntel,60,5ece703852564823b1b07a59,,1,0,81,0,1,80
,,,,,,,,,,,,,,,,,,,,,,,,,,,,,,,,,,,,,,,,,return,3.649999857,RULER,FALSE,,,,,,,104,abella,Catalan,Sounds/cat_abella.mp3,2020-06-08_18h21.10.067,TranslationElicitation_eng-prolific,3.2.4,MacIntel,60,5ece703852564823b1b07a59,3.649999857,1,0,81,0,1,80
,,,,,,,,,,,,,,,,,,,,,,,,,,,,,,,,,,,,,,,,,,,,,,,,,,,104,abella,Catalan,Sounds/cat_abella.mp3,2020-06-08_18h21.10.067,TranslationElicitation_eng-prolific,3.2.4,MacIntel,60,5ece703852564823b1b07a59,,1,0,81,0,1,80
,,,,,,,,,,,,,,,,,,,,,,,,,,,,,,,,,,,,,,,,,e,2.315999985,E,FALSE,,,,,,,130,entrepa,Catalan,Sounds/cat_entrepa.mp3,2020-06-08_18h21.10.067,TranslationElicitation_eng-prolific,3.2.4,MacIntel,60,5ece703852564823b1b07a59,,1,0,81,24,1,80
,,,,,,,,,,,,,,,,,,,,,,,,,,,,,,,,,,,,,,,,,n,2.467000008,EN,FALSE,,,,,,,130,entrepa,Catalan,Sounds/cat_entrepa.mp3,2020-06-08_18h21.10.067,TranslationElicitation_eng-prolific,3.2.4,MacIntel,60,5ece703852564823b1b07a59,,1,0,81,24,1,80
,,,,,,,,,,,,,,,,,,,,,,,,,,,,,,,,,,,,,,,,,t,2.700000048,ENT,FALSE,,,,,,,130,entrepa,Catalan,Sounds/cat_entrepa.mp3,2020-06-08_18h21.10.067,TranslationElicitation_eng-prolific,3.2.4,MacIntel,60,5ece703852564823b1b07a59,,1,0,81,24,1,80
,,,,,,,,,,,,,,,,,,,,,,,,,,,,,,,,,,,,,,,,,r,3.082999945,ENTR,FALSE,,,,,,,130,entrepa,Catalan,Sounds/cat_entrepa.mp3,2020-06-08_18h21.10.067,TranslationElicitation_eng-prolific,3.2.4,MacIntel,60,5ece703852564823b1b07a59,,1,0,81,24,1,80
,,,,,,,,,,,,,,,,,,,,,,,,,,,,,,,,,,,,,,,,,e,3.367000103,ENTRE,FALSE,,,,,,,130,entrepa,Catalan,Sounds/cat_entrepa.mp3,2020-06-08_18h21.10.067,TranslationElicitation_eng-prolific,3.2.4,MacIntel,60,5ece703852564823b1b07a59,,1,0,81,24,1,80
,,,,,,,,,,,,,,,,,,,,,,,,,,,,,,,,,,,,,,,,,n,4.067000151,ENTREN,FALSE,,,,,,,130,entrepa,Catalan,Sounds/cat_entrepa.mp3,2020-06-08_18h21.10.067,TranslationElicitation_eng-prolific,3.2.4,MacIntel,60,5ece703852564823b1b07a59,,1,0,81,24,1,80
,,,,,,,,,,,,,,,,,,,,,,,,,,,,,,,,,,,,,,,,,o,5.282999992,ENTRENO,FALSE,,,,,,,130,entrepa,Catalan,Sounds/cat_entrepa.mp3,2020-06-08_18h21.10.067,TranslationElicitation_eng-prolific,3.2.4,MacIntel,60,5ece703852564823b1b07a59,,1,0,81,24,1,80
,,,,,,,,,,,,,,,,,,,,,,,,,,,,,,,,,,,,,,,,,p,5.48300004,ENTRENOP,FALSE,,,,,,,130,entrepa,Catalan,Sounds/cat_entrepa.mp3,2020-06-08_18h21.10.067,TranslationElicitation_eng-prolific,3.2.4,MacIntel,60,5ece703852564823b1b07a59,,1,0,81,24,1,80
,,,,,,,,,,,,,,,,,,,,,,,,,,,,,,,,,,,,,,,,,e,5.598999977,ENTRENOPE,FALSE,,,,,,,130,entrepa,Catalan,Sounds/cat_entrepa.mp3,2020-06-08_18h21.10.067,TranslationElicitation_eng-prolific,3.2.4,MacIntel,60,5ece703852564823b1b07a59,,1,0,81,24,1,80
,,,,,,,,,,,,,,,,,,,,,,,,,,,,,,,,,,,,,,,,,u,6,ENTRENOPEU,FALSE,,,,,,,130,entrepa,Catalan,Sounds/cat_entrepa.mp3,2020-06-08_18h21.10.067,TranslationElicitation_eng-prolific,3.2.4,MacIntel,60,5ece703852564823b1b07a59,,1,0,81,24,1,80
,,,,,,,,,,,,,,,,,,,,,,,,,,,,,,,,,,,,,,,,,r,6.133000135,ENTRENOPEUR,FALSE,,,,,,,130,entrepa,Catalan,Sounds/cat_entrepa.mp3,2020-06-08_18h21.10.067,TranslationElicitation_eng-prolific,3.2.4,MacIntel,60,5ece703852564823b1b07a59,,1,0,81,24,1,80
,,,,,,,,,,,,,,,,,,,,,,,,,,,,,,,,,,,,,,,,,return,6.850000143,ENTRENOPEUR,FALSE,,,,,,,130,entrepa,Catalan,Sounds/cat_entrepa.mp3,2020-06-08_18h21.10.067,TranslationElicitation_eng-prolific,3.2.4,MacIntel,60,5ece703852564823b1b07a59,6.850000143,1,0,81,24,1,80
,,,,,,,,,,,,,,,,,,,,,,,,,,,,,,,,,,,,,,,,,,,,,,,,,,,130,entrepa,Catalan,Sounds/cat_entrepa.mp3,2020-06-08_18h21.10.067,TranslationElicitation_eng-prolific,3.2.4,MacIntel,60,5ece703852564823b1b07a59,,1,0,81,24,1,80
,,,,,,,,,,,,,,,,,,,,,,,,,,,,,,,,,,,,,,,,,b,1.315999985,B,FALSE,,,,,,,169,plat,Catalan,Sounds/cat_plat.mp3,2020-06-08_18h21.10.067,TranslationElicitation_eng-prolific,3.2.4,MacIntel,60,5ece703852564823b1b07a59,,1,0,81,61,1,80
,,,,,,,,,,,,,,,,,,,,,,,,,,,,,,,,,,,,,,,,,l,1.448999882,BL,FALSE,,,,,,,169,plat,Catalan,Sounds/cat_plat.mp3,2020-06-08_18h21.10.067,TranslationElicitation_eng-prolific,3.2.4,MacIntel,60,5ece703852564823b1b07a59,,1,0,81,61,1,80
,,,,,,,,,,,,,,,,,,,,,,,,,,,,,,,,,,,,,,,,,i,1.648999929,BLI,FALSE,,,,,,,169,plat,Catalan,Sounds/cat_plat.mp3,2020-06-08_18h21.10.067,TranslationElicitation_eng-prolific,3.2.4,MacIntel,60,5ece703852564823b1b07a59,,1,0,81,61,1,80
,,,,,,,,,,,,,,,,,,,,,,,,,,,,,,,,,,,,,,,,,n,1.882999897,BLIN,FALSE,,,,,,,169,plat,Catalan,Sounds/cat_plat.mp3,2020-06-08_18h21.10.067,TranslationElicitation_eng-prolific,3.2.4,MacIntel,60,5ece703852564823b1b07a59,,1,0,81,61,1,80
,,,,,,,,,,,,,,,,,,,,,,,,,,,,,,,,,,,,,,,,,d,2.082999945,BLIND,FALSE,,,,,,,169,plat,Catalan,Sounds/cat_plat.mp3,2020-06-08_18h21.10.067,TranslationElicitation_eng-prolific,3.2.4,MacIntel,60,5ece703852564823b1b07a59,,1,0,81,61,1,80
,,,,,,,,,,,,,,,,,,,,,,,,,,,,,,,,,,,,,,,,,return,2.365999937,BLIND,FALSE,,,,,,,169,plat,Catalan,Sounds/cat_plat.mp3,2020-06-08_18h21.10.067,TranslationElicitation_eng-prolific,3.2.4,MacIntel,60,5ece703852564823b1b07a59,2.365999937,1,0,81,61,1,80
,,,,,,,,,,,,,,,,,,,,,,,,,,,,,,,,,,,,,,,,,,,,,,,,,,,169,plat,Catalan,Sounds/cat_plat.mp3,2020-06-08_18h21.10.067,TranslationElicitation_eng-prolific,3.2.4,MacIntel,60,5ece703852564823b1b07a59,,1,0,81,61,1,80
,,,,,,,,,,,,,,,,,,,,,,,,,,,,,,,,,,,,,,,,,b,2.155999899,B,FALSE,,,,,,,149,llibre,Catalan,Sounds/cat_llibre.mp3,2020-06-08_18h21.10.067,TranslationElicitation_eng-prolific,3.2.4,MacIntel,60,5ece703852564823b1b07a59,,1,0,81,42,1,80
,,,,,,,,,,,,,,,,,,,,,,,,,,,,,,,,,,,,,,,,,o,2.405999899,BO,FALSE,,,,,,,149,llibre,Catalan,Sounds/cat_llibre.mp3,2020-06-08_18h21.10.067,TranslationElicitation_eng-prolific,3.2.4,MacIntel,60,5ece703852564823b1b07a59,,1,0,81,42,1,80
,,,,,,,,,,,,,,,,,,,,,,,,,,,,,,,,,,,,,,,,,o,2.523000002,BOO,FALSE,,,,,,,149,llibre,Catalan,Sounds/cat_llibre.mp3,2020-06-08_18h21.10.067,TranslationElicitation_eng-prolific,3.2.4,MacIntel,60,5ece703852564823b1b07a59,,1,0,81,42,1,80
,,,,,,,,,,,,,,,,,,,,,,,,,,,,,,,,,,,,,,,,,k,2.705999851,BOOK,FALSE,,,,,,,149,llibre,Catalan,Sounds/cat_llibre.mp3,2020-06-08_18h21.10.067,TranslationElicitation_eng-prolific,3.2.4,MacIntel,60,5ece703852564823b1b07a59,,1,0,81,42,1,80
,,,,,,,,,,,,,,,,,,,,,,,,,,,,,,,,,,,,,,,,,return,2.905999899,BOOK,FALSE,,,,,,,149,llibre,Catalan,Sounds/cat_llibre.mp3,2020-06-08_18h21.10.067,TranslationElicitation_eng-prolific,3.2.4,MacIntel,60,5ece703852564823b1b07a59,2.905999899,1,0,81,42,1,80
,,,,,,,,,,,,,,,,,,,,,,,,,,,,,,,,,,,,,,,,,,,,,,,,,,,149,llibre,Catalan,Sounds/cat_llibre.mp3,2020-06-08_18h21.10.067,TranslationElicitation_eng-prolific,3.2.4,MacIntel,60,5ece703852564823b1b07a59,,1,0,81,42,1,80
,,,,,,,,,,,,,,,,,,,,,,,,,,,,,,,,,,,,,,,,,c,5.816999912,C,FALSE,,,,,,,125,colom,Catalan,Sounds/cat_colom.mp3,2020-06-08_18h21.10.067,TranslationElicitation_eng-prolific,3.2.4,MacIntel,60,5ece703852564823b1b07a59,,1,0,81,20,1,80
,,,,,,,,,,,,,,,,,,,,,,,,,,,,,,,,,,,,,,,,,o,6.73300004,CO,FALSE,,,,,,,125,colom,Catalan,Sounds/cat_colom.mp3,2020-06-08_18h21.10.067,TranslationElicitation_eng-prolific,3.2.4,MacIntel,60,5ece703852564823b1b07a59,,1,0,81,20,1,80
,,,,,,,,,,,,,,,,,,,,,,,,,,,,,,,,,,,,,,,,,l,7.351000071,COL,FALSE,,,,,,,125,colom,Catalan,Sounds/cat_colom.mp3,2020-06-08_18h21.10.067,TranslationElicitation_eng-prolific,3.2.4,MacIntel,60,5ece703852564823b1b07a59,,1,0,81,20,1,80
,,,,,,,,,,,,,,,,,,,,,,,,,,,,,,,,,,,,,,,,,o,7.51699996,COLO,FALSE,,,,,,,125,colom,Catalan,Sounds/cat_colom.mp3,2020-06-08_18h21.10.067,TranslationElicitation_eng-prolific,3.2.4,MacIntel,60,5ece703852564823b1b07a59,,1,0,81,20,1,80
,,,,,,,,,,,,,,,,,,,,,,,,,,,,,,,,,,,,,,,,,n,7.782999992,COLON,FALSE,,,,,,,125,colom,Catalan,Sounds/cat_colom.mp3,2020-06-08_18h21.10.067,TranslationElicitation_eng-prolific,3.2.4,MacIntel,60,5ece703852564823b1b07a59,,1,0,81,20,1,80
,,,,,,,,,,,,,,,,,,,,,,,,,,,,,,,,,,,,,,,,,g,7.884000063,COLONG,FALSE,,,,,,,125,colom,Catalan,Sounds/cat_colom.mp3,2020-06-08_18h21.10.067,TranslationElicitation_eng-prolific,3.2.4,MacIntel,60,5ece703852564823b1b07a59,,1,0,81,20,1,80
,,,,,,,,,,,,,,,,,,,,,,,,,,,,,,,,,,,,,,,,,e,8.117000103,COLONGE,FALSE,,,,,,,125,colom,Catalan,Sounds/cat_colom.mp3,2020-06-08_18h21.10.067,TranslationElicitation_eng-prolific,3.2.4,MacIntel,60,5ece703852564823b1b07a59,,1,0,81,20,1,80
,,,,,,,,,,,,,,,,,,,,,,,,,,,,,,,,,,,,,,,,,e,8.367000103,COLONGEE,FALSE,,,,,,,125,colom,Catalan,Sounds/cat_colom.mp3,2020-06-08_18h21.10.067,TranslationElicitation_eng-prolific,3.2.4,MacIntel,60,5ece703852564823b1b07a59,,1,0,81,20,1,80
,,,,,,,,,,,,,,,,,,,,,,,,,,,,,,,,,,,,,,,,,backspace,8.851000071,COLONGE,TRUE,,,,,,,125,colom,Catalan,Sounds/cat_colom.mp3,2020-06-08_18h21.10.067,TranslationElicitation_eng-prolific,3.2.4,MacIntel,60,5ece703852564823b1b07a59,,1,0,81,20,1,80
,,,,,,,,,,,,,,,,,,,,,,,,,,,,,,,,,,,,,,,,,return,9.250999928,COLONGE,TRUE,,,,,,,125,colom,Catalan,Sounds/cat_colom.mp3,2020-06-08_18h21.10.067,TranslationElicitation_eng-prolific,3.2.4,MacIntel,60,5ece703852564823b1b07a59,9.250999928,1,0,81,20,1,80
,,,,,,,,,,,,,,,,,,,,,,,,,,,,,,,,,,,,,,,,,,,,,,,,,,,125,colom,Catalan,Sounds/cat_colom.mp3,2020-06-08_18h21.10.067,TranslationElicitation_eng-prolific,3.2.4,MacIntel,60,5ece703852564823b1b07a59,,1,0,81,20,1,80
,,,,,,,,,,,,,,,,,,,,,,,,,,,,,,,,,,,,,,,,,l,1.567000151,L,FALSE,,,,,,,114,bol,Catalan,Sounds/cat_bol.mp3,2020-06-08_18h21.10.067,TranslationElicitation_eng-prolific,3.2.4,MacIntel,60,5ece703852564823b1b07a59,,1,0,81,9,1,80
,,,,,,,,,,,,,,,,,,,,,,,,,,,,,,,,,,,,,,,,,l,1.683000088,LL,FALSE,,,,,,,114,bol,Catalan,Sounds/cat_bol.mp3,2020-06-08_18h21.10.067,TranslationElicitation_eng-prolific,3.2.4,MacIntel,60,5ece703852564823b1b07a59,,1,0,81,9,1,80
,,,,,,,,,,,,,,,,,,,,,,,,,,,,,,,,,,,,,,,,,backspace,2.367000103,L,TRUE,,,,,,,114,bol,Catalan,Sounds/cat_bol.mp3,2020-06-08_18h21.10.067,TranslationElicitation_eng-prolific,3.2.4,MacIntel,60,5ece703852564823b1b07a59,,1,0,81,9,1,80
,,,,,,,,,,,,,,,,,,,,,,,,,,,,,,,,,,,,,,,,,backspace,2.516000032,,TRUE,,,,,,,114,bol,Catalan,Sounds/cat_bol.mp3,2020-06-08_18h21.10.067,TranslationElicitation_eng-prolific,3.2.4,MacIntel,60,5ece703852564823b1b07a59,,1,0,81,9,1,80
,,,,,,,,,,,,,,,,,,,,,,,,,,,,,,,,,,,,,,,,,b,3.134000063,B,TRUE,,,,,,,114,bol,Catalan,Sounds/cat_bol.mp3,2020-06-08_18h21.10.067,TranslationElicitation_eng-prolific,3.2.4,MacIntel,60,5ece703852564823b1b07a59,,1,0,81,9,1,80
,,,,,,,,,,,,,,,,,,,,,,,,,,,,,,,,,,,,,,,,,a,3.300000191,BA,TRUE,,,,,,,114,bol,Catalan,Sounds/cat_bol.mp3,2020-06-08_18h21.10.067,TranslationElicitation_eng-prolific,3.2.4,MacIntel,60,5ece703852564823b1b07a59,,1,0,81,9,1,80
,,,,,,,,,,,,,,,,,,,,,,,,,,,,,,,,,,,,,,,,,l,3.517000198,BAL,TRUE,,,,,,,114,bol,Catalan,Sounds/cat_bol.mp3,2020-06-08_18h21.10.067,TranslationElicitation_eng-prolific,3.2.4,MacIntel,60,5ece703852564823b1b07a59,,1,0,81,9,1,80
,,,,,,,,,,,,,,,,,,,,,,,,,,,,,,,,,,,,,,,,,l,3.616000175,BALL,TRUE,,,,,,,114,bol,Catalan,Sounds/cat_bol.mp3,2020-06-08_18h21.10.067,TranslationElicitation_eng-prolific,3.2.4,MacIntel,60,5ece703852564823b1b07a59,,1,0,81,9,1,80
,,,,,,,,,,,,,,,,,,,,,,,,,,,,,,,,,,,,,,,,,return,4.184000015,BALL,TRUE,,,,,,,114,bol,Catalan,Sounds/cat_bol.mp3,2020-06-08_18h21.10.067,TranslationElicitation_eng-prolific,3.2.4,MacIntel,60,5ece703852564823b1b07a59,4.184000015,1,0,81,9,1,80
,,,,,,,,,,,,,,,,,,,,,,,,,,,,,,,,,,,,,,,,,,,,,,,,,,,114,bol,Catalan,Sounds/cat_bol.mp3,2020-06-08_18h21.10.067,TranslationElicitation_eng-prolific,3.2.4,MacIntel,60,5ece703852564823b1b07a59,,1,0,81,9,1,80
,,,,,,,,,,,,,,,,,,,,,,,,,,,,,,,,,,,,,,,,,p,7.166000128,P,FALSE,,,,,,,172,poma,Catalan,Sounds/cat_poma.mp3,2020-06-08_18h21.10.067,TranslationElicitation_eng-prolific,3.2.4,MacIntel,60,5ece703852564823b1b07a59,,1,0,81,64,1,80
,,,,,,,,,,,,,,,,,,,,,,,,,,,,,,,,,,,,,,,,,o,7.601000071,PO,FALSE,,,,,,,172,poma,Catalan,Sounds/cat_poma.mp3,2020-06-08_18h21.10.067,TranslationElicitation_eng-prolific,3.2.4,MacIntel,60,5ece703852564823b1b07a59,,1,0,81,64,1,80
,,,,,,,,,,,,,,,,,,,,,,,,,,,,,,,,,,,,,,,,,o,7.734000206,POO,FALSE,,,,,,,172,poma,Catalan,Sounds/cat_poma.mp3,2020-06-08_18h21.10.067,TranslationElicitation_eng-prolific,3.2.4,MacIntel,60,5ece703852564823b1b07a59,,1,0,81,64,1,80
,,,,,,,,,,,,,,,,,,,,,,,,,,,,,,,,,,,,,,,,,l,7.868000031,POOL,FALSE,,,,,,,172,poma,Catalan,Sounds/cat_poma.mp3,2020-06-08_18h21.10.067,TranslationElicitation_eng-prolific,3.2.4,MacIntel,60,5ece703852564823b1b07a59,,1,0,81,64,1,80
,,,,,,,,,,,,,,,,,,,,,,,,,,,,,,,,,,,,,,,,,return,8.400000095,POOL,FALSE,,,,,,,172,poma,Catalan,Sounds/cat_poma.mp3,2020-06-08_18h21.10.067,TranslationElicitation_eng-prolific,3.2.4,MacIntel,60,5ece703852564823b1b07a59,8.400000095,1,0,81,64,1,80
,,,,,,,,,,,,,,,,,,,,,,,,,,,,,,,,,,,,,,,,,,,,,,,,,,,172,poma,Catalan,Sounds/cat_poma.mp3,2020-06-08_18h21.10.067,TranslationElicitation_eng-prolific,3.2.4,MacIntel,60,5ece703852564823b1b07a59,,1,0,81,64,1,80
,,,,,,,,,,,,,,,,,,,,,,,,,,,,,,,,,,,,,,,,,b,3.700000048,B,FALSE,,,,,,,155,moneda,Catalan,Sounds/cat_moneda.mp3,2020-06-08_18h21.10.067,TranslationElicitation_eng-prolific,3.2.4,MacIntel,60,5ece703852564823b1b07a59,,1,0,81,48,1,80
,,,,,,,,,,,,,,,,,,,,,,,,,,,,,,,,,,,,,,,,,o,3.98300004,BO,FALSE,,,,,,,155,moneda,Catalan,Sounds/cat_moneda.mp3,2020-06-08_18h21.10.067,TranslationElicitation_eng-prolific,3.2.4,MacIntel,60,5ece703852564823b1b07a59,,1,0,81,48,1,80
,,,,,,,,,,,,,,,,,,,,,,,,,,,,,,,,,,,,,,,,,a,4.085000038,BOA,FALSE,,,,,,,155,moneda,Catalan,Sounds/cat_moneda.mp3,2020-06-08_18h21.10.067,TranslationElicitation_eng-prolific,3.2.4,MacIntel,60,5ece703852564823b1b07a59,,1,0,81,48,1,80
,,,,,,,,,,,,,,,,,,,,,,,,,,,,,,,,,,,,,,,,,r,4.334000111,BOAR,FALSE,,,,,,,155,moneda,Catalan,Sounds/cat_moneda.mp3,2020-06-08_18h21.10.067,TranslationElicitation_eng-prolific,3.2.4,MacIntel,60,5ece703852564823b1b07a59,,1,0,81,48,1,80
,,,,,,,,,,,,,,,,,,,,,,,,,,,,,,,,,,,,,,,,,d,4.500999928,BOARD,FALSE,,,,,,,155,moneda,Catalan,Sounds/cat_moneda.mp3,2020-06-08_18h21.10.067,TranslationElicitation_eng-prolific,3.2.4,MacIntel,60,5ece703852564823b1b07a59,,1,0,81,48,1,80
,,,,,,,,,,,,,,,,,,,,,,,,,,,,,,,,,,,,,,,,,return,4.684000015,BOARD,FALSE,,,,,,,155,moneda,Catalan,Sounds/cat_moneda.mp3,2020-06-08_18h21.10.067,TranslationElicitation_eng-prolific,3.2.4,MacIntel,60,5ece703852564823b1b07a59,4.684000015,1,0,81,48,1,80
,,,,,,,,,,,,,,,,,,,,,,,,,,,,,,,,,,,,,,,,,,,,,,,,,,,155,moneda,Catalan,Sounds/cat_moneda.mp3,2020-06-08_18h21.10.067,TranslationElicitation_eng-prolific,3.2.4,MacIntel,60,5ece703852564823b1b07a59,,1,0,81,48,1,80
,,,,,,,,,,,,,,,,,,,,,,,,,,,,,,,,,,,,,,,,,b,3.417000055,B,FALSE,,,,,,,186,ungla,Catalan,Sounds/cat_ungla.mp3,2020-06-08_18h21.10.067,TranslationElicitation_eng-prolific,3.2.4,MacIntel,60,5ece703852564823b1b07a59,,1,0,81,77,1,80
,,,,,,,,,,,,,,,,,,,,,,,,,,,,,,,,,,,,,,,,,u,3.634000063,BU,FALSE,,,,,,,186,ungla,Catalan,Sounds/cat_ungla.mp3,2020-06-08_18h21.10.067,TranslationElicitation_eng-prolific,3.2.4,MacIntel,60,5ece703852564823b1b07a59,,1,0,81,77,1,80
,,,,,,,,,,,,,,,,,,,,,,,,,,,,,,,,,,,,,,,,,r,3.76699996,BUR,FALSE,,,,,,,186,ungla,Catalan,Sounds/cat_ungla.mp3,2020-06-08_18h21.10.067,TranslationElicitation_eng-prolific,3.2.4,MacIntel,60,5ece703852564823b1b07a59,,1,0,81,77,1,80
,,,,,,,,,,,,,,,,,,,,,,,,,,,,,,,,,,,,,,,,,g,3.967000008,BURG,FALSE,,,,,,,186,ungla,Catalan,Sounds/cat_ungla.mp3,2020-06-08_18h21.10.067,TranslationElicitation_eng-prolific,3.2.4,MacIntel,60,5ece703852564823b1b07a59,,1,0,81,77,1,80
,,,,,,,,,,,,,,,,,,,,,,,,,,,,,,,,,,,,,,,,,l,4.118000031,BURGL,FALSE,,,,,,,186,ungla,Catalan,Sounds/cat_ungla.mp3,2020-06-08_18h21.10.067,TranslationElicitation_eng-prolific,3.2.4,MacIntel,60,5ece703852564823b1b07a59,,1,0,81,77,1,80
,,,,,,,,,,,,,,,,,,,,,,,,,,,,,,,,,,,,,,,,,u,4.349999905,BURGLU,FALSE,,,,,,,186,ungla,Catalan,Sounds/cat_ungla.mp3,2020-06-08_18h21.10.067,TranslationElicitation_eng-prolific,3.2.4,MacIntel,60,5ece703852564823b1b07a59,,1,0,81,77,1,80
,,,,,,,,,,,,,,,,,,,,,,,,,,,,,,,,,,,,,,,,,a,4.467000008,BURGLUA,FALSE,,,,,,,186,ungla,Catalan,Sounds/cat_ungla.mp3,2020-06-08_18h21.10.067,TranslationElicitation_eng-prolific,3.2.4,MacIntel,60,5ece703852564823b1b07a59,,1,0,81,77,1,80
,,,,,,,,,,,,,,,,,,,,,,,,,,,,,,,,,,,,,,,,,backspace,5.38499999,BURGLU,TRUE,,,,,,,186,ungla,Catalan,Sounds/cat_ungla.mp3,2020-06-08_18h21.10.067,TranslationElicitation_eng-prolific,3.2.4,MacIntel,60,5ece703852564823b1b07a59,,1,0,81,77,1,80
,,,,,,,,,,,,,,,,,,,,,,,,,,,,,,,,,,,,,,,,,backspace,5.568000078,BURGL,TRUE,,,,,,,186,ungla,Catalan,Sounds/cat_ungla.mp3,2020-06-08_18h21.10.067,TranslationElicitation_eng-prolific,3.2.4,MacIntel,60,5ece703852564823b1b07a59,,1,0,81,77,1,80
,,,,,,,,,,,,,,,,,,,,,,,,,,,,,,,,,,,,,,,,,a,5.700999975,BURGLA,TRUE,,,,,,,186,ungla,Catalan,Sounds/cat_ungla.mp3,2020-06-08_18h21.10.067,TranslationElicitation_eng-prolific,3.2.4,MacIntel,60,5ece703852564823b1b07a59,,1,0,81,77,1,80
,,,,,,,,,,,,,,,,,,,,,,,,,,,,,,,,,,,,,,,,,r,5.950999975,BURGLAR,TRUE,,,,,,,186,ungla,Catalan,Sounds/cat_ungla.mp3,2020-06-08_18h21.10.067,TranslationElicitation_eng-prolific,3.2.4,MacIntel,60,5ece703852564823b1b07a59,,1,0,81,77,1,80
,,,,,,,,,,,,,,,,,,,,,,,,,,,,,,,,,,,,,,,,,return,6.30099988,BURGLAR,TRUE,,,,,,,186,ungla,Catalan,Sounds/cat_ungla.mp3,2020-06-08_18h21.10.067,TranslationElicitation_eng-prolific,3.2.4,MacIntel,60,5ece703852564823b1b07a59,6.30099988,1,0,81,77,1,80
,,,,,,,,,,,,,,,,,,,,,,,,,,,,,,,,,,,,,,,,,,,,,,,,,,,186,ungla,Catalan,Sounds/cat_ungla.mp3,2020-06-08_18h21.10.067,TranslationElicitation_eng-prolific,3.2.4,MacIntel,60,5ece703852564823b1b07a59,,1,0,81,77,1,80
,,,,,,,,,,,,,,,,,,,,,,,,,,,,,,,,,,,,,,,,,o,6.084000111,O,FALSE,,,,,,,160,orella,Catalan,Sounds/cat_orella.mp3,2020-06-08_18h21.10.067,TranslationElicitation_eng-prolific,3.2.4,MacIntel,60,5ece703852564823b1b07a59,,1,0,81,52,1,80
,,,,,,,,,,,,,,,,,,,,,,,,,,,,,,,,,,,,,,,,,r,6.184999943,OR,FALSE,,,,,,,160,orella,Catalan,Sounds/cat_orella.mp3,2020-06-08_18h21.10.067,TranslationElicitation_eng-prolific,3.2.4,MacIntel,60,5ece703852564823b1b07a59,,1,0,81,52,1,80
,,,,,,,,,,,,,,,,,,,,,,,,,,,,,,,,,,,,,,,,,a,6.40199995,ORA,FALSE,,,,,,,160,orella,Catalan,Sounds/cat_orella.mp3,2020-06-08_18h21.10.067,TranslationElicitation_eng-prolific,3.2.4,MacIntel,60,5ece703852564823b1b07a59,,1,0,81,52,1,80
,,,,,,,,,,,,,,,,,,,,,,,,,,,,,,,,,,,,,,,,,n,6.519000053,ORAN,FALSE,,,,,,,160,orella,Catalan,Sounds/cat_orella.mp3,2020-06-08_18h21.10.067,TranslationElicitation_eng-prolific,3.2.4,MacIntel,60,5ece703852564823b1b07a59,,1,0,81,52,1,80
,,,,,,,,,,,,,,,,,,,,,,,,,,,,,,,,,,,,,,,,,g,6.733999968,ORANG,FALSE,,,,,,,160,orella,Catalan,Sounds/cat_orella.mp3,2020-06-08_18h21.10.067,TranslationElicitation_eng-prolific,3.2.4,MacIntel,60,5ece703852564823b1b07a59,,1,0,81,52,1,80
,,,,,,,,,,,,,,,,,,,,,,,,,,,,,,,,,,,,,,,,,e,6.851000071,ORANGE,FALSE,,,,,,,160,orella,Catalan,Sounds/cat_orella.mp3,2020-06-08_18h21.10.067,TranslationElicitation_eng-prolific,3.2.4,MacIntel,60,5ece703852564823b1b07a59,,1,0,81,52,1,80
,,,,,,,,,,,,,,,,,,,,,,,,,,,,,,,,,,,,,,,,,return,7.368999958,ORANGE,FALSE,,,,,,,160,orella,Catalan,Sounds/cat_orella.mp3,2020-06-08_18h21.10.067,TranslationElicitation_eng-prolific,3.2.4,MacIntel,60,5ece703852564823b1b07a59,7.368999958,1,0,81,52,1,80
,,,,,,,,,,,,,,,,,,,,,,,,,,,,,,,,,,,,,,,,,,,,,,,,,,,160,orella,Catalan,Sounds/cat_orella.mp3,2020-06-08_18h21.10.067,TranslationElicitation_eng-prolific,3.2.4,MacIntel,60,5ece703852564823b1b07a59,,1,0,81,52,1,80
,,,,,,,,,,,,,,,,,,,,,,,,,,,,,,,,,,,,,,,,,b,1.816999912,B,FALSE,,,,,,,113,boca,Catalan,Sounds/cat_boca.mp3,2020-06-08_18h21.10.067,TranslationElicitation_eng-prolific,3.2.4,MacIntel,60,5ece703852564823b1b07a59,,1,0,81,8,1,80
,,,,,,,,,,,,,,,,,,,,,,,,,,,,,,,,,,,,,,,,,backspace,2.617000103,,TRUE,,,,,,,113,boca,Catalan,Sounds/cat_boca.mp3,2020-06-08_18h21.10.067,TranslationElicitation_eng-prolific,3.2.4,MacIntel,60,5ece703852564823b1b07a59,,1,0,81,8,1,80
,,,,,,,,,,,,,,,,,,,,,,,,,,,,,,,,,,,,,,,,,b,3.200000048,B,TRUE,,,,,,,113,boca,Catalan,Sounds/cat_boca.mp3,2020-06-08_18h21.10.067,TranslationElicitation_eng-prolific,3.2.4,MacIntel,60,5ece703852564823b1b07a59,,1,0,81,8,1,80
,,,,,,,,,,,,,,,,,,,,,,,,,,,,,,,,,,,,,,,,,e,3.30099988,BE,TRUE,,,,,,,113,boca,Catalan,Sounds/cat_boca.mp3,2020-06-08_18h21.10.067,TranslationElicitation_eng-prolific,3.2.4,MacIntel,60,5ece703852564823b1b07a59,,1,0,81,8,1,80
,,,,,,,,,,,,,,,,,,,,,,,,,,,,,,,,,,,,,,,,,c,3.51699996,BEC,TRUE,,,,,,,113,boca,Catalan,Sounds/cat_boca.mp3,2020-06-08_18h21.10.067,TranslationElicitation_eng-prolific,3.2.4,MacIntel,60,5ece703852564823b1b07a59,,1,0,81,8,1,80
,,,,,,,,,,,,,,,,,,,,,,,,,,,,,,,,,,,,,,,,,a,3.684000015,BECA,TRUE,,,,,,,113,boca,Catalan,Sounds/cat_boca.mp3,2020-06-08_18h21.10.067,TranslationElicitation_eng-prolific,3.2.4,MacIntel,60,5ece703852564823b1b07a59,,1,0,81,8,1,80
,,,,,,,,,,,,,,,,,,,,,,,,,,,,,,,,,,,,,,,,,u,3.834000111,BECAU,TRUE,,,,,,,113,boca,Catalan,Sounds/cat_boca.mp3,2020-06-08_18h21.10.067,TranslationElicitation_eng-prolific,3.2.4,MacIntel,60,5ece703852564823b1b07a59,,1,0,81,8,1,80
,,,,,,,,,,,,,,,,,,,,,,,,,,,,,,,,,,,,,,,,,s,3.901000023,BECAUS,TRUE,,,,,,,113,boca,Catalan,Sounds/cat_boca.mp3,2020-06-08_18h21.10.067,TranslationElicitation_eng-prolific,3.2.4,MacIntel,60,5ece703852564823b1b07a59,,1,0,81,8,1,80
,,,,,,,,,,,,,,,,,,,,,,,,,,,,,,,,,,,,,,,,,e,4.101999998,BECAUSE,TRUE,,,,,,,113,boca,Catalan,Sounds/cat_boca.mp3,2020-06-08_18h21.10.067,TranslationElicitation_eng-prolific,3.2.4,MacIntel,60,5ece703852564823b1b07a59,,1,0,81,8,1,80
,,,,,,,,,,,,,,,,,,,,,,,,,,,,,,,,,,,,,,,,,return,4.334000111,BECAUSE,TRUE,,,,,,,113,boca,Catalan,Sounds/cat_boca.mp3,2020-06-08_18h21.10.067,TranslationElicitation_eng-prolific,3.2.4,MacIntel,60,5ece703852564823b1b07a59,4.334000111,1,0,81,8,1,80
,,,,,,,,,,,,,,,,,,,,,,,,,,,,,,,,,,,,,,,,,,,,,,,,,,,113,boca,Catalan,Sounds/cat_boca.mp3,2020-06-08_18h21.10.067,TranslationElicitation_eng-prolific,3.2.4,MacIntel,60,5ece703852564823b1b07a59,,1,0,81,8,1,80
,,,,,,,,,,,,,,,,,,,,,,,,,,,,,,,,,,,,,,,,,o,1.549000025,O,FALSE,,,,,,,157,mussol,Catalan,Sounds/cat_mussol.mp3,2020-06-08_18h21.10.067,TranslationElicitation_eng-prolific,3.2.4,MacIntel,60,5ece703852564823b1b07a59,,1,0,81,50,1,80
,,,,,,,,,,,,,,,,,,,,,,,,,,,,,,,,,,,,,,,,,s,1.866999865,OS,FALSE,,,,,,,157,mussol,Catalan,Sounds/cat_mussol.mp3,2020-06-08_18h21.10.067,TranslationElicitation_eng-prolific,3.2.4,MacIntel,60,5ece703852564823b1b07a59,,1,0,81,50,1,80
,,,,,,,,,,,,,,,,,,,,,,,,,,,,,,,,,,,,,,,,,backspace,2.415999889,O,TRUE,,,,,,,157,mussol,Catalan,Sounds/cat_mussol.mp3,2020-06-08_18h21.10.067,TranslationElicitation_eng-prolific,3.2.4,MacIntel,60,5ece703852564823b1b07a59,,1,0,81,50,1,80
,,,,,,,,,,,,,,,,,,,,,,,,,,,,,,,,,,,,,,,,,backspace,2.698999882,,TRUE,,,,,,,157,mussol,Catalan,Sounds/cat_mussol.mp3,2020-06-08_18h21.10.067,TranslationElicitation_eng-prolific,3.2.4,MacIntel,60,5ece703852564823b1b07a59,,1,0,81,50,1,80
,,,,,,,,,,,,,,,,,,,,,,,,,,,,,,,,,,,,,,,,,m,3.217000008,M,TRUE,,,,,,,157,mussol,Catalan,Sounds/cat_mussol.mp3,2020-06-08_18h21.10.067,TranslationElicitation_eng-prolific,3.2.4,MacIntel,60,5ece703852564823b1b07a59,,1,0,81,50,1,80
,,,,,,,,,,,,,,,,,,,,,,,,,,,,,,,,,,,,,,,,,o,3.465999842,MO,TRUE,,,,,,,157,mussol,Catalan,Sounds/cat_mussol.mp3,2020-06-08_18h21.10.067,TranslationElicitation_eng-prolific,3.2.4,MacIntel,60,5ece703852564823b1b07a59,,1,0,81,50,1,80
,,,,,,,,,,,,,,,,,,,,,,,,,,,,,,,,,,,,,,,,,u,3.665999889,MOU,TRUE,,,,,,,157,mussol,Catalan,Sounds/cat_mussol.mp3,2020-06-08_18h21.10.067,TranslationElicitation_eng-prolific,3.2.4,MacIntel,60,5ece703852564823b1b07a59,,1,0,81,50,1,80
,,,,,,,,,,,,,,,,,,,,,,,,,,,,,,,,,,,,,,,,,s,3.799999952,MOUS,TRUE,,,,,,,157,mussol,Catalan,Sounds/cat_mussol.mp3,2020-06-08_18h21.10.067,TranslationElicitation_eng-prolific,3.2.4,MacIntel,60,5ece703852564823b1b07a59,,1,0,81,50,1,80
,,,,,,,,,,,,,,,,,,,,,,,,,,,,,,,,,,,,,,,,,t,3.899999857,MOUST,TRUE,,,,,,,157,mussol,Catalan,Sounds/cat_mussol.mp3,2020-06-08_18h21.10.067,TranslationElicitation_eng-prolific,3.2.4,MacIntel,60,5ece703852564823b1b07a59,,1,0,81,50,1,80
,,,,,,,,,,,,,,,,,,,,,,,,,,,,,,,,,,,,,,,,,a,4,MOUSTA,TRUE,,,,,,,157,mussol,Catalan,Sounds/cat_mussol.mp3,2020-06-08_18h21.10.067,TranslationElicitation_eng-prolific,3.2.4,MacIntel,60,5ece703852564823b1b07a59,,1,0,81,50,1,80
,,,,,,,,,,,,,,,,,,,,,,,,,,,,,,,,,,,,,,,,,h,4.299000025,MOUSTAH,TRUE,,,,,,,157,mussol,Catalan,Sounds/cat_mussol.mp3,2020-06-08_18h21.10.067,TranslationElicitation_eng-prolific,3.2.4,MacIntel,60,5ece703852564823b1b07a59,,1,0,81,50,1,80
,,,,,,,,,,,,,,,,,,,,,,,,,,,,,,,,,,,,,,,,,backspace,4.715999842,MOUSTA,TRUE,,,,,,,157,mussol,Catalan,Sounds/cat_mussol.mp3,2020-06-08_18h21.10.067,TranslationElicitation_eng-prolific,3.2.4,MacIntel,60,5ece703852564823b1b07a59,,1,0,81,50,1,80
,,,,,,,,,,,,,,,,,,,,,,,,,,,,,,,,,,,,,,,,,c,4.832999945,MOUSTAC,TRUE,,,,,,,157,mussol,Catalan,Sounds/cat_mussol.mp3,2020-06-08_18h21.10.067,TranslationElicitation_eng-prolific,3.2.4,MacIntel,60,5ece703852564823b1b07a59,,1,0,81,50,1,80
,,,,,,,,,,,,,,,,,,,,,,,,,,,,,,,,,,,,,,,,,h,5.233999968,MOUSTACH,TRUE,,,,,,,157,mussol,Catalan,Sounds/cat_mussol.mp3,2020-06-08_18h21.10.067,TranslationElicitation_eng-prolific,3.2.4,MacIntel,60,5ece703852564823b1b07a59,,1,0,81,50,1,80
,,,,,,,,,,,,,,,,,,,,,,,,,,,,,,,,,,,,,,,,,e,5.332999945,MOUSTACHE,TRUE,,,,,,,157,mussol,Catalan,Sounds/cat_mussol.mp3,2020-06-08_18h21.10.067,TranslationElicitation_eng-prolific,3.2.4,MacIntel,60,5ece703852564823b1b07a59,,1,0,81,50,1,80
,,,,,,,,,,,,,,,,,,,,,,,,,,,,,,,,,,,,,,,,,return,5.717000008,MOUSTACHE,TRUE,,,,,,,157,mussol,Catalan,Sounds/cat_mussol.mp3,2020-06-08_18h21.10.067,TranslationElicitation_eng-prolific,3.2.4,MacIntel,60,5ece703852564823b1b07a59,5.717000008,1,0,81,50,1,80
,,,,,,,,,,,,,,,,,,,,,,,,,,,,,,,,,,,,,,,,,,,,,,,,,,,157,mussol,Catalan,Sounds/cat_mussol.mp3,2020-06-08_18h21.10.067,TranslationElicitation_eng-prolific,3.2.4,MacIntel,60,5ece703852564823b1b07a59,,1,0,81,50,1,80
,,,,,,,,,,,,,,,,,,,,,,,,,,,,,,,,,,,,,,,,,l,6.767999887,L,FALSE,,,,,,,148,lleo,Catalan,Sounds/cat_lleo.mp3,2020-06-08_18h21.10.067,TranslationElicitation_eng-prolific,3.2.4,MacIntel,60,5ece703852564823b1b07a59,,1,0,81,41,1,80
,,,,,,,,,,,,,,,,,,,,,,,,,,,,,,,,,,,,,,,,,o,6.899999857,LO,FALSE,,,,,,,148,lleo,Catalan,Sounds/cat_lleo.mp3,2020-06-08_18h21.10.067,TranslationElicitation_eng-prolific,3.2.4,MacIntel,60,5ece703852564823b1b07a59,,1,0,81,41,1,80
,,,,,,,,,,,,,,,,,,,,,,,,,,,,,,,,,,,,,,,,,n,7.116999865,LON,FALSE,,,,,,,148,lleo,Catalan,Sounds/cat_lleo.mp3,2020-06-08_18h21.10.067,TranslationElicitation_eng-prolific,3.2.4,MacIntel,60,5ece703852564823b1b07a59,,1,0,81,41,1,80
,,,,,,,,,,,,,,,,,,,,,,,,,,,,,,,,,,,,,,,,,g,7.217999935,LONG,FALSE,,,,,,,148,lleo,Catalan,Sounds/cat_lleo.mp3,2020-06-08_18h21.10.067,TranslationElicitation_eng-prolific,3.2.4,MacIntel,60,5ece703852564823b1b07a59,,1,0,81,41,1,80
,,,,,,,,,,,,,,,,,,,,,,,,,,,,,,,,,,,,,,,,,return,7.651000023,LONG,FALSE,,,,,,,148,lleo,Catalan,Sounds/cat_lleo.mp3,2020-06-08_18h21.10.067,TranslationElicitation_eng-prolific,3.2.4,MacIntel,60,5ece703852564823b1b07a59,7.651000023,1,0,81,41,1,80
,,,,,,,,,,,,,,,,,,,,,,,,,,,,,,,,,,,,,,,,,,,,,,,,,,,148,lleo,Catalan,Sounds/cat_lleo.mp3,2020-06-08_18h21.10.067,TranslationElicitation_eng-prolific,3.2.4,MacIntel,60,5ece703852564823b1b07a59,,1,0,81,41,1,80
,,,,,,,,,,,,,,,,,,,,,,,,,,,,,,,,,,,,,,,,,p,1.782999992,P,FALSE,,,,,,,173,porc,Catalan,Sounds/cat_porc.mp3,2020-06-08_18h21.10.067,TranslationElicitation_eng-prolific,3.2.4,MacIntel,60,5ece703852564823b1b07a59,,1,0,81,65,1,80
,,,,,,,,,,,,,,,,,,,,,,,,,,,,,,,,,,,,,,,,,a,1.932999849,PA,FALSE,,,,,,,173,porc,Catalan,Sounds/cat_porc.mp3,2020-06-08_18h21.10.067,TranslationElicitation_eng-prolific,3.2.4,MacIntel,60,5ece703852564823b1b07a59,,1,0,81,65,1,80
,,,,,,,,,,,,,,,,,,,,,,,,,,,,,,,,,,,,,,,,,r,2.215999842,PAR,FALSE,,,,,,,173,porc,Catalan,Sounds/cat_porc.mp3,2020-06-08_18h21.10.067,TranslationElicitation_eng-prolific,3.2.4,MacIntel,60,5ece703852564823b1b07a59,,1,0,81,65,1,80
,,,,,,,,,,,,,,,,,,,,,,,,,,,,,,,,,,,,,,,,,k,2.349999905,PARK,FALSE,,,,,,,173,porc,Catalan,Sounds/cat_porc.mp3,2020-06-08_18h21.10.067,TranslationElicitation_eng-prolific,3.2.4,MacIntel,60,5ece703852564823b1b07a59,,1,0,81,65,1,80
,,,,,,,,,,,,,,,,,,,,,,,,,,,,,,,,,,,,,,,,,return,3.115999937,PARK,FALSE,,,,,,,173,porc,Catalan,Sounds/cat_porc.mp3,2020-06-08_18h21.10.067,TranslationElicitation_eng-prolific,3.2.4,MacIntel,60,5ece703852564823b1b07a59,3.115999937,1,0,81,65,1,80
,,,,,,,,,,,,,,,,,,,,,,,,,,,,,,,,,,,,,,,,,,,,,,,,,,,173,porc,Catalan,Sounds/cat_porc.mp3,2020-06-08_18h21.10.067,TranslationElicitation_eng-prolific,3.2.4,MacIntel,60,5ece703852564823b1b07a59,,1,0,81,65,1,80
,,,,,,,,,,,,,,,,,,,,,,,,,,,,,,,,,,,,,,,,,m,1.817000151,M,FALSE,,,,,,,152,ma,Catalan,Sounds/cat_ma.mp3,2020-06-08_18h21.10.067,TranslationElicitation_eng-prolific,3.2.4,MacIntel,60,5ece703852564823b1b07a59,,1,0,81,45,1,80
,,,,,,,,,,,,,,,,,,,,,,,,,,,,,,,,,,,,,,,,,a,2.01699996,MA,FALSE,,,,,,,152,ma,Catalan,Sounds/cat_ma.mp3,2020-06-08_18h21.10.067,TranslationElicitation_eng-prolific,3.2.4,MacIntel,60,5ece703852564823b1b07a59,,1,0,81,45,1,80
,,,,,,,,,,,,,,,,,,,,,,,,,,,,,,,,,,,,,,,,,r,2.883000135,MAR,FALSE,,,,,,,152,ma,Catalan,Sounds/cat_ma.mp3,2020-06-08_18h21.10.067,TranslationElicitation_eng-prolific,3.2.4,MacIntel,60,5ece703852564823b1b07a59,,1,0,81,45,1,80
,,,,,,,,,,,,,,,,,,,,,,,,,,,,,,,,,,,,,,,,,s,3.100000143,MARS,FALSE,,,,,,,152,ma,Catalan,Sounds/cat_ma.mp3,2020-06-08_18h21.10.067,TranslationElicitation_eng-prolific,3.2.4,MacIntel,60,5ece703852564823b1b07a59,,1,0,81,45,1,80
,,,,,,,,,,,,,,,,,,,,,,,,,,,,,,,,,,,,,,,,,return,3.617000103,MARS,FALSE,,,,,,,152,ma,Catalan,Sounds/cat_ma.mp3,2020-06-08_18h21.10.067,TranslationElicitation_eng-prolific,3.2.4,MacIntel,60,5ece703852564823b1b07a59,3.617000103,1,0,81,45,1,80
,,,,,,,,,,,,,,,,,,,,,,,,,,,,,,,,,,,,,,,,,,,,,,,,,,,152,ma,Catalan,Sounds/cat_ma.mp3,2020-06-08_18h21.10.067,TranslationElicitation_eng-prolific,3.2.4,MacIntel,60,5ece703852564823b1b07a59,,1,0,81,45,1,80
,,,,,,,,,,,,,,,,,,,,,,,,,,,,,,,,,,,,,,,,,b,1.733999968,B,FALSE,,,,,,,116,bolquer,Catalan,Sounds/cat_bolquer.mp3,2020-06-08_18h21.10.067,TranslationElicitation_eng-prolific,3.2.4,MacIntel,60,5ece703852564823b1b07a59,,1,0,81,11,1,80
,,,,,,,,,,,,,,,,,,,,,,,,,,,,,,,,,,,,,,,,,e,1.883999825,BE,FALSE,,,,,,,116,bolquer,Catalan,Sounds/cat_bolquer.mp3,2020-06-08_18h21.10.067,TranslationElicitation_eng-prolific,3.2.4,MacIntel,60,5ece703852564823b1b07a59,,1,0,81,11,1,80
,,,,,,,,,,,,,,,,,,,,,,,,,,,,,,,,,,,,,,,,,c,2.0849998,BEC,FALSE,,,,,,,116,bolquer,Catalan,Sounds/cat_bolquer.mp3,2020-06-08_18h21.10.067,TranslationElicitation_eng-prolific,3.2.4,MacIntel,60,5ece703852564823b1b07a59,,1,0,81,11,1,80
,,,,,,,,,,,,,,,,,,,,,,,,,,,,,,,,,,,,,,,,,a,2.26699996,BECA,FALSE,,,,,,,116,bolquer,Catalan,Sounds/cat_bolquer.mp3,2020-06-08_18h21.10.067,TranslationElicitation_eng-prolific,3.2.4,MacIntel,60,5ece703852564823b1b07a59,,1,0,81,11,1,80
,,,,,,,,,,,,,,,,,,,,,,,,,,,,,,,,,,,,,,,,,u,2.416999817,BECAU,FALSE,,,,,,,116,bolquer,Catalan,Sounds/cat_bolquer.mp3,2020-06-08_18h21.10.067,TranslationElicitation_eng-prolific,3.2.4,MacIntel,60,5ece703852564823b1b07a59,,1,0,81,11,1,80
,,,,,,,,,,,,,,,,,,,,,,,,,,,,,,,,,,,,,,,,,s,2.467999935,BECAUS,FALSE,,,,,,,116,bolquer,Catalan,Sounds/cat_bolquer.mp3,2020-06-08_18h21.10.067,TranslationElicitation_eng-prolific,3.2.4,MacIntel,60,5ece703852564823b1b07a59,,1,0,81,11,1,80
,,,,,,,,,,,,,,,,,,,,,,,,,,,,,,,,,,,,,,,,,e,2.666999817,BECAUSE,FALSE,,,,,,,116,bolquer,Catalan,Sounds/cat_bolquer.mp3,2020-06-08_18h21.10.067,TranslationElicitation_eng-prolific,3.2.4,MacIntel,60,5ece703852564823b1b07a59,,1,0,81,11,1,80
,,,,,,,,,,,,,,,,,,,,,,,,,,,,,,,,,,,,,,,,,backspace,3.383999825,BECAUS,TRUE,,,,,,,116,bolquer,Catalan,Sounds/cat_bolquer.mp3,2020-06-08_18h21.10.067,TranslationElicitation_eng-prolific,3.2.4,MacIntel,60,5ece703852564823b1b07a59,,1,0,81,11,1,80
,,,,,,,,,,,,,,,,,,,,,,,,,,,,,,,,,,,,,,,,,backspace,3.534999847,BECAU,TRUE,,,,,,,116,bolquer,Catalan,Sounds/cat_bolquer.mp3,2020-06-08_18h21.10.067,TranslationElicitation_eng-prolific,3.2.4,MacIntel,60,5ece703852564823b1b07a59,,1,0,81,11,1,80
,,,,,,,,,,,,,,,,,,,,,,,,,,,,,,,,,,,,,,,,,backspace,3.684999943,BECA,TRUE,,,,,,,116,bolquer,Catalan,Sounds/cat_bolquer.mp3,2020-06-08_18h21.10.067,TranslationElicitation_eng-prolific,3.2.4,MacIntel,60,5ece703852564823b1b07a59,,1,0,81,11,1,80
,,,,,,,,,,,,,,,,,,,,,,,,,,,,,,,,,,,,,,,,,backspace,3.851999998,BEC,TRUE,,,,,,,116,bolquer,Catalan,Sounds/cat_bolquer.mp3,2020-06-08_18h21.10.067,TranslationElicitation_eng-prolific,3.2.4,MacIntel,60,5ece703852564823b1b07a59,,1,0,81,11,1,80
,,,,,,,,,,,,,,,,,,,,,,,,,,,,,,,,,,,,,,,,,backspace,3.984999895,BE,TRUE,,,,,,,116,bolquer,Catalan,Sounds/cat_bolquer.mp3,2020-06-08_18h21.10.067,TranslationElicitation_eng-prolific,3.2.4,MacIntel,60,5ece703852564823b1b07a59,,1,0,81,11,1,80
,,,,,,,,,,,,,,,,,,,,,,,,,,,,,,,,,,,,,,,,,backspace,4.13499999,B,TRUE,,,,,,,116,bolquer,Catalan,Sounds/cat_bolquer.mp3,2020-06-08_18h21.10.067,TranslationElicitation_eng-prolific,3.2.4,MacIntel,60,5ece703852564823b1b07a59,,1,0,81,11,1,80
,,,,,,,,,,,,,,,,,,,,,,,,,,,,,,,,,,,,,,,,,backspace,4.350999832,,TRUE,,,,,,,116,bolquer,Catalan,Sounds/cat_bolquer.mp3,2020-06-08_18h21.10.067,TranslationElicitation_eng-prolific,3.2.4,MacIntel,60,5ece703852564823b1b07a59,,1,0,81,11,1,80
,,,,,,,,,,,,,,,,,,,,,,,,,,,,,,,,,,,,,,,,,w,4.666999817,W,TRUE,,,,,,,116,bolquer,Catalan,Sounds/cat_bolquer.mp3,2020-06-08_18h21.10.067,TranslationElicitation_eng-prolific,3.2.4,MacIntel,60,5ece703852564823b1b07a59,,1,0,81,11,1,80
,,,,,,,,,,,,,,,,,,,,,,,,,,,,,,,,,,,,,,,,,h,4.90199995,WH,TRUE,,,,,,,116,bolquer,Catalan,Sounds/cat_bolquer.mp3,2020-06-08_18h21.10.067,TranslationElicitation_eng-prolific,3.2.4,MacIntel,60,5ece703852564823b1b07a59,,1,0,81,11,1,80
,,,,,,,,,,,,,,,,,,,,,,,,,,,,,,,,,,,,,,,,,y,5.0849998,WHY,TRUE,,,,,,,116,bolquer,Catalan,Sounds/cat_bolquer.mp3,2020-06-08_18h21.10.067,TranslationElicitation_eng-prolific,3.2.4,MacIntel,60,5ece703852564823b1b07a59,,1,0,81,11,1,80
,,,,,,,,,,,,,,,,,,,,,,,,,,,,,,,,,,,,,,,,,return,5.534999847,WHY,TRUE,,,,,,,116,bolquer,Catalan,Sounds/cat_bolquer.mp3,2020-06-08_18h21.10.067,TranslationElicitation_eng-prolific,3.2.4,MacIntel,60,5ece703852564823b1b07a59,5.534999847,1,0,81,11,1,80
,,,,,,,,,,,,,,,,,,,,,,,,,,,,,,,,,,,,,,,,,,,,,,,,,,,116,bolquer,Catalan,Sounds/cat_bolquer.mp3,2020-06-08_18h21.10.067,TranslationElicitation_eng-prolific,3.2.4,MacIntel,60,5ece703852564823b1b07a59,,1,0,81,11,1,80
,,,,,,,,,,,,,,,,,,,,,,,,,,,,,,,,,,,,,,,,,m,4.23300004,M,FALSE,,,,,,,141,gerd,Catalan,Sounds/cat_gerd.mp3,2020-06-08_18h21.10.067,TranslationElicitation_eng-prolific,3.2.4,MacIntel,60,5ece703852564823b1b07a59,,1,0,81,35,1,80
,,,,,,,,,,,,,,,,,,,,,,,,,,,,,,,,,,,,,,,,,e,4.384000063,ME,FALSE,,,,,,,141,gerd,Catalan,Sounds/cat_gerd.mp3,2020-06-08_18h21.10.067,TranslationElicitation_eng-prolific,3.2.4,MacIntel,60,5ece703852564823b1b07a59,,1,0,81,35,1,80
,,,,,,,,,,,,,,,,,,,,,,,,,,,,,,,,,,,,,,,,,return,4.801000118,ME,FALSE,,,,,,,141,gerd,Catalan,Sounds/cat_gerd.mp3,2020-06-08_18h21.10.067,TranslationElicitation_eng-prolific,3.2.4,MacIntel,60,5ece703852564823b1b07a59,4.801000118,1,0,81,35,1,80
,,,,,,,,,,,,,,,,,,,,,,,,,,,,,,,,,,,,,,,,,,,,,,,,,,,141,gerd,Catalan,Sounds/cat_gerd.mp3,2020-06-08_18h21.10.067,TranslationElicitation_eng-prolific,3.2.4,MacIntel,60,5ece703852564823b1b07a59,,1,0,81,35,1,80
,,,,,,,,,,,,,,,,,,,,,,,,,,,,,,,,,,,,,,,,,f,1.598999977,F,FALSE,,,,,,,134,flor,Catalan,Sounds/cat_flor.mp3,2020-06-08_18h21.10.067,TranslationElicitation_eng-prolific,3.2.4,MacIntel,60,5ece703852564823b1b07a59,,1,0,81,28,1,80
,,,,,,,,,,,,,,,,,,,,,,,,,,,,,,,,,,,,,,,,,l,1.766000032,FL,FALSE,,,,,,,134,flor,Catalan,Sounds/cat_flor.mp3,2020-06-08_18h21.10.067,TranslationElicitation_eng-prolific,3.2.4,MacIntel,60,5ece703852564823b1b07a59,,1,0,81,28,1,80
,,,,,,,,,,,,,,,,,,,,,,,,,,,,,,,,,,,,,,,,,o,1.931999922,FLO,FALSE,,,,,,,134,flor,Catalan,Sounds/cat_flor.mp3,2020-06-08_18h21.10.067,TranslationElicitation_eng-prolific,3.2.4,MacIntel,60,5ece703852564823b1b07a59,,1,0,81,28,1,80
,,,,,,,,,,,,,,,,,,,,,,,,,,,,,,,,,,,,,,,,,o,2.049000025,FLOO,FALSE,,,,,,,134,flor,Catalan,Sounds/cat_flor.mp3,2020-06-08_18h21.10.067,TranslationElicitation_eng-prolific,3.2.4,MacIntel,60,5ece703852564823b1b07a59,,1,0,81,28,1,80
,,,,,,,,,,,,,,,,,,,,,,,,,,,,,,,,,,,,,,,,,r,2.181999922,FLOOR,FALSE,,,,,,,134,flor,Catalan,Sounds/cat_flor.mp3,2020-06-08_18h21.10.067,TranslationElicitation_eng-prolific,3.2.4,MacIntel,60,5ece703852564823b1b07a59,,1,0,81,28,1,80
,,,,,,,,,,,,,,,,,,,,,,,,,,,,,,,,,,,,,,,,,return,2.5,FLOOR,FALSE,,,,,,,134,flor,Catalan,Sounds/cat_flor.mp3,2020-06-08_18h21.10.067,TranslationElicitation_eng-prolific,3.2.4,MacIntel,60,5ece703852564823b1b07a59,2.5,1,0,81,28,1,80
,,,,,,,,,,,,,,,,,,,,,,,,,,,,,,,,,,,,,,,,,,,,,,,,,,,134,flor,Catalan,Sounds/cat_flor.mp3,2020-06-08_18h21.10.067,TranslationElicitation_eng-prolific,3.2.4,MacIntel,60,5ece703852564823b1b07a59,,1,0,81,28,1,80
,,,,,,,,,,,,,,,,,,,,,,,,,,,,,,,,,,,,,,,,,r,1.600000143,R,FALSE,,,,,,,175,raspall,Catalan,Sounds/cat_raspall.mp3,2020-06-08_18h21.10.067,TranslationElicitation_eng-prolific,3.2.4,MacIntel,60,5ece703852564823b1b07a59,,1,0,81,67,1,80
,,,,,,,,,,,,,,,,,,,,,,,,,,,,,,,,,,,,,,,,,e,1.767000198,RE,FALSE,,,,,,,175,raspall,Catalan,Sounds/cat_raspall.mp3,2020-06-08_18h21.10.067,TranslationElicitation_eng-prolific,3.2.4,MacIntel,60,5ece703852564823b1b07a59,,1,0,81,67,1,80
,,,,,,,,,,,,,,,,,,,,,,,,,,,,,,,,,,,,,,,,,s,1.968000174,RES,FALSE,,,,,,,175,raspall,Catalan,Sounds/cat_raspall.mp3,2020-06-08_18h21.10.067,TranslationElicitation_eng-prolific,3.2.4,MacIntel,60,5ece703852564823b1b07a59,,1,0,81,67,1,80
,,,,,,,,,,,,,,,,,,,,,,,,,,,,,,,,,,,,,,,,,p,2.140000105,RESP,FALSE,,,,,,,175,raspall,Catalan,Sounds/cat_raspall.mp3,2020-06-08_18h21.10.067,TranslationElicitation_eng-prolific,3.2.4,MacIntel,60,5ece703852564823b1b07a59,,1,0,81,67,1,80
,,,,,,,,,,,,,,,,,,,,,,,,,,,,,,,,,,,,,,,,,i,2.367000103,RESPI,FALSE,,,,,,,175,raspall,Catalan,Sounds/cat_raspall.mp3,2020-06-08_18h21.10.067,TranslationElicitation_eng-prolific,3.2.4,MacIntel,60,5ece703852564823b1b07a59,,1,0,81,67,1,80
,,,,,,,,,,,,,,,,,,,,,,,,,,,,,,,,,,,,,,,,,r,2.5,RESPIR,FALSE,,,,,,,175,raspall,Catalan,Sounds/cat_raspall.mp3,2020-06-08_18h21.10.067,TranslationElicitation_eng-prolific,3.2.4,MacIntel,60,5ece703852564823b1b07a59,,1,0,81,67,1,80
,,,,,,,,,,,,,,,,,,,,,,,,,,,,,,,,,,,,,,,,,e,2.685000181,RESPIRE,FALSE,,,,,,,175,raspall,Catalan,Sounds/cat_raspall.mp3,2020-06-08_18h21.10.067,TranslationElicitation_eng-prolific,3.2.4,MacIntel,60,5ece703852564823b1b07a59,,1,0,81,67,1,80
,,,,,,,,,,,,,,,,,,,,,,,,,,,,,,,,,,,,,,,,,return,4.651000023,RESPIRE,FALSE,,,,,,,175,raspall,Catalan,Sounds/cat_raspall.mp3,2020-06-08_18h21.10.067,TranslationElicitation_eng-prolific,3.2.4,MacIntel,60,5ece703852564823b1b07a59,4.651000023,1,0,81,67,1,80
,,,,,,,,,,,,,,,,,,,,,,,,,,,,,,,,,,,,,,,,,,,,,,,,,,,175,raspall,Catalan,Sounds/cat_raspall.mp3,2020-06-08_18h21.10.067,TranslationElicitation_eng-prolific,3.2.4,MacIntel,60,5ece703852564823b1b07a59,,1,0,81,67,1,80
,,,,,,,,,,,,,,,,,,,,,,,,,,,,,,,,,,,,,,,,,l,1.815999985,L,FALSE,,,,,,,151,lluna,Catalan,Sounds/cat_lluna.mp3,2020-06-08_18h21.10.067,TranslationElicitation_eng-prolific,3.2.4,MacIntel,60,5ece703852564823b1b07a59,,1,0,81,44,1,80
,,,,,,,,,,,,,,,,,,,,,,,,,,,,,,,,,,,,,,,,,u,2.065999985,LU,FALSE,,,,,,,151,lluna,Catalan,Sounds/cat_lluna.mp3,2020-06-08_18h21.10.067,TranslationElicitation_eng-prolific,3.2.4,MacIntel,60,5ece703852564823b1b07a59,,1,0,81,44,1,80
,,,,,,,,,,,,,,,,,,,,,,,,,,,,,,,,,,,,,,,,,n,2.265999794,LUN,FALSE,,,,,,,151,lluna,Catalan,Sounds/cat_lluna.mp3,2020-06-08_18h21.10.067,TranslationElicitation_eng-prolific,3.2.4,MacIntel,60,5ece703852564823b1b07a59,,1,0,81,44,1,80
,,,,,,,,,,,,,,,,,,,,,,,,,,,,,,,,,,,,,,,,,a,2.348999977,LUNA,FALSE,,,,,,,151,lluna,Catalan,Sounds/cat_lluna.mp3,2020-06-08_18h21.10.067,TranslationElicitation_eng-prolific,3.2.4,MacIntel,60,5ece703852564823b1b07a59,,1,0,81,44,1,80
,,,,,,,,,,,,,,,,,,,,,,,,,,,,,,,,,,,,,,,,,return,2.598999977,LUNA,FALSE,,,,,,,151,lluna,Catalan,Sounds/cat_lluna.mp3,2020-06-08_18h21.10.067,TranslationElicitation_eng-prolific,3.2.4,MacIntel,60,5ece703852564823b1b07a59,2.598999977,1,0,81,44,1,80
,,,,,,,,,,,,,,,,,,,,,,,,,,,,,,,,,,,,,,,,,,,,,,,,,,,151,lluna,Catalan,Sounds/cat_lluna.mp3,2020-06-08_18h21.10.067,TranslationElicitation_eng-prolific,3.2.4,MacIntel,60,5ece703852564823b1b07a59,,1,0,81,44,1,80
,,,,,,,,,,,,,,,,,,,,,,,,,,,,,,,,,,,,,,,,,m,2.96600008,M,FALSE,,,,,,,153,mico,Catalan,Sounds/cat_mico.mp3,2020-06-08_18h21.10.067,TranslationElicitation_eng-prolific,3.2.4,MacIntel,60,5ece703852564823b1b07a59,,1,0,81,46,1,80
,,,,,,,,,,,,,,,,,,,,,,,,,,,,,,,,,,,,,,,,,i,3.200000048,MI,FALSE,,,,,,,153,mico,Catalan,Sounds/cat_mico.mp3,2020-06-08_18h21.10.067,TranslationElicitation_eng-prolific,3.2.4,MacIntel,60,5ece703852564823b1b07a59,,1,0,81,46,1,80
,,,,,,,,,,,,,,,,,,,,,,,,,,,,,,,,,,,,,,,,,c,3.384000063,MIC,FALSE,,,,,,,153,mico,Catalan,Sounds/cat_mico.mp3,2020-06-08_18h21.10.067,TranslationElicitation_eng-prolific,3.2.4,MacIntel,60,5ece703852564823b1b07a59,,1,0,81,46,1,80
,,,,,,,,,,,,,,,,,,,,,,,,,,,,,,,,,,,,,,,,,h,3.516000032,MICH,FALSE,,,,,,,153,mico,Catalan,Sounds/cat_mico.mp3,2020-06-08_18h21.10.067,TranslationElicitation_eng-prolific,3.2.4,MacIntel,60,5ece703852564823b1b07a59,,1,0,81,46,1,80
,,,,,,,,,,,,,,,,,,,,,,,,,,,,,,,,,,,,,,,,,a,3.882999897,MICHA,FALSE,,,,,,,153,mico,Catalan,Sounds/cat_mico.mp3,2020-06-08_18h21.10.067,TranslationElicitation_eng-prolific,3.2.4,MacIntel,60,5ece703852564823b1b07a59,,1,0,81,46,1,80
,,,,,,,,,,,,,,,,,,,,,,,,,,,,,,,,,,,,,,,,,e,4.082999945,MICHAE,FALSE,,,,,,,153,mico,Catalan,Sounds/cat_mico.mp3,2020-06-08_18h21.10.067,TranslationElicitation_eng-prolific,3.2.4,MacIntel,60,5ece703852564823b1b07a59,,1,0,81,46,1,80
,,,,,,,,,,,,,,,,,,,,,,,,,,,,,,,,,,,,,,,,,l,4.25,MICHAEL,FALSE,,,,,,,153,mico,Catalan,Sounds/cat_mico.mp3,2020-06-08_18h21.10.067,TranslationElicitation_eng-prolific,3.2.4,MacIntel,60,5ece703852564823b1b07a59,,1,0,81,46,1,80
,,,,,,,,,,,,,,,,,,,,,,,,,,,,,,,,,,,,,,,,,return,4.849999905,MICHAEL,FALSE,,,,,,,153,mico,Catalan,Sounds/cat_mico.mp3,2020-06-08_18h21.10.067,TranslationElicitation_eng-prolific,3.2.4,MacIntel,60,5ece703852564823b1b07a59,4.849999905,1,0,81,46,1,80
,,,,,,,,,,,,,,,,,,,,,,,,,,,,,,,,,,,,,,,,,,,,,,,,,,,153,mico,Catalan,Sounds/cat_mico.mp3,2020-06-08_18h21.10.067,TranslationElicitation_eng-prolific,3.2.4,MacIntel,60,5ece703852564823b1b07a59,,1,0,81,46,1,80
,,,,,,,,,,,,,,,,,,,,,,,,,,,,,,,,,,,,,,,,,d,2.901000023,D,FALSE,,,,,,,180,tisores,Catalan,Sounds/cat_tisores.mp3,2020-06-08_18h21.10.067,TranslationElicitation_eng-prolific,3.2.4,MacIntel,60,5ece703852564823b1b07a59,,1,0,81,71,1,80
,,,,,,,,,,,,,,,,,,,,,,,,,,,,,,,,,,,,,,,,,i,3.118000031,DI,FALSE,,,,,,,180,tisores,Catalan,Sounds/cat_tisores.mp3,2020-06-08_18h21.10.067,TranslationElicitation_eng-prolific,3.2.4,MacIntel,60,5ece703852564823b1b07a59,,1,0,81,71,1,80
,,,,,,,,,,,,,,,,,,,,,,,,,,,,,,,,,,,,,,,,,d,3.73300004,DID,FALSE,,,,,,,180,tisores,Catalan,Sounds/cat_tisores.mp3,2020-06-08_18h21.10.067,TranslationElicitation_eng-prolific,3.2.4,MacIntel,60,5ece703852564823b1b07a59,,1,0,81,71,1,80
,,,,,,,,,,,,,,,,,,,,,,,,,,,,,,,,,,,,,,,,,o,5.200999975,DIDO,FALSE,,,,,,,180,tisores,Catalan,Sounds/cat_tisores.mp3,2020-06-08_18h21.10.067,TranslationElicitation_eng-prolific,3.2.4,MacIntel,60,5ece703852564823b1b07a59,,1,0,81,71,1,80
,,,,,,,,,,,,,,,,,,,,,,,,,,,,,,,,,,,,,,,,,r,5.318000078,DIDOR,FALSE,,,,,,,180,tisores,Catalan,Sounds/cat_tisores.mp3,2020-06-08_18h21.10.067,TranslationElicitation_eng-prolific,3.2.4,MacIntel,60,5ece703852564823b1b07a59,,1,0,81,71,1,80
,,,,,,,,,,,,,,,,,,,,,,,,,,,,,,,,,,,,,,,,,u,5.484000206,DIDORU,FALSE,,,,,,,180,tisores,Catalan,Sounds/cat_tisores.mp3,2020-06-08_18h21.10.067,TranslationElicitation_eng-prolific,3.2.4,MacIntel,60,5ece703852564823b1b07a59,,1,0,81,71,1,80
,,,,,,,,,,,,,,,,,,,,,,,,,,,,,,,,,,,,,,,,,s,5.584000111,DIDORUS,FALSE,,,,,,,180,tisores,Catalan,Sounds/cat_tisores.mp3,2020-06-08_18h21.10.067,TranslationElicitation_eng-prolific,3.2.4,MacIntel,60,5ece703852564823b1b07a59,,1,0,81,71,1,80
,,,,,,,,,,,,,,,,,,,,,,,,,,,,,,,,,,,,,,,,,return,6.167999983,DIDORUS,FALSE,,,,,,,180,tisores,Catalan,Sounds/cat_tisores.mp3,2020-06-08_18h21.10.067,TranslationElicitation_eng-prolific,3.2.4,MacIntel,60,5ece703852564823b1b07a59,6.167999983,1,0,81,71,1,80
,,,,,,,,,,,,,,,,,,,,,,,,,,,,,,,,,,,,,,,,,,,,,,,,,,,180,tisores,Catalan,Sounds/cat_tisores.mp3,2020-06-08_18h21.10.067,TranslationElicitation_eng-prolific,3.2.4,MacIntel,60,5ece703852564823b1b07a59,,1,0,81,71,1,80
,,,,,,,,,,,,,,,,,,,,,,,,,,,,,,,,,,,,,,,,,g,2.017000198,G,FALSE,,,,,,,144,gorra,Catalan,Sounds/cat_gorra.mp3,2020-06-08_18h21.10.067,TranslationElicitation_eng-prolific,3.2.4,MacIntel,60,5ece703852564823b1b07a59,,1,0,81,38,1,80
,,,,,,,,,,,,,,,,,,,,,,,,,,,,,,,,,,,,,,,,,l,2.149000168,GL,FALSE,,,,,,,144,gorra,Catalan,Sounds/cat_gorra.mp3,2020-06-08_18h21.10.067,TranslationElicitation_eng-prolific,3.2.4,MacIntel,60,5ece703852564823b1b07a59,,1,0,81,38,1,80
,,,,,,,,,,,,,,,,,,,,,,,,,,,,,,,,,,,,,,,,,o,2.316000223,GLO,FALSE,,,,,,,144,gorra,Catalan,Sounds/cat_gorra.mp3,2020-06-08_18h21.10.067,TranslationElicitation_eng-prolific,3.2.4,MacIntel,60,5ece703852564823b1b07a59,,1,0,81,38,1,80
,,,,,,,,,,,,,,,,,,,,,,,,,,,,,,,,,,,,,,,,,r,2.417000055,GLOR,FALSE,,,,,,,144,gorra,Catalan,Sounds/cat_gorra.mp3,2020-06-08_18h21.10.067,TranslationElicitation_eng-prolific,3.2.4,MacIntel,60,5ece703852564823b1b07a59,,1,0,81,38,1,80
