consentKey.keys,consentKey.rt,languageL1Key.keys,languageL1Key.rt,languageL2,languageL2OralKey.keys,languageL2OralKey.rt,languageL2WrittenKey.keys,languageL2WrittenKey.rt,languageL3,languageL3OralKey.keys,languageL3OralKey.rt,languageL3WrittenKey.keys,languageL3WrittenKey.rt,languageCatalanOralKey.keys,languageCatalanOralKey.rt,languageCatalanWrittenKey.keys,languageCatalanWrittenKey.rt,languageCatalanTimeKey.keys,languageCatalanTimeKey.rt,languageSpanishOralKey.keys,languageSpanishOralKey.rt,languageSpanishWrittenKey.keys,languageSpanishWrittenKey.rt,languageSpanishTimeKey.keys,languageSpanishTimeKey.rt,age,demoSexKey.keys,demoSexKey.rt,demoEducationKey.keys,demoEducationKey.rt,city,demoVisionKey.keys,demoVisionKey.rt,demoLanguageKey.keys,demoLanguageKey.rt,setupLocationKey.keys,setupLocationKey.rt,setupNoiseKey.keys,setupNoiseKey.rt,instructionsKeys.keys,instructionsKeys.rt,keyPressed,keyPressTime,inputText,error,trialsPracticeCatalan.thisRepN,trialsPracticeCatalan.thisTrialN,trialsPracticeCatalan.thisN,trialsPracticeCatalan.thisIndex,trialsPracticeCatalan.ran,trialsPracticeCatalan.order,trial_id,word,test_language,soundfile,date,expName,psychopyVersion,OS,frameRate,participant,trialOffset,trialsCatalan.thisRepN,trialsCatalan.thisTrialN,trialsCatalan.thisN,trialsCatalan.thisIndex,trialsCatalan.ran,trialsCatalan.order
space,3.071000099,e,3.023999929, ,1,8.513999939,1,4.308999777,,,,,,1,2.70299983,1,2.309000015,1,7.265000105,1,4.413000107,1,2.282999754,1,3.361000061,21,f,2.181999922,4,2.417000055,NRSPACELONDON,y,2.748999834,n,2.126999855,1,2.924999952,1,2.361000061,space,8.852999926,k,4.633000135,K,FALSE,1,0,5,2,1,4,147,jaqueta,Catalan,Sounds/cat_jaqueta.mp3,2020-06-05_12h41.09.595,TranslationElicitation_eng-prolific,3.2.4,MacIntel,60,5ed0d7a61cb3e101dc72f93e,,,,,,,
,,,,,,,,,,,,,,,,,,,,,,,,,,,,,,,,,,,,,,,,,,a,4.730999947,KA,FALSE,1,0,5,2,1,4,147,jaqueta,Catalan,Sounds/cat_jaqueta.mp3,2020-06-05_12h41.09.595,TranslationElicitation_eng-prolific,3.2.4,MacIntel,60,5ed0d7a61cb3e101dc72f93e,,,,,,,
,,,,,,,,,,,,,,,,,,,,,,,,,,,,,,,,,,,,,,,,,,c,4.980999947,KAC,FALSE,1,0,5,2,1,4,147,jaqueta,Catalan,Sounds/cat_jaqueta.mp3,2020-06-05_12h41.09.595,TranslationElicitation_eng-prolific,3.2.4,MacIntel,60,5ed0d7a61cb3e101dc72f93e,,,,,,,
,,,,,,,,,,,,,,,,,,,,,,,,,,,,,,,,,,,,,,,,,,backspace,5.482000113,KA,TRUE,1,0,5,2,1,4,147,jaqueta,Catalan,Sounds/cat_jaqueta.mp3,2020-06-05_12h41.09.595,TranslationElicitation_eng-prolific,3.2.4,MacIntel,60,5ed0d7a61cb3e101dc72f93e,,,,,,,
,,,,,,,,,,,,,,,,,,,,,,,,,,,,,,,,,,,,,,,,,,backspace,5.614000082,K,TRUE,1,0,5,2,1,4,147,jaqueta,Catalan,Sounds/cat_jaqueta.mp3,2020-06-05_12h41.09.595,TranslationElicitation_eng-prolific,3.2.4,MacIntel,60,5ed0d7a61cb3e101dc72f93e,,,,,,,
,,,,,,,,,,,,,,,,,,,,,,,,,,,,,,,,,,,,,,,,,,backspace,5.748000145,,TRUE,1,0,5,2,1,4,147,jaqueta,Catalan,Sounds/cat_jaqueta.mp3,2020-06-05_12h41.09.595,TranslationElicitation_eng-prolific,3.2.4,MacIntel,60,5ed0d7a61cb3e101dc72f93e,,,,,,,
,,,,,,,,,,,,,,,,,,,,,,,,,,,,,,,,,,,,,,,,,,backspace,5.86500001,,TRUE,1,0,5,2,1,4,147,jaqueta,Catalan,Sounds/cat_jaqueta.mp3,2020-06-05_12h41.09.595,TranslationElicitation_eng-prolific,3.2.4,MacIntel,60,5ed0d7a61cb3e101dc72f93e,,,,,,,
,,,,,,,,,,,,,,,,,,,,,,,,,,,,,,,,,,,,,,,,,,j,6.09800005,J,TRUE,1,0,5,2,1,4,147,jaqueta,Catalan,Sounds/cat_jaqueta.mp3,2020-06-05_12h41.09.595,TranslationElicitation_eng-prolific,3.2.4,MacIntel,60,5ed0d7a61cb3e101dc72f93e,,,,,,,
,,,,,,,,,,,,,,,,,,,,,,,,,,,,,,,,,,,,,,,,,,a,6.197999954,JA,TRUE,1,0,5,2,1,4,147,jaqueta,Catalan,Sounds/cat_jaqueta.mp3,2020-06-05_12h41.09.595,TranslationElicitation_eng-prolific,3.2.4,MacIntel,60,5ed0d7a61cb3e101dc72f93e,,,,,,,
,,,,,,,,,,,,,,,,,,,,,,,,,,,,,,,,,,,,,,,,,,c,6.398000002,JAC,TRUE,1,0,5,2,1,4,147,jaqueta,Catalan,Sounds/cat_jaqueta.mp3,2020-06-05_12h41.09.595,TranslationElicitation_eng-prolific,3.2.4,MacIntel,60,5ed0d7a61cb3e101dc72f93e,,,,,,,
,,,,,,,,,,,,,,,,,,,,,,,,,,,,,,,,,,,,,,,,,,k,6.531000137,JACK,TRUE,1,0,5,2,1,4,147,jaqueta,Catalan,Sounds/cat_jaqueta.mp3,2020-06-05_12h41.09.595,TranslationElicitation_eng-prolific,3.2.4,MacIntel,60,5ed0d7a61cb3e101dc72f93e,,,,,,,
,,,,,,,,,,,,,,,,,,,,,,,,,,,,,,,,,,,,,,,,,,e,6.63499999,JACKE,TRUE,1,0,5,2,1,4,147,jaqueta,Catalan,Sounds/cat_jaqueta.mp3,2020-06-05_12h41.09.595,TranslationElicitation_eng-prolific,3.2.4,MacIntel,60,5ed0d7a61cb3e101dc72f93e,,,,,,,
,,,,,,,,,,,,,,,,,,,,,,,,,,,,,,,,,,,,,,,,,,t,6.881000042,JACKET,TRUE,1,0,5,2,1,4,147,jaqueta,Catalan,Sounds/cat_jaqueta.mp3,2020-06-05_12h41.09.595,TranslationElicitation_eng-prolific,3.2.4,MacIntel,60,5ed0d7a61cb3e101dc72f93e,,,,,,,
,,,,,,,,,,,,,,,,,,,,,,,,,,,,,,,,,,,,,,,,,,return,7.565000057,JACKET,TRUE,1,0,5,2,1,4,147,jaqueta,Catalan,Sounds/cat_jaqueta.mp3,2020-06-05_12h41.09.595,TranslationElicitation_eng-prolific,3.2.4,MacIntel,60,5ed0d7a61cb3e101dc72f93e,7.565000057,,,,,,
,,,,,,,,,,,,,,,,,,,,,,,,,,,,,,,,,,,,,,,,,,,,,,1,0,5,2,1,4,147,jaqueta,Catalan,Sounds/cat_jaqueta.mp3,2020-06-05_12h41.09.595,TranslationElicitation_eng-prolific,3.2.4,MacIntel,60,5ed0d7a61cb3e101dc72f93e,,,,,,,
,,,,,,,,,,,,,,,,,,,,,,,,,,,,,,,,,,,,,,,,,,space,2.999000072, ,FALSE,1,0,5,3,1,4,159,onada,Catalan,Sounds/cat_onada.mp3,2020-06-05_12h41.09.595,TranslationElicitation_eng-prolific,3.2.4,MacIntel,60,5ed0d7a61cb3e101dc72f93e,,,,,,,
,,,,,,,,,,,,,,,,,,,,,,,,,,,,,,,,,,,,,,,,,,s,16.06900001, S,FALSE,1,0,5,3,1,4,159,onada,Catalan,Sounds/cat_onada.mp3,2020-06-05_12h41.09.595,TranslationElicitation_eng-prolific,3.2.4,MacIntel,60,5ed0d7a61cb3e101dc72f93e,,,,,,,
,,,,,,,,,,,,,,,,,,,,,,,,,,,,,,,,,,,,,,,,,,h,16.148, SH,FALSE,1,0,5,3,1,4,159,onada,Catalan,Sounds/cat_onada.mp3,2020-06-05_12h41.09.595,TranslationElicitation_eng-prolific,3.2.4,MacIntel,60,5ed0d7a61cb3e101dc72f93e,,,,,,,
,,,,,,,,,,,,,,,,,,,,,,,,,,,,,,,,,,,,,,,,,,i,16.23200011, SHI,FALSE,1,0,5,3,1,4,159,onada,Catalan,Sounds/cat_onada.mp3,2020-06-05_12h41.09.595,TranslationElicitation_eng-prolific,3.2.4,MacIntel,60,5ed0d7a61cb3e101dc72f93e,,,,,,,
,,,,,,,,,,,,,,,,,,,,,,,,,,,,,,,,,,,,,,,,,,r,16.36600018, SHIR,FALSE,1,0,5,3,1,4,159,onada,Catalan,Sounds/cat_onada.mp3,2020-06-05_12h41.09.595,TranslationElicitation_eng-prolific,3.2.4,MacIntel,60,5ed0d7a61cb3e101dc72f93e,,,,,,,
,,,,,,,,,,,,,,,,,,,,,,,,,,,,,,,,,,,,,,,,,,t,16.55000019, SHIRT,FALSE,1,0,5,3,1,4,159,onada,Catalan,Sounds/cat_onada.mp3,2020-06-05_12h41.09.595,TranslationElicitation_eng-prolific,3.2.4,MacIntel,60,5ed0d7a61cb3e101dc72f93e,,,,,,,
,,,,,,,,,,,,,,,,,,,,,,,,,,,,,,,,,,,,,,,,,,return,16.71500015, SHIRT,FALSE,1,0,5,3,1,4,159,onada,Catalan,Sounds/cat_onada.mp3,2020-06-05_12h41.09.595,TranslationElicitation_eng-prolific,3.2.4,MacIntel,60,5ed0d7a61cb3e101dc72f93e,16.71500015,,,,,,
,,,,,,,,,,,,,,,,,,,,,,,,,,,,,,,,,,,,,,,,,,,,,,1,0,5,3,1,4,159,onada,Catalan,Sounds/cat_onada.mp3,2020-06-05_12h41.09.595,TranslationElicitation_eng-prolific,3.2.4,MacIntel,60,5ed0d7a61cb3e101dc72f93e,,,,,,,
,,,,,,,,,,,,,,,,,,,,,,,,,,,,,,,,,,,,,,,,,,t,3.115999937,T,FALSE,1,0,5,0,1,4,109,arbre,Catalan,Sounds/cat_arbre.mp3,2020-06-05_12h41.09.595,TranslationElicitation_eng-prolific,3.2.4,MacIntel,60,5ed0d7a61cb3e101dc72f93e,,,,,,,
,,,,,,,,,,,,,,,,,,,,,,,,,,,,,,,,,,,,,,,,,,r,3.282999992,TR,FALSE,1,0,5,0,1,4,109,arbre,Catalan,Sounds/cat_arbre.mp3,2020-06-05_12h41.09.595,TranslationElicitation_eng-prolific,3.2.4,MacIntel,60,5ed0d7a61cb3e101dc72f93e,,,,,,,
,,,,,,,,,,,,,,,,,,,,,,,,,,,,,,,,,,,,,,,,,,e,3.468999863,TRE,FALSE,1,0,5,0,1,4,109,arbre,Catalan,Sounds/cat_arbre.mp3,2020-06-05_12h41.09.595,TranslationElicitation_eng-prolific,3.2.4,MacIntel,60,5ed0d7a61cb3e101dc72f93e,,,,,,,
,,,,,,,,,,,,,,,,,,,,,,,,,,,,,,,,,,,,,,,,,,e,3.583999872,TREE,FALSE,1,0,5,0,1,4,109,arbre,Catalan,Sounds/cat_arbre.mp3,2020-06-05_12h41.09.595,TranslationElicitation_eng-prolific,3.2.4,MacIntel,60,5ed0d7a61cb3e101dc72f93e,,,,,,,
,,,,,,,,,,,,,,,,,,,,,,,,,,,,,,,,,,,,,,,,,,return,3.767999887,TREE,FALSE,1,0,5,0,1,4,109,arbre,Catalan,Sounds/cat_arbre.mp3,2020-06-05_12h41.09.595,TranslationElicitation_eng-prolific,3.2.4,MacIntel,60,5ed0d7a61cb3e101dc72f93e,3.767999887,,,,,,
,,,,,,,,,,,,,,,,,,,,,,,,,,,,,,,,,,,,,,,,,,,,,,1,0,5,0,1,4,109,arbre,Catalan,Sounds/cat_arbre.mp3,2020-06-05_12h41.09.595,TranslationElicitation_eng-prolific,3.2.4,MacIntel,60,5ed0d7a61cb3e101dc72f93e,,,,,,,
,,,,,,,,,,,,,,,,,,,,,,,,,,,,,,,,,,,,,,,,,,b,5,B,FALSE,1,0,5,1,1,4,126,corona,Catalan,Sounds/cat_corona.mp3,2020-06-05_12h41.09.595,TranslationElicitation_eng-prolific,3.2.4,MacIntel,60,5ed0d7a61cb3e101dc72f93e,,,,,,,
,,,,,,,,,,,,,,,,,,,,,,,,,,,,,,,,,,,,,,,,,,e,5.201999903,BE,FALSE,1,0,5,1,1,4,126,corona,Catalan,Sounds/cat_corona.mp3,2020-06-05_12h41.09.595,TranslationElicitation_eng-prolific,3.2.4,MacIntel,60,5ed0d7a61cb3e101dc72f93e,,,,,,,
,,,,,,,,,,,,,,,,,,,,,,,,,,,,,,,,,,,,,,,,,,e,5.350999832,BEE,FALSE,1,0,5,1,1,4,126,corona,Catalan,Sounds/cat_corona.mp3,2020-06-05_12h41.09.595,TranslationElicitation_eng-prolific,3.2.4,MacIntel,60,5ed0d7a61cb3e101dc72f93e,,,,,,,
,,,,,,,,,,,,,,,,,,,,,,,,,,,,,,,,,,,,,,,,,,r,5.51699996,BEER,FALSE,1,0,5,1,1,4,126,corona,Catalan,Sounds/cat_corona.mp3,2020-06-05_12h41.09.595,TranslationElicitation_eng-prolific,3.2.4,MacIntel,60,5ed0d7a61cb3e101dc72f93e,,,,,,,
,,,,,,,,,,,,,,,,,,,,,,,,,,,,,,,,,,,,,,,,,,return,6.024999857,BEER,FALSE,1,0,5,1,1,4,126,corona,Catalan,Sounds/cat_corona.mp3,2020-06-05_12h41.09.595,TranslationElicitation_eng-prolific,3.2.4,MacIntel,60,5ed0d7a61cb3e101dc72f93e,6.024999857,,,,,,
,,,,,,,,,,,,,,,,,,,,,,,,,,,,,,,,,,,,,,,,,,,,,,1,0,5,1,1,4,126,corona,Catalan,Sounds/cat_corona.mp3,2020-06-05_12h41.09.595,TranslationElicitation_eng-prolific,3.2.4,MacIntel,60,5ed0d7a61cb3e101dc72f93e,,,,,,,
,,,,,,,,,,,,,,,,,,,,,,,,,,,,,,,,,,,,,,,,,,t,2.335999966,T,FALSE,1,0,5,4,1,4,179,tigre,Catalan,Sounds/cat_tigre.mp3,2020-06-05_12h41.09.595,TranslationElicitation_eng-prolific,3.2.4,MacIntel,60,5ed0d7a61cb3e101dc72f93e,,,,,,,
,,,,,,,,,,,,,,,,,,,,,,,,,,,,,,,,,,,,,,,,,,i,2.44900012,TI,FALSE,1,0,5,4,1,4,179,tigre,Catalan,Sounds/cat_tigre.mp3,2020-06-05_12h41.09.595,TranslationElicitation_eng-prolific,3.2.4,MacIntel,60,5ed0d7a61cb3e101dc72f93e,,,,,,,
,,,,,,,,,,,,,,,,,,,,,,,,,,,,,,,,,,,,,,,,,,g,2.598999977,TIG,FALSE,1,0,5,4,1,4,179,tigre,Catalan,Sounds/cat_tigre.mp3,2020-06-05_12h41.09.595,TranslationElicitation_eng-prolific,3.2.4,MacIntel,60,5ed0d7a61cb3e101dc72f93e,,,,,,,
,,,,,,,,,,,,,,,,,,,,,,,,,,,,,,,,,,,,,,,,,,e,2.788000107,TIGE,FALSE,1,0,5,4,1,4,179,tigre,Catalan,Sounds/cat_tigre.mp3,2020-06-05_12h41.09.595,TranslationElicitation_eng-prolific,3.2.4,MacIntel,60,5ed0d7a61cb3e101dc72f93e,,,,,,,
,,,,,,,,,,,,,,,,,,,,,,,,,,,,,,,,,,,,,,,,,,r,2.950000048,TIGER,FALSE,1,0,5,4,1,4,179,tigre,Catalan,Sounds/cat_tigre.mp3,2020-06-05_12h41.09.595,TranslationElicitation_eng-prolific,3.2.4,MacIntel,60,5ed0d7a61cb3e101dc72f93e,,,,,,,
,,,,,,,,,,,,,,,,,,,,,,,,,,,,,,,,,,,,,,,,,,return,3.021000147,TIGER,FALSE,1,0,5,4,1,4,179,tigre,Catalan,Sounds/cat_tigre.mp3,2020-06-05_12h41.09.595,TranslationElicitation_eng-prolific,3.2.4,MacIntel,60,5ed0d7a61cb3e101dc72f93e,3.021000147,,,,,,
,,,,,,,,,,,,,,,,,,,,,,,,,,,,,,,,,,,,,,,,,,,,,,1,0,5,4,1,4,179,tigre,Catalan,Sounds/cat_tigre.mp3,2020-06-05_12h41.09.595,TranslationElicitation_eng-prolific,3.2.4,MacIntel,60,5ed0d7a61cb3e101dc72f93e,,,,,,,
,,,,,,,,,,,,,,,,,,,,,,,,,,,,,,,,,,,,,,,,,,l,4.567000151,L,FALSE,,,,,,,175,raspall,Catalan,Sounds/cat_raspall.mp3,2020-06-05_12h41.09.595,TranslationElicitation_eng-prolific,3.2.4,MacIntel,60,5ed0d7a61cb3e101dc72f93e,,1,0,81,67,1,80
,,,,,,,,,,,,,,,,,,,,,,,,,,,,,,,,,,,,,,,,,,u,4.96600008,LU,FALSE,,,,,,,175,raspall,Catalan,Sounds/cat_raspall.mp3,2020-06-05_12h41.09.595,TranslationElicitation_eng-prolific,3.2.4,MacIntel,60,5ed0d7a61cb3e101dc72f93e,,1,0,81,67,1,80
,,,,,,,,,,,,,,,,,,,,,,,,,,,,,,,,,,,,,,,,,,n,5.067000151,LUN,FALSE,,,,,,,175,raspall,Catalan,Sounds/cat_raspall.mp3,2020-06-05_12h41.09.595,TranslationElicitation_eng-prolific,3.2.4,MacIntel,60,5ed0d7a61cb3e101dc72f93e,,1,0,81,67,1,80
,,,,,,,,,,,,,,,,,,,,,,,,,,,,,,,,,,,,,,,,,,g,5.19900012,LUNG,FALSE,,,,,,,175,raspall,Catalan,Sounds/cat_raspall.mp3,2020-06-05_12h41.09.595,TranslationElicitation_eng-prolific,3.2.4,MacIntel,60,5ed0d7a61cb3e101dc72f93e,,1,0,81,67,1,80
,,,,,,,,,,,,,,,,,,,,,,,,,,,,,,,,,,,,,,,,,,return,5.616000175,LUNG,FALSE,,,,,,,175,raspall,Catalan,Sounds/cat_raspall.mp3,2020-06-05_12h41.09.595,TranslationElicitation_eng-prolific,3.2.4,MacIntel,60,5ed0d7a61cb3e101dc72f93e,5.616000175,1,0,81,67,1,80
,,,,,,,,,,,,,,,,,,,,,,,,,,,,,,,,,,,,,,,,,,,,,,,,,,,,175,raspall,Catalan,Sounds/cat_raspall.mp3,2020-06-05_12h41.09.595,TranslationElicitation_eng-prolific,3.2.4,MacIntel,60,5ed0d7a61cb3e101dc72f93e,,1,0,81,67,1,80
,,,,,,,,,,,,,,,,,,,,,,,,,,,,,,,,,,,,,,,,,,j,4.683000088,J,FALSE,,,,,,,150,lloro,Catalan,Sounds/cat_lloro.mp3,2020-06-05_12h41.09.595,TranslationElicitation_eng-prolific,3.2.4,MacIntel,60,5ed0d7a61cb3e101dc72f93e,,1,0,81,43,1,80
,,,,,,,,,,,,,,,,,,,,,,,,,,,,,,,,,,,,,,,,,,a,4.788000107,JA,FALSE,,,,,,,150,lloro,Catalan,Sounds/cat_lloro.mp3,2020-06-05_12h41.09.595,TranslationElicitation_eng-prolific,3.2.4,MacIntel,60,5ed0d7a61cb3e101dc72f93e,,1,0,81,43,1,80
,,,,,,,,,,,,,,,,,,,,,,,,,,,,,,,,,,,,,,,,,,r,4.999000072,JAR,FALSE,,,,,,,150,lloro,Catalan,Sounds/cat_lloro.mp3,2020-06-05_12h41.09.595,TranslationElicitation_eng-prolific,3.2.4,MacIntel,60,5ed0d7a61cb3e101dc72f93e,,1,0,81,43,1,80
,,,,,,,,,,,,,,,,,,,,,,,,,,,,,,,,,,,,,,,,,,return,5.164999962,JAR,FALSE,,,,,,,150,lloro,Catalan,Sounds/cat_lloro.mp3,2020-06-05_12h41.09.595,TranslationElicitation_eng-prolific,3.2.4,MacIntel,60,5ed0d7a61cb3e101dc72f93e,5.164999962,1,0,81,43,1,80
,,,,,,,,,,,,,,,,,,,,,,,,,,,,,,,,,,,,,,,,,,,,,,,,,,,,150,lloro,Catalan,Sounds/cat_lloro.mp3,2020-06-05_12h41.09.595,TranslationElicitation_eng-prolific,3.2.4,MacIntel,60,5ed0d7a61cb3e101dc72f93e,,1,0,81,43,1,80
,,,,,,,,,,,,,,,,,,,,,,,,,,,,,,,,,,,,,,,,,,s,11.90399981,S,FALSE,,,,,,,133,estruc,Catalan,Sounds/cat_estruc.mp3,2020-06-05_12h41.09.595,TranslationElicitation_eng-prolific,3.2.4,MacIntel,60,5ed0d7a61cb3e101dc72f93e,,1,0,81,27,1,80
,,,,,,,,,,,,,,,,,,,,,,,,,,,,,,,,,,,,,,,,,,t,12.09899998,ST,FALSE,,,,,,,133,estruc,Catalan,Sounds/cat_estruc.mp3,2020-06-05_12h41.09.595,TranslationElicitation_eng-prolific,3.2.4,MacIntel,60,5ed0d7a61cb3e101dc72f93e,,1,0,81,27,1,80
,,,,,,,,,,,,,,,,,,,,,,,,,,,,,,,,,,,,,,,,,,a,12.33799982,STA,FALSE,,,,,,,133,estruc,Catalan,Sounds/cat_estruc.mp3,2020-06-05_12h41.09.595,TranslationElicitation_eng-prolific,3.2.4,MacIntel,60,5ed0d7a61cb3e101dc72f93e,,1,0,81,27,1,80
,,,,,,,,,,,,,,,,,,,,,,,,,,,,,,,,,,,,,,,,,,r,12.53299999,STAR,FALSE,,,,,,,133,estruc,Catalan,Sounds/cat_estruc.mp3,2020-06-05_12h41.09.595,TranslationElicitation_eng-prolific,3.2.4,MacIntel,60,5ed0d7a61cb3e101dc72f93e,,1,0,81,27,1,80
,,,,,,,,,,,,,,,,,,,,,,,,,,,,,,,,,,,,,,,,,,return,12.70799994,STAR,FALSE,,,,,,,133,estruc,Catalan,Sounds/cat_estruc.mp3,2020-06-05_12h41.09.595,TranslationElicitation_eng-prolific,3.2.4,MacIntel,60,5ed0d7a61cb3e101dc72f93e,12.70799994,1,0,81,27,1,80
,,,,,,,,,,,,,,,,,,,,,,,,,,,,,,,,,,,,,,,,,,,,,,,,,,,,133,estruc,Catalan,Sounds/cat_estruc.mp3,2020-06-05_12h41.09.595,TranslationElicitation_eng-prolific,3.2.4,MacIntel,60,5ed0d7a61cb3e101dc72f93e,,1,0,81,27,1,80
,,,,,,,,,,,,,,,,,,,,,,,,,,,,,,,,,,,,,,,,,,f,15.50600004,F,FALSE,,,,,,,165,pernil,Catalan,Sounds/cat_pernil.mp3,2020-06-05_12h41.09.595,TranslationElicitation_eng-prolific,3.2.4,MacIntel,60,5ed0d7a61cb3e101dc72f93e,,1,0,81,57,1,80
,,,,,,,,,,,,,,,,,,,,,,,,,,,,,,,,,,,,,,,,,,e,15.9000001,FE,FALSE,,,,,,,165,pernil,Catalan,Sounds/cat_pernil.mp3,2020-06-05_12h41.09.595,TranslationElicitation_eng-prolific,3.2.4,MacIntel,60,5ed0d7a61cb3e101dc72f93e,,1,0,81,57,1,80
,,,,,,,,,,,,,,,,,,,,,,,,,,,,,,,,,,,,,,,,,,n,16.00200009,FEN,FALSE,,,,,,,165,pernil,Catalan,Sounds/cat_pernil.mp3,2020-06-05_12h41.09.595,TranslationElicitation_eng-prolific,3.2.4,MacIntel,60,5ed0d7a61cb3e101dc72f93e,,1,0,81,57,1,80
,,,,,,,,,,,,,,,,,,,,,,,,,,,,,,,,,,,,,,,,,,c,16.10100007,FENC,FALSE,,,,,,,165,pernil,Catalan,Sounds/cat_pernil.mp3,2020-06-05_12h41.09.595,TranslationElicitation_eng-prolific,3.2.4,MacIntel,60,5ed0d7a61cb3e101dc72f93e,,1,0,81,57,1,80
,,,,,,,,,,,,,,,,,,,,,,,,,,,,,,,,,,,,,,,,,,e,16.35700011,FENCE,FALSE,,,,,,,165,pernil,Catalan,Sounds/cat_pernil.mp3,2020-06-05_12h41.09.595,TranslationElicitation_eng-prolific,3.2.4,MacIntel,60,5ed0d7a61cb3e101dc72f93e,,1,0,81,57,1,80
,,,,,,,,,,,,,,,,,,,,,,,,,,,,,,,,,,,,,,,,,,return,16.50100017,FENCE,FALSE,,,,,,,165,pernil,Catalan,Sounds/cat_pernil.mp3,2020-06-05_12h41.09.595,TranslationElicitation_eng-prolific,3.2.4,MacIntel,60,5ed0d7a61cb3e101dc72f93e,16.50100017,1,0,81,57,1,80
,,,,,,,,,,,,,,,,,,,,,,,,,,,,,,,,,,,,,,,,,,,,,,,,,,,,165,pernil,Catalan,Sounds/cat_pernil.mp3,2020-06-05_12h41.09.595,TranslationElicitation_eng-prolific,3.2.4,MacIntel,60,5ed0d7a61cb3e101dc72f93e,,1,0,81,57,1,80
,,,,,,,,,,,,,,,,,,,,,,,,,,,,,,,,,,,,,,,,,,b,7.767999887,B,FALSE,,,,,,,187,vaixell,Catalan,Sounds/cat_vaixell.mp3,2020-06-05_12h41.09.595,TranslationElicitation_eng-prolific,3.2.4,MacIntel,60,5ed0d7a61cb3e101dc72f93e,,1,0,81,78,1,80
,,,,,,,,,,,,,,,,,,,,,,,,,,,,,,,,,,,,,,,,,,a,7.867000103,BA,FALSE,,,,,,,187,vaixell,Catalan,Sounds/cat_vaixell.mp3,2020-06-05_12h41.09.595,TranslationElicitation_eng-prolific,3.2.4,MacIntel,60,5ed0d7a61cb3e101dc72f93e,,1,0,81,78,1,80
,,,,,,,,,,,,,,,,,,,,,,,,,,,,,,,,,,,,,,,,,,t,8.134000063,BAT,FALSE,,,,,,,187,vaixell,Catalan,Sounds/cat_vaixell.mp3,2020-06-05_12h41.09.595,TranslationElicitation_eng-prolific,3.2.4,MacIntel,60,5ed0d7a61cb3e101dc72f93e,,1,0,81,78,1,80
,,,,,,,,,,,,,,,,,,,,,,,,,,,,,,,,,,,,,,,,,,h,8.217999935,BATH,FALSE,,,,,,,187,vaixell,Catalan,Sounds/cat_vaixell.mp3,2020-06-05_12h41.09.595,TranslationElicitation_eng-prolific,3.2.4,MacIntel,60,5ed0d7a61cb3e101dc72f93e,,1,0,81,78,1,80
,,,,,,,,,,,,,,,,,,,,,,,,,,,,,,,,,,,,,,,,,,return,8.423000097,BATH,FALSE,,,,,,,187,vaixell,Catalan,Sounds/cat_vaixell.mp3,2020-06-05_12h41.09.595,TranslationElicitation_eng-prolific,3.2.4,MacIntel,60,5ed0d7a61cb3e101dc72f93e,8.423000097,1,0,81,78,1,80
,,,,,,,,,,,,,,,,,,,,,,,,,,,,,,,,,,,,,,,,,,,,,,,,,,,,187,vaixell,Catalan,Sounds/cat_vaixell.mp3,2020-06-05_12h41.09.595,TranslationElicitation_eng-prolific,3.2.4,MacIntel,60,5ed0d7a61cb3e101dc72f93e,,1,0,81,78,1,80
,,,,,,,,,,,,,,,,,,,,,,,,,,,,,,,,,,,,,,,,,,p,1.69900012,P,FALSE,,,,,,,168,planta,Catalan,Sounds/cat_planta.mp3,2020-06-05_12h41.09.595,TranslationElicitation_eng-prolific,3.2.4,MacIntel,60,5ed0d7a61cb3e101dc72f93e,,1,0,81,60,1,80
,,,,,,,,,,,,,,,,,,,,,,,,,,,,,,,,,,,,,,,,,,l,1.815000057,PL,FALSE,,,,,,,168,planta,Catalan,Sounds/cat_planta.mp3,2020-06-05_12h41.09.595,TranslationElicitation_eng-prolific,3.2.4,MacIntel,60,5ed0d7a61cb3e101dc72f93e,,1,0,81,60,1,80
,,,,,,,,,,,,,,,,,,,,,,,,,,,,,,,,,,,,,,,,,,a,1.86500001,PLA,FALSE,,,,,,,168,planta,Catalan,Sounds/cat_planta.mp3,2020-06-05_12h41.09.595,TranslationElicitation_eng-prolific,3.2.4,MacIntel,60,5ed0d7a61cb3e101dc72f93e,,1,0,81,60,1,80
,,,,,,,,,,,,,,,,,,,,,,,,,,,,,,,,,,,,,,,,,,n,2.049000025,PLAN,FALSE,,,,,,,168,planta,Catalan,Sounds/cat_planta.mp3,2020-06-05_12h41.09.595,TranslationElicitation_eng-prolific,3.2.4,MacIntel,60,5ed0d7a61cb3e101dc72f93e,,1,0,81,60,1,80
,,,,,,,,,,,,,,,,,,,,,,,,,,,,,,,,,,,,,,,,,,t,2.13499999,PLANT,FALSE,,,,,,,168,planta,Catalan,Sounds/cat_planta.mp3,2020-06-05_12h41.09.595,TranslationElicitation_eng-prolific,3.2.4,MacIntel,60,5ed0d7a61cb3e101dc72f93e,,1,0,81,60,1,80
,,,,,,,,,,,,,,,,,,,,,,,,,,,,,,,,,,,,,,,,,,return,2.5400002,PLANT,FALSE,,,,,,,168,planta,Catalan,Sounds/cat_planta.mp3,2020-06-05_12h41.09.595,TranslationElicitation_eng-prolific,3.2.4,MacIntel,60,5ed0d7a61cb3e101dc72f93e,2.5400002,1,0,81,60,1,80
,,,,,,,,,,,,,,,,,,,,,,,,,,,,,,,,,,,,,,,,,,,,,,,,,,,,168,planta,Catalan,Sounds/cat_planta.mp3,2020-06-05_12h41.09.595,TranslationElicitation_eng-prolific,3.2.4,MacIntel,60,5ed0d7a61cb3e101dc72f93e,,1,0,81,60,1,80
,,,,,,,,,,,,,,,,,,,,,,,,,,,,,,,,,,,,,,,,,,m,2.582000017,M,FALSE,,,,,,,152,ma,Catalan,Sounds/cat_ma.mp3,2020-06-05_12h41.09.595,TranslationElicitation_eng-prolific,3.2.4,MacIntel,60,5ed0d7a61cb3e101dc72f93e,,1,0,81,45,1,80
,,,,,,,,,,,,,,,,,,,,,,,,,,,,,,,,,,,,,,,,,,o,2.666000128,MO,FALSE,,,,,,,152,ma,Catalan,Sounds/cat_ma.mp3,2020-06-05_12h41.09.595,TranslationElicitation_eng-prolific,3.2.4,MacIntel,60,5ed0d7a61cb3e101dc72f93e,,1,0,81,45,1,80
,,,,,,,,,,,,,,,,,,,,,,,,,,,,,,,,,,,,,,,,,,t,2.75,MOT,FALSE,,,,,,,152,ma,Catalan,Sounds/cat_ma.mp3,2020-06-05_12h41.09.595,TranslationElicitation_eng-prolific,3.2.4,MacIntel,60,5ed0d7a61cb3e101dc72f93e,,1,0,81,45,1,80
,,,,,,,,,,,,,,,,,,,,,,,,,,,,,,,,,,,,,,,,,,h,2.871000051,MOTH,FALSE,,,,,,,152,ma,Catalan,Sounds/cat_ma.mp3,2020-06-05_12h41.09.595,TranslationElicitation_eng-prolific,3.2.4,MacIntel,60,5ed0d7a61cb3e101dc72f93e,,1,0,81,45,1,80
,,,,,,,,,,,,,,,,,,,,,,,,,,,,,,,,,,,,,,,,,,e,2.999000072,MOTHE,FALSE,,,,,,,152,ma,Catalan,Sounds/cat_ma.mp3,2020-06-05_12h41.09.595,TranslationElicitation_eng-prolific,3.2.4,MacIntel,60,5ed0d7a61cb3e101dc72f93e,,1,0,81,45,1,80
,,,,,,,,,,,,,,,,,,,,,,,,,,,,,,,,,,,,,,,,,,r,3.11500001,MOTHER,FALSE,,,,,,,152,ma,Catalan,Sounds/cat_ma.mp3,2020-06-05_12h41.09.595,TranslationElicitation_eng-prolific,3.2.4,MacIntel,60,5ed0d7a61cb3e101dc72f93e,,1,0,81,45,1,80
,,,,,,,,,,,,,,,,,,,,,,,,,,,,,,,,,,,,,,,,,,return,3.252000093,MOTHER,FALSE,,,,,,,152,ma,Catalan,Sounds/cat_ma.mp3,2020-06-05_12h41.09.595,TranslationElicitation_eng-prolific,3.2.4,MacIntel,60,5ed0d7a61cb3e101dc72f93e,3.252000093,1,0,81,45,1,80
,,,,,,,,,,,,,,,,,,,,,,,,,,,,,,,,,,,,,,,,,,,,,,,,,,,,152,ma,Catalan,Sounds/cat_ma.mp3,2020-06-05_12h41.09.595,TranslationElicitation_eng-prolific,3.2.4,MacIntel,60,5ed0d7a61cb3e101dc72f93e,,1,0,81,45,1,80
,,,,,,,,,,,,,,,,,,,,,,,,,,,,,,,,,,,,,,,,,,c,2.75,C,FALSE,,,,,,,140,gat,Catalan,Sounds/cat_gat.mp3,2020-06-05_12h41.09.595,TranslationElicitation_eng-prolific,3.2.4,MacIntel,60,5ed0d7a61cb3e101dc72f93e,,1,0,81,34,1,80
,,,,,,,,,,,,,,,,,,,,,,,,,,,,,,,,,,,,,,,,,,a,2.931999922,CA,FALSE,,,,,,,140,gat,Catalan,Sounds/cat_gat.mp3,2020-06-05_12h41.09.595,TranslationElicitation_eng-prolific,3.2.4,MacIntel,60,5ed0d7a61cb3e101dc72f93e,,1,0,81,34,1,80
,,,,,,,,,,,,,,,,,,,,,,,,,,,,,,,,,,,,,,,,,,t,3.180999994,CAT,FALSE,,,,,,,140,gat,Catalan,Sounds/cat_gat.mp3,2020-06-05_12h41.09.595,TranslationElicitation_eng-prolific,3.2.4,MacIntel,60,5ed0d7a61cb3e101dc72f93e,,1,0,81,34,1,80
,,,,,,,,,,,,,,,,,,,,,,,,,,,,,,,,,,,,,,,,,,return,3.31799984,CAT,FALSE,,,,,,,140,gat,Catalan,Sounds/cat_gat.mp3,2020-06-05_12h41.09.595,TranslationElicitation_eng-prolific,3.2.4,MacIntel,60,5ed0d7a61cb3e101dc72f93e,3.31799984,1,0,81,34,1,80
,,,,,,,,,,,,,,,,,,,,,,,,,,,,,,,,,,,,,,,,,,,,,,,,,,,,140,gat,Catalan,Sounds/cat_gat.mp3,2020-06-05_12h41.09.595,TranslationElicitation_eng-prolific,3.2.4,MacIntel,60,5ed0d7a61cb3e101dc72f93e,,1,0,81,34,1,80
,,,,,,,,,,,,,,,,,,,,,,,,,,,,,,,,,,,,,,,,,,n,5.865999937,N,FALSE,,,,,,,173,porc,Catalan,Sounds/cat_porc.mp3,2020-06-05_12h41.09.595,TranslationElicitation_eng-prolific,3.2.4,MacIntel,60,5ed0d7a61cb3e101dc72f93e,,1,0,81,65,1,80
,,,,,,,,,,,,,,,,,,,,,,,,,,,,,,,,,,,,,,,,,,e,5.940999985,NE,FALSE,,,,,,,173,porc,Catalan,Sounds/cat_porc.mp3,2020-06-05_12h41.09.595,TranslationElicitation_eng-prolific,3.2.4,MacIntel,60,5ed0d7a61cb3e101dc72f93e,,1,0,81,65,1,80
,,,,,,,,,,,,,,,,,,,,,,,,,,,,,,,,,,,,,,,,,,c,6.148999929,NEC,FALSE,,,,,,,173,porc,Catalan,Sounds/cat_porc.mp3,2020-06-05_12h41.09.595,TranslationElicitation_eng-prolific,3.2.4,MacIntel,60,5ed0d7a61cb3e101dc72f93e,,1,0,81,65,1,80
,,,,,,,,,,,,,,,,,,,,,,,,,,,,,,,,,,,,,,,,,,a,6.366999865,NECA,FALSE,,,,,,,173,porc,Catalan,Sounds/cat_porc.mp3,2020-06-05_12h41.09.595,TranslationElicitation_eng-prolific,3.2.4,MacIntel,60,5ed0d7a61cb3e101dc72f93e,,1,0,81,65,1,80
,,,,,,,,,,,,,,,,,,,,,,,,,,,,,,,,,,,,,,,,,,u,6.517999887,NECAU,FALSE,,,,,,,173,porc,Catalan,Sounds/cat_porc.mp3,2020-06-05_12h41.09.595,TranslationElicitation_eng-prolific,3.2.4,MacIntel,60,5ed0d7a61cb3e101dc72f93e,,1,0,81,65,1,80
,,,,,,,,,,,,,,,,,,,,,,,,,,,,,,,,,,,,,,,,,,backspace,6.782000065,NECA,TRUE,,,,,,,173,porc,Catalan,Sounds/cat_porc.mp3,2020-06-05_12h41.09.595,TranslationElicitation_eng-prolific,3.2.4,MacIntel,60,5ed0d7a61cb3e101dc72f93e,,1,0,81,65,1,80
,,,,,,,,,,,,,,,,,,,,,,,,,,,,,,,,,,,,,,,,,,backspace,6.931999922,NEC,TRUE,,,,,,,173,porc,Catalan,Sounds/cat_porc.mp3,2020-06-05_12h41.09.595,TranslationElicitation_eng-prolific,3.2.4,MacIntel,60,5ed0d7a61cb3e101dc72f93e,,1,0,81,65,1,80
,,,,,,,,,,,,,,,,,,,,,,,,,,,,,,,,,,,,,,,,,,backspace,7.198999882,NE,TRUE,,,,,,,173,porc,Catalan,Sounds/cat_porc.mp3,2020-06-05_12h41.09.595,TranslationElicitation_eng-prolific,3.2.4,MacIntel,60,5ed0d7a61cb3e101dc72f93e,,1,0,81,65,1,80
,,,,,,,,,,,,,,,,,,,,,,,,,,,,,,,,,,,,,,,,,,backspace,7.366999865,N,TRUE,,,,,,,173,porc,Catalan,Sounds/cat_porc.mp3,2020-06-05_12h41.09.595,TranslationElicitation_eng-prolific,3.2.4,MacIntel,60,5ed0d7a61cb3e101dc72f93e,,1,0,81,65,1,80
,,,,,,,,,,,,,,,,,,,,,,,,,,,,,,,,,,,,,,,,,,backspace,7.516000032,,TRUE,,,,,,,173,porc,Catalan,Sounds/cat_porc.mp3,2020-06-05_12h41.09.595,TranslationElicitation_eng-prolific,3.2.4,MacIntel,60,5ed0d7a61cb3e101dc72f93e,,1,0,81,65,1,80
,,,,,,,,,,,,,,,,,,,,,,,,,,,,,,,,,,,,,,,,,,backspace,7.648000002,,TRUE,,,,,,,173,porc,Catalan,Sounds/cat_porc.mp3,2020-06-05_12h41.09.595,TranslationElicitation_eng-prolific,3.2.4,MacIntel,60,5ed0d7a61cb3e101dc72f93e,,1,0,81,65,1,80
,,,,,,,,,,,,,,,,,,,,,,,,,,,,,,,,,,,,,,,,,,p,7.901000023,P,TRUE,,,,,,,173,porc,Catalan,Sounds/cat_porc.mp3,2020-06-05_12h41.09.595,TranslationElicitation_eng-prolific,3.2.4,MacIntel,60,5ed0d7a61cb3e101dc72f93e,,1,0,81,65,1,80
,,,,,,,,,,,,,,,,,,,,,,,,,,,,,,,,,,,,,,,,,,l,8.06799984,PL,TRUE,,,,,,,173,porc,Catalan,Sounds/cat_porc.mp3,2020-06-05_12h41.09.595,TranslationElicitation_eng-prolific,3.2.4,MacIntel,60,5ed0d7a61cb3e101dc72f93e,,1,0,81,65,1,80
,,,,,,,,,,,,,,,,,,,,,,,,,,,,,,,,,,,,,,,,,,e,8.082000017,PLE,TRUE,,,,,,,173,porc,Catalan,Sounds/cat_porc.mp3,2020-06-05_12h41.09.595,TranslationElicitation_eng-prolific,3.2.4,MacIntel,60,5ed0d7a61cb3e101dc72f93e,,1,0,81,65,1,80
,,,,,,,,,,,,,,,,,,,,,,,,,,,,,,,,,,,,,,,,,,a,8.326999903,PLEA,TRUE,,,,,,,173,porc,Catalan,Sounds/cat_porc.mp3,2020-06-05_12h41.09.595,TranslationElicitation_eng-prolific,3.2.4,MacIntel,60,5ed0d7a61cb3e101dc72f93e,,1,0,81,65,1,80
,,,,,,,,,,,,,,,,,,,,,,,,,,,,,,,,,,,,,,,,,,s,8.5,PLEAS,TRUE,,,,,,,173,porc,Catalan,Sounds/cat_porc.mp3,2020-06-05_12h41.09.595,TranslationElicitation_eng-prolific,3.2.4,MacIntel,60,5ed0d7a61cb3e101dc72f93e,,1,0,81,65,1,80
,,,,,,,,,,,,,,,,,,,,,,,,,,,,,,,,,,,,,,,,,,e,8.681999922,PLEASE,TRUE,,,,,,,173,porc,Catalan,Sounds/cat_porc.mp3,2020-06-05_12h41.09.595,TranslationElicitation_eng-prolific,3.2.4,MacIntel,60,5ed0d7a61cb3e101dc72f93e,,1,0,81,65,1,80
,,,,,,,,,,,,,,,,,,,,,,,,,,,,,,,,,,,,,,,,,,return,8.805999994,PLEASE,TRUE,,,,,,,173,porc,Catalan,Sounds/cat_porc.mp3,2020-06-05_12h41.09.595,TranslationElicitation_eng-prolific,3.2.4,MacIntel,60,5ed0d7a61cb3e101dc72f93e,8.805999994,1,0,81,65,1,80
,,,,,,,,,,,,,,,,,,,,,,,,,,,,,,,,,,,,,,,,,,,,,,,,,,,,173,porc,Catalan,Sounds/cat_porc.mp3,2020-06-05_12h41.09.595,TranslationElicitation_eng-prolific,3.2.4,MacIntel,60,5ed0d7a61cb3e101dc72f93e,,1,0,81,65,1,80
,,,,,,,,,,,,,,,,,,,,,,,,,,,,,,,,,,,,,,,,,,b,2.315999985,B,FALSE,,,,,,,149,llibre,Catalan,Sounds/cat_llibre.mp3,2020-06-05_12h41.09.595,TranslationElicitation_eng-prolific,3.2.4,MacIntel,60,5ed0d7a61cb3e101dc72f93e,,1,0,81,42,1,80
,,,,,,,,,,,,,,,,,,,,,,,,,,,,,,,,,,,,,,,,,,o,2.500999928,BO,FALSE,,,,,,,149,llibre,Catalan,Sounds/cat_llibre.mp3,2020-06-05_12h41.09.595,TranslationElicitation_eng-prolific,3.2.4,MacIntel,60,5ed0d7a61cb3e101dc72f93e,,1,0,81,42,1,80
,,,,,,,,,,,,,,,,,,,,,,,,,,,,,,,,,,,,,,,,,,o,2.649999857,BOO,FALSE,,,,,,,149,llibre,Catalan,Sounds/cat_llibre.mp3,2020-06-05_12h41.09.595,TranslationElicitation_eng-prolific,3.2.4,MacIntel,60,5ed0d7a61cb3e101dc72f93e,,1,0,81,42,1,80
,,,,,,,,,,,,,,,,,,,,,,,,,,,,,,,,,,,,,,,,,,k,2.700000048,BOOK,FALSE,,,,,,,149,llibre,Catalan,Sounds/cat_llibre.mp3,2020-06-05_12h41.09.595,TranslationElicitation_eng-prolific,3.2.4,MacIntel,60,5ed0d7a61cb3e101dc72f93e,,1,0,81,42,1,80
,,,,,,,,,,,,,,,,,,,,,,,,,,,,,,,,,,,,,,,,,,return,2.90199995,BOOK,FALSE,,,,,,,149,llibre,Catalan,Sounds/cat_llibre.mp3,2020-06-05_12h41.09.595,TranslationElicitation_eng-prolific,3.2.4,MacIntel,60,5ed0d7a61cb3e101dc72f93e,2.90199995,1,0,81,42,1,80
,,,,,,,,,,,,,,,,,,,,,,,,,,,,,,,,,,,,,,,,,,,,,,,,,,,,149,llibre,Catalan,Sounds/cat_llibre.mp3,2020-06-05_12h41.09.595,TranslationElicitation_eng-prolific,3.2.4,MacIntel,60,5ed0d7a61cb3e101dc72f93e,,1,0,81,42,1,80
,,,,,,,,,,,,,,,,,,,,,,,,,,,,,,,,,,,,,,,,,,m,3.068000078,M,FALSE,,,,,,,157,mussol,Catalan,Sounds/cat_mussol.mp3,2020-06-05_12h41.09.595,TranslationElicitation_eng-prolific,3.2.4,MacIntel,60,5ed0d7a61cb3e101dc72f93e,,1,0,81,50,1,80
,,,,,,,,,,,,,,,,,,,,,,,,,,,,,,,,,,,,,,,,,,u,3.300000191,MU,FALSE,,,,,,,157,mussol,Catalan,Sounds/cat_mussol.mp3,2020-06-05_12h41.09.595,TranslationElicitation_eng-prolific,3.2.4,MacIntel,60,5ed0d7a61cb3e101dc72f93e,,1,0,81,50,1,80
,,,,,,,,,,,,,,,,,,,,,,,,,,,,,,,,,,,,,,,,,,s,3.451000214,MUS,FALSE,,,,,,,157,mussol,Catalan,Sounds/cat_mussol.mp3,2020-06-05_12h41.09.595,TranslationElicitation_eng-prolific,3.2.4,MacIntel,60,5ed0d7a61cb3e101dc72f93e,,1,0,81,50,1,80
,,,,,,,,,,,,,,,,,,,,,,,,,,,,,,,,,,,,,,,,,,s,3.636000156,MUSS,FALSE,,,,,,,157,mussol,Catalan,Sounds/cat_mussol.mp3,2020-06-05_12h41.09.595,TranslationElicitation_eng-prolific,3.2.4,MacIntel,60,5ed0d7a61cb3e101dc72f93e,,1,0,81,50,1,80
,,,,,,,,,,,,,,,,,,,,,,,,,,,,,,,,,,,,,,,,,,backspace,4.070000172,MUS,TRUE,,,,,,,157,mussol,Catalan,Sounds/cat_mussol.mp3,2020-06-05_12h41.09.595,TranslationElicitation_eng-prolific,3.2.4,MacIntel,60,5ed0d7a61cb3e101dc72f93e,,1,0,81,50,1,80
,,,,,,,,,,,,,,,,,,,,,,,,,,,,,,,,,,,,,,,,,,c,4.68200016,MUSC,TRUE,,,,,,,157,mussol,Catalan,Sounds/cat_mussol.mp3,2020-06-05_12h41.09.595,TranslationElicitation_eng-prolific,3.2.4,MacIntel,60,5ed0d7a61cb3e101dc72f93e,,1,0,81,50,1,80
,,,,,,,,,,,,,,,,,,,,,,,,,,,,,,,,,,,,,,,,,,l,4.886000156,MUSCL,TRUE,,,,,,,157,mussol,Catalan,Sounds/cat_mussol.mp3,2020-06-05_12h41.09.595,TranslationElicitation_eng-prolific,3.2.4,MacIntel,60,5ed0d7a61cb3e101dc72f93e,,1,0,81,50,1,80
,,,,,,,,,,,,,,,,,,,,,,,,,,,,,,,,,,,,,,,,,,e,4.940000057,MUSCLE,TRUE,,,,,,,157,mussol,Catalan,Sounds/cat_mussol.mp3,2020-06-05_12h41.09.595,TranslationElicitation_eng-prolific,3.2.4,MacIntel,60,5ed0d7a61cb3e101dc72f93e,,1,0,81,50,1,80
,,,,,,,,,,,,,,,,,,,,,,,,,,,,,,,,,,,,,,,,,,return,5.084000111,MUSCLE,TRUE,,,,,,,157,mussol,Catalan,Sounds/cat_mussol.mp3,2020-06-05_12h41.09.595,TranslationElicitation_eng-prolific,3.2.4,MacIntel,60,5ed0d7a61cb3e101dc72f93e,5.084000111,1,0,81,50,1,80
,,,,,,,,,,,,,,,,,,,,,,,,,,,,,,,,,,,,,,,,,,,,,,,,,,,,157,mussol,Catalan,Sounds/cat_mussol.mp3,2020-06-05_12h41.09.595,TranslationElicitation_eng-prolific,3.2.4,MacIntel,60,5ed0d7a61cb3e101dc72f93e,,1,0,81,50,1,80
,,,,,,,,,,,,,,,,,,,,,,,,,,,,,,,,,,,,,,,,,,d,2.848999977,D,FALSE,,,,,,,129,dit,Catalan,Sounds/cat_dit.mp3,2020-06-05_12h41.09.595,TranslationElicitation_eng-prolific,3.2.4,MacIntel,60,5ed0d7a61cb3e101dc72f93e,,1,0,81,23,1,80
,,,,,,,,,,,,,,,,,,,,,,,,,,,,,,,,,,,,,,,,,,a,3.053999901,DA,FALSE,,,,,,,129,dit,Catalan,Sounds/cat_dit.mp3,2020-06-05_12h41.09.595,TranslationElicitation_eng-prolific,3.2.4,MacIntel,60,5ed0d7a61cb3e101dc72f93e,,1,0,81,23,1,80
,,,,,,,,,,,,,,,,,,,,,,,,,,,,,,,,,,,,,,,,,,y,3.134000063,DAY,FALSE,,,,,,,129,dit,Catalan,Sounds/cat_dit.mp3,2020-06-05_12h41.09.595,TranslationElicitation_eng-prolific,3.2.4,MacIntel,60,5ed0d7a61cb3e101dc72f93e,,1,0,81,23,1,80
,,,,,,,,,,,,,,,,,,,,,,,,,,,,,,,,,,,,,,,,,,return,3.348999977,DAY,FALSE,,,,,,,129,dit,Catalan,Sounds/cat_dit.mp3,2020-06-05_12h41.09.595,TranslationElicitation_eng-prolific,3.2.4,MacIntel,60,5ed0d7a61cb3e101dc72f93e,3.348999977,1,0,81,23,1,80
,,,,,,,,,,,,,,,,,,,,,,,,,,,,,,,,,,,,,,,,,,,,,,,,,,,,129,dit,Catalan,Sounds/cat_dit.mp3,2020-06-05_12h41.09.595,TranslationElicitation_eng-prolific,3.2.4,MacIntel,60,5ed0d7a61cb3e101dc72f93e,,1,0,81,23,1,80
,,,,,,,,,,,,,,,,,,,,,,,,,,,,,,,,,,,,,,,,,,z,2.279999971,Z,FALSE,,,,,,,189,zebra,Catalan,Sounds/cat_zebra.mp3,2020-06-05_12h41.09.595,TranslationElicitation_eng-prolific,3.2.4,MacIntel,60,5ed0d7a61cb3e101dc72f93e,,1,0,81,80,1,80
,,,,,,,,,,,,,,,,,,,,,,,,,,,,,,,,,,,,,,,,,,e,2.530999899,ZE,FALSE,,,,,,,189,zebra,Catalan,Sounds/cat_zebra.mp3,2020-06-05_12h41.09.595,TranslationElicitation_eng-prolific,3.2.4,MacIntel,60,5ed0d7a61cb3e101dc72f93e,,1,0,81,80,1,80
,,,,,,,,,,,,,,,,,,,,,,,,,,,,,,,,,,,,,,,,,,b,2.757999897,ZEB,FALSE,,,,,,,189,zebra,Catalan,Sounds/cat_zebra.mp3,2020-06-05_12h41.09.595,TranslationElicitation_eng-prolific,3.2.4,MacIntel,60,5ed0d7a61cb3e101dc72f93e,,1,0,81,80,1,80
,,,,,,,,,,,,,,,,,,,,,,,,,,,,,,,,,,,,,,,,,,r,2.838000059,ZEBR,FALSE,,,,,,,189,zebra,Catalan,Sounds/cat_zebra.mp3,2020-06-05_12h41.09.595,TranslationElicitation_eng-prolific,3.2.4,MacIntel,60,5ed0d7a61cb3e101dc72f93e,,1,0,81,80,1,80
,,,,,,,,,,,,,,,,,,,,,,,,,,,,,,,,,,,,,,,,,,a,3.148000002,ZEBRA,FALSE,,,,,,,189,zebra,Catalan,Sounds/cat_zebra.mp3,2020-06-05_12h41.09.595,TranslationElicitation_eng-prolific,3.2.4,MacIntel,60,5ed0d7a61cb3e101dc72f93e,,1,0,81,80,1,80
,,,,,,,,,,,,,,,,,,,,,,,,,,,,,,,,,,,,,,,,,,return,3.266000032,ZEBRA,FALSE,,,,,,,189,zebra,Catalan,Sounds/cat_zebra.mp3,2020-06-05_12h41.09.595,TranslationElicitation_eng-prolific,3.2.4,MacIntel,60,5ed0d7a61cb3e101dc72f93e,3.266000032,1,0,81,80,1,80
,,,,,,,,,,,,,,,,,,,,,,,,,,,,,,,,,,,,,,,,,,,,,,,,,,,,189,zebra,Catalan,Sounds/cat_zebra.mp3,2020-06-05_12h41.09.595,TranslationElicitation_eng-prolific,3.2.4,MacIntel,60,5ed0d7a61cb3e101dc72f93e,,1,0,81,80,1,80
,,,,,,,,,,,,,,,,,,,,,,,,,,,,,,,,,,,,,,,,,,p,1.865999937,P,FALSE,,,,,,,167,pingui,Catalan,Sounds/cat_pingui.mp3,2020-06-05_12h41.09.595,TranslationElicitation_eng-prolific,3.2.4,MacIntel,60,5ed0d7a61cb3e101dc72f93e,,1,0,81,59,1,80
,,,,,,,,,,,,,,,,,,,,,,,,,,,,,,,,,,,,,,,,,,e,2.048999786,PE,FALSE,,,,,,,167,pingui,Catalan,Sounds/cat_pingui.mp3,2020-06-05_12h41.09.595,TranslationElicitation_eng-prolific,3.2.4,MacIntel,60,5ed0d7a61cb3e101dc72f93e,,1,0,81,59,1,80
,,,,,,,,,,,,,,,,,,,,,,,,,,,,,,,,,,,,,,,,,,n,2.265999794,PEN,FALSE,,,,,,,167,pingui,Catalan,Sounds/cat_pingui.mp3,2020-06-05_12h41.09.595,TranslationElicitation_eng-prolific,3.2.4,MacIntel,60,5ed0d7a61cb3e101dc72f93e,,1,0,81,59,1,80
,,,,,,,,,,,,,,,,,,,,,,,,,,,,,,,,,,,,,,,,,,g,2.382999897,PENG,FALSE,,,,,,,167,pingui,Catalan,Sounds/cat_pingui.mp3,2020-06-05_12h41.09.595,TranslationElicitation_eng-prolific,3.2.4,MacIntel,60,5ed0d7a61cb3e101dc72f93e,,1,0,81,59,1,80
,,,,,,,,,,,,,,,,,,,,,,,,,,,,,,,,,,,,,,,,,,u,2.498999834,PENGU,FALSE,,,,,,,167,pingui,Catalan,Sounds/cat_pingui.mp3,2020-06-05_12h41.09.595,TranslationElicitation_eng-prolific,3.2.4,MacIntel,60,5ed0d7a61cb3e101dc72f93e,,1,0,81,59,1,80
,,,,,,,,,,,,,,,,,,,,,,,,,,,,,,,,,,,,,,,,,,i,2.587999821,PENGUI,FALSE,,,,,,,167,pingui,Catalan,Sounds/cat_pingui.mp3,2020-06-05_12h41.09.595,TranslationElicitation_eng-prolific,3.2.4,MacIntel,60,5ed0d7a61cb3e101dc72f93e,,1,0,81,59,1,80
,,,,,,,,,,,,,,,,,,,,,,,,,,,,,,,,,,,,,,,,,,n,2.699999809,PENGUIN,FALSE,,,,,,,167,pingui,Catalan,Sounds/cat_pingui.mp3,2020-06-05_12h41.09.595,TranslationElicitation_eng-prolific,3.2.4,MacIntel,60,5ed0d7a61cb3e101dc72f93e,,1,0,81,59,1,80
,,,,,,,,,,,,,,,,,,,,,,,,,,,,,,,,,,,,,,,,,,return,2.933999777,PENGUIN,FALSE,,,,,,,167,pingui,Catalan,Sounds/cat_pingui.mp3,2020-06-05_12h41.09.595,TranslationElicitation_eng-prolific,3.2.4,MacIntel,60,5ed0d7a61cb3e101dc72f93e,2.933999777,1,0,81,59,1,80
,,,,,,,,,,,,,,,,,,,,,,,,,,,,,,,,,,,,,,,,,,,,,,,,,,,,167,pingui,Catalan,Sounds/cat_pingui.mp3,2020-06-05_12h41.09.595,TranslationElicitation_eng-prolific,3.2.4,MacIntel,60,5ed0d7a61cb3e101dc72f93e,,1,0,81,59,1,80
,,,,,,,,,,,,,,,,,,,,,,,,,,,,,,,,,,,,,,,,,,t,1.101999998,T,FALSE,,,,,,,182,tomaquet,Catalan,Sounds/cat_tomaquet.mp3,2020-06-05_12h41.09.595,TranslationElicitation_eng-prolific,3.2.4,MacIntel,60,5ed0d7a61cb3e101dc72f93e,,1,0,81,73,1,80
,,,,,,,,,,,,,,,,,,,,,,,,,,,,,,,,,,,,,,,,,,o,1.282999992,TO,FALSE,,,,,,,182,tomaquet,Catalan,Sounds/cat_tomaquet.mp3,2020-06-05_12h41.09.595,TranslationElicitation_eng-prolific,3.2.4,MacIntel,60,5ed0d7a61cb3e101dc72f93e,,1,0,81,73,1,80
,,,,,,,,,,,,,,,,,,,,,,,,,,,,,,,,,,,,,,,,,,m,1.384000063,TOM,FALSE,,,,,,,182,tomaquet,Catalan,Sounds/cat_tomaquet.mp3,2020-06-05_12h41.09.595,TranslationElicitation_eng-prolific,3.2.4,MacIntel,60,5ed0d7a61cb3e101dc72f93e,,1,0,81,73,1,80
,,,,,,,,,,,,,,,,,,,,,,,,,,,,,,,,,,,,,,,,,,a,1.523000002,TOMA,FALSE,,,,,,,182,tomaquet,Catalan,Sounds/cat_tomaquet.mp3,2020-06-05_12h41.09.595,TranslationElicitation_eng-prolific,3.2.4,MacIntel,60,5ed0d7a61cb3e101dc72f93e,,1,0,81,73,1,80
,,,,,,,,,,,,,,,,,,,,,,,,,,,,,,,,,,,,,,,,,,t,1.799999952,TOMAT,FALSE,,,,,,,182,tomaquet,Catalan,Sounds/cat_tomaquet.mp3,2020-06-05_12h41.09.595,TranslationElicitation_eng-prolific,3.2.4,MacIntel,60,5ed0d7a61cb3e101dc72f93e,,1,0,81,73,1,80
,,,,,,,,,,,,,,,,,,,,,,,,,,,,,,,,,,,,,,,,,,o,2.417999983,TOMATO,FALSE,,,,,,,182,tomaquet,Catalan,Sounds/cat_tomaquet.mp3,2020-06-05_12h41.09.595,TranslationElicitation_eng-prolific,3.2.4,MacIntel,60,5ed0d7a61cb3e101dc72f93e,,1,0,81,73,1,80
,,,,,,,,,,,,,,,,,,,,,,,,,,,,,,,,,,,,,,,,,,return,2.585999966,TOMATO,FALSE,,,,,,,182,tomaquet,Catalan,Sounds/cat_tomaquet.mp3,2020-06-05_12h41.09.595,TranslationElicitation_eng-prolific,3.2.4,MacIntel,60,5ed0d7a61cb3e101dc72f93e,2.585999966,1,0,81,73,1,80
,,,,,,,,,,,,,,,,,,,,,,,,,,,,,,,,,,,,,,,,,,,,,,,,,,,,182,tomaquet,Catalan,Sounds/cat_tomaquet.mp3,2020-06-05_12h41.09.595,TranslationElicitation_eng-prolific,3.2.4,MacIntel,60,5ed0d7a61cb3e101dc72f93e,,1,0,81,73,1,80
,,,,,,,,,,,,,,,,,,,,,,,,,,,,,,,,,,,,,,,,,,h,5.922999859,H,FALSE,,,,,,,138,galeta,Catalan,Sounds/cat_galeta.mp3,2020-06-05_12h41.09.595,TranslationElicitation_eng-prolific,3.2.4,MacIntel,60,5ed0d7a61cb3e101dc72f93e,,1,0,81,32,1,80
,,,,,,,,,,,,,,,,,,,,,,,,,,,,,,,,,,,,,,,,,,o,6.026000023,HO,FALSE,,,,,,,138,galeta,Catalan,Sounds/cat_galeta.mp3,2020-06-05_12h41.09.595,TranslationElicitation_eng-prolific,3.2.4,MacIntel,60,5ed0d7a61cb3e101dc72f93e,,1,0,81,32,1,80
,,,,,,,,,,,,,,,,,,,,,,,,,,,,,,,,,,,,,,,,,,r,6.572999954,HOR,FALSE,,,,,,,138,galeta,Catalan,Sounds/cat_galeta.mp3,2020-06-05_12h41.09.595,TranslationElicitation_eng-prolific,3.2.4,MacIntel,60,5ed0d7a61cb3e101dc72f93e,,1,0,81,32,1,80
,,,,,,,,,,,,,,,,,,,,,,,,,,,,,,,,,,,,,,,,,,s,6.772000074,HORS,FALSE,,,,,,,138,galeta,Catalan,Sounds/cat_galeta.mp3,2020-06-05_12h41.09.595,TranslationElicitation_eng-prolific,3.2.4,MacIntel,60,5ed0d7a61cb3e101dc72f93e,,1,0,81,32,1,80
,,,,,,,,,,,,,,,,,,,,,,,,,,,,,,,,,,,,,,,,,,e,6.938999891,HORSE,FALSE,,,,,,,138,galeta,Catalan,Sounds/cat_galeta.mp3,2020-06-05_12h41.09.595,TranslationElicitation_eng-prolific,3.2.4,MacIntel,60,5ed0d7a61cb3e101dc72f93e,,1,0,81,32,1,80
,,,,,,,,,,,,,,,,,,,,,,,,,,,,,,,,,,,,,,,,,,return,7.049999952,HORSE,FALSE,,,,,,,138,galeta,Catalan,Sounds/cat_galeta.mp3,2020-06-05_12h41.09.595,TranslationElicitation_eng-prolific,3.2.4,MacIntel,60,5ed0d7a61cb3e101dc72f93e,7.049999952,1,0,81,32,1,80
,,,,,,,,,,,,,,,,,,,,,,,,,,,,,,,,,,,,,,,,,,,,,,,,,,,,138,galeta,Catalan,Sounds/cat_galeta.mp3,2020-06-05_12h41.09.595,TranslationElicitation_eng-prolific,3.2.4,MacIntel,60,5ed0d7a61cb3e101dc72f93e,,1,0,81,32,1,80
,,,,,,,,,,,,,,,,,,,,,,,,,,,,,,,,,,,,,,,,,,s,5.332000017,S,FALSE,,,,,,,121,camisa,Catalan,Sounds/cat_camisa.mp3,2020-06-05_12h41.09.595,TranslationElicitation_eng-prolific,3.2.4,MacIntel,60,5ed0d7a61cb3e101dc72f93e,,1,0,81,16,1,80
,,,,,,,,,,,,,,,,,,,,,,,,,,,,,,,,,,,,,,,,,,h,5.453000069,SH,FALSE,,,,,,,121,camisa,Catalan,Sounds/cat_camisa.mp3,2020-06-05_12h41.09.595,TranslationElicitation_eng-prolific,3.2.4,MacIntel,60,5ed0d7a61cb3e101dc72f93e,,1,0,81,16,1,80
,,,,,,,,,,,,,,,,,,,,,,,,,,,,,,,,,,,,,,,,,,i,5.562000036,SHI,FALSE,,,,,,,121,camisa,Catalan,Sounds/cat_camisa.mp3,2020-06-05_12h41.09.595,TranslationElicitation_eng-prolific,3.2.4,MacIntel,60,5ed0d7a61cb3e101dc72f93e,,1,0,81,16,1,80
,,,,,,,,,,,,,,,,,,,,,,,,,,,,,,,,,,,,,,,,,,r,5.648999929,SHIR,FALSE,,,,,,,121,camisa,Catalan,Sounds/cat_camisa.mp3,2020-06-05_12h41.09.595,TranslationElicitation_eng-prolific,3.2.4,MacIntel,60,5ed0d7a61cb3e101dc72f93e,,1,0,81,16,1,80
,,,,,,,,,,,,,,,,,,,,,,,,,,,,,,,,,,,,,,,,,,t,5.782000065,SHIRT,FALSE,,,,,,,121,camisa,Catalan,Sounds/cat_camisa.mp3,2020-06-05_12h41.09.595,TranslationElicitation_eng-prolific,3.2.4,MacIntel,60,5ed0d7a61cb3e101dc72f93e,,1,0,81,16,1,80
,,,,,,,,,,,,,,,,,,,,,,,,,,,,,,,,,,,,,,,,,,return,5.934000015,SHIRT,FALSE,,,,,,,121,camisa,Catalan,Sounds/cat_camisa.mp3,2020-06-05_12h41.09.595,TranslationElicitation_eng-prolific,3.2.4,MacIntel,60,5ed0d7a61cb3e101dc72f93e,5.934000015,1,0,81,16,1,80
,,,,,,,,,,,,,,,,,,,,,,,,,,,,,,,,,,,,,,,,,,,,,,,,,,,,121,camisa,Catalan,Sounds/cat_camisa.mp3,2020-06-05_12h41.09.595,TranslationElicitation_eng-prolific,3.2.4,MacIntel,60,5ed0d7a61cb3e101dc72f93e,,1,0,81,16,1,80
,,,,,,,,,,,,,,,,,,,,,,,,,,,,,,,,,,,,,,,,,,w,14.33899999,W,FALSE,,,,,,,156,moto,Catalan,Sounds/cat_moto.mp3,2020-06-05_12h41.09.595,TranslationElicitation_eng-prolific,3.2.4,MacIntel,60,5ed0d7a61cb3e101dc72f93e,,1,0,81,49,1,80
,,,,,,,,,,,,,,,,,,,,,,,,,,,,,,,,,,,,,,,,,,o,14.40199995,WO,FALSE,,,,,,,156,moto,Catalan,Sounds/cat_moto.mp3,2020-06-05_12h41.09.595,TranslationElicitation_eng-prolific,3.2.4,MacIntel,60,5ed0d7a61cb3e101dc72f93e,,1,0,81,49,1,80
,,,,,,,,,,,,,,,,,,,,,,,,,,,,,,,,,,,,,,,,,,m,14.47099996,WOM,FALSE,,,,,,,156,moto,Catalan,Sounds/cat_moto.mp3,2020-06-05_12h41.09.595,TranslationElicitation_eng-prolific,3.2.4,MacIntel,60,5ed0d7a61cb3e101dc72f93e,,1,0,81,49,1,80
,,,,,,,,,,,,,,,,,,,,,,,,,,,,,,,,,,,,,,,,,,a,14.58500004,WOMA,FALSE,,,,,,,156,moto,Catalan,Sounds/cat_moto.mp3,2020-06-05_12h41.09.595,TranslationElicitation_eng-prolific,3.2.4,MacIntel,60,5ed0d7a61cb3e101dc72f93e,,1,0,81,49,1,80
,,,,,,,,,,,,,,,,,,,,,,,,,,,,,,,,,,,,,,,,,,n,14.68300009,WOMAN,FALSE,,,,,,,156,moto,Catalan,Sounds/cat_moto.mp3,2020-06-05_12h41.09.595,TranslationElicitation_eng-prolific,3.2.4,MacIntel,60,5ed0d7a61cb3e101dc72f93e,,1,0,81,49,1,80
,,,,,,,,,,,,,,,,,,,,,,,,,,,,,,,,,,,,,,,,,,return,14.83800006,WOMAN,FALSE,,,,,,,156,moto,Catalan,Sounds/cat_moto.mp3,2020-06-05_12h41.09.595,TranslationElicitation_eng-prolific,3.2.4,MacIntel,60,5ed0d7a61cb3e101dc72f93e,14.83800006,1,0,81,49,1,80
,,,,,,,,,,,,,,,,,,,,,,,,,,,,,,,,,,,,,,,,,,,,,,,,,,,,156,moto,Catalan,Sounds/cat_moto.mp3,2020-06-05_12h41.09.595,TranslationElicitation_eng-prolific,3.2.4,MacIntel,60,5ed0d7a61cb3e101dc72f93e,,1,0,81,49,1,80
,,,,,,,,,,,,,,,,,,,,,,,,,,,,,,,,,,,,,,,,,,h,2.001000166,H,FALSE,,,,,,,122,casa,Catalan,Sounds/cat_casa.mp3,2020-06-05_12h41.09.595,TranslationElicitation_eng-prolific,3.2.4,MacIntel,60,5ed0d7a61cb3e101dc72f93e,,1,0,81,17,1,80
,,,,,,,,,,,,,,,,,,,,,,,,,,,,,,,,,,,,,,,,,,o,2.101000071,HO,FALSE,,,,,,,122,casa,Catalan,Sounds/cat_casa.mp3,2020-06-05_12h41.09.595,TranslationElicitation_eng-prolific,3.2.4,MacIntel,60,5ed0d7a61cb3e101dc72f93e,,1,0,81,17,1,80
,,,,,,,,,,,,,,,,,,,,,,,,,,,,,,,,,,,,,,,,,,s,2.217000008,HOS,FALSE,,,,,,,122,casa,Catalan,Sounds/cat_casa.mp3,2020-06-05_12h41.09.595,TranslationElicitation_eng-prolific,3.2.4,MacIntel,60,5ed0d7a61cb3e101dc72f93e,,1,0,81,17,1,80
,,,,,,,,,,,,,,,,,,,,,,,,,,,,,,,,,,,,,,,,,,u,2.269000053,HOSU,FALSE,,,,,,,122,casa,Catalan,Sounds/cat_casa.mp3,2020-06-05_12h41.09.595,TranslationElicitation_eng-prolific,3.2.4,MacIntel,60,5ed0d7a61cb3e101dc72f93e,,1,0,81,17,1,80
,,,,,,,,,,,,,,,,,,,,,,,,,,,,,,,,,,,,,,,,,,e,2.435000181,HOSUE,FALSE,,,,,,,122,casa,Catalan,Sounds/cat_casa.mp3,2020-06-05_12h41.09.595,TranslationElicitation_eng-prolific,3.2.4,MacIntel,60,5ed0d7a61cb3e101dc72f93e,,1,0,81,17,1,80
,,,,,,,,,,,,,,,,,,,,,,,,,,,,,,,,,,,,,,,,,,return,2.601000071,HOSUE,FALSE,,,,,,,122,casa,Catalan,Sounds/cat_casa.mp3,2020-06-05_12h41.09.595,TranslationElicitation_eng-prolific,3.2.4,MacIntel,60,5ed0d7a61cb3e101dc72f93e,2.601000071,1,0,81,17,1,80
,,,,,,,,,,,,,,,,,,,,,,,,,,,,,,,,,,,,,,,,,,,,,,,,,,,,122,casa,Catalan,Sounds/cat_casa.mp3,2020-06-05_12h41.09.595,TranslationElicitation_eng-prolific,3.2.4,MacIntel,60,5ed0d7a61cb3e101dc72f93e,,1,0,81,17,1,80
,,,,,,,,,,,,,,,,,,,,,,,,,,,,,,,,,,,,,,,,,,return,2.450000048,,FALSE,,,,,,,155,moneda,Catalan,Sounds/cat_moneda.mp3,2020-06-05_12h41.09.595,TranslationElicitation_eng-prolific,3.2.4,MacIntel,60,5ed0d7a61cb3e101dc72f93e,2.450000048,1,0,81,48,1,80
,,,,,,,,,,,,,,,,,,,,,,,,,,,,,,,,,,,,,,,,,,,,,,,,,,,,155,moneda,Catalan,Sounds/cat_moneda.mp3,2020-06-05_12h41.09.595,TranslationElicitation_eng-prolific,3.2.4,MacIntel,60,5ed0d7a61cb3e101dc72f93e,,1,0,81,48,1,80
,,,,,,,,,,,,,,,,,,,,,,,,,,,,,,,,,,,,,,,,,,u,2.467999935,U,FALSE,,,,,,,161,ovella,Catalan,Sounds/cat_ovella.mp3,2020-06-05_12h41.09.595,TranslationElicitation_eng-prolific,3.2.4,MacIntel,60,5ed0d7a61cb3e101dc72f93e,,1,0,81,53,1,80
,,,,,,,,,,,,,,,,,,,,,,,,,,,,,,,,,,,,,,,,,,m,2.769000053,UM,FALSE,,,,,,,161,ovella,Catalan,Sounds/cat_ovella.mp3,2020-06-05_12h41.09.595,TranslationElicitation_eng-prolific,3.2.4,MacIntel,60,5ed0d7a61cb3e101dc72f93e,,1,0,81,53,1,80
,,,,,,,,,,,,,,,,,,,,,,,,,,,,,,,,,,,,,,,,,,b,2.970999956,UMB,FALSE,,,,,,,161,ovella,Catalan,Sounds/cat_ovella.mp3,2020-06-05_12h41.09.595,TranslationElicitation_eng-prolific,3.2.4,MacIntel,60,5ed0d7a61cb3e101dc72f93e,,1,0,81,53,1,80
,,,,,,,,,,,,,,,,,,,,,,,,,,,,,,,,,,,,,,,,,,r,3.085000038,UMBR,FALSE,,,,,,,161,ovella,Catalan,Sounds/cat_ovella.mp3,2020-06-05_12h41.09.595,TranslationElicitation_eng-prolific,3.2.4,MacIntel,60,5ed0d7a61cb3e101dc72f93e,,1,0,81,53,1,80
,,,,,,,,,,,,,,,,,,,,,,,,,,,,,,,,,,,,,,,,,,e,3.234999895,UMBRE,FALSE,,,,,,,161,ovella,Catalan,Sounds/cat_ovella.mp3,2020-06-05_12h41.09.595,TranslationElicitation_eng-prolific,3.2.4,MacIntel,60,5ed0d7a61cb3e101dc72f93e,,1,0,81,53,1,80
,,,,,,,,,,,,,,,,,,,,,,,,,,,,,,,,,,,,,,,,,,l,3.357000113,UMBREL,FALSE,,,,,,,161,ovella,Catalan,Sounds/cat_ovella.mp3,2020-06-05_12h41.09.595,TranslationElicitation_eng-prolific,3.2.4,MacIntel,60,5ed0d7a61cb3e101dc72f93e,,1,0,81,53,1,80
,,,,,,,,,,,,,,,,,,,,,,,,,,,,,,,,,,,,,,,,,,l,3.484999895,UMBRELL,FALSE,,,,,,,161,ovella,Catalan,Sounds/cat_ovella.mp3,2020-06-05_12h41.09.595,TranslationElicitation_eng-prolific,3.2.4,MacIntel,60,5ed0d7a61cb3e101dc72f93e,,1,0,81,53,1,80
,,,,,,,,,,,,,,,,,,,,,,,,,,,,,,,,,,,,,,,,,,a,3.569999933,UMBRELLA,FALSE,,,,,,,161,ovella,Catalan,Sounds/cat_ovella.mp3,2020-06-05_12h41.09.595,TranslationElicitation_eng-prolific,3.2.4,MacIntel,60,5ed0d7a61cb3e101dc72f93e,,1,0,81,53,1,80
,,,,,,,,,,,,,,,,,,,,,,,,,,,,,,,,,,,,,,,,,,return,3.704999924,UMBRELLA,FALSE,,,,,,,161,ovella,Catalan,Sounds/cat_ovella.mp3,2020-06-05_12h41.09.595,TranslationElicitation_eng-prolific,3.2.4,MacIntel,60,5ed0d7a61cb3e101dc72f93e,3.704999924,1,0,81,53,1,80
,,,,,,,,,,,,,,,,,,,,,,,,,,,,,,,,,,,,,,,,,,,,,,,,,,,,161,ovella,Catalan,Sounds/cat_ovella.mp3,2020-06-05_12h41.09.595,TranslationElicitation_eng-prolific,3.2.4,MacIntel,60,5ed0d7a61cb3e101dc72f93e,,1,0,81,53,1,80
,,,,,,,,,,,,,,,,,,,,,,,,,,,,,,,,,,,,,,,,,,c,2.019999981,C,FALSE,,,,,,,178,taronja,Catalan,Sounds/cat_taronja.mp3,2020-06-05_12h41.09.595,TranslationElicitation_eng-prolific,3.2.4,MacIntel,60,5ed0d7a61cb3e101dc72f93e,,1,0,81,70,1,80
,,,,,,,,,,,,,,,,,,,,,,,,,,,,,,,,,,,,,,,,,,o,2.200000048,CO,FALSE,,,,,,,178,taronja,Catalan,Sounds/cat_taronja.mp3,2020-06-05_12h41.09.595,TranslationElicitation_eng-prolific,3.2.4,MacIntel,60,5ed0d7a61cb3e101dc72f93e,,1,0,81,70,1,80
,,,,,,,,,,,,,,,,,,,,,,,,,,,,,,,,,,,,,,,,,,a,2.299000025,COA,FALSE,,,,,,,178,taronja,Catalan,Sounds/cat_taronja.mp3,2020-06-05_12h41.09.595,TranslationElicitation_eng-prolific,3.2.4,MacIntel,60,5ed0d7a61cb3e101dc72f93e,,1,0,81,70,1,80
,,,,,,,,,,,,,,,,,,,,,,,,,,,,,,,,,,,,,,,,,,t,2.549000025,COAT,FALSE,,,,,,,178,taronja,Catalan,Sounds/cat_taronja.mp3,2020-06-05_12h41.09.595,TranslationElicitation_eng-prolific,3.2.4,MacIntel,60,5ed0d7a61cb3e101dc72f93e,,1,0,81,70,1,80
,,,,,,,,,,,,,,,,,,,,,,,,,,,,,,,,,,,,,,,,,,return,2.63499999,COAT,FALSE,,,,,,,178,taronja,Catalan,Sounds/cat_taronja.mp3,2020-06-05_12h41.09.595,TranslationElicitation_eng-prolific,3.2.4,MacIntel,60,5ed0d7a61cb3e101dc72f93e,2.63499999,1,0,81,70,1,80
,,,,,,,,,,,,,,,,,,,,,,,,,,,,,,,,,,,,,,,,,,,,,,,,,,,,178,taronja,Catalan,Sounds/cat_taronja.mp3,2020-06-05_12h41.09.595,TranslationElicitation_eng-prolific,3.2.4,MacIntel,60,5ed0d7a61cb3e101dc72f93e,,1,0,81,70,1,80
,,,,,,,,,,,,,,,,,,,,,,,,,,,,,,,,,,,,,,,,,,b,4.614000082,B,FALSE,,,,,,,112,bici,Catalan,Sounds/cat_bici.mp3,2020-06-05_12h41.09.595,TranslationElicitation_eng-prolific,3.2.4,MacIntel,60,5ed0d7a61cb3e101dc72f93e,,1,0,81,7,1,80
,,,,,,,,,,,,,,,,,,,,,,,,,,,,,,,,,,,,,,,,,,u,4.69900012,BU,FALSE,,,,,,,112,bici,Catalan,Sounds/cat_bici.mp3,2020-06-05_12h41.09.595,TranslationElicitation_eng-prolific,3.2.4,MacIntel,60,5ed0d7a61cb3e101dc72f93e,,1,0,81,7,1,80
,,,,,,,,,,,,,,,,,,,,,,,,,,,,,,,,,,,,,,,,,,g,4.748000145,BUG,FALSE,,,,,,,112,bici,Catalan,Sounds/cat_bici.mp3,2020-06-05_12h41.09.595,TranslationElicitation_eng-prolific,3.2.4,MacIntel,60,5ed0d7a61cb3e101dc72f93e,,1,0,81,7,1,80
,,,,,,,,,,,,,,,,,,,,,,,,,,,,,,,,,,,,,,,,,,return,4.930000067,BUG,FALSE,,,,,,,112,bici,Catalan,Sounds/cat_bici.mp3,2020-06-05_12h41.09.595,TranslationElicitation_eng-prolific,3.2.4,MacIntel,60,5ed0d7a61cb3e101dc72f93e,4.930000067,1,0,81,7,1,80
,,,,,,,,,,,,,,,,,,,,,,,,,,,,,,,,,,,,,,,,,,,,,,,,,,,,112,bici,Catalan,Sounds/cat_bici.mp3,2020-06-05_12h41.09.595,TranslationElicitation_eng-prolific,3.2.4,MacIntel,60,5ed0d7a61cb3e101dc72f93e,,1,0,81,7,1,80
,,,,,,,,,,,,,,,,,,,,,,,,,,,,,,,,,,,,,,,,,,p,1.749000072,P,FALSE,,,,,,,170,ploma,Catalan,Sounds/cat_ploma.mp3,2020-06-05_12h41.09.595,TranslationElicitation_eng-prolific,3.2.4,MacIntel,60,5ed0d7a61cb3e101dc72f93e,,1,0,81,62,1,80
,,,,,,,,,,,,,,,,,,,,,,,,,,,,,,,,,,,,,,,,,,l,1.833000183,PL,FALSE,,,,,,,170,ploma,Catalan,Sounds/cat_ploma.mp3,2020-06-05_12h41.09.595,TranslationElicitation_eng-prolific,3.2.4,MacIntel,60,5ed0d7a61cb3e101dc72f93e,,1,0,81,62,1,80
,,,,,,,,,,,,,,,,,,,,,,,,,,,,,,,,,,,,,,,,,,u,1.965000153,PLU,FALSE,,,,,,,170,ploma,Catalan,Sounds/cat_ploma.mp3,2020-06-05_12h41.09.595,TranslationElicitation_eng-prolific,3.2.4,MacIntel,60,5ed0d7a61cb3e101dc72f93e,,1,0,81,62,1,80
,,,,,,,,,,,,,,,,,,,,,,,,,,,,,,,,,,,,,,,,,,m,2.038000107,PLUM,FALSE,,,,,,,170,ploma,Catalan,Sounds/cat_ploma.mp3,2020-06-05_12h41.09.595,TranslationElicitation_eng-prolific,3.2.4,MacIntel,60,5ed0d7a61cb3e101dc72f93e,,1,0,81,62,1,80
,,,,,,,,,,,,,,,,,,,,,,,,,,,,,,,,,,,,,,,,,,return,2.43200016,PLUM,FALSE,,,,,,,170,ploma,Catalan,Sounds/cat_ploma.mp3,2020-06-05_12h41.09.595,TranslationElicitation_eng-prolific,3.2.4,MacIntel,60,5ed0d7a61cb3e101dc72f93e,2.43200016,1,0,81,62,1,80
,,,,,,,,,,,,,,,,,,,,,,,,,,,,,,,,,,,,,,,,,,,,,,,,,,,,170,ploma,Catalan,Sounds/cat_ploma.mp3,2020-06-05_12h41.09.595,TranslationElicitation_eng-prolific,3.2.4,MacIntel,60,5ed0d7a61cb3e101dc72f93e,,1,0,81,62,1,80
,,,,,,,,,,,,,,,,,,,,,,,,,,,,,,,,,,,,,,,,,,d,2.032000065,D,FALSE,,,,,,,174,porta,Catalan,Sounds/cat_porta.mp3,2020-06-05_12h41.09.595,TranslationElicitation_eng-prolific,3.2.4,MacIntel,60,5ed0d7a61cb3e101dc72f93e,,1,0,81,66,1,80
,,,,,,,,,,,,,,,,,,,,,,,,,,,,,,,,,,,,,,,,,,o,2.202000141,DO,FALSE,,,,,,,174,porta,Catalan,Sounds/cat_porta.mp3,2020-06-05_12h41.09.595,TranslationElicitation_eng-prolific,3.2.4,MacIntel,60,5ed0d7a61cb3e101dc72f93e,,1,0,81,66,1,80
,,,,,,,,,,,,,,,,,,,,,,,,,,,,,,,,,,,,,,,,,,o,2.315000057,DOO,FALSE,,,,,,,174,porta,Catalan,Sounds/cat_porta.mp3,2020-06-05_12h41.09.595,TranslationElicitation_eng-prolific,3.2.4,MacIntel,60,5ed0d7a61cb3e101dc72f93e,,1,0,81,66,1,80
,,,,,,,,,,,,,,,,,,,,,,,,,,,,,,,,,,,,,,,,,,r,2.399000168,DOOR,FALSE,,,,,,,174,porta,Catalan,Sounds/cat_porta.mp3,2020-06-05_12h41.09.595,TranslationElicitation_eng-prolific,3.2.4,MacIntel,60,5ed0d7a61cb3e101dc72f93e,,1,0,81,66,1,80
,,,,,,,,,,,,,,,,,,,,,,,,,,,,,,,,,,,,,,,,,,return,2.549000025,DOOR,FALSE,,,,,,,174,porta,Catalan,Sounds/cat_porta.mp3,2020-06-05_12h41.09.595,TranslationElicitation_eng-prolific,3.2.4,MacIntel,60,5ed0d7a61cb3e101dc72f93e,2.549000025,1,0,81,66,1,80
,,,,,,,,,,,,,,,,,,,,,,,,,,,,,,,,,,,,,,,,,,,,,,,,,,,,174,porta,Catalan,Sounds/cat_porta.mp3,2020-06-05_12h41.09.595,TranslationElicitation_eng-prolific,3.2.4,MacIntel,60,5ed0d7a61cb3e101dc72f93e,,1,0,81,66,1,80
,,,,,,,,,,,,,,,,,,,,,,,,,,,,,,,,,,,,,,,,,,return,1.483999968,,FALSE,,,,,,,131,esponja,Catalan,Sounds/cat_esponja.mp3,2020-06-05_12h41.09.595,TranslationElicitation_eng-prolific,3.2.4,MacIntel,60,5ed0d7a61cb3e101dc72f93e,1.483999968,1,0,81,25,1,80
,,,,,,,,,,,,,,,,,,,,,,,,,,,,,,,,,,,,,,,,,,,,,,,,,,,,131,esponja,Catalan,Sounds/cat_esponja.mp3,2020-06-05_12h41.09.595,TranslationElicitation_eng-prolific,3.2.4,MacIntel,60,5ed0d7a61cb3e101dc72f93e,,1,0,81,25,1,80
,,,,,,,,,,,,,,,,,,,,,,,,,,,,,,,,,,,,,,,,,,d,4.603000164,D,FALSE,,,,,,,113,boca,Catalan,Sounds/cat_boca.mp3,2020-06-05_12h41.09.595,TranslationElicitation_eng-prolific,3.2.4,MacIntel,60,5ed0d7a61cb3e101dc72f93e,,1,0,81,8,1,80
,,,,,,,,,,,,,,,,,,,,,,,,,,,,,,,,,,,,,,,,,,o,4.767000198,DO,FALSE,,,,,,,113,boca,Catalan,Sounds/cat_boca.mp3,2020-06-05_12h41.09.595,TranslationElicitation_eng-prolific,3.2.4,MacIntel,60,5ed0d7a61cb3e101dc72f93e,,1,0,81,8,1,80
,,,,,,,,,,,,,,,,,,,,,,,,,,,,,,,,,,,,,,,,,,g,4.833000183,DOG,FALSE,,,,,,,113,boca,Catalan,Sounds/cat_boca.mp3,2020-06-05_12h41.09.595,TranslationElicitation_eng-prolific,3.2.4,MacIntel,60,5ed0d7a61cb3e101dc72f93e,,1,0,81,8,1,80
,,,,,,,,,,,,,,,,,,,,,,,,,,,,,,,,,,,,,,,,,,return,5.019000053,DOG,FALSE,,,,,,,113,boca,Catalan,Sounds/cat_boca.mp3,2020-06-05_12h41.09.595,TranslationElicitation_eng-prolific,3.2.4,MacIntel,60,5ed0d7a61cb3e101dc72f93e,5.019000053,1,0,81,8,1,80
,,,,,,,,,,,,,,,,,,,,,,,,,,,,,,,,,,,,,,,,,,,,,,,,,,,,113,boca,Catalan,Sounds/cat_boca.mp3,2020-06-05_12h41.09.595,TranslationElicitation_eng-prolific,3.2.4,MacIntel,60,5ed0d7a61cb3e101dc72f93e,,1,0,81,8,1,80
,,,,,,,,,,,,,,,,,,,,,,,,,,,,,,,,,,,,,,,,,,w,1.933000088,W,FALSE,,,,,,,105,aigua,Catalan,Sounds/cat_aigua.mp3,2020-06-05_12h41.09.595,TranslationElicitation_eng-prolific,3.2.4,MacIntel,60,5ed0d7a61cb3e101dc72f93e,,1,0,81,1,1,80
,,,,,,,,,,,,,,,,,,,,,,,,,,,,,,,,,,,,,,,,,,a,2.084000111,WA,FALSE,,,,,,,105,aigua,Catalan,Sounds/cat_aigua.mp3,2020-06-05_12h41.09.595,TranslationElicitation_eng-prolific,3.2.4,MacIntel,60,5ed0d7a61cb3e101dc72f93e,,1,0,81,1,1,80
,,,,,,,,,,,,,,,,,,,,,,,,,,,,,,,,,,,,,,,,,,t,2.305000067,WAT,FALSE,,,,,,,105,aigua,Catalan,Sounds/cat_aigua.mp3,2020-06-05_12h41.09.595,TranslationElicitation_eng-prolific,3.2.4,MacIntel,60,5ed0d7a61cb3e101dc72f93e,,1,0,81,1,1,80
,,,,,,,,,,,,,,,,,,,,,,,,,,,,,,,,,,,,,,,,,,e,2.467000008,WATE,FALSE,,,,,,,105,aigua,Catalan,Sounds/cat_aigua.mp3,2020-06-05_12h41.09.595,TranslationElicitation_eng-prolific,3.2.4,MacIntel,60,5ed0d7a61cb3e101dc72f93e,,1,0,81,1,1,80
,,,,,,,,,,,,,,,,,,,,,,,,,,,,,,,,,,,,,,,,,,r,2.631999969,WATER,FALSE,,,,,,,105,aigua,Catalan,Sounds/cat_aigua.mp3,2020-06-05_12h41.09.595,TranslationElicitation_eng-prolific,3.2.4,MacIntel,60,5ed0d7a61cb3e101dc72f93e,,1,0,81,1,1,80
,,,,,,,,,,,,,,,,,,,,,,,,,,,,,,,,,,,,,,,,,,return,2.702000141,WATER,FALSE,,,,,,,105,aigua,Catalan,Sounds/cat_aigua.mp3,2020-06-05_12h41.09.595,TranslationElicitation_eng-prolific,3.2.4,MacIntel,60,5ed0d7a61cb3e101dc72f93e,2.702000141,1,0,81,1,1,80
,,,,,,,,,,,,,,,,,,,,,,,,,,,,,,,,,,,,,,,,,,,,,,,,,,,,105,aigua,Catalan,Sounds/cat_aigua.mp3,2020-06-05_12h41.09.595,TranslationElicitation_eng-prolific,3.2.4,MacIntel,60,5ed0d7a61cb3e101dc72f93e,,1,0,81,1,1,80
,,,,,,,,,,,,,,,,,,,,,,,,,,,,,,,,,,,,,,,,,,return,3.615999937,,FALSE,,,,,,,128,cuc,Catalan,Sounds/cat_cuc.mp3,2020-06-05_12h41.09.595,TranslationElicitation_eng-prolific,3.2.4,MacIntel,60,5ed0d7a61cb3e101dc72f93e,3.615999937,1,0,81,22,1,80
,,,,,,,,,,,,,,,,,,,,,,,,,,,,,,,,,,,,,,,,,,,,,,,,,,,,128,cuc,Catalan,Sounds/cat_cuc.mp3,2020-06-05_12h41.09.595,TranslationElicitation_eng-prolific,3.2.4,MacIntel,60,5ed0d7a61cb3e101dc72f93e,,1,0,81,22,1,80
,,,,,,,,,,,,,,,,,,,,,,,,,,,,,,,,,,,,,,,,,,y,2.75,Y,FALSE,,,,,,,124,cirera,Catalan,Sounds/cat_cirera.mp3,2020-06-05_12h41.09.595,TranslationElicitation_eng-prolific,3.2.4,MacIntel,60,5ed0d7a61cb3e101dc72f93e,,1,0,81,19,1,80
,,,,,,,,,,,,,,,,,,,,,,,,,,,,,,,,,,,,,,,,,,e,2.898999929,YE,FALSE,,,,,,,124,cirera,Catalan,Sounds/cat_cirera.mp3,2020-06-05_12h41.09.595,TranslationElicitation_eng-prolific,3.2.4,MacIntel,60,5ed0d7a61cb3e101dc72f93e,,1,0,81,19,1,80
,,,,,,,,,,,,,,,,,,,,,,,,,,,,,,,,,,,,,,,,,,l,3.049999952,YEL,FALSE,,,,,,,124,cirera,Catalan,Sounds/cat_cirera.mp3,2020-06-05_12h41.09.595,TranslationElicitation_eng-prolific,3.2.4,MacIntel,60,5ed0d7a61cb3e101dc72f93e,,1,0,81,19,1,80
,,,,,,,,,,,,,,,,,,,,,,,,,,,,,,,,,,,,,,,,,,l,3.247999907,YELL,FALSE,,,,,,,124,cirera,Catalan,Sounds/cat_cirera.mp3,2020-06-05_12h41.09.595,TranslationElicitation_eng-prolific,3.2.4,MacIntel,60,5ed0d7a61cb3e101dc72f93e,,1,0,81,19,1,80
,,,,,,,,,,,,,,,,,,,,,,,,,,,,,,,,,,,,,,,,,,o,3.382999897,YELLO,FALSE,,,,,,,124,cirera,Catalan,Sounds/cat_cirera.mp3,2020-06-05_12h41.09.595,TranslationElicitation_eng-prolific,3.2.4,MacIntel,60,5ed0d7a61cb3e101dc72f93e,,1,0,81,19,1,80
,,,,,,,,,,,,,,,,,,,,,,,,,,,,,,,,,,,,,,,,,,w,3.471999884,YELLOW,FALSE,,,,,,,124,cirera,Catalan,Sounds/cat_cirera.mp3,2020-06-05_12h41.09.595,TranslationElicitation_eng-prolific,3.2.4,MacIntel,60,5ed0d7a61cb3e101dc72f93e,,1,0,81,19,1,80
,,,,,,,,,,,,,,,,,,,,,,,,,,,,,,,,,,,,,,,,,,return,3.568000078,YELLOW,FALSE,,,,,,,124,cirera,Catalan,Sounds/cat_cirera.mp3,2020-06-05_12h41.09.595,TranslationElicitation_eng-prolific,3.2.4,MacIntel,60,5ed0d7a61cb3e101dc72f93e,3.568000078,1,0,81,19,1,80
,,,,,,,,,,,,,,,,,,,,,,,,,,,,,,,,,,,,,,,,,,,,,,,,,,,,124,cirera,Catalan,Sounds/cat_cirera.mp3,2020-06-05_12h41.09.595,TranslationElicitation_eng-prolific,3.2.4,MacIntel,60,5ed0d7a61cb3e101dc72f93e,,1,0,81,19,1,80
,,,,,,,,,,,,,,,,,,,,,,,,,,,,,,,,,,,,,,,,,,c,1.969000101,C,FALSE,,,,,,,135,formiga,Catalan,Sounds/cat_formiga.mp3,2020-06-05_12h41.09.595,TranslationElicitation_eng-prolific,3.2.4,MacIntel,60,5ed0d7a61cb3e101dc72f93e,,1,0,81,29,1,80
,,,,,,,,,,,,,,,,,,,,,,,,,,,,,,,,,,,,,,,,,,h,2.119000196,CH,FALSE,,,,,,,135,formiga,Catalan,Sounds/cat_formiga.mp3,2020-06-05_12h41.09.595,TranslationElicitation_eng-prolific,3.2.4,MacIntel,60,5ed0d7a61cb3e101dc72f93e,,1,0,81,29,1,80
,,,,,,,,,,,,,,,,,,,,,,,,,,,,,,,,,,,,,,,,,,e,2.186000109,CHE,FALSE,,,,,,,135,formiga,Catalan,Sounds/cat_formiga.mp3,2020-06-05_12h41.09.595,TranslationElicitation_eng-prolific,3.2.4,MacIntel,60,5ed0d7a61cb3e101dc72f93e,,1,0,81,29,1,80
,,,,,,,,,,,,,,,,,,,,,,,,,,,,,,,,,,,,,,,,,,e,2.334000111,CHEE,FALSE,,,,,,,135,formiga,Catalan,Sounds/cat_formiga.mp3,2020-06-05_12h41.09.595,TranslationElicitation_eng-prolific,3.2.4,MacIntel,60,5ed0d7a61cb3e101dc72f93e,,1,0,81,29,1,80
,,,,,,,,,,,,,,,,,,,,,,,,,,,,,,,,,,,,,,,,,,s,2.504000187,CHEES,FALSE,,,,,,,135,formiga,Catalan,Sounds/cat_formiga.mp3,2020-06-05_12h41.09.595,TranslationElicitation_eng-prolific,3.2.4,MacIntel,60,5ed0d7a61cb3e101dc72f93e,,1,0,81,29,1,80
,,,,,,,,,,,,,,,,,,,,,,,,,,,,,,,,,,,,,,,,,,e,2.650000095,CHEESE,FALSE,,,,,,,135,formiga,Catalan,Sounds/cat_formiga.mp3,2020-06-05_12h41.09.595,TranslationElicitation_eng-prolific,3.2.4,MacIntel,60,5ed0d7a61cb3e101dc72f93e,,1,0,81,29,1,80
,,,,,,,,,,,,,,,,,,,,,,,,,,,,,,,,,,,,,,,,,,return,2.702000141,CHEESE,FALSE,,,,,,,135,formiga,Catalan,Sounds/cat_formiga.mp3,2020-06-05_12h41.09.595,TranslationElicitation_eng-prolific,3.2.4,MacIntel,60,5ed0d7a61cb3e101dc72f93e,2.702000141,1,0,81,29,1,80
,,,,,,,,,,,,,,,,,,,,,,,,,,,,,,,,,,,,,,,,,,,,,,,,,,,,135,formiga,Catalan,Sounds/cat_formiga.mp3,2020-06-05_12h41.09.595,TranslationElicitation_eng-prolific,3.2.4,MacIntel,60,5ed0d7a61cb3e101dc72f93e,,1,0,81,29,1,80
,,,,,,,,,,,,,,,,,,,,,,,,,,,,,,,,,,,,,,,,,,b,2.083999872,B,FALSE,,,,,,,114,bol,Catalan,Sounds/cat_bol.mp3,2020-06-05_12h41.09.595,TranslationElicitation_eng-prolific,3.2.4,MacIntel,60,5ed0d7a61cb3e101dc72f93e,,1,0,81,9,1,80
,,,,,,,,,,,,,,,,,,,,,,,,,,,,,,,,,,,,,,,,,,a,2.386999846,BA,FALSE,,,,,,,114,bol,Catalan,Sounds/cat_bol.mp3,2020-06-05_12h41.09.595,TranslationElicitation_eng-prolific,3.2.4,MacIntel,60,5ed0d7a61cb3e101dc72f93e,,1,0,81,9,1,80
,,,,,,,,,,,,,,,,,,,,,,,,,,,,,,,,,,,,,,,,,,l,2.501999855,BAL,FALSE,,,,,,,114,bol,Catalan,Sounds/cat_bol.mp3,2020-06-05_12h41.09.595,TranslationElicitation_eng-prolific,3.2.4,MacIntel,60,5ed0d7a61cb3e101dc72f93e,,1,0,81,9,1,80
,,,,,,,,,,,,,,,,,,,,,,,,,,,,,,,,,,,,,,,,,,l,2.986999989,BALL,FALSE,,,,,,,114,bol,Catalan,Sounds/cat_bol.mp3,2020-06-05_12h41.09.595,TranslationElicitation_eng-prolific,3.2.4,MacIntel,60,5ed0d7a61cb3e101dc72f93e,,1,0,81,9,1,80
,,,,,,,,,,,,,,,,,,,,,,,,,,,,,,,,,,,,,,,,,,return,3.150999784,BALL,FALSE,,,,,,,114,bol,Catalan,Sounds/cat_bol.mp3,2020-06-05_12h41.09.595,TranslationElicitation_eng-prolific,3.2.4,MacIntel,60,5ed0d7a61cb3e101dc72f93e,3.150999784,1,0,81,9,1,80
,,,,,,,,,,,,,,,,,,,,,,,,,,,,,,,,,,,,,,,,,,,,,,,,,,,,114,bol,Catalan,Sounds/cat_bol.mp3,2020-06-05_12h41.09.595,TranslationElicitation_eng-prolific,3.2.4,MacIntel,60,5ed0d7a61cb3e101dc72f93e,,1,0,81,9,1,80
,,,,,,,,,,,,,,,,,,,,,,,,,,,,,,,,,,,,,,,,,,return,1.447000027,,FALSE,,,,,,,185,ulleres,Catalan,Sounds/cat_ulleres.mp3,2020-06-05_12h41.09.595,TranslationElicitation_eng-prolific,3.2.4,MacIntel,60,5ed0d7a61cb3e101dc72f93e,1.447000027,1,0,81,76,1,80
,,,,,,,,,,,,,,,,,,,,,,,,,,,,,,,,,,,,,,,,,,,,,,,,,,,,185,ulleres,Catalan,Sounds/cat_ulleres.mp3,2020-06-05_12h41.09.595,TranslationElicitation_eng-prolific,3.2.4,MacIntel,60,5ed0d7a61cb3e101dc72f93e,,1,0,81,76,1,80
,,,,,,,,,,,,,,,,,,,,,,,,,,,,,,,,,,,,,,,,,,t,2.151000023,T,FALSE,,,,,,,163,papallona,Catalan,Sounds/cat_papallona.mp3,2020-06-05_12h41.09.595,TranslationElicitation_eng-prolific,3.2.4,MacIntel,60,5ed0d7a61cb3e101dc72f93e,,1,0,81,55,1,80
,,,,,,,,,,,,,,,,,,,,,,,,,,,,,,,,,,,,,,,,,,r,2.30099988,TR,FALSE,,,,,,,163,papallona,Catalan,Sounds/cat_papallona.mp3,2020-06-05_12h41.09.595,TranslationElicitation_eng-prolific,3.2.4,MacIntel,60,5ed0d7a61cb3e101dc72f93e,,1,0,81,55,1,80
,,,,,,,,,,,,,,,,,,,,,,,,,,,,,,,,,,,,,,,,,,o,2.651000023,TRO,FALSE,,,,,,,163,papallona,Catalan,Sounds/cat_papallona.mp3,2020-06-05_12h41.09.595,TranslationElicitation_eng-prolific,3.2.4,MacIntel,60,5ed0d7a61cb3e101dc72f93e,,1,0,81,55,1,80
,,,,,,,,,,,,,,,,,,,,,,,,,,,,,,,,,,,,,,,,,,u,2.736000061,TROU,FALSE,,,,,,,163,papallona,Catalan,Sounds/cat_papallona.mp3,2020-06-05_12h41.09.595,TranslationElicitation_eng-prolific,3.2.4,MacIntel,60,5ed0d7a61cb3e101dc72f93e,,1,0,81,55,1,80
,,,,,,,,,,,,,,,,,,,,,,,,,,,,,,,,,,,,,,,,,,s,2.802000046,TROUS,FALSE,,,,,,,163,papallona,Catalan,Sounds/cat_papallona.mp3,2020-06-05_12h41.09.595,TranslationElicitation_eng-prolific,3.2.4,MacIntel,60,5ed0d7a61cb3e101dc72f93e,,1,0,81,55,1,80
,,,,,,,,,,,,,,,,,,,,,,,,,,,,,,,,,,,,,,,,,,e,2.950000048,TROUSE,FALSE,,,,,,,163,papallona,Catalan,Sounds/cat_papallona.mp3,2020-06-05_12h41.09.595,TranslationElicitation_eng-prolific,3.2.4,MacIntel,60,5ed0d7a61cb3e101dc72f93e,,1,0,81,55,1,80
,,,,,,,,,,,,,,,,,,,,,,,,,,,,,,,,,,,,,,,,,,r,3.105000019,TROUSER,FALSE,,,,,,,163,papallona,Catalan,Sounds/cat_papallona.mp3,2020-06-05_12h41.09.595,TranslationElicitation_eng-prolific,3.2.4,MacIntel,60,5ed0d7a61cb3e101dc72f93e,,1,0,81,55,1,80
,,,,,,,,,,,,,,,,,,,,,,,,,,,,,,,,,,,,,,,,,,return,3.190000057,TROUSER,FALSE,,,,,,,163,papallona,Catalan,Sounds/cat_papallona.mp3,2020-06-05_12h41.09.595,TranslationElicitation_eng-prolific,3.2.4,MacIntel,60,5ed0d7a61cb3e101dc72f93e,3.190000057,1,0,81,55,1,80
,,,,,,,,,,,,,,,,,,,,,,,,,,,,,,,,,,,,,,,,,,,,,,,,,,,,163,papallona,Catalan,Sounds/cat_papallona.mp3,2020-06-05_12h41.09.595,TranslationElicitation_eng-prolific,3.2.4,MacIntel,60,5ed0d7a61cb3e101dc72f93e,,1,0,81,55,1,80
,,,,,,,,,,,,,,,,,,,,,,,,,,,,,,,,,,,,,,,,,,c,3,C,FALSE,,,,,,,125,colom,Catalan,Sounds/cat_colom.mp3,2020-06-05_12h41.09.595,TranslationElicitation_eng-prolific,3.2.4,MacIntel,60,5ed0d7a61cb3e101dc72f93e,,1,0,81,20,1,80
,,,,,,,,,,,,,,,,,,,,,,,,,,,,,,,,,,,,,,,,,,o,3.149999857,CO,FALSE,,,,,,,125,colom,Catalan,Sounds/cat_colom.mp3,2020-06-05_12h41.09.595,TranslationElicitation_eng-prolific,3.2.4,MacIntel,60,5ed0d7a61cb3e101dc72f93e,,1,0,81,20,1,80
,,,,,,,,,,,,,,,,,,,,,,,,,,,,,,,,,,,,,,,,,,m,3.200999975,COM,FALSE,,,,,,,125,colom,Catalan,Sounds/cat_colom.mp3,2020-06-05_12h41.09.595,TranslationElicitation_eng-prolific,3.2.4,MacIntel,60,5ed0d7a61cb3e101dc72f93e,,1,0,81,20,1,80
,,,,,,,,,,,,,,,,,,,,,,,,,,,,,,,,,,,,,,,,,,b,3.299999952,COMB,FALSE,,,,,,,125,colom,Catalan,Sounds/cat_colom.mp3,2020-06-05_12h41.09.595,TranslationElicitation_eng-prolific,3.2.4,MacIntel,60,5ed0d7a61cb3e101dc72f93e,,1,0,81,20,1,80
,,,,,,,,,,,,,,,,,,,,,,,,,,,,,,,,,,,,,,,,,,return,3.417000055,COMB,FALSE,,,,,,,125,colom,Catalan,Sounds/cat_colom.mp3,2020-06-05_12h41.09.595,TranslationElicitation_eng-prolific,3.2.4,MacIntel,60,5ed0d7a61cb3e101dc72f93e,3.417000055,1,0,81,20,1,80
,,,,,,,,,,,,,,,,,,,,,,,,,,,,,,,,,,,,,,,,,,,,,,,,,,,,125,colom,Catalan,Sounds/cat_colom.mp3,2020-06-05_12h41.09.595,TranslationElicitation_eng-prolific,3.2.4,MacIntel,60,5ed0d7a61cb3e101dc72f93e,,1,0,81,20,1,80
,,,,,,,,,,,,,,,,,,,,,,,,,,,,,,,,,,,,,,,,,,return,3.414999962,,FALSE,,,,,,,123,cavall,Catalan,Sounds/cat_cavall.mp3,2020-06-05_12h41.09.595,TranslationElicitation_eng-prolific,3.2.4,MacIntel,60,5ed0d7a61cb3e101dc72f93e,3.414999962,1,0,81,18,1,80
,,,,,,,,,,,,,,,,,,,,,,,,,,,,,,,,,,,,,,,,,,,,,,,,,,,,123,cavall,Catalan,Sounds/cat_cavall.mp3,2020-06-05_12h41.09.595,TranslationElicitation_eng-prolific,3.2.4,MacIntel,60,5ed0d7a61cb3e101dc72f93e,,1,0,81,18,1,80
,,,,,,,,,,,,,,,,,,,,,,,,,,,,,,,,,,,,,,,,,,return,2.217000008,,FALSE,,,,,,,180,tisores,Catalan,Sounds/cat_tisores.mp3,2020-06-05_12h41.09.595,TranslationElicitation_eng-prolific,3.2.4,MacIntel,60,5ed0d7a61cb3e101dc72f93e,2.217000008,1,0,81,71,1,80
,,,,,,,,,,,,,,,,,,,,,,,,,,,,,,,,,,,,,,,,,,,,,,,,,,,,180,tisores,Catalan,Sounds/cat_tisores.mp3,2020-06-05_12h41.09.595,TranslationElicitation_eng-prolific,3.2.4,MacIntel,60,5ed0d7a61cb3e101dc72f93e,,1,0,81,71,1,80
,,,,,,,,,,,,,,,,,,,,,,,,,,,,,,,,,,,,,,,,,,c,1.302000046,C,FALSE,,,,,,,188,xocolata,Catalan,Sounds/cat_xocolata.mp3,2020-06-05_12h41.09.595,TranslationElicitation_eng-prolific,3.2.4,MacIntel,60,5ed0d7a61cb3e101dc72f93e,,1,0,81,79,1,80
,,,,,,,,,,,,,,,,,,,,,,,,,,,,,,,,,,,,,,,,,,h,1.368000031,CH,FALSE,,,,,,,188,xocolata,Catalan,Sounds/cat_xocolata.mp3,2020-06-05_12h41.09.595,TranslationElicitation_eng-prolific,3.2.4,MacIntel,60,5ed0d7a61cb3e101dc72f93e,,1,0,81,79,1,80
,,,,,,,,,,,,,,,,,,,,,,,,,,,,,,,,,,,,,,,,,,o,1.434000015,CHO,FALSE,,,,,,,188,xocolata,Catalan,Sounds/cat_xocolata.mp3,2020-06-05_12h41.09.595,TranslationElicitation_eng-prolific,3.2.4,MacIntel,60,5ed0d7a61cb3e101dc72f93e,,1,0,81,79,1,80
,,,,,,,,,,,,,,,,,,,,,,,,,,,,,,,,,,,,,,,,,,c,1.55099988,CHOC,FALSE,,,,,,,188,xocolata,Catalan,Sounds/cat_xocolata.mp3,2020-06-05_12h41.09.595,TranslationElicitation_eng-prolific,3.2.4,MacIntel,60,5ed0d7a61cb3e101dc72f93e,,1,0,81,79,1,80
,,,,,,,,,,,,,,,,,,,,,,,,,,,,,,,,,,,,,,,,,,o,1.654999971,CHOCO,FALSE,,,,,,,188,xocolata,Catalan,Sounds/cat_xocolata.mp3,2020-06-05_12h41.09.595,TranslationElicitation_eng-prolific,3.2.4,MacIntel,60,5ed0d7a61cb3e101dc72f93e,,1,0,81,79,1,80
,,,,,,,,,,,,,,,,,,,,,,,,,,,,,,,,,,,,,,,,,,l,1.904999971,CHOCOL,FALSE,,,,,,,188,xocolata,Catalan,Sounds/cat_xocolata.mp3,2020-06-05_12h41.09.595,TranslationElicitation_eng-prolific,3.2.4,MacIntel,60,5ed0d7a61cb3e101dc72f93e,,1,0,81,79,1,80
,,,,,,,,,,,,,,,,,,,,,,,,,,,,,,,,,,,,,,,,,,a,1.983999968,CHOCOLA,FALSE,,,,,,,188,xocolata,Catalan,Sounds/cat_xocolata.mp3,2020-06-05_12h41.09.595,TranslationElicitation_eng-prolific,3.2.4,MacIntel,60,5ed0d7a61cb3e101dc72f93e,,1,0,81,79,1,80
,,,,,,,,,,,,,,,,,,,,,,,,,,,,,,,,,,,,,,,,,,t,2.323999882,CHOCOLAT,FALSE,,,,,,,188,xocolata,Catalan,Sounds/cat_xocolata.mp3,2020-06-05_12h41.09.595,TranslationElicitation_eng-prolific,3.2.4,MacIntel,60,5ed0d7a61cb3e101dc72f93e,,1,0,81,79,1,80
,,,,,,,,,,,,,,,,,,,,,,,,,,,,,,,,,,,,,,,,,,e,2.820999861,CHOCOLATE,FALSE,,,,,,,188,xocolata,Catalan,Sounds/cat_xocolata.mp3,2020-06-05_12h41.09.595,TranslationElicitation_eng-prolific,3.2.4,MacIntel,60,5ed0d7a61cb3e101dc72f93e,,1,0,81,79,1,80
,,,,,,,,,,,,,,,,,,,,,,,,,,,,,,,,,,,,,,,,,,return,3.335000038,CHOCOLATE,FALSE,,,,,,,188,xocolata,Catalan,Sounds/cat_xocolata.mp3,2020-06-05_12h41.09.595,TranslationElicitation_eng-prolific,3.2.4,MacIntel,60,5ed0d7a61cb3e101dc72f93e,3.335000038,1,0,81,79,1,80
,,,,,,,,,,,,,,,,,,,,,,,,,,,,,,,,,,,,,,,,,,,,,,,,,,,,188,xocolata,Catalan,Sounds/cat_xocolata.mp3,2020-06-05_12h41.09.595,TranslationElicitation_eng-prolific,3.2.4,MacIntel,60,5ed0d7a61cb3e101dc72f93e,,1,0,81,79,1,80
,,,,,,,,,,,,,,,,,,,,,,,,,,,,,,,,,,,,,,,,,,m,4.333999872,M,FALSE,,,,,,,153,mico,Catalan,Sounds/cat_mico.mp3,2020-06-05_12h41.09.595,TranslationElicitation_eng-prolific,3.2.4,MacIntel,60,5ed0d7a61cb3e101dc72f93e,,1,0,81,46,1,80
,,,,,,,,,,,,,,,,,,,,,,,,,,,,,,,,,,,,,,,,,,o,4.585999966,MO,FALSE,,,,,,,153,mico,Catalan,Sounds/cat_mico.mp3,2020-06-05_12h41.09.595,TranslationElicitation_eng-prolific,3.2.4,MacIntel,60,5ed0d7a61cb3e101dc72f93e,,1,0,81,46,1,80
,,,,,,,,,,,,,,,,,,,,,,,,,,,,,,,,,,,,,,,,,,u,4.71999979,MOU,FALSE,,,,,,,153,mico,Catalan,Sounds/cat_mico.mp3,2020-06-05_12h41.09.595,TranslationElicitation_eng-prolific,3.2.4,MacIntel,60,5ed0d7a61cb3e101dc72f93e,,1,0,81,46,1,80
,,,,,,,,,,,,,,,,,,,,,,,,,,,,,,,,,,,,,,,,,,s,4.790999889,MOUS,FALSE,,,,,,,153,mico,Catalan,Sounds/cat_mico.mp3,2020-06-05_12h41.09.595,TranslationElicitation_eng-prolific,3.2.4,MacIntel,60,5ed0d7a61cb3e101dc72f93e,,1,0,81,46,1,80
,,,,,,,,,,,,,,,,,,,,,,,,,,,,,,,,,,,,,,,,,,e,4.981999874,MOUSE,FALSE,,,,,,,153,mico,Catalan,Sounds/cat_mico.mp3,2020-06-05_12h41.09.595,TranslationElicitation_eng-prolific,3.2.4,MacIntel,60,5ed0d7a61cb3e101dc72f93e,,1,0,81,46,1,80
,,,,,,,,,,,,,,,,,,,,,,,,,,,,,,,,,,,,,,,,,,return,5.082999945,MOUSE,FALSE,,,,,,,153,mico,Catalan,Sounds/cat_mico.mp3,2020-06-05_12h41.09.595,TranslationElicitation_eng-prolific,3.2.4,MacIntel,60,5ed0d7a61cb3e101dc72f93e,5.082999945,1,0,81,46,1,80
,,,,,,,,,,,,,,,,,,,,,,,,,,,,,,,,,,,,,,,,,,,,,,,,,,,,153,mico,Catalan,Sounds/cat_mico.mp3,2020-06-05_12h41.09.595,TranslationElicitation_eng-prolific,3.2.4,MacIntel,60,5ed0d7a61cb3e101dc72f93e,,1,0,81,46,1,80
,,,,,,,,,,,,,,,,,,,,,,,,,,,,,,,,,,,,,,,,,,return,2.515000105,,FALSE,,,,,,,141,gerd,Catalan,Sounds/cat_gerd.mp3,2020-06-05_12h41.09.595,TranslationElicitation_eng-prolific,3.2.4,MacIntel,60,5ed0d7a61cb3e101dc72f93e,2.515000105,1,0,81,35,1,80
,,,,,,,,,,,,,,,,,,,,,,,,,,,,,,,,,,,,,,,,,,,,,,,,,,,,141,gerd,Catalan,Sounds/cat_gerd.mp3,2020-06-05_12h41.09.595,TranslationElicitation_eng-prolific,3.2.4,MacIntel,60,5ed0d7a61cb3e101dc72f93e,,1,0,81,35,1,80
,,,,,,,,,,,,,,,,,,,,,,,,,,,,,,,,,,,,,,,,,,b,2.201999903,B,FALSE,,,,,,,110,berenar,Catalan,Sounds/cat_berenar.mp3,2020-06-05_12h41.09.595,TranslationElicitation_eng-prolific,3.2.4,MacIntel,60,5ed0d7a61cb3e101dc72f93e,,1,0,81,5,1,80
,,,,,,,,,,,,,,,,,,,,,,,,,,,,,,,,,,,,,,,,,,r,3.536999941,BR,FALSE,,,,,,,110,berenar,Catalan,Sounds/cat_berenar.mp3,2020-06-05_12h41.09.595,TranslationElicitation_eng-prolific,3.2.4,MacIntel,60,5ed0d7a61cb3e101dc72f93e,,1,0,81,5,1,80
,,,,,,,,,,,,,,,,,,,,,,,,,,,,,,,,,,,,,,,,,,e,3.667999983,BRE,FALSE,,,,,,,110,berenar,Catalan,Sounds/cat_berenar.mp3,2020-06-05_12h41.09.595,TranslationElicitation_eng-prolific,3.2.4,MacIntel,60,5ed0d7a61cb3e101dc72f93e,,1,0,81,5,1,80
,,,,,,,,,,,,,,,,,,,,,,,,,,,,,,,,,,,,,,,,,,a,3.854000092,BREA,FALSE,,,,,,,110,berenar,Catalan,Sounds/cat_berenar.mp3,2020-06-05_12h41.09.595,TranslationElicitation_eng-prolific,3.2.4,MacIntel,60,5ed0d7a61cb3e101dc72f93e,,1,0,81,5,1,80
,,,,,,,,,,,,,,,,,,,,,,,,,,,,,,,,,,,,,,,,,,d,4.020999908,BREAD,FALSE,,,,,,,110,berenar,Catalan,Sounds/cat_berenar.mp3,2020-06-05_12h41.09.595,TranslationElicitation_eng-prolific,3.2.4,MacIntel,60,5ed0d7a61cb3e101dc72f93e,,1,0,81,5,1,80
,,,,,,,,,,,,,,,,,,,,,,,,,,,,,,,,,,,,,,,,,,return,4.09100008,BREAD,FALSE,,,,,,,110,berenar,Catalan,Sounds/cat_berenar.mp3,2020-06-05_12h41.09.595,TranslationElicitation_eng-prolific,3.2.4,MacIntel,60,5ed0d7a61cb3e101dc72f93e,4.09100008,1,0,81,5,1,80
,,,,,,,,,,,,,,,,,,,,,,,,,,,,,,,,,,,,,,,,,,,,,,,,,,,,110,berenar,Catalan,Sounds/cat_berenar.mp3,2020-06-05_12h41.09.595,TranslationElicitation_eng-prolific,3.2.4,MacIntel,60,5ed0d7a61cb3e101dc72f93e,,1,0,81,5,1,80
,,,,,,,,,,,,,,,,,,,,,,,,,,,,,,,,,,,,,,,,,,return,3.363999844,,FALSE,,,,,,,183,tren,Catalan,Sounds/cat_tren.mp3,2020-06-05_12h41.09.595,TranslationElicitation_eng-prolific,3.2.4,MacIntel,60,5ed0d7a61cb3e101dc72f93e,3.363999844,1,0,81,74,1,80
,,,,,,,,,,,,,,,,,,,,,,,,,,,,,,,,,,,,,,,,,,,,,,,,,,,,183,tren,Catalan,Sounds/cat_tren.mp3,2020-06-05_12h41.09.595,TranslationElicitation_eng-prolific,3.2.4,MacIntel,60,5ed0d7a61cb3e101dc72f93e,,1,0,81,74,1,80
,,,,,,,,,,,,,,,,,,,,,,,,,,,,,,,,,,,,,,,,,,return,4.06799984,,FALSE,,,,,,,115,bolet,Catalan,Sounds/cat_bolet.mp3,2020-06-05_12h41.09.595,TranslationElicitation_eng-prolific,3.2.4,MacIntel,60,5ed0d7a61cb3e101dc72f93e,4.06799984,1,0,81,10,1,80
,,,,,,,,,,,,,,,,,,,,,,,,,,,,,,,,,,,,,,,,,,,,,,,,,,,,115,bolet,Catalan,Sounds/cat_bolet.mp3,2020-06-05_12h41.09.595,TranslationElicitation_eng-prolific,3.2.4,MacIntel,60,5ed0d7a61cb3e101dc72f93e,,1,0,81,10,1,80
,,,,,,,,,,,,,,,,,,,,,,,,,,,,,,,,,,,,,,,,,,o,4.148999929,O,FALSE,,,,,,,186,ungla,Catalan,Sounds/cat_ungla.mp3,2020-06-05_12h41.09.595,TranslationElicitation_eng-prolific,3.2.4,MacIntel,60,5ed0d7a61cb3e101dc72f93e,,1,0,81,77,1,80
,,,,,,,,,,,,,,,,,,,,,,,,,,,,,,,,,,,,,,,,,,p,4.203000069,OP,FALSE,,,,,,,186,ungla,Catalan,Sounds/cat_ungla.mp3,2020-06-05_12h41.09.595,TranslationElicitation_eng-prolific,3.2.4,MacIntel,60,5ed0d7a61cb3e101dc72f93e,,1,0,81,77,1,80
,,,,,,,,,,,,,,,,,,,,,,,,,,,,,,,,,,,,,,,,,,e,4.236999989,OPE,FALSE,,,,,,,186,ungla,Catalan,Sounds/cat_ungla.mp3,2020-06-05_12h41.09.595,TranslationElicitation_eng-prolific,3.2.4,MacIntel,60,5ed0d7a61cb3e101dc72f93e,,1,0,81,77,1,80
,,,,,,,,,,,,,,,,,,,,,,,,,,,,,,,,,,,,,,,,,,n,4.39199996,OPEN,FALSE,,,,,,,186,ungla,Catalan,Sounds/cat_ungla.mp3,2020-06-05_12h41.09.595,TranslationElicitation_eng-prolific,3.2.4,MacIntel,60,5ed0d7a61cb3e101dc72f93e,,1,0,81,77,1,80
,,,,,,,,,,,,,,,,,,,,,,,,,,,,,,,,,,,,,,,,,,return,4.584000111,OPEN,FALSE,,,,,,,186,ungla,Catalan,Sounds/cat_ungla.mp3,2020-06-05_12h41.09.595,TranslationElicitation_eng-prolific,3.2.4,MacIntel,60,5ed0d7a61cb3e101dc72f93e,4.584000111,1,0,81,77,1,80
,,,,,,,,,,,,,,,,,,,,,,,,,,,,,,,,,,,,,,,,,,,,,,,,,,,,186,ungla,Catalan,Sounds/cat_ungla.mp3,2020-06-05_12h41.09.595,TranslationElicitation_eng-prolific,3.2.4,MacIntel,60,5ed0d7a61cb3e101dc72f93e,,1,0,81,77,1,80
,,,,,,,,,,,,,,,,,,,,,,,,,,,,,,,,,,,,,,,,,,b,3.654999971,B,FALSE,,,,,,,117,boto,Catalan,Sounds/cat_boto.mp3,2020-06-05_12h41.09.595,TranslationElicitation_eng-prolific,3.2.4,MacIntel,60,5ed0d7a61cb3e101dc72f93e,,1,0,81,12,1,80
,,,,,,,,,,,,,,,,,,,,,,,,,,,,,,,,,,,,,,,,,,o,3.715999842,BO,FALSE,,,,,,,117,boto,Catalan,Sounds/cat_boto.mp3,2020-06-05_12h41.09.595,TranslationElicitation_eng-prolific,3.2.4,MacIntel,60,5ed0d7a61cb3e101dc72f93e,,1,0,81,12,1,80
,,,,,,,,,,,,,,,,,,,,,,,,,,,,,,,,,,,,,,,,,,t,3.849999905,BOT,FALSE,,,,,,,117,boto,Catalan,Sounds/cat_boto.mp3,2020-06-05_12h41.09.595,TranslationElicitation_eng-prolific,3.2.4,MacIntel,60,5ed0d7a61cb3e101dc72f93e,,1,0,81,12,1,80
,,,,,,,,,,,,,,,,,,,,,,,,,,,,,,,,,,,,,,,,,,t,4,BOTT,FALSE,,,,,,,117,boto,Catalan,Sounds/cat_boto.mp3,2020-06-05_12h41.09.595,TranslationElicitation_eng-prolific,3.2.4,MacIntel,60,5ed0d7a61cb3e101dc72f93e,,1,0,81,12,1,80
,,,,,,,,,,,,,,,,,,,,,,,,,,,,,,,,,,,,,,,,,,l,4.064999819,BOTTL,FALSE,,,,,,,117,boto,Catalan,Sounds/cat_boto.mp3,2020-06-05_12h41.09.595,TranslationElicitation_eng-prolific,3.2.4,MacIntel,60,5ed0d7a61cb3e101dc72f93e,,1,0,81,12,1,80
,,,,,,,,,,,,,,,,,,,,,,,,,,,,,,,,,,,,,,,,,,e,4.20299983,BOTTLE,FALSE,,,,,,,117,boto,Catalan,Sounds/cat_boto.mp3,2020-06-05_12h41.09.595,TranslationElicitation_eng-prolific,3.2.4,MacIntel,60,5ed0d7a61cb3e101dc72f93e,,1,0,81,12,1,80
,,,,,,,,,,,,,,,,,,,,,,,,,,,,,,,,,,,,,,,,,,return,4.304999828,BOTTLE,FALSE,,,,,,,117,boto,Catalan,Sounds/cat_boto.mp3,2020-06-05_12h41.09.595,TranslationElicitation_eng-prolific,3.2.4,MacIntel,60,5ed0d7a61cb3e101dc72f93e,4.304999828,1,0,81,12,1,80
,,,,,,,,,,,,,,,,,,,,,,,,,,,,,,,,,,,,,,,,,,,,,,,,,,,,117,boto,Catalan,Sounds/cat_boto.mp3,2020-06-05_12h41.09.595,TranslationElicitation_eng-prolific,3.2.4,MacIntel,60,5ed0d7a61cb3e101dc72f93e,,1,0,81,12,1,80
,,,,,,,,,,,,,,,,,,,,,,,,,,,,,,,,,,,,,,,,,,return,2.710999966,,FALSE,,,,,,,176,samarreta,Catalan,Sounds/cat_samarreta.mp3,2020-06-05_12h41.09.595,TranslationElicitation_eng-prolific,3.2.4,MacIntel,60,5ed0d7a61cb3e101dc72f93e,2.710999966,1,0,81,68,1,80
,,,,,,,,,,,,,,,,,,,,,,,,,,,,,,,,,,,,,,,,,,,,,,,,,,,,176,samarreta,Catalan,Sounds/cat_samarreta.mp3,2020-06-05_12h41.09.595,TranslationElicitation_eng-prolific,3.2.4,MacIntel,60,5ed0d7a61cb3e101dc72f93e,,1,0,81,68,1,80
,,,,,,,,,,,,,,,,,,,,,,,,,,,,,,,,,,,,,,,,,,c,1.713000059,C,FALSE,,,,,,,106,aixeta,Catalan,Sounds/cat_aixeta.mp3,2020-06-05_12h41.09.595,TranslationElicitation_eng-prolific,3.2.4,MacIntel,60,5ed0d7a61cb3e101dc72f93e,,1,0,81,2,1,80
,,,,,,,,,,,,,,,,,,,,,,,,,,,,,,,,,,,,,,,,,,h,1.828999996,CH,FALSE,,,,,,,106,aixeta,Catalan,Sounds/cat_aixeta.mp3,2020-06-05_12h41.09.595,TranslationElicitation_eng-prolific,3.2.4,MacIntel,60,5ed0d7a61cb3e101dc72f93e,,1,0,81,2,1,80
,,,,,,,,,,,,,,,,,,,,,,,,,,,,,,,,,,,,,,,,,,a,1.948000193,CHA,FALSE,,,,,,,106,aixeta,Catalan,Sounds/cat_aixeta.mp3,2020-06-05_12h41.09.595,TranslationElicitation_eng-prolific,3.2.4,MacIntel,60,5ed0d7a61cb3e101dc72f93e,,1,0,81,2,1,80
,,,,,,,,,,,,,,,,,,,,,,,,,,,,,,,,,,,,,,,,,,i,2.080000162,CHAI,FALSE,,,,,,,106,aixeta,Catalan,Sounds/cat_aixeta.mp3,2020-06-05_12h41.09.595,TranslationElicitation_eng-prolific,3.2.4,MacIntel,60,5ed0d7a61cb3e101dc72f93e,,1,0,81,2,1,80
,,,,,,,,,,,,,,,,,,,,,,,,,,,,,,,,,,,,,,,,,,r,2.246000051,CHAIR,FALSE,,,,,,,106,aixeta,Catalan,Sounds/cat_aixeta.mp3,2020-06-05_12h41.09.595,TranslationElicitation_eng-prolific,3.2.4,MacIntel,60,5ed0d7a61cb3e101dc72f93e,,1,0,81,2,1,80
,,,,,,,,,,,,,,,,,,,,,,,,,,,,,,,,,,,,,,,,,,return,2.529000044,CHAIR,FALSE,,,,,,,106,aixeta,Catalan,Sounds/cat_aixeta.mp3,2020-06-05_12h41.09.595,TranslationElicitation_eng-prolific,3.2.4,MacIntel,60,5ed0d7a61cb3e101dc72f93e,2.529000044,1,0,81,2,1,80
,,,,,,,,,,,,,,,,,,,,,,,,,,,,,,,,,,,,,,,,,,,,,,,,,,,,106,aixeta,Catalan,Sounds/cat_aixeta.mp3,2020-06-05_12h41.09.595,TranslationElicitation_eng-prolific,3.2.4,MacIntel,60,5ed0d7a61cb3e101dc72f93e,,1,0,81,2,1,80
,,,,,,,,,,,,,,,,,,,,,,,,,,,,,,,,,,,,,,,,,,t,9.909999847,T,FALSE,,,,,,,120,cama,Catalan,Sounds/cat_cama.mp3,2020-06-05_12h41.09.595,TranslationElicitation_eng-prolific,3.2.4,MacIntel,60,5ed0d7a61cb3e101dc72f93e,,1,0,81,15,1,80
,,,,,,,,,,,,,,,,,,,,,,,,,,,,,,,,,,,,,,,,,,o,9.990999937,TO,FALSE,,,,,,,120,cama,Catalan,Sounds/cat_cama.mp3,2020-06-05_12h41.09.595,TranslationElicitation_eng-prolific,3.2.4,MacIntel,60,5ed0d7a61cb3e101dc72f93e,,1,0,81,15,1,80
,,,,,,,,,,,,,,,,,,,,,,,,,,,,,,,,,,,,,,,,,,p,10.3579998,TOP,FALSE,,,,,,,120,cama,Catalan,Sounds/cat_cama.mp3,2020-06-05_12h41.09.595,TranslationElicitation_eng-prolific,3.2.4,MacIntel,60,5ed0d7a61cb3e101dc72f93e,,1,0,81,15,1,80
,,,,,,,,,,,,,,,,,,,,,,,,,,,,,,,,,,,,,,,,,,return,10.63899994,TOP,FALSE,,,,,,,120,cama,Catalan,Sounds/cat_cama.mp3,2020-06-05_12h41.09.595,TranslationElicitation_eng-prolific,3.2.4,MacIntel,60,5ed0d7a61cb3e101dc72f93e,10.63899994,1,0,81,15,1,80
,,,,,,,,,,,,,,,,,,,,,,,,,,,,,,,,,,,,,,,,,,,,,,,,,,,,120,cama,Catalan,Sounds/cat_cama.mp3,2020-06-05_12h41.09.595,TranslationElicitation_eng-prolific,3.2.4,MacIntel,60,5ed0d7a61cb3e101dc72f93e,,1,0,81,15,1,80
,,,,,,,,,,,,,,,,,,,,,,,,,,,,,,,,,,,,,,,,,,return,3.230000019,,FALSE,,,,,,,148,lleo,Catalan,Sounds/cat_lleo.mp3,2020-06-05_12h41.09.595,TranslationElicitation_eng-prolific,3.2.4,MacIntel,60,5ed0d7a61cb3e101dc72f93e,3.230000019,1,0,81,41,1,80
,,,,,,,,,,,,,,,,,,,,,,,,,,,,,,,,,,,,,,,,,,,,,,,,,,,,148,lleo,Catalan,Sounds/cat_lleo.mp3,2020-06-05_12h41.09.595,TranslationElicitation_eng-prolific,3.2.4,MacIntel,60,5ed0d7a61cb3e101dc72f93e,,1,0,81,41,1,80
,,,,,,,,,,,,,,,,,,,,,,,,,,,,,,,,,,,,,,,,,,c,2.881000042,C,FALSE,,,,,,,127,cotxe,Catalan,Sounds/cat_cotxe.mp3,2020-06-05_12h41.09.595,TranslationElicitation_eng-prolific,3.2.4,MacIntel,60,5ed0d7a61cb3e101dc72f93e,,1,0,81,21,1,80
,,,,,,,,,,,,,,,,,,,,,,,,,,,,,,,,,,,,,,,,,,o,2.999000072,CO,FALSE,,,,,,,127,cotxe,Catalan,Sounds/cat_cotxe.mp3,2020-06-05_12h41.09.595,TranslationElicitation_eng-prolific,3.2.4,MacIntel,60,5ed0d7a61cb3e101dc72f93e,,1,0,81,21,1,80
,,,,,,,,,,,,,,,,,,,,,,,,,,,,,,,,,,,,,,,,,,a,3.100000143,COA,FALSE,,,,,,,127,cotxe,Catalan,Sounds/cat_cotxe.mp3,2020-06-05_12h41.09.595,TranslationElicitation_eng-prolific,3.2.4,MacIntel,60,5ed0d7a61cb3e101dc72f93e,,1,0,81,21,1,80
,,,,,,,,,,,,,,,,,,,,,,,,,,,,,,,,,,,,,,,,,,t,3.348999977,COAT,FALSE,,,,,,,127,cotxe,Catalan,Sounds/cat_cotxe.mp3,2020-06-05_12h41.09.595,TranslationElicitation_eng-prolific,3.2.4,MacIntel,60,5ed0d7a61cb3e101dc72f93e,,1,0,81,21,1,80
,,,,,,,,,,,,,,,,,,,,,,,,,,,,,,,,,,,,,,,,,,return,3.450000048,COAT,FALSE,,,,,,,127,cotxe,Catalan,Sounds/cat_cotxe.mp3,2020-06-05_12h41.09.595,TranslationElicitation_eng-prolific,3.2.4,MacIntel,60,5ed0d7a61cb3e101dc72f93e,3.450000048,1,0,81,21,1,80
,,,,,,,,,,,,,,,,,,,,,,,,,,,,,,,,,,,,,,,,,,,,,,,,,,,,127,cotxe,Catalan,Sounds/cat_cotxe.mp3,2020-06-05_12h41.09.595,TranslationElicitation_eng-prolific,3.2.4,MacIntel,60,5ed0d7a61cb3e101dc72f93e,,1,0,81,21,1,80
,,,,,,,,,,,,,,,,,,,,,,,,,,,,,,,,,,,,,,,,,,s,5.944000006,S,FALSE,,,,,,,160,orella,Catalan,Sounds/cat_orella.mp3,2020-06-05_12h41.09.595,TranslationElicitation_eng-prolific,3.2.4,MacIntel,60,5ed0d7a61cb3e101dc72f93e,,1,0,81,52,1,80
,,,,,,,,,,,,,,,,,,,,,,,,,,,,,,,,,,,,,,,,,,k,6.038000107,SK,FALSE,,,,,,,160,orella,Catalan,Sounds/cat_orella.mp3,2020-06-05_12h41.09.595,TranslationElicitation_eng-prolific,3.2.4,MacIntel,60,5ed0d7a61cb3e101dc72f93e,,1,0,81,52,1,80
,,,,,,,,,,,,,,,,,,,,,,,,,,,,,,,,,,,,,,,,,,i,6.245000124,SKI,FALSE,,,,,,,160,orella,Catalan,Sounds/cat_orella.mp3,2020-06-05_12h41.09.595,TranslationElicitation_eng-prolific,3.2.4,MacIntel,60,5ed0d7a61cb3e101dc72f93e,,1,0,81,52,1,80
,,,,,,,,,,,,,,,,,,,,,,,,,,,,,,,,,,,,,,,,,,r,6.349000216,SKIR,FALSE,,,,,,,160,orella,Catalan,Sounds/cat_orella.mp3,2020-06-05_12h41.09.595,TranslationElicitation_eng-prolific,3.2.4,MacIntel,60,5ed0d7a61cb3e101dc72f93e,,1,0,81,52,1,80
,,,,,,,,,,,,,,,,,,,,,,,,,,,,,,,,,,,,,,,,,,t,6.545000076,SKIRT,FALSE,,,,,,,160,orella,Catalan,Sounds/cat_orella.mp3,2020-06-05_12h41.09.595,TranslationElicitation_eng-prolific,3.2.4,MacIntel,60,5ed0d7a61cb3e101dc72f93e,,1,0,81,52,1,80
,,,,,,,,,,,,,,,,,,,,,,,,,,,,,,,,,,,,,,,,,,return,6.661000013,SKIRT,FALSE,,,,,,,160,orella,Catalan,Sounds/cat_orella.mp3,2020-06-05_12h41.09.595,TranslationElicitation_eng-prolific,3.2.4,MacIntel,60,5ed0d7a61cb3e101dc72f93e,6.661000013,1,0,81,52,1,80
,,,,,,,,,,,,,,,,,,,,,,,,,,,,,,,,,,,,,,,,,,,,,,,,,,,,160,orella,Catalan,Sounds/cat_orella.mp3,2020-06-05_12h41.09.595,TranslationElicitation_eng-prolific,3.2.4,MacIntel,60,5ed0d7a61cb3e101dc72f93e,,1,0,81,52,1,80
,,,,,,,,,,,,,,,,,,,,,,,,,,,,,,,,,,,,,,,,,,g,4.302999973,G,FALSE,,,,,,,145,got,Catalan,Sounds/cat_got.mp3,2020-06-05_12h41.09.595,TranslationElicitation_eng-prolific,3.2.4,MacIntel,60,5ed0d7a61cb3e101dc72f93e,,1,0,81,39,1,80
,,,,,,,,,,,,,,,,,,,,,,,,,,,,,,,,,,,,,,,,,,o,4.381999969,GO,FALSE,,,,,,,145,got,Catalan,Sounds/cat_got.mp3,2020-06-05_12h41.09.595,TranslationElicitation_eng-prolific,3.2.4,MacIntel,60,5ed0d7a61cb3e101dc72f93e,,1,0,81,39,1,80
,,,,,,,,,,,,,,,,,,,,,,,,,,,,,,,,,,,,,,,,,,d,4.467000008,GOD,FALSE,,,,,,,145,got,Catalan,Sounds/cat_got.mp3,2020-06-05_12h41.09.595,TranslationElicitation_eng-prolific,3.2.4,MacIntel,60,5ed0d7a61cb3e101dc72f93e,,1,0,81,39,1,80
,,,,,,,,,,,,,,,,,,,,,,,,,,,,,,,,,,,,,,,,,,return,4.715999842,GOD,FALSE,,,,,,,145,got,Catalan,Sounds/cat_got.mp3,2020-06-05_12h41.09.595,TranslationElicitation_eng-prolific,3.2.4,MacIntel,60,5ed0d7a61cb3e101dc72f93e,4.715999842,1,0,81,39,1,80
,,,,,,,,,,,,,,,,,,,,,,,,,,,,,,,,,,,,,,,,,,,,,,,,,,,,145,got,Catalan,Sounds/cat_got.mp3,2020-06-05_12h41.09.595,TranslationElicitation_eng-prolific,3.2.4,MacIntel,60,5ed0d7a61cb3e101dc72f93e,,1,0,81,39,1,80
,,,,,,,,,,,,,,,,,,,,,,,,,,,,,,,,,,,,,,,,,,h,1.836999893,H,FALSE,,,,,,,172,poma,Catalan,Sounds/cat_poma.mp3,2020-06-05_12h41.09.595,TranslationElicitation_eng-prolific,3.2.4,MacIntel,60,5ed0d7a61cb3e101dc72f93e,,1,0,81,64,1,80
,,,,,,,,,,,,,,,,,,,,,,,,,,,,,,,,,,,,,,,,,,a,1.90199995,HA,FALSE,,,,,,,172,poma,Catalan,Sounds/cat_poma.mp3,2020-06-05_12h41.09.595,TranslationElicitation_eng-prolific,3.2.4,MacIntel,60,5ed0d7a61cb3e101dc72f93e,,1,0,81,64,1,80
,,,,,,,,,,,,,,,,,,,,,,,,,,,,,,,,,,,,,,,,,,m,2.121000051,HAM,FALSE,,,,,,,172,poma,Catalan,Sounds/cat_poma.mp3,2020-06-05_12h41.09.595,TranslationElicitation_eng-prolific,3.2.4,MacIntel,60,5ed0d7a61cb3e101dc72f93e,,1,0,81,64,1,80
,,,,,,,,,,,,,,,,,,,,,,,,,,,,,,,,,,,,,,,,,,return,2.302999973,HAM,FALSE,,,,,,,172,poma,Catalan,Sounds/cat_poma.mp3,2020-06-05_12h41.09.595,TranslationElicitation_eng-prolific,3.2.4,MacIntel,60,5ed0d7a61cb3e101dc72f93e,2.302999973,1,0,81,64,1,80
,,,,,,,,,,,,,,,,,,,,,,,,,,,,,,,,,,,,,,,,,,,,,,,,,,,,172,poma,Catalan,Sounds/cat_poma.mp3,2020-06-05_12h41.09.595,TranslationElicitation_eng-prolific,3.2.4,MacIntel,60,5ed0d7a61cb3e101dc72f93e,,1,0,81,64,1,80
,,,,,,,,,,,,,,,,,,,,,,,,,,,,,,,,,,,,,,,,,,b,2.484999895,B,FALSE,,,,,,,118,bou,Catalan,Sounds/cat_bou.mp3,2020-06-05_12h41.09.595,TranslationElicitation_eng-prolific,3.2.4,MacIntel,60,5ed0d7a61cb3e101dc72f93e,,1,0,81,13,1,80
,,,,,,,,,,,,,,,,,,,,,,,,,,,,,,,,,,,,,,,,,,a,2.615999937,BA,FALSE,,,,,,,118,bou,Catalan,Sounds/cat_bou.mp3,2020-06-05_12h41.09.595,TranslationElicitation_eng-prolific,3.2.4,MacIntel,60,5ed0d7a61cb3e101dc72f93e,,1,0,81,13,1,80
,,,,,,,,,,,,,,,,,,,,,,,,,,,,,,,,,,,,,,,,,,backspace,3.200999975,B,TRUE,,,,,,,118,bou,Catalan,Sounds/cat_bou.mp3,2020-06-05_12h41.09.595,TranslationElicitation_eng-prolific,3.2.4,MacIntel,60,5ed0d7a61cb3e101dc72f93e,,1,0,81,13,1,80
,,,,,,,,,,,,,,,,,,,,,,,,,,,,,,,,,,,,,,,,,,backspace,3.298999786,,TRUE,,,,,,,118,bou,Catalan,Sounds/cat_bou.mp3,2020-06-05_12h41.09.595,TranslationElicitation_eng-prolific,3.2.4,MacIntel,60,5ed0d7a61cb3e101dc72f93e,,1,0,81,13,1,80
,,,,,,,,,,,,,,,,,,,,,,,,,,,,,,,,,,,,,,,,,,b,4.471999884,B,TRUE,,,,,,,118,bou,Catalan,Sounds/cat_bou.mp3,2020-06-05_12h41.09.595,TranslationElicitation_eng-prolific,3.2.4,MacIntel,60,5ed0d7a61cb3e101dc72f93e,,1,0,81,13,1,80
,,,,,,,,,,,,,,,,,,,,,,,,,,,,,,,,,,,,,,,,,,o,4.551999807,BO,TRUE,,,,,,,118,bou,Catalan,Sounds/cat_bou.mp3,2020-06-05_12h41.09.595,TranslationElicitation_eng-prolific,3.2.4,MacIntel,60,5ed0d7a61cb3e101dc72f93e,,1,0,81,13,1,80
,,,,,,,,,,,,,,,,,,,,,,,,,,,,,,,,,,,,,,,,,,w,4.602999926,BOW,TRUE,,,,,,,118,bou,Catalan,Sounds/cat_bou.mp3,2020-06-05_12h41.09.595,TranslationElicitation_eng-prolific,3.2.4,MacIntel,60,5ed0d7a61cb3e101dc72f93e,,1,0,81,13,1,80
,,,,,,,,,,,,,,,,,,,,,,,,,,,,,,,,,,,,,,,,,,return,4.815999985,BOW,TRUE,,,,,,,118,bou,Catalan,Sounds/cat_bou.mp3,2020-06-05_12h41.09.595,TranslationElicitation_eng-prolific,3.2.4,MacIntel,60,5ed0d7a61cb3e101dc72f93e,4.815999985,1,0,81,13,1,80
,,,,,,,,,,,,,,,,,,,,,,,,,,,,,,,,,,,,,,,,,,,,,,,,,,,,118,bou,Catalan,Sounds/cat_bou.mp3,2020-06-05_12h41.09.595,TranslationElicitation_eng-prolific,3.2.4,MacIntel,60,5ed0d7a61cb3e101dc72f93e,,1,0,81,13,1,80
,,,,,,,,,,,,,,,,,,,,,,,,,,,,,,,,,,,,,,,,,,s,2.233999968,S,FALSE,,,,,,,177,sol,Catalan,Sounds/cat_sol.mp3,2020-06-05_12h41.09.595,TranslationElicitation_eng-prolific,3.2.4,MacIntel,60,5ed0d7a61cb3e101dc72f93e,,1,0,81,69,1,80
,,,,,,,,,,,,,,,,,,,,,,,,,,,,,,,,,,,,,,,,,,u,2.351000071,SU,FALSE,,,,,,,177,sol,Catalan,Sounds/cat_sol.mp3,2020-06-05_12h41.09.595,TranslationElicitation_eng-prolific,3.2.4,MacIntel,60,5ed0d7a61cb3e101dc72f93e,,1,0,81,69,1,80
,,,,,,,,,,,,,,,,,,,,,,,,,,,,,,,,,,,,,,,,,,n,2.469000101,SUN,FALSE,,,,,,,177,sol,Catalan,Sounds/cat_sol.mp3,2020-06-05_12h41.09.595,TranslationElicitation_eng-prolific,3.2.4,MacIntel,60,5ed0d7a61cb3e101dc72f93e,,1,0,81,69,1,80
,,,,,,,,,,,,,,,,,,,,,,,,,,,,,,,,,,,,,,,,,,return,2.96600008,SUN,FALSE,,,,,,,177,sol,Catalan,Sounds/cat_sol.mp3,2020-06-05_12h41.09.595,TranslationElicitation_eng-prolific,3.2.4,MacIntel,60,5ed0d7a61cb3e101dc72f93e,2.96600008,1,0,81,69,1,80
,,,,,,,,,,,,,,,,,,,,,,,,,,,,,,,,,,,,,,,,,,,,,,,,,,,,177,sol,Catalan,Sounds/cat_sol.mp3,2020-06-05_12h41.09.595,TranslationElicitation_eng-prolific,3.2.4,MacIntel,60,5ed0d7a61cb3e101dc72f93e,,1,0,81,69,1,80
,,,,,,,,,,,,,,,,,,,,,,,,,,,,,,,,,,,,,,,,,,c,4.482999802,C,FALSE,,,,,,,143,globus,Catalan,Sounds/cat_globus.mp3,2020-06-05_12h41.09.595,TranslationElicitation_eng-prolific,3.2.4,MacIntel,60,5ed0d7a61cb3e101dc72f93e,,1,0,81,37,1,80
,,,,,,,,,,,,,,,,,,,,,,,,,,,,,,,,,,,,,,,,,,u,4.547999859,CU,FALSE,,,,,,,143,globus,Catalan,Sounds/cat_globus.mp3,2020-06-05_12h41.09.595,TranslationElicitation_eng-prolific,3.2.4,MacIntel,60,5ed0d7a61cb3e101dc72f93e,,1,0,81,37,1,80
,,,,,,,,,,,,,,,,,,,,,,,,,,,,,,,,,,,,,,,,,,p,5.123999834,CUP,FALSE,,,,,,,143,globus,Catalan,Sounds/cat_globus.mp3,2020-06-05_12h41.09.595,TranslationElicitation_eng-prolific,3.2.4,MacIntel,60,5ed0d7a61cb3e101dc72f93e,,1,0,81,37,1,80
,,,,,,,,,,,,,,,,,,,,,,,,,,,,,,,,,,,,,,,,,,return,5.471999884,CUP,FALSE,,,,,,,143,globus,Catalan,Sounds/cat_globus.mp3,2020-06-05_12h41.09.595,TranslationElicitation_eng-prolific,3.2.4,MacIntel,60,5ed0d7a61cb3e101dc72f93e,5.471999884,1,0,81,37,1,80
,,,,,,,,,,,,,,,,,,,,,,,,,,,,,,,,,,,,,,,,,,,,,,,,,,,,143,globus,Catalan,Sounds/cat_globus.mp3,2020-06-05_12h41.09.595,TranslationElicitation_eng-prolific,3.2.4,MacIntel,60,5ed0d7a61cb3e101dc72f93e,,1,0,81,37,1,80
,,,,,,,,,,,,,,,,,,,,,,,,,,,,,,,,,,,,,,,,,,f,2.947999954,F,FALSE,,,,,,,134,flor,Catalan,Sounds/cat_flor.mp3,2020-06-05_12h41.09.595,TranslationElicitation_eng-prolific,3.2.4,MacIntel,60,5ed0d7a61cb3e101dc72f93e,,1,0,81,28,1,80
,,,,,,,,,,,,,,,,,,,,,,,,,,,,,,,,,,,,,,,,,,l,3.014999866,FL,FALSE,,,,,,,134,flor,Catalan,Sounds/cat_flor.mp3,2020-06-05_12h41.09.595,TranslationElicitation_eng-prolific,3.2.4,MacIntel,60,5ed0d7a61cb3e101dc72f93e,,1,0,81,28,1,80
,,,,,,,,,,,,,,,,,,,,,,,,,,,,,,,,,,,,,,,,,,o,3.153999805,FLO,FALSE,,,,,,,134,flor,Catalan,Sounds/cat_flor.mp3,2020-06-05_12h41.09.595,TranslationElicitation_eng-prolific,3.2.4,MacIntel,60,5ed0d7a61cb3e101dc72f93e,,1,0,81,28,1,80
,,,,,,,,,,,,,,,,,,,,,,,,,,,,,,,,,,,,,,,,,,w,3.281999826,FLOW,FALSE,,,,,,,134,flor,Catalan,Sounds/cat_flor.mp3,2020-06-05_12h41.09.595,TranslationElicitation_eng-prolific,3.2.4,MacIntel,60,5ed0d7a61cb3e101dc72f93e,,1,0,81,28,1,80
,,,,,,,,,,,,,,,,,,,,,,,,,,,,,,,,,,,,,,,,,,e,3.432999849,FLOWE,FALSE,,,,,,,134,flor,Catalan,Sounds/cat_flor.mp3,2020-06-05_12h41.09.595,TranslationElicitation_eng-prolific,3.2.4,MacIntel,60,5ed0d7a61cb3e101dc72f93e,,1,0,81,28,1,80
,,,,,,,,,,,,,,,,,,,,,,,,,,,,,,,,,,,,,,,,,,r,3.551999807,FLOWER,FALSE,,,,,,,134,flor,Catalan,Sounds/cat_flor.mp3,2020-06-05_12h41.09.595,TranslationElicitation_eng-prolific,3.2.4,MacIntel,60,5ed0d7a61cb3e101dc72f93e,,1,0,81,28,1,80
,,,,,,,,,,,,,,,,,,,,,,,,,,,,,,,,,,,,,,,,,,return,3.921000004,FLOWER,FALSE,,,,,,,134,flor,Catalan,Sounds/cat_flor.mp3,2020-06-05_12h41.09.595,TranslationElicitation_eng-prolific,3.2.4,MacIntel,60,5ed0d7a61cb3e101dc72f93e,3.921000004,1,0,81,28,1,80
,,,,,,,,,,,,,,,,,,,,,,,,,,,,,,,,,,,,,,,,,,,,,,,,,,,,134,flor,Catalan,Sounds/cat_flor.mp3,2020-06-05_12h41.09.595,TranslationElicitation_eng-prolific,3.2.4,MacIntel,60,5ed0d7a61cb3e101dc72f93e,,1,0,81,28,1,80
,,,,,,,,,,,,,,,,,,,,,,,,,,,,,,,,,,,,,,,,,,c,5.684000015,C,FALSE,,,,,,,119,caixa,Catalan,Sounds/cat_caixa.mp3,2020-06-05_12h41.09.595,TranslationElicitation_eng-prolific,3.2.4,MacIntel,60,5ed0d7a61cb3e101dc72f93e,,1,0,81,14,1,80
,,,,,,,,,,,,,,,,,,,,,,,,,,,,,,,,,,,,,,,,,,a,5.881000042,CA,FALSE,,,,,,,119,caixa,Catalan,Sounds/cat_caixa.mp3,2020-06-05_12h41.09.595,TranslationElicitation_eng-prolific,3.2.4,MacIntel,60,5ed0d7a61cb3e101dc72f93e,,1,0,81,14,1,80
,,,,,,,,,,,,,,,,,,,,,,,,,,,,,,,,,,,,,,,,,,s,6.032999992,CAS,FALSE,,,,,,,119,caixa,Catalan,Sounds/cat_caixa.mp3,2020-06-05_12h41.09.595,TranslationElicitation_eng-prolific,3.2.4,MacIntel,60,5ed0d7a61cb3e101dc72f93e,,1,0,81,14,1,80
,,,,,,,,,,,,,,,,,,,,,,,,,,,,,,,,,,,,,,,,,,h,6.101000071,CASH,FALSE,,,,,,,119,caixa,Catalan,Sounds/cat_caixa.mp3,2020-06-05_12h41.09.595,TranslationElicitation_eng-prolific,3.2.4,MacIntel,60,5ed0d7a61cb3e101dc72f93e,,1,0,81,14,1,80
,,,,,,,,,,,,,,,,,,,,,,,,,,,,,,,,,,,,,,,,,,return,6.267999887,CASH,FALSE,,,,,,,119,caixa,Catalan,Sounds/cat_caixa.mp3,2020-06-05_12h41.09.595,TranslationElicitation_eng-prolific,3.2.4,MacIntel,60,5ed0d7a61cb3e101dc72f93e,6.267999887,1,0,81,14,1,80
,,,,,,,,,,,,,,,,,,,,,,,,,,,,,,,,,,,,,,,,,,,,,,,,,,,,119,caixa,Catalan,Sounds/cat_caixa.mp3,2020-06-05_12h41.09.595,TranslationElicitation_eng-prolific,3.2.4,MacIntel,60,5ed0d7a61cb3e101dc72f93e,,1,0,81,14,1,80
,,,,,,,,,,,,,,,,,,,,,,,,,,,,,,,,,,,,,,,,,,return,2.615999937,,FALSE,,,,,,,139,galleda,Catalan,Sounds/cat_galleda.mp3,2020-06-05_12h41.09.595,TranslationElicitation_eng-prolific,3.2.4,MacIntel,60,5ed0d7a61cb3e101dc72f93e,2.615999937,1,0,81,33,1,80
,,,,,,,,,,,,,,,,,,,,,,,,,,,,,,,,,,,,,,,,,,,,,,,,,,,,139,galleda,Catalan,Sounds/cat_galleda.mp3,2020-06-05_12h41.09.595,TranslationElicitation_eng-prolific,3.2.4,MacIntel,60,5ed0d7a61cb3e101dc72f93e,,1,0,81,33,1,80
,,,,,,,,,,,,,,,,,,,,,,,,,,,,,,,,,,,,,,,,,,b,4.18200016,B,FALSE,,,,,,,166,peu,Catalan,Sounds/cat_peu.mp3,2020-06-05_12h41.09.595,TranslationElicitation_eng-prolific,3.2.4,MacIntel,60,5ed0d7a61cb3e101dc72f93e,,1,0,81,58,1,80
,,,,,,,,,,,,,,,,,,,,,,,,,,,,,,,,,,,,,,,,,,o,4.25,BO,FALSE,,,,,,,166,peu,Catalan,Sounds/cat_peu.mp3,2020-06-05_12h41.09.595,TranslationElicitation_eng-prolific,3.2.4,MacIntel,60,5ed0d7a61cb3e101dc72f93e,,1,0,81,58,1,80
,,,,,,,,,,,,,,,,,,,,,,,,,,,,,,,,,,,,,,,,,,y,4.336000204,BOY,FALSE,,,,,,,166,peu,Catalan,Sounds/cat_peu.mp3,2020-06-05_12h41.09.595,TranslationElicitation_eng-prolific,3.2.4,MacIntel,60,5ed0d7a61cb3e101dc72f93e,,1,0,81,58,1,80
,,,,,,,,,,,,,,,,,,,,,,,,,,,,,,,,,,,,,,,,,,return,4.503000021,BOY,FALSE,,,,,,,166,peu,Catalan,Sounds/cat_peu.mp3,2020-06-05_12h41.09.595,TranslationElicitation_eng-prolific,3.2.4,MacIntel,60,5ed0d7a61cb3e101dc72f93e,4.503000021,1,0,81,58,1,80
,,,,,,,,,,,,,,,,,,,,,,,,,,,,,,,,,,,,,,,,,,,,,,,,,,,,166,peu,Catalan,Sounds/cat_peu.mp3,2020-06-05_12h41.09.595,TranslationElicitation_eng-prolific,3.2.4,MacIntel,60,5ed0d7a61cb3e101dc72f93e,,1,0,81,58,1,80
,,,,,,,,,,,,,,,,,,,,,,,,,,,,,,,,,,,,,,,,,,n,2.068000078,N,FALSE,,,,,,,158,nas,Catalan,Sounds/cat_nas.mp3,2020-06-05_12h41.09.595,TranslationElicitation_eng-prolific,3.2.4,MacIntel,60,5ed0d7a61cb3e101dc72f93e,,1,0,81,51,1,80
,,,,,,,,,,,,,,,,,,,,,,,,,,,,,,,,,,,,,,,,,,o,2.151000023,NO,FALSE,,,,,,,158,nas,Catalan,Sounds/cat_nas.mp3,2020-06-05_12h41.09.595,TranslationElicitation_eng-prolific,3.2.4,MacIntel,60,5ed0d7a61cb3e101dc72f93e,,1,0,81,51,1,80
,,,,,,,,,,,,,,,,,,,,,,,,,,,,,,,,,,,,,,,,,,s,2.253000021,NOS,FALSE,,,,,,,158,nas,Catalan,Sounds/cat_nas.mp3,2020-06-05_12h41.09.595,TranslationElicitation_eng-prolific,3.2.4,MacIntel,60,5ed0d7a61cb3e101dc72f93e,,1,0,81,51,1,80
,,,,,,,,,,,,,,,,,,,,,,,,,,,,,,,,,,,,,,,,,,e,2.388999939,NOSE,FALSE,,,,,,,158,nas,Catalan,Sounds/cat_nas.mp3,2020-06-05_12h41.09.595,TranslationElicitation_eng-prolific,3.2.4,MacIntel,60,5ed0d7a61cb3e101dc72f93e,,1,0,81,51,1,80
,,,,,,,,,,,,,,,,,,,,,,,,,,,,,,,,,,,,,,,,,,return,2.451999903,NOSE,FALSE,,,,,,,158,nas,Catalan,Sounds/cat_nas.mp3,2020-06-05_12h41.09.595,TranslationElicitation_eng-prolific,3.2.4,MacIntel,60,5ed0d7a61cb3e101dc72f93e,2.451999903,1,0,81,51,1,80
,,,,,,,,,,,,,,,,,,,,,,,,,,,,,,,,,,,,,,,,,,,,,,,,,,,,158,nas,Catalan,Sounds/cat_nas.mp3,2020-06-05_12h41.09.595,TranslationElicitation_eng-prolific,3.2.4,MacIntel,60,5ed0d7a61cb3e101dc72f93e,,1,0,81,51,1,80
,,,,,,,,,,,,,,,,,,,,,,,,,,,,,,,,,,,,,,,,,,p,1.165999889,P,FALSE,,,,,,,164,patata,Catalan,Sounds/cat_patata.mp3,2020-06-05_12h41.09.595,TranslationElicitation_eng-prolific,3.2.4,MacIntel,60,5ed0d7a61cb3e101dc72f93e,,1,0,81,56,1,80
,,,,,,,,,,,,,,,,,,,,,,,,,,,,,,,,,,,,,,,,,,o,1.28399992,PO,FALSE,,,,,,,164,patata,Catalan,Sounds/cat_patata.mp3,2020-06-05_12h41.09.595,TranslationElicitation_eng-prolific,3.2.4,MacIntel,60,5ed0d7a61cb3e101dc72f93e,,1,0,81,56,1,80
,,,,,,,,,,,,,,,,,,,,,,,,,,,,,,,,,,,,,,,,,,t,1.318000078,POT,FALSE,,,,,,,164,patata,Catalan,Sounds/cat_patata.mp3,2020-06-05_12h41.09.595,TranslationElicitation_eng-prolific,3.2.4,MacIntel,60,5ed0d7a61cb3e101dc72f93e,,1,0,81,56,1,80
,,,,,,,,,,,,,,,,,,,,,,,,,,,,,,,,,,,,,,,,,,a,1.536999941,POTA,FALSE,,,,,,,164,patata,Catalan,Sounds/cat_patata.mp3,2020-06-05_12h41.09.595,TranslationElicitation_eng-prolific,3.2.4,MacIntel,60,5ed0d7a61cb3e101dc72f93e,,1,0,81,56,1,80
,,,,,,,,,,,,,,,,,,,,,,,,,,,,,,,,,,,,,,,,,,t,1.734999895,POTAT,FALSE,,,,,,,164,patata,Catalan,Sounds/cat_patata.mp3,2020-06-05_12h41.09.595,TranslationElicitation_eng-prolific,3.2.4,MacIntel,60,5ed0d7a61cb3e101dc72f93e,,1,0,81,56,1,80
,,,,,,,,,,,,,,,,,,,,,,,,,,,,,,,,,,,,,,,,,,o,1.818000078,POTATO,FALSE,,,,,,,164,patata,Catalan,Sounds/cat_patata.mp3,2020-06-05_12h41.09.595,TranslationElicitation_eng-prolific,3.2.4,MacIntel,60,5ed0d7a61cb3e101dc72f93e,,1,0,81,56,1,80
,,,,,,,,,,,,,,,,,,,,,,,,,,,,,,,,,,,,,,,,,,return,1.970000029,POTATO,FALSE,,,,,,,164,patata,Catalan,Sounds/cat_patata.mp3,2020-06-05_12h41.09.595,TranslationElicitation_eng-prolific,3.2.4,MacIntel,60,5ed0d7a61cb3e101dc72f93e,1.970000029,1,0,81,56,1,80
,,,,,,,,,,,,,,,,,,,,,,,,,,,,,,,,,,,,,,,,,,,,,,,,,,,,164,patata,Catalan,Sounds/cat_patata.mp3,2020-06-05_12h41.09.595,TranslationElicitation_eng-prolific,3.2.4,MacIntel,60,5ed0d7a61cb3e101dc72f93e,,1,0,81,56,1,80
,,,,,,,,,,,,,,,,,,,,,,,,,,,,,,,,,,,,,,,,,,s,5.762000084,S,FALSE,,,,,,,137,fulla,Catalan,Sounds/cat_fulla.mp3,2020-06-05_12h41.09.595,TranslationElicitation_eng-prolific,3.2.4,MacIntel,60,5ed0d7a61cb3e101dc72f93e,,1,0,81,31,1,80
,,,,,,,,,,,,,,,,,,,,,,,,,,,,,,,,,,,,,,,,,,s,5.865999937,SS,FALSE,,,,,,,137,fulla,Catalan,Sounds/cat_fulla.mp3,2020-06-05_12h41.09.595,TranslationElicitation_eng-prolific,3.2.4,MacIntel,60,5ed0d7a61cb3e101dc72f93e,,1,0,81,31,1,80
,,,,,,,,,,,,,,,,,,,,,,,,,,,,,,,,,,,,,,,,,,t,6.066999912,SST,FALSE,,,,,,,137,fulla,Catalan,Sounds/cat_fulla.mp3,2020-06-05_12h41.09.595,TranslationElicitation_eng-prolific,3.2.4,MacIntel,60,5ed0d7a61cb3e101dc72f93e,,1,0,81,31,1,80
,,,,,,,,,,,,,,,,,,,,,,,,,,,,,,,,,,,,,,,,,,e,6.217000008,SSTE,FALSE,,,,,,,137,fulla,Catalan,Sounds/cat_fulla.mp3,2020-06-05_12h41.09.595,TranslationElicitation_eng-prolific,3.2.4,MacIntel,60,5ed0d7a61cb3e101dc72f93e,,1,0,81,31,1,80
,,,,,,,,,,,,,,,,,,,,,,,,,,,,,,,,,,,,,,,,,,r,6.356999874,SSTER,FALSE,,,,,,,137,fulla,Catalan,Sounds/cat_fulla.mp3,2020-06-05_12h41.09.595,TranslationElicitation_eng-prolific,3.2.4,MacIntel,60,5ed0d7a61cb3e101dc72f93e,,1,0,81,31,1,80
,,,,,,,,,,,,,,,,,,,,,,,,,,,,,,,,,,,,,,,,,,backspace,6.884000063,SSTE,TRUE,,,,,,,137,fulla,Catalan,Sounds/cat_fulla.mp3,2020-06-05_12h41.09.595,TranslationElicitation_eng-prolific,3.2.4,MacIntel,60,5ed0d7a61cb3e101dc72f93e,,1,0,81,31,1,80
,,,,,,,,,,,,,,,,,,,,,,,,,,,,,,,,,,,,,,,,,,backspace,6.986000061,SST,TRUE,,,,,,,137,fulla,Catalan,Sounds/cat_fulla.mp3,2020-06-05_12h41.09.595,TranslationElicitation_eng-prolific,3.2.4,MacIntel,60,5ed0d7a61cb3e101dc72f93e,,1,0,81,31,1,80
,,,,,,,,,,,,,,,,,,,,,,,,,,,,,,,,,,,,,,,,,,backspace,7.200000048,SS,TRUE,,,,,,,137,fulla,Catalan,Sounds/cat_fulla.mp3,2020-06-05_12h41.09.595,TranslationElicitation_eng-prolific,3.2.4,MacIntel,60,5ed0d7a61cb3e101dc72f93e,,1,0,81,31,1,80
,,,,,,,,,,,,,,,,,,,,,,,,,,,,,,,,,,,,,,,,,,backspace,7.285000086,S,TRUE,,,,,,,137,fulla,Catalan,Sounds/cat_fulla.mp3,2020-06-05_12h41.09.595,TranslationElicitation_eng-prolific,3.2.4,MacIntel,60,5ed0d7a61cb3e101dc72f93e,,1,0,81,31,1,80
,,,,,,,,,,,,,,,,,,,,,,,,,,,,,,,,,,,,,,,,,,backspace,7.417999983,,TRUE,,,,,,,137,fulla,Catalan,Sounds/cat_fulla.mp3,2020-06-05_12h41.09.595,TranslationElicitation_eng-prolific,3.2.4,MacIntel,60,5ed0d7a61cb3e101dc72f93e,,1,0,81,31,1,80
,,,,,,,,,,,,,,,,,,,,,,,,,,,,,,,,,,,,,,,,,,s,7.967000008,S,TRUE,,,,,,,137,fulla,Catalan,Sounds/cat_fulla.mp3,2020-06-05_12h41.09.595,TranslationElicitation_eng-prolific,3.2.4,MacIntel,60,5ed0d7a61cb3e101dc72f93e,,1,0,81,31,1,80
,,,,,,,,,,,,,,,,,,,,,,,,,,,,,,,,,,,,,,,,,,i,8.05099988,SI,TRUE,,,,,,,137,fulla,Catalan,Sounds/cat_fulla.mp3,2020-06-05_12h41.09.595,TranslationElicitation_eng-prolific,3.2.4,MacIntel,60,5ed0d7a61cb3e101dc72f93e,,1,0,81,31,1,80
