consentKey.keys,consentKey.rt,languageL1Key.keys,languageL1Key.rt,languageL2,languageL2OralKey.keys,languageL2OralKey.rt,languageL2WrittenKey.keys,languageL2WrittenKey.rt,languageL3OralKey.keys,languageL3OralKey.rt,languageL3WrittenKey.keys,languageL3WrittenKey.rt,languageCatalanOralKey.keys,languageCatalanOralKey.rt,languageCatalanWrittenKey.keys,languageCatalanWrittenKey.rt,languageCatalanTimeKey.keys,languageCatalanTimeKey.rt,languageSpanishOralKey.keys,languageSpanishOralKey.rt,languageSpanishWrittenKey.keys,languageSpanishWrittenKey.rt,languageSpanishTimeKey.keys,languageSpanishTimeKey.rt,age,demoSexKey.keys,demoSexKey.rt,demoEducationKey.keys,demoEducationKey.rt,city,demoVisionKey.keys,demoVisionKey.rt,demoLanguageKey.keys,demoLanguageKey.rt,setupLocationKey.keys,setupLocationKey.rt,setupNoiseKey.keys,setupNoiseKey.rt,instructionsKeys.keys,instructionsKeys.rt,keyPressed,keyPressTime,inputText,error,trialsPracticeCatalan.thisRepN,trialsPracticeCatalan.thisTrialN,trialsPracticeCatalan.thisN,trialsPracticeCatalan.thisIndex,trialsPracticeCatalan.ran,trialsPracticeCatalan.order,trial_id,word,test_language,soundfile,date,expName,psychopyVersion,OS,frameRate,participant,trialOffset,trialsCatalan.thisRepN,trialsCatalan.thisTrialN,trialsCatalan.thisN,trialsCatalan.thisIndex,trialsCatalan.ran,trialsCatalan.order
space,1.615000248,e,4.999000072,,,,,,,,,,1,6.900000095,1,6.653000116,1,4.836000204,1,2.937999964,1,2.176000118,1,2.138000011,25,f,1.634000301,4,25.10300016,LEEDS,y,6.499000072,n,4.624000072,1,2.684000015,1,7.616000175,space,19.81599998,space,4.483999968, ,FALSE,1,0,5,0,1,4,109,arbre,Catalan,Sounds/cat_arbre.mp3,2020-06-05_12h49.34.107,TranslationElicitation_eng-prolific,3.2.4,MacIntel,60,5ed4bba6bd73d9482bfc6170,,,,,,,
,,,,,,,,,,,,,,,,,,,,,,,,,,,,,,,,,,,,,,,,,return,8.967999935, ,FALSE,1,0,5,0,1,4,109,arbre,Catalan,Sounds/cat_arbre.mp3,2020-06-05_12h49.34.107,TranslationElicitation_eng-prolific,3.2.4,MacIntel,60,5ed4bba6bd73d9482bfc6170,8.967999935,,,,,,
,,,,,,,,,,,,,,,,,,,,,,,,,,,,,,,,,,,,,,,,,,,,,1,0,5,0,1,4,109,arbre,Catalan,Sounds/cat_arbre.mp3,2020-06-05_12h49.34.107,TranslationElicitation_eng-prolific,3.2.4,MacIntel,60,5ed4bba6bd73d9482bfc6170,,,,,,,
,,,,,,,,,,,,,,,,,,,,,,,,,,,,,,,,,,,,,,,,,return,2.467000008,,FALSE,1,0,5,1,1,4,126,corona,Catalan,Sounds/cat_corona.mp3,2020-06-05_12h49.34.107,TranslationElicitation_eng-prolific,3.2.4,MacIntel,60,5ed4bba6bd73d9482bfc6170,2.467000008,,,,,,
,,,,,,,,,,,,,,,,,,,,,,,,,,,,,,,,,,,,,,,,,,,,,1,0,5,1,1,4,126,corona,Catalan,Sounds/cat_corona.mp3,2020-06-05_12h49.34.107,TranslationElicitation_eng-prolific,3.2.4,MacIntel,60,5ed4bba6bd73d9482bfc6170,,,,,,,
,,,,,,,,,,,,,,,,,,,,,,,,,,,,,,,,,,,,,,,,,return,2.549999952,,FALSE,1,0,5,3,1,4,159,onada,Catalan,Sounds/cat_onada.mp3,2020-06-05_12h49.34.107,TranslationElicitation_eng-prolific,3.2.4,MacIntel,60,5ed4bba6bd73d9482bfc6170,2.549999952,,,,,,
,,,,,,,,,,,,,,,,,,,,,,,,,,,,,,,,,,,,,,,,,,,,,1,0,5,3,1,4,159,onada,Catalan,Sounds/cat_onada.mp3,2020-06-05_12h49.34.107,TranslationElicitation_eng-prolific,3.2.4,MacIntel,60,5ed4bba6bd73d9482bfc6170,,,,,,,
,,,,,,,,,,,,,,,,,,,,,,,,,,,,,,,,,,,,,,,,,return,1.65199995,,FALSE,1,0,5,2,1,4,147,jaqueta,Catalan,Sounds/cat_jaqueta.mp3,2020-06-05_12h49.34.107,TranslationElicitation_eng-prolific,3.2.4,MacIntel,60,5ed4bba6bd73d9482bfc6170,1.65199995,,,,,,
,,,,,,,,,,,,,,,,,,,,,,,,,,,,,,,,,,,,,,,,,,,,,1,0,5,2,1,4,147,jaqueta,Catalan,Sounds/cat_jaqueta.mp3,2020-06-05_12h49.34.107,TranslationElicitation_eng-prolific,3.2.4,MacIntel,60,5ed4bba6bd73d9482bfc6170,,,,,,,
,,,,,,,,,,,,,,,,,,,,,,,,,,,,,,,,,,,,,,,,,return,2.28399992,,FALSE,1,0,5,4,1,4,179,tigre,Catalan,Sounds/cat_tigre.mp3,2020-06-05_12h49.34.107,TranslationElicitation_eng-prolific,3.2.4,MacIntel,60,5ed4bba6bd73d9482bfc6170,2.28399992,,,,,,
,,,,,,,,,,,,,,,,,,,,,,,,,,,,,,,,,,,,,,,,,,,,,1,0,5,4,1,4,179,tigre,Catalan,Sounds/cat_tigre.mp3,2020-06-05_12h49.34.107,TranslationElicitation_eng-prolific,3.2.4,MacIntel,60,5ed4bba6bd73d9482bfc6170,,,,,,,
,,,,,,,,,,,,,,,,,,,,,,,,,,,,,,,,,,,,,,,,,h,1.765000105,H,FALSE,,,,,,,105,aigua,Catalan,Sounds/cat_aigua.mp3,2020-06-05_12h49.34.107,TranslationElicitation_eng-prolific,3.2.4,MacIntel,60,5ed4bba6bd73d9482bfc6170,,1,0,81,1,1,80
,,,,,,,,,,,,,,,,,,,,,,,,,,,,,,,,,,,,,,,,,e,2.549000025,HE,FALSE,,,,,,,105,aigua,Catalan,Sounds/cat_aigua.mp3,2020-06-05_12h49.34.107,TranslationElicitation_eng-prolific,3.2.4,MacIntel,60,5ed4bba6bd73d9482bfc6170,,1,0,81,1,1,80
,,,,,,,,,,,,,,,,,,,,,,,,,,,,,,,,,,,,,,,,,l,2.68200016,HEL,FALSE,,,,,,,105,aigua,Catalan,Sounds/cat_aigua.mp3,2020-06-05_12h49.34.107,TranslationElicitation_eng-prolific,3.2.4,MacIntel,60,5ed4bba6bd73d9482bfc6170,,1,0,81,1,1,80
,,,,,,,,,,,,,,,,,,,,,,,,,,,,,,,,,,,,,,,,,l,2.815999985,HELL,FALSE,,,,,,,105,aigua,Catalan,Sounds/cat_aigua.mp3,2020-06-05_12h49.34.107,TranslationElicitation_eng-prolific,3.2.4,MacIntel,60,5ed4bba6bd73d9482bfc6170,,1,0,81,1,1,80
,,,,,,,,,,,,,,,,,,,,,,,,,,,,,,,,,,,,,,,,,o,2.981000185,HELLO,FALSE,,,,,,,105,aigua,Catalan,Sounds/cat_aigua.mp3,2020-06-05_12h49.34.107,TranslationElicitation_eng-prolific,3.2.4,MacIntel,60,5ed4bba6bd73d9482bfc6170,,1,0,81,1,1,80
,,,,,,,,,,,,,,,,,,,,,,,,,,,,,,,,,,,,,,,,,return,3.599000216,HELLO,FALSE,,,,,,,105,aigua,Catalan,Sounds/cat_aigua.mp3,2020-06-05_12h49.34.107,TranslationElicitation_eng-prolific,3.2.4,MacIntel,60,5ed4bba6bd73d9482bfc6170,3.599000216,1,0,81,1,1,80
,,,,,,,,,,,,,,,,,,,,,,,,,,,,,,,,,,,,,,,,,,,,,,,,,,,105,aigua,Catalan,Sounds/cat_aigua.mp3,2020-06-05_12h49.34.107,TranslationElicitation_eng-prolific,3.2.4,MacIntel,60,5ed4bba6bd73d9482bfc6170,,1,0,81,1,1,80
,,,,,,,,,,,,,,,,,,,,,,,,,,,,,,,,,,,,,,,,,t,1.868000031,T,FALSE,,,,,,,178,taronja,Catalan,Sounds/cat_taronja.mp3,2020-06-05_12h49.34.107,TranslationElicitation_eng-prolific,3.2.4,MacIntel,60,5ed4bba6bd73d9482bfc6170,,1,0,81,70,1,80
,,,,,,,,,,,,,,,,,,,,,,,,,,,,,,,,,,,,,,,,,h,1.934000015,TH,FALSE,,,,,,,178,taronja,Catalan,Sounds/cat_taronja.mp3,2020-06-05_12h49.34.107,TranslationElicitation_eng-prolific,3.2.4,MacIntel,60,5ed4bba6bd73d9482bfc6170,,1,0,81,70,1,80
,,,,,,,,,,,,,,,,,,,,,,,,,,,,,,,,,,,,,,,,,a,2.184000015,THA,FALSE,,,,,,,178,taronja,Catalan,Sounds/cat_taronja.mp3,2020-06-05_12h49.34.107,TranslationElicitation_eng-prolific,3.2.4,MacIntel,60,5ed4bba6bd73d9482bfc6170,,1,0,81,70,1,80
,,,,,,,,,,,,,,,,,,,,,,,,,,,,,,,,,,,,,,,,,n,2.251000166,THAN,FALSE,,,,,,,178,taronja,Catalan,Sounds/cat_taronja.mp3,2020-06-05_12h49.34.107,TranslationElicitation_eng-prolific,3.2.4,MacIntel,60,5ed4bba6bd73d9482bfc6170,,1,0,81,70,1,80
,,,,,,,,,,,,,,,,,,,,,,,,,,,,,,,,,,,,,,,,,k,2.40199995,THANK,FALSE,,,,,,,178,taronja,Catalan,Sounds/cat_taronja.mp3,2020-06-05_12h49.34.107,TranslationElicitation_eng-prolific,3.2.4,MacIntel,60,5ed4bba6bd73d9482bfc6170,,1,0,81,70,1,80
,,,,,,,,,,,,,,,,,,,,,,,,,,,,,,,,,,,,,,,,,space,2.569000006,THANK ,FALSE,,,,,,,178,taronja,Catalan,Sounds/cat_taronja.mp3,2020-06-05_12h49.34.107,TranslationElicitation_eng-prolific,3.2.4,MacIntel,60,5ed4bba6bd73d9482bfc6170,,1,0,81,70,1,80
,,,,,,,,,,,,,,,,,,,,,,,,,,,,,,,,,,,,,,,,,y,2.717000008,THANK Y,FALSE,,,,,,,178,taronja,Catalan,Sounds/cat_taronja.mp3,2020-06-05_12h49.34.107,TranslationElicitation_eng-prolific,3.2.4,MacIntel,60,5ed4bba6bd73d9482bfc6170,,1,0,81,70,1,80
,,,,,,,,,,,,,,,,,,,,,,,,,,,,,,,,,,,,,,,,,o,2.817000151,THANK YO,FALSE,,,,,,,178,taronja,Catalan,Sounds/cat_taronja.mp3,2020-06-05_12h49.34.107,TranslationElicitation_eng-prolific,3.2.4,MacIntel,60,5ed4bba6bd73d9482bfc6170,,1,0,81,70,1,80
,,,,,,,,,,,,,,,,,,,,,,,,,,,,,,,,,,,,,,,,,u,2.983999968,THANK YOU,FALSE,,,,,,,178,taronja,Catalan,Sounds/cat_taronja.mp3,2020-06-05_12h49.34.107,TranslationElicitation_eng-prolific,3.2.4,MacIntel,60,5ed4bba6bd73d9482bfc6170,,1,0,81,70,1,80
,,,,,,,,,,,,,,,,,,,,,,,,,,,,,,,,,,,,,,,,,return,3.219000101,THANK YOU,FALSE,,,,,,,178,taronja,Catalan,Sounds/cat_taronja.mp3,2020-06-05_12h49.34.107,TranslationElicitation_eng-prolific,3.2.4,MacIntel,60,5ed4bba6bd73d9482bfc6170,3.219000101,1,0,81,70,1,80
,,,,,,,,,,,,,,,,,,,,,,,,,,,,,,,,,,,,,,,,,,,,,,,,,,,178,taronja,Catalan,Sounds/cat_taronja.mp3,2020-06-05_12h49.34.107,TranslationElicitation_eng-prolific,3.2.4,MacIntel,60,5ed4bba6bd73d9482bfc6170,,1,0,81,70,1,80
,,,,,,,,,,,,,,,,,,,,,,,,,,,,,,,,,,,,,,,,,p,2.867000103,P,FALSE,,,,,,,156,moto,Catalan,Sounds/cat_moto.mp3,2020-06-05_12h49.34.107,TranslationElicitation_eng-prolific,3.2.4,MacIntel,60,5ed4bba6bd73d9482bfc6170,,1,0,81,49,1,80
,,,,,,,,,,,,,,,,,,,,,,,,,,,,,,,,,,,,,,,,,l,3.049999952,PL,FALSE,,,,,,,156,moto,Catalan,Sounds/cat_moto.mp3,2020-06-05_12h49.34.107,TranslationElicitation_eng-prolific,3.2.4,MacIntel,60,5ed4bba6bd73d9482bfc6170,,1,0,81,49,1,80
,,,,,,,,,,,,,,,,,,,,,,,,,,,,,,,,,,,,,,,,,e,3.184999943,PLE,FALSE,,,,,,,156,moto,Catalan,Sounds/cat_moto.mp3,2020-06-05_12h49.34.107,TranslationElicitation_eng-prolific,3.2.4,MacIntel,60,5ed4bba6bd73d9482bfc6170,,1,0,81,49,1,80
,,,,,,,,,,,,,,,,,,,,,,,,,,,,,,,,,,,,,,,,,a,3.417000055,PLEA,FALSE,,,,,,,156,moto,Catalan,Sounds/cat_moto.mp3,2020-06-05_12h49.34.107,TranslationElicitation_eng-prolific,3.2.4,MacIntel,60,5ed4bba6bd73d9482bfc6170,,1,0,81,49,1,80
,,,,,,,,,,,,,,,,,,,,,,,,,,,,,,,,,,,,,,,,,s,3.617000103,PLEAS,FALSE,,,,,,,156,moto,Catalan,Sounds/cat_moto.mp3,2020-06-05_12h49.34.107,TranslationElicitation_eng-prolific,3.2.4,MacIntel,60,5ed4bba6bd73d9482bfc6170,,1,0,81,49,1,80
,,,,,,,,,,,,,,,,,,,,,,,,,,,,,,,,,,,,,,,,,e,3.868000031,PLEASE,FALSE,,,,,,,156,moto,Catalan,Sounds/cat_moto.mp3,2020-06-05_12h49.34.107,TranslationElicitation_eng-prolific,3.2.4,MacIntel,60,5ed4bba6bd73d9482bfc6170,,1,0,81,49,1,80
,,,,,,,,,,,,,,,,,,,,,,,,,,,,,,,,,,,,,,,,,return,4.286000013,PLEASE,FALSE,,,,,,,156,moto,Catalan,Sounds/cat_moto.mp3,2020-06-05_12h49.34.107,TranslationElicitation_eng-prolific,3.2.4,MacIntel,60,5ed4bba6bd73d9482bfc6170,4.286000013,1,0,81,49,1,80
,,,,,,,,,,,,,,,,,,,,,,,,,,,,,,,,,,,,,,,,,,,,,,,,,,,156,moto,Catalan,Sounds/cat_moto.mp3,2020-06-05_12h49.34.107,TranslationElicitation_eng-prolific,3.2.4,MacIntel,60,5ed4bba6bd73d9482bfc6170,,1,0,81,49,1,80
,,,,,,,,,,,,,,,,,,,,,,,,,,,,,,,,,,,,,,,,,a,2.616999865,A,FALSE,,,,,,,132,estrella,Catalan,Sounds/cat_estrella.mp3,2020-06-05_12h49.34.107,TranslationElicitation_eng-prolific,3.2.4,MacIntel,60,5ed4bba6bd73d9482bfc6170,,1,0,81,26,1,80
,,,,,,,,,,,,,,,,,,,,,,,,,,,,,,,,,,,,,,,,,u,2.75,AU,FALSE,,,,,,,132,estrella,Catalan,Sounds/cat_estrella.mp3,2020-06-05_12h49.34.107,TranslationElicitation_eng-prolific,3.2.4,MacIntel,60,5ed4bba6bd73d9482bfc6170,,1,0,81,26,1,80
,,,,,,,,,,,,,,,,,,,,,,,,,,,,,,,,,,,,,,,,,s,2.850999832,AUS,FALSE,,,,,,,132,estrella,Catalan,Sounds/cat_estrella.mp3,2020-06-05_12h49.34.107,TranslationElicitation_eng-prolific,3.2.4,MacIntel,60,5ed4bba6bd73d9482bfc6170,,1,0,81,26,1,80
,,,,,,,,,,,,,,,,,,,,,,,,,,,,,,,,,,,,,,,,,backspace,3.351999998,AU,TRUE,,,,,,,132,estrella,Catalan,Sounds/cat_estrella.mp3,2020-06-05_12h49.34.107,TranslationElicitation_eng-prolific,3.2.4,MacIntel,60,5ed4bba6bd73d9482bfc6170,,1,0,81,26,1,80
,,,,,,,,,,,,,,,,,,,,,,,,,,,,,,,,,,,,,,,,,backspace,3.51699996,A,TRUE,,,,,,,132,estrella,Catalan,Sounds/cat_estrella.mp3,2020-06-05_12h49.34.107,TranslationElicitation_eng-prolific,3.2.4,MacIntel,60,5ed4bba6bd73d9482bfc6170,,1,0,81,26,1,80
,,,,,,,,,,,,,,,,,,,,,,,,,,,,,,,,,,,,,,,,,backspace,3.684999943,,TRUE,,,,,,,132,estrella,Catalan,Sounds/cat_estrella.mp3,2020-06-05_12h49.34.107,TranslationElicitation_eng-prolific,3.2.4,MacIntel,60,5ed4bba6bd73d9482bfc6170,,1,0,81,26,1,80
,,,,,,,,,,,,,,,,,,,,,,,,,,,,,,,,,,,,,,,,,s,3.81799984,S,TRUE,,,,,,,132,estrella,Catalan,Sounds/cat_estrella.mp3,2020-06-05_12h49.34.107,TranslationElicitation_eng-prolific,3.2.4,MacIntel,60,5ed4bba6bd73d9482bfc6170,,1,0,81,26,1,80
,,,,,,,,,,,,,,,,,,,,,,,,,,,,,,,,,,,,,,,,,t,4.066999912,ST,TRUE,,,,,,,132,estrella,Catalan,Sounds/cat_estrella.mp3,2020-06-05_12h49.34.107,TranslationElicitation_eng-prolific,3.2.4,MacIntel,60,5ed4bba6bd73d9482bfc6170,,1,0,81,26,1,80
,,,,,,,,,,,,,,,,,,,,,,,,,,,,,,,,,,,,,,,,,r,4.234999895,STR,TRUE,,,,,,,132,estrella,Catalan,Sounds/cat_estrella.mp3,2020-06-05_12h49.34.107,TranslationElicitation_eng-prolific,3.2.4,MacIntel,60,5ed4bba6bd73d9482bfc6170,,1,0,81,26,1,80
,,,,,,,,,,,,,,,,,,,,,,,,,,,,,,,,,,,,,,,,,a,4.417999983,STRA,TRUE,,,,,,,132,estrella,Catalan,Sounds/cat_estrella.mp3,2020-06-05_12h49.34.107,TranslationElicitation_eng-prolific,3.2.4,MacIntel,60,5ed4bba6bd73d9482bfc6170,,1,0,81,26,1,80
,,,,,,,,,,,,,,,,,,,,,,,,,,,,,,,,,,,,,,,,,n,4.483999968,STRAN,TRUE,,,,,,,132,estrella,Catalan,Sounds/cat_estrella.mp3,2020-06-05_12h49.34.107,TranslationElicitation_eng-prolific,3.2.4,MacIntel,60,5ed4bba6bd73d9482bfc6170,,1,0,81,26,1,80
,,,,,,,,,,,,,,,,,,,,,,,,,,,,,,,,,,,,,,,,,g,4.63499999,STRANG,TRUE,,,,,,,132,estrella,Catalan,Sounds/cat_estrella.mp3,2020-06-05_12h49.34.107,TranslationElicitation_eng-prolific,3.2.4,MacIntel,60,5ed4bba6bd73d9482bfc6170,,1,0,81,26,1,80
,,,,,,,,,,,,,,,,,,,,,,,,,,,,,,,,,,,,,,,,,e,4.667999983,STRANGE,TRUE,,,,,,,132,estrella,Catalan,Sounds/cat_estrella.mp3,2020-06-05_12h49.34.107,TranslationElicitation_eng-prolific,3.2.4,MacIntel,60,5ed4bba6bd73d9482bfc6170,,1,0,81,26,1,80
,,,,,,,,,,,,,,,,,,,,,,,,,,,,,,,,,,,,,,,,,r,4.818999767,STRANGER,TRUE,,,,,,,132,estrella,Catalan,Sounds/cat_estrella.mp3,2020-06-05_12h49.34.107,TranslationElicitation_eng-prolific,3.2.4,MacIntel,60,5ed4bba6bd73d9482bfc6170,,1,0,81,26,1,80
,,,,,,,,,,,,,,,,,,,,,,,,,,,,,,,,,,,,,,,,,return,4.949999809,STRANGER,TRUE,,,,,,,132,estrella,Catalan,Sounds/cat_estrella.mp3,2020-06-05_12h49.34.107,TranslationElicitation_eng-prolific,3.2.4,MacIntel,60,5ed4bba6bd73d9482bfc6170,4.949999809,1,0,81,26,1,80
,,,,,,,,,,,,,,,,,,,,,,,,,,,,,,,,,,,,,,,,,,,,,,,,,,,132,estrella,Catalan,Sounds/cat_estrella.mp3,2020-06-05_12h49.34.107,TranslationElicitation_eng-prolific,3.2.4,MacIntel,60,5ed4bba6bd73d9482bfc6170,,1,0,81,26,1,80
,,,,,,,,,,,,,,,,,,,,,,,,,,,,,,,,,,,,,,,,,m,14.91599989,M,FALSE,,,,,,,174,porta,Catalan,Sounds/cat_porta.mp3,2020-06-05_12h49.34.107,TranslationElicitation_eng-prolific,3.2.4,MacIntel,60,5ed4bba6bd73d9482bfc6170,,1,0,81,66,1,80
,,,,,,,,,,,,,,,,,,,,,,,,,,,,,,,,,,,,,,,,,o,15.08399987,MO,FALSE,,,,,,,174,porta,Catalan,Sounds/cat_porta.mp3,2020-06-05_12h49.34.107,TranslationElicitation_eng-prolific,3.2.4,MacIntel,60,5ed4bba6bd73d9482bfc6170,,1,0,81,66,1,80
,,,,,,,,,,,,,,,,,,,,,,,,,,,,,,,,,,,,,,,,,r,15.18300009,MOR,FALSE,,,,,,,174,porta,Catalan,Sounds/cat_porta.mp3,2020-06-05_12h49.34.107,TranslationElicitation_eng-prolific,3.2.4,MacIntel,60,5ed4bba6bd73d9482bfc6170,,1,0,81,66,1,80
,,,,,,,,,,,,,,,,,,,,,,,,,,,,,,,,,,,,,,,,,e,15.33299994,MORE,FALSE,,,,,,,174,porta,Catalan,Sounds/cat_porta.mp3,2020-06-05_12h49.34.107,TranslationElicitation_eng-prolific,3.2.4,MacIntel,60,5ed4bba6bd73d9482bfc6170,,1,0,81,66,1,80
,,,,,,,,,,,,,,,,,,,,,,,,,,,,,,,,,,,,,,,,,return,16.03299999,MORE,FALSE,,,,,,,174,porta,Catalan,Sounds/cat_porta.mp3,2020-06-05_12h49.34.107,TranslationElicitation_eng-prolific,3.2.4,MacIntel,60,5ed4bba6bd73d9482bfc6170,16.03299999,1,0,81,66,1,80
,,,,,,,,,,,,,,,,,,,,,,,,,,,,,,,,,,,,,,,,,,,,,,,,,,,174,porta,Catalan,Sounds/cat_porta.mp3,2020-06-05_12h49.34.107,TranslationElicitation_eng-prolific,3.2.4,MacIntel,60,5ed4bba6bd73d9482bfc6170,,1,0,81,66,1,80
,,,,,,,,,,,,,,,,,,,,,,,,,,,,,,,,,,,,,,,,,c,3.665999889,C,FALSE,,,,,,,120,cama,Catalan,Sounds/cat_cama.mp3,2020-06-05_12h49.34.107,TranslationElicitation_eng-prolific,3.2.4,MacIntel,60,5ed4bba6bd73d9482bfc6170,,1,0,81,15,1,80
,,,,,,,,,,,,,,,,,,,,,,,,,,,,,,,,,,,,,,,,,a,3.898999929,CA,FALSE,,,,,,,120,cama,Catalan,Sounds/cat_cama.mp3,2020-06-05_12h49.34.107,TranslationElicitation_eng-prolific,3.2.4,MacIntel,60,5ed4bba6bd73d9482bfc6170,,1,0,81,15,1,80
,,,,,,,,,,,,,,,,,,,,,,,,,,,,,,,,,,,,,,,,,l,3.997999907,CAL,FALSE,,,,,,,120,cama,Catalan,Sounds/cat_cama.mp3,2020-06-05_12h49.34.107,TranslationElicitation_eng-prolific,3.2.4,MacIntel,60,5ed4bba6bd73d9482bfc6170,,1,0,81,15,1,80
,,,,,,,,,,,,,,,,,,,,,,,,,,,,,,,,,,,,,,,,,m,4.248999834,CALM,FALSE,,,,,,,120,cama,Catalan,Sounds/cat_cama.mp3,2020-06-05_12h49.34.107,TranslationElicitation_eng-prolific,3.2.4,MacIntel,60,5ed4bba6bd73d9482bfc6170,,1,0,81,15,1,80
,,,,,,,,,,,,,,,,,,,,,,,,,,,,,,,,,,,,,,,,,return,7.684999943,CALM,FALSE,,,,,,,120,cama,Catalan,Sounds/cat_cama.mp3,2020-06-05_12h49.34.107,TranslationElicitation_eng-prolific,3.2.4,MacIntel,60,5ed4bba6bd73d9482bfc6170,7.684999943,1,0,81,15,1,80
,,,,,,,,,,,,,,,,,,,,,,,,,,,,,,,,,,,,,,,,,,,,,,,,,,,120,cama,Catalan,Sounds/cat_cama.mp3,2020-06-05_12h49.34.107,TranslationElicitation_eng-prolific,3.2.4,MacIntel,60,5ed4bba6bd73d9482bfc6170,,1,0,81,15,1,80
,,,,,,,,,,,,,,,,,,,,,,,,,,,,,,,,,,,,,,,,,o,2.582999945,O,FALSE,,,,,,,181,tobogan,Catalan,Sounds/cat_tobogan.mp3,2020-06-05_12h49.34.107,TranslationElicitation_eng-prolific,3.2.4,MacIntel,60,5ed4bba6bd73d9482bfc6170,,1,0,81,72,1,80
,,,,,,,,,,,,,,,,,,,,,,,,,,,,,,,,,,,,,,,,,e,2.90199995,OE,FALSE,,,,,,,181,tobogan,Catalan,Sounds/cat_tobogan.mp3,2020-06-05_12h49.34.107,TranslationElicitation_eng-prolific,3.2.4,MacIntel,60,5ed4bba6bd73d9482bfc6170,,1,0,81,72,1,80
,,,,,,,,,,,,,,,,,,,,,,,,,,,,,,,,,,,,,,,,,backspace,3.217999935,O,TRUE,,,,,,,181,tobogan,Catalan,Sounds/cat_tobogan.mp3,2020-06-05_12h49.34.107,TranslationElicitation_eng-prolific,3.2.4,MacIntel,60,5ed4bba6bd73d9482bfc6170,,1,0,81,72,1,80
,,,,,,,,,,,,,,,,,,,,,,,,,,,,,,,,,,,,,,,,,n,3.48300004,ON,TRUE,,,,,,,181,tobogan,Catalan,Sounds/cat_tobogan.mp3,2020-06-05_12h49.34.107,TranslationElicitation_eng-prolific,3.2.4,MacIntel,60,5ed4bba6bd73d9482bfc6170,,1,0,81,72,1,80
,,,,,,,,,,,,,,,,,,,,,,,,,,,,,,,,,,,,,,,,,e,3.583999872,ONE,TRUE,,,,,,,181,tobogan,Catalan,Sounds/cat_tobogan.mp3,2020-06-05_12h49.34.107,TranslationElicitation_eng-prolific,3.2.4,MacIntel,60,5ed4bba6bd73d9482bfc6170,,1,0,81,72,1,80
,,,,,,,,,,,,,,,,,,,,,,,,,,,,,,,,,,,,,,,,,return,4.068000078,ONE,TRUE,,,,,,,181,tobogan,Catalan,Sounds/cat_tobogan.mp3,2020-06-05_12h49.34.107,TranslationElicitation_eng-prolific,3.2.4,MacIntel,60,5ed4bba6bd73d9482bfc6170,4.068000078,1,0,81,72,1,80
,,,,,,,,,,,,,,,,,,,,,,,,,,,,,,,,,,,,,,,,,,,,,,,,,,,181,tobogan,Catalan,Sounds/cat_tobogan.mp3,2020-06-05_12h49.34.107,TranslationElicitation_eng-prolific,3.2.4,MacIntel,60,5ed4bba6bd73d9482bfc6170,,1,0,81,72,1,80
,,,,,,,,,,,,,,,,,,,,,,,,,,,,,,,,,,,,,,,,,n,21.96800017,N,FALSE,,,,,,,104,abella,Catalan,Sounds/cat_abella.mp3,2020-06-05_12h49.34.107,TranslationElicitation_eng-prolific,3.2.4,MacIntel,60,5ed4bba6bd73d9482bfc6170,,1,0,81,0,1,80
,,,,,,,,,,,,,,,,,,,,,,,,,,,,,,,,,,,,,,,,,o,22.15100002,NO,FALSE,,,,,,,104,abella,Catalan,Sounds/cat_abella.mp3,2020-06-05_12h49.34.107,TranslationElicitation_eng-prolific,3.2.4,MacIntel,60,5ed4bba6bd73d9482bfc6170,,1,0,81,0,1,80
,,,,,,,,,,,,,,,,,,,,,,,,,,,,,,,,,,,,,,,,,return,22.75100017,NO,FALSE,,,,,,,104,abella,Catalan,Sounds/cat_abella.mp3,2020-06-05_12h49.34.107,TranslationElicitation_eng-prolific,3.2.4,MacIntel,60,5ed4bba6bd73d9482bfc6170,22.75100017,1,0,81,0,1,80
,,,,,,,,,,,,,,,,,,,,,,,,,,,,,,,,,,,,,,,,,,,,,,,,,,,104,abella,Catalan,Sounds/cat_abella.mp3,2020-06-05_12h49.34.107,TranslationElicitation_eng-prolific,3.2.4,MacIntel,60,5ed4bba6bd73d9482bfc6170,,1,0,81,0,1,80
,,,,,,,,,,,,,,,,,,,,,,,,,,,,,,,,,,,,,,,,,y,9.019000053,Y,FALSE,,,,,,,143,globus,Catalan,Sounds/cat_globus.mp3,2020-06-05_12h49.34.107,TranslationElicitation_eng-prolific,3.2.4,MacIntel,60,5ed4bba6bd73d9482bfc6170,,1,0,81,37,1,80
,,,,,,,,,,,,,,,,,,,,,,,,,,,,,,,,,,,,,,,,,e,9.132999897,YE,FALSE,,,,,,,143,globus,Catalan,Sounds/cat_globus.mp3,2020-06-05_12h49.34.107,TranslationElicitation_eng-prolific,3.2.4,MacIntel,60,5ed4bba6bd73d9482bfc6170,,1,0,81,37,1,80
,,,,,,,,,,,,,,,,,,,,,,,,,,,,,,,,,,,,,,,,,s,9.315999985,YES,FALSE,,,,,,,143,globus,Catalan,Sounds/cat_globus.mp3,2020-06-05_12h49.34.107,TranslationElicitation_eng-prolific,3.2.4,MacIntel,60,5ed4bba6bd73d9482bfc6170,,1,0,81,37,1,80
,,,,,,,,,,,,,,,,,,,,,,,,,,,,,,,,,,,,,,,,,return,9.651000023,YES,FALSE,,,,,,,143,globus,Catalan,Sounds/cat_globus.mp3,2020-06-05_12h49.34.107,TranslationElicitation_eng-prolific,3.2.4,MacIntel,60,5ed4bba6bd73d9482bfc6170,9.651000023,1,0,81,37,1,80
,,,,,,,,,,,,,,,,,,,,,,,,,,,,,,,,,,,,,,,,,,,,,,,,,,,143,globus,Catalan,Sounds/cat_globus.mp3,2020-06-05_12h49.34.107,TranslationElicitation_eng-prolific,3.2.4,MacIntel,60,5ed4bba6bd73d9482bfc6170,,1,0,81,37,1,80
,,,,,,,,,,,,,,,,,,,,,,,,,,,,,,,,,,,,,,,,,m,47.23700023,M,FALSE,,,,,,,142,girafa,Catalan,Sounds/cat_girafa.mp3,2020-06-05_12h49.34.107,TranslationElicitation_eng-prolific,3.2.4,MacIntel,60,5ed4bba6bd73d9482bfc6170,,1,0,81,36,1,80
,,,,,,,,,,,,,,,,,,,,,,,,,,,,,,,,,,,,,,,,,a,47.52100015,MA,FALSE,,,,,,,142,girafa,Catalan,Sounds/cat_girafa.mp3,2020-06-05_12h49.34.107,TranslationElicitation_eng-prolific,3.2.4,MacIntel,60,5ed4bba6bd73d9482bfc6170,,1,0,81,36,1,80
,,,,,,,,,,,,,,,,,,,,,,,,,,,,,,,,,,,,,,,,,n,47.92200017,MAN,FALSE,,,,,,,142,girafa,Catalan,Sounds/cat_girafa.mp3,2020-06-05_12h49.34.107,TranslationElicitation_eng-prolific,3.2.4,MacIntel,60,5ed4bba6bd73d9482bfc6170,,1,0,81,36,1,80
,,,,,,,,,,,,,,,,,,,,,,,,,,,,,,,,,,,,,,,,,return,48.3210001,MAN,FALSE,,,,,,,142,girafa,Catalan,Sounds/cat_girafa.mp3,2020-06-05_12h49.34.107,TranslationElicitation_eng-prolific,3.2.4,MacIntel,60,5ed4bba6bd73d9482bfc6170,48.3210001,1,0,81,36,1,80
,,,,,,,,,,,,,,,,,,,,,,,,,,,,,,,,,,,,,,,,,,,,,,,,,,,142,girafa,Catalan,Sounds/cat_girafa.mp3,2020-06-05_12h49.34.107,TranslationElicitation_eng-prolific,3.2.4,MacIntel,60,5ed4bba6bd73d9482bfc6170,,1,0,81,36,1,80
,,,,,,,,,,,,,,,,,,,,,,,,,,,,,,,,,,,,,,,,,d,16.06699991,D,FALSE,,,,,,,128,cuc,Catalan,Sounds/cat_cuc.mp3,2020-06-05_12h49.34.107,TranslationElicitation_eng-prolific,3.2.4,MacIntel,60,5ed4bba6bd73d9482bfc6170,,1,0,81,22,1,80
,,,,,,,,,,,,,,,,,,,,,,,,,,,,,,,,,,,,,,,,,o,16.50200009,DO,FALSE,,,,,,,128,cuc,Catalan,Sounds/cat_cuc.mp3,2020-06-05_12h49.34.107,TranslationElicitation_eng-prolific,3.2.4,MacIntel,60,5ed4bba6bd73d9482bfc6170,,1,0,81,22,1,80
,,,,,,,,,,,,,,,,,,,,,,,,,,,,,,,,,,,,,,,,,g,16.76699996,DOG,FALSE,,,,,,,128,cuc,Catalan,Sounds/cat_cuc.mp3,2020-06-05_12h49.34.107,TranslationElicitation_eng-prolific,3.2.4,MacIntel,60,5ed4bba6bd73d9482bfc6170,,1,0,81,22,1,80
,,,,,,,,,,,,,,,,,,,,,,,,,,,,,,,,,,,,,,,,,return,17.76699996,DOG,FALSE,,,,,,,128,cuc,Catalan,Sounds/cat_cuc.mp3,2020-06-05_12h49.34.107,TranslationElicitation_eng-prolific,3.2.4,MacIntel,60,5ed4bba6bd73d9482bfc6170,17.76699996,1,0,81,22,1,80
,,,,,,,,,,,,,,,,,,,,,,,,,,,,,,,,,,,,,,,,,,,,,,,,,,,128,cuc,Catalan,Sounds/cat_cuc.mp3,2020-06-05_12h49.34.107,TranslationElicitation_eng-prolific,3.2.4,MacIntel,60,5ed4bba6bd73d9482bfc6170,,1,0,81,22,1,80
,,,,,,,,,,,,,,,,,,,,,,,,,,,,,,,,,,,,,,,,,z,2.182999849,Z,FALSE,,,,,,,189,zebra,Catalan,Sounds/cat_zebra.mp3,2020-06-05_12h49.34.107,TranslationElicitation_eng-prolific,3.2.4,MacIntel,60,5ed4bba6bd73d9482bfc6170,,1,0,81,80,1,80
,,,,,,,,,,,,,,,,,,,,,,,,,,,,,,,,,,,,,,,,,e,2.432999849,ZE,FALSE,,,,,,,189,zebra,Catalan,Sounds/cat_zebra.mp3,2020-06-05_12h49.34.107,TranslationElicitation_eng-prolific,3.2.4,MacIntel,60,5ed4bba6bd73d9482bfc6170,,1,0,81,80,1,80
,,,,,,,,,,,,,,,,,,,,,,,,,,,,,,,,,,,,,,,,,b,2.80099988,ZEB,FALSE,,,,,,,189,zebra,Catalan,Sounds/cat_zebra.mp3,2020-06-05_12h49.34.107,TranslationElicitation_eng-prolific,3.2.4,MacIntel,60,5ed4bba6bd73d9482bfc6170,,1,0,81,80,1,80
,,,,,,,,,,,,,,,,,,,,,,,,,,,,,,,,,,,,,,,,,r,3.032999992,ZEBR,FALSE,,,,,,,189,zebra,Catalan,Sounds/cat_zebra.mp3,2020-06-05_12h49.34.107,TranslationElicitation_eng-prolific,3.2.4,MacIntel,60,5ed4bba6bd73d9482bfc6170,,1,0,81,80,1,80
,,,,,,,,,,,,,,,,,,,,,,,,,,,,,,,,,,,,,,,,,a,3.265999794,ZEBRA,FALSE,,,,,,,189,zebra,Catalan,Sounds/cat_zebra.mp3,2020-06-05_12h49.34.107,TranslationElicitation_eng-prolific,3.2.4,MacIntel,60,5ed4bba6bd73d9482bfc6170,,1,0,81,80,1,80
,,,,,,,,,,,,,,,,,,,,,,,,,,,,,,,,,,,,,,,,,return,3.801999807,ZEBRA,FALSE,,,,,,,189,zebra,Catalan,Sounds/cat_zebra.mp3,2020-06-05_12h49.34.107,TranslationElicitation_eng-prolific,3.2.4,MacIntel,60,5ed4bba6bd73d9482bfc6170,3.801999807,1,0,81,80,1,80
,,,,,,,,,,,,,,,,,,,,,,,,,,,,,,,,,,,,,,,,,,,,,,,,,,,189,zebra,Catalan,Sounds/cat_zebra.mp3,2020-06-05_12h49.34.107,TranslationElicitation_eng-prolific,3.2.4,MacIntel,60,5ed4bba6bd73d9482bfc6170,,1,0,81,80,1,80
,,,,,,,,,,,,,,,,,,,,,,,,,,,,,,,,,,,,,,,,,f,3.548000097,F,FALSE,,,,,,,136,forquilla,Catalan,Sounds/cat_forquilla.mp3,2020-06-05_12h49.34.107,TranslationElicitation_eng-prolific,3.2.4,MacIntel,60,5ed4bba6bd73d9482bfc6170,,1,0,81,30,1,80
,,,,,,,,,,,,,,,,,,,,,,,,,,,,,,,,,,,,,,,,,o,3.882999897,FO,FALSE,,,,,,,136,forquilla,Catalan,Sounds/cat_forquilla.mp3,2020-06-05_12h49.34.107,TranslationElicitation_eng-prolific,3.2.4,MacIntel,60,5ed4bba6bd73d9482bfc6170,,1,0,81,30,1,80
,,,,,,,,,,,,,,,,,,,,,,,,,,,,,,,,,,,,,,,,,o,4,FOO,FALSE,,,,,,,136,forquilla,Catalan,Sounds/cat_forquilla.mp3,2020-06-05_12h49.34.107,TranslationElicitation_eng-prolific,3.2.4,MacIntel,60,5ed4bba6bd73d9482bfc6170,,1,0,81,30,1,80
,,,,,,,,,,,,,,,,,,,,,,,,,,,,,,,,,,,,,,,,,t,4.250999928,FOOT,FALSE,,,,,,,136,forquilla,Catalan,Sounds/cat_forquilla.mp3,2020-06-05_12h49.34.107,TranslationElicitation_eng-prolific,3.2.4,MacIntel,60,5ed4bba6bd73d9482bfc6170,,1,0,81,30,1,80
,,,,,,,,,,,,,,,,,,,,,,,,,,,,,,,,,,,,,,,,,b,4.450000048,FOOTB,FALSE,,,,,,,136,forquilla,Catalan,Sounds/cat_forquilla.mp3,2020-06-05_12h49.34.107,TranslationElicitation_eng-prolific,3.2.4,MacIntel,60,5ed4bba6bd73d9482bfc6170,,1,0,81,30,1,80
,,,,,,,,,,,,,,,,,,,,,,,,,,,,,,,,,,,,,,,,,a,4.749000072,FOOTBA,FALSE,,,,,,,136,forquilla,Catalan,Sounds/cat_forquilla.mp3,2020-06-05_12h49.34.107,TranslationElicitation_eng-prolific,3.2.4,MacIntel,60,5ed4bba6bd73d9482bfc6170,,1,0,81,30,1,80
,,,,,,,,,,,,,,,,,,,,,,,,,,,,,,,,,,,,,,,,,l,5.315999985,FOOTBAL,FALSE,,,,,,,136,forquilla,Catalan,Sounds/cat_forquilla.mp3,2020-06-05_12h49.34.107,TranslationElicitation_eng-prolific,3.2.4,MacIntel,60,5ed4bba6bd73d9482bfc6170,,1,0,81,30,1,80
,,,,,,,,,,,,,,,,,,,,,,,,,,,,,,,,,,,,,,,,,l,5.440999985,FOOTBALL,FALSE,,,,,,,136,forquilla,Catalan,Sounds/cat_forquilla.mp3,2020-06-05_12h49.34.107,TranslationElicitation_eng-prolific,3.2.4,MacIntel,60,5ed4bba6bd73d9482bfc6170,,1,0,81,30,1,80
,,,,,,,,,,,,,,,,,,,,,,,,,,,,,,,,,,,,,,,,,return,5.749000072,FOOTBALL,FALSE,,,,,,,136,forquilla,Catalan,Sounds/cat_forquilla.mp3,2020-06-05_12h49.34.107,TranslationElicitation_eng-prolific,3.2.4,MacIntel,60,5ed4bba6bd73d9482bfc6170,5.749000072,1,0,81,30,1,80
,,,,,,,,,,,,,,,,,,,,,,,,,,,,,,,,,,,,,,,,,,,,,,,,,,,136,forquilla,Catalan,Sounds/cat_forquilla.mp3,2020-06-05_12h49.34.107,TranslationElicitation_eng-prolific,3.2.4,MacIntel,60,5ed4bba6bd73d9482bfc6170,,1,0,81,30,1,80
,,,,,,,,,,,,,,,,,,,,,,,,,,,,,,,,,,,,,,,,,k,4.299000025,K,FALSE,,,,,,,119,caixa,Catalan,Sounds/cat_caixa.mp3,2020-06-05_12h49.34.107,TranslationElicitation_eng-prolific,3.2.4,MacIntel,60,5ed4bba6bd73d9482bfc6170,,1,0,81,14,1,80
,,,,,,,,,,,,,,,,,,,,,,,,,,,,,,,,,,,,,,,,,i,4.414999962,KI,FALSE,,,,,,,119,caixa,Catalan,Sounds/cat_caixa.mp3,2020-06-05_12h49.34.107,TranslationElicitation_eng-prolific,3.2.4,MacIntel,60,5ed4bba6bd73d9482bfc6170,,1,0,81,14,1,80
,,,,,,,,,,,,,,,,,,,,,,,,,,,,,,,,,,,,,,,,,t,4.649000168,KIT,FALSE,,,,,,,119,caixa,Catalan,Sounds/cat_caixa.mp3,2020-06-05_12h49.34.107,TranslationElicitation_eng-prolific,3.2.4,MacIntel,60,5ed4bba6bd73d9482bfc6170,,1,0,81,14,1,80
,,,,,,,,,,,,,,,,,,,,,,,,,,,,,,,,,,,,,,,,,e,4.84800005,KITE,FALSE,,,,,,,119,caixa,Catalan,Sounds/cat_caixa.mp3,2020-06-05_12h49.34.107,TranslationElicitation_eng-prolific,3.2.4,MacIntel,60,5ed4bba6bd73d9482bfc6170,,1,0,81,14,1,80
,,,,,,,,,,,,,,,,,,,,,,,,,,,,,,,,,,,,,,,,,return,5.265000105,KITE,FALSE,,,,,,,119,caixa,Catalan,Sounds/cat_caixa.mp3,2020-06-05_12h49.34.107,TranslationElicitation_eng-prolific,3.2.4,MacIntel,60,5ed4bba6bd73d9482bfc6170,5.265000105,1,0,81,14,1,80
,,,,,,,,,,,,,,,,,,,,,,,,,,,,,,,,,,,,,,,,,,,,,,,,,,,119,caixa,Catalan,Sounds/cat_caixa.mp3,2020-06-05_12h49.34.107,TranslationElicitation_eng-prolific,3.2.4,MacIntel,60,5ed4bba6bd73d9482bfc6170,,1,0,81,14,1,80
,,,,,,,,,,,,,,,,,,,,,,,,,,,,,,,,,,,,,,,,,v,4.26699996,V,FALSE,,,,,,,165,pernil,Catalan,Sounds/cat_pernil.mp3,2020-06-05_12h49.34.107,TranslationElicitation_eng-prolific,3.2.4,MacIntel,60,5ed4bba6bd73d9482bfc6170,,1,0,81,57,1,80
,,,,,,,,,,,,,,,,,,,,,,,,,,,,,,,,,,,,,,,,,e,4.467999935,VE,FALSE,,,,,,,165,pernil,Catalan,Sounds/cat_pernil.mp3,2020-06-05_12h49.34.107,TranslationElicitation_eng-prolific,3.2.4,MacIntel,60,5ed4bba6bd73d9482bfc6170,,1,0,81,57,1,80
,,,,,,,,,,,,,,,,,,,,,,,,,,,,,,,,,,,,,,,,,r,4.618999958,VER,FALSE,,,,,,,165,pernil,Catalan,Sounds/cat_pernil.mp3,2020-06-05_12h49.34.107,TranslationElicitation_eng-prolific,3.2.4,MacIntel,60,5ed4bba6bd73d9482bfc6170,,1,0,81,57,1,80
,,,,,,,,,,,,,,,,,,,,,,,,,,,,,,,,,,,,,,,,,m,5.001999855,VERM,FALSE,,,,,,,165,pernil,Catalan,Sounds/cat_pernil.mp3,2020-06-05_12h49.34.107,TranslationElicitation_eng-prolific,3.2.4,MacIntel,60,5ed4bba6bd73d9482bfc6170,,1,0,81,57,1,80
,,,,,,,,,,,,,,,,,,,,,,,,,,,,,,,,,,,,,,,,,i,5.184000015,VERMI,FALSE,,,,,,,165,pernil,Catalan,Sounds/cat_pernil.mp3,2020-06-05_12h49.34.107,TranslationElicitation_eng-prolific,3.2.4,MacIntel,60,5ed4bba6bd73d9482bfc6170,,1,0,81,57,1,80
,,,,,,,,,,,,,,,,,,,,,,,,,,,,,,,,,,,,,,,,,n,5.366999865,VERMIN,FALSE,,,,,,,165,pernil,Catalan,Sounds/cat_pernil.mp3,2020-06-05_12h49.34.107,TranslationElicitation_eng-prolific,3.2.4,MacIntel,60,5ed4bba6bd73d9482bfc6170,,1,0,81,57,1,80
,,,,,,,,,,,,,,,,,,,,,,,,,,,,,,,,,,,,,,,,,return,5.782999992,VERMIN,FALSE,,,,,,,165,pernil,Catalan,Sounds/cat_pernil.mp3,2020-06-05_12h49.34.107,TranslationElicitation_eng-prolific,3.2.4,MacIntel,60,5ed4bba6bd73d9482bfc6170,5.782999992,1,0,81,57,1,80
,,,,,,,,,,,,,,,,,,,,,,,,,,,,,,,,,,,,,,,,,,,,,,,,,,,165,pernil,Catalan,Sounds/cat_pernil.mp3,2020-06-05_12h49.34.107,TranslationElicitation_eng-prolific,3.2.4,MacIntel,60,5ed4bba6bd73d9482bfc6170,,1,0,81,57,1,80
,,,,,,,,,,,,,,,,,,,,,,,,,,,,,,,,,,,,,,,,,s,2.482999802,S,FALSE,,,,,,,124,cirera,Catalan,Sounds/cat_cirera.mp3,2020-06-05_12h49.34.107,TranslationElicitation_eng-prolific,3.2.4,MacIntel,60,5ed4bba6bd73d9482bfc6170,,1,0,81,19,1,80
,,,,,,,,,,,,,,,,,,,,,,,,,,,,,,,,,,,,,,,,,u,2.833999872,SU,FALSE,,,,,,,124,cirera,Catalan,Sounds/cat_cirera.mp3,2020-06-05_12h49.34.107,TranslationElicitation_eng-prolific,3.2.4,MacIntel,60,5ed4bba6bd73d9482bfc6170,,1,0,81,19,1,80
,,,,,,,,,,,,,,,,,,,,,,,,,,,,,,,,,,,,,,,,,n,3.048999786,SUN,FALSE,,,,,,,124,cirera,Catalan,Sounds/cat_cirera.mp3,2020-06-05_12h49.34.107,TranslationElicitation_eng-prolific,3.2.4,MacIntel,60,5ed4bba6bd73d9482bfc6170,,1,0,81,19,1,80
,,,,,,,,,,,,,,,,,,,,,,,,,,,,,,,,,,,,,,,,,return,3.53399992,SUN,FALSE,,,,,,,124,cirera,Catalan,Sounds/cat_cirera.mp3,2020-06-05_12h49.34.107,TranslationElicitation_eng-prolific,3.2.4,MacIntel,60,5ed4bba6bd73d9482bfc6170,3.53399992,1,0,81,19,1,80
,,,,,,,,,,,,,,,,,,,,,,,,,,,,,,,,,,,,,,,,,,,,,,,,,,,124,cirera,Catalan,Sounds/cat_cirera.mp3,2020-06-05_12h49.34.107,TranslationElicitation_eng-prolific,3.2.4,MacIntel,60,5ed4bba6bd73d9482bfc6170,,1,0,81,19,1,80
,,,,,,,,,,,,,,,,,,,,,,,,,,,,,,,,,,,,,,,,,s,6.066999912,S,FALSE,,,,,,,170,ploma,Catalan,Sounds/cat_ploma.mp3,2020-06-05_12h49.34.107,TranslationElicitation_eng-prolific,3.2.4,MacIntel,60,5ed4bba6bd73d9482bfc6170,,1,0,81,62,1,80
,,,,,,,,,,,,,,,,,,,,,,,,,,,,,,,,,,,,,,,,,t,6.316999912,ST,FALSE,,,,,,,170,ploma,Catalan,Sounds/cat_ploma.mp3,2020-06-05_12h49.34.107,TranslationElicitation_eng-prolific,3.2.4,MacIntel,60,5ed4bba6bd73d9482bfc6170,,1,0,81,62,1,80
,,,,,,,,,,,,,,,,,,,,,,,,,,,,,,,,,,,,,,,,,a,6.5849998,STA,FALSE,,,,,,,170,ploma,Catalan,Sounds/cat_ploma.mp3,2020-06-05_12h49.34.107,TranslationElicitation_eng-prolific,3.2.4,MacIntel,60,5ed4bba6bd73d9482bfc6170,,1,0,81,62,1,80
,,,,,,,,,,,,,,,,,,,,,,,,,,,,,,,,,,,,,,,,,d,6.883999825,STAD,FALSE,,,,,,,170,ploma,Catalan,Sounds/cat_ploma.mp3,2020-06-05_12h49.34.107,TranslationElicitation_eng-prolific,3.2.4,MacIntel,60,5ed4bba6bd73d9482bfc6170,,1,0,81,62,1,80
,,,,,,,,,,,,,,,,,,,,,,,,,,,,,,,,,,,,,,,,,i,7.467999935,STADI,FALSE,,,,,,,170,ploma,Catalan,Sounds/cat_ploma.mp3,2020-06-05_12h49.34.107,TranslationElicitation_eng-prolific,3.2.4,MacIntel,60,5ed4bba6bd73d9482bfc6170,,1,0,81,62,1,80
,,,,,,,,,,,,,,,,,,,,,,,,,,,,,,,,,,,,,,,,,u,7.65199995,STADIU,FALSE,,,,,,,170,ploma,Catalan,Sounds/cat_ploma.mp3,2020-06-05_12h49.34.107,TranslationElicitation_eng-prolific,3.2.4,MacIntel,60,5ed4bba6bd73d9482bfc6170,,1,0,81,62,1,80
,,,,,,,,,,,,,,,,,,,,,,,,,,,,,,,,,,,,,,,,,m,7.88499999,STADIUM,FALSE,,,,,,,170,ploma,Catalan,Sounds/cat_ploma.mp3,2020-06-05_12h49.34.107,TranslationElicitation_eng-prolific,3.2.4,MacIntel,60,5ed4bba6bd73d9482bfc6170,,1,0,81,62,1,80
,,,,,,,,,,,,,,,,,,,,,,,,,,,,,,,,,,,,,,,,,return,8.26699996,STADIUM,FALSE,,,,,,,170,ploma,Catalan,Sounds/cat_ploma.mp3,2020-06-05_12h49.34.107,TranslationElicitation_eng-prolific,3.2.4,MacIntel,60,5ed4bba6bd73d9482bfc6170,8.26699996,1,0,81,62,1,80
,,,,,,,,,,,,,,,,,,,,,,,,,,,,,,,,,,,,,,,,,,,,,,,,,,,170,ploma,Catalan,Sounds/cat_ploma.mp3,2020-06-05_12h49.34.107,TranslationElicitation_eng-prolific,3.2.4,MacIntel,60,5ed4bba6bd73d9482bfc6170,,1,0,81,62,1,80
,,,,,,,,,,,,,,,,,,,,,,,,,,,,,,,,,,,,,,,,,s,5.015000105,S,FALSE,,,,,,,177,sol,Catalan,Sounds/cat_sol.mp3,2020-06-05_12h49.34.107,TranslationElicitation_eng-prolific,3.2.4,MacIntel,60,5ed4bba6bd73d9482bfc6170,,1,0,81,69,1,80
,,,,,,,,,,,,,,,,,,,,,,,,,,,,,,,,,,,,,,,,,h,5.414999962,SH,FALSE,,,,,,,177,sol,Catalan,Sounds/cat_sol.mp3,2020-06-05_12h49.34.107,TranslationElicitation_eng-prolific,3.2.4,MacIntel,60,5ed4bba6bd73d9482bfc6170,,1,0,81,69,1,80
,,,,,,,,,,,,,,,,,,,,,,,,,,,,,,,,,,,,,,,,,e,5.680999994,SHE,FALSE,,,,,,,177,sol,Catalan,Sounds/cat_sol.mp3,2020-06-05_12h49.34.107,TranslationElicitation_eng-prolific,3.2.4,MacIntel,60,5ed4bba6bd73d9482bfc6170,,1,0,81,69,1,80
,,,,,,,,,,,,,,,,,,,,,,,,,,,,,,,,,,,,,,,,,l,6.148000002,SHEL,FALSE,,,,,,,177,sol,Catalan,Sounds/cat_sol.mp3,2020-06-05_12h49.34.107,TranslationElicitation_eng-prolific,3.2.4,MacIntel,60,5ed4bba6bd73d9482bfc6170,,1,0,81,69,1,80
,,,,,,,,,,,,,,,,,,,,,,,,,,,,,,,,,,,,,,,,,l,6.266000032,SHELL,FALSE,,,,,,,177,sol,Catalan,Sounds/cat_sol.mp3,2020-06-05_12h49.34.107,TranslationElicitation_eng-prolific,3.2.4,MacIntel,60,5ed4bba6bd73d9482bfc6170,,1,0,81,69,1,80
,,,,,,,,,,,,,,,,,,,,,,,,,,,,,,,,,,,,,,,,,return,6.68200016,SHELL,FALSE,,,,,,,177,sol,Catalan,Sounds/cat_sol.mp3,2020-06-05_12h49.34.107,TranslationElicitation_eng-prolific,3.2.4,MacIntel,60,5ed4bba6bd73d9482bfc6170,6.68200016,1,0,81,69,1,80
,,,,,,,,,,,,,,,,,,,,,,,,,,,,,,,,,,,,,,,,,,,,,,,,,,,177,sol,Catalan,Sounds/cat_sol.mp3,2020-06-05_12h49.34.107,TranslationElicitation_eng-prolific,3.2.4,MacIntel,60,5ed4bba6bd73d9482bfc6170,,1,0,81,69,1,80
,,,,,,,,,,,,,,,,,,,,,,,,,,,,,,,,,,,,,,,,,c,2.665999889,C,FALSE,,,,,,,122,casa,Catalan,Sounds/cat_casa.mp3,2020-06-05_12h49.34.107,TranslationElicitation_eng-prolific,3.2.4,MacIntel,60,5ed4bba6bd73d9482bfc6170,,1,0,81,17,1,80
,,,,,,,,,,,,,,,,,,,,,,,,,,,,,,,,,,,,,,,,,a,2.899999857,CA,FALSE,,,,,,,122,casa,Catalan,Sounds/cat_casa.mp3,2020-06-05_12h49.34.107,TranslationElicitation_eng-prolific,3.2.4,MacIntel,60,5ed4bba6bd73d9482bfc6170,,1,0,81,17,1,80
,,,,,,,,,,,,,,,,,,,,,,,,,,,,,,,,,,,,,,,,,r,3.166999817,CAR,FALSE,,,,,,,122,casa,Catalan,Sounds/cat_casa.mp3,2020-06-05_12h49.34.107,TranslationElicitation_eng-prolific,3.2.4,MacIntel,60,5ed4bba6bd73d9482bfc6170,,1,0,81,17,1,80
,,,,,,,,,,,,,,,,,,,,,,,,,,,,,,,,,,,,,,,,,return,3.651000023,CAR,FALSE,,,,,,,122,casa,Catalan,Sounds/cat_casa.mp3,2020-06-05_12h49.34.107,TranslationElicitation_eng-prolific,3.2.4,MacIntel,60,5ed4bba6bd73d9482bfc6170,3.651000023,1,0,81,17,1,80
,,,,,,,,,,,,,,,,,,,,,,,,,,,,,,,,,,,,,,,,,,,,,,,,,,,122,casa,Catalan,Sounds/cat_casa.mp3,2020-06-05_12h49.34.107,TranslationElicitation_eng-prolific,3.2.4,MacIntel,60,5ed4bba6bd73d9482bfc6170,,1,0,81,17,1,80
,,,,,,,,,,,,,,,,,,,,,,,,,,,,,,,,,,,,,,,,,b,2.016000032,B,FALSE,,,,,,,114,bol,Catalan,Sounds/cat_bol.mp3,2020-06-05_12h49.34.107,TranslationElicitation_eng-prolific,3.2.4,MacIntel,60,5ed4bba6bd73d9482bfc6170,,1,0,81,9,1,80
,,,,,,,,,,,,,,,,,,,,,,,,,,,,,,,,,,,,,,,,,a,2.300000191,BA,FALSE,,,,,,,114,bol,Catalan,Sounds/cat_bol.mp3,2020-06-05_12h49.34.107,TranslationElicitation_eng-prolific,3.2.4,MacIntel,60,5ed4bba6bd73d9482bfc6170,,1,0,81,9,1,80
,,,,,,,,,,,,,,,,,,,,,,,,,,,,,,,,,,,,,,,,,l,2.782999992,BAL,FALSE,,,,,,,114,bol,Catalan,Sounds/cat_bol.mp3,2020-06-05_12h49.34.107,TranslationElicitation_eng-prolific,3.2.4,MacIntel,60,5ed4bba6bd73d9482bfc6170,,1,0,81,9,1,80
,,,,,,,,,,,,,,,,,,,,,,,,,,,,,,,,,,,,,,,,,l,2.927000046,BALL,FALSE,,,,,,,114,bol,Catalan,Sounds/cat_bol.mp3,2020-06-05_12h49.34.107,TranslationElicitation_eng-prolific,3.2.4,MacIntel,60,5ed4bba6bd73d9482bfc6170,,1,0,81,9,1,80
,,,,,,,,,,,,,,,,,,,,,,,,,,,,,,,,,,,,,,,,,return,4.032999992,BALL,FALSE,,,,,,,114,bol,Catalan,Sounds/cat_bol.mp3,2020-06-05_12h49.34.107,TranslationElicitation_eng-prolific,3.2.4,MacIntel,60,5ed4bba6bd73d9482bfc6170,4.032999992,1,0,81,9,1,80
,,,,,,,,,,,,,,,,,,,,,,,,,,,,,,,,,,,,,,,,,,,,,,,,,,,114,bol,Catalan,Sounds/cat_bol.mp3,2020-06-05_12h49.34.107,TranslationElicitation_eng-prolific,3.2.4,MacIntel,60,5ed4bba6bd73d9482bfc6170,,1,0,81,9,1,80
,,,,,,,,,,,,,,,,,,,,,,,,,,,,,,,,,,,,,,,,,f,13.56800008,F,FALSE,,,,,,,135,formiga,Catalan,Sounds/cat_formiga.mp3,2020-06-05_12h49.34.107,TranslationElicitation_eng-prolific,3.2.4,MacIntel,60,5ed4bba6bd73d9482bfc6170,,1,0,81,29,1,80
,,,,,,,,,,,,,,,,,,,,,,,,,,,,,,,,,,,,,,,,,a,13.80100012,FA,FALSE,,,,,,,135,formiga,Catalan,Sounds/cat_formiga.mp3,2020-06-05_12h49.34.107,TranslationElicitation_eng-prolific,3.2.4,MacIntel,60,5ed4bba6bd73d9482bfc6170,,1,0,81,29,1,80
,,,,,,,,,,,,,,,,,,,,,,,,,,,,,,,,,,,,,,,,,m,14.23500013,FAM,FALSE,,,,,,,135,formiga,Catalan,Sounds/cat_formiga.mp3,2020-06-05_12h49.34.107,TranslationElicitation_eng-prolific,3.2.4,MacIntel,60,5ed4bba6bd73d9482bfc6170,,1,0,81,29,1,80
,,,,,,,,,,,,,,,,,,,,,,,,,,,,,,,,,,,,,,,,,i,14.43600011,FAMI,FALSE,,,,,,,135,formiga,Catalan,Sounds/cat_formiga.mp3,2020-06-05_12h49.34.107,TranslationElicitation_eng-prolific,3.2.4,MacIntel,60,5ed4bba6bd73d9482bfc6170,,1,0,81,29,1,80
,,,,,,,,,,,,,,,,,,,,,,,,,,,,,,,,,,,,,,,,,l,15.36800003,FAMIL,FALSE,,,,,,,135,formiga,Catalan,Sounds/cat_formiga.mp3,2020-06-05_12h49.34.107,TranslationElicitation_eng-prolific,3.2.4,MacIntel,60,5ed4bba6bd73d9482bfc6170,,1,0,81,29,1,80
,,,,,,,,,,,,,,,,,,,,,,,,,,,,,,,,,,,,,,,,,y,15.63499999,FAMILY,FALSE,,,,,,,135,formiga,Catalan,Sounds/cat_formiga.mp3,2020-06-05_12h49.34.107,TranslationElicitation_eng-prolific,3.2.4,MacIntel,60,5ed4bba6bd73d9482bfc6170,,1,0,81,29,1,80
,,,,,,,,,,,,,,,,,,,,,,,,,,,,,,,,,,,,,,,,,return,17.57000017,FAMILY,FALSE,,,,,,,135,formiga,Catalan,Sounds/cat_formiga.mp3,2020-06-05_12h49.34.107,TranslationElicitation_eng-prolific,3.2.4,MacIntel,60,5ed4bba6bd73d9482bfc6170,17.57000017,1,0,81,29,1,80
,,,,,,,,,,,,,,,,,,,,,,,,,,,,,,,,,,,,,,,,,,,,,,,,,,,135,formiga,Catalan,Sounds/cat_formiga.mp3,2020-06-05_12h49.34.107,TranslationElicitation_eng-prolific,3.2.4,MacIntel,60,5ed4bba6bd73d9482bfc6170,,1,0,81,29,1,80
,,,,,,,,,,,,,,,,,,,,,,,,,,,,,,,,,,,,,,,,,space,17.22000003, ,FALSE,,,,,,,139,galleda,Catalan,Sounds/cat_galleda.mp3,2020-06-05_12h49.34.107,TranslationElicitation_eng-prolific,3.2.4,MacIntel,60,5ed4bba6bd73d9482bfc6170,,1,0,81,33,1,80
,,,,,,,,,,,,,,,,,,,,,,,,,,,,,,,,,,,,,,,,,m,36.78500009, M,FALSE,,,,,,,139,galleda,Catalan,Sounds/cat_galleda.mp3,2020-06-05_12h49.34.107,TranslationElicitation_eng-prolific,3.2.4,MacIntel,60,5ed4bba6bd73d9482bfc6170,,1,0,81,33,1,80
,,,,,,,,,,,,,,,,,,,,,,,,,,,,,,,,,,,,,,,,,u,37.00200009, MU,FALSE,,,,,,,139,galleda,Catalan,Sounds/cat_galleda.mp3,2020-06-05_12h49.34.107,TranslationElicitation_eng-prolific,3.2.4,MacIntel,60,5ed4bba6bd73d9482bfc6170,,1,0,81,33,1,80
,,,,,,,,,,,,,,,,,,,,,,,,,,,,,,,,,,,,,,,,,m,37.18500018, MUM,FALSE,,,,,,,139,galleda,Catalan,Sounds/cat_galleda.mp3,2020-06-05_12h49.34.107,TranslationElicitation_eng-prolific,3.2.4,MacIntel,60,5ed4bba6bd73d9482bfc6170,,1,0,81,33,1,80
,,,,,,,,,,,,,,,,,,,,,,,,,,,,,,,,,,,,,,,,,return,37.75200009, MUM,FALSE,,,,,,,139,galleda,Catalan,Sounds/cat_galleda.mp3,2020-06-05_12h49.34.107,TranslationElicitation_eng-prolific,3.2.4,MacIntel,60,5ed4bba6bd73d9482bfc6170,37.75200009,1,0,81,33,1,80
,,,,,,,,,,,,,,,,,,,,,,,,,,,,,,,,,,,,,,,,,,,,,,,,,,,139,galleda,Catalan,Sounds/cat_galleda.mp3,2020-06-05_12h49.34.107,TranslationElicitation_eng-prolific,3.2.4,MacIntel,60,5ed4bba6bd73d9482bfc6170,,1,0,81,33,1,80
,,,,,,,,,,,,,,,,,,,,,,,,,,,,,,,,,,,,,,,,,r,5.416000128,R,FALSE,,,,,,,175,raspall,Catalan,Sounds/cat_raspall.mp3,2020-06-05_12h49.34.107,TranslationElicitation_eng-prolific,3.2.4,MacIntel,60,5ed4bba6bd73d9482bfc6170,,1,0,81,67,1,80
,,,,,,,,,,,,,,,,,,,,,,,,,,,,,,,,,,,,,,,,,e,5.616000175,RE,FALSE,,,,,,,175,raspall,Catalan,Sounds/cat_raspall.mp3,2020-06-05_12h49.34.107,TranslationElicitation_eng-prolific,3.2.4,MacIntel,60,5ed4bba6bd73d9482bfc6170,,1,0,81,67,1,80
,,,,,,,,,,,,,,,,,,,,,,,,,,,,,,,,,,,,,,,,,a,5.850000143,REA,FALSE,,,,,,,175,raspall,Catalan,Sounds/cat_raspall.mp3,2020-06-05_12h49.34.107,TranslationElicitation_eng-prolific,3.2.4,MacIntel,60,5ed4bba6bd73d9482bfc6170,,1,0,81,67,1,80
,,,,,,,,,,,,,,,,,,,,,,,,,,,,,,,,,,,,,,,,,d,6.083000183,READ,FALSE,,,,,,,175,raspall,Catalan,Sounds/cat_raspall.mp3,2020-06-05_12h49.34.107,TranslationElicitation_eng-prolific,3.2.4,MacIntel,60,5ed4bba6bd73d9482bfc6170,,1,0,81,67,1,80
,,,,,,,,,,,,,,,,,,,,,,,,,,,,,,,,,,,,,,,,,return,6.550000191,READ,FALSE,,,,,,,175,raspall,Catalan,Sounds/cat_raspall.mp3,2020-06-05_12h49.34.107,TranslationElicitation_eng-prolific,3.2.4,MacIntel,60,5ed4bba6bd73d9482bfc6170,6.550000191,1,0,81,67,1,80
,,,,,,,,,,,,,,,,,,,,,,,,,,,,,,,,,,,,,,,,,,,,,,,,,,,175,raspall,Catalan,Sounds/cat_raspall.mp3,2020-06-05_12h49.34.107,TranslationElicitation_eng-prolific,3.2.4,MacIntel,60,5ed4bba6bd73d9482bfc6170,,1,0,81,67,1,80
,,,,,,,,,,,,,,,,,,,,,,,,,,,,,,,,,,,,,,,,,b,2.915999889,B,FALSE,,,,,,,116,bolquer,Catalan,Sounds/cat_bolquer.mp3,2020-06-05_12h49.34.107,TranslationElicitation_eng-prolific,3.2.4,MacIntel,60,5ed4bba6bd73d9482bfc6170,,1,0,81,11,1,80
,,,,,,,,,,,,,,,,,,,,,,,,,,,,,,,,,,,,,,,,,o,3.198999882,BO,FALSE,,,,,,,116,bolquer,Catalan,Sounds/cat_bolquer.mp3,2020-06-05_12h49.34.107,TranslationElicitation_eng-prolific,3.2.4,MacIntel,60,5ed4bba6bd73d9482bfc6170,,1,0,81,11,1,80
,,,,,,,,,,,,,,,,,,,,,,,,,,,,,,,,,,,,,,,,,q,3.649999857,BOQ,FALSE,,,,,,,116,bolquer,Catalan,Sounds/cat_bolquer.mp3,2020-06-05_12h49.34.107,TranslationElicitation_eng-prolific,3.2.4,MacIntel,60,5ed4bba6bd73d9482bfc6170,,1,0,81,11,1,80
,,,,,,,,,,,,,,,,,,,,,,,,,,,,,,,,,,,,,,,,,u,4.101999998,BOQU,FALSE,,,,,,,116,bolquer,Catalan,Sounds/cat_bolquer.mp3,2020-06-05_12h49.34.107,TranslationElicitation_eng-prolific,3.2.4,MacIntel,60,5ed4bba6bd73d9482bfc6170,,1,0,81,11,1,80
,,,,,,,,,,,,,,,,,,,,,,,,,,,,,,,,,,,,,,,,,e,4.366999865,BOQUE,FALSE,,,,,,,116,bolquer,Catalan,Sounds/cat_bolquer.mp3,2020-06-05_12h49.34.107,TranslationElicitation_eng-prolific,3.2.4,MacIntel,60,5ed4bba6bd73d9482bfc6170,,1,0,81,11,1,80
,,,,,,,,,,,,,,,,,,,,,,,,,,,,,,,,,,,,,,,,,t,4.566999912,BOQUET,FALSE,,,,,,,116,bolquer,Catalan,Sounds/cat_bolquer.mp3,2020-06-05_12h49.34.107,TranslationElicitation_eng-prolific,3.2.4,MacIntel,60,5ed4bba6bd73d9482bfc6170,,1,0,81,11,1,80
,,,,,,,,,,,,,,,,,,,,,,,,,,,,,,,,,,,,,,,,,return,5.099999905,BOQUET,FALSE,,,,,,,116,bolquer,Catalan,Sounds/cat_bolquer.mp3,2020-06-05_12h49.34.107,TranslationElicitation_eng-prolific,3.2.4,MacIntel,60,5ed4bba6bd73d9482bfc6170,5.099999905,1,0,81,11,1,80
,,,,,,,,,,,,,,,,,,,,,,,,,,,,,,,,,,,,,,,,,,,,,,,,,,,116,bolquer,Catalan,Sounds/cat_bolquer.mp3,2020-06-05_12h49.34.107,TranslationElicitation_eng-prolific,3.2.4,MacIntel,60,5ed4bba6bd73d9482bfc6170,,1,0,81,11,1,80
,,,,,,,,,,,,,,,,,,,,,,,,,,,,,,,,,,,,,,,,,d,2.565999985,D,FALSE,,,,,,,129,dit,Catalan,Sounds/cat_dit.mp3,2020-06-05_12h49.34.107,TranslationElicitation_eng-prolific,3.2.4,MacIntel,60,5ed4bba6bd73d9482bfc6170,,1,0,81,23,1,80
,,,,,,,,,,,,,,,,,,,,,,,,,,,,,,,,,,,,,,,,,e,2.700000048,DE,FALSE,,,,,,,129,dit,Catalan,Sounds/cat_dit.mp3,2020-06-05_12h49.34.107,TranslationElicitation_eng-prolific,3.2.4,MacIntel,60,5ed4bba6bd73d9482bfc6170,,1,0,81,23,1,80
,,,,,,,,,,,,,,,,,,,,,,,,,,,,,,,,,,,,,,,,,e,2.832999945,DEE,FALSE,,,,,,,129,dit,Catalan,Sounds/cat_dit.mp3,2020-06-05_12h49.34.107,TranslationElicitation_eng-prolific,3.2.4,MacIntel,60,5ed4bba6bd73d9482bfc6170,,1,0,81,23,1,80
,,,,,,,,,,,,,,,,,,,,,,,,,,,,,,,,,,,,,,,,,d,2.983999968,DEED,FALSE,,,,,,,129,dit,Catalan,Sounds/cat_dit.mp3,2020-06-05_12h49.34.107,TranslationElicitation_eng-prolific,3.2.4,MacIntel,60,5ed4bba6bd73d9482bfc6170,,1,0,81,23,1,80
,,,,,,,,,,,,,,,,,,,,,,,,,,,,,,,,,,,,,,,,,return,3.467000008,DEED,FALSE,,,,,,,129,dit,Catalan,Sounds/cat_dit.mp3,2020-06-05_12h49.34.107,TranslationElicitation_eng-prolific,3.2.4,MacIntel,60,5ed4bba6bd73d9482bfc6170,3.467000008,1,0,81,23,1,80
,,,,,,,,,,,,,,,,,,,,,,,,,,,,,,,,,,,,,,,,,,,,,,,,,,,129,dit,Catalan,Sounds/cat_dit.mp3,2020-06-05_12h49.34.107,TranslationElicitation_eng-prolific,3.2.4,MacIntel,60,5ed4bba6bd73d9482bfc6170,,1,0,81,23,1,80
,,,,,,,,,,,,,,,,,,,,,,,,,,,,,,,,,,,,,,,,,b,1.648000002,B,FALSE,,,,,,,110,berenar,Catalan,Sounds/cat_berenar.mp3,2020-06-05_12h49.34.107,TranslationElicitation_eng-prolific,3.2.4,MacIntel,60,5ed4bba6bd73d9482bfc6170,,1,0,81,5,1,80
,,,,,,,,,,,,,,,,,,,,,,,,,,,,,,,,,,,,,,,,,a,1.967999935,BA,FALSE,,,,,,,110,berenar,Catalan,Sounds/cat_berenar.mp3,2020-06-05_12h49.34.107,TranslationElicitation_eng-prolific,3.2.4,MacIntel,60,5ed4bba6bd73d9482bfc6170,,1,0,81,5,1,80
,,,,,,,,,,,,,,,,,,,,,,,,,,,,,,,,,,,,,,,,,n,2.348999977,BAN,FALSE,,,,,,,110,berenar,Catalan,Sounds/cat_berenar.mp3,2020-06-05_12h49.34.107,TranslationElicitation_eng-prolific,3.2.4,MacIntel,60,5ed4bba6bd73d9482bfc6170,,1,0,81,5,1,80
,,,,,,,,,,,,,,,,,,,,,,,,,,,,,,,,,,,,,,,,,a,2.648000002,BANA,FALSE,,,,,,,110,berenar,Catalan,Sounds/cat_berenar.mp3,2020-06-05_12h49.34.107,TranslationElicitation_eng-prolific,3.2.4,MacIntel,60,5ed4bba6bd73d9482bfc6170,,1,0,81,5,1,80
,,,,,,,,,,,,,,,,,,,,,,,,,,,,,,,,,,,,,,,,,n,2.982999802,BANAN,FALSE,,,,,,,110,berenar,Catalan,Sounds/cat_berenar.mp3,2020-06-05_12h49.34.107,TranslationElicitation_eng-prolific,3.2.4,MacIntel,60,5ed4bba6bd73d9482bfc6170,,1,0,81,5,1,80
,,,,,,,,,,,,,,,,,,,,,,,,,,,,,,,,,,,,,,,,,a,3.297999859,BANANA,FALSE,,,,,,,110,berenar,Catalan,Sounds/cat_berenar.mp3,2020-06-05_12h49.34.107,TranslationElicitation_eng-prolific,3.2.4,MacIntel,60,5ed4bba6bd73d9482bfc6170,,1,0,81,5,1,80
,,,,,,,,,,,,,,,,,,,,,,,,,,,,,,,,,,,,,,,,,return,4.032999992,BANANA,FALSE,,,,,,,110,berenar,Catalan,Sounds/cat_berenar.mp3,2020-06-05_12h49.34.107,TranslationElicitation_eng-prolific,3.2.4,MacIntel,60,5ed4bba6bd73d9482bfc6170,4.032999992,1,0,81,5,1,80
,,,,,,,,,,,,,,,,,,,,,,,,,,,,,,,,,,,,,,,,,,,,,,,,,,,110,berenar,Catalan,Sounds/cat_berenar.mp3,2020-06-05_12h49.34.107,TranslationElicitation_eng-prolific,3.2.4,MacIntel,60,5ed4bba6bd73d9482bfc6170,,1,0,81,5,1,80
,,,,,,,,,,,,,,,,,,,,,,,,,,,,,,,,,,,,,,,,,g,2.581999779,G,FALSE,,,,,,,160,orella,Catalan,Sounds/cat_orella.mp3,2020-06-05_12h49.34.107,TranslationElicitation_eng-prolific,3.2.4,MacIntel,60,5ed4bba6bd73d9482bfc6170,,1,0,81,52,1,80
,,,,,,,,,,,,,,,,,,,,,,,,,,,,,,,,,,,,,,,,,i,2.882999897,GI,FALSE,,,,,,,160,orella,Catalan,Sounds/cat_orella.mp3,2020-06-05_12h49.34.107,TranslationElicitation_eng-prolific,3.2.4,MacIntel,60,5ed4bba6bd73d9482bfc6170,,1,0,81,52,1,80
,,,,,,,,,,,,,,,,,,,,,,,,,,,,,,,,,,,,,,,,,r,3.152999878,GIR,FALSE,,,,,,,160,orella,Catalan,Sounds/cat_orella.mp3,2020-06-05_12h49.34.107,TranslationElicitation_eng-prolific,3.2.4,MacIntel,60,5ed4bba6bd73d9482bfc6170,,1,0,81,52,1,80
,,,,,,,,,,,,,,,,,,,,,,,,,,,,,,,,,,,,,,,,,l,3.531999826,GIRL,FALSE,,,,,,,160,orella,Catalan,Sounds/cat_orella.mp3,2020-06-05_12h49.34.107,TranslationElicitation_eng-prolific,3.2.4,MacIntel,60,5ed4bba6bd73d9482bfc6170,,1,0,81,52,1,80
,,,,,,,,,,,,,,,,,,,,,,,,,,,,,,,,,,,,,,,,,return,3.848999977,GIRL,FALSE,,,,,,,160,orella,Catalan,Sounds/cat_orella.mp3,2020-06-05_12h49.34.107,TranslationElicitation_eng-prolific,3.2.4,MacIntel,60,5ed4bba6bd73d9482bfc6170,3.848999977,1,0,81,52,1,80
,,,,,,,,,,,,,,,,,,,,,,,,,,,,,,,,,,,,,,,,,,,,,,,,,,,160,orella,Catalan,Sounds/cat_orella.mp3,2020-06-05_12h49.34.107,TranslationElicitation_eng-prolific,3.2.4,MacIntel,60,5ed4bba6bd73d9482bfc6170,,1,0,81,52,1,80
,,,,,,,,,,,,,,,,,,,,,,,,,,,,,,,,,,,,,,,,,b,17.44099998,B,FALSE,,,,,,,187,vaixell,Catalan,Sounds/cat_vaixell.mp3,2020-06-05_12h49.34.107,TranslationElicitation_eng-prolific,3.2.4,MacIntel,60,5ed4bba6bd73d9482bfc6170,,1,0,81,78,1,80
,,,,,,,,,,,,,,,,,,,,,,,,,,,,,,,,,,,,,,,,,r,19.21799994,BR,FALSE,,,,,,,187,vaixell,Catalan,Sounds/cat_vaixell.mp3,2020-06-05_12h49.34.107,TranslationElicitation_eng-prolific,3.2.4,MacIntel,60,5ed4bba6bd73d9482bfc6170,,1,0,81,78,1,80
,,,,,,,,,,,,,,,,,,,,,,,,,,,,,,,,,,,,,,,,,o,19.80099988,BRO,FALSE,,,,,,,187,vaixell,Catalan,Sounds/cat_vaixell.mp3,2020-06-05_12h49.34.107,TranslationElicitation_eng-prolific,3.2.4,MacIntel,60,5ed4bba6bd73d9482bfc6170,,1,0,81,78,1,80
,,,,,,,,,,,,,,,,,,,,,,,,,,,,,,,,,,,,,,,,,l,19.96799994,BROL,FALSE,,,,,,,187,vaixell,Catalan,Sounds/cat_vaixell.mp3,2020-06-05_12h49.34.107,TranslationElicitation_eng-prolific,3.2.4,MacIntel,60,5ed4bba6bd73d9482bfc6170,,1,0,81,78,1,80
,,,,,,,,,,,,,,,,,,,,,,,,,,,,,,,,,,,,,,,,,l,20.06799984,BROLL,FALSE,,,,,,,187,vaixell,Catalan,Sounds/cat_vaixell.mp3,2020-06-05_12h49.34.107,TranslationElicitation_eng-prolific,3.2.4,MacIntel,60,5ed4bba6bd73d9482bfc6170,,1,0,81,78,1,80
,,,,,,,,,,,,,,,,,,,,,,,,,,,,,,,,,,,,,,,,,y,20.28499985,BROLLY,FALSE,,,,,,,187,vaixell,Catalan,Sounds/cat_vaixell.mp3,2020-06-05_12h49.34.107,TranslationElicitation_eng-prolific,3.2.4,MacIntel,60,5ed4bba6bd73d9482bfc6170,,1,0,81,78,1,80
,,,,,,,,,,,,,,,,,,,,,,,,,,,,,,,,,,,,,,,,,return,20.53499985,BROLLY,FALSE,,,,,,,187,vaixell,Catalan,Sounds/cat_vaixell.mp3,2020-06-05_12h49.34.107,TranslationElicitation_eng-prolific,3.2.4,MacIntel,60,5ed4bba6bd73d9482bfc6170,20.53499985,1,0,81,78,1,80
,,,,,,,,,,,,,,,,,,,,,,,,,,,,,,,,,,,,,,,,,,,,,,,,,,,187,vaixell,Catalan,Sounds/cat_vaixell.mp3,2020-06-05_12h49.34.107,TranslationElicitation_eng-prolific,3.2.4,MacIntel,60,5ed4bba6bd73d9482bfc6170,,1,0,81,78,1,80
,,,,,,,,,,,,,,,,,,,,,,,,,,,,,,,,,,,,,,,,,b,5.601000071,B,FALSE,,,,,,,111,bibero,Catalan,Sounds/cat_bibero.mp3,2020-06-05_12h49.34.107,TranslationElicitation_eng-prolific,3.2.4,MacIntel,60,5ed4bba6bd73d9482bfc6170,,1,0,81,6,1,80
,,,,,,,,,,,,,,,,,,,,,,,,,,,,,,,,,,,,,,,,,a,5.901000023,BA,FALSE,,,,,,,111,bibero,Catalan,Sounds/cat_bibero.mp3,2020-06-05_12h49.34.107,TranslationElicitation_eng-prolific,3.2.4,MacIntel,60,5ed4bba6bd73d9482bfc6170,,1,0,81,6,1,80
,,,,,,,,,,,,,,,,,,,,,,,,,,,,,,,,,,,,,,,,,b,6.317000151,BAB,FALSE,,,,,,,111,bibero,Catalan,Sounds/cat_bibero.mp3,2020-06-05_12h49.34.107,TranslationElicitation_eng-prolific,3.2.4,MacIntel,60,5ed4bba6bd73d9482bfc6170,,1,0,81,6,1,80
,,,,,,,,,,,,,,,,,,,,,,,,,,,,,,,,,,,,,,,,,y,6.518000126,BABY,FALSE,,,,,,,111,bibero,Catalan,Sounds/cat_bibero.mp3,2020-06-05_12h49.34.107,TranslationElicitation_eng-prolific,3.2.4,MacIntel,60,5ed4bba6bd73d9482bfc6170,,1,0,81,6,1,80
,,,,,,,,,,,,,,,,,,,,,,,,,,,,,,,,,,,,,,,,,return,6.90199995,BABY,FALSE,,,,,,,111,bibero,Catalan,Sounds/cat_bibero.mp3,2020-06-05_12h49.34.107,TranslationElicitation_eng-prolific,3.2.4,MacIntel,60,5ed4bba6bd73d9482bfc6170,6.90199995,1,0,81,6,1,80
,,,,,,,,,,,,,,,,,,,,,,,,,,,,,,,,,,,,,,,,,,,,,,,,,,,111,bibero,Catalan,Sounds/cat_bibero.mp3,2020-06-05_12h49.34.107,TranslationElicitation_eng-prolific,3.2.4,MacIntel,60,5ed4bba6bd73d9482bfc6170,,1,0,81,6,1,80
,,,,,,,,,,,,,,,,,,,,,,,,,,,,,,,,,,,,,,,,,m,4.085999966,M,FALSE,,,,,,,153,mico,Catalan,Sounds/cat_mico.mp3,2020-06-05_12h49.34.107,TranslationElicitation_eng-prolific,3.2.4,MacIntel,60,5ed4bba6bd73d9482bfc6170,,1,0,81,46,1,80
,,,,,,,,,,,,,,,,,,,,,,,,,,,,,,,,,,,,,,,,,i,4.282999992,MI,FALSE,,,,,,,153,mico,Catalan,Sounds/cat_mico.mp3,2020-06-05_12h49.34.107,TranslationElicitation_eng-prolific,3.2.4,MacIntel,60,5ed4bba6bd73d9482bfc6170,,1,0,81,46,1,80
,,,,,,,,,,,,,,,,,,,,,,,,,,,,,,,,,,,,,,,,,k,4.433000088,MIK,FALSE,,,,,,,153,mico,Catalan,Sounds/cat_mico.mp3,2020-06-05_12h49.34.107,TranslationElicitation_eng-prolific,3.2.4,MacIntel,60,5ed4bba6bd73d9482bfc6170,,1,0,81,46,1,80
,,,,,,,,,,,,,,,,,,,,,,,,,,,,,,,,,,,,,,,,,o,4.585000038,MIKO,FALSE,,,,,,,153,mico,Catalan,Sounds/cat_mico.mp3,2020-06-05_12h49.34.107,TranslationElicitation_eng-prolific,3.2.4,MacIntel,60,5ed4bba6bd73d9482bfc6170,,1,0,81,46,1,80
,,,,,,,,,,,,,,,,,,,,,,,,,,,,,,,,,,,,,,,,,return,4.832999945,MIKO,FALSE,,,,,,,153,mico,Catalan,Sounds/cat_mico.mp3,2020-06-05_12h49.34.107,TranslationElicitation_eng-prolific,3.2.4,MacIntel,60,5ed4bba6bd73d9482bfc6170,4.832999945,1,0,81,46,1,80
,,,,,,,,,,,,,,,,,,,,,,,,,,,,,,,,,,,,,,,,,,,,,,,,,,,153,mico,Catalan,Sounds/cat_mico.mp3,2020-06-05_12h49.34.107,TranslationElicitation_eng-prolific,3.2.4,MacIntel,60,5ed4bba6bd73d9482bfc6170,,1,0,81,46,1,80
,,,,,,,,,,,,,,,,,,,,,,,,,,,,,,,,,,,,,,,,,p,1.5,P,FALSE,,,,,,,164,patata,Catalan,Sounds/cat_patata.mp3,2020-06-05_12h49.34.107,TranslationElicitation_eng-prolific,3.2.4,MacIntel,60,5ed4bba6bd73d9482bfc6170,,1,0,81,56,1,80
,,,,,,,,,,,,,,,,,,,,,,,,,,,,,,,,,,,,,,,,,o,1.667999983,PO,FALSE,,,,,,,164,patata,Catalan,Sounds/cat_patata.mp3,2020-06-05_12h49.34.107,TranslationElicitation_eng-prolific,3.2.4,MacIntel,60,5ed4bba6bd73d9482bfc6170,,1,0,81,56,1,80
,,,,,,,,,,,,,,,,,,,,,,,,,,,,,,,,,,,,,,,,,t,1.934000015,POT,FALSE,,,,,,,164,patata,Catalan,Sounds/cat_patata.mp3,2020-06-05_12h49.34.107,TranslationElicitation_eng-prolific,3.2.4,MacIntel,60,5ed4bba6bd73d9482bfc6170,,1,0,81,56,1,80
,,,,,,,,,,,,,,,,,,,,,,,,,,,,,,,,,,,,,,,,,a,2.186000109,POTA,FALSE,,,,,,,164,patata,Catalan,Sounds/cat_patata.mp3,2020-06-05_12h49.34.107,TranslationElicitation_eng-prolific,3.2.4,MacIntel,60,5ed4bba6bd73d9482bfc6170,,1,0,81,56,1,80
,,,,,,,,,,,,,,,,,,,,,,,,,,,,,,,,,,,,,,,,,t,2.450000048,POTAT,FALSE,,,,,,,164,patata,Catalan,Sounds/cat_patata.mp3,2020-06-05_12h49.34.107,TranslationElicitation_eng-prolific,3.2.4,MacIntel,60,5ed4bba6bd73d9482bfc6170,,1,0,81,56,1,80
,,,,,,,,,,,,,,,,,,,,,,,,,,,,,,,,,,,,,,,,,o,2.752000093,POTATO,FALSE,,,,,,,164,patata,Catalan,Sounds/cat_patata.mp3,2020-06-05_12h49.34.107,TranslationElicitation_eng-prolific,3.2.4,MacIntel,60,5ed4bba6bd73d9482bfc6170,,1,0,81,56,1,80
,,,,,,,,,,,,,,,,,,,,,,,,,,,,,,,,,,,,,,,,,return,3.116000175,POTATO,FALSE,,,,,,,164,patata,Catalan,Sounds/cat_patata.mp3,2020-06-05_12h49.34.107,TranslationElicitation_eng-prolific,3.2.4,MacIntel,60,5ed4bba6bd73d9482bfc6170,3.116000175,1,0,81,56,1,80
,,,,,,,,,,,,,,,,,,,,,,,,,,,,,,,,,,,,,,,,,,,,,,,,,,,164,patata,Catalan,Sounds/cat_patata.mp3,2020-06-05_12h49.34.107,TranslationElicitation_eng-prolific,3.2.4,MacIntel,60,5ed4bba6bd73d9482bfc6170,,1,0,81,56,1,80
,,,,,,,,,,,,,,,,,,,,,,,,,,,,,,,,,,,,,,,,,t,2.913999796,T,FALSE,,,,,,,183,tren,Catalan,Sounds/cat_tren.mp3,2020-06-05_12h49.34.107,TranslationElicitation_eng-prolific,3.2.4,MacIntel,60,5ed4bba6bd73d9482bfc6170,,1,0,81,74,1,80
,,,,,,,,,,,,,,,,,,,,,,,,,,,,,,,,,,,,,,,,,r,3.181999922,TR,FALSE,,,,,,,183,tren,Catalan,Sounds/cat_tren.mp3,2020-06-05_12h49.34.107,TranslationElicitation_eng-prolific,3.2.4,MacIntel,60,5ed4bba6bd73d9482bfc6170,,1,0,81,74,1,80
,,,,,,,,,,,,,,,,,,,,,,,,,,,,,,,,,,,,,,,,,backspace,4.26699996,T,TRUE,,,,,,,183,tren,Catalan,Sounds/cat_tren.mp3,2020-06-05_12h49.34.107,TranslationElicitation_eng-prolific,3.2.4,MacIntel,60,5ed4bba6bd73d9482bfc6170,,1,0,81,74,1,80
,,,,,,,,,,,,,,,,,,,,,,,,,,,,,,,,,,,,,,,,,backspace,4.449999809,,TRUE,,,,,,,183,tren,Catalan,Sounds/cat_tren.mp3,2020-06-05_12h49.34.107,TranslationElicitation_eng-prolific,3.2.4,MacIntel,60,5ed4bba6bd73d9482bfc6170,,1,0,81,74,1,80
,,,,,,,,,,,,,,,,,,,,,,,,,,,,,,,,,,,,,,,,,t,5.432999849,T,TRUE,,,,,,,183,tren,Catalan,Sounds/cat_tren.mp3,2020-06-05_12h49.34.107,TranslationElicitation_eng-prolific,3.2.4,MacIntel,60,5ed4bba6bd73d9482bfc6170,,1,0,81,74,1,80
,,,,,,,,,,,,,,,,,,,,,,,,,,,,,,,,,,,,,,,,,r,5.881999969,TR,TRUE,,,,,,,183,tren,Catalan,Sounds/cat_tren.mp3,2020-06-05_12h49.34.107,TranslationElicitation_eng-prolific,3.2.4,MacIntel,60,5ed4bba6bd73d9482bfc6170,,1,0,81,74,1,80
,,,,,,,,,,,,,,,,,,,,,,,,,,,,,,,,,,,,,,,,,e,6.131999969,TRE,TRUE,,,,,,,183,tren,Catalan,Sounds/cat_tren.mp3,2020-06-05_12h49.34.107,TranslationElicitation_eng-prolific,3.2.4,MacIntel,60,5ed4bba6bd73d9482bfc6170,,1,0,81,74,1,80
,,,,,,,,,,,,,,,,,,,,,,,,,,,,,,,,,,,,,,,,,n,6.997999907,TREN,TRUE,,,,,,,183,tren,Catalan,Sounds/cat_tren.mp3,2020-06-05_12h49.34.107,TranslationElicitation_eng-prolific,3.2.4,MacIntel,60,5ed4bba6bd73d9482bfc6170,,1,0,81,74,1,80
,,,,,,,,,,,,,,,,,,,,,,,,,,,,,,,,,,,,,,,,,d,7.414999962,TREND,TRUE,,,,,,,183,tren,Catalan,Sounds/cat_tren.mp3,2020-06-05_12h49.34.107,TranslationElicitation_eng-prolific,3.2.4,MacIntel,60,5ed4bba6bd73d9482bfc6170,,1,0,81,74,1,80
,,,,,,,,,,,,,,,,,,,,,,,,,,,,,,,,,,,,,,,,,return,7.931999922,TREND,TRUE,,,,,,,183,tren,Catalan,Sounds/cat_tren.mp3,2020-06-05_12h49.34.107,TranslationElicitation_eng-prolific,3.2.4,MacIntel,60,5ed4bba6bd73d9482bfc6170,7.931999922,1,0,81,74,1,80
,,,,,,,,,,,,,,,,,,,,,,,,,,,,,,,,,,,,,,,,,,,,,,,,,,,183,tren,Catalan,Sounds/cat_tren.mp3,2020-06-05_12h49.34.107,TranslationElicitation_eng-prolific,3.2.4,MacIntel,60,5ed4bba6bd73d9482bfc6170,,1,0,81,74,1,80
,,,,,,,,,,,,,,,,,,,,,,,,,,,,,,,,,,,,,,,,,b,4.082999945,B,FALSE,,,,,,,113,boca,Catalan,Sounds/cat_boca.mp3,2020-06-05_12h49.34.107,TranslationElicitation_eng-prolific,3.2.4,MacIntel,60,5ed4bba6bd73d9482bfc6170,,1,0,81,8,1,80
,,,,,,,,,,,,,,,,,,,,,,,,,,,,,,,,,,,,,,,,,a,4.417999983,BA,FALSE,,,,,,,113,boca,Catalan,Sounds/cat_boca.mp3,2020-06-05_12h49.34.107,TranslationElicitation_eng-prolific,3.2.4,MacIntel,60,5ed4bba6bd73d9482bfc6170,,1,0,81,8,1,80
,,,,,,,,,,,,,,,,,,,,,,,,,,,,,,,,,,,,,,,,,l,4.849999905,BAL,FALSE,,,,,,,113,boca,Catalan,Sounds/cat_boca.mp3,2020-06-05_12h49.34.107,TranslationElicitation_eng-prolific,3.2.4,MacIntel,60,5ed4bba6bd73d9482bfc6170,,1,0,81,8,1,80
,,,,,,,,,,,,,,,,,,,,,,,,,,,,,,,,,,,,,,,,,l,4.964999914,BALL,FALSE,,,,,,,113,boca,Catalan,Sounds/cat_boca.mp3,2020-06-05_12h49.34.107,TranslationElicitation_eng-prolific,3.2.4,MacIntel,60,5ed4bba6bd73d9482bfc6170,,1,0,81,8,1,80
,,,,,,,,,,,,,,,,,,,,,,,,,,,,,,,,,,,,,,,,,return,5.215999842,BALL,FALSE,,,,,,,113,boca,Catalan,Sounds/cat_boca.mp3,2020-06-05_12h49.34.107,TranslationElicitation_eng-prolific,3.2.4,MacIntel,60,5ed4bba6bd73d9482bfc6170,5.215999842,1,0,81,8,1,80
,,,,,,,,,,,,,,,,,,,,,,,,,,,,,,,,,,,,,,,,,,,,,,,,,,,113,boca,Catalan,Sounds/cat_boca.mp3,2020-06-05_12h49.34.107,TranslationElicitation_eng-prolific,3.2.4,MacIntel,60,5ed4bba6bd73d9482bfc6170,,1,0,81,8,1,80
,,,,,,,,,,,,,,,,,,,,,,,,,,,,,,,,,,,,,,,,,c,5.231999874,C,FALSE,,,,,,,180,tisores,Catalan,Sounds/cat_tisores.mp3,2020-06-05_12h49.34.107,TranslationElicitation_eng-prolific,3.2.4,MacIntel,60,5ed4bba6bd73d9482bfc6170,,1,0,81,71,1,80
,,,,,,,,,,,,,,,,,,,,,,,,,,,,,,,,,,,,,,,,,r,5.414999962,CR,FALSE,,,,,,,180,tisores,Catalan,Sounds/cat_tisores.mp3,2020-06-05_12h49.34.107,TranslationElicitation_eng-prolific,3.2.4,MacIntel,60,5ed4bba6bd73d9482bfc6170,,1,0,81,71,1,80
,,,,,,,,,,,,,,,,,,,,,,,,,,,,,,,,,,,,,,,,,a,5.631999969,CRA,FALSE,,,,,,,180,tisores,Catalan,Sounds/cat_tisores.mp3,2020-06-05_12h49.34.107,TranslationElicitation_eng-prolific,3.2.4,MacIntel,60,5ed4bba6bd73d9482bfc6170,,1,0,81,71,1,80
,,,,,,,,,,,,,,,,,,,,,,,,,,,,,,,,,,,,,,,,,c,5.914999962,CRAC,FALSE,,,,,,,180,tisores,Catalan,Sounds/cat_tisores.mp3,2020-06-05_12h49.34.107,TranslationElicitation_eng-prolific,3.2.4,MacIntel,60,5ed4bba6bd73d9482bfc6170,,1,0,81,71,1,80
,,,,,,,,,,,,,,,,,,,,,,,,,,,,,,,,,,,,,,,,,k,6.248999834,CRACK,FALSE,,,,,,,180,tisores,Catalan,Sounds/cat_tisores.mp3,2020-06-05_12h49.34.107,TranslationElicitation_eng-prolific,3.2.4,MacIntel,60,5ed4bba6bd73d9482bfc6170,,1,0,81,71,1,80
,,,,,,,,,,,,,,,,,,,,,,,,,,,,,,,,,,,,,,,,,e,6.564999819,CRACKE,FALSE,,,,,,,180,tisores,Catalan,Sounds/cat_tisores.mp3,2020-06-05_12h49.34.107,TranslationElicitation_eng-prolific,3.2.4,MacIntel,60,5ed4bba6bd73d9482bfc6170,,1,0,81,71,1,80
,,,,,,,,,,,,,,,,,,,,,,,,,,,,,,,,,,,,,,,,,r,6.698999882,CRACKER,FALSE,,,,,,,180,tisores,Catalan,Sounds/cat_tisores.mp3,2020-06-05_12h49.34.107,TranslationElicitation_eng-prolific,3.2.4,MacIntel,60,5ed4bba6bd73d9482bfc6170,,1,0,81,71,1,80
,,,,,,,,,,,,,,,,,,,,,,,,,,,,,,,,,,,,,,,,,s,6.864999771,CRACKERS,FALSE,,,,,,,180,tisores,Catalan,Sounds/cat_tisores.mp3,2020-06-05_12h49.34.107,TranslationElicitation_eng-prolific,3.2.4,MacIntel,60,5ed4bba6bd73d9482bfc6170,,1,0,81,71,1,80
,,,,,,,,,,,,,,,,,,,,,,,,,,,,,,,,,,,,,,,,,return,7.414999962,CRACKERS,FALSE,,,,,,,180,tisores,Catalan,Sounds/cat_tisores.mp3,2020-06-05_12h49.34.107,TranslationElicitation_eng-prolific,3.2.4,MacIntel,60,5ed4bba6bd73d9482bfc6170,7.414999962,1,0,81,71,1,80
,,,,,,,,,,,,,,,,,,,,,,,,,,,,,,,,,,,,,,,,,,,,,,,,,,,180,tisores,Catalan,Sounds/cat_tisores.mp3,2020-06-05_12h49.34.107,TranslationElicitation_eng-prolific,3.2.4,MacIntel,60,5ed4bba6bd73d9482bfc6170,,1,0,81,71,1,80
,,,,,,,,,,,,,,,,,,,,,,,,,,,,,,,,,,,,,,,,,p,572.6689999,P,FALSE,,,,,,,123,cavall,Catalan,Sounds/cat_cavall.mp3,2020-06-05_12h49.34.107,TranslationElicitation_eng-prolific,3.2.4,MacIntel,60,5ed4bba6bd73d9482bfc6170,,1,0,81,18,1,80
,,,,,,,,,,,,,,,,,,,,,,,,,,,,,,,,,,,,,,,,,o,572.8329999,PO,FALSE,,,,,,,123,cavall,Catalan,Sounds/cat_cavall.mp3,2020-06-05_12h49.34.107,TranslationElicitation_eng-prolific,3.2.4,MacIntel,60,5ed4bba6bd73d9482bfc6170,,1,0,81,18,1,80
,,,,,,,,,,,,,,,,,,,,,,,,,,,,,,,,,,,,,,,,,t,573.1159999,POT,FALSE,,,,,,,123,cavall,Catalan,Sounds/cat_cavall.mp3,2020-06-05_12h49.34.107,TranslationElicitation_eng-prolific,3.2.4,MacIntel,60,5ed4bba6bd73d9482bfc6170,,1,0,81,18,1,80
,,,,,,,,,,,,,,,,,,,,,,,,,,,,,,,,,,,,,,,,,return,573.4330001,POT,FALSE,,,,,,,123,cavall,Catalan,Sounds/cat_cavall.mp3,2020-06-05_12h49.34.107,TranslationElicitation_eng-prolific,3.2.4,MacIntel,60,5ed4bba6bd73d9482bfc6170,573.4330001,1,0,81,18,1,80
,,,,,,,,,,,,,,,,,,,,,,,,,,,,,,,,,,,,,,,,,,,,,,,,,,,123,cavall,Catalan,Sounds/cat_cavall.mp3,2020-06-05_12h49.34.107,TranslationElicitation_eng-prolific,3.2.4,MacIntel,60,5ed4bba6bd73d9482bfc6170,,1,0,81,18,1,80
,,,,,,,,,,,,,,,,,,,,,,,,,,,,,,,,,,,,,,,,,b,4.296000004,B,FALSE,,,,,,,173,porc,Catalan,Sounds/cat_porc.mp3,2020-06-05_12h49.34.107,TranslationElicitation_eng-prolific,3.2.4,MacIntel,60,5ed4bba6bd73d9482bfc6170,,1,0,81,65,1,80
,,,,,,,,,,,,,,,,,,,,,,,,,,,,,,,,,,,,,,,,,a,4.611000061,BA,FALSE,,,,,,,173,porc,Catalan,Sounds/cat_porc.mp3,2020-06-05_12h49.34.107,TranslationElicitation_eng-prolific,3.2.4,MacIntel,60,5ed4bba6bd73d9482bfc6170,,1,0,81,65,1,80
,,,,,,,,,,,,,,,,,,,,,,,,,,,,,,,,,,,,,,,,,l,5.093999863,BAL,FALSE,,,,,,,173,porc,Catalan,Sounds/cat_porc.mp3,2020-06-05_12h49.34.107,TranslationElicitation_eng-prolific,3.2.4,MacIntel,60,5ed4bba6bd73d9482bfc6170,,1,0,81,65,1,80
,,,,,,,,,,,,,,,,,,,,,,,,,,,,,,,,,,,,,,,,,l,5.211999893,BALL,FALSE,,,,,,,173,porc,Catalan,Sounds/cat_porc.mp3,2020-06-05_12h49.34.107,TranslationElicitation_eng-prolific,3.2.4,MacIntel,60,5ed4bba6bd73d9482bfc6170,,1,0,81,65,1,80
,,,,,,,,,,,,,,,,,,,,,,,,,,,,,,,,,,,,,,,,,return,5.394000053,BALL,FALSE,,,,,,,173,porc,Catalan,Sounds/cat_porc.mp3,2020-06-05_12h49.34.107,TranslationElicitation_eng-prolific,3.2.4,MacIntel,60,5ed4bba6bd73d9482bfc6170,5.394000053,1,0,81,65,1,80
,,,,,,,,,,,,,,,,,,,,,,,,,,,,,,,,,,,,,,,,,,,,,,,,,,,173,porc,Catalan,Sounds/cat_porc.mp3,2020-06-05_12h49.34.107,TranslationElicitation_eng-prolific,3.2.4,MacIntel,60,5ed4bba6bd73d9482bfc6170,,1,0,81,65,1,80
,,,,,,,,,,,,,,,,,,,,,,,,,,,,,,,,,,,,,,,,,m,2.465000153,M,FALSE,,,,,,,157,mussol,Catalan,Sounds/cat_mussol.mp3,2020-06-05_12h49.34.107,TranslationElicitation_eng-prolific,3.2.4,MacIntel,60,5ed4bba6bd73d9482bfc6170,,1,0,81,50,1,80
,,,,,,,,,,,,,,,,,,,,,,,,,,,,,,,,,,,,,,,,,u,2.649000168,MU,FALSE,,,,,,,157,mussol,Catalan,Sounds/cat_mussol.mp3,2020-06-05_12h49.34.107,TranslationElicitation_eng-prolific,3.2.4,MacIntel,60,5ed4bba6bd73d9482bfc6170,,1,0,81,50,1,80
,,,,,,,,,,,,,,,,,,,,,,,,,,,,,,,,,,,,,,,,,s,2.94900012,MUS,FALSE,,,,,,,157,mussol,Catalan,Sounds/cat_mussol.mp3,2020-06-05_12h49.34.107,TranslationElicitation_eng-prolific,3.2.4,MacIntel,60,5ed4bba6bd73d9482bfc6170,,1,0,81,50,1,80
,,,,,,,,,,,,,,,,,,,,,,,,,,,,,,,,,,,,,,,,,c,3.1650002,MUSC,FALSE,,,,,,,157,mussol,Catalan,Sounds/cat_mussol.mp3,2020-06-05_12h49.34.107,TranslationElicitation_eng-prolific,3.2.4,MacIntel,60,5ed4bba6bd73d9482bfc6170,,1,0,81,50,1,80
,,,,,,,,,,,,,,,,,,,,,,,,,,,,,,,,,,,,,,,,,l,3.565000057,MUSCL,FALSE,,,,,,,157,mussol,Catalan,Sounds/cat_mussol.mp3,2020-06-05_12h49.34.107,TranslationElicitation_eng-prolific,3.2.4,MacIntel,60,5ed4bba6bd73d9482bfc6170,,1,0,81,50,1,80
,,,,,,,,,,,,,,,,,,,,,,,,,,,,,,,,,,,,,,,,,e,3.883000135,MUSCLE,FALSE,,,,,,,157,mussol,Catalan,Sounds/cat_mussol.mp3,2020-06-05_12h49.34.107,TranslationElicitation_eng-prolific,3.2.4,MacIntel,60,5ed4bba6bd73d9482bfc6170,,1,0,81,50,1,80
,,,,,,,,,,,,,,,,,,,,,,,,,,,,,,,,,,,,,,,,,return,4.48300004,MUSCLE,FALSE,,,,,,,157,mussol,Catalan,Sounds/cat_mussol.mp3,2020-06-05_12h49.34.107,TranslationElicitation_eng-prolific,3.2.4,MacIntel,60,5ed4bba6bd73d9482bfc6170,4.48300004,1,0,81,50,1,80
,,,,,,,,,,,,,,,,,,,,,,,,,,,,,,,,,,,,,,,,,,,,,,,,,,,157,mussol,Catalan,Sounds/cat_mussol.mp3,2020-06-05_12h49.34.107,TranslationElicitation_eng-prolific,3.2.4,MacIntel,60,5ed4bba6bd73d9482bfc6170,,1,0,81,50,1,80
,,,,,,,,,,,,,,,,,,,,,,,,,,,,,,,,,,,,,,,,,c,1.534999847,C,FALSE,,,,,,,188,xocolata,Catalan,Sounds/cat_xocolata.mp3,2020-06-05_12h49.34.107,TranslationElicitation_eng-prolific,3.2.4,MacIntel,60,5ed4bba6bd73d9482bfc6170,,1,0,81,79,1,80
,,,,,,,,,,,,,,,,,,,,,,,,,,,,,,,,,,,,,,,,,h,1.815999985,CH,FALSE,,,,,,,188,xocolata,Catalan,Sounds/cat_xocolata.mp3,2020-06-05_12h49.34.107,TranslationElicitation_eng-prolific,3.2.4,MacIntel,60,5ed4bba6bd73d9482bfc6170,,1,0,81,79,1,80
,,,,,,,,,,,,,,,,,,,,,,,,,,,,,,,,,,,,,,,,,o,2.082000017,CHO,FALSE,,,,,,,188,xocolata,Catalan,Sounds/cat_xocolata.mp3,2020-06-05_12h49.34.107,TranslationElicitation_eng-prolific,3.2.4,MacIntel,60,5ed4bba6bd73d9482bfc6170,,1,0,81,79,1,80
,,,,,,,,,,,,,,,,,,,,,,,,,,,,,,,,,,,,,,,,,c,2.782999992,CHOC,FALSE,,,,,,,188,xocolata,Catalan,Sounds/cat_xocolata.mp3,2020-06-05_12h49.34.107,TranslationElicitation_eng-prolific,3.2.4,MacIntel,60,5ed4bba6bd73d9482bfc6170,,1,0,81,79,1,80
,,,,,,,,,,,,,,,,,,,,,,,,,,,,,,,,,,,,,,,,,o,3.348999977,CHOCO,FALSE,,,,,,,188,xocolata,Catalan,Sounds/cat_xocolata.mp3,2020-06-05_12h49.34.107,TranslationElicitation_eng-prolific,3.2.4,MacIntel,60,5ed4bba6bd73d9482bfc6170,,1,0,81,79,1,80
,,,,,,,,,,,,,,,,,,,,,,,,,,,,,,,,,,,,,,,,,l,3.55099988,CHOCOL,FALSE,,,,,,,188,xocolata,Catalan,Sounds/cat_xocolata.mp3,2020-06-05_12h49.34.107,TranslationElicitation_eng-prolific,3.2.4,MacIntel,60,5ed4bba6bd73d9482bfc6170,,1,0,81,79,1,80
,,,,,,,,,,,,,,,,,,,,,,,,,,,,,,,,,,,,,,,,,a,4.014999866,CHOCOLA,FALSE,,,,,,,188,xocolata,Catalan,Sounds/cat_xocolata.mp3,2020-06-05_12h49.34.107,TranslationElicitation_eng-prolific,3.2.4,MacIntel,60,5ed4bba6bd73d9482bfc6170,,1,0,81,79,1,80
,,,,,,,,,,,,,,,,,,,,,,,,,,,,,,,,,,,,,,,,,t,4.483999968,CHOCOLAT,FALSE,,,,,,,188,xocolata,Catalan,Sounds/cat_xocolata.mp3,2020-06-05_12h49.34.107,TranslationElicitation_eng-prolific,3.2.4,MacIntel,60,5ed4bba6bd73d9482bfc6170,,1,0,81,79,1,80
,,,,,,,,,,,,,,,,,,,,,,,,,,,,,,,,,,,,,,,,,e,4.648000002,CHOCOLATE,FALSE,,,,,,,188,xocolata,Catalan,Sounds/cat_xocolata.mp3,2020-06-05_12h49.34.107,TranslationElicitation_eng-prolific,3.2.4,MacIntel,60,5ed4bba6bd73d9482bfc6170,,1,0,81,79,1,80
,,,,,,,,,,,,,,,,,,,,,,,,,,,,,,,,,,,,,,,,,return,5.218999863,CHOCOLATE,FALSE,,,,,,,188,xocolata,Catalan,Sounds/cat_xocolata.mp3,2020-06-05_12h49.34.107,TranslationElicitation_eng-prolific,3.2.4,MacIntel,60,5ed4bba6bd73d9482bfc6170,5.218999863,1,0,81,79,1,80
,,,,,,,,,,,,,,,,,,,,,,,,,,,,,,,,,,,,,,,,,,,,,,,,,,,188,xocolata,Catalan,Sounds/cat_xocolata.mp3,2020-06-05_12h49.34.107,TranslationElicitation_eng-prolific,3.2.4,MacIntel,60,5ed4bba6bd73d9482bfc6170,,1,0,81,79,1,80
,,,,,,,,,,,,,,,,,,,,,,,,,,,,,,,,,,,,,,,,,b,1.981999874,B,FALSE,,,,,,,117,boto,Catalan,Sounds/cat_boto.mp3,2020-06-05_12h49.34.107,TranslationElicitation_eng-prolific,3.2.4,MacIntel,60,5ed4bba6bd73d9482bfc6170,,1,0,81,12,1,80
,,,,,,,,,,,,,,,,,,,,,,,,,,,,,,,,,,,,,,,,,o,2.231999874,BO,FALSE,,,,,,,117,boto,Catalan,Sounds/cat_boto.mp3,2020-06-05_12h49.34.107,TranslationElicitation_eng-prolific,3.2.4,MacIntel,60,5ed4bba6bd73d9482bfc6170,,1,0,81,12,1,80
,,,,,,,,,,,,,,,,,,,,,,,,,,,,,,,,,,,,,,,,,o,2.36500001,BOO,FALSE,,,,,,,117,boto,Catalan,Sounds/cat_boto.mp3,2020-06-05_12h49.34.107,TranslationElicitation_eng-prolific,3.2.4,MacIntel,60,5ed4bba6bd73d9482bfc6170,,1,0,81,12,1,80
,,,,,,,,,,,,,,,,,,,,,,,,,,,,,,,,,,,,,,,,,t,2.651000023,BOOT,FALSE,,,,,,,117,boto,Catalan,Sounds/cat_boto.mp3,2020-06-05_12h49.34.107,TranslationElicitation_eng-prolific,3.2.4,MacIntel,60,5ed4bba6bd73d9482bfc6170,,1,0,81,12,1,80
,,,,,,,,,,,,,,,,,,,,,,,,,,,,,,,,,,,,,,,,,return,4.417000055,BOOT,FALSE,,,,,,,117,boto,Catalan,Sounds/cat_boto.mp3,2020-06-05_12h49.34.107,TranslationElicitation_eng-prolific,3.2.4,MacIntel,60,5ed4bba6bd73d9482bfc6170,4.417000055,1,0,81,12,1,80
,,,,,,,,,,,,,,,,,,,,,,,,,,,,,,,,,,,,,,,,,,,,,,,,,,,117,boto,Catalan,Sounds/cat_boto.mp3,2020-06-05_12h49.34.107,TranslationElicitation_eng-prolific,3.2.4,MacIntel,60,5ed4bba6bd73d9482bfc6170,,1,0,81,12,1,80
,,,,,,,,,,,,,,,,,,,,,,,,,,,,,,,,,,,,,,,,,b,5.667999983,B,FALSE,,,,,,,112,bici,Catalan,Sounds/cat_bici.mp3,2020-06-05_12h49.34.107,TranslationElicitation_eng-prolific,3.2.4,MacIntel,60,5ed4bba6bd73d9482bfc6170,,1,0,81,7,1,80
,,,,,,,,,,,,,,,,,,,,,,,,,,,,,,,,,,,,,,,,,u,5.883000135,BU,FALSE,,,,,,,112,bici,Catalan,Sounds/cat_bici.mp3,2020-06-05_12h49.34.107,TranslationElicitation_eng-prolific,3.2.4,MacIntel,60,5ed4bba6bd73d9482bfc6170,,1,0,81,7,1,80
,,,,,,,,,,,,,,,,,,,,,,,,,,,,,,,,,,,,,,,,,s,6.166000128,BUS,FALSE,,,,,,,112,bici,Catalan,Sounds/cat_bici.mp3,2020-06-05_12h49.34.107,TranslationElicitation_eng-prolific,3.2.4,MacIntel,60,5ed4bba6bd73d9482bfc6170,,1,0,81,7,1,80
,,,,,,,,,,,,,,,,,,,,,,,,,,,,,,,,,,,,,,,,,y,6.582999945,BUSY,FALSE,,,,,,,112,bici,Catalan,Sounds/cat_bici.mp3,2020-06-05_12h49.34.107,TranslationElicitation_eng-prolific,3.2.4,MacIntel,60,5ed4bba6bd73d9482bfc6170,,1,0,81,7,1,80
,,,,,,,,,,,,,,,,,,,,,,,,,,,,,,,,,,,,,,,,,return,6.98300004,BUSY,FALSE,,,,,,,112,bici,Catalan,Sounds/cat_bici.mp3,2020-06-05_12h49.34.107,TranslationElicitation_eng-prolific,3.2.4,MacIntel,60,5ed4bba6bd73d9482bfc6170,6.98300004,1,0,81,7,1,80
,,,,,,,,,,,,,,,,,,,,,,,,,,,,,,,,,,,,,,,,,,,,,,,,,,,112,bici,Catalan,Sounds/cat_bici.mp3,2020-06-05_12h49.34.107,TranslationElicitation_eng-prolific,3.2.4,MacIntel,60,5ed4bba6bd73d9482bfc6170,,1,0,81,7,1,80
,,,,,,,,,,,,,,,,,,,,,,,,,,,,,,,,,,,,,,,,,n,2.98300004,N,FALSE,,,,,,,158,nas,Catalan,Sounds/cat_nas.mp3,2020-06-05_12h49.34.107,TranslationElicitation_eng-prolific,3.2.4,MacIntel,60,5ed4bba6bd73d9482bfc6170,,1,0,81,51,1,80
,,,,,,,,,,,,,,,,,,,,,,,,,,,,,,,,,,,,,,,,,i,3.18200016,NI,FALSE,,,,,,,158,nas,Catalan,Sounds/cat_nas.mp3,2020-06-05_12h49.34.107,TranslationElicitation_eng-prolific,3.2.4,MacIntel,60,5ed4bba6bd73d9482bfc6170,,1,0,81,51,1,80
,,,,,,,,,,,,,,,,,,,,,,,,,,,,,,,,,,,,,,,,,c,3.447999954,NIC,FALSE,,,,,,,158,nas,Catalan,Sounds/cat_nas.mp3,2020-06-05_12h49.34.107,TranslationElicitation_eng-prolific,3.2.4,MacIntel,60,5ed4bba6bd73d9482bfc6170,,1,0,81,51,1,80
,,,,,,,,,,,,,,,,,,,,,,,,,,,,,,,,,,,,,,,,,e,3.651000023,NICE,FALSE,,,,,,,158,nas,Catalan,Sounds/cat_nas.mp3,2020-06-05_12h49.34.107,TranslationElicitation_eng-prolific,3.2.4,MacIntel,60,5ed4bba6bd73d9482bfc6170,,1,0,81,51,1,80
,,,,,,,,,,,,,,,,,,,,,,,,,,,,,,,,,,,,,,,,,return,4.233999968,NICE,FALSE,,,,,,,158,nas,Catalan,Sounds/cat_nas.mp3,2020-06-05_12h49.34.107,TranslationElicitation_eng-prolific,3.2.4,MacIntel,60,5ed4bba6bd73d9482bfc6170,4.233999968,1,0,81,51,1,80
,,,,,,,,,,,,,,,,,,,,,,,,,,,,,,,,,,,,,,,,,,,,,,,,,,,158,nas,Catalan,Sounds/cat_nas.mp3,2020-06-05_12h49.34.107,TranslationElicitation_eng-prolific,3.2.4,MacIntel,60,5ed4bba6bd73d9482bfc6170,,1,0,81,51,1,80
,,,,,,,,,,,,,,,,,,,,,,,,,,,,,,,,,,,,,,,,,w,7.049999952,W,FALSE,,,,,,,185,ulleres,Catalan,Sounds/cat_ulleres.mp3,2020-06-05_12h49.34.107,TranslationElicitation_eng-prolific,3.2.4,MacIntel,60,5ed4bba6bd73d9482bfc6170,,1,0,81,76,1,80
,,,,,,,,,,,,,,,,,,,,,,,,,,,,,,,,,,,,,,,,,e,7.217999935,WE,FALSE,,,,,,,185,ulleres,Catalan,Sounds/cat_ulleres.mp3,2020-06-05_12h49.34.107,TranslationElicitation_eng-prolific,3.2.4,MacIntel,60,5ed4bba6bd73d9482bfc6170,,1,0,81,76,1,80
,,,,,,,,,,,,,,,,,,,,,,,,,,,,,,,,,,,,,,,,,l,7.682999849,WEL,FALSE,,,,,,,185,ulleres,Catalan,Sounds/cat_ulleres.mp3,2020-06-05_12h49.34.107,TranslationElicitation_eng-prolific,3.2.4,MacIntel,60,5ed4bba6bd73d9482bfc6170,,1,0,81,76,1,80
,,,,,,,,,,,,,,,,,,,,,,,,,,,,,,,,,,,,,,,,,l,7.799999952,WELL,FALSE,,,,,,,185,ulleres,Catalan,Sounds/cat_ulleres.mp3,2020-06-05_12h49.34.107,TranslationElicitation_eng-prolific,3.2.4,MacIntel,60,5ed4bba6bd73d9482bfc6170,,1,0,81,76,1,80
,,,,,,,,,,,,,,,,,,,,,,,,,,,,,,,,,,,,,,,,,i,7.967000008,WELLI,FALSE,,,,,,,185,ulleres,Catalan,Sounds/cat_ulleres.mp3,2020-06-05_12h49.34.107,TranslationElicitation_eng-prolific,3.2.4,MacIntel,60,5ed4bba6bd73d9482bfc6170,,1,0,81,76,1,80
,,,,,,,,,,,,,,,,,,,,,,,,,,,,,,,,,,,,,,,,,e,8.234999895,WELLIE,FALSE,,,,,,,185,ulleres,Catalan,Sounds/cat_ulleres.mp3,2020-06-05_12h49.34.107,TranslationElicitation_eng-prolific,3.2.4,MacIntel,60,5ed4bba6bd73d9482bfc6170,,1,0,81,76,1,80
,,,,,,,,,,,,,,,,,,,,,,,,,,,,,,,,,,,,,,,,,s,8.414000034,WELLIES,FALSE,,,,,,,185,ulleres,Catalan,Sounds/cat_ulleres.mp3,2020-06-05_12h49.34.107,TranslationElicitation_eng-prolific,3.2.4,MacIntel,60,5ed4bba6bd73d9482bfc6170,,1,0,81,76,1,80
,,,,,,,,,,,,,,,,,,,,,,,,,,,,,,,,,,,,,,,,,return,8.80099988,WELLIES,FALSE,,,,,,,185,ulleres,Catalan,Sounds/cat_ulleres.mp3,2020-06-05_12h49.34.107,TranslationElicitation_eng-prolific,3.2.4,MacIntel,60,5ed4bba6bd73d9482bfc6170,8.80099988,1,0,81,76,1,80
,,,,,,,,,,,,,,,,,,,,,,,,,,,,,,,,,,,,,,,,,,,,,,,,,,,185,ulleres,Catalan,Sounds/cat_ulleres.mp3,2020-06-05_12h49.34.107,TranslationElicitation_eng-prolific,3.2.4,MacIntel,60,5ed4bba6bd73d9482bfc6170,,1,0,81,76,1,80
,,,,,,,,,,,,,,,,,,,,,,,,,,,,,,,,,,,,,,,,,b,1.917999983,B,FALSE,,,,,,,162,pa,Catalan,Sounds/cat_pa.mp3,2020-06-05_12h49.34.107,TranslationElicitation_eng-prolific,3.2.4,MacIntel,60,5ed4bba6bd73d9482bfc6170,,1,0,81,54,1,80
,,,,,,,,,,,,,,,,,,,,,,,,,,,,,,,,,,,,,,,,,a,2.23300004,BA,FALSE,,,,,,,162,pa,Catalan,Sounds/cat_pa.mp3,2020-06-05_12h49.34.107,TranslationElicitation_eng-prolific,3.2.4,MacIntel,60,5ed4bba6bd73d9482bfc6170,,1,0,81,54,1,80
,,,,,,,,,,,,,,,,,,,,,,,,,,,,,,,,,,,,,,,,,r,2.48300004,BAR,FALSE,,,,,,,162,pa,Catalan,Sounds/cat_pa.mp3,2020-06-05_12h49.34.107,TranslationElicitation_eng-prolific,3.2.4,MacIntel,60,5ed4bba6bd73d9482bfc6170,,1,0,81,54,1,80
,,,,,,,,,,,,,,,,,,,,,,,,,,,,,,,,,,,,,,,,,return,2.967999935,BAR,FALSE,,,,,,,162,pa,Catalan,Sounds/cat_pa.mp3,2020-06-05_12h49.34.107,TranslationElicitation_eng-prolific,3.2.4,MacIntel,60,5ed4bba6bd73d9482bfc6170,2.967999935,1,0,81,54,1,80
,,,,,,,,,,,,,,,,,,,,,,,,,,,,,,,,,,,,,,,,,,,,,,,,,,,162,pa,Catalan,Sounds/cat_pa.mp3,2020-06-05_12h49.34.107,TranslationElicitation_eng-prolific,3.2.4,MacIntel,60,5ed4bba6bd73d9482bfc6170,,1,0,81,54,1,80
,,,,,,,,,,,,,,,,,,,,,,,,,,,,,,,,,,,,,,,,,r,5.23300004,R,FALSE,,,,,,,121,camisa,Catalan,Sounds/cat_camisa.mp3,2020-06-05_12h49.34.107,TranslationElicitation_eng-prolific,3.2.4,MacIntel,60,5ed4bba6bd73d9482bfc6170,,1,0,81,16,1,80
,,,,,,,,,,,,,,,,,,,,,,,,,,,,,,,,,,,,,,,,,o,5.665999889,RO,FALSE,,,,,,,121,camisa,Catalan,Sounds/cat_camisa.mp3,2020-06-05_12h49.34.107,TranslationElicitation_eng-prolific,3.2.4,MacIntel,60,5ed4bba6bd73d9482bfc6170,,1,0,81,16,1,80
,,,,,,,,,,,,,,,,,,,,,,,,,,,,,,,,,,,,,,,,,o,5.802999973,ROO,FALSE,,,,,,,121,camisa,Catalan,Sounds/cat_camisa.mp3,2020-06-05_12h49.34.107,TranslationElicitation_eng-prolific,3.2.4,MacIntel,60,5ed4bba6bd73d9482bfc6170,,1,0,81,16,1,80
,,,,,,,,,,,,,,,,,,,,,,,,,,,,,,,,,,,,,,,,,m,5.98300004,ROOM,FALSE,,,,,,,121,camisa,Catalan,Sounds/cat_camisa.mp3,2020-06-05_12h49.34.107,TranslationElicitation_eng-prolific,3.2.4,MacIntel,60,5ed4bba6bd73d9482bfc6170,,1,0,81,16,1,80
,,,,,,,,,,,,,,,,,,,,,,,,,,,,,,,,,,,,,,,,,return,6.516000032,ROOM,FALSE,,,,,,,121,camisa,Catalan,Sounds/cat_camisa.mp3,2020-06-05_12h49.34.107,TranslationElicitation_eng-prolific,3.2.4,MacIntel,60,5ed4bba6bd73d9482bfc6170,6.516000032,1,0,81,16,1,80
,,,,,,,,,,,,,,,,,,,,,,,,,,,,,,,,,,,,,,,,,,,,,,,,,,,121,camisa,Catalan,Sounds/cat_camisa.mp3,2020-06-05_12h49.34.107,TranslationElicitation_eng-prolific,3.2.4,MacIntel,60,5ed4bba6bd73d9482bfc6170,,1,0,81,16,1,80
,,,,,,,,,,,,,,,,,,,,,,,,,,,,,,,,,,,,,,,,,m,2.115999937,M,FALSE,,,,,,,152,ma,Catalan,Sounds/cat_ma.mp3,2020-06-05_12h49.34.107,TranslationElicitation_eng-prolific,3.2.4,MacIntel,60,5ed4bba6bd73d9482bfc6170,,1,0,81,45,1,80
,,,,,,,,,,,,,,,,,,,,,,,,,,,,,,,,,,,,,,,,,u,2.383000135,MU,FALSE,,,,,,,152,ma,Catalan,Sounds/cat_ma.mp3,2020-06-05_12h49.34.107,TranslationElicitation_eng-prolific,3.2.4,MacIntel,60,5ed4bba6bd73d9482bfc6170,,1,0,81,45,1,80
,,,,,,,,,,,,,,,,,,,,,,,,,,,,,,,,,,,,,,,,,m,2.633000135,MUM,FALSE,,,,,,,152,ma,Catalan,Sounds/cat_ma.mp3,2020-06-05_12h49.34.107,TranslationElicitation_eng-prolific,3.2.4,MacIntel,60,5ed4bba6bd73d9482bfc6170,,1,0,81,45,1,80
,,,,,,,,,,,,,,,,,,,,,,,,,,,,,,,,,,,,,,,,,return,2.950000048,MUM,FALSE,,,,,,,152,ma,Catalan,Sounds/cat_ma.mp3,2020-06-05_12h49.34.107,TranslationElicitation_eng-prolific,3.2.4,MacIntel,60,5ed4bba6bd73d9482bfc6170,2.950000048,1,0,81,45,1,80
,,,,,,,,,,,,,,,,,,,,,,,,,,,,,,,,,,,,,,,,,,,,,,,,,,,152,ma,Catalan,Sounds/cat_ma.mp3,2020-06-05_12h49.34.107,TranslationElicitation_eng-prolific,3.2.4,MacIntel,60,5ed4bba6bd73d9482bfc6170,,1,0,81,45,1,80
,,,,,,,,,,,,,,,,,,,,,,,,,,,,,,,,,,,,,,,,,g,3.347999811,G,FALSE,,,,,,,151,lluna,Catalan,Sounds/cat_lluna.mp3,2020-06-05_12h49.34.107,TranslationElicitation_eng-prolific,3.2.4,MacIntel,60,5ed4bba6bd73d9482bfc6170,,1,0,81,44,1,80
,,,,,,,,,,,,,,,,,,,,,,,,,,,,,,,,,,,,,,,,,l,3.618999958,GL,FALSE,,,,,,,151,lluna,Catalan,Sounds/cat_lluna.mp3,2020-06-05_12h49.34.107,TranslationElicitation_eng-prolific,3.2.4,MacIntel,60,5ed4bba6bd73d9482bfc6170,,1,0,81,44,1,80
,,,,,,,,,,,,,,,,,,,,,,,,,,,,,,,,,,,,,,,,,o,3.799999952,GLO,FALSE,,,,,,,151,lluna,Catalan,Sounds/cat_lluna.mp3,2020-06-05_12h49.34.107,TranslationElicitation_eng-prolific,3.2.4,MacIntel,60,5ed4bba6bd73d9482bfc6170,,1,0,81,44,1,80
,,,,,,,,,,,,,,,,,,,,,,,,,,,,,,,,,,,,,,,,,o,3.932999849,GLOO,FALSE,,,,,,,151,lluna,Catalan,Sounds/cat_lluna.mp3,2020-06-05_12h49.34.107,TranslationElicitation_eng-prolific,3.2.4,MacIntel,60,5ed4bba6bd73d9482bfc6170,,1,0,81,44,1,80
,,,,,,,,,,,,,,,,,,,,,,,,,,,,,,,,,,,,,,,,,m,4.132999897,GLOOM,FALSE,,,,,,,151,lluna,Catalan,Sounds/cat_lluna.mp3,2020-06-05_12h49.34.107,TranslationElicitation_eng-prolific,3.2.4,MacIntel,60,5ed4bba6bd73d9482bfc6170,,1,0,81,44,1,80
,,,,,,,,,,,,,,,,,,,,,,,,,,,,,,,,,,,,,,,,,y,4.360999823,GLOOMY,FALSE,,,,,,,151,lluna,Catalan,Sounds/cat_lluna.mp3,2020-06-05_12h49.34.107,TranslationElicitation_eng-prolific,3.2.4,MacIntel,60,5ed4bba6bd73d9482bfc6170,,1,0,81,44,1,80
,,,,,,,,,,,,,,,,,,,,,,,,,,,,,,,,,,,,,,,,,return,4.615999937,GLOOMY,FALSE,,,,,,,151,lluna,Catalan,Sounds/cat_lluna.mp3,2020-06-05_12h49.34.107,TranslationElicitation_eng-prolific,3.2.4,MacIntel,60,5ed4bba6bd73d9482bfc6170,4.615999937,1,0,81,44,1,80
,,,,,,,,,,,,,,,,,,,,,,,,,,,,,,,,,,,,,,,,,,,,,,,,,,,151,lluna,Catalan,Sounds/cat_lluna.mp3,2020-06-05_12h49.34.107,TranslationElicitation_eng-prolific,3.2.4,MacIntel,60,5ed4bba6bd73d9482bfc6170,,1,0,81,44,1,80
,,,,,,,,,,,,,,,,,,,,,,,,,,,,,,,,,,,,,,,,,s,2.317000151,S,FALSE,,,,,,,176,samarreta,Catalan,Sounds/cat_samarreta.mp3,2020-06-05_12h49.34.107,TranslationElicitation_eng-prolific,3.2.4,MacIntel,60,5ed4bba6bd73d9482bfc6170,,1,0,81,68,1,80
,,,,,,,,,,,,,,,,,,,,,,,,,,,,,,,,,,,,,,,,,u,2.684999943,SU,FALSE,,,,,,,176,samarreta,Catalan,Sounds/cat_samarreta.mp3,2020-06-05_12h49.34.107,TranslationElicitation_eng-prolific,3.2.4,MacIntel,60,5ed4bba6bd73d9482bfc6170,,1,0,81,68,1,80
,,,,,,,,,,,,,,,,,,,,,,,,,,,,,,,,,,,,,,,,,m,2.920000076,SUM,FALSE,,,,,,,176,samarreta,Catalan,Sounds/cat_samarreta.mp3,2020-06-05_12h49.34.107,TranslationElicitation_eng-prolific,3.2.4,MacIntel,60,5ed4bba6bd73d9482bfc6170,,1,0,81,68,1,80
,,,,,,,,,,,,,,,,,,,,,,,,,,,,,,,,,,,,,,,,,m,3.036999941,SUMM,FALSE,,,,,,,176,samarreta,Catalan,Sounds/cat_samarreta.mp3,2020-06-05_12h49.34.107,TranslationElicitation_eng-prolific,3.2.4,MacIntel,60,5ed4bba6bd73d9482bfc6170,,1,0,81,68,1,80
,,,,,,,,,,,,,,,,,,,,,,,,,,,,,,,,,,,,,,,,,e,3.368999958,SUMME,FALSE,,,,,,,176,samarreta,Catalan,Sounds/cat_samarreta.mp3,2020-06-05_12h49.34.107,TranslationElicitation_eng-prolific,3.2.4,MacIntel,60,5ed4bba6bd73d9482bfc6170,,1,0,81,68,1,80
,,,,,,,,,,,,,,,,,,,,,,,,,,,,,,,,,,,,,,,,,r,3.502000093,SUMMER,FALSE,,,,,,,176,samarreta,Catalan,Sounds/cat_samarreta.mp3,2020-06-05_12h49.34.107,TranslationElicitation_eng-prolific,3.2.4,MacIntel,60,5ed4bba6bd73d9482bfc6170,,1,0,81,68,1,80
,,,,,,,,,,,,,,,,,,,,,,,,,,,,,,,,,,,,,,,,,return,3.798000097,SUMMER,FALSE,,,,,,,176,samarreta,Catalan,Sounds/cat_samarreta.mp3,2020-06-05_12h49.34.107,TranslationElicitation_eng-prolific,3.2.4,MacIntel,60,5ed4bba6bd73d9482bfc6170,3.798000097,1,0,81,68,1,80
,,,,,,,,,,,,,,,,,,,,,,,,,,,,,,,,,,,,,,,,,,,,,,,,,,,176,samarreta,Catalan,Sounds/cat_samarreta.mp3,2020-06-05_12h49.34.107,TranslationElicitation_eng-prolific,3.2.4,MacIntel,60,5ed4bba6bd73d9482bfc6170,,1,0,81,68,1,80
,,,,,,,,,,,,,,,,,,,,,,,,,,,,,,,,,,,,,,,,,f,3.282999992,F,FALSE,,,,,,,137,fulla,Catalan,Sounds/cat_fulla.mp3,2020-06-05_12h49.34.107,TranslationElicitation_eng-prolific,3.2.4,MacIntel,60,5ed4bba6bd73d9482bfc6170,,1,0,81,31,1,80
,,,,,,,,,,,,,,,,,,,,,,,,,,,,,,,,,,,,,,,,,o,3.599999905,FO,FALSE,,,,,,,137,fulla,Catalan,Sounds/cat_fulla.mp3,2020-06-05_12h49.34.107,TranslationElicitation_eng-prolific,3.2.4,MacIntel,60,5ed4bba6bd73d9482bfc6170,,1,0,81,31,1,80
,,,,,,,,,,,,,,,,,,,,,,,,,,,,,,,,,,,,,,,,,o,3.737999916,FOO,FALSE,,,,,,,137,fulla,Catalan,Sounds/cat_fulla.mp3,2020-06-05_12h49.34.107,TranslationElicitation_eng-prolific,3.2.4,MacIntel,60,5ed4bba6bd73d9482bfc6170,,1,0,81,31,1,80
,,,,,,,,,,,,,,,,,,,,,,,,,,,,,,,,,,,,,,,,,d,4.01699996,FOOD,FALSE,,,,,,,137,fulla,Catalan,Sounds/cat_fulla.mp3,2020-06-05_12h49.34.107,TranslationElicitation_eng-prolific,3.2.4,MacIntel,60,5ed4bba6bd73d9482bfc6170,,1,0,81,31,1,80
,,,,,,,,,,,,,,,,,,,,,,,,,,,,,,,,,,,,,,,,,return,4.468999863,FOOD,FALSE,,,,,,,137,fulla,Catalan,Sounds/cat_fulla.mp3,2020-06-05_12h49.34.107,TranslationElicitation_eng-prolific,3.2.4,MacIntel,60,5ed4bba6bd73d9482bfc6170,4.468999863,1,0,81,31,1,80
,,,,,,,,,,,,,,,,,,,,,,,,,,,,,,,,,,,,,,,,,,,,,,,,,,,137,fulla,Catalan,Sounds/cat_fulla.mp3,2020-06-05_12h49.34.107,TranslationElicitation_eng-prolific,3.2.4,MacIntel,60,5ed4bba6bd73d9482bfc6170,,1,0,81,31,1,80
,,,,,,,,,,,,,,,,,,,,,,,,,,,,,,,,,,,,,,,,,g,1.76699996,G,FALSE,,,,,,,145,got,Catalan,Sounds/cat_got.mp3,2020-06-05_12h49.34.107,TranslationElicitation_eng-prolific,3.2.4,MacIntel,60,5ed4bba6bd73d9482bfc6170,,1,0,81,39,1,80
,,,,,,,,,,,,,,,,,,,,,,,,,,,,,,,,,,,,,,,,,o,2.0849998,GO,FALSE,,,,,,,145,got,Catalan,Sounds/cat_got.mp3,2020-06-05_12h49.34.107,TranslationElicitation_eng-prolific,3.2.4,MacIntel,60,5ed4bba6bd73d9482bfc6170,,1,0,81,39,1,80
,,,,,,,,,,,,,,,,,,,,,,,,,,,,,,,,,,,,,,,,,d,2.416999817,GOD,FALSE,,,,,,,145,got,Catalan,Sounds/cat_got.mp3,2020-06-05_12h49.34.107,TranslationElicitation_eng-prolific,3.2.4,MacIntel,60,5ed4bba6bd73d9482bfc6170,,1,0,81,39,1,80
,,,,,,,,,,,,,,,,,,,,,,,,,,,,,,,,,,,,,,,,,return,2.819000006,GOD,FALSE,,,,,,,145,got,Catalan,Sounds/cat_got.mp3,2020-06-05_12h49.34.107,TranslationElicitation_eng-prolific,3.2.4,MacIntel,60,5ed4bba6bd73d9482bfc6170,2.819000006,1,0,81,39,1,80
,,,,,,,,,,,,,,,,,,,,,,,,,,,,,,,,,,,,,,,,,,,,,,,,,,,145,got,Catalan,Sounds/cat_got.mp3,2020-06-05_12h49.34.107,TranslationElicitation_eng-prolific,3.2.4,MacIntel,60,5ed4bba6bd73d9482bfc6170,,1,0,81,39,1,80
,,,,,,,,,,,,,,,,,,,,,,,,,,,,,,,,,,,,,,,,,s,1.782000065,S,FALSE,,,,,,,131,esponja,Catalan,Sounds/cat_esponja.mp3,2020-06-05_12h49.34.107,TranslationElicitation_eng-prolific,3.2.4,MacIntel,60,5ed4bba6bd73d9482bfc6170,,1,0,81,25,1,80
,,,,,,,,,,,,,,,,,,,,,,,,,,,,,,,,,,,,,,,,,p,2.21600008,SP,FALSE,,,,,,,131,esponja,Catalan,Sounds/cat_esponja.mp3,2020-06-05_12h49.34.107,TranslationElicitation_eng-prolific,3.2.4,MacIntel,60,5ed4bba6bd73d9482bfc6170,,1,0,81,25,1,80
,,,,,,,,,,,,,,,,,,,,,,,,,,,,,,,,,,,,,,,,,o,2.399000168,SPO,FALSE,,,,,,,131,esponja,Catalan,Sounds/cat_esponja.mp3,2020-06-05_12h49.34.107,TranslationElicitation_eng-prolific,3.2.4,MacIntel,60,5ed4bba6bd73d9482bfc6170,,1,0,81,25,1,80
,,,,,,,,,,,,,,,,,,,,,,,,,,,,,,,,,,,,,,,,,n,2.616000175,SPON,FALSE,,,,,,,131,esponja,Catalan,Sounds/cat_esponja.mp3,2020-06-05_12h49.34.107,TranslationElicitation_eng-prolific,3.2.4,MacIntel,60,5ed4bba6bd73d9482bfc6170,,1,0,81,25,1,80
,,,,,,,,,,,,,,,,,,,,,,,,,,,,,,,,,,,,,,,,,g,2.820000172,SPONG,FALSE,,,,,,,131,esponja,Catalan,Sounds/cat_esponja.mp3,2020-06-05_12h49.34.107,TranslationElicitation_eng-prolific,3.2.4,MacIntel,60,5ed4bba6bd73d9482bfc6170,,1,0,81,25,1,80
,,,,,,,,,,,,,,,,,,,,,,,,,,,,,,,,,,,,,,,,,e,3.016000032,SPONGE,FALSE,,,,,,,131,esponja,Catalan,Sounds/cat_esponja.mp3,2020-06-05_12h49.34.107,TranslationElicitation_eng-prolific,3.2.4,MacIntel,60,5ed4bba6bd73d9482bfc6170,,1,0,81,25,1,80
,,,,,,,,,,,,,,,,,,,,,,,,,,,,,,,,,,,,,,,,,return,3.651000023,SPONGE,FALSE,,,,,,,131,esponja,Catalan,Sounds/cat_esponja.mp3,2020-06-05_12h49.34.107,TranslationElicitation_eng-prolific,3.2.4,MacIntel,60,5ed4bba6bd73d9482bfc6170,3.651000023,1,0,81,25,1,80
,,,,,,,,,,,,,,,,,,,,,,,,,,,,,,,,,,,,,,,,,,,,,,,,,,,131,esponja,Catalan,Sounds/cat_esponja.mp3,2020-06-05_12h49.34.107,TranslationElicitation_eng-prolific,3.2.4,MacIntel,60,5ed4bba6bd73d9482bfc6170,,1,0,81,25,1,80
,,,,,,,,,,,,,,,,,,,,,,,,,,,,,,,,,,,,,,,,,p,70.25899982,P,FALSE,,,,,,,161,ovella,Catalan,Sounds/cat_ovella.mp3,2020-06-05_12h49.34.107,TranslationElicitation_eng-prolific,3.2.4,MacIntel,60,5ed4bba6bd73d9482bfc6170,,1,0,81,53,1,80
,,,,,,,,,,,,,,,,,,,,,,,,,,,,,,,,,,,,,,,,,o,70.42299986,PO,FALSE,,,,,,,161,ovella,Catalan,Sounds/cat_ovella.mp3,2020-06-05_12h49.34.107,TranslationElicitation_eng-prolific,3.2.4,MacIntel,60,5ed4bba6bd73d9482bfc6170,,1,0,81,53,1,80
,,,,,,,,,,,,,,,,,,,,,,,,,,,,,,,,,,,,,,,,,o,70.55499983,POO,FALSE,,,,,,,161,ovella,Catalan,Sounds/cat_ovella.mp3,2020-06-05_12h49.34.107,TranslationElicitation_eng-prolific,3.2.4,MacIntel,60,5ed4bba6bd73d9482bfc6170,,1,0,81,53,1,80
,,,,,,,,,,,,,,,,,,,,,,,,,,,,,,,,,,,,,,,,,l,70.73799992,POOL,FALSE,,,,,,,161,ovella,Catalan,Sounds/cat_ovella.mp3,2020-06-05_12h49.34.107,TranslationElicitation_eng-prolific,3.2.4,MacIntel,60,5ed4bba6bd73d9482bfc6170,,1,0,81,53,1,80
,,,,,,,,,,,,,,,,,,,,,,,,,,,,,,,,,,,,,,,,,return,71.33799982,POOL,FALSE,,,,,,,161,ovella,Catalan,Sounds/cat_ovella.mp3,2020-06-05_12h49.34.107,TranslationElicitation_eng-prolific,3.2.4,MacIntel,60,5ed4bba6bd73d9482bfc6170,71.33799982,1,0,81,53,1,80
,,,,,,,,,,,,,,,,,,,,,,,,,,,,,,,,,,,,,,,,,,,,,,,,,,,161,ovella,Catalan,Sounds/cat_ovella.mp3,2020-06-05_12h49.34.107,TranslationElicitation_eng-prolific,3.2.4,MacIntel,60,5ed4bba6bd73d9482bfc6170,,1,0,81,53,1,80
,,,,,,,,,,,,,,,,,,,,,,,,,,,,,,,,,,,,,,,,,l,5.88499999,L,FALSE,,,,,,,149,llibre,Catalan,Sounds/cat_llibre.mp3,2020-06-05_12h49.34.107,TranslationElicitation_eng-prolific,3.2.4,MacIntel,60,5ed4bba6bd73d9482bfc6170,,1,0,81,42,1,80
,,,,,,,,,,,,,,,,,,,,,,,,,,,,,,,,,,,,,,,,,i,6.065999985,LI,FALSE,,,,,,,149,llibre,Catalan,Sounds/cat_llibre.mp3,2020-06-05_12h49.34.107,TranslationElicitation_eng-prolific,3.2.4,MacIntel,60,5ed4bba6bd73d9482bfc6170,,1,0,81,42,1,80
,,,,,,,,,,,,,,,,,,,,,,,,,,,,,,,,,,,,,,,,,b,6.30099988,LIB,FALSE,,,,,,,149,llibre,Catalan,Sounds/cat_llibre.mp3,2020-06-05_12h49.34.107,TranslationElicitation_eng-prolific,3.2.4,MacIntel,60,5ed4bba6bd73d9482bfc6170,,1,0,81,42,1,80
,,,,,,,,,,,,,,,,,,,,,,,,,,,,,,,,,,,,,,,,,r,6.552999973,LIBR,FALSE,,,,,,,149,llibre,Catalan,Sounds/cat_llibre.mp3,2020-06-05_12h49.34.107,TranslationElicitation_eng-prolific,3.2.4,MacIntel,60,5ed4bba6bd73d9482bfc6170,,1,0,81,42,1,80
,,,,,,,,,,,,,,,,,,,,,,,,,,,,,,,,,,,,,,,,,a,6.78399992,LIBRA,FALSE,,,,,,,149,llibre,Catalan,Sounds/cat_llibre.mp3,2020-06-05_12h49.34.107,TranslationElicitation_eng-prolific,3.2.4,MacIntel,60,5ed4bba6bd73d9482bfc6170,,1,0,81,42,1,80
,,,,,,,,,,,,,,,,,,,,,,,,,,,,,,,,,,,,,,,,,return,9.019999981,LIBRA,FALSE,,,,,,,149,llibre,Catalan,Sounds/cat_llibre.mp3,2020-06-05_12h49.34.107,TranslationElicitation_eng-prolific,3.2.4,MacIntel,60,5ed4bba6bd73d9482bfc6170,9.019999981,1,0,81,42,1,80
,,,,,,,,,,,,,,,,,,,,,,,,,,,,,,,,,,,,,,,,,,,,,,,,,,,149,llibre,Catalan,Sounds/cat_llibre.mp3,2020-06-05_12h49.34.107,TranslationElicitation_eng-prolific,3.2.4,MacIntel,60,5ed4bba6bd73d9482bfc6170,,1,0,81,42,1,80
,,,,,,,,,,,,,,,,,,,,,,,,,,,,,,,,,,,,,,,,,space,29.25500011, ,FALSE,,,,,,,167,pingui,Catalan,Sounds/cat_pingui.mp3,2020-06-05_12h49.34.107,TranslationElicitation_eng-prolific,3.2.4,MacIntel,60,5ed4bba6bd73d9482bfc6170,,1,0,81,59,1,80
,,,,,,,,,,,,,,,,,,,,,,,,,,,,,,,,,,,,,,,,,t,32.03399992, T,FALSE,,,,,,,167,pingui,Catalan,Sounds/cat_pingui.mp3,2020-06-05_12h49.34.107,TranslationElicitation_eng-prolific,3.2.4,MacIntel,60,5ed4bba6bd73d9482bfc6170,,1,0,81,59,1,80
,,,,,,,,,,,,,,,,,,,,,,,,,,,,,,,,,,,,,,,,,o,32.31700015, TO,FALSE,,,,,,,167,pingui,Catalan,Sounds/cat_pingui.mp3,2020-06-05_12h49.34.107,TranslationElicitation_eng-prolific,3.2.4,MacIntel,60,5ed4bba6bd73d9482bfc6170,,1,0,81,59,1,80
,,,,,,,,,,,,,,,,,,,,,,,,,,,,,,,,,,,,,,,,,y,32.56700015, TOY,FALSE,,,,,,,167,pingui,Catalan,Sounds/cat_pingui.mp3,2020-06-05_12h49.34.107,TranslationElicitation_eng-prolific,3.2.4,MacIntel,60,5ed4bba6bd73d9482bfc6170,,1,0,81,59,1,80
,,,,,,,,,,,,,,,,,,,,,,,,,,,,,,,,,,,,,,,,,return,33.06800008, TOY,FALSE,,,,,,,167,pingui,Catalan,Sounds/cat_pingui.mp3,2020-06-05_12h49.34.107,TranslationElicitation_eng-prolific,3.2.4,MacIntel,60,5ed4bba6bd73d9482bfc6170,33.06800008,1,0,81,59,1,80
,,,,,,,,,,,,,,,,,,,,,,,,,,,,,,,,,,,,,,,,,,,,,,,,,,,167,pingui,Catalan,Sounds/cat_pingui.mp3,2020-06-05_12h49.34.107,TranslationElicitation_eng-prolific,3.2.4,MacIntel,60,5ed4bba6bd73d9482bfc6170,,1,0,81,59,1,80
,,,,,,,,,,,,,,,,,,,,,,,,,,,,,,,,,,,,,,,,,c,2.500999928,C,FALSE,,,,,,,127,cotxe,Catalan,Sounds/cat_cotxe.mp3,2020-06-05_12h49.34.107,TranslationElicitation_eng-prolific,3.2.4,MacIntel,60,5ed4bba6bd73d9482bfc6170,,1,0,81,21,1,80
,,,,,,,,,,,,,,,,,,,,,,,,,,,,,,,,,,,,,,,,,h,2.71600008,CH,FALSE,,,,,,,127,cotxe,Catalan,Sounds/cat_cotxe.mp3,2020-06-05_12h49.34.107,TranslationElicitation_eng-prolific,3.2.4,MacIntel,60,5ed4bba6bd73d9482bfc6170,,1,0,81,21,1,80
,,,,,,,,,,,,,,,,,,,,,,,,,,,,,,,,,,,,,,,,,e,2.96600008,CHE,FALSE,,,,,,,127,cotxe,Catalan,Sounds/cat_cotxe.mp3,2020-06-05_12h49.34.107,TranslationElicitation_eng-prolific,3.2.4,MacIntel,60,5ed4bba6bd73d9482bfc6170,,1,0,81,21,1,80
,,,,,,,,,,,,,,,,,,,,,,,,,,,,,,,,,,,,,,,,,e,3.082999945,CHEE,FALSE,,,,,,,127,cotxe,Catalan,Sounds/cat_cotxe.mp3,2020-06-05_12h49.34.107,TranslationElicitation_eng-prolific,3.2.4,MacIntel,60,5ed4bba6bd73d9482bfc6170,,1,0,81,21,1,80
,,,,,,,,,,,,,,,,,,,,,,,,,,,,,,,,,,,,,,,,,s,3.217000008,CHEES,FALSE,,,,,,,127,cotxe,Catalan,Sounds/cat_cotxe.mp3,2020-06-05_12h49.34.107,TranslationElicitation_eng-prolific,3.2.4,MacIntel,60,5ed4bba6bd73d9482bfc6170,,1,0,81,21,1,80
,,,,,,,,,,,,,,,,,,,,,,,,,,,,,,,,,,,,,,,,,e,3.365999937,CHEESE,FALSE,,,,,,,127,cotxe,Catalan,Sounds/cat_cotxe.mp3,2020-06-05_12h49.34.107,TranslationElicitation_eng-prolific,3.2.4,MacIntel,60,5ed4bba6bd73d9482bfc6170,,1,0,81,21,1,80
,,,,,,,,,,,,,,,,,,,,,,,,,,,,,,,,,,,,,,,,,return,3.950999975,CHEESE,FALSE,,,,,,,127,cotxe,Catalan,Sounds/cat_cotxe.mp3,2020-06-05_12h49.34.107,TranslationElicitation_eng-prolific,3.2.4,MacIntel,60,5ed4bba6bd73d9482bfc6170,3.950999975,1,0,81,21,1,80
,,,,,,,,,,,,,,,,,,,,,,,,,,,,,,,,,,,,,,,,,,,,,,,,,,,127,cotxe,Catalan,Sounds/cat_cotxe.mp3,2020-06-05_12h49.34.107,TranslationElicitation_eng-prolific,3.2.4,MacIntel,60,5ed4bba6bd73d9482bfc6170,,1,0,81,21,1,80
,,,,,,,,,,,,,,,,,,,,,,,,,,,,,,,,,,,,,,,,,c,1.599999905,C,FALSE,,,,,,,138,galeta,Catalan,Sounds/cat_galeta.mp3,2020-06-05_12h49.34.107,TranslationElicitation_eng-prolific,3.2.4,MacIntel,60,5ed4bba6bd73d9482bfc6170,,1,0,81,32,1,80
,,,,,,,,,,,,,,,,,,,,,,,,,,,,,,,,,,,,,,,,,o,1.905999899,CO,FALSE,,,,,,,138,galeta,Catalan,Sounds/cat_galeta.mp3,2020-06-05_12h49.34.107,TranslationElicitation_eng-prolific,3.2.4,MacIntel,60,5ed4bba6bd73d9482bfc6170,,1,0,81,32,1,80
,,,,,,,,,,,,,,,,,,,,,,,,,,,,,,,,,,,,,,,,,l,2.116999865,COL,FALSE,,,,,,,138,galeta,Catalan,Sounds/cat_galeta.mp3,2020-06-05_12h49.34.107,TranslationElicitation_eng-prolific,3.2.4,MacIntel,60,5ed4bba6bd73d9482bfc6170,,1,0,81,32,1,80
,,,,,,,,,,,,,,,,,,,,,,,,,,,,,,,,,,,,,,,,,l,2.250999928,COLL,FALSE,,,,,,,138,galeta,Catalan,Sounds/cat_galeta.mp3,2020-06-05_12h49.34.107,TranslationElicitation_eng-prolific,3.2.4,MacIntel,60,5ed4bba6bd73d9482bfc6170,,1,0,81,32,1,80
,,,,,,,,,,,,,,,,,,,,,,,,,,,,,,,,,,,,,,,,,e,2.78399992,COLLE,FALSE,,,,,,,138,galeta,Catalan,Sounds/cat_galeta.mp3,2020-06-05_12h49.34.107,TranslationElicitation_eng-prolific,3.2.4,MacIntel,60,5ed4bba6bd73d9482bfc6170,,1,0,81,32,1,80
,,,,,,,,,,,,,,,,,,,,,,,,,,,,,,,,,,,,,,,,,c,2.968999863,COLLEC,FALSE,,,,,,,138,galeta,Catalan,Sounds/cat_galeta.mp3,2020-06-05_12h49.34.107,TranslationElicitation_eng-prolific,3.2.4,MacIntel,60,5ed4bba6bd73d9482bfc6170,,1,0,81,32,1,80
,,,,,,,,,,,,,,,,,,,,,,,,,,,,,,,,,,,,,,,,,t,3.149999857,COLLECT,FALSE,,,,,,,138,galeta,Catalan,Sounds/cat_galeta.mp3,2020-06-05_12h49.34.107,TranslationElicitation_eng-prolific,3.2.4,MacIntel,60,5ed4bba6bd73d9482bfc6170,,1,0,81,32,1,80
,,,,,,,,,,,,,,,,,,,,,,,,,,,,,,,,,,,,,,,,,return,3.399999857,COLLECT,FALSE,,,,,,,138,galeta,Catalan,Sounds/cat_galeta.mp3,2020-06-05_12h49.34.107,TranslationElicitation_eng-prolific,3.2.4,MacIntel,60,5ed4bba6bd73d9482bfc6170,3.399999857,1,0,81,32,1,80
,,,,,,,,,,,,,,,,,,,,,,,,,,,,,,,,,,,,,,,,,,,,,,,,,,,138,galeta,Catalan,Sounds/cat_galeta.mp3,2020-06-05_12h49.34.107,TranslationElicitation_eng-prolific,3.2.4,MacIntel,60,5ed4bba6bd73d9482bfc6170,,1,0,81,32,1,80
,,,,,,,,,,,,,,,,,,,,,,,,,,,,,,,,,,,,,,,,,t,15.19999981,T,FALSE,,,,,,,150,lloro,Catalan,Sounds/cat_lloro.mp3,2020-06-05_12h49.34.107,TranslationElicitation_eng-prolific,3.2.4,MacIntel,60,5ed4bba6bd73d9482bfc6170,,1,0,81,43,1,80
,,,,,,,,,,,,,,,,,,,,,,,,,,,,,,,,,,,,,,,,,r,15.36699986,TR,FALSE,,,,,,,150,lloro,Catalan,Sounds/cat_lloro.mp3,2020-06-05_12h49.34.107,TranslationElicitation_eng-prolific,3.2.4,MacIntel,60,5ed4bba6bd73d9482bfc6170,,1,0,81,43,1,80
,,,,,,,,,,,,,,,,,,,,,,,,,,,,,,,,,,,,,,,,,a,15.60499978,TRA,FALSE,,,,,,,150,lloro,Catalan,Sounds/cat_lloro.mp3,2020-06-05_12h49.34.107,TranslationElicitation_eng-prolific,3.2.4,MacIntel,60,5ed4bba6bd73d9482bfc6170,,1,0,81,43,1,80
,,,,,,,,,,,,,,,,,,,,,,,,,,,,,,,,,,,,,,,,,v,16.00099993,TRAV,FALSE,,,,,,,150,lloro,Catalan,Sounds/cat_lloro.mp3,2020-06-05_12h49.34.107,TranslationElicitation_eng-prolific,3.2.4,MacIntel,60,5ed4bba6bd73d9482bfc6170,,1,0,81,43,1,80
,,,,,,,,,,,,,,,,,,,,,,,,,,,,,,,,,,,,,,,,,e,16.21699977,TRAVE,FALSE,,,,,,,150,lloro,Catalan,Sounds/cat_lloro.mp3,2020-06-05_12h49.34.107,TranslationElicitation_eng-prolific,3.2.4,MacIntel,60,5ed4bba6bd73d9482bfc6170,,1,0,81,43,1,80
,,,,,,,,,,,,,,,,,,,,,,,,,,,,,,,,,,,,,,,,,l,16.83399987,TRAVEL,FALSE,,,,,,,150,lloro,Catalan,Sounds/cat_lloro.mp3,2020-06-05_12h49.34.107,TranslationElicitation_eng-prolific,3.2.4,MacIntel,60,5ed4bba6bd73d9482bfc6170,,1,0,81,43,1,80
,,,,,,,,,,,,,,,,,,,,,,,,,,,,,,,,,,,,,,,,,return,19.53599977,TRAVEL,FALSE,,,,,,,150,lloro,Catalan,Sounds/cat_lloro.mp3,2020-06-05_12h49.34.107,TranslationElicitation_eng-prolific,3.2.4,MacIntel,60,5ed4bba6bd73d9482bfc6170,19.53599977,1,0,81,43,1,80
,,,,,,,,,,,,,,,,,,,,,,,,,,,,,,,,,,,,,,,,,,,,,,,,,,,150,lloro,Catalan,Sounds/cat_lloro.mp3,2020-06-05_12h49.34.107,TranslationElicitation_eng-prolific,3.2.4,MacIntel,60,5ed4bba6bd73d9482bfc6170,,1,0,81,43,1,80
,,,,,,,,,,,,,,,,,,,,,,,,,,,,,,,,,,,,,,,,,b,3.6650002,B,FALSE,,,,,,,115,bolet,Catalan,Sounds/cat_bolet.mp3,2020-06-05_12h49.34.107,TranslationElicitation_eng-prolific,3.2.4,MacIntel,60,5ed4bba6bd73d9482bfc6170,,1,0,81,10,1,80
,,,,,,,,,,,,,,,,,,,,,,,,,,,,,,,,,,,,,,,,,o,3.883000135,BO,FALSE,,,,,,,115,bolet,Catalan,Sounds/cat_bolet.mp3,2020-06-05_12h49.34.107,TranslationElicitation_eng-prolific,3.2.4,MacIntel,60,5ed4bba6bd73d9482bfc6170,,1,0,81,10,1,80
,,,,,,,,,,,,,,,,,,,,,,,,,,,,,,,,,,,,,,,,,o,4.002000093,BOO,FALSE,,,,,,,115,bolet,Catalan,Sounds/cat_bolet.mp3,2020-06-05_12h49.34.107,TranslationElicitation_eng-prolific,3.2.4,MacIntel,60,5ed4bba6bd73d9482bfc6170,,1,0,81,10,1,80
,,,,,,,,,,,,,,,,,,,,,,,,,,,,,,,,,,,,,,,,,k,4.118000031,BOOK,FALSE,,,,,,,115,bolet,Catalan,Sounds/cat_bolet.mp3,2020-06-05_12h49.34.107,TranslationElicitation_eng-prolific,3.2.4,MacIntel,60,5ed4bba6bd73d9482bfc6170,,1,0,81,10,1,80
,,,,,,,,,,,,,,,,,,,,,,,,,,,,,,,,,,,,,,,,,return,4.684000015,BOOK,FALSE,,,,,,,115,bolet,Catalan,Sounds/cat_bolet.mp3,2020-06-05_12h49.34.107,TranslationElicitation_eng-prolific,3.2.4,MacIntel,60,5ed4bba6bd73d9482bfc6170,4.684000015,1,0,81,10,1,80
,,,,,,,,,,,,,,,,,,,,,,,,,,,,,,,,,,,,,,,,,,,,,,,,,,,115,bolet,Catalan,Sounds/cat_bolet.mp3,2020-06-05_12h49.34.107,TranslationElicitation_eng-prolific,3.2.4,MacIntel,60,5ed4bba6bd73d9482bfc6170,,1,0,81,10,1,80
,,,,,,,,,,,,,,,,,,,,,,,,,,,,,,,,,,,,,,,,,b,2.200000048,B,FALSE,,,,,,,172,poma,Catalan,Sounds/cat_poma.mp3,2020-06-05_12h49.34.107,TranslationElicitation_eng-prolific,3.2.4,MacIntel,60,5ed4bba6bd73d9482bfc6170,,1,0,81,64,1,80
,,,,,,,,,,,,,,,,,,,,,,,,,,,,,,,,,,,,,,,,,o,5.417000055,BO,FALSE,,,,,,,172,poma,Catalan,Sounds/cat_poma.mp3,2020-06-05_12h49.34.107,TranslationElicitation_eng-prolific,3.2.4,MacIntel,60,5ed4bba6bd73d9482bfc6170,,1,0,81,64,1,80
,,,,,,,,,,,,,,,,,,,,,,,,,,,,,,,,,,,,,,,,,r,7.101999998,BOR,FALSE,,,,,,,172,poma,Catalan,Sounds/cat_poma.mp3,2020-06-05_12h49.34.107,TranslationElicitation_eng-prolific,3.2.4,MacIntel,60,5ed4bba6bd73d9482bfc6170,,1,0,81,64,1,80
,,,,,,,,,,,,,,,,,,,,,,,,,,,,,,,,,,,,,,,,,n,7.41899991,BORN,FALSE,,,,,,,172,poma,Catalan,Sounds/cat_poma.mp3,2020-06-05_12h49.34.107,TranslationElicitation_eng-prolific,3.2.4,MacIntel,60,5ed4bba6bd73d9482bfc6170,,1,0,81,64,1,80
,,,,,,,,,,,,,,,,,,,,,,,,,,,,,,,,,,,,,,,,,return,7.66899991,BORN,FALSE,,,,,,,172,poma,Catalan,Sounds/cat_poma.mp3,2020-06-05_12h49.34.107,TranslationElicitation_eng-prolific,3.2.4,MacIntel,60,5ed4bba6bd73d9482bfc6170,7.66899991,1,0,81,64,1,80
,,,,,,,,,,,,,,,,,,,,,,,,,,,,,,,,,,,,,,,,,,,,,,,,,,,172,poma,Catalan,Sounds/cat_poma.mp3,2020-06-05_12h49.34.107,TranslationElicitation_eng-prolific,3.2.4,MacIntel,60,5ed4bba6bd73d9482bfc6170,,1,0,81,64,1,80
,,,,,,,,,,,,,,,,,,,,,,,,,,,,,,,,,,,,,,,,,g,1.833999872,G,FALSE,,,,,,,146,guitarra,Catalan,Sounds/cat_guitarra.mp3,2020-06-05_12h49.34.107,TranslationElicitation_eng-prolific,3.2.4,MacIntel,60,5ed4bba6bd73d9482bfc6170,,1,0,81,40,1,80
,,,,,,,,,,,,,,,,,,,,,,,,,,,,,,,,,,,,,,,,,u,2.051999807,GU,FALSE,,,,,,,146,guitarra,Catalan,Sounds/cat_guitarra.mp3,2020-06-05_12h49.34.107,TranslationElicitation_eng-prolific,3.2.4,MacIntel,60,5ed4bba6bd73d9482bfc6170,,1,0,81,40,1,80
,,,,,,,,,,,,,,,,,,,,,,,,,,,,,,,,,,,,,,,,,i,2.234999895,GUI,FALSE,,,,,,,146,guitarra,Catalan,Sounds/cat_guitarra.mp3,2020-06-05_12h49.34.107,TranslationElicitation_eng-prolific,3.2.4,MacIntel,60,5ed4bba6bd73d9482bfc6170,,1,0,81,40,1,80
,,,,,,,,,,,,,,,,,,,,,,,,,,,,,,,,,,,,,,,,,t,2.467000008,GUIT,FALSE,,,,,,,146,guitarra,Catalan,Sounds/cat_guitarra.mp3,2020-06-05_12h49.34.107,TranslationElicitation_eng-prolific,3.2.4,MacIntel,60,5ed4bba6bd73d9482bfc6170,,1,0,81,40,1,80
,,,,,,,,,,,,,,,,,,,,,,,,,,,,,,,,,,,,,,,,,a,2.717000008,GUITA,FALSE,,,,,,,146,guitarra,Catalan,Sounds/cat_guitarra.mp3,2020-06-05_12h49.34.107,TranslationElicitation_eng-prolific,3.2.4,MacIntel,60,5ed4bba6bd73d9482bfc6170,,1,0,81,40,1,80
