consentKey.keys,consentKey.rt,languageL1Key.keys,languageL1Key.rt,languageL2,languageL2OralKey.keys,languageL2OralKey.rt,languageL2WrittenKey.keys,languageL2WrittenKey.rt,languageL3OralKey.keys,languageL3OralKey.rt,languageL3WrittenKey.keys,languageL3WrittenKey.rt,languageCatalanOralKey.keys,languageCatalanOralKey.rt,languageCatalanWrittenKey.keys,languageCatalanWrittenKey.rt,languageCatalanTimeKey.keys,languageCatalanTimeKey.rt,languageSpanishOralKey.keys,languageSpanishOralKey.rt,languageSpanishWrittenKey.keys,languageSpanishWrittenKey.rt,languageSpanishTimeKey.keys,languageSpanishTimeKey.rt,age,demoSexKey.keys,demoSexKey.rt,demoEducationKey.keys,demoEducationKey.rt,city,demoVisionKey.keys,demoVisionKey.rt,demoLanguageKey.keys,demoLanguageKey.rt,setupLocationKey.keys,setupLocationKey.rt,setupNoiseKey.keys,setupNoiseKey.rt,instructionsKeys.keys,instructionsKeys.rt,keyPressed,keyPressTime,inputText,error,trialsPracticeCatalan.thisRepN,trialsPracticeCatalan.thisTrialN,trialsPracticeCatalan.thisN,trialsPracticeCatalan.thisIndex,trialsPracticeCatalan.ran,trialsPracticeCatalan.order,trial_id,word,test_language,soundfile,date,expName,psychopyVersion,OS,frameRate,participant,trialOffset,trialsCatalan.thisRepN,trialsCatalan.thisTrialN,trialsCatalan.thisN,trialsCatalan.thisIndex,trialsCatalan.ran,trialsCatalan.order
space,0.909999847,e,1.486999989,,,,,,,,,,1,2.069999933,1,1.065000057,1,1.065000057,2,8.266000032,1,1.205999851,1,1.388999939,23,f,1.517999887,4,1.698999882,NEWCASTLESPACEUK,y,2.080999851,n,30.73500013,1,1.649000168,1,1.101000071,space,2.201999903,j,1.599999905,J,FALSE,1,0,5,2,1,4,147,jaqueta,Catalan,Sounds/cat_jaqueta.mp3,2020-06-05_16h12.11.676,TranslationElicitation_eng-prolific,3.2.4,MacIntel,60,5ed40c8f237b5d09810ae6b5,,,,,,,
,,,,,,,,,,,,,,,,,,,,,,,,,,,,,,,,,,,,,,,,,a,1.75,JA,FALSE,1,0,5,2,1,4,147,jaqueta,Catalan,Sounds/cat_jaqueta.mp3,2020-06-05_16h12.11.676,TranslationElicitation_eng-prolific,3.2.4,MacIntel,60,5ed40c8f237b5d09810ae6b5,,,,,,,
,,,,,,,,,,,,,,,,,,,,,,,,,,,,,,,,,,,,,,,,,c,1.96600008,JAC,FALSE,1,0,5,2,1,4,147,jaqueta,Catalan,Sounds/cat_jaqueta.mp3,2020-06-05_16h12.11.676,TranslationElicitation_eng-prolific,3.2.4,MacIntel,60,5ed40c8f237b5d09810ae6b5,,,,,,,
,,,,,,,,,,,,,,,,,,,,,,,,,,,,,,,,,,,,,,,,,k,2.082999945,JACK,FALSE,1,0,5,2,1,4,147,jaqueta,Catalan,Sounds/cat_jaqueta.mp3,2020-06-05_16h12.11.676,TranslationElicitation_eng-prolific,3.2.4,MacIntel,60,5ed40c8f237b5d09810ae6b5,,,,,,,
,,,,,,,,,,,,,,,,,,,,,,,,,,,,,,,,,,,,,,,,,e,2.183000088,JACKE,FALSE,1,0,5,2,1,4,147,jaqueta,Catalan,Sounds/cat_jaqueta.mp3,2020-06-05_16h12.11.676,TranslationElicitation_eng-prolific,3.2.4,MacIntel,60,5ed40c8f237b5d09810ae6b5,,,,,,,
,,,,,,,,,,,,,,,,,,,,,,,,,,,,,,,,,,,,,,,,,t,2.332999945,JACKET,FALSE,1,0,5,2,1,4,147,jaqueta,Catalan,Sounds/cat_jaqueta.mp3,2020-06-05_16h12.11.676,TranslationElicitation_eng-prolific,3.2.4,MacIntel,60,5ed40c8f237b5d09810ae6b5,,,,,,,
,,,,,,,,,,,,,,,,,,,,,,,,,,,,,,,,,,,,,,,,,return,2.884000063,JACKET,FALSE,1,0,5,2,1,4,147,jaqueta,Catalan,Sounds/cat_jaqueta.mp3,2020-06-05_16h12.11.676,TranslationElicitation_eng-prolific,3.2.4,MacIntel,60,5ed40c8f237b5d09810ae6b5,2.884000063,,,,,,
,,,,,,,,,,,,,,,,,,,,,,,,,,,,,,,,,,,,,,,,,,,,,1,0,5,2,1,4,147,jaqueta,Catalan,Sounds/cat_jaqueta.mp3,2020-06-05_16h12.11.676,TranslationElicitation_eng-prolific,3.2.4,MacIntel,60,5ed40c8f237b5d09810ae6b5,,,,,,,
,,,,,,,,,,,,,,,,,,,,,,,,,,,,,,,,,,,,,,,,,c,1.28399992,C,FALSE,1,0,5,1,1,4,126,corona,Catalan,Sounds/cat_corona.mp3,2020-06-05_16h12.11.676,TranslationElicitation_eng-prolific,3.2.4,MacIntel,60,5ed40c8f237b5d09810ae6b5,,,,,,,
,,,,,,,,,,,,,,,,,,,,,,,,,,,,,,,,,,,,,,,,,o,1.384000063,CO,FALSE,1,0,5,1,1,4,126,corona,Catalan,Sounds/cat_corona.mp3,2020-06-05_16h12.11.676,TranslationElicitation_eng-prolific,3.2.4,MacIntel,60,5ed40c8f237b5d09810ae6b5,,,,,,,
,,,,,,,,,,,,,,,,,,,,,,,,,,,,,,,,,,,,,,,,,r,1.549999952,COR,FALSE,1,0,5,1,1,4,126,corona,Catalan,Sounds/cat_corona.mp3,2020-06-05_16h12.11.676,TranslationElicitation_eng-prolific,3.2.4,MacIntel,60,5ed40c8f237b5d09810ae6b5,,,,,,,
,,,,,,,,,,,,,,,,,,,,,,,,,,,,,,,,,,,,,,,,,o,1.700000048,CORO,FALSE,1,0,5,1,1,4,126,corona,Catalan,Sounds/cat_corona.mp3,2020-06-05_16h12.11.676,TranslationElicitation_eng-prolific,3.2.4,MacIntel,60,5ed40c8f237b5d09810ae6b5,,,,,,,
,,,,,,,,,,,,,,,,,,,,,,,,,,,,,,,,,,,,,,,,,n,1.815999985,CORON,FALSE,1,0,5,1,1,4,126,corona,Catalan,Sounds/cat_corona.mp3,2020-06-05_16h12.11.676,TranslationElicitation_eng-prolific,3.2.4,MacIntel,60,5ed40c8f237b5d09810ae6b5,,,,,,,
,,,,,,,,,,,,,,,,,,,,,,,,,,,,,,,,,,,,,,,,,a,1.950000048,CORONA,FALSE,1,0,5,1,1,4,126,corona,Catalan,Sounds/cat_corona.mp3,2020-06-05_16h12.11.676,TranslationElicitation_eng-prolific,3.2.4,MacIntel,60,5ed40c8f237b5d09810ae6b5,,,,,,,
,,,,,,,,,,,,,,,,,,,,,,,,,,,,,,,,,,,,,,,,,return,2.5,CORONA,FALSE,1,0,5,1,1,4,126,corona,Catalan,Sounds/cat_corona.mp3,2020-06-05_16h12.11.676,TranslationElicitation_eng-prolific,3.2.4,MacIntel,60,5ed40c8f237b5d09810ae6b5,2.5,,,,,,
,,,,,,,,,,,,,,,,,,,,,,,,,,,,,,,,,,,,,,,,,,,,,1,0,5,1,1,4,126,corona,Catalan,Sounds/cat_corona.mp3,2020-06-05_16h12.11.676,TranslationElicitation_eng-prolific,3.2.4,MacIntel,60,5ed40c8f237b5d09810ae6b5,,,,,,,
,,,,,,,,,,,,,,,,,,,,,,,,,,,,,,,,,,,,,,,,,t,1.632999897,T,FALSE,1,0,5,4,1,4,179,tigre,Catalan,Sounds/cat_tigre.mp3,2020-06-05_16h12.11.676,TranslationElicitation_eng-prolific,3.2.4,MacIntel,60,5ed40c8f237b5d09810ae6b5,,,,,,,
,,,,,,,,,,,,,,,,,,,,,,,,,,,,,,,,,,,,,,,,,i,1.700999975,TI,FALSE,1,0,5,4,1,4,179,tigre,Catalan,Sounds/cat_tigre.mp3,2020-06-05_16h12.11.676,TranslationElicitation_eng-prolific,3.2.4,MacIntel,60,5ed40c8f237b5d09810ae6b5,,,,,,,
,,,,,,,,,,,,,,,,,,,,,,,,,,,,,,,,,,,,,,,,,g,1.899999857,TIG,FALSE,1,0,5,4,1,4,179,tigre,Catalan,Sounds/cat_tigre.mp3,2020-06-05_16h12.11.676,TranslationElicitation_eng-prolific,3.2.4,MacIntel,60,5ed40c8f237b5d09810ae6b5,,,,,,,
,,,,,,,,,,,,,,,,,,,,,,,,,,,,,,,,,,,,,,,,,e,2.01699996,TIGE,FALSE,1,0,5,4,1,4,179,tigre,Catalan,Sounds/cat_tigre.mp3,2020-06-05_16h12.11.676,TranslationElicitation_eng-prolific,3.2.4,MacIntel,60,5ed40c8f237b5d09810ae6b5,,,,,,,
,,,,,,,,,,,,,,,,,,,,,,,,,,,,,,,,,,,,,,,,,r,2.082999945,TIGER,FALSE,1,0,5,4,1,4,179,tigre,Catalan,Sounds/cat_tigre.mp3,2020-06-05_16h12.11.676,TranslationElicitation_eng-prolific,3.2.4,MacIntel,60,5ed40c8f237b5d09810ae6b5,,,,,,,
,,,,,,,,,,,,,,,,,,,,,,,,,,,,,,,,,,,,,,,,,return,2.583999872,TIGER,FALSE,1,0,5,4,1,4,179,tigre,Catalan,Sounds/cat_tigre.mp3,2020-06-05_16h12.11.676,TranslationElicitation_eng-prolific,3.2.4,MacIntel,60,5ed40c8f237b5d09810ae6b5,2.583999872,,,,,,
,,,,,,,,,,,,,,,,,,,,,,,,,,,,,,,,,,,,,,,,,,,,,1,0,5,4,1,4,179,tigre,Catalan,Sounds/cat_tigre.mp3,2020-06-05_16h12.11.676,TranslationElicitation_eng-prolific,3.2.4,MacIntel,60,5ed40c8f237b5d09810ae6b5,,,,,,,
,,,,,,,,,,,,,,,,,,,,,,,,,,,,,,,,,,,,,,,,,h,6.01699996,H,FALSE,1,0,5,0,1,4,109,arbre,Catalan,Sounds/cat_arbre.mp3,2020-06-05_16h12.11.676,TranslationElicitation_eng-prolific,3.2.4,MacIntel,60,5ed40c8f237b5d09810ae6b5,,,,,,,
,,,,,,,,,,,,,,,,,,,,,,,,,,,,,,,,,,,,,,,,,e,6.233999968,HE,FALSE,1,0,5,0,1,4,109,arbre,Catalan,Sounds/cat_arbre.mp3,2020-06-05_16h12.11.676,TranslationElicitation_eng-prolific,3.2.4,MacIntel,60,5ed40c8f237b5d09810ae6b5,,,,,,,
,,,,,,,,,,,,,,,,,,,,,,,,,,,,,,,,,,,,,,,,,l,6.351000071,HEL,FALSE,1,0,5,0,1,4,109,arbre,Catalan,Sounds/cat_arbre.mp3,2020-06-05_16h12.11.676,TranslationElicitation_eng-prolific,3.2.4,MacIntel,60,5ed40c8f237b5d09810ae6b5,,,,,,,
,,,,,,,,,,,,,,,,,,,,,,,,,,,,,,,,,,,,,,,,,l,6.5,HELL,FALSE,1,0,5,0,1,4,109,arbre,Catalan,Sounds/cat_arbre.mp3,2020-06-05_16h12.11.676,TranslationElicitation_eng-prolific,3.2.4,MacIntel,60,5ed40c8f237b5d09810ae6b5,,,,,,,
,,,,,,,,,,,,,,,,,,,,,,,,,,,,,,,,,,,,,,,,,o,6.652000189,HELLO,FALSE,1,0,5,0,1,4,109,arbre,Catalan,Sounds/cat_arbre.mp3,2020-06-05_16h12.11.676,TranslationElicitation_eng-prolific,3.2.4,MacIntel,60,5ed40c8f237b5d09810ae6b5,,,,,,,
,,,,,,,,,,,,,,,,,,,,,,,,,,,,,,,,,,,,,,,,,return,7.268000126,HELLO,FALSE,1,0,5,0,1,4,109,arbre,Catalan,Sounds/cat_arbre.mp3,2020-06-05_16h12.11.676,TranslationElicitation_eng-prolific,3.2.4,MacIntel,60,5ed40c8f237b5d09810ae6b5,7.268000126,,,,,,
,,,,,,,,,,,,,,,,,,,,,,,,,,,,,,,,,,,,,,,,,,,,,1,0,5,0,1,4,109,arbre,Catalan,Sounds/cat_arbre.mp3,2020-06-05_16h12.11.676,TranslationElicitation_eng-prolific,3.2.4,MacIntel,60,5ed40c8f237b5d09810ae6b5,,,,,,,
,,,,,,,,,,,,,,,,,,,,,,,,,,,,,,,,,,,,,,,,,n,4.583999872,N,FALSE,1,0,5,3,1,4,159,onada,Catalan,Sounds/cat_onada.mp3,2020-06-05_16h12.11.676,TranslationElicitation_eng-prolific,3.2.4,MacIntel,60,5ed40c8f237b5d09810ae6b5,,,,,,,
,,,,,,,,,,,,,,,,,,,,,,,,,,,,,,,,,,,,,,,,,backspace,5.75,,TRUE,1,0,5,3,1,4,159,onada,Catalan,Sounds/cat_onada.mp3,2020-06-05_16h12.11.676,TranslationElicitation_eng-prolific,3.2.4,MacIntel,60,5ed40c8f237b5d09810ae6b5,,,,,,,
,,,,,,,,,,,,,,,,,,,,,,,,,,,,,,,,,,,,,,,,,n,8.05099988,N,TRUE,1,0,5,3,1,4,159,onada,Catalan,Sounds/cat_onada.mp3,2020-06-05_16h12.11.676,TranslationElicitation_eng-prolific,3.2.4,MacIntel,60,5ed40c8f237b5d09810ae6b5,,,,,,,
,,,,,,,,,,,,,,,,,,,,,,,,,,,,,,,,,,,,,,,,,o,8.217999935,NO,TRUE,1,0,5,3,1,4,159,onada,Catalan,Sounds/cat_onada.mp3,2020-06-05_16h12.11.676,TranslationElicitation_eng-prolific,3.2.4,MacIntel,60,5ed40c8f237b5d09810ae6b5,,,,,,,
,,,,,,,,,,,,,,,,,,,,,,,,,,,,,,,,,,,,,,,,,return,8.717000008,NO,TRUE,1,0,5,3,1,4,159,onada,Catalan,Sounds/cat_onada.mp3,2020-06-05_16h12.11.676,TranslationElicitation_eng-prolific,3.2.4,MacIntel,60,5ed40c8f237b5d09810ae6b5,8.717000008,,,,,,
,,,,,,,,,,,,,,,,,,,,,,,,,,,,,,,,,,,,,,,,,,,,,1,0,5,3,1,4,159,onada,Catalan,Sounds/cat_onada.mp3,2020-06-05_16h12.11.676,TranslationElicitation_eng-prolific,3.2.4,MacIntel,60,5ed40c8f237b5d09810ae6b5,,,,,,,
,,,,,,,,,,,,,,,,,,,,,,,,,,,,,,,,,,,,,,,,,b,9.449999809,B,FALSE,,,,,,,166,peu,Catalan,Sounds/cat_peu.mp3,2020-06-05_16h12.11.676,TranslationElicitation_eng-prolific,3.2.4,MacIntel,60,5ed40c8f237b5d09810ae6b5,,1,0,81,58,1,80
,,,,,,,,,,,,,,,,,,,,,,,,,,,,,,,,,,,,,,,,,a,9.53399992,BA,FALSE,,,,,,,166,peu,Catalan,Sounds/cat_peu.mp3,2020-06-05_16h12.11.676,TranslationElicitation_eng-prolific,3.2.4,MacIntel,60,5ed40c8f237b5d09810ae6b5,,1,0,81,58,1,80
,,,,,,,,,,,,,,,,,,,,,,,,,,,,,,,,,,,,,,,,,b,9.600999832,BAB,FALSE,,,,,,,166,peu,Catalan,Sounds/cat_peu.mp3,2020-06-05_16h12.11.676,TranslationElicitation_eng-prolific,3.2.4,MacIntel,60,5ed40c8f237b5d09810ae6b5,,1,0,81,58,1,80
,,,,,,,,,,,,,,,,,,,,,,,,,,,,,,,,,,,,,,,,,y,9.733999968,BABY,FALSE,,,,,,,166,peu,Catalan,Sounds/cat_peu.mp3,2020-06-05_16h12.11.676,TranslationElicitation_eng-prolific,3.2.4,MacIntel,60,5ed40c8f237b5d09810ae6b5,,1,0,81,58,1,80
,,,,,,,,,,,,,,,,,,,,,,,,,,,,,,,,,,,,,,,,,return,10.25099993,BABY,FALSE,,,,,,,166,peu,Catalan,Sounds/cat_peu.mp3,2020-06-05_16h12.11.676,TranslationElicitation_eng-prolific,3.2.4,MacIntel,60,5ed40c8f237b5d09810ae6b5,10.25099993,1,0,81,58,1,80
,,,,,,,,,,,,,,,,,,,,,,,,,,,,,,,,,,,,,,,,,,,,,,,,,,,166,peu,Catalan,Sounds/cat_peu.mp3,2020-06-05_16h12.11.676,TranslationElicitation_eng-prolific,3.2.4,MacIntel,60,5ed40c8f237b5d09810ae6b5,,1,0,81,58,1,80
,,,,,,,,,,,,,,,,,,,,,,,,,,,,,,,,,,,,,,,,,c,1.94900012,C,FALSE,,,,,,,120,cama,Catalan,Sounds/cat_cama.mp3,2020-06-05_16h12.11.676,TranslationElicitation_eng-prolific,3.2.4,MacIntel,60,5ed40c8f237b5d09810ae6b5,,1,0,81,15,1,80
,,,,,,,,,,,,,,,,,,,,,,,,,,,,,,,,,,,,,,,,,m,2.067000151,CM,FALSE,,,,,,,120,cama,Catalan,Sounds/cat_cama.mp3,2020-06-05_16h12.11.676,TranslationElicitation_eng-prolific,3.2.4,MacIntel,60,5ed40c8f237b5d09810ae6b5,,1,0,81,15,1,80
,,,,,,,,,,,,,,,,,,,,,,,,,,,,,,,,,,,,,,,,,backspace,2.782000065,C,TRUE,,,,,,,120,cama,Catalan,Sounds/cat_cama.mp3,2020-06-05_16h12.11.676,TranslationElicitation_eng-prolific,3.2.4,MacIntel,60,5ed40c8f237b5d09810ae6b5,,1,0,81,15,1,80
,,,,,,,,,,,,,,,,,,,,,,,,,,,,,,,,,,,,,,,,,o,3.098999977,CO,TRUE,,,,,,,120,cama,Catalan,Sounds/cat_cama.mp3,2020-06-05_16h12.11.676,TranslationElicitation_eng-prolific,3.2.4,MacIntel,60,5ed40c8f237b5d09810ae6b5,,1,0,81,15,1,80
,,,,,,,,,,,,,,,,,,,,,,,,,,,,,,,,,,,,,,,,,m,3.19900012,COM,TRUE,,,,,,,120,cama,Catalan,Sounds/cat_cama.mp3,2020-06-05_16h12.11.676,TranslationElicitation_eng-prolific,3.2.4,MacIntel,60,5ed40c8f237b5d09810ae6b5,,1,0,81,15,1,80
,,,,,,,,,,,,,,,,,,,,,,,,,,,,,,,,,,,,,,,,,e,3.416000128,COME,TRUE,,,,,,,120,cama,Catalan,Sounds/cat_cama.mp3,2020-06-05_16h12.11.676,TranslationElicitation_eng-prolific,3.2.4,MacIntel,60,5ed40c8f237b5d09810ae6b5,,1,0,81,15,1,80
,,,,,,,,,,,,,,,,,,,,,,,,,,,,,,,,,,,,,,,,,return,3.815999985,COME,TRUE,,,,,,,120,cama,Catalan,Sounds/cat_cama.mp3,2020-06-05_16h12.11.676,TranslationElicitation_eng-prolific,3.2.4,MacIntel,60,5ed40c8f237b5d09810ae6b5,3.815999985,1,0,81,15,1,80
,,,,,,,,,,,,,,,,,,,,,,,,,,,,,,,,,,,,,,,,,,,,,,,,,,,120,cama,Catalan,Sounds/cat_cama.mp3,2020-06-05_16h12.11.676,TranslationElicitation_eng-prolific,3.2.4,MacIntel,60,5ed40c8f237b5d09810ae6b5,,1,0,81,15,1,80
,,,,,,,,,,,,,,,,,,,,,,,,,,,,,,,,,,,,,,,,,t,7.133999825,T,FALSE,,,,,,,148,lleo,Catalan,Sounds/cat_lleo.mp3,2020-06-05_16h12.11.676,TranslationElicitation_eng-prolific,3.2.4,MacIntel,60,5ed40c8f237b5d09810ae6b5,,1,0,81,41,1,80
,,,,,,,,,,,,,,,,,,,,,,,,,,,,,,,,,,,,,,,,,h,7.215999842,TH,FALSE,,,,,,,148,lleo,Catalan,Sounds/cat_lleo.mp3,2020-06-05_16h12.11.676,TranslationElicitation_eng-prolific,3.2.4,MacIntel,60,5ed40c8f237b5d09810ae6b5,,1,0,81,41,1,80
,,,,,,,,,,,,,,,,,,,,,,,,,,,,,,,,,,,,,,,,,e,7.333999872,THE,FALSE,,,,,,,148,lleo,Catalan,Sounds/cat_lleo.mp3,2020-06-05_16h12.11.676,TranslationElicitation_eng-prolific,3.2.4,MacIntel,60,5ed40c8f237b5d09810ae6b5,,1,0,81,41,1,80
,,,,,,,,,,,,,,,,,,,,,,,,,,,,,,,,,,,,,,,,,space,7.383999825,THE ,FALSE,,,,,,,148,lleo,Catalan,Sounds/cat_lleo.mp3,2020-06-05_16h12.11.676,TranslationElicitation_eng-prolific,3.2.4,MacIntel,60,5ed40c8f237b5d09810ae6b5,,1,0,81,41,1,80
,,,,,,,,,,,,,,,,,,,,,,,,,,,,,,,,,,,,,,,,,backspace,18.7349999,THE,TRUE,,,,,,,148,lleo,Catalan,Sounds/cat_lleo.mp3,2020-06-05_16h12.11.676,TranslationElicitation_eng-prolific,3.2.4,MacIntel,60,5ed40c8f237b5d09810ae6b5,,1,0,81,41,1,80
,,,,,,,,,,,,,,,,,,,,,,,,,,,,,,,,,,,,,,,,,backspace,18.90100002,TH,TRUE,,,,,,,148,lleo,Catalan,Sounds/cat_lleo.mp3,2020-06-05_16h12.11.676,TranslationElicitation_eng-prolific,3.2.4,MacIntel,60,5ed40c8f237b5d09810ae6b5,,1,0,81,41,1,80
,,,,,,,,,,,,,,,,,,,,,,,,,,,,,,,,,,,,,,,,,backspace,19.35099983,T,TRUE,,,,,,,148,lleo,Catalan,Sounds/cat_lleo.mp3,2020-06-05_16h12.11.676,TranslationElicitation_eng-prolific,3.2.4,MacIntel,60,5ed40c8f237b5d09810ae6b5,,1,0,81,41,1,80
,,,,,,,,,,,,,,,,,,,,,,,,,,,,,,,,,,,,,,,,,backspace,19.7349999,,TRUE,,,,,,,148,lleo,Catalan,Sounds/cat_lleo.mp3,2020-06-05_16h12.11.676,TranslationElicitation_eng-prolific,3.2.4,MacIntel,60,5ed40c8f237b5d09810ae6b5,,1,0,81,41,1,80
,,,,,,,,,,,,,,,,,,,,,,,,,,,,,,,,,,,,,,,,,h,21.88599992,H,TRUE,,,,,,,148,lleo,Catalan,Sounds/cat_lleo.mp3,2020-06-05_16h12.11.676,TranslationElicitation_eng-prolific,3.2.4,MacIntel,60,5ed40c8f237b5d09810ae6b5,,1,0,81,41,1,80
,,,,,,,,,,,,,,,,,,,,,,,,,,,,,,,,,,,,,,,,,o,22.05099988,HO,TRUE,,,,,,,148,lleo,Catalan,Sounds/cat_lleo.mp3,2020-06-05_16h12.11.676,TranslationElicitation_eng-prolific,3.2.4,MacIntel,60,5ed40c8f237b5d09810ae6b5,,1,0,81,41,1,80
,,,,,,,,,,,,,,,,,,,,,,,,,,,,,,,,,,,,,,,,,r,22.20099998,HOR,TRUE,,,,,,,148,lleo,Catalan,Sounds/cat_lleo.mp3,2020-06-05_16h12.11.676,TranslationElicitation_eng-prolific,3.2.4,MacIntel,60,5ed40c8f237b5d09810ae6b5,,1,0,81,41,1,80
,,,,,,,,,,,,,,,,,,,,,,,,,,,,,,,,,,,,,,,,,s,22.4519999,HORS,TRUE,,,,,,,148,lleo,Catalan,Sounds/cat_lleo.mp3,2020-06-05_16h12.11.676,TranslationElicitation_eng-prolific,3.2.4,MacIntel,60,5ed40c8f237b5d09810ae6b5,,1,0,81,41,1,80
,,,,,,,,,,,,,,,,,,,,,,,,,,,,,,,,,,,,,,,,,e,22.63599992,HORSE,TRUE,,,,,,,148,lleo,Catalan,Sounds/cat_lleo.mp3,2020-06-05_16h12.11.676,TranslationElicitation_eng-prolific,3.2.4,MacIntel,60,5ed40c8f237b5d09810ae6b5,,1,0,81,41,1,80
,,,,,,,,,,,,,,,,,,,,,,,,,,,,,,,,,,,,,,,,,return,23.05199981,HORSE,TRUE,,,,,,,148,lleo,Catalan,Sounds/cat_lleo.mp3,2020-06-05_16h12.11.676,TranslationElicitation_eng-prolific,3.2.4,MacIntel,60,5ed40c8f237b5d09810ae6b5,23.05199981,1,0,81,41,1,80
,,,,,,,,,,,,,,,,,,,,,,,,,,,,,,,,,,,,,,,,,,,,,,,,,,,148,lleo,Catalan,Sounds/cat_lleo.mp3,2020-06-05_16h12.11.676,TranslationElicitation_eng-prolific,3.2.4,MacIntel,60,5ed40c8f237b5d09810ae6b5,,1,0,81,41,1,80
,,,,,,,,,,,,,,,,,,,,,,,,,,,,,,,,,,,,,,,,,m,1.766000032,M,FALSE,,,,,,,151,lluna,Catalan,Sounds/cat_lluna.mp3,2020-06-05_16h12.11.676,TranslationElicitation_eng-prolific,3.2.4,MacIntel,60,5ed40c8f237b5d09810ae6b5,,1,0,81,44,1,80
,,,,,,,,,,,,,,,,,,,,,,,,,,,,,,,,,,,,,,,,,o,1.950000048,MO,FALSE,,,,,,,151,lluna,Catalan,Sounds/cat_lluna.mp3,2020-06-05_16h12.11.676,TranslationElicitation_eng-prolific,3.2.4,MacIntel,60,5ed40c8f237b5d09810ae6b5,,1,0,81,44,1,80
,,,,,,,,,,,,,,,,,,,,,,,,,,,,,,,,,,,,,,,,,o,2.098999977,MOO,FALSE,,,,,,,151,lluna,Catalan,Sounds/cat_lluna.mp3,2020-06-05_16h12.11.676,TranslationElicitation_eng-prolific,3.2.4,MacIntel,60,5ed40c8f237b5d09810ae6b5,,1,0,81,44,1,80
,,,,,,,,,,,,,,,,,,,,,,,,,,,,,,,,,,,,,,,,,n,2.182999849,MOON,FALSE,,,,,,,151,lluna,Catalan,Sounds/cat_lluna.mp3,2020-06-05_16h12.11.676,TranslationElicitation_eng-prolific,3.2.4,MacIntel,60,5ed40c8f237b5d09810ae6b5,,1,0,81,44,1,80
,,,,,,,,,,,,,,,,,,,,,,,,,,,,,,,,,,,,,,,,,return,2.782999992,MOON,FALSE,,,,,,,151,lluna,Catalan,Sounds/cat_lluna.mp3,2020-06-05_16h12.11.676,TranslationElicitation_eng-prolific,3.2.4,MacIntel,60,5ed40c8f237b5d09810ae6b5,2.782999992,1,0,81,44,1,80
,,,,,,,,,,,,,,,,,,,,,,,,,,,,,,,,,,,,,,,,,,,,,,,,,,,151,lluna,Catalan,Sounds/cat_lluna.mp3,2020-06-05_16h12.11.676,TranslationElicitation_eng-prolific,3.2.4,MacIntel,60,5ed40c8f237b5d09810ae6b5,,1,0,81,44,1,80
,,,,,,,,,,,,,,,,,,,,,,,,,,,,,,,,,,,,,,,,,c,4.267999887,C,FALSE,,,,,,,123,cavall,Catalan,Sounds/cat_cavall.mp3,2020-06-05_16h12.11.676,TranslationElicitation_eng-prolific,3.2.4,MacIntel,60,5ed40c8f237b5d09810ae6b5,,1,0,81,18,1,80
,,,,,,,,,,,,,,,,,,,,,,,,,,,,,,,,,,,,,,,,,a,4.517999887,CA,FALSE,,,,,,,123,cavall,Catalan,Sounds/cat_cavall.mp3,2020-06-05_16h12.11.676,TranslationElicitation_eng-prolific,3.2.4,MacIntel,60,5ed40c8f237b5d09810ae6b5,,1,0,81,18,1,80
,,,,,,,,,,,,,,,,,,,,,,,,,,,,,,,,,,,,,,,,,r,4.750999928,CAR,FALSE,,,,,,,123,cavall,Catalan,Sounds/cat_cavall.mp3,2020-06-05_16h12.11.676,TranslationElicitation_eng-prolific,3.2.4,MacIntel,60,5ed40c8f237b5d09810ae6b5,,1,0,81,18,1,80
,,,,,,,,,,,,,,,,,,,,,,,,,,,,,,,,,,,,,,,,,return,4.983999968,CAR,FALSE,,,,,,,123,cavall,Catalan,Sounds/cat_cavall.mp3,2020-06-05_16h12.11.676,TranslationElicitation_eng-prolific,3.2.4,MacIntel,60,5ed40c8f237b5d09810ae6b5,4.983999968,1,0,81,18,1,80
,,,,,,,,,,,,,,,,,,,,,,,,,,,,,,,,,,,,,,,,,,,,,,,,,,,123,cavall,Catalan,Sounds/cat_cavall.mp3,2020-06-05_16h12.11.676,TranslationElicitation_eng-prolific,3.2.4,MacIntel,60,5ed40c8f237b5d09810ae6b5,,1,0,81,18,1,80
,,,,,,,,,,,,,,,,,,,,,,,,,,,,,,,,,,,,,,,,,h,2.200000048,H,FALSE,,,,,,,122,casa,Catalan,Sounds/cat_casa.mp3,2020-06-05_16h12.11.676,TranslationElicitation_eng-prolific,3.2.4,MacIntel,60,5ed40c8f237b5d09810ae6b5,,1,0,81,17,1,80
,,,,,,,,,,,,,,,,,,,,,,,,,,,,,,,,,,,,,,,,,o,2.516000032,HO,FALSE,,,,,,,122,casa,Catalan,Sounds/cat_casa.mp3,2020-06-05_16h12.11.676,TranslationElicitation_eng-prolific,3.2.4,MacIntel,60,5ed40c8f237b5d09810ae6b5,,1,0,81,17,1,80
,,,,,,,,,,,,,,,,,,,,,,,,,,,,,,,,,,,,,,,,,s,2.683000088,HOS,FALSE,,,,,,,122,casa,Catalan,Sounds/cat_casa.mp3,2020-06-05_16h12.11.676,TranslationElicitation_eng-prolific,3.2.4,MacIntel,60,5ed40c8f237b5d09810ae6b5,,1,0,81,17,1,80
,,,,,,,,,,,,,,,,,,,,,,,,,,,,,,,,,,,,,,,,,e,2.865999937,HOSE,FALSE,,,,,,,122,casa,Catalan,Sounds/cat_casa.mp3,2020-06-05_16h12.11.676,TranslationElicitation_eng-prolific,3.2.4,MacIntel,60,5ed40c8f237b5d09810ae6b5,,1,0,81,17,1,80
,,,,,,,,,,,,,,,,,,,,,,,,,,,,,,,,,,,,,,,,,backspace,3.467000008,HOS,TRUE,,,,,,,122,casa,Catalan,Sounds/cat_casa.mp3,2020-06-05_16h12.11.676,TranslationElicitation_eng-prolific,3.2.4,MacIntel,60,5ed40c8f237b5d09810ae6b5,,1,0,81,17,1,80
,,,,,,,,,,,,,,,,,,,,,,,,,,,,,,,,,,,,,,,,,backspace,3.601000071,HO,TRUE,,,,,,,122,casa,Catalan,Sounds/cat_casa.mp3,2020-06-05_16h12.11.676,TranslationElicitation_eng-prolific,3.2.4,MacIntel,60,5ed40c8f237b5d09810ae6b5,,1,0,81,17,1,80
,,,,,,,,,,,,,,,,,,,,,,,,,,,,,,,,,,,,,,,,,u,4.049999952,HOU,TRUE,,,,,,,122,casa,Catalan,Sounds/cat_casa.mp3,2020-06-05_16h12.11.676,TranslationElicitation_eng-prolific,3.2.4,MacIntel,60,5ed40c8f237b5d09810ae6b5,,1,0,81,17,1,80
,,,,,,,,,,,,,,,,,,,,,,,,,,,,,,,,,,,,,,,,,s,4.117000103,HOUS,TRUE,,,,,,,122,casa,Catalan,Sounds/cat_casa.mp3,2020-06-05_16h12.11.676,TranslationElicitation_eng-prolific,3.2.4,MacIntel,60,5ed40c8f237b5d09810ae6b5,,1,0,81,17,1,80
,,,,,,,,,,,,,,,,,,,,,,,,,,,,,,,,,,,,,,,,,e,4.299999952,HOUSE,TRUE,,,,,,,122,casa,Catalan,Sounds/cat_casa.mp3,2020-06-05_16h12.11.676,TranslationElicitation_eng-prolific,3.2.4,MacIntel,60,5ed40c8f237b5d09810ae6b5,,1,0,81,17,1,80
,,,,,,,,,,,,,,,,,,,,,,,,,,,,,,,,,,,,,,,,,return,4.733999968,HOUSE,TRUE,,,,,,,122,casa,Catalan,Sounds/cat_casa.mp3,2020-06-05_16h12.11.676,TranslationElicitation_eng-prolific,3.2.4,MacIntel,60,5ed40c8f237b5d09810ae6b5,4.733999968,1,0,81,17,1,80
,,,,,,,,,,,,,,,,,,,,,,,,,,,,,,,,,,,,,,,,,,,,,,,,,,,122,casa,Catalan,Sounds/cat_casa.mp3,2020-06-05_16h12.11.676,TranslationElicitation_eng-prolific,3.2.4,MacIntel,60,5ed40c8f237b5d09810ae6b5,,1,0,81,17,1,80
,,,,,,,,,,,,,,,,,,,,,,,,,,,,,,,,,,,,,,,,,t,6.5,T,FALSE,,,,,,,181,tobogan,Catalan,Sounds/cat_tobogan.mp3,2020-06-05_16h12.11.676,TranslationElicitation_eng-prolific,3.2.4,MacIntel,60,5ed40c8f237b5d09810ae6b5,,1,0,81,72,1,80
,,,,,,,,,,,,,,,,,,,,,,,,,,,,,,,,,,,,,,,,,o,6.667000055,TO,FALSE,,,,,,,181,tobogan,Catalan,Sounds/cat_tobogan.mp3,2020-06-05_16h12.11.676,TranslationElicitation_eng-prolific,3.2.4,MacIntel,60,5ed40c8f237b5d09810ae6b5,,1,0,81,72,1,80
,,,,,,,,,,,,,,,,,,,,,,,,,,,,,,,,,,,,,,,,,b,7.075000048,TOB,FALSE,,,,,,,181,tobogan,Catalan,Sounds/cat_tobogan.mp3,2020-06-05_16h12.11.676,TranslationElicitation_eng-prolific,3.2.4,MacIntel,60,5ed40c8f237b5d09810ae6b5,,1,0,81,72,1,80
,,,,,,,,,,,,,,,,,,,,,,,,,,,,,,,,,,,,,,,,,o,7.38499999,TOBO,FALSE,,,,,,,181,tobogan,Catalan,Sounds/cat_tobogan.mp3,2020-06-05_16h12.11.676,TranslationElicitation_eng-prolific,3.2.4,MacIntel,60,5ed40c8f237b5d09810ae6b5,,1,0,81,72,1,80
,,,,,,,,,,,,,,,,,,,,,,,,,,,,,,,,,,,,,,,,,g,8,TOBOG,FALSE,,,,,,,181,tobogan,Catalan,Sounds/cat_tobogan.mp3,2020-06-05_16h12.11.676,TranslationElicitation_eng-prolific,3.2.4,MacIntel,60,5ed40c8f237b5d09810ae6b5,,1,0,81,72,1,80
,,,,,,,,,,,,,,,,,,,,,,,,,,,,,,,,,,,,,,,,,g,8.150000095,TOBOGG,FALSE,,,,,,,181,tobogan,Catalan,Sounds/cat_tobogan.mp3,2020-06-05_16h12.11.676,TranslationElicitation_eng-prolific,3.2.4,MacIntel,60,5ed40c8f237b5d09810ae6b5,,1,0,81,72,1,80
,,,,,,,,,,,,,,,,,,,,,,,,,,,,,,,,,,,,,,,,,a,8.267000198,TOBOGGA,FALSE,,,,,,,181,tobogan,Catalan,Sounds/cat_tobogan.mp3,2020-06-05_16h12.11.676,TranslationElicitation_eng-prolific,3.2.4,MacIntel,60,5ed40c8f237b5d09810ae6b5,,1,0,81,72,1,80
,,,,,,,,,,,,,,,,,,,,,,,,,,,,,,,,,,,,,,,,,n,8.368000031,TOBOGGAN,FALSE,,,,,,,181,tobogan,Catalan,Sounds/cat_tobogan.mp3,2020-06-05_16h12.11.676,TranslationElicitation_eng-prolific,3.2.4,MacIntel,60,5ed40c8f237b5d09810ae6b5,,1,0,81,72,1,80
,,,,,,,,,,,,,,,,,,,,,,,,,,,,,,,,,,,,,,,,,return,9.334000111,TOBOGGAN,FALSE,,,,,,,181,tobogan,Catalan,Sounds/cat_tobogan.mp3,2020-06-05_16h12.11.676,TranslationElicitation_eng-prolific,3.2.4,MacIntel,60,5ed40c8f237b5d09810ae6b5,9.334000111,1,0,81,72,1,80
,,,,,,,,,,,,,,,,,,,,,,,,,,,,,,,,,,,,,,,,,,,,,,,,,,,181,tobogan,Catalan,Sounds/cat_tobogan.mp3,2020-06-05_16h12.11.676,TranslationElicitation_eng-prolific,3.2.4,MacIntel,60,5ed40c8f237b5d09810ae6b5,,1,0,81,72,1,80
,,,,,,,,,,,,,,,,,,,,,,,,,,,,,,,,,,,,,,,,,o,3.401000023,O,FALSE,,,,,,,186,ungla,Catalan,Sounds/cat_ungla.mp3,2020-06-05_16h12.11.676,TranslationElicitation_eng-prolific,3.2.4,MacIntel,60,5ed40c8f237b5d09810ae6b5,,1,0,81,77,1,80
,,,,,,,,,,,,,,,,,,,,,,,,,,,,,,,,,,,,,,,,,n,3.457000017,ON,FALSE,,,,,,,186,ungla,Catalan,Sounds/cat_ungla.mp3,2020-06-05_16h12.11.676,TranslationElicitation_eng-prolific,3.2.4,MacIntel,60,5ed40c8f237b5d09810ae6b5,,1,0,81,77,1,80
,,,,,,,,,,,,,,,,,,,,,,,,,,,,,,,,,,,,,,,,,e,3.565999985,ONE,FALSE,,,,,,,186,ungla,Catalan,Sounds/cat_ungla.mp3,2020-06-05_16h12.11.676,TranslationElicitation_eng-prolific,3.2.4,MacIntel,60,5ed40c8f237b5d09810ae6b5,,1,0,81,77,1,80
,,,,,,,,,,,,,,,,,,,,,,,,,,,,,,,,,,,,,,,,,space,3.740999937,ONE ,FALSE,,,,,,,186,ungla,Catalan,Sounds/cat_ungla.mp3,2020-06-05_16h12.11.676,TranslationElicitation_eng-prolific,3.2.4,MacIntel,60,5ed40c8f237b5d09810ae6b5,,1,0,81,77,1,80
,,,,,,,,,,,,,,,,,,,,,,,,,,,,,,,,,,,,,,,,,g,4.085000038,ONE G,FALSE,,,,,,,186,ungla,Catalan,Sounds/cat_ungla.mp3,2020-06-05_16h12.11.676,TranslationElicitation_eng-prolific,3.2.4,MacIntel,60,5ed40c8f237b5d09810ae6b5,,1,0,81,77,1,80
,,,,,,,,,,,,,,,,,,,,,,,,,,,,,,,,,,,,,,,,,l,4.200000048,ONE GL,FALSE,,,,,,,186,ungla,Catalan,Sounds/cat_ungla.mp3,2020-06-05_16h12.11.676,TranslationElicitation_eng-prolific,3.2.4,MacIntel,60,5ed40c8f237b5d09810ae6b5,,1,0,81,77,1,80
,,,,,,,,,,,,,,,,,,,,,,,,,,,,,,,,,,,,,,,,,a,4.434999943,ONE GLA,FALSE,,,,,,,186,ungla,Catalan,Sounds/cat_ungla.mp3,2020-06-05_16h12.11.676,TranslationElicitation_eng-prolific,3.2.4,MacIntel,60,5ed40c8f237b5d09810ae6b5,,1,0,81,77,1,80
,,,,,,,,,,,,,,,,,,,,,,,,,,,,,,,,,,,,,,,,,s,4.616999865,ONE GLAS,FALSE,,,,,,,186,ungla,Catalan,Sounds/cat_ungla.mp3,2020-06-05_16h12.11.676,TranslationElicitation_eng-prolific,3.2.4,MacIntel,60,5ed40c8f237b5d09810ae6b5,,1,0,81,77,1,80
,,,,,,,,,,,,,,,,,,,,,,,,,,,,,,,,,,,,,,,,,s,4.750999928,ONE GLASS,FALSE,,,,,,,186,ungla,Catalan,Sounds/cat_ungla.mp3,2020-06-05_16h12.11.676,TranslationElicitation_eng-prolific,3.2.4,MacIntel,60,5ed40c8f237b5d09810ae6b5,,1,0,81,77,1,80
,,,,,,,,,,,,,,,,,,,,,,,,,,,,,,,,,,,,,,,,,return,5.217999935,ONE GLASS,FALSE,,,,,,,186,ungla,Catalan,Sounds/cat_ungla.mp3,2020-06-05_16h12.11.676,TranslationElicitation_eng-prolific,3.2.4,MacIntel,60,5ed40c8f237b5d09810ae6b5,5.217999935,1,0,81,77,1,80
,,,,,,,,,,,,,,,,,,,,,,,,,,,,,,,,,,,,,,,,,,,,,,,,,,,186,ungla,Catalan,Sounds/cat_ungla.mp3,2020-06-05_16h12.11.676,TranslationElicitation_eng-prolific,3.2.4,MacIntel,60,5ed40c8f237b5d09810ae6b5,,1,0,81,77,1,80
,,,,,,,,,,,,,,,,,,,,,,,,,,,,,,,,,,,,,,,,,g,2.217999935,G,FALSE,,,,,,,144,gorra,Catalan,Sounds/cat_gorra.mp3,2020-06-05_16h12.11.676,TranslationElicitation_eng-prolific,3.2.4,MacIntel,60,5ed40c8f237b5d09810ae6b5,,1,0,81,38,1,80
,,,,,,,,,,,,,,,,,,,,,,,,,,,,,,,,,,,,,,,,,i,2.318000078,GI,FALSE,,,,,,,144,gorra,Catalan,Sounds/cat_gorra.mp3,2020-06-05_16h12.11.676,TranslationElicitation_eng-prolific,3.2.4,MacIntel,60,5ed40c8f237b5d09810ae6b5,,1,0,81,38,1,80
,,,,,,,,,,,,,,,,,,,,,,,,,,,,,,,,,,,,,,,,,r,2.384000063,GIR,FALSE,,,,,,,144,gorra,Catalan,Sounds/cat_gorra.mp3,2020-06-05_16h12.11.676,TranslationElicitation_eng-prolific,3.2.4,MacIntel,60,5ed40c8f237b5d09810ae6b5,,1,0,81,38,1,80
,,,,,,,,,,,,,,,,,,,,,,,,,,,,,,,,,,,,,,,,,l,2.500999928,GIRL,FALSE,,,,,,,144,gorra,Catalan,Sounds/cat_gorra.mp3,2020-06-05_16h12.11.676,TranslationElicitation_eng-prolific,3.2.4,MacIntel,60,5ed40c8f237b5d09810ae6b5,,1,0,81,38,1,80
,,,,,,,,,,,,,,,,,,,,,,,,,,,,,,,,,,,,,,,,,return,3.082999945,GIRL,FALSE,,,,,,,144,gorra,Catalan,Sounds/cat_gorra.mp3,2020-06-05_16h12.11.676,TranslationElicitation_eng-prolific,3.2.4,MacIntel,60,5ed40c8f237b5d09810ae6b5,3.082999945,1,0,81,38,1,80
,,,,,,,,,,,,,,,,,,,,,,,,,,,,,,,,,,,,,,,,,,,,,,,,,,,144,gorra,Catalan,Sounds/cat_gorra.mp3,2020-06-05_16h12.11.676,TranslationElicitation_eng-prolific,3.2.4,MacIntel,60,5ed40c8f237b5d09810ae6b5,,1,0,81,38,1,80
,,,,,,,,,,,,,,,,,,,,,,,,,,,,,,,,,,,,,,,,,p,2.615999937,P,FALSE,,,,,,,169,plat,Catalan,Sounds/cat_plat.mp3,2020-06-05_16h12.11.676,TranslationElicitation_eng-prolific,3.2.4,MacIntel,60,5ed40c8f237b5d09810ae6b5,,1,0,81,61,1,80
,,,,,,,,,,,,,,,,,,,,,,,,,,,,,,,,,,,,,,,,,l,2.700000048,PL,FALSE,,,,,,,169,plat,Catalan,Sounds/cat_plat.mp3,2020-06-05_16h12.11.676,TranslationElicitation_eng-prolific,3.2.4,MacIntel,60,5ed40c8f237b5d09810ae6b5,,1,0,81,61,1,80
,,,,,,,,,,,,,,,,,,,,,,,,,,,,,,,,,,,,,,,,,a,2.849999905,PLA,FALSE,,,,,,,169,plat,Catalan,Sounds/cat_plat.mp3,2020-06-05_16h12.11.676,TranslationElicitation_eng-prolific,3.2.4,MacIntel,60,5ed40c8f237b5d09810ae6b5,,1,0,81,61,1,80
,,,,,,,,,,,,,,,,,,,,,,,,,,,,,,,,,,,,,,,,,i,2.95299983,PLAI,FALSE,,,,,,,169,plat,Catalan,Sounds/cat_plat.mp3,2020-06-05_16h12.11.676,TranslationElicitation_eng-prolific,3.2.4,MacIntel,60,5ed40c8f237b5d09810ae6b5,,1,0,81,61,1,80
,,,,,,,,,,,,,,,,,,,,,,,,,,,,,,,,,,,,,,,,,t,3.148999929,PLAIT,FALSE,,,,,,,169,plat,Catalan,Sounds/cat_plat.mp3,2020-06-05_16h12.11.676,TranslationElicitation_eng-prolific,3.2.4,MacIntel,60,5ed40c8f237b5d09810ae6b5,,1,0,81,61,1,80
,,,,,,,,,,,,,,,,,,,,,,,,,,,,,,,,,,,,,,,,,return,5.132999897,PLAIT,FALSE,,,,,,,169,plat,Catalan,Sounds/cat_plat.mp3,2020-06-05_16h12.11.676,TranslationElicitation_eng-prolific,3.2.4,MacIntel,60,5ed40c8f237b5d09810ae6b5,5.132999897,1,0,81,61,1,80
,,,,,,,,,,,,,,,,,,,,,,,,,,,,,,,,,,,,,,,,,,,,,,,,,,,169,plat,Catalan,Sounds/cat_plat.mp3,2020-06-05_16h12.11.676,TranslationElicitation_eng-prolific,3.2.4,MacIntel,60,5ed40c8f237b5d09810ae6b5,,1,0,81,61,1,80
,,,,,,,,,,,,,,,,,,,,,,,,,,,,,,,,,,,,,,,,,v,1.933000088,V,FALSE,,,,,,,150,lloro,Catalan,Sounds/cat_lloro.mp3,2020-06-05_16h12.11.676,TranslationElicitation_eng-prolific,3.2.4,MacIntel,60,5ed40c8f237b5d09810ae6b5,,1,0,81,43,1,80
,,,,,,,,,,,,,,,,,,,,,,,,,,,,,,,,,,,,,,,,,i,2.032999992,VI,FALSE,,,,,,,150,lloro,Catalan,Sounds/cat_lloro.mp3,2020-06-05_16h12.11.676,TranslationElicitation_eng-prolific,3.2.4,MacIntel,60,5ed40c8f237b5d09810ae6b5,,1,0,81,43,1,80
,,,,,,,,,,,,,,,,,,,,,,,,,,,,,,,,,,,,,,,,,e,2.200000048,VIE,FALSE,,,,,,,150,lloro,Catalan,Sounds/cat_lloro.mp3,2020-06-05_16h12.11.676,TranslationElicitation_eng-prolific,3.2.4,MacIntel,60,5ed40c8f237b5d09810ae6b5,,1,0,81,43,1,80
,,,,,,,,,,,,,,,,,,,,,,,,,,,,,,,,,,,,,,,,,w,2.318000078,VIEW,FALSE,,,,,,,150,lloro,Catalan,Sounds/cat_lloro.mp3,2020-06-05_16h12.11.676,TranslationElicitation_eng-prolific,3.2.4,MacIntel,60,5ed40c8f237b5d09810ae6b5,,1,0,81,43,1,80
,,,,,,,,,,,,,,,,,,,,,,,,,,,,,,,,,,,,,,,,,return,2.953000069,VIEW,FALSE,,,,,,,150,lloro,Catalan,Sounds/cat_lloro.mp3,2020-06-05_16h12.11.676,TranslationElicitation_eng-prolific,3.2.4,MacIntel,60,5ed40c8f237b5d09810ae6b5,2.953000069,1,0,81,43,1,80
,,,,,,,,,,,,,,,,,,,,,,,,,,,,,,,,,,,,,,,,,,,,,,,,,,,150,lloro,Catalan,Sounds/cat_lloro.mp3,2020-06-05_16h12.11.676,TranslationElicitation_eng-prolific,3.2.4,MacIntel,60,5ed40c8f237b5d09810ae6b5,,1,0,81,43,1,80
,,,,,,,,,,,,,,,,,,,,,,,,,,,,,,,,,,,,,,,,,c,1.314999819,C,FALSE,,,,,,,119,caixa,Catalan,Sounds/cat_caixa.mp3,2020-06-05_16h12.11.676,TranslationElicitation_eng-prolific,3.2.4,MacIntel,60,5ed40c8f237b5d09810ae6b5,,1,0,81,14,1,80
,,,,,,,,,,,,,,,,,,,,,,,,,,,,,,,,,,,,,,,,,a,1.547999859,CA,FALSE,,,,,,,119,caixa,Catalan,Sounds/cat_caixa.mp3,2020-06-05_16h12.11.676,TranslationElicitation_eng-prolific,3.2.4,MacIntel,60,5ed40c8f237b5d09810ae6b5,,1,0,81,14,1,80
,,,,,,,,,,,,,,,,,,,,,,,,,,,,,,,,,,,,,,,,,s,1.639999866,CAS,FALSE,,,,,,,119,caixa,Catalan,Sounds/cat_caixa.mp3,2020-06-05_16h12.11.676,TranslationElicitation_eng-prolific,3.2.4,MacIntel,60,5ed40c8f237b5d09810ae6b5,,1,0,81,14,1,80
,,,,,,,,,,,,,,,,,,,,,,,,,,,,,,,,,,,,,,,,,h,1.731999874,CASH,FALSE,,,,,,,119,caixa,Catalan,Sounds/cat_caixa.mp3,2020-06-05_16h12.11.676,TranslationElicitation_eng-prolific,3.2.4,MacIntel,60,5ed40c8f237b5d09810ae6b5,,1,0,81,14,1,80
,,,,,,,,,,,,,,,,,,,,,,,,,,,,,,,,,,,,,,,,,backspace,2.549000025,CAS,TRUE,,,,,,,119,caixa,Catalan,Sounds/cat_caixa.mp3,2020-06-05_16h12.11.676,TranslationElicitation_eng-prolific,3.2.4,MacIntel,60,5ed40c8f237b5d09810ae6b5,,1,0,81,14,1,80
,,,,,,,,,,,,,,,,,,,,,,,,,,,,,,,,,,,,,,,,,backspace,2.714999914,CA,TRUE,,,,,,,119,caixa,Catalan,Sounds/cat_caixa.mp3,2020-06-05_16h12.11.676,TranslationElicitation_eng-prolific,3.2.4,MacIntel,60,5ed40c8f237b5d09810ae6b5,,1,0,81,14,1,80
,,,,,,,,,,,,,,,,,,,,,,,,,,,,,,,,,,,,,,,,,backspace,2.86500001,C,TRUE,,,,,,,119,caixa,Catalan,Sounds/cat_caixa.mp3,2020-06-05_16h12.11.676,TranslationElicitation_eng-prolific,3.2.4,MacIntel,60,5ed40c8f237b5d09810ae6b5,,1,0,81,14,1,80
,,,,,,,,,,,,,,,,,,,,,,,,,,,,,,,,,,,,,,,,,backspace,3.164999962,,TRUE,,,,,,,119,caixa,Catalan,Sounds/cat_caixa.mp3,2020-06-05_16h12.11.676,TranslationElicitation_eng-prolific,3.2.4,MacIntel,60,5ed40c8f237b5d09810ae6b5,,1,0,81,14,1,80
,,,,,,,,,,,,,,,,,,,,,,,,,,,,,,,,,,,,,,,,,m,3.882999897,M,TRUE,,,,,,,119,caixa,Catalan,Sounds/cat_caixa.mp3,2020-06-05_16h12.11.676,TranslationElicitation_eng-prolific,3.2.4,MacIntel,60,5ed40c8f237b5d09810ae6b5,,1,0,81,14,1,80
,,,,,,,,,,,,,,,,,,,,,,,,,,,,,,,,,,,,,,,,,o,3.998999834,MO,TRUE,,,,,,,119,caixa,Catalan,Sounds/cat_caixa.mp3,2020-06-05_16h12.11.676,TranslationElicitation_eng-prolific,3.2.4,MacIntel,60,5ed40c8f237b5d09810ae6b5,,1,0,81,14,1,80
,,,,,,,,,,,,,,,,,,,,,,,,,,,,,,,,,,,,,,,,,n,4.115999937,MON,TRUE,,,,,,,119,caixa,Catalan,Sounds/cat_caixa.mp3,2020-06-05_16h12.11.676,TranslationElicitation_eng-prolific,3.2.4,MacIntel,60,5ed40c8f237b5d09810ae6b5,,1,0,81,14,1,80
,,,,,,,,,,,,,,,,,,,,,,,,,,,,,,,,,,,,,,,,,e,4.382999897,MONE,TRUE,,,,,,,119,caixa,Catalan,Sounds/cat_caixa.mp3,2020-06-05_16h12.11.676,TranslationElicitation_eng-prolific,3.2.4,MacIntel,60,5ed40c8f237b5d09810ae6b5,,1,0,81,14,1,80
,,,,,,,,,,,,,,,,,,,,,,,,,,,,,,,,,,,,,,,,,y,4.467000008,MONEY,TRUE,,,,,,,119,caixa,Catalan,Sounds/cat_caixa.mp3,2020-06-05_16h12.11.676,TranslationElicitation_eng-prolific,3.2.4,MacIntel,60,5ed40c8f237b5d09810ae6b5,,1,0,81,14,1,80
,,,,,,,,,,,,,,,,,,,,,,,,,,,,,,,,,,,,,,,,,return,5.165999889,MONEY,TRUE,,,,,,,119,caixa,Catalan,Sounds/cat_caixa.mp3,2020-06-05_16h12.11.676,TranslationElicitation_eng-prolific,3.2.4,MacIntel,60,5ed40c8f237b5d09810ae6b5,5.165999889,1,0,81,14,1,80
,,,,,,,,,,,,,,,,,,,,,,,,,,,,,,,,,,,,,,,,,,,,,,,,,,,119,caixa,Catalan,Sounds/cat_caixa.mp3,2020-06-05_16h12.11.676,TranslationElicitation_eng-prolific,3.2.4,MacIntel,60,5ed40c8f237b5d09810ae6b5,,1,0,81,14,1,80
,,,,,,,,,,,,,,,,,,,,,,,,,,,,,,,,,,,,,,,,,c,3.367000103,C,FALSE,,,,,,,139,galleda,Catalan,Sounds/cat_galleda.mp3,2020-06-05_16h12.11.676,TranslationElicitation_eng-prolific,3.2.4,MacIntel,60,5ed40c8f237b5d09810ae6b5,,1,0,81,33,1,80
,,,,,,,,,,,,,,,,,,,,,,,,,,,,,,,,,,,,,,,,,l,3.500999928,CL,FALSE,,,,,,,139,galleda,Catalan,Sounds/cat_galleda.mp3,2020-06-05_16h12.11.676,TranslationElicitation_eng-prolific,3.2.4,MacIntel,60,5ed40c8f237b5d09810ae6b5,,1,0,81,33,1,80
,,,,,,,,,,,,,,,,,,,,,,,,,,,,,,,,,,,,,,,,,e,3.617000103,CLE,FALSE,,,,,,,139,galleda,Catalan,Sounds/cat_galleda.mp3,2020-06-05_16h12.11.676,TranslationElicitation_eng-prolific,3.2.4,MacIntel,60,5ed40c8f237b5d09810ae6b5,,1,0,81,33,1,80
,,,,,,,,,,,,,,,,,,,,,,,,,,,,,,,,,,,,,,,,,v,3.784000158,CLEV,FALSE,,,,,,,139,galleda,Catalan,Sounds/cat_galleda.mp3,2020-06-05_16h12.11.676,TranslationElicitation_eng-prolific,3.2.4,MacIntel,60,5ed40c8f237b5d09810ae6b5,,1,0,81,33,1,80
,,,,,,,,,,,,,,,,,,,,,,,,,,,,,,,,,,,,,,,,,e,3.874000072,CLEVE,FALSE,,,,,,,139,galleda,Catalan,Sounds/cat_galleda.mp3,2020-06-05_16h12.11.676,TranslationElicitation_eng-prolific,3.2.4,MacIntel,60,5ed40c8f237b5d09810ae6b5,,1,0,81,33,1,80
,,,,,,,,,,,,,,,,,,,,,,,,,,,,,,,,,,,,,,,,,r,4.351000071,CLEVER,FALSE,,,,,,,139,galleda,Catalan,Sounds/cat_galleda.mp3,2020-06-05_16h12.11.676,TranslationElicitation_eng-prolific,3.2.4,MacIntel,60,5ed40c8f237b5d09810ae6b5,,1,0,81,33,1,80
,,,,,,,,,,,,,,,,,,,,,,,,,,,,,,,,,,,,,,,,,return,5.717000008,CLEVER,FALSE,,,,,,,139,galleda,Catalan,Sounds/cat_galleda.mp3,2020-06-05_16h12.11.676,TranslationElicitation_eng-prolific,3.2.4,MacIntel,60,5ed40c8f237b5d09810ae6b5,5.717000008,1,0,81,33,1,80
,,,,,,,,,,,,,,,,,,,,,,,,,,,,,,,,,,,,,,,,,,,,,,,,,,,139,galleda,Catalan,Sounds/cat_galleda.mp3,2020-06-05_16h12.11.676,TranslationElicitation_eng-prolific,3.2.4,MacIntel,60,5ed40c8f237b5d09810ae6b5,,1,0,81,33,1,80
,,,,,,,,,,,,,,,,,,,,,,,,,,,,,,,,,,,,,,,,,p,4.116999865,P,FALSE,,,,,,,125,colom,Catalan,Sounds/cat_colom.mp3,2020-06-05_16h12.11.676,TranslationElicitation_eng-prolific,3.2.4,MacIntel,60,5ed40c8f237b5d09810ae6b5,,1,0,81,20,1,80
,,,,,,,,,,,,,,,,,,,,,,,,,,,,,,,,,,,,,,,,,e,5.115999937,PE,FALSE,,,,,,,125,colom,Catalan,Sounds/cat_colom.mp3,2020-06-05_16h12.11.676,TranslationElicitation_eng-prolific,3.2.4,MacIntel,60,5ed40c8f237b5d09810ae6b5,,1,0,81,20,1,80
,,,,,,,,,,,,,,,,,,,,,,,,,,,,,,,,,,,,,,,,,r,5.214999914,PER,FALSE,,,,,,,125,colom,Catalan,Sounds/cat_colom.mp3,2020-06-05_16h12.11.676,TranslationElicitation_eng-prolific,3.2.4,MacIntel,60,5ed40c8f237b5d09810ae6b5,,1,0,81,20,1,80
,,,,,,,,,,,,,,,,,,,,,,,,,,,,,,,,,,,,,,,,,f,5.98300004,PERF,FALSE,,,,,,,125,colom,Catalan,Sounds/cat_colom.mp3,2020-06-05_16h12.11.676,TranslationElicitation_eng-prolific,3.2.4,MacIntel,60,5ed40c8f237b5d09810ae6b5,,1,0,81,20,1,80
,,,,,,,,,,,,,,,,,,,,,,,,,,,,,,,,,,,,,,,,,u,6.082000017,PERFU,FALSE,,,,,,,125,colom,Catalan,Sounds/cat_colom.mp3,2020-06-05_16h12.11.676,TranslationElicitation_eng-prolific,3.2.4,MacIntel,60,5ed40c8f237b5d09810ae6b5,,1,0,81,20,1,80
,,,,,,,,,,,,,,,,,,,,,,,,,,,,,,,,,,,,,,,,,m,6.36500001,PERFUM,FALSE,,,,,,,125,colom,Catalan,Sounds/cat_colom.mp3,2020-06-05_16h12.11.676,TranslationElicitation_eng-prolific,3.2.4,MacIntel,60,5ed40c8f237b5d09810ae6b5,,1,0,81,20,1,80
,,,,,,,,,,,,,,,,,,,,,,,,,,,,,,,,,,,,,,,,,e,6.450000048,PERFUME,FALSE,,,,,,,125,colom,Catalan,Sounds/cat_colom.mp3,2020-06-05_16h12.11.676,TranslationElicitation_eng-prolific,3.2.4,MacIntel,60,5ed40c8f237b5d09810ae6b5,,1,0,81,20,1,80
,,,,,,,,,,,,,,,,,,,,,,,,,,,,,,,,,,,,,,,,,return,7.700000048,PERFUME,FALSE,,,,,,,125,colom,Catalan,Sounds/cat_colom.mp3,2020-06-05_16h12.11.676,TranslationElicitation_eng-prolific,3.2.4,MacIntel,60,5ed40c8f237b5d09810ae6b5,7.700000048,1,0,81,20,1,80
,,,,,,,,,,,,,,,,,,,,,,,,,,,,,,,,,,,,,,,,,,,,,,,,,,,125,colom,Catalan,Sounds/cat_colom.mp3,2020-06-05_16h12.11.676,TranslationElicitation_eng-prolific,3.2.4,MacIntel,60,5ed40c8f237b5d09810ae6b5,,1,0,81,20,1,80
,,,,,,,,,,,,,,,,,,,,,,,,,,,,,,,,,,,,,,,,,s,6.26699996,S,FALSE,,,,,,,133,estruc,Catalan,Sounds/cat_estruc.mp3,2020-06-05_16h12.11.676,TranslationElicitation_eng-prolific,3.2.4,MacIntel,60,5ed40c8f237b5d09810ae6b5,,1,0,81,27,1,80
,,,,,,,,,,,,,,,,,,,,,,,,,,,,,,,,,,,,,,,,,t,6.400999784,ST,FALSE,,,,,,,133,estruc,Catalan,Sounds/cat_estruc.mp3,2020-06-05_16h12.11.676,TranslationElicitation_eng-prolific,3.2.4,MacIntel,60,5ed40c8f237b5d09810ae6b5,,1,0,81,27,1,80
,,,,,,,,,,,,,,,,,,,,,,,,,,,,,,,,,,,,,,,,,a,6.5,STA,FALSE,,,,,,,133,estruc,Catalan,Sounds/cat_estruc.mp3,2020-06-05_16h12.11.676,TranslationElicitation_eng-prolific,3.2.4,MacIntel,60,5ed40c8f237b5d09810ae6b5,,1,0,81,27,1,80
,,,,,,,,,,,,,,,,,,,,,,,,,,,,,,,,,,,,,,,,,r,6.600999832,STAR,FALSE,,,,,,,133,estruc,Catalan,Sounds/cat_estruc.mp3,2020-06-05_16h12.11.676,TranslationElicitation_eng-prolific,3.2.4,MacIntel,60,5ed40c8f237b5d09810ae6b5,,1,0,81,27,1,80
,,,,,,,,,,,,,,,,,,,,,,,,,,,,,,,,,,,,,,,,,s,6.767999887,STARS,FALSE,,,,,,,133,estruc,Catalan,Sounds/cat_estruc.mp3,2020-06-05_16h12.11.676,TranslationElicitation_eng-prolific,3.2.4,MacIntel,60,5ed40c8f237b5d09810ae6b5,,1,0,81,27,1,80
,,,,,,,,,,,,,,,,,,,,,,,,,,,,,,,,,,,,,,,,,return,7.333999872,STARS,FALSE,,,,,,,133,estruc,Catalan,Sounds/cat_estruc.mp3,2020-06-05_16h12.11.676,TranslationElicitation_eng-prolific,3.2.4,MacIntel,60,5ed40c8f237b5d09810ae6b5,7.333999872,1,0,81,27,1,80
,,,,,,,,,,,,,,,,,,,,,,,,,,,,,,,,,,,,,,,,,,,,,,,,,,,133,estruc,Catalan,Sounds/cat_estruc.mp3,2020-06-05_16h12.11.676,TranslationElicitation_eng-prolific,3.2.4,MacIntel,60,5ed40c8f237b5d09810ae6b5,,1,0,81,27,1,80
,,,,,,,,,,,,,,,,,,,,,,,,,,,,,,,,,,,,,,,,,p,1.082999945,P,FALSE,,,,,,,164,patata,Catalan,Sounds/cat_patata.mp3,2020-06-05_16h12.11.676,TranslationElicitation_eng-prolific,3.2.4,MacIntel,60,5ed40c8f237b5d09810ae6b5,,1,0,81,56,1,80
,,,,,,,,,,,,,,,,,,,,,,,,,,,,,,,,,,,,,,,,,o,1.166000128,PO,FALSE,,,,,,,164,patata,Catalan,Sounds/cat_patata.mp3,2020-06-05_16h12.11.676,TranslationElicitation_eng-prolific,3.2.4,MacIntel,60,5ed40c8f237b5d09810ae6b5,,1,0,81,56,1,80
,,,,,,,,,,,,,,,,,,,,,,,,,,,,,,,,,,,,,,,,,t,1.549999952,POT,FALSE,,,,,,,164,patata,Catalan,Sounds/cat_patata.mp3,2020-06-05_16h12.11.676,TranslationElicitation_eng-prolific,3.2.4,MacIntel,60,5ed40c8f237b5d09810ae6b5,,1,0,81,56,1,80
,,,,,,,,,,,,,,,,,,,,,,,,,,,,,,,,,,,,,,,,,a,1.816999912,POTA,FALSE,,,,,,,164,patata,Catalan,Sounds/cat_patata.mp3,2020-06-05_16h12.11.676,TranslationElicitation_eng-prolific,3.2.4,MacIntel,60,5ed40c8f237b5d09810ae6b5,,1,0,81,56,1,80
,,,,,,,,,,,,,,,,,,,,,,,,,,,,,,,,,,,,,,,,,t,2.117000103,POTAT,FALSE,,,,,,,164,patata,Catalan,Sounds/cat_patata.mp3,2020-06-05_16h12.11.676,TranslationElicitation_eng-prolific,3.2.4,MacIntel,60,5ed40c8f237b5d09810ae6b5,,1,0,81,56,1,80
,,,,,,,,,,,,,,,,,,,,,,,,,,,,,,,,,,,,,,,,,o,2.207999945,POTATO,FALSE,,,,,,,164,patata,Catalan,Sounds/cat_patata.mp3,2020-06-05_16h12.11.676,TranslationElicitation_eng-prolific,3.2.4,MacIntel,60,5ed40c8f237b5d09810ae6b5,,1,0,81,56,1,80
,,,,,,,,,,,,,,,,,,,,,,,,,,,,,,,,,,,,,,,,,return,2.901000023,POTATO,FALSE,,,,,,,164,patata,Catalan,Sounds/cat_patata.mp3,2020-06-05_16h12.11.676,TranslationElicitation_eng-prolific,3.2.4,MacIntel,60,5ed40c8f237b5d09810ae6b5,2.901000023,1,0,81,56,1,80
,,,,,,,,,,,,,,,,,,,,,,,,,,,,,,,,,,,,,,,,,,,,,,,,,,,164,patata,Catalan,Sounds/cat_patata.mp3,2020-06-05_16h12.11.676,TranslationElicitation_eng-prolific,3.2.4,MacIntel,60,5ed40c8f237b5d09810ae6b5,,1,0,81,56,1,80
,,,,,,,,,,,,,,,,,,,,,,,,,,,,,,,,,,,,,,,,,p,2.835000038,P,FALSE,,,,,,,167,pingui,Catalan,Sounds/cat_pingui.mp3,2020-06-05_16h12.11.676,TranslationElicitation_eng-prolific,3.2.4,MacIntel,60,5ed40c8f237b5d09810ae6b5,,1,0,81,59,1,80
,,,,,,,,,,,,,,,,,,,,,,,,,,,,,,,,,,,,,,,,,i,3.100999832,PI,FALSE,,,,,,,167,pingui,Catalan,Sounds/cat_pingui.mp3,2020-06-05_16h12.11.676,TranslationElicitation_eng-prolific,3.2.4,MacIntel,60,5ed40c8f237b5d09810ae6b5,,1,0,81,59,1,80
,,,,,,,,,,,,,,,,,,,,,,,,,,,,,,,,,,,,,,,,,n,3.217999935,PIN,FALSE,,,,,,,167,pingui,Catalan,Sounds/cat_pingui.mp3,2020-06-05_16h12.11.676,TranslationElicitation_eng-prolific,3.2.4,MacIntel,60,5ed40c8f237b5d09810ae6b5,,1,0,81,59,1,80
,,,,,,,,,,,,,,,,,,,,,,,,,,,,,,,,,,,,,,,,,g,3.65199995,PING,FALSE,,,,,,,167,pingui,Catalan,Sounds/cat_pingui.mp3,2020-06-05_16h12.11.676,TranslationElicitation_eng-prolific,3.2.4,MacIntel,60,5ed40c8f237b5d09810ae6b5,,1,0,81,59,1,80
,,,,,,,,,,,,,,,,,,,,,,,,,,,,,,,,,,,,,,,,,backspace,5.41899991,PIN,TRUE,,,,,,,167,pingui,Catalan,Sounds/cat_pingui.mp3,2020-06-05_16h12.11.676,TranslationElicitation_eng-prolific,3.2.4,MacIntel,60,5ed40c8f237b5d09810ae6b5,,1,0,81,59,1,80
,,,,,,,,,,,,,,,,,,,,,,,,,,,,,,,,,,,,,,,,,backspace,5.585000038,PI,TRUE,,,,,,,167,pingui,Catalan,Sounds/cat_pingui.mp3,2020-06-05_16h12.11.676,TranslationElicitation_eng-prolific,3.2.4,MacIntel,60,5ed40c8f237b5d09810ae6b5,,1,0,81,59,1,80
,,,,,,,,,,,,,,,,,,,,,,,,,,,,,,,,,,,,,,,,,backspace,5.734999895,P,TRUE,,,,,,,167,pingui,Catalan,Sounds/cat_pingui.mp3,2020-06-05_16h12.11.676,TranslationElicitation_eng-prolific,3.2.4,MacIntel,60,5ed40c8f237b5d09810ae6b5,,1,0,81,59,1,80
,,,,,,,,,,,,,,,,,,,,,,,,,,,,,,,,,,,,,,,,,e,5.984999895,PE,TRUE,,,,,,,167,pingui,Catalan,Sounds/cat_pingui.mp3,2020-06-05_16h12.11.676,TranslationElicitation_eng-prolific,3.2.4,MacIntel,60,5ed40c8f237b5d09810ae6b5,,1,0,81,59,1,80
,,,,,,,,,,,,,,,,,,,,,,,,,,,,,,,,,,,,,,,,,n,6.118999958,PEN,TRUE,,,,,,,167,pingui,Catalan,Sounds/cat_pingui.mp3,2020-06-05_16h12.11.676,TranslationElicitation_eng-prolific,3.2.4,MacIntel,60,5ed40c8f237b5d09810ae6b5,,1,0,81,59,1,80
,,,,,,,,,,,,,,,,,,,,,,,,,,,,,,,,,,,,,,,,,g,6.601999998,PENG,TRUE,,,,,,,167,pingui,Catalan,Sounds/cat_pingui.mp3,2020-06-05_16h12.11.676,TranslationElicitation_eng-prolific,3.2.4,MacIntel,60,5ed40c8f237b5d09810ae6b5,,1,0,81,59,1,80
,,,,,,,,,,,,,,,,,,,,,,,,,,,,,,,,,,,,,,,,,u,6.701999903,PENGU,TRUE,,,,,,,167,pingui,Catalan,Sounds/cat_pingui.mp3,2020-06-05_16h12.11.676,TranslationElicitation_eng-prolific,3.2.4,MacIntel,60,5ed40c8f237b5d09810ae6b5,,1,0,81,59,1,80
,,,,,,,,,,,,,,,,,,,,,,,,,,,,,,,,,,,,,,,,,i,6.784999847,PENGUI,TRUE,,,,,,,167,pingui,Catalan,Sounds/cat_pingui.mp3,2020-06-05_16h12.11.676,TranslationElicitation_eng-prolific,3.2.4,MacIntel,60,5ed40c8f237b5d09810ae6b5,,1,0,81,59,1,80
,,,,,,,,,,,,,,,,,,,,,,,,,,,,,,,,,,,,,,,,,n,6.909999847,PENGUIN,TRUE,,,,,,,167,pingui,Catalan,Sounds/cat_pingui.mp3,2020-06-05_16h12.11.676,TranslationElicitation_eng-prolific,3.2.4,MacIntel,60,5ed40c8f237b5d09810ae6b5,,1,0,81,59,1,80
,,,,,,,,,,,,,,,,,,,,,,,,,,,,,,,,,,,,,,,,,return,7.585000038,PENGUIN,TRUE,,,,,,,167,pingui,Catalan,Sounds/cat_pingui.mp3,2020-06-05_16h12.11.676,TranslationElicitation_eng-prolific,3.2.4,MacIntel,60,5ed40c8f237b5d09810ae6b5,7.585000038,1,0,81,59,1,80
,,,,,,,,,,,,,,,,,,,,,,,,,,,,,,,,,,,,,,,,,,,,,,,,,,,167,pingui,Catalan,Sounds/cat_pingui.mp3,2020-06-05_16h12.11.676,TranslationElicitation_eng-prolific,3.2.4,MacIntel,60,5ed40c8f237b5d09810ae6b5,,1,0,81,59,1,80
,,,,,,,,,,,,,,,,,,,,,,,,,,,,,,,,,,,,,,,,,b,8.31799984,B,FALSE,,,,,,,110,berenar,Catalan,Sounds/cat_berenar.mp3,2020-06-05_16h12.11.676,TranslationElicitation_eng-prolific,3.2.4,MacIntel,60,5ed40c8f237b5d09810ae6b5,,1,0,81,5,1,80
,,,,,,,,,,,,,,,,,,,,,,,,,,,,,,,,,,,,,,,,,backspace,10.88499999,,TRUE,,,,,,,110,berenar,Catalan,Sounds/cat_berenar.mp3,2020-06-05_16h12.11.676,TranslationElicitation_eng-prolific,3.2.4,MacIntel,60,5ed40c8f237b5d09810ae6b5,,1,0,81,5,1,80
,,,,,,,,,,,,,,,,,,,,,,,,,,,,,,,,,,,,,,,,,b,14.80299997,B,TRUE,,,,,,,110,berenar,Catalan,Sounds/cat_berenar.mp3,2020-06-05_16h12.11.676,TranslationElicitation_eng-prolific,3.2.4,MacIntel,60,5ed40c8f237b5d09810ae6b5,,1,0,81,5,1,80
,,,,,,,,,,,,,,,,,,,,,,,,,,,,,,,,,,,,,,,,,r,14.93499994,BR,TRUE,,,,,,,110,berenar,Catalan,Sounds/cat_berenar.mp3,2020-06-05_16h12.11.676,TranslationElicitation_eng-prolific,3.2.4,MacIntel,60,5ed40c8f237b5d09810ae6b5,,1,0,81,5,1,80
,,,,,,,,,,,,,,,,,,,,,,,,,,,,,,,,,,,,,,,,,e,15.01799989,BRE,TRUE,,,,,,,110,berenar,Catalan,Sounds/cat_berenar.mp3,2020-06-05_16h12.11.676,TranslationElicitation_eng-prolific,3.2.4,MacIntel,60,5ed40c8f237b5d09810ae6b5,,1,0,81,5,1,80
,,,,,,,,,,,,,,,,,,,,,,,,,,,,,,,,,,,,,,,,,a,15.32799983,BREA,TRUE,,,,,,,110,berenar,Catalan,Sounds/cat_berenar.mp3,2020-06-05_16h12.11.676,TranslationElicitation_eng-prolific,3.2.4,MacIntel,60,5ed40c8f237b5d09810ae6b5,,1,0,81,5,1,80
,,,,,,,,,,,,,,,,,,,,,,,,,,,,,,,,,,,,,,,,,d,15.60299993,BREAD,TRUE,,,,,,,110,berenar,Catalan,Sounds/cat_berenar.mp3,2020-06-05_16h12.11.676,TranslationElicitation_eng-prolific,3.2.4,MacIntel,60,5ed40c8f237b5d09810ae6b5,,1,0,81,5,1,80
,,,,,,,,,,,,,,,,,,,,,,,,,,,,,,,,,,,,,,,,,return,16.28599977,BREAD,TRUE,,,,,,,110,berenar,Catalan,Sounds/cat_berenar.mp3,2020-06-05_16h12.11.676,TranslationElicitation_eng-prolific,3.2.4,MacIntel,60,5ed40c8f237b5d09810ae6b5,16.28599977,1,0,81,5,1,80
,,,,,,,,,,,,,,,,,,,,,,,,,,,,,,,,,,,,,,,,,,,,,,,,,,,110,berenar,Catalan,Sounds/cat_berenar.mp3,2020-06-05_16h12.11.676,TranslationElicitation_eng-prolific,3.2.4,MacIntel,60,5ed40c8f237b5d09810ae6b5,,1,0,81,5,1,80
,,,,,,,,,,,,,,,,,,,,,,,,,,,,,,,,,,,,,,,,,m,1.766000032,M,FALSE,,,,,,,152,ma,Catalan,Sounds/cat_ma.mp3,2020-06-05_16h12.11.676,TranslationElicitation_eng-prolific,3.2.4,MacIntel,60,5ed40c8f237b5d09810ae6b5,,1,0,81,45,1,80
,,,,,,,,,,,,,,,,,,,,,,,,,,,,,,,,,,,,,,,,,a,1.848999977,MA,FALSE,,,,,,,152,ma,Catalan,Sounds/cat_ma.mp3,2020-06-05_16h12.11.676,TranslationElicitation_eng-prolific,3.2.4,MacIntel,60,5ed40c8f237b5d09810ae6b5,,1,0,81,45,1,80
,,,,,,,,,,,,,,,,,,,,,,,,,,,,,,,,,,,,,,,,,m,1.948999882,MAM,FALSE,,,,,,,152,ma,Catalan,Sounds/cat_ma.mp3,2020-06-05_16h12.11.676,TranslationElicitation_eng-prolific,3.2.4,MacIntel,60,5ed40c8f237b5d09810ae6b5,,1,0,81,45,1,80
,,,,,,,,,,,,,,,,,,,,,,,,,,,,,,,,,,,,,,,,,a,2.049000025,MAMA,FALSE,,,,,,,152,ma,Catalan,Sounds/cat_ma.mp3,2020-06-05_16h12.11.676,TranslationElicitation_eng-prolific,3.2.4,MacIntel,60,5ed40c8f237b5d09810ae6b5,,1,0,81,45,1,80
,,,,,,,,,,,,,,,,,,,,,,,,,,,,,,,,,,,,,,,,,backspace,2.431999922,MAM,TRUE,,,,,,,152,ma,Catalan,Sounds/cat_ma.mp3,2020-06-05_16h12.11.676,TranslationElicitation_eng-prolific,3.2.4,MacIntel,60,5ed40c8f237b5d09810ae6b5,,1,0,81,45,1,80
,,,,,,,,,,,,,,,,,,,,,,,,,,,,,,,,,,,,,,,,,backspace,2.582000017,MA,TRUE,,,,,,,152,ma,Catalan,Sounds/cat_ma.mp3,2020-06-05_16h12.11.676,TranslationElicitation_eng-prolific,3.2.4,MacIntel,60,5ed40c8f237b5d09810ae6b5,,1,0,81,45,1,80
,,,,,,,,,,,,,,,,,,,,,,,,,,,,,,,,,,,,,,,,,backspace,3.766000032,M,TRUE,,,,,,,152,ma,Catalan,Sounds/cat_ma.mp3,2020-06-05_16h12.11.676,TranslationElicitation_eng-prolific,3.2.4,MacIntel,60,5ed40c8f237b5d09810ae6b5,,1,0,81,45,1,80
,,,,,,,,,,,,,,,,,,,,,,,,,,,,,,,,,,,,,,,,,o,4.065999985,MO,TRUE,,,,,,,152,ma,Catalan,Sounds/cat_ma.mp3,2020-06-05_16h12.11.676,TranslationElicitation_eng-prolific,3.2.4,MacIntel,60,5ed40c8f237b5d09810ae6b5,,1,0,81,45,1,80
,,,,,,,,,,,,,,,,,,,,,,,,,,,,,,,,,,,,,,,,,t,4.164999962,MOT,TRUE,,,,,,,152,ma,Catalan,Sounds/cat_ma.mp3,2020-06-05_16h12.11.676,TranslationElicitation_eng-prolific,3.2.4,MacIntel,60,5ed40c8f237b5d09810ae6b5,,1,0,81,45,1,80
,,,,,,,,,,,,,,,,,,,,,,,,,,,,,,,,,,,,,,,,,h,4.266000032,MOTH,TRUE,,,,,,,152,ma,Catalan,Sounds/cat_ma.mp3,2020-06-05_16h12.11.676,TranslationElicitation_eng-prolific,3.2.4,MacIntel,60,5ed40c8f237b5d09810ae6b5,,1,0,81,45,1,80
,,,,,,,,,,,,,,,,,,,,,,,,,,,,,,,,,,,,,,,,,e,4.332000017,MOTHE,TRUE,,,,,,,152,ma,Catalan,Sounds/cat_ma.mp3,2020-06-05_16h12.11.676,TranslationElicitation_eng-prolific,3.2.4,MacIntel,60,5ed40c8f237b5d09810ae6b5,,1,0,81,45,1,80
,,,,,,,,,,,,,,,,,,,,,,,,,,,,,,,,,,,,,,,,,r,4.431999922,MOTHER,TRUE,,,,,,,152,ma,Catalan,Sounds/cat_ma.mp3,2020-06-05_16h12.11.676,TranslationElicitation_eng-prolific,3.2.4,MacIntel,60,5ed40c8f237b5d09810ae6b5,,1,0,81,45,1,80
,,,,,,,,,,,,,,,,,,,,,,,,,,,,,,,,,,,,,,,,,return,4.865999937,MOTHER,TRUE,,,,,,,152,ma,Catalan,Sounds/cat_ma.mp3,2020-06-05_16h12.11.676,TranslationElicitation_eng-prolific,3.2.4,MacIntel,60,5ed40c8f237b5d09810ae6b5,4.865999937,1,0,81,45,1,80
,,,,,,,,,,,,,,,,,,,,,,,,,,,,,,,,,,,,,,,,,,,,,,,,,,,152,ma,Catalan,Sounds/cat_ma.mp3,2020-06-05_16h12.11.676,TranslationElicitation_eng-prolific,3.2.4,MacIntel,60,5ed40c8f237b5d09810ae6b5,,1,0,81,45,1,80
,,,,,,,,,,,,,,,,,,,,,,,,,,,,,,,,,,,,,,,,,i,1.149000168,I,FALSE,,,,,,,146,guitarra,Catalan,Sounds/cat_guitarra.mp3,2020-06-05_16h12.11.676,TranslationElicitation_eng-prolific,3.2.4,MacIntel,60,5ed40c8f237b5d09810ae6b5,,1,0,81,40,1,80
,,,,,,,,,,,,,,,,,,,,,,,,,,,,,,,,,,,,,,,,,t,1.348999977,IT,FALSE,,,,,,,146,guitarra,Catalan,Sounds/cat_guitarra.mp3,2020-06-05_16h12.11.676,TranslationElicitation_eng-prolific,3.2.4,MacIntel,60,5ed40c8f237b5d09810ae6b5,,1,0,81,40,1,80
,,,,,,,,,,,,,,,,,,,,,,,,,,,,,,,,,,,,,,,,,a,1.499000072,ITA,FALSE,,,,,,,146,guitarra,Catalan,Sounds/cat_guitarra.mp3,2020-06-05_16h12.11.676,TranslationElicitation_eng-prolific,3.2.4,MacIntel,60,5ed40c8f237b5d09810ae6b5,,1,0,81,40,1,80
,,,,,,,,,,,,,,,,,,,,,,,,,,,,,,,,,,,,,,,,,backspace,2.1650002,IT,TRUE,,,,,,,146,guitarra,Catalan,Sounds/cat_guitarra.mp3,2020-06-05_16h12.11.676,TranslationElicitation_eng-prolific,3.2.4,MacIntel,60,5ed40c8f237b5d09810ae6b5,,1,0,81,40,1,80
,,,,,,,,,,,,,,,,,,,,,,,,,,,,,,,,,,,,,,,,,backspace,2.333000183,I,TRUE,,,,,,,146,guitarra,Catalan,Sounds/cat_guitarra.mp3,2020-06-05_16h12.11.676,TranslationElicitation_eng-prolific,3.2.4,MacIntel,60,5ed40c8f237b5d09810ae6b5,,1,0,81,40,1,80
,,,,,,,,,,,,,,,,,,,,,,,,,,,,,,,,,,,,,,,,,backspace,2.600000143,,TRUE,,,,,,,146,guitarra,Catalan,Sounds/cat_guitarra.mp3,2020-06-05_16h12.11.676,TranslationElicitation_eng-prolific,3.2.4,MacIntel,60,5ed40c8f237b5d09810ae6b5,,1,0,81,40,1,80
,,,,,,,,,,,,,,,,,,,,,,,,,,,,,,,,,,,,,,,,,g,3.083000183,G,TRUE,,,,,,,146,guitarra,Catalan,Sounds/cat_guitarra.mp3,2020-06-05_16h12.11.676,TranslationElicitation_eng-prolific,3.2.4,MacIntel,60,5ed40c8f237b5d09810ae6b5,,1,0,81,40,1,80
,,,,,,,,,,,,,,,,,,,,,,,,,,,,,,,,,,,,,,,,,u,3.21600008,GU,TRUE,,,,,,,146,guitarra,Catalan,Sounds/cat_guitarra.mp3,2020-06-05_16h12.11.676,TranslationElicitation_eng-prolific,3.2.4,MacIntel,60,5ed40c8f237b5d09810ae6b5,,1,0,81,40,1,80
,,,,,,,,,,,,,,,,,,,,,,,,,,,,,,,,,,,,,,,,,i,3.292999983,GUI,TRUE,,,,,,,146,guitarra,Catalan,Sounds/cat_guitarra.mp3,2020-06-05_16h12.11.676,TranslationElicitation_eng-prolific,3.2.4,MacIntel,60,5ed40c8f237b5d09810ae6b5,,1,0,81,40,1,80
,,,,,,,,,,,,,,,,,,,,,,,,,,,,,,,,,,,,,,,,,t,3.483999968,GUIT,TRUE,,,,,,,146,guitarra,Catalan,Sounds/cat_guitarra.mp3,2020-06-05_16h12.11.676,TranslationElicitation_eng-prolific,3.2.4,MacIntel,60,5ed40c8f237b5d09810ae6b5,,1,0,81,40,1,80
,,,,,,,,,,,,,,,,,,,,,,,,,,,,,,,,,,,,,,,,,a,3.584000111,GUITA,TRUE,,,,,,,146,guitarra,Catalan,Sounds/cat_guitarra.mp3,2020-06-05_16h12.11.676,TranslationElicitation_eng-prolific,3.2.4,MacIntel,60,5ed40c8f237b5d09810ae6b5,,1,0,81,40,1,80
,,,,,,,,,,,,,,,,,,,,,,,,,,,,,,,,,,,,,,,,,r,4.149000168,GUITAR,TRUE,,,,,,,146,guitarra,Catalan,Sounds/cat_guitarra.mp3,2020-06-05_16h12.11.676,TranslationElicitation_eng-prolific,3.2.4,MacIntel,60,5ed40c8f237b5d09810ae6b5,,1,0,81,40,1,80
,,,,,,,,,,,,,,,,,,,,,,,,,,,,,,,,,,,,,,,,,return,4.916000128,GUITAR,TRUE,,,,,,,146,guitarra,Catalan,Sounds/cat_guitarra.mp3,2020-06-05_16h12.11.676,TranslationElicitation_eng-prolific,3.2.4,MacIntel,60,5ed40c8f237b5d09810ae6b5,4.916000128,1,0,81,40,1,80
,,,,,,,,,,,,,,,,,,,,,,,,,,,,,,,,,,,,,,,,,,,,,,,,,,,146,guitarra,Catalan,Sounds/cat_guitarra.mp3,2020-06-05_16h12.11.676,TranslationElicitation_eng-prolific,3.2.4,MacIntel,60,5ed40c8f237b5d09810ae6b5,,1,0,81,40,1,80
,,,,,,,,,,,,,,,,,,,,,,,,,,,,,,,,,,,,,,,,,c,1.315999985,C,FALSE,,,,,,,188,xocolata,Catalan,Sounds/cat_xocolata.mp3,2020-06-05_16h12.11.676,TranslationElicitation_eng-prolific,3.2.4,MacIntel,60,5ed40c8f237b5d09810ae6b5,,1,0,81,79,1,80
,,,,,,,,,,,,,,,,,,,,,,,,,,,,,,,,,,,,,,,,,h,1.766000032,CH,FALSE,,,,,,,188,xocolata,Catalan,Sounds/cat_xocolata.mp3,2020-06-05_16h12.11.676,TranslationElicitation_eng-prolific,3.2.4,MacIntel,60,5ed40c8f237b5d09810ae6b5,,1,0,81,79,1,80
,,,,,,,,,,,,,,,,,,,,,,,,,,,,,,,,,,,,,,,,,o,2.016000032,CHO,FALSE,,,,,,,188,xocolata,Catalan,Sounds/cat_xocolata.mp3,2020-06-05_16h12.11.676,TranslationElicitation_eng-prolific,3.2.4,MacIntel,60,5ed40c8f237b5d09810ae6b5,,1,0,81,79,1,80
,,,,,,,,,,,,,,,,,,,,,,,,,,,,,,,,,,,,,,,,,l,2.23300004,CHOL,FALSE,,,,,,,188,xocolata,Catalan,Sounds/cat_xocolata.mp3,2020-06-05_16h12.11.676,TranslationElicitation_eng-prolific,3.2.4,MacIntel,60,5ed40c8f237b5d09810ae6b5,,1,0,81,79,1,80
,,,,,,,,,,,,,,,,,,,,,,,,,,,,,,,,,,,,,,,,,backspace,2.681999922,CHO,TRUE,,,,,,,188,xocolata,Catalan,Sounds/cat_xocolata.mp3,2020-06-05_16h12.11.676,TranslationElicitation_eng-prolific,3.2.4,MacIntel,60,5ed40c8f237b5d09810ae6b5,,1,0,81,79,1,80
,,,,,,,,,,,,,,,,,,,,,,,,,,,,,,,,,,,,,,,,,c,2.867000103,CHOC,TRUE,,,,,,,188,xocolata,Catalan,Sounds/cat_xocolata.mp3,2020-06-05_16h12.11.676,TranslationElicitation_eng-prolific,3.2.4,MacIntel,60,5ed40c8f237b5d09810ae6b5,,1,0,81,79,1,80
,,,,,,,,,,,,,,,,,,,,,,,,,,,,,,,,,,,,,,,,,o,3,CHOCO,TRUE,,,,,,,188,xocolata,Catalan,Sounds/cat_xocolata.mp3,2020-06-05_16h12.11.676,TranslationElicitation_eng-prolific,3.2.4,MacIntel,60,5ed40c8f237b5d09810ae6b5,,1,0,81,79,1,80
,,,,,,,,,,,,,,,,,,,,,,,,,,,,,,,,,,,,,,,,,l,3.243000031,CHOCOL,TRUE,,,,,,,188,xocolata,Catalan,Sounds/cat_xocolata.mp3,2020-06-05_16h12.11.676,TranslationElicitation_eng-prolific,3.2.4,MacIntel,60,5ed40c8f237b5d09810ae6b5,,1,0,81,79,1,80
,,,,,,,,,,,,,,,,,,,,,,,,,,,,,,,,,,,,,,,,,a,3.433000088,CHOCOLA,TRUE,,,,,,,188,xocolata,Catalan,Sounds/cat_xocolata.mp3,2020-06-05_16h12.11.676,TranslationElicitation_eng-prolific,3.2.4,MacIntel,60,5ed40c8f237b5d09810ae6b5,,1,0,81,79,1,80
,,,,,,,,,,,,,,,,,,,,,,,,,,,,,,,,,,,,,,,,,t,3.600000143,CHOCOLAT,TRUE,,,,,,,188,xocolata,Catalan,Sounds/cat_xocolata.mp3,2020-06-05_16h12.11.676,TranslationElicitation_eng-prolific,3.2.4,MacIntel,60,5ed40c8f237b5d09810ae6b5,,1,0,81,79,1,80
,,,,,,,,,,,,,,,,,,,,,,,,,,,,,,,,,,,,,,,,,e,3.75,CHOCOLATE,TRUE,,,,,,,188,xocolata,Catalan,Sounds/cat_xocolata.mp3,2020-06-05_16h12.11.676,TranslationElicitation_eng-prolific,3.2.4,MacIntel,60,5ed40c8f237b5d09810ae6b5,,1,0,81,79,1,80
,,,,,,,,,,,,,,,,,,,,,,,,,,,,,,,,,,,,,,,,,return,5.03399992,CHOCOLATE,TRUE,,,,,,,188,xocolata,Catalan,Sounds/cat_xocolata.mp3,2020-06-05_16h12.11.676,TranslationElicitation_eng-prolific,3.2.4,MacIntel,60,5ed40c8f237b5d09810ae6b5,5.03399992,1,0,81,79,1,80
,,,,,,,,,,,,,,,,,,,,,,,,,,,,,,,,,,,,,,,,,,,,,,,,,,,188,xocolata,Catalan,Sounds/cat_xocolata.mp3,2020-06-05_16h12.11.676,TranslationElicitation_eng-prolific,3.2.4,MacIntel,60,5ed40c8f237b5d09810ae6b5,,1,0,81,79,1,80
,,,,,,,,,,,,,,,,,,,,,,,,,,,,,,,,,,,,,,,,,g,3.000999928,G,FALSE,,,,,,,145,got,Catalan,Sounds/cat_got.mp3,2020-06-05_16h12.11.676,TranslationElicitation_eng-prolific,3.2.4,MacIntel,60,5ed40c8f237b5d09810ae6b5,,1,0,81,39,1,80
,,,,,,,,,,,,,,,,,,,,,,,,,,,,,,,,,,,,,,,,,o,3.068000078,GO,FALSE,,,,,,,145,got,Catalan,Sounds/cat_got.mp3,2020-06-05_16h12.11.676,TranslationElicitation_eng-prolific,3.2.4,MacIntel,60,5ed40c8f237b5d09810ae6b5,,1,0,81,39,1,80
,,,,,,,,,,,,,,,,,,,,,,,,,,,,,,,,,,,,,,,,,d,3.368000031,GOD,FALSE,,,,,,,145,got,Catalan,Sounds/cat_got.mp3,2020-06-05_16h12.11.676,TranslationElicitation_eng-prolific,3.2.4,MacIntel,60,5ed40c8f237b5d09810ae6b5,,1,0,81,39,1,80
,,,,,,,,,,,,,,,,,,,,,,,,,,,,,,,,,,,,,,,,,return,4.26699996,GOD,FALSE,,,,,,,145,got,Catalan,Sounds/cat_got.mp3,2020-06-05_16h12.11.676,TranslationElicitation_eng-prolific,3.2.4,MacIntel,60,5ed40c8f237b5d09810ae6b5,4.26699996,1,0,81,39,1,80
,,,,,,,,,,,,,,,,,,,,,,,,,,,,,,,,,,,,,,,,,,,,,,,,,,,145,got,Catalan,Sounds/cat_got.mp3,2020-06-05_16h12.11.676,TranslationElicitation_eng-prolific,3.2.4,MacIntel,60,5ed40c8f237b5d09810ae6b5,,1,0,81,39,1,80
,,,,,,,,,,,,,,,,,,,,,,,,,,,,,,,,,,,,,,,,,b,1.815999985,B,FALSE,,,,,,,113,boca,Catalan,Sounds/cat_boca.mp3,2020-06-05_16h12.11.676,TranslationElicitation_eng-prolific,3.2.4,MacIntel,60,5ed40c8f237b5d09810ae6b5,,1,0,81,8,1,80
,,,,,,,,,,,,,,,,,,,,,,,,,,,,,,,,,,,,,,,,,o,2.131999969,BO,FALSE,,,,,,,113,boca,Catalan,Sounds/cat_boca.mp3,2020-06-05_16h12.11.676,TranslationElicitation_eng-prolific,3.2.4,MacIntel,60,5ed40c8f237b5d09810ae6b5,,1,0,81,8,1,80
,,,,,,,,,,,,,,,,,,,,,,,,,,,,,,,,,,,,,,,,,o,2.249000072,BOO,FALSE,,,,,,,113,boca,Catalan,Sounds/cat_boca.mp3,2020-06-05_16h12.11.676,TranslationElicitation_eng-prolific,3.2.4,MacIntel,60,5ed40c8f237b5d09810ae6b5,,1,0,81,8,1,80
,,,,,,,,,,,,,,,,,,,,,,,,,,,,,,,,,,,,,,,,,k,2.726000071,BOOK,FALSE,,,,,,,113,boca,Catalan,Sounds/cat_boca.mp3,2020-06-05_16h12.11.676,TranslationElicitation_eng-prolific,3.2.4,MacIntel,60,5ed40c8f237b5d09810ae6b5,,1,0,81,8,1,80
,,,,,,,,,,,,,,,,,,,,,,,,,,,,,,,,,,,,,,,,,return,3.381999969,BOOK,FALSE,,,,,,,113,boca,Catalan,Sounds/cat_boca.mp3,2020-06-05_16h12.11.676,TranslationElicitation_eng-prolific,3.2.4,MacIntel,60,5ed40c8f237b5d09810ae6b5,3.381999969,1,0,81,8,1,80
,,,,,,,,,,,,,,,,,,,,,,,,,,,,,,,,,,,,,,,,,,,,,,,,,,,113,boca,Catalan,Sounds/cat_boca.mp3,2020-06-05_16h12.11.676,TranslationElicitation_eng-prolific,3.2.4,MacIntel,60,5ed40c8f237b5d09810ae6b5,,1,0,81,8,1,80
,,,,,,,,,,,,,,,,,,,,,,,,,,,,,,,,,,,,,,,,,p,1.600000143,P,FALSE,,,,,,,168,planta,Catalan,Sounds/cat_planta.mp3,2020-06-05_16h12.11.676,TranslationElicitation_eng-prolific,3.2.4,MacIntel,60,5ed40c8f237b5d09810ae6b5,,1,0,81,60,1,80
,,,,,,,,,,,,,,,,,,,,,,,,,,,,,,,,,,,,,,,,,l,2.017000198,PL,FALSE,,,,,,,168,planta,Catalan,Sounds/cat_planta.mp3,2020-06-05_16h12.11.676,TranslationElicitation_eng-prolific,3.2.4,MacIntel,60,5ed40c8f237b5d09810ae6b5,,1,0,81,60,1,80
,,,,,,,,,,,,,,,,,,,,,,,,,,,,,,,,,,,,,,,,,a,2.183000088,PLA,FALSE,,,,,,,168,planta,Catalan,Sounds/cat_planta.mp3,2020-06-05_16h12.11.676,TranslationElicitation_eng-prolific,3.2.4,MacIntel,60,5ed40c8f237b5d09810ae6b5,,1,0,81,60,1,80
,,,,,,,,,,,,,,,,,,,,,,,,,,,,,,,,,,,,,,,,,n,2.400000095,PLAN,FALSE,,,,,,,168,planta,Catalan,Sounds/cat_planta.mp3,2020-06-05_16h12.11.676,TranslationElicitation_eng-prolific,3.2.4,MacIntel,60,5ed40c8f237b5d09810ae6b5,,1,0,81,60,1,80
,,,,,,,,,,,,,,,,,,,,,,,,,,,,,,,,,,,,,,,,,t,2.616000175,PLANT,FALSE,,,,,,,168,planta,Catalan,Sounds/cat_planta.mp3,2020-06-05_16h12.11.676,TranslationElicitation_eng-prolific,3.2.4,MacIntel,60,5ed40c8f237b5d09810ae6b5,,1,0,81,60,1,80
,,,,,,,,,,,,,,,,,,,,,,,,,,,,,,,,,,,,,,,,,return,3.317000151,PLANT,FALSE,,,,,,,168,planta,Catalan,Sounds/cat_planta.mp3,2020-06-05_16h12.11.676,TranslationElicitation_eng-prolific,3.2.4,MacIntel,60,5ed40c8f237b5d09810ae6b5,3.317000151,1,0,81,60,1,80
,,,,,,,,,,,,,,,,,,,,,,,,,,,,,,,,,,,,,,,,,,,,,,,,,,,168,planta,Catalan,Sounds/cat_planta.mp3,2020-06-05_16h12.11.676,TranslationElicitation_eng-prolific,3.2.4,MacIntel,60,5ed40c8f237b5d09810ae6b5,,1,0,81,60,1,80
,,,,,,,,,,,,,,,,,,,,,,,,,,,,,,,,,,,,,,,,,b,2.01699996,B,FALSE,,,,,,,117,boto,Catalan,Sounds/cat_boto.mp3,2020-06-05_16h12.11.676,TranslationElicitation_eng-prolific,3.2.4,MacIntel,60,5ed40c8f237b5d09810ae6b5,,1,0,81,12,1,80
,,,,,,,,,,,,,,,,,,,,,,,,,,,,,,,,,,,,,,,,,o,2.333999872,BO,FALSE,,,,,,,117,boto,Catalan,Sounds/cat_boto.mp3,2020-06-05_16h12.11.676,TranslationElicitation_eng-prolific,3.2.4,MacIntel,60,5ed40c8f237b5d09810ae6b5,,1,0,81,12,1,80
,,,,,,,,,,,,,,,,,,,,,,,,,,,,,,,,,,,,,,,,,t,2.616999865,BOT,FALSE,,,,,,,117,boto,Catalan,Sounds/cat_boto.mp3,2020-06-05_16h12.11.676,TranslationElicitation_eng-prolific,3.2.4,MacIntel,60,5ed40c8f237b5d09810ae6b5,,1,0,81,12,1,80
,,,,,,,,,,,,,,,,,,,,,,,,,,,,,,,,,,,,,,,,,t,2.816999912,BOTT,FALSE,,,,,,,117,boto,Catalan,Sounds/cat_boto.mp3,2020-06-05_16h12.11.676,TranslationElicitation_eng-prolific,3.2.4,MacIntel,60,5ed40c8f237b5d09810ae6b5,,1,0,81,12,1,80
,,,,,,,,,,,,,,,,,,,,,,,,,,,,,,,,,,,,,,,,,l,2.917999983,BOTTL,FALSE,,,,,,,117,boto,Catalan,Sounds/cat_boto.mp3,2020-06-05_16h12.11.676,TranslationElicitation_eng-prolific,3.2.4,MacIntel,60,5ed40c8f237b5d09810ae6b5,,1,0,81,12,1,80
,,,,,,,,,,,,,,,,,,,,,,,,,,,,,,,,,,,,,,,,,e,3.01699996,BOTTLE,FALSE,,,,,,,117,boto,Catalan,Sounds/cat_boto.mp3,2020-06-05_16h12.11.676,TranslationElicitation_eng-prolific,3.2.4,MacIntel,60,5ed40c8f237b5d09810ae6b5,,1,0,81,12,1,80
,,,,,,,,,,,,,,,,,,,,,,,,,,,,,,,,,,,,,,,,,return,4.38499999,BOTTLE,FALSE,,,,,,,117,boto,Catalan,Sounds/cat_boto.mp3,2020-06-05_16h12.11.676,TranslationElicitation_eng-prolific,3.2.4,MacIntel,60,5ed40c8f237b5d09810ae6b5,4.38499999,1,0,81,12,1,80
,,,,,,,,,,,,,,,,,,,,,,,,,,,,,,,,,,,,,,,,,,,,,,,,,,,117,boto,Catalan,Sounds/cat_boto.mp3,2020-06-05_16h12.11.676,TranslationElicitation_eng-prolific,3.2.4,MacIntel,60,5ed40c8f237b5d09810ae6b5,,1,0,81,12,1,80
,,,,,,,,,,,,,,,,,,,,,,,,,,,,,,,,,,,,,,,,,k,5.001000166,K,FALSE,,,,,,,165,pernil,Catalan,Sounds/cat_pernil.mp3,2020-06-05_16h12.11.676,TranslationElicitation_eng-prolific,3.2.4,MacIntel,60,5ed40c8f237b5d09810ae6b5,,1,0,81,57,1,80
,,,,,,,,,,,,,,,,,,,,,,,,,,,,,,,,,,,,,,,,,n,5.23300004,KN,FALSE,,,,,,,165,pernil,Catalan,Sounds/cat_pernil.mp3,2020-06-05_16h12.11.676,TranslationElicitation_eng-prolific,3.2.4,MacIntel,60,5ed40c8f237b5d09810ae6b5,,1,0,81,57,1,80
,,,,,,,,,,,,,,,,,,,,,,,,,,,,,,,,,,,,,,,,,e,5.417000055,KNE,FALSE,,,,,,,165,pernil,Catalan,Sounds/cat_pernil.mp3,2020-06-05_16h12.11.676,TranslationElicitation_eng-prolific,3.2.4,MacIntel,60,5ed40c8f237b5d09810ae6b5,,1,0,81,57,1,80
,,,,,,,,,,,,,,,,,,,,,,,,,,,,,,,,,,,,,,,,,e,5.611000061,KNEE,FALSE,,,,,,,165,pernil,Catalan,Sounds/cat_pernil.mp3,2020-06-05_16h12.11.676,TranslationElicitation_eng-prolific,3.2.4,MacIntel,60,5ed40c8f237b5d09810ae6b5,,1,0,81,57,1,80
,,,,,,,,,,,,,,,,,,,,,,,,,,,,,,,,,,,,,,,,,return,6.350000143,KNEE,FALSE,,,,,,,165,pernil,Catalan,Sounds/cat_pernil.mp3,2020-06-05_16h12.11.676,TranslationElicitation_eng-prolific,3.2.4,MacIntel,60,5ed40c8f237b5d09810ae6b5,6.350000143,1,0,81,57,1,80
,,,,,,,,,,,,,,,,,,,,,,,,,,,,,,,,,,,,,,,,,,,,,,,,,,,165,pernil,Catalan,Sounds/cat_pernil.mp3,2020-06-05_16h12.11.676,TranslationElicitation_eng-prolific,3.2.4,MacIntel,60,5ed40c8f237b5d09810ae6b5,,1,0,81,57,1,80
,,,,,,,,,,,,,,,,,,,,,,,,,,,,,,,,,,,,,,,,,g,5.48300004,G,FALSE,,,,,,,130,entrepa,Catalan,Sounds/cat_entrepa.mp3,2020-06-05_16h12.11.676,TranslationElicitation_eng-prolific,3.2.4,MacIntel,60,5ed40c8f237b5d09810ae6b5,,1,0,81,24,1,80
,,,,,,,,,,,,,,,,,,,,,,,,,,,,,,,,,,,,,,,,,r,5.584000111,GR,FALSE,,,,,,,130,entrepa,Catalan,Sounds/cat_entrepa.mp3,2020-06-05_16h12.11.676,TranslationElicitation_eng-prolific,3.2.4,MacIntel,60,5ed40c8f237b5d09810ae6b5,,1,0,81,24,1,80
,,,,,,,,,,,,,,,,,,,,,,,,,,,,,,,,,,,,,,,,,a,5.816000223,GRA,FALSE,,,,,,,130,entrepa,Catalan,Sounds/cat_entrepa.mp3,2020-06-05_16h12.11.676,TranslationElicitation_eng-prolific,3.2.4,MacIntel,60,5ed40c8f237b5d09810ae6b5,,1,0,81,24,1,80
,,,,,,,,,,,,,,,,,,,,,,,,,,,,,,,,,,,,,,,,,n,5.927000046,GRAN,FALSE,,,,,,,130,entrepa,Catalan,Sounds/cat_entrepa.mp3,2020-06-05_16h12.11.676,TranslationElicitation_eng-prolific,3.2.4,MacIntel,60,5ed40c8f237b5d09810ae6b5,,1,0,81,24,1,80
,,,,,,,,,,,,,,,,,,,,,,,,,,,,,,,,,,,,,,,,,d,6.700000048,GRAND,FALSE,,,,,,,130,entrepa,Catalan,Sounds/cat_entrepa.mp3,2020-06-05_16h12.11.676,TranslationElicitation_eng-prolific,3.2.4,MacIntel,60,5ed40c8f237b5d09810ae6b5,,1,0,81,24,1,80
,,,,,,,,,,,,,,,,,,,,,,,,,,,,,,,,,,,,,,,,,f,7.450000048,GRANDF,FALSE,,,,,,,130,entrepa,Catalan,Sounds/cat_entrepa.mp3,2020-06-05_16h12.11.676,TranslationElicitation_eng-prolific,3.2.4,MacIntel,60,5ed40c8f237b5d09810ae6b5,,1,0,81,24,1,80
,,,,,,,,,,,,,,,,,,,,,,,,,,,,,,,,,,,,,,,,,a,7.666000128,GRANDFA,FALSE,,,,,,,130,entrepa,Catalan,Sounds/cat_entrepa.mp3,2020-06-05_16h12.11.676,TranslationElicitation_eng-prolific,3.2.4,MacIntel,60,5ed40c8f237b5d09810ae6b5,,1,0,81,24,1,80
,,,,,,,,,,,,,,,,,,,,,,,,,,,,,,,,,,,,,,,,,t,7.75,GRANDFAT,FALSE,,,,,,,130,entrepa,Catalan,Sounds/cat_entrepa.mp3,2020-06-05_16h12.11.676,TranslationElicitation_eng-prolific,3.2.4,MacIntel,60,5ed40c8f237b5d09810ae6b5,,1,0,81,24,1,80
,,,,,,,,,,,,,,,,,,,,,,,,,,,,,,,,,,,,,,,,,h,7.900000095,GRANDFATH,FALSE,,,,,,,130,entrepa,Catalan,Sounds/cat_entrepa.mp3,2020-06-05_16h12.11.676,TranslationElicitation_eng-prolific,3.2.4,MacIntel,60,5ed40c8f237b5d09810ae6b5,,1,0,81,24,1,80
,,,,,,,,,,,,,,,,,,,,,,,,,,,,,,,,,,,,,,,,,e,8.001000166,GRANDFATHE,FALSE,,,,,,,130,entrepa,Catalan,Sounds/cat_entrepa.mp3,2020-06-05_16h12.11.676,TranslationElicitation_eng-prolific,3.2.4,MacIntel,60,5ed40c8f237b5d09810ae6b5,,1,0,81,24,1,80
,,,,,,,,,,,,,,,,,,,,,,,,,,,,,,,,,,,,,,,,,r,8.067000151,GRANDFATHER,FALSE,,,,,,,130,entrepa,Catalan,Sounds/cat_entrepa.mp3,2020-06-05_16h12.11.676,TranslationElicitation_eng-prolific,3.2.4,MacIntel,60,5ed40c8f237b5d09810ae6b5,,1,0,81,24,1,80
,,,,,,,,,,,,,,,,,,,,,,,,,,,,,,,,,,,,,,,,,return,8.600000143,GRANDFATHER,FALSE,,,,,,,130,entrepa,Catalan,Sounds/cat_entrepa.mp3,2020-06-05_16h12.11.676,TranslationElicitation_eng-prolific,3.2.4,MacIntel,60,5ed40c8f237b5d09810ae6b5,8.600000143,1,0,81,24,1,80
,,,,,,,,,,,,,,,,,,,,,,,,,,,,,,,,,,,,,,,,,,,,,,,,,,,130,entrepa,Catalan,Sounds/cat_entrepa.mp3,2020-06-05_16h12.11.676,TranslationElicitation_eng-prolific,3.2.4,MacIntel,60,5ed40c8f237b5d09810ae6b5,,1,0,81,24,1,80
,,,,,,,,,,,,,,,,,,,,,,,,,,,,,,,,,,,,,,,,,a,4.766000032,A,FALSE,,,,,,,136,forquilla,Catalan,Sounds/cat_forquilla.mp3,2020-06-05_16h12.11.676,TranslationElicitation_eng-prolific,3.2.4,MacIntel,60,5ed40c8f237b5d09810ae6b5,,1,0,81,30,1,80
,,,,,,,,,,,,,,,,,,,,,,,,,,,,,,,,,,,,,,,,,u,4.933000088,AU,FALSE,,,,,,,136,forquilla,Catalan,Sounds/cat_forquilla.mp3,2020-06-05_16h12.11.676,TranslationElicitation_eng-prolific,3.2.4,MacIntel,60,5ed40c8f237b5d09810ae6b5,,1,0,81,30,1,80
,,,,,,,,,,,,,,,,,,,,,,,,,,,,,,,,,,,,,,,,,n,5.167000055,AUN,FALSE,,,,,,,136,forquilla,Catalan,Sounds/cat_forquilla.mp3,2020-06-05_16h12.11.676,TranslationElicitation_eng-prolific,3.2.4,MacIntel,60,5ed40c8f237b5d09810ae6b5,,1,0,81,30,1,80
,,,,,,,,,,,,,,,,,,,,,,,,,,,,,,,,,,,,,,,,,t,6.049000025,AUNT,FALSE,,,,,,,136,forquilla,Catalan,Sounds/cat_forquilla.mp3,2020-06-05_16h12.11.676,TranslationElicitation_eng-prolific,3.2.4,MacIntel,60,5ed40c8f237b5d09810ae6b5,,1,0,81,30,1,80
,,,,,,,,,,,,,,,,,,,,,,,,,,,,,,,,,,,,,,,,,return,6.884000063,AUNT,FALSE,,,,,,,136,forquilla,Catalan,Sounds/cat_forquilla.mp3,2020-06-05_16h12.11.676,TranslationElicitation_eng-prolific,3.2.4,MacIntel,60,5ed40c8f237b5d09810ae6b5,6.884000063,1,0,81,30,1,80
,,,,,,,,,,,,,,,,,,,,,,,,,,,,,,,,,,,,,,,,,,,,,,,,,,,136,forquilla,Catalan,Sounds/cat_forquilla.mp3,2020-06-05_16h12.11.676,TranslationElicitation_eng-prolific,3.2.4,MacIntel,60,5ed40c8f237b5d09810ae6b5,,1,0,81,30,1,80
,,,,,,,,,,,,,,,,,,,,,,,,,,,,,,,,,,,,,,,,,p,3.667000055,P,FALSE,,,,,,,173,porc,Catalan,Sounds/cat_porc.mp3,2020-06-05_16h12.11.676,TranslationElicitation_eng-prolific,3.2.4,MacIntel,60,5ed40c8f237b5d09810ae6b5,,1,0,81,65,1,80
,,,,,,,,,,,,,,,,,,,,,,,,,,,,,,,,,,,,,,,,,a,3.849999905,PA,FALSE,,,,,,,173,porc,Catalan,Sounds/cat_porc.mp3,2020-06-05_16h12.11.676,TranslationElicitation_eng-prolific,3.2.4,MacIntel,60,5ed40c8f237b5d09810ae6b5,,1,0,81,65,1,80
,,,,,,,,,,,,,,,,,,,,,,,,,,,,,,,,,,,,,,,,,r,4.083999872,PAR,FALSE,,,,,,,173,porc,Catalan,Sounds/cat_porc.mp3,2020-06-05_16h12.11.676,TranslationElicitation_eng-prolific,3.2.4,MacIntel,60,5ed40c8f237b5d09810ae6b5,,1,0,81,65,1,80
,,,,,,,,,,,,,,,,,,,,,,,,,,,,,,,,,,,,,,,,,k,4.21600008,PARK,FALSE,,,,,,,173,porc,Catalan,Sounds/cat_porc.mp3,2020-06-05_16h12.11.676,TranslationElicitation_eng-prolific,3.2.4,MacIntel,60,5ed40c8f237b5d09810ae6b5,,1,0,81,65,1,80
,,,,,,,,,,,,,,,,,,,,,,,,,,,,,,,,,,,,,,,,,return,5.351000071,PARK,FALSE,,,,,,,173,porc,Catalan,Sounds/cat_porc.mp3,2020-06-05_16h12.11.676,TranslationElicitation_eng-prolific,3.2.4,MacIntel,60,5ed40c8f237b5d09810ae6b5,5.351000071,1,0,81,65,1,80
,,,,,,,,,,,,,,,,,,,,,,,,,,,,,,,,,,,,,,,,,,,,,,,,,,,173,porc,Catalan,Sounds/cat_porc.mp3,2020-06-05_16h12.11.676,TranslationElicitation_eng-prolific,3.2.4,MacIntel,60,5ed40c8f237b5d09810ae6b5,,1,0,81,65,1,80
,,,,,,,,,,,,,,,,,,,,,,,,,,,,,,,,,,,,,,,,,s,3.149999857,S,FALSE,,,,,,,177,sol,Catalan,Sounds/cat_sol.mp3,2020-06-05_16h12.11.676,TranslationElicitation_eng-prolific,3.2.4,MacIntel,60,5ed40c8f237b5d09810ae6b5,,1,0,81,69,1,80
,,,,,,,,,,,,,,,,,,,,,,,,,,,,,,,,,,,,,,,,,u,3.232999802,SU,FALSE,,,,,,,177,sol,Catalan,Sounds/cat_sol.mp3,2020-06-05_16h12.11.676,TranslationElicitation_eng-prolific,3.2.4,MacIntel,60,5ed40c8f237b5d09810ae6b5,,1,0,81,69,1,80
,,,,,,,,,,,,,,,,,,,,,,,,,,,,,,,,,,,,,,,,,n,3.382999897,SUN,FALSE,,,,,,,177,sol,Catalan,Sounds/cat_sol.mp3,2020-06-05_16h12.11.676,TranslationElicitation_eng-prolific,3.2.4,MacIntel,60,5ed40c8f237b5d09810ae6b5,,1,0,81,69,1,80
,,,,,,,,,,,,,,,,,,,,,,,,,,,,,,,,,,,,,,,,,return,4.717000008,SUN,FALSE,,,,,,,177,sol,Catalan,Sounds/cat_sol.mp3,2020-06-05_16h12.11.676,TranslationElicitation_eng-prolific,3.2.4,MacIntel,60,5ed40c8f237b5d09810ae6b5,4.717000008,1,0,81,69,1,80
,,,,,,,,,,,,,,,,,,,,,,,,,,,,,,,,,,,,,,,,,,,,,,,,,,,177,sol,Catalan,Sounds/cat_sol.mp3,2020-06-05_16h12.11.676,TranslationElicitation_eng-prolific,3.2.4,MacIntel,60,5ed40c8f237b5d09810ae6b5,,1,0,81,69,1,80
,,,,,,,,,,,,,,,,,,,,,,,,,,,,,,,,,,,,,,,,,b,2.099999905,B,FALSE,,,,,,,114,bol,Catalan,Sounds/cat_bol.mp3,2020-06-05_16h12.11.676,TranslationElicitation_eng-prolific,3.2.4,MacIntel,60,5ed40c8f237b5d09810ae6b5,,1,0,81,9,1,80
,,,,,,,,,,,,,,,,,,,,,,,,,,,,,,,,,,,,,,,,,a,2.282999992,BA,FALSE,,,,,,,114,bol,Catalan,Sounds/cat_bol.mp3,2020-06-05_16h12.11.676,TranslationElicitation_eng-prolific,3.2.4,MacIntel,60,5ed40c8f237b5d09810ae6b5,,1,0,81,9,1,80
,,,,,,,,,,,,,,,,,,,,,,,,,,,,,,,,,,,,,,,,,l,2.382999897,BAL,FALSE,,,,,,,114,bol,Catalan,Sounds/cat_bol.mp3,2020-06-05_16h12.11.676,TranslationElicitation_eng-prolific,3.2.4,MacIntel,60,5ed40c8f237b5d09810ae6b5,,1,0,81,9,1,80
,,,,,,,,,,,,,,,,,,,,,,,,,,,,,,,,,,,,,,,,,l,2.549999952,BALL,FALSE,,,,,,,114,bol,Catalan,Sounds/cat_bol.mp3,2020-06-05_16h12.11.676,TranslationElicitation_eng-prolific,3.2.4,MacIntel,60,5ed40c8f237b5d09810ae6b5,,1,0,81,9,1,80
,,,,,,,,,,,,,,,,,,,,,,,,,,,,,,,,,,,,,,,,,return,3.28399992,BALL,FALSE,,,,,,,114,bol,Catalan,Sounds/cat_bol.mp3,2020-06-05_16h12.11.676,TranslationElicitation_eng-prolific,3.2.4,MacIntel,60,5ed40c8f237b5d09810ae6b5,3.28399992,1,0,81,9,1,80
,,,,,,,,,,,,,,,,,,,,,,,,,,,,,,,,,,,,,,,,,,,,,,,,,,,114,bol,Catalan,Sounds/cat_bol.mp3,2020-06-05_16h12.11.676,TranslationElicitation_eng-prolific,3.2.4,MacIntel,60,5ed40c8f237b5d09810ae6b5,,1,0,81,9,1,80
,,,,,,,,,,,,,,,,,,,,,,,,,,,,,,,,,,,,,,,,,z,1.565999985,Z,FALSE,,,,,,,189,zebra,Catalan,Sounds/cat_zebra.mp3,2020-06-05_16h12.11.676,TranslationElicitation_eng-prolific,3.2.4,MacIntel,60,5ed40c8f237b5d09810ae6b5,,1,0,81,80,1,80
,,,,,,,,,,,,,,,,,,,,,,,,,,,,,,,,,,,,,,,,,e,1.799999952,ZE,FALSE,,,,,,,189,zebra,Catalan,Sounds/cat_zebra.mp3,2020-06-05_16h12.11.676,TranslationElicitation_eng-prolific,3.2.4,MacIntel,60,5ed40c8f237b5d09810ae6b5,,1,0,81,80,1,80
,,,,,,,,,,,,,,,,,,,,,,,,,,,,,,,,,,,,,,,,,b,1.98300004,ZEB,FALSE,,,,,,,189,zebra,Catalan,Sounds/cat_zebra.mp3,2020-06-05_16h12.11.676,TranslationElicitation_eng-prolific,3.2.4,MacIntel,60,5ed40c8f237b5d09810ae6b5,,1,0,81,80,1,80
,,,,,,,,,,,,,,,,,,,,,,,,,,,,,,,,,,,,,,,,,r,2.25,ZEBR,FALSE,,,,,,,189,zebra,Catalan,Sounds/cat_zebra.mp3,2020-06-05_16h12.11.676,TranslationElicitation_eng-prolific,3.2.4,MacIntel,60,5ed40c8f237b5d09810ae6b5,,1,0,81,80,1,80
,,,,,,,,,,,,,,,,,,,,,,,,,,,,,,,,,,,,,,,,,a,2.510999918,ZEBRA,FALSE,,,,,,,189,zebra,Catalan,Sounds/cat_zebra.mp3,2020-06-05_16h12.11.676,TranslationElicitation_eng-prolific,3.2.4,MacIntel,60,5ed40c8f237b5d09810ae6b5,,1,0,81,80,1,80
,,,,,,,,,,,,,,,,,,,,,,,,,,,,,,,,,,,,,,,,,return,2.999000072,ZEBRA,FALSE,,,,,,,189,zebra,Catalan,Sounds/cat_zebra.mp3,2020-06-05_16h12.11.676,TranslationElicitation_eng-prolific,3.2.4,MacIntel,60,5ed40c8f237b5d09810ae6b5,2.999000072,1,0,81,80,1,80
,,,,,,,,,,,,,,,,,,,,,,,,,,,,,,,,,,,,,,,,,,,,,,,,,,,189,zebra,Catalan,Sounds/cat_zebra.mp3,2020-06-05_16h12.11.676,TranslationElicitation_eng-prolific,3.2.4,MacIntel,60,5ed40c8f237b5d09810ae6b5,,1,0,81,80,1,80
,,,,,,,,,,,,,,,,,,,,,,,,,,,,,,,,,,,,,,,,,m,2.034000158,M,FALSE,,,,,,,153,mico,Catalan,Sounds/cat_mico.mp3,2020-06-05_16h12.11.676,TranslationElicitation_eng-prolific,3.2.4,MacIntel,60,5ed40c8f237b5d09810ae6b5,,1,0,81,46,1,80
,,,,,,,,,,,,,,,,,,,,,,,,,,,,,,,,,,,,,,,,,y,2.26699996,MY,FALSE,,,,,,,153,mico,Catalan,Sounds/cat_mico.mp3,2020-06-05_16h12.11.676,TranslationElicitation_eng-prolific,3.2.4,MacIntel,60,5ed40c8f237b5d09810ae6b5,,1,0,81,46,1,80
,,,,,,,,,,,,,,,,,,,,,,,,,,,,,,,,,,,,,,,,,s,2.383000135,MYS,FALSE,,,,,,,153,mico,Catalan,Sounds/cat_mico.mp3,2020-06-05_16h12.11.676,TranslationElicitation_eng-prolific,3.2.4,MacIntel,60,5ed40c8f237b5d09810ae6b5,,1,0,81,46,1,80
,,,,,,,,,,,,,,,,,,,,,,,,,,,,,,,,,,,,,,,,,e,2.565999985,MYSE,FALSE,,,,,,,153,mico,Catalan,Sounds/cat_mico.mp3,2020-06-05_16h12.11.676,TranslationElicitation_eng-prolific,3.2.4,MacIntel,60,5ed40c8f237b5d09810ae6b5,,1,0,81,46,1,80
,,,,,,,,,,,,,,,,,,,,,,,,,,,,,,,,,,,,,,,,,l,2.649000168,MYSEL,FALSE,,,,,,,153,mico,Catalan,Sounds/cat_mico.mp3,2020-06-05_16h12.11.676,TranslationElicitation_eng-prolific,3.2.4,MacIntel,60,5ed40c8f237b5d09810ae6b5,,1,0,81,46,1,80
,,,,,,,,,,,,,,,,,,,,,,,,,,,,,,,,,,,,,,,,,f,2.766000032,MYSELF,FALSE,,,,,,,153,mico,Catalan,Sounds/cat_mico.mp3,2020-06-05_16h12.11.676,TranslationElicitation_eng-prolific,3.2.4,MacIntel,60,5ed40c8f237b5d09810ae6b5,,1,0,81,46,1,80
,,,,,,,,,,,,,,,,,,,,,,,,,,,,,,,,,,,,,,,,,return,3.383000135,MYSELF,FALSE,,,,,,,153,mico,Catalan,Sounds/cat_mico.mp3,2020-06-05_16h12.11.676,TranslationElicitation_eng-prolific,3.2.4,MacIntel,60,5ed40c8f237b5d09810ae6b5,3.383000135,1,0,81,46,1,80
,,,,,,,,,,,,,,,,,,,,,,,,,,,,,,,,,,,,,,,,,,,,,,,,,,,153,mico,Catalan,Sounds/cat_mico.mp3,2020-06-05_16h12.11.676,TranslationElicitation_eng-prolific,3.2.4,MacIntel,60,5ed40c8f237b5d09810ae6b5,,1,0,81,46,1,80
,,,,,,,,,,,,,,,,,,,,,,,,,,,,,,,,,,,,,,,,,f,2.115999937,F,FALSE,,,,,,,134,flor,Catalan,Sounds/cat_flor.mp3,2020-06-05_16h12.11.676,TranslationElicitation_eng-prolific,3.2.4,MacIntel,60,5ed40c8f237b5d09810ae6b5,,1,0,81,28,1,80
,,,,,,,,,,,,,,,,,,,,,,,,,,,,,,,,,,,,,,,,,l,2.31799984,FL,FALSE,,,,,,,134,flor,Catalan,Sounds/cat_flor.mp3,2020-06-05_16h12.11.676,TranslationElicitation_eng-prolific,3.2.4,MacIntel,60,5ed40c8f237b5d09810ae6b5,,1,0,81,28,1,80
,,,,,,,,,,,,,,,,,,,,,,,,,,,,,,,,,,,,,,,,,o,2.467000008,FLO,FALSE,,,,,,,134,flor,Catalan,Sounds/cat_flor.mp3,2020-06-05_16h12.11.676,TranslationElicitation_eng-prolific,3.2.4,MacIntel,60,5ed40c8f237b5d09810ae6b5,,1,0,81,28,1,80
,,,,,,,,,,,,,,,,,,,,,,,,,,,,,,,,,,,,,,,,,w,2.55099988,FLOW,FALSE,,,,,,,134,flor,Catalan,Sounds/cat_flor.mp3,2020-06-05_16h12.11.676,TranslationElicitation_eng-prolific,3.2.4,MacIntel,60,5ed40c8f237b5d09810ae6b5,,1,0,81,28,1,80
,,,,,,,,,,,,,,,,,,,,,,,,,,,,,,,,,,,,,,,,,return,4.0849998,FLOW,FALSE,,,,,,,134,flor,Catalan,Sounds/cat_flor.mp3,2020-06-05_16h12.11.676,TranslationElicitation_eng-prolific,3.2.4,MacIntel,60,5ed40c8f237b5d09810ae6b5,4.0849998,1,0,81,28,1,80
,,,,,,,,,,,,,,,,,,,,,,,,,,,,,,,,,,,,,,,,,,,,,,,,,,,134,flor,Catalan,Sounds/cat_flor.mp3,2020-06-05_16h12.11.676,TranslationElicitation_eng-prolific,3.2.4,MacIntel,60,5ed40c8f237b5d09810ae6b5,,1,0,81,28,1,80
,,,,,,,,,,,,,,,,,,,,,,,,,,,,,,,,,,,,,,,,,f,14.81900001,F,FALSE,,,,,,,178,taronja,Catalan,Sounds/cat_taronja.mp3,2020-06-05_16h12.11.676,TranslationElicitation_eng-prolific,3.2.4,MacIntel,60,5ed40c8f237b5d09810ae6b5,,1,0,81,70,1,80
,,,,,,,,,,,,,,,,,,,,,,,,,,,,,,,,,,,,,,,,,r,15.12000012,FR,FALSE,,,,,,,178,taronja,Catalan,Sounds/cat_taronja.mp3,2020-06-05_16h12.11.676,TranslationElicitation_eng-prolific,3.2.4,MacIntel,60,5ed40c8f237b5d09810ae6b5,,1,0,81,70,1,80
,,,,,,,,,,,,,,,,,,,,,,,,,,,,,,,,,,,,,,,,,u,15.30299997,FRU,FALSE,,,,,,,178,taronja,Catalan,Sounds/cat_taronja.mp3,2020-06-05_16h12.11.676,TranslationElicitation_eng-prolific,3.2.4,MacIntel,60,5ed40c8f237b5d09810ae6b5,,1,0,81,70,1,80
,,,,,,,,,,,,,,,,,,,,,,,,,,,,,,,,,,,,,,,,,i,15.40199995,FRUI,FALSE,,,,,,,178,taronja,Catalan,Sounds/cat_taronja.mp3,2020-06-05_16h12.11.676,TranslationElicitation_eng-prolific,3.2.4,MacIntel,60,5ed40c8f237b5d09810ae6b5,,1,0,81,70,1,80
,,,,,,,,,,,,,,,,,,,,,,,,,,,,,,,,,,,,,,,,,t,15.51800013,FRUIT,FALSE,,,,,,,178,taronja,Catalan,Sounds/cat_taronja.mp3,2020-06-05_16h12.11.676,TranslationElicitation_eng-prolific,3.2.4,MacIntel,60,5ed40c8f237b5d09810ae6b5,,1,0,81,70,1,80
,,,,,,,,,,,,,,,,,,,,,,,,,,,,,,,,,,,,,,,,,return,16.11899996,FRUIT,FALSE,,,,,,,178,taronja,Catalan,Sounds/cat_taronja.mp3,2020-06-05_16h12.11.676,TranslationElicitation_eng-prolific,3.2.4,MacIntel,60,5ed40c8f237b5d09810ae6b5,16.11899996,1,0,81,70,1,80
,,,,,,,,,,,,,,,,,,,,,,,,,,,,,,,,,,,,,,,,,,,,,,,,,,,178,taronja,Catalan,Sounds/cat_taronja.mp3,2020-06-05_16h12.11.676,TranslationElicitation_eng-prolific,3.2.4,MacIntel,60,5ed40c8f237b5d09810ae6b5,,1,0,81,70,1,80
,,,,,,,,,,,,,,,,,,,,,,,,,,,,,,,,,,,,,,,,,l,2.467000008,L,FALSE,,,,,,,185,ulleres,Catalan,Sounds/cat_ulleres.mp3,2020-06-05_16h12.11.676,TranslationElicitation_eng-prolific,3.2.4,MacIntel,60,5ed40c8f237b5d09810ae6b5,,1,0,81,76,1,80
,,,,,,,,,,,,,,,,,,,,,,,,,,,,,,,,,,,,,,,,,a,2.617000103,LA,FALSE,,,,,,,185,ulleres,Catalan,Sounds/cat_ulleres.mp3,2020-06-05_16h12.11.676,TranslationElicitation_eng-prolific,3.2.4,MacIntel,60,5ed40c8f237b5d09810ae6b5,,1,0,81,76,1,80
,,,,,,,,,,,,,,,,,,,,,,,,,,,,,,,,,,,,,,,,,d,2.833000183,LAD,FALSE,,,,,,,185,ulleres,Catalan,Sounds/cat_ulleres.mp3,2020-06-05_16h12.11.676,TranslationElicitation_eng-prolific,3.2.4,MacIntel,60,5ed40c8f237b5d09810ae6b5,,1,0,81,76,1,80
,,,,,,,,,,,,,,,,,,,,,,,,,,,,,,,,,,,,,,,,,i,2.929000139,LADI,FALSE,,,,,,,185,ulleres,Catalan,Sounds/cat_ulleres.mp3,2020-06-05_16h12.11.676,TranslationElicitation_eng-prolific,3.2.4,MacIntel,60,5ed40c8f237b5d09810ae6b5,,1,0,81,76,1,80
,,,,,,,,,,,,,,,,,,,,,,,,,,,,,,,,,,,,,,,,,e,3.034000158,LADIE,FALSE,,,,,,,185,ulleres,Catalan,Sounds/cat_ulleres.mp3,2020-06-05_16h12.11.676,TranslationElicitation_eng-prolific,3.2.4,MacIntel,60,5ed40c8f237b5d09810ae6b5,,1,0,81,76,1,80
,,,,,,,,,,,,,,,,,,,,,,,,,,,,,,,,,,,,,,,,,s,3.228000164,LADIES,FALSE,,,,,,,185,ulleres,Catalan,Sounds/cat_ulleres.mp3,2020-06-05_16h12.11.676,TranslationElicitation_eng-prolific,3.2.4,MacIntel,60,5ed40c8f237b5d09810ae6b5,,1,0,81,76,1,80
,,,,,,,,,,,,,,,,,,,,,,,,,,,,,,,,,,,,,,,,,return,4.550000191,LADIES,FALSE,,,,,,,185,ulleres,Catalan,Sounds/cat_ulleres.mp3,2020-06-05_16h12.11.676,TranslationElicitation_eng-prolific,3.2.4,MacIntel,60,5ed40c8f237b5d09810ae6b5,4.550000191,1,0,81,76,1,80
,,,,,,,,,,,,,,,,,,,,,,,,,,,,,,,,,,,,,,,,,,,,,,,,,,,185,ulleres,Catalan,Sounds/cat_ulleres.mp3,2020-06-05_16h12.11.676,TranslationElicitation_eng-prolific,3.2.4,MacIntel,60,5ed40c8f237b5d09810ae6b5,,1,0,81,76,1,80
,,,,,,,,,,,,,,,,,,,,,,,,,,,,,,,,,,,,,,,,,c,2.366999865,C,FALSE,,,,,,,128,cuc,Catalan,Sounds/cat_cuc.mp3,2020-06-05_16h12.11.676,TranslationElicitation_eng-prolific,3.2.4,MacIntel,60,5ed40c8f237b5d09810ae6b5,,1,0,81,22,1,80
,,,,,,,,,,,,,,,,,,,,,,,,,,,,,,,,,,,,,,,,,o,2.483999968,CO,FALSE,,,,,,,128,cuc,Catalan,Sounds/cat_cuc.mp3,2020-06-05_16h12.11.676,TranslationElicitation_eng-prolific,3.2.4,MacIntel,60,5ed40c8f237b5d09810ae6b5,,1,0,81,22,1,80
,,,,,,,,,,,,,,,,,,,,,,,,,,,,,,,,,,,,,,,,,o,2.616999865,COO,FALSE,,,,,,,128,cuc,Catalan,Sounds/cat_cuc.mp3,2020-06-05_16h12.11.676,TranslationElicitation_eng-prolific,3.2.4,MacIntel,60,5ed40c8f237b5d09810ae6b5,,1,0,81,22,1,80
,,,,,,,,,,,,,,,,,,,,,,,,,,,,,,,,,,,,,,,,,k,2.717000008,COOK,FALSE,,,,,,,128,cuc,Catalan,Sounds/cat_cuc.mp3,2020-06-05_16h12.11.676,TranslationElicitation_eng-prolific,3.2.4,MacIntel,60,5ed40c8f237b5d09810ae6b5,,1,0,81,22,1,80
,,,,,,,,,,,,,,,,,,,,,,,,,,,,,,,,,,,,,,,,,return,3.26699996,COOK,FALSE,,,,,,,128,cuc,Catalan,Sounds/cat_cuc.mp3,2020-06-05_16h12.11.676,TranslationElicitation_eng-prolific,3.2.4,MacIntel,60,5ed40c8f237b5d09810ae6b5,3.26699996,1,0,81,22,1,80
,,,,,,,,,,,,,,,,,,,,,,,,,,,,,,,,,,,,,,,,,,,,,,,,,,,128,cuc,Catalan,Sounds/cat_cuc.mp3,2020-06-05_16h12.11.676,TranslationElicitation_eng-prolific,3.2.4,MacIntel,60,5ed40c8f237b5d09810ae6b5,,1,0,81,22,1,80
,,,,,,,,,,,,,,,,,,,,,,,,,,,,,,,,,,,,,,,,,g,3.5,G,FALSE,,,,,,,141,gerd,Catalan,Sounds/cat_gerd.mp3,2020-06-05_16h12.11.676,TranslationElicitation_eng-prolific,3.2.4,MacIntel,60,5ed40c8f237b5d09810ae6b5,,1,0,81,35,1,80
,,,,,,,,,,,,,,,,,,,,,,,,,,,,,,,,,,,,,,,,,r,3.900000095,GR,FALSE,,,,,,,141,gerd,Catalan,Sounds/cat_gerd.mp3,2020-06-05_16h12.11.676,TranslationElicitation_eng-prolific,3.2.4,MacIntel,60,5ed40c8f237b5d09810ae6b5,,1,0,81,35,1,80
,,,,,,,,,,,,,,,,,,,,,,,,,,,,,,,,,,,,,,,,,e,4.101999998,GRE,FALSE,,,,,,,141,gerd,Catalan,Sounds/cat_gerd.mp3,2020-06-05_16h12.11.676,TranslationElicitation_eng-prolific,3.2.4,MacIntel,60,5ed40c8f237b5d09810ae6b5,,1,0,81,35,1,80
,,,,,,,,,,,,,,,,,,,,,,,,,,,,,,,,,,,,,,,,,e,4.25,GREE,FALSE,,,,,,,141,gerd,Catalan,Sounds/cat_gerd.mp3,2020-06-05_16h12.11.676,TranslationElicitation_eng-prolific,3.2.4,MacIntel,60,5ed40c8f237b5d09810ae6b5,,1,0,81,35,1,80
,,,,,,,,,,,,,,,,,,,,,,,,,,,,,,,,,,,,,,,,,n,4.351000071,GREEN,FALSE,,,,,,,141,gerd,Catalan,Sounds/cat_gerd.mp3,2020-06-05_16h12.11.676,TranslationElicitation_eng-prolific,3.2.4,MacIntel,60,5ed40c8f237b5d09810ae6b5,,1,0,81,35,1,80
,,,,,,,,,,,,,,,,,,,,,,,,,,,,,,,,,,,,,,,,,return,4.849999905,GREEN,FALSE,,,,,,,141,gerd,Catalan,Sounds/cat_gerd.mp3,2020-06-05_16h12.11.676,TranslationElicitation_eng-prolific,3.2.4,MacIntel,60,5ed40c8f237b5d09810ae6b5,4.849999905,1,0,81,35,1,80
,,,,,,,,,,,,,,,,,,,,,,,,,,,,,,,,,,,,,,,,,,,,,,,,,,,141,gerd,Catalan,Sounds/cat_gerd.mp3,2020-06-05_16h12.11.676,TranslationElicitation_eng-prolific,3.2.4,MacIntel,60,5ed40c8f237b5d09810ae6b5,,1,0,81,35,1,80
,,,,,,,,,,,,,,,,,,,,,,,,,,,,,,,,,,,,,,,,,s,12.41799998,S,FALSE,,,,,,,106,aixeta,Catalan,Sounds/cat_aixeta.mp3,2020-06-05_16h12.11.676,TranslationElicitation_eng-prolific,3.2.4,MacIntel,60,5ed40c8f237b5d09810ae6b5,,1,0,81,2,1,80
,,,,,,,,,,,,,,,,,,,,,,,,,,,,,,,,,,,,,,,,,e,12.68499994,SE,FALSE,,,,,,,106,aixeta,Catalan,Sounds/cat_aixeta.mp3,2020-06-05_16h12.11.676,TranslationElicitation_eng-prolific,3.2.4,MacIntel,60,5ed40c8f237b5d09810ae6b5,,1,0,81,2,1,80
,,,,,,,,,,,,,,,,,,,,,,,,,,,,,,,,,,,,,,,,,a,12.84699988,SEA,FALSE,,,,,,,106,aixeta,Catalan,Sounds/cat_aixeta.mp3,2020-06-05_16h12.11.676,TranslationElicitation_eng-prolific,3.2.4,MacIntel,60,5ed40c8f237b5d09810ae6b5,,1,0,81,2,1,80
,,,,,,,,,,,,,,,,,,,,,,,,,,,,,,,,,,,,,,,,,t,13.03499985,SEAT,FALSE,,,,,,,106,aixeta,Catalan,Sounds/cat_aixeta.mp3,2020-06-05_16h12.11.676,TranslationElicitation_eng-prolific,3.2.4,MacIntel,60,5ed40c8f237b5d09810ae6b5,,1,0,81,2,1,80
,,,,,,,,,,,,,,,,,,,,,,,,,,,,,,,,,,,,,,,,,return,13.65100002,SEAT,FALSE,,,,,,,106,aixeta,Catalan,Sounds/cat_aixeta.mp3,2020-06-05_16h12.11.676,TranslationElicitation_eng-prolific,3.2.4,MacIntel,60,5ed40c8f237b5d09810ae6b5,13.65100002,1,0,81,2,1,80
,,,,,,,,,,,,,,,,,,,,,,,,,,,,,,,,,,,,,,,,,,,,,,,,,,,106,aixeta,Catalan,Sounds/cat_aixeta.mp3,2020-06-05_16h12.11.676,TranslationElicitation_eng-prolific,3.2.4,MacIntel,60,5ed40c8f237b5d09810ae6b5,,1,0,81,2,1,80
,,,,,,,,,,,,,,,,,,,,,,,,,,,,,,,,,,,,,,,,,r,4.5,R,FALSE,,,,,,,142,girafa,Catalan,Sounds/cat_girafa.mp3,2020-06-05_16h12.11.676,TranslationElicitation_eng-prolific,3.2.4,MacIntel,60,5ed40c8f237b5d09810ae6b5,,1,0,81,36,1,80
,,,,,,,,,,,,,,,,,,,,,,,,,,,,,,,,,,,,,,,,,e,4.549000025,RE,FALSE,,,,,,,142,girafa,Catalan,Sounds/cat_girafa.mp3,2020-06-05_16h12.11.676,TranslationElicitation_eng-prolific,3.2.4,MacIntel,60,5ed40c8f237b5d09810ae6b5,,1,0,81,36,1,80
,,,,,,,,,,,,,,,,,,,,,,,,,,,,,,,,,,,,,,,,,a,4.884000063,REA,FALSE,,,,,,,142,girafa,Catalan,Sounds/cat_girafa.mp3,2020-06-05_16h12.11.676,TranslationElicitation_eng-prolific,3.2.4,MacIntel,60,5ed40c8f237b5d09810ae6b5,,1,0,81,36,1,80
,,,,,,,,,,,,,,,,,,,,,,,,,,,,,,,,,,,,,,,,,d,5.117000103,READ,FALSE,,,,,,,142,girafa,Catalan,Sounds/cat_girafa.mp3,2020-06-05_16h12.11.676,TranslationElicitation_eng-prolific,3.2.4,MacIntel,60,5ed40c8f237b5d09810ae6b5,,1,0,81,36,1,80
,,,,,,,,,,,,,,,,,,,,,,,,,,,,,,,,,,,,,,,,,return,5.417000055,READ,FALSE,,,,,,,142,girafa,Catalan,Sounds/cat_girafa.mp3,2020-06-05_16h12.11.676,TranslationElicitation_eng-prolific,3.2.4,MacIntel,60,5ed40c8f237b5d09810ae6b5,5.417000055,1,0,81,36,1,80
,,,,,,,,,,,,,,,,,,,,,,,,,,,,,,,,,,,,,,,,,,,,,,,,,,,142,girafa,Catalan,Sounds/cat_girafa.mp3,2020-06-05_16h12.11.676,TranslationElicitation_eng-prolific,3.2.4,MacIntel,60,5ed40c8f237b5d09810ae6b5,,1,0,81,36,1,80
,,,,,,,,,,,,,,,,,,,,,,,,,,,,,,,,,,,,,,,,,b,6.263999939,B,FALSE,,,,,,,116,bolquer,Catalan,Sounds/cat_bolquer.mp3,2020-06-05_16h12.11.676,TranslationElicitation_eng-prolific,3.2.4,MacIntel,60,5ed40c8f237b5d09810ae6b5,,1,0,81,11,1,80
,,,,,,,,,,,,,,,,,,,,,,,,,,,,,,,,,,,,,,,,,u,6.401000023,BU,FALSE,,,,,,,116,bolquer,Catalan,Sounds/cat_bolquer.mp3,2020-06-05_16h12.11.676,TranslationElicitation_eng-prolific,3.2.4,MacIntel,60,5ed40c8f237b5d09810ae6b5,,1,0,81,11,1,80
,,,,,,,,,,,,,,,,,,,,,,,,,,,,,,,,,,,,,,,,,l,6.917999983,BUL,FALSE,,,,,,,116,bolquer,Catalan,Sounds/cat_bolquer.mp3,2020-06-05_16h12.11.676,TranslationElicitation_eng-prolific,3.2.4,MacIntel,60,5ed40c8f237b5d09810ae6b5,,1,0,81,11,1,80
,,,,,,,,,,,,,,,,,,,,,,,,,,,,,,,,,,,,,,,,,k,7.05099988,BULK,FALSE,,,,,,,116,bolquer,Catalan,Sounds/cat_bolquer.mp3,2020-06-05_16h12.11.676,TranslationElicitation_eng-prolific,3.2.4,MacIntel,60,5ed40c8f237b5d09810ae6b5,,1,0,81,11,1,80
,,,,,,,,,,,,,,,,,,,,,,,,,,,,,,,,,,,,,,,,,return,8.335000038,BULK,FALSE,,,,,,,116,bolquer,Catalan,Sounds/cat_bolquer.mp3,2020-06-05_16h12.11.676,TranslationElicitation_eng-prolific,3.2.4,MacIntel,60,5ed40c8f237b5d09810ae6b5,8.335000038,1,0,81,11,1,80
,,,,,,,,,,,,,,,,,,,,,,,,,,,,,,,,,,,,,,,,,,,,,,,,,,,116,bolquer,Catalan,Sounds/cat_bolquer.mp3,2020-06-05_16h12.11.676,TranslationElicitation_eng-prolific,3.2.4,MacIntel,60,5ed40c8f237b5d09810ae6b5,,1,0,81,11,1,80
,,,,,,,,,,,,,,,,,,,,,,,,,,,,,,,,,,,,,,,,,c,3.399999857,C,FALSE,,,,,,,121,camisa,Catalan,Sounds/cat_camisa.mp3,2020-06-05_16h12.11.676,TranslationElicitation_eng-prolific,3.2.4,MacIntel,60,5ed40c8f237b5d09810ae6b5,,1,0,81,16,1,80
,,,,,,,,,,,,,,,,,,,,,,,,,,,,,,,,,,,,,,,,,a,4.132999897,CA,FALSE,,,,,,,121,camisa,Catalan,Sounds/cat_camisa.mp3,2020-06-05_16h12.11.676,TranslationElicitation_eng-prolific,3.2.4,MacIntel,60,5ed40c8f237b5d09810ae6b5,,1,0,81,16,1,80
,,,,,,,,,,,,,,,,,,,,,,,,,,,,,,,,,,,,,,,,,m,4.349999905,CAM,FALSE,,,,,,,121,camisa,Catalan,Sounds/cat_camisa.mp3,2020-06-05_16h12.11.676,TranslationElicitation_eng-prolific,3.2.4,MacIntel,60,5ed40c8f237b5d09810ae6b5,,1,0,81,16,1,80
,,,,,,,,,,,,,,,,,,,,,,,,,,,,,,,,,,,,,,,,,i,4.549999952,CAMI,FALSE,,,,,,,121,camisa,Catalan,Sounds/cat_camisa.mp3,2020-06-05_16h12.11.676,TranslationElicitation_eng-prolific,3.2.4,MacIntel,60,5ed40c8f237b5d09810ae6b5,,1,0,81,16,1,80
,,,,,,,,,,,,,,,,,,,,,,,,,,,,,,,,,,,,,,,,,s,4.996999979,CAMIS,FALSE,,,,,,,121,camisa,Catalan,Sounds/cat_camisa.mp3,2020-06-05_16h12.11.676,TranslationElicitation_eng-prolific,3.2.4,MacIntel,60,5ed40c8f237b5d09810ae6b5,,1,0,81,16,1,80
,,,,,,,,,,,,,,,,,,,,,,,,,,,,,,,,,,,,,,,,,o,5.049999952,CAMISO,FALSE,,,,,,,121,camisa,Catalan,Sounds/cat_camisa.mp3,2020-06-05_16h12.11.676,TranslationElicitation_eng-prolific,3.2.4,MacIntel,60,5ed40c8f237b5d09810ae6b5,,1,0,81,16,1,80
,,,,,,,,,,,,,,,,,,,,,,,,,,,,,,,,,,,,,,,,,l,5.199999809,CAMISOL,FALSE,,,,,,,121,camisa,Catalan,Sounds/cat_camisa.mp3,2020-06-05_16h12.11.676,TranslationElicitation_eng-prolific,3.2.4,MacIntel,60,5ed40c8f237b5d09810ae6b5,,1,0,81,16,1,80
,,,,,,,,,,,,,,,,,,,,,,,,,,,,,,,,,,,,,,,,,e,5.316999912,CAMISOLE,FALSE,,,,,,,121,camisa,Catalan,Sounds/cat_camisa.mp3,2020-06-05_16h12.11.676,TranslationElicitation_eng-prolific,3.2.4,MacIntel,60,5ed40c8f237b5d09810ae6b5,,1,0,81,16,1,80
,,,,,,,,,,,,,,,,,,,,,,,,,,,,,,,,,,,,,,,,,return,7.465999842,CAMISOLE,FALSE,,,,,,,121,camisa,Catalan,Sounds/cat_camisa.mp3,2020-06-05_16h12.11.676,TranslationElicitation_eng-prolific,3.2.4,MacIntel,60,5ed40c8f237b5d09810ae6b5,7.465999842,1,0,81,16,1,80
,,,,,,,,,,,,,,,,,,,,,,,,,,,,,,,,,,,,,,,,,,,,,,,,,,,121,camisa,Catalan,Sounds/cat_camisa.mp3,2020-06-05_16h12.11.676,TranslationElicitation_eng-prolific,3.2.4,MacIntel,60,5ed40c8f237b5d09810ae6b5,,1,0,81,16,1,80
,,,,,,,,,,,,,,,,,,,,,,,,,,,,,,,,,,,,,,,,,s,8.133999825,S,FALSE,,,,,,,131,esponja,Catalan,Sounds/cat_esponja.mp3,2020-06-05_16h12.11.676,TranslationElicitation_eng-prolific,3.2.4,MacIntel,60,5ed40c8f237b5d09810ae6b5,,1,0,81,25,1,80
,,,,,,,,,,,,,,,,,,,,,,,,,,,,,,,,,,,,,,,,,p,8.218999863,SP,FALSE,,,,,,,131,esponja,Catalan,Sounds/cat_esponja.mp3,2020-06-05_16h12.11.676,TranslationElicitation_eng-prolific,3.2.4,MacIntel,60,5ed40c8f237b5d09810ae6b5,,1,0,81,25,1,80
,,,,,,,,,,,,,,,,,,,,,,,,,,,,,,,,,,,,,,,,,a,8.366999865,SPA,FALSE,,,,,,,131,esponja,Catalan,Sounds/cat_esponja.mp3,2020-06-05_16h12.11.676,TranslationElicitation_eng-prolific,3.2.4,MacIntel,60,5ed40c8f237b5d09810ae6b5,,1,0,81,25,1,80
,,,,,,,,,,,,,,,,,,,,,,,,,,,,,,,,,,,,,,,,,i,8.467999935,SPAI,FALSE,,,,,,,131,esponja,Catalan,Sounds/cat_esponja.mp3,2020-06-05_16h12.11.676,TranslationElicitation_eng-prolific,3.2.4,MacIntel,60,5ed40c8f237b5d09810ae6b5,,1,0,81,25,1,80
,,,,,,,,,,,,,,,,,,,,,,,,,,,,,,,,,,,,,,,,,n,8.547999859,SPAIN,FALSE,,,,,,,131,esponja,Catalan,Sounds/cat_esponja.mp3,2020-06-05_16h12.11.676,TranslationElicitation_eng-prolific,3.2.4,MacIntel,60,5ed40c8f237b5d09810ae6b5,,1,0,81,25,1,80
,,,,,,,,,,,,,,,,,,,,,,,,,,,,,,,,,,,,,,,,,return,9.301999807,SPAIN,FALSE,,,,,,,131,esponja,Catalan,Sounds/cat_esponja.mp3,2020-06-05_16h12.11.676,TranslationElicitation_eng-prolific,3.2.4,MacIntel,60,5ed40c8f237b5d09810ae6b5,9.301999807,1,0,81,25,1,80
,,,,,,,,,,,,,,,,,,,,,,,,,,,,,,,,,,,,,,,,,,,,,,,,,,,131,esponja,Catalan,Sounds/cat_esponja.mp3,2020-06-05_16h12.11.676,TranslationElicitation_eng-prolific,3.2.4,MacIntel,60,5ed40c8f237b5d09810ae6b5,,1,0,81,25,1,80
,,,,,,,,,,,,,,,,,,,,,,,,,,,,,,,,,,,,,,,,,m,1.96600008,M,FALSE,,,,,,,157,mussol,Catalan,Sounds/cat_mussol.mp3,2020-06-05_16h12.11.676,TranslationElicitation_eng-prolific,3.2.4,MacIntel,60,5ed40c8f237b5d09810ae6b5,,1,0,81,50,1,80
,,,,,,,,,,,,,,,,,,,,,,,,,,,,,,,,,,,,,,,,,u,2.118000031,MU,FALSE,,,,,,,157,mussol,Catalan,Sounds/cat_mussol.mp3,2020-06-05_16h12.11.676,TranslationElicitation_eng-prolific,3.2.4,MacIntel,60,5ed40c8f237b5d09810ae6b5,,1,0,81,50,1,80
,,,,,,,,,,,,,,,,,,,,,,,,,,,,,,,,,,,,,,,,,s,2.266000032,MUS,FALSE,,,,,,,157,mussol,Catalan,Sounds/cat_mussol.mp3,2020-06-05_16h12.11.676,TranslationElicitation_eng-prolific,3.2.4,MacIntel,60,5ed40c8f237b5d09810ae6b5,,1,0,81,50,1,80
,,,,,,,,,,,,,,,,,,,,,,,,,,,,,,,,,,,,,,,,,s,2.433000088,MUSS,FALSE,,,,,,,157,mussol,Catalan,Sounds/cat_mussol.mp3,2020-06-05_16h12.11.676,TranslationElicitation_eng-prolific,3.2.4,MacIntel,60,5ed40c8f237b5d09810ae6b5,,1,0,81,50,1,80
,,,,,,,,,,,,,,,,,,,,,,,,,,,,,,,,,,,,,,,,,l,2.517000198,MUSSL,FALSE,,,,,,,157,mussol,Catalan,Sounds/cat_mussol.mp3,2020-06-05_16h12.11.676,TranslationElicitation_eng-prolific,3.2.4,MacIntel,60,5ed40c8f237b5d09810ae6b5,,1,0,81,50,1,80
,,,,,,,,,,,,,,,,,,,,,,,,,,,,,,,,,,,,,,,,,e,2.650000095,MUSSLE,FALSE,,,,,,,157,mussol,Catalan,Sounds/cat_mussol.mp3,2020-06-05_16h12.11.676,TranslationElicitation_eng-prolific,3.2.4,MacIntel,60,5ed40c8f237b5d09810ae6b5,,1,0,81,50,1,80
,,,,,,,,,,,,,,,,,,,,,,,,,,,,,,,,,,,,,,,,,backspace,4.496999979,MUSSL,TRUE,,,,,,,157,mussol,Catalan,Sounds/cat_mussol.mp3,2020-06-05_16h12.11.676,TranslationElicitation_eng-prolific,3.2.4,MacIntel,60,5ed40c8f237b5d09810ae6b5,,1,0,81,50,1,80
,,,,,,,,,,,,,,,,,,,,,,,,,,,,,,,,,,,,,,,,,backspace,4.634000063,MUSS,TRUE,,,,,,,157,mussol,Catalan,Sounds/cat_mussol.mp3,2020-06-05_16h12.11.676,TranslationElicitation_eng-prolific,3.2.4,MacIntel,60,5ed40c8f237b5d09810ae6b5,,1,0,81,50,1,80
,,,,,,,,,,,,,,,,,,,,,,,,,,,,,,,,,,,,,,,,,backspace,4.818000078,MUS,TRUE,,,,,,,157,mussol,Catalan,Sounds/cat_mussol.mp3,2020-06-05_16h12.11.676,TranslationElicitation_eng-prolific,3.2.4,MacIntel,60,5ed40c8f237b5d09810ae6b5,,1,0,81,50,1,80
,,,,,,,,,,,,,,,,,,,,,,,,,,,,,,,,,,,,,,,,,backspace,5.217000008,MU,TRUE,,,,,,,157,mussol,Catalan,Sounds/cat_mussol.mp3,2020-06-05_16h12.11.676,TranslationElicitation_eng-prolific,3.2.4,MacIntel,60,5ed40c8f237b5d09810ae6b5,,1,0,81,50,1,80
,,,,,,,,,,,,,,,,,,,,,,,,,,,,,,,,,,,,,,,,,s,5.347000122,MUS,TRUE,,,,,,,157,mussol,Catalan,Sounds/cat_mussol.mp3,2020-06-05_16h12.11.676,TranslationElicitation_eng-prolific,3.2.4,MacIntel,60,5ed40c8f237b5d09810ae6b5,,1,0,81,50,1,80
,,,,,,,,,,,,,,,,,,,,,,,,,,,,,,,,,,,,,,,,,c,6.417000055,MUSC,TRUE,,,,,,,157,mussol,Catalan,Sounds/cat_mussol.mp3,2020-06-05_16h12.11.676,TranslationElicitation_eng-prolific,3.2.4,MacIntel,60,5ed40c8f237b5d09810ae6b5,,1,0,81,50,1,80
,,,,,,,,,,,,,,,,,,,,,,,,,,,,,,,,,,,,,,,,,l,6.5,MUSCL,TRUE,,,,,,,157,mussol,Catalan,Sounds/cat_mussol.mp3,2020-06-05_16h12.11.676,TranslationElicitation_eng-prolific,3.2.4,MacIntel,60,5ed40c8f237b5d09810ae6b5,,1,0,81,50,1,80
,,,,,,,,,,,,,,,,,,,,,,,,,,,,,,,,,,,,,,,,,e,6.600000143,MUSCLE,TRUE,,,,,,,157,mussol,Catalan,Sounds/cat_mussol.mp3,2020-06-05_16h12.11.676,TranslationElicitation_eng-prolific,3.2.4,MacIntel,60,5ed40c8f237b5d09810ae6b5,,1,0,81,50,1,80
,,,,,,,,,,,,,,,,,,,,,,,,,,,,,,,,,,,,,,,,,return,7.900000095,MUSCLE,TRUE,,,,,,,157,mussol,Catalan,Sounds/cat_mussol.mp3,2020-06-05_16h12.11.676,TranslationElicitation_eng-prolific,3.2.4,MacIntel,60,5ed40c8f237b5d09810ae6b5,7.900000095,1,0,81,50,1,80
,,,,,,,,,,,,,,,,,,,,,,,,,,,,,,,,,,,,,,,,,,,,,,,,,,,157,mussol,Catalan,Sounds/cat_mussol.mp3,2020-06-05_16h12.11.676,TranslationElicitation_eng-prolific,3.2.4,MacIntel,60,5ed40c8f237b5d09810ae6b5,,1,0,81,50,1,80
,,,,,,,,,,,,,,,,,,,,,,,,,,,,,,,,,,,,,,,,,b,4.434000015,B,FALSE,,,,,,,115,bolet,Catalan,Sounds/cat_bolet.mp3,2020-06-05_16h12.11.676,TranslationElicitation_eng-prolific,3.2.4,MacIntel,60,5ed40c8f237b5d09810ae6b5,,1,0,81,10,1,80
,,,,,,,,,,,,,,,,,,,,,,,,,,,,,,,,,,,,,,,,,u,4.568000078,BU,FALSE,,,,,,,115,bolet,Catalan,Sounds/cat_bolet.mp3,2020-06-05_16h12.11.676,TranslationElicitation_eng-prolific,3.2.4,MacIntel,60,5ed40c8f237b5d09810ae6b5,,1,0,81,10,1,80
,,,,,,,,,,,,,,,,,,,,,,,,,,,,,,,,,,,,,,,,,l,4.934000015,BUL,FALSE,,,,,,,115,bolet,Catalan,Sounds/cat_bolet.mp3,2020-06-05_16h12.11.676,TranslationElicitation_eng-prolific,3.2.4,MacIntel,60,5ed40c8f237b5d09810ae6b5,,1,0,81,10,1,80
,,,,,,,,,,,,,,,,,,,,,,,,,,,,,,,,,,,,,,,,,l,5.084000111,BULL,FALSE,,,,,,,115,bolet,Catalan,Sounds/cat_bolet.mp3,2020-06-05_16h12.11.676,TranslationElicitation_eng-prolific,3.2.4,MacIntel,60,5ed40c8f237b5d09810ae6b5,,1,0,81,10,1,80
,,,,,,,,,,,,,,,,,,,,,,,,,,,,,,,,,,,,,,,,,e,5.184999943,BULLE,FALSE,,,,,,,115,bolet,Catalan,Sounds/cat_bolet.mp3,2020-06-05_16h12.11.676,TranslationElicitation_eng-prolific,3.2.4,MacIntel,60,5ed40c8f237b5d09810ae6b5,,1,0,81,10,1,80
,,,,,,,,,,,,,,,,,,,,,,,,,,,,,,,,,,,,,,,,,t,5.578999996,BULLET,FALSE,,,,,,,115,bolet,Catalan,Sounds/cat_bolet.mp3,2020-06-05_16h12.11.676,TranslationElicitation_eng-prolific,3.2.4,MacIntel,60,5ed40c8f237b5d09810ae6b5,,1,0,81,10,1,80
,,,,,,,,,,,,,,,,,,,,,,,,,,,,,,,,,,,,,,,,,return,6.134000063,BULLET,FALSE,,,,,,,115,bolet,Catalan,Sounds/cat_bolet.mp3,2020-06-05_16h12.11.676,TranslationElicitation_eng-prolific,3.2.4,MacIntel,60,5ed40c8f237b5d09810ae6b5,6.134000063,1,0,81,10,1,80
,,,,,,,,,,,,,,,,,,,,,,,,,,,,,,,,,,,,,,,,,,,,,,,,,,,115,bolet,Catalan,Sounds/cat_bolet.mp3,2020-06-05_16h12.11.676,TranslationElicitation_eng-prolific,3.2.4,MacIntel,60,5ed40c8f237b5d09810ae6b5,,1,0,81,10,1,80
,,,,,,,,,,,,,,,,,,,,,,,,,,,,,,,,,,,,,,,,,m,1.865999937,M,FALSE,,,,,,,154,mirall,Catalan,Sounds/cat_mirall.mp3,2020-06-05_16h12.11.676,TranslationElicitation_eng-prolific,3.2.4,MacIntel,60,5ed40c8f237b5d09810ae6b5,,1,0,81,47,1,80
,,,,,,,,,,,,,,,,,,,,,,,,,,,,,,,,,,,,,,,,,o,1.983999968,MO,FALSE,,,,,,,154,mirall,Catalan,Sounds/cat_mirall.mp3,2020-06-05_16h12.11.676,TranslationElicitation_eng-prolific,3.2.4,MacIntel,60,5ed40c8f237b5d09810ae6b5,,1,0,81,47,1,80
,,,,,,,,,,,,,,,,,,,,,,,,,,,,,,,,,,,,,,,,,r,2.066999912,MOR,FALSE,,,,,,,154,mirall,Catalan,Sounds/cat_mirall.mp3,2020-06-05_16h12.11.676,TranslationElicitation_eng-prolific,3.2.4,MacIntel,60,5ed40c8f237b5d09810ae6b5,,1,0,81,47,1,80
,,,,,,,,,,,,,,,,,,,,,,,,,,,,,,,,,,,,,,,,,a,2.25,MORA,FALSE,,,,,,,154,mirall,Catalan,Sounds/cat_mirall.mp3,2020-06-05_16h12.11.676,TranslationElicitation_eng-prolific,3.2.4,MacIntel,60,5ed40c8f237b5d09810ae6b5,,1,0,81,47,1,80
,,,,,,,,,,,,,,,,,,,,,,,,,,,,,,,,,,,,,,,,,l,2.367000103,MORAL,FALSE,,,,,,,154,mirall,Catalan,Sounds/cat_mirall.mp3,2020-06-05_16h12.11.676,TranslationElicitation_eng-prolific,3.2.4,MacIntel,60,5ed40c8f237b5d09810ae6b5,,1,0,81,47,1,80
,,,,,,,,,,,,,,,,,,,,,,,,,,,,,,,,,,,,,,,,,e,2.618000031,MORALE,FALSE,,,,,,,154,mirall,Catalan,Sounds/cat_mirall.mp3,2020-06-05_16h12.11.676,TranslationElicitation_eng-prolific,3.2.4,MacIntel,60,5ed40c8f237b5d09810ae6b5,,1,0,81,47,1,80
,,,,,,,,,,,,,,,,,,,,,,,,,,,,,,,,,,,,,,,,,backspace,4.496000051,MORAL,TRUE,,,,,,,154,mirall,Catalan,Sounds/cat_mirall.mp3,2020-06-05_16h12.11.676,TranslationElicitation_eng-prolific,3.2.4,MacIntel,60,5ed40c8f237b5d09810ae6b5,,1,0,81,47,1,80
,,,,,,,,,,,,,,,,,,,,,,,,,,,,,,,,,,,,,,,,,return,6.052000046,MORAL,TRUE,,,,,,,154,mirall,Catalan,Sounds/cat_mirall.mp3,2020-06-05_16h12.11.676,TranslationElicitation_eng-prolific,3.2.4,MacIntel,60,5ed40c8f237b5d09810ae6b5,6.052000046,1,0,81,47,1,80
,,,,,,,,,,,,,,,,,,,,,,,,,,,,,,,,,,,,,,,,,,,,,,,,,,,154,mirall,Catalan,Sounds/cat_mirall.mp3,2020-06-05_16h12.11.676,TranslationElicitation_eng-prolific,3.2.4,MacIntel,60,5ed40c8f237b5d09810ae6b5,,1,0,81,47,1,80
,,,,,,,,,,,,,,,,,,,,,,,,,,,,,,,,,,,,,,,,,m,11.73600006,M,FALSE,,,,,,,107,amanida,Catalan,Sounds/cat_amanida.mp3,2020-06-05_16h12.11.676,TranslationElicitation_eng-prolific,3.2.4,MacIntel,60,5ed40c8f237b5d09810ae6b5,,1,0,81,3,1,80
,,,,,,,,,,,,,,,,,,,,,,,,,,,,,,,,,,,,,,,,,y,11.95200014,MY,FALSE,,,,,,,107,amanida,Catalan,Sounds/cat_amanida.mp3,2020-06-05_16h12.11.676,TranslationElicitation_eng-prolific,3.2.4,MacIntel,60,5ed40c8f237b5d09810ae6b5,,1,0,81,3,1,80
,,,,,,,,,,,,,,,,,,,,,,,,,,,,,,,,,,,,,,,,,space,12.16800022,MY ,FALSE,,,,,,,107,amanida,Catalan,Sounds/cat_amanida.mp3,2020-06-05_16h12.11.676,TranslationElicitation_eng-prolific,3.2.4,MacIntel,60,5ed40c8f237b5d09810ae6b5,,1,0,81,3,1,80
