consentKey.keys,consentKey.rt,languageL1Key.keys,languageL1Key.rt,languageL2,languageL2OralKey.keys,languageL2OralKey.rt,languageL2WrittenKey.keys,languageL2WrittenKey.rt,languageL3OralKey.keys,languageL3OralKey.rt,languageL3WrittenKey.keys,languageL3WrittenKey.rt,languageCatalanOralKey.keys,languageCatalanOralKey.rt,languageCatalanWrittenKey.keys,languageCatalanWrittenKey.rt,languageCatalanTimeKey.keys,languageCatalanTimeKey.rt,languageSpanishOralKey.keys,languageSpanishOralKey.rt,languageSpanishWrittenKey.keys,languageSpanishWrittenKey.rt,languageSpanishTimeKey.keys,languageSpanishTimeKey.rt,age,demoSexKey.keys,demoSexKey.rt,demoEducationKey.keys,demoEducationKey.rt,city,demoVisionKey.keys,demoVisionKey.rt,demoLanguageKey.keys,demoLanguageKey.rt,setupLocationKey.keys,setupLocationKey.rt,setupNoiseKey.keys,setupNoiseKey.rt,instructionsKeys.keys,instructionsKeys.rt,keyPressed,keyPressTime,inputText,error,trialsPracticeSpanish.thisRepN,trialsPracticeSpanish.thisTrialN,trialsPracticeSpanish.thisN,trialsPracticeSpanish.thisIndex,trialsPracticeSpanish.ran,trialsPracticeSpanish.order,trial_id,word,test_language,soundfile,date,expName,psychopyVersion,OS,frameRate,participant,trialOffset,trialsSpanish.thisRepN,trialsSpanish.thisTrialN,trialsSpanish.thisN,trialsSpanish.thisIndex,trialsSpanish.ran,trialsSpanish.order
space,0.513000011,e,1.59800005,,,,,,,,,,1,1.747999907,1,0.751000166,1,0.717999935,1,0.648999929,1,0.767999887,1,1.686000109,20,m,1.162999868,3,1.975000143,KETTERING,y,2.297999859,n,1.808000088,1,1.551000118,2,1.399999857,space,2.016000032,t,1.317000151,T,FALSE,1,0,5,4,1,4,96,tigre,Spanish,Sounds/spa_tigre.mp3,2020-06-24_18h56.21.943,TranslationElicitation_eng-prolific-spa,3.2.4,Win32,60,5ed8bf9551f146017b7ac03e,,,,,,,
,,,,,,,,,,,,,,,,,,,,,,,,,,,,,,,,,,,,,,,,,i,1.48300004,TI,FALSE,1,0,5,4,1,4,96,tigre,Spanish,Sounds/spa_tigre.mp3,2020-06-24_18h56.21.943,TranslationElicitation_eng-prolific-spa,3.2.4,Win32,60,5ed8bf9551f146017b7ac03e,,,,,,,
,,,,,,,,,,,,,,,,,,,,,,,,,,,,,,,,,,,,,,,,,g,1.517000198,TIG,FALSE,1,0,5,4,1,4,96,tigre,Spanish,Sounds/spa_tigre.mp3,2020-06-24_18h56.21.943,TranslationElicitation_eng-prolific-spa,3.2.4,Win32,60,5ed8bf9551f146017b7ac03e,,,,,,,
,,,,,,,,,,,,,,,,,,,,,,,,,,,,,,,,,,,,,,,,,e,1.617000103,TIGE,FALSE,1,0,5,4,1,4,96,tigre,Spanish,Sounds/spa_tigre.mp3,2020-06-24_18h56.21.943,TranslationElicitation_eng-prolific-spa,3.2.4,Win32,60,5ed8bf9551f146017b7ac03e,,,,,,,
,,,,,,,,,,,,,,,,,,,,,,,,,,,,,,,,,,,,,,,,,r,1.700000048,TIGER,FALSE,1,0,5,4,1,4,96,tigre,Spanish,Sounds/spa_tigre.mp3,2020-06-24_18h56.21.943,TranslationElicitation_eng-prolific-spa,3.2.4,Win32,60,5ed8bf9551f146017b7ac03e,,,,,,,
,,,,,,,,,,,,,,,,,,,,,,,,,,,,,,,,,,,,,,,,,return,1.817000151,TIGER,FALSE,1,0,5,4,1,4,96,tigre,Spanish,Sounds/spa_tigre.mp3,2020-06-24_18h56.21.943,TranslationElicitation_eng-prolific-spa,3.2.4,Win32,60,5ed8bf9551f146017b7ac03e,1.817000151,,,,,,
,,,,,,,,,,,,,,,,,,,,,,,,,,,,,,,,,,,,,,,,,,,,,1,0,5,4,1,4,96,tigre,Spanish,Sounds/spa_tigre.mp3,2020-06-24_18h56.21.943,TranslationElicitation_eng-prolific-spa,3.2.4,Win32,60,5ed8bf9551f146017b7ac03e,,,,,,,
,,,,,,,,,,,,,,,,,,,,,,,,,,,,,,,,,,,,,,,,,c,2.132999897,C,FALSE,1,0,5,2,1,4,26,chaqueta,Spanish,Sounds/spa_chaqueta.mp3,2020-06-24_18h56.21.943,TranslationElicitation_eng-prolific-spa,3.2.4,Win32,60,5ed8bf9551f146017b7ac03e,,,,,,,
,,,,,,,,,,,,,,,,,,,,,,,,,,,,,,,,,,,,,,,,,a,2.332999945,CA,FALSE,1,0,5,2,1,4,26,chaqueta,Spanish,Sounds/spa_chaqueta.mp3,2020-06-24_18h56.21.943,TranslationElicitation_eng-prolific-spa,3.2.4,Win32,60,5ed8bf9551f146017b7ac03e,,,,,,,
,,,,,,,,,,,,,,,,,,,,,,,,,,,,,,,,,,,,,,,,,backspace,2.649999857,C,TRUE,1,0,5,2,1,4,26,chaqueta,Spanish,Sounds/spa_chaqueta.mp3,2020-06-24_18h56.21.943,TranslationElicitation_eng-prolific-spa,3.2.4,Win32,60,5ed8bf9551f146017b7ac03e,,,,,,,
,,,,,,,,,,,,,,,,,,,,,,,,,,,,,,,,,,,,,,,,,h,2.799999952,CH,TRUE,1,0,5,2,1,4,26,chaqueta,Spanish,Sounds/spa_chaqueta.mp3,2020-06-24_18h56.21.943,TranslationElicitation_eng-prolific-spa,3.2.4,Win32,60,5ed8bf9551f146017b7ac03e,,,,,,,
,,,,,,,,,,,,,,,,,,,,,,,,,,,,,,,,,,,,,,,,,a,2.950000048,CHA,TRUE,1,0,5,2,1,4,26,chaqueta,Spanish,Sounds/spa_chaqueta.mp3,2020-06-24_18h56.21.943,TranslationElicitation_eng-prolific-spa,3.2.4,Win32,60,5ed8bf9551f146017b7ac03e,,,,,,,
,,,,,,,,,,,,,,,,,,,,,,,,,,,,,,,,,,,,,,,,,k,3.115999937,CHAK,TRUE,1,0,5,2,1,4,26,chaqueta,Spanish,Sounds/spa_chaqueta.mp3,2020-06-24_18h56.21.943,TranslationElicitation_eng-prolific-spa,3.2.4,Win32,60,5ed8bf9551f146017b7ac03e,,,,,,,
,,,,,,,,,,,,,,,,,,,,,,,,,,,,,,,,,,,,,,,,,r,3.266000032,CHAKR,TRUE,1,0,5,2,1,4,26,chaqueta,Spanish,Sounds/spa_chaqueta.mp3,2020-06-24_18h56.21.943,TranslationElicitation_eng-prolific-spa,3.2.4,Win32,60,5ed8bf9551f146017b7ac03e,,,,,,,
,,,,,,,,,,,,,,,,,,,,,,,,,,,,,,,,,,,,,,,,,a,3.332999945,CHAKRA,TRUE,1,0,5,2,1,4,26,chaqueta,Spanish,Sounds/spa_chaqueta.mp3,2020-06-24_18h56.21.943,TranslationElicitation_eng-prolific-spa,3.2.4,Win32,60,5ed8bf9551f146017b7ac03e,,,,,,,
,,,,,,,,,,,,,,,,,,,,,,,,,,,,,,,,,,,,,,,,,return,3.73300004,CHAKRA,TRUE,1,0,5,2,1,4,26,chaqueta,Spanish,Sounds/spa_chaqueta.mp3,2020-06-24_18h56.21.943,TranslationElicitation_eng-prolific-spa,3.2.4,Win32,60,5ed8bf9551f146017b7ac03e,3.73300004,,,,,,
,,,,,,,,,,,,,,,,,,,,,,,,,,,,,,,,,,,,,,,,,,,,,1,0,5,2,1,4,26,chaqueta,Spanish,Sounds/spa_chaqueta.mp3,2020-06-24_18h56.21.943,TranslationElicitation_eng-prolific-spa,3.2.4,Win32,60,5ed8bf9551f146017b7ac03e,,,,,,,
,,,,,,,,,,,,,,,,,,,,,,,,,,,,,,,,,,,,,,,,,h,5.849999905,H,FALSE,1,0,5,0,1,4,1,arbol,Spanish,Sounds/spa_arbol.mp3,2020-06-24_18h56.21.943,TranslationElicitation_eng-prolific-spa,3.2.4,Win32,60,5ed8bf9551f146017b7ac03e,,,,,,,
,,,,,,,,,,,,,,,,,,,,,,,,,,,,,,,,,,,,,,,,,a,6.015999794,HA,FALSE,1,0,5,0,1,4,1,arbol,Spanish,Sounds/spa_arbol.mp3,2020-06-24_18h56.21.943,TranslationElicitation_eng-prolific-spa,3.2.4,Win32,60,5ed8bf9551f146017b7ac03e,,,,,,,
,,,,,,,,,,,,,,,,,,,,,,,,,,,,,,,,,,,,,,,,,r,6.115999937,HAR,FALSE,1,0,5,0,1,4,1,arbol,Spanish,Sounds/spa_arbol.mp3,2020-06-24_18h56.21.943,TranslationElicitation_eng-prolific-spa,3.2.4,Win32,60,5ed8bf9551f146017b7ac03e,,,,,,,
,,,,,,,,,,,,,,,,,,,,,,,,,,,,,,,,,,,,,,,,,d,6.282999992,HARD,FALSE,1,0,5,0,1,4,1,arbol,Spanish,Sounds/spa_arbol.mp3,2020-06-24_18h56.21.943,TranslationElicitation_eng-prolific-spa,3.2.4,Win32,60,5ed8bf9551f146017b7ac03e,,,,,,,
,,,,,,,,,,,,,,,,,,,,,,,,,,,,,,,,,,,,,,,,,space,6.415999889,HARD ,FALSE,1,0,5,0,1,4,1,arbol,Spanish,Sounds/spa_arbol.mp3,2020-06-24_18h56.21.943,TranslationElicitation_eng-prolific-spa,3.2.4,Win32,60,5ed8bf9551f146017b7ac03e,,,,,,,
,,,,,,,,,,,,,,,,,,,,,,,,,,,,,,,,,,,,,,,,,w,6.432999849,HARD W,FALSE,1,0,5,0,1,4,1,arbol,Spanish,Sounds/spa_arbol.mp3,2020-06-24_18h56.21.943,TranslationElicitation_eng-prolific-spa,3.2.4,Win32,60,5ed8bf9551f146017b7ac03e,,,,,,,
,,,,,,,,,,,,,,,,,,,,,,,,,,,,,,,,,,,,,,,,,a,6.5,HARD WA,FALSE,1,0,5,0,1,4,1,arbol,Spanish,Sounds/spa_arbol.mp3,2020-06-24_18h56.21.943,TranslationElicitation_eng-prolific-spa,3.2.4,Win32,60,5ed8bf9551f146017b7ac03e,,,,,,,
,,,,,,,,,,,,,,,,,,,,,,,,,,,,,,,,,,,,,,,,,l,6.565999985,HARD WAL,FALSE,1,0,5,0,1,4,1,arbol,Spanish,Sounds/spa_arbol.mp3,2020-06-24_18h56.21.943,TranslationElicitation_eng-prolific-spa,3.2.4,Win32,60,5ed8bf9551f146017b7ac03e,,,,,,,
,,,,,,,,,,,,,,,,,,,,,,,,,,,,,,,,,,,,,,,,,l,6.699999809,HARD WALL,FALSE,1,0,5,0,1,4,1,arbol,Spanish,Sounds/spa_arbol.mp3,2020-06-24_18h56.21.943,TranslationElicitation_eng-prolific-spa,3.2.4,Win32,60,5ed8bf9551f146017b7ac03e,,,,,,,
,,,,,,,,,,,,,,,,,,,,,,,,,,,,,,,,,,,,,,,,,return,6.982999802,HARD WALL,FALSE,1,0,5,0,1,4,1,arbol,Spanish,Sounds/spa_arbol.mp3,2020-06-24_18h56.21.943,TranslationElicitation_eng-prolific-spa,3.2.4,Win32,60,5ed8bf9551f146017b7ac03e,6.982999802,,,,,,
,,,,,,,,,,,,,,,,,,,,,,,,,,,,,,,,,,,,,,,,,,,,,1,0,5,0,1,4,1,arbol,Spanish,Sounds/spa_arbol.mp3,2020-06-24_18h56.21.943,TranslationElicitation_eng-prolific-spa,3.2.4,Win32,60,5ed8bf9551f146017b7ac03e,,,,,,,
,,,,,,,,,,,,,,,,,,,,,,,,,,,,,,,,,,,,,,,,,h,1.231999874,H,FALSE,1,0,5,3,1,4,70,ola,Spanish,Sounds/spa_ola.mp3,2020-06-24_18h56.21.943,TranslationElicitation_eng-prolific-spa,3.2.4,Win32,60,5ed8bf9551f146017b7ac03e,,,,,,,
,,,,,,,,,,,,,,,,,,,,,,,,,,,,,,,,,,,,,,,,,e,1.332000017,HE,FALSE,1,0,5,3,1,4,70,ola,Spanish,Sounds/spa_ola.mp3,2020-06-24_18h56.21.943,TranslationElicitation_eng-prolific-spa,3.2.4,Win32,60,5ed8bf9551f146017b7ac03e,,,,,,,
,,,,,,,,,,,,,,,,,,,,,,,,,,,,,,,,,,,,,,,,,l,1.465999842,HEL,FALSE,1,0,5,3,1,4,70,ola,Spanish,Sounds/spa_ola.mp3,2020-06-24_18h56.21.943,TranslationElicitation_eng-prolific-spa,3.2.4,Win32,60,5ed8bf9551f146017b7ac03e,,,,,,,
,,,,,,,,,,,,,,,,,,,,,,,,,,,,,,,,,,,,,,,,,l,1.582000017,HELL,FALSE,1,0,5,3,1,4,70,ola,Spanish,Sounds/spa_ola.mp3,2020-06-24_18h56.21.943,TranslationElicitation_eng-prolific-spa,3.2.4,Win32,60,5ed8bf9551f146017b7ac03e,,,,,,,
,,,,,,,,,,,,,,,,,,,,,,,,,,,,,,,,,,,,,,,,,o,1.748999834,HELLO,FALSE,1,0,5,3,1,4,70,ola,Spanish,Sounds/spa_ola.mp3,2020-06-24_18h56.21.943,TranslationElicitation_eng-prolific-spa,3.2.4,Win32,60,5ed8bf9551f146017b7ac03e,,,,,,,
,,,,,,,,,,,,,,,,,,,,,,,,,,,,,,,,,,,,,,,,,return,1.915999889,HELLO,FALSE,1,0,5,3,1,4,70,ola,Spanish,Sounds/spa_ola.mp3,2020-06-24_18h56.21.943,TranslationElicitation_eng-prolific-spa,3.2.4,Win32,60,5ed8bf9551f146017b7ac03e,1.915999889,,,,,,
,,,,,,,,,,,,,,,,,,,,,,,,,,,,,,,,,,,,,,,,,,,,,1,0,5,3,1,4,70,ola,Spanish,Sounds/spa_ola.mp3,2020-06-24_18h56.21.943,TranslationElicitation_eng-prolific-spa,3.2.4,Win32,60,5ed8bf9551f146017b7ac03e,,,,,,,
,,,,,,,,,,,,,,,,,,,,,,,,,,,,,,,,,,,,,,,,,o,1.450000048,O,FALSE,1,0,5,1,1,4,30,corona,Spanish,Sounds/spa_corona.mp3,2020-06-24_18h56.21.943,TranslationElicitation_eng-prolific-spa,3.2.4,Win32,60,5ed8bf9551f146017b7ac03e,,,,,,,
,,,,,,,,,,,,,,,,,,,,,,,,,,,,,,,,,,,,,,,,,backspace,2.032999992,,TRUE,1,0,5,1,1,4,30,corona,Spanish,Sounds/spa_corona.mp3,2020-06-24_18h56.21.943,TranslationElicitation_eng-prolific-spa,3.2.4,Win32,60,5ed8bf9551f146017b7ac03e,,,,,,,
,,,,,,,,,,,,,,,,,,,,,,,,,,,,,,,,,,,,,,,,,c,2.150000095,C,TRUE,1,0,5,1,1,4,30,corona,Spanish,Sounds/spa_corona.mp3,2020-06-24_18h56.21.943,TranslationElicitation_eng-prolific-spa,3.2.4,Win32,60,5ed8bf9551f146017b7ac03e,,,,,,,
,,,,,,,,,,,,,,,,,,,,,,,,,,,,,,,,,,,,,,,,,o,2.282999992,CO,TRUE,1,0,5,1,1,4,30,corona,Spanish,Sounds/spa_corona.mp3,2020-06-24_18h56.21.943,TranslationElicitation_eng-prolific-spa,3.2.4,Win32,60,5ed8bf9551f146017b7ac03e,,,,,,,
,,,,,,,,,,,,,,,,,,,,,,,,,,,,,,,,,,,,,,,,,r,2.400000095,COR,TRUE,1,0,5,1,1,4,30,corona,Spanish,Sounds/spa_corona.mp3,2020-06-24_18h56.21.943,TranslationElicitation_eng-prolific-spa,3.2.4,Win32,60,5ed8bf9551f146017b7ac03e,,,,,,,
,,,,,,,,,,,,,,,,,,,,,,,,,,,,,,,,,,,,,,,,,o,2.565999985,CORO,TRUE,1,0,5,1,1,4,30,corona,Spanish,Sounds/spa_corona.mp3,2020-06-24_18h56.21.943,TranslationElicitation_eng-prolific-spa,3.2.4,Win32,60,5ed8bf9551f146017b7ac03e,,,,,,,
,,,,,,,,,,,,,,,,,,,,,,,,,,,,,,,,,,,,,,,,,n,2.683000088,CORON,TRUE,1,0,5,1,1,4,30,corona,Spanish,Sounds/spa_corona.mp3,2020-06-24_18h56.21.943,TranslationElicitation_eng-prolific-spa,3.2.4,Win32,60,5ed8bf9551f146017b7ac03e,,,,,,,
,,,,,,,,,,,,,,,,,,,,,,,,,,,,,,,,,,,,,,,,,a,2.832999945,CORONA,TRUE,1,0,5,1,1,4,30,corona,Spanish,Sounds/spa_corona.mp3,2020-06-24_18h56.21.943,TranslationElicitation_eng-prolific-spa,3.2.4,Win32,60,5ed8bf9551f146017b7ac03e,,,,,,,
,,,,,,,,,,,,,,,,,,,,,,,,,,,,,,,,,,,,,,,,,return,3.282999992,CORONA,TRUE,1,0,5,1,1,4,30,corona,Spanish,Sounds/spa_corona.mp3,2020-06-24_18h56.21.943,TranslationElicitation_eng-prolific-spa,3.2.4,Win32,60,5ed8bf9551f146017b7ac03e,3.282999992,,,,,,
,,,,,,,,,,,,,,,,,,,,,,,,,,,,,,,,,,,,,,,,,,,,,1,0,5,1,1,4,30,corona,Spanish,Sounds/spa_corona.mp3,2020-06-24_18h56.21.943,TranslationElicitation_eng-prolific-spa,3.2.4,Win32,60,5ed8bf9551f146017b7ac03e,,,,,,,
,,,,,,,,,,,,,,,,,,,,,,,,,,,,,,,,,,,,,,,,,p,1.299999952,P,FALSE,,,,,,,87,platano,Spanish,Sounds/spa_platano.mp3,2020-06-24_18h56.21.943,TranslationElicitation_eng-prolific-spa,3.2.4,Win32,60,5ed8bf9551f146017b7ac03e,,1,0,98,82,1,97
,,,,,,,,,,,,,,,,,,,,,,,,,,,,,,,,,,,,,,,,,l,1.382999897,PL,FALSE,,,,,,,87,platano,Spanish,Sounds/spa_platano.mp3,2020-06-24_18h56.21.943,TranslationElicitation_eng-prolific-spa,3.2.4,Win32,60,5ed8bf9551f146017b7ac03e,,1,0,98,82,1,97
,,,,,,,,,,,,,,,,,,,,,,,,,,,,,,,,,,,,,,,,,a,1.51699996,PLA,FALSE,,,,,,,87,platano,Spanish,Sounds/spa_platano.mp3,2020-06-24_18h56.21.943,TranslationElicitation_eng-prolific-spa,3.2.4,Win32,60,5ed8bf9551f146017b7ac03e,,1,0,98,82,1,97
,,,,,,,,,,,,,,,,,,,,,,,,,,,,,,,,,,,,,,,,,t,1.684000015,PLAT,FALSE,,,,,,,87,platano,Spanish,Sounds/spa_platano.mp3,2020-06-24_18h56.21.943,TranslationElicitation_eng-prolific-spa,3.2.4,Win32,60,5ed8bf9551f146017b7ac03e,,1,0,98,82,1,97
,,,,,,,,,,,,,,,,,,,,,,,,,,,,,,,,,,,,,,,,,i,1.799999952,PLATI,FALSE,,,,,,,87,platano,Spanish,Sounds/spa_platano.mp3,2020-06-24_18h56.21.943,TranslationElicitation_eng-prolific-spa,3.2.4,Win32,60,5ed8bf9551f146017b7ac03e,,1,0,98,82,1,97
,,,,,,,,,,,,,,,,,,,,,,,,,,,,,,,,,,,,,,,,,n,1.882999897,PLATIN,FALSE,,,,,,,87,platano,Spanish,Sounds/spa_platano.mp3,2020-06-24_18h56.21.943,TranslationElicitation_eng-prolific-spa,3.2.4,Win32,60,5ed8bf9551f146017b7ac03e,,1,0,98,82,1,97
,,,,,,,,,,,,,,,,,,,,,,,,,,,,,,,,,,,,,,,,,u,2.01699996,PLATINU,FALSE,,,,,,,87,platano,Spanish,Sounds/spa_platano.mp3,2020-06-24_18h56.21.943,TranslationElicitation_eng-prolific-spa,3.2.4,Win32,60,5ed8bf9551f146017b7ac03e,,1,0,98,82,1,97
,,,,,,,,,,,,,,,,,,,,,,,,,,,,,,,,,,,,,,,,,m,2.116999865,PLATINUM,FALSE,,,,,,,87,platano,Spanish,Sounds/spa_platano.mp3,2020-06-24_18h56.21.943,TranslationElicitation_eng-prolific-spa,3.2.4,Win32,60,5ed8bf9551f146017b7ac03e,,1,0,98,82,1,97
,,,,,,,,,,,,,,,,,,,,,,,,,,,,,,,,,,,,,,,,,return,2.601999998,PLATINUM,FALSE,,,,,,,87,platano,Spanish,Sounds/spa_platano.mp3,2020-06-24_18h56.21.943,TranslationElicitation_eng-prolific-spa,3.2.4,Win32,60,5ed8bf9551f146017b7ac03e,2.601999998,1,0,98,82,1,97
,,,,,,,,,,,,,,,,,,,,,,,,,,,,,,,,,,,,,,,,,,,,,,,,,,,87,platano,Spanish,Sounds/spa_platano.mp3,2020-06-24_18h56.21.943,TranslationElicitation_eng-prolific-spa,3.2.4,Win32,60,5ed8bf9551f146017b7ac03e,,1,0,98,82,1,97
,,,,,,,,,,,,,,,,,,,,,,,,,,,,,,,,,,,,,,,,,l,1.25,L,FALSE,,,,,,,51,ladrillo,Spanish,Sounds/spa_ladrillo.mp3,2020-06-24_18h56.21.943,TranslationElicitation_eng-prolific-spa,3.2.4,Win32,60,5ed8bf9551f146017b7ac03e,,1,0,98,47,1,97
,,,,,,,,,,,,,,,,,,,,,,,,,,,,,,,,,,,,,,,,,a,1.317000151,LA,FALSE,,,,,,,51,ladrillo,Spanish,Sounds/spa_ladrillo.mp3,2020-06-24_18h56.21.943,TranslationElicitation_eng-prolific-spa,3.2.4,Win32,60,5ed8bf9551f146017b7ac03e,,1,0,98,47,1,97
,,,,,,,,,,,,,,,,,,,,,,,,,,,,,,,,,,,,,,,,,v,1.417000055,LAV,FALSE,,,,,,,51,ladrillo,Spanish,Sounds/spa_ladrillo.mp3,2020-06-24_18h56.21.943,TranslationElicitation_eng-prolific-spa,3.2.4,Win32,60,5ed8bf9551f146017b7ac03e,,1,0,98,47,1,97
,,,,,,,,,,,,,,,,,,,,,,,,,,,,,,,,,,,,,,,,,e,1.51699996,LAVE,FALSE,,,,,,,51,ladrillo,Spanish,Sounds/spa_ladrillo.mp3,2020-06-24_18h56.21.943,TranslationElicitation_eng-prolific-spa,3.2.4,Win32,60,5ed8bf9551f146017b7ac03e,,1,0,98,47,1,97
,,,,,,,,,,,,,,,,,,,,,,,,,,,,,,,,,,,,,,,,,n,1.650000095,LAVEN,FALSE,,,,,,,51,ladrillo,Spanish,Sounds/spa_ladrillo.mp3,2020-06-24_18h56.21.943,TranslationElicitation_eng-prolific-spa,3.2.4,Win32,60,5ed8bf9551f146017b7ac03e,,1,0,98,47,1,97
,,,,,,,,,,,,,,,,,,,,,,,,,,,,,,,,,,,,,,,,,d,1.700000048,LAVEND,FALSE,,,,,,,51,ladrillo,Spanish,Sounds/spa_ladrillo.mp3,2020-06-24_18h56.21.943,TranslationElicitation_eng-prolific-spa,3.2.4,Win32,60,5ed8bf9551f146017b7ac03e,,1,0,98,47,1,97
,,,,,,,,,,,,,,,,,,,,,,,,,,,,,,,,,,,,,,,,,a,1.850000143,LAVENDA,FALSE,,,,,,,51,ladrillo,Spanish,Sounds/spa_ladrillo.mp3,2020-06-24_18h56.21.943,TranslationElicitation_eng-prolific-spa,3.2.4,Win32,60,5ed8bf9551f146017b7ac03e,,1,0,98,47,1,97
,,,,,,,,,,,,,,,,,,,,,,,,,,,,,,,,,,,,,,,,,r,1.967000008,LAVENDAR,FALSE,,,,,,,51,ladrillo,Spanish,Sounds/spa_ladrillo.mp3,2020-06-24_18h56.21.943,TranslationElicitation_eng-prolific-spa,3.2.4,Win32,60,5ed8bf9551f146017b7ac03e,,1,0,98,47,1,97
,,,,,,,,,,,,,,,,,,,,,,,,,,,,,,,,,,,,,,,,,backspace,2.450000048,LAVENDA,TRUE,,,,,,,51,ladrillo,Spanish,Sounds/spa_ladrillo.mp3,2020-06-24_18h56.21.943,TranslationElicitation_eng-prolific-spa,3.2.4,Win32,60,5ed8bf9551f146017b7ac03e,,1,0,98,47,1,97
,,,,,,,,,,,,,,,,,,,,,,,,,,,,,,,,,,,,,,,,,backspace,2.582999945,LAVEND,TRUE,,,,,,,51,ladrillo,Spanish,Sounds/spa_ladrillo.mp3,2020-06-24_18h56.21.943,TranslationElicitation_eng-prolific-spa,3.2.4,Win32,60,5ed8bf9551f146017b7ac03e,,1,0,98,47,1,97
,,,,,,,,,,,,,,,,,,,,,,,,,,,,,,,,,,,,,,,,,e,2.633000135,LAVENDE,TRUE,,,,,,,51,ladrillo,Spanish,Sounds/spa_ladrillo.mp3,2020-06-24_18h56.21.943,TranslationElicitation_eng-prolific-spa,3.2.4,Win32,60,5ed8bf9551f146017b7ac03e,,1,0,98,47,1,97
,,,,,,,,,,,,,,,,,,,,,,,,,,,,,,,,,,,,,,,,,r,2.683000088,LAVENDER,TRUE,,,,,,,51,ladrillo,Spanish,Sounds/spa_ladrillo.mp3,2020-06-24_18h56.21.943,TranslationElicitation_eng-prolific-spa,3.2.4,Win32,60,5ed8bf9551f146017b7ac03e,,1,0,98,47,1,97
,,,,,,,,,,,,,,,,,,,,,,,,,,,,,,,,,,,,,,,,,return,3.450000048,LAVENDER,TRUE,,,,,,,51,ladrillo,Spanish,Sounds/spa_ladrillo.mp3,2020-06-24_18h56.21.943,TranslationElicitation_eng-prolific-spa,3.2.4,Win32,60,5ed8bf9551f146017b7ac03e,3.450000048,1,0,98,47,1,97
,,,,,,,,,,,,,,,,,,,,,,,,,,,,,,,,,,,,,,,,,,,,,,,,,,,51,ladrillo,Spanish,Sounds/spa_ladrillo.mp3,2020-06-24_18h56.21.943,TranslationElicitation_eng-prolific-spa,3.2.4,Win32,60,5ed8bf9551f146017b7ac03e,,1,0,98,47,1,97
,,,,,,,,,,,,,,,,,,,,,,,,,,,,,,,,,,,,,,,,,c,4.667000055,C,FALSE,,,,,,,20,caracol,Spanish,Sounds/spa_caracol.mp3,2020-06-24_18h56.21.943,TranslationElicitation_eng-prolific-spa,3.2.4,Win32,60,5ed8bf9551f146017b7ac03e,,1,0,98,18,1,97
,,,,,,,,,,,,,,,,,,,,,,,,,,,,,,,,,,,,,,,,,a,4.76699996,CA,FALSE,,,,,,,20,caracol,Spanish,Sounds/spa_caracol.mp3,2020-06-24_18h56.21.943,TranslationElicitation_eng-prolific-spa,3.2.4,Win32,60,5ed8bf9551f146017b7ac03e,,1,0,98,18,1,97
,,,,,,,,,,,,,,,,,,,,,,,,,,,,,,,,,,,,,,,,,r,4.884000063,CAR,FALSE,,,,,,,20,caracol,Spanish,Sounds/spa_caracol.mp3,2020-06-24_18h56.21.943,TranslationElicitation_eng-prolific-spa,3.2.4,Win32,60,5ed8bf9551f146017b7ac03e,,1,0,98,18,1,97
,,,,,,,,,,,,,,,,,,,,,,,,,,,,,,,,,,,,,,,,,r,5.032999992,CARR,FALSE,,,,,,,20,caracol,Spanish,Sounds/spa_caracol.mp3,2020-06-24_18h56.21.943,TranslationElicitation_eng-prolific-spa,3.2.4,Win32,60,5ed8bf9551f146017b7ac03e,,1,0,98,18,1,97
,,,,,,,,,,,,,,,,,,,,,,,,,,,,,,,,,,,,,,,,,o,5.117000103,CARRO,FALSE,,,,,,,20,caracol,Spanish,Sounds/spa_caracol.mp3,2020-06-24_18h56.21.943,TranslationElicitation_eng-prolific-spa,3.2.4,Win32,60,5ed8bf9551f146017b7ac03e,,1,0,98,18,1,97
,,,,,,,,,,,,,,,,,,,,,,,,,,,,,,,,,,,,,,,,,t,5.200000048,CARROT,FALSE,,,,,,,20,caracol,Spanish,Sounds/spa_caracol.mp3,2020-06-24_18h56.21.943,TranslationElicitation_eng-prolific-spa,3.2.4,Win32,60,5ed8bf9551f146017b7ac03e,,1,0,98,18,1,97
,,,,,,,,,,,,,,,,,,,,,,,,,,,,,,,,,,,,,,,,,return,5.316999912,CARROT,FALSE,,,,,,,20,caracol,Spanish,Sounds/spa_caracol.mp3,2020-06-24_18h56.21.943,TranslationElicitation_eng-prolific-spa,3.2.4,Win32,60,5ed8bf9551f146017b7ac03e,5.316999912,1,0,98,18,1,97
,,,,,,,,,,,,,,,,,,,,,,,,,,,,,,,,,,,,,,,,,,,,,,,,,,,20,caracol,Spanish,Sounds/spa_caracol.mp3,2020-06-24_18h56.21.943,TranslationElicitation_eng-prolific-spa,3.2.4,Win32,60,5ed8bf9551f146017b7ac03e,,1,0,98,18,1,97
,,,,,,,,,,,,,,,,,,,,,,,,,,,,,,,,,,,,,,,,,g,1.367000103,G,FALSE,,,,,,,42,gato,Spanish,Sounds/spa_gato.mp3,2020-06-24_18h56.21.943,TranslationElicitation_eng-prolific-spa,3.2.4,Win32,60,5ed8bf9551f146017b7ac03e,,1,0,98,38,1,97
,,,,,,,,,,,,,,,,,,,,,,,,,,,,,,,,,,,,,,,,,a,1.467000008,GA,FALSE,,,,,,,42,gato,Spanish,Sounds/spa_gato.mp3,2020-06-24_18h56.21.943,TranslationElicitation_eng-prolific-spa,3.2.4,Win32,60,5ed8bf9551f146017b7ac03e,,1,0,98,38,1,97
,,,,,,,,,,,,,,,,,,,,,,,,,,,,,,,,,,,,,,,,,t,1.583000183,GAT,FALSE,,,,,,,42,gato,Spanish,Sounds/spa_gato.mp3,2020-06-24_18h56.21.943,TranslationElicitation_eng-prolific-spa,3.2.4,Win32,60,5ed8bf9551f146017b7ac03e,,1,0,98,38,1,97
,,,,,,,,,,,,,,,,,,,,,,,,,,,,,,,,,,,,,,,,,e,1.650000095,GATE,FALSE,,,,,,,42,gato,Spanish,Sounds/spa_gato.mp3,2020-06-24_18h56.21.943,TranslationElicitation_eng-prolific-spa,3.2.4,Win32,60,5ed8bf9551f146017b7ac03e,,1,0,98,38,1,97
,,,,,,,,,,,,,,,,,,,,,,,,,,,,,,,,,,,,,,,,,return,1.817000151,GATE,FALSE,,,,,,,42,gato,Spanish,Sounds/spa_gato.mp3,2020-06-24_18h56.21.943,TranslationElicitation_eng-prolific-spa,3.2.4,Win32,60,5ed8bf9551f146017b7ac03e,1.817000151,1,0,98,38,1,97
,,,,,,,,,,,,,,,,,,,,,,,,,,,,,,,,,,,,,,,,,,,,,,,,,,,42,gato,Spanish,Sounds/spa_gato.mp3,2020-06-24_18h56.21.943,TranslationElicitation_eng-prolific-spa,3.2.4,Win32,60,5ed8bf9551f146017b7ac03e,,1,0,98,38,1,97
,,,,,,,,,,,,,,,,,,,,,,,,,,,,,,,,,,,,,,,,,b,1.915999889,B,FALSE,,,,,,,11,boton,Spanish,Sounds/spa_boton.mp3,2020-06-24_18h56.21.943,TranslationElicitation_eng-prolific-spa,3.2.4,Win32,60,5ed8bf9551f146017b7ac03e,,1,0,98,9,1,97
,,,,,,,,,,,,,,,,,,,,,,,,,,,,,,,,,,,,,,,,,u,2.082999945,BU,FALSE,,,,,,,11,boton,Spanish,Sounds/spa_boton.mp3,2020-06-24_18h56.21.943,TranslationElicitation_eng-prolific-spa,3.2.4,Win32,60,5ed8bf9551f146017b7ac03e,,1,0,98,9,1,97
,,,,,,,,,,,,,,,,,,,,,,,,,,,,,,,,,,,,,,,,,t,2.200000048,BUT,FALSE,,,,,,,11,boton,Spanish,Sounds/spa_boton.mp3,2020-06-24_18h56.21.943,TranslationElicitation_eng-prolific-spa,3.2.4,Win32,60,5ed8bf9551f146017b7ac03e,,1,0,98,9,1,97
,,,,,,,,,,,,,,,,,,,,,,,,,,,,,,,,,,,,,,,,,t,2.332999945,BUTT,FALSE,,,,,,,11,boton,Spanish,Sounds/spa_boton.mp3,2020-06-24_18h56.21.943,TranslationElicitation_eng-prolific-spa,3.2.4,Win32,60,5ed8bf9551f146017b7ac03e,,1,0,98,9,1,97
,,,,,,,,,,,,,,,,,,,,,,,,,,,,,,,,,,,,,,,,,o,2.432999849,BUTTO,FALSE,,,,,,,11,boton,Spanish,Sounds/spa_boton.mp3,2020-06-24_18h56.21.943,TranslationElicitation_eng-prolific-spa,3.2.4,Win32,60,5ed8bf9551f146017b7ac03e,,1,0,98,9,1,97
,,,,,,,,,,,,,,,,,,,,,,,,,,,,,,,,,,,,,,,,,n,2.532999992,BUTTON,FALSE,,,,,,,11,boton,Spanish,Sounds/spa_boton.mp3,2020-06-24_18h56.21.943,TranslationElicitation_eng-prolific-spa,3.2.4,Win32,60,5ed8bf9551f146017b7ac03e,,1,0,98,9,1,97
,,,,,,,,,,,,,,,,,,,,,,,,,,,,,,,,,,,,,,,,,return,2.73300004,BUTTON,FALSE,,,,,,,11,boton,Spanish,Sounds/spa_boton.mp3,2020-06-24_18h56.21.943,TranslationElicitation_eng-prolific-spa,3.2.4,Win32,60,5ed8bf9551f146017b7ac03e,2.73300004,1,0,98,9,1,97
,,,,,,,,,,,,,,,,,,,,,,,,,,,,,,,,,,,,,,,,,,,,,,,,,,,11,boton,Spanish,Sounds/spa_boton.mp3,2020-06-24_18h56.21.943,TranslationElicitation_eng-prolific-spa,3.2.4,Win32,60,5ed8bf9551f146017b7ac03e,,1,0,98,9,1,97
,,,,,,,,,,,,,,,,,,,,,,,,,,,,,,,,,,,,,,,,,g,2.232999802,G,FALSE,,,,,,,39,gafas,Spanish,Sounds/spa_gafas.mp3,2020-06-24_18h56.21.943,TranslationElicitation_eng-prolific-spa,3.2.4,Win32,60,5ed8bf9551f146017b7ac03e,,1,0,98,35,1,97
,,,,,,,,,,,,,,,,,,,,,,,,,,,,,,,,,,,,,,,,,i,2.366999865,GI,FALSE,,,,,,,39,gafas,Spanish,Sounds/spa_gafas.mp3,2020-06-24_18h56.21.943,TranslationElicitation_eng-prolific-spa,3.2.4,Win32,60,5ed8bf9551f146017b7ac03e,,1,0,98,35,1,97
,,,,,,,,,,,,,,,,,,,,,,,,,,,,,,,,,,,,,,,,,r,2.482999802,GIR,FALSE,,,,,,,39,gafas,Spanish,Sounds/spa_gafas.mp3,2020-06-24_18h56.21.943,TranslationElicitation_eng-prolific-spa,3.2.4,Win32,60,5ed8bf9551f146017b7ac03e,,1,0,98,35,1,97
,,,,,,,,,,,,,,,,,,,,,,,,,,,,,,,,,,,,,,,,,a,2.599999905,GIRA,FALSE,,,,,,,39,gafas,Spanish,Sounds/spa_gafas.mp3,2020-06-24_18h56.21.943,TranslationElicitation_eng-prolific-spa,3.2.4,Win32,60,5ed8bf9551f146017b7ac03e,,1,0,98,35,1,97
,,,,,,,,,,,,,,,,,,,,,,,,,,,,,,,,,,,,,,,,,f,2.699999809,GIRAF,FALSE,,,,,,,39,gafas,Spanish,Sounds/spa_gafas.mp3,2020-06-24_18h56.21.943,TranslationElicitation_eng-prolific-spa,3.2.4,Win32,60,5ed8bf9551f146017b7ac03e,,1,0,98,35,1,97
,,,,,,,,,,,,,,,,,,,,,,,,,,,,,,,,,,,,,,,,,f,2.832999945,GIRAFF,FALSE,,,,,,,39,gafas,Spanish,Sounds/spa_gafas.mp3,2020-06-24_18h56.21.943,TranslationElicitation_eng-prolific-spa,3.2.4,Win32,60,5ed8bf9551f146017b7ac03e,,1,0,98,35,1,97
,,,,,,,,,,,,,,,,,,,,,,,,,,,,,,,,,,,,,,,,,e,2.916999817,GIRAFFE,FALSE,,,,,,,39,gafas,Spanish,Sounds/spa_gafas.mp3,2020-06-24_18h56.21.943,TranslationElicitation_eng-prolific-spa,3.2.4,Win32,60,5ed8bf9551f146017b7ac03e,,1,0,98,35,1,97
,,,,,,,,,,,,,,,,,,,,,,,,,,,,,,,,,,,,,,,,,s,3.099999905,GIRAFFES,FALSE,,,,,,,39,gafas,Spanish,Sounds/spa_gafas.mp3,2020-06-24_18h56.21.943,TranslationElicitation_eng-prolific-spa,3.2.4,Win32,60,5ed8bf9551f146017b7ac03e,,1,0,98,35,1,97
,,,,,,,,,,,,,,,,,,,,,,,,,,,,,,,,,,,,,,,,,backspace,3.732999802,GIRAFFE,TRUE,,,,,,,39,gafas,Spanish,Sounds/spa_gafas.mp3,2020-06-24_18h56.21.943,TranslationElicitation_eng-prolific-spa,3.2.4,Win32,60,5ed8bf9551f146017b7ac03e,,1,0,98,35,1,97
,,,,,,,,,,,,,,,,,,,,,,,,,,,,,,,,,,,,,,,,,return,4.049999952,GIRAFFE,TRUE,,,,,,,39,gafas,Spanish,Sounds/spa_gafas.mp3,2020-06-24_18h56.21.943,TranslationElicitation_eng-prolific-spa,3.2.4,Win32,60,5ed8bf9551f146017b7ac03e,4.049999952,1,0,98,35,1,97
,,,,,,,,,,,,,,,,,,,,,,,,,,,,,,,,,,,,,,,,,,,,,,,,,,,39,gafas,Spanish,Sounds/spa_gafas.mp3,2020-06-24_18h56.21.943,TranslationElicitation_eng-prolific-spa,3.2.4,Win32,60,5ed8bf9551f146017b7ac03e,,1,0,98,35,1,97
,,,,,,,,,,,,,,,,,,,,,,,,,,,,,,,,,,,,,,,,,m,1.632999897,M,FALSE,,,,,,,63,mesa,Spanish,Sounds/spa_mesa.mp3,2020-06-24_18h56.21.943,TranslationElicitation_eng-prolific-spa,3.2.4,Win32,60,5ed8bf9551f146017b7ac03e,,1,0,98,59,1,97
,,,,,,,,,,,,,,,,,,,,,,,,,,,,,,,,,,,,,,,,,e,1.684000015,ME,FALSE,,,,,,,63,mesa,Spanish,Sounds/spa_mesa.mp3,2020-06-24_18h56.21.943,TranslationElicitation_eng-prolific-spa,3.2.4,Win32,60,5ed8bf9551f146017b7ac03e,,1,0,98,59,1,97
,,,,,,,,,,,,,,,,,,,,,,,,,,,,,,,,,,,,,,,,,s,1.782999992,MES,FALSE,,,,,,,63,mesa,Spanish,Sounds/spa_mesa.mp3,2020-06-24_18h56.21.943,TranslationElicitation_eng-prolific-spa,3.2.4,Win32,60,5ed8bf9551f146017b7ac03e,,1,0,98,59,1,97
,,,,,,,,,,,,,,,,,,,,,,,,,,,,,,,,,,,,,,,,,s,1.950000048,MESS,FALSE,,,,,,,63,mesa,Spanish,Sounds/spa_mesa.mp3,2020-06-24_18h56.21.943,TranslationElicitation_eng-prolific-spa,3.2.4,Win32,60,5ed8bf9551f146017b7ac03e,,1,0,98,59,1,97
,,,,,,,,,,,,,,,,,,,,,,,,,,,,,,,,,,,,,,,,,return,2.182999849,MESS,FALSE,,,,,,,63,mesa,Spanish,Sounds/spa_mesa.mp3,2020-06-24_18h56.21.943,TranslationElicitation_eng-prolific-spa,3.2.4,Win32,60,5ed8bf9551f146017b7ac03e,2.182999849,1,0,98,59,1,97
,,,,,,,,,,,,,,,,,,,,,,,,,,,,,,,,,,,,,,,,,,,,,,,,,,,63,mesa,Spanish,Sounds/spa_mesa.mp3,2020-06-24_18h56.21.943,TranslationElicitation_eng-prolific-spa,3.2.4,Win32,60,5ed8bf9551f146017b7ac03e,,1,0,98,59,1,97
,,,,,,,,,,,,,,,,,,,,,,,,,,,,,,,,,,,,,,,,,b,1.948999882,B,FALSE,,,,,,,90,pollo,Spanish,Sounds/spa_pollo.mp3,2020-06-24_18h56.21.943,TranslationElicitation_eng-prolific-spa,3.2.4,Win32,60,5ed8bf9551f146017b7ac03e,,1,0,98,85,1,97
,,,,,,,,,,,,,,,,,,,,,,,,,,,,,,,,,,,,,,,,,o,2.198999882,BO,FALSE,,,,,,,90,pollo,Spanish,Sounds/spa_pollo.mp3,2020-06-24_18h56.21.943,TranslationElicitation_eng-prolific-spa,3.2.4,Win32,60,5ed8bf9551f146017b7ac03e,,1,0,98,85,1,97
,,,,,,,,,,,,,,,,,,,,,,,,,,,,,,,,,,,,,,,,,y,2.266000032,BOY,FALSE,,,,,,,90,pollo,Spanish,Sounds/spa_pollo.mp3,2020-06-24_18h56.21.943,TranslationElicitation_eng-prolific-spa,3.2.4,Win32,60,5ed8bf9551f146017b7ac03e,,1,0,98,85,1,97
,,,,,,,,,,,,,,,,,,,,,,,,,,,,,,,,,,,,,,,,,return,2.448999882,BOY,FALSE,,,,,,,90,pollo,Spanish,Sounds/spa_pollo.mp3,2020-06-24_18h56.21.943,TranslationElicitation_eng-prolific-spa,3.2.4,Win32,60,5ed8bf9551f146017b7ac03e,2.448999882,1,0,98,85,1,97
,,,,,,,,,,,,,,,,,,,,,,,,,,,,,,,,,,,,,,,,,,,,,,,,,,,90,pollo,Spanish,Sounds/spa_pollo.mp3,2020-06-24_18h56.21.943,TranslationElicitation_eng-prolific-spa,3.2.4,Win32,60,5ed8bf9551f146017b7ac03e,,1,0,98,85,1,97
,,,,,,,,,,,,,,,,,,,,,,,,,,,,,,,,,,,,,,,,,b,1.784000158,B,FALSE,,,,,,,83,pez,Spanish,Sounds/spa_pez.mp3,2020-06-24_18h56.21.943,TranslationElicitation_eng-prolific-spa,3.2.4,Win32,60,5ed8bf9551f146017b7ac03e,,1,0,98,78,1,97
,,,,,,,,,,,,,,,,,,,,,,,,,,,,,,,,,,,,,,,,,a,1.900000095,BA,FALSE,,,,,,,83,pez,Spanish,Sounds/spa_pez.mp3,2020-06-24_18h56.21.943,TranslationElicitation_eng-prolific-spa,3.2.4,Win32,60,5ed8bf9551f146017b7ac03e,,1,0,98,78,1,97
,,,,,,,,,,,,,,,,,,,,,,,,,,,,,,,,,,,,,,,,,t,2,BAT,FALSE,,,,,,,83,pez,Spanish,Sounds/spa_pez.mp3,2020-06-24_18h56.21.943,TranslationElicitation_eng-prolific-spa,3.2.4,Win32,60,5ed8bf9551f146017b7ac03e,,1,0,98,78,1,97
,,,,,,,,,,,,,,,,,,,,,,,,,,,,,,,,,,,,,,,,,h,2.150000095,BATH,FALSE,,,,,,,83,pez,Spanish,Sounds/spa_pez.mp3,2020-06-24_18h56.21.943,TranslationElicitation_eng-prolific-spa,3.2.4,Win32,60,5ed8bf9551f146017b7ac03e,,1,0,98,78,1,97
,,,,,,,,,,,,,,,,,,,,,,,,,,,,,,,,,,,,,,,,,e,2.200000048,BATHE,FALSE,,,,,,,83,pez,Spanish,Sounds/spa_pez.mp3,2020-06-24_18h56.21.943,TranslationElicitation_eng-prolific-spa,3.2.4,Win32,60,5ed8bf9551f146017b7ac03e,,1,0,98,78,1,97
,,,,,,,,,,,,,,,,,,,,,,,,,,,,,,,,,,,,,,,,,return,2.384000063,BATHE,FALSE,,,,,,,83,pez,Spanish,Sounds/spa_pez.mp3,2020-06-24_18h56.21.943,TranslationElicitation_eng-prolific-spa,3.2.4,Win32,60,5ed8bf9551f146017b7ac03e,2.384000063,1,0,98,78,1,97
,,,,,,,,,,,,,,,,,,,,,,,,,,,,,,,,,,,,,,,,,,,,,,,,,,,83,pez,Spanish,Sounds/spa_pez.mp3,2020-06-24_18h56.21.943,TranslationElicitation_eng-prolific-spa,3.2.4,Win32,60,5ed8bf9551f146017b7ac03e,,1,0,98,78,1,97
,,,,,,,,,,,,,,,,,,,,,,,,,,,,,,,,,,,,,,,,,t,2.016000032,T,FALSE,,,,,,,97,tijeras,Spanish,Sounds/spa_tijeras.mp3,2020-06-24_18h56.21.943,TranslationElicitation_eng-prolific-spa,3.2.4,Win32,60,5ed8bf9551f146017b7ac03e,,1,0,98,91,1,97
,,,,,,,,,,,,,,,,,,,,,,,,,,,,,,,,,,,,,,,,,e,3.73300004,TE,FALSE,,,,,,,97,tijeras,Spanish,Sounds/spa_tijeras.mp3,2020-06-24_18h56.21.943,TranslationElicitation_eng-prolific-spa,3.2.4,Win32,60,5ed8bf9551f146017b7ac03e,,1,0,98,91,1,97
,,,,,,,,,,,,,,,,,,,,,,,,,,,,,,,,,,,,,,,,,q,3.967000008,TEQ,FALSE,,,,,,,97,tijeras,Spanish,Sounds/spa_tijeras.mp3,2020-06-24_18h56.21.943,TranslationElicitation_eng-prolific-spa,3.2.4,Win32,60,5ed8bf9551f146017b7ac03e,,1,0,98,91,1,97
,,,,,,,,,,,,,,,,,,,,,,,,,,,,,,,,,,,,,,,,,i,4.549999952,TEQI,FALSE,,,,,,,97,tijeras,Spanish,Sounds/spa_tijeras.mp3,2020-06-24_18h56.21.943,TranslationElicitation_eng-prolific-spa,3.2.4,Win32,60,5ed8bf9551f146017b7ac03e,,1,0,98,91,1,97
,,,,,,,,,,,,,,,,,,,,,,,,,,,,,,,,,,,,,,,,,backspace,4.867000103,TEQ,TRUE,,,,,,,97,tijeras,Spanish,Sounds/spa_tijeras.mp3,2020-06-24_18h56.21.943,TranslationElicitation_eng-prolific-spa,3.2.4,Win32,60,5ed8bf9551f146017b7ac03e,,1,0,98,91,1,97
,,,,,,,,,,,,,,,,,,,,,,,,,,,,,,,,,,,,,,,,,u,5.549999952,TEQU,TRUE,,,,,,,97,tijeras,Spanish,Sounds/spa_tijeras.mp3,2020-06-24_18h56.21.943,TranslationElicitation_eng-prolific-spa,3.2.4,Win32,60,5ed8bf9551f146017b7ac03e,,1,0,98,91,1,97
,,,,,,,,,,,,,,,,,,,,,,,,,,,,,,,,,,,,,,,,,i,5.700000048,TEQUI,TRUE,,,,,,,97,tijeras,Spanish,Sounds/spa_tijeras.mp3,2020-06-24_18h56.21.943,TranslationElicitation_eng-prolific-spa,3.2.4,Win32,60,5ed8bf9551f146017b7ac03e,,1,0,98,91,1,97
,,,,,,,,,,,,,,,,,,,,,,,,,,,,,,,,,,,,,,,,,l,5.865999937,TEQUIL,TRUE,,,,,,,97,tijeras,Spanish,Sounds/spa_tijeras.mp3,2020-06-24_18h56.21.943,TranslationElicitation_eng-prolific-spa,3.2.4,Win32,60,5ed8bf9551f146017b7ac03e,,1,0,98,91,1,97
,,,,,,,,,,,,,,,,,,,,,,,,,,,,,,,,,,,,,,,,,a,5.950000048,TEQUILA,TRUE,,,,,,,97,tijeras,Spanish,Sounds/spa_tijeras.mp3,2020-06-24_18h56.21.943,TranslationElicitation_eng-prolific-spa,3.2.4,Win32,60,5ed8bf9551f146017b7ac03e,,1,0,98,91,1,97
,,,,,,,,,,,,,,,,,,,,,,,,,,,,,,,,,,,,,,,,,return,6.632999897,TEQUILA,TRUE,,,,,,,97,tijeras,Spanish,Sounds/spa_tijeras.mp3,2020-06-24_18h56.21.943,TranslationElicitation_eng-prolific-spa,3.2.4,Win32,60,5ed8bf9551f146017b7ac03e,6.632999897,1,0,98,91,1,97
,,,,,,,,,,,,,,,,,,,,,,,,,,,,,,,,,,,,,,,,,,,,,,,,,,,97,tijeras,Spanish,Sounds/spa_tijeras.mp3,2020-06-24_18h56.21.943,TranslationElicitation_eng-prolific-spa,3.2.4,Win32,60,5ed8bf9551f146017b7ac03e,,1,0,98,91,1,97
,,,,,,,,,,,,,,,,,,,,,,,,,,,,,,,,,,,,,,,,,l,1.868000031,L,FALSE,,,,,,,52,lapiz,Spanish,Sounds/spa_lapiz.mp3,2020-06-24_18h56.21.943,TranslationElicitation_eng-prolific-spa,3.2.4,Win32,60,5ed8bf9551f146017b7ac03e,,1,0,98,48,1,97
,,,,,,,,,,,,,,,,,,,,,,,,,,,,,,,,,,,,,,,,,a,1.950000048,LA,FALSE,,,,,,,52,lapiz,Spanish,Sounds/spa_lapiz.mp3,2020-06-24_18h56.21.943,TranslationElicitation_eng-prolific-spa,3.2.4,Win32,60,5ed8bf9551f146017b7ac03e,,1,0,98,48,1,97
,,,,,,,,,,,,,,,,,,,,,,,,,,,,,,,,,,,,,,,,,p,2.050000191,LAP,FALSE,,,,,,,52,lapiz,Spanish,Sounds/spa_lapiz.mp3,2020-06-24_18h56.21.943,TranslationElicitation_eng-prolific-spa,3.2.4,Win32,60,5ed8bf9551f146017b7ac03e,,1,0,98,48,1,97
,,,,,,,,,,,,,,,,,,,,,,,,,,,,,,,,,,,,,,,,,i,2.183000088,LAPI,FALSE,,,,,,,52,lapiz,Spanish,Sounds/spa_lapiz.mp3,2020-06-24_18h56.21.943,TranslationElicitation_eng-prolific-spa,3.2.4,Win32,60,5ed8bf9551f146017b7ac03e,,1,0,98,48,1,97
,,,,,,,,,,,,,,,,,,,,,,,,,,,,,,,,,,,,,,,,,s,2.25,LAPIS,FALSE,,,,,,,52,lapiz,Spanish,Sounds/spa_lapiz.mp3,2020-06-24_18h56.21.943,TranslationElicitation_eng-prolific-spa,3.2.4,Win32,60,5ed8bf9551f146017b7ac03e,,1,0,98,48,1,97
,,,,,,,,,,,,,,,,,,,,,,,,,,,,,,,,,,,,,,,,,return,2.467000008,LAPIS,FALSE,,,,,,,52,lapiz,Spanish,Sounds/spa_lapiz.mp3,2020-06-24_18h56.21.943,TranslationElicitation_eng-prolific-spa,3.2.4,Win32,60,5ed8bf9551f146017b7ac03e,2.467000008,1,0,98,48,1,97
,,,,,,,,,,,,,,,,,,,,,,,,,,,,,,,,,,,,,,,,,,,,,,,,,,,52,lapiz,Spanish,Sounds/spa_lapiz.mp3,2020-06-24_18h56.21.943,TranslationElicitation_eng-prolific-spa,3.2.4,Win32,60,5ed8bf9551f146017b7ac03e,,1,0,98,48,1,97
,,,,,,,,,,,,,,,,,,,,,,,,,,,,,,,,,,,,,,,,,o,1.400000095,O,FALSE,,,,,,,49,hormiga,Spanish,Sounds/spa_hormiga.mp3,2020-06-24_18h56.21.943,TranslationElicitation_eng-prolific-spa,3.2.4,Win32,60,5ed8bf9551f146017b7ac03e,,1,0,98,45,1,97
,,,,,,,,,,,,,,,,,,,,,,,,,,,,,,,,,,,,,,,,,m,1.48300004,OM,FALSE,,,,,,,49,hormiga,Spanish,Sounds/spa_hormiga.mp3,2020-06-24_18h56.21.943,TranslationElicitation_eng-prolific-spa,3.2.4,Win32,60,5ed8bf9551f146017b7ac03e,,1,0,98,45,1,97
,,,,,,,,,,,,,,,,,,,,,,,,,,,,,,,,,,,,,,,,,e,1.600000143,OME,FALSE,,,,,,,49,hormiga,Spanish,Sounds/spa_hormiga.mp3,2020-06-24_18h56.21.943,TranslationElicitation_eng-prolific-spa,3.2.4,Win32,60,5ed8bf9551f146017b7ac03e,,1,0,98,45,1,97
,,,,,,,,,,,,,,,,,,,,,,,,,,,,,,,,,,,,,,,,,g,1.700000048,OMEG,FALSE,,,,,,,49,hormiga,Spanish,Sounds/spa_hormiga.mp3,2020-06-24_18h56.21.943,TranslationElicitation_eng-prolific-spa,3.2.4,Win32,60,5ed8bf9551f146017b7ac03e,,1,0,98,45,1,97
,,,,,,,,,,,,,,,,,,,,,,,,,,,,,,,,,,,,,,,,,a,1.916000128,OMEGA,FALSE,,,,,,,49,hormiga,Spanish,Sounds/spa_hormiga.mp3,2020-06-24_18h56.21.943,TranslationElicitation_eng-prolific-spa,3.2.4,Win32,60,5ed8bf9551f146017b7ac03e,,1,0,98,45,1,97
,,,,,,,,,,,,,,,,,,,,,,,,,,,,,,,,,,,,,,,,,return,2.200000048,OMEGA,FALSE,,,,,,,49,hormiga,Spanish,Sounds/spa_hormiga.mp3,2020-06-24_18h56.21.943,TranslationElicitation_eng-prolific-spa,3.2.4,Win32,60,5ed8bf9551f146017b7ac03e,2.200000048,1,0,98,45,1,97
,,,,,,,,,,,,,,,,,,,,,,,,,,,,,,,,,,,,,,,,,,,,,,,,,,,49,hormiga,Spanish,Sounds/spa_hormiga.mp3,2020-06-24_18h56.21.943,TranslationElicitation_eng-prolific-spa,3.2.4,Win32,60,5ed8bf9551f146017b7ac03e,,1,0,98,45,1,97
,,,,,,,,,,,,,,,,,,,,,,,,,,,,,,,,,,,,,,,,,p,2.065999985,P,FALSE,,,,,,,81,pelota,Spanish,Sounds/spa_pelota.mp3,2020-06-24_18h56.21.943,TranslationElicitation_eng-prolific-spa,3.2.4,Win32,60,5ed8bf9551f146017b7ac03e,,1,0,98,76,1,97
,,,,,,,,,,,,,,,,,,,,,,,,,,,,,,,,,,,,,,,,,a,2.166000128,PA,FALSE,,,,,,,81,pelota,Spanish,Sounds/spa_pelota.mp3,2020-06-24_18h56.21.943,TranslationElicitation_eng-prolific-spa,3.2.4,Win32,60,5ed8bf9551f146017b7ac03e,,1,0,98,76,1,97
,,,,,,,,,,,,,,,,,,,,,,,,,,,,,,,,,,,,,,,,,r,2.282999992,PAR,FALSE,,,,,,,81,pelota,Spanish,Sounds/spa_pelota.mp3,2020-06-24_18h56.21.943,TranslationElicitation_eng-prolific-spa,3.2.4,Win32,60,5ed8bf9551f146017b7ac03e,,1,0,98,76,1,97
,,,,,,,,,,,,,,,,,,,,,,,,,,,,,,,,,,,,,,,,,r,2.433000088,PARR,FALSE,,,,,,,81,pelota,Spanish,Sounds/spa_pelota.mp3,2020-06-24_18h56.21.943,TranslationElicitation_eng-prolific-spa,3.2.4,Win32,60,5ed8bf9551f146017b7ac03e,,1,0,98,76,1,97
,,,,,,,,,,,,,,,,,,,,,,,,,,,,,,,,,,,,,,,,,o,2.532999992,PARRO,FALSE,,,,,,,81,pelota,Spanish,Sounds/spa_pelota.mp3,2020-06-24_18h56.21.943,TranslationElicitation_eng-prolific-spa,3.2.4,Win32,60,5ed8bf9551f146017b7ac03e,,1,0,98,76,1,97
,,,,,,,,,,,,,,,,,,,,,,,,,,,,,,,,,,,,,,,,,t,2.600000143,PARROT,FALSE,,,,,,,81,pelota,Spanish,Sounds/spa_pelota.mp3,2020-06-24_18h56.21.943,TranslationElicitation_eng-prolific-spa,3.2.4,Win32,60,5ed8bf9551f146017b7ac03e,,1,0,98,76,1,97
,,,,,,,,,,,,,,,,,,,,,,,,,,,,,,,,,,,,,,,,,return,2.73300004,PARROT,FALSE,,,,,,,81,pelota,Spanish,Sounds/spa_pelota.mp3,2020-06-24_18h56.21.943,TranslationElicitation_eng-prolific-spa,3.2.4,Win32,60,5ed8bf9551f146017b7ac03e,2.73300004,1,0,98,76,1,97
,,,,,,,,,,,,,,,,,,,,,,,,,,,,,,,,,,,,,,,,,,,,,,,,,,,81,pelota,Spanish,Sounds/spa_pelota.mp3,2020-06-24_18h56.21.943,TranslationElicitation_eng-prolific-spa,3.2.4,Win32,60,5ed8bf9551f146017b7ac03e,,1,0,98,76,1,97
,,,,,,,,,,,,,,,,,,,,,,,,,,,,,,,,,,,,,,,,,g,1.599999905,G,FALSE,,,,,,,46,grifo,Spanish,Sounds/spa_grifo.mp3,2020-06-24_18h56.21.943,TranslationElicitation_eng-prolific-spa,3.2.4,Win32,60,5ed8bf9551f146017b7ac03e,,1,0,98,42,1,97
,,,,,,,,,,,,,,,,,,,,,,,,,,,,,,,,,,,,,,,,,r,1.782999992,GR,FALSE,,,,,,,46,grifo,Spanish,Sounds/spa_grifo.mp3,2020-06-24_18h56.21.943,TranslationElicitation_eng-prolific-spa,3.2.4,Win32,60,5ed8bf9551f146017b7ac03e,,1,0,98,42,1,97
,,,,,,,,,,,,,,,,,,,,,,,,,,,,,,,,,,,,,,,,,i,1.967000008,GRI,FALSE,,,,,,,46,grifo,Spanish,Sounds/spa_grifo.mp3,2020-06-24_18h56.21.943,TranslationElicitation_eng-prolific-spa,3.2.4,Win32,60,5ed8bf9551f146017b7ac03e,,1,0,98,42,1,97
,,,,,,,,,,,,,,,,,,,,,,,,,,,,,,,,,,,,,,,,,e,2.049999952,GRIE,FALSE,,,,,,,46,grifo,Spanish,Sounds/spa_grifo.mp3,2020-06-24_18h56.21.943,TranslationElicitation_eng-prolific-spa,3.2.4,Win32,60,5ed8bf9551f146017b7ac03e,,1,0,98,42,1,97
,,,,,,,,,,,,,,,,,,,,,,,,,,,,,,,,,,,,,,,,,f,2.117000103,GRIEF,FALSE,,,,,,,46,grifo,Spanish,Sounds/spa_grifo.mp3,2020-06-24_18h56.21.943,TranslationElicitation_eng-prolific-spa,3.2.4,Win32,60,5ed8bf9551f146017b7ac03e,,1,0,98,42,1,97
,,,,,,,,,,,,,,,,,,,,,,,,,,,,,,,,,,,,,,,,,return,2.367000103,GRIEF,FALSE,,,,,,,46,grifo,Spanish,Sounds/spa_grifo.mp3,2020-06-24_18h56.21.943,TranslationElicitation_eng-prolific-spa,3.2.4,Win32,60,5ed8bf9551f146017b7ac03e,2.367000103,1,0,98,42,1,97
,,,,,,,,,,,,,,,,,,,,,,,,,,,,,,,,,,,,,,,,,,,,,,,,,,,46,grifo,Spanish,Sounds/spa_grifo.mp3,2020-06-24_18h56.21.943,TranslationElicitation_eng-prolific-spa,3.2.4,Win32,60,5ed8bf9551f146017b7ac03e,,1,0,98,42,1,97
,,,,,,,,,,,,,,,,,,,,,,,,,,,,,,,,,,,,,,,,,p,1.799999952,P,FALSE,,,,,,,79,patata,Spanish,Sounds/spa_patata.mp3,2020-06-24_18h56.21.943,TranslationElicitation_eng-prolific-spa,3.2.4,Win32,60,5ed8bf9551f146017b7ac03e,,1,0,98,74,1,97
,,,,,,,,,,,,,,,,,,,,,,,,,,,,,,,,,,,,,,,,,o,1.932999849,PO,FALSE,,,,,,,79,patata,Spanish,Sounds/spa_patata.mp3,2020-06-24_18h56.21.943,TranslationElicitation_eng-prolific-spa,3.2.4,Win32,60,5ed8bf9551f146017b7ac03e,,1,0,98,74,1,97
,,,,,,,,,,,,,,,,,,,,,,,,,,,,,,,,,,,,,,,,,t,2.132999897,POT,FALSE,,,,,,,79,patata,Spanish,Sounds/spa_patata.mp3,2020-06-24_18h56.21.943,TranslationElicitation_eng-prolific-spa,3.2.4,Win32,60,5ed8bf9551f146017b7ac03e,,1,0,98,74,1,97
,,,,,,,,,,,,,,,,,,,,,,,,,,,,,,,,,,,,,,,,,a,2.515999794,POTA,FALSE,,,,,,,79,patata,Spanish,Sounds/spa_patata.mp3,2020-06-24_18h56.21.943,TranslationElicitation_eng-prolific-spa,3.2.4,Win32,60,5ed8bf9551f146017b7ac03e,,1,0,98,74,1,97
,,,,,,,,,,,,,,,,,,,,,,,,,,,,,,,,,,,,,,,,,t,2.682999849,POTAT,FALSE,,,,,,,79,patata,Spanish,Sounds/spa_patata.mp3,2020-06-24_18h56.21.943,TranslationElicitation_eng-prolific-spa,3.2.4,Win32,60,5ed8bf9551f146017b7ac03e,,1,0,98,74,1,97
,,,,,,,,,,,,,,,,,,,,,,,,,,,,,,,,,,,,,,,,,o,2.932999849,POTATO,FALSE,,,,,,,79,patata,Spanish,Sounds/spa_patata.mp3,2020-06-24_18h56.21.943,TranslationElicitation_eng-prolific-spa,3.2.4,Win32,60,5ed8bf9551f146017b7ac03e,,1,0,98,74,1,97
,,,,,,,,,,,,,,,,,,,,,,,,,,,,,,,,,,,,,,,,,return,3.649999857,POTATO,FALSE,,,,,,,79,patata,Spanish,Sounds/spa_patata.mp3,2020-06-24_18h56.21.943,TranslationElicitation_eng-prolific-spa,3.2.4,Win32,60,5ed8bf9551f146017b7ac03e,3.649999857,1,0,98,74,1,97
,,,,,,,,,,,,,,,,,,,,,,,,,,,,,,,,,,,,,,,,,,,,,,,,,,,79,patata,Spanish,Sounds/spa_patata.mp3,2020-06-24_18h56.21.943,TranslationElicitation_eng-prolific-spa,3.2.4,Win32,60,5ed8bf9551f146017b7ac03e,,1,0,98,74,1,97
,,,,,,,,,,,,,,,,,,,,,,,,,,,,,,,,,,,,,,,,,b,2.766000032,B,FALSE,,,,,,,7,bocadillo,Spanish,Sounds/spa_bocadillo.mp3,2020-06-24_18h56.21.943,TranslationElicitation_eng-prolific-spa,3.2.4,Win32,60,5ed8bf9551f146017b7ac03e,,1,0,98,5,1,97
,,,,,,,,,,,,,,,,,,,,,,,,,,,,,,,,,,,,,,,,,backspace,3.565999985,,TRUE,,,,,,,7,bocadillo,Spanish,Sounds/spa_bocadillo.mp3,2020-06-24_18h56.21.943,TranslationElicitation_eng-prolific-spa,3.2.4,Win32,60,5ed8bf9551f146017b7ac03e,,1,0,98,5,1,97
,,,,,,,,,,,,,,,,,,,,,,,,,,,,,,,,,,,,,,,,,p,4.100000143,P,TRUE,,,,,,,7,bocadillo,Spanish,Sounds/spa_bocadillo.mp3,2020-06-24_18h56.21.943,TranslationElicitation_eng-prolific-spa,3.2.4,Win32,60,5ed8bf9551f146017b7ac03e,,1,0,98,5,1,97
,,,,,,,,,,,,,,,,,,,,,,,,,,,,,,,,,,,,,,,,,i,4.400000095,PI,TRUE,,,,,,,7,bocadillo,Spanish,Sounds/spa_bocadillo.mp3,2020-06-24_18h56.21.943,TranslationElicitation_eng-prolific-spa,3.2.4,Win32,60,5ed8bf9551f146017b7ac03e,,1,0,98,5,1,97
,,,,,,,,,,,,,,,,,,,,,,,,,,,,,,,,,,,,,,,,,n,4.633000135,PIN,TRUE,,,,,,,7,bocadillo,Spanish,Sounds/spa_bocadillo.mp3,2020-06-24_18h56.21.943,TranslationElicitation_eng-prolific-spa,3.2.4,Win32,60,5ed8bf9551f146017b7ac03e,,1,0,98,5,1,97
,,,,,,,,,,,,,,,,,,,,,,,,,,,,,,,,,,,,,,,,,o,4.799999952,PINO,TRUE,,,,,,,7,bocadillo,Spanish,Sounds/spa_bocadillo.mp3,2020-06-24_18h56.21.943,TranslationElicitation_eng-prolific-spa,3.2.4,Win32,60,5ed8bf9551f146017b7ac03e,,1,0,98,5,1,97
,,,,,,,,,,,,,,,,,,,,,,,,,,,,,,,,,,,,,,,,,c,4.98300004,PINOC,TRUE,,,,,,,7,bocadillo,Spanish,Sounds/spa_bocadillo.mp3,2020-06-24_18h56.21.943,TranslationElicitation_eng-prolific-spa,3.2.4,Win32,60,5ed8bf9551f146017b7ac03e,,1,0,98,5,1,97
,,,,,,,,,,,,,,,,,,,,,,,,,,,,,,,,,,,,,,,,,h,5.082999945,PINOCH,TRUE,,,,,,,7,bocadillo,Spanish,Sounds/spa_bocadillo.mp3,2020-06-24_18h56.21.943,TranslationElicitation_eng-prolific-spa,3.2.4,Win32,60,5ed8bf9551f146017b7ac03e,,1,0,98,5,1,97
,,,,,,,,,,,,,,,,,,,,,,,,,,,,,,,,,,,,,,,,,i,5.150000095,PINOCHI,TRUE,,,,,,,7,bocadillo,Spanish,Sounds/spa_bocadillo.mp3,2020-06-24_18h56.21.943,TranslationElicitation_eng-prolific-spa,3.2.4,Win32,60,5ed8bf9551f146017b7ac03e,,1,0,98,5,1,97
,,,,,,,,,,,,,,,,,,,,,,,,,,,,,,,,,,,,,,,,,o,5.383000135,PINOCHIO,TRUE,,,,,,,7,bocadillo,Spanish,Sounds/spa_bocadillo.mp3,2020-06-24_18h56.21.943,TranslationElicitation_eng-prolific-spa,3.2.4,Win32,60,5ed8bf9551f146017b7ac03e,,1,0,98,5,1,97
,,,,,,,,,,,,,,,,,,,,,,,,,,,,,,,,,,,,,,,,,backspace,6.150000095,PINOCHI,TRUE,,,,,,,7,bocadillo,Spanish,Sounds/spa_bocadillo.mp3,2020-06-24_18h56.21.943,TranslationElicitation_eng-prolific-spa,3.2.4,Win32,60,5ed8bf9551f146017b7ac03e,,1,0,98,5,1,97
,,,,,,,,,,,,,,,,,,,,,,,,,,,,,,,,,,,,,,,,,backspace,6.5,PINOCH,TRUE,,,,,,,7,bocadillo,Spanish,Sounds/spa_bocadillo.mp3,2020-06-24_18h56.21.943,TranslationElicitation_eng-prolific-spa,3.2.4,Win32,60,5ed8bf9551f146017b7ac03e,,1,0,98,5,1,97
,,,,,,,,,,,,,,,,,,,,,,,,,,,,,,,,,,,,,,,,,backspace,6.650000095,PINOC,TRUE,,,,,,,7,bocadillo,Spanish,Sounds/spa_bocadillo.mp3,2020-06-24_18h56.21.943,TranslationElicitation_eng-prolific-spa,3.2.4,Win32,60,5ed8bf9551f146017b7ac03e,,1,0,98,5,1,97
,,,,,,,,,,,,,,,,,,,,,,,,,,,,,,,,,,,,,,,,,backspace,6.799999952,PINO,TRUE,,,,,,,7,bocadillo,Spanish,Sounds/spa_bocadillo.mp3,2020-06-24_18h56.21.943,TranslationElicitation_eng-prolific-spa,3.2.4,Win32,60,5ed8bf9551f146017b7ac03e,,1,0,98,5,1,97
,,,,,,,,,,,,,,,,,,,,,,,,,,,,,,,,,,,,,,,,,backspace,6.96600008,PIN,TRUE,,,,,,,7,bocadillo,Spanish,Sounds/spa_bocadillo.mp3,2020-06-24_18h56.21.943,TranslationElicitation_eng-prolific-spa,3.2.4,Win32,60,5ed8bf9551f146017b7ac03e,,1,0,98,5,1,97
,,,,,,,,,,,,,,,,,,,,,,,,,,,,,,,,,,,,,,,,,backspace,7.117000103,PI,TRUE,,,,,,,7,bocadillo,Spanish,Sounds/spa_bocadillo.mp3,2020-06-24_18h56.21.943,TranslationElicitation_eng-prolific-spa,3.2.4,Win32,60,5ed8bf9551f146017b7ac03e,,1,0,98,5,1,97
,,,,,,,,,,,,,,,,,,,,,,,,,,,,,,,,,,,,,,,,,backspace,7.25,P,TRUE,,,,,,,7,bocadillo,Spanish,Sounds/spa_bocadillo.mp3,2020-06-24_18h56.21.943,TranslationElicitation_eng-prolific-spa,3.2.4,Win32,60,5ed8bf9551f146017b7ac03e,,1,0,98,5,1,97
,,,,,,,,,,,,,,,,,,,,,,,,,,,,,,,,,,,,,,,,,backspace,7.400000095,,TRUE,,,,,,,7,bocadillo,Spanish,Sounds/spa_bocadillo.mp3,2020-06-24_18h56.21.943,TranslationElicitation_eng-prolific-spa,3.2.4,Win32,60,5ed8bf9551f146017b7ac03e,,1,0,98,5,1,97
,,,,,,,,,,,,,,,,,,,,,,,,,,,,,,,,,,,,,,,,,p,21.96700001,P,TRUE,,,,,,,7,bocadillo,Spanish,Sounds/spa_bocadillo.mp3,2020-06-24_18h56.21.943,TranslationElicitation_eng-prolific-spa,3.2.4,Win32,60,5ed8bf9551f146017b7ac03e,,1,0,98,5,1,97
,,,,,,,,,,,,,,,,,,,,,,,,,,,,,,,,,,,,,,,,,a,22.41700006,PA,TRUE,,,,,,,7,bocadillo,Spanish,Sounds/spa_bocadillo.mp3,2020-06-24_18h56.21.943,TranslationElicitation_eng-prolific-spa,3.2.4,Win32,60,5ed8bf9551f146017b7ac03e,,1,0,98,5,1,97
,,,,,,,,,,,,,,,,,,,,,,,,,,,,,,,,,,,,,,,,,n,22.6170001,PAN,TRUE,,,,,,,7,bocadillo,Spanish,Sounds/spa_bocadillo.mp3,2020-06-24_18h56.21.943,TranslationElicitation_eng-prolific-spa,3.2.4,Win32,60,5ed8bf9551f146017b7ac03e,,1,0,98,5,1,97
,,,,,,,,,,,,,,,,,,,,,,,,,,,,,,,,,,,,,,,,,i,22.71700001,PANI,TRUE,,,,,,,7,bocadillo,Spanish,Sounds/spa_bocadillo.mp3,2020-06-24_18h56.21.943,TranslationElicitation_eng-prolific-spa,3.2.4,Win32,60,5ed8bf9551f146017b7ac03e,,1,0,98,5,1,97
,,,,,,,,,,,,,,,,,,,,,,,,,,,,,,,,,,,,,,,,,c,22.85000014,PANIC,TRUE,,,,,,,7,bocadillo,Spanish,Sounds/spa_bocadillo.mp3,2020-06-24_18h56.21.943,TranslationElicitation_eng-prolific-spa,3.2.4,Win32,60,5ed8bf9551f146017b7ac03e,,1,0,98,5,1,97
,,,,,,,,,,,,,,,,,,,,,,,,,,,,,,,,,,,,,,,,,return,24.13400006,PANIC,TRUE,,,,,,,7,bocadillo,Spanish,Sounds/spa_bocadillo.mp3,2020-06-24_18h56.21.943,TranslationElicitation_eng-prolific-spa,3.2.4,Win32,60,5ed8bf9551f146017b7ac03e,24.13400006,1,0,98,5,1,97
,,,,,,,,,,,,,,,,,,,,,,,,,,,,,,,,,,,,,,,,,,,,,,,,,,,7,bocadillo,Spanish,Sounds/spa_bocadillo.mp3,2020-06-24_18h56.21.943,TranslationElicitation_eng-prolific-spa,3.2.4,Win32,60,5ed8bf9551f146017b7ac03e,,1,0,98,5,1,97
,,,,,,,,,,,,,,,,,,,,,,,,,,,,,,,,,,,,,,,,,w,1.999000072,W,FALSE,,,,,,,103,zanahoria,Spanish,Sounds/spa_zanahoria.mp3,2020-06-24_18h56.21.943,TranslationElicitation_eng-prolific-spa,3.2.4,Win32,60,5ed8bf9551f146017b7ac03e,,1,0,98,97,1,97
,,,,,,,,,,,,,,,,,,,,,,,,,,,,,,,,,,,,,,,,,o,2.148999929,WO,FALSE,,,,,,,103,zanahoria,Spanish,Sounds/spa_zanahoria.mp3,2020-06-24_18h56.21.943,TranslationElicitation_eng-prolific-spa,3.2.4,Win32,60,5ed8bf9551f146017b7ac03e,,1,0,98,97,1,97
,,,,,,,,,,,,,,,,,,,,,,,,,,,,,,,,,,,,,,,,,m,2.23300004,WOM,FALSE,,,,,,,103,zanahoria,Spanish,Sounds/spa_zanahoria.mp3,2020-06-24_18h56.21.943,TranslationElicitation_eng-prolific-spa,3.2.4,Win32,60,5ed8bf9551f146017b7ac03e,,1,0,98,97,1,97
,,,,,,,,,,,,,,,,,,,,,,,,,,,,,,,,,,,,,,,,,a,2.365999937,WOMA,FALSE,,,,,,,103,zanahoria,Spanish,Sounds/spa_zanahoria.mp3,2020-06-24_18h56.21.943,TranslationElicitation_eng-prolific-spa,3.2.4,Win32,60,5ed8bf9551f146017b7ac03e,,1,0,98,97,1,97
,,,,,,,,,,,,,,,,,,,,,,,,,,,,,,,,,,,,,,,,,n,2.433000088,WOMAN,FALSE,,,,,,,103,zanahoria,Spanish,Sounds/spa_zanahoria.mp3,2020-06-24_18h56.21.943,TranslationElicitation_eng-prolific-spa,3.2.4,Win32,60,5ed8bf9551f146017b7ac03e,,1,0,98,97,1,97
,,,,,,,,,,,,,,,,,,,,,,,,,,,,,,,,,,,,,,,,,return,2.615999937,WOMAN,FALSE,,,,,,,103,zanahoria,Spanish,Sounds/spa_zanahoria.mp3,2020-06-24_18h56.21.943,TranslationElicitation_eng-prolific-spa,3.2.4,Win32,60,5ed8bf9551f146017b7ac03e,2.615999937,1,0,98,97,1,97
,,,,,,,,,,,,,,,,,,,,,,,,,,,,,,,,,,,,,,,,,,,,,,,,,,,103,zanahoria,Spanish,Sounds/spa_zanahoria.mp3,2020-06-24_18h56.21.943,TranslationElicitation_eng-prolific-spa,3.2.4,Win32,60,5ed8bf9551f146017b7ac03e,,1,0,98,97,1,97
,,,,,,,,,,,,,,,,,,,,,,,,,,,,,,,,,,,,,,,,,b,1.633000135,B,FALSE,,,,,,,9,boli,Spanish,Sounds/spa_boli.mp3,2020-06-24_18h56.21.943,TranslationElicitation_eng-prolific-spa,3.2.4,Win32,60,5ed8bf9551f146017b7ac03e,,1,0,98,7,1,97
,,,,,,,,,,,,,,,,,,,,,,,,,,,,,,,,,,,,,,,,,o,1.75,BO,FALSE,,,,,,,9,boli,Spanish,Sounds/spa_boli.mp3,2020-06-24_18h56.21.943,TranslationElicitation_eng-prolific-spa,3.2.4,Win32,60,5ed8bf9551f146017b7ac03e,,1,0,98,7,1,97
,,,,,,,,,,,,,,,,,,,,,,,,,,,,,,,,,,,,,,,,,w,1.850000143,BOW,FALSE,,,,,,,9,boli,Spanish,Sounds/spa_boli.mp3,2020-06-24_18h56.21.943,TranslationElicitation_eng-prolific-spa,3.2.4,Win32,60,5ed8bf9551f146017b7ac03e,,1,0,98,7,1,97
,,,,,,,,,,,,,,,,,,,,,,,,,,,,,,,,,,,,,,,,,l,1.950000048,BOWL,FALSE,,,,,,,9,boli,Spanish,Sounds/spa_boli.mp3,2020-06-24_18h56.21.943,TranslationElicitation_eng-prolific-spa,3.2.4,Win32,60,5ed8bf9551f146017b7ac03e,,1,0,98,7,1,97
,,,,,,,,,,,,,,,,,,,,,,,,,,,,,,,,,,,,,,,,,return,2.156000137,BOWL,FALSE,,,,,,,9,boli,Spanish,Sounds/spa_boli.mp3,2020-06-24_18h56.21.943,TranslationElicitation_eng-prolific-spa,3.2.4,Win32,60,5ed8bf9551f146017b7ac03e,2.156000137,1,0,98,7,1,97
,,,,,,,,,,,,,,,,,,,,,,,,,,,,,,,,,,,,,,,,,,,,,,,,,,,9,boli,Spanish,Sounds/spa_boli.mp3,2020-06-24_18h56.21.943,TranslationElicitation_eng-prolific-spa,3.2.4,Win32,60,5ed8bf9551f146017b7ac03e,,1,0,98,7,1,97
,,,,,,,,,,,,,,,,,,,,,,,,,,,,,,,,,,,,,,,,,d,4.582999945,D,FALSE,,,,,,,33,dedo,Spanish,Sounds/spa_dedo.mp3,2020-06-24_18h56.21.943,TranslationElicitation_eng-prolific-spa,3.2.4,Win32,60,5ed8bf9551f146017b7ac03e,,1,0,98,29,1,97
,,,,,,,,,,,,,,,,,,,,,,,,,,,,,,,,,,,,,,,,,a,4.717000008,DA,FALSE,,,,,,,33,dedo,Spanish,Sounds/spa_dedo.mp3,2020-06-24_18h56.21.943,TranslationElicitation_eng-prolific-spa,3.2.4,Win32,60,5ed8bf9551f146017b7ac03e,,1,0,98,29,1,97
,,,,,,,,,,,,,,,,,,,,,,,,,,,,,,,,,,,,,,,,,y,4.950000048,DAY,FALSE,,,,,,,33,dedo,Spanish,Sounds/spa_dedo.mp3,2020-06-24_18h56.21.943,TranslationElicitation_eng-prolific-spa,3.2.4,Win32,60,5ed8bf9551f146017b7ac03e,,1,0,98,29,1,97
,,,,,,,,,,,,,,,,,,,,,,,,,,,,,,,,,,,,,,,,,return,6.832999945,DAY,FALSE,,,,,,,33,dedo,Spanish,Sounds/spa_dedo.mp3,2020-06-24_18h56.21.943,TranslationElicitation_eng-prolific-spa,3.2.4,Win32,60,5ed8bf9551f146017b7ac03e,6.832999945,1,0,98,29,1,97
,,,,,,,,,,,,,,,,,,,,,,,,,,,,,,,,,,,,,,,,,,,,,,,,,,,33,dedo,Spanish,Sounds/spa_dedo.mp3,2020-06-24_18h56.21.943,TranslationElicitation_eng-prolific-spa,3.2.4,Win32,60,5ed8bf9551f146017b7ac03e,,1,0,98,29,1,97
,,,,,,,,,,,,,,,,,,,,,,,,,,,,,,,,,,,,,,,,,s,1.933000088,S,FALSE,,,,,,,92,sandwich,Spanish,Sounds/spa_sandwich.mp3,2020-06-24_18h56.21.943,TranslationElicitation_eng-prolific-spa,3.2.4,Win32,60,5ed8bf9551f146017b7ac03e,,1,0,98,87,1,97
,,,,,,,,,,,,,,,,,,,,,,,,,,,,,,,,,,,,,,,,,a,2.032999992,SA,FALSE,,,,,,,92,sandwich,Spanish,Sounds/spa_sandwich.mp3,2020-06-24_18h56.21.943,TranslationElicitation_eng-prolific-spa,3.2.4,Win32,60,5ed8bf9551f146017b7ac03e,,1,0,98,87,1,97
,,,,,,,,,,,,,,,,,,,,,,,,,,,,,,,,,,,,,,,,,n,2.266000032,SAN,FALSE,,,,,,,92,sandwich,Spanish,Sounds/spa_sandwich.mp3,2020-06-24_18h56.21.943,TranslationElicitation_eng-prolific-spa,3.2.4,Win32,60,5ed8bf9551f146017b7ac03e,,1,0,98,87,1,97
,,,,,,,,,,,,,,,,,,,,,,,,,,,,,,,,,,,,,,,,,d,2.315999985,SAND,FALSE,,,,,,,92,sandwich,Spanish,Sounds/spa_sandwich.mp3,2020-06-24_18h56.21.943,TranslationElicitation_eng-prolific-spa,3.2.4,Win32,60,5ed8bf9551f146017b7ac03e,,1,0,98,87,1,97
,,,,,,,,,,,,,,,,,,,,,,,,,,,,,,,,,,,,,,,,,w,2.433000088,SANDW,FALSE,,,,,,,92,sandwich,Spanish,Sounds/spa_sandwich.mp3,2020-06-24_18h56.21.943,TranslationElicitation_eng-prolific-spa,3.2.4,Win32,60,5ed8bf9551f146017b7ac03e,,1,0,98,87,1,97
,,,,,,,,,,,,,,,,,,,,,,,,,,,,,,,,,,,,,,,,,i,2.549999952,SANDWI,FALSE,,,,,,,92,sandwich,Spanish,Sounds/spa_sandwich.mp3,2020-06-24_18h56.21.943,TranslationElicitation_eng-prolific-spa,3.2.4,Win32,60,5ed8bf9551f146017b7ac03e,,1,0,98,87,1,97
,,,,,,,,,,,,,,,,,,,,,,,,,,,,,,,,,,,,,,,,,c,2.650000095,SANDWIC,FALSE,,,,,,,92,sandwich,Spanish,Sounds/spa_sandwich.mp3,2020-06-24_18h56.21.943,TranslationElicitation_eng-prolific-spa,3.2.4,Win32,60,5ed8bf9551f146017b7ac03e,,1,0,98,87,1,97
,,,,,,,,,,,,,,,,,,,,,,,,,,,,,,,,,,,,,,,,,h,2.71600008,SANDWICH,FALSE,,,,,,,92,sandwich,Spanish,Sounds/spa_sandwich.mp3,2020-06-24_18h56.21.943,TranslationElicitation_eng-prolific-spa,3.2.4,Win32,60,5ed8bf9551f146017b7ac03e,,1,0,98,87,1,97
,,,,,,,,,,,,,,,,,,,,,,,,,,,,,,,,,,,,,,,,,return,3.016000032,SANDWICH,FALSE,,,,,,,92,sandwich,Spanish,Sounds/spa_sandwich.mp3,2020-06-24_18h56.21.943,TranslationElicitation_eng-prolific-spa,3.2.4,Win32,60,5ed8bf9551f146017b7ac03e,3.016000032,1,0,98,87,1,97
,,,,,,,,,,,,,,,,,,,,,,,,,,,,,,,,,,,,,,,,,,,,,,,,,,,92,sandwich,Spanish,Sounds/spa_sandwich.mp3,2020-06-24_18h56.21.943,TranslationElicitation_eng-prolific-spa,3.2.4,Win32,60,5ed8bf9551f146017b7ac03e,,1,0,98,87,1,97
,,,,,,,,,,,,,,,,,,,,,,,,,,,,,,,,,,,,,,,,,t,3.584000111,T,FALSE,,,,,,,24,cereza,Spanish,Sounds/spa_cereza.mp3,2020-06-24_18h56.21.943,TranslationElicitation_eng-prolific-spa,3.2.4,Win32,60,5ed8bf9551f146017b7ac03e,,1,0,98,22,1,97
,,,,,,,,,,,,,,,,,,,,,,,,,,,,,,,,,,,,,,,,,e,3.667000055,TE,FALSE,,,,,,,24,cereza,Spanish,Sounds/spa_cereza.mp3,2020-06-24_18h56.21.943,TranslationElicitation_eng-prolific-spa,3.2.4,Win32,60,5ed8bf9551f146017b7ac03e,,1,0,98,22,1,97
,,,,,,,,,,,,,,,,,,,,,,,,,,,,,,,,,,,,,,,,,r,3.78399992,TER,FALSE,,,,,,,24,cereza,Spanish,Sounds/spa_cereza.mp3,2020-06-24_18h56.21.943,TranslationElicitation_eng-prolific-spa,3.2.4,Win32,60,5ed8bf9551f146017b7ac03e,,1,0,98,22,1,97
,,,,,,,,,,,,,,,,,,,,,,,,,,,,,,,,,,,,,,,,,r,3.917000055,TERR,FALSE,,,,,,,24,cereza,Spanish,Sounds/spa_cereza.mp3,2020-06-24_18h56.21.943,TranslationElicitation_eng-prolific-spa,3.2.4,Win32,60,5ed8bf9551f146017b7ac03e,,1,0,98,22,1,97
,,,,,,,,,,,,,,,,,,,,,,,,,,,,,,,,,,,,,,,,,i,4.084000111,TERRI,FALSE,,,,,,,24,cereza,Spanish,Sounds/spa_cereza.mp3,2020-06-24_18h56.21.943,TranslationElicitation_eng-prolific-spa,3.2.4,Win32,60,5ed8bf9551f146017b7ac03e,,1,0,98,22,1,97
,,,,,,,,,,,,,,,,,,,,,,,,,,,,,,,,,,,,,,,,,f,4.167000055,TERRIF,FALSE,,,,,,,24,cereza,Spanish,Sounds/spa_cereza.mp3,2020-06-24_18h56.21.943,TranslationElicitation_eng-prolific-spa,3.2.4,Win32,60,5ed8bf9551f146017b7ac03e,,1,0,98,22,1,97
,,,,,,,,,,,,,,,,,,,,,,,,,,,,,,,,,,,,,,,,,i,4.25,TERRIFI,FALSE,,,,,,,24,cereza,Spanish,Sounds/spa_cereza.mp3,2020-06-24_18h56.21.943,TranslationElicitation_eng-prolific-spa,3.2.4,Win32,60,5ed8bf9551f146017b7ac03e,,1,0,98,22,1,97
,,,,,,,,,,,,,,,,,,,,,,,,,,,,,,,,,,,,,,,,,c,4.350000143,TERRIFIC,FALSE,,,,,,,24,cereza,Spanish,Sounds/spa_cereza.mp3,2020-06-24_18h56.21.943,TranslationElicitation_eng-prolific-spa,3.2.4,Win32,60,5ed8bf9551f146017b7ac03e,,1,0,98,22,1,97
,,,,,,,,,,,,,,,,,,,,,,,,,,,,,,,,,,,,,,,,,return,4.5,TERRIFIC,FALSE,,,,,,,24,cereza,Spanish,Sounds/spa_cereza.mp3,2020-06-24_18h56.21.943,TranslationElicitation_eng-prolific-spa,3.2.4,Win32,60,5ed8bf9551f146017b7ac03e,4.5,1,0,98,22,1,97
,,,,,,,,,,,,,,,,,,,,,,,,,,,,,,,,,,,,,,,,,,,,,,,,,,,24,cereza,Spanish,Sounds/spa_cereza.mp3,2020-06-24_18h56.21.943,TranslationElicitation_eng-prolific-spa,3.2.4,Win32,60,5ed8bf9551f146017b7ac03e,,1,0,98,22,1,97
,,,,,,,,,,,,,,,,,,,,,,,,,,,,,,,,,,,,,,,,,l,1.817000151,L,FALSE,,,,,,,53,leche,Spanish,Sounds/spa_leche.mp3,2020-06-24_18h56.21.943,TranslationElicitation_eng-prolific-spa,3.2.4,Win32,60,5ed8bf9551f146017b7ac03e,,1,0,98,49,1,97
,,,,,,,,,,,,,,,,,,,,,,,,,,,,,,,,,,,,,,,,,e,1.900000095,LE,FALSE,,,,,,,53,leche,Spanish,Sounds/spa_leche.mp3,2020-06-24_18h56.21.943,TranslationElicitation_eng-prolific-spa,3.2.4,Win32,60,5ed8bf9551f146017b7ac03e,,1,0,98,49,1,97
,,,,,,,,,,,,,,,,,,,,,,,,,,,,,,,,,,,,,,,,,t,2.01699996,LET,FALSE,,,,,,,53,leche,Spanish,Sounds/spa_leche.mp3,2020-06-24_18h56.21.943,TranslationElicitation_eng-prolific-spa,3.2.4,Win32,60,5ed8bf9551f146017b7ac03e,,1,0,98,49,1,97
,,,,,,,,,,,,,,,,,,,,,,,,,,,,,,,,,,,,,,,,,t,2.167000055,LETT,FALSE,,,,,,,53,leche,Spanish,Sounds/spa_leche.mp3,2020-06-24_18h56.21.943,TranslationElicitation_eng-prolific-spa,3.2.4,Win32,60,5ed8bf9551f146017b7ac03e,,1,0,98,49,1,97
,,,,,,,,,,,,,,,,,,,,,,,,,,,,,,,,,,,,,,,,,e,2.233999968,LETTE,FALSE,,,,,,,53,leche,Spanish,Sounds/spa_leche.mp3,2020-06-24_18h56.21.943,TranslationElicitation_eng-prolific-spa,3.2.4,Win32,60,5ed8bf9551f146017b7ac03e,,1,0,98,49,1,97
,,,,,,,,,,,,,,,,,,,,,,,,,,,,,,,,,,,,,,,,,r,2.317000151,LETTER,FALSE,,,,,,,53,leche,Spanish,Sounds/spa_leche.mp3,2020-06-24_18h56.21.943,TranslationElicitation_eng-prolific-spa,3.2.4,Win32,60,5ed8bf9551f146017b7ac03e,,1,0,98,49,1,97
,,,,,,,,,,,,,,,,,,,,,,,,,,,,,,,,,,,,,,,,,return,2.799999952,LETTER,FALSE,,,,,,,53,leche,Spanish,Sounds/spa_leche.mp3,2020-06-24_18h56.21.943,TranslationElicitation_eng-prolific-spa,3.2.4,Win32,60,5ed8bf9551f146017b7ac03e,2.799999952,1,0,98,49,1,97
,,,,,,,,,,,,,,,,,,,,,,,,,,,,,,,,,,,,,,,,,,,,,,,,,,,53,leche,Spanish,Sounds/spa_leche.mp3,2020-06-24_18h56.21.943,TranslationElicitation_eng-prolific-spa,3.2.4,Win32,60,5ed8bf9551f146017b7ac03e,,1,0,98,49,1,97
,,,,,,,,,,,,,,,,,,,,,,,,,,,,,,,,,,,,,,,,,b,1.682999849,B,FALSE,,,,,,,6,boca,Spanish,Sounds/spa_boca.mp3,2020-06-24_18h56.21.943,TranslationElicitation_eng-prolific-spa,3.2.4,Win32,60,5ed8bf9551f146017b7ac03e,,1,0,98,4,1,97
,,,,,,,,,,,,,,,,,,,,,,,,,,,,,,,,,,,,,,,,,o,1.815999985,BO,FALSE,,,,,,,6,boca,Spanish,Sounds/spa_boca.mp3,2020-06-24_18h56.21.943,TranslationElicitation_eng-prolific-spa,3.2.4,Win32,60,5ed8bf9551f146017b7ac03e,,1,0,98,4,1,97
,,,,,,,,,,,,,,,,,,,,,,,,,,,,,,,,,,,,,,,,,o,1.965999842,BOO,FALSE,,,,,,,6,boca,Spanish,Sounds/spa_boca.mp3,2020-06-24_18h56.21.943,TranslationElicitation_eng-prolific-spa,3.2.4,Win32,60,5ed8bf9551f146017b7ac03e,,1,0,98,4,1,97
,,,,,,,,,,,,,,,,,,,,,,,,,,,,,,,,,,,,,,,,,k,2.065999985,BOOK,FALSE,,,,,,,6,boca,Spanish,Sounds/spa_boca.mp3,2020-06-24_18h56.21.943,TranslationElicitation_eng-prolific-spa,3.2.4,Win32,60,5ed8bf9551f146017b7ac03e,,1,0,98,4,1,97
,,,,,,,,,,,,,,,,,,,,,,,,,,,,,,,,,,,,,,,,,return,2.315999985,BOOK,FALSE,,,,,,,6,boca,Spanish,Sounds/spa_boca.mp3,2020-06-24_18h56.21.943,TranslationElicitation_eng-prolific-spa,3.2.4,Win32,60,5ed8bf9551f146017b7ac03e,2.315999985,1,0,98,4,1,97
,,,,,,,,,,,,,,,,,,,,,,,,,,,,,,,,,,,,,,,,,,,,,,,,,,,6,boca,Spanish,Sounds/spa_boca.mp3,2020-06-24_18h56.21.943,TranslationElicitation_eng-prolific-spa,3.2.4,Win32,60,5ed8bf9551f146017b7ac03e,,1,0,98,4,1,97
,,,,,,,,,,,,,,,,,,,,,,,,,,,,,,,,,,,,,,,,,d,3.116999865,D,FALSE,,,,,,,23,cerdo,Spanish,Sounds/spa_cerdo.mp3,2020-06-24_18h56.21.943,TranslationElicitation_eng-prolific-spa,3.2.4,Win32,60,5ed8bf9551f146017b7ac03e,,1,0,98,21,1,97
,,,,,,,,,,,,,,,,,,,,,,,,,,,,,,,,,,,,,,,,,i,3.333999872,DI,FALSE,,,,,,,23,cerdo,Spanish,Sounds/spa_cerdo.mp3,2020-06-24_18h56.21.943,TranslationElicitation_eng-prolific-spa,3.2.4,Win32,60,5ed8bf9551f146017b7ac03e,,1,0,98,21,1,97
,,,,,,,,,,,,,,,,,,,,,,,,,,,,,,,,,,,,,,,,,e,3.450000048,DIE,FALSE,,,,,,,23,cerdo,Spanish,Sounds/spa_cerdo.mp3,2020-06-24_18h56.21.943,TranslationElicitation_eng-prolific-spa,3.2.4,Win32,60,5ed8bf9551f146017b7ac03e,,1,0,98,21,1,97
,,,,,,,,,,,,,,,,,,,,,,,,,,,,,,,,,,,,,,,,,g,3.51699996,DIEG,FALSE,,,,,,,23,cerdo,Spanish,Sounds/spa_cerdo.mp3,2020-06-24_18h56.21.943,TranslationElicitation_eng-prolific-spa,3.2.4,Win32,60,5ed8bf9551f146017b7ac03e,,1,0,98,21,1,97
,,,,,,,,,,,,,,,,,,,,,,,,,,,,,,,,,,,,,,,,,o,3.616999865,DIEGO,FALSE,,,,,,,23,cerdo,Spanish,Sounds/spa_cerdo.mp3,2020-06-24_18h56.21.943,TranslationElicitation_eng-prolific-spa,3.2.4,Win32,60,5ed8bf9551f146017b7ac03e,,1,0,98,21,1,97
,,,,,,,,,,,,,,,,,,,,,,,,,,,,,,,,,,,,,,,,,return,4.799999952,DIEGO,FALSE,,,,,,,23,cerdo,Spanish,Sounds/spa_cerdo.mp3,2020-06-24_18h56.21.943,TranslationElicitation_eng-prolific-spa,3.2.4,Win32,60,5ed8bf9551f146017b7ac03e,4.799999952,1,0,98,21,1,97
,,,,,,,,,,,,,,,,,,,,,,,,,,,,,,,,,,,,,,,,,,,,,,,,,,,23,cerdo,Spanish,Sounds/spa_cerdo.mp3,2020-06-24_18h56.21.943,TranslationElicitation_eng-prolific-spa,3.2.4,Win32,60,5ed8bf9551f146017b7ac03e,,1,0,98,21,1,97
,,,,,,,,,,,,,,,,,,,,,,,,,,,,,,,,,,,,,,,,,p,3.76699996,P,FALSE,,,,,,,76,panal,Spanish,Sounds/spa_panal.mp3,2020-06-24_18h56.21.943,TranslationElicitation_eng-prolific-spa,3.2.4,Win32,60,5ed8bf9551f146017b7ac03e,,1,0,98,71,1,97
,,,,,,,,,,,,,,,,,,,,,,,,,,,,,,,,,,,,,,,,,i,4.849999905,PI,FALSE,,,,,,,76,panal,Spanish,Sounds/spa_panal.mp3,2020-06-24_18h56.21.943,TranslationElicitation_eng-prolific-spa,3.2.4,Win32,60,5ed8bf9551f146017b7ac03e,,1,0,98,71,1,97
,,,,,,,,,,,,,,,,,,,,,,,,,,,,,,,,,,,,,,,,,z,4.917000055,PIZ,FALSE,,,,,,,76,panal,Spanish,Sounds/spa_panal.mp3,2020-06-24_18h56.21.943,TranslationElicitation_eng-prolific-spa,3.2.4,Win32,60,5ed8bf9551f146017b7ac03e,,1,0,98,71,1,97
,,,,,,,,,,,,,,,,,,,,,,,,,,,,,,,,,,,,,,,,,z,5.083999872,PIZZ,FALSE,,,,,,,76,panal,Spanish,Sounds/spa_panal.mp3,2020-06-24_18h56.21.943,TranslationElicitation_eng-prolific-spa,3.2.4,Win32,60,5ed8bf9551f146017b7ac03e,,1,0,98,71,1,97
,,,,,,,,,,,,,,,,,,,,,,,,,,,,,,,,,,,,,,,,,a,5.184000015,PIZZA,FALSE,,,,,,,76,panal,Spanish,Sounds/spa_panal.mp3,2020-06-24_18h56.21.943,TranslationElicitation_eng-prolific-spa,3.2.4,Win32,60,5ed8bf9551f146017b7ac03e,,1,0,98,71,1,97
,,,,,,,,,,,,,,,,,,,,,,,,,,,,,,,,,,,,,,,,,backspace,5.566999912,PIZZ,TRUE,,,,,,,76,panal,Spanish,Sounds/spa_panal.mp3,2020-06-24_18h56.21.943,TranslationElicitation_eng-prolific-spa,3.2.4,Win32,60,5ed8bf9551f146017b7ac03e,,1,0,98,71,1,97
,,,,,,,,,,,,,,,,,,,,,,,,,,,,,,,,,,,,,,,,,backspace,5.717000008,PIZ,TRUE,,,,,,,76,panal,Spanish,Sounds/spa_panal.mp3,2020-06-24_18h56.21.943,TranslationElicitation_eng-prolific-spa,3.2.4,Win32,60,5ed8bf9551f146017b7ac03e,,1,0,98,71,1,97
,,,,,,,,,,,,,,,,,,,,,,,,,,,,,,,,,,,,,,,,,backspace,5.849999905,PI,TRUE,,,,,,,76,panal,Spanish,Sounds/spa_panal.mp3,2020-06-24_18h56.21.943,TranslationElicitation_eng-prolific-spa,3.2.4,Win32,60,5ed8bf9551f146017b7ac03e,,1,0,98,71,1,97
,,,,,,,,,,,,,,,,,,,,,,,,,,,,,,,,,,,,,,,,,backspace,6.599999905,P,TRUE,,,,,,,76,panal,Spanish,Sounds/spa_panal.mp3,2020-06-24_18h56.21.943,TranslationElicitation_eng-prolific-spa,3.2.4,Win32,60,5ed8bf9551f146017b7ac03e,,1,0,98,71,1,97
,,,,,,,,,,,,,,,,,,,,,,,,,,,,,,,,,,,,,,,,,e,6.76699996,PE,TRUE,,,,,,,76,panal,Spanish,Sounds/spa_panal.mp3,2020-06-24_18h56.21.943,TranslationElicitation_eng-prolific-spa,3.2.4,Win32,60,5ed8bf9551f146017b7ac03e,,1,0,98,71,1,97
,,,,,,,,,,,,,,,,,,,,,,,,,,,,,,,,,,,,,,,,,a,6.833999872,PEA,TRUE,,,,,,,76,panal,Spanish,Sounds/spa_panal.mp3,2020-06-24_18h56.21.943,TranslationElicitation_eng-prolific-spa,3.2.4,Win32,60,5ed8bf9551f146017b7ac03e,,1,0,98,71,1,97
,,,,,,,,,,,,,,,,,,,,,,,,,,,,,,,,,,,,,,,,,n,6.950000048,PEAN,TRUE,,,,,,,76,panal,Spanish,Sounds/spa_panal.mp3,2020-06-24_18h56.21.943,TranslationElicitation_eng-prolific-spa,3.2.4,Win32,60,5ed8bf9551f146017b7ac03e,,1,0,98,71,1,97
,,,,,,,,,,,,,,,,,,,,,,,,,,,,,,,,,,,,,,,,,u,7.066999912,PEANU,TRUE,,,,,,,76,panal,Spanish,Sounds/spa_panal.mp3,2020-06-24_18h56.21.943,TranslationElicitation_eng-prolific-spa,3.2.4,Win32,60,5ed8bf9551f146017b7ac03e,,1,0,98,71,1,97
,,,,,,,,,,,,,,,,,,,,,,,,,,,,,,,,,,,,,,,,,t,7.150000095,PEANUT,TRUE,,,,,,,76,panal,Spanish,Sounds/spa_panal.mp3,2020-06-24_18h56.21.943,TranslationElicitation_eng-prolific-spa,3.2.4,Win32,60,5ed8bf9551f146017b7ac03e,,1,0,98,71,1,97
,,,,,,,,,,,,,,,,,,,,,,,,,,,,,,,,,,,,,,,,,return,7.400000095,PEANUT,TRUE,,,,,,,76,panal,Spanish,Sounds/spa_panal.mp3,2020-06-24_18h56.21.943,TranslationElicitation_eng-prolific-spa,3.2.4,Win32,60,5ed8bf9551f146017b7ac03e,7.400000095,1,0,98,71,1,97
,,,,,,,,,,,,,,,,,,,,,,,,,,,,,,,,,,,,,,,,,,,,,,,,,,,76,panal,Spanish,Sounds/spa_panal.mp3,2020-06-24_18h56.21.943,TranslationElicitation_eng-prolific-spa,3.2.4,Win32,60,5ed8bf9551f146017b7ac03e,,1,0,98,71,1,97
,,,,,,,,,,,,,,,,,,,,,,,,,,,,,,,,,,,,,,,,,c,2.049000025,C,FALSE,,,,,,,41,gallina,Spanish,Sounds/spa_gallina.mp3,2020-06-24_18h56.21.943,TranslationElicitation_eng-prolific-spa,3.2.4,Win32,60,5ed8bf9551f146017b7ac03e,,1,0,98,37,1,97
,,,,,,,,,,,,,,,,,,,,,,,,,,,,,,,,,,,,,,,,,o,2.198999882,CO,FALSE,,,,,,,41,gallina,Spanish,Sounds/spa_gallina.mp3,2020-06-24_18h56.21.943,TranslationElicitation_eng-prolific-spa,3.2.4,Win32,60,5ed8bf9551f146017b7ac03e,,1,0,98,37,1,97
,,,,,,,,,,,,,,,,,,,,,,,,,,,,,,,,,,,,,,,,,t,2.465999842,COT,FALSE,,,,,,,41,gallina,Spanish,Sounds/spa_gallina.mp3,2020-06-24_18h56.21.943,TranslationElicitation_eng-prolific-spa,3.2.4,Win32,60,5ed8bf9551f146017b7ac03e,,1,0,98,37,1,97
,,,,,,,,,,,,,,,,,,,,,,,,,,,,,,,,,,,,,,,,,backspace,3.132999897,CO,TRUE,,,,,,,41,gallina,Spanish,Sounds/spa_gallina.mp3,2020-06-24_18h56.21.943,TranslationElicitation_eng-prolific-spa,3.2.4,Win32,60,5ed8bf9551f146017b7ac03e,,1,0,98,37,1,97
,,,,,,,,,,,,,,,,,,,,,,,,,,,,,,,,,,,,,,,,,y,3.415999889,COY,TRUE,,,,,,,41,gallina,Spanish,Sounds/spa_gallina.mp3,2020-06-24_18h56.21.943,TranslationElicitation_eng-prolific-spa,3.2.4,Win32,60,5ed8bf9551f146017b7ac03e,,1,0,98,37,1,97
,,,,,,,,,,,,,,,,,,,,,,,,,,,,,,,,,,,,,,,,,o,3.598999977,COYO,TRUE,,,,,,,41,gallina,Spanish,Sounds/spa_gallina.mp3,2020-06-24_18h56.21.943,TranslationElicitation_eng-prolific-spa,3.2.4,Win32,60,5ed8bf9551f146017b7ac03e,,1,0,98,37,1,97
,,,,,,,,,,,,,,,,,,,,,,,,,,,,,,,,,,,,,,,,,t,3.698999882,COYOT,TRUE,,,,,,,41,gallina,Spanish,Sounds/spa_gallina.mp3,2020-06-24_18h56.21.943,TranslationElicitation_eng-prolific-spa,3.2.4,Win32,60,5ed8bf9551f146017b7ac03e,,1,0,98,37,1,97
,,,,,,,,,,,,,,,,,,,,,,,,,,,,,,,,,,,,,,,,,e,3.782999992,COYOTE,TRUE,,,,,,,41,gallina,Spanish,Sounds/spa_gallina.mp3,2020-06-24_18h56.21.943,TranslationElicitation_eng-prolific-spa,3.2.4,Win32,60,5ed8bf9551f146017b7ac03e,,1,0,98,37,1,97
,,,,,,,,,,,,,,,,,,,,,,,,,,,,,,,,,,,,,,,,,return,4.932999849,COYOTE,TRUE,,,,,,,41,gallina,Spanish,Sounds/spa_gallina.mp3,2020-06-24_18h56.21.943,TranslationElicitation_eng-prolific-spa,3.2.4,Win32,60,5ed8bf9551f146017b7ac03e,4.932999849,1,0,98,37,1,97
,,,,,,,,,,,,,,,,,,,,,,,,,,,,,,,,,,,,,,,,,,,,,,,,,,,41,gallina,Spanish,Sounds/spa_gallina.mp3,2020-06-24_18h56.21.943,TranslationElicitation_eng-prolific-spa,3.2.4,Win32,60,5ed8bf9551f146017b7ac03e,,1,0,98,37,1,97
,,,,,,,,,,,,,,,,,,,,,,,,,,,,,,,,,,,,,,,,,b,1.96600008,B,FALSE,,,,,,,5,bici,Spanish,Sounds/spa_bici.mp3,2020-06-24_18h56.21.943,TranslationElicitation_eng-prolific-spa,3.2.4,Win32,60,5ed8bf9551f146017b7ac03e,,1,0,98,3,1,97
,,,,,,,,,,,,,,,,,,,,,,,,,,,,,,,,,,,,,,,,,e,2.133000135,BE,FALSE,,,,,,,5,bici,Spanish,Sounds/spa_bici.mp3,2020-06-24_18h56.21.943,TranslationElicitation_eng-prolific-spa,3.2.4,Win32,60,5ed8bf9551f146017b7ac03e,,1,0,98,3,1,97
,,,,,,,,,,,,,,,,,,,,,,,,,,,,,,,,,,,,,,,,,e,2.300000191,BEE,FALSE,,,,,,,5,bici,Spanish,Sounds/spa_bici.mp3,2020-06-24_18h56.21.943,TranslationElicitation_eng-prolific-spa,3.2.4,Win32,60,5ed8bf9551f146017b7ac03e,,1,0,98,3,1,97
,,,,,,,,,,,,,,,,,,,,,,,,,,,,,,,,,,,,,,,,,f,2.383000135,BEEF,FALSE,,,,,,,5,bici,Spanish,Sounds/spa_bici.mp3,2020-06-24_18h56.21.943,TranslationElicitation_eng-prolific-spa,3.2.4,Win32,60,5ed8bf9551f146017b7ac03e,,1,0,98,3,1,97
,,,,,,,,,,,,,,,,,,,,,,,,,,,,,,,,,,,,,,,,,y,2.616000175,BEEFY,FALSE,,,,,,,5,bici,Spanish,Sounds/spa_bici.mp3,2020-06-24_18h56.21.943,TranslationElicitation_eng-prolific-spa,3.2.4,Win32,60,5ed8bf9551f146017b7ac03e,,1,0,98,3,1,97
,,,,,,,,,,,,,,,,,,,,,,,,,,,,,,,,,,,,,,,,,return,2.833000183,BEEFY,FALSE,,,,,,,5,bici,Spanish,Sounds/spa_bici.mp3,2020-06-24_18h56.21.943,TranslationElicitation_eng-prolific-spa,3.2.4,Win32,60,5ed8bf9551f146017b7ac03e,2.833000183,1,0,98,3,1,97
,,,,,,,,,,,,,,,,,,,,,,,,,,,,,,,,,,,,,,,,,,,,,,,,,,,5,bici,Spanish,Sounds/spa_bici.mp3,2020-06-24_18h56.21.943,TranslationElicitation_eng-prolific-spa,3.2.4,Win32,60,5ed8bf9551f146017b7ac03e,,1,0,98,3,1,97
,,,,,,,,,,,,,,,,,,,,,,,,,,,,,,,,,,,,,,,,,c,2.316999912,C,FALSE,,,,,,,17,calcetin,Spanish,Sounds/spa_calcetin.mp3,2020-06-24_18h56.21.943,TranslationElicitation_eng-prolific-spa,3.2.4,Win32,60,5ed8bf9551f146017b7ac03e,,1,0,98,15,1,97
,,,,,,,,,,,,,,,,,,,,,,,,,,,,,,,,,,,,,,,,,backspace,2.76699996,,TRUE,,,,,,,17,calcetin,Spanish,Sounds/spa_calcetin.mp3,2020-06-24_18h56.21.943,TranslationElicitation_eng-prolific-spa,3.2.4,Win32,60,5ed8bf9551f146017b7ac03e,,1,0,98,15,1,97
,,,,,,,,,,,,,,,,,,,,,,,,,,,,,,,,,,,,,,,,,c,3.066999912,C,TRUE,,,,,,,17,calcetin,Spanish,Sounds/spa_calcetin.mp3,2020-06-24_18h56.21.943,TranslationElicitation_eng-prolific-spa,3.2.4,Win32,60,5ed8bf9551f146017b7ac03e,,1,0,98,15,1,97
,,,,,,,,,,,,,,,,,,,,,,,,,,,,,,,,,,,,,,,,,backspace,3.849999905,,TRUE,,,,,,,17,calcetin,Spanish,Sounds/spa_calcetin.mp3,2020-06-24_18h56.21.943,TranslationElicitation_eng-prolific-spa,3.2.4,Win32,60,5ed8bf9551f146017b7ac03e,,1,0,98,15,1,97
,,,,,,,,,,,,,,,,,,,,,,,,,,,,,,,,,,,,,,,,,c,4.48300004,C,TRUE,,,,,,,17,calcetin,Spanish,Sounds/spa_calcetin.mp3,2020-06-24_18h56.21.943,TranslationElicitation_eng-prolific-spa,3.2.4,Win32,60,5ed8bf9551f146017b7ac03e,,1,0,98,15,1,97
,,,,,,,,,,,,,,,,,,,,,,,,,,,,,,,,,,,,,,,,,a,4.616999865,CA,TRUE,,,,,,,17,calcetin,Spanish,Sounds/spa_calcetin.mp3,2020-06-24_18h56.21.943,TranslationElicitation_eng-prolific-spa,3.2.4,Win32,60,5ed8bf9551f146017b7ac03e,,1,0,98,15,1,97
,,,,,,,,,,,,,,,,,,,,,,,,,,,,,,,,,,,,,,,,,n,4.76699996,CAN,TRUE,,,,,,,17,calcetin,Spanish,Sounds/spa_calcetin.mp3,2020-06-24_18h56.21.943,TranslationElicitation_eng-prolific-spa,3.2.4,Win32,60,5ed8bf9551f146017b7ac03e,,1,0,98,15,1,97
,,,,,,,,,,,,,,,,,,,,,,,,,,,,,,,,,,,,,,,,,t,4.832999945,CANT,TRUE,,,,,,,17,calcetin,Spanish,Sounds/spa_calcetin.mp3,2020-06-24_18h56.21.943,TranslationElicitation_eng-prolific-spa,3.2.4,Win32,60,5ed8bf9551f146017b7ac03e,,1,0,98,15,1,97
,,,,,,,,,,,,,,,,,,,,,,,,,,,,,,,,,,,,,,,,,e,4.967000008,CANTE,TRUE,,,,,,,17,calcetin,Spanish,Sounds/spa_calcetin.mp3,2020-06-24_18h56.21.943,TranslationElicitation_eng-prolific-spa,3.2.4,Win32,60,5ed8bf9551f146017b7ac03e,,1,0,98,15,1,97
,,,,,,,,,,,,,,,,,,,,,,,,,,,,,,,,,,,,,,,,,e,5.116999865,CANTEE,TRUE,,,,,,,17,calcetin,Spanish,Sounds/spa_calcetin.mp3,2020-06-24_18h56.21.943,TranslationElicitation_eng-prolific-spa,3.2.4,Win32,60,5ed8bf9551f146017b7ac03e,,1,0,98,15,1,97
,,,,,,,,,,,,,,,,,,,,,,,,,,,,,,,,,,,,,,,,,n,5.25,CANTEEN,TRUE,,,,,,,17,calcetin,Spanish,Sounds/spa_calcetin.mp3,2020-06-24_18h56.21.943,TranslationElicitation_eng-prolific-spa,3.2.4,Win32,60,5ed8bf9551f146017b7ac03e,,1,0,98,15,1,97
,,,,,,,,,,,,,,,,,,,,,,,,,,,,,,,,,,,,,,,,,return,5.666999817,CANTEEN,TRUE,,,,,,,17,calcetin,Spanish,Sounds/spa_calcetin.mp3,2020-06-24_18h56.21.943,TranslationElicitation_eng-prolific-spa,3.2.4,Win32,60,5ed8bf9551f146017b7ac03e,5.666999817,1,0,98,15,1,97
,,,,,,,,,,,,,,,,,,,,,,,,,,,,,,,,,,,,,,,,,,,,,,,,,,,17,calcetin,Spanish,Sounds/spa_calcetin.mp3,2020-06-24_18h56.21.943,TranslationElicitation_eng-prolific-spa,3.2.4,Win32,60,5ed8bf9551f146017b7ac03e,,1,0,98,15,1,97
,,,,,,,,,,,,,,,,,,,,,,,,,,,,,,,,,,,,,,,,,f,1.700000048,F,FALSE,,,,,,,21,cebra,Spanish,Sounds/spa_cebra.mp3,2020-06-24_18h56.21.943,TranslationElicitation_eng-prolific-spa,3.2.4,Win32,60,5ed8bf9551f146017b7ac03e,,1,0,98,19,1,97
,,,,,,,,,,,,,,,,,,,,,,,,,,,,,,,,,,,,,,,,,a,1.782999992,FA,FALSE,,,,,,,21,cebra,Spanish,Sounds/spa_cebra.mp3,2020-06-24_18h56.21.943,TranslationElicitation_eng-prolific-spa,3.2.4,Win32,60,5ed8bf9551f146017b7ac03e,,1,0,98,19,1,97
,,,,,,,,,,,,,,,,,,,,,,,,,,,,,,,,,,,,,,,,,v,1.933000088,FAV,FALSE,,,,,,,21,cebra,Spanish,Sounds/spa_cebra.mp3,2020-06-24_18h56.21.943,TranslationElicitation_eng-prolific-spa,3.2.4,Win32,60,5ed8bf9551f146017b7ac03e,,1,0,98,19,1,97
,,,,,,,,,,,,,,,,,,,,,,,,,,,,,,,,,,,,,,,,,o,2.23300004,FAVO,FALSE,,,,,,,21,cebra,Spanish,Sounds/spa_cebra.mp3,2020-06-24_18h56.21.943,TranslationElicitation_eng-prolific-spa,3.2.4,Win32,60,5ed8bf9551f146017b7ac03e,,1,0,98,19,1,97
,,,,,,,,,,,,,,,,,,,,,,,,,,,,,,,,,,,,,,,,,u,2.351000071,FAVOU,FALSE,,,,,,,21,cebra,Spanish,Sounds/spa_cebra.mp3,2020-06-24_18h56.21.943,TranslationElicitation_eng-prolific-spa,3.2.4,Win32,60,5ed8bf9551f146017b7ac03e,,1,0,98,19,1,97
,,,,,,,,,,,,,,,,,,,,,,,,,,,,,,,,,,,,,,,,,r,2.48300004,FAVOUR,FALSE,,,,,,,21,cebra,Spanish,Sounds/spa_cebra.mp3,2020-06-24_18h56.21.943,TranslationElicitation_eng-prolific-spa,3.2.4,Win32,60,5ed8bf9551f146017b7ac03e,,1,0,98,19,1,97
,,,,,,,,,,,,,,,,,,,,,,,,,,,,,,,,,,,,,,,,,i,2.583000183,FAVOURI,FALSE,,,,,,,21,cebra,Spanish,Sounds/spa_cebra.mp3,2020-06-24_18h56.21.943,TranslationElicitation_eng-prolific-spa,3.2.4,Win32,60,5ed8bf9551f146017b7ac03e,,1,0,98,19,1,97
,,,,,,,,,,,,,,,,,,,,,,,,,,,,,,,,,,,,,,,,,t,2.666000128,FAVOURIT,FALSE,,,,,,,21,cebra,Spanish,Sounds/spa_cebra.mp3,2020-06-24_18h56.21.943,TranslationElicitation_eng-prolific-spa,3.2.4,Win32,60,5ed8bf9551f146017b7ac03e,,1,0,98,19,1,97
,,,,,,,,,,,,,,,,,,,,,,,,,,,,,,,,,,,,,,,,,e,2.717000008,FAVOURITE,FALSE,,,,,,,21,cebra,Spanish,Sounds/spa_cebra.mp3,2020-06-24_18h56.21.943,TranslationElicitation_eng-prolific-spa,3.2.4,Win32,60,5ed8bf9551f146017b7ac03e,,1,0,98,19,1,97
,,,,,,,,,,,,,,,,,,,,,,,,,,,,,,,,,,,,,,,,,return,2.950000048,FAVOURITE,FALSE,,,,,,,21,cebra,Spanish,Sounds/spa_cebra.mp3,2020-06-24_18h56.21.943,TranslationElicitation_eng-prolific-spa,3.2.4,Win32,60,5ed8bf9551f146017b7ac03e,2.950000048,1,0,98,19,1,97
,,,,,,,,,,,,,,,,,,,,,,,,,,,,,,,,,,,,,,,,,,,,,,,,,,,21,cebra,Spanish,Sounds/spa_cebra.mp3,2020-06-24_18h56.21.943,TranslationElicitation_eng-prolific-spa,3.2.4,Win32,60,5ed8bf9551f146017b7ac03e,,1,0,98,19,1,97
,,,,,,,,,,,,,,,,,,,,,,,,,,,,,,,,,,,,,,,,,c,5.299999952,C,FALSE,,,,,,,19,camiseta,Spanish,Sounds/spa_camiseta.mp3,2020-06-24_18h56.21.943,TranslationElicitation_eng-prolific-spa,3.2.4,Win32,60,5ed8bf9551f146017b7ac03e,,1,0,98,17,1,97
,,,,,,,,,,,,,,,,,,,,,,,,,,,,,,,,,,,,,,,,,a,5.417000055,CA,FALSE,,,,,,,19,camiseta,Spanish,Sounds/spa_camiseta.mp3,2020-06-24_18h56.21.943,TranslationElicitation_eng-prolific-spa,3.2.4,Win32,60,5ed8bf9551f146017b7ac03e,,1,0,98,17,1,97
,,,,,,,,,,,,,,,,,,,,,,,,,,,,,,,,,,,,,,,,,s,5.534000158,CAS,FALSE,,,,,,,19,camiseta,Spanish,Sounds/spa_camiseta.mp3,2020-06-24_18h56.21.943,TranslationElicitation_eng-prolific-spa,3.2.4,Win32,60,5ed8bf9551f146017b7ac03e,,1,0,98,17,1,97
,,,,,,,,,,,,,,,,,,,,,,,,,,,,,,,,,,,,,,,,,e,5.850000143,CASE,FALSE,,,,,,,19,camiseta,Spanish,Sounds/spa_camiseta.mp3,2020-06-24_18h56.21.943,TranslationElicitation_eng-prolific-spa,3.2.4,Win32,60,5ed8bf9551f146017b7ac03e,,1,0,98,17,1,97
,,,,,,,,,,,,,,,,,,,,,,,,,,,,,,,,,,,,,,,,,t,6.082999945,CASET,FALSE,,,,,,,19,camiseta,Spanish,Sounds/spa_camiseta.mp3,2020-06-24_18h56.21.943,TranslationElicitation_eng-prolific-spa,3.2.4,Win32,60,5ed8bf9551f146017b7ac03e,,1,0,98,17,1,97
,,,,,,,,,,,,,,,,,,,,,,,,,,,,,,,,,,,,,,,,,t,6.235000134,CASETT,FALSE,,,,,,,19,camiseta,Spanish,Sounds/spa_camiseta.mp3,2020-06-24_18h56.21.943,TranslationElicitation_eng-prolific-spa,3.2.4,Win32,60,5ed8bf9551f146017b7ac03e,,1,0,98,17,1,97
,,,,,,,,,,,,,,,,,,,,,,,,,,,,,,,,,,,,,,,,,e,6.299999952,CASETTE,FALSE,,,,,,,19,camiseta,Spanish,Sounds/spa_camiseta.mp3,2020-06-24_18h56.21.943,TranslationElicitation_eng-prolific-spa,3.2.4,Win32,60,5ed8bf9551f146017b7ac03e,,1,0,98,17,1,97
,,,,,,,,,,,,,,,,,,,,,,,,,,,,,,,,,,,,,,,,,return,6.935000181,CASETTE,FALSE,,,,,,,19,camiseta,Spanish,Sounds/spa_camiseta.mp3,2020-06-24_18h56.21.943,TranslationElicitation_eng-prolific-spa,3.2.4,Win32,60,5ed8bf9551f146017b7ac03e,6.935000181,1,0,98,17,1,97
,,,,,,,,,,,,,,,,,,,,,,,,,,,,,,,,,,,,,,,,,,,,,,,,,,,19,camiseta,Spanish,Sounds/spa_camiseta.mp3,2020-06-24_18h56.21.943,TranslationElicitation_eng-prolific-spa,3.2.4,Win32,60,5ed8bf9551f146017b7ac03e,,1,0,98,17,1,97
,,,,,,,,,,,,,,,,,,,,,,,,,,,,,,,,,,,,,,,,,b,2.416000128,B,FALSE,,,,,,,12,brazo,Spanish,Sounds/spa_brazo.mp3,2020-06-24_18h56.21.943,TranslationElicitation_eng-prolific-spa,3.2.4,Win32,60,5ed8bf9551f146017b7ac03e,,1,0,98,10,1,97
,,,,,,,,,,,,,,,,,,,,,,,,,,,,,,,,,,,,,,,,,r,2.600000143,BR,FALSE,,,,,,,12,brazo,Spanish,Sounds/spa_brazo.mp3,2020-06-24_18h56.21.943,TranslationElicitation_eng-prolific-spa,3.2.4,Win32,60,5ed8bf9551f146017b7ac03e,,1,0,98,10,1,97
,,,,,,,,,,,,,,,,,,,,,,,,,,,,,,,,,,,,,,,,,o,2.73300004,BRO,FALSE,,,,,,,12,brazo,Spanish,Sounds/spa_brazo.mp3,2020-06-24_18h56.21.943,TranslationElicitation_eng-prolific-spa,3.2.4,Win32,60,5ed8bf9551f146017b7ac03e,,1,0,98,10,1,97
,,,,,,,,,,,,,,,,,,,,,,,,,,,,,,,,,,,,,,,,,n,2.815999985,BRON,FALSE,,,,,,,12,brazo,Spanish,Sounds/spa_brazo.mp3,2020-06-24_18h56.21.943,TranslationElicitation_eng-prolific-spa,3.2.4,Win32,60,5ed8bf9551f146017b7ac03e,,1,0,98,10,1,97
,,,,,,,,,,,,,,,,,,,,,,,,,,,,,,,,,,,,,,,,,z,2.98300004,BRONZ,FALSE,,,,,,,12,brazo,Spanish,Sounds/spa_brazo.mp3,2020-06-24_18h56.21.943,TranslationElicitation_eng-prolific-spa,3.2.4,Win32,60,5ed8bf9551f146017b7ac03e,,1,0,98,10,1,97
,,,,,,,,,,,,,,,,,,,,,,,,,,,,,,,,,,,,,,,,,e,3.115999937,BRONZE,FALSE,,,,,,,12,brazo,Spanish,Sounds/spa_brazo.mp3,2020-06-24_18h56.21.943,TranslationElicitation_eng-prolific-spa,3.2.4,Win32,60,5ed8bf9551f146017b7ac03e,,1,0,98,10,1,97
,,,,,,,,,,,,,,,,,,,,,,,,,,,,,,,,,,,,,,,,,return,3.450000048,BRONZE,FALSE,,,,,,,12,brazo,Spanish,Sounds/spa_brazo.mp3,2020-06-24_18h56.21.943,TranslationElicitation_eng-prolific-spa,3.2.4,Win32,60,5ed8bf9551f146017b7ac03e,3.450000048,1,0,98,10,1,97
,,,,,,,,,,,,,,,,,,,,,,,,,,,,,,,,,,,,,,,,,,,,,,,,,,,12,brazo,Spanish,Sounds/spa_brazo.mp3,2020-06-24_18h56.21.943,TranslationElicitation_eng-prolific-spa,3.2.4,Win32,60,5ed8bf9551f146017b7ac03e,,1,0,98,10,1,97
,,,,,,,,,,,,,,,,,,,,,,,,,,,,,,,,,,,,,,,,,f,1.615999937,F,FALSE,,,,,,,37,flor,Spanish,Sounds/spa_flor.mp3,2020-06-24_18h56.21.943,TranslationElicitation_eng-prolific-spa,3.2.4,Win32,60,5ed8bf9551f146017b7ac03e,,1,0,98,33,1,97
,,,,,,,,,,,,,,,,,,,,,,,,,,,,,,,,,,,,,,,,,l,1.71600008,FL,FALSE,,,,,,,37,flor,Spanish,Sounds/spa_flor.mp3,2020-06-24_18h56.21.943,TranslationElicitation_eng-prolific-spa,3.2.4,Win32,60,5ed8bf9551f146017b7ac03e,,1,0,98,33,1,97
,,,,,,,,,,,,,,,,,,,,,,,,,,,,,,,,,,,,,,,,,o,1.865999937,FLO,FALSE,,,,,,,37,flor,Spanish,Sounds/spa_flor.mp3,2020-06-24_18h56.21.943,TranslationElicitation_eng-prolific-spa,3.2.4,Win32,60,5ed8bf9551f146017b7ac03e,,1,0,98,33,1,97
,,,,,,,,,,,,,,,,,,,,,,,,,,,,,,,,,,,,,,,,,o,2,FLOO,FALSE,,,,,,,37,flor,Spanish,Sounds/spa_flor.mp3,2020-06-24_18h56.21.943,TranslationElicitation_eng-prolific-spa,3.2.4,Win32,60,5ed8bf9551f146017b7ac03e,,1,0,98,33,1,97
,,,,,,,,,,,,,,,,,,,,,,,,,,,,,,,,,,,,,,,,,r,2.082999945,FLOOR,FALSE,,,,,,,37,flor,Spanish,Sounds/spa_flor.mp3,2020-06-24_18h56.21.943,TranslationElicitation_eng-prolific-spa,3.2.4,Win32,60,5ed8bf9551f146017b7ac03e,,1,0,98,33,1,97
,,,,,,,,,,,,,,,,,,,,,,,,,,,,,,,,,,,,,,,,,return,2.299999952,FLOOR,FALSE,,,,,,,37,flor,Spanish,Sounds/spa_flor.mp3,2020-06-24_18h56.21.943,TranslationElicitation_eng-prolific-spa,3.2.4,Win32,60,5ed8bf9551f146017b7ac03e,2.299999952,1,0,98,33,1,97
,,,,,,,,,,,,,,,,,,,,,,,,,,,,,,,,,,,,,,,,,,,,,,,,,,,37,flor,Spanish,Sounds/spa_flor.mp3,2020-06-24_18h56.21.943,TranslationElicitation_eng-prolific-spa,3.2.4,Win32,60,5ed8bf9551f146017b7ac03e,,1,0,98,33,1,97
,,,,,,,,,,,,,,,,,,,,,,,,,,,,,,,,,,,,,,,,,p,1.883000135,P,FALSE,,,,,,,86,pingino,Spanish,Sounds/spa_pinguino.mp3,2020-06-24_18h56.21.943,TranslationElicitation_eng-prolific-spa,3.2.4,Win32,60,5ed8bf9551f146017b7ac03e,,1,0,98,81,1,97
,,,,,,,,,,,,,,,,,,,,,,,,,,,,,,,,,,,,,,,,,e,2,PE,FALSE,,,,,,,86,pingino,Spanish,Sounds/spa_pinguino.mp3,2020-06-24_18h56.21.943,TranslationElicitation_eng-prolific-spa,3.2.4,Win32,60,5ed8bf9551f146017b7ac03e,,1,0,98,81,1,97
,,,,,,,,,,,,,,,,,,,,,,,,,,,,,,,,,,,,,,,,,n,2.150000095,PEN,FALSE,,,,,,,86,pingino,Spanish,Sounds/spa_pinguino.mp3,2020-06-24_18h56.21.943,TranslationElicitation_eng-prolific-spa,3.2.4,Win32,60,5ed8bf9551f146017b7ac03e,,1,0,98,81,1,97
,,,,,,,,,,,,,,,,,,,,,,,,,,,,,,,,,,,,,,,,,g,2.23300004,PENG,FALSE,,,,,,,86,pingino,Spanish,Sounds/spa_pinguino.mp3,2020-06-24_18h56.21.943,TranslationElicitation_eng-prolific-spa,3.2.4,Win32,60,5ed8bf9551f146017b7ac03e,,1,0,98,81,1,97
,,,,,,,,,,,,,,,,,,,,,,,,,,,,,,,,,,,,,,,,,u,2.350000143,PENGU,FALSE,,,,,,,86,pingino,Spanish,Sounds/spa_pinguino.mp3,2020-06-24_18h56.21.943,TranslationElicitation_eng-prolific-spa,3.2.4,Win32,60,5ed8bf9551f146017b7ac03e,,1,0,98,81,1,97
,,,,,,,,,,,,,,,,,,,,,,,,,,,,,,,,,,,,,,,,,i,2.5,PENGUI,FALSE,,,,,,,86,pingino,Spanish,Sounds/spa_pinguino.mp3,2020-06-24_18h56.21.943,TranslationElicitation_eng-prolific-spa,3.2.4,Win32,60,5ed8bf9551f146017b7ac03e,,1,0,98,81,1,97
,,,,,,,,,,,,,,,,,,,,,,,,,,,,,,,,,,,,,,,,,n,2.549999952,PENGUIN,FALSE,,,,,,,86,pingino,Spanish,Sounds/spa_pinguino.mp3,2020-06-24_18h56.21.943,TranslationElicitation_eng-prolific-spa,3.2.4,Win32,60,5ed8bf9551f146017b7ac03e,,1,0,98,81,1,97
,,,,,,,,,,,,,,,,,,,,,,,,,,,,,,,,,,,,,,,,,return,2.96600008,PENGUIN,FALSE,,,,,,,86,pingino,Spanish,Sounds/spa_pinguino.mp3,2020-06-24_18h56.21.943,TranslationElicitation_eng-prolific-spa,3.2.4,Win32,60,5ed8bf9551f146017b7ac03e,2.96600008,1,0,98,81,1,97
,,,,,,,,,,,,,,,,,,,,,,,,,,,,,,,,,,,,,,,,,,,,,,,,,,,86,pingino,Spanish,Sounds/spa_pinguino.mp3,2020-06-24_18h56.21.943,TranslationElicitation_eng-prolific-spa,3.2.4,Win32,60,5ed8bf9551f146017b7ac03e,,1,0,98,81,1,97
,,,,,,,,,,,,,,,,,,,,,,,,,,,,,,,,,,,,,,,,,g,2.434000015,G,FALSE,,,,,,,31,cubo,Spanish,Sounds/spa_cubo.mp3,2020-06-24_18h56.21.943,TranslationElicitation_eng-prolific-spa,3.2.4,Win32,60,5ed8bf9551f146017b7ac03e,,1,0,98,27,1,97
,,,,,,,,,,,,,,,,,,,,,,,,,,,,,,,,,,,,,,,,,h,2.599999905,GH,FALSE,,,,,,,31,cubo,Spanish,Sounds/spa_cubo.mp3,2020-06-24_18h56.21.943,TranslationElicitation_eng-prolific-spa,3.2.4,Win32,60,5ed8bf9551f146017b7ac03e,,1,0,98,27,1,97
,,,,,,,,,,,,,,,,,,,,,,,,,,,,,,,,,,,,,,,,,o,2.700000048,GHO,FALSE,,,,,,,31,cubo,Spanish,Sounds/spa_cubo.mp3,2020-06-24_18h56.21.943,TranslationElicitation_eng-prolific-spa,3.2.4,Win32,60,5ed8bf9551f146017b7ac03e,,1,0,98,27,1,97
,,,,,,,,,,,,,,,,,,,,,,,,,,,,,,,,,,,,,,,,,u,2.816999912,GHOU,FALSE,,,,,,,31,cubo,Spanish,Sounds/spa_cubo.mp3,2020-06-24_18h56.21.943,TranslationElicitation_eng-prolific-spa,3.2.4,Win32,60,5ed8bf9551f146017b7ac03e,,1,0,98,27,1,97
,,,,,,,,,,,,,,,,,,,,,,,,,,,,,,,,,,,,,,,,,l,2.934000015,GHOUL,FALSE,,,,,,,31,cubo,Spanish,Sounds/spa_cubo.mp3,2020-06-24_18h56.21.943,TranslationElicitation_eng-prolific-spa,3.2.4,Win32,60,5ed8bf9551f146017b7ac03e,,1,0,98,27,1,97
,,,,,,,,,,,,,,,,,,,,,,,,,,,,,,,,,,,,,,,,,return,6.700000048,GHOUL,FALSE,,,,,,,31,cubo,Spanish,Sounds/spa_cubo.mp3,2020-06-24_18h56.21.943,TranslationElicitation_eng-prolific-spa,3.2.4,Win32,60,5ed8bf9551f146017b7ac03e,6.700000048,1,0,98,27,1,97
,,,,,,,,,,,,,,,,,,,,,,,,,,,,,,,,,,,,,,,,,,,,,,,,,,,31,cubo,Spanish,Sounds/spa_cubo.mp3,2020-06-24_18h56.21.943,TranslationElicitation_eng-prolific-spa,3.2.4,Win32,60,5ed8bf9551f146017b7ac03e,,1,0,98,27,1,97
,,,,,,,,,,,,,,,,,,,,,,,,,,,,,,,,,,,,,,,,,g,2.183000088,G,FALSE,,,,,,,91,puerta,Spanish,Sounds/spa_puerta.mp3,2020-06-24_18h56.21.943,TranslationElicitation_eng-prolific-spa,3.2.4,Win32,60,5ed8bf9551f146017b7ac03e,,1,0,98,86,1,97
,,,,,,,,,,,,,,,,,,,,,,,,,,,,,,,,,,,,,,,,,o,2.332999945,GO,FALSE,,,,,,,91,puerta,Spanish,Sounds/spa_puerta.mp3,2020-06-24_18h56.21.943,TranslationElicitation_eng-prolific-spa,3.2.4,Win32,60,5ed8bf9551f146017b7ac03e,,1,0,98,86,1,97
,,,,,,,,,,,,,,,,,,,,,,,,,,,,,,,,,,,,,,,,,o,2.48300004,GOO,FALSE,,,,,,,91,puerta,Spanish,Sounds/spa_puerta.mp3,2020-06-24_18h56.21.943,TranslationElicitation_eng-prolific-spa,3.2.4,Win32,60,5ed8bf9551f146017b7ac03e,,1,0,98,86,1,97
,,,,,,,,,,,,,,,,,,,,,,,,,,,,,,,,,,,,,,,,,d,2.549000025,GOOD,FALSE,,,,,,,91,puerta,Spanish,Sounds/spa_puerta.mp3,2020-06-24_18h56.21.943,TranslationElicitation_eng-prolific-spa,3.2.4,Win32,60,5ed8bf9551f146017b7ac03e,,1,0,98,86,1,97
,,,,,,,,,,,,,,,,,,,,,,,,,,,,,,,,,,,,,,,,,n,2.865999937,GOODN,FALSE,,,,,,,91,puerta,Spanish,Sounds/spa_puerta.mp3,2020-06-24_18h56.21.943,TranslationElicitation_eng-prolific-spa,3.2.4,Win32,60,5ed8bf9551f146017b7ac03e,,1,0,98,86,1,97
,,,,,,,,,,,,,,,,,,,,,,,,,,,,,,,,,,,,,,,,,e,3,GOODNE,FALSE,,,,,,,91,puerta,Spanish,Sounds/spa_puerta.mp3,2020-06-24_18h56.21.943,TranslationElicitation_eng-prolific-spa,3.2.4,Win32,60,5ed8bf9551f146017b7ac03e,,1,0,98,86,1,97
,,,,,,,,,,,,,,,,,,,,,,,,,,,,,,,,,,,,,,,,,s,3.285000086,GOODNES,FALSE,,,,,,,91,puerta,Spanish,Sounds/spa_puerta.mp3,2020-06-24_18h56.21.943,TranslationElicitation_eng-prolific-spa,3.2.4,Win32,60,5ed8bf9551f146017b7ac03e,,1,0,98,86,1,97
,,,,,,,,,,,,,,,,,,,,,,,,,,,,,,,,,,,,,,,,,s,3.448999882,GOODNESS,FALSE,,,,,,,91,puerta,Spanish,Sounds/spa_puerta.mp3,2020-06-24_18h56.21.943,TranslationElicitation_eng-prolific-spa,3.2.4,Win32,60,5ed8bf9551f146017b7ac03e,,1,0,98,86,1,97
,,,,,,,,,,,,,,,,,,,,,,,,,,,,,,,,,,,,,,,,,return,4.599999905,GOODNESS,FALSE,,,,,,,91,puerta,Spanish,Sounds/spa_puerta.mp3,2020-06-24_18h56.21.943,TranslationElicitation_eng-prolific-spa,3.2.4,Win32,60,5ed8bf9551f146017b7ac03e,4.599999905,1,0,98,86,1,97
,,,,,,,,,,,,,,,,,,,,,,,,,,,,,,,,,,,,,,,,,,,,,,,,,,,91,puerta,Spanish,Sounds/spa_puerta.mp3,2020-06-24_18h56.21.943,TranslationElicitation_eng-prolific-spa,3.2.4,Win32,60,5ed8bf9551f146017b7ac03e,,1,0,98,86,1,97
,,,,,,,,,,,,,,,,,,,,,,,,,,,,,,,,,,,,,,,,,e,2.899000168,E,FALSE,,,,,,,34,ensalada,Spanish,Sounds/spa_ensalada.mp3,2020-06-24_18h56.21.943,TranslationElicitation_eng-prolific-spa,3.2.4,Win32,60,5ed8bf9551f146017b7ac03e,,1,0,98,30,1,97
,,,,,,,,,,,,,,,,,,,,,,,,,,,,,,,,,,,,,,,,,n,3.049000025,EN,FALSE,,,,,,,34,ensalada,Spanish,Sounds/spa_ensalada.mp3,2020-06-24_18h56.21.943,TranslationElicitation_eng-prolific-spa,3.2.4,Win32,60,5ed8bf9551f146017b7ac03e,,1,0,98,30,1,97
,,,,,,,,,,,,,,,,,,,,,,,,,,,,,,,,,,,,,,,,,c,3.149000168,ENC,FALSE,,,,,,,34,ensalada,Spanish,Sounds/spa_ensalada.mp3,2020-06-24_18h56.21.943,TranslationElicitation_eng-prolific-spa,3.2.4,Win32,60,5ed8bf9551f146017b7ac03e,,1,0,98,30,1,97
,,,,,,,,,,,,,,,,,,,,,,,,,,,,,,,,,,,,,,,,,h,3.23300004,ENCH,FALSE,,,,,,,34,ensalada,Spanish,Sounds/spa_ensalada.mp3,2020-06-24_18h56.21.943,TranslationElicitation_eng-prolific-spa,3.2.4,Win32,60,5ed8bf9551f146017b7ac03e,,1,0,98,30,1,97
,,,,,,,,,,,,,,,,,,,,,,,,,,,,,,,,,,,,,,,,,i,3.350000143,ENCHI,FALSE,,,,,,,34,ensalada,Spanish,Sounds/spa_ensalada.mp3,2020-06-24_18h56.21.943,TranslationElicitation_eng-prolific-spa,3.2.4,Win32,60,5ed8bf9551f146017b7ac03e,,1,0,98,30,1,97
,,,,,,,,,,,,,,,,,,,,,,,,,,,,,,,,,,,,,,,,,l,3.516000032,ENCHIL,FALSE,,,,,,,34,ensalada,Spanish,Sounds/spa_ensalada.mp3,2020-06-24_18h56.21.943,TranslationElicitation_eng-prolific-spa,3.2.4,Win32,60,5ed8bf9551f146017b7ac03e,,1,0,98,30,1,97
,,,,,,,,,,,,,,,,,,,,,,,,,,,,,,,,,,,,,,,,,a,3.666000128,ENCHILA,FALSE,,,,,,,34,ensalada,Spanish,Sounds/spa_ensalada.mp3,2020-06-24_18h56.21.943,TranslationElicitation_eng-prolific-spa,3.2.4,Win32,60,5ed8bf9551f146017b7ac03e,,1,0,98,30,1,97
,,,,,,,,,,,,,,,,,,,,,,,,,,,,,,,,,,,,,,,,,d,3.73300004,ENCHILAD,FALSE,,,,,,,34,ensalada,Spanish,Sounds/spa_ensalada.mp3,2020-06-24_18h56.21.943,TranslationElicitation_eng-prolific-spa,3.2.4,Win32,60,5ed8bf9551f146017b7ac03e,,1,0,98,30,1,97
,,,,,,,,,,,,,,,,,,,,,,,,,,,,,,,,,,,,,,,,,a,3.848999977,ENCHILADA,FALSE,,,,,,,34,ensalada,Spanish,Sounds/spa_ensalada.mp3,2020-06-24_18h56.21.943,TranslationElicitation_eng-prolific-spa,3.2.4,Win32,60,5ed8bf9551f146017b7ac03e,,1,0,98,30,1,97
,,,,,,,,,,,,,,,,,,,,,,,,,,,,,,,,,,,,,,,,,space,4.23300004,ENCHILADA ,FALSE,,,,,,,34,ensalada,Spanish,Sounds/spa_ensalada.mp3,2020-06-24_18h56.21.943,TranslationElicitation_eng-prolific-spa,3.2.4,Win32,60,5ed8bf9551f146017b7ac03e,,1,0,98,30,1,97
,,,,,,,,,,,,,,,,,,,,,,,,,,,,,,,,,,,,,,,,,backspace,4.866000175,ENCHILADA,TRUE,,,,,,,34,ensalada,Spanish,Sounds/spa_ensalada.mp3,2020-06-24_18h56.21.943,TranslationElicitation_eng-prolific-spa,3.2.4,Win32,60,5ed8bf9551f146017b7ac03e,,1,0,98,30,1,97
,,,,,,,,,,,,,,,,,,,,,,,,,,,,,,,,,,,,,,,,,return,5.266000032,ENCHILADA,TRUE,,,,,,,34,ensalada,Spanish,Sounds/spa_ensalada.mp3,2020-06-24_18h56.21.943,TranslationElicitation_eng-prolific-spa,3.2.4,Win32,60,5ed8bf9551f146017b7ac03e,5.266000032,1,0,98,30,1,97
,,,,,,,,,,,,,,,,,,,,,,,,,,,,,,,,,,,,,,,,,,,,,,,,,,,34,ensalada,Spanish,Sounds/spa_ensalada.mp3,2020-06-24_18h56.21.943,TranslationElicitation_eng-prolific-spa,3.2.4,Win32,60,5ed8bf9551f146017b7ac03e,,1,0,98,30,1,97
,,,,,,,,,,,,,,,,,,,,,,,,,,,,,,,,,,,,,,,,,p,1.917000055,P,FALSE,,,,,,,88,plato,Spanish,Sounds/spa_plato.mp3,2020-06-24_18h56.21.943,TranslationElicitation_eng-prolific-spa,3.2.4,Win32,60,5ed8bf9551f146017b7ac03e,,1,0,98,83,1,97
,,,,,,,,,,,,,,,,,,,,,,,,,,,,,,,,,,,,,,,,,l,1.983999968,PL,FALSE,,,,,,,88,plato,Spanish,Sounds/spa_plato.mp3,2020-06-24_18h56.21.943,TranslationElicitation_eng-prolific-spa,3.2.4,Win32,60,5ed8bf9551f146017b7ac03e,,1,0,98,83,1,97
,,,,,,,,,,,,,,,,,,,,,,,,,,,,,,,,,,,,,,,,,u,2.251000166,PLU,FALSE,,,,,,,88,plato,Spanish,Sounds/spa_plato.mp3,2020-06-24_18h56.21.943,TranslationElicitation_eng-prolific-spa,3.2.4,Win32,60,5ed8bf9551f146017b7ac03e,,1,0,98,83,1,97
,,,,,,,,,,,,,,,,,,,,,,,,,,,,,,,,,,,,,,,,,t,2.350000143,PLUT,FALSE,,,,,,,88,plato,Spanish,Sounds/spa_plato.mp3,2020-06-24_18h56.21.943,TranslationElicitation_eng-prolific-spa,3.2.4,Win32,60,5ed8bf9551f146017b7ac03e,,1,0,98,83,1,97
,,,,,,,,,,,,,,,,,,,,,,,,,,,,,,,,,,,,,,,,,o,2.450000048,PLUTO,FALSE,,,,,,,88,plato,Spanish,Sounds/spa_plato.mp3,2020-06-24_18h56.21.943,TranslationElicitation_eng-prolific-spa,3.2.4,Win32,60,5ed8bf9551f146017b7ac03e,,1,0,98,83,1,97
,,,,,,,,,,,,,,,,,,,,,,,,,,,,,,,,,,,,,,,,,return,2.784000158,PLUTO,FALSE,,,,,,,88,plato,Spanish,Sounds/spa_plato.mp3,2020-06-24_18h56.21.943,TranslationElicitation_eng-prolific-spa,3.2.4,Win32,60,5ed8bf9551f146017b7ac03e,2.784000158,1,0,98,83,1,97
,,,,,,,,,,,,,,,,,,,,,,,,,,,,,,,,,,,,,,,,,,,,,,,,,,,88,plato,Spanish,Sounds/spa_plato.mp3,2020-06-24_18h56.21.943,TranslationElicitation_eng-prolific-spa,3.2.4,Win32,60,5ed8bf9551f146017b7ac03e,,1,0,98,83,1,97
,,,,,,,,,,,,,,,,,,,,,,,,,,,,,,,,,,,,,,,,,s,9.699999809,S,FALSE,,,,,,,4,biberon,Spanish,Sounds/spa_biberon.mp3,2020-06-24_18h56.21.943,TranslationElicitation_eng-prolific-spa,3.2.4,Win32,60,5ed8bf9551f146017b7ac03e,,1,0,98,2,1,97
,,,,,,,,,,,,,,,,,,,,,,,,,,,,,,,,,,,,,,,,,t,9.782999992,ST,FALSE,,,,,,,4,biberon,Spanish,Sounds/spa_biberon.mp3,2020-06-24_18h56.21.943,TranslationElicitation_eng-prolific-spa,3.2.4,Win32,60,5ed8bf9551f146017b7ac03e,,1,0,98,2,1,97
,,,,,,,,,,,,,,,,,,,,,,,,,,,,,,,,,,,,,,,,,e,9.932999849,STE,FALSE,,,,,,,4,biberon,Spanish,Sounds/spa_biberon.mp3,2020-06-24_18h56.21.943,TranslationElicitation_eng-prolific-spa,3.2.4,Win32,60,5ed8bf9551f146017b7ac03e,,1,0,98,2,1,97
,,,,,,,,,,,,,,,,,,,,,,,,,,,,,,,,,,,,,,,,,a,10,STEA,FALSE,,,,,,,4,biberon,Spanish,Sounds/spa_biberon.mp3,2020-06-24_18h56.21.943,TranslationElicitation_eng-prolific-spa,3.2.4,Win32,60,5ed8bf9551f146017b7ac03e,,1,0,98,2,1,97
,,,,,,,,,,,,,,,,,,,,,,,,,,,,,,,,,,,,,,,,,k,10.06599998,STEAK,FALSE,,,,,,,4,biberon,Spanish,Sounds/spa_biberon.mp3,2020-06-24_18h56.21.943,TranslationElicitation_eng-prolific-spa,3.2.4,Win32,60,5ed8bf9551f146017b7ac03e,,1,0,98,2,1,97
,,,,,,,,,,,,,,,,,,,,,,,,,,,,,,,,,,,,,,,,,backspace,11.18299985,STEA,TRUE,,,,,,,4,biberon,Spanish,Sounds/spa_biberon.mp3,2020-06-24_18h56.21.943,TranslationElicitation_eng-prolific-spa,3.2.4,Win32,60,5ed8bf9551f146017b7ac03e,,1,0,98,2,1,97
,,,,,,,,,,,,,,,,,,,,,,,,,,,,,,,,,,,,,,,,,backspace,11.3499999,STE,TRUE,,,,,,,4,biberon,Spanish,Sounds/spa_biberon.mp3,2020-06-24_18h56.21.943,TranslationElicitation_eng-prolific-spa,3.2.4,Win32,60,5ed8bf9551f146017b7ac03e,,1,0,98,2,1,97
,,,,,,,,,,,,,,,,,,,,,,,,,,,,,,,,,,,,,,,,,backspace,11.5,ST,TRUE,,,,,,,4,biberon,Spanish,Sounds/spa_biberon.mp3,2020-06-24_18h56.21.943,TranslationElicitation_eng-prolific-spa,3.2.4,Win32,60,5ed8bf9551f146017b7ac03e,,1,0,98,2,1,97
,,,,,,,,,,,,,,,,,,,,,,,,,,,,,,,,,,,,,,,,,backspace,11.61599994,S,TRUE,,,,,,,4,biberon,Spanish,Sounds/spa_biberon.mp3,2020-06-24_18h56.21.943,TranslationElicitation_eng-prolific-spa,3.2.4,Win32,60,5ed8bf9551f146017b7ac03e,,1,0,98,2,1,97
,,,,,,,,,,,,,,,,,,,,,,,,,,,,,,,,,,,,,,,,,backspace,11.76699996,,TRUE,,,,,,,4,biberon,Spanish,Sounds/spa_biberon.mp3,2020-06-24_18h56.21.943,TranslationElicitation_eng-prolific-spa,3.2.4,Win32,60,5ed8bf9551f146017b7ac03e,,1,0,98,2,1,97
,,,,,,,,,,,,,,,,,,,,,,,,,,,,,,,,,,,,,,,,,backspace,11.91599989,,TRUE,,,,,,,4,biberon,Spanish,Sounds/spa_biberon.mp3,2020-06-24_18h56.21.943,TranslationElicitation_eng-prolific-spa,3.2.4,Win32,60,5ed8bf9551f146017b7ac03e,,1,0,98,2,1,97
,,,,,,,,,,,,,,,,,,,,,,,,,,,,,,,,,,,,,,,,,p,12.3829999,P,TRUE,,,,,,,4,biberon,Spanish,Sounds/spa_biberon.mp3,2020-06-24_18h56.21.943,TranslationElicitation_eng-prolific-spa,3.2.4,Win32,60,5ed8bf9551f146017b7ac03e,,1,0,98,2,1,97
,,,,,,,,,,,,,,,,,,,,,,,,,,,,,,,,,,,,,,,,,o,12.46599984,PO,TRUE,,,,,,,4,biberon,Spanish,Sounds/spa_biberon.mp3,2020-06-24_18h56.21.943,TranslationElicitation_eng-prolific-spa,3.2.4,Win32,60,5ed8bf9551f146017b7ac03e,,1,0,98,2,1,97
,,,,,,,,,,,,,,,,,,,,,,,,,,,,,,,,,,,,,,,,,r,12.58299994,POR,TRUE,,,,,,,4,biberon,Spanish,Sounds/spa_biberon.mp3,2020-06-24_18h56.21.943,TranslationElicitation_eng-prolific-spa,3.2.4,Win32,60,5ed8bf9551f146017b7ac03e,,1,0,98,2,1,97
,,,,,,,,,,,,,,,,,,,,,,,,,,,,,,,,,,,,,,,,,k,12.66699982,PORK,TRUE,,,,,,,4,biberon,Spanish,Sounds/spa_biberon.mp3,2020-06-24_18h56.21.943,TranslationElicitation_eng-prolific-spa,3.2.4,Win32,60,5ed8bf9551f146017b7ac03e,,1,0,98,2,1,97
,,,,,,,,,,,,,,,,,,,,,,,,,,,,,,,,,,,,,,,,,return,12.83299994,PORK,TRUE,,,,,,,4,biberon,Spanish,Sounds/spa_biberon.mp3,2020-06-24_18h56.21.943,TranslationElicitation_eng-prolific-spa,3.2.4,Win32,60,5ed8bf9551f146017b7ac03e,12.83299994,1,0,98,2,1,97
,,,,,,,,,,,,,,,,,,,,,,,,,,,,,,,,,,,,,,,,,,,,,,,,,,,4,biberon,Spanish,Sounds/spa_biberon.mp3,2020-06-24_18h56.21.943,TranslationElicitation_eng-prolific-spa,3.2.4,Win32,60,5ed8bf9551f146017b7ac03e,,1,0,98,2,1,97
,,,,,,,,,,,,,,,,,,,,,,,,,,,,,,,,,,,,,,,,,t,1.566999912,T,FALSE,,,,,,,95,tenedor,Spanish,Sounds/spa_tenedor.mp3,2020-06-24_18h56.21.943,TranslationElicitation_eng-prolific-spa,3.2.4,Win32,60,5ed8bf9551f146017b7ac03e,,1,0,98,90,1,97
,,,,,,,,,,,,,,,,,,,,,,,,,,,,,,,,,,,,,,,,,e,1.667000055,TE,FALSE,,,,,,,95,tenedor,Spanish,Sounds/spa_tenedor.mp3,2020-06-24_18h56.21.943,TranslationElicitation_eng-prolific-spa,3.2.4,Win32,60,5ed8bf9551f146017b7ac03e,,1,0,98,90,1,97
,,,,,,,,,,,,,,,,,,,,,,,,,,,,,,,,,,,,,,,,,n,1.832999945,TEN,FALSE,,,,,,,95,tenedor,Spanish,Sounds/spa_tenedor.mp3,2020-06-24_18h56.21.943,TranslationElicitation_eng-prolific-spa,3.2.4,Win32,60,5ed8bf9551f146017b7ac03e,,1,0,98,90,1,97
,,,,,,,,,,,,,,,,,,,,,,,,,,,,,,,,,,,,,,,,,n,1.967000008,TENN,FALSE,,,,,,,95,tenedor,Spanish,Sounds/spa_tenedor.mp3,2020-06-24_18h56.21.943,TranslationElicitation_eng-prolific-spa,3.2.4,Win32,60,5ed8bf9551f146017b7ac03e,,1,0,98,90,1,97
,,,,,,,,,,,,,,,,,,,,,,,,,,,,,,,,,,,,,,,,,i,2.03399992,TENNI,FALSE,,,,,,,95,tenedor,Spanish,Sounds/spa_tenedor.mp3,2020-06-24_18h56.21.943,TranslationElicitation_eng-prolific-spa,3.2.4,Win32,60,5ed8bf9551f146017b7ac03e,,1,0,98,90,1,97
,,,,,,,,,,,,,,,,,,,,,,,,,,,,,,,,,,,,,,,,,s,2.132999897,TENNIS,FALSE,,,,,,,95,tenedor,Spanish,Sounds/spa_tenedor.mp3,2020-06-24_18h56.21.943,TranslationElicitation_eng-prolific-spa,3.2.4,Win32,60,5ed8bf9551f146017b7ac03e,,1,0,98,90,1,97
,,,,,,,,,,,,,,,,,,,,,,,,,,,,,,,,,,,,,,,,,space,2.649999857,TENNIS ,FALSE,,,,,,,95,tenedor,Spanish,Sounds/spa_tenedor.mp3,2020-06-24_18h56.21.943,TranslationElicitation_eng-prolific-spa,3.2.4,Win32,60,5ed8bf9551f146017b7ac03e,,1,0,98,90,1,97
,,,,,,,,,,,,,,,,,,,,,,,,,,,,,,,,,,,,,,,,,backspace,3.167000055,TENNIS,TRUE,,,,,,,95,tenedor,Spanish,Sounds/spa_tenedor.mp3,2020-06-24_18h56.21.943,TranslationElicitation_eng-prolific-spa,3.2.4,Win32,60,5ed8bf9551f146017b7ac03e,,1,0,98,90,1,97
,,,,,,,,,,,,,,,,,,,,,,,,,,,,,,,,,,,,,,,,,return,3.399999857,TENNIS,TRUE,,,,,,,95,tenedor,Spanish,Sounds/spa_tenedor.mp3,2020-06-24_18h56.21.943,TranslationElicitation_eng-prolific-spa,3.2.4,Win32,60,5ed8bf9551f146017b7ac03e,3.399999857,1,0,98,90,1,97
,,,,,,,,,,,,,,,,,,,,,,,,,,,,,,,,,,,,,,,,,,,,,,,,,,,95,tenedor,Spanish,Sounds/spa_tenedor.mp3,2020-06-24_18h56.21.943,TranslationElicitation_eng-prolific-spa,3.2.4,Win32,60,5ed8bf9551f146017b7ac03e,,1,0,98,90,1,97
,,,,,,,,,,,,,,,,,,,,,,,,,,,,,,,,,,,,,,,,,a,1.833000183,A,FALSE,,,,,,,68,naranja,Spanish,Sounds/spa_naranja.mp3,2020-06-24_18h56.21.943,TranslationElicitation_eng-prolific-spa,3.2.4,Win32,60,5ed8bf9551f146017b7ac03e,,1,0,98,64,1,97
,,,,,,,,,,,,,,,,,,,,,,,,,,,,,,,,,,,,,,,,,n,1.967000008,AN,FALSE,,,,,,,68,naranja,Spanish,Sounds/spa_naranja.mp3,2020-06-24_18h56.21.943,TranslationElicitation_eng-prolific-spa,3.2.4,Win32,60,5ed8bf9551f146017b7ac03e,,1,0,98,64,1,97
,,,,,,,,,,,,,,,,,,,,,,,,,,,,,,,,,,,,,,,,,c,2.134000063,ANC,FALSE,,,,,,,68,naranja,Spanish,Sounds/spa_naranja.mp3,2020-06-24_18h56.21.943,TranslationElicitation_eng-prolific-spa,3.2.4,Win32,60,5ed8bf9551f146017b7ac03e,,1,0,98,64,1,97
,,,,,,,,,,,,,,,,,,,,,,,,,,,,,,,,,,,,,,,,,h,2.217000008,ANCH,FALSE,,,,,,,68,naranja,Spanish,Sounds/spa_naranja.mp3,2020-06-24_18h56.21.943,TranslationElicitation_eng-prolific-spa,3.2.4,Win32,60,5ed8bf9551f146017b7ac03e,,1,0,98,64,1,97
,,,,,,,,,,,,,,,,,,,,,,,,,,,,,,,,,,,,,,,,,o,2.303000212,ANCHO,FALSE,,,,,,,68,naranja,Spanish,Sounds/spa_naranja.mp3,2020-06-24_18h56.21.943,TranslationElicitation_eng-prolific-spa,3.2.4,Win32,60,5ed8bf9551f146017b7ac03e,,1,0,98,64,1,97
,,,,,,,,,,,,,,,,,,,,,,,,,,,,,,,,,,,,,,,,,r,2.383000135,ANCHOR,FALSE,,,,,,,68,naranja,Spanish,Sounds/spa_naranja.mp3,2020-06-24_18h56.21.943,TranslationElicitation_eng-prolific-spa,3.2.4,Win32,60,5ed8bf9551f146017b7ac03e,,1,0,98,64,1,97
,,,,,,,,,,,,,,,,,,,,,,,,,,,,,,,,,,,,,,,,,backspace,2.950000048,ANCHO,TRUE,,,,,,,68,naranja,Spanish,Sounds/spa_naranja.mp3,2020-06-24_18h56.21.943,TranslationElicitation_eng-prolific-spa,3.2.4,Win32,60,5ed8bf9551f146017b7ac03e,,1,0,98,64,1,97
,,,,,,,,,,,,,,,,,,,,,,,,,,,,,,,,,,,,,,,,,backspace,3.100000143,ANCH,TRUE,,,,,,,68,naranja,Spanish,Sounds/spa_naranja.mp3,2020-06-24_18h56.21.943,TranslationElicitation_eng-prolific-spa,3.2.4,Win32,60,5ed8bf9551f146017b7ac03e,,1,0,98,64,1,97
,,,,,,,,,,,,,,,,,,,,,,,,,,,,,,,,,,,,,,,,,a,3.184000015,ANCHA,TRUE,,,,,,,68,naranja,Spanish,Sounds/spa_naranja.mp3,2020-06-24_18h56.21.943,TranslationElicitation_eng-prolific-spa,3.2.4,Win32,60,5ed8bf9551f146017b7ac03e,,1,0,98,64,1,97
,,,,,,,,,,,,,,,,,,,,,,,,,,,,,,,,,,,,,,,,,r,3.234000206,ANCHAR,TRUE,,,,,,,68,naranja,Spanish,Sounds/spa_naranja.mp3,2020-06-24_18h56.21.943,TranslationElicitation_eng-prolific-spa,3.2.4,Win32,60,5ed8bf9551f146017b7ac03e,,1,0,98,64,1,97
,,,,,,,,,,,,,,,,,,,,,,,,,,,,,,,,,,,,,,,,,backspace,3.534000158,ANCHA,TRUE,,,,,,,68,naranja,Spanish,Sounds/spa_naranja.mp3,2020-06-24_18h56.21.943,TranslationElicitation_eng-prolific-spa,3.2.4,Win32,60,5ed8bf9551f146017b7ac03e,,1,0,98,64,1,97
,,,,,,,,,,,,,,,,,,,,,,,,,,,,,,,,,,,,,,,,,backspace,3.683000088,ANCH,TRUE,,,,,,,68,naranja,Spanish,Sounds/spa_naranja.mp3,2020-06-24_18h56.21.943,TranslationElicitation_eng-prolific-spa,3.2.4,Win32,60,5ed8bf9551f146017b7ac03e,,1,0,98,64,1,97
,,,,,,,,,,,,,,,,,,,,,,,,,,,,,,,,,,,,,,,,,o,3.757000208,ANCHO,TRUE,,,,,,,68,naranja,Spanish,Sounds/spa_naranja.mp3,2020-06-24_18h56.21.943,TranslationElicitation_eng-prolific-spa,3.2.4,Win32,60,5ed8bf9551f146017b7ac03e,,1,0,98,64,1,97
,,,,,,,,,,,,,,,,,,,,,,,,,,,,,,,,,,,,,,,,,r,3.817000151,ANCHOR,TRUE,,,,,,,68,naranja,Spanish,Sounds/spa_naranja.mp3,2020-06-24_18h56.21.943,TranslationElicitation_eng-prolific-spa,3.2.4,Win32,60,5ed8bf9551f146017b7ac03e,,1,0,98,64,1,97
,,,,,,,,,,,,,,,,,,,,,,,,,,,,,,,,,,,,,,,,,return,4.184000015,ANCHOR,TRUE,,,,,,,68,naranja,Spanish,Sounds/spa_naranja.mp3,2020-06-24_18h56.21.943,TranslationElicitation_eng-prolific-spa,3.2.4,Win32,60,5ed8bf9551f146017b7ac03e,4.184000015,1,0,98,64,1,97
,,,,,,,,,,,,,,,,,,,,,,,,,,,,,,,,,,,,,,,,,,,,,,,,,,,68,naranja,Spanish,Sounds/spa_naranja.mp3,2020-06-24_18h56.21.943,TranslationElicitation_eng-prolific-spa,3.2.4,Win32,60,5ed8bf9551f146017b7ac03e,,1,0,98,64,1,97
,,,,,,,,,,,,,,,,,,,,,,,,,,,,,,,,,,,,,,,,,p,1.433000088,P,FALSE,,,,,,,77,pantalon,Spanish,Sounds/spa_pantalon.mp3,2020-06-24_18h56.21.943,TranslationElicitation_eng-prolific-spa,3.2.4,Win32,60,5ed8bf9551f146017b7ac03e,,1,0,98,72,1,97
,,,,,,,,,,,,,,,,,,,,,,,,,,,,,,,,,,,,,,,,,a,1.549000025,PA,FALSE,,,,,,,77,pantalon,Spanish,Sounds/spa_pantalon.mp3,2020-06-24_18h56.21.943,TranslationElicitation_eng-prolific-spa,3.2.4,Win32,60,5ed8bf9551f146017b7ac03e,,1,0,98,72,1,97
