consentKey.keys,consentKey.rt,languageL1Key.keys,languageL1Key.rt,languageL2,languageL2OralKey.keys,languageL2OralKey.rt,languageL2WrittenKey.keys,languageL2WrittenKey.rt,languageL3OralKey.keys,languageL3OralKey.rt,languageL3WrittenKey.keys,languageL3WrittenKey.rt,languageCatalanOralKey.keys,languageCatalanOralKey.rt,languageCatalanWrittenKey.keys,languageCatalanWrittenKey.rt,languageCatalanTimeKey.keys,languageCatalanTimeKey.rt,age,demoSexKey.keys,demoSexKey.rt,demoEducationKey.keys,demoEducationKey.rt,city,demoVisionKey.keys,demoVisionKey.rt,demoLanguageKey.keys,demoLanguageKey.rt,setupLocationKey.keys,setupLocationKey.rt,setupNoiseKey.keys,setupNoiseKey.rt,instructionsKeys.keys,instructionsKeys.rt,keyPressed,keyPressTime,inputText,error,trials_practice.thisRepN,trials_practice.thisTrialN,trials_practice.thisN,trials_practice.thisIndex,trials_practice.ran,trials_practice.order,trial_id,word,test_language,soundfile,date,expName,psychopyVersion,OS,frameRate,participant,trialOffset,trials.thisRepN,trials.thisTrialN,trials.thisN,trials.thisIndex,trials.ran,trials.order
space,2.19299984,e,5.582999945,,2,5.901000023,4,6.187000036,,,,,2,9.126999855,1,3.319999933,1,5.395999908,25,m,2.29399991,4,4.118999958,MURCIA,n,4.772000074,n,1.586999893,1,2.269999981,1,2.502000093,space,16.20799994,t,2.321999788,T,FALSE,1,0,5,4,1,4,179,tigre,Catalan,Sounds/cat_tigre.mp3,2020-06-17_16h10.50.022,TranslationElicitation_spa,3.2.4,Win32,60,5ede17651b8bce028a0853b3,,,,,,,
,,,,,,,,,,,,,,,,,,,,,,,,,,,,,,,,,,,i,2.480000019,TI,FALSE,1,0,5,4,1,4,179,tigre,Catalan,Sounds/cat_tigre.mp3,2020-06-17_16h10.50.022,TranslationElicitation_spa,3.2.4,Win32,60,5ede17651b8bce028a0853b3,,,,,,,
,,,,,,,,,,,,,,,,,,,,,,,,,,,,,,,,,,,g,3.174999952,TIG,FALSE,1,0,5,4,1,4,179,tigre,Catalan,Sounds/cat_tigre.mp3,2020-06-17_16h10.50.022,TranslationElicitation_spa,3.2.4,Win32,60,5ede17651b8bce028a0853b3,,,,,,,
,,,,,,,,,,,,,,,,,,,,,,,,,,,,,,,,,,,r,3.383999825,TIGR,FALSE,1,0,5,4,1,4,179,tigre,Catalan,Sounds/cat_tigre.mp3,2020-06-17_16h10.50.022,TranslationElicitation_spa,3.2.4,Win32,60,5ede17651b8bce028a0853b3,,,,,,,
,,,,,,,,,,,,,,,,,,,,,,,,,,,,,,,,,,,e,3.596999884,TIGRE,FALSE,1,0,5,4,1,4,179,tigre,Catalan,Sounds/cat_tigre.mp3,2020-06-17_16h10.50.022,TranslationElicitation_spa,3.2.4,Win32,60,5ede17651b8bce028a0853b3,,,,,,,
,,,,,,,,,,,,,,,,,,,,,,,,,,,,,,,,,,,return,5.664999962,,FALSE,1,0,5,4,1,4,179,tigre,Catalan,Sounds/cat_tigre.mp3,2020-06-17_16h10.50.022,TranslationElicitation_spa,3.2.4,Win32,60,5ede17651b8bce028a0853b3,5.664999962,,,,,,
,,,,,,,,,,,,,,,,,,,,,,,,,,,,,,,,,,,,,,,1,0,5,4,1,4,179,tigre,Catalan,Sounds/cat_tigre.mp3,2020-06-17_16h10.50.022,TranslationElicitation_spa,3.2.4,Win32,60,5ede17651b8bce028a0853b3,,,,,,,
,,,,,,,,,,,,,,,,,,,,,,,,,,,,,,,,,,,c,1.516000032,C,FALSE,1,0,5,1,1,4,147,jaqueta,Catalan,Sounds/cat_jaqueta.mp3,2020-06-17_16h10.50.022,TranslationElicitation_spa,3.2.4,Win32,60,5ede17651b8bce028a0853b3,,,,,,,
,,,,,,,,,,,,,,,,,,,,,,,,,,,,,,,,,,,h,1.770999908,CH,FALSE,1,0,5,1,1,4,147,jaqueta,Catalan,Sounds/cat_jaqueta.mp3,2020-06-17_16h10.50.022,TranslationElicitation_spa,3.2.4,Win32,60,5ede17651b8bce028a0853b3,,,,,,,
,,,,,,,,,,,,,,,,,,,,,,,,,,,,,,,,,,,a,1.839999914,CHA,FALSE,1,0,5,1,1,4,147,jaqueta,Catalan,Sounds/cat_jaqueta.mp3,2020-06-17_16h10.50.022,TranslationElicitation_spa,3.2.4,Win32,60,5ede17651b8bce028a0853b3,,,,,,,
,,,,,,,,,,,,,,,,,,,,,,,,,,,,,,,,,,,q,2.029999971,CHAQ,FALSE,1,0,5,1,1,4,147,jaqueta,Catalan,Sounds/cat_jaqueta.mp3,2020-06-17_16h10.50.022,TranslationElicitation_spa,3.2.4,Win32,60,5ede17651b8bce028a0853b3,,,,,,,
,,,,,,,,,,,,,,,,,,,,,,,,,,,,,,,,,,,u,2.167000055,CHAQU,FALSE,1,0,5,1,1,4,147,jaqueta,Catalan,Sounds/cat_jaqueta.mp3,2020-06-17_16h10.50.022,TranslationElicitation_spa,3.2.4,Win32,60,5ede17651b8bce028a0853b3,,,,,,,
,,,,,,,,,,,,,,,,,,,,,,,,,,,,,,,,,,,e,2.273999929,CHAQUE,FALSE,1,0,5,1,1,4,147,jaqueta,Catalan,Sounds/cat_jaqueta.mp3,2020-06-17_16h10.50.022,TranslationElicitation_spa,3.2.4,Win32,60,5ede17651b8bce028a0853b3,,,,,,,
,,,,,,,,,,,,,,,,,,,,,,,,,,,,,,,,,,,t,2.463000059,CHAQUET,FALSE,1,0,5,1,1,4,147,jaqueta,Catalan,Sounds/cat_jaqueta.mp3,2020-06-17_16h10.50.022,TranslationElicitation_spa,3.2.4,Win32,60,5ede17651b8bce028a0853b3,,,,,,,
,,,,,,,,,,,,,,,,,,,,,,,,,,,,,,,,,,,a,2.999000072,CHAQUETA,FALSE,1,0,5,1,1,4,147,jaqueta,Catalan,Sounds/cat_jaqueta.mp3,2020-06-17_16h10.50.022,TranslationElicitation_spa,3.2.4,Win32,60,5ede17651b8bce028a0853b3,,,,,,,
,,,,,,,,,,,,,,,,,,,,,,,,,,,,,,,,,,,return,3.516000032,,FALSE,1,0,5,1,1,4,147,jaqueta,Catalan,Sounds/cat_jaqueta.mp3,2020-06-17_16h10.50.022,TranslationElicitation_spa,3.2.4,Win32,60,5ede17651b8bce028a0853b3,3.516000032,,,,,,
,,,,,,,,,,,,,,,,,,,,,,,,,,,,,,,,,,,,,,,1,0,5,1,1,4,147,jaqueta,Catalan,Sounds/cat_jaqueta.mp3,2020-06-17_16h10.50.022,TranslationElicitation_spa,3.2.4,Win32,60,5ede17651b8bce028a0853b3,,,,,,,
,,,,,,,,,,,,,,,,,,,,,,,,,,,,,,,,,,,u,1.546999931,U,FALSE,1,0,5,3,1,4,167,pingui,Catalan,Sounds/cat_pingui.mp3,2020-06-17_16h10.50.022,TranslationElicitation_spa,3.2.4,Win32,60,5ede17651b8bce028a0853b3,,,,,,,
,,,,,,,,,,,,,,,,,,,,,,,,,,,,,,,,,,,i,1.703000069,UI,FALSE,1,0,5,3,1,4,167,pingui,Catalan,Sounds/cat_pingui.mp3,2020-06-17_16h10.50.022,TranslationElicitation_spa,3.2.4,Win32,60,5ede17651b8bce028a0853b3,,,,,,,
,,,,,,,,,,,,,,,,,,,,,,,,,,,,,,,,,,,n,1.915999889,UIN,FALSE,1,0,5,3,1,4,167,pingui,Catalan,Sounds/cat_pingui.mp3,2020-06-17_16h10.50.022,TranslationElicitation_spa,3.2.4,Win32,60,5ede17651b8bce028a0853b3,,,,,,,
,,,,,,,,,,,,,,,,,,,,,,,,,,,,,,,,,,,backspace,2.316999912,U,TRUE,1,0,5,3,1,4,167,pingui,Catalan,Sounds/cat_pingui.mp3,2020-06-17_16h10.50.022,TranslationElicitation_spa,3.2.4,Win32,60,5ede17651b8bce028a0853b3,,,,,,,
,,,,,,,,,,,,,,,,,,,,,,,,,,,,,,,,,,,backspace,2.420000076,,TRUE,1,0,5,3,1,4,167,pingui,Catalan,Sounds/cat_pingui.mp3,2020-06-17_16h10.50.022,TranslationElicitation_spa,3.2.4,Win32,60,5ede17651b8bce028a0853b3,,,,,,,
,,,,,,,,,,,,,,,,,,,,,,,,,,,,,,,,,,,backspace,2.572000027,,TRUE,1,0,5,3,1,4,167,pingui,Catalan,Sounds/cat_pingui.mp3,2020-06-17_16h10.50.022,TranslationElicitation_spa,3.2.4,Win32,60,5ede17651b8bce028a0853b3,,,,,,,
,,,,,,,,,,,,,,,,,,,,,,,,,,,,,,,,,,,backspace,2.774999857,,TRUE,1,0,5,3,1,4,167,pingui,Catalan,Sounds/cat_pingui.mp3,2020-06-17_16h10.50.022,TranslationElicitation_spa,3.2.4,Win32,60,5ede17651b8bce028a0853b3,,,,,,,
,,,,,,,,,,,,,,,,,,,,,,,,,,,,,,,,,,,p,3.171000004,P,TRUE,1,0,5,3,1,4,167,pingui,Catalan,Sounds/cat_pingui.mp3,2020-06-17_16h10.50.022,TranslationElicitation_spa,3.2.4,Win32,60,5ede17651b8bce028a0853b3,,,,,,,
,,,,,,,,,,,,,,,,,,,,,,,,,,,,,,,,,,,i,3.362999916,PI,TRUE,1,0,5,3,1,4,167,pingui,Catalan,Sounds/cat_pingui.mp3,2020-06-17_16h10.50.022,TranslationElicitation_spa,3.2.4,Win32,60,5ede17651b8bce028a0853b3,,,,,,,
,,,,,,,,,,,,,,,,,,,,,,,,,,,,,,,,,,,n,3.547999859,PIN,TRUE,1,0,5,3,1,4,167,pingui,Catalan,Sounds/cat_pingui.mp3,2020-06-17_16h10.50.022,TranslationElicitation_spa,3.2.4,Win32,60,5ede17651b8bce028a0853b3,,,,,,,
,,,,,,,,,,,,,,,,,,,,,,,,,,,,,,,,,,,g,3.655999899,PING,TRUE,1,0,5,3,1,4,167,pingui,Catalan,Sounds/cat_pingui.mp3,2020-06-17_16h10.50.022,TranslationElicitation_spa,3.2.4,Win32,60,5ede17651b8bce028a0853b3,,,,,,,
,,,,,,,,,,,,,,,,,,,,,,,,,,,,,,,,,,,u,3.836999893,PINGU,TRUE,1,0,5,3,1,4,167,pingui,Catalan,Sounds/cat_pingui.mp3,2020-06-17_16h10.50.022,TranslationElicitation_spa,3.2.4,Win32,60,5ede17651b8bce028a0853b3,,,,,,,
,,,,,,,,,,,,,,,,,,,,,,,,,,,,,,,,,,,backspace,5.858999968,PIN,TRUE,1,0,5,3,1,4,167,pingui,Catalan,Sounds/cat_pingui.mp3,2020-06-17_16h10.50.022,TranslationElicitation_spa,3.2.4,Win32,60,5ede17651b8bce028a0853b3,,,,,,,
,,,,,,,,,,,,,,,,,,,,,,,,,,,,,,,,,,,apostrophe,7.128000021,PIN,TRUE,1,0,5,3,1,4,167,pingui,Catalan,Sounds/cat_pingui.mp3,2020-06-17_16h10.50.022,TranslationElicitation_spa,3.2.4,Win32,60,5ede17651b8bce028a0853b3,,,,,,,
,,,,,,,,,,,,,,,,,,,,,,,,,,,,,,,,,,,u,7.279999971,PINÚ,TRUE,1,0,5,3,1,4,167,pingui,Catalan,Sounds/cat_pingui.mp3,2020-06-17_16h10.50.022,TranslationElicitation_spa,3.2.4,Win32,60,5ede17651b8bce028a0853b3,,,,,,,
,,,,,,,,,,,,,,,,,,,,,,,,,,,,,,,,,,,i,7.516000032,PINÚI,TRUE,1,0,5,3,1,4,167,pingui,Catalan,Sounds/cat_pingui.mp3,2020-06-17_16h10.50.022,TranslationElicitation_spa,3.2.4,Win32,60,5ede17651b8bce028a0853b3,,,,,,,
,,,,,,,,,,,,,,,,,,,,,,,,,,,,,,,,,,,n,7.730999947,PINÚIN,TRUE,1,0,5,3,1,4,167,pingui,Catalan,Sounds/cat_pingui.mp3,2020-06-17_16h10.50.022,TranslationElicitation_spa,3.2.4,Win32,60,5ede17651b8bce028a0853b3,,,,,,,
,,,,,,,,,,,,,,,,,,,,,,,,,,,,,,,,,,,backspace,8.217999935,PINÚ,TRUE,1,0,5,3,1,4,167,pingui,Catalan,Sounds/cat_pingui.mp3,2020-06-17_16h10.50.022,TranslationElicitation_spa,3.2.4,Win32,60,5ede17651b8bce028a0853b3,,,,,,,
,,,,,,,,,,,,,,,,,,,,,,,,,,,,,,,,,,,backspace,8.338999987,PI,TRUE,1,0,5,3,1,4,167,pingui,Catalan,Sounds/cat_pingui.mp3,2020-06-17_16h10.50.022,TranslationElicitation_spa,3.2.4,Win32,60,5ede17651b8bce028a0853b3,,,,,,,
,,,,,,,,,,,,,,,,,,,,,,,,,,,,,,,,,,,backspace,8.756000042,,TRUE,1,0,5,3,1,4,167,pingui,Catalan,Sounds/cat_pingui.mp3,2020-06-17_16h10.50.022,TranslationElicitation_spa,3.2.4,Win32,60,5ede17651b8bce028a0853b3,,,,,,,
,,,,,,,,,,,,,,,,,,,,,,,,,,,,,,,,,,,p,10.54799986,P,TRUE,1,0,5,3,1,4,167,pingui,Catalan,Sounds/cat_pingui.mp3,2020-06-17_16h10.50.022,TranslationElicitation_spa,3.2.4,Win32,60,5ede17651b8bce028a0853b3,,,,,,,
,,,,,,,,,,,,,,,,,,,,,,,,,,,,,,,,,,,i,10.75300002,PI,TRUE,1,0,5,3,1,4,167,pingui,Catalan,Sounds/cat_pingui.mp3,2020-06-17_16h10.50.022,TranslationElicitation_spa,3.2.4,Win32,60,5ede17651b8bce028a0853b3,,,,,,,
,,,,,,,,,,,,,,,,,,,,,,,,,,,,,,,,,,,n,10.92700005,PIN,TRUE,1,0,5,3,1,4,167,pingui,Catalan,Sounds/cat_pingui.mp3,2020-06-17_16h10.50.022,TranslationElicitation_spa,3.2.4,Win32,60,5ede17651b8bce028a0853b3,,,,,,,
,,,,,,,,,,,,,,,,,,,,,,,,,,,,,,,,,,,g,11.03399992,PING,TRUE,1,0,5,3,1,4,167,pingui,Catalan,Sounds/cat_pingui.mp3,2020-06-17_16h10.50.022,TranslationElicitation_spa,3.2.4,Win32,60,5ede17651b8bce028a0853b3,,,,,,,
,,,,,,,,,,,,,,,,,,,,,,,,,,,,,,,,,,,u,11.13899994,PINGU,TRUE,1,0,5,3,1,4,167,pingui,Catalan,Sounds/cat_pingui.mp3,2020-06-17_16h10.50.022,TranslationElicitation_spa,3.2.4,Win32,60,5ede17651b8bce028a0853b3,,,,,,,
,,,,,,,,,,,,,,,,,,,,,,,,,,,,,,,,,,,i,11.2579999,PINGUI,TRUE,1,0,5,3,1,4,167,pingui,Catalan,Sounds/cat_pingui.mp3,2020-06-17_16h10.50.022,TranslationElicitation_spa,3.2.4,Win32,60,5ede17651b8bce028a0853b3,,,,,,,
,,,,,,,,,,,,,,,,,,,,,,,,,,,,,,,,,,,n,11.44300008,PINGUIN,TRUE,1,0,5,3,1,4,167,pingui,Catalan,Sounds/cat_pingui.mp3,2020-06-17_16h10.50.022,TranslationElicitation_spa,3.2.4,Win32,60,5ede17651b8bce028a0853b3,,,,,,,
,,,,,,,,,,,,,,,,,,,,,,,,,,,,,,,,,,,o,11.6329999,PINGUINO,TRUE,1,0,5,3,1,4,167,pingui,Catalan,Sounds/cat_pingui.mp3,2020-06-17_16h10.50.022,TranslationElicitation_spa,3.2.4,Win32,60,5ede17651b8bce028a0853b3,,,,,,,
,,,,,,,,,,,,,,,,,,,,,,,,,,,,,,,,,,,return,12.27200007,,TRUE,1,0,5,3,1,4,167,pingui,Catalan,Sounds/cat_pingui.mp3,2020-06-17_16h10.50.022,TranslationElicitation_spa,3.2.4,Win32,60,5ede17651b8bce028a0853b3,12.27200007,,,,,,
,,,,,,,,,,,,,,,,,,,,,,,,,,,,,,,,,,,,,,,1,0,5,3,1,4,167,pingui,Catalan,Sounds/cat_pingui.mp3,2020-06-17_16h10.50.022,TranslationElicitation_spa,3.2.4,Win32,60,5ede17651b8bce028a0853b3,,,,,,,
,,,,,,,,,,,,,,,,,,,,,,,,,,,,,,,,,,,a,2.224999905,A,FALSE,1,0,5,0,1,4,109,arbre,Catalan,Sounds/cat_arbre.mp3,2020-06-17_16h10.50.022,TranslationElicitation_spa,3.2.4,Win32,60,5ede17651b8bce028a0853b3,,,,,,,
,,,,,,,,,,,,,,,,,,,,,,,,,,,,,,,,,,,r,2.427000046,AR,FALSE,1,0,5,0,1,4,109,arbre,Catalan,Sounds/cat_arbre.mp3,2020-06-17_16h10.50.022,TranslationElicitation_spa,3.2.4,Win32,60,5ede17651b8bce028a0853b3,,,,,,,
,,,,,,,,,,,,,,,,,,,,,,,,,,,,,,,,,,,b,2.652999878,ARB,FALSE,1,0,5,0,1,4,109,arbre,Catalan,Sounds/cat_arbre.mp3,2020-06-17_16h10.50.022,TranslationElicitation_spa,3.2.4,Win32,60,5ede17651b8bce028a0853b3,,,,,,,
,,,,,,,,,,,,,,,,,,,,,,,,,,,,,,,,,,,o,2.804999828,ARBO,FALSE,1,0,5,0,1,4,109,arbre,Catalan,Sounds/cat_arbre.mp3,2020-06-17_16h10.50.022,TranslationElicitation_spa,3.2.4,Win32,60,5ede17651b8bce028a0853b3,,,,,,,
,,,,,,,,,,,,,,,,,,,,,,,,,,,,,,,,,,,l,3.026000023,ARBOL,FALSE,1,0,5,0,1,4,109,arbre,Catalan,Sounds/cat_arbre.mp3,2020-06-17_16h10.50.022,TranslationElicitation_spa,3.2.4,Win32,60,5ede17651b8bce028a0853b3,,,,,,,
,,,,,,,,,,,,,,,,,,,,,,,,,,,,,,,,,,,return,3.375999928,,FALSE,1,0,5,0,1,4,109,arbre,Catalan,Sounds/cat_arbre.mp3,2020-06-17_16h10.50.022,TranslationElicitation_spa,3.2.4,Win32,60,5ede17651b8bce028a0853b3,3.375999928,,,,,,
,,,,,,,,,,,,,,,,,,,,,,,,,,,,,,,,,,,,,,,1,0,5,0,1,4,109,arbre,Catalan,Sounds/cat_arbre.mp3,2020-06-17_16h10.50.022,TranslationElicitation_spa,3.2.4,Win32,60,5ede17651b8bce028a0853b3,,,,,,,
,,,,,,,,,,,,,,,,,,,,,,,,,,,,,,,,,,,h,4.819000006,H,FALSE,1,0,5,2,1,4,159,onada,Catalan,Sounds/cat_onada.mp3,2020-06-17_16h10.50.022,TranslationElicitation_spa,3.2.4,Win32,60,5ede17651b8bce028a0853b3,,,,,,,
,,,,,,,,,,,,,,,,,,,,,,,,,,,,,,,,,,,a,4.91899991,HA,FALSE,1,0,5,2,1,4,159,onada,Catalan,Sounds/cat_onada.mp3,2020-06-17_16h10.50.022,TranslationElicitation_spa,3.2.4,Win32,60,5ede17651b8bce028a0853b3,,,,,,,
,,,,,,,,,,,,,,,,,,,,,,,,,,,,,,,,,,,d,5.174999952,HAD,FALSE,1,0,5,2,1,4,159,onada,Catalan,Sounds/cat_onada.mp3,2020-06-17_16h10.50.022,TranslationElicitation_spa,3.2.4,Win32,60,5ede17651b8bce028a0853b3,,,,,,,
,,,,,,,,,,,,,,,,,,,,,,,,,,,,,,,,,,,a,5.424999952,HADA,FALSE,1,0,5,2,1,4,159,onada,Catalan,Sounds/cat_onada.mp3,2020-06-17_16h10.50.022,TranslationElicitation_spa,3.2.4,Win32,60,5ede17651b8bce028a0853b3,,,,,,,
,,,,,,,,,,,,,,,,,,,,,,,,,,,,,,,,,,,return,5.641000032,,FALSE,1,0,5,2,1,4,159,onada,Catalan,Sounds/cat_onada.mp3,2020-06-17_16h10.50.022,TranslationElicitation_spa,3.2.4,Win32,60,5ede17651b8bce028a0853b3,5.641000032,,,,,,
,,,,,,,,,,,,,,,,,,,,,,,,,,,,,,,,,,,,,,,1,0,5,2,1,4,159,onada,Catalan,Sounds/cat_onada.mp3,2020-06-17_16h10.50.022,TranslationElicitation_spa,3.2.4,Win32,60,5ede17651b8bce028a0853b3,,,,,,,
,,,,,,,,,,,,,,,,,,,,,,,,,,,,,,,,,,,b,7.95600009,B,FALSE,,,,,,,145,got,Catalan,Sounds/cat_got.mp3,2020-06-17_16h10.50.022,TranslationElicitation_spa,3.2.4,Win32,60,5ede17651b8bce028a0853b3,,1,0,80,40,1,79
,,,,,,,,,,,,,,,,,,,,,,,,,,,,,,,,,,,o,8.302999973,BO,FALSE,,,,,,,145,got,Catalan,Sounds/cat_got.mp3,2020-06-17_16h10.50.022,TranslationElicitation_spa,3.2.4,Win32,60,5ede17651b8bce028a0853b3,,1,0,80,40,1,79
,,,,,,,,,,,,,,,,,,,,,,,,,,,,,,,,,,,l,8.521000147,BOL,FALSE,,,,,,,145,got,Catalan,Sounds/cat_got.mp3,2020-06-17_16h10.50.022,TranslationElicitation_spa,3.2.4,Win32,60,5ede17651b8bce028a0853b3,,1,0,80,40,1,79
,,,,,,,,,,,,,,,,,,,,,,,,,,,,,,,,,,,return,9.383000135,,FALSE,,,,,,,145,got,Catalan,Sounds/cat_got.mp3,2020-06-17_16h10.50.022,TranslationElicitation_spa,3.2.4,Win32,60,5ede17651b8bce028a0853b3,9.383000135,1,0,80,40,1,79
,,,,,,,,,,,,,,,,,,,,,,,,,,,,,,,,,,,,,,,,,,,,,145,got,Catalan,Sounds/cat_got.mp3,2020-06-17_16h10.50.022,TranslationElicitation_spa,3.2.4,Win32,60,5ede17651b8bce028a0853b3,,1,0,80,40,1,79
,,,,,,,,,,,,,,,,,,,,,,,,,,,,,,,,,,,c,4.733999968,C,FALSE,,,,,,,185,ulleres,Catalan,Sounds/cat_ulleres.mp3,2020-06-17_16h10.50.022,TranslationElicitation_spa,3.2.4,Win32,60,5ede17651b8bce028a0853b3,,1,0,80,76,1,79
,,,,,,,,,,,,,,,,,,,,,,,,,,,,,,,,,,,u,4.852999926,CU,FALSE,,,,,,,185,ulleres,Catalan,Sounds/cat_ulleres.mp3,2020-06-17_16h10.50.022,TranslationElicitation_spa,3.2.4,Win32,60,5ede17651b8bce028a0853b3,,1,0,80,76,1,79
,,,,,,,,,,,,,,,,,,,,,,,,,,,,,,,,,,,c,4.904999971,CUC,FALSE,,,,,,,185,ulleres,Catalan,Sounds/cat_ulleres.mp3,2020-06-17_16h10.50.022,TranslationElicitation_spa,3.2.4,Win32,60,5ede17651b8bce028a0853b3,,1,0,80,76,1,79
,,,,,,,,,,,,,,,,,,,,,,,,,,,,,,,,,,,h,5.039000034,CUCH,FALSE,,,,,,,185,ulleres,Catalan,Sounds/cat_ulleres.mp3,2020-06-17_16h10.50.022,TranslationElicitation_spa,3.2.4,Win32,60,5ede17651b8bce028a0853b3,,1,0,80,76,1,79
,,,,,,,,,,,,,,,,,,,,,,,,,,,,,,,,,,,i,5.217999935,CUCHI,FALSE,,,,,,,185,ulleres,Catalan,Sounds/cat_ulleres.mp3,2020-06-17_16h10.50.022,TranslationElicitation_spa,3.2.4,Win32,60,5ede17651b8bce028a0853b3,,1,0,80,76,1,79
,,,,,,,,,,,,,,,,,,,,,,,,,,,,,,,,,,,l,6.189999819,CUCHIL,FALSE,,,,,,,185,ulleres,Catalan,Sounds/cat_ulleres.mp3,2020-06-17_16h10.50.022,TranslationElicitation_spa,3.2.4,Win32,60,5ede17651b8bce028a0853b3,,1,0,80,76,1,79
,,,,,,,,,,,,,,,,,,,,,,,,,,,,,,,,,,,l,6.337999821,CUCHILL,FALSE,,,,,,,185,ulleres,Catalan,Sounds/cat_ulleres.mp3,2020-06-17_16h10.50.022,TranslationElicitation_spa,3.2.4,Win32,60,5ede17651b8bce028a0853b3,,1,0,80,76,1,79
,,,,,,,,,,,,,,,,,,,,,,,,,,,,,,,,,,,o,6.508999825,CUCHILLO,FALSE,,,,,,,185,ulleres,Catalan,Sounds/cat_ulleres.mp3,2020-06-17_16h10.50.022,TranslationElicitation_spa,3.2.4,Win32,60,5ede17651b8bce028a0853b3,,1,0,80,76,1,79
,,,,,,,,,,,,,,,,,,,,,,,,,,,,,,,,,,,return,7.26699996,,FALSE,,,,,,,185,ulleres,Catalan,Sounds/cat_ulleres.mp3,2020-06-17_16h10.50.022,TranslationElicitation_spa,3.2.4,Win32,60,5ede17651b8bce028a0853b3,7.26699996,1,0,80,76,1,79
,,,,,,,,,,,,,,,,,,,,,,,,,,,,,,,,,,,,,,,,,,,,,185,ulleres,Catalan,Sounds/cat_ulleres.mp3,2020-06-17_16h10.50.022,TranslationElicitation_spa,3.2.4,Win32,60,5ede17651b8bce028a0853b3,,1,0,80,76,1,79
,,,,,,,,,,,,,,,,,,,,,,,,,,,,,,,,,,,a,4.440000057,A,FALSE,,,,,,,133,estruc,Catalan,Sounds/cat_estruc.mp3,2020-06-17_16h10.50.022,TranslationElicitation_spa,3.2.4,Win32,60,5ede17651b8bce028a0853b3,,1,0,80,28,1,79
,,,,,,,,,,,,,,,,,,,,,,,,,,,,,,,,,,,v,4.747000217,AV,FALSE,,,,,,,133,estruc,Catalan,Sounds/cat_estruc.mp3,2020-06-17_16h10.50.022,TranslationElicitation_spa,3.2.4,Win32,60,5ede17651b8bce028a0853b3,,1,0,80,28,1,79
,,,,,,,,,,,,,,,,,,,,,,,,,,,,,,,,,,,e,4.902000189,AVE,FALSE,,,,,,,133,estruc,Catalan,Sounds/cat_estruc.mp3,2020-06-17_16h10.50.022,TranslationElicitation_spa,3.2.4,Win32,60,5ede17651b8bce028a0853b3,,1,0,80,28,1,79
,,,,,,,,,,,,,,,,,,,,,,,,,,,,,,,,,,,s,5.061000109,AVES,FALSE,,,,,,,133,estruc,Catalan,Sounds/cat_estruc.mp3,2020-06-17_16h10.50.022,TranslationElicitation_spa,3.2.4,Win32,60,5ede17651b8bce028a0853b3,,1,0,80,28,1,79
,,,,,,,,,,,,,,,,,,,,,,,,,,,,,,,,,,,t,5.272000074,AVEST,FALSE,,,,,,,133,estruc,Catalan,Sounds/cat_estruc.mp3,2020-06-17_16h10.50.022,TranslationElicitation_spa,3.2.4,Win32,60,5ede17651b8bce028a0853b3,,1,0,80,28,1,79
,,,,,,,,,,,,,,,,,,,,,,,,,,,,,,,,,,,r,5.378000021,AVESTR,FALSE,,,,,,,133,estruc,Catalan,Sounds/cat_estruc.mp3,2020-06-17_16h10.50.022,TranslationElicitation_spa,3.2.4,Win32,60,5ede17651b8bce028a0853b3,,1,0,80,28,1,79
,,,,,,,,,,,,,,,,,,,,,,,,,,,,,,,,,,,u,5.484000206,AVESTRU,FALSE,,,,,,,133,estruc,Catalan,Sounds/cat_estruc.mp3,2020-06-17_16h10.50.022,TranslationElicitation_spa,3.2.4,Win32,60,5ede17651b8bce028a0853b3,,1,0,80,28,1,79
,,,,,,,,,,,,,,,,,,,,,,,,,,,,,,,,,,,z,5.697000027,AVESTRUZ,FALSE,,,,,,,133,estruc,Catalan,Sounds/cat_estruc.mp3,2020-06-17_16h10.50.022,TranslationElicitation_spa,3.2.4,Win32,60,5ede17651b8bce028a0853b3,,1,0,80,28,1,79
,,,,,,,,,,,,,,,,,,,,,,,,,,,,,,,,,,,return,7.33100009,,FALSE,,,,,,,133,estruc,Catalan,Sounds/cat_estruc.mp3,2020-06-17_16h10.50.022,TranslationElicitation_spa,3.2.4,Win32,60,5ede17651b8bce028a0853b3,7.33100009,1,0,80,28,1,79
,,,,,,,,,,,,,,,,,,,,,,,,,,,,,,,,,,,,,,,,,,,,,133,estruc,Catalan,Sounds/cat_estruc.mp3,2020-06-17_16h10.50.022,TranslationElicitation_spa,3.2.4,Win32,60,5ede17651b8bce028a0853b3,,1,0,80,28,1,79
,,,,,,,,,,,,,,,,,,,,,,,,,,,,,,,,,,,m,1.457999945,M,FALSE,,,,,,,156,moto,Catalan,Sounds/cat_moto.mp3,2020-06-17_16h10.50.022,TranslationElicitation_spa,3.2.4,Win32,60,5ede17651b8bce028a0853b3,,1,0,80,50,1,79
,,,,,,,,,,,,,,,,,,,,,,,,,,,,,,,,,,,o,1.607000113,MO,FALSE,,,,,,,156,moto,Catalan,Sounds/cat_moto.mp3,2020-06-17_16h10.50.022,TranslationElicitation_spa,3.2.4,Win32,60,5ede17651b8bce028a0853b3,,1,0,80,50,1,79
,,,,,,,,,,,,,,,,,,,,,,,,,,,,,,,,,,,t,1.707999945,MOT,FALSE,,,,,,,156,moto,Catalan,Sounds/cat_moto.mp3,2020-06-17_16h10.50.022,TranslationElicitation_spa,3.2.4,Win32,60,5ede17651b8bce028a0853b3,,1,0,80,50,1,79
,,,,,,,,,,,,,,,,,,,,,,,,,,,,,,,,,,,o,1.759000063,MOTO,FALSE,,,,,,,156,moto,Catalan,Sounds/cat_moto.mp3,2020-06-17_16h10.50.022,TranslationElicitation_spa,3.2.4,Win32,60,5ede17651b8bce028a0853b3,,1,0,80,50,1,79
,,,,,,,,,,,,,,,,,,,,,,,,,,,,,,,,,,,return,2.227999926,,FALSE,,,,,,,156,moto,Catalan,Sounds/cat_moto.mp3,2020-06-17_16h10.50.022,TranslationElicitation_spa,3.2.4,Win32,60,5ede17651b8bce028a0853b3,2.227999926,1,0,80,50,1,79
,,,,,,,,,,,,,,,,,,,,,,,,,,,,,,,,,,,,,,,,,,,,,156,moto,Catalan,Sounds/cat_moto.mp3,2020-06-17_16h10.50.022,TranslationElicitation_spa,3.2.4,Win32,60,5ede17651b8bce028a0853b3,,1,0,80,50,1,79
,,,,,,,,,,,,,,,,,,,,,,,,,,,,,,,,,,,p,8.22300005,P,FALSE,,,,,,,141,gerd,Catalan,Sounds/cat_gerd.mp3,2020-06-17_16h10.50.022,TranslationElicitation_spa,3.2.4,Win32,60,5ede17651b8bce028a0853b3,,1,0,80,36,1,79
,,,,,,,,,,,,,,,,,,,,,,,,,,,,,,,,,,,e,8.322999954,PE,FALSE,,,,,,,141,gerd,Catalan,Sounds/cat_gerd.mp3,2020-06-17_16h10.50.022,TranslationElicitation_spa,3.2.4,Win32,60,5ede17651b8bce028a0853b3,,1,0,80,36,1,79
,,,,,,,,,,,,,,,,,,,,,,,,,,,,,,,,,,,z,8.575999975,PEZ,FALSE,,,,,,,141,gerd,Catalan,Sounds/cat_gerd.mp3,2020-06-17_16h10.50.022,TranslationElicitation_spa,3.2.4,Win32,60,5ede17651b8bce028a0853b3,,1,0,80,36,1,79
,,,,,,,,,,,,,,,,,,,,,,,,,,,,,,,,,,,return,18.91400003,,FALSE,,,,,,,141,gerd,Catalan,Sounds/cat_gerd.mp3,2020-06-17_16h10.50.022,TranslationElicitation_spa,3.2.4,Win32,60,5ede17651b8bce028a0853b3,18.91400003,1,0,80,36,1,79
,,,,,,,,,,,,,,,,,,,,,,,,,,,,,,,,,,,,,,,,,,,,,141,gerd,Catalan,Sounds/cat_gerd.mp3,2020-06-17_16h10.50.022,TranslationElicitation_spa,3.2.4,Win32,60,5ede17651b8bce028a0853b3,,1,0,80,36,1,79
,,,,,,,,,,,,,,,,,,,,,,,,,,,,,,,,,,,t,2.187000036,T,FALSE,,,,,,,180,tisores,Catalan,Sounds/cat_tisores.mp3,2020-06-17_16h10.50.022,TranslationElicitation_spa,3.2.4,Win32,60,5ede17651b8bce028a0853b3,,1,0,80,71,1,79
,,,,,,,,,,,,,,,,,,,,,,,,,,,,,,,,,,,i,2.337000132,TI,FALSE,,,,,,,180,tisores,Catalan,Sounds/cat_tisores.mp3,2020-06-17_16h10.50.022,TranslationElicitation_spa,3.2.4,Win32,60,5ede17651b8bce028a0853b3,,1,0,80,71,1,79
,,,,,,,,,,,,,,,,,,,,,,,,,,,,,,,,,,,r,2.542999983,TIR,FALSE,,,,,,,180,tisores,Catalan,Sounds/cat_tisores.mp3,2020-06-17_16h10.50.022,TranslationElicitation_spa,3.2.4,Win32,60,5ede17651b8bce028a0853b3,,1,0,80,71,1,79
,,,,,,,,,,,,,,,,,,,,,,,,,,,,,,,,,,,a,2.748000145,TIRA,FALSE,,,,,,,180,tisores,Catalan,Sounds/cat_tisores.mp3,2020-06-17_16h10.50.022,TranslationElicitation_spa,3.2.4,Win32,60,5ede17651b8bce028a0853b3,,1,0,80,71,1,79
,,,,,,,,,,,,,,,,,,,,,,,,,,,,,,,,,,,n,2.851999998,TIRAN,FALSE,,,,,,,180,tisores,Catalan,Sounds/cat_tisores.mp3,2020-06-17_16h10.50.022,TranslationElicitation_spa,3.2.4,Win32,60,5ede17651b8bce028a0853b3,,1,0,80,71,1,79
,,,,,,,,,,,,,,,,,,,,,,,,,,,,,,,,,,,t,2.953999996,TIRANT,FALSE,,,,,,,180,tisores,Catalan,Sounds/cat_tisores.mp3,2020-06-17_16h10.50.022,TranslationElicitation_spa,3.2.4,Win32,60,5ede17651b8bce028a0853b3,,1,0,80,71,1,79
,,,,,,,,,,,,,,,,,,,,,,,,,,,,,,,,,,,e,3.110000134,TIRANTE,FALSE,,,,,,,180,tisores,Catalan,Sounds/cat_tisores.mp3,2020-06-17_16h10.50.022,TranslationElicitation_spa,3.2.4,Win32,60,5ede17651b8bce028a0853b3,,1,0,80,71,1,79
,,,,,,,,,,,,,,,,,,,,,,,,,,,,,,,,,,,s,3.32400012,TIRANTES,FALSE,,,,,,,180,tisores,Catalan,Sounds/cat_tisores.mp3,2020-06-17_16h10.50.022,TranslationElicitation_spa,3.2.4,Win32,60,5ede17651b8bce028a0853b3,,1,0,80,71,1,79
,,,,,,,,,,,,,,,,,,,,,,,,,,,,,,,,,,,return,3.521000147,,FALSE,,,,,,,180,tisores,Catalan,Sounds/cat_tisores.mp3,2020-06-17_16h10.50.022,TranslationElicitation_spa,3.2.4,Win32,60,5ede17651b8bce028a0853b3,3.521000147,1,0,80,71,1,79
,,,,,,,,,,,,,,,,,,,,,,,,,,,,,,,,,,,,,,,,,,,,,180,tisores,Catalan,Sounds/cat_tisores.mp3,2020-06-17_16h10.50.022,TranslationElicitation_spa,3.2.4,Win32,60,5ede17651b8bce028a0853b3,,1,0,80,71,1,79
,,,,,,,,,,,,,,,,,,,,,,,,,,,,,,,,,,,m,4,M,FALSE,,,,,,,107,amanida,Catalan,Sounds/cat_amanida.mp3,2020-06-17_16h10.50.022,TranslationElicitation_spa,3.2.4,Win32,60,5ede17651b8bce028a0853b3,,1,0,80,3,1,79
,,,,,,,,,,,,,,,,,,,,,,,,,,,,,,,,,,,e,4.055999994,ME,FALSE,,,,,,,107,amanida,Catalan,Sounds/cat_amanida.mp3,2020-06-17_16h10.50.022,TranslationElicitation_spa,3.2.4,Win32,60,5ede17651b8bce028a0853b3,,1,0,80,3,1,79
,,,,,,,,,,,,,,,,,,,,,,,,,,,,,,,,,,,l,4.270999908,MEL,FALSE,,,,,,,107,amanida,Catalan,Sounds/cat_amanida.mp3,2020-06-17_16h10.50.022,TranslationElicitation_spa,3.2.4,Win32,60,5ede17651b8bce028a0853b3,,1,0,80,3,1,79
,,,,,,,,,,,,,,,,,,,,,,,,,,,,,,,,,,,o,4.400000095,MELO,FALSE,,,,,,,107,amanida,Catalan,Sounds/cat_amanida.mp3,2020-06-17_16h10.50.022,TranslationElicitation_spa,3.2.4,Win32,60,5ede17651b8bce028a0853b3,,1,0,80,3,1,79
,,,,,,,,,,,,,,,,,,,,,,,,,,,,,,,,,,,c,4.532000065,MELOC,FALSE,,,,,,,107,amanida,Catalan,Sounds/cat_amanida.mp3,2020-06-17_16h10.50.022,TranslationElicitation_spa,3.2.4,Win32,60,5ede17651b8bce028a0853b3,,1,0,80,3,1,79
,,,,,,,,,,,,,,,,,,,,,,,,,,,,,,,,,,,o,4.587000132,MELOCO,FALSE,,,,,,,107,amanida,Catalan,Sounds/cat_amanida.mp3,2020-06-17_16h10.50.022,TranslationElicitation_spa,3.2.4,Win32,60,5ede17651b8bce028a0853b3,,1,0,80,3,1,79
,,,,,,,,,,,,,,,,,,,,,,,,,,,,,,,,,,,t,4.855000019,MELOCOT,FALSE,,,,,,,107,amanida,Catalan,Sounds/cat_amanida.mp3,2020-06-17_16h10.50.022,TranslationElicitation_spa,3.2.4,Win32,60,5ede17651b8bce028a0853b3,,1,0,80,3,1,79
,,,,,,,,,,,,,,,,,,,,,,,,,,,,,,,,,,,o,4.967000008,MELOCOTO,FALSE,,,,,,,107,amanida,Catalan,Sounds/cat_amanida.mp3,2020-06-17_16h10.50.022,TranslationElicitation_spa,3.2.4,Win32,60,5ede17651b8bce028a0853b3,,1,0,80,3,1,79
,,,,,,,,,,,,,,,,,,,,,,,,,,,,,,,,,,,n,5.124000072,MELOCOTON,FALSE,,,,,,,107,amanida,Catalan,Sounds/cat_amanida.mp3,2020-06-17_16h10.50.022,TranslationElicitation_spa,3.2.4,Win32,60,5ede17651b8bce028a0853b3,,1,0,80,3,1,79
,,,,,,,,,,,,,,,,,,,,,,,,,,,,,,,,,,,return,5.571000099,,FALSE,,,,,,,107,amanida,Catalan,Sounds/cat_amanida.mp3,2020-06-17_16h10.50.022,TranslationElicitation_spa,3.2.4,Win32,60,5ede17651b8bce028a0853b3,5.571000099,1,0,80,3,1,79
,,,,,,,,,,,,,,,,,,,,,,,,,,,,,,,,,,,,,,,,,,,,,107,amanida,Catalan,Sounds/cat_amanida.mp3,2020-06-17_16h10.50.022,TranslationElicitation_spa,3.2.4,Win32,60,5ede17651b8bce028a0853b3,,1,0,80,3,1,79
,,,,,,,,,,,,,,,,,,,,,,,,,,,,,,,,,,,s,1.527999878,S,FALSE,,,,,,,177,sol,Catalan,Sounds/cat_sol.mp3,2020-06-17_16h10.50.022,TranslationElicitation_spa,3.2.4,Win32,60,5ede17651b8bce028a0853b3,,1,0,80,69,1,79
,,,,,,,,,,,,,,,,,,,,,,,,,,,,,,,,,,,o,1.689999819,SO,FALSE,,,,,,,177,sol,Catalan,Sounds/cat_sol.mp3,2020-06-17_16h10.50.022,TranslationElicitation_spa,3.2.4,Win32,60,5ede17651b8bce028a0853b3,,1,0,80,69,1,79
,,,,,,,,,,,,,,,,,,,,,,,,,,,,,,,,,,,l,1.852999926,SOL,FALSE,,,,,,,177,sol,Catalan,Sounds/cat_sol.mp3,2020-06-17_16h10.50.022,TranslationElicitation_spa,3.2.4,Win32,60,5ede17651b8bce028a0853b3,,1,0,80,69,1,79
,,,,,,,,,,,,,,,,,,,,,,,,,,,,,,,,,,,return,2.186999798,,FALSE,,,,,,,177,sol,Catalan,Sounds/cat_sol.mp3,2020-06-17_16h10.50.022,TranslationElicitation_spa,3.2.4,Win32,60,5ede17651b8bce028a0853b3,2.186999798,1,0,80,69,1,79
,,,,,,,,,,,,,,,,,,,,,,,,,,,,,,,,,,,,,,,,,,,,,177,sol,Catalan,Sounds/cat_sol.mp3,2020-06-17_16h10.50.022,TranslationElicitation_spa,3.2.4,Win32,60,5ede17651b8bce028a0853b3,,1,0,80,69,1,79
,,,,,,,,,,,,,,,,,,,,,,,,,,,,,,,,,,,p,1.355000019,P,FALSE,,,,,,,162,pa,Catalan,Sounds/cat_pa.mp3,2020-06-17_16h10.50.022,TranslationElicitation_spa,3.2.4,Win32,60,5ede17651b8bce028a0853b3,,1,0,80,55,1,79
,,,,,,,,,,,,,,,,,,,,,,,,,,,,,,,,,,,a,1.563000202,PA,FALSE,,,,,,,162,pa,Catalan,Sounds/cat_pa.mp3,2020-06-17_16h10.50.022,TranslationElicitation_spa,3.2.4,Win32,60,5ede17651b8bce028a0853b3,,1,0,80,55,1,79
,,,,,,,,,,,,,,,,,,,,,,,,,,,,,,,,,,,n,1.6650002,PAN,FALSE,,,,,,,162,pa,Catalan,Sounds/cat_pa.mp3,2020-06-17_16h10.50.022,TranslationElicitation_spa,3.2.4,Win32,60,5ede17651b8bce028a0853b3,,1,0,80,55,1,79
,,,,,,,,,,,,,,,,,,,,,,,,,,,,,,,,,,,return,2.991000175,,FALSE,,,,,,,162,pa,Catalan,Sounds/cat_pa.mp3,2020-06-17_16h10.50.022,TranslationElicitation_spa,3.2.4,Win32,60,5ede17651b8bce028a0853b3,2.991000175,1,0,80,55,1,79
,,,,,,,,,,,,,,,,,,,,,,,,,,,,,,,,,,,,,,,,,,,,,162,pa,Catalan,Sounds/cat_pa.mp3,2020-06-17_16h10.50.022,TranslationElicitation_spa,3.2.4,Win32,60,5ede17651b8bce028a0853b3,,1,0,80,55,1,79
,,,,,,,,,,,,,,,,,,,,,,,,,,,,,,,,,,,f,1.671000004,F,FALSE,,,,,,,136,forquilla,Catalan,Sounds/cat_forquilla.mp3,2020-06-17_16h10.50.022,TranslationElicitation_spa,3.2.4,Win32,60,5ede17651b8bce028a0853b3,,1,0,80,31,1,79
,,,,,,,,,,,,,,,,,,,,,,,,,,,,,,,,,,,u,1.828000069,FU,FALSE,,,,,,,136,forquilla,Catalan,Sounds/cat_forquilla.mp3,2020-06-17_16h10.50.022,TranslationElicitation_spa,3.2.4,Win32,60,5ede17651b8bce028a0853b3,,1,0,80,31,1,79
,,,,,,,,,,,,,,,,,,,,,,,,,,,,,,,,,,,r,1.878999949,FUR,FALSE,,,,,,,136,forquilla,Catalan,Sounds/cat_forquilla.mp3,2020-06-17_16h10.50.022,TranslationElicitation_spa,3.2.4,Win32,60,5ede17651b8bce028a0853b3,,1,0,80,31,1,79
,,,,,,,,,,,,,,,,,,,,,,,,,,,,,,,,,,,g,2.08100009,FURG,FALSE,,,,,,,136,forquilla,Catalan,Sounds/cat_forquilla.mp3,2020-06-17_16h10.50.022,TranslationElicitation_spa,3.2.4,Win32,60,5ede17651b8bce028a0853b3,,1,0,80,31,1,79
,,,,,,,,,,,,,,,,,,,,,,,,,,,,,,,,,,,o,2.184000015,FURGO,FALSE,,,,,,,136,forquilla,Catalan,Sounds/cat_forquilla.mp3,2020-06-17_16h10.50.022,TranslationElicitation_spa,3.2.4,Win32,60,5ede17651b8bce028a0853b3,,1,0,80,31,1,79
,,,,,,,,,,,,,,,,,,,,,,,,,,,,,,,,,,,n,2.444000006,FURGON,FALSE,,,,,,,136,forquilla,Catalan,Sounds/cat_forquilla.mp3,2020-06-17_16h10.50.022,TranslationElicitation_spa,3.2.4,Win32,60,5ede17651b8bce028a0853b3,,1,0,80,31,1,79
,,,,,,,,,,,,,,,,,,,,,,,,,,,,,,,,,,,e,2.546000004,FURGONE,FALSE,,,,,,,136,forquilla,Catalan,Sounds/cat_forquilla.mp3,2020-06-17_16h10.50.022,TranslationElicitation_spa,3.2.4,Win32,60,5ede17651b8bce028a0853b3,,1,0,80,31,1,79
,,,,,,,,,,,,,,,,,,,,,,,,,,,,,,,,,,,t,2.701999903,FURGONET,FALSE,,,,,,,136,forquilla,Catalan,Sounds/cat_forquilla.mp3,2020-06-17_16h10.50.022,TranslationElicitation_spa,3.2.4,Win32,60,5ede17651b8bce028a0853b3,,1,0,80,31,1,79
,,,,,,,,,,,,,,,,,,,,,,,,,,,,,,,,,,,a,2.923000097,FURGONETA,FALSE,,,,,,,136,forquilla,Catalan,Sounds/cat_forquilla.mp3,2020-06-17_16h10.50.022,TranslationElicitation_spa,3.2.4,Win32,60,5ede17651b8bce028a0853b3,,1,0,80,31,1,79
,,,,,,,,,,,,,,,,,,,,,,,,,,,,,,,,,,,return,3.252000093,,FALSE,,,,,,,136,forquilla,Catalan,Sounds/cat_forquilla.mp3,2020-06-17_16h10.50.022,TranslationElicitation_spa,3.2.4,Win32,60,5ede17651b8bce028a0853b3,3.252000093,1,0,80,31,1,79
,,,,,,,,,,,,,,,,,,,,,,,,,,,,,,,,,,,,,,,,,,,,,136,forquilla,Catalan,Sounds/cat_forquilla.mp3,2020-06-17_16h10.50.022,TranslationElicitation_spa,3.2.4,Win32,60,5ede17651b8bce028a0853b3,,1,0,80,31,1,79
,,,,,,,,,,,,,,,,,,,,,,,,,,,,,,,,,,,m,24.15899992,M,FALSE,,,,,,,178,taronja,Catalan,Sounds/cat_taronja.mp3,2020-06-17_16h10.50.022,TranslationElicitation_spa,3.2.4,Win32,60,5ede17651b8bce028a0853b3,,1,0,80,70,1,79
,,,,,,,,,,,,,,,,,,,,,,,,,,,,,,,,,,,a,24.26099992,MA,FALSE,,,,,,,178,taronja,Catalan,Sounds/cat_taronja.mp3,2020-06-17_16h10.50.022,TranslationElicitation_spa,3.2.4,Win32,60,5ede17651b8bce028a0853b3,,1,0,80,70,1,79
,,,,,,,,,,,,,,,,,,,,,,,,,,,,,,,,,,,q,24.46499991,MAQ,FALSE,,,,,,,178,taronja,Catalan,Sounds/cat_taronja.mp3,2020-06-17_16h10.50.022,TranslationElicitation_spa,3.2.4,Win32,60,5ede17651b8bce028a0853b3,,1,0,80,70,1,79
,,,,,,,,,,,,,,,,,,,,,,,,,,,,,,,,,,,u,24.5150001,MAQU,FALSE,,,,,,,178,taronja,Catalan,Sounds/cat_taronja.mp3,2020-06-17_16h10.50.022,TranslationElicitation_spa,3.2.4,Win32,60,5ede17651b8bce028a0853b3,,1,0,80,70,1,79
,,,,,,,,,,,,,,,,,,,,,,,,,,,,,,,,,,,i,24.67000008,MAQUI,FALSE,,,,,,,178,taronja,Catalan,Sounds/cat_taronja.mp3,2020-06-17_16h10.50.022,TranslationElicitation_spa,3.2.4,Win32,60,5ede17651b8bce028a0853b3,,1,0,80,70,1,79
,,,,,,,,,,,,,,,,,,,,,,,,,,,,,,,,,,,n,24.82800007,MAQUIN,FALSE,,,,,,,178,taronja,Catalan,Sounds/cat_taronja.mp3,2020-06-17_16h10.50.022,TranslationElicitation_spa,3.2.4,Win32,60,5ede17651b8bce028a0853b3,,1,0,80,70,1,79
,,,,,,,,,,,,,,,,,,,,,,,,,,,,,,,,,,,a,24.93199992,MAQUINA,FALSE,,,,,,,178,taronja,Catalan,Sounds/cat_taronja.mp3,2020-06-17_16h10.50.022,TranslationElicitation_spa,3.2.4,Win32,60,5ede17651b8bce028a0853b3,,1,0,80,70,1,79
,,,,,,,,,,,,,,,,,,,,,,,,,,,,,,,,,,,return,25.25699997,,FALSE,,,,,,,178,taronja,Catalan,Sounds/cat_taronja.mp3,2020-06-17_16h10.50.022,TranslationElicitation_spa,3.2.4,Win32,60,5ede17651b8bce028a0853b3,25.25699997,1,0,80,70,1,79
,,,,,,,,,,,,,,,,,,,,,,,,,,,,,,,,,,,,,,,,,,,,,178,taronja,Catalan,Sounds/cat_taronja.mp3,2020-06-17_16h10.50.022,TranslationElicitation_spa,3.2.4,Win32,60,5ede17651b8bce028a0853b3,,1,0,80,70,1,79
,,,,,,,,,,,,,,,,,,,,,,,,,,,,,,,,,,,m,4.467999935,M,FALSE,,,,,,,154,mirall,Catalan,Sounds/cat_mirall.mp3,2020-06-17_16h10.50.022,TranslationElicitation_spa,3.2.4,Win32,60,5ede17651b8bce028a0853b3,,1,0,80,48,1,79
,,,,,,,,,,,,,,,,,,,,,,,,,,,,,,,,,,,i,4.648999929,MI,FALSE,,,,,,,154,mirall,Catalan,Sounds/cat_mirall.mp3,2020-06-17_16h10.50.022,TranslationElicitation_spa,3.2.4,Win32,60,5ede17651b8bce028a0853b3,,1,0,80,48,1,79
,,,,,,,,,,,,,,,,,,,,,,,,,,,,,,,,,,,r,4.753000021,MIR,FALSE,,,,,,,154,mirall,Catalan,Sounds/cat_mirall.mp3,2020-06-17_16h10.50.022,TranslationElicitation_spa,3.2.4,Win32,60,5ede17651b8bce028a0853b3,,1,0,80,48,1,79
,,,,,,,,,,,,,,,,,,,,,,,,,,,,,,,,,,,a,4.957999945,MIRA,FALSE,,,,,,,154,mirall,Catalan,Sounds/cat_mirall.mp3,2020-06-17_16h10.50.022,TranslationElicitation_spa,3.2.4,Win32,60,5ede17651b8bce028a0853b3,,1,0,80,48,1,79
,,,,,,,,,,,,,,,,,,,,,,,,,,,,,,,,,,,r,5.161000013,MIRAR,FALSE,,,,,,,154,mirall,Catalan,Sounds/cat_mirall.mp3,2020-06-17_16h10.50.022,TranslationElicitation_spa,3.2.4,Win32,60,5ede17651b8bce028a0853b3,,1,0,80,48,1,79
,,,,,,,,,,,,,,,,,,,,,,,,,,,,,,,,,,,return,5.519999981,,FALSE,,,,,,,154,mirall,Catalan,Sounds/cat_mirall.mp3,2020-06-17_16h10.50.022,TranslationElicitation_spa,3.2.4,Win32,60,5ede17651b8bce028a0853b3,5.519999981,1,0,80,48,1,79
,,,,,,,,,,,,,,,,,,,,,,,,,,,,,,,,,,,,,,,,,,,,,154,mirall,Catalan,Sounds/cat_mirall.mp3,2020-06-17_16h10.50.022,TranslationElicitation_spa,3.2.4,Win32,60,5ede17651b8bce028a0853b3,,1,0,80,48,1,79
,,,,,,,,,,,,,,,,,,,,,,,,,,,,,,,,,,,s,1.09800005,S,FALSE,,,,,,,124,cirera,Catalan,Sounds/cat_cirera.mp3,2020-06-17_16h10.50.022,TranslationElicitation_spa,3.2.4,Win32,60,5ede17651b8bce028a0853b3,,1,0,80,19,1,79
,,,,,,,,,,,,,,,,,,,,,,,,,,,,,,,,,,,i,1.198000193,SI,FALSE,,,,,,,124,cirera,Catalan,Sounds/cat_cirera.mp3,2020-06-17_16h10.50.022,TranslationElicitation_spa,3.2.4,Win32,60,5ede17651b8bce028a0853b3,,1,0,80,19,1,79
,,,,,,,,,,,,,,,,,,,,,,,,,,,,,,,,,,,r,1.29700017,SIR,FALSE,,,,,,,124,cirera,Catalan,Sounds/cat_cirera.mp3,2020-06-17_16h10.50.022,TranslationElicitation_spa,3.2.4,Win32,60,5ede17651b8bce028a0853b3,,1,0,80,19,1,79
,,,,,,,,,,,,,,,,,,,,,,,,,,,,,,,,,,,e,1.450999975,SIRE,FALSE,,,,,,,124,cirera,Catalan,Sounds/cat_cirera.mp3,2020-06-17_16h10.50.022,TranslationElicitation_spa,3.2.4,Win32,60,5ede17651b8bce028a0853b3,,1,0,80,19,1,79
,,,,,,,,,,,,,,,,,,,,,,,,,,,,,,,,,,,n,1.569000006,SIREN,FALSE,,,,,,,124,cirera,Catalan,Sounds/cat_cirera.mp3,2020-06-17_16h10.50.022,TranslationElicitation_spa,3.2.4,Win32,60,5ede17651b8bce028a0853b3,,1,0,80,19,1,79
,,,,,,,,,,,,,,,,,,,,,,,,,,,,,,,,,,,a,1.621000051,SIRENA,FALSE,,,,,,,124,cirera,Catalan,Sounds/cat_cirera.mp3,2020-06-17_16h10.50.022,TranslationElicitation_spa,3.2.4,Win32,60,5ede17651b8bce028a0853b3,,1,0,80,19,1,79
,,,,,,,,,,,,,,,,,,,,,,,,,,,,,,,,,,,return,1.879000187,,FALSE,,,,,,,124,cirera,Catalan,Sounds/cat_cirera.mp3,2020-06-17_16h10.50.022,TranslationElicitation_spa,3.2.4,Win32,60,5ede17651b8bce028a0853b3,1.879000187,1,0,80,19,1,79
,,,,,,,,,,,,,,,,,,,,,,,,,,,,,,,,,,,,,,,,,,,,,124,cirera,Catalan,Sounds/cat_cirera.mp3,2020-06-17_16h10.50.022,TranslationElicitation_spa,3.2.4,Win32,60,5ede17651b8bce028a0853b3,,1,0,80,19,1,79
,,,,,,,,,,,,,,,,,,,,,,,,,,,,,,,,,,,l,1.487000227,L,FALSE,,,,,,,148,lleo,Catalan,Sounds/cat_lleo.mp3,2020-06-17_16h10.50.022,TranslationElicitation_spa,3.2.4,Win32,60,5ede17651b8bce028a0853b3,,1,0,80,42,1,79
,,,,,,,,,,,,,,,,,,,,,,,,,,,,,,,,,,,l,1.636000156,LL,FALSE,,,,,,,148,lleo,Catalan,Sounds/cat_lleo.mp3,2020-06-17_16h10.50.022,TranslationElicitation_spa,3.2.4,Win32,60,5ede17651b8bce028a0853b3,,1,0,80,42,1,79
,,,,,,,,,,,,,,,,,,,,,,,,,,,,,,,,,,,v,1.886000156,LLV,FALSE,,,,,,,148,lleo,Catalan,Sounds/cat_lleo.mp3,2020-06-17_16h10.50.022,TranslationElicitation_spa,3.2.4,Win32,60,5ede17651b8bce028a0853b3,,1,0,80,42,1,79
,,,,,,,,,,,,,,,,,,,,,,,,,,,,,,,,,,,e,2.037000179,LLVE,FALSE,,,,,,,148,lleo,Catalan,Sounds/cat_lleo.mp3,2020-06-17_16h10.50.022,TranslationElicitation_spa,3.2.4,Win32,60,5ede17651b8bce028a0853b3,,1,0,80,42,1,79
,,,,,,,,,,,,,,,,,,,,,,,,,,,,,,,,,,,return,2.188000202,,FALSE,,,,,,,148,lleo,Catalan,Sounds/cat_lleo.mp3,2020-06-17_16h10.50.022,TranslationElicitation_spa,3.2.4,Win32,60,5ede17651b8bce028a0853b3,2.188000202,1,0,80,42,1,79
,,,,,,,,,,,,,,,,,,,,,,,,,,,,,,,,,,,,,,,,,,,,,148,lleo,Catalan,Sounds/cat_lleo.mp3,2020-06-17_16h10.50.022,TranslationElicitation_spa,3.2.4,Win32,60,5ede17651b8bce028a0853b3,,1,0,80,42,1,79
,,,,,,,,,,,,,,,,,,,,,,,,,,,,,,,,,,,g,1.136000156,G,FALSE,,,,,,,146,guitarra,Catalan,Sounds/cat_guitarra.mp3,2020-06-17_16h10.50.022,TranslationElicitation_spa,3.2.4,Win32,60,5ede17651b8bce028a0853b3,,1,0,80,41,1,79
,,,,,,,,,,,,,,,,,,,,,,,,,,,,,,,,,,,u,1.2900002,GU,FALSE,,,,,,,146,guitarra,Catalan,Sounds/cat_guitarra.mp3,2020-06-17_16h10.50.022,TranslationElicitation_spa,3.2.4,Win32,60,5ede17651b8bce028a0853b3,,1,0,80,41,1,79
,,,,,,,,,,,,,,,,,,,,,,,,,,,,,,,,,,,i,1.440000057,GUI,FALSE,,,,,,,146,guitarra,Catalan,Sounds/cat_guitarra.mp3,2020-06-17_16h10.50.022,TranslationElicitation_spa,3.2.4,Win32,60,5ede17651b8bce028a0853b3,,1,0,80,41,1,79
,,,,,,,,,,,,,,,,,,,,,,,,,,,,,,,,,,,t,1.542000055,GUIT,FALSE,,,,,,,146,guitarra,Catalan,Sounds/cat_guitarra.mp3,2020-06-17_16h10.50.022,TranslationElicitation_spa,3.2.4,Win32,60,5ede17651b8bce028a0853b3,,1,0,80,41,1,79
,,,,,,,,,,,,,,,,,,,,,,,,,,,,,,,,,,,a,1.751000166,GUITA,FALSE,,,,,,,146,guitarra,Catalan,Sounds/cat_guitarra.mp3,2020-06-17_16h10.50.022,TranslationElicitation_spa,3.2.4,Win32,60,5ede17651b8bce028a0853b3,,1,0,80,41,1,79
,,,,,,,,,,,,,,,,,,,,,,,,,,,,,,,,,,,r,2.005000114,GUITAR,FALSE,,,,,,,146,guitarra,Catalan,Sounds/cat_guitarra.mp3,2020-06-17_16h10.50.022,TranslationElicitation_spa,3.2.4,Win32,60,5ede17651b8bce028a0853b3,,1,0,80,41,1,79
,,,,,,,,,,,,,,,,,,,,,,,,,,,,,,,,,,,r,2.107000113,GUITARR,FALSE,,,,,,,146,guitarra,Catalan,Sounds/cat_guitarra.mp3,2020-06-17_16h10.50.022,TranslationElicitation_spa,3.2.4,Win32,60,5ede17651b8bce028a0853b3,,1,0,80,41,1,79
,,,,,,,,,,,,,,,,,,,,,,,,,,,,,,,,,,,a,2.317000151,GUITARRA,FALSE,,,,,,,146,guitarra,Catalan,Sounds/cat_guitarra.mp3,2020-06-17_16h10.50.022,TranslationElicitation_spa,3.2.4,Win32,60,5ede17651b8bce028a0853b3,,1,0,80,41,1,79
,,,,,,,,,,,,,,,,,,,,,,,,,,,,,,,,,,,return,2.725000143,,FALSE,,,,,,,146,guitarra,Catalan,Sounds/cat_guitarra.mp3,2020-06-17_16h10.50.022,TranslationElicitation_spa,3.2.4,Win32,60,5ede17651b8bce028a0853b3,2.725000143,1,0,80,41,1,79
,,,,,,,,,,,,,,,,,,,,,,,,,,,,,,,,,,,,,,,,,,,,,146,guitarra,Catalan,Sounds/cat_guitarra.mp3,2020-06-17_16h10.50.022,TranslationElicitation_spa,3.2.4,Win32,60,5ede17651b8bce028a0853b3,,1,0,80,41,1,79
,,,,,,,,,,,,,,,,,,,,,,,,,,,,,,,,,,,r,3.796000004,R,FALSE,,,,,,,165,pernil,Catalan,Sounds/cat_pernil.mp3,2020-06-17_16h10.50.022,TranslationElicitation_spa,3.2.4,Win32,60,5ede17651b8bce028a0853b3,,1,0,80,58,1,79
,,,,,,,,,,,,,,,,,,,,,,,,,,,,,,,,,,,e,3.90199995,RE,FALSE,,,,,,,165,pernil,Catalan,Sounds/cat_pernil.mp3,2020-06-17_16h10.50.022,TranslationElicitation_spa,3.2.4,Win32,60,5ede17651b8bce028a0853b3,,1,0,80,58,1,79
,,,,,,,,,,,,,,,,,,,,,,,,,,,,,,,,,,,p,4.014999866,REP,FALSE,,,,,,,165,pernil,Catalan,Sounds/cat_pernil.mp3,2020-06-17_16h10.50.022,TranslationElicitation_spa,3.2.4,Win32,60,5ede17651b8bce028a0853b3,,1,0,80,58,1,79
,,,,,,,,,,,,,,,,,,,,,,,,,,,,,,,,,,,i,4.180000067,REPI,FALSE,,,,,,,165,pernil,Catalan,Sounds/cat_pernil.mp3,2020-06-17_16h10.50.022,TranslationElicitation_spa,3.2.4,Win32,60,5ede17651b8bce028a0853b3,,1,0,80,58,1,79
,,,,,,,,,,,,,,,,,,,,,,,,,,,,,,,,,,,s,4.292000055,REPIS,FALSE,,,,,,,165,pernil,Catalan,Sounds/cat_pernil.mp3,2020-06-17_16h10.50.022,TranslationElicitation_spa,3.2.4,Win32,60,5ede17651b8bce028a0853b3,,1,0,80,58,1,79
,,,,,,,,,,,,,,,,,,,,,,,,,,,,,,,,,,,a,4.411000013,REPISA,FALSE,,,,,,,165,pernil,Catalan,Sounds/cat_pernil.mp3,2020-06-17_16h10.50.022,TranslationElicitation_spa,3.2.4,Win32,60,5ede17651b8bce028a0853b3,,1,0,80,58,1,79
,,,,,,,,,,,,,,,,,,,,,,,,,,,,,,,,,,,return,4.987999916,,FALSE,,,,,,,165,pernil,Catalan,Sounds/cat_pernil.mp3,2020-06-17_16h10.50.022,TranslationElicitation_spa,3.2.4,Win32,60,5ede17651b8bce028a0853b3,4.987999916,1,0,80,58,1,79
,,,,,,,,,,,,,,,,,,,,,,,,,,,,,,,,,,,,,,,,,,,,,165,pernil,Catalan,Sounds/cat_pernil.mp3,2020-06-17_16h10.50.022,TranslationElicitation_spa,3.2.4,Win32,60,5ede17651b8bce028a0853b3,,1,0,80,58,1,79
,,,,,,,,,,,,,,,,,,,,,,,,,,,,,,,,,,,g,1.427000046,G,FALSE,,,,,,,144,gorra,Catalan,Sounds/cat_gorra.mp3,2020-06-17_16h10.50.022,TranslationElicitation_spa,3.2.4,Win32,60,5ede17651b8bce028a0853b3,,1,0,80,39,1,79
,,,,,,,,,,,,,,,,,,,,,,,,,,,,,,,,,,,o,1.577000141,GO,FALSE,,,,,,,144,gorra,Catalan,Sounds/cat_gorra.mp3,2020-06-17_16h10.50.022,TranslationElicitation_spa,3.2.4,Win32,60,5ede17651b8bce028a0853b3,,1,0,80,39,1,79
,,,,,,,,,,,,,,,,,,,,,,,,,,,,,,,,,,,r,1.677999973,GOR,FALSE,,,,,,,144,gorra,Catalan,Sounds/cat_gorra.mp3,2020-06-17_16h10.50.022,TranslationElicitation_spa,3.2.4,Win32,60,5ede17651b8bce028a0853b3,,1,0,80,39,1,79
,,,,,,,,,,,,,,,,,,,,,,,,,,,,,,,,,,,r,1.83100009,GORR,FALSE,,,,,,,144,gorra,Catalan,Sounds/cat_gorra.mp3,2020-06-17_16h10.50.022,TranslationElicitation_spa,3.2.4,Win32,60,5ede17651b8bce028a0853b3,,1,0,80,39,1,79
,,,,,,,,,,,,,,,,,,,,,,,,,,,,,,,,,,,a,2.03399992,GORRA,FALSE,,,,,,,144,gorra,Catalan,Sounds/cat_gorra.mp3,2020-06-17_16h10.50.022,TranslationElicitation_spa,3.2.4,Win32,60,5ede17651b8bce028a0853b3,,1,0,80,39,1,79
,,,,,,,,,,,,,,,,,,,,,,,,,,,,,,,,,,,return,2.34100008,,FALSE,,,,,,,144,gorra,Catalan,Sounds/cat_gorra.mp3,2020-06-17_16h10.50.022,TranslationElicitation_spa,3.2.4,Win32,60,5ede17651b8bce028a0853b3,2.34100008,1,0,80,39,1,79
,,,,,,,,,,,,,,,,,,,,,,,,,,,,,,,,,,,,,,,,,,,,,144,gorra,Catalan,Sounds/cat_gorra.mp3,2020-06-17_16h10.50.022,TranslationElicitation_spa,3.2.4,Win32,60,5ede17651b8bce028a0853b3,,1,0,80,39,1,79
,,,,,,,,,,,,,,,,,,,,,,,,,,,,,,,,,,,b,1.365999937,B,FALSE,,,,,,,128,cuc,Catalan,Sounds/cat_cuc.mp3,2020-06-17_16h10.50.022,TranslationElicitation_spa,3.2.4,Win32,60,5ede17651b8bce028a0853b3,,1,0,80,23,1,79
,,,,,,,,,,,,,,,,,,,,,,,,,,,,,,,,,,,o,1.469000101,BO,FALSE,,,,,,,128,cuc,Catalan,Sounds/cat_cuc.mp3,2020-06-17_16h10.50.022,TranslationElicitation_spa,3.2.4,Win32,60,5ede17651b8bce028a0853b3,,1,0,80,23,1,79
,,,,,,,,,,,,,,,,,,,,,,,,,,,,,,,,,,,backspace,2.174999952,,TRUE,,,,,,,128,cuc,Catalan,Sounds/cat_cuc.mp3,2020-06-17_16h10.50.022,TranslationElicitation_spa,3.2.4,Win32,60,5ede17651b8bce028a0853b3,,1,0,80,23,1,79
,,,,,,,,,,,,,,,,,,,,,,,,,,,,,,,,,,,backspace,2.375,,TRUE,,,,,,,128,cuc,Catalan,Sounds/cat_cuc.mp3,2020-06-17_16h10.50.022,TranslationElicitation_spa,3.2.4,Win32,60,5ede17651b8bce028a0853b3,,1,0,80,23,1,79
,,,,,,,,,,,,,,,,,,,,,,,,,,,,,,,,,,,backspace,2.52699995,,TRUE,,,,,,,128,cuc,Catalan,Sounds/cat_cuc.mp3,2020-06-17_16h10.50.022,TranslationElicitation_spa,3.2.4,Win32,60,5ede17651b8bce028a0853b3,,1,0,80,23,1,79
,,,,,,,,,,,,,,,,,,,,,,,,,,,,,,,,,,,c,2.934000015,C,TRUE,,,,,,,128,cuc,Catalan,Sounds/cat_cuc.mp3,2020-06-17_16h10.50.022,TranslationElicitation_spa,3.2.4,Win32,60,5ede17651b8bce028a0853b3,,1,0,80,23,1,79
,,,,,,,,,,,,,,,,,,,,,,,,,,,,,,,,,,,u,3.085000038,CU,TRUE,,,,,,,128,cuc,Catalan,Sounds/cat_cuc.mp3,2020-06-17_16h10.50.022,TranslationElicitation_spa,3.2.4,Win32,60,5ede17651b8bce028a0853b3,,1,0,80,23,1,79
,,,,,,,,,,,,,,,,,,,,,,,,,,,,,,,,,,,b,3.184999943,CUB,TRUE,,,,,,,128,cuc,Catalan,Sounds/cat_cuc.mp3,2020-06-17_16h10.50.022,TranslationElicitation_spa,3.2.4,Win32,60,5ede17651b8bce028a0853b3,,1,0,80,23,1,79
,,,,,,,,,,,,,,,,,,,,,,,,,,,,,,,,,,,o,4.209000111,CUBO,TRUE,,,,,,,128,cuc,Catalan,Sounds/cat_cuc.mp3,2020-06-17_16h10.50.022,TranslationElicitation_spa,3.2.4,Win32,60,5ede17651b8bce028a0853b3,,1,0,80,23,1,79
,,,,,,,,,,,,,,,,,,,,,,,,,,,,,,,,,,,return,4.517999887,,TRUE,,,,,,,128,cuc,Catalan,Sounds/cat_cuc.mp3,2020-06-17_16h10.50.022,TranslationElicitation_spa,3.2.4,Win32,60,5ede17651b8bce028a0853b3,4.517999887,1,0,80,23,1,79
,,,,,,,,,,,,,,,,,,,,,,,,,,,,,,,,,,,,,,,,,,,,,128,cuc,Catalan,Sounds/cat_cuc.mp3,2020-06-17_16h10.50.022,TranslationElicitation_spa,3.2.4,Win32,60,5ede17651b8bce028a0853b3,,1,0,80,23,1,79
,,,,,,,,,,,,,,,,,,,,,,,,,,,,,,,,,,,b,8.266000032,B,FALSE,,,,,,,130,entrepa,Catalan,Sounds/cat_entrepa.mp3,2020-06-17_16h10.50.022,TranslationElicitation_spa,3.2.4,Win32,60,5ede17651b8bce028a0853b3,,1,0,80,25,1,79
,,,,,,,,,,,,,,,,,,,,,,,,,,,,,,,,,,,o,8.468000174,BO,FALSE,,,,,,,130,entrepa,Catalan,Sounds/cat_entrepa.mp3,2020-06-17_16h10.50.022,TranslationElicitation_spa,3.2.4,Win32,60,5ede17651b8bce028a0853b3,,1,0,80,25,1,79
,,,,,,,,,,,,,,,,,,,,,,,,,,,,,,,,,,,c,9.443000078,BOC,FALSE,,,,,,,130,entrepa,Catalan,Sounds/cat_entrepa.mp3,2020-06-17_16h10.50.022,TranslationElicitation_spa,3.2.4,Win32,60,5ede17651b8bce028a0853b3,,1,0,80,25,1,79
,,,,,,,,,,,,,,,,,,,,,,,,,,,,,,,,,,,a,10.06299996,BOCA,FALSE,,,,,,,130,entrepa,Catalan,Sounds/cat_entrepa.mp3,2020-06-17_16h10.50.022,TranslationElicitation_spa,3.2.4,Win32,60,5ede17651b8bce028a0853b3,,1,0,80,25,1,79
,,,,,,,,,,,,,,,,,,,,,,,,,,,,,,,,,,,d,10.70700002,BOCAD,FALSE,,,,,,,130,entrepa,Catalan,Sounds/cat_entrepa.mp3,2020-06-17_16h10.50.022,TranslationElicitation_spa,3.2.4,Win32,60,5ede17651b8bce028a0853b3,,1,0,80,25,1,79
,,,,,,,,,,,,,,,,,,,,,,,,,,,,,,,,,,,i,10.921,BOCADI,FALSE,,,,,,,130,entrepa,Catalan,Sounds/cat_entrepa.mp3,2020-06-17_16h10.50.022,TranslationElicitation_spa,3.2.4,Win32,60,5ede17651b8bce028a0853b3,,1,0,80,25,1,79
,,,,,,,,,,,,,,,,,,,,,,,,,,,,,,,,,,,l,11.30500007,BOCADIL,FALSE,,,,,,,130,entrepa,Catalan,Sounds/cat_entrepa.mp3,2020-06-17_16h10.50.022,TranslationElicitation_spa,3.2.4,Win32,60,5ede17651b8bce028a0853b3,,1,0,80,25,1,79
,,,,,,,,,,,,,,,,,,,,,,,,,,,,,,,,,,,l,11.41499996,BOCADILL,FALSE,,,,,,,130,entrepa,Catalan,Sounds/cat_entrepa.mp3,2020-06-17_16h10.50.022,TranslationElicitation_spa,3.2.4,Win32,60,5ede17651b8bce028a0853b3,,1,0,80,25,1,79
,,,,,,,,,,,,,,,,,,,,,,,,,,,,,,,,,,,o,11.67799997,BOCADILLO,FALSE,,,,,,,130,entrepa,Catalan,Sounds/cat_entrepa.mp3,2020-06-17_16h10.50.022,TranslationElicitation_spa,3.2.4,Win32,60,5ede17651b8bce028a0853b3,,1,0,80,25,1,79
,,,,,,,,,,,,,,,,,,,,,,,,,,,,,,,,,,,return,13.01999998,,FALSE,,,,,,,130,entrepa,Catalan,Sounds/cat_entrepa.mp3,2020-06-17_16h10.50.022,TranslationElicitation_spa,3.2.4,Win32,60,5ede17651b8bce028a0853b3,13.01999998,1,0,80,25,1,79
,,,,,,,,,,,,,,,,,,,,,,,,,,,,,,,,,,,,,,,,,,,,,130,entrepa,Catalan,Sounds/cat_entrepa.mp3,2020-06-17_16h10.50.022,TranslationElicitation_spa,3.2.4,Win32,60,5ede17651b8bce028a0853b3,,1,0,80,25,1,79
,,,,,,,,,,,,,,,,,,,,,,,,,,,,,,,,,,,c,11.92500019,C,FALSE,,,,,,,176,samarreta,Catalan,Sounds/cat_samarreta.mp3,2020-06-17_16h10.50.022,TranslationElicitation_spa,3.2.4,Win32,60,5ede17651b8bce028a0853b3,,1,0,80,68,1,79
,,,,,,,,,,,,,,,,,,,,,,,,,,,,,,,,,,,h,12.07200003,CH,FALSE,,,,,,,176,samarreta,Catalan,Sounds/cat_samarreta.mp3,2020-06-17_16h10.50.022,TranslationElicitation_spa,3.2.4,Win32,60,5ede17651b8bce028a0853b3,,1,0,80,68,1,79
,,,,,,,,,,,,,,,,,,,,,,,,,,,,,,,,,,,a,12.41900015,CHA,FALSE,,,,,,,176,samarreta,Catalan,Sounds/cat_samarreta.mp3,2020-06-17_16h10.50.022,TranslationElicitation_spa,3.2.4,Win32,60,5ede17651b8bce028a0853b3,,1,0,80,68,1,79
,,,,,,,,,,,,,,,,,,,,,,,,,,,,,,,,,,,q,12.671,CHAQ,FALSE,,,,,,,176,samarreta,Catalan,Sounds/cat_samarreta.mp3,2020-06-17_16h10.50.022,TranslationElicitation_spa,3.2.4,Win32,60,5ede17651b8bce028a0853b3,,1,0,80,68,1,79
,,,,,,,,,,,,,,,,,,,,,,,,,,,,,,,,,,,u,12.83300018,CHAQU,FALSE,,,,,,,176,samarreta,Catalan,Sounds/cat_samarreta.mp3,2020-06-17_16h10.50.022,TranslationElicitation_spa,3.2.4,Win32,60,5ede17651b8bce028a0853b3,,1,0,80,68,1,79
,,,,,,,,,,,,,,,,,,,,,,,,,,,,,,,,,,,e,12.9380002,CHAQUE,FALSE,,,,,,,176,samarreta,Catalan,Sounds/cat_samarreta.mp3,2020-06-17_16h10.50.022,TranslationElicitation_spa,3.2.4,Win32,60,5ede17651b8bce028a0853b3,,1,0,80,68,1,79
,,,,,,,,,,,,,,,,,,,,,,,,,,,,,,,,,,,t,13.19800019,CHAQUET,FALSE,,,,,,,176,samarreta,Catalan,Sounds/cat_samarreta.mp3,2020-06-17_16h10.50.022,TranslationElicitation_spa,3.2.4,Win32,60,5ede17651b8bce028a0853b3,,1,0,80,68,1,79
,,,,,,,,,,,,,,,,,,,,,,,,,,,,,,,,,,,a,13.46099997,CHAQUETA,FALSE,,,,,,,176,samarreta,Catalan,Sounds/cat_samarreta.mp3,2020-06-17_16h10.50.022,TranslationElicitation_spa,3.2.4,Win32,60,5ede17651b8bce028a0853b3,,1,0,80,68,1,79
,,,,,,,,,,,,,,,,,,,,,,,,,,,,,,,,,,,return,13.82400012,,FALSE,,,,,,,176,samarreta,Catalan,Sounds/cat_samarreta.mp3,2020-06-17_16h10.50.022,TranslationElicitation_spa,3.2.4,Win32,60,5ede17651b8bce028a0853b3,13.82400012,1,0,80,68,1,79
,,,,,,,,,,,,,,,,,,,,,,,,,,,,,,,,,,,,,,,,,,,,,176,samarreta,Catalan,Sounds/cat_samarreta.mp3,2020-06-17_16h10.50.022,TranslationElicitation_spa,3.2.4,Win32,60,5ede17651b8bce028a0853b3,,1,0,80,68,1,79
,,,,,,,,,,,,,,,,,,,,,,,,,,,,,,,,,,,r,7.798000097,R,FALSE,,,,,,,175,raspall,Catalan,Sounds/cat_raspall.mp3,2020-06-17_16h10.50.022,TranslationElicitation_spa,3.2.4,Win32,60,5ede17651b8bce028a0853b3,,1,0,80,67,1,79
,,,,,,,,,,,,,,,,,,,,,,,,,,,,,,,,,,,a,7.84800005,RA,FALSE,,,,,,,175,raspall,Catalan,Sounds/cat_raspall.mp3,2020-06-17_16h10.50.022,TranslationElicitation_spa,3.2.4,Win32,60,5ede17651b8bce028a0853b3,,1,0,80,67,1,79
,,,,,,,,,,,,,,,,,,,,,,,,,,,,,,,,,,,s,8.003000021,RAS,FALSE,,,,,,,175,raspall,Catalan,Sounds/cat_raspall.mp3,2020-06-17_16h10.50.022,TranslationElicitation_spa,3.2.4,Win32,60,5ede17651b8bce028a0853b3,,1,0,80,67,1,79
,,,,,,,,,,,,,,,,,,,,,,,,,,,,,,,,,,,p,8.869000196,RASP,FALSE,,,,,,,175,raspall,Catalan,Sounds/cat_raspall.mp3,2020-06-17_16h10.50.022,TranslationElicitation_spa,3.2.4,Win32,60,5ede17651b8bce028a0853b3,,1,0,80,67,1,79
,,,,,,,,,,,,,,,,,,,,,,,,,,,,,,,,,,,a,8.971000195,RASPA,FALSE,,,,,,,175,raspall,Catalan,Sounds/cat_raspall.mp3,2020-06-17_16h10.50.022,TranslationElicitation_spa,3.2.4,Win32,60,5ede17651b8bce028a0853b3,,1,0,80,67,1,79
,,,,,,,,,,,,,,,,,,,,,,,,,,,,,,,,,,,r,9.23300004,RASPAR,FALSE,,,,,,,175,raspall,Catalan,Sounds/cat_raspall.mp3,2020-06-17_16h10.50.022,TranslationElicitation_spa,3.2.4,Win32,60,5ede17651b8bce028a0853b3,,1,0,80,67,1,79
,,,,,,,,,,,,,,,,,,,,,,,,,,,,,,,,,,,return,9.508000135,,FALSE,,,,,,,175,raspall,Catalan,Sounds/cat_raspall.mp3,2020-06-17_16h10.50.022,TranslationElicitation_spa,3.2.4,Win32,60,5ede17651b8bce028a0853b3,9.508000135,1,0,80,67,1,79
,,,,,,,,,,,,,,,,,,,,,,,,,,,,,,,,,,,,,,,,,,,,,175,raspall,Catalan,Sounds/cat_raspall.mp3,2020-06-17_16h10.50.022,TranslationElicitation_spa,3.2.4,Win32,60,5ede17651b8bce028a0853b3,,1,0,80,67,1,79
,,,,,,,,,,,,,,,,,,,,,,,,,,,,,,,,,,,m,8.799000025,M,FALSE,,,,,,,157,mussol,Catalan,Sounds/cat_mussol.mp3,2020-06-17_16h10.50.022,TranslationElicitation_spa,3.2.4,Win32,60,5ede17651b8bce028a0853b3,,1,0,80,51,1,79
,,,,,,,,,,,,,,,,,,,,,,,,,,,,,,,,,,,o,9.001999855,MO,FALSE,,,,,,,157,mussol,Catalan,Sounds/cat_mussol.mp3,2020-06-17_16h10.50.022,TranslationElicitation_spa,3.2.4,Win32,60,5ede17651b8bce028a0853b3,,1,0,80,51,1,79
,,,,,,,,,,,,,,,,,,,,,,,,,,,,,,,,,,,h,9.103999853,MOH,FALSE,,,,,,,157,mussol,Catalan,Sounds/cat_mussol.mp3,2020-06-17_16h10.50.022,TranslationElicitation_spa,3.2.4,Win32,60,5ede17651b8bce028a0853b3,,1,0,80,51,1,79
,,,,,,,,,,,,,,,,,,,,,,,,,,,,,,,,,,,o,9.205999851,MOHO,FALSE,,,,,,,157,mussol,Catalan,Sounds/cat_mussol.mp3,2020-06-17_16h10.50.022,TranslationElicitation_spa,3.2.4,Win32,60,5ede17651b8bce028a0853b3,,1,0,80,51,1,79
,,,,,,,,,,,,,,,,,,,,,,,,,,,,,,,,,,,return,9.980999947,,FALSE,,,,,,,157,mussol,Catalan,Sounds/cat_mussol.mp3,2020-06-17_16h10.50.022,TranslationElicitation_spa,3.2.4,Win32,60,5ede17651b8bce028a0853b3,9.980999947,1,0,80,51,1,79
,,,,,,,,,,,,,,,,,,,,,,,,,,,,,,,,,,,,,,,,,,,,,157,mussol,Catalan,Sounds/cat_mussol.mp3,2020-06-17_16h10.50.022,TranslationElicitation_spa,3.2.4,Win32,60,5ede17651b8bce028a0853b3,,1,0,80,51,1,79
,,,,,,,,,,,,,,,,,,,,,,,,,,,,,,,,,,,a,1.858999968,A,FALSE,,,,,,,108,ampolla,Catalan,Sounds/cat_ampolla.mp3,2020-06-17_16h10.50.022,TranslationElicitation_spa,3.2.4,Win32,60,5ede17651b8bce028a0853b3,,1,0,80,4,1,79
,,,,,,,,,,,,,,,,,,,,,,,,,,,,,,,,,,,m,1.960999966,AM,FALSE,,,,,,,108,ampolla,Catalan,Sounds/cat_ampolla.mp3,2020-06-17_16h10.50.022,TranslationElicitation_spa,3.2.4,Win32,60,5ede17651b8bce028a0853b3,,1,0,80,4,1,79
,,,,,,,,,,,,,,,,,,,,,,,,,,,,,,,,,,,p,2.167999983,AMP,FALSE,,,,,,,108,ampolla,Catalan,Sounds/cat_ampolla.mp3,2020-06-17_16h10.50.022,TranslationElicitation_spa,3.2.4,Win32,60,5ede17651b8bce028a0853b3,,1,0,80,4,1,79
,,,,,,,,,,,,,,,,,,,,,,,,,,,,,,,,,,,o,2.272000074,AMPO,FALSE,,,,,,,108,ampolla,Catalan,Sounds/cat_ampolla.mp3,2020-06-17_16h10.50.022,TranslationElicitation_spa,3.2.4,Win32,60,5ede17651b8bce028a0853b3,,1,0,80,4,1,79
,,,,,,,,,,,,,,,,,,,,,,,,,,,,,,,,,,,l,2.48300004,AMPOL,FALSE,,,,,,,108,ampolla,Catalan,Sounds/cat_ampolla.mp3,2020-06-17_16h10.50.022,TranslationElicitation_spa,3.2.4,Win32,60,5ede17651b8bce028a0853b3,,1,0,80,4,1,79
,,,,,,,,,,,,,,,,,,,,,,,,,,,,,,,,,,,l,2.638999939,AMPOLL,FALSE,,,,,,,108,ampolla,Catalan,Sounds/cat_ampolla.mp3,2020-06-17_16h10.50.022,TranslationElicitation_spa,3.2.4,Win32,60,5ede17651b8bce028a0853b3,,1,0,80,4,1,79
,,,,,,,,,,,,,,,,,,,,,,,,,,,,,,,,,,,a,2.745000124,AMPOLLA,FALSE,,,,,,,108,ampolla,Catalan,Sounds/cat_ampolla.mp3,2020-06-17_16h10.50.022,TranslationElicitation_spa,3.2.4,Win32,60,5ede17651b8bce028a0853b3,,1,0,80,4,1,79
,,,,,,,,,,,,,,,,,,,,,,,,,,,,,,,,,,,return,3.118000031,,FALSE,,,,,,,108,ampolla,Catalan,Sounds/cat_ampolla.mp3,2020-06-17_16h10.50.022,TranslationElicitation_spa,3.2.4,Win32,60,5ede17651b8bce028a0853b3,3.118000031,1,0,80,4,1,79
,,,,,,,,,,,,,,,,,,,,,,,,,,,,,,,,,,,,,,,,,,,,,108,ampolla,Catalan,Sounds/cat_ampolla.mp3,2020-06-17_16h10.50.022,TranslationElicitation_spa,3.2.4,Win32,60,5ede17651b8bce028a0853b3,,1,0,80,4,1,79
,,,,,,,,,,,,,,,,,,,,,,,,,,,,,,,,,,,e,3.308000088,E,FALSE,,,,,,,131,esponja,Catalan,Sounds/cat_esponja.mp3,2020-06-17_16h10.50.022,TranslationElicitation_spa,3.2.4,Win32,60,5ede17651b8bce028a0853b3,,1,0,80,26,1,79
,,,,,,,,,,,,,,,,,,,,,,,,,,,,,,,,,,,s,3.844000101,ES,FALSE,,,,,,,131,esponja,Catalan,Sounds/cat_esponja.mp3,2020-06-17_16h10.50.022,TranslationElicitation_spa,3.2.4,Win32,60,5ede17651b8bce028a0853b3,,1,0,80,26,1,79
,,,,,,,,,,,,,,,,,,,,,,,,,,,,,,,,,,,p,4.86500001,ESP,FALSE,,,,,,,131,esponja,Catalan,Sounds/cat_esponja.mp3,2020-06-17_16h10.50.022,TranslationElicitation_spa,3.2.4,Win32,60,5ede17651b8bce028a0853b3,,1,0,80,26,1,79
,,,,,,,,,,,,,,,,,,,,,,,,,,,,,,,,,,,a,5.019000053,ESPA,FALSE,,,,,,,131,esponja,Catalan,Sounds/cat_esponja.mp3,2020-06-17_16h10.50.022,TranslationElicitation_spa,3.2.4,Win32,60,5ede17651b8bce028a0853b3,,1,0,80,26,1,79
,,,,,,,,,,,,,,,,,,,,,,,,,,,,,,,,,,,semicolon,5.07400012,ESPAÑ,FALSE,,,,,,,131,esponja,Catalan,Sounds/cat_esponja.mp3,2020-06-17_16h10.50.022,TranslationElicitation_spa,3.2.4,Win32,60,5ede17651b8bce028a0853b3,,1,0,80,26,1,79
,,,,,,,,,,,,,,,,,,,,,,,,,,,,,,,,,,,a,5.179000139,ESPAÑA,FALSE,,,,,,,131,esponja,Catalan,Sounds/cat_esponja.mp3,2020-06-17_16h10.50.022,TranslationElicitation_spa,3.2.4,Win32,60,5ede17651b8bce028a0853b3,,1,0,80,26,1,79
,,,,,,,,,,,,,,,,,,,,,,,,,,,,,,,,,,,return,5.544000149,,FALSE,,,,,,,131,esponja,Catalan,Sounds/cat_esponja.mp3,2020-06-17_16h10.50.022,TranslationElicitation_spa,3.2.4,Win32,60,5ede17651b8bce028a0853b3,5.544000149,1,0,80,26,1,79
,,,,,,,,,,,,,,,,,,,,,,,,,,,,,,,,,,,,,,,,,,,,,131,esponja,Catalan,Sounds/cat_esponja.mp3,2020-06-17_16h10.50.022,TranslationElicitation_spa,3.2.4,Win32,60,5ede17651b8bce028a0853b3,,1,0,80,26,1,79
,,,,,,,,,,,,,,,,,,,,,,,,,,,,,,,,,,,b,11.43599987,B,FALSE,,,,,,,118,bou,Catalan,Sounds/cat_bou.mp3,2020-06-17_16h10.50.022,TranslationElicitation_spa,3.2.4,Win32,60,5ede17651b8bce028a0853b3,,1,0,80,13,1,79
,,,,,,,,,,,,,,,,,,,,,,,,,,,,,,,,,,,o,11.63800001,BO,FALSE,,,,,,,118,bou,Catalan,Sounds/cat_bou.mp3,2020-06-17_16h10.50.022,TranslationElicitation_spa,3.2.4,Win32,60,5ede17651b8bce028a0853b3,,1,0,80,13,1,79
,,,,,,,,,,,,,,,,,,,,,,,,,,,,,,,,,,,l,11.78999996,BOL,FALSE,,,,,,,118,bou,Catalan,Sounds/cat_bou.mp3,2020-06-17_16h10.50.022,TranslationElicitation_spa,3.2.4,Win32,60,5ede17651b8bce028a0853b3,,1,0,80,13,1,79
,,,,,,,,,,,,,,,,,,,,,,,,,,,,,,,,,,,a,11.99399996,BOLA,FALSE,,,,,,,118,bou,Catalan,Sounds/cat_bou.mp3,2020-06-17_16h10.50.022,TranslationElicitation_spa,3.2.4,Win32,60,5ede17651b8bce028a0853b3,,1,0,80,13,1,79
,,,,,,,,,,,,,,,,,,,,,,,,,,,,,,,,,,,return,12.45000005,,FALSE,,,,,,,118,bou,Catalan,Sounds/cat_bou.mp3,2020-06-17_16h10.50.022,TranslationElicitation_spa,3.2.4,Win32,60,5ede17651b8bce028a0853b3,12.45000005,1,0,80,13,1,79
,,,,,,,,,,,,,,,,,,,,,,,,,,,,,,,,,,,,,,,,,,,,,118,bou,Catalan,Sounds/cat_bou.mp3,2020-06-17_16h10.50.022,TranslationElicitation_spa,3.2.4,Win32,60,5ede17651b8bce028a0853b3,,1,0,80,13,1,79
,,,,,,,,,,,,,,,,,,,,,,,,,,,,,,,,,,,c,2.235999823,C,FALSE,,,,,,,173,porc,Catalan,Sounds/cat_porc.mp3,2020-06-17_16h10.50.022,TranslationElicitation_spa,3.2.4,Win32,60,5ede17651b8bce028a0853b3,,1,0,80,65,1,79
,,,,,,,,,,,,,,,,,,,,,,,,,,,,,,,,,,,e,2.388999939,CE,FALSE,,,,,,,173,porc,Catalan,Sounds/cat_porc.mp3,2020-06-17_16h10.50.022,TranslationElicitation_spa,3.2.4,Win32,60,5ede17651b8bce028a0853b3,,1,0,80,65,1,79
,,,,,,,,,,,,,,,,,,,,,,,,,,,,,,,,,,,r,2.542999983,CER,FALSE,,,,,,,173,porc,Catalan,Sounds/cat_porc.mp3,2020-06-17_16h10.50.022,TranslationElicitation_spa,3.2.4,Win32,60,5ede17651b8bce028a0853b3,,1,0,80,65,1,79
,,,,,,,,,,,,,,,,,,,,,,,,,,,,,,,,,,,d,2.744999886,CERD,FALSE,,,,,,,173,porc,Catalan,Sounds/cat_porc.mp3,2020-06-17_16h10.50.022,TranslationElicitation_spa,3.2.4,Win32,60,5ede17651b8bce028a0853b3,,1,0,80,65,1,79
,,,,,,,,,,,,,,,,,,,,,,,,,,,,,,,,,,,o,2.799999952,CERDO,FALSE,,,,,,,173,porc,Catalan,Sounds/cat_porc.mp3,2020-06-17_16h10.50.022,TranslationElicitation_spa,3.2.4,Win32,60,5ede17651b8bce028a0853b3,,1,0,80,65,1,79
,,,,,,,,,,,,,,,,,,,,,,,,,,,,,,,,,,,return,3.583999872,,FALSE,,,,,,,173,porc,Catalan,Sounds/cat_porc.mp3,2020-06-17_16h10.50.022,TranslationElicitation_spa,3.2.4,Win32,60,5ede17651b8bce028a0853b3,3.583999872,1,0,80,65,1,79
,,,,,,,,,,,,,,,,,,,,,,,,,,,,,,,,,,,,,,,,,,,,,173,porc,Catalan,Sounds/cat_porc.mp3,2020-06-17_16h10.50.022,TranslationElicitation_spa,3.2.4,Win32,60,5ede17651b8bce028a0853b3,,1,0,80,65,1,79
,,,,,,,,,,,,,,,,,,,,,,,,,,,,,,,,,,,c,1.30099988,C,FALSE,,,,,,,122,casa,Catalan,Sounds/cat_casa.mp3,2020-06-17_16h10.50.022,TranslationElicitation_spa,3.2.4,Win32,60,5ede17651b8bce028a0853b3,,1,0,80,17,1,79
,,,,,,,,,,,,,,,,,,,,,,,,,,,,,,,,,,,a,1.500999928,CA,FALSE,,,,,,,122,casa,Catalan,Sounds/cat_casa.mp3,2020-06-17_16h10.50.022,TranslationElicitation_spa,3.2.4,Win32,60,5ede17651b8bce028a0853b3,,1,0,80,17,1,79
,,,,,,,,,,,,,,,,,,,,,,,,,,,,,,,,,,,s,1.65199995,CAS,FALSE,,,,,,,122,casa,Catalan,Sounds/cat_casa.mp3,2020-06-17_16h10.50.022,TranslationElicitation_spa,3.2.4,Win32,60,5ede17651b8bce028a0853b3,,1,0,80,17,1,79
,,,,,,,,,,,,,,,,,,,,,,,,,,,,,,,,,,,a,1.806999922,CASA,FALSE,,,,,,,122,casa,Catalan,Sounds/cat_casa.mp3,2020-06-17_16h10.50.022,TranslationElicitation_spa,3.2.4,Win32,60,5ede17651b8bce028a0853b3,,1,0,80,17,1,79
,,,,,,,,,,,,,,,,,,,,,,,,,,,,,,,,,,,return,2.164999962,,FALSE,,,,,,,122,casa,Catalan,Sounds/cat_casa.mp3,2020-06-17_16h10.50.022,TranslationElicitation_spa,3.2.4,Win32,60,5ede17651b8bce028a0853b3,2.164999962,1,0,80,17,1,79
,,,,,,,,,,,,,,,,,,,,,,,,,,,,,,,,,,,,,,,,,,,,,122,casa,Catalan,Sounds/cat_casa.mp3,2020-06-17_16h10.50.022,TranslationElicitation_spa,3.2.4,Win32,60,5ede17651b8bce028a0853b3,,1,0,80,17,1,79
,,,,,,,,,,,,,,,,,,,,,,,,,,,,,,,,,,,p,1.134000063,P,FALSE,,,,,,,164,patata,Catalan,Sounds/cat_patata.mp3,2020-06-17_16h10.50.022,TranslationElicitation_spa,3.2.4,Win32,60,5ede17651b8bce028a0853b3,,1,0,80,57,1,79
,,,,,,,,,,,,,,,,,,,,,,,,,,,,,,,,,,,a,1.184000015,PA,FALSE,,,,,,,164,patata,Catalan,Sounds/cat_patata.mp3,2020-06-17_16h10.50.022,TranslationElicitation_spa,3.2.4,Win32,60,5ede17651b8bce028a0853b3,,1,0,80,57,1,79
,,,,,,,,,,,,,,,,,,,,,,,,,,,,,,,,,,,t,1.434000015,PAT,FALSE,,,,,,,164,patata,Catalan,Sounds/cat_patata.mp3,2020-06-17_16h10.50.022,TranslationElicitation_spa,3.2.4,Win32,60,5ede17651b8bce028a0853b3,,1,0,80,57,1,79
,,,,,,,,,,,,,,,,,,,,,,,,,,,,,,,,,,,a,1.484000206,PATA,FALSE,,,,,,,164,patata,Catalan,Sounds/cat_patata.mp3,2020-06-17_16h10.50.022,TranslationElicitation_spa,3.2.4,Win32,60,5ede17651b8bce028a0853b3,,1,0,80,57,1,79
,,,,,,,,,,,,,,,,,,,,,,,,,,,,,,,,,,,t,1.590000153,PATAT,FALSE,,,,,,,164,patata,Catalan,Sounds/cat_patata.mp3,2020-06-17_16h10.50.022,TranslationElicitation_spa,3.2.4,Win32,60,5ede17651b8bce028a0853b3,,1,0,80,57,1,79
,,,,,,,,,,,,,,,,,,,,,,,,,,,,,,,,,,,a,1.648000002,PATATA,FALSE,,,,,,,164,patata,Catalan,Sounds/cat_patata.mp3,2020-06-17_16h10.50.022,TranslationElicitation_spa,3.2.4,Win32,60,5ede17651b8bce028a0853b3,,1,0,80,57,1,79
,,,,,,,,,,,,,,,,,,,,,,,,,,,,,,,,,,,return,2.264000177,,FALSE,,,,,,,164,patata,Catalan,Sounds/cat_patata.mp3,2020-06-17_16h10.50.022,TranslationElicitation_spa,3.2.4,Win32,60,5ede17651b8bce028a0853b3,2.264000177,1,0,80,57,1,79
,,,,,,,,,,,,,,,,,,,,,,,,,,,,,,,,,,,,,,,,,,,,,164,patata,Catalan,Sounds/cat_patata.mp3,2020-06-17_16h10.50.022,TranslationElicitation_spa,3.2.4,Win32,60,5ede17651b8bce028a0853b3,,1,0,80,57,1,79
,,,,,,,,,,,,,,,,,,,,,,,,,,,,,,,,,,,d,1.589999914,D,FALSE,,,,,,,129,dit,Catalan,Sounds/cat_dit.mp3,2020-06-17_16h10.50.022,TranslationElicitation_spa,3.2.4,Win32,60,5ede17651b8bce028a0853b3,,1,0,80,24,1,79
,,,,,,,,,,,,,,,,,,,,,,,,,,,,,,,,,,,e,1.792000055,DE,FALSE,,,,,,,129,dit,Catalan,Sounds/cat_dit.mp3,2020-06-17_16h10.50.022,TranslationElicitation_spa,3.2.4,Win32,60,5ede17651b8bce028a0853b3,,1,0,80,24,1,79
,,,,,,,,,,,,,,,,,,,,,,,,,,,,,,,,,,,c,1.944999933,DEC,FALSE,,,,,,,129,dit,Catalan,Sounds/cat_dit.mp3,2020-06-17_16h10.50.022,TranslationElicitation_spa,3.2.4,Win32,60,5ede17651b8bce028a0853b3,,1,0,80,24,1,79
,,,,,,,,,,,,,,,,,,,,,,,,,,,,,,,,,,,r,2.148000002,DECR,FALSE,,,,,,,129,dit,Catalan,Sounds/cat_dit.mp3,2020-06-17_16h10.50.022,TranslationElicitation_spa,3.2.4,Win32,60,5ede17651b8bce028a0853b3,,1,0,80,24,1,79
,,,,,,,,,,,,,,,,,,,,,,,,,,,,,,,,,,,backspace,2.763999939,DE,TRUE,,,,,,,129,dit,Catalan,Sounds/cat_dit.mp3,2020-06-17_16h10.50.022,TranslationElicitation_spa,3.2.4,Win32,60,5ede17651b8bce028a0853b3,,1,0,80,24,1,79
,,,,,,,,,,,,,,,,,,,,,,,,,,,,,,,,,,,i,3.066999912,DEI,TRUE,,,,,,,129,dit,Catalan,Sounds/cat_dit.mp3,2020-06-17_16h10.50.022,TranslationElicitation_spa,3.2.4,Win32,60,5ede17651b8bce028a0853b3,,1,0,80,24,1,79
,,,,,,,,,,,,,,,,,,,,,,,,,,,,,,,,,,,r,3.16899991,DEIR,TRUE,,,,,,,129,dit,Catalan,Sounds/cat_dit.mp3,2020-06-17_16h10.50.022,TranslationElicitation_spa,3.2.4,Win32,60,5ede17651b8bce028a0853b3,,1,0,80,24,1,79
,,,,,,,,,,,,,,,,,,,,,,,,,,,,,,,,,,,backspace,4.062000036,DE,TRUE,,,,,,,129,dit,Catalan,Sounds/cat_dit.mp3,2020-06-17_16h10.50.022,TranslationElicitation_spa,3.2.4,Win32,60,5ede17651b8bce028a0853b3,,1,0,80,24,1,79
,,,,,,,,,,,,,,,,,,,,,,,,,,,,,,,,,,,backspace,4.194999933,,TRUE,,,,,,,129,dit,Catalan,Sounds/cat_dit.mp3,2020-06-17_16h10.50.022,TranslationElicitation_spa,3.2.4,Win32,60,5ede17651b8bce028a0853b3,,1,0,80,24,1,79
,,,,,,,,,,,,,,,,,,,,,,,,,,,,,,,,,,,c,4.306999922,C,TRUE,,,,,,,129,dit,Catalan,Sounds/cat_dit.mp3,2020-06-17_16h10.50.022,TranslationElicitation_spa,3.2.4,Win32,60,5ede17651b8bce028a0853b3,,1,0,80,24,1,79
,,,,,,,,,,,,,,,,,,,,,,,,,,,,,,,,,,,i,4.495000124,CI,TRUE,,,,,,,129,dit,Catalan,Sounds/cat_dit.mp3,2020-06-17_16h10.50.022,TranslationElicitation_spa,3.2.4,Win32,60,5ede17651b8bce028a0853b3,,1,0,80,24,1,79
,,,,,,,,,,,,,,,,,,,,,,,,,,,,,,,,,,,r,4.561000109,CIR,TRUE,,,,,,,129,dit,Catalan,Sounds/cat_dit.mp3,2020-06-17_16h10.50.022,TranslationElicitation_spa,3.2.4,Win32,60,5ede17651b8bce028a0853b3,,1,0,80,24,1,79
,,,,,,,,,,,,,,,,,,,,,,,,,,,,,,,,,,,backspace,5.170000076,C,TRUE,,,,,,,129,dit,Catalan,Sounds/cat_dit.mp3,2020-06-17_16h10.50.022,TranslationElicitation_spa,3.2.4,Win32,60,5ede17651b8bce028a0853b3,,1,0,80,24,1,79
,,,,,,,,,,,,,,,,,,,,,,,,,,,,,,,,,,,backspace,5.32400012,,TRUE,,,,,,,129,dit,Catalan,Sounds/cat_dit.mp3,2020-06-17_16h10.50.022,TranslationElicitation_spa,3.2.4,Win32,60,5ede17651b8bce028a0853b3,,1,0,80,24,1,79
,,,,,,,,,,,,,,,,,,,,,,,,,,,,,,,,,,,backspace,5.447000027,,TRUE,,,,,,,129,dit,Catalan,Sounds/cat_dit.mp3,2020-06-17_16h10.50.022,TranslationElicitation_spa,3.2.4,Win32,60,5ede17651b8bce028a0853b3,,1,0,80,24,1,79
,,,,,,,,,,,,,,,,,,,,,,,,,,,,,,,,,,,backspace,5.59800005,,TRUE,,,,,,,129,dit,Catalan,Sounds/cat_dit.mp3,2020-06-17_16h10.50.022,TranslationElicitation_spa,3.2.4,Win32,60,5ede17651b8bce028a0853b3,,1,0,80,24,1,79
,,,,,,,,,,,,,,,,,,,,,,,,,,,,,,,,,,,d,5.860000134,D,TRUE,,,,,,,129,dit,Catalan,Sounds/cat_dit.mp3,2020-06-17_16h10.50.022,TranslationElicitation_spa,3.2.4,Win32,60,5ede17651b8bce028a0853b3,,1,0,80,24,1,79
,,,,,,,,,,,,,,,,,,,,,,,,,,,,,,,,,,,e,5.963000059,DE,TRUE,,,,,,,129,dit,Catalan,Sounds/cat_dit.mp3,2020-06-17_16h10.50.022,TranslationElicitation_spa,3.2.4,Win32,60,5ede17651b8bce028a0853b3,,1,0,80,24,1,79
,,,,,,,,,,,,,,,,,,,,,,,,,,,,,,,,,,,c,6.164999962,DEC,TRUE,,,,,,,129,dit,Catalan,Sounds/cat_dit.mp3,2020-06-17_16h10.50.022,TranslationElicitation_spa,3.2.4,Win32,60,5ede17651b8bce028a0853b3,,1,0,80,24,1,79
,,,,,,,,,,,,,,,,,,,,,,,,,,,,,,,,,,,i,6.318000078,DECI,TRUE,,,,,,,129,dit,Catalan,Sounds/cat_dit.mp3,2020-06-17_16h10.50.022,TranslationElicitation_spa,3.2.4,Win32,60,5ede17651b8bce028a0853b3,,1,0,80,24,1,79
,,,,,,,,,,,,,,,,,,,,,,,,,,,,,,,,,,,r,6.420000076,DECIR,TRUE,,,,,,,129,dit,Catalan,Sounds/cat_dit.mp3,2020-06-17_16h10.50.022,TranslationElicitation_spa,3.2.4,Win32,60,5ede17651b8bce028a0853b3,,1,0,80,24,1,79
,,,,,,,,,,,,,,,,,,,,,,,,,,,,,,,,,,,return,6.799000025,,TRUE,,,,,,,129,dit,Catalan,Sounds/cat_dit.mp3,2020-06-17_16h10.50.022,TranslationElicitation_spa,3.2.4,Win32,60,5ede17651b8bce028a0853b3,6.799000025,1,0,80,24,1,79
,,,,,,,,,,,,,,,,,,,,,,,,,,,,,,,,,,,,,,,,,,,,,129,dit,Catalan,Sounds/cat_dit.mp3,2020-06-17_16h10.50.022,TranslationElicitation_spa,3.2.4,Win32,60,5ede17651b8bce028a0853b3,,1,0,80,24,1,79
,,,,,,,,,,,,,,,,,,,,,,,,,,,,,,,,,,,c,2.214999914,C,FALSE,,,,,,,153,mico,Catalan,Sounds/cat_mico.mp3,2020-06-17_16h10.50.022,TranslationElicitation_spa,3.2.4,Win32,60,5ede17651b8bce028a0853b3,,1,0,80,47,1,79
,,,,,,,,,,,,,,,,,,,,,,,,,,,,,,,,,,,i,2.315999985,CI,FALSE,,,,,,,153,mico,Catalan,Sounds/cat_mico.mp3,2020-06-17_16h10.50.022,TranslationElicitation_spa,3.2.4,Win32,60,5ede17651b8bce028a0853b3,,1,0,80,47,1,79
,,,,,,,,,,,,,,,,,,,,,,,,,,,,,,,,,,,r,2.417000055,CIR,FALSE,,,,,,,153,mico,Catalan,Sounds/cat_mico.mp3,2020-06-17_16h10.50.022,TranslationElicitation_spa,3.2.4,Win32,60,5ede17651b8bce028a0853b3,,1,0,80,47,1,79
,,,,,,,,,,,,,,,,,,,,,,,,,,,,,,,,,,,c,2.566999912,CIRC,FALSE,,,,,,,153,mico,Catalan,Sounds/cat_mico.mp3,2020-06-17_16h10.50.022,TranslationElicitation_spa,3.2.4,Win32,60,5ede17651b8bce028a0853b3,,1,0,80,47,1,79
,,,,,,,,,,,,,,,,,,,,,,,,,,,,,,,,,,,o,2.619999886,CIRCO,FALSE,,,,,,,153,mico,Catalan,Sounds/cat_mico.mp3,2020-06-17_16h10.50.022,TranslationElicitation_spa,3.2.4,Win32,60,5ede17651b8bce028a0853b3,,1,0,80,47,1,79
,,,,,,,,,,,,,,,,,,,,,,,,,,,,,,,,,,,return,2.980000019,,FALSE,,,,,,,153,mico,Catalan,Sounds/cat_mico.mp3,2020-06-17_16h10.50.022,TranslationElicitation_spa,3.2.4,Win32,60,5ede17651b8bce028a0853b3,2.980000019,1,0,80,47,1,79
,,,,,,,,,,,,,,,,,,,,,,,,,,,,,,,,,,,,,,,,,,,,,153,mico,Catalan,Sounds/cat_mico.mp3,2020-06-17_16h10.50.022,TranslationElicitation_spa,3.2.4,Win32,60,5ede17651b8bce028a0853b3,,1,0,80,47,1,79
,,,,,,,,,,,,,,,,,,,,,,,,,,,,,,,,,,,p,3.651000023,P,FALSE,,,,,,,171,pollastre,Catalan,Sounds/cat_pollastre.mp3,2020-06-17_16h10.50.022,TranslationElicitation_spa,3.2.4,Win32,60,5ede17651b8bce028a0853b3,,1,0,80,63,1,79
,,,,,,,,,,,,,,,,,,,,,,,,,,,,,,,,,,,a,3.713000059,PA,FALSE,,,,,,,171,pollastre,Catalan,Sounds/cat_pollastre.mp3,2020-06-17_16h10.50.022,TranslationElicitation_spa,3.2.4,Win32,60,5ede17651b8bce028a0853b3,,1,0,80,63,1,79
,,,,,,,,,,,,,,,,,,,,,,,,,,,,,,,,,,,l,4.486000061,PAL,FALSE,,,,,,,171,pollastre,Catalan,Sounds/cat_pollastre.mp3,2020-06-17_16h10.50.022,TranslationElicitation_spa,3.2.4,Win32,60,5ede17651b8bce028a0853b3,,1,0,80,63,1,79
,,,,,,,,,,,,,,,,,,,,,,,,,,,,,,,,,,,o,4.640000105,PALO,FALSE,,,,,,,171,pollastre,Catalan,Sounds/cat_pollastre.mp3,2020-06-17_16h10.50.022,TranslationElicitation_spa,3.2.4,Win32,60,5ede17651b8bce028a0853b3,,1,0,80,63,1,79
,,,,,,,,,,,,,,,,,,,,,,,,,,,,,,,,,,,m,4.896000147,PALOM,FALSE,,,,,,,171,pollastre,Catalan,Sounds/cat_pollastre.mp3,2020-06-17_16h10.50.022,TranslationElicitation_spa,3.2.4,Win32,60,5ede17651b8bce028a0853b3,,1,0,80,63,1,79
,,,,,,,,,,,,,,,,,,,,,,,,,,,,,,,,,,,i,5.049000025,PALOMI,FALSE,,,,,,,171,pollastre,Catalan,Sounds/cat_pollastre.mp3,2020-06-17_16h10.50.022,TranslationElicitation_spa,3.2.4,Win32,60,5ede17651b8bce028a0853b3,,1,0,80,63,1,79
,,,,,,,,,,,,,,,,,,,,,,,,,,,,,,,,,,,t,5.150000095,PALOMIT,FALSE,,,,,,,171,pollastre,Catalan,Sounds/cat_pollastre.mp3,2020-06-17_16h10.50.022,TranslationElicitation_spa,3.2.4,Win32,60,5ede17651b8bce028a0853b3,,1,0,80,63,1,79
,,,,,,,,,,,,,,,,,,,,,,,,,,,,,,,,,,,a,5.427999973,PALOMITA,FALSE,,,,,,,171,pollastre,Catalan,Sounds/cat_pollastre.mp3,2020-06-17_16h10.50.022,TranslationElicitation_spa,3.2.4,Win32,60,5ede17651b8bce028a0853b3,,1,0,80,63,1,79
,,,,,,,,,,,,,,,,,,,,,,,,,,,,,,,,,,,return,6.592000008,,FALSE,,,,,,,171,pollastre,Catalan,Sounds/cat_pollastre.mp3,2020-06-17_16h10.50.022,TranslationElicitation_spa,3.2.4,Win32,60,5ede17651b8bce028a0853b3,6.592000008,1,0,80,63,1,79
,,,,,,,,,,,,,,,,,,,,,,,,,,,,,,,,,,,,,,,,,,,,,171,pollastre,Catalan,Sounds/cat_pollastre.mp3,2020-06-17_16h10.50.022,TranslationElicitation_spa,3.2.4,Win32,60,5ede17651b8bce028a0853b3,,1,0,80,63,1,79
,,,,,,,,,,,,,,,,,,,,,,,,,,,,,,,,,,,m,11.51100016,M,FALSE,,,,,,,152,ma,Catalan,Sounds/cat_ma.mp3,2020-06-17_16h10.50.022,TranslationElicitation_spa,3.2.4,Win32,60,5ede17651b8bce028a0853b3,,1,0,80,46,1,79
,,,,,,,,,,,,,,,,,,,,,,,,,,,,,,,,,,,a,11.61199999,MA,FALSE,,,,,,,152,ma,Catalan,Sounds/cat_ma.mp3,2020-06-17_16h10.50.022,TranslationElicitation_spa,3.2.4,Win32,60,5ede17651b8bce028a0853b3,,1,0,80,46,1,79
,,,,,,,,,,,,,,,,,,,,,,,,,,,,,,,,,,,m,11.71300006,MAM,FALSE,,,,,,,152,ma,Catalan,Sounds/cat_ma.mp3,2020-06-17_16h10.50.022,TranslationElicitation_spa,3.2.4,Win32,60,5ede17651b8bce028a0853b3,,1,0,80,46,1,79
,,,,,,,,,,,,,,,,,,,,,,,,,,,,,,,,,,,a,11.91799998,MAMA,FALSE,,,,,,,152,ma,Catalan,Sounds/cat_ma.mp3,2020-06-17_16h10.50.022,TranslationElicitation_spa,3.2.4,Win32,60,5ede17651b8bce028a0853b3,,1,0,80,46,1,79
,,,,,,,,,,,,,,,,,,,,,,,,,,,,,,,,,,,return,12.59599996,,FALSE,,,,,,,152,ma,Catalan,Sounds/cat_ma.mp3,2020-06-17_16h10.50.022,TranslationElicitation_spa,3.2.4,Win32,60,5ede17651b8bce028a0853b3,12.59599996,1,0,80,46,1,79
,,,,,,,,,,,,,,,,,,,,,,,,,,,,,,,,,,,,,,,,,,,,,152,ma,Catalan,Sounds/cat_ma.mp3,2020-06-17_16h10.50.022,TranslationElicitation_spa,3.2.4,Win32,60,5ede17651b8bce028a0853b3,,1,0,80,46,1,79
,,,,,,,,,,,,,,,,,,,,,,,,,,,,,,,,,,,m,1.99000001,M,FALSE,,,,,,,155,moneda,Catalan,Sounds/cat_moneda.mp3,2020-06-17_16h10.50.022,TranslationElicitation_spa,3.2.4,Win32,60,5ede17651b8bce028a0853b3,,1,0,80,49,1,79
,,,,,,,,,,,,,,,,,,,,,,,,,,,,,,,,,,,o,2.14199996,MO,FALSE,,,,,,,155,moneda,Catalan,Sounds/cat_moneda.mp3,2020-06-17_16h10.50.022,TranslationElicitation_spa,3.2.4,Win32,60,5ede17651b8bce028a0853b3,,1,0,80,49,1,79
,,,,,,,,,,,,,,,,,,,,,,,,,,,,,,,,,,,n,2.34499979,MON,FALSE,,,,,,,155,moneda,Catalan,Sounds/cat_moneda.mp3,2020-06-17_16h10.50.022,TranslationElicitation_spa,3.2.4,Win32,60,5ede17651b8bce028a0853b3,,1,0,80,49,1,79
,,,,,,,,,,,,,,,,,,,,,,,,,,,,,,,,,,,e,2.505999804,MONE,FALSE,,,,,,,155,moneda,Catalan,Sounds/cat_moneda.mp3,2020-06-17_16h10.50.022,TranslationElicitation_spa,3.2.4,Win32,60,5ede17651b8bce028a0853b3,,1,0,80,49,1,79
,,,,,,,,,,,,,,,,,,,,,,,,,,,,,,,,,,,d,2.65899992,MONED,FALSE,,,,,,,155,moneda,Catalan,Sounds/cat_moneda.mp3,2020-06-17_16h10.50.022,TranslationElicitation_spa,3.2.4,Win32,60,5ede17651b8bce028a0853b3,,1,0,80,49,1,79
,,,,,,,,,,,,,,,,,,,,,,,,,,,,,,,,,,,a,2.865999937,MONEDA,FALSE,,,,,,,155,moneda,Catalan,Sounds/cat_moneda.mp3,2020-06-17_16h10.50.022,TranslationElicitation_spa,3.2.4,Win32,60,5ede17651b8bce028a0853b3,,1,0,80,49,1,79
,,,,,,,,,,,,,,,,,,,,,,,,,,,,,,,,,,,return,3.178999901,,FALSE,,,,,,,155,moneda,Catalan,Sounds/cat_moneda.mp3,2020-06-17_16h10.50.022,TranslationElicitation_spa,3.2.4,Win32,60,5ede17651b8bce028a0853b3,3.178999901,1,0,80,49,1,79
,,,,,,,,,,,,,,,,,,,,,,,,,,,,,,,,,,,,,,,,,,,,,155,moneda,Catalan,Sounds/cat_moneda.mp3,2020-06-17_16h10.50.022,TranslationElicitation_spa,3.2.4,Win32,60,5ede17651b8bce028a0853b3,,1,0,80,49,1,79
,,,,,,,,,,,,,,,,,,,,,,,,,,,,,,,,,,,z,1.809000015,Z,FALSE,,,,,,,189,zebra,Catalan,Sounds/cat_zebra.mp3,2020-06-17_16h10.50.022,TranslationElicitation_spa,3.2.4,Win32,60,5ede17651b8bce028a0853b3,,1,0,80,79,1,79
,,,,,,,,,,,,,,,,,,,,,,,,,,,,,,,,,,,backspace,2.373000145,,TRUE,,,,,,,189,zebra,Catalan,Sounds/cat_zebra.mp3,2020-06-17_16h10.50.022,TranslationElicitation_spa,3.2.4,Win32,60,5ede17651b8bce028a0853b3,,1,0,80,79,1,79
,,,,,,,,,,,,,,,,,,,,,,,,,,,,,,,,,,,c,2.772000074,C,TRUE,,,,,,,189,zebra,Catalan,Sounds/cat_zebra.mp3,2020-06-17_16h10.50.022,TranslationElicitation_spa,3.2.4,Win32,60,5ede17651b8bce028a0853b3,,1,0,80,79,1,79
,,,,,,,,,,,,,,,,,,,,,,,,,,,,,,,,,,,e,2.921000004,CE,TRUE,,,,,,,189,zebra,Catalan,Sounds/cat_zebra.mp3,2020-06-17_16h10.50.022,TranslationElicitation_spa,3.2.4,Win32,60,5ede17651b8bce028a0853b3,,1,0,80,79,1,79
,,,,,,,,,,,,,,,,,,,,,,,,,,,,,,,,,,,b,3.174000025,CEB,TRUE,,,,,,,189,zebra,Catalan,Sounds/cat_zebra.mp3,2020-06-17_16h10.50.022,TranslationElicitation_spa,3.2.4,Win32,60,5ede17651b8bce028a0853b3,,1,0,80,79,1,79
,,,,,,,,,,,,,,,,,,,,,,,,,,,,,,,,,,,r,3.278000116,CEBR,TRUE,,,,,,,189,zebra,Catalan,Sounds/cat_zebra.mp3,2020-06-17_16h10.50.022,TranslationElicitation_spa,3.2.4,Win32,60,5ede17651b8bce028a0853b3,,1,0,80,79,1,79
,,,,,,,,,,,,,,,,,,,,,,,,,,,,,,,,,,,a,3.533000231,CEBRA,TRUE,,,,,,,189,zebra,Catalan,Sounds/cat_zebra.mp3,2020-06-17_16h10.50.022,TranslationElicitation_spa,3.2.4,Win32,60,5ede17651b8bce028a0853b3,,1,0,80,79,1,79
,,,,,,,,,,,,,,,,,,,,,,,,,,,,,,,,,,,return,3.97300005,,TRUE,,,,,,,189,zebra,Catalan,Sounds/cat_zebra.mp3,2020-06-17_16h10.50.022,TranslationElicitation_spa,3.2.4,Win32,60,5ede17651b8bce028a0853b3,3.97300005,1,0,80,79,1,79
,,,,,,,,,,,,,,,,,,,,,,,,,,,,,,,,,,,,,,,,,,,,,189,zebra,Catalan,Sounds/cat_zebra.mp3,2020-06-17_16h10.50.022,TranslationElicitation_spa,3.2.4,Win32,60,5ede17651b8bce028a0853b3,,1,0,80,79,1,79
,,,,,,,,,,,,,,,,,,,,,,,,,,,,,,,,,,,h,6.039999962,H,FALSE,,,,,,,106,aixeta,Catalan,Sounds/cat_aixeta.mp3,2020-06-17_16h10.50.022,TranslationElicitation_spa,3.2.4,Win32,60,5ede17651b8bce028a0853b3,,1,0,80,2,1,79
,,,,,,,,,,,,,,,,,,,,,,,,,,,,,,,,,,,a,6.141000032,HA,FALSE,,,,,,,106,aixeta,Catalan,Sounds/cat_aixeta.mp3,2020-06-17_16h10.50.022,TranslationElicitation_spa,3.2.4,Win32,60,5ede17651b8bce028a0853b3,,1,0,80,2,1,79
,,,,,,,,,,,,,,,,,,,,,,,,,,,,,,,,,,,c,6.292999983,HAC,FALSE,,,,,,,106,aixeta,Catalan,Sounds/cat_aixeta.mp3,2020-06-17_16h10.50.022,TranslationElicitation_spa,3.2.4,Win32,60,5ede17651b8bce028a0853b3,,1,0,80,2,1,79
,,,,,,,,,,,,,,,,,,,,,,,,,,,,,,,,,,,h,6.394999981,HACH,FALSE,,,,,,,106,aixeta,Catalan,Sounds/cat_aixeta.mp3,2020-06-17_16h10.50.022,TranslationElicitation_spa,3.2.4,Win32,60,5ede17651b8bce028a0853b3,,1,0,80,2,1,79
,,,,,,,,,,,,,,,,,,,,,,,,,,,,,,,,,,,a,6.496000051,HACHA,FALSE,,,,,,,106,aixeta,Catalan,Sounds/cat_aixeta.mp3,2020-06-17_16h10.50.022,TranslationElicitation_spa,3.2.4,Win32,60,5ede17651b8bce028a0853b3,,1,0,80,2,1,79
,,,,,,,,,,,,,,,,,,,,,,,,,,,,,,,,,,,return,7.049999952,,FALSE,,,,,,,106,aixeta,Catalan,Sounds/cat_aixeta.mp3,2020-06-17_16h10.50.022,TranslationElicitation_spa,3.2.4,Win32,60,5ede17651b8bce028a0853b3,7.049999952,1,0,80,2,1,79
,,,,,,,,,,,,,,,,,,,,,,,,,,,,,,,,,,,,,,,,,,,,,106,aixeta,Catalan,Sounds/cat_aixeta.mp3,2020-06-17_16h10.50.022,TranslationElicitation_spa,3.2.4,Win32,60,5ede17651b8bce028a0853b3,,1,0,80,2,1,79
,,,,,,,,,,,,,,,,,,,,,,,,,,,,,,,,,,,l,1.53399992,L,FALSE,,,,,,,151,lluna,Catalan,Sounds/cat_lluna.mp3,2020-06-17_16h10.50.022,TranslationElicitation_spa,3.2.4,Win32,60,5ede17651b8bce028a0853b3,,1,0,80,45,1,79
,,,,,,,,,,,,,,,,,,,,,,,,,,,,,,,,,,,u,1.732999802,LU,FALSE,,,,,,,151,lluna,Catalan,Sounds/cat_lluna.mp3,2020-06-17_16h10.50.022,TranslationElicitation_spa,3.2.4,Win32,60,5ede17651b8bce028a0853b3,,1,0,80,45,1,79
,,,,,,,,,,,,,,,,,,,,,,,,,,,,,,,,,,,n,1.883999825,LUN,FALSE,,,,,,,151,lluna,Catalan,Sounds/cat_lluna.mp3,2020-06-17_16h10.50.022,TranslationElicitation_spa,3.2.4,Win32,60,5ede17651b8bce028a0853b3,,1,0,80,45,1,79
,,,,,,,,,,,,,,,,,,,,,,,,,,,,,,,,,,,a,1.93599987,LUNA,FALSE,,,,,,,151,lluna,Catalan,Sounds/cat_lluna.mp3,2020-06-17_16h10.50.022,TranslationElicitation_spa,3.2.4,Win32,60,5ede17651b8bce028a0853b3,,1,0,80,45,1,79
,,,,,,,,,,,,,,,,,,,,,,,,,,,,,,,,,,,return,2.346999884,,FALSE,,,,,,,151,lluna,Catalan,Sounds/cat_lluna.mp3,2020-06-17_16h10.50.022,TranslationElicitation_spa,3.2.4,Win32,60,5ede17651b8bce028a0853b3,2.346999884,1,0,80,45,1,79
,,,,,,,,,,,,,,,,,,,,,,,,,,,,,,,,,,,,,,,,,,,,,151,lluna,Catalan,Sounds/cat_lluna.mp3,2020-06-17_16h10.50.022,TranslationElicitation_spa,3.2.4,Win32,60,5ede17651b8bce028a0853b3,,1,0,80,45,1,79
,,,,,,,,,,,,,,,,,,,,,,,,,,,,,,,,,,,t,1.309999943,T,FALSE,,,,,,,181,tobogan,Catalan,Sounds/cat_tobogan.mp3,2020-06-17_16h10.50.022,TranslationElicitation_spa,3.2.4,Win32,60,5ede17651b8bce028a0853b3,,1,0,80,72,1,79
,,,,,,,,,,,,,,,,,,,,,,,,,,,,,,,,,,,o,1.513000011,TO,FALSE,,,,,,,181,tobogan,Catalan,Sounds/cat_tobogan.mp3,2020-06-17_16h10.50.022,TranslationElicitation_spa,3.2.4,Win32,60,5ede17651b8bce028a0853b3,,1,0,80,72,1,79
,,,,,,,,,,,,,,,,,,,,,,,,,,,,,,,,,,,b,1.563999891,TOB,FALSE,,,,,,,181,tobogan,Catalan,Sounds/cat_tobogan.mp3,2020-06-17_16h10.50.022,TranslationElicitation_spa,3.2.4,Win32,60,5ede17651b8bce028a0853b3,,1,0,80,72,1,79
,,,,,,,,,,,,,,,,,,,,,,,,,,,,,,,,,,,o,1.667000055,TOBO,FALSE,,,,,,,181,tobogan,Catalan,Sounds/cat_tobogan.mp3,2020-06-17_16h10.50.022,TranslationElicitation_spa,3.2.4,Win32,60,5ede17651b8bce028a0853b3,,1,0,80,72,1,79
,,,,,,,,,,,,,,,,,,,,,,,,,,,,,,,,,,,g,1.823999882,TOBOG,FALSE,,,,,,,181,tobogan,Catalan,Sounds/cat_tobogan.mp3,2020-06-17_16h10.50.022,TranslationElicitation_spa,3.2.4,Win32,60,5ede17651b8bce028a0853b3,,1,0,80,72,1,79
,,,,,,,,,,,,,,,,,,,,,,,,,,,,,,,,,,,a,2.03399992,TOBOGA,FALSE,,,,,,,181,tobogan,Catalan,Sounds/cat_tobogan.mp3,2020-06-17_16h10.50.022,TranslationElicitation_spa,3.2.4,Win32,60,5ede17651b8bce028a0853b3,,1,0,80,72,1,79
,,,,,,,,,,,,,,,,,,,,,,,,,,,,,,,,,,,n,2.141000032,TOBOGAN,FALSE,,,,,,,181,tobogan,Catalan,Sounds/cat_tobogan.mp3,2020-06-17_16h10.50.022,TranslationElicitation_spa,3.2.4,Win32,60,5ede17651b8bce028a0853b3,,1,0,80,72,1,79
,,,,,,,,,,,,,,,,,,,,,,,,,,,,,,,,,,,backspace,2.570999861,TOBOG,TRUE,,,,,,,181,tobogan,Catalan,Sounds/cat_tobogan.mp3,2020-06-17_16h10.50.022,TranslationElicitation_spa,3.2.4,Win32,60,5ede17651b8bce028a0853b3,,1,0,80,72,1,79
,,,,,,,,,,,,,,,,,,,,,,,,,,,,,,,,,,,backspace,2.737999916,TOB,TRUE,,,,,,,181,tobogan,Catalan,Sounds/cat_tobogan.mp3,2020-06-17_16h10.50.022,TranslationElicitation_spa,3.2.4,Win32,60,5ede17651b8bce028a0853b3,,1,0,80,72,1,79
,,,,,,,,,,,,,,,,,,,,,,,,,,,,,,,,,,,apostrophe,3.511999846,TOB,TRUE,,,,,,,181,tobogan,Catalan,Sounds/cat_tobogan.mp3,2020-06-17_16h10.50.022,TranslationElicitation_spa,3.2.4,Win32,60,5ede17651b8bce028a0853b3,,1,0,80,72,1,79
,,,,,,,,,,,,,,,,,,,,,,,,,,,,,,,,,,,n,3.690000057,TOB,TRUE,,,,,,,181,tobogan,Catalan,Sounds/cat_tobogan.mp3,2020-06-17_16h10.50.022,TranslationElicitation_spa,3.2.4,Win32,60,5ede17651b8bce028a0853b3,,1,0,80,72,1,79
,,,,,,,,,,,,,,,,,,,,,,,,,,,,,,,,,,,a,4.395999908,TOBÁ,TRUE,,,,,,,181,tobogan,Catalan,Sounds/cat_tobogan.mp3,2020-06-17_16h10.50.022,TranslationElicitation_spa,3.2.4,Win32,60,5ede17651b8bce028a0853b3,,1,0,80,72,1,79
,,,,,,,,,,,,,,,,,,,,,,,,,,,,,,,,,,,backspace,5.075999975,TO,TRUE,,,,,,,181,tobogan,Catalan,Sounds/cat_tobogan.mp3,2020-06-17_16h10.50.022,TranslationElicitation_spa,3.2.4,Win32,60,5ede17651b8bce028a0853b3,,1,0,80,72,1,79
,,,,,,,,,,,,,,,,,,,,,,,,,,,,,,,,,,,o,5.802999973,TOO,TRUE,,,,,,,181,tobogan,Catalan,Sounds/cat_tobogan.mp3,2020-06-17_16h10.50.022,TranslationElicitation_spa,3.2.4,Win32,60,5ede17651b8bce028a0853b3,,1,0,80,72,1,79
,,,,,,,,,,,,,,,,,,,,,,,,,,,,,,,,,,,g,6.338000059,TOOG,TRUE,,,,,,,181,tobogan,Catalan,Sounds/cat_tobogan.mp3,2020-06-17_16h10.50.022,TranslationElicitation_spa,3.2.4,Win32,60,5ede17651b8bce028a0853b3,,1,0,80,72,1,79
,,,,,,,,,,,,,,,,,,,,,,,,,,,,,,,,,,,apostrophe,6.86500001,TOOG,TRUE,,,,,,,181,tobogan,Catalan,Sounds/cat_tobogan.mp3,2020-06-17_16h10.50.022,TranslationElicitation_spa,3.2.4,Win32,60,5ede17651b8bce028a0853b3,,1,0,80,72,1,79
,,,,,,,,,,,,,,,,,,,,,,,,,,,,,,,,,,,a,6.970999956,TOOGÁ,TRUE,,,,,,,181,tobogan,Catalan,Sounds/cat_tobogan.mp3,2020-06-17_16h10.50.022,TranslationElicitation_spa,3.2.4,Win32,60,5ede17651b8bce028a0853b3,,1,0,80,72,1,79
,,,,,,,,,,,,,,,,,,,,,,,,,,,,,,,,,,,n,7.078999996,TOOGÁN,TRUE,,,,,,,181,tobogan,Catalan,Sounds/cat_tobogan.mp3,2020-06-17_16h10.50.022,TranslationElicitation_spa,3.2.4,Win32,60,5ede17651b8bce028a0853b3,,1,0,80,72,1,79
,,,,,,,,,,,,,,,,,,,,,,,,,,,,,,,,,,,return,7.631999969,,TRUE,,,,,,,181,tobogan,Catalan,Sounds/cat_tobogan.mp3,2020-06-17_16h10.50.022,TranslationElicitation_spa,3.2.4,Win32,60,5ede17651b8bce028a0853b3,7.631999969,1,0,80,72,1,79
,,,,,,,,,,,,,,,,,,,,,,,,,,,,,,,,,,,,,,,,,,,,,181,tobogan,Catalan,Sounds/cat_tobogan.mp3,2020-06-17_16h10.50.022,TranslationElicitation_spa,3.2.4,Win32,60,5ede17651b8bce028a0853b3,,1,0,80,72,1,79
,,,,,,,,,,,,,,,,,,,,,,,,,,,,,,,,,,,b,1.703999996,B,FALSE,,,,,,,117,boto,Catalan,Sounds/cat_boto.mp3,2020-06-17_16h10.50.022,TranslationElicitation_spa,3.2.4,Win32,60,5ede17651b8bce028a0853b3,,1,0,80,12,1,79
,,,,,,,,,,,,,,,,,,,,,,,,,,,,,,,,,,,o,1.860999823,BO,FALSE,,,,,,,117,boto,Catalan,Sounds/cat_boto.mp3,2020-06-17_16h10.50.022,TranslationElicitation_spa,3.2.4,Win32,60,5ede17651b8bce028a0853b3,,1,0,80,12,1,79
,,,,,,,,,,,,,,,,,,,,,,,,,,,,,,,,,,,t,1.967000008,BOT,FALSE,,,,,,,117,boto,Catalan,Sounds/cat_boto.mp3,2020-06-17_16h10.50.022,TranslationElicitation_spa,3.2.4,Win32,60,5ede17651b8bce028a0853b3,,1,0,80,12,1,79
,,,,,,,,,,,,,,,,,,,,,,,,,,,,,,,,,,,o,2.019999981,BOTO,FALSE,,,,,,,117,boto,Catalan,Sounds/cat_boto.mp3,2020-06-17_16h10.50.022,TranslationElicitation_spa,3.2.4,Win32,60,5ede17651b8bce028a0853b3,,1,0,80,12,1,79
,,,,,,,,,,,,,,,,,,,,,,,,,,,,,,,,,,,n,2.234999895,BOTON,FALSE,,,,,,,117,boto,Catalan,Sounds/cat_boto.mp3,2020-06-17_16h10.50.022,TranslationElicitation_spa,3.2.4,Win32,60,5ede17651b8bce028a0853b3,,1,0,80,12,1,79
,,,,,,,,,,,,,,,,,,,,,,,,,,,,,,,,,,,return,2.555999994,,FALSE,,,,,,,117,boto,Catalan,Sounds/cat_boto.mp3,2020-06-17_16h10.50.022,TranslationElicitation_spa,3.2.4,Win32,60,5ede17651b8bce028a0853b3,2.554999828,1,0,80,12,1,79
,,,,,,,,,,,,,,,,,,,,,,,,,,,,,,,,,,,,,,,,,,,,,117,boto,Catalan,Sounds/cat_boto.mp3,2020-06-17_16h10.50.022,TranslationElicitation_spa,3.2.4,Win32,60,5ede17651b8bce028a0853b3,,1,0,80,12,1,79
,,,,,,,,,,,,,,,,,,,,,,,,,,,,,,,,,,,e,1.409000158,E,FALSE,,,,,,,132,estrella,Catalan,Sounds/cat_estrella.mp3,2020-06-17_16h10.50.022,TranslationElicitation_spa,3.2.4,Win32,60,5ede17651b8bce028a0853b3,,1,0,80,27,1,79
,,,,,,,,,,,,,,,,,,,,,,,,,,,,,,,,,,,s,1.565999985,ES,FALSE,,,,,,,132,estrella,Catalan,Sounds/cat_estrella.mp3,2020-06-17_16h10.50.022,TranslationElicitation_spa,3.2.4,Win32,60,5ede17651b8bce028a0853b3,,1,0,80,27,1,79
,,,,,,,,,,,,,,,,,,,,,,,,,,,,,,,,,,,t,1.777000189,EST,FALSE,,,,,,,132,estrella,Catalan,Sounds/cat_estrella.mp3,2020-06-17_16h10.50.022,TranslationElicitation_spa,3.2.4,Win32,60,5ede17651b8bce028a0853b3,,1,0,80,27,1,79
,,,,,,,,,,,,,,,,,,,,,,,,,,,,,,,,,,,r,1.881000042,ESTR,FALSE,,,,,,,132,estrella,Catalan,Sounds/cat_estrella.mp3,2020-06-17_16h10.50.022,TranslationElicitation_spa,3.2.4,Win32,60,5ede17651b8bce028a0853b3,,1,0,80,27,1,79
,,,,,,,,,,,,,,,,,,,,,,,,,,,,,,,,,,,e,2.041000128,ESTRE,FALSE,,,,,,,132,estrella,Catalan,Sounds/cat_estrella.mp3,2020-06-17_16h10.50.022,TranslationElicitation_spa,3.2.4,Win32,60,5ede17651b8bce028a0853b3,,1,0,80,27,1,79
,,,,,,,,,,,,,,,,,,,,,,,,,,,,,,,,,,,l,2.203999996,ESTREL,FALSE,,,,,,,132,estrella,Catalan,Sounds/cat_estrella.mp3,2020-06-17_16h10.50.022,TranslationElicitation_spa,3.2.4,Win32,60,5ede17651b8bce028a0853b3,,1,0,80,27,1,79
,,,,,,,,,,,,,,,,,,,,,,,,,,,,,,,,,,,l,2.309000015,ESTRELL,FALSE,,,,,,,132,estrella,Catalan,Sounds/cat_estrella.mp3,2020-06-17_16h10.50.022,TranslationElicitation_spa,3.2.4,Win32,60,5ede17651b8bce028a0853b3,,1,0,80,27,1,79
,,,,,,,,,,,,,,,,,,,,,,,,,,,,,,,,,,,a,2.414000034,ESTRELLA,FALSE,,,,,,,132,estrella,Catalan,Sounds/cat_estrella.mp3,2020-06-17_16h10.50.022,TranslationElicitation_spa,3.2.4,Win32,60,5ede17651b8bce028a0853b3,,1,0,80,27,1,79
,,,,,,,,,,,,,,,,,,,,,,,,,,,,,,,,,,,return,2.57400012,,FALSE,,,,,,,132,estrella,Catalan,Sounds/cat_estrella.mp3,2020-06-17_16h10.50.022,TranslationElicitation_spa,3.2.4,Win32,60,5ede17651b8bce028a0853b3,2.57400012,1,0,80,27,1,79
,,,,,,,,,,,,,,,,,,,,,,,,,,,,,,,,,,,,,,,,,,,,,132,estrella,Catalan,Sounds/cat_estrella.mp3,2020-06-17_16h10.50.022,TranslationElicitation_spa,3.2.4,Win32,60,5ede17651b8bce028a0853b3,,1,0,80,27,1,79
,,,,,,,,,,,,,,,,,,,,,,,,,,,,,,,,,,,p,2.131999969,P,FALSE,,,,,,,169,plat,Catalan,Sounds/cat_plat.mp3,2020-06-17_16h10.50.022,TranslationElicitation_spa,3.2.4,Win32,60,5ede17651b8bce028a0853b3,,1,0,80,61,1,79
,,,,,,,,,,,,,,,,,,,,,,,,,,,,,,,,,,,l,2.289000034,PL,FALSE,,,,,,,169,plat,Catalan,Sounds/cat_plat.mp3,2020-06-17_16h10.50.022,TranslationElicitation_spa,3.2.4,Win32,60,5ede17651b8bce028a0853b3,,1,0,80,61,1,79
,,,,,,,,,,,,,,,,,,,,,,,,,,,,,,,,,,,a,2.39199996,PLA,FALSE,,,,,,,169,plat,Catalan,Sounds/cat_plat.mp3,2020-06-17_16h10.50.022,TranslationElicitation_spa,3.2.4,Win32,60,5ede17651b8bce028a0853b3,,1,0,80,61,1,79
,,,,,,,,,,,,,,,,,,,,,,,,,,,,,,,,,,,t,2.506000042,PLAT,FALSE,,,,,,,169,plat,Catalan,Sounds/cat_plat.mp3,2020-06-17_16h10.50.022,TranslationElicitation_spa,3.2.4,Win32,60,5ede17651b8bce028a0853b3,,1,0,80,61,1,79
,,,,,,,,,,,,,,,,,,,,,,,,,,,,,,,,,,,o,2.613000154,PLATO,FALSE,,,,,,,169,plat,Catalan,Sounds/cat_plat.mp3,2020-06-17_16h10.50.022,TranslationElicitation_spa,3.2.4,Win32,60,5ede17651b8bce028a0853b3,,1,0,80,61,1,79
,,,,,,,,,,,,,,,,,,,,,,,,,,,,,,,,,,,return,2.873000145,,FALSE,,,,,,,169,plat,Catalan,Sounds/cat_plat.mp3,2020-06-17_16h10.50.022,TranslationElicitation_spa,3.2.4,Win32,60,5ede17651b8bce028a0853b3,2.873000145,1,0,80,61,1,79
,,,,,,,,,,,,,,,,,,,,,,,,,,,,,,,,,,,,,,,,,,,,,169,plat,Catalan,Sounds/cat_plat.mp3,2020-06-17_16h10.50.022,TranslationElicitation_spa,3.2.4,Win32,60,5ede17651b8bce028a0853b3,,1,0,80,61,1,79
,,,,,,,,,,,,,,,,,,,,,,,,,,,,,,,,,,,l,2.630000114,L,FALSE,,,,,,,149,llibre,Catalan,Sounds/cat_llibre.mp3,2020-06-17_16h10.50.022,TranslationElicitation_spa,3.2.4,Win32,60,5ede17651b8bce028a0853b3,,1,0,80,43,1,79
,,,,,,,,,,,,,,,,,,,,,,,,,,,,,,,,,,,i,2.785000086,LI,FALSE,,,,,,,149,llibre,Catalan,Sounds/cat_llibre.mp3,2020-06-17_16h10.50.022,TranslationElicitation_spa,3.2.4,Win32,60,5ede17651b8bce028a0853b3,,1,0,80,43,1,79
,,,,,,,,,,,,,,,,,,,,,,,,,,,,,,,,,,,b,2.940999985,LIB,FALSE,,,,,,,149,llibre,Catalan,Sounds/cat_llibre.mp3,2020-06-17_16h10.50.022,TranslationElicitation_spa,3.2.4,Win32,60,5ede17651b8bce028a0853b3,,1,0,80,43,1,79
,,,,,,,,,,,,,,,,,,,,,,,,,,,,,,,,,,,r,3.045000076,LIBR,FALSE,,,,,,,149,llibre,Catalan,Sounds/cat_llibre.mp3,2020-06-17_16h10.50.022,TranslationElicitation_spa,3.2.4,Win32,60,5ede17651b8bce028a0853b3,,1,0,80,43,1,79
,,,,,,,,,,,,,,,,,,,,,,,,,,,,,,,,,,,e,3.148000002,LIBRE,FALSE,,,,,,,149,llibre,Catalan,Sounds/cat_llibre.mp3,2020-06-17_16h10.50.022,TranslationElicitation_spa,3.2.4,Win32,60,5ede17651b8bce028a0853b3,,1,0,80,43,1,79
,,,,,,,,,,,,,,,,,,,,,,,,,,,,,,,,,,,r,3.305000067,LIBRER,FALSE,,,,,,,149,llibre,Catalan,Sounds/cat_llibre.mp3,2020-06-17_16h10.50.022,TranslationElicitation_spa,3.2.4,Win32,60,5ede17651b8bce028a0853b3,,1,0,80,43,1,79
,,,,,,,,,,,,,,,,,,,,,,,,,,,,,,,,,,,i,3.409000158,LIBRERI,FALSE,,,,,,,149,llibre,Catalan,Sounds/cat_llibre.mp3,2020-06-17_16h10.50.022,TranslationElicitation_spa,3.2.4,Win32,60,5ede17651b8bce028a0853b3,,1,0,80,43,1,79
,,,,,,,,,,,,,,,,,,,,,,,,,,,,,,,,,,,a,3.515000105,LIBRERIA,FALSE,,,,,,,149,llibre,Catalan,Sounds/cat_llibre.mp3,2020-06-17_16h10.50.022,TranslationElicitation_spa,3.2.4,Win32,60,5ede17651b8bce028a0853b3,,1,0,80,43,1,79
,,,,,,,,,,,,,,,,,,,,,,,,,,,,,,,,,,,return,3.904000044,,FALSE,,,,,,,149,llibre,Catalan,Sounds/cat_llibre.mp3,2020-06-17_16h10.50.022,TranslationElicitation_spa,3.2.4,Win32,60,5ede17651b8bce028a0853b3,3.904000044,1,0,80,43,1,79
,,,,,,,,,,,,,,,,,,,,,,,,,,,,,,,,,,,,,,,,,,,,,149,llibre,Catalan,Sounds/cat_llibre.mp3,2020-06-17_16h10.50.022,TranslationElicitation_spa,3.2.4,Win32,60,5ede17651b8bce028a0853b3,,1,0,80,43,1,79
,,,,,,,,,,,,,,,,,,,,,,,,,,,,,,,,,,,p,24.87599993,P,FALSE,,,,,,,163,papallona,Catalan,Sounds/cat_papallona.mp3,2020-06-17_16h10.50.022,TranslationElicitation_spa,3.2.4,Win32,60,5ede17651b8bce028a0853b3,,1,0,80,56,1,79
,,,,,,,,,,,,,,,,,,,,,,,,,,,,,,,,,,,a,25.02799988,PA,FALSE,,,,,,,163,papallona,Catalan,Sounds/cat_papallona.mp3,2020-06-17_16h10.50.022,TranslationElicitation_spa,3.2.4,Win32,60,5ede17651b8bce028a0853b3,,1,0,80,56,1,79
,,,,,,,,,,,,,,,,,,,,,,,,,,,,,,,,,,,p,25.23300004,PAP,FALSE,,,,,,,163,papallona,Catalan,Sounds/cat_papallona.mp3,2020-06-17_16h10.50.022,TranslationElicitation_spa,3.2.4,Win32,60,5ede17651b8bce028a0853b3,,1,0,80,56,1,79
,,,,,,,,,,,,,,,,,,,,,,,,,,,,,,,,,,,a,25.38700008,PAPA,FALSE,,,,,,,163,papallona,Catalan,Sounds/cat_papallona.mp3,2020-06-17_16h10.50.022,TranslationElicitation_spa,3.2.4,Win32,60,5ede17651b8bce028a0853b3,,1,0,80,56,1,79
,,,,,,,,,,,,,,,,,,,,,,,,,,,,,,,,,,,y,25.58999991,PAPAY,FALSE,,,,,,,163,papallona,Catalan,Sounds/cat_papallona.mp3,2020-06-17_16h10.50.022,TranslationElicitation_spa,3.2.4,Win32,60,5ede17651b8bce028a0853b3,,1,0,80,56,1,79
,,,,,,,,,,,,,,,,,,,,,,,,,,,,,,,,,,,a,25.69700003,PAPAYA,FALSE,,,,,,,163,papallona,Catalan,Sounds/cat_papallona.mp3,2020-06-17_16h10.50.022,TranslationElicitation_spa,3.2.4,Win32,60,5ede17651b8bce028a0853b3,,1,0,80,56,1,79
,,,,,,,,,,,,,,,,,,,,,,,,,,,,,,,,,,,return,26.21000004,,FALSE,,,,,,,163,papallona,Catalan,Sounds/cat_papallona.mp3,2020-06-17_16h10.50.022,TranslationElicitation_spa,3.2.4,Win32,60,5ede17651b8bce028a0853b3,26.21000004,1,0,80,56,1,79
,,,,,,,,,,,,,,,,,,,,,,,,,,,,,,,,,,,,,,,,,,,,,163,papallona,Catalan,Sounds/cat_papallona.mp3,2020-06-17_16h10.50.022,TranslationElicitation_spa,3.2.4,Win32,60,5ede17651b8bce028a0853b3,,1,0,80,56,1,79
,,,,,,,,,,,,,,,,,,,,,,,,,,,,,,,,,,,b,1.470999956,B,FALSE,,,,,,,161,ovella,Catalan,Sounds/cat_ovella.mp3,2020-06-17_16h10.50.022,TranslationElicitation_spa,3.2.4,Win32,60,5ede17651b8bce028a0853b3,,1,0,80,54,1,79
,,,,,,,,,,,,,,,,,,,,,,,,,,,,,,,,,,,o,1.672999859,BO,FALSE,,,,,,,161,ovella,Catalan,Sounds/cat_ovella.mp3,2020-06-17_16h10.50.022,TranslationElicitation_spa,3.2.4,Win32,60,5ede17651b8bce028a0853b3,,1,0,80,54,1,79
,,,,,,,,,,,,,,,,,,,,,,,,,,,,,,,,,,,t,1.773999929,BOT,FALSE,,,,,,,161,ovella,Catalan,Sounds/cat_ovella.mp3,2020-06-17_16h10.50.022,TranslationElicitation_spa,3.2.4,Win32,60,5ede17651b8bce028a0853b3,,1,0,80,54,1,79
,,,,,,,,,,,,,,,,,,,,,,,,,,,,,,,,,,,e,1.92599988,BOTE,FALSE,,,,,,,161,ovella,Catalan,Sounds/cat_ovella.mp3,2020-06-17_16h10.50.022,TranslationElicitation_spa,3.2.4,Win32,60,5ede17651b8bce028a0853b3,,1,0,80,54,1,79
,,,,,,,,,,,,,,,,,,,,,,,,,,,,,,,,,,,l,2.029999971,BOTEL,FALSE,,,,,,,161,ovella,Catalan,Sounds/cat_ovella.mp3,2020-06-17_16h10.50.022,TranslationElicitation_spa,3.2.4,Win32,60,5ede17651b8bce028a0853b3,,1,0,80,54,1,79
,,,,,,,,,,,,,,,,,,,,,,,,,,,,,,,,,,,l,2.131999969,BOTELL,FALSE,,,,,,,161,ovella,Catalan,Sounds/cat_ovella.mp3,2020-06-17_16h10.50.022,TranslationElicitation_spa,3.2.4,Win32,60,5ede17651b8bce028a0853b3,,1,0,80,54,1,79
,,,,,,,,,,,,,,,,,,,,,,,,,,,,,,,,,,,a,2.233999968,BOTELLA,FALSE,,,,,,,161,ovella,Catalan,Sounds/cat_ovella.mp3,2020-06-17_16h10.50.022,TranslationElicitation_spa,3.2.4,Win32,60,5ede17651b8bce028a0853b3,,1,0,80,54,1,79
,,,,,,,,,,,,,,,,,,,,,,,,,,,,,,,,,,,return,2.498999834,,FALSE,,,,,,,161,ovella,Catalan,Sounds/cat_ovella.mp3,2020-06-17_16h10.50.022,TranslationElicitation_spa,3.2.4,Win32,60,5ede17651b8bce028a0853b3,2.498999834,1,0,80,54,1,79
,,,,,,,,,,,,,,,,,,,,,,,,,,,,,,,,,,,,,,,,,,,,,161,ovella,Catalan,Sounds/cat_ovella.mp3,2020-06-17_16h10.50.022,TranslationElicitation_spa,3.2.4,Win32,60,5ede17651b8bce028a0853b3,,1,0,80,54,1,79
,,,,,,,,,,,,,,,,,,,,,,,,,,,,,,,,,,,b,3.354000092,B,FALSE,,,,,,,104,abella,Catalan,Sounds/cat_abella.mp3,2020-06-17_16h10.50.022,TranslationElicitation_spa,3.2.4,Win32,60,5ede17651b8bce028a0853b3,,1,0,80,0,1,79
,,,,,,,,,,,,,,,,,,,,,,,,,,,,,,,,,,,e,3.404999971,BE,FALSE,,,,,,,104,abella,Catalan,Sounds/cat_abella.mp3,2020-06-17_16h10.50.022,TranslationElicitation_spa,3.2.4,Win32,60,5ede17651b8bce028a0853b3,,1,0,80,0,1,79
,,,,,,,,,,,,,,,,,,,,,,,,,,,,,,,,,,,l,3.621000051,BEL,FALSE,,,,,,,104,abella,Catalan,Sounds/cat_abella.mp3,2020-06-17_16h10.50.022,TranslationElicitation_spa,3.2.4,Win32,60,5ede17651b8bce028a0853b3,,1,0,80,0,1,79
,,,,,,,,,,,,,,,,,,,,,,,,,,,,,,,,,,,l,3.74000001,BELL,FALSE,,,,,,,104,abella,Catalan,Sounds/cat_abella.mp3,2020-06-17_16h10.50.022,TranslationElicitation_spa,3.2.4,Win32,60,5ede17651b8bce028a0853b3,,1,0,80,0,1,79
,,,,,,,,,,,,,,,,,,,,,,,,,,,,,,,,,,,e,3.796000004,BELLE,FALSE,,,,,,,104,abella,Catalan,Sounds/cat_abella.mp3,2020-06-17_16h10.50.022,TranslationElicitation_spa,3.2.4,Win32,60,5ede17651b8bce028a0853b3,,1,0,80,0,1,79
,,,,,,,,,,,,,,,,,,,,,,,,,,,,,,,,,,,z,3.991000175,BELLEZ,FALSE,,,,,,,104,abella,Catalan,Sounds/cat_abella.mp3,2020-06-17_16h10.50.022,TranslationElicitation_spa,3.2.4,Win32,60,5ede17651b8bce028a0853b3,,1,0,80,0,1,79
,,,,,,,,,,,,,,,,,,,,,,,,,,,,,,,,,,,a,4.192000151,BELLEZA,FALSE,,,,,,,104,abella,Catalan,Sounds/cat_abella.mp3,2020-06-17_16h10.50.022,TranslationElicitation_spa,3.2.4,Win32,60,5ede17651b8bce028a0853b3,,1,0,80,0,1,79
,,,,,,,,,,,,,,,,,,,,,,,,,,,,,,,,,,,return,4.394000053,,FALSE,,,,,,,104,abella,Catalan,Sounds/cat_abella.mp3,2020-06-17_16h10.50.022,TranslationElicitation_spa,3.2.4,Win32,60,5ede17651b8bce028a0853b3,4.393000126,1,0,80,0,1,79
,,,,,,,,,,,,,,,,,,,,,,,,,,,,,,,,,,,,,,,,,,,,,104,abella,Catalan,Sounds/cat_abella.mp3,2020-06-17_16h10.50.022,TranslationElicitation_spa,3.2.4,Win32,60,5ede17651b8bce028a0853b3,,1,0,80,0,1,79
,,,,,,,,,,,,,,,,,,,,,,,,,,,,,,,,,,,a,1.322999954,A,FALSE,,,,,,,123,cavall,Catalan,Sounds/cat_cavall.mp3,2020-06-17_16h10.50.022,TranslationElicitation_spa,3.2.4,Win32,60,5ede17651b8bce028a0853b3,,1,0,80,18,1,79
,,,,,,,,,,,,,,,,,,,,,,,,,,,,,,,,,,,b,1.423000097,AB,FALSE,,,,,,,123,cavall,Catalan,Sounds/cat_cavall.mp3,2020-06-17_16h10.50.022,TranslationElicitation_spa,3.2.4,Win32,60,5ede17651b8bce028a0853b3,,1,0,80,18,1,79
,,,,,,,,,,,,,,,,,,,,,,,,,,,,,,,,,,,a,1.572999954,ABA,FALSE,,,,,,,123,cavall,Catalan,Sounds/cat_cavall.mp3,2020-06-17_16h10.50.022,TranslationElicitation_spa,3.2.4,Win32,60,5ede17651b8bce028a0853b3,,1,0,80,18,1,79
,,,,,,,,,,,,,,,,,,,,,,,,,,,,,,,,,,,l,1.775000095,ABAL,FALSE,,,,,,,123,cavall,Catalan,Sounds/cat_cavall.mp3,2020-06-17_16h10.50.022,TranslationElicitation_spa,3.2.4,Win32,60,5ede17651b8bce028a0853b3,,1,0,80,18,1,79
,,,,,,,,,,,,,,,,,,,,,,,,,,,,,,,,,,,l,1.927000046,ABALL,FALSE,,,,,,,123,cavall,Catalan,Sounds/cat_cavall.mp3,2020-06-17_16h10.50.022,TranslationElicitation_spa,3.2.4,Win32,60,5ede17651b8bce028a0853b3,,1,0,80,18,1,79
,,,,,,,,,,,,,,,,,,,,,,,,,,,,,,,,,,,backspace,2.183000088,ABA,TRUE,,,,,,,123,cavall,Catalan,Sounds/cat_cavall.mp3,2020-06-17_16h10.50.022,TranslationElicitation_spa,3.2.4,Win32,60,5ede17651b8bce028a0853b3,,1,0,80,18,1,79
,,,,,,,,,,,,,,,,,,,,,,,,,,,,,,,,,,,backspace,2.338000059,A,TRUE,,,,,,,123,cavall,Catalan,Sounds/cat_cavall.mp3,2020-06-17_16h10.50.022,TranslationElicitation_spa,3.2.4,Win32,60,5ede17651b8bce028a0853b3,,1,0,80,18,1,79
,,,,,,,,,,,,,,,,,,,,,,,,,,,,,,,,,,,backspace,2.43900013,,TRUE,,,,,,,123,cavall,Catalan,Sounds/cat_cavall.mp3,2020-06-17_16h10.50.022,TranslationElicitation_spa,3.2.4,Win32,60,5ede17651b8bce028a0853b3,,1,0,80,18,1,79
,,,,,,,,,,,,,,,,,,,,,,,,,,,,,,,,,,,backspace,2.542000055,,TRUE,,,,,,,123,cavall,Catalan,Sounds/cat_cavall.mp3,2020-06-17_16h10.50.022,TranslationElicitation_spa,3.2.4,Win32,60,5ede17651b8bce028a0853b3,,1,0,80,18,1,79
,,,,,,,,,,,,,,,,,,,,,,,,,,,,,,,,,,,backspace,2.696000099,,TRUE,,,,,,,123,cavall,Catalan,Sounds/cat_cavall.mp3,2020-06-17_16h10.50.022,TranslationElicitation_spa,3.2.4,Win32,60,5ede17651b8bce028a0853b3,,1,0,80,18,1,79
,,,,,,,,,,,,,,,,,,,,,,,,,,,,,,,,,,,backspace,2.809999943,,TRUE,,,,,,,123,cavall,Catalan,Sounds/cat_cavall.mp3,2020-06-17_16h10.50.022,TranslationElicitation_spa,3.2.4,Win32,60,5ede17651b8bce028a0853b3,,1,0,80,18,1,79
,,,,,,,,,,,,,,,,,,,,,,,,,,,,,,,,,,,c,2.914000034,C,TRUE,,,,,,,123,cavall,Catalan,Sounds/cat_cavall.mp3,2020-06-17_16h10.50.022,TranslationElicitation_spa,3.2.4,Win32,60,5ede17651b8bce028a0853b3,,1,0,80,18,1,79
,,,,,,,,,,,,,,,,,,,,,,,,,,,,,,,,,,,a,3.124000072,CA,TRUE,,,,,,,123,cavall,Catalan,Sounds/cat_cavall.mp3,2020-06-17_16h10.50.022,TranslationElicitation_spa,3.2.4,Win32,60,5ede17651b8bce028a0853b3,,1,0,80,18,1,79
,,,,,,,,,,,,,,,,,,,,,,,,,,,,,,,,,,,b,3.279000044,CAB,TRUE,,,,,,,123,cavall,Catalan,Sounds/cat_cavall.mp3,2020-06-17_16h10.50.022,TranslationElicitation_spa,3.2.4,Win32,60,5ede17651b8bce028a0853b3,,1,0,80,18,1,79
,,,,,,,,,,,,,,,,,,,,,,,,,,,,,,,,,,,l,3.53399992,CABL,TRUE,,,,,,,123,cavall,Catalan,Sounds/cat_cavall.mp3,2020-06-17_16h10.50.022,TranslationElicitation_spa,3.2.4,Win32,60,5ede17651b8bce028a0853b3,,1,0,80,18,1,79
,,,,,,,,,,,,,,,,,,,,,,,,,,,,,,,,,,,l,3.68900013,CABLL,TRUE,,,,,,,123,cavall,Catalan,Sounds/cat_cavall.mp3,2020-06-17_16h10.50.022,TranslationElicitation_spa,3.2.4,Win32,60,5ede17651b8bce028a0853b3,,1,0,80,18,1,79
,,,,,,,,,,,,,,,,,,,,,,,,,,,,,,,,,,,o,3.845000029,CABLLO,TRUE,,,,,,,123,cavall,Catalan,Sounds/cat_cavall.mp3,2020-06-17_16h10.50.022,TranslationElicitation_spa,3.2.4,Win32,60,5ede17651b8bce028a0853b3,,1,0,80,18,1,79
,,,,,,,,,,,,,,,,,,,,,,,,,,,,,,,,,,,backspace,4.413000107,CABL,TRUE,,,,,,,123,cavall,Catalan,Sounds/cat_cavall.mp3,2020-06-17_16h10.50.022,TranslationElicitation_spa,3.2.4,Win32,60,5ede17651b8bce028a0853b3,,1,0,80,18,1,79
,,,,,,,,,,,,,,,,,,,,,,,,,,,,,,,,,,,backspace,4.562000036,CA,TRUE,,,,,,,123,cavall,Catalan,Sounds/cat_cavall.mp3,2020-06-17_16h10.50.022,TranslationElicitation_spa,3.2.4,Win32,60,5ede17651b8bce028a0853b3,,1,0,80,18,1,79
,,,,,,,,,,,,,,,,,,,,,,,,,,,,,,,,,,,backspace,4.726999998,,TRUE,,,,,,,123,cavall,Catalan,Sounds/cat_cavall.mp3,2020-06-17_16h10.50.022,TranslationElicitation_spa,3.2.4,Win32,60,5ede17651b8bce028a0853b3,,1,0,80,18,1,79
,,,,,,,,,,,,,,,,,,,,,,,,,,,,,,,,,,,a,4.884000063,A,TRUE,,,,,,,123,cavall,Catalan,Sounds/cat_cavall.mp3,2020-06-17_16h10.50.022,TranslationElicitation_spa,3.2.4,Win32,60,5ede17651b8bce028a0853b3,,1,0,80,18,1,79
,,,,,,,,,,,,,,,,,,,,,,,,,,,,,,,,,,,backspace,5.588999987,,TRUE,,,,,,,123,cavall,Catalan,Sounds/cat_cavall.mp3,2020-06-17_16h10.50.022,TranslationElicitation_spa,3.2.4,Win32,60,5ede17651b8bce028a0853b3,,1,0,80,18,1,79
,,,,,,,,,,,,,,,,,,,,,,,,,,,,,,,,,,,backspace,5.74000001,,TRUE,,,,,,,123,cavall,Catalan,Sounds/cat_cavall.mp3,2020-06-17_16h10.50.022,TranslationElicitation_spa,3.2.4,Win32,60,5ede17651b8bce028a0853b3,,1,0,80,18,1,79
,,,,,,,,,,,,,,,,,,,,,,,,,,,,,,,,,,,c,5.989000082,C,TRUE,,,,,,,123,cavall,Catalan,Sounds/cat_cavall.mp3,2020-06-17_16h10.50.022,TranslationElicitation_spa,3.2.4,Win32,60,5ede17651b8bce028a0853b3,,1,0,80,18,1,79
,,,,,,,,,,,,,,,,,,,,,,,,,,,,,,,,,,,a,6.190999985,CA,TRUE,,,,,,,123,cavall,Catalan,Sounds/cat_cavall.mp3,2020-06-17_16h10.50.022,TranslationElicitation_spa,3.2.4,Win32,60,5ede17651b8bce028a0853b3,,1,0,80,18,1,79
,,,,,,,,,,,,,,,,,,,,,,,,,,,,,,,,,,,b,6.342000008,CAB,TRUE,,,,,,,123,cavall,Catalan,Sounds/cat_cavall.mp3,2020-06-17_16h10.50.022,TranslationElicitation_spa,3.2.4,Win32,60,5ede17651b8bce028a0853b3,,1,0,80,18,1,79
