consentKey.keys,consentKey.rt,languageL1Key.keys,languageL1Key.rt,languageL2,languageL2OralKey.keys,languageL2OralKey.rt,languageL2WrittenKey.keys,languageL2WrittenKey.rt,languageL3OralKey.keys,languageL3OralKey.rt,languageL3WrittenKey.keys,languageL3WrittenKey.rt,languageCatalanOralKey.keys,languageCatalanOralKey.rt,languageCatalanWrittenKey.keys,languageCatalanWrittenKey.rt,languageCatalanTimeKey.keys,languageCatalanTimeKey.rt,age,demoSexKey.keys,demoSexKey.rt,demoEducationKey.keys,demoEducationKey.rt,city,demoVisionKey.keys,demoVisionKey.rt,demoLanguageKey.keys,demoLanguageKey.rt,setupLocationKey.keys,setupLocationKey.rt,setupNoiseKey.keys,setupNoiseKey.rt,instructionsKeys.keys,instructionsKeys.rt,keyPressed,keyPressTime,inputText,error,trials_practice.thisRepN,trials_practice.thisTrialN,trials_practice.thisN,trials_practice.thisIndex,trials_practice.ran,trials_practice.order,trial_id,word,test_language,soundfile,date,expName,psychopyVersion,OS,frameRate,participant,trialOffset,trials.thisRepN,trials.thisTrialN,trials.thisN,trials.thisIndex,trials.ran,trials.order
space,4.64800024,e,11.30500031,,3,9.670000076,3,12.89300013,,,,,2,16.59800029,1,6.044000149,1,8.111000061,25,m,3.079000235,5,27.2650001,MURCIA,n,2.692000151,n,2.35400033,1,3.059000254,2,7.402000189,space,20.46399999,p,5.169000149,P,FALSE,1,0,5,3,1,4,167,pingui,Catalan,Sounds/cat_pingui.mp3,2020-06-12_12h49.16.035,TranslationElicitation_spa,3.2.4,Win32,60,5ede212260122c03b3a4c676,,,,,,,
,,,,,,,,,,,,,,,,,,,,,,,,,,,,,,,,,,,i,6.085000038,PI,FALSE,1,0,5,3,1,4,167,pingui,Catalan,Sounds/cat_pingui.mp3,2020-06-12_12h49.16.035,TranslationElicitation_spa,3.2.4,Win32,60,5ede212260122c03b3a4c676,,,,,,,
,,,,,,,,,,,,,,,,,,,,,,,,,,,,,,,,,,,n,6.617000103,PIN,FALSE,1,0,5,3,1,4,167,pingui,Catalan,Sounds/cat_pingui.mp3,2020-06-12_12h49.16.035,TranslationElicitation_spa,3.2.4,Win32,60,5ede212260122c03b3a4c676,,,,,,,
,,,,,,,,,,,,,,,,,,,,,,,,,,,,,,,,,,,g,7.117000103,PING,FALSE,1,0,5,3,1,4,167,pingui,Catalan,Sounds/cat_pingui.mp3,2020-06-12_12h49.16.035,TranslationElicitation_spa,3.2.4,Win32,60,5ede212260122c03b3a4c676,,,,,,,
,,,,,,,,,,,,,,,,,,,,,,,,,,,,,,,,,,,u,7.350000143,PINGU,FALSE,1,0,5,3,1,4,167,pingui,Catalan,Sounds/cat_pingui.mp3,2020-06-12_12h49.16.035,TranslationElicitation_spa,3.2.4,Win32,60,5ede212260122c03b3a4c676,,,,,,,
,,,,,,,,,,,,,,,,,,,,,,,,,,,,,,,,,,,i,7.48300004,PINGUI,FALSE,1,0,5,3,1,4,167,pingui,Catalan,Sounds/cat_pingui.mp3,2020-06-12_12h49.16.035,TranslationElicitation_spa,3.2.4,Win32,60,5ede212260122c03b3a4c676,,,,,,,
,,,,,,,,,,,,,,,,,,,,,,,,,,,,,,,,,,,n,7.766000032,PINGUIN,FALSE,1,0,5,3,1,4,167,pingui,Catalan,Sounds/cat_pingui.mp3,2020-06-12_12h49.16.035,TranslationElicitation_spa,3.2.4,Win32,60,5ede212260122c03b3a4c676,,,,,,,
,,,,,,,,,,,,,,,,,,,,,,,,,,,,,,,,,,,o,8.664999962,PINGUINO,FALSE,1,0,5,3,1,4,167,pingui,Catalan,Sounds/cat_pingui.mp3,2020-06-12_12h49.16.035,TranslationElicitation_spa,3.2.4,Win32,60,5ede212260122c03b3a4c676,,,,,,,
,,,,,,,,,,,,,,,,,,,,,,,,,,,,,,,,,,,return,9.197999954,,FALSE,1,0,5,3,1,4,167,pingui,Catalan,Sounds/cat_pingui.mp3,2020-06-12_12h49.16.035,TranslationElicitation_spa,3.2.4,Win32,60,5ede212260122c03b3a4c676,9.197999954,,,,,,
,,,,,,,,,,,,,,,,,,,,,,,,,,,,,,,,,,,,,,,1,0,5,3,1,4,167,pingui,Catalan,Sounds/cat_pingui.mp3,2020-06-12_12h49.16.035,TranslationElicitation_spa,3.2.4,Win32,60,5ede212260122c03b3a4c676,,,,,,,
,,,,,,,,,,,,,,,,,,,,,,,,,,,,,,,,,,,a,2.736999989,A,FALSE,1,0,5,0,1,4,109,arbre,Catalan,Sounds/cat_arbre.mp3,2020-06-12_12h49.16.035,TranslationElicitation_spa,3.2.4,Win32,60,5ede212260122c03b3a4c676,,,,,,,
,,,,,,,,,,,,,,,,,,,,,,,,,,,,,,,,,,,r,3.019999981,AR,FALSE,1,0,5,0,1,4,109,arbre,Catalan,Sounds/cat_arbre.mp3,2020-06-12_12h49.16.035,TranslationElicitation_spa,3.2.4,Win32,60,5ede212260122c03b3a4c676,,,,,,,
,,,,,,,,,,,,,,,,,,,,,,,,,,,,,,,,,,,b,3.503000021,ARB,FALSE,1,0,5,0,1,4,109,arbre,Catalan,Sounds/cat_arbre.mp3,2020-06-12_12h49.16.035,TranslationElicitation_spa,3.2.4,Win32,60,5ede212260122c03b3a4c676,,,,,,,
,,,,,,,,,,,,,,,,,,,,,,,,,,,,,,,,,,,o,3.652000189,ARBO,FALSE,1,0,5,0,1,4,109,arbre,Catalan,Sounds/cat_arbre.mp3,2020-06-12_12h49.16.035,TranslationElicitation_spa,3.2.4,Win32,60,5ede212260122c03b3a4c676,,,,,,,
,,,,,,,,,,,,,,,,,,,,,,,,,,,,,,,,,,,l,3.902000189,ARBOL,FALSE,1,0,5,0,1,4,109,arbre,Catalan,Sounds/cat_arbre.mp3,2020-06-12_12h49.16.035,TranslationElicitation_spa,3.2.4,Win32,60,5ede212260122c03b3a4c676,,,,,,,
,,,,,,,,,,,,,,,,,,,,,,,,,,,,,,,,,,,return,4.768000126,,FALSE,1,0,5,0,1,4,109,arbre,Catalan,Sounds/cat_arbre.mp3,2020-06-12_12h49.16.035,TranslationElicitation_spa,3.2.4,Win32,60,5ede212260122c03b3a4c676,4.768000126,,,,,,
,,,,,,,,,,,,,,,,,,,,,,,,,,,,,,,,,,,,,,,1,0,5,0,1,4,109,arbre,Catalan,Sounds/cat_arbre.mp3,2020-06-12_12h49.16.035,TranslationElicitation_spa,3.2.4,Win32,60,5ede212260122c03b3a4c676,,,,,,,
,,,,,,,,,,,,,,,,,,,,,,,,,,,,,,,,,,,c,2.728000164,C,FALSE,1,0,5,1,1,4,147,jaqueta,Catalan,Sounds/cat_jaqueta.mp3,2020-06-12_12h49.16.035,TranslationElicitation_spa,3.2.4,Win32,60,5ede212260122c03b3a4c676,,,,,,,
,,,,,,,,,,,,,,,,,,,,,,,,,,,,,,,,,,,h,3.17200017,CH,FALSE,1,0,5,1,1,4,147,jaqueta,Catalan,Sounds/cat_jaqueta.mp3,2020-06-12_12h49.16.035,TranslationElicitation_spa,3.2.4,Win32,60,5ede212260122c03b3a4c676,,,,,,,
,,,,,,,,,,,,,,,,,,,,,,,,,,,,,,,,,,,a,3.311000109,CHA,FALSE,1,0,5,1,1,4,147,jaqueta,Catalan,Sounds/cat_jaqueta.mp3,2020-06-12_12h49.16.035,TranslationElicitation_spa,3.2.4,Win32,60,5ede212260122c03b3a4c676,,,,,,,
,,,,,,,,,,,,,,,,,,,,,,,,,,,,,,,,,,,q,3.644000053,CHAQ,FALSE,1,0,5,1,1,4,147,jaqueta,Catalan,Sounds/cat_jaqueta.mp3,2020-06-12_12h49.16.035,TranslationElicitation_spa,3.2.4,Win32,60,5ede212260122c03b3a4c676,,,,,,,
,,,,,,,,,,,,,,,,,,,,,,,,,,,,,,,,,,,u,3.75999999,CHAQU,FALSE,1,0,5,1,1,4,147,jaqueta,Catalan,Sounds/cat_jaqueta.mp3,2020-06-12_12h49.16.035,TranslationElicitation_spa,3.2.4,Win32,60,5ede212260122c03b3a4c676,,,,,,,
,,,,,,,,,,,,,,,,,,,,,,,,,,,,,,,,,,,e,3.910000086,CHAQUE,FALSE,1,0,5,1,1,4,147,jaqueta,Catalan,Sounds/cat_jaqueta.mp3,2020-06-12_12h49.16.035,TranslationElicitation_spa,3.2.4,Win32,60,5ede212260122c03b3a4c676,,,,,,,
,,,,,,,,,,,,,,,,,,,,,,,,,,,,,,,,,,,t,4.110000134,CHAQUET,FALSE,1,0,5,1,1,4,147,jaqueta,Catalan,Sounds/cat_jaqueta.mp3,2020-06-12_12h49.16.035,TranslationElicitation_spa,3.2.4,Win32,60,5ede212260122c03b3a4c676,,,,,,,
,,,,,,,,,,,,,,,,,,,,,,,,,,,,,,,,,,,a,4.393000126,CHAQUETA,FALSE,1,0,5,1,1,4,147,jaqueta,Catalan,Sounds/cat_jaqueta.mp3,2020-06-12_12h49.16.035,TranslationElicitation_spa,3.2.4,Win32,60,5ede212260122c03b3a4c676,,,,,,,
,,,,,,,,,,,,,,,,,,,,,,,,,,,,,,,,,,,return,6.474000216,,FALSE,1,0,5,1,1,4,147,jaqueta,Catalan,Sounds/cat_jaqueta.mp3,2020-06-12_12h49.16.035,TranslationElicitation_spa,3.2.4,Win32,60,5ede212260122c03b3a4c676,6.474000216,,,,,,
,,,,,,,,,,,,,,,,,,,,,,,,,,,,,,,,,,,,,,,1,0,5,1,1,4,147,jaqueta,Catalan,Sounds/cat_jaqueta.mp3,2020-06-12_12h49.16.035,TranslationElicitation_spa,3.2.4,Win32,60,5ede212260122c03b3a4c676,,,,,,,
,,,,,,,,,,,,,,,,,,,,,,,,,,,,,,,,,,,h,3.819000006,H,FALSE,1,0,5,2,1,4,159,onada,Catalan,Sounds/cat_onada.mp3,2020-06-12_12h49.16.035,TranslationElicitation_spa,3.2.4,Win32,60,5ede212260122c03b3a4c676,,,,,,,
,,,,,,,,,,,,,,,,,,,,,,,,,,,,,,,,,,,a,3.90199995,HA,FALSE,1,0,5,2,1,4,159,onada,Catalan,Sounds/cat_onada.mp3,2020-06-12_12h49.16.035,TranslationElicitation_spa,3.2.4,Win32,60,5ede212260122c03b3a4c676,,,,,,,
,,,,,,,,,,,,,,,,,,,,,,,,,,,,,,,,,,,d,4.085999966,HAD,FALSE,1,0,5,2,1,4,159,onada,Catalan,Sounds/cat_onada.mp3,2020-06-12_12h49.16.035,TranslationElicitation_spa,3.2.4,Win32,60,5ede212260122c03b3a4c676,,,,,,,
,,,,,,,,,,,,,,,,,,,,,,,,,,,,,,,,,,,a,4.184999943,HADA,FALSE,1,0,5,2,1,4,159,onada,Catalan,Sounds/cat_onada.mp3,2020-06-12_12h49.16.035,TranslationElicitation_spa,3.2.4,Win32,60,5ede212260122c03b3a4c676,,,,,,,
,,,,,,,,,,,,,,,,,,,,,,,,,,,,,,,,,,,return,4.717999935,,FALSE,1,0,5,2,1,4,159,onada,Catalan,Sounds/cat_onada.mp3,2020-06-12_12h49.16.035,TranslationElicitation_spa,3.2.4,Win32,60,5ede212260122c03b3a4c676,4.717999935,,,,,,
,,,,,,,,,,,,,,,,,,,,,,,,,,,,,,,,,,,,,,,1,0,5,2,1,4,159,onada,Catalan,Sounds/cat_onada.mp3,2020-06-12_12h49.16.035,TranslationElicitation_spa,3.2.4,Win32,60,5ede212260122c03b3a4c676,,,,,,,
,,,,,,,,,,,,,,,,,,,,,,,,,,,,,,,,,,,t,2.180000067,T,FALSE,1,0,5,4,1,4,179,tigre,Catalan,Sounds/cat_tigre.mp3,2020-06-12_12h49.16.035,TranslationElicitation_spa,3.2.4,Win32,60,5ede212260122c03b3a4c676,,,,,,,
,,,,,,,,,,,,,,,,,,,,,,,,,,,,,,,,,,,i,2.345999956,TI,FALSE,1,0,5,4,1,4,179,tigre,Catalan,Sounds/cat_tigre.mp3,2020-06-12_12h49.16.035,TranslationElicitation_spa,3.2.4,Win32,60,5ede212260122c03b3a4c676,,,,,,,
,,,,,,,,,,,,,,,,,,,,,,,,,,,,,,,,,,,g,2.828000069,TIG,FALSE,1,0,5,4,1,4,179,tigre,Catalan,Sounds/cat_tigre.mp3,2020-06-12_12h49.16.035,TranslationElicitation_spa,3.2.4,Win32,60,5ede212260122c03b3a4c676,,,,,,,
,,,,,,,,,,,,,,,,,,,,,,,,,,,,,,,,,,,r,3.078000069,TIGR,FALSE,1,0,5,4,1,4,179,tigre,Catalan,Sounds/cat_tigre.mp3,2020-06-12_12h49.16.035,TranslationElicitation_spa,3.2.4,Win32,60,5ede212260122c03b3a4c676,,,,,,,
,,,,,,,,,,,,,,,,,,,,,,,,,,,,,,,,,,,e,3.128000021,TIGRE,FALSE,1,0,5,4,1,4,179,tigre,Catalan,Sounds/cat_tigre.mp3,2020-06-12_12h49.16.035,TranslationElicitation_spa,3.2.4,Win32,60,5ede212260122c03b3a4c676,,,,,,,
,,,,,,,,,,,,,,,,,,,,,,,,,,,,,,,,,,,return,3.444000006,,FALSE,1,0,5,4,1,4,179,tigre,Catalan,Sounds/cat_tigre.mp3,2020-06-12_12h49.16.035,TranslationElicitation_spa,3.2.4,Win32,60,5ede212260122c03b3a4c676,3.444000006,,,,,,
,,,,,,,,,,,,,,,,,,,,,,,,,,,,,,,,,,,,,,,1,0,5,4,1,4,179,tigre,Catalan,Sounds/cat_tigre.mp3,2020-06-12_12h49.16.035,TranslationElicitation_spa,3.2.4,Win32,60,5ede212260122c03b3a4c676,,,,,,,
,,,,,,,,,,,,,,,,,,,,,,,,,,,,,,,,,,,s,1.846999884,S,FALSE,,,,,,,177,sol,Catalan,Sounds/cat_sol.mp3,2020-06-12_12h49.16.035,TranslationElicitation_spa,3.2.4,Win32,60,5ede212260122c03b3a4c676,,1,0,80,69,1,79
,,,,,,,,,,,,,,,,,,,,,,,,,,,,,,,,,,,o,1.980999947,SO,FALSE,,,,,,,177,sol,Catalan,Sounds/cat_sol.mp3,2020-06-12_12h49.16.035,TranslationElicitation_spa,3.2.4,Win32,60,5ede212260122c03b3a4c676,,1,0,80,69,1,79
,,,,,,,,,,,,,,,,,,,,,,,,,,,,,,,,,,,l,2.212999821,SOL,FALSE,,,,,,,177,sol,Catalan,Sounds/cat_sol.mp3,2020-06-12_12h49.16.035,TranslationElicitation_spa,3.2.4,Win32,60,5ede212260122c03b3a4c676,,1,0,80,69,1,79
,,,,,,,,,,,,,,,,,,,,,,,,,,,,,,,,,,,return,3.194999933,,FALSE,,,,,,,177,sol,Catalan,Sounds/cat_sol.mp3,2020-06-12_12h49.16.035,TranslationElicitation_spa,3.2.4,Win32,60,5ede212260122c03b3a4c676,3.194999933,1,0,80,69,1,79
,,,,,,,,,,,,,,,,,,,,,,,,,,,,,,,,,,,,,,,,,,,,,177,sol,Catalan,Sounds/cat_sol.mp3,2020-06-12_12h49.16.035,TranslationElicitation_spa,3.2.4,Win32,60,5ede212260122c03b3a4c676,,1,0,80,69,1,79
,,,,,,,,,,,,,,,,,,,,,,,,,,,,,,,,,,,p,4.67599988,P,FALSE,,,,,,,171,pollastre,Catalan,Sounds/cat_pollastre.mp3,2020-06-12_12h49.16.035,TranslationElicitation_spa,3.2.4,Win32,60,5ede212260122c03b3a4c676,,1,0,80,63,1,79
,,,,,,,,,,,,,,,,,,,,,,,,,,,,,,,,,,,a,4.79399991,PA,FALSE,,,,,,,171,pollastre,Catalan,Sounds/cat_pollastre.mp3,2020-06-12_12h49.16.035,TranslationElicitation_spa,3.2.4,Win32,60,5ede212260122c03b3a4c676,,1,0,80,63,1,79
,,,,,,,,,,,,,,,,,,,,,,,,,,,,,,,,,,,l,4.975999832,PAL,FALSE,,,,,,,171,pollastre,Catalan,Sounds/cat_pollastre.mp3,2020-06-12_12h49.16.035,TranslationElicitation_spa,3.2.4,Win32,60,5ede212260122c03b3a4c676,,1,0,80,63,1,79
,,,,,,,,,,,,,,,,,,,,,,,,,,,,,,,,,,,e,5.341999769,PALE,FALSE,,,,,,,171,pollastre,Catalan,Sounds/cat_pollastre.mp3,2020-06-12_12h49.16.035,TranslationElicitation_spa,3.2.4,Win32,60,5ede212260122c03b3a4c676,,1,0,80,63,1,79
,,,,,,,,,,,,,,,,,,,,,,,,,,,,,,,,,,,s,5.657999992,PALES,FALSE,,,,,,,171,pollastre,Catalan,Sounds/cat_pollastre.mp3,2020-06-12_12h49.16.035,TranslationElicitation_spa,3.2.4,Win32,60,5ede212260122c03b3a4c676,,1,0,80,63,1,79
,,,,,,,,,,,,,,,,,,,,,,,,,,,,,,,,,,,t,5.890999794,PALEST,FALSE,,,,,,,171,pollastre,Catalan,Sounds/cat_pollastre.mp3,2020-06-12_12h49.16.035,TranslationElicitation_spa,3.2.4,Win32,60,5ede212260122c03b3a4c676,,1,0,80,63,1,79
,,,,,,,,,,,,,,,,,,,,,,,,,,,,,,,,,,,r,5.940999985,PALESTR,FALSE,,,,,,,171,pollastre,Catalan,Sounds/cat_pollastre.mp3,2020-06-12_12h49.16.035,TranslationElicitation_spa,3.2.4,Win32,60,5ede212260122c03b3a4c676,,1,0,80,63,1,79
,,,,,,,,,,,,,,,,,,,,,,,,,,,,,,,,,,,a,6.257999897,PALESTRA,FALSE,,,,,,,171,pollastre,Catalan,Sounds/cat_pollastre.mp3,2020-06-12_12h49.16.035,TranslationElicitation_spa,3.2.4,Win32,60,5ede212260122c03b3a4c676,,1,0,80,63,1,79
,,,,,,,,,,,,,,,,,,,,,,,,,,,,,,,,,,,return,7.305999994,,FALSE,,,,,,,171,pollastre,Catalan,Sounds/cat_pollastre.mp3,2020-06-12_12h49.16.035,TranslationElicitation_spa,3.2.4,Win32,60,5ede212260122c03b3a4c676,7.305999994,1,0,80,63,1,79
,,,,,,,,,,,,,,,,,,,,,,,,,,,,,,,,,,,,,,,,,,,,,171,pollastre,Catalan,Sounds/cat_pollastre.mp3,2020-06-12_12h49.16.035,TranslationElicitation_spa,3.2.4,Win32,60,5ede212260122c03b3a4c676,,1,0,80,63,1,79
,,,,,,,,,,,,,,,,,,,,,,,,,,,,,,,,,,,f,2.405999899,F,FALSE,,,,,,,137,fulla,Catalan,Sounds/cat_fulla.mp3,2020-06-12_12h49.16.035,TranslationElicitation_spa,3.2.4,Win32,60,5ede212260122c03b3a4c676,,1,0,80,32,1,79
,,,,,,,,,,,,,,,,,,,,,,,,,,,,,,,,,,,u,2.555999994,FU,FALSE,,,,,,,137,fulla,Catalan,Sounds/cat_fulla.mp3,2020-06-12_12h49.16.035,TranslationElicitation_spa,3.2.4,Win32,60,5ede212260122c03b3a4c676,,1,0,80,32,1,79
,,,,,,,,,,,,,,,,,,,,,,,,,,,,,,,,,,,r,2.68900013,FUR,FALSE,,,,,,,137,fulla,Catalan,Sounds/cat_fulla.mp3,2020-06-12_12h49.16.035,TranslationElicitation_spa,3.2.4,Win32,60,5ede212260122c03b3a4c676,,1,0,80,32,1,79
,,,,,,,,,,,,,,,,,,,,,,,,,,,,,,,,,,,i,2.838999987,FURI,FALSE,,,,,,,137,fulla,Catalan,Sounds/cat_fulla.mp3,2020-06-12_12h49.16.035,TranslationElicitation_spa,3.2.4,Win32,60,5ede212260122c03b3a4c676,,1,0,80,32,1,79
,,,,,,,,,,,,,,,,,,,,,,,,,,,,,,,,,,,a,3.022000074,FURIA,FALSE,,,,,,,137,fulla,Catalan,Sounds/cat_fulla.mp3,2020-06-12_12h49.16.035,TranslationElicitation_spa,3.2.4,Win32,60,5ede212260122c03b3a4c676,,1,0,80,32,1,79
,,,,,,,,,,,,,,,,,,,,,,,,,,,,,,,,,,,return,3.487999916,,FALSE,,,,,,,137,fulla,Catalan,Sounds/cat_fulla.mp3,2020-06-12_12h49.16.035,TranslationElicitation_spa,3.2.4,Win32,60,5ede212260122c03b3a4c676,3.487999916,1,0,80,32,1,79
,,,,,,,,,,,,,,,,,,,,,,,,,,,,,,,,,,,,,,,,,,,,,137,fulla,Catalan,Sounds/cat_fulla.mp3,2020-06-12_12h49.16.035,TranslationElicitation_spa,3.2.4,Win32,60,5ede212260122c03b3a4c676,,1,0,80,32,1,79
,,,,,,,,,,,,,,,,,,,,,,,,,,,,,,,,,,,b,1.779000044,B,FALSE,,,,,,,106,aixeta,Catalan,Sounds/cat_aixeta.mp3,2020-06-12_12h49.16.035,TranslationElicitation_spa,3.2.4,Win32,60,5ede212260122c03b3a4c676,,1,0,80,2,1,79
,,,,,,,,,,,,,,,,,,,,,,,,,,,,,,,,,,,a,2.046000004,BA,FALSE,,,,,,,106,aixeta,Catalan,Sounds/cat_aixeta.mp3,2020-06-12_12h49.16.035,TranslationElicitation_spa,3.2.4,Win32,60,5ede212260122c03b3a4c676,,1,0,80,2,1,79
,,,,,,,,,,,,,,,,,,,,,,,,,,,,,,,,,,,c,2.245000124,BAC,FALSE,,,,,,,106,aixeta,Catalan,Sounds/cat_aixeta.mp3,2020-06-12_12h49.16.035,TranslationElicitation_spa,3.2.4,Win32,60,5ede212260122c03b3a4c676,,1,0,80,2,1,79
,,,,,,,,,,,,,,,,,,,,,,,,,,,,,,,,,,,h,2.361999989,BACH,FALSE,,,,,,,106,aixeta,Catalan,Sounds/cat_aixeta.mp3,2020-06-12_12h49.16.035,TranslationElicitation_spa,3.2.4,Win32,60,5ede212260122c03b3a4c676,,1,0,80,2,1,79
,,,,,,,,,,,,,,,,,,,,,,,,,,,,,,,,,,,a,2.477999926,BACHA,FALSE,,,,,,,106,aixeta,Catalan,Sounds/cat_aixeta.mp3,2020-06-12_12h49.16.035,TranslationElicitation_spa,3.2.4,Win32,60,5ede212260122c03b3a4c676,,1,0,80,2,1,79
,,,,,,,,,,,,,,,,,,,,,,,,,,,,,,,,,,,t,2.845000029,BACHAT,FALSE,,,,,,,106,aixeta,Catalan,Sounds/cat_aixeta.mp3,2020-06-12_12h49.16.035,TranslationElicitation_spa,3.2.4,Win32,60,5ede212260122c03b3a4c676,,1,0,80,2,1,79
,,,,,,,,,,,,,,,,,,,,,,,,,,,,,,,,,,,a,3.177999973,BACHATA,FALSE,,,,,,,106,aixeta,Catalan,Sounds/cat_aixeta.mp3,2020-06-12_12h49.16.035,TranslationElicitation_spa,3.2.4,Win32,60,5ede212260122c03b3a4c676,,1,0,80,2,1,79
,,,,,,,,,,,,,,,,,,,,,,,,,,,,,,,,,,,return,4.193000078,,FALSE,,,,,,,106,aixeta,Catalan,Sounds/cat_aixeta.mp3,2020-06-12_12h49.16.035,TranslationElicitation_spa,3.2.4,Win32,60,5ede212260122c03b3a4c676,4.193000078,1,0,80,2,1,79
,,,,,,,,,,,,,,,,,,,,,,,,,,,,,,,,,,,,,,,,,,,,,106,aixeta,Catalan,Sounds/cat_aixeta.mp3,2020-06-12_12h49.16.035,TranslationElicitation_spa,3.2.4,Win32,60,5ede212260122c03b3a4c676,,1,0,80,2,1,79
,,,,,,,,,,,,,,,,,,,,,,,,,,,,,,,,,,,c,1.731999874,C,FALSE,,,,,,,127,cotxe,Catalan,Sounds/cat_cotxe.mp3,2020-06-12_12h49.16.035,TranslationElicitation_spa,3.2.4,Win32,60,5ede212260122c03b3a4c676,,1,0,80,22,1,79
,,,,,,,,,,,,,,,,,,,,,,,,,,,,,,,,,,,o,1.914999962,CO,FALSE,,,,,,,127,cotxe,Catalan,Sounds/cat_cotxe.mp3,2020-06-12_12h49.16.035,TranslationElicitation_spa,3.2.4,Win32,60,5ede212260122c03b3a4c676,,1,0,80,22,1,79
,,,,,,,,,,,,,,,,,,,,,,,,,,,,,,,,,,,c,2.180999994,COC,FALSE,,,,,,,127,cotxe,Catalan,Sounds/cat_cotxe.mp3,2020-06-12_12h49.16.035,TranslationElicitation_spa,3.2.4,Win32,60,5ede212260122c03b3a4c676,,1,0,80,22,1,79
,,,,,,,,,,,,,,,,,,,,,,,,,,,,,,,,,,,h,2.463999987,COCH,FALSE,,,,,,,127,cotxe,Catalan,Sounds/cat_cotxe.mp3,2020-06-12_12h49.16.035,TranslationElicitation_spa,3.2.4,Win32,60,5ede212260122c03b3a4c676,,1,0,80,22,1,79
,,,,,,,,,,,,,,,,,,,,,,,,,,,,,,,,,,,e,2.582000017,COCHE,FALSE,,,,,,,127,cotxe,Catalan,Sounds/cat_cotxe.mp3,2020-06-12_12h49.16.035,TranslationElicitation_spa,3.2.4,Win32,60,5ede212260122c03b3a4c676,,1,0,80,22,1,79
,,,,,,,,,,,,,,,,,,,,,,,,,,,,,,,,,,,return,2.862999916,,FALSE,,,,,,,127,cotxe,Catalan,Sounds/cat_cotxe.mp3,2020-06-12_12h49.16.035,TranslationElicitation_spa,3.2.4,Win32,60,5ede212260122c03b3a4c676,2.862999916,1,0,80,22,1,79
,,,,,,,,,,,,,,,,,,,,,,,,,,,,,,,,,,,,,,,,,,,,,127,cotxe,Catalan,Sounds/cat_cotxe.mp3,2020-06-12_12h49.16.035,TranslationElicitation_spa,3.2.4,Win32,60,5ede212260122c03b3a4c676,,1,0,80,22,1,79
,,,,,,,,,,,,,,,,,,,,,,,,,,,,,,,,,,,r,1.996000051,R,FALSE,,,,,,,175,raspall,Catalan,Sounds/cat_raspall.mp3,2020-06-12_12h49.16.035,TranslationElicitation_spa,3.2.4,Win32,60,5ede212260122c03b3a4c676,,1,0,80,67,1,79
,,,,,,,,,,,,,,,,,,,,,,,,,,,,,,,,,,,a,2.295000076,RA,FALSE,,,,,,,175,raspall,Catalan,Sounds/cat_raspall.mp3,2020-06-12_12h49.16.035,TranslationElicitation_spa,3.2.4,Win32,60,5ede212260122c03b3a4c676,,1,0,80,67,1,79
,,,,,,,,,,,,,,,,,,,,,,,,,,,,,,,,,,,s,2.361999989,RAS,FALSE,,,,,,,175,raspall,Catalan,Sounds/cat_raspall.mp3,2020-06-12_12h49.16.035,TranslationElicitation_spa,3.2.4,Win32,60,5ede212260122c03b3a4c676,,1,0,80,67,1,79
,,,,,,,,,,,,,,,,,,,,,,,,,,,,,,,,,,,p,3.062000036,RASP,FALSE,,,,,,,175,raspall,Catalan,Sounds/cat_raspall.mp3,2020-06-12_12h49.16.035,TranslationElicitation_spa,3.2.4,Win32,60,5ede212260122c03b3a4c676,,1,0,80,67,1,79
,,,,,,,,,,,,,,,,,,,,,,,,,,,,,,,,,,,a,3.212000132,RASPA,FALSE,,,,,,,175,raspall,Catalan,Sounds/cat_raspall.mp3,2020-06-12_12h49.16.035,TranslationElicitation_spa,3.2.4,Win32,60,5ede212260122c03b3a4c676,,1,0,80,67,1,79
,,,,,,,,,,,,,,,,,,,,,,,,,,,,,,,,,,,r,3.411000013,RASPAR,FALSE,,,,,,,175,raspall,Catalan,Sounds/cat_raspall.mp3,2020-06-12_12h49.16.035,TranslationElicitation_spa,3.2.4,Win32,60,5ede212260122c03b3a4c676,,1,0,80,67,1,79
,,,,,,,,,,,,,,,,,,,,,,,,,,,,,,,,,,,return,4.111000061,,FALSE,,,,,,,175,raspall,Catalan,Sounds/cat_raspall.mp3,2020-06-12_12h49.16.035,TranslationElicitation_spa,3.2.4,Win32,60,5ede212260122c03b3a4c676,4.111000061,1,0,80,67,1,79
,,,,,,,,,,,,,,,,,,,,,,,,,,,,,,,,,,,,,,,,,,,,,175,raspall,Catalan,Sounds/cat_raspall.mp3,2020-06-12_12h49.16.035,TranslationElicitation_spa,3.2.4,Win32,60,5ede212260122c03b3a4c676,,1,0,80,67,1,79
,,,,,,,,,,,,,,,,,,,,,,,,,,,,,,,,,,,p,1.880000114,P,FALSE,,,,,,,168,planta,Catalan,Sounds/cat_planta.mp3,2020-06-12_12h49.16.035,TranslationElicitation_spa,3.2.4,Win32,60,5ede212260122c03b3a4c676,,1,0,80,60,1,79
,,,,,,,,,,,,,,,,,,,,,,,,,,,,,,,,,,,l,2.078999996,PL,FALSE,,,,,,,168,planta,Catalan,Sounds/cat_planta.mp3,2020-06-12_12h49.16.035,TranslationElicitation_spa,3.2.4,Win32,60,5ede212260122c03b3a4c676,,1,0,80,60,1,79
,,,,,,,,,,,,,,,,,,,,,,,,,,,,,,,,,,,a,2.213000059,PLA,FALSE,,,,,,,168,planta,Catalan,Sounds/cat_planta.mp3,2020-06-12_12h49.16.035,TranslationElicitation_spa,3.2.4,Win32,60,5ede212260122c03b3a4c676,,1,0,80,60,1,79
,,,,,,,,,,,,,,,,,,,,,,,,,,,,,,,,,,,n,2.379000187,PLAN,FALSE,,,,,,,168,planta,Catalan,Sounds/cat_planta.mp3,2020-06-12_12h49.16.035,TranslationElicitation_spa,3.2.4,Win32,60,5ede212260122c03b3a4c676,,1,0,80,60,1,79
,,,,,,,,,,,,,,,,,,,,,,,,,,,,,,,,,,,t,2.562000036,PLANT,FALSE,,,,,,,168,planta,Catalan,Sounds/cat_planta.mp3,2020-06-12_12h49.16.035,TranslationElicitation_spa,3.2.4,Win32,60,5ede212260122c03b3a4c676,,1,0,80,60,1,79
,,,,,,,,,,,,,,,,,,,,,,,,,,,,,,,,,,,a,2.834000111,PLANTA,FALSE,,,,,,,168,planta,Catalan,Sounds/cat_planta.mp3,2020-06-12_12h49.16.035,TranslationElicitation_spa,3.2.4,Win32,60,5ede212260122c03b3a4c676,,1,0,80,60,1,79
,,,,,,,,,,,,,,,,,,,,,,,,,,,,,,,,,,,return,3.194000006,,FALSE,,,,,,,168,planta,Catalan,Sounds/cat_planta.mp3,2020-06-12_12h49.16.035,TranslationElicitation_spa,3.2.4,Win32,60,5ede212260122c03b3a4c676,3.194000006,1,0,80,60,1,79
,,,,,,,,,,,,,,,,,,,,,,,,,,,,,,,,,,,,,,,,,,,,,168,planta,Catalan,Sounds/cat_planta.mp3,2020-06-12_12h49.16.035,TranslationElicitation_spa,3.2.4,Win32,60,5ede212260122c03b3a4c676,,1,0,80,60,1,79
,,,,,,,,,,,,,,,,,,,,,,,,,,,,,,,,,,,a,1.564999819,A,FALSE,,,,,,,105,aigua,Catalan,Sounds/cat_aigua.mp3,2020-06-12_12h49.16.035,TranslationElicitation_spa,3.2.4,Win32,60,5ede212260122c03b3a4c676,,1,0,80,1,1,79
,,,,,,,,,,,,,,,,,,,,,,,,,,,,,,,,,,,g,1.813999891,AG,FALSE,,,,,,,105,aigua,Catalan,Sounds/cat_aigua.mp3,2020-06-12_12h49.16.035,TranslationElicitation_spa,3.2.4,Win32,60,5ede212260122c03b3a4c676,,1,0,80,1,1,79
,,,,,,,,,,,,,,,,,,,,,,,,,,,,,,,,,,,u,1.947000027,AGU,FALSE,,,,,,,105,aigua,Catalan,Sounds/cat_aigua.mp3,2020-06-12_12h49.16.035,TranslationElicitation_spa,3.2.4,Win32,60,5ede212260122c03b3a4c676,,1,0,80,1,1,79
,,,,,,,,,,,,,,,,,,,,,,,,,,,,,,,,,,,a,2.113999844,AGUA,FALSE,,,,,,,105,aigua,Catalan,Sounds/cat_aigua.mp3,2020-06-12_12h49.16.035,TranslationElicitation_spa,3.2.4,Win32,60,5ede212260122c03b3a4c676,,1,0,80,1,1,79
,,,,,,,,,,,,,,,,,,,,,,,,,,,,,,,,,,,return,2.345999956,,FALSE,,,,,,,105,aigua,Catalan,Sounds/cat_aigua.mp3,2020-06-12_12h49.16.035,TranslationElicitation_spa,3.2.4,Win32,60,5ede212260122c03b3a4c676,2.345999956,1,0,80,1,1,79
,,,,,,,,,,,,,,,,,,,,,,,,,,,,,,,,,,,,,,,,,,,,,105,aigua,Catalan,Sounds/cat_aigua.mp3,2020-06-12_12h49.16.035,TranslationElicitation_spa,3.2.4,Win32,60,5ede212260122c03b3a4c676,,1,0,80,1,1,79
,,,,,,,,,,,,,,,,,,,,,,,,,,,,,,,,,,,t,2.148000002,T,FALSE,,,,,,,180,tisores,Catalan,Sounds/cat_tisores.mp3,2020-06-12_12h49.16.035,TranslationElicitation_spa,3.2.4,Win32,60,5ede212260122c03b3a4c676,,1,0,80,71,1,79
,,,,,,,,,,,,,,,,,,,,,,,,,,,,,,,,,,,e,2.263999939,TE,FALSE,,,,,,,180,tisores,Catalan,Sounds/cat_tisores.mp3,2020-06-12_12h49.16.035,TranslationElicitation_spa,3.2.4,Win32,60,5ede212260122c03b3a4c676,,1,0,80,71,1,79
,,,,,,,,,,,,,,,,,,,,,,,,,,,,,,,,,,,s,2.480999947,TES,FALSE,,,,,,,180,tisores,Catalan,Sounds/cat_tisores.mp3,2020-06-12_12h49.16.035,TranslationElicitation_spa,3.2.4,Win32,60,5ede212260122c03b3a4c676,,1,0,80,71,1,79
,,,,,,,,,,,,,,,,,,,,,,,,,,,,,,,,,,,o,2.614000082,TESO,FALSE,,,,,,,180,tisores,Catalan,Sounds/cat_tisores.mp3,2020-06-12_12h49.16.035,TranslationElicitation_spa,3.2.4,Win32,60,5ede212260122c03b3a4c676,,1,0,80,71,1,79
,,,,,,,,,,,,,,,,,,,,,,,,,,,,,,,,,,,r,2.780999899,TESOR,FALSE,,,,,,,180,tisores,Catalan,Sounds/cat_tisores.mp3,2020-06-12_12h49.16.035,TranslationElicitation_spa,3.2.4,Win32,60,5ede212260122c03b3a4c676,,1,0,80,71,1,79
,,,,,,,,,,,,,,,,,,,,,,,,,,,,,,,,,,,o,2.910000086,TESORO,FALSE,,,,,,,180,tisores,Catalan,Sounds/cat_tisores.mp3,2020-06-12_12h49.16.035,TranslationElicitation_spa,3.2.4,Win32,60,5ede212260122c03b3a4c676,,1,0,80,71,1,79
,,,,,,,,,,,,,,,,,,,,,,,,,,,,,,,,,,,return,3.894999981,,FALSE,,,,,,,180,tisores,Catalan,Sounds/cat_tisores.mp3,2020-06-12_12h49.16.035,TranslationElicitation_spa,3.2.4,Win32,60,5ede212260122c03b3a4c676,3.894999981,1,0,80,71,1,79
,,,,,,,,,,,,,,,,,,,,,,,,,,,,,,,,,,,,,,,,,,,,,180,tisores,Catalan,Sounds/cat_tisores.mp3,2020-06-12_12h49.16.035,TranslationElicitation_spa,3.2.4,Win32,60,5ede212260122c03b3a4c676,,1,0,80,71,1,79
,,,,,,,,,,,,,,,,,,,,,,,,,,,,,,,,,,,a,2.229999781,A,FALSE,,,,,,,153,mico,Catalan,Sounds/cat_mico.mp3,2020-06-12_12h49.16.035,TranslationElicitation_spa,3.2.4,Win32,60,5ede212260122c03b3a4c676,,1,0,80,47,1,79
,,,,,,,,,,,,,,,,,,,,,,,,,,,,,,,,,,,m,2.378999949,AM,FALSE,,,,,,,153,mico,Catalan,Sounds/cat_mico.mp3,2020-06-12_12h49.16.035,TranslationElicitation_spa,3.2.4,Win32,60,5ede212260122c03b3a4c676,,1,0,80,47,1,79
,,,,,,,,,,,,,,,,,,,,,,,,,,,,,,,,,,,i,2.661999941,AMI,FALSE,,,,,,,153,mico,Catalan,Sounds/cat_mico.mp3,2020-06-12_12h49.16.035,TranslationElicitation_spa,3.2.4,Win32,60,5ede212260122c03b3a4c676,,1,0,80,47,1,79
,,,,,,,,,,,,,,,,,,,,,,,,,,,,,,,,,,,g,2.794999838,AMIG,FALSE,,,,,,,153,mico,Catalan,Sounds/cat_mico.mp3,2020-06-12_12h49.16.035,TranslationElicitation_spa,3.2.4,Win32,60,5ede212260122c03b3a4c676,,1,0,80,47,1,79
,,,,,,,,,,,,,,,,,,,,,,,,,,,,,,,,,,,o,2.927999973,AMIGO,FALSE,,,,,,,153,mico,Catalan,Sounds/cat_mico.mp3,2020-06-12_12h49.16.035,TranslationElicitation_spa,3.2.4,Win32,60,5ede212260122c03b3a4c676,,1,0,80,47,1,79
,,,,,,,,,,,,,,,,,,,,,,,,,,,,,,,,,,,return,3.394999981,,FALSE,,,,,,,153,mico,Catalan,Sounds/cat_mico.mp3,2020-06-12_12h49.16.035,TranslationElicitation_spa,3.2.4,Win32,60,5ede212260122c03b3a4c676,3.394999981,1,0,80,47,1,79
,,,,,,,,,,,,,,,,,,,,,,,,,,,,,,,,,,,,,,,,,,,,,153,mico,Catalan,Sounds/cat_mico.mp3,2020-06-12_12h49.16.035,TranslationElicitation_spa,3.2.4,Win32,60,5ede212260122c03b3a4c676,,1,0,80,47,1,79
,,,,,,,,,,,,,,,,,,,,,,,,,,,,,,,,,,,c,1.629999876,C,FALSE,,,,,,,126,corona,Catalan,Sounds/cat_corona.mp3,2020-06-12_12h49.16.035,TranslationElicitation_spa,3.2.4,Win32,60,5ede212260122c03b3a4c676,,1,0,80,21,1,79
,,,,,,,,,,,,,,,,,,,,,,,,,,,,,,,,,,,o,1.796000004,CO,FALSE,,,,,,,126,corona,Catalan,Sounds/cat_corona.mp3,2020-06-12_12h49.16.035,TranslationElicitation_spa,3.2.4,Win32,60,5ede212260122c03b3a4c676,,1,0,80,21,1,79
,,,,,,,,,,,,,,,,,,,,,,,,,,,,,,,,,,,r,1.930000067,COR,FALSE,,,,,,,126,corona,Catalan,Sounds/cat_corona.mp3,2020-06-12_12h49.16.035,TranslationElicitation_spa,3.2.4,Win32,60,5ede212260122c03b3a4c676,,1,0,80,21,1,79
,,,,,,,,,,,,,,,,,,,,,,,,,,,,,,,,,,,o,2.046000004,CORO,FALSE,,,,,,,126,corona,Catalan,Sounds/cat_corona.mp3,2020-06-12_12h49.16.035,TranslationElicitation_spa,3.2.4,Win32,60,5ede212260122c03b3a4c676,,1,0,80,21,1,79
,,,,,,,,,,,,,,,,,,,,,,,,,,,,,,,,,,,n,2.392999887,CORON,FALSE,,,,,,,126,corona,Catalan,Sounds/cat_corona.mp3,2020-06-12_12h49.16.035,TranslationElicitation_spa,3.2.4,Win32,60,5ede212260122c03b3a4c676,,1,0,80,21,1,79
,,,,,,,,,,,,,,,,,,,,,,,,,,,,,,,,,,,a,2.510999918,CORONA,FALSE,,,,,,,126,corona,Catalan,Sounds/cat_corona.mp3,2020-06-12_12h49.16.035,TranslationElicitation_spa,3.2.4,Win32,60,5ede212260122c03b3a4c676,,1,0,80,21,1,79
,,,,,,,,,,,,,,,,,,,,,,,,,,,,,,,,,,,return,2.894000053,,FALSE,,,,,,,126,corona,Catalan,Sounds/cat_corona.mp3,2020-06-12_12h49.16.035,TranslationElicitation_spa,3.2.4,Win32,60,5ede212260122c03b3a4c676,2.894000053,1,0,80,21,1,79
,,,,,,,,,,,,,,,,,,,,,,,,,,,,,,,,,,,,,,,,,,,,,126,corona,Catalan,Sounds/cat_corona.mp3,2020-06-12_12h49.16.035,TranslationElicitation_spa,3.2.4,Win32,60,5ede212260122c03b3a4c676,,1,0,80,21,1,79
,,,,,,,,,,,,,,,,,,,,,,,,,,,,,,,,,,,t,1.694999933,T,FALSE,,,,,,,183,tren,Catalan,Sounds/cat_tren.mp3,2020-06-12_12h49.16.035,TranslationElicitation_spa,3.2.4,Win32,60,5ede212260122c03b3a4c676,,1,0,80,74,1,79
,,,,,,,,,,,,,,,,,,,,,,,,,,,,,,,,,,,r,1.893999815,TR,FALSE,,,,,,,183,tren,Catalan,Sounds/cat_tren.mp3,2020-06-12_12h49.16.035,TranslationElicitation_spa,3.2.4,Win32,60,5ede212260122c03b3a4c676,,1,0,80,74,1,79
,,,,,,,,,,,,,,,,,,,,,,,,,,,,,,,,,,,e,1.961999893,TRE,FALSE,,,,,,,183,tren,Catalan,Sounds/cat_tren.mp3,2020-06-12_12h49.16.035,TranslationElicitation_spa,3.2.4,Win32,60,5ede212260122c03b3a4c676,,1,0,80,74,1,79
,,,,,,,,,,,,,,,,,,,,,,,,,,,,,,,,,,,n,2.144999981,TREN,FALSE,,,,,,,183,tren,Catalan,Sounds/cat_tren.mp3,2020-06-12_12h49.16.035,TranslationElicitation_spa,3.2.4,Win32,60,5ede212260122c03b3a4c676,,1,0,80,74,1,79
,,,,,,,,,,,,,,,,,,,,,,,,,,,,,,,,,,,return,2.56099987,,FALSE,,,,,,,183,tren,Catalan,Sounds/cat_tren.mp3,2020-06-12_12h49.16.035,TranslationElicitation_spa,3.2.4,Win32,60,5ede212260122c03b3a4c676,2.56099987,1,0,80,74,1,79
,,,,,,,,,,,,,,,,,,,,,,,,,,,,,,,,,,,,,,,,,,,,,183,tren,Catalan,Sounds/cat_tren.mp3,2020-06-12_12h49.16.035,TranslationElicitation_spa,3.2.4,Win32,60,5ede212260122c03b3a4c676,,1,0,80,74,1,79
,,,,,,,,,,,,,,,,,,,,,,,,,,,,,,,,,,,f,1.648000002,F,FALSE,,,,,,,134,flor,Catalan,Sounds/cat_flor.mp3,2020-06-12_12h49.16.035,TranslationElicitation_spa,3.2.4,Win32,60,5ede212260122c03b3a4c676,,1,0,80,29,1,79
,,,,,,,,,,,,,,,,,,,,,,,,,,,,,,,,,,,l,1.763999939,FL,FALSE,,,,,,,134,flor,Catalan,Sounds/cat_flor.mp3,2020-06-12_12h49.16.035,TranslationElicitation_spa,3.2.4,Win32,60,5ede212260122c03b3a4c676,,1,0,80,29,1,79
,,,,,,,,,,,,,,,,,,,,,,,,,,,,,,,,,,,o,1.980000019,FLO,FALSE,,,,,,,134,flor,Catalan,Sounds/cat_flor.mp3,2020-06-12_12h49.16.035,TranslationElicitation_spa,3.2.4,Win32,60,5ede212260122c03b3a4c676,,1,0,80,29,1,79
,,,,,,,,,,,,,,,,,,,,,,,,,,,,,,,,,,,r,2.130000114,FLOR,FALSE,,,,,,,134,flor,Catalan,Sounds/cat_flor.mp3,2020-06-12_12h49.16.035,TranslationElicitation_spa,3.2.4,Win32,60,5ede212260122c03b3a4c676,,1,0,80,29,1,79
,,,,,,,,,,,,,,,,,,,,,,,,,,,,,,,,,,,return,2.480000019,,FALSE,,,,,,,134,flor,Catalan,Sounds/cat_flor.mp3,2020-06-12_12h49.16.035,TranslationElicitation_spa,3.2.4,Win32,60,5ede212260122c03b3a4c676,2.480000019,1,0,80,29,1,79
,,,,,,,,,,,,,,,,,,,,,,,,,,,,,,,,,,,,,,,,,,,,,134,flor,Catalan,Sounds/cat_flor.mp3,2020-06-12_12h49.16.035,TranslationElicitation_spa,3.2.4,Win32,60,5ede212260122c03b3a4c676,,1,0,80,29,1,79
,,,,,,,,,,,,,,,,,,,,,,,,,,,,,,,,,,,c,3.745000124,C,FALSE,,,,,,,125,colom,Catalan,Sounds/cat_colom.mp3,2020-06-12_12h49.16.035,TranslationElicitation_spa,3.2.4,Win32,60,5ede212260122c03b3a4c676,,1,0,80,20,1,79
,,,,,,,,,,,,,,,,,,,,,,,,,,,,,,,,,,,o,3.878000021,CO,FALSE,,,,,,,125,colom,Catalan,Sounds/cat_colom.mp3,2020-06-12_12h49.16.035,TranslationElicitation_spa,3.2.4,Win32,60,5ede212260122c03b3a4c676,,1,0,80,20,1,79
,,,,,,,,,,,,,,,,,,,,,,,,,,,,,,,,,,,l,4.093000174,COL,FALSE,,,,,,,125,colom,Catalan,Sounds/cat_colom.mp3,2020-06-12_12h49.16.035,TranslationElicitation_spa,3.2.4,Win32,60,5ede212260122c03b3a4c676,,1,0,80,20,1,79
,,,,,,,,,,,,,,,,,,,,,,,,,,,,,,,,,,,o,4.310000181,COLO,FALSE,,,,,,,125,colom,Catalan,Sounds/cat_colom.mp3,2020-06-12_12h49.16.035,TranslationElicitation_spa,3.2.4,Win32,60,5ede212260122c03b3a4c676,,1,0,80,20,1,79
,,,,,,,,,,,,,,,,,,,,,,,,,,,,,,,,,,,r,4.494000196,COLOR,FALSE,,,,,,,125,colom,Catalan,Sounds/cat_colom.mp3,2020-06-12_12h49.16.035,TranslationElicitation_spa,3.2.4,Win32,60,5ede212260122c03b3a4c676,,1,0,80,20,1,79
,,,,,,,,,,,,,,,,,,,,,,,,,,,,,,,,,,,return,5.376000166,,FALSE,,,,,,,125,colom,Catalan,Sounds/cat_colom.mp3,2020-06-12_12h49.16.035,TranslationElicitation_spa,3.2.4,Win32,60,5ede212260122c03b3a4c676,5.376000166,1,0,80,20,1,79
,,,,,,,,,,,,,,,,,,,,,,,,,,,,,,,,,,,,,,,,,,,,,125,colom,Catalan,Sounds/cat_colom.mp3,2020-06-12_12h49.16.035,TranslationElicitation_spa,3.2.4,Win32,60,5ede212260122c03b3a4c676,,1,0,80,20,1,79
,,,,,,,,,,,,,,,,,,,,,,,,,,,,,,,,,,,s,4.54399991,S,FALSE,,,,,,,176,samarreta,Catalan,Sounds/cat_samarreta.mp3,2020-06-12_12h49.16.035,TranslationElicitation_spa,3.2.4,Win32,60,5ede212260122c03b3a4c676,,1,0,80,68,1,79
,,,,,,,,,,,,,,,,,,,,,,,,,,,,,,,,,,,a,4.644999981,SA,FALSE,,,,,,,176,samarreta,Catalan,Sounds/cat_samarreta.mp3,2020-06-12_12h49.16.035,TranslationElicitation_spa,3.2.4,Win32,60,5ede212260122c03b3a4c676,,1,0,80,68,1,79
,,,,,,,,,,,,,,,,,,,,,,,,,,,,,,,,,,,b,4.860999823,SAB,FALSE,,,,,,,176,samarreta,Catalan,Sounds/cat_samarreta.mp3,2020-06-12_12h49.16.035,TranslationElicitation_spa,3.2.4,Win32,60,5ede212260122c03b3a4c676,,1,0,80,68,1,79
,,,,,,,,,,,,,,,,,,,,,,,,,,,,,,,,,,,a,4.944000006,SABA,FALSE,,,,,,,176,samarreta,Catalan,Sounds/cat_samarreta.mp3,2020-06-12_12h49.16.035,TranslationElicitation_spa,3.2.4,Win32,60,5ede212260122c03b3a4c676,,1,0,80,68,1,79
,,,,,,,,,,,,,,,,,,,,,,,,,,,,,,,,,,,d,5.095000029,SABAD,FALSE,,,,,,,176,samarreta,Catalan,Sounds/cat_samarreta.mp3,2020-06-12_12h49.16.035,TranslationElicitation_spa,3.2.4,Win32,60,5ede212260122c03b3a4c676,,1,0,80,68,1,79
,,,,,,,,,,,,,,,,,,,,,,,,,,,,,,,,,,,o,5.876999855,SABADO,FALSE,,,,,,,176,samarreta,Catalan,Sounds/cat_samarreta.mp3,2020-06-12_12h49.16.035,TranslationElicitation_spa,3.2.4,Win32,60,5ede212260122c03b3a4c676,,1,0,80,68,1,79
,,,,,,,,,,,,,,,,,,,,,,,,,,,,,,,,,,,return,6.850999832,,FALSE,,,,,,,176,samarreta,Catalan,Sounds/cat_samarreta.mp3,2020-06-12_12h49.16.035,TranslationElicitation_spa,3.2.4,Win32,60,5ede212260122c03b3a4c676,6.850999832,1,0,80,68,1,79
,,,,,,,,,,,,,,,,,,,,,,,,,,,,,,,,,,,,,,,,,,,,,176,samarreta,Catalan,Sounds/cat_samarreta.mp3,2020-06-12_12h49.16.035,TranslationElicitation_spa,3.2.4,Win32,60,5ede212260122c03b3a4c676,,1,0,80,68,1,79
,,,,,,,,,,,,,,,,,,,,,,,,,,,,,,,,,,,b,2.090999842,B,FALSE,,,,,,,118,bou,Catalan,Sounds/cat_bou.mp3,2020-06-12_12h49.16.035,TranslationElicitation_spa,3.2.4,Win32,60,5ede212260122c03b3a4c676,,1,0,80,13,1,79
,,,,,,,,,,,,,,,,,,,,,,,,,,,,,,,,,,,o,2.189999819,BO,FALSE,,,,,,,118,bou,Catalan,Sounds/cat_bou.mp3,2020-06-12_12h49.16.035,TranslationElicitation_spa,3.2.4,Win32,60,5ede212260122c03b3a4c676,,1,0,80,13,1,79
,,,,,,,,,,,,,,,,,,,,,,,,,,,,,,,,,,,l,2.423999786,BOL,FALSE,,,,,,,118,bou,Catalan,Sounds/cat_bou.mp3,2020-06-12_12h49.16.035,TranslationElicitation_spa,3.2.4,Win32,60,5ede212260122c03b3a4c676,,1,0,80,13,1,79
,,,,,,,,,,,,,,,,,,,,,,,,,,,,,,,,,,,a,2.540999889,BOLA,FALSE,,,,,,,118,bou,Catalan,Sounds/cat_bou.mp3,2020-06-12_12h49.16.035,TranslationElicitation_spa,3.2.4,Win32,60,5ede212260122c03b3a4c676,,1,0,80,13,1,79
,,,,,,,,,,,,,,,,,,,,,,,,,,,,,,,,,,,return,3.288999796,,FALSE,,,,,,,118,bou,Catalan,Sounds/cat_bou.mp3,2020-06-12_12h49.16.035,TranslationElicitation_spa,3.2.4,Win32,60,5ede212260122c03b3a4c676,3.288999796,1,0,80,13,1,79
,,,,,,,,,,,,,,,,,,,,,,,,,,,,,,,,,,,,,,,,,,,,,118,bou,Catalan,Sounds/cat_bou.mp3,2020-06-12_12h49.16.035,TranslationElicitation_spa,3.2.4,Win32,60,5ede212260122c03b3a4c676,,1,0,80,13,1,79
,,,,,,,,,,,,,,,,,,,,,,,,,,,,,,,,,,,h,3.910000086,H,FALSE,,,,,,,165,pernil,Catalan,Sounds/cat_pernil.mp3,2020-06-12_12h49.16.035,TranslationElicitation_spa,3.2.4,Win32,60,5ede212260122c03b3a4c676,,1,0,80,58,1,79
,,,,,,,,,,,,,,,,,,,,,,,,,,,,,,,,,,,a,4.060000181,HA,FALSE,,,,,,,165,pernil,Catalan,Sounds/cat_pernil.mp3,2020-06-12_12h49.16.035,TranslationElicitation_spa,3.2.4,Win32,60,5ede212260122c03b3a4c676,,1,0,80,58,1,79
,,,,,,,,,,,,,,,,,,,,,,,,,,,,,,,,,,,b,4.127000093,HAB,FALSE,,,,,,,165,pernil,Catalan,Sounds/cat_pernil.mp3,2020-06-12_12h49.16.035,TranslationElicitation_spa,3.2.4,Win32,60,5ede212260122c03b3a4c676,,1,0,80,58,1,79
,,,,,,,,,,,,,,,,,,,,,,,,,,,,,,,,,,,l,4.358999968,HABL,FALSE,,,,,,,165,pernil,Catalan,Sounds/cat_pernil.mp3,2020-06-12_12h49.16.035,TranslationElicitation_spa,3.2.4,Win32,60,5ede212260122c03b3a4c676,,1,0,80,58,1,79
,,,,,,,,,,,,,,,,,,,,,,,,,,,,,,,,,,,a,4.526000023,HABLA,FALSE,,,,,,,165,pernil,Catalan,Sounds/cat_pernil.mp3,2020-06-12_12h49.16.035,TranslationElicitation_spa,3.2.4,Win32,60,5ede212260122c03b3a4c676,,1,0,80,58,1,79
,,,,,,,,,,,,,,,,,,,,,,,,,,,,,,,,,,,r,4.676000118,HABLAR,FALSE,,,,,,,165,pernil,Catalan,Sounds/cat_pernil.mp3,2020-06-12_12h49.16.035,TranslationElicitation_spa,3.2.4,Win32,60,5ede212260122c03b3a4c676,,1,0,80,58,1,79
,,,,,,,,,,,,,,,,,,,,,,,,,,,,,,,,,,,return,5.407999992,,FALSE,,,,,,,165,pernil,Catalan,Sounds/cat_pernil.mp3,2020-06-12_12h49.16.035,TranslationElicitation_spa,3.2.4,Win32,60,5ede212260122c03b3a4c676,5.407000065,1,0,80,58,1,79
,,,,,,,,,,,,,,,,,,,,,,,,,,,,,,,,,,,,,,,,,,,,,165,pernil,Catalan,Sounds/cat_pernil.mp3,2020-06-12_12h49.16.035,TranslationElicitation_spa,3.2.4,Win32,60,5ede212260122c03b3a4c676,,1,0,80,58,1,79
,,,,,,,,,,,,,,,,,,,,,,,,,,,,,,,,,,,t,2.278999805,T,FALSE,,,,,,,178,taronja,Catalan,Sounds/cat_taronja.mp3,2020-06-12_12h49.16.035,TranslationElicitation_spa,3.2.4,Win32,60,5ede212260122c03b3a4c676,,1,0,80,70,1,79
,,,,,,,,,,,,,,,,,,,,,,,,,,,,,,,,,,,r,2.362999916,TR,FALSE,,,,,,,178,taronja,Catalan,Sounds/cat_taronja.mp3,2020-06-12_12h49.16.035,TranslationElicitation_spa,3.2.4,Win32,60,5ede212260122c03b3a4c676,,1,0,80,70,1,79
,,,,,,,,,,,,,,,,,,,,,,,,,,,,,,,,,,,a,2.812000036,TRA,FALSE,,,,,,,178,taronja,Catalan,Sounds/cat_taronja.mp3,2020-06-12_12h49.16.035,TranslationElicitation_spa,3.2.4,Win32,60,5ede212260122c03b3a4c676,,1,0,80,70,1,79
,,,,,,,,,,,,,,,,,,,,,,,,,,,,,,,,,,,z,3.044999838,TRAZ,FALSE,,,,,,,178,taronja,Catalan,Sounds/cat_taronja.mp3,2020-06-12_12h49.16.035,TranslationElicitation_spa,3.2.4,Win32,60,5ede212260122c03b3a4c676,,1,0,80,70,1,79
,,,,,,,,,,,,,,,,,,,,,,,,,,,,,,,,,,,a,3.260999918,TRAZA,FALSE,,,,,,,178,taronja,Catalan,Sounds/cat_taronja.mp3,2020-06-12_12h49.16.035,TranslationElicitation_spa,3.2.4,Win32,60,5ede212260122c03b3a4c676,,1,0,80,70,1,79
,,,,,,,,,,,,,,,,,,,,,,,,,,,,,,,,,,,r,3.494999886,TRAZAR,FALSE,,,,,,,178,taronja,Catalan,Sounds/cat_taronja.mp3,2020-06-12_12h49.16.035,TranslationElicitation_spa,3.2.4,Win32,60,5ede212260122c03b3a4c676,,1,0,80,70,1,79
,,,,,,,,,,,,,,,,,,,,,,,,,,,,,,,,,,,return,4.792999983,,FALSE,,,,,,,178,taronja,Catalan,Sounds/cat_taronja.mp3,2020-06-12_12h49.16.035,TranslationElicitation_spa,3.2.4,Win32,60,5ede212260122c03b3a4c676,4.792999983,1,0,80,70,1,79
,,,,,,,,,,,,,,,,,,,,,,,,,,,,,,,,,,,,,,,,,,,,,178,taronja,Catalan,Sounds/cat_taronja.mp3,2020-06-12_12h49.16.035,TranslationElicitation_spa,3.2.4,Win32,60,5ede212260122c03b3a4c676,,1,0,80,70,1,79
,,,,,,,,,,,,,,,,,,,,,,,,,,,,,,,,,,,c,1.713000059,C,FALSE,,,,,,,120,cama,Catalan,Sounds/cat_cama.mp3,2020-06-12_12h49.16.035,TranslationElicitation_spa,3.2.4,Win32,60,5ede212260122c03b3a4c676,,1,0,80,15,1,79
,,,,,,,,,,,,,,,,,,,,,,,,,,,,,,,,,,,a,1.996000051,CA,FALSE,,,,,,,120,cama,Catalan,Sounds/cat_cama.mp3,2020-06-12_12h49.16.035,TranslationElicitation_spa,3.2.4,Win32,60,5ede212260122c03b3a4c676,,1,0,80,15,1,79
,,,,,,,,,,,,,,,,,,,,,,,,,,,,,,,,,,,m,2.163000107,CAM,FALSE,,,,,,,120,cama,Catalan,Sounds/cat_cama.mp3,2020-06-12_12h49.16.035,TranslationElicitation_spa,3.2.4,Win32,60,5ede212260122c03b3a4c676,,1,0,80,15,1,79
,,,,,,,,,,,,,,,,,,,,,,,,,,,,,,,,,,,a,2.263000011,CAMA,FALSE,,,,,,,120,cama,Catalan,Sounds/cat_cama.mp3,2020-06-12_12h49.16.035,TranslationElicitation_spa,3.2.4,Win32,60,5ede212260122c03b3a4c676,,1,0,80,15,1,79
,,,,,,,,,,,,,,,,,,,,,,,,,,,,,,,,,,,return,2.778000116,,FALSE,,,,,,,120,cama,Catalan,Sounds/cat_cama.mp3,2020-06-12_12h49.16.035,TranslationElicitation_spa,3.2.4,Win32,60,5ede212260122c03b3a4c676,2.778000116,1,0,80,15,1,79
,,,,,,,,,,,,,,,,,,,,,,,,,,,,,,,,,,,,,,,,,,,,,120,cama,Catalan,Sounds/cat_cama.mp3,2020-06-12_12h49.16.035,TranslationElicitation_spa,3.2.4,Win32,60,5ede212260122c03b3a4c676,,1,0,80,15,1,79
,,,,,,,,,,,,,,,,,,,,,,,,,,,,,,,,,,,h,3.578000069,H,FALSE,,,,,,,163,papallona,Catalan,Sounds/cat_papallona.mp3,2020-06-12_12h49.16.035,TranslationElicitation_spa,3.2.4,Win32,60,5ede212260122c03b3a4c676,,1,0,80,56,1,79
,,,,,,,,,,,,,,,,,,,,,,,,,,,,,,,,,,,a,3.694000006,HA,FALSE,,,,,,,163,papallona,Catalan,Sounds/cat_papallona.mp3,2020-06-12_12h49.16.035,TranslationElicitation_spa,3.2.4,Win32,60,5ede212260122c03b3a4c676,,1,0,80,56,1,79
,,,,,,,,,,,,,,,,,,,,,,,,,,,,,,,,,,,b,3.794000149,HAB,FALSE,,,,,,,163,papallona,Catalan,Sounds/cat_papallona.mp3,2020-06-12_12h49.16.035,TranslationElicitation_spa,3.2.4,Win32,60,5ede212260122c03b3a4c676,,1,0,80,56,1,79
,,,,,,,,,,,,,,,,,,,,,,,,,,,,,,,,,,,backspace,4.411000013,H,TRUE,,,,,,,163,papallona,Catalan,Sounds/cat_papallona.mp3,2020-06-12_12h49.16.035,TranslationElicitation_spa,3.2.4,Win32,60,5ede212260122c03b3a4c676,,1,0,80,56,1,79
,,,,,,,,,,,,,,,,,,,,,,,,,,,,,,,,,,,backspace,4.710000038,,TRUE,,,,,,,163,papallona,Catalan,Sounds/cat_papallona.mp3,2020-06-12_12h49.16.035,TranslationElicitation_spa,3.2.4,Win32,60,5ede212260122c03b3a4c676,,1,0,80,56,1,79
,,,,,,,,,,,,,,,,,,,,,,,,,,,,,,,,,,,backspace,4.875999928,,TRUE,,,,,,,163,papallona,Catalan,Sounds/cat_papallona.mp3,2020-06-12_12h49.16.035,TranslationElicitation_spa,3.2.4,Win32,60,5ede212260122c03b3a4c676,,1,0,80,56,1,79
,,,,,,,,,,,,,,,,,,,,,,,,,,,,,,,,,,,p,5.976000071,P,TRUE,,,,,,,163,papallona,Catalan,Sounds/cat_papallona.mp3,2020-06-12_12h49.16.035,TranslationElicitation_spa,3.2.4,Win32,60,5ede212260122c03b3a4c676,,1,0,80,56,1,79
,,,,,,,,,,,,,,,,,,,,,,,,,,,,,,,,,,,a,6.159000158,PA,TRUE,,,,,,,163,papallona,Catalan,Sounds/cat_papallona.mp3,2020-06-12_12h49.16.035,TranslationElicitation_spa,3.2.4,Win32,60,5ede212260122c03b3a4c676,,1,0,80,56,1,79
,,,,,,,,,,,,,,,,,,,,,,,,,,,,,,,,,,,p,6.424999952,PAP,TRUE,,,,,,,163,papallona,Catalan,Sounds/cat_papallona.mp3,2020-06-12_12h49.16.035,TranslationElicitation_spa,3.2.4,Win32,60,5ede212260122c03b3a4c676,,1,0,80,56,1,79
,,,,,,,,,,,,,,,,,,,,,,,,,,,,,,,,,,,e,6.641000032,PAPE,TRUE,,,,,,,163,papallona,Catalan,Sounds/cat_papallona.mp3,2020-06-12_12h49.16.035,TranslationElicitation_spa,3.2.4,Win32,60,5ede212260122c03b3a4c676,,1,0,80,56,1,79
,,,,,,,,,,,,,,,,,,,,,,,,,,,,,,,,,,,l,6.85800004,PAPEL,TRUE,,,,,,,163,papallona,Catalan,Sounds/cat_papallona.mp3,2020-06-12_12h49.16.035,TranslationElicitation_spa,3.2.4,Win32,60,5ede212260122c03b3a4c676,,1,0,80,56,1,79
,,,,,,,,,,,,,,,,,,,,,,,,,,,,,,,,,,,e,7.008000135,PAPELE,TRUE,,,,,,,163,papallona,Catalan,Sounds/cat_papallona.mp3,2020-06-12_12h49.16.035,TranslationElicitation_spa,3.2.4,Win32,60,5ede212260122c03b3a4c676,,1,0,80,56,1,79
,,,,,,,,,,,,,,,,,,,,,,,,,,,,,,,,,,,r,7.09100008,PAPELER,TRUE,,,,,,,163,papallona,Catalan,Sounds/cat_papallona.mp3,2020-06-12_12h49.16.035,TranslationElicitation_spa,3.2.4,Win32,60,5ede212260122c03b3a4c676,,1,0,80,56,1,79
,,,,,,,,,,,,,,,,,,,,,,,,,,,,,,,,,,,a,7.30700016,PAPELERA,TRUE,,,,,,,163,papallona,Catalan,Sounds/cat_papallona.mp3,2020-06-12_12h49.16.035,TranslationElicitation_spa,3.2.4,Win32,60,5ede212260122c03b3a4c676,,1,0,80,56,1,79
,,,,,,,,,,,,,,,,,,,,,,,,,,,,,,,,,,,return,8.055999994,,TRUE,,,,,,,163,papallona,Catalan,Sounds/cat_papallona.mp3,2020-06-12_12h49.16.035,TranslationElicitation_spa,3.2.4,Win32,60,5ede212260122c03b3a4c676,8.055999994,1,0,80,56,1,79
,,,,,,,,,,,,,,,,,,,,,,,,,,,,,,,,,,,,,,,,,,,,,163,papallona,Catalan,Sounds/cat_papallona.mp3,2020-06-12_12h49.16.035,TranslationElicitation_spa,3.2.4,Win32,60,5ede212260122c03b3a4c676,,1,0,80,56,1,79
,,,,,,,,,,,,,,,,,,,,,,,,,,,,,,,,,,,g,3.753000021,G,FALSE,,,,,,,145,got,Catalan,Sounds/cat_got.mp3,2020-06-12_12h49.16.035,TranslationElicitation_spa,3.2.4,Win32,60,5ede212260122c03b3a4c676,,1,0,80,40,1,79
,,,,,,,,,,,,,,,,,,,,,,,,,,,,,,,,,,,o,4.486000061,GO,FALSE,,,,,,,145,got,Catalan,Sounds/cat_got.mp3,2020-06-12_12h49.16.035,TranslationElicitation_spa,3.2.4,Win32,60,5ede212260122c03b3a4c676,,1,0,80,40,1,79
,,,,,,,,,,,,,,,,,,,,,,,,,,,,,,,,,,,l,4.751000166,GOL,FALSE,,,,,,,145,got,Catalan,Sounds/cat_got.mp3,2020-06-12_12h49.16.035,TranslationElicitation_spa,3.2.4,Win32,60,5ede212260122c03b3a4c676,,1,0,80,40,1,79
,,,,,,,,,,,,,,,,,,,,,,,,,,,,,,,,,,,return,5.551000118,,FALSE,,,,,,,145,got,Catalan,Sounds/cat_got.mp3,2020-06-12_12h49.16.035,TranslationElicitation_spa,3.2.4,Win32,60,5ede212260122c03b3a4c676,5.551000118,1,0,80,40,1,79
,,,,,,,,,,,,,,,,,,,,,,,,,,,,,,,,,,,,,,,,,,,,,145,got,Catalan,Sounds/cat_got.mp3,2020-06-12_12h49.16.035,TranslationElicitation_spa,3.2.4,Win32,60,5ede212260122c03b3a4c676,,1,0,80,40,1,79
,,,,,,,,,,,,,,,,,,,,,,,,,,,,,,,,,,,i,7.07400012,I,FALSE,,,,,,,148,lleo,Catalan,Sounds/cat_lleo.mp3,2020-06-12_12h49.16.035,TranslationElicitation_spa,3.2.4,Win32,60,5ede212260122c03b3a4c676,,1,0,80,42,1,79
,,,,,,,,,,,,,,,,,,,,,,,,,,,,,,,,,,,r,7.224999905,IR,FALSE,,,,,,,148,lleo,Catalan,Sounds/cat_lleo.mp3,2020-06-12_12h49.16.035,TranslationElicitation_spa,3.2.4,Win32,60,5ede212260122c03b3a4c676,,1,0,80,42,1,79
,,,,,,,,,,,,,,,,,,,,,,,,,,,,,,,,,,,return,8.722000122,,FALSE,,,,,,,148,lleo,Catalan,Sounds/cat_lleo.mp3,2020-06-12_12h49.16.035,TranslationElicitation_spa,3.2.4,Win32,60,5ede212260122c03b3a4c676,8.722000122,1,0,80,42,1,79
,,,,,,,,,,,,,,,,,,,,,,,,,,,,,,,,,,,,,,,,,,,,,148,lleo,Catalan,Sounds/cat_lleo.mp3,2020-06-12_12h49.16.035,TranslationElicitation_spa,3.2.4,Win32,60,5ede212260122c03b3a4c676,,1,0,80,42,1,79
,,,,,,,,,,,,,,,,,,,,,,,,,,,,,,,,,,,m,1.463999987,M,FALSE,,,,,,,154,mirall,Catalan,Sounds/cat_mirall.mp3,2020-06-12_12h49.16.035,TranslationElicitation_spa,3.2.4,Win32,60,5ede212260122c03b3a4c676,,1,0,80,48,1,79
,,,,,,,,,,,,,,,,,,,,,,,,,,,,,,,,,,,i,1.697000027,MI,FALSE,,,,,,,154,mirall,Catalan,Sounds/cat_mirall.mp3,2020-06-12_12h49.16.035,TranslationElicitation_spa,3.2.4,Win32,60,5ede212260122c03b3a4c676,,1,0,80,48,1,79
,,,,,,,,,,,,,,,,,,,,,,,,,,,,,,,,,,,r,1.797999859,MIR,FALSE,,,,,,,154,mirall,Catalan,Sounds/cat_mirall.mp3,2020-06-12_12h49.16.035,TranslationElicitation_spa,3.2.4,Win32,60,5ede212260122c03b3a4c676,,1,0,80,48,1,79
,,,,,,,,,,,,,,,,,,,,,,,,,,,,,,,,,,,a,1.996999979,MIRA,FALSE,,,,,,,154,mirall,Catalan,Sounds/cat_mirall.mp3,2020-06-12_12h49.16.035,TranslationElicitation_spa,3.2.4,Win32,60,5ede212260122c03b3a4c676,,1,0,80,48,1,79
,,,,,,,,,,,,,,,,,,,,,,,,,,,,,,,,,,,r,2.113999844,MIRAR,FALSE,,,,,,,154,mirall,Catalan,Sounds/cat_mirall.mp3,2020-06-12_12h49.16.035,TranslationElicitation_spa,3.2.4,Win32,60,5ede212260122c03b3a4c676,,1,0,80,48,1,79
,,,,,,,,,,,,,,,,,,,,,,,,,,,,,,,,,,,return,2.546999931,,FALSE,,,,,,,154,mirall,Catalan,Sounds/cat_mirall.mp3,2020-06-12_12h49.16.035,TranslationElicitation_spa,3.2.4,Win32,60,5ede212260122c03b3a4c676,2.546999931,1,0,80,48,1,79
,,,,,,,,,,,,,,,,,,,,,,,,,,,,,,,,,,,,,,,,,,,,,154,mirall,Catalan,Sounds/cat_mirall.mp3,2020-06-12_12h49.16.035,TranslationElicitation_spa,3.2.4,Win32,60,5ede212260122c03b3a4c676,,1,0,80,48,1,79
,,,,,,,,,,,,,,,,,,,,,,,,,,,,,,,,,,,o,1.545000076,O,FALSE,,,,,,,156,moto,Catalan,Sounds/cat_moto.mp3,2020-06-12_12h49.16.035,TranslationElicitation_spa,3.2.4,Win32,60,5ede212260122c03b3a4c676,,1,0,80,50,1,79
,,,,,,,,,,,,,,,,,,,,,,,,,,,,,,,,,,,backspace,2.878000021,,TRUE,,,,,,,156,moto,Catalan,Sounds/cat_moto.mp3,2020-06-12_12h49.16.035,TranslationElicitation_spa,3.2.4,Win32,60,5ede212260122c03b3a4c676,,1,0,80,50,1,79
,,,,,,,,,,,,,,,,,,,,,,,,,,,,,,,,,,,m,3.427000046,M,TRUE,,,,,,,156,moto,Catalan,Sounds/cat_moto.mp3,2020-06-12_12h49.16.035,TranslationElicitation_spa,3.2.4,Win32,60,5ede212260122c03b3a4c676,,1,0,80,50,1,79
,,,,,,,,,,,,,,,,,,,,,,,,,,,,,,,,,,,o,3.644000053,MO,TRUE,,,,,,,156,moto,Catalan,Sounds/cat_moto.mp3,2020-06-12_12h49.16.035,TranslationElicitation_spa,3.2.4,Win32,60,5ede212260122c03b3a4c676,,1,0,80,50,1,79
,,,,,,,,,,,,,,,,,,,,,,,,,,,,,,,,,,,t,3.777000189,MOT,TRUE,,,,,,,156,moto,Catalan,Sounds/cat_moto.mp3,2020-06-12_12h49.16.035,TranslationElicitation_spa,3.2.4,Win32,60,5ede212260122c03b3a4c676,,1,0,80,50,1,79
,,,,,,,,,,,,,,,,,,,,,,,,,,,,,,,,,,,o,3.877000093,MOTO,TRUE,,,,,,,156,moto,Catalan,Sounds/cat_moto.mp3,2020-06-12_12h49.16.035,TranslationElicitation_spa,3.2.4,Win32,60,5ede212260122c03b3a4c676,,1,0,80,50,1,79
,,,,,,,,,,,,,,,,,,,,,,,,,,,,,,,,,,,return,4.692000151,,TRUE,,,,,,,156,moto,Catalan,Sounds/cat_moto.mp3,2020-06-12_12h49.16.035,TranslationElicitation_spa,3.2.4,Win32,60,5ede212260122c03b3a4c676,4.692000151,1,0,80,50,1,79
,,,,,,,,,,,,,,,,,,,,,,,,,,,,,,,,,,,,,,,,,,,,,156,moto,Catalan,Sounds/cat_moto.mp3,2020-06-12_12h49.16.035,TranslationElicitation_spa,3.2.4,Win32,60,5ede212260122c03b3a4c676,,1,0,80,50,1,79
,,,,,,,,,,,,,,,,,,,,,,,,,,,,,,,,,,,a,1.980000019,A,FALSE,,,,,,,107,amanida,Catalan,Sounds/cat_amanida.mp3,2020-06-12_12h49.16.035,TranslationElicitation_spa,3.2.4,Win32,60,5ede212260122c03b3a4c676,,1,0,80,3,1,79
,,,,,,,,,,,,,,,,,,,,,,,,,,,,,,,,,,,v,2.213000059,AV,FALSE,,,,,,,107,amanida,Catalan,Sounds/cat_amanida.mp3,2020-06-12_12h49.16.035,TranslationElicitation_spa,3.2.4,Win32,60,5ede212260122c03b3a4c676,,1,0,80,3,1,79
,,,,,,,,,,,,,,,,,,,,,,,,,,,,,,,,,,,e,2.380000114,AVE,FALSE,,,,,,,107,amanida,Catalan,Sounds/cat_amanida.mp3,2020-06-12_12h49.16.035,TranslationElicitation_spa,3.2.4,Win32,60,5ede212260122c03b3a4c676,,1,0,80,3,1,79
,,,,,,,,,,,,,,,,,,,,,,,,,,,,,,,,,,,n,2.480000019,AVEN,FALSE,,,,,,,107,amanida,Catalan,Sounds/cat_amanida.mp3,2020-06-12_12h49.16.035,TranslationElicitation_spa,3.2.4,Win32,60,5ede212260122c03b3a4c676,,1,0,80,3,1,79
,,,,,,,,,,,,,,,,,,,,,,,,,,,,,,,,,,,i,2.663000107,AVENI,FALSE,,,,,,,107,amanida,Catalan,Sounds/cat_amanida.mp3,2020-06-12_12h49.16.035,TranslationElicitation_spa,3.2.4,Win32,60,5ede212260122c03b3a4c676,,1,0,80,3,1,79
,,,,,,,,,,,,,,,,,,,,,,,,,,,,,,,,,,,d,2.796000004,AVENID,FALSE,,,,,,,107,amanida,Catalan,Sounds/cat_amanida.mp3,2020-06-12_12h49.16.035,TranslationElicitation_spa,3.2.4,Win32,60,5ede212260122c03b3a4c676,,1,0,80,3,1,79
,,,,,,,,,,,,,,,,,,,,,,,,,,,,,,,,,,,a,2.962000132,AVENIDA,FALSE,,,,,,,107,amanida,Catalan,Sounds/cat_amanida.mp3,2020-06-12_12h49.16.035,TranslationElicitation_spa,3.2.4,Win32,60,5ede212260122c03b3a4c676,,1,0,80,3,1,79
,,,,,,,,,,,,,,,,,,,,,,,,,,,,,,,,,,,return,3.578999996,,FALSE,,,,,,,107,amanida,Catalan,Sounds/cat_amanida.mp3,2020-06-12_12h49.16.035,TranslationElicitation_spa,3.2.4,Win32,60,5ede212260122c03b3a4c676,3.578999996,1,0,80,3,1,79
,,,,,,,,,,,,,,,,,,,,,,,,,,,,,,,,,,,,,,,,,,,,,107,amanida,Catalan,Sounds/cat_amanida.mp3,2020-06-12_12h49.16.035,TranslationElicitation_spa,3.2.4,Win32,60,5ede212260122c03b3a4c676,,1,0,80,3,1,79
,,,,,,,,,,,,,,,,,,,,,,,,,,,,,,,,,,,m,1.347000122,M,FALSE,,,,,,,155,moneda,Catalan,Sounds/cat_moneda.mp3,2020-06-12_12h49.16.035,TranslationElicitation_spa,3.2.4,Win32,60,5ede212260122c03b3a4c676,,1,0,80,49,1,79
,,,,,,,,,,,,,,,,,,,,,,,,,,,,,,,,,,,o,1.578999996,MO,FALSE,,,,,,,155,moneda,Catalan,Sounds/cat_moneda.mp3,2020-06-12_12h49.16.035,TranslationElicitation_spa,3.2.4,Win32,60,5ede212260122c03b3a4c676,,1,0,80,49,1,79
,,,,,,,,,,,,,,,,,,,,,,,,,,,,,,,,,,,n,1.863000154,MON,FALSE,,,,,,,155,moneda,Catalan,Sounds/cat_moneda.mp3,2020-06-12_12h49.16.035,TranslationElicitation_spa,3.2.4,Win32,60,5ede212260122c03b3a4c676,,1,0,80,49,1,79
,,,,,,,,,,,,,,,,,,,,,,,,,,,,,,,,,,,e,2.218000174,MONE,FALSE,,,,,,,155,moneda,Catalan,Sounds/cat_moneda.mp3,2020-06-12_12h49.16.035,TranslationElicitation_spa,3.2.4,Win32,60,5ede212260122c03b3a4c676,,1,0,80,49,1,79
,,,,,,,,,,,,,,,,,,,,,,,,,,,,,,,,,,,d,2.395000219,MONED,FALSE,,,,,,,155,moneda,Catalan,Sounds/cat_moneda.mp3,2020-06-12_12h49.16.035,TranslationElicitation_spa,3.2.4,Win32,60,5ede212260122c03b3a4c676,,1,0,80,49,1,79
,,,,,,,,,,,,,,,,,,,,,,,,,,,,,,,,,,,a,2.478000164,MONEDA,FALSE,,,,,,,155,moneda,Catalan,Sounds/cat_moneda.mp3,2020-06-12_12h49.16.035,TranslationElicitation_spa,3.2.4,Win32,60,5ede212260122c03b3a4c676,,1,0,80,49,1,79
,,,,,,,,,,,,,,,,,,,,,,,,,,,,,,,,,,,return,2.796000004,,FALSE,,,,,,,155,moneda,Catalan,Sounds/cat_moneda.mp3,2020-06-12_12h49.16.035,TranslationElicitation_spa,3.2.4,Win32,60,5ede212260122c03b3a4c676,2.796000004,1,0,80,49,1,79
,,,,,,,,,,,,,,,,,,,,,,,,,,,,,,,,,,,,,,,,,,,,,155,moneda,Catalan,Sounds/cat_moneda.mp3,2020-06-12_12h49.16.035,TranslationElicitation_spa,3.2.4,Win32,60,5ede212260122c03b3a4c676,,1,0,80,49,1,79
,,,,,,,,,,,,,,,,,,,,,,,,,,,,,,,,,,,b,5.426000118,B,FALSE,,,,,,,115,bolet,Catalan,Sounds/cat_bolet.mp3,2020-06-12_12h49.16.035,TranslationElicitation_spa,3.2.4,Win32,60,5ede212260122c03b3a4c676,,1,0,80,10,1,79
,,,,,,,,,,,,,,,,,,,,,,,,,,,,,,,,,,,o,5.555000067,BO,FALSE,,,,,,,115,bolet,Catalan,Sounds/cat_bolet.mp3,2020-06-12_12h49.16.035,TranslationElicitation_spa,3.2.4,Win32,60,5ede212260122c03b3a4c676,,1,0,80,10,1,79
,,,,,,,,,,,,,,,,,,,,,,,,,,,,,,,,,,,l,5.809000015,BOL,FALSE,,,,,,,115,bolet,Catalan,Sounds/cat_bolet.mp3,2020-06-12_12h49.16.035,TranslationElicitation_spa,3.2.4,Win32,60,5ede212260122c03b3a4c676,,1,0,80,10,1,79
,,,,,,,,,,,,,,,,,,,,,,,,,,,,,,,,,,,e,5.892000198,BOLE,FALSE,,,,,,,115,bolet,Catalan,Sounds/cat_bolet.mp3,2020-06-12_12h49.16.035,TranslationElicitation_spa,3.2.4,Win32,60,5ede212260122c03b3a4c676,,1,0,80,10,1,79
,,,,,,,,,,,,,,,,,,,,,,,,,,,,,,,,,,,r,5.975000143,BOLER,FALSE,,,,,,,115,bolet,Catalan,Sounds/cat_bolet.mp3,2020-06-12_12h49.16.035,TranslationElicitation_spa,3.2.4,Win32,60,5ede212260122c03b3a4c676,,1,0,80,10,1,79
,,,,,,,,,,,,,,,,,,,,,,,,,,,,,,,,,,,a,6.176000118,BOLERA,FALSE,,,,,,,115,bolet,Catalan,Sounds/cat_bolet.mp3,2020-06-12_12h49.16.035,TranslationElicitation_spa,3.2.4,Win32,60,5ede212260122c03b3a4c676,,1,0,80,10,1,79
,,,,,,,,,,,,,,,,,,,,,,,,,,,,,,,,,,,return,6.496999979,,FALSE,,,,,,,115,bolet,Catalan,Sounds/cat_bolet.mp3,2020-06-12_12h49.16.035,TranslationElicitation_spa,3.2.4,Win32,60,5ede212260122c03b3a4c676,6.496999979,1,0,80,10,1,79
,,,,,,,,,,,,,,,,,,,,,,,,,,,,,,,,,,,,,,,,,,,,,115,bolet,Catalan,Sounds/cat_bolet.mp3,2020-06-12_12h49.16.035,TranslationElicitation_spa,3.2.4,Win32,60,5ede212260122c03b3a4c676,,1,0,80,10,1,79
,,,,,,,,,,,,,,,,,,,,,,,,,,,,,,,,,,,b,1.863000154,B,FALSE,,,,,,,112,bici,Catalan,Sounds/cat_bici.mp3,2020-06-12_12h49.16.035,TranslationElicitation_spa,3.2.4,Win32,60,5ede212260122c03b3a4c676,,1,0,80,7,1,79
,,,,,,,,,,,,,,,,,,,,,,,,,,,,,,,,,,,i,2.046000004,BI,FALSE,,,,,,,112,bici,Catalan,Sounds/cat_bici.mp3,2020-06-12_12h49.16.035,TranslationElicitation_spa,3.2.4,Win32,60,5ede212260122c03b3a4c676,,1,0,80,7,1,79
,,,,,,,,,,,,,,,,,,,,,,,,,,,,,,,,,,,c,2.828000069,BIC,FALSE,,,,,,,112,bici,Catalan,Sounds/cat_bici.mp3,2020-06-12_12h49.16.035,TranslationElicitation_spa,3.2.4,Win32,60,5ede212260122c03b3a4c676,,1,0,80,7,1,79
,,,,,,,,,,,,,,,,,,,,,,,,,,,,,,,,,,,i,2.962000132,BICI,FALSE,,,,,,,112,bici,Catalan,Sounds/cat_bici.mp3,2020-06-12_12h49.16.035,TranslationElicitation_spa,3.2.4,Win32,60,5ede212260122c03b3a4c676,,1,0,80,7,1,79
,,,,,,,,,,,,,,,,,,,,,,,,,,,,,,,,,,,c,3.144999981,BICIC,FALSE,,,,,,,112,bici,Catalan,Sounds/cat_bici.mp3,2020-06-12_12h49.16.035,TranslationElicitation_spa,3.2.4,Win32,60,5ede212260122c03b3a4c676,,1,0,80,7,1,79
,,,,,,,,,,,,,,,,,,,,,,,,,,,,,,,,,,,l,3.327000141,BICICL,FALSE,,,,,,,112,bici,Catalan,Sounds/cat_bici.mp3,2020-06-12_12h49.16.035,TranslationElicitation_spa,3.2.4,Win32,60,5ede212260122c03b3a4c676,,1,0,80,7,1,79
,,,,,,,,,,,,,,,,,,,,,,,,,,,,,,,,,,,e,3.410000086,BICICLE,FALSE,,,,,,,112,bici,Catalan,Sounds/cat_bici.mp3,2020-06-12_12h49.16.035,TranslationElicitation_spa,3.2.4,Win32,60,5ede212260122c03b3a4c676,,1,0,80,7,1,79
,,,,,,,,,,,,,,,,,,,,,,,,,,,,,,,,,,,t,3.627000093,BICICLET,FALSE,,,,,,,112,bici,Catalan,Sounds/cat_bici.mp3,2020-06-12_12h49.16.035,TranslationElicitation_spa,3.2.4,Win32,60,5ede212260122c03b3a4c676,,1,0,80,7,1,79
,,,,,,,,,,,,,,,,,,,,,,,,,,,,,,,,,,,a,3.844000101,BICICLETA,FALSE,,,,,,,112,bici,Catalan,Sounds/cat_bici.mp3,2020-06-12_12h49.16.035,TranslationElicitation_spa,3.2.4,Win32,60,5ede212260122c03b3a4c676,,1,0,80,7,1,79
,,,,,,,,,,,,,,,,,,,,,,,,,,,,,,,,,,,return,4.160000086,,FALSE,,,,,,,112,bici,Catalan,Sounds/cat_bici.mp3,2020-06-12_12h49.16.035,TranslationElicitation_spa,3.2.4,Win32,60,5ede212260122c03b3a4c676,4.160000086,1,0,80,7,1,79
,,,,,,,,,,,,,,,,,,,,,,,,,,,,,,,,,,,,,,,,,,,,,112,bici,Catalan,Sounds/cat_bici.mp3,2020-06-12_12h49.16.035,TranslationElicitation_spa,3.2.4,Win32,60,5ede212260122c03b3a4c676,,1,0,80,7,1,79
,,,,,,,,,,,,,,,,,,,,,,,,,,,,,,,,,,,g,1.398999929,G,FALSE,,,,,,,146,guitarra,Catalan,Sounds/cat_guitarra.mp3,2020-06-12_12h49.16.035,TranslationElicitation_spa,3.2.4,Win32,60,5ede212260122c03b3a4c676,,1,0,80,41,1,79
,,,,,,,,,,,,,,,,,,,,,,,,,,,,,,,,,,,u,1.59800005,GU,FALSE,,,,,,,146,guitarra,Catalan,Sounds/cat_guitarra.mp3,2020-06-12_12h49.16.035,TranslationElicitation_spa,3.2.4,Win32,60,5ede212260122c03b3a4c676,,1,0,80,41,1,79
,,,,,,,,,,,,,,,,,,,,,,,,,,,,,,,,,,,i,1.747999907,GUI,FALSE,,,,,,,146,guitarra,Catalan,Sounds/cat_guitarra.mp3,2020-06-12_12h49.16.035,TranslationElicitation_spa,3.2.4,Win32,60,5ede212260122c03b3a4c676,,1,0,80,41,1,79
,,,,,,,,,,,,,,,,,,,,,,,,,,,,,,,,,,,t,1.83100009,GUIT,FALSE,,,,,,,146,guitarra,Catalan,Sounds/cat_guitarra.mp3,2020-06-12_12h49.16.035,TranslationElicitation_spa,3.2.4,Win32,60,5ede212260122c03b3a4c676,,1,0,80,41,1,79
,,,,,,,,,,,,,,,,,,,,,,,,,,,,,,,,,,,a,2.063999891,GUITA,FALSE,,,,,,,146,guitarra,Catalan,Sounds/cat_guitarra.mp3,2020-06-12_12h49.16.035,TranslationElicitation_spa,3.2.4,Win32,60,5ede212260122c03b3a4c676,,1,0,80,41,1,79
,,,,,,,,,,,,,,,,,,,,,,,,,,,,,,,,,,,r,2.302000046,GUITAR,FALSE,,,,,,,146,guitarra,Catalan,Sounds/cat_guitarra.mp3,2020-06-12_12h49.16.035,TranslationElicitation_spa,3.2.4,Win32,60,5ede212260122c03b3a4c676,,1,0,80,41,1,79
,,,,,,,,,,,,,,,,,,,,,,,,,,,,,,,,,,,r,2.746999979,GUITARR,FALSE,,,,,,,146,guitarra,Catalan,Sounds/cat_guitarra.mp3,2020-06-12_12h49.16.035,TranslationElicitation_spa,3.2.4,Win32,60,5ede212260122c03b3a4c676,,1,0,80,41,1,79
,,,,,,,,,,,,,,,,,,,,,,,,,,,,,,,,,,,a,2.946000099,GUITARRA,FALSE,,,,,,,146,guitarra,Catalan,Sounds/cat_guitarra.mp3,2020-06-12_12h49.16.035,TranslationElicitation_spa,3.2.4,Win32,60,5ede212260122c03b3a4c676,,1,0,80,41,1,79
,,,,,,,,,,,,,,,,,,,,,,,,,,,,,,,,,,,return,3.246000051,,FALSE,,,,,,,146,guitarra,Catalan,Sounds/cat_guitarra.mp3,2020-06-12_12h49.16.035,TranslationElicitation_spa,3.2.4,Win32,60,5ede212260122c03b3a4c676,3.246000051,1,0,80,41,1,79
,,,,,,,,,,,,,,,,,,,,,,,,,,,,,,,,,,,,,,,,,,,,,146,guitarra,Catalan,Sounds/cat_guitarra.mp3,2020-06-12_12h49.16.035,TranslationElicitation_spa,3.2.4,Win32,60,5ede212260122c03b3a4c676,,1,0,80,41,1,79
,,,,,,,,,,,,,,,,,,,,,,,,,,,,,,,,,,,s,1.563999891,S,FALSE,,,,,,,124,cirera,Catalan,Sounds/cat_cirera.mp3,2020-06-12_12h49.16.035,TranslationElicitation_spa,3.2.4,Win32,60,5ede212260122c03b3a4c676,,1,0,80,19,1,79
,,,,,,,,,,,,,,,,,,,,,,,,,,,,,,,,,,,i,1.961999893,SI,FALSE,,,,,,,124,cirera,Catalan,Sounds/cat_cirera.mp3,2020-06-12_12h49.16.035,TranslationElicitation_spa,3.2.4,Win32,60,5ede212260122c03b3a4c676,,1,0,80,19,1,79
,,,,,,,,,,,,,,,,,,,,,,,,,,,,,,,,,,,r,2.161999941,SIR,FALSE,,,,,,,124,cirera,Catalan,Sounds/cat_cirera.mp3,2020-06-12_12h49.16.035,TranslationElicitation_spa,3.2.4,Win32,60,5ede212260122c03b3a4c676,,1,0,80,19,1,79
,,,,,,,,,,,,,,,,,,,,,,,,,,,,,,,,,,,e,2.211999893,SIRE,FALSE,,,,,,,124,cirera,Catalan,Sounds/cat_cirera.mp3,2020-06-12_12h49.16.035,TranslationElicitation_spa,3.2.4,Win32,60,5ede212260122c03b3a4c676,,1,0,80,19,1,79
,,,,,,,,,,,,,,,,,,,,,,,,,,,,,,,,,,,n,2.397000074,SIREN,FALSE,,,,,,,124,cirera,Catalan,Sounds/cat_cirera.mp3,2020-06-12_12h49.16.035,TranslationElicitation_spa,3.2.4,Win32,60,5ede212260122c03b3a4c676,,1,0,80,19,1,79
,,,,,,,,,,,,,,,,,,,,,,,,,,,,,,,,,,,a,2.529000044,SIRENA,FALSE,,,,,,,124,cirera,Catalan,Sounds/cat_cirera.mp3,2020-06-12_12h49.16.035,TranslationElicitation_spa,3.2.4,Win32,60,5ede212260122c03b3a4c676,,1,0,80,19,1,79
,,,,,,,,,,,,,,,,,,,,,,,,,,,,,,,,,,,return,2.861999989,,FALSE,,,,,,,124,cirera,Catalan,Sounds/cat_cirera.mp3,2020-06-12_12h49.16.035,TranslationElicitation_spa,3.2.4,Win32,60,5ede212260122c03b3a4c676,2.861999989,1,0,80,19,1,79
,,,,,,,,,,,,,,,,,,,,,,,,,,,,,,,,,,,,,,,,,,,,,124,cirera,Catalan,Sounds/cat_cirera.mp3,2020-06-12_12h49.16.035,TranslationElicitation_spa,3.2.4,Win32,60,5ede212260122c03b3a4c676,,1,0,80,19,1,79
,,,,,,,,,,,,,,,,,,,,,,,,,,,,,,,,,,,h,1.712000132,H,FALSE,,,,,,,135,formiga,Catalan,Sounds/cat_formiga.mp3,2020-06-12_12h49.16.035,TranslationElicitation_spa,3.2.4,Win32,60,5ede212260122c03b3a4c676,,1,0,80,30,1,79
,,,,,,,,,,,,,,,,,,,,,,,,,,,,,,,,,,,o,2.078999996,HO,FALSE,,,,,,,135,formiga,Catalan,Sounds/cat_formiga.mp3,2020-06-12_12h49.16.035,TranslationElicitation_spa,3.2.4,Win32,60,5ede212260122c03b3a4c676,,1,0,80,30,1,79
,,,,,,,,,,,,,,,,,,,,,,,,,,,,,,,,,,,r,2.212000132,HOR,FALSE,,,,,,,135,formiga,Catalan,Sounds/cat_formiga.mp3,2020-06-12_12h49.16.035,TranslationElicitation_spa,3.2.4,Win32,60,5ede212260122c03b3a4c676,,1,0,80,30,1,79
,,,,,,,,,,,,,,,,,,,,,,,,,,,,,,,,,,,m,2.379000187,HORM,FALSE,,,,,,,135,formiga,Catalan,Sounds/cat_formiga.mp3,2020-06-12_12h49.16.035,TranslationElicitation_spa,3.2.4,Win32,60,5ede212260122c03b3a4c676,,1,0,80,30,1,79
,,,,,,,,,,,,,,,,,,,,,,,,,,,,,,,,,,,i,2.578000069,HORMI,FALSE,,,,,,,135,formiga,Catalan,Sounds/cat_formiga.mp3,2020-06-12_12h49.16.035,TranslationElicitation_spa,3.2.4,Win32,60,5ede212260122c03b3a4c676,,1,0,80,30,1,79
,,,,,,,,,,,,,,,,,,,,,,,,,,,,,,,,,,,g,2.679000139,HORMIG,FALSE,,,,,,,135,formiga,Catalan,Sounds/cat_formiga.mp3,2020-06-12_12h49.16.035,TranslationElicitation_spa,3.2.4,Win32,60,5ede212260122c03b3a4c676,,1,0,80,30,1,79
,,,,,,,,,,,,,,,,,,,,,,,,,,,,,,,,,,,a,2.929000139,HORMIGA,FALSE,,,,,,,135,formiga,Catalan,Sounds/cat_formiga.mp3,2020-06-12_12h49.16.035,TranslationElicitation_spa,3.2.4,Win32,60,5ede212260122c03b3a4c676,,1,0,80,30,1,79
,,,,,,,,,,,,,,,,,,,,,,,,,,,,,,,,,,,return,3.378000021,,FALSE,,,,,,,135,formiga,Catalan,Sounds/cat_formiga.mp3,2020-06-12_12h49.16.035,TranslationElicitation_spa,3.2.4,Win32,60,5ede212260122c03b3a4c676,3.377000093,1,0,80,30,1,79
,,,,,,,,,,,,,,,,,,,,,,,,,,,,,,,,,,,,,,,,,,,,,135,formiga,Catalan,Sounds/cat_formiga.mp3,2020-06-12_12h49.16.035,TranslationElicitation_spa,3.2.4,Win32,60,5ede212260122c03b3a4c676,,1,0,80,30,1,79
,,,,,,,,,,,,,,,,,,,,,,,,,,,,,,,,,,,v,2.245999813,V,FALSE,,,,,,,116,bolquer,Catalan,Sounds/cat_bolquer.mp3,2020-06-12_12h49.16.035,TranslationElicitation_spa,3.2.4,Win32,60,5ede212260122c03b3a4c676,,1,0,80,11,1,79
,,,,,,,,,,,,,,,,,,,,,,,,,,,,,,,,,,,o,2.345999956,VO,FALSE,,,,,,,116,bolquer,Catalan,Sounds/cat_bolquer.mp3,2020-06-12_12h49.16.035,TranslationElicitation_spa,3.2.4,Win32,60,5ede212260122c03b3a4c676,,1,0,80,11,1,79
,,,,,,,,,,,,,,,,,,,,,,,,,,,,,,,,,,,l,2.595999956,VOL,FALSE,,,,,,,116,bolquer,Catalan,Sounds/cat_bolquer.mp3,2020-06-12_12h49.16.035,TranslationElicitation_spa,3.2.4,Win32,60,5ede212260122c03b3a4c676,,1,0,80,11,1,79
,,,,,,,,,,,,,,,,,,,,,,,,,,,,,,,,,,,c,2.695999861,VOLC,FALSE,,,,,,,116,bolquer,Catalan,Sounds/cat_bolquer.mp3,2020-06-12_12h49.16.035,TranslationElicitation_spa,3.2.4,Win32,60,5ede212260122c03b3a4c676,,1,0,80,11,1,79
,,,,,,,,,,,,,,,,,,,,,,,,,,,,,,,,,,,a,2.895999908,VOLCA,FALSE,,,,,,,116,bolquer,Catalan,Sounds/cat_bolquer.mp3,2020-06-12_12h49.16.035,TranslationElicitation_spa,3.2.4,Win32,60,5ede212260122c03b3a4c676,,1,0,80,11,1,79
,,,,,,,,,,,,,,,,,,,,,,,,,,,,,,,,,,,n,3.07799983,VOLCAN,FALSE,,,,,,,116,bolquer,Catalan,Sounds/cat_bolquer.mp3,2020-06-12_12h49.16.035,TranslationElicitation_spa,3.2.4,Win32,60,5ede212260122c03b3a4c676,,1,0,80,11,1,79
,,,,,,,,,,,,,,,,,,,,,,,,,,,,,,,,,,,return,3.57799983,,FALSE,,,,,,,116,bolquer,Catalan,Sounds/cat_bolquer.mp3,2020-06-12_12h49.16.035,TranslationElicitation_spa,3.2.4,Win32,60,5ede212260122c03b3a4c676,3.57799983,1,0,80,11,1,79
,,,,,,,,,,,,,,,,,,,,,,,,,,,,,,,,,,,,,,,,,,,,,116,bolquer,Catalan,Sounds/cat_bolquer.mp3,2020-06-12_12h49.16.035,TranslationElicitation_spa,3.2.4,Win32,60,5ede212260122c03b3a4c676,,1,0,80,11,1,79
,,,,,,,,,,,,,,,,,,,,,,,,,,,,,,,,,,,a,3.944999933,A,FALSE,,,,,,,117,boto,Catalan,Sounds/cat_boto.mp3,2020-06-12_12h49.16.035,TranslationElicitation_spa,3.2.4,Win32,60,5ede212260122c03b3a4c676,,1,0,80,12,1,79
,,,,,,,,,,,,,,,,,,,,,,,,,,,,,,,,,,,b,4.161000013,AB,FALSE,,,,,,,117,boto,Catalan,Sounds/cat_boto.mp3,2020-06-12_12h49.16.035,TranslationElicitation_spa,3.2.4,Win32,60,5ede212260122c03b3a4c676,,1,0,80,12,1,79
,,,,,,,,,,,,,,,,,,,,,,,,,,,,,,,,,,,backspace,4.573999882,,TRUE,,,,,,,117,boto,Catalan,Sounds/cat_boto.mp3,2020-06-12_12h49.16.035,TranslationElicitation_spa,3.2.4,Win32,60,5ede212260122c03b3a4c676,,1,0,80,12,1,79
,,,,,,,,,,,,,,,,,,,,,,,,,,,,,,,,,,,backspace,4.75999999,,TRUE,,,,,,,117,boto,Catalan,Sounds/cat_boto.mp3,2020-06-12_12h49.16.035,TranslationElicitation_spa,3.2.4,Win32,60,5ede212260122c03b3a4c676,,1,0,80,12,1,79
,,,,,,,,,,,,,,,,,,,,,,,,,,,,,,,,,,,b,5.275999784,B,TRUE,,,,,,,117,boto,Catalan,Sounds/cat_boto.mp3,2020-06-12_12h49.16.035,TranslationElicitation_spa,3.2.4,Win32,60,5ede212260122c03b3a4c676,,1,0,80,12,1,79
,,,,,,,,,,,,,,,,,,,,,,,,,,,,,,,,,,,o,5.42599988,BO,TRUE,,,,,,,117,boto,Catalan,Sounds/cat_boto.mp3,2020-06-12_12h49.16.035,TranslationElicitation_spa,3.2.4,Win32,60,5ede212260122c03b3a4c676,,1,0,80,12,1,79
,,,,,,,,,,,,,,,,,,,,,,,,,,,,,,,,,,,t,5.592000008,BOT,TRUE,,,,,,,117,boto,Catalan,Sounds/cat_boto.mp3,2020-06-12_12h49.16.035,TranslationElicitation_spa,3.2.4,Win32,60,5ede212260122c03b3a4c676,,1,0,80,12,1,79
,,,,,,,,,,,,,,,,,,,,,,,,,,,,,,,,,,,o,5.708999872,BOTO,TRUE,,,,,,,117,boto,Catalan,Sounds/cat_boto.mp3,2020-06-12_12h49.16.035,TranslationElicitation_spa,3.2.4,Win32,60,5ede212260122c03b3a4c676,,1,0,80,12,1,79
,,,,,,,,,,,,,,,,,,,,,,,,,,,,,,,,,,,n,5.958999872,BOTON,TRUE,,,,,,,117,boto,Catalan,Sounds/cat_boto.mp3,2020-06-12_12h49.16.035,TranslationElicitation_spa,3.2.4,Win32,60,5ede212260122c03b3a4c676,,1,0,80,12,1,79
,,,,,,,,,,,,,,,,,,,,,,,,,,,,,,,,,,,return,6.290999889,,TRUE,,,,,,,117,boto,Catalan,Sounds/cat_boto.mp3,2020-06-12_12h49.16.035,TranslationElicitation_spa,3.2.4,Win32,60,5ede212260122c03b3a4c676,6.290999889,1,0,80,12,1,79
,,,,,,,,,,,,,,,,,,,,,,,,,,,,,,,,,,,,,,,,,,,,,117,boto,Catalan,Sounds/cat_boto.mp3,2020-06-12_12h49.16.035,TranslationElicitation_spa,3.2.4,Win32,60,5ede212260122c03b3a4c676,,1,0,80,12,1,79
,,,,,,,,,,,,,,,,,,,,,,,,,,,,,,,,,,,c,2.812000036,C,FALSE,,,,,,,173,porc,Catalan,Sounds/cat_porc.mp3,2020-06-12_12h49.16.035,TranslationElicitation_spa,3.2.4,Win32,60,5ede212260122c03b3a4c676,,1,0,80,65,1,79
,,,,,,,,,,,,,,,,,,,,,,,,,,,,,,,,,,,e,3.028999805,CE,FALSE,,,,,,,173,porc,Catalan,Sounds/cat_porc.mp3,2020-06-12_12h49.16.035,TranslationElicitation_spa,3.2.4,Win32,60,5ede212260122c03b3a4c676,,1,0,80,65,1,79
,,,,,,,,,,,,,,,,,,,,,,,,,,,,,,,,,,,r,3.095000029,CER,FALSE,,,,,,,173,porc,Catalan,Sounds/cat_porc.mp3,2020-06-12_12h49.16.035,TranslationElicitation_spa,3.2.4,Win32,60,5ede212260122c03b3a4c676,,1,0,80,65,1,79
,,,,,,,,,,,,,,,,,,,,,,,,,,,,,,,,,,,d,3.312999964,CERD,FALSE,,,,,,,173,porc,Catalan,Sounds/cat_porc.mp3,2020-06-12_12h49.16.035,TranslationElicitation_spa,3.2.4,Win32,60,5ede212260122c03b3a4c676,,1,0,80,65,1,79
,,,,,,,,,,,,,,,,,,,,,,,,,,,,,,,,,,,o,3.407999992,CERDO,FALSE,,,,,,,173,porc,Catalan,Sounds/cat_porc.mp3,2020-06-12_12h49.16.035,TranslationElicitation_spa,3.2.4,Win32,60,5ede212260122c03b3a4c676,,1,0,80,65,1,79
,,,,,,,,,,,,,,,,,,,,,,,,,,,,,,,,,,,return,3.94299984,,FALSE,,,,,,,173,porc,Catalan,Sounds/cat_porc.mp3,2020-06-12_12h49.16.035,TranslationElicitation_spa,3.2.4,Win32,60,5ede212260122c03b3a4c676,3.94299984,1,0,80,65,1,79
,,,,,,,,,,,,,,,,,,,,,,,,,,,,,,,,,,,,,,,,,,,,,173,porc,Catalan,Sounds/cat_porc.mp3,2020-06-12_12h49.16.035,TranslationElicitation_spa,3.2.4,Win32,60,5ede212260122c03b3a4c676,,1,0,80,65,1,79
,,,,,,,,,,,,,,,,,,,,,,,,,,,,,,,,,,,v,4.576999903,V,FALSE,,,,,,,138,galeta,Catalan,Sounds/cat_galeta.mp3,2020-06-12_12h49.16.035,TranslationElicitation_spa,3.2.4,Win32,60,5ede212260122c03b3a4c676,,1,0,80,33,1,79
,,,,,,,,,,,,,,,,,,,,,,,,,,,,,,,,,,,e,4.726999998,VE,FALSE,,,,,,,138,galeta,Catalan,Sounds/cat_galeta.mp3,2020-06-12_12h49.16.035,TranslationElicitation_spa,3.2.4,Win32,60,5ede212260122c03b3a4c676,,1,0,80,33,1,79
,,,,,,,,,,,,,,,,,,,,,,,,,,,,,,,,,,,l,4.844000101,VEL,FALSE,,,,,,,138,galeta,Catalan,Sounds/cat_galeta.mp3,2020-06-12_12h49.16.035,TranslationElicitation_spa,3.2.4,Win32,60,5ede212260122c03b3a4c676,,1,0,80,33,1,79
,,,,,,,,,,,,,,,,,,,,,,,,,,,,,,,,,,,e,4.92599988,VELE,FALSE,,,,,,,138,galeta,Catalan,Sounds/cat_galeta.mp3,2020-06-12_12h49.16.035,TranslationElicitation_spa,3.2.4,Win32,60,5ede212260122c03b3a4c676,,1,0,80,33,1,79
,,,,,,,,,,,,,,,,,,,,,,,,,,,,,,,,,,,t,5.059999943,VELET,FALSE,,,,,,,138,galeta,Catalan,Sounds/cat_galeta.mp3,2020-06-12_12h49.16.035,TranslationElicitation_spa,3.2.4,Win32,60,5ede212260122c03b3a4c676,,1,0,80,33,1,79
,,,,,,,,,,,,,,,,,,,,,,,,,,,,,,,,,,,a,5.292000055,VELETA,FALSE,,,,,,,138,galeta,Catalan,Sounds/cat_galeta.mp3,2020-06-12_12h49.16.035,TranslationElicitation_spa,3.2.4,Win32,60,5ede212260122c03b3a4c676,,1,0,80,33,1,79
,,,,,,,,,,,,,,,,,,,,,,,,,,,,,,,,,,,return,6.157999992,,FALSE,,,,,,,138,galeta,Catalan,Sounds/cat_galeta.mp3,2020-06-12_12h49.16.035,TranslationElicitation_spa,3.2.4,Win32,60,5ede212260122c03b3a4c676,6.157999992,1,0,80,33,1,79
,,,,,,,,,,,,,,,,,,,,,,,,,,,,,,,,,,,,,,,,,,,,,138,galeta,Catalan,Sounds/cat_galeta.mp3,2020-06-12_12h49.16.035,TranslationElicitation_spa,3.2.4,Win32,60,5ede212260122c03b3a4c676,,1,0,80,33,1,79
,,,,,,,,,,,,,,,,,,,,,,,,,,,,,,,,,,,c,2.648000002,C,FALSE,,,,,,,172,poma,Catalan,Sounds/cat_poma.mp3,2020-06-12_12h49.16.035,TranslationElicitation_spa,3.2.4,Win32,60,5ede212260122c03b3a4c676,,1,0,80,64,1,79
,,,,,,,,,,,,,,,,,,,,,,,,,,,,,,,,,,,r,2.879999876,CR,FALSE,,,,,,,172,poma,Catalan,Sounds/cat_poma.mp3,2020-06-12_12h49.16.035,TranslationElicitation_spa,3.2.4,Win32,60,5ede212260122c03b3a4c676,,1,0,80,64,1,79
,,,,,,,,,,,,,,,,,,,,,,,,,,,,,,,,,,,e,2.930000067,CRE,FALSE,,,,,,,172,poma,Catalan,Sounds/cat_poma.mp3,2020-06-12_12h49.16.035,TranslationElicitation_spa,3.2.4,Win32,60,5ede212260122c03b3a4c676,,1,0,80,64,1,79
,,,,,,,,,,,,,,,,,,,,,,,,,,,,,,,,,,,m,3.095999956,CREM,FALSE,,,,,,,172,poma,Catalan,Sounds/cat_poma.mp3,2020-06-12_12h49.16.035,TranslationElicitation_spa,3.2.4,Win32,60,5ede212260122c03b3a4c676,,1,0,80,64,1,79
,,,,,,,,,,,,,,,,,,,,,,,,,,,,,,,,,,,a,3.263000011,CREMA,FALSE,,,,,,,172,poma,Catalan,Sounds/cat_poma.mp3,2020-06-12_12h49.16.035,TranslationElicitation_spa,3.2.4,Win32,60,5ede212260122c03b3a4c676,,1,0,80,64,1,79
,,,,,,,,,,,,,,,,,,,,,,,,,,,,,,,,,,,return,4.14199996,,FALSE,,,,,,,172,poma,Catalan,Sounds/cat_poma.mp3,2020-06-12_12h49.16.035,TranslationElicitation_spa,3.2.4,Win32,60,5ede212260122c03b3a4c676,4.14199996,1,0,80,64,1,79
,,,,,,,,,,,,,,,,,,,,,,,,,,,,,,,,,,,,,,,,,,,,,172,poma,Catalan,Sounds/cat_poma.mp3,2020-06-12_12h49.16.035,TranslationElicitation_spa,3.2.4,Win32,60,5ede212260122c03b3a4c676,,1,0,80,64,1,79
,,,,,,,,,,,,,,,,,,,,,,,,,,,,,,,,,,,c,1.463000059,C,FALSE,,,,,,,122,casa,Catalan,Sounds/cat_casa.mp3,2020-06-12_12h49.16.035,TranslationElicitation_spa,3.2.4,Win32,60,5ede212260122c03b3a4c676,,1,0,80,17,1,79
,,,,,,,,,,,,,,,,,,,,,,,,,,,,,,,,,,,a,1.663000107,CA,FALSE,,,,,,,122,casa,Catalan,Sounds/cat_casa.mp3,2020-06-12_12h49.16.035,TranslationElicitation_spa,3.2.4,Win32,60,5ede212260122c03b3a4c676,,1,0,80,17,1,79
,,,,,,,,,,,,,,,,,,,,,,,,,,,,,,,,,,,s,1.763000011,CAS,FALSE,,,,,,,122,casa,Catalan,Sounds/cat_casa.mp3,2020-06-12_12h49.16.035,TranslationElicitation_spa,3.2.4,Win32,60,5ede212260122c03b3a4c676,,1,0,80,17,1,79
,,,,,,,,,,,,,,,,,,,,,,,,,,,,,,,,,,,a,1.897000074,CASA,FALSE,,,,,,,122,casa,Catalan,Sounds/cat_casa.mp3,2020-06-12_12h49.16.035,TranslationElicitation_spa,3.2.4,Win32,60,5ede212260122c03b3a4c676,,1,0,80,17,1,79
,,,,,,,,,,,,,,,,,,,,,,,,,,,,,,,,,,,return,2.213000059,,FALSE,,,,,,,122,casa,Catalan,Sounds/cat_casa.mp3,2020-06-12_12h49.16.035,TranslationElicitation_spa,3.2.4,Win32,60,5ede212260122c03b3a4c676,2.213000059,1,0,80,17,1,79
,,,,,,,,,,,,,,,,,,,,,,,,,,,,,,,,,,,,,,,,,,,,,122,casa,Catalan,Sounds/cat_casa.mp3,2020-06-12_12h49.16.035,TranslationElicitation_spa,3.2.4,Win32,60,5ede212260122c03b3a4c676,,1,0,80,17,1,79
,,,,,,,,,,,,,,,,,,,,,,,,,,,,,,,,,,,l,1.580000162,L,FALSE,,,,,,,143,globus,Catalan,Sounds/cat_globus.mp3,2020-06-12_12h49.16.035,TranslationElicitation_spa,3.2.4,Win32,60,5ede212260122c03b3a4c676,,1,0,80,38,1,79
,,,,,,,,,,,,,,,,,,,,,,,,,,,,,,,,,,,backspace,2.762000084,,TRUE,,,,,,,143,globus,Catalan,Sounds/cat_globus.mp3,2020-06-12_12h49.16.035,TranslationElicitation_spa,3.2.4,Win32,60,5ede212260122c03b3a4c676,,1,0,80,38,1,79
,,,,,,,,,,,,,,,,,,,,,,,,,,,,,,,,,,,g,3.129000187,G,TRUE,,,,,,,143,globus,Catalan,Sounds/cat_globus.mp3,2020-06-12_12h49.16.035,TranslationElicitation_spa,3.2.4,Win32,60,5ede212260122c03b3a4c676,,1,0,80,38,1,79
,,,,,,,,,,,,,,,,,,,,,,,,,,,,,,,,,,,l,3.279000044,GL,TRUE,,,,,,,143,globus,Catalan,Sounds/cat_globus.mp3,2020-06-12_12h49.16.035,TranslationElicitation_spa,3.2.4,Win32,60,5ede212260122c03b3a4c676,,1,0,80,38,1,79
,,,,,,,,,,,,,,,,,,,,,,,,,,,,,,,,,,,o,3.511000156,GLO,TRUE,,,,,,,143,globus,Catalan,Sounds/cat_globus.mp3,2020-06-12_12h49.16.035,TranslationElicitation_spa,3.2.4,Win32,60,5ede212260122c03b3a4c676,,1,0,80,38,1,79
,,,,,,,,,,,,,,,,,,,,,,,,,,,,,,,,,,,b,3.595000029,GLOB,TRUE,,,,,,,143,globus,Catalan,Sounds/cat_globus.mp3,2020-06-12_12h49.16.035,TranslationElicitation_spa,3.2.4,Win32,60,5ede212260122c03b3a4c676,,1,0,80,38,1,79
,,,,,,,,,,,,,,,,,,,,,,,,,,,,,,,,,,,o,3.711000204,GLOBO,TRUE,,,,,,,143,globus,Catalan,Sounds/cat_globus.mp3,2020-06-12_12h49.16.035,TranslationElicitation_spa,3.2.4,Win32,60,5ede212260122c03b3a4c676,,1,0,80,38,1,79
,,,,,,,,,,,,,,,,,,,,,,,,,,,,,,,,,,,s,3.929000139,GLOBOS,TRUE,,,,,,,143,globus,Catalan,Sounds/cat_globus.mp3,2020-06-12_12h49.16.035,TranslationElicitation_spa,3.2.4,Win32,60,5ede212260122c03b3a4c676,,1,0,80,38,1,79
,,,,,,,,,,,,,,,,,,,,,,,,,,,,,,,,,,,return,4.460000038,,TRUE,,,,,,,143,globus,Catalan,Sounds/cat_globus.mp3,2020-06-12_12h49.16.035,TranslationElicitation_spa,3.2.4,Win32,60,5ede212260122c03b3a4c676,4.460000038,1,0,80,38,1,79
,,,,,,,,,,,,,,,,,,,,,,,,,,,,,,,,,,,,,,,,,,,,,143,globus,Catalan,Sounds/cat_globus.mp3,2020-06-12_12h49.16.035,TranslationElicitation_spa,3.2.4,Win32,60,5ede212260122c03b3a4c676,,1,0,80,38,1,79
,,,,,,,,,,,,,,,,,,,,,,,,,,,,,,,,,,,h,1.529999971,H,FALSE,,,,,,,161,ovella,Catalan,Sounds/cat_ovella.mp3,2020-06-12_12h49.16.035,TranslationElicitation_spa,3.2.4,Win32,60,5ede212260122c03b3a4c676,,1,0,80,54,1,79
,,,,,,,,,,,,,,,,,,,,,,,,,,,,,,,,,,,u,1.913999796,HU,FALSE,,,,,,,161,ovella,Catalan,Sounds/cat_ovella.mp3,2020-06-12_12h49.16.035,TranslationElicitation_spa,3.2.4,Win32,60,5ede212260122c03b3a4c676,,1,0,80,54,1,79
,,,,,,,,,,,,,,,,,,,,,,,,,,,,,,,,,,,e,2.062999964,HUE,FALSE,,,,,,,161,ovella,Catalan,Sounds/cat_ovella.mp3,2020-06-12_12h49.16.035,TranslationElicitation_spa,3.2.4,Win32,60,5ede212260122c03b3a4c676,,1,0,80,54,1,79
,,,,,,,,,,,,,,,,,,,,,,,,,,,,,,,,,,,l,2.263999939,HUEL,FALSE,,,,,,,161,ovella,Catalan,Sounds/cat_ovella.mp3,2020-06-12_12h49.16.035,TranslationElicitation_spa,3.2.4,Win32,60,5ede212260122c03b3a4c676,,1,0,80,54,1,79
,,,,,,,,,,,,,,,,,,,,,,,,,,,,,,,,,,,l,2.429999828,HUELL,FALSE,,,,,,,161,ovella,Catalan,Sounds/cat_ovella.mp3,2020-06-12_12h49.16.035,TranslationElicitation_spa,3.2.4,Win32,60,5ede212260122c03b3a4c676,,1,0,80,54,1,79
,,,,,,,,,,,,,,,,,,,,,,,,,,,,,,,,,,,a,2.529999971,HUELLA,FALSE,,,,,,,161,ovella,Catalan,Sounds/cat_ovella.mp3,2020-06-12_12h49.16.035,TranslationElicitation_spa,3.2.4,Win32,60,5ede212260122c03b3a4c676,,1,0,80,54,1,79
,,,,,,,,,,,,,,,,,,,,,,,,,,,,,,,,,,,return,2.745999813,,FALSE,,,,,,,161,ovella,Catalan,Sounds/cat_ovella.mp3,2020-06-12_12h49.16.035,TranslationElicitation_spa,3.2.4,Win32,60,5ede212260122c03b3a4c676,2.745999813,1,0,80,54,1,79
,,,,,,,,,,,,,,,,,,,,,,,,,,,,,,,,,,,,,,,,,,,,,161,ovella,Catalan,Sounds/cat_ovella.mp3,2020-06-12_12h49.16.035,TranslationElicitation_spa,3.2.4,Win32,60,5ede212260122c03b3a4c676,,1,0,80,54,1,79
,,,,,,,,,,,,,,,,,,,,,,,,,,,,,,,,,,,c,1.447000027,C,FALSE,,,,,,,121,camisa,Catalan,Sounds/cat_camisa.mp3,2020-06-12_12h49.16.035,TranslationElicitation_spa,3.2.4,Win32,60,5ede212260122c03b3a4c676,,1,0,80,16,1,79
,,,,,,,,,,,,,,,,,,,,,,,,,,,,,,,,,,,a,1.646999836,CA,FALSE,,,,,,,121,camisa,Catalan,Sounds/cat_camisa.mp3,2020-06-12_12h49.16.035,TranslationElicitation_spa,3.2.4,Win32,60,5ede212260122c03b3a4c676,,1,0,80,16,1,79
,,,,,,,,,,,,,,,,,,,,,,,,,,,,,,,,,,,m,1.763000011,CAM,FALSE,,,,,,,121,camisa,Catalan,Sounds/cat_camisa.mp3,2020-06-12_12h49.16.035,TranslationElicitation_spa,3.2.4,Win32,60,5ede212260122c03b3a4c676,,1,0,80,16,1,79
,,,,,,,,,,,,,,,,,,,,,,,,,,,,,,,,,,,i,1.962999821,CAMI,FALSE,,,,,,,121,camisa,Catalan,Sounds/cat_camisa.mp3,2020-06-12_12h49.16.035,TranslationElicitation_spa,3.2.4,Win32,60,5ede212260122c03b3a4c676,,1,0,80,16,1,79
,,,,,,,,,,,,,,,,,,,,,,,,,,,,,,,,,,,s,2.062999964,CAMIS,FALSE,,,,,,,121,camisa,Catalan,Sounds/cat_camisa.mp3,2020-06-12_12h49.16.035,TranslationElicitation_spa,3.2.4,Win32,60,5ede212260122c03b3a4c676,,1,0,80,16,1,79
,,,,,,,,,,,,,,,,,,,,,,,,,,,,,,,,,,,a,2.128999949,CAMISA,FALSE,,,,,,,121,camisa,Catalan,Sounds/cat_camisa.mp3,2020-06-12_12h49.16.035,TranslationElicitation_spa,3.2.4,Win32,60,5ede212260122c03b3a4c676,,1,0,80,16,1,79
,,,,,,,,,,,,,,,,,,,,,,,,,,,,,,,,,,,return,2.561999798,,FALSE,,,,,,,121,camisa,Catalan,Sounds/cat_camisa.mp3,2020-06-12_12h49.16.035,TranslationElicitation_spa,3.2.4,Win32,60,5ede212260122c03b3a4c676,2.561999798,1,0,80,16,1,79
,,,,,,,,,,,,,,,,,,,,,,,,,,,,,,,,,,,,,,,,,,,,,121,camisa,Catalan,Sounds/cat_camisa.mp3,2020-06-12_12h49.16.035,TranslationElicitation_spa,3.2.4,Win32,60,5ede212260122c03b3a4c676,,1,0,80,16,1,79
,,,,,,,,,,,,,,,,,,,,,,,,,,,,,,,,,,,p,2.246000051,P,FALSE,,,,,,,162,pa,Catalan,Sounds/cat_pa.mp3,2020-06-12_12h49.16.035,TranslationElicitation_spa,3.2.4,Win32,60,5ede212260122c03b3a4c676,,1,0,80,55,1,79
,,,,,,,,,,,,,,,,,,,,,,,,,,,,,,,,,,,a,2.378999949,PA,FALSE,,,,,,,162,pa,Catalan,Sounds/cat_pa.mp3,2020-06-12_12h49.16.035,TranslationElicitation_spa,3.2.4,Win32,60,5ede212260122c03b3a4c676,,1,0,80,55,1,79
,,,,,,,,,,,,,,,,,,,,,,,,,,,,,,,,,,,n,2.478999853,PAN,FALSE,,,,,,,162,pa,Catalan,Sounds/cat_pa.mp3,2020-06-12_12h49.16.035,TranslationElicitation_spa,3.2.4,Win32,60,5ede212260122c03b3a4c676,,1,0,80,55,1,79
,,,,,,,,,,,,,,,,,,,,,,,,,,,,,,,,,,,return,2.961999893,,FALSE,,,,,,,162,pa,Catalan,Sounds/cat_pa.mp3,2020-06-12_12h49.16.035,TranslationElicitation_spa,3.2.4,Win32,60,5ede212260122c03b3a4c676,2.961999893,1,0,80,55,1,79
,,,,,,,,,,,,,,,,,,,,,,,,,,,,,,,,,,,,,,,,,,,,,162,pa,Catalan,Sounds/cat_pa.mp3,2020-06-12_12h49.16.035,TranslationElicitation_spa,3.2.4,Win32,60,5ede212260122c03b3a4c676,,1,0,80,55,1,79
,,,,,,,,,,,,,,,,,,,,,,,,,,,,,,,,,,,b,1.914000034,B,FALSE,,,,,,,111,bibero,Catalan,Sounds/cat_bibero.mp3,2020-06-12_12h49.16.035,TranslationElicitation_spa,3.2.4,Win32,60,5ede212260122c03b3a4c676,,1,0,80,6,1,79
,,,,,,,,,,,,,,,,,,,,,,,,,,,,,,,,,,,i,2.04700017,BI,FALSE,,,,,,,111,bibero,Catalan,Sounds/cat_bibero.mp3,2020-06-12_12h49.16.035,TranslationElicitation_spa,3.2.4,Win32,60,5ede212260122c03b3a4c676,,1,0,80,6,1,79
,,,,,,,,,,,,,,,,,,,,,,,,,,,,,,,,,,,b,2.147000074,BIB,FALSE,,,,,,,111,bibero,Catalan,Sounds/cat_bibero.mp3,2020-06-12_12h49.16.035,TranslationElicitation_spa,3.2.4,Win32,60,5ede212260122c03b3a4c676,,1,0,80,6,1,79
,,,,,,,,,,,,,,,,,,,,,,,,,,,,,,,,,,,e,2.264000177,BIBE,FALSE,,,,,,,111,bibero,Catalan,Sounds/cat_bibero.mp3,2020-06-12_12h49.16.035,TranslationElicitation_spa,3.2.4,Win32,60,5ede212260122c03b3a4c676,,1,0,80,6,1,79
,,,,,,,,,,,,,,,,,,,,,,,,,,,,,,,,,,,r,2.430000067,BIBER,FALSE,,,,,,,111,bibero,Catalan,Sounds/cat_bibero.mp3,2020-06-12_12h49.16.035,TranslationElicitation_spa,3.2.4,Win32,60,5ede212260122c03b3a4c676,,1,0,80,6,1,79
,,,,,,,,,,,,,,,,,,,,,,,,,,,,,,,,,,,o,2.546000004,BIBERO,FALSE,,,,,,,111,bibero,Catalan,Sounds/cat_bibero.mp3,2020-06-12_12h49.16.035,TranslationElicitation_spa,3.2.4,Win32,60,5ede212260122c03b3a4c676,,1,0,80,6,1,79
,,,,,,,,,,,,,,,,,,,,,,,,,,,,,,,,,,,n,2.707999945,BIBERON,FALSE,,,,,,,111,bibero,Catalan,Sounds/cat_bibero.mp3,2020-06-12_12h49.16.035,TranslationElicitation_spa,3.2.4,Win32,60,5ede212260122c03b3a4c676,,1,0,80,6,1,79
,,,,,,,,,,,,,,,,,,,,,,,,,,,,,,,,,,,return,3.029000044,,FALSE,,,,,,,111,bibero,Catalan,Sounds/cat_bibero.mp3,2020-06-12_12h49.16.035,TranslationElicitation_spa,3.2.4,Win32,60,5ede212260122c03b3a4c676,3.029000044,1,0,80,6,1,79
,,,,,,,,,,,,,,,,,,,,,,,,,,,,,,,,,,,,,,,,,,,,,111,bibero,Catalan,Sounds/cat_bibero.mp3,2020-06-12_12h49.16.035,TranslationElicitation_spa,3.2.4,Win32,60,5ede212260122c03b3a4c676,,1,0,80,6,1,79
,,,,,,,,,,,,,,,,,,,,,,,,,,,,,,,,,,,g,2.213000059,G,FALSE,,,,,,,140,gat,Catalan,Sounds/cat_gat.mp3,2020-06-12_12h49.16.035,TranslationElicitation_spa,3.2.4,Win32,60,5ede212260122c03b3a4c676,,1,0,80,35,1,79
,,,,,,,,,,,,,,,,,,,,,,,,,,,,,,,,,,,a,2.429000139,GA,FALSE,,,,,,,140,gat,Catalan,Sounds/cat_gat.mp3,2020-06-12_12h49.16.035,TranslationElicitation_spa,3.2.4,Win32,60,5ede212260122c03b3a4c676,,1,0,80,35,1,79
,,,,,,,,,,,,,,,,,,,,,,,,,,,,,,,,,,,t,2.611999989,GAT,FALSE,,,,,,,140,gat,Catalan,Sounds/cat_gat.mp3,2020-06-12_12h49.16.035,TranslationElicitation_spa,3.2.4,Win32,60,5ede212260122c03b3a4c676,,1,0,80,35,1,79
,,,,,,,,,,,,,,,,,,,,,,,,,,,,,,,,,,,o,2.763000011,GATO,FALSE,,,,,,,140,gat,Catalan,Sounds/cat_gat.mp3,2020-06-12_12h49.16.035,TranslationElicitation_spa,3.2.4,Win32,60,5ede212260122c03b3a4c676,,1,0,80,35,1,79
,,,,,,,,,,,,,,,,,,,,,,,,,,,,,,,,,,,return,3.177999973,,FALSE,,,,,,,140,gat,Catalan,Sounds/cat_gat.mp3,2020-06-12_12h49.16.035,TranslationElicitation_spa,3.2.4,Win32,60,5ede212260122c03b3a4c676,3.177999973,1,0,80,35,1,79
,,,,,,,,,,,,,,,,,,,,,,,,,,,,,,,,,,,,,,,,,,,,,140,gat,Catalan,Sounds/cat_gat.mp3,2020-06-12_12h49.16.035,TranslationElicitation_spa,3.2.4,Win32,60,5ede212260122c03b3a4c676,,1,0,80,35,1,79
,,,,,,,,,,,,,,,,,,,,,,,,,,,,,,,,,,,v,2.896999836,V,FALSE,,,,,,,110,berenar,Catalan,Sounds/cat_berenar.mp3,2020-06-12_12h49.16.035,TranslationElicitation_spa,3.2.4,Win32,60,5ede212260122c03b3a4c676,,1,0,80,5,1,79
,,,,,,,,,,,,,,,,,,,,,,,,,,,,,,,,,,,e,3.078999996,VE,FALSE,,,,,,,110,berenar,Catalan,Sounds/cat_berenar.mp3,2020-06-12_12h49.16.035,TranslationElicitation_spa,3.2.4,Win32,60,5ede212260122c03b3a4c676,,1,0,80,5,1,79
,,,,,,,,,,,,,,,,,,,,,,,,,,,,,,,,,,,n,3.194999933,VEN,FALSE,,,,,,,110,berenar,Catalan,Sounds/cat_berenar.mp3,2020-06-12_12h49.16.035,TranslationElicitation_spa,3.2.4,Win32,60,5ede212260122c03b3a4c676,,1,0,80,5,1,79
,,,,,,,,,,,,,,,,,,,,,,,,,,,,,,,,,,,i,3.411999941,VENI,FALSE,,,,,,,110,berenar,Catalan,Sounds/cat_berenar.mp3,2020-06-12_12h49.16.035,TranslationElicitation_spa,3.2.4,Win32,60,5ede212260122c03b3a4c676,,1,0,80,5,1,79
,,,,,,,,,,,,,,,,,,,,,,,,,,,,,,,,,,,r,3.527999878,VENIR,FALSE,,,,,,,110,berenar,Catalan,Sounds/cat_berenar.mp3,2020-06-12_12h49.16.035,TranslationElicitation_spa,3.2.4,Win32,60,5ede212260122c03b3a4c676,,1,0,80,5,1,79
,,,,,,,,,,,,,,,,,,,,,,,,,,,,,,,,,,,return,4.77699995,,FALSE,,,,,,,110,berenar,Catalan,Sounds/cat_berenar.mp3,2020-06-12_12h49.16.035,TranslationElicitation_spa,3.2.4,Win32,60,5ede212260122c03b3a4c676,4.77699995,1,0,80,5,1,79
,,,,,,,,,,,,,,,,,,,,,,,,,,,,,,,,,,,,,,,,,,,,,110,berenar,Catalan,Sounds/cat_berenar.mp3,2020-06-12_12h49.16.035,TranslationElicitation_spa,3.2.4,Win32,60,5ede212260122c03b3a4c676,,1,0,80,5,1,79
,,,,,,,,,,,,,,,,,,,,,,,,,,,,,,,,,,,m,3.409999847,M,FALSE,,,,,,,152,ma,Catalan,Sounds/cat_ma.mp3,2020-06-12_12h49.16.035,TranslationElicitation_spa,3.2.4,Win32,60,5ede212260122c03b3a4c676,,1,0,80,46,1,79
,,,,,,,,,,,,,,,,,,,,,,,,,,,,,,,,,,,a,3.52699995,MA,FALSE,,,,,,,152,ma,Catalan,Sounds/cat_ma.mp3,2020-06-12_12h49.16.035,TranslationElicitation_spa,3.2.4,Win32,60,5ede212260122c03b3a4c676,,1,0,80,46,1,79
,,,,,,,,,,,,,,,,,,,,,,,,,,,,,,,,,,,s,3.643999815,MAS,FALSE,,,,,,,152,ma,Catalan,Sounds/cat_ma.mp3,2020-06-12_12h49.16.035,TranslationElicitation_spa,3.2.4,Win32,60,5ede212260122c03b3a4c676,,1,0,80,46,1,79
,,,,,,,,,,,,,,,,,,,,,,,,,,,,,,,,,,,return,3.909999847,,FALSE,,,,,,,152,ma,Catalan,Sounds/cat_ma.mp3,2020-06-12_12h49.16.035,TranslationElicitation_spa,3.2.4,Win32,60,5ede212260122c03b3a4c676,3.909999847,1,0,80,46,1,79
,,,,,,,,,,,,,,,,,,,,,,,,,,,,,,,,,,,,,,,,,,,,,152,ma,Catalan,Sounds/cat_ma.mp3,2020-06-12_12h49.16.035,TranslationElicitation_spa,3.2.4,Win32,60,5ede212260122c03b3a4c676,,1,0,80,46,1,79
,,,,,,,,,,,,,,,,,,,,,,,,,,,,,,,,,,,d,2.628000021,D,FALSE,,,,,,,129,dit,Catalan,Sounds/cat_dit.mp3,2020-06-12_12h49.16.035,TranslationElicitation_spa,3.2.4,Win32,60,5ede212260122c03b3a4c676,,1,0,80,24,1,79
,,,,,,,,,,,,,,,,,,,,,,,,,,,,,,,,,,,e,2.727999926,DE,FALSE,,,,,,,129,dit,Catalan,Sounds/cat_dit.mp3,2020-06-12_12h49.16.035,TranslationElicitation_spa,3.2.4,Win32,60,5ede212260122c03b3a4c676,,1,0,80,24,1,79
,,,,,,,,,,,,,,,,,,,,,,,,,,,,,,,,,,,c,2.928999901,DEC,FALSE,,,,,,,129,dit,Catalan,Sounds/cat_dit.mp3,2020-06-12_12h49.16.035,TranslationElicitation_spa,3.2.4,Win32,60,5ede212260122c03b3a4c676,,1,0,80,24,1,79
,,,,,,,,,,,,,,,,,,,,,,,,,,,,,,,,,,,i,3.076999903,DECI,FALSE,,,,,,,129,dit,Catalan,Sounds/cat_dit.mp3,2020-06-12_12h49.16.035,TranslationElicitation_spa,3.2.4,Win32,60,5ede212260122c03b3a4c676,,1,0,80,24,1,79
,,,,,,,,,,,,,,,,,,,,,,,,,,,,,,,,,,,r,3.226999998,DECIR,FALSE,,,,,,,129,dit,Catalan,Sounds/cat_dit.mp3,2020-06-12_12h49.16.035,TranslationElicitation_spa,3.2.4,Win32,60,5ede212260122c03b3a4c676,,1,0,80,24,1,79
,,,,,,,,,,,,,,,,,,,,,,,,,,,,,,,,,,,return,4.592000008,,FALSE,,,,,,,129,dit,Catalan,Sounds/cat_dit.mp3,2020-06-12_12h49.16.035,TranslationElicitation_spa,3.2.4,Win32,60,5ede212260122c03b3a4c676,4.592000008,1,0,80,24,1,79
,,,,,,,,,,,,,,,,,,,,,,,,,,,,,,,,,,,,,,,,,,,,,129,dit,Catalan,Sounds/cat_dit.mp3,2020-06-12_12h49.16.035,TranslationElicitation_spa,3.2.4,Win32,60,5ede212260122c03b3a4c676,,1,0,80,24,1,79
,,,,,,,,,,,,,,,,,,,,,,,,,,,,,,,,,,,c,1.613000154,C,FALSE,,,,,,,123,cavall,Catalan,Sounds/cat_cavall.mp3,2020-06-12_12h49.16.035,TranslationElicitation_spa,3.2.4,Win32,60,5ede212260122c03b3a4c676,,1,0,80,18,1,79
,,,,,,,,,,,,,,,,,,,,,,,,,,,,,,,,,,,a,1.846000195,CA,FALSE,,,,,,,123,cavall,Catalan,Sounds/cat_cavall.mp3,2020-06-12_12h49.16.035,TranslationElicitation_spa,3.2.4,Win32,60,5ede212260122c03b3a4c676,,1,0,80,18,1,79
,,,,,,,,,,,,,,,,,,,,,,,,,,,,,,,,,,,b,2.029000044,CAB,FALSE,,,,,,,123,cavall,Catalan,Sounds/cat_cavall.mp3,2020-06-12_12h49.16.035,TranslationElicitation_spa,3.2.4,Win32,60,5ede212260122c03b3a4c676,,1,0,80,18,1,79
,,,,,,,,,,,,,,,,,,,,,,,,,,,,,,,,,,,a,2.163000107,CABA,FALSE,,,,,,,123,cavall,Catalan,Sounds/cat_cavall.mp3,2020-06-12_12h49.16.035,TranslationElicitation_spa,3.2.4,Win32,60,5ede212260122c03b3a4c676,,1,0,80,18,1,79
,,,,,,,,,,,,,,,,,,,,,,,,,,,,,,,,,,,l,2.312000036,CABAL,FALSE,,,,,,,123,cavall,Catalan,Sounds/cat_cavall.mp3,2020-06-12_12h49.16.035,TranslationElicitation_spa,3.2.4,Win32,60,5ede212260122c03b3a4c676,,1,0,80,18,1,79
,,,,,,,,,,,,,,,,,,,,,,,,,,,,,,,,,,,l,2.462000132,CABALL,FALSE,,,,,,,123,cavall,Catalan,Sounds/cat_cavall.mp3,2020-06-12_12h49.16.035,TranslationElicitation_spa,3.2.4,Win32,60,5ede212260122c03b3a4c676,,1,0,80,18,1,79
,,,,,,,,,,,,,,,,,,,,,,,,,,,,,,,,,,,o,2.696000099,CABALLO,FALSE,,,,,,,123,cavall,Catalan,Sounds/cat_cavall.mp3,2020-06-12_12h49.16.035,TranslationElicitation_spa,3.2.4,Win32,60,5ede212260122c03b3a4c676,,1,0,80,18,1,79
,,,,,,,,,,,,,,,,,,,,,,,,,,,,,,,,,,,return,4.111999989,,FALSE,,,,,,,123,cavall,Catalan,Sounds/cat_cavall.mp3,2020-06-12_12h49.16.035,TranslationElicitation_spa,3.2.4,Win32,60,5ede212260122c03b3a4c676,4.111999989,1,0,80,18,1,79
,,,,,,,,,,,,,,,,,,,,,,,,,,,,,,,,,,,,,,,,,,,,,123,cavall,Catalan,Sounds/cat_cavall.mp3,2020-06-12_12h49.16.035,TranslationElicitation_spa,3.2.4,Win32,60,5ede212260122c03b3a4c676,,1,0,80,18,1,79
,,,,,,,,,,,,,,,,,,,,,,,,,,,,,,,,,,,g,1.863000154,G,FALSE,,,,,,,144,gorra,Catalan,Sounds/cat_gorra.mp3,2020-06-12_12h49.16.035,TranslationElicitation_spa,3.2.4,Win32,60,5ede212260122c03b3a4c676,,1,0,80,39,1,79
,,,,,,,,,,,,,,,,,,,,,,,,,,,,,,,,,,,o,1.963000059,GO,FALSE,,,,,,,144,gorra,Catalan,Sounds/cat_gorra.mp3,2020-06-12_12h49.16.035,TranslationElicitation_spa,3.2.4,Win32,60,5ede212260122c03b3a4c676,,1,0,80,39,1,79
,,,,,,,,,,,,,,,,,,,,,,,,,,,,,,,,,,,r,2.163000107,GOR,FALSE,,,,,,,144,gorra,Catalan,Sounds/cat_gorra.mp3,2020-06-12_12h49.16.035,TranslationElicitation_spa,3.2.4,Win32,60,5ede212260122c03b3a4c676,,1,0,80,39,1,79
,,,,,,,,,,,,,,,,,,,,,,,,,,,,,,,,,,,r,2.329999924,GORR,FALSE,,,,,,,144,gorra,Catalan,Sounds/cat_gorra.mp3,2020-06-12_12h49.16.035,TranslationElicitation_spa,3.2.4,Win32,60,5ede212260122c03b3a4c676,,1,0,80,39,1,79
,,,,,,,,,,,,,,,,,,,,,,,,,,,,,,,,,,,a,2.513000011,GORRA,FALSE,,,,,,,144,gorra,Catalan,Sounds/cat_gorra.mp3,2020-06-12_12h49.16.035,TranslationElicitation_spa,3.2.4,Win32,60,5ede212260122c03b3a4c676,,1,0,80,39,1,79
,,,,,,,,,,,,,,,,,,,,,,,,,,,,,,,,,,,return,2.762000084,,FALSE,,,,,,,144,gorra,Catalan,Sounds/cat_gorra.mp3,2020-06-12_12h49.16.035,TranslationElicitation_spa,3.2.4,Win32,60,5ede212260122c03b3a4c676,2.762000084,1,0,80,39,1,79
,,,,,,,,,,,,,,,,,,,,,,,,,,,,,,,,,,,,,,,,,,,,,144,gorra,Catalan,Sounds/cat_gorra.mp3,2020-06-12_12h49.16.035,TranslationElicitation_spa,3.2.4,Win32,60,5ede212260122c03b3a4c676,,1,0,80,39,1,79
,,,,,,,,,,,,,,,,,,,,,,,,,,,,,,,,,,,e,1.531000137,E,FALSE,,,,,,,132,estrella,Catalan,Sounds/cat_estrella.mp3,2020-06-12_12h49.16.035,TranslationElicitation_spa,3.2.4,Win32,60,5ede212260122c03b3a4c676,,1,0,80,27,1,79
,,,,,,,,,,,,,,,,,,,,,,,,,,,,,,,,,,,s,1.730000019,ES,FALSE,,,,,,,132,estrella,Catalan,Sounds/cat_estrella.mp3,2020-06-12_12h49.16.035,TranslationElicitation_spa,3.2.4,Win32,60,5ede212260122c03b3a4c676,,1,0,80,27,1,79
,,,,,,,,,,,,,,,,,,,,,,,,,,,,,,,,,,,t,1.930000067,EST,FALSE,,,,,,,132,estrella,Catalan,Sounds/cat_estrella.mp3,2020-06-12_12h49.16.035,TranslationElicitation_spa,3.2.4,Win32,60,5ede212260122c03b3a4c676,,1,0,80,27,1,79
,,,,,,,,,,,,,,,,,,,,,,,,,,,,,,,,,,,r,2.112999916,ESTR,FALSE,,,,,,,132,estrella,Catalan,Sounds/cat_estrella.mp3,2020-06-12_12h49.16.035,TranslationElicitation_spa,3.2.4,Win32,60,5ede212260122c03b3a4c676,,1,0,80,27,1,79
,,,,,,,,,,,,,,,,,,,,,,,,,,,,,,,,,,,e,2.147000074,ESTRE,FALSE,,,,,,,132,estrella,Catalan,Sounds/cat_estrella.mp3,2020-06-12_12h49.16.035,TranslationElicitation_spa,3.2.4,Win32,60,5ede212260122c03b3a4c676,,1,0,80,27,1,79
,,,,,,,,,,,,,,,,,,,,,,,,,,,,,,,,,,,l,2.328999996,ESTREL,FALSE,,,,,,,132,estrella,Catalan,Sounds/cat_estrella.mp3,2020-06-12_12h49.16.035,TranslationElicitation_spa,3.2.4,Win32,60,5ede212260122c03b3a4c676,,1,0,80,27,1,79
,,,,,,,,,,,,,,,,,,,,,,,,,,,,,,,,,,,l,2.496000051,ESTRELL,FALSE,,,,,,,132,estrella,Catalan,Sounds/cat_estrella.mp3,2020-06-12_12h49.16.035,TranslationElicitation_spa,3.2.4,Win32,60,5ede212260122c03b3a4c676,,1,0,80,27,1,79
,,,,,,,,,,,,,,,,,,,,,,,,,,,,,,,,,,,a,2.578999996,ESTRELLA,FALSE,,,,,,,132,estrella,Catalan,Sounds/cat_estrella.mp3,2020-06-12_12h49.16.035,TranslationElicitation_spa,3.2.4,Win32,60,5ede212260122c03b3a4c676,,1,0,80,27,1,79
,,,,,,,,,,,,,,,,,,,,,,,,,,,,,,,,,,,return,3.462000132,,FALSE,,,,,,,132,estrella,Catalan,Sounds/cat_estrella.mp3,2020-06-12_12h49.16.035,TranslationElicitation_spa,3.2.4,Win32,60,5ede212260122c03b3a4c676,3.462000132,1,0,80,27,1,79
,,,,,,,,,,,,,,,,,,,,,,,,,,,,,,,,,,,,,,,,,,,,,132,estrella,Catalan,Sounds/cat_estrella.mp3,2020-06-12_12h49.16.035,TranslationElicitation_spa,3.2.4,Win32,60,5ede212260122c03b3a4c676,,1,0,80,27,1,79
,,,,,,,,,,,,,,,,,,,,,,,,,,,,,,,,,,,t,1.46600008,T,FALSE,,,,,,,181,tobogan,Catalan,Sounds/cat_tobogan.mp3,2020-06-12_12h49.16.035,TranslationElicitation_spa,3.2.4,Win32,60,5ede212260122c03b3a4c676,,1,0,80,72,1,79
,,,,,,,,,,,,,,,,,,,,,,,,,,,,,,,,,,,o,1.61500001,TO,FALSE,,,,,,,181,tobogan,Catalan,Sounds/cat_tobogan.mp3,2020-06-12_12h49.16.035,TranslationElicitation_spa,3.2.4,Win32,60,5ede212260122c03b3a4c676,,1,0,80,72,1,79
,,,,,,,,,,,,,,,,,,,,,,,,,,,,,,,,,,,b,1.83100009,TOB,FALSE,,,,,,,181,tobogan,Catalan,Sounds/cat_tobogan.mp3,2020-06-12_12h49.16.035,TranslationElicitation_spa,3.2.4,Win32,60,5ede212260122c03b3a4c676,,1,0,80,72,1,79
,,,,,,,,,,,,,,,,,,,,,,,,,,,,,,,,,,,o,1.965000153,TOBO,FALSE,,,,,,,181,tobogan,Catalan,Sounds/cat_tobogan.mp3,2020-06-12_12h49.16.035,TranslationElicitation_spa,3.2.4,Win32,60,5ede212260122c03b3a4c676,,1,0,80,72,1,79
,,,,,,,,,,,,,,,,,,,,,,,,,,,,,,,,,,,g,2.148000002,TOBOG,FALSE,,,,,,,181,tobogan,Catalan,Sounds/cat_tobogan.mp3,2020-06-12_12h49.16.035,TranslationElicitation_spa,3.2.4,Win32,60,5ede212260122c03b3a4c676,,1,0,80,72,1,79
,,,,,,,,,,,,,,,,,,,,,,,,,,,,,,,,,,,a,2.463999987,TOBOGA,FALSE,,,,,,,181,tobogan,Catalan,Sounds/cat_tobogan.mp3,2020-06-12_12h49.16.035,TranslationElicitation_spa,3.2.4,Win32,60,5ede212260122c03b3a4c676,,1,0,80,72,1,79
,,,,,,,,,,,,,,,,,,,,,,,,,,,,,,,,,,,n,2.58100009,TOBOGAN,FALSE,,,,,,,181,tobogan,Catalan,Sounds/cat_tobogan.mp3,2020-06-12_12h49.16.035,TranslationElicitation_spa,3.2.4,Win32,60,5ede212260122c03b3a4c676,,1,0,80,72,1,79
,,,,,,,,,,,,,,,,,,,,,,,,,,,,,,,,,,,return,2.996000051,,FALSE,,,,,,,181,tobogan,Catalan,Sounds/cat_tobogan.mp3,2020-06-12_12h49.16.035,TranslationElicitation_spa,3.2.4,Win32,60,5ede212260122c03b3a4c676,2.996000051,1,0,80,72,1,79
,,,,,,,,,,,,,,,,,,,,,,,,,,,,,,,,,,,,,,,,,,,,,181,tobogan,Catalan,Sounds/cat_tobogan.mp3,2020-06-12_12h49.16.035,TranslationElicitation_spa,3.2.4,Win32,60,5ede212260122c03b3a4c676,,1,0,80,72,1,79
,,,,,,,,,,,,,,,,,,,,,,,,,,,,,,,,,,,g,3.926999807,G,FALSE,,,,,,,128,cuc,Catalan,Sounds/cat_cuc.mp3,2020-06-12_12h49.16.035,TranslationElicitation_spa,3.2.4,Win32,60,5ede212260122c03b3a4c676,,1,0,80,23,1,79
,,,,,,,,,,,,,,,,,,,,,,,,,,,,,,,,,,,a,4.142999887,GA,FALSE,,,,,,,128,cuc,Catalan,Sounds/cat_cuc.mp3,2020-06-12_12h49.16.035,TranslationElicitation_spa,3.2.4,Win32,60,5ede212260122c03b3a4c676,,1,0,80,23,1,79
,,,,,,,,,,,,,,,,,,,,,,,,,,,,,,,,,,,l,4.29399991,GAL,FALSE,,,,,,,128,cuc,Catalan,Sounds/cat_cuc.mp3,2020-06-12_12h49.16.035,TranslationElicitation_spa,3.2.4,Win32,60,5ede212260122c03b3a4c676,,1,0,80,23,1,79
,,,,,,,,,,,,,,,,,,,,,,,,,,,,,,,,,,,l,4.4599998,GALL,FALSE,,,,,,,128,cuc,Catalan,Sounds/cat_cuc.mp3,2020-06-12_12h49.16.035,TranslationElicitation_spa,3.2.4,Win32,60,5ede212260122c03b3a4c676,,1,0,80,23,1,79
,,,,,,,,,,,,,,,,,,,,,,,,,,,,,,,,,,,e,4.52699995,GALLE,FALSE,,,,,,,128,cuc,Catalan,Sounds/cat_cuc.mp3,2020-06-12_12h49.16.035,TranslationElicitation_spa,3.2.4,Win32,60,5ede212260122c03b3a4c676,,1,0,80,23,1,79
,,,,,,,,,,,,,,,,,,,,,,,,,,,,,,,,,,,t,4.69299984,GALLET,FALSE,,,,,,,128,cuc,Catalan,Sounds/cat_cuc.mp3,2020-06-12_12h49.16.035,TranslationElicitation_spa,3.2.4,Win32,60,5ede212260122c03b3a4c676,,1,0,80,23,1,79
,,,,,,,,,,,,,,,,,,,,,,,,,,,,,,,,,,,a,4.90899992,GALLETA,FALSE,,,,,,,128,cuc,Catalan,Sounds/cat_cuc.mp3,2020-06-12_12h49.16.035,TranslationElicitation_spa,3.2.4,Win32,60,5ede212260122c03b3a4c676,,1,0,80,23,1,79
,,,,,,,,,,,,,,,,,,,,,,,,,,,,,,,,,,,return,5.208999872,,FALSE,,,,,,,128,cuc,Catalan,Sounds/cat_cuc.mp3,2020-06-12_12h49.16.035,TranslationElicitation_spa,3.2.4,Win32,60,5ede212260122c03b3a4c676,5.208999872,1,0,80,23,1,79
,,,,,,,,,,,,,,,,,,,,,,,,,,,,,,,,,,,,,,,,,,,,,128,cuc,Catalan,Sounds/cat_cuc.mp3,2020-06-12_12h49.16.035,TranslationElicitation_spa,3.2.4,Win32,60,5ede212260122c03b3a4c676,,1,0,80,23,1,79
,,,,,,,,,,,,,,,,,,,,,,,,,,,,,,,,,,,e,1.897000074,E,FALSE,,,,,,,131,esponja,Catalan,Sounds/cat_esponja.mp3,2020-06-12_12h49.16.035,TranslationElicitation_spa,3.2.4,Win32,60,5ede212260122c03b3a4c676,,1,0,80,26,1,79
,,,,,,,,,,,,,,,,,,,,,,,,,,,,,,,,,,,s,2.080000162,ES,FALSE,,,,,,,131,esponja,Catalan,Sounds/cat_esponja.mp3,2020-06-12_12h49.16.035,TranslationElicitation_spa,3.2.4,Win32,60,5ede212260122c03b3a4c676,,1,0,80,26,1,79
,,,,,,,,,,,,,,,,,,,,,,,,,,,,,,,,,,,p,2.263000011,ESP,FALSE,,,,,,,131,esponja,Catalan,Sounds/cat_esponja.mp3,2020-06-12_12h49.16.035,TranslationElicitation_spa,3.2.4,Win32,60,5ede212260122c03b3a4c676,,1,0,80,26,1,79
,,,,,,,,,,,,,,,,,,,,,,,,,,,,,,,,,,,a,2.429000139,ESPA,FALSE,,,,,,,131,esponja,Catalan,Sounds/cat_esponja.mp3,2020-06-12_12h49.16.035,TranslationElicitation_spa,3.2.4,Win32,60,5ede212260122c03b3a4c676,,1,0,80,26,1,79
,,,,,,,,,,,,,,,,,,,,,,,,,,,,,,,,,,,semicolon,2.580000162,ESPA,FALSE,,,,,,,131,esponja,Catalan,Sounds/cat_esponja.mp3,2020-06-12_12h49.16.035,TranslationElicitation_spa,3.2.4,Win32,60,5ede212260122c03b3a4c676,,1,0,80,26,1,79
,,,,,,,,,,,,,,,,,,,,,,,,,,,,,,,,,,,a,2.679000139,ESPAA,FALSE,,,,,,,131,esponja,Catalan,Sounds/cat_esponja.mp3,2020-06-12_12h49.16.035,TranslationElicitation_spa,3.2.4,Win32,60,5ede212260122c03b3a4c676,,1,0,80,26,1,79
,,,,,,,,,,,,,,,,,,,,,,,,,,,,,,,,,,,return,3.597000122,,FALSE,,,,,,,131,esponja,Catalan,Sounds/cat_esponja.mp3,2020-06-12_12h49.16.035,TranslationElicitation_spa,3.2.4,Win32,60,5ede212260122c03b3a4c676,3.597000122,1,0,80,26,1,79
,,,,,,,,,,,,,,,,,,,,,,,,,,,,,,,,,,,,,,,,,,,,,131,esponja,Catalan,Sounds/cat_esponja.mp3,2020-06-12_12h49.16.035,TranslationElicitation_spa,3.2.4,Win32,60,5ede212260122c03b3a4c676,,1,0,80,26,1,79
,,,,,,,,,,,,,,,,,,,,,,,,,,,,,,,,,,,a,2.378999949,A,FALSE,,,,,,,141,gerd,Catalan,Sounds/cat_gerd.mp3,2020-06-12_12h49.16.035,TranslationElicitation_spa,3.2.4,Win32,60,5ede212260122c03b3a4c676,,1,0,80,36,1,79
,,,,,,,,,,,,,,,,,,,,,,,,,,,,,,,,,,,y,2.760999918,AY,FALSE,,,,,,,141,gerd,Catalan,Sounds/cat_gerd.mp3,2020-06-12_12h49.16.035,TranslationElicitation_spa,3.2.4,Win32,60,5ede212260122c03b3a4c676,,1,0,80,36,1,79
,,,,,,,,,,,,,,,,,,,,,,,,,,,,,,,,,,,e,3.027999878,AYE,FALSE,,,,,,,141,gerd,Catalan,Sounds/cat_gerd.mp3,2020-06-12_12h49.16.035,TranslationElicitation_spa,3.2.4,Win32,60,5ede212260122c03b3a4c676,,1,0,80,36,1,79
,,,,,,,,,,,,,,,,,,,,,,,,,,,,,,,,,,,r,3.128000021,AYER,FALSE,,,,,,,141,gerd,Catalan,Sounds/cat_gerd.mp3,2020-06-12_12h49.16.035,TranslationElicitation_spa,3.2.4,Win32,60,5ede212260122c03b3a4c676,,1,0,80,36,1,79
,,,,,,,,,,,,,,,,,,,,,,,,,,,,,,,,,,,return,3.50999999,,FALSE,,,,,,,141,gerd,Catalan,Sounds/cat_gerd.mp3,2020-06-12_12h49.16.035,TranslationElicitation_spa,3.2.4,Win32,60,5ede212260122c03b3a4c676,3.50999999,1,0,80,36,1,79
,,,,,,,,,,,,,,,,,,,,,,,,,,,,,,,,,,,,,,,,,,,,,141,gerd,Catalan,Sounds/cat_gerd.mp3,2020-06-12_12h49.16.035,TranslationElicitation_spa,3.2.4,Win32,60,5ede212260122c03b3a4c676,,1,0,80,36,1,79
,,,,,,,,,,,,,,,,,,,,,,,,,,,,,,,,,,,g,1.430999994,G,FALSE,,,,,,,142,girafa,Catalan,Sounds/cat_girafa.mp3,2020-06-12_12h49.16.035,TranslationElicitation_spa,3.2.4,Win32,60,5ede212260122c03b3a4c676,,1,0,80,37,1,79
,,,,,,,,,,,,,,,,,,,,,,,,,,,,,,,,,,,i,1.597000122,GI,FALSE,,,,,,,142,girafa,Catalan,Sounds/cat_girafa.mp3,2020-06-12_12h49.16.035,TranslationElicitation_spa,3.2.4,Win32,60,5ede212260122c03b3a4c676,,1,0,80,37,1,79
,,,,,,,,,,,,,,,,,,,,,,,,,,,,,,,,,,,r,1.713999987,GIR,FALSE,,,,,,,142,girafa,Catalan,Sounds/cat_girafa.mp3,2020-06-12_12h49.16.035,TranslationElicitation_spa,3.2.4,Win32,60,5ede212260122c03b3a4c676,,1,0,80,37,1,79
,,,,,,,,,,,,,,,,,,,,,,,,,,,,,,,,,,,a,1.947000027,GIRA,FALSE,,,,,,,142,girafa,Catalan,Sounds/cat_girafa.mp3,2020-06-12_12h49.16.035,TranslationElicitation_spa,3.2.4,Win32,60,5ede212260122c03b3a4c676,,1,0,80,37,1,79
,,,,,,,,,,,,,,,,,,,,,,,,,,,,,,,,,,,g,2.197000027,GIRAG,FALSE,,,,,,,142,girafa,Catalan,Sounds/cat_girafa.mp3,2020-06-12_12h49.16.035,TranslationElicitation_spa,3.2.4,Win32,60,5ede212260122c03b3a4c676,,1,0,80,37,1,79
,,,,,,,,,,,,,,,,,,,,,,,,,,,,,,,,,,,a,2.496999979,GIRAGA,FALSE,,,,,,,142,girafa,Catalan,Sounds/cat_girafa.mp3,2020-06-12_12h49.16.035,TranslationElicitation_spa,3.2.4,Win32,60,5ede212260122c03b3a4c676,,1,0,80,37,1,79
,,,,,,,,,,,,,,,,,,,,,,,,,,,,,,,,,,,backspace,3.032999992,GIRA,TRUE,,,,,,,142,girafa,Catalan,Sounds/cat_girafa.mp3,2020-06-12_12h49.16.035,TranslationElicitation_spa,3.2.4,Win32,60,5ede212260122c03b3a4c676,,1,0,80,37,1,79
,,,,,,,,,,,,,,,,,,,,,,,,,,,,,,,,,,,backspace,3.229000092,GI,TRUE,,,,,,,142,girafa,Catalan,Sounds/cat_girafa.mp3,2020-06-12_12h49.16.035,TranslationElicitation_spa,3.2.4,Win32,60,5ede212260122c03b3a4c676,,1,0,80,37,1,79
,,,,,,,,,,,,,,,,,,,,,,,,,,,,,,,,,,,r,4.177999973,GIR,TRUE,,,,,,,142,girafa,Catalan,Sounds/cat_girafa.mp3,2020-06-12_12h49.16.035,TranslationElicitation_spa,3.2.4,Win32,60,5ede212260122c03b3a4c676,,1,0,80,37,1,79
,,,,,,,,,,,,,,,,,,,,,,,,,,,,,,,,,,,a,4.378000021,GIRA,TRUE,,,,,,,142,girafa,Catalan,Sounds/cat_girafa.mp3,2020-06-12_12h49.16.035,TranslationElicitation_spa,3.2.4,Win32,60,5ede212260122c03b3a4c676,,1,0,80,37,1,79
,,,,,,,,,,,,,,,,,,,,,,,,,,,,,,,,,,,f,4.561000109,GIRAF,TRUE,,,,,,,142,girafa,Catalan,Sounds/cat_girafa.mp3,2020-06-12_12h49.16.035,TranslationElicitation_spa,3.2.4,Win32,60,5ede212260122c03b3a4c676,,1,0,80,37,1,79
,,,,,,,,,,,,,,,,,,,,,,,,,,,,,,,,,,,a,4.628000021,GIRAFA,TRUE,,,,,,,142,girafa,Catalan,Sounds/cat_girafa.mp3,2020-06-12_12h49.16.035,TranslationElicitation_spa,3.2.4,Win32,60,5ede212260122c03b3a4c676,,1,0,80,37,1,79
,,,,,,,,,,,,,,,,,,,,,,,,,,,,,,,,,,,return,5.092999935,,TRUE,,,,,,,142,girafa,Catalan,Sounds/cat_girafa.mp3,2020-06-12_12h49.16.035,TranslationElicitation_spa,3.2.4,Win32,60,5ede212260122c03b3a4c676,5.092999935,1,0,80,37,1,79
,,,,,,,,,,,,,,,,,,,,,,,,,,,,,,,,,,,,,,,,,,,,,142,girafa,Catalan,Sounds/cat_girafa.mp3,2020-06-12_12h49.16.035,TranslationElicitation_spa,3.2.4,Win32,60,5ede212260122c03b3a4c676,,1,0,80,37,1,79
