consentKey.keys,consentKey.rt,languageL1Key.keys,languageL1Key.rt,languageL2,languageL2OralKey.keys,languageL2OralKey.rt,languageL2WrittenKey.keys,languageL2WrittenKey.rt,languageL3OralKey.keys,languageL3OralKey.rt,languageL3WrittenKey.keys,languageL3WrittenKey.rt,languageCatalanOralKey.keys,languageCatalanOralKey.rt,languageCatalanWrittenKey.keys,languageCatalanWrittenKey.rt,languageCatalanTimeKey.keys,languageCatalanTimeKey.rt,age,demoSexKey.keys,demoSexKey.rt,demoEducationKey.keys,demoEducationKey.rt,city,demoVisionKey.keys,demoVisionKey.rt,demoLanguageKey.keys,demoLanguageKey.rt,setupLocationKey.keys,setupLocationKey.rt,setupNoiseKey.keys,setupNoiseKey.rt,instructionsKeys.keys,instructionsKeys.rt,keyPressed,keyPressTime,inputText,error,trials_practice.thisRepN,trials_practice.thisTrialN,trials_practice.thisN,trials_practice.thisIndex,trials_practice.ran,trials_practice.order,trial_id,word,test_language,soundfile,date,expName,psychopyVersion,OS,frameRate,participant,trialOffset,trials.thisRepN,trials.thisTrialN,trials.thisN,trials.thisIndex,trials.ran,trials.order
space,0.509000063,e,2.082000256,CUÁL,3,10.00800014,2,13.01300025,2,8.478000164,3,4.893000126,2,7.632000208,1,3.328000069,1,7.158000231,23,m,3.09800005,3,4.302000284,MURCIA,n,10.58100033,n,3.01699996,1,6.460000277,2,12.02100015,space,28.83300018,p,2.963999987,P,FALSE,1,0,5,3,1,4,167,pingui,Catalan,Sounds/cat_pingui.mp3,2020-06-09_16h04.11.481,TranslationElicitation_spa,3.2.4,Win32,60,5ede149fcff15e03097dded2,,,,,,,
,,,,,,,,,,,,,,,,,,,,,,,,,,,,,,,,,,,i,3.214999914,PI,FALSE,1,0,5,3,1,4,167,pingui,Catalan,Sounds/cat_pingui.mp3,2020-06-09_16h04.11.481,TranslationElicitation_spa,3.2.4,Win32,60,5ede149fcff15e03097dded2,,,,,,,
,,,,,,,,,,,,,,,,,,,,,,,,,,,,,,,,,,,n,3.449999809,PIN,FALSE,1,0,5,3,1,4,167,pingui,Catalan,Sounds/cat_pingui.mp3,2020-06-09_16h04.11.481,TranslationElicitation_spa,3.2.4,Win32,60,5ede149fcff15e03097dded2,,,,,,,
,,,,,,,,,,,,,,,,,,,,,,,,,,,,,,,,,,,g,3.616999865,PING,FALSE,1,0,5,3,1,4,167,pingui,Catalan,Sounds/cat_pingui.mp3,2020-06-09_16h04.11.481,TranslationElicitation_spa,3.2.4,Win32,60,5ede149fcff15e03097dded2,,,,,,,
,,,,,,,,,,,,,,,,,,,,,,,,,,,,,,,,,,,u,3.917999983,PINGU,FALSE,1,0,5,3,1,4,167,pingui,Catalan,Sounds/cat_pingui.mp3,2020-06-09_16h04.11.481,TranslationElicitation_spa,3.2.4,Win32,60,5ede149fcff15e03097dded2,,,,,,,
,,,,,,,,,,,,,,,,,,,,,,,,,,,,,,,,,,,i,4.351999998,PINGUI,FALSE,1,0,5,3,1,4,167,pingui,Catalan,Sounds/cat_pingui.mp3,2020-06-09_16h04.11.481,TranslationElicitation_spa,3.2.4,Win32,60,5ede149fcff15e03097dded2,,,,,,,
,,,,,,,,,,,,,,,,,,,,,,,,,,,,,,,,,,,backspace,4.736999989,PING,TRUE,1,0,5,3,1,4,167,pingui,Catalan,Sounds/cat_pingui.mp3,2020-06-09_16h04.11.481,TranslationElicitation_spa,3.2.4,Win32,60,5ede149fcff15e03097dded2,,,,,,,
,,,,,,,,,,,,,,,,,,,,,,,,,,,,,,,,,,,backspace,4.869999886,PI,TRUE,1,0,5,3,1,4,167,pingui,Catalan,Sounds/cat_pingui.mp3,2020-06-09_16h04.11.481,TranslationElicitation_spa,3.2.4,Win32,60,5ede149fcff15e03097dded2,,,,,,,
,,,,,,,,,,,,,,,,,,,,,,,,,,,,,,,,,,,n,5.654999971,PIN,TRUE,1,0,5,3,1,4,167,pingui,Catalan,Sounds/cat_pingui.mp3,2020-06-09_16h04.11.481,TranslationElicitation_spa,3.2.4,Win32,60,5ede149fcff15e03097dded2,,,,,,,
,,,,,,,,,,,,,,,,,,,,,,,,,,,,,,,,,,,g,5.822999954,PING,TRUE,1,0,5,3,1,4,167,pingui,Catalan,Sounds/cat_pingui.mp3,2020-06-09_16h04.11.481,TranslationElicitation_spa,3.2.4,Win32,60,5ede149fcff15e03097dded2,,,,,,,
,,,,,,,,,,,,,,,,,,,,,,,,,,,,,,,,,,,apostrophe,6.92599988,PING,TRUE,1,0,5,3,1,4,167,pingui,Catalan,Sounds/cat_pingui.mp3,2020-06-09_16h04.11.481,TranslationElicitation_spa,3.2.4,Win32,60,5ede149fcff15e03097dded2,,,,,,,
,,,,,,,,,,,,,,,,,,,,,,,,,,,,,,,,,,,u,7.694000006,PINGÚ,TRUE,1,0,5,3,1,4,167,pingui,Catalan,Sounds/cat_pingui.mp3,2020-06-09_16h04.11.481,TranslationElicitation_spa,3.2.4,Win32,60,5ede149fcff15e03097dded2,,,,,,,
,,,,,,,,,,,,,,,,,,,,,,,,,,,,,,,,,,,i,7.911000013,PINGÚI,TRUE,1,0,5,3,1,4,167,pingui,Catalan,Sounds/cat_pingui.mp3,2020-06-09_16h04.11.481,TranslationElicitation_spa,3.2.4,Win32,60,5ede149fcff15e03097dded2,,,,,,,
,,,,,,,,,,,,,,,,,,,,,,,,,,,,,,,,,,,n,8.111999989,PINGÚIN,TRUE,1,0,5,3,1,4,167,pingui,Catalan,Sounds/cat_pingui.mp3,2020-06-09_16h04.11.481,TranslationElicitation_spa,3.2.4,Win32,60,5ede149fcff15e03097dded2,,,,,,,
,,,,,,,,,,,,,,,,,,,,,,,,,,,,,,,,,,,o,8.294999838,PINGÚINO,TRUE,1,0,5,3,1,4,167,pingui,Catalan,Sounds/cat_pingui.mp3,2020-06-09_16h04.11.481,TranslationElicitation_spa,3.2.4,Win32,60,5ede149fcff15e03097dded2,,,,,,,
,,,,,,,,,,,,,,,,,,,,,,,,,,,,,,,,,,,backspace,8.596999884,PINGÚI,TRUE,1,0,5,3,1,4,167,pingui,Catalan,Sounds/cat_pingui.mp3,2020-06-09_16h04.11.481,TranslationElicitation_spa,3.2.4,Win32,60,5ede149fcff15e03097dded2,,,,,,,
,,,,,,,,,,,,,,,,,,,,,,,,,,,,,,,,,,,backspace,8.746999979,PING,TRUE,1,0,5,3,1,4,167,pingui,Catalan,Sounds/cat_pingui.mp3,2020-06-09_16h04.11.481,TranslationElicitation_spa,3.2.4,Win32,60,5ede149fcff15e03097dded2,,,,,,,
,,,,,,,,,,,,,,,,,,,,,,,,,,,,,,,,,,,backspace,8.912999868,PI,TRUE,1,0,5,3,1,4,167,pingui,Catalan,Sounds/cat_pingui.mp3,2020-06-09_16h04.11.481,TranslationElicitation_spa,3.2.4,Win32,60,5ede149fcff15e03097dded2,,,,,,,
,,,,,,,,,,,,,,,,,,,,,,,,,,,,,,,,,,,n,9.814999819,PIN,TRUE,1,0,5,3,1,4,167,pingui,Catalan,Sounds/cat_pingui.mp3,2020-06-09_16h04.11.481,TranslationElicitation_spa,3.2.4,Win32,60,5ede149fcff15e03097dded2,,,,,,,
,,,,,,,,,,,,,,,,,,,,,,,,,,,,,,,,,,,g,9.982999802,PING,TRUE,1,0,5,3,1,4,167,pingui,Catalan,Sounds/cat_pingui.mp3,2020-06-09_16h04.11.481,TranslationElicitation_spa,3.2.4,Win32,60,5ede149fcff15e03097dded2,,,,,,,
,,,,,,,,,,,,,,,,,,,,,,,,,,,,,,,,,,,u,10.06799984,PINGU,TRUE,1,0,5,3,1,4,167,pingui,Catalan,Sounds/cat_pingui.mp3,2020-06-09_16h04.11.481,TranslationElicitation_spa,3.2.4,Win32,60,5ede149fcff15e03097dded2,,,,,,,
,,,,,,,,,,,,,,,,,,,,,,,,,,,,,,,,,,,backspace,11.13699985,PIN,TRUE,1,0,5,3,1,4,167,pingui,Catalan,Sounds/cat_pingui.mp3,2020-06-09_16h04.11.481,TranslationElicitation_spa,3.2.4,Win32,60,5ede149fcff15e03097dded2,,,,,,,
,,,,,,,,,,,,,,,,,,,,,,,,,,,,,,,,,,,apostrophe,11.58799982,PIN,TRUE,1,0,5,3,1,4,167,pingui,Catalan,Sounds/cat_pingui.mp3,2020-06-09_16h04.11.481,TranslationElicitation_spa,3.2.4,Win32,60,5ede149fcff15e03097dded2,,,,,,,
,,,,,,,,,,,,,,,,,,,,,,,,,,,,,,,,,,,backspace,12.65699983,P,TRUE,1,0,5,3,1,4,167,pingui,Catalan,Sounds/cat_pingui.mp3,2020-06-09_16h04.11.481,TranslationElicitation_spa,3.2.4,Win32,60,5ede149fcff15e03097dded2,,,,,,,
,,,,,,,,,,,,,,,,,,,,,,,,,,,,,,,,,,,i,13.64299989,PÍ,TRUE,1,0,5,3,1,4,167,pingui,Catalan,Sounds/cat_pingui.mp3,2020-06-09_16h04.11.481,TranslationElicitation_spa,3.2.4,Win32,60,5ede149fcff15e03097dded2,,,,,,,
,,,,,,,,,,,,,,,,,,,,,,,,,,,,,,,,,,,n,13.86099982,PÍN,TRUE,1,0,5,3,1,4,167,pingui,Catalan,Sounds/cat_pingui.mp3,2020-06-09_16h04.11.481,TranslationElicitation_spa,3.2.4,Win32,60,5ede149fcff15e03097dded2,,,,,,,
,,,,,,,,,,,,,,,,,,,,,,,,,,,,,,,,,,,g,14.079,PÍNG,TRUE,1,0,5,3,1,4,167,pingui,Catalan,Sounds/cat_pingui.mp3,2020-06-09_16h04.11.481,TranslationElicitation_spa,3.2.4,Win32,60,5ede149fcff15e03097dded2,,,,,,,
,,,,,,,,,,,,,,,,,,,,,,,,,,,,,,,,,,,apostrophe,15.51499987,PÍNG,TRUE,1,0,5,3,1,4,167,pingui,Catalan,Sounds/cat_pingui.mp3,2020-06-09_16h04.11.481,TranslationElicitation_spa,3.2.4,Win32,60,5ede149fcff15e03097dded2,,,,,,,
,,,,,,,,,,,,,,,,,,,,,,,,,,,,,,,,,,,u,16.38499999,PÍNGÚ,TRUE,1,0,5,3,1,4,167,pingui,Catalan,Sounds/cat_pingui.mp3,2020-06-09_16h04.11.481,TranslationElicitation_spa,3.2.4,Win32,60,5ede149fcff15e03097dded2,,,,,,,
,,,,,,,,,,,,,,,,,,,,,,,,,,,,,,,,,,,i,16.78600001,PÍNGÚI,TRUE,1,0,5,3,1,4,167,pingui,Catalan,Sounds/cat_pingui.mp3,2020-06-09_16h04.11.481,TranslationElicitation_spa,3.2.4,Win32,60,5ede149fcff15e03097dded2,,,,,,,
,,,,,,,,,,,,,,,,,,,,,,,,,,,,,,,,,,,backspace,17.11899996,PÍNG,TRUE,1,0,5,3,1,4,167,pingui,Catalan,Sounds/cat_pingui.mp3,2020-06-09_16h04.11.481,TranslationElicitation_spa,3.2.4,Win32,60,5ede149fcff15e03097dded2,,,,,,,
,,,,,,,,,,,,,,,,,,,,,,,,,,,,,,,,,,,backspace,17.35299993,PÍ,TRUE,1,0,5,3,1,4,167,pingui,Catalan,Sounds/cat_pingui.mp3,2020-06-09_16h04.11.481,TranslationElicitation_spa,3.2.4,Win32,60,5ede149fcff15e03097dded2,,,,,,,
,,,,,,,,,,,,,,,,,,,,,,,,,,,,,,,,,,,n,18.32199979,PÍN,TRUE,1,0,5,3,1,4,167,pingui,Catalan,Sounds/cat_pingui.mp3,2020-06-09_16h04.11.481,TranslationElicitation_spa,3.2.4,Win32,60,5ede149fcff15e03097dded2,,,,,,,
,,,,,,,,,,,,,,,,,,,,,,,,,,,,,,,,,,,g,18.45599985,PÍNG,TRUE,1,0,5,3,1,4,167,pingui,Catalan,Sounds/cat_pingui.mp3,2020-06-09_16h04.11.481,TranslationElicitation_spa,3.2.4,Win32,60,5ede149fcff15e03097dded2,,,,,,,
,,,,,,,,,,,,,,,,,,,,,,,,,,,,,,,,,,,u,18.52199984,PÍNGU,TRUE,1,0,5,3,1,4,167,pingui,Catalan,Sounds/cat_pingui.mp3,2020-06-09_16h04.11.481,TranslationElicitation_spa,3.2.4,Win32,60,5ede149fcff15e03097dded2,,,,,,,
,,,,,,,,,,,,,,,,,,,,,,,,,,,,,,,,,,,i,18.6559999,PÍNGUI,TRUE,1,0,5,3,1,4,167,pingui,Catalan,Sounds/cat_pingui.mp3,2020-06-09_16h04.11.481,TranslationElicitation_spa,3.2.4,Win32,60,5ede149fcff15e03097dded2,,,,,,,
,,,,,,,,,,,,,,,,,,,,,,,,,,,,,,,,,,,n,18.80799985,PÍNGUIN,TRUE,1,0,5,3,1,4,167,pingui,Catalan,Sounds/cat_pingui.mp3,2020-06-09_16h04.11.481,TranslationElicitation_spa,3.2.4,Win32,60,5ede149fcff15e03097dded2,,,,,,,
,,,,,,,,,,,,,,,,,,,,,,,,,,,,,,,,,,,o,19.0079999,PÍNGUINO,TRUE,1,0,5,3,1,4,167,pingui,Catalan,Sounds/cat_pingui.mp3,2020-06-09_16h04.11.481,TranslationElicitation_spa,3.2.4,Win32,60,5ede149fcff15e03097dded2,,,,,,,
,,,,,,,,,,,,,,,,,,,,,,,,,,,,,,,,,,,return,20.14499998,,TRUE,1,0,5,3,1,4,167,pingui,Catalan,Sounds/cat_pingui.mp3,2020-06-09_16h04.11.481,TranslationElicitation_spa,3.2.4,Win32,60,5ede149fcff15e03097dded2,20.14499998,,,,,,
,,,,,,,,,,,,,,,,,,,,,,,,,,,,,,,,,,,,,,,1,0,5,3,1,4,167,pingui,Catalan,Sounds/cat_pingui.mp3,2020-06-09_16h04.11.481,TranslationElicitation_spa,3.2.4,Win32,60,5ede149fcff15e03097dded2,,,,,,,
,,,,,,,,,,,,,,,,,,,,,,,,,,,,,,,,,,,u,4.423999786,U,FALSE,1,0,5,2,1,4,159,onada,Catalan,Sounds/cat_onada.mp3,2020-06-09_16h04.11.481,TranslationElicitation_spa,3.2.4,Win32,60,5ede149fcff15e03097dded2,,,,,,,
,,,,,,,,,,,,,,,,,,,,,,,,,,,,,,,,,,,n,4.707999945,UN,FALSE,1,0,5,2,1,4,159,onada,Catalan,Sounds/cat_onada.mp3,2020-06-09_16h04.11.481,TranslationElicitation_spa,3.2.4,Win32,60,5ede149fcff15e03097dded2,,,,,,,
,,,,,,,,,,,,,,,,,,,,,,,,,,,,,,,,,,,space,4.875999928,UN ,FALSE,1,0,5,2,1,4,159,onada,Catalan,Sounds/cat_onada.mp3,2020-06-09_16h04.11.481,TranslationElicitation_spa,3.2.4,Win32,60,5ede149fcff15e03097dded2,,,,,,,
,,,,,,,,,,,,,,,,,,,,,,,,,,,,,,,,,,,h,5.076999903,UN H,FALSE,1,0,5,2,1,4,159,onada,Catalan,Sounds/cat_onada.mp3,2020-06-09_16h04.11.481,TranslationElicitation_spa,3.2.4,Win32,60,5ede149fcff15e03097dded2,,,,,,,
,,,,,,,,,,,,,,,,,,,,,,,,,,,,,,,,,,,a,5.494999886,UN HA,FALSE,1,0,5,2,1,4,159,onada,Catalan,Sounds/cat_onada.mp3,2020-06-09_16h04.11.481,TranslationElicitation_spa,3.2.4,Win32,60,5ede149fcff15e03097dded2,,,,,,,
,,,,,,,,,,,,,,,,,,,,,,,,,,,,,,,,,,,d,5.745999813,UN HAD,FALSE,1,0,5,2,1,4,159,onada,Catalan,Sounds/cat_onada.mp3,2020-06-09_16h04.11.481,TranslationElicitation_spa,3.2.4,Win32,60,5ede149fcff15e03097dded2,,,,,,,
,,,,,,,,,,,,,,,,,,,,,,,,,,,,,,,,,,,a,5.944999933,UN HADA,FALSE,1,0,5,2,1,4,159,onada,Catalan,Sounds/cat_onada.mp3,2020-06-09_16h04.11.481,TranslationElicitation_spa,3.2.4,Win32,60,5ede149fcff15e03097dded2,,,,,,,
,,,,,,,,,,,,,,,,,,,,,,,,,,,,,,,,,,,return,7.348999977,,FALSE,1,0,5,2,1,4,159,onada,Catalan,Sounds/cat_onada.mp3,2020-06-09_16h04.11.481,TranslationElicitation_spa,3.2.4,Win32,60,5ede149fcff15e03097dded2,7.348999977,,,,,,
,,,,,,,,,,,,,,,,,,,,,,,,,,,,,,,,,,,,,,,1,0,5,2,1,4,159,onada,Catalan,Sounds/cat_onada.mp3,2020-06-09_16h04.11.481,TranslationElicitation_spa,3.2.4,Win32,60,5ede149fcff15e03097dded2,,,,,,,
,,,,,,,,,,,,,,,,,,,,,,,,,,,,,,,,,,,a,2.100000143,A,FALSE,1,0,5,0,1,4,109,arbre,Catalan,Sounds/cat_arbre.mp3,2020-06-09_16h04.11.481,TranslationElicitation_spa,3.2.4,Win32,60,5ede149fcff15e03097dded2,,,,,,,
,,,,,,,,,,,,,,,,,,,,,,,,,,,,,,,,,,,b,2.985000134,AB,FALSE,1,0,5,0,1,4,109,arbre,Catalan,Sounds/cat_arbre.mp3,2020-06-09_16h04.11.481,TranslationElicitation_spa,3.2.4,Win32,60,5ede149fcff15e03097dded2,,,,,,,
,,,,,,,,,,,,,,,,,,,,,,,,,,,,,,,,,,,r,3.118000031,ABR,FALSE,1,0,5,0,1,4,109,arbre,Catalan,Sounds/cat_arbre.mp3,2020-06-09_16h04.11.481,TranslationElicitation_spa,3.2.4,Win32,60,5ede149fcff15e03097dded2,,,,,,,
,,,,,,,,,,,,,,,,,,,,,,,,,,,,,,,,,,,a,3.453000069,ABRA,FALSE,1,0,5,0,1,4,109,arbre,Catalan,Sounds/cat_arbre.mp3,2020-06-09_16h04.11.481,TranslationElicitation_spa,3.2.4,Win32,60,5ede149fcff15e03097dded2,,,,,,,
,,,,,,,,,,,,,,,,,,,,,,,,,,,,,,,,,,,return,4.187999964,,FALSE,1,0,5,0,1,4,109,arbre,Catalan,Sounds/cat_arbre.mp3,2020-06-09_16h04.11.481,TranslationElicitation_spa,3.2.4,Win32,60,5ede149fcff15e03097dded2,4.187999964,,,,,,
,,,,,,,,,,,,,,,,,,,,,,,,,,,,,,,,,,,,,,,1,0,5,0,1,4,109,arbre,Catalan,Sounds/cat_arbre.mp3,2020-06-09_16h04.11.481,TranslationElicitation_spa,3.2.4,Win32,60,5ede149fcff15e03097dded2,,,,,,,
,,,,,,,,,,,,,,,,,,,,,,,,,,,,,,,,,,,t,2.104000092,T,FALSE,1,0,5,4,1,4,179,tigre,Catalan,Sounds/cat_tigre.mp3,2020-06-09_16h04.11.481,TranslationElicitation_spa,3.2.4,Win32,60,5ede149fcff15e03097dded2,,,,,,,
,,,,,,,,,,,,,,,,,,,,,,,,,,,,,,,,,,,r,2.302999973,TR,FALSE,1,0,5,4,1,4,179,tigre,Catalan,Sounds/cat_tigre.mp3,2020-06-09_16h04.11.481,TranslationElicitation_spa,3.2.4,Win32,60,5ede149fcff15e03097dded2,,,,,,,
,,,,,,,,,,,,,,,,,,,,,,,,,,,,,,,,,,,i,2.471000195,TRI,FALSE,1,0,5,4,1,4,179,tigre,Catalan,Sounds/cat_tigre.mp3,2020-06-09_16h04.11.481,TranslationElicitation_spa,3.2.4,Win32,60,5ede149fcff15e03097dded2,,,,,,,
,,,,,,,,,,,,,,,,,,,,,,,,,,,,,,,,,,,backspace,2.937999964,T,TRUE,1,0,5,4,1,4,179,tigre,Catalan,Sounds/cat_tigre.mp3,2020-06-09_16h04.11.481,TranslationElicitation_spa,3.2.4,Win32,60,5ede149fcff15e03097dded2,,,,,,,
,,,,,,,,,,,,,,,,,,,,,,,,,,,,,,,,,,,backspace,3.088999987,,TRUE,1,0,5,4,1,4,179,tigre,Catalan,Sounds/cat_tigre.mp3,2020-06-09_16h04.11.481,TranslationElicitation_spa,3.2.4,Win32,60,5ede149fcff15e03097dded2,,,,,,,
,,,,,,,,,,,,,,,,,,,,,,,,,,,,,,,,,,,i,3.171000004,I,TRUE,1,0,5,4,1,4,179,tigre,Catalan,Sounds/cat_tigre.mp3,2020-06-09_16h04.11.481,TranslationElicitation_spa,3.2.4,Win32,60,5ede149fcff15e03097dded2,,,,,,,
,,,,,,,,,,,,,,,,,,,,,,,,,,,,,,,,,,,g,3.272000074,IG,TRUE,1,0,5,4,1,4,179,tigre,Catalan,Sounds/cat_tigre.mp3,2020-06-09_16h04.11.481,TranslationElicitation_spa,3.2.4,Win32,60,5ede149fcff15e03097dded2,,,,,,,
,,,,,,,,,,,,,,,,,,,,,,,,,,,,,,,,,,,r,3.472000122,IGR,TRUE,1,0,5,4,1,4,179,tigre,Catalan,Sounds/cat_tigre.mp3,2020-06-09_16h04.11.481,TranslationElicitation_spa,3.2.4,Win32,60,5ede149fcff15e03097dded2,,,,,,,
,,,,,,,,,,,,,,,,,,,,,,,,,,,,,,,,,,,e,3.606000185,IGRE,TRUE,1,0,5,4,1,4,179,tigre,Catalan,Sounds/cat_tigre.mp3,2020-06-09_16h04.11.481,TranslationElicitation_spa,3.2.4,Win32,60,5ede149fcff15e03097dded2,,,,,,,
,,,,,,,,,,,,,,,,,,,,,,,,,,,,,,,,,,,backspace,3.80700016,IG,TRUE,1,0,5,4,1,4,179,tigre,Catalan,Sounds/cat_tigre.mp3,2020-06-09_16h04.11.481,TranslationElicitation_spa,3.2.4,Win32,60,5ede149fcff15e03097dded2,,,,,,,
,,,,,,,,,,,,,,,,,,,,,,,,,,,,,,,,,,,backspace,3.991000175,,TRUE,1,0,5,4,1,4,179,tigre,Catalan,Sounds/cat_tigre.mp3,2020-06-09_16h04.11.481,TranslationElicitation_spa,3.2.4,Win32,60,5ede149fcff15e03097dded2,,,,,,,
,,,,,,,,,,,,,,,,,,,,,,,,,,,,,,,,,,,backspace,4.125,,TRUE,1,0,5,4,1,4,179,tigre,Catalan,Sounds/cat_tigre.mp3,2020-06-09_16h04.11.481,TranslationElicitation_spa,3.2.4,Win32,60,5ede149fcff15e03097dded2,,,,,,,
,,,,,,,,,,,,,,,,,,,,,,,,,,,,,,,,,,,t,4.909000158,T,TRUE,1,0,5,4,1,4,179,tigre,Catalan,Sounds/cat_tigre.mp3,2020-06-09_16h04.11.481,TranslationElicitation_spa,3.2.4,Win32,60,5ede149fcff15e03097dded2,,,,,,,
,,,,,,,,,,,,,,,,,,,,,,,,,,,,,,,,,,,i,5.044000149,TI,TRUE,1,0,5,4,1,4,179,tigre,Catalan,Sounds/cat_tigre.mp3,2020-06-09_16h04.11.481,TranslationElicitation_spa,3.2.4,Win32,60,5ede149fcff15e03097dded2,,,,,,,
,,,,,,,,,,,,,,,,,,,,,,,,,,,,,,,,,,,g,5.144999981,TIG,TRUE,1,0,5,4,1,4,179,tigre,Catalan,Sounds/cat_tigre.mp3,2020-06-09_16h04.11.481,TranslationElicitation_spa,3.2.4,Win32,60,5ede149fcff15e03097dded2,,,,,,,
,,,,,,,,,,,,,,,,,,,,,,,,,,,,,,,,,,,r,5.379000187,TIGR,TRUE,1,0,5,4,1,4,179,tigre,Catalan,Sounds/cat_tigre.mp3,2020-06-09_16h04.11.481,TranslationElicitation_spa,3.2.4,Win32,60,5ede149fcff15e03097dded2,,,,,,,
,,,,,,,,,,,,,,,,,,,,,,,,,,,,,,,,,,,e,5.479000092,TIGRE,TRUE,1,0,5,4,1,4,179,tigre,Catalan,Sounds/cat_tigre.mp3,2020-06-09_16h04.11.481,TranslationElicitation_spa,3.2.4,Win32,60,5ede149fcff15e03097dded2,,,,,,,
,,,,,,,,,,,,,,,,,,,,,,,,,,,,,,,,,,,s,5.680000067,TIGRES,TRUE,1,0,5,4,1,4,179,tigre,Catalan,Sounds/cat_tigre.mp3,2020-06-09_16h04.11.481,TranslationElicitation_spa,3.2.4,Win32,60,5ede149fcff15e03097dded2,,,,,,,
,,,,,,,,,,,,,,,,,,,,,,,,,,,,,,,,,,,a,5.880000114,TIGRESA,TRUE,1,0,5,4,1,4,179,tigre,Catalan,Sounds/cat_tigre.mp3,2020-06-09_16h04.11.481,TranslationElicitation_spa,3.2.4,Win32,60,5ede149fcff15e03097dded2,,,,,,,
,,,,,,,,,,,,,,,,,,,,,,,,,,,,,,,,,,,return,6.197000027,,TRUE,1,0,5,4,1,4,179,tigre,Catalan,Sounds/cat_tigre.mp3,2020-06-09_16h04.11.481,TranslationElicitation_spa,3.2.4,Win32,60,5ede149fcff15e03097dded2,6.197000027,,,,,,
,,,,,,,,,,,,,,,,,,,,,,,,,,,,,,,,,,,,,,,1,0,5,4,1,4,179,tigre,Catalan,Sounds/cat_tigre.mp3,2020-06-09_16h04.11.481,TranslationElicitation_spa,3.2.4,Win32,60,5ede149fcff15e03097dded2,,,,,,,
,,,,,,,,,,,,,,,,,,,,,,,,,,,,,,,,,,,c,2.355999947,C,FALSE,1,0,5,1,1,4,147,jaqueta,Catalan,Sounds/cat_jaqueta.mp3,2020-06-09_16h04.11.481,TranslationElicitation_spa,3.2.4,Win32,60,5ede149fcff15e03097dded2,,,,,,,
,,,,,,,,,,,,,,,,,,,,,,,,,,,,,,,,,,,h,2.539999962,CH,FALSE,1,0,5,1,1,4,147,jaqueta,Catalan,Sounds/cat_jaqueta.mp3,2020-06-09_16h04.11.481,TranslationElicitation_spa,3.2.4,Win32,60,5ede149fcff15e03097dded2,,,,,,,
,,,,,,,,,,,,,,,,,,,,,,,,,,,,,,,,,,,a,2.690999985,CHA,FALSE,1,0,5,1,1,4,147,jaqueta,Catalan,Sounds/cat_jaqueta.mp3,2020-06-09_16h04.11.481,TranslationElicitation_spa,3.2.4,Win32,60,5ede149fcff15e03097dded2,,,,,,,
,,,,,,,,,,,,,,,,,,,,,,,,,,,,,,,,,,,q,2.907000065,CHAQ,FALSE,1,0,5,1,1,4,147,jaqueta,Catalan,Sounds/cat_jaqueta.mp3,2020-06-09_16h04.11.481,TranslationElicitation_spa,3.2.4,Win32,60,5ede149fcff15e03097dded2,,,,,,,
,,,,,,,,,,,,,,,,,,,,,,,,,,,,,,,,,,,u,2.99000001,CHAQU,FALSE,1,0,5,1,1,4,147,jaqueta,Catalan,Sounds/cat_jaqueta.mp3,2020-06-09_16h04.11.481,TranslationElicitation_spa,3.2.4,Win32,60,5ede149fcff15e03097dded2,,,,,,,
,,,,,,,,,,,,,,,,,,,,,,,,,,,,,,,,,,,e,3.141000032,CHAQUE,FALSE,1,0,5,1,1,4,147,jaqueta,Catalan,Sounds/cat_jaqueta.mp3,2020-06-09_16h04.11.481,TranslationElicitation_spa,3.2.4,Win32,60,5ede149fcff15e03097dded2,,,,,,,
,,,,,,,,,,,,,,,,,,,,,,,,,,,,,,,,,,,t,3.309000015,CHAQUET,FALSE,1,0,5,1,1,4,147,jaqueta,Catalan,Sounds/cat_jaqueta.mp3,2020-06-09_16h04.11.481,TranslationElicitation_spa,3.2.4,Win32,60,5ede149fcff15e03097dded2,,,,,,,
,,,,,,,,,,,,,,,,,,,,,,,,,,,,,,,,,,,a,3.559000015,CHAQUETA,FALSE,1,0,5,1,1,4,147,jaqueta,Catalan,Sounds/cat_jaqueta.mp3,2020-06-09_16h04.11.481,TranslationElicitation_spa,3.2.4,Win32,60,5ede149fcff15e03097dded2,,,,,,,
,,,,,,,,,,,,,,,,,,,,,,,,,,,,,,,,,,,return,3.743999958,,FALSE,1,0,5,1,1,4,147,jaqueta,Catalan,Sounds/cat_jaqueta.mp3,2020-06-09_16h04.11.481,TranslationElicitation_spa,3.2.4,Win32,60,5ede149fcff15e03097dded2,3.743999958,,,,,,
,,,,,,,,,,,,,,,,,,,,,,,,,,,,,,,,,,,,,,,1,0,5,1,1,4,147,jaqueta,Catalan,Sounds/cat_jaqueta.mp3,2020-06-09_16h04.11.481,TranslationElicitation_spa,3.2.4,Win32,60,5ede149fcff15e03097dded2,,,,,,,
,,,,,,,,,,,,,,,,,,,,,,,,,,,,,,,,,,,o,1.167000055,O,FALSE,,,,,,,138,galeta,Catalan,Sounds/cat_galeta.mp3,2020-06-09_16h04.11.481,TranslationElicitation_spa,3.2.4,Win32,60,5ede149fcff15e03097dded2,,1,0,80,33,1,79
,,,,,,,,,,,,,,,,,,,,,,,,,,,,,,,,,,,l,1.335999966,OL,FALSE,,,,,,,138,galeta,Catalan,Sounds/cat_galeta.mp3,2020-06-09_16h04.11.481,TranslationElicitation_spa,3.2.4,Win32,60,5ede149fcff15e03097dded2,,1,0,80,33,1,79
,,,,,,,,,,,,,,,,,,,,,,,,,,,,,,,,,,,e,1.452000141,OLE,FALSE,,,,,,,138,galeta,Catalan,Sounds/cat_galeta.mp3,2020-06-09_16h04.11.481,TranslationElicitation_spa,3.2.4,Win32,60,5ede149fcff15e03097dded2,,1,0,80,33,1,79
,,,,,,,,,,,,,,,,,,,,,,,,,,,,,,,,,,,backspace,1.719000101,O,TRUE,,,,,,,138,galeta,Catalan,Sounds/cat_galeta.mp3,2020-06-09_16h04.11.481,TranslationElicitation_spa,3.2.4,Win32,60,5ede149fcff15e03097dded2,,1,0,80,33,1,79
,,,,,,,,,,,,,,,,,,,,,,,,,,,,,,,,,,,backspace,1.886000156,,TRUE,,,,,,,138,galeta,Catalan,Sounds/cat_galeta.mp3,2020-06-09_16h04.11.481,TranslationElicitation_spa,3.2.4,Win32,60,5ede149fcff15e03097dded2,,1,0,80,33,1,79
,,,,,,,,,,,,,,,,,,,,,,,,,,,,,,,,,,,backspace,2.019999981,,TRUE,,,,,,,138,galeta,Catalan,Sounds/cat_galeta.mp3,2020-06-09_16h04.11.481,TranslationElicitation_spa,3.2.4,Win32,60,5ede149fcff15e03097dded2,,1,0,80,33,1,79
,,,,,,,,,,,,,,,,,,,,,,,,,,,,,,,,,,,c,2.103000164,C,TRUE,,,,,,,138,galeta,Catalan,Sounds/cat_galeta.mp3,2020-06-09_16h04.11.481,TranslationElicitation_spa,3.2.4,Win32,60,5ede149fcff15e03097dded2,,1,0,80,33,1,79
,,,,,,,,,,,,,,,,,,,,,,,,,,,,,,,,,,,o,2.203000069,CO,TRUE,,,,,,,138,galeta,Catalan,Sounds/cat_galeta.mp3,2020-06-09_16h04.11.481,TranslationElicitation_spa,3.2.4,Win32,60,5ede149fcff15e03097dded2,,1,0,80,33,1,79
,,,,,,,,,,,,,,,,,,,,,,,,,,,,,,,,,,,l,2.388000011,COL,TRUE,,,,,,,138,galeta,Catalan,Sounds/cat_galeta.mp3,2020-06-09_16h04.11.481,TranslationElicitation_spa,3.2.4,Win32,60,5ede149fcff15e03097dded2,,1,0,80,33,1,79
,,,,,,,,,,,,,,,,,,,,,,,,,,,,,,,,,,,e,2.453999996,COLE,TRUE,,,,,,,138,galeta,Catalan,Sounds/cat_galeta.mp3,2020-06-09_16h04.11.481,TranslationElicitation_spa,3.2.4,Win32,60,5ede149fcff15e03097dded2,,1,0,80,33,1,79
,,,,,,,,,,,,,,,,,,,,,,,,,,,,,,,,,,,t,2.904999971,COLET,TRUE,,,,,,,138,galeta,Catalan,Sounds/cat_galeta.mp3,2020-06-09_16h04.11.481,TranslationElicitation_spa,3.2.4,Win32,60,5ede149fcff15e03097dded2,,1,0,80,33,1,79
,,,,,,,,,,,,,,,,,,,,,,,,,,,,,,,,,,,a,3.156000137,COLETA,TRUE,,,,,,,138,galeta,Catalan,Sounds/cat_galeta.mp3,2020-06-09_16h04.11.481,TranslationElicitation_spa,3.2.4,Win32,60,5ede149fcff15e03097dded2,,1,0,80,33,1,79
,,,,,,,,,,,,,,,,,,,,,,,,,,,,,,,,,,,return,3.523000002,,TRUE,,,,,,,138,galeta,Catalan,Sounds/cat_galeta.mp3,2020-06-09_16h04.11.481,TranslationElicitation_spa,3.2.4,Win32,60,5ede149fcff15e03097dded2,3.523000002,1,0,80,33,1,79
,,,,,,,,,,,,,,,,,,,,,,,,,,,,,,,,,,,,,,,,,,,,,138,galeta,Catalan,Sounds/cat_galeta.mp3,2020-06-09_16h04.11.481,TranslationElicitation_spa,3.2.4,Win32,60,5ede149fcff15e03097dded2,,1,0,80,33,1,79
,,,,,,,,,,,,,,,,,,,,,,,,,,,,,,,,,,,e,1.434999943,E,FALSE,,,,,,,131,esponja,Catalan,Sounds/cat_esponja.mp3,2020-06-09_16h04.11.481,TranslationElicitation_spa,3.2.4,Win32,60,5ede149fcff15e03097dded2,,1,0,80,26,1,79
,,,,,,,,,,,,,,,,,,,,,,,,,,,,,,,,,,,s,1.618999958,ES,FALSE,,,,,,,131,esponja,Catalan,Sounds/cat_esponja.mp3,2020-06-09_16h04.11.481,TranslationElicitation_spa,3.2.4,Win32,60,5ede149fcff15e03097dded2,,1,0,80,26,1,79
,,,,,,,,,,,,,,,,,,,,,,,,,,,,,,,,,,,p,1.720000029,ESP,FALSE,,,,,,,131,esponja,Catalan,Sounds/cat_esponja.mp3,2020-06-09_16h04.11.481,TranslationElicitation_spa,3.2.4,Win32,60,5ede149fcff15e03097dded2,,1,0,80,26,1,79
,,,,,,,,,,,,,,,,,,,,,,,,,,,,,,,,,,,a,1.885999918,ESPA,FALSE,,,,,,,131,esponja,Catalan,Sounds/cat_esponja.mp3,2020-06-09_16h04.11.481,TranslationElicitation_spa,3.2.4,Win32,60,5ede149fcff15e03097dded2,,1,0,80,26,1,79
,,,,,,,,,,,,,,,,,,,,,,,,,,,,,,,,,,,semicolon,2.053999901,ESPAÑ,FALSE,,,,,,,131,esponja,Catalan,Sounds/cat_esponja.mp3,2020-06-09_16h04.11.481,TranslationElicitation_spa,3.2.4,Win32,60,5ede149fcff15e03097dded2,,1,0,80,26,1,79
,,,,,,,,,,,,,,,,,,,,,,,,,,,,,,,,,,,a,2.237999916,ESPAÑA,FALSE,,,,,,,131,esponja,Catalan,Sounds/cat_esponja.mp3,2020-06-09_16h04.11.481,TranslationElicitation_spa,3.2.4,Win32,60,5ede149fcff15e03097dded2,,1,0,80,26,1,79
,,,,,,,,,,,,,,,,,,,,,,,,,,,,,,,,,,,return,2.72300005,,FALSE,,,,,,,131,esponja,Catalan,Sounds/cat_esponja.mp3,2020-06-09_16h04.11.481,TranslationElicitation_spa,3.2.4,Win32,60,5ede149fcff15e03097dded2,2.72300005,1,0,80,26,1,79
,,,,,,,,,,,,,,,,,,,,,,,,,,,,,,,,,,,,,,,,,,,,,131,esponja,Catalan,Sounds/cat_esponja.mp3,2020-06-09_16h04.11.481,TranslationElicitation_spa,3.2.4,Win32,60,5ede149fcff15e03097dded2,,1,0,80,26,1,79
,,,,,,,,,,,,,,,,,,,,,,,,,,,,,,,,,,,g,1.587999821,G,FALSE,,,,,,,140,gat,Catalan,Sounds/cat_gat.mp3,2020-06-09_16h04.11.481,TranslationElicitation_spa,3.2.4,Win32,60,5ede149fcff15e03097dded2,,1,0,80,35,1,79
,,,,,,,,,,,,,,,,,,,,,,,,,,,,,,,,,,,a,1.786999941,GA,FALSE,,,,,,,140,gat,Catalan,Sounds/cat_gat.mp3,2020-06-09_16h04.11.481,TranslationElicitation_spa,3.2.4,Win32,60,5ede149fcff15e03097dded2,,1,0,80,35,1,79
,,,,,,,,,,,,,,,,,,,,,,,,,,,,,,,,,,,t,1.920999765,GAT,FALSE,,,,,,,140,gat,Catalan,Sounds/cat_gat.mp3,2020-06-09_16h04.11.481,TranslationElicitation_spa,3.2.4,Win32,60,5ede149fcff15e03097dded2,,1,0,80,35,1,79
,,,,,,,,,,,,,,,,,,,,,,,,,,,,,,,,,,,o,2.203999996,GATO,FALSE,,,,,,,140,gat,Catalan,Sounds/cat_gat.mp3,2020-06-09_16h04.11.481,TranslationElicitation_spa,3.2.4,Win32,60,5ede149fcff15e03097dded2,,1,0,80,35,1,79
,,,,,,,,,,,,,,,,,,,,,,,,,,,,,,,,,,,return,2.556999922,,FALSE,,,,,,,140,gat,Catalan,Sounds/cat_gat.mp3,2020-06-09_16h04.11.481,TranslationElicitation_spa,3.2.4,Win32,60,5ede149fcff15e03097dded2,2.556999922,1,0,80,35,1,79
,,,,,,,,,,,,,,,,,,,,,,,,,,,,,,,,,,,,,,,,,,,,,140,gat,Catalan,Sounds/cat_gat.mp3,2020-06-09_16h04.11.481,TranslationElicitation_spa,3.2.4,Win32,60,5ede149fcff15e03097dded2,,1,0,80,35,1,79
,,,,,,,,,,,,,,,,,,,,,,,,,,,,,,,,,,,a,1.437000036,A,FALSE,,,,,,,104,abella,Catalan,Sounds/cat_abella.mp3,2020-06-09_16h04.11.481,TranslationElicitation_spa,3.2.4,Win32,60,5ede149fcff15e03097dded2,,1,0,80,0,1,79
,,,,,,,,,,,,,,,,,,,,,,,,,,,,,,,,,,,b,1.619999886,AB,FALSE,,,,,,,104,abella,Catalan,Sounds/cat_abella.mp3,2020-06-09_16h04.11.481,TranslationElicitation_spa,3.2.4,Win32,60,5ede149fcff15e03097dded2,,1,0,80,0,1,79
,,,,,,,,,,,,,,,,,,,,,,,,,,,,,,,,,,,e,1.736999989,ABE,FALSE,,,,,,,104,abella,Catalan,Sounds/cat_abella.mp3,2020-06-09_16h04.11.481,TranslationElicitation_spa,3.2.4,Win32,60,5ede149fcff15e03097dded2,,1,0,80,0,1,79
,,,,,,,,,,,,,,,,,,,,,,,,,,,,,,,,,,,j,1.871000051,ABEJ,FALSE,,,,,,,104,abella,Catalan,Sounds/cat_abella.mp3,2020-06-09_16h04.11.481,TranslationElicitation_spa,3.2.4,Win32,60,5ede149fcff15e03097dded2,,1,0,80,0,1,79
,,,,,,,,,,,,,,,,,,,,,,,,,,,,,,,,,,,a,1.987999916,ABEJA,FALSE,,,,,,,104,abella,Catalan,Sounds/cat_abella.mp3,2020-06-09_16h04.11.481,TranslationElicitation_spa,3.2.4,Win32,60,5ede149fcff15e03097dded2,,1,0,80,0,1,79
,,,,,,,,,,,,,,,,,,,,,,,,,,,,,,,,,,,return,2.338999987,,FALSE,,,,,,,104,abella,Catalan,Sounds/cat_abella.mp3,2020-06-09_16h04.11.481,TranslationElicitation_spa,3.2.4,Win32,60,5ede149fcff15e03097dded2,2.338999987,1,0,80,0,1,79
,,,,,,,,,,,,,,,,,,,,,,,,,,,,,,,,,,,,,,,,,,,,,104,abella,Catalan,Sounds/cat_abella.mp3,2020-06-09_16h04.11.481,TranslationElicitation_spa,3.2.4,Win32,60,5ede149fcff15e03097dded2,,1,0,80,0,1,79
,,,,,,,,,,,,,,,,,,,,,,,,,,,,,,,,,,,b,1.13499999,B,FALSE,,,,,,,111,bibero,Catalan,Sounds/cat_bibero.mp3,2020-06-09_16h04.11.481,TranslationElicitation_spa,3.2.4,Win32,60,5ede149fcff15e03097dded2,,1,0,80,6,1,79
,,,,,,,,,,,,,,,,,,,,,,,,,,,,,,,,,,,i,1.267999887,BI,FALSE,,,,,,,111,bibero,Catalan,Sounds/cat_bibero.mp3,2020-06-09_16h04.11.481,TranslationElicitation_spa,3.2.4,Win32,60,5ede149fcff15e03097dded2,,1,0,80,6,1,79
,,,,,,,,,,,,,,,,,,,,,,,,,,,,,,,,,,,b,1.402999878,BIB,FALSE,,,,,,,111,bibero,Catalan,Sounds/cat_bibero.mp3,2020-06-09_16h04.11.481,TranslationElicitation_spa,3.2.4,Win32,60,5ede149fcff15e03097dded2,,1,0,80,6,1,79
,,,,,,,,,,,,,,,,,,,,,,,,,,,,,,,,,,,e,1.470000029,BIBE,FALSE,,,,,,,111,bibero,Catalan,Sounds/cat_bibero.mp3,2020-06-09_16h04.11.481,TranslationElicitation_spa,3.2.4,Win32,60,5ede149fcff15e03097dded2,,1,0,80,6,1,79
,,,,,,,,,,,,,,,,,,,,,,,,,,,,,,,,,,,r,1.586999893,BIBER,FALSE,,,,,,,111,bibero,Catalan,Sounds/cat_bibero.mp3,2020-06-09_16h04.11.481,TranslationElicitation_spa,3.2.4,Win32,60,5ede149fcff15e03097dded2,,1,0,80,6,1,79
,,,,,,,,,,,,,,,,,,,,,,,,,,,,,,,,,,,o,1.687999964,BIBERO,FALSE,,,,,,,111,bibero,Catalan,Sounds/cat_bibero.mp3,2020-06-09_16h04.11.481,TranslationElicitation_spa,3.2.4,Win32,60,5ede149fcff15e03097dded2,,1,0,80,6,1,79
,,,,,,,,,,,,,,,,,,,,,,,,,,,,,,,,,,,n,1.819999933,BIBERON,FALSE,,,,,,,111,bibero,Catalan,Sounds/cat_bibero.mp3,2020-06-09_16h04.11.481,TranslationElicitation_spa,3.2.4,Win32,60,5ede149fcff15e03097dded2,,1,0,80,6,1,79
,,,,,,,,,,,,,,,,,,,,,,,,,,,,,,,,,,,return,2.254999876,,FALSE,,,,,,,111,bibero,Catalan,Sounds/cat_bibero.mp3,2020-06-09_16h04.11.481,TranslationElicitation_spa,3.2.4,Win32,60,5ede149fcff15e03097dded2,2.254999876,1,0,80,6,1,79
,,,,,,,,,,,,,,,,,,,,,,,,,,,,,,,,,,,,,,,,,,,,,111,bibero,Catalan,Sounds/cat_bibero.mp3,2020-06-09_16h04.11.481,TranslationElicitation_spa,3.2.4,Win32,60,5ede149fcff15e03097dded2,,1,0,80,6,1,79
,,,,,,,,,,,,,,,,,,,,,,,,,,,,,,,,,,,m,1.771000147,M,FALSE,,,,,,,156,moto,Catalan,Sounds/cat_moto.mp3,2020-06-09_16h04.11.481,TranslationElicitation_spa,3.2.4,Win32,60,5ede149fcff15e03097dded2,,1,0,80,50,1,79
,,,,,,,,,,,,,,,,,,,,,,,,,,,,,,,,,,,o,1.904000044,MO,FALSE,,,,,,,156,moto,Catalan,Sounds/cat_moto.mp3,2020-06-09_16h04.11.481,TranslationElicitation_spa,3.2.4,Win32,60,5ede149fcff15e03097dded2,,1,0,80,50,1,79
,,,,,,,,,,,,,,,,,,,,,,,,,,,,,,,,,,,t,2.005000114,MOT,FALSE,,,,,,,156,moto,Catalan,Sounds/cat_moto.mp3,2020-06-09_16h04.11.481,TranslationElicitation_spa,3.2.4,Win32,60,5ede149fcff15e03097dded2,,1,0,80,50,1,79
,,,,,,,,,,,,,,,,,,,,,,,,,,,,,,,,,,,o,2.104000092,MOTO,FALSE,,,,,,,156,moto,Catalan,Sounds/cat_moto.mp3,2020-06-09_16h04.11.481,TranslationElicitation_spa,3.2.4,Win32,60,5ede149fcff15e03097dded2,,1,0,80,50,1,79
,,,,,,,,,,,,,,,,,,,,,,,,,,,,,,,,,,,return,2.406000137,,FALSE,,,,,,,156,moto,Catalan,Sounds/cat_moto.mp3,2020-06-09_16h04.11.481,TranslationElicitation_spa,3.2.4,Win32,60,5ede149fcff15e03097dded2,2.406000137,1,0,80,50,1,79
,,,,,,,,,,,,,,,,,,,,,,,,,,,,,,,,,,,,,,,,,,,,,156,moto,Catalan,Sounds/cat_moto.mp3,2020-06-09_16h04.11.481,TranslationElicitation_spa,3.2.4,Win32,60,5ede149fcff15e03097dded2,,1,0,80,50,1,79
,,,,,,,,,,,,,,,,,,,,,,,,,,,,,,,,,,,s,1.220000029,S,FALSE,,,,,,,124,cirera,Catalan,Sounds/cat_cirera.mp3,2020-06-09_16h04.11.481,TranslationElicitation_spa,3.2.4,Win32,60,5ede149fcff15e03097dded2,,1,0,80,19,1,79
,,,,,,,,,,,,,,,,,,,,,,,,,,,,,,,,,,,i,1.588000059,SI,FALSE,,,,,,,124,cirera,Catalan,Sounds/cat_cirera.mp3,2020-06-09_16h04.11.481,TranslationElicitation_spa,3.2.4,Win32,60,5ede149fcff15e03097dded2,,1,0,80,19,1,79
,,,,,,,,,,,,,,,,,,,,,,,,,,,,,,,,,,,r,1.772000074,SIR,FALSE,,,,,,,124,cirera,Catalan,Sounds/cat_cirera.mp3,2020-06-09_16h04.11.481,TranslationElicitation_spa,3.2.4,Win32,60,5ede149fcff15e03097dded2,,1,0,80,19,1,79
,,,,,,,,,,,,,,,,,,,,,,,,,,,,,,,,,,,e,1.92200017,SIRE,FALSE,,,,,,,124,cirera,Catalan,Sounds/cat_cirera.mp3,2020-06-09_16h04.11.481,TranslationElicitation_spa,3.2.4,Win32,60,5ede149fcff15e03097dded2,,1,0,80,19,1,79
,,,,,,,,,,,,,,,,,,,,,,,,,,,,,,,,,,,n,2.089000225,SIREN,FALSE,,,,,,,124,cirera,Catalan,Sounds/cat_cirera.mp3,2020-06-09_16h04.11.481,TranslationElicitation_spa,3.2.4,Win32,60,5ede149fcff15e03097dded2,,1,0,80,19,1,79
,,,,,,,,,,,,,,,,,,,,,,,,,,,,,,,,,,,a,2.257000208,SIRENA,FALSE,,,,,,,124,cirera,Catalan,Sounds/cat_cirera.mp3,2020-06-09_16h04.11.481,TranslationElicitation_spa,3.2.4,Win32,60,5ede149fcff15e03097dded2,,1,0,80,19,1,79
,,,,,,,,,,,,,,,,,,,,,,,,,,,,,,,,,,,return,2.942000151,,FALSE,,,,,,,124,cirera,Catalan,Sounds/cat_cirera.mp3,2020-06-09_16h04.11.481,TranslationElicitation_spa,3.2.4,Win32,60,5ede149fcff15e03097dded2,2.942000151,1,0,80,19,1,79
,,,,,,,,,,,,,,,,,,,,,,,,,,,,,,,,,,,,,,,,,,,,,124,cirera,Catalan,Sounds/cat_cirera.mp3,2020-06-09_16h04.11.481,TranslationElicitation_spa,3.2.4,Win32,60,5ede149fcff15e03097dded2,,1,0,80,19,1,79
,,,,,,,,,,,,,,,,,,,,,,,,,,,,,,,,,,,p,1.769999981,P,FALSE,,,,,,,173,porc,Catalan,Sounds/cat_porc.mp3,2020-06-09_16h04.11.481,TranslationElicitation_spa,3.2.4,Win32,60,5ede149fcff15e03097dded2,,1,0,80,65,1,79
,,,,,,,,,,,,,,,,,,,,,,,,,,,,,,,,,,,a,1.953000069,PA,FALSE,,,,,,,173,porc,Catalan,Sounds/cat_porc.mp3,2020-06-09_16h04.11.481,TranslationElicitation_spa,3.2.4,Win32,60,5ede149fcff15e03097dded2,,1,0,80,65,1,79
,,,,,,,,,,,,,,,,,,,,,,,,,,,,,,,,,,,r,2.120000124,PAR,FALSE,,,,,,,173,porc,Catalan,Sounds/cat_porc.mp3,2020-06-09_16h04.11.481,TranslationElicitation_spa,3.2.4,Win32,60,5ede149fcff15e03097dded2,,1,0,80,65,1,79
,,,,,,,,,,,,,,,,,,,,,,,,,,,,,,,,,,,q,2.253999949,PARQ,FALSE,,,,,,,173,porc,Catalan,Sounds/cat_porc.mp3,2020-06-09_16h04.11.481,TranslationElicitation_spa,3.2.4,Win32,60,5ede149fcff15e03097dded2,,1,0,80,65,1,79
,,,,,,,,,,,,,,,,,,,,,,,,,,,,,,,,,,,u,2.371999979,PARQU,FALSE,,,,,,,173,porc,Catalan,Sounds/cat_porc.mp3,2020-06-09_16h04.11.481,TranslationElicitation_spa,3.2.4,Win32,60,5ede149fcff15e03097dded2,,1,0,80,65,1,79
,,,,,,,,,,,,,,,,,,,,,,,,,,,,,,,,,,,e,2.487999916,PARQUE,FALSE,,,,,,,173,porc,Catalan,Sounds/cat_porc.mp3,2020-06-09_16h04.11.481,TranslationElicitation_spa,3.2.4,Win32,60,5ede149fcff15e03097dded2,,1,0,80,65,1,79
,,,,,,,,,,,,,,,,,,,,,,,,,,,,,,,,,,,return,2.723999977,,FALSE,,,,,,,173,porc,Catalan,Sounds/cat_porc.mp3,2020-06-09_16h04.11.481,TranslationElicitation_spa,3.2.4,Win32,60,5ede149fcff15e03097dded2,2.723999977,1,0,80,65,1,79
,,,,,,,,,,,,,,,,,,,,,,,,,,,,,,,,,,,,,,,,,,,,,173,porc,Catalan,Sounds/cat_porc.mp3,2020-06-09_16h04.11.481,TranslationElicitation_spa,3.2.4,Win32,60,5ede149fcff15e03097dded2,,1,0,80,65,1,79
,,,,,,,,,,,,,,,,,,,,,,,,,,,,,,,,,,,a,2.053999901,A,FALSE,,,,,,,141,gerd,Catalan,Sounds/cat_gerd.mp3,2020-06-09_16h04.11.481,TranslationElicitation_spa,3.2.4,Win32,60,5ede149fcff15e03097dded2,,1,0,80,36,1,79
,,,,,,,,,,,,,,,,,,,,,,,,,,,,,,,,,,,y,2.154999971,AY,FALSE,,,,,,,141,gerd,Catalan,Sounds/cat_gerd.mp3,2020-06-09_16h04.11.481,TranslationElicitation_spa,3.2.4,Win32,60,5ede149fcff15e03097dded2,,1,0,80,36,1,79
,,,,,,,,,,,,,,,,,,,,,,,,,,,,,,,,,,,e,2.320999861,AYE,FALSE,,,,,,,141,gerd,Catalan,Sounds/cat_gerd.mp3,2020-06-09_16h04.11.481,TranslationElicitation_spa,3.2.4,Win32,60,5ede149fcff15e03097dded2,,1,0,80,36,1,79
,,,,,,,,,,,,,,,,,,,,,,,,,,,,,,,,,,,r,2.47300005,AYER,FALSE,,,,,,,141,gerd,Catalan,Sounds/cat_gerd.mp3,2020-06-09_16h04.11.481,TranslationElicitation_spa,3.2.4,Win32,60,5ede149fcff15e03097dded2,,1,0,80,36,1,79
,,,,,,,,,,,,,,,,,,,,,,,,,,,,,,,,,,,return,2.672999859,,FALSE,,,,,,,141,gerd,Catalan,Sounds/cat_gerd.mp3,2020-06-09_16h04.11.481,TranslationElicitation_spa,3.2.4,Win32,60,5ede149fcff15e03097dded2,2.672999859,1,0,80,36,1,79
,,,,,,,,,,,,,,,,,,,,,,,,,,,,,,,,,,,,,,,,,,,,,141,gerd,Catalan,Sounds/cat_gerd.mp3,2020-06-09_16h04.11.481,TranslationElicitation_spa,3.2.4,Win32,60,5ede149fcff15e03097dded2,,1,0,80,36,1,79
,,,,,,,,,,,,,,,,,,,,,,,,,,,,,,,,,,,z,1.921000004,Z,FALSE,,,,,,,176,samarreta,Catalan,Sounds/cat_samarreta.mp3,2020-06-09_16h04.11.481,TranslationElicitation_spa,3.2.4,Win32,60,5ede149fcff15e03097dded2,,1,0,80,68,1,79
,,,,,,,,,,,,,,,,,,,,,,,,,,,,,,,,,,,a,2.138000011,ZA,FALSE,,,,,,,176,samarreta,Catalan,Sounds/cat_samarreta.mp3,2020-06-09_16h04.11.481,TranslationElicitation_spa,3.2.4,Win32,60,5ede149fcff15e03097dded2,,1,0,80,68,1,79
,,,,,,,,,,,,,,,,,,,,,,,,,,,,,,,,,,,m,2.289000034,ZAM,FALSE,,,,,,,176,samarreta,Catalan,Sounds/cat_samarreta.mp3,2020-06-09_16h04.11.481,TranslationElicitation_spa,3.2.4,Win32,60,5ede149fcff15e03097dded2,,1,0,80,68,1,79
,,,,,,,,,,,,,,,,,,,,,,,,,,,,,,,,,,,a,2.47300005,ZAMA,FALSE,,,,,,,176,samarreta,Catalan,Sounds/cat_samarreta.mp3,2020-06-09_16h04.11.481,TranslationElicitation_spa,3.2.4,Win32,60,5ede149fcff15e03097dded2,,1,0,80,68,1,79
,,,,,,,,,,,,,,,,,,,,,,,,,,,,,,,,,,,r,2.741000175,ZAMAR,FALSE,,,,,,,176,samarreta,Catalan,Sounds/cat_samarreta.mp3,2020-06-09_16h04.11.481,TranslationElicitation_spa,3.2.4,Win32,60,5ede149fcff15e03097dded2,,1,0,80,68,1,79
,,,,,,,,,,,,,,,,,,,,,,,,,,,,,,,,,,,r,2.890000105,ZAMARR,FALSE,,,,,,,176,samarreta,Catalan,Sounds/cat_samarreta.mp3,2020-06-09_16h04.11.481,TranslationElicitation_spa,3.2.4,Win32,60,5ede149fcff15e03097dded2,,1,0,80,68,1,79
,,,,,,,,,,,,,,,,,,,,,,,,,,,,,,,,,,,backspace,3.242000103,ZAMA,TRUE,,,,,,,176,samarreta,Catalan,Sounds/cat_samarreta.mp3,2020-06-09_16h04.11.481,TranslationElicitation_spa,3.2.4,Win32,60,5ede149fcff15e03097dded2,,1,0,80,68,1,79
,,,,,,,,,,,,,,,,,,,,,,,,,,,,,,,,,,,backspace,3.759000063,ZA,TRUE,,,,,,,176,samarreta,Catalan,Sounds/cat_samarreta.mp3,2020-06-09_16h04.11.481,TranslationElicitation_spa,3.2.4,Win32,60,5ede149fcff15e03097dded2,,1,0,80,68,1,79
,,,,,,,,,,,,,,,,,,,,,,,,,,,,,,,,,,,backspace,3.792999983,,TRUE,,,,,,,176,samarreta,Catalan,Sounds/cat_samarreta.mp3,2020-06-09_16h04.11.481,TranslationElicitation_spa,3.2.4,Win32,60,5ede149fcff15e03097dded2,,1,0,80,68,1,79
,,,,,,,,,,,,,,,,,,,,,,,,,,,,,,,,,,,backspace,3.976999998,,TRUE,,,,,,,176,samarreta,Catalan,Sounds/cat_samarreta.mp3,2020-06-09_16h04.11.481,TranslationElicitation_spa,3.2.4,Win32,60,5ede149fcff15e03097dded2,,1,0,80,68,1,79
,,,,,,,,,,,,,,,,,,,,,,,,,,,,,,,,,,,m,4.295000076,M,TRUE,,,,,,,176,samarreta,Catalan,Sounds/cat_samarreta.mp3,2020-06-09_16h04.11.481,TranslationElicitation_spa,3.2.4,Win32,60,5ede149fcff15e03097dded2,,1,0,80,68,1,79
,,,,,,,,,,,,,,,,,,,,,,,,,,,,,,,,,,,a,4.394999981,MA,TRUE,,,,,,,176,samarreta,Catalan,Sounds/cat_samarreta.mp3,2020-06-09_16h04.11.481,TranslationElicitation_spa,3.2.4,Win32,60,5ede149fcff15e03097dded2,,1,0,80,68,1,79
,,,,,,,,,,,,,,,,,,,,,,,,,,,,,,,,,,,l,4.695000172,MAL,TRUE,,,,,,,176,samarreta,Catalan,Sounds/cat_samarreta.mp3,2020-06-09_16h04.11.481,TranslationElicitation_spa,3.2.4,Win32,60,5ede149fcff15e03097dded2,,1,0,80,68,1,79
,,,,,,,,,,,,,,,,,,,,,,,,,,,,,,,,,,,e,4.795000076,MALE,TRUE,,,,,,,176,samarreta,Catalan,Sounds/cat_samarreta.mp3,2020-06-09_16h04.11.481,TranslationElicitation_spa,3.2.4,Win32,60,5ede149fcff15e03097dded2,,1,0,80,68,1,79
,,,,,,,,,,,,,,,,,,,,,,,,,,,,,,,,,,,t,4.930000067,MALET,TRUE,,,,,,,176,samarreta,Catalan,Sounds/cat_samarreta.mp3,2020-06-09_16h04.11.481,TranslationElicitation_spa,3.2.4,Win32,60,5ede149fcff15e03097dded2,,1,0,80,68,1,79
,,,,,,,,,,,,,,,,,,,,,,,,,,,,,,,,,,,a,5.196000099,MALETA,TRUE,,,,,,,176,samarreta,Catalan,Sounds/cat_samarreta.mp3,2020-06-09_16h04.11.481,TranslationElicitation_spa,3.2.4,Win32,60,5ede149fcff15e03097dded2,,1,0,80,68,1,79
,,,,,,,,,,,,,,,,,,,,,,,,,,,,,,,,,,,return,5.548000097,,TRUE,,,,,,,176,samarreta,Catalan,Sounds/cat_samarreta.mp3,2020-06-09_16h04.11.481,TranslationElicitation_spa,3.2.4,Win32,60,5ede149fcff15e03097dded2,5.548000097,1,0,80,68,1,79
,,,,,,,,,,,,,,,,,,,,,,,,,,,,,,,,,,,,,,,,,,,,,176,samarreta,Catalan,Sounds/cat_samarreta.mp3,2020-06-09_16h04.11.481,TranslationElicitation_spa,3.2.4,Win32,60,5ede149fcff15e03097dded2,,1,0,80,68,1,79
,,,,,,,,,,,,,,,,,,,,,,,,,,,,,,,,,,,p,1.717999935,P,FALSE,,,,,,,170,ploma,Catalan,Sounds/cat_ploma.mp3,2020-06-09_16h04.11.481,TranslationElicitation_spa,3.2.4,Win32,60,5ede149fcff15e03097dded2,,1,0,80,62,1,79
,,,,,,,,,,,,,,,,,,,,,,,,,,,,,,,,,,,l,1.850999832,PL,FALSE,,,,,,,170,ploma,Catalan,Sounds/cat_ploma.mp3,2020-06-09_16h04.11.481,TranslationElicitation_spa,3.2.4,Win32,60,5ede149fcff15e03097dded2,,1,0,80,62,1,79
,,,,,,,,,,,,,,,,,,,,,,,,,,,,,,,,,,,o,2.034999847,PLO,FALSE,,,,,,,170,ploma,Catalan,Sounds/cat_ploma.mp3,2020-06-09_16h04.11.481,TranslationElicitation_spa,3.2.4,Win32,60,5ede149fcff15e03097dded2,,1,0,80,62,1,79
,,,,,,,,,,,,,,,,,,,,,,,,,,,,,,,,,,,m,2.234999895,PLOM,FALSE,,,,,,,170,ploma,Catalan,Sounds/cat_ploma.mp3,2020-06-09_16h04.11.481,TranslationElicitation_spa,3.2.4,Win32,60,5ede149fcff15e03097dded2,,1,0,80,62,1,79
,,,,,,,,,,,,,,,,,,,,,,,,,,,,,,,,,,,o,2.335999966,PLOMO,FALSE,,,,,,,170,ploma,Catalan,Sounds/cat_ploma.mp3,2020-06-09_16h04.11.481,TranslationElicitation_spa,3.2.4,Win32,60,5ede149fcff15e03097dded2,,1,0,80,62,1,79
,,,,,,,,,,,,,,,,,,,,,,,,,,,,,,,,,,,return,2.636999846,,FALSE,,,,,,,170,ploma,Catalan,Sounds/cat_ploma.mp3,2020-06-09_16h04.11.481,TranslationElicitation_spa,3.2.4,Win32,60,5ede149fcff15e03097dded2,2.636999846,1,0,80,62,1,79
,,,,,,,,,,,,,,,,,,,,,,,,,,,,,,,,,,,,,,,,,,,,,170,ploma,Catalan,Sounds/cat_ploma.mp3,2020-06-09_16h04.11.481,TranslationElicitation_spa,3.2.4,Win32,60,5ede149fcff15e03097dded2,,1,0,80,62,1,79
,,,,,,,,,,,,,,,,,,,,,,,,,,,,,,,,,,,u,2.638000011,U,FALSE,,,,,,,157,mussol,Catalan,Sounds/cat_mussol.mp3,2020-06-09_16h04.11.481,TranslationElicitation_spa,3.2.4,Win32,60,5ede149fcff15e03097dded2,,1,0,80,51,1,79
,,,,,,,,,,,,,,,,,,,,,,,,,,,,,,,,,,,n,2.845999956,UN,FALSE,,,,,,,157,mussol,Catalan,Sounds/cat_mussol.mp3,2020-06-09_16h04.11.481,TranslationElicitation_spa,3.2.4,Win32,60,5ede149fcff15e03097dded2,,1,0,80,51,1,79
,,,,,,,,,,,,,,,,,,,,,,,,,,,,,,,,,,,space,2.922999859,UN ,FALSE,,,,,,,157,mussol,Catalan,Sounds/cat_mussol.mp3,2020-06-09_16h04.11.481,TranslationElicitation_spa,3.2.4,Win32,60,5ede149fcff15e03097dded2,,1,0,80,51,1,79
,,,,,,,,,,,,,,,,,,,,,,,,,,,,,,,,,,,s,3.023000002,UN S,FALSE,,,,,,,157,mussol,Catalan,Sounds/cat_mussol.mp3,2020-06-09_16h04.11.481,TranslationElicitation_spa,3.2.4,Win32,60,5ede149fcff15e03097dded2,,1,0,80,51,1,79
,,,,,,,,,,,,,,,,,,,,,,,,,,,,,,,,,,,o,3.123999834,UN SO,FALSE,,,,,,,157,mussol,Catalan,Sounds/cat_mussol.mp3,2020-06-09_16h04.11.481,TranslationElicitation_spa,3.2.4,Win32,60,5ede149fcff15e03097dded2,,1,0,80,51,1,79
,,,,,,,,,,,,,,,,,,,,,,,,,,,,,,,,,,,l,3.323999882,UN SOL,FALSE,,,,,,,157,mussol,Catalan,Sounds/cat_mussol.mp3,2020-06-09_16h04.11.481,TranslationElicitation_spa,3.2.4,Win32,60,5ede149fcff15e03097dded2,,1,0,80,51,1,79
,,,,,,,,,,,,,,,,,,,,,,,,,,,,,,,,,,,return,3.708999872,,FALSE,,,,,,,157,mussol,Catalan,Sounds/cat_mussol.mp3,2020-06-09_16h04.11.481,TranslationElicitation_spa,3.2.4,Win32,60,5ede149fcff15e03097dded2,3.708999872,1,0,80,51,1,79
,,,,,,,,,,,,,,,,,,,,,,,,,,,,,,,,,,,,,,,,,,,,,157,mussol,Catalan,Sounds/cat_mussol.mp3,2020-06-09_16h04.11.481,TranslationElicitation_spa,3.2.4,Win32,60,5ede149fcff15e03097dded2,,1,0,80,51,1,79
,,,,,,,,,,,,,,,,,,,,,,,,,,,,,,,,,,,a,1.453000069,A,FALSE,,,,,,,130,entrepa,Catalan,Sounds/cat_entrepa.mp3,2020-06-09_16h04.11.481,TranslationElicitation_spa,3.2.4,Win32,60,5ede149fcff15e03097dded2,,1,0,80,25,1,79
,,,,,,,,,,,,,,,,,,,,,,,,,,,,,,,,,,,t,1.653000116,AT,FALSE,,,,,,,130,entrepa,Catalan,Sounds/cat_entrepa.mp3,2020-06-09_16h04.11.481,TranslationElicitation_spa,3.2.4,Win32,60,5ede149fcff15e03097dded2,,1,0,80,25,1,79
,,,,,,,,,,,,,,,,,,,,,,,,,,,,,,,,,,,r,1.802999973,ATR,FALSE,,,,,,,130,entrepa,Catalan,Sounds/cat_entrepa.mp3,2020-06-09_16h04.11.481,TranslationElicitation_spa,3.2.4,Win32,60,5ede149fcff15e03097dded2,,1,0,80,25,1,79
,,,,,,,,,,,,,,,,,,,,,,,,,,,,,,,,,,,a,2.003999949,ATRA,FALSE,,,,,,,130,entrepa,Catalan,Sounds/cat_entrepa.mp3,2020-06-09_16h04.11.481,TranslationElicitation_spa,3.2.4,Win32,60,5ede149fcff15e03097dded2,,1,0,80,25,1,79
,,,,,,,,,,,,,,,,,,,,,,,,,,,,,,,,,,,p,2.072000027,ATRAP,FALSE,,,,,,,130,entrepa,Catalan,Sounds/cat_entrepa.mp3,2020-06-09_16h04.11.481,TranslationElicitation_spa,3.2.4,Win32,60,5ede149fcff15e03097dded2,,1,0,80,25,1,79
,,,,,,,,,,,,,,,,,,,,,,,,,,,,,,,,,,,a,2.171000004,ATRAPA,FALSE,,,,,,,130,entrepa,Catalan,Sounds/cat_entrepa.mp3,2020-06-09_16h04.11.481,TranslationElicitation_spa,3.2.4,Win32,60,5ede149fcff15e03097dded2,,1,0,80,25,1,79
,,,,,,,,,,,,,,,,,,,,,,,,,,,,,,,,,,,r,2.338999987,ATRAPAR,FALSE,,,,,,,130,entrepa,Catalan,Sounds/cat_entrepa.mp3,2020-06-09_16h04.11.481,TranslationElicitation_spa,3.2.4,Win32,60,5ede149fcff15e03097dded2,,1,0,80,25,1,79
,,,,,,,,,,,,,,,,,,,,,,,,,,,,,,,,,,,return,2.588999987,,FALSE,,,,,,,130,entrepa,Catalan,Sounds/cat_entrepa.mp3,2020-06-09_16h04.11.481,TranslationElicitation_spa,3.2.4,Win32,60,5ede149fcff15e03097dded2,2.588999987,1,0,80,25,1,79
,,,,,,,,,,,,,,,,,,,,,,,,,,,,,,,,,,,,,,,,,,,,,130,entrepa,Catalan,Sounds/cat_entrepa.mp3,2020-06-09_16h04.11.481,TranslationElicitation_spa,3.2.4,Win32,60,5ede149fcff15e03097dded2,,1,0,80,25,1,79
,,,,,,,,,,,,,,,,,,,,,,,,,,,,,,,,,,,b,2.055000067,B,FALSE,,,,,,,118,bou,Catalan,Sounds/cat_bou.mp3,2020-06-09_16h04.11.481,TranslationElicitation_spa,3.2.4,Win32,60,5ede149fcff15e03097dded2,,1,0,80,13,1,79
,,,,,,,,,,,,,,,,,,,,,,,,,,,,,,,,,,,o,2.305000067,BO,FALSE,,,,,,,118,bou,Catalan,Sounds/cat_bou.mp3,2020-06-09_16h04.11.481,TranslationElicitation_spa,3.2.4,Win32,60,5ede149fcff15e03097dded2,,1,0,80,13,1,79
,,,,,,,,,,,,,,,,,,,,,,,,,,,,,,,,,,,l,2.555000067,BOL,FALSE,,,,,,,118,bou,Catalan,Sounds/cat_bou.mp3,2020-06-09_16h04.11.481,TranslationElicitation_spa,3.2.4,Win32,60,5ede149fcff15e03097dded2,,1,0,80,13,1,79
,,,,,,,,,,,,,,,,,,,,,,,,,,,,,,,,,,,return,3.024000168,,FALSE,,,,,,,118,bou,Catalan,Sounds/cat_bou.mp3,2020-06-09_16h04.11.481,TranslationElicitation_spa,3.2.4,Win32,60,5ede149fcff15e03097dded2,3.023000002,1,0,80,13,1,79
,,,,,,,,,,,,,,,,,,,,,,,,,,,,,,,,,,,,,,,,,,,,,118,bou,Catalan,Sounds/cat_bou.mp3,2020-06-09_16h04.11.481,TranslationElicitation_spa,3.2.4,Win32,60,5ede149fcff15e03097dded2,,1,0,80,13,1,79
,,,,,,,,,,,,,,,,,,,,,,,,,,,,,,,,,,,t,1.352999926,T,FALSE,,,,,,,183,tren,Catalan,Sounds/cat_tren.mp3,2020-06-09_16h04.11.481,TranslationElicitation_spa,3.2.4,Win32,60,5ede149fcff15e03097dded2,,1,0,80,74,1,79
,,,,,,,,,,,,,,,,,,,,,,,,,,,,,,,,,,,r,1.519999981,TR,FALSE,,,,,,,183,tren,Catalan,Sounds/cat_tren.mp3,2020-06-09_16h04.11.481,TranslationElicitation_spa,3.2.4,Win32,60,5ede149fcff15e03097dded2,,1,0,80,74,1,79
,,,,,,,,,,,,,,,,,,,,,,,,,,,,,,,,,,,e,1.618999958,TRE,FALSE,,,,,,,183,tren,Catalan,Sounds/cat_tren.mp3,2020-06-09_16h04.11.481,TranslationElicitation_spa,3.2.4,Win32,60,5ede149fcff15e03097dded2,,1,0,80,74,1,79
,,,,,,,,,,,,,,,,,,,,,,,,,,,,,,,,,,,n,1.751999855,TREN,FALSE,,,,,,,183,tren,Catalan,Sounds/cat_tren.mp3,2020-06-09_16h04.11.481,TranslationElicitation_spa,3.2.4,Win32,60,5ede149fcff15e03097dded2,,1,0,80,74,1,79
,,,,,,,,,,,,,,,,,,,,,,,,,,,,,,,,,,,return,2.020999908,,FALSE,,,,,,,183,tren,Catalan,Sounds/cat_tren.mp3,2020-06-09_16h04.11.481,TranslationElicitation_spa,3.2.4,Win32,60,5ede149fcff15e03097dded2,2.020999908,1,0,80,74,1,79
,,,,,,,,,,,,,,,,,,,,,,,,,,,,,,,,,,,,,,,,,,,,,183,tren,Catalan,Sounds/cat_tren.mp3,2020-06-09_16h04.11.481,TranslationElicitation_spa,3.2.4,Win32,60,5ede149fcff15e03097dded2,,1,0,80,74,1,79
,,,,,,,,,,,,,,,,,,,,,,,,,,,,,,,,,,,b,3.536999941,B,FALSE,,,,,,,115,bolet,Catalan,Sounds/cat_bolet.mp3,2020-06-09_16h04.11.481,TranslationElicitation_spa,3.2.4,Win32,60,5ede149fcff15e03097dded2,,1,0,80,10,1,79
,,,,,,,,,,,,,,,,,,,,,,,,,,,,,,,,,,,u,3.770999908,BU,FALSE,,,,,,,115,bolet,Catalan,Sounds/cat_bolet.mp3,2020-06-09_16h04.11.481,TranslationElicitation_spa,3.2.4,Win32,60,5ede149fcff15e03097dded2,,1,0,80,10,1,79
,,,,,,,,,,,,,,,,,,,,,,,,,,,,,,,,,,,l,4.054999828,BUL,FALSE,,,,,,,115,bolet,Catalan,Sounds/cat_bolet.mp3,2020-06-09_16h04.11.481,TranslationElicitation_spa,3.2.4,Win32,60,5ede149fcff15e03097dded2,,1,0,80,10,1,79
,,,,,,,,,,,,,,,,,,,,,,,,,,,,,,,,,,,e,4.221999884,BULE,FALSE,,,,,,,115,bolet,Catalan,Sounds/cat_bolet.mp3,2020-06-09_16h04.11.481,TranslationElicitation_spa,3.2.4,Win32,60,5ede149fcff15e03097dded2,,1,0,80,10,1,79
,,,,,,,,,,,,,,,,,,,,,,,,,,,,,,,,,,,t,4.405999899,BULET,FALSE,,,,,,,115,bolet,Catalan,Sounds/cat_bolet.mp3,2020-06-09_16h04.11.481,TranslationElicitation_spa,3.2.4,Win32,60,5ede149fcff15e03097dded2,,1,0,80,10,1,79
,,,,,,,,,,,,,,,,,,,,,,,,,,,,,,,,,,,backspace,5.540999889,BUL,TRUE,,,,,,,115,bolet,Catalan,Sounds/cat_bolet.mp3,2020-06-09_16h04.11.481,TranslationElicitation_spa,3.2.4,Win32,60,5ede149fcff15e03097dded2,,1,0,80,10,1,79
,,,,,,,,,,,,,,,,,,,,,,,,,,,,,,,,,,,backspace,5.842999935,B,TRUE,,,,,,,115,bolet,Catalan,Sounds/cat_bolet.mp3,2020-06-09_16h04.11.481,TranslationElicitation_spa,3.2.4,Win32,60,5ede149fcff15e03097dded2,,1,0,80,10,1,79
,,,,,,,,,,,,,,,,,,,,,,,,,,,,,,,,,,,backspace,6.510999918,,TRUE,,,,,,,115,bolet,Catalan,Sounds/cat_bolet.mp3,2020-06-09_16h04.11.481,TranslationElicitation_spa,3.2.4,Win32,60,5ede149fcff15e03097dded2,,1,0,80,10,1,79
,,,,,,,,,,,,,,,,,,,,,,,,,,,,,,,,,,,b,6.895999908,B,TRUE,,,,,,,115,bolet,Catalan,Sounds/cat_bolet.mp3,2020-06-09_16h04.11.481,TranslationElicitation_spa,3.2.4,Win32,60,5ede149fcff15e03097dded2,,1,0,80,10,1,79
,,,,,,,,,,,,,,,,,,,,,,,,,,,,,,,,,,,o,7.145999908,BO,TRUE,,,,,,,115,bolet,Catalan,Sounds/cat_bolet.mp3,2020-06-09_16h04.11.481,TranslationElicitation_spa,3.2.4,Win32,60,5ede149fcff15e03097dded2,,1,0,80,10,1,79
,,,,,,,,,,,,,,,,,,,,,,,,,,,,,,,,,,,l,7.329999924,BOL,TRUE,,,,,,,115,bolet,Catalan,Sounds/cat_bolet.mp3,2020-06-09_16h04.11.481,TranslationElicitation_spa,3.2.4,Win32,60,5ede149fcff15e03097dded2,,1,0,80,10,1,79
,,,,,,,,,,,,,,,,,,,,,,,,,,,,,,,,,,,e,7.430999994,BOLE,TRUE,,,,,,,115,bolet,Catalan,Sounds/cat_bolet.mp3,2020-06-09_16h04.11.481,TranslationElicitation_spa,3.2.4,Win32,60,5ede149fcff15e03097dded2,,1,0,80,10,1,79
,,,,,,,,,,,,,,,,,,,,,,,,,,,,,,,,,,,r,7.546000004,BOLER,TRUE,,,,,,,115,bolet,Catalan,Sounds/cat_bolet.mp3,2020-06-09_16h04.11.481,TranslationElicitation_spa,3.2.4,Win32,60,5ede149fcff15e03097dded2,,1,0,80,10,1,79
,,,,,,,,,,,,,,,,,,,,,,,,,,,,,,,,,,,o,7.629999876,BOLERO,TRUE,,,,,,,115,bolet,Catalan,Sounds/cat_bolet.mp3,2020-06-09_16h04.11.481,TranslationElicitation_spa,3.2.4,Win32,60,5ede149fcff15e03097dded2,,1,0,80,10,1,79
,,,,,,,,,,,,,,,,,,,,,,,,,,,,,,,,,,,return,8.082000017,,TRUE,,,,,,,115,bolet,Catalan,Sounds/cat_bolet.mp3,2020-06-09_16h04.11.481,TranslationElicitation_spa,3.2.4,Win32,60,5ede149fcff15e03097dded2,8.082000017,1,0,80,10,1,79
,,,,,,,,,,,,,,,,,,,,,,,,,,,,,,,,,,,,,,,,,,,,,115,bolet,Catalan,Sounds/cat_bolet.mp3,2020-06-09_16h04.11.481,TranslationElicitation_spa,3.2.4,Win32,60,5ede149fcff15e03097dded2,,1,0,80,10,1,79
,,,,,,,,,,,,,,,,,,,,,,,,,,,,,,,,,,,b,1.484000206,B,FALSE,,,,,,,112,bici,Catalan,Sounds/cat_bici.mp3,2020-06-09_16h04.11.481,TranslationElicitation_spa,3.2.4,Win32,60,5ede149fcff15e03097dded2,,1,0,80,7,1,79
,,,,,,,,,,,,,,,,,,,,,,,,,,,,,,,,,,,i,1.634000063,BI,FALSE,,,,,,,112,bici,Catalan,Sounds/cat_bici.mp3,2020-06-09_16h04.11.481,TranslationElicitation_spa,3.2.4,Win32,60,5ede149fcff15e03097dded2,,1,0,80,7,1,79
,,,,,,,,,,,,,,,,,,,,,,,,,,,,,,,,,,,c,1.752000093,BIC,FALSE,,,,,,,112,bici,Catalan,Sounds/cat_bici.mp3,2020-06-09_16h04.11.481,TranslationElicitation_spa,3.2.4,Win32,60,5ede149fcff15e03097dded2,,1,0,80,7,1,79
,,,,,,,,,,,,,,,,,,,,,,,,,,,,,,,,,,,i,1.835000038,BICI,FALSE,,,,,,,112,bici,Catalan,Sounds/cat_bici.mp3,2020-06-09_16h04.11.481,TranslationElicitation_spa,3.2.4,Win32,60,5ede149fcff15e03097dded2,,1,0,80,7,1,79
,,,,,,,,,,,,,,,,,,,,,,,,,,,,,,,,,,,return,2.253000021,,FALSE,,,,,,,112,bici,Catalan,Sounds/cat_bici.mp3,2020-06-09_16h04.11.481,TranslationElicitation_spa,3.2.4,Win32,60,5ede149fcff15e03097dded2,2.253000021,1,0,80,7,1,79
,,,,,,,,,,,,,,,,,,,,,,,,,,,,,,,,,,,,,,,,,,,,,112,bici,Catalan,Sounds/cat_bici.mp3,2020-06-09_16h04.11.481,TranslationElicitation_spa,3.2.4,Win32,60,5ede149fcff15e03097dded2,,1,0,80,7,1,79
,,,,,,,,,,,,,,,,,,,,,,,,,,,,,,,,,,,c,1.571000099,C,FALSE,,,,,,,120,cama,Catalan,Sounds/cat_cama.mp3,2020-06-09_16h04.11.481,TranslationElicitation_spa,3.2.4,Win32,60,5ede149fcff15e03097dded2,,1,0,80,15,1,79
,,,,,,,,,,,,,,,,,,,,,,,,,,,,,,,,,,,a,1.721000195,CA,FALSE,,,,,,,120,cama,Catalan,Sounds/cat_cama.mp3,2020-06-09_16h04.11.481,TranslationElicitation_spa,3.2.4,Win32,60,5ede149fcff15e03097dded2,,1,0,80,15,1,79
,,,,,,,,,,,,,,,,,,,,,,,,,,,,,,,,,,,m,1.820000172,CAM,FALSE,,,,,,,120,cama,Catalan,Sounds/cat_cama.mp3,2020-06-09_16h04.11.481,TranslationElicitation_spa,3.2.4,Win32,60,5ede149fcff15e03097dded2,,1,0,80,15,1,79
,,,,,,,,,,,,,,,,,,,,,,,,,,,,,,,,,,,a,1.904000044,CAMA,FALSE,,,,,,,120,cama,Catalan,Sounds/cat_cama.mp3,2020-06-09_16h04.11.481,TranslationElicitation_spa,3.2.4,Win32,60,5ede149fcff15e03097dded2,,1,0,80,15,1,79
,,,,,,,,,,,,,,,,,,,,,,,,,,,,,,,,,,,return,2.088999987,,FALSE,,,,,,,120,cama,Catalan,Sounds/cat_cama.mp3,2020-06-09_16h04.11.481,TranslationElicitation_spa,3.2.4,Win32,60,5ede149fcff15e03097dded2,2.088999987,1,0,80,15,1,79
,,,,,,,,,,,,,,,,,,,,,,,,,,,,,,,,,,,,,,,,,,,,,120,cama,Catalan,Sounds/cat_cama.mp3,2020-06-09_16h04.11.481,TranslationElicitation_spa,3.2.4,Win32,60,5ede149fcff15e03097dded2,,1,0,80,15,1,79
,,,,,,,,,,,,,,,,,,,,,,,,,,,,,,,,,,,b,3.509000063,B,FALSE,,,,,,,117,boto,Catalan,Sounds/cat_boto.mp3,2020-06-09_16h04.11.481,TranslationElicitation_spa,3.2.4,Win32,60,5ede149fcff15e03097dded2,,1,0,80,12,1,79
,,,,,,,,,,,,,,,,,,,,,,,,,,,,,,,,,,,u,3.64199996,BU,FALSE,,,,,,,117,boto,Catalan,Sounds/cat_boto.mp3,2020-06-09_16h04.11.481,TranslationElicitation_spa,3.2.4,Win32,60,5ede149fcff15e03097dded2,,1,0,80,12,1,79
,,,,,,,,,,,,,,,,,,,,,,,,,,,,,,,,,,,s,3.743000031,BUS,FALSE,,,,,,,117,boto,Catalan,Sounds/cat_boto.mp3,2020-06-09_16h04.11.481,TranslationElicitation_spa,3.2.4,Win32,60,5ede149fcff15e03097dded2,,1,0,80,12,1,79
,,,,,,,,,,,,,,,,,,,,,,,,,,,,,,,,,,,t,3.942000151,BUST,FALSE,,,,,,,117,boto,Catalan,Sounds/cat_boto.mp3,2020-06-09_16h04.11.481,TranslationElicitation_spa,3.2.4,Win32,60,5ede149fcff15e03097dded2,,1,0,80,12,1,79
,,,,,,,,,,,,,,,,,,,,,,,,,,,,,,,,,,,o,4.077000141,BUSTO,FALSE,,,,,,,117,boto,Catalan,Sounds/cat_boto.mp3,2020-06-09_16h04.11.481,TranslationElicitation_spa,3.2.4,Win32,60,5ede149fcff15e03097dded2,,1,0,80,12,1,79
,,,,,,,,,,,,,,,,,,,,,,,,,,,,,,,,,,,return,4.411000013,,FALSE,,,,,,,117,boto,Catalan,Sounds/cat_boto.mp3,2020-06-09_16h04.11.481,TranslationElicitation_spa,3.2.4,Win32,60,5ede149fcff15e03097dded2,4.411000013,1,0,80,12,1,79
,,,,,,,,,,,,,,,,,,,,,,,,,,,,,,,,,,,,,,,,,,,,,117,boto,Catalan,Sounds/cat_boto.mp3,2020-06-09_16h04.11.481,TranslationElicitation_spa,3.2.4,Win32,60,5ede149fcff15e03097dded2,,1,0,80,12,1,79
,,,,,,,,,,,,,,,,,,,,,,,,,,,,,,,,,,,c,2.355000019,C,FALSE,,,,,,,125,colom,Catalan,Sounds/cat_colom.mp3,2020-06-09_16h04.11.481,TranslationElicitation_spa,3.2.4,Win32,60,5ede149fcff15e03097dded2,,1,0,80,20,1,79
,,,,,,,,,,,,,,,,,,,,,,,,,,,,,,,,,,,u,2.538000107,CU,FALSE,,,,,,,125,colom,Catalan,Sounds/cat_colom.mp3,2020-06-09_16h04.11.481,TranslationElicitation_spa,3.2.4,Win32,60,5ede149fcff15e03097dded2,,1,0,80,20,1,79
,,,,,,,,,,,,,,,,,,,,,,,,,,,,,,,,,,,l,2.823000193,CUL,FALSE,,,,,,,125,colom,Catalan,Sounds/cat_colom.mp3,2020-06-09_16h04.11.481,TranslationElicitation_spa,3.2.4,Win32,60,5ede149fcff15e03097dded2,,1,0,80,20,1,79
,,,,,,,,,,,,,,,,,,,,,,,,,,,,,,,,,,,o,2.975000143,CULO,FALSE,,,,,,,125,colom,Catalan,Sounds/cat_colom.mp3,2020-06-09_16h04.11.481,TranslationElicitation_spa,3.2.4,Win32,60,5ede149fcff15e03097dded2,,1,0,80,20,1,79
,,,,,,,,,,,,,,,,,,,,,,,,,,,,,,,,,,,return,3.407000065,,FALSE,,,,,,,125,colom,Catalan,Sounds/cat_colom.mp3,2020-06-09_16h04.11.481,TranslationElicitation_spa,3.2.4,Win32,60,5ede149fcff15e03097dded2,3.407000065,1,0,80,20,1,79
,,,,,,,,,,,,,,,,,,,,,,,,,,,,,,,,,,,,,,,,,,,,,125,colom,Catalan,Sounds/cat_colom.mp3,2020-06-09_16h04.11.481,TranslationElicitation_spa,3.2.4,Win32,60,5ede149fcff15e03097dded2,,1,0,80,20,1,79
,,,,,,,,,,,,,,,,,,,,,,,,,,,,,,,,,,,c,1.95600009,C,FALSE,,,,,,,189,zebra,Catalan,Sounds/cat_zebra.mp3,2020-06-09_16h04.11.481,TranslationElicitation_spa,3.2.4,Win32,60,5ede149fcff15e03097dded2,,1,0,80,79,1,79
,,,,,,,,,,,,,,,,,,,,,,,,,,,,,,,,,,,e,2.055000067,CE,FALSE,,,,,,,189,zebra,Catalan,Sounds/cat_zebra.mp3,2020-06-09_16h04.11.481,TranslationElicitation_spa,3.2.4,Win32,60,5ede149fcff15e03097dded2,,1,0,80,79,1,79
,,,,,,,,,,,,,,,,,,,,,,,,,,,,,,,,,,,b,2.171000004,CEB,FALSE,,,,,,,189,zebra,Catalan,Sounds/cat_zebra.mp3,2020-06-09_16h04.11.481,TranslationElicitation_spa,3.2.4,Win32,60,5ede149fcff15e03097dded2,,1,0,80,79,1,79
,,,,,,,,,,,,,,,,,,,,,,,,,,,,,,,,,,,r,2.289000034,CEBR,FALSE,,,,,,,189,zebra,Catalan,Sounds/cat_zebra.mp3,2020-06-09_16h04.11.481,TranslationElicitation_spa,3.2.4,Win32,60,5ede149fcff15e03097dded2,,1,0,80,79,1,79
,,,,,,,,,,,,,,,,,,,,,,,,,,,,,,,,,,,a,2.489000082,CEBRA,FALSE,,,,,,,189,zebra,Catalan,Sounds/cat_zebra.mp3,2020-06-09_16h04.11.481,TranslationElicitation_spa,3.2.4,Win32,60,5ede149fcff15e03097dded2,,1,0,80,79,1,79
,,,,,,,,,,,,,,,,,,,,,,,,,,,,,,,,,,,return,2.757000208,,FALSE,,,,,,,189,zebra,Catalan,Sounds/cat_zebra.mp3,2020-06-09_16h04.11.481,TranslationElicitation_spa,3.2.4,Win32,60,5ede149fcff15e03097dded2,2.757000208,1,0,80,79,1,79
,,,,,,,,,,,,,,,,,,,,,,,,,,,,,,,,,,,,,,,,,,,,,189,zebra,Catalan,Sounds/cat_zebra.mp3,2020-06-09_16h04.11.481,TranslationElicitation_spa,3.2.4,Win32,60,5ede149fcff15e03097dded2,,1,0,80,79,1,79
,,,,,,,,,,,,,,,,,,,,,,,,,,,,,,,,,,,f,1.635999918,F,FALSE,,,,,,,137,fulla,Catalan,Sounds/cat_fulla.mp3,2020-06-09_16h04.11.481,TranslationElicitation_spa,3.2.4,Win32,60,5ede149fcff15e03097dded2,,1,0,80,32,1,79
,,,,,,,,,,,,,,,,,,,,,,,,,,,,,,,,,,,u,1.753000021,FU,FALSE,,,,,,,137,fulla,Catalan,Sounds/cat_fulla.mp3,2020-06-09_16h04.11.481,TranslationElicitation_spa,3.2.4,Win32,60,5ede149fcff15e03097dded2,,1,0,80,32,1,79
,,,,,,,,,,,,,,,,,,,,,,,,,,,,,,,,,,,r,1.852999926,FUR,FALSE,,,,,,,137,fulla,Catalan,Sounds/cat_fulla.mp3,2020-06-09_16h04.11.481,TranslationElicitation_spa,3.2.4,Win32,60,5ede149fcff15e03097dded2,,1,0,80,32,1,79
,,,,,,,,,,,,,,,,,,,,,,,,,,,,,,,,,,,i,1.970000029,FURI,FALSE,,,,,,,137,fulla,Catalan,Sounds/cat_fulla.mp3,2020-06-09_16h04.11.481,TranslationElicitation_spa,3.2.4,Win32,60,5ede149fcff15e03097dded2,,1,0,80,32,1,79
,,,,,,,,,,,,,,,,,,,,,,,,,,,,,,,,,,,a,2.119999886,FURIA,FALSE,,,,,,,137,fulla,Catalan,Sounds/cat_fulla.mp3,2020-06-09_16h04.11.481,TranslationElicitation_spa,3.2.4,Win32,60,5ede149fcff15e03097dded2,,1,0,80,32,1,79
,,,,,,,,,,,,,,,,,,,,,,,,,,,,,,,,,,,return,2.320999861,,FALSE,,,,,,,137,fulla,Catalan,Sounds/cat_fulla.mp3,2020-06-09_16h04.11.481,TranslationElicitation_spa,3.2.4,Win32,60,5ede149fcff15e03097dded2,2.320999861,1,0,80,32,1,79
,,,,,,,,,,,,,,,,,,,,,,,,,,,,,,,,,,,,,,,,,,,,,137,fulla,Catalan,Sounds/cat_fulla.mp3,2020-06-09_16h04.11.481,TranslationElicitation_spa,3.2.4,Win32,60,5ede149fcff15e03097dded2,,1,0,80,32,1,79
,,,,,,,,,,,,,,,,,,,,,,,,,,,,,,,,,,,h,1.304000139,H,FALSE,,,,,,,135,formiga,Catalan,Sounds/cat_formiga.mp3,2020-06-09_16h04.11.481,TranslationElicitation_spa,3.2.4,Win32,60,5ede149fcff15e03097dded2,,1,0,80,30,1,79
,,,,,,,,,,,,,,,,,,,,,,,,,,,,,,,,,,,o,1.621000051,HO,FALSE,,,,,,,135,formiga,Catalan,Sounds/cat_formiga.mp3,2020-06-09_16h04.11.481,TranslationElicitation_spa,3.2.4,Win32,60,5ede149fcff15e03097dded2,,1,0,80,30,1,79
,,,,,,,,,,,,,,,,,,,,,,,,,,,,,,,,,,,r,1.736999989,HOR,FALSE,,,,,,,135,formiga,Catalan,Sounds/cat_formiga.mp3,2020-06-09_16h04.11.481,TranslationElicitation_spa,3.2.4,Win32,60,5ede149fcff15e03097dded2,,1,0,80,30,1,79
,,,,,,,,,,,,,,,,,,,,,,,,,,,,,,,,,,,m,2.322999954,HORM,FALSE,,,,,,,135,formiga,Catalan,Sounds/cat_formiga.mp3,2020-06-09_16h04.11.481,TranslationElicitation_spa,3.2.4,Win32,60,5ede149fcff15e03097dded2,,1,0,80,30,1,79
,,,,,,,,,,,,,,,,,,,,,,,,,,,,,,,,,,,i,2.47300005,HORMI,FALSE,,,,,,,135,formiga,Catalan,Sounds/cat_formiga.mp3,2020-06-09_16h04.11.481,TranslationElicitation_spa,3.2.4,Win32,60,5ede149fcff15e03097dded2,,1,0,80,30,1,79
,,,,,,,,,,,,,,,,,,,,,,,,,,,,,,,,,,,g,2.55700016,HORMIG,FALSE,,,,,,,135,formiga,Catalan,Sounds/cat_formiga.mp3,2020-06-09_16h04.11.481,TranslationElicitation_spa,3.2.4,Win32,60,5ede149fcff15e03097dded2,,1,0,80,30,1,79
,,,,,,,,,,,,,,,,,,,,,,,,,,,,,,,,,,,a,2.875,HORMIGA,FALSE,,,,,,,135,formiga,Catalan,Sounds/cat_formiga.mp3,2020-06-09_16h04.11.481,TranslationElicitation_spa,3.2.4,Win32,60,5ede149fcff15e03097dded2,,1,0,80,30,1,79
,,,,,,,,,,,,,,,,,,,,,,,,,,,,,,,,,,,space,3.092000008,HORMIGA ,FALSE,,,,,,,135,formiga,Catalan,Sounds/cat_formiga.mp3,2020-06-09_16h04.11.481,TranslationElicitation_spa,3.2.4,Win32,60,5ede149fcff15e03097dded2,,1,0,80,30,1,79
,,,,,,,,,,,,,,,,,,,,,,,,,,,,,,,,,,,backspace,3.376000166,HORMIG,TRUE,,,,,,,135,formiga,Catalan,Sounds/cat_formiga.mp3,2020-06-09_16h04.11.481,TranslationElicitation_spa,3.2.4,Win32,60,5ede149fcff15e03097dded2,,1,0,80,30,1,79
,,,,,,,,,,,,,,,,,,,,,,,,,,,,,,,,,,,a,3.978000164,HORMIGA,TRUE,,,,,,,135,formiga,Catalan,Sounds/cat_formiga.mp3,2020-06-09_16h04.11.481,TranslationElicitation_spa,3.2.4,Win32,60,5ede149fcff15e03097dded2,,1,0,80,30,1,79
,,,,,,,,,,,,,,,,,,,,,,,,,,,,,,,,,,,return,4.345000029,,TRUE,,,,,,,135,formiga,Catalan,Sounds/cat_formiga.mp3,2020-06-09_16h04.11.481,TranslationElicitation_spa,3.2.4,Win32,60,5ede149fcff15e03097dded2,4.345000029,1,0,80,30,1,79
,,,,,,,,,,,,,,,,,,,,,,,,,,,,,,,,,,,,,,,,,,,,,135,formiga,Catalan,Sounds/cat_formiga.mp3,2020-06-09_16h04.11.481,TranslationElicitation_spa,3.2.4,Win32,60,5ede149fcff15e03097dded2,,1,0,80,30,1,79
,,,,,,,,,,,,,,,,,,,,,,,,,,,,,,,,,,,g,1.315999985,G,FALSE,,,,,,,139,galleda,Catalan,Sounds/cat_galleda.mp3,2020-06-09_16h04.11.481,TranslationElicitation_spa,3.2.4,Win32,60,5ede149fcff15e03097dded2,,1,0,80,34,1,79
,,,,,,,,,,,,,,,,,,,,,,,,,,,,,,,,,,,a,1.534000158,GA,FALSE,,,,,,,139,galleda,Catalan,Sounds/cat_galleda.mp3,2020-06-09_16h04.11.481,TranslationElicitation_spa,3.2.4,Win32,60,5ede149fcff15e03097dded2,,1,0,80,34,1,79
,,,,,,,,,,,,,,,,,,,,,,,,,,,,,,,,,,,l,1.649000168,GAL,FALSE,,,,,,,139,galleda,Catalan,Sounds/cat_galleda.mp3,2020-06-09_16h04.11.481,TranslationElicitation_spa,3.2.4,Win32,60,5ede149fcff15e03097dded2,,1,0,80,34,1,79
,,,,,,,,,,,,,,,,,,,,,,,,,,,,,,,,,,,l,1.801000118,GALL,FALSE,,,,,,,139,galleda,Catalan,Sounds/cat_galleda.mp3,2020-06-09_16h04.11.481,TranslationElicitation_spa,3.2.4,Win32,60,5ede149fcff15e03097dded2,,1,0,80,34,1,79
,,,,,,,,,,,,,,,,,,,,,,,,,,,,,,,,,,,e,1.934000015,GALLE,FALSE,,,,,,,139,galleda,Catalan,Sounds/cat_galleda.mp3,2020-06-09_16h04.11.481,TranslationElicitation_spa,3.2.4,Win32,60,5ede149fcff15e03097dded2,,1,0,80,34,1,79
,,,,,,,,,,,,,,,,,,,,,,,,,,,,,,,,,,,t,2.470000029,GALLET,FALSE,,,,,,,139,galleda,Catalan,Sounds/cat_galleda.mp3,2020-06-09_16h04.11.481,TranslationElicitation_spa,3.2.4,Win32,60,5ede149fcff15e03097dded2,,1,0,80,34,1,79
,,,,,,,,,,,,,,,,,,,,,,,,,,,,,,,,,,,a,2.686000109,GALLETA,FALSE,,,,,,,139,galleda,Catalan,Sounds/cat_galleda.mp3,2020-06-09_16h04.11.481,TranslationElicitation_spa,3.2.4,Win32,60,5ede149fcff15e03097dded2,,1,0,80,34,1,79
,,,,,,,,,,,,,,,,,,,,,,,,,,,,,,,,,,,return,2.970000029,,FALSE,,,,,,,139,galleda,Catalan,Sounds/cat_galleda.mp3,2020-06-09_16h04.11.481,TranslationElicitation_spa,3.2.4,Win32,60,5ede149fcff15e03097dded2,2.970000029,1,0,80,34,1,79
,,,,,,,,,,,,,,,,,,,,,,,,,,,,,,,,,,,,,,,,,,,,,139,galleda,Catalan,Sounds/cat_galleda.mp3,2020-06-09_16h04.11.481,TranslationElicitation_spa,3.2.4,Win32,60,5ede149fcff15e03097dded2,,1,0,80,34,1,79
,,,,,,,,,,,,,,,,,,,,,,,,,,,,,,,,,,,t,0.968000174,T,FALSE,,,,,,,181,tobogan,Catalan,Sounds/cat_tobogan.mp3,2020-06-09_16h04.11.481,TranslationElicitation_spa,3.2.4,Win32,60,5ede149fcff15e03097dded2,,1,0,80,72,1,79
,,,,,,,,,,,,,,,,,,,,,,,,,,,,,,,,,,,o,1.353000164,TO,FALSE,,,,,,,181,tobogan,Catalan,Sounds/cat_tobogan.mp3,2020-06-09_16h04.11.481,TranslationElicitation_spa,3.2.4,Win32,60,5ede149fcff15e03097dded2,,1,0,80,72,1,79
,,,,,,,,,,,,,,,,,,,,,,,,,,,,,,,,,,,b,1.570000172,TOB,FALSE,,,,,,,181,tobogan,Catalan,Sounds/cat_tobogan.mp3,2020-06-09_16h04.11.481,TranslationElicitation_spa,3.2.4,Win32,60,5ede149fcff15e03097dded2,,1,0,80,72,1,79
,,,,,,,,,,,,,,,,,,,,,,,,,,,,,,,,,,,o,1.703000069,TOBO,FALSE,,,,,,,181,tobogan,Catalan,Sounds/cat_tobogan.mp3,2020-06-09_16h04.11.481,TranslationElicitation_spa,3.2.4,Win32,60,5ede149fcff15e03097dded2,,1,0,80,72,1,79
,,,,,,,,,,,,,,,,,,,,,,,,,,,,,,,,,,,g,1.802999973,TOBOG,FALSE,,,,,,,181,tobogan,Catalan,Sounds/cat_tobogan.mp3,2020-06-09_16h04.11.481,TranslationElicitation_spa,3.2.4,Win32,60,5ede149fcff15e03097dded2,,1,0,80,72,1,79
,,,,,,,,,,,,,,,,,,,,,,,,,,,,,,,,,,,a,2.023000002,TOBOGA,FALSE,,,,,,,181,tobogan,Catalan,Sounds/cat_tobogan.mp3,2020-06-09_16h04.11.481,TranslationElicitation_spa,3.2.4,Win32,60,5ede149fcff15e03097dded2,,1,0,80,72,1,79
,,,,,,,,,,,,,,,,,,,,,,,,,,,,,,,,,,,n,2.171000004,TOBOGAN,FALSE,,,,,,,181,tobogan,Catalan,Sounds/cat_tobogan.mp3,2020-06-09_16h04.11.481,TranslationElicitation_spa,3.2.4,Win32,60,5ede149fcff15e03097dded2,,1,0,80,72,1,79
,,,,,,,,,,,,,,,,,,,,,,,,,,,,,,,,,,,return,3.291000128,,FALSE,,,,,,,181,tobogan,Catalan,Sounds/cat_tobogan.mp3,2020-06-09_16h04.11.481,TranslationElicitation_spa,3.2.4,Win32,60,5ede149fcff15e03097dded2,3.291000128,1,0,80,72,1,79
,,,,,,,,,,,,,,,,,,,,,,,,,,,,,,,,,,,,,,,,,,,,,181,tobogan,Catalan,Sounds/cat_tobogan.mp3,2020-06-09_16h04.11.481,TranslationElicitation_spa,3.2.4,Win32,60,5ede149fcff15e03097dded2,,1,0,80,72,1,79
,,,,,,,,,,,,,,,,,,,,,,,,,,,,,,,,,,,m,1.101000071,M,FALSE,,,,,,,155,moneda,Catalan,Sounds/cat_moneda.mp3,2020-06-09_16h04.11.481,TranslationElicitation_spa,3.2.4,Win32,60,5ede149fcff15e03097dded2,,1,0,80,49,1,79
,,,,,,,,,,,,,,,,,,,,,,,,,,,,,,,,,,,o,1.16899991,MO,FALSE,,,,,,,155,moneda,Catalan,Sounds/cat_moneda.mp3,2020-06-09_16h04.11.481,TranslationElicitation_spa,3.2.4,Win32,60,5ede149fcff15e03097dded2,,1,0,80,49,1,79
,,,,,,,,,,,,,,,,,,,,,,,,,,,,,,,,,,,n,1.335999966,MON,FALSE,,,,,,,155,moneda,Catalan,Sounds/cat_moneda.mp3,2020-06-09_16h04.11.481,TranslationElicitation_spa,3.2.4,Win32,60,5ede149fcff15e03097dded2,,1,0,80,49,1,79
,,,,,,,,,,,,,,,,,,,,,,,,,,,,,,,,,,,e,1.503000021,MONE,FALSE,,,,,,,155,moneda,Catalan,Sounds/cat_moneda.mp3,2020-06-09_16h04.11.481,TranslationElicitation_spa,3.2.4,Win32,60,5ede149fcff15e03097dded2,,1,0,80,49,1,79
,,,,,,,,,,,,,,,,,,,,,,,,,,,,,,,,,,,d,1.703000069,MONED,FALSE,,,,,,,155,moneda,Catalan,Sounds/cat_moneda.mp3,2020-06-09_16h04.11.481,TranslationElicitation_spa,3.2.4,Win32,60,5ede149fcff15e03097dded2,,1,0,80,49,1,79
,,,,,,,,,,,,,,,,,,,,,,,,,,,,,,,,,,,a,1.871000051,MONEDA,FALSE,,,,,,,155,moneda,Catalan,Sounds/cat_moneda.mp3,2020-06-09_16h04.11.481,TranslationElicitation_spa,3.2.4,Win32,60,5ede149fcff15e03097dded2,,1,0,80,49,1,79
,,,,,,,,,,,,,,,,,,,,,,,,,,,,,,,,,,,return,2.055000067,,FALSE,,,,,,,155,moneda,Catalan,Sounds/cat_moneda.mp3,2020-06-09_16h04.11.481,TranslationElicitation_spa,3.2.4,Win32,60,5ede149fcff15e03097dded2,2.053999901,1,0,80,49,1,79
,,,,,,,,,,,,,,,,,,,,,,,,,,,,,,,,,,,,,,,,,,,,,155,moneda,Catalan,Sounds/cat_moneda.mp3,2020-06-09_16h04.11.481,TranslationElicitation_spa,3.2.4,Win32,60,5ede149fcff15e03097dded2,,1,0,80,49,1,79
,,,,,,,,,,,,,,,,,,,,,,,,,,,,,,,,,,,p,0.967999935,P,FALSE,,,,,,,164,patata,Catalan,Sounds/cat_patata.mp3,2020-06-09_16h04.11.481,TranslationElicitation_spa,3.2.4,Win32,60,5ede149fcff15e03097dded2,,1,0,80,57,1,79
,,,,,,,,,,,,,,,,,,,,,,,,,,,,,,,,,,,a,1.051999807,PA,FALSE,,,,,,,164,patata,Catalan,Sounds/cat_patata.mp3,2020-06-09_16h04.11.481,TranslationElicitation_spa,3.2.4,Win32,60,5ede149fcff15e03097dded2,,1,0,80,57,1,79
,,,,,,,,,,,,,,,,,,,,,,,,,,,,,,,,,,,t,1.269999981,PAT,FALSE,,,,,,,164,patata,Catalan,Sounds/cat_patata.mp3,2020-06-09_16h04.11.481,TranslationElicitation_spa,3.2.4,Win32,60,5ede149fcff15e03097dded2,,1,0,80,57,1,79
,,,,,,,,,,,,,,,,,,,,,,,,,,,,,,,,,,,a,1.45299983,PATA,FALSE,,,,,,,164,patata,Catalan,Sounds/cat_patata.mp3,2020-06-09_16h04.11.481,TranslationElicitation_spa,3.2.4,Win32,60,5ede149fcff15e03097dded2,,1,0,80,57,1,79
,,,,,,,,,,,,,,,,,,,,,,,,,,,,,,,,,,,t,1.653999805,PATAT,FALSE,,,,,,,164,patata,Catalan,Sounds/cat_patata.mp3,2020-06-09_16h04.11.481,TranslationElicitation_spa,3.2.4,Win32,60,5ede149fcff15e03097dded2,,1,0,80,57,1,79
,,,,,,,,,,,,,,,,,,,,,,,,,,,,,,,,,,,a,1.837999821,PATATA,FALSE,,,,,,,164,patata,Catalan,Sounds/cat_patata.mp3,2020-06-09_16h04.11.481,TranslationElicitation_spa,3.2.4,Win32,60,5ede149fcff15e03097dded2,,1,0,80,57,1,79
,,,,,,,,,,,,,,,,,,,,,,,,,,,,,,,,,,,return,2.053999901,,FALSE,,,,,,,164,patata,Catalan,Sounds/cat_patata.mp3,2020-06-09_16h04.11.481,TranslationElicitation_spa,3.2.4,Win32,60,5ede149fcff15e03097dded2,2.053999901,1,0,80,57,1,79
,,,,,,,,,,,,,,,,,,,,,,,,,,,,,,,,,,,,,,,,,,,,,164,patata,Catalan,Sounds/cat_patata.mp3,2020-06-09_16h04.11.481,TranslationElicitation_spa,3.2.4,Win32,60,5ede149fcff15e03097dded2,,1,0,80,57,1,79
,,,,,,,,,,,,,,,,,,,,,,,,,,,,,,,,,,,c,1.353000164,C,FALSE,,,,,,,188,xocolata,Catalan,Sounds/cat_xocolata.mp3,2020-06-09_16h04.11.481,TranslationElicitation_spa,3.2.4,Win32,60,5ede149fcff15e03097dded2,,1,0,80,78,1,79
,,,,,,,,,,,,,,,,,,,,,,,,,,,,,,,,,,,h,1.486999989,CH,FALSE,,,,,,,188,xocolata,Catalan,Sounds/cat_xocolata.mp3,2020-06-09_16h04.11.481,TranslationElicitation_spa,3.2.4,Win32,60,5ede149fcff15e03097dded2,,1,0,80,78,1,79
,,,,,,,,,,,,,,,,,,,,,,,,,,,,,,,,,,,o,1.636000156,CHO,FALSE,,,,,,,188,xocolata,Catalan,Sounds/cat_xocolata.mp3,2020-06-09_16h04.11.481,TranslationElicitation_spa,3.2.4,Win32,60,5ede149fcff15e03097dded2,,1,0,80,78,1,79
,,,,,,,,,,,,,,,,,,,,,,,,,,,,,,,,,,,l,1.821000099,CHOL,FALSE,,,,,,,188,xocolata,Catalan,Sounds/cat_xocolata.mp3,2020-06-09_16h04.11.481,TranslationElicitation_spa,3.2.4,Win32,60,5ede149fcff15e03097dded2,,1,0,80,78,1,79
,,,,,,,,,,,,,,,,,,,,,,,,,,,,,,,,,,,o,1.989000082,CHOLO,FALSE,,,,,,,188,xocolata,Catalan,Sounds/cat_xocolata.mp3,2020-06-09_16h04.11.481,TranslationElicitation_spa,3.2.4,Win32,60,5ede149fcff15e03097dded2,,1,0,80,78,1,79
,,,,,,,,,,,,,,,,,,,,,,,,,,,,,,,,,,,c,2.105000019,CHOLOC,FALSE,,,,,,,188,xocolata,Catalan,Sounds/cat_xocolata.mp3,2020-06-09_16h04.11.481,TranslationElicitation_spa,3.2.4,Win32,60,5ede149fcff15e03097dded2,,1,0,80,78,1,79
,,,,,,,,,,,,,,,,,,,,,,,,,,,,,,,,,,,a,2.406000137,CHOLOCA,FALSE,,,,,,,188,xocolata,Catalan,Sounds/cat_xocolata.mp3,2020-06-09_16h04.11.481,TranslationElicitation_spa,3.2.4,Win32,60,5ede149fcff15e03097dded2,,1,0,80,78,1,79
,,,,,,,,,,,,,,,,,,,,,,,,,,,,,,,,,,,backspace,2.657000065,CHOLO,TRUE,,,,,,,188,xocolata,Catalan,Sounds/cat_xocolata.mp3,2020-06-09_16h04.11.481,TranslationElicitation_spa,3.2.4,Win32,60,5ede149fcff15e03097dded2,,1,0,80,78,1,79
,,,,,,,,,,,,,,,,,,,,,,,,,,,,,,,,,,,backspace,2.808000088,CHO,TRUE,,,,,,,188,xocolata,Catalan,Sounds/cat_xocolata.mp3,2020-06-09_16h04.11.481,TranslationElicitation_spa,3.2.4,Win32,60,5ede149fcff15e03097dded2,,1,0,80,78,1,79
,,,,,,,,,,,,,,,,,,,,,,,,,,,,,,,,,,,backspace,2.940999985,C,TRUE,,,,,,,188,xocolata,Catalan,Sounds/cat_xocolata.mp3,2020-06-09_16h04.11.481,TranslationElicitation_spa,3.2.4,Win32,60,5ede149fcff15e03097dded2,,1,0,80,78,1,79
,,,,,,,,,,,,,,,,,,,,,,,,,,,,,,,,,,,c,3.157999992,CC,TRUE,,,,,,,188,xocolata,Catalan,Sounds/cat_xocolata.mp3,2020-06-09_16h04.11.481,TranslationElicitation_spa,3.2.4,Win32,60,5ede149fcff15e03097dded2,,1,0,80,78,1,79
,,,,,,,,,,,,,,,,,,,,,,,,,,,,,,,,,,,backspace,3.626000166,,TRUE,,,,,,,188,xocolata,Catalan,Sounds/cat_xocolata.mp3,2020-06-09_16h04.11.481,TranslationElicitation_spa,3.2.4,Win32,60,5ede149fcff15e03097dded2,,1,0,80,78,1,79
,,,,,,,,,,,,,,,,,,,,,,,,,,,,,,,,,,,h,3.792999983,H,TRUE,,,,,,,188,xocolata,Catalan,Sounds/cat_xocolata.mp3,2020-06-09_16h04.11.481,TranslationElicitation_spa,3.2.4,Win32,60,5ede149fcff15e03097dded2,,1,0,80,78,1,79
,,,,,,,,,,,,,,,,,,,,,,,,,,,,,,,,,,,o,3.960000038,HO,TRUE,,,,,,,188,xocolata,Catalan,Sounds/cat_xocolata.mp3,2020-06-09_16h04.11.481,TranslationElicitation_spa,3.2.4,Win32,60,5ede149fcff15e03097dded2,,1,0,80,78,1,79
,,,,,,,,,,,,,,,,,,,,,,,,,,,,,,,,,,,c,4.044000149,HOC,TRUE,,,,,,,188,xocolata,Catalan,Sounds/cat_xocolata.mp3,2020-06-09_16h04.11.481,TranslationElicitation_spa,3.2.4,Win32,60,5ede149fcff15e03097dded2,,1,0,80,78,1,79
,,,,,,,,,,,,,,,,,,,,,,,,,,,,,,,,,,,o,4.210999966,HOCO,TRUE,,,,,,,188,xocolata,Catalan,Sounds/cat_xocolata.mp3,2020-06-09_16h04.11.481,TranslationElicitation_spa,3.2.4,Win32,60,5ede149fcff15e03097dded2,,1,0,80,78,1,79
,,,,,,,,,,,,,,,,,,,,,,,,,,,,,,,,,,,backspace,4.512000084,HO,TRUE,,,,,,,188,xocolata,Catalan,Sounds/cat_xocolata.mp3,2020-06-09_16h04.11.481,TranslationElicitation_spa,3.2.4,Win32,60,5ede149fcff15e03097dded2,,1,0,80,78,1,79
,,,,,,,,,,,,,,,,,,,,,,,,,,,,,,,,,,,backspace,4.677999973,,TRUE,,,,,,,188,xocolata,Catalan,Sounds/cat_xocolata.mp3,2020-06-09_16h04.11.481,TranslationElicitation_spa,3.2.4,Win32,60,5ede149fcff15e03097dded2,,1,0,80,78,1,79
,,,,,,,,,,,,,,,,,,,,,,,,,,,,,,,,,,,backspace,4.929000139,,TRUE,,,,,,,188,xocolata,Catalan,Sounds/cat_xocolata.mp3,2020-06-09_16h04.11.481,TranslationElicitation_spa,3.2.4,Win32,60,5ede149fcff15e03097dded2,,1,0,80,78,1,79
,,,,,,,,,,,,,,,,,,,,,,,,,,,,,,,,,,,c,5.246999979,C,TRUE,,,,,,,188,xocolata,Catalan,Sounds/cat_xocolata.mp3,2020-06-09_16h04.11.481,TranslationElicitation_spa,3.2.4,Win32,60,5ede149fcff15e03097dded2,,1,0,80,78,1,79
,,,,,,,,,,,,,,,,,,,,,,,,,,,,,,,,,,,h,5.430999994,CH,TRUE,,,,,,,188,xocolata,Catalan,Sounds/cat_xocolata.mp3,2020-06-09_16h04.11.481,TranslationElicitation_spa,3.2.4,Win32,60,5ede149fcff15e03097dded2,,1,0,80,78,1,79
,,,,,,,,,,,,,,,,,,,,,,,,,,,,,,,,,,,o,5.664999962,CHO,TRUE,,,,,,,188,xocolata,Catalan,Sounds/cat_xocolata.mp3,2020-06-09_16h04.11.481,TranslationElicitation_spa,3.2.4,Win32,60,5ede149fcff15e03097dded2,,1,0,80,78,1,79
,,,,,,,,,,,,,,,,,,,,,,,,,,,,,,,,,,,c,5.815000057,CHOC,TRUE,,,,,,,188,xocolata,Catalan,Sounds/cat_xocolata.mp3,2020-06-09_16h04.11.481,TranslationElicitation_spa,3.2.4,Win32,60,5ede149fcff15e03097dded2,,1,0,80,78,1,79
,,,,,,,,,,,,,,,,,,,,,,,,,,,,,,,,,,,o,6.015000105,CHOCO,TRUE,,,,,,,188,xocolata,Catalan,Sounds/cat_xocolata.mp3,2020-06-09_16h04.11.481,TranslationElicitation_spa,3.2.4,Win32,60,5ede149fcff15e03097dded2,,1,0,80,78,1,79
,,,,,,,,,,,,,,,,,,,,,,,,,,,,,,,,,,,l,6.348999977,CHOCOL,TRUE,,,,,,,188,xocolata,Catalan,Sounds/cat_xocolata.mp3,2020-06-09_16h04.11.481,TranslationElicitation_spa,3.2.4,Win32,60,5ede149fcff15e03097dded2,,1,0,80,78,1,79
,,,,,,,,,,,,,,,,,,,,,,,,,,,,,,,,,,,a,6.5,CHOCOLA,TRUE,,,,,,,188,xocolata,Catalan,Sounds/cat_xocolata.mp3,2020-06-09_16h04.11.481,TranslationElicitation_spa,3.2.4,Win32,60,5ede149fcff15e03097dded2,,1,0,80,78,1,79
,,,,,,,,,,,,,,,,,,,,,,,,,,,,,,,,,,,t,6.733999968,CHOCOLAT,TRUE,,,,,,,188,xocolata,Catalan,Sounds/cat_xocolata.mp3,2020-06-09_16h04.11.481,TranslationElicitation_spa,3.2.4,Win32,60,5ede149fcff15e03097dded2,,1,0,80,78,1,79
,,,,,,,,,,,,,,,,,,,,,,,,,,,,,,,,,,,e,6.818000078,CHOCOLATE,TRUE,,,,,,,188,xocolata,Catalan,Sounds/cat_xocolata.mp3,2020-06-09_16h04.11.481,TranslationElicitation_spa,3.2.4,Win32,60,5ede149fcff15e03097dded2,,1,0,80,78,1,79
,,,,,,,,,,,,,,,,,,,,,,,,,,,,,,,,,,,return,7.068000078,,TRUE,,,,,,,188,xocolata,Catalan,Sounds/cat_xocolata.mp3,2020-06-09_16h04.11.481,TranslationElicitation_spa,3.2.4,Win32,60,5ede149fcff15e03097dded2,7.068000078,1,0,80,78,1,79
,,,,,,,,,,,,,,,,,,,,,,,,,,,,,,,,,,,,,,,,,,,,,188,xocolata,Catalan,Sounds/cat_xocolata.mp3,2020-06-09_16h04.11.481,TranslationElicitation_spa,3.2.4,Win32,60,5ede149fcff15e03097dded2,,1,0,80,78,1,79
,,,,,,,,,,,,,,,,,,,,,,,,,,,,,,,,,,,g,1.76699996,G,FALSE,,,,,,,172,poma,Catalan,Sounds/cat_poma.mp3,2020-06-09_16h04.11.481,TranslationElicitation_spa,3.2.4,Win32,60,5ede149fcff15e03097dded2,,1,0,80,64,1,79
,,,,,,,,,,,,,,,,,,,,,,,,,,,,,,,,,,,o,1.917999983,GO,FALSE,,,,,,,172,poma,Catalan,Sounds/cat_poma.mp3,2020-06-09_16h04.11.481,TranslationElicitation_spa,3.2.4,Win32,60,5ede149fcff15e03097dded2,,1,0,80,64,1,79
,,,,,,,,,,,,,,,,,,,,,,,,,,,,,,,,,,,m,2.101999998,GOM,FALSE,,,,,,,172,poma,Catalan,Sounds/cat_poma.mp3,2020-06-09_16h04.11.481,TranslationElicitation_spa,3.2.4,Win32,60,5ede149fcff15e03097dded2,,1,0,80,64,1,79
,,,,,,,,,,,,,,,,,,,,,,,,,,,,,,,,,,,a,2.201999903,GOMA,FALSE,,,,,,,172,poma,Catalan,Sounds/cat_poma.mp3,2020-06-09_16h04.11.481,TranslationElicitation_spa,3.2.4,Win32,60,5ede149fcff15e03097dded2,,1,0,80,64,1,79
,,,,,,,,,,,,,,,,,,,,,,,,,,,,,,,,,,,return,2.41899991,,FALSE,,,,,,,172,poma,Catalan,Sounds/cat_poma.mp3,2020-06-09_16h04.11.481,TranslationElicitation_spa,3.2.4,Win32,60,5ede149fcff15e03097dded2,2.417999983,1,0,80,64,1,79
,,,,,,,,,,,,,,,,,,,,,,,,,,,,,,,,,,,,,,,,,,,,,172,poma,Catalan,Sounds/cat_poma.mp3,2020-06-09_16h04.11.481,TranslationElicitation_spa,3.2.4,Win32,60,5ede149fcff15e03097dded2,,1,0,80,64,1,79
,,,,,,,,,,,,,,,,,,,,,,,,,,,,,,,,,,,p,1.486000061,P,FALSE,,,,,,,174,porta,Catalan,Sounds/cat_porta.mp3,2020-06-09_16h04.11.481,TranslationElicitation_spa,3.2.4,Win32,60,5ede149fcff15e03097dded2,,1,0,80,66,1,79
,,,,,,,,,,,,,,,,,,,,,,,,,,,,,,,,,,,u,1.772000074,PU,FALSE,,,,,,,174,porta,Catalan,Sounds/cat_porta.mp3,2020-06-09_16h04.11.481,TranslationElicitation_spa,3.2.4,Win32,60,5ede149fcff15e03097dded2,,1,0,80,66,1,79
,,,,,,,,,,,,,,,,,,,,,,,,,,,,,,,,,,,e,1.855000019,PUE,FALSE,,,,,,,174,porta,Catalan,Sounds/cat_porta.mp3,2020-06-09_16h04.11.481,TranslationElicitation_spa,3.2.4,Win32,60,5ede149fcff15e03097dded2,,1,0,80,66,1,79
,,,,,,,,,,,,,,,,,,,,,,,,,,,,,,,,,,,r,1.93900013,PUER,FALSE,,,,,,,174,porta,Catalan,Sounds/cat_porta.mp3,2020-06-09_16h04.11.481,TranslationElicitation_spa,3.2.4,Win32,60,5ede149fcff15e03097dded2,,1,0,80,66,1,79
,,,,,,,,,,,,,,,,,,,,,,,,,,,,,,,,,,,t,2.088999987,PUERT,FALSE,,,,,,,174,porta,Catalan,Sounds/cat_porta.mp3,2020-06-09_16h04.11.481,TranslationElicitation_spa,3.2.4,Win32,60,5ede149fcff15e03097dded2,,1,0,80,66,1,79
,,,,,,,,,,,,,,,,,,,,,,,,,,,,,,,,,,,a,2.305999994,PUERTA,FALSE,,,,,,,174,porta,Catalan,Sounds/cat_porta.mp3,2020-06-09_16h04.11.481,TranslationElicitation_spa,3.2.4,Win32,60,5ede149fcff15e03097dded2,,1,0,80,66,1,79
,,,,,,,,,,,,,,,,,,,,,,,,,,,,,,,,,,,return,2.473999977,,FALSE,,,,,,,174,porta,Catalan,Sounds/cat_porta.mp3,2020-06-09_16h04.11.481,TranslationElicitation_spa,3.2.4,Win32,60,5ede149fcff15e03097dded2,2.473999977,1,0,80,66,1,79
,,,,,,,,,,,,,,,,,,,,,,,,,,,,,,,,,,,,,,,,,,,,,174,porta,Catalan,Sounds/cat_porta.mp3,2020-06-09_16h04.11.481,TranslationElicitation_spa,3.2.4,Win32,60,5ede149fcff15e03097dded2,,1,0,80,66,1,79
,,,,,,,,,,,,,,,,,,,,,,,,,,,,,,,,,,,s,1.753000021,S,FALSE,,,,,,,177,sol,Catalan,Sounds/cat_sol.mp3,2020-06-09_16h04.11.481,TranslationElicitation_spa,3.2.4,Win32,60,5ede149fcff15e03097dded2,,1,0,80,69,1,79
,,,,,,,,,,,,,,,,,,,,,,,,,,,,,,,,,,,o,1.802999973,SO,FALSE,,,,,,,177,sol,Catalan,Sounds/cat_sol.mp3,2020-06-09_16h04.11.481,TranslationElicitation_spa,3.2.4,Win32,60,5ede149fcff15e03097dded2,,1,0,80,69,1,79
,,,,,,,,,,,,,,,,,,,,,,,,,,,,,,,,,,,l,2.072000027,SOL,FALSE,,,,,,,177,sol,Catalan,Sounds/cat_sol.mp3,2020-06-09_16h04.11.481,TranslationElicitation_spa,3.2.4,Win32,60,5ede149fcff15e03097dded2,,1,0,80,69,1,79
,,,,,,,,,,,,,,,,,,,,,,,,,,,,,,,,,,,return,2.305000067,,FALSE,,,,,,,177,sol,Catalan,Sounds/cat_sol.mp3,2020-06-09_16h04.11.481,TranslationElicitation_spa,3.2.4,Win32,60,5ede149fcff15e03097dded2,2.305000067,1,0,80,69,1,79
,,,,,,,,,,,,,,,,,,,,,,,,,,,,,,,,,,,,,,,,,,,,,177,sol,Catalan,Sounds/cat_sol.mp3,2020-06-09_16h04.11.481,TranslationElicitation_spa,3.2.4,Win32,60,5ede149fcff15e03097dded2,,1,0,80,69,1,79
,,,,,,,,,,,,,,,,,,,,,,,,,,,,,,,,,,,a,1.302999973,A,FALSE,,,,,,,108,ampolla,Catalan,Sounds/cat_ampolla.mp3,2020-06-09_16h04.11.481,TranslationElicitation_spa,3.2.4,Win32,60,5ede149fcff15e03097dded2,,1,0,80,4,1,79
,,,,,,,,,,,,,,,,,,,,,,,,,,,,,,,,,,,m,1.403000116,AM,FALSE,,,,,,,108,ampolla,Catalan,Sounds/cat_ampolla.mp3,2020-06-09_16h04.11.481,TranslationElicitation_spa,3.2.4,Win32,60,5ede149fcff15e03097dded2,,1,0,80,4,1,79
,,,,,,,,,,,,,,,,,,,,,,,,,,,,,,,,,,,p,1.553999901,AMP,FALSE,,,,,,,108,ampolla,Catalan,Sounds/cat_ampolla.mp3,2020-06-09_16h04.11.481,TranslationElicitation_spa,3.2.4,Win32,60,5ede149fcff15e03097dded2,,1,0,80,4,1,79
,,,,,,,,,,,,,,,,,,,,,,,,,,,,,,,,,,,o,1.654000044,AMPO,FALSE,,,,,,,108,ampolla,Catalan,Sounds/cat_ampolla.mp3,2020-06-09_16h04.11.481,TranslationElicitation_spa,3.2.4,Win32,60,5ede149fcff15e03097dded2,,1,0,80,4,1,79
,,,,,,,,,,,,,,,,,,,,,,,,,,,,,,,,,,,l,1.871999979,AMPOL,FALSE,,,,,,,108,ampolla,Catalan,Sounds/cat_ampolla.mp3,2020-06-09_16h04.11.481,TranslationElicitation_spa,3.2.4,Win32,60,5ede149fcff15e03097dded2,,1,0,80,4,1,79
,,,,,,,,,,,,,,,,,,,,,,,,,,,,,,,,,,,l,2.005000114,AMPOLL,FALSE,,,,,,,108,ampolla,Catalan,Sounds/cat_ampolla.mp3,2020-06-09_16h04.11.481,TranslationElicitation_spa,3.2.4,Win32,60,5ede149fcff15e03097dded2,,1,0,80,4,1,79
,,,,,,,,,,,,,,,,,,,,,,,,,,,,,,,,,,,a,2.105999947,AMPOLLA,FALSE,,,,,,,108,ampolla,Catalan,Sounds/cat_ampolla.mp3,2020-06-09_16h04.11.481,TranslationElicitation_spa,3.2.4,Win32,60,5ede149fcff15e03097dded2,,1,0,80,4,1,79
,,,,,,,,,,,,,,,,,,,,,,,,,,,,,,,,,,,return,2.322999954,,FALSE,,,,,,,108,ampolla,Catalan,Sounds/cat_ampolla.mp3,2020-06-09_16h04.11.481,TranslationElicitation_spa,3.2.4,Win32,60,5ede149fcff15e03097dded2,2.322999954,1,0,80,4,1,79
,,,,,,,,,,,,,,,,,,,,,,,,,,,,,,,,,,,,,,,,,,,,,108,ampolla,Catalan,Sounds/cat_ampolla.mp3,2020-06-09_16h04.11.481,TranslationElicitation_spa,3.2.4,Win32,60,5ede149fcff15e03097dded2,,1,0,80,4,1,79
,,,,,,,,,,,,,,,,,,,,,,,,,,,,,,,,,,,p,1.654000044,P,FALSE,,,,,,,166,peu,Catalan,Sounds/cat_peu.mp3,2020-06-09_16h04.11.481,TranslationElicitation_spa,3.2.4,Win32,60,5ede149fcff15e03097dded2,,1,0,80,59,1,79
,,,,,,,,,,,,,,,,,,,,,,,,,,,,,,,,,,,e,1.753999949,PE,FALSE,,,,,,,166,peu,Catalan,Sounds/cat_peu.mp3,2020-06-09_16h04.11.481,TranslationElicitation_spa,3.2.4,Win32,60,5ede149fcff15e03097dded2,,1,0,80,59,1,79
,,,,,,,,,,,,,,,,,,,,,,,,,,,,,,,,,,,l,1.838000059,PEL,FALSE,,,,,,,166,peu,Catalan,Sounds/cat_peu.mp3,2020-06-09_16h04.11.481,TranslationElicitation_spa,3.2.4,Win32,60,5ede149fcff15e03097dded2,,1,0,80,59,1,79
,,,,,,,,,,,,,,,,,,,,,,,,,,,,,,,,,,,o,1.989000082,PELO,FALSE,,,,,,,166,peu,Catalan,Sounds/cat_peu.mp3,2020-06-09_16h04.11.481,TranslationElicitation_spa,3.2.4,Win32,60,5ede149fcff15e03097dded2,,1,0,80,59,1,79
,,,,,,,,,,,,,,,,,,,,,,,,,,,,,,,,,,,return,2.18900013,,FALSE,,,,,,,166,peu,Catalan,Sounds/cat_peu.mp3,2020-06-09_16h04.11.481,TranslationElicitation_spa,3.2.4,Win32,60,5ede149fcff15e03097dded2,2.18900013,1,0,80,59,1,79
,,,,,,,,,,,,,,,,,,,,,,,,,,,,,,,,,,,,,,,,,,,,,166,peu,Catalan,Sounds/cat_peu.mp3,2020-06-09_16h04.11.481,TranslationElicitation_spa,3.2.4,Win32,60,5ede149fcff15e03097dded2,,1,0,80,59,1,79
,,,,,,,,,,,,,,,,,,,,,,,,,,,,,,,,,,,c,1.419000149,C,FALSE,,,,,,,122,casa,Catalan,Sounds/cat_casa.mp3,2020-06-09_16h04.11.481,TranslationElicitation_spa,3.2.4,Win32,60,5ede149fcff15e03097dded2,,1,0,80,17,1,79
,,,,,,,,,,,,,,,,,,,,,,,,,,,,,,,,,,,a,1.604000092,CA,FALSE,,,,,,,122,casa,Catalan,Sounds/cat_casa.mp3,2020-06-09_16h04.11.481,TranslationElicitation_spa,3.2.4,Win32,60,5ede149fcff15e03097dded2,,1,0,80,17,1,79
,,,,,,,,,,,,,,,,,,,,,,,,,,,,,,,,,,,s,1.671000004,CAS,FALSE,,,,,,,122,casa,Catalan,Sounds/cat_casa.mp3,2020-06-09_16h04.11.481,TranslationElicitation_spa,3.2.4,Win32,60,5ede149fcff15e03097dded2,,1,0,80,17,1,79
,,,,,,,,,,,,,,,,,,,,,,,,,,,,,,,,,,,a,1.787000179,CASA,FALSE,,,,,,,122,casa,Catalan,Sounds/cat_casa.mp3,2020-06-09_16h04.11.481,TranslationElicitation_spa,3.2.4,Win32,60,5ede149fcff15e03097dded2,,1,0,80,17,1,79
,,,,,,,,,,,,,,,,,,,,,,,,,,,,,,,,,,,return,2.055000067,,FALSE,,,,,,,122,casa,Catalan,Sounds/cat_casa.mp3,2020-06-09_16h04.11.481,TranslationElicitation_spa,3.2.4,Win32,60,5ede149fcff15e03097dded2,2.055000067,1,0,80,17,1,79
,,,,,,,,,,,,,,,,,,,,,,,,,,,,,,,,,,,,,,,,,,,,,122,casa,Catalan,Sounds/cat_casa.mp3,2020-06-09_16h04.11.481,TranslationElicitation_spa,3.2.4,Win32,60,5ede149fcff15e03097dded2,,1,0,80,17,1,79
,,,,,,,,,,,,,,,,,,,,,,,,,,,,,,,,,,,b,6.383000135,B,FALSE,,,,,,,187,vaixell,Catalan,Sounds/cat_vaixell.mp3,2020-06-09_16h04.11.481,TranslationElicitation_spa,3.2.4,Win32,60,5ede149fcff15e03097dded2,,1,0,80,77,1,79
,,,,,,,,,,,,,,,,,,,,,,,,,,,,,,,,,,,e,6.568000078,BE,FALSE,,,,,,,187,vaixell,Catalan,Sounds/cat_vaixell.mp3,2020-06-09_16h04.11.481,TranslationElicitation_spa,3.2.4,Win32,60,5ede149fcff15e03097dded2,,1,0,80,77,1,79
,,,,,,,,,,,,,,,,,,,,,,,,,,,,,,,,,,,c,6.733999968,BEC,FALSE,,,,,,,187,vaixell,Catalan,Sounds/cat_vaixell.mp3,2020-06-09_16h04.11.481,TranslationElicitation_spa,3.2.4,Win32,60,5ede149fcff15e03097dded2,,1,0,80,77,1,79
,,,,,,,,,,,,,,,,,,,,,,,,,,,,,,,,,,,h,6.834000111,BECH,FALSE,,,,,,,187,vaixell,Catalan,Sounds/cat_vaixell.mp3,2020-06-09_16h04.11.481,TranslationElicitation_spa,3.2.4,Win32,60,5ede149fcff15e03097dded2,,1,0,80,77,1,79
,,,,,,,,,,,,,,,,,,,,,,,,,,,,,,,,,,,a,6.985000134,BECHA,FALSE,,,,,,,187,vaixell,Catalan,Sounds/cat_vaixell.mp3,2020-06-09_16h04.11.481,TranslationElicitation_spa,3.2.4,Win32,60,5ede149fcff15e03097dded2,,1,0,80,77,1,79
,,,,,,,,,,,,,,,,,,,,,,,,,,,,,,,,,,,m,7.151000023,BECHAM,FALSE,,,,,,,187,vaixell,Catalan,Sounds/cat_vaixell.mp3,2020-06-09_16h04.11.481,TranslationElicitation_spa,3.2.4,Win32,60,5ede149fcff15e03097dded2,,1,0,80,77,1,79
,,,,,,,,,,,,,,,,,,,,,,,,,,,,,,,,,,,e,7.236000061,BECHAME,FALSE,,,,,,,187,vaixell,Catalan,Sounds/cat_vaixell.mp3,2020-06-09_16h04.11.481,TranslationElicitation_spa,3.2.4,Win32,60,5ede149fcff15e03097dded2,,1,0,80,77,1,79
,,,,,,,,,,,,,,,,,,,,,,,,,,,,,,,,,,,l,7.368999958,BECHAMEL,FALSE,,,,,,,187,vaixell,Catalan,Sounds/cat_vaixell.mp3,2020-06-09_16h04.11.481,TranslationElicitation_spa,3.2.4,Win32,60,5ede149fcff15e03097dded2,,1,0,80,77,1,79
,,,,,,,,,,,,,,,,,,,,,,,,,,,,,,,,,,,space,7.786999941,BECHAMEL ,FALSE,,,,,,,187,vaixell,Catalan,Sounds/cat_vaixell.mp3,2020-06-09_16h04.11.481,TranslationElicitation_spa,3.2.4,Win32,60,5ede149fcff15e03097dded2,,1,0,80,77,1,79
,,,,,,,,,,,,,,,,,,,,,,,,,,,,,,,,,,,return,8.43900013,,FALSE,,,,,,,187,vaixell,Catalan,Sounds/cat_vaixell.mp3,2020-06-09_16h04.11.481,TranslationElicitation_spa,3.2.4,Win32,60,5ede149fcff15e03097dded2,8.43900013,1,0,80,77,1,79
,,,,,,,,,,,,,,,,,,,,,,,,,,,,,,,,,,,,,,,,,,,,,187,vaixell,Catalan,Sounds/cat_vaixell.mp3,2020-06-09_16h04.11.481,TranslationElicitation_spa,3.2.4,Win32,60,5ede149fcff15e03097dded2,,1,0,80,77,1,79
,,,,,,,,,,,,,,,,,,,,,,,,,,,,,,,,,,,a,1.632999897,A,FALSE,,,,,,,133,estruc,Catalan,Sounds/cat_estruc.mp3,2020-06-09_16h04.11.481,TranslationElicitation_spa,3.2.4,Win32,60,5ede149fcff15e03097dded2,,1,0,80,28,1,79
,,,,,,,,,,,,,,,,,,,,,,,,,,,,,,,,,,,v,1.866999865,AV,FALSE,,,,,,,133,estruc,Catalan,Sounds/cat_estruc.mp3,2020-06-09_16h04.11.481,TranslationElicitation_spa,3.2.4,Win32,60,5ede149fcff15e03097dded2,,1,0,80,28,1,79
,,,,,,,,,,,,,,,,,,,,,,,,,,,,,,,,,,,e,2.034999847,AVE,FALSE,,,,,,,133,estruc,Catalan,Sounds/cat_estruc.mp3,2020-06-09_16h04.11.481,TranslationElicitation_spa,3.2.4,Win32,60,5ede149fcff15e03097dded2,,1,0,80,28,1,79
,,,,,,,,,,,,,,,,,,,,,,,,,,,,,,,,,,,s,2.235999823,AVES,FALSE,,,,,,,133,estruc,Catalan,Sounds/cat_estruc.mp3,2020-06-09_16h04.11.481,TranslationElicitation_spa,3.2.4,Win32,60,5ede149fcff15e03097dded2,,1,0,80,28,1,79
,,,,,,,,,,,,,,,,,,,,,,,,,,,,,,,,,,,t,2.368999958,AVEST,FALSE,,,,,,,133,estruc,Catalan,Sounds/cat_estruc.mp3,2020-06-09_16h04.11.481,TranslationElicitation_spa,3.2.4,Win32,60,5ede149fcff15e03097dded2,,1,0,80,28,1,79
,,,,,,,,,,,,,,,,,,,,,,,,,,,,,,,,,,,r,2.468999863,AVESTR,FALSE,,,,,,,133,estruc,Catalan,Sounds/cat_estruc.mp3,2020-06-09_16h04.11.481,TranslationElicitation_spa,3.2.4,Win32,60,5ede149fcff15e03097dded2,,1,0,80,28,1,79
,,,,,,,,,,,,,,,,,,,,,,,,,,,,,,,,,,,u,2.621999979,AVESTRU,FALSE,,,,,,,133,estruc,Catalan,Sounds/cat_estruc.mp3,2020-06-09_16h04.11.481,TranslationElicitation_spa,3.2.4,Win32,60,5ede149fcff15e03097dded2,,1,0,80,28,1,79
,,,,,,,,,,,,,,,,,,,,,,,,,,,,,,,,,,,z,2.769999981,AVESTRUZ,FALSE,,,,,,,133,estruc,Catalan,Sounds/cat_estruc.mp3,2020-06-09_16h04.11.481,TranslationElicitation_spa,3.2.4,Win32,60,5ede149fcff15e03097dded2,,1,0,80,28,1,79
,,,,,,,,,,,,,,,,,,,,,,,,,,,,,,,,,,,return,3.236999989,,FALSE,,,,,,,133,estruc,Catalan,Sounds/cat_estruc.mp3,2020-06-09_16h04.11.481,TranslationElicitation_spa,3.2.4,Win32,60,5ede149fcff15e03097dded2,3.236999989,1,0,80,28,1,79
,,,,,,,,,,,,,,,,,,,,,,,,,,,,,,,,,,,,,,,,,,,,,133,estruc,Catalan,Sounds/cat_estruc.mp3,2020-06-09_16h04.11.481,TranslationElicitation_spa,3.2.4,Win32,60,5ede149fcff15e03097dded2,,1,0,80,28,1,79
,,,,,,,,,,,,,,,,,,,,,,,,,,,,,,,,,,,c,1.519999981,C,FALSE,,,,,,,119,caixa,Catalan,Sounds/cat_caixa.mp3,2020-06-09_16h04.11.481,TranslationElicitation_spa,3.2.4,Win32,60,5ede149fcff15e03097dded2,,1,0,80,14,1,79
,,,,,,,,,,,,,,,,,,,,,,,,,,,,,,,,,,,a,1.736999989,CA,FALSE,,,,,,,119,caixa,Catalan,Sounds/cat_caixa.mp3,2020-06-09_16h04.11.481,TranslationElicitation_spa,3.2.4,Win32,60,5ede149fcff15e03097dded2,,1,0,80,14,1,79
,,,,,,,,,,,,,,,,,,,,,,,,,,,,,,,,,,,s,1.802999973,CAS,FALSE,,,,,,,119,caixa,Catalan,Sounds/cat_caixa.mp3,2020-06-09_16h04.11.481,TranslationElicitation_spa,3.2.4,Win32,60,5ede149fcff15e03097dded2,,1,0,80,14,1,79
,,,,,,,,,,,,,,,,,,,,,,,,,,,,,,,,,,,a,1.953999996,CASA,FALSE,,,,,,,119,caixa,Catalan,Sounds/cat_caixa.mp3,2020-06-09_16h04.11.481,TranslationElicitation_spa,3.2.4,Win32,60,5ede149fcff15e03097dded2,,1,0,80,14,1,79
,,,,,,,,,,,,,,,,,,,,,,,,,,,,,,,,,,,return,2.371999979,,FALSE,,,,,,,119,caixa,Catalan,Sounds/cat_caixa.mp3,2020-06-09_16h04.11.481,TranslationElicitation_spa,3.2.4,Win32,60,5ede149fcff15e03097dded2,2.371999979,1,0,80,14,1,79
,,,,,,,,,,,,,,,,,,,,,,,,,,,,,,,,,,,,,,,,,,,,,119,caixa,Catalan,Sounds/cat_caixa.mp3,2020-06-09_16h04.11.481,TranslationElicitation_spa,3.2.4,Win32,60,5ede149fcff15e03097dded2,,1,0,80,14,1,79
,,,,,,,,,,,,,,,,,,,,,,,,,,,,,,,,,,,u,1.537000179,U,FALSE,,,,,,,151,lluna,Catalan,Sounds/cat_lluna.mp3,2020-06-09_16h04.11.481,TranslationElicitation_spa,3.2.4,Win32,60,5ede149fcff15e03097dded2,,1,0,80,45,1,79
,,,,,,,,,,,,,,,,,,,,,,,,,,,,,,,,,,,backspace,1.854000092,,TRUE,,,,,,,151,lluna,Catalan,Sounds/cat_lluna.mp3,2020-06-09_16h04.11.481,TranslationElicitation_spa,3.2.4,Win32,60,5ede149fcff15e03097dded2,,1,0,80,45,1,79
,,,,,,,,,,,,,,,,,,,,,,,,,,,,,,,,,,,l,2.038000107,L,TRUE,,,,,,,151,lluna,Catalan,Sounds/cat_lluna.mp3,2020-06-09_16h04.11.481,TranslationElicitation_spa,3.2.4,Win32,60,5ede149fcff15e03097dded2,,1,0,80,45,1,79
,,,,,,,,,,,,,,,,,,,,,,,,,,,,,,,,,,,u,2.205000162,LU,TRUE,,,,,,,151,lluna,Catalan,Sounds/cat_lluna.mp3,2020-06-09_16h04.11.481,TranslationElicitation_spa,3.2.4,Win32,60,5ede149fcff15e03097dded2,,1,0,80,45,1,79
,,,,,,,,,,,,,,,,,,,,,,,,,,,,,,,,,,,n,2.389000177,LUN,TRUE,,,,,,,151,lluna,Catalan,Sounds/cat_lluna.mp3,2020-06-09_16h04.11.481,TranslationElicitation_spa,3.2.4,Win32,60,5ede149fcff15e03097dded2,,1,0,80,45,1,79
,,,,,,,,,,,,,,,,,,,,,,,,,,,,,,,,,,,a,2.555999994,LUNA,TRUE,,,,,,,151,lluna,Catalan,Sounds/cat_lluna.mp3,2020-06-09_16h04.11.481,TranslationElicitation_spa,3.2.4,Win32,60,5ede149fcff15e03097dded2,,1,0,80,45,1,79
,,,,,,,,,,,,,,,,,,,,,,,,,,,,,,,,,,,return,2.80700016,,TRUE,,,,,,,151,lluna,Catalan,Sounds/cat_lluna.mp3,2020-06-09_16h04.11.481,TranslationElicitation_spa,3.2.4,Win32,60,5ede149fcff15e03097dded2,2.805999994,1,0,80,45,1,79
,,,,,,,,,,,,,,,,,,,,,,,,,,,,,,,,,,,,,,,,,,,,,151,lluna,Catalan,Sounds/cat_lluna.mp3,2020-06-09_16h04.11.481,TranslationElicitation_spa,3.2.4,Win32,60,5ede149fcff15e03097dded2,,1,0,80,45,1,79
,,,,,,,,,,,,,,,,,,,,,,,,,,,,,,,,,,,p,1.836999893,P,FALSE,,,,,,,169,plat,Catalan,Sounds/cat_plat.mp3,2020-06-09_16h04.11.481,TranslationElicitation_spa,3.2.4,Win32,60,5ede149fcff15e03097dded2,,1,0,80,61,1,79
,,,,,,,,,,,,,,,,,,,,,,,,,,,,,,,,,,,l,1.91899991,PL,FALSE,,,,,,,169,plat,Catalan,Sounds/cat_plat.mp3,2020-06-09_16h04.11.481,TranslationElicitation_spa,3.2.4,Win32,60,5ede149fcff15e03097dded2,,1,0,80,61,1,79
,,,,,,,,,,,,,,,,,,,,,,,,,,,,,,,,,,,a,2.053999901,PLA,FALSE,,,,,,,169,plat,Catalan,Sounds/cat_plat.mp3,2020-06-09_16h04.11.481,TranslationElicitation_spa,3.2.4,Win32,60,5ede149fcff15e03097dded2,,1,0,80,61,1,79
,,,,,,,,,,,,,,,,,,,,,,,,,,,,,,,,,,,t,2.237999916,PLAT,FALSE,,,,,,,169,plat,Catalan,Sounds/cat_plat.mp3,2020-06-09_16h04.11.481,TranslationElicitation_spa,3.2.4,Win32,60,5ede149fcff15e03097dded2,,1,0,80,61,1,79
,,,,,,,,,,,,,,,,,,,,,,,,,,,,,,,,,,,o,2.355000019,PLATO,FALSE,,,,,,,169,plat,Catalan,Sounds/cat_plat.mp3,2020-06-09_16h04.11.481,TranslationElicitation_spa,3.2.4,Win32,60,5ede149fcff15e03097dded2,,1,0,80,61,1,79
,,,,,,,,,,,,,,,,,,,,,,,,,,,,,,,,,,,return,2.539000034,,FALSE,,,,,,,169,plat,Catalan,Sounds/cat_plat.mp3,2020-06-09_16h04.11.481,TranslationElicitation_spa,3.2.4,Win32,60,5ede149fcff15e03097dded2,2.539000034,1,0,80,61,1,79
,,,,,,,,,,,,,,,,,,,,,,,,,,,,,,,,,,,,,,,,,,,,,169,plat,Catalan,Sounds/cat_plat.mp3,2020-06-09_16h04.11.481,TranslationElicitation_spa,3.2.4,Win32,60,5ede149fcff15e03097dded2,,1,0,80,61,1,79
,,,,,,,,,,,,,,,,,,,,,,,,,,,,,,,,,,,f,1.398000002,F,FALSE,,,,,,,134,flor,Catalan,Sounds/cat_flor.mp3,2020-06-09_16h04.11.481,TranslationElicitation_spa,3.2.4,Win32,60,5ede149fcff15e03097dded2,,1,0,80,29,1,79
,,,,,,,,,,,,,,,,,,,,,,,,,,,,,,,,,,,l,1.569999933,FL,FALSE,,,,,,,134,flor,Catalan,Sounds/cat_flor.mp3,2020-06-09_16h04.11.481,TranslationElicitation_spa,3.2.4,Win32,60,5ede149fcff15e03097dded2,,1,0,80,29,1,79
,,,,,,,,,,,,,,,,,,,,,,,,,,,,,,,,,,,o,1.753999949,FLO,FALSE,,,,,,,134,flor,Catalan,Sounds/cat_flor.mp3,2020-06-09_16h04.11.481,TranslationElicitation_spa,3.2.4,Win32,60,5ede149fcff15e03097dded2,,1,0,80,29,1,79
,,,,,,,,,,,,,,,,,,,,,,,,,,,,,,,,,,,r,1.854999781,FLOR,FALSE,,,,,,,134,flor,Catalan,Sounds/cat_flor.mp3,2020-06-09_16h04.11.481,TranslationElicitation_spa,3.2.4,Win32,60,5ede149fcff15e03097dded2,,1,0,80,29,1,79
,,,,,,,,,,,,,,,,,,,,,,,,,,,,,,,,,,,e,1.971999884,FLORE,FALSE,,,,,,,134,flor,Catalan,Sounds/cat_flor.mp3,2020-06-09_16h04.11.481,TranslationElicitation_spa,3.2.4,Win32,60,5ede149fcff15e03097dded2,,1,0,80,29,1,79
,,,,,,,,,,,,,,,,,,,,,,,,,,,,,,,,,,,return,2.171999931,,FALSE,,,,,,,134,flor,Catalan,Sounds/cat_flor.mp3,2020-06-09_16h04.11.481,TranslationElicitation_spa,3.2.4,Win32,60,5ede149fcff15e03097dded2,2.171999931,1,0,80,29,1,79
,,,,,,,,,,,,,,,,,,,,,,,,,,,,,,,,,,,,,,,,,,,,,134,flor,Catalan,Sounds/cat_flor.mp3,2020-06-09_16h04.11.481,TranslationElicitation_spa,3.2.4,Win32,60,5ede149fcff15e03097dded2,,1,0,80,29,1,79
,,,,,,,,,,,,,,,,,,,,,,,,,,,,,,,,,,,m,2.287999868,M,FALSE,,,,,,,152,ma,Catalan,Sounds/cat_ma.mp3,2020-06-09_16h04.11.481,TranslationElicitation_spa,3.2.4,Win32,60,5ede149fcff15e03097dded2,,1,0,80,46,1,79
,,,,,,,,,,,,,,,,,,,,,,,,,,,,,,,,,,,a,2.506999969,MA,FALSE,,,,,,,152,ma,Catalan,Sounds/cat_ma.mp3,2020-06-09_16h04.11.481,TranslationElicitation_spa,3.2.4,Win32,60,5ede149fcff15e03097dded2,,1,0,80,46,1,79
,,,,,,,,,,,,,,,,,,,,,,,,,,,,,,,,,,,r,3.075000048,MAR,FALSE,,,,,,,152,ma,Catalan,Sounds/cat_ma.mp3,2020-06-09_16h04.11.481,TranslationElicitation_spa,3.2.4,Win32,60,5ede149fcff15e03097dded2,,1,0,80,46,1,79
,,,,,,,,,,,,,,,,,,,,,,,,,,,,,,,,,,,return,3.39199996,,FALSE,,,,,,,152,ma,Catalan,Sounds/cat_ma.mp3,2020-06-09_16h04.11.481,TranslationElicitation_spa,3.2.4,Win32,60,5ede149fcff15e03097dded2,3.39199996,1,0,80,46,1,79
,,,,,,,,,,,,,,,,,,,,,,,,,,,,,,,,,,,,,,,,,,,,,152,ma,Catalan,Sounds/cat_ma.mp3,2020-06-09_16h04.11.481,TranslationElicitation_spa,3.2.4,Win32,60,5ede149fcff15e03097dded2,,1,0,80,46,1,79
,,,,,,,,,,,,,,,,,,,,,,,,,,,,,,,,,,,r,2.204999924,R,FALSE,,,,,,,175,raspall,Catalan,Sounds/cat_raspall.mp3,2020-06-09_16h04.11.481,TranslationElicitation_spa,3.2.4,Win32,60,5ede149fcff15e03097dded2,,1,0,80,67,1,79
,,,,,,,,,,,,,,,,,,,,,,,,,,,,,,,,,,,a,2.45600009,RA,FALSE,,,,,,,175,raspall,Catalan,Sounds/cat_raspall.mp3,2020-06-09_16h04.11.481,TranslationElicitation_spa,3.2.4,Win32,60,5ede149fcff15e03097dded2,,1,0,80,67,1,79
,,,,,,,,,,,,,,,,,,,,,,,,,,,,,,,,,,,s,2.539000034,RAS,FALSE,,,,,,,175,raspall,Catalan,Sounds/cat_raspall.mp3,2020-06-09_16h04.11.481,TranslationElicitation_spa,3.2.4,Win32,60,5ede149fcff15e03097dded2,,1,0,80,67,1,79
,,,,,,,,,,,,,,,,,,,,,,,,,,,,,,,,,,,p,3.039999962,RASP,FALSE,,,,,,,175,raspall,Catalan,Sounds/cat_raspall.mp3,2020-06-09_16h04.11.481,TranslationElicitation_spa,3.2.4,Win32,60,5ede149fcff15e03097dded2,,1,0,80,67,1,79
,,,,,,,,,,,,,,,,,,,,,,,,,,,,,,,,,,,a,3.190000057,RASPA,FALSE,,,,,,,175,raspall,Catalan,Sounds/cat_raspall.mp3,2020-06-09_16h04.11.481,TranslationElicitation_spa,3.2.4,Win32,60,5ede149fcff15e03097dded2,,1,0,80,67,1,79
,,,,,,,,,,,,,,,,,,,,,,,,,,,,,,,,,,,r,3.407000065,RASPAR,FALSE,,,,,,,175,raspall,Catalan,Sounds/cat_raspall.mp3,2020-06-09_16h04.11.481,TranslationElicitation_spa,3.2.4,Win32,60,5ede149fcff15e03097dded2,,1,0,80,67,1,79
,,,,,,,,,,,,,,,,,,,,,,,,,,,,,,,,,,,return,3.759000063,,FALSE,,,,,,,175,raspall,Catalan,Sounds/cat_raspall.mp3,2020-06-09_16h04.11.481,TranslationElicitation_spa,3.2.4,Win32,60,5ede149fcff15e03097dded2,3.759000063,1,0,80,67,1,79
,,,,,,,,,,,,,,,,,,,,,,,,,,,,,,,,,,,,,,,,,,,,,175,raspall,Catalan,Sounds/cat_raspall.mp3,2020-06-09_16h04.11.481,TranslationElicitation_spa,3.2.4,Win32,60,5ede149fcff15e03097dded2,,1,0,80,67,1,79
,,,,,,,,,,,,,,,,,,,,,,,,,,,,,,,,,,,p,2.672999859,P,FALSE,,,,,,,171,pollastre,Catalan,Sounds/cat_pollastre.mp3,2020-06-09_16h04.11.481,TranslationElicitation_spa,3.2.4,Win32,60,5ede149fcff15e03097dded2,,1,0,80,63,1,79
,,,,,,,,,,,,,,,,,,,,,,,,,,,,,,,,,,,u,2.957000017,PU,FALSE,,,,,,,171,pollastre,Catalan,Sounds/cat_pollastre.mp3,2020-06-09_16h04.11.481,TranslationElicitation_spa,3.2.4,Win32,60,5ede149fcff15e03097dded2,,1,0,80,63,1,79
,,,,,,,,,,,,,,,,,,,,,,,,,,,,,,,,,,,r,3.072999954,PUR,FALSE,,,,,,,171,pollastre,Catalan,Sounds/cat_pollastre.mp3,2020-06-09_16h04.11.481,TranslationElicitation_spa,3.2.4,Win32,60,5ede149fcff15e03097dded2,,1,0,80,63,1,79
,,,,,,,,,,,,,,,,,,,,,,,,,,,,,,,,,,,e,3.190999985,PURE,FALSE,,,,,,,171,pollastre,Catalan,Sounds/cat_pollastre.mp3,2020-06-09_16h04.11.481,TranslationElicitation_spa,3.2.4,Win32,60,5ede149fcff15e03097dded2,,1,0,80,63,1,79
,,,,,,,,,,,,,,,,,,,,,,,,,,,,,,,,,,,return,3.514999866,,FALSE,,,,,,,171,pollastre,Catalan,Sounds/cat_pollastre.mp3,2020-06-09_16h04.11.481,TranslationElicitation_spa,3.2.4,Win32,60,5ede149fcff15e03097dded2,3.514999866,1,0,80,63,1,79
,,,,,,,,,,,,,,,,,,,,,,,,,,,,,,,,,,,,,,,,,,,,,171,pollastre,Catalan,Sounds/cat_pollastre.mp3,2020-06-09_16h04.11.481,TranslationElicitation_spa,3.2.4,Win32,60,5ede149fcff15e03097dded2,,1,0,80,63,1,79
,,,,,,,,,,,,,,,,,,,,,,,,,,,,,,,,,,,p,1.387000084,P,FALSE,,,,,,,162,pa,Catalan,Sounds/cat_pa.mp3,2020-06-09_16h04.11.481,TranslationElicitation_spa,3.2.4,Win32,60,5ede149fcff15e03097dded2,,1,0,80,55,1,79
,,,,,,,,,,,,,,,,,,,,,,,,,,,,,,,,,,,a,1.554000139,PA,FALSE,,,,,,,162,pa,Catalan,Sounds/cat_pa.mp3,2020-06-09_16h04.11.481,TranslationElicitation_spa,3.2.4,Win32,60,5ede149fcff15e03097dded2,,1,0,80,55,1,79
,,,,,,,,,,,,,,,,,,,,,,,,,,,,,,,,,,,n,1.887000084,PAN,FALSE,,,,,,,162,pa,Catalan,Sounds/cat_pa.mp3,2020-06-09_16h04.11.481,TranslationElicitation_spa,3.2.4,Win32,60,5ede149fcff15e03097dded2,,1,0,80,55,1,79
,,,,,,,,,,,,,,,,,,,,,,,,,,,,,,,,,,,return,2.18900013,,FALSE,,,,,,,162,pa,Catalan,Sounds/cat_pa.mp3,2020-06-09_16h04.11.481,TranslationElicitation_spa,3.2.4,Win32,60,5ede149fcff15e03097dded2,2.18900013,1,0,80,55,1,79
,,,,,,,,,,,,,,,,,,,,,,,,,,,,,,,,,,,,,,,,,,,,,162,pa,Catalan,Sounds/cat_pa.mp3,2020-06-09_16h04.11.481,TranslationElicitation_spa,3.2.4,Win32,60,5ede149fcff15e03097dded2,,1,0,80,55,1,79
,,,,,,,,,,,,,,,,,,,,,,,,,,,,,,,,,,,o,1.621000051,O,FALSE,,,,,,,143,globus,Catalan,Sounds/cat_globus.mp3,2020-06-09_16h04.11.481,TranslationElicitation_spa,3.2.4,Win32,60,5ede149fcff15e03097dded2,,1,0,80,38,1,79
,,,,,,,,,,,,,,,,,,,,,,,,,,,,,,,,,,,backspace,2.020999908,,TRUE,,,,,,,143,globus,Catalan,Sounds/cat_globus.mp3,2020-06-09_16h04.11.481,TranslationElicitation_spa,3.2.4,Win32,60,5ede149fcff15e03097dded2,,1,0,80,38,1,79
,,,,,,,,,,,,,,,,,,,,,,,,,,,,,,,,,,,g,2.171999931,G,TRUE,,,,,,,143,globus,Catalan,Sounds/cat_globus.mp3,2020-06-09_16h04.11.481,TranslationElicitation_spa,3.2.4,Win32,60,5ede149fcff15e03097dded2,,1,0,80,38,1,79
,,,,,,,,,,,,,,,,,,,,,,,,,,,,,,,,,,,l,2.238999844,GL,TRUE,,,,,,,143,globus,Catalan,Sounds/cat_globus.mp3,2020-06-09_16h04.11.481,TranslationElicitation_spa,3.2.4,Win32,60,5ede149fcff15e03097dded2,,1,0,80,38,1,79
,,,,,,,,,,,,,,,,,,,,,,,,,,,,,,,,,,,o,2.404999971,GLO,TRUE,,,,,,,143,globus,Catalan,Sounds/cat_globus.mp3,2020-06-09_16h04.11.481,TranslationElicitation_spa,3.2.4,Win32,60,5ede149fcff15e03097dded2,,1,0,80,38,1,79
,,,,,,,,,,,,,,,,,,,,,,,,,,,,,,,,,,,b,2.606999874,GLOB,TRUE,,,,,,,143,globus,Catalan,Sounds/cat_globus.mp3,2020-06-09_16h04.11.481,TranslationElicitation_spa,3.2.4,Win32,60,5ede149fcff15e03097dded2,,1,0,80,38,1,79
,,,,,,,,,,,,,,,,,,,,,,,,,,,,,,,,,,,o,3.006999969,GLOBO,TRUE,,,,,,,143,globus,Catalan,Sounds/cat_globus.mp3,2020-06-09_16h04.11.481,TranslationElicitation_spa,3.2.4,Win32,60,5ede149fcff15e03097dded2,,1,0,80,38,1,79
,,,,,,,,,,,,,,,,,,,,,,,,,,,,,,,,,,,return,3.224999905,,TRUE,,,,,,,143,globus,Catalan,Sounds/cat_globus.mp3,2020-06-09_16h04.11.481,TranslationElicitation_spa,3.2.4,Win32,60,5ede149fcff15e03097dded2,3.224999905,1,0,80,38,1,79
,,,,,,,,,,,,,,,,,,,,,,,,,,,,,,,,,,,,,,,,,,,,,143,globus,Catalan,Sounds/cat_globus.mp3,2020-06-09_16h04.11.481,TranslationElicitation_spa,3.2.4,Win32,60,5ede149fcff15e03097dded2,,1,0,80,38,1,79
