consentKey.keys,consentKey.rt,languageL1Key.keys,languageL1Key.rt,languageL2,languageL2OralKey.keys,languageL2OralKey.rt,languageL2WrittenKey.keys,languageL2WrittenKey.rt,languageL3OralKey.keys,languageL3OralKey.rt,languageL3WrittenKey.keys,languageL3WrittenKey.rt,languageCatalanOralKey.keys,languageCatalanOralKey.rt,languageCatalanWrittenKey.keys,languageCatalanWrittenKey.rt,languageCatalanTimeKey.keys,languageCatalanTimeKey.rt,age,demoSexKey.keys,demoSexKey.rt,demoEducationKey.keys,demoEducationKey.rt,city,demoVisionKey.keys,demoVisionKey.rt,demoLanguageKey.keys,demoLanguageKey.rt,setupLocationKey.keys,setupLocationKey.rt,setupNoiseKey.keys,setupNoiseKey.rt,instructionsKeys.keys,instructionsKeys.rt,keyPressed,keyPressTime,inputText,error,trials_practice.thisRepN,trials_practice.thisTrialN,trials_practice.thisN,trials_practice.thisIndex,trials_practice.ran,trials_practice.order,trial_id,word,test_language,soundfile,date,expName,psychopyVersion,OS,frameRate,participant,trialOffset,trials.thisRepN,trials.thisTrialN,trials.thisN,trials.thisIndex,trials.ran,trials.order
space,9.161999941,e,6.366000175,FRANCÉS,3,20.53400016,4,15.37000012,3,13.23600006,3,8.953000069,1,24.2820003,1,4.367000103,1,5.563000202,20,m,1.972000122,3,19.66000009,ALBACETE,n,7.789000273,n,3.21600008,1,3.5400002,1,12.17000008,space,21.65700006,space,3.230000019, ,FALSE,1,0,5,2,1,4,159,onada,Catalan,Sounds/cat_onada.mp3,2020-06-08_20h10.22.080,TranslationElicitation_spa,3.2.4,Win32,60,5ede1e445c4bda03a80555e6,,,,,,,
,,,,,,,,,,,,,,,,,,,,,,,,,,,,,,,,,,,space,6.638999939,  ,FALSE,1,0,5,2,1,4,159,onada,Catalan,Sounds/cat_onada.mp3,2020-06-08_20h10.22.080,TranslationElicitation_spa,3.2.4,Win32,60,5ede1e445c4bda03a80555e6,,,,,,,
,,,,,,,,,,,,,,,,,,,,,,,,,,,,,,,,,,,space,11.10099983,   ,FALSE,1,0,5,2,1,4,159,onada,Catalan,Sounds/cat_onada.mp3,2020-06-08_20h10.22.080,TranslationElicitation_spa,3.2.4,Win32,60,5ede1e445c4bda03a80555e6,,,,,,,
,,,,,,,,,,,,,,,,,,,,,,,,,,,,,,,,,,,return,15.546,,FALSE,1,0,5,2,1,4,159,onada,Catalan,Sounds/cat_onada.mp3,2020-06-08_20h10.22.080,TranslationElicitation_spa,3.2.4,Win32,60,5ede1e445c4bda03a80555e6,15.546,,,,,,
,,,,,,,,,,,,,,,,,,,,,,,,,,,,,,,,,,,,,,,1,0,5,2,1,4,159,onada,Catalan,Sounds/cat_onada.mp3,2020-06-08_20h10.22.080,TranslationElicitation_spa,3.2.4,Win32,60,5ede1e445c4bda03a80555e6,,,,,,,
,,,,,,,,,,,,,,,,,,,,,,,,,,,,,,,,,,,return,3.758000135,,FALSE,1,0,5,3,1,4,167,pingui,Catalan,Sounds/cat_pingui.mp3,2020-06-08_20h10.22.080,TranslationElicitation_spa,3.2.4,Win32,60,5ede1e445c4bda03a80555e6,3.758000135,,,,,,
,,,,,,,,,,,,,,,,,,,,,,,,,,,,,,,,,,,,,,,1,0,5,3,1,4,167,pingui,Catalan,Sounds/cat_pingui.mp3,2020-06-08_20h10.22.080,TranslationElicitation_spa,3.2.4,Win32,60,5ede1e445c4bda03a80555e6,,,,,,,
,,,,,,,,,,,,,,,,,,,,,,,,,,,,,,,,,,,return,4.995000124,,FALSE,1,0,5,1,1,4,147,jaqueta,Catalan,Sounds/cat_jaqueta.mp3,2020-06-08_20h10.22.080,TranslationElicitation_spa,3.2.4,Win32,60,5ede1e445c4bda03a80555e6,4.995000124,,,,,,
,,,,,,,,,,,,,,,,,,,,,,,,,,,,,,,,,,,,,,,1,0,5,1,1,4,147,jaqueta,Catalan,Sounds/cat_jaqueta.mp3,2020-06-08_20h10.22.080,TranslationElicitation_spa,3.2.4,Win32,60,5ede1e445c4bda03a80555e6,,,,,,,
,,,,,,,,,,,,,,,,,,,,,,,,,,,,,,,,,,,return,3.072999954,,FALSE,1,0,5,4,1,4,179,tigre,Catalan,Sounds/cat_tigre.mp3,2020-06-08_20h10.22.080,TranslationElicitation_spa,3.2.4,Win32,60,5ede1e445c4bda03a80555e6,3.072999954,,,,,,
,,,,,,,,,,,,,,,,,,,,,,,,,,,,,,,,,,,,,,,1,0,5,4,1,4,179,tigre,Catalan,Sounds/cat_tigre.mp3,2020-06-08_20h10.22.080,TranslationElicitation_spa,3.2.4,Win32,60,5ede1e445c4bda03a80555e6,,,,,,,
,,,,,,,,,,,,,,,,,,,,,,,,,,,,,,,,,,,j,2.970999956,J,FALSE,1,0,5,0,1,4,109,arbre,Catalan,Sounds/cat_arbre.mp3,2020-06-08_20h10.22.080,TranslationElicitation_spa,3.2.4,Win32,60,5ede1e445c4bda03a80555e6,,,,,,,
,,,,,,,,,,,,,,,,,,,,,,,,,,,,,,,,,,,backspace,3.773000002,,TRUE,1,0,5,0,1,4,109,arbre,Catalan,Sounds/cat_arbre.mp3,2020-06-08_20h10.22.080,TranslationElicitation_spa,3.2.4,Win32,60,5ede1e445c4bda03a80555e6,,,,,,,
,,,,,,,,,,,,,,,,,,,,,,,,,,,,,,,,,,,return,4.742000103,,TRUE,1,0,5,0,1,4,109,arbre,Catalan,Sounds/cat_arbre.mp3,2020-06-08_20h10.22.080,TranslationElicitation_spa,3.2.4,Win32,60,5ede1e445c4bda03a80555e6,4.742000103,,,,,,
,,,,,,,,,,,,,,,,,,,,,,,,,,,,,,,,,,,,,,,1,0,5,0,1,4,109,arbre,Catalan,Sounds/cat_arbre.mp3,2020-06-08_20h10.22.080,TranslationElicitation_spa,3.2.4,Win32,60,5ede1e445c4bda03a80555e6,,,,,,,
,,,,,,,,,,,,,,,,,,,,,,,,,,,,,,,,,,,m,2.851999998,M,FALSE,,,,,,,152,ma,Catalan,Sounds/cat_ma.mp3,2020-06-08_20h10.22.080,TranslationElicitation_spa,3.2.4,Win32,60,5ede1e445c4bda03a80555e6,,1,0,80,46,1,79
,,,,,,,,,,,,,,,,,,,,,,,,,,,,,,,,,,,a,3.15199995,MA,FALSE,,,,,,,152,ma,Catalan,Sounds/cat_ma.mp3,2020-06-08_20h10.22.080,TranslationElicitation_spa,3.2.4,Win32,60,5ede1e445c4bda03a80555e6,,1,0,80,46,1,79
,,,,,,,,,,,,,,,,,,,,,,,,,,,,,,,,,,,m,3.888000011,MAM,FALSE,,,,,,,152,ma,Catalan,Sounds/cat_ma.mp3,2020-06-08_20h10.22.080,TranslationElicitation_spa,3.2.4,Win32,60,5ede1e445c4bda03a80555e6,,1,0,80,46,1,79
,,,,,,,,,,,,,,,,,,,,,,,,,,,,,,,,,,,a,4.322000027,MAMA,FALSE,,,,,,,152,ma,Catalan,Sounds/cat_ma.mp3,2020-06-08_20h10.22.080,TranslationElicitation_spa,3.2.4,Win32,60,5ede1e445c4bda03a80555e6,,1,0,80,46,1,79
,,,,,,,,,,,,,,,,,,,,,,,,,,,,,,,,,,,backspace,5.09100008,MA,TRUE,,,,,,,152,ma,Catalan,Sounds/cat_ma.mp3,2020-06-08_20h10.22.080,TranslationElicitation_spa,3.2.4,Win32,60,5ede1e445c4bda03a80555e6,,1,0,80,46,1,79
,,,,,,,,,,,,,,,,,,,,,,,,,,,,,,,,,,,apostrophe,5.39199996,MA,TRUE,,,,,,,152,ma,Catalan,Sounds/cat_ma.mp3,2020-06-08_20h10.22.080,TranslationElicitation_spa,3.2.4,Win32,60,5ede1e445c4bda03a80555e6,,1,0,80,46,1,79
,,,,,,,,,,,,,,,,,,,,,,,,,,,,,,,,,,,a,5.441999912,MAÁ,TRUE,,,,,,,152,ma,Catalan,Sounds/cat_ma.mp3,2020-06-08_20h10.22.080,TranslationElicitation_spa,3.2.4,Win32,60,5ede1e445c4bda03a80555e6,,1,0,80,46,1,79
,,,,,,,,,,,,,,,,,,,,,,,,,,,,,,,,,,,backspace,6.493999958,M,TRUE,,,,,,,152,ma,Catalan,Sounds/cat_ma.mp3,2020-06-08_20h10.22.080,TranslationElicitation_spa,3.2.4,Win32,60,5ede1e445c4bda03a80555e6,,1,0,80,46,1,79
,,,,,,,,,,,,,,,,,,,,,,,,,,,,,,,,,,,m,7.029000044,MM,TRUE,,,,,,,152,ma,Catalan,Sounds/cat_ma.mp3,2020-06-08_20h10.22.080,TranslationElicitation_spa,3.2.4,Win32,60,5ede1e445c4bda03a80555e6,,1,0,80,46,1,79
,,,,,,,,,,,,,,,,,,,,,,,,,,,,,,,,,,,a,7.747999907,MMA,TRUE,,,,,,,152,ma,Catalan,Sounds/cat_ma.mp3,2020-06-08_20h10.22.080,TranslationElicitation_spa,3.2.4,Win32,60,5ede1e445c4bda03a80555e6,,1,0,80,46,1,79
,,,,,,,,,,,,,,,,,,,,,,,,,,,,,,,,,,,backspace,8.049000025,M,TRUE,,,,,,,152,ma,Catalan,Sounds/cat_ma.mp3,2020-06-08_20h10.22.080,TranslationElicitation_spa,3.2.4,Win32,60,5ede1e445c4bda03a80555e6,,1,0,80,46,1,79
,,,,,,,,,,,,,,,,,,,,,,,,,,,,,,,,,,,a,8.750999928,MA,TRUE,,,,,,,152,ma,Catalan,Sounds/cat_ma.mp3,2020-06-08_20h10.22.080,TranslationElicitation_spa,3.2.4,Win32,60,5ede1e445c4bda03a80555e6,,1,0,80,46,1,79
,,,,,,,,,,,,,,,,,,,,,,,,,,,,,,,,,,,m,9.403000116,MAM,TRUE,,,,,,,152,ma,Catalan,Sounds/cat_ma.mp3,2020-06-08_20h10.22.080,TranslationElicitation_spa,3.2.4,Win32,60,5ede1e445c4bda03a80555e6,,1,0,80,46,1,79
,,,,,,,,,,,,,,,,,,,,,,,,,,,,,,,,,,,apostrophe,10.05400014,MAM,TRUE,,,,,,,152,ma,Catalan,Sounds/cat_ma.mp3,2020-06-08_20h10.22.080,TranslationElicitation_spa,3.2.4,Win32,60,5ede1e445c4bda03a80555e6,,1,0,80,46,1,79
,,,,,,,,,,,,,,,,,,,,,,,,,,,,,,,,,,,a,10.10500002,MAMÁ,TRUE,,,,,,,152,ma,Catalan,Sounds/cat_ma.mp3,2020-06-08_20h10.22.080,TranslationElicitation_spa,3.2.4,Win32,60,5ede1e445c4bda03a80555e6,,1,0,80,46,1,79
,,,,,,,,,,,,,,,,,,,,,,,,,,,,,,,,,,,return,11.37400007,,TRUE,,,,,,,152,ma,Catalan,Sounds/cat_ma.mp3,2020-06-08_20h10.22.080,TranslationElicitation_spa,3.2.4,Win32,60,5ede1e445c4bda03a80555e6,11.37400007,1,0,80,46,1,79
,,,,,,,,,,,,,,,,,,,,,,,,,,,,,,,,,,,,,,,,,,,,,152,ma,Catalan,Sounds/cat_ma.mp3,2020-06-08_20h10.22.080,TranslationElicitation_spa,3.2.4,Win32,60,5ede1e445c4bda03a80555e6,,1,0,80,46,1,79
,,,,,,,,,,,,,,,,,,,,,,,,,,,,,,,,,,,j,1.717000008,J,FALSE,,,,,,,142,girafa,Catalan,Sounds/cat_girafa.mp3,2020-06-08_20h10.22.080,TranslationElicitation_spa,3.2.4,Win32,60,5ede1e445c4bda03a80555e6,,1,0,80,37,1,79
,,,,,,,,,,,,,,,,,,,,,,,,,,,,,,,,,,,i,1.917999983,JI,FALSE,,,,,,,142,girafa,Catalan,Sounds/cat_girafa.mp3,2020-06-08_20h10.22.080,TranslationElicitation_spa,3.2.4,Win32,60,5ede1e445c4bda03a80555e6,,1,0,80,37,1,79
,,,,,,,,,,,,,,,,,,,,,,,,,,,,,,,,,,,a,2.302999973,JIA,FALSE,,,,,,,142,girafa,Catalan,Sounds/cat_girafa.mp3,2020-06-08_20h10.22.080,TranslationElicitation_spa,3.2.4,Win32,60,5ede1e445c4bda03a80555e6,,1,0,80,37,1,79
,,,,,,,,,,,,,,,,,,,,,,,,,,,,,,,,,,,backspace,3.020999908,J,TRUE,,,,,,,142,girafa,Catalan,Sounds/cat_girafa.mp3,2020-06-08_20h10.22.080,TranslationElicitation_spa,3.2.4,Win32,60,5ede1e445c4bda03a80555e6,,1,0,80,37,1,79
,,,,,,,,,,,,,,,,,,,,,,,,,,,,,,,,,,,r,3.555999994,JR,TRUE,,,,,,,142,girafa,Catalan,Sounds/cat_girafa.mp3,2020-06-08_20h10.22.080,TranslationElicitation_spa,3.2.4,Win32,60,5ede1e445c4bda03a80555e6,,1,0,80,37,1,79
,,,,,,,,,,,,,,,,,,,,,,,,,,,,,,,,,,,a,3.72300005,JRA,TRUE,,,,,,,142,girafa,Catalan,Sounds/cat_girafa.mp3,2020-06-08_20h10.22.080,TranslationElicitation_spa,3.2.4,Win32,60,5ede1e445c4bda03a80555e6,,1,0,80,37,1,79
,,,,,,,,,,,,,,,,,,,,,,,,,,,,,,,,,,,f,4.407999992,JRAF,TRUE,,,,,,,142,girafa,Catalan,Sounds/cat_girafa.mp3,2020-06-08_20h10.22.080,TranslationElicitation_spa,3.2.4,Win32,60,5ede1e445c4bda03a80555e6,,1,0,80,37,1,79
,,,,,,,,,,,,,,,,,,,,,,,,,,,,,,,,,,,a,4.558000088,JRAFA,TRUE,,,,,,,142,girafa,Catalan,Sounds/cat_girafa.mp3,2020-06-08_20h10.22.080,TranslationElicitation_spa,3.2.4,Win32,60,5ede1e445c4bda03a80555e6,,1,0,80,37,1,79
,,,,,,,,,,,,,,,,,,,,,,,,,,,,,,,,,,,backspace,5.177000046,JRA,TRUE,,,,,,,142,girafa,Catalan,Sounds/cat_girafa.mp3,2020-06-08_20h10.22.080,TranslationElicitation_spa,3.2.4,Win32,60,5ede1e445c4bda03a80555e6,,1,0,80,37,1,79
,,,,,,,,,,,,,,,,,,,,,,,,,,,,,,,,,,,backspace,5.326999903,J,TRUE,,,,,,,142,girafa,Catalan,Sounds/cat_girafa.mp3,2020-06-08_20h10.22.080,TranslationElicitation_spa,3.2.4,Win32,60,5ede1e445c4bda03a80555e6,,1,0,80,37,1,79
,,,,,,,,,,,,,,,,,,,,,,,,,,,,,,,,,,,backspace,5.595000029,,TRUE,,,,,,,142,girafa,Catalan,Sounds/cat_girafa.mp3,2020-06-08_20h10.22.080,TranslationElicitation_spa,3.2.4,Win32,60,5ede1e445c4bda03a80555e6,,1,0,80,37,1,79
,,,,,,,,,,,,,,,,,,,,,,,,,,,,,,,,,,,j,6.329999924,J,TRUE,,,,,,,142,girafa,Catalan,Sounds/cat_girafa.mp3,2020-06-08_20h10.22.080,TranslationElicitation_spa,3.2.4,Win32,60,5ede1e445c4bda03a80555e6,,1,0,80,37,1,79
,,,,,,,,,,,,,,,,,,,,,,,,,,,,,,,,,,,i,6.563999891,JI,TRUE,,,,,,,142,girafa,Catalan,Sounds/cat_girafa.mp3,2020-06-08_20h10.22.080,TranslationElicitation_spa,3.2.4,Win32,60,5ede1e445c4bda03a80555e6,,1,0,80,37,1,79
,,,,,,,,,,,,,,,,,,,,,,,,,,,,,,,,,,,r,6.914999962,JIR,TRUE,,,,,,,142,girafa,Catalan,Sounds/cat_girafa.mp3,2020-06-08_20h10.22.080,TranslationElicitation_spa,3.2.4,Win32,60,5ede1e445c4bda03a80555e6,,1,0,80,37,1,79
,,,,,,,,,,,,,,,,,,,,,,,,,,,,,,,,,,,a,7.082000017,JIRA,TRUE,,,,,,,142,girafa,Catalan,Sounds/cat_girafa.mp3,2020-06-08_20h10.22.080,TranslationElicitation_spa,3.2.4,Win32,60,5ede1e445c4bda03a80555e6,,1,0,80,37,1,79
,,,,,,,,,,,,,,,,,,,,,,,,,,,,,,,,,,,f,7.365999937,JIRAF,TRUE,,,,,,,142,girafa,Catalan,Sounds/cat_girafa.mp3,2020-06-08_20h10.22.080,TranslationElicitation_spa,3.2.4,Win32,60,5ede1e445c4bda03a80555e6,,1,0,80,37,1,79
,,,,,,,,,,,,,,,,,,,,,,,,,,,,,,,,,,,a,7.5,JIRAFA,TRUE,,,,,,,142,girafa,Catalan,Sounds/cat_girafa.mp3,2020-06-08_20h10.22.080,TranslationElicitation_spa,3.2.4,Win32,60,5ede1e445c4bda03a80555e6,,1,0,80,37,1,79
,,,,,,,,,,,,,,,,,,,,,,,,,,,,,,,,,,,return,9.287999868,,TRUE,,,,,,,142,girafa,Catalan,Sounds/cat_girafa.mp3,2020-06-08_20h10.22.080,TranslationElicitation_spa,3.2.4,Win32,60,5ede1e445c4bda03a80555e6,9.287999868,1,0,80,37,1,79
,,,,,,,,,,,,,,,,,,,,,,,,,,,,,,,,,,,,,,,,,,,,,142,girafa,Catalan,Sounds/cat_girafa.mp3,2020-06-08_20h10.22.080,TranslationElicitation_spa,3.2.4,Win32,60,5ede1e445c4bda03a80555e6,,1,0,80,37,1,79
,,,,,,,,,,,,,,,,,,,,,,,,,,,,,,,,,,,c,4.407999992,C,FALSE,,,,,,,119,caixa,Catalan,Sounds/cat_caixa.mp3,2020-06-08_20h10.22.080,TranslationElicitation_spa,3.2.4,Win32,60,5ede1e445c4bda03a80555e6,,1,0,80,14,1,79
,,,,,,,,,,,,,,,,,,,,,,,,,,,,,,,,,,,a,5.19299984,CA,FALSE,,,,,,,119,caixa,Catalan,Sounds/cat_caixa.mp3,2020-06-08_20h10.22.080,TranslationElicitation_spa,3.2.4,Win32,60,5ede1e445c4bda03a80555e6,,1,0,80,14,1,79
,,,,,,,,,,,,,,,,,,,,,,,,,,,,,,,,,,,j,8.03399992,CAJ,FALSE,,,,,,,119,caixa,Catalan,Sounds/cat_caixa.mp3,2020-06-08_20h10.22.080,TranslationElicitation_spa,3.2.4,Win32,60,5ede1e445c4bda03a80555e6,,1,0,80,14,1,79
,,,,,,,,,,,,,,,,,,,,,,,,,,,,,,,,,,,a,8.117999792,CAJA,FALSE,,,,,,,119,caixa,Catalan,Sounds/cat_caixa.mp3,2020-06-08_20h10.22.080,TranslationElicitation_spa,3.2.4,Win32,60,5ede1e445c4bda03a80555e6,,1,0,80,14,1,79
,,,,,,,,,,,,,,,,,,,,,,,,,,,,,,,,,,,return,9.355000019,,FALSE,,,,,,,119,caixa,Catalan,Sounds/cat_caixa.mp3,2020-06-08_20h10.22.080,TranslationElicitation_spa,3.2.4,Win32,60,5ede1e445c4bda03a80555e6,9.355000019,1,0,80,14,1,79
,,,,,,,,,,,,,,,,,,,,,,,,,,,,,,,,,,,,,,,,,,,,,119,caixa,Catalan,Sounds/cat_caixa.mp3,2020-06-08_20h10.22.080,TranslationElicitation_spa,3.2.4,Win32,60,5ede1e445c4bda03a80555e6,,1,0,80,14,1,79
,,,,,,,,,,,,,,,,,,,,,,,,,,,,,,,,,,,p,5.963000059,P,FALSE,,,,,,,160,orella,Catalan,Sounds/cat_orella.mp3,2020-06-08_20h10.22.080,TranslationElicitation_spa,3.2.4,Win32,60,5ede1e445c4bda03a80555e6,,1,0,80,53,1,79
,,,,,,,,,,,,,,,,,,,,,,,,,,,,,,,,,,,u,6.296000004,PU,FALSE,,,,,,,160,orella,Catalan,Sounds/cat_orella.mp3,2020-06-08_20h10.22.080,TranslationElicitation_spa,3.2.4,Win32,60,5ede1e445c4bda03a80555e6,,1,0,80,53,1,79
,,,,,,,,,,,,,,,,,,,,,,,,,,,,,,,,,,,r,6.815000057,PUR,FALSE,,,,,,,160,orella,Catalan,Sounds/cat_orella.mp3,2020-06-08_20h10.22.080,TranslationElicitation_spa,3.2.4,Win32,60,5ede1e445c4bda03a80555e6,,1,0,80,53,1,79
,,,,,,,,,,,,,,,,,,,,,,,,,,,,,,,,,,,apostrophe,7.18200016,PUR,FALSE,,,,,,,160,orella,Catalan,Sounds/cat_orella.mp3,2020-06-08_20h10.22.080,TranslationElicitation_spa,3.2.4,Win32,60,5ede1e445c4bda03a80555e6,,1,0,80,53,1,79
,,,,,,,,,,,,,,,,,,,,,,,,,,,,,,,,,,,e,7.282999992,PURÉ,FALSE,,,,,,,160,orella,Catalan,Sounds/cat_orella.mp3,2020-06-08_20h10.22.080,TranslationElicitation_spa,3.2.4,Win32,60,5ede1e445c4bda03a80555e6,,1,0,80,53,1,79
,,,,,,,,,,,,,,,,,,,,,,,,,,,,,,,,,,,return,8.319000006,,FALSE,,,,,,,160,orella,Catalan,Sounds/cat_orella.mp3,2020-06-08_20h10.22.080,TranslationElicitation_spa,3.2.4,Win32,60,5ede1e445c4bda03a80555e6,8.319000006,1,0,80,53,1,79
,,,,,,,,,,,,,,,,,,,,,,,,,,,,,,,,,,,,,,,,,,,,,160,orella,Catalan,Sounds/cat_orella.mp3,2020-06-08_20h10.22.080,TranslationElicitation_spa,3.2.4,Win32,60,5ede1e445c4bda03a80555e6,,1,0,80,53,1,79
,,,,,,,,,,,,,,,,,,,,,,,,,,,,,,,,,,,e,7.178999901,E,FALSE,,,,,,,133,estruc,Catalan,Sounds/cat_estruc.mp3,2020-06-08_20h10.22.080,TranslationElicitation_spa,3.2.4,Win32,60,5ede1e445c4bda03a80555e6,,1,0,80,28,1,79
,,,,,,,,,,,,,,,,,,,,,,,,,,,,,,,,,,,s,7.430000067,ES,FALSE,,,,,,,133,estruc,Catalan,Sounds/cat_estruc.mp3,2020-06-08_20h10.22.080,TranslationElicitation_spa,3.2.4,Win32,60,5ede1e445c4bda03a80555e6,,1,0,80,28,1,79
,,,,,,,,,,,,,,,,,,,,,,,,,,,,,,,,,,,t,7.59800005,EST,FALSE,,,,,,,133,estruc,Catalan,Sounds/cat_estruc.mp3,2020-06-08_20h10.22.080,TranslationElicitation_spa,3.2.4,Win32,60,5ede1e445c4bda03a80555e6,,1,0,80,28,1,79
,,,,,,,,,,,,,,,,,,,,,,,,,,,,,,,,,,,r,7.798000097,ESTR,FALSE,,,,,,,133,estruc,Catalan,Sounds/cat_estruc.mp3,2020-06-08_20h10.22.080,TranslationElicitation_spa,3.2.4,Win32,60,5ede1e445c4bda03a80555e6,,1,0,80,28,1,79
,,,,,,,,,,,,,,,,,,,,,,,,,,,,,,,,,,,e,8.967999935,ESTRE,FALSE,,,,,,,133,estruc,Catalan,Sounds/cat_estruc.mp3,2020-06-08_20h10.22.080,TranslationElicitation_spa,3.2.4,Win32,60,5ede1e445c4bda03a80555e6,,1,0,80,28,1,79
,,,,,,,,,,,,,,,,,,,,,,,,,,,,,,,,,,,l,11.79200006,ESTREL,FALSE,,,,,,,133,estruc,Catalan,Sounds/cat_estruc.mp3,2020-06-08_20h10.22.080,TranslationElicitation_spa,3.2.4,Win32,60,5ede1e445c4bda03a80555e6,,1,0,80,28,1,79
,,,,,,,,,,,,,,,,,,,,,,,,,,,,,,,,,,,l,11.92600012,ESTRELL,FALSE,,,,,,,133,estruc,Catalan,Sounds/cat_estruc.mp3,2020-06-08_20h10.22.080,TranslationElicitation_spa,3.2.4,Win32,60,5ede1e445c4bda03a80555e6,,1,0,80,28,1,79
,,,,,,,,,,,,,,,,,,,,,,,,,,,,,,,,,,,a,12.04299998,ESTRELLA,FALSE,,,,,,,133,estruc,Catalan,Sounds/cat_estruc.mp3,2020-06-08_20h10.22.080,TranslationElicitation_spa,3.2.4,Win32,60,5ede1e445c4bda03a80555e6,,1,0,80,28,1,79
,,,,,,,,,,,,,,,,,,,,,,,,,,,,,,,,,,,return,13.4289999,,FALSE,,,,,,,133,estruc,Catalan,Sounds/cat_estruc.mp3,2020-06-08_20h10.22.080,TranslationElicitation_spa,3.2.4,Win32,60,5ede1e445c4bda03a80555e6,13.4289999,1,0,80,28,1,79
,,,,,,,,,,,,,,,,,,,,,,,,,,,,,,,,,,,,,,,,,,,,,133,estruc,Catalan,Sounds/cat_estruc.mp3,2020-06-08_20h10.22.080,TranslationElicitation_spa,3.2.4,Win32,60,5ede1e445c4bda03a80555e6,,1,0,80,28,1,79
,,,,,,,,,,,,,,,,,,,,,,,,,,,,,,,,,,,r,6.212999821,R,FALSE,,,,,,,175,raspall,Catalan,Sounds/cat_raspall.mp3,2020-06-08_20h10.22.080,TranslationElicitation_spa,3.2.4,Win32,60,5ede1e445c4bda03a80555e6,,1,0,80,67,1,79
,,,,,,,,,,,,,,,,,,,,,,,,,,,,,,,,,,,a,12.01199985,RA,FALSE,,,,,,,175,raspall,Catalan,Sounds/cat_raspall.mp3,2020-06-08_20h10.22.080,TranslationElicitation_spa,3.2.4,Win32,60,5ede1e445c4bda03a80555e6,,1,0,80,67,1,79
,,,,,,,,,,,,,,,,,,,,,,,,,,,,,,,,,,,r,12.329,RAR,FALSE,,,,,,,175,raspall,Catalan,Sounds/cat_raspall.mp3,2020-06-08_20h10.22.080,TranslationElicitation_spa,3.2.4,Win32,60,5ede1e445c4bda03a80555e6,,1,0,80,67,1,79
,,,,,,,,,,,,,,,,,,,,,,,,,,,,,,,,,,,c,12.71399999,RARC,FALSE,,,,,,,175,raspall,Catalan,Sounds/cat_raspall.mp3,2020-06-08_20h10.22.080,TranslationElicitation_spa,3.2.4,Win32,60,5ede1e445c4bda03a80555e6,,1,0,80,67,1,79
,,,,,,,,,,,,,,,,,,,,,,,,,,,,,,,,,,,a,12.81499982,RARCA,FALSE,,,,,,,175,raspall,Catalan,Sounds/cat_raspall.mp3,2020-06-08_20h10.22.080,TranslationElicitation_spa,3.2.4,Win32,60,5ede1e445c4bda03a80555e6,,1,0,80,67,1,79
,,,,,,,,,,,,,,,,,,,,,,,,,,,,,,,,,,,backspace,13.83399987,RAR,TRUE,,,,,,,175,raspall,Catalan,Sounds/cat_raspall.mp3,2020-06-08_20h10.22.080,TranslationElicitation_spa,3.2.4,Win32,60,5ede1e445c4bda03a80555e6,,1,0,80,67,1,79
,,,,,,,,,,,,,,,,,,,,,,,,,,,,,,,,,,,backspace,14.00099993,R,TRUE,,,,,,,175,raspall,Catalan,Sounds/cat_raspall.mp3,2020-06-08_20h10.22.080,TranslationElicitation_spa,3.2.4,Win32,60,5ede1e445c4bda03a80555e6,,1,0,80,67,1,79
,,,,,,,,,,,,,,,,,,,,,,,,,,,,,,,,,,,a,14.81999993,RA,TRUE,,,,,,,175,raspall,Catalan,Sounds/cat_raspall.mp3,2020-06-08_20h10.22.080,TranslationElicitation_spa,3.2.4,Win32,60,5ede1e445c4bda03a80555e6,,1,0,80,67,1,79
,,,,,,,,,,,,,,,,,,,,,,,,,,,,,,,,,,,r,15.1869998,RAR,TRUE,,,,,,,175,raspall,Catalan,Sounds/cat_raspall.mp3,2020-06-08_20h10.22.080,TranslationElicitation_spa,3.2.4,Win32,60,5ede1e445c4bda03a80555e6,,1,0,80,67,1,79
,,,,,,,,,,,,,,,,,,,,,,,,,,,,,,,,,,,backspace,16.89299989,R,TRUE,,,,,,,175,raspall,Catalan,Sounds/cat_raspall.mp3,2020-06-08_20h10.22.080,TranslationElicitation_spa,3.2.4,Win32,60,5ede1e445c4bda03a80555e6,,1,0,80,67,1,79
,,,,,,,,,,,,,,,,,,,,,,,,,,,,,,,,,,,s,17.05900002,RS,TRUE,,,,,,,175,raspall,Catalan,Sounds/cat_raspall.mp3,2020-06-08_20h10.22.080,TranslationElicitation_spa,3.2.4,Win32,60,5ede1e445c4bda03a80555e6,,1,0,80,67,1,79
,,,,,,,,,,,,,,,,,,,,,,,,,,,,,,,,,,,backspace,17.94499993,,TRUE,,,,,,,175,raspall,Catalan,Sounds/cat_raspall.mp3,2020-06-08_20h10.22.080,TranslationElicitation_spa,3.2.4,Win32,60,5ede1e445c4bda03a80555e6,,1,0,80,67,1,79
,,,,,,,,,,,,,,,,,,,,,,,,,,,,,,,,,,,a,18.26300001,A,TRUE,,,,,,,175,raspall,Catalan,Sounds/cat_raspall.mp3,2020-06-08_20h10.22.080,TranslationElicitation_spa,3.2.4,Win32,60,5ede1e445c4bda03a80555e6,,1,0,80,67,1,79
,,,,,,,,,,,,,,,,,,,,,,,,,,,,,,,,,,,backspace,18.7809999,,TRUE,,,,,,,175,raspall,Catalan,Sounds/cat_raspall.mp3,2020-06-08_20h10.22.080,TranslationElicitation_spa,3.2.4,Win32,60,5ede1e445c4bda03a80555e6,,1,0,80,67,1,79
,,,,,,,,,,,,,,,,,,,,,,,,,,,,,,,,,,,r,19.04799986,R,TRUE,,,,,,,175,raspall,Catalan,Sounds/cat_raspall.mp3,2020-06-08_20h10.22.080,TranslationElicitation_spa,3.2.4,Win32,60,5ede1e445c4bda03a80555e6,,1,0,80,67,1,79
,,,,,,,,,,,,,,,,,,,,,,,,,,,,,,,,,,,a,19.88399982,RA,TRUE,,,,,,,175,raspall,Catalan,Sounds/cat_raspall.mp3,2020-06-08_20h10.22.080,TranslationElicitation_spa,3.2.4,Win32,60,5ede1e445c4bda03a80555e6,,1,0,80,67,1,79
,,,,,,,,,,,,,,,,,,,,,,,,,,,,,,,,,,,s,20.15100002,RAS,TRUE,,,,,,,175,raspall,Catalan,Sounds/cat_raspall.mp3,2020-06-08_20h10.22.080,TranslationElicitation_spa,3.2.4,Win32,60,5ede1e445c4bda03a80555e6,,1,0,80,67,1,79
,,,,,,,,,,,,,,,,,,,,,,,,,,,,,,,,,,,c,20.50199986,RASC,TRUE,,,,,,,175,raspall,Catalan,Sounds/cat_raspall.mp3,2020-06-08_20h10.22.080,TranslationElicitation_spa,3.2.4,Win32,60,5ede1e445c4bda03a80555e6,,1,0,80,67,1,79
,,,,,,,,,,,,,,,,,,,,,,,,,,,,,,,,,,,a,20.78600001,RASCA,TRUE,,,,,,,175,raspall,Catalan,Sounds/cat_raspall.mp3,2020-06-08_20h10.22.080,TranslationElicitation_spa,3.2.4,Win32,60,5ede1e445c4bda03a80555e6,,1,0,80,67,1,79
,,,,,,,,,,,,,,,,,,,,,,,,,,,,,,,,,,,r,21.07099986,RASCAR,TRUE,,,,,,,175,raspall,Catalan,Sounds/cat_raspall.mp3,2020-06-08_20h10.22.080,TranslationElicitation_spa,3.2.4,Win32,60,5ede1e445c4bda03a80555e6,,1,0,80,67,1,79
,,,,,,,,,,,,,,,,,,,,,,,,,,,,,,,,,,,return,21.97299981,,TRUE,,,,,,,175,raspall,Catalan,Sounds/cat_raspall.mp3,2020-06-08_20h10.22.080,TranslationElicitation_spa,3.2.4,Win32,60,5ede1e445c4bda03a80555e6,21.97299981,1,0,80,67,1,79
,,,,,,,,,,,,,,,,,,,,,,,,,,,,,,,,,,,,,,,,,,,,,175,raspall,Catalan,Sounds/cat_raspall.mp3,2020-06-08_20h10.22.080,TranslationElicitation_spa,3.2.4,Win32,60,5ede1e445c4bda03a80555e6,,1,0,80,67,1,79
,,,,,,,,,,,,,,,,,,,,,,,,,,,,,,,,,,,m,5.511000156,M,FALSE,,,,,,,107,amanida,Catalan,Sounds/cat_amanida.mp3,2020-06-08_20h10.22.080,TranslationElicitation_spa,3.2.4,Win32,60,5ede1e445c4bda03a80555e6,,1,0,80,3,1,79
,,,,,,,,,,,,,,,,,,,,,,,,,,,,,,,,,,,a,5.628000021,MA,FALSE,,,,,,,107,amanida,Catalan,Sounds/cat_amanida.mp3,2020-06-08_20h10.22.080,TranslationElicitation_spa,3.2.4,Win32,60,5ede1e445c4bda03a80555e6,,1,0,80,3,1,79
,,,,,,,,,,,,,,,,,,,,,,,,,,,,,,,,,,,r,5.929000139,MAR,FALSE,,,,,,,107,amanida,Catalan,Sounds/cat_amanida.mp3,2020-06-08_20h10.22.080,TranslationElicitation_spa,3.2.4,Win32,60,5ede1e445c4bda03a80555e6,,1,0,80,3,1,79
,,,,,,,,,,,,,,,,,,,,,,,,,,,,,,,,,,,i,6.080000162,MARI,FALSE,,,,,,,107,amanida,Catalan,Sounds/cat_amanida.mp3,2020-06-08_20h10.22.080,TranslationElicitation_spa,3.2.4,Win32,60,5ede1e445c4bda03a80555e6,,1,0,80,3,1,79
,,,,,,,,,,,,,,,,,,,,,,,,,,,,,,,,,,,p,6.798000097,MARIP,FALSE,,,,,,,107,amanida,Catalan,Sounds/cat_amanida.mp3,2020-06-08_20h10.22.080,TranslationElicitation_spa,3.2.4,Win32,60,5ede1e445c4bda03a80555e6,,1,0,80,3,1,79
,,,,,,,,,,,,,,,,,,,,,,,,,,,,,,,,,,,o,7.016000032,MARIPO,FALSE,,,,,,,107,amanida,Catalan,Sounds/cat_amanida.mp3,2020-06-08_20h10.22.080,TranslationElicitation_spa,3.2.4,Win32,60,5ede1e445c4bda03a80555e6,,1,0,80,3,1,79
,,,,,,,,,,,,,,,,,,,,,,,,,,,,,,,,,,,s,7.23300004,MARIPOS,FALSE,,,,,,,107,amanida,Catalan,Sounds/cat_amanida.mp3,2020-06-08_20h10.22.080,TranslationElicitation_spa,3.2.4,Win32,60,5ede1e445c4bda03a80555e6,,1,0,80,3,1,79
,,,,,,,,,,,,,,,,,,,,,,,,,,,,,,,,,,,a,7.450000048,MARIPOSA,FALSE,,,,,,,107,amanida,Catalan,Sounds/cat_amanida.mp3,2020-06-08_20h10.22.080,TranslationElicitation_spa,3.2.4,Win32,60,5ede1e445c4bda03a80555e6,,1,0,80,3,1,79
,,,,,,,,,,,,,,,,,,,,,,,,,,,,,,,,,,,backspace,10.7420001,MARIPO,TRUE,,,,,,,107,amanida,Catalan,Sounds/cat_amanida.mp3,2020-06-08_20h10.22.080,TranslationElicitation_spa,3.2.4,Win32,60,5ede1e445c4bda03a80555e6,,1,0,80,3,1,79
,,,,,,,,,,,,,,,,,,,,,,,,,,,,,,,,,,,backspace,11.25999999,MARI,TRUE,,,,,,,107,amanida,Catalan,Sounds/cat_amanida.mp3,2020-06-08_20h10.22.080,TranslationElicitation_spa,3.2.4,Win32,60,5ede1e445c4bda03a80555e6,,1,0,80,3,1,79
,,,,,,,,,,,,,,,,,,,,,,,,,,,,,,,,,,,backspace,11.29400015,MA,TRUE,,,,,,,107,amanida,Catalan,Sounds/cat_amanida.mp3,2020-06-08_20h10.22.080,TranslationElicitation_spa,3.2.4,Win32,60,5ede1e445c4bda03a80555e6,,1,0,80,3,1,79
,,,,,,,,,,,,,,,,,,,,,,,,,,,,,,,,,,,backspace,11.32700014,,TRUE,,,,,,,107,amanida,Catalan,Sounds/cat_amanida.mp3,2020-06-08_20h10.22.080,TranslationElicitation_spa,3.2.4,Win32,60,5ede1e445c4bda03a80555e6,,1,0,80,3,1,79
,,,,,,,,,,,,,,,,,,,,,,,,,,,,,,,,,,,backspace,11.36000013,,TRUE,,,,,,,107,amanida,Catalan,Sounds/cat_amanida.mp3,2020-06-08_20h10.22.080,TranslationElicitation_spa,3.2.4,Win32,60,5ede1e445c4bda03a80555e6,,1,0,80,3,1,79
,,,,,,,,,,,,,,,,,,,,,,,,,,,,,,,,,,,backspace,11.39400005,,TRUE,,,,,,,107,amanida,Catalan,Sounds/cat_amanida.mp3,2020-06-08_20h10.22.080,TranslationElicitation_spa,3.2.4,Win32,60,5ede1e445c4bda03a80555e6,,1,0,80,3,1,79
,,,,,,,,,,,,,,,,,,,,,,,,,,,,,,,,,,,backspace,11.42799997,,TRUE,,,,,,,107,amanida,Catalan,Sounds/cat_amanida.mp3,2020-06-08_20h10.22.080,TranslationElicitation_spa,3.2.4,Win32,60,5ede1e445c4bda03a80555e6,,1,0,80,3,1,79
,,,,,,,,,,,,,,,,,,,,,,,,,,,,,,,,,,,backspace,11.44500017,,TRUE,,,,,,,107,amanida,Catalan,Sounds/cat_amanida.mp3,2020-06-08_20h10.22.080,TranslationElicitation_spa,3.2.4,Win32,60,5ede1e445c4bda03a80555e6,,1,0,80,3,1,79
,,,,,,,,,,,,,,,,,,,,,,,,,,,,,,,,,,,b,12.78100014,B,TRUE,,,,,,,107,amanida,Catalan,Sounds/cat_amanida.mp3,2020-06-08_20h10.22.080,TranslationElicitation_spa,3.2.4,Win32,60,5ede1e445c4bda03a80555e6,,1,0,80,3,1,79
,,,,,,,,,,,,,,,,,,,,,,,,,,,,,,,,,,,o,13.09899998,BO,TRUE,,,,,,,107,amanida,Catalan,Sounds/cat_amanida.mp3,2020-06-08_20h10.22.080,TranslationElicitation_spa,3.2.4,Win32,60,5ede1e445c4bda03a80555e6,,1,0,80,3,1,79
,,,,,,,,,,,,,,,,,,,,,,,,,,,,,,,,,,,n,13.43300009,BON,TRUE,,,,,,,107,amanida,Catalan,Sounds/cat_amanida.mp3,2020-06-08_20h10.22.080,TranslationElicitation_spa,3.2.4,Win32,60,5ede1e445c4bda03a80555e6,,1,0,80,3,1,79
,,,,,,,,,,,,,,,,,,,,,,,,,,,,,,,,,,,i,13.76699996,BONI,TRUE,,,,,,,107,amanida,Catalan,Sounds/cat_amanida.mp3,2020-06-08_20h10.22.080,TranslationElicitation_spa,3.2.4,Win32,60,5ede1e445c4bda03a80555e6,,1,0,80,3,1,79
,,,,,,,,,,,,,,,,,,,,,,,,,,,,,,,,,,,t,14.36899996,BONIT,TRUE,,,,,,,107,amanida,Catalan,Sounds/cat_amanida.mp3,2020-06-08_20h10.22.080,TranslationElicitation_spa,3.2.4,Win32,60,5ede1e445c4bda03a80555e6,,1,0,80,3,1,79
,,,,,,,,,,,,,,,,,,,,,,,,,,,,,,,,,,,a,14.48600006,BONITA,TRUE,,,,,,,107,amanida,Catalan,Sounds/cat_amanida.mp3,2020-06-08_20h10.22.080,TranslationElicitation_spa,3.2.4,Win32,60,5ede1e445c4bda03a80555e6,,1,0,80,3,1,79
,,,,,,,,,,,,,,,,,,,,,,,,,,,,,,,,,,,return,15.05400014,,TRUE,,,,,,,107,amanida,Catalan,Sounds/cat_amanida.mp3,2020-06-08_20h10.22.080,TranslationElicitation_spa,3.2.4,Win32,60,5ede1e445c4bda03a80555e6,15.05299997,1,0,80,3,1,79
,,,,,,,,,,,,,,,,,,,,,,,,,,,,,,,,,,,,,,,,,,,,,107,amanida,Catalan,Sounds/cat_amanida.mp3,2020-06-08_20h10.22.080,TranslationElicitation_spa,3.2.4,Win32,60,5ede1e445c4bda03a80555e6,,1,0,80,3,1,79
,,,,,,,,,,,,,,,,,,,,,,,,,,,,,,,,,,,g,1.919000149,G,FALSE,,,,,,,146,guitarra,Catalan,Sounds/cat_guitarra.mp3,2020-06-08_20h10.22.080,TranslationElicitation_spa,3.2.4,Win32,60,5ede1e445c4bda03a80555e6,,1,0,80,41,1,79
,,,,,,,,,,,,,,,,,,,,,,,,,,,,,,,,,,,u,2.069000006,GU,FALSE,,,,,,,146,guitarra,Catalan,Sounds/cat_guitarra.mp3,2020-06-08_20h10.22.080,TranslationElicitation_spa,3.2.4,Win32,60,5ede1e445c4bda03a80555e6,,1,0,80,41,1,79
,,,,,,,,,,,,,,,,,,,,,,,,,,,,,,,,,,,i,2.237000227,GUI,FALSE,,,,,,,146,guitarra,Catalan,Sounds/cat_guitarra.mp3,2020-06-08_20h10.22.080,TranslationElicitation_spa,3.2.4,Win32,60,5ede1e445c4bda03a80555e6,,1,0,80,41,1,79
,,,,,,,,,,,,,,,,,,,,,,,,,,,,,,,,,,,t,2.370000124,GUIT,FALSE,,,,,,,146,guitarra,Catalan,Sounds/cat_guitarra.mp3,2020-06-08_20h10.22.080,TranslationElicitation_spa,3.2.4,Win32,60,5ede1e445c4bda03a80555e6,,1,0,80,41,1,79
,,,,,,,,,,,,,,,,,,,,,,,,,,,,,,,,,,,a,2.721000195,GUITA,FALSE,,,,,,,146,guitarra,Catalan,Sounds/cat_guitarra.mp3,2020-06-08_20h10.22.080,TranslationElicitation_spa,3.2.4,Win32,60,5ede1e445c4bda03a80555e6,,1,0,80,41,1,79
,,,,,,,,,,,,,,,,,,,,,,,,,,,,,,,,,,,r,3.22300005,GUITAR,FALSE,,,,,,,146,guitarra,Catalan,Sounds/cat_guitarra.mp3,2020-06-08_20h10.22.080,TranslationElicitation_spa,3.2.4,Win32,60,5ede1e445c4bda03a80555e6,,1,0,80,41,1,79
,,,,,,,,,,,,,,,,,,,,,,,,,,,,,,,,,,,r,3.323000193,GUITARR,FALSE,,,,,,,146,guitarra,Catalan,Sounds/cat_guitarra.mp3,2020-06-08_20h10.22.080,TranslationElicitation_spa,3.2.4,Win32,60,5ede1e445c4bda03a80555e6,,1,0,80,41,1,79
,,,,,,,,,,,,,,,,,,,,,,,,,,,,,,,,,,,a,3.640000105,GUITARRA,FALSE,,,,,,,146,guitarra,Catalan,Sounds/cat_guitarra.mp3,2020-06-08_20h10.22.080,TranslationElicitation_spa,3.2.4,Win32,60,5ede1e445c4bda03a80555e6,,1,0,80,41,1,79
,,,,,,,,,,,,,,,,,,,,,,,,,,,,,,,,,,,return,4.659000158,,FALSE,,,,,,,146,guitarra,Catalan,Sounds/cat_guitarra.mp3,2020-06-08_20h10.22.080,TranslationElicitation_spa,3.2.4,Win32,60,5ede1e445c4bda03a80555e6,4.659000158,1,0,80,41,1,79
,,,,,,,,,,,,,,,,,,,,,,,,,,,,,,,,,,,,,,,,,,,,,146,guitarra,Catalan,Sounds/cat_guitarra.mp3,2020-06-08_20h10.22.080,TranslationElicitation_spa,3.2.4,Win32,60,5ede1e445c4bda03a80555e6,,1,0,80,41,1,79
,,,,,,,,,,,,,,,,,,,,,,,,,,,,,,,,,,,m,4.960000038,M,FALSE,,,,,,,153,mico,Catalan,Sounds/cat_mico.mp3,2020-06-08_20h10.22.080,TranslationElicitation_spa,3.2.4,Win32,60,5ede1e445c4bda03a80555e6,,1,0,80,47,1,79
,,,,,,,,,,,,,,,,,,,,,,,,,,,,,,,,,,,i,5.326999903,MI,FALSE,,,,,,,153,mico,Catalan,Sounds/cat_mico.mp3,2020-06-08_20h10.22.080,TranslationElicitation_spa,3.2.4,Win32,60,5ede1e445c4bda03a80555e6,,1,0,80,47,1,79
,,,,,,,,,,,,,,,,,,,,,,,,,,,,,,,,,,,o,5.56099987,MIO,FALSE,,,,,,,153,mico,Catalan,Sounds/cat_mico.mp3,2020-06-08_20h10.22.080,TranslationElicitation_spa,3.2.4,Win32,60,5ede1e445c4bda03a80555e6,,1,0,80,47,1,79
,,,,,,,,,,,,,,,,,,,,,,,,,,,,,,,,,,,return,6.480000019,,FALSE,,,,,,,153,mico,Catalan,Sounds/cat_mico.mp3,2020-06-08_20h10.22.080,TranslationElicitation_spa,3.2.4,Win32,60,5ede1e445c4bda03a80555e6,6.480000019,1,0,80,47,1,79
,,,,,,,,,,,,,,,,,,,,,,,,,,,,,,,,,,,,,,,,,,,,,153,mico,Catalan,Sounds/cat_mico.mp3,2020-06-08_20h10.22.080,TranslationElicitation_spa,3.2.4,Win32,60,5ede1e445c4bda03a80555e6,,1,0,80,47,1,79
,,,,,,,,,,,,,,,,,,,,,,,,,,,,,,,,,,,c,2.051000118,C,FALSE,,,,,,,127,cotxe,Catalan,Sounds/cat_cotxe.mp3,2020-06-08_20h10.22.080,TranslationElicitation_spa,3.2.4,Win32,60,5ede1e445c4bda03a80555e6,,1,0,80,22,1,79
,,,,,,,,,,,,,,,,,,,,,,,,,,,,,,,,,,,o,2.769999981,CO,FALSE,,,,,,,127,cotxe,Catalan,Sounds/cat_cotxe.mp3,2020-06-08_20h10.22.080,TranslationElicitation_spa,3.2.4,Win32,60,5ede1e445c4bda03a80555e6,,1,0,80,22,1,79
,,,,,,,,,,,,,,,,,,,,,,,,,,,,,,,,,,,c,2.986999989,COC,FALSE,,,,,,,127,cotxe,Catalan,Sounds/cat_cotxe.mp3,2020-06-08_20h10.22.080,TranslationElicitation_spa,3.2.4,Win32,60,5ede1e445c4bda03a80555e6,,1,0,80,22,1,79
,,,,,,,,,,,,,,,,,,,,,,,,,,,,,,,,,,,h,3.154000044,COCH,FALSE,,,,,,,127,cotxe,Catalan,Sounds/cat_cotxe.mp3,2020-06-08_20h10.22.080,TranslationElicitation_spa,3.2.4,Win32,60,5ede1e445c4bda03a80555e6,,1,0,80,22,1,79
,,,,,,,,,,,,,,,,,,,,,,,,,,,,,,,,,,,e,3.404000044,COCHE,FALSE,,,,,,,127,cotxe,Catalan,Sounds/cat_cotxe.mp3,2020-06-08_20h10.22.080,TranslationElicitation_spa,3.2.4,Win32,60,5ede1e445c4bda03a80555e6,,1,0,80,22,1,79
,,,,,,,,,,,,,,,,,,,,,,,,,,,,,,,,,,,return,3.822000027,,FALSE,,,,,,,127,cotxe,Catalan,Sounds/cat_cotxe.mp3,2020-06-08_20h10.22.080,TranslationElicitation_spa,3.2.4,Win32,60,5ede1e445c4bda03a80555e6,3.822000027,1,0,80,22,1,79
,,,,,,,,,,,,,,,,,,,,,,,,,,,,,,,,,,,,,,,,,,,,,127,cotxe,Catalan,Sounds/cat_cotxe.mp3,2020-06-08_20h10.22.080,TranslationElicitation_spa,3.2.4,Win32,60,5ede1e445c4bda03a80555e6,,1,0,80,22,1,79
,,,,,,,,,,,,,,,,,,,,,,,,,,,,,,,,,,,c,1.78399992,C,FALSE,,,,,,,123,cavall,Catalan,Sounds/cat_cavall.mp3,2020-06-08_20h10.22.080,TranslationElicitation_spa,3.2.4,Win32,60,5ede1e445c4bda03a80555e6,,1,0,80,18,1,79
,,,,,,,,,,,,,,,,,,,,,,,,,,,,,,,,,,,a,1.936000109,CA,FALSE,,,,,,,123,cavall,Catalan,Sounds/cat_cavall.mp3,2020-06-08_20h10.22.080,TranslationElicitation_spa,3.2.4,Win32,60,5ede1e445c4bda03a80555e6,,1,0,80,18,1,79
,,,,,,,,,,,,,,,,,,,,,,,,,,,,,,,,,,,b,2.302999973,CAB,FALSE,,,,,,,123,cavall,Catalan,Sounds/cat_cavall.mp3,2020-06-08_20h10.22.080,TranslationElicitation_spa,3.2.4,Win32,60,5ede1e445c4bda03a80555e6,,1,0,80,18,1,79
,,,,,,,,,,,,,,,,,,,,,,,,,,,,,,,,,,,a,2.437000036,CABA,FALSE,,,,,,,123,cavall,Catalan,Sounds/cat_cavall.mp3,2020-06-08_20h10.22.080,TranslationElicitation_spa,3.2.4,Win32,60,5ede1e445c4bda03a80555e6,,1,0,80,18,1,79
,,,,,,,,,,,,,,,,,,,,,,,,,,,,,,,,,,,l,2.871000051,CABAL,FALSE,,,,,,,123,cavall,Catalan,Sounds/cat_cavall.mp3,2020-06-08_20h10.22.080,TranslationElicitation_spa,3.2.4,Win32,60,5ede1e445c4bda03a80555e6,,1,0,80,18,1,79
,,,,,,,,,,,,,,,,,,,,,,,,,,,,,,,,,,,l,3.015000105,CABALL,FALSE,,,,,,,123,cavall,Catalan,Sounds/cat_cavall.mp3,2020-06-08_20h10.22.080,TranslationElicitation_spa,3.2.4,Win32,60,5ede1e445c4bda03a80555e6,,1,0,80,18,1,79
,,,,,,,,,,,,,,,,,,,,,,,,,,,,,,,,,,,o,3.154999971,CABALLO,FALSE,,,,,,,123,cavall,Catalan,Sounds/cat_cavall.mp3,2020-06-08_20h10.22.080,TranslationElicitation_spa,3.2.4,Win32,60,5ede1e445c4bda03a80555e6,,1,0,80,18,1,79
,,,,,,,,,,,,,,,,,,,,,,,,,,,,,,,,,,,return,3.539999962,,FALSE,,,,,,,123,cavall,Catalan,Sounds/cat_cavall.mp3,2020-06-08_20h10.22.080,TranslationElicitation_spa,3.2.4,Win32,60,5ede1e445c4bda03a80555e6,3.539999962,1,0,80,18,1,79
,,,,,,,,,,,,,,,,,,,,,,,,,,,,,,,,,,,,,,,,,,,,,123,cavall,Catalan,Sounds/cat_cavall.mp3,2020-06-08_20h10.22.080,TranslationElicitation_spa,3.2.4,Win32,60,5ede1e445c4bda03a80555e6,,1,0,80,18,1,79
,,,,,,,,,,,,,,,,,,,,,,,,,,,,,,,,,,,e,1.76699996,E,FALSE,,,,,,,132,estrella,Catalan,Sounds/cat_estrella.mp3,2020-06-08_20h10.22.080,TranslationElicitation_spa,3.2.4,Win32,60,5ede1e445c4bda03a80555e6,,1,0,80,27,1,79
,,,,,,,,,,,,,,,,,,,,,,,,,,,,,,,,,,,s,1.968000174,ES,FALSE,,,,,,,132,estrella,Catalan,Sounds/cat_estrella.mp3,2020-06-08_20h10.22.080,TranslationElicitation_spa,3.2.4,Win32,60,5ede1e445c4bda03a80555e6,,1,0,80,27,1,79
,,,,,,,,,,,,,,,,,,,,,,,,,,,,,,,,,,,t,2.285000086,EST,FALSE,,,,,,,132,estrella,Catalan,Sounds/cat_estrella.mp3,2020-06-08_20h10.22.080,TranslationElicitation_spa,3.2.4,Win32,60,5ede1e445c4bda03a80555e6,,1,0,80,27,1,79
,,,,,,,,,,,,,,,,,,,,,,,,,,,,,,,,,,,r,2.452000141,ESTR,FALSE,,,,,,,132,estrella,Catalan,Sounds/cat_estrella.mp3,2020-06-08_20h10.22.080,TranslationElicitation_spa,3.2.4,Win32,60,5ede1e445c4bda03a80555e6,,1,0,80,27,1,79
,,,,,,,,,,,,,,,,,,,,,,,,,,,,,,,,,,,e,2.636000156,ESTRE,FALSE,,,,,,,132,estrella,Catalan,Sounds/cat_estrella.mp3,2020-06-08_20h10.22.080,TranslationElicitation_spa,3.2.4,Win32,60,5ede1e445c4bda03a80555e6,,1,0,80,27,1,79
,,,,,,,,,,,,,,,,,,,,,,,,,,,,,,,,,,,l,3.052999973,ESTREL,FALSE,,,,,,,132,estrella,Catalan,Sounds/cat_estrella.mp3,2020-06-08_20h10.22.080,TranslationElicitation_spa,3.2.4,Win32,60,5ede1e445c4bda03a80555e6,,1,0,80,27,1,79
,,,,,,,,,,,,,,,,,,,,,,,,,,,,,,,,,,,l,3.187000036,ESTRELL,FALSE,,,,,,,132,estrella,Catalan,Sounds/cat_estrella.mp3,2020-06-08_20h10.22.080,TranslationElicitation_spa,3.2.4,Win32,60,5ede1e445c4bda03a80555e6,,1,0,80,27,1,79
,,,,,,,,,,,,,,,,,,,,,,,,,,,,,,,,,,,a,3.388000011,ESTRELLA,FALSE,,,,,,,132,estrella,Catalan,Sounds/cat_estrella.mp3,2020-06-08_20h10.22.080,TranslationElicitation_spa,3.2.4,Win32,60,5ede1e445c4bda03a80555e6,,1,0,80,27,1,79
,,,,,,,,,,,,,,,,,,,,,,,,,,,,,,,,,,,return,3.838999987,,FALSE,,,,,,,132,estrella,Catalan,Sounds/cat_estrella.mp3,2020-06-08_20h10.22.080,TranslationElicitation_spa,3.2.4,Win32,60,5ede1e445c4bda03a80555e6,3.838999987,1,0,80,27,1,79
,,,,,,,,,,,,,,,,,,,,,,,,,,,,,,,,,,,,,,,,,,,,,132,estrella,Catalan,Sounds/cat_estrella.mp3,2020-06-08_20h10.22.080,TranslationElicitation_spa,3.2.4,Win32,60,5ede1e445c4bda03a80555e6,,1,0,80,27,1,79
,,,,,,,,,,,,,,,,,,,,,,,,,,,,,,,,,,,i,3.054000139,I,FALSE,,,,,,,141,gerd,Catalan,Sounds/cat_gerd.mp3,2020-06-08_20h10.22.080,TranslationElicitation_spa,3.2.4,Win32,60,5ede1e445c4bda03a80555e6,,1,0,80,36,1,79
,,,,,,,,,,,,,,,,,,,,,,,,,,,,,,,,,,,r,3.171000004,IR,FALSE,,,,,,,141,gerd,Catalan,Sounds/cat_gerd.mp3,2020-06-08_20h10.22.080,TranslationElicitation_spa,3.2.4,Win32,60,5ede1e445c4bda03a80555e6,,1,0,80,36,1,79
,,,,,,,,,,,,,,,,,,,,,,,,,,,,,,,,,,,return,4.742000103,,FALSE,,,,,,,141,gerd,Catalan,Sounds/cat_gerd.mp3,2020-06-08_20h10.22.080,TranslationElicitation_spa,3.2.4,Win32,60,5ede1e445c4bda03a80555e6,4.742000103,1,0,80,36,1,79
,,,,,,,,,,,,,,,,,,,,,,,,,,,,,,,,,,,,,,,,,,,,,141,gerd,Catalan,Sounds/cat_gerd.mp3,2020-06-08_20h10.22.080,TranslationElicitation_spa,3.2.4,Win32,60,5ede1e445c4bda03a80555e6,,1,0,80,36,1,79
,,,,,,,,,,,,,,,,,,,,,,,,,,,,,,,,,,,p,1.934999943,P,FALSE,,,,,,,168,planta,Catalan,Sounds/cat_planta.mp3,2020-06-08_20h10.22.080,TranslationElicitation_spa,3.2.4,Win32,60,5ede1e445c4bda03a80555e6,,1,0,80,60,1,79
,,,,,,,,,,,,,,,,,,,,,,,,,,,,,,,,,,,l,2.135999918,PL,FALSE,,,,,,,168,planta,Catalan,Sounds/cat_planta.mp3,2020-06-08_20h10.22.080,TranslationElicitation_spa,3.2.4,Win32,60,5ede1e445c4bda03a80555e6,,1,0,80,60,1,79
,,,,,,,,,,,,,,,,,,,,,,,,,,,,,,,,,,,a,2.269000053,PLA,FALSE,,,,,,,168,planta,Catalan,Sounds/cat_planta.mp3,2020-06-08_20h10.22.080,TranslationElicitation_spa,3.2.4,Win32,60,5ede1e445c4bda03a80555e6,,1,0,80,60,1,79
,,,,,,,,,,,,,,,,,,,,,,,,,,,,,,,,,,,n,2.470999956,PLAN,FALSE,,,,,,,168,planta,Catalan,Sounds/cat_planta.mp3,2020-06-08_20h10.22.080,TranslationElicitation_spa,3.2.4,Win32,60,5ede1e445c4bda03a80555e6,,1,0,80,60,1,79
,,,,,,,,,,,,,,,,,,,,,,,,,,,,,,,,,,,t,2.586999893,PLANT,FALSE,,,,,,,168,planta,Catalan,Sounds/cat_planta.mp3,2020-06-08_20h10.22.080,TranslationElicitation_spa,3.2.4,Win32,60,5ede1e445c4bda03a80555e6,,1,0,80,60,1,79
,,,,,,,,,,,,,,,,,,,,,,,,,,,,,,,,,,,a,3.138999939,PLANTA,FALSE,,,,,,,168,planta,Catalan,Sounds/cat_planta.mp3,2020-06-08_20h10.22.080,TranslationElicitation_spa,3.2.4,Win32,60,5ede1e445c4bda03a80555e6,,1,0,80,60,1,79
,,,,,,,,,,,,,,,,,,,,,,,,,,,,,,,,,,,return,3.506000042,,FALSE,,,,,,,168,planta,Catalan,Sounds/cat_planta.mp3,2020-06-08_20h10.22.080,TranslationElicitation_spa,3.2.4,Win32,60,5ede1e445c4bda03a80555e6,3.506000042,1,0,80,60,1,79
,,,,,,,,,,,,,,,,,,,,,,,,,,,,,,,,,,,,,,,,,,,,,168,planta,Catalan,Sounds/cat_planta.mp3,2020-06-08_20h10.22.080,TranslationElicitation_spa,3.2.4,Win32,60,5ede1e445c4bda03a80555e6,,1,0,80,60,1,79
,,,,,,,,,,,,,,,,,,,,,,,,,,,,,,,,,,,s,2.687999964,S,FALSE,,,,,,,124,cirera,Catalan,Sounds/cat_cirera.mp3,2020-06-08_20h10.22.080,TranslationElicitation_spa,3.2.4,Win32,60,5ede1e445c4bda03a80555e6,,1,0,80,19,1,79
,,,,,,,,,,,,,,,,,,,,,,,,,,,,,,,,,,,i,3.188999891,SI,FALSE,,,,,,,124,cirera,Catalan,Sounds/cat_cirera.mp3,2020-06-08_20h10.22.080,TranslationElicitation_spa,3.2.4,Win32,60,5ede1e445c4bda03a80555e6,,1,0,80,19,1,79
,,,,,,,,,,,,,,,,,,,,,,,,,,,,,,,,,,,r,3.606999874,SIR,FALSE,,,,,,,124,cirera,Catalan,Sounds/cat_cirera.mp3,2020-06-08_20h10.22.080,TranslationElicitation_spa,3.2.4,Win32,60,5ede1e445c4bda03a80555e6,,1,0,80,19,1,79
,,,,,,,,,,,,,,,,,,,,,,,,,,,,,,,,,,,e,3.840999842,SIRE,FALSE,,,,,,,124,cirera,Catalan,Sounds/cat_cirera.mp3,2020-06-08_20h10.22.080,TranslationElicitation_spa,3.2.4,Win32,60,5ede1e445c4bda03a80555e6,,1,0,80,19,1,79
,,,,,,,,,,,,,,,,,,,,,,,,,,,,,,,,,,,n,4.007999897,SIREN,FALSE,,,,,,,124,cirera,Catalan,Sounds/cat_cirera.mp3,2020-06-08_20h10.22.080,TranslationElicitation_spa,3.2.4,Win32,60,5ede1e445c4bda03a80555e6,,1,0,80,19,1,79
,,,,,,,,,,,,,,,,,,,,,,,,,,,,,,,,,,,a,4.14199996,SIRENA,FALSE,,,,,,,124,cirera,Catalan,Sounds/cat_cirera.mp3,2020-06-08_20h10.22.080,TranslationElicitation_spa,3.2.4,Win32,60,5ede1e445c4bda03a80555e6,,1,0,80,19,1,79
,,,,,,,,,,,,,,,,,,,,,,,,,,,,,,,,,,,return,4.576999903,,FALSE,,,,,,,124,cirera,Catalan,Sounds/cat_cirera.mp3,2020-06-08_20h10.22.080,TranslationElicitation_spa,3.2.4,Win32,60,5ede1e445c4bda03a80555e6,4.575999975,1,0,80,19,1,79
,,,,,,,,,,,,,,,,,,,,,,,,,,,,,,,,,,,,,,,,,,,,,124,cirera,Catalan,Sounds/cat_cirera.mp3,2020-06-08_20h10.22.080,TranslationElicitation_spa,3.2.4,Win32,60,5ede1e445c4bda03a80555e6,,1,0,80,19,1,79
,,,,,,,,,,,,,,,,,,,,,,,,,,,,,,,,,,,b,1.919000149,B,FALSE,,,,,,,112,bici,Catalan,Sounds/cat_bici.mp3,2020-06-08_20h10.22.080,TranslationElicitation_spa,3.2.4,Win32,60,5ede1e445c4bda03a80555e6,,1,0,80,7,1,79
,,,,,,,,,,,,,,,,,,,,,,,,,,,,,,,,,,,i,2.220000029,BI,FALSE,,,,,,,112,bici,Catalan,Sounds/cat_bici.mp3,2020-06-08_20h10.22.080,TranslationElicitation_spa,3.2.4,Win32,60,5ede1e445c4bda03a80555e6,,1,0,80,7,1,79
,,,,,,,,,,,,,,,,,,,,,,,,,,,,,,,,,,,c,2.403000116,BIC,FALSE,,,,,,,112,bici,Catalan,Sounds/cat_bici.mp3,2020-06-08_20h10.22.080,TranslationElicitation_spa,3.2.4,Win32,60,5ede1e445c4bda03a80555e6,,1,0,80,7,1,79
,,,,,,,,,,,,,,,,,,,,,,,,,,,,,,,,,,,i,2.553000212,BICI,FALSE,,,,,,,112,bici,Catalan,Sounds/cat_bici.mp3,2020-06-08_20h10.22.080,TranslationElicitation_spa,3.2.4,Win32,60,5ede1e445c4bda03a80555e6,,1,0,80,7,1,79
,,,,,,,,,,,,,,,,,,,,,,,,,,,,,,,,,,,return,4.09100008,,FALSE,,,,,,,112,bici,Catalan,Sounds/cat_bici.mp3,2020-06-08_20h10.22.080,TranslationElicitation_spa,3.2.4,Win32,60,5ede1e445c4bda03a80555e6,4.09100008,1,0,80,7,1,79
,,,,,,,,,,,,,,,,,,,,,,,,,,,,,,,,,,,,,,,,,,,,,112,bici,Catalan,Sounds/cat_bici.mp3,2020-06-08_20h10.22.080,TranslationElicitation_spa,3.2.4,Win32,60,5ede1e445c4bda03a80555e6,,1,0,80,7,1,79
,,,,,,,,,,,,,,,,,,,,,,,,,,,,,,,,,,,m,1.868999958,M,FALSE,,,,,,,172,poma,Catalan,Sounds/cat_poma.mp3,2020-06-08_20h10.22.080,TranslationElicitation_spa,3.2.4,Win32,60,5ede1e445c4bda03a80555e6,,1,0,80,64,1,79
,,,,,,,,,,,,,,,,,,,,,,,,,,,,,,,,,,,a,2.003000021,MA,FALSE,,,,,,,172,poma,Catalan,Sounds/cat_poma.mp3,2020-06-08_20h10.22.080,TranslationElicitation_spa,3.2.4,Win32,60,5ede1e445c4bda03a80555e6,,1,0,80,64,1,79
,,,,,,,,,,,,,,,,,,,,,,,,,,,,,,,,,,,n,2.18599987,MAN,FALSE,,,,,,,172,poma,Catalan,Sounds/cat_poma.mp3,2020-06-08_20h10.22.080,TranslationElicitation_spa,3.2.4,Win32,60,5ede1e445c4bda03a80555e6,,1,0,80,64,1,79
,,,,,,,,,,,,,,,,,,,,,,,,,,,,,,,,,,,z,2.387000084,MANZ,FALSE,,,,,,,172,poma,Catalan,Sounds/cat_poma.mp3,2020-06-08_20h10.22.080,TranslationElicitation_spa,3.2.4,Win32,60,5ede1e445c4bda03a80555e6,,1,0,80,64,1,79
,,,,,,,,,,,,,,,,,,,,,,,,,,,,,,,,,,,a,2.569999933,MANZA,FALSE,,,,,,,172,poma,Catalan,Sounds/cat_poma.mp3,2020-06-08_20h10.22.080,TranslationElicitation_spa,3.2.4,Win32,60,5ede1e445c4bda03a80555e6,,1,0,80,64,1,79
,,,,,,,,,,,,,,,,,,,,,,,,,,,,,,,,,,,n,2.855000019,MANZAN,FALSE,,,,,,,172,poma,Catalan,Sounds/cat_poma.mp3,2020-06-08_20h10.22.080,TranslationElicitation_spa,3.2.4,Win32,60,5ede1e445c4bda03a80555e6,,1,0,80,64,1,79
,,,,,,,,,,,,,,,,,,,,,,,,,,,,,,,,,,,a,2.937999964,MANZANA,FALSE,,,,,,,172,poma,Catalan,Sounds/cat_poma.mp3,2020-06-08_20h10.22.080,TranslationElicitation_spa,3.2.4,Win32,60,5ede1e445c4bda03a80555e6,,1,0,80,64,1,79
,,,,,,,,,,,,,,,,,,,,,,,,,,,,,,,,,,,return,4.025000095,,FALSE,,,,,,,172,poma,Catalan,Sounds/cat_poma.mp3,2020-06-08_20h10.22.080,TranslationElicitation_spa,3.2.4,Win32,60,5ede1e445c4bda03a80555e6,4.025000095,1,0,80,64,1,79
,,,,,,,,,,,,,,,,,,,,,,,,,,,,,,,,,,,,,,,,,,,,,172,poma,Catalan,Sounds/cat_poma.mp3,2020-06-08_20h10.22.080,TranslationElicitation_spa,3.2.4,Win32,60,5ede1e445c4bda03a80555e6,,1,0,80,64,1,79
,,,,,,,,,,,,,,,,,,,,,,,,,,,,,,,,,,,p,2.487999916,P,FALSE,,,,,,,169,plat,Catalan,Sounds/cat_plat.mp3,2020-06-08_20h10.22.080,TranslationElicitation_spa,3.2.4,Win32,60,5ede1e445c4bda03a80555e6,,1,0,80,61,1,79
,,,,,,,,,,,,,,,,,,,,,,,,,,,,,,,,,,,l,2.687999964,PL,FALSE,,,,,,,169,plat,Catalan,Sounds/cat_plat.mp3,2020-06-08_20h10.22.080,TranslationElicitation_spa,3.2.4,Win32,60,5ede1e445c4bda03a80555e6,,1,0,80,61,1,79
,,,,,,,,,,,,,,,,,,,,,,,,,,,,,,,,,,,a,2.753999949,PLA,FALSE,,,,,,,169,plat,Catalan,Sounds/cat_plat.mp3,2020-06-08_20h10.22.080,TranslationElicitation_spa,3.2.4,Win32,60,5ede1e445c4bda03a80555e6,,1,0,80,61,1,79
,,,,,,,,,,,,,,,,,,,,,,,,,,,,,,,,,,,t,3.072999954,PLAT,FALSE,,,,,,,169,plat,Catalan,Sounds/cat_plat.mp3,2020-06-08_20h10.22.080,TranslationElicitation_spa,3.2.4,Win32,60,5ede1e445c4bda03a80555e6,,1,0,80,61,1,79
,,,,,,,,,,,,,,,,,,,,,,,,,,,,,,,,,,,o,3.171999931,PLATO,FALSE,,,,,,,169,plat,Catalan,Sounds/cat_plat.mp3,2020-06-08_20h10.22.080,TranslationElicitation_spa,3.2.4,Win32,60,5ede1e445c4bda03a80555e6,,1,0,80,61,1,79
,,,,,,,,,,,,,,,,,,,,,,,,,,,,,,,,,,,return,3.539999962,,FALSE,,,,,,,169,plat,Catalan,Sounds/cat_plat.mp3,2020-06-08_20h10.22.080,TranslationElicitation_spa,3.2.4,Win32,60,5ede1e445c4bda03a80555e6,3.539999962,1,0,80,61,1,79
,,,,,,,,,,,,,,,,,,,,,,,,,,,,,,,,,,,,,,,,,,,,,169,plat,Catalan,Sounds/cat_plat.mp3,2020-06-08_20h10.22.080,TranslationElicitation_spa,3.2.4,Win32,60,5ede1e445c4bda03a80555e6,,1,0,80,61,1,79
,,,,,,,,,,,,,,,,,,,,,,,,,,,,,,,,,,,g,1.848999977,G,FALSE,,,,,,,143,globus,Catalan,Sounds/cat_globus.mp3,2020-06-08_20h10.22.080,TranslationElicitation_spa,3.2.4,Win32,60,5ede1e445c4bda03a80555e6,,1,0,80,38,1,79
,,,,,,,,,,,,,,,,,,,,,,,,,,,,,,,,,,,l,1.98300004,GL,FALSE,,,,,,,143,globus,Catalan,Sounds/cat_globus.mp3,2020-06-08_20h10.22.080,TranslationElicitation_spa,3.2.4,Win32,60,5ede1e445c4bda03a80555e6,,1,0,80,38,1,79
,,,,,,,,,,,,,,,,,,,,,,,,,,,,,,,,,,,o,2.150000095,GLO,FALSE,,,,,,,143,globus,Catalan,Sounds/cat_globus.mp3,2020-06-08_20h10.22.080,TranslationElicitation_spa,3.2.4,Win32,60,5ede1e445c4bda03a80555e6,,1,0,80,38,1,79
,,,,,,,,,,,,,,,,,,,,,,,,,,,,,,,,,,,b,2.26699996,GLOB,FALSE,,,,,,,143,globus,Catalan,Sounds/cat_globus.mp3,2020-06-08_20h10.22.080,TranslationElicitation_spa,3.2.4,Win32,60,5ede1e445c4bda03a80555e6,,1,0,80,38,1,79
,,,,,,,,,,,,,,,,,,,,,,,,,,,,,,,,,,,o,2.382999897,GLOBO,FALSE,,,,,,,143,globus,Catalan,Sounds/cat_globus.mp3,2020-06-08_20h10.22.080,TranslationElicitation_spa,3.2.4,Win32,60,5ede1e445c4bda03a80555e6,,1,0,80,38,1,79
,,,,,,,,,,,,,,,,,,,,,,,,,,,,,,,,,,,return,2.868000031,,FALSE,,,,,,,143,globus,Catalan,Sounds/cat_globus.mp3,2020-06-08_20h10.22.080,TranslationElicitation_spa,3.2.4,Win32,60,5ede1e445c4bda03a80555e6,2.868000031,1,0,80,38,1,79
,,,,,,,,,,,,,,,,,,,,,,,,,,,,,,,,,,,,,,,,,,,,,143,globus,Catalan,Sounds/cat_globus.mp3,2020-06-08_20h10.22.080,TranslationElicitation_spa,3.2.4,Win32,60,5ede1e445c4bda03a80555e6,,1,0,80,38,1,79
,,,,,,,,,,,,,,,,,,,,,,,,,,,,,,,,,,,u,2.686999798,U,FALSE,,,,,,,161,ovella,Catalan,Sounds/cat_ovella.mp3,2020-06-08_20h10.22.080,TranslationElicitation_spa,3.2.4,Win32,60,5ede1e445c4bda03a80555e6,,1,0,80,54,1,79
,,,,,,,,,,,,,,,,,,,,,,,,,,,,,,,,,,,v,2.971999884,UV,FALSE,,,,,,,161,ovella,Catalan,Sounds/cat_ovella.mp3,2020-06-08_20h10.22.080,TranslationElicitation_spa,3.2.4,Win32,60,5ede1e445c4bda03a80555e6,,1,0,80,54,1,79
,,,,,,,,,,,,,,,,,,,,,,,,,,,,,,,,,,,a,3.088999987,UVA,FALSE,,,,,,,161,ovella,Catalan,Sounds/cat_ovella.mp3,2020-06-08_20h10.22.080,TranslationElicitation_spa,3.2.4,Win32,60,5ede1e445c4bda03a80555e6,,1,0,80,54,1,79
,,,,,,,,,,,,,,,,,,,,,,,,,,,,,,,,,,,s,3.49000001,UVAS,FALSE,,,,,,,161,ovella,Catalan,Sounds/cat_ovella.mp3,2020-06-08_20h10.22.080,TranslationElicitation_spa,3.2.4,Win32,60,5ede1e445c4bda03a80555e6,,1,0,80,54,1,79
,,,,,,,,,,,,,,,,,,,,,,,,,,,,,,,,,,,return,3.873999834,,FALSE,,,,,,,161,ovella,Catalan,Sounds/cat_ovella.mp3,2020-06-08_20h10.22.080,TranslationElicitation_spa,3.2.4,Win32,60,5ede1e445c4bda03a80555e6,3.873999834,1,0,80,54,1,79
,,,,,,,,,,,,,,,,,,,,,,,,,,,,,,,,,,,,,,,,,,,,,161,ovella,Catalan,Sounds/cat_ovella.mp3,2020-06-08_20h10.22.080,TranslationElicitation_spa,3.2.4,Win32,60,5ede1e445c4bda03a80555e6,,1,0,80,54,1,79
,,,,,,,,,,,,,,,,,,,,,,,,,,,,,,,,,,,s,1.902999878,S,FALSE,,,,,,,177,sol,Catalan,Sounds/cat_sol.mp3,2020-06-08_20h10.22.080,TranslationElicitation_spa,3.2.4,Win32,60,5ede1e445c4bda03a80555e6,,1,0,80,69,1,79
,,,,,,,,,,,,,,,,,,,,,,,,,,,,,,,,,,,o,2.053999901,SO,FALSE,,,,,,,177,sol,Catalan,Sounds/cat_sol.mp3,2020-06-08_20h10.22.080,TranslationElicitation_spa,3.2.4,Win32,60,5ede1e445c4bda03a80555e6,,1,0,80,69,1,79
,,,,,,,,,,,,,,,,,,,,,,,,,,,,,,,,,,,l,2.253999949,SOL,FALSE,,,,,,,177,sol,Catalan,Sounds/cat_sol.mp3,2020-06-08_20h10.22.080,TranslationElicitation_spa,3.2.4,Win32,60,5ede1e445c4bda03a80555e6,,1,0,80,69,1,79
,,,,,,,,,,,,,,,,,,,,,,,,,,,,,,,,,,,return,2.739000082,,FALSE,,,,,,,177,sol,Catalan,Sounds/cat_sol.mp3,2020-06-08_20h10.22.080,TranslationElicitation_spa,3.2.4,Win32,60,5ede1e445c4bda03a80555e6,2.739000082,1,0,80,69,1,79
,,,,,,,,,,,,,,,,,,,,,,,,,,,,,,,,,,,,,,,,,,,,,177,sol,Catalan,Sounds/cat_sol.mp3,2020-06-08_20h10.22.080,TranslationElicitation_spa,3.2.4,Win32,60,5ede1e445c4bda03a80555e6,,1,0,80,69,1,79
,,,,,,,,,,,,,,,,,,,,,,,,,,,,,,,,,,,v,2.053999901,V,FALSE,,,,,,,114,bol,Catalan,Sounds/cat_bol.mp3,2020-06-08_20h10.22.080,TranslationElicitation_spa,3.2.4,Win32,60,5ede1e445c4bda03a80555e6,,1,0,80,9,1,79
,,,,,,,,,,,,,,,,,,,,,,,,,,,,,,,,,,,o,2.237999916,VO,FALSE,,,,,,,114,bol,Catalan,Sounds/cat_bol.mp3,2020-06-08_20h10.22.080,TranslationElicitation_spa,3.2.4,Win32,60,5ede1e445c4bda03a80555e6,,1,0,80,9,1,79
,,,,,,,,,,,,,,,,,,,,,,,,,,,,,,,,,,,l,2.487999916,VOL,FALSE,,,,,,,114,bol,Catalan,Sounds/cat_bol.mp3,2020-06-08_20h10.22.080,TranslationElicitation_spa,3.2.4,Win32,60,5ede1e445c4bda03a80555e6,,1,0,80,9,1,79
,,,,,,,,,,,,,,,,,,,,,,,,,,,,,,,,,,,a,2.638999939,VOLA,FALSE,,,,,,,114,bol,Catalan,Sounds/cat_bol.mp3,2020-06-08_20h10.22.080,TranslationElicitation_spa,3.2.4,Win32,60,5ede1e445c4bda03a80555e6,,1,0,80,9,1,79
,,,,,,,,,,,,,,,,,,,,,,,,,,,,,,,,,,,r,2.97300005,VOLAR,FALSE,,,,,,,114,bol,Catalan,Sounds/cat_bol.mp3,2020-06-08_20h10.22.080,TranslationElicitation_spa,3.2.4,Win32,60,5ede1e445c4bda03a80555e6,,1,0,80,9,1,79
,,,,,,,,,,,,,,,,,,,,,,,,,,,,,,,,,,,return,4.225999832,,FALSE,,,,,,,114,bol,Catalan,Sounds/cat_bol.mp3,2020-06-08_20h10.22.080,TranslationElicitation_spa,3.2.4,Win32,60,5ede1e445c4bda03a80555e6,4.225999832,1,0,80,9,1,79
,,,,,,,,,,,,,,,,,,,,,,,,,,,,,,,,,,,,,,,,,,,,,114,bol,Catalan,Sounds/cat_bol.mp3,2020-06-08_20h10.22.080,TranslationElicitation_spa,3.2.4,Win32,60,5ede1e445c4bda03a80555e6,,1,0,80,9,1,79
,,,,,,,,,,,,,,,,,,,,,,,,,,,,,,,,,,,c,4.192000151,C,FALSE,,,,,,,106,aixeta,Catalan,Sounds/cat_aixeta.mp3,2020-06-08_20h10.22.080,TranslationElicitation_spa,3.2.4,Win32,60,5ede1e445c4bda03a80555e6,,1,0,80,2,1,79
,,,,,,,,,,,,,,,,,,,,,,,,,,,,,,,,,,,o,4.426000118,CO,FALSE,,,,,,,106,aixeta,Catalan,Sounds/cat_aixeta.mp3,2020-06-08_20h10.22.080,TranslationElicitation_spa,3.2.4,Win32,60,5ede1e445c4bda03a80555e6,,1,0,80,2,1,79
,,,,,,,,,,,,,,,,,,,,,,,,,,,,,,,,,,,g,5.345000029,COG,FALSE,,,,,,,106,aixeta,Catalan,Sounds/cat_aixeta.mp3,2020-06-08_20h10.22.080,TranslationElicitation_spa,3.2.4,Win32,60,5ede1e445c4bda03a80555e6,,1,0,80,2,1,79
,,,,,,,,,,,,,,,,,,,,,,,,,,,,,,,,,,,e,5.445000172,COGE,FALSE,,,,,,,106,aixeta,Catalan,Sounds/cat_aixeta.mp3,2020-06-08_20h10.22.080,TranslationElicitation_spa,3.2.4,Win32,60,5ede1e445c4bda03a80555e6,,1,0,80,2,1,79
,,,,,,,,,,,,,,,,,,,,,,,,,,,,,,,,,,,r,5.679000139,COGER,FALSE,,,,,,,106,aixeta,Catalan,Sounds/cat_aixeta.mp3,2020-06-08_20h10.22.080,TranslationElicitation_spa,3.2.4,Win32,60,5ede1e445c4bda03a80555e6,,1,0,80,2,1,79
,,,,,,,,,,,,,,,,,,,,,,,,,,,,,,,,,,,return,6.617000103,,FALSE,,,,,,,106,aixeta,Catalan,Sounds/cat_aixeta.mp3,2020-06-08_20h10.22.080,TranslationElicitation_spa,3.2.4,Win32,60,5ede1e445c4bda03a80555e6,6.617000103,1,0,80,2,1,79
,,,,,,,,,,,,,,,,,,,,,,,,,,,,,,,,,,,,,,,,,,,,,106,aixeta,Catalan,Sounds/cat_aixeta.mp3,2020-06-08_20h10.22.080,TranslationElicitation_spa,3.2.4,Win32,60,5ede1e445c4bda03a80555e6,,1,0,80,2,1,79
,,,,,,,,,,,,,,,,,,,,,,,,,,,,,,,,,,,g,4.858999968,G,FALSE,,,,,,,145,got,Catalan,Sounds/cat_got.mp3,2020-06-08_20h10.22.080,TranslationElicitation_spa,3.2.4,Win32,60,5ede1e445c4bda03a80555e6,,1,0,80,40,1,79
,,,,,,,,,,,,,,,,,,,,,,,,,,,,,,,,,,,o,5.060000181,GO,FALSE,,,,,,,145,got,Catalan,Sounds/cat_got.mp3,2020-06-08_20h10.22.080,TranslationElicitation_spa,3.2.4,Win32,60,5ede1e445c4bda03a80555e6,,1,0,80,40,1,79
,,,,,,,,,,,,,,,,,,,,,,,,,,,,,,,,,,,t,5.210000038,GOT,FALSE,,,,,,,145,got,Catalan,Sounds/cat_got.mp3,2020-06-08_20h10.22.080,TranslationElicitation_spa,3.2.4,Win32,60,5ede1e445c4bda03a80555e6,,1,0,80,40,1,79
,,,,,,,,,,,,,,,,,,,,,,,,,,,,,,,,,,,e,5.460999966,GOTE,FALSE,,,,,,,145,got,Catalan,Sounds/cat_got.mp3,2020-06-08_20h10.22.080,TranslationElicitation_spa,3.2.4,Win32,60,5ede1e445c4bda03a80555e6,,1,0,80,40,1,79
,,,,,,,,,,,,,,,,,,,,,,,,,,,,,,,,,,,r,5.628000021,GOTER,FALSE,,,,,,,145,got,Catalan,Sounds/cat_got.mp3,2020-06-08_20h10.22.080,TranslationElicitation_spa,3.2.4,Win32,60,5ede1e445c4bda03a80555e6,,1,0,80,40,1,79
,,,,,,,,,,,,,,,,,,,,,,,,,,,,,,,,,,,a,5.912000179,GOTERA,FALSE,,,,,,,145,got,Catalan,Sounds/cat_got.mp3,2020-06-08_20h10.22.080,TranslationElicitation_spa,3.2.4,Win32,60,5ede1e445c4bda03a80555e6,,1,0,80,40,1,79
,,,,,,,,,,,,,,,,,,,,,,,,,,,,,,,,,,,return,6.163000107,,FALSE,,,,,,,145,got,Catalan,Sounds/cat_got.mp3,2020-06-08_20h10.22.080,TranslationElicitation_spa,3.2.4,Win32,60,5ede1e445c4bda03a80555e6,6.163000107,1,0,80,40,1,79
,,,,,,,,,,,,,,,,,,,,,,,,,,,,,,,,,,,,,,,,,,,,,145,got,Catalan,Sounds/cat_got.mp3,2020-06-08_20h10.22.080,TranslationElicitation_spa,3.2.4,Win32,60,5ede1e445c4bda03a80555e6,,1,0,80,40,1,79
,,,,,,,,,,,,,,,,,,,,,,,,,,,,,,,,,,,y,22.85800004,Y,FALSE,,,,,,,148,lleo,Catalan,Sounds/cat_lleo.mp3,2020-06-08_20h10.22.080,TranslationElicitation_spa,3.2.4,Win32,60,5ede1e445c4bda03a80555e6,,1,0,80,42,1,79
,,,,,,,,,,,,,,,,,,,,,,,,,,,,,,,,,,,a,22.95899987,YA,FALSE,,,,,,,148,lleo,Catalan,Sounds/cat_lleo.mp3,2020-06-08_20h10.22.080,TranslationElicitation_spa,3.2.4,Win32,60,5ede1e445c4bda03a80555e6,,1,0,80,42,1,79
,,,,,,,,,,,,,,,,,,,,,,,,,,,,,,,,,,,return,23.6099999,,FALSE,,,,,,,148,lleo,Catalan,Sounds/cat_lleo.mp3,2020-06-08_20h10.22.080,TranslationElicitation_spa,3.2.4,Win32,60,5ede1e445c4bda03a80555e6,23.6099999,1,0,80,42,1,79
,,,,,,,,,,,,,,,,,,,,,,,,,,,,,,,,,,,,,,,,,,,,,148,lleo,Catalan,Sounds/cat_lleo.mp3,2020-06-08_20h10.22.080,TranslationElicitation_spa,3.2.4,Win32,60,5ede1e445c4bda03a80555e6,,1,0,80,42,1,79
,,,,,,,,,,,,,,,,,,,,,,,,,,,,,,,,,,,b,2.002000093,B,FALSE,,,,,,,117,boto,Catalan,Sounds/cat_boto.mp3,2020-06-08_20h10.22.080,TranslationElicitation_spa,3.2.4,Win32,60,5ede1e445c4bda03a80555e6,,1,0,80,12,1,79
,,,,,,,,,,,,,,,,,,,,,,,,,,,,,,,,,,,o,2.319999933,BO,FALSE,,,,,,,117,boto,Catalan,Sounds/cat_boto.mp3,2020-06-08_20h10.22.080,TranslationElicitation_spa,3.2.4,Win32,60,5ede1e445c4bda03a80555e6,,1,0,80,12,1,79
,,,,,,,,,,,,,,,,,,,,,,,,,,,,,,,,,,,t,2.453000069,BOT,FALSE,,,,,,,117,boto,Catalan,Sounds/cat_boto.mp3,2020-06-08_20h10.22.080,TranslationElicitation_spa,3.2.4,Win32,60,5ede1e445c4bda03a80555e6,,1,0,80,12,1,79
,,,,,,,,,,,,,,,,,,,,,,,,,,,,,,,,,,,o,2.586999893,BOTO,FALSE,,,,,,,117,boto,Catalan,Sounds/cat_boto.mp3,2020-06-08_20h10.22.080,TranslationElicitation_spa,3.2.4,Win32,60,5ede1e445c4bda03a80555e6,,1,0,80,12,1,79
,,,,,,,,,,,,,,,,,,,,,,,,,,,,,,,,,,,backspace,3.372999907,BO,TRUE,,,,,,,117,boto,Catalan,Sounds/cat_boto.mp3,2020-06-08_20h10.22.080,TranslationElicitation_spa,3.2.4,Win32,60,5ede1e445c4bda03a80555e6,,1,0,80,12,1,79
,,,,,,,,,,,,,,,,,,,,,,,,,,,,,,,,,,,apostrophe,3.756999969,BO,TRUE,,,,,,,117,boto,Catalan,Sounds/cat_boto.mp3,2020-06-08_20h10.22.080,TranslationElicitation_spa,3.2.4,Win32,60,5ede1e445c4bda03a80555e6,,1,0,80,12,1,79
,,,,,,,,,,,,,,,,,,,,,,,,,,,,,,,,,,,o,3.891000032,BOÓ,TRUE,,,,,,,117,boto,Catalan,Sounds/cat_boto.mp3,2020-06-08_20h10.22.080,TranslationElicitation_spa,3.2.4,Win32,60,5ede1e445c4bda03a80555e6,,1,0,80,12,1,79
,,,,,,,,,,,,,,,,,,,,,,,,,,,,,,,,,,,n,4.276000023,BOÓN,TRUE,,,,,,,117,boto,Catalan,Sounds/cat_boto.mp3,2020-06-08_20h10.22.080,TranslationElicitation_spa,3.2.4,Win32,60,5ede1e445c4bda03a80555e6,,1,0,80,12,1,79
,,,,,,,,,,,,,,,,,,,,,,,,,,,,,,,,,,,backspace,4.911000013,BO,TRUE,,,,,,,117,boto,Catalan,Sounds/cat_boto.mp3,2020-06-08_20h10.22.080,TranslationElicitation_spa,3.2.4,Win32,60,5ede1e445c4bda03a80555e6,,1,0,80,12,1,79
,,,,,,,,,,,,,,,,,,,,,,,,,,,,,,,,,,,backspace,5.078000069,,TRUE,,,,,,,117,boto,Catalan,Sounds/cat_boto.mp3,2020-06-08_20h10.22.080,TranslationElicitation_spa,3.2.4,Win32,60,5ede1e445c4bda03a80555e6,,1,0,80,12,1,79
,,,,,,,,,,,,,,,,,,,,,,,,,,,,,,,,,,,b,6.147000074,B,TRUE,,,,,,,117,boto,Catalan,Sounds/cat_boto.mp3,2020-06-08_20h10.22.080,TranslationElicitation_spa,3.2.4,Win32,60,5ede1e445c4bda03a80555e6,,1,0,80,12,1,79
,,,,,,,,,,,,,,,,,,,,,,,,,,,,,,,,,,,o,6.515000105,BO,TRUE,,,,,,,117,boto,Catalan,Sounds/cat_boto.mp3,2020-06-08_20h10.22.080,TranslationElicitation_spa,3.2.4,Win32,60,5ede1e445c4bda03a80555e6,,1,0,80,12,1,79
,,,,,,,,,,,,,,,,,,,,,,,,,,,,,,,,,,,t,6.848999977,BOT,TRUE,,,,,,,117,boto,Catalan,Sounds/cat_boto.mp3,2020-06-08_20h10.22.080,TranslationElicitation_spa,3.2.4,Win32,60,5ede1e445c4bda03a80555e6,,1,0,80,12,1,79
,,,,,,,,,,,,,,,,,,,,,,,,,,,,,,,,,,,apostrophe,7.585000038,BOT,TRUE,,,,,,,117,boto,Catalan,Sounds/cat_boto.mp3,2020-06-08_20h10.22.080,TranslationElicitation_spa,3.2.4,Win32,60,5ede1e445c4bda03a80555e6,,1,0,80,12,1,79
,,,,,,,,,,,,,,,,,,,,,,,,,,,,,,,,,,,o,7.634000063,BOTÓ,TRUE,,,,,,,117,boto,Catalan,Sounds/cat_boto.mp3,2020-06-08_20h10.22.080,TranslationElicitation_spa,3.2.4,Win32,60,5ede1e445c4bda03a80555e6,,1,0,80,12,1,79
,,,,,,,,,,,,,,,,,,,,,,,,,,,,,,,,,,,n,8.385999918,BOTÓN,TRUE,,,,,,,117,boto,Catalan,Sounds/cat_boto.mp3,2020-06-08_20h10.22.080,TranslationElicitation_spa,3.2.4,Win32,60,5ede1e445c4bda03a80555e6,,1,0,80,12,1,79
,,,,,,,,,,,,,,,,,,,,,,,,,,,,,,,,,,,return,8.838000059,,TRUE,,,,,,,117,boto,Catalan,Sounds/cat_boto.mp3,2020-06-08_20h10.22.080,TranslationElicitation_spa,3.2.4,Win32,60,5ede1e445c4bda03a80555e6,8.838000059,1,0,80,12,1,79
,,,,,,,,,,,,,,,,,,,,,,,,,,,,,,,,,,,,,,,,,,,,,117,boto,Catalan,Sounds/cat_boto.mp3,2020-06-08_20h10.22.080,TranslationElicitation_spa,3.2.4,Win32,60,5ede1e445c4bda03a80555e6,,1,0,80,12,1,79
,,,,,,,,,,,,,,,,,,,,,,,,,,,,,,,,,,,b,3.138000011,B,FALSE,,,,,,,118,bou,Catalan,Sounds/cat_bou.mp3,2020-06-08_20h10.22.080,TranslationElicitation_spa,3.2.4,Win32,60,5ede1e445c4bda03a80555e6,,1,0,80,13,1,79
,,,,,,,,,,,,,,,,,,,,,,,,,,,,,,,,,,,o,4.123999834,BO,FALSE,,,,,,,118,bou,Catalan,Sounds/cat_bou.mp3,2020-06-08_20h10.22.080,TranslationElicitation_spa,3.2.4,Win32,60,5ede1e445c4bda03a80555e6,,1,0,80,13,1,79
,,,,,,,,,,,,,,,,,,,,,,,,,,,,,,,,,,,l,5.059999943,BOL,FALSE,,,,,,,118,bou,Catalan,Sounds/cat_bou.mp3,2020-06-08_20h10.22.080,TranslationElicitation_spa,3.2.4,Win32,60,5ede1e445c4bda03a80555e6,,1,0,80,13,1,79
,,,,,,,,,,,,,,,,,,,,,,,,,,,,,,,,,,,return,7.165999889,,FALSE,,,,,,,118,bou,Catalan,Sounds/cat_bou.mp3,2020-06-08_20h10.22.080,TranslationElicitation_spa,3.2.4,Win32,60,5ede1e445c4bda03a80555e6,7.165999889,1,0,80,13,1,79
,,,,,,,,,,,,,,,,,,,,,,,,,,,,,,,,,,,,,,,,,,,,,118,bou,Catalan,Sounds/cat_bou.mp3,2020-06-08_20h10.22.080,TranslationElicitation_spa,3.2.4,Win32,60,5ede1e445c4bda03a80555e6,,1,0,80,13,1,79
,,,,,,,,,,,,,,,,,,,,,,,,,,,,,,,,,,,v,5.326000214,V,FALSE,,,,,,,116,bolquer,Catalan,Sounds/cat_bolquer.mp3,2020-06-08_20h10.22.080,TranslationElicitation_spa,3.2.4,Win32,60,5ede1e445c4bda03a80555e6,,1,0,80,11,1,79
,,,,,,,,,,,,,,,,,,,,,,,,,,,,,,,,,,,o,5.710000038,VO,FALSE,,,,,,,116,bolquer,Catalan,Sounds/cat_bolquer.mp3,2020-06-08_20h10.22.080,TranslationElicitation_spa,3.2.4,Win32,60,5ede1e445c4bda03a80555e6,,1,0,80,11,1,79
,,,,,,,,,,,,,,,,,,,,,,,,,,,,,,,,,,,l,5.978000164,VOL,FALSE,,,,,,,116,bolquer,Catalan,Sounds/cat_bolquer.mp3,2020-06-08_20h10.22.080,TranslationElicitation_spa,3.2.4,Win32,60,5ede1e445c4bda03a80555e6,,1,0,80,11,1,79
,,,,,,,,,,,,,,,,,,,,,,,,,,,,,,,,,,,c,6.646000147,VOLC,FALSE,,,,,,,116,bolquer,Catalan,Sounds/cat_bolquer.mp3,2020-06-08_20h10.22.080,TranslationElicitation_spa,3.2.4,Win32,60,5ede1e445c4bda03a80555e6,,1,0,80,11,1,79
,,,,,,,,,,,,,,,,,,,,,,,,,,,,,,,,,,,a,6.746000051,VOLCA,FALSE,,,,,,,116,bolquer,Catalan,Sounds/cat_bolquer.mp3,2020-06-08_20h10.22.080,TranslationElicitation_spa,3.2.4,Win32,60,5ede1e445c4bda03a80555e6,,1,0,80,11,1,79
,,,,,,,,,,,,,,,,,,,,,,,,,,,,,,,,,,,r,7.097000122,VOLCAR,FALSE,,,,,,,116,bolquer,Catalan,Sounds/cat_bolquer.mp3,2020-06-08_20h10.22.080,TranslationElicitation_spa,3.2.4,Win32,60,5ede1e445c4bda03a80555e6,,1,0,80,11,1,79
,,,,,,,,,,,,,,,,,,,,,,,,,,,,,,,,,,,return,7.782000065,,FALSE,,,,,,,116,bolquer,Catalan,Sounds/cat_bolquer.mp3,2020-06-08_20h10.22.080,TranslationElicitation_spa,3.2.4,Win32,60,5ede1e445c4bda03a80555e6,7.782000065,1,0,80,11,1,79
,,,,,,,,,,,,,,,,,,,,,,,,,,,,,,,,,,,,,,,,,,,,,116,bolquer,Catalan,Sounds/cat_bolquer.mp3,2020-06-08_20h10.22.080,TranslationElicitation_spa,3.2.4,Win32,60,5ede1e445c4bda03a80555e6,,1,0,80,11,1,79
,,,,,,,,,,,,,,,,,,,,,,,,,,,,,,,,,,,c,4.678000212,C,FALSE,,,,,,,125,colom,Catalan,Sounds/cat_colom.mp3,2020-06-08_20h10.22.080,TranslationElicitation_spa,3.2.4,Win32,60,5ede1e445c4bda03a80555e6,,1,0,80,20,1,79
,,,,,,,,,,,,,,,,,,,,,,,,,,,,,,,,,,,u,7.101999998,CU,FALSE,,,,,,,125,colom,Catalan,Sounds/cat_colom.mp3,2020-06-08_20h10.22.080,TranslationElicitation_spa,3.2.4,Win32,60,5ede1e445c4bda03a80555e6,,1,0,80,20,1,79
,,,,,,,,,,,,,,,,,,,,,,,,,,,,,,,,,,,l,7.904000044,CUL,FALSE,,,,,,,125,colom,Catalan,Sounds/cat_colom.mp3,2020-06-08_20h10.22.080,TranslationElicitation_spa,3.2.4,Win32,60,5ede1e445c4bda03a80555e6,,1,0,80,20,1,79
,,,,,,,,,,,,,,,,,,,,,,,,,,,,,,,,,,,o,8.188000202,CULO,FALSE,,,,,,,125,colom,Catalan,Sounds/cat_colom.mp3,2020-06-08_20h10.22.080,TranslationElicitation_spa,3.2.4,Win32,60,5ede1e445c4bda03a80555e6,,1,0,80,20,1,79
,,,,,,,,,,,,,,,,,,,,,,,,,,,,,,,,,,,backspace,13.16900015,CU,TRUE,,,,,,,125,colom,Catalan,Sounds/cat_colom.mp3,2020-06-08_20h10.22.080,TranslationElicitation_spa,3.2.4,Win32,60,5ede1e445c4bda03a80555e6,,1,0,80,20,1,79
,,,,,,,,,,,,,,,,,,,,,,,,,,,,,,,,,,,backspace,13.65300012,,TRUE,,,,,,,125,colom,Catalan,Sounds/cat_colom.mp3,2020-06-08_20h10.22.080,TranslationElicitation_spa,3.2.4,Win32,60,5ede1e445c4bda03a80555e6,,1,0,80,20,1,79
,,,,,,,,,,,,,,,,,,,,,,,,,,,,,,,,,,,c,24.03100014,C,TRUE,,,,,,,125,colom,Catalan,Sounds/cat_colom.mp3,2020-06-08_20h10.22.080,TranslationElicitation_spa,3.2.4,Win32,60,5ede1e445c4bda03a80555e6,,1,0,80,20,1,79
,,,,,,,,,,,,,,,,,,,,,,,,,,,,,,,,,,,u,24.24800014,CU,TRUE,,,,,,,125,colom,Catalan,Sounds/cat_colom.mp3,2020-06-08_20h10.22.080,TranslationElicitation_spa,3.2.4,Win32,60,5ede1e445c4bda03a80555e6,,1,0,80,20,1,79
,,,,,,,,,,,,,,,,,,,,,,,,,,,,,,,,,,,backspace,25.76900005,,TRUE,,,,,,,125,colom,Catalan,Sounds/cat_colom.mp3,2020-06-08_20h10.22.080,TranslationElicitation_spa,3.2.4,Win32,60,5ede1e445c4bda03a80555e6,,1,0,80,20,1,79
,,,,,,,,,,,,,,,,,,,,,,,,,,,,,,,,,,,backspace,26.1190002,,TRUE,,,,,,,125,colom,Catalan,Sounds/cat_colom.mp3,2020-06-08_20h10.22.080,TranslationElicitation_spa,3.2.4,Win32,60,5ede1e445c4bda03a80555e6,,1,0,80,20,1,79
,,,,,,,,,,,,,,,,,,,,,,,,,,,,,,,,,,,c,29.31200004,C,TRUE,,,,,,,125,colom,Catalan,Sounds/cat_colom.mp3,2020-06-08_20h10.22.080,TranslationElicitation_spa,3.2.4,Win32,60,5ede1e445c4bda03a80555e6,,1,0,80,20,1,79
,,,,,,,,,,,,,,,,,,,,,,,,,,,,,,,,,,,u,29.59600019,CU,TRUE,,,,,,,125,colom,Catalan,Sounds/cat_colom.mp3,2020-06-08_20h10.22.080,TranslationElicitation_spa,3.2.4,Win32,60,5ede1e445c4bda03a80555e6,,1,0,80,20,1,79
,,,,,,,,,,,,,,,,,,,,,,,,,,,,,,,,,,,backspace,32.05200005,,TRUE,,,,,,,125,colom,Catalan,Sounds/cat_colom.mp3,2020-06-08_20h10.22.080,TranslationElicitation_spa,3.2.4,Win32,60,5ede1e445c4bda03a80555e6,,1,0,80,20,1,79
,,,,,,,,,,,,,,,,,,,,,,,,,,,,,,,,,,,c,33.07200003,C,TRUE,,,,,,,125,colom,Catalan,Sounds/cat_colom.mp3,2020-06-08_20h10.22.080,TranslationElicitation_spa,3.2.4,Win32,60,5ede1e445c4bda03a80555e6,,1,0,80,20,1,79
,,,,,,,,,,,,,,,,,,,,,,,,,,,,,,,,,,,u,33.60700011,CU,TRUE,,,,,,,125,colom,Catalan,Sounds/cat_colom.mp3,2020-06-08_20h10.22.080,TranslationElicitation_spa,3.2.4,Win32,60,5ede1e445c4bda03a80555e6,,1,0,80,20,1,79
,,,,,,,,,,,,,,,,,,,,,,,,,,,,,,,,,,,l,34.54200006,CUL,TRUE,,,,,,,125,colom,Catalan,Sounds/cat_colom.mp3,2020-06-08_20h10.22.080,TranslationElicitation_spa,3.2.4,Win32,60,5ede1e445c4bda03a80555e6,,1,0,80,20,1,79
,,,,,,,,,,,,,,,,,,,,,,,,,,,,,,,,,,,o,34.86100006,CULO,TRUE,,,,,,,125,colom,Catalan,Sounds/cat_colom.mp3,2020-06-08_20h10.22.080,TranslationElicitation_spa,3.2.4,Win32,60,5ede1e445c4bda03a80555e6,,1,0,80,20,1,79
,,,,,,,,,,,,,,,,,,,,,,,,,,,,,,,,,,,backspace,36.59899998,CU,TRUE,,,,,,,125,colom,Catalan,Sounds/cat_colom.mp3,2020-06-08_20h10.22.080,TranslationElicitation_spa,3.2.4,Win32,60,5ede1e445c4bda03a80555e6,,1,0,80,20,1,79
,,,,,,,,,,,,,,,,,,,,,,,,,,,,,,,,,,,backspace,36.84899998,,TRUE,,,,,,,125,colom,Catalan,Sounds/cat_colom.mp3,2020-06-08_20h10.22.080,TranslationElicitation_spa,3.2.4,Win32,60,5ede1e445c4bda03a80555e6,,1,0,80,20,1,79
,,,,,,,,,,,,,,,,,,,,,,,,,,,,,,,,,,,c,46.79200006,C,TRUE,,,,,,,125,colom,Catalan,Sounds/cat_colom.mp3,2020-06-08_20h10.22.080,TranslationElicitation_spa,3.2.4,Win32,60,5ede1e445c4bda03a80555e6,,1,0,80,20,1,79
,,,,,,,,,,,,,,,,,,,,,,,,,,,,,,,,,,,u,47.17700005,CU,TRUE,,,,,,,125,colom,Catalan,Sounds/cat_colom.mp3,2020-06-08_20h10.22.080,TranslationElicitation_spa,3.2.4,Win32,60,5ede1e445c4bda03a80555e6,,1,0,80,20,1,79
,,,,,,,,,,,,,,,,,,,,,,,,,,,,,,,,,,,backspace,48.29700017,,TRUE,,,,,,,125,colom,Catalan,Sounds/cat_colom.mp3,2020-06-08_20h10.22.080,TranslationElicitation_spa,3.2.4,Win32,60,5ede1e445c4bda03a80555e6,,1,0,80,20,1,79
,,,,,,,,,,,,,,,,,,,,,,,,,,,,,,,,,,,o,48.59800005,O,TRUE,,,,,,,125,colom,Catalan,Sounds/cat_colom.mp3,2020-06-08_20h10.22.080,TranslationElicitation_spa,3.2.4,Win32,60,5ede1e445c4bda03a80555e6,,1,0,80,20,1,79
,,,,,,,,,,,,,,,,,,,,,,,,,,,,,,,,,,,l,48.78200006,OL,TRUE,,,,,,,125,colom,Catalan,Sounds/cat_colom.mp3,2020-06-08_20h10.22.080,TranslationElicitation_spa,3.2.4,Win32,60,5ede1e445c4bda03a80555e6,,1,0,80,20,1,79
,,,,,,,,,,,,,,,,,,,,,,,,,,,,,,,,,,,o,48.96500015,OLO,TRUE,,,,,,,125,colom,Catalan,Sounds/cat_colom.mp3,2020-06-08_20h10.22.080,TranslationElicitation_spa,3.2.4,Win32,60,5ede1e445c4bda03a80555e6,,1,0,80,20,1,79
,,,,,,,,,,,,,,,,,,,,,,,,,,,,,,,,,,,r,49.13200021,OLOR,TRUE,,,,,,,125,colom,Catalan,Sounds/cat_colom.mp3,2020-06-08_20h10.22.080,TranslationElicitation_spa,3.2.4,Win32,60,5ede1e445c4bda03a80555e6,,1,0,80,20,1,79
,,,,,,,,,,,,,,,,,,,,,,,,,,,,,,,,,,,backspace,49.6500001,OL,TRUE,,,,,,,125,colom,Catalan,Sounds/cat_colom.mp3,2020-06-08_20h10.22.080,TranslationElicitation_spa,3.2.4,Win32,60,5ede1e445c4bda03a80555e6,,1,0,80,20,1,79
,,,,,,,,,,,,,,,,,,,,,,,,,,,,,,,,,,,backspace,49.78400016,,TRUE,,,,,,,125,colom,Catalan,Sounds/cat_colom.mp3,2020-06-08_20h10.22.080,TranslationElicitation_spa,3.2.4,Win32,60,5ede1e445c4bda03a80555e6,,1,0,80,20,1,79
,,,,,,,,,,,,,,,,,,,,,,,,,,,,,,,,,,,backspace,49.93500018,,TRUE,,,,,,,125,colom,Catalan,Sounds/cat_colom.mp3,2020-06-08_20h10.22.080,TranslationElicitation_spa,3.2.4,Win32,60,5ede1e445c4bda03a80555e6,,1,0,80,20,1,79
,,,,,,,,,,,,,,,,,,,,,,,,,,,,,,,,,,,c,50.43600011,C,TRUE,,,,,,,125,colom,Catalan,Sounds/cat_colom.mp3,2020-06-08_20h10.22.080,TranslationElicitation_spa,3.2.4,Win32,60,5ede1e445c4bda03a80555e6,,1,0,80,20,1,79
,,,,,,,,,,,,,,,,,,,,,,,,,,,,,,,,,,,o,50.65200019,CO,TRUE,,,,,,,125,colom,Catalan,Sounds/cat_colom.mp3,2020-06-08_20h10.22.080,TranslationElicitation_spa,3.2.4,Win32,60,5ede1e445c4bda03a80555e6,,1,0,80,20,1,79
,,,,,,,,,,,,,,,,,,,,,,,,,,,,,,,,,,,l,50.88800001,COL,TRUE,,,,,,,125,colom,Catalan,Sounds/cat_colom.mp3,2020-06-08_20h10.22.080,TranslationElicitation_spa,3.2.4,Win32,60,5ede1e445c4bda03a80555e6,,1,0,80,20,1,79
,,,,,,,,,,,,,,,,,,,,,,,,,,,,,,,,,,,o,51.10400009,COLO,TRUE,,,,,,,125,colom,Catalan,Sounds/cat_colom.mp3,2020-06-08_20h10.22.080,TranslationElicitation_spa,3.2.4,Win32,60,5ede1e445c4bda03a80555e6,,1,0,80,20,1,79
,,,,,,,,,,,,,,,,,,,,,,,,,,,,,,,,,,,r,51.25500011,COLOR,TRUE,,,,,,,125,colom,Catalan,Sounds/cat_colom.mp3,2020-06-08_20h10.22.080,TranslationElicitation_spa,3.2.4,Win32,60,5ede1e445c4bda03a80555e6,,1,0,80,20,1,79
,,,,,,,,,,,,,,,,,,,,,,,,,,,,,,,,,,,return,51.62199998,,TRUE,,,,,,,125,colom,Catalan,Sounds/cat_colom.mp3,2020-06-08_20h10.22.080,TranslationElicitation_spa,3.2.4,Win32,60,5ede1e445c4bda03a80555e6,51.62199998,1,0,80,20,1,79
,,,,,,,,,,,,,,,,,,,,,,,,,,,,,,,,,,,,,,,,,,,,,125,colom,Catalan,Sounds/cat_colom.mp3,2020-06-08_20h10.22.080,TranslationElicitation_spa,3.2.4,Win32,60,5ede1e445c4bda03a80555e6,,1,0,80,20,1,79
,,,,,,,,,,,,,,,,,,,,,,,,,,,,,,,,,,,l,1.802999973,L,FALSE,,,,,,,151,lluna,Catalan,Sounds/cat_lluna.mp3,2020-06-08_20h10.22.080,TranslationElicitation_spa,3.2.4,Win32,60,5ede1e445c4bda03a80555e6,,1,0,80,45,1,79
,,,,,,,,,,,,,,,,,,,,,,,,,,,,,,,,,,,u,2.137000084,LU,FALSE,,,,,,,151,lluna,Catalan,Sounds/cat_lluna.mp3,2020-06-08_20h10.22.080,TranslationElicitation_spa,3.2.4,Win32,60,5ede1e445c4bda03a80555e6,,1,0,80,45,1,79
,,,,,,,,,,,,,,,,,,,,,,,,,,,,,,,,,,,n,2.388000011,LUN,FALSE,,,,,,,151,lluna,Catalan,Sounds/cat_lluna.mp3,2020-06-08_20h10.22.080,TranslationElicitation_spa,3.2.4,Win32,60,5ede1e445c4bda03a80555e6,,1,0,80,45,1,79
,,,,,,,,,,,,,,,,,,,,,,,,,,,,,,,,,,,a,2.453999996,LUNA,FALSE,,,,,,,151,lluna,Catalan,Sounds/cat_lluna.mp3,2020-06-08_20h10.22.080,TranslationElicitation_spa,3.2.4,Win32,60,5ede1e445c4bda03a80555e6,,1,0,80,45,1,79
,,,,,,,,,,,,,,,,,,,,,,,,,,,,,,,,,,,return,2.905999899,,FALSE,,,,,,,151,lluna,Catalan,Sounds/cat_lluna.mp3,2020-06-08_20h10.22.080,TranslationElicitation_spa,3.2.4,Win32,60,5ede1e445c4bda03a80555e6,2.905999899,1,0,80,45,1,79
,,,,,,,,,,,,,,,,,,,,,,,,,,,,,,,,,,,,,,,,,,,,,151,lluna,Catalan,Sounds/cat_lluna.mp3,2020-06-08_20h10.22.080,TranslationElicitation_spa,3.2.4,Win32,60,5ede1e445c4bda03a80555e6,,1,0,80,45,1,79
,,,,,,,,,,,,,,,,,,,,,,,,,,,,,,,,,,,t,7.717000008,T,FALSE,,,,,,,183,tren,Catalan,Sounds/cat_tren.mp3,2020-06-08_20h10.22.080,TranslationElicitation_spa,3.2.4,Win32,60,5ede1e445c4bda03a80555e6,,1,0,80,74,1,79
,,,,,,,,,,,,,,,,,,,,,,,,,,,,,,,,,,,r,7.917999983,TR,FALSE,,,,,,,183,tren,Catalan,Sounds/cat_tren.mp3,2020-06-08_20h10.22.080,TranslationElicitation_spa,3.2.4,Win32,60,5ede1e445c4bda03a80555e6,,1,0,80,74,1,79
,,,,,,,,,,,,,,,,,,,,,,,,,,,,,,,,,,,e,8.101999998,TRE,FALSE,,,,,,,183,tren,Catalan,Sounds/cat_tren.mp3,2020-06-08_20h10.22.080,TranslationElicitation_spa,3.2.4,Win32,60,5ede1e445c4bda03a80555e6,,1,0,80,74,1,79
,,,,,,,,,,,,,,,,,,,,,,,,,,,,,,,,,,,n,8.286000013,TREN,FALSE,,,,,,,183,tren,Catalan,Sounds/cat_tren.mp3,2020-06-08_20h10.22.080,TranslationElicitation_spa,3.2.4,Win32,60,5ede1e445c4bda03a80555e6,,1,0,80,74,1,79
,,,,,,,,,,,,,,,,,,,,,,,,,,,,,,,,,,,return,8.838000059,,FALSE,,,,,,,183,tren,Catalan,Sounds/cat_tren.mp3,2020-06-08_20h10.22.080,TranslationElicitation_spa,3.2.4,Win32,60,5ede1e445c4bda03a80555e6,8.838000059,1,0,80,74,1,79
,,,,,,,,,,,,,,,,,,,,,,,,,,,,,,,,,,,,,,,,,,,,,183,tren,Catalan,Sounds/cat_tren.mp3,2020-06-08_20h10.22.080,TranslationElicitation_spa,3.2.4,Win32,60,5ede1e445c4bda03a80555e6,,1,0,80,74,1,79
,,,,,,,,,,,,,,,,,,,,,,,,,,,,,,,,,,,m,3.424000025,M,FALSE,,,,,,,154,mirall,Catalan,Sounds/cat_mirall.mp3,2020-06-08_20h10.22.080,TranslationElicitation_spa,3.2.4,Win32,60,5ede1e445c4bda03a80555e6,,1,0,80,48,1,79
,,,,,,,,,,,,,,,,,,,,,,,,,,,,,,,,,,,i,3.707999945,MI,FALSE,,,,,,,154,mirall,Catalan,Sounds/cat_mirall.mp3,2020-06-08_20h10.22.080,TranslationElicitation_spa,3.2.4,Win32,60,5ede1e445c4bda03a80555e6,,1,0,80,48,1,79
,,,,,,,,,,,,,,,,,,,,,,,,,,,,,,,,,,,r,3.825000048,MIR,FALSE,,,,,,,154,mirall,Catalan,Sounds/cat_mirall.mp3,2020-06-08_20h10.22.080,TranslationElicitation_spa,3.2.4,Win32,60,5ede1e445c4bda03a80555e6,,1,0,80,48,1,79
,,,,,,,,,,,,,,,,,,,,,,,,,,,,,,,,,,,a,4.193000078,MIRA,FALSE,,,,,,,154,mirall,Catalan,Sounds/cat_mirall.mp3,2020-06-08_20h10.22.080,TranslationElicitation_spa,3.2.4,Win32,60,5ede1e445c4bda03a80555e6,,1,0,80,48,1,79
,,,,,,,,,,,,,,,,,,,,,,,,,,,,,,,,,,,return,4.52699995,,FALSE,,,,,,,154,mirall,Catalan,Sounds/cat_mirall.mp3,2020-06-08_20h10.22.080,TranslationElicitation_spa,3.2.4,Win32,60,5ede1e445c4bda03a80555e6,4.52699995,1,0,80,48,1,79
,,,,,,,,,,,,,,,,,,,,,,,,,,,,,,,,,,,,,,,,,,,,,154,mirall,Catalan,Sounds/cat_mirall.mp3,2020-06-08_20h10.22.080,TranslationElicitation_spa,3.2.4,Win32,60,5ede1e445c4bda03a80555e6,,1,0,80,48,1,79
,,,,,,,,,,,,,,,,,,,,,,,,,,,,,,,,,,,h,3.508999825,H,FALSE,,,,,,,136,forquilla,Catalan,Sounds/cat_forquilla.mp3,2020-06-08_20h10.22.080,TranslationElicitation_spa,3.2.4,Win32,60,5ede1e445c4bda03a80555e6,,1,0,80,31,1,79
,,,,,,,,,,,,,,,,,,,,,,,,,,,,,,,,,,,o,3.65899992,HO,FALSE,,,,,,,136,forquilla,Catalan,Sounds/cat_forquilla.mp3,2020-06-08_20h10.22.080,TranslationElicitation_spa,3.2.4,Win32,60,5ede1e445c4bda03a80555e6,,1,0,80,31,1,79
,,,,,,,,,,,,,,,,,,,,,,,,,,,,,,,,,,,r,3.758999825,HOR,FALSE,,,,,,,136,forquilla,Catalan,Sounds/cat_forquilla.mp3,2020-06-08_20h10.22.080,TranslationElicitation_spa,3.2.4,Win32,60,5ede1e445c4bda03a80555e6,,1,0,80,31,1,79
,,,,,,,,,,,,,,,,,,,,,,,,,,,,,,,,,,,m,4.194000006,HORM,FALSE,,,,,,,136,forquilla,Catalan,Sounds/cat_forquilla.mp3,2020-06-08_20h10.22.080,TranslationElicitation_spa,3.2.4,Win32,60,5ede1e445c4bda03a80555e6,,1,0,80,31,1,79
,,,,,,,,,,,,,,,,,,,,,,,,,,,,,,,,,,,i,4.411000013,HORMI,FALSE,,,,,,,136,forquilla,Catalan,Sounds/cat_forquilla.mp3,2020-06-08_20h10.22.080,TranslationElicitation_spa,3.2.4,Win32,60,5ede1e445c4bda03a80555e6,,1,0,80,31,1,79
,,,,,,,,,,,,,,,,,,,,,,,,,,,,,,,,,,,g,4.710999966,HORMIG,FALSE,,,,,,,136,forquilla,Catalan,Sounds/cat_forquilla.mp3,2020-06-08_20h10.22.080,TranslationElicitation_spa,3.2.4,Win32,60,5ede1e445c4bda03a80555e6,,1,0,80,31,1,79
,,,,,,,,,,,,,,,,,,,,,,,,,,,,,,,,,,,a,5.061999798,HORMIGA,FALSE,,,,,,,136,forquilla,Catalan,Sounds/cat_forquilla.mp3,2020-06-08_20h10.22.080,TranslationElicitation_spa,3.2.4,Win32,60,5ede1e445c4bda03a80555e6,,1,0,80,31,1,79
,,,,,,,,,,,,,,,,,,,,,,,,,,,,,,,,,,,return,5.496999979,,FALSE,,,,,,,136,forquilla,Catalan,Sounds/cat_forquilla.mp3,2020-06-08_20h10.22.080,TranslationElicitation_spa,3.2.4,Win32,60,5ede1e445c4bda03a80555e6,5.496999979,1,0,80,31,1,79
,,,,,,,,,,,,,,,,,,,,,,,,,,,,,,,,,,,,,,,,,,,,,136,forquilla,Catalan,Sounds/cat_forquilla.mp3,2020-06-08_20h10.22.080,TranslationElicitation_spa,3.2.4,Win32,60,5ede1e445c4bda03a80555e6,,1,0,80,31,1,79
,,,,,,,,,,,,,,,,,,,,,,,,,,,,,,,,,,,v,5.377999783,V,FALSE,,,,,,,115,bolet,Catalan,Sounds/cat_bolet.mp3,2020-06-08_20h10.22.080,TranslationElicitation_spa,3.2.4,Win32,60,5ede1e445c4bda03a80555e6,,1,0,80,10,1,79
,,,,,,,,,,,,,,,,,,,,,,,,,,,,,,,,,,,u,6.196999788,VU,FALSE,,,,,,,115,bolet,Catalan,Sounds/cat_bolet.mp3,2020-06-08_20h10.22.080,TranslationElicitation_spa,3.2.4,Win32,60,5ede1e445c4bda03a80555e6,,1,0,80,10,1,79
,,,,,,,,,,,,,,,,,,,,,,,,,,,,,,,,,,,e,6.363999844,VUE,FALSE,,,,,,,115,bolet,Catalan,Sounds/cat_bolet.mp3,2020-06-08_20h10.22.080,TranslationElicitation_spa,3.2.4,Win32,60,5ede1e445c4bda03a80555e6,,1,0,80,10,1,79
,,,,,,,,,,,,,,,,,,,,,,,,,,,,,,,,,,,l,6.563999891,VUEL,FALSE,,,,,,,115,bolet,Catalan,Sounds/cat_bolet.mp3,2020-06-08_20h10.22.080,TranslationElicitation_spa,3.2.4,Win32,60,5ede1e445c4bda03a80555e6,,1,0,80,10,1,79
,,,,,,,,,,,,,,,,,,,,,,,,,,,,,,,,,,,o,6.747999907,VUELO,FALSE,,,,,,,115,bolet,Catalan,Sounds/cat_bolet.mp3,2020-06-08_20h10.22.080,TranslationElicitation_spa,3.2.4,Win32,60,5ede1e445c4bda03a80555e6,,1,0,80,10,1,79
,,,,,,,,,,,,,,,,,,,,,,,,,,,,,,,,,,,return,7.166999817,,FALSE,,,,,,,115,bolet,Catalan,Sounds/cat_bolet.mp3,2020-06-08_20h10.22.080,TranslationElicitation_spa,3.2.4,Win32,60,5ede1e445c4bda03a80555e6,7.165999889,1,0,80,10,1,79
,,,,,,,,,,,,,,,,,,,,,,,,,,,,,,,,,,,,,,,,,,,,,115,bolet,Catalan,Sounds/cat_bolet.mp3,2020-06-08_20h10.22.080,TranslationElicitation_spa,3.2.4,Win32,60,5ede1e445c4bda03a80555e6,,1,0,80,10,1,79
,,,,,,,,,,,,,,,,,,,,,,,,,,,,,,,,,,,c,1.785999775,C,FALSE,,,,,,,189,zebra,Catalan,Sounds/cat_zebra.mp3,2020-06-08_20h10.22.080,TranslationElicitation_spa,3.2.4,Win32,60,5ede1e445c4bda03a80555e6,,1,0,80,79,1,79
,,,,,,,,,,,,,,,,,,,,,,,,,,,,,,,,,,,e,2.052999973,CE,FALSE,,,,,,,189,zebra,Catalan,Sounds/cat_zebra.mp3,2020-06-08_20h10.22.080,TranslationElicitation_spa,3.2.4,Win32,60,5ede1e445c4bda03a80555e6,,1,0,80,79,1,79
,,,,,,,,,,,,,,,,,,,,,,,,,,,,,,,,,,,b,2.354999781,CEB,FALSE,,,,,,,189,zebra,Catalan,Sounds/cat_zebra.mp3,2020-06-08_20h10.22.080,TranslationElicitation_spa,3.2.4,Win32,60,5ede1e445c4bda03a80555e6,,1,0,80,79,1,79
,,,,,,,,,,,,,,,,,,,,,,,,,,,,,,,,,,,r,2.421000004,CEBR,FALSE,,,,,,,189,zebra,Catalan,Sounds/cat_zebra.mp3,2020-06-08_20h10.22.080,TranslationElicitation_spa,3.2.4,Win32,60,5ede1e445c4bda03a80555e6,,1,0,80,79,1,79
,,,,,,,,,,,,,,,,,,,,,,,,,,,,,,,,,,,a,2.804999828,CEBRA,FALSE,,,,,,,189,zebra,Catalan,Sounds/cat_zebra.mp3,2020-06-08_20h10.22.080,TranslationElicitation_spa,3.2.4,Win32,60,5ede1e445c4bda03a80555e6,,1,0,80,79,1,79
,,,,,,,,,,,,,,,,,,,,,,,,,,,,,,,,,,,return,3.156999826,,FALSE,,,,,,,189,zebra,Catalan,Sounds/cat_zebra.mp3,2020-06-08_20h10.22.080,TranslationElicitation_spa,3.2.4,Win32,60,5ede1e445c4bda03a80555e6,3.155999899,1,0,80,79,1,79
,,,,,,,,,,,,,,,,,,,,,,,,,,,,,,,,,,,,,,,,,,,,,189,zebra,Catalan,Sounds/cat_zebra.mp3,2020-06-08_20h10.22.080,TranslationElicitation_spa,3.2.4,Win32,60,5ede1e445c4bda03a80555e6,,1,0,80,79,1,79
,,,,,,,,,,,,,,,,,,,,,,,,,,,,,,,,,,,t,1.402000189,T,FALSE,,,,,,,181,tobogan,Catalan,Sounds/cat_tobogan.mp3,2020-06-08_20h10.22.080,TranslationElicitation_spa,3.2.4,Win32,60,5ede1e445c4bda03a80555e6,,1,0,80,72,1,79
,,,,,,,,,,,,,,,,,,,,,,,,,,,,,,,,,,,o,1.586000204,TO,FALSE,,,,,,,181,tobogan,Catalan,Sounds/cat_tobogan.mp3,2020-06-08_20h10.22.080,TranslationElicitation_spa,3.2.4,Win32,60,5ede1e445c4bda03a80555e6,,1,0,80,72,1,79
,,,,,,,,,,,,,,,,,,,,,,,,,,,,,,,,,,,b,1.736000061,TOB,FALSE,,,,,,,181,tobogan,Catalan,Sounds/cat_tobogan.mp3,2020-06-08_20h10.22.080,TranslationElicitation_spa,3.2.4,Win32,60,5ede1e445c4bda03a80555e6,,1,0,80,72,1,79
,,,,,,,,,,,,,,,,,,,,,,,,,,,,,,,,,,,o,1.887000084,TOBO,FALSE,,,,,,,181,tobogan,Catalan,Sounds/cat_tobogan.mp3,2020-06-08_20h10.22.080,TranslationElicitation_spa,3.2.4,Win32,60,5ede1e445c4bda03a80555e6,,1,0,80,72,1,79
,,,,,,,,,,,,,,,,,,,,,,,,,,,,,,,,,,,g,2.305000067,TOBOG,FALSE,,,,,,,181,tobogan,Catalan,Sounds/cat_tobogan.mp3,2020-06-08_20h10.22.080,TranslationElicitation_spa,3.2.4,Win32,60,5ede1e445c4bda03a80555e6,,1,0,80,72,1,79
,,,,,,,,,,,,,,,,,,,,,,,,,,,,,,,,,,,a,2.40500021,TOBOGA,FALSE,,,,,,,181,tobogan,Catalan,Sounds/cat_tobogan.mp3,2020-06-08_20h10.22.080,TranslationElicitation_spa,3.2.4,Win32,60,5ede1e445c4bda03a80555e6,,1,0,80,72,1,79
,,,,,,,,,,,,,,,,,,,,,,,,,,,,,,,,,,,n,2.622000217,TOBOGAN,FALSE,,,,,,,181,tobogan,Catalan,Sounds/cat_tobogan.mp3,2020-06-08_20h10.22.080,TranslationElicitation_spa,3.2.4,Win32,60,5ede1e445c4bda03a80555e6,,1,0,80,72,1,79
,,,,,,,,,,,,,,,,,,,,,,,,,,,,,,,,,,,return,3.273000002,,FALSE,,,,,,,181,tobogan,Catalan,Sounds/cat_tobogan.mp3,2020-06-08_20h10.22.080,TranslationElicitation_spa,3.2.4,Win32,60,5ede1e445c4bda03a80555e6,3.273000002,1,0,80,72,1,79
,,,,,,,,,,,,,,,,,,,,,,,,,,,,,,,,,,,,,,,,,,,,,181,tobogan,Catalan,Sounds/cat_tobogan.mp3,2020-06-08_20h10.22.080,TranslationElicitation_spa,3.2.4,Win32,60,5ede1e445c4bda03a80555e6,,1,0,80,72,1,79
,,,,,,,,,,,,,,,,,,,,,,,,,,,,,,,,,,,t,2.805000067,T,FALSE,,,,,,,184,ull,Catalan,Sounds/cat_ull.mp3,2020-06-08_20h10.22.080,TranslationElicitation_spa,3.2.4,Win32,60,5ede1e445c4bda03a80555e6,,1,0,80,75,1,79
,,,,,,,,,,,,,,,,,,,,,,,,,,,,,,,,,,,o,2.955000162,TO,FALSE,,,,,,,184,ull,Catalan,Sounds/cat_ull.mp3,2020-06-08_20h10.22.080,TranslationElicitation_spa,3.2.4,Win32,60,5ede1e445c4bda03a80555e6,,1,0,80,75,1,79
,,,,,,,,,,,,,,,,,,,,,,,,,,,,,,,,,,,d,3.123000145,TOD,FALSE,,,,,,,184,ull,Catalan,Sounds/cat_ull.mp3,2020-06-08_20h10.22.080,TranslationElicitation_spa,3.2.4,Win32,60,5ede1e445c4bda03a80555e6,,1,0,80,75,1,79
,,,,,,,,,,,,,,,,,,,,,,,,,,,,,,,,,,,o,3.24000001,TODO,FALSE,,,,,,,184,ull,Catalan,Sounds/cat_ull.mp3,2020-06-08_20h10.22.080,TranslationElicitation_spa,3.2.4,Win32,60,5ede1e445c4bda03a80555e6,,1,0,80,75,1,79
,,,,,,,,,,,,,,,,,,,,,,,,,,,,,,,,,,,s,3.373000145,TODOS,FALSE,,,,,,,184,ull,Catalan,Sounds/cat_ull.mp3,2020-06-08_20h10.22.080,TranslationElicitation_spa,3.2.4,Win32,60,5ede1e445c4bda03a80555e6,,1,0,80,75,1,79
,,,,,,,,,,,,,,,,,,,,,,,,,,,,,,,,,,,return,4.39199996,,FALSE,,,,,,,184,ull,Catalan,Sounds/cat_ull.mp3,2020-06-08_20h10.22.080,TranslationElicitation_spa,3.2.4,Win32,60,5ede1e445c4bda03a80555e6,4.39199996,1,0,80,75,1,79
,,,,,,,,,,,,,,,,,,,,,,,,,,,,,,,,,,,,,,,,,,,,,184,ull,Catalan,Sounds/cat_ull.mp3,2020-06-08_20h10.22.080,TranslationElicitation_spa,3.2.4,Win32,60,5ede1e445c4bda03a80555e6,,1,0,80,75,1,79
,,,,,,,,,,,,,,,,,,,,,,,,,,,,,,,,,,,n,6.815000057,N,FALSE,,,,,,,178,taronja,Catalan,Sounds/cat_taronja.mp3,2020-06-08_20h10.22.080,TranslationElicitation_spa,3.2.4,Win32,60,5ede1e445c4bda03a80555e6,,1,0,80,70,1,79
,,,,,,,,,,,,,,,,,,,,,,,,,,,,,,,,,,,a,6.916000128,NA,FALSE,,,,,,,178,taronja,Catalan,Sounds/cat_taronja.mp3,2020-06-08_20h10.22.080,TranslationElicitation_spa,3.2.4,Win32,60,5ede1e445c4bda03a80555e6,,1,0,80,70,1,79
,,,,,,,,,,,,,,,,,,,,,,,,,,,,,,,,,,,r,7.200000048,NAR,FALSE,,,,,,,178,taronja,Catalan,Sounds/cat_taronja.mp3,2020-06-08_20h10.22.080,TranslationElicitation_spa,3.2.4,Win32,60,5ede1e445c4bda03a80555e6,,1,0,80,70,1,79
,,,,,,,,,,,,,,,,,,,,,,,,,,,,,,,,,,,a,7.468000174,NARA,FALSE,,,,,,,178,taronja,Catalan,Sounds/cat_taronja.mp3,2020-06-08_20h10.22.080,TranslationElicitation_spa,3.2.4,Win32,60,5ede1e445c4bda03a80555e6,,1,0,80,70,1,79
,,,,,,,,,,,,,,,,,,,,,,,,,,,,,,,,,,,n,7.618000031,NARAN,FALSE,,,,,,,178,taronja,Catalan,Sounds/cat_taronja.mp3,2020-06-08_20h10.22.080,TranslationElicitation_spa,3.2.4,Win32,60,5ede1e445c4bda03a80555e6,,1,0,80,70,1,79
,,,,,,,,,,,,,,,,,,,,,,,,,,,,,,,,,,,j,7.801000118,NARANJ,FALSE,,,,,,,178,taronja,Catalan,Sounds/cat_taronja.mp3,2020-06-08_20h10.22.080,TranslationElicitation_spa,3.2.4,Win32,60,5ede1e445c4bda03a80555e6,,1,0,80,70,1,79
,,,,,,,,,,,,,,,,,,,,,,,,,,,,,,,,,,,a,7.90199995,NARANJA,FALSE,,,,,,,178,taronja,Catalan,Sounds/cat_taronja.mp3,2020-06-08_20h10.22.080,TranslationElicitation_spa,3.2.4,Win32,60,5ede1e445c4bda03a80555e6,,1,0,80,70,1,79
,,,,,,,,,,,,,,,,,,,,,,,,,,,,,,,,,,,return,8.320000172,,FALSE,,,,,,,178,taronja,Catalan,Sounds/cat_taronja.mp3,2020-06-08_20h10.22.080,TranslationElicitation_spa,3.2.4,Win32,60,5ede1e445c4bda03a80555e6,8.320000172,1,0,80,70,1,79
,,,,,,,,,,,,,,,,,,,,,,,,,,,,,,,,,,,,,,,,,,,,,178,taronja,Catalan,Sounds/cat_taronja.mp3,2020-06-08_20h10.22.080,TranslationElicitation_spa,3.2.4,Win32,60,5ede1e445c4bda03a80555e6,,1,0,80,70,1,79
,,,,,,,,,,,,,,,,,,,,,,,,,,,,,,,,,,,p,5.394999981,P,FALSE,,,,,,,165,pernil,Catalan,Sounds/cat_pernil.mp3,2020-06-08_20h10.22.080,TranslationElicitation_spa,3.2.4,Win32,60,5ede1e445c4bda03a80555e6,,1,0,80,58,1,79
,,,,,,,,,,,,,,,,,,,,,,,,,,,,,,,,,,,a,5.528000116,PA,FALSE,,,,,,,165,pernil,Catalan,Sounds/cat_pernil.mp3,2020-06-08_20h10.22.080,TranslationElicitation_spa,3.2.4,Win32,60,5ede1e445c4bda03a80555e6,,1,0,80,58,1,79
,,,,,,,,,,,,,,,,,,,,,,,,,,,,,,,,,,,r,5.879000187,PAR,FALSE,,,,,,,165,pernil,Catalan,Sounds/cat_pernil.mp3,2020-06-08_20h10.22.080,TranslationElicitation_spa,3.2.4,Win32,60,5ede1e445c4bda03a80555e6,,1,0,80,58,1,79
,,,,,,,,,,,,,,,,,,,,,,,,,,,,,,,,,,,q,6.147000074,PARQ,FALSE,,,,,,,165,pernil,Catalan,Sounds/cat_pernil.mp3,2020-06-08_20h10.22.080,TranslationElicitation_spa,3.2.4,Win32,60,5ede1e445c4bda03a80555e6,,1,0,80,58,1,79
,,,,,,,,,,,,,,,,,,,,,,,,,,,,,,,,,,,u,6.281000137,PARQU,FALSE,,,,,,,165,pernil,Catalan,Sounds/cat_pernil.mp3,2020-06-08_20h10.22.080,TranslationElicitation_spa,3.2.4,Win32,60,5ede1e445c4bda03a80555e6,,1,0,80,58,1,79
,,,,,,,,,,,,,,,,,,,,,,,,,,,,,,,,,,,e,6.397000074,PARQUE,FALSE,,,,,,,165,pernil,Catalan,Sounds/cat_pernil.mp3,2020-06-08_20h10.22.080,TranslationElicitation_spa,3.2.4,Win32,60,5ede1e445c4bda03a80555e6,,1,0,80,58,1,79
,,,,,,,,,,,,,,,,,,,,,,,,,,,,,,,,,,,return,6.798000097,,FALSE,,,,,,,165,pernil,Catalan,Sounds/cat_pernil.mp3,2020-06-08_20h10.22.080,TranslationElicitation_spa,3.2.4,Win32,60,5ede1e445c4bda03a80555e6,6.798000097,1,0,80,58,1,79
,,,,,,,,,,,,,,,,,,,,,,,,,,,,,,,,,,,,,,,,,,,,,165,pernil,Catalan,Sounds/cat_pernil.mp3,2020-06-08_20h10.22.080,TranslationElicitation_spa,3.2.4,Win32,60,5ede1e445c4bda03a80555e6,,1,0,80,58,1,79
,,,,,,,,,,,,,,,,,,,,,,,,,,,,,,,,,,,t,9.537000179,T,FALSE,,,,,,,176,samarreta,Catalan,Sounds/cat_samarreta.mp3,2020-06-08_20h10.22.080,TranslationElicitation_spa,3.2.4,Win32,60,5ede1e445c4bda03a80555e6,,1,0,80,68,1,79
,,,,,,,,,,,,,,,,,,,,,,,,,,,,,,,,,,,o,9.739000082,TO,FALSE,,,,,,,176,samarreta,Catalan,Sounds/cat_samarreta.mp3,2020-06-08_20h10.22.080,TranslationElicitation_spa,3.2.4,Win32,60,5ede1e445c4bda03a80555e6,,1,0,80,68,1,79
,,,,,,,,,,,,,,,,,,,,,,,,,,,,,,,,,,,r,10.07200003,TOR,FALSE,,,,,,,176,samarreta,Catalan,Sounds/cat_samarreta.mp3,2020-06-08_20h10.22.080,TranslationElicitation_spa,3.2.4,Win32,60,5ede1e445c4bda03a80555e6,,1,0,80,68,1,79
,,,,,,,,,,,,,,,,,,,,,,,,,,,,,,,,,,,r,10.20600009,TORR,FALSE,,,,,,,176,samarreta,Catalan,Sounds/cat_samarreta.mp3,2020-06-08_20h10.22.080,TranslationElicitation_spa,3.2.4,Win32,60,5ede1e445c4bda03a80555e6,,1,0,80,68,1,79
,,,,,,,,,,,,,,,,,,,,,,,,,,,,,,,,,,,e,10.45700002,TORRE,FALSE,,,,,,,176,samarreta,Catalan,Sounds/cat_samarreta.mp3,2020-06-08_20h10.22.080,TranslationElicitation_spa,3.2.4,Win32,60,5ede1e445c4bda03a80555e6,,1,0,80,68,1,79
,,,,,,,,,,,,,,,,,,,,,,,,,,,,,,,,,,,t,10.75700021,TORRET,FALSE,,,,,,,176,samarreta,Catalan,Sounds/cat_samarreta.mp3,2020-06-08_20h10.22.080,TranslationElicitation_spa,3.2.4,Win32,60,5ede1e445c4bda03a80555e6,,1,0,80,68,1,79
,,,,,,,,,,,,,,,,,,,,,,,,,,,,,,,,,,,a,10.82500005,TORRETA,FALSE,,,,,,,176,samarreta,Catalan,Sounds/cat_samarreta.mp3,2020-06-08_20h10.22.080,TranslationElicitation_spa,3.2.4,Win32,60,5ede1e445c4bda03a80555e6,,1,0,80,68,1,79
,,,,,,,,,,,,,,,,,,,,,,,,,,,,,,,,,,,return,11.32600021,,FALSE,,,,,,,176,samarreta,Catalan,Sounds/cat_samarreta.mp3,2020-06-08_20h10.22.080,TranslationElicitation_spa,3.2.4,Win32,60,5ede1e445c4bda03a80555e6,11.32600021,1,0,80,68,1,79
,,,,,,,,,,,,,,,,,,,,,,,,,,,,,,,,,,,,,,,,,,,,,176,samarreta,Catalan,Sounds/cat_samarreta.mp3,2020-06-08_20h10.22.080,TranslationElicitation_spa,3.2.4,Win32,60,5ede1e445c4bda03a80555e6,,1,0,80,68,1,79
,,,,,,,,,,,,,,,,,,,,,,,,,,,,,,,,,,,p,7.417000055,P,FALSE,,,,,,,171,pollastre,Catalan,Sounds/cat_pollastre.mp3,2020-06-08_20h10.22.080,TranslationElicitation_spa,3.2.4,Win32,60,5ede1e445c4bda03a80555e6,,1,0,80,63,1,79
,,,,,,,,,,,,,,,,,,,,,,,,,,,,,,,,,,,o,7.617000103,PO,FALSE,,,,,,,171,pollastre,Catalan,Sounds/cat_pollastre.mp3,2020-06-08_20h10.22.080,TranslationElicitation_spa,3.2.4,Win32,60,5ede1e445c4bda03a80555e6,,1,0,80,63,1,79
,,,,,,,,,,,,,,,,,,,,,,,,,,,,,,,,,,,d,7.700000048,POD,FALSE,,,,,,,171,pollastre,Catalan,Sounds/cat_pollastre.mp3,2020-06-08_20h10.22.080,TranslationElicitation_spa,3.2.4,Win32,60,5ede1e445c4bda03a80555e6,,1,0,80,63,1,79
,,,,,,,,,,,,,,,,,,,,,,,,,,,,,,,,,,,e,7.88499999,PODE,FALSE,,,,,,,171,pollastre,Catalan,Sounds/cat_pollastre.mp3,2020-06-08_20h10.22.080,TranslationElicitation_spa,3.2.4,Win32,60,5ede1e445c4bda03a80555e6,,1,0,80,63,1,79
,,,,,,,,,,,,,,,,,,,,,,,,,,,,,,,,,,,r,8.035000086,PODER,FALSE,,,,,,,171,pollastre,Catalan,Sounds/cat_pollastre.mp3,2020-06-08_20h10.22.080,TranslationElicitation_spa,3.2.4,Win32,60,5ede1e445c4bda03a80555e6,,1,0,80,63,1,79
,,,,,,,,,,,,,,,,,,,,,,,,,,,,,,,,,,,return,8.436000109,,FALSE,,,,,,,171,pollastre,Catalan,Sounds/cat_pollastre.mp3,2020-06-08_20h10.22.080,TranslationElicitation_spa,3.2.4,Win32,60,5ede1e445c4bda03a80555e6,8.436000109,1,0,80,63,1,79
,,,,,,,,,,,,,,,,,,,,,,,,,,,,,,,,,,,,,,,,,,,,,171,pollastre,Catalan,Sounds/cat_pollastre.mp3,2020-06-08_20h10.22.080,TranslationElicitation_spa,3.2.4,Win32,60,5ede1e445c4bda03a80555e6,,1,0,80,63,1,79
,,,,,,,,,,,,,,,,,,,,,,,,,,,,,,,,,,,c,1.335000038,C,FALSE,,,,,,,188,xocolata,Catalan,Sounds/cat_xocolata.mp3,2020-06-08_20h10.22.080,TranslationElicitation_spa,3.2.4,Win32,60,5ede1e445c4bda03a80555e6,,1,0,80,78,1,79
,,,,,,,,,,,,,,,,,,,,,,,,,,,,,,,,,,,h,1.502000093,CH,FALSE,,,,,,,188,xocolata,Catalan,Sounds/cat_xocolata.mp3,2020-06-08_20h10.22.080,TranslationElicitation_spa,3.2.4,Win32,60,5ede1e445c4bda03a80555e6,,1,0,80,78,1,79
,,,,,,,,,,,,,,,,,,,,,,,,,,,,,,,,,,,o,1.752000093,CHO,FALSE,,,,,,,188,xocolata,Catalan,Sounds/cat_xocolata.mp3,2020-06-08_20h10.22.080,TranslationElicitation_spa,3.2.4,Win32,60,5ede1e445c4bda03a80555e6,,1,0,80,78,1,79
,,,,,,,,,,,,,,,,,,,,,,,,,,,,,,,,,,,c,1.970000029,CHOC,FALSE,,,,,,,188,xocolata,Catalan,Sounds/cat_xocolata.mp3,2020-06-08_20h10.22.080,TranslationElicitation_spa,3.2.4,Win32,60,5ede1e445c4bda03a80555e6,,1,0,80,78,1,79
,,,,,,,,,,,,,,,,,,,,,,,,,,,,,,,,,,,o,2.087000132,CHOCO,FALSE,,,,,,,188,xocolata,Catalan,Sounds/cat_xocolata.mp3,2020-06-08_20h10.22.080,TranslationElicitation_spa,3.2.4,Win32,60,5ede1e445c4bda03a80555e6,,1,0,80,78,1,79
,,,,,,,,,,,,,,,,,,,,,,,,,,,,,,,,,,,l,2.404000044,CHOCOL,FALSE,,,,,,,188,xocolata,Catalan,Sounds/cat_xocolata.mp3,2020-06-08_20h10.22.080,TranslationElicitation_spa,3.2.4,Win32,60,5ede1e445c4bda03a80555e6,,1,0,80,78,1,79
,,,,,,,,,,,,,,,,,,,,,,,,,,,,,,,,,,,a,2.521000147,CHOCOLA,FALSE,,,,,,,188,xocolata,Catalan,Sounds/cat_xocolata.mp3,2020-06-08_20h10.22.080,TranslationElicitation_spa,3.2.4,Win32,60,5ede1e445c4bda03a80555e6,,1,0,80,78,1,79
,,,,,,,,,,,,,,,,,,,,,,,,,,,,,,,,,,,t,2.855000019,CHOCOLAT,FALSE,,,,,,,188,xocolata,Catalan,Sounds/cat_xocolata.mp3,2020-06-08_20h10.22.080,TranslationElicitation_spa,3.2.4,Win32,60,5ede1e445c4bda03a80555e6,,1,0,80,78,1,79
,,,,,,,,,,,,,,,,,,,,,,,,,,,,,,,,,,,e,2.972000122,CHOCOLATE,FALSE,,,,,,,188,xocolata,Catalan,Sounds/cat_xocolata.mp3,2020-06-08_20h10.22.080,TranslationElicitation_spa,3.2.4,Win32,60,5ede1e445c4bda03a80555e6,,1,0,80,78,1,79
,,,,,,,,,,,,,,,,,,,,,,,,,,,,,,,,,,,return,3.357000113,,FALSE,,,,,,,188,xocolata,Catalan,Sounds/cat_xocolata.mp3,2020-06-08_20h10.22.080,TranslationElicitation_spa,3.2.4,Win32,60,5ede1e445c4bda03a80555e6,3.357000113,1,0,80,78,1,79
,,,,,,,,,,,,,,,,,,,,,,,,,,,,,,,,,,,,,,,,,,,,,188,xocolata,Catalan,Sounds/cat_xocolata.mp3,2020-06-08_20h10.22.080,TranslationElicitation_spa,3.2.4,Win32,60,5ede1e445c4bda03a80555e6,,1,0,80,78,1,79
,,,,,,,,,,,,,,,,,,,,,,,,,,,,,,,,,,,p,1.196000099,P,FALSE,,,,,,,164,patata,Catalan,Sounds/cat_patata.mp3,2020-06-08_20h10.22.080,TranslationElicitation_spa,3.2.4,Win32,60,5ede1e445c4bda03a80555e6,,1,0,80,57,1,79
,,,,,,,,,,,,,,,,,,,,,,,,,,,,,,,,,,,a,1.345999956,PA,FALSE,,,,,,,164,patata,Catalan,Sounds/cat_patata.mp3,2020-06-08_20h10.22.080,TranslationElicitation_spa,3.2.4,Win32,60,5ede1e445c4bda03a80555e6,,1,0,80,57,1,79
,,,,,,,,,,,,,,,,,,,,,,,,,,,,,,,,,,,t,1.562999964,PAT,FALSE,,,,,,,164,patata,Catalan,Sounds/cat_patata.mp3,2020-06-08_20h10.22.080,TranslationElicitation_spa,3.2.4,Win32,60,5ede1e445c4bda03a80555e6,,1,0,80,57,1,79
,,,,,,,,,,,,,,,,,,,,,,,,,,,,,,,,,,,a,1.663000107,PATA,FALSE,,,,,,,164,patata,Catalan,Sounds/cat_patata.mp3,2020-06-08_20h10.22.080,TranslationElicitation_spa,3.2.4,Win32,60,5ede1e445c4bda03a80555e6,,1,0,80,57,1,79
,,,,,,,,,,,,,,,,,,,,,,,,,,,,,,,,,,,t,1.747999907,PATAT,FALSE,,,,,,,164,patata,Catalan,Sounds/cat_patata.mp3,2020-06-08_20h10.22.080,TranslationElicitation_spa,3.2.4,Win32,60,5ede1e445c4bda03a80555e6,,1,0,80,57,1,79
,,,,,,,,,,,,,,,,,,,,,,,,,,,,,,,,,,,a,1.864000082,PATATA,FALSE,,,,,,,164,patata,Catalan,Sounds/cat_patata.mp3,2020-06-08_20h10.22.080,TranslationElicitation_spa,3.2.4,Win32,60,5ede1e445c4bda03a80555e6,,1,0,80,57,1,79
,,,,,,,,,,,,,,,,,,,,,,,,,,,,,,,,,,,return,2.282000065,,FALSE,,,,,,,164,patata,Catalan,Sounds/cat_patata.mp3,2020-06-08_20h10.22.080,TranslationElicitation_spa,3.2.4,Win32,60,5ede1e445c4bda03a80555e6,2.282000065,1,0,80,57,1,79
,,,,,,,,,,,,,,,,,,,,,,,,,,,,,,,,,,,,,,,,,,,,,164,patata,Catalan,Sounds/cat_patata.mp3,2020-06-08_20h10.22.080,TranslationElicitation_spa,3.2.4,Win32,60,5ede1e445c4bda03a80555e6,,1,0,80,57,1,79
,,,,,,,,,,,,,,,,,,,,,,,,,,,,,,,,,,,b,2.506000042,B,FALSE,,,,,,,187,vaixell,Catalan,Sounds/cat_vaixell.mp3,2020-06-08_20h10.22.080,TranslationElicitation_spa,3.2.4,Win32,60,5ede1e445c4bda03a80555e6,,1,0,80,77,1,79
,,,,,,,,,,,,,,,,,,,,,,,,,,,,,,,,,,,a,2.622999907,BA,FALSE,,,,,,,187,vaixell,Catalan,Sounds/cat_vaixell.mp3,2020-06-08_20h10.22.080,TranslationElicitation_spa,3.2.4,Win32,60,5ede1e445c4bda03a80555e6,,1,0,80,77,1,79
,,,,,,,,,,,,,,,,,,,,,,,,,,,,,,,,,,,semicolon,2.940000057,BAÑ,FALSE,,,,,,,187,vaixell,Catalan,Sounds/cat_vaixell.mp3,2020-06-08_20h10.22.080,TranslationElicitation_spa,3.2.4,Win32,60,5ede1e445c4bda03a80555e6,,1,0,80,77,1,79
,,,,,,,,,,,,,,,,,,,,,,,,,,,,,,,,,,,a,3.056999922,BAÑA,FALSE,,,,,,,187,vaixell,Catalan,Sounds/cat_vaixell.mp3,2020-06-08_20h10.22.080,TranslationElicitation_spa,3.2.4,Win32,60,5ede1e445c4bda03a80555e6,,1,0,80,77,1,79
,,,,,,,,,,,,,,,,,,,,,,,,,,,,,,,,,,,r,3.457999945,BAÑAR,FALSE,,,,,,,187,vaixell,Catalan,Sounds/cat_vaixell.mp3,2020-06-08_20h10.22.080,TranslationElicitation_spa,3.2.4,Win32,60,5ede1e445c4bda03a80555e6,,1,0,80,77,1,79
,,,,,,,,,,,,,,,,,,,,,,,,,,,,,,,,,,,return,5.529999971,,FALSE,,,,,,,187,vaixell,Catalan,Sounds/cat_vaixell.mp3,2020-06-08_20h10.22.080,TranslationElicitation_spa,3.2.4,Win32,60,5ede1e445c4bda03a80555e6,5.529999971,1,0,80,77,1,79
,,,,,,,,,,,,,,,,,,,,,,,,,,,,,,,,,,,,,,,,,,,,,187,vaixell,Catalan,Sounds/cat_vaixell.mp3,2020-06-08_20h10.22.080,TranslationElicitation_spa,3.2.4,Win32,60,5ede1e445c4bda03a80555e6,,1,0,80,77,1,79
,,,,,,,,,,,,,,,,,,,,,,,,,,,,,,,,,,,e,1.451999903,E,FALSE,,,,,,,131,esponja,Catalan,Sounds/cat_esponja.mp3,2020-06-08_20h10.22.080,TranslationElicitation_spa,3.2.4,Win32,60,5ede1e445c4bda03a80555e6,,1,0,80,26,1,79
,,,,,,,,,,,,,,,,,,,,,,,,,,,,,,,,,,,s,1.70299983,ES,FALSE,,,,,,,131,esponja,Catalan,Sounds/cat_esponja.mp3,2020-06-08_20h10.22.080,TranslationElicitation_spa,3.2.4,Win32,60,5ede1e445c4bda03a80555e6,,1,0,80,26,1,79
,,,,,,,,,,,,,,,,,,,,,,,,,,,,,,,,,,,p,1.853999853,ESP,FALSE,,,,,,,131,esponja,Catalan,Sounds/cat_esponja.mp3,2020-06-08_20h10.22.080,TranslationElicitation_spa,3.2.4,Win32,60,5ede1e445c4bda03a80555e6,,1,0,80,26,1,79
,,,,,,,,,,,,,,,,,,,,,,,,,,,,,,,,,,,a,2.020999908,ESPA,FALSE,,,,,,,131,esponja,Catalan,Sounds/cat_esponja.mp3,2020-06-08_20h10.22.080,TranslationElicitation_spa,3.2.4,Win32,60,5ede1e445c4bda03a80555e6,,1,0,80,26,1,79
,,,,,,,,,,,,,,,,,,,,,,,,,,,,,,,,,,,semicolon,2.121999979,ESPAÑ,FALSE,,,,,,,131,esponja,Catalan,Sounds/cat_esponja.mp3,2020-06-08_20h10.22.080,TranslationElicitation_spa,3.2.4,Win32,60,5ede1e445c4bda03a80555e6,,1,0,80,26,1,79
,,,,,,,,,,,,,,,,,,,,,,,,,,,,,,,,,,,a,2.203999996,ESPAÑA,FALSE,,,,,,,131,esponja,Catalan,Sounds/cat_esponja.mp3,2020-06-08_20h10.22.080,TranslationElicitation_spa,3.2.4,Win32,60,5ede1e445c4bda03a80555e6,,1,0,80,26,1,79
,,,,,,,,,,,,,,,,,,,,,,,,,,,,,,,,,,,return,2.671999931,,FALSE,,,,,,,131,esponja,Catalan,Sounds/cat_esponja.mp3,2020-06-08_20h10.22.080,TranslationElicitation_spa,3.2.4,Win32,60,5ede1e445c4bda03a80555e6,2.671999931,1,0,80,26,1,79
,,,,,,,,,,,,,,,,,,,,,,,,,,,,,,,,,,,,,,,,,,,,,131,esponja,Catalan,Sounds/cat_esponja.mp3,2020-06-08_20h10.22.080,TranslationElicitation_spa,3.2.4,Win32,60,5ede1e445c4bda03a80555e6,,1,0,80,26,1,79
,,,,,,,,,,,,,,,,,,,,,,,,,,,,,,,,,,,f,5.144999981,F,FALSE,,,,,,,137,fulla,Catalan,Sounds/cat_fulla.mp3,2020-06-08_20h10.22.080,TranslationElicitation_spa,3.2.4,Win32,60,5ede1e445c4bda03a80555e6,,1,0,80,32,1,79
,,,,,,,,,,,,,,,,,,,,,,,,,,,,,,,,,,,u,5.379000187,FU,FALSE,,,,,,,137,fulla,Catalan,Sounds/cat_fulla.mp3,2020-06-08_20h10.22.080,TranslationElicitation_spa,3.2.4,Win32,60,5ede1e445c4bda03a80555e6,,1,0,80,32,1,79
,,,,,,,,,,,,,,,,,,,,,,,,,,,,,,,,,,,r,5.496999979,FUR,FALSE,,,,,,,137,fulla,Catalan,Sounds/cat_fulla.mp3,2020-06-08_20h10.22.080,TranslationElicitation_spa,3.2.4,Win32,60,5ede1e445c4bda03a80555e6,,1,0,80,32,1,79
,,,,,,,,,,,,,,,,,,,,,,,,,,,,,,,,,,,i,5.630000114,FURI,FALSE,,,,,,,137,fulla,Catalan,Sounds/cat_fulla.mp3,2020-06-08_20h10.22.080,TranslationElicitation_spa,3.2.4,Win32,60,5ede1e445c4bda03a80555e6,,1,0,80,32,1,79
,,,,,,,,,,,,,,,,,,,,,,,,,,,,,,,,,,,a,5.779999971,FURIA,FALSE,,,,,,,137,fulla,Catalan,Sounds/cat_fulla.mp3,2020-06-08_20h10.22.080,TranslationElicitation_spa,3.2.4,Win32,60,5ede1e445c4bda03a80555e6,,1,0,80,32,1,79
,,,,,,,,,,,,,,,,,,,,,,,,,,,,,,,,,,,return,6.281000137,,FALSE,,,,,,,137,fulla,Catalan,Sounds/cat_fulla.mp3,2020-06-08_20h10.22.080,TranslationElicitation_spa,3.2.4,Win32,60,5ede1e445c4bda03a80555e6,6.281000137,1,0,80,32,1,79
,,,,,,,,,,,,,,,,,,,,,,,,,,,,,,,,,,,,,,,,,,,,,137,fulla,Catalan,Sounds/cat_fulla.mp3,2020-06-08_20h10.22.080,TranslationElicitation_spa,3.2.4,Win32,60,5ede1e445c4bda03a80555e6,,1,0,80,32,1,79
,,,,,,,,,,,,,,,,,,,,,,,,,,,,,,,,,,,c,2.836999893,C,FALSE,,,,,,,126,corona,Catalan,Sounds/cat_corona.mp3,2020-06-08_20h10.22.080,TranslationElicitation_spa,3.2.4,Win32,60,5ede1e445c4bda03a80555e6,,1,0,80,21,1,79
,,,,,,,,,,,,,,,,,,,,,,,,,,,,,,,,,,,o,3.055000067,CO,FALSE,,,,,,,126,corona,Catalan,Sounds/cat_corona.mp3,2020-06-08_20h10.22.080,TranslationElicitation_spa,3.2.4,Win32,60,5ede1e445c4bda03a80555e6,,1,0,80,21,1,79
,,,,,,,,,,,,,,,,,,,,,,,,,,,,,,,,,,,r,3.305000067,COR,FALSE,,,,,,,126,corona,Catalan,Sounds/cat_corona.mp3,2020-06-08_20h10.22.080,TranslationElicitation_spa,3.2.4,Win32,60,5ede1e445c4bda03a80555e6,,1,0,80,21,1,79
,,,,,,,,,,,,,,,,,,,,,,,,,,,,,,,,,,,o,3.49000001,CORO,FALSE,,,,,,,126,corona,Catalan,Sounds/cat_corona.mp3,2020-06-08_20h10.22.080,TranslationElicitation_spa,3.2.4,Win32,60,5ede1e445c4bda03a80555e6,,1,0,80,21,1,79
,,,,,,,,,,,,,,,,,,,,,,,,,,,,,,,,,,,n,3.805999994,CORON,FALSE,,,,,,,126,corona,Catalan,Sounds/cat_corona.mp3,2020-06-08_20h10.22.080,TranslationElicitation_spa,3.2.4,Win32,60,5ede1e445c4bda03a80555e6,,1,0,80,21,1,79
,,,,,,,,,,,,,,,,,,,,,,,,,,,,,,,,,,,a,3.907000065,CORONA,FALSE,,,,,,,126,corona,Catalan,Sounds/cat_corona.mp3,2020-06-08_20h10.22.080,TranslationElicitation_spa,3.2.4,Win32,60,5ede1e445c4bda03a80555e6,,1,0,80,21,1,79
,,,,,,,,,,,,,,,,,,,,,,,,,,,,,,,,,,,return,4.424000025,,FALSE,,,,,,,126,corona,Catalan,Sounds/cat_corona.mp3,2020-06-08_20h10.22.080,TranslationElicitation_spa,3.2.4,Win32,60,5ede1e445c4bda03a80555e6,4.424000025,1,0,80,21,1,79
,,,,,,,,,,,,,,,,,,,,,,,,,,,,,,,,,,,,,,,,,,,,,126,corona,Catalan,Sounds/cat_corona.mp3,2020-06-08_20h10.22.080,TranslationElicitation_spa,3.2.4,Win32,60,5ede1e445c4bda03a80555e6,,1,0,80,21,1,79
,,,,,,,,,,,,,,,,,,,,,,,,,,,,,,,,,,,g,1.687000036,G,FALSE,,,,,,,144,gorra,Catalan,Sounds/cat_gorra.mp3,2020-06-08_20h10.22.080,TranslationElicitation_spa,3.2.4,Win32,60,5ede1e445c4bda03a80555e6,,1,0,80,39,1,79
,,,,,,,,,,,,,,,,,,,,,,,,,,,,,,,,,,,o,1.854000092,GO,FALSE,,,,,,,144,gorra,Catalan,Sounds/cat_gorra.mp3,2020-06-08_20h10.22.080,TranslationElicitation_spa,3.2.4,Win32,60,5ede1e445c4bda03a80555e6,,1,0,80,39,1,79
,,,,,,,,,,,,,,,,,,,,,,,,,,,,,,,,,,,r,1.988000154,GOR,FALSE,,,,,,,144,gorra,Catalan,Sounds/cat_gorra.mp3,2020-06-08_20h10.22.080,TranslationElicitation_spa,3.2.4,Win32,60,5ede1e445c4bda03a80555e6,,1,0,80,39,1,79
,,,,,,,,,,,,,,,,,,,,,,,,,,,,,,,,,,,r,2.121000051,GORR,FALSE,,,,,,,144,gorra,Catalan,Sounds/cat_gorra.mp3,2020-06-08_20h10.22.080,TranslationElicitation_spa,3.2.4,Win32,60,5ede1e445c4bda03a80555e6,,1,0,80,39,1,79
,,,,,,,,,,,,,,,,,,,,,,,,,,,,,,,,,,,a,2.42200017,GORRA,FALSE,,,,,,,144,gorra,Catalan,Sounds/cat_gorra.mp3,2020-06-08_20h10.22.080,TranslationElicitation_spa,3.2.4,Win32,60,5ede1e445c4bda03a80555e6,,1,0,80,39,1,79
,,,,,,,,,,,,,,,,,,,,,,,,,,,,,,,,,,,return,2.673000097,,FALSE,,,,,,,144,gorra,Catalan,Sounds/cat_gorra.mp3,2020-06-08_20h10.22.080,TranslationElicitation_spa,3.2.4,Win32,60,5ede1e445c4bda03a80555e6,2.673000097,1,0,80,39,1,79
,,,,,,,,,,,,,,,,,,,,,,,,,,,,,,,,,,,,,,,,,,,,,144,gorra,Catalan,Sounds/cat_gorra.mp3,2020-06-08_20h10.22.080,TranslationElicitation_spa,3.2.4,Win32,60,5ede1e445c4bda03a80555e6,,1,0,80,39,1,79
,,,,,,,,,,,,,,,,,,,,,,,,,,,,,,,,,,,p,4.226000071,P,FALSE,,,,,,,163,papallona,Catalan,Sounds/cat_papallona.mp3,2020-06-08_20h10.22.080,TranslationElicitation_spa,3.2.4,Win32,60,5ede1e445c4bda03a80555e6,,1,0,80,56,1,79
,,,,,,,,,,,,,,,,,,,,,,,,,,,,,,,,,,,a,4.393000126,PA,FALSE,,,,,,,163,papallona,Catalan,Sounds/cat_papallona.mp3,2020-06-08_20h10.22.080,TranslationElicitation_spa,3.2.4,Win32,60,5ede1e445c4bda03a80555e6,,1,0,80,56,1,79
,,,,,,,,,,,,,,,,,,,,,,,,,,,,,,,,,,,n,9.5400002,PAN,FALSE,,,,,,,163,papallona,Catalan,Sounds/cat_papallona.mp3,2020-06-08_20h10.22.080,TranslationElicitation_spa,3.2.4,Win32,60,5ede1e445c4bda03a80555e6,,1,0,80,56,1,79
,,,,,,,,,,,,,,,,,,,,,,,,,,,,,,,,,,,t,9.907000065,PANT,FALSE,,,,,,,163,papallona,Catalan,Sounds/cat_papallona.mp3,2020-06-08_20h10.22.080,TranslationElicitation_spa,3.2.4,Win32,60,5ede1e445c4bda03a80555e6,,1,0,80,56,1,79
,,,,,,,,,,,,,,,,,,,,,,,,,,,,,,,,,,,a,10.09200001,PANTA,FALSE,,,,,,,163,papallona,Catalan,Sounds/cat_papallona.mp3,2020-06-08_20h10.22.080,TranslationElicitation_spa,3.2.4,Win32,60,5ede1e445c4bda03a80555e6,,1,0,80,56,1,79
