consentKey.keys,consentKey.rt,languageL1Key.keys,languageL1Key.rt,languageL2,languageL2OralKey.keys,languageL2OralKey.rt,languageL2WrittenKey.keys,languageL2WrittenKey.rt,languageL3OralKey.keys,languageL3OralKey.rt,languageL3WrittenKey.keys,languageL3WrittenKey.rt,languageCatalanOralKey.keys,languageCatalanOralKey.rt,languageCatalanWrittenKey.keys,languageCatalanWrittenKey.rt,languageCatalanTimeKey.keys,languageCatalanTimeKey.rt,age,demoSexKey.keys,demoSexKey.rt,demoEducationKey.keys,demoEducationKey.rt,city,demoVisionKey.keys,demoVisionKey.rt,demoLanguageKey.keys,demoLanguageKey.rt,setupLocationKey.keys,setupLocationKey.rt,setupNoiseKey.keys,setupNoiseKey.rt,instructionsKeys.keys,instructionsKeys.rt,keyPressed,keyPressTime,inputText,error,trials_practice.thisRepN,trials_practice.thisTrialN,trials_practice.thisN,trials_practice.thisIndex,trials_practice.ran,trials_practice.order,trial_id,word,test_language,soundfile,date,expName,psychopyVersion,OS,frameRate,participant,trialOffset,trials.thisRepN,trials.thisTrialN,trials.thisN,trials.thisIndex,trials.ran,trials.order
space,3.289999962,e,5.638000011,,4,13.59100008,4,6.531999826,,,,,1,6.342999935,1,3.804999828,1,3.874000072,19,m,1.950000048,3,5.631999969,MURCIA,n,2.840999842,n,1.471999884,1,5.379999876,1,11.00499988,space,24.80199981,a,2.962000132,A,FALSE,1,0,5,0,1,4,109,arbre,Catalan,Sounds/cat_arbre.mp3,2020-06-13_12h12.57.975,TranslationElicitation_spa,3.2.4,Win32,60,5ede2161e9851d03c61433b5,,,,,,,
,,,,,,,,,,,,,,,,,,,,,,,,,,,,,,,,,,,r,3.262000084,AR,FALSE,1,0,5,0,1,4,109,arbre,Catalan,Sounds/cat_arbre.mp3,2020-06-13_12h12.57.975,TranslationElicitation_spa,3.2.4,Win32,60,5ede2161e9851d03c61433b5,,,,,,,
,,,,,,,,,,,,,,,,,,,,,,,,,,,,,,,,,,,b,3.663000107,ARB,FALSE,1,0,5,0,1,4,109,arbre,Catalan,Sounds/cat_arbre.mp3,2020-06-13_12h12.57.975,TranslationElicitation_spa,3.2.4,Win32,60,5ede2161e9851d03c61433b5,,,,,,,
,,,,,,,,,,,,,,,,,,,,,,,,,,,,,,,,,,,o,3.812000036,ARBO,FALSE,1,0,5,0,1,4,109,arbre,Catalan,Sounds/cat_arbre.mp3,2020-06-13_12h12.57.975,TranslationElicitation_spa,3.2.4,Win32,60,5ede2161e9851d03c61433b5,,,,,,,
,,,,,,,,,,,,,,,,,,,,,,,,,,,,,,,,,,,l,3.980000019,ARBOL,FALSE,1,0,5,0,1,4,109,arbre,Catalan,Sounds/cat_arbre.mp3,2020-06-13_12h12.57.975,TranslationElicitation_spa,3.2.4,Win32,60,5ede2161e9851d03c61433b5,,,,,,,
,,,,,,,,,,,,,,,,,,,,,,,,,,,,,,,,,,,return,4.380000114,,FALSE,1,0,5,0,1,4,109,arbre,Catalan,Sounds/cat_arbre.mp3,2020-06-13_12h12.57.975,TranslationElicitation_spa,3.2.4,Win32,60,5ede2161e9851d03c61433b5,4.380000114,,,,,,
,,,,,,,,,,,,,,,,,,,,,,,,,,,,,,,,,,,,,,,1,0,5,0,1,4,109,arbre,Catalan,Sounds/cat_arbre.mp3,2020-06-13_12h12.57.975,TranslationElicitation_spa,3.2.4,Win32,60,5ede2161e9851d03c61433b5,,,,,,,
,,,,,,,,,,,,,,,,,,,,,,,,,,,,,,,,,,,h,2.048000097,H,FALSE,1,0,5,2,1,4,159,onada,Catalan,Sounds/cat_onada.mp3,2020-06-13_12h12.57.975,TranslationElicitation_spa,3.2.4,Win32,60,5ede2161e9851d03c61433b5,,,,,,,
,,,,,,,,,,,,,,,,,,,,,,,,,,,,,,,,,,,a,2.213999987,HA,FALSE,1,0,5,2,1,4,159,onada,Catalan,Sounds/cat_onada.mp3,2020-06-13_12h12.57.975,TranslationElicitation_spa,3.2.4,Win32,60,5ede2161e9851d03c61433b5,,,,,,,
,,,,,,,,,,,,,,,,,,,,,,,,,,,,,,,,,,,d,2.315999985,HAD,FALSE,1,0,5,2,1,4,159,onada,Catalan,Sounds/cat_onada.mp3,2020-06-13_12h12.57.975,TranslationElicitation_spa,3.2.4,Win32,60,5ede2161e9851d03c61433b5,,,,,,,
,,,,,,,,,,,,,,,,,,,,,,,,,,,,,,,,,,,a,2.464999914,HADA,FALSE,1,0,5,2,1,4,159,onada,Catalan,Sounds/cat_onada.mp3,2020-06-13_12h12.57.975,TranslationElicitation_spa,3.2.4,Win32,60,5ede2161e9851d03c61433b5,,,,,,,
,,,,,,,,,,,,,,,,,,,,,,,,,,,,,,,,,,,return,2.665999889,,FALSE,1,0,5,2,1,4,159,onada,Catalan,Sounds/cat_onada.mp3,2020-06-13_12h12.57.975,TranslationElicitation_spa,3.2.4,Win32,60,5ede2161e9851d03c61433b5,2.664999962,,,,,,
,,,,,,,,,,,,,,,,,,,,,,,,,,,,,,,,,,,,,,,1,0,5,2,1,4,159,onada,Catalan,Sounds/cat_onada.mp3,2020-06-13_12h12.57.975,TranslationElicitation_spa,3.2.4,Win32,60,5ede2161e9851d03c61433b5,,,,,,,
,,,,,,,,,,,,,,,,,,,,,,,,,,,,,,,,,,,p,1.44900012,P,FALSE,1,0,5,3,1,4,167,pingui,Catalan,Sounds/cat_pingui.mp3,2020-06-13_12h12.57.975,TranslationElicitation_spa,3.2.4,Win32,60,5ede2161e9851d03c61433b5,,,,,,,
,,,,,,,,,,,,,,,,,,,,,,,,,,,,,,,,,,,i,1.999000072,PI,FALSE,1,0,5,3,1,4,167,pingui,Catalan,Sounds/cat_pingui.mp3,2020-06-13_12h12.57.975,TranslationElicitation_spa,3.2.4,Win32,60,5ede2161e9851d03c61433b5,,,,,,,
,,,,,,,,,,,,,,,,,,,,,,,,,,,,,,,,,,,n,2.131000042,PIN,FALSE,1,0,5,3,1,4,167,pingui,Catalan,Sounds/cat_pingui.mp3,2020-06-13_12h12.57.975,TranslationElicitation_spa,3.2.4,Win32,60,5ede2161e9851d03c61433b5,,,,,,,
,,,,,,,,,,,,,,,,,,,,,,,,,,,,,,,,,,,g,2.284000158,PING,FALSE,1,0,5,3,1,4,167,pingui,Catalan,Sounds/cat_pingui.mp3,2020-06-13_12h12.57.975,TranslationElicitation_spa,3.2.4,Win32,60,5ede2161e9851d03c61433b5,,,,,,,
,,,,,,,,,,,,,,,,,,,,,,,,,,,,,,,,,,,apostrophe,3.015000105,PING,FALSE,1,0,5,3,1,4,167,pingui,Catalan,Sounds/cat_pingui.mp3,2020-06-13_12h12.57.975,TranslationElicitation_spa,3.2.4,Win32,60,5ede2161e9851d03c61433b5,,,,,,,
,,,,,,,,,,,,,,,,,,,,,,,,,,,,,,,,,,,i,3.382000208,PINGÍ,FALSE,1,0,5,3,1,4,167,pingui,Catalan,Sounds/cat_pingui.mp3,2020-06-13_12h12.57.975,TranslationElicitation_spa,3.2.4,Win32,60,5ede2161e9851d03c61433b5,,,,,,,
,,,,,,,,,,,,,,,,,,,,,,,,,,,,,,,,,,,backspace,3.984000206,PIN,TRUE,1,0,5,3,1,4,167,pingui,Catalan,Sounds/cat_pingui.mp3,2020-06-13_12h12.57.975,TranslationElicitation_spa,3.2.4,Win32,60,5ede2161e9851d03c61433b5,,,,,,,
,,,,,,,,,,,,,,,,,,,,,,,,,,,,,,,,,,,apostrophe,4.633000135,PIN,TRUE,1,0,5,3,1,4,167,pingui,Catalan,Sounds/cat_pingui.mp3,2020-06-13_12h12.57.975,TranslationElicitation_spa,3.2.4,Win32,60,5ede2161e9851d03c61433b5,,,,,,,
,,,,,,,,,,,,,,,,,,,,,,,,,,,,,,,,,,,u,5.083000183,PINÚ,TRUE,1,0,5,3,1,4,167,pingui,Catalan,Sounds/cat_pingui.mp3,2020-06-13_12h12.57.975,TranslationElicitation_spa,3.2.4,Win32,60,5ede2161e9851d03c61433b5,,,,,,,
,,,,,,,,,,,,,,,,,,,,,,,,,,,,,,,,,,,i,5.430999994,PINÚI,TRUE,1,0,5,3,1,4,167,pingui,Catalan,Sounds/cat_pingui.mp3,2020-06-13_12h12.57.975,TranslationElicitation_spa,3.2.4,Win32,60,5ede2161e9851d03c61433b5,,,,,,,
,,,,,,,,,,,,,,,,,,,,,,,,,,,,,,,,,,,backspace,5.83100009,PIN,TRUE,1,0,5,3,1,4,167,pingui,Catalan,Sounds/cat_pingui.mp3,2020-06-13_12h12.57.975,TranslationElicitation_spa,3.2.4,Win32,60,5ede2161e9851d03c61433b5,,,,,,,
,,,,,,,,,,,,,,,,,,,,,,,,,,,,,,,,,,,backspace,5.930999994,P,TRUE,1,0,5,3,1,4,167,pingui,Catalan,Sounds/cat_pingui.mp3,2020-06-13_12h12.57.975,TranslationElicitation_spa,3.2.4,Win32,60,5ede2161e9851d03c61433b5,,,,,,,
,,,,,,,,,,,,,,,,,,,,,,,,,,,,,,,,,,,i,7.33100009,PI,TRUE,1,0,5,3,1,4,167,pingui,Catalan,Sounds/cat_pingui.mp3,2020-06-13_12h12.57.975,TranslationElicitation_spa,3.2.4,Win32,60,5ede2161e9851d03c61433b5,,,,,,,
,,,,,,,,,,,,,,,,,,,,,,,,,,,,,,,,,,,n,7.465000153,PIN,TRUE,1,0,5,3,1,4,167,pingui,Catalan,Sounds/cat_pingui.mp3,2020-06-13_12h12.57.975,TranslationElicitation_spa,3.2.4,Win32,60,5ede2161e9851d03c61433b5,,,,,,,
,,,,,,,,,,,,,,,,,,,,,,,,,,,,,,,,,,,g,8.715000153,PING,TRUE,1,0,5,3,1,4,167,pingui,Catalan,Sounds/cat_pingui.mp3,2020-06-13_12h12.57.975,TranslationElicitation_spa,3.2.4,Win32,60,5ede2161e9851d03c61433b5,,,,,,,
,,,,,,,,,,,,,,,,,,,,,,,,,,,,,,,,,,,apostrophe,9.014000177,PING,TRUE,1,0,5,3,1,4,167,pingui,Catalan,Sounds/cat_pingui.mp3,2020-06-13_12h12.57.975,TranslationElicitation_spa,3.2.4,Win32,60,5ede2161e9851d03c61433b5,,,,,,,
,,,,,,,,,,,,,,,,,,,,,,,,,,,,,,,,,,,u,9.463999987,PINGÚ,TRUE,1,0,5,3,1,4,167,pingui,Catalan,Sounds/cat_pingui.mp3,2020-06-13_12h12.57.975,TranslationElicitation_spa,3.2.4,Win32,60,5ede2161e9851d03c61433b5,,,,,,,
,,,,,,,,,,,,,,,,,,,,,,,,,,,,,,,,,,,i,9.881000042,PINGÚI,TRUE,1,0,5,3,1,4,167,pingui,Catalan,Sounds/cat_pingui.mp3,2020-06-13_12h12.57.975,TranslationElicitation_spa,3.2.4,Win32,60,5ede2161e9851d03c61433b5,,,,,,,
,,,,,,,,,,,,,,,,,,,,,,,,,,,,,,,,,,,n,10.58100009,PINGÚIN,TRUE,1,0,5,3,1,4,167,pingui,Catalan,Sounds/cat_pingui.mp3,2020-06-13_12h12.57.975,TranslationElicitation_spa,3.2.4,Win32,60,5ede2161e9851d03c61433b5,,,,,,,
,,,,,,,,,,,,,,,,,,,,,,,,,,,,,,,,,,,o,10.73100019,PINGÚINO,TRUE,1,0,5,3,1,4,167,pingui,Catalan,Sounds/cat_pingui.mp3,2020-06-13_12h12.57.975,TranslationElicitation_spa,3.2.4,Win32,60,5ede2161e9851d03c61433b5,,,,,,,
,,,,,,,,,,,,,,,,,,,,,,,,,,,,,,,,,,,return,10.98100019,,TRUE,1,0,5,3,1,4,167,pingui,Catalan,Sounds/cat_pingui.mp3,2020-06-13_12h12.57.975,TranslationElicitation_spa,3.2.4,Win32,60,5ede2161e9851d03c61433b5,10.98100019,,,,,,
,,,,,,,,,,,,,,,,,,,,,,,,,,,,,,,,,,,,,,,1,0,5,3,1,4,167,pingui,Catalan,Sounds/cat_pingui.mp3,2020-06-13_12h12.57.975,TranslationElicitation_spa,3.2.4,Win32,60,5ede2161e9851d03c61433b5,,,,,,,
,,,,,,,,,,,,,,,,,,,,,,,,,,,,,,,,,,,c,1.611999989,C,FALSE,1,0,5,1,1,4,147,jaqueta,Catalan,Sounds/cat_jaqueta.mp3,2020-06-13_12h12.57.975,TranslationElicitation_spa,3.2.4,Win32,60,5ede2161e9851d03c61433b5,,,,,,,
,,,,,,,,,,,,,,,,,,,,,,,,,,,,,,,,,,,h,1.795000076,CH,FALSE,1,0,5,1,1,4,147,jaqueta,Catalan,Sounds/cat_jaqueta.mp3,2020-06-13_12h12.57.975,TranslationElicitation_spa,3.2.4,Win32,60,5ede2161e9851d03c61433b5,,,,,,,
,,,,,,,,,,,,,,,,,,,,,,,,,,,,,,,,,,,a,1.878000021,CHA,FALSE,1,0,5,1,1,4,147,jaqueta,Catalan,Sounds/cat_jaqueta.mp3,2020-06-13_12h12.57.975,TranslationElicitation_spa,3.2.4,Win32,60,5ede2161e9851d03c61433b5,,,,,,,
,,,,,,,,,,,,,,,,,,,,,,,,,,,,,,,,,,,q,2.078000069,CHAQ,FALSE,1,0,5,1,1,4,147,jaqueta,Catalan,Sounds/cat_jaqueta.mp3,2020-06-13_12h12.57.975,TranslationElicitation_spa,3.2.4,Win32,60,5ede2161e9851d03c61433b5,,,,,,,
,,,,,,,,,,,,,,,,,,,,,,,,,,,,,,,,,,,u,2.177999973,CHAQU,FALSE,1,0,5,1,1,4,147,jaqueta,Catalan,Sounds/cat_jaqueta.mp3,2020-06-13_12h12.57.975,TranslationElicitation_spa,3.2.4,Win32,60,5ede2161e9851d03c61433b5,,,,,,,
,,,,,,,,,,,,,,,,,,,,,,,,,,,,,,,,,,,e,2.29399991,CHAQUE,FALSE,1,0,5,1,1,4,147,jaqueta,Catalan,Sounds/cat_jaqueta.mp3,2020-06-13_12h12.57.975,TranslationElicitation_spa,3.2.4,Win32,60,5ede2161e9851d03c61433b5,,,,,,,
,,,,,,,,,,,,,,,,,,,,,,,,,,,,,,,,,,,t,2.528000116,CHAQUET,FALSE,1,0,5,1,1,4,147,jaqueta,Catalan,Sounds/cat_jaqueta.mp3,2020-06-13_12h12.57.975,TranslationElicitation_spa,3.2.4,Win32,60,5ede2161e9851d03c61433b5,,,,,,,
,,,,,,,,,,,,,,,,,,,,,,,,,,,,,,,,,,,s,2.861000061,CHAQUETS,FALSE,1,0,5,1,1,4,147,jaqueta,Catalan,Sounds/cat_jaqueta.mp3,2020-06-13_12h12.57.975,TranslationElicitation_spa,3.2.4,Win32,60,5ede2161e9851d03c61433b5,,,,,,,
,,,,,,,,,,,,,,,,,,,,,,,,,,,,,,,,,,,backspace,3.413000107,CHAQUE,TRUE,1,0,5,1,1,4,147,jaqueta,Catalan,Sounds/cat_jaqueta.mp3,2020-06-13_12h12.57.975,TranslationElicitation_spa,3.2.4,Win32,60,5ede2161e9851d03c61433b5,,,,,,,
,,,,,,,,,,,,,,,,,,,,,,,,,,,,,,,,,,,a,3.462000132,CHAQUEA,TRUE,1,0,5,1,1,4,147,jaqueta,Catalan,Sounds/cat_jaqueta.mp3,2020-06-13_12h12.57.975,TranslationElicitation_spa,3.2.4,Win32,60,5ede2161e9851d03c61433b5,,,,,,,
,,,,,,,,,,,,,,,,,,,,,,,,,,,,,,,,,,,return,3.712000132,,TRUE,1,0,5,1,1,4,147,jaqueta,Catalan,Sounds/cat_jaqueta.mp3,2020-06-13_12h12.57.975,TranslationElicitation_spa,3.2.4,Win32,60,5ede2161e9851d03c61433b5,3.712000132,,,,,,
,,,,,,,,,,,,,,,,,,,,,,,,,,,,,,,,,,,,,,,1,0,5,1,1,4,147,jaqueta,Catalan,Sounds/cat_jaqueta.mp3,2020-06-13_12h12.57.975,TranslationElicitation_spa,3.2.4,Win32,60,5ede2161e9851d03c61433b5,,,,,,,
,,,,,,,,,,,,,,,,,,,,,,,,,,,,,,,,,,,t,1.530999899,T,FALSE,1,0,5,4,1,4,179,tigre,Catalan,Sounds/cat_tigre.mp3,2020-06-13_12h12.57.975,TranslationElicitation_spa,3.2.4,Win32,60,5ede2161e9851d03c61433b5,,,,,,,
,,,,,,,,,,,,,,,,,,,,,,,,,,,,,,,,,,,i,1.764999866,TI,FALSE,1,0,5,4,1,4,179,tigre,Catalan,Sounds/cat_tigre.mp3,2020-06-13_12h12.57.975,TranslationElicitation_spa,3.2.4,Win32,60,5ede2161e9851d03c61433b5,,,,,,,
,,,,,,,,,,,,,,,,,,,,,,,,,,,,,,,,,,,g,1.914000034,TIG,FALSE,1,0,5,4,1,4,179,tigre,Catalan,Sounds/cat_tigre.mp3,2020-06-13_12h12.57.975,TranslationElicitation_spa,3.2.4,Win32,60,5ede2161e9851d03c61433b5,,,,,,,
,,,,,,,,,,,,,,,,,,,,,,,,,,,,,,,,,,,r,2.181999922,TIGR,FALSE,1,0,5,4,1,4,179,tigre,Catalan,Sounds/cat_tigre.mp3,2020-06-13_12h12.57.975,TranslationElicitation_spa,3.2.4,Win32,60,5ede2161e9851d03c61433b5,,,,,,,
,,,,,,,,,,,,,,,,,,,,,,,,,,,,,,,,,,,e,2.247999907,TIGRE,FALSE,1,0,5,4,1,4,179,tigre,Catalan,Sounds/cat_tigre.mp3,2020-06-13_12h12.57.975,TranslationElicitation_spa,3.2.4,Win32,60,5ede2161e9851d03c61433b5,,,,,,,
,,,,,,,,,,,,,,,,,,,,,,,,,,,,,,,,,,,return,2.914999962,,FALSE,1,0,5,4,1,4,179,tigre,Catalan,Sounds/cat_tigre.mp3,2020-06-13_12h12.57.975,TranslationElicitation_spa,3.2.4,Win32,60,5ede2161e9851d03c61433b5,2.914999962,,,,,,
,,,,,,,,,,,,,,,,,,,,,,,,,,,,,,,,,,,,,,,1,0,5,4,1,4,179,tigre,Catalan,Sounds/cat_tigre.mp3,2020-06-13_12h12.57.975,TranslationElicitation_spa,3.2.4,Win32,60,5ede2161e9851d03c61433b5,,,,,,,
,,,,,,,,,,,,,,,,,,,,,,,,,,,,,,,,,,,c,4.165999889,C,FALSE,,,,,,,176,samarreta,Catalan,Sounds/cat_samarreta.mp3,2020-06-13_12h12.57.975,TranslationElicitation_spa,3.2.4,Win32,60,5ede2161e9851d03c61433b5,,1,0,80,68,1,79
,,,,,,,,,,,,,,,,,,,,,,,,,,,,,,,,,,,a,4.315999985,CA,FALSE,,,,,,,176,samarreta,Catalan,Sounds/cat_samarreta.mp3,2020-06-13_12h12.57.975,TranslationElicitation_spa,3.2.4,Win32,60,5ede2161e9851d03c61433b5,,1,0,80,68,1,79
,,,,,,,,,,,,,,,,,,,,,,,,,,,,,,,,,,,m,4.481999874,CAM,FALSE,,,,,,,176,samarreta,Catalan,Sounds/cat_samarreta.mp3,2020-06-13_12h12.57.975,TranslationElicitation_spa,3.2.4,Win32,60,5ede2161e9851d03c61433b5,,1,0,80,68,1,79
,,,,,,,,,,,,,,,,,,,,,,,,,,,,,,,,,,,i,4.61500001,CAMI,FALSE,,,,,,,176,samarreta,Catalan,Sounds/cat_samarreta.mp3,2020-06-13_12h12.57.975,TranslationElicitation_spa,3.2.4,Win32,60,5ede2161e9851d03c61433b5,,1,0,80,68,1,79
,,,,,,,,,,,,,,,,,,,,,,,,,,,,,,,,,,,s,4.731999874,CAMIS,FALSE,,,,,,,176,samarreta,Catalan,Sounds/cat_samarreta.mp3,2020-06-13_12h12.57.975,TranslationElicitation_spa,3.2.4,Win32,60,5ede2161e9851d03c61433b5,,1,0,80,68,1,79
,,,,,,,,,,,,,,,,,,,,,,,,,,,,,,,,,,,e,4.914999962,CAMISE,FALSE,,,,,,,176,samarreta,Catalan,Sounds/cat_samarreta.mp3,2020-06-13_12h12.57.975,TranslationElicitation_spa,3.2.4,Win32,60,5ede2161e9851d03c61433b5,,1,0,80,68,1,79
,,,,,,,,,,,,,,,,,,,,,,,,,,,,,,,,,,,t,5.131999969,CAMISET,FALSE,,,,,,,176,samarreta,Catalan,Sounds/cat_samarreta.mp3,2020-06-13_12h12.57.975,TranslationElicitation_spa,3.2.4,Win32,60,5ede2161e9851d03c61433b5,,1,0,80,68,1,79
,,,,,,,,,,,,,,,,,,,,,,,,,,,,,,,,,,,a,5.440999985,CAMISETA,FALSE,,,,,,,176,samarreta,Catalan,Sounds/cat_samarreta.mp3,2020-06-13_12h12.57.975,TranslationElicitation_spa,3.2.4,Win32,60,5ede2161e9851d03c61433b5,,1,0,80,68,1,79
,,,,,,,,,,,,,,,,,,,,,,,,,,,,,,,,,,,return,5.565000057,,FALSE,,,,,,,176,samarreta,Catalan,Sounds/cat_samarreta.mp3,2020-06-13_12h12.57.975,TranslationElicitation_spa,3.2.4,Win32,60,5ede2161e9851d03c61433b5,5.565000057,1,0,80,68,1,79
,,,,,,,,,,,,,,,,,,,,,,,,,,,,,,,,,,,,,,,,,,,,,176,samarreta,Catalan,Sounds/cat_samarreta.mp3,2020-06-13_12h12.57.975,TranslationElicitation_spa,3.2.4,Win32,60,5ede2161e9851d03c61433b5,,1,0,80,68,1,79
,,,,,,,,,,,,,,,,,,,,,,,,,,,,,,,,,,,l,4.049999952,L,FALSE,,,,,,,169,plat,Catalan,Sounds/cat_plat.mp3,2020-06-13_12h12.57.975,TranslationElicitation_spa,3.2.4,Win32,60,5ede2161e9851d03c61433b5,,1,0,80,61,1,79
,,,,,,,,,,,,,,,,,,,,,,,,,,,,,,,,,,,a,4.301000118,LA,FALSE,,,,,,,169,plat,Catalan,Sounds/cat_plat.mp3,2020-06-13_12h12.57.975,TranslationElicitation_spa,3.2.4,Win32,60,5ede2161e9851d03c61433b5,,1,0,80,61,1,79
,,,,,,,,,,,,,,,,,,,,,,,,,,,,,,,,,,,g,4.565999985,LAG,FALSE,,,,,,,169,plat,Catalan,Sounds/cat_plat.mp3,2020-06-13_12h12.57.975,TranslationElicitation_spa,3.2.4,Win32,60,5ede2161e9851d03c61433b5,,1,0,80,61,1,79
,,,,,,,,,,,,,,,,,,,,,,,,,,,,,,,,,,,o,5.249000072,LAGO,FALSE,,,,,,,169,plat,Catalan,Sounds/cat_plat.mp3,2020-06-13_12h12.57.975,TranslationElicitation_spa,3.2.4,Win32,60,5ede2161e9851d03c61433b5,,1,0,80,61,1,79
,,,,,,,,,,,,,,,,,,,,,,,,,,,,,,,,,,,return,5.48300004,,FALSE,,,,,,,169,plat,Catalan,Sounds/cat_plat.mp3,2020-06-13_12h12.57.975,TranslationElicitation_spa,3.2.4,Win32,60,5ede2161e9851d03c61433b5,5.48300004,1,0,80,61,1,79
,,,,,,,,,,,,,,,,,,,,,,,,,,,,,,,,,,,,,,,,,,,,,169,plat,Catalan,Sounds/cat_plat.mp3,2020-06-13_12h12.57.975,TranslationElicitation_spa,3.2.4,Win32,60,5ede2161e9851d03c61433b5,,1,0,80,61,1,79
,,,,,,,,,,,,,,,,,,,,,,,,,,,,,,,,,,,h,2.532999992,H,FALSE,,,,,,,136,forquilla,Catalan,Sounds/cat_forquilla.mp3,2020-06-13_12h12.57.975,TranslationElicitation_spa,3.2.4,Win32,60,5ede2161e9851d03c61433b5,,1,0,80,31,1,79
,,,,,,,,,,,,,,,,,,,,,,,,,,,,,,,,,,,o,2.648999929,HO,FALSE,,,,,,,136,forquilla,Catalan,Sounds/cat_forquilla.mp3,2020-06-13_12h12.57.975,TranslationElicitation_spa,3.2.4,Win32,60,5ede2161e9851d03c61433b5,,1,0,80,31,1,79
,,,,,,,,,,,,,,,,,,,,,,,,,,,,,,,,,,,r,2.866999865,HOR,FALSE,,,,,,,136,forquilla,Catalan,Sounds/cat_forquilla.mp3,2020-06-13_12h12.57.975,TranslationElicitation_spa,3.2.4,Win32,60,5ede2161e9851d03c61433b5,,1,0,80,31,1,79
,,,,,,,,,,,,,,,,,,,,,,,,,,,,,,,,,,,q,3.21600008,HORQ,FALSE,,,,,,,136,forquilla,Catalan,Sounds/cat_forquilla.mp3,2020-06-13_12h12.57.975,TranslationElicitation_spa,3.2.4,Win32,60,5ede2161e9851d03c61433b5,,1,0,80,31,1,79
,,,,,,,,,,,,,,,,,,,,,,,,,,,,,,,,,,,u,3.516000032,HORQU,FALSE,,,,,,,136,forquilla,Catalan,Sounds/cat_forquilla.mp3,2020-06-13_12h12.57.975,TranslationElicitation_spa,3.2.4,Win32,60,5ede2161e9851d03c61433b5,,1,0,80,31,1,79
,,,,,,,,,,,,,,,,,,,,,,,,,,,,,,,,,,,i,3.700000048,HORQUI,FALSE,,,,,,,136,forquilla,Catalan,Sounds/cat_forquilla.mp3,2020-06-13_12h12.57.975,TranslationElicitation_spa,3.2.4,Win32,60,5ede2161e9851d03c61433b5,,1,0,80,31,1,79
,,,,,,,,,,,,,,,,,,,,,,,,,,,,,,,,,,,l,3.915999889,HORQUIL,FALSE,,,,,,,136,forquilla,Catalan,Sounds/cat_forquilla.mp3,2020-06-13_12h12.57.975,TranslationElicitation_spa,3.2.4,Win32,60,5ede2161e9851d03c61433b5,,1,0,80,31,1,79
,,,,,,,,,,,,,,,,,,,,,,,,,,,,,,,,,,,l,4.098999977,HORQUILL,FALSE,,,,,,,136,forquilla,Catalan,Sounds/cat_forquilla.mp3,2020-06-13_12h12.57.975,TranslationElicitation_spa,3.2.4,Win32,60,5ede2161e9851d03c61433b5,,1,0,80,31,1,79
,,,,,,,,,,,,,,,,,,,,,,,,,,,,,,,,,,,a,4.233999968,HORQUILLA,FALSE,,,,,,,136,forquilla,Catalan,Sounds/cat_forquilla.mp3,2020-06-13_12h12.57.975,TranslationElicitation_spa,3.2.4,Win32,60,5ede2161e9851d03c61433b5,,1,0,80,31,1,79
,,,,,,,,,,,,,,,,,,,,,,,,,,,,,,,,,,,return,4.566999912,,FALSE,,,,,,,136,forquilla,Catalan,Sounds/cat_forquilla.mp3,2020-06-13_12h12.57.975,TranslationElicitation_spa,3.2.4,Win32,60,5ede2161e9851d03c61433b5,4.566999912,1,0,80,31,1,79
,,,,,,,,,,,,,,,,,,,,,,,,,,,,,,,,,,,,,,,,,,,,,136,forquilla,Catalan,Sounds/cat_forquilla.mp3,2020-06-13_12h12.57.975,TranslationElicitation_spa,3.2.4,Win32,60,5ede2161e9851d03c61433b5,,1,0,80,31,1,79
,,,,,,,,,,,,,,,,,,,,,,,,,,,,,,,,,,,a,3.633000135,A,FALSE,,,,,,,104,abella,Catalan,Sounds/cat_abella.mp3,2020-06-13_12h12.57.975,TranslationElicitation_spa,3.2.4,Win32,60,5ede2161e9851d03c61433b5,,1,0,80,0,1,79
,,,,,,,,,,,,,,,,,,,,,,,,,,,,,,,,,,,v,3.98300004,AV,FALSE,,,,,,,104,abella,Catalan,Sounds/cat_abella.mp3,2020-06-13_12h12.57.975,TranslationElicitation_spa,3.2.4,Win32,60,5ede2161e9851d03c61433b5,,1,0,80,0,1,79
,,,,,,,,,,,,,,,,,,,,,,,,,,,,,,,,,,,e,4.082000017,AVE,FALSE,,,,,,,104,abella,Catalan,Sounds/cat_abella.mp3,2020-06-13_12h12.57.975,TranslationElicitation_spa,3.2.4,Win32,60,5ede2161e9851d03c61433b5,,1,0,80,0,1,79
,,,,,,,,,,,,,,,,,,,,,,,,,,,,,,,,,,,l,4.232000113,AVEL,FALSE,,,,,,,104,abella,Catalan,Sounds/cat_abella.mp3,2020-06-13_12h12.57.975,TranslationElicitation_spa,3.2.4,Win32,60,5ede2161e9851d03c61433b5,,1,0,80,0,1,79
,,,,,,,,,,,,,,,,,,,,,,,,,,,,,,,,,,,l,4.36500001,AVELL,FALSE,,,,,,,104,abella,Catalan,Sounds/cat_abella.mp3,2020-06-13_12h12.57.975,TranslationElicitation_spa,3.2.4,Win32,60,5ede2161e9851d03c61433b5,,1,0,80,0,1,79
,,,,,,,,,,,,,,,,,,,,,,,,,,,,,,,,,,,a,4.44900012,AVELLA,FALSE,,,,,,,104,abella,Catalan,Sounds/cat_abella.mp3,2020-06-13_12h12.57.975,TranslationElicitation_spa,3.2.4,Win32,60,5ede2161e9851d03c61433b5,,1,0,80,0,1,79
,,,,,,,,,,,,,,,,,,,,,,,,,,,,,,,,,,,n,4.549999952,AVELLAN,FALSE,,,,,,,104,abella,Catalan,Sounds/cat_abella.mp3,2020-06-13_12h12.57.975,TranslationElicitation_spa,3.2.4,Win32,60,5ede2161e9851d03c61433b5,,1,0,80,0,1,79
,,,,,,,,,,,,,,,,,,,,,,,,,,,,,,,,,,,a,4.650000095,AVELLANA,FALSE,,,,,,,104,abella,Catalan,Sounds/cat_abella.mp3,2020-06-13_12h12.57.975,TranslationElicitation_spa,3.2.4,Win32,60,5ede2161e9851d03c61433b5,,1,0,80,0,1,79
,,,,,,,,,,,,,,,,,,,,,,,,,,,,,,,,,,,return,4.799000025,,FALSE,,,,,,,104,abella,Catalan,Sounds/cat_abella.mp3,2020-06-13_12h12.57.975,TranslationElicitation_spa,3.2.4,Win32,60,5ede2161e9851d03c61433b5,4.799000025,1,0,80,0,1,79
,,,,,,,,,,,,,,,,,,,,,,,,,,,,,,,,,,,,,,,,,,,,,104,abella,Catalan,Sounds/cat_abella.mp3,2020-06-13_12h12.57.975,TranslationElicitation_spa,3.2.4,Win32,60,5ede2161e9851d03c61433b5,,1,0,80,0,1,79
,,,,,,,,,,,,,,,,,,,,,,,,,,,,,,,,,,,o,2.249000072,O,FALSE,,,,,,,184,ull,Catalan,Sounds/cat_ull.mp3,2020-06-13_12h12.57.975,TranslationElicitation_spa,3.2.4,Win32,60,5ede2161e9851d03c61433b5,,1,0,80,75,1,79
,,,,,,,,,,,,,,,,,,,,,,,,,,,,,,,,,,,j,2.315999985,OJ,FALSE,,,,,,,184,ull,Catalan,Sounds/cat_ull.mp3,2020-06-13_12h12.57.975,TranslationElicitation_spa,3.2.4,Win32,60,5ede2161e9851d03c61433b5,,1,0,80,75,1,79
,,,,,,,,,,,,,,,,,,,,,,,,,,,,,,,,,,,o,2.4150002,OJO,FALSE,,,,,,,184,ull,Catalan,Sounds/cat_ull.mp3,2020-06-13_12h12.57.975,TranslationElicitation_spa,3.2.4,Win32,60,5ede2161e9851d03c61433b5,,1,0,80,75,1,79
,,,,,,,,,,,,,,,,,,,,,,,,,,,,,,,,,,,return,2.701000214,,FALSE,,,,,,,184,ull,Catalan,Sounds/cat_ull.mp3,2020-06-13_12h12.57.975,TranslationElicitation_spa,3.2.4,Win32,60,5ede2161e9851d03c61433b5,2.701000214,1,0,80,75,1,79
,,,,,,,,,,,,,,,,,,,,,,,,,,,,,,,,,,,,,,,,,,,,,184,ull,Catalan,Sounds/cat_ull.mp3,2020-06-13_12h12.57.975,TranslationElicitation_spa,3.2.4,Win32,60,5ede2161e9851d03c61433b5,,1,0,80,75,1,79
,,,,,,,,,,,,,,,,,,,,,,,,,,,,,,,,,,,g,3.263000011,G,FALSE,,,,,,,145,got,Catalan,Sounds/cat_got.mp3,2020-06-13_12h12.57.975,TranslationElicitation_spa,3.2.4,Win32,60,5ede2161e9851d03c61433b5,,1,0,80,40,1,79
,,,,,,,,,,,,,,,,,,,,,,,,,,,,,,,,,,,o,3.397000074,GO,FALSE,,,,,,,145,got,Catalan,Sounds/cat_got.mp3,2020-06-13_12h12.57.975,TranslationElicitation_spa,3.2.4,Win32,60,5ede2161e9851d03c61433b5,,1,0,80,40,1,79
,,,,,,,,,,,,,,,,,,,,,,,,,,,,,,,,,,,t,3.480000019,GOT,FALSE,,,,,,,145,got,Catalan,Sounds/cat_got.mp3,2020-06-13_12h12.57.975,TranslationElicitation_spa,3.2.4,Win32,60,5ede2161e9851d03c61433b5,,1,0,80,40,1,79
,,,,,,,,,,,,,,,,,,,,,,,,,,,,,,,,,,,a,3.746999979,GOTA,FALSE,,,,,,,145,got,Catalan,Sounds/cat_got.mp3,2020-06-13_12h12.57.975,TranslationElicitation_spa,3.2.4,Win32,60,5ede2161e9851d03c61433b5,,1,0,80,40,1,79
,,,,,,,,,,,,,,,,,,,,,,,,,,,,,,,,,,,return,4.096999884,,FALSE,,,,,,,145,got,Catalan,Sounds/cat_got.mp3,2020-06-13_12h12.57.975,TranslationElicitation_spa,3.2.4,Win32,60,5ede2161e9851d03c61433b5,4.096999884,1,0,80,40,1,79
,,,,,,,,,,,,,,,,,,,,,,,,,,,,,,,,,,,,,,,,,,,,,145,got,Catalan,Sounds/cat_got.mp3,2020-06-13_12h12.57.975,TranslationElicitation_spa,3.2.4,Win32,60,5ede2161e9851d03c61433b5,,1,0,80,40,1,79
,,,,,,,,,,,,,,,,,,,,,,,,,,,,,,,,,,,p,1.516000032,P,FALSE,,,,,,,171,pollastre,Catalan,Sounds/cat_pollastre.mp3,2020-06-13_12h12.57.975,TranslationElicitation_spa,3.2.4,Win32,60,5ede2161e9851d03c61433b5,,1,0,80,63,1,79
,,,,,,,,,,,,,,,,,,,,,,,,,,,,,,,,,,,o,1.600000143,PO,FALSE,,,,,,,171,pollastre,Catalan,Sounds/cat_pollastre.mp3,2020-06-13_12h12.57.975,TranslationElicitation_spa,3.2.4,Win32,60,5ede2161e9851d03c61433b5,,1,0,80,63,1,79
,,,,,,,,,,,,,,,,,,,,,,,,,,,,,,,,,,,l,1.800000191,POL,FALSE,,,,,,,171,pollastre,Catalan,Sounds/cat_pollastre.mp3,2020-06-13_12h12.57.975,TranslationElicitation_spa,3.2.4,Win32,60,5ede2161e9851d03c61433b5,,1,0,80,63,1,79
,,,,,,,,,,,,,,,,,,,,,,,,,,,,,,,,,,,l,1.96600008,POLL,FALSE,,,,,,,171,pollastre,Catalan,Sounds/cat_pollastre.mp3,2020-06-13_12h12.57.975,TranslationElicitation_spa,3.2.4,Win32,60,5ede2161e9851d03c61433b5,,1,0,80,63,1,79
,,,,,,,,,,,,,,,,,,,,,,,,,,,,,,,,,,,o,2.116000175,POLLO,FALSE,,,,,,,171,pollastre,Catalan,Sounds/cat_pollastre.mp3,2020-06-13_12h12.57.975,TranslationElicitation_spa,3.2.4,Win32,60,5ede2161e9851d03c61433b5,,1,0,80,63,1,79
,,,,,,,,,,,,,,,,,,,,,,,,,,,,,,,,,,,return,2.367000103,,FALSE,,,,,,,171,pollastre,Catalan,Sounds/cat_pollastre.mp3,2020-06-13_12h12.57.975,TranslationElicitation_spa,3.2.4,Win32,60,5ede2161e9851d03c61433b5,2.367000103,1,0,80,63,1,79
,,,,,,,,,,,,,,,,,,,,,,,,,,,,,,,,,,,,,,,,,,,,,171,pollastre,Catalan,Sounds/cat_pollastre.mp3,2020-06-13_12h12.57.975,TranslationElicitation_spa,3.2.4,Win32,60,5ede2161e9851d03c61433b5,,1,0,80,63,1,79
,,,,,,,,,,,,,,,,,,,,,,,,,,,,,,,,,,,h,1.299000025,H,FALSE,,,,,,,188,xocolata,Catalan,Sounds/cat_xocolata.mp3,2020-06-13_12h12.57.975,TranslationElicitation_spa,3.2.4,Win32,60,5ede2161e9851d03c61433b5,,1,0,80,78,1,79
,,,,,,,,,,,,,,,,,,,,,,,,,,,,,,,,,,,o,1.398999929,HO,FALSE,,,,,,,188,xocolata,Catalan,Sounds/cat_xocolata.mp3,2020-06-13_12h12.57.975,TranslationElicitation_spa,3.2.4,Win32,60,5ede2161e9851d03c61433b5,,1,0,80,78,1,79
,,,,,,,,,,,,,,,,,,,,,,,,,,,,,,,,,,,c,1.598999977,HOC,FALSE,,,,,,,188,xocolata,Catalan,Sounds/cat_xocolata.mp3,2020-06-13_12h12.57.975,TranslationElicitation_spa,3.2.4,Win32,60,5ede2161e9851d03c61433b5,,1,0,80,78,1,79
,,,,,,,,,,,,,,,,,,,,,,,,,,,,,,,,,,,o,1.683000088,HOCO,FALSE,,,,,,,188,xocolata,Catalan,Sounds/cat_xocolata.mp3,2020-06-13_12h12.57.975,TranslationElicitation_spa,3.2.4,Win32,60,5ede2161e9851d03c61433b5,,1,0,80,78,1,79
,,,,,,,,,,,,,,,,,,,,,,,,,,,,,,,,,,,l,1.865999937,HOCOL,FALSE,,,,,,,188,xocolata,Catalan,Sounds/cat_xocolata.mp3,2020-06-13_12h12.57.975,TranslationElicitation_spa,3.2.4,Win32,60,5ede2161e9851d03c61433b5,,1,0,80,78,1,79
,,,,,,,,,,,,,,,,,,,,,,,,,,,,,,,,,,,a,1.948999882,HOCOLA,FALSE,,,,,,,188,xocolata,Catalan,Sounds/cat_xocolata.mp3,2020-06-13_12h12.57.975,TranslationElicitation_spa,3.2.4,Win32,60,5ede2161e9851d03c61433b5,,1,0,80,78,1,79
,,,,,,,,,,,,,,,,,,,,,,,,,,,,,,,,,,,t,2.21600008,HOCOLAT,FALSE,,,,,,,188,xocolata,Catalan,Sounds/cat_xocolata.mp3,2020-06-13_12h12.57.975,TranslationElicitation_spa,3.2.4,Win32,60,5ede2161e9851d03c61433b5,,1,0,80,78,1,79
,,,,,,,,,,,,,,,,,,,,,,,,,,,,,,,,,,,e,2.315000057,HOCOLATE,FALSE,,,,,,,188,xocolata,Catalan,Sounds/cat_xocolata.mp3,2020-06-13_12h12.57.975,TranslationElicitation_spa,3.2.4,Win32,60,5ede2161e9851d03c61433b5,,1,0,80,78,1,79
,,,,,,,,,,,,,,,,,,,,,,,,,,,,,,,,,,,backspace,2.799000025,HOCOLA,TRUE,,,,,,,188,xocolata,Catalan,Sounds/cat_xocolata.mp3,2020-06-13_12h12.57.975,TranslationElicitation_spa,3.2.4,Win32,60,5ede2161e9851d03c61433b5,,1,0,80,78,1,79
,,,,,,,,,,,,,,,,,,,,,,,,,,,,,,,,,,,backspace,3.247999907,HOCO,TRUE,,,,,,,188,xocolata,Catalan,Sounds/cat_xocolata.mp3,2020-06-13_12h12.57.975,TranslationElicitation_spa,3.2.4,Win32,60,5ede2161e9851d03c61433b5,,1,0,80,78,1,79
,,,,,,,,,,,,,,,,,,,,,,,,,,,,,,,,,,,backspace,3.264999866,HO,TRUE,,,,,,,188,xocolata,Catalan,Sounds/cat_xocolata.mp3,2020-06-13_12h12.57.975,TranslationElicitation_spa,3.2.4,Win32,60,5ede2161e9851d03c61433b5,,1,0,80,78,1,79
,,,,,,,,,,,,,,,,,,,,,,,,,,,,,,,,,,,backspace,3.297999859,,TRUE,,,,,,,188,xocolata,Catalan,Sounds/cat_xocolata.mp3,2020-06-13_12h12.57.975,TranslationElicitation_spa,3.2.4,Win32,60,5ede2161e9851d03c61433b5,,1,0,80,78,1,79
,,,,,,,,,,,,,,,,,,,,,,,,,,,,,,,,,,,backspace,3.315000057,,TRUE,,,,,,,188,xocolata,Catalan,Sounds/cat_xocolata.mp3,2020-06-13_12h12.57.975,TranslationElicitation_spa,3.2.4,Win32,60,5ede2161e9851d03c61433b5,,1,0,80,78,1,79
,,,,,,,,,,,,,,,,,,,,,,,,,,,,,,,,,,,backspace,3.34800005,,TRUE,,,,,,,188,xocolata,Catalan,Sounds/cat_xocolata.mp3,2020-06-13_12h12.57.975,TranslationElicitation_spa,3.2.4,Win32,60,5ede2161e9851d03c61433b5,,1,0,80,78,1,79
,,,,,,,,,,,,,,,,,,,,,,,,,,,,,,,,,,,backspace,3.36500001,,TRUE,,,,,,,188,xocolata,Catalan,Sounds/cat_xocolata.mp3,2020-06-13_12h12.57.975,TranslationElicitation_spa,3.2.4,Win32,60,5ede2161e9851d03c61433b5,,1,0,80,78,1,79
,,,,,,,,,,,,,,,,,,,,,,,,,,,,,,,,,,,backspace,3.398000002,,TRUE,,,,,,,188,xocolata,Catalan,Sounds/cat_xocolata.mp3,2020-06-13_12h12.57.975,TranslationElicitation_spa,3.2.4,Win32,60,5ede2161e9851d03c61433b5,,1,0,80,78,1,79
,,,,,,,,,,,,,,,,,,,,,,,,,,,,,,,,,,,backspace,3.414999962,,TRUE,,,,,,,188,xocolata,Catalan,Sounds/cat_xocolata.mp3,2020-06-13_12h12.57.975,TranslationElicitation_spa,3.2.4,Win32,60,5ede2161e9851d03c61433b5,,1,0,80,78,1,79
,,,,,,,,,,,,,,,,,,,,,,,,,,,,,,,,,,,backspace,3.73300004,,TRUE,,,,,,,188,xocolata,Catalan,Sounds/cat_xocolata.mp3,2020-06-13_12h12.57.975,TranslationElicitation_spa,3.2.4,Win32,60,5ede2161e9851d03c61433b5,,1,0,80,78,1,79
,,,,,,,,,,,,,,,,,,,,,,,,,,,,,,,,,,,c,3.849999905,C,TRUE,,,,,,,188,xocolata,Catalan,Sounds/cat_xocolata.mp3,2020-06-13_12h12.57.975,TranslationElicitation_spa,3.2.4,Win32,60,5ede2161e9851d03c61433b5,,1,0,80,78,1,79
,,,,,,,,,,,,,,,,,,,,,,,,,,,,,,,,,,,h,4.082999945,CH,TRUE,,,,,,,188,xocolata,Catalan,Sounds/cat_xocolata.mp3,2020-06-13_12h12.57.975,TranslationElicitation_spa,3.2.4,Win32,60,5ede2161e9851d03c61433b5,,1,0,80,78,1,79
,,,,,,,,,,,,,,,,,,,,,,,,,,,,,,,,,,,o,4.23300004,CHO,TRUE,,,,,,,188,xocolata,Catalan,Sounds/cat_xocolata.mp3,2020-06-13_12h12.57.975,TranslationElicitation_spa,3.2.4,Win32,60,5ede2161e9851d03c61433b5,,1,0,80,78,1,79
,,,,,,,,,,,,,,,,,,,,,,,,,,,,,,,,,,,c,4.433000088,CHOC,TRUE,,,,,,,188,xocolata,Catalan,Sounds/cat_xocolata.mp3,2020-06-13_12h12.57.975,TranslationElicitation_spa,3.2.4,Win32,60,5ede2161e9851d03c61433b5,,1,0,80,78,1,79
,,,,,,,,,,,,,,,,,,,,,,,,,,,,,,,,,,,o,4.514999866,CHOCO,TRUE,,,,,,,188,xocolata,Catalan,Sounds/cat_xocolata.mp3,2020-06-13_12h12.57.975,TranslationElicitation_spa,3.2.4,Win32,60,5ede2161e9851d03c61433b5,,1,0,80,78,1,79
,,,,,,,,,,,,,,,,,,,,,,,,,,,,,,,,,,,l,4.708999872,CHOCOL,TRUE,,,,,,,188,xocolata,Catalan,Sounds/cat_xocolata.mp3,2020-06-13_12h12.57.975,TranslationElicitation_spa,3.2.4,Win32,60,5ede2161e9851d03c61433b5,,1,0,80,78,1,79
,,,,,,,,,,,,,,,,,,,,,,,,,,,,,,,,,,,a,4.809999943,CHOCOLA,TRUE,,,,,,,188,xocolata,Catalan,Sounds/cat_xocolata.mp3,2020-06-13_12h12.57.975,TranslationElicitation_spa,3.2.4,Win32,60,5ede2161e9851d03c61433b5,,1,0,80,78,1,79
,,,,,,,,,,,,,,,,,,,,,,,,,,,,,,,,,,,t,5.093999863,CHOCOLAT,TRUE,,,,,,,188,xocolata,Catalan,Sounds/cat_xocolata.mp3,2020-06-13_12h12.57.975,TranslationElicitation_spa,3.2.4,Win32,60,5ede2161e9851d03c61433b5,,1,0,80,78,1,79
,,,,,,,,,,,,,,,,,,,,,,,,,,,,,,,,,,,e,5.197000027,CHOCOLATE,TRUE,,,,,,,188,xocolata,Catalan,Sounds/cat_xocolata.mp3,2020-06-13_12h12.57.975,TranslationElicitation_spa,3.2.4,Win32,60,5ede2161e9851d03c61433b5,,1,0,80,78,1,79
,,,,,,,,,,,,,,,,,,,,,,,,,,,,,,,,,,,return,5.359999895,,TRUE,,,,,,,188,xocolata,Catalan,Sounds/cat_xocolata.mp3,2020-06-13_12h12.57.975,TranslationElicitation_spa,3.2.4,Win32,60,5ede2161e9851d03c61433b5,5.359999895,1,0,80,78,1,79
,,,,,,,,,,,,,,,,,,,,,,,,,,,,,,,,,,,,,,,,,,,,,188,xocolata,Catalan,Sounds/cat_xocolata.mp3,2020-06-13_12h12.57.975,TranslationElicitation_spa,3.2.4,Win32,60,5ede2161e9851d03c61433b5,,1,0,80,78,1,79
,,,,,,,,,,,,,,,,,,,,,,,,,,,,,,,,,,,e,3.295000076,E,FALSE,,,,,,,154,mirall,Catalan,Sounds/cat_mirall.mp3,2020-06-13_12h12.57.975,TranslationElicitation_spa,3.2.4,Win32,60,5ede2161e9851d03c61433b5,,1,0,80,48,1,79
,,,,,,,,,,,,,,,,,,,,,,,,,,,,,,,,,,,s,3.513000011,ES,FALSE,,,,,,,154,mirall,Catalan,Sounds/cat_mirall.mp3,2020-06-13_12h12.57.975,TranslationElicitation_spa,3.2.4,Win32,60,5ede2161e9851d03c61433b5,,1,0,80,48,1,79
,,,,,,,,,,,,,,,,,,,,,,,,,,,,,,,,,,,p,3.601999998,ESP,FALSE,,,,,,,154,mirall,Catalan,Sounds/cat_mirall.mp3,2020-06-13_12h12.57.975,TranslationElicitation_spa,3.2.4,Win32,60,5ede2161e9851d03c61433b5,,1,0,80,48,1,79
,,,,,,,,,,,,,,,,,,,,,,,,,,,,,,,,,,,e,3.746000051,ESPE,FALSE,,,,,,,154,mirall,Catalan,Sounds/cat_mirall.mp3,2020-06-13_12h12.57.975,TranslationElicitation_spa,3.2.4,Win32,60,5ede2161e9851d03c61433b5,,1,0,80,48,1,79
,,,,,,,,,,,,,,,,,,,,,,,,,,,,,,,,,,,j,3.927000046,ESPEJ,FALSE,,,,,,,154,mirall,Catalan,Sounds/cat_mirall.mp3,2020-06-13_12h12.57.975,TranslationElicitation_spa,3.2.4,Win32,60,5ede2161e9851d03c61433b5,,1,0,80,48,1,79
,,,,,,,,,,,,,,,,,,,,,,,,,,,,,,,,,,,o,4.029000044,ESPEJO,FALSE,,,,,,,154,mirall,Catalan,Sounds/cat_mirall.mp3,2020-06-13_12h12.57.975,TranslationElicitation_spa,3.2.4,Win32,60,5ede2161e9851d03c61433b5,,1,0,80,48,1,79
,,,,,,,,,,,,,,,,,,,,,,,,,,,,,,,,,,,return,4.180000067,,FALSE,,,,,,,154,mirall,Catalan,Sounds/cat_mirall.mp3,2020-06-13_12h12.57.975,TranslationElicitation_spa,3.2.4,Win32,60,5ede2161e9851d03c61433b5,4.180000067,1,0,80,48,1,79
,,,,,,,,,,,,,,,,,,,,,,,,,,,,,,,,,,,,,,,,,,,,,154,mirall,Catalan,Sounds/cat_mirall.mp3,2020-06-13_12h12.57.975,TranslationElicitation_spa,3.2.4,Win32,60,5ede2161e9851d03c61433b5,,1,0,80,48,1,79
,,,,,,,,,,,,,,,,,,,,,,,,,,,,,,,,,,,p,2.731999874,P,FALSE,,,,,,,166,peu,Catalan,Sounds/cat_peu.mp3,2020-06-13_12h12.57.975,TranslationElicitation_spa,3.2.4,Win32,60,5ede2161e9851d03c61433b5,,1,0,80,59,1,79
,,,,,,,,,,,,,,,,,,,,,,,,,,,,,,,,,,,i,2.930999994,PI,FALSE,,,,,,,166,peu,Catalan,Sounds/cat_peu.mp3,2020-06-13_12h12.57.975,TranslationElicitation_spa,3.2.4,Win32,60,5ede2161e9851d03c61433b5,,1,0,80,59,1,79
,,,,,,,,,,,,,,,,,,,,,,,,,,,,,,,,,,,e,3.047999859,PIE,FALSE,,,,,,,166,peu,Catalan,Sounds/cat_peu.mp3,2020-06-13_12h12.57.975,TranslationElicitation_spa,3.2.4,Win32,60,5ede2161e9851d03c61433b5,,1,0,80,59,1,79
,,,,,,,,,,,,,,,,,,,,,,,,,,,,,,,,,,,l,3.197999954,PIEL,FALSE,,,,,,,166,peu,Catalan,Sounds/cat_peu.mp3,2020-06-13_12h12.57.975,TranslationElicitation_spa,3.2.4,Win32,60,5ede2161e9851d03c61433b5,,1,0,80,59,1,79
,,,,,,,,,,,,,,,,,,,,,,,,,,,,,,,,,,,return,3.431999922,,FALSE,,,,,,,166,peu,Catalan,Sounds/cat_peu.mp3,2020-06-13_12h12.57.975,TranslationElicitation_spa,3.2.4,Win32,60,5ede2161e9851d03c61433b5,3.431999922,1,0,80,59,1,79
,,,,,,,,,,,,,,,,,,,,,,,,,,,,,,,,,,,,,,,,,,,,,166,peu,Catalan,Sounds/cat_peu.mp3,2020-06-13_12h12.57.975,TranslationElicitation_spa,3.2.4,Win32,60,5ede2161e9851d03c61433b5,,1,0,80,59,1,79
,,,,,,,,,,,,,,,,,,,,,,,,,,,,,,,,,,,o,1.847999811,O,FALSE,,,,,,,143,globus,Catalan,Sounds/cat_globus.mp3,2020-06-13_12h12.57.975,TranslationElicitation_spa,3.2.4,Win32,60,5ede2161e9851d03c61433b5,,1,0,80,38,1,79
,,,,,,,,,,,,,,,,,,,,,,,,,,,,,,,,,,,o,2.047999859,OO,FALSE,,,,,,,143,globus,Catalan,Sounds/cat_globus.mp3,2020-06-13_12h12.57.975,TranslationElicitation_spa,3.2.4,Win32,60,5ede2161e9851d03c61433b5,,1,0,80,38,1,79
,,,,,,,,,,,,,,,,,,,,,,,,,,,,,,,,,,,b,2.148000002,OOB,FALSE,,,,,,,143,globus,Catalan,Sounds/cat_globus.mp3,2020-06-13_12h12.57.975,TranslationElicitation_spa,3.2.4,Win32,60,5ede2161e9851d03c61433b5,,1,0,80,38,1,79
,,,,,,,,,,,,,,,,,,,,,,,,,,,,,,,,,,,backspace,2.496999979,O,TRUE,,,,,,,143,globus,Catalan,Sounds/cat_globus.mp3,2020-06-13_12h12.57.975,TranslationElicitation_spa,3.2.4,Win32,60,5ede2161e9851d03c61433b5,,1,0,80,38,1,79
,,,,,,,,,,,,,,,,,,,,,,,,,,,,,,,,,,,backspace,2.596999884,,TRUE,,,,,,,143,globus,Catalan,Sounds/cat_globus.mp3,2020-06-13_12h12.57.975,TranslationElicitation_spa,3.2.4,Win32,60,5ede2161e9851d03c61433b5,,1,0,80,38,1,79
,,,,,,,,,,,,,,,,,,,,,,,,,,,,,,,,,,,backspace,2.747999907,,TRUE,,,,,,,143,globus,Catalan,Sounds/cat_globus.mp3,2020-06-13_12h12.57.975,TranslationElicitation_spa,3.2.4,Win32,60,5ede2161e9851d03c61433b5,,1,0,80,38,1,79
,,,,,,,,,,,,,,,,,,,,,,,,,,,,,,,,,,,h,3.314999819,H,TRUE,,,,,,,143,globus,Catalan,Sounds/cat_globus.mp3,2020-06-13_12h12.57.975,TranslationElicitation_spa,3.2.4,Win32,60,5ede2161e9851d03c61433b5,,1,0,80,38,1,79
,,,,,,,,,,,,,,,,,,,,,,,,,,,,,,,,,,,backspace,3.613999844,,TRUE,,,,,,,143,globus,Catalan,Sounds/cat_globus.mp3,2020-06-13_12h12.57.975,TranslationElicitation_spa,3.2.4,Win32,60,5ede2161e9851d03c61433b5,,1,0,80,38,1,79
,,,,,,,,,,,,,,,,,,,,,,,,,,,,,,,,,,,g,3.746999979,G,TRUE,,,,,,,143,globus,Catalan,Sounds/cat_globus.mp3,2020-06-13_12h12.57.975,TranslationElicitation_spa,3.2.4,Win32,60,5ede2161e9851d03c61433b5,,1,0,80,38,1,79
,,,,,,,,,,,,,,,,,,,,,,,,,,,,,,,,,,,l,3.880999804,GL,TRUE,,,,,,,143,globus,Catalan,Sounds/cat_globus.mp3,2020-06-13_12h12.57.975,TranslationElicitation_spa,3.2.4,Win32,60,5ede2161e9851d03c61433b5,,1,0,80,38,1,79
,,,,,,,,,,,,,,,,,,,,,,,,,,,,,,,,,,,o,3.948999882,GLO,TRUE,,,,,,,143,globus,Catalan,Sounds/cat_globus.mp3,2020-06-13_12h12.57.975,TranslationElicitation_spa,3.2.4,Win32,60,5ede2161e9851d03c61433b5,,1,0,80,38,1,79
,,,,,,,,,,,,,,,,,,,,,,,,,,,,,,,,,,,b,4.096999884,GLOB,TRUE,,,,,,,143,globus,Catalan,Sounds/cat_globus.mp3,2020-06-13_12h12.57.975,TranslationElicitation_spa,3.2.4,Win32,60,5ede2161e9851d03c61433b5,,1,0,80,38,1,79
,,,,,,,,,,,,,,,,,,,,,,,,,,,,,,,,,,,o,4.231999874,GLOBO,TRUE,,,,,,,143,globus,Catalan,Sounds/cat_globus.mp3,2020-06-13_12h12.57.975,TranslationElicitation_spa,3.2.4,Win32,60,5ede2161e9851d03c61433b5,,1,0,80,38,1,79
,,,,,,,,,,,,,,,,,,,,,,,,,,,,,,,,,,,return,4.548999786,,TRUE,,,,,,,143,globus,Catalan,Sounds/cat_globus.mp3,2020-06-13_12h12.57.975,TranslationElicitation_spa,3.2.4,Win32,60,5ede2161e9851d03c61433b5,4.547999859,1,0,80,38,1,79
,,,,,,,,,,,,,,,,,,,,,,,,,,,,,,,,,,,,,,,,,,,,,143,globus,Catalan,Sounds/cat_globus.mp3,2020-06-13_12h12.57.975,TranslationElicitation_spa,3.2.4,Win32,60,5ede2161e9851d03c61433b5,,1,0,80,38,1,79
,,,,,,,,,,,,,,,,,,,,,,,,,,,,,,,,,,,c,1.332999945,C,FALSE,,,,,,,120,cama,Catalan,Sounds/cat_cama.mp3,2020-06-13_12h12.57.975,TranslationElicitation_spa,3.2.4,Win32,60,5ede2161e9851d03c61433b5,,1,0,80,15,1,79
,,,,,,,,,,,,,,,,,,,,,,,,,,,,,,,,,,,a,1.46600008,CA,FALSE,,,,,,,120,cama,Catalan,Sounds/cat_cama.mp3,2020-06-13_12h12.57.975,TranslationElicitation_spa,3.2.4,Win32,60,5ede2161e9851d03c61433b5,,1,0,80,15,1,79
,,,,,,,,,,,,,,,,,,,,,,,,,,,,,,,,,,,m,1.633000135,CAM,FALSE,,,,,,,120,cama,Catalan,Sounds/cat_cama.mp3,2020-06-13_12h12.57.975,TranslationElicitation_spa,3.2.4,Win32,60,5ede2161e9851d03c61433b5,,1,0,80,15,1,79
,,,,,,,,,,,,,,,,,,,,,,,,,,,,,,,,,,,a,1.733999968,CAMA,FALSE,,,,,,,120,cama,Catalan,Sounds/cat_cama.mp3,2020-06-13_12h12.57.975,TranslationElicitation_spa,3.2.4,Win32,60,5ede2161e9851d03c61433b5,,1,0,80,15,1,79
,,,,,,,,,,,,,,,,,,,,,,,,,,,,,,,,,,,return,1.86500001,,FALSE,,,,,,,120,cama,Catalan,Sounds/cat_cama.mp3,2020-06-13_12h12.57.975,TranslationElicitation_spa,3.2.4,Win32,60,5ede2161e9851d03c61433b5,1.86500001,1,0,80,15,1,79
,,,,,,,,,,,,,,,,,,,,,,,,,,,,,,,,,,,,,,,,,,,,,120,cama,Catalan,Sounds/cat_cama.mp3,2020-06-13_12h12.57.975,TranslationElicitation_spa,3.2.4,Win32,60,5ede2161e9851d03c61433b5,,1,0,80,15,1,79
,,,,,,,,,,,,,,,,,,,,,,,,,,,,,,,,,,,i,1.531999826,I,FALSE,,,,,,,149,llibre,Catalan,Sounds/cat_llibre.mp3,2020-06-13_12h12.57.975,TranslationElicitation_spa,3.2.4,Win32,60,5ede2161e9851d03c61433b5,,1,0,80,43,1,79
,,,,,,,,,,,,,,,,,,,,,,,,,,,,,,,,,,,b,1.731999874,IB,FALSE,,,,,,,149,llibre,Catalan,Sounds/cat_llibre.mp3,2020-06-13_12h12.57.975,TranslationElicitation_spa,3.2.4,Win32,60,5ede2161e9851d03c61433b5,,1,0,80,43,1,79
,,,,,,,,,,,,,,,,,,,,,,,,,,,,,,,,,,,r,1.881999969,IBR,FALSE,,,,,,,149,llibre,Catalan,Sounds/cat_llibre.mp3,2020-06-13_12h12.57.975,TranslationElicitation_spa,3.2.4,Win32,60,5ede2161e9851d03c61433b5,,1,0,80,43,1,79
,,,,,,,,,,,,,,,,,,,,,,,,,,,,,,,,,,,o,1.998999834,IBRO,FALSE,,,,,,,149,llibre,Catalan,Sounds/cat_llibre.mp3,2020-06-13_12h12.57.975,TranslationElicitation_spa,3.2.4,Win32,60,5ede2161e9851d03c61433b5,,1,0,80,43,1,79
,,,,,,,,,,,,,,,,,,,,,,,,,,,,,,,,,,,backspace,2.549000025,IB,TRUE,,,,,,,149,llibre,Catalan,Sounds/cat_llibre.mp3,2020-06-13_12h12.57.975,TranslationElicitation_spa,3.2.4,Win32,60,5ede2161e9851d03c61433b5,,1,0,80,43,1,79
,,,,,,,,,,,,,,,,,,,,,,,,,,,,,,,,,,,backspace,2.731999874,,TRUE,,,,,,,149,llibre,Catalan,Sounds/cat_llibre.mp3,2020-06-13_12h12.57.975,TranslationElicitation_spa,3.2.4,Win32,60,5ede2161e9851d03c61433b5,,1,0,80,43,1,79
,,,,,,,,,,,,,,,,,,,,,,,,,,,,,,,,,,,backspace,2.881999969,,TRUE,,,,,,,149,llibre,Catalan,Sounds/cat_llibre.mp3,2020-06-13_12h12.57.975,TranslationElicitation_spa,3.2.4,Win32,60,5ede2161e9851d03c61433b5,,1,0,80,43,1,79
,,,,,,,,,,,,,,,,,,,,,,,,,,,,,,,,,,,backspace,2.998999834,,TRUE,,,,,,,149,llibre,Catalan,Sounds/cat_llibre.mp3,2020-06-13_12h12.57.975,TranslationElicitation_spa,3.2.4,Win32,60,5ede2161e9851d03c61433b5,,1,0,80,43,1,79
,,,,,,,,,,,,,,,,,,,,,,,,,,,,,,,,,,,l,3.281999826,L,TRUE,,,,,,,149,llibre,Catalan,Sounds/cat_llibre.mp3,2020-06-13_12h12.57.975,TranslationElicitation_spa,3.2.4,Win32,60,5ede2161e9851d03c61433b5,,1,0,80,43,1,79
,,,,,,,,,,,,,,,,,,,,,,,,,,,,,,,,,,,i,3.498999834,LI,TRUE,,,,,,,149,llibre,Catalan,Sounds/cat_llibre.mp3,2020-06-13_12h12.57.975,TranslationElicitation_spa,3.2.4,Win32,60,5ede2161e9851d03c61433b5,,1,0,80,43,1,79
,,,,,,,,,,,,,,,,,,,,,,,,,,,,,,,,,,,b,3.665999889,LIB,TRUE,,,,,,,149,llibre,Catalan,Sounds/cat_llibre.mp3,2020-06-13_12h12.57.975,TranslationElicitation_spa,3.2.4,Win32,60,5ede2161e9851d03c61433b5,,1,0,80,43,1,79
,,,,,,,,,,,,,,,,,,,,,,,,,,,,,,,,,,,r,3.815999985,LIBR,TRUE,,,,,,,149,llibre,Catalan,Sounds/cat_llibre.mp3,2020-06-13_12h12.57.975,TranslationElicitation_spa,3.2.4,Win32,60,5ede2161e9851d03c61433b5,,1,0,80,43,1,79
,,,,,,,,,,,,,,,,,,,,,,,,,,,,,,,,,,,o,3.915999889,LIBRO,TRUE,,,,,,,149,llibre,Catalan,Sounds/cat_llibre.mp3,2020-06-13_12h12.57.975,TranslationElicitation_spa,3.2.4,Win32,60,5ede2161e9851d03c61433b5,,1,0,80,43,1,79
,,,,,,,,,,,,,,,,,,,,,,,,,,,,,,,,,,,return,4.181999922,,TRUE,,,,,,,149,llibre,Catalan,Sounds/cat_llibre.mp3,2020-06-13_12h12.57.975,TranslationElicitation_spa,3.2.4,Win32,60,5ede2161e9851d03c61433b5,4.181999922,1,0,80,43,1,79
,,,,,,,,,,,,,,,,,,,,,,,,,,,,,,,,,,,,,,,,,,,,,149,llibre,Catalan,Sounds/cat_llibre.mp3,2020-06-13_12h12.57.975,TranslationElicitation_spa,3.2.4,Win32,60,5ede2161e9851d03c61433b5,,1,0,80,43,1,79
,,,,,,,,,,,,,,,,,,,,,,,,,,,,,,,,,,,return,6.215000153,,FALSE,,,,,,,141,gerd,Catalan,Sounds/cat_gerd.mp3,2020-06-13_12h12.57.975,TranslationElicitation_spa,3.2.4,Win32,60,5ede2161e9851d03c61433b5,6.215000153,1,0,80,36,1,79
,,,,,,,,,,,,,,,,,,,,,,,,,,,,,,,,,,,,,,,,,,,,,141,gerd,Catalan,Sounds/cat_gerd.mp3,2020-06-13_12h12.57.975,TranslationElicitation_spa,3.2.4,Win32,60,5ede2161e9851d03c61433b5,,1,0,80,36,1,79
,,,,,,,,,,,,,,,,,,,,,,,,,,,,,,,,,,,c,3.884000063,C,FALSE,,,,,,,125,colom,Catalan,Sounds/cat_colom.mp3,2020-06-13_12h12.57.975,TranslationElicitation_spa,3.2.4,Win32,60,5ede2161e9851d03c61433b5,,1,0,80,20,1,79
,,,,,,,,,,,,,,,,,,,,,,,,,,,,,,,,,,,o,4.132999897,CO,FALSE,,,,,,,125,colom,Catalan,Sounds/cat_colom.mp3,2020-06-13_12h12.57.975,TranslationElicitation_spa,3.2.4,Win32,60,5ede2161e9851d03c61433b5,,1,0,80,20,1,79
,,,,,,,,,,,,,,,,,,,,,,,,,,,,,,,,,,,l,5.065999985,COL,FALSE,,,,,,,125,colom,Catalan,Sounds/cat_colom.mp3,2020-06-13_12h12.57.975,TranslationElicitation_spa,3.2.4,Win32,60,5ede2161e9851d03c61433b5,,1,0,80,20,1,79
,,,,,,,,,,,,,,,,,,,,,,,,,,,,,,,,,,,o,5.115999937,COLO,FALSE,,,,,,,125,colom,Catalan,Sounds/cat_colom.mp3,2020-06-13_12h12.57.975,TranslationElicitation_spa,3.2.4,Win32,60,5ede2161e9851d03c61433b5,,1,0,80,20,1,79
,,,,,,,,,,,,,,,,,,,,,,,,,,,,,,,,,,,r,5.381999969,COLOR,FALSE,,,,,,,125,colom,Catalan,Sounds/cat_colom.mp3,2020-06-13_12h12.57.975,TranslationElicitation_spa,3.2.4,Win32,60,5ede2161e9851d03c61433b5,,1,0,80,20,1,79
,,,,,,,,,,,,,,,,,,,,,,,,,,,,,,,,,,,return,5.61500001,,FALSE,,,,,,,125,colom,Catalan,Sounds/cat_colom.mp3,2020-06-13_12h12.57.975,TranslationElicitation_spa,3.2.4,Win32,60,5ede2161e9851d03c61433b5,5.61500001,1,0,80,20,1,79
,,,,,,,,,,,,,,,,,,,,,,,,,,,,,,,,,,,,,,,,,,,,,125,colom,Catalan,Sounds/cat_colom.mp3,2020-06-13_12h12.57.975,TranslationElicitation_spa,3.2.4,Win32,60,5ede2161e9851d03c61433b5,,1,0,80,20,1,79
,,,,,,,,,,,,,,,,,,,,,,,,,,,,,,,,,,,c,1.100000143,C,FALSE,,,,,,,121,camisa,Catalan,Sounds/cat_camisa.mp3,2020-06-13_12h12.57.975,TranslationElicitation_spa,3.2.4,Win32,60,5ede2161e9851d03c61433b5,,1,0,80,16,1,79
,,,,,,,,,,,,,,,,,,,,,,,,,,,,,,,,,,,a,1.200000048,CA,FALSE,,,,,,,121,camisa,Catalan,Sounds/cat_camisa.mp3,2020-06-13_12h12.57.975,TranslationElicitation_spa,3.2.4,Win32,60,5ede2161e9851d03c61433b5,,1,0,80,16,1,79
,,,,,,,,,,,,,,,,,,,,,,,,,,,,,,,,,,,m,1.365999937,CAM,FALSE,,,,,,,121,camisa,Catalan,Sounds/cat_camisa.mp3,2020-06-13_12h12.57.975,TranslationElicitation_spa,3.2.4,Win32,60,5ede2161e9851d03c61433b5,,1,0,80,16,1,79
,,,,,,,,,,,,,,,,,,,,,,,,,,,,,,,,,,,i,1.499000072,CAMI,FALSE,,,,,,,121,camisa,Catalan,Sounds/cat_camisa.mp3,2020-06-13_12h12.57.975,TranslationElicitation_spa,3.2.4,Win32,60,5ede2161e9851d03c61433b5,,1,0,80,16,1,79
,,,,,,,,,,,,,,,,,,,,,,,,,,,,,,,,,,,s,1.633000135,CAMIS,FALSE,,,,,,,121,camisa,Catalan,Sounds/cat_camisa.mp3,2020-06-13_12h12.57.975,TranslationElicitation_spa,3.2.4,Win32,60,5ede2161e9851d03c61433b5,,1,0,80,16,1,79
,,,,,,,,,,,,,,,,,,,,,,,,,,,,,,,,,,,a,1.766000032,CAMISA,FALSE,,,,,,,121,camisa,Catalan,Sounds/cat_camisa.mp3,2020-06-13_12h12.57.975,TranslationElicitation_spa,3.2.4,Win32,60,5ede2161e9851d03c61433b5,,1,0,80,16,1,79
,,,,,,,,,,,,,,,,,,,,,,,,,,,,,,,,,,,return,2.133000135,,FALSE,,,,,,,121,camisa,Catalan,Sounds/cat_camisa.mp3,2020-06-13_12h12.57.975,TranslationElicitation_spa,3.2.4,Win32,60,5ede2161e9851d03c61433b5,2.133000135,1,0,80,16,1,79
,,,,,,,,,,,,,,,,,,,,,,,,,,,,,,,,,,,,,,,,,,,,,121,camisa,Catalan,Sounds/cat_camisa.mp3,2020-06-13_12h12.57.975,TranslationElicitation_spa,3.2.4,Win32,60,5ede2161e9851d03c61433b5,,1,0,80,16,1,79
,,,,,,,,,,,,,,,,,,,,,,,,,,,,,,,,,,,o,1.299999952,O,FALSE,,,,,,,113,boca,Catalan,Sounds/cat_boca.mp3,2020-06-13_12h12.57.975,TranslationElicitation_spa,3.2.4,Win32,60,5ede2161e9851d03c61433b5,,1,0,80,8,1,79
,,,,,,,,,,,,,,,,,,,,,,,,,,,,,,,,,,,c,1.516000032,OC,FALSE,,,,,,,113,boca,Catalan,Sounds/cat_boca.mp3,2020-06-13_12h12.57.975,TranslationElicitation_spa,3.2.4,Win32,60,5ede2161e9851d03c61433b5,,1,0,80,8,1,79
,,,,,,,,,,,,,,,,,,,,,,,,,,,,,,,,,,,a,1.731999874,OCA,FALSE,,,,,,,113,boca,Catalan,Sounds/cat_boca.mp3,2020-06-13_12h12.57.975,TranslationElicitation_spa,3.2.4,Win32,60,5ede2161e9851d03c61433b5,,1,0,80,8,1,79
,,,,,,,,,,,,,,,,,,,,,,,,,,,,,,,,,,,return,1.914999962,,FALSE,,,,,,,113,boca,Catalan,Sounds/cat_boca.mp3,2020-06-13_12h12.57.975,TranslationElicitation_spa,3.2.4,Win32,60,5ede2161e9851d03c61433b5,1.914999962,1,0,80,8,1,79
,,,,,,,,,,,,,,,,,,,,,,,,,,,,,,,,,,,,,,,,,,,,,113,boca,Catalan,Sounds/cat_boca.mp3,2020-06-13_12h12.57.975,TranslationElicitation_spa,3.2.4,Win32,60,5ede2161e9851d03c61433b5,,1,0,80,8,1,79
,,,,,,,,,,,,,,,,,,,,,,,,,,,,,,,,,,,a,2.064999819,A,FALSE,,,,,,,133,estruc,Catalan,Sounds/cat_estruc.mp3,2020-06-13_12h12.57.975,TranslationElicitation_spa,3.2.4,Win32,60,5ede2161e9851d03c61433b5,,1,0,80,28,1,79
,,,,,,,,,,,,,,,,,,,,,,,,,,,,,,,,,,,v,2.34800005,AV,FALSE,,,,,,,133,estruc,Catalan,Sounds/cat_estruc.mp3,2020-06-13_12h12.57.975,TranslationElicitation_spa,3.2.4,Win32,60,5ede2161e9851d03c61433b5,,1,0,80,28,1,79
,,,,,,,,,,,,,,,,,,,,,,,,,,,,,,,,,,,e,2.448999882,AVE,FALSE,,,,,,,133,estruc,Catalan,Sounds/cat_estruc.mp3,2020-06-13_12h12.57.975,TranslationElicitation_spa,3.2.4,Win32,60,5ede2161e9851d03c61433b5,,1,0,80,28,1,79
,,,,,,,,,,,,,,,,,,,,,,,,,,,,,,,,,,,s,2.655999899,AVES,FALSE,,,,,,,133,estruc,Catalan,Sounds/cat_estruc.mp3,2020-06-13_12h12.57.975,TranslationElicitation_spa,3.2.4,Win32,60,5ede2161e9851d03c61433b5,,1,0,80,28,1,79
,,,,,,,,,,,,,,,,,,,,,,,,,,,,,,,,,,,t,2.914000034,AVEST,FALSE,,,,,,,133,estruc,Catalan,Sounds/cat_estruc.mp3,2020-06-13_12h12.57.975,TranslationElicitation_spa,3.2.4,Win32,60,5ede2161e9851d03c61433b5,,1,0,80,28,1,79
,,,,,,,,,,,,,,,,,,,,,,,,,,,,,,,,,,,r,3.09800005,AVESTR,FALSE,,,,,,,133,estruc,Catalan,Sounds/cat_estruc.mp3,2020-06-13_12h12.57.975,TranslationElicitation_spa,3.2.4,Win32,60,5ede2161e9851d03c61433b5,,1,0,80,28,1,79
,,,,,,,,,,,,,,,,,,,,,,,,,,,,,,,,,,,u,3.230999947,AVESTRU,FALSE,,,,,,,133,estruc,Catalan,Sounds/cat_estruc.mp3,2020-06-13_12h12.57.975,TranslationElicitation_spa,3.2.4,Win32,60,5ede2161e9851d03c61433b5,,1,0,80,28,1,79
,,,,,,,,,,,,,,,,,,,,,,,,,,,,,,,,,,,z,3.613999844,AVESTRUZ,FALSE,,,,,,,133,estruc,Catalan,Sounds/cat_estruc.mp3,2020-06-13_12h12.57.975,TranslationElicitation_spa,3.2.4,Win32,60,5ede2161e9851d03c61433b5,,1,0,80,28,1,79
,,,,,,,,,,,,,,,,,,,,,,,,,,,,,,,,,,,return,3.848999977,,FALSE,,,,,,,133,estruc,Catalan,Sounds/cat_estruc.mp3,2020-06-13_12h12.57.975,TranslationElicitation_spa,3.2.4,Win32,60,5ede2161e9851d03c61433b5,3.848999977,1,0,80,28,1,79
,,,,,,,,,,,,,,,,,,,,,,,,,,,,,,,,,,,,,,,,,,,,,133,estruc,Catalan,Sounds/cat_estruc.mp3,2020-06-13_12h12.57.975,TranslationElicitation_spa,3.2.4,Win32,60,5ede2161e9851d03c61433b5,,1,0,80,28,1,79
,,,,,,,,,,,,,,,,,,,,,,,,,,,,,,,,,,,h,4.465999842,H,FALSE,,,,,,,148,lleo,Catalan,Sounds/cat_lleo.mp3,2020-06-13_12h12.57.975,TranslationElicitation_spa,3.2.4,Win32,60,5ede2161e9851d03c61433b5,,1,0,80,42,1,79
,,,,,,,,,,,,,,,,,,,,,,,,,,,,,,,,,,,e,4.782999992,HE,FALSE,,,,,,,148,lleo,Catalan,Sounds/cat_lleo.mp3,2020-06-13_12h12.57.975,TranslationElicitation_spa,3.2.4,Win32,60,5ede2161e9851d03c61433b5,,1,0,80,42,1,79
,,,,,,,,,,,,,,,,,,,,,,,,,,,,,,,,,,,l,4.981999874,HEL,FALSE,,,,,,,148,lleo,Catalan,Sounds/cat_lleo.mp3,2020-06-13_12h12.57.975,TranslationElicitation_spa,3.2.4,Win32,60,5ede2161e9851d03c61433b5,,1,0,80,42,1,79
,,,,,,,,,,,,,,,,,,,,,,,,,,,,,,,,,,,a,5.098999977,HELA,FALSE,,,,,,,148,lleo,Catalan,Sounds/cat_lleo.mp3,2020-06-13_12h12.57.975,TranslationElicitation_spa,3.2.4,Win32,60,5ede2161e9851d03c61433b5,,1,0,80,42,1,79
,,,,,,,,,,,,,,,,,,,,,,,,,,,,,,,,,,,d,5.332999945,HELAD,FALSE,,,,,,,148,lleo,Catalan,Sounds/cat_lleo.mp3,2020-06-13_12h12.57.975,TranslationElicitation_spa,3.2.4,Win32,60,5ede2161e9851d03c61433b5,,1,0,80,42,1,79
,,,,,,,,,,,,,,,,,,,,,,,,,,,,,,,,,,,o,5.398999929,HELADO,FALSE,,,,,,,148,lleo,Catalan,Sounds/cat_lleo.mp3,2020-06-13_12h12.57.975,TranslationElicitation_spa,3.2.4,Win32,60,5ede2161e9851d03c61433b5,,1,0,80,42,1,79
,,,,,,,,,,,,,,,,,,,,,,,,,,,,,,,,,,,d,5.431999922,HELADOD,FALSE,,,,,,,148,lleo,Catalan,Sounds/cat_lleo.mp3,2020-06-13_12h12.57.975,TranslationElicitation_spa,3.2.4,Win32,60,5ede2161e9851d03c61433b5,,1,0,80,42,1,79
,,,,,,,,,,,,,,,,,,,,,,,,,,,,,,,,,,,backspace,6.049000025,HELAD,TRUE,,,,,,,148,lleo,Catalan,Sounds/cat_lleo.mp3,2020-06-13_12h12.57.975,TranslationElicitation_spa,3.2.4,Win32,60,5ede2161e9851d03c61433b5,,1,0,80,42,1,79
,,,,,,,,,,,,,,,,,,,,,,,,,,,,,,,,,,,return,6.282000065,,TRUE,,,,,,,148,lleo,Catalan,Sounds/cat_lleo.mp3,2020-06-13_12h12.57.975,TranslationElicitation_spa,3.2.4,Win32,60,5ede2161e9851d03c61433b5,6.282000065,1,0,80,42,1,79
,,,,,,,,,,,,,,,,,,,,,,,,,,,,,,,,,,,,,,,,,,,,,148,lleo,Catalan,Sounds/cat_lleo.mp3,2020-06-13_12h12.57.975,TranslationElicitation_spa,3.2.4,Win32,60,5ede2161e9851d03c61433b5,,1,0,80,42,1,79
,,,,,,,,,,,,,,,,,,,,,,,,,,,,,,,,,,,return,5.829999924,,FALSE,,,,,,,158,nas,Catalan,Sounds/cat_nas.mp3,2020-06-13_12h12.57.975,TranslationElicitation_spa,3.2.4,Win32,60,5ede2161e9851d03c61433b5,5.829999924,1,0,80,52,1,79
,,,,,,,,,,,,,,,,,,,,,,,,,,,,,,,,,,,,,,,,,,,,,158,nas,Catalan,Sounds/cat_nas.mp3,2020-06-13_12h12.57.975,TranslationElicitation_spa,3.2.4,Win32,60,5ede2161e9851d03c61433b5,,1,0,80,52,1,79
,,,,,,,,,,,,,,,,,,,,,,,,,,,,,,,,,,,a,1.09800005,A,FALSE,,,,,,,108,ampolla,Catalan,Sounds/cat_ampolla.mp3,2020-06-13_12h12.57.975,TranslationElicitation_spa,3.2.4,Win32,60,5ede2161e9851d03c61433b5,,1,0,80,4,1,79
,,,,,,,,,,,,,,,,,,,,,,,,,,,,,,,,,,,m,1.248999834,AM,FALSE,,,,,,,108,ampolla,Catalan,Sounds/cat_ampolla.mp3,2020-06-13_12h12.57.975,TranslationElicitation_spa,3.2.4,Win32,60,5ede2161e9851d03c61433b5,,1,0,80,4,1,79
,,,,,,,,,,,,,,,,,,,,,,,,,,,,,,,,,,,p,1.532000065,AMP,FALSE,,,,,,,108,ampolla,Catalan,Sounds/cat_ampolla.mp3,2020-06-13_12h12.57.975,TranslationElicitation_spa,3.2.4,Win32,60,5ede2161e9851d03c61433b5,,1,0,80,4,1,79
,,,,,,,,,,,,,,,,,,,,,,,,,,,,,,,,,,,o,1.680999994,AMPO,FALSE,,,,,,,108,ampolla,Catalan,Sounds/cat_ampolla.mp3,2020-06-13_12h12.57.975,TranslationElicitation_spa,3.2.4,Win32,60,5ede2161e9851d03c61433b5,,1,0,80,4,1,79
,,,,,,,,,,,,,,,,,,,,,,,,,,,,,,,,,,,l,1.948999882,AMPOL,FALSE,,,,,,,108,ampolla,Catalan,Sounds/cat_ampolla.mp3,2020-06-13_12h12.57.975,TranslationElicitation_spa,3.2.4,Win32,60,5ede2161e9851d03c61433b5,,1,0,80,4,1,79
,,,,,,,,,,,,,,,,,,,,,,,,,,,,,,,,,,,l,2.11500001,AMPOLL,FALSE,,,,,,,108,ampolla,Catalan,Sounds/cat_ampolla.mp3,2020-06-13_12h12.57.975,TranslationElicitation_spa,3.2.4,Win32,60,5ede2161e9851d03c61433b5,,1,0,80,4,1,79
,,,,,,,,,,,,,,,,,,,,,,,,,,,,,,,,,,,a,2.299000025,AMPOLLA,FALSE,,,,,,,108,ampolla,Catalan,Sounds/cat_ampolla.mp3,2020-06-13_12h12.57.975,TranslationElicitation_spa,3.2.4,Win32,60,5ede2161e9851d03c61433b5,,1,0,80,4,1,79
,,,,,,,,,,,,,,,,,,,,,,,,,,,,,,,,,,,return,2.697999954,,FALSE,,,,,,,108,ampolla,Catalan,Sounds/cat_ampolla.mp3,2020-06-13_12h12.57.975,TranslationElicitation_spa,3.2.4,Win32,60,5ede2161e9851d03c61433b5,2.697999954,1,0,80,4,1,79
,,,,,,,,,,,,,,,,,,,,,,,,,,,,,,,,,,,,,,,,,,,,,108,ampolla,Catalan,Sounds/cat_ampolla.mp3,2020-06-13_12h12.57.975,TranslationElicitation_spa,3.2.4,Win32,60,5ede2161e9851d03c61433b5,,1,0,80,4,1,79
,,,,,,,,,,,,,,,,,,,,,,,,,,,,,,,,,,,p,1.414000034,P,FALSE,,,,,,,174,porta,Catalan,Sounds/cat_porta.mp3,2020-06-13_12h12.57.975,TranslationElicitation_spa,3.2.4,Win32,60,5ede2161e9851d03c61433b5,,1,0,80,66,1,79
,,,,,,,,,,,,,,,,,,,,,,,,,,,,,,,,,,,u,1.897000074,PU,FALSE,,,,,,,174,porta,Catalan,Sounds/cat_porta.mp3,2020-06-13_12h12.57.975,TranslationElicitation_spa,3.2.4,Win32,60,5ede2161e9851d03c61433b5,,1,0,80,66,1,79
,,,,,,,,,,,,,,,,,,,,,,,,,,,,,,,,,,,e,2.063999891,PUE,FALSE,,,,,,,174,porta,Catalan,Sounds/cat_porta.mp3,2020-06-13_12h12.57.975,TranslationElicitation_spa,3.2.4,Win32,60,5ede2161e9851d03c61433b5,,1,0,80,66,1,79
,,,,,,,,,,,,,,,,,,,,,,,,,,,,,,,,,,,r,2.213999987,PUER,FALSE,,,,,,,174,porta,Catalan,Sounds/cat_porta.mp3,2020-06-13_12h12.57.975,TranslationElicitation_spa,3.2.4,Win32,60,5ede2161e9851d03c61433b5,,1,0,80,66,1,79
,,,,,,,,,,,,,,,,,,,,,,,,,,,,,,,,,,,t,2.414000034,PUERT,FALSE,,,,,,,174,porta,Catalan,Sounds/cat_porta.mp3,2020-06-13_12h12.57.975,TranslationElicitation_spa,3.2.4,Win32,60,5ede2161e9851d03c61433b5,,1,0,80,66,1,79
,,,,,,,,,,,,,,,,,,,,,,,,,,,,,,,,,,,a,2.647000074,PUERTA,FALSE,,,,,,,174,porta,Catalan,Sounds/cat_porta.mp3,2020-06-13_12h12.57.975,TranslationElicitation_spa,3.2.4,Win32,60,5ede2161e9851d03c61433b5,,1,0,80,66,1,79
,,,,,,,,,,,,,,,,,,,,,,,,,,,,,,,,,,,return,2.83100009,,FALSE,,,,,,,174,porta,Catalan,Sounds/cat_porta.mp3,2020-06-13_12h12.57.975,TranslationElicitation_spa,3.2.4,Win32,60,5ede2161e9851d03c61433b5,2.83100009,1,0,80,66,1,79
,,,,,,,,,,,,,,,,,,,,,,,,,,,,,,,,,,,,,,,,,,,,,174,porta,Catalan,Sounds/cat_porta.mp3,2020-06-13_12h12.57.975,TranslationElicitation_spa,3.2.4,Win32,60,5ede2161e9851d03c61433b5,,1,0,80,66,1,79
,,,,,,,,,,,,,,,,,,,,,,,,,,,,,,,,,,,t,1.414000034,T,FALSE,,,,,,,181,tobogan,Catalan,Sounds/cat_tobogan.mp3,2020-06-13_12h12.57.975,TranslationElicitation_spa,3.2.4,Win32,60,5ede2161e9851d03c61433b5,,1,0,80,72,1,79
,,,,,,,,,,,,,,,,,,,,,,,,,,,,,,,,,,,o,1.56400013,TO,FALSE,,,,,,,181,tobogan,Catalan,Sounds/cat_tobogan.mp3,2020-06-13_12h12.57.975,TranslationElicitation_spa,3.2.4,Win32,60,5ede2161e9851d03c61433b5,,1,0,80,72,1,79
,,,,,,,,,,,,,,,,,,,,,,,,,,,,,,,,,,,b,1.75999999,TOB,FALSE,,,,,,,181,tobogan,Catalan,Sounds/cat_tobogan.mp3,2020-06-13_12h12.57.975,TranslationElicitation_spa,3.2.4,Win32,60,5ede2161e9851d03c61433b5,,1,0,80,72,1,79
,,,,,,,,,,,,,,,,,,,,,,,,,,,,,,,,,,,o,1.864000082,TOBO,FALSE,,,,,,,181,tobogan,Catalan,Sounds/cat_tobogan.mp3,2020-06-13_12h12.57.975,TranslationElicitation_spa,3.2.4,Win32,60,5ede2161e9851d03c61433b5,,1,0,80,72,1,79
,,,,,,,,,,,,,,,,,,,,,,,,,,,,,,,,,,,g,2.281000137,TOBOG,FALSE,,,,,,,181,tobogan,Catalan,Sounds/cat_tobogan.mp3,2020-06-13_12h12.57.975,TranslationElicitation_spa,3.2.4,Win32,60,5ede2161e9851d03c61433b5,,1,0,80,72,1,79
,,,,,,,,,,,,,,,,,,,,,,,,,,,,,,,,,,,a,2.531000137,TOBOGA,FALSE,,,,,,,181,tobogan,Catalan,Sounds/cat_tobogan.mp3,2020-06-13_12h12.57.975,TranslationElicitation_spa,3.2.4,Win32,60,5ede2161e9851d03c61433b5,,1,0,80,72,1,79
,,,,,,,,,,,,,,,,,,,,,,,,,,,,,,,,,,,n,2.779999971,TOBOGAN,FALSE,,,,,,,181,tobogan,Catalan,Sounds/cat_tobogan.mp3,2020-06-13_12h12.57.975,TranslationElicitation_spa,3.2.4,Win32,60,5ede2161e9851d03c61433b5,,1,0,80,72,1,79
,,,,,,,,,,,,,,,,,,,,,,,,,,,,,,,,,,,return,3.131000042,,FALSE,,,,,,,181,tobogan,Catalan,Sounds/cat_tobogan.mp3,2020-06-13_12h12.57.975,TranslationElicitation_spa,3.2.4,Win32,60,5ede2161e9851d03c61433b5,3.131000042,1,0,80,72,1,79
,,,,,,,,,,,,,,,,,,,,,,,,,,,,,,,,,,,,,,,,,,,,,181,tobogan,Catalan,Sounds/cat_tobogan.mp3,2020-06-13_12h12.57.975,TranslationElicitation_spa,3.2.4,Win32,60,5ede2161e9851d03c61433b5,,1,0,80,72,1,79
,,,,,,,,,,,,,,,,,,,,,,,,,,,,,,,,,,,h,4.133000135,H,FALSE,,,,,,,106,aixeta,Catalan,Sounds/cat_aixeta.mp3,2020-06-13_12h12.57.975,TranslationElicitation_spa,3.2.4,Win32,60,5ede2161e9851d03c61433b5,,1,0,80,2,1,79
,,,,,,,,,,,,,,,,,,,,,,,,,,,,,,,,,,,a,4.200999975,HA,FALSE,,,,,,,106,aixeta,Catalan,Sounds/cat_aixeta.mp3,2020-06-13_12h12.57.975,TranslationElicitation_spa,3.2.4,Win32,60,5ede2161e9851d03c61433b5,,1,0,80,2,1,79
,,,,,,,,,,,,,,,,,,,,,,,,,,,,,,,,,,,c,4.482000113,HAC,FALSE,,,,,,,106,aixeta,Catalan,Sounds/cat_aixeta.mp3,2020-06-13_12h12.57.975,TranslationElicitation_spa,3.2.4,Win32,60,5ede2161e9851d03c61433b5,,1,0,80,2,1,79
,,,,,,,,,,,,,,,,,,,,,,,,,,,,,,,,,,,h,4.582999945,HACH,FALSE,,,,,,,106,aixeta,Catalan,Sounds/cat_aixeta.mp3,2020-06-13_12h12.57.975,TranslationElicitation_spa,3.2.4,Win32,60,5ede2161e9851d03c61433b5,,1,0,80,2,1,79
,,,,,,,,,,,,,,,,,,,,,,,,,,,,,,,,,,,a,4.715000153,HACHA,FALSE,,,,,,,106,aixeta,Catalan,Sounds/cat_aixeta.mp3,2020-06-13_12h12.57.975,TranslationElicitation_spa,3.2.4,Win32,60,5ede2161e9851d03c61433b5,,1,0,80,2,1,79
,,,,,,,,,,,,,,,,,,,,,,,,,,,,,,,,,,,return,5.065000057,,FALSE,,,,,,,106,aixeta,Catalan,Sounds/cat_aixeta.mp3,2020-06-13_12h12.57.975,TranslationElicitation_spa,3.2.4,Win32,60,5ede2161e9851d03c61433b5,5.065000057,1,0,80,2,1,79
,,,,,,,,,,,,,,,,,,,,,,,,,,,,,,,,,,,,,,,,,,,,,106,aixeta,Catalan,Sounds/cat_aixeta.mp3,2020-06-13_12h12.57.975,TranslationElicitation_spa,3.2.4,Win32,60,5ede2161e9851d03c61433b5,,1,0,80,2,1,79
,,,,,,,,,,,,,,,,,,,,,,,,,,,,,,,,,,,p,4.834000111,P,FALSE,,,,,,,170,ploma,Catalan,Sounds/cat_ploma.mp3,2020-06-13_12h12.57.975,TranslationElicitation_spa,3.2.4,Win32,60,5ede2161e9851d03c61433b5,,1,0,80,62,1,79
,,,,,,,,,,,,,,,,,,,,,,,,,,,,,,,,,,,l,5.164000034,PL,FALSE,,,,,,,170,ploma,Catalan,Sounds/cat_ploma.mp3,2020-06-13_12h12.57.975,TranslationElicitation_spa,3.2.4,Win32,60,5ede2161e9851d03c61433b5,,1,0,80,62,1,79
,,,,,,,,,,,,,,,,,,,,,,,,,,,,,,,,,,,o,5.229000092,PLO,FALSE,,,,,,,170,ploma,Catalan,Sounds/cat_ploma.mp3,2020-06-13_12h12.57.975,TranslationElicitation_spa,3.2.4,Win32,60,5ede2161e9851d03c61433b5,,1,0,80,62,1,79
,,,,,,,,,,,,,,,,,,,,,,,,,,,,,,,,,,,m,5.583000183,PLOM,FALSE,,,,,,,170,ploma,Catalan,Sounds/cat_ploma.mp3,2020-06-13_12h12.57.975,TranslationElicitation_spa,3.2.4,Win32,60,5ede2161e9851d03c61433b5,,1,0,80,62,1,79
,,,,,,,,,,,,,,,,,,,,,,,,,,,,,,,,,,,o,5.752000093,PLOMO,FALSE,,,,,,,170,ploma,Catalan,Sounds/cat_ploma.mp3,2020-06-13_12h12.57.975,TranslationElicitation_spa,3.2.4,Win32,60,5ede2161e9851d03c61433b5,,1,0,80,62,1,79
,,,,,,,,,,,,,,,,,,,,,,,,,,,,,,,,,,,return,6.183000088,,FALSE,,,,,,,170,ploma,Catalan,Sounds/cat_ploma.mp3,2020-06-13_12h12.57.975,TranslationElicitation_spa,3.2.4,Win32,60,5ede2161e9851d03c61433b5,6.183000088,1,0,80,62,1,79
,,,,,,,,,,,,,,,,,,,,,,,,,,,,,,,,,,,,,,,,,,,,,170,ploma,Catalan,Sounds/cat_ploma.mp3,2020-06-13_12h12.57.975,TranslationElicitation_spa,3.2.4,Win32,60,5ede2161e9851d03c61433b5,,1,0,80,62,1,79
,,,,,,,,,,,,,,,,,,,,,,,,,,,,,,,,,,,h,1.697999954,H,FALSE,,,,,,,137,fulla,Catalan,Sounds/cat_fulla.mp3,2020-06-13_12h12.57.975,TranslationElicitation_spa,3.2.4,Win32,60,5ede2161e9851d03c61433b5,,1,0,80,32,1,79
,,,,,,,,,,,,,,,,,,,,,,,,,,,,,,,,,,,o,1.81400013,HO,FALSE,,,,,,,137,fulla,Catalan,Sounds/cat_fulla.mp3,2020-06-13_12h12.57.975,TranslationElicitation_spa,3.2.4,Win32,60,5ede2161e9851d03c61433b5,,1,0,80,32,1,79
,,,,,,,,,,,,,,,,,,,,,,,,,,,,,,,,,,,j,1.998000145,HOJ,FALSE,,,,,,,137,fulla,Catalan,Sounds/cat_fulla.mp3,2020-06-13_12h12.57.975,TranslationElicitation_spa,3.2.4,Win32,60,5ede2161e9851d03c61433b5,,1,0,80,32,1,79
,,,,,,,,,,,,,,,,,,,,,,,,,,,,,,,,,,,a,2.09800005,HOJA,FALSE,,,,,,,137,fulla,Catalan,Sounds/cat_fulla.mp3,2020-06-13_12h12.57.975,TranslationElicitation_spa,3.2.4,Win32,60,5ede2161e9851d03c61433b5,,1,0,80,32,1,79
,,,,,,,,,,,,,,,,,,,,,,,,,,,,,,,,,,,return,2.332000017,,FALSE,,,,,,,137,fulla,Catalan,Sounds/cat_fulla.mp3,2020-06-13_12h12.57.975,TranslationElicitation_spa,3.2.4,Win32,60,5ede2161e9851d03c61433b5,2.332000017,1,0,80,32,1,79
,,,,,,,,,,,,,,,,,,,,,,,,,,,,,,,,,,,,,,,,,,,,,137,fulla,Catalan,Sounds/cat_fulla.mp3,2020-06-13_12h12.57.975,TranslationElicitation_spa,3.2.4,Win32,60,5ede2161e9851d03c61433b5,,1,0,80,32,1,79
,,,,,,,,,,,,,,,,,,,,,,,,,,,,,,,,,,,s,1.532999992,S,FALSE,,,,,,,124,cirera,Catalan,Sounds/cat_cirera.mp3,2020-06-13_12h12.57.975,TranslationElicitation_spa,3.2.4,Win32,60,5ede2161e9851d03c61433b5,,1,0,80,19,1,79
,,,,,,,,,,,,,,,,,,,,,,,,,,,,,,,,,,,i,1.69900012,SI,FALSE,,,,,,,124,cirera,Catalan,Sounds/cat_cirera.mp3,2020-06-13_12h12.57.975,TranslationElicitation_spa,3.2.4,Win32,60,5ede2161e9851d03c61433b5,,1,0,80,19,1,79
,,,,,,,,,,,,,,,,,,,,,,,,,,,,,,,,,,,r,1.992000103,SIR,FALSE,,,,,,,124,cirera,Catalan,Sounds/cat_cirera.mp3,2020-06-13_12h12.57.975,TranslationElicitation_spa,3.2.4,Win32,60,5ede2161e9851d03c61433b5,,1,0,80,19,1,79
,,,,,,,,,,,,,,,,,,,,,,,,,,,,,,,,,,,e,2.19900012,SIRE,FALSE,,,,,,,124,cirera,Catalan,Sounds/cat_cirera.mp3,2020-06-13_12h12.57.975,TranslationElicitation_spa,3.2.4,Win32,60,5ede2161e9851d03c61433b5,,1,0,80,19,1,79
,,,,,,,,,,,,,,,,,,,,,,,,,,,,,,,,,,,n,2.299000025,SIREN,FALSE,,,,,,,124,cirera,Catalan,Sounds/cat_cirera.mp3,2020-06-13_12h12.57.975,TranslationElicitation_spa,3.2.4,Win32,60,5ede2161e9851d03c61433b5,,1,0,80,19,1,79
,,,,,,,,,,,,,,,,,,,,,,,,,,,,,,,,,,,a,2.46600008,SIRENA,FALSE,,,,,,,124,cirera,Catalan,Sounds/cat_cirera.mp3,2020-06-13_12h12.57.975,TranslationElicitation_spa,3.2.4,Win32,60,5ede2161e9851d03c61433b5,,1,0,80,19,1,79
,,,,,,,,,,,,,,,,,,,,,,,,,,,,,,,,,,,return,2.683000088,,FALSE,,,,,,,124,cirera,Catalan,Sounds/cat_cirera.mp3,2020-06-13_12h12.57.975,TranslationElicitation_spa,3.2.4,Win32,60,5ede2161e9851d03c61433b5,2.683000088,1,0,80,19,1,79
,,,,,,,,,,,,,,,,,,,,,,,,,,,,,,,,,,,,,,,,,,,,,124,cirera,Catalan,Sounds/cat_cirera.mp3,2020-06-13_12h12.57.975,TranslationElicitation_spa,3.2.4,Win32,60,5ede2161e9851d03c61433b5,,1,0,80,19,1,79
,,,,,,,,,,,,,,,,,,,,,,,,,,,,,,,,,,,o,2.265000105,O,FALSE,,,,,,,185,ulleres,Catalan,Sounds/cat_ulleres.mp3,2020-06-13_12h12.57.975,TranslationElicitation_spa,3.2.4,Win32,60,5ede2161e9851d03c61433b5,,1,0,80,76,1,79
,,,,,,,,,,,,,,,,,,,,,,,,,,,,,,,,,,,j,2.381999969,OJ,FALSE,,,,,,,185,ulleres,Catalan,Sounds/cat_ulleres.mp3,2020-06-13_12h12.57.975,TranslationElicitation_spa,3.2.4,Win32,60,5ede2161e9851d03c61433b5,,1,0,80,76,1,79
,,,,,,,,,,,,,,,,,,,,,,,,,,,,,,,,,,,e,2.648000002,OJE,FALSE,,,,,,,185,ulleres,Catalan,Sounds/cat_ulleres.mp3,2020-06-13_12h12.57.975,TranslationElicitation_spa,3.2.4,Win32,60,5ede2161e9851d03c61433b5,,1,0,80,76,1,79
,,,,,,,,,,,,,,,,,,,,,,,,,,,,,,,,,,,r,2.881000042,OJER,FALSE,,,,,,,185,ulleres,Catalan,Sounds/cat_ulleres.mp3,2020-06-13_12h12.57.975,TranslationElicitation_spa,3.2.4,Win32,60,5ede2161e9851d03c61433b5,,1,0,80,76,1,79
,,,,,,,,,,,,,,,,,,,,,,,,,,,,,,,,,,,a,3.164999962,OJERA,FALSE,,,,,,,185,ulleres,Catalan,Sounds/cat_ulleres.mp3,2020-06-13_12h12.57.975,TranslationElicitation_spa,3.2.4,Win32,60,5ede2161e9851d03c61433b5,,1,0,80,76,1,79
,,,,,,,,,,,,,,,,,,,,,,,,,,,,,,,,,,,s,3.315000057,OJERAS,FALSE,,,,,,,185,ulleres,Catalan,Sounds/cat_ulleres.mp3,2020-06-13_12h12.57.975,TranslationElicitation_spa,3.2.4,Win32,60,5ede2161e9851d03c61433b5,,1,0,80,76,1,79
,,,,,,,,,,,,,,,,,,,,,,,,,,,,,,,,,,,return,3.881999969,,FALSE,,,,,,,185,ulleres,Catalan,Sounds/cat_ulleres.mp3,2020-06-13_12h12.57.975,TranslationElicitation_spa,3.2.4,Win32,60,5ede2161e9851d03c61433b5,3.881999969,1,0,80,76,1,79
,,,,,,,,,,,,,,,,,,,,,,,,,,,,,,,,,,,,,,,,,,,,,185,ulleres,Catalan,Sounds/cat_ulleres.mp3,2020-06-13_12h12.57.975,TranslationElicitation_spa,3.2.4,Win32,60,5ede2161e9851d03c61433b5,,1,0,80,76,1,79
,,,,,,,,,,,,,,,,,,,,,,,,,,,,,,,,,,,m,1.331999779,M,FALSE,,,,,,,156,moto,Catalan,Sounds/cat_moto.mp3,2020-06-13_12h12.57.975,TranslationElicitation_spa,3.2.4,Win32,60,5ede2161e9851d03c61433b5,,1,0,80,50,1,79
,,,,,,,,,,,,,,,,,,,,,,,,,,,,,,,,,,,t,1.547999859,MT,FALSE,,,,,,,156,moto,Catalan,Sounds/cat_moto.mp3,2020-06-13_12h12.57.975,TranslationElicitation_spa,3.2.4,Win32,60,5ede2161e9851d03c61433b5,,1,0,80,50,1,79
,,,,,,,,,,,,,,,,,,,,,,,,,,,,,,,,,,,o,1.648000002,MTO,FALSE,,,,,,,156,moto,Catalan,Sounds/cat_moto.mp3,2020-06-13_12h12.57.975,TranslationElicitation_spa,3.2.4,Win32,60,5ede2161e9851d03c61433b5,,1,0,80,50,1,79
,,,,,,,,,,,,,,,,,,,,,,,,,,,,,,,,,,,backspace,2.11500001,M,TRUE,,,,,,,156,moto,Catalan,Sounds/cat_moto.mp3,2020-06-13_12h12.57.975,TranslationElicitation_spa,3.2.4,Win32,60,5ede2161e9851d03c61433b5,,1,0,80,50,1,79
,,,,,,,,,,,,,,,,,,,,,,,,,,,,,,,,,,,backspace,2.247999907,,TRUE,,,,,,,156,moto,Catalan,Sounds/cat_moto.mp3,2020-06-13_12h12.57.975,TranslationElicitation_spa,3.2.4,Win32,60,5ede2161e9851d03c61433b5,,1,0,80,50,1,79
,,,,,,,,,,,,,,,,,,,,,,,,,,,,,,,,,,,o,2.414999962,O,TRUE,,,,,,,156,moto,Catalan,Sounds/cat_moto.mp3,2020-06-13_12h12.57.975,TranslationElicitation_spa,3.2.4,Win32,60,5ede2161e9851d03c61433b5,,1,0,80,50,1,79
,,,,,,,,,,,,,,,,,,,,,,,,,,,,,,,,,,,t,2.531999826,OT,TRUE,,,,,,,156,moto,Catalan,Sounds/cat_moto.mp3,2020-06-13_12h12.57.975,TranslationElicitation_spa,3.2.4,Win32,60,5ede2161e9851d03c61433b5,,1,0,80,50,1,79
,,,,,,,,,,,,,,,,,,,,,,,,,,,,,,,,,,,backspace,2.947999954,,TRUE,,,,,,,156,moto,Catalan,Sounds/cat_moto.mp3,2020-06-13_12h12.57.975,TranslationElicitation_spa,3.2.4,Win32,60,5ede2161e9851d03c61433b5,,1,0,80,50,1,79
,,,,,,,,,,,,,,,,,,,,,,,,,,,,,,,,,,,backspace,3.113999844,,TRUE,,,,,,,156,moto,Catalan,Sounds/cat_moto.mp3,2020-06-13_12h12.57.975,TranslationElicitation_spa,3.2.4,Win32,60,5ede2161e9851d03c61433b5,,1,0,80,50,1,79
,,,,,,,,,,,,,,,,,,,,,,,,,,,,,,,,,,,m,3.314999819,M,TRUE,,,,,,,156,moto,Catalan,Sounds/cat_moto.mp3,2020-06-13_12h12.57.975,TranslationElicitation_spa,3.2.4,Win32,60,5ede2161e9851d03c61433b5,,1,0,80,50,1,79
,,,,,,,,,,,,,,,,,,,,,,,,,,,,,,,,,,,o,3.347999811,MO,TRUE,,,,,,,156,moto,Catalan,Sounds/cat_moto.mp3,2020-06-13_12h12.57.975,TranslationElicitation_spa,3.2.4,Win32,60,5ede2161e9851d03c61433b5,,1,0,80,50,1,79
,,,,,,,,,,,,,,,,,,,,,,,,,,,,,,,,,,,t,3.564999819,MOT,TRUE,,,,,,,156,moto,Catalan,Sounds/cat_moto.mp3,2020-06-13_12h12.57.975,TranslationElicitation_spa,3.2.4,Win32,60,5ede2161e9851d03c61433b5,,1,0,80,50,1,79
,,,,,,,,,,,,,,,,,,,,,,,,,,,,,,,,,,,o,3.648000002,MOTO,TRUE,,,,,,,156,moto,Catalan,Sounds/cat_moto.mp3,2020-06-13_12h12.57.975,TranslationElicitation_spa,3.2.4,Win32,60,5ede2161e9851d03c61433b5,,1,0,80,50,1,79
,,,,,,,,,,,,,,,,,,,,,,,,,,,,,,,,,,,return,3.983999968,,TRUE,,,,,,,156,moto,Catalan,Sounds/cat_moto.mp3,2020-06-13_12h12.57.975,TranslationElicitation_spa,3.2.4,Win32,60,5ede2161e9851d03c61433b5,3.983999968,1,0,80,50,1,79
,,,,,,,,,,,,,,,,,,,,,,,,,,,,,,,,,,,,,,,,,,,,,156,moto,Catalan,Sounds/cat_moto.mp3,2020-06-13_12h12.57.975,TranslationElicitation_spa,3.2.4,Win32,60,5ede2161e9851d03c61433b5,,1,0,80,50,1,79
,,,,,,,,,,,,,,,,,,,,,,,,,,,,,,,,,,,b,2.882000208,B,FALSE,,,,,,,187,vaixell,Catalan,Sounds/cat_vaixell.mp3,2020-06-13_12h12.57.975,TranslationElicitation_spa,3.2.4,Win32,60,5ede2161e9851d03c61433b5,,1,0,80,77,1,79
,,,,,,,,,,,,,,,,,,,,,,,,,,,,,,,,,,,a,3.18200016,BA,FALSE,,,,,,,187,vaixell,Catalan,Sounds/cat_vaixell.mp3,2020-06-13_12h12.57.975,TranslationElicitation_spa,3.2.4,Win32,60,5ede2161e9851d03c61433b5,,1,0,80,77,1,79
,,,,,,,,,,,,,,,,,,,,,,,,,,,,,,,,,,,j,3.368000031,BAJ,FALSE,,,,,,,187,vaixell,Catalan,Sounds/cat_vaixell.mp3,2020-06-13_12h12.57.975,TranslationElicitation_spa,3.2.4,Win32,60,5ede2161e9851d03c61433b5,,1,0,80,77,1,79
,,,,,,,,,,,,,,,,,,,,,,,,,,,,,,,,,,,a,3.430999994,BAJA,FALSE,,,,,,,187,vaixell,Catalan,Sounds/cat_vaixell.mp3,2020-06-13_12h12.57.975,TranslationElicitation_spa,3.2.4,Win32,60,5ede2161e9851d03c61433b5,,1,0,80,77,1,79
,,,,,,,,,,,,,,,,,,,,,,,,,,,,,,,,,,,r,3.848999977,BAJAR,FALSE,,,,,,,187,vaixell,Catalan,Sounds/cat_vaixell.mp3,2020-06-13_12h12.57.975,TranslationElicitation_spa,3.2.4,Win32,60,5ede2161e9851d03c61433b5,,1,0,80,77,1,79
,,,,,,,,,,,,,,,,,,,,,,,,,,,,,,,,,,,return,4.032000065,,FALSE,,,,,,,187,vaixell,Catalan,Sounds/cat_vaixell.mp3,2020-06-13_12h12.57.975,TranslationElicitation_spa,3.2.4,Win32,60,5ede2161e9851d03c61433b5,4.032000065,1,0,80,77,1,79
,,,,,,,,,,,,,,,,,,,,,,,,,,,,,,,,,,,,,,,,,,,,,187,vaixell,Catalan,Sounds/cat_vaixell.mp3,2020-06-13_12h12.57.975,TranslationElicitation_spa,3.2.4,Win32,60,5ede2161e9851d03c61433b5,,1,0,80,77,1,79
,,,,,,,,,,,,,,,,,,,,,,,,,,,,,,,,,,,c,2.132000208,C,FALSE,,,,,,,123,cavall,Catalan,Sounds/cat_cavall.mp3,2020-06-13_12h12.57.975,TranslationElicitation_spa,3.2.4,Win32,60,5ede2161e9851d03c61433b5,,1,0,80,18,1,79
,,,,,,,,,,,,,,,,,,,,,,,,,,,,,,,,,,,a,2.215000153,CA,FALSE,,,,,,,123,cavall,Catalan,Sounds/cat_cavall.mp3,2020-06-13_12h12.57.975,TranslationElicitation_spa,3.2.4,Win32,60,5ede2161e9851d03c61433b5,,1,0,80,18,1,79
,,,,,,,,,,,,,,,,,,,,,,,,,,,,,,,,,,,b,2.382000208,CAB,FALSE,,,,,,,123,cavall,Catalan,Sounds/cat_cavall.mp3,2020-06-13_12h12.57.975,TranslationElicitation_spa,3.2.4,Win32,60,5ede2161e9851d03c61433b5,,1,0,80,18,1,79
,,,,,,,,,,,,,,,,,,,,,,,,,,,,,,,,,,,a,2.48300004,CABA,FALSE,,,,,,,123,cavall,Catalan,Sounds/cat_cavall.mp3,2020-06-13_12h12.57.975,TranslationElicitation_spa,3.2.4,Win32,60,5ede2161e9851d03c61433b5,,1,0,80,18,1,79
,,,,,,,,,,,,,,,,,,,,,,,,,,,,,,,,,,,l,2.68200016,CABAL,FALSE,,,,,,,123,cavall,Catalan,Sounds/cat_cavall.mp3,2020-06-13_12h12.57.975,TranslationElicitation_spa,3.2.4,Win32,60,5ede2161e9851d03c61433b5,,1,0,80,18,1,79
,,,,,,,,,,,,,,,,,,,,,,,,,,,,,,,,,,,l,2.869000196,CABALL,FALSE,,,,,,,123,cavall,Catalan,Sounds/cat_cavall.mp3,2020-06-13_12h12.57.975,TranslationElicitation_spa,3.2.4,Win32,60,5ede2161e9851d03c61433b5,,1,0,80,18,1,79
,,,,,,,,,,,,,,,,,,,,,,,,,,,,,,,,,,,o,3,CABALLO,FALSE,,,,,,,123,cavall,Catalan,Sounds/cat_cavall.mp3,2020-06-13_12h12.57.975,TranslationElicitation_spa,3.2.4,Win32,60,5ede2161e9851d03c61433b5,,1,0,80,18,1,79
,,,,,,,,,,,,,,,,,,,,,,,,,,,,,,,,,,,return,3.366000175,,FALSE,,,,,,,123,cavall,Catalan,Sounds/cat_cavall.mp3,2020-06-13_12h12.57.975,TranslationElicitation_spa,3.2.4,Win32,60,5ede2161e9851d03c61433b5,3.366000175,1,0,80,18,1,79
,,,,,,,,,,,,,,,,,,,,,,,,,,,,,,,,,,,,,,,,,,,,,123,cavall,Catalan,Sounds/cat_cavall.mp3,2020-06-13_12h12.57.975,TranslationElicitation_spa,3.2.4,Win32,60,5ede2161e9851d03c61433b5,,1,0,80,18,1,79
,,,,,,,,,,,,,,,,,,,,,,,,,,,,,,,,,,,l,1.832000017,L,FALSE,,,,,,,150,lloro,Catalan,Sounds/cat_lloro.mp3,2020-06-13_12h12.57.975,TranslationElicitation_spa,3.2.4,Win32,60,5ede2161e9851d03c61433b5,,1,0,80,44,1,79
,,,,,,,,,,,,,,,,,,,,,,,,,,,,,,,,,,,o,1.948999882,LO,FALSE,,,,,,,150,lloro,Catalan,Sounds/cat_lloro.mp3,2020-06-13_12h12.57.975,TranslationElicitation_spa,3.2.4,Win32,60,5ede2161e9851d03c61433b5,,1,0,80,44,1,79
,,,,,,,,,,,,,,,,,,,,,,,,,,,,,,,,,,,r,2.048000097,LOR,FALSE,,,,,,,150,lloro,Catalan,Sounds/cat_lloro.mp3,2020-06-13_12h12.57.975,TranslationElicitation_spa,3.2.4,Win32,60,5ede2161e9851d03c61433b5,,1,0,80,44,1,79
,,,,,,,,,,,,,,,,,,,,,,,,,,,,,,,,,,,o,2.132999897,LORO,FALSE,,,,,,,150,lloro,Catalan,Sounds/cat_lloro.mp3,2020-06-13_12h12.57.975,TranslationElicitation_spa,3.2.4,Win32,60,5ede2161e9851d03c61433b5,,1,0,80,44,1,79
,,,,,,,,,,,,,,,,,,,,,,,,,,,,,,,,,,,return,2.516000032,,FALSE,,,,,,,150,lloro,Catalan,Sounds/cat_lloro.mp3,2020-06-13_12h12.57.975,TranslationElicitation_spa,3.2.4,Win32,60,5ede2161e9851d03c61433b5,2.515000105,1,0,80,44,1,79
,,,,,,,,,,,,,,,,,,,,,,,,,,,,,,,,,,,,,,,,,,,,,150,lloro,Catalan,Sounds/cat_lloro.mp3,2020-06-13_12h12.57.975,TranslationElicitation_spa,3.2.4,Win32,60,5ede2161e9851d03c61433b5,,1,0,80,44,1,79
,,,,,,,,,,,,,,,,,,,,,,,,,,,,,,,,,,,b,2.564999819,B,FALSE,,,,,,,117,boto,Catalan,Sounds/cat_boto.mp3,2020-06-13_12h12.57.975,TranslationElicitation_spa,3.2.4,Win32,60,5ede2161e9851d03c61433b5,,1,0,80,12,1,79
,,,,,,,,,,,,,,,,,,,,,,,,,,,,,,,,,,,o,2.649999857,BO,FALSE,,,,,,,117,boto,Catalan,Sounds/cat_boto.mp3,2020-06-13_12h12.57.975,TranslationElicitation_spa,3.2.4,Win32,60,5ede2161e9851d03c61433b5,,1,0,80,12,1,79
,,,,,,,,,,,,,,,,,,,,,,,,,,,,,,,,,,,t,2.865999937,BOT,FALSE,,,,,,,117,boto,Catalan,Sounds/cat_boto.mp3,2020-06-13_12h12.57.975,TranslationElicitation_spa,3.2.4,Win32,60,5ede2161e9851d03c61433b5,,1,0,80,12,1,79
,,,,,,,,,,,,,,,,,,,,,,,,,,,,,,,,,,,o,2.986999989,BOTO,FALSE,,,,,,,117,boto,Catalan,Sounds/cat_boto.mp3,2020-06-13_12h12.57.975,TranslationElicitation_spa,3.2.4,Win32,60,5ede2161e9851d03c61433b5,,1,0,80,12,1,79
,,,,,,,,,,,,,,,,,,,,,,,,,,,,,,,,,,,n,3.25,BOTON,FALSE,,,,,,,117,boto,Catalan,Sounds/cat_boto.mp3,2020-06-13_12h12.57.975,TranslationElicitation_spa,3.2.4,Win32,60,5ede2161e9851d03c61433b5,,1,0,80,12,1,79
,,,,,,,,,,,,,,,,,,,,,,,,,,,,,,,,,,,backspace,3.871999979,BOT,TRUE,,,,,,,117,boto,Catalan,Sounds/cat_boto.mp3,2020-06-13_12h12.57.975,TranslationElicitation_spa,3.2.4,Win32,60,5ede2161e9851d03c61433b5,,1,0,80,12,1,79
,,,,,,,,,,,,,,,,,,,,,,,,,,,,,,,,,,,backspace,4.251999855,B,TRUE,,,,,,,117,boto,Catalan,Sounds/cat_boto.mp3,2020-06-13_12h12.57.975,TranslationElicitation_spa,3.2.4,Win32,60,5ede2161e9851d03c61433b5,,1,0,80,12,1,79
,,,,,,,,,,,,,,,,,,,,,,,,,,,,,,,,,,,apostrophe,4.398999929,B,TRUE,,,,,,,117,boto,Catalan,Sounds/cat_boto.mp3,2020-06-13_12h12.57.975,TranslationElicitation_spa,3.2.4,Win32,60,5ede2161e9851d03c61433b5,,1,0,80,12,1,79
,,,,,,,,,,,,,,,,,,,,,,,,,,,,,,,,,,,o,4.721999884,BÓ,TRUE,,,,,,,117,boto,Catalan,Sounds/cat_boto.mp3,2020-06-13_12h12.57.975,TranslationElicitation_spa,3.2.4,Win32,60,5ede2161e9851d03c61433b5,,1,0,80,12,1,79
,,,,,,,,,,,,,,,,,,,,,,,,,,,,,,,,,,,n,4.89199996,BÓN,TRUE,,,,,,,117,boto,Catalan,Sounds/cat_boto.mp3,2020-06-13_12h12.57.975,TranslationElicitation_spa,3.2.4,Win32,60,5ede2161e9851d03c61433b5,,1,0,80,12,1,79
,,,,,,,,,,,,,,,,,,,,,,,,,,,,,,,,,,,backspace,5.563999891,B,TRUE,,,,,,,117,boto,Catalan,Sounds/cat_boto.mp3,2020-06-13_12h12.57.975,TranslationElicitation_spa,3.2.4,Win32,60,5ede2161e9851d03c61433b5,,1,0,80,12,1,79
,,,,,,,,,,,,,,,,,,,,,,,,,,,,,,,,,,,backspace,5.680999994,,TRUE,,,,,,,117,boto,Catalan,Sounds/cat_boto.mp3,2020-06-13_12h12.57.975,TranslationElicitation_spa,3.2.4,Win32,60,5ede2161e9851d03c61433b5,,1,0,80,12,1,79
,,,,,,,,,,,,,,,,,,,,,,,,,,,,,,,,,,,o,6.02699995,O,TRUE,,,,,,,117,boto,Catalan,Sounds/cat_boto.mp3,2020-06-13_12h12.57.975,TranslationElicitation_spa,3.2.4,Win32,60,5ede2161e9851d03c61433b5,,1,0,80,12,1,79
,,,,,,,,,,,,,,,,,,,,,,,,,,,,,,,,,,,backspace,6.493999958,,TRUE,,,,,,,117,boto,Catalan,Sounds/cat_boto.mp3,2020-06-13_12h12.57.975,TranslationElicitation_spa,3.2.4,Win32,60,5ede2161e9851d03c61433b5,,1,0,80,12,1,79
,,,,,,,,,,,,,,,,,,,,,,,,,,,,,,,,,,,b,7.049999952,B,TRUE,,,,,,,117,boto,Catalan,Sounds/cat_boto.mp3,2020-06-13_12h12.57.975,TranslationElicitation_spa,3.2.4,Win32,60,5ede2161e9851d03c61433b5,,1,0,80,12,1,79
,,,,,,,,,,,,,,,,,,,,,,,,,,,,,,,,,,,o,7.167999983,BO,TRUE,,,,,,,117,boto,Catalan,Sounds/cat_boto.mp3,2020-06-13_12h12.57.975,TranslationElicitation_spa,3.2.4,Win32,60,5ede2161e9851d03c61433b5,,1,0,80,12,1,79
,,,,,,,,,,,,,,,,,,,,,,,,,,,,,,,,,,,t,7.465999842,BOT,TRUE,,,,,,,117,boto,Catalan,Sounds/cat_boto.mp3,2020-06-13_12h12.57.975,TranslationElicitation_spa,3.2.4,Win32,60,5ede2161e9851d03c61433b5,,1,0,80,12,1,79
,,,,,,,,,,,,,,,,,,,,,,,,,,,,,,,,,,,apostrophe,7.75,BOT,TRUE,,,,,,,117,boto,Catalan,Sounds/cat_boto.mp3,2020-06-13_12h12.57.975,TranslationElicitation_spa,3.2.4,Win32,60,5ede2161e9851d03c61433b5,,1,0,80,12,1,79
,,,,,,,,,,,,,,,,,,,,,,,,,,,,,,,,,,,o,8.031999826,BOTÓ,TRUE,,,,,,,117,boto,Catalan,Sounds/cat_boto.mp3,2020-06-13_12h12.57.975,TranslationElicitation_spa,3.2.4,Win32,60,5ede2161e9851d03c61433b5,,1,0,80,12,1,79
,,,,,,,,,,,,,,,,,,,,,,,,,,,,,,,,,,,n,8.229999781,BOTÓN,TRUE,,,,,,,117,boto,Catalan,Sounds/cat_boto.mp3,2020-06-13_12h12.57.975,TranslationElicitation_spa,3.2.4,Win32,60,5ede2161e9851d03c61433b5,,1,0,80,12,1,79
,,,,,,,,,,,,,,,,,,,,,,,,,,,,,,,,,,,return,8.605999947,,TRUE,,,,,,,117,boto,Catalan,Sounds/cat_boto.mp3,2020-06-13_12h12.57.975,TranslationElicitation_spa,3.2.4,Win32,60,5ede2161e9851d03c61433b5,8.605999947,1,0,80,12,1,79
,,,,,,,,,,,,,,,,,,,,,,,,,,,,,,,,,,,,,,,,,,,,,117,boto,Catalan,Sounds/cat_boto.mp3,2020-06-13_12h12.57.975,TranslationElicitation_spa,3.2.4,Win32,60,5ede2161e9851d03c61433b5,,1,0,80,12,1,79
,,,,,,,,,,,,,,,,,,,,,,,,,,,,,,,,,,,m,2.546000004,M,FALSE,,,,,,,152,ma,Catalan,Sounds/cat_ma.mp3,2020-06-13_12h12.57.975,TranslationElicitation_spa,3.2.4,Win32,60,5ede2161e9851d03c61433b5,,1,0,80,46,1,79
,,,,,,,,,,,,,,,,,,,,,,,,,,,,,,,,,,,a,2.729000092,MA,FALSE,,,,,,,152,ma,Catalan,Sounds/cat_ma.mp3,2020-06-13_12h12.57.975,TranslationElicitation_spa,3.2.4,Win32,60,5ede2161e9851d03c61433b5,,1,0,80,46,1,79
,,,,,,,,,,,,,,,,,,,,,,,,,,,,,,,,,,,r,2.881000042,MAR,FALSE,,,,,,,152,ma,Catalan,Sounds/cat_ma.mp3,2020-06-13_12h12.57.975,TranslationElicitation_spa,3.2.4,Win32,60,5ede2161e9851d03c61433b5,,1,0,80,46,1,79
,,,,,,,,,,,,,,,,,,,,,,,,,,,,,,,,,,,return,3.711999893,,FALSE,,,,,,,152,ma,Catalan,Sounds/cat_ma.mp3,2020-06-13_12h12.57.975,TranslationElicitation_spa,3.2.4,Win32,60,5ede2161e9851d03c61433b5,3.711999893,1,0,80,46,1,79
,,,,,,,,,,,,,,,,,,,,,,,,,,,,,,,,,,,,,,,,,,,,,152,ma,Catalan,Sounds/cat_ma.mp3,2020-06-13_12h12.57.975,TranslationElicitation_spa,3.2.4,Win32,60,5ede2161e9851d03c61433b5,,1,0,80,46,1,79
,,,,,,,,,,,,,,,,,,,,,,,,,,,,,,,,,,,return,5.815000057,,FALSE,,,,,,,128,cuc,Catalan,Sounds/cat_cuc.mp3,2020-06-13_12h12.57.975,TranslationElicitation_spa,3.2.4,Win32,60,5ede2161e9851d03c61433b5,5.815000057,1,0,80,23,1,79
,,,,,,,,,,,,,,,,,,,,,,,,,,,,,,,,,,,,,,,,,,,,,128,cuc,Catalan,Sounds/cat_cuc.mp3,2020-06-13_12h12.57.975,TranslationElicitation_spa,3.2.4,Win32,60,5ede2161e9851d03c61433b5,,1,0,80,23,1,79
,,,,,,,,,,,,,,,,,,,,,,,,,,,,,,,,,,,o,1.148999929,O,FALSE,,,,,,,127,cotxe,Catalan,Sounds/cat_cotxe.mp3,2020-06-13_12h12.57.975,TranslationElicitation_spa,3.2.4,Win32,60,5ede2161e9851d03c61433b5,,1,0,80,22,1,79
,,,,,,,,,,,,,,,,,,,,,,,,,,,,,,,,,,,backspace,1.765000105,,TRUE,,,,,,,127,cotxe,Catalan,Sounds/cat_cotxe.mp3,2020-06-13_12h12.57.975,TranslationElicitation_spa,3.2.4,Win32,60,5ede2161e9851d03c61433b5,,1,0,80,22,1,79
,,,,,,,,,,,,,,,,,,,,,,,,,,,,,,,,,,,c,1.933000088,C,TRUE,,,,,,,127,cotxe,Catalan,Sounds/cat_cotxe.mp3,2020-06-13_12h12.57.975,TranslationElicitation_spa,3.2.4,Win32,60,5ede2161e9851d03c61433b5,,1,0,80,22,1,79
,,,,,,,,,,,,,,,,,,,,,,,,,,,,,,,,,,,o,2.197999954,CO,TRUE,,,,,,,127,cotxe,Catalan,Sounds/cat_cotxe.mp3,2020-06-13_12h12.57.975,TranslationElicitation_spa,3.2.4,Win32,60,5ede2161e9851d03c61433b5,,1,0,80,22,1,79
,,,,,,,,,,,,,,,,,,,,,,,,,,,,,,,,,,,c,2.381999969,COC,TRUE,,,,,,,127,cotxe,Catalan,Sounds/cat_cotxe.mp3,2020-06-13_12h12.57.975,TranslationElicitation_spa,3.2.4,Win32,60,5ede2161e9851d03c61433b5,,1,0,80,22,1,79
,,,,,,,,,,,,,,,,,,,,,,,,,,,,,,,,,,,h,2.548000097,COCH,TRUE,,,,,,,127,cotxe,Catalan,Sounds/cat_cotxe.mp3,2020-06-13_12h12.57.975,TranslationElicitation_spa,3.2.4,Win32,60,5ede2161e9851d03c61433b5,,1,0,80,22,1,79
,,,,,,,,,,,,,,,,,,,,,,,,,,,,,,,,,,,e,2.765000105,COCHE,TRUE,,,,,,,127,cotxe,Catalan,Sounds/cat_cotxe.mp3,2020-06-13_12h12.57.975,TranslationElicitation_spa,3.2.4,Win32,60,5ede2161e9851d03c61433b5,,1,0,80,22,1,79
,,,,,,,,,,,,,,,,,,,,,,,,,,,,,,,,,,,backspace,3.266000032,COC,TRUE,,,,,,,127,cotxe,Catalan,Sounds/cat_cotxe.mp3,2020-06-13_12h12.57.975,TranslationElicitation_spa,3.2.4,Win32,60,5ede2161e9851d03c61433b5,,1,0,80,22,1,79
,,,,,,,,,,,,,,,,,,,,,,,,,,,,,,,,,,,h,3.898999929,COCH,TRUE,,,,,,,127,cotxe,Catalan,Sounds/cat_cotxe.mp3,2020-06-13_12h12.57.975,TranslationElicitation_spa,3.2.4,Win32,60,5ede2161e9851d03c61433b5,,1,0,80,22,1,79
,,,,,,,,,,,,,,,,,,,,,,,,,,,,,,,,,,,e,4.015000105,COCHE,TRUE,,,,,,,127,cotxe,Catalan,Sounds/cat_cotxe.mp3,2020-06-13_12h12.57.975,TranslationElicitation_spa,3.2.4,Win32,60,5ede2161e9851d03c61433b5,,1,0,80,22,1,79
,,,,,,,,,,,,,,,,,,,,,,,,,,,,,,,,,,,return,4.265000105,,TRUE,,,,,,,127,cotxe,Catalan,Sounds/cat_cotxe.mp3,2020-06-13_12h12.57.975,TranslationElicitation_spa,3.2.4,Win32,60,5ede2161e9851d03c61433b5,4.265000105,1,0,80,22,1,79
,,,,,,,,,,,,,,,,,,,,,,,,,,,,,,,,,,,,,,,,,,,,,127,cotxe,Catalan,Sounds/cat_cotxe.mp3,2020-06-13_12h12.57.975,TranslationElicitation_spa,3.2.4,Win32,60,5ede2161e9851d03c61433b5,,1,0,80,22,1,79
,,,,,,,,,,,,,,,,,,,,,,,,,,,,,,,,,,,l,1.299000025,L,FALSE,,,,,,,168,planta,Catalan,Sounds/cat_planta.mp3,2020-06-13_12h12.57.975,TranslationElicitation_spa,3.2.4,Win32,60,5ede2161e9851d03c61433b5,,1,0,80,60,1,79
,,,,,,,,,,,,,,,,,,,,,,,,,,,,,,,,,,,backspace,1.881999969,,TRUE,,,,,,,168,planta,Catalan,Sounds/cat_planta.mp3,2020-06-13_12h12.57.975,TranslationElicitation_spa,3.2.4,Win32,60,5ede2161e9851d03c61433b5,,1,0,80,60,1,79
,,,,,,,,,,,,,,,,,,,,,,,,,,,,,,,,,,,p,2.232000113,P,TRUE,,,,,,,168,planta,Catalan,Sounds/cat_planta.mp3,2020-06-13_12h12.57.975,TranslationElicitation_spa,3.2.4,Win32,60,5ede2161e9851d03c61433b5,,1,0,80,60,1,79
,,,,,,,,,,,,,,,,,,,,,,,,,,,,,,,,,,,l,2.433000088,PL,TRUE,,,,,,,168,planta,Catalan,Sounds/cat_planta.mp3,2020-06-13_12h12.57.975,TranslationElicitation_spa,3.2.4,Win32,60,5ede2161e9851d03c61433b5,,1,0,80,60,1,79
,,,,,,,,,,,,,,,,,,,,,,,,,,,,,,,,,,,a,2.598999977,PLA,TRUE,,,,,,,168,planta,Catalan,Sounds/cat_planta.mp3,2020-06-13_12h12.57.975,TranslationElicitation_spa,3.2.4,Win32,60,5ede2161e9851d03c61433b5,,1,0,80,60,1,79
,,,,,,,,,,,,,,,,,,,,,,,,,,,,,,,,,,,n,2.71600008,PLAN,TRUE,,,,,,,168,planta,Catalan,Sounds/cat_planta.mp3,2020-06-13_12h12.57.975,TranslationElicitation_spa,3.2.4,Win32,60,5ede2161e9851d03c61433b5,,1,0,80,60,1,79
,,,,,,,,,,,,,,,,,,,,,,,,,,,,,,,,,,,t,2.931999922,PLANT,TRUE,,,,,,,168,planta,Catalan,Sounds/cat_planta.mp3,2020-06-13_12h12.57.975,TranslationElicitation_spa,3.2.4,Win32,60,5ede2161e9851d03c61433b5,,1,0,80,60,1,79
,,,,,,,,,,,,,,,,,,,,,,,,,,,,,,,,,,,a,3.226000071,PLANTA,TRUE,,,,,,,168,planta,Catalan,Sounds/cat_planta.mp3,2020-06-13_12h12.57.975,TranslationElicitation_spa,3.2.4,Win32,60,5ede2161e9851d03c61433b5,,1,0,80,60,1,79
,,,,,,,,,,,,,,,,,,,,,,,,,,,,,,,,,,,backspace,3.515000105,PLAN,TRUE,,,,,,,168,planta,Catalan,Sounds/cat_planta.mp3,2020-06-13_12h12.57.975,TranslationElicitation_spa,3.2.4,Win32,60,5ede2161e9851d03c61433b5,,1,0,80,60,1,79
,,,,,,,,,,,,,,,,,,,,,,,,,,,,,,,,,,,t,4.282999992,PLANT,TRUE,,,,,,,168,planta,Catalan,Sounds/cat_planta.mp3,2020-06-13_12h12.57.975,TranslationElicitation_spa,3.2.4,Win32,60,5ede2161e9851d03c61433b5,,1,0,80,60,1,79
,,,,,,,,,,,,,,,,,,,,,,,,,,,,,,,,,,,a,4.615999937,PLANTA,TRUE,,,,,,,168,planta,Catalan,Sounds/cat_planta.mp3,2020-06-13_12h12.57.975,TranslationElicitation_spa,3.2.4,Win32,60,5ede2161e9851d03c61433b5,,1,0,80,60,1,79
,,,,,,,,,,,,,,,,,,,,,,,,,,,,,,,,,,,return,4.86500001,,TRUE,,,,,,,168,planta,Catalan,Sounds/cat_planta.mp3,2020-06-13_12h12.57.975,TranslationElicitation_spa,3.2.4,Win32,60,5ede2161e9851d03c61433b5,4.86500001,1,0,80,60,1,79
,,,,,,,,,,,,,,,,,,,,,,,,,,,,,,,,,,,,,,,,,,,,,168,planta,Catalan,Sounds/cat_planta.mp3,2020-06-13_12h12.57.975,TranslationElicitation_spa,3.2.4,Win32,60,5ede2161e9851d03c61433b5,,1,0,80,60,1,79
,,,,,,,,,,,,,,,,,,,,,,,,,,,,,,,,,,,c,2.21600008,C,FALSE,,,,,,,189,zebra,Catalan,Sounds/cat_zebra.mp3,2020-06-13_12h12.57.975,TranslationElicitation_spa,3.2.4,Win32,60,5ede2161e9851d03c61433b5,,1,0,80,79,1,79
,,,,,,,,,,,,,,,,,,,,,,,,,,,,,,,,,,,e,2.282999992,CE,FALSE,,,,,,,189,zebra,Catalan,Sounds/cat_zebra.mp3,2020-06-13_12h12.57.975,TranslationElicitation_spa,3.2.4,Win32,60,5ede2161e9851d03c61433b5,,1,0,80,79,1,79
,,,,,,,,,,,,,,,,,,,,,,,,,,,,,,,,,,,b,2.433000088,CEB,FALSE,,,,,,,189,zebra,Catalan,Sounds/cat_zebra.mp3,2020-06-13_12h12.57.975,TranslationElicitation_spa,3.2.4,Win32,60,5ede2161e9851d03c61433b5,,1,0,80,79,1,79
,,,,,,,,,,,,,,,,,,,,,,,,,,,,,,,,,,,r,2.515000105,CEBR,FALSE,,,,,,,189,zebra,Catalan,Sounds/cat_zebra.mp3,2020-06-13_12h12.57.975,TranslationElicitation_spa,3.2.4,Win32,60,5ede2161e9851d03c61433b5,,1,0,80,79,1,79
,,,,,,,,,,,,,,,,,,,,,,,,,,,,,,,,,,,a,2.782000065,CEBRA,FALSE,,,,,,,189,zebra,Catalan,Sounds/cat_zebra.mp3,2020-06-13_12h12.57.975,TranslationElicitation_spa,3.2.4,Win32,60,5ede2161e9851d03c61433b5,,1,0,80,79,1,79
,,,,,,,,,,,,,,,,,,,,,,,,,,,,,,,,,,,return,3.414999962,,FALSE,,,,,,,189,zebra,Catalan,Sounds/cat_zebra.mp3,2020-06-13_12h12.57.975,TranslationElicitation_spa,3.2.4,Win32,60,5ede2161e9851d03c61433b5,3.414999962,1,0,80,79,1,79
,,,,,,,,,,,,,,,,,,,,,,,,,,,,,,,,,,,,,,,,,,,,,189,zebra,Catalan,Sounds/cat_zebra.mp3,2020-06-13_12h12.57.975,TranslationElicitation_spa,3.2.4,Win32,60,5ede2161e9851d03c61433b5,,1,0,80,79,1,79
,,,,,,,,,,,,,,,,,,,,,,,,,,,,,,,,,,,g,2.315000057,G,FALSE,,,,,,,139,galleda,Catalan,Sounds/cat_galleda.mp3,2020-06-13_12h12.57.975,TranslationElicitation_spa,3.2.4,Win32,60,5ede2161e9851d03c61433b5,,1,0,80,34,1,79
,,,,,,,,,,,,,,,,,,,,,,,,,,,,,,,,,,,a,2.666000128,GA,FALSE,,,,,,,139,galleda,Catalan,Sounds/cat_galleda.mp3,2020-06-13_12h12.57.975,TranslationElicitation_spa,3.2.4,Win32,60,5ede2161e9851d03c61433b5,,1,0,80,34,1,79
,,,,,,,,,,,,,,,,,,,,,,,,,,,,,,,,,,,l,2.806999922,GAL,FALSE,,,,,,,139,galleda,Catalan,Sounds/cat_galleda.mp3,2020-06-13_12h12.57.975,TranslationElicitation_spa,3.2.4,Win32,60,5ede2161e9851d03c61433b5,,1,0,80,34,1,79
,,,,,,,,,,,,,,,,,,,,,,,,,,,,,,,,,,,l,2.980999947,GALL,FALSE,,,,,,,139,galleda,Catalan,Sounds/cat_galleda.mp3,2020-06-13_12h12.57.975,TranslationElicitation_spa,3.2.4,Win32,60,5ede2161e9851d03c61433b5,,1,0,80,34,1,79
,,,,,,,,,,,,,,,,,,,,,,,,,,,,,,,,,,,e,3.049000025,GALLE,FALSE,,,,,,,139,galleda,Catalan,Sounds/cat_galleda.mp3,2020-06-13_12h12.57.975,TranslationElicitation_spa,3.2.4,Win32,60,5ede2161e9851d03c61433b5,,1,0,80,34,1,79
,,,,,,,,,,,,,,,,,,,,,,,,,,,,,,,,,,,t,3.197999954,GALLET,FALSE,,,,,,,139,galleda,Catalan,Sounds/cat_galleda.mp3,2020-06-13_12h12.57.975,TranslationElicitation_spa,3.2.4,Win32,60,5ede2161e9851d03c61433b5,,1,0,80,34,1,79
,,,,,,,,,,,,,,,,,,,,,,,,,,,,,,,,,,,a,3.464999914,GALLETA,FALSE,,,,,,,139,galleda,Catalan,Sounds/cat_galleda.mp3,2020-06-13_12h12.57.975,TranslationElicitation_spa,3.2.4,Win32,60,5ede2161e9851d03c61433b5,,1,0,80,34,1,79
,,,,,,,,,,,,,,,,,,,,,,,,,,,,,,,,,,,return,3.666000128,,FALSE,,,,,,,139,galleda,Catalan,Sounds/cat_galleda.mp3,2020-06-13_12h12.57.975,TranslationElicitation_spa,3.2.4,Win32,60,5ede2161e9851d03c61433b5,3.666000128,1,0,80,34,1,79
,,,,,,,,,,,,,,,,,,,,,,,,,,,,,,,,,,,,,,,,,,,,,139,galleda,Catalan,Sounds/cat_galleda.mp3,2020-06-13_12h12.57.975,TranslationElicitation_spa,3.2.4,Win32,60,5ede2161e9851d03c61433b5,,1,0,80,34,1,79
,,,,,,,,,,,,,,,,,,,,,,,,,,,,,,,,,,,n,3.199999809,N,FALSE,,,,,,,178,taronja,Catalan,Sounds/cat_taronja.mp3,2020-06-13_12h12.57.975,TranslationElicitation_spa,3.2.4,Win32,60,5ede2161e9851d03c61433b5,,1,0,80,70,1,79
,,,,,,,,,,,,,,,,,,,,,,,,,,,,,,,,,,,a,3.281999826,NA,FALSE,,,,,,,178,taronja,Catalan,Sounds/cat_taronja.mp3,2020-06-13_12h12.57.975,TranslationElicitation_spa,3.2.4,Win32,60,5ede2161e9851d03c61433b5,,1,0,80,70,1,79
,,,,,,,,,,,,,,,,,,,,,,,,,,,,,,,,,,,r,3.448999882,NAR,FALSE,,,,,,,178,taronja,Catalan,Sounds/cat_taronja.mp3,2020-06-13_12h12.57.975,TranslationElicitation_spa,3.2.4,Win32,60,5ede2161e9851d03c61433b5,,1,0,80,70,1,79
,,,,,,,,,,,,,,,,,,,,,,,,,,,,,,,,,,,a,3.565999985,NARA,FALSE,,,,,,,178,taronja,Catalan,Sounds/cat_taronja.mp3,2020-06-13_12h12.57.975,TranslationElicitation_spa,3.2.4,Win32,60,5ede2161e9851d03c61433b5,,1,0,80,70,1,79
,,,,,,,,,,,,,,,,,,,,,,,,,,,,,,,,,,,n,3.698999882,NARAN,FALSE,,,,,,,178,taronja,Catalan,Sounds/cat_taronja.mp3,2020-06-13_12h12.57.975,TranslationElicitation_spa,3.2.4,Win32,60,5ede2161e9851d03c61433b5,,1,0,80,70,1,79
,,,,,,,,,,,,,,,,,,,,,,,,,,,,,,,,,,,j,3.899999857,NARANJ,FALSE,,,,,,,178,taronja,Catalan,Sounds/cat_taronja.mp3,2020-06-13_12h12.57.975,TranslationElicitation_spa,3.2.4,Win32,60,5ede2161e9851d03c61433b5,,1,0,80,70,1,79
,,,,,,,,,,,,,,,,,,,,,,,,,,,,,,,,,,,a,4.066999912,NARANJA,FALSE,,,,,,,178,taronja,Catalan,Sounds/cat_taronja.mp3,2020-06-13_12h12.57.975,TranslationElicitation_spa,3.2.4,Win32,60,5ede2161e9851d03c61433b5,,1,0,80,70,1,79
,,,,,,,,,,,,,,,,,,,,,,,,,,,,,,,,,,,return,4.297999859,,FALSE,,,,,,,178,taronja,Catalan,Sounds/cat_taronja.mp3,2020-06-13_12h12.57.975,TranslationElicitation_spa,3.2.4,Win32,60,5ede2161e9851d03c61433b5,4.297999859,1,0,80,70,1,79
,,,,,,,,,,,,,,,,,,,,,,,,,,,,,,,,,,,,,,,,,,,,,178,taronja,Catalan,Sounds/cat_taronja.mp3,2020-06-13_12h12.57.975,TranslationElicitation_spa,3.2.4,Win32,60,5ede2161e9851d03c61433b5,,1,0,80,70,1,79
,,,,,,,,,,,,,,,,,,,,,,,,,,,,,,,,,,,p,1.299000025,P,FALSE,,,,,,,164,patata,Catalan,Sounds/cat_patata.mp3,2020-06-13_12h12.57.975,TranslationElicitation_spa,3.2.4,Win32,60,5ede2161e9851d03c61433b5,,1,0,80,57,1,79
,,,,,,,,,,,,,,,,,,,,,,,,,,,,,,,,,,,a,1.714999914,PA,FALSE,,,,,,,164,patata,Catalan,Sounds/cat_patata.mp3,2020-06-13_12h12.57.975,TranslationElicitation_spa,3.2.4,Win32,60,5ede2161e9851d03c61433b5,,1,0,80,57,1,79
,,,,,,,,,,,,,,,,,,,,,,,,,,,,,,,,,,,t,1.980999947,PAT,FALSE,,,,,,,164,patata,Catalan,Sounds/cat_patata.mp3,2020-06-13_12h12.57.975,TranslationElicitation_spa,3.2.4,Win32,60,5ede2161e9851d03c61433b5,,1,0,80,57,1,79
,,,,,,,,,,,,,,,,,,,,,,,,,,,,,,,,,,,a,2.098999977,PATA,FALSE,,,,,,,164,patata,Catalan,Sounds/cat_patata.mp3,2020-06-13_12h12.57.975,TranslationElicitation_spa,3.2.4,Win32,60,5ede2161e9851d03c61433b5,,1,0,80,57,1,79
,,,,,,,,,,,,,,,,,,,,,,,,,,,,,,,,,,,t,2.335000038,PATAT,FALSE,,,,,,,164,patata,Catalan,Sounds/cat_patata.mp3,2020-06-13_12h12.57.975,TranslationElicitation_spa,3.2.4,Win32,60,5ede2161e9851d03c61433b5,,1,0,80,57,1,79
,,,,,,,,,,,,,,,,,,,,,,,,,,,,,,,,,,,a,2.430999994,PATATA,FALSE,,,,,,,164,patata,Catalan,Sounds/cat_patata.mp3,2020-06-13_12h12.57.975,TranslationElicitation_spa,3.2.4,Win32,60,5ede2161e9851d03c61433b5,,1,0,80,57,1,79
,,,,,,,,,,,,,,,,,,,,,,,,,,,,,,,,,,,return,2.815999985,,FALSE,,,,,,,164,patata,Catalan,Sounds/cat_patata.mp3,2020-06-13_12h12.57.975,TranslationElicitation_spa,3.2.4,Win32,60,5ede2161e9851d03c61433b5,2.815999985,1,0,80,57,1,79
,,,,,,,,,,,,,,,,,,,,,,,,,,,,,,,,,,,,,,,,,,,,,164,patata,Catalan,Sounds/cat_patata.mp3,2020-06-13_12h12.57.975,TranslationElicitation_spa,3.2.4,Win32,60,5ede2161e9851d03c61433b5,,1,0,80,57,1,79
,,,,,,,,,,,,,,,,,,,,,,,,,,,,,,,,,,,r,4.032000065,R,FALSE,,,,,,,175,raspall,Catalan,Sounds/cat_raspall.mp3,2020-06-13_12h12.57.975,TranslationElicitation_spa,3.2.4,Win32,60,5ede2161e9851d03c61433b5,,1,0,80,67,1,79
,,,,,,,,,,,,,,,,,,,,,,,,,,,,,,,,,,,e,4.131000042,RE,FALSE,,,,,,,175,raspall,Catalan,Sounds/cat_raspall.mp3,2020-06-13_12h12.57.975,TranslationElicitation_spa,3.2.4,Win32,60,5ede2161e9851d03c61433b5,,1,0,80,67,1,79
,,,,,,,,,,,,,,,,,,,,,,,,,,,,,,,,,,,p,4.265000105,REP,FALSE,,,,,,,175,raspall,Catalan,Sounds/cat_raspall.mp3,2020-06-13_12h12.57.975,TranslationElicitation_spa,3.2.4,Win32,60,5ede2161e9851d03c61433b5,,1,0,80,67,1,79
,,,,,,,,,,,,,,,,,,,,,,,,,,,,,,,,,,,a,4.381000042,REPA,FALSE,,,,,,,175,raspall,Catalan,Sounds/cat_raspall.mp3,2020-06-13_12h12.57.975,TranslationElicitation_spa,3.2.4,Win32,60,5ede2161e9851d03c61433b5,,1,0,80,67,1,79
,,,,,,,,,,,,,,,,,,,,,,,,,,,,,,,,,,,s,4.498000145,REPAS,FALSE,,,,,,,175,raspall,Catalan,Sounds/cat_raspall.mp3,2020-06-13_12h12.57.975,TranslationElicitation_spa,3.2.4,Win32,60,5ede2161e9851d03c61433b5,,1,0,80,67,1,79
,,,,,,,,,,,,,,,,,,,,,,,,,,,,,,,,,,,o,4.697999954,REPASO,FALSE,,,,,,,175,raspall,Catalan,Sounds/cat_raspall.mp3,2020-06-13_12h12.57.975,TranslationElicitation_spa,3.2.4,Win32,60,5ede2161e9851d03c61433b5,,1,0,80,67,1,79
,,,,,,,,,,,,,,,,,,,,,,,,,,,,,,,,,,,return,5.114000082,,FALSE,,,,,,,175,raspall,Catalan,Sounds/cat_raspall.mp3,2020-06-13_12h12.57.975,TranslationElicitation_spa,3.2.4,Win32,60,5ede2161e9851d03c61433b5,5.114000082,1,0,80,67,1,79
,,,,,,,,,,,,,,,,,,,,,,,,,,,,,,,,,,,,,,,,,,,,,175,raspall,Catalan,Sounds/cat_raspall.mp3,2020-06-13_12h12.57.975,TranslationElicitation_spa,3.2.4,Win32,60,5ede2161e9851d03c61433b5,,1,0,80,67,1,79
,,,,,,,,,,,,,,,,,,,,,,,,,,,,,,,,,,,a,1.581999779,A,FALSE,,,,,,,107,amanida,Catalan,Sounds/cat_amanida.mp3,2020-06-13_12h12.57.975,TranslationElicitation_spa,3.2.4,Win32,60,5ede2161e9851d03c61433b5,,1,0,80,3,1,79
,,,,,,,,,,,,,,,,,,,,,,,,,,,,,,,,,,,m,1.648999929,AM,FALSE,,,,,,,107,amanida,Catalan,Sounds/cat_amanida.mp3,2020-06-13_12h12.57.975,TranslationElicitation_spa,3.2.4,Win32,60,5ede2161e9851d03c61433b5,,1,0,80,3,1,79
,,,,,,,,,,,,,,,,,,,,,,,,,,,,,,,,,,,a,1.781999826,AMA,FALSE,,,,,,,107,amanida,Catalan,Sounds/cat_amanida.mp3,2020-06-13_12h12.57.975,TranslationElicitation_spa,3.2.4,Win32,60,5ede2161e9851d03c61433b5,,1,0,80,3,1,79
,,,,,,,,,,,,,,,,,,,,,,,,,,,,,,,,,,,backspace,2.281999826,A,TRUE,,,,,,,107,amanida,Catalan,Sounds/cat_amanida.mp3,2020-06-13_12h12.57.975,TranslationElicitation_spa,3.2.4,Win32,60,5ede2161e9851d03c61433b5,,1,0,80,3,1,79
,,,,,,,,,,,,,,,,,,,,,,,,,,,,,,,,,,,backspace,2.398999929,,TRUE,,,,,,,107,amanida,Catalan,Sounds/cat_amanida.mp3,2020-06-13_12h12.57.975,TranslationElicitation_spa,3.2.4,Win32,60,5ede2161e9851d03c61433b5,,1,0,80,3,1,79
,,,,,,,,,,,,,,,,,,,,,,,,,,,,,,,,,,,v,2.547999859,V,TRUE,,,,,,,107,amanida,Catalan,Sounds/cat_amanida.mp3,2020-06-13_12h12.57.975,TranslationElicitation_spa,3.2.4,Win32,60,5ede2161e9851d03c61433b5,,1,0,80,3,1,79
,,,,,,,,,,,,,,,,,,,,,,,,,,,,,,,,,,,e,2.614999771,VE,TRUE,,,,,,,107,amanida,Catalan,Sounds/cat_amanida.mp3,2020-06-13_12h12.57.975,TranslationElicitation_spa,3.2.4,Win32,60,5ede2161e9851d03c61433b5,,1,0,80,3,1,79
,,,,,,,,,,,,,,,,,,,,,,,,,,,,,,,,,,,n,2.839999914,VEN,TRUE,,,,,,,107,amanida,Catalan,Sounds/cat_amanida.mp3,2020-06-13_12h12.57.975,TranslationElicitation_spa,3.2.4,Win32,60,5ede2161e9851d03c61433b5,,1,0,80,3,1,79
,,,,,,,,,,,,,,,,,,,,,,,,,,,,,,,,,,,backspace,3.066999912,V,TRUE,,,,,,,107,amanida,Catalan,Sounds/cat_amanida.mp3,2020-06-13_12h12.57.975,TranslationElicitation_spa,3.2.4,Win32,60,5ede2161e9851d03c61433b5,,1,0,80,3,1,79
,,,,,,,,,,,,,,,,,,,,,,,,,,,,,,,,,,,backspace,3.251999855,,TRUE,,,,,,,107,amanida,Catalan,Sounds/cat_amanida.mp3,2020-06-13_12h12.57.975,TranslationElicitation_spa,3.2.4,Win32,60,5ede2161e9851d03c61433b5,,1,0,80,3,1,79
,,,,,,,,,,,,,,,,,,,,,,,,,,,,,,,,,,,backspace,3.364999771,,TRUE,,,,,,,107,amanida,Catalan,Sounds/cat_amanida.mp3,2020-06-13_12h12.57.975,TranslationElicitation_spa,3.2.4,Win32,60,5ede2161e9851d03c61433b5,,1,0,80,3,1,79
,,,,,,,,,,,,,,,,,,,,,,,,,,,,,,,,,,,a,3.464999914,A,TRUE,,,,,,,107,amanida,Catalan,Sounds/cat_amanida.mp3,2020-06-13_12h12.57.975,TranslationElicitation_spa,3.2.4,Win32,60,5ede2161e9851d03c61433b5,,1,0,80,3,1,79
,,,,,,,,,,,,,,,,,,,,,,,,,,,,,,,,,,,v,3.664999962,AV,TRUE,,,,,,,107,amanida,Catalan,Sounds/cat_amanida.mp3,2020-06-13_12h12.57.975,TranslationElicitation_spa,3.2.4,Win32,60,5ede2161e9851d03c61433b5,,1,0,80,3,1,79
,,,,,,,,,,,,,,,,,,,,,,,,,,,,,,,,,,,e,3.764999866,AVE,TRUE,,,,,,,107,amanida,Catalan,Sounds/cat_amanida.mp3,2020-06-13_12h12.57.975,TranslationElicitation_spa,3.2.4,Win32,60,5ede2161e9851d03c61433b5,,1,0,80,3,1,79
,,,,,,,,,,,,,,,,,,,,,,,,,,,,,,,,,,,n,3.882999897,AVEN,TRUE,,,,,,,107,amanida,Catalan,Sounds/cat_amanida.mp3,2020-06-13_12h12.57.975,TranslationElicitation_spa,3.2.4,Win32,60,5ede2161e9851d03c61433b5,,1,0,80,3,1,79
,,,,,,,,,,,,,,,,,,,,,,,,,,,,,,,,,,,i,3.982999802,AVENI,TRUE,,,,,,,107,amanida,Catalan,Sounds/cat_amanida.mp3,2020-06-13_12h12.57.975,TranslationElicitation_spa,3.2.4,Win32,60,5ede2161e9851d03c61433b5,,1,0,80,3,1,79
,,,,,,,,,,,,,,,,,,,,,,,,,,,,,,,,,,,d,4.181999922,AVENID,TRUE,,,,,,,107,amanida,Catalan,Sounds/cat_amanida.mp3,2020-06-13_12h12.57.975,TranslationElicitation_spa,3.2.4,Win32,60,5ede2161e9851d03c61433b5,,1,0,80,3,1,79
,,,,,,,,,,,,,,,,,,,,,,,,,,,,,,,,,,,a,4.448999882,AVENIDA,TRUE,,,,,,,107,amanida,Catalan,Sounds/cat_amanida.mp3,2020-06-13_12h12.57.975,TranslationElicitation_spa,3.2.4,Win32,60,5ede2161e9851d03c61433b5,,1,0,80,3,1,79
,,,,,,,,,,,,,,,,,,,,,,,,,,,,,,,,,,,return,4.597999811,,TRUE,,,,,,,107,amanida,Catalan,Sounds/cat_amanida.mp3,2020-06-13_12h12.57.975,TranslationElicitation_spa,3.2.4,Win32,60,5ede2161e9851d03c61433b5,4.597999811,1,0,80,3,1,79
,,,,,,,,,,,,,,,,,,,,,,,,,,,,,,,,,,,,,,,,,,,,,107,amanida,Catalan,Sounds/cat_amanida.mp3,2020-06-13_12h12.57.975,TranslationElicitation_spa,3.2.4,Win32,60,5ede2161e9851d03c61433b5,,1,0,80,3,1,79
,,,,,,,,,,,,,,,,,,,,,,,,,,,,,,,,,,,v,2.981999874,V,FALSE,,,,,,,111,bibero,Catalan,Sounds/cat_bibero.mp3,2020-06-13_12h12.57.975,TranslationElicitation_spa,3.2.4,Win32,60,5ede2161e9851d03c61433b5,,1,0,80,6,1,79
,,,,,,,,,,,,,,,,,,,,,,,,,,,,,,,,,,,backspace,4.34800005,,TRUE,,,,,,,111,bibero,Catalan,Sounds/cat_bibero.mp3,2020-06-13_12h12.57.975,TranslationElicitation_spa,3.2.4,Win32,60,5ede2161e9851d03c61433b5,,1,0,80,6,1,79
,,,,,,,,,,,,,,,,,,,,,,,,,,,,,,,,,,,return,5.113999844,,TRUE,,,,,,,111,bibero,Catalan,Sounds/cat_bibero.mp3,2020-06-13_12h12.57.975,TranslationElicitation_spa,3.2.4,Win32,60,5ede2161e9851d03c61433b5,5.113999844,1,0,80,6,1,79
,,,,,,,,,,,,,,,,,,,,,,,,,,,,,,,,,,,,,,,,,,,,,111,bibero,Catalan,Sounds/cat_bibero.mp3,2020-06-13_12h12.57.975,TranslationElicitation_spa,3.2.4,Win32,60,5ede2161e9851d03c61433b5,,1,0,80,6,1,79
,,,,,,,,,,,,,,,,,,,,,,,,,,,,,,,,,,,a,1.348999977,A,FALSE,,,,,,,105,aigua,Catalan,Sounds/cat_aigua.mp3,2020-06-13_12h12.57.975,TranslationElicitation_spa,3.2.4,Win32,60,5ede2161e9851d03c61433b5,,1,0,80,1,1,79
,,,,,,,,,,,,,,,,,,,,,,,,,,,,,,,,,,,g,1.765000105,AG,FALSE,,,,,,,105,aigua,Catalan,Sounds/cat_aigua.mp3,2020-06-13_12h12.57.975,TranslationElicitation_spa,3.2.4,Win32,60,5ede2161e9851d03c61433b5,,1,0,80,1,1,79
,,,,,,,,,,,,,,,,,,,,,,,,,,,,,,,,,,,u,1.94900012,AGU,FALSE,,,,,,,105,aigua,Catalan,Sounds/cat_aigua.mp3,2020-06-13_12h12.57.975,TranslationElicitation_spa,3.2.4,Win32,60,5ede2161e9851d03c61433b5,,1,0,80,1,1,79
,,,,,,,,,,,,,,,,,,,,,,,,,,,,,,,,,,,a,2.282000065,AGUA,FALSE,,,,,,,105,aigua,Catalan,Sounds/cat_aigua.mp3,2020-06-13_12h12.57.975,TranslationElicitation_spa,3.2.4,Win32,60,5ede2161e9851d03c61433b5,,1,0,80,1,1,79
,,,,,,,,,,,,,,,,,,,,,,,,,,,,,,,,,,,return,2.44900012,,FALSE,,,,,,,105,aigua,Catalan,Sounds/cat_aigua.mp3,2020-06-13_12h12.57.975,TranslationElicitation_spa,3.2.4,Win32,60,5ede2161e9851d03c61433b5,2.44900012,1,0,80,1,1,79
,,,,,,,,,,,,,,,,,,,,,,,,,,,,,,,,,,,,,,,,,,,,,105,aigua,Catalan,Sounds/cat_aigua.mp3,2020-06-13_12h12.57.975,TranslationElicitation_spa,3.2.4,Win32,60,5ede2161e9851d03c61433b5,,1,0,80,1,1,79
,,,,,,,,,,,,,,,,,,,,,,,,,,,,,,,,,,,t,4.631999969,T,FALSE,,,,,,,130,entrepa,Catalan,Sounds/cat_entrepa.mp3,2020-06-13_12h12.57.975,TranslationElicitation_spa,3.2.4,Win32,60,5ede2161e9851d03c61433b5,,1,0,80,25,1,79
,,,,,,,,,,,,,,,,,,,,,,,,,,,,,,,,,,,r,4.898999929,TR,FALSE,,,,,,,130,entrepa,Catalan,Sounds/cat_entrepa.mp3,2020-06-13_12h12.57.975,TranslationElicitation_spa,3.2.4,Win32,60,5ede2161e9851d03c61433b5,,1,0,80,25,1,79
,,,,,,,,,,,,,,,,,,,,,,,,,,,,,,,,,,,a,5.082000017,TRA,FALSE,,,,,,,130,entrepa,Catalan,Sounds/cat_entrepa.mp3,2020-06-13_12h12.57.975,TranslationElicitation_spa,3.2.4,Win32,60,5ede2161e9851d03c61433b5,,1,0,80,25,1,79
,,,,,,,,,,,,,,,,,,,,,,,,,,,,,,,,,,,b,5.214999914,TRAB,FALSE,,,,,,,130,entrepa,Catalan,Sounds/cat_entrepa.mp3,2020-06-13_12h12.57.975,TranslationElicitation_spa,3.2.4,Win32,60,5ede2161e9851d03c61433b5,,1,0,80,25,1,79
,,,,,,,,,,,,,,,,,,,,,,,,,,,,,,,,,,,a,5.36500001,TRABA,FALSE,,,,,,,130,entrepa,Catalan,Sounds/cat_entrepa.mp3,2020-06-13_12h12.57.975,TranslationElicitation_spa,3.2.4,Win32,60,5ede2161e9851d03c61433b5,,1,0,80,25,1,79
,,,,,,,,,,,,,,,,,,,,,,,,,,,,,,,,,,,j,5.431999922,TRABAJ,FALSE,,,,,,,130,entrepa,Catalan,Sounds/cat_entrepa.mp3,2020-06-13_12h12.57.975,TranslationElicitation_spa,3.2.4,Win32,60,5ede2161e9851d03c61433b5,,1,0,80,25,1,79
,,,,,,,,,,,,,,,,,,,,,,,,,,,,,,,,,,,a,5.86500001,TRABAJA,FALSE,,,,,,,130,entrepa,Catalan,Sounds/cat_entrepa.mp3,2020-06-13_12h12.57.975,TranslationElicitation_spa,3.2.4,Win32,60,5ede2161e9851d03c61433b5,,1,0,80,25,1,79
,,,,,,,,,,,,,,,,,,,,,,,,,,,,,,,,,,,r,6.08100009,TRABAJAR,FALSE,,,,,,,130,entrepa,Catalan,Sounds/cat_entrepa.mp3,2020-06-13_12h12.57.975,TranslationElicitation_spa,3.2.4,Win32,60,5ede2161e9851d03c61433b5,,1,0,80,25,1,79
,,,,,,,,,,,,,,,,,,,,,,,,,,,,,,,,,,,return,6.312000036,,FALSE,,,,,,,130,entrepa,Catalan,Sounds/cat_entrepa.mp3,2020-06-13_12h12.57.975,TranslationElicitation_spa,3.2.4,Win32,60,5ede2161e9851d03c61433b5,6.312000036,1,0,80,25,1,79
