consentKey.keys,consentKey.rt,languageL1Key.keys,languageL1Key.rt,languageL2,languageL2OralKey.keys,languageL2OralKey.rt,languageL2WrittenKey.keys,languageL2WrittenKey.rt,languageL3OralKey.keys,languageL3OralKey.rt,languageL3WrittenKey.keys,languageL3WrittenKey.rt,languageCatalanOralKey.keys,languageCatalanOralKey.rt,languageCatalanWrittenKey.keys,languageCatalanWrittenKey.rt,languageCatalanTimeKey.keys,languageCatalanTimeKey.rt,age,demoSexKey.keys,demoSexKey.rt,demoEducationKey.keys,demoEducationKey.rt,city,demoVisionKey.keys,demoVisionKey.rt,demoLanguageKey.keys,demoLanguageKey.rt,setupLocationKey.keys,setupLocationKey.rt,setupNoiseKey.keys,setupNoiseKey.rt,instructionsKeys.keys,instructionsKeys.rt,keyPressed,keyPressTime,inputText,error,trials_practice.thisRepN,trials_practice.thisTrialN,trials_practice.thisN,trials_practice.thisIndex,trials_practice.ran,trials_practice.order,trial_id,word,test_language,soundfile,date,expName,psychopyVersion,OS,frameRate,participant,trialOffset,trials.thisRepN,trials.thisTrialN,trials.thisN,trials.thisIndex,trials.ran,trials.order
space,14.89700007,e,7.690000057,FRANCÉS,4,14.00999999,4,22.92400002,2,6.809000254,2,8.907999992,2,7.919000149,1,4.43200016,1,9.371000051,19,h,3.595000029,3,7.200999975,MURCIA,n,5.524000168,n,2.197000027,1,5.856000185,2,7.478000164,space,29.204,p,3.28399992,P,FALSE,1,0,5,3,1,4,167,pingui,Catalan,Sounds/cat_pingui.mp3,2020-06-09_18h22.59.733,TranslationElicitation_spa,3.2.4,Win32,60,5ede22045e3396035124cb6b,,,,,,,
,,,,,,,,,,,,,,,,,,,,,,,,,,,,,,,,,,,i,4.01699996,PI,FALSE,1,0,5,3,1,4,167,pingui,Catalan,Sounds/cat_pingui.mp3,2020-06-09_18h22.59.733,TranslationElicitation_spa,3.2.4,Win32,60,5ede22045e3396035124cb6b,,,,,,,
,,,,,,,,,,,,,,,,,,,,,,,,,,,,,,,,,,,n,4.284999847,PIN,FALSE,1,0,5,3,1,4,167,pingui,Catalan,Sounds/cat_pingui.mp3,2020-06-09_18h22.59.733,TranslationElicitation_spa,3.2.4,Win32,60,5ede22045e3396035124cb6b,,,,,,,
,,,,,,,,,,,,,,,,,,,,,,,,,,,,,,,,,,,g,5.363999844,PING,FALSE,1,0,5,3,1,4,167,pingui,Catalan,Sounds/cat_pingui.mp3,2020-06-09_18h22.59.733,TranslationElicitation_spa,3.2.4,Win32,60,5ede22045e3396035124cb6b,,,,,,,
,,,,,,,,,,,,,,,,,,,,,,,,,,,,,,,,,,,apostrophe,6.932999849,PING,FALSE,1,0,5,3,1,4,167,pingui,Catalan,Sounds/cat_pingui.mp3,2020-06-09_18h22.59.733,TranslationElicitation_spa,3.2.4,Win32,60,5ede22045e3396035124cb6b,,,,,,,
,,,,,,,,,,,,,,,,,,,,,,,,,,,,,,,,,,,u,8.149999857,PINGÚ,FALSE,1,0,5,3,1,4,167,pingui,Catalan,Sounds/cat_pingui.mp3,2020-06-09_18h22.59.733,TranslationElicitation_spa,3.2.4,Win32,60,5ede22045e3396035124cb6b,,,,,,,
,,,,,,,,,,,,,,,,,,,,,,,,,,,,,,,,,,,backspace,9.478999853,PIN,TRUE,1,0,5,3,1,4,167,pingui,Catalan,Sounds/cat_pingui.mp3,2020-06-09_18h22.59.733,TranslationElicitation_spa,3.2.4,Win32,60,5ede22045e3396035124cb6b,,,,,,,
,,,,,,,,,,,,,,,,,,,,,,,,,,,,,,,,,,,apostrophe,10.64499998,PIN,TRUE,1,0,5,3,1,4,167,pingui,Catalan,Sounds/cat_pingui.mp3,2020-06-09_18h22.59.733,TranslationElicitation_spa,3.2.4,Win32,60,5ede22045e3396035124cb6b,,,,,,,
,,,,,,,,,,,,,,,,,,,,,,,,,,,,,,,,,,,u,11.28599977,PINÚ,TRUE,1,0,5,3,1,4,167,pingui,Catalan,Sounds/cat_pingui.mp3,2020-06-09_18h22.59.733,TranslationElicitation_spa,3.2.4,Win32,60,5ede22045e3396035124cb6b,,,,,,,
,,,,,,,,,,,,,,,,,,,,,,,,,,,,,,,,,,,backspace,13.07199979,PI,TRUE,1,0,5,3,1,4,167,pingui,Catalan,Sounds/cat_pingui.mp3,2020-06-09_18h22.59.733,TranslationElicitation_spa,3.2.4,Win32,60,5ede22045e3396035124cb6b,,,,,,,
,,,,,,,,,,,,,,,,,,,,,,,,,,,,,,,,,,,apostrophe,17.49399996,PI,TRUE,1,0,5,3,1,4,167,pingui,Catalan,Sounds/cat_pingui.mp3,2020-06-09_18h22.59.733,TranslationElicitation_spa,3.2.4,Win32,60,5ede22045e3396035124cb6b,,,,,,,
,,,,,,,,,,,,,,,,,,,,,,,,,,,,,,,,,,,n,18.58599997,PI,TRUE,1,0,5,3,1,4,167,pingui,Catalan,Sounds/cat_pingui.mp3,2020-06-09_18h22.59.733,TranslationElicitation_spa,3.2.4,Win32,60,5ede22045e3396035124cb6b,,,,,,,
,,,,,,,,,,,,,,,,,,,,,,,,,,,,,,,,,,,n,20.10399985,PI,TRUE,1,0,5,3,1,4,167,pingui,Catalan,Sounds/cat_pingui.mp3,2020-06-09_18h22.59.733,TranslationElicitation_spa,3.2.4,Win32,60,5ede22045e3396035124cb6b,,,,,,,
,,,,,,,,,,,,,,,,,,,,,,,,,,,,,,,,,,,backspace,21.34799981,,TRUE,1,0,5,3,1,4,167,pingui,Catalan,Sounds/cat_pingui.mp3,2020-06-09_18h22.59.733,TranslationElicitation_spa,3.2.4,Win32,60,5ede22045e3396035124cb6b,,,,,,,
,,,,,,,,,,,,,,,,,,,,,,,,,,,,,,,,,,,backspace,21.65799999,,TRUE,1,0,5,3,1,4,167,pingui,Catalan,Sounds/cat_pingui.mp3,2020-06-09_18h22.59.733,TranslationElicitation_spa,3.2.4,Win32,60,5ede22045e3396035124cb6b,,,,,,,
,,,,,,,,,,,,,,,,,,,,,,,,,,,,,,,,,,,p,22.89399981,,TRUE,1,0,5,3,1,4,167,pingui,Catalan,Sounds/cat_pingui.mp3,2020-06-09_18h22.59.733,TranslationElicitation_spa,3.2.4,Win32,60,5ede22045e3396035124cb6b,,,,,,,
,,,,,,,,,,,,,,,,,,,,,,,,,,,,,,,,,,,i,24.42399979,Í,TRUE,1,0,5,3,1,4,167,pingui,Catalan,Sounds/cat_pingui.mp3,2020-06-09_18h22.59.733,TranslationElicitation_spa,3.2.4,Win32,60,5ede22045e3396035124cb6b,,,,,,,
,,,,,,,,,,,,,,,,,,,,,,,,,,,,,,,,,,,backspace,25.44299984,,TRUE,1,0,5,3,1,4,167,pingui,Catalan,Sounds/cat_pingui.mp3,2020-06-09_18h22.59.733,TranslationElicitation_spa,3.2.4,Win32,60,5ede22045e3396035124cb6b,,,,,,,
,,,,,,,,,,,,,,,,,,,,,,,,,,,,,,,,,,,p,26.07799983,P,TRUE,1,0,5,3,1,4,167,pingui,Catalan,Sounds/cat_pingui.mp3,2020-06-09_18h22.59.733,TranslationElicitation_spa,3.2.4,Win32,60,5ede22045e3396035124cb6b,,,,,,,
,,,,,,,,,,,,,,,,,,,,,,,,,,,,,,,,,,,i,26.90199995,PI,TRUE,1,0,5,3,1,4,167,pingui,Catalan,Sounds/cat_pingui.mp3,2020-06-09_18h22.59.733,TranslationElicitation_spa,3.2.4,Win32,60,5ede22045e3396035124cb6b,,,,,,,
,,,,,,,,,,,,,,,,,,,,,,,,,,,,,,,,,,,n,27.47099996,PIN,TRUE,1,0,5,3,1,4,167,pingui,Catalan,Sounds/cat_pingui.mp3,2020-06-09_18h22.59.733,TranslationElicitation_spa,3.2.4,Win32,60,5ede22045e3396035124cb6b,,,,,,,
,,,,,,,,,,,,,,,,,,,,,,,,,,,,,,,,,,,g,28.83299994,PING,TRUE,1,0,5,3,1,4,167,pingui,Catalan,Sounds/cat_pingui.mp3,2020-06-09_18h22.59.733,TranslationElicitation_spa,3.2.4,Win32,60,5ede22045e3396035124cb6b,,,,,,,
,,,,,,,,,,,,,,,,,,,,,,,,,,,,,,,,,,,apostrophe,29.92799997,PING,TRUE,1,0,5,3,1,4,167,pingui,Catalan,Sounds/cat_pingui.mp3,2020-06-09_18h22.59.733,TranslationElicitation_spa,3.2.4,Win32,60,5ede22045e3396035124cb6b,,,,,,,
,,,,,,,,,,,,,,,,,,,,,,,,,,,,,,,,,,,u,30.47099996,PINGÚ,TRUE,1,0,5,3,1,4,167,pingui,Catalan,Sounds/cat_pingui.mp3,2020-06-09_18h22.59.733,TranslationElicitation_spa,3.2.4,Win32,60,5ede22045e3396035124cb6b,,,,,,,
,,,,,,,,,,,,,,,,,,,,,,,,,,,,,,,,,,,i,32.00099993,PINGÚI,TRUE,1,0,5,3,1,4,167,pingui,Catalan,Sounds/cat_pingui.mp3,2020-06-09_18h22.59.733,TranslationElicitation_spa,3.2.4,Win32,60,5ede22045e3396035124cb6b,,,,,,,
,,,,,,,,,,,,,,,,,,,,,,,,,,,,,,,,,,,n,32.22199988,PINGÚIN,TRUE,1,0,5,3,1,4,167,pingui,Catalan,Sounds/cat_pingui.mp3,2020-06-09_18h22.59.733,TranslationElicitation_spa,3.2.4,Win32,60,5ede22045e3396035124cb6b,,,,,,,
,,,,,,,,,,,,,,,,,,,,,,,,,,,,,,,,,,,o,32.38999987,PINGÚINO,TRUE,1,0,5,3,1,4,167,pingui,Catalan,Sounds/cat_pingui.mp3,2020-06-09_18h22.59.733,TranslationElicitation_spa,3.2.4,Win32,60,5ede22045e3396035124cb6b,,,,,,,
,,,,,,,,,,,,,,,,,,,,,,,,,,,,,,,,,,,backspace,34.15999985,PINGÚI,TRUE,1,0,5,3,1,4,167,pingui,Catalan,Sounds/cat_pingui.mp3,2020-06-09_18h22.59.733,TranslationElicitation_spa,3.2.4,Win32,60,5ede22045e3396035124cb6b,,,,,,,
,,,,,,,,,,,,,,,,,,,,,,,,,,,,,,,,,,,backspace,34.37199998,PING,TRUE,1,0,5,3,1,4,167,pingui,Catalan,Sounds/cat_pingui.mp3,2020-06-09_18h22.59.733,TranslationElicitation_spa,3.2.4,Win32,60,5ede22045e3396035124cb6b,,,,,,,
,,,,,,,,,,,,,,,,,,,,,,,,,,,,,,,,,,,backspace,34.60399985,PI,TRUE,1,0,5,3,1,4,167,pingui,Catalan,Sounds/cat_pingui.mp3,2020-06-09_18h22.59.733,TranslationElicitation_spa,3.2.4,Win32,60,5ede22045e3396035124cb6b,,,,,,,
,,,,,,,,,,,,,,,,,,,,,,,,,,,,,,,,,,,n,35.77899981,PIN,TRUE,1,0,5,3,1,4,167,pingui,Catalan,Sounds/cat_pingui.mp3,2020-06-09_18h22.59.733,TranslationElicitation_spa,3.2.4,Win32,60,5ede22045e3396035124cb6b,,,,,,,
,,,,,,,,,,,,,,,,,,,,,,,,,,,,,,,,,,,g,36.55499983,PING,TRUE,1,0,5,3,1,4,167,pingui,Catalan,Sounds/cat_pingui.mp3,2020-06-09_18h22.59.733,TranslationElicitation_spa,3.2.4,Win32,60,5ede22045e3396035124cb6b,,,,,,,
,,,,,,,,,,,,,,,,,,,,,,,,,,,,,,,,,,,u,36.92399979,PINGU,TRUE,1,0,5,3,1,4,167,pingui,Catalan,Sounds/cat_pingui.mp3,2020-06-09_18h22.59.733,TranslationElicitation_spa,3.2.4,Win32,60,5ede22045e3396035124cb6b,,,,,,,
,,,,,,,,,,,,,,,,,,,,,,,,,,,,,,,,,,,i,37.04999995,PINGUI,TRUE,1,0,5,3,1,4,167,pingui,Catalan,Sounds/cat_pingui.mp3,2020-06-09_18h22.59.733,TranslationElicitation_spa,3.2.4,Win32,60,5ede22045e3396035124cb6b,,,,,,,
,,,,,,,,,,,,,,,,,,,,,,,,,,,,,,,,,,,n,37.19799995,PINGUIN,TRUE,1,0,5,3,1,4,167,pingui,Catalan,Sounds/cat_pingui.mp3,2020-06-09_18h22.59.733,TranslationElicitation_spa,3.2.4,Win32,60,5ede22045e3396035124cb6b,,,,,,,
,,,,,,,,,,,,,,,,,,,,,,,,,,,,,,,,,,,o,37.39499998,PINGUINO,TRUE,1,0,5,3,1,4,167,pingui,Catalan,Sounds/cat_pingui.mp3,2020-06-09_18h22.59.733,TranslationElicitation_spa,3.2.4,Win32,60,5ede22045e3396035124cb6b,,,,,,,
,,,,,,,,,,,,,,,,,,,,,,,,,,,,,,,,,,,return,38.43399978,,TRUE,1,0,5,3,1,4,167,pingui,Catalan,Sounds/cat_pingui.mp3,2020-06-09_18h22.59.733,TranslationElicitation_spa,3.2.4,Win32,60,5ede22045e3396035124cb6b,38.43399978,,,,,,
,,,,,,,,,,,,,,,,,,,,,,,,,,,,,,,,,,,,,,,1,0,5,3,1,4,167,pingui,Catalan,Sounds/cat_pingui.mp3,2020-06-09_18h22.59.733,TranslationElicitation_spa,3.2.4,Win32,60,5ede22045e3396035124cb6b,,,,,,,
,,,,,,,,,,,,,,,,,,,,,,,,,,,,,,,,,,,a,6.519999981,A,FALSE,1,0,5,0,1,4,109,arbre,Catalan,Sounds/cat_arbre.mp3,2020-06-09_18h22.59.733,TranslationElicitation_spa,3.2.4,Win32,60,5ede22045e3396035124cb6b,,,,,,,
,,,,,,,,,,,,,,,,,,,,,,,,,,,,,,,,,,,backspace,7.31400013,,TRUE,1,0,5,0,1,4,109,arbre,Catalan,Sounds/cat_arbre.mp3,2020-06-09_18h22.59.733,TranslationElicitation_spa,3.2.4,Win32,60,5ede22045e3396035124cb6b,,,,,,,
,,,,,,,,,,,,,,,,,,,,,,,,,,,,,,,,,,,apostrophe,8.012000084,,TRUE,1,0,5,0,1,4,109,arbre,Catalan,Sounds/cat_arbre.mp3,2020-06-09_18h22.59.733,TranslationElicitation_spa,3.2.4,Win32,60,5ede22045e3396035124cb6b,,,,,,,
,,,,,,,,,,,,,,,,,,,,,,,,,,,,,,,,,,,a,8.162000179,Á,TRUE,1,0,5,0,1,4,109,arbre,Catalan,Sounds/cat_arbre.mp3,2020-06-09_18h22.59.733,TranslationElicitation_spa,3.2.4,Win32,60,5ede22045e3396035124cb6b,,,,,,,
,,,,,,,,,,,,,,,,,,,,,,,,,,,,,,,,,,,r,8.467000008,ÁR,TRUE,1,0,5,0,1,4,109,arbre,Catalan,Sounds/cat_arbre.mp3,2020-06-09_18h22.59.733,TranslationElicitation_spa,3.2.4,Win32,60,5ede22045e3396035124cb6b,,,,,,,
,,,,,,,,,,,,,,,,,,,,,,,,,,,,,,,,,,,b,8.696000099,ÁRB,TRUE,1,0,5,0,1,4,109,arbre,Catalan,Sounds/cat_arbre.mp3,2020-06-09_18h22.59.733,TranslationElicitation_spa,3.2.4,Win32,60,5ede22045e3396035124cb6b,,,,,,,
,,,,,,,,,,,,,,,,,,,,,,,,,,,,,,,,,,,o,8.851000071,ÁRBO,TRUE,1,0,5,0,1,4,109,arbre,Catalan,Sounds/cat_arbre.mp3,2020-06-09_18h22.59.733,TranslationElicitation_spa,3.2.4,Win32,60,5ede22045e3396035124cb6b,,,,,,,
,,,,,,,,,,,,,,,,,,,,,,,,,,,,,,,,,,,l,9.073000193,ÁRBOL,TRUE,1,0,5,0,1,4,109,arbre,Catalan,Sounds/cat_arbre.mp3,2020-06-09_18h22.59.733,TranslationElicitation_spa,3.2.4,Win32,60,5ede22045e3396035124cb6b,,,,,,,
,,,,,,,,,,,,,,,,,,,,,,,,,,,,,,,,,,,return,9.818000078,,TRUE,1,0,5,0,1,4,109,arbre,Catalan,Sounds/cat_arbre.mp3,2020-06-09_18h22.59.733,TranslationElicitation_spa,3.2.4,Win32,60,5ede22045e3396035124cb6b,9.818000078,,,,,,
,,,,,,,,,,,,,,,,,,,,,,,,,,,,,,,,,,,,,,,1,0,5,0,1,4,109,arbre,Catalan,Sounds/cat_arbre.mp3,2020-06-09_18h22.59.733,TranslationElicitation_spa,3.2.4,Win32,60,5ede22045e3396035124cb6b,,,,,,,
,,,,,,,,,,,,,,,,,,,,,,,,,,,,,,,,,,,t,2.767999887,T,FALSE,1,0,5,4,1,4,179,tigre,Catalan,Sounds/cat_tigre.mp3,2020-06-09_18h22.59.733,TranslationElicitation_spa,3.2.4,Win32,60,5ede22045e3396035124cb6b,,,,,,,
,,,,,,,,,,,,,,,,,,,,,,,,,,,,,,,,,,,i,2.957000017,TI,FALSE,1,0,5,4,1,4,179,tigre,Catalan,Sounds/cat_tigre.mp3,2020-06-09_18h22.59.733,TranslationElicitation_spa,3.2.4,Win32,60,5ede22045e3396035124cb6b,,,,,,,
,,,,,,,,,,,,,,,,,,,,,,,,,,,,,,,,,,,g,3.338000059,TIG,FALSE,1,0,5,4,1,4,179,tigre,Catalan,Sounds/cat_tigre.mp3,2020-06-09_18h22.59.733,TranslationElicitation_spa,3.2.4,Win32,60,5ede22045e3396035124cb6b,,,,,,,
,,,,,,,,,,,,,,,,,,,,,,,,,,,,,,,,,,,r,3.64199996,TIGR,FALSE,1,0,5,4,1,4,179,tigre,Catalan,Sounds/cat_tigre.mp3,2020-06-09_18h22.59.733,TranslationElicitation_spa,3.2.4,Win32,60,5ede22045e3396035124cb6b,,,,,,,
,,,,,,,,,,,,,,,,,,,,,,,,,,,,,,,,,,,e,3.769999981,TIGRE,FALSE,1,0,5,4,1,4,179,tigre,Catalan,Sounds/cat_tigre.mp3,2020-06-09_18h22.59.733,TranslationElicitation_spa,3.2.4,Win32,60,5ede22045e3396035124cb6b,,,,,,,
,,,,,,,,,,,,,,,,,,,,,,,,,,,,,,,,,,,return,4.595999956,,FALSE,1,0,5,4,1,4,179,tigre,Catalan,Sounds/cat_tigre.mp3,2020-06-09_18h22.59.733,TranslationElicitation_spa,3.2.4,Win32,60,5ede22045e3396035124cb6b,4.595000029,,,,,,
,,,,,,,,,,,,,,,,,,,,,,,,,,,,,,,,,,,,,,,1,0,5,4,1,4,179,tigre,Catalan,Sounds/cat_tigre.mp3,2020-06-09_18h22.59.733,TranslationElicitation_spa,3.2.4,Win32,60,5ede22045e3396035124cb6b,,,,,,,
,,,,,,,,,,,,,,,,,,,,,,,,,,,,,,,,,,,c,2.328000069,C,FALSE,1,0,5,1,1,4,147,jaqueta,Catalan,Sounds/cat_jaqueta.mp3,2020-06-09_18h22.59.733,TranslationElicitation_spa,3.2.4,Win32,60,5ede22045e3396035124cb6b,,,,,,,
,,,,,,,,,,,,,,,,,,,,,,,,,,,,,,,,,,,h,2.592999935,CH,FALSE,1,0,5,1,1,4,147,jaqueta,Catalan,Sounds/cat_jaqueta.mp3,2020-06-09_18h22.59.733,TranslationElicitation_spa,3.2.4,Win32,60,5ede22045e3396035124cb6b,,,,,,,
,,,,,,,,,,,,,,,,,,,,,,,,,,,,,,,,,,,a,2.898000002,CHA,FALSE,1,0,5,1,1,4,147,jaqueta,Catalan,Sounds/cat_jaqueta.mp3,2020-06-09_18h22.59.733,TranslationElicitation_spa,3.2.4,Win32,60,5ede22045e3396035124cb6b,,,,,,,
,,,,,,,,,,,,,,,,,,,,,,,,,,,,,,,,,,,q,3.09800005,CHAQ,FALSE,1,0,5,1,1,4,147,jaqueta,Catalan,Sounds/cat_jaqueta.mp3,2020-06-09_18h22.59.733,TranslationElicitation_spa,3.2.4,Win32,60,5ede22045e3396035124cb6b,,,,,,,
,,,,,,,,,,,,,,,,,,,,,,,,,,,,,,,,,,,u,3.220000029,CHAQU,FALSE,1,0,5,1,1,4,147,jaqueta,Catalan,Sounds/cat_jaqueta.mp3,2020-06-09_18h22.59.733,TranslationElicitation_spa,3.2.4,Win32,60,5ede22045e3396035124cb6b,,,,,,,
,,,,,,,,,,,,,,,,,,,,,,,,,,,,,,,,,,,e,3.434000015,CHAQUE,FALSE,1,0,5,1,1,4,147,jaqueta,Catalan,Sounds/cat_jaqueta.mp3,2020-06-09_18h22.59.733,TranslationElicitation_spa,3.2.4,Win32,60,5ede22045e3396035124cb6b,,,,,,,
,,,,,,,,,,,,,,,,,,,,,,,,,,,,,,,,,,,t,3.660000086,CHAQUET,FALSE,1,0,5,1,1,4,147,jaqueta,Catalan,Sounds/cat_jaqueta.mp3,2020-06-09_18h22.59.733,TranslationElicitation_spa,3.2.4,Win32,60,5ede22045e3396035124cb6b,,,,,,,
,,,,,,,,,,,,,,,,,,,,,,,,,,,,,,,,,,,a,4.000999928,CHAQUETA,FALSE,1,0,5,1,1,4,147,jaqueta,Catalan,Sounds/cat_jaqueta.mp3,2020-06-09_18h22.59.733,TranslationElicitation_spa,3.2.4,Win32,60,5ede22045e3396035124cb6b,,,,,,,
,,,,,,,,,,,,,,,,,,,,,,,,,,,,,,,,,,,return,4.799999952,,FALSE,1,0,5,1,1,4,147,jaqueta,Catalan,Sounds/cat_jaqueta.mp3,2020-06-09_18h22.59.733,TranslationElicitation_spa,3.2.4,Win32,60,5ede22045e3396035124cb6b,4.799999952,,,,,,
,,,,,,,,,,,,,,,,,,,,,,,,,,,,,,,,,,,,,,,1,0,5,1,1,4,147,jaqueta,Catalan,Sounds/cat_jaqueta.mp3,2020-06-09_18h22.59.733,TranslationElicitation_spa,3.2.4,Win32,60,5ede22045e3396035124cb6b,,,,,,,
,,,,,,,,,,,,,,,,,,,,,,,,,,,,,,,,,,,u,3.898000002,U,FALSE,1,0,5,2,1,4,159,onada,Catalan,Sounds/cat_onada.mp3,2020-06-09_18h22.59.733,TranslationElicitation_spa,3.2.4,Win32,60,5ede22045e3396035124cb6b,,,,,,,
,,,,,,,,,,,,,,,,,,,,,,,,,,,,,,,,,,,n,4.170000076,UN,FALSE,1,0,5,2,1,4,159,onada,Catalan,Sounds/cat_onada.mp3,2020-06-09_18h22.59.733,TranslationElicitation_spa,3.2.4,Win32,60,5ede22045e3396035124cb6b,,,,,,,
,,,,,,,,,,,,,,,,,,,,,,,,,,,,,,,,,,,space,4.355000019,UN ,FALSE,1,0,5,2,1,4,159,onada,Catalan,Sounds/cat_onada.mp3,2020-06-09_18h22.59.733,TranslationElicitation_spa,3.2.4,Win32,60,5ede22045e3396035124cb6b,,,,,,,
,,,,,,,,,,,,,,,,,,,,,,,,,,,,,,,,,,,backspace,6.518000126,U,TRUE,1,0,5,2,1,4,159,onada,Catalan,Sounds/cat_onada.mp3,2020-06-09_18h22.59.733,TranslationElicitation_spa,3.2.4,Win32,60,5ede22045e3396035124cb6b,,,,,,,
,,,,,,,,,,,,,,,,,,,,,,,,,,,,,,,,,,,backspace,6.888999939,,TRUE,1,0,5,2,1,4,159,onada,Catalan,Sounds/cat_onada.mp3,2020-06-09_18h22.59.733,TranslationElicitation_spa,3.2.4,Win32,60,5ede22045e3396035124cb6b,,,,,,,
,,,,,,,,,,,,,,,,,,,,,,,,,,,,,,,,,,,u,10.05599999,U,TRUE,1,0,5,2,1,4,159,onada,Catalan,Sounds/cat_onada.mp3,2020-06-09_18h22.59.733,TranslationElicitation_spa,3.2.4,Win32,60,5ede22045e3396035124cb6b,,,,,,,
,,,,,,,,,,,,,,,,,,,,,,,,,,,,,,,,,,,n,10.25600004,UN,TRUE,1,0,5,2,1,4,159,onada,Catalan,Sounds/cat_onada.mp3,2020-06-09_18h22.59.733,TranslationElicitation_spa,3.2.4,Win32,60,5ede22045e3396035124cb6b,,,,,,,
,,,,,,,,,,,,,,,,,,,,,,,,,,,,,,,,,,,i,10.53699994,UNI,TRUE,1,0,5,2,1,4,159,onada,Catalan,Sounds/cat_onada.mp3,2020-06-09_18h22.59.733,TranslationElicitation_spa,3.2.4,Win32,60,5ede22045e3396035124cb6b,,,,,,,
,,,,,,,,,,,,,,,,,,,,,,,,,,,,,,,,,,,d,11.26399994,UNID,TRUE,1,0,5,2,1,4,159,onada,Catalan,Sounds/cat_onada.mp3,2020-06-09_18h22.59.733,TranslationElicitation_spa,3.2.4,Win32,60,5ede22045e3396035124cb6b,,,,,,,
,,,,,,,,,,,,,,,,,,,,,,,,,,,,,,,,,,,a,11.66400003,UNIDA,TRUE,1,0,5,2,1,4,159,onada,Catalan,Sounds/cat_onada.mp3,2020-06-09_18h22.59.733,TranslationElicitation_spa,3.2.4,Win32,60,5ede22045e3396035124cb6b,,,,,,,
,,,,,,,,,,,,,,,,,,,,,,,,,,,,,,,,,,,return,13.90799999,,TRUE,1,0,5,2,1,4,159,onada,Catalan,Sounds/cat_onada.mp3,2020-06-09_18h22.59.733,TranslationElicitation_spa,3.2.4,Win32,60,5ede22045e3396035124cb6b,13.90799999,,,,,,
,,,,,,,,,,,,,,,,,,,,,,,,,,,,,,,,,,,,,,,1,0,5,2,1,4,159,onada,Catalan,Sounds/cat_onada.mp3,2020-06-09_18h22.59.733,TranslationElicitation_spa,3.2.4,Win32,60,5ede22045e3396035124cb6b,,,,,,,
,,,,,,,,,,,,,,,,,,,,,,,,,,,,,,,,,,,d,5.521000147,D,FALSE,,,,,,,129,dit,Catalan,Sounds/cat_dit.mp3,2020-06-09_18h22.59.733,TranslationElicitation_spa,3.2.4,Win32,60,5ede22045e3396035124cb6b,,1,0,80,24,1,79
,,,,,,,,,,,,,,,,,,,,,,,,,,,,,,,,,,,i,6.521000147,DI,FALSE,,,,,,,129,dit,Catalan,Sounds/cat_dit.mp3,2020-06-09_18h22.59.733,TranslationElicitation_spa,3.2.4,Win32,60,5ede22045e3396035124cb6b,,1,0,80,24,1,79
,,,,,,,,,,,,,,,,,,,,,,,,,,,,,,,,,,,return,7.558000088,,FALSE,,,,,,,129,dit,Catalan,Sounds/cat_dit.mp3,2020-06-09_18h22.59.733,TranslationElicitation_spa,3.2.4,Win32,60,5ede22045e3396035124cb6b,7.55700016,1,0,80,24,1,79
,,,,,,,,,,,,,,,,,,,,,,,,,,,,,,,,,,,,,,,,,,,,,129,dit,Catalan,Sounds/cat_dit.mp3,2020-06-09_18h22.59.733,TranslationElicitation_spa,3.2.4,Win32,60,5ede22045e3396035124cb6b,,1,0,80,24,1,79
,,,,,,,,,,,,,,,,,,,,,,,,,,,,,,,,,,,c,2.624000072,C,FALSE,,,,,,,119,caixa,Catalan,Sounds/cat_caixa.mp3,2020-06-09_18h22.59.733,TranslationElicitation_spa,3.2.4,Win32,60,5ede22045e3396035124cb6b,,1,0,80,14,1,79
,,,,,,,,,,,,,,,,,,,,,,,,,,,,,,,,,,,a,3.184999943,CA,FALSE,,,,,,,119,caixa,Catalan,Sounds/cat_caixa.mp3,2020-06-09_18h22.59.733,TranslationElicitation_spa,3.2.4,Win32,60,5ede22045e3396035124cb6b,,1,0,80,14,1,79
,,,,,,,,,,,,,,,,,,,,,,,,,,,,,,,,,,,s,3.611000061,CAS,FALSE,,,,,,,119,caixa,Catalan,Sounds/cat_caixa.mp3,2020-06-09_18h22.59.733,TranslationElicitation_spa,3.2.4,Win32,60,5ede22045e3396035124cb6b,,1,0,80,14,1,79
,,,,,,,,,,,,,,,,,,,,,,,,,,,,,,,,,,,a,3.819000006,CASA,FALSE,,,,,,,119,caixa,Catalan,Sounds/cat_caixa.mp3,2020-06-09_18h22.59.733,TranslationElicitation_spa,3.2.4,Win32,60,5ede22045e3396035124cb6b,,1,0,80,14,1,79
,,,,,,,,,,,,,,,,,,,,,,,,,,,,,,,,,,,return,4.927999973,,FALSE,,,,,,,119,caixa,Catalan,Sounds/cat_caixa.mp3,2020-06-09_18h22.59.733,TranslationElicitation_spa,3.2.4,Win32,60,5ede22045e3396035124cb6b,4.927999973,1,0,80,14,1,79
,,,,,,,,,,,,,,,,,,,,,,,,,,,,,,,,,,,,,,,,,,,,,119,caixa,Catalan,Sounds/cat_caixa.mp3,2020-06-09_18h22.59.733,TranslationElicitation_spa,3.2.4,Win32,60,5ede22045e3396035124cb6b,,1,0,80,14,1,79
,,,,,,,,,,,,,,,,,,,,,,,,,,,,,,,,,,,p,3.39199996,P,FALSE,,,,,,,165,pernil,Catalan,Sounds/cat_pernil.mp3,2020-06-09_18h22.59.733,TranslationElicitation_spa,3.2.4,Win32,60,5ede22045e3396035124cb6b,,1,0,80,58,1,79
,,,,,,,,,,,,,,,,,,,,,,,,,,,,,,,,,,,i,3.618999958,PI,FALSE,,,,,,,165,pernil,Catalan,Sounds/cat_pernil.mp3,2020-06-09_18h22.59.733,TranslationElicitation_spa,3.2.4,Win32,60,5ede22045e3396035124cb6b,,1,0,80,58,1,79
,,,,,,,,,,,,,,,,,,,,,,,,,,,,,,,,,,,e,3.79399991,PIE,FALSE,,,,,,,165,pernil,Catalan,Sounds/cat_pernil.mp3,2020-06-09_18h22.59.733,TranslationElicitation_spa,3.2.4,Win32,60,5ede22045e3396035124cb6b,,1,0,80,58,1,79
,,,,,,,,,,,,,,,,,,,,,,,,,,,,,,,,,,,r,3.888999939,PIER,FALSE,,,,,,,165,pernil,Catalan,Sounds/cat_pernil.mp3,2020-06-09_18h22.59.733,TranslationElicitation_spa,3.2.4,Win32,60,5ede22045e3396035124cb6b,,1,0,80,58,1,79
,,,,,,,,,,,,,,,,,,,,,,,,,,,,,,,,,,,n,4.101999998,PIERN,FALSE,,,,,,,165,pernil,Catalan,Sounds/cat_pernil.mp3,2020-06-09_18h22.59.733,TranslationElicitation_spa,3.2.4,Win32,60,5ede22045e3396035124cb6b,,1,0,80,58,1,79
,,,,,,,,,,,,,,,,,,,,,,,,,,,,,,,,,,,a,4.323999882,PIERNA,FALSE,,,,,,,165,pernil,Catalan,Sounds/cat_pernil.mp3,2020-06-09_18h22.59.733,TranslationElicitation_spa,3.2.4,Win32,60,5ede22045e3396035124cb6b,,1,0,80,58,1,79
,,,,,,,,,,,,,,,,,,,,,,,,,,,,,,,,,,,return,5.017999887,,FALSE,,,,,,,165,pernil,Catalan,Sounds/cat_pernil.mp3,2020-06-09_18h22.59.733,TranslationElicitation_spa,3.2.4,Win32,60,5ede22045e3396035124cb6b,5.017999887,1,0,80,58,1,79
,,,,,,,,,,,,,,,,,,,,,,,,,,,,,,,,,,,,,,,,,,,,,165,pernil,Catalan,Sounds/cat_pernil.mp3,2020-06-09_18h22.59.733,TranslationElicitation_spa,3.2.4,Win32,60,5ede22045e3396035124cb6b,,1,0,80,58,1,79
,,,,,,,,,,,,,,,,,,,,,,,,,,,,,,,,,,,e,7.138000011,E,FALSE,,,,,,,131,esponja,Catalan,Sounds/cat_esponja.mp3,2020-06-09_18h22.59.733,TranslationElicitation_spa,3.2.4,Win32,60,5ede22045e3396035124cb6b,,1,0,80,26,1,79
,,,,,,,,,,,,,,,,,,,,,,,,,,,,,,,,,,,s,7.330000162,ES,FALSE,,,,,,,131,esponja,Catalan,Sounds/cat_esponja.mp3,2020-06-09_18h22.59.733,TranslationElicitation_spa,3.2.4,Win32,60,5ede22045e3396035124cb6b,,1,0,80,26,1,79
,,,,,,,,,,,,,,,,,,,,,,,,,,,,,,,,,,,p,8.062000036,ESP,FALSE,,,,,,,131,esponja,Catalan,Sounds/cat_esponja.mp3,2020-06-09_18h22.59.733,TranslationElicitation_spa,3.2.4,Win32,60,5ede22045e3396035124cb6b,,1,0,80,26,1,79
,,,,,,,,,,,,,,,,,,,,,,,,,,,,,,,,,,,a,8.220000029,ESPA,FALSE,,,,,,,131,esponja,Catalan,Sounds/cat_esponja.mp3,2020-06-09_18h22.59.733,TranslationElicitation_spa,3.2.4,Win32,60,5ede22045e3396035124cb6b,,1,0,80,26,1,79
,,,,,,,,,,,,,,,,,,,,,,,,,,,,,,,,,,,semicolon,8.419000149,ESPAÑ,FALSE,,,,,,,131,esponja,Catalan,Sounds/cat_esponja.mp3,2020-06-09_18h22.59.733,TranslationElicitation_spa,3.2.4,Win32,60,5ede22045e3396035124cb6b,,1,0,80,26,1,79
,,,,,,,,,,,,,,,,,,,,,,,,,,,,,,,,,,,a,8.5400002,ESPAÑA,FALSE,,,,,,,131,esponja,Catalan,Sounds/cat_esponja.mp3,2020-06-09_18h22.59.733,TranslationElicitation_spa,3.2.4,Win32,60,5ede22045e3396035124cb6b,,1,0,80,26,1,79
,,,,,,,,,,,,,,,,,,,,,,,,,,,,,,,,,,,return,9.18900013,,FALSE,,,,,,,131,esponja,Catalan,Sounds/cat_esponja.mp3,2020-06-09_18h22.59.733,TranslationElicitation_spa,3.2.4,Win32,60,5ede22045e3396035124cb6b,9.18900013,1,0,80,26,1,79
,,,,,,,,,,,,,,,,,,,,,,,,,,,,,,,,,,,,,,,,,,,,,131,esponja,Catalan,Sounds/cat_esponja.mp3,2020-06-09_18h22.59.733,TranslationElicitation_spa,3.2.4,Win32,60,5ede22045e3396035124cb6b,,1,0,80,26,1,79
,,,,,,,,,,,,,,,,,,,,,,,,,,,,,,,,,,,g,1.651000023,G,FALSE,,,,,,,139,galleda,Catalan,Sounds/cat_galleda.mp3,2020-06-09_18h22.59.733,TranslationElicitation_spa,3.2.4,Win32,60,5ede22045e3396035124cb6b,,1,0,80,34,1,79
,,,,,,,,,,,,,,,,,,,,,,,,,,,,,,,,,,,a,2.046000004,GA,FALSE,,,,,,,139,galleda,Catalan,Sounds/cat_galleda.mp3,2020-06-09_18h22.59.733,TranslationElicitation_spa,3.2.4,Win32,60,5ede22045e3396035124cb6b,,1,0,80,34,1,79
,,,,,,,,,,,,,,,,,,,,,,,,,,,,,,,,,,,l,2.424000025,GAL,FALSE,,,,,,,139,galleda,Catalan,Sounds/cat_galleda.mp3,2020-06-09_18h22.59.733,TranslationElicitation_spa,3.2.4,Win32,60,5ede22045e3396035124cb6b,,1,0,80,34,1,79
,,,,,,,,,,,,,,,,,,,,,,,,,,,,,,,,,,,l,2.614000082,GALL,FALSE,,,,,,,139,galleda,Catalan,Sounds/cat_galleda.mp3,2020-06-09_18h22.59.733,TranslationElicitation_spa,3.2.4,Win32,60,5ede22045e3396035124cb6b,,1,0,80,34,1,79
,,,,,,,,,,,,,,,,,,,,,,,,,,,,,,,,,,,e,2.881999969,GALLE,FALSE,,,,,,,139,galleda,Catalan,Sounds/cat_galleda.mp3,2020-06-09_18h22.59.733,TranslationElicitation_spa,3.2.4,Win32,60,5ede22045e3396035124cb6b,,1,0,80,34,1,79
,,,,,,,,,,,,,,,,,,,,,,,,,,,,,,,,,,,t,3.149000168,GALLET,FALSE,,,,,,,139,galleda,Catalan,Sounds/cat_galleda.mp3,2020-06-09_18h22.59.733,TranslationElicitation_spa,3.2.4,Win32,60,5ede22045e3396035124cb6b,,1,0,80,34,1,79
,,,,,,,,,,,,,,,,,,,,,,,,,,,,,,,,,,,a,3.570000172,GALLETA,FALSE,,,,,,,139,galleda,Catalan,Sounds/cat_galleda.mp3,2020-06-09_18h22.59.733,TranslationElicitation_spa,3.2.4,Win32,60,5ede22045e3396035124cb6b,,1,0,80,34,1,79
,,,,,,,,,,,,,,,,,,,,,,,,,,,,,,,,,,,return,4.121999979,,FALSE,,,,,,,139,galleda,Catalan,Sounds/cat_galleda.mp3,2020-06-09_18h22.59.733,TranslationElicitation_spa,3.2.4,Win32,60,5ede22045e3396035124cb6b,4.121999979,1,0,80,34,1,79
,,,,,,,,,,,,,,,,,,,,,,,,,,,,,,,,,,,,,,,,,,,,,139,galleda,Catalan,Sounds/cat_galleda.mp3,2020-06-09_18h22.59.733,TranslationElicitation_spa,3.2.4,Win32,60,5ede22045e3396035124cb6b,,1,0,80,34,1,79
,,,,,,,,,,,,,,,,,,,,,,,,,,,,,,,,,,,p,1.853999853,P,FALSE,,,,,,,168,planta,Catalan,Sounds/cat_planta.mp3,2020-06-09_18h22.59.733,TranslationElicitation_spa,3.2.4,Win32,60,5ede22045e3396035124cb6b,,1,0,80,60,1,79
,,,,,,,,,,,,,,,,,,,,,,,,,,,,,,,,,,,l,2.05099988,PL,FALSE,,,,,,,168,planta,Catalan,Sounds/cat_planta.mp3,2020-06-09_18h22.59.733,TranslationElicitation_spa,3.2.4,Win32,60,5ede22045e3396035124cb6b,,1,0,80,60,1,79
,,,,,,,,,,,,,,,,,,,,,,,,,,,,,,,,,,,a,2.211999893,PLA,FALSE,,,,,,,168,planta,Catalan,Sounds/cat_planta.mp3,2020-06-09_18h22.59.733,TranslationElicitation_spa,3.2.4,Win32,60,5ede22045e3396035124cb6b,,1,0,80,60,1,79
,,,,,,,,,,,,,,,,,,,,,,,,,,,,,,,,,,,n,2.376999855,PLAN,FALSE,,,,,,,168,planta,Catalan,Sounds/cat_planta.mp3,2020-06-09_18h22.59.733,TranslationElicitation_spa,3.2.4,Win32,60,5ede22045e3396035124cb6b,,1,0,80,60,1,79
,,,,,,,,,,,,,,,,,,,,,,,,,,,,,,,,,,,t,2.57799983,PLANT,FALSE,,,,,,,168,planta,Catalan,Sounds/cat_planta.mp3,2020-06-09_18h22.59.733,TranslationElicitation_spa,3.2.4,Win32,60,5ede22045e3396035124cb6b,,1,0,80,60,1,79
,,,,,,,,,,,,,,,,,,,,,,,,,,,,,,,,,,,a,3.004999876,PLANTA,FALSE,,,,,,,168,planta,Catalan,Sounds/cat_planta.mp3,2020-06-09_18h22.59.733,TranslationElicitation_spa,3.2.4,Win32,60,5ede22045e3396035124cb6b,,1,0,80,60,1,79
,,,,,,,,,,,,,,,,,,,,,,,,,,,,,,,,,,,return,3.461999893,,FALSE,,,,,,,168,planta,Catalan,Sounds/cat_planta.mp3,2020-06-09_18h22.59.733,TranslationElicitation_spa,3.2.4,Win32,60,5ede22045e3396035124cb6b,3.461999893,1,0,80,60,1,79
,,,,,,,,,,,,,,,,,,,,,,,,,,,,,,,,,,,,,,,,,,,,,168,planta,Catalan,Sounds/cat_planta.mp3,2020-06-09_18h22.59.733,TranslationElicitation_spa,3.2.4,Win32,60,5ede22045e3396035124cb6b,,1,0,80,60,1,79
,,,,,,,,,,,,,,,,,,,,,,,,,,,,,,,,,,,l,6.551000118,L,FALSE,,,,,,,138,galeta,Catalan,Sounds/cat_galeta.mp3,2020-06-09_18h22.59.733,TranslationElicitation_spa,3.2.4,Win32,60,5ede22045e3396035124cb6b,,1,0,80,33,1,79
,,,,,,,,,,,,,,,,,,,,,,,,,,,,,,,,,,,a,6.703000069,LA,FALSE,,,,,,,138,galeta,Catalan,Sounds/cat_galeta.mp3,2020-06-09_18h22.59.733,TranslationElicitation_spa,3.2.4,Win32,60,5ede22045e3396035124cb6b,,1,0,80,33,1,79
,,,,,,,,,,,,,,,,,,,,,,,,,,,,,,,,,,,g,7.046000004,LAG,FALSE,,,,,,,138,galeta,Catalan,Sounds/cat_galeta.mp3,2020-06-09_18h22.59.733,TranslationElicitation_spa,3.2.4,Win32,60,5ede22045e3396035124cb6b,,1,0,80,33,1,79
,,,,,,,,,,,,,,,,,,,,,,,,,,,,,,,,,,,o,7.211000204,LAGO,FALSE,,,,,,,138,galeta,Catalan,Sounds/cat_galeta.mp3,2020-06-09_18h22.59.733,TranslationElicitation_spa,3.2.4,Win32,60,5ede22045e3396035124cb6b,,1,0,80,33,1,79
,,,,,,,,,,,,,,,,,,,,,,,,,,,,,,,,,,,return,7.874000072,,FALSE,,,,,,,138,galeta,Catalan,Sounds/cat_galeta.mp3,2020-06-09_18h22.59.733,TranslationElicitation_spa,3.2.4,Win32,60,5ede22045e3396035124cb6b,7.874000072,1,0,80,33,1,79
,,,,,,,,,,,,,,,,,,,,,,,,,,,,,,,,,,,,,,,,,,,,,138,galeta,Catalan,Sounds/cat_galeta.mp3,2020-06-09_18h22.59.733,TranslationElicitation_spa,3.2.4,Win32,60,5ede22045e3396035124cb6b,,1,0,80,33,1,79
,,,,,,,,,,,,,,,,,,,,,,,,,,,,,,,,,,,p,1.816999912,P,FALSE,,,,,,,174,porta,Catalan,Sounds/cat_porta.mp3,2020-06-09_18h22.59.733,TranslationElicitation_spa,3.2.4,Win32,60,5ede22045e3396035124cb6b,,1,0,80,66,1,79
,,,,,,,,,,,,,,,,,,,,,,,,,,,,,,,,,,,u,2.118000031,PU,FALSE,,,,,,,174,porta,Catalan,Sounds/cat_porta.mp3,2020-06-09_18h22.59.733,TranslationElicitation_spa,3.2.4,Win32,60,5ede22045e3396035124cb6b,,1,0,80,66,1,79
,,,,,,,,,,,,,,,,,,,,,,,,,,,,,,,,,,,e,2.326999903,PUE,FALSE,,,,,,,174,porta,Catalan,Sounds/cat_porta.mp3,2020-06-09_18h22.59.733,TranslationElicitation_spa,3.2.4,Win32,60,5ede22045e3396035124cb6b,,1,0,80,66,1,79
,,,,,,,,,,,,,,,,,,,,,,,,,,,,,,,,,,,r,2.447000027,PUER,FALSE,,,,,,,174,porta,Catalan,Sounds/cat_porta.mp3,2020-06-09_18h22.59.733,TranslationElicitation_spa,3.2.4,Win32,60,5ede22045e3396035124cb6b,,1,0,80,66,1,79
,,,,,,,,,,,,,,,,,,,,,,,,,,,,,,,,,,,t,2.67599988,PUERT,FALSE,,,,,,,174,porta,Catalan,Sounds/cat_porta.mp3,2020-06-09_18h22.59.733,TranslationElicitation_spa,3.2.4,Win32,60,5ede22045e3396035124cb6b,,1,0,80,66,1,79
,,,,,,,,,,,,,,,,,,,,,,,,,,,,,,,,,,,a,3.059000015,PUERTA,FALSE,,,,,,,174,porta,Catalan,Sounds/cat_porta.mp3,2020-06-09_18h22.59.733,TranslationElicitation_spa,3.2.4,Win32,60,5ede22045e3396035124cb6b,,1,0,80,66,1,79
,,,,,,,,,,,,,,,,,,,,,,,,,,,,,,,,,,,return,3.523000002,,FALSE,,,,,,,174,porta,Catalan,Sounds/cat_porta.mp3,2020-06-09_18h22.59.733,TranslationElicitation_spa,3.2.4,Win32,60,5ede22045e3396035124cb6b,3.522000074,1,0,80,66,1,79
,,,,,,,,,,,,,,,,,,,,,,,,,,,,,,,,,,,,,,,,,,,,,174,porta,Catalan,Sounds/cat_porta.mp3,2020-06-09_18h22.59.733,TranslationElicitation_spa,3.2.4,Win32,60,5ede22045e3396035124cb6b,,1,0,80,66,1,79
,,,,,,,,,,,,,,,,,,,,,,,,,,,,,,,,,,,m,2.236000061,M,FALSE,,,,,,,172,poma,Catalan,Sounds/cat_poma.mp3,2020-06-09_18h22.59.733,TranslationElicitation_spa,3.2.4,Win32,60,5ede22045e3396035124cb6b,,1,0,80,64,1,79
,,,,,,,,,,,,,,,,,,,,,,,,,,,,,,,,,,,a,2.388000011,MA,FALSE,,,,,,,172,poma,Catalan,Sounds/cat_poma.mp3,2020-06-09_18h22.59.733,TranslationElicitation_spa,3.2.4,Win32,60,5ede22045e3396035124cb6b,,1,0,80,64,1,79
,,,,,,,,,,,,,,,,,,,,,,,,,,,,,,,,,,,n,2.503000021,MAN,FALSE,,,,,,,172,poma,Catalan,Sounds/cat_poma.mp3,2020-06-09_18h22.59.733,TranslationElicitation_spa,3.2.4,Win32,60,5ede22045e3396035124cb6b,,1,0,80,64,1,79
,,,,,,,,,,,,,,,,,,,,,,,,,,,,,,,,,,,z,2.736999989,MANZ,FALSE,,,,,,,172,poma,Catalan,Sounds/cat_poma.mp3,2020-06-09_18h22.59.733,TranslationElicitation_spa,3.2.4,Win32,60,5ede22045e3396035124cb6b,,1,0,80,64,1,79
,,,,,,,,,,,,,,,,,,,,,,,,,,,,,,,,,,,a,2.815000057,MANZA,FALSE,,,,,,,172,poma,Catalan,Sounds/cat_poma.mp3,2020-06-09_18h22.59.733,TranslationElicitation_spa,3.2.4,Win32,60,5ede22045e3396035124cb6b,,1,0,80,64,1,79
,,,,,,,,,,,,,,,,,,,,,,,,,,,,,,,,,,,n,2.931999922,MANZAN,FALSE,,,,,,,172,poma,Catalan,Sounds/cat_poma.mp3,2020-06-09_18h22.59.733,TranslationElicitation_spa,3.2.4,Win32,60,5ede22045e3396035124cb6b,,1,0,80,64,1,79
,,,,,,,,,,,,,,,,,,,,,,,,,,,,,,,,,,,a,3.088000059,MANZANA,FALSE,,,,,,,172,poma,Catalan,Sounds/cat_poma.mp3,2020-06-09_18h22.59.733,TranslationElicitation_spa,3.2.4,Win32,60,5ede22045e3396035124cb6b,,1,0,80,64,1,79
,,,,,,,,,,,,,,,,,,,,,,,,,,,,,,,,,,,return,3.624000072,,FALSE,,,,,,,172,poma,Catalan,Sounds/cat_poma.mp3,2020-06-09_18h22.59.733,TranslationElicitation_spa,3.2.4,Win32,60,5ede22045e3396035124cb6b,3.624000072,1,0,80,64,1,79
,,,,,,,,,,,,,,,,,,,,,,,,,,,,,,,,,,,,,,,,,,,,,172,poma,Catalan,Sounds/cat_poma.mp3,2020-06-09_18h22.59.733,TranslationElicitation_spa,3.2.4,Win32,60,5ede22045e3396035124cb6b,,1,0,80,64,1,79
,,,,,,,,,,,,,,,,,,,,,,,,,,,,,,,,,,,a,7.649000168,A,FALSE,,,,,,,106,aixeta,Catalan,Sounds/cat_aixeta.mp3,2020-06-09_18h22.59.733,TranslationElicitation_spa,3.2.4,Win32,60,5ede22045e3396035124cb6b,,1,0,80,2,1,79
,,,,,,,,,,,,,,,,,,,,,,,,,,,,,,,,,,,s,7.725000143,AS,FALSE,,,,,,,106,aixeta,Catalan,Sounds/cat_aixeta.mp3,2020-06-09_18h22.59.733,TranslationElicitation_spa,3.2.4,Win32,60,5ede22045e3396035124cb6b,,1,0,80,2,1,79
,,,,,,,,,,,,,,,,,,,,,,,,,,,,,,,,,,,i,7.916000128,ASI,FALSE,,,,,,,106,aixeta,Catalan,Sounds/cat_aixeta.mp3,2020-06-09_18h22.59.733,TranslationElicitation_spa,3.2.4,Win32,60,5ede22045e3396035124cb6b,,1,0,80,2,1,79
,,,,,,,,,,,,,,,,,,,,,,,,,,,,,,,,,,,e,8.032000065,ASIE,FALSE,,,,,,,106,aixeta,Catalan,Sounds/cat_aixeta.mp3,2020-06-09_18h22.59.733,TranslationElicitation_spa,3.2.4,Win32,60,5ede22045e3396035124cb6b,,1,0,80,2,1,79
,,,,,,,,,,,,,,,,,,,,,,,,,,,,,,,,,,,n,8.22300005,ASIEN,FALSE,,,,,,,106,aixeta,Catalan,Sounds/cat_aixeta.mp3,2020-06-09_18h22.59.733,TranslationElicitation_spa,3.2.4,Win32,60,5ede22045e3396035124cb6b,,1,0,80,2,1,79
,,,,,,,,,,,,,,,,,,,,,,,,,,,,,,,,,,,t,8.362000227,ASIENT,FALSE,,,,,,,106,aixeta,Catalan,Sounds/cat_aixeta.mp3,2020-06-09_18h22.59.733,TranslationElicitation_spa,3.2.4,Win32,60,5ede22045e3396035124cb6b,,1,0,80,2,1,79
,,,,,,,,,,,,,,,,,,,,,,,,,,,,,,,,,,,o,8.563000202,ASIENTO,FALSE,,,,,,,106,aixeta,Catalan,Sounds/cat_aixeta.mp3,2020-06-09_18h22.59.733,TranslationElicitation_spa,3.2.4,Win32,60,5ede22045e3396035124cb6b,,1,0,80,2,1,79
,,,,,,,,,,,,,,,,,,,,,,,,,,,,,,,,,,,return,9.190000057,,FALSE,,,,,,,106,aixeta,Catalan,Sounds/cat_aixeta.mp3,2020-06-09_18h22.59.733,TranslationElicitation_spa,3.2.4,Win32,60,5ede22045e3396035124cb6b,9.190000057,1,0,80,2,1,79
,,,,,,,,,,,,,,,,,,,,,,,,,,,,,,,,,,,,,,,,,,,,,106,aixeta,Catalan,Sounds/cat_aixeta.mp3,2020-06-09_18h22.59.733,TranslationElicitation_spa,3.2.4,Win32,60,5ede22045e3396035124cb6b,,1,0,80,2,1,79
,,,,,,,,,,,,,,,,,,,,,,,,,,,,,,,,,,,r,3.087000132,R,FALSE,,,,,,,175,raspall,Catalan,Sounds/cat_raspall.mp3,2020-06-09_18h22.59.733,TranslationElicitation_spa,3.2.4,Win32,60,5ede22045e3396035124cb6b,,1,0,80,67,1,79
,,,,,,,,,,,,,,,,,,,,,,,,,,,,,,,,,,,e,3.164000034,RE,FALSE,,,,,,,175,raspall,Catalan,Sounds/cat_raspall.mp3,2020-06-09_18h22.59.733,TranslationElicitation_spa,3.2.4,Win32,60,5ede22045e3396035124cb6b,,1,0,80,67,1,79
,,,,,,,,,,,,,,,,,,,,,,,,,,,,,,,,,,,s,3.391000032,RES,FALSE,,,,,,,175,raspall,Catalan,Sounds/cat_raspall.mp3,2020-06-09_18h22.59.733,TranslationElicitation_spa,3.2.4,Win32,60,5ede22045e3396035124cb6b,,1,0,80,67,1,79
,,,,,,,,,,,,,,,,,,,,,,,,,,,,,,,,,,,p,3.661000013,RESP,FALSE,,,,,,,175,raspall,Catalan,Sounds/cat_raspall.mp3,2020-06-09_18h22.59.733,TranslationElicitation_spa,3.2.4,Win32,60,5ede22045e3396035124cb6b,,1,0,80,67,1,79
,,,,,,,,,,,,,,,,,,,,,,,,,,,,,,,,,,,a,3.779999971,RESPA,FALSE,,,,,,,175,raspall,Catalan,Sounds/cat_raspall.mp3,2020-06-09_18h22.59.733,TranslationElicitation_spa,3.2.4,Win32,60,5ede22045e3396035124cb6b,,1,0,80,67,1,79
,,,,,,,,,,,,,,,,,,,,,,,,,,,,,,,,,,,l,3.920000076,RESPAL,FALSE,,,,,,,175,raspall,Catalan,Sounds/cat_raspall.mp3,2020-06-09_18h22.59.733,TranslationElicitation_spa,3.2.4,Win32,60,5ede22045e3396035124cb6b,,1,0,80,67,1,79
,,,,,,,,,,,,,,,,,,,,,,,,,,,,,,,,,,,d,4.117000103,RESPALD,FALSE,,,,,,,175,raspall,Catalan,Sounds/cat_raspall.mp3,2020-06-09_18h22.59.733,TranslationElicitation_spa,3.2.4,Win32,60,5ede22045e3396035124cb6b,,1,0,80,67,1,79
,,,,,,,,,,,,,,,,,,,,,,,,,,,,,,,,,,,o,4.259000063,RESPALDO,FALSE,,,,,,,175,raspall,Catalan,Sounds/cat_raspall.mp3,2020-06-09_18h22.59.733,TranslationElicitation_spa,3.2.4,Win32,60,5ede22045e3396035124cb6b,,1,0,80,67,1,79
,,,,,,,,,,,,,,,,,,,,,,,,,,,,,,,,,,,return,5.101999998,,FALSE,,,,,,,175,raspall,Catalan,Sounds/cat_raspall.mp3,2020-06-09_18h22.59.733,TranslationElicitation_spa,3.2.4,Win32,60,5ede22045e3396035124cb6b,5.101000071,1,0,80,67,1,79
,,,,,,,,,,,,,,,,,,,,,,,,,,,,,,,,,,,,,,,,,,,,,175,raspall,Catalan,Sounds/cat_raspall.mp3,2020-06-09_18h22.59.733,TranslationElicitation_spa,3.2.4,Win32,60,5ede22045e3396035124cb6b,,1,0,80,67,1,79
,,,,,,,,,,,,,,,,,,,,,,,,,,,,,,,,,,,c,1.764999866,C,FALSE,,,,,,,120,cama,Catalan,Sounds/cat_cama.mp3,2020-06-09_18h22.59.733,TranslationElicitation_spa,3.2.4,Win32,60,5ede22045e3396035124cb6b,,1,0,80,15,1,79
,,,,,,,,,,,,,,,,,,,,,,,,,,,,,,,,,,,a,1.970999956,CA,FALSE,,,,,,,120,cama,Catalan,Sounds/cat_cama.mp3,2020-06-09_18h22.59.733,TranslationElicitation_spa,3.2.4,Win32,60,5ede22045e3396035124cb6b,,1,0,80,15,1,79
,,,,,,,,,,,,,,,,,,,,,,,,,,,,,,,,,,,m,2.092999935,CAM,FALSE,,,,,,,120,cama,Catalan,Sounds/cat_cama.mp3,2020-06-09_18h22.59.733,TranslationElicitation_spa,3.2.4,Win32,60,5ede22045e3396035124cb6b,,1,0,80,15,1,79
,,,,,,,,,,,,,,,,,,,,,,,,,,,,,,,,,,,a,2.207999945,CAMA,FALSE,,,,,,,120,cama,Catalan,Sounds/cat_cama.mp3,2020-06-09_18h22.59.733,TranslationElicitation_spa,3.2.4,Win32,60,5ede22045e3396035124cb6b,,1,0,80,15,1,79
,,,,,,,,,,,,,,,,,,,,,,,,,,,,,,,,,,,return,3.653999805,,FALSE,,,,,,,120,cama,Catalan,Sounds/cat_cama.mp3,2020-06-09_18h22.59.733,TranslationElicitation_spa,3.2.4,Win32,60,5ede22045e3396035124cb6b,3.653999805,1,0,80,15,1,79
,,,,,,,,,,,,,,,,,,,,,,,,,,,,,,,,,,,,,,,,,,,,,120,cama,Catalan,Sounds/cat_cama.mp3,2020-06-09_18h22.59.733,TranslationElicitation_spa,3.2.4,Win32,60,5ede22045e3396035124cb6b,,1,0,80,15,1,79
,,,,,,,,,,,,,,,,,,,,,,,,,,,,,,,,,,,o,2.243000031,O,FALSE,,,,,,,160,orella,Catalan,Sounds/cat_orella.mp3,2020-06-09_18h22.59.733,TranslationElicitation_spa,3.2.4,Win32,60,5ede22045e3396035124cb6b,,1,0,80,53,1,79
,,,,,,,,,,,,,,,,,,,,,,,,,,,,,,,,,,,r,2.80700016,OR,FALSE,,,,,,,160,orella,Catalan,Sounds/cat_orella.mp3,2020-06-09_18h22.59.733,TranslationElicitation_spa,3.2.4,Win32,60,5ede22045e3396035124cb6b,,1,0,80,53,1,79
,,,,,,,,,,,,,,,,,,,,,,,,,,,,,,,,,,,e,2.924000025,ORE,FALSE,,,,,,,160,orella,Catalan,Sounds/cat_orella.mp3,2020-06-09_18h22.59.733,TranslationElicitation_spa,3.2.4,Win32,60,5ede22045e3396035124cb6b,,1,0,80,53,1,79
,,,,,,,,,,,,,,,,,,,,,,,,,,,,,,,,,,,j,3.118000031,OREJ,FALSE,,,,,,,160,orella,Catalan,Sounds/cat_orella.mp3,2020-06-09_18h22.59.733,TranslationElicitation_spa,3.2.4,Win32,60,5ede22045e3396035124cb6b,,1,0,80,53,1,79
,,,,,,,,,,,,,,,,,,,,,,,,,,,,,,,,,,,a,3.282999992,OREJA,FALSE,,,,,,,160,orella,Catalan,Sounds/cat_orella.mp3,2020-06-09_18h22.59.733,TranslationElicitation_spa,3.2.4,Win32,60,5ede22045e3396035124cb6b,,1,0,80,53,1,79
,,,,,,,,,,,,,,,,,,,,,,,,,,,,,,,,,,,return,3.634000063,,FALSE,,,,,,,160,orella,Catalan,Sounds/cat_orella.mp3,2020-06-09_18h22.59.733,TranslationElicitation_spa,3.2.4,Win32,60,5ede22045e3396035124cb6b,3.634000063,1,0,80,53,1,79
,,,,,,,,,,,,,,,,,,,,,,,,,,,,,,,,,,,,,,,,,,,,,160,orella,Catalan,Sounds/cat_orella.mp3,2020-06-09_18h22.59.733,TranslationElicitation_spa,3.2.4,Win32,60,5ede22045e3396035124cb6b,,1,0,80,53,1,79
,,,,,,,,,,,,,,,,,,,,,,,,,,,,,,,,,,,c,4.0849998,C,FALSE,,,,,,,114,bol,Catalan,Sounds/cat_bol.mp3,2020-06-09_18h22.59.733,TranslationElicitation_spa,3.2.4,Win32,60,5ede22045e3396035124cb6b,,1,0,80,9,1,79
,,,,,,,,,,,,,,,,,,,,,,,,,,,,,,,,,,,u,4.217000008,CU,FALSE,,,,,,,114,bol,Catalan,Sounds/cat_bol.mp3,2020-06-09_18h22.59.733,TranslationElicitation_spa,3.2.4,Win32,60,5ede22045e3396035124cb6b,,1,0,80,9,1,79
,,,,,,,,,,,,,,,,,,,,,,,,,,,,,,,,,,,e,4.345999956,CUE,FALSE,,,,,,,114,bol,Catalan,Sounds/cat_bol.mp3,2020-06-09_18h22.59.733,TranslationElicitation_spa,3.2.4,Win32,60,5ede22045e3396035124cb6b,,1,0,80,9,1,79
,,,,,,,,,,,,,,,,,,,,,,,,,,,,,,,,,,,n,4.433999777,CUEN,FALSE,,,,,,,114,bol,Catalan,Sounds/cat_bol.mp3,2020-06-09_18h22.59.733,TranslationElicitation_spa,3.2.4,Win32,60,5ede22045e3396035124cb6b,,1,0,80,9,1,79
,,,,,,,,,,,,,,,,,,,,,,,,,,,,,,,,,,,c,4.529999971,CUENC,FALSE,,,,,,,114,bol,Catalan,Sounds/cat_bol.mp3,2020-06-09_18h22.59.733,TranslationElicitation_spa,3.2.4,Win32,60,5ede22045e3396035124cb6b,,1,0,80,9,1,79
,,,,,,,,,,,,,,,,,,,,,,,,,,,,,,,,,,,o,4.788999796,CUENCO,FALSE,,,,,,,114,bol,Catalan,Sounds/cat_bol.mp3,2020-06-09_18h22.59.733,TranslationElicitation_spa,3.2.4,Win32,60,5ede22045e3396035124cb6b,,1,0,80,9,1,79
,,,,,,,,,,,,,,,,,,,,,,,,,,,,,,,,,,,return,5.501999855,,FALSE,,,,,,,114,bol,Catalan,Sounds/cat_bol.mp3,2020-06-09_18h22.59.733,TranslationElicitation_spa,3.2.4,Win32,60,5ede22045e3396035124cb6b,5.500999928,1,0,80,9,1,79
,,,,,,,,,,,,,,,,,,,,,,,,,,,,,,,,,,,,,,,,,,,,,114,bol,Catalan,Sounds/cat_bol.mp3,2020-06-09_18h22.59.733,TranslationElicitation_spa,3.2.4,Win32,60,5ede22045e3396035124cb6b,,1,0,80,9,1,79
,,,,,,,,,,,,,,,,,,,,,,,,,,,,,,,,,,,m,4.054999828,M,FALSE,,,,,,,154,mirall,Catalan,Sounds/cat_mirall.mp3,2020-06-09_18h22.59.733,TranslationElicitation_spa,3.2.4,Win32,60,5ede22045e3396035124cb6b,,1,0,80,48,1,79
,,,,,,,,,,,,,,,,,,,,,,,,,,,,,,,,,,,r,4.657999992,MR,FALSE,,,,,,,154,mirall,Catalan,Sounds/cat_mirall.mp3,2020-06-09_18h22.59.733,TranslationElicitation_spa,3.2.4,Win32,60,5ede22045e3396035124cb6b,,1,0,80,48,1,79
,,,,,,,,,,,,,,,,,,,,,,,,,,,,,,,,,,,i,4.771999836,MRI,FALSE,,,,,,,154,mirall,Catalan,Sounds/cat_mirall.mp3,2020-06-09_18h22.59.733,TranslationElicitation_spa,3.2.4,Win32,60,5ede22045e3396035124cb6b,,1,0,80,48,1,79
,,,,,,,,,,,,,,,,,,,,,,,,,,,,,,,,,,,backspace,5.388999939,M,TRUE,,,,,,,154,mirall,Catalan,Sounds/cat_mirall.mp3,2020-06-09_18h22.59.733,TranslationElicitation_spa,3.2.4,Win32,60,5ede22045e3396035124cb6b,,1,0,80,48,1,79
,,,,,,,,,,,,,,,,,,,,,,,,,,,,,,,,,,,backspace,5.578999996,,TRUE,,,,,,,154,mirall,Catalan,Sounds/cat_mirall.mp3,2020-06-09_18h22.59.733,TranslationElicitation_spa,3.2.4,Win32,60,5ede22045e3396035124cb6b,,1,0,80,48,1,79
,,,,,,,,,,,,,,,,,,,,,,,,,,,,,,,,,,,m,6.38499999,M,TRUE,,,,,,,154,mirall,Catalan,Sounds/cat_mirall.mp3,2020-06-09_18h22.59.733,TranslationElicitation_spa,3.2.4,Win32,60,5ede22045e3396035124cb6b,,1,0,80,48,1,79
,,,,,,,,,,,,,,,,,,,,,,,,,,,,,,,,,,,i,6.735999823,MI,TRUE,,,,,,,154,mirall,Catalan,Sounds/cat_mirall.mp3,2020-06-09_18h22.59.733,TranslationElicitation_spa,3.2.4,Win32,60,5ede22045e3396035124cb6b,,1,0,80,48,1,79
,,,,,,,,,,,,,,,,,,,,,,,,,,,,,,,,,,,r,6.930999994,MIR,TRUE,,,,,,,154,mirall,Catalan,Sounds/cat_mirall.mp3,2020-06-09_18h22.59.733,TranslationElicitation_spa,3.2.4,Win32,60,5ede22045e3396035124cb6b,,1,0,80,48,1,79
,,,,,,,,,,,,,,,,,,,,,,,,,,,,,,,,,,,i,7.089999914,MIRI,TRUE,,,,,,,154,mirall,Catalan,Sounds/cat_mirall.mp3,2020-06-09_18h22.59.733,TranslationElicitation_spa,3.2.4,Win32,60,5ede22045e3396035124cb6b,,1,0,80,48,1,79
,,,,,,,,,,,,,,,,,,,,,,,,,,,,,,,,,,,l,7.402999878,MIRIL,TRUE,,,,,,,154,mirall,Catalan,Sounds/cat_mirall.mp3,2020-06-09_18h22.59.733,TranslationElicitation_spa,3.2.4,Win32,60,5ede22045e3396035124cb6b,,1,0,80,48,1,79
,,,,,,,,,,,,,,,,,,,,,,,,,,,,,,,,,,,l,7.542999983,MIRILL,TRUE,,,,,,,154,mirall,Catalan,Sounds/cat_mirall.mp3,2020-06-09_18h22.59.733,TranslationElicitation_spa,3.2.4,Win32,60,5ede22045e3396035124cb6b,,1,0,80,48,1,79
,,,,,,,,,,,,,,,,,,,,,,,,,,,,,,,,,,,a,7.740999937,MIRILLA,TRUE,,,,,,,154,mirall,Catalan,Sounds/cat_mirall.mp3,2020-06-09_18h22.59.733,TranslationElicitation_spa,3.2.4,Win32,60,5ede22045e3396035124cb6b,,1,0,80,48,1,79
,,,,,,,,,,,,,,,,,,,,,,,,,,,,,,,,,,,return,8.813999891,,TRUE,,,,,,,154,mirall,Catalan,Sounds/cat_mirall.mp3,2020-06-09_18h22.59.733,TranslationElicitation_spa,3.2.4,Win32,60,5ede22045e3396035124cb6b,8.813999891,1,0,80,48,1,79
,,,,,,,,,,,,,,,,,,,,,,,,,,,,,,,,,,,,,,,,,,,,,154,mirall,Catalan,Sounds/cat_mirall.mp3,2020-06-09_18h22.59.733,TranslationElicitation_spa,3.2.4,Win32,60,5ede22045e3396035124cb6b,,1,0,80,48,1,79
,,,,,,,,,,,,,,,,,,,,,,,,,,,,,,,,,,,z,1.81400013,Z,FALSE,,,,,,,189,zebra,Catalan,Sounds/cat_zebra.mp3,2020-06-09_18h22.59.733,TranslationElicitation_spa,3.2.4,Win32,60,5ede22045e3396035124cb6b,,1,0,80,79,1,79
,,,,,,,,,,,,,,,,,,,,,,,,,,,,,,,,,,,e,2.078999996,ZE,FALSE,,,,,,,189,zebra,Catalan,Sounds/cat_zebra.mp3,2020-06-09_18h22.59.733,TranslationElicitation_spa,3.2.4,Win32,60,5ede22045e3396035124cb6b,,1,0,80,79,1,79
,,,,,,,,,,,,,,,,,,,,,,,,,,,,,,,,,,,b,2.353000164,ZEB,FALSE,,,,,,,189,zebra,Catalan,Sounds/cat_zebra.mp3,2020-06-09_18h22.59.733,TranslationElicitation_spa,3.2.4,Win32,60,5ede22045e3396035124cb6b,,1,0,80,79,1,79
,,,,,,,,,,,,,,,,,,,,,,,,,,,,,,,,,,,r,2.524000168,ZEBR,FALSE,,,,,,,189,zebra,Catalan,Sounds/cat_zebra.mp3,2020-06-09_18h22.59.733,TranslationElicitation_spa,3.2.4,Win32,60,5ede22045e3396035124cb6b,,1,0,80,79,1,79
,,,,,,,,,,,,,,,,,,,,,,,,,,,,,,,,,,,a,2.86500001,ZEBRA,FALSE,,,,,,,189,zebra,Catalan,Sounds/cat_zebra.mp3,2020-06-09_18h22.59.733,TranslationElicitation_spa,3.2.4,Win32,60,5ede22045e3396035124cb6b,,1,0,80,79,1,79
,,,,,,,,,,,,,,,,,,,,,,,,,,,,,,,,,,,return,3.322999954,,FALSE,,,,,,,189,zebra,Catalan,Sounds/cat_zebra.mp3,2020-06-09_18h22.59.733,TranslationElicitation_spa,3.2.4,Win32,60,5ede22045e3396035124cb6b,3.322999954,1,0,80,79,1,79
,,,,,,,,,,,,,,,,,,,,,,,,,,,,,,,,,,,,,,,,,,,,,189,zebra,Catalan,Sounds/cat_zebra.mp3,2020-06-09_18h22.59.733,TranslationElicitation_spa,3.2.4,Win32,60,5ede22045e3396035124cb6b,,1,0,80,79,1,79
,,,,,,,,,,,,,,,,,,,,,,,,,,,,,,,,,,,p,1.878999949,P,FALSE,,,,,,,166,peu,Catalan,Sounds/cat_peu.mp3,2020-06-09_18h22.59.733,TranslationElicitation_spa,3.2.4,Win32,60,5ede22045e3396035124cb6b,,1,0,80,59,1,79
,,,,,,,,,,,,,,,,,,,,,,,,,,,,,,,,,,,e,2.082000017,PE,FALSE,,,,,,,166,peu,Catalan,Sounds/cat_peu.mp3,2020-06-09_18h22.59.733,TranslationElicitation_spa,3.2.4,Win32,60,5ede22045e3396035124cb6b,,1,0,80,59,1,79
,,,,,,,,,,,,,,,,,,,,,,,,,,,,,,,,,,,z,2.383000135,PEZ,FALSE,,,,,,,166,peu,Catalan,Sounds/cat_peu.mp3,2020-06-09_18h22.59.733,TranslationElicitation_spa,3.2.4,Win32,60,5ede22045e3396035124cb6b,,1,0,80,59,1,79
,,,,,,,,,,,,,,,,,,,,,,,,,,,,,,,,,,,return,2.766000032,,FALSE,,,,,,,166,peu,Catalan,Sounds/cat_peu.mp3,2020-06-09_18h22.59.733,TranslationElicitation_spa,3.2.4,Win32,60,5ede22045e3396035124cb6b,2.766000032,1,0,80,59,1,79
,,,,,,,,,,,,,,,,,,,,,,,,,,,,,,,,,,,,,,,,,,,,,166,peu,Catalan,Sounds/cat_peu.mp3,2020-06-09_18h22.59.733,TranslationElicitation_spa,3.2.4,Win32,60,5ede22045e3396035124cb6b,,1,0,80,59,1,79
,,,,,,,,,,,,,,,,,,,,,,,,,,,,,,,,,,,p,7.555000067,P,FALSE,,,,,,,170,ploma,Catalan,Sounds/cat_ploma.mp3,2020-06-09_18h22.59.733,TranslationElicitation_spa,3.2.4,Win32,60,5ede22045e3396035124cb6b,,1,0,80,62,1,79
,,,,,,,,,,,,,,,,,,,,,,,,,,,,,,,,,,,l,7.711000204,PL,FALSE,,,,,,,170,ploma,Catalan,Sounds/cat_ploma.mp3,2020-06-09_18h22.59.733,TranslationElicitation_spa,3.2.4,Win32,60,5ede22045e3396035124cb6b,,1,0,80,62,1,79
,,,,,,,,,,,,,,,,,,,,,,,,,,,,,,,,,,,u,8.04700017,PLU,FALSE,,,,,,,170,ploma,Catalan,Sounds/cat_ploma.mp3,2020-06-09_18h22.59.733,TranslationElicitation_spa,3.2.4,Win32,60,5ede22045e3396035124cb6b,,1,0,80,62,1,79
,,,,,,,,,,,,,,,,,,,,,,,,,,,,,,,,,,,m,8.350000143,PLUM,FALSE,,,,,,,170,ploma,Catalan,Sounds/cat_ploma.mp3,2020-06-09_18h22.59.733,TranslationElicitation_spa,3.2.4,Win32,60,5ede22045e3396035124cb6b,,1,0,80,62,1,79
,,,,,,,,,,,,,,,,,,,,,,,,,,,,,,,,,,,a,8.541000128,PLUMA,FALSE,,,,,,,170,ploma,Catalan,Sounds/cat_ploma.mp3,2020-06-09_18h22.59.733,TranslationElicitation_spa,3.2.4,Win32,60,5ede22045e3396035124cb6b,,1,0,80,62,1,79
,,,,,,,,,,,,,,,,,,,,,,,,,,,,,,,,,,,return,8.998000145,,FALSE,,,,,,,170,ploma,Catalan,Sounds/cat_ploma.mp3,2020-06-09_18h22.59.733,TranslationElicitation_spa,3.2.4,Win32,60,5ede22045e3396035124cb6b,8.998000145,1,0,80,62,1,79
,,,,,,,,,,,,,,,,,,,,,,,,,,,,,,,,,,,,,,,,,,,,,170,ploma,Catalan,Sounds/cat_ploma.mp3,2020-06-09_18h22.59.733,TranslationElicitation_spa,3.2.4,Win32,60,5ede22045e3396035124cb6b,,1,0,80,62,1,79
,,,,,,,,,,,,,,,,,,,,,,,,,,,,,,,,,,,b,2.618000031,B,FALSE,,,,,,,117,boto,Catalan,Sounds/cat_boto.mp3,2020-06-09_18h22.59.733,TranslationElicitation_spa,3.2.4,Win32,60,5ede22045e3396035124cb6b,,1,0,80,12,1,79
,,,,,,,,,,,,,,,,,,,,,,,,,,,,,,,,,,,o,2.951999903,BO,FALSE,,,,,,,117,boto,Catalan,Sounds/cat_boto.mp3,2020-06-09_18h22.59.733,TranslationElicitation_spa,3.2.4,Win32,60,5ede22045e3396035124cb6b,,1,0,80,12,1,79
,,,,,,,,,,,,,,,,,,,,,,,,,,,,,,,,,,,t,3.294999838,BOT,FALSE,,,,,,,117,boto,Catalan,Sounds/cat_boto.mp3,2020-06-09_18h22.59.733,TranslationElicitation_spa,3.2.4,Win32,60,5ede22045e3396035124cb6b,,1,0,80,12,1,79
,,,,,,,,,,,,,,,,,,,,,,,,,,,,,,,,,,,apostrophe,3.562999964,BOT,FALSE,,,,,,,117,boto,Catalan,Sounds/cat_boto.mp3,2020-06-09_18h22.59.733,TranslationElicitation_spa,3.2.4,Win32,60,5ede22045e3396035124cb6b,,1,0,80,12,1,79
,,,,,,,,,,,,,,,,,,,,,,,,,,,,,,,,,,,o,3.843999863,BOTÓ,FALSE,,,,,,,117,boto,Catalan,Sounds/cat_boto.mp3,2020-06-09_18h22.59.733,TranslationElicitation_spa,3.2.4,Win32,60,5ede22045e3396035124cb6b,,1,0,80,12,1,79
,,,,,,,,,,,,,,,,,,,,,,,,,,,,,,,,,,,n,4.125999928,BOTÓN,FALSE,,,,,,,117,boto,Catalan,Sounds/cat_boto.mp3,2020-06-09_18h22.59.733,TranslationElicitation_spa,3.2.4,Win32,60,5ede22045e3396035124cb6b,,1,0,80,12,1,79
,,,,,,,,,,,,,,,,,,,,,,,,,,,,,,,,,,,return,4.802000046,,FALSE,,,,,,,117,boto,Catalan,Sounds/cat_boto.mp3,2020-06-09_18h22.59.733,TranslationElicitation_spa,3.2.4,Win32,60,5ede22045e3396035124cb6b,4.802000046,1,0,80,12,1,79
,,,,,,,,,,,,,,,,,,,,,,,,,,,,,,,,,,,,,,,,,,,,,117,boto,Catalan,Sounds/cat_boto.mp3,2020-06-09_18h22.59.733,TranslationElicitation_spa,3.2.4,Win32,60,5ede22045e3396035124cb6b,,1,0,80,12,1,79
,,,,,,,,,,,,,,,,,,,,,,,,,,,,,,,,,,,c,1.427999973,C,FALSE,,,,,,,121,camisa,Catalan,Sounds/cat_camisa.mp3,2020-06-09_18h22.59.733,TranslationElicitation_spa,3.2.4,Win32,60,5ede22045e3396035124cb6b,,1,0,80,16,1,79
,,,,,,,,,,,,,,,,,,,,,,,,,,,,,,,,,,,a,1.76699996,CA,FALSE,,,,,,,121,camisa,Catalan,Sounds/cat_camisa.mp3,2020-06-09_18h22.59.733,TranslationElicitation_spa,3.2.4,Win32,60,5ede22045e3396035124cb6b,,1,0,80,16,1,79
,,,,,,,,,,,,,,,,,,,,,,,,,,,,,,,,,,,m,1.919000149,CAM,FALSE,,,,,,,121,camisa,Catalan,Sounds/cat_camisa.mp3,2020-06-09_18h22.59.733,TranslationElicitation_spa,3.2.4,Win32,60,5ede22045e3396035124cb6b,,1,0,80,16,1,79
,,,,,,,,,,,,,,,,,,,,,,,,,,,,,,,,,,,i,2.107000113,CAMI,FALSE,,,,,,,121,camisa,Catalan,Sounds/cat_camisa.mp3,2020-06-09_18h22.59.733,TranslationElicitation_spa,3.2.4,Win32,60,5ede22045e3396035124cb6b,,1,0,80,16,1,79
,,,,,,,,,,,,,,,,,,,,,,,,,,,,,,,,,,,s,2.334000111,CAMIS,FALSE,,,,,,,121,camisa,Catalan,Sounds/cat_camisa.mp3,2020-06-09_18h22.59.733,TranslationElicitation_spa,3.2.4,Win32,60,5ede22045e3396035124cb6b,,1,0,80,16,1,79
,,,,,,,,,,,,,,,,,,,,,,,,,,,,,,,,,,,a,2.413000107,CAMISA,FALSE,,,,,,,121,camisa,Catalan,Sounds/cat_camisa.mp3,2020-06-09_18h22.59.733,TranslationElicitation_spa,3.2.4,Win32,60,5ede22045e3396035124cb6b,,1,0,80,16,1,79
,,,,,,,,,,,,,,,,,,,,,,,,,,,,,,,,,,,return,3.006999969,,FALSE,,,,,,,121,camisa,Catalan,Sounds/cat_camisa.mp3,2020-06-09_18h22.59.733,TranslationElicitation_spa,3.2.4,Win32,60,5ede22045e3396035124cb6b,3.006000042,1,0,80,16,1,79
,,,,,,,,,,,,,,,,,,,,,,,,,,,,,,,,,,,,,,,,,,,,,121,camisa,Catalan,Sounds/cat_camisa.mp3,2020-06-09_18h22.59.733,TranslationElicitation_spa,3.2.4,Win32,60,5ede22045e3396035124cb6b,,1,0,80,16,1,79
,,,,,,,,,,,,,,,,,,,,,,,,,,,,,,,,,,,v,9.159000158,V,FALSE,,,,,,,115,bolet,Catalan,Sounds/cat_bolet.mp3,2020-06-09_18h22.59.733,TranslationElicitation_spa,3.2.4,Win32,60,5ede22045e3396035124cb6b,,1,0,80,10,1,79
,,,,,,,,,,,,,,,,,,,,,,,,,,,,,,,,,,,o,9.311000109,VO,FALSE,,,,,,,115,bolet,Catalan,Sounds/cat_bolet.mp3,2020-06-09_18h22.59.733,TranslationElicitation_spa,3.2.4,Win32,60,5ede22045e3396035124cb6b,,1,0,80,10,1,79
,,,,,,,,,,,,,,,,,,,,,,,,,,,,,,,,,,,l,9.541000128,VOL,FALSE,,,,,,,115,bolet,Catalan,Sounds/cat_bolet.mp3,2020-06-09_18h22.59.733,TranslationElicitation_spa,3.2.4,Win32,60,5ede22045e3396035124cb6b,,1,0,80,10,1,79
,,,,,,,,,,,,,,,,,,,,,,,,,,,,,,,,,,,a,9.679000139,VOLA,FALSE,,,,,,,115,bolet,Catalan,Sounds/cat_bolet.mp3,2020-06-09_18h22.59.733,TranslationElicitation_spa,3.2.4,Win32,60,5ede22045e3396035124cb6b,,1,0,80,10,1,79
,,,,,,,,,,,,,,,,,,,,,,,,,,,,,,,,,,,r,9.879000187,VOLAR,FALSE,,,,,,,115,bolet,Catalan,Sounds/cat_bolet.mp3,2020-06-09_18h22.59.733,TranslationElicitation_spa,3.2.4,Win32,60,5ede22045e3396035124cb6b,,1,0,80,10,1,79
,,,,,,,,,,,,,,,,,,,,,,,,,,,,,,,,,,,return,10.2650001,,FALSE,,,,,,,115,bolet,Catalan,Sounds/cat_bolet.mp3,2020-06-09_18h22.59.733,TranslationElicitation_spa,3.2.4,Win32,60,5ede22045e3396035124cb6b,10.2650001,1,0,80,10,1,79
,,,,,,,,,,,,,,,,,,,,,,,,,,,,,,,,,,,,,,,,,,,,,115,bolet,Catalan,Sounds/cat_bolet.mp3,2020-06-09_18h22.59.733,TranslationElicitation_spa,3.2.4,Win32,60,5ede22045e3396035124cb6b,,1,0,80,10,1,79
,,,,,,,,,,,,,,,,,,,,,,,,,,,,,,,,,,,m,1.660000086,M,FALSE,,,,,,,155,moneda,Catalan,Sounds/cat_moneda.mp3,2020-06-09_18h22.59.733,TranslationElicitation_spa,3.2.4,Win32,60,5ede22045e3396035124cb6b,,1,0,80,49,1,79
,,,,,,,,,,,,,,,,,,,,,,,,,,,,,,,,,,,o,1.95600009,MO,FALSE,,,,,,,155,moneda,Catalan,Sounds/cat_moneda.mp3,2020-06-09_18h22.59.733,TranslationElicitation_spa,3.2.4,Win32,60,5ede22045e3396035124cb6b,,1,0,80,49,1,79
,,,,,,,,,,,,,,,,,,,,,,,,,,,,,,,,,,,n,2.332999945,MON,FALSE,,,,,,,155,moneda,Catalan,Sounds/cat_moneda.mp3,2020-06-09_18h22.59.733,TranslationElicitation_spa,3.2.4,Win32,60,5ede22045e3396035124cb6b,,1,0,80,49,1,79
,,,,,,,,,,,,,,,,,,,,,,,,,,,,,,,,,,,e,2.643000126,MONE,FALSE,,,,,,,155,moneda,Catalan,Sounds/cat_moneda.mp3,2020-06-09_18h22.59.733,TranslationElicitation_spa,3.2.4,Win32,60,5ede22045e3396035124cb6b,,1,0,80,49,1,79
,,,,,,,,,,,,,,,,,,,,,,,,,,,,,,,,,,,d,3.157000065,MONED,FALSE,,,,,,,155,moneda,Catalan,Sounds/cat_moneda.mp3,2020-06-09_18h22.59.733,TranslationElicitation_spa,3.2.4,Win32,60,5ede22045e3396035124cb6b,,1,0,80,49,1,79
,,,,,,,,,,,,,,,,,,,,,,,,,,,,,,,,,,,a,3.311000109,MONEDA,FALSE,,,,,,,155,moneda,Catalan,Sounds/cat_moneda.mp3,2020-06-09_18h22.59.733,TranslationElicitation_spa,3.2.4,Win32,60,5ede22045e3396035124cb6b,,1,0,80,49,1,79
,,,,,,,,,,,,,,,,,,,,,,,,,,,,,,,,,,,return,3.878999949,,FALSE,,,,,,,155,moneda,Catalan,Sounds/cat_moneda.mp3,2020-06-09_18h22.59.733,TranslationElicitation_spa,3.2.4,Win32,60,5ede22045e3396035124cb6b,3.878999949,1,0,80,49,1,79
,,,,,,,,,,,,,,,,,,,,,,,,,,,,,,,,,,,,,,,,,,,,,155,moneda,Catalan,Sounds/cat_moneda.mp3,2020-06-09_18h22.59.733,TranslationElicitation_spa,3.2.4,Win32,60,5ede22045e3396035124cb6b,,1,0,80,49,1,79
,,,,,,,,,,,,,,,,,,,,,,,,,,,,,,,,,,,o,1.463999987,O,FALSE,,,,,,,161,ovella,Catalan,Sounds/cat_ovella.mp3,2020-06-09_18h22.59.733,TranslationElicitation_spa,3.2.4,Win32,60,5ede22045e3396035124cb6b,,1,0,80,54,1,79
,,,,,,,,,,,,,,,,,,,,,,,,,,,,,,,,,,,v,1.667000055,OV,FALSE,,,,,,,161,ovella,Catalan,Sounds/cat_ovella.mp3,2020-06-09_18h22.59.733,TranslationElicitation_spa,3.2.4,Win32,60,5ede22045e3396035124cb6b,,1,0,80,54,1,79
,,,,,,,,,,,,,,,,,,,,,,,,,,,,,,,,,,,e,1.898999929,OVE,FALSE,,,,,,,161,ovella,Catalan,Sounds/cat_ovella.mp3,2020-06-09_18h22.59.733,TranslationElicitation_spa,3.2.4,Win32,60,5ede22045e3396035124cb6b,,1,0,80,54,1,79
,,,,,,,,,,,,,,,,,,,,,,,,,,,,,,,,,,,j,2.087999821,OVEJ,FALSE,,,,,,,161,ovella,Catalan,Sounds/cat_ovella.mp3,2020-06-09_18h22.59.733,TranslationElicitation_spa,3.2.4,Win32,60,5ede22045e3396035124cb6b,,1,0,80,54,1,79
,,,,,,,,,,,,,,,,,,,,,,,,,,,,,,,,,,,a,2.315000057,OVEJA,FALSE,,,,,,,161,ovella,Catalan,Sounds/cat_ovella.mp3,2020-06-09_18h22.59.733,TranslationElicitation_spa,3.2.4,Win32,60,5ede22045e3396035124cb6b,,1,0,80,54,1,79
,,,,,,,,,,,,,,,,,,,,,,,,,,,,,,,,,,,return,2.998999834,,FALSE,,,,,,,161,ovella,Catalan,Sounds/cat_ovella.mp3,2020-06-09_18h22.59.733,TranslationElicitation_spa,3.2.4,Win32,60,5ede22045e3396035124cb6b,2.998999834,1,0,80,54,1,79
,,,,,,,,,,,,,,,,,,,,,,,,,,,,,,,,,,,,,,,,,,,,,161,ovella,Catalan,Sounds/cat_ovella.mp3,2020-06-09_18h22.59.733,TranslationElicitation_spa,3.2.4,Win32,60,5ede22045e3396035124cb6b,,1,0,80,54,1,79
,,,,,,,,,,,,,,,,,,,,,,,,,,,,,,,,,,,h,1.629999876,H,FALSE,,,,,,,135,formiga,Catalan,Sounds/cat_formiga.mp3,2020-06-09_18h22.59.733,TranslationElicitation_spa,3.2.4,Win32,60,5ede22045e3396035124cb6b,,1,0,80,30,1,79
,,,,,,,,,,,,,,,,,,,,,,,,,,,,,,,,,,,o,1.781999826,HO,FALSE,,,,,,,135,formiga,Catalan,Sounds/cat_formiga.mp3,2020-06-09_18h22.59.733,TranslationElicitation_spa,3.2.4,Win32,60,5ede22045e3396035124cb6b,,1,0,80,30,1,79
,,,,,,,,,,,,,,,,,,,,,,,,,,,,,,,,,,,r,1.96999979,HOR,FALSE,,,,,,,135,formiga,Catalan,Sounds/cat_formiga.mp3,2020-06-09_18h22.59.733,TranslationElicitation_spa,3.2.4,Win32,60,5ede22045e3396035124cb6b,,1,0,80,30,1,79
,,,,,,,,,,,,,,,,,,,,,,,,,,,,,,,,,,,m,2.156999826,HORM,FALSE,,,,,,,135,formiga,Catalan,Sounds/cat_formiga.mp3,2020-06-09_18h22.59.733,TranslationElicitation_spa,3.2.4,Win32,60,5ede22045e3396035124cb6b,,1,0,80,30,1,79
,,,,,,,,,,,,,,,,,,,,,,,,,,,,,,,,,,,i,2.273999929,HORMI,FALSE,,,,,,,135,formiga,Catalan,Sounds/cat_formiga.mp3,2020-06-09_18h22.59.733,TranslationElicitation_spa,3.2.4,Win32,60,5ede22045e3396035124cb6b,,1,0,80,30,1,79
,,,,,,,,,,,,,,,,,,,,,,,,,,,,,,,,,,,g,2.464999914,HORMIG,FALSE,,,,,,,135,formiga,Catalan,Sounds/cat_formiga.mp3,2020-06-09_18h22.59.733,TranslationElicitation_spa,3.2.4,Win32,60,5ede22045e3396035124cb6b,,1,0,80,30,1,79
,,,,,,,,,,,,,,,,,,,,,,,,,,,,,,,,,,,a,3.368999958,HORMIGA,FALSE,,,,,,,135,formiga,Catalan,Sounds/cat_formiga.mp3,2020-06-09_18h22.59.733,TranslationElicitation_spa,3.2.4,Win32,60,5ede22045e3396035124cb6b,,1,0,80,30,1,79
,,,,,,,,,,,,,,,,,,,,,,,,,,,,,,,,,,,return,3.807999849,,FALSE,,,,,,,135,formiga,Catalan,Sounds/cat_formiga.mp3,2020-06-09_18h22.59.733,TranslationElicitation_spa,3.2.4,Win32,60,5ede22045e3396035124cb6b,3.807999849,1,0,80,30,1,79
,,,,,,,,,,,,,,,,,,,,,,,,,,,,,,,,,,,,,,,,,,,,,135,formiga,Catalan,Sounds/cat_formiga.mp3,2020-06-09_18h22.59.733,TranslationElicitation_spa,3.2.4,Win32,60,5ede22045e3396035124cb6b,,1,0,80,30,1,79
,,,,,,,,,,,,,,,,,,,,,,,,,,,,,,,,,,,b,2.14199996,B,FALSE,,,,,,,112,bici,Catalan,Sounds/cat_bici.mp3,2020-06-09_18h22.59.733,TranslationElicitation_spa,3.2.4,Win32,60,5ede22045e3396035124cb6b,,1,0,80,7,1,79
,,,,,,,,,,,,,,,,,,,,,,,,,,,,,,,,,,,i,2.406000137,BI,FALSE,,,,,,,112,bici,Catalan,Sounds/cat_bici.mp3,2020-06-09_18h22.59.733,TranslationElicitation_spa,3.2.4,Win32,60,5ede22045e3396035124cb6b,,1,0,80,7,1,79
,,,,,,,,,,,,,,,,,,,,,,,,,,,,,,,,,,,c,2.595000029,BIC,FALSE,,,,,,,112,bici,Catalan,Sounds/cat_bici.mp3,2020-06-09_18h22.59.733,TranslationElicitation_spa,3.2.4,Win32,60,5ede22045e3396035124cb6b,,1,0,80,7,1,79
,,,,,,,,,,,,,,,,,,,,,,,,,,,,,,,,,,,i,2.710000038,BICI,FALSE,,,,,,,112,bici,Catalan,Sounds/cat_bici.mp3,2020-06-09_18h22.59.733,TranslationElicitation_spa,3.2.4,Win32,60,5ede22045e3396035124cb6b,,1,0,80,7,1,79
,,,,,,,,,,,,,,,,,,,,,,,,,,,,,,,,,,,return,3.388999939,,FALSE,,,,,,,112,bici,Catalan,Sounds/cat_bici.mp3,2020-06-09_18h22.59.733,TranslationElicitation_spa,3.2.4,Win32,60,5ede22045e3396035124cb6b,3.388999939,1,0,80,7,1,79
,,,,,,,,,,,,,,,,,,,,,,,,,,,,,,,,,,,,,,,,,,,,,112,bici,Catalan,Sounds/cat_bici.mp3,2020-06-09_18h22.59.733,TranslationElicitation_spa,3.2.4,Win32,60,5ede22045e3396035124cb6b,,1,0,80,7,1,79
,,,,,,,,,,,,,,,,,,,,,,,,,,,,,,,,,,,c,3.872000217,C,FALSE,,,,,,,136,forquilla,Catalan,Sounds/cat_forquilla.mp3,2020-06-09_18h22.59.733,TranslationElicitation_spa,3.2.4,Win32,60,5ede22045e3396035124cb6b,,1,0,80,31,1,79
,,,,,,,,,,,,,,,,,,,,,,,,,,,,,,,,,,,u,4.342000008,CU,FALSE,,,,,,,136,forquilla,Catalan,Sounds/cat_forquilla.mp3,2020-06-09_18h22.59.733,TranslationElicitation_spa,3.2.4,Win32,60,5ede22045e3396035124cb6b,,1,0,80,31,1,79
,,,,,,,,,,,,,,,,,,,,,,,,,,,,,,,,,,,c,4.895000219,CUC,FALSE,,,,,,,136,forquilla,Catalan,Sounds/cat_forquilla.mp3,2020-06-09_18h22.59.733,TranslationElicitation_spa,3.2.4,Win32,60,5ede22045e3396035124cb6b,,1,0,80,31,1,79
,,,,,,,,,,,,,,,,,,,,,,,,,,,,,,,,,,,h,5.095000029,CUCH,FALSE,,,,,,,136,forquilla,Catalan,Sounds/cat_forquilla.mp3,2020-06-09_18h22.59.733,TranslationElicitation_spa,3.2.4,Win32,60,5ede22045e3396035124cb6b,,1,0,80,31,1,79
,,,,,,,,,,,,,,,,,,,,,,,,,,,,,,,,,,,a,5.302000046,CUCHA,FALSE,,,,,,,136,forquilla,Catalan,Sounds/cat_forquilla.mp3,2020-06-09_18h22.59.733,TranslationElicitation_spa,3.2.4,Win32,60,5ede22045e3396035124cb6b,,1,0,80,31,1,79
,,,,,,,,,,,,,,,,,,,,,,,,,,,,,,,,,,,r,5.531000137,CUCHAR,FALSE,,,,,,,136,forquilla,Catalan,Sounds/cat_forquilla.mp3,2020-06-09_18h22.59.733,TranslationElicitation_spa,3.2.4,Win32,60,5ede22045e3396035124cb6b,,1,0,80,31,1,79
,,,,,,,,,,,,,,,,,,,,,,,,,,,,,,,,,,,i,5.763000011,CUCHARI,FALSE,,,,,,,136,forquilla,Catalan,Sounds/cat_forquilla.mp3,2020-06-09_18h22.59.733,TranslationElicitation_spa,3.2.4,Win32,60,5ede22045e3396035124cb6b,,1,0,80,31,1,79
,,,,,,,,,,,,,,,,,,,,,,,,,,,,,,,,,,,l,6.032000065,CUCHARIL,FALSE,,,,,,,136,forquilla,Catalan,Sounds/cat_forquilla.mp3,2020-06-09_18h22.59.733,TranslationElicitation_spa,3.2.4,Win32,60,5ede22045e3396035124cb6b,,1,0,80,31,1,79
,,,,,,,,,,,,,,,,,,,,,,,,,,,,,,,,,,,l,6.188000202,CUCHARILL,FALSE,,,,,,,136,forquilla,Catalan,Sounds/cat_forquilla.mp3,2020-06-09_18h22.59.733,TranslationElicitation_spa,3.2.4,Win32,60,5ede22045e3396035124cb6b,,1,0,80,31,1,79
,,,,,,,,,,,,,,,,,,,,,,,,,,,,,,,,,,,a,6.346000195,CUCHARILLA,FALSE,,,,,,,136,forquilla,Catalan,Sounds/cat_forquilla.mp3,2020-06-09_18h22.59.733,TranslationElicitation_spa,3.2.4,Win32,60,5ede22045e3396035124cb6b,,1,0,80,31,1,79
,,,,,,,,,,,,,,,,,,,,,,,,,,,,,,,,,,,return,7.524000168,,FALSE,,,,,,,136,forquilla,Catalan,Sounds/cat_forquilla.mp3,2020-06-09_18h22.59.733,TranslationElicitation_spa,3.2.4,Win32,60,5ede22045e3396035124cb6b,7.524000168,1,0,80,31,1,79
,,,,,,,,,,,,,,,,,,,,,,,,,,,,,,,,,,,,,,,,,,,,,136,forquilla,Catalan,Sounds/cat_forquilla.mp3,2020-06-09_18h22.59.733,TranslationElicitation_spa,3.2.4,Win32,60,5ede22045e3396035124cb6b,,1,0,80,31,1,79
,,,,,,,,,,,,,,,,,,,,,,,,,,,,,,,,,,,p,1.875,P,FALSE,,,,,,,164,patata,Catalan,Sounds/cat_patata.mp3,2020-06-09_18h22.59.733,TranslationElicitation_spa,3.2.4,Win32,60,5ede22045e3396035124cb6b,,1,0,80,57,1,79
,,,,,,,,,,,,,,,,,,,,,,,,,,,,,,,,,,,a,2.025000095,PA,FALSE,,,,,,,164,patata,Catalan,Sounds/cat_patata.mp3,2020-06-09_18h22.59.733,TranslationElicitation_spa,3.2.4,Win32,60,5ede22045e3396035124cb6b,,1,0,80,57,1,79
,,,,,,,,,,,,,,,,,,,,,,,,,,,,,,,,,,,t,2.446000099,PAT,FALSE,,,,,,,164,patata,Catalan,Sounds/cat_patata.mp3,2020-06-09_18h22.59.733,TranslationElicitation_spa,3.2.4,Win32,60,5ede22045e3396035124cb6b,,1,0,80,57,1,79
,,,,,,,,,,,,,,,,,,,,,,,,,,,,,,,,,,,a,2.674000025,PATA,FALSE,,,,,,,164,patata,Catalan,Sounds/cat_patata.mp3,2020-06-09_18h22.59.733,TranslationElicitation_spa,3.2.4,Win32,60,5ede22045e3396035124cb6b,,1,0,80,57,1,79
,,,,,,,,,,,,,,,,,,,,,,,,,,,,,,,,,,,t,2.976999998,PATAT,FALSE,,,,,,,164,patata,Catalan,Sounds/cat_patata.mp3,2020-06-09_18h22.59.733,TranslationElicitation_spa,3.2.4,Win32,60,5ede22045e3396035124cb6b,,1,0,80,57,1,79
,,,,,,,,,,,,,,,,,,,,,,,,,,,,,,,,,,,a,3.18200016,PATATA,FALSE,,,,,,,164,patata,Catalan,Sounds/cat_patata.mp3,2020-06-09_18h22.59.733,TranslationElicitation_spa,3.2.4,Win32,60,5ede22045e3396035124cb6b,,1,0,80,57,1,79
,,,,,,,,,,,,,,,,,,,,,,,,,,,,,,,,,,,return,3.802000046,,FALSE,,,,,,,164,patata,Catalan,Sounds/cat_patata.mp3,2020-06-09_18h22.59.733,TranslationElicitation_spa,3.2.4,Win32,60,5ede22045e3396035124cb6b,3.802000046,1,0,80,57,1,79
,,,,,,,,,,,,,,,,,,,,,,,,,,,,,,,,,,,,,,,,,,,,,164,patata,Catalan,Sounds/cat_patata.mp3,2020-06-09_18h22.59.733,TranslationElicitation_spa,3.2.4,Win32,60,5ede22045e3396035124cb6b,,1,0,80,57,1,79
,,,,,,,,,,,,,,,,,,,,,,,,,,,,,,,,,,,p,1.97300005,P,FALSE,,,,,,,153,mico,Catalan,Sounds/cat_mico.mp3,2020-06-09_18h22.59.733,TranslationElicitation_spa,3.2.4,Win32,60,5ede22045e3396035124cb6b,,1,0,80,47,1,79
,,,,,,,,,,,,,,,,,,,,,,,,,,,,,,,,,,,e,2.162000179,PE,FALSE,,,,,,,153,mico,Catalan,Sounds/cat_mico.mp3,2020-06-09_18h22.59.733,TranslationElicitation_spa,3.2.4,Win32,60,5ede22045e3396035124cb6b,,1,0,80,47,1,79
,,,,,,,,,,,,,,,,,,,,,,,,,,,,,,,,,,,q,2.390000105,PEQ,FALSE,,,,,,,153,mico,Catalan,Sounds/cat_mico.mp3,2020-06-09_18h22.59.733,TranslationElicitation_spa,3.2.4,Win32,60,5ede22045e3396035124cb6b,,1,0,80,47,1,79
,,,,,,,,,,,,,,,,,,,,,,,,,,,,,,,,,,,u,3.065999985,PEQU,FALSE,,,,,,,153,mico,Catalan,Sounds/cat_mico.mp3,2020-06-09_18h22.59.733,TranslationElicitation_spa,3.2.4,Win32,60,5ede22045e3396035124cb6b,,1,0,80,47,1,79
,,,,,,,,,,,,,,,,,,,,,,,,,,,,,,,,,,,e,3.25999999,PEQUE,FALSE,,,,,,,153,mico,Catalan,Sounds/cat_mico.mp3,2020-06-09_18h22.59.733,TranslationElicitation_spa,3.2.4,Win32,60,5ede22045e3396035124cb6b,,1,0,80,47,1,79
,,,,,,,,,,,,,,,,,,,,,,,,,,,,,,,,,,,semicolon,3.811000109,PEQUEÑ,FALSE,,,,,,,153,mico,Catalan,Sounds/cat_mico.mp3,2020-06-09_18h22.59.733,TranslationElicitation_spa,3.2.4,Win32,60,5ede22045e3396035124cb6b,,1,0,80,47,1,79
,,,,,,,,,,,,,,,,,,,,,,,,,,,,,,,,,,,o,4.032000065,PEQUEÑO,FALSE,,,,,,,153,mico,Catalan,Sounds/cat_mico.mp3,2020-06-09_18h22.59.733,TranslationElicitation_spa,3.2.4,Win32,60,5ede22045e3396035124cb6b,,1,0,80,47,1,79
,,,,,,,,,,,,,,,,,,,,,,,,,,,,,,,,,,,return,4.873000145,,FALSE,,,,,,,153,mico,Catalan,Sounds/cat_mico.mp3,2020-06-09_18h22.59.733,TranslationElicitation_spa,3.2.4,Win32,60,5ede22045e3396035124cb6b,4.873000145,1,0,80,47,1,79
,,,,,,,,,,,,,,,,,,,,,,,,,,,,,,,,,,,,,,,,,,,,,153,mico,Catalan,Sounds/cat_mico.mp3,2020-06-09_18h22.59.733,TranslationElicitation_spa,3.2.4,Win32,60,5ede22045e3396035124cb6b,,1,0,80,47,1,79
,,,,,,,,,,,,,,,,,,,,,,,,,,,,,,,,,,,s,4.088999987,S,FALSE,,,,,,,124,cirera,Catalan,Sounds/cat_cirera.mp3,2020-06-09_18h22.59.733,TranslationElicitation_spa,3.2.4,Win32,60,5ede22045e3396035124cb6b,,1,0,80,19,1,79
,,,,,,,,,,,,,,,,,,,,,,,,,,,,,,,,,,,i,4.277999878,SI,FALSE,,,,,,,124,cirera,Catalan,Sounds/cat_cirera.mp3,2020-06-09_18h22.59.733,TranslationElicitation_spa,3.2.4,Win32,60,5ede22045e3396035124cb6b,,1,0,80,19,1,79
,,,,,,,,,,,,,,,,,,,,,,,,,,,,,,,,,,,r,4.789000034,SIR,FALSE,,,,,,,124,cirera,Catalan,Sounds/cat_cirera.mp3,2020-06-09_18h22.59.733,TranslationElicitation_spa,3.2.4,Win32,60,5ede22045e3396035124cb6b,,1,0,80,19,1,79
,,,,,,,,,,,,,,,,,,,,,,,,,,,,,,,,,,,e,4.90199995,SIRE,FALSE,,,,,,,124,cirera,Catalan,Sounds/cat_cirera.mp3,2020-06-09_18h22.59.733,TranslationElicitation_spa,3.2.4,Win32,60,5ede22045e3396035124cb6b,,1,0,80,19,1,79
,,,,,,,,,,,,,,,,,,,,,,,,,,,,,,,,,,,n,5.167999983,SIREN,FALSE,,,,,,,124,cirera,Catalan,Sounds/cat_cirera.mp3,2020-06-09_18h22.59.733,TranslationElicitation_spa,3.2.4,Win32,60,5ede22045e3396035124cb6b,,1,0,80,19,1,79
,,,,,,,,,,,,,,,,,,,,,,,,,,,,,,,,,,,a,5.321000099,SIRENA,FALSE,,,,,,,124,cirera,Catalan,Sounds/cat_cirera.mp3,2020-06-09_18h22.59.733,TranslationElicitation_spa,3.2.4,Win32,60,5ede22045e3396035124cb6b,,1,0,80,19,1,79
,,,,,,,,,,,,,,,,,,,,,,,,,,,,,,,,,,,return,5.85800004,,FALSE,,,,,,,124,cirera,Catalan,Sounds/cat_cirera.mp3,2020-06-09_18h22.59.733,TranslationElicitation_spa,3.2.4,Win32,60,5ede22045e3396035124cb6b,5.856999874,1,0,80,19,1,79
,,,,,,,,,,,,,,,,,,,,,,,,,,,,,,,,,,,,,,,,,,,,,124,cirera,Catalan,Sounds/cat_cirera.mp3,2020-06-09_18h22.59.733,TranslationElicitation_spa,3.2.4,Win32,60,5ede22045e3396035124cb6b,,1,0,80,19,1,79
,,,,,,,,,,,,,,,,,,,,,,,,,,,,,,,,,,,g,5.22300005,G,FALSE,,,,,,,145,got,Catalan,Sounds/cat_got.mp3,2020-06-09_18h22.59.733,TranslationElicitation_spa,3.2.4,Win32,60,5ede22045e3396035124cb6b,,1,0,80,40,1,79
,,,,,,,,,,,,,,,,,,,,,,,,,,,,,,,,,,,o,5.445000172,GO,FALSE,,,,,,,145,got,Catalan,Sounds/cat_got.mp3,2020-06-09_18h22.59.733,TranslationElicitation_spa,3.2.4,Win32,60,5ede22045e3396035124cb6b,,1,0,80,40,1,79
,,,,,,,,,,,,,,,,,,,,,,,,,,,,,,,,,,,t,5.56400013,GOT,FALSE,,,,,,,145,got,Catalan,Sounds/cat_got.mp3,2020-06-09_18h22.59.733,TranslationElicitation_spa,3.2.4,Win32,60,5ede22045e3396035124cb6b,,1,0,80,40,1,79
,,,,,,,,,,,,,,,,,,,,,,,,,,,,,,,,,,,a,5.940999985,GOTA,FALSE,,,,,,,145,got,Catalan,Sounds/cat_got.mp3,2020-06-09_18h22.59.733,TranslationElicitation_spa,3.2.4,Win32,60,5ede22045e3396035124cb6b,,1,0,80,40,1,79
,,,,,,,,,,,,,,,,,,,,,,,,,,,,,,,,,,,return,6.20600009,,FALSE,,,,,,,145,got,Catalan,Sounds/cat_got.mp3,2020-06-09_18h22.59.733,TranslationElicitation_spa,3.2.4,Win32,60,5ede22045e3396035124cb6b,6.20600009,1,0,80,40,1,79
,,,,,,,,,,,,,,,,,,,,,,,,,,,,,,,,,,,,,,,,,,,,,145,got,Catalan,Sounds/cat_got.mp3,2020-06-09_18h22.59.733,TranslationElicitation_spa,3.2.4,Win32,60,5ede22045e3396035124cb6b,,1,0,80,40,1,79
,,,,,,,,,,,,,,,,,,,,,,,,,,,,,,,,,,,l,12.89299989,L,FALSE,,,,,,,148,lleo,Catalan,Sounds/cat_lleo.mp3,2020-06-09_18h22.59.733,TranslationElicitation_spa,3.2.4,Win32,60,5ede22045e3396035124cb6b,,1,0,80,42,1,79
,,,,,,,,,,,,,,,,,,,,,,,,,,,,,,,,,,,u,13.37999988,LU,FALSE,,,,,,,148,lleo,Catalan,Sounds/cat_lleo.mp3,2020-06-09_18h22.59.733,TranslationElicitation_spa,3.2.4,Win32,60,5ede22045e3396035124cb6b,,1,0,80,42,1,79
,,,,,,,,,,,,,,,,,,,,,,,,,,,,,,,,,,,g,13.60699987,LUG,FALSE,,,,,,,148,lleo,Catalan,Sounds/cat_lleo.mp3,2020-06-09_18h22.59.733,TranslationElicitation_spa,3.2.4,Win32,60,5ede22045e3396035124cb6b,,1,0,80,42,1,79
,,,,,,,,,,,,,,,,,,,,,,,,,,,,,,,,,,,a,14.26300001,LUGA,FALSE,,,,,,,148,lleo,Catalan,Sounds/cat_lleo.mp3,2020-06-09_18h22.59.733,TranslationElicitation_spa,3.2.4,Win32,60,5ede22045e3396035124cb6b,,1,0,80,42,1,79
,,,,,,,,,,,,,,,,,,,,,,,,,,,,,,,,,,,r,14.45799994,LUGAR,FALSE,,,,,,,148,lleo,Catalan,Sounds/cat_lleo.mp3,2020-06-09_18h22.59.733,TranslationElicitation_spa,3.2.4,Win32,60,5ede22045e3396035124cb6b,,1,0,80,42,1,79
,,,,,,,,,,,,,,,,,,,,,,,,,,,,,,,,,,,return,15.33299994,,FALSE,,,,,,,148,lleo,Catalan,Sounds/cat_lleo.mp3,2020-06-09_18h22.59.733,TranslationElicitation_spa,3.2.4,Win32,60,5ede22045e3396035124cb6b,15.33200002,1,0,80,42,1,79
,,,,,,,,,,,,,,,,,,,,,,,,,,,,,,,,,,,,,,,,,,,,,148,lleo,Catalan,Sounds/cat_lleo.mp3,2020-06-09_18h22.59.733,TranslationElicitation_spa,3.2.4,Win32,60,5ede22045e3396035124cb6b,,1,0,80,42,1,79
,,,,,,,,,,,,,,,,,,,,,,,,,,,,,,,,,,,t,2.284000158,T,FALSE,,,,,,,181,tobogan,Catalan,Sounds/cat_tobogan.mp3,2020-06-09_18h22.59.733,TranslationElicitation_spa,3.2.4,Win32,60,5ede22045e3396035124cb6b,,1,0,80,72,1,79
,,,,,,,,,,,,,,,,,,,,,,,,,,,,,,,,,,,o,2.586000204,TO,FALSE,,,,,,,181,tobogan,Catalan,Sounds/cat_tobogan.mp3,2020-06-09_18h22.59.733,TranslationElicitation_spa,3.2.4,Win32,60,5ede22045e3396035124cb6b,,1,0,80,72,1,79
,,,,,,,,,,,,,,,,,,,,,,,,,,,,,,,,,,,b,2.924000025,TOB,FALSE,,,,,,,181,tobogan,Catalan,Sounds/cat_tobogan.mp3,2020-06-09_18h22.59.733,TranslationElicitation_spa,3.2.4,Win32,60,5ede22045e3396035124cb6b,,1,0,80,72,1,79
,,,,,,,,,,,,,,,,,,,,,,,,,,,,,,,,,,,o,3.15500021,TOBO,FALSE,,,,,,,181,tobogan,Catalan,Sounds/cat_tobogan.mp3,2020-06-09_18h22.59.733,TranslationElicitation_spa,3.2.4,Win32,60,5ede22045e3396035124cb6b,,1,0,80,72,1,79
,,,,,,,,,,,,,,,,,,,,,,,,,,,,,,,,,,,g,3.372000217,TOBOG,FALSE,,,,,,,181,tobogan,Catalan,Sounds/cat_tobogan.mp3,2020-06-09_18h22.59.733,TranslationElicitation_spa,3.2.4,Win32,60,5ede22045e3396035124cb6b,,1,0,80,72,1,79
,,,,,,,,,,,,,,,,,,,,,,,,,,,,,,,,,,,apostrophe,3.811000109,TOBOG,FALSE,,,,,,,181,tobogan,Catalan,Sounds/cat_tobogan.mp3,2020-06-09_18h22.59.733,TranslationElicitation_spa,3.2.4,Win32,60,5ede22045e3396035124cb6b,,1,0,80,72,1,79
,,,,,,,,,,,,,,,,,,,,,,,,,,,,,,,,,,,a,3.988000154,TOBOGÁ,FALSE,,,,,,,181,tobogan,Catalan,Sounds/cat_tobogan.mp3,2020-06-09_18h22.59.733,TranslationElicitation_spa,3.2.4,Win32,60,5ede22045e3396035124cb6b,,1,0,80,72,1,79
,,,,,,,,,,,,,,,,,,,,,,,,,,,,,,,,,,,n,4.176000118,TOBOGÁN,FALSE,,,,,,,181,tobogan,Catalan,Sounds/cat_tobogan.mp3,2020-06-09_18h22.59.733,TranslationElicitation_spa,3.2.4,Win32,60,5ede22045e3396035124cb6b,,1,0,80,72,1,79
,,,,,,,,,,,,,,,,,,,,,,,,,,,,,,,,,,,return,4.851999998,,FALSE,,,,,,,181,tobogan,Catalan,Sounds/cat_tobogan.mp3,2020-06-09_18h22.59.733,TranslationElicitation_spa,3.2.4,Win32,60,5ede22045e3396035124cb6b,4.851999998,1,0,80,72,1,79
,,,,,,,,,,,,,,,,,,,,,,,,,,,,,,,,,,,,,,,,,,,,,181,tobogan,Catalan,Sounds/cat_tobogan.mp3,2020-06-09_18h22.59.733,TranslationElicitation_spa,3.2.4,Win32,60,5ede22045e3396035124cb6b,,1,0,80,72,1,79
,,,,,,,,,,,,,,,,,,,,,,,,,,,,,,,,,,,v,3.141000032,V,FALSE,,,,,,,116,bolquer,Catalan,Sounds/cat_bolquer.mp3,2020-06-09_18h22.59.733,TranslationElicitation_spa,3.2.4,Win32,60,5ede22045e3396035124cb6b,,1,0,80,11,1,79
,,,,,,,,,,,,,,,,,,,,,,,,,,,,,,,,,,,o,3.36500001,VO,FALSE,,,,,,,116,bolquer,Catalan,Sounds/cat_bolquer.mp3,2020-06-09_18h22.59.733,TranslationElicitation_spa,3.2.4,Win32,60,5ede22045e3396035124cb6b,,1,0,80,11,1,79
,,,,,,,,,,,,,,,,,,,,,,,,,,,,,,,,,,,l,3.592999935,VOL,FALSE,,,,,,,116,bolquer,Catalan,Sounds/cat_bolquer.mp3,2020-06-09_18h22.59.733,TranslationElicitation_spa,3.2.4,Win32,60,5ede22045e3396035124cb6b,,1,0,80,11,1,79
,,,,,,,,,,,,,,,,,,,,,,,,,,,,,,,,,,,v,3.752000093,VOLV,FALSE,,,,,,,116,bolquer,Catalan,Sounds/cat_bolquer.mp3,2020-06-09_18h22.59.733,TranslationElicitation_spa,3.2.4,Win32,60,5ede22045e3396035124cb6b,,1,0,80,11,1,79
,,,,,,,,,,,,,,,,,,,,,,,,,,,,,,,,,,,backspace,4.223999977,VO,TRUE,,,,,,,116,bolquer,Catalan,Sounds/cat_bolquer.mp3,2020-06-09_18h22.59.733,TranslationElicitation_spa,3.2.4,Win32,60,5ede22045e3396035124cb6b,,1,0,80,11,1,79
,,,,,,,,,,,,,,,,,,,,,,,,,,,,,,,,,,,c,4.805999994,VOC,TRUE,,,,,,,116,bolquer,Catalan,Sounds/cat_bolquer.mp3,2020-06-09_18h22.59.733,TranslationElicitation_spa,3.2.4,Win32,60,5ede22045e3396035124cb6b,,1,0,80,11,1,79
,,,,,,,,,,,,,,,,,,,,,,,,,,,,,,,,,,,backspace,5.897000074,V,TRUE,,,,,,,116,bolquer,Catalan,Sounds/cat_bolquer.mp3,2020-06-09_18h22.59.733,TranslationElicitation_spa,3.2.4,Win32,60,5ede22045e3396035124cb6b,,1,0,80,11,1,79
,,,,,,,,,,,,,,,,,,,,,,,,,,,,,,,,,,,o,6.881999969,VO,TRUE,,,,,,,116,bolquer,Catalan,Sounds/cat_bolquer.mp3,2020-06-09_18h22.59.733,TranslationElicitation_spa,3.2.4,Win32,60,5ede22045e3396035124cb6b,,1,0,80,11,1,79
,,,,,,,,,,,,,,,,,,,,,,,,,,,,,,,,,,,l,7.10800004,VOL,TRUE,,,,,,,116,bolquer,Catalan,Sounds/cat_bolquer.mp3,2020-06-09_18h22.59.733,TranslationElicitation_spa,3.2.4,Win32,60,5ede22045e3396035124cb6b,,1,0,80,11,1,79
,,,,,,,,,,,,,,,,,,,,,,,,,,,,,,,,,,,c,7.448999882,VOLC,TRUE,,,,,,,116,bolquer,Catalan,Sounds/cat_bolquer.mp3,2020-06-09_18h22.59.733,TranslationElicitation_spa,3.2.4,Win32,60,5ede22045e3396035124cb6b,,1,0,80,11,1,79
,,,,,,,,,,,,,,,,,,,,,,,,,,,,,,,,,,,apostrophe,8.411999941,VOLC,TRUE,,,,,,,116,bolquer,Catalan,Sounds/cat_bolquer.mp3,2020-06-09_18h22.59.733,TranslationElicitation_spa,3.2.4,Win32,60,5ede22045e3396035124cb6b,,1,0,80,11,1,79
,,,,,,,,,,,,,,,,,,,,,,,,,,,,,,,,,,,a,8.532000065,VOLCÁ,TRUE,,,,,,,116,bolquer,Catalan,Sounds/cat_bolquer.mp3,2020-06-09_18h22.59.733,TranslationElicitation_spa,3.2.4,Win32,60,5ede22045e3396035124cb6b,,1,0,80,11,1,79
,,,,,,,,,,,,,,,,,,,,,,,,,,,,,,,,,,,n,9.112999916,VOLCÁN,TRUE,,,,,,,116,bolquer,Catalan,Sounds/cat_bolquer.mp3,2020-06-09_18h22.59.733,TranslationElicitation_spa,3.2.4,Win32,60,5ede22045e3396035124cb6b,,1,0,80,11,1,79
,,,,,,,,,,,,,,,,,,,,,,,,,,,,,,,,,,,return,9.777999878,,TRUE,,,,,,,116,bolquer,Catalan,Sounds/cat_bolquer.mp3,2020-06-09_18h22.59.733,TranslationElicitation_spa,3.2.4,Win32,60,5ede22045e3396035124cb6b,9.777999878,1,0,80,11,1,79
,,,,,,,,,,,,,,,,,,,,,,,,,,,,,,,,,,,,,,,,,,,,,116,bolquer,Catalan,Sounds/cat_bolquer.mp3,2020-06-09_18h22.59.733,TranslationElicitation_spa,3.2.4,Win32,60,5ede22045e3396035124cb6b,,1,0,80,11,1,79
,,,,,,,,,,,,,,,,,,,,,,,,,,,,,,,,,,,b,1.74000001,B,FALSE,,,,,,,111,bibero,Catalan,Sounds/cat_bibero.mp3,2020-06-09_18h22.59.733,TranslationElicitation_spa,3.2.4,Win32,60,5ede22045e3396035124cb6b,,1,0,80,6,1,79
,,,,,,,,,,,,,,,,,,,,,,,,,,,,,,,,,,,i,1.892000198,BI,FALSE,,,,,,,111,bibero,Catalan,Sounds/cat_bibero.mp3,2020-06-09_18h22.59.733,TranslationElicitation_spa,3.2.4,Win32,60,5ede22045e3396035124cb6b,,1,0,80,6,1,79
,,,,,,,,,,,,,,,,,,,,,,,,,,,,,,,,,,,b,2.191000223,BIB,FALSE,,,,,,,111,bibero,Catalan,Sounds/cat_bibero.mp3,2020-06-09_18h22.59.733,TranslationElicitation_spa,3.2.4,Win32,60,5ede22045e3396035124cb6b,,1,0,80,6,1,79
,,,,,,,,,,,,,,,,,,,,,,,,,,,,,,,,,,,e,2.90500021,BIBE,FALSE,,,,,,,111,bibero,Catalan,Sounds/cat_bibero.mp3,2020-06-09_18h22.59.733,TranslationElicitation_spa,3.2.4,Win32,60,5ede22045e3396035124cb6b,,1,0,80,6,1,79
,,,,,,,,,,,,,,,,,,,,,,,,,,,,,,,,,,,r,3.055999994,BIBER,FALSE,,,,,,,111,bibero,Catalan,Sounds/cat_bibero.mp3,2020-06-09_18h22.59.733,TranslationElicitation_spa,3.2.4,Win32,60,5ede22045e3396035124cb6b,,1,0,80,6,1,79
,,,,,,,,,,,,,,,,,,,,,,,,,,,,,,,,,,,apostrophe,3.349000216,BIBER,FALSE,,,,,,,111,bibero,Catalan,Sounds/cat_bibero.mp3,2020-06-09_18h22.59.733,TranslationElicitation_spa,3.2.4,Win32,60,5ede22045e3396035124cb6b,,1,0,80,6,1,79
,,,,,,,,,,,,,,,,,,,,,,,,,,,,,,,,,,,o,3.632000208,BIBERÓ,FALSE,,,,,,,111,bibero,Catalan,Sounds/cat_bibero.mp3,2020-06-09_18h22.59.733,TranslationElicitation_spa,3.2.4,Win32,60,5ede22045e3396035124cb6b,,1,0,80,6,1,79
,,,,,,,,,,,,,,,,,,,,,,,,,,,,,,,,,,,n,3.825000048,BIBERÓN,FALSE,,,,,,,111,bibero,Catalan,Sounds/cat_bibero.mp3,2020-06-09_18h22.59.733,TranslationElicitation_spa,3.2.4,Win32,60,5ede22045e3396035124cb6b,,1,0,80,6,1,79
,,,,,,,,,,,,,,,,,,,,,,,,,,,,,,,,,,,return,4.367000103,,FALSE,,,,,,,111,bibero,Catalan,Sounds/cat_bibero.mp3,2020-06-09_18h22.59.733,TranslationElicitation_spa,3.2.4,Win32,60,5ede22045e3396035124cb6b,4.367000103,1,0,80,6,1,79
,,,,,,,,,,,,,,,,,,,,,,,,,,,,,,,,,,,,,,,,,,,,,111,bibero,Catalan,Sounds/cat_bibero.mp3,2020-06-09_18h22.59.733,TranslationElicitation_spa,3.2.4,Win32,60,5ede22045e3396035124cb6b,,1,0,80,6,1,79
,,,,,,,,,,,,,,,,,,,,,,,,,,,,,,,,,,,r,5.642000198,R,FALSE,,,,,,,110,berenar,Catalan,Sounds/cat_berenar.mp3,2020-06-09_18h22.59.733,TranslationElicitation_spa,3.2.4,Win32,60,5ede22045e3396035124cb6b,,1,0,80,5,1,79
,,,,,,,,,,,,,,,,,,,,,,,,,,,,,,,,,,,a,5.829000235,RA,FALSE,,,,,,,110,berenar,Catalan,Sounds/cat_berenar.mp3,2020-06-09_18h22.59.733,TranslationElicitation_spa,3.2.4,Win32,60,5ede22045e3396035124cb6b,,1,0,80,5,1,79
,,,,,,,,,,,,,,,,,,,,,,,,,,,,,,,,,,,n,6.119000196,RAN,FALSE,,,,,,,110,berenar,Catalan,Sounds/cat_berenar.mp3,2020-06-09_18h22.59.733,TranslationElicitation_spa,3.2.4,Win32,60,5ede22045e3396035124cb6b,,1,0,80,5,1,79
,,,,,,,,,,,,,,,,,,,,,,,,,,,,,,,,,,,a,6.288000107,RANA,FALSE,,,,,,,110,berenar,Catalan,Sounds/cat_berenar.mp3,2020-06-09_18h22.59.733,TranslationElicitation_spa,3.2.4,Win32,60,5ede22045e3396035124cb6b,,1,0,80,5,1,79
,,,,,,,,,,,,,,,,,,,,,,,,,,,,,,,,,,,return,6.976999998,,FALSE,,,,,,,110,berenar,Catalan,Sounds/cat_berenar.mp3,2020-06-09_18h22.59.733,TranslationElicitation_spa,3.2.4,Win32,60,5ede22045e3396035124cb6b,6.976999998,1,0,80,5,1,79
,,,,,,,,,,,,,,,,,,,,,,,,,,,,,,,,,,,,,,,,,,,,,110,berenar,Catalan,Sounds/cat_berenar.mp3,2020-06-09_18h22.59.733,TranslationElicitation_spa,3.2.4,Win32,60,5ede22045e3396035124cb6b,,1,0,80,5,1,79
,,,,,,,,,,,,,,,,,,,,,,,,,,,,,,,,,,,a,15.83899999,A,FALSE,,,,,,,118,bou,Catalan,Sounds/cat_bou.mp3,2020-06-09_18h22.59.733,TranslationElicitation_spa,3.2.4,Win32,60,5ede22045e3396035124cb6b,,1,0,80,13,1,79
,,,,,,,,,,,,,,,,,,,,,,,,,,,,,,,,,,,r,16.20299983,AR,FALSE,,,,,,,118,bou,Catalan,Sounds/cat_bou.mp3,2020-06-09_18h22.59.733,TranslationElicitation_spa,3.2.4,Win32,60,5ede22045e3396035124cb6b,,1,0,80,13,1,79
,,,,,,,,,,,,,,,,,,,,,,,,,,,,,,,,,,,c,16.46700001,ARC,FALSE,,,,,,,118,bou,Catalan,Sounds/cat_bou.mp3,2020-06-09_18h22.59.733,TranslationElicitation_spa,3.2.4,Win32,60,5ede22045e3396035124cb6b,,1,0,80,13,1,79
,,,,,,,,,,,,,,,,,,,,,,,,,,,,,,,,,,,o,16.62299991,ARCO,FALSE,,,,,,,118,bou,Catalan,Sounds/cat_bou.mp3,2020-06-09_18h22.59.733,TranslationElicitation_spa,3.2.4,Win32,60,5ede22045e3396035124cb6b,,1,0,80,13,1,79
,,,,,,,,,,,,,,,,,,,,,,,,,,,,,,,,,,,return,17.69199991,,FALSE,,,,,,,118,bou,Catalan,Sounds/cat_bou.mp3,2020-06-09_18h22.59.733,TranslationElicitation_spa,3.2.4,Win32,60,5ede22045e3396035124cb6b,17.69199991,1,0,80,13,1,79
,,,,,,,,,,,,,,,,,,,,,,,,,,,,,,,,,,,,,,,,,,,,,118,bou,Catalan,Sounds/cat_bou.mp3,2020-06-09_18h22.59.733,TranslationElicitation_spa,3.2.4,Win32,60,5ede22045e3396035124cb6b,,1,0,80,13,1,79
,,,,,,,,,,,,,,,,,,,,,,,,,,,,,,,,,,,c,2.457000017,C,FALSE,,,,,,,173,porc,Catalan,Sounds/cat_porc.mp3,2020-06-09_18h22.59.733,TranslationElicitation_spa,3.2.4,Win32,60,5ede22045e3396035124cb6b,,1,0,80,65,1,79
,,,,,,,,,,,,,,,,,,,,,,,,,,,,,,,,,,,e,2.681999922,CE,FALSE,,,,,,,173,porc,Catalan,Sounds/cat_porc.mp3,2020-06-09_18h22.59.733,TranslationElicitation_spa,3.2.4,Win32,60,5ede22045e3396035124cb6b,,1,0,80,65,1,79
,,,,,,,,,,,,,,,,,,,,,,,,,,,,,,,,,,,r,2.759000063,CER,FALSE,,,,,,,173,porc,Catalan,Sounds/cat_porc.mp3,2020-06-09_18h22.59.733,TranslationElicitation_spa,3.2.4,Win32,60,5ede22045e3396035124cb6b,,1,0,80,65,1,79
,,,,,,,,,,,,,,,,,,,,,,,,,,,,,,,,,,,c,2.99000001,CERC,FALSE,,,,,,,173,porc,Catalan,Sounds/cat_porc.mp3,2020-06-09_18h22.59.733,TranslationElicitation_spa,3.2.4,Win32,60,5ede22045e3396035124cb6b,,1,0,80,65,1,79
,,,,,,,,,,,,,,,,,,,,,,,,,,,,,,,,,,,backspace,3.713000059,CE,TRUE,,,,,,,173,porc,Catalan,Sounds/cat_porc.mp3,2020-06-09_18h22.59.733,TranslationElicitation_spa,3.2.4,Win32,60,5ede22045e3396035124cb6b,,1,0,80,65,1,79
,,,,,,,,,,,,,,,,,,,,,,,,,,,,,,,,,,,r,4.553999901,CER,TRUE,,,,,,,173,porc,Catalan,Sounds/cat_porc.mp3,2020-06-09_18h22.59.733,TranslationElicitation_spa,3.2.4,Win32,60,5ede22045e3396035124cb6b,,1,0,80,65,1,79
,,,,,,,,,,,,,,,,,,,,,,,,,,,,,,,,,,,d,4.923000097,CERD,TRUE,,,,,,,173,porc,Catalan,Sounds/cat_porc.mp3,2020-06-09_18h22.59.733,TranslationElicitation_spa,3.2.4,Win32,60,5ede22045e3396035124cb6b,,1,0,80,65,1,79
,,,,,,,,,,,,,,,,,,,,,,,,,,,,,,,,,,,o,5.082999945,CERDO,TRUE,,,,,,,173,porc,Catalan,Sounds/cat_porc.mp3,2020-06-09_18h22.59.733,TranslationElicitation_spa,3.2.4,Win32,60,5ede22045e3396035124cb6b,,1,0,80,65,1,79
,,,,,,,,,,,,,,,,,,,,,,,,,,,,,,,,,,,return,5.640000105,,TRUE,,,,,,,173,porc,Catalan,Sounds/cat_porc.mp3,2020-06-09_18h22.59.733,TranslationElicitation_spa,3.2.4,Win32,60,5ede22045e3396035124cb6b,5.640000105,1,0,80,65,1,79
,,,,,,,,,,,,,,,,,,,,,,,,,,,,,,,,,,,,,,,,,,,,,173,porc,Catalan,Sounds/cat_porc.mp3,2020-06-09_18h22.59.733,TranslationElicitation_spa,3.2.4,Win32,60,5ede22045e3396035124cb6b,,1,0,80,65,1,79
,,,,,,,,,,,,,,,,,,,,,,,,,,,,,,,,,,,l,11.31800008,L,FALSE,,,,,,,150,lloro,Catalan,Sounds/cat_lloro.mp3,2020-06-09_18h22.59.733,TranslationElicitation_spa,3.2.4,Win32,60,5ede22045e3396035124cb6b,,1,0,80,44,1,79
,,,,,,,,,,,,,,,,,,,,,,,,,,,,,,,,,,,l,11.4690001,LL,FALSE,,,,,,,150,lloro,Catalan,Sounds/cat_lloro.mp3,2020-06-09_18h22.59.733,TranslationElicitation_spa,3.2.4,Win32,60,5ede22045e3396035124cb6b,,1,0,80,44,1,79
,,,,,,,,,,,,,,,,,,,,,,,,,,,,,,,,,,,o,11.73200011,LLO,FALSE,,,,,,,150,lloro,Catalan,Sounds/cat_lloro.mp3,2020-06-09_18h22.59.733,TranslationElicitation_spa,3.2.4,Win32,60,5ede22045e3396035124cb6b,,1,0,80,44,1,79
,,,,,,,,,,,,,,,,,,,,,,,,,,,,,,,,,,,r,12.11100006,LLOR,FALSE,,,,,,,150,lloro,Catalan,Sounds/cat_lloro.mp3,2020-06-09_18h22.59.733,TranslationElicitation_spa,3.2.4,Win32,60,5ede22045e3396035124cb6b,,1,0,80,44,1,79
,,,,,,,,,,,,,,,,,,,,,,,,,,,,,,,,,,,o,12.30200005,LLORO,FALSE,,,,,,,150,lloro,Catalan,Sounds/cat_lloro.mp3,2020-06-09_18h22.59.733,TranslationElicitation_spa,3.2.4,Win32,60,5ede22045e3396035124cb6b,,1,0,80,44,1,79
,,,,,,,,,,,,,,,,,,,,,,,,,,,,,,,,,,,return,12.91700006,,FALSE,,,,,,,150,lloro,Catalan,Sounds/cat_lloro.mp3,2020-06-09_18h22.59.733,TranslationElicitation_spa,3.2.4,Win32,60,5ede22045e3396035124cb6b,12.91700006,1,0,80,44,1,79
,,,,,,,,,,,,,,,,,,,,,,,,,,,,,,,,,,,,,,,,,,,,,150,lloro,Catalan,Sounds/cat_lloro.mp3,2020-06-09_18h22.59.733,TranslationElicitation_spa,3.2.4,Win32,60,5ede22045e3396035124cb6b,,1,0,80,44,1,79
,,,,,,,,,,,,,,,,,,,,,,,,,,,,,,,,,,,e,1.434000015,E,FALSE,,,,,,,132,estrella,Catalan,Sounds/cat_estrella.mp3,2020-06-09_18h22.59.733,TranslationElicitation_spa,3.2.4,Win32,60,5ede22045e3396035124cb6b,,1,0,80,27,1,79
,,,,,,,,,,,,,,,,,,,,,,,,,,,,,,,,,,,s,1.657999992,ES,FALSE,,,,,,,132,estrella,Catalan,Sounds/cat_estrella.mp3,2020-06-09_18h22.59.733,TranslationElicitation_spa,3.2.4,Win32,60,5ede22045e3396035124cb6b,,1,0,80,27,1,79
,,,,,,,,,,,,,,,,,,,,,,,,,,,,,,,,,,,t,2.047999859,EST,FALSE,,,,,,,132,estrella,Catalan,Sounds/cat_estrella.mp3,2020-06-09_18h22.59.733,TranslationElicitation_spa,3.2.4,Win32,60,5ede22045e3396035124cb6b,,1,0,80,27,1,79
,,,,,,,,,,,,,,,,,,,,,,,,,,,,,,,,,,,r,2.086999893,ESTR,FALSE,,,,,,,132,estrella,Catalan,Sounds/cat_estrella.mp3,2020-06-09_18h22.59.733,TranslationElicitation_spa,3.2.4,Win32,60,5ede22045e3396035124cb6b,,1,0,80,27,1,79
,,,,,,,,,,,,,,,,,,,,,,,,,,,,,,,,,,,e,2.20299983,ESTRE,FALSE,,,,,,,132,estrella,Catalan,Sounds/cat_estrella.mp3,2020-06-09_18h22.59.733,TranslationElicitation_spa,3.2.4,Win32,60,5ede22045e3396035124cb6b,,1,0,80,27,1,79
,,,,,,,,,,,,,,,,,,,,,,,,,,,,,,,,,,,l,2.736999989,ESTREL,FALSE,,,,,,,132,estrella,Catalan,Sounds/cat_estrella.mp3,2020-06-09_18h22.59.733,TranslationElicitation_spa,3.2.4,Win32,60,5ede22045e3396035124cb6b,,1,0,80,27,1,79
,,,,,,,,,,,,,,,,,,,,,,,,,,,,,,,,,,,l,2.894999981,ESTRELL,FALSE,,,,,,,132,estrella,Catalan,Sounds/cat_estrella.mp3,2020-06-09_18h22.59.733,TranslationElicitation_spa,3.2.4,Win32,60,5ede22045e3396035124cb6b,,1,0,80,27,1,79
,,,,,,,,,,,,,,,,,,,,,,,,,,,,,,,,,,,a,3.051999807,ESTRELLA,FALSE,,,,,,,132,estrella,Catalan,Sounds/cat_estrella.mp3,2020-06-09_18h22.59.733,TranslationElicitation_spa,3.2.4,Win32,60,5ede22045e3396035124cb6b,,1,0,80,27,1,79
,,,,,,,,,,,,,,,,,,,,,,,,,,,,,,,,,,,return,3.689999819,,FALSE,,,,,,,132,estrella,Catalan,Sounds/cat_estrella.mp3,2020-06-09_18h22.59.733,TranslationElicitation_spa,3.2.4,Win32,60,5ede22045e3396035124cb6b,3.689999819,1,0,80,27,1,79
,,,,,,,,,,,,,,,,,,,,,,,,,,,,,,,,,,,,,,,,,,,,,132,estrella,Catalan,Sounds/cat_estrella.mp3,2020-06-09_18h22.59.733,TranslationElicitation_spa,3.2.4,Win32,60,5ede22045e3396035124cb6b,,1,0,80,27,1,79
,,,,,,,,,,,,,,,,,,,,,,,,,,,,,,,,,,,p,4.032999992,P,FALSE,,,,,,,162,pa,Catalan,Sounds/cat_pa.mp3,2020-06-09_18h22.59.733,TranslationElicitation_spa,3.2.4,Win32,60,5ede22045e3396035124cb6b,,1,0,80,55,1,79
,,,,,,,,,,,,,,,,,,,,,,,,,,,,,,,,,,,a,4.241000175,PA,FALSE,,,,,,,162,pa,Catalan,Sounds/cat_pa.mp3,2020-06-09_18h22.59.733,TranslationElicitation_spa,3.2.4,Win32,60,5ede22045e3396035124cb6b,,1,0,80,55,1,79
,,,,,,,,,,,,,,,,,,,,,,,,,,,,,,,,,,,z,4.476000071,PAZ,FALSE,,,,,,,162,pa,Catalan,Sounds/cat_pa.mp3,2020-06-09_18h22.59.733,TranslationElicitation_spa,3.2.4,Win32,60,5ede22045e3396035124cb6b,,1,0,80,55,1,79
,,,,,,,,,,,,,,,,,,,,,,,,,,,,,,,,,,,return,5.103000164,,FALSE,,,,,,,162,pa,Catalan,Sounds/cat_pa.mp3,2020-06-09_18h22.59.733,TranslationElicitation_spa,3.2.4,Win32,60,5ede22045e3396035124cb6b,5.103000164,1,0,80,55,1,79
,,,,,,,,,,,,,,,,,,,,,,,,,,,,,,,,,,,,,,,,,,,,,162,pa,Catalan,Sounds/cat_pa.mp3,2020-06-09_18h22.59.733,TranslationElicitation_spa,3.2.4,Win32,60,5ede22045e3396035124cb6b,,1,0,80,55,1,79
,,,,,,,,,,,,,,,,,,,,,,,,,,,,,,,,,,,a,1.599999905,A,FALSE,,,,,,,104,abella,Catalan,Sounds/cat_abella.mp3,2020-06-09_18h22.59.733,TranslationElicitation_spa,3.2.4,Win32,60,5ede22045e3396035124cb6b,,1,0,80,0,1,79
,,,,,,,,,,,,,,,,,,,,,,,,,,,,,,,,,,,b,1.828000069,AB,FALSE,,,,,,,104,abella,Catalan,Sounds/cat_abella.mp3,2020-06-09_18h22.59.733,TranslationElicitation_spa,3.2.4,Win32,60,5ede22045e3396035124cb6b,,1,0,80,0,1,79
,,,,,,,,,,,,,,,,,,,,,,,,,,,,,,,,,,,e,2.079999924,ABE,FALSE,,,,,,,104,abella,Catalan,Sounds/cat_abella.mp3,2020-06-09_18h22.59.733,TranslationElicitation_spa,3.2.4,Win32,60,5ede22045e3396035124cb6b,,1,0,80,0,1,79
,,,,,,,,,,,,,,,,,,,,,,,,,,,,,,,,,,,j,2.250999928,ABEJ,FALSE,,,,,,,104,abella,Catalan,Sounds/cat_abella.mp3,2020-06-09_18h22.59.733,TranslationElicitation_spa,3.2.4,Win32,60,5ede22045e3396035124cb6b,,1,0,80,0,1,79
,,,,,,,,,,,,,,,,,,,,,,,,,,,,,,,,,,,a,2.595000029,ABEJA,FALSE,,,,,,,104,abella,Catalan,Sounds/cat_abella.mp3,2020-06-09_18h22.59.733,TranslationElicitation_spa,3.2.4,Win32,60,5ede22045e3396035124cb6b,,1,0,80,0,1,79
,,,,,,,,,,,,,,,,,,,,,,,,,,,,,,,,,,,return,3.148999929,,FALSE,,,,,,,104,abella,Catalan,Sounds/cat_abella.mp3,2020-06-09_18h22.59.733,TranslationElicitation_spa,3.2.4,Win32,60,5ede22045e3396035124cb6b,3.148999929,1,0,80,0,1,79
,,,,,,,,,,,,,,,,,,,,,,,,,,,,,,,,,,,,,,,,,,,,,104,abella,Catalan,Sounds/cat_abella.mp3,2020-06-09_18h22.59.733,TranslationElicitation_spa,3.2.4,Win32,60,5ede22045e3396035124cb6b,,1,0,80,0,1,79
,,,,,,,,,,,,,,,,,,,,,,,,,,,,,,,,,,,t,1.735000134,T,FALSE,,,,,,,180,tisores,Catalan,Sounds/cat_tisores.mp3,2020-06-09_18h22.59.733,TranslationElicitation_spa,3.2.4,Win32,60,5ede22045e3396035124cb6b,,1,0,80,71,1,79
,,,,,,,,,,,,,,,,,,,,,,,,,,,,,,,,,,,i,1.884000063,TI,FALSE,,,,,,,180,tisores,Catalan,Sounds/cat_tisores.mp3,2020-06-09_18h22.59.733,TranslationElicitation_spa,3.2.4,Win32,60,5ede22045e3396035124cb6b,,1,0,80,71,1,79
,,,,,,,,,,,,,,,,,,,,,,,,,,,,,,,,,,,j,2.08100009,TIJ,FALSE,,,,,,,180,tisores,Catalan,Sounds/cat_tisores.mp3,2020-06-09_18h22.59.733,TranslationElicitation_spa,3.2.4,Win32,60,5ede22045e3396035124cb6b,,1,0,80,71,1,79
,,,,,,,,,,,,,,,,,,,,,,,,,,,,,,,,,,,e,2.236000061,TIJE,FALSE,,,,,,,180,tisores,Catalan,Sounds/cat_tisores.mp3,2020-06-09_18h22.59.733,TranslationElicitation_spa,3.2.4,Win32,60,5ede22045e3396035124cb6b,,1,0,80,71,1,79
,,,,,,,,,,,,,,,,,,,,,,,,,,,,,,,,,,,r,2.313000202,TIJER,FALSE,,,,,,,180,tisores,Catalan,Sounds/cat_tisores.mp3,2020-06-09_18h22.59.733,TranslationElicitation_spa,3.2.4,Win32,60,5ede22045e3396035124cb6b,,1,0,80,71,1,79
,,,,,,,,,,,,,,,,,,,,,,,,,,,,,,,,,,,a,2.661000013,TIJERA,FALSE,,,,,,,180,tisores,Catalan,Sounds/cat_tisores.mp3,2020-06-09_18h22.59.733,TranslationElicitation_spa,3.2.4,Win32,60,5ede22045e3396035124cb6b,,1,0,80,71,1,79
,,,,,,,,,,,,,,,,,,,,,,,,,,,,,,,,,,,s,2.738000154,TIJERAS,FALSE,,,,,,,180,tisores,Catalan,Sounds/cat_tisores.mp3,2020-06-09_18h22.59.733,TranslationElicitation_spa,3.2.4,Win32,60,5ede22045e3396035124cb6b,,1,0,80,71,1,79
,,,,,,,,,,,,,,,,,,,,,,,,,,,,,,,,,,,return,3.120000124,,FALSE,,,,,,,180,tisores,Catalan,Sounds/cat_tisores.mp3,2020-06-09_18h22.59.733,TranslationElicitation_spa,3.2.4,Win32,60,5ede22045e3396035124cb6b,3.119000196,1,0,80,71,1,79
,,,,,,,,,,,,,,,,,,,,,,,,,,,,,,,,,,,,,,,,,,,,,180,tisores,Catalan,Sounds/cat_tisores.mp3,2020-06-09_18h22.59.733,TranslationElicitation_spa,3.2.4,Win32,60,5ede22045e3396035124cb6b,,1,0,80,71,1,79
,,,,,,,,,,,,,,,,,,,,,,,,,,,,,,,,,,,c,1.613999844,C,FALSE,,,,,,,188,xocolata,Catalan,Sounds/cat_xocolata.mp3,2020-06-09_18h22.59.733,TranslationElicitation_spa,3.2.4,Win32,60,5ede22045e3396035124cb6b,,1,0,80,78,1,79
,,,,,,,,,,,,,,,,,,,,,,,,,,,,,,,,,,,h,1.911999941,CH,FALSE,,,,,,,188,xocolata,Catalan,Sounds/cat_xocolata.mp3,2020-06-09_18h22.59.733,TranslationElicitation_spa,3.2.4,Win32,60,5ede22045e3396035124cb6b,,1,0,80,78,1,79
,,,,,,,,,,,,,,,,,,,,,,,,,,,,,,,,,,,o,2.220999956,CHO,FALSE,,,,,,,188,xocolata,Catalan,Sounds/cat_xocolata.mp3,2020-06-09_18h22.59.733,TranslationElicitation_spa,3.2.4,Win32,60,5ede22045e3396035124cb6b,,1,0,80,78,1,79
,,,,,,,,,,,,,,,,,,,,,,,,,,,,,,,,,,,c,2.45299983,CHOC,FALSE,,,,,,,188,xocolata,Catalan,Sounds/cat_xocolata.mp3,2020-06-09_18h22.59.733,TranslationElicitation_spa,3.2.4,Win32,60,5ede22045e3396035124cb6b,,1,0,80,78,1,79
,,,,,,,,,,,,,,,,,,,,,,,,,,,,,,,,,,,o,2.56799984,CHOCO,FALSE,,,,,,,188,xocolata,Catalan,Sounds/cat_xocolata.mp3,2020-06-09_18h22.59.733,TranslationElicitation_spa,3.2.4,Win32,60,5ede22045e3396035124cb6b,,1,0,80,78,1,79
,,,,,,,,,,,,,,,,,,,,,,,,,,,,,,,,,,,l,2.833999872,CHOCOL,FALSE,,,,,,,188,xocolata,Catalan,Sounds/cat_xocolata.mp3,2020-06-09_18h22.59.733,TranslationElicitation_spa,3.2.4,Win32,60,5ede22045e3396035124cb6b,,1,0,80,78,1,79
,,,,,,,,,,,,,,,,,,,,,,,,,,,,,,,,,,,a,2.949999809,CHOCOLA,FALSE,,,,,,,188,xocolata,Catalan,Sounds/cat_xocolata.mp3,2020-06-09_18h22.59.733,TranslationElicitation_spa,3.2.4,Win32,60,5ede22045e3396035124cb6b,,1,0,80,78,1,79
,,,,,,,,,,,,,,,,,,,,,,,,,,,,,,,,,,,t,3.179999828,CHOCOLAT,FALSE,,,,,,,188,xocolata,Catalan,Sounds/cat_xocolata.mp3,2020-06-09_18h22.59.733,TranslationElicitation_spa,3.2.4,Win32,60,5ede22045e3396035124cb6b,,1,0,80,78,1,79
,,,,,,,,,,,,,,,,,,,,,,,,,,,,,,,,,,,e,3.432999849,CHOCOLATE,FALSE,,,,,,,188,xocolata,Catalan,Sounds/cat_xocolata.mp3,2020-06-09_18h22.59.733,TranslationElicitation_spa,3.2.4,Win32,60,5ede22045e3396035124cb6b,,1,0,80,78,1,79
,,,,,,,,,,,,,,,,,,,,,,,,,,,,,,,,,,,return,4.06799984,,FALSE,,,,,,,188,xocolata,Catalan,Sounds/cat_xocolata.mp3,2020-06-09_18h22.59.733,TranslationElicitation_spa,3.2.4,Win32,60,5ede22045e3396035124cb6b,4.06799984,1,0,80,78,1,79
,,,,,,,,,,,,,,,,,,,,,,,,,,,,,,,,,,,,,,,,,,,,,188,xocolata,Catalan,Sounds/cat_xocolata.mp3,2020-06-09_18h22.59.733,TranslationElicitation_spa,3.2.4,Win32,60,5ede22045e3396035124cb6b,,1,0,80,78,1,79
,,,,,,,,,,,,,,,,,,,,,,,,,,,,,,,,,,,c,1.644000053,C,FALSE,,,,,,,126,corona,Catalan,Sounds/cat_corona.mp3,2020-06-09_18h22.59.733,TranslationElicitation_spa,3.2.4,Win32,60,5ede22045e3396035124cb6b,,1,0,80,21,1,79
,,,,,,,,,,,,,,,,,,,,,,,,,,,,,,,,,,,o,1.832000017,CO,FALSE,,,,,,,126,corona,Catalan,Sounds/cat_corona.mp3,2020-06-09_18h22.59.733,TranslationElicitation_spa,3.2.4,Win32,60,5ede22045e3396035124cb6b,,1,0,80,21,1,79
,,,,,,,,,,,,,,,,,,,,,,,,,,,,,,,,,,,r,1.957999945,COR,FALSE,,,,,,,126,corona,Catalan,Sounds/cat_corona.mp3,2020-06-09_18h22.59.733,TranslationElicitation_spa,3.2.4,Win32,60,5ede22045e3396035124cb6b,,1,0,80,21,1,79
,,,,,,,,,,,,,,,,,,,,,,,,,,,,,,,,,,,o,2.072000027,CORO,FALSE,,,,,,,126,corona,Catalan,Sounds/cat_corona.mp3,2020-06-09_18h22.59.733,TranslationElicitation_spa,3.2.4,Win32,60,5ede22045e3396035124cb6b,,1,0,80,21,1,79
,,,,,,,,,,,,,,,,,,,,,,,,,,,,,,,,,,,n,2.335999966,CORON,FALSE,,,,,,,126,corona,Catalan,Sounds/cat_corona.mp3,2020-06-09_18h22.59.733,TranslationElicitation_spa,3.2.4,Win32,60,5ede22045e3396035124cb6b,,1,0,80,21,1,79
,,,,,,,,,,,,,,,,,,,,,,,,,,,,,,,,,,,a,2.526000023,CORONA,FALSE,,,,,,,126,corona,Catalan,Sounds/cat_corona.mp3,2020-06-09_18h22.59.733,TranslationElicitation_spa,3.2.4,Win32,60,5ede22045e3396035124cb6b,,1,0,80,21,1,79
,,,,,,,,,,,,,,,,,,,,,,,,,,,,,,,,,,,return,2.864000082,,FALSE,,,,,,,126,corona,Catalan,Sounds/cat_corona.mp3,2020-06-09_18h22.59.733,TranslationElicitation_spa,3.2.4,Win32,60,5ede22045e3396035124cb6b,2.864000082,1,0,80,21,1,79
,,,,,,,,,,,,,,,,,,,,,,,,,,,,,,,,,,,,,,,,,,,,,126,corona,Catalan,Sounds/cat_corona.mp3,2020-06-09_18h22.59.733,TranslationElicitation_spa,3.2.4,Win32,60,5ede22045e3396035124cb6b,,1,0,80,21,1,79
,,,,,,,,,,,,,,,,,,,,,,,,,,,,,,,,,,,c,11.11100006,C,FALSE,,,,,,,176,samarreta,Catalan,Sounds/cat_samarreta.mp3,2020-06-09_18h22.59.733,TranslationElicitation_spa,3.2.4,Win32,60,5ede22045e3396035124cb6b,,1,0,80,68,1,79
,,,,,,,,,,,,,,,,,,,,,,,,,,,,,,,,,,,r,11.41900015,CR,FALSE,,,,,,,176,samarreta,Catalan,Sounds/cat_samarreta.mp3,2020-06-09_18h22.59.733,TranslationElicitation_spa,3.2.4,Win32,60,5ede22045e3396035124cb6b,,1,0,80,68,1,79
,,,,,,,,,,,,,,,,,,,,,,,,,,,,,,,,,,,e,11.49699998,CRE,FALSE,,,,,,,176,samarreta,Catalan,Sounds/cat_samarreta.mp3,2020-06-09_18h22.59.733,TranslationElicitation_spa,3.2.4,Win32,60,5ede22045e3396035124cb6b,,1,0,80,68,1,79
,,,,,,,,,,,,,,,,,,,,,,,,,,,,,,,,,,,m,11.68400002,CREM,FALSE,,,,,,,176,samarreta,Catalan,Sounds/cat_samarreta.mp3,2020-06-09_18h22.59.733,TranslationElicitation_spa,3.2.4,Win32,60,5ede22045e3396035124cb6b,,1,0,80,68,1,79
,,,,,,,,,,,,,,,,,,,,,,,,,,,,,,,,,,,a,11.84100008,CREMA,FALSE,,,,,,,176,samarreta,Catalan,Sounds/cat_samarreta.mp3,2020-06-09_18h22.59.733,TranslationElicitation_spa,3.2.4,Win32,60,5ede22045e3396035124cb6b,,1,0,80,68,1,79
,,,,,,,,,,,,,,,,,,,,,,,,,,,,,,,,,,,l,12.10899997,CREMAL,FALSE,,,,,,,176,samarreta,Catalan,Sounds/cat_samarreta.mp3,2020-06-09_18h22.59.733,TranslationElicitation_spa,3.2.4,Win32,60,5ede22045e3396035124cb6b,,1,0,80,68,1,79
,,,,,,,,,,,,,,,,,,,,,,,,,,,,,,,,,,,l,12.29999995,CREMALL,FALSE,,,,,,,176,samarreta,Catalan,Sounds/cat_samarreta.mp3,2020-06-09_18h22.59.733,TranslationElicitation_spa,3.2.4,Win32,60,5ede22045e3396035124cb6b,,1,0,80,68,1,79
,,,,,,,,,,,,,,,,,,,,,,,,,,,,,,,,,,,e,12.41400003,CREMALLE,FALSE,,,,,,,176,samarreta,Catalan,Sounds/cat_samarreta.mp3,2020-06-09_18h22.59.733,TranslationElicitation_spa,3.2.4,Win32,60,5ede22045e3396035124cb6b,,1,0,80,68,1,79
,,,,,,,,,,,,,,,,,,,,,,,,,,,,,,,,,,,r,12.49099994,CREMALLER,FALSE,,,,,,,176,samarreta,Catalan,Sounds/cat_samarreta.mp3,2020-06-09_18h22.59.733,TranslationElicitation_spa,3.2.4,Win32,60,5ede22045e3396035124cb6b,,1,0,80,68,1,79
,,,,,,,,,,,,,,,,,,,,,,,,,,,,,,,,,,,a,12.77600002,CREMALLERA,FALSE,,,,,,,176,samarreta,Catalan,Sounds/cat_samarreta.mp3,2020-06-09_18h22.59.733,TranslationElicitation_spa,3.2.4,Win32,60,5ede22045e3396035124cb6b,,1,0,80,68,1,79
,,,,,,,,,,,,,,,,,,,,,,,,,,,,,,,,,,,return,13.13700008,,FALSE,,,,,,,176,samarreta,Catalan,Sounds/cat_samarreta.mp3,2020-06-09_18h22.59.733,TranslationElicitation_spa,3.2.4,Win32,60,5ede22045e3396035124cb6b,13.13700008,1,0,80,68,1,79
,,,,,,,,,,,,,,,,,,,,,,,,,,,,,,,,,,,,,,,,,,,,,176,samarreta,Catalan,Sounds/cat_samarreta.mp3,2020-06-09_18h22.59.733,TranslationElicitation_spa,3.2.4,Win32,60,5ede22045e3396035124cb6b,,1,0,80,68,1,79
,,,,,,,,,,,,,,,,,,,,,,,,,,,,,,,,,,,c,2.806999922,C,FALSE,,,,,,,178,taronja,Catalan,Sounds/cat_taronja.mp3,2020-06-09_18h22.59.733,TranslationElicitation_spa,3.2.4,Win32,60,5ede22045e3396035124cb6b,,1,0,80,70,1,79
,,,,,,,,,,,,,,,,,,,,,,,,,,,,,,,,,,,i,3.069999933,CI,FALSE,,,,,,,178,taronja,Catalan,Sounds/cat_taronja.mp3,2020-06-09_18h22.59.733,TranslationElicitation_spa,3.2.4,Win32,60,5ede22045e3396035124cb6b,,1,0,80,70,1,79
,,,,,,,,,,,,,,,,,,,,,,,,,,,,,,,,,,,e,3.233999968,CIE,FALSE,,,,,,,178,taronja,Catalan,Sounds/cat_taronja.mp3,2020-06-09_18h22.59.733,TranslationElicitation_spa,3.2.4,Win32,60,5ede22045e3396035124cb6b,,1,0,80,70,1,79
,,,,,,,,,,,,,,,,,,,,,,,,,,,,,,,,,,,r,3.447000027,CIER,FALSE,,,,,,,178,taronja,Catalan,Sounds/cat_taronja.mp3,2020-06-09_18h22.59.733,TranslationElicitation_spa,3.2.4,Win32,60,5ede22045e3396035124cb6b,,1,0,80,70,1,79
,,,,,,,,,,,,,,,,,,,,,,,,,,,,,,,,,,,r,3.580999851,CIERR,FALSE,,,,,,,178,taronja,Catalan,Sounds/cat_taronja.mp3,2020-06-09_18h22.59.733,TranslationElicitation_spa,3.2.4,Win32,60,5ede22045e3396035124cb6b,,1,0,80,70,1,79
,,,,,,,,,,,,,,,,,,,,,,,,,,,,,,,,,,,backspace,4.898000002,CIE,TRUE,,,,,,,178,taronja,Catalan,Sounds/cat_taronja.mp3,2020-06-09_18h22.59.733,TranslationElicitation_spa,3.2.4,Win32,60,5ede22045e3396035124cb6b,,1,0,80,70,1,79
,,,,,,,,,,,,,,,,,,,,,,,,,,,,,,,,,,,backspace,7.092999935,C,TRUE,,,,,,,178,taronja,Catalan,Sounds/cat_taronja.mp3,2020-06-09_18h22.59.733,TranslationElicitation_spa,3.2.4,Win32,60,5ede22045e3396035124cb6b,,1,0,80,70,1,79
,,,,,,,,,,,,,,,,,,,,,,,,,,,,,,,,,,,backspace,7.430999994,,TRUE,,,,,,,178,taronja,Catalan,Sounds/cat_taronja.mp3,2020-06-09_18h22.59.733,TranslationElicitation_spa,3.2.4,Win32,60,5ede22045e3396035124cb6b,,1,0,80,70,1,79
,,,,,,,,,,,,,,,,,,,,,,,,,,,,,,,,,,,r,19.33699989,R,TRUE,,,,,,,178,taronja,Catalan,Sounds/cat_taronja.mp3,2020-06-09_18h22.59.733,TranslationElicitation_spa,3.2.4,Win32,60,5ede22045e3396035124cb6b,,1,0,80,70,1,79
,,,,,,,,,,,,,,,,,,,,,,,,,,,,,,,,,,,a,19.67299986,RA,TRUE,,,,,,,178,taronja,Catalan,Sounds/cat_taronja.mp3,2020-06-09_18h22.59.733,TranslationElicitation_spa,3.2.4,Win32,60,5ede22045e3396035124cb6b,,1,0,80,70,1,79
,,,,,,,,,,,,,,,,,,,,,,,,,,,,,,,,,,,m,19.86399984,RAM,TRUE,,,,,,,178,taronja,Catalan,Sounds/cat_taronja.mp3,2020-06-09_18h22.59.733,TranslationElicitation_spa,3.2.4,Win32,60,5ede22045e3396035124cb6b,,1,0,80,70,1,79
,,,,,,,,,,,,,,,,,,,,,,,,,,,,,,,,,,,a,19.98099995,RAMA,TRUE,,,,,,,178,taronja,Catalan,Sounds/cat_taronja.mp3,2020-06-09_18h22.59.733,TranslationElicitation_spa,3.2.4,Win32,60,5ede22045e3396035124cb6b,,1,0,80,70,1,79
,,,,,,,,,,,,,,,,,,,,,,,,,,,,,,,,,,,return,20.55200005,,TRUE,,,,,,,178,taronja,Catalan,Sounds/cat_taronja.mp3,2020-06-09_18h22.59.733,TranslationElicitation_spa,3.2.4,Win32,60,5ede22045e3396035124cb6b,20.55200005,1,0,80,70,1,79
,,,,,,,,,,,,,,,,,,,,,,,,,,,,,,,,,,,,,,,,,,,,,178,taronja,Catalan,Sounds/cat_taronja.mp3,2020-06-09_18h22.59.733,TranslationElicitation_spa,3.2.4,Win32,60,5ede22045e3396035124cb6b,,1,0,80,70,1,79
,,,,,,,,,,,,,,,,,,,,,,,,,,,,,,,,,,,p,26.4460001,P,FALSE,,,,,,,163,papallona,Catalan,Sounds/cat_papallona.mp3,2020-06-09_18h22.59.733,TranslationElicitation_spa,3.2.4,Win32,60,5ede22045e3396035124cb6b,,1,0,80,56,1,79
,,,,,,,,,,,,,,,,,,,,,,,,,,,,,,,,,,,a,26.63800001,PA,FALSE,,,,,,,163,papallona,Catalan,Sounds/cat_papallona.mp3,2020-06-09_18h22.59.733,TranslationElicitation_spa,3.2.4,Win32,60,5ede22045e3396035124cb6b,,1,0,80,56,1,79
,,,,,,,,,,,,,,,,,,,,,,,,,,,,,,,,,,,l,26.79200006,PAL,FALSE,,,,,,,163,papallona,Catalan,Sounds/cat_papallona.mp3,2020-06-09_18h22.59.733,TranslationElicitation_spa,3.2.4,Win32,60,5ede22045e3396035124cb6b,,1,0,80,56,1,79
,,,,,,,,,,,,,,,,,,,,,,,,,,,,,,,,,,,o,26.98600006,PALO,FALSE,,,,,,,163,papallona,Catalan,Sounds/cat_papallona.mp3,2020-06-09_18h22.59.733,TranslationElicitation_spa,3.2.4,Win32,60,5ede22045e3396035124cb6b,,1,0,80,56,1,79
