consentKey.keys,consentKey.rt,languageL1Key.keys,languageL1Key.rt,languageL2,languageL2OralKey.keys,languageL2OralKey.rt,languageL2WrittenKey.keys,languageL2WrittenKey.rt,languageL3OralKey.keys,languageL3OralKey.rt,languageL3WrittenKey.keys,languageL3WrittenKey.rt,languageCatalanOralKey.keys,languageCatalanOralKey.rt,languageCatalanWrittenKey.keys,languageCatalanWrittenKey.rt,languageCatalanTimeKey.keys,languageCatalanTimeKey.rt,age,demoSexKey.keys,demoSexKey.rt,demoEducationKey.keys,demoEducationKey.rt,city,demoVisionKey.keys,demoVisionKey.rt,demoLanguageKey.keys,demoLanguageKey.rt,setupLocationKey.keys,setupLocationKey.rt,setupNoiseKey.keys,setupNoiseKey.rt,instructionsKeys.keys,instructionsKeys.rt,keyPressed,keyPressTime,inputText,error,trials_practice.thisRepN,trials_practice.thisTrialN,trials_practice.thisN,trials_practice.thisIndex,trials_practice.ran,trials_practice.order,trial_id,word,test_language,soundfile,date,expName,psychopyVersion,OS,frameRate,participant,trialOffset,trials.thisRepN,trials.thisTrialN,trials.thisN,trials.thisIndex,trials.ran,trials.order
space,1.00999999,e,1.698999882,,4,10.74499989,4,6.305999994,,,,,2,12.4749999,1,4.619999886,1,4.647999763,22,m,2.075999737,4,8.279999971,CIEZA,n,15.625,n,3.559999943,1,5.349999905,1,14.58599997,space,49.28299999,a,3.044999838,A,FALSE,1,0,5,0,1,4,109,arbre,Catalan,Sounds/cat_arbre.mp3,2020-06-28_17h35.08.619,TranslationElicitation_spa,3.2.4,Win32,60,5ede1a11281b7602eb5cf5ea,,,,,,,
,,,,,,,,,,,,,,,,,,,,,,,,,,,,,,,,,,,b,3.244999886,AB,FALSE,1,0,5,0,1,4,109,arbre,Catalan,Sounds/cat_arbre.mp3,2020-06-28_17h35.08.619,TranslationElicitation_spa,3.2.4,Win32,60,5ede1a11281b7602eb5cf5ea,,,,,,,
,,,,,,,,,,,,,,,,,,,,,,,,,,,,,,,,,,,r,3.54399991,ABR,FALSE,1,0,5,0,1,4,109,arbre,Catalan,Sounds/cat_arbre.mp3,2020-06-28_17h35.08.619,TranslationElicitation_spa,3.2.4,Win32,60,5ede1a11281b7602eb5cf5ea,,,,,,,
,,,,,,,,,,,,,,,,,,,,,,,,,,,,,,,,,,,a,4.148000002,ABRA,FALSE,1,0,5,0,1,4,109,arbre,Catalan,Sounds/cat_arbre.mp3,2020-06-28_17h35.08.619,TranslationElicitation_spa,3.2.4,Win32,60,5ede1a11281b7602eb5cf5ea,,,,,,,
,,,,,,,,,,,,,,,,,,,,,,,,,,,,,,,,,,,return,4.514999866,,FALSE,1,0,5,0,1,4,109,arbre,Catalan,Sounds/cat_arbre.mp3,2020-06-28_17h35.08.619,TranslationElicitation_spa,3.2.4,Win32,60,5ede1a11281b7602eb5cf5ea,4.514999866,,,,,,
,,,,,,,,,,,,,,,,,,,,,,,,,,,,,,,,,,,,,,,1,0,5,0,1,4,109,arbre,Catalan,Sounds/cat_arbre.mp3,2020-06-28_17h35.08.619,TranslationElicitation_spa,3.2.4,Win32,60,5ede1a11281b7602eb5cf5ea,,,,,,,
,,,,,,,,,,,,,,,,,,,,,,,,,,,,,,,,,,,c,2.200999975,C,FALSE,1,0,5,1,1,4,147,jaqueta,Catalan,Sounds/cat_jaqueta.mp3,2020-06-28_17h35.08.619,TranslationElicitation_spa,3.2.4,Win32,60,5ede1a11281b7602eb5cf5ea,,,,,,,
,,,,,,,,,,,,,,,,,,,,,,,,,,,,,,,,,,,h,2.320000172,CH,FALSE,1,0,5,1,1,4,147,jaqueta,Catalan,Sounds/cat_jaqueta.mp3,2020-06-28_17h35.08.619,TranslationElicitation_spa,3.2.4,Win32,60,5ede1a11281b7602eb5cf5ea,,,,,,,
,,,,,,,,,,,,,,,,,,,,,,,,,,,,,,,,,,,a,2.585000038,CHA,FALSE,1,0,5,1,1,4,147,jaqueta,Catalan,Sounds/cat_jaqueta.mp3,2020-06-28_17h35.08.619,TranslationElicitation_spa,3.2.4,Win32,60,5ede1a11281b7602eb5cf5ea,,,,,,,
,,,,,,,,,,,,,,,,,,,,,,,,,,,,,,,,,,,q,2.853000164,CHAQ,FALSE,1,0,5,1,1,4,147,jaqueta,Catalan,Sounds/cat_jaqueta.mp3,2020-06-28_17h35.08.619,TranslationElicitation_spa,3.2.4,Win32,60,5ede1a11281b7602eb5cf5ea,,,,,,,
,,,,,,,,,,,,,,,,,,,,,,,,,,,,,,,,,,,u,3.059000015,CHAQU,FALSE,1,0,5,1,1,4,147,jaqueta,Catalan,Sounds/cat_jaqueta.mp3,2020-06-28_17h35.08.619,TranslationElicitation_spa,3.2.4,Win32,60,5ede1a11281b7602eb5cf5ea,,,,,,,
,,,,,,,,,,,,,,,,,,,,,,,,,,,,,,,,,,,e,3.203000069,CHAQUE,FALSE,1,0,5,1,1,4,147,jaqueta,Catalan,Sounds/cat_jaqueta.mp3,2020-06-28_17h35.08.619,TranslationElicitation_spa,3.2.4,Win32,60,5ede1a11281b7602eb5cf5ea,,,,,,,
,,,,,,,,,,,,,,,,,,,,,,,,,,,,,,,,,,,t,3.368000031,CHAQUET,FALSE,1,0,5,1,1,4,147,jaqueta,Catalan,Sounds/cat_jaqueta.mp3,2020-06-28_17h35.08.619,TranslationElicitation_spa,3.2.4,Win32,60,5ede1a11281b7602eb5cf5ea,,,,,,,
,,,,,,,,,,,,,,,,,,,,,,,,,,,,,,,,,,,a,3.555000067,CHAQUETA,FALSE,1,0,5,1,1,4,147,jaqueta,Catalan,Sounds/cat_jaqueta.mp3,2020-06-28_17h35.08.619,TranslationElicitation_spa,3.2.4,Win32,60,5ede1a11281b7602eb5cf5ea,,,,,,,
,,,,,,,,,,,,,,,,,,,,,,,,,,,,,,,,,,,return,3.943000078,,FALSE,1,0,5,1,1,4,147,jaqueta,Catalan,Sounds/cat_jaqueta.mp3,2020-06-28_17h35.08.619,TranslationElicitation_spa,3.2.4,Win32,60,5ede1a11281b7602eb5cf5ea,3.943000078,,,,,,
,,,,,,,,,,,,,,,,,,,,,,,,,,,,,,,,,,,,,,,1,0,5,1,1,4,147,jaqueta,Catalan,Sounds/cat_jaqueta.mp3,2020-06-28_17h35.08.619,TranslationElicitation_spa,3.2.4,Win32,60,5ede1a11281b7602eb5cf5ea,,,,,,,
,,,,,,,,,,,,,,,,,,,,,,,,,,,,,,,,,,,p,2.145999908,P,FALSE,1,0,5,3,1,4,167,pingui,Catalan,Sounds/cat_pingui.mp3,2020-06-28_17h35.08.619,TranslationElicitation_spa,3.2.4,Win32,60,5ede1a11281b7602eb5cf5ea,,,,,,,
,,,,,,,,,,,,,,,,,,,,,,,,,,,,,,,,,,,i,2.491999865,PI,FALSE,1,0,5,3,1,4,167,pingui,Catalan,Sounds/cat_pingui.mp3,2020-06-28_17h35.08.619,TranslationElicitation_spa,3.2.4,Win32,60,5ede1a11281b7602eb5cf5ea,,,,,,,
,,,,,,,,,,,,,,,,,,,,,,,,,,,,,,,,,,,n,2.769999981,PIN,FALSE,1,0,5,3,1,4,167,pingui,Catalan,Sounds/cat_pingui.mp3,2020-06-28_17h35.08.619,TranslationElicitation_spa,3.2.4,Win32,60,5ede1a11281b7602eb5cf5ea,,,,,,,
,,,,,,,,,,,,,,,,,,,,,,,,,,,,,,,,,,,g,3.092999935,PING,FALSE,1,0,5,3,1,4,167,pingui,Catalan,Sounds/cat_pingui.mp3,2020-06-28_17h35.08.619,TranslationElicitation_spa,3.2.4,Win32,60,5ede1a11281b7602eb5cf5ea,,,,,,,
,,,,,,,,,,,,,,,,,,,,,,,,,,,,,,,,,,,u,3.352999926,PINGU,FALSE,1,0,5,3,1,4,167,pingui,Catalan,Sounds/cat_pingui.mp3,2020-06-28_17h35.08.619,TranslationElicitation_spa,3.2.4,Win32,60,5ede1a11281b7602eb5cf5ea,,,,,,,
,,,,,,,,,,,,,,,,,,,,,,,,,,,,,,,,,,,i,3.561999798,PINGUI,FALSE,1,0,5,3,1,4,167,pingui,Catalan,Sounds/cat_pingui.mp3,2020-06-28_17h35.08.619,TranslationElicitation_spa,3.2.4,Win32,60,5ede1a11281b7602eb5cf5ea,,,,,,,
,,,,,,,,,,,,,,,,,,,,,,,,,,,,,,,,,,,n,3.832999945,PINGUIN,FALSE,1,0,5,3,1,4,167,pingui,Catalan,Sounds/cat_pingui.mp3,2020-06-28_17h35.08.619,TranslationElicitation_spa,3.2.4,Win32,60,5ede1a11281b7602eb5cf5ea,,,,,,,
,,,,,,,,,,,,,,,,,,,,,,,,,,,,,,,,,,,o,4.25,PINGUINO,FALSE,1,0,5,3,1,4,167,pingui,Catalan,Sounds/cat_pingui.mp3,2020-06-28_17h35.08.619,TranslationElicitation_spa,3.2.4,Win32,60,5ede1a11281b7602eb5cf5ea,,,,,,,
,,,,,,,,,,,,,,,,,,,,,,,,,,,,,,,,,,,return,4.65899992,,FALSE,1,0,5,3,1,4,167,pingui,Catalan,Sounds/cat_pingui.mp3,2020-06-28_17h35.08.619,TranslationElicitation_spa,3.2.4,Win32,60,5ede1a11281b7602eb5cf5ea,4.657999992,,,,,,
,,,,,,,,,,,,,,,,,,,,,,,,,,,,,,,,,,,,,,,1,0,5,3,1,4,167,pingui,Catalan,Sounds/cat_pingui.mp3,2020-06-28_17h35.08.619,TranslationElicitation_spa,3.2.4,Win32,60,5ede1a11281b7602eb5cf5ea,,,,,,,
,,,,,,,,,,,,,,,,,,,,,,,,,,,,,,,,,,,l,1.973999977,L,FALSE,1,0,5,4,1,4,179,tigre,Catalan,Sounds/cat_tigre.mp3,2020-06-28_17h35.08.619,TranslationElicitation_spa,3.2.4,Win32,60,5ede1a11281b7602eb5cf5ea,,,,,,,
,,,,,,,,,,,,,,,,,,,,,,,,,,,,,,,,,,,i,2.210999966,LI,FALSE,1,0,5,4,1,4,179,tigre,Catalan,Sounds/cat_tigre.mp3,2020-06-28_17h35.08.619,TranslationElicitation_spa,3.2.4,Win32,60,5ede1a11281b7602eb5cf5ea,,,,,,,
,,,,,,,,,,,,,,,,,,,,,,,,,,,,,,,,,,,b,2.539999962,LIB,FALSE,1,0,5,4,1,4,179,tigre,Catalan,Sounds/cat_tigre.mp3,2020-06-28_17h35.08.619,TranslationElicitation_spa,3.2.4,Win32,60,5ede1a11281b7602eb5cf5ea,,,,,,,
,,,,,,,,,,,,,,,,,,,,,,,,,,,,,,,,,,,r,2.829999924,LIBR,FALSE,1,0,5,4,1,4,179,tigre,Catalan,Sounds/cat_tigre.mp3,2020-06-28_17h35.08.619,TranslationElicitation_spa,3.2.4,Win32,60,5ede1a11281b7602eb5cf5ea,,,,,,,
,,,,,,,,,,,,,,,,,,,,,,,,,,,,,,,,,,,a,3.144999981,LIBRA,FALSE,1,0,5,4,1,4,179,tigre,Catalan,Sounds/cat_tigre.mp3,2020-06-28_17h35.08.619,TranslationElicitation_spa,3.2.4,Win32,60,5ede1a11281b7602eb5cf5ea,,,,,,,
,,,,,,,,,,,,,,,,,,,,,,,,,,,,,,,,,,,return,3.637000084,,FALSE,1,0,5,4,1,4,179,tigre,Catalan,Sounds/cat_tigre.mp3,2020-06-28_17h35.08.619,TranslationElicitation_spa,3.2.4,Win32,60,5ede1a11281b7602eb5cf5ea,3.637000084,,,,,,
,,,,,,,,,,,,,,,,,,,,,,,,,,,,,,,,,,,,,,,1,0,5,4,1,4,179,tigre,Catalan,Sounds/cat_tigre.mp3,2020-06-28_17h35.08.619,TranslationElicitation_spa,3.2.4,Win32,60,5ede1a11281b7602eb5cf5ea,,,,,,,
,,,,,,,,,,,,,,,,,,,,,,,,,,,,,,,,,,,p,3.207000017,P,FALSE,1,0,5,2,1,4,159,onada,Catalan,Sounds/cat_onada.mp3,2020-06-28_17h35.08.619,TranslationElicitation_spa,3.2.4,Win32,60,5ede1a11281b7602eb5cf5ea,,,,,,,
,,,,,,,,,,,,,,,,,,,,,,,,,,,,,,,,,,,e,3.379999876,PE,FALSE,1,0,5,2,1,4,159,onada,Catalan,Sounds/cat_onada.mp3,2020-06-28_17h35.08.619,TranslationElicitation_spa,3.2.4,Win32,60,5ede1a11281b7602eb5cf5ea,,,,,,,
,,,,,,,,,,,,,,,,,,,,,,,,,,,,,,,,,,,t,3.568000078,PET,FALSE,1,0,5,2,1,4,159,onada,Catalan,Sounds/cat_onada.mp3,2020-06-28_17h35.08.619,TranslationElicitation_spa,3.2.4,Win32,60,5ede1a11281b7602eb5cf5ea,,,,,,,
,,,,,,,,,,,,,,,,,,,,,,,,,,,,,,,,,,,a,3.742000103,PETA,FALSE,1,0,5,2,1,4,159,onada,Catalan,Sounds/cat_onada.mp3,2020-06-28_17h35.08.619,TranslationElicitation_spa,3.2.4,Win32,60,5ede1a11281b7602eb5cf5ea,,,,,,,
,,,,,,,,,,,,,,,,,,,,,,,,,,,,,,,,,,,n,4.188999891,PETAN,FALSE,1,0,5,2,1,4,159,onada,Catalan,Sounds/cat_onada.mp3,2020-06-28_17h35.08.619,TranslationElicitation_spa,3.2.4,Win32,60,5ede1a11281b7602eb5cf5ea,,,,,,,
,,,,,,,,,,,,,,,,,,,,,,,,,,,,,,,,,,,c,4.523999929,PETANC,FALSE,1,0,5,2,1,4,159,onada,Catalan,Sounds/cat_onada.mp3,2020-06-28_17h35.08.619,TranslationElicitation_spa,3.2.4,Win32,60,5ede1a11281b7602eb5cf5ea,,,,,,,
,,,,,,,,,,,,,,,,,,,,,,,,,,,,,,,,,,,a,5.108999968,PETANCA,FALSE,1,0,5,2,1,4,159,onada,Catalan,Sounds/cat_onada.mp3,2020-06-28_17h35.08.619,TranslationElicitation_spa,3.2.4,Win32,60,5ede1a11281b7602eb5cf5ea,,,,,,,
,,,,,,,,,,,,,,,,,,,,,,,,,,,,,,,,,,,return,5.467000008,,FALSE,1,0,5,2,1,4,159,onada,Catalan,Sounds/cat_onada.mp3,2020-06-28_17h35.08.619,TranslationElicitation_spa,3.2.4,Win32,60,5ede1a11281b7602eb5cf5ea,5.467000008,,,,,,
,,,,,,,,,,,,,,,,,,,,,,,,,,,,,,,,,,,,,,,1,0,5,2,1,4,159,onada,Catalan,Sounds/cat_onada.mp3,2020-06-28_17h35.08.619,TranslationElicitation_spa,3.2.4,Win32,60,5ede1a11281b7602eb5cf5ea,,,,,,,
,,,,,,,,,,,,,,,,,,,,,,,,,,,,,,,,,,,d,2.368999958,D,FALSE,,,,,,,129,dit,Catalan,Sounds/cat_dit.mp3,2020-06-28_17h35.08.619,TranslationElicitation_spa,3.2.4,Win32,60,5ede1a11281b7602eb5cf5ea,,1,0,80,24,1,79
,,,,,,,,,,,,,,,,,,,,,,,,,,,,,,,,,,,i,2.534999847,DI,FALSE,,,,,,,129,dit,Catalan,Sounds/cat_dit.mp3,2020-06-28_17h35.08.619,TranslationElicitation_spa,3.2.4,Win32,60,5ede1a11281b7602eb5cf5ea,,1,0,80,24,1,79
,,,,,,,,,,,,,,,,,,,,,,,,,,,,,,,,,,,return,3.320999861,,FALSE,,,,,,,129,dit,Catalan,Sounds/cat_dit.mp3,2020-06-28_17h35.08.619,TranslationElicitation_spa,3.2.4,Win32,60,5ede1a11281b7602eb5cf5ea,3.319999933,1,0,80,24,1,79
,,,,,,,,,,,,,,,,,,,,,,,,,,,,,,,,,,,,,,,,,,,,,129,dit,Catalan,Sounds/cat_dit.mp3,2020-06-28_17h35.08.619,TranslationElicitation_spa,3.2.4,Win32,60,5ede1a11281b7602eb5cf5ea,,1,0,80,24,1,79
,,,,,,,,,,,,,,,,,,,,,,,,,,,,,,,,,,,l,1.587000132,L,FALSE,,,,,,,151,lluna,Catalan,Sounds/cat_lluna.mp3,2020-06-28_17h35.08.619,TranslationElicitation_spa,3.2.4,Win32,60,5ede1a11281b7602eb5cf5ea,,1,0,80,45,1,79
,,,,,,,,,,,,,,,,,,,,,,,,,,,,,,,,,,,u,1.911999941,LU,FALSE,,,,,,,151,lluna,Catalan,Sounds/cat_lluna.mp3,2020-06-28_17h35.08.619,TranslationElicitation_spa,3.2.4,Win32,60,5ede1a11281b7602eb5cf5ea,,1,0,80,45,1,79
,,,,,,,,,,,,,,,,,,,,,,,,,,,,,,,,,,,n,2.133000135,LUN,FALSE,,,,,,,151,lluna,Catalan,Sounds/cat_lluna.mp3,2020-06-28_17h35.08.619,TranslationElicitation_spa,3.2.4,Win32,60,5ede1a11281b7602eb5cf5ea,,1,0,80,45,1,79
,,,,,,,,,,,,,,,,,,,,,,,,,,,,,,,,,,,a,2.417999983,LUNA,FALSE,,,,,,,151,lluna,Catalan,Sounds/cat_lluna.mp3,2020-06-28_17h35.08.619,TranslationElicitation_spa,3.2.4,Win32,60,5ede1a11281b7602eb5cf5ea,,1,0,80,45,1,79
,,,,,,,,,,,,,,,,,,,,,,,,,,,,,,,,,,,return,2.983999968,,FALSE,,,,,,,151,lluna,Catalan,Sounds/cat_lluna.mp3,2020-06-28_17h35.08.619,TranslationElicitation_spa,3.2.4,Win32,60,5ede1a11281b7602eb5cf5ea,2.98300004,1,0,80,45,1,79
,,,,,,,,,,,,,,,,,,,,,,,,,,,,,,,,,,,,,,,,,,,,,151,lluna,Catalan,Sounds/cat_lluna.mp3,2020-06-28_17h35.08.619,TranslationElicitation_spa,3.2.4,Win32,60,5ede1a11281b7602eb5cf5ea,,1,0,80,45,1,79
,,,,,,,,,,,,,,,,,,,,,,,,,,,,,,,,,,,c,3.197000027,C,FALSE,,,,,,,128,cuc,Catalan,Sounds/cat_cuc.mp3,2020-06-28_17h35.08.619,TranslationElicitation_spa,3.2.4,Win32,60,5ede1a11281b7602eb5cf5ea,,1,0,80,23,1,79
,,,,,,,,,,,,,,,,,,,,,,,,,,,,,,,,,,,o,4.412999868,CO,FALSE,,,,,,,128,cuc,Catalan,Sounds/cat_cuc.mp3,2020-06-28_17h35.08.619,TranslationElicitation_spa,3.2.4,Win32,60,5ede1a11281b7602eb5cf5ea,,1,0,80,23,1,79
,,,,,,,,,,,,,,,,,,,,,,,,,,,,,,,,,,,c,4.63499999,COC,FALSE,,,,,,,128,cuc,Catalan,Sounds/cat_cuc.mp3,2020-06-28_17h35.08.619,TranslationElicitation_spa,3.2.4,Win32,60,5ede1a11281b7602eb5cf5ea,,1,0,80,23,1,79
,,,,,,,,,,,,,,,,,,,,,,,,,,,,,,,,,,,i,4.799000025,COCI,FALSE,,,,,,,128,cuc,Catalan,Sounds/cat_cuc.mp3,2020-06-28_17h35.08.619,TranslationElicitation_spa,3.2.4,Win32,60,5ede1a11281b7602eb5cf5ea,,1,0,80,23,1,79
,,,,,,,,,,,,,,,,,,,,,,,,,,,,,,,,,,,n,4.960000038,COCIN,FALSE,,,,,,,128,cuc,Catalan,Sounds/cat_cuc.mp3,2020-06-28_17h35.08.619,TranslationElicitation_spa,3.2.4,Win32,60,5ede1a11281b7602eb5cf5ea,,1,0,80,23,1,79
,,,,,,,,,,,,,,,,,,,,,,,,,,,,,,,,,,,a,5.119999886,COCINA,FALSE,,,,,,,128,cuc,Catalan,Sounds/cat_cuc.mp3,2020-06-28_17h35.08.619,TranslationElicitation_spa,3.2.4,Win32,60,5ede1a11281b7602eb5cf5ea,,1,0,80,23,1,79
,,,,,,,,,,,,,,,,,,,,,,,,,,,,,,,,,,,r,5.447999954,COCINAR,FALSE,,,,,,,128,cuc,Catalan,Sounds/cat_cuc.mp3,2020-06-28_17h35.08.619,TranslationElicitation_spa,3.2.4,Win32,60,5ede1a11281b7602eb5cf5ea,,1,0,80,23,1,79
,,,,,,,,,,,,,,,,,,,,,,,,,,,,,,,,,,,return,5.78399992,,FALSE,,,,,,,128,cuc,Catalan,Sounds/cat_cuc.mp3,2020-06-28_17h35.08.619,TranslationElicitation_spa,3.2.4,Win32,60,5ede1a11281b7602eb5cf5ea,5.78399992,1,0,80,23,1,79
,,,,,,,,,,,,,,,,,,,,,,,,,,,,,,,,,,,,,,,,,,,,,128,cuc,Catalan,Sounds/cat_cuc.mp3,2020-06-28_17h35.08.619,TranslationElicitation_spa,3.2.4,Win32,60,5ede1a11281b7602eb5cf5ea,,1,0,80,23,1,79
,,,,,,,,,,,,,,,,,,,,,,,,,,,,,,,,,,,t,1.907000065,T,FALSE,,,,,,,183,tren,Catalan,Sounds/cat_tren.mp3,2020-06-28_17h35.08.619,TranslationElicitation_spa,3.2.4,Win32,60,5ede1a11281b7602eb5cf5ea,,1,0,80,74,1,79
,,,,,,,,,,,,,,,,,,,,,,,,,,,,,,,,,,,r,2.128000021,TR,FALSE,,,,,,,183,tren,Catalan,Sounds/cat_tren.mp3,2020-06-28_17h35.08.619,TranslationElicitation_spa,3.2.4,Win32,60,5ede1a11281b7602eb5cf5ea,,1,0,80,74,1,79
,,,,,,,,,,,,,,,,,,,,,,,,,,,,,,,,,,,e,2.358999968,TRE,FALSE,,,,,,,183,tren,Catalan,Sounds/cat_tren.mp3,2020-06-28_17h35.08.619,TranslationElicitation_spa,3.2.4,Win32,60,5ede1a11281b7602eb5cf5ea,,1,0,80,74,1,79
,,,,,,,,,,,,,,,,,,,,,,,,,,,,,,,,,,,n,2.566999912,TREN,FALSE,,,,,,,183,tren,Catalan,Sounds/cat_tren.mp3,2020-06-28_17h35.08.619,TranslationElicitation_spa,3.2.4,Win32,60,5ede1a11281b7602eb5cf5ea,,1,0,80,74,1,79
,,,,,,,,,,,,,,,,,,,,,,,,,,,,,,,,,,,return,3.398999929,,FALSE,,,,,,,183,tren,Catalan,Sounds/cat_tren.mp3,2020-06-28_17h35.08.619,TranslationElicitation_spa,3.2.4,Win32,60,5ede1a11281b7602eb5cf5ea,3.398999929,1,0,80,74,1,79
,,,,,,,,,,,,,,,,,,,,,,,,,,,,,,,,,,,,,,,,,,,,,183,tren,Catalan,Sounds/cat_tren.mp3,2020-06-28_17h35.08.619,TranslationElicitation_spa,3.2.4,Win32,60,5ede1a11281b7602eb5cf5ea,,1,0,80,74,1,79
,,,,,,,,,,,,,,,,,,,,,,,,,,,,,,,,,,,c,2.223999977,C,FALSE,,,,,,,161,ovella,Catalan,Sounds/cat_ovella.mp3,2020-06-28_17h35.08.619,TranslationElicitation_spa,3.2.4,Win32,60,5ede1a11281b7602eb5cf5ea,,1,0,80,54,1,79
,,,,,,,,,,,,,,,,,,,,,,,,,,,,,,,,,,,i,2.400000095,CI,FALSE,,,,,,,161,ovella,Catalan,Sounds/cat_ovella.mp3,2020-06-28_17h35.08.619,TranslationElicitation_spa,3.2.4,Win32,60,5ede1a11281b7602eb5cf5ea,,1,0,80,54,1,79
,,,,,,,,,,,,,,,,,,,,,,,,,,,,,,,,,,,g,2.736999989,CIG,FALSE,,,,,,,161,ovella,Catalan,Sounds/cat_ovella.mp3,2020-06-28_17h35.08.619,TranslationElicitation_spa,3.2.4,Win32,60,5ede1a11281b7602eb5cf5ea,,1,0,80,54,1,79
,,,,,,,,,,,,,,,,,,,,,,,,,,,,,,,,,,,u,3.036000013,CIGU,FALSE,,,,,,,161,ovella,Catalan,Sounds/cat_ovella.mp3,2020-06-28_17h35.08.619,TranslationElicitation_spa,3.2.4,Win32,60,5ede1a11281b7602eb5cf5ea,,1,0,80,54,1,79
,,,,,,,,,,,,,,,,,,,,,,,,,,,,,,,,,,,e,3.294000149,CIGUE,FALSE,,,,,,,161,ovella,Catalan,Sounds/cat_ovella.mp3,2020-06-28_17h35.08.619,TranslationElicitation_spa,3.2.4,Win32,60,5ede1a11281b7602eb5cf5ea,,1,0,80,54,1,79
,,,,,,,,,,,,,,,,,,,,,,,,,,,,,,,,,,,semicolon,3.978000164,CIGUEÑ,FALSE,,,,,,,161,ovella,Catalan,Sounds/cat_ovella.mp3,2020-06-28_17h35.08.619,TranslationElicitation_spa,3.2.4,Win32,60,5ede1a11281b7602eb5cf5ea,,1,0,80,54,1,79
,,,,,,,,,,,,,,,,,,,,,,,,,,,,,,,,,,,a,4.157999992,CIGUEÑA,FALSE,,,,,,,161,ovella,Catalan,Sounds/cat_ovella.mp3,2020-06-28_17h35.08.619,TranslationElicitation_spa,3.2.4,Win32,60,5ede1a11281b7602eb5cf5ea,,1,0,80,54,1,79
,,,,,,,,,,,,,,,,,,,,,,,,,,,,,,,,,,,return,5.008000135,,FALSE,,,,,,,161,ovella,Catalan,Sounds/cat_ovella.mp3,2020-06-28_17h35.08.619,TranslationElicitation_spa,3.2.4,Win32,60,5ede1a11281b7602eb5cf5ea,5.008000135,1,0,80,54,1,79
,,,,,,,,,,,,,,,,,,,,,,,,,,,,,,,,,,,,,,,,,,,,,161,ovella,Catalan,Sounds/cat_ovella.mp3,2020-06-28_17h35.08.619,TranslationElicitation_spa,3.2.4,Win32,60,5ede1a11281b7602eb5cf5ea,,1,0,80,54,1,79
,,,,,,,,,,,,,,,,,,,,,,,,,,,,,,,,,,,l,2.852999926,L,FALSE,,,,,,,149,llibre,Catalan,Sounds/cat_llibre.mp3,2020-06-28_17h35.08.619,TranslationElicitation_spa,3.2.4,Win32,60,5ede1a11281b7602eb5cf5ea,,1,0,80,43,1,79
,,,,,,,,,,,,,,,,,,,,,,,,,,,,,,,,,,,i,3.096999884,LI,FALSE,,,,,,,149,llibre,Catalan,Sounds/cat_llibre.mp3,2020-06-28_17h35.08.619,TranslationElicitation_spa,3.2.4,Win32,60,5ede1a11281b7602eb5cf5ea,,1,0,80,43,1,79
,,,,,,,,,,,,,,,,,,,,,,,,,,,,,,,,,,,b,3.39199996,LIB,FALSE,,,,,,,149,llibre,Catalan,Sounds/cat_llibre.mp3,2020-06-28_17h35.08.619,TranslationElicitation_spa,3.2.4,Win32,60,5ede1a11281b7602eb5cf5ea,,1,0,80,43,1,79
,,,,,,,,,,,,,,,,,,,,,,,,,,,,,,,,,,,r,3.66899991,LIBR,FALSE,,,,,,,149,llibre,Catalan,Sounds/cat_llibre.mp3,2020-06-28_17h35.08.619,TranslationElicitation_spa,3.2.4,Win32,60,5ede1a11281b7602eb5cf5ea,,1,0,80,43,1,79
,,,,,,,,,,,,,,,,,,,,,,,,,,,,,,,,,,,a,3.913999796,LIBRA,FALSE,,,,,,,149,llibre,Catalan,Sounds/cat_llibre.mp3,2020-06-28_17h35.08.619,TranslationElicitation_spa,3.2.4,Win32,60,5ede1a11281b7602eb5cf5ea,,1,0,80,43,1,79
,,,,,,,,,,,,,,,,,,,,,,,,,,,,,,,,,,,return,4.401000023,,FALSE,,,,,,,149,llibre,Catalan,Sounds/cat_llibre.mp3,2020-06-28_17h35.08.619,TranslationElicitation_spa,3.2.4,Win32,60,5ede1a11281b7602eb5cf5ea,4.401000023,1,0,80,43,1,79
,,,,,,,,,,,,,,,,,,,,,,,,,,,,,,,,,,,,,,,,,,,,,149,llibre,Catalan,Sounds/cat_llibre.mp3,2020-06-28_17h35.08.619,TranslationElicitation_spa,3.2.4,Win32,60,5ede1a11281b7602eb5cf5ea,,1,0,80,43,1,79
,,,,,,,,,,,,,,,,,,,,,,,,,,,,,,,,,,,t,2.246000051,T,FALSE,,,,,,,182,tomaquet,Catalan,Sounds/cat_tomaquet.mp3,2020-06-28_17h35.08.619,TranslationElicitation_spa,3.2.4,Win32,60,5ede1a11281b7602eb5cf5ea,,1,0,80,73,1,79
,,,,,,,,,,,,,,,,,,,,,,,,,,,,,,,,,,,o,2.704999924,TO,FALSE,,,,,,,182,tomaquet,Catalan,Sounds/cat_tomaquet.mp3,2020-06-28_17h35.08.619,TranslationElicitation_spa,3.2.4,Win32,60,5ede1a11281b7602eb5cf5ea,,1,0,80,73,1,79
,,,,,,,,,,,,,,,,,,,,,,,,,,,,,,,,,,,m,2.911000013,TOM,FALSE,,,,,,,182,tomaquet,Catalan,Sounds/cat_tomaquet.mp3,2020-06-28_17h35.08.619,TranslationElicitation_spa,3.2.4,Win32,60,5ede1a11281b7602eb5cf5ea,,1,0,80,73,1,79
,,,,,,,,,,,,,,,,,,,,,,,,,,,,,,,,,,,a,3.112999916,TOMA,FALSE,,,,,,,182,tomaquet,Catalan,Sounds/cat_tomaquet.mp3,2020-06-28_17h35.08.619,TranslationElicitation_spa,3.2.4,Win32,60,5ede1a11281b7602eb5cf5ea,,1,0,80,73,1,79
,,,,,,,,,,,,,,,,,,,,,,,,,,,,,,,,,,,t,3.295000076,TOMAT,FALSE,,,,,,,182,tomaquet,Catalan,Sounds/cat_tomaquet.mp3,2020-06-28_17h35.08.619,TranslationElicitation_spa,3.2.4,Win32,60,5ede1a11281b7602eb5cf5ea,,1,0,80,73,1,79
,,,,,,,,,,,,,,,,,,,,,,,,,,,,,,,,,,,e,3.529000044,TOMATE,FALSE,,,,,,,182,tomaquet,Catalan,Sounds/cat_tomaquet.mp3,2020-06-28_17h35.08.619,TranslationElicitation_spa,3.2.4,Win32,60,5ede1a11281b7602eb5cf5ea,,1,0,80,73,1,79
,,,,,,,,,,,,,,,,,,,,,,,,,,,,,,,,,,,return,4.395999908,,FALSE,,,,,,,182,tomaquet,Catalan,Sounds/cat_tomaquet.mp3,2020-06-28_17h35.08.619,TranslationElicitation_spa,3.2.4,Win32,60,5ede1a11281b7602eb5cf5ea,4.394999981,1,0,80,73,1,79
,,,,,,,,,,,,,,,,,,,,,,,,,,,,,,,,,,,,,,,,,,,,,182,tomaquet,Catalan,Sounds/cat_tomaquet.mp3,2020-06-28_17h35.08.619,TranslationElicitation_spa,3.2.4,Win32,60,5ede1a11281b7602eb5cf5ea,,1,0,80,73,1,79
,,,,,,,,,,,,,,,,,,,,,,,,,,,,,,,,,,,g,1.856999874,G,FALSE,,,,,,,146,guitarra,Catalan,Sounds/cat_guitarra.mp3,2020-06-28_17h35.08.619,TranslationElicitation_spa,3.2.4,Win32,60,5ede1a11281b7602eb5cf5ea,,1,0,80,41,1,79
,,,,,,,,,,,,,,,,,,,,,,,,,,,,,,,,,,,u,2.001999855,GU,FALSE,,,,,,,146,guitarra,Catalan,Sounds/cat_guitarra.mp3,2020-06-28_17h35.08.619,TranslationElicitation_spa,3.2.4,Win32,60,5ede1a11281b7602eb5cf5ea,,1,0,80,41,1,79
,,,,,,,,,,,,,,,,,,,,,,,,,,,,,,,,,,,i,2.096999884,GUI,FALSE,,,,,,,146,guitarra,Catalan,Sounds/cat_guitarra.mp3,2020-06-28_17h35.08.619,TranslationElicitation_spa,3.2.4,Win32,60,5ede1a11281b7602eb5cf5ea,,1,0,80,41,1,79
,,,,,,,,,,,,,,,,,,,,,,,,,,,,,,,,,,,t,2.356999874,GUIT,FALSE,,,,,,,146,guitarra,Catalan,Sounds/cat_guitarra.mp3,2020-06-28_17h35.08.619,TranslationElicitation_spa,3.2.4,Win32,60,5ede1a11281b7602eb5cf5ea,,1,0,80,41,1,79
,,,,,,,,,,,,,,,,,,,,,,,,,,,,,,,,,,,a,2.480999947,GUITA,FALSE,,,,,,,146,guitarra,Catalan,Sounds/cat_guitarra.mp3,2020-06-28_17h35.08.619,TranslationElicitation_spa,3.2.4,Win32,60,5ede1a11281b7602eb5cf5ea,,1,0,80,41,1,79
,,,,,,,,,,,,,,,,,,,,,,,,,,,,,,,,,,,r,2.621999979,GUITAR,FALSE,,,,,,,146,guitarra,Catalan,Sounds/cat_guitarra.mp3,2020-06-28_17h35.08.619,TranslationElicitation_spa,3.2.4,Win32,60,5ede1a11281b7602eb5cf5ea,,1,0,80,41,1,79
,,,,,,,,,,,,,,,,,,,,,,,,,,,,,,,,,,,r,2.714999914,GUITARR,FALSE,,,,,,,146,guitarra,Catalan,Sounds/cat_guitarra.mp3,2020-06-28_17h35.08.619,TranslationElicitation_spa,3.2.4,Win32,60,5ede1a11281b7602eb5cf5ea,,1,0,80,41,1,79
,,,,,,,,,,,,,,,,,,,,,,,,,,,,,,,,,,,a,2.970999956,GUITARRA,FALSE,,,,,,,146,guitarra,Catalan,Sounds/cat_guitarra.mp3,2020-06-28_17h35.08.619,TranslationElicitation_spa,3.2.4,Win32,60,5ede1a11281b7602eb5cf5ea,,1,0,80,41,1,79
,,,,,,,,,,,,,,,,,,,,,,,,,,,,,,,,,,,return,3.460000038,,FALSE,,,,,,,146,guitarra,Catalan,Sounds/cat_guitarra.mp3,2020-06-28_17h35.08.619,TranslationElicitation_spa,3.2.4,Win32,60,5ede1a11281b7602eb5cf5ea,3.460000038,1,0,80,41,1,79
,,,,,,,,,,,,,,,,,,,,,,,,,,,,,,,,,,,,,,,,,,,,,146,guitarra,Catalan,Sounds/cat_guitarra.mp3,2020-06-28_17h35.08.619,TranslationElicitation_spa,3.2.4,Win32,60,5ede1a11281b7602eb5cf5ea,,1,0,80,41,1,79
,,,,,,,,,,,,,,,,,,,,,,,,,,,,,,,,,,,m,2.986999989,M,FALSE,,,,,,,154,mirall,Catalan,Sounds/cat_mirall.mp3,2020-06-28_17h35.08.619,TranslationElicitation_spa,3.2.4,Win32,60,5ede1a11281b7602eb5cf5ea,,1,0,80,48,1,79
,,,,,,,,,,,,,,,,,,,,,,,,,,,,,,,,,,,i,3.222999811,MI,FALSE,,,,,,,154,mirall,Catalan,Sounds/cat_mirall.mp3,2020-06-28_17h35.08.619,TranslationElicitation_spa,3.2.4,Win32,60,5ede1a11281b7602eb5cf5ea,,1,0,80,48,1,79
,,,,,,,,,,,,,,,,,,,,,,,,,,,,,,,,,,,r,3.520999908,MIR,FALSE,,,,,,,154,mirall,Catalan,Sounds/cat_mirall.mp3,2020-06-28_17h35.08.619,TranslationElicitation_spa,3.2.4,Win32,60,5ede1a11281b7602eb5cf5ea,,1,0,80,48,1,79
,,,,,,,,,,,,,,,,,,,,,,,,,,,,,,,,,,,a,3.674000025,MIRA,FALSE,,,,,,,154,mirall,Catalan,Sounds/cat_mirall.mp3,2020-06-28_17h35.08.619,TranslationElicitation_spa,3.2.4,Win32,60,5ede1a11281b7602eb5cf5ea,,1,0,80,48,1,79
,,,,,,,,,,,,,,,,,,,,,,,,,,,,,,,,,,,r,3.879999876,MIRAR,FALSE,,,,,,,154,mirall,Catalan,Sounds/cat_mirall.mp3,2020-06-28_17h35.08.619,TranslationElicitation_spa,3.2.4,Win32,60,5ede1a11281b7602eb5cf5ea,,1,0,80,48,1,79
,,,,,,,,,,,,,,,,,,,,,,,,,,,,,,,,,,,return,4.895999908,,FALSE,,,,,,,154,mirall,Catalan,Sounds/cat_mirall.mp3,2020-06-28_17h35.08.619,TranslationElicitation_spa,3.2.4,Win32,60,5ede1a11281b7602eb5cf5ea,4.895999908,1,0,80,48,1,79
,,,,,,,,,,,,,,,,,,,,,,,,,,,,,,,,,,,,,,,,,,,,,154,mirall,Catalan,Sounds/cat_mirall.mp3,2020-06-28_17h35.08.619,TranslationElicitation_spa,3.2.4,Win32,60,5ede1a11281b7602eb5cf5ea,,1,0,80,48,1,79
,,,,,,,,,,,,,,,,,,,,,,,,,,,,,,,,,,,c,1.987999916,C,FALSE,,,,,,,127,cotxe,Catalan,Sounds/cat_cotxe.mp3,2020-06-28_17h35.08.619,TranslationElicitation_spa,3.2.4,Win32,60,5ede1a11281b7602eb5cf5ea,,1,0,80,22,1,79
,,,,,,,,,,,,,,,,,,,,,,,,,,,,,,,,,,,o,2.155999899,CO,FALSE,,,,,,,127,cotxe,Catalan,Sounds/cat_cotxe.mp3,2020-06-28_17h35.08.619,TranslationElicitation_spa,3.2.4,Win32,60,5ede1a11281b7602eb5cf5ea,,1,0,80,22,1,79
,,,,,,,,,,,,,,,,,,,,,,,,,,,,,,,,,,,c,2.430999994,COC,FALSE,,,,,,,127,cotxe,Catalan,Sounds/cat_cotxe.mp3,2020-06-28_17h35.08.619,TranslationElicitation_spa,3.2.4,Win32,60,5ede1a11281b7602eb5cf5ea,,1,0,80,22,1,79
,,,,,,,,,,,,,,,,,,,,,,,,,,,,,,,,,,,h,2.622999907,COCH,FALSE,,,,,,,127,cotxe,Catalan,Sounds/cat_cotxe.mp3,2020-06-28_17h35.08.619,TranslationElicitation_spa,3.2.4,Win32,60,5ede1a11281b7602eb5cf5ea,,1,0,80,22,1,79
,,,,,,,,,,,,,,,,,,,,,,,,,,,,,,,,,,,e,2.830999851,COCHE,FALSE,,,,,,,127,cotxe,Catalan,Sounds/cat_cotxe.mp3,2020-06-28_17h35.08.619,TranslationElicitation_spa,3.2.4,Win32,60,5ede1a11281b7602eb5cf5ea,,1,0,80,22,1,79
,,,,,,,,,,,,,,,,,,,,,,,,,,,,,,,,,,,return,3.163999796,,FALSE,,,,,,,127,cotxe,Catalan,Sounds/cat_cotxe.mp3,2020-06-28_17h35.08.619,TranslationElicitation_spa,3.2.4,Win32,60,5ede1a11281b7602eb5cf5ea,3.163999796,1,0,80,22,1,79
,,,,,,,,,,,,,,,,,,,,,,,,,,,,,,,,,,,,,,,,,,,,,127,cotxe,Catalan,Sounds/cat_cotxe.mp3,2020-06-28_17h35.08.619,TranslationElicitation_spa,3.2.4,Win32,60,5ede1a11281b7602eb5cf5ea,,1,0,80,22,1,79
,,,,,,,,,,,,,,,,,,,,,,,,,,,,,,,,,,,c,1.641000032,C,FALSE,,,,,,,122,casa,Catalan,Sounds/cat_casa.mp3,2020-06-28_17h35.08.619,TranslationElicitation_spa,3.2.4,Win32,60,5ede1a11281b7602eb5cf5ea,,1,0,80,17,1,79
,,,,,,,,,,,,,,,,,,,,,,,,,,,,,,,,,,,a,1.826999903,CA,FALSE,,,,,,,122,casa,Catalan,Sounds/cat_casa.mp3,2020-06-28_17h35.08.619,TranslationElicitation_spa,3.2.4,Win32,60,5ede1a11281b7602eb5cf5ea,,1,0,80,17,1,79
,,,,,,,,,,,,,,,,,,,,,,,,,,,,,,,,,,,s,2.029000044,CAS,FALSE,,,,,,,122,casa,Catalan,Sounds/cat_casa.mp3,2020-06-28_17h35.08.619,TranslationElicitation_spa,3.2.4,Win32,60,5ede1a11281b7602eb5cf5ea,,1,0,80,17,1,79
,,,,,,,,,,,,,,,,,,,,,,,,,,,,,,,,,,,a,2.223999977,CASA,FALSE,,,,,,,122,casa,Catalan,Sounds/cat_casa.mp3,2020-06-28_17h35.08.619,TranslationElicitation_spa,3.2.4,Win32,60,5ede1a11281b7602eb5cf5ea,,1,0,80,17,1,79
,,,,,,,,,,,,,,,,,,,,,,,,,,,,,,,,,,,return,2.486999989,,FALSE,,,,,,,122,casa,Catalan,Sounds/cat_casa.mp3,2020-06-28_17h35.08.619,TranslationElicitation_spa,3.2.4,Win32,60,5ede1a11281b7602eb5cf5ea,2.486999989,1,0,80,17,1,79
,,,,,,,,,,,,,,,,,,,,,,,,,,,,,,,,,,,,,,,,,,,,,122,casa,Catalan,Sounds/cat_casa.mp3,2020-06-28_17h35.08.619,TranslationElicitation_spa,3.2.4,Win32,60,5ede1a11281b7602eb5cf5ea,,1,0,80,17,1,79
,,,,,,,,,,,,,,,,,,,,,,,,,,,,,,,,,,,n,2.652999878,N,FALSE,,,,,,,172,poma,Catalan,Sounds/cat_poma.mp3,2020-06-28_17h35.08.619,TranslationElicitation_spa,3.2.4,Win32,60,5ede1a11281b7602eb5cf5ea,,1,0,80,64,1,79
,,,,,,,,,,,,,,,,,,,,,,,,,,,,,,,,,,,a,2.947000027,NA,FALSE,,,,,,,172,poma,Catalan,Sounds/cat_poma.mp3,2020-06-28_17h35.08.619,TranslationElicitation_spa,3.2.4,Win32,60,5ede1a11281b7602eb5cf5ea,,1,0,80,64,1,79
,,,,,,,,,,,,,,,,,,,,,,,,,,,,,,,,,,,r,3.092999935,NAR,FALSE,,,,,,,172,poma,Catalan,Sounds/cat_poma.mp3,2020-06-28_17h35.08.619,TranslationElicitation_spa,3.2.4,Win32,60,5ede1a11281b7602eb5cf5ea,,1,0,80,64,1,79
,,,,,,,,,,,,,,,,,,,,,,,,,,,,,,,,,,,a,3.207000017,NARA,FALSE,,,,,,,172,poma,Catalan,Sounds/cat_poma.mp3,2020-06-28_17h35.08.619,TranslationElicitation_spa,3.2.4,Win32,60,5ede1a11281b7602eb5cf5ea,,1,0,80,64,1,79
,,,,,,,,,,,,,,,,,,,,,,,,,,,,,,,,,,,n,3.52699995,NARAN,FALSE,,,,,,,172,poma,Catalan,Sounds/cat_poma.mp3,2020-06-28_17h35.08.619,TranslationElicitation_spa,3.2.4,Win32,60,5ede1a11281b7602eb5cf5ea,,1,0,80,64,1,79
,,,,,,,,,,,,,,,,,,,,,,,,,,,,,,,,,,,j,3.674999952,NARANJ,FALSE,,,,,,,172,poma,Catalan,Sounds/cat_poma.mp3,2020-06-28_17h35.08.619,TranslationElicitation_spa,3.2.4,Win32,60,5ede1a11281b7602eb5cf5ea,,1,0,80,64,1,79
,,,,,,,,,,,,,,,,,,,,,,,,,,,,,,,,,,,a,3.816999912,NARANJA,FALSE,,,,,,,172,poma,Catalan,Sounds/cat_poma.mp3,2020-06-28_17h35.08.619,TranslationElicitation_spa,3.2.4,Win32,60,5ede1a11281b7602eb5cf5ea,,1,0,80,64,1,79
,,,,,,,,,,,,,,,,,,,,,,,,,,,,,,,,,,,return,4.441999912,,FALSE,,,,,,,172,poma,Catalan,Sounds/cat_poma.mp3,2020-06-28_17h35.08.619,TranslationElicitation_spa,3.2.4,Win32,60,5ede1a11281b7602eb5cf5ea,4.441999912,1,0,80,64,1,79
,,,,,,,,,,,,,,,,,,,,,,,,,,,,,,,,,,,,,,,,,,,,,172,poma,Catalan,Sounds/cat_poma.mp3,2020-06-28_17h35.08.619,TranslationElicitation_spa,3.2.4,Win32,60,5ede1a11281b7602eb5cf5ea,,1,0,80,64,1,79
,,,,,,,,,,,,,,,,,,,,,,,,,,,,,,,,,,,e,3.967999935,E,FALSE,,,,,,,132,estrella,Catalan,Sounds/cat_estrella.mp3,2020-06-28_17h35.08.619,TranslationElicitation_spa,3.2.4,Win32,60,5ede1a11281b7602eb5cf5ea,,1,0,80,27,1,79
,,,,,,,,,,,,,,,,,,,,,,,,,,,,,,,,,,,s,4.132999897,ES,FALSE,,,,,,,132,estrella,Catalan,Sounds/cat_estrella.mp3,2020-06-28_17h35.08.619,TranslationElicitation_spa,3.2.4,Win32,60,5ede1a11281b7602eb5cf5ea,,1,0,80,27,1,79
,,,,,,,,,,,,,,,,,,,,,,,,,,,,,,,,,,,t,4.835000038,EST,FALSE,,,,,,,132,estrella,Catalan,Sounds/cat_estrella.mp3,2020-06-28_17h35.08.619,TranslationElicitation_spa,3.2.4,Win32,60,5ede1a11281b7602eb5cf5ea,,1,0,80,27,1,79
,,,,,,,,,,,,,,,,,,,,,,,,,,,,,,,,,,,r,5.037999868,ESTR,FALSE,,,,,,,132,estrella,Catalan,Sounds/cat_estrella.mp3,2020-06-28_17h35.08.619,TranslationElicitation_spa,3.2.4,Win32,60,5ede1a11281b7602eb5cf5ea,,1,0,80,27,1,79
,,,,,,,,,,,,,,,,,,,,,,,,,,,,,,,,,,,e,5.299999952,ESTRE,FALSE,,,,,,,132,estrella,Catalan,Sounds/cat_estrella.mp3,2020-06-28_17h35.08.619,TranslationElicitation_spa,3.2.4,Win32,60,5ede1a11281b7602eb5cf5ea,,1,0,80,27,1,79
,,,,,,,,,,,,,,,,,,,,,,,,,,,,,,,,,,,l,5.804999828,ESTREL,FALSE,,,,,,,132,estrella,Catalan,Sounds/cat_estrella.mp3,2020-06-28_17h35.08.619,TranslationElicitation_spa,3.2.4,Win32,60,5ede1a11281b7602eb5cf5ea,,1,0,80,27,1,79
,,,,,,,,,,,,,,,,,,,,,,,,,,,,,,,,,,,l,5.949999809,ESTRELL,FALSE,,,,,,,132,estrella,Catalan,Sounds/cat_estrella.mp3,2020-06-28_17h35.08.619,TranslationElicitation_spa,3.2.4,Win32,60,5ede1a11281b7602eb5cf5ea,,1,0,80,27,1,79
,,,,,,,,,,,,,,,,,,,,,,,,,,,,,,,,,,,a,6.501999855,ESTRELLA,FALSE,,,,,,,132,estrella,Catalan,Sounds/cat_estrella.mp3,2020-06-28_17h35.08.619,TranslationElicitation_spa,3.2.4,Win32,60,5ede1a11281b7602eb5cf5ea,,1,0,80,27,1,79
,,,,,,,,,,,,,,,,,,,,,,,,,,,,,,,,,,,return,6.866999865,,FALSE,,,,,,,132,estrella,Catalan,Sounds/cat_estrella.mp3,2020-06-28_17h35.08.619,TranslationElicitation_spa,3.2.4,Win32,60,5ede1a11281b7602eb5cf5ea,6.865999937,1,0,80,27,1,79
,,,,,,,,,,,,,,,,,,,,,,,,,,,,,,,,,,,,,,,,,,,,,132,estrella,Catalan,Sounds/cat_estrella.mp3,2020-06-28_17h35.08.619,TranslationElicitation_spa,3.2.4,Win32,60,5ede1a11281b7602eb5cf5ea,,1,0,80,27,1,79
,,,,,,,,,,,,,,,,,,,,,,,,,,,,,,,,,,,c,3.535000086,C,FALSE,,,,,,,160,orella,Catalan,Sounds/cat_orella.mp3,2020-06-28_17h35.08.619,TranslationElicitation_spa,3.2.4,Win32,60,5ede1a11281b7602eb5cf5ea,,1,0,80,53,1,79
,,,,,,,,,,,,,,,,,,,,,,,,,,,,,,,,,,,u,3.768000126,CU,FALSE,,,,,,,160,orella,Catalan,Sounds/cat_orella.mp3,2020-06-28_17h35.08.619,TranslationElicitation_spa,3.2.4,Win32,60,5ede1a11281b7602eb5cf5ea,,1,0,80,53,1,79
,,,,,,,,,,,,,,,,,,,,,,,,,,,,,,,,,,,e,4.066000223,CUE,FALSE,,,,,,,160,orella,Catalan,Sounds/cat_orella.mp3,2020-06-28_17h35.08.619,TranslationElicitation_spa,3.2.4,Win32,60,5ede1a11281b7602eb5cf5ea,,1,0,80,53,1,79
,,,,,,,,,,,,,,,,,,,,,,,,,,,,,,,,,,,n,4.242000103,CUEN,FALSE,,,,,,,160,orella,Catalan,Sounds/cat_orella.mp3,2020-06-28_17h35.08.619,TranslationElicitation_spa,3.2.4,Win32,60,5ede1a11281b7602eb5cf5ea,,1,0,80,53,1,79
,,,,,,,,,,,,,,,,,,,,,,,,,,,,,,,,,,,backspace,5.357000113,CU,TRUE,,,,,,,160,orella,Catalan,Sounds/cat_orella.mp3,2020-06-28_17h35.08.619,TranslationElicitation_spa,3.2.4,Win32,60,5ede1a11281b7602eb5cf5ea,,1,0,80,53,1,79
,,,,,,,,,,,,,,,,,,,,,,,,,,,,,,,,,,,backspace,5.496000051,,TRUE,,,,,,,160,orella,Catalan,Sounds/cat_orella.mp3,2020-06-28_17h35.08.619,TranslationElicitation_spa,3.2.4,Win32,60,5ede1a11281b7602eb5cf5ea,,1,0,80,53,1,79
,,,,,,,,,,,,,,,,,,,,,,,,,,,,,,,,,,,r,5.846000195,R,TRUE,,,,,,,160,orella,Catalan,Sounds/cat_orella.mp3,2020-06-28_17h35.08.619,TranslationElicitation_spa,3.2.4,Win32,60,5ede1a11281b7602eb5cf5ea,,1,0,80,53,1,79
,,,,,,,,,,,,,,,,,,,,,,,,,,,,,,,,,,,backspace,6.605000019,,TRUE,,,,,,,160,orella,Catalan,Sounds/cat_orella.mp3,2020-06-28_17h35.08.619,TranslationElicitation_spa,3.2.4,Win32,60,5ede1a11281b7602eb5cf5ea,,1,0,80,53,1,79
,,,,,,,,,,,,,,,,,,,,,,,,,,,,,,,,,,,c,6.821000099,C,TRUE,,,,,,,160,orella,Catalan,Sounds/cat_orella.mp3,2020-06-28_17h35.08.619,TranslationElicitation_spa,3.2.4,Win32,60,5ede1a11281b7602eb5cf5ea,,1,0,80,53,1,79
,,,,,,,,,,,,,,,,,,,,,,,,,,,,,,,,,,,u,7.048000097,CU,TRUE,,,,,,,160,orella,Catalan,Sounds/cat_orella.mp3,2020-06-28_17h35.08.619,TranslationElicitation_spa,3.2.4,Win32,60,5ede1a11281b7602eb5cf5ea,,1,0,80,53,1,79
,,,,,,,,,,,,,,,,,,,,,,,,,,,,,,,,,,,r,7.273000002,CUR,TRUE,,,,,,,160,orella,Catalan,Sounds/cat_orella.mp3,2020-06-28_17h35.08.619,TranslationElicitation_spa,3.2.4,Win32,60,5ede1a11281b7602eb5cf5ea,,1,0,80,53,1,79
,,,,,,,,,,,,,,,,,,,,,,,,,,,,,,,,,,,e,7.390000105,CURE,TRUE,,,,,,,160,orella,Catalan,Sounds/cat_orella.mp3,2020-06-28_17h35.08.619,TranslationElicitation_spa,3.2.4,Win32,60,5ede1a11281b7602eb5cf5ea,,1,0,80,53,1,79
,,,,,,,,,,,,,,,,,,,,,,,,,,,,,,,,,,,l,7.772000074,CUREL,TRUE,,,,,,,160,orella,Catalan,Sounds/cat_orella.mp3,2020-06-28_17h35.08.619,TranslationElicitation_spa,3.2.4,Win32,60,5ede1a11281b7602eb5cf5ea,,1,0,80,53,1,79
,,,,,,,,,,,,,,,,,,,,,,,,,,,,,,,,,,,l,7.911000013,CURELL,TRUE,,,,,,,160,orella,Catalan,Sounds/cat_orella.mp3,2020-06-28_17h35.08.619,TranslationElicitation_spa,3.2.4,Win32,60,5ede1a11281b7602eb5cf5ea,,1,0,80,53,1,79
,,,,,,,,,,,,,,,,,,,,,,,,,,,,,,,,,,,a,8.042000055,CURELLA,TRUE,,,,,,,160,orella,Catalan,Sounds/cat_orella.mp3,2020-06-28_17h35.08.619,TranslationElicitation_spa,3.2.4,Win32,60,5ede1a11281b7602eb5cf5ea,,1,0,80,53,1,79
,,,,,,,,,,,,,,,,,,,,,,,,,,,,,,,,,,,return,9.825000048,,TRUE,,,,,,,160,orella,Catalan,Sounds/cat_orella.mp3,2020-06-28_17h35.08.619,TranslationElicitation_spa,3.2.4,Win32,60,5ede1a11281b7602eb5cf5ea,9.825000048,1,0,80,53,1,79
,,,,,,,,,,,,,,,,,,,,,,,,,,,,,,,,,,,,,,,,,,,,,160,orella,Catalan,Sounds/cat_orella.mp3,2020-06-28_17h35.08.619,TranslationElicitation_spa,3.2.4,Win32,60,5ede1a11281b7602eb5cf5ea,,1,0,80,53,1,79
,,,,,,,,,,,,,,,,,,,,,,,,,,,,,,,,,,,g,1.836999893,G,FALSE,,,,,,,145,got,Catalan,Sounds/cat_got.mp3,2020-06-28_17h35.08.619,TranslationElicitation_spa,3.2.4,Win32,60,5ede1a11281b7602eb5cf5ea,,1,0,80,40,1,79
,,,,,,,,,,,,,,,,,,,,,,,,,,,,,,,,,,,o,2.06799984,GO,FALSE,,,,,,,145,got,Catalan,Sounds/cat_got.mp3,2020-06-28_17h35.08.619,TranslationElicitation_spa,3.2.4,Win32,60,5ede1a11281b7602eb5cf5ea,,1,0,80,40,1,79
,,,,,,,,,,,,,,,,,,,,,,,,,,,,,,,,,,,l,2.237999916,GOL,FALSE,,,,,,,145,got,Catalan,Sounds/cat_got.mp3,2020-06-28_17h35.08.619,TranslationElicitation_spa,3.2.4,Win32,60,5ede1a11281b7602eb5cf5ea,,1,0,80,40,1,79
,,,,,,,,,,,,,,,,,,,,,,,,,,,,,,,,,,,return,3.038999796,,FALSE,,,,,,,145,got,Catalan,Sounds/cat_got.mp3,2020-06-28_17h35.08.619,TranslationElicitation_spa,3.2.4,Win32,60,5ede1a11281b7602eb5cf5ea,3.038999796,1,0,80,40,1,79
,,,,,,,,,,,,,,,,,,,,,,,,,,,,,,,,,,,,,,,,,,,,,145,got,Catalan,Sounds/cat_got.mp3,2020-06-28_17h35.08.619,TranslationElicitation_spa,3.2.4,Win32,60,5ede1a11281b7602eb5cf5ea,,1,0,80,40,1,79
,,,,,,,,,,,,,,,,,,,,,,,,,,,,,,,,,,,b,1.764999866,B,FALSE,,,,,,,113,boca,Catalan,Sounds/cat_boca.mp3,2020-06-28_17h35.08.619,TranslationElicitation_spa,3.2.4,Win32,60,5ede1a11281b7602eb5cf5ea,,1,0,80,8,1,79
,,,,,,,,,,,,,,,,,,,,,,,,,,,,,,,,,,,o,2.236999989,BO,FALSE,,,,,,,113,boca,Catalan,Sounds/cat_boca.mp3,2020-06-28_17h35.08.619,TranslationElicitation_spa,3.2.4,Win32,60,5ede1a11281b7602eb5cf5ea,,1,0,80,8,1,79
,,,,,,,,,,,,,,,,,,,,,,,,,,,,,,,,,,,c,2.404000044,BOC,FALSE,,,,,,,113,boca,Catalan,Sounds/cat_boca.mp3,2020-06-28_17h35.08.619,TranslationElicitation_spa,3.2.4,Win32,60,5ede1a11281b7602eb5cf5ea,,1,0,80,8,1,79
,,,,,,,,,,,,,,,,,,,,,,,,,,,,,,,,,,,a,2.638999939,BOCA,FALSE,,,,,,,113,boca,Catalan,Sounds/cat_boca.mp3,2020-06-28_17h35.08.619,TranslationElicitation_spa,3.2.4,Win32,60,5ede1a11281b7602eb5cf5ea,,1,0,80,8,1,79
,,,,,,,,,,,,,,,,,,,,,,,,,,,,,,,,,,,return,3.019000053,,FALSE,,,,,,,113,boca,Catalan,Sounds/cat_boca.mp3,2020-06-28_17h35.08.619,TranslationElicitation_spa,3.2.4,Win32,60,5ede1a11281b7602eb5cf5ea,3.019000053,1,0,80,8,1,79
,,,,,,,,,,,,,,,,,,,,,,,,,,,,,,,,,,,,,,,,,,,,,113,boca,Catalan,Sounds/cat_boca.mp3,2020-06-28_17h35.08.619,TranslationElicitation_spa,3.2.4,Win32,60,5ede1a11281b7602eb5cf5ea,,1,0,80,8,1,79
,,,,,,,,,,,,,,,,,,,,,,,,,,,,,,,,,,,m,1.763999939,M,FALSE,,,,,,,156,moto,Catalan,Sounds/cat_moto.mp3,2020-06-28_17h35.08.619,TranslationElicitation_spa,3.2.4,Win32,60,5ede1a11281b7602eb5cf5ea,,1,0,80,50,1,79
,,,,,,,,,,,,,,,,,,,,,,,,,,,,,,,,,,,o,2.020999908,MO,FALSE,,,,,,,156,moto,Catalan,Sounds/cat_moto.mp3,2020-06-28_17h35.08.619,TranslationElicitation_spa,3.2.4,Win32,60,5ede1a11281b7602eb5cf5ea,,1,0,80,50,1,79
,,,,,,,,,,,,,,,,,,,,,,,,,,,,,,,,,,,t,2.182999849,MOT,FALSE,,,,,,,156,moto,Catalan,Sounds/cat_moto.mp3,2020-06-28_17h35.08.619,TranslationElicitation_spa,3.2.4,Win32,60,5ede1a11281b7602eb5cf5ea,,1,0,80,50,1,79
,,,,,,,,,,,,,,,,,,,,,,,,,,,,,,,,,,,o,2.301999807,MOTO,FALSE,,,,,,,156,moto,Catalan,Sounds/cat_moto.mp3,2020-06-28_17h35.08.619,TranslationElicitation_spa,3.2.4,Win32,60,5ede1a11281b7602eb5cf5ea,,1,0,80,50,1,79
,,,,,,,,,,,,,,,,,,,,,,,,,,,,,,,,,,,return,3.133999825,,FALSE,,,,,,,156,moto,Catalan,Sounds/cat_moto.mp3,2020-06-28_17h35.08.619,TranslationElicitation_spa,3.2.4,Win32,60,5ede1a11281b7602eb5cf5ea,3.133999825,1,0,80,50,1,79
,,,,,,,,,,,,,,,,,,,,,,,,,,,,,,,,,,,,,,,,,,,,,156,moto,Catalan,Sounds/cat_moto.mp3,2020-06-28_17h35.08.619,TranslationElicitation_spa,3.2.4,Win32,60,5ede1a11281b7602eb5cf5ea,,1,0,80,50,1,79
,,,,,,,,,,,,,,,,,,,,,,,,,,,,,,,,,,,c,2.301999807,C,FALSE,,,,,,,119,caixa,Catalan,Sounds/cat_caixa.mp3,2020-06-28_17h35.08.619,TranslationElicitation_spa,3.2.4,Win32,60,5ede1a11281b7602eb5cf5ea,,1,0,80,14,1,79
,,,,,,,,,,,,,,,,,,,,,,,,,,,,,,,,,,,a,2.496999979,CA,FALSE,,,,,,,119,caixa,Catalan,Sounds/cat_caixa.mp3,2020-06-28_17h35.08.619,TranslationElicitation_spa,3.2.4,Win32,60,5ede1a11281b7602eb5cf5ea,,1,0,80,14,1,79
,,,,,,,,,,,,,,,,,,,,,,,,,,,,,,,,,,,s,2.691999912,CAS,FALSE,,,,,,,119,caixa,Catalan,Sounds/cat_caixa.mp3,2020-06-28_17h35.08.619,TranslationElicitation_spa,3.2.4,Win32,60,5ede1a11281b7602eb5cf5ea,,1,0,80,14,1,79
,,,,,,,,,,,,,,,,,,,,,,,,,,,,,,,,,,,a,3.069999933,CASA,FALSE,,,,,,,119,caixa,Catalan,Sounds/cat_caixa.mp3,2020-06-28_17h35.08.619,TranslationElicitation_spa,3.2.4,Win32,60,5ede1a11281b7602eb5cf5ea,,1,0,80,14,1,79
,,,,,,,,,,,,,,,,,,,,,,,,,,,,,,,,,,,return,3.671999931,,FALSE,,,,,,,119,caixa,Catalan,Sounds/cat_caixa.mp3,2020-06-28_17h35.08.619,TranslationElicitation_spa,3.2.4,Win32,60,5ede1a11281b7602eb5cf5ea,3.671999931,1,0,80,14,1,79
,,,,,,,,,,,,,,,,,,,,,,,,,,,,,,,,,,,,,,,,,,,,,119,caixa,Catalan,Sounds/cat_caixa.mp3,2020-06-28_17h35.08.619,TranslationElicitation_spa,3.2.4,Win32,60,5ede1a11281b7602eb5cf5ea,,1,0,80,14,1,79
,,,,,,,,,,,,,,,,,,,,,,,,,,,,,,,,,,,c,4.822000027,C,FALSE,,,,,,,178,taronja,Catalan,Sounds/cat_taronja.mp3,2020-06-28_17h35.08.619,TranslationElicitation_spa,3.2.4,Win32,60,5ede1a11281b7602eb5cf5ea,,1,0,80,70,1,79
,,,,,,,,,,,,,,,,,,,,,,,,,,,,,,,,,,,a,4.959000111,CA,FALSE,,,,,,,178,taronja,Catalan,Sounds/cat_taronja.mp3,2020-06-28_17h35.08.619,TranslationElicitation_spa,3.2.4,Win32,60,5ede1a11281b7602eb5cf5ea,,1,0,80,70,1,79
,,,,,,,,,,,,,,,,,,,,,,,,,,,,,,,,,,,s,5.160000086,CAS,FALSE,,,,,,,178,taronja,Catalan,Sounds/cat_taronja.mp3,2020-06-28_17h35.08.619,TranslationElicitation_spa,3.2.4,Win32,60,5ede1a11281b7602eb5cf5ea,,1,0,80,70,1,79
,,,,,,,,,,,,,,,,,,,,,,,,,,,,,,,,,,,a,5.332000017,CASA,FALSE,,,,,,,178,taronja,Catalan,Sounds/cat_taronja.mp3,2020-06-28_17h35.08.619,TranslationElicitation_spa,3.2.4,Win32,60,5ede1a11281b7602eb5cf5ea,,1,0,80,70,1,79
,,,,,,,,,,,,,,,,,,,,,,,,,,,,,,,,,,,return,5.597000122,,FALSE,,,,,,,178,taronja,Catalan,Sounds/cat_taronja.mp3,2020-06-28_17h35.08.619,TranslationElicitation_spa,3.2.4,Win32,60,5ede1a11281b7602eb5cf5ea,5.597000122,1,0,80,70,1,79
,,,,,,,,,,,,,,,,,,,,,,,,,,,,,,,,,,,,,,,,,,,,,178,taronja,Catalan,Sounds/cat_taronja.mp3,2020-06-28_17h35.08.619,TranslationElicitation_spa,3.2.4,Win32,60,5ede1a11281b7602eb5cf5ea,,1,0,80,70,1,79
,,,,,,,,,,,,,,,,,,,,,,,,,,,,,,,,,,,n,2.177000046,N,FALSE,,,,,,,158,nas,Catalan,Sounds/cat_nas.mp3,2020-06-28_17h35.08.619,TranslationElicitation_spa,3.2.4,Win32,60,5ede1a11281b7602eb5cf5ea,,1,0,80,52,1,79
,,,,,,,,,,,,,,,,,,,,,,,,,,,,,,,,,,,a,2.420000076,NA,FALSE,,,,,,,158,nas,Catalan,Sounds/cat_nas.mp3,2020-06-28_17h35.08.619,TranslationElicitation_spa,3.2.4,Win32,60,5ede1a11281b7602eb5cf5ea,,1,0,80,52,1,79
,,,,,,,,,,,,,,,,,,,,,,,,,,,,,,,,,,,d,2.691999912,NAD,FALSE,,,,,,,158,nas,Catalan,Sounds/cat_nas.mp3,2020-06-28_17h35.08.619,TranslationElicitation_spa,3.2.4,Win32,60,5ede1a11281b7602eb5cf5ea,,1,0,80,52,1,79
,,,,,,,,,,,,,,,,,,,,,,,,,,,,,,,,,,,a,3.010999918,NADA,FALSE,,,,,,,158,nas,Catalan,Sounds/cat_nas.mp3,2020-06-28_17h35.08.619,TranslationElicitation_spa,3.2.4,Win32,60,5ede1a11281b7602eb5cf5ea,,1,0,80,52,1,79
,,,,,,,,,,,,,,,,,,,,,,,,,,,,,,,,,,,return,3.354000092,,FALSE,,,,,,,158,nas,Catalan,Sounds/cat_nas.mp3,2020-06-28_17h35.08.619,TranslationElicitation_spa,3.2.4,Win32,60,5ede1a11281b7602eb5cf5ea,3.354000092,1,0,80,52,1,79
,,,,,,,,,,,,,,,,,,,,,,,,,,,,,,,,,,,,,,,,,,,,,158,nas,Catalan,Sounds/cat_nas.mp3,2020-06-28_17h35.08.619,TranslationElicitation_spa,3.2.4,Win32,60,5ede1a11281b7602eb5cf5ea,,1,0,80,52,1,79
,,,,,,,,,,,,,,,,,,,,,,,,,,,,,,,,,,,g,2.453000069,G,FALSE,,,,,,,106,aixeta,Catalan,Sounds/cat_aixeta.mp3,2020-06-28_17h35.08.619,TranslationElicitation_spa,3.2.4,Win32,60,5ede1a11281b7602eb5cf5ea,,1,0,80,2,1,79
,,,,,,,,,,,,,,,,,,,,,,,,,,,,,,,,,,,a,2.644000053,GA,FALSE,,,,,,,106,aixeta,Catalan,Sounds/cat_aixeta.mp3,2020-06-28_17h35.08.619,TranslationElicitation_spa,3.2.4,Win32,60,5ede1a11281b7602eb5cf5ea,,1,0,80,2,1,79
,,,,,,,,,,,,,,,,,,,,,,,,,,,,,,,,,,,l,2.954999924,GAL,FALSE,,,,,,,106,aixeta,Catalan,Sounds/cat_aixeta.mp3,2020-06-28_17h35.08.619,TranslationElicitation_spa,3.2.4,Win32,60,5ede1a11281b7602eb5cf5ea,,1,0,80,2,1,79
,,,,,,,,,,,,,,,,,,,,,,,,,,,,,,,,,,,l,3.085999966,GALL,FALSE,,,,,,,106,aixeta,Catalan,Sounds/cat_aixeta.mp3,2020-06-28_17h35.08.619,TranslationElicitation_spa,3.2.4,Win32,60,5ede1a11281b7602eb5cf5ea,,1,0,80,2,1,79
,,,,,,,,,,,,,,,,,,,,,,,,,,,,,,,,,,,e,3.227999926,GALLE,FALSE,,,,,,,106,aixeta,Catalan,Sounds/cat_aixeta.mp3,2020-06-28_17h35.08.619,TranslationElicitation_spa,3.2.4,Win32,60,5ede1a11281b7602eb5cf5ea,,1,0,80,2,1,79
,,,,,,,,,,,,,,,,,,,,,,,,,,,,,,,,,,,t,3.421999931,GALLET,FALSE,,,,,,,106,aixeta,Catalan,Sounds/cat_aixeta.mp3,2020-06-28_17h35.08.619,TranslationElicitation_spa,3.2.4,Win32,60,5ede1a11281b7602eb5cf5ea,,1,0,80,2,1,79
,,,,,,,,,,,,,,,,,,,,,,,,,,,,,,,,,,,a,3.622999907,GALLETA,FALSE,,,,,,,106,aixeta,Catalan,Sounds/cat_aixeta.mp3,2020-06-28_17h35.08.619,TranslationElicitation_spa,3.2.4,Win32,60,5ede1a11281b7602eb5cf5ea,,1,0,80,2,1,79
,,,,,,,,,,,,,,,,,,,,,,,,,,,,,,,,,,,return,3.94299984,,FALSE,,,,,,,106,aixeta,Catalan,Sounds/cat_aixeta.mp3,2020-06-28_17h35.08.619,TranslationElicitation_spa,3.2.4,Win32,60,5ede1a11281b7602eb5cf5ea,3.94299984,1,0,80,2,1,79
,,,,,,,,,,,,,,,,,,,,,,,,,,,,,,,,,,,,,,,,,,,,,106,aixeta,Catalan,Sounds/cat_aixeta.mp3,2020-06-28_17h35.08.619,TranslationElicitation_spa,3.2.4,Win32,60,5ede1a11281b7602eb5cf5ea,,1,0,80,2,1,79
,,,,,,,,,,,,,,,,,,,,,,,,,,,,,,,,,,,c,1.877999783,C,FALSE,,,,,,,126,corona,Catalan,Sounds/cat_corona.mp3,2020-06-28_17h35.08.619,TranslationElicitation_spa,3.2.4,Win32,60,5ede1a11281b7602eb5cf5ea,,1,0,80,21,1,79
,,,,,,,,,,,,,,,,,,,,,,,,,,,,,,,,,,,o,1.958999872,CO,FALSE,,,,,,,126,corona,Catalan,Sounds/cat_corona.mp3,2020-06-28_17h35.08.619,TranslationElicitation_spa,3.2.4,Win32,60,5ede1a11281b7602eb5cf5ea,,1,0,80,21,1,79
,,,,,,,,,,,,,,,,,,,,,,,,,,,,,,,,,,,r,2.785999775,COR,FALSE,,,,,,,126,corona,Catalan,Sounds/cat_corona.mp3,2020-06-28_17h35.08.619,TranslationElicitation_spa,3.2.4,Win32,60,5ede1a11281b7602eb5cf5ea,,1,0,80,21,1,79
,,,,,,,,,,,,,,,,,,,,,,,,,,,,,,,,,,,o,2.923999786,CORO,FALSE,,,,,,,126,corona,Catalan,Sounds/cat_corona.mp3,2020-06-28_17h35.08.619,TranslationElicitation_spa,3.2.4,Win32,60,5ede1a11281b7602eb5cf5ea,,1,0,80,21,1,79
,,,,,,,,,,,,,,,,,,,,,,,,,,,,,,,,,,,n,3.172999859,CORON,FALSE,,,,,,,126,corona,Catalan,Sounds/cat_corona.mp3,2020-06-28_17h35.08.619,TranslationElicitation_spa,3.2.4,Win32,60,5ede1a11281b7602eb5cf5ea,,1,0,80,21,1,79
,,,,,,,,,,,,,,,,,,,,,,,,,,,,,,,,,,,a,3.369999886,CORONA,FALSE,,,,,,,126,corona,Catalan,Sounds/cat_corona.mp3,2020-06-28_17h35.08.619,TranslationElicitation_spa,3.2.4,Win32,60,5ede1a11281b7602eb5cf5ea,,1,0,80,21,1,79
,,,,,,,,,,,,,,,,,,,,,,,,,,,,,,,,,,,return,3.638999939,,FALSE,,,,,,,126,corona,Catalan,Sounds/cat_corona.mp3,2020-06-28_17h35.08.619,TranslationElicitation_spa,3.2.4,Win32,60,5ede1a11281b7602eb5cf5ea,3.638999939,1,0,80,21,1,79
,,,,,,,,,,,,,,,,,,,,,,,,,,,,,,,,,,,,,,,,,,,,,126,corona,Catalan,Sounds/cat_corona.mp3,2020-06-28_17h35.08.619,TranslationElicitation_spa,3.2.4,Win32,60,5ede1a11281b7602eb5cf5ea,,1,0,80,21,1,79
,,,,,,,,,,,,,,,,,,,,,,,,,,,,,,,,,,,p,1.65199995,P,FALSE,,,,,,,168,planta,Catalan,Sounds/cat_planta.mp3,2020-06-28_17h35.08.619,TranslationElicitation_spa,3.2.4,Win32,60,5ede1a11281b7602eb5cf5ea,,1,0,80,60,1,79
,,,,,,,,,,,,,,,,,,,,,,,,,,,,,,,,,,,l,1.832000017,PL,FALSE,,,,,,,168,planta,Catalan,Sounds/cat_planta.mp3,2020-06-28_17h35.08.619,TranslationElicitation_spa,3.2.4,Win32,60,5ede1a11281b7602eb5cf5ea,,1,0,80,60,1,79
,,,,,,,,,,,,,,,,,,,,,,,,,,,,,,,,,,,a,2.075999975,PLA,FALSE,,,,,,,168,planta,Catalan,Sounds/cat_planta.mp3,2020-06-28_17h35.08.619,TranslationElicitation_spa,3.2.4,Win32,60,5ede1a11281b7602eb5cf5ea,,1,0,80,60,1,79
,,,,,,,,,,,,,,,,,,,,,,,,,,,,,,,,,,,n,2.268000126,PLAN,FALSE,,,,,,,168,planta,Catalan,Sounds/cat_planta.mp3,2020-06-28_17h35.08.619,TranslationElicitation_spa,3.2.4,Win32,60,5ede1a11281b7602eb5cf5ea,,1,0,80,60,1,79
,,,,,,,,,,,,,,,,,,,,,,,,,,,,,,,,,,,t,2.568000078,PLANT,FALSE,,,,,,,168,planta,Catalan,Sounds/cat_planta.mp3,2020-06-28_17h35.08.619,TranslationElicitation_spa,3.2.4,Win32,60,5ede1a11281b7602eb5cf5ea,,1,0,80,60,1,79
,,,,,,,,,,,,,,,,,,,,,,,,,,,,,,,,,,,a,2.692000151,PLANTA,FALSE,,,,,,,168,planta,Catalan,Sounds/cat_planta.mp3,2020-06-28_17h35.08.619,TranslationElicitation_spa,3.2.4,Win32,60,5ede1a11281b7602eb5cf5ea,,1,0,80,60,1,79
,,,,,,,,,,,,,,,,,,,,,,,,,,,,,,,,,,,return,3.296000004,,FALSE,,,,,,,168,planta,Catalan,Sounds/cat_planta.mp3,2020-06-28_17h35.08.619,TranslationElicitation_spa,3.2.4,Win32,60,5ede1a11281b7602eb5cf5ea,3.295000076,1,0,80,60,1,79
,,,,,,,,,,,,,,,,,,,,,,,,,,,,,,,,,,,,,,,,,,,,,168,planta,Catalan,Sounds/cat_planta.mp3,2020-06-28_17h35.08.619,TranslationElicitation_spa,3.2.4,Win32,60,5ede1a11281b7602eb5cf5ea,,1,0,80,60,1,79
,,,,,,,,,,,,,,,,,,,,,,,,,,,,,,,,,,,c,1.565000057,C,FALSE,,,,,,,188,xocolata,Catalan,Sounds/cat_xocolata.mp3,2020-06-28_17h35.08.619,TranslationElicitation_spa,3.2.4,Win32,60,5ede1a11281b7602eb5cf5ea,,1,0,80,78,1,79
,,,,,,,,,,,,,,,,,,,,,,,,,,,,,,,,,,,h,1.745000124,CH,FALSE,,,,,,,188,xocolata,Catalan,Sounds/cat_xocolata.mp3,2020-06-28_17h35.08.619,TranslationElicitation_spa,3.2.4,Win32,60,5ede1a11281b7602eb5cf5ea,,1,0,80,78,1,79
,,,,,,,,,,,,,,,,,,,,,,,,,,,,,,,,,,,o,1.91899991,CHO,FALSE,,,,,,,188,xocolata,Catalan,Sounds/cat_xocolata.mp3,2020-06-28_17h35.08.619,TranslationElicitation_spa,3.2.4,Win32,60,5ede1a11281b7602eb5cf5ea,,1,0,80,78,1,79
,,,,,,,,,,,,,,,,,,,,,,,,,,,,,,,,,,,c,2.069999933,CHOC,FALSE,,,,,,,188,xocolata,Catalan,Sounds/cat_xocolata.mp3,2020-06-28_17h35.08.619,TranslationElicitation_spa,3.2.4,Win32,60,5ede1a11281b7602eb5cf5ea,,1,0,80,78,1,79
,,,,,,,,,,,,,,,,,,,,,,,,,,,,,,,,,,,o,2.178999901,CHOCO,FALSE,,,,,,,188,xocolata,Catalan,Sounds/cat_xocolata.mp3,2020-06-28_17h35.08.619,TranslationElicitation_spa,3.2.4,Win32,60,5ede1a11281b7602eb5cf5ea,,1,0,80,78,1,79
,,,,,,,,,,,,,,,,,,,,,,,,,,,,,,,,,,,l,2.351000071,CHOCOL,FALSE,,,,,,,188,xocolata,Catalan,Sounds/cat_xocolata.mp3,2020-06-28_17h35.08.619,TranslationElicitation_spa,3.2.4,Win32,60,5ede1a11281b7602eb5cf5ea,,1,0,80,78,1,79
,,,,,,,,,,,,,,,,,,,,,,,,,,,,,,,,,,,a,2.512000084,CHOCOLA,FALSE,,,,,,,188,xocolata,Catalan,Sounds/cat_xocolata.mp3,2020-06-28_17h35.08.619,TranslationElicitation_spa,3.2.4,Win32,60,5ede1a11281b7602eb5cf5ea,,1,0,80,78,1,79
,,,,,,,,,,,,,,,,,,,,,,,,,,,,,,,,,,,t,2.75,CHOCOLAT,FALSE,,,,,,,188,xocolata,Catalan,Sounds/cat_xocolata.mp3,2020-06-28_17h35.08.619,TranslationElicitation_spa,3.2.4,Win32,60,5ede1a11281b7602eb5cf5ea,,1,0,80,78,1,79
,,,,,,,,,,,,,,,,,,,,,,,,,,,,,,,,,,,e,2.927000046,CHOCOLATE,FALSE,,,,,,,188,xocolata,Catalan,Sounds/cat_xocolata.mp3,2020-06-28_17h35.08.619,TranslationElicitation_spa,3.2.4,Win32,60,5ede1a11281b7602eb5cf5ea,,1,0,80,78,1,79
,,,,,,,,,,,,,,,,,,,,,,,,,,,,,,,,,,,return,3.25999999,,FALSE,,,,,,,188,xocolata,Catalan,Sounds/cat_xocolata.mp3,2020-06-28_17h35.08.619,TranslationElicitation_spa,3.2.4,Win32,60,5ede1a11281b7602eb5cf5ea,3.25999999,1,0,80,78,1,79
,,,,,,,,,,,,,,,,,,,,,,,,,,,,,,,,,,,,,,,,,,,,,188,xocolata,Catalan,Sounds/cat_xocolata.mp3,2020-06-28_17h35.08.619,TranslationElicitation_spa,3.2.4,Win32,60,5ede1a11281b7602eb5cf5ea,,1,0,80,78,1,79
,,,,,,,,,,,,,,,,,,,,,,,,,,,,,,,,,,,c,1.394000053,C,FALSE,,,,,,,120,cama,Catalan,Sounds/cat_cama.mp3,2020-06-28_17h35.08.619,TranslationElicitation_spa,3.2.4,Win32,60,5ede1a11281b7602eb5cf5ea,,1,0,80,15,1,79
,,,,,,,,,,,,,,,,,,,,,,,,,,,,,,,,,,,a,1.526000023,CA,FALSE,,,,,,,120,cama,Catalan,Sounds/cat_cama.mp3,2020-06-28_17h35.08.619,TranslationElicitation_spa,3.2.4,Win32,60,5ede1a11281b7602eb5cf5ea,,1,0,80,15,1,79
,,,,,,,,,,,,,,,,,,,,,,,,,,,,,,,,,,,m,1.851000071,CAM,FALSE,,,,,,,120,cama,Catalan,Sounds/cat_cama.mp3,2020-06-28_17h35.08.619,TranslationElicitation_spa,3.2.4,Win32,60,5ede1a11281b7602eb5cf5ea,,1,0,80,15,1,79
,,,,,,,,,,,,,,,,,,,,,,,,,,,,,,,,,,,a,1.980000019,CAMA,FALSE,,,,,,,120,cama,Catalan,Sounds/cat_cama.mp3,2020-06-28_17h35.08.619,TranslationElicitation_spa,3.2.4,Win32,60,5ede1a11281b7602eb5cf5ea,,1,0,80,15,1,79
,,,,,,,,,,,,,,,,,,,,,,,,,,,,,,,,,,,return,2.358999968,,FALSE,,,,,,,120,cama,Catalan,Sounds/cat_cama.mp3,2020-06-28_17h35.08.619,TranslationElicitation_spa,3.2.4,Win32,60,5ede1a11281b7602eb5cf5ea,2.358999968,1,0,80,15,1,79
,,,,,,,,,,,,,,,,,,,,,,,,,,,,,,,,,,,,,,,,,,,,,120,cama,Catalan,Sounds/cat_cama.mp3,2020-06-28_17h35.08.619,TranslationElicitation_spa,3.2.4,Win32,60,5ede1a11281b7602eb5cf5ea,,1,0,80,15,1,79
,,,,,,,,,,,,,,,,,,,,,,,,,,,,,,,,,,,g,1.779999971,G,FALSE,,,,,,,143,globus,Catalan,Sounds/cat_globus.mp3,2020-06-28_17h35.08.619,TranslationElicitation_spa,3.2.4,Win32,60,5ede1a11281b7602eb5cf5ea,,1,0,80,38,1,79
,,,,,,,,,,,,,,,,,,,,,,,,,,,,,,,,,,,l,1.93599987,GL,FALSE,,,,,,,143,globus,Catalan,Sounds/cat_globus.mp3,2020-06-28_17h35.08.619,TranslationElicitation_spa,3.2.4,Win32,60,5ede1a11281b7602eb5cf5ea,,1,0,80,38,1,79
,,,,,,,,,,,,,,,,,,,,,,,,,,,,,,,,,,,o,2.113999844,GLO,FALSE,,,,,,,143,globus,Catalan,Sounds/cat_globus.mp3,2020-06-28_17h35.08.619,TranslationElicitation_spa,3.2.4,Win32,60,5ede1a11281b7602eb5cf5ea,,1,0,80,38,1,79
,,,,,,,,,,,,,,,,,,,,,,,,,,,,,,,,,,,b,2.319999933,GLOB,FALSE,,,,,,,143,globus,Catalan,Sounds/cat_globus.mp3,2020-06-28_17h35.08.619,TranslationElicitation_spa,3.2.4,Win32,60,5ede1a11281b7602eb5cf5ea,,1,0,80,38,1,79
,,,,,,,,,,,,,,,,,,,,,,,,,,,,,,,,,,,o,2.486999989,GLOBO,FALSE,,,,,,,143,globus,Catalan,Sounds/cat_globus.mp3,2020-06-28_17h35.08.619,TranslationElicitation_spa,3.2.4,Win32,60,5ede1a11281b7602eb5cf5ea,,1,0,80,38,1,79
,,,,,,,,,,,,,,,,,,,,,,,,,,,,,,,,,,,return,2.752999783,,FALSE,,,,,,,143,globus,Catalan,Sounds/cat_globus.mp3,2020-06-28_17h35.08.619,TranslationElicitation_spa,3.2.4,Win32,60,5ede1a11281b7602eb5cf5ea,2.752999783,1,0,80,38,1,79
,,,,,,,,,,,,,,,,,,,,,,,,,,,,,,,,,,,,,,,,,,,,,143,globus,Catalan,Sounds/cat_globus.mp3,2020-06-28_17h35.08.619,TranslationElicitation_spa,3.2.4,Win32,60,5ede1a11281b7602eb5cf5ea,,1,0,80,38,1,79
,,,,,,,,,,,,,,,,,,,,,,,,,,,,,,,,,,,g,1.496999979,G,FALSE,,,,,,,139,galleda,Catalan,Sounds/cat_galleda.mp3,2020-06-28_17h35.08.619,TranslationElicitation_spa,3.2.4,Win32,60,5ede1a11281b7602eb5cf5ea,,1,0,80,34,1,79
,,,,,,,,,,,,,,,,,,,,,,,,,,,,,,,,,,,a,1.684999943,GA,FALSE,,,,,,,139,galleda,Catalan,Sounds/cat_galleda.mp3,2020-06-28_17h35.08.619,TranslationElicitation_spa,3.2.4,Win32,60,5ede1a11281b7602eb5cf5ea,,1,0,80,34,1,79
,,,,,,,,,,,,,,,,,,,,,,,,,,,,,,,,,,,l,2.006999969,GAL,FALSE,,,,,,,139,galleda,Catalan,Sounds/cat_galleda.mp3,2020-06-28_17h35.08.619,TranslationElicitation_spa,3.2.4,Win32,60,5ede1a11281b7602eb5cf5ea,,1,0,80,34,1,79
,,,,,,,,,,,,,,,,,,,,,,,,,,,,,,,,,,,l,2.121999979,GALL,FALSE,,,,,,,139,galleda,Catalan,Sounds/cat_galleda.mp3,2020-06-28_17h35.08.619,TranslationElicitation_spa,3.2.4,Win32,60,5ede1a11281b7602eb5cf5ea,,1,0,80,34,1,79
,,,,,,,,,,,,,,,,,,,,,,,,,,,,,,,,,,,e,2.263999939,GALLE,FALSE,,,,,,,139,galleda,Catalan,Sounds/cat_galleda.mp3,2020-06-28_17h35.08.619,TranslationElicitation_spa,3.2.4,Win32,60,5ede1a11281b7602eb5cf5ea,,1,0,80,34,1,79
,,,,,,,,,,,,,,,,,,,,,,,,,,,,,,,,,,,g,2.951999903,GALLEG,FALSE,,,,,,,139,galleda,Catalan,Sounds/cat_galleda.mp3,2020-06-28_17h35.08.619,TranslationElicitation_spa,3.2.4,Win32,60,5ede1a11281b7602eb5cf5ea,,1,0,80,34,1,79
,,,,,,,,,,,,,,,,,,,,,,,,,,,,,,,,,,,a,3.099999905,GALLEGA,FALSE,,,,,,,139,galleda,Catalan,Sounds/cat_galleda.mp3,2020-06-28_17h35.08.619,TranslationElicitation_spa,3.2.4,Win32,60,5ede1a11281b7602eb5cf5ea,,1,0,80,34,1,79
,,,,,,,,,,,,,,,,,,,,,,,,,,,,,,,,,,,return,3.444000006,,FALSE,,,,,,,139,galleda,Catalan,Sounds/cat_galleda.mp3,2020-06-28_17h35.08.619,TranslationElicitation_spa,3.2.4,Win32,60,5ede1a11281b7602eb5cf5ea,3.444000006,1,0,80,34,1,79
,,,,,,,,,,,,,,,,,,,,,,,,,,,,,,,,,,,,,,,,,,,,,139,galleda,Catalan,Sounds/cat_galleda.mp3,2020-06-28_17h35.08.619,TranslationElicitation_spa,3.2.4,Win32,60,5ede1a11281b7602eb5cf5ea,,1,0,80,34,1,79
,,,,,,,,,,,,,,,,,,,,,,,,,,,,,,,,,,,p,1.523000002,P,FALSE,,,,,,,174,porta,Catalan,Sounds/cat_porta.mp3,2020-06-28_17h35.08.619,TranslationElicitation_spa,3.2.4,Win32,60,5ede1a11281b7602eb5cf5ea,,1,0,80,66,1,79
,,,,,,,,,,,,,,,,,,,,,,,,,,,,,,,,,,,u,2.02699995,PU,FALSE,,,,,,,174,porta,Catalan,Sounds/cat_porta.mp3,2020-06-28_17h35.08.619,TranslationElicitation_spa,3.2.4,Win32,60,5ede1a11281b7602eb5cf5ea,,1,0,80,66,1,79
,,,,,,,,,,,,,,,,,,,,,,,,,,,,,,,,,,,e,2.186000109,PUE,FALSE,,,,,,,174,porta,Catalan,Sounds/cat_porta.mp3,2020-06-28_17h35.08.619,TranslationElicitation_spa,3.2.4,Win32,60,5ede1a11281b7602eb5cf5ea,,1,0,80,66,1,79
,,,,,,,,,,,,,,,,,,,,,,,,,,,,,,,,,,,r,2.368999958,PUER,FALSE,,,,,,,174,porta,Catalan,Sounds/cat_porta.mp3,2020-06-28_17h35.08.619,TranslationElicitation_spa,3.2.4,Win32,60,5ede1a11281b7602eb5cf5ea,,1,0,80,66,1,79
,,,,,,,,,,,,,,,,,,,,,,,,,,,,,,,,,,,t,2.503000021,PUERT,FALSE,,,,,,,174,porta,Catalan,Sounds/cat_porta.mp3,2020-06-28_17h35.08.619,TranslationElicitation_spa,3.2.4,Win32,60,5ede1a11281b7602eb5cf5ea,,1,0,80,66,1,79
,,,,,,,,,,,,,,,,,,,,,,,,,,,,,,,,,,,a,2.71600008,PUERTA,FALSE,,,,,,,174,porta,Catalan,Sounds/cat_porta.mp3,2020-06-28_17h35.08.619,TranslationElicitation_spa,3.2.4,Win32,60,5ede1a11281b7602eb5cf5ea,,1,0,80,66,1,79
,,,,,,,,,,,,,,,,,,,,,,,,,,,,,,,,,,,return,2.977999926,,FALSE,,,,,,,174,porta,Catalan,Sounds/cat_porta.mp3,2020-06-28_17h35.08.619,TranslationElicitation_spa,3.2.4,Win32,60,5ede1a11281b7602eb5cf5ea,2.977999926,1,0,80,66,1,79
,,,,,,,,,,,,,,,,,,,,,,,,,,,,,,,,,,,,,,,,,,,,,174,porta,Catalan,Sounds/cat_porta.mp3,2020-06-28_17h35.08.619,TranslationElicitation_spa,3.2.4,Win32,60,5ede1a11281b7602eb5cf5ea,,1,0,80,66,1,79
,,,,,,,,,,,,,,,,,,,,,,,,,,,,,,,,,,,s,2.436999798,S,FALSE,,,,,,,157,mussol,Catalan,Sounds/cat_mussol.mp3,2020-06-28_17h35.08.619,TranslationElicitation_spa,3.2.4,Win32,60,5ede1a11281b7602eb5cf5ea,,1,0,80,51,1,79
,,,,,,,,,,,,,,,,,,,,,,,,,,,,,,,,,,,o,2.610999823,SO,FALSE,,,,,,,157,mussol,Catalan,Sounds/cat_mussol.mp3,2020-06-28_17h35.08.619,TranslationElicitation_spa,3.2.4,Win32,60,5ede1a11281b7602eb5cf5ea,,1,0,80,51,1,79
,,,,,,,,,,,,,,,,,,,,,,,,,,,,,,,,,,,l,2.791999817,SOL,FALSE,,,,,,,157,mussol,Catalan,Sounds/cat_mussol.mp3,2020-06-28_17h35.08.619,TranslationElicitation_spa,3.2.4,Win32,60,5ede1a11281b7602eb5cf5ea,,1,0,80,51,1,79
,,,,,,,,,,,,,,,,,,,,,,,,,,,,,,,,,,,return,3.413999796,,FALSE,,,,,,,157,mussol,Catalan,Sounds/cat_mussol.mp3,2020-06-28_17h35.08.619,TranslationElicitation_spa,3.2.4,Win32,60,5ede1a11281b7602eb5cf5ea,3.413999796,1,0,80,51,1,79
,,,,,,,,,,,,,,,,,,,,,,,,,,,,,,,,,,,,,,,,,,,,,157,mussol,Catalan,Sounds/cat_mussol.mp3,2020-06-28_17h35.08.619,TranslationElicitation_spa,3.2.4,Win32,60,5ede1a11281b7602eb5cf5ea,,1,0,80,51,1,79
,,,,,,,,,,,,,,,,,,,,,,,,,,,,,,,,,,,g,2.269000053,G,FALSE,,,,,,,140,gat,Catalan,Sounds/cat_gat.mp3,2020-06-28_17h35.08.619,TranslationElicitation_spa,3.2.4,Win32,60,5ede1a11281b7602eb5cf5ea,,1,0,80,35,1,79
,,,,,,,,,,,,,,,,,,,,,,,,,,,,,,,,,,,a,2.496999979,GA,FALSE,,,,,,,140,gat,Catalan,Sounds/cat_gat.mp3,2020-06-28_17h35.08.619,TranslationElicitation_spa,3.2.4,Win32,60,5ede1a11281b7602eb5cf5ea,,1,0,80,35,1,79
,,,,,,,,,,,,,,,,,,,,,,,,,,,,,,,,,,,t,2.687000036,GAT,FALSE,,,,,,,140,gat,Catalan,Sounds/cat_gat.mp3,2020-06-28_17h35.08.619,TranslationElicitation_spa,3.2.4,Win32,60,5ede1a11281b7602eb5cf5ea,,1,0,80,35,1,79
,,,,,,,,,,,,,,,,,,,,,,,,,,,,,,,,,,,o,3.103000164,GATO,FALSE,,,,,,,140,gat,Catalan,Sounds/cat_gat.mp3,2020-06-28_17h35.08.619,TranslationElicitation_spa,3.2.4,Win32,60,5ede1a11281b7602eb5cf5ea,,1,0,80,35,1,79
,,,,,,,,,,,,,,,,,,,,,,,,,,,,,,,,,,,return,3.561000109,,FALSE,,,,,,,140,gat,Catalan,Sounds/cat_gat.mp3,2020-06-28_17h35.08.619,TranslationElicitation_spa,3.2.4,Win32,60,5ede1a11281b7602eb5cf5ea,3.561000109,1,0,80,35,1,79
,,,,,,,,,,,,,,,,,,,,,,,,,,,,,,,,,,,,,,,,,,,,,140,gat,Catalan,Sounds/cat_gat.mp3,2020-06-28_17h35.08.619,TranslationElicitation_spa,3.2.4,Win32,60,5ede1a11281b7602eb5cf5ea,,1,0,80,35,1,79
,,,,,,,,,,,,,,,,,,,,,,,,,,,,,,,,,,,m,3.194000006,M,FALSE,,,,,,,131,esponja,Catalan,Sounds/cat_esponja.mp3,2020-06-28_17h35.08.619,TranslationElicitation_spa,3.2.4,Win32,60,5ede1a11281b7602eb5cf5ea,,1,0,80,26,1,79
,,,,,,,,,,,,,,,,,,,,,,,,,,,,,,,,,,,a,3.366000175,MA,FALSE,,,,,,,131,esponja,Catalan,Sounds/cat_esponja.mp3,2020-06-28_17h35.08.619,TranslationElicitation_spa,3.2.4,Win32,60,5ede1a11281b7602eb5cf5ea,,1,0,80,26,1,79
,,,,,,,,,,,,,,,,,,,,,,,,,,,,,,,,,,,semicolon,3.545000076,MAÑ,FALSE,,,,,,,131,esponja,Catalan,Sounds/cat_esponja.mp3,2020-06-28_17h35.08.619,TranslationElicitation_spa,3.2.4,Win32,60,5ede1a11281b7602eb5cf5ea,,1,0,80,26,1,79
,,,,,,,,,,,,,,,,,,,,,,,,,,,,,,,,,,,a,3.779000044,MAÑA,FALSE,,,,,,,131,esponja,Catalan,Sounds/cat_esponja.mp3,2020-06-28_17h35.08.619,TranslationElicitation_spa,3.2.4,Win32,60,5ede1a11281b7602eb5cf5ea,,1,0,80,26,1,79
,,,,,,,,,,,,,,,,,,,,,,,,,,,,,,,,,,,n,4.116000175,MAÑAN,FALSE,,,,,,,131,esponja,Catalan,Sounds/cat_esponja.mp3,2020-06-28_17h35.08.619,TranslationElicitation_spa,3.2.4,Win32,60,5ede1a11281b7602eb5cf5ea,,1,0,80,26,1,79
,,,,,,,,,,,,,,,,,,,,,,,,,,,,,,,,,,,a,4.323000193,MAÑANA,FALSE,,,,,,,131,esponja,Catalan,Sounds/cat_esponja.mp3,2020-06-28_17h35.08.619,TranslationElicitation_spa,3.2.4,Win32,60,5ede1a11281b7602eb5cf5ea,,1,0,80,26,1,79
,,,,,,,,,,,,,,,,,,,,,,,,,,,,,,,,,,,return,4.894000053,,FALSE,,,,,,,131,esponja,Catalan,Sounds/cat_esponja.mp3,2020-06-28_17h35.08.619,TranslationElicitation_spa,3.2.4,Win32,60,5ede1a11281b7602eb5cf5ea,4.893000126,1,0,80,26,1,79
,,,,,,,,,,,,,,,,,,,,,,,,,,,,,,,,,,,,,,,,,,,,,131,esponja,Catalan,Sounds/cat_esponja.mp3,2020-06-28_17h35.08.619,TranslationElicitation_spa,3.2.4,Win32,60,5ede1a11281b7602eb5cf5ea,,1,0,80,26,1,79
,,,,,,,,,,,,,,,,,,,,,,,,,,,,,,,,,,,c,4.85800004,C,FALSE,,,,,,,125,colom,Catalan,Sounds/cat_colom.mp3,2020-06-28_17h35.08.619,TranslationElicitation_spa,3.2.4,Win32,60,5ede1a11281b7602eb5cf5ea,,1,0,80,20,1,79
,,,,,,,,,,,,,,,,,,,,,,,,,,,,,,,,,,,o,5.225000143,CO,FALSE,,,,,,,125,colom,Catalan,Sounds/cat_colom.mp3,2020-06-28_17h35.08.619,TranslationElicitation_spa,3.2.4,Win32,60,5ede1a11281b7602eb5cf5ea,,1,0,80,20,1,79
,,,,,,,,,,,,,,,,,,,,,,,,,,,,,,,,,,,backspace,5.913000107,,TRUE,,,,,,,125,colom,Catalan,Sounds/cat_colom.mp3,2020-06-28_17h35.08.619,TranslationElicitation_spa,3.2.4,Win32,60,5ede1a11281b7602eb5cf5ea,,1,0,80,20,1,79
,,,,,,,,,,,,,,,,,,,,,,,,,,,,,,,,,,,c,7.187000036,C,TRUE,,,,,,,125,colom,Catalan,Sounds/cat_colom.mp3,2020-06-28_17h35.08.619,TranslationElicitation_spa,3.2.4,Win32,60,5ede1a11281b7602eb5cf5ea,,1,0,80,20,1,79
,,,,,,,,,,,,,,,,,,,,,,,,,,,,,,,,,,,u,7.350000143,CU,TRUE,,,,,,,125,colom,Catalan,Sounds/cat_colom.mp3,2020-06-28_17h35.08.619,TranslationElicitation_spa,3.2.4,Win32,60,5ede1a11281b7602eb5cf5ea,,1,0,80,20,1,79
,,,,,,,,,,,,,,,,,,,,,,,,,,,,,,,,,,,l,7.601000071,CUL,TRUE,,,,,,,125,colom,Catalan,Sounds/cat_colom.mp3,2020-06-28_17h35.08.619,TranslationElicitation_spa,3.2.4,Win32,60,5ede1a11281b7602eb5cf5ea,,1,0,80,20,1,79
,,,,,,,,,,,,,,,,,,,,,,,,,,,,,,,,,,,o,7.75999999,CULO,TRUE,,,,,,,125,colom,Catalan,Sounds/cat_colom.mp3,2020-06-28_17h35.08.619,TranslationElicitation_spa,3.2.4,Win32,60,5ede1a11281b7602eb5cf5ea,,1,0,80,20,1,79
,,,,,,,,,,,,,,,,,,,,,,,,,,,,,,,,,,,return,8.119000196,,TRUE,,,,,,,125,colom,Catalan,Sounds/cat_colom.mp3,2020-06-28_17h35.08.619,TranslationElicitation_spa,3.2.4,Win32,60,5ede1a11281b7602eb5cf5ea,8.119000196,1,0,80,20,1,79
,,,,,,,,,,,,,,,,,,,,,,,,,,,,,,,,,,,,,,,,,,,,,125,colom,Catalan,Sounds/cat_colom.mp3,2020-06-28_17h35.08.619,TranslationElicitation_spa,3.2.4,Win32,60,5ede1a11281b7602eb5cf5ea,,1,0,80,20,1,79
,,,,,,,,,,,,,,,,,,,,,,,,,,,,,,,,,,,a,2.467000008,A,FALSE,,,,,,,107,amanida,Catalan,Sounds/cat_amanida.mp3,2020-06-28_17h35.08.619,TranslationElicitation_spa,3.2.4,Win32,60,5ede1a11281b7602eb5cf5ea,,1,0,80,3,1,79
,,,,,,,,,,,,,,,,,,,,,,,,,,,,,,,,,,,b,2.621999979,AB,FALSE,,,,,,,107,amanida,Catalan,Sounds/cat_amanida.mp3,2020-06-28_17h35.08.619,TranslationElicitation_spa,3.2.4,Win32,60,5ede1a11281b7602eb5cf5ea,,1,0,80,3,1,79
,,,,,,,,,,,,,,,,,,,,,,,,,,,,,,,,,,,a,2.753999949,ABA,FALSE,,,,,,,107,amanida,Catalan,Sounds/cat_amanida.mp3,2020-06-28_17h35.08.619,TranslationElicitation_spa,3.2.4,Win32,60,5ede1a11281b7602eb5cf5ea,,1,0,80,3,1,79
,,,,,,,,,,,,,,,,,,,,,,,,,,,,,,,,,,,n,2.904999971,ABAN,FALSE,,,,,,,107,amanida,Catalan,Sounds/cat_amanida.mp3,2020-06-28_17h35.08.619,TranslationElicitation_spa,3.2.4,Win32,60,5ede1a11281b7602eb5cf5ea,,1,0,80,3,1,79
,,,,,,,,,,,,,,,,,,,,,,,,,,,,,,,,,,,i,3.200000048,ABANI,FALSE,,,,,,,107,amanida,Catalan,Sounds/cat_amanida.mp3,2020-06-28_17h35.08.619,TranslationElicitation_spa,3.2.4,Win32,60,5ede1a11281b7602eb5cf5ea,,1,0,80,3,1,79
,,,,,,,,,,,,,,,,,,,,,,,,,,,,,,,,,,,c,3.40199995,ABANIC,FALSE,,,,,,,107,amanida,Catalan,Sounds/cat_amanida.mp3,2020-06-28_17h35.08.619,TranslationElicitation_spa,3.2.4,Win32,60,5ede1a11281b7602eb5cf5ea,,1,0,80,3,1,79
,,,,,,,,,,,,,,,,,,,,,,,,,,,,,,,,,,,o,3.578000069,ABANICO,FALSE,,,,,,,107,amanida,Catalan,Sounds/cat_amanida.mp3,2020-06-28_17h35.08.619,TranslationElicitation_spa,3.2.4,Win32,60,5ede1a11281b7602eb5cf5ea,,1,0,80,3,1,79
,,,,,,,,,,,,,,,,,,,,,,,,,,,,,,,,,,,return,4.190000057,,FALSE,,,,,,,107,amanida,Catalan,Sounds/cat_amanida.mp3,2020-06-28_17h35.08.619,TranslationElicitation_spa,3.2.4,Win32,60,5ede1a11281b7602eb5cf5ea,4.190000057,1,0,80,3,1,79
,,,,,,,,,,,,,,,,,,,,,,,,,,,,,,,,,,,,,,,,,,,,,107,amanida,Catalan,Sounds/cat_amanida.mp3,2020-06-28_17h35.08.619,TranslationElicitation_spa,3.2.4,Win32,60,5ede1a11281b7602eb5cf5ea,,1,0,80,3,1,79
,,,,,,,,,,,,,,,,,,,,,,,,,,,,,,,,,,,f,2.027999878,F,FALSE,,,,,,,137,fulla,Catalan,Sounds/cat_fulla.mp3,2020-06-28_17h35.08.619,TranslationElicitation_spa,3.2.4,Win32,60,5ede1a11281b7602eb5cf5ea,,1,0,80,32,1,79
,,,,,,,,,,,,,,,,,,,,,,,,,,,,,,,,,,,u,2.231999874,FU,FALSE,,,,,,,137,fulla,Catalan,Sounds/cat_fulla.mp3,2020-06-28_17h35.08.619,TranslationElicitation_spa,3.2.4,Win32,60,5ede1a11281b7602eb5cf5ea,,1,0,80,32,1,79
,,,,,,,,,,,,,,,,,,,,,,,,,,,,,,,,,,,n,2.394999981,FUN,FALSE,,,,,,,137,fulla,Catalan,Sounds/cat_fulla.mp3,2020-06-28_17h35.08.619,TranslationElicitation_spa,3.2.4,Win32,60,5ede1a11281b7602eb5cf5ea,,1,0,80,32,1,79
,,,,,,,,,,,,,,,,,,,,,,,,,,,,,,,,,,,d,2.527999878,FUND,FALSE,,,,,,,137,fulla,Catalan,Sounds/cat_fulla.mp3,2020-06-28_17h35.08.619,TranslationElicitation_spa,3.2.4,Win32,60,5ede1a11281b7602eb5cf5ea,,1,0,80,32,1,79
,,,,,,,,,,,,,,,,,,,,,,,,,,,,,,,,,,,return,3.0849998,,FALSE,,,,,,,137,fulla,Catalan,Sounds/cat_fulla.mp3,2020-06-28_17h35.08.619,TranslationElicitation_spa,3.2.4,Win32,60,5ede1a11281b7602eb5cf5ea,3.0849998,1,0,80,32,1,79
,,,,,,,,,,,,,,,,,,,,,,,,,,,,,,,,,,,,,,,,,,,,,137,fulla,Catalan,Sounds/cat_fulla.mp3,2020-06-28_17h35.08.619,TranslationElicitation_spa,3.2.4,Win32,60,5ede1a11281b7602eb5cf5ea,,1,0,80,32,1,79
,,,,,,,,,,,,,,,,,,,,,,,,,,,,,,,,,,,o,2.849999905,O,FALSE,,,,,,,185,ulleres,Catalan,Sounds/cat_ulleres.mp3,2020-06-28_17h35.08.619,TranslationElicitation_spa,3.2.4,Win32,60,5ede1a11281b7602eb5cf5ea,,1,0,80,76,1,79
,,,,,,,,,,,,,,,,,,,,,,,,,,,,,,,,,,,r,3.030999899,OR,FALSE,,,,,,,185,ulleres,Catalan,Sounds/cat_ulleres.mp3,2020-06-28_17h35.08.619,TranslationElicitation_spa,3.2.4,Win32,60,5ede1a11281b7602eb5cf5ea,,1,0,80,76,1,79
,,,,,,,,,,,,,,,,,,,,,,,,,,,,,,,,,,,e,3.233999968,ORE,FALSE,,,,,,,185,ulleres,Catalan,Sounds/cat_ulleres.mp3,2020-06-28_17h35.08.619,TranslationElicitation_spa,3.2.4,Win32,60,5ede1a11281b7602eb5cf5ea,,1,0,80,76,1,79
,,,,,,,,,,,,,,,,,,,,,,,,,,,,,,,,,,,j,3.615999937,OREJ,FALSE,,,,,,,185,ulleres,Catalan,Sounds/cat_ulleres.mp3,2020-06-28_17h35.08.619,TranslationElicitation_spa,3.2.4,Win32,60,5ede1a11281b7602eb5cf5ea,,1,0,80,76,1,79
,,,,,,,,,,,,,,,,,,,,,,,,,,,,,,,,,,,e,3.733999968,OREJE,FALSE,,,,,,,185,ulleres,Catalan,Sounds/cat_ulleres.mp3,2020-06-28_17h35.08.619,TranslationElicitation_spa,3.2.4,Win32,60,5ede1a11281b7602eb5cf5ea,,1,0,80,76,1,79
,,,,,,,,,,,,,,,,,,,,,,,,,,,,,,,,,,,r,3.941999912,OREJER,FALSE,,,,,,,185,ulleres,Catalan,Sounds/cat_ulleres.mp3,2020-06-28_17h35.08.619,TranslationElicitation_spa,3.2.4,Win32,60,5ede1a11281b7602eb5cf5ea,,1,0,80,76,1,79
,,,,,,,,,,,,,,,,,,,,,,,,,,,,,,,,,,,a,4.136999846,OREJERA,FALSE,,,,,,,185,ulleres,Catalan,Sounds/cat_ulleres.mp3,2020-06-28_17h35.08.619,TranslationElicitation_spa,3.2.4,Win32,60,5ede1a11281b7602eb5cf5ea,,1,0,80,76,1,79
,,,,,,,,,,,,,,,,,,,,,,,,,,,,,,,,,,,s,4.32799983,OREJERAS,FALSE,,,,,,,185,ulleres,Catalan,Sounds/cat_ulleres.mp3,2020-06-28_17h35.08.619,TranslationElicitation_spa,3.2.4,Win32,60,5ede1a11281b7602eb5cf5ea,,1,0,80,76,1,79
,,,,,,,,,,,,,,,,,,,,,,,,,,,,,,,,,,,return,4.757999897,,FALSE,,,,,,,185,ulleres,Catalan,Sounds/cat_ulleres.mp3,2020-06-28_17h35.08.619,TranslationElicitation_spa,3.2.4,Win32,60,5ede1a11281b7602eb5cf5ea,4.757999897,1,0,80,76,1,79
,,,,,,,,,,,,,,,,,,,,,,,,,,,,,,,,,,,,,,,,,,,,,185,ulleres,Catalan,Sounds/cat_ulleres.mp3,2020-06-28_17h35.08.619,TranslationElicitation_spa,3.2.4,Win32,60,5ede1a11281b7602eb5cf5ea,,1,0,80,76,1,79
,,,,,,,,,,,,,,,,,,,,,,,,,,,,,,,,,,,c,1.667000055,C,FALSE,,,,,,,121,camisa,Catalan,Sounds/cat_camisa.mp3,2020-06-28_17h35.08.619,TranslationElicitation_spa,3.2.4,Win32,60,5ede1a11281b7602eb5cf5ea,,1,0,80,16,1,79
,,,,,,,,,,,,,,,,,,,,,,,,,,,,,,,,,,,a,1.881000042,CA,FALSE,,,,,,,121,camisa,Catalan,Sounds/cat_camisa.mp3,2020-06-28_17h35.08.619,TranslationElicitation_spa,3.2.4,Win32,60,5ede1a11281b7602eb5cf5ea,,1,0,80,16,1,79
,,,,,,,,,,,,,,,,,,,,,,,,,,,,,,,,,,,m,2.118999958,CAM,FALSE,,,,,,,121,camisa,Catalan,Sounds/cat_camisa.mp3,2020-06-28_17h35.08.619,TranslationElicitation_spa,3.2.4,Win32,60,5ede1a11281b7602eb5cf5ea,,1,0,80,16,1,79
,,,,,,,,,,,,,,,,,,,,,,,,,,,,,,,,,,,i,2.313999891,CAMI,FALSE,,,,,,,121,camisa,Catalan,Sounds/cat_camisa.mp3,2020-06-28_17h35.08.619,TranslationElicitation_spa,3.2.4,Win32,60,5ede1a11281b7602eb5cf5ea,,1,0,80,16,1,79
,,,,,,,,,,,,,,,,,,,,,,,,,,,,,,,,,,,s,2.431999922,CAMIS,FALSE,,,,,,,121,camisa,Catalan,Sounds/cat_camisa.mp3,2020-06-28_17h35.08.619,TranslationElicitation_spa,3.2.4,Win32,60,5ede1a11281b7602eb5cf5ea,,1,0,80,16,1,79
,,,,,,,,,,,,,,,,,,,,,,,,,,,,,,,,,,,a,2.622999907,CAMISA,FALSE,,,,,,,121,camisa,Catalan,Sounds/cat_camisa.mp3,2020-06-28_17h35.08.619,TranslationElicitation_spa,3.2.4,Win32,60,5ede1a11281b7602eb5cf5ea,,1,0,80,16,1,79
,,,,,,,,,,,,,,,,,,,,,,,,,,,,,,,,,,,return,2.937999964,,FALSE,,,,,,,121,camisa,Catalan,Sounds/cat_camisa.mp3,2020-06-28_17h35.08.619,TranslationElicitation_spa,3.2.4,Win32,60,5ede1a11281b7602eb5cf5ea,2.937999964,1,0,80,16,1,79
,,,,,,,,,,,,,,,,,,,,,,,,,,,,,,,,,,,,,,,,,,,,,121,camisa,Catalan,Sounds/cat_camisa.mp3,2020-06-28_17h35.08.619,TranslationElicitation_spa,3.2.4,Win32,60,5ede1a11281b7602eb5cf5ea,,1,0,80,16,1,79
,,,,,,,,,,,,,,,,,,,,,,,,,,,,,,,,,,,g,1.680000067,G,FALSE,,,,,,,142,girafa,Catalan,Sounds/cat_girafa.mp3,2020-06-28_17h35.08.619,TranslationElicitation_spa,3.2.4,Win32,60,5ede1a11281b7602eb5cf5ea,,1,0,80,37,1,79
,,,,,,,,,,,,,,,,,,,,,,,,,,,,,,,,,,,i,2.809000015,GI,FALSE,,,,,,,142,girafa,Catalan,Sounds/cat_girafa.mp3,2020-06-28_17h35.08.619,TranslationElicitation_spa,3.2.4,Win32,60,5ede1a11281b7602eb5cf5ea,,1,0,80,37,1,79
,,,,,,,,,,,,,,,,,,,,,,,,,,,,,,,,,,,backspace,4.154999971,,TRUE,,,,,,,142,girafa,Catalan,Sounds/cat_girafa.mp3,2020-06-28_17h35.08.619,TranslationElicitation_spa,3.2.4,Win32,60,5ede1a11281b7602eb5cf5ea,,1,0,80,37,1,79
,,,,,,,,,,,,,,,,,,,,,,,,,,,,,,,,,,,backspace,4.559000015,,TRUE,,,,,,,142,girafa,Catalan,Sounds/cat_girafa.mp3,2020-06-28_17h35.08.619,TranslationElicitation_spa,3.2.4,Win32,60,5ede1a11281b7602eb5cf5ea,,1,0,80,37,1,79
,,,,,,,,,,,,,,,,,,,,,,,,,,,,,,,,,,,j,5.105000019,J,TRUE,,,,,,,142,girafa,Catalan,Sounds/cat_girafa.mp3,2020-06-28_17h35.08.619,TranslationElicitation_spa,3.2.4,Win32,60,5ede1a11281b7602eb5cf5ea,,1,0,80,37,1,79
,,,,,,,,,,,,,,,,,,,,,,,,,,,,,,,,,,,i,5.284000158,JI,TRUE,,,,,,,142,girafa,Catalan,Sounds/cat_girafa.mp3,2020-06-28_17h35.08.619,TranslationElicitation_spa,3.2.4,Win32,60,5ede1a11281b7602eb5cf5ea,,1,0,80,37,1,79
,,,,,,,,,,,,,,,,,,,,,,,,,,,,,,,,,,,r,5.514000177,JIR,TRUE,,,,,,,142,girafa,Catalan,Sounds/cat_girafa.mp3,2020-06-28_17h35.08.619,TranslationElicitation_spa,3.2.4,Win32,60,5ede1a11281b7602eb5cf5ea,,1,0,80,37,1,79
,,,,,,,,,,,,,,,,,,,,,,,,,,,,,,,,,,,a,5.671000004,JIRA,TRUE,,,,,,,142,girafa,Catalan,Sounds/cat_girafa.mp3,2020-06-28_17h35.08.619,TranslationElicitation_spa,3.2.4,Win32,60,5ede1a11281b7602eb5cf5ea,,1,0,80,37,1,79
,,,,,,,,,,,,,,,,,,,,,,,,,,,,,,,,,,,f,6.032000065,JIRAF,TRUE,,,,,,,142,girafa,Catalan,Sounds/cat_girafa.mp3,2020-06-28_17h35.08.619,TranslationElicitation_spa,3.2.4,Win32,60,5ede1a11281b7602eb5cf5ea,,1,0,80,37,1,79
,,,,,,,,,,,,,,,,,,,,,,,,,,,,,,,,,,,a,6.173000097,JIRAFA,TRUE,,,,,,,142,girafa,Catalan,Sounds/cat_girafa.mp3,2020-06-28_17h35.08.619,TranslationElicitation_spa,3.2.4,Win32,60,5ede1a11281b7602eb5cf5ea,,1,0,80,37,1,79
,,,,,,,,,,,,,,,,,,,,,,,,,,,,,,,,,,,return,7.029000044,,TRUE,,,,,,,142,girafa,Catalan,Sounds/cat_girafa.mp3,2020-06-28_17h35.08.619,TranslationElicitation_spa,3.2.4,Win32,60,5ede1a11281b7602eb5cf5ea,7.029000044,1,0,80,37,1,79
,,,,,,,,,,,,,,,,,,,,,,,,,,,,,,,,,,,,,,,,,,,,,142,girafa,Catalan,Sounds/cat_girafa.mp3,2020-06-28_17h35.08.619,TranslationElicitation_spa,3.2.4,Win32,60,5ede1a11281b7602eb5cf5ea,,1,0,80,37,1,79
,,,,,,,,,,,,,,,,,,,,,,,,,,,,,,,,,,,t,1.640000105,T,FALSE,,,,,,,181,tobogan,Catalan,Sounds/cat_tobogan.mp3,2020-06-28_17h35.08.619,TranslationElicitation_spa,3.2.4,Win32,60,5ede1a11281b7602eb5cf5ea,,1,0,80,72,1,79
,,,,,,,,,,,,,,,,,,,,,,,,,,,,,,,,,,,o,1.819999933,TO,FALSE,,,,,,,181,tobogan,Catalan,Sounds/cat_tobogan.mp3,2020-06-28_17h35.08.619,TranslationElicitation_spa,3.2.4,Win32,60,5ede1a11281b7602eb5cf5ea,,1,0,80,72,1,79
,,,,,,,,,,,,,,,,,,,,,,,,,,,,,,,,,,,b,2.017999887,TOB,FALSE,,,,,,,181,tobogan,Catalan,Sounds/cat_tobogan.mp3,2020-06-28_17h35.08.619,TranslationElicitation_spa,3.2.4,Win32,60,5ede1a11281b7602eb5cf5ea,,1,0,80,72,1,79
,,,,,,,,,,,,,,,,,,,,,,,,,,,,,,,,,,,o,2.125999928,TOBO,FALSE,,,,,,,181,tobogan,Catalan,Sounds/cat_tobogan.mp3,2020-06-28_17h35.08.619,TranslationElicitation_spa,3.2.4,Win32,60,5ede1a11281b7602eb5cf5ea,,1,0,80,72,1,79
,,,,,,,,,,,,,,,,,,,,,,,,,,,,,,,,,,,g,2.354000092,TOBOG,FALSE,,,,,,,181,tobogan,Catalan,Sounds/cat_tobogan.mp3,2020-06-28_17h35.08.619,TranslationElicitation_spa,3.2.4,Win32,60,5ede1a11281b7602eb5cf5ea,,1,0,80,72,1,79
,,,,,,,,,,,,,,,,,,,,,,,,,,,,,,,,,,,apostrophe,3.266000032,TOBOG,FALSE,,,,,,,181,tobogan,Catalan,Sounds/cat_tobogan.mp3,2020-06-28_17h35.08.619,TranslationElicitation_spa,3.2.4,Win32,60,5ede1a11281b7602eb5cf5ea,,1,0,80,72,1,79
,,,,,,,,,,,,,,,,,,,,,,,,,,,,,,,,,,,a,3.448999882,TOBOGÁ,FALSE,,,,,,,181,tobogan,Catalan,Sounds/cat_tobogan.mp3,2020-06-28_17h35.08.619,TranslationElicitation_spa,3.2.4,Win32,60,5ede1a11281b7602eb5cf5ea,,1,0,80,72,1,79
,,,,,,,,,,,,,,,,,,,,,,,,,,,,,,,,,,,n,4.163000107,TOBOGÁN,FALSE,,,,,,,181,tobogan,Catalan,Sounds/cat_tobogan.mp3,2020-06-28_17h35.08.619,TranslationElicitation_spa,3.2.4,Win32,60,5ede1a11281b7602eb5cf5ea,,1,0,80,72,1,79
,,,,,,,,,,,,,,,,,,,,,,,,,,,,,,,,,,,return,4.434999943,,FALSE,,,,,,,181,tobogan,Catalan,Sounds/cat_tobogan.mp3,2020-06-28_17h35.08.619,TranslationElicitation_spa,3.2.4,Win32,60,5ede1a11281b7602eb5cf5ea,4.434999943,1,0,80,72,1,79
,,,,,,,,,,,,,,,,,,,,,,,,,,,,,,,,,,,,,,,,,,,,,181,tobogan,Catalan,Sounds/cat_tobogan.mp3,2020-06-28_17h35.08.619,TranslationElicitation_spa,3.2.4,Win32,60,5ede1a11281b7602eb5cf5ea,,1,0,80,72,1,79
,,,,,,,,,,,,,,,,,,,,,,,,,,,,,,,,,,,p,1.930000067,P,FALSE,,,,,,,170,ploma,Catalan,Sounds/cat_ploma.mp3,2020-06-28_17h35.08.619,TranslationElicitation_spa,3.2.4,Win32,60,5ede1a11281b7602eb5cf5ea,,1,0,80,62,1,79
,,,,,,,,,,,,,,,,,,,,,,,,,,,,,,,,,,,l,2.163000107,PL,FALSE,,,,,,,170,ploma,Catalan,Sounds/cat_ploma.mp3,2020-06-28_17h35.08.619,TranslationElicitation_spa,3.2.4,Win32,60,5ede1a11281b7602eb5cf5ea,,1,0,80,62,1,79
,,,,,,,,,,,,,,,,,,,,,,,,,,,,,,,,,,,u,2.555000067,PLU,FALSE,,,,,,,170,ploma,Catalan,Sounds/cat_ploma.mp3,2020-06-28_17h35.08.619,TranslationElicitation_spa,3.2.4,Win32,60,5ede1a11281b7602eb5cf5ea,,1,0,80,62,1,79
,,,,,,,,,,,,,,,,,,,,,,,,,,,,,,,,,,,m,2.805999994,PLUM,FALSE,,,,,,,170,ploma,Catalan,Sounds/cat_ploma.mp3,2020-06-28_17h35.08.619,TranslationElicitation_spa,3.2.4,Win32,60,5ede1a11281b7602eb5cf5ea,,1,0,80,62,1,79
,,,,,,,,,,,,,,,,,,,,,,,,,,,,,,,,,,,a,3.002000093,PLUMA,FALSE,,,,,,,170,ploma,Catalan,Sounds/cat_ploma.mp3,2020-06-28_17h35.08.619,TranslationElicitation_spa,3.2.4,Win32,60,5ede1a11281b7602eb5cf5ea,,1,0,80,62,1,79
,,,,,,,,,,,,,,,,,,,,,,,,,,,,,,,,,,,return,3.201999903,,FALSE,,,,,,,170,ploma,Catalan,Sounds/cat_ploma.mp3,2020-06-28_17h35.08.619,TranslationElicitation_spa,3.2.4,Win32,60,5ede1a11281b7602eb5cf5ea,3.201999903,1,0,80,62,1,79
,,,,,,,,,,,,,,,,,,,,,,,,,,,,,,,,,,,,,,,,,,,,,170,ploma,Catalan,Sounds/cat_ploma.mp3,2020-06-28_17h35.08.619,TranslationElicitation_spa,3.2.4,Win32,60,5ede1a11281b7602eb5cf5ea,,1,0,80,62,1,79
,,,,,,,,,,,,,,,,,,,,,,,,,,,,,,,,,,,p,1.542999983,P,FALSE,,,,,,,173,porc,Catalan,Sounds/cat_porc.mp3,2020-06-28_17h35.08.619,TranslationElicitation_spa,3.2.4,Win32,60,5ede1a11281b7602eb5cf5ea,,1,0,80,65,1,79
,,,,,,,,,,,,,,,,,,,,,,,,,,,,,,,,,,,backspace,2.409999847,,TRUE,,,,,,,173,porc,Catalan,Sounds/cat_porc.mp3,2020-06-28_17h35.08.619,TranslationElicitation_spa,3.2.4,Win32,60,5ede1a11281b7602eb5cf5ea,,1,0,80,65,1,79
,,,,,,,,,,,,,,,,,,,,,,,,,,,,,,,,,,,c,2.869999886,C,TRUE,,,,,,,173,porc,Catalan,Sounds/cat_porc.mp3,2020-06-28_17h35.08.619,TranslationElicitation_spa,3.2.4,Win32,60,5ede1a11281b7602eb5cf5ea,,1,0,80,65,1,79
,,,,,,,,,,,,,,,,,,,,,,,,,,,,,,,,,,,e,3.088000059,CE,TRUE,,,,,,,173,porc,Catalan,Sounds/cat_porc.mp3,2020-06-28_17h35.08.619,TranslationElicitation_spa,3.2.4,Win32,60,5ede1a11281b7602eb5cf5ea,,1,0,80,65,1,79
,,,,,,,,,,,,,,,,,,,,,,,,,,,,,,,,,,,r,3.256000042,CER,TRUE,,,,,,,173,porc,Catalan,Sounds/cat_porc.mp3,2020-06-28_17h35.08.619,TranslationElicitation_spa,3.2.4,Win32,60,5ede1a11281b7602eb5cf5ea,,1,0,80,65,1,79
,,,,,,,,,,,,,,,,,,,,,,,,,,,,,,,,,,,d,3.422999859,CERD,TRUE,,,,,,,173,porc,Catalan,Sounds/cat_porc.mp3,2020-06-28_17h35.08.619,TranslationElicitation_spa,3.2.4,Win32,60,5ede1a11281b7602eb5cf5ea,,1,0,80,65,1,79
,,,,,,,,,,,,,,,,,,,,,,,,,,,,,,,,,,,o,4.325999975,CERDO,TRUE,,,,,,,173,porc,Catalan,Sounds/cat_porc.mp3,2020-06-28_17h35.08.619,TranslationElicitation_spa,3.2.4,Win32,60,5ede1a11281b7602eb5cf5ea,,1,0,80,65,1,79
,,,,,,,,,,,,,,,,,,,,,,,,,,,,,,,,,,,return,4.592999935,,TRUE,,,,,,,173,porc,Catalan,Sounds/cat_porc.mp3,2020-06-28_17h35.08.619,TranslationElicitation_spa,3.2.4,Win32,60,5ede1a11281b7602eb5cf5ea,4.592999935,1,0,80,65,1,79
,,,,,,,,,,,,,,,,,,,,,,,,,,,,,,,,,,,,,,,,,,,,,173,porc,Catalan,Sounds/cat_porc.mp3,2020-06-28_17h35.08.619,TranslationElicitation_spa,3.2.4,Win32,60,5ede1a11281b7602eb5cf5ea,,1,0,80,65,1,79
,,,,,,,,,,,,,,,,,,,,,,,,,,,,,,,,,,,v,1.896999836,V,FALSE,,,,,,,116,bolquer,Catalan,Sounds/cat_bolquer.mp3,2020-06-28_17h35.08.619,TranslationElicitation_spa,3.2.4,Win32,60,5ede1a11281b7602eb5cf5ea,,1,0,80,11,1,79
,,,,,,,,,,,,,,,,,,,,,,,,,,,,,,,,,,,o,2.05099988,VO,FALSE,,,,,,,116,bolquer,Catalan,Sounds/cat_bolquer.mp3,2020-06-28_17h35.08.619,TranslationElicitation_spa,3.2.4,Win32,60,5ede1a11281b7602eb5cf5ea,,1,0,80,11,1,79
,,,,,,,,,,,,,,,,,,,,,,,,,,,,,,,,,,,l,2.225999832,VOL,FALSE,,,,,,,116,bolquer,Catalan,Sounds/cat_bolquer.mp3,2020-06-28_17h35.08.619,TranslationElicitation_spa,3.2.4,Win32,60,5ede1a11281b7602eb5cf5ea,,1,0,80,11,1,79
,,,,,,,,,,,,,,,,,,,,,,,,,,,,,,,,,,,c,2.688999891,VOLC,FALSE,,,,,,,116,bolquer,Catalan,Sounds/cat_bolquer.mp3,2020-06-28_17h35.08.619,TranslationElicitation_spa,3.2.4,Win32,60,5ede1a11281b7602eb5cf5ea,,1,0,80,11,1,79
,,,,,,,,,,,,,,,,,,,,,,,,,,,,,,,,,,,apostrophe,2.993000031,VOLC,FALSE,,,,,,,116,bolquer,Catalan,Sounds/cat_bolquer.mp3,2020-06-28_17h35.08.619,TranslationElicitation_spa,3.2.4,Win32,60,5ede1a11281b7602eb5cf5ea,,1,0,80,11,1,79
,,,,,,,,,,,,,,,,,,,,,,,,,,,,,,,,,,,a,3.238999844,VOLCÁ,FALSE,,,,,,,116,bolquer,Catalan,Sounds/cat_bolquer.mp3,2020-06-28_17h35.08.619,TranslationElicitation_spa,3.2.4,Win32,60,5ede1a11281b7602eb5cf5ea,,1,0,80,11,1,79
,,,,,,,,,,,,,,,,,,,,,,,,,,,,,,,,,,,n,3.523999929,VOLCÁN,FALSE,,,,,,,116,bolquer,Catalan,Sounds/cat_bolquer.mp3,2020-06-28_17h35.08.619,TranslationElicitation_spa,3.2.4,Win32,60,5ede1a11281b7602eb5cf5ea,,1,0,80,11,1,79
,,,,,,,,,,,,,,,,,,,,,,,,,,,,,,,,,,,return,3.89199996,,FALSE,,,,,,,116,bolquer,Catalan,Sounds/cat_bolquer.mp3,2020-06-28_17h35.08.619,TranslationElicitation_spa,3.2.4,Win32,60,5ede1a11281b7602eb5cf5ea,3.89199996,1,0,80,11,1,79
,,,,,,,,,,,,,,,,,,,,,,,,,,,,,,,,,,,,,,,,,,,,,116,bolquer,Catalan,Sounds/cat_bolquer.mp3,2020-06-28_17h35.08.619,TranslationElicitation_spa,3.2.4,Win32,60,5ede1a11281b7602eb5cf5ea,,1,0,80,11,1,79
,,,,,,,,,,,,,,,,,,,,,,,,,,,,,,,,,,,c,2.059000015,C,FALSE,,,,,,,165,pernil,Catalan,Sounds/cat_pernil.mp3,2020-06-28_17h35.08.619,TranslationElicitation_spa,3.2.4,Win32,60,5ede1a11281b7602eb5cf5ea,,1,0,80,58,1,79
,,,,,,,,,,,,,,,,,,,,,,,,,,,,,,,,,,,a,2.403999805,CA,FALSE,,,,,,,165,pernil,Catalan,Sounds/cat_pernil.mp3,2020-06-28_17h35.08.619,TranslationElicitation_spa,3.2.4,Win32,60,5ede1a11281b7602eb5cf5ea,,1,0,80,58,1,79
,,,,,,,,,,,,,,,,,,,,,,,,,,,,,,,,,,,m,2.796000004,CAM,FALSE,,,,,,,165,pernil,Catalan,Sounds/cat_pernil.mp3,2020-06-28_17h35.08.619,TranslationElicitation_spa,3.2.4,Win32,60,5ede1a11281b7602eb5cf5ea,,1,0,80,58,1,79
,,,,,,,,,,,,,,,,,,,,,,,,,,,,,,,,,,,i,2.987999916,CAMI,FALSE,,,,,,,165,pernil,Catalan,Sounds/cat_pernil.mp3,2020-06-28_17h35.08.619,TranslationElicitation_spa,3.2.4,Win32,60,5ede1a11281b7602eb5cf5ea,,1,0,80,58,1,79
,,,,,,,,,,,,,,,,,,,,,,,,,,,,,,,,,,,n,3.150999784,CAMIN,FALSE,,,,,,,165,pernil,Catalan,Sounds/cat_pernil.mp3,2020-06-28_17h35.08.619,TranslationElicitation_spa,3.2.4,Win32,60,5ede1a11281b7602eb5cf5ea,,1,0,80,58,1,79
,,,,,,,,,,,,,,,,,,,,,,,,,,,,,,,,,,,o,3.405999899,CAMINO,FALSE,,,,,,,165,pernil,Catalan,Sounds/cat_pernil.mp3,2020-06-28_17h35.08.619,TranslationElicitation_spa,3.2.4,Win32,60,5ede1a11281b7602eb5cf5ea,,1,0,80,58,1,79
,,,,,,,,,,,,,,,,,,,,,,,,,,,,,,,,,,,return,4.074999809,,FALSE,,,,,,,165,pernil,Catalan,Sounds/cat_pernil.mp3,2020-06-28_17h35.08.619,TranslationElicitation_spa,3.2.4,Win32,60,5ede1a11281b7602eb5cf5ea,4.073999882,1,0,80,58,1,79
,,,,,,,,,,,,,,,,,,,,,,,,,,,,,,,,,,,,,,,,,,,,,165,pernil,Catalan,Sounds/cat_pernil.mp3,2020-06-28_17h35.08.619,TranslationElicitation_spa,3.2.4,Win32,60,5ede1a11281b7602eb5cf5ea,,1,0,80,58,1,79
,,,,,,,,,,,,,,,,,,,,,,,,,,,,,,,,,,,b,5.644000053,B,FALSE,,,,,,,115,bolet,Catalan,Sounds/cat_bolet.mp3,2020-06-28_17h35.08.619,TranslationElicitation_spa,3.2.4,Win32,60,5ede1a11281b7602eb5cf5ea,,1,0,80,10,1,79
,,,,,,,,,,,,,,,,,,,,,,,,,,,,,,,,,,,u,5.890000105,BU,FALSE,,,,,,,115,bolet,Catalan,Sounds/cat_bolet.mp3,2020-06-28_17h35.08.619,TranslationElicitation_spa,3.2.4,Win32,60,5ede1a11281b7602eb5cf5ea,,1,0,80,10,1,79
,,,,,,,,,,,,,,,,,,,,,,,,,,,,,,,,,,,l,6.138000011,BUL,FALSE,,,,,,,115,bolet,Catalan,Sounds/cat_bolet.mp3,2020-06-28_17h35.08.619,TranslationElicitation_spa,3.2.4,Win32,60,5ede1a11281b7602eb5cf5ea,,1,0,80,10,1,79
,,,,,,,,,,,,,,,,,,,,,,,,,,,,,,,,,,,l,6.274000168,BULL,FALSE,,,,,,,115,bolet,Catalan,Sounds/cat_bolet.mp3,2020-06-28_17h35.08.619,TranslationElicitation_spa,3.2.4,Win32,60,5ede1a11281b7602eb5cf5ea,,1,0,80,10,1,79
,,,,,,,,,,,,,,,,,,,,,,,,,,,,,,,,,,,e,6.562000036,BULLE,FALSE,,,,,,,115,bolet,Catalan,Sounds/cat_bolet.mp3,2020-06-28_17h35.08.619,TranslationElicitation_spa,3.2.4,Win32,60,5ede1a11281b7602eb5cf5ea,,1,0,80,10,1,79
,,,,,,,,,,,,,,,,,,,,,,,,,,,,,,,,,,,t,6.709000111,BULLET,FALSE,,,,,,,115,bolet,Catalan,Sounds/cat_bolet.mp3,2020-06-28_17h35.08.619,TranslationElicitation_spa,3.2.4,Win32,60,5ede1a11281b7602eb5cf5ea,,1,0,80,10,1,79
,,,,,,,,,,,,,,,,,,,,,,,,,,,,,,,,,,,return,7.058000088,,FALSE,,,,,,,115,bolet,Catalan,Sounds/cat_bolet.mp3,2020-06-28_17h35.08.619,TranslationElicitation_spa,3.2.4,Win32,60,5ede1a11281b7602eb5cf5ea,7.058000088,1,0,80,10,1,79
,,,,,,,,,,,,,,,,,,,,,,,,,,,,,,,,,,,,,,,,,,,,,115,bolet,Catalan,Sounds/cat_bolet.mp3,2020-06-28_17h35.08.619,TranslationElicitation_spa,3.2.4,Win32,60,5ede1a11281b7602eb5cf5ea,,1,0,80,10,1,79
,,,,,,,,,,,,,,,,,,,,,,,,,,,,,,,,,,,s,4.644000053,S,FALSE,,,,,,,111,bibero,Catalan,Sounds/cat_bibero.mp3,2020-06-28_17h35.08.619,TranslationElicitation_spa,3.2.4,Win32,60,5ede1a11281b7602eb5cf5ea,,1,0,80,6,1,79
,,,,,,,,,,,,,,,,,,,,,,,,,,,,,,,,,,,a,4.930999994,SA,FALSE,,,,,,,111,bibero,Catalan,Sounds/cat_bibero.mp3,2020-06-28_17h35.08.619,TranslationElicitation_spa,3.2.4,Win32,60,5ede1a11281b7602eb5cf5ea,,1,0,80,6,1,79
,,,,,,,,,,,,,,,,,,,,,,,,,,,,,,,,,,,l,5.06099987,SAL,FALSE,,,,,,,111,bibero,Catalan,Sounds/cat_bibero.mp3,2020-06-28_17h35.08.619,TranslationElicitation_spa,3.2.4,Win32,60,5ede1a11281b7602eb5cf5ea,,1,0,80,6,1,79
,,,,,,,,,,,,,,,,,,,,,,,,,,,,,,,,,,,u,5.223999977,SALU,FALSE,,,,,,,111,bibero,Catalan,Sounds/cat_bibero.mp3,2020-06-28_17h35.08.619,TranslationElicitation_spa,3.2.4,Win32,60,5ede1a11281b7602eb5cf5ea,,1,0,80,6,1,79
,,,,,,,,,,,,,,,,,,,,,,,,,,,,,,,,,,,d,5.368000031,SALUD,FALSE,,,,,,,111,bibero,Catalan,Sounds/cat_bibero.mp3,2020-06-28_17h35.08.619,TranslationElicitation_spa,3.2.4,Win32,60,5ede1a11281b7602eb5cf5ea,,1,0,80,6,1,79
,,,,,,,,,,,,,,,,,,,,,,,,,,,,,,,,,,,a,5.583999872,SALUDA,FALSE,,,,,,,111,bibero,Catalan,Sounds/cat_bibero.mp3,2020-06-28_17h35.08.619,TranslationElicitation_spa,3.2.4,Win32,60,5ede1a11281b7602eb5cf5ea,,1,0,80,6,1,79
,,,,,,,,,,,,,,,,,,,,,,,,,,,,,,,,,,,r,5.691999912,SALUDAR,FALSE,,,,,,,111,bibero,Catalan,Sounds/cat_bibero.mp3,2020-06-28_17h35.08.619,TranslationElicitation_spa,3.2.4,Win32,60,5ede1a11281b7602eb5cf5ea,,1,0,80,6,1,79
,,,,,,,,,,,,,,,,,,,,,,,,,,,,,,,,,,,return,6.016000032,,FALSE,,,,,,,111,bibero,Catalan,Sounds/cat_bibero.mp3,2020-06-28_17h35.08.619,TranslationElicitation_spa,3.2.4,Win32,60,5ede1a11281b7602eb5cf5ea,6.014999866,1,0,80,6,1,79
,,,,,,,,,,,,,,,,,,,,,,,,,,,,,,,,,,,,,,,,,,,,,111,bibero,Catalan,Sounds/cat_bibero.mp3,2020-06-28_17h35.08.619,TranslationElicitation_spa,3.2.4,Win32,60,5ede1a11281b7602eb5cf5ea,,1,0,80,6,1,79
,,,,,,,,,,,,,,,,,,,,,,,,,,,,,,,,,,,p,2.872999907,P,FALSE,,,,,,,133,estruc,Catalan,Sounds/cat_estruc.mp3,2020-06-28_17h35.08.619,TranslationElicitation_spa,3.2.4,Win32,60,5ede1a11281b7602eb5cf5ea,,1,0,80,28,1,79
,,,,,,,,,,,,,,,,,,,,,,,,,,,,,,,,,,,a,3.036000013,PA,FALSE,,,,,,,133,estruc,Catalan,Sounds/cat_estruc.mp3,2020-06-28_17h35.08.619,TranslationElicitation_spa,3.2.4,Win32,60,5ede1a11281b7602eb5cf5ea,,1,0,80,28,1,79
,,,,,,,,,,,,,,,,,,,,,,,,,,,,,,,,,,,s,3.174999952,PAS,FALSE,,,,,,,133,estruc,Catalan,Sounds/cat_estruc.mp3,2020-06-28_17h35.08.619,TranslationElicitation_spa,3.2.4,Win32,60,5ede1a11281b7602eb5cf5ea,,1,0,80,28,1,79
,,,,,,,,,,,,,,,,,,,,,,,,,,,,,,,,,,,t,3.345000029,PAST,FALSE,,,,,,,133,estruc,Catalan,Sounds/cat_estruc.mp3,2020-06-28_17h35.08.619,TranslationElicitation_spa,3.2.4,Win32,60,5ede1a11281b7602eb5cf5ea,,1,0,80,28,1,79
,,,,,,,,,,,,,,,,,,,,,,,,,,,,,,,,,,,o,3.968999863,PASTO,FALSE,,,,,,,133,estruc,Catalan,Sounds/cat_estruc.mp3,2020-06-28_17h35.08.619,TranslationElicitation_spa,3.2.4,Win32,60,5ede1a11281b7602eb5cf5ea,,1,0,80,28,1,79
,,,,,,,,,,,,,,,,,,,,,,,,,,,,,,,,,,,r,4.193000078,PASTOR,FALSE,,,,,,,133,estruc,Catalan,Sounds/cat_estruc.mp3,2020-06-28_17h35.08.619,TranslationElicitation_spa,3.2.4,Win32,60,5ede1a11281b7602eb5cf5ea,,1,0,80,28,1,79
,,,,,,,,,,,,,,,,,,,,,,,,,,,,,,,,,,,return,4.859999895,,FALSE,,,,,,,133,estruc,Catalan,Sounds/cat_estruc.mp3,2020-06-28_17h35.08.619,TranslationElicitation_spa,3.2.4,Win32,60,5ede1a11281b7602eb5cf5ea,4.858999968,1,0,80,28,1,79
,,,,,,,,,,,,,,,,,,,,,,,,,,,,,,,,,,,,,,,,,,,,,133,estruc,Catalan,Sounds/cat_estruc.mp3,2020-06-28_17h35.08.619,TranslationElicitation_spa,3.2.4,Win32,60,5ede1a11281b7602eb5cf5ea,,1,0,80,28,1,79
,,,,,,,,,,,,,,,,,,,,,,,,,,,,,,,,,,,s,1.962000132,S,FALSE,,,,,,,177,sol,Catalan,Sounds/cat_sol.mp3,2020-06-28_17h35.08.619,TranslationElicitation_spa,3.2.4,Win32,60,5ede1a11281b7602eb5cf5ea,,1,0,80,69,1,79
,,,,,,,,,,,,,,,,,,,,,,,,,,,,,,,,,,,o,2.09100008,SO,FALSE,,,,,,,177,sol,Catalan,Sounds/cat_sol.mp3,2020-06-28_17h35.08.619,TranslationElicitation_spa,3.2.4,Win32,60,5ede1a11281b7602eb5cf5ea,,1,0,80,69,1,79
,,,,,,,,,,,,,,,,,,,,,,,,,,,,,,,,,,,l,2.272000074,SOL,FALSE,,,,,,,177,sol,Catalan,Sounds/cat_sol.mp3,2020-06-28_17h35.08.619,TranslationElicitation_spa,3.2.4,Win32,60,5ede1a11281b7602eb5cf5ea,,1,0,80,69,1,79
,,,,,,,,,,,,,,,,,,,,,,,,,,,,,,,,,,,return,2.601999998,,FALSE,,,,,,,177,sol,Catalan,Sounds/cat_sol.mp3,2020-06-28_17h35.08.619,TranslationElicitation_spa,3.2.4,Win32,60,5ede1a11281b7602eb5cf5ea,2.601999998,1,0,80,69,1,79
,,,,,,,,,,,,,,,,,,,,,,,,,,,,,,,,,,,,,,,,,,,,,177,sol,Catalan,Sounds/cat_sol.mp3,2020-06-28_17h35.08.619,TranslationElicitation_spa,3.2.4,Win32,60,5ede1a11281b7602eb5cf5ea,,1,0,80,69,1,79
,,,,,,,,,,,,,,,,,,,,,,,,,,,,,,,,,,,b,3.00999999,B,FALSE,,,,,,,114,bol,Catalan,Sounds/cat_bol.mp3,2020-06-28_17h35.08.619,TranslationElicitation_spa,3.2.4,Win32,60,5ede1a11281b7602eb5cf5ea,,1,0,80,9,1,79
,,,,,,,,,,,,,,,,,,,,,,,,,,,,,,,,,,,o,3.161999941,BO,FALSE,,,,,,,114,bol,Catalan,Sounds/cat_bol.mp3,2020-06-28_17h35.08.619,TranslationElicitation_spa,3.2.4,Win32,60,5ede1a11281b7602eb5cf5ea,,1,0,80,9,1,79
,,,,,,,,,,,,,,,,,,,,,,,,,,,,,,,,,,,l,3.303999901,BOL,FALSE,,,,,,,114,bol,Catalan,Sounds/cat_bol.mp3,2020-06-28_17h35.08.619,TranslationElicitation_spa,3.2.4,Win32,60,5ede1a11281b7602eb5cf5ea,,1,0,80,9,1,79
,,,,,,,,,,,,,,,,,,,,,,,,,,,,,,,,,,,return,4.176999807,,FALSE,,,,,,,114,bol,Catalan,Sounds/cat_bol.mp3,2020-06-28_17h35.08.619,TranslationElicitation_spa,3.2.4,Win32,60,5ede1a11281b7602eb5cf5ea,4.176999807,1,0,80,9,1,79
,,,,,,,,,,,,,,,,,,,,,,,,,,,,,,,,,,,,,,,,,,,,,114,bol,Catalan,Sounds/cat_bol.mp3,2020-06-28_17h35.08.619,TranslationElicitation_spa,3.2.4,Win32,60,5ede1a11281b7602eb5cf5ea,,1,0,80,9,1,79
,,,,,,,,,,,,,,,,,,,,,,,,,,,,,,,,,,,c,1.610999823,C,FALSE,,,,,,,138,galeta,Catalan,Sounds/cat_galeta.mp3,2020-06-28_17h35.08.619,TranslationElicitation_spa,3.2.4,Win32,60,5ede1a11281b7602eb5cf5ea,,1,0,80,33,1,79
,,,,,,,,,,,,,,,,,,,,,,,,,,,,,,,,,,,o,1.686999798,CO,FALSE,,,,,,,138,galeta,Catalan,Sounds/cat_galeta.mp3,2020-06-28_17h35.08.619,TranslationElicitation_spa,3.2.4,Win32,60,5ede1a11281b7602eb5cf5ea,,1,0,80,33,1,79
,,,,,,,,,,,,,,,,,,,,,,,,,,,,,,,,,,,l,1.861999989,COL,FALSE,,,,,,,138,galeta,Catalan,Sounds/cat_galeta.mp3,2020-06-28_17h35.08.619,TranslationElicitation_spa,3.2.4,Win32,60,5ede1a11281b7602eb5cf5ea,,1,0,80,33,1,79
,,,,,,,,,,,,,,,,,,,,,,,,,,,,,,,,,,,e,2.316999912,COLE,FALSE,,,,,,,138,galeta,Catalan,Sounds/cat_galeta.mp3,2020-06-28_17h35.08.619,TranslationElicitation_spa,3.2.4,Win32,60,5ede1a11281b7602eb5cf5ea,,1,0,80,33,1,79
,,,,,,,,,,,,,,,,,,,,,,,,,,,,,,,,,,,t,2.540999889,COLET,FALSE,,,,,,,138,galeta,Catalan,Sounds/cat_galeta.mp3,2020-06-28_17h35.08.619,TranslationElicitation_spa,3.2.4,Win32,60,5ede1a11281b7602eb5cf5ea,,1,0,80,33,1,79
,,,,,,,,,,,,,,,,,,,,,,,,,,,,,,,,,,,a,2.842999935,COLETA,FALSE,,,,,,,138,galeta,Catalan,Sounds/cat_galeta.mp3,2020-06-28_17h35.08.619,TranslationElicitation_spa,3.2.4,Win32,60,5ede1a11281b7602eb5cf5ea,,1,0,80,33,1,79
,,,,,,,,,,,,,,,,,,,,,,,,,,,,,,,,,,,return,3.253999949,,FALSE,,,,,,,138,galeta,Catalan,Sounds/cat_galeta.mp3,2020-06-28_17h35.08.619,TranslationElicitation_spa,3.2.4,Win32,60,5ede1a11281b7602eb5cf5ea,3.253999949,1,0,80,33,1,79
,,,,,,,,,,,,,,,,,,,,,,,,,,,,,,,,,,,,,,,,,,,,,138,galeta,Catalan,Sounds/cat_galeta.mp3,2020-06-28_17h35.08.619,TranslationElicitation_spa,3.2.4,Win32,60,5ede1a11281b7602eb5cf5ea,,1,0,80,33,1,79
,,,,,,,,,,,,,,,,,,,,,,,,,,,,,,,,,,,r,2.402999878,R,FALSE,,,,,,,175,raspall,Catalan,Sounds/cat_raspall.mp3,2020-06-28_17h35.08.619,TranslationElicitation_spa,3.2.4,Win32,60,5ede1a11281b7602eb5cf5ea,,1,0,80,67,1,79
,,,,,,,,,,,,,,,,,,,,,,,,,,,,,,,,,,,a,2.596999884,RA,FALSE,,,,,,,175,raspall,Catalan,Sounds/cat_raspall.mp3,2020-06-28_17h35.08.619,TranslationElicitation_spa,3.2.4,Win32,60,5ede1a11281b7602eb5cf5ea,,1,0,80,67,1,79
,,,,,,,,,,,,,,,,,,,,,,,,,,,,,,,,,,,s,2.798999786,RAS,FALSE,,,,,,,175,raspall,Catalan,Sounds/cat_raspall.mp3,2020-06-28_17h35.08.619,TranslationElicitation_spa,3.2.4,Win32,60,5ede1a11281b7602eb5cf5ea,,1,0,80,67,1,79
,,,,,,,,,,,,,,,,,,,,,,,,,,,,,,,,,,,p,3.014999866,RASP,FALSE,,,,,,,175,raspall,Catalan,Sounds/cat_raspall.mp3,2020-06-28_17h35.08.619,TranslationElicitation_spa,3.2.4,Win32,60,5ede1a11281b7602eb5cf5ea,,1,0,80,67,1,79
,,,,,,,,,,,,,,,,,,,,,,,,,,,,,,,,,,,a,3.187999964,RASPA,FALSE,,,,,,,175,raspall,Catalan,Sounds/cat_raspall.mp3,2020-06-28_17h35.08.619,TranslationElicitation_spa,3.2.4,Win32,60,5ede1a11281b7602eb5cf5ea,,1,0,80,67,1,79
,,,,,,,,,,,,,,,,,,,,,,,,,,,,,,,,,,,r,3.701999903,RASPAR,FALSE,,,,,,,175,raspall,Catalan,Sounds/cat_raspall.mp3,2020-06-28_17h35.08.619,TranslationElicitation_spa,3.2.4,Win32,60,5ede1a11281b7602eb5cf5ea,,1,0,80,67,1,79
,,,,,,,,,,,,,,,,,,,,,,,,,,,,,,,,,,,return,4.467999935,,FALSE,,,,,,,175,raspall,Catalan,Sounds/cat_raspall.mp3,2020-06-28_17h35.08.619,TranslationElicitation_spa,3.2.4,Win32,60,5ede1a11281b7602eb5cf5ea,4.467999935,1,0,80,67,1,79
,,,,,,,,,,,,,,,,,,,,,,,,,,,,,,,,,,,,,,,,,,,,,175,raspall,Catalan,Sounds/cat_raspall.mp3,2020-06-28_17h35.08.619,TranslationElicitation_spa,3.2.4,Win32,60,5ede1a11281b7602eb5cf5ea,,1,0,80,67,1,79
,,,,,,,,,,,,,,,,,,,,,,,,,,,,,,,,,,,o,2.427999973,O,FALSE,,,,,,,148,lleo,Catalan,Sounds/cat_lleo.mp3,2020-06-28_17h35.08.619,TranslationElicitation_spa,3.2.4,Win32,60,5ede1a11281b7602eb5cf5ea,,1,0,80,42,1,79
,,,,,,,,,,,,,,,,,,,,,,,,,,,,,,,,,,,j,2.645999908,OJ,FALSE,,,,,,,148,lleo,Catalan,Sounds/cat_lleo.mp3,2020-06-28_17h35.08.619,TranslationElicitation_spa,3.2.4,Win32,60,5ede1a11281b7602eb5cf5ea,,1,0,80,42,1,79
,,,,,,,,,,,,,,,,,,,,,,,,,,,,,,,,,,,o,2.924000025,OJO,FALSE,,,,,,,148,lleo,Catalan,Sounds/cat_lleo.mp3,2020-06-28_17h35.08.619,TranslationElicitation_spa,3.2.4,Win32,60,5ede1a11281b7602eb5cf5ea,,1,0,80,42,1,79
,,,,,,,,,,,,,,,,,,,,,,,,,,,,,,,,,,,s,3.32799983,OJOS,FALSE,,,,,,,148,lleo,Catalan,Sounds/cat_lleo.mp3,2020-06-28_17h35.08.619,TranslationElicitation_spa,3.2.4,Win32,60,5ede1a11281b7602eb5cf5ea,,1,0,80,42,1,79
,,,,,,,,,,,,,,,,,,,,,,,,,,,,,,,,,,,return,3.539000034,,FALSE,,,,,,,148,lleo,Catalan,Sounds/cat_lleo.mp3,2020-06-28_17h35.08.619,TranslationElicitation_spa,3.2.4,Win32,60,5ede1a11281b7602eb5cf5ea,3.539000034,1,0,80,42,1,79
,,,,,,,,,,,,,,,,,,,,,,,,,,,,,,,,,,,,,,,,,,,,,148,lleo,Catalan,Sounds/cat_lleo.mp3,2020-06-28_17h35.08.619,TranslationElicitation_spa,3.2.4,Win32,60,5ede1a11281b7602eb5cf5ea,,1,0,80,42,1,79
,,,,,,,,,,,,,,,,,,,,,,,,,,,,,,,,,,,s,1.600999832,S,FALSE,,,,,,,124,cirera,Catalan,Sounds/cat_cirera.mp3,2020-06-28_17h35.08.619,TranslationElicitation_spa,3.2.4,Win32,60,5ede1a11281b7602eb5cf5ea,,1,0,80,19,1,79
,,,,,,,,,,,,,,,,,,,,,,,,,,,,,,,,,,,i,1.705999851,SI,FALSE,,,,,,,124,cirera,Catalan,Sounds/cat_cirera.mp3,2020-06-28_17h35.08.619,TranslationElicitation_spa,3.2.4,Win32,60,5ede1a11281b7602eb5cf5ea,,1,0,80,19,1,79
,,,,,,,,,,,,,,,,,,,,,,,,,,,,,,,,,,,r,1.955999851,SIR,FALSE,,,,,,,124,cirera,Catalan,Sounds/cat_cirera.mp3,2020-06-28_17h35.08.619,TranslationElicitation_spa,3.2.4,Win32,60,5ede1a11281b7602eb5cf5ea,,1,0,80,19,1,79
,,,,,,,,,,,,,,,,,,,,,,,,,,,,,,,,,,,e,2.122999907,SIRE,FALSE,,,,,,,124,cirera,Catalan,Sounds/cat_cirera.mp3,2020-06-28_17h35.08.619,TranslationElicitation_spa,3.2.4,Win32,60,5ede1a11281b7602eb5cf5ea,,1,0,80,19,1,79
,,,,,,,,,,,,,,,,,,,,,,,,,,,,,,,,,,,n,2.322000027,SIREN,FALSE,,,,,,,124,cirera,Catalan,Sounds/cat_cirera.mp3,2020-06-28_17h35.08.619,TranslationElicitation_spa,3.2.4,Win32,60,5ede1a11281b7602eb5cf5ea,,1,0,80,19,1,79
,,,,,,,,,,,,,,,,,,,,,,,,,,,,,,,,,,,a,2.490999937,SIRENA,FALSE,,,,,,,124,cirera,Catalan,Sounds/cat_cirera.mp3,2020-06-28_17h35.08.619,TranslationElicitation_spa,3.2.4,Win32,60,5ede1a11281b7602eb5cf5ea,,1,0,80,19,1,79
,,,,,,,,,,,,,,,,,,,,,,,,,,,,,,,,,,,return,2.680999994,,FALSE,,,,,,,124,cirera,Catalan,Sounds/cat_cirera.mp3,2020-06-28_17h35.08.619,TranslationElicitation_spa,3.2.4,Win32,60,5ede1a11281b7602eb5cf5ea,2.680999994,1,0,80,19,1,79
,,,,,,,,,,,,,,,,,,,,,,,,,,,,,,,,,,,,,,,,,,,,,124,cirera,Catalan,Sounds/cat_cirera.mp3,2020-06-28_17h35.08.619,TranslationElicitation_spa,3.2.4,Win32,60,5ede1a11281b7602eb5cf5ea,,1,0,80,19,1,79
,,,,,,,,,,,,,,,,,,,,,,,,,,,,,,,,,,,t,1.873000145,T,FALSE,,,,,,,180,tisores,Catalan,Sounds/cat_tisores.mp3,2020-06-28_17h35.08.619,TranslationElicitation_spa,3.2.4,Win32,60,5ede1a11281b7602eb5cf5ea,,1,0,80,71,1,79
,,,,,,,,,,,,,,,,,,,,,,,,,,,,,,,,,,,e,2.018000126,TE,FALSE,,,,,,,180,tisores,Catalan,Sounds/cat_tisores.mp3,2020-06-28_17h35.08.619,TranslationElicitation_spa,3.2.4,Win32,60,5ede1a11281b7602eb5cf5ea,,1,0,80,71,1,79
,,,,,,,,,,,,,,,,,,,,,,,,,,,,,,,,,,,s,2.248000145,TES,FALSE,,,,,,,180,tisores,Catalan,Sounds/cat_tisores.mp3,2020-06-28_17h35.08.619,TranslationElicitation_spa,3.2.4,Win32,60,5ede1a11281b7602eb5cf5ea,,1,0,80,71,1,79
,,,,,,,,,,,,,,,,,,,,,,,,,,,,,,,,,,,o,2.420000076,TESO,FALSE,,,,,,,180,tisores,Catalan,Sounds/cat_tisores.mp3,2020-06-28_17h35.08.619,TranslationElicitation_spa,3.2.4,Win32,60,5ede1a11281b7602eb5cf5ea,,1,0,80,71,1,79
,,,,,,,,,,,,,,,,,,,,,,,,,,,,,,,,,,,r,2.552999973,TESOR,FALSE,,,,,,,180,tisores,Catalan,Sounds/cat_tisores.mp3,2020-06-28_17h35.08.619,TranslationElicitation_spa,3.2.4,Win32,60,5ede1a11281b7602eb5cf5ea,,1,0,80,71,1,79
,,,,,,,,,,,,,,,,,,,,,,,,,,,,,,,,,,,o,2.693000078,TESORO,FALSE,,,,,,,180,tisores,Catalan,Sounds/cat_tisores.mp3,2020-06-28_17h35.08.619,TranslationElicitation_spa,3.2.4,Win32,60,5ede1a11281b7602eb5cf5ea,,1,0,80,71,1,79
,,,,,,,,,,,,,,,,,,,,,,,,,,,,,,,,,,,return,2.999000072,,FALSE,,,,,,,180,tisores,Catalan,Sounds/cat_tisores.mp3,2020-06-28_17h35.08.619,TranslationElicitation_spa,3.2.4,Win32,60,5ede1a11281b7602eb5cf5ea,2.999000072,1,0,80,71,1,79
,,,,,,,,,,,,,,,,,,,,,,,,,,,,,,,,,,,,,,,,,,,,,180,tisores,Catalan,Sounds/cat_tisores.mp3,2020-06-28_17h35.08.619,TranslationElicitation_spa,3.2.4,Win32,60,5ede1a11281b7602eb5cf5ea,,1,0,80,71,1,79
,,,,,,,,,,,,,,,,,,,,,,,,,,,,,,,,,,,u,4.896999836,U,FALSE,,,,,,,184,ull,Catalan,Sounds/cat_ull.mp3,2020-06-28_17h35.08.619,TranslationElicitation_spa,3.2.4,Win32,60,5ede1a11281b7602eb5cf5ea,,1,0,80,75,1,79
,,,,,,,,,,,,,,,,,,,,,,,,,,,,,,,,,,,l,5.290999889,UL,FALSE,,,,,,,184,ull,Catalan,Sounds/cat_ull.mp3,2020-06-28_17h35.08.619,TranslationElicitation_spa,3.2.4,Win32,60,5ede1a11281b7602eb5cf5ea,,1,0,80,75,1,79
,,,,,,,,,,,,,,,,,,,,,,,,,,,,,,,,,,,return,5.649999857,,FALSE,,,,,,,184,ull,Catalan,Sounds/cat_ull.mp3,2020-06-28_17h35.08.619,TranslationElicitation_spa,3.2.4,Win32,60,5ede1a11281b7602eb5cf5ea,5.649999857,1,0,80,75,1,79
,,,,,,,,,,,,,,,,,,,,,,,,,,,,,,,,,,,,,,,,,,,,,184,ull,Catalan,Sounds/cat_ull.mp3,2020-06-28_17h35.08.619,TranslationElicitation_spa,3.2.4,Win32,60,5ede1a11281b7602eb5cf5ea,,1,0,80,75,1,79
,,,,,,,,,,,,,,,,,,,,,,,,,,,,,,,,,,,g,1.709000111,G,FALSE,,,,,,,144,gorra,Catalan,Sounds/cat_gorra.mp3,2020-06-28_17h35.08.619,TranslationElicitation_spa,3.2.4,Win32,60,5ede1a11281b7602eb5cf5ea,,1,0,80,39,1,79
,,,,,,,,,,,,,,,,,,,,,,,,,,,,,,,,,,,o,1.838999987,GO,FALSE,,,,,,,144,gorra,Catalan,Sounds/cat_gorra.mp3,2020-06-28_17h35.08.619,TranslationElicitation_spa,3.2.4,Win32,60,5ede1a11281b7602eb5cf5ea,,1,0,80,39,1,79
,,,,,,,,,,,,,,,,,,,,,,,,,,,,,,,,,,,r,2.143000126,GOR,FALSE,,,,,,,144,gorra,Catalan,Sounds/cat_gorra.mp3,2020-06-28_17h35.08.619,TranslationElicitation_spa,3.2.4,Win32,60,5ede1a11281b7602eb5cf5ea,,1,0,80,39,1,79
,,,,,,,,,,,,,,,,,,,,,,,,,,,,,,,,,,,r,2.296000004,GORR,FALSE,,,,,,,144,gorra,Catalan,Sounds/cat_gorra.mp3,2020-06-28_17h35.08.619,TranslationElicitation_spa,3.2.4,Win32,60,5ede1a11281b7602eb5cf5ea,,1,0,80,39,1,79
,,,,,,,,,,,,,,,,,,,,,,,,,,,,,,,,,,,a,2.446000099,GORRA,FALSE,,,,,,,144,gorra,Catalan,Sounds/cat_gorra.mp3,2020-06-28_17h35.08.619,TranslationElicitation_spa,3.2.4,Win32,60,5ede1a11281b7602eb5cf5ea,,1,0,80,39,1,79
,,,,,,,,,,,,,,,,,,,,,,,,,,,,,,,,,,,return,2.779999971,,FALSE,,,,,,,144,gorra,Catalan,Sounds/cat_gorra.mp3,2020-06-28_17h35.08.619,TranslationElicitation_spa,3.2.4,Win32,60,5ede1a11281b7602eb5cf5ea,2.779999971,1,0,80,39,1,79
,,,,,,,,,,,,,,,,,,,,,,,,,,,,,,,,,,,,,,,,,,,,,144,gorra,Catalan,Sounds/cat_gorra.mp3,2020-06-28_17h35.08.619,TranslationElicitation_spa,3.2.4,Win32,60,5ede1a11281b7602eb5cf5ea,,1,0,80,39,1,79
,,,,,,,,,,,,,,,,,,,,,,,,,,,,,,,,,,,g,1.737999916,G,FALSE,,,,,,,110,berenar,Catalan,Sounds/cat_berenar.mp3,2020-06-28_17h35.08.619,TranslationElicitation_spa,3.2.4,Win32,60,5ede1a11281b7602eb5cf5ea,,1,0,80,5,1,79
,,,,,,,,,,,,,,,,,,,,,,,,,,,,,,,,,,,r,1.950999975,GR,FALSE,,,,,,,110,berenar,Catalan,Sounds/cat_berenar.mp3,2020-06-28_17h35.08.619,TranslationElicitation_spa,3.2.4,Win32,60,5ede1a11281b7602eb5cf5ea,,1,0,80,5,1,79
,,,,,,,,,,,,,,,,,,,,,,,,,,,,,,,,,,,a,2.082999945,GRA,FALSE,,,,,,,110,berenar,Catalan,Sounds/cat_berenar.mp3,2020-06-28_17h35.08.619,TranslationElicitation_spa,3.2.4,Win32,60,5ede1a11281b7602eb5cf5ea,,1,0,80,5,1,79
,,,,,,,,,,,,,,,,,,,,,,,,,,,,,,,,,,,n,2.342000008,GRAN,FALSE,,,,,,,110,berenar,Catalan,Sounds/cat_berenar.mp3,2020-06-28_17h35.08.619,TranslationElicitation_spa,3.2.4,Win32,60,5ede1a11281b7602eb5cf5ea,,1,0,80,5,1,79
,,,,,,,,,,,,,,,,,,,,,,,,,,,,,,,,,,,a,2.470999956,GRANA,FALSE,,,,,,,110,berenar,Catalan,Sounds/cat_berenar.mp3,2020-06-28_17h35.08.619,TranslationElicitation_spa,3.2.4,Win32,60,5ede1a11281b7602eb5cf5ea,,1,0,80,5,1,79
,,,,,,,,,,,,,,,,,,,,,,,,,,,,,,,,,,,d,2.618999958,GRANAD,FALSE,,,,,,,110,berenar,Catalan,Sounds/cat_berenar.mp3,2020-06-28_17h35.08.619,TranslationElicitation_spa,3.2.4,Win32,60,5ede1a11281b7602eb5cf5ea,,1,0,80,5,1,79
,,,,,,,,,,,,,,,,,,,,,,,,,,,,,,,,,,,a,2.753000021,GRANADA,FALSE,,,,,,,110,berenar,Catalan,Sounds/cat_berenar.mp3,2020-06-28_17h35.08.619,TranslationElicitation_spa,3.2.4,Win32,60,5ede1a11281b7602eb5cf5ea,,1,0,80,5,1,79
,,,,,,,,,,,,,,,,,,,,,,,,,,,,,,,,,,,return,3.315999985,,FALSE,,,,,,,110,berenar,Catalan,Sounds/cat_berenar.mp3,2020-06-28_17h35.08.619,TranslationElicitation_spa,3.2.4,Win32,60,5ede1a11281b7602eb5cf5ea,3.315999985,1,0,80,5,1,79
,,,,,,,,,,,,,,,,,,,,,,,,,,,,,,,,,,,,,,,,,,,,,110,berenar,Catalan,Sounds/cat_berenar.mp3,2020-06-28_17h35.08.619,TranslationElicitation_spa,3.2.4,Win32,60,5ede1a11281b7602eb5cf5ea,,1,0,80,5,1,79
