consentKey.keys,consentKey.rt,languageL1Key.keys,languageL1Key.rt,languageL2,languageL2OralKey.keys,languageL2OralKey.rt,languageL2WrittenKey.keys,languageL2WrittenKey.rt,languageL3OralKey.keys,languageL3OralKey.rt,languageL3WrittenKey.keys,languageL3WrittenKey.rt,languageCatalanOralKey.keys,languageCatalanOralKey.rt,languageCatalanWrittenKey.keys,languageCatalanWrittenKey.rt,languageCatalanTimeKey.keys,languageCatalanTimeKey.rt,age,demoSexKey.keys,demoSexKey.rt,demoEducationKey.keys,demoEducationKey.rt,city,demoVisionKey.keys,demoVisionKey.rt,demoLanguageKey.keys,demoLanguageKey.rt,setupLocationKey.keys,setupLocationKey.rt,setupNoiseKey.keys,setupNoiseKey.rt,instructionsKeys.keys,instructionsKeys.rt,keyPressed,keyPressTime,inputText,error,trials_practice.thisRepN,trials_practice.thisTrialN,trials_practice.thisN,trials_practice.thisIndex,trials_practice.ran,trials_practice.order,trial_id,word,test_language,soundfile,date,expName,psychopyVersion,OS,frameRate,participant,trialOffset,trials.thisRepN,trials.thisTrialN,trials.thisN,trials.thisIndex,trials.ran,trials.order
space,1.805999756,e,2.573999882,FRANCES,4,3.721999884,3,2.343999863,3,3.164000034,2,3.774999857,2,3.471999884,1,0.843999863,2,3.739999771,19,h,2.230999947,3,3.733999968,MURCIA,s,2.734999895,n,1.200999737,1,1.94299984,1,2.711999893,space,1.506999969,t,1.480999947,T,FALSE,1,0,5,4,1,4,179,tigre,Catalan,Sounds/cat_tigre.mp3,2020-06-11_13h04.20.580,TranslationElicitation_spa,3.2.4,MacIntel,60,5ede18e41b8bce022ee5dd40,,,,,,,
,,,,,,,,,,,,,,,,,,,,,,,,,,,,,,,,,,,i,2.315999985,TI,FALSE,1,0,5,4,1,4,179,tigre,Catalan,Sounds/cat_tigre.mp3,2020-06-11_13h04.20.580,TranslationElicitation_spa,3.2.4,MacIntel,60,5ede18e41b8bce022ee5dd40,,,,,,,
,,,,,,,,,,,,,,,,,,,,,,,,,,,,,,,,,,,g,2.580999851,TIG,FALSE,1,0,5,4,1,4,179,tigre,Catalan,Sounds/cat_tigre.mp3,2020-06-11_13h04.20.580,TranslationElicitation_spa,3.2.4,MacIntel,60,5ede18e41b8bce022ee5dd40,,,,,,,
,,,,,,,,,,,,,,,,,,,,,,,,,,,,,,,,,,,r,2.914999962,TIGR,FALSE,1,0,5,4,1,4,179,tigre,Catalan,Sounds/cat_tigre.mp3,2020-06-11_13h04.20.580,TranslationElicitation_spa,3.2.4,MacIntel,60,5ede18e41b8bce022ee5dd40,,,,,,,
,,,,,,,,,,,,,,,,,,,,,,,,,,,,,,,,,,,e,3.09800005,TIGRE,FALSE,1,0,5,4,1,4,179,tigre,Catalan,Sounds/cat_tigre.mp3,2020-06-11_13h04.20.580,TranslationElicitation_spa,3.2.4,MacIntel,60,5ede18e41b8bce022ee5dd40,,,,,,,
,,,,,,,,,,,,,,,,,,,,,,,,,,,,,,,,,,,return,3.582999945,,FALSE,1,0,5,4,1,4,179,tigre,Catalan,Sounds/cat_tigre.mp3,2020-06-11_13h04.20.580,TranslationElicitation_spa,3.2.4,MacIntel,60,5ede18e41b8bce022ee5dd40,3.582999945,,,,,,
,,,,,,,,,,,,,,,,,,,,,,,,,,,,,,,,,,,,,,,1,0,5,4,1,4,179,tigre,Catalan,Sounds/cat_tigre.mp3,2020-06-11_13h04.20.580,TranslationElicitation_spa,3.2.4,MacIntel,60,5ede18e41b8bce022ee5dd40,,,,,,,
,,,,,,,,,,,,,,,,,,,,,,,,,,,,,,,,,,,a,1.464999914,A,FALSE,1,0,5,0,1,4,109,arbre,Catalan,Sounds/cat_arbre.mp3,2020-06-11_13h04.20.580,TranslationElicitation_spa,3.2.4,MacIntel,60,5ede18e41b8bce022ee5dd40,,,,,,,
,,,,,,,,,,,,,,,,,,,,,,,,,,,,,,,,,,,r,1.849999905,AR,FALSE,1,0,5,0,1,4,109,arbre,Catalan,Sounds/cat_arbre.mp3,2020-06-11_13h04.20.580,TranslationElicitation_spa,3.2.4,MacIntel,60,5ede18e41b8bce022ee5dd40,,,,,,,
,,,,,,,,,,,,,,,,,,,,,,,,,,,,,,,,,,,b,2.21600008,ARB,FALSE,1,0,5,0,1,4,109,arbre,Catalan,Sounds/cat_arbre.mp3,2020-06-11_13h04.20.580,TranslationElicitation_spa,3.2.4,MacIntel,60,5ede18e41b8bce022ee5dd40,,,,,,,
,,,,,,,,,,,,,,,,,,,,,,,,,,,,,,,,,,,o,2.598999977,ARBO,FALSE,1,0,5,0,1,4,109,arbre,Catalan,Sounds/cat_arbre.mp3,2020-06-11_13h04.20.580,TranslationElicitation_spa,3.2.4,MacIntel,60,5ede18e41b8bce022ee5dd40,,,,,,,
,,,,,,,,,,,,,,,,,,,,,,,,,,,,,,,,,,,l,2.914999962,ARBOL,FALSE,1,0,5,0,1,4,109,arbre,Catalan,Sounds/cat_arbre.mp3,2020-06-11_13h04.20.580,TranslationElicitation_spa,3.2.4,MacIntel,60,5ede18e41b8bce022ee5dd40,,,,,,,
,,,,,,,,,,,,,,,,,,,,,,,,,,,,,,,,,,,return,3.431999922,,FALSE,1,0,5,0,1,4,109,arbre,Catalan,Sounds/cat_arbre.mp3,2020-06-11_13h04.20.580,TranslationElicitation_spa,3.2.4,MacIntel,60,5ede18e41b8bce022ee5dd40,3.431999922,,,,,,
,,,,,,,,,,,,,,,,,,,,,,,,,,,,,,,,,,,,,,,1,0,5,0,1,4,109,arbre,Catalan,Sounds/cat_arbre.mp3,2020-06-11_13h04.20.580,TranslationElicitation_spa,3.2.4,MacIntel,60,5ede18e41b8bce022ee5dd40,,,,,,,
,,,,,,,,,,,,,,,,,,,,,,,,,,,,,,,,,,,c,4.848999977,C,FALSE,1,0,5,1,1,4,147,jaqueta,Catalan,Sounds/cat_jaqueta.mp3,2020-06-11_13h04.20.580,TranslationElicitation_spa,3.2.4,MacIntel,60,5ede18e41b8bce022ee5dd40,,,,,,,
,,,,,,,,,,,,,,,,,,,,,,,,,,,,,,,,,,,h,4.931999922,CH,FALSE,1,0,5,1,1,4,147,jaqueta,Catalan,Sounds/cat_jaqueta.mp3,2020-06-11_13h04.20.580,TranslationElicitation_spa,3.2.4,MacIntel,60,5ede18e41b8bce022ee5dd40,,,,,,,
,,,,,,,,,,,,,,,,,,,,,,,,,,,,,,,,,,,a,5.115999937,CHA,FALSE,1,0,5,1,1,4,147,jaqueta,Catalan,Sounds/cat_jaqueta.mp3,2020-06-11_13h04.20.580,TranslationElicitation_spa,3.2.4,MacIntel,60,5ede18e41b8bce022ee5dd40,,,,,,,
,,,,,,,,,,,,,,,,,,,,,,,,,,,,,,,,,,,q,5.530999899,CHAQ,FALSE,1,0,5,1,1,4,147,jaqueta,Catalan,Sounds/cat_jaqueta.mp3,2020-06-11_13h04.20.580,TranslationElicitation_spa,3.2.4,MacIntel,60,5ede18e41b8bce022ee5dd40,,,,,,,
,,,,,,,,,,,,,,,,,,,,,,,,,,,,,,,,,,,u,5.664999962,CHAQU,FALSE,1,0,5,1,1,4,147,jaqueta,Catalan,Sounds/cat_jaqueta.mp3,2020-06-11_13h04.20.580,TranslationElicitation_spa,3.2.4,MacIntel,60,5ede18e41b8bce022ee5dd40,,,,,,,
,,,,,,,,,,,,,,,,,,,,,,,,,,,,,,,,,,,e,5.80099988,CHAQUE,FALSE,1,0,5,1,1,4,147,jaqueta,Catalan,Sounds/cat_jaqueta.mp3,2020-06-11_13h04.20.580,TranslationElicitation_spa,3.2.4,MacIntel,60,5ede18e41b8bce022ee5dd40,,,,,,,
,,,,,,,,,,,,,,,,,,,,,,,,,,,,,,,,,,,t,5.980999947,CHAQUET,FALSE,1,0,5,1,1,4,147,jaqueta,Catalan,Sounds/cat_jaqueta.mp3,2020-06-11_13h04.20.580,TranslationElicitation_spa,3.2.4,MacIntel,60,5ede18e41b8bce022ee5dd40,,,,,,,
,,,,,,,,,,,,,,,,,,,,,,,,,,,,,,,,,,,a,6.11500001,CHAQUETA,FALSE,1,0,5,1,1,4,147,jaqueta,Catalan,Sounds/cat_jaqueta.mp3,2020-06-11_13h04.20.580,TranslationElicitation_spa,3.2.4,MacIntel,60,5ede18e41b8bce022ee5dd40,,,,,,,
,,,,,,,,,,,,,,,,,,,,,,,,,,,,,,,,,,,return,6.697999954,,FALSE,1,0,5,1,1,4,147,jaqueta,Catalan,Sounds/cat_jaqueta.mp3,2020-06-11_13h04.20.580,TranslationElicitation_spa,3.2.4,MacIntel,60,5ede18e41b8bce022ee5dd40,6.697999954,,,,,,
,,,,,,,,,,,,,,,,,,,,,,,,,,,,,,,,,,,,,,,1,0,5,1,1,4,147,jaqueta,Catalan,Sounds/cat_jaqueta.mp3,2020-06-11_13h04.20.580,TranslationElicitation_spa,3.2.4,MacIntel,60,5ede18e41b8bce022ee5dd40,,,,,,,
,,,,,,,,,,,,,,,,,,,,,,,,,,,,,,,,,,,p,3.731999874,P,FALSE,1,0,5,3,1,4,167,pingui,Catalan,Sounds/cat_pingui.mp3,2020-06-11_13h04.20.580,TranslationElicitation_spa,3.2.4,MacIntel,60,5ede18e41b8bce022ee5dd40,,,,,,,
,,,,,,,,,,,,,,,,,,,,,,,,,,,,,,,,,,,i,3.981999874,PI,FALSE,1,0,5,3,1,4,167,pingui,Catalan,Sounds/cat_pingui.mp3,2020-06-11_13h04.20.580,TranslationElicitation_spa,3.2.4,MacIntel,60,5ede18e41b8bce022ee5dd40,,,,,,,
,,,,,,,,,,,,,,,,,,,,,,,,,,,,,,,,,,,n,4.281999826,PIN,FALSE,1,0,5,3,1,4,167,pingui,Catalan,Sounds/cat_pingui.mp3,2020-06-11_13h04.20.580,TranslationElicitation_spa,3.2.4,MacIntel,60,5ede18e41b8bce022ee5dd40,,,,,,,
,,,,,,,,,,,,,,,,,,,,,,,,,,,,,,,,,,,g,4.564999819,PING,FALSE,1,0,5,3,1,4,167,pingui,Catalan,Sounds/cat_pingui.mp3,2020-06-11_13h04.20.580,TranslationElicitation_spa,3.2.4,MacIntel,60,5ede18e41b8bce022ee5dd40,,,,,,,
,,,,,,,,,,,,,,,,,,,,,,,,,,,,,,,,,,,u,4.865999937,PINGU,FALSE,1,0,5,3,1,4,167,pingui,Catalan,Sounds/cat_pingui.mp3,2020-06-11_13h04.20.580,TranslationElicitation_spa,3.2.4,MacIntel,60,5ede18e41b8bce022ee5dd40,,,,,,,
,,,,,,,,,,,,,,,,,,,,,,,,,,,,,,,,,,,i,5.049000025,PINGUI,FALSE,1,0,5,3,1,4,167,pingui,Catalan,Sounds/cat_pingui.mp3,2020-06-11_13h04.20.580,TranslationElicitation_spa,3.2.4,MacIntel,60,5ede18e41b8bce022ee5dd40,,,,,,,
,,,,,,,,,,,,,,,,,,,,,,,,,,,,,,,,,,,n,5.281999826,PINGUIN,FALSE,1,0,5,3,1,4,167,pingui,Catalan,Sounds/cat_pingui.mp3,2020-06-11_13h04.20.580,TranslationElicitation_spa,3.2.4,MacIntel,60,5ede18e41b8bce022ee5dd40,,,,,,,
,,,,,,,,,,,,,,,,,,,,,,,,,,,,,,,,,,,o,5.498999834,PINGUINO,FALSE,1,0,5,3,1,4,167,pingui,Catalan,Sounds/cat_pingui.mp3,2020-06-11_13h04.20.580,TranslationElicitation_spa,3.2.4,MacIntel,60,5ede18e41b8bce022ee5dd40,,,,,,,
,,,,,,,,,,,,,,,,,,,,,,,,,,,,,,,,,,,return,6.09800005,,FALSE,1,0,5,3,1,4,167,pingui,Catalan,Sounds/cat_pingui.mp3,2020-06-11_13h04.20.580,TranslationElicitation_spa,3.2.4,MacIntel,60,5ede18e41b8bce022ee5dd40,6.09800005,,,,,,
,,,,,,,,,,,,,,,,,,,,,,,,,,,,,,,,,,,,,,,1,0,5,3,1,4,167,pingui,Catalan,Sounds/cat_pingui.mp3,2020-06-11_13h04.20.580,TranslationElicitation_spa,3.2.4,MacIntel,60,5ede18e41b8bce022ee5dd40,,,,,,,
,,,,,,,,,,,,,,,,,,,,,,,,,,,,,,,,,,,h,1.732000113,H,FALSE,1,0,5,2,1,4,159,onada,Catalan,Sounds/cat_onada.mp3,2020-06-11_13h04.20.580,TranslationElicitation_spa,3.2.4,MacIntel,60,5ede18e41b8bce022ee5dd40,,,,,,,
,,,,,,,,,,,,,,,,,,,,,,,,,,,,,,,,,,,a,1.898999929,HA,FALSE,1,0,5,2,1,4,159,onada,Catalan,Sounds/cat_onada.mp3,2020-06-11_13h04.20.580,TranslationElicitation_spa,3.2.4,MacIntel,60,5ede18e41b8bce022ee5dd40,,,,,,,
,,,,,,,,,,,,,,,,,,,,,,,,,,,,,,,,,,,d,2.232000113,HAD,FALSE,1,0,5,2,1,4,159,onada,Catalan,Sounds/cat_onada.mp3,2020-06-11_13h04.20.580,TranslationElicitation_spa,3.2.4,MacIntel,60,5ede18e41b8bce022ee5dd40,,,,,,,
,,,,,,,,,,,,,,,,,,,,,,,,,,,,,,,,,,,a,2.499000072,HADA,FALSE,1,0,5,2,1,4,159,onada,Catalan,Sounds/cat_onada.mp3,2020-06-11_13h04.20.580,TranslationElicitation_spa,3.2.4,MacIntel,60,5ede18e41b8bce022ee5dd40,,,,,,,
,,,,,,,,,,,,,,,,,,,,,,,,,,,,,,,,,,,return,2.947999954,,FALSE,1,0,5,2,1,4,159,onada,Catalan,Sounds/cat_onada.mp3,2020-06-11_13h04.20.580,TranslationElicitation_spa,3.2.4,MacIntel,60,5ede18e41b8bce022ee5dd40,2.947999954,,,,,,
,,,,,,,,,,,,,,,,,,,,,,,,,,,,,,,,,,,,,,,1,0,5,2,1,4,159,onada,Catalan,Sounds/cat_onada.mp3,2020-06-11_13h04.20.580,TranslationElicitation_spa,3.2.4,MacIntel,60,5ede18e41b8bce022ee5dd40,,,,,,,
,,,,,,,,,,,,,,,,,,,,,,,,,,,,,,,,,,,f,1.399000168,F,FALSE,,,,,,,134,flor,Catalan,Sounds/cat_flor.mp3,2020-06-11_13h04.20.580,TranslationElicitation_spa,3.2.4,MacIntel,60,5ede18e41b8bce022ee5dd40,,1,0,80,29,1,79
,,,,,,,,,,,,,,,,,,,,,,,,,,,,,,,,,,,l,1.482000113,FL,FALSE,,,,,,,134,flor,Catalan,Sounds/cat_flor.mp3,2020-06-11_13h04.20.580,TranslationElicitation_spa,3.2.4,MacIntel,60,5ede18e41b8bce022ee5dd40,,1,0,80,29,1,79
,,,,,,,,,,,,,,,,,,,,,,,,,,,,,,,,,,,o,1.697999954,FLO,FALSE,,,,,,,134,flor,Catalan,Sounds/cat_flor.mp3,2020-06-11_13h04.20.580,TranslationElicitation_spa,3.2.4,MacIntel,60,5ede18e41b8bce022ee5dd40,,1,0,80,29,1,79
,,,,,,,,,,,,,,,,,,,,,,,,,,,,,,,,,,,r,1.848999977,FLOR,FALSE,,,,,,,134,flor,Catalan,Sounds/cat_flor.mp3,2020-06-11_13h04.20.580,TranslationElicitation_spa,3.2.4,MacIntel,60,5ede18e41b8bce022ee5dd40,,1,0,80,29,1,79
,,,,,,,,,,,,,,,,,,,,,,,,,,,,,,,,,,,return,2.332000017,,FALSE,,,,,,,134,flor,Catalan,Sounds/cat_flor.mp3,2020-06-11_13h04.20.580,TranslationElicitation_spa,3.2.4,MacIntel,60,5ede18e41b8bce022ee5dd40,2.332000017,1,0,80,29,1,79
,,,,,,,,,,,,,,,,,,,,,,,,,,,,,,,,,,,,,,,,,,,,,134,flor,Catalan,Sounds/cat_flor.mp3,2020-06-11_13h04.20.580,TranslationElicitation_spa,3.2.4,MacIntel,60,5ede18e41b8bce022ee5dd40,,1,0,80,29,1,79
,,,,,,,,,,,,,,,,,,,,,,,,,,,,,,,,,,,b,1.834000111,B,FALSE,,,,,,,113,boca,Catalan,Sounds/cat_boca.mp3,2020-06-11_13h04.20.580,TranslationElicitation_spa,3.2.4,MacIntel,60,5ede18e41b8bce022ee5dd40,,1,0,80,8,1,79
,,,,,,,,,,,,,,,,,,,,,,,,,,,,,,,,,,,o,2.167000055,BO,FALSE,,,,,,,113,boca,Catalan,Sounds/cat_boca.mp3,2020-06-11_13h04.20.580,TranslationElicitation_spa,3.2.4,MacIntel,60,5ede18e41b8bce022ee5dd40,,1,0,80,8,1,79
,,,,,,,,,,,,,,,,,,,,,,,,,,,,,,,,,,,c,2.615999937,BOC,FALSE,,,,,,,113,boca,Catalan,Sounds/cat_boca.mp3,2020-06-11_13h04.20.580,TranslationElicitation_spa,3.2.4,MacIntel,60,5ede18e41b8bce022ee5dd40,,1,0,80,8,1,79
,,,,,,,,,,,,,,,,,,,,,,,,,,,,,,,,,,,a,3.117000103,BOCA,FALSE,,,,,,,113,boca,Catalan,Sounds/cat_boca.mp3,2020-06-11_13h04.20.580,TranslationElicitation_spa,3.2.4,MacIntel,60,5ede18e41b8bce022ee5dd40,,1,0,80,8,1,79
,,,,,,,,,,,,,,,,,,,,,,,,,,,,,,,,,,,return,3.549999952,,FALSE,,,,,,,113,boca,Catalan,Sounds/cat_boca.mp3,2020-06-11_13h04.20.580,TranslationElicitation_spa,3.2.4,MacIntel,60,5ede18e41b8bce022ee5dd40,3.549999952,1,0,80,8,1,79
,,,,,,,,,,,,,,,,,,,,,,,,,,,,,,,,,,,,,,,,,,,,,113,boca,Catalan,Sounds/cat_boca.mp3,2020-06-11_13h04.20.580,TranslationElicitation_spa,3.2.4,MacIntel,60,5ede18e41b8bce022ee5dd40,,1,0,80,8,1,79
,,,,,,,,,,,,,,,,,,,,,,,,,,,,,,,,,,,h,1.617000103,H,FALSE,,,,,,,135,formiga,Catalan,Sounds/cat_formiga.mp3,2020-06-11_13h04.20.580,TranslationElicitation_spa,3.2.4,MacIntel,60,5ede18e41b8bce022ee5dd40,,1,0,80,30,1,79
,,,,,,,,,,,,,,,,,,,,,,,,,,,,,,,,,,,o,1.950000048,HO,FALSE,,,,,,,135,formiga,Catalan,Sounds/cat_formiga.mp3,2020-06-11_13h04.20.580,TranslationElicitation_spa,3.2.4,MacIntel,60,5ede18e41b8bce022ee5dd40,,1,0,80,30,1,79
,,,,,,,,,,,,,,,,,,,,,,,,,,,,,,,,,,,r,2.19900012,HOR,FALSE,,,,,,,135,formiga,Catalan,Sounds/cat_formiga.mp3,2020-06-11_13h04.20.580,TranslationElicitation_spa,3.2.4,MacIntel,60,5ede18e41b8bce022ee5dd40,,1,0,80,30,1,79
,,,,,,,,,,,,,,,,,,,,,,,,,,,,,,,,,,,m,2.366000175,HORM,FALSE,,,,,,,135,formiga,Catalan,Sounds/cat_formiga.mp3,2020-06-11_13h04.20.580,TranslationElicitation_spa,3.2.4,MacIntel,60,5ede18e41b8bce022ee5dd40,,1,0,80,30,1,79
,,,,,,,,,,,,,,,,,,,,,,,,,,,,,,,,,,,i,2.567000151,HORMI,FALSE,,,,,,,135,formiga,Catalan,Sounds/cat_formiga.mp3,2020-06-11_13h04.20.580,TranslationElicitation_spa,3.2.4,MacIntel,60,5ede18e41b8bce022ee5dd40,,1,0,80,30,1,79
,,,,,,,,,,,,,,,,,,,,,,,,,,,,,,,,,,,g,2.867000103,HORMIG,FALSE,,,,,,,135,formiga,Catalan,Sounds/cat_formiga.mp3,2020-06-11_13h04.20.580,TranslationElicitation_spa,3.2.4,MacIntel,60,5ede18e41b8bce022ee5dd40,,1,0,80,30,1,79
,,,,,,,,,,,,,,,,,,,,,,,,,,,,,,,,,,,a,3.050000191,HORMIGA,FALSE,,,,,,,135,formiga,Catalan,Sounds/cat_formiga.mp3,2020-06-11_13h04.20.580,TranslationElicitation_spa,3.2.4,MacIntel,60,5ede18e41b8bce022ee5dd40,,1,0,80,30,1,79
,,,,,,,,,,,,,,,,,,,,,,,,,,,,,,,,,,,return,3.567000151,,FALSE,,,,,,,135,formiga,Catalan,Sounds/cat_formiga.mp3,2020-06-11_13h04.20.580,TranslationElicitation_spa,3.2.4,MacIntel,60,5ede18e41b8bce022ee5dd40,3.567000151,1,0,80,30,1,79
,,,,,,,,,,,,,,,,,,,,,,,,,,,,,,,,,,,,,,,,,,,,,135,formiga,Catalan,Sounds/cat_formiga.mp3,2020-06-11_13h04.20.580,TranslationElicitation_spa,3.2.4,MacIntel,60,5ede18e41b8bce022ee5dd40,,1,0,80,30,1,79
,,,,,,,,,,,,,,,,,,,,,,,,,,,,,,,,,,,m,1.582000017,M,FALSE,,,,,,,153,mico,Catalan,Sounds/cat_mico.mp3,2020-06-11_13h04.20.580,TranslationElicitation_spa,3.2.4,MacIntel,60,5ede18e41b8bce022ee5dd40,,1,0,80,47,1,79
,,,,,,,,,,,,,,,,,,,,,,,,,,,,,,,,,,,i,2.782999992,MI,FALSE,,,,,,,153,mico,Catalan,Sounds/cat_mico.mp3,2020-06-11_13h04.20.580,TranslationElicitation_spa,3.2.4,MacIntel,60,5ede18e41b8bce022ee5dd40,,1,0,80,47,1,79
,,,,,,,,,,,,,,,,,,,,,,,,,,,,,,,,,,,c,3.066999912,MIC,FALSE,,,,,,,153,mico,Catalan,Sounds/cat_mico.mp3,2020-06-11_13h04.20.580,TranslationElicitation_spa,3.2.4,MacIntel,60,5ede18e41b8bce022ee5dd40,,1,0,80,47,1,79
,,,,,,,,,,,,,,,,,,,,,,,,,,,,,,,,,,,u,3.299999952,MICU,FALSE,,,,,,,153,mico,Catalan,Sounds/cat_mico.mp3,2020-06-11_13h04.20.580,TranslationElicitation_spa,3.2.4,MacIntel,60,5ede18e41b8bce022ee5dd40,,1,0,80,47,1,79
,,,,,,,,,,,,,,,,,,,,,,,,,,,,,,,,,,,return,3.882999897,,FALSE,,,,,,,153,mico,Catalan,Sounds/cat_mico.mp3,2020-06-11_13h04.20.580,TranslationElicitation_spa,3.2.4,MacIntel,60,5ede18e41b8bce022ee5dd40,3.882999897,1,0,80,47,1,79
,,,,,,,,,,,,,,,,,,,,,,,,,,,,,,,,,,,,,,,,,,,,,153,mico,Catalan,Sounds/cat_mico.mp3,2020-06-11_13h04.20.580,TranslationElicitation_spa,3.2.4,MacIntel,60,5ede18e41b8bce022ee5dd40,,1,0,80,47,1,79
,,,,,,,,,,,,,,,,,,,,,,,,,,,,,,,,,,,c,3.532999992,C,FALSE,,,,,,,125,colom,Catalan,Sounds/cat_colom.mp3,2020-06-11_13h04.20.580,TranslationElicitation_spa,3.2.4,MacIntel,60,5ede18e41b8bce022ee5dd40,,1,0,80,20,1,79
,,,,,,,,,,,,,,,,,,,,,,,,,,,,,,,,,,,u,3.698999882,CU,FALSE,,,,,,,125,colom,Catalan,Sounds/cat_colom.mp3,2020-06-11_13h04.20.580,TranslationElicitation_spa,3.2.4,MacIntel,60,5ede18e41b8bce022ee5dd40,,1,0,80,20,1,79
,,,,,,,,,,,,,,,,,,,,,,,,,,,,,,,,,,,l,4.031999826,CUL,FALSE,,,,,,,125,colom,Catalan,Sounds/cat_colom.mp3,2020-06-11_13h04.20.580,TranslationElicitation_spa,3.2.4,MacIntel,60,5ede18e41b8bce022ee5dd40,,1,0,80,20,1,79
,,,,,,,,,,,,,,,,,,,,,,,,,,,,,,,,,,,o,4.199999809,CULO,FALSE,,,,,,,125,colom,Catalan,Sounds/cat_colom.mp3,2020-06-11_13h04.20.580,TranslationElicitation_spa,3.2.4,MacIntel,60,5ede18e41b8bce022ee5dd40,,1,0,80,20,1,79
,,,,,,,,,,,,,,,,,,,,,,,,,,,,,,,,,,,m,4.465999842,CULOM,FALSE,,,,,,,125,colom,Catalan,Sounds/cat_colom.mp3,2020-06-11_13h04.20.580,TranslationElicitation_spa,3.2.4,MacIntel,60,5ede18e41b8bce022ee5dd40,,1,0,80,20,1,79
,,,,,,,,,,,,,,,,,,,,,,,,,,,,,,,,,,,b,4.731999874,CULOMB,FALSE,,,,,,,125,colom,Catalan,Sounds/cat_colom.mp3,2020-06-11_13h04.20.580,TranslationElicitation_spa,3.2.4,MacIntel,60,5ede18e41b8bce022ee5dd40,,1,0,80,20,1,79
,,,,,,,,,,,,,,,,,,,,,,,,,,,,,,,,,,,i,5.065999985,CULOMBI,FALSE,,,,,,,125,colom,Catalan,Sounds/cat_colom.mp3,2020-06-11_13h04.20.580,TranslationElicitation_spa,3.2.4,MacIntel,60,5ede18e41b8bce022ee5dd40,,1,0,80,20,1,79
,,,,,,,,,,,,,,,,,,,,,,,,,,,,,,,,,,,o,5.248999834,CULOMBIO,FALSE,,,,,,,125,colom,Catalan,Sounds/cat_colom.mp3,2020-06-11_13h04.20.580,TranslationElicitation_spa,3.2.4,MacIntel,60,5ede18e41b8bce022ee5dd40,,1,0,80,20,1,79
,,,,,,,,,,,,,,,,,,,,,,,,,,,,,,,,,,,return,7.815999985,,FALSE,,,,,,,125,colom,Catalan,Sounds/cat_colom.mp3,2020-06-11_13h04.20.580,TranslationElicitation_spa,3.2.4,MacIntel,60,5ede18e41b8bce022ee5dd40,7.815999985,1,0,80,20,1,79
,,,,,,,,,,,,,,,,,,,,,,,,,,,,,,,,,,,,,,,,,,,,,125,colom,Catalan,Sounds/cat_colom.mp3,2020-06-11_13h04.20.580,TranslationElicitation_spa,3.2.4,MacIntel,60,5ede18e41b8bce022ee5dd40,,1,0,80,20,1,79
,,,,,,,,,,,,,,,,,,,,,,,,,,,,,,,,,,,e,1.699999809,E,FALSE,,,,,,,132,estrella,Catalan,Sounds/cat_estrella.mp3,2020-06-11_13h04.20.580,TranslationElicitation_spa,3.2.4,MacIntel,60,5ede18e41b8bce022ee5dd40,,1,0,80,27,1,79
,,,,,,,,,,,,,,,,,,,,,,,,,,,,,,,,,,,s,1.932999849,ES,FALSE,,,,,,,132,estrella,Catalan,Sounds/cat_estrella.mp3,2020-06-11_13h04.20.580,TranslationElicitation_spa,3.2.4,MacIntel,60,5ede18e41b8bce022ee5dd40,,1,0,80,27,1,79
,,,,,,,,,,,,,,,,,,,,,,,,,,,,,,,,,,,t,2.099999905,EST,FALSE,,,,,,,132,estrella,Catalan,Sounds/cat_estrella.mp3,2020-06-11_13h04.20.580,TranslationElicitation_spa,3.2.4,MacIntel,60,5ede18e41b8bce022ee5dd40,,1,0,80,27,1,79
,,,,,,,,,,,,,,,,,,,,,,,,,,,,,,,,,,,r,2.26699996,ESTR,FALSE,,,,,,,132,estrella,Catalan,Sounds/cat_estrella.mp3,2020-06-11_13h04.20.580,TranslationElicitation_spa,3.2.4,MacIntel,60,5ede18e41b8bce022ee5dd40,,1,0,80,27,1,79
,,,,,,,,,,,,,,,,,,,,,,,,,,,,,,,,,,,e,2.498999834,ESTRE,FALSE,,,,,,,132,estrella,Catalan,Sounds/cat_estrella.mp3,2020-06-11_13h04.20.580,TranslationElicitation_spa,3.2.4,MacIntel,60,5ede18e41b8bce022ee5dd40,,1,0,80,27,1,79
,,,,,,,,,,,,,,,,,,,,,,,,,,,,,,,,,,,l,2.733999968,ESTREL,FALSE,,,,,,,132,estrella,Catalan,Sounds/cat_estrella.mp3,2020-06-11_13h04.20.580,TranslationElicitation_spa,3.2.4,MacIntel,60,5ede18e41b8bce022ee5dd40,,1,0,80,27,1,79
,,,,,,,,,,,,,,,,,,,,,,,,,,,,,,,,,,,l,2.883999825,ESTRELL,FALSE,,,,,,,132,estrella,Catalan,Sounds/cat_estrella.mp3,2020-06-11_13h04.20.580,TranslationElicitation_spa,3.2.4,MacIntel,60,5ede18e41b8bce022ee5dd40,,1,0,80,27,1,79
,,,,,,,,,,,,,,,,,,,,,,,,,,,,,,,,,,,a,3.032999992,ESTRELLA,FALSE,,,,,,,132,estrella,Catalan,Sounds/cat_estrella.mp3,2020-06-11_13h04.20.580,TranslationElicitation_spa,3.2.4,MacIntel,60,5ede18e41b8bce022ee5dd40,,1,0,80,27,1,79
,,,,,,,,,,,,,,,,,,,,,,,,,,,,,,,,,,,return,3.75,,FALSE,,,,,,,132,estrella,Catalan,Sounds/cat_estrella.mp3,2020-06-11_13h04.20.580,TranslationElicitation_spa,3.2.4,MacIntel,60,5ede18e41b8bce022ee5dd40,3.75,1,0,80,27,1,79
,,,,,,,,,,,,,,,,,,,,,,,,,,,,,,,,,,,,,,,,,,,,,132,estrella,Catalan,Sounds/cat_estrella.mp3,2020-06-11_13h04.20.580,TranslationElicitation_spa,3.2.4,MacIntel,60,5ede18e41b8bce022ee5dd40,,1,0,80,27,1,79
,,,,,,,,,,,,,,,,,,,,,,,,,,,,,,,,,,,c,1.415999889,C,FALSE,,,,,,,138,galeta,Catalan,Sounds/cat_galeta.mp3,2020-06-11_13h04.20.580,TranslationElicitation_spa,3.2.4,MacIntel,60,5ede18e41b8bce022ee5dd40,,1,0,80,33,1,79
,,,,,,,,,,,,,,,,,,,,,,,,,,,,,,,,,,,o,1.549000025,CO,FALSE,,,,,,,138,galeta,Catalan,Sounds/cat_galeta.mp3,2020-06-11_13h04.20.580,TranslationElicitation_spa,3.2.4,MacIntel,60,5ede18e41b8bce022ee5dd40,,1,0,80,33,1,79
,,,,,,,,,,,,,,,,,,,,,,,,,,,,,,,,,,,l,1.73300004,COL,FALSE,,,,,,,138,galeta,Catalan,Sounds/cat_galeta.mp3,2020-06-11_13h04.20.580,TranslationElicitation_spa,3.2.4,MacIntel,60,5ede18e41b8bce022ee5dd40,,1,0,80,33,1,79
,,,,,,,,,,,,,,,,,,,,,,,,,,,,,,,,,,,e,1.933000088,COLE,FALSE,,,,,,,138,galeta,Catalan,Sounds/cat_galeta.mp3,2020-06-11_13h04.20.580,TranslationElicitation_spa,3.2.4,MacIntel,60,5ede18e41b8bce022ee5dd40,,1,0,80,33,1,79
,,,,,,,,,,,,,,,,,,,,,,,,,,,,,,,,,,,t,2.516000032,COLET,FALSE,,,,,,,138,galeta,Catalan,Sounds/cat_galeta.mp3,2020-06-11_13h04.20.580,TranslationElicitation_spa,3.2.4,MacIntel,60,5ede18e41b8bce022ee5dd40,,1,0,80,33,1,79
,,,,,,,,,,,,,,,,,,,,,,,,,,,,,,,,,,,a,2.899999857,COLETA,FALSE,,,,,,,138,galeta,Catalan,Sounds/cat_galeta.mp3,2020-06-11_13h04.20.580,TranslationElicitation_spa,3.2.4,MacIntel,60,5ede18e41b8bce022ee5dd40,,1,0,80,33,1,79
,,,,,,,,,,,,,,,,,,,,,,,,,,,,,,,,,,,return,3.23300004,,FALSE,,,,,,,138,galeta,Catalan,Sounds/cat_galeta.mp3,2020-06-11_13h04.20.580,TranslationElicitation_spa,3.2.4,MacIntel,60,5ede18e41b8bce022ee5dd40,3.23300004,1,0,80,33,1,79
,,,,,,,,,,,,,,,,,,,,,,,,,,,,,,,,,,,,,,,,,,,,,138,galeta,Catalan,Sounds/cat_galeta.mp3,2020-06-11_13h04.20.580,TranslationElicitation_spa,3.2.4,MacIntel,60,5ede18e41b8bce022ee5dd40,,1,0,80,33,1,79
,,,,,,,,,,,,,,,,,,,,,,,,,,,,,,,,,,,a,1.399999857,A,FALSE,,,,,,,107,amanida,Catalan,Sounds/cat_amanida.mp3,2020-06-11_13h04.20.580,TranslationElicitation_spa,3.2.4,MacIntel,60,5ede18e41b8bce022ee5dd40,,1,0,80,3,1,79
,,,,,,,,,,,,,,,,,,,,,,,,,,,,,,,,,,,m,1.566999912,AM,FALSE,,,,,,,107,amanida,Catalan,Sounds/cat_amanida.mp3,2020-06-11_13h04.20.580,TranslationElicitation_spa,3.2.4,MacIntel,60,5ede18e41b8bce022ee5dd40,,1,0,80,3,1,79
,,,,,,,,,,,,,,,,,,,,,,,,,,,,,,,,,,,a,1.715999842,AMA,FALSE,,,,,,,107,amanida,Catalan,Sounds/cat_amanida.mp3,2020-06-11_13h04.20.580,TranslationElicitation_spa,3.2.4,MacIntel,60,5ede18e41b8bce022ee5dd40,,1,0,80,3,1,79
,,,,,,,,,,,,,,,,,,,,,,,,,,,,,,,,,,,n,1.964999914,AMAN,FALSE,,,,,,,107,amanida,Catalan,Sounds/cat_amanida.mp3,2020-06-11_13h04.20.580,TranslationElicitation_spa,3.2.4,MacIntel,60,5ede18e41b8bce022ee5dd40,,1,0,80,3,1,79
,,,,,,,,,,,,,,,,,,,,,,,,,,,,,,,,,,,i,2.231999874,AMANI,FALSE,,,,,,,107,amanida,Catalan,Sounds/cat_amanida.mp3,2020-06-11_13h04.20.580,TranslationElicitation_spa,3.2.4,MacIntel,60,5ede18e41b8bce022ee5dd40,,1,0,80,3,1,79
,,,,,,,,,,,,,,,,,,,,,,,,,,,,,,,,,,,d,2.349999905,AMANID,FALSE,,,,,,,107,amanida,Catalan,Sounds/cat_amanida.mp3,2020-06-11_13h04.20.580,TranslationElicitation_spa,3.2.4,MacIntel,60,5ede18e41b8bce022ee5dd40,,1,0,80,3,1,79
,,,,,,,,,,,,,,,,,,,,,,,,,,,,,,,,,,,a,2.648999929,AMANIDA,FALSE,,,,,,,107,amanida,Catalan,Sounds/cat_amanida.mp3,2020-06-11_13h04.20.580,TranslationElicitation_spa,3.2.4,MacIntel,60,5ede18e41b8bce022ee5dd40,,1,0,80,3,1,79
,,,,,,,,,,,,,,,,,,,,,,,,,,,,,,,,,,,return,2.932999849,,FALSE,,,,,,,107,amanida,Catalan,Sounds/cat_amanida.mp3,2020-06-11_13h04.20.580,TranslationElicitation_spa,3.2.4,MacIntel,60,5ede18e41b8bce022ee5dd40,2.932999849,1,0,80,3,1,79
,,,,,,,,,,,,,,,,,,,,,,,,,,,,,,,,,,,,,,,,,,,,,107,amanida,Catalan,Sounds/cat_amanida.mp3,2020-06-11_13h04.20.580,TranslationElicitation_spa,3.2.4,MacIntel,60,5ede18e41b8bce022ee5dd40,,1,0,80,3,1,79
,,,,,,,,,,,,,,,,,,,,,,,,,,,,,,,,,,,c,1.5,C,FALSE,,,,,,,126,corona,Catalan,Sounds/cat_corona.mp3,2020-06-11_13h04.20.580,TranslationElicitation_spa,3.2.4,MacIntel,60,5ede18e41b8bce022ee5dd40,,1,0,80,21,1,79
,,,,,,,,,,,,,,,,,,,,,,,,,,,,,,,,,,,o,1.649000168,CO,FALSE,,,,,,,126,corona,Catalan,Sounds/cat_corona.mp3,2020-06-11_13h04.20.580,TranslationElicitation_spa,3.2.4,MacIntel,60,5ede18e41b8bce022ee5dd40,,1,0,80,21,1,79
,,,,,,,,,,,,,,,,,,,,,,,,,,,,,,,,,,,r,1.883000135,COR,FALSE,,,,,,,126,corona,Catalan,Sounds/cat_corona.mp3,2020-06-11_13h04.20.580,TranslationElicitation_spa,3.2.4,MacIntel,60,5ede18e41b8bce022ee5dd40,,1,0,80,21,1,79
,,,,,,,,,,,,,,,,,,,,,,,,,,,,,,,,,,,o,2.034000158,CORO,FALSE,,,,,,,126,corona,Catalan,Sounds/cat_corona.mp3,2020-06-11_13h04.20.580,TranslationElicitation_spa,3.2.4,MacIntel,60,5ede18e41b8bce022ee5dd40,,1,0,80,21,1,79
,,,,,,,,,,,,,,,,,,,,,,,,,,,,,,,,,,,n,2.367000103,CORON,FALSE,,,,,,,126,corona,Catalan,Sounds/cat_corona.mp3,2020-06-11_13h04.20.580,TranslationElicitation_spa,3.2.4,MacIntel,60,5ede18e41b8bce022ee5dd40,,1,0,80,21,1,79
,,,,,,,,,,,,,,,,,,,,,,,,,,,,,,,,,,,a,2.483999968,CORONA,FALSE,,,,,,,126,corona,Catalan,Sounds/cat_corona.mp3,2020-06-11_13h04.20.580,TranslationElicitation_spa,3.2.4,MacIntel,60,5ede18e41b8bce022ee5dd40,,1,0,80,21,1,79
,,,,,,,,,,,,,,,,,,,,,,,,,,,,,,,,,,,return,3.017000198,,FALSE,,,,,,,126,corona,Catalan,Sounds/cat_corona.mp3,2020-06-11_13h04.20.580,TranslationElicitation_spa,3.2.4,MacIntel,60,5ede18e41b8bce022ee5dd40,3.017000198,1,0,80,21,1,79
,,,,,,,,,,,,,,,,,,,,,,,,,,,,,,,,,,,,,,,,,,,,,126,corona,Catalan,Sounds/cat_corona.mp3,2020-06-11_13h04.20.580,TranslationElicitation_spa,3.2.4,MacIntel,60,5ede18e41b8bce022ee5dd40,,1,0,80,21,1,79
,,,,,,,,,,,,,,,,,,,,,,,,,,,,,,,,,,,a,1.632999897,A,FALSE,,,,,,,105,aigua,Catalan,Sounds/cat_aigua.mp3,2020-06-11_13h04.20.580,TranslationElicitation_spa,3.2.4,MacIntel,60,5ede18e41b8bce022ee5dd40,,1,0,80,1,1,79
,,,,,,,,,,,,,,,,,,,,,,,,,,,,,,,,,,,g,1.849999905,AG,FALSE,,,,,,,105,aigua,Catalan,Sounds/cat_aigua.mp3,2020-06-11_13h04.20.580,TranslationElicitation_spa,3.2.4,MacIntel,60,5ede18e41b8bce022ee5dd40,,1,0,80,1,1,79
,,,,,,,,,,,,,,,,,,,,,,,,,,,,,,,,,,,u,2.099999905,AGU,FALSE,,,,,,,105,aigua,Catalan,Sounds/cat_aigua.mp3,2020-06-11_13h04.20.580,TranslationElicitation_spa,3.2.4,MacIntel,60,5ede18e41b8bce022ee5dd40,,1,0,80,1,1,79
,,,,,,,,,,,,,,,,,,,,,,,,,,,,,,,,,,,a,2.265999794,AGUA,FALSE,,,,,,,105,aigua,Catalan,Sounds/cat_aigua.mp3,2020-06-11_13h04.20.580,TranslationElicitation_spa,3.2.4,MacIntel,60,5ede18e41b8bce022ee5dd40,,1,0,80,1,1,79
,,,,,,,,,,,,,,,,,,,,,,,,,,,,,,,,,,,return,2.648999929,,FALSE,,,,,,,105,aigua,Catalan,Sounds/cat_aigua.mp3,2020-06-11_13h04.20.580,TranslationElicitation_spa,3.2.4,MacIntel,60,5ede18e41b8bce022ee5dd40,2.648999929,1,0,80,1,1,79
,,,,,,,,,,,,,,,,,,,,,,,,,,,,,,,,,,,,,,,,,,,,,105,aigua,Catalan,Sounds/cat_aigua.mp3,2020-06-11_13h04.20.580,TranslationElicitation_spa,3.2.4,MacIntel,60,5ede18e41b8bce022ee5dd40,,1,0,80,1,1,79
,,,,,,,,,,,,,,,,,,,,,,,,,,,,,,,,,,,b,1.381000042,B,FALSE,,,,,,,111,bibero,Catalan,Sounds/cat_bibero.mp3,2020-06-11_13h04.20.580,TranslationElicitation_spa,3.2.4,MacIntel,60,5ede18e41b8bce022ee5dd40,,1,0,80,6,1,79
,,,,,,,,,,,,,,,,,,,,,,,,,,,,,,,,,,,o,1.73300004,BO,FALSE,,,,,,,111,bibero,Catalan,Sounds/cat_bibero.mp3,2020-06-11_13h04.20.580,TranslationElicitation_spa,3.2.4,MacIntel,60,5ede18e41b8bce022ee5dd40,,1,0,80,6,1,79
,,,,,,,,,,,,,,,,,,,,,,,,,,,,,,,,,,,backspace,2.599000216,,TRUE,,,,,,,111,bibero,Catalan,Sounds/cat_bibero.mp3,2020-06-11_13h04.20.580,TranslationElicitation_spa,3.2.4,MacIntel,60,5ede18e41b8bce022ee5dd40,,1,0,80,6,1,79
,,,,,,,,,,,,,,,,,,,,,,,,,,,,,,,,,,,b,3.282000065,B,TRUE,,,,,,,111,bibero,Catalan,Sounds/cat_bibero.mp3,2020-06-11_13h04.20.580,TranslationElicitation_spa,3.2.4,MacIntel,60,5ede18e41b8bce022ee5dd40,,1,0,80,6,1,79
,,,,,,,,,,,,,,,,,,,,,,,,,,,,,,,,,,,i,3.599000216,BI,TRUE,,,,,,,111,bibero,Catalan,Sounds/cat_bibero.mp3,2020-06-11_13h04.20.580,TranslationElicitation_spa,3.2.4,MacIntel,60,5ede18e41b8bce022ee5dd40,,1,0,80,6,1,79
,,,,,,,,,,,,,,,,,,,,,,,,,,,,,,,,,,,b,3.933000088,BIB,TRUE,,,,,,,111,bibero,Catalan,Sounds/cat_bibero.mp3,2020-06-11_13h04.20.580,TranslationElicitation_spa,3.2.4,MacIntel,60,5ede18e41b8bce022ee5dd40,,1,0,80,6,1,79
,,,,,,,,,,,,,,,,,,,,,,,,,,,,,,,,,,,e,4.149000168,BIBE,TRUE,,,,,,,111,bibero,Catalan,Sounds/cat_bibero.mp3,2020-06-11_13h04.20.580,TranslationElicitation_spa,3.2.4,MacIntel,60,5ede18e41b8bce022ee5dd40,,1,0,80,6,1,79
,,,,,,,,,,,,,,,,,,,,,,,,,,,,,,,,,,,r,4.43200016,BIBER,TRUE,,,,,,,111,bibero,Catalan,Sounds/cat_bibero.mp3,2020-06-11_13h04.20.580,TranslationElicitation_spa,3.2.4,MacIntel,60,5ede18e41b8bce022ee5dd40,,1,0,80,6,1,79
,,,,,,,,,,,,,,,,,,,,,,,,,,,,,,,,,,,apostrophe,4.815000057,BIBER,TRUE,,,,,,,111,bibero,Catalan,Sounds/cat_bibero.mp3,2020-06-11_13h04.20.580,TranslationElicitation_spa,3.2.4,MacIntel,60,5ede18e41b8bce022ee5dd40,,1,0,80,6,1,79
,,,,,,,,,,,,,,,,,,,,,,,,,,,,,,,,,,,p,5.099000216,BIBER,TRUE,,,,,,,111,bibero,Catalan,Sounds/cat_bibero.mp3,2020-06-11_13h04.20.580,TranslationElicitation_spa,3.2.4,MacIntel,60,5ede18e41b8bce022ee5dd40,,1,0,80,6,1,79
,,,,,,,,,,,,,,,,,,,,,,,,,,,,,,,,,,,n,5.550000191,BIBER,TRUE,,,,,,,111,bibero,Catalan,Sounds/cat_bibero.mp3,2020-06-11_13h04.20.580,TranslationElicitation_spa,3.2.4,MacIntel,60,5ede18e41b8bce022ee5dd40,,1,0,80,6,1,79
,,,,,,,,,,,,,,,,,,,,,,,,,,,,,,,,,,,backspace,8.61500001,BIB,TRUE,,,,,,,111,bibero,Catalan,Sounds/cat_bibero.mp3,2020-06-11_13h04.20.580,TranslationElicitation_spa,3.2.4,MacIntel,60,5ede18e41b8bce022ee5dd40,,1,0,80,6,1,79
,,,,,,,,,,,,,,,,,,,,,,,,,,,,,,,,,,,backspace,8.999000072,B,TRUE,,,,,,,111,bibero,Catalan,Sounds/cat_bibero.mp3,2020-06-11_13h04.20.580,TranslationElicitation_spa,3.2.4,MacIntel,60,5ede18e41b8bce022ee5dd40,,1,0,80,6,1,79
,,,,,,,,,,,,,,,,,,,,,,,,,,,,,,,,,,,i,9.899000168,BÍ,TRUE,,,,,,,111,bibero,Catalan,Sounds/cat_bibero.mp3,2020-06-11_13h04.20.580,TranslationElicitation_spa,3.2.4,MacIntel,60,5ede18e41b8bce022ee5dd40,,1,0,80,6,1,79
,,,,,,,,,,,,,,,,,,,,,,,,,,,,,,,,,,,b,10.23100019,BÍB,TRUE,,,,,,,111,bibero,Catalan,Sounds/cat_bibero.mp3,2020-06-11_13h04.20.580,TranslationElicitation_spa,3.2.4,MacIntel,60,5ede18e41b8bce022ee5dd40,,1,0,80,6,1,79
,,,,,,,,,,,,,,,,,,,,,,,,,,,,,,,,,,,e,10.38200021,BÍBE,TRUE,,,,,,,111,bibero,Catalan,Sounds/cat_bibero.mp3,2020-06-11_13h04.20.580,TranslationElicitation_spa,3.2.4,MacIntel,60,5ede18e41b8bce022ee5dd40,,1,0,80,6,1,79
,,,,,,,,,,,,,,,,,,,,,,,,,,,,,,,,,,,r,10.63200021,BÍBER,TRUE,,,,,,,111,bibero,Catalan,Sounds/cat_bibero.mp3,2020-06-11_13h04.20.580,TranslationElicitation_spa,3.2.4,MacIntel,60,5ede18e41b8bce022ee5dd40,,1,0,80,6,1,79
,,,,,,,,,,,,,,,,,,,,,,,,,,,,,,,,,,,o,10.81599998,BÍBERO,TRUE,,,,,,,111,bibero,Catalan,Sounds/cat_bibero.mp3,2020-06-11_13h04.20.580,TranslationElicitation_spa,3.2.4,MacIntel,60,5ede18e41b8bce022ee5dd40,,1,0,80,6,1,79
,,,,,,,,,,,,,,,,,,,,,,,,,,,,,,,,,,,m,11.13300014,BÍBEROM,TRUE,,,,,,,111,bibero,Catalan,Sounds/cat_bibero.mp3,2020-06-11_13h04.20.580,TranslationElicitation_spa,3.2.4,MacIntel,60,5ede18e41b8bce022ee5dd40,,1,0,80,6,1,79
,,,,,,,,,,,,,,,,,,,,,,,,,,,,,,,,,,,backspace,12.16600013,BÍBER,TRUE,,,,,,,111,bibero,Catalan,Sounds/cat_bibero.mp3,2020-06-11_13h04.20.580,TranslationElicitation_spa,3.2.4,MacIntel,60,5ede18e41b8bce022ee5dd40,,1,0,80,6,1,79
,,,,,,,,,,,,,,,,,,,,,,,,,,,,,,,,,,,backspace,12.33200002,BÍB,TRUE,,,,,,,111,bibero,Catalan,Sounds/cat_bibero.mp3,2020-06-11_13h04.20.580,TranslationElicitation_spa,3.2.4,MacIntel,60,5ede18e41b8bce022ee5dd40,,1,0,80,6,1,79
,,,,,,,,,,,,,,,,,,,,,,,,,,,,,,,,,,,backspace,12.49800014,B,TRUE,,,,,,,111,bibero,Catalan,Sounds/cat_bibero.mp3,2020-06-11_13h04.20.580,TranslationElicitation_spa,3.2.4,MacIntel,60,5ede18e41b8bce022ee5dd40,,1,0,80,6,1,79
,,,,,,,,,,,,,,,,,,,,,,,,,,,,,,,,,,,backspace,12.68300009,,TRUE,,,,,,,111,bibero,Catalan,Sounds/cat_bibero.mp3,2020-06-11_13h04.20.580,TranslationElicitation_spa,3.2.4,MacIntel,60,5ede18e41b8bce022ee5dd40,,1,0,80,6,1,79
,,,,,,,,,,,,,,,,,,,,,,,,,,,,,,,,,,,b,13.59800005,B,TRUE,,,,,,,111,bibero,Catalan,Sounds/cat_bibero.mp3,2020-06-11_13h04.20.580,TranslationElicitation_spa,3.2.4,MacIntel,60,5ede18e41b8bce022ee5dd40,,1,0,80,6,1,79
,,,,,,,,,,,,,,,,,,,,,,,,,,,,,,,,,,,i,13.89900017,BI,TRUE,,,,,,,111,bibero,Catalan,Sounds/cat_bibero.mp3,2020-06-11_13h04.20.580,TranslationElicitation_spa,3.2.4,MacIntel,60,5ede18e41b8bce022ee5dd40,,1,0,80,6,1,79
,,,,,,,,,,,,,,,,,,,,,,,,,,,,,,,,,,,b,14.21600008,BIB,TRUE,,,,,,,111,bibero,Catalan,Sounds/cat_bibero.mp3,2020-06-11_13h04.20.580,TranslationElicitation_spa,3.2.4,MacIntel,60,5ede18e41b8bce022ee5dd40,,1,0,80,6,1,79
,,,,,,,,,,,,,,,,,,,,,,,,,,,,,,,,,,,e,14.39900017,BIBE,TRUE,,,,,,,111,bibero,Catalan,Sounds/cat_bibero.mp3,2020-06-11_13h04.20.580,TranslationElicitation_spa,3.2.4,MacIntel,60,5ede18e41b8bce022ee5dd40,,1,0,80,6,1,79
,,,,,,,,,,,,,,,,,,,,,,,,,,,,,,,,,,,r,14.64900017,BIBER,TRUE,,,,,,,111,bibero,Catalan,Sounds/cat_bibero.mp3,2020-06-11_13h04.20.580,TranslationElicitation_spa,3.2.4,MacIntel,60,5ede18e41b8bce022ee5dd40,,1,0,80,6,1,79
,,,,,,,,,,,,,,,,,,,,,,,,,,,,,,,,,,,o,14.79900002,BIBERO,TRUE,,,,,,,111,bibero,Catalan,Sounds/cat_bibero.mp3,2020-06-11_13h04.20.580,TranslationElicitation_spa,3.2.4,MacIntel,60,5ede18e41b8bce022ee5dd40,,1,0,80,6,1,79
,,,,,,,,,,,,,,,,,,,,,,,,,,,,,,,,,,,n,15.148,BIBERON,TRUE,,,,,,,111,bibero,Catalan,Sounds/cat_bibero.mp3,2020-06-11_13h04.20.580,TranslationElicitation_spa,3.2.4,MacIntel,60,5ede18e41b8bce022ee5dd40,,1,0,80,6,1,79
,,,,,,,,,,,,,,,,,,,,,,,,,,,,,,,,,,,space,15.4150002,BIBERON ,TRUE,,,,,,,111,bibero,Catalan,Sounds/cat_bibero.mp3,2020-06-11_13h04.20.580,TranslationElicitation_spa,3.2.4,MacIntel,60,5ede18e41b8bce022ee5dd40,,1,0,80,6,1,79
,,,,,,,,,,,,,,,,,,,,,,,,,,,,,,,,,,,return,15.88300014,,TRUE,,,,,,,111,bibero,Catalan,Sounds/cat_bibero.mp3,2020-06-11_13h04.20.580,TranslationElicitation_spa,3.2.4,MacIntel,60,5ede18e41b8bce022ee5dd40,15.88300014,1,0,80,6,1,79
,,,,,,,,,,,,,,,,,,,,,,,,,,,,,,,,,,,,,,,,,,,,,111,bibero,Catalan,Sounds/cat_bibero.mp3,2020-06-11_13h04.20.580,TranslationElicitation_spa,3.2.4,MacIntel,60,5ede18e41b8bce022ee5dd40,,1,0,80,6,1,79
,,,,,,,,,,,,,,,,,,,,,,,,,,,,,,,,,,,h,2.066999912,H,FALSE,,,,,,,137,fulla,Catalan,Sounds/cat_fulla.mp3,2020-06-11_13h04.20.580,TranslationElicitation_spa,3.2.4,MacIntel,60,5ede18e41b8bce022ee5dd40,,1,0,80,32,1,79
,,,,,,,,,,,,,,,,,,,,,,,,,,,,,,,,,,,o,2.399999857,HO,FALSE,,,,,,,137,fulla,Catalan,Sounds/cat_fulla.mp3,2020-06-11_13h04.20.580,TranslationElicitation_spa,3.2.4,MacIntel,60,5ede18e41b8bce022ee5dd40,,1,0,80,32,1,79
,,,,,,,,,,,,,,,,,,,,,,,,,,,,,,,,,,,j,2.832999945,HOJ,FALSE,,,,,,,137,fulla,Catalan,Sounds/cat_fulla.mp3,2020-06-11_13h04.20.580,TranslationElicitation_spa,3.2.4,MacIntel,60,5ede18e41b8bce022ee5dd40,,1,0,80,32,1,79
,,,,,,,,,,,,,,,,,,,,,,,,,,,,,,,,,,,a,2.932999849,HOJA,FALSE,,,,,,,137,fulla,Catalan,Sounds/cat_fulla.mp3,2020-06-11_13h04.20.580,TranslationElicitation_spa,3.2.4,MacIntel,60,5ede18e41b8bce022ee5dd40,,1,0,80,32,1,79
,,,,,,,,,,,,,,,,,,,,,,,,,,,,,,,,,,,return,3.432999849,,FALSE,,,,,,,137,fulla,Catalan,Sounds/cat_fulla.mp3,2020-06-11_13h04.20.580,TranslationElicitation_spa,3.2.4,MacIntel,60,5ede18e41b8bce022ee5dd40,3.432999849,1,0,80,32,1,79
,,,,,,,,,,,,,,,,,,,,,,,,,,,,,,,,,,,,,,,,,,,,,137,fulla,Catalan,Sounds/cat_fulla.mp3,2020-06-11_13h04.20.580,TranslationElicitation_spa,3.2.4,MacIntel,60,5ede18e41b8bce022ee5dd40,,1,0,80,32,1,79
,,,,,,,,,,,,,,,,,,,,,,,,,,,,,,,,,,,p,4.131000042,P,FALSE,,,,,,,172,poma,Catalan,Sounds/cat_poma.mp3,2020-06-11_13h04.20.580,TranslationElicitation_spa,3.2.4,MacIntel,60,5ede18e41b8bce022ee5dd40,,1,0,80,64,1,79
,,,,,,,,,,,,,,,,,,,,,,,,,,,,,,,,,,,o,4.282000065,PO,FALSE,,,,,,,172,poma,Catalan,Sounds/cat_poma.mp3,2020-06-11_13h04.20.580,TranslationElicitation_spa,3.2.4,MacIntel,60,5ede18e41b8bce022ee5dd40,,1,0,80,64,1,79
,,,,,,,,,,,,,,,,,,,,,,,,,,,,,,,,,,,m,4.548000097,POM,FALSE,,,,,,,172,poma,Catalan,Sounds/cat_poma.mp3,2020-06-11_13h04.20.580,TranslationElicitation_spa,3.2.4,MacIntel,60,5ede18e41b8bce022ee5dd40,,1,0,80,64,1,79
,,,,,,,,,,,,,,,,,,,,,,,,,,,,,,,,,,,o,4.714999914,POMO,FALSE,,,,,,,172,poma,Catalan,Sounds/cat_poma.mp3,2020-06-11_13h04.20.580,TranslationElicitation_spa,3.2.4,MacIntel,60,5ede18e41b8bce022ee5dd40,,1,0,80,64,1,79
,,,,,,,,,,,,,,,,,,,,,,,,,,,,,,,,,,,return,5.281000137,,FALSE,,,,,,,172,poma,Catalan,Sounds/cat_poma.mp3,2020-06-11_13h04.20.580,TranslationElicitation_spa,3.2.4,MacIntel,60,5ede18e41b8bce022ee5dd40,5.281000137,1,0,80,64,1,79
,,,,,,,,,,,,,,,,,,,,,,,,,,,,,,,,,,,,,,,,,,,,,172,poma,Catalan,Sounds/cat_poma.mp3,2020-06-11_13h04.20.580,TranslationElicitation_spa,3.2.4,MacIntel,60,5ede18e41b8bce022ee5dd40,,1,0,80,64,1,79
,,,,,,,,,,,,,,,,,,,,,,,,,,,,,,,,,,,h,4.365999937,H,FALSE,,,,,,,148,lleo,Catalan,Sounds/cat_lleo.mp3,2020-06-11_13h04.20.580,TranslationElicitation_spa,3.2.4,MacIntel,60,5ede18e41b8bce022ee5dd40,,1,0,80,42,1,79
,,,,,,,,,,,,,,,,,,,,,,,,,,,,,,,,,,,o,4.61500001,HO,FALSE,,,,,,,148,lleo,Catalan,Sounds/cat_lleo.mp3,2020-06-11_13h04.20.580,TranslationElicitation_spa,3.2.4,MacIntel,60,5ede18e41b8bce022ee5dd40,,1,0,80,42,1,79
,,,,,,,,,,,,,,,,,,,,,,,,,,,,,,,,,,,r,4.782999992,HOR,FALSE,,,,,,,148,lleo,Catalan,Sounds/cat_lleo.mp3,2020-06-11_13h04.20.580,TranslationElicitation_spa,3.2.4,MacIntel,60,5ede18e41b8bce022ee5dd40,,1,0,80,42,1,79
,,,,,,,,,,,,,,,,,,,,,,,,,,,,,,,,,,,a,5.016000032,HORA,FALSE,,,,,,,148,lleo,Catalan,Sounds/cat_lleo.mp3,2020-06-11_13h04.20.580,TranslationElicitation_spa,3.2.4,MacIntel,60,5ede18e41b8bce022ee5dd40,,1,0,80,42,1,79
,,,,,,,,,,,,,,,,,,,,,,,,,,,,,,,,,,,return,5.5,,FALSE,,,,,,,148,lleo,Catalan,Sounds/cat_lleo.mp3,2020-06-11_13h04.20.580,TranslationElicitation_spa,3.2.4,MacIntel,60,5ede18e41b8bce022ee5dd40,5.5,1,0,80,42,1,79
,,,,,,,,,,,,,,,,,,,,,,,,,,,,,,,,,,,,,,,,,,,,,148,lleo,Catalan,Sounds/cat_lleo.mp3,2020-06-11_13h04.20.580,TranslationElicitation_spa,3.2.4,MacIntel,60,5ede18e41b8bce022ee5dd40,,1,0,80,42,1,79
,,,,,,,,,,,,,,,,,,,,,,,,,,,,,,,,,,,p,1.848999977,P,FALSE,,,,,,,168,planta,Catalan,Sounds/cat_planta.mp3,2020-06-11_13h04.20.580,TranslationElicitation_spa,3.2.4,MacIntel,60,5ede18e41b8bce022ee5dd40,,1,0,80,60,1,79
,,,,,,,,,,,,,,,,,,,,,,,,,,,,,,,,,,,l,2.132999897,PL,FALSE,,,,,,,168,planta,Catalan,Sounds/cat_planta.mp3,2020-06-11_13h04.20.580,TranslationElicitation_spa,3.2.4,MacIntel,60,5ede18e41b8bce022ee5dd40,,1,0,80,60,1,79
,,,,,,,,,,,,,,,,,,,,,,,,,,,,,,,,,,,a,2.898999929,PLA,FALSE,,,,,,,168,planta,Catalan,Sounds/cat_planta.mp3,2020-06-11_13h04.20.580,TranslationElicitation_spa,3.2.4,MacIntel,60,5ede18e41b8bce022ee5dd40,,1,0,80,60,1,79
,,,,,,,,,,,,,,,,,,,,,,,,,,,,,,,,,,,n,2.98300004,PLAN,FALSE,,,,,,,168,planta,Catalan,Sounds/cat_planta.mp3,2020-06-11_13h04.20.580,TranslationElicitation_spa,3.2.4,MacIntel,60,5ede18e41b8bce022ee5dd40,,1,0,80,60,1,79
,,,,,,,,,,,,,,,,,,,,,,,,,,,,,,,,,,,t,3.23300004,PLANT,FALSE,,,,,,,168,planta,Catalan,Sounds/cat_planta.mp3,2020-06-11_13h04.20.580,TranslationElicitation_spa,3.2.4,MacIntel,60,5ede18e41b8bce022ee5dd40,,1,0,80,60,1,79
,,,,,,,,,,,,,,,,,,,,,,,,,,,,,,,,,,,a,3.940000057,PLANTA,FALSE,,,,,,,168,planta,Catalan,Sounds/cat_planta.mp3,2020-06-11_13h04.20.580,TranslationElicitation_spa,3.2.4,MacIntel,60,5ede18e41b8bce022ee5dd40,,1,0,80,60,1,79
,,,,,,,,,,,,,,,,,,,,,,,,,,,,,,,,,,,return,4.065999985,,FALSE,,,,,,,168,planta,Catalan,Sounds/cat_planta.mp3,2020-06-11_13h04.20.580,TranslationElicitation_spa,3.2.4,MacIntel,60,5ede18e41b8bce022ee5dd40,4.065999985,1,0,80,60,1,79
,,,,,,,,,,,,,,,,,,,,,,,,,,,,,,,,,,,,,,,,,,,,,168,planta,Catalan,Sounds/cat_planta.mp3,2020-06-11_13h04.20.580,TranslationElicitation_spa,3.2.4,MacIntel,60,5ede18e41b8bce022ee5dd40,,1,0,80,60,1,79
,,,,,,,,,,,,,,,,,,,,,,,,,,,,,,,,,,,t,1.348999977,T,FALSE,,,,,,,181,tobogan,Catalan,Sounds/cat_tobogan.mp3,2020-06-11_13h04.20.580,TranslationElicitation_spa,3.2.4,MacIntel,60,5ede18e41b8bce022ee5dd40,,1,0,80,72,1,79
,,,,,,,,,,,,,,,,,,,,,,,,,,,,,,,,,,,o,1.75,TO,FALSE,,,,,,,181,tobogan,Catalan,Sounds/cat_tobogan.mp3,2020-06-11_13h04.20.580,TranslationElicitation_spa,3.2.4,MacIntel,60,5ede18e41b8bce022ee5dd40,,1,0,80,72,1,79
,,,,,,,,,,,,,,,,,,,,,,,,,,,,,,,,,,,b,2.100000143,TOB,FALSE,,,,,,,181,tobogan,Catalan,Sounds/cat_tobogan.mp3,2020-06-11_13h04.20.580,TranslationElicitation_spa,3.2.4,MacIntel,60,5ede18e41b8bce022ee5dd40,,1,0,80,72,1,79
,,,,,,,,,,,,,,,,,,,,,,,,,,,,,,,,,,,o,2.365999937,TOBO,FALSE,,,,,,,181,tobogan,Catalan,Sounds/cat_tobogan.mp3,2020-06-11_13h04.20.580,TranslationElicitation_spa,3.2.4,MacIntel,60,5ede18e41b8bce022ee5dd40,,1,0,80,72,1,79
,,,,,,,,,,,,,,,,,,,,,,,,,,,,,,,,,,,g,3.299999952,TOBOG,FALSE,,,,,,,181,tobogan,Catalan,Sounds/cat_tobogan.mp3,2020-06-11_13h04.20.580,TranslationElicitation_spa,3.2.4,MacIntel,60,5ede18e41b8bce022ee5dd40,,1,0,80,72,1,79
,,,,,,,,,,,,,,,,,,,,,,,,,,,,,,,,,,,a,4.350000143,TOBOGA,FALSE,,,,,,,181,tobogan,Catalan,Sounds/cat_tobogan.mp3,2020-06-11_13h04.20.580,TranslationElicitation_spa,3.2.4,MacIntel,60,5ede18e41b8bce022ee5dd40,,1,0,80,72,1,79
,,,,,,,,,,,,,,,,,,,,,,,,,,,,,,,,,,,n,4.467000008,TOBOGAN,FALSE,,,,,,,181,tobogan,Catalan,Sounds/cat_tobogan.mp3,2020-06-11_13h04.20.580,TranslationElicitation_spa,3.2.4,MacIntel,60,5ede18e41b8bce022ee5dd40,,1,0,80,72,1,79
,,,,,,,,,,,,,,,,,,,,,,,,,,,,,,,,,,,return,4.933000088,,FALSE,,,,,,,181,tobogan,Catalan,Sounds/cat_tobogan.mp3,2020-06-11_13h04.20.580,TranslationElicitation_spa,3.2.4,MacIntel,60,5ede18e41b8bce022ee5dd40,4.933000088,1,0,80,72,1,79
,,,,,,,,,,,,,,,,,,,,,,,,,,,,,,,,,,,,,,,,,,,,,181,tobogan,Catalan,Sounds/cat_tobogan.mp3,2020-06-11_13h04.20.580,TranslationElicitation_spa,3.2.4,MacIntel,60,5ede18e41b8bce022ee5dd40,,1,0,80,72,1,79
,,,,,,,,,,,,,,,,,,,,,,,,,,,,,,,,,,,p,1.76699996,P,FALSE,,,,,,,166,peu,Catalan,Sounds/cat_peu.mp3,2020-06-11_13h04.20.580,TranslationElicitation_spa,3.2.4,MacIntel,60,5ede18e41b8bce022ee5dd40,,1,0,80,59,1,79
,,,,,,,,,,,,,,,,,,,,,,,,,,,,,,,,,,,e,1.917000055,PE,FALSE,,,,,,,166,peu,Catalan,Sounds/cat_peu.mp3,2020-06-11_13h04.20.580,TranslationElicitation_spa,3.2.4,MacIntel,60,5ede18e41b8bce022ee5dd40,,1,0,80,59,1,79
,,,,,,,,,,,,,,,,,,,,,,,,,,,,,,,,,,,l,2.01699996,PEL,FALSE,,,,,,,166,peu,Catalan,Sounds/cat_peu.mp3,2020-06-11_13h04.20.580,TranslationElicitation_spa,3.2.4,MacIntel,60,5ede18e41b8bce022ee5dd40,,1,0,80,59,1,79
,,,,,,,,,,,,,,,,,,,,,,,,,,,,,,,,,,,o,2.149999857,PELO,FALSE,,,,,,,166,peu,Catalan,Sounds/cat_peu.mp3,2020-06-11_13h04.20.580,TranslationElicitation_spa,3.2.4,MacIntel,60,5ede18e41b8bce022ee5dd40,,1,0,80,59,1,79
,,,,,,,,,,,,,,,,,,,,,,,,,,,,,,,,,,,return,2.917000055,,FALSE,,,,,,,166,peu,Catalan,Sounds/cat_peu.mp3,2020-06-11_13h04.20.580,TranslationElicitation_spa,3.2.4,MacIntel,60,5ede18e41b8bce022ee5dd40,2.917000055,1,0,80,59,1,79
,,,,,,,,,,,,,,,,,,,,,,,,,,,,,,,,,,,,,,,,,,,,,166,peu,Catalan,Sounds/cat_peu.mp3,2020-06-11_13h04.20.580,TranslationElicitation_spa,3.2.4,MacIntel,60,5ede18e41b8bce022ee5dd40,,1,0,80,59,1,79
,,,,,,,,,,,,,,,,,,,,,,,,,,,,,,,,,,,c,1.648999929,C,FALSE,,,,,,,188,xocolata,Catalan,Sounds/cat_xocolata.mp3,2020-06-11_13h04.20.580,TranslationElicitation_spa,3.2.4,MacIntel,60,5ede18e41b8bce022ee5dd40,,1,0,80,78,1,79
,,,,,,,,,,,,,,,,,,,,,,,,,,,,,,,,,,,h,2.497999907,CH,FALSE,,,,,,,188,xocolata,Catalan,Sounds/cat_xocolata.mp3,2020-06-11_13h04.20.580,TranslationElicitation_spa,3.2.4,MacIntel,60,5ede18e41b8bce022ee5dd40,,1,0,80,78,1,79
,,,,,,,,,,,,,,,,,,,,,,,,,,,,,,,,,,,o,2.832000017,CHO,FALSE,,,,,,,188,xocolata,Catalan,Sounds/cat_xocolata.mp3,2020-06-11_13h04.20.580,TranslationElicitation_spa,3.2.4,MacIntel,60,5ede18e41b8bce022ee5dd40,,1,0,80,78,1,79
,,,,,,,,,,,,,,,,,,,,,,,,,,,,,,,,,,,c,3.598999977,CHOC,FALSE,,,,,,,188,xocolata,Catalan,Sounds/cat_xocolata.mp3,2020-06-11_13h04.20.580,TranslationElicitation_spa,3.2.4,MacIntel,60,5ede18e41b8bce022ee5dd40,,1,0,80,78,1,79
,,,,,,,,,,,,,,,,,,,,,,,,,,,,,,,,,,,o,3.751999855,CHOCO,FALSE,,,,,,,188,xocolata,Catalan,Sounds/cat_xocolata.mp3,2020-06-11_13h04.20.580,TranslationElicitation_spa,3.2.4,MacIntel,60,5ede18e41b8bce022ee5dd40,,1,0,80,78,1,79
,,,,,,,,,,,,,,,,,,,,,,,,,,,,,,,,,,,l,3.915999889,CHOCOL,FALSE,,,,,,,188,xocolata,Catalan,Sounds/cat_xocolata.mp3,2020-06-11_13h04.20.580,TranslationElicitation_spa,3.2.4,MacIntel,60,5ede18e41b8bce022ee5dd40,,1,0,80,78,1,79
,,,,,,,,,,,,,,,,,,,,,,,,,,,,,,,,,,,a,4.032000065,CHOCOLA,FALSE,,,,,,,188,xocolata,Catalan,Sounds/cat_xocolata.mp3,2020-06-11_13h04.20.580,TranslationElicitation_spa,3.2.4,MacIntel,60,5ede18e41b8bce022ee5dd40,,1,0,80,78,1,79
,,,,,,,,,,,,,,,,,,,,,,,,,,,,,,,,,,,t,4.332000017,CHOCOLAT,FALSE,,,,,,,188,xocolata,Catalan,Sounds/cat_xocolata.mp3,2020-06-11_13h04.20.580,TranslationElicitation_spa,3.2.4,MacIntel,60,5ede18e41b8bce022ee5dd40,,1,0,80,78,1,79
,,,,,,,,,,,,,,,,,,,,,,,,,,,,,,,,,,,e,4.46600008,CHOCOLATE,FALSE,,,,,,,188,xocolata,Catalan,Sounds/cat_xocolata.mp3,2020-06-11_13h04.20.580,TranslationElicitation_spa,3.2.4,MacIntel,60,5ede18e41b8bce022ee5dd40,,1,0,80,78,1,79
,,,,,,,,,,,,,,,,,,,,,,,,,,,,,,,,,,,return,5.098999977,,FALSE,,,,,,,188,xocolata,Catalan,Sounds/cat_xocolata.mp3,2020-06-11_13h04.20.580,TranslationElicitation_spa,3.2.4,MacIntel,60,5ede18e41b8bce022ee5dd40,5.098999977,1,0,80,78,1,79
,,,,,,,,,,,,,,,,,,,,,,,,,,,,,,,,,,,,,,,,,,,,,188,xocolata,Catalan,Sounds/cat_xocolata.mp3,2020-06-11_13h04.20.580,TranslationElicitation_spa,3.2.4,MacIntel,60,5ede18e41b8bce022ee5dd40,,1,0,80,78,1,79
,,,,,,,,,,,,,,,,,,,,,,,,,,,,,,,,,,,c,2.099999905,C,FALSE,,,,,,,145,got,Catalan,Sounds/cat_got.mp3,2020-06-11_13h04.20.580,TranslationElicitation_spa,3.2.4,MacIntel,60,5ede18e41b8bce022ee5dd40,,1,0,80,40,1,79
,,,,,,,,,,,,,,,,,,,,,,,,,,,,,,,,,,,a,2.315999985,CA,FALSE,,,,,,,145,got,Catalan,Sounds/cat_got.mp3,2020-06-11_13h04.20.580,TranslationElicitation_spa,3.2.4,MacIntel,60,5ede18e41b8bce022ee5dd40,,1,0,80,40,1,79
,,,,,,,,,,,,,,,,,,,,,,,,,,,,,,,,,,,b,2.549999952,CAB,FALSE,,,,,,,145,got,Catalan,Sounds/cat_got.mp3,2020-06-11_13h04.20.580,TranslationElicitation_spa,3.2.4,MacIntel,60,5ede18e41b8bce022ee5dd40,,1,0,80,40,1,79
,,,,,,,,,,,,,,,,,,,,,,,,,,,,,,,,,,,r,2.665999889,CABR,FALSE,,,,,,,145,got,Catalan,Sounds/cat_got.mp3,2020-06-11_13h04.20.580,TranslationElicitation_spa,3.2.4,MacIntel,60,5ede18e41b8bce022ee5dd40,,1,0,80,40,1,79
,,,,,,,,,,,,,,,,,,,,,,,,,,,,,,,,,,,a,2.917000055,CABRA,FALSE,,,,,,,145,got,Catalan,Sounds/cat_got.mp3,2020-06-11_13h04.20.580,TranslationElicitation_spa,3.2.4,MacIntel,60,5ede18e41b8bce022ee5dd40,,1,0,80,40,1,79
,,,,,,,,,,,,,,,,,,,,,,,,,,,,,,,,,,,return,3.700000048,,FALSE,,,,,,,145,got,Catalan,Sounds/cat_got.mp3,2020-06-11_13h04.20.580,TranslationElicitation_spa,3.2.4,MacIntel,60,5ede18e41b8bce022ee5dd40,3.700000048,1,0,80,40,1,79
,,,,,,,,,,,,,,,,,,,,,,,,,,,,,,,,,,,,,,,,,,,,,145,got,Catalan,Sounds/cat_got.mp3,2020-06-11_13h04.20.580,TranslationElicitation_spa,3.2.4,MacIntel,60,5ede18e41b8bce022ee5dd40,,1,0,80,40,1,79
,,,,,,,,,,,,,,,,,,,,,,,,,,,,,,,,,,,p,1.631000042,P,FALSE,,,,,,,174,porta,Catalan,Sounds/cat_porta.mp3,2020-06-11_13h04.20.580,TranslationElicitation_spa,3.2.4,MacIntel,60,5ede18e41b8bce022ee5dd40,,1,0,80,66,1,79
,,,,,,,,,,,,,,,,,,,,,,,,,,,,,,,,,,,u,1.898000002,PU,FALSE,,,,,,,174,porta,Catalan,Sounds/cat_porta.mp3,2020-06-11_13h04.20.580,TranslationElicitation_spa,3.2.4,MacIntel,60,5ede18e41b8bce022ee5dd40,,1,0,80,66,1,79
,,,,,,,,,,,,,,,,,,,,,,,,,,,,,,,,,,,e,2.1650002,PUE,FALSE,,,,,,,174,porta,Catalan,Sounds/cat_porta.mp3,2020-06-11_13h04.20.580,TranslationElicitation_spa,3.2.4,MacIntel,60,5ede18e41b8bce022ee5dd40,,1,0,80,66,1,79
,,,,,,,,,,,,,,,,,,,,,,,,,,,,,,,,,,,r,2.748000145,PUER,FALSE,,,,,,,174,porta,Catalan,Sounds/cat_porta.mp3,2020-06-11_13h04.20.580,TranslationElicitation_spa,3.2.4,MacIntel,60,5ede18e41b8bce022ee5dd40,,1,0,80,66,1,79
,,,,,,,,,,,,,,,,,,,,,,,,,,,,,,,,,,,t,3.082000017,PUERT,FALSE,,,,,,,174,porta,Catalan,Sounds/cat_porta.mp3,2020-06-11_13h04.20.580,TranslationElicitation_spa,3.2.4,MacIntel,60,5ede18e41b8bce022ee5dd40,,1,0,80,66,1,79
,,,,,,,,,,,,,,,,,,,,,,,,,,,,,,,,,,,a,3.180999994,PUERTA,FALSE,,,,,,,174,porta,Catalan,Sounds/cat_porta.mp3,2020-06-11_13h04.20.580,TranslationElicitation_spa,3.2.4,MacIntel,60,5ede18e41b8bce022ee5dd40,,1,0,80,66,1,79
,,,,,,,,,,,,,,,,,,,,,,,,,,,,,,,,,,,return,3.882000208,,FALSE,,,,,,,174,porta,Catalan,Sounds/cat_porta.mp3,2020-06-11_13h04.20.580,TranslationElicitation_spa,3.2.4,MacIntel,60,5ede18e41b8bce022ee5dd40,3.882000208,1,0,80,66,1,79
,,,,,,,,,,,,,,,,,,,,,,,,,,,,,,,,,,,,,,,,,,,,,174,porta,Catalan,Sounds/cat_porta.mp3,2020-06-11_13h04.20.580,TranslationElicitation_spa,3.2.4,MacIntel,60,5ede18e41b8bce022ee5dd40,,1,0,80,66,1,79
,,,,,,,,,,,,,,,,,,,,,,,,,,,,,,,,,,,t,1.164999962,T,FALSE,,,,,,,180,tisores,Catalan,Sounds/cat_tisores.mp3,2020-06-11_13h04.20.580,TranslationElicitation_spa,3.2.4,MacIntel,60,5ede18e41b8bce022ee5dd40,,1,0,80,71,1,79
,,,,,,,,,,,,,,,,,,,,,,,,,,,,,,,,,,,e,1.598999977,TE,FALSE,,,,,,,180,tisores,Catalan,Sounds/cat_tisores.mp3,2020-06-11_13h04.20.580,TranslationElicitation_spa,3.2.4,MacIntel,60,5ede18e41b8bce022ee5dd40,,1,0,80,71,1,79
,,,,,,,,,,,,,,,,,,,,,,,,,,,,,,,,,,,s,1.815999985,TES,FALSE,,,,,,,180,tisores,Catalan,Sounds/cat_tisores.mp3,2020-06-11_13h04.20.580,TranslationElicitation_spa,3.2.4,MacIntel,60,5ede18e41b8bce022ee5dd40,,1,0,80,71,1,79
,,,,,,,,,,,,,,,,,,,,,,,,,,,,,,,,,,,r,2.014999866,TESR,FALSE,,,,,,,180,tisores,Catalan,Sounds/cat_tisores.mp3,2020-06-11_13h04.20.580,TranslationElicitation_spa,3.2.4,MacIntel,60,5ede18e41b8bce022ee5dd40,,1,0,80,71,1,79
,,,,,,,,,,,,,,,,,,,,,,,,,,,,,,,,,,,o,2.165999889,TESRO,FALSE,,,,,,,180,tisores,Catalan,Sounds/cat_tisores.mp3,2020-06-11_13h04.20.580,TranslationElicitation_spa,3.2.4,MacIntel,60,5ede18e41b8bce022ee5dd40,,1,0,80,71,1,79
,,,,,,,,,,,,,,,,,,,,,,,,,,,,,,,,,,,e,2.331999779,TESROE,FALSE,,,,,,,180,tisores,Catalan,Sounds/cat_tisores.mp3,2020-06-11_13h04.20.580,TranslationElicitation_spa,3.2.4,MacIntel,60,5ede18e41b8bce022ee5dd40,,1,0,80,71,1,79
,,,,,,,,,,,,,,,,,,,,,,,,,,,,,,,,,,,s,2.582999945,TESROES,FALSE,,,,,,,180,tisores,Catalan,Sounds/cat_tisores.mp3,2020-06-11_13h04.20.580,TranslationElicitation_spa,3.2.4,MacIntel,60,5ede18e41b8bce022ee5dd40,,1,0,80,71,1,79
,,,,,,,,,,,,,,,,,,,,,,,,,,,,,,,,,,,backspace,3.848999977,TESRO,TRUE,,,,,,,180,tisores,Catalan,Sounds/cat_tisores.mp3,2020-06-11_13h04.20.580,TranslationElicitation_spa,3.2.4,MacIntel,60,5ede18e41b8bce022ee5dd40,,1,0,80,71,1,79
,,,,,,,,,,,,,,,,,,,,,,,,,,,,,,,,,,,o,4.649999857,TESROO,TRUE,,,,,,,180,tisores,Catalan,Sounds/cat_tisores.mp3,2020-06-11_13h04.20.580,TranslationElicitation_spa,3.2.4,MacIntel,60,5ede18e41b8bce022ee5dd40,,1,0,80,71,1,79
,,,,,,,,,,,,,,,,,,,,,,,,,,,,,,,,,,,backspace,5.132999897,TESR,TRUE,,,,,,,180,tisores,Catalan,Sounds/cat_tisores.mp3,2020-06-11_13h04.20.580,TranslationElicitation_spa,3.2.4,MacIntel,60,5ede18e41b8bce022ee5dd40,,1,0,80,71,1,79
,,,,,,,,,,,,,,,,,,,,,,,,,,,,,,,,,,,backspace,7.031999826,TE,TRUE,,,,,,,180,tisores,Catalan,Sounds/cat_tisores.mp3,2020-06-11_13h04.20.580,TranslationElicitation_spa,3.2.4,MacIntel,60,5ede18e41b8bce022ee5dd40,,1,0,80,71,1,79
,,,,,,,,,,,,,,,,,,,,,,,,,,,,,,,,,,,s,7.966999769,TES,TRUE,,,,,,,180,tisores,Catalan,Sounds/cat_tisores.mp3,2020-06-11_13h04.20.580,TranslationElicitation_spa,3.2.4,MacIntel,60,5ede18e41b8bce022ee5dd40,,1,0,80,71,1,79
,,,,,,,,,,,,,,,,,,,,,,,,,,,,,,,,,,,o,8.099999905,TESO,TRUE,,,,,,,180,tisores,Catalan,Sounds/cat_tisores.mp3,2020-06-11_13h04.20.580,TranslationElicitation_spa,3.2.4,MacIntel,60,5ede18e41b8bce022ee5dd40,,1,0,80,71,1,79
,,,,,,,,,,,,,,,,,,,,,,,,,,,,,,,,,,,r,8.265999794,TESOR,TRUE,,,,,,,180,tisores,Catalan,Sounds/cat_tisores.mp3,2020-06-11_13h04.20.580,TranslationElicitation_spa,3.2.4,MacIntel,60,5ede18e41b8bce022ee5dd40,,1,0,80,71,1,79
,,,,,,,,,,,,,,,,,,,,,,,,,,,,,,,,,,,o,8.399999857,TESORO,TRUE,,,,,,,180,tisores,Catalan,Sounds/cat_tisores.mp3,2020-06-11_13h04.20.580,TranslationElicitation_spa,3.2.4,MacIntel,60,5ede18e41b8bce022ee5dd40,,1,0,80,71,1,79
,,,,,,,,,,,,,,,,,,,,,,,,,,,,,,,,,,,return,8.799999952,,TRUE,,,,,,,180,tisores,Catalan,Sounds/cat_tisores.mp3,2020-06-11_13h04.20.580,TranslationElicitation_spa,3.2.4,MacIntel,60,5ede18e41b8bce022ee5dd40,8.799999952,1,0,80,71,1,79
,,,,,,,,,,,,,,,,,,,,,,,,,,,,,,,,,,,,,,,,,,,,,180,tisores,Catalan,Sounds/cat_tisores.mp3,2020-06-11_13h04.20.580,TranslationElicitation_spa,3.2.4,MacIntel,60,5ede18e41b8bce022ee5dd40,,1,0,80,71,1,79
,,,,,,,,,,,,,,,,,,,,,,,,,,,,,,,,,,,o,2.799999952,O,FALSE,,,,,,,161,ovella,Catalan,Sounds/cat_ovella.mp3,2020-06-11_13h04.20.580,TranslationElicitation_spa,3.2.4,MacIntel,60,5ede18e41b8bce022ee5dd40,,1,0,80,54,1,79
,,,,,,,,,,,,,,,,,,,,,,,,,,,,,,,,,,,v,4.332000017,OV,FALSE,,,,,,,161,ovella,Catalan,Sounds/cat_ovella.mp3,2020-06-11_13h04.20.580,TranslationElicitation_spa,3.2.4,MacIntel,60,5ede18e41b8bce022ee5dd40,,1,0,80,54,1,79
,,,,,,,,,,,,,,,,,,,,,,,,,,,,,,,,,,,backspace,5,,TRUE,,,,,,,161,ovella,Catalan,Sounds/cat_ovella.mp3,2020-06-11_13h04.20.580,TranslationElicitation_spa,3.2.4,MacIntel,60,5ede18e41b8bce022ee5dd40,,1,0,80,54,1,79
,,,,,,,,,,,,,,,,,,,,,,,,,,,,,,,,,,,b,5.51699996,B,TRUE,,,,,,,161,ovella,Catalan,Sounds/cat_ovella.mp3,2020-06-11_13h04.20.580,TranslationElicitation_spa,3.2.4,MacIntel,60,5ede18e41b8bce022ee5dd40,,1,0,80,54,1,79
,,,,,,,,,,,,,,,,,,,,,,,,,,,,,,,,,,,e,5.616999865,BE,TRUE,,,,,,,161,ovella,Catalan,Sounds/cat_ovella.mp3,2020-06-11_13h04.20.580,TranslationElicitation_spa,3.2.4,MacIntel,60,5ede18e41b8bce022ee5dd40,,1,0,80,54,1,79
,,,,,,,,,,,,,,,,,,,,,,,,,,,,,,,,,,,j,5.815999985,BEJ,TRUE,,,,,,,161,ovella,Catalan,Sounds/cat_ovella.mp3,2020-06-11_13h04.20.580,TranslationElicitation_spa,3.2.4,MacIntel,60,5ede18e41b8bce022ee5dd40,,1,0,80,54,1,79
,,,,,,,,,,,,,,,,,,,,,,,,,,,,,,,,,,,a,5.932999849,BEJA,TRUE,,,,,,,161,ovella,Catalan,Sounds/cat_ovella.mp3,2020-06-11_13h04.20.580,TranslationElicitation_spa,3.2.4,MacIntel,60,5ede18e41b8bce022ee5dd40,,1,0,80,54,1,79
,,,,,,,,,,,,,,,,,,,,,,,,,,,,,,,,,,,backspace,6.632999897,BE,TRUE,,,,,,,161,ovella,Catalan,Sounds/cat_ovella.mp3,2020-06-11_13h04.20.580,TranslationElicitation_spa,3.2.4,MacIntel,60,5ede18e41b8bce022ee5dd40,,1,0,80,54,1,79
,,,,,,,,,,,,,,,,,,,,,,,,,,,,,,,,,,,backspace,7.066999912,,TRUE,,,,,,,161,ovella,Catalan,Sounds/cat_ovella.mp3,2020-06-11_13h04.20.580,TranslationElicitation_spa,3.2.4,MacIntel,60,5ede18e41b8bce022ee5dd40,,1,0,80,54,1,79
,,,,,,,,,,,,,,,,,,,,,,,,,,,,,,,,,,,backspace,7.349999905,,TRUE,,,,,,,161,ovella,Catalan,Sounds/cat_ovella.mp3,2020-06-11_13h04.20.580,TranslationElicitation_spa,3.2.4,MacIntel,60,5ede18e41b8bce022ee5dd40,,1,0,80,54,1,79
,,,,,,,,,,,,,,,,,,,,,,,,,,,,,,,,,,,o,7.965999842,O,TRUE,,,,,,,161,ovella,Catalan,Sounds/cat_ovella.mp3,2020-06-11_13h04.20.580,TranslationElicitation_spa,3.2.4,MacIntel,60,5ede18e41b8bce022ee5dd40,,1,0,80,54,1,79
,,,,,,,,,,,,,,,,,,,,,,,,,,,,,,,,,,,b,8.399999857,OB,TRUE,,,,,,,161,ovella,Catalan,Sounds/cat_ovella.mp3,2020-06-11_13h04.20.580,TranslationElicitation_spa,3.2.4,MacIntel,60,5ede18e41b8bce022ee5dd40,,1,0,80,54,1,79
,,,,,,,,,,,,,,,,,,,,,,,,,,,,,,,,,,,e,8.51699996,OBE,TRUE,,,,,,,161,ovella,Catalan,Sounds/cat_ovella.mp3,2020-06-11_13h04.20.580,TranslationElicitation_spa,3.2.4,MacIntel,60,5ede18e41b8bce022ee5dd40,,1,0,80,54,1,79
,,,,,,,,,,,,,,,,,,,,,,,,,,,,,,,,,,,j,9.217000008,OBEJ,TRUE,,,,,,,161,ovella,Catalan,Sounds/cat_ovella.mp3,2020-06-11_13h04.20.580,TranslationElicitation_spa,3.2.4,MacIntel,60,5ede18e41b8bce022ee5dd40,,1,0,80,54,1,79
,,,,,,,,,,,,,,,,,,,,,,,,,,,,,,,,,,,a,9.23300004,OBEJA,TRUE,,,,,,,161,ovella,Catalan,Sounds/cat_ovella.mp3,2020-06-11_13h04.20.580,TranslationElicitation_spa,3.2.4,MacIntel,60,5ede18e41b8bce022ee5dd40,,1,0,80,54,1,79
,,,,,,,,,,,,,,,,,,,,,,,,,,,,,,,,,,,return,9.698999882,,TRUE,,,,,,,161,ovella,Catalan,Sounds/cat_ovella.mp3,2020-06-11_13h04.20.580,TranslationElicitation_spa,3.2.4,MacIntel,60,5ede18e41b8bce022ee5dd40,9.698999882,1,0,80,54,1,79
,,,,,,,,,,,,,,,,,,,,,,,,,,,,,,,,,,,,,,,,,,,,,161,ovella,Catalan,Sounds/cat_ovella.mp3,2020-06-11_13h04.20.580,TranslationElicitation_spa,3.2.4,MacIntel,60,5ede18e41b8bce022ee5dd40,,1,0,80,54,1,79
,,,,,,,,,,,,,,,,,,,,,,,,,,,,,,,,,,,c,1.382999897,C,FALSE,,,,,,,121,camisa,Catalan,Sounds/cat_camisa.mp3,2020-06-11_13h04.20.580,TranslationElicitation_spa,3.2.4,MacIntel,60,5ede18e41b8bce022ee5dd40,,1,0,80,16,1,79
,,,,,,,,,,,,,,,,,,,,,,,,,,,,,,,,,,,a,1.632999897,CA,FALSE,,,,,,,121,camisa,Catalan,Sounds/cat_camisa.mp3,2020-06-11_13h04.20.580,TranslationElicitation_spa,3.2.4,MacIntel,60,5ede18e41b8bce022ee5dd40,,1,0,80,16,1,79
,,,,,,,,,,,,,,,,,,,,,,,,,,,,,,,,,,,m,2.181999922,CAM,FALSE,,,,,,,121,camisa,Catalan,Sounds/cat_camisa.mp3,2020-06-11_13h04.20.580,TranslationElicitation_spa,3.2.4,MacIntel,60,5ede18e41b8bce022ee5dd40,,1,0,80,16,1,79
,,,,,,,,,,,,,,,,,,,,,,,,,,,,,,,,,,,i,2.36500001,CAMI,FALSE,,,,,,,121,camisa,Catalan,Sounds/cat_camisa.mp3,2020-06-11_13h04.20.580,TranslationElicitation_spa,3.2.4,MacIntel,60,5ede18e41b8bce022ee5dd40,,1,0,80,16,1,79
,,,,,,,,,,,,,,,,,,,,,,,,,,,,,,,,,,,s,2.648999929,CAMIS,FALSE,,,,,,,121,camisa,Catalan,Sounds/cat_camisa.mp3,2020-06-11_13h04.20.580,TranslationElicitation_spa,3.2.4,MacIntel,60,5ede18e41b8bce022ee5dd40,,1,0,80,16,1,79
,,,,,,,,,,,,,,,,,,,,,,,,,,,,,,,,,,,a,2.766000032,CAMISA,FALSE,,,,,,,121,camisa,Catalan,Sounds/cat_camisa.mp3,2020-06-11_13h04.20.580,TranslationElicitation_spa,3.2.4,MacIntel,60,5ede18e41b8bce022ee5dd40,,1,0,80,16,1,79
,,,,,,,,,,,,,,,,,,,,,,,,,,,,,,,,,,,return,3.165999889,,FALSE,,,,,,,121,camisa,Catalan,Sounds/cat_camisa.mp3,2020-06-11_13h04.20.580,TranslationElicitation_spa,3.2.4,MacIntel,60,5ede18e41b8bce022ee5dd40,3.165999889,1,0,80,16,1,79
,,,,,,,,,,,,,,,,,,,,,,,,,,,,,,,,,,,,,,,,,,,,,121,camisa,Catalan,Sounds/cat_camisa.mp3,2020-06-11_13h04.20.580,TranslationElicitation_spa,3.2.4,MacIntel,60,5ede18e41b8bce022ee5dd40,,1,0,80,16,1,79
,,,,,,,,,,,,,,,,,,,,,,,,,,,,,,,,,,,p,1.450000048,P,FALSE,,,,,,,162,pa,Catalan,Sounds/cat_pa.mp3,2020-06-11_13h04.20.580,TranslationElicitation_spa,3.2.4,MacIntel,60,5ede18e41b8bce022ee5dd40,,1,0,80,55,1,79
,,,,,,,,,,,,,,,,,,,,,,,,,,,,,,,,,,,a,1.600000143,PA,FALSE,,,,,,,162,pa,Catalan,Sounds/cat_pa.mp3,2020-06-11_13h04.20.580,TranslationElicitation_spa,3.2.4,MacIntel,60,5ede18e41b8bce022ee5dd40,,1,0,80,55,1,79
,,,,,,,,,,,,,,,,,,,,,,,,,,,,,,,,,,,n,1.782999992,PAN,FALSE,,,,,,,162,pa,Catalan,Sounds/cat_pa.mp3,2020-06-11_13h04.20.580,TranslationElicitation_spa,3.2.4,MacIntel,60,5ede18e41b8bce022ee5dd40,,1,0,80,55,1,79
,,,,,,,,,,,,,,,,,,,,,,,,,,,,,,,,,,,return,2.649000168,,FALSE,,,,,,,162,pa,Catalan,Sounds/cat_pa.mp3,2020-06-11_13h04.20.580,TranslationElicitation_spa,3.2.4,MacIntel,60,5ede18e41b8bce022ee5dd40,2.649000168,1,0,80,55,1,79
,,,,,,,,,,,,,,,,,,,,,,,,,,,,,,,,,,,,,,,,,,,,,162,pa,Catalan,Sounds/cat_pa.mp3,2020-06-11_13h04.20.580,TranslationElicitation_spa,3.2.4,MacIntel,60,5ede18e41b8bce022ee5dd40,,1,0,80,55,1,79
,,,,,,,,,,,,,,,,,,,,,,,,,,,,,,,,,,,j,1.265000105,J,FALSE,,,,,,,142,girafa,Catalan,Sounds/cat_girafa.mp3,2020-06-11_13h04.20.580,TranslationElicitation_spa,3.2.4,MacIntel,60,5ede18e41b8bce022ee5dd40,,1,0,80,37,1,79
,,,,,,,,,,,,,,,,,,,,,,,,,,,,,,,,,,,i,1.482000113,JI,FALSE,,,,,,,142,girafa,Catalan,Sounds/cat_girafa.mp3,2020-06-11_13h04.20.580,TranslationElicitation_spa,3.2.4,MacIntel,60,5ede18e41b8bce022ee5dd40,,1,0,80,37,1,79
,,,,,,,,,,,,,,,,,,,,,,,,,,,,,,,,,,,r,1.86500001,JIR,FALSE,,,,,,,142,girafa,Catalan,Sounds/cat_girafa.mp3,2020-06-11_13h04.20.580,TranslationElicitation_spa,3.2.4,MacIntel,60,5ede18e41b8bce022ee5dd40,,1,0,80,37,1,79
,,,,,,,,,,,,,,,,,,,,,,,,,,,,,,,,,,,a,2.11500001,JIRA,FALSE,,,,,,,142,girafa,Catalan,Sounds/cat_girafa.mp3,2020-06-11_13h04.20.580,TranslationElicitation_spa,3.2.4,MacIntel,60,5ede18e41b8bce022ee5dd40,,1,0,80,37,1,79
,,,,,,,,,,,,,,,,,,,,,,,,,,,,,,,,,,,f,2.416000128,JIRAF,FALSE,,,,,,,142,girafa,Catalan,Sounds/cat_girafa.mp3,2020-06-11_13h04.20.580,TranslationElicitation_spa,3.2.4,MacIntel,60,5ede18e41b8bce022ee5dd40,,1,0,80,37,1,79
,,,,,,,,,,,,,,,,,,,,,,,,,,,,,,,,,,,a,2.582000017,JIRAFA,FALSE,,,,,,,142,girafa,Catalan,Sounds/cat_girafa.mp3,2020-06-11_13h04.20.580,TranslationElicitation_spa,3.2.4,MacIntel,60,5ede18e41b8bce022ee5dd40,,1,0,80,37,1,79
,,,,,,,,,,,,,,,,,,,,,,,,,,,,,,,,,,,return,4.532999992,,FALSE,,,,,,,142,girafa,Catalan,Sounds/cat_girafa.mp3,2020-06-11_13h04.20.580,TranslationElicitation_spa,3.2.4,MacIntel,60,5ede18e41b8bce022ee5dd40,4.532999992,1,0,80,37,1,79
,,,,,,,,,,,,,,,,,,,,,,,,,,,,,,,,,,,,,,,,,,,,,142,girafa,Catalan,Sounds/cat_girafa.mp3,2020-06-11_13h04.20.580,TranslationElicitation_spa,3.2.4,MacIntel,60,5ede18e41b8bce022ee5dd40,,1,0,80,37,1,79
,,,,,,,,,,,,,,,,,,,,,,,,,,,,,,,,,,,b,1.851000071,B,FALSE,,,,,,,112,bici,Catalan,Sounds/cat_bici.mp3,2020-06-11_13h04.20.580,TranslationElicitation_spa,3.2.4,MacIntel,60,5ede18e41b8bce022ee5dd40,,1,0,80,7,1,79
,,,,,,,,,,,,,,,,,,,,,,,,,,,,,,,,,,,i,1.950000048,BI,FALSE,,,,,,,112,bici,Catalan,Sounds/cat_bici.mp3,2020-06-11_13h04.20.580,TranslationElicitation_spa,3.2.4,MacIntel,60,5ede18e41b8bce022ee5dd40,,1,0,80,7,1,79
,,,,,,,,,,,,,,,,,,,,,,,,,,,,,,,,,,,c,2.467000008,BIC,FALSE,,,,,,,112,bici,Catalan,Sounds/cat_bici.mp3,2020-06-11_13h04.20.580,TranslationElicitation_spa,3.2.4,MacIntel,60,5ede18e41b8bce022ee5dd40,,1,0,80,7,1,79
,,,,,,,,,,,,,,,,,,,,,,,,,,,,,,,,,,,i,3.083999872,BICI,FALSE,,,,,,,112,bici,Catalan,Sounds/cat_bici.mp3,2020-06-11_13h04.20.580,TranslationElicitation_spa,3.2.4,MacIntel,60,5ede18e41b8bce022ee5dd40,,1,0,80,7,1,79
,,,,,,,,,,,,,,,,,,,,,,,,,,,,,,,,,,,return,3.483999968,,FALSE,,,,,,,112,bici,Catalan,Sounds/cat_bici.mp3,2020-06-11_13h04.20.580,TranslationElicitation_spa,3.2.4,MacIntel,60,5ede18e41b8bce022ee5dd40,3.483999968,1,0,80,7,1,79
,,,,,,,,,,,,,,,,,,,,,,,,,,,,,,,,,,,,,,,,,,,,,112,bici,Catalan,Sounds/cat_bici.mp3,2020-06-11_13h04.20.580,TranslationElicitation_spa,3.2.4,MacIntel,60,5ede18e41b8bce022ee5dd40,,1,0,80,7,1,79
,,,,,,,,,,,,,,,,,,,,,,,,,,,,,,,,,,,m,1.482000113,M,FALSE,,,,,,,152,ma,Catalan,Sounds/cat_ma.mp3,2020-06-11_13h04.20.580,TranslationElicitation_spa,3.2.4,MacIntel,60,5ede18e41b8bce022ee5dd40,,1,0,80,46,1,79
,,,,,,,,,,,,,,,,,,,,,,,,,,,,,,,,,,,a,1.617000103,MA,FALSE,,,,,,,152,ma,Catalan,Sounds/cat_ma.mp3,2020-06-11_13h04.20.580,TranslationElicitation_spa,3.2.4,MacIntel,60,5ede18e41b8bce022ee5dd40,,1,0,80,46,1,79
,,,,,,,,,,,,,,,,,,,,,,,,,,,,,,,,,,,n,1.73300004,MAN,FALSE,,,,,,,152,ma,Catalan,Sounds/cat_ma.mp3,2020-06-11_13h04.20.580,TranslationElicitation_spa,3.2.4,MacIntel,60,5ede18e41b8bce022ee5dd40,,1,0,80,46,1,79
,,,,,,,,,,,,,,,,,,,,,,,,,,,,,,,,,,,o,1.916000128,MANO,FALSE,,,,,,,152,ma,Catalan,Sounds/cat_ma.mp3,2020-06-11_13h04.20.580,TranslationElicitation_spa,3.2.4,MacIntel,60,5ede18e41b8bce022ee5dd40,,1,0,80,46,1,79
,,,,,,,,,,,,,,,,,,,,,,,,,,,,,,,,,,,return,2.51699996,,FALSE,,,,,,,152,ma,Catalan,Sounds/cat_ma.mp3,2020-06-11_13h04.20.580,TranslationElicitation_spa,3.2.4,MacIntel,60,5ede18e41b8bce022ee5dd40,2.51699996,1,0,80,46,1,79
,,,,,,,,,,,,,,,,,,,,,,,,,,,,,,,,,,,,,,,,,,,,,152,ma,Catalan,Sounds/cat_ma.mp3,2020-06-11_13h04.20.580,TranslationElicitation_spa,3.2.4,MacIntel,60,5ede18e41b8bce022ee5dd40,,1,0,80,46,1,79
,,,,,,,,,,,,,,,,,,,,,,,,,,,,,,,,,,,s,1.615999937,S,FALSE,,,,,,,177,sol,Catalan,Sounds/cat_sol.mp3,2020-06-11_13h04.20.580,TranslationElicitation_spa,3.2.4,MacIntel,60,5ede18e41b8bce022ee5dd40,,1,0,80,69,1,79
,,,,,,,,,,,,,,,,,,,,,,,,,,,,,,,,,,,o,1.75,SO,FALSE,,,,,,,177,sol,Catalan,Sounds/cat_sol.mp3,2020-06-11_13h04.20.580,TranslationElicitation_spa,3.2.4,MacIntel,60,5ede18e41b8bce022ee5dd40,,1,0,80,69,1,79
,,,,,,,,,,,,,,,,,,,,,,,,,,,,,,,,,,,l,1.950000048,SOL,FALSE,,,,,,,177,sol,Catalan,Sounds/cat_sol.mp3,2020-06-11_13h04.20.580,TranslationElicitation_spa,3.2.4,MacIntel,60,5ede18e41b8bce022ee5dd40,,1,0,80,69,1,79
,,,,,,,,,,,,,,,,,,,,,,,,,,,,,,,,,,,return,2.46600008,,FALSE,,,,,,,177,sol,Catalan,Sounds/cat_sol.mp3,2020-06-11_13h04.20.580,TranslationElicitation_spa,3.2.4,MacIntel,60,5ede18e41b8bce022ee5dd40,2.46600008,1,0,80,69,1,79
,,,,,,,,,,,,,,,,,,,,,,,,,,,,,,,,,,,,,,,,,,,,,177,sol,Catalan,Sounds/cat_sol.mp3,2020-06-11_13h04.20.580,TranslationElicitation_spa,3.2.4,MacIntel,60,5ede18e41b8bce022ee5dd40,,1,0,80,69,1,79
,,,,,,,,,,,,,,,,,,,,,,,,,,,,,,,,,,,d,1.900000095,D,FALSE,,,,,,,129,dit,Catalan,Sounds/cat_dit.mp3,2020-06-11_13h04.20.580,TranslationElicitation_spa,3.2.4,MacIntel,60,5ede18e41b8bce022ee5dd40,,1,0,80,24,1,79
,,,,,,,,,,,,,,,,,,,,,,,,,,,,,,,,,,,apostrophe,2.082999945,D,FALSE,,,,,,,129,dit,Catalan,Sounds/cat_dit.mp3,2020-06-11_13h04.20.580,TranslationElicitation_spa,3.2.4,MacIntel,60,5ede18e41b8bce022ee5dd40,,1,0,80,24,1,79
,,,,,,,,,,,,,,,,,,,,,,,,,,,,,,,,,,,i,2.400000095,DÍ,FALSE,,,,,,,129,dit,Catalan,Sounds/cat_dit.mp3,2020-06-11_13h04.20.580,TranslationElicitation_spa,3.2.4,MacIntel,60,5ede18e41b8bce022ee5dd40,,1,0,80,24,1,79
,,,,,,,,,,,,,,,,,,,,,,,,,,,,,,,,,,,a,2.549000025,DÍA,FALSE,,,,,,,129,dit,Catalan,Sounds/cat_dit.mp3,2020-06-11_13h04.20.580,TranslationElicitation_spa,3.2.4,MacIntel,60,5ede18e41b8bce022ee5dd40,,1,0,80,24,1,79
,,,,,,,,,,,,,,,,,,,,,,,,,,,,,,,,,,,return,2.782000065,,FALSE,,,,,,,129,dit,Catalan,Sounds/cat_dit.mp3,2020-06-11_13h04.20.580,TranslationElicitation_spa,3.2.4,MacIntel,60,5ede18e41b8bce022ee5dd40,2.782000065,1,0,80,24,1,79
,,,,,,,,,,,,,,,,,,,,,,,,,,,,,,,,,,,,,,,,,,,,,129,dit,Catalan,Sounds/cat_dit.mp3,2020-06-11_13h04.20.580,TranslationElicitation_spa,3.2.4,MacIntel,60,5ede18e41b8bce022ee5dd40,,1,0,80,24,1,79
,,,,,,,,,,,,,,,,,,,,,,,,,,,,,,,,,,,b,1.68200016,B,FALSE,,,,,,,114,bol,Catalan,Sounds/cat_bol.mp3,2020-06-11_13h04.20.580,TranslationElicitation_spa,3.2.4,MacIntel,60,5ede18e41b8bce022ee5dd40,,1,0,80,9,1,79
,,,,,,,,,,,,,,,,,,,,,,,,,,,,,,,,,,,o,1.933000088,BO,FALSE,,,,,,,114,bol,Catalan,Sounds/cat_bol.mp3,2020-06-11_13h04.20.580,TranslationElicitation_spa,3.2.4,MacIntel,60,5ede18e41b8bce022ee5dd40,,1,0,80,9,1,79
,,,,,,,,,,,,,,,,,,,,,,,,,,,,,,,,,,,l,2.100000143,BOL,FALSE,,,,,,,114,bol,Catalan,Sounds/cat_bol.mp3,2020-06-11_13h04.20.580,TranslationElicitation_spa,3.2.4,MacIntel,60,5ede18e41b8bce022ee5dd40,,1,0,80,9,1,79
,,,,,,,,,,,,,,,,,,,,,,,,,,,,,,,,,,,a,2.25,BOLA,FALSE,,,,,,,114,bol,Catalan,Sounds/cat_bol.mp3,2020-06-11_13h04.20.580,TranslationElicitation_spa,3.2.4,MacIntel,60,5ede18e41b8bce022ee5dd40,,1,0,80,9,1,79
,,,,,,,,,,,,,,,,,,,,,,,,,,,,,,,,,,,return,2.399000168,,FALSE,,,,,,,114,bol,Catalan,Sounds/cat_bol.mp3,2020-06-11_13h04.20.580,TranslationElicitation_spa,3.2.4,MacIntel,60,5ede18e41b8bce022ee5dd40,2.399000168,1,0,80,9,1,79
,,,,,,,,,,,,,,,,,,,,,,,,,,,,,,,,,,,,,,,,,,,,,114,bol,Catalan,Sounds/cat_bol.mp3,2020-06-11_13h04.20.580,TranslationElicitation_spa,3.2.4,MacIntel,60,5ede18e41b8bce022ee5dd40,,1,0,80,9,1,79
,,,,,,,,,,,,,,,,,,,,,,,,,,,,,,,,,,,l,1.532000065,L,FALSE,,,,,,,151,lluna,Catalan,Sounds/cat_lluna.mp3,2020-06-11_13h04.20.580,TranslationElicitation_spa,3.2.4,MacIntel,60,5ede18e41b8bce022ee5dd40,,1,0,80,45,1,79
,,,,,,,,,,,,,,,,,,,,,,,,,,,,,,,,,,,u,1.898999929,LU,FALSE,,,,,,,151,lluna,Catalan,Sounds/cat_lluna.mp3,2020-06-11_13h04.20.580,TranslationElicitation_spa,3.2.4,MacIntel,60,5ede18e41b8bce022ee5dd40,,1,0,80,45,1,79
,,,,,,,,,,,,,,,,,,,,,,,,,,,,,,,,,,,n,2.266000032,LUN,FALSE,,,,,,,151,lluna,Catalan,Sounds/cat_lluna.mp3,2020-06-11_13h04.20.580,TranslationElicitation_spa,3.2.4,MacIntel,60,5ede18e41b8bce022ee5dd40,,1,0,80,45,1,79
,,,,,,,,,,,,,,,,,,,,,,,,,,,,,,,,,,,a,2.431999922,LUNA,FALSE,,,,,,,151,lluna,Catalan,Sounds/cat_lluna.mp3,2020-06-11_13h04.20.580,TranslationElicitation_spa,3.2.4,MacIntel,60,5ede18e41b8bce022ee5dd40,,1,0,80,45,1,79
,,,,,,,,,,,,,,,,,,,,,,,,,,,,,,,,,,,return,3.032000065,,FALSE,,,,,,,151,lluna,Catalan,Sounds/cat_lluna.mp3,2020-06-11_13h04.20.580,TranslationElicitation_spa,3.2.4,MacIntel,60,5ede18e41b8bce022ee5dd40,3.032000065,1,0,80,45,1,79
,,,,,,,,,,,,,,,,,,,,,,,,,,,,,,,,,,,,,,,,,,,,,151,lluna,Catalan,Sounds/cat_lluna.mp3,2020-06-11_13h04.20.580,TranslationElicitation_spa,3.2.4,MacIntel,60,5ede18e41b8bce022ee5dd40,,1,0,80,45,1,79
,,,,,,,,,,,,,,,,,,,,,,,,,,,,,,,,,,,t,1.36500001,T,FALSE,,,,,,,183,tren,Catalan,Sounds/cat_tren.mp3,2020-06-11_13h04.20.580,TranslationElicitation_spa,3.2.4,MacIntel,60,5ede18e41b8bce022ee5dd40,,1,0,80,74,1,79
,,,,,,,,,,,,,,,,,,,,,,,,,,,,,,,,,,,r,1.582999945,TR,FALSE,,,,,,,183,tren,Catalan,Sounds/cat_tren.mp3,2020-06-11_13h04.20.580,TranslationElicitation_spa,3.2.4,MacIntel,60,5ede18e41b8bce022ee5dd40,,1,0,80,74,1,79
,,,,,,,,,,,,,,,,,,,,,,,,,,,,,,,,,,,e,1.766000032,TRE,FALSE,,,,,,,183,tren,Catalan,Sounds/cat_tren.mp3,2020-06-11_13h04.20.580,TranslationElicitation_spa,3.2.4,MacIntel,60,5ede18e41b8bce022ee5dd40,,1,0,80,74,1,79
,,,,,,,,,,,,,,,,,,,,,,,,,,,,,,,,,,,n,1.94900012,TREN,FALSE,,,,,,,183,tren,Catalan,Sounds/cat_tren.mp3,2020-06-11_13h04.20.580,TranslationElicitation_spa,3.2.4,MacIntel,60,5ede18e41b8bce022ee5dd40,,1,0,80,74,1,79
,,,,,,,,,,,,,,,,,,,,,,,,,,,,,,,,,,,return,2.348999977,,FALSE,,,,,,,183,tren,Catalan,Sounds/cat_tren.mp3,2020-06-11_13h04.20.580,TranslationElicitation_spa,3.2.4,MacIntel,60,5ede18e41b8bce022ee5dd40,2.348999977,1,0,80,74,1,79
,,,,,,,,,,,,,,,,,,,,,,,,,,,,,,,,,,,,,,,,,,,,,183,tren,Catalan,Sounds/cat_tren.mp3,2020-06-11_13h04.20.580,TranslationElicitation_spa,3.2.4,MacIntel,60,5ede18e41b8bce022ee5dd40,,1,0,80,74,1,79
,,,,,,,,,,,,,,,,,,,,,,,,,,,,,,,,,,,o,1.11500001,O,FALSE,,,,,,,160,orella,Catalan,Sounds/cat_orella.mp3,2020-06-11_13h04.20.580,TranslationElicitation_spa,3.2.4,MacIntel,60,5ede18e41b8bce022ee5dd40,,1,0,80,53,1,79
,,,,,,,,,,,,,,,,,,,,,,,,,,,,,,,,,,,r,1.248999834,OR,FALSE,,,,,,,160,orella,Catalan,Sounds/cat_orella.mp3,2020-06-11_13h04.20.580,TranslationElicitation_spa,3.2.4,MacIntel,60,5ede18e41b8bce022ee5dd40,,1,0,80,53,1,79
,,,,,,,,,,,,,,,,,,,,,,,,,,,,,,,,,,,e,1.415999889,ORE,FALSE,,,,,,,160,orella,Catalan,Sounds/cat_orella.mp3,2020-06-11_13h04.20.580,TranslationElicitation_spa,3.2.4,MacIntel,60,5ede18e41b8bce022ee5dd40,,1,0,80,53,1,79
,,,,,,,,,,,,,,,,,,,,,,,,,,,,,,,,,,,j,1.631999969,OREJ,FALSE,,,,,,,160,orella,Catalan,Sounds/cat_orella.mp3,2020-06-11_13h04.20.580,TranslationElicitation_spa,3.2.4,MacIntel,60,5ede18e41b8bce022ee5dd40,,1,0,80,53,1,79
,,,,,,,,,,,,,,,,,,,,,,,,,,,,,,,,,,,a,1.732999802,OREJA,FALSE,,,,,,,160,orella,Catalan,Sounds/cat_orella.mp3,2020-06-11_13h04.20.580,TranslationElicitation_spa,3.2.4,MacIntel,60,5ede18e41b8bce022ee5dd40,,1,0,80,53,1,79
,,,,,,,,,,,,,,,,,,,,,,,,,,,,,,,,,,,return,1.982999802,,FALSE,,,,,,,160,orella,Catalan,Sounds/cat_orella.mp3,2020-06-11_13h04.20.580,TranslationElicitation_spa,3.2.4,MacIntel,60,5ede18e41b8bce022ee5dd40,1.982999802,1,0,80,53,1,79
,,,,,,,,,,,,,,,,,,,,,,,,,,,,,,,,,,,,,,,,,,,,,160,orella,Catalan,Sounds/cat_orella.mp3,2020-06-11_13h04.20.580,TranslationElicitation_spa,3.2.4,MacIntel,60,5ede18e41b8bce022ee5dd40,,1,0,80,53,1,79
,,,,,,,,,,,,,,,,,,,,,,,,,,,,,,,,,,,c,1.848999977,C,FALSE,,,,,,,119,caixa,Catalan,Sounds/cat_caixa.mp3,2020-06-11_13h04.20.580,TranslationElicitation_spa,3.2.4,MacIntel,60,5ede18e41b8bce022ee5dd40,,1,0,80,14,1,79
,,,,,,,,,,,,,,,,,,,,,,,,,,,,,,,,,,,a,2.148000002,CA,FALSE,,,,,,,119,caixa,Catalan,Sounds/cat_caixa.mp3,2020-06-11_13h04.20.580,TranslationElicitation_spa,3.2.4,MacIntel,60,5ede18e41b8bce022ee5dd40,,1,0,80,14,1,79
,,,,,,,,,,,,,,,,,,,,,,,,,,,,,,,,,,,j,2.315999985,CAJ,FALSE,,,,,,,119,caixa,Catalan,Sounds/cat_caixa.mp3,2020-06-11_13h04.20.580,TranslationElicitation_spa,3.2.4,MacIntel,60,5ede18e41b8bce022ee5dd40,,1,0,80,14,1,79
,,,,,,,,,,,,,,,,,,,,,,,,,,,,,,,,,,,a,2.414999962,CAJA,FALSE,,,,,,,119,caixa,Catalan,Sounds/cat_caixa.mp3,2020-06-11_13h04.20.580,TranslationElicitation_spa,3.2.4,MacIntel,60,5ede18e41b8bce022ee5dd40,,1,0,80,14,1,79
,,,,,,,,,,,,,,,,,,,,,,,,,,,,,,,,,,,return,2.681999922,,FALSE,,,,,,,119,caixa,Catalan,Sounds/cat_caixa.mp3,2020-06-11_13h04.20.580,TranslationElicitation_spa,3.2.4,MacIntel,60,5ede18e41b8bce022ee5dd40,2.681999922,1,0,80,14,1,79
,,,,,,,,,,,,,,,,,,,,,,,,,,,,,,,,,,,,,,,,,,,,,119,caixa,Catalan,Sounds/cat_caixa.mp3,2020-06-11_13h04.20.580,TranslationElicitation_spa,3.2.4,MacIntel,60,5ede18e41b8bce022ee5dd40,,1,0,80,14,1,79
,,,,,,,,,,,,,,,,,,,,,,,,,,,,,,,,,,,g,1.381999969,G,FALSE,,,,,,,139,galleda,Catalan,Sounds/cat_galleda.mp3,2020-06-11_13h04.20.580,TranslationElicitation_spa,3.2.4,MacIntel,60,5ede18e41b8bce022ee5dd40,,1,0,80,34,1,79
,,,,,,,,,,,,,,,,,,,,,,,,,,,,,,,,,,,a,1.549000025,GA,FALSE,,,,,,,139,galleda,Catalan,Sounds/cat_galleda.mp3,2020-06-11_13h04.20.580,TranslationElicitation_spa,3.2.4,MacIntel,60,5ede18e41b8bce022ee5dd40,,1,0,80,34,1,79
,,,,,,,,,,,,,,,,,,,,,,,,,,,,,,,,,,,l,1.799000025,GAL,FALSE,,,,,,,139,galleda,Catalan,Sounds/cat_galleda.mp3,2020-06-11_13h04.20.580,TranslationElicitation_spa,3.2.4,MacIntel,60,5ede18e41b8bce022ee5dd40,,1,0,80,34,1,79
,,,,,,,,,,,,,,,,,,,,,,,,,,,,,,,,,,,l,1.948000193,GALL,FALSE,,,,,,,139,galleda,Catalan,Sounds/cat_galleda.mp3,2020-06-11_13h04.20.580,TranslationElicitation_spa,3.2.4,MacIntel,60,5ede18e41b8bce022ee5dd40,,1,0,80,34,1,79
,,,,,,,,,,,,,,,,,,,,,,,,,,,,,,,,,,,t,2.265000105,GALLT,FALSE,,,,,,,139,galleda,Catalan,Sounds/cat_galleda.mp3,2020-06-11_13h04.20.580,TranslationElicitation_spa,3.2.4,MacIntel,60,5ede18e41b8bce022ee5dd40,,1,0,80,34,1,79
,,,,,,,,,,,,,,,,,,,,,,,,,,,,,,,,,,,backspace,2.732000113,GAL,TRUE,,,,,,,139,galleda,Catalan,Sounds/cat_galleda.mp3,2020-06-11_13h04.20.580,TranslationElicitation_spa,3.2.4,MacIntel,60,5ede18e41b8bce022ee5dd40,,1,0,80,34,1,79
,,,,,,,,,,,,,,,,,,,,,,,,,,,,,,,,,,,l,3.683000088,GALL,TRUE,,,,,,,139,galleda,Catalan,Sounds/cat_galleda.mp3,2020-06-11_13h04.20.580,TranslationElicitation_spa,3.2.4,MacIntel,60,5ede18e41b8bce022ee5dd40,,1,0,80,34,1,79
,,,,,,,,,,,,,,,,,,,,,,,,,,,,,,,,,,,e,3.815000057,GALLE,TRUE,,,,,,,139,galleda,Catalan,Sounds/cat_galleda.mp3,2020-06-11_13h04.20.580,TranslationElicitation_spa,3.2.4,MacIntel,60,5ede18e41b8bce022ee5dd40,,1,0,80,34,1,79
,,,,,,,,,,,,,,,,,,,,,,,,,,,,,,,,,,,t,4.016000032,GALLET,TRUE,,,,,,,139,galleda,Catalan,Sounds/cat_galleda.mp3,2020-06-11_13h04.20.580,TranslationElicitation_spa,3.2.4,MacIntel,60,5ede18e41b8bce022ee5dd40,,1,0,80,34,1,79
,,,,,,,,,,,,,,,,,,,,,,,,,,,,,,,,,,,a,4.148000002,GALLETA,TRUE,,,,,,,139,galleda,Catalan,Sounds/cat_galleda.mp3,2020-06-11_13h04.20.580,TranslationElicitation_spa,3.2.4,MacIntel,60,5ede18e41b8bce022ee5dd40,,1,0,80,34,1,79
,,,,,,,,,,,,,,,,,,,,,,,,,,,,,,,,,,,return,4.616000175,,TRUE,,,,,,,139,galleda,Catalan,Sounds/cat_galleda.mp3,2020-06-11_13h04.20.580,TranslationElicitation_spa,3.2.4,MacIntel,60,5ede18e41b8bce022ee5dd40,4.616000175,1,0,80,34,1,79
,,,,,,,,,,,,,,,,,,,,,,,,,,,,,,,,,,,,,,,,,,,,,139,galleda,Catalan,Sounds/cat_galleda.mp3,2020-06-11_13h04.20.580,TranslationElicitation_spa,3.2.4,MacIntel,60,5ede18e41b8bce022ee5dd40,,1,0,80,34,1,79
,,,,,,,,,,,,,,,,,,,,,,,,,,,,,,,,,,,g,2.433000088,G,FALSE,,,,,,,143,globus,Catalan,Sounds/cat_globus.mp3,2020-06-11_13h04.20.580,TranslationElicitation_spa,3.2.4,MacIntel,60,5ede18e41b8bce022ee5dd40,,1,0,80,38,1,79
,,,,,,,,,,,,,,,,,,,,,,,,,,,,,,,,,,,l,2.731999874,GL,FALSE,,,,,,,143,globus,Catalan,Sounds/cat_globus.mp3,2020-06-11_13h04.20.580,TranslationElicitation_spa,3.2.4,MacIntel,60,5ede18e41b8bce022ee5dd40,,1,0,80,38,1,79
,,,,,,,,,,,,,,,,,,,,,,,,,,,,,,,,,,,o,2.848999977,GLO,FALSE,,,,,,,143,globus,Catalan,Sounds/cat_globus.mp3,2020-06-11_13h04.20.580,TranslationElicitation_spa,3.2.4,MacIntel,60,5ede18e41b8bce022ee5dd40,,1,0,80,38,1,79
,,,,,,,,,,,,,,,,,,,,,,,,,,,,,,,,,,,b,3.198999882,GLOB,FALSE,,,,,,,143,globus,Catalan,Sounds/cat_globus.mp3,2020-06-11_13h04.20.580,TranslationElicitation_spa,3.2.4,MacIntel,60,5ede18e41b8bce022ee5dd40,,1,0,80,38,1,79
,,,,,,,,,,,,,,,,,,,,,,,,,,,,,,,,,,,o,3.964999914,GLOBO,FALSE,,,,,,,143,globus,Catalan,Sounds/cat_globus.mp3,2020-06-11_13h04.20.580,TranslationElicitation_spa,3.2.4,MacIntel,60,5ede18e41b8bce022ee5dd40,,1,0,80,38,1,79
,,,,,,,,,,,,,,,,,,,,,,,,,,,,,,,,,,,s,4.049000025,GLOBOS,FALSE,,,,,,,143,globus,Catalan,Sounds/cat_globus.mp3,2020-06-11_13h04.20.580,TranslationElicitation_spa,3.2.4,MacIntel,60,5ede18e41b8bce022ee5dd40,,1,0,80,38,1,79
,,,,,,,,,,,,,,,,,,,,,,,,,,,,,,,,,,,return,4.481999874,,FALSE,,,,,,,143,globus,Catalan,Sounds/cat_globus.mp3,2020-06-11_13h04.20.580,TranslationElicitation_spa,3.2.4,MacIntel,60,5ede18e41b8bce022ee5dd40,4.481999874,1,0,80,38,1,79
,,,,,,,,,,,,,,,,,,,,,,,,,,,,,,,,,,,,,,,,,,,,,143,globus,Catalan,Sounds/cat_globus.mp3,2020-06-11_13h04.20.580,TranslationElicitation_spa,3.2.4,MacIntel,60,5ede18e41b8bce022ee5dd40,,1,0,80,38,1,79
,,,,,,,,,,,,,,,,,,,,,,,,,,,,,,,,,,,m,1.861000061,M,FALSE,,,,,,,154,mirall,Catalan,Sounds/cat_mirall.mp3,2020-06-11_13h04.20.580,TranslationElicitation_spa,3.2.4,MacIntel,60,5ede18e41b8bce022ee5dd40,,1,0,80,48,1,79
,,,,,,,,,,,,,,,,,,,,,,,,,,,,,,,,,,,i,2.062000036,MI,FALSE,,,,,,,154,mirall,Catalan,Sounds/cat_mirall.mp3,2020-06-11_13h04.20.580,TranslationElicitation_spa,3.2.4,MacIntel,60,5ede18e41b8bce022ee5dd40,,1,0,80,48,1,79
,,,,,,,,,,,,,,,,,,,,,,,,,,,,,,,,,,,l,3.011000156,MIL,FALSE,,,,,,,154,mirall,Catalan,Sounds/cat_mirall.mp3,2020-06-11_13h04.20.580,TranslationElicitation_spa,3.2.4,MacIntel,60,5ede18e41b8bce022ee5dd40,,1,0,80,48,1,79
,,,,,,,,,,,,,,,,,,,,,,,,,,,,,,,,,,,a,3.127000093,MILA,FALSE,,,,,,,154,mirall,Catalan,Sounds/cat_mirall.mp3,2020-06-11_13h04.20.580,TranslationElicitation_spa,3.2.4,MacIntel,60,5ede18e41b8bce022ee5dd40,,1,0,80,48,1,79
,,,,,,,,,,,,,,,,,,,,,,,,,,,,,,,,,,,g,3.345000029,MILAG,FALSE,,,,,,,154,mirall,Catalan,Sounds/cat_mirall.mp3,2020-06-11_13h04.20.580,TranslationElicitation_spa,3.2.4,MacIntel,60,5ede18e41b8bce022ee5dd40,,1,0,80,48,1,79
,,,,,,,,,,,,,,,,,,,,,,,,,,,,,,,,,,,r,3.52699995,MILAGR,FALSE,,,,,,,154,mirall,Catalan,Sounds/cat_mirall.mp3,2020-06-11_13h04.20.580,TranslationElicitation_spa,3.2.4,MacIntel,60,5ede18e41b8bce022ee5dd40,,1,0,80,48,1,79
,,,,,,,,,,,,,,,,,,,,,,,,,,,,,,,,,,,o,3.745000124,MILAGRO,FALSE,,,,,,,154,mirall,Catalan,Sounds/cat_mirall.mp3,2020-06-11_13h04.20.580,TranslationElicitation_spa,3.2.4,MacIntel,60,5ede18e41b8bce022ee5dd40,,1,0,80,48,1,79
,,,,,,,,,,,,,,,,,,,,,,,,,,,,,,,,,,,return,4.078000069,,FALSE,,,,,,,154,mirall,Catalan,Sounds/cat_mirall.mp3,2020-06-11_13h04.20.580,TranslationElicitation_spa,3.2.4,MacIntel,60,5ede18e41b8bce022ee5dd40,4.078000069,1,0,80,48,1,79
,,,,,,,,,,,,,,,,,,,,,,,,,,,,,,,,,,,,,,,,,,,,,154,mirall,Catalan,Sounds/cat_mirall.mp3,2020-06-11_13h04.20.580,TranslationElicitation_spa,3.2.4,MacIntel,60,5ede18e41b8bce022ee5dd40,,1,0,80,48,1,79
,,,,,,,,,,,,,,,,,,,,,,,,,,,,,,,,,,,m,1.480999947,M,FALSE,,,,,,,156,moto,Catalan,Sounds/cat_moto.mp3,2020-06-11_13h04.20.580,TranslationElicitation_spa,3.2.4,MacIntel,60,5ede18e41b8bce022ee5dd40,,1,0,80,50,1,79
,,,,,,,,,,,,,,,,,,,,,,,,,,,,,,,,,,,o,1.881999969,MO,FALSE,,,,,,,156,moto,Catalan,Sounds/cat_moto.mp3,2020-06-11_13h04.20.580,TranslationElicitation_spa,3.2.4,MacIntel,60,5ede18e41b8bce022ee5dd40,,1,0,80,50,1,79
,,,,,,,,,,,,,,,,,,,,,,,,,,,,,,,,,,,t,2.082000017,MOT,FALSE,,,,,,,156,moto,Catalan,Sounds/cat_moto.mp3,2020-06-11_13h04.20.580,TranslationElicitation_spa,3.2.4,MacIntel,60,5ede18e41b8bce022ee5dd40,,1,0,80,50,1,79
,,,,,,,,,,,,,,,,,,,,,,,,,,,,,,,,,,,o,2.499000072,MOTO,FALSE,,,,,,,156,moto,Catalan,Sounds/cat_moto.mp3,2020-06-11_13h04.20.580,TranslationElicitation_spa,3.2.4,MacIntel,60,5ede18e41b8bce022ee5dd40,,1,0,80,50,1,79
,,,,,,,,,,,,,,,,,,,,,,,,,,,,,,,,,,,return,3.149000168,,FALSE,,,,,,,156,moto,Catalan,Sounds/cat_moto.mp3,2020-06-11_13h04.20.580,TranslationElicitation_spa,3.2.4,MacIntel,60,5ede18e41b8bce022ee5dd40,3.149000168,1,0,80,50,1,79
,,,,,,,,,,,,,,,,,,,,,,,,,,,,,,,,,,,,,,,,,,,,,156,moto,Catalan,Sounds/cat_moto.mp3,2020-06-11_13h04.20.580,TranslationElicitation_spa,3.2.4,MacIntel,60,5ede18e41b8bce022ee5dd40,,1,0,80,50,1,79
,,,,,,,,,,,,,,,,,,,,,,,,,,,,,,,,,,,l,2.36500001,L,FALSE,,,,,,,150,lloro,Catalan,Sounds/cat_lloro.mp3,2020-06-11_13h04.20.580,TranslationElicitation_spa,3.2.4,MacIntel,60,5ede18e41b8bce022ee5dd40,,1,0,80,44,1,79
,,,,,,,,,,,,,,,,,,,,,,,,,,,,,,,,,,,l,2.516000032,LL,FALSE,,,,,,,150,lloro,Catalan,Sounds/cat_lloro.mp3,2020-06-11_13h04.20.580,TranslationElicitation_spa,3.2.4,MacIntel,60,5ede18e41b8bce022ee5dd40,,1,0,80,44,1,79
,,,,,,,,,,,,,,,,,,,,,,,,,,,,,,,,,,,o,2.71600008,LLO,FALSE,,,,,,,150,lloro,Catalan,Sounds/cat_lloro.mp3,2020-06-11_13h04.20.580,TranslationElicitation_spa,3.2.4,MacIntel,60,5ede18e41b8bce022ee5dd40,,1,0,80,44,1,79
,,,,,,,,,,,,,,,,,,,,,,,,,,,,,,,,,,,r,2.947999954,LLOR,FALSE,,,,,,,150,lloro,Catalan,Sounds/cat_lloro.mp3,2020-06-11_13h04.20.580,TranslationElicitation_spa,3.2.4,MacIntel,60,5ede18e41b8bce022ee5dd40,,1,0,80,44,1,79
,,,,,,,,,,,,,,,,,,,,,,,,,,,,,,,,,,,a,3.249000072,LLORA,FALSE,,,,,,,150,lloro,Catalan,Sounds/cat_lloro.mp3,2020-06-11_13h04.20.580,TranslationElicitation_spa,3.2.4,MacIntel,60,5ede18e41b8bce022ee5dd40,,1,0,80,44,1,79
,,,,,,,,,,,,,,,,,,,,,,,,,,,,,,,,,,,r,3.499000072,LLORAR,FALSE,,,,,,,150,lloro,Catalan,Sounds/cat_lloro.mp3,2020-06-11_13h04.20.580,TranslationElicitation_spa,3.2.4,MacIntel,60,5ede18e41b8bce022ee5dd40,,1,0,80,44,1,79
,,,,,,,,,,,,,,,,,,,,,,,,,,,,,,,,,,,return,3.815999985,,FALSE,,,,,,,150,lloro,Catalan,Sounds/cat_lloro.mp3,2020-06-11_13h04.20.580,TranslationElicitation_spa,3.2.4,MacIntel,60,5ede18e41b8bce022ee5dd40,3.815999985,1,0,80,44,1,79
,,,,,,,,,,,,,,,,,,,,,,,,,,,,,,,,,,,,,,,,,,,,,150,lloro,Catalan,Sounds/cat_lloro.mp3,2020-06-11_13h04.20.580,TranslationElicitation_spa,3.2.4,MacIntel,60,5ede18e41b8bce022ee5dd40,,1,0,80,44,1,79
,,,,,,,,,,,,,,,,,,,,,,,,,,,,,,,,,,,g,1.965000153,G,FALSE,,,,,,,110,berenar,Catalan,Sounds/cat_berenar.mp3,2020-06-11_13h04.20.580,TranslationElicitation_spa,3.2.4,MacIntel,60,5ede18e41b8bce022ee5dd40,,1,0,80,5,1,79
,,,,,,,,,,,,,,,,,,,,,,,,,,,,,,,,,,,r,2.232000113,GR,FALSE,,,,,,,110,berenar,Catalan,Sounds/cat_berenar.mp3,2020-06-11_13h04.20.580,TranslationElicitation_spa,3.2.4,MacIntel,60,5ede18e41b8bce022ee5dd40,,1,0,80,5,1,79
,,,,,,,,,,,,,,,,,,,,,,,,,,,,,,,,,,,a,2.398000002,GRA,FALSE,,,,,,,110,berenar,Catalan,Sounds/cat_berenar.mp3,2020-06-11_13h04.20.580,TranslationElicitation_spa,3.2.4,MacIntel,60,5ede18e41b8bce022ee5dd40,,1,0,80,5,1,79
,,,,,,,,,,,,,,,,,,,,,,,,,,,,,,,,,,,n,2.815999985,GRAN,FALSE,,,,,,,110,berenar,Catalan,Sounds/cat_berenar.mp3,2020-06-11_13h04.20.580,TranslationElicitation_spa,3.2.4,MacIntel,60,5ede18e41b8bce022ee5dd40,,1,0,80,5,1,79
,,,,,,,,,,,,,,,,,,,,,,,,,,,,,,,,,,,a,2.980999947,GRANA,FALSE,,,,,,,110,berenar,Catalan,Sounds/cat_berenar.mp3,2020-06-11_13h04.20.580,TranslationElicitation_spa,3.2.4,MacIntel,60,5ede18e41b8bce022ee5dd40,,1,0,80,5,1,79
,,,,,,,,,,,,,,,,,,,,,,,,,,,,,,,,,,,t,3.11500001,GRANAT,FALSE,,,,,,,110,berenar,Catalan,Sounds/cat_berenar.mp3,2020-06-11_13h04.20.580,TranslationElicitation_spa,3.2.4,MacIntel,60,5ede18e41b8bce022ee5dd40,,1,0,80,5,1,79
,,,,,,,,,,,,,,,,,,,,,,,,,,,,,,,,,,,e,3.315000057,GRANATE,FALSE,,,,,,,110,berenar,Catalan,Sounds/cat_berenar.mp3,2020-06-11_13h04.20.580,TranslationElicitation_spa,3.2.4,MacIntel,60,5ede18e41b8bce022ee5dd40,,1,0,80,5,1,79
,,,,,,,,,,,,,,,,,,,,,,,,,,,,,,,,,,,return,3.68200016,,FALSE,,,,,,,110,berenar,Catalan,Sounds/cat_berenar.mp3,2020-06-11_13h04.20.580,TranslationElicitation_spa,3.2.4,MacIntel,60,5ede18e41b8bce022ee5dd40,3.68200016,1,0,80,5,1,79
,,,,,,,,,,,,,,,,,,,,,,,,,,,,,,,,,,,,,,,,,,,,,110,berenar,Catalan,Sounds/cat_berenar.mp3,2020-06-11_13h04.20.580,TranslationElicitation_spa,3.2.4,MacIntel,60,5ede18e41b8bce022ee5dd40,,1,0,80,5,1,79
,,,,,,,,,,,,,,,,,,,,,,,,,,,,,,,,,,,m,1.799000025,M,FALSE,,,,,,,171,pollastre,Catalan,Sounds/cat_pollastre.mp3,2020-06-11_13h04.20.580,TranslationElicitation_spa,3.2.4,MacIntel,60,5ede18e41b8bce022ee5dd40,,1,0,80,63,1,79
,,,,,,,,,,,,,,,,,,,,,,,,,,,,,,,,,,,e,1.931999922,ME,FALSE,,,,,,,171,pollastre,Catalan,Sounds/cat_pollastre.mp3,2020-06-11_13h04.20.580,TranslationElicitation_spa,3.2.4,MacIntel,60,5ede18e41b8bce022ee5dd40,,1,0,80,63,1,79
,,,,,,,,,,,,,,,,,,,,,,,,,,,,,,,,,,,s,2.165999889,MES,FALSE,,,,,,,171,pollastre,Catalan,Sounds/cat_pollastre.mp3,2020-06-11_13h04.20.580,TranslationElicitation_spa,3.2.4,MacIntel,60,5ede18e41b8bce022ee5dd40,,1,0,80,63,1,79
,,,,,,,,,,,,,,,,,,,,,,,,,,,,,,,,,,,a,2.299000025,MESA,FALSE,,,,,,,171,pollastre,Catalan,Sounds/cat_pollastre.mp3,2020-06-11_13h04.20.580,TranslationElicitation_spa,3.2.4,MacIntel,60,5ede18e41b8bce022ee5dd40,,1,0,80,63,1,79
,,,,,,,,,,,,,,,,,,,,,,,,,,,,,,,,,,,return,2.631999969,,FALSE,,,,,,,171,pollastre,Catalan,Sounds/cat_pollastre.mp3,2020-06-11_13h04.20.580,TranslationElicitation_spa,3.2.4,MacIntel,60,5ede18e41b8bce022ee5dd40,2.631999969,1,0,80,63,1,79
,,,,,,,,,,,,,,,,,,,,,,,,,,,,,,,,,,,,,,,,,,,,,171,pollastre,Catalan,Sounds/cat_pollastre.mp3,2020-06-11_13h04.20.580,TranslationElicitation_spa,3.2.4,MacIntel,60,5ede18e41b8bce022ee5dd40,,1,0,80,63,1,79
,,,,,,,,,,,,,,,,,,,,,,,,,,,,,,,,,,,a,1.531999826,A,FALSE,,,,,,,104,abella,Catalan,Sounds/cat_abella.mp3,2020-06-11_13h04.20.580,TranslationElicitation_spa,3.2.4,MacIntel,60,5ede18e41b8bce022ee5dd40,,1,0,80,0,1,79
,,,,,,,,,,,,,,,,,,,,,,,,,,,,,,,,,,,v,1.914999962,AV,FALSE,,,,,,,104,abella,Catalan,Sounds/cat_abella.mp3,2020-06-11_13h04.20.580,TranslationElicitation_spa,3.2.4,MacIntel,60,5ede18e41b8bce022ee5dd40,,1,0,80,0,1,79
,,,,,,,,,,,,,,,,,,,,,,,,,,,,,,,,,,,e,2.047999859,AVE,FALSE,,,,,,,104,abella,Catalan,Sounds/cat_abella.mp3,2020-06-11_13h04.20.580,TranslationElicitation_spa,3.2.4,MacIntel,60,5ede18e41b8bce022ee5dd40,,1,0,80,0,1,79
,,,,,,,,,,,,,,,,,,,,,,,,,,,,,,,,,,,j,2.264999866,AVEJ,FALSE,,,,,,,104,abella,Catalan,Sounds/cat_abella.mp3,2020-06-11_13h04.20.580,TranslationElicitation_spa,3.2.4,MacIntel,60,5ede18e41b8bce022ee5dd40,,1,0,80,0,1,79
,,,,,,,,,,,,,,,,,,,,,,,,,,,,,,,,,,,a,2.381999969,AVEJA,FALSE,,,,,,,104,abella,Catalan,Sounds/cat_abella.mp3,2020-06-11_13h04.20.580,TranslationElicitation_spa,3.2.4,MacIntel,60,5ede18e41b8bce022ee5dd40,,1,0,80,0,1,79
,,,,,,,,,,,,,,,,,,,,,,,,,,,,,,,,,,,return,2.715999842,,FALSE,,,,,,,104,abella,Catalan,Sounds/cat_abella.mp3,2020-06-11_13h04.20.580,TranslationElicitation_spa,3.2.4,MacIntel,60,5ede18e41b8bce022ee5dd40,2.715999842,1,0,80,0,1,79
,,,,,,,,,,,,,,,,,,,,,,,,,,,,,,,,,,,,,,,,,,,,,104,abella,Catalan,Sounds/cat_abella.mp3,2020-06-11_13h04.20.580,TranslationElicitation_spa,3.2.4,MacIntel,60,5ede18e41b8bce022ee5dd40,,1,0,80,0,1,79
,,,,,,,,,,,,,,,,,,,,,,,,,,,,,,,,,,,c,1.710999966,C,FALSE,,,,,,,120,cama,Catalan,Sounds/cat_cama.mp3,2020-06-11_13h04.20.580,TranslationElicitation_spa,3.2.4,MacIntel,60,5ede18e41b8bce022ee5dd40,,1,0,80,15,1,79
,,,,,,,,,,,,,,,,,,,,,,,,,,,,,,,,,,,a,2.06099987,CA,FALSE,,,,,,,120,cama,Catalan,Sounds/cat_cama.mp3,2020-06-11_13h04.20.580,TranslationElicitation_spa,3.2.4,MacIntel,60,5ede18e41b8bce022ee5dd40,,1,0,80,15,1,79
,,,,,,,,,,,,,,,,,,,,,,,,,,,,,,,,,,,m,2.210999966,CAM,FALSE,,,,,,,120,cama,Catalan,Sounds/cat_cama.mp3,2020-06-11_13h04.20.580,TranslationElicitation_spa,3.2.4,MacIntel,60,5ede18e41b8bce022ee5dd40,,1,0,80,15,1,79
,,,,,,,,,,,,,,,,,,,,,,,,,,,,,,,,,,,a,2.309999943,CAMA,FALSE,,,,,,,120,cama,Catalan,Sounds/cat_cama.mp3,2020-06-11_13h04.20.580,TranslationElicitation_spa,3.2.4,MacIntel,60,5ede18e41b8bce022ee5dd40,,1,0,80,15,1,79
,,,,,,,,,,,,,,,,,,,,,,,,,,,,,,,,,,,return,2.609999895,,FALSE,,,,,,,120,cama,Catalan,Sounds/cat_cama.mp3,2020-06-11_13h04.20.580,TranslationElicitation_spa,3.2.4,MacIntel,60,5ede18e41b8bce022ee5dd40,2.609999895,1,0,80,15,1,79
,,,,,,,,,,,,,,,,,,,,,,,,,,,,,,,,,,,,,,,,,,,,,120,cama,Catalan,Sounds/cat_cama.mp3,2020-06-11_13h04.20.580,TranslationElicitation_spa,3.2.4,MacIntel,60,5ede18e41b8bce022ee5dd40,,1,0,80,15,1,79
,,,,,,,,,,,,,,,,,,,,,,,,,,,,,,,,,,,p,2.796999931,P,FALSE,,,,,,,118,bou,Catalan,Sounds/cat_bou.mp3,2020-06-11_13h04.20.580,TranslationElicitation_spa,3.2.4,MacIntel,60,5ede18e41b8bce022ee5dd40,,1,0,80,13,1,79
,,,,,,,,,,,,,,,,,,,,,,,,,,,,,,,,,,,e,2.930999994,PE,FALSE,,,,,,,118,bou,Catalan,Sounds/cat_bou.mp3,2020-06-11_13h04.20.580,TranslationElicitation_spa,3.2.4,MacIntel,60,5ede18e41b8bce022ee5dd40,,1,0,80,13,1,79
,,,,,,,,,,,,,,,,,,,,,,,,,,,,,,,,,,,l,3.013999939,PEL,FALSE,,,,,,,118,bou,Catalan,Sounds/cat_bou.mp3,2020-06-11_13h04.20.580,TranslationElicitation_spa,3.2.4,MacIntel,60,5ede18e41b8bce022ee5dd40,,1,0,80,13,1,79
,,,,,,,,,,,,,,,,,,,,,,,,,,,,,,,,,,,o,3.164999962,PELO,FALSE,,,,,,,118,bou,Catalan,Sounds/cat_bou.mp3,2020-06-11_13h04.20.580,TranslationElicitation_spa,3.2.4,MacIntel,60,5ede18e41b8bce022ee5dd40,,1,0,80,13,1,79
,,,,,,,,,,,,,,,,,,,,,,,,,,,,,,,,,,,t,3.59800005,PELOT,FALSE,,,,,,,118,bou,Catalan,Sounds/cat_bou.mp3,2020-06-11_13h04.20.580,TranslationElicitation_spa,3.2.4,MacIntel,60,5ede18e41b8bce022ee5dd40,,1,0,80,13,1,79
,,,,,,,,,,,,,,,,,,,,,,,,,,,,,,,,,,,a,3.748000145,PELOTA,FALSE,,,,,,,118,bou,Catalan,Sounds/cat_bou.mp3,2020-06-11_13h04.20.580,TranslationElicitation_spa,3.2.4,MacIntel,60,5ede18e41b8bce022ee5dd40,,1,0,80,13,1,79
,,,,,,,,,,,,,,,,,,,,,,,,,,,,,,,,,,,return,4.631999969,,FALSE,,,,,,,118,bou,Catalan,Sounds/cat_bou.mp3,2020-06-11_13h04.20.580,TranslationElicitation_spa,3.2.4,MacIntel,60,5ede18e41b8bce022ee5dd40,4.631999969,1,0,80,13,1,79
,,,,,,,,,,,,,,,,,,,,,,,,,,,,,,,,,,,,,,,,,,,,,118,bou,Catalan,Sounds/cat_bou.mp3,2020-06-11_13h04.20.580,TranslationElicitation_spa,3.2.4,MacIntel,60,5ede18e41b8bce022ee5dd40,,1,0,80,13,1,79
,,,,,,,,,,,,,,,,,,,,,,,,,,,,,,,,,,,o,2.18200016,O,FALSE,,,,,,,185,ulleres,Catalan,Sounds/cat_ulleres.mp3,2020-06-11_13h04.20.580,TranslationElicitation_spa,3.2.4,MacIntel,60,5ede18e41b8bce022ee5dd40,,1,0,80,76,1,79
,,,,,,,,,,,,,,,,,,,,,,,,,,,,,,,,,,,j,2.44900012,OJ,FALSE,,,,,,,185,ulleres,Catalan,Sounds/cat_ulleres.mp3,2020-06-11_13h04.20.580,TranslationElicitation_spa,3.2.4,MacIntel,60,5ede18e41b8bce022ee5dd40,,1,0,80,76,1,79
,,,,,,,,,,,,,,,,,,,,,,,,,,,,,,,,,,,e,2.600000143,OJE,FALSE,,,,,,,185,ulleres,Catalan,Sounds/cat_ulleres.mp3,2020-06-11_13h04.20.580,TranslationElicitation_spa,3.2.4,MacIntel,60,5ede18e41b8bce022ee5dd40,,1,0,80,76,1,79
,,,,,,,,,,,,,,,,,,,,,,,,,,,,,,,,,,,r,2.950000048,OJER,FALSE,,,,,,,185,ulleres,Catalan,Sounds/cat_ulleres.mp3,2020-06-11_13h04.20.580,TranslationElicitation_spa,3.2.4,MacIntel,60,5ede18e41b8bce022ee5dd40,,1,0,80,76,1,79
,,,,,,,,,,,,,,,,,,,,,,,,,,,,,,,,,,,a,3.23300004,OJERA,FALSE,,,,,,,185,ulleres,Catalan,Sounds/cat_ulleres.mp3,2020-06-11_13h04.20.580,TranslationElicitation_spa,3.2.4,MacIntel,60,5ede18e41b8bce022ee5dd40,,1,0,80,76,1,79
,,,,,,,,,,,,,,,,,,,,,,,,,,,,,,,,,,,s,3.350000143,OJERAS,FALSE,,,,,,,185,ulleres,Catalan,Sounds/cat_ulleres.mp3,2020-06-11_13h04.20.580,TranslationElicitation_spa,3.2.4,MacIntel,60,5ede18e41b8bce022ee5dd40,,1,0,80,76,1,79
,,,,,,,,,,,,,,,,,,,,,,,,,,,,,,,,,,,return,3.650000095,,FALSE,,,,,,,185,ulleres,Catalan,Sounds/cat_ulleres.mp3,2020-06-11_13h04.20.580,TranslationElicitation_spa,3.2.4,MacIntel,60,5ede18e41b8bce022ee5dd40,3.650000095,1,0,80,76,1,79
,,,,,,,,,,,,,,,,,,,,,,,,,,,,,,,,,,,,,,,,,,,,,185,ulleres,Catalan,Sounds/cat_ulleres.mp3,2020-06-11_13h04.20.580,TranslationElicitation_spa,3.2.4,MacIntel,60,5ede18e41b8bce022ee5dd40,,1,0,80,76,1,79
,,,,,,,,,,,,,,,,,,,,,,,,,,,,,,,,,,,f,3.282999992,F,FALSE,,,,,,,136,forquilla,Catalan,Sounds/cat_forquilla.mp3,2020-06-11_13h04.20.580,TranslationElicitation_spa,3.2.4,MacIntel,60,5ede18e41b8bce022ee5dd40,,1,0,80,31,1,79
,,,,,,,,,,,,,,,,,,,,,,,,,,,,,,,,,,,u,3.382999897,FU,FALSE,,,,,,,136,forquilla,Catalan,Sounds/cat_forquilla.mp3,2020-06-11_13h04.20.580,TranslationElicitation_spa,3.2.4,MacIntel,60,5ede18e41b8bce022ee5dd40,,1,0,80,31,1,79
,,,,,,,,,,,,,,,,,,,,,,,,,,,,,,,,,,,r,3.582999945,FUR,FALSE,,,,,,,136,forquilla,Catalan,Sounds/cat_forquilla.mp3,2020-06-11_13h04.20.580,TranslationElicitation_spa,3.2.4,MacIntel,60,5ede18e41b8bce022ee5dd40,,1,0,80,31,1,79
,,,,,,,,,,,,,,,,,,,,,,,,,,,,,,,,,,,q,3.948999882,FURQ,FALSE,,,,,,,136,forquilla,Catalan,Sounds/cat_forquilla.mp3,2020-06-11_13h04.20.580,TranslationElicitation_spa,3.2.4,MacIntel,60,5ede18e41b8bce022ee5dd40,,1,0,80,31,1,79
,,,,,,,,,,,,,,,,,,,,,,,,,,,,,,,,,,,u,4.25,FURQU,FALSE,,,,,,,136,forquilla,Catalan,Sounds/cat_forquilla.mp3,2020-06-11_13h04.20.580,TranslationElicitation_spa,3.2.4,MacIntel,60,5ede18e41b8bce022ee5dd40,,1,0,80,31,1,79
,,,,,,,,,,,,,,,,,,,,,,,,,,,,,,,,,,,i,4.415999889,FURQUI,FALSE,,,,,,,136,forquilla,Catalan,Sounds/cat_forquilla.mp3,2020-06-11_13h04.20.580,TranslationElicitation_spa,3.2.4,MacIntel,60,5ede18e41b8bce022ee5dd40,,1,0,80,31,1,79
,,,,,,,,,,,,,,,,,,,,,,,,,,,,,,,,,,,l,4.649999857,FURQUIL,FALSE,,,,,,,136,forquilla,Catalan,Sounds/cat_forquilla.mp3,2020-06-11_13h04.20.580,TranslationElicitation_spa,3.2.4,MacIntel,60,5ede18e41b8bce022ee5dd40,,1,0,80,31,1,79
,,,,,,,,,,,,,,,,,,,,,,,,,,,,,,,,,,,l,4.799999952,FURQUILL,FALSE,,,,,,,136,forquilla,Catalan,Sounds/cat_forquilla.mp3,2020-06-11_13h04.20.580,TranslationElicitation_spa,3.2.4,MacIntel,60,5ede18e41b8bce022ee5dd40,,1,0,80,31,1,79
,,,,,,,,,,,,,,,,,,,,,,,,,,,,,,,,,,,a,4.899999857,FURQUILLA,FALSE,,,,,,,136,forquilla,Catalan,Sounds/cat_forquilla.mp3,2020-06-11_13h04.20.580,TranslationElicitation_spa,3.2.4,MacIntel,60,5ede18e41b8bce022ee5dd40,,1,0,80,31,1,79
,,,,,,,,,,,,,,,,,,,,,,,,,,,,,,,,,,,return,5.115999937,,FALSE,,,,,,,136,forquilla,Catalan,Sounds/cat_forquilla.mp3,2020-06-11_13h04.20.580,TranslationElicitation_spa,3.2.4,MacIntel,60,5ede18e41b8bce022ee5dd40,5.115999937,1,0,80,31,1,79
,,,,,,,,,,,,,,,,,,,,,,,,,,,,,,,,,,,,,,,,,,,,,136,forquilla,Catalan,Sounds/cat_forquilla.mp3,2020-06-11_13h04.20.580,TranslationElicitation_spa,3.2.4,MacIntel,60,5ede18e41b8bce022ee5dd40,,1,0,80,31,1,79
,,,,,,,,,,,,,,,,,,,,,,,,,,,,,,,,,,,g,1.764999866,G,FALSE,,,,,,,140,gat,Catalan,Sounds/cat_gat.mp3,2020-06-11_13h04.20.580,TranslationElicitation_spa,3.2.4,MacIntel,60,5ede18e41b8bce022ee5dd40,,1,0,80,35,1,79
,,,,,,,,,,,,,,,,,,,,,,,,,,,,,,,,,,,a,1.963999987,GA,FALSE,,,,,,,140,gat,Catalan,Sounds/cat_gat.mp3,2020-06-11_13h04.20.580,TranslationElicitation_spa,3.2.4,MacIntel,60,5ede18e41b8bce022ee5dd40,,1,0,80,35,1,79
,,,,,,,,,,,,,,,,,,,,,,,,,,,,,,,,,,,t,2.115999937,GAT,FALSE,,,,,,,140,gat,Catalan,Sounds/cat_gat.mp3,2020-06-11_13h04.20.580,TranslationElicitation_spa,3.2.4,MacIntel,60,5ede18e41b8bce022ee5dd40,,1,0,80,35,1,79
,,,,,,,,,,,,,,,,,,,,,,,,,,,,,,,,,,,o,2.61500001,GATO,FALSE,,,,,,,140,gat,Catalan,Sounds/cat_gat.mp3,2020-06-11_13h04.20.580,TranslationElicitation_spa,3.2.4,MacIntel,60,5ede18e41b8bce022ee5dd40,,1,0,80,35,1,79
,,,,,,,,,,,,,,,,,,,,,,,,,,,,,,,,,,,return,2.914999962,,FALSE,,,,,,,140,gat,Catalan,Sounds/cat_gat.mp3,2020-06-11_13h04.20.580,TranslationElicitation_spa,3.2.4,MacIntel,60,5ede18e41b8bce022ee5dd40,2.914999962,1,0,80,35,1,79
,,,,,,,,,,,,,,,,,,,,,,,,,,,,,,,,,,,,,,,,,,,,,140,gat,Catalan,Sounds/cat_gat.mp3,2020-06-11_13h04.20.580,TranslationElicitation_spa,3.2.4,MacIntel,60,5ede18e41b8bce022ee5dd40,,1,0,80,35,1,79
,,,,,,,,,,,,,,,,,,,,,,,,,,,,,,,,,,,n,2.11500001,N,FALSE,,,,,,,158,nas,Catalan,Sounds/cat_nas.mp3,2020-06-11_13h04.20.580,TranslationElicitation_spa,3.2.4,MacIntel,60,5ede18e41b8bce022ee5dd40,,1,0,80,52,1,79
,,,,,,,,,,,,,,,,,,,,,,,,,,,,,,,,,,,a,2.365999937,NA,FALSE,,,,,,,158,nas,Catalan,Sounds/cat_nas.mp3,2020-06-11_13h04.20.580,TranslationElicitation_spa,3.2.4,MacIntel,60,5ede18e41b8bce022ee5dd40,,1,0,80,52,1,79
,,,,,,,,,,,,,,,,,,,,,,,,,,,,,,,,,,,s,2.73300004,NAS,FALSE,,,,,,,158,nas,Catalan,Sounds/cat_nas.mp3,2020-06-11_13h04.20.580,TranslationElicitation_spa,3.2.4,MacIntel,60,5ede18e41b8bce022ee5dd40,,1,0,80,52,1,79
,,,,,,,,,,,,,,,,,,,,,,,,,,,,,,,,,,,s,2.782000065,NASS,FALSE,,,,,,,158,nas,Catalan,Sounds/cat_nas.mp3,2020-06-11_13h04.20.580,TranslationElicitation_spa,3.2.4,MacIntel,60,5ede18e41b8bce022ee5dd40,,1,0,80,52,1,79
,,,,,,,,,,,,,,,,,,,,,,,,,,,,,,,,,,,return,2.950000048,,FALSE,,,,,,,158,nas,Catalan,Sounds/cat_nas.mp3,2020-06-11_13h04.20.580,TranslationElicitation_spa,3.2.4,MacIntel,60,5ede18e41b8bce022ee5dd40,2.950000048,1,0,80,52,1,79
,,,,,,,,,,,,,,,,,,,,,,,,,,,,,,,,,,,,,,,,,,,,,158,nas,Catalan,Sounds/cat_nas.mp3,2020-06-11_13h04.20.580,TranslationElicitation_spa,3.2.4,MacIntel,60,5ede18e41b8bce022ee5dd40,,1,0,80,52,1,79
,,,,,,,,,,,,,,,,,,,,,,,,,,,,,,,,,,,p,1.315999985,P,FALSE,,,,,,,164,patata,Catalan,Sounds/cat_patata.mp3,2020-06-11_13h04.20.580,TranslationElicitation_spa,3.2.4,MacIntel,60,5ede18e41b8bce022ee5dd40,,1,0,80,57,1,79
,,,,,,,,,,,,,,,,,,,,,,,,,,,,,,,,,,,a,1.433000088,PA,FALSE,,,,,,,164,patata,Catalan,Sounds/cat_patata.mp3,2020-06-11_13h04.20.580,TranslationElicitation_spa,3.2.4,MacIntel,60,5ede18e41b8bce022ee5dd40,,1,0,80,57,1,79
,,,,,,,,,,,,,,,,,,,,,,,,,,,,,,,,,,,t,1.96600008,PAT,FALSE,,,,,,,164,patata,Catalan,Sounds/cat_patata.mp3,2020-06-11_13h04.20.580,TranslationElicitation_spa,3.2.4,MacIntel,60,5ede18e41b8bce022ee5dd40,,1,0,80,57,1,79
,,,,,,,,,,,,,,,,,,,,,,,,,,,,,,,,,,,a,2.088000059,PATA,FALSE,,,,,,,164,patata,Catalan,Sounds/cat_patata.mp3,2020-06-11_13h04.20.580,TranslationElicitation_spa,3.2.4,MacIntel,60,5ede18e41b8bce022ee5dd40,,1,0,80,57,1,79
,,,,,,,,,,,,,,,,,,,,,,,,,,,,,,,,,,,t,2.249000072,PATAT,FALSE,,,,,,,164,patata,Catalan,Sounds/cat_patata.mp3,2020-06-11_13h04.20.580,TranslationElicitation_spa,3.2.4,MacIntel,60,5ede18e41b8bce022ee5dd40,,1,0,80,57,1,79
,,,,,,,,,,,,,,,,,,,,,,,,,,,,,,,,,,,a,2.315999985,PATATA,FALSE,,,,,,,164,patata,Catalan,Sounds/cat_patata.mp3,2020-06-11_13h04.20.580,TranslationElicitation_spa,3.2.4,MacIntel,60,5ede18e41b8bce022ee5dd40,,1,0,80,57,1,79
,,,,,,,,,,,,,,,,,,,,,,,,,,,,,,,,,,,return,2.915999889,,FALSE,,,,,,,164,patata,Catalan,Sounds/cat_patata.mp3,2020-06-11_13h04.20.580,TranslationElicitation_spa,3.2.4,MacIntel,60,5ede18e41b8bce022ee5dd40,2.915999889,1,0,80,57,1,79
,,,,,,,,,,,,,,,,,,,,,,,,,,,,,,,,,,,,,,,,,,,,,164,patata,Catalan,Sounds/cat_patata.mp3,2020-06-11_13h04.20.580,TranslationElicitation_spa,3.2.4,MacIntel,60,5ede18e41b8bce022ee5dd40,,1,0,80,57,1,79
,,,,,,,,,,,,,,,,,,,,,,,,,,,,,,,,,,,e,2.829999924,E,FALSE,,,,,,,165,pernil,Catalan,Sounds/cat_pernil.mp3,2020-06-11_13h04.20.580,TranslationElicitation_spa,3.2.4,MacIntel,60,5ede18e41b8bce022ee5dd40,,1,0,80,58,1,79
,,,,,,,,,,,,,,,,,,,,,,,,,,,,,,,,,,,backspace,4.112999916,,TRUE,,,,,,,165,pernil,Catalan,Sounds/cat_pernil.mp3,2020-06-11_13h04.20.580,TranslationElicitation_spa,3.2.4,MacIntel,60,5ede18e41b8bce022ee5dd40,,1,0,80,58,1,79
,,,,,,,,,,,,,,,,,,,,,,,,,,,,,,,,,,,p,4.629999876,P,TRUE,,,,,,,165,pernil,Catalan,Sounds/cat_pernil.mp3,2020-06-11_13h04.20.580,TranslationElicitation_spa,3.2.4,MacIntel,60,5ede18e41b8bce022ee5dd40,,1,0,80,58,1,79
,,,,,,,,,,,,,,,,,,,,,,,,,,,,,,,,,,,e,4.763000011,PE,TRUE,,,,,,,165,pernil,Catalan,Sounds/cat_pernil.mp3,2020-06-11_13h04.20.580,TranslationElicitation_spa,3.2.4,MacIntel,60,5ede18e41b8bce022ee5dd40,,1,0,80,58,1,79
,,,,,,,,,,,,,,,,,,,,,,,,,,,,,,,,,,,r,4.947000027,PER,TRUE,,,,,,,165,pernil,Catalan,Sounds/cat_pernil.mp3,2020-06-11_13h04.20.580,TranslationElicitation_spa,3.2.4,MacIntel,60,5ede18e41b8bce022ee5dd40,,1,0,80,58,1,79
,,,,,,,,,,,,,,,,,,,,,,,,,,,,,,,,,,,n,5.212999821,PERN,TRUE,,,,,,,165,pernil,Catalan,Sounds/cat_pernil.mp3,2020-06-11_13h04.20.580,TranslationElicitation_spa,3.2.4,MacIntel,60,5ede18e41b8bce022ee5dd40,,1,0,80,58,1,79
,,,,,,,,,,,,,,,,,,,,,,,,,,,,,,,,,,,i,5.412999868,PERNI,TRUE,,,,,,,165,pernil,Catalan,Sounds/cat_pernil.mp3,2020-06-11_13h04.20.580,TranslationElicitation_spa,3.2.4,MacIntel,60,5ede18e41b8bce022ee5dd40,,1,0,80,58,1,79
,,,,,,,,,,,,,,,,,,,,,,,,,,,,,,,,,,,l,5.628999949,PERNIL,TRUE,,,,,,,165,pernil,Catalan,Sounds/cat_pernil.mp3,2020-06-11_13h04.20.580,TranslationElicitation_spa,3.2.4,MacIntel,60,5ede18e41b8bce022ee5dd40,,1,0,80,58,1,79
,,,,,,,,,,,,,,,,,,,,,,,,,,,,,,,,,,,return,5.912999868,,TRUE,,,,,,,165,pernil,Catalan,Sounds/cat_pernil.mp3,2020-06-11_13h04.20.580,TranslationElicitation_spa,3.2.4,MacIntel,60,5ede18e41b8bce022ee5dd40,5.912999868,1,0,80,58,1,79
,,,,,,,,,,,,,,,,,,,,,,,,,,,,,,,,,,,,,,,,,,,,,165,pernil,Catalan,Sounds/cat_pernil.mp3,2020-06-11_13h04.20.580,TranslationElicitation_spa,3.2.4,MacIntel,60,5ede18e41b8bce022ee5dd40,,1,0,80,58,1,79
,,,,,,,,,,,,,,,,,,,,,,,,,,,,,,,,,,,r,3.015999794,R,FALSE,,,,,,,175,raspall,Catalan,Sounds/cat_raspall.mp3,2020-06-11_13h04.20.580,TranslationElicitation_spa,3.2.4,MacIntel,60,5ede18e41b8bce022ee5dd40,,1,0,80,67,1,79
,,,,,,,,,,,,,,,,,,,,,,,,,,,,,,,,,,,a,3.348999977,RA,FALSE,,,,,,,175,raspall,Catalan,Sounds/cat_raspall.mp3,2020-06-11_13h04.20.580,TranslationElicitation_spa,3.2.4,MacIntel,60,5ede18e41b8bce022ee5dd40,,1,0,80,67,1,79
,,,,,,,,,,,,,,,,,,,,,,,,,,,,,,,,,,,s,3.614999771,RAS,FALSE,,,,,,,175,raspall,Catalan,Sounds/cat_raspall.mp3,2020-06-11_13h04.20.580,TranslationElicitation_spa,3.2.4,MacIntel,60,5ede18e41b8bce022ee5dd40,,1,0,80,67,1,79
