consentKey.keys,consentKey.rt,languageL1Key.keys,languageL1Key.rt,languageL2,languageL2OralKey.keys,languageL2OralKey.rt,languageL2WrittenKey.keys,languageL2WrittenKey.rt,languageL3OralKey.keys,languageL3OralKey.rt,languageL3WrittenKey.keys,languageL3WrittenKey.rt,languageCatalanOralKey.keys,languageCatalanOralKey.rt,languageCatalanWrittenKey.keys,languageCatalanWrittenKey.rt,languageCatalanTimeKey.keys,languageCatalanTimeKey.rt,age,demoSexKey.keys,demoSexKey.rt,demoEducationKey.keys,demoEducationKey.rt,city,demoVisionKey.keys,demoVisionKey.rt,demoLanguageKey.keys,demoLanguageKey.rt,setupLocationKey.keys,setupLocationKey.rt,setupNoiseKey.keys,setupNoiseKey.rt,instructionsKeys.keys,instructionsKeys.rt,keyPressed,keyPressTime,inputText,error,trials_practice.thisRepN,trials_practice.thisTrialN,trials_practice.thisN,trials_practice.thisIndex,trials_practice.ran,trials_practice.order,trial_id,word,test_language,soundfile,date,expName,psychopyVersion,OS,frameRate,participant,trialOffset,trials.thisRepN,trials.thisTrialN,trials.thisN,trials.thisIndex,trials.ran,trials.order
space,1.74600029,e,5.892000198,FRANCÉS,4,7.906000137,4,8.977000237,3,6.569000244,3,2.235000134,2,7.654000044,1,3.606000185,1,6.309000015,21,m,2.646000147,4,6.834000349,MURCIA,n,3.250000238,n,1.808000088,1,6.36400032,1,12.74700022,space,24.22300029,t,4.013000011,T,FALSE,1,0,5,4,1,4,179,tigre,Catalan,Sounds/cat_tigre.mp3,2020-06-08_22h32.00.458,TranslationElicitation_spa,3.2.4,Win32,60,5ede1449d426ce02a290fe0a,,,,,,,
,,,,,,,,,,,,,,,,,,,,,,,,,,,,,,,,,,,i,4.128999949,TI,FALSE,1,0,5,4,1,4,179,tigre,Catalan,Sounds/cat_tigre.mp3,2020-06-08_22h32.00.458,TranslationElicitation_spa,3.2.4,Win32,60,5ede1449d426ce02a290fe0a,,,,,,,
,,,,,,,,,,,,,,,,,,,,,,,,,,,,,,,,,,,g,4.280999899,TIG,FALSE,1,0,5,4,1,4,179,tigre,Catalan,Sounds/cat_tigre.mp3,2020-06-08_22h32.00.458,TranslationElicitation_spa,3.2.4,Win32,60,5ede1449d426ce02a290fe0a,,,,,,,
,,,,,,,,,,,,,,,,,,,,,,,,,,,,,,,,,,,r,4.842999935,TIGR,FALSE,1,0,5,4,1,4,179,tigre,Catalan,Sounds/cat_tigre.mp3,2020-06-08_22h32.00.458,TranslationElicitation_spa,3.2.4,Win32,60,5ede1449d426ce02a290fe0a,,,,,,,
,,,,,,,,,,,,,,,,,,,,,,,,,,,,,,,,,,,e,5.092999935,TIGRE,FALSE,1,0,5,4,1,4,179,tigre,Catalan,Sounds/cat_tigre.mp3,2020-06-08_22h32.00.458,TranslationElicitation_spa,3.2.4,Win32,60,5ede1449d426ce02a290fe0a,,,,,,,
,,,,,,,,,,,,,,,,,,,,,,,,,,,,,,,,,,,space,13.84299994,TIGRE ,FALSE,1,0,5,4,1,4,179,tigre,Catalan,Sounds/cat_tigre.mp3,2020-06-08_22h32.00.458,TranslationElicitation_spa,3.2.4,Win32,60,5ede1449d426ce02a290fe0a,,,,,,,
,,,,,,,,,,,,,,,,,,,,,,,,,,,,,,,,,,,return,16.35699987,,FALSE,1,0,5,4,1,4,179,tigre,Catalan,Sounds/cat_tigre.mp3,2020-06-08_22h32.00.458,TranslationElicitation_spa,3.2.4,Win32,60,5ede1449d426ce02a290fe0a,16.35699987,,,,,,
,,,,,,,,,,,,,,,,,,,,,,,,,,,,,,,,,,,,,,,1,0,5,4,1,4,179,tigre,Catalan,Sounds/cat_tigre.mp3,2020-06-08_22h32.00.458,TranslationElicitation_spa,3.2.4,Win32,60,5ede1449d426ce02a290fe0a,,,,,,,
,,,,,,,,,,,,,,,,,,,,,,,,,,,,,,,,,,,h,10.20900011,H,FALSE,1,0,5,2,1,4,159,onada,Catalan,Sounds/cat_onada.mp3,2020-06-08_22h32.00.458,TranslationElicitation_spa,3.2.4,Win32,60,5ede1449d426ce02a290fe0a,,,,,,,
,,,,,,,,,,,,,,,,,,,,,,,,,,,,,,,,,,,a,10.3269999,HA,FALSE,1,0,5,2,1,4,159,onada,Catalan,Sounds/cat_onada.mp3,2020-06-08_22h32.00.458,TranslationElicitation_spa,3.2.4,Win32,60,5ede1449d426ce02a290fe0a,,,,,,,
,,,,,,,,,,,,,,,,,,,,,,,,,,,,,,,,,,,d,10.59200001,HAD,FALSE,1,0,5,2,1,4,159,onada,Catalan,Sounds/cat_onada.mp3,2020-06-08_22h32.00.458,TranslationElicitation_spa,3.2.4,Win32,60,5ede1449d426ce02a290fe0a,,,,,,,
,,,,,,,,,,,,,,,,,,,,,,,,,,,,,,,,,,,a,11.80900002,HADA,FALSE,1,0,5,2,1,4,159,onada,Catalan,Sounds/cat_onada.mp3,2020-06-08_22h32.00.458,TranslationElicitation_spa,3.2.4,Win32,60,5ede1449d426ce02a290fe0a,,,,,,,
,,,,,,,,,,,,,,,,,,,,,,,,,,,,,,,,,,,return,12.65700006,,FALSE,1,0,5,2,1,4,159,onada,Catalan,Sounds/cat_onada.mp3,2020-06-08_22h32.00.458,TranslationElicitation_spa,3.2.4,Win32,60,5ede1449d426ce02a290fe0a,12.65700006,,,,,,
,,,,,,,,,,,,,,,,,,,,,,,,,,,,,,,,,,,,,,,1,0,5,2,1,4,159,onada,Catalan,Sounds/cat_onada.mp3,2020-06-08_22h32.00.458,TranslationElicitation_spa,3.2.4,Win32,60,5ede1449d426ce02a290fe0a,,,,,,,
,,,,,,,,,,,,,,,,,,,,,,,,,,,,,,,,,,,p,5.80700016,P,FALSE,1,0,5,3,1,4,167,pingui,Catalan,Sounds/cat_pingui.mp3,2020-06-08_22h32.00.458,TranslationElicitation_spa,3.2.4,Win32,60,5ede1449d426ce02a290fe0a,,,,,,,
,,,,,,,,,,,,,,,,,,,,,,,,,,,,,,,,,,,u,6.174000025,PU,FALSE,1,0,5,3,1,4,167,pingui,Catalan,Sounds/cat_pingui.mp3,2020-06-08_22h32.00.458,TranslationElicitation_spa,3.2.4,Win32,60,5ede1449d426ce02a290fe0a,,,,,,,
,,,,,,,,,,,,,,,,,,,,,,,,,,,,,,,,,,,n,6.357000113,PUN,FALSE,1,0,5,3,1,4,167,pingui,Catalan,Sounds/cat_pingui.mp3,2020-06-08_22h32.00.458,TranslationElicitation_spa,3.2.4,Win32,60,5ede1449d426ce02a290fe0a,,,,,,,
,,,,,,,,,,,,,,,,,,,,,,,,,,,,,,,,,,,backspace,6.940000057,P,TRUE,1,0,5,3,1,4,167,pingui,Catalan,Sounds/cat_pingui.mp3,2020-06-08_22h32.00.458,TranslationElicitation_spa,3.2.4,Win32,60,5ede1449d426ce02a290fe0a,,,,,,,
,,,,,,,,,,,,,,,,,,,,,,,,,,,,,,,,,,,backspace,7.072999954,,TRUE,1,0,5,3,1,4,167,pingui,Catalan,Sounds/cat_pingui.mp3,2020-06-08_22h32.00.458,TranslationElicitation_spa,3.2.4,Win32,60,5ede1449d426ce02a290fe0a,,,,,,,
,,,,,,,,,,,,,,,,,,,,,,,,,,,,,,,,,,,i,7.305999994,I,TRUE,1,0,5,3,1,4,167,pingui,Catalan,Sounds/cat_pingui.mp3,2020-06-08_22h32.00.458,TranslationElicitation_spa,3.2.4,Win32,60,5ede1449d426ce02a290fe0a,,,,,,,
,,,,,,,,,,,,,,,,,,,,,,,,,,,,,,,,,,,n,7.506999969,IN,TRUE,1,0,5,3,1,4,167,pingui,Catalan,Sounds/cat_pingui.mp3,2020-06-08_22h32.00.458,TranslationElicitation_spa,3.2.4,Win32,60,5ede1449d426ce02a290fe0a,,,,,,,
,,,,,,,,,,,,,,,,,,,,,,,,,,,,,,,,,,,backspace,7.940000057,,TRUE,1,0,5,3,1,4,167,pingui,Catalan,Sounds/cat_pingui.mp3,2020-06-08_22h32.00.458,TranslationElicitation_spa,3.2.4,Win32,60,5ede1449d426ce02a290fe0a,,,,,,,
,,,,,,,,,,,,,,,,,,,,,,,,,,,,,,,,,,,backspace,8.072999954,,TRUE,1,0,5,3,1,4,167,pingui,Catalan,Sounds/cat_pingui.mp3,2020-06-08_22h32.00.458,TranslationElicitation_spa,3.2.4,Win32,60,5ede1449d426ce02a290fe0a,,,,,,,
,,,,,,,,,,,,,,,,,,,,,,,,,,,,,,,,,,,p,8.45600009,P,TRUE,1,0,5,3,1,4,167,pingui,Catalan,Sounds/cat_pingui.mp3,2020-06-08_22h32.00.458,TranslationElicitation_spa,3.2.4,Win32,60,5ede1449d426ce02a290fe0a,,,,,,,
,,,,,,,,,,,,,,,,,,,,,,,,,,,,,,,,,,,i,9.09100008,PI,TRUE,1,0,5,3,1,4,167,pingui,Catalan,Sounds/cat_pingui.mp3,2020-06-08_22h32.00.458,TranslationElicitation_spa,3.2.4,Win32,60,5ede1449d426ce02a290fe0a,,,,,,,
,,,,,,,,,,,,,,,,,,,,,,,,,,,,,,,,,,,n,9.273000002,PIN,TRUE,1,0,5,3,1,4,167,pingui,Catalan,Sounds/cat_pingui.mp3,2020-06-08_22h32.00.458,TranslationElicitation_spa,3.2.4,Win32,60,5ede1449d426ce02a290fe0a,,,,,,,
,,,,,,,,,,,,,,,,,,,,,,,,,,,,,,,,,,,g,9.43900013,PING,TRUE,1,0,5,3,1,4,167,pingui,Catalan,Sounds/cat_pingui.mp3,2020-06-08_22h32.00.458,TranslationElicitation_spa,3.2.4,Win32,60,5ede1449d426ce02a290fe0a,,,,,,,
,,,,,,,,,,,,,,,,,,,,,,,,,,,,,,,,,,,apostrophe,12.23900008,PING,TRUE,1,0,5,3,1,4,167,pingui,Catalan,Sounds/cat_pingui.mp3,2020-06-08_22h32.00.458,TranslationElicitation_spa,3.2.4,Win32,60,5ede1449d426ce02a290fe0a,,,,,,,
,,,,,,,,,,,,,,,,,,,,,,,,,,,,,,,,,,,u,12.77200007,PINGÚ,TRUE,1,0,5,3,1,4,167,pingui,Catalan,Sounds/cat_pingui.mp3,2020-06-08_22h32.00.458,TranslationElicitation_spa,3.2.4,Win32,60,5ede1449d426ce02a290fe0a,,,,,,,
,,,,,,,,,,,,,,,,,,,,,,,,,,,,,,,,,,,backspace,13.62400007,PIN,TRUE,1,0,5,3,1,4,167,pingui,Catalan,Sounds/cat_pingui.mp3,2020-06-08_22h32.00.458,TranslationElicitation_spa,3.2.4,Win32,60,5ede1449d426ce02a290fe0a,,,,,,,
,,,,,,,,,,,,,,,,,,,,,,,,,,,,,,,,,,,apostrophe,18.14199996,PIN,TRUE,1,0,5,3,1,4,167,pingui,Catalan,Sounds/cat_pingui.mp3,2020-06-08_22h32.00.458,TranslationElicitation_spa,3.2.4,Win32,60,5ede1449d426ce02a290fe0a,,,,,,,
,,,,,,,,,,,,,,,,,,,,,,,,,,,,,,,,,,,g,19.45300007,PIN,TRUE,1,0,5,3,1,4,167,pingui,Catalan,Sounds/cat_pingui.mp3,2020-06-08_22h32.00.458,TranslationElicitation_spa,3.2.4,Win32,60,5ede1449d426ce02a290fe0a,,,,,,,
,,,,,,,,,,,,,,,,,,,,,,,,,,,,,,,,,,,g,20.15300012,PIN,TRUE,1,0,5,3,1,4,167,pingui,Catalan,Sounds/cat_pingui.mp3,2020-06-08_22h32.00.458,TranslationElicitation_spa,3.2.4,Win32,60,5ede1449d426ce02a290fe0a,,,,,,,
,,,,,,,,,,,,,,,,,,,,,,,,,,,,,,,,,,,backspace,21.64400005,P,TRUE,1,0,5,3,1,4,167,pingui,Catalan,Sounds/cat_pingui.mp3,2020-06-08_22h32.00.458,TranslationElicitation_spa,3.2.4,Win32,60,5ede1449d426ce02a290fe0a,,,,,,,
,,,,,,,,,,,,,,,,,,,,,,,,,,,,,,,,,,,i,22.48600006,PÍ,TRUE,1,0,5,3,1,4,167,pingui,Catalan,Sounds/cat_pingui.mp3,2020-06-08_22h32.00.458,TranslationElicitation_spa,3.2.4,Win32,60,5ede1449d426ce02a290fe0a,,,,,,,
,,,,,,,,,,,,,,,,,,,,,,,,,,,,,,,,,,,n,22.68600011,PÍN,TRUE,1,0,5,3,1,4,167,pingui,Catalan,Sounds/cat_pingui.mp3,2020-06-08_22h32.00.458,TranslationElicitation_spa,3.2.4,Win32,60,5ede1449d426ce02a290fe0a,,,,,,,
,,,,,,,,,,,,,,,,,,,,,,,,,,,,,,,,,,,backspace,23.20200014,P,TRUE,1,0,5,3,1,4,167,pingui,Catalan,Sounds/cat_pingui.mp3,2020-06-08_22h32.00.458,TranslationElicitation_spa,3.2.4,Win32,60,5ede1449d426ce02a290fe0a,,,,,,,
,,,,,,,,,,,,,,,,,,,,,,,,,,,,,,,,,,,backspace,23.33599997,,TRUE,1,0,5,3,1,4,167,pingui,Catalan,Sounds/cat_pingui.mp3,2020-06-08_22h32.00.458,TranslationElicitation_spa,3.2.4,Win32,60,5ede1449d426ce02a290fe0a,,,,,,,
,,,,,,,,,,,,,,,,,,,,,,,,,,,,,,,,,,,i,23.58599997,I,TRUE,1,0,5,3,1,4,167,pingui,Catalan,Sounds/cat_pingui.mp3,2020-06-08_22h32.00.458,TranslationElicitation_spa,3.2.4,Win32,60,5ede1449d426ce02a290fe0a,,,,,,,
,,,,,,,,,,,,,,,,,,,,,,,,,,,,,,,,,,,backspace,24.08700013,,TRUE,1,0,5,3,1,4,167,pingui,Catalan,Sounds/cat_pingui.mp3,2020-06-08_22h32.00.458,TranslationElicitation_spa,3.2.4,Win32,60,5ede1449d426ce02a290fe0a,,,,,,,
,,,,,,,,,,,,,,,,,,,,,,,,,,,,,,,,,,,p,24.57000017,P,TRUE,1,0,5,3,1,4,167,pingui,Catalan,Sounds/cat_pingui.mp3,2020-06-08_22h32.00.458,TranslationElicitation_spa,3.2.4,Win32,60,5ede1449d426ce02a290fe0a,,,,,,,
,,,,,,,,,,,,,,,,,,,,,,,,,,,,,,,,,,,i,25.23699999,PI,TRUE,1,0,5,3,1,4,167,pingui,Catalan,Sounds/cat_pingui.mp3,2020-06-08_22h32.00.458,TranslationElicitation_spa,3.2.4,Win32,60,5ede1449d426ce02a290fe0a,,,,,,,
,,,,,,,,,,,,,,,,,,,,,,,,,,,,,,,,,,,n,25.42000008,PIN,TRUE,1,0,5,3,1,4,167,pingui,Catalan,Sounds/cat_pingui.mp3,2020-06-08_22h32.00.458,TranslationElicitation_spa,3.2.4,Win32,60,5ede1449d426ce02a290fe0a,,,,,,,
,,,,,,,,,,,,,,,,,,,,,,,,,,,,,,,,,,,g,25.68300009,PING,TRUE,1,0,5,3,1,4,167,pingui,Catalan,Sounds/cat_pingui.mp3,2020-06-08_22h32.00.458,TranslationElicitation_spa,3.2.4,Win32,60,5ede1449d426ce02a290fe0a,,,,,,,
,,,,,,,,,,,,,,,,,,,,,,,,,,,,,,,,,,,apostrophe,28.06900001,PING,TRUE,1,0,5,3,1,4,167,pingui,Catalan,Sounds/cat_pingui.mp3,2020-06-08_22h32.00.458,TranslationElicitation_spa,3.2.4,Win32,60,5ede1449d426ce02a290fe0a,,,,,,,
,,,,,,,,,,,,,,,,,,,,,,,,,,,,,,,,,,,u,28.78400016,PINGÚ,TRUE,1,0,5,3,1,4,167,pingui,Catalan,Sounds/cat_pingui.mp3,2020-06-08_22h32.00.458,TranslationElicitation_spa,3.2.4,Win32,60,5ede1449d426ce02a290fe0a,,,,,,,
,,,,,,,,,,,,,,,,,,,,,,,,,,,,,,,,,,,backspace,29.454,PIN,TRUE,1,0,5,3,1,4,167,pingui,Catalan,Sounds/cat_pingui.mp3,2020-06-08_22h32.00.458,TranslationElicitation_spa,3.2.4,Win32,60,5ede1449d426ce02a290fe0a,,,,,,,
,,,,,,,,,,,,,,,,,,,,,,,,,,,,,,,,,,,apostrophe,31.33400011,PIN,TRUE,1,0,5,3,1,4,167,pingui,Catalan,Sounds/cat_pingui.mp3,2020-06-08_22h32.00.458,TranslationElicitation_spa,3.2.4,Win32,60,5ede1449d426ce02a290fe0a,,,,,,,
,,,,,,,,,,,,,,,,,,,,,,,,,,,,,,,,,,,g,32.49900007,PIN,TRUE,1,0,5,3,1,4,167,pingui,Catalan,Sounds/cat_pingui.mp3,2020-06-08_22h32.00.458,TranslationElicitation_spa,3.2.4,Win32,60,5ede1449d426ce02a290fe0a,,,,,,,
,,,,,,,,,,,,,,,,,,,,,,,,,,,,,,,,,,,backspace,33.45000005,P,TRUE,1,0,5,3,1,4,167,pingui,Catalan,Sounds/cat_pingui.mp3,2020-06-08_22h32.00.458,TranslationElicitation_spa,3.2.4,Win32,60,5ede1449d426ce02a290fe0a,,,,,,,
,,,,,,,,,,,,,,,,,,,,,,,,,,,,,,,,,,,i,34.41600013,PÍ,TRUE,1,0,5,3,1,4,167,pingui,Catalan,Sounds/cat_pingui.mp3,2020-06-08_22h32.00.458,TranslationElicitation_spa,3.2.4,Win32,60,5ede1449d426ce02a290fe0a,,,,,,,
,,,,,,,,,,,,,,,,,,,,,,,,,,,,,,,,,,,backspace,34.99900007,,TRUE,1,0,5,3,1,4,167,pingui,Catalan,Sounds/cat_pingui.mp3,2020-06-08_22h32.00.458,TranslationElicitation_spa,3.2.4,Win32,60,5ede1449d426ce02a290fe0a,,,,,,,
,,,,,,,,,,,,,,,,,,,,,,,,,,,,,,,,,,,backspace,35.38199997,,TRUE,1,0,5,3,1,4,167,pingui,Catalan,Sounds/cat_pingui.mp3,2020-06-08_22h32.00.458,TranslationElicitation_spa,3.2.4,Win32,60,5ede1449d426ce02a290fe0a,,,,,,,
,,,,,,,,,,,,,,,,,,,,,,,,,,,,,,,,,,,p,35.86500001,P,TRUE,1,0,5,3,1,4,167,pingui,Catalan,Sounds/cat_pingui.mp3,2020-06-08_22h32.00.458,TranslationElicitation_spa,3.2.4,Win32,60,5ede1449d426ce02a290fe0a,,,,,,,
,,,,,,,,,,,,,,,,,,,,,,,,,,,,,,,,,,,i,36.11600018,PI,TRUE,1,0,5,3,1,4,167,pingui,Catalan,Sounds/cat_pingui.mp3,2020-06-08_22h32.00.458,TranslationElicitation_spa,3.2.4,Win32,60,5ede1449d426ce02a290fe0a,,,,,,,
,,,,,,,,,,,,,,,,,,,,,,,,,,,,,,,,,,,n,36.32599998,PIN,TRUE,1,0,5,3,1,4,167,pingui,Catalan,Sounds/cat_pingui.mp3,2020-06-08_22h32.00.458,TranslationElicitation_spa,3.2.4,Win32,60,5ede1449d426ce02a290fe0a,,,,,,,
,,,,,,,,,,,,,,,,,,,,,,,,,,,,,,,,,,,g,37.01600003,PING,TRUE,1,0,5,3,1,4,167,pingui,Catalan,Sounds/cat_pingui.mp3,2020-06-08_22h32.00.458,TranslationElicitation_spa,3.2.4,Win32,60,5ede1449d426ce02a290fe0a,,,,,,,
,,,,,,,,,,,,,,,,,,,,,,,,,,,,,,,,,,,apostrophe,40.98099995,PING,TRUE,1,0,5,3,1,4,167,pingui,Catalan,Sounds/cat_pingui.mp3,2020-06-08_22h32.00.458,TranslationElicitation_spa,3.2.4,Win32,60,5ede1449d426ce02a290fe0a,,,,,,,
,,,,,,,,,,,,,,,,,,,,,,,,,,,,,,,,,,,u,41.56400013,PINGÚ,TRUE,1,0,5,3,1,4,167,pingui,Catalan,Sounds/cat_pingui.mp3,2020-06-08_22h32.00.458,TranslationElicitation_spa,3.2.4,Win32,60,5ede1449d426ce02a290fe0a,,,,,,,
,,,,,,,,,,,,,,,,,,,,,,,,,,,,,,,,,,,backspace,42.66400003,PIN,TRUE,1,0,5,3,1,4,167,pingui,Catalan,Sounds/cat_pingui.mp3,2020-06-08_22h32.00.458,TranslationElicitation_spa,3.2.4,Win32,60,5ede1449d426ce02a290fe0a,,,,,,,
,,,,,,,,,,,,,,,,,,,,,,,,,,,,,,,,,,,g,43.63000011,PING,TRUE,1,0,5,3,1,4,167,pingui,Catalan,Sounds/cat_pingui.mp3,2020-06-08_22h32.00.458,TranslationElicitation_spa,3.2.4,Win32,60,5ede1449d426ce02a290fe0a,,,,,,,
,,,,,,,,,,,,,,,,,,,,,,,,,,,,,,,,,,,u,44.68000007,PINGU,TRUE,1,0,5,3,1,4,167,pingui,Catalan,Sounds/cat_pingui.mp3,2020-06-08_22h32.00.458,TranslationElicitation_spa,3.2.4,Win32,60,5ede1449d426ce02a290fe0a,,,,,,,
,,,,,,,,,,,,,,,,,,,,,,,,,,,,,,,,,,,backspace,45.21200013,PIN,TRUE,1,0,5,3,1,4,167,pingui,Catalan,Sounds/cat_pingui.mp3,2020-06-08_22h32.00.458,TranslationElicitation_spa,3.2.4,Win32,60,5ede1449d426ce02a290fe0a,,,,,,,
,,,,,,,,,,,,,,,,,,,,,,,,,,,,,,,,,,,g,46.49600005,PING,TRUE,1,0,5,3,1,4,167,pingui,Catalan,Sounds/cat_pingui.mp3,2020-06-08_22h32.00.458,TranslationElicitation_spa,3.2.4,Win32,60,5ede1449d426ce02a290fe0a,,,,,,,
,,,,,,,,,,,,,,,,,,,,,,,,,,,,,,,,,,,u,46.98099995,PINGU,TRUE,1,0,5,3,1,4,167,pingui,Catalan,Sounds/cat_pingui.mp3,2020-06-08_22h32.00.458,TranslationElicitation_spa,3.2.4,Win32,60,5ede1449d426ce02a290fe0a,,,,,,,
,,,,,,,,,,,,,,,,,,,,,,,,,,,,,,,,,,,backspace,48.48200011,PIN,TRUE,1,0,5,3,1,4,167,pingui,Catalan,Sounds/cat_pingui.mp3,2020-06-08_22h32.00.458,TranslationElicitation_spa,3.2.4,Win32,60,5ede1449d426ce02a290fe0a,,,,,,,
,,,,,,,,,,,,,,,,,,,,,,,,,,,,,,,,,,,g,49.22800016,PING,TRUE,1,0,5,3,1,4,167,pingui,Catalan,Sounds/cat_pingui.mp3,2020-06-08_22h32.00.458,TranslationElicitation_spa,3.2.4,Win32,60,5ede1449d426ce02a290fe0a,,,,,,,
,,,,,,,,,,,,,,,,,,,,,,,,,,,,,,,,,,,apostrophe,50.58000016,PING,TRUE,1,0,5,3,1,4,167,pingui,Catalan,Sounds/cat_pingui.mp3,2020-06-08_22h32.00.458,TranslationElicitation_spa,3.2.4,Win32,60,5ede1449d426ce02a290fe0a,,,,,,,
,,,,,,,,,,,,,,,,,,,,,,,,,,,,,,,,,,,u,51.99600005,PINGÚ,TRUE,1,0,5,3,1,4,167,pingui,Catalan,Sounds/cat_pingui.mp3,2020-06-08_22h32.00.458,TranslationElicitation_spa,3.2.4,Win32,60,5ede1449d426ce02a290fe0a,,,,,,,
,,,,,,,,,,,,,,,,,,,,,,,,,,,,,,,,,,,backspace,52.78100014,PIN,TRUE,1,0,5,3,1,4,167,pingui,Catalan,Sounds/cat_pingui.mp3,2020-06-08_22h32.00.458,TranslationElicitation_spa,3.2.4,Win32,60,5ede1449d426ce02a290fe0a,,,,,,,
,,,,,,,,,,,,,,,,,,,,,,,,,,,,,,,,,,,g,53.477,PING,TRUE,1,0,5,3,1,4,167,pingui,Catalan,Sounds/cat_pingui.mp3,2020-06-08_22h32.00.458,TranslationElicitation_spa,3.2.4,Win32,60,5ede1449d426ce02a290fe0a,,,,,,,
,,,,,,,,,,,,,,,,,,,,,,,,,,,,,,,,,,,apostrophe,59.84599996,PING,TRUE,1,0,5,3,1,4,167,pingui,Catalan,Sounds/cat_pingui.mp3,2020-06-08_22h32.00.458,TranslationElicitation_spa,3.2.4,Win32,60,5ede1449d426ce02a290fe0a,,,,,,,
,,,,,,,,,,,,,,,,,,,,,,,,,,,,,,,,,,,u,60.59100008,PINGÚ,TRUE,1,0,5,3,1,4,167,pingui,Catalan,Sounds/cat_pingui.mp3,2020-06-08_22h32.00.458,TranslationElicitation_spa,3.2.4,Win32,60,5ede1449d426ce02a290fe0a,,,,,,,
,,,,,,,,,,,,,,,,,,,,,,,,,,,,,,,,,,,backspace,61.32700014,PIN,TRUE,1,0,5,3,1,4,167,pingui,Catalan,Sounds/cat_pingui.mp3,2020-06-08_22h32.00.458,TranslationElicitation_spa,3.2.4,Win32,60,5ede1449d426ce02a290fe0a,,,,,,,
,,,,,,,,,,,,,,,,,,,,,,,,,,,,,,,,,,,backspace,70.32500005,P,TRUE,1,0,5,3,1,4,167,pingui,Catalan,Sounds/cat_pingui.mp3,2020-06-08_22h32.00.458,TranslationElicitation_spa,3.2.4,Win32,60,5ede1449d426ce02a290fe0a,,,,,,,
,,,,,,,,,,,,,,,,,,,,,,,,,,,,,,,,,,,g,70.93900013,PG,TRUE,1,0,5,3,1,4,167,pingui,Catalan,Sounds/cat_pingui.mp3,2020-06-08_22h32.00.458,TranslationElicitation_spa,3.2.4,Win32,60,5ede1449d426ce02a290fe0a,,,,,,,
,,,,,,,,,,,,,,,,,,,,,,,,,,,,,,,,,,,backspace,71.53800011,,TRUE,1,0,5,3,1,4,167,pingui,Catalan,Sounds/cat_pingui.mp3,2020-06-08_22h32.00.458,TranslationElicitation_spa,3.2.4,Win32,60,5ede1449d426ce02a290fe0a,,,,,,,
,,,,,,,,,,,,,,,,,,,,,,,,,,,,,,,,,,,backspace,71.72200012,,TRUE,1,0,5,3,1,4,167,pingui,Catalan,Sounds/cat_pingui.mp3,2020-06-08_22h32.00.458,TranslationElicitation_spa,3.2.4,Win32,60,5ede1449d426ce02a290fe0a,,,,,,,
,,,,,,,,,,,,,,,,,,,,,,,,,,,,,,,,,,,p,72.13800001,P,TRUE,1,0,5,3,1,4,167,pingui,Catalan,Sounds/cat_pingui.mp3,2020-06-08_22h32.00.458,TranslationElicitation_spa,3.2.4,Win32,60,5ede1449d426ce02a290fe0a,,,,,,,
,,,,,,,,,,,,,,,,,,,,,,,,,,,,,,,,,,,i,72.35800004,PI,TRUE,1,0,5,3,1,4,167,pingui,Catalan,Sounds/cat_pingui.mp3,2020-06-08_22h32.00.458,TranslationElicitation_spa,3.2.4,Win32,60,5ede1449d426ce02a290fe0a,,,,,,,
,,,,,,,,,,,,,,,,,,,,,,,,,,,,,,,,,,,n,72.58500004,PIN,TRUE,1,0,5,3,1,4,167,pingui,Catalan,Sounds/cat_pingui.mp3,2020-06-08_22h32.00.458,TranslationElicitation_spa,3.2.4,Win32,60,5ede1449d426ce02a290fe0a,,,,,,,
,,,,,,,,,,,,,,,,,,,,,,,,,,,,,,,,,,,g,74.33800006,PING,TRUE,1,0,5,3,1,4,167,pingui,Catalan,Sounds/cat_pingui.mp3,2020-06-08_22h32.00.458,TranslationElicitation_spa,3.2.4,Win32,60,5ede1449d426ce02a290fe0a,,,,,,,
,,,,,,,,,,,,,,,,,,,,,,,,,,,,,,,,,,,apostrophe,75.00699997,PING,TRUE,1,0,5,3,1,4,167,pingui,Catalan,Sounds/cat_pingui.mp3,2020-06-08_22h32.00.458,TranslationElicitation_spa,3.2.4,Win32,60,5ede1449d426ce02a290fe0a,,,,,,,
,,,,,,,,,,,,,,,,,,,,,,,,,,,,,,,,,,,u,75.704,PINGÚ,TRUE,1,0,5,3,1,4,167,pingui,Catalan,Sounds/cat_pingui.mp3,2020-06-08_22h32.00.458,TranslationElicitation_spa,3.2.4,Win32,60,5ede1449d426ce02a290fe0a,,,,,,,
,,,,,,,,,,,,,,,,,,,,,,,,,,,,,,,,,,,backspace,76.5,PIN,TRUE,1,0,5,3,1,4,167,pingui,Catalan,Sounds/cat_pingui.mp3,2020-06-08_22h32.00.458,TranslationElicitation_spa,3.2.4,Win32,60,5ede1449d426ce02a290fe0a,,,,,,,
,,,,,,,,,,,,,,,,,,,,,,,,,,,,,,,,,,,g,77.83899999,PING,TRUE,1,0,5,3,1,4,167,pingui,Catalan,Sounds/cat_pingui.mp3,2020-06-08_22h32.00.458,TranslationElicitation_spa,3.2.4,Win32,60,5ede1449d426ce02a290fe0a,,,,,,,
,,,,,,,,,,,,,,,,,,,,,,,,,,,,,,,,,,,u,79.20300007,PINGU,TRUE,1,0,5,3,1,4,167,pingui,Catalan,Sounds/cat_pingui.mp3,2020-06-08_22h32.00.458,TranslationElicitation_spa,3.2.4,Win32,60,5ede1449d426ce02a290fe0a,,,,,,,
,,,,,,,,,,,,,,,,,,,,,,,,,,,,,,,,,,,i,79.82000017,PINGUI,TRUE,1,0,5,3,1,4,167,pingui,Catalan,Sounds/cat_pingui.mp3,2020-06-08_22h32.00.458,TranslationElicitation_spa,3.2.4,Win32,60,5ede1449d426ce02a290fe0a,,,,,,,
,,,,,,,,,,,,,,,,,,,,,,,,,,,,,,,,,,,n,80.38800001,PINGUIN,TRUE,1,0,5,3,1,4,167,pingui,Catalan,Sounds/cat_pingui.mp3,2020-06-08_22h32.00.458,TranslationElicitation_spa,3.2.4,Win32,60,5ede1449d426ce02a290fe0a,,,,,,,
,,,,,,,,,,,,,,,,,,,,,,,,,,,,,,,,,,,o,80.5940001,PINGUINO,TRUE,1,0,5,3,1,4,167,pingui,Catalan,Sounds/cat_pingui.mp3,2020-06-08_22h32.00.458,TranslationElicitation_spa,3.2.4,Win32,60,5ede1449d426ce02a290fe0a,,,,,,,
,,,,,,,,,,,,,,,,,,,,,,,,,,,,,,,,,,,return,81.04299998,,TRUE,1,0,5,3,1,4,167,pingui,Catalan,Sounds/cat_pingui.mp3,2020-06-08_22h32.00.458,TranslationElicitation_spa,3.2.4,Win32,60,5ede1449d426ce02a290fe0a,81.04299998,,,,,,
,,,,,,,,,,,,,,,,,,,,,,,,,,,,,,,,,,,,,,,1,0,5,3,1,4,167,pingui,Catalan,Sounds/cat_pingui.mp3,2020-06-08_22h32.00.458,TranslationElicitation_spa,3.2.4,Win32,60,5ede1449d426ce02a290fe0a,,,,,,,
,,,,,,,,,,,,,,,,,,,,,,,,,,,,,,,,,,,a,3.361000061,A,FALSE,1,0,5,0,1,4,109,arbre,Catalan,Sounds/cat_arbre.mp3,2020-06-08_22h32.00.458,TranslationElicitation_spa,3.2.4,Win32,60,5ede1449d426ce02a290fe0a,,,,,,,
,,,,,,,,,,,,,,,,,,,,,,,,,,,,,,,,,,,r,3.694000006,AR,FALSE,1,0,5,0,1,4,109,arbre,Catalan,Sounds/cat_arbre.mp3,2020-06-08_22h32.00.458,TranslationElicitation_spa,3.2.4,Win32,60,5ede1449d426ce02a290fe0a,,,,,,,
,,,,,,,,,,,,,,,,,,,,,,,,,,,,,,,,,,,backspace,4.328000069,,TRUE,1,0,5,0,1,4,109,arbre,Catalan,Sounds/cat_arbre.mp3,2020-06-08_22h32.00.458,TranslationElicitation_spa,3.2.4,Win32,60,5ede1449d426ce02a290fe0a,,,,,,,
,,,,,,,,,,,,,,,,,,,,,,,,,,,,,,,,,,,backspace,4.460999966,,TRUE,1,0,5,0,1,4,109,arbre,Catalan,Sounds/cat_arbre.mp3,2020-06-08_22h32.00.458,TranslationElicitation_spa,3.2.4,Win32,60,5ede1449d426ce02a290fe0a,,,,,,,
,,,,,,,,,,,,,,,,,,,,,,,,,,,,,,,,,,,apostrophe,5.20600009,,TRUE,1,0,5,0,1,4,109,arbre,Catalan,Sounds/cat_arbre.mp3,2020-06-08_22h32.00.458,TranslationElicitation_spa,3.2.4,Win32,60,5ede1449d426ce02a290fe0a,,,,,,,
,,,,,,,,,,,,,,,,,,,,,,,,,,,,,,,,,,,a,5.34100008,Á,TRUE,1,0,5,0,1,4,109,arbre,Catalan,Sounds/cat_arbre.mp3,2020-06-08_22h32.00.458,TranslationElicitation_spa,3.2.4,Win32,60,5ede1449d426ce02a290fe0a,,,,,,,
,,,,,,,,,,,,,,,,,,,,,,,,,,,,,,,,,,,r,5.592999935,ÁR,TRUE,1,0,5,0,1,4,109,arbre,Catalan,Sounds/cat_arbre.mp3,2020-06-08_22h32.00.458,TranslationElicitation_spa,3.2.4,Win32,60,5ede1449d426ce02a290fe0a,,,,,,,
,,,,,,,,,,,,,,,,,,,,,,,,,,,,,,,,,,,b,5.809999943,ÁRB,TRUE,1,0,5,0,1,4,109,arbre,Catalan,Sounds/cat_arbre.mp3,2020-06-08_22h32.00.458,TranslationElicitation_spa,3.2.4,Win32,60,5ede1449d426ce02a290fe0a,,,,,,,
,,,,,,,,,,,,,,,,,,,,,,,,,,,,,,,,,,,o,5.924000025,ÁRBO,TRUE,1,0,5,0,1,4,109,arbre,Catalan,Sounds/cat_arbre.mp3,2020-06-08_22h32.00.458,TranslationElicitation_spa,3.2.4,Win32,60,5ede1449d426ce02a290fe0a,,,,,,,
,,,,,,,,,,,,,,,,,,,,,,,,,,,,,,,,,,,l,6.105999947,ÁRBOL,TRUE,1,0,5,0,1,4,109,arbre,Catalan,Sounds/cat_arbre.mp3,2020-06-08_22h32.00.458,TranslationElicitation_spa,3.2.4,Win32,60,5ede1449d426ce02a290fe0a,,,,,,,
,,,,,,,,,,,,,,,,,,,,,,,,,,,,,,,,,,,return,6.572999954,,TRUE,1,0,5,0,1,4,109,arbre,Catalan,Sounds/cat_arbre.mp3,2020-06-08_22h32.00.458,TranslationElicitation_spa,3.2.4,Win32,60,5ede1449d426ce02a290fe0a,6.572999954,,,,,,
,,,,,,,,,,,,,,,,,,,,,,,,,,,,,,,,,,,,,,,1,0,5,0,1,4,109,arbre,Catalan,Sounds/cat_arbre.mp3,2020-06-08_22h32.00.458,TranslationElicitation_spa,3.2.4,Win32,60,5ede1449d426ce02a290fe0a,,,,,,,
,,,,,,,,,,,,,,,,,,,,,,,,,,,,,,,,,,,c,1.647000074,C,FALSE,1,0,5,1,1,4,147,jaqueta,Catalan,Sounds/cat_jaqueta.mp3,2020-06-08_22h32.00.458,TranslationElicitation_spa,3.2.4,Win32,60,5ede1449d426ce02a290fe0a,,,,,,,
,,,,,,,,,,,,,,,,,,,,,,,,,,,,,,,,,,,h,1.747000217,CH,FALSE,1,0,5,1,1,4,147,jaqueta,Catalan,Sounds/cat_jaqueta.mp3,2020-06-08_22h32.00.458,TranslationElicitation_spa,3.2.4,Win32,60,5ede1449d426ce02a290fe0a,,,,,,,
,,,,,,,,,,,,,,,,,,,,,,,,,,,,,,,,,,,a,1.881000042,CHA,FALSE,1,0,5,1,1,4,147,jaqueta,Catalan,Sounds/cat_jaqueta.mp3,2020-06-08_22h32.00.458,TranslationElicitation_spa,3.2.4,Win32,60,5ede1449d426ce02a290fe0a,,,,,,,
,,,,,,,,,,,,,,,,,,,,,,,,,,,,,,,,,,,q,2.06400013,CHAQ,FALSE,1,0,5,1,1,4,147,jaqueta,Catalan,Sounds/cat_jaqueta.mp3,2020-06-08_22h32.00.458,TranslationElicitation_spa,3.2.4,Win32,60,5ede1449d426ce02a290fe0a,,,,,,,
,,,,,,,,,,,,,,,,,,,,,,,,,,,,,,,,,,,u,2.183000088,CHAQU,FALSE,1,0,5,1,1,4,147,jaqueta,Catalan,Sounds/cat_jaqueta.mp3,2020-06-08_22h32.00.458,TranslationElicitation_spa,3.2.4,Win32,60,5ede1449d426ce02a290fe0a,,,,,,,
,,,,,,,,,,,,,,,,,,,,,,,,,,,,,,,,,,,e,2.298000097,CHAQUE,FALSE,1,0,5,1,1,4,147,jaqueta,Catalan,Sounds/cat_jaqueta.mp3,2020-06-08_22h32.00.458,TranslationElicitation_spa,3.2.4,Win32,60,5ede1449d426ce02a290fe0a,,,,,,,
,,,,,,,,,,,,,,,,,,,,,,,,,,,,,,,,,,,t,2.492000103,CHAQUET,FALSE,1,0,5,1,1,4,147,jaqueta,Catalan,Sounds/cat_jaqueta.mp3,2020-06-08_22h32.00.458,TranslationElicitation_spa,3.2.4,Win32,60,5ede1449d426ce02a290fe0a,,,,,,,
,,,,,,,,,,,,,,,,,,,,,,,,,,,,,,,,,,,a,2.781000137,CHAQUETA,FALSE,1,0,5,1,1,4,147,jaqueta,Catalan,Sounds/cat_jaqueta.mp3,2020-06-08_22h32.00.458,TranslationElicitation_spa,3.2.4,Win32,60,5ede1449d426ce02a290fe0a,,,,,,,
,,,,,,,,,,,,,,,,,,,,,,,,,,,,,,,,,,,return,4.713999987,,FALSE,1,0,5,1,1,4,147,jaqueta,Catalan,Sounds/cat_jaqueta.mp3,2020-06-08_22h32.00.458,TranslationElicitation_spa,3.2.4,Win32,60,5ede1449d426ce02a290fe0a,4.713999987,,,,,,
,,,,,,,,,,,,,,,,,,,,,,,,,,,,,,,,,,,,,,,1,0,5,1,1,4,147,jaqueta,Catalan,Sounds/cat_jaqueta.mp3,2020-06-08_22h32.00.458,TranslationElicitation_spa,3.2.4,Win32,60,5ede1449d426ce02a290fe0a,,,,,,,
,,,,,,,,,,,,,,,,,,,,,,,,,,,,,,,,,,,f,1.52699995,F,FALSE,,,,,,,134,flor,Catalan,Sounds/cat_flor.mp3,2020-06-08_22h32.00.458,TranslationElicitation_spa,3.2.4,Win32,60,5ede1449d426ce02a290fe0a,,1,0,80,29,1,79
,,,,,,,,,,,,,,,,,,,,,,,,,,,,,,,,,,,l,1.609999895,FL,FALSE,,,,,,,134,flor,Catalan,Sounds/cat_flor.mp3,2020-06-08_22h32.00.458,TranslationElicitation_spa,3.2.4,Win32,60,5ede1449d426ce02a290fe0a,,1,0,80,29,1,79
,,,,,,,,,,,,,,,,,,,,,,,,,,,,,,,,,,,o,1.79399991,FLO,FALSE,,,,,,,134,flor,Catalan,Sounds/cat_flor.mp3,2020-06-08_22h32.00.458,TranslationElicitation_spa,3.2.4,Win32,60,5ede1449d426ce02a290fe0a,,1,0,80,29,1,79
,,,,,,,,,,,,,,,,,,,,,,,,,,,,,,,,,,,r,1.878000021,FLOR,FALSE,,,,,,,134,flor,Catalan,Sounds/cat_flor.mp3,2020-06-08_22h32.00.458,TranslationElicitation_spa,3.2.4,Win32,60,5ede1449d426ce02a290fe0a,,1,0,80,29,1,79
,,,,,,,,,,,,,,,,,,,,,,,,,,,,,,,,,,,return,3.53399992,,FALSE,,,,,,,134,flor,Catalan,Sounds/cat_flor.mp3,2020-06-08_22h32.00.458,TranslationElicitation_spa,3.2.4,Win32,60,5ede1449d426ce02a290fe0a,3.53399992,1,0,80,29,1,79
,,,,,,,,,,,,,,,,,,,,,,,,,,,,,,,,,,,,,,,,,,,,,134,flor,Catalan,Sounds/cat_flor.mp3,2020-06-08_22h32.00.458,TranslationElicitation_spa,3.2.4,Win32,60,5ede1449d426ce02a290fe0a,,1,0,80,29,1,79
,,,,,,,,,,,,,,,,,,,,,,,,,,,,,,,,,,,m,1.284000158,M,FALSE,,,,,,,155,moneda,Catalan,Sounds/cat_moneda.mp3,2020-06-08_22h32.00.458,TranslationElicitation_spa,3.2.4,Win32,60,5ede1449d426ce02a290fe0a,,1,0,80,49,1,79
,,,,,,,,,,,,,,,,,,,,,,,,,,,,,,,,,,,o,1.483999968,MO,FALSE,,,,,,,155,moneda,Catalan,Sounds/cat_moneda.mp3,2020-06-08_22h32.00.458,TranslationElicitation_spa,3.2.4,Win32,60,5ede1449d426ce02a290fe0a,,1,0,80,49,1,79
,,,,,,,,,,,,,,,,,,,,,,,,,,,,,,,,,,,n,1.651000023,MON,FALSE,,,,,,,155,moneda,Catalan,Sounds/cat_moneda.mp3,2020-06-08_22h32.00.458,TranslationElicitation_spa,3.2.4,Win32,60,5ede1449d426ce02a290fe0a,,1,0,80,49,1,79
,,,,,,,,,,,,,,,,,,,,,,,,,,,,,,,,,,,e,1.752000093,MONE,FALSE,,,,,,,155,moneda,Catalan,Sounds/cat_moneda.mp3,2020-06-08_22h32.00.458,TranslationElicitation_spa,3.2.4,Win32,60,5ede1449d426ce02a290fe0a,,1,0,80,49,1,79
,,,,,,,,,,,,,,,,,,,,,,,,,,,,,,,,,,,a,1.983999968,MONEA,FALSE,,,,,,,155,moneda,Catalan,Sounds/cat_moneda.mp3,2020-06-08_22h32.00.458,TranslationElicitation_spa,3.2.4,Win32,60,5ede1449d426ce02a290fe0a,,1,0,80,49,1,79
,,,,,,,,,,,,,,,,,,,,,,,,,,,,,,,,,,,d,2.251000166,MONEAD,FALSE,,,,,,,155,moneda,Catalan,Sounds/cat_moneda.mp3,2020-06-08_22h32.00.458,TranslationElicitation_spa,3.2.4,Win32,60,5ede1449d426ce02a290fe0a,,1,0,80,49,1,79
,,,,,,,,,,,,,,,,,,,,,,,,,,,,,,,,,,,backspace,2.680000067,MONE,TRUE,,,,,,,155,moneda,Catalan,Sounds/cat_moneda.mp3,2020-06-08_22h32.00.458,TranslationElicitation_spa,3.2.4,Win32,60,5ede1449d426ce02a290fe0a,,1,0,80,49,1,79
,,,,,,,,,,,,,,,,,,,,,,,,,,,,,,,,,,,backspace,2.996000051,MO,TRUE,,,,,,,155,moneda,Catalan,Sounds/cat_moneda.mp3,2020-06-08_22h32.00.458,TranslationElicitation_spa,3.2.4,Win32,60,5ede1449d426ce02a290fe0a,,1,0,80,49,1,79
,,,,,,,,,,,,,,,,,,,,,,,,,,,,,,,,,,,d,3.095999956,MOD,TRUE,,,,,,,155,moneda,Catalan,Sounds/cat_moneda.mp3,2020-06-08_22h32.00.458,TranslationElicitation_spa,3.2.4,Win32,60,5ede1449d426ce02a290fe0a,,1,0,80,49,1,79
,,,,,,,,,,,,,,,,,,,,,,,,,,,,,,,,,,,backspace,3.728000164,M,TRUE,,,,,,,155,moneda,Catalan,Sounds/cat_moneda.mp3,2020-06-08_22h32.00.458,TranslationElicitation_spa,3.2.4,Win32,60,5ede1449d426ce02a290fe0a,,1,0,80,49,1,79
,,,,,,,,,,,,,,,,,,,,,,,,,,,,,,,,,,,o,4.713999987,MO,TRUE,,,,,,,155,moneda,Catalan,Sounds/cat_moneda.mp3,2020-06-08_22h32.00.458,TranslationElicitation_spa,3.2.4,Win32,60,5ede1449d426ce02a290fe0a,,1,0,80,49,1,79
,,,,,,,,,,,,,,,,,,,,,,,,,,,,,,,,,,,n,5.00999999,MON,TRUE,,,,,,,155,moneda,Catalan,Sounds/cat_moneda.mp3,2020-06-08_22h32.00.458,TranslationElicitation_spa,3.2.4,Win32,60,5ede1449d426ce02a290fe0a,,1,0,80,49,1,79
,,,,,,,,,,,,,,,,,,,,,,,,,,,,,,,,,,,e,5.161000013,MONE,TRUE,,,,,,,155,moneda,Catalan,Sounds/cat_moneda.mp3,2020-06-08_22h32.00.458,TranslationElicitation_spa,3.2.4,Win32,60,5ede1449d426ce02a290fe0a,,1,0,80,49,1,79
,,,,,,,,,,,,,,,,,,,,,,,,,,,,,,,,,,,d,5.460000038,MONED,TRUE,,,,,,,155,moneda,Catalan,Sounds/cat_moneda.mp3,2020-06-08_22h32.00.458,TranslationElicitation_spa,3.2.4,Win32,60,5ede1449d426ce02a290fe0a,,1,0,80,49,1,79
,,,,,,,,,,,,,,,,,,,,,,,,,,,,,,,,,,,a,5.643000126,MONEDA,TRUE,,,,,,,155,moneda,Catalan,Sounds/cat_moneda.mp3,2020-06-08_22h32.00.458,TranslationElicitation_spa,3.2.4,Win32,60,5ede1449d426ce02a290fe0a,,1,0,80,49,1,79
,,,,,,,,,,,,,,,,,,,,,,,,,,,,,,,,,,,return,6.361000061,,TRUE,,,,,,,155,moneda,Catalan,Sounds/cat_moneda.mp3,2020-06-08_22h32.00.458,TranslationElicitation_spa,3.2.4,Win32,60,5ede1449d426ce02a290fe0a,6.361000061,1,0,80,49,1,79
,,,,,,,,,,,,,,,,,,,,,,,,,,,,,,,,,,,,,,,,,,,,,155,moneda,Catalan,Sounds/cat_moneda.mp3,2020-06-08_22h32.00.458,TranslationElicitation_spa,3.2.4,Win32,60,5ede1449d426ce02a290fe0a,,1,0,80,49,1,79
,,,,,,,,,,,,,,,,,,,,,,,,,,,,,,,,,,,e,1.528000116,E,FALSE,,,,,,,132,estrella,Catalan,Sounds/cat_estrella.mp3,2020-06-08_22h32.00.458,TranslationElicitation_spa,3.2.4,Win32,60,5ede1449d426ce02a290fe0a,,1,0,80,27,1,79
,,,,,,,,,,,,,,,,,,,,,,,,,,,,,,,,,,,s,1.694999933,ES,FALSE,,,,,,,132,estrella,Catalan,Sounds/cat_estrella.mp3,2020-06-08_22h32.00.458,TranslationElicitation_spa,3.2.4,Win32,60,5ede1449d426ce02a290fe0a,,1,0,80,27,1,79
,,,,,,,,,,,,,,,,,,,,,,,,,,,,,,,,,,,t,1.896000147,EST,FALSE,,,,,,,132,estrella,Catalan,Sounds/cat_estrella.mp3,2020-06-08_22h32.00.458,TranslationElicitation_spa,3.2.4,Win32,60,5ede1449d426ce02a290fe0a,,1,0,80,27,1,79
,,,,,,,,,,,,,,,,,,,,,,,,,,,,,,,,,,,r,2.131999969,ESTR,FALSE,,,,,,,132,estrella,Catalan,Sounds/cat_estrella.mp3,2020-06-08_22h32.00.458,TranslationElicitation_spa,3.2.4,Win32,60,5ede1449d426ce02a290fe0a,,1,0,80,27,1,79
,,,,,,,,,,,,,,,,,,,,,,,,,,,,,,,,,,,e,2.262000084,ESTRE,FALSE,,,,,,,132,estrella,Catalan,Sounds/cat_estrella.mp3,2020-06-08_22h32.00.458,TranslationElicitation_spa,3.2.4,Win32,60,5ede1449d426ce02a290fe0a,,1,0,80,27,1,79
,,,,,,,,,,,,,,,,,,,,,,,,,,,,,,,,,,,l,2.427999973,ESTREL,FALSE,,,,,,,132,estrella,Catalan,Sounds/cat_estrella.mp3,2020-06-08_22h32.00.458,TranslationElicitation_spa,3.2.4,Win32,60,5ede1449d426ce02a290fe0a,,1,0,80,27,1,79
,,,,,,,,,,,,,,,,,,,,,,,,,,,,,,,,,,,l,2.561000109,ESTRELL,FALSE,,,,,,,132,estrella,Catalan,Sounds/cat_estrella.mp3,2020-06-08_22h32.00.458,TranslationElicitation_spa,3.2.4,Win32,60,5ede1449d426ce02a290fe0a,,1,0,80,27,1,79
,,,,,,,,,,,,,,,,,,,,,,,,,,,,,,,,,,,a,2.661000013,ESTRELLA,FALSE,,,,,,,132,estrella,Catalan,Sounds/cat_estrella.mp3,2020-06-08_22h32.00.458,TranslationElicitation_spa,3.2.4,Win32,60,5ede1449d426ce02a290fe0a,,1,0,80,27,1,79
,,,,,,,,,,,,,,,,,,,,,,,,,,,,,,,,,,,return,3.312999964,,FALSE,,,,,,,132,estrella,Catalan,Sounds/cat_estrella.mp3,2020-06-08_22h32.00.458,TranslationElicitation_spa,3.2.4,Win32,60,5ede1449d426ce02a290fe0a,3.312999964,1,0,80,27,1,79
,,,,,,,,,,,,,,,,,,,,,,,,,,,,,,,,,,,,,,,,,,,,,132,estrella,Catalan,Sounds/cat_estrella.mp3,2020-06-08_22h32.00.458,TranslationElicitation_spa,3.2.4,Win32,60,5ede1449d426ce02a290fe0a,,1,0,80,27,1,79
,,,,,,,,,,,,,,,,,,,,,,,,,,,,,,,,,,,l,5.846000195,L,FALSE,,,,,,,148,lleo,Catalan,Sounds/cat_lleo.mp3,2020-06-08_22h32.00.458,TranslationElicitation_spa,3.2.4,Win32,60,5ede1449d426ce02a290fe0a,,1,0,80,42,1,79
,,,,,,,,,,,,,,,,,,,,,,,,,,,,,,,,,,,e,5.996000051,LE,FALSE,,,,,,,148,lleo,Catalan,Sounds/cat_lleo.mp3,2020-06-08_22h32.00.458,TranslationElicitation_spa,3.2.4,Win32,60,5ede1449d426ce02a290fe0a,,1,0,80,42,1,79
,,,,,,,,,,,,,,,,,,,,,,,,,,,,,,,,,,,apostrophe,6.563000202,LE,FALSE,,,,,,,148,lleo,Catalan,Sounds/cat_lleo.mp3,2020-06-08_22h32.00.458,TranslationElicitation_spa,3.2.4,Win32,60,5ede1449d426ce02a290fe0a,,1,0,80,42,1,79
,,,,,,,,,,,,,,,,,,,,,,,,,,,,,,,,,,,o,6.823000193,LEÓ,FALSE,,,,,,,148,lleo,Catalan,Sounds/cat_lleo.mp3,2020-06-08_22h32.00.458,TranslationElicitation_spa,3.2.4,Win32,60,5ede1449d426ce02a290fe0a,,1,0,80,42,1,79
,,,,,,,,,,,,,,,,,,,,,,,,,,,,,,,,,,,n,7.015000105,LEÓN,FALSE,,,,,,,148,lleo,Catalan,Sounds/cat_lleo.mp3,2020-06-08_22h32.00.458,TranslationElicitation_spa,3.2.4,Win32,60,5ede1449d426ce02a290fe0a,,1,0,80,42,1,79
,,,,,,,,,,,,,,,,,,,,,,,,,,,,,,,,,,,return,7.450999975,,FALSE,,,,,,,148,lleo,Catalan,Sounds/cat_lleo.mp3,2020-06-08_22h32.00.458,TranslationElicitation_spa,3.2.4,Win32,60,5ede1449d426ce02a290fe0a,7.450999975,1,0,80,42,1,79
,,,,,,,,,,,,,,,,,,,,,,,,,,,,,,,,,,,,,,,,,,,,,148,lleo,Catalan,Sounds/cat_lleo.mp3,2020-06-08_22h32.00.458,TranslationElicitation_spa,3.2.4,Win32,60,5ede1449d426ce02a290fe0a,,1,0,80,42,1,79
,,,,,,,,,,,,,,,,,,,,,,,,,,,,,,,,,,,c,1.532999992,C,FALSE,,,,,,,121,camisa,Catalan,Sounds/cat_camisa.mp3,2020-06-08_22h32.00.458,TranslationElicitation_spa,3.2.4,Win32,60,5ede1449d426ce02a290fe0a,,1,0,80,16,1,79
,,,,,,,,,,,,,,,,,,,,,,,,,,,,,,,,,,,a,1.75,CA,FALSE,,,,,,,121,camisa,Catalan,Sounds/cat_camisa.mp3,2020-06-08_22h32.00.458,TranslationElicitation_spa,3.2.4,Win32,60,5ede1449d426ce02a290fe0a,,1,0,80,16,1,79
,,,,,,,,,,,,,,,,,,,,,,,,,,,,,,,,,,,m,1.832999945,CAM,FALSE,,,,,,,121,camisa,Catalan,Sounds/cat_camisa.mp3,2020-06-08_22h32.00.458,TranslationElicitation_spa,3.2.4,Win32,60,5ede1449d426ce02a290fe0a,,1,0,80,16,1,79
,,,,,,,,,,,,,,,,,,,,,,,,,,,,,,,,,,,i,2.003000021,CAMI,FALSE,,,,,,,121,camisa,Catalan,Sounds/cat_camisa.mp3,2020-06-08_22h32.00.458,TranslationElicitation_spa,3.2.4,Win32,60,5ede1449d426ce02a290fe0a,,1,0,80,16,1,79
,,,,,,,,,,,,,,,,,,,,,,,,,,,,,,,,,,,s,2.085999966,CAMIS,FALSE,,,,,,,121,camisa,Catalan,Sounds/cat_camisa.mp3,2020-06-08_22h32.00.458,TranslationElicitation_spa,3.2.4,Win32,60,5ede1449d426ce02a290fe0a,,1,0,80,16,1,79
,,,,,,,,,,,,,,,,,,,,,,,,,,,,,,,,,,,a,2.231999874,CAMISA,FALSE,,,,,,,121,camisa,Catalan,Sounds/cat_camisa.mp3,2020-06-08_22h32.00.458,TranslationElicitation_spa,3.2.4,Win32,60,5ede1449d426ce02a290fe0a,,1,0,80,16,1,79
,,,,,,,,,,,,,,,,,,,,,,,,,,,,,,,,,,,return,2.915999889,,FALSE,,,,,,,121,camisa,Catalan,Sounds/cat_camisa.mp3,2020-06-08_22h32.00.458,TranslationElicitation_spa,3.2.4,Win32,60,5ede1449d426ce02a290fe0a,2.915999889,1,0,80,16,1,79
,,,,,,,,,,,,,,,,,,,,,,,,,,,,,,,,,,,,,,,,,,,,,121,camisa,Catalan,Sounds/cat_camisa.mp3,2020-06-08_22h32.00.458,TranslationElicitation_spa,3.2.4,Win32,60,5ede1449d426ce02a290fe0a,,1,0,80,16,1,79
,,,,,,,,,,,,,,,,,,,,,,,,,,,,,,,,,,,p,4.980000019,P,FALSE,,,,,,,170,ploma,Catalan,Sounds/cat_ploma.mp3,2020-06-08_22h32.00.458,TranslationElicitation_spa,3.2.4,Win32,60,5ede1449d426ce02a290fe0a,,1,0,80,62,1,79
,,,,,,,,,,,,,,,,,,,,,,,,,,,,,,,,,,,l,6.845000029,PL,FALSE,,,,,,,170,ploma,Catalan,Sounds/cat_ploma.mp3,2020-06-08_22h32.00.458,TranslationElicitation_spa,3.2.4,Win32,60,5ede1449d426ce02a290fe0a,,1,0,80,62,1,79
,,,,,,,,,,,,,,,,,,,,,,,,,,,,,,,,,,,o,7.228999853,PLO,FALSE,,,,,,,170,ploma,Catalan,Sounds/cat_ploma.mp3,2020-06-08_22h32.00.458,TranslationElicitation_spa,3.2.4,Win32,60,5ede1449d426ce02a290fe0a,,1,0,80,62,1,79
,,,,,,,,,,,,,,,,,,,,,,,,,,,,,,,,,,,m,9.210999966,PLOM,FALSE,,,,,,,170,ploma,Catalan,Sounds/cat_ploma.mp3,2020-06-08_22h32.00.458,TranslationElicitation_spa,3.2.4,Win32,60,5ede1449d426ce02a290fe0a,,1,0,80,62,1,79
,,,,,,,,,,,,,,,,,,,,,,,,,,,,,,,,,,,o,10.06099987,PLOMO,FALSE,,,,,,,170,ploma,Catalan,Sounds/cat_ploma.mp3,2020-06-08_22h32.00.458,TranslationElicitation_spa,3.2.4,Win32,60,5ede1449d426ce02a290fe0a,,1,0,80,62,1,79
,,,,,,,,,,,,,,,,,,,,,,,,,,,,,,,,,,,return,11.27699995,,FALSE,,,,,,,170,ploma,Catalan,Sounds/cat_ploma.mp3,2020-06-08_22h32.00.458,TranslationElicitation_spa,3.2.4,Win32,60,5ede1449d426ce02a290fe0a,11.27699995,1,0,80,62,1,79
,,,,,,,,,,,,,,,,,,,,,,,,,,,,,,,,,,,,,,,,,,,,,170,ploma,Catalan,Sounds/cat_ploma.mp3,2020-06-08_22h32.00.458,TranslationElicitation_spa,3.2.4,Win32,60,5ede1449d426ce02a290fe0a,,1,0,80,62,1,79
,,,,,,,,,,,,,,,,,,,,,,,,,,,,,,,,,,,l,1.928999901,L,FALSE,,,,,,,151,lluna,Catalan,Sounds/cat_lluna.mp3,2020-06-08_22h32.00.458,TranslationElicitation_spa,3.2.4,Win32,60,5ede1449d426ce02a290fe0a,,1,0,80,45,1,79
,,,,,,,,,,,,,,,,,,,,,,,,,,,,,,,,,,,u,2.194000006,LU,FALSE,,,,,,,151,lluna,Catalan,Sounds/cat_lluna.mp3,2020-06-08_22h32.00.458,TranslationElicitation_spa,3.2.4,Win32,60,5ede1449d426ce02a290fe0a,,1,0,80,45,1,79
,,,,,,,,,,,,,,,,,,,,,,,,,,,,,,,,,,,n,2.427000046,LUN,FALSE,,,,,,,151,lluna,Catalan,Sounds/cat_lluna.mp3,2020-06-08_22h32.00.458,TranslationElicitation_spa,3.2.4,Win32,60,5ede1449d426ce02a290fe0a,,1,0,80,45,1,79
,,,,,,,,,,,,,,,,,,,,,,,,,,,,,,,,,,,a,2.960000038,LUNA,FALSE,,,,,,,151,lluna,Catalan,Sounds/cat_lluna.mp3,2020-06-08_22h32.00.458,TranslationElicitation_spa,3.2.4,Win32,60,5ede1449d426ce02a290fe0a,,1,0,80,45,1,79
,,,,,,,,,,,,,,,,,,,,,,,,,,,,,,,,,,,return,3.678999901,,FALSE,,,,,,,151,lluna,Catalan,Sounds/cat_lluna.mp3,2020-06-08_22h32.00.458,TranslationElicitation_spa,3.2.4,Win32,60,5ede1449d426ce02a290fe0a,3.678999901,1,0,80,45,1,79
,,,,,,,,,,,,,,,,,,,,,,,,,,,,,,,,,,,,,,,,,,,,,151,lluna,Catalan,Sounds/cat_lluna.mp3,2020-06-08_22h32.00.458,TranslationElicitation_spa,3.2.4,Win32,60,5ede1449d426ce02a290fe0a,,1,0,80,45,1,79
,,,,,,,,,,,,,,,,,,,,,,,,,,,,,,,,,,,c,1.58100009,C,FALSE,,,,,,,188,xocolata,Catalan,Sounds/cat_xocolata.mp3,2020-06-08_22h32.00.458,TranslationElicitation_spa,3.2.4,Win32,60,5ede1449d426ce02a290fe0a,,1,0,80,78,1,79
,,,,,,,,,,,,,,,,,,,,,,,,,,,,,,,,,,,h,1.730000019,CH,FALSE,,,,,,,188,xocolata,Catalan,Sounds/cat_xocolata.mp3,2020-06-08_22h32.00.458,TranslationElicitation_spa,3.2.4,Win32,60,5ede1449d426ce02a290fe0a,,1,0,80,78,1,79
,,,,,,,,,,,,,,,,,,,,,,,,,,,,,,,,,,,o,2.013000011,CHO,FALSE,,,,,,,188,xocolata,Catalan,Sounds/cat_xocolata.mp3,2020-06-08_22h32.00.458,TranslationElicitation_spa,3.2.4,Win32,60,5ede1449d426ce02a290fe0a,,1,0,80,78,1,79
,,,,,,,,,,,,,,,,,,,,,,,,,,,,,,,,,,,l,2.230000019,CHOL,FALSE,,,,,,,188,xocolata,Catalan,Sounds/cat_xocolata.mp3,2020-06-08_22h32.00.458,TranslationElicitation_spa,3.2.4,Win32,60,5ede1449d426ce02a290fe0a,,1,0,80,78,1,79
,,,,,,,,,,,,,,,,,,,,,,,,,,,,,,,,,,,o,2.464000225,CHOLO,FALSE,,,,,,,188,xocolata,Catalan,Sounds/cat_xocolata.mp3,2020-06-08_22h32.00.458,TranslationElicitation_spa,3.2.4,Win32,60,5ede1449d426ce02a290fe0a,,1,0,80,78,1,79
,,,,,,,,,,,,,,,,,,,,,,,,,,,,,,,,,,,backspace,3.897000074,CHO,TRUE,,,,,,,188,xocolata,Catalan,Sounds/cat_xocolata.mp3,2020-06-08_22h32.00.458,TranslationElicitation_spa,3.2.4,Win32,60,5ede1449d426ce02a290fe0a,,1,0,80,78,1,79
,,,,,,,,,,,,,,,,,,,,,,,,,,,,,,,,,,,c,4.738000154,CHOC,TRUE,,,,,,,188,xocolata,Catalan,Sounds/cat_xocolata.mp3,2020-06-08_22h32.00.458,TranslationElicitation_spa,3.2.4,Win32,60,5ede1449d426ce02a290fe0a,,1,0,80,78,1,79
,,,,,,,,,,,,,,,,,,,,,,,,,,,,,,,,,,,o,4.830000162,CHOCO,TRUE,,,,,,,188,xocolata,Catalan,Sounds/cat_xocolata.mp3,2020-06-08_22h32.00.458,TranslationElicitation_spa,3.2.4,Win32,60,5ede1449d426ce02a290fe0a,,1,0,80,78,1,79
,,,,,,,,,,,,,,,,,,,,,,,,,,,,,,,,,,,k,5.029000044,CHOCOK,TRUE,,,,,,,188,xocolata,Catalan,Sounds/cat_xocolata.mp3,2020-06-08_22h32.00.458,TranslationElicitation_spa,3.2.4,Win32,60,5ede1449d426ce02a290fe0a,,1,0,80,78,1,79
,,,,,,,,,,,,,,,,,,,,,,,,,,,,,,,,,,,a,5.148000002,CHOCOKA,TRUE,,,,,,,188,xocolata,Catalan,Sounds/cat_xocolata.mp3,2020-06-08_22h32.00.458,TranslationElicitation_spa,3.2.4,Win32,60,5ede1449d426ce02a290fe0a,,1,0,80,78,1,79
,,,,,,,,,,,,,,,,,,,,,,,,,,,,,,,,,,,backspace,5.613000154,CHOCO,TRUE,,,,,,,188,xocolata,Catalan,Sounds/cat_xocolata.mp3,2020-06-08_22h32.00.458,TranslationElicitation_spa,3.2.4,Win32,60,5ede1449d426ce02a290fe0a,,1,0,80,78,1,79
,,,,,,,,,,,,,,,,,,,,,,,,,,,,,,,,,,,backspace,5.762000084,CHO,TRUE,,,,,,,188,xocolata,Catalan,Sounds/cat_xocolata.mp3,2020-06-08_22h32.00.458,TranslationElicitation_spa,3.2.4,Win32,60,5ede1449d426ce02a290fe0a,,1,0,80,78,1,79
,,,,,,,,,,,,,,,,,,,,,,,,,,,,,,,,,,,c,6.630000114,CHOC,TRUE,,,,,,,188,xocolata,Catalan,Sounds/cat_xocolata.mp3,2020-06-08_22h32.00.458,TranslationElicitation_spa,3.2.4,Win32,60,5ede1449d426ce02a290fe0a,,1,0,80,78,1,79
,,,,,,,,,,,,,,,,,,,,,,,,,,,,,,,,,,,o,6.714000225,CHOCO,TRUE,,,,,,,188,xocolata,Catalan,Sounds/cat_xocolata.mp3,2020-06-08_22h32.00.458,TranslationElicitation_spa,3.2.4,Win32,60,5ede1449d426ce02a290fe0a,,1,0,80,78,1,79
,,,,,,,,,,,,,,,,,,,,,,,,,,,,,,,,,,,l,6.911000013,CHOCOL,TRUE,,,,,,,188,xocolata,Catalan,Sounds/cat_xocolata.mp3,2020-06-08_22h32.00.458,TranslationElicitation_spa,3.2.4,Win32,60,5ede1449d426ce02a290fe0a,,1,0,80,78,1,79
,,,,,,,,,,,,,,,,,,,,,,,,,,,,,,,,,,,a,6.980000019,CHOCOLA,TRUE,,,,,,,188,xocolata,Catalan,Sounds/cat_xocolata.mp3,2020-06-08_22h32.00.458,TranslationElicitation_spa,3.2.4,Win32,60,5ede1449d426ce02a290fe0a,,1,0,80,78,1,79
,,,,,,,,,,,,,,,,,,,,,,,,,,,,,,,,,,,t,7.228000164,CHOCOLAT,TRUE,,,,,,,188,xocolata,Catalan,Sounds/cat_xocolata.mp3,2020-06-08_22h32.00.458,TranslationElicitation_spa,3.2.4,Win32,60,5ede1449d426ce02a290fe0a,,1,0,80,78,1,79
,,,,,,,,,,,,,,,,,,,,,,,,,,,,,,,,,,,e,7.533000231,CHOCOLATE,TRUE,,,,,,,188,xocolata,Catalan,Sounds/cat_xocolata.mp3,2020-06-08_22h32.00.458,TranslationElicitation_spa,3.2.4,Win32,60,5ede1449d426ce02a290fe0a,,1,0,80,78,1,79
,,,,,,,,,,,,,,,,,,,,,,,,,,,,,,,,,,,return,8.179000139,,TRUE,,,,,,,188,xocolata,Catalan,Sounds/cat_xocolata.mp3,2020-06-08_22h32.00.458,TranslationElicitation_spa,3.2.4,Win32,60,5ede1449d426ce02a290fe0a,8.179000139,1,0,80,78,1,79
,,,,,,,,,,,,,,,,,,,,,,,,,,,,,,,,,,,,,,,,,,,,,188,xocolata,Catalan,Sounds/cat_xocolata.mp3,2020-06-08_22h32.00.458,TranslationElicitation_spa,3.2.4,Win32,60,5ede1449d426ce02a290fe0a,,1,0,80,78,1,79
,,,,,,,,,,,,,,,,,,,,,,,,,,,,,,,,,,,t,1.480000019,T,FALSE,,,,,,,182,tomaquet,Catalan,Sounds/cat_tomaquet.mp3,2020-06-08_22h32.00.458,TranslationElicitation_spa,3.2.4,Win32,60,5ede1449d426ce02a290fe0a,,1,0,80,73,1,79
,,,,,,,,,,,,,,,,,,,,,,,,,,,,,,,,,,,o,1.610000134,TO,FALSE,,,,,,,182,tomaquet,Catalan,Sounds/cat_tomaquet.mp3,2020-06-08_22h32.00.458,TranslationElicitation_spa,3.2.4,Win32,60,5ede1449d426ce02a290fe0a,,1,0,80,73,1,79
,,,,,,,,,,,,,,,,,,,,,,,,,,,,,,,,,,,m,1.860000134,TOM,FALSE,,,,,,,182,tomaquet,Catalan,Sounds/cat_tomaquet.mp3,2020-06-08_22h32.00.458,TranslationElicitation_spa,3.2.4,Win32,60,5ede1449d426ce02a290fe0a,,1,0,80,73,1,79
,,,,,,,,,,,,,,,,,,,,,,,,,,,,,,,,,,,a,2.910000086,TOMA,FALSE,,,,,,,182,tomaquet,Catalan,Sounds/cat_tomaquet.mp3,2020-06-08_22h32.00.458,TranslationElicitation_spa,3.2.4,Win32,60,5ede1449d426ce02a290fe0a,,1,0,80,73,1,79
,,,,,,,,,,,,,,,,,,,,,,,,,,,,,,,,,,,t,3.212000132,TOMAT,FALSE,,,,,,,182,tomaquet,Catalan,Sounds/cat_tomaquet.mp3,2020-06-08_22h32.00.458,TranslationElicitation_spa,3.2.4,Win32,60,5ede1449d426ce02a290fe0a,,1,0,80,73,1,79
,,,,,,,,,,,,,,,,,,,,,,,,,,,,,,,,,,,e,3.633000135,TOMATE,FALSE,,,,,,,182,tomaquet,Catalan,Sounds/cat_tomaquet.mp3,2020-06-08_22h32.00.458,TranslationElicitation_spa,3.2.4,Win32,60,5ede1449d426ce02a290fe0a,,1,0,80,73,1,79
,,,,,,,,,,,,,,,,,,,,,,,,,,,,,,,,,,,return,4.095000029,,FALSE,,,,,,,182,tomaquet,Catalan,Sounds/cat_tomaquet.mp3,2020-06-08_22h32.00.458,TranslationElicitation_spa,3.2.4,Win32,60,5ede1449d426ce02a290fe0a,4.095000029,1,0,80,73,1,79
,,,,,,,,,,,,,,,,,,,,,,,,,,,,,,,,,,,,,,,,,,,,,182,tomaquet,Catalan,Sounds/cat_tomaquet.mp3,2020-06-08_22h32.00.458,TranslationElicitation_spa,3.2.4,Win32,60,5ede1449d426ce02a290fe0a,,1,0,80,73,1,79
,,,,,,,,,,,,,,,,,,,,,,,,,,,,,,,,,,,m,2.59800005,M,FALSE,,,,,,,154,mirall,Catalan,Sounds/cat_mirall.mp3,2020-06-08_22h32.00.458,TranslationElicitation_spa,3.2.4,Win32,60,5ede1449d426ce02a290fe0a,,1,0,80,48,1,79
,,,,,,,,,,,,,,,,,,,,,,,,,,,,,,,,,,,i,2.796999931,MI,FALSE,,,,,,,154,mirall,Catalan,Sounds/cat_mirall.mp3,2020-06-08_22h32.00.458,TranslationElicitation_spa,3.2.4,Win32,60,5ede1449d426ce02a290fe0a,,1,0,80,48,1,79
,,,,,,,,,,,,,,,,,,,,,,,,,,,,,,,,,,,r,2.862999916,MIR,FALSE,,,,,,,154,mirall,Catalan,Sounds/cat_mirall.mp3,2020-06-08_22h32.00.458,TranslationElicitation_spa,3.2.4,Win32,60,5ede1449d426ce02a290fe0a,,1,0,80,48,1,79
,,,,,,,,,,,,,,,,,,,,,,,,,,,,,,,,,,,a,3.197999954,MIRA,FALSE,,,,,,,154,mirall,Catalan,Sounds/cat_mirall.mp3,2020-06-08_22h32.00.458,TranslationElicitation_spa,3.2.4,Win32,60,5ede1449d426ce02a290fe0a,,1,0,80,48,1,79
,,,,,,,,,,,,,,,,,,,,,,,,,,,,,,,,,,,return,3.480000019,,FALSE,,,,,,,154,mirall,Catalan,Sounds/cat_mirall.mp3,2020-06-08_22h32.00.458,TranslationElicitation_spa,3.2.4,Win32,60,5ede1449d426ce02a290fe0a,3.480000019,1,0,80,48,1,79
,,,,,,,,,,,,,,,,,,,,,,,,,,,,,,,,,,,,,,,,,,,,,154,mirall,Catalan,Sounds/cat_mirall.mp3,2020-06-08_22h32.00.458,TranslationElicitation_spa,3.2.4,Win32,60,5ede1449d426ce02a290fe0a,,1,0,80,48,1,79
,,,,,,,,,,,,,,,,,,,,,,,,,,,,,,,,,,,c,1.647000074,C,FALSE,,,,,,,120,cama,Catalan,Sounds/cat_cama.mp3,2020-06-08_22h32.00.458,TranslationElicitation_spa,3.2.4,Win32,60,5ede1449d426ce02a290fe0a,,1,0,80,15,1,79
,,,,,,,,,,,,,,,,,,,,,,,,,,,,,,,,,,,a,1.863999844,CA,FALSE,,,,,,,120,cama,Catalan,Sounds/cat_cama.mp3,2020-06-08_22h32.00.458,TranslationElicitation_spa,3.2.4,Win32,60,5ede1449d426ce02a290fe0a,,1,0,80,15,1,79
,,,,,,,,,,,,,,,,,,,,,,,,,,,,,,,,,,,m,1.963999987,CAM,FALSE,,,,,,,120,cama,Catalan,Sounds/cat_cama.mp3,2020-06-08_22h32.00.458,TranslationElicitation_spa,3.2.4,Win32,60,5ede1449d426ce02a290fe0a,,1,0,80,15,1,79
,,,,,,,,,,,,,,,,,,,,,,,,,,,,,,,,,,,a,2.030999899,CAMA,FALSE,,,,,,,120,cama,Catalan,Sounds/cat_cama.mp3,2020-06-08_22h32.00.458,TranslationElicitation_spa,3.2.4,Win32,60,5ede1449d426ce02a290fe0a,,1,0,80,15,1,79
,,,,,,,,,,,,,,,,,,,,,,,,,,,,,,,,,,,return,2.381999969,,FALSE,,,,,,,120,cama,Catalan,Sounds/cat_cama.mp3,2020-06-08_22h32.00.458,TranslationElicitation_spa,3.2.4,Win32,60,5ede1449d426ce02a290fe0a,2.381999969,1,0,80,15,1,79
,,,,,,,,,,,,,,,,,,,,,,,,,,,,,,,,,,,,,,,,,,,,,120,cama,Catalan,Sounds/cat_cama.mp3,2020-06-08_22h32.00.458,TranslationElicitation_spa,3.2.4,Win32,60,5ede1449d426ce02a290fe0a,,1,0,80,15,1,79
,,,,,,,,,,,,,,,,,,,,,,,,,,,,,,,,,,,b,6.912999868,B,FALSE,,,,,,,165,pernil,Catalan,Sounds/cat_pernil.mp3,2020-06-08_22h32.00.458,TranslationElicitation_spa,3.2.4,Win32,60,5ede1449d426ce02a290fe0a,,1,0,80,58,1,79
,,,,,,,,,,,,,,,,,,,,,,,,,,,,,,,,,,,backspace,7.781999826,,TRUE,,,,,,,165,pernil,Catalan,Sounds/cat_pernil.mp3,2020-06-08_22h32.00.458,TranslationElicitation_spa,3.2.4,Win32,60,5ede1449d426ce02a290fe0a,,1,0,80,58,1,79
,,,,,,,,,,,,,,,,,,,,,,,,,,,,,,,,,,,b,8.61500001,B,TRUE,,,,,,,165,pernil,Catalan,Sounds/cat_pernil.mp3,2020-06-08_22h32.00.458,TranslationElicitation_spa,3.2.4,Win32,60,5ede1449d426ce02a290fe0a,,1,0,80,58,1,79
,,,,,,,,,,,,,,,,,,,,,,,,,,,,,,,,,,,a,8.763999939,BA,TRUE,,,,,,,165,pernil,Catalan,Sounds/cat_pernil.mp3,2020-06-08_22h32.00.458,TranslationElicitation_spa,3.2.4,Win32,60,5ede1449d426ce02a290fe0a,,1,0,80,58,1,79
,,,,,,,,,,,,,,,,,,,,,,,,,,,,,,,,,,,r,9.028999805,BAR,TRUE,,,,,,,165,pernil,Catalan,Sounds/cat_pernil.mp3,2020-06-08_22h32.00.458,TranslationElicitation_spa,3.2.4,Win32,60,5ede1449d426ce02a290fe0a,,1,0,80,58,1,79
,,,,,,,,,,,,,,,,,,,,,,,,,,,,,,,,,,,n,9.332000017,BARN,TRUE,,,,,,,165,pernil,Catalan,Sounds/cat_pernil.mp3,2020-06-08_22h32.00.458,TranslationElicitation_spa,3.2.4,Win32,60,5ede1449d426ce02a290fe0a,,1,0,80,58,1,79
,,,,,,,,,,,,,,,,,,,,,,,,,,,,,,,,,,,i,9.579999924,BARNI,TRUE,,,,,,,165,pernil,Catalan,Sounds/cat_pernil.mp3,2020-06-08_22h32.00.458,TranslationElicitation_spa,3.2.4,Win32,60,5ede1449d426ce02a290fe0a,,1,0,80,58,1,79
,,,,,,,,,,,,,,,,,,,,,,,,,,,,,,,,,,,l,9.797999859,BARNIL,TRUE,,,,,,,165,pernil,Catalan,Sounds/cat_pernil.mp3,2020-06-08_22h32.00.458,TranslationElicitation_spa,3.2.4,Win32,60,5ede1449d426ce02a290fe0a,,1,0,80,58,1,79
,,,,,,,,,,,,,,,,,,,,,,,,,,,,,,,,,,,return,10.08200002,,TRUE,,,,,,,165,pernil,Catalan,Sounds/cat_pernil.mp3,2020-06-08_22h32.00.458,TranslationElicitation_spa,3.2.4,Win32,60,5ede1449d426ce02a290fe0a,10.08200002,1,0,80,58,1,79
,,,,,,,,,,,,,,,,,,,,,,,,,,,,,,,,,,,,,,,,,,,,,165,pernil,Catalan,Sounds/cat_pernil.mp3,2020-06-08_22h32.00.458,TranslationElicitation_spa,3.2.4,Win32,60,5ede1449d426ce02a290fe0a,,1,0,80,58,1,79
,,,,,,,,,,,,,,,,,,,,,,,,,,,,,,,,,,,f,1.893000126,F,FALSE,,,,,,,137,fulla,Catalan,Sounds/cat_fulla.mp3,2020-06-08_22h32.00.458,TranslationElicitation_spa,3.2.4,Win32,60,5ede1449d426ce02a290fe0a,,1,0,80,32,1,79
,,,,,,,,,,,,,,,,,,,,,,,,,,,,,,,,,,,u,2.00999999,FU,FALSE,,,,,,,137,fulla,Catalan,Sounds/cat_fulla.mp3,2020-06-08_22h32.00.458,TranslationElicitation_spa,3.2.4,Win32,60,5ede1449d426ce02a290fe0a,,1,0,80,32,1,79
,,,,,,,,,,,,,,,,,,,,,,,,,,,,,,,,,,,r,2.09100008,FUR,FALSE,,,,,,,137,fulla,Catalan,Sounds/cat_fulla.mp3,2020-06-08_22h32.00.458,TranslationElicitation_spa,3.2.4,Win32,60,5ede1449d426ce02a290fe0a,,1,0,80,32,1,79
,,,,,,,,,,,,,,,,,,,,,,,,,,,,,,,,,,,i,2.207999945,FURI,FALSE,,,,,,,137,fulla,Catalan,Sounds/cat_fulla.mp3,2020-06-08_22h32.00.458,TranslationElicitation_spa,3.2.4,Win32,60,5ede1449d426ce02a290fe0a,,1,0,80,32,1,79
,,,,,,,,,,,,,,,,,,,,,,,,,,,,,,,,,,,a,2.34100008,FURIA,FALSE,,,,,,,137,fulla,Catalan,Sounds/cat_fulla.mp3,2020-06-08_22h32.00.458,TranslationElicitation_spa,3.2.4,Win32,60,5ede1449d426ce02a290fe0a,,1,0,80,32,1,79
,,,,,,,,,,,,,,,,,,,,,,,,,,,,,,,,,,,return,2.60800004,,FALSE,,,,,,,137,fulla,Catalan,Sounds/cat_fulla.mp3,2020-06-08_22h32.00.458,TranslationElicitation_spa,3.2.4,Win32,60,5ede1449d426ce02a290fe0a,2.60800004,1,0,80,32,1,79
,,,,,,,,,,,,,,,,,,,,,,,,,,,,,,,,,,,,,,,,,,,,,137,fulla,Catalan,Sounds/cat_fulla.mp3,2020-06-08_22h32.00.458,TranslationElicitation_spa,3.2.4,Win32,60,5ede1449d426ce02a290fe0a,,1,0,80,32,1,79
,,,,,,,,,,,,,,,,,,,,,,,,,,,,,,,,,,,p,1.761000156,P,FALSE,,,,,,,169,plat,Catalan,Sounds/cat_plat.mp3,2020-06-08_22h32.00.458,TranslationElicitation_spa,3.2.4,Win32,60,5ede1449d426ce02a290fe0a,,1,0,80,61,1,79
,,,,,,,,,,,,,,,,,,,,,,,,,,,,,,,,,,,l,1.960999966,PL,FALSE,,,,,,,169,plat,Catalan,Sounds/cat_plat.mp3,2020-06-08_22h32.00.458,TranslationElicitation_spa,3.2.4,Win32,60,5ede1449d426ce02a290fe0a,,1,0,80,61,1,79
,,,,,,,,,,,,,,,,,,,,,,,,,,,,,,,,,,,a,2.061000109,PLA,FALSE,,,,,,,169,plat,Catalan,Sounds/cat_plat.mp3,2020-06-08_22h32.00.458,TranslationElicitation_spa,3.2.4,Win32,60,5ede1449d426ce02a290fe0a,,1,0,80,61,1,79
,,,,,,,,,,,,,,,,,,,,,,,,,,,,,,,,,,,t,2.294000149,PLAT,FALSE,,,,,,,169,plat,Catalan,Sounds/cat_plat.mp3,2020-06-08_22h32.00.458,TranslationElicitation_spa,3.2.4,Win32,60,5ede1449d426ce02a290fe0a,,1,0,80,61,1,79
,,,,,,,,,,,,,,,,,,,,,,,,,,,,,,,,,,,a,2.578999996,PLATA,FALSE,,,,,,,169,plat,Catalan,Sounds/cat_plat.mp3,2020-06-08_22h32.00.458,TranslationElicitation_spa,3.2.4,Win32,60,5ede1449d426ce02a290fe0a,,1,0,80,61,1,79
,,,,,,,,,,,,,,,,,,,,,,,,,,,,,,,,,,,return,2.914999962,,FALSE,,,,,,,169,plat,Catalan,Sounds/cat_plat.mp3,2020-06-08_22h32.00.458,TranslationElicitation_spa,3.2.4,Win32,60,5ede1449d426ce02a290fe0a,2.914999962,1,0,80,61,1,79
,,,,,,,,,,,,,,,,,,,,,,,,,,,,,,,,,,,,,,,,,,,,,169,plat,Catalan,Sounds/cat_plat.mp3,2020-06-08_22h32.00.458,TranslationElicitation_spa,3.2.4,Win32,60,5ede1449d426ce02a290fe0a,,1,0,80,61,1,79
,,,,,,,,,,,,,,,,,,,,,,,,,,,,,,,,,,,s,11.26099992,S,FALSE,,,,,,,117,boto,Catalan,Sounds/cat_boto.mp3,2020-06-08_22h32.00.458,TranslationElicitation_spa,3.2.4,Win32,60,5ede1449d426ce02a290fe0a,,1,0,80,12,1,79
,,,,,,,,,,,,,,,,,,,,,,,,,,,,,,,,,,,i,11.44499993,SI,FALSE,,,,,,,117,boto,Catalan,Sounds/cat_boto.mp3,2020-06-08_22h32.00.458,TranslationElicitation_spa,3.2.4,Win32,60,5ede1449d426ce02a290fe0a,,1,0,80,12,1,79
,,,,,,,,,,,,,,,,,,,,,,,,,,,,,,,,,,,backspace,12.27799988,,TRUE,,,,,,,117,boto,Catalan,Sounds/cat_boto.mp3,2020-06-08_22h32.00.458,TranslationElicitation_spa,3.2.4,Win32,60,5ede1449d426ce02a290fe0a,,1,0,80,12,1,79
,,,,,,,,,,,,,,,,,,,,,,,,,,,,,,,,,,,s,17.97899985,S,TRUE,,,,,,,117,boto,Catalan,Sounds/cat_boto.mp3,2020-06-08_22h32.00.458,TranslationElicitation_spa,3.2.4,Win32,60,5ede1449d426ce02a290fe0a,,1,0,80,12,1,79
,,,,,,,,,,,,,,,,,,,,,,,,,,,,,,,,,,,o,18.14299989,SO,TRUE,,,,,,,117,boto,Catalan,Sounds/cat_boto.mp3,2020-06-08_22h32.00.458,TranslationElicitation_spa,3.2.4,Win32,60,5ede1449d426ce02a290fe0a,,1,0,80,12,1,79
,,,,,,,,,,,,,,,,,,,,,,,,,,,,,,,,,,,f,18.69799995,SOF,TRUE,,,,,,,117,boto,Catalan,Sounds/cat_boto.mp3,2020-06-08_22h32.00.458,TranslationElicitation_spa,3.2.4,Win32,60,5ede1449d426ce02a290fe0a,,1,0,80,12,1,79
,,,,,,,,,,,,,,,,,,,,,,,,,,,,,,,,,,,apostrophe,19.046,SOF,TRUE,,,,,,,117,boto,Catalan,Sounds/cat_boto.mp3,2020-06-08_22h32.00.458,TranslationElicitation_spa,3.2.4,Win32,60,5ede1449d426ce02a290fe0a,,1,0,80,12,1,79
,,,,,,,,,,,,,,,,,,,,,,,,,,,,,,,,,,,a,19.07599998,SOFÁ,TRUE,,,,,,,117,boto,Catalan,Sounds/cat_boto.mp3,2020-06-08_22h32.00.458,TranslationElicitation_spa,3.2.4,Win32,60,5ede1449d426ce02a290fe0a,,1,0,80,12,1,79
,,,,,,,,,,,,,,,,,,,,,,,,,,,,,,,,,,,return,19.92599988,,TRUE,,,,,,,117,boto,Catalan,Sounds/cat_boto.mp3,2020-06-08_22h32.00.458,TranslationElicitation_spa,3.2.4,Win32,60,5ede1449d426ce02a290fe0a,19.92599988,1,0,80,12,1,79
,,,,,,,,,,,,,,,,,,,,,,,,,,,,,,,,,,,,,,,,,,,,,117,boto,Catalan,Sounds/cat_boto.mp3,2020-06-08_22h32.00.458,TranslationElicitation_spa,3.2.4,Win32,60,5ede1449d426ce02a290fe0a,,1,0,80,12,1,79
,,,,,,,,,,,,,,,,,,,,,,,,,,,,,,,,,,,m,2.046000004,M,FALSE,,,,,,,152,ma,Catalan,Sounds/cat_ma.mp3,2020-06-08_22h32.00.458,TranslationElicitation_spa,3.2.4,Win32,60,5ede1449d426ce02a290fe0a,,1,0,80,46,1,79
,,,,,,,,,,,,,,,,,,,,,,,,,,,,,,,,,,,a,2.592999935,MA,FALSE,,,,,,,152,ma,Catalan,Sounds/cat_ma.mp3,2020-06-08_22h32.00.458,TranslationElicitation_spa,3.2.4,Win32,60,5ede1449d426ce02a290fe0a,,1,0,80,46,1,79
,,,,,,,,,,,,,,,,,,,,,,,,,,,,,,,,,,,m,2.726000071,MAM,FALSE,,,,,,,152,ma,Catalan,Sounds/cat_ma.mp3,2020-06-08_22h32.00.458,TranslationElicitation_spa,3.2.4,Win32,60,5ede1449d426ce02a290fe0a,,1,0,80,46,1,79
,,,,,,,,,,,,,,,,,,,,,,,,,,,,,,,,,,,apostrophe,3.443000078,MAM,FALSE,,,,,,,152,ma,Catalan,Sounds/cat_ma.mp3,2020-06-08_22h32.00.458,TranslationElicitation_spa,3.2.4,Win32,60,5ede1449d426ce02a290fe0a,,1,0,80,46,1,79
,,,,,,,,,,,,,,,,,,,,,,,,,,,,,,,,,,,a,3.50999999,MAMÁ,FALSE,,,,,,,152,ma,Catalan,Sounds/cat_ma.mp3,2020-06-08_22h32.00.458,TranslationElicitation_spa,3.2.4,Win32,60,5ede1449d426ce02a290fe0a,,1,0,80,46,1,79
,,,,,,,,,,,,,,,,,,,,,,,,,,,,,,,,,,,backspace,4.875,MA,TRUE,,,,,,,152,ma,Catalan,Sounds/cat_ma.mp3,2020-06-08_22h32.00.458,TranslationElicitation_spa,3.2.4,Win32,60,5ede1449d426ce02a290fe0a,,1,0,80,46,1,79
,,,,,,,,,,,,,,,,,,,,,,,,,,,,,,,,,,,r,5.35800004,MAR,TRUE,,,,,,,152,ma,Catalan,Sounds/cat_ma.mp3,2020-06-08_22h32.00.458,TranslationElicitation_spa,3.2.4,Win32,60,5ede1449d426ce02a290fe0a,,1,0,80,46,1,79
,,,,,,,,,,,,,,,,,,,,,,,,,,,,,,,,,,,return,5.794000149,,TRUE,,,,,,,152,ma,Catalan,Sounds/cat_ma.mp3,2020-06-08_22h32.00.458,TranslationElicitation_spa,3.2.4,Win32,60,5ede1449d426ce02a290fe0a,5.794000149,1,0,80,46,1,79
,,,,,,,,,,,,,,,,,,,,,,,,,,,,,,,,,,,,,,,,,,,,,152,ma,Catalan,Sounds/cat_ma.mp3,2020-06-08_22h32.00.458,TranslationElicitation_spa,3.2.4,Win32,60,5ede1449d426ce02a290fe0a,,1,0,80,46,1,79
,,,,,,,,,,,,,,,,,,,,,,,,,,,,,,,,,,,a,3.378000021,A,FALSE,,,,,,,107,amanida,Catalan,Sounds/cat_amanida.mp3,2020-06-08_22h32.00.458,TranslationElicitation_spa,3.2.4,Win32,60,5ede1449d426ce02a290fe0a,,1,0,80,3,1,79
,,,,,,,,,,,,,,,,,,,,,,,,,,,,,,,,,,,m,3.477999926,AM,FALSE,,,,,,,107,amanida,Catalan,Sounds/cat_amanida.mp3,2020-06-08_22h32.00.458,TranslationElicitation_spa,3.2.4,Win32,60,5ede1449d426ce02a290fe0a,,1,0,80,3,1,79
,,,,,,,,,,,,,,,,,,,,,,,,,,,,,,,,,,,g,3.727999926,AMG,FALSE,,,,,,,107,amanida,Catalan,Sounds/cat_amanida.mp3,2020-06-08_22h32.00.458,TranslationElicitation_spa,3.2.4,Win32,60,5ede1449d426ce02a290fe0a,,1,0,80,3,1,79
,,,,,,,,,,,,,,,,,,,,,,,,,,,,,,,,,,,backspace,4.046999931,A,TRUE,,,,,,,107,amanida,Catalan,Sounds/cat_amanida.mp3,2020-06-08_22h32.00.458,TranslationElicitation_spa,3.2.4,Win32,60,5ede1449d426ce02a290fe0a,,1,0,80,3,1,79
,,,,,,,,,,,,,,,,,,,,,,,,,,,,,,,,,,,i,4.26699996,AI,TRUE,,,,,,,107,amanida,Catalan,Sounds/cat_amanida.mp3,2020-06-08_22h32.00.458,TranslationElicitation_spa,3.2.4,Win32,60,5ede1449d426ce02a290fe0a,,1,0,80,3,1,79
,,,,,,,,,,,,,,,,,,,,,,,,,,,,,,,,,,,backspace,4.726999998,,TRUE,,,,,,,107,amanida,Catalan,Sounds/cat_amanida.mp3,2020-06-08_22h32.00.458,TranslationElicitation_spa,3.2.4,Win32,60,5ede1449d426ce02a290fe0a,,1,0,80,3,1,79
,,,,,,,,,,,,,,,,,,,,,,,,,,,,,,,,,,,a,5.657999992,A,TRUE,,,,,,,107,amanida,Catalan,Sounds/cat_amanida.mp3,2020-06-08_22h32.00.458,TranslationElicitation_spa,3.2.4,Win32,60,5ede1449d426ce02a290fe0a,,1,0,80,3,1,79
,,,,,,,,,,,,,,,,,,,,,,,,,,,,,,,,,,,m,5.725999832,AM,TRUE,,,,,,,107,amanida,Catalan,Sounds/cat_amanida.mp3,2020-06-08_22h32.00.458,TranslationElicitation_spa,3.2.4,Win32,60,5ede1449d426ce02a290fe0a,,1,0,80,3,1,79
,,,,,,,,,,,,,,,,,,,,,,,,,,,,,,,,,,,i,5.92599988,AMI,TRUE,,,,,,,107,amanida,Catalan,Sounds/cat_amanida.mp3,2020-06-08_22h32.00.458,TranslationElicitation_spa,3.2.4,Win32,60,5ede1449d426ce02a290fe0a,,1,0,80,3,1,79
,,,,,,,,,,,,,,,,,,,,,,,,,,,,,,,,,,,g,5.975999832,AMIG,TRUE,,,,,,,107,amanida,Catalan,Sounds/cat_amanida.mp3,2020-06-08_22h32.00.458,TranslationElicitation_spa,3.2.4,Win32,60,5ede1449d426ce02a290fe0a,,1,0,80,3,1,79
,,,,,,,,,,,,,,,,,,,,,,,,,,,,,,,,,,,a,6.257999897,AMIGA,TRUE,,,,,,,107,amanida,Catalan,Sounds/cat_amanida.mp3,2020-06-08_22h32.00.458,TranslationElicitation_spa,3.2.4,Win32,60,5ede1449d426ce02a290fe0a,,1,0,80,3,1,79
,,,,,,,,,,,,,,,,,,,,,,,,,,,,,,,,,,,return,6.427999973,,TRUE,,,,,,,107,amanida,Catalan,Sounds/cat_amanida.mp3,2020-06-08_22h32.00.458,TranslationElicitation_spa,3.2.4,Win32,60,5ede1449d426ce02a290fe0a,6.427999973,1,0,80,3,1,79
,,,,,,,,,,,,,,,,,,,,,,,,,,,,,,,,,,,,,,,,,,,,,107,amanida,Catalan,Sounds/cat_amanida.mp3,2020-06-08_22h32.00.458,TranslationElicitation_spa,3.2.4,Win32,60,5ede1449d426ce02a290fe0a,,1,0,80,3,1,79
,,,,,,,,,,,,,,,,,,,,,,,,,,,,,,,,,,,c,1.662999868,C,FALSE,,,,,,,123,cavall,Catalan,Sounds/cat_cavall.mp3,2020-06-08_22h32.00.458,TranslationElicitation_spa,3.2.4,Win32,60,5ede1449d426ce02a290fe0a,,1,0,80,18,1,79
,,,,,,,,,,,,,,,,,,,,,,,,,,,,,,,,,,,a,1.930000067,CA,FALSE,,,,,,,123,cavall,Catalan,Sounds/cat_cavall.mp3,2020-06-08_22h32.00.458,TranslationElicitation_spa,3.2.4,Win32,60,5ede1449d426ce02a290fe0a,,1,0,80,18,1,79
,,,,,,,,,,,,,,,,,,,,,,,,,,,,,,,,,,,b,2.065000057,CAB,FALSE,,,,,,,123,cavall,Catalan,Sounds/cat_cavall.mp3,2020-06-08_22h32.00.458,TranslationElicitation_spa,3.2.4,Win32,60,5ede1449d426ce02a290fe0a,,1,0,80,18,1,79
,,,,,,,,,,,,,,,,,,,,,,,,,,,,,,,,,,,a,2.562999964,CABA,FALSE,,,,,,,123,cavall,Catalan,Sounds/cat_cavall.mp3,2020-06-08_22h32.00.458,TranslationElicitation_spa,3.2.4,Win32,60,5ede1449d426ce02a290fe0a,,1,0,80,18,1,79
,,,,,,,,,,,,,,,,,,,,,,,,,,,,,,,,,,,l,2.764999866,CABAL,FALSE,,,,,,,123,cavall,Catalan,Sounds/cat_cavall.mp3,2020-06-08_22h32.00.458,TranslationElicitation_spa,3.2.4,Win32,60,5ede1449d426ce02a290fe0a,,1,0,80,18,1,79
,,,,,,,,,,,,,,,,,,,,,,,,,,,,,,,,,,,l,2.86500001,CABALL,FALSE,,,,,,,123,cavall,Catalan,Sounds/cat_cavall.mp3,2020-06-08_22h32.00.458,TranslationElicitation_spa,3.2.4,Win32,60,5ede1449d426ce02a290fe0a,,1,0,80,18,1,79
,,,,,,,,,,,,,,,,,,,,,,,,,,,,,,,,,,,o,3.029000044,CABALLO,FALSE,,,,,,,123,cavall,Catalan,Sounds/cat_cavall.mp3,2020-06-08_22h32.00.458,TranslationElicitation_spa,3.2.4,Win32,60,5ede1449d426ce02a290fe0a,,1,0,80,18,1,79
,,,,,,,,,,,,,,,,,,,,,,,,,,,,,,,,,,,return,3.247999907,,FALSE,,,,,,,123,cavall,Catalan,Sounds/cat_cavall.mp3,2020-06-08_22h32.00.458,TranslationElicitation_spa,3.2.4,Win32,60,5ede1449d426ce02a290fe0a,3.247999907,1,0,80,18,1,79
,,,,,,,,,,,,,,,,,,,,,,,,,,,,,,,,,,,,,,,,,,,,,123,cavall,Catalan,Sounds/cat_cavall.mp3,2020-06-08_22h32.00.458,TranslationElicitation_spa,3.2.4,Win32,60,5ede1449d426ce02a290fe0a,,1,0,80,18,1,79
,,,,,,,,,,,,,,,,,,,,,,,,,,,,,,,,,,,o,13.71399999,O,FALSE,,,,,,,160,orella,Catalan,Sounds/cat_orella.mp3,2020-06-08_22h32.00.458,TranslationElicitation_spa,3.2.4,Win32,60,5ede1449d426ce02a290fe0a,,1,0,80,53,1,79
,,,,,,,,,,,,,,,,,,,,,,,,,,,,,,,,,,,r,14.01200008,OR,FALSE,,,,,,,160,orella,Catalan,Sounds/cat_orella.mp3,2020-06-08_22h32.00.458,TranslationElicitation_spa,3.2.4,Win32,60,5ede1449d426ce02a290fe0a,,1,0,80,53,1,79
,,,,,,,,,,,,,,,,,,,,,,,,,,,,,,,,,,,e,14.27999997,ORE,FALSE,,,,,,,160,orella,Catalan,Sounds/cat_orella.mp3,2020-06-08_22h32.00.458,TranslationElicitation_spa,3.2.4,Win32,60,5ede1449d426ce02a290fe0a,,1,0,80,53,1,79
,,,,,,,,,,,,,,,,,,,,,,,,,,,,,,,,,,,j,14.38000011,OREJ,FALSE,,,,,,,160,orella,Catalan,Sounds/cat_orella.mp3,2020-06-08_22h32.00.458,TranslationElicitation_spa,3.2.4,Win32,60,5ede1449d426ce02a290fe0a,,1,0,80,53,1,79
,,,,,,,,,,,,,,,,,,,,,,,,,,,,,,,,,,,a,14.49900007,OREJA,FALSE,,,,,,,160,orella,Catalan,Sounds/cat_orella.mp3,2020-06-08_22h32.00.458,TranslationElicitation_spa,3.2.4,Win32,60,5ede1449d426ce02a290fe0a,,1,0,80,53,1,79
,,,,,,,,,,,,,,,,,,,,,,,,,,,,,,,,,,,return,14.81200004,,FALSE,,,,,,,160,orella,Catalan,Sounds/cat_orella.mp3,2020-06-08_22h32.00.458,TranslationElicitation_spa,3.2.4,Win32,60,5ede1449d426ce02a290fe0a,14.81200004,1,0,80,53,1,79
,,,,,,,,,,,,,,,,,,,,,,,,,,,,,,,,,,,,,,,,,,,,,160,orella,Catalan,Sounds/cat_orella.mp3,2020-06-08_22h32.00.458,TranslationElicitation_spa,3.2.4,Win32,60,5ede1449d426ce02a290fe0a,,1,0,80,53,1,79
,,,,,,,,,,,,,,,,,,,,,,,,,,,,,,,,,,,v,13.05800009,V,FALSE,,,,,,,145,got,Catalan,Sounds/cat_got.mp3,2020-06-08_22h32.00.458,TranslationElicitation_spa,3.2.4,Win32,60,5ede1449d426ce02a290fe0a,,1,0,80,40,1,79
,,,,,,,,,,,,,,,,,,,,,,,,,,,,,,,,,,,o,13.1730001,VO,FALSE,,,,,,,145,got,Catalan,Sounds/cat_got.mp3,2020-06-08_22h32.00.458,TranslationElicitation_spa,3.2.4,Win32,60,5ede1449d426ce02a290fe0a,,1,0,80,40,1,79
,,,,,,,,,,,,,,,,,,,,,,,,,,,,,,,,,,,z,13.36100006,VOZ,FALSE,,,,,,,145,got,Catalan,Sounds/cat_got.mp3,2020-06-08_22h32.00.458,TranslationElicitation_spa,3.2.4,Win32,60,5ede1449d426ce02a290fe0a,,1,0,80,40,1,79
,,,,,,,,,,,,,,,,,,,,,,,,,,,,,,,,,,,return,13.50600004,,FALSE,,,,,,,145,got,Catalan,Sounds/cat_got.mp3,2020-06-08_22h32.00.458,TranslationElicitation_spa,3.2.4,Win32,60,5ede1449d426ce02a290fe0a,13.50600004,1,0,80,40,1,79
,,,,,,,,,,,,,,,,,,,,,,,,,,,,,,,,,,,,,,,,,,,,,145,got,Catalan,Sounds/cat_got.mp3,2020-06-08_22h32.00.458,TranslationElicitation_spa,3.2.4,Win32,60,5ede1449d426ce02a290fe0a,,1,0,80,40,1,79
,,,,,,,,,,,,,,,,,,,,,,,,,,,,,,,,,,,b,1.730000019,B,FALSE,,,,,,,113,boca,Catalan,Sounds/cat_boca.mp3,2020-06-08_22h32.00.458,TranslationElicitation_spa,3.2.4,Win32,60,5ede1449d426ce02a290fe0a,,1,0,80,8,1,79
,,,,,,,,,,,,,,,,,,,,,,,,,,,,,,,,,,,o,1.847000122,BO,FALSE,,,,,,,113,boca,Catalan,Sounds/cat_boca.mp3,2020-06-08_22h32.00.458,TranslationElicitation_spa,3.2.4,Win32,60,5ede1449d426ce02a290fe0a,,1,0,80,8,1,79
,,,,,,,,,,,,,,,,,,,,,,,,,,,,,,,,,,,c,2.130000114,BOC,FALSE,,,,,,,113,boca,Catalan,Sounds/cat_boca.mp3,2020-06-08_22h32.00.458,TranslationElicitation_spa,3.2.4,Win32,60,5ede1449d426ce02a290fe0a,,1,0,80,8,1,79
,,,,,,,,,,,,,,,,,,,,,,,,,,,,,,,,,,,a,2.346000195,BOCA,FALSE,,,,,,,113,boca,Catalan,Sounds/cat_boca.mp3,2020-06-08_22h32.00.458,TranslationElicitation_spa,3.2.4,Win32,60,5ede1449d426ce02a290fe0a,,1,0,80,8,1,79
,,,,,,,,,,,,,,,,,,,,,,,,,,,,,,,,,,,return,2.580000162,,FALSE,,,,,,,113,boca,Catalan,Sounds/cat_boca.mp3,2020-06-08_22h32.00.458,TranslationElicitation_spa,3.2.4,Win32,60,5ede1449d426ce02a290fe0a,2.580000162,1,0,80,8,1,79
,,,,,,,,,,,,,,,,,,,,,,,,,,,,,,,,,,,,,,,,,,,,,113,boca,Catalan,Sounds/cat_boca.mp3,2020-06-08_22h32.00.458,TranslationElicitation_spa,3.2.4,Win32,60,5ede1449d426ce02a290fe0a,,1,0,80,8,1,79
,,,,,,,,,,,,,,,,,,,,,,,,,,,,,,,,,,,d,1.914999962,D,FALSE,,,,,,,129,dit,Catalan,Sounds/cat_dit.mp3,2020-06-08_22h32.00.458,TranslationElicitation_spa,3.2.4,Win32,60,5ede1449d426ce02a290fe0a,,1,0,80,24,1,79
,,,,,,,,,,,,,,,,,,,,,,,,,,,,,,,,,,,i,2,DI,FALSE,,,,,,,129,dit,Catalan,Sounds/cat_dit.mp3,2020-06-08_22h32.00.458,TranslationElicitation_spa,3.2.4,Win32,60,5ede1449d426ce02a290fe0a,,1,0,80,24,1,79
,,,,,,,,,,,,,,,,,,,,,,,,,,,,,,,,,,,e,2.097000122,DIE,FALSE,,,,,,,129,dit,Catalan,Sounds/cat_dit.mp3,2020-06-08_22h32.00.458,TranslationElicitation_spa,3.2.4,Win32,60,5ede1449d426ce02a290fe0a,,1,0,80,24,1,79
,,,,,,,,,,,,,,,,,,,,,,,,,,,,,,,,,,,n,2.213999987,DIEN,FALSE,,,,,,,129,dit,Catalan,Sounds/cat_dit.mp3,2020-06-08_22h32.00.458,TranslationElicitation_spa,3.2.4,Win32,60,5ede1449d426ce02a290fe0a,,1,0,80,24,1,79
,,,,,,,,,,,,,,,,,,,,,,,,,,,,,,,,,,,t,2.29700017,DIENT,FALSE,,,,,,,129,dit,Catalan,Sounds/cat_dit.mp3,2020-06-08_22h32.00.458,TranslationElicitation_spa,3.2.4,Win32,60,5ede1449d426ce02a290fe0a,,1,0,80,24,1,79
,,,,,,,,,,,,,,,,,,,,,,,,,,,,,,,,,,,e,2.532000065,DIENTE,FALSE,,,,,,,129,dit,Catalan,Sounds/cat_dit.mp3,2020-06-08_22h32.00.458,TranslationElicitation_spa,3.2.4,Win32,60,5ede1449d426ce02a290fe0a,,1,0,80,24,1,79
,,,,,,,,,,,,,,,,,,,,,,,,,,,,,,,,,,,return,2.84800005,,FALSE,,,,,,,129,dit,Catalan,Sounds/cat_dit.mp3,2020-06-08_22h32.00.458,TranslationElicitation_spa,3.2.4,Win32,60,5ede1449d426ce02a290fe0a,2.84800005,1,0,80,24,1,79
,,,,,,,,,,,,,,,,,,,,,,,,,,,,,,,,,,,,,,,,,,,,,129,dit,Catalan,Sounds/cat_dit.mp3,2020-06-08_22h32.00.458,TranslationElicitation_spa,3.2.4,Win32,60,5ede1449d426ce02a290fe0a,,1,0,80,24,1,79
,,,,,,,,,,,,,,,,,,,,,,,,,,,,,,,,,,,g,1.812000036,G,FALSE,,,,,,,138,galeta,Catalan,Sounds/cat_galeta.mp3,2020-06-08_22h32.00.458,TranslationElicitation_spa,3.2.4,Win32,60,5ede1449d426ce02a290fe0a,,1,0,80,33,1,79
,,,,,,,,,,,,,,,,,,,,,,,,,,,,,,,,,,,a,2.428999901,GA,FALSE,,,,,,,138,galeta,Catalan,Sounds/cat_galeta.mp3,2020-06-08_22h32.00.458,TranslationElicitation_spa,3.2.4,Win32,60,5ede1449d426ce02a290fe0a,,1,0,80,33,1,79
,,,,,,,,,,,,,,,,,,,,,,,,,,,,,,,,,,,l,3.112999916,GAL,FALSE,,,,,,,138,galeta,Catalan,Sounds/cat_galeta.mp3,2020-06-08_22h32.00.458,TranslationElicitation_spa,3.2.4,Win32,60,5ede1449d426ce02a290fe0a,,1,0,80,33,1,79
,,,,,,,,,,,,,,,,,,,,,,,,,,,,,,,,,,,l,3.26699996,GALL,FALSE,,,,,,,138,galeta,Catalan,Sounds/cat_galeta.mp3,2020-06-08_22h32.00.458,TranslationElicitation_spa,3.2.4,Win32,60,5ede1449d426ce02a290fe0a,,1,0,80,33,1,79
,,,,,,,,,,,,,,,,,,,,,,,,,,,,,,,,,,,t,3.34800005,GALLT,FALSE,,,,,,,138,galeta,Catalan,Sounds/cat_galeta.mp3,2020-06-08_22h32.00.458,TranslationElicitation_spa,3.2.4,Win32,60,5ede1449d426ce02a290fe0a,,1,0,80,33,1,79
,,,,,,,,,,,,,,,,,,,,,,,,,,,,,,,,,,,e,3.549000025,GALLTE,FALSE,,,,,,,138,galeta,Catalan,Sounds/cat_galeta.mp3,2020-06-08_22h32.00.458,TranslationElicitation_spa,3.2.4,Win32,60,5ede1449d426ce02a290fe0a,,1,0,80,33,1,79
,,,,,,,,,,,,,,,,,,,,,,,,,,,,,,,,,,,backspace,4.053999901,GALL,TRUE,,,,,,,138,galeta,Catalan,Sounds/cat_galeta.mp3,2020-06-08_22h32.00.458,TranslationElicitation_spa,3.2.4,Win32,60,5ede1449d426ce02a290fe0a,,1,0,80,33,1,79
,,,,,,,,,,,,,,,,,,,,,,,,,,,,,,,,,,,e,4.270999908,GALLE,TRUE,,,,,,,138,galeta,Catalan,Sounds/cat_galeta.mp3,2020-06-08_22h32.00.458,TranslationElicitation_spa,3.2.4,Win32,60,5ede1449d426ce02a290fe0a,,1,0,80,33,1,79
,,,,,,,,,,,,,,,,,,,,,,,,,,,,,,,,,,,t,4.86500001,GALLET,TRUE,,,,,,,138,galeta,Catalan,Sounds/cat_galeta.mp3,2020-06-08_22h32.00.458,TranslationElicitation_spa,3.2.4,Win32,60,5ede1449d426ce02a290fe0a,,1,0,80,33,1,79
,,,,,,,,,,,,,,,,,,,,,,,,,,,,,,,,,,,a,5.164000034,GALLETA,TRUE,,,,,,,138,galeta,Catalan,Sounds/cat_galeta.mp3,2020-06-08_22h32.00.458,TranslationElicitation_spa,3.2.4,Win32,60,5ede1449d426ce02a290fe0a,,1,0,80,33,1,79
,,,,,,,,,,,,,,,,,,,,,,,,,,,,,,,,,,,return,5.493999958,,TRUE,,,,,,,138,galeta,Catalan,Sounds/cat_galeta.mp3,2020-06-08_22h32.00.458,TranslationElicitation_spa,3.2.4,Win32,60,5ede1449d426ce02a290fe0a,5.493000031,1,0,80,33,1,79
,,,,,,,,,,,,,,,,,,,,,,,,,,,,,,,,,,,,,,,,,,,,,138,galeta,Catalan,Sounds/cat_galeta.mp3,2020-06-08_22h32.00.458,TranslationElicitation_spa,3.2.4,Win32,60,5ede1449d426ce02a290fe0a,,1,0,80,33,1,79
,,,,,,,,,,,,,,,,,,,,,,,,,,,,,,,,,,,b,2.060000181,B,FALSE,,,,,,,112,bici,Catalan,Sounds/cat_bici.mp3,2020-06-08_22h32.00.458,TranslationElicitation_spa,3.2.4,Win32,60,5ede1449d426ce02a290fe0a,,1,0,80,7,1,79
,,,,,,,,,,,,,,,,,,,,,,,,,,,,,,,,,,,i,2.143000126,BI,FALSE,,,,,,,112,bici,Catalan,Sounds/cat_bici.mp3,2020-06-08_22h32.00.458,TranslationElicitation_spa,3.2.4,Win32,60,5ede1449d426ce02a290fe0a,,1,0,80,7,1,79
,,,,,,,,,,,,,,,,,,,,,,,,,,,,,,,,,,,c,2.276000023,BIC,FALSE,,,,,,,112,bici,Catalan,Sounds/cat_bici.mp3,2020-06-08_22h32.00.458,TranslationElicitation_spa,3.2.4,Win32,60,5ede1449d426ce02a290fe0a,,1,0,80,7,1,79
,,,,,,,,,,,,,,,,,,,,,,,,,,,,,,,,,,,i,2.343000174,BICI,FALSE,,,,,,,112,bici,Catalan,Sounds/cat_bici.mp3,2020-06-08_22h32.00.458,TranslationElicitation_spa,3.2.4,Win32,60,5ede1449d426ce02a290fe0a,,1,0,80,7,1,79
,,,,,,,,,,,,,,,,,,,,,,,,,,,,,,,,,,,return,2.710000038,,FALSE,,,,,,,112,bici,Catalan,Sounds/cat_bici.mp3,2020-06-08_22h32.00.458,TranslationElicitation_spa,3.2.4,Win32,60,5ede1449d426ce02a290fe0a,2.710000038,1,0,80,7,1,79
,,,,,,,,,,,,,,,,,,,,,,,,,,,,,,,,,,,,,,,,,,,,,112,bici,Catalan,Sounds/cat_bici.mp3,2020-06-08_22h32.00.458,TranslationElicitation_spa,3.2.4,Win32,60,5ede1449d426ce02a290fe0a,,1,0,80,7,1,79
,,,,,,,,,,,,,,,,,,,,,,,,,,,,,,,,,,,c,1.417000055,C,FALSE,,,,,,,126,corona,Catalan,Sounds/cat_corona.mp3,2020-06-08_22h32.00.458,TranslationElicitation_spa,3.2.4,Win32,60,5ede1449d426ce02a290fe0a,,1,0,80,21,1,79
,,,,,,,,,,,,,,,,,,,,,,,,,,,,,,,,,,,o,1.5,CO,FALSE,,,,,,,126,corona,Catalan,Sounds/cat_corona.mp3,2020-06-08_22h32.00.458,TranslationElicitation_spa,3.2.4,Win32,60,5ede1449d426ce02a290fe0a,,1,0,80,21,1,79
,,,,,,,,,,,,,,,,,,,,,,,,,,,,,,,,,,,r,1.887000084,COR,FALSE,,,,,,,126,corona,Catalan,Sounds/cat_corona.mp3,2020-06-08_22h32.00.458,TranslationElicitation_spa,3.2.4,Win32,60,5ede1449d426ce02a290fe0a,,1,0,80,21,1,79
,,,,,,,,,,,,,,,,,,,,,,,,,,,,,,,,,,,o,1.96600008,CORO,FALSE,,,,,,,126,corona,Catalan,Sounds/cat_corona.mp3,2020-06-08_22h32.00.458,TranslationElicitation_spa,3.2.4,Win32,60,5ede1449d426ce02a290fe0a,,1,0,80,21,1,79
,,,,,,,,,,,,,,,,,,,,,,,,,,,,,,,,,,,n,2.183000088,CORON,FALSE,,,,,,,126,corona,Catalan,Sounds/cat_corona.mp3,2020-06-08_22h32.00.458,TranslationElicitation_spa,3.2.4,Win32,60,5ede1449d426ce02a290fe0a,,1,0,80,21,1,79
,,,,,,,,,,,,,,,,,,,,,,,,,,,,,,,,,,,a,2.282000065,CORONA,FALSE,,,,,,,126,corona,Catalan,Sounds/cat_corona.mp3,2020-06-08_22h32.00.458,TranslationElicitation_spa,3.2.4,Win32,60,5ede1449d426ce02a290fe0a,,1,0,80,21,1,79
,,,,,,,,,,,,,,,,,,,,,,,,,,,,,,,,,,,return,2.717000008,,FALSE,,,,,,,126,corona,Catalan,Sounds/cat_corona.mp3,2020-06-08_22h32.00.458,TranslationElicitation_spa,3.2.4,Win32,60,5ede1449d426ce02a290fe0a,2.717000008,1,0,80,21,1,79
,,,,,,,,,,,,,,,,,,,,,,,,,,,,,,,,,,,,,,,,,,,,,126,corona,Catalan,Sounds/cat_corona.mp3,2020-06-08_22h32.00.458,TranslationElicitation_spa,3.2.4,Win32,60,5ede1449d426ce02a290fe0a,,1,0,80,21,1,79
,,,,,,,,,,,,,,,,,,,,,,,,,,,,,,,,,,,n,2.931999922,N,FALSE,,,,,,,158,nas,Catalan,Sounds/cat_nas.mp3,2020-06-08_22h32.00.458,TranslationElicitation_spa,3.2.4,Win32,60,5ede1449d426ce02a290fe0a,,1,0,80,52,1,79
,,,,,,,,,,,,,,,,,,,,,,,,,,,,,,,,,,,a,3.029999971,NA,FALSE,,,,,,,158,nas,Catalan,Sounds/cat_nas.mp3,2020-06-08_22h32.00.458,TranslationElicitation_spa,3.2.4,Win32,60,5ede1449d426ce02a290fe0a,,1,0,80,52,1,79
,,,,,,,,,,,,,,,,,,,,,,,,,,,,,,,,,,,d,3.180000067,NAD,FALSE,,,,,,,158,nas,Catalan,Sounds/cat_nas.mp3,2020-06-08_22h32.00.458,TranslationElicitation_spa,3.2.4,Win32,60,5ede1449d426ce02a290fe0a,,1,0,80,52,1,79
,,,,,,,,,,,,,,,,,,,,,,,,,,,,,,,,,,,a,3.380000114,NADA,FALSE,,,,,,,158,nas,Catalan,Sounds/cat_nas.mp3,2020-06-08_22h32.00.458,TranslationElicitation_spa,3.2.4,Win32,60,5ede1449d426ce02a290fe0a,,1,0,80,52,1,79
,,,,,,,,,,,,,,,,,,,,,,,,,,,,,,,,,,,return,3.75,,FALSE,,,,,,,158,nas,Catalan,Sounds/cat_nas.mp3,2020-06-08_22h32.00.458,TranslationElicitation_spa,3.2.4,Win32,60,5ede1449d426ce02a290fe0a,3.75,1,0,80,52,1,79
,,,,,,,,,,,,,,,,,,,,,,,,,,,,,,,,,,,,,,,,,,,,,158,nas,Catalan,Sounds/cat_nas.mp3,2020-06-08_22h32.00.458,TranslationElicitation_spa,3.2.4,Win32,60,5ede1449d426ce02a290fe0a,,1,0,80,52,1,79
,,,,,,,,,,,,,,,,,,,,,,,,,,,,,,,,,,,t,3.597999811,T,FALSE,,,,,,,180,tisores,Catalan,Sounds/cat_tisores.mp3,2020-06-08_22h32.00.458,TranslationElicitation_spa,3.2.4,Win32,60,5ede1449d426ce02a290fe0a,,1,0,80,71,1,79
,,,,,,,,,,,,,,,,,,,,,,,,,,,,,,,,,,,i,3.666999817,TI,FALSE,,,,,,,180,tisores,Catalan,Sounds/cat_tisores.mp3,2020-06-08_22h32.00.458,TranslationElicitation_spa,3.2.4,Win32,60,5ede1449d426ce02a290fe0a,,1,0,80,71,1,79
,,,,,,,,,,,,,,,,,,,,,,,,,,,,,,,,,,,j,3.831999779,TIJ,FALSE,,,,,,,180,tisores,Catalan,Sounds/cat_tisores.mp3,2020-06-08_22h32.00.458,TranslationElicitation_spa,3.2.4,Win32,60,5ede1449d426ce02a290fe0a,,1,0,80,71,1,79
,,,,,,,,,,,,,,,,,,,,,,,,,,,,,,,,,,,e,3.864999771,TIJE,FALSE,,,,,,,180,tisores,Catalan,Sounds/cat_tisores.mp3,2020-06-08_22h32.00.458,TranslationElicitation_spa,3.2.4,Win32,60,5ede1449d426ce02a290fe0a,,1,0,80,71,1,79
,,,,,,,,,,,,,,,,,,,,,,,,,,,,,,,,,,,r,4,TIJER,FALSE,,,,,,,180,tisores,Catalan,Sounds/cat_tisores.mp3,2020-06-08_22h32.00.458,TranslationElicitation_spa,3.2.4,Win32,60,5ede1449d426ce02a290fe0a,,1,0,80,71,1,79
,,,,,,,,,,,,,,,,,,,,,,,,,,,,,,,,,,,a,4.215999842,TIJERA,FALSE,,,,,,,180,tisores,Catalan,Sounds/cat_tisores.mp3,2020-06-08_22h32.00.458,TranslationElicitation_spa,3.2.4,Win32,60,5ede1449d426ce02a290fe0a,,1,0,80,71,1,79
,,,,,,,,,,,,,,,,,,,,,,,,,,,,,,,,,,,s,4.359999895,TIJERAS,FALSE,,,,,,,180,tisores,Catalan,Sounds/cat_tisores.mp3,2020-06-08_22h32.00.458,TranslationElicitation_spa,3.2.4,Win32,60,5ede1449d426ce02a290fe0a,,1,0,80,71,1,79
,,,,,,,,,,,,,,,,,,,,,,,,,,,,,,,,,,,return,4.529999971,,FALSE,,,,,,,180,tisores,Catalan,Sounds/cat_tisores.mp3,2020-06-08_22h32.00.458,TranslationElicitation_spa,3.2.4,Win32,60,5ede1449d426ce02a290fe0a,4.529999971,1,0,80,71,1,79
,,,,,,,,,,,,,,,,,,,,,,,,,,,,,,,,,,,,,,,,,,,,,180,tisores,Catalan,Sounds/cat_tisores.mp3,2020-06-08_22h32.00.458,TranslationElicitation_spa,3.2.4,Win32,60,5ede1449d426ce02a290fe0a,,1,0,80,71,1,79
,,,,,,,,,,,,,,,,,,,,,,,,,,,,,,,,,,,g,3.309999943,G,FALSE,,,,,,,139,galleda,Catalan,Sounds/cat_galleda.mp3,2020-06-08_22h32.00.458,TranslationElicitation_spa,3.2.4,Win32,60,5ede1449d426ce02a290fe0a,,1,0,80,34,1,79
,,,,,,,,,,,,,,,,,,,,,,,,,,,,,,,,,,,a,4.011000156,GA,FALSE,,,,,,,139,galleda,Catalan,Sounds/cat_galleda.mp3,2020-06-08_22h32.00.458,TranslationElicitation_spa,3.2.4,Win32,60,5ede1449d426ce02a290fe0a,,1,0,80,34,1,79
,,,,,,,,,,,,,,,,,,,,,,,,,,,,,,,,,,,l,4.179000139,GAL,FALSE,,,,,,,139,galleda,Catalan,Sounds/cat_galleda.mp3,2020-06-08_22h32.00.458,TranslationElicitation_spa,3.2.4,Win32,60,5ede1449d426ce02a290fe0a,,1,0,80,34,1,79
,,,,,,,,,,,,,,,,,,,,,,,,,,,,,,,,,,,l,4.312999964,GALL,FALSE,,,,,,,139,galleda,Catalan,Sounds/cat_galleda.mp3,2020-06-08_22h32.00.458,TranslationElicitation_spa,3.2.4,Win32,60,5ede1449d426ce02a290fe0a,,1,0,80,34,1,79
,,,,,,,,,,,,,,,,,,,,,,,,,,,,,,,,,,,e,4.40899992,GALLE,FALSE,,,,,,,139,galleda,Catalan,Sounds/cat_galleda.mp3,2020-06-08_22h32.00.458,TranslationElicitation_spa,3.2.4,Win32,60,5ede1449d426ce02a290fe0a,,1,0,80,34,1,79
,,,,,,,,,,,,,,,,,,,,,,,,,,,,,,,,,,,t,4.792999983,GALLET,FALSE,,,,,,,139,galleda,Catalan,Sounds/cat_galleda.mp3,2020-06-08_22h32.00.458,TranslationElicitation_spa,3.2.4,Win32,60,5ede1449d426ce02a290fe0a,,1,0,80,34,1,79
,,,,,,,,,,,,,,,,,,,,,,,,,,,,,,,,,,,a,5.078999996,GALLETA,FALSE,,,,,,,139,galleda,Catalan,Sounds/cat_galleda.mp3,2020-06-08_22h32.00.458,TranslationElicitation_spa,3.2.4,Win32,60,5ede1449d426ce02a290fe0a,,1,0,80,34,1,79
,,,,,,,,,,,,,,,,,,,,,,,,,,,,,,,,,,,return,6.411000013,,FALSE,,,,,,,139,galleda,Catalan,Sounds/cat_galleda.mp3,2020-06-08_22h32.00.458,TranslationElicitation_spa,3.2.4,Win32,60,5ede1449d426ce02a290fe0a,6.411000013,1,0,80,34,1,79
,,,,,,,,,,,,,,,,,,,,,,,,,,,,,,,,,,,,,,,,,,,,,139,galleda,Catalan,Sounds/cat_galleda.mp3,2020-06-08_22h32.00.458,TranslationElicitation_spa,3.2.4,Win32,60,5ede1449d426ce02a290fe0a,,1,0,80,34,1,79
,,,,,,,,,,,,,,,,,,,,,,,,,,,,,,,,,,,v,3.282000065,V,FALSE,,,,,,,118,bou,Catalan,Sounds/cat_bou.mp3,2020-06-08_22h32.00.458,TranslationElicitation_spa,3.2.4,Win32,60,5ede1449d426ce02a290fe0a,,1,0,80,13,1,79
,,,,,,,,,,,,,,,,,,,,,,,,,,,,,,,,,,,o,3.532000065,VO,FALSE,,,,,,,118,bou,Catalan,Sounds/cat_bou.mp3,2020-06-08_22h32.00.458,TranslationElicitation_spa,3.2.4,Win32,60,5ede1449d426ce02a290fe0a,,1,0,80,13,1,79
,,,,,,,,,,,,,,,,,,,,,,,,,,,,,,,,,,,z,3.598999977,VOZ,FALSE,,,,,,,118,bou,Catalan,Sounds/cat_bou.mp3,2020-06-08_22h32.00.458,TranslationElicitation_spa,3.2.4,Win32,60,5ede1449d426ce02a290fe0a,,1,0,80,13,1,79
,,,,,,,,,,,,,,,,,,,,,,,,,,,,,,,,,,,return,3.848999977,,FALSE,,,,,,,118,bou,Catalan,Sounds/cat_bou.mp3,2020-06-08_22h32.00.458,TranslationElicitation_spa,3.2.4,Win32,60,5ede1449d426ce02a290fe0a,3.848999977,1,0,80,13,1,79
,,,,,,,,,,,,,,,,,,,,,,,,,,,,,,,,,,,,,,,,,,,,,118,bou,Catalan,Sounds/cat_bou.mp3,2020-06-08_22h32.00.458,TranslationElicitation_spa,3.2.4,Win32,60,5ede1449d426ce02a290fe0a,,1,0,80,13,1,79
,,,,,,,,,,,,,,,,,,,,,,,,,,,,,,,,,,,h,10.54399991,H,FALSE,,,,,,,106,aixeta,Catalan,Sounds/cat_aixeta.mp3,2020-06-08_22h32.00.458,TranslationElicitation_spa,3.2.4,Win32,60,5ede1449d426ce02a290fe0a,,1,0,80,2,1,79
,,,,,,,,,,,,,,,,,,,,,,,,,,,,,,,,,,,a,10.6099999,HA,FALSE,,,,,,,106,aixeta,Catalan,Sounds/cat_aixeta.mp3,2020-06-08_22h32.00.458,TranslationElicitation_spa,3.2.4,Win32,60,5ede1449d426ce02a290fe0a,,1,0,80,2,1,79
,,,,,,,,,,,,,,,,,,,,,,,,,,,,,,,,,,,c,10.79399991,HAC,FALSE,,,,,,,106,aixeta,Catalan,Sounds/cat_aixeta.mp3,2020-06-08_22h32.00.458,TranslationElicitation_spa,3.2.4,Win32,60,5ede1449d426ce02a290fe0a,,1,0,80,2,1,79
,,,,,,,,,,,,,,,,,,,,,,,,,,,,,,,,,,,e,10.96099997,HACE,FALSE,,,,,,,106,aixeta,Catalan,Sounds/cat_aixeta.mp3,2020-06-08_22h32.00.458,TranslationElicitation_spa,3.2.4,Win32,60,5ede1449d426ce02a290fe0a,,1,0,80,2,1,79
,,,,,,,,,,,,,,,,,,,,,,,,,,,,,,,,,,,r,11.12799978,HACER,FALSE,,,,,,,106,aixeta,Catalan,Sounds/cat_aixeta.mp3,2020-06-08_22h32.00.458,TranslationElicitation_spa,3.2.4,Win32,60,5ede1449d426ce02a290fe0a,,1,0,80,2,1,79
,,,,,,,,,,,,,,,,,,,,,,,,,,,,,,,,,,,return,11.37999988,,FALSE,,,,,,,106,aixeta,Catalan,Sounds/cat_aixeta.mp3,2020-06-08_22h32.00.458,TranslationElicitation_spa,3.2.4,Win32,60,5ede1449d426ce02a290fe0a,11.37999988,1,0,80,2,1,79
,,,,,,,,,,,,,,,,,,,,,,,,,,,,,,,,,,,,,,,,,,,,,106,aixeta,Catalan,Sounds/cat_aixeta.mp3,2020-06-08_22h32.00.458,TranslationElicitation_spa,3.2.4,Win32,60,5ede1449d426ce02a290fe0a,,1,0,80,2,1,79
,,,,,,,,,,,,,,,,,,,,,,,,,,,,,,,,,,,c,5.962999821,C,FALSE,,,,,,,125,colom,Catalan,Sounds/cat_colom.mp3,2020-06-08_22h32.00.458,TranslationElicitation_spa,3.2.4,Win32,60,5ede1449d426ce02a290fe0a,,1,0,80,20,1,79
,,,,,,,,,,,,,,,,,,,,,,,,,,,,,,,,,,,o,6.062999964,CO,FALSE,,,,,,,125,colom,Catalan,Sounds/cat_colom.mp3,2020-06-08_22h32.00.458,TranslationElicitation_spa,3.2.4,Win32,60,5ede1449d426ce02a290fe0a,,1,0,80,20,1,79
,,,,,,,,,,,,,,,,,,,,,,,,,,,,,,,,,,,l,6.261999846,COL,FALSE,,,,,,,125,colom,Catalan,Sounds/cat_colom.mp3,2020-06-08_22h32.00.458,TranslationElicitation_spa,3.2.4,Win32,60,5ede1449d426ce02a290fe0a,,1,0,80,20,1,79
,,,,,,,,,,,,,,,,,,,,,,,,,,,,,,,,,,,o,6.396999836,COLO,FALSE,,,,,,,125,colom,Catalan,Sounds/cat_colom.mp3,2020-06-08_22h32.00.458,TranslationElicitation_spa,3.2.4,Win32,60,5ede1449d426ce02a290fe0a,,1,0,80,20,1,79
,,,,,,,,,,,,,,,,,,,,,,,,,,,,,,,,,,,r,6.461999893,COLOR,FALSE,,,,,,,125,colom,Catalan,Sounds/cat_colom.mp3,2020-06-08_22h32.00.458,TranslationElicitation_spa,3.2.4,Win32,60,5ede1449d426ce02a290fe0a,,1,0,80,20,1,79
,,,,,,,,,,,,,,,,,,,,,,,,,,,,,,,,,,,return,6.648999929,,FALSE,,,,,,,125,colom,Catalan,Sounds/cat_colom.mp3,2020-06-08_22h32.00.458,TranslationElicitation_spa,3.2.4,Win32,60,5ede1449d426ce02a290fe0a,6.648999929,1,0,80,20,1,79
,,,,,,,,,,,,,,,,,,,,,,,,,,,,,,,,,,,,,,,,,,,,,125,colom,Catalan,Sounds/cat_colom.mp3,2020-06-08_22h32.00.458,TranslationElicitation_spa,3.2.4,Win32,60,5ede1449d426ce02a290fe0a,,1,0,80,20,1,79
,,,,,,,,,,,,,,,,,,,,,,,,,,,,,,,,,,,p,2.032999992,P,FALSE,,,,,,,173,porc,Catalan,Sounds/cat_porc.mp3,2020-06-08_22h32.00.458,TranslationElicitation_spa,3.2.4,Win32,60,5ede1449d426ce02a290fe0a,,1,0,80,65,1,79
,,,,,,,,,,,,,,,,,,,,,,,,,,,,,,,,,,,a,2.161999941,PA,FALSE,,,,,,,173,porc,Catalan,Sounds/cat_porc.mp3,2020-06-08_22h32.00.458,TranslationElicitation_spa,3.2.4,Win32,60,5ede1449d426ce02a290fe0a,,1,0,80,65,1,79
,,,,,,,,,,,,,,,,,,,,,,,,,,,,,,,,,,,r,2.61500001,PAR,FALSE,,,,,,,173,porc,Catalan,Sounds/cat_porc.mp3,2020-06-08_22h32.00.458,TranslationElicitation_spa,3.2.4,Win32,60,5ede1449d426ce02a290fe0a,,1,0,80,65,1,79
,,,,,,,,,,,,,,,,,,,,,,,,,,,,,,,,,,,q,2.832999945,PARQ,FALSE,,,,,,,173,porc,Catalan,Sounds/cat_porc.mp3,2020-06-08_22h32.00.458,TranslationElicitation_spa,3.2.4,Win32,60,5ede1449d426ce02a290fe0a,,1,0,80,65,1,79
,,,,,,,,,,,,,,,,,,,,,,,,,,,,,,,,,,,u,2.94900012,PARQU,FALSE,,,,,,,173,porc,Catalan,Sounds/cat_porc.mp3,2020-06-08_22h32.00.458,TranslationElicitation_spa,3.2.4,Win32,60,5ede1449d426ce02a290fe0a,,1,0,80,65,1,79
,,,,,,,,,,,,,,,,,,,,,,,,,,,,,,,,,,,e,3.019000053,PARQUE,FALSE,,,,,,,173,porc,Catalan,Sounds/cat_porc.mp3,2020-06-08_22h32.00.458,TranslationElicitation_spa,3.2.4,Win32,60,5ede1449d426ce02a290fe0a,,1,0,80,65,1,79
,,,,,,,,,,,,,,,,,,,,,,,,,,,,,,,,,,,return,3.309000015,,FALSE,,,,,,,173,porc,Catalan,Sounds/cat_porc.mp3,2020-06-08_22h32.00.458,TranslationElicitation_spa,3.2.4,Win32,60,5ede1449d426ce02a290fe0a,3.309000015,1,0,80,65,1,79
,,,,,,,,,,,,,,,,,,,,,,,,,,,,,,,,,,,,,,,,,,,,,173,porc,Catalan,Sounds/cat_porc.mp3,2020-06-08_22h32.00.458,TranslationElicitation_spa,3.2.4,Win32,60,5ede1449d426ce02a290fe0a,,1,0,80,65,1,79
,,,,,,,,,,,,,,,,,,,,,,,,,,,,,,,,,,,e,5.730000019,E,FALSE,,,,,,,130,entrepa,Catalan,Sounds/cat_entrepa.mp3,2020-06-08_22h32.00.458,TranslationElicitation_spa,3.2.4,Win32,60,5ede1449d426ce02a290fe0a,,1,0,80,25,1,79
,,,,,,,,,,,,,,,,,,,,,,,,,,,,,,,,,,,n,5.845999956,EN,FALSE,,,,,,,130,entrepa,Catalan,Sounds/cat_entrepa.mp3,2020-06-08_22h32.00.458,TranslationElicitation_spa,3.2.4,Win32,60,5ede1449d426ce02a290fe0a,,1,0,80,25,1,79
,,,,,,,,,,,,,,,,,,,,,,,,,,,,,,,,,,,t,5.914999962,ENT,FALSE,,,,,,,130,entrepa,Catalan,Sounds/cat_entrepa.mp3,2020-06-08_22h32.00.458,TranslationElicitation_spa,3.2.4,Win32,60,5ede1449d426ce02a290fe0a,,1,0,80,25,1,79
,,,,,,,,,,,,,,,,,,,,,,,,,,,,,,,,,,,r,6.078999996,ENTR,FALSE,,,,,,,130,entrepa,Catalan,Sounds/cat_entrepa.mp3,2020-06-08_22h32.00.458,TranslationElicitation_spa,3.2.4,Win32,60,5ede1449d426ce02a290fe0a,,1,0,80,25,1,79
,,,,,,,,,,,,,,,,,,,,,,,,,,,,,,,,,,,a,6.26699996,ENTRA,FALSE,,,,,,,130,entrepa,Catalan,Sounds/cat_entrepa.mp3,2020-06-08_22h32.00.458,TranslationElicitation_spa,3.2.4,Win32,60,5ede1449d426ce02a290fe0a,,1,0,80,25,1,79
,,,,,,,,,,,,,,,,,,,,,,,,,,,,,,,,,,,r,6.462999821,ENTRAR,FALSE,,,,,,,130,entrepa,Catalan,Sounds/cat_entrepa.mp3,2020-06-08_22h32.00.458,TranslationElicitation_spa,3.2.4,Win32,60,5ede1449d426ce02a290fe0a,,1,0,80,25,1,79
,,,,,,,,,,,,,,,,,,,,,,,,,,,,,,,,,,,return,6.638000011,,FALSE,,,,,,,130,entrepa,Catalan,Sounds/cat_entrepa.mp3,2020-06-08_22h32.00.458,TranslationElicitation_spa,3.2.4,Win32,60,5ede1449d426ce02a290fe0a,6.638000011,1,0,80,25,1,79
,,,,,,,,,,,,,,,,,,,,,,,,,,,,,,,,,,,,,,,,,,,,,130,entrepa,Catalan,Sounds/cat_entrepa.mp3,2020-06-08_22h32.00.458,TranslationElicitation_spa,3.2.4,Win32,60,5ede1449d426ce02a290fe0a,,1,0,80,25,1,79
,,,,,,,,,,,,,,,,,,,,,,,,,,,,,,,,,,,v,3.815000057,V,FALSE,,,,,,,115,bolet,Catalan,Sounds/cat_bolet.mp3,2020-06-08_22h32.00.458,TranslationElicitation_spa,3.2.4,Win32,60,5ede1449d426ce02a290fe0a,,1,0,80,10,1,79
,,,,,,,,,,,,,,,,,,,,,,,,,,,,,,,,,,,u,3.9150002,VU,FALSE,,,,,,,115,bolet,Catalan,Sounds/cat_bolet.mp3,2020-06-08_22h32.00.458,TranslationElicitation_spa,3.2.4,Win32,60,5ede1449d426ce02a290fe0a,,1,0,80,10,1,79
,,,,,,,,,,,,,,,,,,,,,,,,,,,,,,,,,,,e,4.049000025,VUE,FALSE,,,,,,,115,bolet,Catalan,Sounds/cat_bolet.mp3,2020-06-08_22h32.00.458,TranslationElicitation_spa,3.2.4,Win32,60,5ede1449d426ce02a290fe0a,,1,0,80,10,1,79
,,,,,,,,,,,,,,,,,,,,,,,,,,,,,,,,,,,l,4.18200016,VUEL,FALSE,,,,,,,115,bolet,Catalan,Sounds/cat_bolet.mp3,2020-06-08_22h32.00.458,TranslationElicitation_spa,3.2.4,Win32,60,5ede1449d426ce02a290fe0a,,1,0,80,10,1,79
,,,,,,,,,,,,,,,,,,,,,,,,,,,,,,,,,,,o,4.48300004,VUELO,FALSE,,,,,,,115,bolet,Catalan,Sounds/cat_bolet.mp3,2020-06-08_22h32.00.458,TranslationElicitation_spa,3.2.4,Win32,60,5ede1449d426ce02a290fe0a,,1,0,80,10,1,79
,,,,,,,,,,,,,,,,,,,,,,,,,,,,,,,,,,,return,4.731000185,,FALSE,,,,,,,115,bolet,Catalan,Sounds/cat_bolet.mp3,2020-06-08_22h32.00.458,TranslationElicitation_spa,3.2.4,Win32,60,5ede1449d426ce02a290fe0a,4.731000185,1,0,80,10,1,79
,,,,,,,,,,,,,,,,,,,,,,,,,,,,,,,,,,,,,,,,,,,,,115,bolet,Catalan,Sounds/cat_bolet.mp3,2020-06-08_22h32.00.458,TranslationElicitation_spa,3.2.4,Win32,60,5ede1449d426ce02a290fe0a,,1,0,80,10,1,79
,,,,,,,,,,,,,,,,,,,,,,,,,,,,,,,,,,,t,1.697999954,T,FALSE,,,,,,,181,tobogan,Catalan,Sounds/cat_tobogan.mp3,2020-06-08_22h32.00.458,TranslationElicitation_spa,3.2.4,Win32,60,5ede1449d426ce02a290fe0a,,1,0,80,72,1,79
,,,,,,,,,,,,,,,,,,,,,,,,,,,,,,,,,,,o,1.813999891,TO,FALSE,,,,,,,181,tobogan,Catalan,Sounds/cat_tobogan.mp3,2020-06-08_22h32.00.458,TranslationElicitation_spa,3.2.4,Win32,60,5ede1449d426ce02a290fe0a,,1,0,80,72,1,79
,,,,,,,,,,,,,,,,,,,,,,,,,,,,,,,,,,,b,1.930999994,TOB,FALSE,,,,,,,181,tobogan,Catalan,Sounds/cat_tobogan.mp3,2020-06-08_22h32.00.458,TranslationElicitation_spa,3.2.4,Win32,60,5ede1449d426ce02a290fe0a,,1,0,80,72,1,79
,,,,,,,,,,,,,,,,,,,,,,,,,,,,,,,,,,,o,2.030999899,TOBO,FALSE,,,,,,,181,tobogan,Catalan,Sounds/cat_tobogan.mp3,2020-06-08_22h32.00.458,TranslationElicitation_spa,3.2.4,Win32,60,5ede1449d426ce02a290fe0a,,1,0,80,72,1,79
,,,,,,,,,,,,,,,,,,,,,,,,,,,,,,,,,,,g,3.346999884,TOBOG,FALSE,,,,,,,181,tobogan,Catalan,Sounds/cat_tobogan.mp3,2020-06-08_22h32.00.458,TranslationElicitation_spa,3.2.4,Win32,60,5ede1449d426ce02a290fe0a,,1,0,80,72,1,79
,,,,,,,,,,,,,,,,,,,,,,,,,,,,,,,,,,,apostrophe,3.98300004,TOBOG,FALSE,,,,,,,181,tobogan,Catalan,Sounds/cat_tobogan.mp3,2020-06-08_22h32.00.458,TranslationElicitation_spa,3.2.4,Win32,60,5ede1449d426ce02a290fe0a,,1,0,80,72,1,79
,,,,,,,,,,,,,,,,,,,,,,,,,,,,,,,,,,,a,4.131999969,TOBOGÁ,FALSE,,,,,,,181,tobogan,Catalan,Sounds/cat_tobogan.mp3,2020-06-08_22h32.00.458,TranslationElicitation_spa,3.2.4,Win32,60,5ede1449d426ce02a290fe0a,,1,0,80,72,1,79
,,,,,,,,,,,,,,,,,,,,,,,,,,,,,,,,,,,n,4.265000105,TOBOGÁN,FALSE,,,,,,,181,tobogan,Catalan,Sounds/cat_tobogan.mp3,2020-06-08_22h32.00.458,TranslationElicitation_spa,3.2.4,Win32,60,5ede1449d426ce02a290fe0a,,1,0,80,72,1,79
,,,,,,,,,,,,,,,,,,,,,,,,,,,,,,,,,,,return,4.647000074,,FALSE,,,,,,,181,tobogan,Catalan,Sounds/cat_tobogan.mp3,2020-06-08_22h32.00.458,TranslationElicitation_spa,3.2.4,Win32,60,5ede1449d426ce02a290fe0a,4.647000074,1,0,80,72,1,79
,,,,,,,,,,,,,,,,,,,,,,,,,,,,,,,,,,,,,,,,,,,,,181,tobogan,Catalan,Sounds/cat_tobogan.mp3,2020-06-08_22h32.00.458,TranslationElicitation_spa,3.2.4,Win32,60,5ede1449d426ce02a290fe0a,,1,0,80,72,1,79
,,,,,,,,,,,,,,,,,,,,,,,,,,,,,,,,,,,p,2.013999939,P,FALSE,,,,,,,166,peu,Catalan,Sounds/cat_peu.mp3,2020-06-08_22h32.00.458,TranslationElicitation_spa,3.2.4,Win32,60,5ede1449d426ce02a290fe0a,,1,0,80,59,1,79
,,,,,,,,,,,,,,,,,,,,,,,,,,,,,,,,,,,e,2.131000042,PE,FALSE,,,,,,,166,peu,Catalan,Sounds/cat_peu.mp3,2020-06-08_22h32.00.458,TranslationElicitation_spa,3.2.4,Win32,60,5ede1449d426ce02a290fe0a,,1,0,80,59,1,79
,,,,,,,,,,,,,,,,,,,,,,,,,,,,,,,,,,,r,2.296999931,PER,FALSE,,,,,,,166,peu,Catalan,Sounds/cat_peu.mp3,2020-06-08_22h32.00.458,TranslationElicitation_spa,3.2.4,Win32,60,5ede1449d426ce02a290fe0a,,1,0,80,59,1,79
,,,,,,,,,,,,,,,,,,,,,,,,,,,,,,,,,,,r,2.467000008,PERR,FALSE,,,,,,,166,peu,Catalan,Sounds/cat_peu.mp3,2020-06-08_22h32.00.458,TranslationElicitation_spa,3.2.4,Win32,60,5ede1449d426ce02a290fe0a,,1,0,80,59,1,79
,,,,,,,,,,,,,,,,,,,,,,,,,,,,,,,,,,,o,2.55099988,PERRO,FALSE,,,,,,,166,peu,Catalan,Sounds/cat_peu.mp3,2020-06-08_22h32.00.458,TranslationElicitation_spa,3.2.4,Win32,60,5ede1449d426ce02a290fe0a,,1,0,80,59,1,79
,,,,,,,,,,,,,,,,,,,,,,,,,,,,,,,,,,,return,2.798000097,,FALSE,,,,,,,166,peu,Catalan,Sounds/cat_peu.mp3,2020-06-08_22h32.00.458,TranslationElicitation_spa,3.2.4,Win32,60,5ede1449d426ce02a290fe0a,2.798000097,1,0,80,59,1,79
,,,,,,,,,,,,,,,,,,,,,,,,,,,,,,,,,,,,,,,,,,,,,166,peu,Catalan,Sounds/cat_peu.mp3,2020-06-08_22h32.00.458,TranslationElicitation_spa,3.2.4,Win32,60,5ede1449d426ce02a290fe0a,,1,0,80,59,1,79
,,,,,,,,,,,,,,,,,,,,,,,,,,,,,,,,,,,v,4.463000059,V,FALSE,,,,,,,116,bolquer,Catalan,Sounds/cat_bolquer.mp3,2020-06-08_22h32.00.458,TranslationElicitation_spa,3.2.4,Win32,60,5ede1449d426ce02a290fe0a,,1,0,80,11,1,79
,,,,,,,,,,,,,,,,,,,,,,,,,,,,,,,,,,,o,4.53000021,VO,FALSE,,,,,,,116,bolquer,Catalan,Sounds/cat_bolquer.mp3,2020-06-08_22h32.00.458,TranslationElicitation_spa,3.2.4,Win32,60,5ede1449d426ce02a290fe0a,,1,0,80,11,1,79
,,,,,,,,,,,,,,,,,,,,,,,,,,,,,,,,,,,l,4.713000059,VOL,FALSE,,,,,,,116,bolquer,Catalan,Sounds/cat_bolquer.mp3,2020-06-08_22h32.00.458,TranslationElicitation_spa,3.2.4,Win32,60,5ede1449d426ce02a290fe0a,,1,0,80,11,1,79
,,,,,,,,,,,,,,,,,,,,,,,,,,,,,,,,,,,c,4.830000162,VOLC,FALSE,,,,,,,116,bolquer,Catalan,Sounds/cat_bolquer.mp3,2020-06-08_22h32.00.458,TranslationElicitation_spa,3.2.4,Win32,60,5ede1449d426ce02a290fe0a,,1,0,80,11,1,79
,,,,,,,,,,,,,,,,,,,,,,,,,,,,,,,,,,,a,5.013000011,VOLCA,FALSE,,,,,,,116,bolquer,Catalan,Sounds/cat_bolquer.mp3,2020-06-08_22h32.00.458,TranslationElicitation_spa,3.2.4,Win32,60,5ede1449d426ce02a290fe0a,,1,0,80,11,1,79
,,,,,,,,,,,,,,,,,,,,,,,,,,,,,,,,,,,r,5.212000132,VOLCAR,FALSE,,,,,,,116,bolquer,Catalan,Sounds/cat_bolquer.mp3,2020-06-08_22h32.00.458,TranslationElicitation_spa,3.2.4,Win32,60,5ede1449d426ce02a290fe0a,,1,0,80,11,1,79
,,,,,,,,,,,,,,,,,,,,,,,,,,,,,,,,,,,return,5.395000219,,FALSE,,,,,,,116,bolquer,Catalan,Sounds/cat_bolquer.mp3,2020-06-08_22h32.00.458,TranslationElicitation_spa,3.2.4,Win32,60,5ede1449d426ce02a290fe0a,5.395000219,1,0,80,11,1,79
,,,,,,,,,,,,,,,,,,,,,,,,,,,,,,,,,,,,,,,,,,,,,116,bolquer,Catalan,Sounds/cat_bolquer.mp3,2020-06-08_22h32.00.458,TranslationElicitation_spa,3.2.4,Win32,60,5ede1449d426ce02a290fe0a,,1,0,80,11,1,79
,,,,,,,,,,,,,,,,,,,,,,,,,,,,,,,,,,,g,1.715999842,G,FALSE,,,,,,,144,gorra,Catalan,Sounds/cat_gorra.mp3,2020-06-08_22h32.00.458,TranslationElicitation_spa,3.2.4,Win32,60,5ede1449d426ce02a290fe0a,,1,0,80,39,1,79
,,,,,,,,,,,,,,,,,,,,,,,,,,,,,,,,,,,o,1.798999786,GO,FALSE,,,,,,,144,gorra,Catalan,Sounds/cat_gorra.mp3,2020-06-08_22h32.00.458,TranslationElicitation_spa,3.2.4,Win32,60,5ede1449d426ce02a290fe0a,,1,0,80,39,1,79
,,,,,,,,,,,,,,,,,,,,,,,,,,,,,,,,,,,r,1.914999962,GOR,FALSE,,,,,,,144,gorra,Catalan,Sounds/cat_gorra.mp3,2020-06-08_22h32.00.458,TranslationElicitation_spa,3.2.4,Win32,60,5ede1449d426ce02a290fe0a,,1,0,80,39,1,79
,,,,,,,,,,,,,,,,,,,,,,,,,,,,,,,,,,,r,2.05099988,GORR,FALSE,,,,,,,144,gorra,Catalan,Sounds/cat_gorra.mp3,2020-06-08_22h32.00.458,TranslationElicitation_spa,3.2.4,Win32,60,5ede1449d426ce02a290fe0a,,1,0,80,39,1,79
,,,,,,,,,,,,,,,,,,,,,,,,,,,,,,,,,,,a,2.315999985,GORRA,FALSE,,,,,,,144,gorra,Catalan,Sounds/cat_gorra.mp3,2020-06-08_22h32.00.458,TranslationElicitation_spa,3.2.4,Win32,60,5ede1449d426ce02a290fe0a,,1,0,80,39,1,79
,,,,,,,,,,,,,,,,,,,,,,,,,,,,,,,,,,,return,2.664999962,,FALSE,,,,,,,144,gorra,Catalan,Sounds/cat_gorra.mp3,2020-06-08_22h32.00.458,TranslationElicitation_spa,3.2.4,Win32,60,5ede1449d426ce02a290fe0a,2.664999962,1,0,80,39,1,79
,,,,,,,,,,,,,,,,,,,,,,,,,,,,,,,,,,,,,,,,,,,,,144,gorra,Catalan,Sounds/cat_gorra.mp3,2020-06-08_22h32.00.458,TranslationElicitation_spa,3.2.4,Win32,60,5ede1449d426ce02a290fe0a,,1,0,80,39,1,79
,,,,,,,,,,,,,,,,,,,,,,,,,,,,,,,,,,,a,1.94900012,A,FALSE,,,,,,,141,gerd,Catalan,Sounds/cat_gerd.mp3,2020-06-08_22h32.00.458,TranslationElicitation_spa,3.2.4,Win32,60,5ede1449d426ce02a290fe0a,,1,0,80,36,1,79
,,,,,,,,,,,,,,,,,,,,,,,,,,,,,,,,,,,y,2.032999992,AY,FALSE,,,,,,,141,gerd,Catalan,Sounds/cat_gerd.mp3,2020-06-08_22h32.00.458,TranslationElicitation_spa,3.2.4,Win32,60,5ede1449d426ce02a290fe0a,,1,0,80,36,1,79
,,,,,,,,,,,,,,,,,,,,,,,,,,,,,,,,,,,e,2.148000002,AYE,FALSE,,,,,,,141,gerd,Catalan,Sounds/cat_gerd.mp3,2020-06-08_22h32.00.458,TranslationElicitation_spa,3.2.4,Win32,60,5ede1449d426ce02a290fe0a,,1,0,80,36,1,79
,,,,,,,,,,,,,,,,,,,,,,,,,,,,,,,,,,,r,2.299000025,AYER,FALSE,,,,,,,141,gerd,Catalan,Sounds/cat_gerd.mp3,2020-06-08_22h32.00.458,TranslationElicitation_spa,3.2.4,Win32,60,5ede1449d426ce02a290fe0a,,1,0,80,36,1,79
,,,,,,,,,,,,,,,,,,,,,,,,,,,,,,,,,,,return,2.800000191,,FALSE,,,,,,,141,gerd,Catalan,Sounds/cat_gerd.mp3,2020-06-08_22h32.00.458,TranslationElicitation_spa,3.2.4,Win32,60,5ede1449d426ce02a290fe0a,2.800000191,1,0,80,36,1,79
,,,,,,,,,,,,,,,,,,,,,,,,,,,,,,,,,,,,,,,,,,,,,141,gerd,Catalan,Sounds/cat_gerd.mp3,2020-06-08_22h32.00.458,TranslationElicitation_spa,3.2.4,Win32,60,5ede1449d426ce02a290fe0a,,1,0,80,36,1,79
,,,,,,,,,,,,,,,,,,,,,,,,,,,,,,,,,,,p,1.512999773,P,FALSE,,,,,,,174,porta,Catalan,Sounds/cat_porta.mp3,2020-06-08_22h32.00.458,TranslationElicitation_spa,3.2.4,Win32,60,5ede1449d426ce02a290fe0a,,1,0,80,66,1,79
,,,,,,,,,,,,,,,,,,,,,,,,,,,,,,,,,,,u,1.762999773,PU,FALSE,,,,,,,174,porta,Catalan,Sounds/cat_porta.mp3,2020-06-08_22h32.00.458,TranslationElicitation_spa,3.2.4,Win32,60,5ede1449d426ce02a290fe0a,,1,0,80,66,1,79
,,,,,,,,,,,,,,,,,,,,,,,,,,,,,,,,,,,e,1.829999924,PUE,FALSE,,,,,,,174,porta,Catalan,Sounds/cat_porta.mp3,2020-06-08_22h32.00.458,TranslationElicitation_spa,3.2.4,Win32,60,5ede1449d426ce02a290fe0a,,1,0,80,66,1,79
,,,,,,,,,,,,,,,,,,,,,,,,,,,,,,,,,,,r,1.995999813,PUER,FALSE,,,,,,,174,porta,Catalan,Sounds/cat_porta.mp3,2020-06-08_22h32.00.458,TranslationElicitation_spa,3.2.4,Win32,60,5ede1449d426ce02a290fe0a,,1,0,80,66,1,79
,,,,,,,,,,,,,,,,,,,,,,,,,,,,,,,,,,,t,2.179999828,PUERT,FALSE,,,,,,,174,porta,Catalan,Sounds/cat_porta.mp3,2020-06-08_22h32.00.458,TranslationElicitation_spa,3.2.4,Win32,60,5ede1449d426ce02a290fe0a,,1,0,80,66,1,79
,,,,,,,,,,,,,,,,,,,,,,,,,,,,,,,,,,,a,2.429999828,PUERTA,FALSE,,,,,,,174,porta,Catalan,Sounds/cat_porta.mp3,2020-06-08_22h32.00.458,TranslationElicitation_spa,3.2.4,Win32,60,5ede1449d426ce02a290fe0a,,1,0,80,66,1,79
,,,,,,,,,,,,,,,,,,,,,,,,,,,,,,,,,,,return,2.679999828,,FALSE,,,,,,,174,porta,Catalan,Sounds/cat_porta.mp3,2020-06-08_22h32.00.458,TranslationElicitation_spa,3.2.4,Win32,60,5ede1449d426ce02a290fe0a,2.679999828,1,0,80,66,1,79
,,,,,,,,,,,,,,,,,,,,,,,,,,,,,,,,,,,,,,,,,,,,,174,porta,Catalan,Sounds/cat_porta.mp3,2020-06-08_22h32.00.458,TranslationElicitation_spa,3.2.4,Win32,60,5ede1449d426ce02a290fe0a,,1,0,80,66,1,79
,,,,,,,,,,,,,,,,,,,,,,,,,,,,,,,,,,,g,1.963000059,G,FALSE,,,,,,,143,globus,Catalan,Sounds/cat_globus.mp3,2020-06-08_22h32.00.458,TranslationElicitation_spa,3.2.4,Win32,60,5ede1449d426ce02a290fe0a,,1,0,80,38,1,79
,,,,,,,,,,,,,,,,,,,,,,,,,,,,,,,,,,,o,2.062999964,GO,FALSE,,,,,,,143,globus,Catalan,Sounds/cat_globus.mp3,2020-06-08_22h32.00.458,TranslationElicitation_spa,3.2.4,Win32,60,5ede1449d426ce02a290fe0a,,1,0,80,38,1,79
,,,,,,,,,,,,,,,,,,,,,,,,,,,,,,,,,,,b,2.163000107,GOB,FALSE,,,,,,,143,globus,Catalan,Sounds/cat_globus.mp3,2020-06-08_22h32.00.458,TranslationElicitation_spa,3.2.4,Win32,60,5ede1449d426ce02a290fe0a,,1,0,80,38,1,79
,,,,,,,,,,,,,,,,,,,,,,,,,,,,,,,,,,,l,2.279999971,GOBL,FALSE,,,,,,,143,globus,Catalan,Sounds/cat_globus.mp3,2020-06-08_22h32.00.458,TranslationElicitation_spa,3.2.4,Win32,60,5ede1449d426ce02a290fe0a,,1,0,80,38,1,79
,,,,,,,,,,,,,,,,,,,,,,,,,,,,,,,,,,,o,2.398000002,GOBLO,FALSE,,,,,,,143,globus,Catalan,Sounds/cat_globus.mp3,2020-06-08_22h32.00.458,TranslationElicitation_spa,3.2.4,Win32,60,5ede1449d426ce02a290fe0a,,1,0,80,38,1,79
,,,,,,,,,,,,,,,,,,,,,,,,,,,,,,,,,,,s,2.916000128,GOBLOS,FALSE,,,,,,,143,globus,Catalan,Sounds/cat_globus.mp3,2020-06-08_22h32.00.458,TranslationElicitation_spa,3.2.4,Win32,60,5ede1449d426ce02a290fe0a,,1,0,80,38,1,79
,,,,,,,,,,,,,,,,,,,,,,,,,,,,,,,,,,,return,3.897000074,,FALSE,,,,,,,143,globus,Catalan,Sounds/cat_globus.mp3,2020-06-08_22h32.00.458,TranslationElicitation_spa,3.2.4,Win32,60,5ede1449d426ce02a290fe0a,3.897000074,1,0,80,38,1,79
,,,,,,,,,,,,,,,,,,,,,,,,,,,,,,,,,,,,,,,,,,,,,143,globus,Catalan,Sounds/cat_globus.mp3,2020-06-08_22h32.00.458,TranslationElicitation_spa,3.2.4,Win32,60,5ede1449d426ce02a290fe0a,,1,0,80,38,1,79
,,,,,,,,,,,,,,,,,,,,,,,,,,,,,,,,,,,a,2.860000134,A,FALSE,,,,,,,105,aigua,Catalan,Sounds/cat_aigua.mp3,2020-06-08_22h32.00.458,TranslationElicitation_spa,3.2.4,Win32,60,5ede1449d426ce02a290fe0a,,1,0,80,1,1,79
,,,,,,,,,,,,,,,,,,,,,,,,,,,,,,,,,,,g,3.059000015,AG,FALSE,,,,,,,105,aigua,Catalan,Sounds/cat_aigua.mp3,2020-06-08_22h32.00.458,TranslationElicitation_spa,3.2.4,Win32,60,5ede1449d426ce02a290fe0a,,1,0,80,1,1,79
,,,,,,,,,,,,,,,,,,,,,,,,,,,,,,,,,,,u,3.159000158,AGU,FALSE,,,,,,,105,aigua,Catalan,Sounds/cat_aigua.mp3,2020-06-08_22h32.00.458,TranslationElicitation_spa,3.2.4,Win32,60,5ede1449d426ce02a290fe0a,,1,0,80,1,1,79
,,,,,,,,,,,,,,,,,,,,,,,,,,,,,,,,,,,a,3.279999971,AGUA,FALSE,,,,,,,105,aigua,Catalan,Sounds/cat_aigua.mp3,2020-06-08_22h32.00.458,TranslationElicitation_spa,3.2.4,Win32,60,5ede1449d426ce02a290fe0a,,1,0,80,1,1,79
,,,,,,,,,,,,,,,,,,,,,,,,,,,,,,,,,,,return,3.595000029,,FALSE,,,,,,,105,aigua,Catalan,Sounds/cat_aigua.mp3,2020-06-08_22h32.00.458,TranslationElicitation_spa,3.2.4,Win32,60,5ede1449d426ce02a290fe0a,3.595000029,1,0,80,1,1,79
,,,,,,,,,,,,,,,,,,,,,,,,,,,,,,,,,,,,,,,,,,,,,105,aigua,Catalan,Sounds/cat_aigua.mp3,2020-06-08_22h32.00.458,TranslationElicitation_spa,3.2.4,Win32,60,5ede1449d426ce02a290fe0a,,1,0,80,1,1,79
,,,,,,,,,,,,,,,,,,,,,,,,,,,,,,,,,,,p,1.627999783,P,FALSE,,,,,,,168,planta,Catalan,Sounds/cat_planta.mp3,2020-06-08_22h32.00.458,TranslationElicitation_spa,3.2.4,Win32,60,5ede1449d426ce02a290fe0a,,1,0,80,60,1,79
,,,,,,,,,,,,,,,,,,,,,,,,,,,,,,,,,,,l,1.84499979,PL,FALSE,,,,,,,168,planta,Catalan,Sounds/cat_planta.mp3,2020-06-08_22h32.00.458,TranslationElicitation_spa,3.2.4,Win32,60,5ede1449d426ce02a290fe0a,,1,0,80,60,1,79
,,,,,,,,,,,,,,,,,,,,,,,,,,,,,,,,,,,a,1.951999903,PLA,FALSE,,,,,,,168,planta,Catalan,Sounds/cat_planta.mp3,2020-06-08_22h32.00.458,TranslationElicitation_spa,3.2.4,Win32,60,5ede1449d426ce02a290fe0a,,1,0,80,60,1,79
,,,,,,,,,,,,,,,,,,,,,,,,,,,,,,,,,,,n,2.080999851,PLAN,FALSE,,,,,,,168,planta,Catalan,Sounds/cat_planta.mp3,2020-06-08_22h32.00.458,TranslationElicitation_spa,3.2.4,Win32,60,5ede1449d426ce02a290fe0a,,1,0,80,60,1,79
,,,,,,,,,,,,,,,,,,,,,,,,,,,,,,,,,,,t,2.178999901,PLANT,FALSE,,,,,,,168,planta,Catalan,Sounds/cat_planta.mp3,2020-06-08_22h32.00.458,TranslationElicitation_spa,3.2.4,Win32,60,5ede1449d426ce02a290fe0a,,1,0,80,60,1,79
,,,,,,,,,,,,,,,,,,,,,,,,,,,,,,,,,,,a,2.444999933,PLANTA,FALSE,,,,,,,168,planta,Catalan,Sounds/cat_planta.mp3,2020-06-08_22h32.00.458,TranslationElicitation_spa,3.2.4,Win32,60,5ede1449d426ce02a290fe0a,,1,0,80,60,1,79
,,,,,,,,,,,,,,,,,,,,,,,,,,,,,,,,,,,return,2.694999933,,FALSE,,,,,,,168,planta,Catalan,Sounds/cat_planta.mp3,2020-06-08_22h32.00.458,TranslationElicitation_spa,3.2.4,Win32,60,5ede1449d426ce02a290fe0a,2.694999933,1,0,80,60,1,79
