consentKey.keys,consentKey.rt,languageL1Key.keys,languageL1Key.rt,languageL2,languageL2OralKey.keys,languageL2OralKey.rt,languageL2WrittenKey.keys,languageL2WrittenKey.rt,languageL3OralKey.keys,languageL3OralKey.rt,languageL3WrittenKey.keys,languageL3WrittenKey.rt,languageCatalanOralKey.keys,languageCatalanOralKey.rt,languageCatalanWrittenKey.keys,languageCatalanWrittenKey.rt,languageCatalanTimeKey.keys,languageCatalanTimeKey.rt,age,demoSexKey.keys,demoSexKey.rt,demoEducationKey.keys,demoEducationKey.rt,city,demoVisionKey.keys,demoVisionKey.rt,demoLanguageKey.keys,demoLanguageKey.rt,setupLocationKey.keys,setupLocationKey.rt,setupNoiseKey.keys,setupNoiseKey.rt,instructionsKeys.keys,instructionsKeys.rt,keyPressed,keyPressTime,inputText,error,trials_practice.thisRepN,trials_practice.thisTrialN,trials_practice.thisN,trials_practice.thisIndex,trials_practice.ran,trials_practice.order,trial_id,word,test_language,soundfile,date,expName,psychopyVersion,OS,frameRate,participant,trialOffset,trials.thisRepN,trials.thisTrialN,trials.thisN,trials.thisIndex,trials.ran,trials.order
space,3.564999819,e,6.414000034,,4,10.34899998,4,10.40400004,,,,,2,4.309999943,1,3.012999773,1,5.681999922,25,m,2.037999868,4,3.288999796,MURCIA,s,3.476000071,n,1.933000088,1,2.58100009,2,4.485999823,space,13.26499987,space,6.446000099, ,FALSE,1,0,5,4,1,4,179,tigre,Catalan,Sounds/cat_tigre.mp3,2020-06-08_18h35.31.652,TranslationElicitation_spa,3.2.4,Win32,60,5ede16d21b8bce022ee5dd32,,,,,,,
,,,,,,,,,,,,,,,,,,,,,,,,,,,,,,,,,,,return,9.095000029,,FALSE,1,0,5,4,1,4,179,tigre,Catalan,Sounds/cat_tigre.mp3,2020-06-08_18h35.31.652,TranslationElicitation_spa,3.2.4,Win32,60,5ede16d21b8bce022ee5dd32,9.095000029,,,,,,
,,,,,,,,,,,,,,,,,,,,,,,,,,,,,,,,,,,,,,,1,0,5,4,1,4,179,tigre,Catalan,Sounds/cat_tigre.mp3,2020-06-08_18h35.31.652,TranslationElicitation_spa,3.2.4,Win32,60,5ede16d21b8bce022ee5dd32,,,,,,,
,,,,,,,,,,,,,,,,,,,,,,,,,,,,,,,,,,,return,1.848999977,,FALSE,1,0,5,1,1,4,147,jaqueta,Catalan,Sounds/cat_jaqueta.mp3,2020-06-08_18h35.31.652,TranslationElicitation_spa,3.2.4,Win32,60,5ede16d21b8bce022ee5dd32,1.848999977,,,,,,
,,,,,,,,,,,,,,,,,,,,,,,,,,,,,,,,,,,,,,,1,0,5,1,1,4,147,jaqueta,Catalan,Sounds/cat_jaqueta.mp3,2020-06-08_18h35.31.652,TranslationElicitation_spa,3.2.4,Win32,60,5ede16d21b8bce022ee5dd32,,,,,,,
,,,,,,,,,,,,,,,,,,,,,,,,,,,,,,,,,,,return,1.697999954,,FALSE,1,0,5,0,1,4,109,arbre,Catalan,Sounds/cat_arbre.mp3,2020-06-08_18h35.31.652,TranslationElicitation_spa,3.2.4,Win32,60,5ede16d21b8bce022ee5dd32,1.697999954,,,,,,
,,,,,,,,,,,,,,,,,,,,,,,,,,,,,,,,,,,,,,,1,0,5,0,1,4,109,arbre,Catalan,Sounds/cat_arbre.mp3,2020-06-08_18h35.31.652,TranslationElicitation_spa,3.2.4,Win32,60,5ede16d21b8bce022ee5dd32,,,,,,,
,,,,,,,,,,,,,,,,,,,,,,,,,,,,,,,,,,,return,1.414000034,,FALSE,1,0,5,2,1,4,159,onada,Catalan,Sounds/cat_onada.mp3,2020-06-08_18h35.31.652,TranslationElicitation_spa,3.2.4,Win32,60,5ede16d21b8bce022ee5dd32,1.414000034,,,,,,
,,,,,,,,,,,,,,,,,,,,,,,,,,,,,,,,,,,,,,,1,0,5,2,1,4,159,onada,Catalan,Sounds/cat_onada.mp3,2020-06-08_18h35.31.652,TranslationElicitation_spa,3.2.4,Win32,60,5ede16d21b8bce022ee5dd32,,,,,,,
,,,,,,,,,,,,,,,,,,,,,,,,,,,,,,,,,,,return,1.999000072,,FALSE,1,0,5,3,1,4,167,pingui,Catalan,Sounds/cat_pingui.mp3,2020-06-08_18h35.31.652,TranslationElicitation_spa,3.2.4,Win32,60,5ede16d21b8bce022ee5dd32,1.999000072,,,,,,
,,,,,,,,,,,,,,,,,,,,,,,,,,,,,,,,,,,,,,,1,0,5,3,1,4,167,pingui,Catalan,Sounds/cat_pingui.mp3,2020-06-08_18h35.31.652,TranslationElicitation_spa,3.2.4,Win32,60,5ede16d21b8bce022ee5dd32,,,,,,,
,,,,,,,,,,,,,,,,,,,,,,,,,,,,,,,,,,,g,2.814999819,G,FALSE,,,,,,,184,ull,Catalan,Sounds/cat_ull.mp3,2020-06-08_18h35.31.652,TranslationElicitation_spa,3.2.4,Win32,60,5ede16d21b8bce022ee5dd32,,1,0,80,75,1,79
,,,,,,,,,,,,,,,,,,,,,,,,,,,,,,,,,,,o,2.898000002,GO,FALSE,,,,,,,184,ull,Catalan,Sounds/cat_ull.mp3,2020-06-08_18h35.31.652,TranslationElicitation_spa,3.2.4,Win32,60,5ede16d21b8bce022ee5dd32,,1,0,80,75,1,79
,,,,,,,,,,,,,,,,,,,,,,,,,,,,,,,,,,,l,3.064999819,GOL,FALSE,,,,,,,184,ull,Catalan,Sounds/cat_ull.mp3,2020-06-08_18h35.31.652,TranslationElicitation_spa,3.2.4,Win32,60,5ede16d21b8bce022ee5dd32,,1,0,80,75,1,79
,,,,,,,,,,,,,,,,,,,,,,,,,,,,,,,,,,,return,3.422999859,,FALSE,,,,,,,184,ull,Catalan,Sounds/cat_ull.mp3,2020-06-08_18h35.31.652,TranslationElicitation_spa,3.2.4,Win32,60,5ede16d21b8bce022ee5dd32,3.422999859,1,0,80,75,1,79
,,,,,,,,,,,,,,,,,,,,,,,,,,,,,,,,,,,,,,,,,,,,,184,ull,Catalan,Sounds/cat_ull.mp3,2020-06-08_18h35.31.652,TranslationElicitation_spa,3.2.4,Win32,60,5ede16d21b8bce022ee5dd32,,1,0,80,75,1,79
,,,,,,,,,,,,,,,,,,,,,,,,,,,,,,,,,,,g,1.980000019,G,FALSE,,,,,,,145,got,Catalan,Sounds/cat_got.mp3,2020-06-08_18h35.31.652,TranslationElicitation_spa,3.2.4,Win32,60,5ede16d21b8bce022ee5dd32,,1,0,80,40,1,79
,,,,,,,,,,,,,,,,,,,,,,,,,,,,,,,,,,,o,2.062999964,GO,FALSE,,,,,,,145,got,Catalan,Sounds/cat_got.mp3,2020-06-08_18h35.31.652,TranslationElicitation_spa,3.2.4,Win32,60,5ede16d21b8bce022ee5dd32,,1,0,80,40,1,79
,,,,,,,,,,,,,,,,,,,,,,,,,,,,,,,,,,,t,2.161999941,GOT,FALSE,,,,,,,145,got,Catalan,Sounds/cat_got.mp3,2020-06-08_18h35.31.652,TranslationElicitation_spa,3.2.4,Win32,60,5ede16d21b8bce022ee5dd32,,1,0,80,40,1,79
,,,,,,,,,,,,,,,,,,,,,,,,,,,,,,,,,,,backspace,3.828999996,G,TRUE,,,,,,,145,got,Catalan,Sounds/cat_got.mp3,2020-06-08_18h35.31.652,TranslationElicitation_spa,3.2.4,Win32,60,5ede16d21b8bce022ee5dd32,,1,0,80,40,1,79
,,,,,,,,,,,,,,,,,,,,,,,,,,,,,,,,,,,backspace,3.962999821,,TRUE,,,,,,,145,got,Catalan,Sounds/cat_got.mp3,2020-06-08_18h35.31.652,TranslationElicitation_spa,3.2.4,Win32,60,5ede16d21b8bce022ee5dd32,,1,0,80,40,1,79
,,,,,,,,,,,,,,,,,,,,,,,,,,,,,,,,,,,a,4.062999964,A,TRUE,,,,,,,145,got,Catalan,Sounds/cat_got.mp3,2020-06-08_18h35.31.652,TranslationElicitation_spa,3.2.4,Win32,60,5ede16d21b8bce022ee5dd32,,1,0,80,40,1,79
,,,,,,,,,,,,,,,,,,,,,,,,,,,,,,,,,,,t,4.261999846,AT,TRUE,,,,,,,145,got,Catalan,Sounds/cat_got.mp3,2020-06-08_18h35.31.652,TranslationElicitation_spa,3.2.4,Win32,60,5ede16d21b8bce022ee5dd32,,1,0,80,40,1,79
,,,,,,,,,,,,,,,,,,,,,,,,,,,,,,,,,,,o,4.328999996,ATO,TRUE,,,,,,,145,got,Catalan,Sounds/cat_got.mp3,2020-06-08_18h35.31.652,TranslationElicitation_spa,3.2.4,Win32,60,5ede16d21b8bce022ee5dd32,,1,0,80,40,1,79
,,,,,,,,,,,,,,,,,,,,,,,,,,,,,,,,,,,backspace,4.611999989,A,TRUE,,,,,,,145,got,Catalan,Sounds/cat_got.mp3,2020-06-08_18h35.31.652,TranslationElicitation_spa,3.2.4,Win32,60,5ede16d21b8bce022ee5dd32,,1,0,80,40,1,79
,,,,,,,,,,,,,,,,,,,,,,,,,,,,,,,,,,,backspace,4.761999846,,TRUE,,,,,,,145,got,Catalan,Sounds/cat_got.mp3,2020-06-08_18h35.31.652,TranslationElicitation_spa,3.2.4,Win32,60,5ede16d21b8bce022ee5dd32,,1,0,80,40,1,79
,,,,,,,,,,,,,,,,,,,,,,,,,,,,,,,,,,,backspace,4.894999981,,TRUE,,,,,,,145,got,Catalan,Sounds/cat_got.mp3,2020-06-08_18h35.31.652,TranslationElicitation_spa,3.2.4,Win32,60,5ede16d21b8bce022ee5dd32,,1,0,80,40,1,79
,,,,,,,,,,,,,,,,,,,,,,,,,,,,,,,,,,,g,4.961999893,G,TRUE,,,,,,,145,got,Catalan,Sounds/cat_got.mp3,2020-06-08_18h35.31.652,TranslationElicitation_spa,3.2.4,Win32,60,5ede16d21b8bce022ee5dd32,,1,0,80,40,1,79
,,,,,,,,,,,,,,,,,,,,,,,,,,,,,,,,,,,a,5.144999981,GA,TRUE,,,,,,,145,got,Catalan,Sounds/cat_got.mp3,2020-06-08_18h35.31.652,TranslationElicitation_spa,3.2.4,Win32,60,5ede16d21b8bce022ee5dd32,,1,0,80,40,1,79
,,,,,,,,,,,,,,,,,,,,,,,,,,,,,,,,,,,t,5.345000029,GAT,TRUE,,,,,,,145,got,Catalan,Sounds/cat_got.mp3,2020-06-08_18h35.31.652,TranslationElicitation_spa,3.2.4,Win32,60,5ede16d21b8bce022ee5dd32,,1,0,80,40,1,79
,,,,,,,,,,,,,,,,,,,,,,,,,,,,,,,,,,,o,5.411999941,GATO,TRUE,,,,,,,145,got,Catalan,Sounds/cat_got.mp3,2020-06-08_18h35.31.652,TranslationElicitation_spa,3.2.4,Win32,60,5ede16d21b8bce022ee5dd32,,1,0,80,40,1,79
,,,,,,,,,,,,,,,,,,,,,,,,,,,,,,,,,,,return,5.711999893,,TRUE,,,,,,,145,got,Catalan,Sounds/cat_got.mp3,2020-06-08_18h35.31.652,TranslationElicitation_spa,3.2.4,Win32,60,5ede16d21b8bce022ee5dd32,5.711999893,1,0,80,40,1,79
,,,,,,,,,,,,,,,,,,,,,,,,,,,,,,,,,,,,,,,,,,,,,145,got,Catalan,Sounds/cat_got.mp3,2020-06-08_18h35.31.652,TranslationElicitation_spa,3.2.4,Win32,60,5ede16d21b8bce022ee5dd32,,1,0,80,40,1,79
,,,,,,,,,,,,,,,,,,,,,,,,,,,,,,,,,,,m,2.238000154,M,FALSE,,,,,,,172,poma,Catalan,Sounds/cat_poma.mp3,2020-06-08_18h35.31.652,TranslationElicitation_spa,3.2.4,Win32,60,5ede16d21b8bce022ee5dd32,,1,0,80,64,1,79
,,,,,,,,,,,,,,,,,,,,,,,,,,,,,,,,,,,a,2.321000099,MA,FALSE,,,,,,,172,poma,Catalan,Sounds/cat_poma.mp3,2020-06-08_18h35.31.652,TranslationElicitation_spa,3.2.4,Win32,60,5ede16d21b8bce022ee5dd32,,1,0,80,64,1,79
,,,,,,,,,,,,,,,,,,,,,,,,,,,,,,,,,,,n,2.388000011,MAN,FALSE,,,,,,,172,poma,Catalan,Sounds/cat_poma.mp3,2020-06-08_18h35.31.652,TranslationElicitation_spa,3.2.4,Win32,60,5ede16d21b8bce022ee5dd32,,1,0,80,64,1,79
,,,,,,,,,,,,,,,,,,,,,,,,,,,,,,,,,,,z,2.453999996,MANZ,FALSE,,,,,,,172,poma,Catalan,Sounds/cat_poma.mp3,2020-06-08_18h35.31.652,TranslationElicitation_spa,3.2.4,Win32,60,5ede16d21b8bce022ee5dd32,,1,0,80,64,1,79
,,,,,,,,,,,,,,,,,,,,,,,,,,,,,,,,,,,a,2.504000187,MANZA,FALSE,,,,,,,172,poma,Catalan,Sounds/cat_poma.mp3,2020-06-08_18h35.31.652,TranslationElicitation_spa,3.2.4,Win32,60,5ede16d21b8bce022ee5dd32,,1,0,80,64,1,79
,,,,,,,,,,,,,,,,,,,,,,,,,,,,,,,,,,,n,2.588000059,MANZAN,FALSE,,,,,,,172,poma,Catalan,Sounds/cat_poma.mp3,2020-06-08_18h35.31.652,TranslationElicitation_spa,3.2.4,Win32,60,5ede16d21b8bce022ee5dd32,,1,0,80,64,1,79
,,,,,,,,,,,,,,,,,,,,,,,,,,,,,,,,,,,a,2.688000202,MANZANA,FALSE,,,,,,,172,poma,Catalan,Sounds/cat_poma.mp3,2020-06-08_18h35.31.652,TranslationElicitation_spa,3.2.4,Win32,60,5ede16d21b8bce022ee5dd32,,1,0,80,64,1,79
,,,,,,,,,,,,,,,,,,,,,,,,,,,,,,,,,,,return,3.088000059,,FALSE,,,,,,,172,poma,Catalan,Sounds/cat_poma.mp3,2020-06-08_18h35.31.652,TranslationElicitation_spa,3.2.4,Win32,60,5ede16d21b8bce022ee5dd32,3.088000059,1,0,80,64,1,79
,,,,,,,,,,,,,,,,,,,,,,,,,,,,,,,,,,,,,,,,,,,,,172,poma,Catalan,Sounds/cat_poma.mp3,2020-06-08_18h35.31.652,TranslationElicitation_spa,3.2.4,Win32,60,5ede16d21b8bce022ee5dd32,,1,0,80,64,1,79
,,,,,,,,,,,,,,,,,,,,,,,,,,,,,,,,,,,o,2.031000137,O,FALSE,,,,,,,185,ulleres,Catalan,Sounds/cat_ulleres.mp3,2020-06-08_18h35.31.652,TranslationElicitation_spa,3.2.4,Win32,60,5ede16d21b8bce022ee5dd32,,1,0,80,76,1,79
,,,,,,,,,,,,,,,,,,,,,,,,,,,,,,,,,,,r,2.148000002,OR,FALSE,,,,,,,185,ulleres,Catalan,Sounds/cat_ulleres.mp3,2020-06-08_18h35.31.652,TranslationElicitation_spa,3.2.4,Win32,60,5ede16d21b8bce022ee5dd32,,1,0,80,76,1,79
,,,,,,,,,,,,,,,,,,,,,,,,,,,,,,,,,,,e,2.198000193,ORE,FALSE,,,,,,,185,ulleres,Catalan,Sounds/cat_ulleres.mp3,2020-06-08_18h35.31.652,TranslationElicitation_spa,3.2.4,Win32,60,5ede16d21b8bce022ee5dd32,,1,0,80,76,1,79
,,,,,,,,,,,,,,,,,,,,,,,,,,,,,,,,,,,j,2.248000145,OREJ,FALSE,,,,,,,185,ulleres,Catalan,Sounds/cat_ulleres.mp3,2020-06-08_18h35.31.652,TranslationElicitation_spa,3.2.4,Win32,60,5ede16d21b8bce022ee5dd32,,1,0,80,76,1,79
,,,,,,,,,,,,,,,,,,,,,,,,,,,,,,,,,,,a,2.36500001,OREJA,FALSE,,,,,,,185,ulleres,Catalan,Sounds/cat_ulleres.mp3,2020-06-08_18h35.31.652,TranslationElicitation_spa,3.2.4,Win32,60,5ede16d21b8bce022ee5dd32,,1,0,80,76,1,79
,,,,,,,,,,,,,,,,,,,,,,,,,,,,,,,,,,,s,2.398000002,OREJAS,FALSE,,,,,,,185,ulleres,Catalan,Sounds/cat_ulleres.mp3,2020-06-08_18h35.31.652,TranslationElicitation_spa,3.2.4,Win32,60,5ede16d21b8bce022ee5dd32,,1,0,80,76,1,79
,,,,,,,,,,,,,,,,,,,,,,,,,,,,,,,,,,,return,2.548000097,,FALSE,,,,,,,185,ulleres,Catalan,Sounds/cat_ulleres.mp3,2020-06-08_18h35.31.652,TranslationElicitation_spa,3.2.4,Win32,60,5ede16d21b8bce022ee5dd32,2.548000097,1,0,80,76,1,79
,,,,,,,,,,,,,,,,,,,,,,,,,,,,,,,,,,,,,,,,,,,,,185,ulleres,Catalan,Sounds/cat_ulleres.mp3,2020-06-08_18h35.31.652,TranslationElicitation_spa,3.2.4,Win32,60,5ede16d21b8bce022ee5dd32,,1,0,80,76,1,79
,,,,,,,,,,,,,,,,,,,,,,,,,,,,,,,,,,,b,4.229000092,B,FALSE,,,,,,,115,bolet,Catalan,Sounds/cat_bolet.mp3,2020-06-08_18h35.31.652,TranslationElicitation_spa,3.2.4,Win32,60,5ede16d21b8bce022ee5dd32,,1,0,80,10,1,79
,,,,,,,,,,,,,,,,,,,,,,,,,,,,,,,,,,,a,4.296000004,BA,FALSE,,,,,,,115,bolet,Catalan,Sounds/cat_bolet.mp3,2020-06-08_18h35.31.652,TranslationElicitation_spa,3.2.4,Win32,60,5ede16d21b8bce022ee5dd32,,1,0,80,10,1,79
,,,,,,,,,,,,,,,,,,,,,,,,,,,,,,,,,,,l,4.428999901,BAL,FALSE,,,,,,,115,bolet,Catalan,Sounds/cat_bolet.mp3,2020-06-08_18h35.31.652,TranslationElicitation_spa,3.2.4,Win32,60,5ede16d21b8bce022ee5dd32,,1,0,80,10,1,79
,,,,,,,,,,,,,,,,,,,,,,,,,,,,,,,,,,,l,4.546000004,BALL,FALSE,,,,,,,115,bolet,Catalan,Sounds/cat_bolet.mp3,2020-06-08_18h35.31.652,TranslationElicitation_spa,3.2.4,Win32,60,5ede16d21b8bce022ee5dd32,,1,0,80,10,1,79
,,,,,,,,,,,,,,,,,,,,,,,,,,,,,,,,,,,e,4.631000042,BALLE,FALSE,,,,,,,115,bolet,Catalan,Sounds/cat_bolet.mp3,2020-06-08_18h35.31.652,TranslationElicitation_spa,3.2.4,Win32,60,5ede16d21b8bce022ee5dd32,,1,0,80,10,1,79
,,,,,,,,,,,,,,,,,,,,,,,,,,,,,,,,,,,t,4.779000044,BALLET,FALSE,,,,,,,115,bolet,Catalan,Sounds/cat_bolet.mp3,2020-06-08_18h35.31.652,TranslationElicitation_spa,3.2.4,Win32,60,5ede16d21b8bce022ee5dd32,,1,0,80,10,1,79
,,,,,,,,,,,,,,,,,,,,,,,,,,,,,,,,,,,return,4.980999947,,FALSE,,,,,,,115,bolet,Catalan,Sounds/cat_bolet.mp3,2020-06-08_18h35.31.652,TranslationElicitation_spa,3.2.4,Win32,60,5ede16d21b8bce022ee5dd32,4.980999947,1,0,80,10,1,79
,,,,,,,,,,,,,,,,,,,,,,,,,,,,,,,,,,,,,,,,,,,,,115,bolet,Catalan,Sounds/cat_bolet.mp3,2020-06-08_18h35.31.652,TranslationElicitation_spa,3.2.4,Win32,60,5ede16d21b8bce022ee5dd32,,1,0,80,10,1,79
,,,,,,,,,,,,,,,,,,,,,,,,,,,,,,,,,,,j,1.247999907,J,FALSE,,,,,,,142,girafa,Catalan,Sounds/cat_girafa.mp3,2020-06-08_18h35.31.652,TranslationElicitation_spa,3.2.4,Win32,60,5ede16d21b8bce022ee5dd32,,1,0,80,37,1,79
,,,,,,,,,,,,,,,,,,,,,,,,,,,,,,,,,,,i,1.315000057,JI,FALSE,,,,,,,142,girafa,Catalan,Sounds/cat_girafa.mp3,2020-06-08_18h35.31.652,TranslationElicitation_spa,3.2.4,Win32,60,5ede16d21b8bce022ee5dd32,,1,0,80,37,1,79
,,,,,,,,,,,,,,,,,,,,,,,,,,,,,,,,,,,r,1.414999962,JIR,FALSE,,,,,,,142,girafa,Catalan,Sounds/cat_girafa.mp3,2020-06-08_18h35.31.652,TranslationElicitation_spa,3.2.4,Win32,60,5ede16d21b8bce022ee5dd32,,1,0,80,37,1,79
,,,,,,,,,,,,,,,,,,,,,,,,,,,,,,,,,,,a,1.547999859,JIRA,FALSE,,,,,,,142,girafa,Catalan,Sounds/cat_girafa.mp3,2020-06-08_18h35.31.652,TranslationElicitation_spa,3.2.4,Win32,60,5ede16d21b8bce022ee5dd32,,1,0,80,37,1,79
,,,,,,,,,,,,,,,,,,,,,,,,,,,,,,,,,,,f,1.664999962,JIRAF,FALSE,,,,,,,142,girafa,Catalan,Sounds/cat_girafa.mp3,2020-06-08_18h35.31.652,TranslationElicitation_spa,3.2.4,Win32,60,5ede16d21b8bce022ee5dd32,,1,0,80,37,1,79
,,,,,,,,,,,,,,,,,,,,,,,,,,,,,,,,,,,a,1.764999866,JIRAFA,FALSE,,,,,,,142,girafa,Catalan,Sounds/cat_girafa.mp3,2020-06-08_18h35.31.652,TranslationElicitation_spa,3.2.4,Win32,60,5ede16d21b8bce022ee5dd32,,1,0,80,37,1,79
,,,,,,,,,,,,,,,,,,,,,,,,,,,,,,,,,,,return,1.898999929,,FALSE,,,,,,,142,girafa,Catalan,Sounds/cat_girafa.mp3,2020-06-08_18h35.31.652,TranslationElicitation_spa,3.2.4,Win32,60,5ede16d21b8bce022ee5dd32,1.898999929,1,0,80,37,1,79
,,,,,,,,,,,,,,,,,,,,,,,,,,,,,,,,,,,,,,,,,,,,,142,girafa,Catalan,Sounds/cat_girafa.mp3,2020-06-08_18h35.31.652,TranslationElicitation_spa,3.2.4,Win32,60,5ede16d21b8bce022ee5dd32,,1,0,80,37,1,79
,,,,,,,,,,,,,,,,,,,,,,,,,,,,,,,,,,,h,1.799000025,H,FALSE,,,,,,,136,forquilla,Catalan,Sounds/cat_forquilla.mp3,2020-06-08_18h35.31.652,TranslationElicitation_spa,3.2.4,Win32,60,5ede16d21b8bce022ee5dd32,,1,0,80,31,1,79
,,,,,,,,,,,,,,,,,,,,,,,,,,,,,,,,,,,o,1.94900012,HO,FALSE,,,,,,,136,forquilla,Catalan,Sounds/cat_forquilla.mp3,2020-06-08_18h35.31.652,TranslationElicitation_spa,3.2.4,Win32,60,5ede16d21b8bce022ee5dd32,,1,0,80,31,1,79
,,,,,,,,,,,,,,,,,,,,,,,,,,,,,,,,,,,r,1.96600008,HOR,FALSE,,,,,,,136,forquilla,Catalan,Sounds/cat_forquilla.mp3,2020-06-08_18h35.31.652,TranslationElicitation_spa,3.2.4,Win32,60,5ede16d21b8bce022ee5dd32,,1,0,80,31,1,79
,,,,,,,,,,,,,,,,,,,,,,,,,,,,,,,,,,,q,2.098999977,HORQ,FALSE,,,,,,,136,forquilla,Catalan,Sounds/cat_forquilla.mp3,2020-06-08_18h35.31.652,TranslationElicitation_spa,3.2.4,Win32,60,5ede16d21b8bce022ee5dd32,,1,0,80,31,1,79
,,,,,,,,,,,,,,,,,,,,,,,,,,,,,,,,,,,u,2.164999962,HORQU,FALSE,,,,,,,136,forquilla,Catalan,Sounds/cat_forquilla.mp3,2020-06-08_18h35.31.652,TranslationElicitation_spa,3.2.4,Win32,60,5ede16d21b8bce022ee5dd32,,1,0,80,31,1,79
,,,,,,,,,,,,,,,,,,,,,,,,,,,,,,,,,,,i,2.215000153,HORQUI,FALSE,,,,,,,136,forquilla,Catalan,Sounds/cat_forquilla.mp3,2020-06-08_18h35.31.652,TranslationElicitation_spa,3.2.4,Win32,60,5ede16d21b8bce022ee5dd32,,1,0,80,31,1,79
,,,,,,,,,,,,,,,,,,,,,,,,,,,,,,,,,,,l,2.43200016,HORQUIL,FALSE,,,,,,,136,forquilla,Catalan,Sounds/cat_forquilla.mp3,2020-06-08_18h35.31.652,TranslationElicitation_spa,3.2.4,Win32,60,5ede16d21b8bce022ee5dd32,,1,0,80,31,1,79
,,,,,,,,,,,,,,,,,,,,,,,,,,,,,,,,,,,l,2.565000057,HORQUILL,FALSE,,,,,,,136,forquilla,Catalan,Sounds/cat_forquilla.mp3,2020-06-08_18h35.31.652,TranslationElicitation_spa,3.2.4,Win32,60,5ede16d21b8bce022ee5dd32,,1,0,80,31,1,79
,,,,,,,,,,,,,,,,,,,,,,,,,,,,,,,,,,,a,2.648000002,HORQUILLA,FALSE,,,,,,,136,forquilla,Catalan,Sounds/cat_forquilla.mp3,2020-06-08_18h35.31.652,TranslationElicitation_spa,3.2.4,Win32,60,5ede16d21b8bce022ee5dd32,,1,0,80,31,1,79
,,,,,,,,,,,,,,,,,,,,,,,,,,,,,,,,,,,return,3.048000097,,FALSE,,,,,,,136,forquilla,Catalan,Sounds/cat_forquilla.mp3,2020-06-08_18h35.31.652,TranslationElicitation_spa,3.2.4,Win32,60,5ede16d21b8bce022ee5dd32,3.048000097,1,0,80,31,1,79
,,,,,,,,,,,,,,,,,,,,,,,,,,,,,,,,,,,,,,,,,,,,,136,forquilla,Catalan,Sounds/cat_forquilla.mp3,2020-06-08_18h35.31.652,TranslationElicitation_spa,3.2.4,Win32,60,5ede16d21b8bce022ee5dd32,,1,0,80,31,1,79
,,,,,,,,,,,,,,,,,,,,,,,,,,,,,,,,,,,s,1.230999947,S,FALSE,,,,,,,124,cirera,Catalan,Sounds/cat_cirera.mp3,2020-06-08_18h35.31.652,TranslationElicitation_spa,3.2.4,Win32,60,5ede16d21b8bce022ee5dd32,,1,0,80,19,1,79
,,,,,,,,,,,,,,,,,,,,,,,,,,,,,,,,,,,i,1.313999891,SI,FALSE,,,,,,,124,cirera,Catalan,Sounds/cat_cirera.mp3,2020-06-08_18h35.31.652,TranslationElicitation_spa,3.2.4,Win32,60,5ede16d21b8bce022ee5dd32,,1,0,80,19,1,79
,,,,,,,,,,,,,,,,,,,,,,,,,,,,,,,,,,,r,1.414000034,SIR,FALSE,,,,,,,124,cirera,Catalan,Sounds/cat_cirera.mp3,2020-06-08_18h35.31.652,TranslationElicitation_spa,3.2.4,Win32,60,5ede16d21b8bce022ee5dd32,,1,0,80,19,1,79
,,,,,,,,,,,,,,,,,,,,,,,,,,,,,,,,,,,e,1.447000027,SIRE,FALSE,,,,,,,124,cirera,Catalan,Sounds/cat_cirera.mp3,2020-06-08_18h35.31.652,TranslationElicitation_spa,3.2.4,Win32,60,5ede16d21b8bce022ee5dd32,,1,0,80,19,1,79
,,,,,,,,,,,,,,,,,,,,,,,,,,,,,,,,,,,n,1.480000019,SIREN,FALSE,,,,,,,124,cirera,Catalan,Sounds/cat_cirera.mp3,2020-06-08_18h35.31.652,TranslationElicitation_spa,3.2.4,Win32,60,5ede16d21b8bce022ee5dd32,,1,0,80,19,1,79
,,,,,,,,,,,,,,,,,,,,,,,,,,,,,,,,,,,a,1.596999884,SIRENA,FALSE,,,,,,,124,cirera,Catalan,Sounds/cat_cirera.mp3,2020-06-08_18h35.31.652,TranslationElicitation_spa,3.2.4,Win32,60,5ede16d21b8bce022ee5dd32,,1,0,80,19,1,79
,,,,,,,,,,,,,,,,,,,,,,,,,,,,,,,,,,,return,1.697000027,,FALSE,,,,,,,124,cirera,Catalan,Sounds/cat_cirera.mp3,2020-06-08_18h35.31.652,TranslationElicitation_spa,3.2.4,Win32,60,5ede16d21b8bce022ee5dd32,1.697000027,1,0,80,19,1,79
,,,,,,,,,,,,,,,,,,,,,,,,,,,,,,,,,,,,,,,,,,,,,124,cirera,Catalan,Sounds/cat_cirera.mp3,2020-06-08_18h35.31.652,TranslationElicitation_spa,3.2.4,Win32,60,5ede16d21b8bce022ee5dd32,,1,0,80,19,1,79
,,,,,,,,,,,,,,,,,,,,,,,,,,,,,,,,,,,c,3.164000034,C,FALSE,,,,,,,138,galeta,Catalan,Sounds/cat_galeta.mp3,2020-06-08_18h35.31.652,TranslationElicitation_spa,3.2.4,Win32,60,5ede16d21b8bce022ee5dd32,,1,0,80,33,1,79
,,,,,,,,,,,,,,,,,,,,,,,,,,,,,,,,,,,a,3.213999987,CA,FALSE,,,,,,,138,galeta,Catalan,Sounds/cat_galeta.mp3,2020-06-08_18h35.31.652,TranslationElicitation_spa,3.2.4,Win32,60,5ede16d21b8bce022ee5dd32,,1,0,80,33,1,79
,,,,,,,,,,,,,,,,,,,,,,,,,,,,,,,,,,,r,3.414000034,CAR,FALSE,,,,,,,138,galeta,Catalan,Sounds/cat_galeta.mp3,2020-06-08_18h35.31.652,TranslationElicitation_spa,3.2.4,Win32,60,5ede16d21b8bce022ee5dd32,,1,0,80,33,1,79
,,,,,,,,,,,,,,,,,,,,,,,,,,,,,,,,,,,e,3.463999987,CARE,FALSE,,,,,,,138,galeta,Catalan,Sounds/cat_galeta.mp3,2020-06-08_18h35.31.652,TranslationElicitation_spa,3.2.4,Win32,60,5ede16d21b8bce022ee5dd32,,1,0,80,33,1,79
,,,,,,,,,,,,,,,,,,,,,,,,,,,,,,,,,,,t,3.597000122,CARET,FALSE,,,,,,,138,galeta,Catalan,Sounds/cat_galeta.mp3,2020-06-08_18h35.31.652,TranslationElicitation_spa,3.2.4,Win32,60,5ede16d21b8bce022ee5dd32,,1,0,80,33,1,79
,,,,,,,,,,,,,,,,,,,,,,,,,,,,,,,,,,,a,3.746999979,CARETA,FALSE,,,,,,,138,galeta,Catalan,Sounds/cat_galeta.mp3,2020-06-08_18h35.31.652,TranslationElicitation_spa,3.2.4,Win32,60,5ede16d21b8bce022ee5dd32,,1,0,80,33,1,79
,,,,,,,,,,,,,,,,,,,,,,,,,,,,,,,,,,,return,3.914000034,,FALSE,,,,,,,138,galeta,Catalan,Sounds/cat_galeta.mp3,2020-06-08_18h35.31.652,TranslationElicitation_spa,3.2.4,Win32,60,5ede16d21b8bce022ee5dd32,3.914000034,1,0,80,33,1,79
,,,,,,,,,,,,,,,,,,,,,,,,,,,,,,,,,,,,,,,,,,,,,138,galeta,Catalan,Sounds/cat_galeta.mp3,2020-06-08_18h35.31.652,TranslationElicitation_spa,3.2.4,Win32,60,5ede16d21b8bce022ee5dd32,,1,0,80,33,1,79
,,,,,,,,,,,,,,,,,,,,,,,,,,,,,,,,,,,v,4.36500001,V,FALSE,,,,,,,116,bolquer,Catalan,Sounds/cat_bolquer.mp3,2020-06-08_18h35.31.652,TranslationElicitation_spa,3.2.4,Win32,60,5ede16d21b8bce022ee5dd32,,1,0,80,11,1,79
,,,,,,,,,,,,,,,,,,,,,,,,,,,,,,,,,,,o,4.43200016,VO,FALSE,,,,,,,116,bolquer,Catalan,Sounds/cat_bolquer.mp3,2020-06-08_18h35.31.652,TranslationElicitation_spa,3.2.4,Win32,60,5ede16d21b8bce022ee5dd32,,1,0,80,11,1,79
,,,,,,,,,,,,,,,,,,,,,,,,,,,,,,,,,,,c,4.565000057,VOC,FALSE,,,,,,,116,bolquer,Catalan,Sounds/cat_bolquer.mp3,2020-06-08_18h35.31.652,TranslationElicitation_spa,3.2.4,Win32,60,5ede16d21b8bce022ee5dd32,,1,0,80,11,1,79
,,,,,,,,,,,,,,,,,,,,,,,,,,,,,,,,,,,l,4.58100009,VOCL,FALSE,,,,,,,116,bolquer,Catalan,Sounds/cat_bolquer.mp3,2020-06-08_18h35.31.652,TranslationElicitation_spa,3.2.4,Win32,60,5ede16d21b8bce022ee5dd32,,1,0,80,11,1,79
,,,,,,,,,,,,,,,,,,,,,,,,,,,,,,,,,,,a,4.648000002,VOCLA,FALSE,,,,,,,116,bolquer,Catalan,Sounds/cat_bolquer.mp3,2020-06-08_18h35.31.652,TranslationElicitation_spa,3.2.4,Win32,60,5ede16d21b8bce022ee5dd32,,1,0,80,11,1,79
,,,,,,,,,,,,,,,,,,,,,,,,,,,,,,,,,,,r,4.81400013,VOCLAR,FALSE,,,,,,,116,bolquer,Catalan,Sounds/cat_bolquer.mp3,2020-06-08_18h35.31.652,TranslationElicitation_spa,3.2.4,Win32,60,5ede16d21b8bce022ee5dd32,,1,0,80,11,1,79
,,,,,,,,,,,,,,,,,,,,,,,,,,,,,,,,,,,return,4.963999987,,FALSE,,,,,,,116,bolquer,Catalan,Sounds/cat_bolquer.mp3,2020-06-08_18h35.31.652,TranslationElicitation_spa,3.2.4,Win32,60,5ede16d21b8bce022ee5dd32,4.963999987,1,0,80,11,1,79
,,,,,,,,,,,,,,,,,,,,,,,,,,,,,,,,,,,,,,,,,,,,,116,bolquer,Catalan,Sounds/cat_bolquer.mp3,2020-06-08_18h35.31.652,TranslationElicitation_spa,3.2.4,Win32,60,5ede16d21b8bce022ee5dd32,,1,0,80,11,1,79
,,,,,,,,,,,,,,,,,,,,,,,,,,,,,,,,,,,a,1.281000137,A,FALSE,,,,,,,122,casa,Catalan,Sounds/cat_casa.mp3,2020-06-08_18h35.31.652,TranslationElicitation_spa,3.2.4,Win32,60,5ede16d21b8bce022ee5dd32,,1,0,80,17,1,79
,,,,,,,,,,,,,,,,,,,,,,,,,,,,,,,,,,,s,1.448000193,AS,FALSE,,,,,,,122,casa,Catalan,Sounds/cat_casa.mp3,2020-06-08_18h35.31.652,TranslationElicitation_spa,3.2.4,Win32,60,5ede16d21b8bce022ee5dd32,,1,0,80,17,1,79
,,,,,,,,,,,,,,,,,,,,,,,,,,,,,,,,,,,a,1.496999979,ASA,FALSE,,,,,,,122,casa,Catalan,Sounds/cat_casa.mp3,2020-06-08_18h35.31.652,TranslationElicitation_spa,3.2.4,Win32,60,5ede16d21b8bce022ee5dd32,,1,0,80,17,1,79
,,,,,,,,,,,,,,,,,,,,,,,,,,,,,,,,,,,backspace,1.79700017,A,TRUE,,,,,,,122,casa,Catalan,Sounds/cat_casa.mp3,2020-06-08_18h35.31.652,TranslationElicitation_spa,3.2.4,Win32,60,5ede16d21b8bce022ee5dd32,,1,0,80,17,1,79
,,,,,,,,,,,,,,,,,,,,,,,,,,,,,,,,,,,backspace,1.930000067,,TRUE,,,,,,,122,casa,Catalan,Sounds/cat_casa.mp3,2020-06-08_18h35.31.652,TranslationElicitation_spa,3.2.4,Win32,60,5ede16d21b8bce022ee5dd32,,1,0,80,17,1,79
,,,,,,,,,,,,,,,,,,,,,,,,,,,,,,,,,,,backspace,2.04700017,,TRUE,,,,,,,122,casa,Catalan,Sounds/cat_casa.mp3,2020-06-08_18h35.31.652,TranslationElicitation_spa,3.2.4,Win32,60,5ede16d21b8bce022ee5dd32,,1,0,80,17,1,79
,,,,,,,,,,,,,,,,,,,,,,,,,,,,,,,,,,,c,2.180000067,C,TRUE,,,,,,,122,casa,Catalan,Sounds/cat_casa.mp3,2020-06-08_18h35.31.652,TranslationElicitation_spa,3.2.4,Win32,60,5ede16d21b8bce022ee5dd32,,1,0,80,17,1,79
,,,,,,,,,,,,,,,,,,,,,,,,,,,,,,,,,,,a,2.246999979,CA,TRUE,,,,,,,122,casa,Catalan,Sounds/cat_casa.mp3,2020-06-08_18h35.31.652,TranslationElicitation_spa,3.2.4,Win32,60,5ede16d21b8bce022ee5dd32,,1,0,80,17,1,79
,,,,,,,,,,,,,,,,,,,,,,,,,,,,,,,,,,,s,2.347000122,CAS,TRUE,,,,,,,122,casa,Catalan,Sounds/cat_casa.mp3,2020-06-08_18h35.31.652,TranslationElicitation_spa,3.2.4,Win32,60,5ede16d21b8bce022ee5dd32,,1,0,80,17,1,79
,,,,,,,,,,,,,,,,,,,,,,,,,,,,,,,,,,,a,2.413000107,CASA,TRUE,,,,,,,122,casa,Catalan,Sounds/cat_casa.mp3,2020-06-08_18h35.31.652,TranslationElicitation_spa,3.2.4,Win32,60,5ede16d21b8bce022ee5dd32,,1,0,80,17,1,79
,,,,,,,,,,,,,,,,,,,,,,,,,,,,,,,,,,,return,2.663000107,,TRUE,,,,,,,122,casa,Catalan,Sounds/cat_casa.mp3,2020-06-08_18h35.31.652,TranslationElicitation_spa,3.2.4,Win32,60,5ede16d21b8bce022ee5dd32,2.663000107,1,0,80,17,1,79
,,,,,,,,,,,,,,,,,,,,,,,,,,,,,,,,,,,,,,,,,,,,,122,casa,Catalan,Sounds/cat_casa.mp3,2020-06-08_18h35.31.652,TranslationElicitation_spa,3.2.4,Win32,60,5ede16d21b8bce022ee5dd32,,1,0,80,17,1,79
,,,,,,,,,,,,,,,,,,,,,,,,,,,,,,,,,,,a,3.546000004,A,FALSE,,,,,,,133,estruc,Catalan,Sounds/cat_estruc.mp3,2020-06-08_18h35.31.652,TranslationElicitation_spa,3.2.4,Win32,60,5ede16d21b8bce022ee5dd32,,1,0,80,28,1,79
,,,,,,,,,,,,,,,,,,,,,,,,,,,,,,,,,,,s,3.612999916,AS,FALSE,,,,,,,133,estruc,Catalan,Sounds/cat_estruc.mp3,2020-06-08_18h35.31.652,TranslationElicitation_spa,3.2.4,Win32,60,5ede16d21b8bce022ee5dd32,,1,0,80,28,1,79
,,,,,,,,,,,,,,,,,,,,,,,,,,,,,,,,,,,t,3.828999996,AST,FALSE,,,,,,,133,estruc,Catalan,Sounds/cat_estruc.mp3,2020-06-08_18h35.31.652,TranslationElicitation_spa,3.2.4,Win32,60,5ede16d21b8bce022ee5dd32,,1,0,80,28,1,79
,,,,,,,,,,,,,,,,,,,,,,,,,,,,,,,,,,,r,3.878999949,ASTR,FALSE,,,,,,,133,estruc,Catalan,Sounds/cat_estruc.mp3,2020-06-08_18h35.31.652,TranslationElicitation_spa,3.2.4,Win32,60,5ede16d21b8bce022ee5dd32,,1,0,80,28,1,79
,,,,,,,,,,,,,,,,,,,,,,,,,,,,,,,,,,,o,3.928999901,ASTRO,FALSE,,,,,,,133,estruc,Catalan,Sounds/cat_estruc.mp3,2020-06-08_18h35.31.652,TranslationElicitation_spa,3.2.4,Win32,60,5ede16d21b8bce022ee5dd32,,1,0,80,28,1,79
,,,,,,,,,,,,,,,,,,,,,,,,,,,,,,,,,,,s,4.062999964,ASTROS,FALSE,,,,,,,133,estruc,Catalan,Sounds/cat_estruc.mp3,2020-06-08_18h35.31.652,TranslationElicitation_spa,3.2.4,Win32,60,5ede16d21b8bce022ee5dd32,,1,0,80,28,1,79
,,,,,,,,,,,,,,,,,,,,,,,,,,,,,,,,,,,return,4.228999853,,FALSE,,,,,,,133,estruc,Catalan,Sounds/cat_estruc.mp3,2020-06-08_18h35.31.652,TranslationElicitation_spa,3.2.4,Win32,60,5ede16d21b8bce022ee5dd32,4.228999853,1,0,80,28,1,79
,,,,,,,,,,,,,,,,,,,,,,,,,,,,,,,,,,,,,,,,,,,,,133,estruc,Catalan,Sounds/cat_estruc.mp3,2020-06-08_18h35.31.652,TranslationElicitation_spa,3.2.4,Win32,60,5ede16d21b8bce022ee5dd32,,1,0,80,28,1,79
,,,,,,,,,,,,,,,,,,,,,,,,,,,,,,,,,,,p,1.681999922,P,FALSE,,,,,,,153,mico,Catalan,Sounds/cat_mico.mp3,2020-06-08_18h35.31.652,TranslationElicitation_spa,3.2.4,Win32,60,5ede16d21b8bce022ee5dd32,,1,0,80,47,1,79
,,,,,,,,,,,,,,,,,,,,,,,,,,,,,,,,,,,e,1.766000032,PE,FALSE,,,,,,,153,mico,Catalan,Sounds/cat_mico.mp3,2020-06-08_18h35.31.652,TranslationElicitation_spa,3.2.4,Win32,60,5ede16d21b8bce022ee5dd32,,1,0,80,47,1,79
,,,,,,,,,,,,,,,,,,,,,,,,,,,,,,,,,,,q,1.832000017,PEQ,FALSE,,,,,,,153,mico,Catalan,Sounds/cat_mico.mp3,2020-06-08_18h35.31.652,TranslationElicitation_spa,3.2.4,Win32,60,5ede16d21b8bce022ee5dd32,,1,0,80,47,1,79
,,,,,,,,,,,,,,,,,,,,,,,,,,,,,,,,,,,u,1.981999874,PEQU,FALSE,,,,,,,153,mico,Catalan,Sounds/cat_mico.mp3,2020-06-08_18h35.31.652,TranslationElicitation_spa,3.2.4,Win32,60,5ede16d21b8bce022ee5dd32,,1,0,80,47,1,79
,,,,,,,,,,,,,,,,,,,,,,,,,,,,,,,,,,,e,2.064999819,PEQUE,FALSE,,,,,,,153,mico,Catalan,Sounds/cat_mico.mp3,2020-06-08_18h35.31.652,TranslationElicitation_spa,3.2.4,Win32,60,5ede16d21b8bce022ee5dd32,,1,0,80,47,1,79
,,,,,,,,,,,,,,,,,,,,,,,,,,,,,,,,,,,semicolon,2.164999962,PEQUEÑ,FALSE,,,,,,,153,mico,Catalan,Sounds/cat_mico.mp3,2020-06-08_18h35.31.652,TranslationElicitation_spa,3.2.4,Win32,60,5ede16d21b8bce022ee5dd32,,1,0,80,47,1,79
,,,,,,,,,,,,,,,,,,,,,,,,,,,,,,,,,,,o,2.299000025,PEQUEÑO,FALSE,,,,,,,153,mico,Catalan,Sounds/cat_mico.mp3,2020-06-08_18h35.31.652,TranslationElicitation_spa,3.2.4,Win32,60,5ede16d21b8bce022ee5dd32,,1,0,80,47,1,79
,,,,,,,,,,,,,,,,,,,,,,,,,,,,,,,,,,,return,2.599999905,,FALSE,,,,,,,153,mico,Catalan,Sounds/cat_mico.mp3,2020-06-08_18h35.31.652,TranslationElicitation_spa,3.2.4,Win32,60,5ede16d21b8bce022ee5dd32,2.599999905,1,0,80,47,1,79
,,,,,,,,,,,,,,,,,,,,,,,,,,,,,,,,,,,,,,,,,,,,,153,mico,Catalan,Sounds/cat_mico.mp3,2020-06-08_18h35.31.652,TranslationElicitation_spa,3.2.4,Win32,60,5ede16d21b8bce022ee5dd32,,1,0,80,47,1,79
,,,,,,,,,,,,,,,,,,,,,,,,,,,,,,,,,,,o,1.247999907,O,FALSE,,,,,,,160,orella,Catalan,Sounds/cat_orella.mp3,2020-06-08_18h35.31.652,TranslationElicitation_spa,3.2.4,Win32,60,5ede16d21b8bce022ee5dd32,,1,0,80,53,1,79
,,,,,,,,,,,,,,,,,,,,,,,,,,,,,,,,,,,r,1.315000057,OR,FALSE,,,,,,,160,orella,Catalan,Sounds/cat_orella.mp3,2020-06-08_18h35.31.652,TranslationElicitation_spa,3.2.4,Win32,60,5ede16d21b8bce022ee5dd32,,1,0,80,53,1,79
,,,,,,,,,,,,,,,,,,,,,,,,,,,,,,,,,,,e,1.332000017,ORE,FALSE,,,,,,,160,orella,Catalan,Sounds/cat_orella.mp3,2020-06-08_18h35.31.652,TranslationElicitation_spa,3.2.4,Win32,60,5ede16d21b8bce022ee5dd32,,1,0,80,53,1,79
,,,,,,,,,,,,,,,,,,,,,,,,,,,,,,,,,,,j,1.414999962,OREJ,FALSE,,,,,,,160,orella,Catalan,Sounds/cat_orella.mp3,2020-06-08_18h35.31.652,TranslationElicitation_spa,3.2.4,Win32,60,5ede16d21b8bce022ee5dd32,,1,0,80,53,1,79
,,,,,,,,,,,,,,,,,,,,,,,,,,,,,,,,,,,a,1.497999907,OREJA,FALSE,,,,,,,160,orella,Catalan,Sounds/cat_orella.mp3,2020-06-08_18h35.31.652,TranslationElicitation_spa,3.2.4,Win32,60,5ede16d21b8bce022ee5dd32,,1,0,80,53,1,79
,,,,,,,,,,,,,,,,,,,,,,,,,,,,,,,,,,,return,1.664999962,,FALSE,,,,,,,160,orella,Catalan,Sounds/cat_orella.mp3,2020-06-08_18h35.31.652,TranslationElicitation_spa,3.2.4,Win32,60,5ede16d21b8bce022ee5dd32,1.664999962,1,0,80,53,1,79
,,,,,,,,,,,,,,,,,,,,,,,,,,,,,,,,,,,,,,,,,,,,,160,orella,Catalan,Sounds/cat_orella.mp3,2020-06-08_18h35.31.652,TranslationElicitation_spa,3.2.4,Win32,60,5ede16d21b8bce022ee5dd32,,1,0,80,53,1,79
,,,,,,,,,,,,,,,,,,,,,,,,,,,,,,,,,,,c,1.432999849,C,FALSE,,,,,,,123,cavall,Catalan,Sounds/cat_cavall.mp3,2020-06-08_18h35.31.652,TranslationElicitation_spa,3.2.4,Win32,60,5ede16d21b8bce022ee5dd32,,1,0,80,18,1,79
,,,,,,,,,,,,,,,,,,,,,,,,,,,,,,,,,,,a,1.515999794,CA,FALSE,,,,,,,123,cavall,Catalan,Sounds/cat_cavall.mp3,2020-06-08_18h35.31.652,TranslationElicitation_spa,3.2.4,Win32,60,5ede16d21b8bce022ee5dd32,,1,0,80,18,1,79
,,,,,,,,,,,,,,,,,,,,,,,,,,,,,,,,,,,b,1.632999897,CAB,FALSE,,,,,,,123,cavall,Catalan,Sounds/cat_cavall.mp3,2020-06-08_18h35.31.652,TranslationElicitation_spa,3.2.4,Win32,60,5ede16d21b8bce022ee5dd32,,1,0,80,18,1,79
,,,,,,,,,,,,,,,,,,,,,,,,,,,,,,,,,,,a,1.764999866,CABA,FALSE,,,,,,,123,cavall,Catalan,Sounds/cat_cavall.mp3,2020-06-08_18h35.31.652,TranslationElicitation_spa,3.2.4,Win32,60,5ede16d21b8bce022ee5dd32,,1,0,80,18,1,79
,,,,,,,,,,,,,,,,,,,,,,,,,,,,,,,,,,,l,1.898999929,CABAL,FALSE,,,,,,,123,cavall,Catalan,Sounds/cat_cavall.mp3,2020-06-08_18h35.31.652,TranslationElicitation_spa,3.2.4,Win32,60,5ede16d21b8bce022ee5dd32,,1,0,80,18,1,79
,,,,,,,,,,,,,,,,,,,,,,,,,,,,,,,,,,,l,1.997999907,CABALL,FALSE,,,,,,,123,cavall,Catalan,Sounds/cat_cavall.mp3,2020-06-08_18h35.31.652,TranslationElicitation_spa,3.2.4,Win32,60,5ede16d21b8bce022ee5dd32,,1,0,80,18,1,79
,,,,,,,,,,,,,,,,,,,,,,,,,,,,,,,,,,,o,2.164999962,CABALLO,FALSE,,,,,,,123,cavall,Catalan,Sounds/cat_cavall.mp3,2020-06-08_18h35.31.652,TranslationElicitation_spa,3.2.4,Win32,60,5ede16d21b8bce022ee5dd32,,1,0,80,18,1,79
,,,,,,,,,,,,,,,,,,,,,,,,,,,,,,,,,,,return,2.365999937,,FALSE,,,,,,,123,cavall,Catalan,Sounds/cat_cavall.mp3,2020-06-08_18h35.31.652,TranslationElicitation_spa,3.2.4,Win32,60,5ede16d21b8bce022ee5dd32,2.365999937,1,0,80,18,1,79
,,,,,,,,,,,,,,,,,,,,,,,,,,,,,,,,,,,,,,,,,,,,,123,cavall,Catalan,Sounds/cat_cavall.mp3,2020-06-08_18h35.31.652,TranslationElicitation_spa,3.2.4,Win32,60,5ede16d21b8bce022ee5dd32,,1,0,80,18,1,79
,,,,,,,,,,,,,,,,,,,,,,,,,,,,,,,,,,,r,2.230999947,R,FALSE,,,,,,,175,raspall,Catalan,Sounds/cat_raspall.mp3,2020-06-08_18h35.31.652,TranslationElicitation_spa,3.2.4,Win32,60,5ede16d21b8bce022ee5dd32,,1,0,80,67,1,79
,,,,,,,,,,,,,,,,,,,,,,,,,,,,,,,,,,,a,2.381000042,RA,FALSE,,,,,,,175,raspall,Catalan,Sounds/cat_raspall.mp3,2020-06-08_18h35.31.652,TranslationElicitation_spa,3.2.4,Win32,60,5ede16d21b8bce022ee5dd32,,1,0,80,67,1,79
,,,,,,,,,,,,,,,,,,,,,,,,,,,,,,,,,,,s,2.464999914,RAS,FALSE,,,,,,,175,raspall,Catalan,Sounds/cat_raspall.mp3,2020-06-08_18h35.31.652,TranslationElicitation_spa,3.2.4,Win32,60,5ede16d21b8bce022ee5dd32,,1,0,80,67,1,79
,,,,,,,,,,,,,,,,,,,,,,,,,,,,,,,,,,,p,2.56400013,RASP,FALSE,,,,,,,175,raspall,Catalan,Sounds/cat_raspall.mp3,2020-06-08_18h35.31.652,TranslationElicitation_spa,3.2.4,Win32,60,5ede16d21b8bce022ee5dd32,,1,0,80,67,1,79
,,,,,,,,,,,,,,,,,,,,,,,,,,,,,,,,,,,a,2.635999918,RASPA,FALSE,,,,,,,175,raspall,Catalan,Sounds/cat_raspall.mp3,2020-06-08_18h35.31.652,TranslationElicitation_spa,3.2.4,Win32,60,5ede16d21b8bce022ee5dd32,,1,0,80,67,1,79
,,,,,,,,,,,,,,,,,,,,,,,,,,,,,,,,,,,d,2.746999979,RASPAD,FALSE,,,,,,,175,raspall,Catalan,Sounds/cat_raspall.mp3,2020-06-08_18h35.31.652,TranslationElicitation_spa,3.2.4,Win32,60,5ede16d21b8bce022ee5dd32,,1,0,80,67,1,79
,,,,,,,,,,,,,,,,,,,,,,,,,,,,,,,,,,,o,2.864000082,RASPADO,FALSE,,,,,,,175,raspall,Catalan,Sounds/cat_raspall.mp3,2020-06-08_18h35.31.652,TranslationElicitation_spa,3.2.4,Win32,60,5ede16d21b8bce022ee5dd32,,1,0,80,67,1,79
,,,,,,,,,,,,,,,,,,,,,,,,,,,,,,,,,,,return,3.114000082,,FALSE,,,,,,,175,raspall,Catalan,Sounds/cat_raspall.mp3,2020-06-08_18h35.31.652,TranslationElicitation_spa,3.2.4,Win32,60,5ede16d21b8bce022ee5dd32,3.114000082,1,0,80,67,1,79
,,,,,,,,,,,,,,,,,,,,,,,,,,,,,,,,,,,,,,,,,,,,,175,raspall,Catalan,Sounds/cat_raspall.mp3,2020-06-08_18h35.31.652,TranslationElicitation_spa,3.2.4,Win32,60,5ede16d21b8bce022ee5dd32,,1,0,80,67,1,79
,,,,,,,,,,,,,,,,,,,,,,,,,,,,,,,,,,,s,1.815000057,S,FALSE,,,,,,,177,sol,Catalan,Sounds/cat_sol.mp3,2020-06-08_18h35.31.652,TranslationElicitation_spa,3.2.4,Win32,60,5ede16d21b8bce022ee5dd32,,1,0,80,69,1,79
,,,,,,,,,,,,,,,,,,,,,,,,,,,,,,,,,,,o,1.914999962,SO,FALSE,,,,,,,177,sol,Catalan,Sounds/cat_sol.mp3,2020-06-08_18h35.31.652,TranslationElicitation_spa,3.2.4,Win32,60,5ede16d21b8bce022ee5dd32,,1,0,80,69,1,79
,,,,,,,,,,,,,,,,,,,,,,,,,,,,,,,,,,,l,2.036000013,SOL,FALSE,,,,,,,177,sol,Catalan,Sounds/cat_sol.mp3,2020-06-08_18h35.31.652,TranslationElicitation_spa,3.2.4,Win32,60,5ede16d21b8bce022ee5dd32,,1,0,80,69,1,79
,,,,,,,,,,,,,,,,,,,,,,,,,,,,,,,,,,,return,2.214999914,,FALSE,,,,,,,177,sol,Catalan,Sounds/cat_sol.mp3,2020-06-08_18h35.31.652,TranslationElicitation_spa,3.2.4,Win32,60,5ede16d21b8bce022ee5dd32,2.214999914,1,0,80,69,1,79
,,,,,,,,,,,,,,,,,,,,,,,,,,,,,,,,,,,,,,,,,,,,,177,sol,Catalan,Sounds/cat_sol.mp3,2020-06-08_18h35.31.652,TranslationElicitation_spa,3.2.4,Win32,60,5ede16d21b8bce022ee5dd32,,1,0,80,69,1,79
,,,,,,,,,,,,,,,,,,,,,,,,,,,,,,,,,,,t,1.148999929,T,FALSE,,,,,,,181,tobogan,Catalan,Sounds/cat_tobogan.mp3,2020-06-08_18h35.31.652,TranslationElicitation_spa,3.2.4,Win32,60,5ede16d21b8bce022ee5dd32,,1,0,80,72,1,79
,,,,,,,,,,,,,,,,,,,,,,,,,,,,,,,,,,,o,1.297999859,TO,FALSE,,,,,,,181,tobogan,Catalan,Sounds/cat_tobogan.mp3,2020-06-08_18h35.31.652,TranslationElicitation_spa,3.2.4,Win32,60,5ede16d21b8bce022ee5dd32,,1,0,80,72,1,79
,,,,,,,,,,,,,,,,,,,,,,,,,,,,,,,,,,,o,1.731999874,TOO,FALSE,,,,,,,181,tobogan,Catalan,Sounds/cat_tobogan.mp3,2020-06-08_18h35.31.652,TranslationElicitation_spa,3.2.4,Win32,60,5ede16d21b8bce022ee5dd32,,1,0,80,72,1,79
,,,,,,,,,,,,,,,,,,,,,,,,,,,,,,,,,,,backspace,1.981999874,T,TRUE,,,,,,,181,tobogan,Catalan,Sounds/cat_tobogan.mp3,2020-06-08_18h35.31.652,TranslationElicitation_spa,3.2.4,Win32,60,5ede16d21b8bce022ee5dd32,,1,0,80,72,1,79
,,,,,,,,,,,,,,,,,,,,,,,,,,,,,,,,,,,b,2.148000002,TB,TRUE,,,,,,,181,tobogan,Catalan,Sounds/cat_tobogan.mp3,2020-06-08_18h35.31.652,TranslationElicitation_spa,3.2.4,Win32,60,5ede16d21b8bce022ee5dd32,,1,0,80,72,1,79
,,,,,,,,,,,,,,,,,,,,,,,,,,,,,,,,,,,o,2.297999859,TBO,TRUE,,,,,,,181,tobogan,Catalan,Sounds/cat_tobogan.mp3,2020-06-08_18h35.31.652,TranslationElicitation_spa,3.2.4,Win32,60,5ede16d21b8bce022ee5dd32,,1,0,80,72,1,79
,,,,,,,,,,,,,,,,,,,,,,,,,,,,,,,,,,,g,2.381999969,TBOG,TRUE,,,,,,,181,tobogan,Catalan,Sounds/cat_tobogan.mp3,2020-06-08_18h35.31.652,TranslationElicitation_spa,3.2.4,Win32,60,5ede16d21b8bce022ee5dd32,,1,0,80,72,1,79
,,,,,,,,,,,,,,,,,,,,,,,,,,,,,,,,,,,backspace,2.747999907,TB,TRUE,,,,,,,181,tobogan,Catalan,Sounds/cat_tobogan.mp3,2020-06-08_18h35.31.652,TranslationElicitation_spa,3.2.4,Win32,60,5ede16d21b8bce022ee5dd32,,1,0,80,72,1,79
,,,,,,,,,,,,,,,,,,,,,,,,,,,,,,,,,,,backspace,2.881000042,,TRUE,,,,,,,181,tobogan,Catalan,Sounds/cat_tobogan.mp3,2020-06-08_18h35.31.652,TranslationElicitation_spa,3.2.4,Win32,60,5ede16d21b8bce022ee5dd32,,1,0,80,72,1,79
,,,,,,,,,,,,,,,,,,,,,,,,,,,,,,,,,,,backspace,3.014999866,,TRUE,,,,,,,181,tobogan,Catalan,Sounds/cat_tobogan.mp3,2020-06-08_18h35.31.652,TranslationElicitation_spa,3.2.4,Win32,60,5ede16d21b8bce022ee5dd32,,1,0,80,72,1,79
,,,,,,,,,,,,,,,,,,,,,,,,,,,,,,,,,,,o,3.065000057,O,TRUE,,,,,,,181,tobogan,Catalan,Sounds/cat_tobogan.mp3,2020-06-08_18h35.31.652,TranslationElicitation_spa,3.2.4,Win32,60,5ede16d21b8bce022ee5dd32,,1,0,80,72,1,79
,,,,,,,,,,,,,,,,,,,,,,,,,,,,,,,,,,,backspace,3.481999874,,TRUE,,,,,,,181,tobogan,Catalan,Sounds/cat_tobogan.mp3,2020-06-08_18h35.31.652,TranslationElicitation_spa,3.2.4,Win32,60,5ede16d21b8bce022ee5dd32,,1,0,80,72,1,79
,,,,,,,,,,,,,,,,,,,,,,,,,,,,,,,,,,,t,4.297999859,T,TRUE,,,,,,,181,tobogan,Catalan,Sounds/cat_tobogan.mp3,2020-06-08_18h35.31.652,TranslationElicitation_spa,3.2.4,Win32,60,5ede16d21b8bce022ee5dd32,,1,0,80,72,1,79
,,,,,,,,,,,,,,,,,,,,,,,,,,,,,,,,,,,o,4.414000034,TO,TRUE,,,,,,,181,tobogan,Catalan,Sounds/cat_tobogan.mp3,2020-06-08_18h35.31.652,TranslationElicitation_spa,3.2.4,Win32,60,5ede16d21b8bce022ee5dd32,,1,0,80,72,1,79
,,,,,,,,,,,,,,,,,,,,,,,,,,,,,,,,,,,b,4.631000042,TOB,TRUE,,,,,,,181,tobogan,Catalan,Sounds/cat_tobogan.mp3,2020-06-08_18h35.31.652,TranslationElicitation_spa,3.2.4,Win32,60,5ede16d21b8bce022ee5dd32,,1,0,80,72,1,79
,,,,,,,,,,,,,,,,,,,,,,,,,,,,,,,,,,,o,4.830999851,TOBO,TRUE,,,,,,,181,tobogan,Catalan,Sounds/cat_tobogan.mp3,2020-06-08_18h35.31.652,TranslationElicitation_spa,3.2.4,Win32,60,5ede16d21b8bce022ee5dd32,,1,0,80,72,1,79
,,,,,,,,,,,,,,,,,,,,,,,,,,,,,,,,,,,g,4.947999954,TOBOG,TRUE,,,,,,,181,tobogan,Catalan,Sounds/cat_tobogan.mp3,2020-06-08_18h35.31.652,TranslationElicitation_spa,3.2.4,Win32,60,5ede16d21b8bce022ee5dd32,,1,0,80,72,1,79
,,,,,,,,,,,,,,,,,,,,,,,,,,,,,,,,,,,apostrophe,5.164000034,TOBOG,TRUE,,,,,,,181,tobogan,Catalan,Sounds/cat_tobogan.mp3,2020-06-08_18h35.31.652,TranslationElicitation_spa,3.2.4,Win32,60,5ede16d21b8bce022ee5dd32,,1,0,80,72,1,79
,,,,,,,,,,,,,,,,,,,,,,,,,,,,,,,,,,,a,5.264999866,TOBOGÁ,TRUE,,,,,,,181,tobogan,Catalan,Sounds/cat_tobogan.mp3,2020-06-08_18h35.31.652,TranslationElicitation_spa,3.2.4,Win32,60,5ede16d21b8bce022ee5dd32,,1,0,80,72,1,79
,,,,,,,,,,,,,,,,,,,,,,,,,,,,,,,,,,,n,5.398000002,TOBOGÁN,TRUE,,,,,,,181,tobogan,Catalan,Sounds/cat_tobogan.mp3,2020-06-08_18h35.31.652,TranslationElicitation_spa,3.2.4,Win32,60,5ede16d21b8bce022ee5dd32,,1,0,80,72,1,79
,,,,,,,,,,,,,,,,,,,,,,,,,,,,,,,,,,,return,5.631000042,,TRUE,,,,,,,181,tobogan,Catalan,Sounds/cat_tobogan.mp3,2020-06-08_18h35.31.652,TranslationElicitation_spa,3.2.4,Win32,60,5ede16d21b8bce022ee5dd32,5.631000042,1,0,80,72,1,79
,,,,,,,,,,,,,,,,,,,,,,,,,,,,,,,,,,,,,,,,,,,,,181,tobogan,Catalan,Sounds/cat_tobogan.mp3,2020-06-08_18h35.31.652,TranslationElicitation_spa,3.2.4,Win32,60,5ede16d21b8bce022ee5dd32,,1,0,80,72,1,79
,,,,,,,,,,,,,,,,,,,,,,,,,,,,,,,,,,,m,4.911999941,M,FALSE,,,,,,,154,mirall,Catalan,Sounds/cat_mirall.mp3,2020-06-08_18h35.31.652,TranslationElicitation_spa,3.2.4,Win32,60,5ede16d21b8bce022ee5dd32,,1,0,80,48,1,79
,,,,,,,,,,,,,,,,,,,,,,,,,,,,,,,,,,,i,5.06099987,MI,FALSE,,,,,,,154,mirall,Catalan,Sounds/cat_mirall.mp3,2020-06-08_18h35.31.652,TranslationElicitation_spa,3.2.4,Win32,60,5ede16d21b8bce022ee5dd32,,1,0,80,48,1,79
,,,,,,,,,,,,,,,,,,,,,,,,,,,,,,,,,,,r,5.144999981,MIR,FALSE,,,,,,,154,mirall,Catalan,Sounds/cat_mirall.mp3,2020-06-08_18h35.31.652,TranslationElicitation_spa,3.2.4,Win32,60,5ede16d21b8bce022ee5dd32,,1,0,80,48,1,79
,,,,,,,,,,,,,,,,,,,,,,,,,,,,,,,,,,,a,5.277999878,MIRA,FALSE,,,,,,,154,mirall,Catalan,Sounds/cat_mirall.mp3,2020-06-08_18h35.31.652,TranslationElicitation_spa,3.2.4,Win32,60,5ede16d21b8bce022ee5dd32,,1,0,80,48,1,79
,,,,,,,,,,,,,,,,,,,,,,,,,,,,,,,,,,,d,5.31099987,MIRAD,FALSE,,,,,,,154,mirall,Catalan,Sounds/cat_mirall.mp3,2020-06-08_18h35.31.652,TranslationElicitation_spa,3.2.4,Win32,60,5ede16d21b8bce022ee5dd32,,1,0,80,48,1,79
,,,,,,,,,,,,,,,,,,,,,,,,,,,,,,,,,,,return,5.644999981,,FALSE,,,,,,,154,mirall,Catalan,Sounds/cat_mirall.mp3,2020-06-08_18h35.31.652,TranslationElicitation_spa,3.2.4,Win32,60,5ede16d21b8bce022ee5dd32,5.644999981,1,0,80,48,1,79
,,,,,,,,,,,,,,,,,,,,,,,,,,,,,,,,,,,,,,,,,,,,,154,mirall,Catalan,Sounds/cat_mirall.mp3,2020-06-08_18h35.31.652,TranslationElicitation_spa,3.2.4,Win32,60,5ede16d21b8bce022ee5dd32,,1,0,80,48,1,79
,,,,,,,,,,,,,,,,,,,,,,,,,,,,,,,,,,,p,4.230999947,P,FALSE,,,,,,,111,bibero,Catalan,Sounds/cat_bibero.mp3,2020-06-08_18h35.31.652,TranslationElicitation_spa,3.2.4,Win32,60,5ede16d21b8bce022ee5dd32,,1,0,80,6,1,79
,,,,,,,,,,,,,,,,,,,,,,,,,,,,,,,,,,,apostrophe,4.529999971,P,FALSE,,,,,,,111,bibero,Catalan,Sounds/cat_bibero.mp3,2020-06-08_18h35.31.652,TranslationElicitation_spa,3.2.4,Win32,60,5ede16d21b8bce022ee5dd32,,1,0,80,6,1,79
,,,,,,,,,,,,,,,,,,,,,,,,,,,,,,,,,,,a,4.630000114,PÁ,FALSE,,,,,,,111,bibero,Catalan,Sounds/cat_bibero.mp3,2020-06-08_18h35.31.652,TranslationElicitation_spa,3.2.4,Win32,60,5ede16d21b8bce022ee5dd32,,1,0,80,6,1,79
,,,,,,,,,,,,,,,,,,,,,,,,,,,,,,,,,,,j,4.802999973,PÁJ,FALSE,,,,,,,111,bibero,Catalan,Sounds/cat_bibero.mp3,2020-06-08_18h35.31.652,TranslationElicitation_spa,3.2.4,Win32,60,5ede16d21b8bce022ee5dd32,,1,0,80,6,1,79
,,,,,,,,,,,,,,,,,,,,,,,,,,,,,,,,,,,a,4.880000114,PÁJA,FALSE,,,,,,,111,bibero,Catalan,Sounds/cat_bibero.mp3,2020-06-08_18h35.31.652,TranslationElicitation_spa,3.2.4,Win32,60,5ede16d21b8bce022ee5dd32,,1,0,80,6,1,79
,,,,,,,,,,,,,,,,,,,,,,,,,,,,,,,,,,,r,5.029999971,PÁJAR,FALSE,,,,,,,111,bibero,Catalan,Sounds/cat_bibero.mp3,2020-06-08_18h35.31.652,TranslationElicitation_spa,3.2.4,Win32,60,5ede16d21b8bce022ee5dd32,,1,0,80,6,1,79
,,,,,,,,,,,,,,,,,,,,,,,,,,,,,,,,,,,o,5.647000074,PÁJARO,FALSE,,,,,,,111,bibero,Catalan,Sounds/cat_bibero.mp3,2020-06-08_18h35.31.652,TranslationElicitation_spa,3.2.4,Win32,60,5ede16d21b8bce022ee5dd32,,1,0,80,6,1,79
,,,,,,,,,,,,,,,,,,,,,,,,,,,,,,,,,,,return,5.996999979,,FALSE,,,,,,,111,bibero,Catalan,Sounds/cat_bibero.mp3,2020-06-08_18h35.31.652,TranslationElicitation_spa,3.2.4,Win32,60,5ede16d21b8bce022ee5dd32,5.996999979,1,0,80,6,1,79
,,,,,,,,,,,,,,,,,,,,,,,,,,,,,,,,,,,,,,,,,,,,,111,bibero,Catalan,Sounds/cat_bibero.mp3,2020-06-08_18h35.31.652,TranslationElicitation_spa,3.2.4,Win32,60,5ede16d21b8bce022ee5dd32,,1,0,80,6,1,79
,,,,,,,,,,,,,,,,,,,,,,,,,,,,,,,,,,,c,2.736999989,C,FALSE,,,,,,,125,colom,Catalan,Sounds/cat_colom.mp3,2020-06-08_18h35.31.652,TranslationElicitation_spa,3.2.4,Win32,60,5ede16d21b8bce022ee5dd32,,1,0,80,20,1,79
,,,,,,,,,,,,,,,,,,,,,,,,,,,,,,,,,,,u,2.902999878,CU,FALSE,,,,,,,125,colom,Catalan,Sounds/cat_colom.mp3,2020-06-08_18h35.31.652,TranslationElicitation_spa,3.2.4,Win32,60,5ede16d21b8bce022ee5dd32,,1,0,80,20,1,79
,,,,,,,,,,,,,,,,,,,,,,,,,,,,,,,,,,,l,3.138000011,CUL,FALSE,,,,,,,125,colom,Catalan,Sounds/cat_colom.mp3,2020-06-08_18h35.31.652,TranslationElicitation_spa,3.2.4,Win32,60,5ede16d21b8bce022ee5dd32,,1,0,80,20,1,79
,,,,,,,,,,,,,,,,,,,,,,,,,,,,,,,,,,,o,3.269999981,CULO,FALSE,,,,,,,125,colom,Catalan,Sounds/cat_colom.mp3,2020-06-08_18h35.31.652,TranslationElicitation_spa,3.2.4,Win32,60,5ede16d21b8bce022ee5dd32,,1,0,80,20,1,79
,,,,,,,,,,,,,,,,,,,,,,,,,,,,,,,,,,,return,3.503000021,,FALSE,,,,,,,125,colom,Catalan,Sounds/cat_colom.mp3,2020-06-08_18h35.31.652,TranslationElicitation_spa,3.2.4,Win32,60,5ede16d21b8bce022ee5dd32,3.503000021,1,0,80,20,1,79
,,,,,,,,,,,,,,,,,,,,,,,,,,,,,,,,,,,,,,,,,,,,,125,colom,Catalan,Sounds/cat_colom.mp3,2020-06-08_18h35.31.652,TranslationElicitation_spa,3.2.4,Win32,60,5ede16d21b8bce022ee5dd32,,1,0,80,20,1,79
,,,,,,,,,,,,,,,,,,,,,,,,,,,,,,,,,,,d,2.448000193,D,FALSE,,,,,,,129,dit,Catalan,Sounds/cat_dit.mp3,2020-06-08_18h35.31.652,TranslationElicitation_spa,3.2.4,Win32,60,5ede16d21b8bce022ee5dd32,,1,0,80,24,1,79
,,,,,,,,,,,,,,,,,,,,,,,,,,,,,,,,,,,i,2.56400013,DI,FALSE,,,,,,,129,dit,Catalan,Sounds/cat_dit.mp3,2020-06-08_18h35.31.652,TranslationElicitation_spa,3.2.4,Win32,60,5ede16d21b8bce022ee5dd32,,1,0,80,24,1,79
,,,,,,,,,,,,,,,,,,,,,,,,,,,,,,,,,,,c,2.631000042,DIC,FALSE,,,,,,,129,dit,Catalan,Sounds/cat_dit.mp3,2020-06-08_18h35.31.652,TranslationElicitation_spa,3.2.4,Win32,60,5ede16d21b8bce022ee5dd32,,1,0,80,24,1,79
,,,,,,,,,,,,,,,,,,,,,,,,,,,,,,,,,,,e,2.798000097,DICE,FALSE,,,,,,,129,dit,Catalan,Sounds/cat_dit.mp3,2020-06-08_18h35.31.652,TranslationElicitation_spa,3.2.4,Win32,60,5ede16d21b8bce022ee5dd32,,1,0,80,24,1,79
,,,,,,,,,,,,,,,,,,,,,,,,,,,,,,,,,,,backspace,3.465000153,DI,TRUE,,,,,,,129,dit,Catalan,Sounds/cat_dit.mp3,2020-06-08_18h35.31.652,TranslationElicitation_spa,3.2.4,Win32,60,5ede16d21b8bce022ee5dd32,,1,0,80,24,1,79
,,,,,,,,,,,,,,,,,,,,,,,,,,,,,,,,,,,backspace,3.631000042,,TRUE,,,,,,,129,dit,Catalan,Sounds/cat_dit.mp3,2020-06-08_18h35.31.652,TranslationElicitation_spa,3.2.4,Win32,60,5ede16d21b8bce022ee5dd32,,1,0,80,24,1,79
,,,,,,,,,,,,,,,,,,,,,,,,,,,,,,,,,,,g,3.664000034,G,TRUE,,,,,,,129,dit,Catalan,Sounds/cat_dit.mp3,2020-06-08_18h35.31.652,TranslationElicitation_spa,3.2.4,Win32,60,5ede16d21b8bce022ee5dd32,,1,0,80,24,1,79
,,,,,,,,,,,,,,,,,,,,,,,,,,,,,,,,,,,o,3.781000137,GO,TRUE,,,,,,,129,dit,Catalan,Sounds/cat_dit.mp3,2020-06-08_18h35.31.652,TranslationElicitation_spa,3.2.4,Win32,60,5ede16d21b8bce022ee5dd32,,1,0,80,24,1,79
,,,,,,,,,,,,,,,,,,,,,,,,,,,,,,,,,,,backspace,4.215000153,,TRUE,,,,,,,129,dit,Catalan,Sounds/cat_dit.mp3,2020-06-08_18h35.31.652,TranslationElicitation_spa,3.2.4,Win32,60,5ede16d21b8bce022ee5dd32,,1,0,80,24,1,79
,,,,,,,,,,,,,,,,,,,,,,,,,,,,,,,,,,,backspace,4.34800005,,TRUE,,,,,,,129,dit,Catalan,Sounds/cat_dit.mp3,2020-06-08_18h35.31.652,TranslationElicitation_spa,3.2.4,Win32,60,5ede16d21b8bce022ee5dd32,,1,0,80,24,1,79
,,,,,,,,,,,,,,,,,,,,,,,,,,,,,,,,,,,d,4.465000153,D,TRUE,,,,,,,129,dit,Catalan,Sounds/cat_dit.mp3,2020-06-08_18h35.31.652,TranslationElicitation_spa,3.2.4,Win32,60,5ede16d21b8bce022ee5dd32,,1,0,80,24,1,79
,,,,,,,,,,,,,,,,,,,,,,,,,,,,,,,,,,,i,5.08100009,DI,TRUE,,,,,,,129,dit,Catalan,Sounds/cat_dit.mp3,2020-06-08_18h35.31.652,TranslationElicitation_spa,3.2.4,Win32,60,5ede16d21b8bce022ee5dd32,,1,0,80,24,1,79
,,,,,,,,,,,,,,,,,,,,,,,,,,,,,,,,,,,g,5.231000185,DIG,TRUE,,,,,,,129,dit,Catalan,Sounds/cat_dit.mp3,2020-06-08_18h35.31.652,TranslationElicitation_spa,3.2.4,Win32,60,5ede16d21b8bce022ee5dd32,,1,0,80,24,1,79
,,,,,,,,,,,,,,,,,,,,,,,,,,,,,,,,,,,o,5.347000122,DIGO,TRUE,,,,,,,129,dit,Catalan,Sounds/cat_dit.mp3,2020-06-08_18h35.31.652,TranslationElicitation_spa,3.2.4,Win32,60,5ede16d21b8bce022ee5dd32,,1,0,80,24,1,79
,,,,,,,,,,,,,,,,,,,,,,,,,,,,,,,,,,,return,5.614000082,,TRUE,,,,,,,129,dit,Catalan,Sounds/cat_dit.mp3,2020-06-08_18h35.31.652,TranslationElicitation_spa,3.2.4,Win32,60,5ede16d21b8bce022ee5dd32,5.614000082,1,0,80,24,1,79
,,,,,,,,,,,,,,,,,,,,,,,,,,,,,,,,,,,,,,,,,,,,,129,dit,Catalan,Sounds/cat_dit.mp3,2020-06-08_18h35.31.652,TranslationElicitation_spa,3.2.4,Win32,60,5ede16d21b8bce022ee5dd32,,1,0,80,24,1,79
,,,,,,,,,,,,,,,,,,,,,,,,,,,,,,,,,,,g,1.95600009,G,FALSE,,,,,,,143,globus,Catalan,Sounds/cat_globus.mp3,2020-06-08_18h35.31.652,TranslationElicitation_spa,3.2.4,Win32,60,5ede16d21b8bce022ee5dd32,,1,0,80,38,1,79
,,,,,,,,,,,,,,,,,,,,,,,,,,,,,,,,,,,l,2.022000074,GL,FALSE,,,,,,,143,globus,Catalan,Sounds/cat_globus.mp3,2020-06-08_18h35.31.652,TranslationElicitation_spa,3.2.4,Win32,60,5ede16d21b8bce022ee5dd32,,1,0,80,38,1,79
,,,,,,,,,,,,,,,,,,,,,,,,,,,,,,,,,,,o,2.156000137,GLO,FALSE,,,,,,,143,globus,Catalan,Sounds/cat_globus.mp3,2020-06-08_18h35.31.652,TranslationElicitation_spa,3.2.4,Win32,60,5ede16d21b8bce022ee5dd32,,1,0,80,38,1,79
,,,,,,,,,,,,,,,,,,,,,,,,,,,,,,,,,,,b,2.22300005,GLOB,FALSE,,,,,,,143,globus,Catalan,Sounds/cat_globus.mp3,2020-06-08_18h35.31.652,TranslationElicitation_spa,3.2.4,Win32,60,5ede16d21b8bce022ee5dd32,,1,0,80,38,1,79
,,,,,,,,,,,,,,,,,,,,,,,,,,,,,,,,,,,o,2.305999994,GLOBO,FALSE,,,,,,,143,globus,Catalan,Sounds/cat_globus.mp3,2020-06-08_18h35.31.652,TranslationElicitation_spa,3.2.4,Win32,60,5ede16d21b8bce022ee5dd32,,1,0,80,38,1,79
,,,,,,,,,,,,,,,,,,,,,,,,,,,,,,,,,,,s,2.43900013,GLOBOS,FALSE,,,,,,,143,globus,Catalan,Sounds/cat_globus.mp3,2020-06-08_18h35.31.652,TranslationElicitation_spa,3.2.4,Win32,60,5ede16d21b8bce022ee5dd32,,1,0,80,38,1,79
,,,,,,,,,,,,,,,,,,,,,,,,,,,,,,,,,,,return,2.704999924,,FALSE,,,,,,,143,globus,Catalan,Sounds/cat_globus.mp3,2020-06-08_18h35.31.652,TranslationElicitation_spa,3.2.4,Win32,60,5ede16d21b8bce022ee5dd32,2.704999924,1,0,80,38,1,79
,,,,,,,,,,,,,,,,,,,,,,,,,,,,,,,,,,,,,,,,,,,,,143,globus,Catalan,Sounds/cat_globus.mp3,2020-06-08_18h35.31.652,TranslationElicitation_spa,3.2.4,Win32,60,5ede16d21b8bce022ee5dd32,,1,0,80,38,1,79
,,,,,,,,,,,,,,,,,,,,,,,,,,,,,,,,,,,l,1.732000113,L,FALSE,,,,,,,151,lluna,Catalan,Sounds/cat_lluna.mp3,2020-06-08_18h35.31.652,TranslationElicitation_spa,3.2.4,Win32,60,5ede16d21b8bce022ee5dd32,,1,0,80,45,1,79
,,,,,,,,,,,,,,,,,,,,,,,,,,,,,,,,,,,u,1.898000002,LU,FALSE,,,,,,,151,lluna,Catalan,Sounds/cat_lluna.mp3,2020-06-08_18h35.31.652,TranslationElicitation_spa,3.2.4,Win32,60,5ede16d21b8bce022ee5dd32,,1,0,80,45,1,79
,,,,,,,,,,,,,,,,,,,,,,,,,,,,,,,,,,,n,2.030999899,LUN,FALSE,,,,,,,151,lluna,Catalan,Sounds/cat_lluna.mp3,2020-06-08_18h35.31.652,TranslationElicitation_spa,3.2.4,Win32,60,5ede16d21b8bce022ee5dd32,,1,0,80,45,1,79
,,,,,,,,,,,,,,,,,,,,,,,,,,,,,,,,,,,a,2.11500001,LUNA,FALSE,,,,,,,151,lluna,Catalan,Sounds/cat_lluna.mp3,2020-06-08_18h35.31.652,TranslationElicitation_spa,3.2.4,Win32,60,5ede16d21b8bce022ee5dd32,,1,0,80,45,1,79
,,,,,,,,,,,,,,,,,,,,,,,,,,,,,,,,,,,return,2.214999914,,FALSE,,,,,,,151,lluna,Catalan,Sounds/cat_lluna.mp3,2020-06-08_18h35.31.652,TranslationElicitation_spa,3.2.4,Win32,60,5ede16d21b8bce022ee5dd32,2.214999914,1,0,80,45,1,79
,,,,,,,,,,,,,,,,,,,,,,,,,,,,,,,,,,,,,,,,,,,,,151,lluna,Catalan,Sounds/cat_lluna.mp3,2020-06-08_18h35.31.652,TranslationElicitation_spa,3.2.4,Win32,60,5ede16d21b8bce022ee5dd32,,1,0,80,45,1,79
,,,,,,,,,,,,,,,,,,,,,,,,,,,,,,,,,,,g,11.44499993,G,FALSE,,,,,,,170,ploma,Catalan,Sounds/cat_ploma.mp3,2020-06-08_18h35.31.652,TranslationElicitation_spa,3.2.4,Win32,60,5ede16d21b8bce022ee5dd32,,1,0,80,62,1,79
,,,,,,,,,,,,,,,,,,,,,,,,,,,,,,,,,,,o,11.81200004,GO,FALSE,,,,,,,170,ploma,Catalan,Sounds/cat_ploma.mp3,2020-06-08_18h35.31.652,TranslationElicitation_spa,3.2.4,Win32,60,5ede16d21b8bce022ee5dd32,,1,0,80,62,1,79
,,,,,,,,,,,,,,,,,,,,,,,,,,,,,,,,,,,m,11.99500012,GOM,FALSE,,,,,,,170,ploma,Catalan,Sounds/cat_ploma.mp3,2020-06-08_18h35.31.652,TranslationElicitation_spa,3.2.4,Win32,60,5ede16d21b8bce022ee5dd32,,1,0,80,62,1,79
,,,,,,,,,,,,,,,,,,,,,,,,,,,,,,,,,,,a,12.06200004,GOMA,FALSE,,,,,,,170,ploma,Catalan,Sounds/cat_ploma.mp3,2020-06-08_18h35.31.652,TranslationElicitation_spa,3.2.4,Win32,60,5ede16d21b8bce022ee5dd32,,1,0,80,62,1,79
,,,,,,,,,,,,,,,,,,,,,,,,,,,,,,,,,,,return,12.36199999,,FALSE,,,,,,,170,ploma,Catalan,Sounds/cat_ploma.mp3,2020-06-08_18h35.31.652,TranslationElicitation_spa,3.2.4,Win32,60,5ede16d21b8bce022ee5dd32,12.36199999,1,0,80,62,1,79
,,,,,,,,,,,,,,,,,,,,,,,,,,,,,,,,,,,,,,,,,,,,,170,ploma,Catalan,Sounds/cat_ploma.mp3,2020-06-08_18h35.31.652,TranslationElicitation_spa,3.2.4,Win32,60,5ede16d21b8bce022ee5dd32,,1,0,80,62,1,79
,,,,,,,,,,,,,,,,,,,,,,,,,,,,,,,,,,,l,2.40500021,L,FALSE,,,,,,,150,lloro,Catalan,Sounds/cat_lloro.mp3,2020-06-08_18h35.31.652,TranslationElicitation_spa,3.2.4,Win32,60,5ede16d21b8bce022ee5dd32,,1,0,80,44,1,79
,,,,,,,,,,,,,,,,,,,,,,,,,,,,,,,,,,,l,2.555000067,LL,FALSE,,,,,,,150,lloro,Catalan,Sounds/cat_lloro.mp3,2020-06-08_18h35.31.652,TranslationElicitation_spa,3.2.4,Win32,60,5ede16d21b8bce022ee5dd32,,1,0,80,44,1,79
,,,,,,,,,,,,,,,,,,,,,,,,,,,,,,,,,,,o,2.705000162,LLO,FALSE,,,,,,,150,lloro,Catalan,Sounds/cat_lloro.mp3,2020-06-08_18h35.31.652,TranslationElicitation_spa,3.2.4,Win32,60,5ede16d21b8bce022ee5dd32,,1,0,80,44,1,79
,,,,,,,,,,,,,,,,,,,,,,,,,,,,,,,,,,,r,2.788000107,LLOR,FALSE,,,,,,,150,lloro,Catalan,Sounds/cat_lloro.mp3,2020-06-08_18h35.31.652,TranslationElicitation_spa,3.2.4,Win32,60,5ede16d21b8bce022ee5dd32,,1,0,80,44,1,79
,,,,,,,,,,,,,,,,,,,,,,,,,,,,,,,,,,,o,2.838000059,LLORO,FALSE,,,,,,,150,lloro,Catalan,Sounds/cat_lloro.mp3,2020-06-08_18h35.31.652,TranslationElicitation_spa,3.2.4,Win32,60,5ede16d21b8bce022ee5dd32,,1,0,80,44,1,79
,,,,,,,,,,,,,,,,,,,,,,,,,,,,,,,,,,,return,3.038000107,,FALSE,,,,,,,150,lloro,Catalan,Sounds/cat_lloro.mp3,2020-06-08_18h35.31.652,TranslationElicitation_spa,3.2.4,Win32,60,5ede16d21b8bce022ee5dd32,3.038000107,1,0,80,44,1,79
,,,,,,,,,,,,,,,,,,,,,,,,,,,,,,,,,,,,,,,,,,,,,150,lloro,Catalan,Sounds/cat_lloro.mp3,2020-06-08_18h35.31.652,TranslationElicitation_spa,3.2.4,Win32,60,5ede16d21b8bce022ee5dd32,,1,0,80,44,1,79
,,,,,,,,,,,,,,,,,,,,,,,,,,,,,,,,,,,u,1.082000017,U,FALSE,,,,,,,146,guitarra,Catalan,Sounds/cat_guitarra.mp3,2020-06-08_18h35.31.652,TranslationElicitation_spa,3.2.4,Win32,60,5ede16d21b8bce022ee5dd32,,1,0,80,41,1,79
,,,,,,,,,,,,,,,,,,,,,,,,,,,,,,,,,,,i,1.11500001,UI,FALSE,,,,,,,146,guitarra,Catalan,Sounds/cat_guitarra.mp3,2020-06-08_18h35.31.652,TranslationElicitation_spa,3.2.4,Win32,60,5ede16d21b8bce022ee5dd32,,1,0,80,41,1,79
,,,,,,,,,,,,,,,,,,,,,,,,,,,,,,,,,,,backspace,1.59800005,,TRUE,,,,,,,146,guitarra,Catalan,Sounds/cat_guitarra.mp3,2020-06-08_18h35.31.652,TranslationElicitation_spa,3.2.4,Win32,60,5ede16d21b8bce022ee5dd32,,1,0,80,41,1,79
,,,,,,,,,,,,,,,,,,,,,,,,,,,,,,,,,,,backspace,1.715000153,,TRUE,,,,,,,146,guitarra,Catalan,Sounds/cat_guitarra.mp3,2020-06-08_18h35.31.652,TranslationElicitation_spa,3.2.4,Win32,60,5ede16d21b8bce022ee5dd32,,1,0,80,41,1,79
,,,,,,,,,,,,,,,,,,,,,,,,,,,,,,,,,,,g,1.798000097,G,TRUE,,,,,,,146,guitarra,Catalan,Sounds/cat_guitarra.mp3,2020-06-08_18h35.31.652,TranslationElicitation_spa,3.2.4,Win32,60,5ede16d21b8bce022ee5dd32,,1,0,80,41,1,79
,,,,,,,,,,,,,,,,,,,,,,,,,,,,,,,,,,,u,1.881999969,GU,TRUE,,,,,,,146,guitarra,Catalan,Sounds/cat_guitarra.mp3,2020-06-08_18h35.31.652,TranslationElicitation_spa,3.2.4,Win32,60,5ede16d21b8bce022ee5dd32,,1,0,80,41,1,79
,,,,,,,,,,,,,,,,,,,,,,,,,,,,,,,,,,,i,1.916000128,GUI,TRUE,,,,,,,146,guitarra,Catalan,Sounds/cat_guitarra.mp3,2020-06-08_18h35.31.652,TranslationElicitation_spa,3.2.4,Win32,60,5ede16d21b8bce022ee5dd32,,1,0,80,41,1,79
,,,,,,,,,,,,,,,,,,,,,,,,,,,,,,,,,,,t,2.032000065,GUIT,TRUE,,,,,,,146,guitarra,Catalan,Sounds/cat_guitarra.mp3,2020-06-08_18h35.31.652,TranslationElicitation_spa,3.2.4,Win32,60,5ede16d21b8bce022ee5dd32,,1,0,80,41,1,79
,,,,,,,,,,,,,,,,,,,,,,,,,,,,,,,,,,,a,2.231000185,GUITA,TRUE,,,,,,,146,guitarra,Catalan,Sounds/cat_guitarra.mp3,2020-06-08_18h35.31.652,TranslationElicitation_spa,3.2.4,Win32,60,5ede16d21b8bce022ee5dd32,,1,0,80,41,1,79
,,,,,,,,,,,,,,,,,,,,,,,,,,,,,,,,,,,r,2.414999962,GUITAR,TRUE,,,,,,,146,guitarra,Catalan,Sounds/cat_guitarra.mp3,2020-06-08_18h35.31.652,TranslationElicitation_spa,3.2.4,Win32,60,5ede16d21b8bce022ee5dd32,,1,0,80,41,1,79
,,,,,,,,,,,,,,,,,,,,,,,,,,,,,,,,,,,r,2.532000065,GUITARR,TRUE,,,,,,,146,guitarra,Catalan,Sounds/cat_guitarra.mp3,2020-06-08_18h35.31.652,TranslationElicitation_spa,3.2.4,Win32,60,5ede16d21b8bce022ee5dd32,,1,0,80,41,1,79
,,,,,,,,,,,,,,,,,,,,,,,,,,,,,,,,,,,a,2.648000002,GUITARRA,TRUE,,,,,,,146,guitarra,Catalan,Sounds/cat_guitarra.mp3,2020-06-08_18h35.31.652,TranslationElicitation_spa,3.2.4,Win32,60,5ede16d21b8bce022ee5dd32,,1,0,80,41,1,79
,,,,,,,,,,,,,,,,,,,,,,,,,,,,,,,,,,,return,2.765000105,,TRUE,,,,,,,146,guitarra,Catalan,Sounds/cat_guitarra.mp3,2020-06-08_18h35.31.652,TranslationElicitation_spa,3.2.4,Win32,60,5ede16d21b8bce022ee5dd32,2.765000105,1,0,80,41,1,79
,,,,,,,,,,,,,,,,,,,,,,,,,,,,,,,,,,,,,,,,,,,,,146,guitarra,Catalan,Sounds/cat_guitarra.mp3,2020-06-08_18h35.31.652,TranslationElicitation_spa,3.2.4,Win32,60,5ede16d21b8bce022ee5dd32,,1,0,80,41,1,79
,,,,,,,,,,,,,,,,,,,,,,,,,,,,,,,,,,,m,2.266000032,M,FALSE,,,,,,,152,ma,Catalan,Sounds/cat_ma.mp3,2020-06-08_18h35.31.652,TranslationElicitation_spa,3.2.4,Win32,60,5ede16d21b8bce022ee5dd32,,1,0,80,46,1,79
,,,,,,,,,,,,,,,,,,,,,,,,,,,,,,,,,,,a,2.348999977,MA,FALSE,,,,,,,152,ma,Catalan,Sounds/cat_ma.mp3,2020-06-08_18h35.31.652,TranslationElicitation_spa,3.2.4,Win32,60,5ede16d21b8bce022ee5dd32,,1,0,80,46,1,79
,,,,,,,,,,,,,,,,,,,,,,,,,,,,,,,,,,,m,2.415999889,MAM,FALSE,,,,,,,152,ma,Catalan,Sounds/cat_ma.mp3,2020-06-08_18h35.31.652,TranslationElicitation_spa,3.2.4,Win32,60,5ede16d21b8bce022ee5dd32,,1,0,80,46,1,79
,,,,,,,,,,,,,,,,,,,,,,,,,,,,,,,,,,,a,2.631999969,MAMA,FALSE,,,,,,,152,ma,Catalan,Sounds/cat_ma.mp3,2020-06-08_18h35.31.652,TranslationElicitation_spa,3.2.4,Win32,60,5ede16d21b8bce022ee5dd32,,1,0,80,46,1,79
,,,,,,,,,,,,,,,,,,,,,,,,,,,,,,,,,,,backspace,2.915999889,MA,TRUE,,,,,,,152,ma,Catalan,Sounds/cat_ma.mp3,2020-06-08_18h35.31.652,TranslationElicitation_spa,3.2.4,Win32,60,5ede16d21b8bce022ee5dd32,,1,0,80,46,1,79
,,,,,,,,,,,,,,,,,,,,,,,,,,,,,,,,,,,apostrophe,3.131999969,MA,TRUE,,,,,,,152,ma,Catalan,Sounds/cat_ma.mp3,2020-06-08_18h35.31.652,TranslationElicitation_spa,3.2.4,Win32,60,5ede16d21b8bce022ee5dd32,,1,0,80,46,1,79
,,,,,,,,,,,,,,,,,,,,,,,,,,,,,,,,,,,a,3.198999882,MAÁ,TRUE,,,,,,,152,ma,Catalan,Sounds/cat_ma.mp3,2020-06-08_18h35.31.652,TranslationElicitation_spa,3.2.4,Win32,60,5ede16d21b8bce022ee5dd32,,1,0,80,46,1,79
,,,,,,,,,,,,,,,,,,,,,,,,,,,,,,,,,,,backspace,3.71600008,M,TRUE,,,,,,,152,ma,Catalan,Sounds/cat_ma.mp3,2020-06-08_18h35.31.652,TranslationElicitation_spa,3.2.4,Win32,60,5ede16d21b8bce022ee5dd32,,1,0,80,46,1,79
,,,,,,,,,,,,,,,,,,,,,,,,,,,,,,,,,,,m,3.865999937,MM,TRUE,,,,,,,152,ma,Catalan,Sounds/cat_ma.mp3,2020-06-08_18h35.31.652,TranslationElicitation_spa,3.2.4,Win32,60,5ede16d21b8bce022ee5dd32,,1,0,80,46,1,79
,,,,,,,,,,,,,,,,,,,,,,,,,,,,,,,,,,,apostrophe,4.132999897,MM,TRUE,,,,,,,152,ma,Catalan,Sounds/cat_ma.mp3,2020-06-08_18h35.31.652,TranslationElicitation_spa,3.2.4,Win32,60,5ede16d21b8bce022ee5dd32,,1,0,80,46,1,79
,,,,,,,,,,,,,,,,,,,,,,,,,,,,,,,,,,,a,4.198999882,MMÁ,TRUE,,,,,,,152,ma,Catalan,Sounds/cat_ma.mp3,2020-06-08_18h35.31.652,TranslationElicitation_spa,3.2.4,Win32,60,5ede16d21b8bce022ee5dd32,,1,0,80,46,1,79
,,,,,,,,,,,,,,,,,,,,,,,,,,,,,,,,,,,backspace,4.53399992,M,TRUE,,,,,,,152,ma,Catalan,Sounds/cat_ma.mp3,2020-06-08_18h35.31.652,TranslationElicitation_spa,3.2.4,Win32,60,5ede16d21b8bce022ee5dd32,,1,0,80,46,1,79
,,,,,,,,,,,,,,,,,,,,,,,,,,,,,,,,,,,backspace,4.648999929,,TRUE,,,,,,,152,ma,Catalan,Sounds/cat_ma.mp3,2020-06-08_18h35.31.652,TranslationElicitation_spa,3.2.4,Win32,60,5ede16d21b8bce022ee5dd32,,1,0,80,46,1,79
,,,,,,,,,,,,,,,,,,,,,,,,,,,,,,,,,,,a,4.782000065,A,TRUE,,,,,,,152,ma,Catalan,Sounds/cat_ma.mp3,2020-06-08_18h35.31.652,TranslationElicitation_spa,3.2.4,Win32,60,5ede16d21b8bce022ee5dd32,,1,0,80,46,1,79
,,,,,,,,,,,,,,,,,,,,,,,,,,,,,,,,,,,m,4.865999937,AM,TRUE,,,,,,,152,ma,Catalan,Sounds/cat_ma.mp3,2020-06-08_18h35.31.652,TranslationElicitation_spa,3.2.4,Win32,60,5ede16d21b8bce022ee5dd32,,1,0,80,46,1,79
,,,,,,,,,,,,,,,,,,,,,,,,,,,,,,,,,,,apostrophe,5.098999977,AM,TRUE,,,,,,,152,ma,Catalan,Sounds/cat_ma.mp3,2020-06-08_18h35.31.652,TranslationElicitation_spa,3.2.4,Win32,60,5ede16d21b8bce022ee5dd32,,1,0,80,46,1,79
,,,,,,,,,,,,,,,,,,,,,,,,,,,,,,,,,,,backspace,5.381999969,,TRUE,,,,,,,152,ma,Catalan,Sounds/cat_ma.mp3,2020-06-08_18h35.31.652,TranslationElicitation_spa,3.2.4,Win32,60,5ede16d21b8bce022ee5dd32,,1,0,80,46,1,79
,,,,,,,,,,,,,,,,,,,,,,,,,,,,,,,,,,,backspace,5.514999866,,TRUE,,,,,,,152,ma,Catalan,Sounds/cat_ma.mp3,2020-06-08_18h35.31.652,TranslationElicitation_spa,3.2.4,Win32,60,5ede16d21b8bce022ee5dd32,,1,0,80,46,1,79
,,,,,,,,,,,,,,,,,,,,,,,,,,,,,,,,,,,m,5.931999922,,TRUE,,,,,,,152,ma,Catalan,Sounds/cat_ma.mp3,2020-06-08_18h35.31.652,TranslationElicitation_spa,3.2.4,Win32,60,5ede16d21b8bce022ee5dd32,,1,0,80,46,1,79
,,,,,,,,,,,,,,,,,,,,,,,,,,,,,,,,,,,a,6.181999922,Á,TRUE,,,,,,,152,ma,Catalan,Sounds/cat_ma.mp3,2020-06-08_18h35.31.652,TranslationElicitation_spa,3.2.4,Win32,60,5ede16d21b8bce022ee5dd32,,1,0,80,46,1,79
,,,,,,,,,,,,,,,,,,,,,,,,,,,,,,,,,,,m,6.464999914,ÁM,TRUE,,,,,,,152,ma,Catalan,Sounds/cat_ma.mp3,2020-06-08_18h35.31.652,TranslationElicitation_spa,3.2.4,Win32,60,5ede16d21b8bce022ee5dd32,,1,0,80,46,1,79
,,,,,,,,,,,,,,,,,,,,,,,,,,,,,,,,,,,backspace,6.797999859,,TRUE,,,,,,,152,ma,Catalan,Sounds/cat_ma.mp3,2020-06-08_18h35.31.652,TranslationElicitation_spa,3.2.4,Win32,60,5ede16d21b8bce022ee5dd32,,1,0,80,46,1,79
,,,,,,,,,,,,,,,,,,,,,,,,,,,,,,,,,,,backspace,6.948999882,,TRUE,,,,,,,152,ma,Catalan,Sounds/cat_ma.mp3,2020-06-08_18h35.31.652,TranslationElicitation_spa,3.2.4,Win32,60,5ede16d21b8bce022ee5dd32,,1,0,80,46,1,79
,,,,,,,,,,,,,,,,,,,,,,,,,,,,,,,,,,,m,7.11500001,M,TRUE,,,,,,,152,ma,Catalan,Sounds/cat_ma.mp3,2020-06-08_18h35.31.652,TranslationElicitation_spa,3.2.4,Win32,60,5ede16d21b8bce022ee5dd32,,1,0,80,46,1,79
,,,,,,,,,,,,,,,,,,,,,,,,,,,,,,,,,,,a,7.398000002,MA,TRUE,,,,,,,152,ma,Catalan,Sounds/cat_ma.mp3,2020-06-08_18h35.31.652,TranslationElicitation_spa,3.2.4,Win32,60,5ede16d21b8bce022ee5dd32,,1,0,80,46,1,79
,,,,,,,,,,,,,,,,,,,,,,,,,,,,,,,,,,,m,7.664999962,MAM,TRUE,,,,,,,152,ma,Catalan,Sounds/cat_ma.mp3,2020-06-08_18h35.31.652,TranslationElicitation_spa,3.2.4,Win32,60,5ede16d21b8bce022ee5dd32,,1,0,80,46,1,79
,,,,,,,,,,,,,,,,,,,,,,,,,,,,,,,,,,,apostrophe,7.947999954,MAM,TRUE,,,,,,,152,ma,Catalan,Sounds/cat_ma.mp3,2020-06-08_18h35.31.652,TranslationElicitation_spa,3.2.4,Win32,60,5ede16d21b8bce022ee5dd32,,1,0,80,46,1,79
,,,,,,,,,,,,,,,,,,,,,,,,,,,,,,,,,,,a,8.032000065,MAMÁ,TRUE,,,,,,,152,ma,Catalan,Sounds/cat_ma.mp3,2020-06-08_18h35.31.652,TranslationElicitation_spa,3.2.4,Win32,60,5ede16d21b8bce022ee5dd32,,1,0,80,46,1,79
,,,,,,,,,,,,,,,,,,,,,,,,,,,,,,,,,,,return,8.315000057,,TRUE,,,,,,,152,ma,Catalan,Sounds/cat_ma.mp3,2020-06-08_18h35.31.652,TranslationElicitation_spa,3.2.4,Win32,60,5ede16d21b8bce022ee5dd32,8.315000057,1,0,80,46,1,79
,,,,,,,,,,,,,,,,,,,,,,,,,,,,,,,,,,,,,,,,,,,,,152,ma,Catalan,Sounds/cat_ma.mp3,2020-06-08_18h35.31.652,TranslationElicitation_spa,3.2.4,Win32,60,5ede16d21b8bce022ee5dd32,,1,0,80,46,1,79
,,,,,,,,,,,,,,,,,,,,,,,,,,,,,,,,,,,c,1.539000034,C,FALSE,,,,,,,188,xocolata,Catalan,Sounds/cat_xocolata.mp3,2020-06-08_18h35.31.652,TranslationElicitation_spa,3.2.4,Win32,60,5ede16d21b8bce022ee5dd32,,1,0,80,78,1,79
,,,,,,,,,,,,,,,,,,,,,,,,,,,,,,,,,,,h,1.638999939,CH,FALSE,,,,,,,188,xocolata,Catalan,Sounds/cat_xocolata.mp3,2020-06-08_18h35.31.652,TranslationElicitation_spa,3.2.4,Win32,60,5ede16d21b8bce022ee5dd32,,1,0,80,78,1,79
,,,,,,,,,,,,,,,,,,,,,,,,,,,,,,,,,,,o,2.022000074,CHO,FALSE,,,,,,,188,xocolata,Catalan,Sounds/cat_xocolata.mp3,2020-06-08_18h35.31.652,TranslationElicitation_spa,3.2.4,Win32,60,5ede16d21b8bce022ee5dd32,,1,0,80,78,1,79
,,,,,,,,,,,,,,,,,,,,,,,,,,,,,,,,,,,c,2.138000011,CHOC,FALSE,,,,,,,188,xocolata,Catalan,Sounds/cat_xocolata.mp3,2020-06-08_18h35.31.652,TranslationElicitation_spa,3.2.4,Win32,60,5ede16d21b8bce022ee5dd32,,1,0,80,78,1,79
,,,,,,,,,,,,,,,,,,,,,,,,,,,,,,,,,,,o,2.237999916,CHOCO,FALSE,,,,,,,188,xocolata,Catalan,Sounds/cat_xocolata.mp3,2020-06-08_18h35.31.652,TranslationElicitation_spa,3.2.4,Win32,60,5ede16d21b8bce022ee5dd32,,1,0,80,78,1,79
,,,,,,,,,,,,,,,,,,,,,,,,,,,,,,,,,,,l,2.371999979,CHOCOL,FALSE,,,,,,,188,xocolata,Catalan,Sounds/cat_xocolata.mp3,2020-06-08_18h35.31.652,TranslationElicitation_spa,3.2.4,Win32,60,5ede16d21b8bce022ee5dd32,,1,0,80,78,1,79
,,,,,,,,,,,,,,,,,,,,,,,,,,,,,,,,,,,a,2.45600009,CHOCOLA,FALSE,,,,,,,188,xocolata,Catalan,Sounds/cat_xocolata.mp3,2020-06-08_18h35.31.652,TranslationElicitation_spa,3.2.4,Win32,60,5ede16d21b8bce022ee5dd32,,1,0,80,78,1,79
,,,,,,,,,,,,,,,,,,,,,,,,,,,,,,,,,,,t,2.621000051,CHOCOLAT,FALSE,,,,,,,188,xocolata,Catalan,Sounds/cat_xocolata.mp3,2020-06-08_18h35.31.652,TranslationElicitation_spa,3.2.4,Win32,60,5ede16d21b8bce022ee5dd32,,1,0,80,78,1,79
,,,,,,,,,,,,,,,,,,,,,,,,,,,,,,,,,,,e,2.671999931,CHOCOLATE,FALSE,,,,,,,188,xocolata,Catalan,Sounds/cat_xocolata.mp3,2020-06-08_18h35.31.652,TranslationElicitation_spa,3.2.4,Win32,60,5ede16d21b8bce022ee5dd32,,1,0,80,78,1,79
,,,,,,,,,,,,,,,,,,,,,,,,,,,,,,,,,,,return,2.888000011,,FALSE,,,,,,,188,xocolata,Catalan,Sounds/cat_xocolata.mp3,2020-06-08_18h35.31.652,TranslationElicitation_spa,3.2.4,Win32,60,5ede16d21b8bce022ee5dd32,2.888000011,1,0,80,78,1,79
,,,,,,,,,,,,,,,,,,,,,,,,,,,,,,,,,,,,,,,,,,,,,188,xocolata,Catalan,Sounds/cat_xocolata.mp3,2020-06-08_18h35.31.652,TranslationElicitation_spa,3.2.4,Win32,60,5ede16d21b8bce022ee5dd32,,1,0,80,78,1,79
,,,,,,,,,,,,,,,,,,,,,,,,,,,,,,,,,,,c,3.647999763,C,FALSE,,,,,,,106,aixeta,Catalan,Sounds/cat_aixeta.mp3,2020-06-08_18h35.31.652,TranslationElicitation_spa,3.2.4,Win32,60,5ede16d21b8bce022ee5dd32,,1,0,80,2,1,79
,,,,,,,,,,,,,,,,,,,,,,,,,,,,,,,,,,,h,3.814999819,CH,FALSE,,,,,,,106,aixeta,Catalan,Sounds/cat_aixeta.mp3,2020-06-08_18h35.31.652,TranslationElicitation_spa,3.2.4,Win32,60,5ede16d21b8bce022ee5dd32,,1,0,80,2,1,79
,,,,,,,,,,,,,,,,,,,,,,,,,,,,,,,,,,,a,3.865999937,CHA,FALSE,,,,,,,106,aixeta,Catalan,Sounds/cat_aixeta.mp3,2020-06-08_18h35.31.652,TranslationElicitation_spa,3.2.4,Win32,60,5ede16d21b8bce022ee5dd32,,1,0,80,2,1,79
,,,,,,,,,,,,,,,,,,,,,,,,,,,,,,,,,,,q,4.013999939,CHAQ,FALSE,,,,,,,106,aixeta,Catalan,Sounds/cat_aixeta.mp3,2020-06-08_18h35.31.652,TranslationElicitation_spa,3.2.4,Win32,60,5ede16d21b8bce022ee5dd32,,1,0,80,2,1,79
,,,,,,,,,,,,,,,,,,,,,,,,,,,,,,,,,,,u,4.080999851,CHAQU,FALSE,,,,,,,106,aixeta,Catalan,Sounds/cat_aixeta.mp3,2020-06-08_18h35.31.652,TranslationElicitation_spa,3.2.4,Win32,60,5ede16d21b8bce022ee5dd32,,1,0,80,2,1,79
,,,,,,,,,,,,,,,,,,,,,,,,,,,,,,,,,,,e,4.163999796,CHAQUE,FALSE,,,,,,,106,aixeta,Catalan,Sounds/cat_aixeta.mp3,2020-06-08_18h35.31.652,TranslationElicitation_spa,3.2.4,Win32,60,5ede16d21b8bce022ee5dd32,,1,0,80,2,1,79
,,,,,,,,,,,,,,,,,,,,,,,,,,,,,,,,,,,t,4.296999931,CHAQUET,FALSE,,,,,,,106,aixeta,Catalan,Sounds/cat_aixeta.mp3,2020-06-08_18h35.31.652,TranslationElicitation_spa,3.2.4,Win32,60,5ede16d21b8bce022ee5dd32,,1,0,80,2,1,79
,,,,,,,,,,,,,,,,,,,,,,,,,,,,,,,,,,,a,4.430999994,CHAQUETA,FALSE,,,,,,,106,aixeta,Catalan,Sounds/cat_aixeta.mp3,2020-06-08_18h35.31.652,TranslationElicitation_spa,3.2.4,Win32,60,5ede16d21b8bce022ee5dd32,,1,0,80,2,1,79
,,,,,,,,,,,,,,,,,,,,,,,,,,,,,,,,,,,return,4.646999836,,FALSE,,,,,,,106,aixeta,Catalan,Sounds/cat_aixeta.mp3,2020-06-08_18h35.31.652,TranslationElicitation_spa,3.2.4,Win32,60,5ede16d21b8bce022ee5dd32,4.646999836,1,0,80,2,1,79
,,,,,,,,,,,,,,,,,,,,,,,,,,,,,,,,,,,,,,,,,,,,,106,aixeta,Catalan,Sounds/cat_aixeta.mp3,2020-06-08_18h35.31.652,TranslationElicitation_spa,3.2.4,Win32,60,5ede16d21b8bce022ee5dd32,,1,0,80,2,1,79
,,,,,,,,,,,,,,,,,,,,,,,,,,,,,,,,,,,m,1.786000013,M,FALSE,,,,,,,156,moto,Catalan,Sounds/cat_moto.mp3,2020-06-08_18h35.31.652,TranslationElicitation_spa,3.2.4,Win32,60,5ede16d21b8bce022ee5dd32,,1,0,80,50,1,79
,,,,,,,,,,,,,,,,,,,,,,,,,,,,,,,,,,,o,1.930000067,MO,FALSE,,,,,,,156,moto,Catalan,Sounds/cat_moto.mp3,2020-06-08_18h35.31.652,TranslationElicitation_spa,3.2.4,Win32,60,5ede16d21b8bce022ee5dd32,,1,0,80,50,1,79
,,,,,,,,,,,,,,,,,,,,,,,,,,,,,,,,,,,t,1.996999979,MOT,FALSE,,,,,,,156,moto,Catalan,Sounds/cat_moto.mp3,2020-06-08_18h35.31.652,TranslationElicitation_spa,3.2.4,Win32,60,5ede16d21b8bce022ee5dd32,,1,0,80,50,1,79
,,,,,,,,,,,,,,,,,,,,,,,,,,,,,,,,,,,o,2.079999924,MOTO,FALSE,,,,,,,156,moto,Catalan,Sounds/cat_moto.mp3,2020-06-08_18h35.31.652,TranslationElicitation_spa,3.2.4,Win32,60,5ede16d21b8bce022ee5dd32,,1,0,80,50,1,79
,,,,,,,,,,,,,,,,,,,,,,,,,,,,,,,,,,,return,2.315000057,,FALSE,,,,,,,156,moto,Catalan,Sounds/cat_moto.mp3,2020-06-08_18h35.31.652,TranslationElicitation_spa,3.2.4,Win32,60,5ede16d21b8bce022ee5dd32,2.315000057,1,0,80,50,1,79
,,,,,,,,,,,,,,,,,,,,,,,,,,,,,,,,,,,,,,,,,,,,,156,moto,Catalan,Sounds/cat_moto.mp3,2020-06-08_18h35.31.652,TranslationElicitation_spa,3.2.4,Win32,60,5ede16d21b8bce022ee5dd32,,1,0,80,50,1,79
,,,,,,,,,,,,,,,,,,,,,,,,,,,,,,,,,,,b,1.631999969,B,FALSE,,,,,,,117,boto,Catalan,Sounds/cat_boto.mp3,2020-06-08_18h35.31.652,TranslationElicitation_spa,3.2.4,Win32,60,5ede16d21b8bce022ee5dd32,,1,0,80,12,1,79
,,,,,,,,,,,,,,,,,,,,,,,,,,,,,,,,,,,o,1.831999779,BO,FALSE,,,,,,,117,boto,Catalan,Sounds/cat_boto.mp3,2020-06-08_18h35.31.652,TranslationElicitation_spa,3.2.4,Win32,60,5ede16d21b8bce022ee5dd32,,1,0,80,12,1,79
,,,,,,,,,,,,,,,,,,,,,,,,,,,,,,,,,,,t,1.948999882,BOT,FALSE,,,,,,,117,boto,Catalan,Sounds/cat_boto.mp3,2020-06-08_18h35.31.652,TranslationElicitation_spa,3.2.4,Win32,60,5ede16d21b8bce022ee5dd32,,1,0,80,12,1,79
,,,,,,,,,,,,,,,,,,,,,,,,,,,,,,,,,,,apostrophe,2.164999962,BOT,FALSE,,,,,,,117,boto,Catalan,Sounds/cat_boto.mp3,2020-06-08_18h35.31.652,TranslationElicitation_spa,3.2.4,Win32,60,5ede16d21b8bce022ee5dd32,,1,0,80,12,1,79
,,,,,,,,,,,,,,,,,,,,,,,,,,,,,,,,,,,o,2.36500001,BOTÓ,FALSE,,,,,,,117,boto,Catalan,Sounds/cat_boto.mp3,2020-06-08_18h35.31.652,TranslationElicitation_spa,3.2.4,Win32,60,5ede16d21b8bce022ee5dd32,,1,0,80,12,1,79
,,,,,,,,,,,,,,,,,,,,,,,,,,,,,,,,,,,n,2.464999914,BOTÓN,FALSE,,,,,,,117,boto,Catalan,Sounds/cat_boto.mp3,2020-06-08_18h35.31.652,TranslationElicitation_spa,3.2.4,Win32,60,5ede16d21b8bce022ee5dd32,,1,0,80,12,1,79
,,,,,,,,,,,,,,,,,,,,,,,,,,,,,,,,,,,return,2.632999897,,FALSE,,,,,,,117,boto,Catalan,Sounds/cat_boto.mp3,2020-06-08_18h35.31.652,TranslationElicitation_spa,3.2.4,Win32,60,5ede16d21b8bce022ee5dd32,2.631999969,1,0,80,12,1,79
,,,,,,,,,,,,,,,,,,,,,,,,,,,,,,,,,,,,,,,,,,,,,117,boto,Catalan,Sounds/cat_boto.mp3,2020-06-08_18h35.31.652,TranslationElicitation_spa,3.2.4,Win32,60,5ede16d21b8bce022ee5dd32,,1,0,80,12,1,79
,,,,,,,,,,,,,,,,,,,,,,,,,,,,,,,,,,,p,1.748000145,P,FALSE,,,,,,,166,peu,Catalan,Sounds/cat_peu.mp3,2020-06-08_18h35.31.652,TranslationElicitation_spa,3.2.4,Win32,60,5ede16d21b8bce022ee5dd32,,1,0,80,59,1,79
,,,,,,,,,,,,,,,,,,,,,,,,,,,,,,,,,,,e,1.83100009,PE,FALSE,,,,,,,166,peu,Catalan,Sounds/cat_peu.mp3,2020-06-08_18h35.31.652,TranslationElicitation_spa,3.2.4,Win32,60,5ede16d21b8bce022ee5dd32,,1,0,80,59,1,79
,,,,,,,,,,,,,,,,,,,,,,,,,,,,,,,,,,,o,1.898000002,PEO,FALSE,,,,,,,166,peu,Catalan,Sounds/cat_peu.mp3,2020-06-08_18h35.31.652,TranslationElicitation_spa,3.2.4,Win32,60,5ede16d21b8bce022ee5dd32,,1,0,80,59,1,79
,,,,,,,,,,,,,,,,,,,,,,,,,,,,,,,,,,,return,2.248000145,,FALSE,,,,,,,166,peu,Catalan,Sounds/cat_peu.mp3,2020-06-08_18h35.31.652,TranslationElicitation_spa,3.2.4,Win32,60,5ede16d21b8bce022ee5dd32,2.246999979,1,0,80,59,1,79
,,,,,,,,,,,,,,,,,,,,,,,,,,,,,,,,,,,,,,,,,,,,,166,peu,Catalan,Sounds/cat_peu.mp3,2020-06-08_18h35.31.652,TranslationElicitation_spa,3.2.4,Win32,60,5ede16d21b8bce022ee5dd32,,1,0,80,59,1,79
,,,,,,,,,,,,,,,,,,,,,,,,,,,,,,,,,,,f,2.963999987,F,FALSE,,,,,,,137,fulla,Catalan,Sounds/cat_fulla.mp3,2020-06-08_18h35.31.652,TranslationElicitation_spa,3.2.4,Win32,60,5ede16d21b8bce022ee5dd32,,1,0,80,32,1,79
,,,,,,,,,,,,,,,,,,,,,,,,,,,,,,,,,,,u,3.063999891,FU,FALSE,,,,,,,137,fulla,Catalan,Sounds/cat_fulla.mp3,2020-06-08_18h35.31.652,TranslationElicitation_spa,3.2.4,Win32,60,5ede16d21b8bce022ee5dd32,,1,0,80,32,1,79
,,,,,,,,,,,,,,,,,,,,,,,,,,,,,,,,,,,l,3.247999907,FUL,FALSE,,,,,,,137,fulla,Catalan,Sounds/cat_fulla.mp3,2020-06-08_18h35.31.652,TranslationElicitation_spa,3.2.4,Win32,60,5ede16d21b8bce022ee5dd32,,1,0,80,32,1,79
,,,,,,,,,,,,,,,,,,,,,,,,,,,,,,,,,,,l,3.364000082,FULL,FALSE,,,,,,,137,fulla,Catalan,Sounds/cat_fulla.mp3,2020-06-08_18h35.31.652,TranslationElicitation_spa,3.2.4,Win32,60,5ede16d21b8bce022ee5dd32,,1,0,80,32,1,79
,,,,,,,,,,,,,,,,,,,,,,,,,,,,,,,,,,,a,3.430999994,FULLA,FALSE,,,,,,,137,fulla,Catalan,Sounds/cat_fulla.mp3,2020-06-08_18h35.31.652,TranslationElicitation_spa,3.2.4,Win32,60,5ede16d21b8bce022ee5dd32,,1,0,80,32,1,79
,,,,,,,,,,,,,,,,,,,,,,,,,,,,,,,,,,,backspace,3.763999939,FUL,TRUE,,,,,,,137,fulla,Catalan,Sounds/cat_fulla.mp3,2020-06-08_18h35.31.652,TranslationElicitation_spa,3.2.4,Win32,60,5ede16d21b8bce022ee5dd32,,1,0,80,32,1,79
,,,,,,,,,,,,,,,,,,,,,,,,,,,,,,,,,,,backspace,3.898999929,F,TRUE,,,,,,,137,fulla,Catalan,Sounds/cat_fulla.mp3,2020-06-08_18h35.31.652,TranslationElicitation_spa,3.2.4,Win32,60,5ede16d21b8bce022ee5dd32,,1,0,80,32,1,79
,,,,,,,,,,,,,,,,,,,,,,,,,,,,,,,,,,,a,3.980999947,FA,TRUE,,,,,,,137,fulla,Catalan,Sounds/cat_fulla.mp3,2020-06-08_18h35.31.652,TranslationElicitation_spa,3.2.4,Win32,60,5ede16d21b8bce022ee5dd32,,1,0,80,32,1,79
,,,,,,,,,,,,,,,,,,,,,,,,,,,,,,,,,,,r,4.131000042,FAR,TRUE,,,,,,,137,fulla,Catalan,Sounds/cat_fulla.mp3,2020-06-08_18h35.31.652,TranslationElicitation_spa,3.2.4,Win32,60,5ede16d21b8bce022ee5dd32,,1,0,80,32,1,79
,,,,,,,,,,,,,,,,,,,,,,,,,,,,,,,,,,,d,4.280999899,FARD,TRUE,,,,,,,137,fulla,Catalan,Sounds/cat_fulla.mp3,2020-06-08_18h35.31.652,TranslationElicitation_spa,3.2.4,Win32,60,5ede16d21b8bce022ee5dd32,,1,0,80,32,1,79
,,,,,,,,,,,,,,,,,,,,,,,,,,,,,,,,,,,backspace,4.447999954,FA,TRUE,,,,,,,137,fulla,Catalan,Sounds/cat_fulla.mp3,2020-06-08_18h35.31.652,TranslationElicitation_spa,3.2.4,Win32,60,5ede16d21b8bce022ee5dd32,,1,0,80,32,1,79
,,,,,,,,,,,,,,,,,,,,,,,,,,,,,,,,,,,backspace,4.59800005,,TRUE,,,,,,,137,fulla,Catalan,Sounds/cat_fulla.mp3,2020-06-08_18h35.31.652,TranslationElicitation_spa,3.2.4,Win32,60,5ede16d21b8bce022ee5dd32,,1,0,80,32,1,79
,,,,,,,,,,,,,,,,,,,,,,,,,,,,,,,,,,,backspace,4.730999947,,TRUE,,,,,,,137,fulla,Catalan,Sounds/cat_fulla.mp3,2020-06-08_18h35.31.652,TranslationElicitation_spa,3.2.4,Win32,60,5ede16d21b8bce022ee5dd32,,1,0,80,32,1,79
,,,,,,,,,,,,,,,,,,,,,,,,,,,,,,,,,,,u,4.864000082,U,TRUE,,,,,,,137,fulla,Catalan,Sounds/cat_fulla.mp3,2020-06-08_18h35.31.652,TranslationElicitation_spa,3.2.4,Win32,60,5ede16d21b8bce022ee5dd32,,1,0,80,32,1,79
,,,,,,,,,,,,,,,,,,,,,,,,,,,,,,,,,,,backspace,5.213999987,,TRUE,,,,,,,137,fulla,Catalan,Sounds/cat_fulla.mp3,2020-06-08_18h35.31.652,TranslationElicitation_spa,3.2.4,Win32,60,5ede16d21b8bce022ee5dd32,,1,0,80,32,1,79
,,,,,,,,,,,,,,,,,,,,,,,,,,,,,,,,,,,h,8.880000114,H,TRUE,,,,,,,137,fulla,Catalan,Sounds/cat_fulla.mp3,2020-06-08_18h35.31.652,TranslationElicitation_spa,3.2.4,Win32,60,5ede16d21b8bce022ee5dd32,,1,0,80,32,1,79
,,,,,,,,,,,,,,,,,,,,,,,,,,,,,,,,,,,u,8.930000067,HU,TRUE,,,,,,,137,fulla,Catalan,Sounds/cat_fulla.mp3,2020-06-08_18h35.31.652,TranslationElicitation_spa,3.2.4,Win32,60,5ede16d21b8bce022ee5dd32,,1,0,80,32,1,79
,,,,,,,,,,,,,,,,,,,,,,,,,,,,,,,,,,,c,9.062999964,HUC,TRUE,,,,,,,137,fulla,Catalan,Sounds/cat_fulla.mp3,2020-06-08_18h35.31.652,TranslationElicitation_spa,3.2.4,Win32,60,5ede16d21b8bce022ee5dd32,,1,0,80,32,1,79
,,,,,,,,,,,,,,,,,,,,,,,,,,,,,,,,,,,h,9.096999884,HUCH,TRUE,,,,,,,137,fulla,Catalan,Sounds/cat_fulla.mp3,2020-06-08_18h35.31.652,TranslationElicitation_spa,3.2.4,Win32,60,5ede16d21b8bce022ee5dd32,,1,0,80,32,1,79
,,,,,,,,,,,,,,,,,,,,,,,,,,,,,,,,,,,a,9.246999979,HUCHA,TRUE,,,,,,,137,fulla,Catalan,Sounds/cat_fulla.mp3,2020-06-08_18h35.31.652,TranslationElicitation_spa,3.2.4,Win32,60,5ede16d21b8bce022ee5dd32,,1,0,80,32,1,79
,,,,,,,,,,,,,,,,,,,,,,,,,,,,,,,,,,,return,9.463000059,,TRUE,,,,,,,137,fulla,Catalan,Sounds/cat_fulla.mp3,2020-06-08_18h35.31.652,TranslationElicitation_spa,3.2.4,Win32,60,5ede16d21b8bce022ee5dd32,9.463000059,1,0,80,32,1,79
,,,,,,,,,,,,,,,,,,,,,,,,,,,,,,,,,,,,,,,,,,,,,137,fulla,Catalan,Sounds/cat_fulla.mp3,2020-06-08_18h35.31.652,TranslationElicitation_spa,3.2.4,Win32,60,5ede16d21b8bce022ee5dd32,,1,0,80,32,1,79
,,,,,,,,,,,,,,,,,,,,,,,,,,,,,,,,,,,p,1.225000143,P,FALSE,,,,,,,164,patata,Catalan,Sounds/cat_patata.mp3,2020-06-08_18h35.31.652,TranslationElicitation_spa,3.2.4,Win32,60,5ede16d21b8bce022ee5dd32,,1,0,80,57,1,79
,,,,,,,,,,,,,,,,,,,,,,,,,,,,,,,,,,,a,1.35800004,PA,FALSE,,,,,,,164,patata,Catalan,Sounds/cat_patata.mp3,2020-06-08_18h35.31.652,TranslationElicitation_spa,3.2.4,Win32,60,5ede16d21b8bce022ee5dd32,,1,0,80,57,1,79
,,,,,,,,,,,,,,,,,,,,,,,,,,,,,,,,,,,g,1.508000135,PAG,FALSE,,,,,,,164,patata,Catalan,Sounds/cat_patata.mp3,2020-06-08_18h35.31.652,TranslationElicitation_spa,3.2.4,Win32,60,5ede16d21b8bce022ee5dd32,,1,0,80,57,1,79
,,,,,,,,,,,,,,,,,,,,,,,,,,,,,,,,,,,a,1.60800004,PAGA,FALSE,,,,,,,164,patata,Catalan,Sounds/cat_patata.mp3,2020-06-08_18h35.31.652,TranslationElicitation_spa,3.2.4,Win32,60,5ede16d21b8bce022ee5dd32,,1,0,80,57,1,79
,,,,,,,,,,,,,,,,,,,,,,,,,,,,,,,,,,,backspace,1.957999945,PA,TRUE,,,,,,,164,patata,Catalan,Sounds/cat_patata.mp3,2020-06-08_18h35.31.652,TranslationElicitation_spa,3.2.4,Win32,60,5ede16d21b8bce022ee5dd32,,1,0,80,57,1,79
,,,,,,,,,,,,,,,,,,,,,,,,,,,,,,,,,,,backspace,2.075000048,,TRUE,,,,,,,164,patata,Catalan,Sounds/cat_patata.mp3,2020-06-08_18h35.31.652,TranslationElicitation_spa,3.2.4,Win32,60,5ede16d21b8bce022ee5dd32,,1,0,80,57,1,79
,,,,,,,,,,,,,,,,,,,,,,,,,,,,,,,,,,,t,2.207999945,T,TRUE,,,,,,,164,patata,Catalan,Sounds/cat_patata.mp3,2020-06-08_18h35.31.652,TranslationElicitation_spa,3.2.4,Win32,60,5ede16d21b8bce022ee5dd32,,1,0,80,57,1,79
,,,,,,,,,,,,,,,,,,,,,,,,,,,,,,,,,,,a,2.360000134,TA,TRUE,,,,,,,164,patata,Catalan,Sounds/cat_patata.mp3,2020-06-08_18h35.31.652,TranslationElicitation_spa,3.2.4,Win32,60,5ede16d21b8bce022ee5dd32,,1,0,80,57,1,79
,,,,,,,,,,,,,,,,,,,,,,,,,,,,,,,,,,,backspace,2.657999992,,TRUE,,,,,,,164,patata,Catalan,Sounds/cat_patata.mp3,2020-06-08_18h35.31.652,TranslationElicitation_spa,3.2.4,Win32,60,5ede16d21b8bce022ee5dd32,,1,0,80,57,1,79
,,,,,,,,,,,,,,,,,,,,,,,,,,,,,,,,,,,backspace,2.791000128,,TRUE,,,,,,,164,patata,Catalan,Sounds/cat_patata.mp3,2020-06-08_18h35.31.652,TranslationElicitation_spa,3.2.4,Win32,60,5ede16d21b8bce022ee5dd32,,1,0,80,57,1,79
,,,,,,,,,,,,,,,,,,,,,,,,,,,,,,,,,,,p,2.84100008,P,TRUE,,,,,,,164,patata,Catalan,Sounds/cat_patata.mp3,2020-06-08_18h35.31.652,TranslationElicitation_spa,3.2.4,Win32,60,5ede16d21b8bce022ee5dd32,,1,0,80,57,1,79
,,,,,,,,,,,,,,,,,,,,,,,,,,,,,,,,,,,a,2.940999985,PA,TRUE,,,,,,,164,patata,Catalan,Sounds/cat_patata.mp3,2020-06-08_18h35.31.652,TranslationElicitation_spa,3.2.4,Win32,60,5ede16d21b8bce022ee5dd32,,1,0,80,57,1,79
,,,,,,,,,,,,,,,,,,,,,,,,,,,,,,,,,,,t,3.10800004,PAT,TRUE,,,,,,,164,patata,Catalan,Sounds/cat_patata.mp3,2020-06-08_18h35.31.652,TranslationElicitation_spa,3.2.4,Win32,60,5ede16d21b8bce022ee5dd32,,1,0,80,57,1,79
,,,,,,,,,,,,,,,,,,,,,,,,,,,,,,,,,,,a,3.25999999,PATA,TRUE,,,,,,,164,patata,Catalan,Sounds/cat_patata.mp3,2020-06-08_18h35.31.652,TranslationElicitation_spa,3.2.4,Win32,60,5ede16d21b8bce022ee5dd32,,1,0,80,57,1,79
,,,,,,,,,,,,,,,,,,,,,,,,,,,,,,,,,,,t,3.440999985,PATAT,TRUE,,,,,,,164,patata,Catalan,Sounds/cat_patata.mp3,2020-06-08_18h35.31.652,TranslationElicitation_spa,3.2.4,Win32,60,5ede16d21b8bce022ee5dd32,,1,0,80,57,1,79
,,,,,,,,,,,,,,,,,,,,,,,,,,,,,,,,,,,a,3.674000025,PATATA,TRUE,,,,,,,164,patata,Catalan,Sounds/cat_patata.mp3,2020-06-08_18h35.31.652,TranslationElicitation_spa,3.2.4,Win32,60,5ede16d21b8bce022ee5dd32,,1,0,80,57,1,79
,,,,,,,,,,,,,,,,,,,,,,,,,,,,,,,,,,,return,3.82400012,,TRUE,,,,,,,164,patata,Catalan,Sounds/cat_patata.mp3,2020-06-08_18h35.31.652,TranslationElicitation_spa,3.2.4,Win32,60,5ede16d21b8bce022ee5dd32,3.82400012,1,0,80,57,1,79
,,,,,,,,,,,,,,,,,,,,,,,,,,,,,,,,,,,,,,,,,,,,,164,patata,Catalan,Sounds/cat_patata.mp3,2020-06-08_18h35.31.652,TranslationElicitation_spa,3.2.4,Win32,60,5ede16d21b8bce022ee5dd32,,1,0,80,57,1,79
,,,,,,,,,,,,,,,,,,,,,,,,,,,,,,,,,,,z,2.472000122,Z,FALSE,,,,,,,176,samarreta,Catalan,Sounds/cat_samarreta.mp3,2020-06-08_18h35.31.652,TranslationElicitation_spa,3.2.4,Win32,60,5ede16d21b8bce022ee5dd32,,1,0,80,68,1,79
,,,,,,,,,,,,,,,,,,,,,,,,,,,,,,,,,,,a,2.539000034,ZA,FALSE,,,,,,,176,samarreta,Catalan,Sounds/cat_samarreta.mp3,2020-06-08_18h35.31.652,TranslationElicitation_spa,3.2.4,Win32,60,5ede16d21b8bce022ee5dd32,,1,0,80,68,1,79
,,,,,,,,,,,,,,,,,,,,,,,,,,,,,,,,,,,m,2.772000074,ZAM,FALSE,,,,,,,176,samarreta,Catalan,Sounds/cat_samarreta.mp3,2020-06-08_18h35.31.652,TranslationElicitation_spa,3.2.4,Win32,60,5ede16d21b8bce022ee5dd32,,1,0,80,68,1,79
,,,,,,,,,,,,,,,,,,,,,,,,,,,,,,,,,,,o,2.838000059,ZAMO,FALSE,,,,,,,176,samarreta,Catalan,Sounds/cat_samarreta.mp3,2020-06-08_18h35.31.652,TranslationElicitation_spa,3.2.4,Win32,60,5ede16d21b8bce022ee5dd32,,1,0,80,68,1,79
,,,,,,,,,,,,,,,,,,,,,,,,,,,,,,,,,,,r,2.972000122,ZAMOR,FALSE,,,,,,,176,samarreta,Catalan,Sounds/cat_samarreta.mp3,2020-06-08_18h35.31.652,TranslationElicitation_spa,3.2.4,Win32,60,5ede16d21b8bce022ee5dd32,,1,0,80,68,1,79
,,,,,,,,,,,,,,,,,,,,,,,,,,,,,,,,,,,r,3.092999935,ZAMORR,FALSE,,,,,,,176,samarreta,Catalan,Sounds/cat_samarreta.mp3,2020-06-08_18h35.31.652,TranslationElicitation_spa,3.2.4,Win32,60,5ede16d21b8bce022ee5dd32,,1,0,80,68,1,79
,,,,,,,,,,,,,,,,,,,,,,,,,,,,,,,,,,,o,3.154999971,ZAMORRO,FALSE,,,,,,,176,samarreta,Catalan,Sounds/cat_samarreta.mp3,2020-06-08_18h35.31.652,TranslationElicitation_spa,3.2.4,Win32,60,5ede16d21b8bce022ee5dd32,,1,0,80,68,1,79
,,,,,,,,,,,,,,,,,,,,,,,,,,,,,,,,,,,backspace,3.755000114,ZAMOR,TRUE,,,,,,,176,samarreta,Catalan,Sounds/cat_samarreta.mp3,2020-06-08_18h35.31.652,TranslationElicitation_spa,3.2.4,Win32,60,5ede16d21b8bce022ee5dd32,,1,0,80,68,1,79
,,,,,,,,,,,,,,,,,,,,,,,,,,,,,,,,,,,backspace,3.888000011,ZAM,TRUE,,,,,,,176,samarreta,Catalan,Sounds/cat_samarreta.mp3,2020-06-08_18h35.31.652,TranslationElicitation_spa,3.2.4,Win32,60,5ede16d21b8bce022ee5dd32,,1,0,80,68,1,79
,,,,,,,,,,,,,,,,,,,,,,,,,,,,,,,,,,,backspace,4.022000074,Z,TRUE,,,,,,,176,samarreta,Catalan,Sounds/cat_samarreta.mp3,2020-06-08_18h35.31.652,TranslationElicitation_spa,3.2.4,Win32,60,5ede16d21b8bce022ee5dd32,,1,0,80,68,1,79
,,,,,,,,,,,,,,,,,,,,,,,,,,,,,,,,,,,a,4.154999971,ZA,TRUE,,,,,,,176,samarreta,Catalan,Sounds/cat_samarreta.mp3,2020-06-08_18h35.31.652,TranslationElicitation_spa,3.2.4,Win32,60,5ede16d21b8bce022ee5dd32,,1,0,80,68,1,79
,,,,,,,,,,,,,,,,,,,,,,,,,,,,,,,,,,,o,4.272000074,ZAO,TRUE,,,,,,,176,samarreta,Catalan,Sounds/cat_samarreta.mp3,2020-06-08_18h35.31.652,TranslationElicitation_spa,3.2.4,Win32,60,5ede16d21b8bce022ee5dd32,,1,0,80,68,1,79
,,,,,,,,,,,,,,,,,,,,,,,,,,,,,,,,,,,backspace,4.470999956,Z,TRUE,,,,,,,176,samarreta,Catalan,Sounds/cat_samarreta.mp3,2020-06-08_18h35.31.652,TranslationElicitation_spa,3.2.4,Win32,60,5ede16d21b8bce022ee5dd32,,1,0,80,68,1,79
,,,,,,,,,,,,,,,,,,,,,,,,,,,,,,,,,,,backspace,4.605000019,,TRUE,,,,,,,176,samarreta,Catalan,Sounds/cat_samarreta.mp3,2020-06-08_18h35.31.652,TranslationElicitation_spa,3.2.4,Win32,60,5ede16d21b8bce022ee5dd32,,1,0,80,68,1,79
,,,,,,,,,,,,,,,,,,,,,,,,,,,,,,,,,,,a,4.704999924,A,TRUE,,,,,,,176,samarreta,Catalan,Sounds/cat_samarreta.mp3,2020-06-08_18h35.31.652,TranslationElicitation_spa,3.2.4,Win32,60,5ede16d21b8bce022ee5dd32,,1,0,80,68,1,79
,,,,,,,,,,,,,,,,,,,,,,,,,,,,,,,,,,,m,4.848999977,AM,TRUE,,,,,,,176,samarreta,Catalan,Sounds/cat_samarreta.mp3,2020-06-08_18h35.31.652,TranslationElicitation_spa,3.2.4,Win32,60,5ede16d21b8bce022ee5dd32,,1,0,80,68,1,79
,,,,,,,,,,,,,,,,,,,,,,,,,,,,,,,,,,,backspace,5.154999971,,TRUE,,,,,,,176,samarreta,Catalan,Sounds/cat_samarreta.mp3,2020-06-08_18h35.31.652,TranslationElicitation_spa,3.2.4,Win32,60,5ede16d21b8bce022ee5dd32,,1,0,80,68,1,79
,,,,,,,,,,,,,,,,,,,,,,,,,,,,,,,,,,,backspace,5.288000107,,TRUE,,,,,,,176,samarreta,Catalan,Sounds/cat_samarreta.mp3,2020-06-08_18h35.31.652,TranslationElicitation_spa,3.2.4,Win32,60,5ede16d21b8bce022ee5dd32,,1,0,80,68,1,79
,,,,,,,,,,,,,,,,,,,,,,,,,,,,,,,,,,,z,5.388000011,Z,TRUE,,,,,,,176,samarreta,Catalan,Sounds/cat_samarreta.mp3,2020-06-08_18h35.31.652,TranslationElicitation_spa,3.2.4,Win32,60,5ede16d21b8bce022ee5dd32,,1,0,80,68,1,79
,,,,,,,,,,,,,,,,,,,,,,,,,,,,,,,,,,,a,5.437999964,ZA,TRUE,,,,,,,176,samarreta,Catalan,Sounds/cat_samarreta.mp3,2020-06-08_18h35.31.652,TranslationElicitation_spa,3.2.4,Win32,60,5ede16d21b8bce022ee5dd32,,1,0,80,68,1,79
,,,,,,,,,,,,,,,,,,,,,,,,,,,,,,,,,,,m,5.855000019,ZAM,TRUE,,,,,,,176,samarreta,Catalan,Sounds/cat_samarreta.mp3,2020-06-08_18h35.31.652,TranslationElicitation_spa,3.2.4,Win32,60,5ede16d21b8bce022ee5dd32,,1,0,80,68,1,79
,,,,,,,,,,,,,,,,,,,,,,,,,,,,,,,,,,,a,5.954999924,ZAMA,TRUE,,,,,,,176,samarreta,Catalan,Sounds/cat_samarreta.mp3,2020-06-08_18h35.31.652,TranslationElicitation_spa,3.2.4,Win32,60,5ede16d21b8bce022ee5dd32,,1,0,80,68,1,79
,,,,,,,,,,,,,,,,,,,,,,,,,,,,,,,,,,,r,6.255000114,ZAMAR,TRUE,,,,,,,176,samarreta,Catalan,Sounds/cat_samarreta.mp3,2020-06-08_18h35.31.652,TranslationElicitation_spa,3.2.4,Win32,60,5ede16d21b8bce022ee5dd32,,1,0,80,68,1,79
,,,,,,,,,,,,,,,,,,,,,,,,,,,,,,,,,,,r,6.404999971,ZAMARR,TRUE,,,,,,,176,samarreta,Catalan,Sounds/cat_samarreta.mp3,2020-06-08_18h35.31.652,TranslationElicitation_spa,3.2.4,Win32,60,5ede16d21b8bce022ee5dd32,,1,0,80,68,1,79
,,,,,,,,,,,,,,,,,,,,,,,,,,,,,,,,,,,o,6.538000107,ZAMARRO,TRUE,,,,,,,176,samarreta,Catalan,Sounds/cat_samarreta.mp3,2020-06-08_18h35.31.652,TranslationElicitation_spa,3.2.4,Win32,60,5ede16d21b8bce022ee5dd32,,1,0,80,68,1,79
,,,,,,,,,,,,,,,,,,,,,,,,,,,,,,,,,,,return,6.588000059,,TRUE,,,,,,,176,samarreta,Catalan,Sounds/cat_samarreta.mp3,2020-06-08_18h35.31.652,TranslationElicitation_spa,3.2.4,Win32,60,5ede16d21b8bce022ee5dd32,6.588000059,1,0,80,68,1,79
,,,,,,,,,,,,,,,,,,,,,,,,,,,,,,,,,,,,,,,,,,,,,176,samarreta,Catalan,Sounds/cat_samarreta.mp3,2020-06-08_18h35.31.652,TranslationElicitation_spa,3.2.4,Win32,60,5ede16d21b8bce022ee5dd32,,1,0,80,68,1,79
,,,,,,,,,,,,,,,,,,,,,,,,,,,,,,,,,,,t,2.188999891,T,FALSE,,,,,,,180,tisores,Catalan,Sounds/cat_tisores.mp3,2020-06-08_18h35.31.652,TranslationElicitation_spa,3.2.4,Win32,60,5ede16d21b8bce022ee5dd32,,1,0,80,71,1,79
,,,,,,,,,,,,,,,,,,,,,,,,,,,,,,,,,,,i,2.256000042,TI,FALSE,,,,,,,180,tisores,Catalan,Sounds/cat_tisores.mp3,2020-06-08_18h35.31.652,TranslationElicitation_spa,3.2.4,Win32,60,5ede16d21b8bce022ee5dd32,,1,0,80,71,1,79
,,,,,,,,,,,,,,,,,,,,,,,,,,,,,,,,,,,j,2.455999851,TIJ,FALSE,,,,,,,180,tisores,Catalan,Sounds/cat_tisores.mp3,2020-06-08_18h35.31.652,TranslationElicitation_spa,3.2.4,Win32,60,5ede16d21b8bce022ee5dd32,,1,0,80,71,1,79
,,,,,,,,,,,,,,,,,,,,,,,,,,,,,,,,,,,e,2.539000034,TIJE,FALSE,,,,,,,180,tisores,Catalan,Sounds/cat_tisores.mp3,2020-06-08_18h35.31.652,TranslationElicitation_spa,3.2.4,Win32,60,5ede16d21b8bce022ee5dd32,,1,0,80,71,1,79
,,,,,,,,,,,,,,,,,,,,,,,,,,,,,,,,,,,r,2.605999947,TIJER,FALSE,,,,,,,180,tisores,Catalan,Sounds/cat_tisores.mp3,2020-06-08_18h35.31.652,TranslationElicitation_spa,3.2.4,Win32,60,5ede16d21b8bce022ee5dd32,,1,0,80,71,1,79
,,,,,,,,,,,,,,,,,,,,,,,,,,,,,,,,,,,a,2.789000034,TIJERA,FALSE,,,,,,,180,tisores,Catalan,Sounds/cat_tisores.mp3,2020-06-08_18h35.31.652,TranslationElicitation_spa,3.2.4,Win32,60,5ede16d21b8bce022ee5dd32,,1,0,80,71,1,79
,,,,,,,,,,,,,,,,,,,,,,,,,,,,,,,,,,,s,2.842000008,TIJERAS,FALSE,,,,,,,180,tisores,Catalan,Sounds/cat_tisores.mp3,2020-06-08_18h35.31.652,TranslationElicitation_spa,3.2.4,Win32,60,5ede16d21b8bce022ee5dd32,,1,0,80,71,1,79
,,,,,,,,,,,,,,,,,,,,,,,,,,,,,,,,,,,return,2.988999844,,FALSE,,,,,,,180,tisores,Catalan,Sounds/cat_tisores.mp3,2020-06-08_18h35.31.652,TranslationElicitation_spa,3.2.4,Win32,60,5ede16d21b8bce022ee5dd32,2.988999844,1,0,80,71,1,79
,,,,,,,,,,,,,,,,,,,,,,,,,,,,,,,,,,,,,,,,,,,,,180,tisores,Catalan,Sounds/cat_tisores.mp3,2020-06-08_18h35.31.652,TranslationElicitation_spa,3.2.4,Win32,60,5ede16d21b8bce022ee5dd32,,1,0,80,71,1,79
,,,,,,,,,,,,,,,,,,,,,,,,,,,,,,,,,,,v,4.963999987,V,FALSE,,,,,,,187,vaixell,Catalan,Sounds/cat_vaixell.mp3,2020-06-08_18h35.31.652,TranslationElicitation_spa,3.2.4,Win32,60,5ede16d21b8bce022ee5dd32,,1,0,80,77,1,79
,,,,,,,,,,,,,,,,,,,,,,,,,,,,,,,,,,,a,5.131000042,VA,FALSE,,,,,,,187,vaixell,Catalan,Sounds/cat_vaixell.mp3,2020-06-08_18h35.31.652,TranslationElicitation_spa,3.2.4,Win32,60,5ede16d21b8bce022ee5dd32,,1,0,80,77,1,79
,,,,,,,,,,,,,,,,,,,,,,,,,,,,,,,,,,,s,5.180999994,VAS,FALSE,,,,,,,187,vaixell,Catalan,Sounds/cat_vaixell.mp3,2020-06-08_18h35.31.652,TranslationElicitation_spa,3.2.4,Win32,60,5ede16d21b8bce022ee5dd32,,1,0,80,77,1,79
,,,,,,,,,,,,,,,,,,,,,,,,,,,,,,,,,,,o,5.246999979,VASO,FALSE,,,,,,,187,vaixell,Catalan,Sounds/cat_vaixell.mp3,2020-06-08_18h35.31.652,TranslationElicitation_spa,3.2.4,Win32,60,5ede16d21b8bce022ee5dd32,,1,0,80,77,1,79
,,,,,,,,,,,,,,,,,,,,,,,,,,,,,,,,,,,return,5.496999979,,FALSE,,,,,,,187,vaixell,Catalan,Sounds/cat_vaixell.mp3,2020-06-08_18h35.31.652,TranslationElicitation_spa,3.2.4,Win32,60,5ede16d21b8bce022ee5dd32,5.496999979,1,0,80,77,1,79
,,,,,,,,,,,,,,,,,,,,,,,,,,,,,,,,,,,,,,,,,,,,,187,vaixell,Catalan,Sounds/cat_vaixell.mp3,2020-06-08_18h35.31.652,TranslationElicitation_spa,3.2.4,Win32,60,5ede16d21b8bce022ee5dd32,,1,0,80,77,1,79
,,,,,,,,,,,,,,,,,,,,,,,,,,,,,,,,,,,c,1.747999907,C,FALSE,,,,,,,189,zebra,Catalan,Sounds/cat_zebra.mp3,2020-06-08_18h35.31.652,TranslationElicitation_spa,3.2.4,Win32,60,5ede16d21b8bce022ee5dd32,,1,0,80,79,1,79
,,,,,,,,,,,,,,,,,,,,,,,,,,,,,,,,,,,e,1.813999891,CE,FALSE,,,,,,,189,zebra,Catalan,Sounds/cat_zebra.mp3,2020-06-08_18h35.31.652,TranslationElicitation_spa,3.2.4,Win32,60,5ede16d21b8bce022ee5dd32,,1,0,80,79,1,79
,,,,,,,,,,,,,,,,,,,,,,,,,,,,,,,,,,,b,2.063999891,CEB,FALSE,,,,,,,189,zebra,Catalan,Sounds/cat_zebra.mp3,2020-06-08_18h35.31.652,TranslationElicitation_spa,3.2.4,Win32,60,5ede16d21b8bce022ee5dd32,,1,0,80,79,1,79
,,,,,,,,,,,,,,,,,,,,,,,,,,,,,,,,,,,r,2.148000002,CEBR,FALSE,,,,,,,189,zebra,Catalan,Sounds/cat_zebra.mp3,2020-06-08_18h35.31.652,TranslationElicitation_spa,3.2.4,Win32,60,5ede16d21b8bce022ee5dd32,,1,0,80,79,1,79
,,,,,,,,,,,,,,,,,,,,,,,,,,,,,,,,,,,a,2.280999899,CEBRA,FALSE,,,,,,,189,zebra,Catalan,Sounds/cat_zebra.mp3,2020-06-08_18h35.31.652,TranslationElicitation_spa,3.2.4,Win32,60,5ede16d21b8bce022ee5dd32,,1,0,80,79,1,79
,,,,,,,,,,,,,,,,,,,,,,,,,,,,,,,,,,,return,2.396999836,,FALSE,,,,,,,189,zebra,Catalan,Sounds/cat_zebra.mp3,2020-06-08_18h35.31.652,TranslationElicitation_spa,3.2.4,Win32,60,5ede16d21b8bce022ee5dd32,2.396999836,1,0,80,79,1,79
,,,,,,,,,,,,,,,,,,,,,,,,,,,,,,,,,,,,,,,,,,,,,189,zebra,Catalan,Sounds/cat_zebra.mp3,2020-06-08_18h35.31.652,TranslationElicitation_spa,3.2.4,Win32,60,5ede16d21b8bce022ee5dd32,,1,0,80,79,1,79
,,,,,,,,,,,,,,,,,,,,,,,,,,,,,,,,,,,a,1.36500001,A,FALSE,,,,,,,108,ampolla,Catalan,Sounds/cat_ampolla.mp3,2020-06-08_18h35.31.652,TranslationElicitation_spa,3.2.4,Win32,60,5ede16d21b8bce022ee5dd32,,1,0,80,4,1,79
,,,,,,,,,,,,,,,,,,,,,,,,,,,,,,,,,,,m,1.447999954,AM,FALSE,,,,,,,108,ampolla,Catalan,Sounds/cat_ampolla.mp3,2020-06-08_18h35.31.652,TranslationElicitation_spa,3.2.4,Win32,60,5ede16d21b8bce022ee5dd32,,1,0,80,4,1,79
,,,,,,,,,,,,,,,,,,,,,,,,,,,,,,,,,,,p,1.631000042,AMP,FALSE,,,,,,,108,ampolla,Catalan,Sounds/cat_ampolla.mp3,2020-06-08_18h35.31.652,TranslationElicitation_spa,3.2.4,Win32,60,5ede16d21b8bce022ee5dd32,,1,0,80,4,1,79
,,,,,,,,,,,,,,,,,,,,,,,,,,,,,,,,,,,o,1.680999994,AMPO,FALSE,,,,,,,108,ampolla,Catalan,Sounds/cat_ampolla.mp3,2020-06-08_18h35.31.652,TranslationElicitation_spa,3.2.4,Win32,60,5ede16d21b8bce022ee5dd32,,1,0,80,4,1,79
,,,,,,,,,,,,,,,,,,,,,,,,,,,,,,,,,,,l,1.881000042,AMPOL,FALSE,,,,,,,108,ampolla,Catalan,Sounds/cat_ampolla.mp3,2020-06-08_18h35.31.652,TranslationElicitation_spa,3.2.4,Win32,60,5ede16d21b8bce022ee5dd32,,1,0,80,4,1,79
,,,,,,,,,,,,,,,,,,,,,,,,,,,,,,,,,,,l,1.98300004,AMPOLL,FALSE,,,,,,,108,ampolla,Catalan,Sounds/cat_ampolla.mp3,2020-06-08_18h35.31.652,TranslationElicitation_spa,3.2.4,Win32,60,5ede16d21b8bce022ee5dd32,,1,0,80,4,1,79
,,,,,,,,,,,,,,,,,,,,,,,,,,,,,,,,,,,a,2.065000057,AMPOLLA,FALSE,,,,,,,108,ampolla,Catalan,Sounds/cat_ampolla.mp3,2020-06-08_18h35.31.652,TranslationElicitation_spa,3.2.4,Win32,60,5ede16d21b8bce022ee5dd32,,1,0,80,4,1,79
,,,,,,,,,,,,,,,,,,,,,,,,,,,,,,,,,,,return,2.40899992,,FALSE,,,,,,,108,ampolla,Catalan,Sounds/cat_ampolla.mp3,2020-06-08_18h35.31.652,TranslationElicitation_spa,3.2.4,Win32,60,5ede16d21b8bce022ee5dd32,2.40899992,1,0,80,4,1,79
,,,,,,,,,,,,,,,,,,,,,,,,,,,,,,,,,,,,,,,,,,,,,108,ampolla,Catalan,Sounds/cat_ampolla.mp3,2020-06-08_18h35.31.652,TranslationElicitation_spa,3.2.4,Win32,60,5ede16d21b8bce022ee5dd32,,1,0,80,4,1,79
,,,,,,,,,,,,,,,,,,,,,,,,,,,,,,,,,,,t,1.597999811,T,FALSE,,,,,,,183,tren,Catalan,Sounds/cat_tren.mp3,2020-06-08_18h35.31.652,TranslationElicitation_spa,3.2.4,Win32,60,5ede16d21b8bce022ee5dd32,,1,0,80,74,1,79
,,,,,,,,,,,,,,,,,,,,,,,,,,,,,,,,,,,r,1.664000034,TR,FALSE,,,,,,,183,tren,Catalan,Sounds/cat_tren.mp3,2020-06-08_18h35.31.652,TranslationElicitation_spa,3.2.4,Win32,60,5ede16d21b8bce022ee5dd32,,1,0,80,74,1,79
,,,,,,,,,,,,,,,,,,,,,,,,,,,,,,,,,,,e,1.829999924,TRE,FALSE,,,,,,,183,tren,Catalan,Sounds/cat_tren.mp3,2020-06-08_18h35.31.652,TranslationElicitation_spa,3.2.4,Win32,60,5ede16d21b8bce022ee5dd32,,1,0,80,74,1,79
,,,,,,,,,,,,,,,,,,,,,,,,,,,,,,,,,,,n,1.896999836,TREN,FALSE,,,,,,,183,tren,Catalan,Sounds/cat_tren.mp3,2020-06-08_18h35.31.652,TranslationElicitation_spa,3.2.4,Win32,60,5ede16d21b8bce022ee5dd32,,1,0,80,74,1,79
,,,,,,,,,,,,,,,,,,,,,,,,,,,,,,,,,,,return,1.996999979,,FALSE,,,,,,,183,tren,Catalan,Sounds/cat_tren.mp3,2020-06-08_18h35.31.652,TranslationElicitation_spa,3.2.4,Win32,60,5ede16d21b8bce022ee5dd32,1.996999979,1,0,80,74,1,79
,,,,,,,,,,,,,,,,,,,,,,,,,,,,,,,,,,,,,,,,,,,,,183,tren,Catalan,Sounds/cat_tren.mp3,2020-06-08_18h35.31.652,TranslationElicitation_spa,3.2.4,Win32,60,5ede16d21b8bce022ee5dd32,,1,0,80,74,1,79
,,,,,,,,,,,,,,,,,,,,,,,,,,,,,,,,,,,m,1.213999987,M,FALSE,,,,,,,155,moneda,Catalan,Sounds/cat_moneda.mp3,2020-06-08_18h35.31.652,TranslationElicitation_spa,3.2.4,Win32,60,5ede16d21b8bce022ee5dd32,,1,0,80,49,1,79
,,,,,,,,,,,,,,,,,,,,,,,,,,,,,,,,,,,o,1.381000042,MO,FALSE,,,,,,,155,moneda,Catalan,Sounds/cat_moneda.mp3,2020-06-08_18h35.31.652,TranslationElicitation_spa,3.2.4,Win32,60,5ede16d21b8bce022ee5dd32,,1,0,80,49,1,79
,,,,,,,,,,,,,,,,,,,,,,,,,,,,,,,,,,,n,1.531000137,MON,FALSE,,,,,,,155,moneda,Catalan,Sounds/cat_moneda.mp3,2020-06-08_18h35.31.652,TranslationElicitation_spa,3.2.4,Win32,60,5ede16d21b8bce022ee5dd32,,1,0,80,49,1,79
,,,,,,,,,,,,,,,,,,,,,,,,,,,,,,,,,,,e,1.59800005,MONE,FALSE,,,,,,,155,moneda,Catalan,Sounds/cat_moneda.mp3,2020-06-08_18h35.31.652,TranslationElicitation_spa,3.2.4,Win32,60,5ede16d21b8bce022ee5dd32,,1,0,80,49,1,79
,,,,,,,,,,,,,,,,,,,,,,,,,,,,,,,,,,,d,1.781000137,MONED,FALSE,,,,,,,155,moneda,Catalan,Sounds/cat_moneda.mp3,2020-06-08_18h35.31.652,TranslationElicitation_spa,3.2.4,Win32,60,5ede16d21b8bce022ee5dd32,,1,0,80,49,1,79
,,,,,,,,,,,,,,,,,,,,,,,,,,,,,,,,,,,a,1.83100009,MONEDA,FALSE,,,,,,,155,moneda,Catalan,Sounds/cat_moneda.mp3,2020-06-08_18h35.31.652,TranslationElicitation_spa,3.2.4,Win32,60,5ede16d21b8bce022ee5dd32,,1,0,80,49,1,79
,,,,,,,,,,,,,,,,,,,,,,,,,,,,,,,,,,,return,1.960000038,,FALSE,,,,,,,155,moneda,Catalan,Sounds/cat_moneda.mp3,2020-06-08_18h35.31.652,TranslationElicitation_spa,3.2.4,Win32,60,5ede16d21b8bce022ee5dd32,1.960000038,1,0,80,49,1,79
,,,,,,,,,,,,,,,,,,,,,,,,,,,,,,,,,,,,,,,,,,,,,155,moneda,Catalan,Sounds/cat_moneda.mp3,2020-06-08_18h35.31.652,TranslationElicitation_spa,3.2.4,Win32,60,5ede16d21b8bce022ee5dd32,,1,0,80,49,1,79
,,,,,,,,,,,,,,,,,,,,,,,,,,,,,,,,,,,g,1.464999914,G,FALSE,,,,,,,110,berenar,Catalan,Sounds/cat_berenar.mp3,2020-06-08_18h35.31.652,TranslationElicitation_spa,3.2.4,Win32,60,5ede16d21b8bce022ee5dd32,,1,0,80,5,1,79
,,,,,,,,,,,,,,,,,,,,,,,,,,,,,,,,,,,r,1.497999907,GR,FALSE,,,,,,,110,berenar,Catalan,Sounds/cat_berenar.mp3,2020-06-08_18h35.31.652,TranslationElicitation_spa,3.2.4,Win32,60,5ede16d21b8bce022ee5dd32,,1,0,80,5,1,79
,,,,,,,,,,,,,,,,,,,,,,,,,,,,,,,,,,,a,1.697999954,GRA,FALSE,,,,,,,110,berenar,Catalan,Sounds/cat_berenar.mp3,2020-06-08_18h35.31.652,TranslationElicitation_spa,3.2.4,Win32,60,5ede16d21b8bce022ee5dd32,,1,0,80,5,1,79
,,,,,,,,,,,,,,,,,,,,,,,,,,,,,,,,,,,n,1.765000105,GRAN,FALSE,,,,,,,110,berenar,Catalan,Sounds/cat_berenar.mp3,2020-06-08_18h35.31.652,TranslationElicitation_spa,3.2.4,Win32,60,5ede16d21b8bce022ee5dd32,,1,0,80,5,1,79
,,,,,,,,,,,,,,,,,,,,,,,,,,,,,,,,,,,a,1.84800005,GRANA,FALSE,,,,,,,110,berenar,Catalan,Sounds/cat_berenar.mp3,2020-06-08_18h35.31.652,TranslationElicitation_spa,3.2.4,Win32,60,5ede16d21b8bce022ee5dd32,,1,0,80,5,1,79
,,,,,,,,,,,,,,,,,,,,,,,,,,,,,,,,,,,d,1.96600008,GRANAD,FALSE,,,,,,,110,berenar,Catalan,Sounds/cat_berenar.mp3,2020-06-08_18h35.31.652,TranslationElicitation_spa,3.2.4,Win32,60,5ede16d21b8bce022ee5dd32,,1,0,80,5,1,79
,,,,,,,,,,,,,,,,,,,,,,,,,,,,,,,,,,,d,2.048000097,GRANADD,FALSE,,,,,,,110,berenar,Catalan,Sounds/cat_berenar.mp3,2020-06-08_18h35.31.652,TranslationElicitation_spa,3.2.4,Win32,60,5ede16d21b8bce022ee5dd32,,1,0,80,5,1,79
,,,,,,,,,,,,,,,,,,,,,,,,,,,,,,,,,,,a,2.08100009,GRANADDA,FALSE,,,,,,,110,berenar,Catalan,Sounds/cat_berenar.mp3,2020-06-08_18h35.31.652,TranslationElicitation_spa,3.2.4,Win32,60,5ede16d21b8bce022ee5dd32,,1,0,80,5,1,79
,,,,,,,,,,,,,,,,,,,,,,,,,,,,,,,,,,,backspace,2.61500001,GRANAD,TRUE,,,,,,,110,berenar,Catalan,Sounds/cat_berenar.mp3,2020-06-08_18h35.31.652,TranslationElicitation_spa,3.2.4,Win32,60,5ede16d21b8bce022ee5dd32,,1,0,80,5,1,79
,,,,,,,,,,,,,,,,,,,,,,,,,,,,,,,,,,,backspace,2.747999907,GRAN,TRUE,,,,,,,110,berenar,Catalan,Sounds/cat_berenar.mp3,2020-06-08_18h35.31.652,TranslationElicitation_spa,3.2.4,Win32,60,5ede16d21b8bce022ee5dd32,,1,0,80,5,1,79
,,,,,,,,,,,,,,,,,,,,,,,,,,,,,,,,,,,a,2.881000042,GRANA,TRUE,,,,,,,110,berenar,Catalan,Sounds/cat_berenar.mp3,2020-06-08_18h35.31.652,TranslationElicitation_spa,3.2.4,Win32,60,5ede16d21b8bce022ee5dd32,,1,0,80,5,1,79
,,,,,,,,,,,,,,,,,,,,,,,,,,,,,,,,,,,backspace,3.382999897,GRA,TRUE,,,,,,,110,berenar,Catalan,Sounds/cat_berenar.mp3,2020-06-08_18h35.31.652,TranslationElicitation_spa,3.2.4,Win32,60,5ede16d21b8bce022ee5dd32,,1,0,80,5,1,79
,,,,,,,,,,,,,,,,,,,,,,,,,,,,,,,,,,,d,3.513999939,GRAD,TRUE,,,,,,,110,berenar,Catalan,Sounds/cat_berenar.mp3,2020-06-08_18h35.31.652,TranslationElicitation_spa,3.2.4,Win32,60,5ede16d21b8bce022ee5dd32,,1,0,80,5,1,79
,,,,,,,,,,,,,,,,,,,,,,,,,,,,,,,,,,,backspace,3.813999891,GR,TRUE,,,,,,,110,berenar,Catalan,Sounds/cat_berenar.mp3,2020-06-08_18h35.31.652,TranslationElicitation_spa,3.2.4,Win32,60,5ede16d21b8bce022ee5dd32,,1,0,80,5,1,79
,,,,,,,,,,,,,,,,,,,,,,,,,,,,,,,,,,,a,3.898000002,GRA,TRUE,,,,,,,110,berenar,Catalan,Sounds/cat_berenar.mp3,2020-06-08_18h35.31.652,TranslationElicitation_spa,3.2.4,Win32,60,5ede16d21b8bce022ee5dd32,,1,0,80,5,1,79
,,,,,,,,,,,,,,,,,,,,,,,,,,,,,,,,,,,backspace,4.230999947,G,TRUE,,,,,,,110,berenar,Catalan,Sounds/cat_berenar.mp3,2020-06-08_18h35.31.652,TranslationElicitation_spa,3.2.4,Win32,60,5ede16d21b8bce022ee5dd32,,1,0,80,5,1,79
,,,,,,,,,,,,,,,,,,,,,,,,,,,,,,,,,,,r,5.365999937,GR,TRUE,,,,,,,110,berenar,Catalan,Sounds/cat_berenar.mp3,2020-06-08_18h35.31.652,TranslationElicitation_spa,3.2.4,Win32,60,5ede16d21b8bce022ee5dd32,,1,0,80,5,1,79
,,,,,,,,,,,,,,,,,,,,,,,,,,,,,,,,,,,a,5.730000019,GRA,TRUE,,,,,,,110,berenar,Catalan,Sounds/cat_berenar.mp3,2020-06-08_18h35.31.652,TranslationElicitation_spa,3.2.4,Win32,60,5ede16d21b8bce022ee5dd32,,1,0,80,5,1,79
,,,,,,,,,,,,,,,,,,,,,,,,,,,,,,,,,,,n,5.947000027,GRAN,TRUE,,,,,,,110,berenar,Catalan,Sounds/cat_berenar.mp3,2020-06-08_18h35.31.652,TranslationElicitation_spa,3.2.4,Win32,60,5ede16d21b8bce022ee5dd32,,1,0,80,5,1,79
,,,,,,,,,,,,,,,,,,,,,,,,,,,,,,,,,,,a,6.130000114,GRANA,TRUE,,,,,,,110,berenar,Catalan,Sounds/cat_berenar.mp3,2020-06-08_18h35.31.652,TranslationElicitation_spa,3.2.4,Win32,60,5ede16d21b8bce022ee5dd32,,1,0,80,5,1,79
