consentKey.keys,consentKey.rt,languageL1Key.keys,languageL1Key.rt,languageL2,languageL2OralKey.keys,languageL2OralKey.rt,languageL2WrittenKey.keys,languageL2WrittenKey.rt,languageL3OralKey.keys,languageL3OralKey.rt,languageL3WrittenKey.keys,languageL3WrittenKey.rt,languageCatalanOralKey.keys,languageCatalanOralKey.rt,languageCatalanWrittenKey.keys,languageCatalanWrittenKey.rt,languageCatalanTimeKey.keys,languageCatalanTimeKey.rt,age,demoSexKey.keys,demoSexKey.rt,demoEducationKey.keys,demoEducationKey.rt,city,demoVisionKey.keys,demoVisionKey.rt,demoLanguageKey.keys,demoLanguageKey.rt,setupLocationKey.keys,setupLocationKey.rt,setupNoiseKey.keys,setupNoiseKey.rt,instructionsKeys.keys,instructionsKeys.rt,keyPressed,keyPressTime,inputText,error,trials_practice.thisRepN,trials_practice.thisTrialN,trials_practice.thisN,trials_practice.thisIndex,trials_practice.ran,trials_practice.order,trial_id,word,test_language,soundfile,date,expName,psychopyVersion,OS,frameRate,participant,trialOffset,trials.thisRepN,trials.thisTrialN,trials.thisN,trials.thisIndex,trials.ran,trials.order
space,18.88199997,e,9.139999866,,3,14.13899994,4,11.76900005,,,,,2,14.421,1,7.746000051,2,47.77099991,24,m,43.8440001,4,7.34800005,CARTAGENA,n,9.575000048,n,3.677000046,1,7.295000076,1,8.502000093,space,21.52900004,p,4.427000046,P,FALSE,1,0,5,3,1,4,167,pingui,Catalan,Sounds/cat_pingui.mp3,2020-06-08_18h11.41.559,TranslationElicitation_spa,3.2.4,Win32,60,5ede234d69a8800409af2756,,,,,,,
,,,,,,,,,,,,,,,,,,,,,,,,,,,,,,,,,,,i,4.75999999,PI,FALSE,1,0,5,3,1,4,167,pingui,Catalan,Sounds/cat_pingui.mp3,2020-06-08_18h11.41.559,TranslationElicitation_spa,3.2.4,Win32,60,5ede234d69a8800409af2756,,,,,,,
,,,,,,,,,,,,,,,,,,,,,,,,,,,,,,,,,,,n,5.592999935,PIN,FALSE,1,0,5,3,1,4,167,pingui,Catalan,Sounds/cat_pingui.mp3,2020-06-08_18h11.41.559,TranslationElicitation_spa,3.2.4,Win32,60,5ede234d69a8800409af2756,,,,,,,
,,,,,,,,,,,,,,,,,,,,,,,,,,,,,,,,,,,g,5.75999999,PING,FALSE,1,0,5,3,1,4,167,pingui,Catalan,Sounds/cat_pingui.mp3,2020-06-08_18h11.41.559,TranslationElicitation_spa,3.2.4,Win32,60,5ede234d69a8800409af2756,,,,,,,
,,,,,,,,,,,,,,,,,,,,,,,,,,,,,,,,,,,u,5.875999928,PINGU,FALSE,1,0,5,3,1,4,167,pingui,Catalan,Sounds/cat_pingui.mp3,2020-06-08_18h11.41.559,TranslationElicitation_spa,3.2.4,Win32,60,5ede234d69a8800409af2756,,,,,,,
,,,,,,,,,,,,,,,,,,,,,,,,,,,,,,,,,,,i,5.976000071,PINGUI,FALSE,1,0,5,3,1,4,167,pingui,Catalan,Sounds/cat_pingui.mp3,2020-06-08_18h11.41.559,TranslationElicitation_spa,3.2.4,Win32,60,5ede234d69a8800409af2756,,,,,,,
,,,,,,,,,,,,,,,,,,,,,,,,,,,,,,,,,,,n,6.127000093,PINGUIN,FALSE,1,0,5,3,1,4,167,pingui,Catalan,Sounds/cat_pingui.mp3,2020-06-08_18h11.41.559,TranslationElicitation_spa,3.2.4,Win32,60,5ede234d69a8800409af2756,,,,,,,
,,,,,,,,,,,,,,,,,,,,,,,,,,,,,,,,,,,o,6.229000092,PINGUINO,FALSE,1,0,5,3,1,4,167,pingui,Catalan,Sounds/cat_pingui.mp3,2020-06-08_18h11.41.559,TranslationElicitation_spa,3.2.4,Win32,60,5ede234d69a8800409af2756,,,,,,,
,,,,,,,,,,,,,,,,,,,,,,,,,,,,,,,,,,,backspace,7.125999928,PINGUI,TRUE,1,0,5,3,1,4,167,pingui,Catalan,Sounds/cat_pingui.mp3,2020-06-08_18h11.41.559,TranslationElicitation_spa,3.2.4,Win32,60,5ede234d69a8800409af2756,,,,,,,
,,,,,,,,,,,,,,,,,,,,,,,,,,,,,,,,,,,backspace,7.25999999,PING,TRUE,1,0,5,3,1,4,167,pingui,Catalan,Sounds/cat_pingui.mp3,2020-06-08_18h11.41.559,TranslationElicitation_spa,3.2.4,Win32,60,5ede234d69a8800409af2756,,,,,,,
,,,,,,,,,,,,,,,,,,,,,,,,,,,,,,,,,,,apostrophe,8.493000031,PING,TRUE,1,0,5,3,1,4,167,pingui,Catalan,Sounds/cat_pingui.mp3,2020-06-08_18h11.41.559,TranslationElicitation_spa,3.2.4,Win32,60,5ede234d69a8800409af2756,,,,,,,
,,,,,,,,,,,,,,,,,,,,,,,,,,,,,,,,,,,u,8.858999968,PINGÚ,TRUE,1,0,5,3,1,4,167,pingui,Catalan,Sounds/cat_pingui.mp3,2020-06-08_18h11.41.559,TranslationElicitation_spa,3.2.4,Win32,60,5ede234d69a8800409af2756,,,,,,,
,,,,,,,,,,,,,,,,,,,,,,,,,,,,,,,,,,,i,8.959000111,PINGÚI,TRUE,1,0,5,3,1,4,167,pingui,Catalan,Sounds/cat_pingui.mp3,2020-06-08_18h11.41.559,TranslationElicitation_spa,3.2.4,Win32,60,5ede234d69a8800409af2756,,,,,,,
,,,,,,,,,,,,,,,,,,,,,,,,,,,,,,,,,,,n,9.159000158,PINGÚIN,TRUE,1,0,5,3,1,4,167,pingui,Catalan,Sounds/cat_pingui.mp3,2020-06-08_18h11.41.559,TranslationElicitation_spa,3.2.4,Win32,60,5ede234d69a8800409af2756,,,,,,,
,,,,,,,,,,,,,,,,,,,,,,,,,,,,,,,,,,,o,9.292999983,PINGÚINO,TRUE,1,0,5,3,1,4,167,pingui,Catalan,Sounds/cat_pingui.mp3,2020-06-08_18h11.41.559,TranslationElicitation_spa,3.2.4,Win32,60,5ede234d69a8800409af2756,,,,,,,
,,,,,,,,,,,,,,,,,,,,,,,,,,,,,,,,,,,backspace,9.625999928,PINGÚI,TRUE,1,0,5,3,1,4,167,pingui,Catalan,Sounds/cat_pingui.mp3,2020-06-08_18h11.41.559,TranslationElicitation_spa,3.2.4,Win32,60,5ede234d69a8800409af2756,,,,,,,
,,,,,,,,,,,,,,,,,,,,,,,,,,,,,,,,,,,backspace,9.759000063,PING,TRUE,1,0,5,3,1,4,167,pingui,Catalan,Sounds/cat_pingui.mp3,2020-06-08_18h11.41.559,TranslationElicitation_spa,3.2.4,Win32,60,5ede234d69a8800409af2756,,,,,,,
,,,,,,,,,,,,,,,,,,,,,,,,,,,,,,,,,,,backspace,9.993000031,PI,TRUE,1,0,5,3,1,4,167,pingui,Catalan,Sounds/cat_pingui.mp3,2020-06-08_18h11.41.559,TranslationElicitation_spa,3.2.4,Win32,60,5ede234d69a8800409af2756,,,,,,,
,,,,,,,,,,,,,,,,,,,,,,,,,,,,,,,,,,,n,10.94300008,PIN,TRUE,1,0,5,3,1,4,167,pingui,Catalan,Sounds/cat_pingui.mp3,2020-06-08_18h11.41.559,TranslationElicitation_spa,3.2.4,Win32,60,5ede234d69a8800409af2756,,,,,,,
,,,,,,,,,,,,,,,,,,,,,,,,,,,,,,,,,,,g,11.20900011,PING,TRUE,1,0,5,3,1,4,167,pingui,Catalan,Sounds/cat_pingui.mp3,2020-06-08_18h11.41.559,TranslationElicitation_spa,3.2.4,Win32,60,5ede234d69a8800409af2756,,,,,,,
,,,,,,,,,,,,,,,,,,,,,,,,,,,,,,,,,,,apostrophe,12.14199996,PING,TRUE,1,0,5,3,1,4,167,pingui,Catalan,Sounds/cat_pingui.mp3,2020-06-08_18h11.41.559,TranslationElicitation_spa,3.2.4,Win32,60,5ede234d69a8800409af2756,,,,,,,
,,,,,,,,,,,,,,,,,,,,,,,,,,,,,,,,,,,u,12.75900006,PINGÚ,TRUE,1,0,5,3,1,4,167,pingui,Catalan,Sounds/cat_pingui.mp3,2020-06-08_18h11.41.559,TranslationElicitation_spa,3.2.4,Win32,60,5ede234d69a8800409af2756,,,,,,,
,,,,,,,,,,,,,,,,,,,,,,,,,,,,,,,,,,,i,12.95900011,PINGÚI,TRUE,1,0,5,3,1,4,167,pingui,Catalan,Sounds/cat_pingui.mp3,2020-06-08_18h11.41.559,TranslationElicitation_spa,3.2.4,Win32,60,5ede234d69a8800409af2756,,,,,,,
,,,,,,,,,,,,,,,,,,,,,,,,,,,,,,,,,,,n,13.24500012,PINGÚIN,TRUE,1,0,5,3,1,4,167,pingui,Catalan,Sounds/cat_pingui.mp3,2020-06-08_18h11.41.559,TranslationElicitation_spa,3.2.4,Win32,60,5ede234d69a8800409af2756,,,,,,,
,,,,,,,,,,,,,,,,,,,,,,,,,,,,,,,,,,,o,13.50900006,PINGÚINO,TRUE,1,0,5,3,1,4,167,pingui,Catalan,Sounds/cat_pingui.mp3,2020-06-08_18h11.41.559,TranslationElicitation_spa,3.2.4,Win32,60,5ede234d69a8800409af2756,,,,,,,
,,,,,,,,,,,,,,,,,,,,,,,,,,,,,,,,,,,backspace,14.875,PINGÚI,TRUE,1,0,5,3,1,4,167,pingui,Catalan,Sounds/cat_pingui.mp3,2020-06-08_18h11.41.559,TranslationElicitation_spa,3.2.4,Win32,60,5ede234d69a8800409af2756,,,,,,,
,,,,,,,,,,,,,,,,,,,,,,,,,,,,,,,,,,,backspace,15.0250001,PING,TRUE,1,0,5,3,1,4,167,pingui,Catalan,Sounds/cat_pingui.mp3,2020-06-08_18h11.41.559,TranslationElicitation_spa,3.2.4,Win32,60,5ede234d69a8800409af2756,,,,,,,
,,,,,,,,,,,,,,,,,,,,,,,,,,,,,,,,,,,backspace,15.20900011,PI,TRUE,1,0,5,3,1,4,167,pingui,Catalan,Sounds/cat_pingui.mp3,2020-06-08_18h11.41.559,TranslationElicitation_spa,3.2.4,Win32,60,5ede234d69a8800409af2756,,,,,,,
,,,,,,,,,,,,,,,,,,,,,,,,,,,,,,,,,,,n,16.07500005,PIN,TRUE,1,0,5,3,1,4,167,pingui,Catalan,Sounds/cat_pingui.mp3,2020-06-08_18h11.41.559,TranslationElicitation_spa,3.2.4,Win32,60,5ede234d69a8800409af2756,,,,,,,
,,,,,,,,,,,,,,,,,,,,,,,,,,,,,,,,,,,g,16.30900002,PING,TRUE,1,0,5,3,1,4,167,pingui,Catalan,Sounds/cat_pingui.mp3,2020-06-08_18h11.41.559,TranslationElicitation_spa,3.2.4,Win32,60,5ede234d69a8800409af2756,,,,,,,
,,,,,,,,,,,,,,,,,,,,,,,,,,,,,,,,,,,u,16.40900016,PINGU,TRUE,1,0,5,3,1,4,167,pingui,Catalan,Sounds/cat_pingui.mp3,2020-06-08_18h11.41.559,TranslationElicitation_spa,3.2.4,Win32,60,5ede234d69a8800409af2756,,,,,,,
,,,,,,,,,,,,,,,,,,,,,,,,,,,,,,,,,,,i,16.47500014,PINGUI,TRUE,1,0,5,3,1,4,167,pingui,Catalan,Sounds/cat_pingui.mp3,2020-06-08_18h11.41.559,TranslationElicitation_spa,3.2.4,Win32,60,5ede234d69a8800409af2756,,,,,,,
,,,,,,,,,,,,,,,,,,,,,,,,,,,,,,,,,,,n,16.64199996,PINGUIN,TRUE,1,0,5,3,1,4,167,pingui,Catalan,Sounds/cat_pingui.mp3,2020-06-08_18h11.41.559,TranslationElicitation_spa,3.2.4,Win32,60,5ede234d69a8800409af2756,,,,,,,
,,,,,,,,,,,,,,,,,,,,,,,,,,,,,,,,,,,o,16.7420001,PINGUINO,TRUE,1,0,5,3,1,4,167,pingui,Catalan,Sounds/cat_pingui.mp3,2020-06-08_18h11.41.559,TranslationElicitation_spa,3.2.4,Win32,60,5ede234d69a8800409af2756,,,,,,,
,,,,,,,,,,,,,,,,,,,,,,,,,,,,,,,,,,,return,17.07500005,,TRUE,1,0,5,3,1,4,167,pingui,Catalan,Sounds/cat_pingui.mp3,2020-06-08_18h11.41.559,TranslationElicitation_spa,3.2.4,Win32,60,5ede234d69a8800409af2756,17.07500005,,,,,,
,,,,,,,,,,,,,,,,,,,,,,,,,,,,,,,,,,,,,,,1,0,5,3,1,4,167,pingui,Catalan,Sounds/cat_pingui.mp3,2020-06-08_18h11.41.559,TranslationElicitation_spa,3.2.4,Win32,60,5ede234d69a8800409af2756,,,,,,,
,,,,,,,,,,,,,,,,,,,,,,,,,,,,,,,,,,,a,3.842999935,A,FALSE,1,0,5,0,1,4,109,arbre,Catalan,Sounds/cat_arbre.mp3,2020-06-08_18h11.41.559,TranslationElicitation_spa,3.2.4,Win32,60,5ede234d69a8800409af2756,,,,,,,
,,,,,,,,,,,,,,,,,,,,,,,,,,,,,,,,,,,b,3.960000038,AB,FALSE,1,0,5,0,1,4,109,arbre,Catalan,Sounds/cat_arbre.mp3,2020-06-08_18h11.41.559,TranslationElicitation_spa,3.2.4,Win32,60,5ede234d69a8800409af2756,,,,,,,
,,,,,,,,,,,,,,,,,,,,,,,,,,,,,,,,,,,r,4.126999855,ABR,FALSE,1,0,5,0,1,4,109,arbre,Catalan,Sounds/cat_arbre.mp3,2020-06-08_18h11.41.559,TranslationElicitation_spa,3.2.4,Win32,60,5ede234d69a8800409af2756,,,,,,,
,,,,,,,,,,,,,,,,,,,,,,,,,,,,,,,,,,,o,4.226999998,ABRO,FALSE,1,0,5,0,1,4,109,arbre,Catalan,Sounds/cat_arbre.mp3,2020-06-08_18h11.41.559,TranslationElicitation_spa,3.2.4,Win32,60,5ede234d69a8800409af2756,,,,,,,
,,,,,,,,,,,,,,,,,,,,,,,,,,,,,,,,,,,l,4.394000053,ABROL,FALSE,1,0,5,0,1,4,109,arbre,Catalan,Sounds/cat_arbre.mp3,2020-06-08_18h11.41.559,TranslationElicitation_spa,3.2.4,Win32,60,5ede234d69a8800409af2756,,,,,,,
,,,,,,,,,,,,,,,,,,,,,,,,,,,,,,,,,,,backspace,4.75999999,ABR,TRUE,1,0,5,0,1,4,109,arbre,Catalan,Sounds/cat_arbre.mp3,2020-06-08_18h11.41.559,TranslationElicitation_spa,3.2.4,Win32,60,5ede234d69a8800409af2756,,,,,,,
,,,,,,,,,,,,,,,,,,,,,,,,,,,,,,,,,,,backspace,4.892999887,A,TRUE,1,0,5,0,1,4,109,arbre,Catalan,Sounds/cat_arbre.mp3,2020-06-08_18h11.41.559,TranslationElicitation_spa,3.2.4,Win32,60,5ede234d69a8800409af2756,,,,,,,
,,,,,,,,,,,,,,,,,,,,,,,,,,,,,,,,,,,backspace,5.02699995,,TRUE,1,0,5,0,1,4,109,arbre,Catalan,Sounds/cat_arbre.mp3,2020-06-08_18h11.41.559,TranslationElicitation_spa,3.2.4,Win32,60,5ede234d69a8800409af2756,,,,,,,
,,,,,,,,,,,,,,,,,,,,,,,,,,,,,,,,,,,backspace,5.159999847,,TRUE,1,0,5,0,1,4,109,arbre,Catalan,Sounds/cat_arbre.mp3,2020-06-08_18h11.41.559,TranslationElicitation_spa,3.2.4,Win32,60,5ede234d69a8800409af2756,,,,,,,
,,,,,,,,,,,,,,,,,,,,,,,,,,,,,,,,,,,apostrophe,5.993000031,,TRUE,1,0,5,0,1,4,109,arbre,Catalan,Sounds/cat_arbre.mp3,2020-06-08_18h11.41.559,TranslationElicitation_spa,3.2.4,Win32,60,5ede234d69a8800409af2756,,,,,,,
,,,,,,,,,,,,,,,,,,,,,,,,,,,,,,,,,,,a,6.126999855,Á,TRUE,1,0,5,0,1,4,109,arbre,Catalan,Sounds/cat_arbre.mp3,2020-06-08_18h11.41.559,TranslationElicitation_spa,3.2.4,Win32,60,5ede234d69a8800409af2756,,,,,,,
,,,,,,,,,,,,,,,,,,,,,,,,,,,,,,,,,,,r,6.493000031,ÁR,TRUE,1,0,5,0,1,4,109,arbre,Catalan,Sounds/cat_arbre.mp3,2020-06-08_18h11.41.559,TranslationElicitation_spa,3.2.4,Win32,60,5ede234d69a8800409af2756,,,,,,,
,,,,,,,,,,,,,,,,,,,,,,,,,,,,,,,,,,,b,6.726999998,ÁRB,TRUE,1,0,5,0,1,4,109,arbre,Catalan,Sounds/cat_arbre.mp3,2020-06-08_18h11.41.559,TranslationElicitation_spa,3.2.4,Win32,60,5ede234d69a8800409af2756,,,,,,,
,,,,,,,,,,,,,,,,,,,,,,,,,,,,,,,,,,,o,6.809999943,ÁRBO,TRUE,1,0,5,0,1,4,109,arbre,Catalan,Sounds/cat_arbre.mp3,2020-06-08_18h11.41.559,TranslationElicitation_spa,3.2.4,Win32,60,5ede234d69a8800409af2756,,,,,,,
,,,,,,,,,,,,,,,,,,,,,,,,,,,,,,,,,,,l,6.976000071,ÁRBOL,TRUE,1,0,5,0,1,4,109,arbre,Catalan,Sounds/cat_arbre.mp3,2020-06-08_18h11.41.559,TranslationElicitation_spa,3.2.4,Win32,60,5ede234d69a8800409af2756,,,,,,,
,,,,,,,,,,,,,,,,,,,,,,,,,,,,,,,,,,,return,7.228999853,,TRUE,1,0,5,0,1,4,109,arbre,Catalan,Sounds/cat_arbre.mp3,2020-06-08_18h11.41.559,TranslationElicitation_spa,3.2.4,Win32,60,5ede234d69a8800409af2756,7.228999853,,,,,,
,,,,,,,,,,,,,,,,,,,,,,,,,,,,,,,,,,,,,,,1,0,5,0,1,4,109,arbre,Catalan,Sounds/cat_arbre.mp3,2020-06-08_18h11.41.559,TranslationElicitation_spa,3.2.4,Win32,60,5ede234d69a8800409af2756,,,,,,,
,,,,,,,,,,,,,,,,,,,,,,,,,,,,,,,,,,,t,1.944000006,T,FALSE,1,0,5,4,1,4,179,tigre,Catalan,Sounds/cat_tigre.mp3,2020-06-08_18h11.41.559,TranslationElicitation_spa,3.2.4,Win32,60,5ede234d69a8800409af2756,,,,,,,
,,,,,,,,,,,,,,,,,,,,,,,,,,,,,,,,,,,i,2.044000149,TI,FALSE,1,0,5,4,1,4,179,tigre,Catalan,Sounds/cat_tigre.mp3,2020-06-08_18h11.41.559,TranslationElicitation_spa,3.2.4,Win32,60,5ede234d69a8800409af2756,,,,,,,
,,,,,,,,,,,,,,,,,,,,,,,,,,,,,,,,,,,g,2.210999966,TIG,FALSE,1,0,5,4,1,4,179,tigre,Catalan,Sounds/cat_tigre.mp3,2020-06-08_18h11.41.559,TranslationElicitation_spa,3.2.4,Win32,60,5ede234d69a8800409af2756,,,,,,,
,,,,,,,,,,,,,,,,,,,,,,,,,,,,,,,,,,,r,2.311000109,TIGR,FALSE,1,0,5,4,1,4,179,tigre,Catalan,Sounds/cat_tigre.mp3,2020-06-08_18h11.41.559,TranslationElicitation_spa,3.2.4,Win32,60,5ede234d69a8800409af2756,,,,,,,
,,,,,,,,,,,,,,,,,,,,,,,,,,,,,,,,,,,e,2.511000156,TIGRE,FALSE,1,0,5,4,1,4,179,tigre,Catalan,Sounds/cat_tigre.mp3,2020-06-08_18h11.41.559,TranslationElicitation_spa,3.2.4,Win32,60,5ede234d69a8800409af2756,,,,,,,
,,,,,,,,,,,,,,,,,,,,,,,,,,,,,,,,,,,return,2.894000053,,FALSE,1,0,5,4,1,4,179,tigre,Catalan,Sounds/cat_tigre.mp3,2020-06-08_18h11.41.559,TranslationElicitation_spa,3.2.4,Win32,60,5ede234d69a8800409af2756,2.894000053,,,,,,
,,,,,,,,,,,,,,,,,,,,,,,,,,,,,,,,,,,,,,,1,0,5,4,1,4,179,tigre,Catalan,Sounds/cat_tigre.mp3,2020-06-08_18h11.41.559,TranslationElicitation_spa,3.2.4,Win32,60,5ede234d69a8800409af2756,,,,,,,
,,,,,,,,,,,,,,,,,,,,,,,,,,,,,,,,,,,n,4.746999979,N,FALSE,1,0,5,2,1,4,159,onada,Catalan,Sounds/cat_onada.mp3,2020-06-08_18h11.41.559,TranslationElicitation_spa,3.2.4,Win32,60,5ede234d69a8800409af2756,,,,,,,
,,,,,,,,,,,,,,,,,,,,,,,,,,,,,,,,,,,a,4.830999851,NA,FALSE,1,0,5,2,1,4,159,onada,Catalan,Sounds/cat_onada.mp3,2020-06-08_18h11.41.559,TranslationElicitation_spa,3.2.4,Win32,60,5ede234d69a8800409af2756,,,,,,,
,,,,,,,,,,,,,,,,,,,,,,,,,,,,,,,,,,,d,4.996999979,NAD,FALSE,1,0,5,2,1,4,159,onada,Catalan,Sounds/cat_onada.mp3,2020-06-08_18h11.41.559,TranslationElicitation_spa,3.2.4,Win32,60,5ede234d69a8800409af2756,,,,,,,
,,,,,,,,,,,,,,,,,,,,,,,,,,,,,,,,,,,a,5.136999846,NADA,FALSE,1,0,5,2,1,4,159,onada,Catalan,Sounds/cat_onada.mp3,2020-06-08_18h11.41.559,TranslationElicitation_spa,3.2.4,Win32,60,5ede234d69a8800409af2756,,,,,,,
,,,,,,,,,,,,,,,,,,,,,,,,,,,,,,,,,,,return,5.279999971,,FALSE,1,0,5,2,1,4,159,onada,Catalan,Sounds/cat_onada.mp3,2020-06-08_18h11.41.559,TranslationElicitation_spa,3.2.4,Win32,60,5ede234d69a8800409af2756,5.279999971,,,,,,
,,,,,,,,,,,,,,,,,,,,,,,,,,,,,,,,,,,,,,,1,0,5,2,1,4,159,onada,Catalan,Sounds/cat_onada.mp3,2020-06-08_18h11.41.559,TranslationElicitation_spa,3.2.4,Win32,60,5ede234d69a8800409af2756,,,,,,,
,,,,,,,,,,,,,,,,,,,,,,,,,,,,,,,,,,,c,1.44900012,C,FALSE,1,0,5,1,1,4,147,jaqueta,Catalan,Sounds/cat_jaqueta.mp3,2020-06-08_18h11.41.559,TranslationElicitation_spa,3.2.4,Win32,60,5ede234d69a8800409af2756,,,,,,,
,,,,,,,,,,,,,,,,,,,,,,,,,,,,,,,,,,,h,1.565999985,CH,FALSE,1,0,5,1,1,4,147,jaqueta,Catalan,Sounds/cat_jaqueta.mp3,2020-06-08_18h11.41.559,TranslationElicitation_spa,3.2.4,Win32,60,5ede234d69a8800409af2756,,,,,,,
,,,,,,,,,,,,,,,,,,,,,,,,,,,,,,,,,,,a,1.683000088,CHA,FALSE,1,0,5,1,1,4,147,jaqueta,Catalan,Sounds/cat_jaqueta.mp3,2020-06-08_18h11.41.559,TranslationElicitation_spa,3.2.4,Win32,60,5ede234d69a8800409af2756,,,,,,,
,,,,,,,,,,,,,,,,,,,,,,,,,,,,,,,,,,,q,1.848999977,CHAQ,FALSE,1,0,5,1,1,4,147,jaqueta,Catalan,Sounds/cat_jaqueta.mp3,2020-06-08_18h11.41.559,TranslationElicitation_spa,3.2.4,Win32,60,5ede234d69a8800409af2756,,,,,,,
,,,,,,,,,,,,,,,,,,,,,,,,,,,,,,,,,,,u,1.898999929,CHAQU,FALSE,1,0,5,1,1,4,147,jaqueta,Catalan,Sounds/cat_jaqueta.mp3,2020-06-08_18h11.41.559,TranslationElicitation_spa,3.2.4,Win32,60,5ede234d69a8800409af2756,,,,,,,
,,,,,,,,,,,,,,,,,,,,,,,,,,,,,,,,,,,e,2.041000128,CHAQUE,FALSE,1,0,5,1,1,4,147,jaqueta,Catalan,Sounds/cat_jaqueta.mp3,2020-06-08_18h11.41.559,TranslationElicitation_spa,3.2.4,Win32,60,5ede234d69a8800409af2756,,,,,,,
,,,,,,,,,,,,,,,,,,,,,,,,,,,,,,,,,,,t,2.200000048,CHAQUET,FALSE,1,0,5,1,1,4,147,jaqueta,Catalan,Sounds/cat_jaqueta.mp3,2020-06-08_18h11.41.559,TranslationElicitation_spa,3.2.4,Win32,60,5ede234d69a8800409af2756,,,,,,,
,,,,,,,,,,,,,,,,,,,,,,,,,,,,,,,,,,,a,2.400000095,CHAQUETA,FALSE,1,0,5,1,1,4,147,jaqueta,Catalan,Sounds/cat_jaqueta.mp3,2020-06-08_18h11.41.559,TranslationElicitation_spa,3.2.4,Win32,60,5ede234d69a8800409af2756,,,,,,,
,,,,,,,,,,,,,,,,,,,,,,,,,,,,,,,,,,,return,2.602999926,,FALSE,1,0,5,1,1,4,147,jaqueta,Catalan,Sounds/cat_jaqueta.mp3,2020-06-08_18h11.41.559,TranslationElicitation_spa,3.2.4,Win32,60,5ede234d69a8800409af2756,2.602999926,,,,,,
,,,,,,,,,,,,,,,,,,,,,,,,,,,,,,,,,,,,,,,1,0,5,1,1,4,147,jaqueta,Catalan,Sounds/cat_jaqueta.mp3,2020-06-08_18h11.41.559,TranslationElicitation_spa,3.2.4,Win32,60,5ede234d69a8800409af2756,,,,,,,
,,,,,,,,,,,,,,,,,,,,,,,,,,,,,,,,,,,p,1.964999914,P,FALSE,,,,,,,169,plat,Catalan,Sounds/cat_plat.mp3,2020-06-08_18h11.41.559,TranslationElicitation_spa,3.2.4,Win32,60,5ede234d69a8800409af2756,,1,0,80,61,1,79
,,,,,,,,,,,,,,,,,,,,,,,,,,,,,,,,,,,l,2.098999977,PL,FALSE,,,,,,,169,plat,Catalan,Sounds/cat_plat.mp3,2020-06-08_18h11.41.559,TranslationElicitation_spa,3.2.4,Win32,60,5ede234d69a8800409af2756,,1,0,80,61,1,79
,,,,,,,,,,,,,,,,,,,,,,,,,,,,,,,,,,,a,2.148999929,PLA,FALSE,,,,,,,169,plat,Catalan,Sounds/cat_plat.mp3,2020-06-08_18h11.41.559,TranslationElicitation_spa,3.2.4,Win32,60,5ede234d69a8800409af2756,,1,0,80,61,1,79
,,,,,,,,,,,,,,,,,,,,,,,,,,,,,,,,,,,t,2.414999962,PLAT,FALSE,,,,,,,169,plat,Catalan,Sounds/cat_plat.mp3,2020-06-08_18h11.41.559,TranslationElicitation_spa,3.2.4,Win32,60,5ede234d69a8800409af2756,,1,0,80,61,1,79
,,,,,,,,,,,,,,,,,,,,,,,,,,,,,,,,,,,o,2.532000065,PLATO,FALSE,,,,,,,169,plat,Catalan,Sounds/cat_plat.mp3,2020-06-08_18h11.41.559,TranslationElicitation_spa,3.2.4,Win32,60,5ede234d69a8800409af2756,,1,0,80,61,1,79
,,,,,,,,,,,,,,,,,,,,,,,,,,,,,,,,,,,return,3.098999977,,FALSE,,,,,,,169,plat,Catalan,Sounds/cat_plat.mp3,2020-06-08_18h11.41.559,TranslationElicitation_spa,3.2.4,Win32,60,5ede234d69a8800409af2756,3.09800005,1,0,80,61,1,79
,,,,,,,,,,,,,,,,,,,,,,,,,,,,,,,,,,,,,,,,,,,,,169,plat,Catalan,Sounds/cat_plat.mp3,2020-06-08_18h11.41.559,TranslationElicitation_spa,3.2.4,Win32,60,5ede234d69a8800409af2756,,1,0,80,61,1,79
,,,,,,,,,,,,,,,,,,,,,,,,,,,,,,,,,,,p,0.96600008,P,FALSE,,,,,,,164,patata,Catalan,Sounds/cat_patata.mp3,2020-06-08_18h11.41.559,TranslationElicitation_spa,3.2.4,Win32,60,5ede234d69a8800409af2756,,1,0,80,57,1,79
,,,,,,,,,,,,,,,,,,,,,,,,,,,,,,,,,,,a,1.065999985,PA,FALSE,,,,,,,164,patata,Catalan,Sounds/cat_patata.mp3,2020-06-08_18h11.41.559,TranslationElicitation_spa,3.2.4,Win32,60,5ede234d69a8800409af2756,,1,0,80,57,1,79
,,,,,,,,,,,,,,,,,,,,,,,,,,,,,,,,,,,t,1.249000072,PAT,FALSE,,,,,,,164,patata,Catalan,Sounds/cat_patata.mp3,2020-06-08_18h11.41.559,TranslationElicitation_spa,3.2.4,Win32,60,5ede234d69a8800409af2756,,1,0,80,57,1,79
,,,,,,,,,,,,,,,,,,,,,,,,,,,,,,,,,,,a,1.46600008,PATA,FALSE,,,,,,,164,patata,Catalan,Sounds/cat_patata.mp3,2020-06-08_18h11.41.559,TranslationElicitation_spa,3.2.4,Win32,60,5ede234d69a8800409af2756,,1,0,80,57,1,79
,,,,,,,,,,,,,,,,,,,,,,,,,,,,,,,,,,,t,1.631999969,PATAT,FALSE,,,,,,,164,patata,Catalan,Sounds/cat_patata.mp3,2020-06-08_18h11.41.559,TranslationElicitation_spa,3.2.4,Win32,60,5ede234d69a8800409af2756,,1,0,80,57,1,79
,,,,,,,,,,,,,,,,,,,,,,,,,,,,,,,,,,,a,1.815999985,PATATA,FALSE,,,,,,,164,patata,Catalan,Sounds/cat_patata.mp3,2020-06-08_18h11.41.559,TranslationElicitation_spa,3.2.4,Win32,60,5ede234d69a8800409af2756,,1,0,80,57,1,79
,,,,,,,,,,,,,,,,,,,,,,,,,,,,,,,,,,,return,2.150000095,,FALSE,,,,,,,164,patata,Catalan,Sounds/cat_patata.mp3,2020-06-08_18h11.41.559,TranslationElicitation_spa,3.2.4,Win32,60,5ede234d69a8800409af2756,2.150000095,1,0,80,57,1,79
,,,,,,,,,,,,,,,,,,,,,,,,,,,,,,,,,,,,,,,,,,,,,164,patata,Catalan,Sounds/cat_patata.mp3,2020-06-08_18h11.41.559,TranslationElicitation_spa,3.2.4,Win32,60,5ede234d69a8800409af2756,,1,0,80,57,1,79
,,,,,,,,,,,,,,,,,,,,,,,,,,,,,,,,,,,m,4.746999979,M,FALSE,,,,,,,154,mirall,Catalan,Sounds/cat_mirall.mp3,2020-06-08_18h11.41.559,TranslationElicitation_spa,3.2.4,Win32,60,5ede234d69a8800409af2756,,1,0,80,48,1,79
,,,,,,,,,,,,,,,,,,,,,,,,,,,,,,,,,,,backspace,7.296999931,,TRUE,,,,,,,154,mirall,Catalan,Sounds/cat_mirall.mp3,2020-06-08_18h11.41.559,TranslationElicitation_spa,3.2.4,Win32,60,5ede234d69a8800409af2756,,1,0,80,48,1,79
,,,,,,,,,,,,,,,,,,,,,,,,,,,,,,,,,,,m,7.83100009,M,TRUE,,,,,,,154,mirall,Catalan,Sounds/cat_mirall.mp3,2020-06-08_18h11.41.559,TranslationElicitation_spa,3.2.4,Win32,60,5ede234d69a8800409af2756,,1,0,80,48,1,79
,,,,,,,,,,,,,,,,,,,,,,,,,,,,,,,,,,,i,8.230999947,MI,TRUE,,,,,,,154,mirall,Catalan,Sounds/cat_mirall.mp3,2020-06-08_18h11.41.559,TranslationElicitation_spa,3.2.4,Win32,60,5ede234d69a8800409af2756,,1,0,80,48,1,79
,,,,,,,,,,,,,,,,,,,,,,,,,,,,,,,,,,,r,8.385999918,MIR,TRUE,,,,,,,154,mirall,Catalan,Sounds/cat_mirall.mp3,2020-06-08_18h11.41.559,TranslationElicitation_spa,3.2.4,Win32,60,5ede234d69a8800409af2756,,1,0,80,48,1,79
,,,,,,,,,,,,,,,,,,,,,,,,,,,,,,,,,,,a,8.58100009,MIRA,TRUE,,,,,,,154,mirall,Catalan,Sounds/cat_mirall.mp3,2020-06-08_18h11.41.559,TranslationElicitation_spa,3.2.4,Win32,60,5ede234d69a8800409af2756,,1,0,80,48,1,79
,,,,,,,,,,,,,,,,,,,,,,,,,,,,,,,,,,,r,8.730000019,MIRAR,TRUE,,,,,,,154,mirall,Catalan,Sounds/cat_mirall.mp3,2020-06-08_18h11.41.559,TranslationElicitation_spa,3.2.4,Win32,60,5ede234d69a8800409af2756,,1,0,80,48,1,79
,,,,,,,,,,,,,,,,,,,,,,,,,,,,,,,,,,,return,8.980000019,,TRUE,,,,,,,154,mirall,Catalan,Sounds/cat_mirall.mp3,2020-06-08_18h11.41.559,TranslationElicitation_spa,3.2.4,Win32,60,5ede234d69a8800409af2756,8.980000019,1,0,80,48,1,79
,,,,,,,,,,,,,,,,,,,,,,,,,,,,,,,,,,,,,,,,,,,,,154,mirall,Catalan,Sounds/cat_mirall.mp3,2020-06-08_18h11.41.559,TranslationElicitation_spa,3.2.4,Win32,60,5ede234d69a8800409af2756,,1,0,80,48,1,79
,,,,,,,,,,,,,,,,,,,,,,,,,,,,,,,,,,,l,4.611000061,L,FALSE,,,,,,,149,llibre,Catalan,Sounds/cat_llibre.mp3,2020-06-08_18h11.41.559,TranslationElicitation_spa,3.2.4,Win32,60,5ede234d69a8800409af2756,,1,0,80,43,1,79
,,,,,,,,,,,,,,,,,,,,,,,,,,,,,,,,,,,i,4.861000061,LI,FALSE,,,,,,,149,llibre,Catalan,Sounds/cat_llibre.mp3,2020-06-08_18h11.41.559,TranslationElicitation_spa,3.2.4,Win32,60,5ede234d69a8800409af2756,,1,0,80,43,1,79
,,,,,,,,,,,,,,,,,,,,,,,,,,,,,,,,,,,b,5.226999998,LIB,FALSE,,,,,,,149,llibre,Catalan,Sounds/cat_llibre.mp3,2020-06-08_18h11.41.559,TranslationElicitation_spa,3.2.4,Win32,60,5ede234d69a8800409af2756,,1,0,80,43,1,79
,,,,,,,,,,,,,,,,,,,,,,,,,,,,,,,,,,,r,5.411000013,LIBR,FALSE,,,,,,,149,llibre,Catalan,Sounds/cat_llibre.mp3,2020-06-08_18h11.41.559,TranslationElicitation_spa,3.2.4,Win32,60,5ede234d69a8800409af2756,,1,0,80,43,1,79
,,,,,,,,,,,,,,,,,,,,,,,,,,,,,,,,,,,e,5.561000109,LIBRE,FALSE,,,,,,,149,llibre,Catalan,Sounds/cat_llibre.mp3,2020-06-08_18h11.41.559,TranslationElicitation_spa,3.2.4,Win32,60,5ede234d69a8800409af2756,,1,0,80,43,1,79
,,,,,,,,,,,,,,,,,,,,,,,,,,,,,,,,,,,return,5.927000046,,FALSE,,,,,,,149,llibre,Catalan,Sounds/cat_llibre.mp3,2020-06-08_18h11.41.559,TranslationElicitation_spa,3.2.4,Win32,60,5ede234d69a8800409af2756,5.927000046,1,0,80,43,1,79
,,,,,,,,,,,,,,,,,,,,,,,,,,,,,,,,,,,,,,,,,,,,,149,llibre,Catalan,Sounds/cat_llibre.mp3,2020-06-08_18h11.41.559,TranslationElicitation_spa,3.2.4,Win32,60,5ede234d69a8800409af2756,,1,0,80,43,1,79
,,,,,,,,,,,,,,,,,,,,,,,,,,,,,,,,,,,c,5.713999987,C,FALSE,,,,,,,128,cuc,Catalan,Sounds/cat_cuc.mp3,2020-06-08_18h11.41.559,TranslationElicitation_spa,3.2.4,Win32,60,5ede234d69a8800409af2756,,1,0,80,23,1,79
,,,,,,,,,,,,,,,,,,,,,,,,,,,,,,,,,,,o,6.963999987,CO,FALSE,,,,,,,128,cuc,Catalan,Sounds/cat_cuc.mp3,2020-06-08_18h11.41.559,TranslationElicitation_spa,3.2.4,Win32,60,5ede234d69a8800409af2756,,1,0,80,23,1,79
,,,,,,,,,,,,,,,,,,,,,,,,,,,,,,,,,,,c,7.09800005,COC,FALSE,,,,,,,128,cuc,Catalan,Sounds/cat_cuc.mp3,2020-06-08_18h11.41.559,TranslationElicitation_spa,3.2.4,Win32,60,5ede234d69a8800409af2756,,1,0,80,23,1,79
,,,,,,,,,,,,,,,,,,,,,,,,,,,,,,,,,,,o,7.197000027,COCO,FALSE,,,,,,,128,cuc,Catalan,Sounds/cat_cuc.mp3,2020-06-08_18h11.41.559,TranslationElicitation_spa,3.2.4,Win32,60,5ede234d69a8800409af2756,,1,0,80,23,1,79
,,,,,,,,,,,,,,,,,,,,,,,,,,,,,,,,,,,return,7.513999939,,FALSE,,,,,,,128,cuc,Catalan,Sounds/cat_cuc.mp3,2020-06-08_18h11.41.559,TranslationElicitation_spa,3.2.4,Win32,60,5ede234d69a8800409af2756,7.513999939,1,0,80,23,1,79
,,,,,,,,,,,,,,,,,,,,,,,,,,,,,,,,,,,,,,,,,,,,,128,cuc,Catalan,Sounds/cat_cuc.mp3,2020-06-08_18h11.41.559,TranslationElicitation_spa,3.2.4,Win32,60,5ede234d69a8800409af2756,,1,0,80,23,1,79
,,,,,,,,,,,,,,,,,,,,,,,,,,,,,,,,,,,c,1.162999868,C,FALSE,,,,,,,122,casa,Catalan,Sounds/cat_casa.mp3,2020-06-08_18h11.41.559,TranslationElicitation_spa,3.2.4,Win32,60,5ede234d69a8800409af2756,,1,0,80,17,1,79
,,,,,,,,,,,,,,,,,,,,,,,,,,,,,,,,,,,a,1.427999973,CA,FALSE,,,,,,,122,casa,Catalan,Sounds/cat_casa.mp3,2020-06-08_18h11.41.559,TranslationElicitation_spa,3.2.4,Win32,60,5ede234d69a8800409af2756,,1,0,80,17,1,79
,,,,,,,,,,,,,,,,,,,,,,,,,,,,,,,,,,,s,1.661000013,CAS,FALSE,,,,,,,122,casa,Catalan,Sounds/cat_casa.mp3,2020-06-08_18h11.41.559,TranslationElicitation_spa,3.2.4,Win32,60,5ede234d69a8800409af2756,,1,0,80,17,1,79
,,,,,,,,,,,,,,,,,,,,,,,,,,,,,,,,,,,a,1.81099987,CASA,FALSE,,,,,,,122,casa,Catalan,Sounds/cat_casa.mp3,2020-06-08_18h11.41.559,TranslationElicitation_spa,3.2.4,Win32,60,5ede234d69a8800409af2756,,1,0,80,17,1,79
,,,,,,,,,,,,,,,,,,,,,,,,,,,,,,,,,,,return,2.06099987,,FALSE,,,,,,,122,casa,Catalan,Sounds/cat_casa.mp3,2020-06-08_18h11.41.559,TranslationElicitation_spa,3.2.4,Win32,60,5ede234d69a8800409af2756,2.06099987,1,0,80,17,1,79
,,,,,,,,,,,,,,,,,,,,,,,,,,,,,,,,,,,,,,,,,,,,,122,casa,Catalan,Sounds/cat_casa.mp3,2020-06-08_18h11.41.559,TranslationElicitation_spa,3.2.4,Win32,60,5ede234d69a8800409af2756,,1,0,80,17,1,79
,,,,,,,,,,,,,,,,,,,,,,,,,,,,,,,,,,,t,1.064999819,T,FALSE,,,,,,,181,tobogan,Catalan,Sounds/cat_tobogan.mp3,2020-06-08_18h11.41.559,TranslationElicitation_spa,3.2.4,Win32,60,5ede234d69a8800409af2756,,1,0,80,72,1,79
,,,,,,,,,,,,,,,,,,,,,,,,,,,,,,,,,,,o,1.398000002,TO,FALSE,,,,,,,181,tobogan,Catalan,Sounds/cat_tobogan.mp3,2020-06-08_18h11.41.559,TranslationElicitation_spa,3.2.4,Win32,60,5ede234d69a8800409af2756,,1,0,80,72,1,79
,,,,,,,,,,,,,,,,,,,,,,,,,,,,,,,,,,,b,1.59800005,TOB,FALSE,,,,,,,181,tobogan,Catalan,Sounds/cat_tobogan.mp3,2020-06-08_18h11.41.559,TranslationElicitation_spa,3.2.4,Win32,60,5ede234d69a8800409af2756,,1,0,80,72,1,79
,,,,,,,,,,,,,,,,,,,,,,,,,,,,,,,,,,,o,1.664999962,TOBO,FALSE,,,,,,,181,tobogan,Catalan,Sounds/cat_tobogan.mp3,2020-06-08_18h11.41.559,TranslationElicitation_spa,3.2.4,Win32,60,5ede234d69a8800409af2756,,1,0,80,72,1,79
,,,,,,,,,,,,,,,,,,,,,,,,,,,,,,,,,,,g,1.84800005,TOBOG,FALSE,,,,,,,181,tobogan,Catalan,Sounds/cat_tobogan.mp3,2020-06-08_18h11.41.559,TranslationElicitation_spa,3.2.4,Win32,60,5ede234d69a8800409af2756,,1,0,80,72,1,79
,,,,,,,,,,,,,,,,,,,,,,,,,,,,,,,,,,,apostrophe,2.34800005,TOBOG,FALSE,,,,,,,181,tobogan,Catalan,Sounds/cat_tobogan.mp3,2020-06-08_18h11.41.559,TranslationElicitation_spa,3.2.4,Win32,60,5ede234d69a8800409af2756,,1,0,80,72,1,79
,,,,,,,,,,,,,,,,,,,,,,,,,,,,,,,,,,,a,2.464999914,TOBOGÁ,FALSE,,,,,,,181,tobogan,Catalan,Sounds/cat_tobogan.mp3,2020-06-08_18h11.41.559,TranslationElicitation_spa,3.2.4,Win32,60,5ede234d69a8800409af2756,,1,0,80,72,1,79
,,,,,,,,,,,,,,,,,,,,,,,,,,,,,,,,,,,n,2.598999977,TOBOGÁN,FALSE,,,,,,,181,tobogan,Catalan,Sounds/cat_tobogan.mp3,2020-06-08_18h11.41.559,TranslationElicitation_spa,3.2.4,Win32,60,5ede234d69a8800409af2756,,1,0,80,72,1,79
,,,,,,,,,,,,,,,,,,,,,,,,,,,,,,,,,,,return,2.963999987,,FALSE,,,,,,,181,tobogan,Catalan,Sounds/cat_tobogan.mp3,2020-06-08_18h11.41.559,TranslationElicitation_spa,3.2.4,Win32,60,5ede234d69a8800409af2756,2.963999987,1,0,80,72,1,79
,,,,,,,,,,,,,,,,,,,,,,,,,,,,,,,,,,,,,,,,,,,,,181,tobogan,Catalan,Sounds/cat_tobogan.mp3,2020-06-08_18h11.41.559,TranslationElicitation_spa,3.2.4,Win32,60,5ede234d69a8800409af2756,,1,0,80,72,1,79
,,,,,,,,,,,,,,,,,,,,,,,,,,,,,,,,,,,v,2.292999983,V,FALSE,,,,,,,115,bolet,Catalan,Sounds/cat_bolet.mp3,2020-06-08_18h11.41.559,TranslationElicitation_spa,3.2.4,Win32,60,5ede234d69a8800409af2756,,1,0,80,10,1,79
,,,,,,,,,,,,,,,,,,,,,,,,,,,,,,,,,,,o,2.392999887,VO,FALSE,,,,,,,115,bolet,Catalan,Sounds/cat_bolet.mp3,2020-06-08_18h11.41.559,TranslationElicitation_spa,3.2.4,Win32,60,5ede234d69a8800409af2756,,1,0,80,10,1,79
,,,,,,,,,,,,,,,,,,,,,,,,,,,,,,,,,,,l,2.575999975,VOL,FALSE,,,,,,,115,bolet,Catalan,Sounds/cat_bolet.mp3,2020-06-08_18h11.41.559,TranslationElicitation_spa,3.2.4,Win32,60,5ede234d69a8800409af2756,,1,0,80,10,1,79
,,,,,,,,,,,,,,,,,,,,,,,,,,,,,,,,,,,a,2.67599988,VOLA,FALSE,,,,,,,115,bolet,Catalan,Sounds/cat_bolet.mp3,2020-06-08_18h11.41.559,TranslationElicitation_spa,3.2.4,Win32,60,5ede234d69a8800409af2756,,1,0,80,10,1,79
,,,,,,,,,,,,,,,,,,,,,,,,,,,,,,,,,,,r,2.825999975,VOLAR,FALSE,,,,,,,115,bolet,Catalan,Sounds/cat_bolet.mp3,2020-06-08_18h11.41.559,TranslationElicitation_spa,3.2.4,Win32,60,5ede234d69a8800409af2756,,1,0,80,10,1,79
,,,,,,,,,,,,,,,,,,,,,,,,,,,,,,,,,,,return,5.974999905,,FALSE,,,,,,,115,bolet,Catalan,Sounds/cat_bolet.mp3,2020-06-08_18h11.41.559,TranslationElicitation_spa,3.2.4,Win32,60,5ede234d69a8800409af2756,5.974999905,1,0,80,10,1,79
,,,,,,,,,,,,,,,,,,,,,,,,,,,,,,,,,,,,,,,,,,,,,115,bolet,Catalan,Sounds/cat_bolet.mp3,2020-06-08_18h11.41.559,TranslationElicitation_spa,3.2.4,Win32,60,5ede234d69a8800409af2756,,1,0,80,10,1,79
,,,,,,,,,,,,,,,,,,,,,,,,,,,,,,,,,,,n,1.677999973,N,FALSE,,,,,,,151,lluna,Catalan,Sounds/cat_lluna.mp3,2020-06-08_18h11.41.559,TranslationElicitation_spa,3.2.4,Win32,60,5ede234d69a8800409af2756,,1,0,80,45,1,79
,,,,,,,,,,,,,,,,,,,,,,,,,,,,,,,,,,,backspace,2.144000053,,TRUE,,,,,,,151,lluna,Catalan,Sounds/cat_lluna.mp3,2020-06-08_18h11.41.559,TranslationElicitation_spa,3.2.4,Win32,60,5ede234d69a8800409af2756,,1,0,80,45,1,79
,,,,,,,,,,,,,,,,,,,,,,,,,,,,,,,,,,,l,2.411000013,L,TRUE,,,,,,,151,lluna,Catalan,Sounds/cat_lluna.mp3,2020-06-08_18h11.41.559,TranslationElicitation_spa,3.2.4,Win32,60,5ede234d69a8800409af2756,,1,0,80,45,1,79
,,,,,,,,,,,,,,,,,,,,,,,,,,,,,,,,,,,u,2.594000101,LU,TRUE,,,,,,,151,lluna,Catalan,Sounds/cat_lluna.mp3,2020-06-08_18h11.41.559,TranslationElicitation_spa,3.2.4,Win32,60,5ede234d69a8800409af2756,,1,0,80,45,1,79
,,,,,,,,,,,,,,,,,,,,,,,,,,,,,,,,,,,n,2.743999958,LUN,TRUE,,,,,,,151,lluna,Catalan,Sounds/cat_lluna.mp3,2020-06-08_18h11.41.559,TranslationElicitation_spa,3.2.4,Win32,60,5ede234d69a8800409af2756,,1,0,80,45,1,79
,,,,,,,,,,,,,,,,,,,,,,,,,,,,,,,,,,,a,2.844000101,LUNA,TRUE,,,,,,,151,lluna,Catalan,Sounds/cat_lluna.mp3,2020-06-08_18h11.41.559,TranslationElicitation_spa,3.2.4,Win32,60,5ede234d69a8800409af2756,,1,0,80,45,1,79
,,,,,,,,,,,,,,,,,,,,,,,,,,,,,,,,,,,return,2.976999998,,TRUE,,,,,,,151,lluna,Catalan,Sounds/cat_lluna.mp3,2020-06-08_18h11.41.559,TranslationElicitation_spa,3.2.4,Win32,60,5ede234d69a8800409af2756,2.976999998,1,0,80,45,1,79
,,,,,,,,,,,,,,,,,,,,,,,,,,,,,,,,,,,,,,,,,,,,,151,lluna,Catalan,Sounds/cat_lluna.mp3,2020-06-08_18h11.41.559,TranslationElicitation_spa,3.2.4,Win32,60,5ede234d69a8800409af2756,,1,0,80,45,1,79
,,,,,,,,,,,,,,,,,,,,,,,,,,,,,,,,,,,v,3.047999859,V,FALSE,,,,,,,116,bolquer,Catalan,Sounds/cat_bolquer.mp3,2020-06-08_18h11.41.559,TranslationElicitation_spa,3.2.4,Win32,60,5ede234d69a8800409af2756,,1,0,80,11,1,79
,,,,,,,,,,,,,,,,,,,,,,,,,,,,,,,,,,,o,3.164999962,VO,FALSE,,,,,,,116,bolquer,Catalan,Sounds/cat_bolquer.mp3,2020-06-08_18h11.41.559,TranslationElicitation_spa,3.2.4,Win32,60,5ede234d69a8800409af2756,,1,0,80,11,1,79
,,,,,,,,,,,,,,,,,,,,,,,,,,,,,,,,,,,c,3.34800005,VOC,FALSE,,,,,,,116,bolquer,Catalan,Sounds/cat_bolquer.mp3,2020-06-08_18h11.41.559,TranslationElicitation_spa,3.2.4,Win32,60,5ede234d69a8800409af2756,,1,0,80,11,1,79
,,,,,,,,,,,,,,,,,,,,,,,,,,,,,,,,,,,backspace,3.963999987,V,TRUE,,,,,,,116,bolquer,Catalan,Sounds/cat_bolquer.mp3,2020-06-08_18h11.41.559,TranslationElicitation_spa,3.2.4,Win32,60,5ede234d69a8800409af2756,,1,0,80,11,1,79
,,,,,,,,,,,,,,,,,,,,,,,,,,,,,,,,,,,l,4.214999914,VL,TRUE,,,,,,,116,bolquer,Catalan,Sounds/cat_bolquer.mp3,2020-06-08_18h11.41.559,TranslationElicitation_spa,3.2.4,Win32,60,5ede234d69a8800409af2756,,1,0,80,11,1,79
,,,,,,,,,,,,,,,,,,,,,,,,,,,,,,,,,,,c,4.330999851,VLC,TRUE,,,,,,,116,bolquer,Catalan,Sounds/cat_bolquer.mp3,2020-06-08_18h11.41.559,TranslationElicitation_spa,3.2.4,Win32,60,5ede234d69a8800409af2756,,1,0,80,11,1,79
,,,,,,,,,,,,,,,,,,,,,,,,,,,,,,,,,,,apostrophe,4.481999874,VLC,TRUE,,,,,,,116,bolquer,Catalan,Sounds/cat_bolquer.mp3,2020-06-08_18h11.41.559,TranslationElicitation_spa,3.2.4,Win32,60,5ede234d69a8800409af2756,,1,0,80,11,1,79
,,,,,,,,,,,,,,,,,,,,,,,,,,,,,,,,,,,a,4.613999844,VLCÁ,TRUE,,,,,,,116,bolquer,Catalan,Sounds/cat_bolquer.mp3,2020-06-08_18h11.41.559,TranslationElicitation_spa,3.2.4,Win32,60,5ede234d69a8800409af2756,,1,0,80,11,1,79
,,,,,,,,,,,,,,,,,,,,,,,,,,,,,,,,,,,n,4.713999987,VLCÁN,TRUE,,,,,,,116,bolquer,Catalan,Sounds/cat_bolquer.mp3,2020-06-08_18h11.41.559,TranslationElicitation_spa,3.2.4,Win32,60,5ede234d69a8800409af2756,,1,0,80,11,1,79
,,,,,,,,,,,,,,,,,,,,,,,,,,,,,,,,,,,backspace,5.080999851,VLC,TRUE,,,,,,,116,bolquer,Catalan,Sounds/cat_bolquer.mp3,2020-06-08_18h11.41.559,TranslationElicitation_spa,3.2.4,Win32,60,5ede234d69a8800409af2756,,1,0,80,11,1,79
,,,,,,,,,,,,,,,,,,,,,,,,,,,,,,,,,,,backspace,5.230999947,V,TRUE,,,,,,,116,bolquer,Catalan,Sounds/cat_bolquer.mp3,2020-06-08_18h11.41.559,TranslationElicitation_spa,3.2.4,Win32,60,5ede234d69a8800409af2756,,1,0,80,11,1,79
,,,,,,,,,,,,,,,,,,,,,,,,,,,,,,,,,,,backspace,5.363999844,,TRUE,,,,,,,116,bolquer,Catalan,Sounds/cat_bolquer.mp3,2020-06-08_18h11.41.559,TranslationElicitation_spa,3.2.4,Win32,60,5ede234d69a8800409af2756,,1,0,80,11,1,79
,,,,,,,,,,,,,,,,,,,,,,,,,,,,,,,,,,,v,6.131000042,V,TRUE,,,,,,,116,bolquer,Catalan,Sounds/cat_bolquer.mp3,2020-06-08_18h11.41.559,TranslationElicitation_spa,3.2.4,Win32,60,5ede234d69a8800409af2756,,1,0,80,11,1,79
,,,,,,,,,,,,,,,,,,,,,,,,,,,,,,,,,,,o,6.213999987,VO,TRUE,,,,,,,116,bolquer,Catalan,Sounds/cat_bolquer.mp3,2020-06-08_18h11.41.559,TranslationElicitation_spa,3.2.4,Win32,60,5ede234d69a8800409af2756,,1,0,80,11,1,79
,,,,,,,,,,,,,,,,,,,,,,,,,,,,,,,,,,,l,6.429999828,VOL,TRUE,,,,,,,116,bolquer,Catalan,Sounds/cat_bolquer.mp3,2020-06-08_18h11.41.559,TranslationElicitation_spa,3.2.4,Win32,60,5ede234d69a8800409af2756,,1,0,80,11,1,79
,,,,,,,,,,,,,,,,,,,,,,,,,,,,,,,,,,,c,6.513999939,VOLC,TRUE,,,,,,,116,bolquer,Catalan,Sounds/cat_bolquer.mp3,2020-06-08_18h11.41.559,TranslationElicitation_spa,3.2.4,Win32,60,5ede234d69a8800409af2756,,1,0,80,11,1,79
,,,,,,,,,,,,,,,,,,,,,,,,,,,,,,,,,,,apostrophe,6.813999891,VOLC,TRUE,,,,,,,116,bolquer,Catalan,Sounds/cat_bolquer.mp3,2020-06-08_18h11.41.559,TranslationElicitation_spa,3.2.4,Win32,60,5ede234d69a8800409af2756,,1,0,80,11,1,79
,,,,,,,,,,,,,,,,,,,,,,,,,,,,,,,,,,,a,6.963999987,VOLCÁ,TRUE,,,,,,,116,bolquer,Catalan,Sounds/cat_bolquer.mp3,2020-06-08_18h11.41.559,TranslationElicitation_spa,3.2.4,Win32,60,5ede234d69a8800409af2756,,1,0,80,11,1,79
,,,,,,,,,,,,,,,,,,,,,,,,,,,,,,,,,,,n,7.113999844,VOLCÁN,TRUE,,,,,,,116,bolquer,Catalan,Sounds/cat_bolquer.mp3,2020-06-08_18h11.41.559,TranslationElicitation_spa,3.2.4,Win32,60,5ede234d69a8800409af2756,,1,0,80,11,1,79
,,,,,,,,,,,,,,,,,,,,,,,,,,,,,,,,,,,return,7.463999987,,TRUE,,,,,,,116,bolquer,Catalan,Sounds/cat_bolquer.mp3,2020-06-08_18h11.41.559,TranslationElicitation_spa,3.2.4,Win32,60,5ede234d69a8800409af2756,7.463999987,1,0,80,11,1,79
,,,,,,,,,,,,,,,,,,,,,,,,,,,,,,,,,,,,,,,,,,,,,116,bolquer,Catalan,Sounds/cat_bolquer.mp3,2020-06-08_18h11.41.559,TranslationElicitation_spa,3.2.4,Win32,60,5ede234d69a8800409af2756,,1,0,80,11,1,79
,,,,,,,,,,,,,,,,,,,,,,,,,,,,,,,,,,,g,1.561000109,G,FALSE,,,,,,,139,galleda,Catalan,Sounds/cat_galleda.mp3,2020-06-08_18h11.41.559,TranslationElicitation_spa,3.2.4,Win32,60,5ede234d69a8800409af2756,,1,0,80,34,1,79
,,,,,,,,,,,,,,,,,,,,,,,,,,,,,,,,,,,a,1.745000124,GA,FALSE,,,,,,,139,galleda,Catalan,Sounds/cat_galleda.mp3,2020-06-08_18h11.41.559,TranslationElicitation_spa,3.2.4,Win32,60,5ede234d69a8800409af2756,,1,0,80,34,1,79
,,,,,,,,,,,,,,,,,,,,,,,,,,,,,,,,,,,l,1.845000029,GAL,FALSE,,,,,,,139,galleda,Catalan,Sounds/cat_galleda.mp3,2020-06-08_18h11.41.559,TranslationElicitation_spa,3.2.4,Win32,60,5ede234d69a8800409af2756,,1,0,80,34,1,79
,,,,,,,,,,,,,,,,,,,,,,,,,,,,,,,,,,,l,2.011000156,GALL,FALSE,,,,,,,139,galleda,Catalan,Sounds/cat_galleda.mp3,2020-06-08_18h11.41.559,TranslationElicitation_spa,3.2.4,Win32,60,5ede234d69a8800409af2756,,1,0,80,34,1,79
,,,,,,,,,,,,,,,,,,,,,,,,,,,,,,,,,,,e,2.094000101,GALLE,FALSE,,,,,,,139,galleda,Catalan,Sounds/cat_galleda.mp3,2020-06-08_18h11.41.559,TranslationElicitation_spa,3.2.4,Win32,60,5ede234d69a8800409af2756,,1,0,80,34,1,79
,,,,,,,,,,,,,,,,,,,,,,,,,,,,,,,,,,,t,2.244000196,GALLET,FALSE,,,,,,,139,galleda,Catalan,Sounds/cat_galleda.mp3,2020-06-08_18h11.41.559,TranslationElicitation_spa,3.2.4,Win32,60,5ede234d69a8800409af2756,,1,0,80,34,1,79
,,,,,,,,,,,,,,,,,,,,,,,,,,,,,,,,,,,a,2.427999973,GALLETA,FALSE,,,,,,,139,galleda,Catalan,Sounds/cat_galleda.mp3,2020-06-08_18h11.41.559,TranslationElicitation_spa,3.2.4,Win32,60,5ede234d69a8800409af2756,,1,0,80,34,1,79
,,,,,,,,,,,,,,,,,,,,,,,,,,,,,,,,,,,return,2.628000021,,FALSE,,,,,,,139,galleda,Catalan,Sounds/cat_galleda.mp3,2020-06-08_18h11.41.559,TranslationElicitation_spa,3.2.4,Win32,60,5ede234d69a8800409af2756,2.628000021,1,0,80,34,1,79
,,,,,,,,,,,,,,,,,,,,,,,,,,,,,,,,,,,,,,,,,,,,,139,galleda,Catalan,Sounds/cat_galleda.mp3,2020-06-08_18h11.41.559,TranslationElicitation_spa,3.2.4,Win32,60,5ede234d69a8800409af2756,,1,0,80,34,1,79
,,,,,,,,,,,,,,,,,,,,,,,,,,,,,,,,,,,p,1.981999874,P,FALSE,,,,,,,168,planta,Catalan,Sounds/cat_planta.mp3,2020-06-08_18h11.41.559,TranslationElicitation_spa,3.2.4,Win32,60,5ede234d69a8800409af2756,,1,0,80,60,1,79
,,,,,,,,,,,,,,,,,,,,,,,,,,,,,,,,,,,l,2.164999962,PL,FALSE,,,,,,,168,planta,Catalan,Sounds/cat_planta.mp3,2020-06-08_18h11.41.559,TranslationElicitation_spa,3.2.4,Win32,60,5ede234d69a8800409af2756,,1,0,80,60,1,79
,,,,,,,,,,,,,,,,,,,,,,,,,,,,,,,,,,,a,2.297999859,PLA,FALSE,,,,,,,168,planta,Catalan,Sounds/cat_planta.mp3,2020-06-08_18h11.41.559,TranslationElicitation_spa,3.2.4,Win32,60,5ede234d69a8800409af2756,,1,0,80,60,1,79
,,,,,,,,,,,,,,,,,,,,,,,,,,,,,,,,,,,n,2.464999914,PLAN,FALSE,,,,,,,168,planta,Catalan,Sounds/cat_planta.mp3,2020-06-08_18h11.41.559,TranslationElicitation_spa,3.2.4,Win32,60,5ede234d69a8800409af2756,,1,0,80,60,1,79
,,,,,,,,,,,,,,,,,,,,,,,,,,,,,,,,,,,r,2.597999811,PLANR,FALSE,,,,,,,168,planta,Catalan,Sounds/cat_planta.mp3,2020-06-08_18h11.41.559,TranslationElicitation_spa,3.2.4,Win32,60,5ede234d69a8800409af2756,,1,0,80,60,1,79
,,,,,,,,,,,,,,,,,,,,,,,,,,,,,,,,,,,backspace,3.064999819,PLA,TRUE,,,,,,,168,planta,Catalan,Sounds/cat_planta.mp3,2020-06-08_18h11.41.559,TranslationElicitation_spa,3.2.4,Win32,60,5ede234d69a8800409af2756,,1,0,80,60,1,79
,,,,,,,,,,,,,,,,,,,,,,,,,,,,,,,,,,,t,3.191999912,PLAT,TRUE,,,,,,,168,planta,Catalan,Sounds/cat_planta.mp3,2020-06-08_18h11.41.559,TranslationElicitation_spa,3.2.4,Win32,60,5ede234d69a8800409af2756,,1,0,80,60,1,79
,,,,,,,,,,,,,,,,,,,,,,,,,,,,,,,,,,,a,3.398000002,PLATA,TRUE,,,,,,,168,planta,Catalan,Sounds/cat_planta.mp3,2020-06-08_18h11.41.559,TranslationElicitation_spa,3.2.4,Win32,60,5ede234d69a8800409af2756,,1,0,80,60,1,79
,,,,,,,,,,,,,,,,,,,,,,,,,,,,,,,,,,,backspace,3.964999914,PLA,TRUE,,,,,,,168,planta,Catalan,Sounds/cat_planta.mp3,2020-06-08_18h11.41.559,TranslationElicitation_spa,3.2.4,Win32,60,5ede234d69a8800409af2756,,1,0,80,60,1,79
,,,,,,,,,,,,,,,,,,,,,,,,,,,,,,,,,,,backspace,4.081999779,P,TRUE,,,,,,,168,planta,Catalan,Sounds/cat_planta.mp3,2020-06-08_18h11.41.559,TranslationElicitation_spa,3.2.4,Win32,60,5ede234d69a8800409af2756,,1,0,80,60,1,79
,,,,,,,,,,,,,,,,,,,,,,,,,,,,,,,,,,,n,4.314999819,PN,TRUE,,,,,,,168,planta,Catalan,Sounds/cat_planta.mp3,2020-06-08_18h11.41.559,TranslationElicitation_spa,3.2.4,Win32,60,5ede234d69a8800409af2756,,1,0,80,60,1,79
,,,,,,,,,,,,,,,,,,,,,,,,,,,,,,,,,,,backspace,4.648000002,,TRUE,,,,,,,168,planta,Catalan,Sounds/cat_planta.mp3,2020-06-08_18h11.41.559,TranslationElicitation_spa,3.2.4,Win32,60,5ede234d69a8800409af2756,,1,0,80,60,1,79
,,,,,,,,,,,,,,,,,,,,,,,,,,,,,,,,,,,l,4.86500001,L,TRUE,,,,,,,168,planta,Catalan,Sounds/cat_planta.mp3,2020-06-08_18h11.41.559,TranslationElicitation_spa,3.2.4,Win32,60,5ede234d69a8800409af2756,,1,0,80,60,1,79
,,,,,,,,,,,,,,,,,,,,,,,,,,,,,,,,,,,a,4.980999947,LA,TRUE,,,,,,,168,planta,Catalan,Sounds/cat_planta.mp3,2020-06-08_18h11.41.559,TranslationElicitation_spa,3.2.4,Win32,60,5ede234d69a8800409af2756,,1,0,80,60,1,79
,,,,,,,,,,,,,,,,,,,,,,,,,,,,,,,,,,,n,5.11500001,LAN,TRUE,,,,,,,168,planta,Catalan,Sounds/cat_planta.mp3,2020-06-08_18h11.41.559,TranslationElicitation_spa,3.2.4,Win32,60,5ede234d69a8800409af2756,,1,0,80,60,1,79
,,,,,,,,,,,,,,,,,,,,,,,,,,,,,,,,,,,t,5.297999859,LANT,TRUE,,,,,,,168,planta,Catalan,Sounds/cat_planta.mp3,2020-06-08_18h11.41.559,TranslationElicitation_spa,3.2.4,Win32,60,5ede234d69a8800409af2756,,1,0,80,60,1,79
,,,,,,,,,,,,,,,,,,,,,,,,,,,,,,,,,,,backspace,5.514999866,LA,TRUE,,,,,,,168,planta,Catalan,Sounds/cat_planta.mp3,2020-06-08_18h11.41.559,TranslationElicitation_spa,3.2.4,Win32,60,5ede234d69a8800409af2756,,1,0,80,60,1,79
,,,,,,,,,,,,,,,,,,,,,,,,,,,,,,,,,,,backspace,5.648000002,,TRUE,,,,,,,168,planta,Catalan,Sounds/cat_planta.mp3,2020-06-08_18h11.41.559,TranslationElicitation_spa,3.2.4,Win32,60,5ede234d69a8800409af2756,,1,0,80,60,1,79
,,,,,,,,,,,,,,,,,,,,,,,,,,,,,,,,,,,backspace,5.780999899,,TRUE,,,,,,,168,planta,Catalan,Sounds/cat_planta.mp3,2020-06-08_18h11.41.559,TranslationElicitation_spa,3.2.4,Win32,60,5ede234d69a8800409af2756,,1,0,80,60,1,79
,,,,,,,,,,,,,,,,,,,,,,,,,,,,,,,,,,,p,6.263999939,P,TRUE,,,,,,,168,planta,Catalan,Sounds/cat_planta.mp3,2020-06-08_18h11.41.559,TranslationElicitation_spa,3.2.4,Win32,60,5ede234d69a8800409af2756,,1,0,80,60,1,79
,,,,,,,,,,,,,,,,,,,,,,,,,,,,,,,,,,,l,6.398000002,PL,TRUE,,,,,,,168,planta,Catalan,Sounds/cat_planta.mp3,2020-06-08_18h11.41.559,TranslationElicitation_spa,3.2.4,Win32,60,5ede234d69a8800409af2756,,1,0,80,60,1,79
,,,,,,,,,,,,,,,,,,,,,,,,,,,,,,,,,,,a,6.513999939,PLA,TRUE,,,,,,,168,planta,Catalan,Sounds/cat_planta.mp3,2020-06-08_18h11.41.559,TranslationElicitation_spa,3.2.4,Win32,60,5ede234d69a8800409af2756,,1,0,80,60,1,79
,,,,,,,,,,,,,,,,,,,,,,,,,,,,,,,,,,,n,6.697999954,PLAN,TRUE,,,,,,,168,planta,Catalan,Sounds/cat_planta.mp3,2020-06-08_18h11.41.559,TranslationElicitation_spa,3.2.4,Win32,60,5ede234d69a8800409af2756,,1,0,80,60,1,79
,,,,,,,,,,,,,,,,,,,,,,,,,,,,,,,,,,,t,6.948999882,PLANT,TRUE,,,,,,,168,planta,Catalan,Sounds/cat_planta.mp3,2020-06-08_18h11.41.559,TranslationElicitation_spa,3.2.4,Win32,60,5ede234d69a8800409af2756,,1,0,80,60,1,79
,,,,,,,,,,,,,,,,,,,,,,,,,,,,,,,,,,,a,7.163999796,PLANTA,TRUE,,,,,,,168,planta,Catalan,Sounds/cat_planta.mp3,2020-06-08_18h11.41.559,TranslationElicitation_spa,3.2.4,Win32,60,5ede234d69a8800409af2756,,1,0,80,60,1,79
,,,,,,,,,,,,,,,,,,,,,,,,,,,,,,,,,,,return,7.463999987,,TRUE,,,,,,,168,planta,Catalan,Sounds/cat_planta.mp3,2020-06-08_18h11.41.559,TranslationElicitation_spa,3.2.4,Win32,60,5ede234d69a8800409af2756,7.463999987,1,0,80,60,1,79
,,,,,,,,,,,,,,,,,,,,,,,,,,,,,,,,,,,,,,,,,,,,,168,planta,Catalan,Sounds/cat_planta.mp3,2020-06-08_18h11.41.559,TranslationElicitation_spa,3.2.4,Win32,60,5ede234d69a8800409af2756,,1,0,80,60,1,79
,,,,,,,,,,,,,,,,,,,,,,,,,,,,,,,,,,,a,0.995000124,A,FALSE,,,,,,,121,camisa,Catalan,Sounds/cat_camisa.mp3,2020-06-08_18h11.41.559,TranslationElicitation_spa,3.2.4,Win32,60,5ede234d69a8800409af2756,,1,0,80,16,1,79
,,,,,,,,,,,,,,,,,,,,,,,,,,,,,,,,,,,m,1.095000029,AM,FALSE,,,,,,,121,camisa,Catalan,Sounds/cat_camisa.mp3,2020-06-08_18h11.41.559,TranslationElicitation_spa,3.2.4,Win32,60,5ede234d69a8800409af2756,,1,0,80,16,1,79
,,,,,,,,,,,,,,,,,,,,,,,,,,,,,,,,,,,i,1.212000132,AMI,FALSE,,,,,,,121,camisa,Catalan,Sounds/cat_camisa.mp3,2020-06-08_18h11.41.559,TranslationElicitation_spa,3.2.4,Win32,60,5ede234d69a8800409af2756,,1,0,80,16,1,79
,,,,,,,,,,,,,,,,,,,,,,,,,,,,,,,,,,,s,1.311000109,AMIS,FALSE,,,,,,,121,camisa,Catalan,Sounds/cat_camisa.mp3,2020-06-08_18h11.41.559,TranslationElicitation_spa,3.2.4,Win32,60,5ede234d69a8800409af2756,,1,0,80,16,1,79
,,,,,,,,,,,,,,,,,,,,,,,,,,,,,,,,,,,backspace,1.595000029,AM,TRUE,,,,,,,121,camisa,Catalan,Sounds/cat_camisa.mp3,2020-06-08_18h11.41.559,TranslationElicitation_spa,3.2.4,Win32,60,5ede234d69a8800409af2756,,1,0,80,16,1,79
,,,,,,,,,,,,,,,,,,,,,,,,,,,,,,,,,,,backspace,1.727999926,,TRUE,,,,,,,121,camisa,Catalan,Sounds/cat_camisa.mp3,2020-06-08_18h11.41.559,TranslationElicitation_spa,3.2.4,Win32,60,5ede234d69a8800409af2756,,1,0,80,16,1,79
,,,,,,,,,,,,,,,,,,,,,,,,,,,,,,,,,,,backspace,1.861999989,,TRUE,,,,,,,121,camisa,Catalan,Sounds/cat_camisa.mp3,2020-06-08_18h11.41.559,TranslationElicitation_spa,3.2.4,Win32,60,5ede234d69a8800409af2756,,1,0,80,16,1,79
,,,,,,,,,,,,,,,,,,,,,,,,,,,,,,,,,,,c,2.128000021,C,TRUE,,,,,,,121,camisa,Catalan,Sounds/cat_camisa.mp3,2020-06-08_18h11.41.559,TranslationElicitation_spa,3.2.4,Win32,60,5ede234d69a8800409af2756,,1,0,80,16,1,79
,,,,,,,,,,,,,,,,,,,,,,,,,,,,,,,,,,,a,2.328999996,CA,TRUE,,,,,,,121,camisa,Catalan,Sounds/cat_camisa.mp3,2020-06-08_18h11.41.559,TranslationElicitation_spa,3.2.4,Win32,60,5ede234d69a8800409af2756,,1,0,80,16,1,79
,,,,,,,,,,,,,,,,,,,,,,,,,,,,,,,,,,,m,2.477999926,CAM,TRUE,,,,,,,121,camisa,Catalan,Sounds/cat_camisa.mp3,2020-06-08_18h11.41.559,TranslationElicitation_spa,3.2.4,Win32,60,5ede234d69a8800409af2756,,1,0,80,16,1,79
,,,,,,,,,,,,,,,,,,,,,,,,,,,,,,,,,,,i,2.561000109,CAMI,TRUE,,,,,,,121,camisa,Catalan,Sounds/cat_camisa.mp3,2020-06-08_18h11.41.559,TranslationElicitation_spa,3.2.4,Win32,60,5ede234d69a8800409af2756,,1,0,80,16,1,79
,,,,,,,,,,,,,,,,,,,,,,,,,,,,,,,,,,,s,2.628999949,CAMIS,TRUE,,,,,,,121,camisa,Catalan,Sounds/cat_camisa.mp3,2020-06-08_18h11.41.559,TranslationElicitation_spa,3.2.4,Win32,60,5ede234d69a8800409af2756,,1,0,80,16,1,79
,,,,,,,,,,,,,,,,,,,,,,,,,,,,,,,,,,,a,2.704999924,CAMISA,TRUE,,,,,,,121,camisa,Catalan,Sounds/cat_camisa.mp3,2020-06-08_18h11.41.559,TranslationElicitation_spa,3.2.4,Win32,60,5ede234d69a8800409af2756,,1,0,80,16,1,79
,,,,,,,,,,,,,,,,,,,,,,,,,,,,,,,,,,,return,3.046999931,,TRUE,,,,,,,121,camisa,Catalan,Sounds/cat_camisa.mp3,2020-06-08_18h11.41.559,TranslationElicitation_spa,3.2.4,Win32,60,5ede234d69a8800409af2756,3.046000004,1,0,80,16,1,79
,,,,,,,,,,,,,,,,,,,,,,,,,,,,,,,,,,,,,,,,,,,,,121,camisa,Catalan,Sounds/cat_camisa.mp3,2020-06-08_18h11.41.559,TranslationElicitation_spa,3.2.4,Win32,60,5ede234d69a8800409af2756,,1,0,80,16,1,79
,,,,,,,,,,,,,,,,,,,,,,,,,,,,,,,,,,,g,5.381000042,G,FALSE,,,,,,,145,got,Catalan,Sounds/cat_got.mp3,2020-06-08_18h11.41.559,TranslationElicitation_spa,3.2.4,Win32,60,5ede234d69a8800409af2756,,1,0,80,40,1,79
,,,,,,,,,,,,,,,,,,,,,,,,,,,,,,,,,,,o,5.480999947,GO,FALSE,,,,,,,145,got,Catalan,Sounds/cat_got.mp3,2020-06-08_18h11.41.559,TranslationElicitation_spa,3.2.4,Win32,60,5ede234d69a8800409af2756,,1,0,80,40,1,79
,,,,,,,,,,,,,,,,,,,,,,,,,,,,,,,,,,,t,5.515000105,GOT,FALSE,,,,,,,145,got,Catalan,Sounds/cat_got.mp3,2020-06-08_18h11.41.559,TranslationElicitation_spa,3.2.4,Win32,60,5ede234d69a8800409af2756,,1,0,80,40,1,79
,,,,,,,,,,,,,,,,,,,,,,,,,,,,,,,,,,,a,5.747999907,GOTA,FALSE,,,,,,,145,got,Catalan,Sounds/cat_got.mp3,2020-06-08_18h11.41.559,TranslationElicitation_spa,3.2.4,Win32,60,5ede234d69a8800409af2756,,1,0,80,40,1,79
,,,,,,,,,,,,,,,,,,,,,,,,,,,,,,,,,,,return,6.048000097,,FALSE,,,,,,,145,got,Catalan,Sounds/cat_got.mp3,2020-06-08_18h11.41.559,TranslationElicitation_spa,3.2.4,Win32,60,5ede234d69a8800409af2756,6.048000097,1,0,80,40,1,79
,,,,,,,,,,,,,,,,,,,,,,,,,,,,,,,,,,,,,,,,,,,,,145,got,Catalan,Sounds/cat_got.mp3,2020-06-08_18h11.41.559,TranslationElicitation_spa,3.2.4,Win32,60,5ede234d69a8800409af2756,,1,0,80,40,1,79
,,,,,,,,,,,,,,,,,,,,,,,,,,,,,,,,,,,n,5.881000042,N,FALSE,,,,,,,158,nas,Catalan,Sounds/cat_nas.mp3,2020-06-08_18h11.41.559,TranslationElicitation_spa,3.2.4,Win32,60,5ede234d69a8800409af2756,,1,0,80,52,1,79
,,,,,,,,,,,,,,,,,,,,,,,,,,,,,,,,,,,a,5.997999907,NA,FALSE,,,,,,,158,nas,Catalan,Sounds/cat_nas.mp3,2020-06-08_18h11.41.559,TranslationElicitation_spa,3.2.4,Win32,60,5ede234d69a8800409af2756,,1,0,80,52,1,79
,,,,,,,,,,,,,,,,,,,,,,,,,,,,,,,,,,,d,6.150000095,NAD,FALSE,,,,,,,158,nas,Catalan,Sounds/cat_nas.mp3,2020-06-08_18h11.41.559,TranslationElicitation_spa,3.2.4,Win32,60,5ede234d69a8800409af2756,,1,0,80,52,1,79
,,,,,,,,,,,,,,,,,,,,,,,,,,,,,,,,,,,a,6.280999899,NADA,FALSE,,,,,,,158,nas,Catalan,Sounds/cat_nas.mp3,2020-06-08_18h11.41.559,TranslationElicitation_spa,3.2.4,Win32,60,5ede234d69a8800409af2756,,1,0,80,52,1,79
,,,,,,,,,,,,,,,,,,,,,,,,,,,,,,,,,,,return,6.447999954,,FALSE,,,,,,,158,nas,Catalan,Sounds/cat_nas.mp3,2020-06-08_18h11.41.559,TranslationElicitation_spa,3.2.4,Win32,60,5ede234d69a8800409af2756,6.447999954,1,0,80,52,1,79
,,,,,,,,,,,,,,,,,,,,,,,,,,,,,,,,,,,,,,,,,,,,,158,nas,Catalan,Sounds/cat_nas.mp3,2020-06-08_18h11.41.559,TranslationElicitation_spa,3.2.4,Win32,60,5ede234d69a8800409af2756,,1,0,80,52,1,79
,,,,,,,,,,,,,,,,,,,,,,,,,,,,,,,,,,,s,1.749000072,S,FALSE,,,,,,,177,sol,Catalan,Sounds/cat_sol.mp3,2020-06-08_18h11.41.559,TranslationElicitation_spa,3.2.4,Win32,60,5ede234d69a8800409af2756,,1,0,80,69,1,79
,,,,,,,,,,,,,,,,,,,,,,,,,,,,,,,,,,,o,1.850000143,SO,FALSE,,,,,,,177,sol,Catalan,Sounds/cat_sol.mp3,2020-06-08_18h11.41.559,TranslationElicitation_spa,3.2.4,Win32,60,5ede234d69a8800409af2756,,1,0,80,69,1,79
,,,,,,,,,,,,,,,,,,,,,,,,,,,,,,,,,,,l,2.082999945,SOL,FALSE,,,,,,,177,sol,Catalan,Sounds/cat_sol.mp3,2020-06-08_18h11.41.559,TranslationElicitation_spa,3.2.4,Win32,60,5ede234d69a8800409af2756,,1,0,80,69,1,79
,,,,,,,,,,,,,,,,,,,,,,,,,,,,,,,,,,,return,2.350000143,,FALSE,,,,,,,177,sol,Catalan,Sounds/cat_sol.mp3,2020-06-08_18h11.41.559,TranslationElicitation_spa,3.2.4,Win32,60,5ede234d69a8800409af2756,2.350000143,1,0,80,69,1,79
,,,,,,,,,,,,,,,,,,,,,,,,,,,,,,,,,,,,,,,,,,,,,177,sol,Catalan,Sounds/cat_sol.mp3,2020-06-08_18h11.41.559,TranslationElicitation_spa,3.2.4,Win32,60,5ede234d69a8800409af2756,,1,0,80,69,1,79
,,,,,,,,,,,,,,,,,,,,,,,,,,,,,,,,,,,c,7.647000074,C,FALSE,,,,,,,125,colom,Catalan,Sounds/cat_colom.mp3,2020-06-08_18h11.41.559,TranslationElicitation_spa,3.2.4,Win32,60,5ede234d69a8800409af2756,,1,0,80,20,1,79
,,,,,,,,,,,,,,,,,,,,,,,,,,,,,,,,,,,o,8.663000107,CO,FALSE,,,,,,,125,colom,Catalan,Sounds/cat_colom.mp3,2020-06-08_18h11.41.559,TranslationElicitation_spa,3.2.4,Win32,60,5ede234d69a8800409af2756,,1,0,80,20,1,79
,,,,,,,,,,,,,,,,,,,,,,,,,,,,,,,,,,,l,9.179000139,COL,FALSE,,,,,,,125,colom,Catalan,Sounds/cat_colom.mp3,2020-06-08_18h11.41.559,TranslationElicitation_spa,3.2.4,Win32,60,5ede234d69a8800409af2756,,1,0,80,20,1,79
,,,,,,,,,,,,,,,,,,,,,,,,,,,,,,,,,,,o,9.396000147,COLO,FALSE,,,,,,,125,colom,Catalan,Sounds/cat_colom.mp3,2020-06-08_18h11.41.559,TranslationElicitation_spa,3.2.4,Win32,60,5ede234d69a8800409af2756,,1,0,80,20,1,79
,,,,,,,,,,,,,,,,,,,,,,,,,,,,,,,,,,,e,9.663000107,COLOE,FALSE,,,,,,,125,colom,Catalan,Sounds/cat_colom.mp3,2020-06-08_18h11.41.559,TranslationElicitation_spa,3.2.4,Win32,60,5ede234d69a8800409af2756,,1,0,80,20,1,79
,,,,,,,,,,,,,,,,,,,,,,,,,,,,,,,,,,,r,10.40799999,COLOER,FALSE,,,,,,,125,colom,Catalan,Sounds/cat_colom.mp3,2020-06-08_18h11.41.559,TranslationElicitation_spa,3.2.4,Win32,60,5ede234d69a8800409af2756,,1,0,80,20,1,79
,,,,,,,,,,,,,,,,,,,,,,,,,,,,,,,,,,,backspace,10.52999997,COLO,TRUE,,,,,,,125,colom,Catalan,Sounds/cat_colom.mp3,2020-06-08_18h11.41.559,TranslationElicitation_spa,3.2.4,Win32,60,5ede234d69a8800409af2756,,1,0,80,20,1,79
,,,,,,,,,,,,,,,,,,,,,,,,,,,,,,,,,,,backspace,10.796,CO,TRUE,,,,,,,125,colom,Catalan,Sounds/cat_colom.mp3,2020-06-08_18h11.41.559,TranslationElicitation_spa,3.2.4,Win32,60,5ede234d69a8800409af2756,,1,0,80,20,1,79
,,,,,,,,,,,,,,,,,,,,,,,,,,,,,,,,,,,r,10.87899995,COR,TRUE,,,,,,,125,colom,Catalan,Sounds/cat_colom.mp3,2020-06-08_18h11.41.559,TranslationElicitation_spa,3.2.4,Win32,60,5ede234d69a8800409af2756,,1,0,80,20,1,79
,,,,,,,,,,,,,,,,,,,,,,,,,,,,,,,,,,,backspace,11.34700012,C,TRUE,,,,,,,125,colom,Catalan,Sounds/cat_colom.mp3,2020-06-08_18h11.41.559,TranslationElicitation_spa,3.2.4,Win32,60,5ede234d69a8800409af2756,,1,0,80,20,1,79
,,,,,,,,,,,,,,,,,,,,,,,,,,,,,,,,,,,l,11.68000007,CL,TRUE,,,,,,,125,colom,Catalan,Sounds/cat_colom.mp3,2020-06-08_18h11.41.559,TranslationElicitation_spa,3.2.4,Win32,60,5ede234d69a8800409af2756,,1,0,80,20,1,79
,,,,,,,,,,,,,,,,,,,,,,,,,,,,,,,,,,,backspace,12.08000016,,TRUE,,,,,,,125,colom,Catalan,Sounds/cat_colom.mp3,2020-06-08_18h11.41.559,TranslationElicitation_spa,3.2.4,Win32,60,5ede234d69a8800409af2756,,1,0,80,20,1,79
,,,,,,,,,,,,,,,,,,,,,,,,,,,,,,,,,,,o,12.43000007,O,TRUE,,,,,,,125,colom,Catalan,Sounds/cat_colom.mp3,2020-06-08_18h11.41.559,TranslationElicitation_spa,3.2.4,Win32,60,5ede234d69a8800409af2756,,1,0,80,20,1,79
,,,,,,,,,,,,,,,,,,,,,,,,,,,,,,,,,,,backspace,12.87899995,,TRUE,,,,,,,125,colom,Catalan,Sounds/cat_colom.mp3,2020-06-08_18h11.41.559,TranslationElicitation_spa,3.2.4,Win32,60,5ede234d69a8800409af2756,,1,0,80,20,1,79
,,,,,,,,,,,,,,,,,,,,,,,,,,,,,,,,,,,c,12.99500012,C,TRUE,,,,,,,125,colom,Catalan,Sounds/cat_colom.mp3,2020-06-08_18h11.41.559,TranslationElicitation_spa,3.2.4,Win32,60,5ede234d69a8800409af2756,,1,0,80,20,1,79
,,,,,,,,,,,,,,,,,,,,,,,,,,,,,,,,,,,o,13.11300015,CO,TRUE,,,,,,,125,colom,Catalan,Sounds/cat_colom.mp3,2020-06-08_18h11.41.559,TranslationElicitation_spa,3.2.4,Win32,60,5ede234d69a8800409af2756,,1,0,80,20,1,79
,,,,,,,,,,,,,,,,,,,,,,,,,,,,,,,,,,,l,13.31200004,COL,TRUE,,,,,,,125,colom,Catalan,Sounds/cat_colom.mp3,2020-06-08_18h11.41.559,TranslationElicitation_spa,3.2.4,Win32,60,5ede234d69a8800409af2756,,1,0,80,20,1,79
,,,,,,,,,,,,,,,,,,,,,,,,,,,,,,,,,,,o,13.41199994,COLO,TRUE,,,,,,,125,colom,Catalan,Sounds/cat_colom.mp3,2020-06-08_18h11.41.559,TranslationElicitation_spa,3.2.4,Win32,60,5ede234d69a8800409af2756,,1,0,80,20,1,79
,,,,,,,,,,,,,,,,,,,,,,,,,,,,,,,,,,,r,13.49600005,COLOR,TRUE,,,,,,,125,colom,Catalan,Sounds/cat_colom.mp3,2020-06-08_18h11.41.559,TranslationElicitation_spa,3.2.4,Win32,60,5ede234d69a8800409af2756,,1,0,80,20,1,79
,,,,,,,,,,,,,,,,,,,,,,,,,,,,,,,,,,,return,13.67900014,,TRUE,,,,,,,125,colom,Catalan,Sounds/cat_colom.mp3,2020-06-08_18h11.41.559,TranslationElicitation_spa,3.2.4,Win32,60,5ede234d69a8800409af2756,13.67900014,1,0,80,20,1,79
,,,,,,,,,,,,,,,,,,,,,,,,,,,,,,,,,,,,,,,,,,,,,125,colom,Catalan,Sounds/cat_colom.mp3,2020-06-08_18h11.41.559,TranslationElicitation_spa,3.2.4,Win32,60,5ede234d69a8800409af2756,,1,0,80,20,1,79
,,,,,,,,,,,,,,,,,,,,,,,,,,,,,,,,,,,b,3.697000027,B,FALSE,,,,,,,117,boto,Catalan,Sounds/cat_boto.mp3,2020-06-08_18h11.41.559,TranslationElicitation_spa,3.2.4,Win32,60,5ede234d69a8800409af2756,,1,0,80,12,1,79
,,,,,,,,,,,,,,,,,,,,,,,,,,,,,,,,,,,o,3.910000086,BO,FALSE,,,,,,,117,boto,Catalan,Sounds/cat_boto.mp3,2020-06-08_18h11.41.559,TranslationElicitation_spa,3.2.4,Win32,60,5ede234d69a8800409af2756,,1,0,80,12,1,79
,,,,,,,,,,,,,,,,,,,,,,,,,,,,,,,,,,,t,4.160000086,BOT,FALSE,,,,,,,117,boto,Catalan,Sounds/cat_boto.mp3,2020-06-08_18h11.41.559,TranslationElicitation_spa,3.2.4,Win32,60,5ede234d69a8800409af2756,,1,0,80,12,1,79
,,,,,,,,,,,,,,,,,,,,,,,,,,,,,,,,,,,apostrophe,4.511000156,BOT,FALSE,,,,,,,117,boto,Catalan,Sounds/cat_boto.mp3,2020-06-08_18h11.41.559,TranslationElicitation_spa,3.2.4,Win32,60,5ede234d69a8800409af2756,,1,0,80,12,1,79
,,,,,,,,,,,,,,,,,,,,,,,,,,,,,,,,,,,o,4.644000053,BOTÓ,FALSE,,,,,,,117,boto,Catalan,Sounds/cat_boto.mp3,2020-06-08_18h11.41.559,TranslationElicitation_spa,3.2.4,Win32,60,5ede234d69a8800409af2756,,1,0,80,12,1,79
,,,,,,,,,,,,,,,,,,,,,,,,,,,,,,,,,,,n,4.843000174,BOTÓN,FALSE,,,,,,,117,boto,Catalan,Sounds/cat_boto.mp3,2020-06-08_18h11.41.559,TranslationElicitation_spa,3.2.4,Win32,60,5ede234d69a8800409af2756,,1,0,80,12,1,79
,,,,,,,,,,,,,,,,,,,,,,,,,,,,,,,,,,,return,5.060000181,,FALSE,,,,,,,117,boto,Catalan,Sounds/cat_boto.mp3,2020-06-08_18h11.41.559,TranslationElicitation_spa,3.2.4,Win32,60,5ede234d69a8800409af2756,5.060000181,1,0,80,12,1,79
,,,,,,,,,,,,,,,,,,,,,,,,,,,,,,,,,,,,,,,,,,,,,117,boto,Catalan,Sounds/cat_boto.mp3,2020-06-08_18h11.41.559,TranslationElicitation_spa,3.2.4,Win32,60,5ede234d69a8800409af2756,,1,0,80,12,1,79
,,,,,,,,,,,,,,,,,,,,,,,,,,,,,,,,,,,l,1.148000002,L,FALSE,,,,,,,134,flor,Catalan,Sounds/cat_flor.mp3,2020-06-08_18h11.41.559,TranslationElicitation_spa,3.2.4,Win32,60,5ede234d69a8800409af2756,,1,0,80,29,1,79
,,,,,,,,,,,,,,,,,,,,,,,,,,,,,,,,,,,o,1.36500001,LO,FALSE,,,,,,,134,flor,Catalan,Sounds/cat_flor.mp3,2020-06-08_18h11.41.559,TranslationElicitation_spa,3.2.4,Win32,60,5ede234d69a8800409af2756,,1,0,80,29,1,79
,,,,,,,,,,,,,,,,,,,,,,,,,,,,,,,,,,,r,1.58100009,LOR,FALSE,,,,,,,134,flor,Catalan,Sounds/cat_flor.mp3,2020-06-08_18h11.41.559,TranslationElicitation_spa,3.2.4,Win32,60,5ede234d69a8800409af2756,,1,0,80,29,1,79
,,,,,,,,,,,,,,,,,,,,,,,,,,,,,,,,,,,backspace,1.914999962,L,TRUE,,,,,,,134,flor,Catalan,Sounds/cat_flor.mp3,2020-06-08_18h11.41.559,TranslationElicitation_spa,3.2.4,Win32,60,5ede234d69a8800409af2756,,1,0,80,29,1,79
,,,,,,,,,,,,,,,,,,,,,,,,,,,,,,,,,,,backspace,2.06400013,,TRUE,,,,,,,134,flor,Catalan,Sounds/cat_flor.mp3,2020-06-08_18h11.41.559,TranslationElicitation_spa,3.2.4,Win32,60,5ede234d69a8800409af2756,,1,0,80,29,1,79
,,,,,,,,,,,,,,,,,,,,,,,,,,,,,,,,,,,f,2.36500001,F,TRUE,,,,,,,134,flor,Catalan,Sounds/cat_flor.mp3,2020-06-08_18h11.41.559,TranslationElicitation_spa,3.2.4,Win32,60,5ede234d69a8800409af2756,,1,0,80,29,1,79
,,,,,,,,,,,,,,,,,,,,,,,,,,,,,,,,,,,l,2.532000065,FL,TRUE,,,,,,,134,flor,Catalan,Sounds/cat_flor.mp3,2020-06-08_18h11.41.559,TranslationElicitation_spa,3.2.4,Win32,60,5ede234d69a8800409af2756,,1,0,80,29,1,79
,,,,,,,,,,,,,,,,,,,,,,,,,,,,,,,,,,,o,2.715000153,FLO,TRUE,,,,,,,134,flor,Catalan,Sounds/cat_flor.mp3,2020-06-08_18h11.41.559,TranslationElicitation_spa,3.2.4,Win32,60,5ede234d69a8800409af2756,,1,0,80,29,1,79
,,,,,,,,,,,,,,,,,,,,,,,,,,,,,,,,,,,r,2.81400013,FLOR,TRUE,,,,,,,134,flor,Catalan,Sounds/cat_flor.mp3,2020-06-08_18h11.41.559,TranslationElicitation_spa,3.2.4,Win32,60,5ede234d69a8800409af2756,,1,0,80,29,1,79
,,,,,,,,,,,,,,,,,,,,,,,,,,,,,,,,,,,return,3.180999994,,TRUE,,,,,,,134,flor,Catalan,Sounds/cat_flor.mp3,2020-06-08_18h11.41.559,TranslationElicitation_spa,3.2.4,Win32,60,5ede234d69a8800409af2756,3.180999994,1,0,80,29,1,79
,,,,,,,,,,,,,,,,,,,,,,,,,,,,,,,,,,,,,,,,,,,,,134,flor,Catalan,Sounds/cat_flor.mp3,2020-06-08_18h11.41.559,TranslationElicitation_spa,3.2.4,Win32,60,5ede234d69a8800409af2756,,1,0,80,29,1,79
,,,,,,,,,,,,,,,,,,,,,,,,,,,,,,,,,,,return,4.398000002,,FALSE,,,,,,,161,ovella,Catalan,Sounds/cat_ovella.mp3,2020-06-08_18h11.41.559,TranslationElicitation_spa,3.2.4,Win32,60,5ede234d69a8800409af2756,4.398000002,1,0,80,54,1,79
,,,,,,,,,,,,,,,,,,,,,,,,,,,,,,,,,,,,,,,,,,,,,161,ovella,Catalan,Sounds/cat_ovella.mp3,2020-06-08_18h11.41.559,TranslationElicitation_spa,3.2.4,Win32,60,5ede234d69a8800409af2756,,1,0,80,54,1,79
,,,,,,,,,,,,,,,,,,,,,,,,,,,,,,,,,,,p,4.981999874,P,FALSE,,,,,,,172,poma,Catalan,Sounds/cat_poma.mp3,2020-06-08_18h11.41.559,TranslationElicitation_spa,3.2.4,Win32,60,5ede234d69a8800409af2756,,1,0,80,64,1,79
,,,,,,,,,,,,,,,,,,,,,,,,,,,,,,,,,,,o,5.34800005,PO,FALSE,,,,,,,172,poma,Catalan,Sounds/cat_poma.mp3,2020-06-08_18h11.41.559,TranslationElicitation_spa,3.2.4,Win32,60,5ede234d69a8800409af2756,,1,0,80,64,1,79
,,,,,,,,,,,,,,,,,,,,,,,,,,,,,,,,,,,m,5.549000025,POM,FALSE,,,,,,,172,poma,Catalan,Sounds/cat_poma.mp3,2020-06-08_18h11.41.559,TranslationElicitation_spa,3.2.4,Win32,60,5ede234d69a8800409af2756,,1,0,80,64,1,79
,,,,,,,,,,,,,,,,,,,,,,,,,,,,,,,,,,,o,5.697999954,POMO,FALSE,,,,,,,172,poma,Catalan,Sounds/cat_poma.mp3,2020-06-08_18h11.41.559,TranslationElicitation_spa,3.2.4,Win32,60,5ede234d69a8800409af2756,,1,0,80,64,1,79
,,,,,,,,,,,,,,,,,,,,,,,,,,,,,,,,,,,return,5.898000002,,FALSE,,,,,,,172,poma,Catalan,Sounds/cat_poma.mp3,2020-06-08_18h11.41.559,TranslationElicitation_spa,3.2.4,Win32,60,5ede234d69a8800409af2756,5.898000002,1,0,80,64,1,79
,,,,,,,,,,,,,,,,,,,,,,,,,,,,,,,,,,,,,,,,,,,,,172,poma,Catalan,Sounds/cat_poma.mp3,2020-06-08_18h11.41.559,TranslationElicitation_spa,3.2.4,Win32,60,5ede234d69a8800409af2756,,1,0,80,64,1,79
,,,,,,,,,,,,,,,,,,,,,,,,,,,,,,,,,,,q,5.829999924,Q,FALSE,,,,,,,114,bol,Catalan,Sounds/cat_bol.mp3,2020-06-08_18h11.41.559,TranslationElicitation_spa,3.2.4,Win32,60,5ede234d69a8800409af2756,,1,0,80,9,1,79
,,,,,,,,,,,,,,,,,,,,,,,,,,,,,,,,,,,u,5.996999979,QU,FALSE,,,,,,,114,bol,Catalan,Sounds/cat_bol.mp3,2020-06-08_18h11.41.559,TranslationElicitation_spa,3.2.4,Win32,60,5ede234d69a8800409af2756,,1,0,80,9,1,79
,,,,,,,,,,,,,,,,,,,,,,,,,,,,,,,,,,,i,6.095999956,QUI,FALSE,,,,,,,114,bol,Catalan,Sounds/cat_bol.mp3,2020-06-08_18h11.41.559,TranslationElicitation_spa,3.2.4,Win32,60,5ede234d69a8800409af2756,,1,0,80,9,1,79
,,,,,,,,,,,,,,,,,,,,,,,,,,,,,,,,,,,e,6.230000019,QUIE,FALSE,,,,,,,114,bol,Catalan,Sounds/cat_bol.mp3,2020-06-08_18h11.41.559,TranslationElicitation_spa,3.2.4,Win32,60,5ede234d69a8800409af2756,,1,0,80,9,1,79
,,,,,,,,,,,,,,,,,,,,,,,,,,,,,,,,,,,r,6.362999916,QUIER,FALSE,,,,,,,114,bol,Catalan,Sounds/cat_bol.mp3,2020-06-08_18h11.41.559,TranslationElicitation_spa,3.2.4,Win32,60,5ede234d69a8800409af2756,,1,0,80,9,1,79
,,,,,,,,,,,,,,,,,,,,,,,,,,,,,,,,,,,o,6.412999868,QUIERO,FALSE,,,,,,,114,bol,Catalan,Sounds/cat_bol.mp3,2020-06-08_18h11.41.559,TranslationElicitation_spa,3.2.4,Win32,60,5ede234d69a8800409af2756,,1,0,80,9,1,79
,,,,,,,,,,,,,,,,,,,,,,,,,,,,,,,,,,,return,7.480000019,,FALSE,,,,,,,114,bol,Catalan,Sounds/cat_bol.mp3,2020-06-08_18h11.41.559,TranslationElicitation_spa,3.2.4,Win32,60,5ede234d69a8800409af2756,7.480000019,1,0,80,9,1,79
,,,,,,,,,,,,,,,,,,,,,,,,,,,,,,,,,,,,,,,,,,,,,114,bol,Catalan,Sounds/cat_bol.mp3,2020-06-08_18h11.41.559,TranslationElicitation_spa,3.2.4,Win32,60,5ede234d69a8800409af2756,,1,0,80,9,1,79
,,,,,,,,,,,,,,,,,,,,,,,,,,,,,,,,,,,p,1.993999958,P,FALSE,,,,,,,173,porc,Catalan,Sounds/cat_porc.mp3,2020-06-08_18h11.41.559,TranslationElicitation_spa,3.2.4,Win32,60,5ede234d69a8800409af2756,,1,0,80,65,1,79
,,,,,,,,,,,,,,,,,,,,,,,,,,,,,,,,,,,o,2.161000013,PO,FALSE,,,,,,,173,porc,Catalan,Sounds/cat_porc.mp3,2020-06-08_18h11.41.559,TranslationElicitation_spa,3.2.4,Win32,60,5ede234d69a8800409af2756,,1,0,80,65,1,79
,,,,,,,,,,,,,,,,,,,,,,,,,,,,,,,,,,,r,2.476999998,POR,FALSE,,,,,,,173,porc,Catalan,Sounds/cat_porc.mp3,2020-06-08_18h11.41.559,TranslationElicitation_spa,3.2.4,Win32,60,5ede234d69a8800409af2756,,1,0,80,65,1,79
,,,,,,,,,,,,,,,,,,,,,,,,,,,,,,,,,,,q,2.661000013,PORQ,FALSE,,,,,,,173,porc,Catalan,Sounds/cat_porc.mp3,2020-06-08_18h11.41.559,TranslationElicitation_spa,3.2.4,Win32,60,5ede234d69a8800409af2756,,1,0,80,65,1,79
,,,,,,,,,,,,,,,,,,,,,,,,,,,,,,,,,,,e,2.844000101,PORQE,FALSE,,,,,,,173,porc,Catalan,Sounds/cat_porc.mp3,2020-06-08_18h11.41.559,TranslationElicitation_spa,3.2.4,Win32,60,5ede234d69a8800409af2756,,1,0,80,65,1,79
,,,,,,,,,,,,,,,,,,,,,,,,,,,,,,,,,,,u,2.861000061,PORQEU,FALSE,,,,,,,173,porc,Catalan,Sounds/cat_porc.mp3,2020-06-08_18h11.41.559,TranslationElicitation_spa,3.2.4,Win32,60,5ede234d69a8800409af2756,,1,0,80,65,1,79
,,,,,,,,,,,,,,,,,,,,,,,,,,,,,,,,,,,backspace,3.226999998,PORQ,TRUE,,,,,,,173,porc,Catalan,Sounds/cat_porc.mp3,2020-06-08_18h11.41.559,TranslationElicitation_spa,3.2.4,Win32,60,5ede234d69a8800409af2756,,1,0,80,65,1,79
,,,,,,,,,,,,,,,,,,,,,,,,,,,,,,,,,,,backspace,3.377000093,PO,TRUE,,,,,,,173,porc,Catalan,Sounds/cat_porc.mp3,2020-06-08_18h11.41.559,TranslationElicitation_spa,3.2.4,Win32,60,5ede234d69a8800409af2756,,1,0,80,65,1,79
,,,,,,,,,,,,,,,,,,,,,,,,,,,,,,,,,,,e,4.960999966,POE,TRUE,,,,,,,173,porc,Catalan,Sounds/cat_porc.mp3,2020-06-08_18h11.41.559,TranslationElicitation_spa,3.2.4,Win32,60,5ede234d69a8800409af2756,,1,0,80,65,1,79
,,,,,,,,,,,,,,,,,,,,,,,,,,,,,,,,,,,q,5.127000093,POEQ,TRUE,,,,,,,173,porc,Catalan,Sounds/cat_porc.mp3,2020-06-08_18h11.41.559,TranslationElicitation_spa,3.2.4,Win32,60,5ede234d69a8800409af2756,,1,0,80,65,1,79
,,,,,,,,,,,,,,,,,,,,,,,,,,,,,,,,,,,u,5.305000067,POEQU,TRUE,,,,,,,173,porc,Catalan,Sounds/cat_porc.mp3,2020-06-08_18h11.41.559,TranslationElicitation_spa,3.2.4,Win32,60,5ede234d69a8800409af2756,,1,0,80,65,1,79
,,,,,,,,,,,,,,,,,,,,,,,,,,,,,,,,,,,backspace,5.559999943,POE,TRUE,,,,,,,173,porc,Catalan,Sounds/cat_porc.mp3,2020-06-08_18h11.41.559,TranslationElicitation_spa,3.2.4,Win32,60,5ede234d69a8800409af2756,,1,0,80,65,1,79
,,,,,,,,,,,,,,,,,,,,,,,,,,,,,,,,,,,backspace,5.743999958,P,TRUE,,,,,,,173,porc,Catalan,Sounds/cat_porc.mp3,2020-06-08_18h11.41.559,TranslationElicitation_spa,3.2.4,Win32,60,5ede234d69a8800409af2756,,1,0,80,65,1,79
,,,,,,,,,,,,,,,,,,,,,,,,,,,,,,,,,,,r,6.061000109,PR,TRUE,,,,,,,173,porc,Catalan,Sounds/cat_porc.mp3,2020-06-08_18h11.41.559,TranslationElicitation_spa,3.2.4,Win32,60,5ede234d69a8800409af2756,,1,0,80,65,1,79
,,,,,,,,,,,,,,,,,,,,,,,,,,,,,,,,,,,q,6.27699995,PRQ,TRUE,,,,,,,173,porc,Catalan,Sounds/cat_porc.mp3,2020-06-08_18h11.41.559,TranslationElicitation_spa,3.2.4,Win32,60,5ede234d69a8800409af2756,,1,0,80,65,1,79
,,,,,,,,,,,,,,,,,,,,,,,,,,,,,,,,,,,backspace,6.493999958,P,TRUE,,,,,,,173,porc,Catalan,Sounds/cat_porc.mp3,2020-06-08_18h11.41.559,TranslationElicitation_spa,3.2.4,Win32,60,5ede234d69a8800409af2756,,1,0,80,65,1,79
,,,,,,,,,,,,,,,,,,,,,,,,,,,,,,,,,,,backspace,6.644000053,,TRUE,,,,,,,173,porc,Catalan,Sounds/cat_porc.mp3,2020-06-08_18h11.41.559,TranslationElicitation_spa,3.2.4,Win32,60,5ede234d69a8800409af2756,,1,0,80,65,1,79
,,,,,,,,,,,,,,,,,,,,,,,,,,,,,,,,,,,p,7.344000101,P,TRUE,,,,,,,173,porc,Catalan,Sounds/cat_porc.mp3,2020-06-08_18h11.41.559,TranslationElicitation_spa,3.2.4,Win32,60,5ede234d69a8800409af2756,,1,0,80,65,1,79
,,,,,,,,,,,,,,,,,,,,,,,,,,,,,,,,,,,o,7.493000031,PO,TRUE,,,,,,,173,porc,Catalan,Sounds/cat_porc.mp3,2020-06-08_18h11.41.559,TranslationElicitation_spa,3.2.4,Win32,60,5ede234d69a8800409af2756,,1,0,80,65,1,79
,,,,,,,,,,,,,,,,,,,,,,,,,,,,,,,,,,,r,7.644000053,POR,TRUE,,,,,,,173,porc,Catalan,Sounds/cat_porc.mp3,2020-06-08_18h11.41.559,TranslationElicitation_spa,3.2.4,Win32,60,5ede234d69a8800409af2756,,1,0,80,65,1,79
,,,,,,,,,,,,,,,,,,,,,,,,,,,,,,,,,,,q,8.226999998,PORQ,TRUE,,,,,,,173,porc,Catalan,Sounds/cat_porc.mp3,2020-06-08_18h11.41.559,TranslationElicitation_spa,3.2.4,Win32,60,5ede234d69a8800409af2756,,1,0,80,65,1,79
,,,,,,,,,,,,,,,,,,,,,,,,,,,,,,,,,,,u,8.344000101,PORQU,TRUE,,,,,,,173,porc,Catalan,Sounds/cat_porc.mp3,2020-06-08_18h11.41.559,TranslationElicitation_spa,3.2.4,Win32,60,5ede234d69a8800409af2756,,1,0,80,65,1,79
,,,,,,,,,,,,,,,,,,,,,,,,,,,,,,,,,,,e,8.444000006,PORQUE,TRUE,,,,,,,173,porc,Catalan,Sounds/cat_porc.mp3,2020-06-08_18h11.41.559,TranslationElicitation_spa,3.2.4,Win32,60,5ede234d69a8800409af2756,,1,0,80,65,1,79
,,,,,,,,,,,,,,,,,,,,,,,,,,,,,,,,,,,return,8.893000126,,TRUE,,,,,,,173,porc,Catalan,Sounds/cat_porc.mp3,2020-06-08_18h11.41.559,TranslationElicitation_spa,3.2.4,Win32,60,5ede234d69a8800409af2756,8.893000126,1,0,80,65,1,79
,,,,,,,,,,,,,,,,,,,,,,,,,,,,,,,,,,,,,,,,,,,,,173,porc,Catalan,Sounds/cat_porc.mp3,2020-06-08_18h11.41.559,TranslationElicitation_spa,3.2.4,Win32,60,5ede234d69a8800409af2756,,1,0,80,65,1,79
,,,,,,,,,,,,,,,,,,,,,,,,,,,,,,,,,,,a,1.315000057,A,FALSE,,,,,,,123,cavall,Catalan,Sounds/cat_cavall.mp3,2020-06-08_18h11.41.559,TranslationElicitation_spa,3.2.4,Win32,60,5ede234d69a8800409af2756,,1,0,80,18,1,79
,,,,,,,,,,,,,,,,,,,,,,,,,,,,,,,,,,,b,1.512000084,AB,FALSE,,,,,,,123,cavall,Catalan,Sounds/cat_cavall.mp3,2020-06-08_18h11.41.559,TranslationElicitation_spa,3.2.4,Win32,60,5ede234d69a8800409af2756,,1,0,80,18,1,79
,,,,,,,,,,,,,,,,,,,,,,,,,,,,,,,,,,,a,1.753999949,ABA,FALSE,,,,,,,123,cavall,Catalan,Sounds/cat_cavall.mp3,2020-06-08_18h11.41.559,TranslationElicitation_spa,3.2.4,Win32,60,5ede234d69a8800409af2756,,1,0,80,18,1,79
,,,,,,,,,,,,,,,,,,,,,,,,,,,,,,,,,,,backspace,2.028000116,A,TRUE,,,,,,,123,cavall,Catalan,Sounds/cat_cavall.mp3,2020-06-08_18h11.41.559,TranslationElicitation_spa,3.2.4,Win32,60,5ede234d69a8800409af2756,,1,0,80,18,1,79
,,,,,,,,,,,,,,,,,,,,,,,,,,,,,,,,,,,backspace,2.195000172,,TRUE,,,,,,,123,cavall,Catalan,Sounds/cat_cavall.mp3,2020-06-08_18h11.41.559,TranslationElicitation_spa,3.2.4,Win32,60,5ede234d69a8800409af2756,,1,0,80,18,1,79
,,,,,,,,,,,,,,,,,,,,,,,,,,,,,,,,,,,backspace,2.328000069,,TRUE,,,,,,,123,cavall,Catalan,Sounds/cat_cavall.mp3,2020-06-08_18h11.41.559,TranslationElicitation_spa,3.2.4,Win32,60,5ede234d69a8800409af2756,,1,0,80,18,1,79
,,,,,,,,,,,,,,,,,,,,,,,,,,,,,,,,,,,c,2.411000013,C,TRUE,,,,,,,123,cavall,Catalan,Sounds/cat_cavall.mp3,2020-06-08_18h11.41.559,TranslationElicitation_spa,3.2.4,Win32,60,5ede234d69a8800409af2756,,1,0,80,18,1,79
,,,,,,,,,,,,,,,,,,,,,,,,,,,,,,,,,,,a,2.595000029,CA,TRUE,,,,,,,123,cavall,Catalan,Sounds/cat_cavall.mp3,2020-06-08_18h11.41.559,TranslationElicitation_spa,3.2.4,Win32,60,5ede234d69a8800409af2756,,1,0,80,18,1,79
,,,,,,,,,,,,,,,,,,,,,,,,,,,,,,,,,,,b,2.995000124,CAB,TRUE,,,,,,,123,cavall,Catalan,Sounds/cat_cavall.mp3,2020-06-08_18h11.41.559,TranslationElicitation_spa,3.2.4,Win32,60,5ede234d69a8800409af2756,,1,0,80,18,1,79
,,,,,,,,,,,,,,,,,,,,,,,,,,,,,,,,,,,a,4.312000036,CABA,TRUE,,,,,,,123,cavall,Catalan,Sounds/cat_cavall.mp3,2020-06-08_18h11.41.559,TranslationElicitation_spa,3.2.4,Win32,60,5ede234d69a8800409af2756,,1,0,80,18,1,79
,,,,,,,,,,,,,,,,,,,,,,,,,,,,,,,,,,,l,4.578000069,CABAL,TRUE,,,,,,,123,cavall,Catalan,Sounds/cat_cavall.mp3,2020-06-08_18h11.41.559,TranslationElicitation_spa,3.2.4,Win32,60,5ede234d69a8800409af2756,,1,0,80,18,1,79
,,,,,,,,,,,,,,,,,,,,,,,,,,,,,,,,,,,l,4.728000164,CABALL,TRUE,,,,,,,123,cavall,Catalan,Sounds/cat_cavall.mp3,2020-06-08_18h11.41.559,TranslationElicitation_spa,3.2.4,Win32,60,5ede234d69a8800409af2756,,1,0,80,18,1,79
,,,,,,,,,,,,,,,,,,,,,,,,,,,,,,,,,,,o,4.945000172,CABALLO,TRUE,,,,,,,123,cavall,Catalan,Sounds/cat_cavall.mp3,2020-06-08_18h11.41.559,TranslationElicitation_spa,3.2.4,Win32,60,5ede234d69a8800409af2756,,1,0,80,18,1,79
,,,,,,,,,,,,,,,,,,,,,,,,,,,,,,,,,,,return,5.161000013,,TRUE,,,,,,,123,cavall,Catalan,Sounds/cat_cavall.mp3,2020-06-08_18h11.41.559,TranslationElicitation_spa,3.2.4,Win32,60,5ede234d69a8800409af2756,5.161000013,1,0,80,18,1,79
,,,,,,,,,,,,,,,,,,,,,,,,,,,,,,,,,,,,,,,,,,,,,123,cavall,Catalan,Sounds/cat_cavall.mp3,2020-06-08_18h11.41.559,TranslationElicitation_spa,3.2.4,Win32,60,5ede234d69a8800409af2756,,1,0,80,18,1,79
,,,,,,,,,,,,,,,,,,,,,,,,,,,,,,,,,,,m,1.394999981,M,FALSE,,,,,,,155,moneda,Catalan,Sounds/cat_moneda.mp3,2020-06-08_18h11.41.559,TranslationElicitation_spa,3.2.4,Win32,60,5ede234d69a8800409af2756,,1,0,80,49,1,79
,,,,,,,,,,,,,,,,,,,,,,,,,,,,,,,,,,,o,1.57799983,MO,FALSE,,,,,,,155,moneda,Catalan,Sounds/cat_moneda.mp3,2020-06-08_18h11.41.559,TranslationElicitation_spa,3.2.4,Win32,60,5ede234d69a8800409af2756,,1,0,80,49,1,79
,,,,,,,,,,,,,,,,,,,,,,,,,,,,,,,,,,,n,1.694999933,MON,FALSE,,,,,,,155,moneda,Catalan,Sounds/cat_moneda.mp3,2020-06-08_18h11.41.559,TranslationElicitation_spa,3.2.4,Win32,60,5ede234d69a8800409af2756,,1,0,80,49,1,79
,,,,,,,,,,,,,,,,,,,,,,,,,,,,,,,,,,,e,1.761999846,MONE,FALSE,,,,,,,155,moneda,Catalan,Sounds/cat_moneda.mp3,2020-06-08_18h11.41.559,TranslationElicitation_spa,3.2.4,Win32,60,5ede234d69a8800409af2756,,1,0,80,49,1,79
,,,,,,,,,,,,,,,,,,,,,,,,,,,,,,,,,,,d,1.944999933,MONED,FALSE,,,,,,,155,moneda,Catalan,Sounds/cat_moneda.mp3,2020-06-08_18h11.41.559,TranslationElicitation_spa,3.2.4,Win32,60,5ede234d69a8800409af2756,,1,0,80,49,1,79
,,,,,,,,,,,,,,,,,,,,,,,,,,,,,,,,,,,a,2.083999872,MONEDA,FALSE,,,,,,,155,moneda,Catalan,Sounds/cat_moneda.mp3,2020-06-08_18h11.41.559,TranslationElicitation_spa,3.2.4,Win32,60,5ede234d69a8800409af2756,,1,0,80,49,1,79
,,,,,,,,,,,,,,,,,,,,,,,,,,,,,,,,,,,return,2.411999941,,FALSE,,,,,,,155,moneda,Catalan,Sounds/cat_moneda.mp3,2020-06-08_18h11.41.559,TranslationElicitation_spa,3.2.4,Win32,60,5ede234d69a8800409af2756,2.411999941,1,0,80,49,1,79
,,,,,,,,,,,,,,,,,,,,,,,,,,,,,,,,,,,,,,,,,,,,,155,moneda,Catalan,Sounds/cat_moneda.mp3,2020-06-08_18h11.41.559,TranslationElicitation_spa,3.2.4,Win32,60,5ede234d69a8800409af2756,,1,0,80,49,1,79
,,,,,,,,,,,,,,,,,,,,,,,,,,,,,,,,,,,p,6.531000137,P,FALSE,,,,,,,163,papallona,Catalan,Sounds/cat_papallona.mp3,2020-06-08_18h11.41.559,TranslationElicitation_spa,3.2.4,Win32,60,5ede234d69a8800409af2756,,1,0,80,56,1,79
,,,,,,,,,,,,,,,,,,,,,,,,,,,,,,,,,,,backspace,8.496999979,,TRUE,,,,,,,163,papallona,Catalan,Sounds/cat_papallona.mp3,2020-06-08_18h11.41.559,TranslationElicitation_spa,3.2.4,Win32,60,5ede234d69a8800409af2756,,1,0,80,56,1,79
,,,,,,,,,,,,,,,,,,,,,,,,,,,,,,,,,,,p,12.51300001,P,TRUE,,,,,,,163,papallona,Catalan,Sounds/cat_papallona.mp3,2020-06-08_18h11.41.559,TranslationElicitation_spa,3.2.4,Win32,60,5ede234d69a8800409af2756,,1,0,80,56,1,79
,,,,,,,,,,,,,,,,,,,,,,,,,,,,,,,,,,,a,12.64600015,PA,TRUE,,,,,,,163,papallona,Catalan,Sounds/cat_papallona.mp3,2020-06-08_18h11.41.559,TranslationElicitation_spa,3.2.4,Win32,60,5ede234d69a8800409af2756,,1,0,80,56,1,79
,,,,,,,,,,,,,,,,,,,,,,,,,,,,,,,,,,,p,13.27900004,PAP,TRUE,,,,,,,163,papallona,Catalan,Sounds/cat_papallona.mp3,2020-06-08_18h11.41.559,TranslationElicitation_spa,3.2.4,Win32,60,5ede234d69a8800409af2756,,1,0,80,56,1,79
,,,,,,,,,,,,,,,,,,,,,,,,,,,,,,,,,,,a,13.9460001,PAPA,TRUE,,,,,,,163,papallona,Catalan,Sounds/cat_papallona.mp3,2020-06-08_18h11.41.559,TranslationElicitation_spa,3.2.4,Win32,60,5ede234d69a8800409af2756,,1,0,80,56,1,79
,,,,,,,,,,,,,,,,,,,,,,,,,,,,,,,,,,,backspace,14.76300001,PA,TRUE,,,,,,,163,papallona,Catalan,Sounds/cat_papallona.mp3,2020-06-08_18h11.41.559,TranslationElicitation_spa,3.2.4,Win32,60,5ede234d69a8800409af2756,,1,0,80,56,1,79
,,,,,,,,,,,,,,,,,,,,,,,,,,,,,,,,,,,backspace,15.17900014,,TRUE,,,,,,,163,papallona,Catalan,Sounds/cat_papallona.mp3,2020-06-08_18h11.41.559,TranslationElicitation_spa,3.2.4,Win32,60,5ede234d69a8800409af2756,,1,0,80,56,1,79
,,,,,,,,,,,,,,,,,,,,,,,,,,,,,,,,,,,return,19.329,,TRUE,,,,,,,163,papallona,Catalan,Sounds/cat_papallona.mp3,2020-06-08_18h11.41.559,TranslationElicitation_spa,3.2.4,Win32,60,5ede234d69a8800409af2756,19.329,1,0,80,56,1,79
,,,,,,,,,,,,,,,,,,,,,,,,,,,,,,,,,,,,,,,,,,,,,163,papallona,Catalan,Sounds/cat_papallona.mp3,2020-06-08_18h11.41.559,TranslationElicitation_spa,3.2.4,Win32,60,5ede234d69a8800409af2756,,1,0,80,56,1,79
,,,,,,,,,,,,,,,,,,,,,,,,,,,,,,,,,,,a,1.361000061,A,FALSE,,,,,,,105,aigua,Catalan,Sounds/cat_aigua.mp3,2020-06-08_18h11.41.559,TranslationElicitation_spa,3.2.4,Win32,60,5ede234d69a8800409af2756,,1,0,80,1,1,79
,,,,,,,,,,,,,,,,,,,,,,,,,,,,,,,,,,,g,1.628000021,AG,FALSE,,,,,,,105,aigua,Catalan,Sounds/cat_aigua.mp3,2020-06-08_18h11.41.559,TranslationElicitation_spa,3.2.4,Win32,60,5ede234d69a8800409af2756,,1,0,80,1,1,79
,,,,,,,,,,,,,,,,,,,,,,,,,,,,,,,,,,,u,1.727999926,AGU,FALSE,,,,,,,105,aigua,Catalan,Sounds/cat_aigua.mp3,2020-06-08_18h11.41.559,TranslationElicitation_spa,3.2.4,Win32,60,5ede234d69a8800409af2756,,1,0,80,1,1,79
,,,,,,,,,,,,,,,,,,,,,,,,,,,,,,,,,,,a,1.878000021,AGUA,FALSE,,,,,,,105,aigua,Catalan,Sounds/cat_aigua.mp3,2020-06-08_18h11.41.559,TranslationElicitation_spa,3.2.4,Win32,60,5ede234d69a8800409af2756,,1,0,80,1,1,79
,,,,,,,,,,,,,,,,,,,,,,,,,,,,,,,,,,,return,2.02699995,,FALSE,,,,,,,105,aigua,Catalan,Sounds/cat_aigua.mp3,2020-06-08_18h11.41.559,TranslationElicitation_spa,3.2.4,Win32,60,5ede234d69a8800409af2756,2.02699995,1,0,80,1,1,79
,,,,,,,,,,,,,,,,,,,,,,,,,,,,,,,,,,,,,,,,,,,,,105,aigua,Catalan,Sounds/cat_aigua.mp3,2020-06-08_18h11.41.559,TranslationElicitation_spa,3.2.4,Win32,60,5ede234d69a8800409af2756,,1,0,80,1,1,79
,,,,,,,,,,,,,,,,,,,,,,,,,,,,,,,,,,,a,2.547999859,A,FALSE,,,,,,,107,amanida,Catalan,Sounds/cat_amanida.mp3,2020-06-08_18h11.41.559,TranslationElicitation_spa,3.2.4,Win32,60,5ede234d69a8800409af2756,,1,0,80,3,1,79
,,,,,,,,,,,,,,,,,,,,,,,,,,,,,,,,,,,v,2.780999899,AV,FALSE,,,,,,,107,amanida,Catalan,Sounds/cat_amanida.mp3,2020-06-08_18h11.41.559,TranslationElicitation_spa,3.2.4,Win32,60,5ede234d69a8800409af2756,,1,0,80,3,1,79
,,,,,,,,,,,,,,,,,,,,,,,,,,,,,,,,,,,e,2.914999962,AVE,FALSE,,,,,,,107,amanida,Catalan,Sounds/cat_amanida.mp3,2020-06-08_18h11.41.559,TranslationElicitation_spa,3.2.4,Win32,60,5ede234d69a8800409af2756,,1,0,80,3,1,79
,,,,,,,,,,,,,,,,,,,,,,,,,,,,,,,,,,,n,3.064999819,AVEN,FALSE,,,,,,,107,amanida,Catalan,Sounds/cat_amanida.mp3,2020-06-08_18h11.41.559,TranslationElicitation_spa,3.2.4,Win32,60,5ede234d69a8800409af2756,,1,0,80,3,1,79
,,,,,,,,,,,,,,,,,,,,,,,,,,,,,,,,,,,backspace,3.518999815,AV,TRUE,,,,,,,107,amanida,Catalan,Sounds/cat_amanida.mp3,2020-06-08_18h11.41.559,TranslationElicitation_spa,3.2.4,Win32,60,5ede234d69a8800409af2756,,1,0,80,3,1,79
,,,,,,,,,,,,,,,,,,,,,,,,,,,,,,,,,,,backspace,3.65899992,,TRUE,,,,,,,107,amanida,Catalan,Sounds/cat_amanida.mp3,2020-06-08_18h11.41.559,TranslationElicitation_spa,3.2.4,Win32,60,5ede234d69a8800409af2756,,1,0,80,3,1,79
,,,,,,,,,,,,,,,,,,,,,,,,,,,,,,,,,,,backspace,4.264999866,,TRUE,,,,,,,107,amanida,Catalan,Sounds/cat_amanida.mp3,2020-06-08_18h11.41.559,TranslationElicitation_spa,3.2.4,Win32,60,5ede234d69a8800409af2756,,1,0,80,3,1,79
,,,,,,,,,,,,,,,,,,,,,,,,,,,,,,,,,,,a,5.945999861,A,TRUE,,,,,,,107,amanida,Catalan,Sounds/cat_amanida.mp3,2020-06-08_18h11.41.559,TranslationElicitation_spa,3.2.4,Win32,60,5ede234d69a8800409af2756,,1,0,80,3,1,79
,,,,,,,,,,,,,,,,,,,,,,,,,,,,,,,,,,,b,6.097999811,AB,TRUE,,,,,,,107,amanida,Catalan,Sounds/cat_amanida.mp3,2020-06-08_18h11.41.559,TranslationElicitation_spa,3.2.4,Win32,60,5ede234d69a8800409af2756,,1,0,80,3,1,79
,,,,,,,,,,,,,,,,,,,,,,,,,,,,,,,,,,,a,6.180999994,ABA,TRUE,,,,,,,107,amanida,Catalan,Sounds/cat_amanida.mp3,2020-06-08_18h11.41.559,TranslationElicitation_spa,3.2.4,Win32,60,5ede234d69a8800409af2756,,1,0,80,3,1,79
,,,,,,,,,,,,,,,,,,,,,,,,,,,,,,,,,,,n,6.330999851,ABAN,TRUE,,,,,,,107,amanida,Catalan,Sounds/cat_amanida.mp3,2020-06-08_18h11.41.559,TranslationElicitation_spa,3.2.4,Win32,60,5ede234d69a8800409af2756,,1,0,80,3,1,79
,,,,,,,,,,,,,,,,,,,,,,,,,,,,,,,,,,,i,6.413999796,ABANI,TRUE,,,,,,,107,amanida,Catalan,Sounds/cat_amanida.mp3,2020-06-08_18h11.41.559,TranslationElicitation_spa,3.2.4,Win32,60,5ede234d69a8800409af2756,,1,0,80,3,1,79
,,,,,,,,,,,,,,,,,,,,,,,,,,,,,,,,,,,c,6.514999866,ABANIC,TRUE,,,,,,,107,amanida,Catalan,Sounds/cat_amanida.mp3,2020-06-08_18h11.41.559,TranslationElicitation_spa,3.2.4,Win32,60,5ede234d69a8800409af2756,,1,0,80,3,1,79
,,,,,,,,,,,,,,,,,,,,,,,,,,,,,,,,,,,o,6.648000002,ABANICO,TRUE,,,,,,,107,amanida,Catalan,Sounds/cat_amanida.mp3,2020-06-08_18h11.41.559,TranslationElicitation_spa,3.2.4,Win32,60,5ede234d69a8800409af2756,,1,0,80,3,1,79
,,,,,,,,,,,,,,,,,,,,,,,,,,,,,,,,,,,return,6.880999804,,TRUE,,,,,,,107,amanida,Catalan,Sounds/cat_amanida.mp3,2020-06-08_18h11.41.559,TranslationElicitation_spa,3.2.4,Win32,60,5ede234d69a8800409af2756,6.880999804,1,0,80,3,1,79
,,,,,,,,,,,,,,,,,,,,,,,,,,,,,,,,,,,,,,,,,,,,,107,amanida,Catalan,Sounds/cat_amanida.mp3,2020-06-08_18h11.41.559,TranslationElicitation_spa,3.2.4,Win32,60,5ede234d69a8800409af2756,,1,0,80,3,1,79
,,,,,,,,,,,,,,,,,,,,,,,,,,,,,,,,,,,m,2.078000069,M,FALSE,,,,,,,152,ma,Catalan,Sounds/cat_ma.mp3,2020-06-08_18h11.41.559,TranslationElicitation_spa,3.2.4,Win32,60,5ede234d69a8800409af2756,,1,0,80,46,1,79
,,,,,,,,,,,,,,,,,,,,,,,,,,,,,,,,,,,apostrophe,2.510999918,M,FALSE,,,,,,,152,ma,Catalan,Sounds/cat_ma.mp3,2020-06-08_18h11.41.559,TranslationElicitation_spa,3.2.4,Win32,60,5ede234d69a8800409af2756,,1,0,80,46,1,79
,,,,,,,,,,,,,,,,,,,,,,,,,,,,,,,,,,,a,2.594000101,MÁ,FALSE,,,,,,,152,ma,Catalan,Sounds/cat_ma.mp3,2020-06-08_18h11.41.559,TranslationElicitation_spa,3.2.4,Win32,60,5ede234d69a8800409af2756,,1,0,80,46,1,79
,,,,,,,,,,,,,,,,,,,,,,,,,,,,,,,,,,,s,2.677999973,MÁS,FALSE,,,,,,,152,ma,Catalan,Sounds/cat_ma.mp3,2020-06-08_18h11.41.559,TranslationElicitation_spa,3.2.4,Win32,60,5ede234d69a8800409af2756,,1,0,80,46,1,79
,,,,,,,,,,,,,,,,,,,,,,,,,,,,,,,,,,,return,2.993999958,,FALSE,,,,,,,152,ma,Catalan,Sounds/cat_ma.mp3,2020-06-08_18h11.41.559,TranslationElicitation_spa,3.2.4,Win32,60,5ede234d69a8800409af2756,2.993999958,1,0,80,46,1,79
,,,,,,,,,,,,,,,,,,,,,,,,,,,,,,,,,,,,,,,,,,,,,152,ma,Catalan,Sounds/cat_ma.mp3,2020-06-08_18h11.41.559,TranslationElicitation_spa,3.2.4,Win32,60,5ede234d69a8800409af2756,,1,0,80,46,1,79
,,,,,,,,,,,,,,,,,,,,,,,,,,,,,,,,,,,g,1.780999899,G,FALSE,,,,,,,140,gat,Catalan,Sounds/cat_gat.mp3,2020-06-08_18h11.41.559,TranslationElicitation_spa,3.2.4,Win32,60,5ede234d69a8800409af2756,,1,0,80,35,1,79
,,,,,,,,,,,,,,,,,,,,,,,,,,,,,,,,,,,a,1.930999994,GA,FALSE,,,,,,,140,gat,Catalan,Sounds/cat_gat.mp3,2020-06-08_18h11.41.559,TranslationElicitation_spa,3.2.4,Win32,60,5ede234d69a8800409af2756,,1,0,80,35,1,79
,,,,,,,,,,,,,,,,,,,,,,,,,,,,,,,,,,,t,2.11500001,GAT,FALSE,,,,,,,140,gat,Catalan,Sounds/cat_gat.mp3,2020-06-08_18h11.41.559,TranslationElicitation_spa,3.2.4,Win32,60,5ede234d69a8800409af2756,,1,0,80,35,1,79
,,,,,,,,,,,,,,,,,,,,,,,,,,,,,,,,,,,o,2.280999899,GATO,FALSE,,,,,,,140,gat,Catalan,Sounds/cat_gat.mp3,2020-06-08_18h11.41.559,TranslationElicitation_spa,3.2.4,Win32,60,5ede234d69a8800409af2756,,1,0,80,35,1,79
,,,,,,,,,,,,,,,,,,,,,,,,,,,,,,,,,,,return,2.530999899,,FALSE,,,,,,,140,gat,Catalan,Sounds/cat_gat.mp3,2020-06-08_18h11.41.559,TranslationElicitation_spa,3.2.4,Win32,60,5ede234d69a8800409af2756,2.530999899,1,0,80,35,1,79
,,,,,,,,,,,,,,,,,,,,,,,,,,,,,,,,,,,,,,,,,,,,,140,gat,Catalan,Sounds/cat_gat.mp3,2020-06-08_18h11.41.559,TranslationElicitation_spa,3.2.4,Win32,60,5ede234d69a8800409af2756,,1,0,80,35,1,79
,,,,,,,,,,,,,,,,,,,,,,,,,,,,,,,,,,,s,1.131000042,S,FALSE,,,,,,,124,cirera,Catalan,Sounds/cat_cirera.mp3,2020-06-08_18h11.41.559,TranslationElicitation_spa,3.2.4,Win32,60,5ede234d69a8800409af2756,,1,0,80,19,1,79
,,,,,,,,,,,,,,,,,,,,,,,,,,,,,,,,,,,i,1.297999859,SI,FALSE,,,,,,,124,cirera,Catalan,Sounds/cat_cirera.mp3,2020-06-08_18h11.41.559,TranslationElicitation_spa,3.2.4,Win32,60,5ede234d69a8800409af2756,,1,0,80,19,1,79
,,,,,,,,,,,,,,,,,,,,,,,,,,,,,,,,,,,r,1.447999954,SIR,FALSE,,,,,,,124,cirera,Catalan,Sounds/cat_cirera.mp3,2020-06-08_18h11.41.559,TranslationElicitation_spa,3.2.4,Win32,60,5ede234d69a8800409af2756,,1,0,80,19,1,79
,,,,,,,,,,,,,,,,,,,,,,,,,,,,,,,,,,,e,1.530999899,SIRE,FALSE,,,,,,,124,cirera,Catalan,Sounds/cat_cirera.mp3,2020-06-08_18h11.41.559,TranslationElicitation_spa,3.2.4,Win32,60,5ede234d69a8800409af2756,,1,0,80,19,1,79
,,,,,,,,,,,,,,,,,,,,,,,,,,,,,,,,,,,n,1.613999844,SIREN,FALSE,,,,,,,124,cirera,Catalan,Sounds/cat_cirera.mp3,2020-06-08_18h11.41.559,TranslationElicitation_spa,3.2.4,Win32,60,5ede234d69a8800409af2756,,1,0,80,19,1,79
,,,,,,,,,,,,,,,,,,,,,,,,,,,,,,,,,,,a,1.830999851,SIRENA,FALSE,,,,,,,124,cirera,Catalan,Sounds/cat_cirera.mp3,2020-06-08_18h11.41.559,TranslationElicitation_spa,3.2.4,Win32,60,5ede234d69a8800409af2756,,1,0,80,19,1,79
,,,,,,,,,,,,,,,,,,,,,,,,,,,,,,,,,,,return,2.197999954,,FALSE,,,,,,,124,cirera,Catalan,Sounds/cat_cirera.mp3,2020-06-08_18h11.41.559,TranslationElicitation_spa,3.2.4,Win32,60,5ede234d69a8800409af2756,2.197999954,1,0,80,19,1,79
,,,,,,,,,,,,,,,,,,,,,,,,,,,,,,,,,,,,,,,,,,,,,124,cirera,Catalan,Sounds/cat_cirera.mp3,2020-06-08_18h11.41.559,TranslationElicitation_spa,3.2.4,Win32,60,5ede234d69a8800409af2756,,1,0,80,19,1,79
,,,,,,,,,,,,,,,,,,,,,,,,,,,,,,,,,,,o,1.499000072,O,FALSE,,,,,,,144,gorra,Catalan,Sounds/cat_gorra.mp3,2020-06-08_18h11.41.559,TranslationElicitation_spa,3.2.4,Win32,60,5ede234d69a8800409af2756,,1,0,80,39,1,79
,,,,,,,,,,,,,,,,,,,,,,,,,,,,,,,,,,,r,1.565999985,OR,FALSE,,,,,,,144,gorra,Catalan,Sounds/cat_gorra.mp3,2020-06-08_18h11.41.559,TranslationElicitation_spa,3.2.4,Win32,60,5ede234d69a8800409af2756,,1,0,80,39,1,79
,,,,,,,,,,,,,,,,,,,,,,,,,,,,,,,,,,,r,1.749000072,ORR,FALSE,,,,,,,144,gorra,Catalan,Sounds/cat_gorra.mp3,2020-06-08_18h11.41.559,TranslationElicitation_spa,3.2.4,Win32,60,5ede234d69a8800409af2756,,1,0,80,39,1,79
,,,,,,,,,,,,,,,,,,,,,,,,,,,,,,,,,,,backspace,2.082999945,O,TRUE,,,,,,,144,gorra,Catalan,Sounds/cat_gorra.mp3,2020-06-08_18h11.41.559,TranslationElicitation_spa,3.2.4,Win32,60,5ede234d69a8800409af2756,,1,0,80,39,1,79
,,,,,,,,,,,,,,,,,,,,,,,,,,,,,,,,,,,backspace,2.249000072,,TRUE,,,,,,,144,gorra,Catalan,Sounds/cat_gorra.mp3,2020-06-08_18h11.41.559,TranslationElicitation_spa,3.2.4,Win32,60,5ede234d69a8800409af2756,,1,0,80,39,1,79
,,,,,,,,,,,,,,,,,,,,,,,,,,,,,,,,,,,g,2.433000088,G,TRUE,,,,,,,144,gorra,Catalan,Sounds/cat_gorra.mp3,2020-06-08_18h11.41.559,TranslationElicitation_spa,3.2.4,Win32,60,5ede234d69a8800409af2756,,1,0,80,39,1,79
,,,,,,,,,,,,,,,,,,,,,,,,,,,,,,,,,,,r,2.598999977,GR,TRUE,,,,,,,144,gorra,Catalan,Sounds/cat_gorra.mp3,2020-06-08_18h11.41.559,TranslationElicitation_spa,3.2.4,Win32,60,5ede234d69a8800409af2756,,1,0,80,39,1,79
,,,,,,,,,,,,,,,,,,,,,,,,,,,,,,,,,,,o,2.698999882,GRO,TRUE,,,,,,,144,gorra,Catalan,Sounds/cat_gorra.mp3,2020-06-08_18h11.41.559,TranslationElicitation_spa,3.2.4,Win32,60,5ede234d69a8800409af2756,,1,0,80,39,1,79
,,,,,,,,,,,,,,,,,,,,,,,,,,,,,,,,,,,backspace,2.96600008,G,TRUE,,,,,,,144,gorra,Catalan,Sounds/cat_gorra.mp3,2020-06-08_18h11.41.559,TranslationElicitation_spa,3.2.4,Win32,60,5ede234d69a8800409af2756,,1,0,80,39,1,79
,,,,,,,,,,,,,,,,,,,,,,,,,,,,,,,,,,,backspace,3.115999937,,TRUE,,,,,,,144,gorra,Catalan,Sounds/cat_gorra.mp3,2020-06-08_18h11.41.559,TranslationElicitation_spa,3.2.4,Win32,60,5ede234d69a8800409af2756,,1,0,80,39,1,79
,,,,,,,,,,,,,,,,,,,,,,,,,,,,,,,,,,,o,3.26699996,O,TRUE,,,,,,,144,gorra,Catalan,Sounds/cat_gorra.mp3,2020-06-08_18h11.41.559,TranslationElicitation_spa,3.2.4,Win32,60,5ede234d69a8800409af2756,,1,0,80,39,1,79
,,,,,,,,,,,,,,,,,,,,,,,,,,,,,,,,,,,r,3.348999977,OR,TRUE,,,,,,,144,gorra,Catalan,Sounds/cat_gorra.mp3,2020-06-08_18h11.41.559,TranslationElicitation_spa,3.2.4,Win32,60,5ede234d69a8800409af2756,,1,0,80,39,1,79
,,,,,,,,,,,,,,,,,,,,,,,,,,,,,,,,,,,backspace,3.703000069,,TRUE,,,,,,,144,gorra,Catalan,Sounds/cat_gorra.mp3,2020-06-08_18h11.41.559,TranslationElicitation_spa,3.2.4,Win32,60,5ede234d69a8800409af2756,,1,0,80,39,1,79
,,,,,,,,,,,,,,,,,,,,,,,,,,,,,,,,,,,backspace,3.96600008,,TRUE,,,,,,,144,gorra,Catalan,Sounds/cat_gorra.mp3,2020-06-08_18h11.41.559,TranslationElicitation_spa,3.2.4,Win32,60,5ede234d69a8800409af2756,,1,0,80,39,1,79
,,,,,,,,,,,,,,,,,,,,,,,,,,,,,,,,,,,g,4.183000088,G,TRUE,,,,,,,144,gorra,Catalan,Sounds/cat_gorra.mp3,2020-06-08_18h11.41.559,TranslationElicitation_spa,3.2.4,Win32,60,5ede234d69a8800409af2756,,1,0,80,39,1,79
,,,,,,,,,,,,,,,,,,,,,,,,,,,,,,,,,,,o,4.648999929,GO,TRUE,,,,,,,144,gorra,Catalan,Sounds/cat_gorra.mp3,2020-06-08_18h11.41.559,TranslationElicitation_spa,3.2.4,Win32,60,5ede234d69a8800409af2756,,1,0,80,39,1,79
,,,,,,,,,,,,,,,,,,,,,,,,,,,,,,,,,,,r,4.898999929,GOR,TRUE,,,,,,,144,gorra,Catalan,Sounds/cat_gorra.mp3,2020-06-08_18h11.41.559,TranslationElicitation_spa,3.2.4,Win32,60,5ede234d69a8800409af2756,,1,0,80,39,1,79
,,,,,,,,,,,,,,,,,,,,,,,,,,,,,,,,,,,r,5.016000032,GORR,TRUE,,,,,,,144,gorra,Catalan,Sounds/cat_gorra.mp3,2020-06-08_18h11.41.559,TranslationElicitation_spa,3.2.4,Win32,60,5ede234d69a8800409af2756,,1,0,80,39,1,79
,,,,,,,,,,,,,,,,,,,,,,,,,,,,,,,,,,,a,5.499000072,GORRA,TRUE,,,,,,,144,gorra,Catalan,Sounds/cat_gorra.mp3,2020-06-08_18h11.41.559,TranslationElicitation_spa,3.2.4,Win32,60,5ede234d69a8800409af2756,,1,0,80,39,1,79
,,,,,,,,,,,,,,,,,,,,,,,,,,,,,,,,,,,return,5.948999882,,TRUE,,,,,,,144,gorra,Catalan,Sounds/cat_gorra.mp3,2020-06-08_18h11.41.559,TranslationElicitation_spa,3.2.4,Win32,60,5ede234d69a8800409af2756,5.948999882,1,0,80,39,1,79
,,,,,,,,,,,,,,,,,,,,,,,,,,,,,,,,,,,,,,,,,,,,,144,gorra,Catalan,Sounds/cat_gorra.mp3,2020-06-08_18h11.41.559,TranslationElicitation_spa,3.2.4,Win32,60,5ede234d69a8800409af2756,,1,0,80,39,1,79
,,,,,,,,,,,,,,,,,,,,,,,,,,,,,,,,,,,v,11.875,V,FALSE,,,,,,,111,bibero,Catalan,Sounds/cat_bibero.mp3,2020-06-08_18h11.41.559,TranslationElicitation_spa,3.2.4,Win32,60,5ede234d69a8800409af2756,,1,0,80,6,1,79
,,,,,,,,,,,,,,,,,,,,,,,,,,,,,,,,,,,backspace,12.34200001,,TRUE,,,,,,,111,bibero,Catalan,Sounds/cat_bibero.mp3,2020-06-08_18h11.41.559,TranslationElicitation_spa,3.2.4,Win32,60,5ede234d69a8800409af2756,,1,0,80,6,1,79
,,,,,,,,,,,,,,,,,,,,,,,,,,,,,,,,,,,v,15.50800014,V,TRUE,,,,,,,111,bibero,Catalan,Sounds/cat_bibero.mp3,2020-06-08_18h11.41.559,TranslationElicitation_spa,3.2.4,Win32,60,5ede234d69a8800409af2756,,1,0,80,6,1,79
,,,,,,,,,,,,,,,,,,,,,,,,,,,,,,,,,,,i,15.84200001,VI,TRUE,,,,,,,111,bibero,Catalan,Sounds/cat_bibero.mp3,2020-06-08_18h11.41.559,TranslationElicitation_spa,3.2.4,Win32,60,5ede234d69a8800409af2756,,1,0,80,6,1,79
,,,,,,,,,,,,,,,,,,,,,,,,,,,,,,,,,,,v,17.09100008,VIV,TRUE,,,,,,,111,bibero,Catalan,Sounds/cat_bibero.mp3,2020-06-08_18h11.41.559,TranslationElicitation_spa,3.2.4,Win32,60,5ede234d69a8800409af2756,,1,0,80,6,1,79
,,,,,,,,,,,,,,,,,,,,,,,,,,,,,,,,,,,i,17.22500014,VIVI,TRUE,,,,,,,111,bibero,Catalan,Sounds/cat_bibero.mp3,2020-06-08_18h11.41.559,TranslationElicitation_spa,3.2.4,Win32,60,5ede234d69a8800409af2756,,1,0,80,6,1,79
,,,,,,,,,,,,,,,,,,,,,,,,,,,,,,,,,,,r,17.89100003,VIVIR,TRUE,,,,,,,111,bibero,Catalan,Sounds/cat_bibero.mp3,2020-06-08_18h11.41.559,TranslationElicitation_spa,3.2.4,Win32,60,5ede234d69a8800409af2756,,1,0,80,6,1,79
,,,,,,,,,,,,,,,,,,,,,,,,,,,,,,,,,,,apostrophe,18.10800004,VIVIR,TRUE,,,,,,,111,bibero,Catalan,Sounds/cat_bibero.mp3,2020-06-08_18h11.41.559,TranslationElicitation_spa,3.2.4,Win32,60,5ede234d69a8800409af2756,,1,0,80,6,1,79
,,,,,,,,,,,,,,,,,,,,,,,,,,,,,,,,,,,a,18.22500014,VIVIRÁ,TRUE,,,,,,,111,bibero,Catalan,Sounds/cat_bibero.mp3,2020-06-08_18h11.41.559,TranslationElicitation_spa,3.2.4,Win32,60,5ede234d69a8800409af2756,,1,0,80,6,1,79
,,,,,,,,,,,,,,,,,,,,,,,,,,,,,,,,,,,return,18.52900004,,TRUE,,,,,,,111,bibero,Catalan,Sounds/cat_bibero.mp3,2020-06-08_18h11.41.559,TranslationElicitation_spa,3.2.4,Win32,60,5ede234d69a8800409af2756,18.52900004,1,0,80,6,1,79
,,,,,,,,,,,,,,,,,,,,,,,,,,,,,,,,,,,,,,,,,,,,,111,bibero,Catalan,Sounds/cat_bibero.mp3,2020-06-08_18h11.41.559,TranslationElicitation_spa,3.2.4,Win32,60,5ede234d69a8800409af2756,,1,0,80,6,1,79
,,,,,,,,,,,,,,,,,,,,,,,,,,,,,,,,,,,m,6.759000063,M,FALSE,,,,,,,106,aixeta,Catalan,Sounds/cat_aixeta.mp3,2020-06-08_18h11.41.559,TranslationElicitation_spa,3.2.4,Win32,60,5ede234d69a8800409af2756,,1,0,80,2,1,79
,,,,,,,,,,,,,,,,,,,,,,,,,,,,,,,,,,,e,6.842000008,ME,FALSE,,,,,,,106,aixeta,Catalan,Sounds/cat_aixeta.mp3,2020-06-08_18h11.41.559,TranslationElicitation_spa,3.2.4,Win32,60,5ede234d69a8800409af2756,,1,0,80,2,1,79
,,,,,,,,,,,,,,,,,,,,,,,,,,,,,,,,,,,s,7.059000015,MES,FALSE,,,,,,,106,aixeta,Catalan,Sounds/cat_aixeta.mp3,2020-06-08_18h11.41.559,TranslationElicitation_spa,3.2.4,Win32,60,5ede234d69a8800409af2756,,1,0,80,2,1,79
,,,,,,,,,,,,,,,,,,,,,,,,,,,,,,,,,,,e,7.176000118,MESE,FALSE,,,,,,,106,aixeta,Catalan,Sounds/cat_aixeta.mp3,2020-06-08_18h11.41.559,TranslationElicitation_spa,3.2.4,Win32,60,5ede234d69a8800409af2756,,1,0,80,2,1,79
,,,,,,,,,,,,,,,,,,,,,,,,,,,,,,,,,,,t,7.375999928,MESET,FALSE,,,,,,,106,aixeta,Catalan,Sounds/cat_aixeta.mp3,2020-06-08_18h11.41.559,TranslationElicitation_spa,3.2.4,Win32,60,5ede234d69a8800409af2756,,1,0,80,2,1,79
,,,,,,,,,,,,,,,,,,,,,,,,,,,,,,,,,,,a,7.575999975,MESETA,FALSE,,,,,,,106,aixeta,Catalan,Sounds/cat_aixeta.mp3,2020-06-08_18h11.41.559,TranslationElicitation_spa,3.2.4,Win32,60,5ede234d69a8800409af2756,,1,0,80,2,1,79
,,,,,,,,,,,,,,,,,,,,,,,,,,,,,,,,,,,return,7.757999897,,FALSE,,,,,,,106,aixeta,Catalan,Sounds/cat_aixeta.mp3,2020-06-08_18h11.41.559,TranslationElicitation_spa,3.2.4,Win32,60,5ede234d69a8800409af2756,7.757999897,1,0,80,2,1,79
,,,,,,,,,,,,,,,,,,,,,,,,,,,,,,,,,,,,,,,,,,,,,106,aixeta,Catalan,Sounds/cat_aixeta.mp3,2020-06-08_18h11.41.559,TranslationElicitation_spa,3.2.4,Win32,60,5ede234d69a8800409af2756,,1,0,80,2,1,79
,,,,,,,,,,,,,,,,,,,,,,,,,,,,,,,,,,,p,3.611000061,P,FALSE,,,,,,,162,pa,Catalan,Sounds/cat_pa.mp3,2020-06-08_18h11.41.559,TranslationElicitation_spa,3.2.4,Win32,60,5ede234d69a8800409af2756,,1,0,80,55,1,79
,,,,,,,,,,,,,,,,,,,,,,,,,,,,,,,,,,,a,3.661000013,PA,FALSE,,,,,,,162,pa,Catalan,Sounds/cat_pa.mp3,2020-06-08_18h11.41.559,TranslationElicitation_spa,3.2.4,Win32,60,5ede234d69a8800409af2756,,1,0,80,55,1,79
,,,,,,,,,,,,,,,,,,,,,,,,,,,,,,,,,,,p,4.50999999,PAP,FALSE,,,,,,,162,pa,Catalan,Sounds/cat_pa.mp3,2020-06-08_18h11.41.559,TranslationElicitation_spa,3.2.4,Win32,60,5ede234d69a8800409af2756,,1,0,80,55,1,79
,,,,,,,,,,,,,,,,,,,,,,,,,,,,,,,,,,,apostrophe,4.827000141,PAP,FALSE,,,,,,,162,pa,Catalan,Sounds/cat_pa.mp3,2020-06-08_18h11.41.559,TranslationElicitation_spa,3.2.4,Win32,60,5ede234d69a8800409af2756,,1,0,80,55,1,79
,,,,,,,,,,,,,,,,,,,,,,,,,,,,,,,,,,,a,4.927000046,PAPÁ,FALSE,,,,,,,162,pa,Catalan,Sounds/cat_pa.mp3,2020-06-08_18h11.41.559,TranslationElicitation_spa,3.2.4,Win32,60,5ede234d69a8800409af2756,,1,0,80,55,1,79
,,,,,,,,,,,,,,,,,,,,,,,,,,,,,,,,,,,return,5.261000156,,FALSE,,,,,,,162,pa,Catalan,Sounds/cat_pa.mp3,2020-06-08_18h11.41.559,TranslationElicitation_spa,3.2.4,Win32,60,5ede234d69a8800409af2756,5.261000156,1,0,80,55,1,79
,,,,,,,,,,,,,,,,,,,,,,,,,,,,,,,,,,,,,,,,,,,,,162,pa,Catalan,Sounds/cat_pa.mp3,2020-06-08_18h11.41.559,TranslationElicitation_spa,3.2.4,Win32,60,5ede234d69a8800409af2756,,1,0,80,55,1,79
,,,,,,,,,,,,,,,,,,,,,,,,,,,,,,,,,,,o,2.79700017,O,FALSE,,,,,,,166,peu,Catalan,Sounds/cat_peu.mp3,2020-06-08_18h11.41.559,TranslationElicitation_spa,3.2.4,Win32,60,5ede234d69a8800409af2756,,1,0,80,59,1,79
,,,,,,,,,,,,,,,,,,,,,,,,,,,,,,,,,,,e,2.930000067,OE,FALSE,,,,,,,166,peu,Catalan,Sounds/cat_peu.mp3,2020-06-08_18h11.41.559,TranslationElicitation_spa,3.2.4,Win32,60,5ede234d69a8800409af2756,,1,0,80,59,1,79
,,,,,,,,,,,,,,,,,,,,,,,,,,,,,,,,,,,d,3.29700017,OED,FALSE,,,,,,,166,peu,Catalan,Sounds/cat_peu.mp3,2020-06-08_18h11.41.559,TranslationElicitation_spa,3.2.4,Win32,60,5ede234d69a8800409af2756,,1,0,80,59,1,79
,,,,,,,,,,,,,,,,,,,,,,,,,,,,,,,,,,,backspace,3.580000162,O,TRUE,,,,,,,166,peu,Catalan,Sounds/cat_peu.mp3,2020-06-08_18h11.41.559,TranslationElicitation_spa,3.2.4,Win32,60,5ede234d69a8800409af2756,,1,0,80,59,1,79
,,,,,,,,,,,,,,,,,,,,,,,,,,,,,,,,,,,backspace,3.697000027,,TRUE,,,,,,,166,peu,Catalan,Sounds/cat_peu.mp3,2020-06-08_18h11.41.559,TranslationElicitation_spa,3.2.4,Win32,60,5ede234d69a8800409af2756,,1,0,80,59,1,79
,,,,,,,,,,,,,,,,,,,,,,,,,,,,,,,,,,,p,5.31400013,P,TRUE,,,,,,,166,peu,Catalan,Sounds/cat_peu.mp3,2020-06-08_18h11.41.559,TranslationElicitation_spa,3.2.4,Win32,60,5ede234d69a8800409af2756,,1,0,80,59,1,79
,,,,,,,,,,,,,,,,,,,,,,,,,,,,,,,,,,,e,5.447000027,PE,TRUE,,,,,,,166,peu,Catalan,Sounds/cat_peu.mp3,2020-06-08_18h11.41.559,TranslationElicitation_spa,3.2.4,Win32,60,5ede234d69a8800409af2756,,1,0,80,59,1,79
,,,,,,,,,,,,,,,,,,,,,,,,,,,,,,,,,,,d,5.562999964,PED,TRUE,,,,,,,166,peu,Catalan,Sounds/cat_peu.mp3,2020-06-08_18h11.41.559,TranslationElicitation_spa,3.2.4,Win32,60,5ede234d69a8800409af2756,,1,0,80,59,1,79
,,,,,,,,,,,,,,,,,,,,,,,,,,,,,,,,,,,o,5.713000059,PEDO,TRUE,,,,,,,166,peu,Catalan,Sounds/cat_peu.mp3,2020-06-08_18h11.41.559,TranslationElicitation_spa,3.2.4,Win32,60,5ede234d69a8800409af2756,,1,0,80,59,1,79
,,,,,,,,,,,,,,,,,,,,,,,,,,,,,,,,,,,return,5.943000078,,TRUE,,,,,,,166,peu,Catalan,Sounds/cat_peu.mp3,2020-06-08_18h11.41.559,TranslationElicitation_spa,3.2.4,Win32,60,5ede234d69a8800409af2756,5.943000078,1,0,80,59,1,79
,,,,,,,,,,,,,,,,,,,,,,,,,,,,,,,,,,,,,,,,,,,,,166,peu,Catalan,Sounds/cat_peu.mp3,2020-06-08_18h11.41.559,TranslationElicitation_spa,3.2.4,Win32,60,5ede234d69a8800409af2756,,1,0,80,59,1,79
,,,,,,,,,,,,,,,,,,,,,,,,,,,,,,,,,,,h,1.565999985,H,FALSE,,,,,,,135,formiga,Catalan,Sounds/cat_formiga.mp3,2020-06-08_18h11.41.559,TranslationElicitation_spa,3.2.4,Win32,60,5ede234d69a8800409af2756,,1,0,80,30,1,79
,,,,,,,,,,,,,,,,,,,,,,,,,,,,,,,,,,,o,1.71600008,HO,FALSE,,,,,,,135,formiga,Catalan,Sounds/cat_formiga.mp3,2020-06-08_18h11.41.559,TranslationElicitation_spa,3.2.4,Win32,60,5ede234d69a8800409af2756,,1,0,80,30,1,79
,,,,,,,,,,,,,,,,,,,,,,,,,,,,,,,,,,,r,1.799000025,HOR,FALSE,,,,,,,135,formiga,Catalan,Sounds/cat_formiga.mp3,2020-06-08_18h11.41.559,TranslationElicitation_spa,3.2.4,Win32,60,5ede234d69a8800409af2756,,1,0,80,30,1,79
,,,,,,,,,,,,,,,,,,,,,,,,,,,,,,,,,,,m,1.999000072,HORM,FALSE,,,,,,,135,formiga,Catalan,Sounds/cat_formiga.mp3,2020-06-08_18h11.41.559,TranslationElicitation_spa,3.2.4,Win32,60,5ede234d69a8800409af2756,,1,0,80,30,1,79
,,,,,,,,,,,,,,,,,,,,,,,,,,,,,,,,,,,i,2.115999937,HORMI,FALSE,,,,,,,135,formiga,Catalan,Sounds/cat_formiga.mp3,2020-06-08_18h11.41.559,TranslationElicitation_spa,3.2.4,Win32,60,5ede234d69a8800409af2756,,1,0,80,30,1,79
,,,,,,,,,,,,,,,,,,,,,,,,,,,,,,,,,,,g,2.19900012,HORMIG,FALSE,,,,,,,135,formiga,Catalan,Sounds/cat_formiga.mp3,2020-06-08_18h11.41.559,TranslationElicitation_spa,3.2.4,Win32,60,5ede234d69a8800409af2756,,1,0,80,30,1,79
,,,,,,,,,,,,,,,,,,,,,,,,,,,,,,,,,,,a,2.429000139,HORMIGA,FALSE,,,,,,,135,formiga,Catalan,Sounds/cat_formiga.mp3,2020-06-08_18h11.41.559,TranslationElicitation_spa,3.2.4,Win32,60,5ede234d69a8800409af2756,,1,0,80,30,1,79
,,,,,,,,,,,,,,,,,,,,,,,,,,,,,,,,,,,return,2.631999969,,FALSE,,,,,,,135,formiga,Catalan,Sounds/cat_formiga.mp3,2020-06-08_18h11.41.559,TranslationElicitation_spa,3.2.4,Win32,60,5ede234d69a8800409af2756,2.631999969,1,0,80,30,1,79
,,,,,,,,,,,,,,,,,,,,,,,,,,,,,,,,,,,,,,,,,,,,,135,formiga,Catalan,Sounds/cat_formiga.mp3,2020-06-08_18h11.41.559,TranslationElicitation_spa,3.2.4,Win32,60,5ede234d69a8800409af2756,,1,0,80,30,1,79
,,,,,,,,,,,,,,,,,,,,,,,,,,,,,,,,,,,c,1.248999834,C,FALSE,,,,,,,126,corona,Catalan,Sounds/cat_corona.mp3,2020-06-08_18h11.41.559,TranslationElicitation_spa,3.2.4,Win32,60,5ede234d69a8800409af2756,,1,0,80,21,1,79
,,,,,,,,,,,,,,,,,,,,,,,,,,,,,,,,,,,o,1.3349998,CO,FALSE,,,,,,,126,corona,Catalan,Sounds/cat_corona.mp3,2020-06-08_18h11.41.559,TranslationElicitation_spa,3.2.4,Win32,60,5ede234d69a8800409af2756,,1,0,80,21,1,79
,,,,,,,,,,,,,,,,,,,,,,,,,,,,,,,,,,,r,1.498999834,COR,FALSE,,,,,,,126,corona,Catalan,Sounds/cat_corona.mp3,2020-06-08_18h11.41.559,TranslationElicitation_spa,3.2.4,Win32,60,5ede234d69a8800409af2756,,1,0,80,21,1,79
,,,,,,,,,,,,,,,,,,,,,,,,,,,,,,,,,,,o,1.548999786,CORO,FALSE,,,,,,,126,corona,Catalan,Sounds/cat_corona.mp3,2020-06-08_18h11.41.559,TranslationElicitation_spa,3.2.4,Win32,60,5ede234d69a8800409af2756,,1,0,80,21,1,79
,,,,,,,,,,,,,,,,,,,,,,,,,,,,,,,,,,,n,1.748999834,CORON,FALSE,,,,,,,126,corona,Catalan,Sounds/cat_corona.mp3,2020-06-08_18h11.41.559,TranslationElicitation_spa,3.2.4,Win32,60,5ede234d69a8800409af2756,,1,0,80,21,1,79
,,,,,,,,,,,,,,,,,,,,,,,,,,,,,,,,,,,a,1.898999929,CORONA,FALSE,,,,,,,126,corona,Catalan,Sounds/cat_corona.mp3,2020-06-08_18h11.41.559,TranslationElicitation_spa,3.2.4,Win32,60,5ede234d69a8800409af2756,,1,0,80,21,1,79
,,,,,,,,,,,,,,,,,,,,,,,,,,,,,,,,,,,return,2.065999985,,FALSE,,,,,,,126,corona,Catalan,Sounds/cat_corona.mp3,2020-06-08_18h11.41.559,TranslationElicitation_spa,3.2.4,Win32,60,5ede234d69a8800409af2756,2.064999819,1,0,80,21,1,79
,,,,,,,,,,,,,,,,,,,,,,,,,,,,,,,,,,,,,,,,,,,,,126,corona,Catalan,Sounds/cat_corona.mp3,2020-06-08_18h11.41.559,TranslationElicitation_spa,3.2.4,Win32,60,5ede234d69a8800409af2756,,1,0,80,21,1,79
,,,,,,,,,,,,,,,,,,,,,,,,,,,,,,,,,,,c,1.11500001,C,FALSE,,,,,,,127,cotxe,Catalan,Sounds/cat_cotxe.mp3,2020-06-08_18h11.41.559,TranslationElicitation_spa,3.2.4,Win32,60,5ede234d69a8800409af2756,,1,0,80,22,1,79
