consentKey.keys,consentKey.rt,languageL1Key.keys,languageL1Key.rt,languageL2,languageL2OralKey.keys,languageL2OralKey.rt,languageL2WrittenKey.keys,languageL2WrittenKey.rt,languageL3OralKey.keys,languageL3OralKey.rt,languageL3WrittenKey.keys,languageL3WrittenKey.rt,languageCatalanOralKey.keys,languageCatalanOralKey.rt,languageCatalanWrittenKey.keys,languageCatalanWrittenKey.rt,languageCatalanTimeKey.keys,languageCatalanTimeKey.rt,age,demoSexKey.keys,demoSexKey.rt,demoEducationKey.keys,demoEducationKey.rt,city,demoVisionKey.keys,demoVisionKey.rt,demoLanguageKey.keys,demoLanguageKey.rt,setupLocationKey.keys,setupLocationKey.rt,setupNoiseKey.keys,setupNoiseKey.rt,instructionsKeys.keys,instructionsKeys.rt,keyPressed,keyPressTime,inputText,error,trials_practice.thisRepN,trials_practice.thisTrialN,trials_practice.thisN,trials_practice.thisIndex,trials_practice.ran,trials_practice.order,trial_id,word,test_language,soundfile,date,expName,psychopyVersion,OS,frameRate,participant,trialOffset,trials.thisRepN,trials.thisTrialN,trials.thisN,trials.thisIndex,trials.ran,trials.order
space,14.35599995,e,8.447000027,,3,21.454,3,17.04200006,,,,,2,18.40799999,1,4.240999937,1,6.114000082,20,h,1.856999874,3,6.684999943,MURCIA,n,5.773999929,n,3.215999842,1,6.140999794,1,3.378000021,space,20.8099997,u,2.338000059,U,FALSE,1,0,5,2,1,4,159,onada,Catalan,Sounds/cat_onada.mp3,2020-06-09_14h08.42.784,TranslationElicitation_spa,3.2.4,Win32,60,5ede22ac2ec6380417664519,,,,,,,
,,,,,,,,,,,,,,,,,,,,,,,,,,,,,,,,,,,n,2.386999846,UN,FALSE,1,0,5,2,1,4,159,onada,Catalan,Sounds/cat_onada.mp3,2020-06-09_14h08.42.784,TranslationElicitation_spa,3.2.4,Win32,60,5ede22ac2ec6380417664519,,,,,,,
,,,,,,,,,,,,,,,,,,,,,,,,,,,,,,,,,,,space,2.619999886,UN ,FALSE,1,0,5,2,1,4,159,onada,Catalan,Sounds/cat_onada.mp3,2020-06-09_14h08.42.784,TranslationElicitation_spa,3.2.4,Win32,60,5ede22ac2ec6380417664519,,,,,,,
,,,,,,,,,,,,,,,,,,,,,,,,,,,,,,,,,,,h,2.836999893,UN H,FALSE,1,0,5,2,1,4,159,onada,Catalan,Sounds/cat_onada.mp3,2020-06-09_14h08.42.784,TranslationElicitation_spa,3.2.4,Win32,60,5ede22ac2ec6380417664519,,,,,,,
,,,,,,,,,,,,,,,,,,,,,,,,,,,,,,,,,,,a,3.152999878,UN HA,FALSE,1,0,5,2,1,4,159,onada,Catalan,Sounds/cat_onada.mp3,2020-06-09_14h08.42.784,TranslationElicitation_spa,3.2.4,Win32,60,5ede22ac2ec6380417664519,,,,,,,
,,,,,,,,,,,,,,,,,,,,,,,,,,,,,,,,,,,d,3.271999836,UN HAD,FALSE,1,0,5,2,1,4,159,onada,Catalan,Sounds/cat_onada.mp3,2020-06-09_14h08.42.784,TranslationElicitation_spa,3.2.4,Win32,60,5ede22ac2ec6380417664519,,,,,,,
,,,,,,,,,,,,,,,,,,,,,,,,,,,,,,,,,,,a,3.385999918,UN HADA,FALSE,1,0,5,2,1,4,159,onada,Catalan,Sounds/cat_onada.mp3,2020-06-09_14h08.42.784,TranslationElicitation_spa,3.2.4,Win32,60,5ede22ac2ec6380417664519,,,,,,,
,,,,,,,,,,,,,,,,,,,,,,,,,,,,,,,,,,,return,3.569000006,,FALSE,1,0,5,2,1,4,159,onada,Catalan,Sounds/cat_onada.mp3,2020-06-09_14h08.42.784,TranslationElicitation_spa,3.2.4,Win32,60,5ede22ac2ec6380417664519,3.569000006,,,,,,
,,,,,,,,,,,,,,,,,,,,,,,,,,,,,,,,,,,,,,,1,0,5,2,1,4,159,onada,Catalan,Sounds/cat_onada.mp3,2020-06-09_14h08.42.784,TranslationElicitation_spa,3.2.4,Win32,60,5ede22ac2ec6380417664519,,,,,,,
,,,,,,,,,,,,,,,,,,,,,,,,,,,,,,,,,,,j,1.313000202,J,FALSE,1,0,5,1,1,4,147,jaqueta,Catalan,Sounds/cat_jaqueta.mp3,2020-06-09_14h08.42.784,TranslationElicitation_spa,3.2.4,Win32,60,5ede22ac2ec6380417664519,,,,,,,
,,,,,,,,,,,,,,,,,,,,,,,,,,,,,,,,,,,a,1.379000187,JA,FALSE,1,0,5,1,1,4,147,jaqueta,Catalan,Sounds/cat_jaqueta.mp3,2020-06-09_14h08.42.784,TranslationElicitation_spa,3.2.4,Win32,60,5ede22ac2ec6380417664519,,,,,,,
,,,,,,,,,,,,,,,,,,,,,,,,,,,,,,,,,,,backspace,1.863000154,,TRUE,1,0,5,1,1,4,147,jaqueta,Catalan,Sounds/cat_jaqueta.mp3,2020-06-09_14h08.42.784,TranslationElicitation_spa,3.2.4,Win32,60,5ede22ac2ec6380417664519,,,,,,,
,,,,,,,,,,,,,,,,,,,,,,,,,,,,,,,,,,,backspace,2.078999996,,TRUE,1,0,5,1,1,4,147,jaqueta,Catalan,Sounds/cat_jaqueta.mp3,2020-06-09_14h08.42.784,TranslationElicitation_spa,3.2.4,Win32,60,5ede22ac2ec6380417664519,,,,,,,
,,,,,,,,,,,,,,,,,,,,,,,,,,,,,,,,,,,c,2.979000092,C,TRUE,1,0,5,1,1,4,147,jaqueta,Catalan,Sounds/cat_jaqueta.mp3,2020-06-09_14h08.42.784,TranslationElicitation_spa,3.2.4,Win32,60,5ede22ac2ec6380417664519,,,,,,,
,,,,,,,,,,,,,,,,,,,,,,,,,,,,,,,,,,,h,3.111999989,CH,TRUE,1,0,5,1,1,4,147,jaqueta,Catalan,Sounds/cat_jaqueta.mp3,2020-06-09_14h08.42.784,TranslationElicitation_spa,3.2.4,Win32,60,5ede22ac2ec6380417664519,,,,,,,
,,,,,,,,,,,,,,,,,,,,,,,,,,,,,,,,,,,a,3.228000164,CHA,TRUE,1,0,5,1,1,4,147,jaqueta,Catalan,Sounds/cat_jaqueta.mp3,2020-06-09_14h08.42.784,TranslationElicitation_spa,3.2.4,Win32,60,5ede22ac2ec6380417664519,,,,,,,
,,,,,,,,,,,,,,,,,,,,,,,,,,,,,,,,,,,q,3.444000006,CHAQ,TRUE,1,0,5,1,1,4,147,jaqueta,Catalan,Sounds/cat_jaqueta.mp3,2020-06-09_14h08.42.784,TranslationElicitation_spa,3.2.4,Win32,60,5ede22ac2ec6380417664519,,,,,,,
,,,,,,,,,,,,,,,,,,,,,,,,,,,,,,,,,,,u,3.578000069,CHAQU,TRUE,1,0,5,1,1,4,147,jaqueta,Catalan,Sounds/cat_jaqueta.mp3,2020-06-09_14h08.42.784,TranslationElicitation_spa,3.2.4,Win32,60,5ede22ac2ec6380417664519,,,,,,,
,,,,,,,,,,,,,,,,,,,,,,,,,,,,,,,,,,,e,3.695000172,CHAQUE,TRUE,1,0,5,1,1,4,147,jaqueta,Catalan,Sounds/cat_jaqueta.mp3,2020-06-09_14h08.42.784,TranslationElicitation_spa,3.2.4,Win32,60,5ede22ac2ec6380417664519,,,,,,,
,,,,,,,,,,,,,,,,,,,,,,,,,,,,,,,,,,,t,3.938000202,CHAQUET,TRUE,1,0,5,1,1,4,147,jaqueta,Catalan,Sounds/cat_jaqueta.mp3,2020-06-09_14h08.42.784,TranslationElicitation_spa,3.2.4,Win32,60,5ede22ac2ec6380417664519,,,,,,,
,,,,,,,,,,,,,,,,,,,,,,,,,,,,,,,,,,,a,4.045000076,CHAQUETA,TRUE,1,0,5,1,1,4,147,jaqueta,Catalan,Sounds/cat_jaqueta.mp3,2020-06-09_14h08.42.784,TranslationElicitation_spa,3.2.4,Win32,60,5ede22ac2ec6380417664519,,,,,,,
,,,,,,,,,,,,,,,,,,,,,,,,,,,,,,,,,,,return,4.226999998,,TRUE,1,0,5,1,1,4,147,jaqueta,Catalan,Sounds/cat_jaqueta.mp3,2020-06-09_14h08.42.784,TranslationElicitation_spa,3.2.4,Win32,60,5ede22ac2ec6380417664519,4.226999998,,,,,,
,,,,,,,,,,,,,,,,,,,,,,,,,,,,,,,,,,,,,,,1,0,5,1,1,4,147,jaqueta,Catalan,Sounds/cat_jaqueta.mp3,2020-06-09_14h08.42.784,TranslationElicitation_spa,3.2.4,Win32,60,5ede22ac2ec6380417664519,,,,,,,
,,,,,,,,,,,,,,,,,,,,,,,,,,,,,,,,,,,a,2.628000021,A,FALSE,1,0,5,0,1,4,109,arbre,Catalan,Sounds/cat_arbre.mp3,2020-06-09_14h08.42.784,TranslationElicitation_spa,3.2.4,Win32,60,5ede22ac2ec6380417664519,,,,,,,
,,,,,,,,,,,,,,,,,,,,,,,,,,,,,,,,,,,r,2.895999908,AR,FALSE,1,0,5,0,1,4,109,arbre,Catalan,Sounds/cat_arbre.mp3,2020-06-09_14h08.42.784,TranslationElicitation_spa,3.2.4,Win32,60,5ede22ac2ec6380417664519,,,,,,,
,,,,,,,,,,,,,,,,,,,,,,,,,,,,,,,,,,,p,3.244999886,ARP,FALSE,1,0,5,0,1,4,109,arbre,Catalan,Sounds/cat_arbre.mp3,2020-06-09_14h08.42.784,TranslationElicitation_spa,3.2.4,Win32,60,5ede22ac2ec6380417664519,,,,,,,
,,,,,,,,,,,,,,,,,,,,,,,,,,,,,,,,,,,a,3.29399991,ARPA,FALSE,1,0,5,0,1,4,109,arbre,Catalan,Sounds/cat_arbre.mp3,2020-06-09_14h08.42.784,TranslationElicitation_spa,3.2.4,Win32,60,5ede22ac2ec6380417664519,,,,,,,
,,,,,,,,,,,,,,,,,,,,,,,,,,,,,,,,,,,return,3.809999943,,FALSE,1,0,5,0,1,4,109,arbre,Catalan,Sounds/cat_arbre.mp3,2020-06-09_14h08.42.784,TranslationElicitation_spa,3.2.4,Win32,60,5ede22ac2ec6380417664519,3.809999943,,,,,,
,,,,,,,,,,,,,,,,,,,,,,,,,,,,,,,,,,,,,,,1,0,5,0,1,4,109,arbre,Catalan,Sounds/cat_arbre.mp3,2020-06-09_14h08.42.784,TranslationElicitation_spa,3.2.4,Win32,60,5ede22ac2ec6380417664519,,,,,,,
,,,,,,,,,,,,,,,,,,,,,,,,,,,,,,,,,,,p,2.111000061,P,FALSE,1,0,5,3,1,4,167,pingui,Catalan,Sounds/cat_pingui.mp3,2020-06-09_14h08.42.784,TranslationElicitation_spa,3.2.4,Win32,60,5ede22ac2ec6380417664519,,,,,,,
,,,,,,,,,,,,,,,,,,,,,,,,,,,,,,,,,,,i,2.327000141,PI,FALSE,1,0,5,3,1,4,167,pingui,Catalan,Sounds/cat_pingui.mp3,2020-06-09_14h08.42.784,TranslationElicitation_spa,3.2.4,Win32,60,5ede22ac2ec6380417664519,,,,,,,
,,,,,,,,,,,,,,,,,,,,,,,,,,,,,,,,,,,n,2.444000006,PIN,FALSE,1,0,5,3,1,4,167,pingui,Catalan,Sounds/cat_pingui.mp3,2020-06-09_14h08.42.784,TranslationElicitation_spa,3.2.4,Win32,60,5ede22ac2ec6380417664519,,,,,,,
,,,,,,,,,,,,,,,,,,,,,,,,,,,,,,,,,,,g,2.594000101,PING,FALSE,1,0,5,3,1,4,167,pingui,Catalan,Sounds/cat_pingui.mp3,2020-06-09_14h08.42.784,TranslationElicitation_spa,3.2.4,Win32,60,5ede22ac2ec6380417664519,,,,,,,
,,,,,,,,,,,,,,,,,,,,,,,,,,,,,,,,,,,u,2.677999973,PINGU,FALSE,1,0,5,3,1,4,167,pingui,Catalan,Sounds/cat_pingui.mp3,2020-06-09_14h08.42.784,TranslationElicitation_spa,3.2.4,Win32,60,5ede22ac2ec6380417664519,,,,,,,
,,,,,,,,,,,,,,,,,,,,,,,,,,,,,,,,,,,backspace,3.226999998,PIN,TRUE,1,0,5,3,1,4,167,pingui,Catalan,Sounds/cat_pingui.mp3,2020-06-09_14h08.42.784,TranslationElicitation_spa,3.2.4,Win32,60,5ede22ac2ec6380417664519,,,,,,,
,,,,,,,,,,,,,,,,,,,,,,,,,,,,,,,,,,,apostrophe,4.059999943,PIN,TRUE,1,0,5,3,1,4,167,pingui,Catalan,Sounds/cat_pingui.mp3,2020-06-09_14h08.42.784,TranslationElicitation_spa,3.2.4,Win32,60,5ede22ac2ec6380417664519,,,,,,,
,,,,,,,,,,,,,,,,,,,,,,,,,,,,,,,,,,,u,4.85800004,PINÚ,TRUE,1,0,5,3,1,4,167,pingui,Catalan,Sounds/cat_pingui.mp3,2020-06-09_14h08.42.784,TranslationElicitation_spa,3.2.4,Win32,60,5ede22ac2ec6380417664519,,,,,,,
,,,,,,,,,,,,,,,,,,,,,,,,,,,,,,,,,,,i,5.242000103,PINÚI,TRUE,1,0,5,3,1,4,167,pingui,Catalan,Sounds/cat_pingui.mp3,2020-06-09_14h08.42.784,TranslationElicitation_spa,3.2.4,Win32,60,5ede22ac2ec6380417664519,,,,,,,
,,,,,,,,,,,,,,,,,,,,,,,,,,,,,,,,,,,backspace,5.624000072,PIN,TRUE,1,0,5,3,1,4,167,pingui,Catalan,Sounds/cat_pingui.mp3,2020-06-09_14h08.42.784,TranslationElicitation_spa,3.2.4,Win32,60,5ede22ac2ec6380417664519,,,,,,,
,,,,,,,,,,,,,,,,,,,,,,,,,,,,,,,,,,,backspace,5.808000088,P,TRUE,1,0,5,3,1,4,167,pingui,Catalan,Sounds/cat_pingui.mp3,2020-06-09_14h08.42.784,TranslationElicitation_spa,3.2.4,Win32,60,5ede22ac2ec6380417664519,,,,,,,
,,,,,,,,,,,,,,,,,,,,,,,,,,,,,,,,,,,i,6.740999937,PI,TRUE,1,0,5,3,1,4,167,pingui,Catalan,Sounds/cat_pingui.mp3,2020-06-09_14h08.42.784,TranslationElicitation_spa,3.2.4,Win32,60,5ede22ac2ec6380417664519,,,,,,,
,,,,,,,,,,,,,,,,,,,,,,,,,,,,,,,,,,,n,6.839999914,PIN,TRUE,1,0,5,3,1,4,167,pingui,Catalan,Sounds/cat_pingui.mp3,2020-06-09_14h08.42.784,TranslationElicitation_spa,3.2.4,Win32,60,5ede22ac2ec6380417664519,,,,,,,
,,,,,,,,,,,,,,,,,,,,,,,,,,,,,,,,,,,apostrophe,8.736000061,PIN,TRUE,1,0,5,3,1,4,167,pingui,Catalan,Sounds/cat_pingui.mp3,2020-06-09_14h08.42.784,TranslationElicitation_spa,3.2.4,Win32,60,5ede22ac2ec6380417664519,,,,,,,
,,,,,,,,,,,,,,,,,,,,,,,,,,,,,,,,,,,u,9.387000084,PINÚ,TRUE,1,0,5,3,1,4,167,pingui,Catalan,Sounds/cat_pingui.mp3,2020-06-09_14h08.42.784,TranslationElicitation_spa,3.2.4,Win32,60,5ede22ac2ec6380417664519,,,,,,,
,,,,,,,,,,,,,,,,,,,,,,,,,,,,,,,,,,,backspace,10.91799998,PI,TRUE,1,0,5,3,1,4,167,pingui,Catalan,Sounds/cat_pingui.mp3,2020-06-09_14h08.42.784,TranslationElicitation_spa,3.2.4,Win32,60,5ede22ac2ec6380417664519,,,,,,,
,,,,,,,,,,,,,,,,,,,,,,,,,,,,,,,,,,,apostrophe,13.70000005,PI,TRUE,1,0,5,3,1,4,167,pingui,Catalan,Sounds/cat_pingui.mp3,2020-06-09_14h08.42.784,TranslationElicitation_spa,3.2.4,Win32,60,5ede22ac2ec6380417664519,,,,,,,
,,,,,,,,,,,,,,,,,,,,,,,,,,,,,,,,,,,u,14.38199997,PIÚ,TRUE,1,0,5,3,1,4,167,pingui,Catalan,Sounds/cat_pingui.mp3,2020-06-09_14h08.42.784,TranslationElicitation_spa,3.2.4,Win32,60,5ede22ac2ec6380417664519,,,,,,,
,,,,,,,,,,,,,,,,,,,,,,,,,,,,,,,,,,,backspace,15.24800014,P,TRUE,1,0,5,3,1,4,167,pingui,Catalan,Sounds/cat_pingui.mp3,2020-06-09_14h08.42.784,TranslationElicitation_spa,3.2.4,Win32,60,5ede22ac2ec6380417664519,,,,,,,
,,,,,,,,,,,,,,,,,,,,,,,,,,,,,,,,,,,apostrophe,16.61299992,P,TRUE,1,0,5,3,1,4,167,pingui,Catalan,Sounds/cat_pingui.mp3,2020-06-09_14h08.42.784,TranslationElicitation_spa,3.2.4,Win32,60,5ede22ac2ec6380417664519,,,,,,,
,,,,,,,,,,,,,,,,,,,,,,,,,,,,,,,,,,,u,17.14600015,PÚ,TRUE,1,0,5,3,1,4,167,pingui,Catalan,Sounds/cat_pingui.mp3,2020-06-09_14h08.42.784,TranslationElicitation_spa,3.2.4,Win32,60,5ede22ac2ec6380417664519,,,,,,,
,,,,,,,,,,,,,,,,,,,,,,,,,,,,,,,,,,,i,17.36299992,PÚI,TRUE,1,0,5,3,1,4,167,pingui,Catalan,Sounds/cat_pingui.mp3,2020-06-09_14h08.42.784,TranslationElicitation_spa,3.2.4,Win32,60,5ede22ac2ec6380417664519,,,,,,,
,,,,,,,,,,,,,,,,,,,,,,,,,,,,,,,,,,,n,17.52900004,PÚIN,TRUE,1,0,5,3,1,4,167,pingui,Catalan,Sounds/cat_pingui.mp3,2020-06-09_14h08.42.784,TranslationElicitation_spa,3.2.4,Win32,60,5ede22ac2ec6380417664519,,,,,,,
,,,,,,,,,,,,,,,,,,,,,,,,,,,,,,,,,,,backspace,17.86100006,PÚ,TRUE,1,0,5,3,1,4,167,pingui,Catalan,Sounds/cat_pingui.mp3,2020-06-09_14h08.42.784,TranslationElicitation_spa,3.2.4,Win32,60,5ede22ac2ec6380417664519,,,,,,,
,,,,,,,,,,,,,,,,,,,,,,,,,,,,,,,,,,,backspace,18.04500008,,TRUE,1,0,5,3,1,4,167,pingui,Catalan,Sounds/cat_pingui.mp3,2020-06-09_14h08.42.784,TranslationElicitation_spa,3.2.4,Win32,60,5ede22ac2ec6380417664519,,,,,,,
,,,,,,,,,,,,,,,,,,,,,,,,,,,,,,,,,,,p,19.41100001,P,TRUE,1,0,5,3,1,4,167,pingui,Catalan,Sounds/cat_pingui.mp3,2020-06-09_14h08.42.784,TranslationElicitation_spa,3.2.4,Win32,60,5ede22ac2ec6380417664519,,,,,,,
,,,,,,,,,,,,,,,,,,,,,,,,,,,,,,,,,,,i,19.71000004,PI,TRUE,1,0,5,3,1,4,167,pingui,Catalan,Sounds/cat_pingui.mp3,2020-06-09_14h08.42.784,TranslationElicitation_spa,3.2.4,Win32,60,5ede22ac2ec6380417664519,,,,,,,
,,,,,,,,,,,,,,,,,,,,,,,,,,,,,,,,,,,n,19.79400015,PIN,TRUE,1,0,5,3,1,4,167,pingui,Catalan,Sounds/cat_pingui.mp3,2020-06-09_14h08.42.784,TranslationElicitation_spa,3.2.4,Win32,60,5ede22ac2ec6380417664519,,,,,,,
,,,,,,,,,,,,,,,,,,,,,,,,,,,,,,,,,,,g,20.00999999,PING,TRUE,1,0,5,3,1,4,167,pingui,Catalan,Sounds/cat_pingui.mp3,2020-06-09_14h08.42.784,TranslationElicitation_spa,3.2.4,Win32,60,5ede22ac2ec6380417664519,,,,,,,
,,,,,,,,,,,,,,,,,,,,,,,,,,,,,,,,,,,u,20.14300013,PINGU,TRUE,1,0,5,3,1,4,167,pingui,Catalan,Sounds/cat_pingui.mp3,2020-06-09_14h08.42.784,TranslationElicitation_spa,3.2.4,Win32,60,5ede22ac2ec6380417664519,,,,,,,
,,,,,,,,,,,,,,,,,,,,,,,,,,,,,,,,,,,i,20.65899992,PINGUI,TRUE,1,0,5,3,1,4,167,pingui,Catalan,Sounds/cat_pingui.mp3,2020-06-09_14h08.42.784,TranslationElicitation_spa,3.2.4,Win32,60,5ede22ac2ec6380417664519,,,,,,,
,,,,,,,,,,,,,,,,,,,,,,,,,,,,,,,,,,,n,21.57500005,PINGUIN,TRUE,1,0,5,3,1,4,167,pingui,Catalan,Sounds/cat_pingui.mp3,2020-06-09_14h08.42.784,TranslationElicitation_spa,3.2.4,Win32,60,5ede22ac2ec6380417664519,,,,,,,
,,,,,,,,,,,,,,,,,,,,,,,,,,,,,,,,,,,o,21.69099998,PINGUINO,TRUE,1,0,5,3,1,4,167,pingui,Catalan,Sounds/cat_pingui.mp3,2020-06-09_14h08.42.784,TranslationElicitation_spa,3.2.4,Win32,60,5ede22ac2ec6380417664519,,,,,,,
,,,,,,,,,,,,,,,,,,,,,,,,,,,,,,,,,,,return,23.18900013,,TRUE,1,0,5,3,1,4,167,pingui,Catalan,Sounds/cat_pingui.mp3,2020-06-09_14h08.42.784,TranslationElicitation_spa,3.2.4,Win32,60,5ede22ac2ec6380417664519,23.18900013,,,,,,
,,,,,,,,,,,,,,,,,,,,,,,,,,,,,,,,,,,,,,,1,0,5,3,1,4,167,pingui,Catalan,Sounds/cat_pingui.mp3,2020-06-09_14h08.42.784,TranslationElicitation_spa,3.2.4,Win32,60,5ede22ac2ec6380417664519,,,,,,,
,,,,,,,,,,,,,,,,,,,,,,,,,,,,,,,,,,,g,1.728999853,G,FALSE,1,0,5,4,1,4,179,tigre,Catalan,Sounds/cat_tigre.mp3,2020-06-09_14h08.42.784,TranslationElicitation_spa,3.2.4,Win32,60,5ede22ac2ec6380417664519,,,,,,,
,,,,,,,,,,,,,,,,,,,,,,,,,,,,,,,,,,,backspace,2.09499979,,TRUE,1,0,5,4,1,4,179,tigre,Catalan,Sounds/cat_tigre.mp3,2020-06-09_14h08.42.784,TranslationElicitation_spa,3.2.4,Win32,60,5ede22ac2ec6380417664519,,,,,,,
,,,,,,,,,,,,,,,,,,,,,,,,,,,,,,,,,,,t,2.59499979,T,TRUE,1,0,5,4,1,4,179,tigre,Catalan,Sounds/cat_tigre.mp3,2020-06-09_14h08.42.784,TranslationElicitation_spa,3.2.4,Win32,60,5ede22ac2ec6380417664519,,,,,,,
,,,,,,,,,,,,,,,,,,,,,,,,,,,,,,,,,,,i,2.744999886,TI,TRUE,1,0,5,4,1,4,179,tigre,Catalan,Sounds/cat_tigre.mp3,2020-06-09_14h08.42.784,TranslationElicitation_spa,3.2.4,Win32,60,5ede22ac2ec6380417664519,,,,,,,
,,,,,,,,,,,,,,,,,,,,,,,,,,,,,,,,,,,g,2.960999966,TIG,TRUE,1,0,5,4,1,4,179,tigre,Catalan,Sounds/cat_tigre.mp3,2020-06-09_14h08.42.784,TranslationElicitation_spa,3.2.4,Win32,60,5ede22ac2ec6380417664519,,,,,,,
,,,,,,,,,,,,,,,,,,,,,,,,,,,,,,,,,,,r,3.159999847,TIGR,TRUE,1,0,5,4,1,4,179,tigre,Catalan,Sounds/cat_tigre.mp3,2020-06-09_14h08.42.784,TranslationElicitation_spa,3.2.4,Win32,60,5ede22ac2ec6380417664519,,,,,,,
,,,,,,,,,,,,,,,,,,,,,,,,,,,,,,,,,,,e,3.309999943,TIGRE,TRUE,1,0,5,4,1,4,179,tigre,Catalan,Sounds/cat_tigre.mp3,2020-06-09_14h08.42.784,TranslationElicitation_spa,3.2.4,Win32,60,5ede22ac2ec6380417664519,,,,,,,
,,,,,,,,,,,,,,,,,,,,,,,,,,,,,,,,,,,return,4.241999865,,TRUE,1,0,5,4,1,4,179,tigre,Catalan,Sounds/cat_tigre.mp3,2020-06-09_14h08.42.784,TranslationElicitation_spa,3.2.4,Win32,60,5ede22ac2ec6380417664519,4.241999865,,,,,,
,,,,,,,,,,,,,,,,,,,,,,,,,,,,,,,,,,,,,,,1,0,5,4,1,4,179,tigre,Catalan,Sounds/cat_tigre.mp3,2020-06-09_14h08.42.784,TranslationElicitation_spa,3.2.4,Win32,60,5ede22ac2ec6380417664519,,,,,,,
,,,,,,,,,,,,,,,,,,,,,,,,,,,,,,,,,,,h,1.411999941,H,FALSE,,,,,,,135,formiga,Catalan,Sounds/cat_formiga.mp3,2020-06-09_14h08.42.784,TranslationElicitation_spa,3.2.4,Win32,60,5ede22ac2ec6380417664519,,1,0,80,30,1,79
,,,,,,,,,,,,,,,,,,,,,,,,,,,,,,,,,,,o,1.562000036,HO,FALSE,,,,,,,135,formiga,Catalan,Sounds/cat_formiga.mp3,2020-06-09_14h08.42.784,TranslationElicitation_spa,3.2.4,Win32,60,5ede22ac2ec6380417664519,,1,0,80,30,1,79
,,,,,,,,,,,,,,,,,,,,,,,,,,,,,,,,,,,r,1.713000059,HOR,FALSE,,,,,,,135,formiga,Catalan,Sounds/cat_formiga.mp3,2020-06-09_14h08.42.784,TranslationElicitation_spa,3.2.4,Win32,60,5ede22ac2ec6380417664519,,1,0,80,30,1,79
,,,,,,,,,,,,,,,,,,,,,,,,,,,,,,,,,,,m,1.845999956,HORM,FALSE,,,,,,,135,formiga,Catalan,Sounds/cat_formiga.mp3,2020-06-09_14h08.42.784,TranslationElicitation_spa,3.2.4,Win32,60,5ede22ac2ec6380417664519,,1,0,80,30,1,79
,,,,,,,,,,,,,,,,,,,,,,,,,,,,,,,,,,,i,1.978999853,HORMI,FALSE,,,,,,,135,formiga,Catalan,Sounds/cat_formiga.mp3,2020-06-09_14h08.42.784,TranslationElicitation_spa,3.2.4,Win32,60,5ede22ac2ec6380417664519,,1,0,80,30,1,79
,,,,,,,,,,,,,,,,,,,,,,,,,,,,,,,,,,,g,2.228999853,HORMIG,FALSE,,,,,,,135,formiga,Catalan,Sounds/cat_formiga.mp3,2020-06-09_14h08.42.784,TranslationElicitation_spa,3.2.4,Win32,60,5ede22ac2ec6380417664519,,1,0,80,30,1,79
,,,,,,,,,,,,,,,,,,,,,,,,,,,,,,,,,,,a,2.427999973,HORMIGA,FALSE,,,,,,,135,formiga,Catalan,Sounds/cat_formiga.mp3,2020-06-09_14h08.42.784,TranslationElicitation_spa,3.2.4,Win32,60,5ede22ac2ec6380417664519,,1,0,80,30,1,79
,,,,,,,,,,,,,,,,,,,,,,,,,,,,,,,,,,,return,2.677999973,,FALSE,,,,,,,135,formiga,Catalan,Sounds/cat_formiga.mp3,2020-06-09_14h08.42.784,TranslationElicitation_spa,3.2.4,Win32,60,5ede22ac2ec6380417664519,2.677000046,1,0,80,30,1,79
,,,,,,,,,,,,,,,,,,,,,,,,,,,,,,,,,,,,,,,,,,,,,135,formiga,Catalan,Sounds/cat_formiga.mp3,2020-06-09_14h08.42.784,TranslationElicitation_spa,3.2.4,Win32,60,5ede22ac2ec6380417664519,,1,0,80,30,1,79
,,,,,,,,,,,,,,,,,,,,,,,,,,,,,,,,,,,j,5.075999975,J,FALSE,,,,,,,185,ulleres,Catalan,Sounds/cat_ulleres.mp3,2020-06-09_14h08.42.784,TranslationElicitation_spa,3.2.4,Win32,60,5ede22ac2ec6380417664519,,1,0,80,76,1,79
,,,,,,,,,,,,,,,,,,,,,,,,,,,,,,,,,,,o,5.424999952,JO,FALSE,,,,,,,185,ulleres,Catalan,Sounds/cat_ulleres.mp3,2020-06-09_14h08.42.784,TranslationElicitation_spa,3.2.4,Win32,60,5ede22ac2ec6380417664519,,1,0,80,76,1,79
,,,,,,,,,,,,,,,,,,,,,,,,,,,,,,,,,,,y,5.791999817,JOY,FALSE,,,,,,,185,ulleres,Catalan,Sounds/cat_ulleres.mp3,2020-06-09_14h08.42.784,TranslationElicitation_spa,3.2.4,Win32,60,5ede22ac2ec6380417664519,,1,0,80,76,1,79
,,,,,,,,,,,,,,,,,,,,,,,,,,,,,,,,,,,a,5.940999985,JOYA,FALSE,,,,,,,185,ulleres,Catalan,Sounds/cat_ulleres.mp3,2020-06-09_14h08.42.784,TranslationElicitation_spa,3.2.4,Win32,60,5ede22ac2ec6380417664519,,1,0,80,76,1,79
,,,,,,,,,,,,,,,,,,,,,,,,,,,,,,,,,,,s,6.107999802,JOYAS,FALSE,,,,,,,185,ulleres,Catalan,Sounds/cat_ulleres.mp3,2020-06-09_14h08.42.784,TranslationElicitation_spa,3.2.4,Win32,60,5ede22ac2ec6380417664519,,1,0,80,76,1,79
,,,,,,,,,,,,,,,,,,,,,,,,,,,,,,,,,,,return,7.006999969,,FALSE,,,,,,,185,ulleres,Catalan,Sounds/cat_ulleres.mp3,2020-06-09_14h08.42.784,TranslationElicitation_spa,3.2.4,Win32,60,5ede22ac2ec6380417664519,7.005999804,1,0,80,76,1,79
,,,,,,,,,,,,,,,,,,,,,,,,,,,,,,,,,,,,,,,,,,,,,185,ulleres,Catalan,Sounds/cat_ulleres.mp3,2020-06-09_14h08.42.784,TranslationElicitation_spa,3.2.4,Win32,60,5ede22ac2ec6380417664519,,1,0,80,76,1,79
,,,,,,,,,,,,,,,,,,,,,,,,,,,,,,,,,,,f,1.578999996,F,FALSE,,,,,,,134,flor,Catalan,Sounds/cat_flor.mp3,2020-06-09_14h08.42.784,TranslationElicitation_spa,3.2.4,Win32,60,5ede22ac2ec6380417664519,,1,0,80,29,1,79
,,,,,,,,,,,,,,,,,,,,,,,,,,,,,,,,,,,l,2.00999999,FL,FALSE,,,,,,,134,flor,Catalan,Sounds/cat_flor.mp3,2020-06-09_14h08.42.784,TranslationElicitation_spa,3.2.4,Win32,60,5ede22ac2ec6380417664519,,1,0,80,29,1,79
,,,,,,,,,,,,,,,,,,,,,,,,,,,,,,,,,,,o,2.195000172,FLO,FALSE,,,,,,,134,flor,Catalan,Sounds/cat_flor.mp3,2020-06-09_14h08.42.784,TranslationElicitation_spa,3.2.4,Win32,60,5ede22ac2ec6380417664519,,1,0,80,29,1,79
,,,,,,,,,,,,,,,,,,,,,,,,,,,,,,,,,,,r,2.278000116,FLOR,FALSE,,,,,,,134,flor,Catalan,Sounds/cat_flor.mp3,2020-06-09_14h08.42.784,TranslationElicitation_spa,3.2.4,Win32,60,5ede22ac2ec6380417664519,,1,0,80,29,1,79
,,,,,,,,,,,,,,,,,,,,,,,,,,,,,,,,,,,return,2.644000053,,FALSE,,,,,,,134,flor,Catalan,Sounds/cat_flor.mp3,2020-06-09_14h08.42.784,TranslationElicitation_spa,3.2.4,Win32,60,5ede22ac2ec6380417664519,2.644000053,1,0,80,29,1,79
,,,,,,,,,,,,,,,,,,,,,,,,,,,,,,,,,,,,,,,,,,,,,134,flor,Catalan,Sounds/cat_flor.mp3,2020-06-09_14h08.42.784,TranslationElicitation_spa,3.2.4,Win32,60,5ede22ac2ec6380417664519,,1,0,80,29,1,79
,,,,,,,,,,,,,,,,,,,,,,,,,,,,,,,,,,,p,2.211999893,P,FALSE,,,,,,,169,plat,Catalan,Sounds/cat_plat.mp3,2020-06-09_14h08.42.784,TranslationElicitation_spa,3.2.4,Win32,60,5ede22ac2ec6380417664519,,1,0,80,61,1,79
,,,,,,,,,,,,,,,,,,,,,,,,,,,,,,,,,,,a,2.328999996,PA,FALSE,,,,,,,169,plat,Catalan,Sounds/cat_plat.mp3,2020-06-09_14h08.42.784,TranslationElicitation_spa,3.2.4,Win32,60,5ede22ac2ec6380417664519,,1,0,80,61,1,79
,,,,,,,,,,,,,,,,,,,,,,,,,,,,,,,,,,,backspace,2.794999838,,TRUE,,,,,,,169,plat,Catalan,Sounds/cat_plat.mp3,2020-06-09_14h08.42.784,TranslationElicitation_spa,3.2.4,Win32,60,5ede22ac2ec6380417664519,,1,0,80,61,1,79
,,,,,,,,,,,,,,,,,,,,,,,,,,,,,,,,,,,l,3.027999878,L,TRUE,,,,,,,169,plat,Catalan,Sounds/cat_plat.mp3,2020-06-09_14h08.42.784,TranslationElicitation_spa,3.2.4,Win32,60,5ede22ac2ec6380417664519,,1,0,80,61,1,79
,,,,,,,,,,,,,,,,,,,,,,,,,,,,,,,,,,,a,3.15899992,LA,TRUE,,,,,,,169,plat,Catalan,Sounds/cat_plat.mp3,2020-06-09_14h08.42.784,TranslationElicitation_spa,3.2.4,Win32,60,5ede22ac2ec6380417664519,,1,0,80,61,1,79
,,,,,,,,,,,,,,,,,,,,,,,,,,,,,,,,,,,t,3.309999943,LAT,TRUE,,,,,,,169,plat,Catalan,Sounds/cat_plat.mp3,2020-06-09_14h08.42.784,TranslationElicitation_spa,3.2.4,Win32,60,5ede22ac2ec6380417664519,,1,0,80,61,1,79
,,,,,,,,,,,,,,,,,,,,,,,,,,,,,,,,,,,o,3.427000046,LATO,TRUE,,,,,,,169,plat,Catalan,Sounds/cat_plat.mp3,2020-06-09_14h08.42.784,TranslationElicitation_spa,3.2.4,Win32,60,5ede22ac2ec6380417664519,,1,0,80,61,1,79
,,,,,,,,,,,,,,,,,,,,,,,,,,,,,,,,,,,backspace,3.726999998,LA,TRUE,,,,,,,169,plat,Catalan,Sounds/cat_plat.mp3,2020-06-09_14h08.42.784,TranslationElicitation_spa,3.2.4,Win32,60,5ede22ac2ec6380417664519,,1,0,80,61,1,79
,,,,,,,,,,,,,,,,,,,,,,,,,,,,,,,,,,,backspace,3.876999855,,TRUE,,,,,,,169,plat,Catalan,Sounds/cat_plat.mp3,2020-06-09_14h08.42.784,TranslationElicitation_spa,3.2.4,Win32,60,5ede22ac2ec6380417664519,,1,0,80,61,1,79
,,,,,,,,,,,,,,,,,,,,,,,,,,,,,,,,,,,backspace,3.976999998,,TRUE,,,,,,,169,plat,Catalan,Sounds/cat_plat.mp3,2020-06-09_14h08.42.784,TranslationElicitation_spa,3.2.4,Win32,60,5ede22ac2ec6380417664519,,1,0,80,61,1,79
,,,,,,,,,,,,,,,,,,,,,,,,,,,,,,,,,,,backspace,4.092999935,,TRUE,,,,,,,169,plat,Catalan,Sounds/cat_plat.mp3,2020-06-09_14h08.42.784,TranslationElicitation_spa,3.2.4,Win32,60,5ede22ac2ec6380417664519,,1,0,80,61,1,79
,,,,,,,,,,,,,,,,,,,,,,,,,,,,,,,,,,,p,4.75999999,P,TRUE,,,,,,,169,plat,Catalan,Sounds/cat_plat.mp3,2020-06-09_14h08.42.784,TranslationElicitation_spa,3.2.4,Win32,60,5ede22ac2ec6380417664519,,1,0,80,61,1,79
,,,,,,,,,,,,,,,,,,,,,,,,,,,,,,,,,,,l,4.94299984,PL,TRUE,,,,,,,169,plat,Catalan,Sounds/cat_plat.mp3,2020-06-09_14h08.42.784,TranslationElicitation_spa,3.2.4,Win32,60,5ede22ac2ec6380417664519,,1,0,80,61,1,79
,,,,,,,,,,,,,,,,,,,,,,,,,,,,,,,,,,,a,5.075999975,PLA,TRUE,,,,,,,169,plat,Catalan,Sounds/cat_plat.mp3,2020-06-09_14h08.42.784,TranslationElicitation_spa,3.2.4,Win32,60,5ede22ac2ec6380417664519,,1,0,80,61,1,79
,,,,,,,,,,,,,,,,,,,,,,,,,,,,,,,,,,,t,5.309000015,PLAT,TRUE,,,,,,,169,plat,Catalan,Sounds/cat_plat.mp3,2020-06-09_14h08.42.784,TranslationElicitation_spa,3.2.4,Win32,60,5ede22ac2ec6380417664519,,1,0,80,61,1,79
,,,,,,,,,,,,,,,,,,,,,,,,,,,,,,,,,,,p,5.559000015,PLATP,TRUE,,,,,,,169,plat,Catalan,Sounds/cat_plat.mp3,2020-06-09_14h08.42.784,TranslationElicitation_spa,3.2.4,Win32,60,5ede22ac2ec6380417664519,,1,0,80,61,1,79
,,,,,,,,,,,,,,,,,,,,,,,,,,,,,,,,,,,backspace,6.391000032,PLA,TRUE,,,,,,,169,plat,Catalan,Sounds/cat_plat.mp3,2020-06-09_14h08.42.784,TranslationElicitation_spa,3.2.4,Win32,60,5ede22ac2ec6380417664519,,1,0,80,61,1,79
,,,,,,,,,,,,,,,,,,,,,,,,,,,,,,,,,,,o,6.773999929,PLAO,TRUE,,,,,,,169,plat,Catalan,Sounds/cat_plat.mp3,2020-06-09_14h08.42.784,TranslationElicitation_spa,3.2.4,Win32,60,5ede22ac2ec6380417664519,,1,0,80,61,1,79
,,,,,,,,,,,,,,,,,,,,,,,,,,,,,,,,,,,return,7.138999939,,TRUE,,,,,,,169,plat,Catalan,Sounds/cat_plat.mp3,2020-06-09_14h08.42.784,TranslationElicitation_spa,3.2.4,Win32,60,5ede22ac2ec6380417664519,7.138999939,1,0,80,61,1,79
,,,,,,,,,,,,,,,,,,,,,,,,,,,,,,,,,,,,,,,,,,,,,169,plat,Catalan,Sounds/cat_plat.mp3,2020-06-09_14h08.42.784,TranslationElicitation_spa,3.2.4,Win32,60,5ede22ac2ec6380417664519,,1,0,80,61,1,79
,,,,,,,,,,,,,,,,,,,,,,,,,,,,,,,,,,,b,3.361000061,B,FALSE,,,,,,,184,ull,Catalan,Sounds/cat_ull.mp3,2020-06-09_14h08.42.784,TranslationElicitation_spa,3.2.4,Win32,60,5ede22ac2ec6380417664519,,1,0,80,75,1,79
,,,,,,,,,,,,,,,,,,,,,,,,,,,,,,,,,,,a,3.444000006,BA,FALSE,,,,,,,184,ull,Catalan,Sounds/cat_ull.mp3,2020-06-09_14h08.42.784,TranslationElicitation_spa,3.2.4,Win32,60,5ede22ac2ec6380417664519,,1,0,80,75,1,79
,,,,,,,,,,,,,,,,,,,,,,,,,,,,,,,,,,,u,3.875999928,BAU,FALSE,,,,,,,184,ull,Catalan,Sounds/cat_ull.mp3,2020-06-09_14h08.42.784,TranslationElicitation_spa,3.2.4,Win32,60,5ede22ac2ec6380417664519,,1,0,80,75,1,79
,,,,,,,,,,,,,,,,,,,,,,,,,,,,,,,,,,,l,4.092999935,BAUL,FALSE,,,,,,,184,ull,Catalan,Sounds/cat_ull.mp3,2020-06-09_14h08.42.784,TranslationElicitation_spa,3.2.4,Win32,60,5ede22ac2ec6380417664519,,1,0,80,75,1,79
,,,,,,,,,,,,,,,,,,,,,,,,,,,,,,,,,,,return,4.924999952,,FALSE,,,,,,,184,ull,Catalan,Sounds/cat_ull.mp3,2020-06-09_14h08.42.784,TranslationElicitation_spa,3.2.4,Win32,60,5ede22ac2ec6380417664519,4.924999952,1,0,80,75,1,79
,,,,,,,,,,,,,,,,,,,,,,,,,,,,,,,,,,,,,,,,,,,,,184,ull,Catalan,Sounds/cat_ull.mp3,2020-06-09_14h08.42.784,TranslationElicitation_spa,3.2.4,Win32,60,5ede22ac2ec6380417664519,,1,0,80,75,1,79
,,,,,,,,,,,,,,,,,,,,,,,,,,,,,,,,,,,m,2.812000036,M,FALSE,,,,,,,157,mussol,Catalan,Sounds/cat_mussol.mp3,2020-06-09_14h08.42.784,TranslationElicitation_spa,3.2.4,Win32,60,5ede22ac2ec6380417664519,,1,0,80,51,1,79
,,,,,,,,,,,,,,,,,,,,,,,,,,,,,,,,,,,u,3.226999998,MU,FALSE,,,,,,,157,mussol,Catalan,Sounds/cat_mussol.mp3,2020-06-09_14h08.42.784,TranslationElicitation_spa,3.2.4,Win32,60,5ede22ac2ec6380417664519,,1,0,80,51,1,79
,,,,,,,,,,,,,,,,,,,,,,,,,,,,,,,,,,,s,3.411000013,MUS,FALSE,,,,,,,157,mussol,Catalan,Sounds/cat_mussol.mp3,2020-06-09_14h08.42.784,TranslationElicitation_spa,3.2.4,Win32,60,5ede22ac2ec6380417664519,,1,0,80,51,1,79
,,,,,,,,,,,,,,,,,,,,,,,,,,,,,,,,,,,e,3.693000078,MUSE,FALSE,,,,,,,157,mussol,Catalan,Sounds/cat_mussol.mp3,2020-06-09_14h08.42.784,TranslationElicitation_spa,3.2.4,Win32,60,5ede22ac2ec6380417664519,,1,0,80,51,1,79
,,,,,,,,,,,,,,,,,,,,,,,,,,,,,,,,,,,o,3.90899992,MUSEO,FALSE,,,,,,,157,mussol,Catalan,Sounds/cat_mussol.mp3,2020-06-09_14h08.42.784,TranslationElicitation_spa,3.2.4,Win32,60,5ede22ac2ec6380417664519,,1,0,80,51,1,79
,,,,,,,,,,,,,,,,,,,,,,,,,,,,,,,,,,,return,4.792000055,,FALSE,,,,,,,157,mussol,Catalan,Sounds/cat_mussol.mp3,2020-06-09_14h08.42.784,TranslationElicitation_spa,3.2.4,Win32,60,5ede22ac2ec6380417664519,4.790999889,1,0,80,51,1,79
,,,,,,,,,,,,,,,,,,,,,,,,,,,,,,,,,,,,,,,,,,,,,157,mussol,Catalan,Sounds/cat_mussol.mp3,2020-06-09_14h08.42.784,TranslationElicitation_spa,3.2.4,Win32,60,5ede22ac2ec6380417664519,,1,0,80,51,1,79
,,,,,,,,,,,,,,,,,,,,,,,,,,,,,,,,,,,l,1.880000114,L,FALSE,,,,,,,149,llibre,Catalan,Sounds/cat_llibre.mp3,2020-06-09_14h08.42.784,TranslationElicitation_spa,3.2.4,Win32,60,5ede22ac2ec6380417664519,,1,0,80,43,1,79
,,,,,,,,,,,,,,,,,,,,,,,,,,,,,,,,,,,i,2.111999989,LI,FALSE,,,,,,,149,llibre,Catalan,Sounds/cat_llibre.mp3,2020-06-09_14h08.42.784,TranslationElicitation_spa,3.2.4,Win32,60,5ede22ac2ec6380417664519,,1,0,80,43,1,79
,,,,,,,,,,,,,,,,,,,,,,,,,,,,,,,,,,,b,2.345000029,LIB,FALSE,,,,,,,149,llibre,Catalan,Sounds/cat_llibre.mp3,2020-06-09_14h08.42.784,TranslationElicitation_spa,3.2.4,Win32,60,5ede22ac2ec6380417664519,,1,0,80,43,1,79
,,,,,,,,,,,,,,,,,,,,,,,,,,,,,,,,,,,r,2.528000116,LIBR,FALSE,,,,,,,149,llibre,Catalan,Sounds/cat_llibre.mp3,2020-06-09_14h08.42.784,TranslationElicitation_spa,3.2.4,Win32,60,5ede22ac2ec6380417664519,,1,0,80,43,1,79
,,,,,,,,,,,,,,,,,,,,,,,,,,,,,,,,,,,o,2.694000006,LIBRO,FALSE,,,,,,,149,llibre,Catalan,Sounds/cat_llibre.mp3,2020-06-09_14h08.42.784,TranslationElicitation_spa,3.2.4,Win32,60,5ede22ac2ec6380417664519,,1,0,80,43,1,79
,,,,,,,,,,,,,,,,,,,,,,,,,,,,,,,,,,,return,3.443000078,,FALSE,,,,,,,149,llibre,Catalan,Sounds/cat_llibre.mp3,2020-06-09_14h08.42.784,TranslationElicitation_spa,3.2.4,Win32,60,5ede22ac2ec6380417664519,3.443000078,1,0,80,43,1,79
,,,,,,,,,,,,,,,,,,,,,,,,,,,,,,,,,,,,,,,,,,,,,149,llibre,Catalan,Sounds/cat_llibre.mp3,2020-06-09_14h08.42.784,TranslationElicitation_spa,3.2.4,Win32,60,5ede22ac2ec6380417664519,,1,0,80,43,1,79
,,,,,,,,,,,,,,,,,,,,,,,,,,,,,,,,,,,p,2.144999981,P,FALSE,,,,,,,166,peu,Catalan,Sounds/cat_peu.mp3,2020-06-09_14h08.42.784,TranslationElicitation_spa,3.2.4,Win32,60,5ede22ac2ec6380417664519,,1,0,80,59,1,79
,,,,,,,,,,,,,,,,,,,,,,,,,,,,,,,,,,,e,2.32799983,PE,FALSE,,,,,,,166,peu,Catalan,Sounds/cat_peu.mp3,2020-06-09_14h08.42.784,TranslationElicitation_spa,3.2.4,Win32,60,5ede22ac2ec6380417664519,,1,0,80,59,1,79
,,,,,,,,,,,,,,,,,,,,,,,,,,,,,,,,,,,r,2.444999933,PER,FALSE,,,,,,,166,peu,Catalan,Sounds/cat_peu.mp3,2020-06-09_14h08.42.784,TranslationElicitation_spa,3.2.4,Win32,60,5ede22ac2ec6380417664519,,1,0,80,59,1,79
,,,,,,,,,,,,,,,,,,,,,,,,,,,,,,,,,,,r,2.678999901,PERR,FALSE,,,,,,,166,peu,Catalan,Sounds/cat_peu.mp3,2020-06-09_14h08.42.784,TranslationElicitation_spa,3.2.4,Win32,60,5ede22ac2ec6380417664519,,1,0,80,59,1,79
,,,,,,,,,,,,,,,,,,,,,,,,,,,,,,,,,,,o,2.82799983,PERRO,FALSE,,,,,,,166,peu,Catalan,Sounds/cat_peu.mp3,2020-06-09_14h08.42.784,TranslationElicitation_spa,3.2.4,Win32,60,5ede22ac2ec6380417664519,,1,0,80,59,1,79
,,,,,,,,,,,,,,,,,,,,,,,,,,,,,,,,,,,return,3.609999895,,FALSE,,,,,,,166,peu,Catalan,Sounds/cat_peu.mp3,2020-06-09_14h08.42.784,TranslationElicitation_spa,3.2.4,Win32,60,5ede22ac2ec6380417664519,3.609999895,1,0,80,59,1,79
,,,,,,,,,,,,,,,,,,,,,,,,,,,,,,,,,,,,,,,,,,,,,166,peu,Catalan,Sounds/cat_peu.mp3,2020-06-09_14h08.42.784,TranslationElicitation_spa,3.2.4,Win32,60,5ede22ac2ec6380417664519,,1,0,80,59,1,79
,,,,,,,,,,,,,,,,,,,,,,,,,,,,,,,,,,,l,1.864000082,L,FALSE,,,,,,,151,lluna,Catalan,Sounds/cat_lluna.mp3,2020-06-09_14h08.42.784,TranslationElicitation_spa,3.2.4,Win32,60,5ede22ac2ec6380417664519,,1,0,80,45,1,79
,,,,,,,,,,,,,,,,,,,,,,,,,,,,,,,,,,,u,2.08100009,LU,FALSE,,,,,,,151,lluna,Catalan,Sounds/cat_lluna.mp3,2020-06-09_14h08.42.784,TranslationElicitation_spa,3.2.4,Win32,60,5ede22ac2ec6380417664519,,1,0,80,45,1,79
,,,,,,,,,,,,,,,,,,,,,,,,,,,,,,,,,,,n,2.248000145,LUN,FALSE,,,,,,,151,lluna,Catalan,Sounds/cat_lluna.mp3,2020-06-09_14h08.42.784,TranslationElicitation_spa,3.2.4,Win32,60,5ede22ac2ec6380417664519,,1,0,80,45,1,79
,,,,,,,,,,,,,,,,,,,,,,,,,,,,,,,,,,,a,2.414000034,LUNA,FALSE,,,,,,,151,lluna,Catalan,Sounds/cat_lluna.mp3,2020-06-09_14h08.42.784,TranslationElicitation_spa,3.2.4,Win32,60,5ede22ac2ec6380417664519,,1,0,80,45,1,79
,,,,,,,,,,,,,,,,,,,,,,,,,,,,,,,,,,,return,3.328000069,,FALSE,,,,,,,151,lluna,Catalan,Sounds/cat_lluna.mp3,2020-06-09_14h08.42.784,TranslationElicitation_spa,3.2.4,Win32,60,5ede22ac2ec6380417664519,3.328000069,1,0,80,45,1,79
,,,,,,,,,,,,,,,,,,,,,,,,,,,,,,,,,,,,,,,,,,,,,151,lluna,Catalan,Sounds/cat_lluna.mp3,2020-06-09_14h08.42.784,TranslationElicitation_spa,3.2.4,Win32,60,5ede22ac2ec6380417664519,,1,0,80,45,1,79
,,,,,,,,,,,,,,,,,,,,,,,,,,,,,,,,,,,t,1.462999821,T,FALSE,,,,,,,181,tobogan,Catalan,Sounds/cat_tobogan.mp3,2020-06-09_14h08.42.784,TranslationElicitation_spa,3.2.4,Win32,60,5ede22ac2ec6380417664519,,1,0,80,72,1,79
,,,,,,,,,,,,,,,,,,,,,,,,,,,,,,,,,,,o,1.579999924,TO,FALSE,,,,,,,181,tobogan,Catalan,Sounds/cat_tobogan.mp3,2020-06-09_14h08.42.784,TranslationElicitation_spa,3.2.4,Win32,60,5ede22ac2ec6380417664519,,1,0,80,72,1,79
,,,,,,,,,,,,,,,,,,,,,,,,,,,,,,,,,,,b,1.779999971,TOB,FALSE,,,,,,,181,tobogan,Catalan,Sounds/cat_tobogan.mp3,2020-06-09_14h08.42.784,TranslationElicitation_spa,3.2.4,Win32,60,5ede22ac2ec6380417664519,,1,0,80,72,1,79
,,,,,,,,,,,,,,,,,,,,,,,,,,,,,,,,,,,o,1.962999821,TOBO,FALSE,,,,,,,181,tobogan,Catalan,Sounds/cat_tobogan.mp3,2020-06-09_14h08.42.784,TranslationElicitation_spa,3.2.4,Win32,60,5ede22ac2ec6380417664519,,1,0,80,72,1,79
,,,,,,,,,,,,,,,,,,,,,,,,,,,,,,,,,,,g,2.595999956,TOBOG,FALSE,,,,,,,181,tobogan,Catalan,Sounds/cat_tobogan.mp3,2020-06-09_14h08.42.784,TranslationElicitation_spa,3.2.4,Win32,60,5ede22ac2ec6380417664519,,1,0,80,72,1,79
,,,,,,,,,,,,,,,,,,,,,,,,,,,,,,,,,,,apostrophe,3.111999989,TOBOG,FALSE,,,,,,,181,tobogan,Catalan,Sounds/cat_tobogan.mp3,2020-06-09_14h08.42.784,TranslationElicitation_spa,3.2.4,Win32,60,5ede22ac2ec6380417664519,,1,0,80,72,1,79
,,,,,,,,,,,,,,,,,,,,,,,,,,,,,,,,,,,a,3.227999926,TOBOGÁ,FALSE,,,,,,,181,tobogan,Catalan,Sounds/cat_tobogan.mp3,2020-06-09_14h08.42.784,TranslationElicitation_spa,3.2.4,Win32,60,5ede22ac2ec6380417664519,,1,0,80,72,1,79
,,,,,,,,,,,,,,,,,,,,,,,,,,,,,,,,,,,n,3.477999926,TOBOGÁN,FALSE,,,,,,,181,tobogan,Catalan,Sounds/cat_tobogan.mp3,2020-06-09_14h08.42.784,TranslationElicitation_spa,3.2.4,Win32,60,5ede22ac2ec6380417664519,,1,0,80,72,1,79
,,,,,,,,,,,,,,,,,,,,,,,,,,,,,,,,,,,return,3.859999895,,FALSE,,,,,,,181,tobogan,Catalan,Sounds/cat_tobogan.mp3,2020-06-09_14h08.42.784,TranslationElicitation_spa,3.2.4,Win32,60,5ede22ac2ec6380417664519,3.859999895,1,0,80,72,1,79
,,,,,,,,,,,,,,,,,,,,,,,,,,,,,,,,,,,,,,,,,,,,,181,tobogan,Catalan,Sounds/cat_tobogan.mp3,2020-06-09_14h08.42.784,TranslationElicitation_spa,3.2.4,Win32,60,5ede22ac2ec6380417664519,,1,0,80,72,1,79
,,,,,,,,,,,,,,,,,,,,,,,,,,,,,,,,,,,t,3.144999981,T,FALSE,,,,,,,182,tomaquet,Catalan,Sounds/cat_tomaquet.mp3,2020-06-09_14h08.42.784,TranslationElicitation_spa,3.2.4,Win32,60,5ede22ac2ec6380417664519,,1,0,80,73,1,79
,,,,,,,,,,,,,,,,,,,,,,,,,,,,,,,,,,,o,3.444000006,TO,FALSE,,,,,,,182,tomaquet,Catalan,Sounds/cat_tomaquet.mp3,2020-06-09_14h08.42.784,TranslationElicitation_spa,3.2.4,Win32,60,5ede22ac2ec6380417664519,,1,0,80,73,1,79
,,,,,,,,,,,,,,,,,,,,,,,,,,,,,,,,,,,m,3.595000029,TOM,FALSE,,,,,,,182,tomaquet,Catalan,Sounds/cat_tomaquet.mp3,2020-06-09_14h08.42.784,TranslationElicitation_spa,3.2.4,Win32,60,5ede22ac2ec6380417664519,,1,0,80,73,1,79
,,,,,,,,,,,,,,,,,,,,,,,,,,,,,,,,,,,a,3.710999966,TOMA,FALSE,,,,,,,182,tomaquet,Catalan,Sounds/cat_tomaquet.mp3,2020-06-09_14h08.42.784,TranslationElicitation_spa,3.2.4,Win32,60,5ede22ac2ec6380417664519,,1,0,80,73,1,79
,,,,,,,,,,,,,,,,,,,,,,,,,,,,,,,,,,,t,3.893000126,TOMAT,FALSE,,,,,,,182,tomaquet,Catalan,Sounds/cat_tomaquet.mp3,2020-06-09_14h08.42.784,TranslationElicitation_spa,3.2.4,Win32,60,5ede22ac2ec6380417664519,,1,0,80,73,1,79
,,,,,,,,,,,,,,,,,,,,,,,,,,,,,,,,,,,e,4.010999918,TOMATE,FALSE,,,,,,,182,tomaquet,Catalan,Sounds/cat_tomaquet.mp3,2020-06-09_14h08.42.784,TranslationElicitation_spa,3.2.4,Win32,60,5ede22ac2ec6380417664519,,1,0,80,73,1,79
,,,,,,,,,,,,,,,,,,,,,,,,,,,,,,,,,,,return,4.791000128,,FALSE,,,,,,,182,tomaquet,Catalan,Sounds/cat_tomaquet.mp3,2020-06-09_14h08.42.784,TranslationElicitation_spa,3.2.4,Win32,60,5ede22ac2ec6380417664519,4.791000128,1,0,80,73,1,79
,,,,,,,,,,,,,,,,,,,,,,,,,,,,,,,,,,,,,,,,,,,,,182,tomaquet,Catalan,Sounds/cat_tomaquet.mp3,2020-06-09_14h08.42.784,TranslationElicitation_spa,3.2.4,Win32,60,5ede22ac2ec6380417664519,,1,0,80,73,1,79
,,,,,,,,,,,,,,,,,,,,,,,,,,,,,,,,,,,p,2.628000021,P,FALSE,,,,,,,115,bolet,Catalan,Sounds/cat_bolet.mp3,2020-06-09_14h08.42.784,TranslationElicitation_spa,3.2.4,Win32,60,5ede22ac2ec6380417664519,,1,0,80,10,1,79
,,,,,,,,,,,,,,,,,,,,,,,,,,,,,,,,,,,o,2.845000029,PO,FALSE,,,,,,,115,bolet,Catalan,Sounds/cat_bolet.mp3,2020-06-09_14h08.42.784,TranslationElicitation_spa,3.2.4,Win32,60,5ede22ac2ec6380417664519,,1,0,80,10,1,79
,,,,,,,,,,,,,,,,,,,,,,,,,,,,,,,,,,,d,2.961000204,POD,FALSE,,,,,,,115,bolet,Catalan,Sounds/cat_bolet.mp3,2020-06-09_14h08.42.784,TranslationElicitation_spa,3.2.4,Win32,60,5ede22ac2ec6380417664519,,1,0,80,10,1,79
,,,,,,,,,,,,,,,,,,,,,,,,,,,,,,,,,,,e,3.044000149,PODE,FALSE,,,,,,,115,bolet,Catalan,Sounds/cat_bolet.mp3,2020-06-09_14h08.42.784,TranslationElicitation_spa,3.2.4,Win32,60,5ede22ac2ec6380417664519,,1,0,80,10,1,79
,,,,,,,,,,,,,,,,,,,,,,,,,,,,,,,,,,,r,3.226999998,PODER,FALSE,,,,,,,115,bolet,Catalan,Sounds/cat_bolet.mp3,2020-06-09_14h08.42.784,TranslationElicitation_spa,3.2.4,Win32,60,5ede22ac2ec6380417664519,,1,0,80,10,1,79
,,,,,,,,,,,,,,,,,,,,,,,,,,,,,,,,,,,return,3.743000031,,FALSE,,,,,,,115,bolet,Catalan,Sounds/cat_bolet.mp3,2020-06-09_14h08.42.784,TranslationElicitation_spa,3.2.4,Win32,60,5ede22ac2ec6380417664519,3.743000031,1,0,80,10,1,79
,,,,,,,,,,,,,,,,,,,,,,,,,,,,,,,,,,,,,,,,,,,,,115,bolet,Catalan,Sounds/cat_bolet.mp3,2020-06-09_14h08.42.784,TranslationElicitation_spa,3.2.4,Win32,60,5ede22ac2ec6380417664519,,1,0,80,10,1,79
,,,,,,,,,,,,,,,,,,,,,,,,,,,,,,,,,,,p,2.194999933,P,FALSE,,,,,,,117,boto,Catalan,Sounds/cat_boto.mp3,2020-06-09_14h08.42.784,TranslationElicitation_spa,3.2.4,Win32,60,5ede22ac2ec6380417664519,,1,0,80,12,1,79
,,,,,,,,,,,,,,,,,,,,,,,,,,,,,,,,,,,i,2.462000132,PI,FALSE,,,,,,,117,boto,Catalan,Sounds/cat_boto.mp3,2020-06-09_14h08.42.784,TranslationElicitation_spa,3.2.4,Win32,60,5ede22ac2ec6380417664519,,1,0,80,12,1,79
,,,,,,,,,,,,,,,,,,,,,,,,,,,,,,,,,,,backspace,2.809999943,,TRUE,,,,,,,117,boto,Catalan,Sounds/cat_boto.mp3,2020-06-09_14h08.42.784,TranslationElicitation_spa,3.2.4,Win32,60,5ede22ac2ec6380417664519,,1,0,80,12,1,79
,,,,,,,,,,,,,,,,,,,,,,,,,,,,,,,,,,,u,3.410000086,U,TRUE,,,,,,,117,boto,Catalan,Sounds/cat_boto.mp3,2020-06-09_14h08.42.784,TranslationElicitation_spa,3.2.4,Win32,60,5ede22ac2ec6380417664519,,1,0,80,12,1,79
,,,,,,,,,,,,,,,,,,,,,,,,,,,,,,,,,,,backspace,4.059000015,,TRUE,,,,,,,117,boto,Catalan,Sounds/cat_boto.mp3,2020-06-09_14h08.42.784,TranslationElicitation_spa,3.2.4,Win32,60,5ede22ac2ec6380417664519,,1,0,80,12,1,79
,,,,,,,,,,,,,,,,,,,,,,,,,,,,,,,,,,,p,4.84100008,P,TRUE,,,,,,,117,boto,Catalan,Sounds/cat_boto.mp3,2020-06-09_14h08.42.784,TranslationElicitation_spa,3.2.4,Win32,60,5ede22ac2ec6380417664519,,1,0,80,12,1,79
,,,,,,,,,,,,,,,,,,,,,,,,,,,,,,,,,,,u,5.192000151,PU,TRUE,,,,,,,117,boto,Catalan,Sounds/cat_boto.mp3,2020-06-09_14h08.42.784,TranslationElicitation_spa,3.2.4,Win32,60,5ede22ac2ec6380417664519,,1,0,80,12,1,79
,,,,,,,,,,,,,,,,,,,,,,,,,,,,,,,,,,,d,5.457999945,PUD,TRUE,,,,,,,117,boto,Catalan,Sounds/cat_boto.mp3,2020-06-09_14h08.42.784,TranslationElicitation_spa,3.2.4,Win32,60,5ede22ac2ec6380417664519,,1,0,80,12,1,79
,,,,,,,,,,,,,,,,,,,,,,,,,,,,,,,,,,,o,5.60800004,PUDO,TRUE,,,,,,,117,boto,Catalan,Sounds/cat_boto.mp3,2020-06-09_14h08.42.784,TranslationElicitation_spa,3.2.4,Win32,60,5ede22ac2ec6380417664519,,1,0,80,12,1,79
,,,,,,,,,,,,,,,,,,,,,,,,,,,,,,,,,,,return,6.30700016,,TRUE,,,,,,,117,boto,Catalan,Sounds/cat_boto.mp3,2020-06-09_14h08.42.784,TranslationElicitation_spa,3.2.4,Win32,60,5ede22ac2ec6380417664519,6.30700016,1,0,80,12,1,79
,,,,,,,,,,,,,,,,,,,,,,,,,,,,,,,,,,,,,,,,,,,,,117,boto,Catalan,Sounds/cat_boto.mp3,2020-06-09_14h08.42.784,TranslationElicitation_spa,3.2.4,Win32,60,5ede22ac2ec6380417664519,,1,0,80,12,1,79
,,,,,,,,,,,,,,,,,,,,,,,,,,,,,,,,,,,s,1.947000027,S,FALSE,,,,,,,177,sol,Catalan,Sounds/cat_sol.mp3,2020-06-09_14h08.42.784,TranslationElicitation_spa,3.2.4,Win32,60,5ede22ac2ec6380417664519,,1,0,80,69,1,79
,,,,,,,,,,,,,,,,,,,,,,,,,,,,,,,,,,,o,2.046999931,SO,FALSE,,,,,,,177,sol,Catalan,Sounds/cat_sol.mp3,2020-06-09_14h08.42.784,TranslationElicitation_spa,3.2.4,Win32,60,5ede22ac2ec6380417664519,,1,0,80,69,1,79
,,,,,,,,,,,,,,,,,,,,,,,,,,,,,,,,,,,l,2.230000019,SOL,FALSE,,,,,,,177,sol,Catalan,Sounds/cat_sol.mp3,2020-06-09_14h08.42.784,TranslationElicitation_spa,3.2.4,Win32,60,5ede22ac2ec6380417664519,,1,0,80,69,1,79
,,,,,,,,,,,,,,,,,,,,,,,,,,,,,,,,,,,return,2.460999966,,FALSE,,,,,,,177,sol,Catalan,Sounds/cat_sol.mp3,2020-06-09_14h08.42.784,TranslationElicitation_spa,3.2.4,Win32,60,5ede22ac2ec6380417664519,2.460999966,1,0,80,69,1,79
,,,,,,,,,,,,,,,,,,,,,,,,,,,,,,,,,,,,,,,,,,,,,177,sol,Catalan,Sounds/cat_sol.mp3,2020-06-09_14h08.42.784,TranslationElicitation_spa,3.2.4,Win32,60,5ede22ac2ec6380417664519,,1,0,80,69,1,79
,,,,,,,,,,,,,,,,,,,,,,,,,,,,,,,,,,,m,1.414999962,M,FALSE,,,,,,,155,moneda,Catalan,Sounds/cat_moneda.mp3,2020-06-09_14h08.42.784,TranslationElicitation_spa,3.2.4,Win32,60,5ede22ac2ec6380417664519,,1,0,80,49,1,79
,,,,,,,,,,,,,,,,,,,,,,,,,,,,,,,,,,,o,1.631000042,MO,FALSE,,,,,,,155,moneda,Catalan,Sounds/cat_moneda.mp3,2020-06-09_14h08.42.784,TranslationElicitation_spa,3.2.4,Win32,60,5ede22ac2ec6380417664519,,1,0,80,49,1,79
,,,,,,,,,,,,,,,,,,,,,,,,,,,,,,,,,,,n,1.81400013,MON,FALSE,,,,,,,155,moneda,Catalan,Sounds/cat_moneda.mp3,2020-06-09_14h08.42.784,TranslationElicitation_spa,3.2.4,Win32,60,5ede22ac2ec6380417664519,,1,0,80,49,1,79
,,,,,,,,,,,,,,,,,,,,,,,,,,,,,,,,,,,e,1.981000185,MONE,FALSE,,,,,,,155,moneda,Catalan,Sounds/cat_moneda.mp3,2020-06-09_14h08.42.784,TranslationElicitation_spa,3.2.4,Win32,60,5ede22ac2ec6380417664519,,1,0,80,49,1,79
,,,,,,,,,,,,,,,,,,,,,,,,,,,,,,,,,,,d,2.164000034,MONED,FALSE,,,,,,,155,moneda,Catalan,Sounds/cat_moneda.mp3,2020-06-09_14h08.42.784,TranslationElicitation_spa,3.2.4,Win32,60,5ede22ac2ec6380417664519,,1,0,80,49,1,79
,,,,,,,,,,,,,,,,,,,,,,,,,,,,,,,,,,,a,2.299999952,MONEDA,FALSE,,,,,,,155,moneda,Catalan,Sounds/cat_moneda.mp3,2020-06-09_14h08.42.784,TranslationElicitation_spa,3.2.4,Win32,60,5ede22ac2ec6380417664519,,1,0,80,49,1,79
,,,,,,,,,,,,,,,,,,,,,,,,,,,,,,,,,,,return,2.479000092,,FALSE,,,,,,,155,moneda,Catalan,Sounds/cat_moneda.mp3,2020-06-09_14h08.42.784,TranslationElicitation_spa,3.2.4,Win32,60,5ede22ac2ec6380417664519,2.479000092,1,0,80,49,1,79
,,,,,,,,,,,,,,,,,,,,,,,,,,,,,,,,,,,,,,,,,,,,,155,moneda,Catalan,Sounds/cat_moneda.mp3,2020-06-09_14h08.42.784,TranslationElicitation_spa,3.2.4,Win32,60,5ede22ac2ec6380417664519,,1,0,80,49,1,79
,,,,,,,,,,,,,,,,,,,,,,,,,,,,,,,,,,,g,1.529000044,G,FALSE,,,,,,,146,guitarra,Catalan,Sounds/cat_guitarra.mp3,2020-06-09_14h08.42.784,TranslationElicitation_spa,3.2.4,Win32,60,5ede22ac2ec6380417664519,,1,0,80,41,1,79
,,,,,,,,,,,,,,,,,,,,,,,,,,,,,,,,,,,u,1.661999941,GU,FALSE,,,,,,,146,guitarra,Catalan,Sounds/cat_guitarra.mp3,2020-06-09_14h08.42.784,TranslationElicitation_spa,3.2.4,Win32,60,5ede22ac2ec6380417664519,,1,0,80,41,1,79
,,,,,,,,,,,,,,,,,,,,,,,,,,,,,,,,,,,i,1.878999949,GUI,FALSE,,,,,,,146,guitarra,Catalan,Sounds/cat_guitarra.mp3,2020-06-09_14h08.42.784,TranslationElicitation_spa,3.2.4,Win32,60,5ede22ac2ec6380417664519,,1,0,80,41,1,79
,,,,,,,,,,,,,,,,,,,,,,,,,,,,,,,,,,,t,2.013000011,GUIT,FALSE,,,,,,,146,guitarra,Catalan,Sounds/cat_guitarra.mp3,2020-06-09_14h08.42.784,TranslationElicitation_spa,3.2.4,Win32,60,5ede22ac2ec6380417664519,,1,0,80,41,1,79
,,,,,,,,,,,,,,,,,,,,,,,,,,,,,,,,,,,a,2.261999846,GUITA,FALSE,,,,,,,146,guitarra,Catalan,Sounds/cat_guitarra.mp3,2020-06-09_14h08.42.784,TranslationElicitation_spa,3.2.4,Win32,60,5ede22ac2ec6380417664519,,1,0,80,41,1,79
,,,,,,,,,,,,,,,,,,,,,,,,,,,,,,,,,,,r,2.56099987,GUITAR,FALSE,,,,,,,146,guitarra,Catalan,Sounds/cat_guitarra.mp3,2020-06-09_14h08.42.784,TranslationElicitation_spa,3.2.4,Win32,60,5ede22ac2ec6380417664519,,1,0,80,41,1,79
,,,,,,,,,,,,,,,,,,,,,,,,,,,,,,,,,,,r,2.744999886,GUITARR,FALSE,,,,,,,146,guitarra,Catalan,Sounds/cat_guitarra.mp3,2020-06-09_14h08.42.784,TranslationElicitation_spa,3.2.4,Win32,60,5ede22ac2ec6380417664519,,1,0,80,41,1,79
,,,,,,,,,,,,,,,,,,,,,,,,,,,,,,,,,,,a,2.894000053,GUITARRA,FALSE,,,,,,,146,guitarra,Catalan,Sounds/cat_guitarra.mp3,2020-06-09_14h08.42.784,TranslationElicitation_spa,3.2.4,Win32,60,5ede22ac2ec6380417664519,,1,0,80,41,1,79
,,,,,,,,,,,,,,,,,,,,,,,,,,,,,,,,,,,return,3.109999895,,FALSE,,,,,,,146,guitarra,Catalan,Sounds/cat_guitarra.mp3,2020-06-09_14h08.42.784,TranslationElicitation_spa,3.2.4,Win32,60,5ede22ac2ec6380417664519,3.109999895,1,0,80,41,1,79
,,,,,,,,,,,,,,,,,,,,,,,,,,,,,,,,,,,,,,,,,,,,,146,guitarra,Catalan,Sounds/cat_guitarra.mp3,2020-06-09_14h08.42.784,TranslationElicitation_spa,3.2.4,Win32,60,5ede22ac2ec6380417664519,,1,0,80,41,1,79
,,,,,,,,,,,,,,,,,,,,,,,,,,,,,,,,,,,g,1.996000051,G,FALSE,,,,,,,143,globus,Catalan,Sounds/cat_globus.mp3,2020-06-09_14h08.42.784,TranslationElicitation_spa,3.2.4,Win32,60,5ede22ac2ec6380417664519,,1,0,80,38,1,79
,,,,,,,,,,,,,,,,,,,,,,,,,,,,,,,,,,,l,2.128999949,GL,FALSE,,,,,,,143,globus,Catalan,Sounds/cat_globus.mp3,2020-06-09_14h08.42.784,TranslationElicitation_spa,3.2.4,Win32,60,5ede22ac2ec6380417664519,,1,0,80,38,1,79
,,,,,,,,,,,,,,,,,,,,,,,,,,,,,,,,,,,o,2.296000004,GLO,FALSE,,,,,,,143,globus,Catalan,Sounds/cat_globus.mp3,2020-06-09_14h08.42.784,TranslationElicitation_spa,3.2.4,Win32,60,5ede22ac2ec6380417664519,,1,0,80,38,1,79
,,,,,,,,,,,,,,,,,,,,,,,,,,,,,,,,,,,v,2.445999861,GLOV,FALSE,,,,,,,143,globus,Catalan,Sounds/cat_globus.mp3,2020-06-09_14h08.42.784,TranslationElicitation_spa,3.2.4,Win32,60,5ede22ac2ec6380417664519,,1,0,80,38,1,79
,,,,,,,,,,,,,,,,,,,,,,,,,,,,,,,,,,,o,2.562999964,GLOVO,FALSE,,,,,,,143,globus,Catalan,Sounds/cat_globus.mp3,2020-06-09_14h08.42.784,TranslationElicitation_spa,3.2.4,Win32,60,5ede22ac2ec6380417664519,,1,0,80,38,1,79
,,,,,,,,,,,,,,,,,,,,,,,,,,,,,,,,,,,s,2.694999933,GLOVOS,FALSE,,,,,,,143,globus,Catalan,Sounds/cat_globus.mp3,2020-06-09_14h08.42.784,TranslationElicitation_spa,3.2.4,Win32,60,5ede22ac2ec6380417664519,,1,0,80,38,1,79
,,,,,,,,,,,,,,,,,,,,,,,,,,,,,,,,,,,backspace,3.427999973,GLOV,TRUE,,,,,,,143,globus,Catalan,Sounds/cat_globus.mp3,2020-06-09_14h08.42.784,TranslationElicitation_spa,3.2.4,Win32,60,5ede22ac2ec6380417664519,,1,0,80,38,1,79
,,,,,,,,,,,,,,,,,,,,,,,,,,,,,,,,,,,backspace,3.593999863,GL,TRUE,,,,,,,143,globus,Catalan,Sounds/cat_globus.mp3,2020-06-09_14h08.42.784,TranslationElicitation_spa,3.2.4,Win32,60,5ede22ac2ec6380417664519,,1,0,80,38,1,79
,,,,,,,,,,,,,,,,,,,,,,,,,,,,,,,,,,,backspace,3.777999878,,TRUE,,,,,,,143,globus,Catalan,Sounds/cat_globus.mp3,2020-06-09_14h08.42.784,TranslationElicitation_spa,3.2.4,Win32,60,5ede22ac2ec6380417664519,,1,0,80,38,1,79
,,,,,,,,,,,,,,,,,,,,,,,,,,,,,,,,,,,g,5.177000046,G,TRUE,,,,,,,143,globus,Catalan,Sounds/cat_globus.mp3,2020-06-09_14h08.42.784,TranslationElicitation_spa,3.2.4,Win32,60,5ede22ac2ec6380417664519,,1,0,80,38,1,79
,,,,,,,,,,,,,,,,,,,,,,,,,,,,,,,,,,,l,5.309000015,GL,TRUE,,,,,,,143,globus,Catalan,Sounds/cat_globus.mp3,2020-06-09_14h08.42.784,TranslationElicitation_spa,3.2.4,Win32,60,5ede22ac2ec6380417664519,,1,0,80,38,1,79
,,,,,,,,,,,,,,,,,,,,,,,,,,,,,,,,,,,o,5.443000078,GLO,TRUE,,,,,,,143,globus,Catalan,Sounds/cat_globus.mp3,2020-06-09_14h08.42.784,TranslationElicitation_spa,3.2.4,Win32,60,5ede22ac2ec6380417664519,,1,0,80,38,1,79
,,,,,,,,,,,,,,,,,,,,,,,,,,,,,,,,,,,b,6.009000063,GLOB,TRUE,,,,,,,143,globus,Catalan,Sounds/cat_globus.mp3,2020-06-09_14h08.42.784,TranslationElicitation_spa,3.2.4,Win32,60,5ede22ac2ec6380417664519,,1,0,80,38,1,79
,,,,,,,,,,,,,,,,,,,,,,,,,,,,,,,,,,,o,6.14199996,GLOBO,TRUE,,,,,,,143,globus,Catalan,Sounds/cat_globus.mp3,2020-06-09_14h08.42.784,TranslationElicitation_spa,3.2.4,Win32,60,5ede22ac2ec6380417664519,,1,0,80,38,1,79
,,,,,,,,,,,,,,,,,,,,,,,,,,,,,,,,,,,s,6.259000063,GLOBOS,TRUE,,,,,,,143,globus,Catalan,Sounds/cat_globus.mp3,2020-06-09_14h08.42.784,TranslationElicitation_spa,3.2.4,Win32,60,5ede22ac2ec6380417664519,,1,0,80,38,1,79
,,,,,,,,,,,,,,,,,,,,,,,,,,,,,,,,,,,return,6.723999977,,TRUE,,,,,,,143,globus,Catalan,Sounds/cat_globus.mp3,2020-06-09_14h08.42.784,TranslationElicitation_spa,3.2.4,Win32,60,5ede22ac2ec6380417664519,6.723999977,1,0,80,38,1,79
,,,,,,,,,,,,,,,,,,,,,,,,,,,,,,,,,,,,,,,,,,,,,143,globus,Catalan,Sounds/cat_globus.mp3,2020-06-09_14h08.42.784,TranslationElicitation_spa,3.2.4,Win32,60,5ede22ac2ec6380417664519,,1,0,80,38,1,79
,,,,,,,,,,,,,,,,,,,,,,,,,,,,,,,,,,,o,7.872999907,O,FALSE,,,,,,,160,orella,Catalan,Sounds/cat_orella.mp3,2020-06-09_14h08.42.784,TranslationElicitation_spa,3.2.4,Win32,60,5ede22ac2ec6380417664519,,1,0,80,53,1,79
,,,,,,,,,,,,,,,,,,,,,,,,,,,,,,,,,,,r,8.089999914,OR,FALSE,,,,,,,160,orella,Catalan,Sounds/cat_orella.mp3,2020-06-09_14h08.42.784,TranslationElicitation_spa,3.2.4,Win32,60,5ede22ac2ec6380417664519,,1,0,80,53,1,79
,,,,,,,,,,,,,,,,,,,,,,,,,,,,,,,,,,,i,8.223999977,ORI,FALSE,,,,,,,160,orella,Catalan,Sounds/cat_orella.mp3,2020-06-09_14h08.42.784,TranslationElicitation_spa,3.2.4,Win32,60,5ede22ac2ec6380417664519,,1,0,80,53,1,79
,,,,,,,,,,,,,,,,,,,,,,,,,,,,,,,,,,,l,8.422999859,ORIL,FALSE,,,,,,,160,orella,Catalan,Sounds/cat_orella.mp3,2020-06-09_14h08.42.784,TranslationElicitation_spa,3.2.4,Win32,60,5ede22ac2ec6380417664519,,1,0,80,53,1,79
,,,,,,,,,,,,,,,,,,,,,,,,,,,,,,,,,,,l,8.555999994,ORILL,FALSE,,,,,,,160,orella,Catalan,Sounds/cat_orella.mp3,2020-06-09_14h08.42.784,TranslationElicitation_spa,3.2.4,Win32,60,5ede22ac2ec6380417664519,,1,0,80,53,1,79
,,,,,,,,,,,,,,,,,,,,,,,,,,,,,,,,,,,a,8.705999851,ORILLA,FALSE,,,,,,,160,orella,Catalan,Sounds/cat_orella.mp3,2020-06-09_14h08.42.784,TranslationElicitation_spa,3.2.4,Win32,60,5ede22ac2ec6380417664519,,1,0,80,53,1,79
,,,,,,,,,,,,,,,,,,,,,,,,,,,,,,,,,,,return,8.854999781,,FALSE,,,,,,,160,orella,Catalan,Sounds/cat_orella.mp3,2020-06-09_14h08.42.784,TranslationElicitation_spa,3.2.4,Win32,60,5ede22ac2ec6380417664519,8.854999781,1,0,80,53,1,79
,,,,,,,,,,,,,,,,,,,,,,,,,,,,,,,,,,,,,,,,,,,,,160,orella,Catalan,Sounds/cat_orella.mp3,2020-06-09_14h08.42.784,TranslationElicitation_spa,3.2.4,Win32,60,5ede22ac2ec6380417664519,,1,0,80,53,1,79
,,,,,,,,,,,,,,,,,,,,,,,,,,,,,,,,,,,l,4.82400012,L,FALSE,,,,,,,148,lleo,Catalan,Sounds/cat_lleo.mp3,2020-06-09_14h08.42.784,TranslationElicitation_spa,3.2.4,Win32,60,5ede22ac2ec6380417664519,,1,0,80,42,1,79
,,,,,,,,,,,,,,,,,,,,,,,,,,,,,,,,,,,l,4.95600009,LL,FALSE,,,,,,,148,lleo,Catalan,Sounds/cat_lleo.mp3,2020-06-09_14h08.42.784,TranslationElicitation_spa,3.2.4,Win32,60,5ede22ac2ec6380417664519,,1,0,80,42,1,79
,,,,,,,,,,,,,,,,,,,,,,,,,,,,,,,,,,,e,5.22300005,LLE,FALSE,,,,,,,148,lleo,Catalan,Sounds/cat_lleo.mp3,2020-06-09_14h08.42.784,TranslationElicitation_spa,3.2.4,Win32,60,5ede22ac2ec6380417664519,,1,0,80,42,1,79
,,,,,,,,,,,,,,,,,,,,,,,,,,,,,,,,,,,g,5.423000097,LLEG,FALSE,,,,,,,148,lleo,Catalan,Sounds/cat_lleo.mp3,2020-06-09_14h08.42.784,TranslationElicitation_spa,3.2.4,Win32,60,5ede22ac2ec6380417664519,,1,0,80,42,1,79
,,,,,,,,,,,,,,,,,,,,,,,,,,,,,,,,,,,o,5.70600009,LLEGO,FALSE,,,,,,,148,lleo,Catalan,Sounds/cat_lleo.mp3,2020-06-09_14h08.42.784,TranslationElicitation_spa,3.2.4,Win32,60,5ede22ac2ec6380417664519,,1,0,80,42,1,79
,,,,,,,,,,,,,,,,,,,,,,,,,,,,,,,,,,,return,6.887000084,,FALSE,,,,,,,148,lleo,Catalan,Sounds/cat_lleo.mp3,2020-06-09_14h08.42.784,TranslationElicitation_spa,3.2.4,Win32,60,5ede22ac2ec6380417664519,6.887000084,1,0,80,42,1,79
,,,,,,,,,,,,,,,,,,,,,,,,,,,,,,,,,,,,,,,,,,,,,148,lleo,Catalan,Sounds/cat_lleo.mp3,2020-06-09_14h08.42.784,TranslationElicitation_spa,3.2.4,Win32,60,5ede22ac2ec6380417664519,,1,0,80,42,1,79
,,,,,,,,,,,,,,,,,,,,,,,,,,,,,,,,,,,p,1.610000134,P,FALSE,,,,,,,174,porta,Catalan,Sounds/cat_porta.mp3,2020-06-09_14h08.42.784,TranslationElicitation_spa,3.2.4,Win32,60,5ede22ac2ec6380417664519,,1,0,80,66,1,79
,,,,,,,,,,,,,,,,,,,,,,,,,,,,,,,,,,,u,1.927000046,PU,FALSE,,,,,,,174,porta,Catalan,Sounds/cat_porta.mp3,2020-06-09_14h08.42.784,TranslationElicitation_spa,3.2.4,Win32,60,5ede22ac2ec6380417664519,,1,0,80,66,1,79
,,,,,,,,,,,,,,,,,,,,,,,,,,,,,,,,,,,e,2.02699995,PUE,FALSE,,,,,,,174,porta,Catalan,Sounds/cat_porta.mp3,2020-06-09_14h08.42.784,TranslationElicitation_spa,3.2.4,Win32,60,5ede22ac2ec6380417664519,,1,0,80,66,1,79
,,,,,,,,,,,,,,,,,,,,,,,,,,,,,,,,,,,r,2.177000046,PUER,FALSE,,,,,,,174,porta,Catalan,Sounds/cat_porta.mp3,2020-06-09_14h08.42.784,TranslationElicitation_spa,3.2.4,Win32,60,5ede22ac2ec6380417664519,,1,0,80,66,1,79
,,,,,,,,,,,,,,,,,,,,,,,,,,,,,,,,,,,t,2.377000093,PUERT,FALSE,,,,,,,174,porta,Catalan,Sounds/cat_porta.mp3,2020-06-09_14h08.42.784,TranslationElicitation_spa,3.2.4,Win32,60,5ede22ac2ec6380417664519,,1,0,80,66,1,79
,,,,,,,,,,,,,,,,,,,,,,,,,,,,,,,,,,,a,2.460000038,PUERTA,FALSE,,,,,,,174,porta,Catalan,Sounds/cat_porta.mp3,2020-06-09_14h08.42.784,TranslationElicitation_spa,3.2.4,Win32,60,5ede22ac2ec6380417664519,,1,0,80,66,1,79
,,,,,,,,,,,,,,,,,,,,,,,,,,,,,,,,,,,return,2.674999952,,FALSE,,,,,,,174,porta,Catalan,Sounds/cat_porta.mp3,2020-06-09_14h08.42.784,TranslationElicitation_spa,3.2.4,Win32,60,5ede22ac2ec6380417664519,2.674999952,1,0,80,66,1,79
,,,,,,,,,,,,,,,,,,,,,,,,,,,,,,,,,,,,,,,,,,,,,174,porta,Catalan,Sounds/cat_porta.mp3,2020-06-09_14h08.42.784,TranslationElicitation_spa,3.2.4,Win32,60,5ede22ac2ec6380417664519,,1,0,80,66,1,79
,,,,,,,,,,,,,,,,,,,,,,,,,,,,,,,,,,,e,3.194999933,E,FALSE,,,,,,,171,pollastre,Catalan,Sounds/cat_pollastre.mp3,2020-06-09_14h08.42.784,TranslationElicitation_spa,3.2.4,Win32,60,5ede22ac2ec6380417664519,,1,0,80,63,1,79
,,,,,,,,,,,,,,,,,,,,,,,,,,,,,,,,,,,n,3.378000021,EN,FALSE,,,,,,,171,pollastre,Catalan,Sounds/cat_pollastre.mp3,2020-06-09_14h08.42.784,TranslationElicitation_spa,3.2.4,Win32,60,5ede22ac2ec6380417664519,,1,0,80,63,1,79
,,,,,,,,,,,,,,,,,,,,,,,,,,,,,,,,,,,backspace,3.894000053,,TRUE,,,,,,,171,pollastre,Catalan,Sounds/cat_pollastre.mp3,2020-06-09_14h08.42.784,TranslationElicitation_spa,3.2.4,Win32,60,5ede22ac2ec6380417664519,,1,0,80,63,1,79
,,,,,,,,,,,,,,,,,,,,,,,,,,,,,,,,,,,backspace,4.04399991,,TRUE,,,,,,,171,pollastre,Catalan,Sounds/cat_pollastre.mp3,2020-06-09_14h08.42.784,TranslationElicitation_spa,3.2.4,Win32,60,5ede22ac2ec6380417664519,,1,0,80,63,1,79
,,,,,,,,,,,,,,,,,,,,,,,,,,,,,,,,,,,m,5.00999999,M,TRUE,,,,,,,171,pollastre,Catalan,Sounds/cat_pollastre.mp3,2020-06-09_14h08.42.784,TranslationElicitation_spa,3.2.4,Win32,60,5ede22ac2ec6380417664519,,1,0,80,63,1,79
,,,,,,,,,,,,,,,,,,,,,,,,,,,,,,,,,,,e,5.17599988,ME,TRUE,,,,,,,171,pollastre,Catalan,Sounds/cat_pollastre.mp3,2020-06-09_14h08.42.784,TranslationElicitation_spa,3.2.4,Win32,60,5ede22ac2ec6380417664519,,1,0,80,63,1,79
,,,,,,,,,,,,,,,,,,,,,,,,,,,,,,,,,,,s,5.342999935,MES,TRUE,,,,,,,171,pollastre,Catalan,Sounds/cat_pollastre.mp3,2020-06-09_14h08.42.784,TranslationElicitation_spa,3.2.4,Win32,60,5ede22ac2ec6380417664519,,1,0,80,63,1,79
,,,,,,,,,,,,,,,,,,,,,,,,,,,,,,,,,,,a,5.443000078,MESA,TRUE,,,,,,,171,pollastre,Catalan,Sounds/cat_pollastre.mp3,2020-06-09_14h08.42.784,TranslationElicitation_spa,3.2.4,Win32,60,5ede22ac2ec6380417664519,,1,0,80,63,1,79
,,,,,,,,,,,,,,,,,,,,,,,,,,,,,,,,,,,return,5.674999952,,TRUE,,,,,,,171,pollastre,Catalan,Sounds/cat_pollastre.mp3,2020-06-09_14h08.42.784,TranslationElicitation_spa,3.2.4,Win32,60,5ede22ac2ec6380417664519,5.674999952,1,0,80,63,1,79
,,,,,,,,,,,,,,,,,,,,,,,,,,,,,,,,,,,,,,,,,,,,,171,pollastre,Catalan,Sounds/cat_pollastre.mp3,2020-06-09_14h08.42.784,TranslationElicitation_spa,3.2.4,Win32,60,5ede22ac2ec6380417664519,,1,0,80,63,1,79
,,,,,,,,,,,,,,,,,,,,,,,,,,,,,,,,,,,c,4.311000109,C,FALSE,,,,,,,138,galeta,Catalan,Sounds/cat_galeta.mp3,2020-06-09_14h08.42.784,TranslationElicitation_spa,3.2.4,Win32,60,5ede22ac2ec6380417664519,,1,0,80,33,1,79
,,,,,,,,,,,,,,,,,,,,,,,,,,,,,,,,,,,a,4.427000046,CA,FALSE,,,,,,,138,galeta,Catalan,Sounds/cat_galeta.mp3,2020-06-09_14h08.42.784,TranslationElicitation_spa,3.2.4,Win32,60,5ede22ac2ec6380417664519,,1,0,80,33,1,79
,,,,,,,,,,,,,,,,,,,,,,,,,,,,,,,,,,,l,4.594000101,CAL,FALSE,,,,,,,138,galeta,Catalan,Sounds/cat_galeta.mp3,2020-06-09_14h08.42.784,TranslationElicitation_spa,3.2.4,Win32,60,5ede22ac2ec6380417664519,,1,0,80,33,1,79
,,,,,,,,,,,,,,,,,,,,,,,,,,,,,,,,,,,a,4.695000172,CALA,FALSE,,,,,,,138,galeta,Catalan,Sounds/cat_galeta.mp3,2020-06-09_14h08.42.784,TranslationElicitation_spa,3.2.4,Win32,60,5ede22ac2ec6380417664519,,1,0,80,33,1,79
,,,,,,,,,,,,,,,,,,,,,,,,,,,,,,,,,,,return,4.893000126,,FALSE,,,,,,,138,galeta,Catalan,Sounds/cat_galeta.mp3,2020-06-09_14h08.42.784,TranslationElicitation_spa,3.2.4,Win32,60,5ede22ac2ec6380417664519,4.893000126,1,0,80,33,1,79
,,,,,,,,,,,,,,,,,,,,,,,,,,,,,,,,,,,,,,,,,,,,,138,galeta,Catalan,Sounds/cat_galeta.mp3,2020-06-09_14h08.42.784,TranslationElicitation_spa,3.2.4,Win32,60,5ede22ac2ec6380417664519,,1,0,80,33,1,79
,,,,,,,,,,,,,,,,,,,,,,,,,,,,,,,,,,,t,1.711999893,T,FALSE,,,,,,,178,taronja,Catalan,Sounds/cat_taronja.mp3,2020-06-09_14h08.42.784,TranslationElicitation_spa,3.2.4,Win32,60,5ede22ac2ec6380417664519,,1,0,80,70,1,79
,,,,,,,,,,,,,,,,,,,,,,,,,,,,,,,,,,,r,1.911000013,TR,FALSE,,,,,,,178,taronja,Catalan,Sounds/cat_taronja.mp3,2020-06-09_14h08.42.784,TranslationElicitation_spa,3.2.4,Win32,60,5ede22ac2ec6380417664519,,1,0,80,70,1,79
,,,,,,,,,,,,,,,,,,,,,,,,,,,,,,,,,,,a,2.128000021,TRA,FALSE,,,,,,,178,taronja,Catalan,Sounds/cat_taronja.mp3,2020-06-09_14h08.42.784,TranslationElicitation_spa,3.2.4,Win32,60,5ede22ac2ec6380417664519,,1,0,80,70,1,79
,,,,,,,,,,,,,,,,,,,,,,,,,,,,,,,,,,,n,2.427000046,TRAN,FALSE,,,,,,,178,taronja,Catalan,Sounds/cat_taronja.mp3,2020-06-09_14h08.42.784,TranslationElicitation_spa,3.2.4,Win32,60,5ede22ac2ec6380417664519,,1,0,80,70,1,79
,,,,,,,,,,,,,,,,,,,,,,,,,,,,,,,,,,,c,3.126999855,TRANC,FALSE,,,,,,,178,taronja,Catalan,Sounds/cat_taronja.mp3,2020-06-09_14h08.42.784,TranslationElicitation_spa,3.2.4,Win32,60,5ede22ac2ec6380417664519,,1,0,80,70,1,79
,,,,,,,,,,,,,,,,,,,,,,,,,,,,,,,,,,,h,3.361000061,TRANCH,FALSE,,,,,,,178,taronja,Catalan,Sounds/cat_taronja.mp3,2020-06-09_14h08.42.784,TranslationElicitation_spa,3.2.4,Win32,60,5ede22ac2ec6380417664519,,1,0,80,70,1,79
,,,,,,,,,,,,,,,,,,,,,,,,,,,,,,,,,,,a,3.509000063,TRANCHA,FALSE,,,,,,,178,taronja,Catalan,Sounds/cat_taronja.mp3,2020-06-09_14h08.42.784,TranslationElicitation_spa,3.2.4,Win32,60,5ede22ac2ec6380417664519,,1,0,80,70,1,79
,,,,,,,,,,,,,,,,,,,,,,,,,,,,,,,,,,,backspace,5.558000088,TRANC,TRUE,,,,,,,178,taronja,Catalan,Sounds/cat_taronja.mp3,2020-06-09_14h08.42.784,TranslationElicitation_spa,3.2.4,Win32,60,5ede22ac2ec6380417664519,,1,0,80,70,1,79
,,,,,,,,,,,,,,,,,,,,,,,,,,,,,,,,,,,backspace,5.790999889,TRA,TRUE,,,,,,,178,taronja,Catalan,Sounds/cat_taronja.mp3,2020-06-09_14h08.42.784,TranslationElicitation_spa,3.2.4,Win32,60,5ede22ac2ec6380417664519,,1,0,80,70,1,79
,,,,,,,,,,,,,,,,,,,,,,,,,,,,,,,,,,,backspace,6.74000001,T,TRUE,,,,,,,178,taronja,Catalan,Sounds/cat_taronja.mp3,2020-06-09_14h08.42.784,TranslationElicitation_spa,3.2.4,Win32,60,5ede22ac2ec6380417664519,,1,0,80,70,1,79
,,,,,,,,,,,,,,,,,,,,,,,,,,,,,,,,,,,backspace,7.273000002,,TRUE,,,,,,,178,taronja,Catalan,Sounds/cat_taronja.mp3,2020-06-09_14h08.42.784,TranslationElicitation_spa,3.2.4,Win32,60,5ede22ac2ec6380417664519,,1,0,80,70,1,79
,,,,,,,,,,,,,,,,,,,,,,,,,,,,,,,,,,,t,9.569999933,T,TRUE,,,,,,,178,taronja,Catalan,Sounds/cat_taronja.mp3,2020-06-09_14h08.42.784,TranslationElicitation_spa,3.2.4,Win32,60,5ede22ac2ec6380417664519,,1,0,80,70,1,79
,,,,,,,,,,,,,,,,,,,,,,,,,,,,,,,,,,,r,9.787999868,TR,TRUE,,,,,,,178,taronja,Catalan,Sounds/cat_taronja.mp3,2020-06-09_14h08.42.784,TranslationElicitation_spa,3.2.4,Win32,60,5ede22ac2ec6380417664519,,1,0,80,70,1,79
,,,,,,,,,,,,,,,,,,,,,,,,,,,,,,,,,,,a,9.869999886,TRA,TRUE,,,,,,,178,taronja,Catalan,Sounds/cat_taronja.mp3,2020-06-09_14h08.42.784,TranslationElicitation_spa,3.2.4,Win32,60,5ede22ac2ec6380417664519,,1,0,80,70,1,79
,,,,,,,,,,,,,,,,,,,,,,,,,,,,,,,,,,,n,10.11999989,TRAN,TRUE,,,,,,,178,taronja,Catalan,Sounds/cat_taronja.mp3,2020-06-09_14h08.42.784,TranslationElicitation_spa,3.2.4,Win32,60,5ede22ac2ec6380417664519,,1,0,80,70,1,79
,,,,,,,,,,,,,,,,,,,,,,,,,,,,,,,,,,,c,10.25300002,TRANC,TRUE,,,,,,,178,taronja,Catalan,Sounds/cat_taronja.mp3,2020-06-09_14h08.42.784,TranslationElicitation_spa,3.2.4,Win32,60,5ede22ac2ec6380417664519,,1,0,80,70,1,79
,,,,,,,,,,,,,,,,,,,,,,,,,,,,,,,,,,,a,10.38599992,TRANCA,TRUE,,,,,,,178,taronja,Catalan,Sounds/cat_taronja.mp3,2020-06-09_14h08.42.784,TranslationElicitation_spa,3.2.4,Win32,60,5ede22ac2ec6380417664519,,1,0,80,70,1,79
,,,,,,,,,,,,,,,,,,,,,,,,,,,,,,,,,,,return,10.58599997,,TRUE,,,,,,,178,taronja,Catalan,Sounds/cat_taronja.mp3,2020-06-09_14h08.42.784,TranslationElicitation_spa,3.2.4,Win32,60,5ede22ac2ec6380417664519,10.58599997,1,0,80,70,1,79
,,,,,,,,,,,,,,,,,,,,,,,,,,,,,,,,,,,,,,,,,,,,,178,taronja,Catalan,Sounds/cat_taronja.mp3,2020-06-09_14h08.42.784,TranslationElicitation_spa,3.2.4,Win32,60,5ede22ac2ec6380417664519,,1,0,80,70,1,79
,,,,,,,,,,,,,,,,,,,,,,,,,,,,,,,,,,,c,1.561999798,C,FALSE,,,,,,,127,cotxe,Catalan,Sounds/cat_cotxe.mp3,2020-06-09_14h08.42.784,TranslationElicitation_spa,3.2.4,Win32,60,5ede22ac2ec6380417664519,,1,0,80,22,1,79
,,,,,,,,,,,,,,,,,,,,,,,,,,,,,,,,,,,o,1.728999853,CO,FALSE,,,,,,,127,cotxe,Catalan,Sounds/cat_cotxe.mp3,2020-06-09_14h08.42.784,TranslationElicitation_spa,3.2.4,Win32,60,5ede22ac2ec6380417664519,,1,0,80,22,1,79
,,,,,,,,,,,,,,,,,,,,,,,,,,,,,,,,,,,c,1.945999861,COC,FALSE,,,,,,,127,cotxe,Catalan,Sounds/cat_cotxe.mp3,2020-06-09_14h08.42.784,TranslationElicitation_spa,3.2.4,Win32,60,5ede22ac2ec6380417664519,,1,0,80,22,1,79
,,,,,,,,,,,,,,,,,,,,,,,,,,,,,,,,,,,h,2.078999996,COCH,FALSE,,,,,,,127,cotxe,Catalan,Sounds/cat_cotxe.mp3,2020-06-09_14h08.42.784,TranslationElicitation_spa,3.2.4,Win32,60,5ede22ac2ec6380417664519,,1,0,80,22,1,79
,,,,,,,,,,,,,,,,,,,,,,,,,,,,,,,,,,,e,2.212999821,COCHE,FALSE,,,,,,,127,cotxe,Catalan,Sounds/cat_cotxe.mp3,2020-06-09_14h08.42.784,TranslationElicitation_spa,3.2.4,Win32,60,5ede22ac2ec6380417664519,,1,0,80,22,1,79
,,,,,,,,,,,,,,,,,,,,,,,,,,,,,,,,,,,return,2.609999895,,FALSE,,,,,,,127,cotxe,Catalan,Sounds/cat_cotxe.mp3,2020-06-09_14h08.42.784,TranslationElicitation_spa,3.2.4,Win32,60,5ede22ac2ec6380417664519,2.609999895,1,0,80,22,1,79
,,,,,,,,,,,,,,,,,,,,,,,,,,,,,,,,,,,,,,,,,,,,,127,cotxe,Catalan,Sounds/cat_cotxe.mp3,2020-06-09_14h08.42.784,TranslationElicitation_spa,3.2.4,Win32,60,5ede22ac2ec6380417664519,,1,0,80,22,1,79
,,,,,,,,,,,,,,,,,,,,,,,,,,,,,,,,,,,f,1.648000002,F,FALSE,,,,,,,110,berenar,Catalan,Sounds/cat_berenar.mp3,2020-06-09_14h08.42.784,TranslationElicitation_spa,3.2.4,Win32,60,5ede22ac2ec6380417664519,,1,0,80,5,1,79
,,,,,,,,,,,,,,,,,,,,,,,,,,,,,,,,,,,r,1.880999804,FR,FALSE,,,,,,,110,berenar,Catalan,Sounds/cat_berenar.mp3,2020-06-09_14h08.42.784,TranslationElicitation_spa,3.2.4,Win32,60,5ede22ac2ec6380417664519,,1,0,80,5,1,79
,,,,,,,,,,,,,,,,,,,,,,,,,,,,,,,,,,,e,1.980000019,FRE,FALSE,,,,,,,110,berenar,Catalan,Sounds/cat_berenar.mp3,2020-06-09_14h08.42.784,TranslationElicitation_spa,3.2.4,Win32,60,5ede22ac2ec6380417664519,,1,0,80,5,1,79
,,,,,,,,,,,,,,,,,,,,,,,,,,,,,,,,,,,n,2.227999926,FREN,FALSE,,,,,,,110,berenar,Catalan,Sounds/cat_berenar.mp3,2020-06-09_14h08.42.784,TranslationElicitation_spa,3.2.4,Win32,60,5ede22ac2ec6380417664519,,1,0,80,5,1,79
,,,,,,,,,,,,,,,,,,,,,,,,,,,,,,,,,,,a,2.411000013,FRENA,FALSE,,,,,,,110,berenar,Catalan,Sounds/cat_berenar.mp3,2020-06-09_14h08.42.784,TranslationElicitation_spa,3.2.4,Win32,60,5ede22ac2ec6380417664519,,1,0,80,5,1,79
,,,,,,,,,,,,,,,,,,,,,,,,,,,,,,,,,,,r,2.612999916,FRENAR,FALSE,,,,,,,110,berenar,Catalan,Sounds/cat_berenar.mp3,2020-06-09_14h08.42.784,TranslationElicitation_spa,3.2.4,Win32,60,5ede22ac2ec6380417664519,,1,0,80,5,1,79
,,,,,,,,,,,,,,,,,,,,,,,,,,,,,,,,,,,return,2.79399991,,FALSE,,,,,,,110,berenar,Catalan,Sounds/cat_berenar.mp3,2020-06-09_14h08.42.784,TranslationElicitation_spa,3.2.4,Win32,60,5ede22ac2ec6380417664519,2.79399991,1,0,80,5,1,79
,,,,,,,,,,,,,,,,,,,,,,,,,,,,,,,,,,,,,,,,,,,,,110,berenar,Catalan,Sounds/cat_berenar.mp3,2020-06-09_14h08.42.784,TranslationElicitation_spa,3.2.4,Win32,60,5ede22ac2ec6380417664519,,1,0,80,5,1,79
,,,,,,,,,,,,,,,,,,,,,,,,,,,,,,,,,,,c,2.395999908,C,FALSE,,,,,,,145,got,Catalan,Sounds/cat_got.mp3,2020-06-09_14h08.42.784,TranslationElicitation_spa,3.2.4,Win32,60,5ede22ac2ec6380417664519,,1,0,80,40,1,79
,,,,,,,,,,,,,,,,,,,,,,,,,,,,,,,,,,,a,2.611999989,CA,FALSE,,,,,,,145,got,Catalan,Sounds/cat_got.mp3,2020-06-09_14h08.42.784,TranslationElicitation_spa,3.2.4,Win32,60,5ede22ac2ec6380417664519,,1,0,80,40,1,79
,,,,,,,,,,,,,,,,,,,,,,,,,,,,,,,,,,,b,2.828999996,CAB,FALSE,,,,,,,145,got,Catalan,Sounds/cat_got.mp3,2020-06-09_14h08.42.784,TranslationElicitation_spa,3.2.4,Win32,60,5ede22ac2ec6380417664519,,1,0,80,40,1,79
,,,,,,,,,,,,,,,,,,,,,,,,,,,,,,,,,,,r,2.960999966,CABR,FALSE,,,,,,,145,got,Catalan,Sounds/cat_got.mp3,2020-06-09_14h08.42.784,TranslationElicitation_spa,3.2.4,Win32,60,5ede22ac2ec6380417664519,,1,0,80,40,1,79
,,,,,,,,,,,,,,,,,,,,,,,,,,,,,,,,,,,a,3.061000109,CABRA,FALSE,,,,,,,145,got,Catalan,Sounds/cat_got.mp3,2020-06-09_14h08.42.784,TranslationElicitation_spa,3.2.4,Win32,60,5ede22ac2ec6380417664519,,1,0,80,40,1,79
,,,,,,,,,,,,,,,,,,,,,,,,,,,,,,,,,,,backspace,3.661000013,CAB,TRUE,,,,,,,145,got,Catalan,Sounds/cat_got.mp3,2020-06-09_14h08.42.784,TranslationElicitation_spa,3.2.4,Win32,60,5ede22ac2ec6380417664519,,1,0,80,40,1,79
,,,,,,,,,,,,,,,,,,,,,,,,,,,,,,,,,,,r,4.561000109,CABR,TRUE,,,,,,,145,got,Catalan,Sounds/cat_got.mp3,2020-06-09_14h08.42.784,TranslationElicitation_spa,3.2.4,Win32,60,5ede22ac2ec6380417664519,,1,0,80,40,1,79
,,,,,,,,,,,,,,,,,,,,,,,,,,,,,,,,,,,a,4.660000086,CABRA,TRUE,,,,,,,145,got,Catalan,Sounds/cat_got.mp3,2020-06-09_14h08.42.784,TranslationElicitation_spa,3.2.4,Win32,60,5ede22ac2ec6380417664519,,1,0,80,40,1,79
,,,,,,,,,,,,,,,,,,,,,,,,,,,,,,,,,,,return,4.92599988,,TRUE,,,,,,,145,got,Catalan,Sounds/cat_got.mp3,2020-06-09_14h08.42.784,TranslationElicitation_spa,3.2.4,Win32,60,5ede22ac2ec6380417664519,4.92599988,1,0,80,40,1,79
,,,,,,,,,,,,,,,,,,,,,,,,,,,,,,,,,,,,,,,,,,,,,145,got,Catalan,Sounds/cat_got.mp3,2020-06-09_14h08.42.784,TranslationElicitation_spa,3.2.4,Win32,60,5ede22ac2ec6380417664519,,1,0,80,40,1,79
,,,,,,,,,,,,,,,,,,,,,,,,,,,,,,,,,,,m,1.662000179,M,FALSE,,,,,,,156,moto,Catalan,Sounds/cat_moto.mp3,2020-06-09_14h08.42.784,TranslationElicitation_spa,3.2.4,Win32,60,5ede22ac2ec6380417664519,,1,0,80,50,1,79
,,,,,,,,,,,,,,,,,,,,,,,,,,,,,,,,,,,o,1.812000036,MO,FALSE,,,,,,,156,moto,Catalan,Sounds/cat_moto.mp3,2020-06-09_14h08.42.784,TranslationElicitation_spa,3.2.4,Win32,60,5ede22ac2ec6380417664519,,1,0,80,50,1,79
,,,,,,,,,,,,,,,,,,,,,,,,,,,,,,,,,,,t,1.946000099,MOT,FALSE,,,,,,,156,moto,Catalan,Sounds/cat_moto.mp3,2020-06-09_14h08.42.784,TranslationElicitation_spa,3.2.4,Win32,60,5ede22ac2ec6380417664519,,1,0,80,50,1,79
,,,,,,,,,,,,,,,,,,,,,,,,,,,,,,,,,,,o,2.078999996,MOTO,FALSE,,,,,,,156,moto,Catalan,Sounds/cat_moto.mp3,2020-06-09_14h08.42.784,TranslationElicitation_spa,3.2.4,Win32,60,5ede22ac2ec6380417664519,,1,0,80,50,1,79
,,,,,,,,,,,,,,,,,,,,,,,,,,,,,,,,,,,return,2.276000023,,FALSE,,,,,,,156,moto,Catalan,Sounds/cat_moto.mp3,2020-06-09_14h08.42.784,TranslationElicitation_spa,3.2.4,Win32,60,5ede22ac2ec6380417664519,2.276000023,1,0,80,50,1,79
,,,,,,,,,,,,,,,,,,,,,,,,,,,,,,,,,,,,,,,,,,,,,156,moto,Catalan,Sounds/cat_moto.mp3,2020-06-09_14h08.42.784,TranslationElicitation_spa,3.2.4,Win32,60,5ede22ac2ec6380417664519,,1,0,80,50,1,79
,,,,,,,,,,,,,,,,,,,,,,,,,,,,,,,,,,,c,1.415999889,C,FALSE,,,,,,,122,casa,Catalan,Sounds/cat_casa.mp3,2020-06-09_14h08.42.784,TranslationElicitation_spa,3.2.4,Win32,60,5ede22ac2ec6380417664519,,1,0,80,17,1,79
,,,,,,,,,,,,,,,,,,,,,,,,,,,,,,,,,,,a,1.546999931,CA,FALSE,,,,,,,122,casa,Catalan,Sounds/cat_casa.mp3,2020-06-09_14h08.42.784,TranslationElicitation_spa,3.2.4,Win32,60,5ede22ac2ec6380417664519,,1,0,80,17,1,79
,,,,,,,,,,,,,,,,,,,,,,,,,,,,,,,,,,,s,1.764999866,CAS,FALSE,,,,,,,122,casa,Catalan,Sounds/cat_casa.mp3,2020-06-09_14h08.42.784,TranslationElicitation_spa,3.2.4,Win32,60,5ede22ac2ec6380417664519,,1,0,80,17,1,79
,,,,,,,,,,,,,,,,,,,,,,,,,,,,,,,,,,,a,2.029999971,CASA,FALSE,,,,,,,122,casa,Catalan,Sounds/cat_casa.mp3,2020-06-09_14h08.42.784,TranslationElicitation_spa,3.2.4,Win32,60,5ede22ac2ec6380417664519,,1,0,80,17,1,79
,,,,,,,,,,,,,,,,,,,,,,,,,,,,,,,,,,,return,2.461999893,,FALSE,,,,,,,122,casa,Catalan,Sounds/cat_casa.mp3,2020-06-09_14h08.42.784,TranslationElicitation_spa,3.2.4,Win32,60,5ede22ac2ec6380417664519,2.461999893,1,0,80,17,1,79
,,,,,,,,,,,,,,,,,,,,,,,,,,,,,,,,,,,,,,,,,,,,,122,casa,Catalan,Sounds/cat_casa.mp3,2020-06-09_14h08.42.784,TranslationElicitation_spa,3.2.4,Win32,60,5ede22ac2ec6380417664519,,1,0,80,17,1,79
,,,,,,,,,,,,,,,,,,,,,,,,,,,,,,,,,,,c,1.430000067,C,FALSE,,,,,,,126,corona,Catalan,Sounds/cat_corona.mp3,2020-06-09_14h08.42.784,TranslationElicitation_spa,3.2.4,Win32,60,5ede22ac2ec6380417664519,,1,0,80,21,1,79
,,,,,,,,,,,,,,,,,,,,,,,,,,,,,,,,,,,o,1.644999981,CO,FALSE,,,,,,,126,corona,Catalan,Sounds/cat_corona.mp3,2020-06-09_14h08.42.784,TranslationElicitation_spa,3.2.4,Win32,60,5ede22ac2ec6380417664519,,1,0,80,21,1,79
,,,,,,,,,,,,,,,,,,,,,,,,,,,,,,,,,,,r,1.830000162,COR,FALSE,,,,,,,126,corona,Catalan,Sounds/cat_corona.mp3,2020-06-09_14h08.42.784,TranslationElicitation_spa,3.2.4,Win32,60,5ede22ac2ec6380417664519,,1,0,80,21,1,79
,,,,,,,,,,,,,,,,,,,,,,,,,,,,,,,,,,,o,1.995000124,CORO,FALSE,,,,,,,126,corona,Catalan,Sounds/cat_corona.mp3,2020-06-09_14h08.42.784,TranslationElicitation_spa,3.2.4,Win32,60,5ede22ac2ec6380417664519,,1,0,80,21,1,79
,,,,,,,,,,,,,,,,,,,,,,,,,,,,,,,,,,,n,2.212000132,CORON,FALSE,,,,,,,126,corona,Catalan,Sounds/cat_corona.mp3,2020-06-09_14h08.42.784,TranslationElicitation_spa,3.2.4,Win32,60,5ede22ac2ec6380417664519,,1,0,80,21,1,79
,,,,,,,,,,,,,,,,,,,,,,,,,,,,,,,,,,,a,2.361999989,CORONA,FALSE,,,,,,,126,corona,Catalan,Sounds/cat_corona.mp3,2020-06-09_14h08.42.784,TranslationElicitation_spa,3.2.4,Win32,60,5ede22ac2ec6380417664519,,1,0,80,21,1,79
,,,,,,,,,,,,,,,,,,,,,,,,,,,,,,,,,,,return,2.673000097,,FALSE,,,,,,,126,corona,Catalan,Sounds/cat_corona.mp3,2020-06-09_14h08.42.784,TranslationElicitation_spa,3.2.4,Win32,60,5ede22ac2ec6380417664519,2.67200017,1,0,80,21,1,79
,,,,,,,,,,,,,,,,,,,,,,,,,,,,,,,,,,,,,,,,,,,,,126,corona,Catalan,Sounds/cat_corona.mp3,2020-06-09_14h08.42.784,TranslationElicitation_spa,3.2.4,Win32,60,5ede22ac2ec6380417664519,,1,0,80,21,1,79
,,,,,,,,,,,,,,,,,,,,,,,,,,,,,,,,,,,m,2.994999886,M,FALSE,,,,,,,172,poma,Catalan,Sounds/cat_poma.mp3,2020-06-09_14h08.42.784,TranslationElicitation_spa,3.2.4,Win32,60,5ede22ac2ec6380417664519,,1,0,80,64,1,79
,,,,,,,,,,,,,,,,,,,,,,,,,,,,,,,,,,,a,3.126999855,MA,FALSE,,,,,,,172,poma,Catalan,Sounds/cat_poma.mp3,2020-06-09_14h08.42.784,TranslationElicitation_spa,3.2.4,Win32,60,5ede22ac2ec6380417664519,,1,0,80,64,1,79
,,,,,,,,,,,,,,,,,,,,,,,,,,,,,,,,,,,n,3.32799983,MAN,FALSE,,,,,,,172,poma,Catalan,Sounds/cat_poma.mp3,2020-06-09_14h08.42.784,TranslationElicitation_spa,3.2.4,Win32,60,5ede22ac2ec6380417664519,,1,0,80,64,1,79
,,,,,,,,,,,,,,,,,,,,,,,,,,,,,,,,,,,i,3.56099987,MANI,FALSE,,,,,,,172,poma,Catalan,Sounds/cat_poma.mp3,2020-06-09_14h08.42.784,TranslationElicitation_spa,3.2.4,Win32,60,5ede22ac2ec6380417664519,,1,0,80,64,1,79
,,,,,,,,,,,,,,,,,,,,,,,,,,,,,,,,,,,v,3.743999958,MANIV,FALSE,,,,,,,172,poma,Catalan,Sounds/cat_poma.mp3,2020-06-09_14h08.42.784,TranslationElicitation_spa,3.2.4,Win32,60,5ede22ac2ec6380417664519,,1,0,80,64,1,79
,,,,,,,,,,,,,,,,,,,,,,,,,,,,,,,,,,,e,3.875999928,MANIVE,FALSE,,,,,,,172,poma,Catalan,Sounds/cat_poma.mp3,2020-06-09_14h08.42.784,TranslationElicitation_spa,3.2.4,Win32,60,5ede22ac2ec6380417664519,,1,0,80,64,1,79
,,,,,,,,,,,,,,,,,,,,,,,,,,,,,,,,,,,l,4.042999983,MANIVEL,FALSE,,,,,,,172,poma,Catalan,Sounds/cat_poma.mp3,2020-06-09_14h08.42.784,TranslationElicitation_spa,3.2.4,Win32,60,5ede22ac2ec6380417664519,,1,0,80,64,1,79
,,,,,,,,,,,,,,,,,,,,,,,,,,,,,,,,,,,a,4.159999847,MANIVELA,FALSE,,,,,,,172,poma,Catalan,Sounds/cat_poma.mp3,2020-06-09_14h08.42.784,TranslationElicitation_spa,3.2.4,Win32,60,5ede22ac2ec6380417664519,,1,0,80,64,1,79
,,,,,,,,,,,,,,,,,,,,,,,,,,,,,,,,,,,backspace,4.574999809,MANIVE,TRUE,,,,,,,172,poma,Catalan,Sounds/cat_poma.mp3,2020-06-09_14h08.42.784,TranslationElicitation_spa,3.2.4,Win32,60,5ede22ac2ec6380417664519,,1,0,80,64,1,79
,,,,,,,,,,,,,,,,,,,,,,,,,,,,,,,,,,,backspace,4.725999832,MANI,TRUE,,,,,,,172,poma,Catalan,Sounds/cat_poma.mp3,2020-06-09_14h08.42.784,TranslationElicitation_spa,3.2.4,Win32,60,5ede22ac2ec6380417664519,,1,0,80,64,1,79
,,,,,,,,,,,,,,,,,,,,,,,,,,,,,,,,,,,backspace,4.875999928,MA,TRUE,,,,,,,172,poma,Catalan,Sounds/cat_poma.mp3,2020-06-09_14h08.42.784,TranslationElicitation_spa,3.2.4,Win32,60,5ede22ac2ec6380417664519,,1,0,80,64,1,79
,,,,,,,,,,,,,,,,,,,,,,,,,,,,,,,,,,,n,5.991999865,MAN,TRUE,,,,,,,172,poma,Catalan,Sounds/cat_poma.mp3,2020-06-09_14h08.42.784,TranslationElicitation_spa,3.2.4,Win32,60,5ede22ac2ec6380417664519,,1,0,80,64,1,79
,,,,,,,,,,,,,,,,,,,,,,,,,,,,,,,,,,,i,6.141000032,MANI,TRUE,,,,,,,172,poma,Catalan,Sounds/cat_poma.mp3,2020-06-09_14h08.42.784,TranslationElicitation_spa,3.2.4,Win32,60,5ede22ac2ec6380417664519,,1,0,80,64,1,79
,,,,,,,,,,,,,,,,,,,,,,,,,,,,,,,,,,,b,6.291999817,MANIB,TRUE,,,,,,,172,poma,Catalan,Sounds/cat_poma.mp3,2020-06-09_14h08.42.784,TranslationElicitation_spa,3.2.4,Win32,60,5ede22ac2ec6380417664519,,1,0,80,64,1,79
,,,,,,,,,,,,,,,,,,,,,,,,,,,,,,,,,,,e,6.39199996,MANIBE,TRUE,,,,,,,172,poma,Catalan,Sounds/cat_poma.mp3,2020-06-09_14h08.42.784,TranslationElicitation_spa,3.2.4,Win32,60,5ede22ac2ec6380417664519,,1,0,80,64,1,79
,,,,,,,,,,,,,,,,,,,,,,,,,,,,,,,,,,,l,6.507999897,MANIBEL,TRUE,,,,,,,172,poma,Catalan,Sounds/cat_poma.mp3,2020-06-09_14h08.42.784,TranslationElicitation_spa,3.2.4,Win32,60,5ede22ac2ec6380417664519,,1,0,80,64,1,79
,,,,,,,,,,,,,,,,,,,,,,,,,,,,,,,,,,,a,6.606999874,MANIBELA,TRUE,,,,,,,172,poma,Catalan,Sounds/cat_poma.mp3,2020-06-09_14h08.42.784,TranslationElicitation_spa,3.2.4,Win32,60,5ede22ac2ec6380417664519,,1,0,80,64,1,79
,,,,,,,,,,,,,,,,,,,,,,,,,,,,,,,,,,,backspace,7.189999819,MANIBE,TRUE,,,,,,,172,poma,Catalan,Sounds/cat_poma.mp3,2020-06-09_14h08.42.784,TranslationElicitation_spa,3.2.4,Win32,60,5ede22ac2ec6380417664519,,1,0,80,64,1,79
,,,,,,,,,,,,,,,,,,,,,,,,,,,,,,,,,,,backspace,7.505999804,MANI,TRUE,,,,,,,172,poma,Catalan,Sounds/cat_poma.mp3,2020-06-09_14h08.42.784,TranslationElicitation_spa,3.2.4,Win32,60,5ede22ac2ec6380417664519,,1,0,80,64,1,79
,,,,,,,,,,,,,,,,,,,,,,,,,,,,,,,,,,,v,8.438999891,MANIV,TRUE,,,,,,,172,poma,Catalan,Sounds/cat_poma.mp3,2020-06-09_14h08.42.784,TranslationElicitation_spa,3.2.4,Win32,60,5ede22ac2ec6380417664519,,1,0,80,64,1,79
,,,,,,,,,,,,,,,,,,,,,,,,,,,,,,,,,,,e,8.505999804,MANIVE,TRUE,,,,,,,172,poma,Catalan,Sounds/cat_poma.mp3,2020-06-09_14h08.42.784,TranslationElicitation_spa,3.2.4,Win32,60,5ede22ac2ec6380417664519,,1,0,80,64,1,79
,,,,,,,,,,,,,,,,,,,,,,,,,,,,,,,,,,,l,8.655999899,MANIVEL,TRUE,,,,,,,172,poma,Catalan,Sounds/cat_poma.mp3,2020-06-09_14h08.42.784,TranslationElicitation_spa,3.2.4,Win32,60,5ede22ac2ec6380417664519,,1,0,80,64,1,79
,,,,,,,,,,,,,,,,,,,,,,,,,,,,,,,,,,,a,8.754999876,MANIVELA,TRUE,,,,,,,172,poma,Catalan,Sounds/cat_poma.mp3,2020-06-09_14h08.42.784,TranslationElicitation_spa,3.2.4,Win32,60,5ede22ac2ec6380417664519,,1,0,80,64,1,79
,,,,,,,,,,,,,,,,,,,,,,,,,,,,,,,,,,,return,8.987999916,,TRUE,,,,,,,172,poma,Catalan,Sounds/cat_poma.mp3,2020-06-09_14h08.42.784,TranslationElicitation_spa,3.2.4,Win32,60,5ede22ac2ec6380417664519,8.987999916,1,0,80,64,1,79
,,,,,,,,,,,,,,,,,,,,,,,,,,,,,,,,,,,,,,,,,,,,,172,poma,Catalan,Sounds/cat_poma.mp3,2020-06-09_14h08.42.784,TranslationElicitation_spa,3.2.4,Win32,60,5ede22ac2ec6380417664519,,1,0,80,64,1,79
,,,,,,,,,,,,,,,,,,,,,,,,,,,,,,,,,,,t,1.661000013,T,FALSE,,,,,,,183,tren,Catalan,Sounds/cat_tren.mp3,2020-06-09_14h08.42.784,TranslationElicitation_spa,3.2.4,Win32,60,5ede22ac2ec6380417664519,,1,0,80,74,1,79
,,,,,,,,,,,,,,,,,,,,,,,,,,,,,,,,,,,r,1.861999989,TR,FALSE,,,,,,,183,tren,Catalan,Sounds/cat_tren.mp3,2020-06-09_14h08.42.784,TranslationElicitation_spa,3.2.4,Win32,60,5ede22ac2ec6380417664519,,1,0,80,74,1,79
,,,,,,,,,,,,,,,,,,,,,,,,,,,,,,,,,,,e,1.977999926,TRE,FALSE,,,,,,,183,tren,Catalan,Sounds/cat_tren.mp3,2020-06-09_14h08.42.784,TranslationElicitation_spa,3.2.4,Win32,60,5ede22ac2ec6380417664519,,1,0,80,74,1,79
,,,,,,,,,,,,,,,,,,,,,,,,,,,,,,,,,,,n,2.210999966,TREN,FALSE,,,,,,,183,tren,Catalan,Sounds/cat_tren.mp3,2020-06-09_14h08.42.784,TranslationElicitation_spa,3.2.4,Win32,60,5ede22ac2ec6380417664519,,1,0,80,74,1,79
,,,,,,,,,,,,,,,,,,,,,,,,,,,,,,,,,,,return,2.792999983,,FALSE,,,,,,,183,tren,Catalan,Sounds/cat_tren.mp3,2020-06-09_14h08.42.784,TranslationElicitation_spa,3.2.4,Win32,60,5ede22ac2ec6380417664519,2.792999983,1,0,80,74,1,79
,,,,,,,,,,,,,,,,,,,,,,,,,,,,,,,,,,,,,,,,,,,,,183,tren,Catalan,Sounds/cat_tren.mp3,2020-06-09_14h08.42.784,TranslationElicitation_spa,3.2.4,Win32,60,5ede22ac2ec6380417664519,,1,0,80,74,1,79
,,,,,,,,,,,,,,,,,,,,,,,,,,,,,,,,,,,c,1.496999979,C,FALSE,,,,,,,188,xocolata,Catalan,Sounds/cat_xocolata.mp3,2020-06-09_14h08.42.784,TranslationElicitation_spa,3.2.4,Win32,60,5ede22ac2ec6380417664519,,1,0,80,78,1,79
,,,,,,,,,,,,,,,,,,,,,,,,,,,,,,,,,,,h,1.578999996,CH,FALSE,,,,,,,188,xocolata,Catalan,Sounds/cat_xocolata.mp3,2020-06-09_14h08.42.784,TranslationElicitation_spa,3.2.4,Win32,60,5ede22ac2ec6380417664519,,1,0,80,78,1,79
,,,,,,,,,,,,,,,,,,,,,,,,,,,,,,,,,,,o,1.778999805,CHO,FALSE,,,,,,,188,xocolata,Catalan,Sounds/cat_xocolata.mp3,2020-06-09_14h08.42.784,TranslationElicitation_spa,3.2.4,Win32,60,5ede22ac2ec6380417664519,,1,0,80,78,1,79
,,,,,,,,,,,,,,,,,,,,,,,,,,,,,,,,,,,l,1.962999821,CHOL,FALSE,,,,,,,188,xocolata,Catalan,Sounds/cat_xocolata.mp3,2020-06-09_14h08.42.784,TranslationElicitation_spa,3.2.4,Win32,60,5ede22ac2ec6380417664519,,1,0,80,78,1,79
,,,,,,,,,,,,,,,,,,,,,,,,,,,,,,,,,,,backspace,2.228999853,CH,TRUE,,,,,,,188,xocolata,Catalan,Sounds/cat_xocolata.mp3,2020-06-09_14h08.42.784,TranslationElicitation_spa,3.2.4,Win32,60,5ede22ac2ec6380417664519,,1,0,80,78,1,79
,,,,,,,,,,,,,,,,,,,,,,,,,,,,,,,,,,,c,2.462999821,CHC,TRUE,,,,,,,188,xocolata,Catalan,Sounds/cat_xocolata.mp3,2020-06-09_14h08.42.784,TranslationElicitation_spa,3.2.4,Win32,60,5ede22ac2ec6380417664519,,1,0,80,78,1,79
,,,,,,,,,,,,,,,,,,,,,,,,,,,,,,,,,,,backspace,3.075999975,C,TRUE,,,,,,,188,xocolata,Catalan,Sounds/cat_xocolata.mp3,2020-06-09_14h08.42.784,TranslationElicitation_spa,3.2.4,Win32,60,5ede22ac2ec6380417664519,,1,0,80,78,1,79
,,,,,,,,,,,,,,,,,,,,,,,,,,,,,,,,,,,h,4.177999973,CH,TRUE,,,,,,,188,xocolata,Catalan,Sounds/cat_xocolata.mp3,2020-06-09_14h08.42.784,TranslationElicitation_spa,3.2.4,Win32,60,5ede22ac2ec6380417664519,,1,0,80,78,1,79
,,,,,,,,,,,,,,,,,,,,,,,,,,,,,,,,,,,o,4.31099987,CHO,TRUE,,,,,,,188,xocolata,Catalan,Sounds/cat_xocolata.mp3,2020-06-09_14h08.42.784,TranslationElicitation_spa,3.2.4,Win32,60,5ede22ac2ec6380417664519,,1,0,80,78,1,79
,,,,,,,,,,,,,,,,,,,,,,,,,,,,,,,,,,,c,4.461999893,CHOC,TRUE,,,,,,,188,xocolata,Catalan,Sounds/cat_xocolata.mp3,2020-06-09_14h08.42.784,TranslationElicitation_spa,3.2.4,Win32,60,5ede22ac2ec6380417664519,,1,0,80,78,1,79
,,,,,,,,,,,,,,,,,,,,,,,,,,,,,,,,,,,o,4.544999838,CHOCO,TRUE,,,,,,,188,xocolata,Catalan,Sounds/cat_xocolata.mp3,2020-06-09_14h08.42.784,TranslationElicitation_spa,3.2.4,Win32,60,5ede22ac2ec6380417664519,,1,0,80,78,1,79
,,,,,,,,,,,,,,,,,,,,,,,,,,,,,,,,,,,l,4.777999878,CHOCOL,TRUE,,,,,,,188,xocolata,Catalan,Sounds/cat_xocolata.mp3,2020-06-09_14h08.42.784,TranslationElicitation_spa,3.2.4,Win32,60,5ede22ac2ec6380417664519,,1,0,80,78,1,79
,,,,,,,,,,,,,,,,,,,,,,,,,,,,,,,,,,,a,4.895999908,CHOCOLA,TRUE,,,,,,,188,xocolata,Catalan,Sounds/cat_xocolata.mp3,2020-06-09_14h08.42.784,TranslationElicitation_spa,3.2.4,Win32,60,5ede22ac2ec6380417664519,,1,0,80,78,1,79
,,,,,,,,,,,,,,,,,,,,,,,,,,,,,,,,,,,t,5.142999887,CHOCOLAT,TRUE,,,,,,,188,xocolata,Catalan,Sounds/cat_xocolata.mp3,2020-06-09_14h08.42.784,TranslationElicitation_spa,3.2.4,Win32,60,5ede22ac2ec6380417664519,,1,0,80,78,1,79
,,,,,,,,,,,,,,,,,,,,,,,,,,,,,,,,,,,e,5.228999853,CHOCOLATE,TRUE,,,,,,,188,xocolata,Catalan,Sounds/cat_xocolata.mp3,2020-06-09_14h08.42.784,TranslationElicitation_spa,3.2.4,Win32,60,5ede22ac2ec6380417664519,,1,0,80,78,1,79
,,,,,,,,,,,,,,,,,,,,,,,,,,,,,,,,,,,return,5.40899992,,TRUE,,,,,,,188,xocolata,Catalan,Sounds/cat_xocolata.mp3,2020-06-09_14h08.42.784,TranslationElicitation_spa,3.2.4,Win32,60,5ede22ac2ec6380417664519,5.407999992,1,0,80,78,1,79
,,,,,,,,,,,,,,,,,,,,,,,,,,,,,,,,,,,,,,,,,,,,,188,xocolata,Catalan,Sounds/cat_xocolata.mp3,2020-06-09_14h08.42.784,TranslationElicitation_spa,3.2.4,Win32,60,5ede22ac2ec6380417664519,,1,0,80,78,1,79
,,,,,,,,,,,,,,,,,,,,,,,,,,,,,,,,,,,b,5.940999985,B,FALSE,,,,,,,118,bou,Catalan,Sounds/cat_bou.mp3,2020-06-09_14h08.42.784,TranslationElicitation_spa,3.2.4,Win32,60,5ede22ac2ec6380417664519,,1,0,80,13,1,79
,,,,,,,,,,,,,,,,,,,,,,,,,,,,,,,,,,,o,6.072999954,BO,FALSE,,,,,,,118,bou,Catalan,Sounds/cat_bou.mp3,2020-06-09_14h08.42.784,TranslationElicitation_spa,3.2.4,Win32,60,5ede22ac2ec6380417664519,,1,0,80,13,1,79
,,,,,,,,,,,,,,,,,,,,,,,,,,,,,,,,,,,l,6.257999897,BOL,FALSE,,,,,,,118,bou,Catalan,Sounds/cat_bou.mp3,2020-06-09_14h08.42.784,TranslationElicitation_spa,3.2.4,Win32,60,5ede22ac2ec6380417664519,,1,0,80,13,1,79
,,,,,,,,,,,,,,,,,,,,,,,,,,,,,,,,,,,a,6.340999842,BOLA,FALSE,,,,,,,118,bou,Catalan,Sounds/cat_bou.mp3,2020-06-09_14h08.42.784,TranslationElicitation_spa,3.2.4,Win32,60,5ede22ac2ec6380417664519,,1,0,80,13,1,79
,,,,,,,,,,,,,,,,,,,,,,,,,,,,,,,,,,,return,6.523000002,,FALSE,,,,,,,118,bou,Catalan,Sounds/cat_bou.mp3,2020-06-09_14h08.42.784,TranslationElicitation_spa,3.2.4,Win32,60,5ede22ac2ec6380417664519,6.523000002,1,0,80,13,1,79
,,,,,,,,,,,,,,,,,,,,,,,,,,,,,,,,,,,,,,,,,,,,,118,bou,Catalan,Sounds/cat_bou.mp3,2020-06-09_14h08.42.784,TranslationElicitation_spa,3.2.4,Win32,60,5ede22ac2ec6380417664519,,1,0,80,13,1,79
,,,,,,,,,,,,,,,,,,,,,,,,,,,,,,,,,,,s,1.480000019,S,FALSE,,,,,,,124,cirera,Catalan,Sounds/cat_cirera.mp3,2020-06-09_14h08.42.784,TranslationElicitation_spa,3.2.4,Win32,60,5ede22ac2ec6380417664519,,1,0,80,19,1,79
,,,,,,,,,,,,,,,,,,,,,,,,,,,,,,,,,,,e,1.730000019,SE,FALSE,,,,,,,124,cirera,Catalan,Sounds/cat_cirera.mp3,2020-06-09_14h08.42.784,TranslationElicitation_spa,3.2.4,Win32,60,5ede22ac2ec6380417664519,,1,0,80,19,1,79
,,,,,,,,,,,,,,,,,,,,,,,,,,,,,,,,,,,backspace,2.130000114,,TRUE,,,,,,,124,cirera,Catalan,Sounds/cat_cirera.mp3,2020-06-09_14h08.42.784,TranslationElicitation_spa,3.2.4,Win32,60,5ede22ac2ec6380417664519,,1,0,80,19,1,79
,,,,,,,,,,,,,,,,,,,,,,,,,,,,,,,,,,,i,2.462000132,I,TRUE,,,,,,,124,cirera,Catalan,Sounds/cat_cirera.mp3,2020-06-09_14h08.42.784,TranslationElicitation_spa,3.2.4,Win32,60,5ede22ac2ec6380417664519,,1,0,80,19,1,79
,,,,,,,,,,,,,,,,,,,,,,,,,,,,,,,,,,,backspace,2.880000114,,TRUE,,,,,,,124,cirera,Catalan,Sounds/cat_cirera.mp3,2020-06-09_14h08.42.784,TranslationElicitation_spa,3.2.4,Win32,60,5ede22ac2ec6380417664519,,1,0,80,19,1,79
,,,,,,,,,,,,,,,,,,,,,,,,,,,,,,,,,,,s,3.312000036,S,TRUE,,,,,,,124,cirera,Catalan,Sounds/cat_cirera.mp3,2020-06-09_14h08.42.784,TranslationElicitation_spa,3.2.4,Win32,60,5ede22ac2ec6380417664519,,1,0,80,19,1,79
,,,,,,,,,,,,,,,,,,,,,,,,,,,,,,,,,,,i,3.411000013,SI,TRUE,,,,,,,124,cirera,Catalan,Sounds/cat_cirera.mp3,2020-06-09_14h08.42.784,TranslationElicitation_spa,3.2.4,Win32,60,5ede22ac2ec6380417664519,,1,0,80,19,1,79
,,,,,,,,,,,,,,,,,,,,,,,,,,,,,,,,,,,r,3.528000116,SIR,TRUE,,,,,,,124,cirera,Catalan,Sounds/cat_cirera.mp3,2020-06-09_14h08.42.784,TranslationElicitation_spa,3.2.4,Win32,60,5ede22ac2ec6380417664519,,1,0,80,19,1,79
,,,,,,,,,,,,,,,,,,,,,,,,,,,,,,,,,,,e,3.594000101,SIRE,TRUE,,,,,,,124,cirera,Catalan,Sounds/cat_cirera.mp3,2020-06-09_14h08.42.784,TranslationElicitation_spa,3.2.4,Win32,60,5ede22ac2ec6380417664519,,1,0,80,19,1,79
,,,,,,,,,,,,,,,,,,,,,,,,,,,,,,,,,,,n,3.778000116,SIREN,TRUE,,,,,,,124,cirera,Catalan,Sounds/cat_cirera.mp3,2020-06-09_14h08.42.784,TranslationElicitation_spa,3.2.4,Win32,60,5ede22ac2ec6380417664519,,1,0,80,19,1,79
,,,,,,,,,,,,,,,,,,,,,,,,,,,,,,,,,,,a,3.828000069,SIRENA,TRUE,,,,,,,124,cirera,Catalan,Sounds/cat_cirera.mp3,2020-06-09_14h08.42.784,TranslationElicitation_spa,3.2.4,Win32,60,5ede22ac2ec6380417664519,,1,0,80,19,1,79
,,,,,,,,,,,,,,,,,,,,,,,,,,,,,,,,,,,return,4.042999983,,TRUE,,,,,,,124,cirera,Catalan,Sounds/cat_cirera.mp3,2020-06-09_14h08.42.784,TranslationElicitation_spa,3.2.4,Win32,60,5ede22ac2ec6380417664519,4.042999983,1,0,80,19,1,79
,,,,,,,,,,,,,,,,,,,,,,,,,,,,,,,,,,,,,,,,,,,,,124,cirera,Catalan,Sounds/cat_cirera.mp3,2020-06-09_14h08.42.784,TranslationElicitation_spa,3.2.4,Win32,60,5ede22ac2ec6380417664519,,1,0,80,19,1,79
,,,,,,,,,,,,,,,,,,,,,,,,,,,,,,,,,,,b,2.713000059,B,FALSE,,,,,,,165,pernil,Catalan,Sounds/cat_pernil.mp3,2020-06-09_14h08.42.784,TranslationElicitation_spa,3.2.4,Win32,60,5ede22ac2ec6380417664519,,1,0,80,58,1,79
,,,,,,,,,,,,,,,,,,,,,,,,,,,,,,,,,,,a,2.863999844,BA,FALSE,,,,,,,165,pernil,Catalan,Sounds/cat_pernil.mp3,2020-06-09_14h08.42.784,TranslationElicitation_spa,3.2.4,Win32,60,5ede22ac2ec6380417664519,,1,0,80,58,1,79
,,,,,,,,,,,,,,,,,,,,,,,,,,,,,,,,,,,r,3.011999846,BAR,FALSE,,,,,,,165,pernil,Catalan,Sounds/cat_pernil.mp3,2020-06-09_14h08.42.784,TranslationElicitation_spa,3.2.4,Win32,60,5ede22ac2ec6380417664519,,1,0,80,58,1,79
,,,,,,,,,,,,,,,,,,,,,,,,,,,,,,,,,,,n,3.227999926,BARN,FALSE,,,,,,,165,pernil,Catalan,Sounds/cat_pernil.mp3,2020-06-09_14h08.42.784,TranslationElicitation_spa,3.2.4,Win32,60,5ede22ac2ec6380417664519,,1,0,80,58,1,79
,,,,,,,,,,,,,,,,,,,,,,,,,,,,,,,,,,,i,3.444999933,BARNI,FALSE,,,,,,,165,pernil,Catalan,Sounds/cat_pernil.mp3,2020-06-09_14h08.42.784,TranslationElicitation_spa,3.2.4,Win32,60,5ede22ac2ec6380417664519,,1,0,80,58,1,79
,,,,,,,,,,,,,,,,,,,,,,,,,,,,,,,,,,,z,3.595000029,BARNIZ,FALSE,,,,,,,165,pernil,Catalan,Sounds/cat_pernil.mp3,2020-06-09_14h08.42.784,TranslationElicitation_spa,3.2.4,Win32,60,5ede22ac2ec6380417664519,,1,0,80,58,1,79
,,,,,,,,,,,,,,,,,,,,,,,,,,,,,,,,,,,return,3.861000061,,FALSE,,,,,,,165,pernil,Catalan,Sounds/cat_pernil.mp3,2020-06-09_14h08.42.784,TranslationElicitation_spa,3.2.4,Win32,60,5ede22ac2ec6380417664519,3.861000061,1,0,80,58,1,79
,,,,,,,,,,,,,,,,,,,,,,,,,,,,,,,,,,,,,,,,,,,,,165,pernil,Catalan,Sounds/cat_pernil.mp3,2020-06-09_14h08.42.784,TranslationElicitation_spa,3.2.4,Win32,60,5ede22ac2ec6380417664519,,1,0,80,58,1,79
,,,,,,,,,,,,,,,,,,,,,,,,,,,,,,,,,,,d,5.00999999,D,FALSE,,,,,,,129,dit,Catalan,Sounds/cat_dit.mp3,2020-06-09_14h08.42.784,TranslationElicitation_spa,3.2.4,Win32,60,5ede22ac2ec6380417664519,,1,0,80,24,1,79
,,,,,,,,,,,,,,,,,,,,,,,,,,,,,,,,,,,i,5.10800004,DI,FALSE,,,,,,,129,dit,Catalan,Sounds/cat_dit.mp3,2020-06-09_14h08.42.784,TranslationElicitation_spa,3.2.4,Win32,60,5ede22ac2ec6380417664519,,1,0,80,24,1,79
,,,,,,,,,,,,,,,,,,,,,,,,,,,,,,,,,,,j,5.225000143,DIJ,FALSE,,,,,,,129,dit,Catalan,Sounds/cat_dit.mp3,2020-06-09_14h08.42.784,TranslationElicitation_spa,3.2.4,Win32,60,5ede22ac2ec6380417664519,,1,0,80,24,1,79
,,,,,,,,,,,,,,,,,,,,,,,,,,,,,,,,,,,o,5.391000032,DIJO,FALSE,,,,,,,129,dit,Catalan,Sounds/cat_dit.mp3,2020-06-09_14h08.42.784,TranslationElicitation_spa,3.2.4,Win32,60,5ede22ac2ec6380417664519,,1,0,80,24,1,79
,,,,,,,,,,,,,,,,,,,,,,,,,,,,,,,,,,,return,5.60800004,,FALSE,,,,,,,129,dit,Catalan,Sounds/cat_dit.mp3,2020-06-09_14h08.42.784,TranslationElicitation_spa,3.2.4,Win32,60,5ede22ac2ec6380417664519,5.607000113,1,0,80,24,1,79
,,,,,,,,,,,,,,,,,,,,,,,,,,,,,,,,,,,,,,,,,,,,,129,dit,Catalan,Sounds/cat_dit.mp3,2020-06-09_14h08.42.784,TranslationElicitation_spa,3.2.4,Win32,60,5ede22ac2ec6380417664519,,1,0,80,24,1,79
,,,,,,,,,,,,,,,,,,,,,,,,,,,,,,,,,,,v,1.611999989,V,FALSE,,,,,,,111,bibero,Catalan,Sounds/cat_bibero.mp3,2020-06-09_14h08.42.784,TranslationElicitation_spa,3.2.4,Win32,60,5ede22ac2ec6380417664519,,1,0,80,6,1,79
,,,,,,,,,,,,,,,,,,,,,,,,,,,,,,,,,,,i,1.711999893,VI,FALSE,,,,,,,111,bibero,Catalan,Sounds/cat_bibero.mp3,2020-06-09_14h08.42.784,TranslationElicitation_spa,3.2.4,Win32,60,5ede22ac2ec6380417664519,,1,0,80,6,1,79
,,,,,,,,,,,,,,,,,,,,,,,,,,,,,,,,,,,v,1.812999964,VIV,FALSE,,,,,,,111,bibero,Catalan,Sounds/cat_bibero.mp3,2020-06-09_14h08.42.784,TranslationElicitation_spa,3.2.4,Win32,60,5ede22ac2ec6380417664519,,1,0,80,6,1,79
,,,,,,,,,,,,,,,,,,,,,,,,,,,,,,,,,,,a,2.178999901,VIVA,FALSE,,,,,,,111,bibero,Catalan,Sounds/cat_bibero.mp3,2020-06-09_14h08.42.784,TranslationElicitation_spa,3.2.4,Win32,60,5ede22ac2ec6380417664519,,1,0,80,6,1,79
,,,,,,,,,,,,,,,,,,,,,,,,,,,,,,,,,,,return,3.892999887,,FALSE,,,,,,,111,bibero,Catalan,Sounds/cat_bibero.mp3,2020-06-09_14h08.42.784,TranslationElicitation_spa,3.2.4,Win32,60,5ede22ac2ec6380417664519,3.89199996,1,0,80,6,1,79
,,,,,,,,,,,,,,,,,,,,,,,,,,,,,,,,,,,,,,,,,,,,,111,bibero,Catalan,Sounds/cat_bibero.mp3,2020-06-09_14h08.42.784,TranslationElicitation_spa,3.2.4,Win32,60,5ede22ac2ec6380417664519,,1,0,80,6,1,79
,,,,,,,,,,,,,,,,,,,,,,,,,,,,,,,,,,,p,2.768000126,P,FALSE,,,,,,,163,papallona,Catalan,Sounds/cat_papallona.mp3,2020-06-09_14h08.42.784,TranslationElicitation_spa,3.2.4,Win32,60,5ede22ac2ec6380417664519,,1,0,80,56,1,79
,,,,,,,,,,,,,,,,,,,,,,,,,,,,,,,,,,,a,2.825000048,PA,FALSE,,,,,,,163,papallona,Catalan,Sounds/cat_papallona.mp3,2020-06-09_14h08.42.784,TranslationElicitation_spa,3.2.4,Win32,60,5ede22ac2ec6380417664519,,1,0,80,56,1,79
,,,,,,,,,,,,,,,,,,,,,,,,,,,,,,,,,,,p,2.927000046,PAP,FALSE,,,,,,,163,papallona,Catalan,Sounds/cat_papallona.mp3,2020-06-09_14h08.42.784,TranslationElicitation_spa,3.2.4,Win32,60,5ede22ac2ec6380417664519,,1,0,80,56,1,79
,,,,,,,,,,,,,,,,,,,,,,,,,,,,,,,,,,,a,3.026000023,PAPA,FALSE,,,,,,,163,papallona,Catalan,Sounds/cat_papallona.mp3,2020-06-09_14h08.42.784,TranslationElicitation_spa,3.2.4,Win32,60,5ede22ac2ec6380417664519,,1,0,80,56,1,79
,,,,,,,,,,,,,,,,,,,,,,,,,,,,,,,,,,,backspace,5.457000017,PA,TRUE,,,,,,,163,papallona,Catalan,Sounds/cat_papallona.mp3,2020-06-09_14h08.42.784,TranslationElicitation_spa,3.2.4,Win32,60,5ede22ac2ec6380417664519,,1,0,80,56,1,79
,,,,,,,,,,,,,,,,,,,,,,,,,,,,,,,,,,,backspace,5.723999977,,TRUE,,,,,,,163,papallona,Catalan,Sounds/cat_papallona.mp3,2020-06-09_14h08.42.784,TranslationElicitation_spa,3.2.4,Win32,60,5ede22ac2ec6380417664519,,1,0,80,56,1,79
,,,,,,,,,,,,,,,,,,,,,,,,,,,,,,,,,,,a,6.173000097,A,TRUE,,,,,,,163,papallona,Catalan,Sounds/cat_papallona.mp3,2020-06-09_14h08.42.784,TranslationElicitation_spa,3.2.4,Win32,60,5ede22ac2ec6380417664519,,1,0,80,56,1,79
,,,,,,,,,,,,,,,,,,,,,,,,,,,,,,,,,,,b,6.32400012,AB,TRUE,,,,,,,163,papallona,Catalan,Sounds/cat_papallona.mp3,2020-06-09_14h08.42.784,TranslationElicitation_spa,3.2.4,Win32,60,5ede22ac2ec6380417664519,,1,0,80,56,1,79
,,,,,,,,,,,,,,,,,,,,,,,,,,,,,,,,,,,u,6.47300005,ABU,TRUE,,,,,,,163,papallona,Catalan,Sounds/cat_papallona.mp3,2020-06-09_14h08.42.784,TranslationElicitation_spa,3.2.4,Win32,60,5ede22ac2ec6380417664519,,1,0,80,56,1,79
,,,,,,,,,,,,,,,,,,,,,,,,,,,,,,,,,,,e,6.57400012,ABUE,TRUE,,,,,,,163,papallona,Catalan,Sounds/cat_papallona.mp3,2020-06-09_14h08.42.784,TranslationElicitation_spa,3.2.4,Win32,60,5ede22ac2ec6380417664519,,1,0,80,56,1,79
,,,,,,,,,,,,,,,,,,,,,,,,,,,,,,,,,,,l,6.755000114,ABUEL,TRUE,,,,,,,163,papallona,Catalan,Sounds/cat_papallona.mp3,2020-06-09_14h08.42.784,TranslationElicitation_spa,3.2.4,Win32,60,5ede22ac2ec6380417664519,,1,0,80,56,1,79
,,,,,,,,,,,,,,,,,,,,,,,,,,,,,,,,,,,o,6.97300005,ABUELO,TRUE,,,,,,,163,papallona,Catalan,Sounds/cat_papallona.mp3,2020-06-09_14h08.42.784,TranslationElicitation_spa,3.2.4,Win32,60,5ede22ac2ec6380417664519,,1,0,80,56,1,79
,,,,,,,,,,,,,,,,,,,,,,,,,,,,,,,,,,,return,7.338000059,,TRUE,,,,,,,163,papallona,Catalan,Sounds/cat_papallona.mp3,2020-06-09_14h08.42.784,TranslationElicitation_spa,3.2.4,Win32,60,5ede22ac2ec6380417664519,7.338000059,1,0,80,56,1,79
,,,,,,,,,,,,,,,,,,,,,,,,,,,,,,,,,,,,,,,,,,,,,163,papallona,Catalan,Sounds/cat_papallona.mp3,2020-06-09_14h08.42.784,TranslationElicitation_spa,3.2.4,Win32,60,5ede22ac2ec6380417664519,,1,0,80,56,1,79
,,,,,,,,,,,,,,,,,,,,,,,,,,,,,,,,,,,a,3.677999973,A,FALSE,,,,,,,133,estruc,Catalan,Sounds/cat_estruc.mp3,2020-06-09_14h08.42.784,TranslationElicitation_spa,3.2.4,Win32,60,5ede22ac2ec6380417664519,,1,0,80,28,1,79
,,,,,,,,,,,,,,,,,,,,,,,,,,,,,,,,,,,v,3.876999855,AV,FALSE,,,,,,,133,estruc,Catalan,Sounds/cat_estruc.mp3,2020-06-09_14h08.42.784,TranslationElicitation_spa,3.2.4,Win32,60,5ede22ac2ec6380417664519,,1,0,80,28,1,79
,,,,,,,,,,,,,,,,,,,,,,,,,,,,,,,,,,,e,3.944000006,AVE,FALSE,,,,,,,133,estruc,Catalan,Sounds/cat_estruc.mp3,2020-06-09_14h08.42.784,TranslationElicitation_spa,3.2.4,Win32,60,5ede22ac2ec6380417664519,,1,0,80,28,1,79
,,,,,,,,,,,,,,,,,,,,,,,,,,,,,,,,,,,z,4.460999966,AVEZ,FALSE,,,,,,,133,estruc,Catalan,Sounds/cat_estruc.mp3,2020-06-09_14h08.42.784,TranslationElicitation_spa,3.2.4,Win32,60,5ede22ac2ec6380417664519,,1,0,80,28,1,79
,,,,,,,,,,,,,,,,,,,,,,,,,,,,,,,,,,,t,4.941999912,AVEZT,FALSE,,,,,,,133,estruc,Catalan,Sounds/cat_estruc.mp3,2020-06-09_14h08.42.784,TranslationElicitation_spa,3.2.4,Win32,60,5ede22ac2ec6380417664519,,1,0,80,28,1,79
,,,,,,,,,,,,,,,,,,,,,,,,,,,,,,,,,,,r,5.125999928,AVEZTR,FALSE,,,,,,,133,estruc,Catalan,Sounds/cat_estruc.mp3,2020-06-09_14h08.42.784,TranslationElicitation_spa,3.2.4,Win32,60,5ede22ac2ec6380417664519,,1,0,80,28,1,79
,,,,,,,,,,,,,,,,,,,,,,,,,,,,,,,,,,,u,5.276000023,AVEZTRU,FALSE,,,,,,,133,estruc,Catalan,Sounds/cat_estruc.mp3,2020-06-09_14h08.42.784,TranslationElicitation_spa,3.2.4,Win32,60,5ede22ac2ec6380417664519,,1,0,80,28,1,79
,,,,,,,,,,,,,,,,,,,,,,,,,,,,,,,,,,,z,5.42599988,AVEZTRUZ,FALSE,,,,,,,133,estruc,Catalan,Sounds/cat_estruc.mp3,2020-06-09_14h08.42.784,TranslationElicitation_spa,3.2.4,Win32,60,5ede22ac2ec6380417664519,,1,0,80,28,1,79
,,,,,,,,,,,,,,,,,,,,,,,,,,,,,,,,,,,backspace,5.991999865,AVEZTR,TRUE,,,,,,,133,estruc,Catalan,Sounds/cat_estruc.mp3,2020-06-09_14h08.42.784,TranslationElicitation_spa,3.2.4,Win32,60,5ede22ac2ec6380417664519,,1,0,80,28,1,79
,,,,,,,,,,,,,,,,,,,,,,,,,,,,,,,,,,,backspace,6.108999968,AVEZ,TRUE,,,,,,,133,estruc,Catalan,Sounds/cat_estruc.mp3,2020-06-09_14h08.42.784,TranslationElicitation_spa,3.2.4,Win32,60,5ede22ac2ec6380417664519,,1,0,80,28,1,79
,,,,,,,,,,,,,,,,,,,,,,,,,,,,,,,,,,,backspace,6.273999929,AV,TRUE,,,,,,,133,estruc,Catalan,Sounds/cat_estruc.mp3,2020-06-09_14h08.42.784,TranslationElicitation_spa,3.2.4,Win32,60,5ede22ac2ec6380417664519,,1,0,80,28,1,79
,,,,,,,,,,,,,,,,,,,,,,,,,,,,,,,,,,,backspace,6.474999905,,TRUE,,,,,,,133,estruc,Catalan,Sounds/cat_estruc.mp3,2020-06-09_14h08.42.784,TranslationElicitation_spa,3.2.4,Win32,60,5ede22ac2ec6380417664519,,1,0,80,28,1,79
,,,,,,,,,,,,,,,,,,,,,,,,,,,,,,,,,,,a,7.089999914,A,TRUE,,,,,,,133,estruc,Catalan,Sounds/cat_estruc.mp3,2020-06-09_14h08.42.784,TranslationElicitation_spa,3.2.4,Win32,60,5ede22ac2ec6380417664519,,1,0,80,28,1,79
,,,,,,,,,,,,,,,,,,,,,,,,,,,,,,,,,,,v,7.323999882,AV,TRUE,,,,,,,133,estruc,Catalan,Sounds/cat_estruc.mp3,2020-06-09_14h08.42.784,TranslationElicitation_spa,3.2.4,Win32,60,5ede22ac2ec6380417664519,,1,0,80,28,1,79
,,,,,,,,,,,,,,,,,,,,,,,,,,,,,,,,,,,e,7.424000025,AVE,TRUE,,,,,,,133,estruc,Catalan,Sounds/cat_estruc.mp3,2020-06-09_14h08.42.784,TranslationElicitation_spa,3.2.4,Win32,60,5ede22ac2ec6380417664519,,1,0,80,28,1,79
,,,,,,,,,,,,,,,,,,,,,,,,,,,,,,,,,,,s,7.588999987,AVES,TRUE,,,,,,,133,estruc,Catalan,Sounds/cat_estruc.mp3,2020-06-09_14h08.42.784,TranslationElicitation_spa,3.2.4,Win32,60,5ede22ac2ec6380417664519,,1,0,80,28,1,79
,,,,,,,,,,,,,,,,,,,,,,,,,,,,,,,,,,,t,7.789000034,AVEST,TRUE,,,,,,,133,estruc,Catalan,Sounds/cat_estruc.mp3,2020-06-09_14h08.42.784,TranslationElicitation_spa,3.2.4,Win32,60,5ede22ac2ec6380417664519,,1,0,80,28,1,79
,,,,,,,,,,,,,,,,,,,,,,,,,,,,,,,,,,,r,7.938999891,AVESTR,TRUE,,,,,,,133,estruc,Catalan,Sounds/cat_estruc.mp3,2020-06-09_14h08.42.784,TranslationElicitation_spa,3.2.4,Win32,60,5ede22ac2ec6380417664519,,1,0,80,28,1,79
,,,,,,,,,,,,,,,,,,,,,,,,,,,,,,,,,,,u,8.072000027,AVESTRU,TRUE,,,,,,,133,estruc,Catalan,Sounds/cat_estruc.mp3,2020-06-09_14h08.42.784,TranslationElicitation_spa,3.2.4,Win32,60,5ede22ac2ec6380417664519,,1,0,80,28,1,79
,,,,,,,,,,,,,,,,,,,,,,,,,,,,,,,,,,,z,8.174000025,AVESTRUZ,TRUE,,,,,,,133,estruc,Catalan,Sounds/cat_estruc.mp3,2020-06-09_14h08.42.784,TranslationElicitation_spa,3.2.4,Win32,60,5ede22ac2ec6380417664519,,1,0,80,28,1,79
,,,,,,,,,,,,,,,,,,,,,,,,,,,,,,,,,,,return,8.421999931,,TRUE,,,,,,,133,estruc,Catalan,Sounds/cat_estruc.mp3,2020-06-09_14h08.42.784,TranslationElicitation_spa,3.2.4,Win32,60,5ede22ac2ec6380417664519,8.421999931,1,0,80,28,1,79
,,,,,,,,,,,,,,,,,,,,,,,,,,,,,,,,,,,,,,,,,,,,,133,estruc,Catalan,Sounds/cat_estruc.mp3,2020-06-09_14h08.42.784,TranslationElicitation_spa,3.2.4,Win32,60,5ede22ac2ec6380417664519,,1,0,80,28,1,79
,,,,,,,,,,,,,,,,,,,,,,,,,,,,,,,,,,,j,2.046000004,J,FALSE,,,,,,,142,girafa,Catalan,Sounds/cat_girafa.mp3,2020-06-09_14h08.42.784,TranslationElicitation_spa,3.2.4,Win32,60,5ede22ac2ec6380417664519,,1,0,80,37,1,79
,,,,,,,,,,,,,,,,,,,,,,,,,,,,,,,,,,,u,2.211999893,JU,FALSE,,,,,,,142,girafa,Catalan,Sounds/cat_girafa.mp3,2020-06-09_14h08.42.784,TranslationElicitation_spa,3.2.4,Win32,60,5ede22ac2ec6380417664519,,1,0,80,37,1,79
,,,,,,,,,,,,,,,,,,,,,,,,,,,,,,,,,,,backspace,2.611000061,,TRUE,,,,,,,142,girafa,Catalan,Sounds/cat_girafa.mp3,2020-06-09_14h08.42.784,TranslationElicitation_spa,3.2.4,Win32,60,5ede22ac2ec6380417664519,,1,0,80,37,1,79
,,,,,,,,,,,,,,,,,,,,,,,,,,,,,,,,,,,j,3.375999928,J,TRUE,,,,,,,142,girafa,Catalan,Sounds/cat_girafa.mp3,2020-06-09_14h08.42.784,TranslationElicitation_spa,3.2.4,Win32,60,5ede22ac2ec6380417664519,,1,0,80,37,1,79
,,,,,,,,,,,,,,,,,,,,,,,,,,,,,,,,,,,i,3.493000031,JI,TRUE,,,,,,,142,girafa,Catalan,Sounds/cat_girafa.mp3,2020-06-09_14h08.42.784,TranslationElicitation_spa,3.2.4,Win32,60,5ede22ac2ec6380417664519,,1,0,80,37,1,79
,,,,,,,,,,,,,,,,,,,,,,,,,,,,,,,,,,,r,3.625999928,JIR,TRUE,,,,,,,142,girafa,Catalan,Sounds/cat_girafa.mp3,2020-06-09_14h08.42.784,TranslationElicitation_spa,3.2.4,Win32,60,5ede22ac2ec6380417664519,,1,0,80,37,1,79
,,,,,,,,,,,,,,,,,,,,,,,,,,,,,,,,,,,a,3.726999998,JIRA,TRUE,,,,,,,142,girafa,Catalan,Sounds/cat_girafa.mp3,2020-06-09_14h08.42.784,TranslationElicitation_spa,3.2.4,Win32,60,5ede22ac2ec6380417664519,,1,0,80,37,1,79
,,,,,,,,,,,,,,,,,,,,,,,,,,,,,,,,,,,f,4.243000031,JIRAF,TRUE,,,,,,,142,girafa,Catalan,Sounds/cat_girafa.mp3,2020-06-09_14h08.42.784,TranslationElicitation_spa,3.2.4,Win32,60,5ede22ac2ec6380417664519,,1,0,80,37,1,79
,,,,,,,,,,,,,,,,,,,,,,,,,,,,,,,,,,,a,4.325999975,JIRAFA,TRUE,,,,,,,142,girafa,Catalan,Sounds/cat_girafa.mp3,2020-06-09_14h08.42.784,TranslationElicitation_spa,3.2.4,Win32,60,5ede22ac2ec6380417664519,,1,0,80,37,1,79
,,,,,,,,,,,,,,,,,,,,,,,,,,,,,,,,,,,return,4.741999865,,TRUE,,,,,,,142,girafa,Catalan,Sounds/cat_girafa.mp3,2020-06-09_14h08.42.784,TranslationElicitation_spa,3.2.4,Win32,60,5ede22ac2ec6380417664519,4.740999937,1,0,80,37,1,79
,,,,,,,,,,,,,,,,,,,,,,,,,,,,,,,,,,,,,,,,,,,,,142,girafa,Catalan,Sounds/cat_girafa.mp3,2020-06-09_14h08.42.784,TranslationElicitation_spa,3.2.4,Win32,60,5ede22ac2ec6380417664519,,1,0,80,37,1,79
,,,,,,,,,,,,,,,,,,,,,,,,,,,,,,,,,,,g,2.928999901,G,FALSE,,,,,,,139,galleda,Catalan,Sounds/cat_galleda.mp3,2020-06-09_14h08.42.784,TranslationElicitation_spa,3.2.4,Win32,60,5ede22ac2ec6380417664519,,1,0,80,34,1,79
,,,,,,,,,,,,,,,,,,,,,,,,,,,,,,,,,,,a,3.029000044,GA,FALSE,,,,,,,139,galleda,Catalan,Sounds/cat_galleda.mp3,2020-06-09_14h08.42.784,TranslationElicitation_spa,3.2.4,Win32,60,5ede22ac2ec6380417664519,,1,0,80,34,1,79
,,,,,,,,,,,,,,,,,,,,,,,,,,,,,,,,,,,l,3.177999973,GAL,FALSE,,,,,,,139,galleda,Catalan,Sounds/cat_galleda.mp3,2020-06-09_14h08.42.784,TranslationElicitation_spa,3.2.4,Win32,60,5ede22ac2ec6380417664519,,1,0,80,34,1,79
