consentKey.keys,consentKey.rt,languageL1Key.keys,languageL1Key.rt,languageL2,languageL2OralKey.keys,languageL2OralKey.rt,languageL2WrittenKey.keys,languageL2WrittenKey.rt,languageL3OralKey.keys,languageL3OralKey.rt,languageL3WrittenKey.keys,languageL3WrittenKey.rt,languageCatalanOralKey.keys,languageCatalanOralKey.rt,languageCatalanWrittenKey.keys,languageCatalanWrittenKey.rt,languageCatalanTimeKey.keys,languageCatalanTimeKey.rt,age,demoSexKey.keys,demoSexKey.rt,demoEducationKey.keys,demoEducationKey.rt,city,demoVisionKey.keys,demoVisionKey.rt,demoLanguageKey.keys,demoLanguageKey.rt,setupLocationKey.keys,setupLocationKey.rt,setupNoiseKey.keys,setupNoiseKey.rt,instructionsKeys.keys,instructionsKeys.rt,keyPressed,keyPressTime,inputText,error,trials_practice.thisRepN,trials_practice.thisTrialN,trials_practice.thisN,trials_practice.thisIndex,trials_practice.ran,trials_practice.order,trial_id,word,test_language,soundfile,date,expName,psychopyVersion,OS,frameRate,participant,trialOffset,trials.thisRepN,trials.thisTrialN,trials.thisN,trials.thisIndex,trials.ran,trials.order
space,6.545999765,e,4.654999733,FRANCES,4,15.41599989,4,8.111999989,2,8.852999687,2,1.819999933,2,6.661999941,1,3.383999825,1,6.525999784,20,m,2.018999815,3,4.877999783,CARTAGENA,n,9.526999712,n,3.328999758,1,5.062999725,2,13.97899985,space,40.00199986,a,5.487999916,A,FALSE,1,0,5,0,1,4,109,arbre,Catalan,Sounds/cat_arbre.mp3,2020-06-08_15h16.03.905,TranslationElicitation_spa,3.2.4,Win32,60,5ede198e9586fe02aecca093,,,,,,,
,,,,,,,,,,,,,,,,,,,,,,,,,,,,,,,,,,,r,5.687999964,AR,FALSE,1,0,5,0,1,4,109,arbre,Catalan,Sounds/cat_arbre.mp3,2020-06-08_15h16.03.905,TranslationElicitation_spa,3.2.4,Win32,60,5ede198e9586fe02aecca093,,,,,,,
,,,,,,,,,,,,,,,,,,,,,,,,,,,,,,,,,,,b,6.720000029,ARB,FALSE,1,0,5,0,1,4,109,arbre,Catalan,Sounds/cat_arbre.mp3,2020-06-08_15h16.03.905,TranslationElicitation_spa,3.2.4,Win32,60,5ede198e9586fe02aecca093,,,,,,,
,,,,,,,,,,,,,,,,,,,,,,,,,,,,,,,,,,,o,6.875999928,ARBO,FALSE,1,0,5,0,1,4,109,arbre,Catalan,Sounds/cat_arbre.mp3,2020-06-08_15h16.03.905,TranslationElicitation_spa,3.2.4,Win32,60,5ede198e9586fe02aecca093,,,,,,,
,,,,,,,,,,,,,,,,,,,,,,,,,,,,,,,,,,,backspace,7.937999964,AR,TRUE,1,0,5,0,1,4,109,arbre,Catalan,Sounds/cat_arbre.mp3,2020-06-08_15h16.03.905,TranslationElicitation_spa,3.2.4,Win32,60,5ede198e9586fe02aecca093,,,,,,,
,,,,,,,,,,,,,,,,,,,,,,,,,,,,,,,,,,,apostrophe,8.288000107,AR,TRUE,1,0,5,0,1,4,109,arbre,Catalan,Sounds/cat_arbre.mp3,2020-06-08_15h16.03.905,TranslationElicitation_spa,3.2.4,Win32,60,5ede198e9586fe02aecca093,,,,,,,
,,,,,,,,,,,,,,,,,,,,,,,,,,,,,,,,,,,o,8.404000044,ARÓ,TRUE,1,0,5,0,1,4,109,arbre,Catalan,Sounds/cat_arbre.mp3,2020-06-08_15h16.03.905,TranslationElicitation_spa,3.2.4,Win32,60,5ede198e9586fe02aecca093,,,,,,,
,,,,,,,,,,,,,,,,,,,,,,,,,,,,,,,,,,,backspace,9.272000074,A,TRUE,1,0,5,0,1,4,109,arbre,Catalan,Sounds/cat_arbre.mp3,2020-06-08_15h16.03.905,TranslationElicitation_spa,3.2.4,Win32,60,5ede198e9586fe02aecca093,,,,,,,
,,,,,,,,,,,,,,,,,,,,,,,,,,,,,,,,,,,r,10.42199993,AR,TRUE,1,0,5,0,1,4,109,arbre,Catalan,Sounds/cat_arbre.mp3,2020-06-08_15h16.03.905,TranslationElicitation_spa,3.2.4,Win32,60,5ede198e9586fe02aecca093,,,,,,,
,,,,,,,,,,,,,,,,,,,,,,,,,,,,,,,,,,,b,10.83899999,ARB,TRUE,1,0,5,0,1,4,109,arbre,Catalan,Sounds/cat_arbre.mp3,2020-06-08_15h16.03.905,TranslationElicitation_spa,3.2.4,Win32,60,5ede198e9586fe02aecca093,,,,,,,
,,,,,,,,,,,,,,,,,,,,,,,,,,,,,,,,,,,o,11.10700011,ARBO,TRUE,1,0,5,0,1,4,109,arbre,Catalan,Sounds/cat_arbre.mp3,2020-06-08_15h16.03.905,TranslationElicitation_spa,3.2.4,Win32,60,5ede198e9586fe02aecca093,,,,,,,
,,,,,,,,,,,,,,,,,,,,,,,,,,,,,,,,,,,l,11.40499997,ARBOL,TRUE,1,0,5,0,1,4,109,arbre,Catalan,Sounds/cat_arbre.mp3,2020-06-08_15h16.03.905,TranslationElicitation_spa,3.2.4,Win32,60,5ede198e9586fe02aecca093,,,,,,,
,,,,,,,,,,,,,,,,,,,,,,,,,,,,,,,,,,,return,13.65799999,,TRUE,1,0,5,0,1,4,109,arbre,Catalan,Sounds/cat_arbre.mp3,2020-06-08_15h16.03.905,TranslationElicitation_spa,3.2.4,Win32,60,5ede198e9586fe02aecca093,13.65799999,,,,,,
,,,,,,,,,,,,,,,,,,,,,,,,,,,,,,,,,,,,,,,1,0,5,0,1,4,109,arbre,Catalan,Sounds/cat_arbre.mp3,2020-06-08_15h16.03.905,TranslationElicitation_spa,3.2.4,Win32,60,5ede198e9586fe02aecca093,,,,,,,
,,,,,,,,,,,,,,,,,,,,,,,,,,,,,,,,,,,p,2.087000132,P,FALSE,1,0,5,3,1,4,167,pingui,Catalan,Sounds/cat_pingui.mp3,2020-06-08_15h16.03.905,TranslationElicitation_spa,3.2.4,Win32,60,5ede198e9586fe02aecca093,,,,,,,
,,,,,,,,,,,,,,,,,,,,,,,,,,,,,,,,,,,i,2.453999996,PI,FALSE,1,0,5,3,1,4,167,pingui,Catalan,Sounds/cat_pingui.mp3,2020-06-08_15h16.03.905,TranslationElicitation_spa,3.2.4,Win32,60,5ede198e9586fe02aecca093,,,,,,,
,,,,,,,,,,,,,,,,,,,,,,,,,,,,,,,,,,,n,2.720999956,PIN,FALSE,1,0,5,3,1,4,167,pingui,Catalan,Sounds/cat_pingui.mp3,2020-06-08_15h16.03.905,TranslationElicitation_spa,3.2.4,Win32,60,5ede198e9586fe02aecca093,,,,,,,
,,,,,,,,,,,,,,,,,,,,,,,,,,,,,,,,,,,g,3.390000105,PING,FALSE,1,0,5,3,1,4,167,pingui,Catalan,Sounds/cat_pingui.mp3,2020-06-08_15h16.03.905,TranslationElicitation_spa,3.2.4,Win32,60,5ede198e9586fe02aecca093,,,,,,,
,,,,,,,,,,,,,,,,,,,,,,,,,,,,,,,,,,,u,3.585999966,PINGU,FALSE,1,0,5,3,1,4,167,pingui,Catalan,Sounds/cat_pingui.mp3,2020-06-08_15h16.03.905,TranslationElicitation_spa,3.2.4,Win32,60,5ede198e9586fe02aecca093,,,,,,,
,,,,,,,,,,,,,,,,,,,,,,,,,,,,,,,,,,,i,3.952000141,PINGUI,FALSE,1,0,5,3,1,4,167,pingui,Catalan,Sounds/cat_pingui.mp3,2020-06-08_15h16.03.905,TranslationElicitation_spa,3.2.4,Win32,60,5ede198e9586fe02aecca093,,,,,,,
,,,,,,,,,,,,,,,,,,,,,,,,,,,,,,,,,,,n,4.220000029,PINGUIN,FALSE,1,0,5,3,1,4,167,pingui,Catalan,Sounds/cat_pingui.mp3,2020-06-08_15h16.03.905,TranslationElicitation_spa,3.2.4,Win32,60,5ede198e9586fe02aecca093,,,,,,,
,,,,,,,,,,,,,,,,,,,,,,,,,,,,,,,,,,,o,4.489000082,PINGUINO,FALSE,1,0,5,3,1,4,167,pingui,Catalan,Sounds/cat_pingui.mp3,2020-06-08_15h16.03.905,TranslationElicitation_spa,3.2.4,Win32,60,5ede198e9586fe02aecca093,,,,,,,
,,,,,,,,,,,,,,,,,,,,,,,,,,,,,,,,,,,return,5.355000019,,FALSE,1,0,5,3,1,4,167,pingui,Catalan,Sounds/cat_pingui.mp3,2020-06-08_15h16.03.905,TranslationElicitation_spa,3.2.4,Win32,60,5ede198e9586fe02aecca093,5.355000019,,,,,,
,,,,,,,,,,,,,,,,,,,,,,,,,,,,,,,,,,,,,,,1,0,5,3,1,4,167,pingui,Catalan,Sounds/cat_pingui.mp3,2020-06-08_15h16.03.905,TranslationElicitation_spa,3.2.4,Win32,60,5ede198e9586fe02aecca093,,,,,,,
,,,,,,,,,,,,,,,,,,,,,,,,,,,,,,,,,,,t,2.164999962,T,FALSE,1,0,5,4,1,4,179,tigre,Catalan,Sounds/cat_tigre.mp3,2020-06-08_15h16.03.905,TranslationElicitation_spa,3.2.4,Win32,60,5ede198e9586fe02aecca093,,,,,,,
,,,,,,,,,,,,,,,,,,,,,,,,,,,,,,,,,,,i,2.348999977,TI,FALSE,1,0,5,4,1,4,179,tigre,Catalan,Sounds/cat_tigre.mp3,2020-06-08_15h16.03.905,TranslationElicitation_spa,3.2.4,Win32,60,5ede198e9586fe02aecca093,,,,,,,
,,,,,,,,,,,,,,,,,,,,,,,,,,,,,,,,,,,g,2.681999922,TIG,FALSE,1,0,5,4,1,4,179,tigre,Catalan,Sounds/cat_tigre.mp3,2020-06-08_15h16.03.905,TranslationElicitation_spa,3.2.4,Win32,60,5ede198e9586fe02aecca093,,,,,,,
,,,,,,,,,,,,,,,,,,,,,,,,,,,,,,,,,,,r,3.09800005,TIGR,FALSE,1,0,5,4,1,4,179,tigre,Catalan,Sounds/cat_tigre.mp3,2020-06-08_15h16.03.905,TranslationElicitation_spa,3.2.4,Win32,60,5ede198e9586fe02aecca093,,,,,,,
,,,,,,,,,,,,,,,,,,,,,,,,,,,,,,,,,,,e,3.384000063,TIGRE,FALSE,1,0,5,4,1,4,179,tigre,Catalan,Sounds/cat_tigre.mp3,2020-06-08_15h16.03.905,TranslationElicitation_spa,3.2.4,Win32,60,5ede198e9586fe02aecca093,,,,,,,
,,,,,,,,,,,,,,,,,,,,,,,,,,,,,,,,,,,return,4.217999935,,FALSE,1,0,5,4,1,4,179,tigre,Catalan,Sounds/cat_tigre.mp3,2020-06-08_15h16.03.905,TranslationElicitation_spa,3.2.4,Win32,60,5ede198e9586fe02aecca093,4.217999935,,,,,,
,,,,,,,,,,,,,,,,,,,,,,,,,,,,,,,,,,,,,,,1,0,5,4,1,4,179,tigre,Catalan,Sounds/cat_tigre.mp3,2020-06-08_15h16.03.905,TranslationElicitation_spa,3.2.4,Win32,60,5ede198e9586fe02aecca093,,,,,,,
,,,,,,,,,,,,,,,,,,,,,,,,,,,,,,,,,,,h,2.334000111,H,FALSE,1,0,5,2,1,4,159,onada,Catalan,Sounds/cat_onada.mp3,2020-06-08_15h16.03.905,TranslationElicitation_spa,3.2.4,Win32,60,5ede198e9586fe02aecca093,,,,,,,
,,,,,,,,,,,,,,,,,,,,,,,,,,,,,,,,,,,a,2.430999994,HA,FALSE,1,0,5,2,1,4,159,onada,Catalan,Sounds/cat_onada.mp3,2020-06-08_15h16.03.905,TranslationElicitation_spa,3.2.4,Win32,60,5ede198e9586fe02aecca093,,,,,,,
,,,,,,,,,,,,,,,,,,,,,,,,,,,,,,,,,,,d,2.782000065,HAD,FALSE,1,0,5,2,1,4,159,onada,Catalan,Sounds/cat_onada.mp3,2020-06-08_15h16.03.905,TranslationElicitation_spa,3.2.4,Win32,60,5ede198e9586fe02aecca093,,,,,,,
,,,,,,,,,,,,,,,,,,,,,,,,,,,,,,,,,,,a,2.881000042,HADA,FALSE,1,0,5,2,1,4,159,onada,Catalan,Sounds/cat_onada.mp3,2020-06-08_15h16.03.905,TranslationElicitation_spa,3.2.4,Win32,60,5ede198e9586fe02aecca093,,,,,,,
,,,,,,,,,,,,,,,,,,,,,,,,,,,,,,,,,,,return,3.848999977,,FALSE,1,0,5,2,1,4,159,onada,Catalan,Sounds/cat_onada.mp3,2020-06-08_15h16.03.905,TranslationElicitation_spa,3.2.4,Win32,60,5ede198e9586fe02aecca093,3.84800005,,,,,,
,,,,,,,,,,,,,,,,,,,,,,,,,,,,,,,,,,,,,,,1,0,5,2,1,4,159,onada,Catalan,Sounds/cat_onada.mp3,2020-06-08_15h16.03.905,TranslationElicitation_spa,3.2.4,Win32,60,5ede198e9586fe02aecca093,,,,,,,
,,,,,,,,,,,,,,,,,,,,,,,,,,,,,,,,,,,r,1.746999979,R,FALSE,1,0,5,1,1,4,147,jaqueta,Catalan,Sounds/cat_jaqueta.mp3,2020-06-08_15h16.03.905,TranslationElicitation_spa,3.2.4,Win32,60,5ede198e9586fe02aecca093,,,,,,,
,,,,,,,,,,,,,,,,,,,,,,,,,,,,,,,,,,,a,2.430999994,RA,FALSE,1,0,5,1,1,4,147,jaqueta,Catalan,Sounds/cat_jaqueta.mp3,2020-06-08_15h16.03.905,TranslationElicitation_spa,3.2.4,Win32,60,5ede198e9586fe02aecca093,,,,,,,
,,,,,,,,,,,,,,,,,,,,,,,,,,,,,,,,,,,q,3.663000107,RAQ,FALSE,1,0,5,1,1,4,147,jaqueta,Catalan,Sounds/cat_jaqueta.mp3,2020-06-08_15h16.03.905,TranslationElicitation_spa,3.2.4,Win32,60,5ede198e9586fe02aecca093,,,,,,,
,,,,,,,,,,,,,,,,,,,,,,,,,,,,,,,,,,,e,3.812999964,RAQE,FALSE,1,0,5,1,1,4,147,jaqueta,Catalan,Sounds/cat_jaqueta.mp3,2020-06-08_15h16.03.905,TranslationElicitation_spa,3.2.4,Win32,60,5ede198e9586fe02aecca093,,,,,,,
,,,,,,,,,,,,,,,,,,,,,,,,,,,,,,,,,,,backspace,4.414000034,RA,TRUE,1,0,5,1,1,4,147,jaqueta,Catalan,Sounds/cat_jaqueta.mp3,2020-06-08_15h16.03.905,TranslationElicitation_spa,3.2.4,Win32,60,5ede198e9586fe02aecca093,,,,,,,
,,,,,,,,,,,,,,,,,,,,,,,,,,,,,,,,,,,u,5.029999971,RAU,TRUE,1,0,5,1,1,4,147,jaqueta,Catalan,Sounds/cat_jaqueta.mp3,2020-06-08_15h16.03.905,TranslationElicitation_spa,3.2.4,Win32,60,5ede198e9586fe02aecca093,,,,,,,
,,,,,,,,,,,,,,,,,,,,,,,,,,,,,,,,,,,backspace,6.230000019,R,TRUE,1,0,5,1,1,4,147,jaqueta,Catalan,Sounds/cat_jaqueta.mp3,2020-06-08_15h16.03.905,TranslationElicitation_spa,3.2.4,Win32,60,5ede198e9586fe02aecca093,,,,,,,
,,,,,,,,,,,,,,,,,,,,,,,,,,,,,,,,,,,q,6.766000032,RQ,TRUE,1,0,5,1,1,4,147,jaqueta,Catalan,Sounds/cat_jaqueta.mp3,2020-06-08_15h16.03.905,TranslationElicitation_spa,3.2.4,Win32,60,5ede198e9586fe02aecca093,,,,,,,
,,,,,,,,,,,,,,,,,,,,,,,,,,,,,,,,,,,backspace,7.33100009,,TRUE,1,0,5,1,1,4,147,jaqueta,Catalan,Sounds/cat_jaqueta.mp3,2020-06-08_15h16.03.905,TranslationElicitation_spa,3.2.4,Win32,60,5ede198e9586fe02aecca093,,,,,,,
,,,,,,,,,,,,,,,,,,,,,,,,,,,,,,,,,,,a,7.548000097,A,TRUE,1,0,5,1,1,4,147,jaqueta,Catalan,Sounds/cat_jaqueta.mp3,2020-06-08_15h16.03.905,TranslationElicitation_spa,3.2.4,Win32,60,5ede198e9586fe02aecca093,,,,,,,
,,,,,,,,,,,,,,,,,,,,,,,,,,,,,,,,,,,backspace,8.08100009,,TRUE,1,0,5,1,1,4,147,jaqueta,Catalan,Sounds/cat_jaqueta.mp3,2020-06-08_15h16.03.905,TranslationElicitation_spa,3.2.4,Win32,60,5ede198e9586fe02aecca093,,,,,,,
,,,,,,,,,,,,,,,,,,,,,,,,,,,,,,,,,,,r,8.680999994,R,TRUE,1,0,5,1,1,4,147,jaqueta,Catalan,Sounds/cat_jaqueta.mp3,2020-06-08_15h16.03.905,TranslationElicitation_spa,3.2.4,Win32,60,5ede198e9586fe02aecca093,,,,,,,
,,,,,,,,,,,,,,,,,,,,,,,,,,,,,,,,,,,a,8.764000177,RA,TRUE,1,0,5,1,1,4,147,jaqueta,Catalan,Sounds/cat_jaqueta.mp3,2020-06-08_15h16.03.905,TranslationElicitation_spa,3.2.4,Win32,60,5ede198e9586fe02aecca093,,,,,,,
,,,,,,,,,,,,,,,,,,,,,,,,,,,,,,,,,,,q,9.548000097,RAQ,TRUE,1,0,5,1,1,4,147,jaqueta,Catalan,Sounds/cat_jaqueta.mp3,2020-06-08_15h16.03.905,TranslationElicitation_spa,3.2.4,Win32,60,5ede198e9586fe02aecca093,,,,,,,
,,,,,,,,,,,,,,,,,,,,,,,,,,,,,,,,,,,u,9.664000034,RAQU,TRUE,1,0,5,1,1,4,147,jaqueta,Catalan,Sounds/cat_jaqueta.mp3,2020-06-08_15h16.03.905,TranslationElicitation_spa,3.2.4,Win32,60,5ede198e9586fe02aecca093,,,,,,,
,,,,,,,,,,,,,,,,,,,,,,,,,,,,,,,,,,,e,9.84800005,RAQUE,TRUE,1,0,5,1,1,4,147,jaqueta,Catalan,Sounds/cat_jaqueta.mp3,2020-06-08_15h16.03.905,TranslationElicitation_spa,3.2.4,Win32,60,5ede198e9586fe02aecca093,,,,,,,
,,,,,,,,,,,,,,,,,,,,,,,,,,,,,,,,,,,t,9.980000019,RAQUET,TRUE,1,0,5,1,1,4,147,jaqueta,Catalan,Sounds/cat_jaqueta.mp3,2020-06-08_15h16.03.905,TranslationElicitation_spa,3.2.4,Win32,60,5ede198e9586fe02aecca093,,,,,,,
,,,,,,,,,,,,,,,,,,,,,,,,,,,,,,,,,,,a,10.12899995,RAQUETA,TRUE,1,0,5,1,1,4,147,jaqueta,Catalan,Sounds/cat_jaqueta.mp3,2020-06-08_15h16.03.905,TranslationElicitation_spa,3.2.4,Win32,60,5ede198e9586fe02aecca093,,,,,,,
,,,,,,,,,,,,,,,,,,,,,,,,,,,,,,,,,,,return,11.33100009,,TRUE,1,0,5,1,1,4,147,jaqueta,Catalan,Sounds/cat_jaqueta.mp3,2020-06-08_15h16.03.905,TranslationElicitation_spa,3.2.4,Win32,60,5ede198e9586fe02aecca093,11.33100009,,,,,,
,,,,,,,,,,,,,,,,,,,,,,,,,,,,,,,,,,,,,,,1,0,5,1,1,4,147,jaqueta,Catalan,Sounds/cat_jaqueta.mp3,2020-06-08_15h16.03.905,TranslationElicitation_spa,3.2.4,Win32,60,5ede198e9586fe02aecca093,,,,,,,
,,,,,,,,,,,,,,,,,,,,,,,,,,,,,,,,,,,b,2.224000216,B,FALSE,,,,,,,117,boto,Catalan,Sounds/cat_boto.mp3,2020-06-08_15h16.03.905,TranslationElicitation_spa,3.2.4,Win32,60,5ede198e9586fe02aecca093,,1,0,80,12,1,79
,,,,,,,,,,,,,,,,,,,,,,,,,,,,,,,,,,,o,4.10800004,BO,FALSE,,,,,,,117,boto,Catalan,Sounds/cat_boto.mp3,2020-06-08_15h16.03.905,TranslationElicitation_spa,3.2.4,Win32,60,5ede198e9586fe02aecca093,,1,0,80,12,1,79
,,,,,,,,,,,,,,,,,,,,,,,,,,,,,,,,,,,t,4.943000078,BOT,FALSE,,,,,,,117,boto,Catalan,Sounds/cat_boto.mp3,2020-06-08_15h16.03.905,TranslationElicitation_spa,3.2.4,Win32,60,5ede198e9586fe02aecca093,,1,0,80,12,1,79
,,,,,,,,,,,,,,,,,,,,,,,,,,,,,,,,,,,o,5.707000017,BOTO,FALSE,,,,,,,117,boto,Catalan,Sounds/cat_boto.mp3,2020-06-08_15h16.03.905,TranslationElicitation_spa,3.2.4,Win32,60,5ede198e9586fe02aecca093,,1,0,80,12,1,79
,,,,,,,,,,,,,,,,,,,,,,,,,,,,,,,,,,,n,5.92200017,BOTON,FALSE,,,,,,,117,boto,Catalan,Sounds/cat_boto.mp3,2020-06-08_15h16.03.905,TranslationElicitation_spa,3.2.4,Win32,60,5ede198e9586fe02aecca093,,1,0,80,12,1,79
,,,,,,,,,,,,,,,,,,,,,,,,,,,,,,,,,,,return,6.741000175,,FALSE,,,,,,,117,boto,Catalan,Sounds/cat_boto.mp3,2020-06-08_15h16.03.905,TranslationElicitation_spa,3.2.4,Win32,60,5ede198e9586fe02aecca093,6.741000175,1,0,80,12,1,79
,,,,,,,,,,,,,,,,,,,,,,,,,,,,,,,,,,,,,,,,,,,,,117,boto,Catalan,Sounds/cat_boto.mp3,2020-06-08_15h16.03.905,TranslationElicitation_spa,3.2.4,Win32,60,5ede198e9586fe02aecca093,,1,0,80,12,1,79
,,,,,,,,,,,,,,,,,,,,,,,,,,,,,,,,,,,g,1.565999985,G,FALSE,,,,,,,139,galleda,Catalan,Sounds/cat_galleda.mp3,2020-06-08_15h16.03.905,TranslationElicitation_spa,3.2.4,Win32,60,5ede198e9586fe02aecca093,,1,0,80,34,1,79
,,,,,,,,,,,,,,,,,,,,,,,,,,,,,,,,,,,a,1.766000032,GA,FALSE,,,,,,,139,galleda,Catalan,Sounds/cat_galleda.mp3,2020-06-08_15h16.03.905,TranslationElicitation_spa,3.2.4,Win32,60,5ede198e9586fe02aecca093,,1,0,80,34,1,79
,,,,,,,,,,,,,,,,,,,,,,,,,,,,,,,,,,,l,1.981999874,GAL,FALSE,,,,,,,139,galleda,Catalan,Sounds/cat_galleda.mp3,2020-06-08_15h16.03.905,TranslationElicitation_spa,3.2.4,Win32,60,5ede198e9586fe02aecca093,,1,0,80,34,1,79
,,,,,,,,,,,,,,,,,,,,,,,,,,,,,,,,,,,l,2.132999897,GALL,FALSE,,,,,,,139,galleda,Catalan,Sounds/cat_galleda.mp3,2020-06-08_15h16.03.905,TranslationElicitation_spa,3.2.4,Win32,60,5ede198e9586fe02aecca093,,1,0,80,34,1,79
,,,,,,,,,,,,,,,,,,,,,,,,,,,,,,,,,,,e,2.299999952,GALLE,FALSE,,,,,,,139,galleda,Catalan,Sounds/cat_galleda.mp3,2020-06-08_15h16.03.905,TranslationElicitation_spa,3.2.4,Win32,60,5ede198e9586fe02aecca093,,1,0,80,34,1,79
,,,,,,,,,,,,,,,,,,,,,,,,,,,,,,,,,,,t,2.965999842,GALLET,FALSE,,,,,,,139,galleda,Catalan,Sounds/cat_galleda.mp3,2020-06-08_15h16.03.905,TranslationElicitation_spa,3.2.4,Win32,60,5ede198e9586fe02aecca093,,1,0,80,34,1,79
,,,,,,,,,,,,,,,,,,,,,,,,,,,,,,,,,,,a,3.049000025,GALLETA,FALSE,,,,,,,139,galleda,Catalan,Sounds/cat_galleda.mp3,2020-06-08_15h16.03.905,TranslationElicitation_spa,3.2.4,Win32,60,5ede198e9586fe02aecca093,,1,0,80,34,1,79
,,,,,,,,,,,,,,,,,,,,,,,,,,,,,,,,,,,return,3.665999889,,FALSE,,,,,,,139,galleda,Catalan,Sounds/cat_galleda.mp3,2020-06-08_15h16.03.905,TranslationElicitation_spa,3.2.4,Win32,60,5ede198e9586fe02aecca093,3.665999889,1,0,80,34,1,79
,,,,,,,,,,,,,,,,,,,,,,,,,,,,,,,,,,,,,,,,,,,,,139,galleda,Catalan,Sounds/cat_galleda.mp3,2020-06-08_15h16.03.905,TranslationElicitation_spa,3.2.4,Win32,60,5ede198e9586fe02aecca093,,1,0,80,34,1,79
,,,,,,,,,,,,,,,,,,,,,,,,,,,,,,,,,,,b,11.37999988,B,FALSE,,,,,,,118,bou,Catalan,Sounds/cat_bou.mp3,2020-06-08_15h16.03.905,TranslationElicitation_spa,3.2.4,Win32,60,5ede198e9586fe02aecca093,,1,0,80,13,1,79
,,,,,,,,,,,,,,,,,,,,,,,,,,,,,,,,,,,u,13.81299996,BU,FALSE,,,,,,,118,bou,Catalan,Sounds/cat_bou.mp3,2020-06-08_15h16.03.905,TranslationElicitation_spa,3.2.4,Win32,60,5ede198e9586fe02aecca093,,1,0,80,13,1,79
,,,,,,,,,,,,,,,,,,,,,,,,,,,,,,,,,,,e,14.01300001,BUE,FALSE,,,,,,,118,bou,Catalan,Sounds/cat_bou.mp3,2020-06-08_15h16.03.905,TranslationElicitation_spa,3.2.4,Win32,60,5ede198e9586fe02aecca093,,1,0,80,13,1,79
,,,,,,,,,,,,,,,,,,,,,,,,,,,,,,,,,,,n,14.07999992,BUEN,FALSE,,,,,,,118,bou,Catalan,Sounds/cat_bou.mp3,2020-06-08_15h16.03.905,TranslationElicitation_spa,3.2.4,Win32,60,5ede198e9586fe02aecca093,,1,0,80,13,1,79
,,,,,,,,,,,,,,,,,,,,,,,,,,,,,,,,,,,return,15.11299992,,FALSE,,,,,,,118,bou,Catalan,Sounds/cat_bou.mp3,2020-06-08_15h16.03.905,TranslationElicitation_spa,3.2.4,Win32,60,5ede198e9586fe02aecca093,15.11299992,1,0,80,13,1,79
,,,,,,,,,,,,,,,,,,,,,,,,,,,,,,,,,,,,,,,,,,,,,118,bou,Catalan,Sounds/cat_bou.mp3,2020-06-08_15h16.03.905,TranslationElicitation_spa,3.2.4,Win32,60,5ede198e9586fe02aecca093,,1,0,80,13,1,79
,,,,,,,,,,,,,,,,,,,,,,,,,,,,,,,,,,,c,1.505000114,C,FALSE,,,,,,,121,camisa,Catalan,Sounds/cat_camisa.mp3,2020-06-08_15h16.03.905,TranslationElicitation_spa,3.2.4,Win32,60,5ede198e9586fe02aecca093,,1,0,80,16,1,79
,,,,,,,,,,,,,,,,,,,,,,,,,,,,,,,,,,,a,1.72300005,CA,FALSE,,,,,,,121,camisa,Catalan,Sounds/cat_camisa.mp3,2020-06-08_15h16.03.905,TranslationElicitation_spa,3.2.4,Win32,60,5ede198e9586fe02aecca093,,1,0,80,16,1,79
,,,,,,,,,,,,,,,,,,,,,,,,,,,,,,,,,,,m,1.904999971,CAM,FALSE,,,,,,,121,camisa,Catalan,Sounds/cat_camisa.mp3,2020-06-08_15h16.03.905,TranslationElicitation_spa,3.2.4,Win32,60,5ede198e9586fe02aecca093,,1,0,80,16,1,79
,,,,,,,,,,,,,,,,,,,,,,,,,,,,,,,,,,,i,2.039999962,CAMI,FALSE,,,,,,,121,camisa,Catalan,Sounds/cat_camisa.mp3,2020-06-08_15h16.03.905,TranslationElicitation_spa,3.2.4,Win32,60,5ede198e9586fe02aecca093,,1,0,80,16,1,79
,,,,,,,,,,,,,,,,,,,,,,,,,,,,,,,,,,,s,2.192000151,CAMIS,FALSE,,,,,,,121,camisa,Catalan,Sounds/cat_camisa.mp3,2020-06-08_15h16.03.905,TranslationElicitation_spa,3.2.4,Win32,60,5ede198e9586fe02aecca093,,1,0,80,16,1,79
,,,,,,,,,,,,,,,,,,,,,,,,,,,,,,,,,,,a,2.292000055,CAMISA,FALSE,,,,,,,121,camisa,Catalan,Sounds/cat_camisa.mp3,2020-06-08_15h16.03.905,TranslationElicitation_spa,3.2.4,Win32,60,5ede198e9586fe02aecca093,,1,0,80,16,1,79
,,,,,,,,,,,,,,,,,,,,,,,,,,,,,,,,,,,return,2.721000195,,FALSE,,,,,,,121,camisa,Catalan,Sounds/cat_camisa.mp3,2020-06-08_15h16.03.905,TranslationElicitation_spa,3.2.4,Win32,60,5ede198e9586fe02aecca093,2.721000195,1,0,80,16,1,79
,,,,,,,,,,,,,,,,,,,,,,,,,,,,,,,,,,,,,,,,,,,,,121,camisa,Catalan,Sounds/cat_camisa.mp3,2020-06-08_15h16.03.905,TranslationElicitation_spa,3.2.4,Win32,60,5ede198e9586fe02aecca093,,1,0,80,16,1,79
,,,,,,,,,,,,,,,,,,,,,,,,,,,,,,,,,,,t,6.030999899,T,FALSE,,,,,,,178,taronja,Catalan,Sounds/cat_taronja.mp3,2020-06-08_15h16.03.905,TranslationElicitation_spa,3.2.4,Win32,60,5ede198e9586fe02aecca093,,1,0,80,70,1,79
,,,,,,,,,,,,,,,,,,,,,,,,,,,,,,,,,,,r,6.146999836,TR,FALSE,,,,,,,178,taronja,Catalan,Sounds/cat_taronja.mp3,2020-06-08_15h16.03.905,TranslationElicitation_spa,3.2.4,Win32,60,5ede198e9586fe02aecca093,,1,0,80,70,1,79
,,,,,,,,,,,,,,,,,,,,,,,,,,,,,,,,,,,a,6.849999905,TRA,FALSE,,,,,,,178,taronja,Catalan,Sounds/cat_taronja.mp3,2020-06-08_15h16.03.905,TranslationElicitation_spa,3.2.4,Win32,60,5ede198e9586fe02aecca093,,1,0,80,70,1,79
,,,,,,,,,,,,,,,,,,,,,,,,,,,,,,,,,,,j,7.065999985,TRAJ,FALSE,,,,,,,178,taronja,Catalan,Sounds/cat_taronja.mp3,2020-06-08_15h16.03.905,TranslationElicitation_spa,3.2.4,Win32,60,5ede198e9586fe02aecca093,,1,0,80,70,1,79
,,,,,,,,,,,,,,,,,,,,,,,,,,,,,,,,,,,e,7.761999846,TRAJE,FALSE,,,,,,,178,taronja,Catalan,Sounds/cat_taronja.mp3,2020-06-08_15h16.03.905,TranslationElicitation_spa,3.2.4,Win32,60,5ede198e9586fe02aecca093,,1,0,80,70,1,79
,,,,,,,,,,,,,,,,,,,,,,,,,,,,,,,,,,,return,45.76999998,,FALSE,,,,,,,178,taronja,Catalan,Sounds/cat_taronja.mp3,2020-06-08_15h16.03.905,TranslationElicitation_spa,3.2.4,Win32,60,5ede198e9586fe02aecca093,45.76999998,1,0,80,70,1,79
,,,,,,,,,,,,,,,,,,,,,,,,,,,,,,,,,,,,,,,,,,,,,178,taronja,Catalan,Sounds/cat_taronja.mp3,2020-06-08_15h16.03.905,TranslationElicitation_spa,3.2.4,Win32,60,5ede198e9586fe02aecca093,,1,0,80,70,1,79
,,,,,,,,,,,,,,,,,,,,,,,,,,,,,,,,,,,g,3.304000139,G,FALSE,,,,,,,145,got,Catalan,Sounds/cat_got.mp3,2020-06-08_15h16.03.905,TranslationElicitation_spa,3.2.4,Win32,60,5ede198e9586fe02aecca093,,1,0,80,40,1,79
,,,,,,,,,,,,,,,,,,,,,,,,,,,,,,,,,,,o,3.404000044,GO,FALSE,,,,,,,145,got,Catalan,Sounds/cat_got.mp3,2020-06-08_15h16.03.905,TranslationElicitation_spa,3.2.4,Win32,60,5ede198e9586fe02aecca093,,1,0,80,40,1,79
,,,,,,,,,,,,,,,,,,,,,,,,,,,,,,,,,,,l,3.584000111,GOL,FALSE,,,,,,,145,got,Catalan,Sounds/cat_got.mp3,2020-06-08_15h16.03.905,TranslationElicitation_spa,3.2.4,Win32,60,5ede198e9586fe02aecca093,,1,0,80,40,1,79
,,,,,,,,,,,,,,,,,,,,,,,,,,,,,,,,,,,return,5.153000116,,FALSE,,,,,,,145,got,Catalan,Sounds/cat_got.mp3,2020-06-08_15h16.03.905,TranslationElicitation_spa,3.2.4,Win32,60,5ede198e9586fe02aecca093,5.15199995,1,0,80,40,1,79
,,,,,,,,,,,,,,,,,,,,,,,,,,,,,,,,,,,,,,,,,,,,,145,got,Catalan,Sounds/cat_got.mp3,2020-06-08_15h16.03.905,TranslationElicitation_spa,3.2.4,Win32,60,5ede198e9586fe02aecca093,,1,0,80,40,1,79
,,,,,,,,,,,,,,,,,,,,,,,,,,,,,,,,,,,b,16.0480001,B,FALSE,,,,,,,187,vaixell,Catalan,Sounds/cat_vaixell.mp3,2020-06-08_15h16.03.905,TranslationElicitation_spa,3.2.4,Win32,60,5ede198e9586fe02aecca093,,1,0,80,77,1,79
,,,,,,,,,,,,,,,,,,,,,,,,,,,,,,,,,,,o,16.18400002,BO,FALSE,,,,,,,187,vaixell,Catalan,Sounds/cat_vaixell.mp3,2020-06-08_15h16.03.905,TranslationElicitation_spa,3.2.4,Win32,60,5ede198e9586fe02aecca093,,1,0,80,77,1,79
,,,,,,,,,,,,,,,,,,,,,,,,,,,,,,,,,,,backspace,63.1960001,,TRUE,,,,,,,187,vaixell,Catalan,Sounds/cat_vaixell.mp3,2020-06-08_15h16.03.905,TranslationElicitation_spa,3.2.4,Win32,60,5ede198e9586fe02aecca093,,1,0,80,77,1,79
,,,,,,,,,,,,,,,,,,,,,,,,,,,,,,,,,,,b,64.31100011,B,TRUE,,,,,,,187,vaixell,Catalan,Sounds/cat_vaixell.mp3,2020-06-08_15h16.03.905,TranslationElicitation_spa,3.2.4,Win32,60,5ede198e9586fe02aecca093,,1,0,80,77,1,79
,,,,,,,,,,,,,,,,,,,,,,,,,,,,,,,,,,,r,64.74600005,BR,TRUE,,,,,,,187,vaixell,Catalan,Sounds/cat_vaixell.mp3,2020-06-08_15h16.03.905,TranslationElicitation_spa,3.2.4,Win32,60,5ede198e9586fe02aecca093,,1,0,80,77,1,79
,,,,,,,,,,,,,,,,,,,,,,,,,,,,,,,,,,,o,64.84599996,BRO,TRUE,,,,,,,187,vaixell,Catalan,Sounds/cat_vaixell.mp3,2020-06-08_15h16.03.905,TranslationElicitation_spa,3.2.4,Win32,60,5ede198e9586fe02aecca093,,1,0,80,77,1,79
,,,,,,,,,,,,,,,,,,,,,,,,,,,,,,,,,,,c,65.47900009,BROC,TRUE,,,,,,,187,vaixell,Catalan,Sounds/cat_vaixell.mp3,2020-06-08_15h16.03.905,TranslationElicitation_spa,3.2.4,Win32,60,5ede198e9586fe02aecca093,,1,0,80,77,1,79
,,,,,,,,,,,,,,,,,,,,,,,,,,,,,,,,,,,h,65.63000011,BROCH,TRUE,,,,,,,187,vaixell,Catalan,Sounds/cat_vaixell.mp3,2020-06-08_15h16.03.905,TranslationElicitation_spa,3.2.4,Win32,60,5ede198e9586fe02aecca093,,1,0,80,77,1,79
,,,,,,,,,,,,,,,,,,,,,,,,,,,,,,,,,,,e,65.94700003,BROCHE,TRUE,,,,,,,187,vaixell,Catalan,Sounds/cat_vaixell.mp3,2020-06-08_15h16.03.905,TranslationElicitation_spa,3.2.4,Win32,60,5ede198e9586fe02aecca093,,1,0,80,77,1,79
,,,,,,,,,,,,,,,,,,,,,,,,,,,,,,,,,,,return,66.49499989,,TRUE,,,,,,,187,vaixell,Catalan,Sounds/cat_vaixell.mp3,2020-06-08_15h16.03.905,TranslationElicitation_spa,3.2.4,Win32,60,5ede198e9586fe02aecca093,66.49499989,1,0,80,77,1,79
,,,,,,,,,,,,,,,,,,,,,,,,,,,,,,,,,,,,,,,,,,,,,187,vaixell,Catalan,Sounds/cat_vaixell.mp3,2020-06-08_15h16.03.905,TranslationElicitation_spa,3.2.4,Win32,60,5ede198e9586fe02aecca093,,1,0,80,77,1,79
,,,,,,,,,,,,,,,,,,,,,,,,,,,,,,,,,,,p,1.973999977,P,FALSE,,,,,,,162,pa,Catalan,Sounds/cat_pa.mp3,2020-06-08_15h16.03.905,TranslationElicitation_spa,3.2.4,Win32,60,5ede198e9586fe02aecca093,,1,0,80,55,1,79
,,,,,,,,,,,,,,,,,,,,,,,,,,,,,,,,,,,a,2.157000065,PA,FALSE,,,,,,,162,pa,Catalan,Sounds/cat_pa.mp3,2020-06-08_15h16.03.905,TranslationElicitation_spa,3.2.4,Win32,60,5ede198e9586fe02aecca093,,1,0,80,55,1,79
,,,,,,,,,,,,,,,,,,,,,,,,,,,,,,,,,,,n,2.256999969,PAN,FALSE,,,,,,,162,pa,Catalan,Sounds/cat_pa.mp3,2020-06-08_15h16.03.905,TranslationElicitation_spa,3.2.4,Win32,60,5ede198e9586fe02aecca093,,1,0,80,55,1,79
,,,,,,,,,,,,,,,,,,,,,,,,,,,,,,,,,,,return,2.55700016,,FALSE,,,,,,,162,pa,Catalan,Sounds/cat_pa.mp3,2020-06-08_15h16.03.905,TranslationElicitation_spa,3.2.4,Win32,60,5ede198e9586fe02aecca093,2.55700016,1,0,80,55,1,79
,,,,,,,,,,,,,,,,,,,,,,,,,,,,,,,,,,,,,,,,,,,,,162,pa,Catalan,Sounds/cat_pa.mp3,2020-06-08_15h16.03.905,TranslationElicitation_spa,3.2.4,Win32,60,5ede198e9586fe02aecca093,,1,0,80,55,1,79
,,,,,,,,,,,,,,,,,,,,,,,,,,,,,,,,,,,g,1.680999994,G,FALSE,,,,,,,140,gat,Catalan,Sounds/cat_gat.mp3,2020-06-08_15h16.03.905,TranslationElicitation_spa,3.2.4,Win32,60,5ede198e9586fe02aecca093,,1,0,80,35,1,79
,,,,,,,,,,,,,,,,,,,,,,,,,,,,,,,,,,,a,1.881000042,GA,FALSE,,,,,,,140,gat,Catalan,Sounds/cat_gat.mp3,2020-06-08_15h16.03.905,TranslationElicitation_spa,3.2.4,Win32,60,5ede198e9586fe02aecca093,,1,0,80,35,1,79
,,,,,,,,,,,,,,,,,,,,,,,,,,,,,,,,,,,t,1.930999994,GAT,FALSE,,,,,,,140,gat,Catalan,Sounds/cat_gat.mp3,2020-06-08_15h16.03.905,TranslationElicitation_spa,3.2.4,Win32,60,5ede198e9586fe02aecca093,,1,0,80,35,1,79
,,,,,,,,,,,,,,,,,,,,,,,,,,,,,,,,,,,o,2.661999941,GATO,FALSE,,,,,,,140,gat,Catalan,Sounds/cat_gat.mp3,2020-06-08_15h16.03.905,TranslationElicitation_spa,3.2.4,Win32,60,5ede198e9586fe02aecca093,,1,0,80,35,1,79
,,,,,,,,,,,,,,,,,,,,,,,,,,,,,,,,,,,return,3.217000008,,FALSE,,,,,,,140,gat,Catalan,Sounds/cat_gat.mp3,2020-06-08_15h16.03.905,TranslationElicitation_spa,3.2.4,Win32,60,5ede198e9586fe02aecca093,3.21600008,1,0,80,35,1,79
,,,,,,,,,,,,,,,,,,,,,,,,,,,,,,,,,,,,,,,,,,,,,140,gat,Catalan,Sounds/cat_gat.mp3,2020-06-08_15h16.03.905,TranslationElicitation_spa,3.2.4,Win32,60,5ede198e9586fe02aecca093,,1,0,80,35,1,79
,,,,,,,,,,,,,,,,,,,,,,,,,,,,,,,,,,,a,2.029999971,A,FALSE,,,,,,,133,estruc,Catalan,Sounds/cat_estruc.mp3,2020-06-08_15h16.03.905,TranslationElicitation_spa,3.2.4,Win32,60,5ede198e9586fe02aecca093,,1,0,80,28,1,79
,,,,,,,,,,,,,,,,,,,,,,,,,,,,,,,,,,,v,2.299000025,AV,FALSE,,,,,,,133,estruc,Catalan,Sounds/cat_estruc.mp3,2020-06-08_15h16.03.905,TranslationElicitation_spa,3.2.4,Win32,60,5ede198e9586fe02aecca093,,1,0,80,28,1,79
,,,,,,,,,,,,,,,,,,,,,,,,,,,,,,,,,,,e,2.430000067,AVE,FALSE,,,,,,,133,estruc,Catalan,Sounds/cat_estruc.mp3,2020-06-08_15h16.03.905,TranslationElicitation_spa,3.2.4,Win32,60,5ede198e9586fe02aecca093,,1,0,80,28,1,79
,,,,,,,,,,,,,,,,,,,,,,,,,,,,,,,,,,,s,2.663000107,AVES,FALSE,,,,,,,133,estruc,Catalan,Sounds/cat_estruc.mp3,2020-06-08_15h16.03.905,TranslationElicitation_spa,3.2.4,Win32,60,5ede198e9586fe02aecca093,,1,0,80,28,1,79
,,,,,,,,,,,,,,,,,,,,,,,,,,,,,,,,,,,t,2.986999989,AVEST,FALSE,,,,,,,133,estruc,Catalan,Sounds/cat_estruc.mp3,2020-06-08_15h16.03.905,TranslationElicitation_spa,3.2.4,Win32,60,5ede198e9586fe02aecca093,,1,0,80,28,1,79
,,,,,,,,,,,,,,,,,,,,,,,,,,,,,,,,,,,r,3.09800005,AVESTR,FALSE,,,,,,,133,estruc,Catalan,Sounds/cat_estruc.mp3,2020-06-08_15h16.03.905,TranslationElicitation_spa,3.2.4,Win32,60,5ede198e9586fe02aecca093,,1,0,80,28,1,79
,,,,,,,,,,,,,,,,,,,,,,,,,,,,,,,,,,,u,3.263999939,AVESTRU,FALSE,,,,,,,133,estruc,Catalan,Sounds/cat_estruc.mp3,2020-06-08_15h16.03.905,TranslationElicitation_spa,3.2.4,Win32,60,5ede198e9586fe02aecca093,,1,0,80,28,1,79
,,,,,,,,,,,,,,,,,,,,,,,,,,,,,,,,,,,z,3.598999977,AVESTRUZ,FALSE,,,,,,,133,estruc,Catalan,Sounds/cat_estruc.mp3,2020-06-08_15h16.03.905,TranslationElicitation_spa,3.2.4,Win32,60,5ede198e9586fe02aecca093,,1,0,80,28,1,79
,,,,,,,,,,,,,,,,,,,,,,,,,,,,,,,,,,,return,4.243000031,,FALSE,,,,,,,133,estruc,Catalan,Sounds/cat_estruc.mp3,2020-06-08_15h16.03.905,TranslationElicitation_spa,3.2.4,Win32,60,5ede198e9586fe02aecca093,4.243000031,1,0,80,28,1,79
,,,,,,,,,,,,,,,,,,,,,,,,,,,,,,,,,,,,,,,,,,,,,133,estruc,Catalan,Sounds/cat_estruc.mp3,2020-06-08_15h16.03.905,TranslationElicitation_spa,3.2.4,Win32,60,5ede198e9586fe02aecca093,,1,0,80,28,1,79
,,,,,,,,,,,,,,,,,,,,,,,,,,,,,,,,,,,t,1.217000008,T,FALSE,,,,,,,181,tobogan,Catalan,Sounds/cat_tobogan.mp3,2020-06-08_15h16.03.905,TranslationElicitation_spa,3.2.4,Win32,60,5ede198e9586fe02aecca093,,1,0,80,72,1,79
,,,,,,,,,,,,,,,,,,,,,,,,,,,,,,,,,,,o,1.417000055,TO,FALSE,,,,,,,181,tobogan,Catalan,Sounds/cat_tobogan.mp3,2020-06-08_15h16.03.905,TranslationElicitation_spa,3.2.4,Win32,60,5ede198e9586fe02aecca093,,1,0,80,72,1,79
,,,,,,,,,,,,,,,,,,,,,,,,,,,,,,,,,,,b,1.502000093,TOB,FALSE,,,,,,,181,tobogan,Catalan,Sounds/cat_tobogan.mp3,2020-06-08_15h16.03.905,TranslationElicitation_spa,3.2.4,Win32,60,5ede198e9586fe02aecca093,,1,0,80,72,1,79
,,,,,,,,,,,,,,,,,,,,,,,,,,,,,,,,,,,o,1.603000164,TOBO,FALSE,,,,,,,181,tobogan,Catalan,Sounds/cat_tobogan.mp3,2020-06-08_15h16.03.905,TranslationElicitation_spa,3.2.4,Win32,60,5ede198e9586fe02aecca093,,1,0,80,72,1,79
,,,,,,,,,,,,,,,,,,,,,,,,,,,,,,,,,,,g,1.917999983,TOBOG,FALSE,,,,,,,181,tobogan,Catalan,Sounds/cat_tobogan.mp3,2020-06-08_15h16.03.905,TranslationElicitation_spa,3.2.4,Win32,60,5ede198e9586fe02aecca093,,1,0,80,72,1,79
,,,,,,,,,,,,,,,,,,,,,,,,,,,,,,,,,,,a,2.221000195,TOBOGA,FALSE,,,,,,,181,tobogan,Catalan,Sounds/cat_tobogan.mp3,2020-06-08_15h16.03.905,TranslationElicitation_spa,3.2.4,Win32,60,5ede198e9586fe02aecca093,,1,0,80,72,1,79
,,,,,,,,,,,,,,,,,,,,,,,,,,,,,,,,,,,n,2.327000141,TOBOGAN,FALSE,,,,,,,181,tobogan,Catalan,Sounds/cat_tobogan.mp3,2020-06-08_15h16.03.905,TranslationElicitation_spa,3.2.4,Win32,60,5ede198e9586fe02aecca093,,1,0,80,72,1,79
,,,,,,,,,,,,,,,,,,,,,,,,,,,,,,,,,,,return,2.827000141,,FALSE,,,,,,,181,tobogan,Catalan,Sounds/cat_tobogan.mp3,2020-06-08_15h16.03.905,TranslationElicitation_spa,3.2.4,Win32,60,5ede198e9586fe02aecca093,2.827000141,1,0,80,72,1,79
,,,,,,,,,,,,,,,,,,,,,,,,,,,,,,,,,,,,,,,,,,,,,181,tobogan,Catalan,Sounds/cat_tobogan.mp3,2020-06-08_15h16.03.905,TranslationElicitation_spa,3.2.4,Win32,60,5ede198e9586fe02aecca093,,1,0,80,72,1,79
,,,,,,,,,,,,,,,,,,,,,,,,,,,,,,,,,,,a,29.77999997,A,FALSE,,,,,,,160,orella,Catalan,Sounds/cat_orella.mp3,2020-06-08_15h16.03.905,TranslationElicitation_spa,3.2.4,Win32,60,5ede198e9586fe02aecca093,,1,0,80,53,1,79
,,,,,,,,,,,,,,,,,,,,,,,,,,,,,,,,,,,u,29.875,AU,FALSE,,,,,,,160,orella,Catalan,Sounds/cat_orella.mp3,2020-06-08_15h16.03.905,TranslationElicitation_spa,3.2.4,Win32,60,5ede198e9586fe02aecca093,,1,0,80,53,1,79
,,,,,,,,,,,,,,,,,,,,,,,,,,,,,,,,,,,r,30.33999991,AUR,FALSE,,,,,,,160,orella,Catalan,Sounds/cat_orella.mp3,2020-06-08_15h16.03.905,TranslationElicitation_spa,3.2.4,Win32,60,5ede198e9586fe02aecca093,,1,0,80,53,1,79
,,,,,,,,,,,,,,,,,,,,,,,,,,,,,,,,,,,e,30.50699997,AURE,FALSE,,,,,,,160,orella,Catalan,Sounds/cat_orella.mp3,2020-06-08_15h16.03.905,TranslationElicitation_spa,3.2.4,Win32,60,5ede198e9586fe02aecca093,,1,0,80,53,1,79
,,,,,,,,,,,,,,,,,,,,,,,,,,,,,,,,,,,l,31.17499995,AUREL,FALSE,,,,,,,160,orella,Catalan,Sounds/cat_orella.mp3,2020-06-08_15h16.03.905,TranslationElicitation_spa,3.2.4,Win32,60,5ede198e9586fe02aecca093,,1,0,80,53,1,79
,,,,,,,,,,,,,,,,,,,,,,,,,,,,,,,,,,,i,31.33999991,AURELI,FALSE,,,,,,,160,orella,Catalan,Sounds/cat_orella.mp3,2020-06-08_15h16.03.905,TranslationElicitation_spa,3.2.4,Win32,60,5ede198e9586fe02aecca093,,1,0,80,53,1,79
,,,,,,,,,,,,,,,,,,,,,,,,,,,,,,,,,,,a,31.76799989,AURELIA,FALSE,,,,,,,160,orella,Catalan,Sounds/cat_orella.mp3,2020-06-08_15h16.03.905,TranslationElicitation_spa,3.2.4,Win32,60,5ede198e9586fe02aecca093,,1,0,80,53,1,79
,,,,,,,,,,,,,,,,,,,,,,,,,,,,,,,,,,,return,32.12299991,,FALSE,,,,,,,160,orella,Catalan,Sounds/cat_orella.mp3,2020-06-08_15h16.03.905,TranslationElicitation_spa,3.2.4,Win32,60,5ede198e9586fe02aecca093,32.12299991,1,0,80,53,1,79
,,,,,,,,,,,,,,,,,,,,,,,,,,,,,,,,,,,,,,,,,,,,,160,orella,Catalan,Sounds/cat_orella.mp3,2020-06-08_15h16.03.905,TranslationElicitation_spa,3.2.4,Win32,60,5ede198e9586fe02aecca093,,1,0,80,53,1,79
,,,,,,,,,,,,,,,,,,,,,,,,,,,,,,,,,,,t,1.622000217,T,FALSE,,,,,,,182,tomaquet,Catalan,Sounds/cat_tomaquet.mp3,2020-06-08_15h16.03.905,TranslationElicitation_spa,3.2.4,Win32,60,5ede198e9586fe02aecca093,,1,0,80,73,1,79
,,,,,,,,,,,,,,,,,,,,,,,,,,,,,,,,,,,o,1.690000057,TO,FALSE,,,,,,,182,tomaquet,Catalan,Sounds/cat_tomaquet.mp3,2020-06-08_15h16.03.905,TranslationElicitation_spa,3.2.4,Win32,60,5ede198e9586fe02aecca093,,1,0,80,73,1,79
,,,,,,,,,,,,,,,,,,,,,,,,,,,,,,,,,,,m,1.923000097,TOM,FALSE,,,,,,,182,tomaquet,Catalan,Sounds/cat_tomaquet.mp3,2020-06-08_15h16.03.905,TranslationElicitation_spa,3.2.4,Win32,60,5ede198e9586fe02aecca093,,1,0,80,73,1,79
,,,,,,,,,,,,,,,,,,,,,,,,,,,,,,,,,,,a,2.024000168,TOMA,FALSE,,,,,,,182,tomaquet,Catalan,Sounds/cat_tomaquet.mp3,2020-06-08_15h16.03.905,TranslationElicitation_spa,3.2.4,Win32,60,5ede198e9586fe02aecca093,,1,0,80,73,1,79
,,,,,,,,,,,,,,,,,,,,,,,,,,,,,,,,,,,t,2.2900002,TOMAT,FALSE,,,,,,,182,tomaquet,Catalan,Sounds/cat_tomaquet.mp3,2020-06-08_15h16.03.905,TranslationElicitation_spa,3.2.4,Win32,60,5ede198e9586fe02aecca093,,1,0,80,73,1,79
,,,,,,,,,,,,,,,,,,,,,,,,,,,,,,,,,,,e,2.423000097,TOMATE,FALSE,,,,,,,182,tomaquet,Catalan,Sounds/cat_tomaquet.mp3,2020-06-08_15h16.03.905,TranslationElicitation_spa,3.2.4,Win32,60,5ede198e9586fe02aecca093,,1,0,80,73,1,79
,,,,,,,,,,,,,,,,,,,,,,,,,,,,,,,,,,,return,3.090000153,,FALSE,,,,,,,182,tomaquet,Catalan,Sounds/cat_tomaquet.mp3,2020-06-08_15h16.03.905,TranslationElicitation_spa,3.2.4,Win32,60,5ede198e9586fe02aecca093,3.090000153,1,0,80,73,1,79
,,,,,,,,,,,,,,,,,,,,,,,,,,,,,,,,,,,,,,,,,,,,,182,tomaquet,Catalan,Sounds/cat_tomaquet.mp3,2020-06-08_15h16.03.905,TranslationElicitation_spa,3.2.4,Win32,60,5ede198e9586fe02aecca093,,1,0,80,73,1,79
,,,,,,,,,,,,,,,,,,,,,,,,,,,,,,,,,,,l,1.361000061,L,FALSE,,,,,,,168,planta,Catalan,Sounds/cat_planta.mp3,2020-06-08_15h16.03.905,TranslationElicitation_spa,3.2.4,Win32,60,5ede198e9586fe02aecca093,,1,0,80,60,1,79
,,,,,,,,,,,,,,,,,,,,,,,,,,,,,,,,,,,a,1.561000109,LA,FALSE,,,,,,,168,planta,Catalan,Sounds/cat_planta.mp3,2020-06-08_15h16.03.905,TranslationElicitation_spa,3.2.4,Win32,60,5ede198e9586fe02aecca093,,1,0,80,60,1,79
,,,,,,,,,,,,,,,,,,,,,,,,,,,,,,,,,,,n,1.659000158,LAN,FALSE,,,,,,,168,planta,Catalan,Sounds/cat_planta.mp3,2020-06-08_15h16.03.905,TranslationElicitation_spa,3.2.4,Win32,60,5ede198e9586fe02aecca093,,1,0,80,60,1,79
,,,,,,,,,,,,,,,,,,,,,,,,,,,,,,,,,,,t,1.927999973,LANT,FALSE,,,,,,,168,planta,Catalan,Sounds/cat_planta.mp3,2020-06-08_15h16.03.905,TranslationElicitation_spa,3.2.4,Win32,60,5ede198e9586fe02aecca093,,1,0,80,60,1,79
,,,,,,,,,,,,,,,,,,,,,,,,,,,,,,,,,,,a,2.060000181,LANTA,FALSE,,,,,,,168,planta,Catalan,Sounds/cat_planta.mp3,2020-06-08_15h16.03.905,TranslationElicitation_spa,3.2.4,Win32,60,5ede198e9586fe02aecca093,,1,0,80,60,1,79
,,,,,,,,,,,,,,,,,,,,,,,,,,,,,,,,,,,backspace,2.613000154,LAN,TRUE,,,,,,,168,planta,Catalan,Sounds/cat_planta.mp3,2020-06-08_15h16.03.905,TranslationElicitation_spa,3.2.4,Win32,60,5ede198e9586fe02aecca093,,1,0,80,60,1,79
,,,,,,,,,,,,,,,,,,,,,,,,,,,,,,,,,,,backspace,3.127000093,L,TRUE,,,,,,,168,planta,Catalan,Sounds/cat_planta.mp3,2020-06-08_15h16.03.905,TranslationElicitation_spa,3.2.4,Win32,60,5ede198e9586fe02aecca093,,1,0,80,60,1,79
,,,,,,,,,,,,,,,,,,,,,,,,,,,,,,,,,,,backspace,3.160000086,,TRUE,,,,,,,168,planta,Catalan,Sounds/cat_planta.mp3,2020-06-08_15h16.03.905,TranslationElicitation_spa,3.2.4,Win32,60,5ede198e9586fe02aecca093,,1,0,80,60,1,79
,,,,,,,,,,,,,,,,,,,,,,,,,,,,,,,,,,,backspace,3.196000099,,TRUE,,,,,,,168,planta,Catalan,Sounds/cat_planta.mp3,2020-06-08_15h16.03.905,TranslationElicitation_spa,3.2.4,Win32,60,5ede198e9586fe02aecca093,,1,0,80,60,1,79
,,,,,,,,,,,,,,,,,,,,,,,,,,,,,,,,,,,backspace,3.226999998,,TRUE,,,,,,,168,planta,Catalan,Sounds/cat_planta.mp3,2020-06-08_15h16.03.905,TranslationElicitation_spa,3.2.4,Win32,60,5ede198e9586fe02aecca093,,1,0,80,60,1,79
,,,,,,,,,,,,,,,,,,,,,,,,,,,,,,,,,,,backspace,3.25999999,,TRUE,,,,,,,168,planta,Catalan,Sounds/cat_planta.mp3,2020-06-08_15h16.03.905,TranslationElicitation_spa,3.2.4,Win32,60,5ede198e9586fe02aecca093,,1,0,80,60,1,79
,,,,,,,,,,,,,,,,,,,,,,,,,,,,,,,,,,,backspace,3.295000076,,TRUE,,,,,,,168,planta,Catalan,Sounds/cat_planta.mp3,2020-06-08_15h16.03.905,TranslationElicitation_spa,3.2.4,Win32,60,5ede198e9586fe02aecca093,,1,0,80,60,1,79
,,,,,,,,,,,,,,,,,,,,,,,,,,,,,,,,,,,backspace,3.327000141,,TRUE,,,,,,,168,planta,Catalan,Sounds/cat_planta.mp3,2020-06-08_15h16.03.905,TranslationElicitation_spa,3.2.4,Win32,60,5ede198e9586fe02aecca093,,1,0,80,60,1,79
,,,,,,,,,,,,,,,,,,,,,,,,,,,,,,,,,,,backspace,3.360000134,,TRUE,,,,,,,168,planta,Catalan,Sounds/cat_planta.mp3,2020-06-08_15h16.03.905,TranslationElicitation_spa,3.2.4,Win32,60,5ede198e9586fe02aecca093,,1,0,80,60,1,79
,,,,,,,,,,,,,,,,,,,,,,,,,,,,,,,,,,,backspace,3.394999981,,TRUE,,,,,,,168,planta,Catalan,Sounds/cat_planta.mp3,2020-06-08_15h16.03.905,TranslationElicitation_spa,3.2.4,Win32,60,5ede198e9586fe02aecca093,,1,0,80,60,1,79
,,,,,,,,,,,,,,,,,,,,,,,,,,,,,,,,,,,p,3.75999999,P,TRUE,,,,,,,168,planta,Catalan,Sounds/cat_planta.mp3,2020-06-08_15h16.03.905,TranslationElicitation_spa,3.2.4,Win32,60,5ede198e9586fe02aecca093,,1,0,80,60,1,79
,,,,,,,,,,,,,,,,,,,,,,,,,,,,,,,,,,,l,3.927000046,PL,TRUE,,,,,,,168,planta,Catalan,Sounds/cat_planta.mp3,2020-06-08_15h16.03.905,TranslationElicitation_spa,3.2.4,Win32,60,5ede198e9586fe02aecca093,,1,0,80,60,1,79
,,,,,,,,,,,,,,,,,,,,,,,,,,,,,,,,,,,a,4.042999983,PLA,TRUE,,,,,,,168,planta,Catalan,Sounds/cat_planta.mp3,2020-06-08_15h16.03.905,TranslationElicitation_spa,3.2.4,Win32,60,5ede198e9586fe02aecca093,,1,0,80,60,1,79
,,,,,,,,,,,,,,,,,,,,,,,,,,,,,,,,,,,n,4.161000013,PLAN,TRUE,,,,,,,168,planta,Catalan,Sounds/cat_planta.mp3,2020-06-08_15h16.03.905,TranslationElicitation_spa,3.2.4,Win32,60,5ede198e9586fe02aecca093,,1,0,80,60,1,79
,,,,,,,,,,,,,,,,,,,,,,,,,,,,,,,,,,,t,4.427000046,PLANT,TRUE,,,,,,,168,planta,Catalan,Sounds/cat_planta.mp3,2020-06-08_15h16.03.905,TranslationElicitation_spa,3.2.4,Win32,60,5ede198e9586fe02aecca093,,1,0,80,60,1,79
,,,,,,,,,,,,,,,,,,,,,,,,,,,,,,,,,,,a,4.561000109,PLANTA,TRUE,,,,,,,168,planta,Catalan,Sounds/cat_planta.mp3,2020-06-08_15h16.03.905,TranslationElicitation_spa,3.2.4,Win32,60,5ede198e9586fe02aecca093,,1,0,80,60,1,79
,,,,,,,,,,,,,,,,,,,,,,,,,,,,,,,,,,,return,5.542999983,,TRUE,,,,,,,168,planta,Catalan,Sounds/cat_planta.mp3,2020-06-08_15h16.03.905,TranslationElicitation_spa,3.2.4,Win32,60,5ede198e9586fe02aecca093,5.542999983,1,0,80,60,1,79
,,,,,,,,,,,,,,,,,,,,,,,,,,,,,,,,,,,,,,,,,,,,,168,planta,Catalan,Sounds/cat_planta.mp3,2020-06-08_15h16.03.905,TranslationElicitation_spa,3.2.4,Win32,60,5ede198e9586fe02aecca093,,1,0,80,60,1,79
,,,,,,,,,,,,,,,,,,,,,,,,,,,,,,,,,,,a,1.631999969,A,FALSE,,,,,,,105,aigua,Catalan,Sounds/cat_aigua.mp3,2020-06-08_15h16.03.905,TranslationElicitation_spa,3.2.4,Win32,60,5ede198e9586fe02aecca093,,1,0,80,1,1,79
,,,,,,,,,,,,,,,,,,,,,,,,,,,,,,,,,,,g,1.748000145,AG,FALSE,,,,,,,105,aigua,Catalan,Sounds/cat_aigua.mp3,2020-06-08_15h16.03.905,TranslationElicitation_spa,3.2.4,Win32,60,5ede198e9586fe02aecca093,,1,0,80,1,1,79
,,,,,,,,,,,,,,,,,,,,,,,,,,,,,,,,,,,u,1.866000175,AGU,FALSE,,,,,,,105,aigua,Catalan,Sounds/cat_aigua.mp3,2020-06-08_15h16.03.905,TranslationElicitation_spa,3.2.4,Win32,60,5ede198e9586fe02aecca093,,1,0,80,1,1,79
,,,,,,,,,,,,,,,,,,,,,,,,,,,,,,,,,,,a,1.965000153,AGUA,FALSE,,,,,,,105,aigua,Catalan,Sounds/cat_aigua.mp3,2020-06-08_15h16.03.905,TranslationElicitation_spa,3.2.4,Win32,60,5ede198e9586fe02aecca093,,1,0,80,1,1,79
,,,,,,,,,,,,,,,,,,,,,,,,,,,,,,,,,,,return,2.838000059,,FALSE,,,,,,,105,aigua,Catalan,Sounds/cat_aigua.mp3,2020-06-08_15h16.03.905,TranslationElicitation_spa,3.2.4,Win32,60,5ede198e9586fe02aecca093,2.833000183,1,0,80,1,1,79
,,,,,,,,,,,,,,,,,,,,,,,,,,,,,,,,,,,,,,,,,,,,,105,aigua,Catalan,Sounds/cat_aigua.mp3,2020-06-08_15h16.03.905,TranslationElicitation_spa,3.2.4,Win32,60,5ede198e9586fe02aecca093,,1,0,80,1,1,79
,,,,,,,,,,,,,,,,,,,,,,,,,,,,,,,,,,,s,3.059000015,S,FALSE,,,,,,,115,bolet,Catalan,Sounds/cat_bolet.mp3,2020-06-08_15h16.03.905,TranslationElicitation_spa,3.2.4,Win32,60,5ede198e9586fe02aecca093,,1,0,80,10,1,79
,,,,,,,,,,,,,,,,,,,,,,,,,,,,,,,,,,,e,3.226000071,SE,FALSE,,,,,,,115,bolet,Catalan,Sounds/cat_bolet.mp3,2020-06-08_15h16.03.905,TranslationElicitation_spa,3.2.4,Win32,60,5ede198e9586fe02aecca093,,1,0,80,10,1,79
,,,,,,,,,,,,,,,,,,,,,,,,,,,,,,,,,,,t,3.476000071,SET,FALSE,,,,,,,115,bolet,Catalan,Sounds/cat_bolet.mp3,2020-06-08_15h16.03.905,TranslationElicitation_spa,3.2.4,Win32,60,5ede198e9586fe02aecca093,,1,0,80,10,1,79
,,,,,,,,,,,,,,,,,,,,,,,,,,,,,,,,,,,a,3.813000202,SETA,FALSE,,,,,,,115,bolet,Catalan,Sounds/cat_bolet.mp3,2020-06-08_15h16.03.905,TranslationElicitation_spa,3.2.4,Win32,60,5ede198e9586fe02aecca093,,1,0,80,10,1,79
,,,,,,,,,,,,,,,,,,,,,,,,,,,,,,,,,,,return,4.496999979,,FALSE,,,,,,,115,bolet,Catalan,Sounds/cat_bolet.mp3,2020-06-08_15h16.03.905,TranslationElicitation_spa,3.2.4,Win32,60,5ede198e9586fe02aecca093,4.496999979,1,0,80,10,1,79
,,,,,,,,,,,,,,,,,,,,,,,,,,,,,,,,,,,,,,,,,,,,,115,bolet,Catalan,Sounds/cat_bolet.mp3,2020-06-08_15h16.03.905,TranslationElicitation_spa,3.2.4,Win32,60,5ede198e9586fe02aecca093,,1,0,80,10,1,79
,,,,,,,,,,,,,,,,,,,,,,,,,,,,,,,,,,,l,12.17700005,L,FALSE,,,,,,,148,lleo,Catalan,Sounds/cat_lleo.mp3,2020-06-08_15h16.03.905,TranslationElicitation_spa,3.2.4,Win32,60,5ede198e9586fe02aecca093,,1,0,80,42,1,79
,,,,,,,,,,,,,,,,,,,,,,,,,,,,,,,,,,,backspace,12.69700003,,TRUE,,,,,,,148,lleo,Catalan,Sounds/cat_lleo.mp3,2020-06-08_15h16.03.905,TranslationElicitation_spa,3.2.4,Win32,60,5ede198e9586fe02aecca093,,1,0,80,42,1,79
,,,,,,,,,,,,,,,,,,,,,,,,,,,,,,,,,,,a,13.26399994,A,TRUE,,,,,,,148,lleo,Catalan,Sounds/cat_lleo.mp3,2020-06-08_15h16.03.905,TranslationElicitation_spa,3.2.4,Win32,60,5ede198e9586fe02aecca093,,1,0,80,42,1,79
,,,,,,,,,,,,,,,,,,,,,,,,,,,,,,,,,,,l,13.39399981,AL,TRUE,,,,,,,148,lleo,Catalan,Sounds/cat_lleo.mp3,2020-06-08_15h16.03.905,TranslationElicitation_spa,3.2.4,Win32,60,5ede198e9586fe02aecca093,,1,0,80,42,1,79
,,,,,,,,,,,,,,,,,,,,,,,,,,,,,,,,,,,t,13.66100001,ALT,TRUE,,,,,,,148,lleo,Catalan,Sounds/cat_lleo.mp3,2020-06-08_15h16.03.905,TranslationElicitation_spa,3.2.4,Win32,60,5ede198e9586fe02aecca093,,1,0,80,42,1,79
,,,,,,,,,,,,,,,,,,,,,,,,,,,,,,,,,,,o,13.77799988,ALTO,TRUE,,,,,,,148,lleo,Catalan,Sounds/cat_lleo.mp3,2020-06-08_15h16.03.905,TranslationElicitation_spa,3.2.4,Win32,60,5ede198e9586fe02aecca093,,1,0,80,42,1,79
,,,,,,,,,,,,,,,,,,,,,,,,,,,,,,,,,,,return,14.19799995,,TRUE,,,,,,,148,lleo,Catalan,Sounds/cat_lleo.mp3,2020-06-08_15h16.03.905,TranslationElicitation_spa,3.2.4,Win32,60,5ede198e9586fe02aecca093,14.19799995,1,0,80,42,1,79
,,,,,,,,,,,,,,,,,,,,,,,,,,,,,,,,,,,,,,,,,,,,,148,lleo,Catalan,Sounds/cat_lleo.mp3,2020-06-08_15h16.03.905,TranslationElicitation_spa,3.2.4,Win32,60,5ede198e9586fe02aecca093,,1,0,80,42,1,79
,,,,,,,,,,,,,,,,,,,,,,,,,,,,,,,,,,,g,1.446999788,G,FALSE,,,,,,,146,guitarra,Catalan,Sounds/cat_guitarra.mp3,2020-06-08_15h16.03.905,TranslationElicitation_spa,3.2.4,Win32,60,5ede198e9586fe02aecca093,,1,0,80,41,1,79
,,,,,,,,,,,,,,,,,,,,,,,,,,,,,,,,,,,u,1.678999901,GU,FALSE,,,,,,,146,guitarra,Catalan,Sounds/cat_guitarra.mp3,2020-06-08_15h16.03.905,TranslationElicitation_spa,3.2.4,Win32,60,5ede198e9586fe02aecca093,,1,0,80,41,1,79
,,,,,,,,,,,,,,,,,,,,,,,,,,,,,,,,,,,i,1.846999884,GUI,FALSE,,,,,,,146,guitarra,Catalan,Sounds/cat_guitarra.mp3,2020-06-08_15h16.03.905,TranslationElicitation_spa,3.2.4,Win32,60,5ede198e9586fe02aecca093,,1,0,80,41,1,79
,,,,,,,,,,,,,,,,,,,,,,,,,,,,,,,,,,,t,2.113999844,GUIT,FALSE,,,,,,,146,guitarra,Catalan,Sounds/cat_guitarra.mp3,2020-06-08_15h16.03.905,TranslationElicitation_spa,3.2.4,Win32,60,5ede198e9586fe02aecca093,,1,0,80,41,1,79
,,,,,,,,,,,,,,,,,,,,,,,,,,,,,,,,,,,a,2.263999939,GUITA,FALSE,,,,,,,146,guitarra,Catalan,Sounds/cat_guitarra.mp3,2020-06-08_15h16.03.905,TranslationElicitation_spa,3.2.4,Win32,60,5ede198e9586fe02aecca093,,1,0,80,41,1,79
,,,,,,,,,,,,,,,,,,,,,,,,,,,,,,,,,,,r,2.462999821,GUITAR,FALSE,,,,,,,146,guitarra,Catalan,Sounds/cat_guitarra.mp3,2020-06-08_15h16.03.905,TranslationElicitation_spa,3.2.4,Win32,60,5ede198e9586fe02aecca093,,1,0,80,41,1,79
,,,,,,,,,,,,,,,,,,,,,,,,,,,,,,,,,,,r,2.61500001,GUITARR,FALSE,,,,,,,146,guitarra,Catalan,Sounds/cat_guitarra.mp3,2020-06-08_15h16.03.905,TranslationElicitation_spa,3.2.4,Win32,60,5ede198e9586fe02aecca093,,1,0,80,41,1,79
,,,,,,,,,,,,,,,,,,,,,,,,,,,,,,,,,,,a,2.779999971,GUITARRA,FALSE,,,,,,,146,guitarra,Catalan,Sounds/cat_guitarra.mp3,2020-06-08_15h16.03.905,TranslationElicitation_spa,3.2.4,Win32,60,5ede198e9586fe02aecca093,,1,0,80,41,1,79
,,,,,,,,,,,,,,,,,,,,,,,,,,,,,,,,,,,return,3.592000008,,FALSE,,,,,,,146,guitarra,Catalan,Sounds/cat_guitarra.mp3,2020-06-08_15h16.03.905,TranslationElicitation_spa,3.2.4,Win32,60,5ede198e9586fe02aecca093,3.592000008,1,0,80,41,1,79
,,,,,,,,,,,,,,,,,,,,,,,,,,,,,,,,,,,,,,,,,,,,,146,guitarra,Catalan,Sounds/cat_guitarra.mp3,2020-06-08_15h16.03.905,TranslationElicitation_spa,3.2.4,Win32,60,5ede198e9586fe02aecca093,,1,0,80,41,1,79
,,,,,,,,,,,,,,,,,,,,,,,,,,,,,,,,,,,a,3.513999939,A,FALSE,,,,,,,132,estrella,Catalan,Sounds/cat_estrella.mp3,2020-06-08_15h16.03.905,TranslationElicitation_spa,3.2.4,Win32,60,5ede198e9586fe02aecca093,,1,0,80,27,1,79
,,,,,,,,,,,,,,,,,,,,,,,,,,,,,,,,,,,u,3.613999844,AU,FALSE,,,,,,,132,estrella,Catalan,Sounds/cat_estrella.mp3,2020-06-08_15h16.03.905,TranslationElicitation_spa,3.2.4,Win32,60,5ede198e9586fe02aecca093,,1,0,80,27,1,79
,,,,,,,,,,,,,,,,,,,,,,,,,,,,,,,,,,,s,3.763999939,AUS,FALSE,,,,,,,132,estrella,Catalan,Sounds/cat_estrella.mp3,2020-06-08_15h16.03.905,TranslationElicitation_spa,3.2.4,Win32,60,5ede198e9586fe02aecca093,,1,0,80,27,1,79
,,,,,,,,,,,,,,,,,,,,,,,,,,,,,,,,,,,t,3.98300004,AUST,FALSE,,,,,,,132,estrella,Catalan,Sounds/cat_estrella.mp3,2020-06-08_15h16.03.905,TranslationElicitation_spa,3.2.4,Win32,60,5ede198e9586fe02aecca093,,1,0,80,27,1,79
,,,,,,,,,,,,,,,,,,,,,,,,,,,,,,,,,,,r,4.115999937,AUSTR,FALSE,,,,,,,132,estrella,Catalan,Sounds/cat_estrella.mp3,2020-06-08_15h16.03.905,TranslationElicitation_spa,3.2.4,Win32,60,5ede198e9586fe02aecca093,,1,0,80,27,1,79
,,,,,,,,,,,,,,,,,,,,,,,,,,,,,,,,,,,backspace,5.816999912,AUS,TRUE,,,,,,,132,estrella,Catalan,Sounds/cat_estrella.mp3,2020-06-08_15h16.03.905,TranslationElicitation_spa,3.2.4,Win32,60,5ede198e9586fe02aecca093,,1,0,80,27,1,79
,,,,,,,,,,,,,,,,,,,,,,,,,,,,,,,,,,,backspace,6.230999947,A,TRUE,,,,,,,132,estrella,Catalan,Sounds/cat_estrella.mp3,2020-06-08_15h16.03.905,TranslationElicitation_spa,3.2.4,Win32,60,5ede198e9586fe02aecca093,,1,0,80,27,1,79
,,,,,,,,,,,,,,,,,,,,,,,,,,,,,,,,,,,backspace,6.881000042,,TRUE,,,,,,,132,estrella,Catalan,Sounds/cat_estrella.mp3,2020-06-08_15h16.03.905,TranslationElicitation_spa,3.2.4,Win32,60,5ede198e9586fe02aecca093,,1,0,80,27,1,79
,,,,,,,,,,,,,,,,,,,,,,,,,,,,,,,,,,,e,7.346999884,E,TRUE,,,,,,,132,estrella,Catalan,Sounds/cat_estrella.mp3,2020-06-08_15h16.03.905,TranslationElicitation_spa,3.2.4,Win32,60,5ede198e9586fe02aecca093,,1,0,80,27,1,79
,,,,,,,,,,,,,,,,,,,,,,,,,,,,,,,,,,,s,7.546000004,ES,TRUE,,,,,,,132,estrella,Catalan,Sounds/cat_estrella.mp3,2020-06-08_15h16.03.905,TranslationElicitation_spa,3.2.4,Win32,60,5ede198e9586fe02aecca093,,1,0,80,27,1,79
,,,,,,,,,,,,,,,,,,,,,,,,,,,,,,,,,,,t,7.796999931,EST,TRUE,,,,,,,132,estrella,Catalan,Sounds/cat_estrella.mp3,2020-06-08_15h16.03.905,TranslationElicitation_spa,3.2.4,Win32,60,5ede198e9586fe02aecca093,,1,0,80,27,1,79
,,,,,,,,,,,,,,,,,,,,,,,,,,,,,,,,,,,r,8.013999939,ESTR,TRUE,,,,,,,132,estrella,Catalan,Sounds/cat_estrella.mp3,2020-06-08_15h16.03.905,TranslationElicitation_spa,3.2.4,Win32,60,5ede198e9586fe02aecca093,,1,0,80,27,1,79
,,,,,,,,,,,,,,,,,,,,,,,,,,,,,,,,,,,e,8.214999914,ESTRE,TRUE,,,,,,,132,estrella,Catalan,Sounds/cat_estrella.mp3,2020-06-08_15h16.03.905,TranslationElicitation_spa,3.2.4,Win32,60,5ede198e9586fe02aecca093,,1,0,80,27,1,79
,,,,,,,,,,,,,,,,,,,,,,,,,,,,,,,,,,,l,8.411999941,ESTREL,TRUE,,,,,,,132,estrella,Catalan,Sounds/cat_estrella.mp3,2020-06-08_15h16.03.905,TranslationElicitation_spa,3.2.4,Win32,60,5ede198e9586fe02aecca093,,1,0,80,27,1,79
,,,,,,,,,,,,,,,,,,,,,,,,,,,,,,,,,,,l,8.562999964,ESTRELL,TRUE,,,,,,,132,estrella,Catalan,Sounds/cat_estrella.mp3,2020-06-08_15h16.03.905,TranslationElicitation_spa,3.2.4,Win32,60,5ede198e9586fe02aecca093,,1,0,80,27,1,79
,,,,,,,,,,,,,,,,,,,,,,,,,,,,,,,,,,,a,8.712999821,ESTRELLA,TRUE,,,,,,,132,estrella,Catalan,Sounds/cat_estrella.mp3,2020-06-08_15h16.03.905,TranslationElicitation_spa,3.2.4,Win32,60,5ede198e9586fe02aecca093,,1,0,80,27,1,79
,,,,,,,,,,,,,,,,,,,,,,,,,,,,,,,,,,,return,9.312999964,,TRUE,,,,,,,132,estrella,Catalan,Sounds/cat_estrella.mp3,2020-06-08_15h16.03.905,TranslationElicitation_spa,3.2.4,Win32,60,5ede198e9586fe02aecca093,9.312999964,1,0,80,27,1,79
,,,,,,,,,,,,,,,,,,,,,,,,,,,,,,,,,,,,,,,,,,,,,132,estrella,Catalan,Sounds/cat_estrella.mp3,2020-06-08_15h16.03.905,TranslationElicitation_spa,3.2.4,Win32,60,5ede198e9586fe02aecca093,,1,0,80,27,1,79
,,,,,,,,,,,,,,,,,,,,,,,,,,,,,,,,,,,m,27.51800013,M,FALSE,,,,,,,163,papallona,Catalan,Sounds/cat_papallona.mp3,2020-06-08_15h16.03.905,TranslationElicitation_spa,3.2.4,Win32,60,5ede198e9586fe02aecca093,,1,0,80,56,1,79
,,,,,,,,,,,,,,,,,,,,,,,,,,,,,,,,,,,a,27.62900019,MA,FALSE,,,,,,,163,papallona,Catalan,Sounds/cat_papallona.mp3,2020-06-08_15h16.03.905,TranslationElicitation_spa,3.2.4,Win32,60,5ede198e9586fe02aecca093,,1,0,80,56,1,79
,,,,,,,,,,,,,,,,,,,,,,,,,,,,,,,,,,,r,27.79500008,MAR,FALSE,,,,,,,163,papallona,Catalan,Sounds/cat_papallona.mp3,2020-06-08_15h16.03.905,TranslationElicitation_spa,3.2.4,Win32,60,5ede198e9586fe02aecca093,,1,0,80,56,1,79
,,,,,,,,,,,,,,,,,,,,,,,,,,,,,,,,,,,i,27.89400005,MARI,FALSE,,,,,,,163,papallona,Catalan,Sounds/cat_papallona.mp3,2020-06-08_15h16.03.905,TranslationElicitation_spa,3.2.4,Win32,60,5ede198e9586fe02aecca093,,1,0,80,56,1,79
,,,,,,,,,,,,,,,,,,,,,,,,,,,,,,,,,,,p,28.11100006,MARIP,FALSE,,,,,,,163,papallona,Catalan,Sounds/cat_papallona.mp3,2020-06-08_15h16.03.905,TranslationElicitation_spa,3.2.4,Win32,60,5ede198e9586fe02aecca093,,1,0,80,56,1,79
,,,,,,,,,,,,,,,,,,,,,,,,,,,,,,,,,,,o,28.26100016,MARIPO,FALSE,,,,,,,163,papallona,Catalan,Sounds/cat_papallona.mp3,2020-06-08_15h16.03.905,TranslationElicitation_spa,3.2.4,Win32,60,5ede198e9586fe02aecca093,,1,0,80,56,1,79
,,,,,,,,,,,,,,,,,,,,,,,,,,,,,,,,,,,s,29.42900014,MARIPOS,FALSE,,,,,,,163,papallona,Catalan,Sounds/cat_papallona.mp3,2020-06-08_15h16.03.905,TranslationElicitation_spa,3.2.4,Win32,60,5ede198e9586fe02aecca093,,1,0,80,56,1,79
,,,,,,,,,,,,,,,,,,,,,,,,,,,,,,,,,,,a,29.49500012,MARIPOSA,FALSE,,,,,,,163,papallona,Catalan,Sounds/cat_papallona.mp3,2020-06-08_15h16.03.905,TranslationElicitation_spa,3.2.4,Win32,60,5ede198e9586fe02aecca093,,1,0,80,56,1,79
,,,,,,,,,,,,,,,,,,,,,,,,,,,,,,,,,,,return,29.79400015,,FALSE,,,,,,,163,papallona,Catalan,Sounds/cat_papallona.mp3,2020-06-08_15h16.03.905,TranslationElicitation_spa,3.2.4,Win32,60,5ede198e9586fe02aecca093,29.79400015,1,0,80,56,1,79
,,,,,,,,,,,,,,,,,,,,,,,,,,,,,,,,,,,,,,,,,,,,,163,papallona,Catalan,Sounds/cat_papallona.mp3,2020-06-08_15h16.03.905,TranslationElicitation_spa,3.2.4,Win32,60,5ede198e9586fe02aecca093,,1,0,80,56,1,79
,,,,,,,,,,,,,,,,,,,,,,,,,,,,,,,,,,,s,37.56299996,S,FALSE,,,,,,,157,mussol,Catalan,Sounds/cat_mussol.mp3,2020-06-08_15h16.03.905,TranslationElicitation_spa,3.2.4,Win32,60,5ede198e9586fe02aecca093,,1,0,80,51,1,79
,,,,,,,,,,,,,,,,,,,,,,,,,,,,,,,,,,,o,37.65799999,SO,FALSE,,,,,,,157,mussol,Catalan,Sounds/cat_mussol.mp3,2020-06-08_15h16.03.905,TranslationElicitation_spa,3.2.4,Win32,60,5ede198e9586fe02aecca093,,1,0,80,51,1,79
,,,,,,,,,,,,,,,,,,,,,,,,,,,,,,,,,,,l,37.82299995,SOL,FALSE,,,,,,,157,mussol,Catalan,Sounds/cat_mussol.mp3,2020-06-08_15h16.03.905,TranslationElicitation_spa,3.2.4,Win32,60,5ede198e9586fe02aecca093,,1,0,80,51,1,79
,,,,,,,,,,,,,,,,,,,,,,,,,,,,,,,,,,,return,38.07500005,,FALSE,,,,,,,157,mussol,Catalan,Sounds/cat_mussol.mp3,2020-06-08_15h16.03.905,TranslationElicitation_spa,3.2.4,Win32,60,5ede198e9586fe02aecca093,38.07500005,1,0,80,51,1,79
,,,,,,,,,,,,,,,,,,,,,,,,,,,,,,,,,,,,,,,,,,,,,157,mussol,Catalan,Sounds/cat_mussol.mp3,2020-06-08_15h16.03.905,TranslationElicitation_spa,3.2.4,Win32,60,5ede198e9586fe02aecca093,,1,0,80,51,1,79
,,,,,,,,,,,,,,,,,,,,,,,,,,,,,,,,,,,b,2.441999912,B,FALSE,,,,,,,161,ovella,Catalan,Sounds/cat_ovella.mp3,2020-06-08_15h16.03.905,TranslationElicitation_spa,3.2.4,Win32,60,5ede198e9586fe02aecca093,,1,0,80,54,1,79
,,,,,,,,,,,,,,,,,,,,,,,,,,,,,,,,,,,e,2.542000055,BE,FALSE,,,,,,,161,ovella,Catalan,Sounds/cat_ovella.mp3,2020-06-08_15h16.03.905,TranslationElicitation_spa,3.2.4,Win32,60,5ede198e9586fe02aecca093,,1,0,80,54,1,79
,,,,,,,,,,,,,,,,,,,,,,,,,,,,,,,,,,,l,2.85800004,BEL,FALSE,,,,,,,161,ovella,Catalan,Sounds/cat_ovella.mp3,2020-06-08_15h16.03.905,TranslationElicitation_spa,3.2.4,Win32,60,5ede198e9586fe02aecca093,,1,0,80,54,1,79
,,,,,,,,,,,,,,,,,,,,,,,,,,,,,,,,,,,l,3.021999836,BELL,FALSE,,,,,,,161,ovella,Catalan,Sounds/cat_ovella.mp3,2020-06-08_15h16.03.905,TranslationElicitation_spa,3.2.4,Win32,60,5ede198e9586fe02aecca093,,1,0,80,54,1,79
,,,,,,,,,,,,,,,,,,,,,,,,,,,,,,,,,,,a,3.14199996,BELLA,FALSE,,,,,,,161,ovella,Catalan,Sounds/cat_ovella.mp3,2020-06-08_15h16.03.905,TranslationElicitation_spa,3.2.4,Win32,60,5ede198e9586fe02aecca093,,1,0,80,54,1,79
,,,,,,,,,,,,,,,,,,,,,,,,,,,,,,,,,,,return,3.524999857,,FALSE,,,,,,,161,ovella,Catalan,Sounds/cat_ovella.mp3,2020-06-08_15h16.03.905,TranslationElicitation_spa,3.2.4,Win32,60,5ede198e9586fe02aecca093,3.524999857,1,0,80,54,1,79
,,,,,,,,,,,,,,,,,,,,,,,,,,,,,,,,,,,,,,,,,,,,,161,ovella,Catalan,Sounds/cat_ovella.mp3,2020-06-08_15h16.03.905,TranslationElicitation_spa,3.2.4,Win32,60,5ede198e9586fe02aecca093,,1,0,80,54,1,79
,,,,,,,,,,,,,,,,,,,,,,,,,,,,,,,,,,,t,18.68300009,T,FALSE,,,,,,,180,tisores,Catalan,Sounds/cat_tisores.mp3,2020-06-08_15h16.03.905,TranslationElicitation_spa,3.2.4,Win32,60,5ede198e9586fe02aecca093,,1,0,80,71,1,79
,,,,,,,,,,,,,,,,,,,,,,,,,,,,,,,,,,,i,18.81400013,TI,FALSE,,,,,,,180,tisores,Catalan,Sounds/cat_tisores.mp3,2020-06-08_15h16.03.905,TranslationElicitation_spa,3.2.4,Win32,60,5ede198e9586fe02aecca093,,1,0,80,71,1,79
,,,,,,,,,,,,,,,,,,,,,,,,,,,,,,,,,,,a,18.99600005,TIA,FALSE,,,,,,,180,tisores,Catalan,Sounds/cat_tisores.mp3,2020-06-08_15h16.03.905,TranslationElicitation_spa,3.2.4,Win32,60,5ede198e9586fe02aecca093,,1,0,80,71,1,79
,,,,,,,,,,,,,,,,,,,,,,,,,,,,,,,,,,,r,19.13100004,TIAR,FALSE,,,,,,,180,tisores,Catalan,Sounds/cat_tisores.mp3,2020-06-08_15h16.03.905,TranslationElicitation_spa,3.2.4,Win32,60,5ede198e9586fe02aecca093,,1,0,80,71,1,79
,,,,,,,,,,,,,,,,,,,,,,,,,,,,,,,,,,,a,19.26300001,TIARA,FALSE,,,,,,,180,tisores,Catalan,Sounds/cat_tisores.mp3,2020-06-08_15h16.03.905,TranslationElicitation_spa,3.2.4,Win32,60,5ede198e9586fe02aecca093,,1,0,80,71,1,79
,,,,,,,,,,,,,,,,,,,,,,,,,,,,,,,,,,,return,19.76300001,,FALSE,,,,,,,180,tisores,Catalan,Sounds/cat_tisores.mp3,2020-06-08_15h16.03.905,TranslationElicitation_spa,3.2.4,Win32,60,5ede198e9586fe02aecca093,19.76300001,1,0,80,71,1,79
,,,,,,,,,,,,,,,,,,,,,,,,,,,,,,,,,,,,,,,,,,,,,180,tisores,Catalan,Sounds/cat_tisores.mp3,2020-06-08_15h16.03.905,TranslationElicitation_spa,3.2.4,Win32,60,5ede198e9586fe02aecca093,,1,0,80,71,1,79
,,,,,,,,,,,,,,,,,,,,,,,,,,,,,,,,,,,d,2.405999899,D,FALSE,,,,,,,129,dit,Catalan,Sounds/cat_dit.mp3,2020-06-08_15h16.03.905,TranslationElicitation_spa,3.2.4,Win32,60,5ede198e9586fe02aecca093,,1,0,80,24,1,79
,,,,,,,,,,,,,,,,,,,,,,,,,,,,,,,,,,,i,2.49000001,DI,FALSE,,,,,,,129,dit,Catalan,Sounds/cat_dit.mp3,2020-06-08_15h16.03.905,TranslationElicitation_spa,3.2.4,Win32,60,5ede198e9586fe02aecca093,,1,0,80,24,1,79
,,,,,,,,,,,,,,,,,,,,,,,,,,,,,,,,,,,a,2.572999954,DIA,FALSE,,,,,,,129,dit,Catalan,Sounds/cat_dit.mp3,2020-06-08_15h16.03.905,TranslationElicitation_spa,3.2.4,Win32,60,5ede198e9586fe02aecca093,,1,0,80,24,1,79
,,,,,,,,,,,,,,,,,,,,,,,,,,,,,,,,,,,return,2.788999796,,FALSE,,,,,,,129,dit,Catalan,Sounds/cat_dit.mp3,2020-06-08_15h16.03.905,TranslationElicitation_spa,3.2.4,Win32,60,5ede198e9586fe02aecca093,2.788999796,1,0,80,24,1,79
,,,,,,,,,,,,,,,,,,,,,,,,,,,,,,,,,,,,,,,,,,,,,129,dit,Catalan,Sounds/cat_dit.mp3,2020-06-08_15h16.03.905,TranslationElicitation_spa,3.2.4,Win32,60,5ede198e9586fe02aecca093,,1,0,80,24,1,79
,,,,,,,,,,,,,,,,,,,,,,,,,,,,,,,,,,,u,1.532000065,U,FALSE,,,,,,,172,poma,Catalan,Sounds/cat_poma.mp3,2020-06-08_15h16.03.905,TranslationElicitation_spa,3.2.4,Win32,60,5ede198e9586fe02aecca093,,1,0,80,64,1,79
,,,,,,,,,,,,,,,,,,,,,,,,,,,,,,,,,,,m,1.746999979,UM,FALSE,,,,,,,172,poma,Catalan,Sounds/cat_poma.mp3,2020-06-08_15h16.03.905,TranslationElicitation_spa,3.2.4,Win32,60,5ede198e9586fe02aecca093,,1,0,80,64,1,79
,,,,,,,,,,,,,,,,,,,,,,,,,,,,,,,,,,,a,1.862999916,UMA,FALSE,,,,,,,172,poma,Catalan,Sounds/cat_poma.mp3,2020-06-08_15h16.03.905,TranslationElicitation_spa,3.2.4,Win32,60,5ede198e9586fe02aecca093,,1,0,80,64,1,79
,,,,,,,,,,,,,,,,,,,,,,,,,,,,,,,,,,,backspace,2.266000032,U,TRUE,,,,,,,172,poma,Catalan,Sounds/cat_poma.mp3,2020-06-08_15h16.03.905,TranslationElicitation_spa,3.2.4,Win32,60,5ede198e9586fe02aecca093,,1,0,80,64,1,79
,,,,,,,,,,,,,,,,,,,,,,,,,,,,,,,,,,,backspace,2.663000107,,TRUE,,,,,,,172,poma,Catalan,Sounds/cat_poma.mp3,2020-06-08_15h16.03.905,TranslationElicitation_spa,3.2.4,Win32,60,5ede198e9586fe02aecca093,,1,0,80,64,1,79
,,,,,,,,,,,,,,,,,,,,,,,,,,,,,,,,,,,backspace,2.927000046,,TRUE,,,,,,,172,poma,Catalan,Sounds/cat_poma.mp3,2020-06-08_15h16.03.905,TranslationElicitation_spa,3.2.4,Win32,60,5ede198e9586fe02aecca093,,1,0,80,64,1,79
,,,,,,,,,,,,,,,,,,,,,,,,,,,,,,,,,,,p,4.13499999,P,TRUE,,,,,,,172,poma,Catalan,Sounds/cat_poma.mp3,2020-06-08_15h16.03.905,TranslationElicitation_spa,3.2.4,Win32,60,5ede198e9586fe02aecca093,,1,0,80,64,1,79
,,,,,,,,,,,,,,,,,,,,,,,,,,,,,,,,,,,u,4.463000059,PU,TRUE,,,,,,,172,poma,Catalan,Sounds/cat_poma.mp3,2020-06-08_15h16.03.905,TranslationElicitation_spa,3.2.4,Win32,60,5ede198e9586fe02aecca093,,1,0,80,64,1,79
,,,,,,,,,,,,,,,,,,,,,,,,,,,,,,,,,,,m,4.667000055,PUM,TRUE,,,,,,,172,poma,Catalan,Sounds/cat_poma.mp3,2020-06-08_15h16.03.905,TranslationElicitation_spa,3.2.4,Win32,60,5ede198e9586fe02aecca093,,1,0,80,64,1,79
,,,,,,,,,,,,,,,,,,,,,,,,,,,,,,,,,,,a,4.747999907,PUMA,TRUE,,,,,,,172,poma,Catalan,Sounds/cat_poma.mp3,2020-06-08_15h16.03.905,TranslationElicitation_spa,3.2.4,Win32,60,5ede198e9586fe02aecca093,,1,0,80,64,1,79
,,,,,,,,,,,,,,,,,,,,,,,,,,,,,,,,,,,return,22.29999995,,TRUE,,,,,,,172,poma,Catalan,Sounds/cat_poma.mp3,2020-06-08_15h16.03.905,TranslationElicitation_spa,3.2.4,Win32,60,5ede198e9586fe02aecca093,22.29999995,1,0,80,64,1,79
,,,,,,,,,,,,,,,,,,,,,,,,,,,,,,,,,,,,,,,,,,,,,172,poma,Catalan,Sounds/cat_poma.mp3,2020-06-08_15h16.03.905,TranslationElicitation_spa,3.2.4,Win32,60,5ede198e9586fe02aecca093,,1,0,80,64,1,79
,,,,,,,,,,,,,,,,,,,,,,,,,,,,,,,,,,,m,1.358999968,M,FALSE,,,,,,,156,moto,Catalan,Sounds/cat_moto.mp3,2020-06-08_15h16.03.905,TranslationElicitation_spa,3.2.4,Win32,60,5ede198e9586fe02aecca093,,1,0,80,50,1,79
,,,,,,,,,,,,,,,,,,,,,,,,,,,,,,,,,,,o,1.457999945,MO,FALSE,,,,,,,156,moto,Catalan,Sounds/cat_moto.mp3,2020-06-08_15h16.03.905,TranslationElicitation_spa,3.2.4,Win32,60,5ede198e9586fe02aecca093,,1,0,80,50,1,79
,,,,,,,,,,,,,,,,,,,,,,,,,,,,,,,,,,,t,1.625999928,MOT,FALSE,,,,,,,156,moto,Catalan,Sounds/cat_moto.mp3,2020-06-08_15h16.03.905,TranslationElicitation_spa,3.2.4,Win32,60,5ede198e9586fe02aecca093,,1,0,80,50,1,79
,,,,,,,,,,,,,,,,,,,,,,,,,,,,,,,,,,,o,1.710000038,MOTO,FALSE,,,,,,,156,moto,Catalan,Sounds/cat_moto.mp3,2020-06-08_15h16.03.905,TranslationElicitation_spa,3.2.4,Win32,60,5ede198e9586fe02aecca093,,1,0,80,50,1,79
,,,,,,,,,,,,,,,,,,,,,,,,,,,,,,,,,,,return,2.024999857,,FALSE,,,,,,,156,moto,Catalan,Sounds/cat_moto.mp3,2020-06-08_15h16.03.905,TranslationElicitation_spa,3.2.4,Win32,60,5ede198e9586fe02aecca093,2.023999929,1,0,80,50,1,79
,,,,,,,,,,,,,,,,,,,,,,,,,,,,,,,,,,,,,,,,,,,,,156,moto,Catalan,Sounds/cat_moto.mp3,2020-06-08_15h16.03.905,TranslationElicitation_spa,3.2.4,Win32,60,5ede198e9586fe02aecca093,,1,0,80,50,1,79
,,,,,,,,,,,,,,,,,,,,,,,,,,,,,,,,,,,p,2.23300004,P,FALSE,,,,,,,173,porc,Catalan,Sounds/cat_porc.mp3,2020-06-08_15h16.03.905,TranslationElicitation_spa,3.2.4,Win32,60,5ede198e9586fe02aecca093,,1,0,80,65,1,79
,,,,,,,,,,,,,,,,,,,,,,,,,,,,,,,,,,,o,2.365999937,PO,FALSE,,,,,,,173,porc,Catalan,Sounds/cat_porc.mp3,2020-06-08_15h16.03.905,TranslationElicitation_spa,3.2.4,Win32,60,5ede198e9586fe02aecca093,,1,0,80,65,1,79
,,,,,,,,,,,,,,,,,,,,,,,,,,,,,,,,,,,a,2.48300004,POA,FALSE,,,,,,,173,porc,Catalan,Sounds/cat_porc.mp3,2020-06-08_15h16.03.905,TranslationElicitation_spa,3.2.4,Win32,60,5ede198e9586fe02aecca093,,1,0,80,65,1,79
,,,,,,,,,,,,,,,,,,,,,,,,,,,,,,,,,,,r,2.583999872,POAR,FALSE,,,,,,,173,porc,Catalan,Sounds/cat_porc.mp3,2020-06-08_15h16.03.905,TranslationElicitation_spa,3.2.4,Win32,60,5ede198e9586fe02aecca093,,1,0,80,65,1,79
,,,,,,,,,,,,,,,,,,,,,,,,,,,,,,,,,,,backspace,3.24000001,PO,TRUE,,,,,,,173,porc,Catalan,Sounds/cat_porc.mp3,2020-06-08_15h16.03.905,TranslationElicitation_spa,3.2.4,Win32,60,5ede198e9586fe02aecca093,,1,0,80,65,1,79
,,,,,,,,,,,,,,,,,,,,,,,,,,,,,,,,,,,backspace,3.388999939,,TRUE,,,,,,,173,porc,Catalan,Sounds/cat_porc.mp3,2020-06-08_15h16.03.905,TranslationElicitation_spa,3.2.4,Win32,60,5ede198e9586fe02aecca093,,1,0,80,65,1,79
,,,,,,,,,,,,,,,,,,,,,,,,,,,,,,,,,,,backspace,3.556999922,,TRUE,,,,,,,173,porc,Catalan,Sounds/cat_porc.mp3,2020-06-08_15h16.03.905,TranslationElicitation_spa,3.2.4,Win32,60,5ede198e9586fe02aecca093,,1,0,80,65,1,79
,,,,,,,,,,,,,,,,,,,,,,,,,,,,,,,,,,,p,4.273000002,P,TRUE,,,,,,,173,porc,Catalan,Sounds/cat_porc.mp3,2020-06-08_15h16.03.905,TranslationElicitation_spa,3.2.4,Win32,60,5ede198e9586fe02aecca093,,1,0,80,65,1,79
,,,,,,,,,,,,,,,,,,,,,,,,,,,,,,,,,,,a,4.356999874,PA,TRUE,,,,,,,173,porc,Catalan,Sounds/cat_porc.mp3,2020-06-08_15h16.03.905,TranslationElicitation_spa,3.2.4,Win32,60,5ede198e9586fe02aecca093,,1,0,80,65,1,79
,,,,,,,,,,,,,,,,,,,,,,,,,,,,,,,,,,,r,4.606999874,PAR,TRUE,,,,,,,173,porc,Catalan,Sounds/cat_porc.mp3,2020-06-08_15h16.03.905,TranslationElicitation_spa,3.2.4,Win32,60,5ede198e9586fe02aecca093,,1,0,80,65,1,79
,,,,,,,,,,,,,,,,,,,,,,,,,,,,,,,,,,,q,5.111999989,PARQ,TRUE,,,,,,,173,porc,Catalan,Sounds/cat_porc.mp3,2020-06-08_15h16.03.905,TranslationElicitation_spa,3.2.4,Win32,60,5ede198e9586fe02aecca093,,1,0,80,65,1,79
,,,,,,,,,,,,,,,,,,,,,,,,,,,,,,,,,,,u,5.524999857,PARQU,TRUE,,,,,,,173,porc,Catalan,Sounds/cat_porc.mp3,2020-06-08_15h16.03.905,TranslationElicitation_spa,3.2.4,Win32,60,5ede198e9586fe02aecca093,,1,0,80,65,1,79
,,,,,,,,,,,,,,,,,,,,,,,,,,,,,,,,,,,e,5.592000008,PARQUE,TRUE,,,,,,,173,porc,Catalan,Sounds/cat_porc.mp3,2020-06-08_15h16.03.905,TranslationElicitation_spa,3.2.4,Win32,60,5ede198e9586fe02aecca093,,1,0,80,65,1,79
,,,,,,,,,,,,,,,,,,,,,,,,,,,,,,,,,,,return,6.15899992,,TRUE,,,,,,,173,porc,Catalan,Sounds/cat_porc.mp3,2020-06-08_15h16.03.905,TranslationElicitation_spa,3.2.4,Win32,60,5ede198e9586fe02aecca093,6.15899992,1,0,80,65,1,79
,,,,,,,,,,,,,,,,,,,,,,,,,,,,,,,,,,,,,,,,,,,,,173,porc,Catalan,Sounds/cat_porc.mp3,2020-06-08_15h16.03.905,TranslationElicitation_spa,3.2.4,Win32,60,5ede198e9586fe02aecca093,,1,0,80,65,1,79
,,,,,,,,,,,,,,,,,,,,,,,,,,,,,,,,,,,r,1.493999958,R,FALSE,,,,,,,144,gorra,Catalan,Sounds/cat_gorra.mp3,2020-06-08_15h16.03.905,TranslationElicitation_spa,3.2.4,Win32,60,5ede198e9586fe02aecca093,,1,0,80,39,1,79
,,,,,,,,,,,,,,,,,,,,,,,,,,,,,,,,,,,r,1.657999992,RR,FALSE,,,,,,,144,gorra,Catalan,Sounds/cat_gorra.mp3,2020-06-08_15h16.03.905,TranslationElicitation_spa,3.2.4,Win32,60,5ede198e9586fe02aecca093,,1,0,80,39,1,79
,,,,,,,,,,,,,,,,,,,,,,,,,,,,,,,,,,,a,1.842000008,RRA,FALSE,,,,,,,144,gorra,Catalan,Sounds/cat_gorra.mp3,2020-06-08_15h16.03.905,TranslationElicitation_spa,3.2.4,Win32,60,5ede198e9586fe02aecca093,,1,0,80,39,1,79
,,,,,,,,,,,,,,,,,,,,,,,,,,,,,,,,,,,backspace,2.042999983,R,TRUE,,,,,,,144,gorra,Catalan,Sounds/cat_gorra.mp3,2020-06-08_15h16.03.905,TranslationElicitation_spa,3.2.4,Win32,60,5ede198e9586fe02aecca093,,1,0,80,39,1,79
,,,,,,,,,,,,,,,,,,,,,,,,,,,,,,,,,,,backspace,2.209000111,,TRUE,,,,,,,144,gorra,Catalan,Sounds/cat_gorra.mp3,2020-06-08_15h16.03.905,TranslationElicitation_spa,3.2.4,Win32,60,5ede198e9586fe02aecca093,,1,0,80,39,1,79
,,,,,,,,,,,,,,,,,,,,,,,,,,,,,,,,,,,backspace,2.375,,TRUE,,,,,,,144,gorra,Catalan,Sounds/cat_gorra.mp3,2020-06-08_15h16.03.905,TranslationElicitation_spa,3.2.4,Win32,60,5ede198e9586fe02aecca093,,1,0,80,39,1,79
,,,,,,,,,,,,,,,,,,,,,,,,,,,,,,,,,,,g,2.993000031,G,TRUE,,,,,,,144,gorra,Catalan,Sounds/cat_gorra.mp3,2020-06-08_15h16.03.905,TranslationElicitation_spa,3.2.4,Win32,60,5ede198e9586fe02aecca093,,1,0,80,39,1,79
,,,,,,,,,,,,,,,,,,,,,,,,,,,,,,,,,,,o,3.125999928,GO,TRUE,,,,,,,144,gorra,Catalan,Sounds/cat_gorra.mp3,2020-06-08_15h16.03.905,TranslationElicitation_spa,3.2.4,Win32,60,5ede198e9586fe02aecca093,,1,0,80,39,1,79
,,,,,,,,,,,,,,,,,,,,,,,,,,,,,,,,,,,r,3.77699995,GOR,TRUE,,,,,,,144,gorra,Catalan,Sounds/cat_gorra.mp3,2020-06-08_15h16.03.905,TranslationElicitation_spa,3.2.4,Win32,60,5ede198e9586fe02aecca093,,1,0,80,39,1,79
,,,,,,,,,,,,,,,,,,,,,,,,,,,,,,,,,,,r,3.930000067,GORR,TRUE,,,,,,,144,gorra,Catalan,Sounds/cat_gorra.mp3,2020-06-08_15h16.03.905,TranslationElicitation_spa,3.2.4,Win32,60,5ede198e9586fe02aecca093,,1,0,80,39,1,79
,,,,,,,,,,,,,,,,,,,,,,,,,,,,,,,,,,,a,4.14199996,GORRA,TRUE,,,,,,,144,gorra,Catalan,Sounds/cat_gorra.mp3,2020-06-08_15h16.03.905,TranslationElicitation_spa,3.2.4,Win32,60,5ede198e9586fe02aecca093,,1,0,80,39,1,79
,,,,,,,,,,,,,,,,,,,,,,,,,,,,,,,,,,,return,4.453000069,,TRUE,,,,,,,144,gorra,Catalan,Sounds/cat_gorra.mp3,2020-06-08_15h16.03.905,TranslationElicitation_spa,3.2.4,Win32,60,5ede198e9586fe02aecca093,4.453000069,1,0,80,39,1,79
,,,,,,,,,,,,,,,,,,,,,,,,,,,,,,,,,,,,,,,,,,,,,144,gorra,Catalan,Sounds/cat_gorra.mp3,2020-06-08_15h16.03.905,TranslationElicitation_spa,3.2.4,Win32,60,5ede198e9586fe02aecca093,,1,0,80,39,1,79
,,,,,,,,,,,,,,,,,,,,,,,,,,,,,,,,,,,p,2.61500001,P,FALSE,,,,,,,166,peu,Catalan,Sounds/cat_peu.mp3,2020-06-08_15h16.03.905,TranslationElicitation_spa,3.2.4,Win32,60,5ede198e9586fe02aecca093,,1,0,80,59,1,79
,,,,,,,,,,,,,,,,,,,,,,,,,,,,,,,,,,,e,2.782000065,PE,FALSE,,,,,,,166,peu,Catalan,Sounds/cat_peu.mp3,2020-06-08_15h16.03.905,TranslationElicitation_spa,3.2.4,Win32,60,5ede198e9586fe02aecca093,,1,0,80,59,1,79
,,,,,,,,,,,,,,,,,,,,,,,,,,,,,,,,,,,l,2.866999865,PEL,FALSE,,,,,,,166,peu,Catalan,Sounds/cat_peu.mp3,2020-06-08_15h16.03.905,TranslationElicitation_spa,3.2.4,Win32,60,5ede198e9586fe02aecca093,,1,0,80,59,1,79
,,,,,,,,,,,,,,,,,,,,,,,,,,,,,,,,,,,o,3.014999866,PELO,FALSE,,,,,,,166,peu,Catalan,Sounds/cat_peu.mp3,2020-06-08_15h16.03.905,TranslationElicitation_spa,3.2.4,Win32,60,5ede198e9586fe02aecca093,,1,0,80,59,1,79
,,,,,,,,,,,,,,,,,,,,,,,,,,,,,,,,,,,return,3.453000069,,FALSE,,,,,,,166,peu,Catalan,Sounds/cat_peu.mp3,2020-06-08_15h16.03.905,TranslationElicitation_spa,3.2.4,Win32,60,5ede198e9586fe02aecca093,3.453000069,1,0,80,59,1,79
,,,,,,,,,,,,,,,,,,,,,,,,,,,,,,,,,,,,,,,,,,,,,166,peu,Catalan,Sounds/cat_peu.mp3,2020-06-08_15h16.03.905,TranslationElicitation_spa,3.2.4,Win32,60,5ede198e9586fe02aecca093,,1,0,80,59,1,79
,,,,,,,,,,,,,,,,,,,,,,,,,,,,,,,,,,,m,1.131999969,M,FALSE,,,,,,,155,moneda,Catalan,Sounds/cat_moneda.mp3,2020-06-08_15h16.03.905,TranslationElicitation_spa,3.2.4,Win32,60,5ede198e9586fe02aecca093,,1,0,80,49,1,79
,,,,,,,,,,,,,,,,,,,,,,,,,,,,,,,,,,,o,1.248999834,MO,FALSE,,,,,,,155,moneda,Catalan,Sounds/cat_moneda.mp3,2020-06-08_15h16.03.905,TranslationElicitation_spa,3.2.4,Win32,60,5ede198e9586fe02aecca093,,1,0,80,49,1,79
,,,,,,,,,,,,,,,,,,,,,,,,,,,,,,,,,,,n,1.464999914,MON,FALSE,,,,,,,155,moneda,Catalan,Sounds/cat_moneda.mp3,2020-06-08_15h16.03.905,TranslationElicitation_spa,3.2.4,Win32,60,5ede198e9586fe02aecca093,,1,0,80,49,1,79
,,,,,,,,,,,,,,,,,,,,,,,,,,,,,,,,,,,e,1.582000017,MONE,FALSE,,,,,,,155,moneda,Catalan,Sounds/cat_moneda.mp3,2020-06-08_15h16.03.905,TranslationElicitation_spa,3.2.4,Win32,60,5ede198e9586fe02aecca093,,1,0,80,49,1,79
,,,,,,,,,,,,,,,,,,,,,,,,,,,,,,,,,,,d,1.832000017,MONED,FALSE,,,,,,,155,moneda,Catalan,Sounds/cat_moneda.mp3,2020-06-08_15h16.03.905,TranslationElicitation_spa,3.2.4,Win32,60,5ede198e9586fe02aecca093,,1,0,80,49,1,79
,,,,,,,,,,,,,,,,,,,,,,,,,,,,,,,,,,,a,1.931999922,MONEDA,FALSE,,,,,,,155,moneda,Catalan,Sounds/cat_moneda.mp3,2020-06-08_15h16.03.905,TranslationElicitation_spa,3.2.4,Win32,60,5ede198e9586fe02aecca093,,1,0,80,49,1,79
,,,,,,,,,,,,,,,,,,,,,,,,,,,,,,,,,,,return,2.284999847,,FALSE,,,,,,,155,moneda,Catalan,Sounds/cat_moneda.mp3,2020-06-08_15h16.03.905,TranslationElicitation_spa,3.2.4,Win32,60,5ede198e9586fe02aecca093,2.284999847,1,0,80,49,1,79
,,,,,,,,,,,,,,,,,,,,,,,,,,,,,,,,,,,,,,,,,,,,,155,moneda,Catalan,Sounds/cat_moneda.mp3,2020-06-08_15h16.03.905,TranslationElicitation_spa,3.2.4,Win32,60,5ede198e9586fe02aecca093,,1,0,80,49,1,79
,,,,,,,,,,,,,,,,,,,,,,,,,,,,,,,,,,,r,2.082000017,R,FALSE,,,,,,,175,raspall,Catalan,Sounds/cat_raspall.mp3,2020-06-08_15h16.03.905,TranslationElicitation_spa,3.2.4,Win32,60,5ede198e9586fe02aecca093,,1,0,80,67,1,79
,,,,,,,,,,,,,,,,,,,,,,,,,,,,,,,,,,,a,2.648999929,RA,FALSE,,,,,,,175,raspall,Catalan,Sounds/cat_raspall.mp3,2020-06-08_15h16.03.905,TranslationElicitation_spa,3.2.4,Win32,60,5ede198e9586fe02aecca093,,1,0,80,67,1,79
,,,,,,,,,,,,,,,,,,,,,,,,,,,,,,,,,,,s,2.747999907,RAS,FALSE,,,,,,,175,raspall,Catalan,Sounds/cat_raspall.mp3,2020-06-08_15h16.03.905,TranslationElicitation_spa,3.2.4,Win32,60,5ede198e9586fe02aecca093,,1,0,80,67,1,79
,,,,,,,,,,,,,,,,,,,,,,,,,,,,,,,,,,,p,2.948999882,RASP,FALSE,,,,,,,175,raspall,Catalan,Sounds/cat_raspall.mp3,2020-06-08_15h16.03.905,TranslationElicitation_spa,3.2.4,Win32,60,5ede198e9586fe02aecca093,,1,0,80,67,1,79
,,,,,,,,,,,,,,,,,,,,,,,,,,,,,,,,,,,a,3.231999874,RASPA,FALSE,,,,,,,175,raspall,Catalan,Sounds/cat_raspall.mp3,2020-06-08_15h16.03.905,TranslationElicitation_spa,3.2.4,Win32,60,5ede198e9586fe02aecca093,,1,0,80,67,1,79
,,,,,,,,,,,,,,,,,,,,,,,,,,,,,,,,,,,r,3.734999895,RASPAR,FALSE,,,,,,,175,raspall,Catalan,Sounds/cat_raspall.mp3,2020-06-08_15h16.03.905,TranslationElicitation_spa,3.2.4,Win32,60,5ede198e9586fe02aecca093,,1,0,80,67,1,79
,,,,,,,,,,,,,,,,,,,,,,,,,,,,,,,,,,,return,4.164999962,,FALSE,,,,,,,175,raspall,Catalan,Sounds/cat_raspall.mp3,2020-06-08_15h16.03.905,TranslationElicitation_spa,3.2.4,Win32,60,5ede198e9586fe02aecca093,4.164999962,1,0,80,67,1,79
,,,,,,,,,,,,,,,,,,,,,,,,,,,,,,,,,,,,,,,,,,,,,175,raspall,Catalan,Sounds/cat_raspall.mp3,2020-06-08_15h16.03.905,TranslationElicitation_spa,3.2.4,Win32,60,5ede198e9586fe02aecca093,,1,0,80,67,1,79
,,,,,,,,,,,,,,,,,,,,,,,,,,,,,,,,,,,p,1.598999977,P,FALSE,,,,,,,169,plat,Catalan,Sounds/cat_plat.mp3,2020-06-08_15h16.03.905,TranslationElicitation_spa,3.2.4,Win32,60,5ede198e9586fe02aecca093,,1,0,80,61,1,79
,,,,,,,,,,,,,,,,,,,,,,,,,,,,,,,,,,,l,1.730999947,PL,FALSE,,,,,,,169,plat,Catalan,Sounds/cat_plat.mp3,2020-06-08_15h16.03.905,TranslationElicitation_spa,3.2.4,Win32,60,5ede198e9586fe02aecca093,,1,0,80,61,1,79
,,,,,,,,,,,,,,,,,,,,,,,,,,,,,,,,,,,a,1.846999884,PLA,FALSE,,,,,,,169,plat,Catalan,Sounds/cat_plat.mp3,2020-06-08_15h16.03.905,TranslationElicitation_spa,3.2.4,Win32,60,5ede198e9586fe02aecca093,,1,0,80,61,1,79
,,,,,,,,,,,,,,,,,,,,,,,,,,,,,,,,,,,t,2.097999811,PLAT,FALSE,,,,,,,169,plat,Catalan,Sounds/cat_plat.mp3,2020-06-08_15h16.03.905,TranslationElicitation_spa,3.2.4,Win32,60,5ede198e9586fe02aecca093,,1,0,80,61,1,79
,,,,,,,,,,,,,,,,,,,,,,,,,,,,,,,,,,,o,2.230999947,PLATO,FALSE,,,,,,,169,plat,Catalan,Sounds/cat_plat.mp3,2020-06-08_15h16.03.905,TranslationElicitation_spa,3.2.4,Win32,60,5ede198e9586fe02aecca093,,1,0,80,61,1,79
,,,,,,,,,,,,,,,,,,,,,,,,,,,,,,,,,,,return,2.699999809,,FALSE,,,,,,,169,plat,Catalan,Sounds/cat_plat.mp3,2020-06-08_15h16.03.905,TranslationElicitation_spa,3.2.4,Win32,60,5ede198e9586fe02aecca093,2.699999809,1,0,80,61,1,79
,,,,,,,,,,,,,,,,,,,,,,,,,,,,,,,,,,,,,,,,,,,,,169,plat,Catalan,Sounds/cat_plat.mp3,2020-06-08_15h16.03.905,TranslationElicitation_spa,3.2.4,Win32,60,5ede198e9586fe02aecca093,,1,0,80,61,1,79
,,,,,,,,,,,,,,,,,,,,,,,,,,,,,,,,,,,b,5.894999981,B,FALSE,,,,,,,165,pernil,Catalan,Sounds/cat_pernil.mp3,2020-06-08_15h16.03.905,TranslationElicitation_spa,3.2.4,Win32,60,5ede198e9586fe02aecca093,,1,0,80,58,1,79
,,,,,,,,,,,,,,,,,,,,,,,,,,,,,,,,,,,a,6.023000002,BA,FALSE,,,,,,,165,pernil,Catalan,Sounds/cat_pernil.mp3,2020-06-08_15h16.03.905,TranslationElicitation_spa,3.2.4,Win32,60,5ede198e9586fe02aecca093,,1,0,80,58,1,79
,,,,,,,,,,,,,,,,,,,,,,,,,,,,,,,,,,,r,6.215999842,BAR,FALSE,,,,,,,165,pernil,Catalan,Sounds/cat_pernil.mp3,2020-06-08_15h16.03.905,TranslationElicitation_spa,3.2.4,Win32,60,5ede198e9586fe02aecca093,,1,0,80,58,1,79
,,,,,,,,,,,,,,,,,,,,,,,,,,,,,,,,,,,r,6.404999971,BARR,FALSE,,,,,,,165,pernil,Catalan,Sounds/cat_pernil.mp3,2020-06-08_15h16.03.905,TranslationElicitation_spa,3.2.4,Win32,60,5ede198e9586fe02aecca093,,1,0,80,58,1,79
,,,,,,,,,,,,,,,,,,,,,,,,,,,,,,,,,,,i,6.547999859,BARRI,FALSE,,,,,,,165,pernil,Catalan,Sounds/cat_pernil.mp3,2020-06-08_15h16.03.905,TranslationElicitation_spa,3.2.4,Win32,60,5ede198e9586fe02aecca093,,1,0,80,58,1,79
,,,,,,,,,,,,,,,,,,,,,,,,,,,,,,,,,,,l,6.809999943,BARRIL,FALSE,,,,,,,165,pernil,Catalan,Sounds/cat_pernil.mp3,2020-06-08_15h16.03.905,TranslationElicitation_spa,3.2.4,Win32,60,5ede198e9586fe02aecca093,,1,0,80,58,1,79
,,,,,,,,,,,,,,,,,,,,,,,,,,,,,,,,,,,return,7.166999817,,FALSE,,,,,,,165,pernil,Catalan,Sounds/cat_pernil.mp3,2020-06-08_15h16.03.905,TranslationElicitation_spa,3.2.4,Win32,60,5ede198e9586fe02aecca093,7.166999817,1,0,80,58,1,79
,,,,,,,,,,,,,,,,,,,,,,,,,,,,,,,,,,,,,,,,,,,,,165,pernil,Catalan,Sounds/cat_pernil.mp3,2020-06-08_15h16.03.905,TranslationElicitation_spa,3.2.4,Win32,60,5ede198e9586fe02aecca093,,1,0,80,58,1,79
,,,,,,,,,,,,,,,,,,,,,,,,,,,,,,,,,,,l,2.016000032,L,FALSE,,,,,,,153,mico,Catalan,Sounds/cat_mico.mp3,2020-06-08_15h16.03.905,TranslationElicitation_spa,3.2.4,Win32,60,5ede198e9586fe02aecca093,,1,0,80,47,1,79
,,,,,,,,,,,,,,,,,,,,,,,,,,,,,,,,,,,e,2.116000175,LE,FALSE,,,,,,,153,mico,Catalan,Sounds/cat_mico.mp3,2020-06-08_15h16.03.905,TranslationElicitation_spa,3.2.4,Win32,60,5ede198e9586fe02aecca093,,1,0,80,47,1,79
,,,,,,,,,,,,,,,,,,,,,,,,,,,,,,,,,,,c,2.517000198,LEC,FALSE,,,,,,,153,mico,Catalan,Sounds/cat_mico.mp3,2020-06-08_15h16.03.905,TranslationElicitation_spa,3.2.4,Win32,60,5ede198e9586fe02aecca093,,1,0,80,47,1,79
,,,,,,,,,,,,,,,,,,,,,,,,,,,,,,,,,,,h,2.649000168,LECH,FALSE,,,,,,,153,mico,Catalan,Sounds/cat_mico.mp3,2020-06-08_15h16.03.905,TranslationElicitation_spa,3.2.4,Win32,60,5ede198e9586fe02aecca093,,1,0,80,47,1,79
,,,,,,,,,,,,,,,,,,,,,,,,,,,,,,,,,,,e,2.73300004,LECHE,FALSE,,,,,,,153,mico,Catalan,Sounds/cat_mico.mp3,2020-06-08_15h16.03.905,TranslationElicitation_spa,3.2.4,Win32,60,5ede198e9586fe02aecca093,,1,0,80,47,1,79
,,,,,,,,,,,,,,,,,,,,,,,,,,,,,,,,,,,return,3.251000166,,FALSE,,,,,,,153,mico,Catalan,Sounds/cat_mico.mp3,2020-06-08_15h16.03.905,TranslationElicitation_spa,3.2.4,Win32,60,5ede198e9586fe02aecca093,3.251000166,1,0,80,47,1,79
,,,,,,,,,,,,,,,,,,,,,,,,,,,,,,,,,,,,,,,,,,,,,153,mico,Catalan,Sounds/cat_mico.mp3,2020-06-08_15h16.03.905,TranslationElicitation_spa,3.2.4,Win32,60,5ede198e9586fe02aecca093,,1,0,80,47,1,79
,,,,,,,,,,,,,,,,,,,,,,,,,,,,,,,,,,,c,24.68700004,C,FALSE,,,,,,,125,colom,Catalan,Sounds/cat_colom.mp3,2020-06-08_15h16.03.905,TranslationElicitation_spa,3.2.4,Win32,60,5ede198e9586fe02aecca093,,1,0,80,20,1,79
,,,,,,,,,,,,,,,,,,,,,,,,,,,,,,,,,,,o,24.72799993,CO,FALSE,,,,,,,125,colom,Catalan,Sounds/cat_colom.mp3,2020-06-08_15h16.03.905,TranslationElicitation_spa,3.2.4,Win32,60,5ede198e9586fe02aecca093,,1,0,80,20,1,79
,,,,,,,,,,,,,,,,,,,,,,,,,,,,,,,,,,,l,24.91300011,COL,FALSE,,,,,,,125,colom,Catalan,Sounds/cat_colom.mp3,2020-06-08_15h16.03.905,TranslationElicitation_spa,3.2.4,Win32,60,5ede198e9586fe02aecca093,,1,0,80,20,1,79
,,,,,,,,,,,,,,,,,,,,,,,,,,,,,,,,,,,o,25.04399991,COLO,FALSE,,,,,,,125,colom,Catalan,Sounds/cat_colom.mp3,2020-06-08_15h16.03.905,TranslationElicitation_spa,3.2.4,Win32,60,5ede198e9586fe02aecca093,,1,0,80,20,1,79
,,,,,,,,,,,,,,,,,,,,,,,,,,,,,,,,,,,m,25.54500008,COLOM,FALSE,,,,,,,125,colom,Catalan,Sounds/cat_colom.mp3,2020-06-08_15h16.03.905,TranslationElicitation_spa,3.2.4,Win32,60,5ede198e9586fe02aecca093,,1,0,80,20,1,79
,,,,,,,,,,,,,,,,,,,,,,,,,,,,,,,,,,,return,25.93199992,,FALSE,,,,,,,125,colom,Catalan,Sounds/cat_colom.mp3,2020-06-08_15h16.03.905,TranslationElicitation_spa,3.2.4,Win32,60,5ede198e9586fe02aecca093,25.93199992,1,0,80,20,1,79
,,,,,,,,,,,,,,,,,,,,,,,,,,,,,,,,,,,,,,,,,,,,,125,colom,Catalan,Sounds/cat_colom.mp3,2020-06-08_15h16.03.905,TranslationElicitation_spa,3.2.4,Win32,60,5ede198e9586fe02aecca093,,1,0,80,20,1,79
,,,,,,,,,,,,,,,,,,,,,,,,,,,,,,,,,,,b,1.757000208,B,FALSE,,,,,,,112,bici,Catalan,Sounds/cat_bici.mp3,2020-06-08_15h16.03.905,TranslationElicitation_spa,3.2.4,Win32,60,5ede198e9586fe02aecca093,,1,0,80,7,1,79
,,,,,,,,,,,,,,,,,,,,,,,,,,,,,,,,,,,i,1.907000065,BI,FALSE,,,,,,,112,bici,Catalan,Sounds/cat_bici.mp3,2020-06-08_15h16.03.905,TranslationElicitation_spa,3.2.4,Win32,60,5ede198e9586fe02aecca093,,1,0,80,7,1,79
,,,,,,,,,,,,,,,,,,,,,,,,,,,,,,,,,,,c,2.023000002,BIC,FALSE,,,,,,,112,bici,Catalan,Sounds/cat_bici.mp3,2020-06-08_15h16.03.905,TranslationElicitation_spa,3.2.4,Win32,60,5ede198e9586fe02aecca093,,1,0,80,7,1,79
,,,,,,,,,,,,,,,,,,,,,,,,,,,,,,,,,,,i,2.157000065,BICI,FALSE,,,,,,,112,bici,Catalan,Sounds/cat_bici.mp3,2020-06-08_15h16.03.905,TranslationElicitation_spa,3.2.4,Win32,60,5ede198e9586fe02aecca093,,1,0,80,7,1,79
,,,,,,,,,,,,,,,,,,,,,,,,,,,,,,,,,,,return,2.523000002,,FALSE,,,,,,,112,bici,Catalan,Sounds/cat_bici.mp3,2020-06-08_15h16.03.905,TranslationElicitation_spa,3.2.4,Win32,60,5ede198e9586fe02aecca093,2.523000002,1,0,80,7,1,79
,,,,,,,,,,,,,,,,,,,,,,,,,,,,,,,,,,,,,,,,,,,,,112,bici,Catalan,Sounds/cat_bici.mp3,2020-06-08_15h16.03.905,TranslationElicitation_spa,3.2.4,Win32,60,5ede198e9586fe02aecca093,,1,0,80,7,1,79
,,,,,,,,,,,,,,,,,,,,,,,,,,,,,,,,,,,c,1.48300004,C,FALSE,,,,,,,119,caixa,Catalan,Sounds/cat_caixa.mp3,2020-06-08_15h16.03.905,TranslationElicitation_spa,3.2.4,Win32,60,5ede198e9586fe02aecca093,,1,0,80,14,1,79
,,,,,,,,,,,,,,,,,,,,,,,,,,,,,,,,,,,a,1.582999945,CA,FALSE,,,,,,,119,caixa,Catalan,Sounds/cat_caixa.mp3,2020-06-08_15h16.03.905,TranslationElicitation_spa,3.2.4,Win32,60,5ede198e9586fe02aecca093,,1,0,80,14,1,79
,,,,,,,,,,,,,,,,,,,,,,,,,,,,,,,,,,,s,1.830999851,CAS,FALSE,,,,,,,119,caixa,Catalan,Sounds/cat_caixa.mp3,2020-06-08_15h16.03.905,TranslationElicitation_spa,3.2.4,Win32,60,5ede198e9586fe02aecca093,,1,0,80,14,1,79
,,,,,,,,,,,,,,,,,,,,,,,,,,,,,,,,,,,a,1.882999897,CASA,FALSE,,,,,,,119,caixa,Catalan,Sounds/cat_caixa.mp3,2020-06-08_15h16.03.905,TranslationElicitation_spa,3.2.4,Win32,60,5ede198e9586fe02aecca093,,1,0,80,14,1,79
,,,,,,,,,,,,,,,,,,,,,,,,,,,,,,,,,,,return,2.303999901,,FALSE,,,,,,,119,caixa,Catalan,Sounds/cat_caixa.mp3,2020-06-08_15h16.03.905,TranslationElicitation_spa,3.2.4,Win32,60,5ede198e9586fe02aecca093,2.303999901,1,0,80,14,1,79
,,,,,,,,,,,,,,,,,,,,,,,,,,,,,,,,,,,,,,,,,,,,,119,caixa,Catalan,Sounds/cat_caixa.mp3,2020-06-08_15h16.03.905,TranslationElicitation_spa,3.2.4,Win32,60,5ede198e9586fe02aecca093,,1,0,80,14,1,79
,,,,,,,,,,,,,,,,,,,,,,,,,,,,,,,,,,,b,1.815000057,B,FALSE,,,,,,,111,bibero,Catalan,Sounds/cat_bibero.mp3,2020-06-08_15h16.03.905,TranslationElicitation_spa,3.2.4,Win32,60,5ede198e9586fe02aecca093,,1,0,80,6,1,79
,,,,,,,,,,,,,,,,,,,,,,,,,,,,,,,,,,,i,2.015000105,BI,FALSE,,,,,,,111,bibero,Catalan,Sounds/cat_bibero.mp3,2020-06-08_15h16.03.905,TranslationElicitation_spa,3.2.4,Win32,60,5ede198e9586fe02aecca093,,1,0,80,6,1,79
,,,,,,,,,,,,,,,,,,,,,,,,,,,,,,,,,,,b,2.246999979,BIB,FALSE,,,,,,,111,bibero,Catalan,Sounds/cat_bibero.mp3,2020-06-08_15h16.03.905,TranslationElicitation_spa,3.2.4,Win32,60,5ede198e9586fe02aecca093,,1,0,80,6,1,79
,,,,,,,,,,,,,,,,,,,,,,,,,,,,,,,,,,,e,2.33100009,BIBE,FALSE,,,,,,,111,bibero,Catalan,Sounds/cat_bibero.mp3,2020-06-08_15h16.03.905,TranslationElicitation_spa,3.2.4,Win32,60,5ede198e9586fe02aecca093,,1,0,80,6,1,79
,,,,,,,,,,,,,,,,,,,,,,,,,,,,,,,,,,,r,2.631000042,BIBER,FALSE,,,,,,,111,bibero,Catalan,Sounds/cat_bibero.mp3,2020-06-08_15h16.03.905,TranslationElicitation_spa,3.2.4,Win32,60,5ede198e9586fe02aecca093,,1,0,80,6,1,79
,,,,,,,,,,,,,,,,,,,,,,,,,,,,,,,,,,,o,2.847000122,BIBERO,FALSE,,,,,,,111,bibero,Catalan,Sounds/cat_bibero.mp3,2020-06-08_15h16.03.905,TranslationElicitation_spa,3.2.4,Win32,60,5ede198e9586fe02aecca093,,1,0,80,6,1,79
,,,,,,,,,,,,,,,,,,,,,,,,,,,,,,,,,,,n,3.100000143,BIBERON,FALSE,,,,,,,111,bibero,Catalan,Sounds/cat_bibero.mp3,2020-06-08_15h16.03.905,TranslationElicitation_spa,3.2.4,Win32,60,5ede198e9586fe02aecca093,,1,0,80,6,1,79
,,,,,,,,,,,,,,,,,,,,,,,,,,,,,,,,,,,return,3.664999962,,FALSE,,,,,,,111,bibero,Catalan,Sounds/cat_bibero.mp3,2020-06-08_15h16.03.905,TranslationElicitation_spa,3.2.4,Win32,60,5ede198e9586fe02aecca093,3.664999962,1,0,80,6,1,79
,,,,,,,,,,,,,,,,,,,,,,,,,,,,,,,,,,,,,,,,,,,,,111,bibero,Catalan,Sounds/cat_bibero.mp3,2020-06-08_15h16.03.905,TranslationElicitation_spa,3.2.4,Win32,60,5ede198e9586fe02aecca093,,1,0,80,6,1,79
,,,,,,,,,,,,,,,,,,,,,,,,,,,,,,,,,,,a,5.480999947,A,FALSE,,,,,,,130,entrepa,Catalan,Sounds/cat_entrepa.mp3,2020-06-08_15h16.03.905,TranslationElicitation_spa,3.2.4,Win32,60,5ede198e9586fe02aecca093,,1,0,80,25,1,79
,,,,,,,,,,,,,,,,,,,,,,,,,,,,,,,,,,,t,5.698999882,AT,FALSE,,,,,,,130,entrepa,Catalan,Sounds/cat_entrepa.mp3,2020-06-08_15h16.03.905,TranslationElicitation_spa,3.2.4,Win32,60,5ede198e9586fe02aecca093,,1,0,80,25,1,79
,,,,,,,,,,,,,,,,,,,,,,,,,,,,,,,,,,,r,5.865999937,ATR,FALSE,,,,,,,130,entrepa,Catalan,Sounds/cat_entrepa.mp3,2020-06-08_15h16.03.905,TranslationElicitation_spa,3.2.4,Win32,60,5ede198e9586fe02aecca093,,1,0,80,25,1,79
,,,,,,,,,,,,,,,,,,,,,,,,,,,,,,,,,,,a,5.967000008,ATRA,FALSE,,,,,,,130,entrepa,Catalan,Sounds/cat_entrepa.mp3,2020-06-08_15h16.03.905,TranslationElicitation_spa,3.2.4,Win32,60,5ede198e9586fe02aecca093,,1,0,80,25,1,79
,,,,,,,,,,,,,,,,,,,,,,,,,,,,,,,,,,,p,6.631000042,ATRAP,FALSE,,,,,,,130,entrepa,Catalan,Sounds/cat_entrepa.mp3,2020-06-08_15h16.03.905,TranslationElicitation_spa,3.2.4,Win32,60,5ede198e9586fe02aecca093,,1,0,80,25,1,79
,,,,,,,,,,,,,,,,,,,,,,,,,,,,,,,,,,,a,6.680999994,ATRAPA,FALSE,,,,,,,130,entrepa,Catalan,Sounds/cat_entrepa.mp3,2020-06-08_15h16.03.905,TranslationElicitation_spa,3.2.4,Win32,60,5ede198e9586fe02aecca093,,1,0,80,25,1,79
,,,,,,,,,,,,,,,,,,,,,,,,,,,,,,,,,,,d,6.861999989,ATRAPAD,FALSE,,,,,,,130,entrepa,Catalan,Sounds/cat_entrepa.mp3,2020-06-08_15h16.03.905,TranslationElicitation_spa,3.2.4,Win32,60,5ede198e9586fe02aecca093,,1,0,80,25,1,79
,,,,,,,,,,,,,,,,,,,,,,,,,,,,,,,,,,,a,6.947000027,ATRAPADA,FALSE,,,,,,,130,entrepa,Catalan,Sounds/cat_entrepa.mp3,2020-06-08_15h16.03.905,TranslationElicitation_spa,3.2.4,Win32,60,5ede198e9586fe02aecca093,,1,0,80,25,1,79
,,,,,,,,,,,,,,,,,,,,,,,,,,,,,,,,,,,return,7.316999912,,FALSE,,,,,,,130,entrepa,Catalan,Sounds/cat_entrepa.mp3,2020-06-08_15h16.03.905,TranslationElicitation_spa,3.2.4,Win32,60,5ede198e9586fe02aecca093,7.316999912,1,0,80,25,1,79
,,,,,,,,,,,,,,,,,,,,,,,,,,,,,,,,,,,,,,,,,,,,,130,entrepa,Catalan,Sounds/cat_entrepa.mp3,2020-06-08_15h16.03.905,TranslationElicitation_spa,3.2.4,Win32,60,5ede198e9586fe02aecca093,,1,0,80,25,1,79
,,,,,,,,,,,,,,,,,,,,,,,,,,,,,,,,,,,e,3.595999956,E,FALSE,,,,,,,108,ampolla,Catalan,Sounds/cat_ampolla.mp3,2020-06-08_15h16.03.905,TranslationElicitation_spa,3.2.4,Win32,60,5ede198e9586fe02aecca093,,1,0,80,4,1,79
,,,,,,,,,,,,,,,,,,,,,,,,,,,,,,,,,,,m,3.681999922,EM,FALSE,,,,,,,108,ampolla,Catalan,Sounds/cat_ampolla.mp3,2020-06-08_15h16.03.905,TranslationElicitation_spa,3.2.4,Win32,60,5ede198e9586fe02aecca093,,1,0,80,4,1,79
,,,,,,,,,,,,,,,,,,,,,,,,,,,,,,,,,,,p,6.363999844,EMP,FALSE,,,,,,,108,ampolla,Catalan,Sounds/cat_ampolla.mp3,2020-06-08_15h16.03.905,TranslationElicitation_spa,3.2.4,Win32,60,5ede198e9586fe02aecca093,,1,0,80,4,1,79
,,,,,,,,,,,,,,,,,,,,,,,,,,,,,,,,,,,u,6.613999844,EMPU,FALSE,,,,,,,108,ampolla,Catalan,Sounds/cat_ampolla.mp3,2020-06-08_15h16.03.905,TranslationElicitation_spa,3.2.4,Win32,60,5ede198e9586fe02aecca093,,1,0,80,4,1,79
,,,,,,,,,,,,,,,,,,,,,,,,,,,,,,,,,,,semicolon,7.01699996,EMPUÑ,FALSE,,,,,,,108,ampolla,Catalan,Sounds/cat_ampolla.mp3,2020-06-08_15h16.03.905,TranslationElicitation_spa,3.2.4,Win32,60,5ede198e9586fe02aecca093,,1,0,80,4,1,79
,,,,,,,,,,,,,,,,,,,,,,,,,,,,,,,,,,,a,7.164000034,EMPUÑA,FALSE,,,,,,,108,ampolla,Catalan,Sounds/cat_ampolla.mp3,2020-06-08_15h16.03.905,TranslationElicitation_spa,3.2.4,Win32,60,5ede198e9586fe02aecca093,,1,0,80,4,1,79
,,,,,,,,,,,,,,,,,,,,,,,,,,,,,,,,,,,r,7.289000034,EMPUÑAR,FALSE,,,,,,,108,ampolla,Catalan,Sounds/cat_ampolla.mp3,2020-06-08_15h16.03.905,TranslationElicitation_spa,3.2.4,Win32,60,5ede198e9586fe02aecca093,,1,0,80,4,1,79
,,,,,,,,,,,,,,,,,,,,,,,,,,,,,,,,,,,return,7.860999823,,FALSE,,,,,,,108,ampolla,Catalan,Sounds/cat_ampolla.mp3,2020-06-08_15h16.03.905,TranslationElicitation_spa,3.2.4,Win32,60,5ede198e9586fe02aecca093,7.860999823,1,0,80,4,1,79
,,,,,,,,,,,,,,,,,,,,,,,,,,,,,,,,,,,,,,,,,,,,,108,ampolla,Catalan,Sounds/cat_ampolla.mp3,2020-06-08_15h16.03.905,TranslationElicitation_spa,3.2.4,Win32,60,5ede198e9586fe02aecca093,,1,0,80,4,1,79
,,,,,,,,,,,,,,,,,,,,,,,,,,,,,,,,,,,j,1.809999943,J,FALSE,,,,,,,142,girafa,Catalan,Sounds/cat_girafa.mp3,2020-06-08_15h16.03.905,TranslationElicitation_spa,3.2.4,Win32,60,5ede198e9586fe02aecca093,,1,0,80,37,1,79
,,,,,,,,,,,,,,,,,,,,,,,,,,,,,,,,,,,i,1.962000132,JI,FALSE,,,,,,,142,girafa,Catalan,Sounds/cat_girafa.mp3,2020-06-08_15h16.03.905,TranslationElicitation_spa,3.2.4,Win32,60,5ede198e9586fe02aecca093,,1,0,80,37,1,79
,,,,,,,,,,,,,,,,,,,,,,,,,,,,,,,,,,,r,2.161999941,JIR,FALSE,,,,,,,142,girafa,Catalan,Sounds/cat_girafa.mp3,2020-06-08_15h16.03.905,TranslationElicitation_spa,3.2.4,Win32,60,5ede198e9586fe02aecca093,,1,0,80,37,1,79
,,,,,,,,,,,,,,,,,,,,,,,,,,,,,,,,,,,a,2.446000099,JIRA,FALSE,,,,,,,142,girafa,Catalan,Sounds/cat_girafa.mp3,2020-06-08_15h16.03.905,TranslationElicitation_spa,3.2.4,Win32,60,5ede198e9586fe02aecca093,,1,0,80,37,1,79
,,,,,,,,,,,,,,,,,,,,,,,,,,,,,,,,,,,g,2.965000153,JIRAG,FALSE,,,,,,,142,girafa,Catalan,Sounds/cat_girafa.mp3,2020-06-08_15h16.03.905,TranslationElicitation_spa,3.2.4,Win32,60,5ede198e9586fe02aecca093,,1,0,80,37,1,79
,,,,,,,,,,,,,,,,,,,,,,,,,,,,,,,,,,,a,3.062999964,JIRAGA,FALSE,,,,,,,142,girafa,Catalan,Sounds/cat_girafa.mp3,2020-06-08_15h16.03.905,TranslationElicitation_spa,3.2.4,Win32,60,5ede198e9586fe02aecca093,,1,0,80,37,1,79
,,,,,,,,,,,,,,,,,,,,,,,,,,,,,,,,,,,backspace,3.623000145,JIRA,TRUE,,,,,,,142,girafa,Catalan,Sounds/cat_girafa.mp3,2020-06-08_15h16.03.905,TranslationElicitation_spa,3.2.4,Win32,60,5ede198e9586fe02aecca093,,1,0,80,37,1,79
,,,,,,,,,,,,,,,,,,,,,,,,,,,,,,,,,,,backspace,3.786999941,JI,TRUE,,,,,,,142,girafa,Catalan,Sounds/cat_girafa.mp3,2020-06-08_15h16.03.905,TranslationElicitation_spa,3.2.4,Win32,60,5ede198e9586fe02aecca093,,1,0,80,37,1,79
,,,,,,,,,,,,,,,,,,,,,,,,,,,,,,,,,,,f,4.387000084,JIF,TRUE,,,,,,,142,girafa,Catalan,Sounds/cat_girafa.mp3,2020-06-08_15h16.03.905,TranslationElicitation_spa,3.2.4,Win32,60,5ede198e9586fe02aecca093,,1,0,80,37,1,79
,,,,,,,,,,,,,,,,,,,,,,,,,,,,,,,,,,,a,4.488000154,JIFA,TRUE,,,,,,,142,girafa,Catalan,Sounds/cat_girafa.mp3,2020-06-08_15h16.03.905,TranslationElicitation_spa,3.2.4,Win32,60,5ede198e9586fe02aecca093,,1,0,80,37,1,79
,,,,,,,,,,,,,,,,,,,,,,,,,,,,,,,,,,,backspace,5.222000122,JI,TRUE,,,,,,,142,girafa,Catalan,Sounds/cat_girafa.mp3,2020-06-08_15h16.03.905,TranslationElicitation_spa,3.2.4,Win32,60,5ede198e9586fe02aecca093,,1,0,80,37,1,79
,,,,,,,,,,,,,,,,,,,,,,,,,,,,,,,,,,,backspace,5.627000093,,TRUE,,,,,,,142,girafa,Catalan,Sounds/cat_girafa.mp3,2020-06-08_15h16.03.905,TranslationElicitation_spa,3.2.4,Win32,60,5ede198e9586fe02aecca093,,1,0,80,37,1,79
,,,,,,,,,,,,,,,,,,,,,,,,,,,,,,,,,,,j,6.611000061,J,TRUE,,,,,,,142,girafa,Catalan,Sounds/cat_girafa.mp3,2020-06-08_15h16.03.905,TranslationElicitation_spa,3.2.4,Win32,60,5ede198e9586fe02aecca093,,1,0,80,37,1,79
,,,,,,,,,,,,,,,,,,,,,,,,,,,,,,,,,,,i,6.858999968,JI,TRUE,,,,,,,142,girafa,Catalan,Sounds/cat_girafa.mp3,2020-06-08_15h16.03.905,TranslationElicitation_spa,3.2.4,Win32,60,5ede198e9586fe02aecca093,,1,0,80,37,1,79
,,,,,,,,,,,,,,,,,,,,,,,,,,,,,,,,,,,r,7.542999983,JIR,TRUE,,,,,,,142,girafa,Catalan,Sounds/cat_girafa.mp3,2020-06-08_15h16.03.905,TranslationElicitation_spa,3.2.4,Win32,60,5ede198e9586fe02aecca093,,1,0,80,37,1,79
,,,,,,,,,,,,,,,,,,,,,,,,,,,,,,,,,,,a,7.659000158,JIRA,TRUE,,,,,,,142,girafa,Catalan,Sounds/cat_girafa.mp3,2020-06-08_15h16.03.905,TranslationElicitation_spa,3.2.4,Win32,60,5ede198e9586fe02aecca093,,1,0,80,37,1,79
,,,,,,,,,,,,,,,,,,,,,,,,,,,,,,,,,,,f,7.802000046,JIRAF,TRUE,,,,,,,142,girafa,Catalan,Sounds/cat_girafa.mp3,2020-06-08_15h16.03.905,TranslationElicitation_spa,3.2.4,Win32,60,5ede198e9586fe02aecca093,,1,0,80,37,1,79
,,,,,,,,,,,,,,,,,,,,,,,,,,,,,,,,,,,a,7.881999969,JIRAFA,TRUE,,,,,,,142,girafa,Catalan,Sounds/cat_girafa.mp3,2020-06-08_15h16.03.905,TranslationElicitation_spa,3.2.4,Win32,60,5ede198e9586fe02aecca093,,1,0,80,37,1,79
,,,,,,,,,,,,,,,,,,,,,,,,,,,,,,,,,,,return,8.578999996,,TRUE,,,,,,,142,girafa,Catalan,Sounds/cat_girafa.mp3,2020-06-08_15h16.03.905,TranslationElicitation_spa,3.2.4,Win32,60,5ede198e9586fe02aecca093,8.578999996,1,0,80,37,1,79
,,,,,,,,,,,,,,,,,,,,,,,,,,,,,,,,,,,,,,,,,,,,,142,girafa,Catalan,Sounds/cat_girafa.mp3,2020-06-08_15h16.03.905,TranslationElicitation_spa,3.2.4,Win32,60,5ede198e9586fe02aecca093,,1,0,80,37,1,79
,,,,,,,,,,,,,,,,,,,,,,,,,,,,,,,,,,,f,1.147000074,F,FALSE,,,,,,,134,flor,Catalan,Sounds/cat_flor.mp3,2020-06-08_15h16.03.905,TranslationElicitation_spa,3.2.4,Win32,60,5ede198e9586fe02aecca093,,1,0,80,29,1,79
,,,,,,,,,,,,,,,,,,,,,,,,,,,,,,,,,,,l,1.231999874,FL,FALSE,,,,,,,134,flor,Catalan,Sounds/cat_flor.mp3,2020-06-08_15h16.03.905,TranslationElicitation_spa,3.2.4,Win32,60,5ede198e9586fe02aecca093,,1,0,80,29,1,79
,,,,,,,,,,,,,,,,,,,,,,,,,,,,,,,,,,,o,1.398999929,FLO,FALSE,,,,,,,134,flor,Catalan,Sounds/cat_flor.mp3,2020-06-08_15h16.03.905,TranslationElicitation_spa,3.2.4,Win32,60,5ede198e9586fe02aecca093,,1,0,80,29,1,79
,,,,,,,,,,,,,,,,,,,,,,,,,,,,,,,,,,,r,1.499000072,FLOR,FALSE,,,,,,,134,flor,Catalan,Sounds/cat_flor.mp3,2020-06-08_15h16.03.905,TranslationElicitation_spa,3.2.4,Win32,60,5ede198e9586fe02aecca093,,1,0,80,29,1,79
,,,,,,,,,,,,,,,,,,,,,,,,,,,,,,,,,,,return,1.815000057,,FALSE,,,,,,,134,flor,Catalan,Sounds/cat_flor.mp3,2020-06-08_15h16.03.905,TranslationElicitation_spa,3.2.4,Win32,60,5ede198e9586fe02aecca093,1.815000057,1,0,80,29,1,79
,,,,,,,,,,,,,,,,,,,,,,,,,,,,,,,,,,,,,,,,,,,,,134,flor,Catalan,Sounds/cat_flor.mp3,2020-06-08_15h16.03.905,TranslationElicitation_spa,3.2.4,Win32,60,5ede198e9586fe02aecca093,,1,0,80,29,1,79
,,,,,,,,,,,,,,,,,,,,,,,,,,,,,,,,,,,s,4.448999882,S,FALSE,,,,,,,141,gerd,Catalan,Sounds/cat_gerd.mp3,2020-06-08_15h16.03.905,TranslationElicitation_spa,3.2.4,Win32,60,5ede198e9586fe02aecca093,,1,0,80,36,1,79
,,,,,,,,,,,,,,,,,,,,,,,,,,,,,,,,,,,e,4.683000088,SE,FALSE,,,,,,,141,gerd,Catalan,Sounds/cat_gerd.mp3,2020-06-08_15h16.03.905,TranslationElicitation_spa,3.2.4,Win32,60,5ede198e9586fe02aecca093,,1,0,80,36,1,79
,,,,,,,,,,,,,,,,,,,,,,,,,,,,,,,,,,,r,4.898000002,SER,FALSE,,,,,,,141,gerd,Catalan,Sounds/cat_gerd.mp3,2020-06-08_15h16.03.905,TranslationElicitation_spa,3.2.4,Win32,60,5ede198e9586fe02aecca093,,1,0,80,36,1,79
,,,,,,,,,,,,,,,,,,,,,,,,,,,,,,,,,,,return,5.332000017,,FALSE,,,,,,,141,gerd,Catalan,Sounds/cat_gerd.mp3,2020-06-08_15h16.03.905,TranslationElicitation_spa,3.2.4,Win32,60,5ede198e9586fe02aecca093,5.332000017,1,0,80,36,1,79
,,,,,,,,,,,,,,,,,,,,,,,,,,,,,,,,,,,,,,,,,,,,,141,gerd,Catalan,Sounds/cat_gerd.mp3,2020-06-08_15h16.03.905,TranslationElicitation_spa,3.2.4,Win32,60,5ede198e9586fe02aecca093,,1,0,80,36,1,79
,,,,,,,,,,,,,,,,,,,,,,,,,,,,,,,,,,,l,8.265000105,L,FALSE,,,,,,,150,lloro,Catalan,Sounds/cat_lloro.mp3,2020-06-08_15h16.03.905,TranslationElicitation_spa,3.2.4,Win32,60,5ede198e9586fe02aecca093,,1,0,80,44,1,79
,,,,,,,,,,,,,,,,,,,,,,,,,,,,,,,,,,,l,8.447999954,LL,FALSE,,,,,,,150,lloro,Catalan,Sounds/cat_lloro.mp3,2020-06-08_15h16.03.905,TranslationElicitation_spa,3.2.4,Win32,60,5ede198e9586fe02aecca093,,1,0,80,44,1,79
,,,,,,,,,,,,,,,,,,,,,,,,,,,,,,,,,,,o,8.598999977,LLO,FALSE,,,,,,,150,lloro,Catalan,Sounds/cat_lloro.mp3,2020-06-08_15h16.03.905,TranslationElicitation_spa,3.2.4,Win32,60,5ede198e9586fe02aecca093,,1,0,80,44,1,79
,,,,,,,,,,,,,,,,,,,,,,,,,,,,,,,,,,,r,9.215000153,LLOR,FALSE,,,,,,,150,lloro,Catalan,Sounds/cat_lloro.mp3,2020-06-08_15h16.03.905,TranslationElicitation_spa,3.2.4,Win32,60,5ede198e9586fe02aecca093,,1,0,80,44,1,79
,,,,,,,,,,,,,,,,,,,,,,,,,,,,,,,,,,,o,9.315000057,LLORO,FALSE,,,,,,,150,lloro,Catalan,Sounds/cat_lloro.mp3,2020-06-08_15h16.03.905,TranslationElicitation_spa,3.2.4,Win32,60,5ede198e9586fe02aecca093,,1,0,80,44,1,79
,,,,,,,,,,,,,,,,,,,,,,,,,,,,,,,,,,,return,9.674000025,,FALSE,,,,,,,150,lloro,Catalan,Sounds/cat_lloro.mp3,2020-06-08_15h16.03.905,TranslationElicitation_spa,3.2.4,Win32,60,5ede198e9586fe02aecca093,9.674000025,1,0,80,44,1,79
,,,,,,,,,,,,,,,,,,,,,,,,,,,,,,,,,,,,,,,,,,,,,150,lloro,Catalan,Sounds/cat_lloro.mp3,2020-06-08_15h16.03.905,TranslationElicitation_spa,3.2.4,Win32,60,5ede198e9586fe02aecca093,,1,0,80,44,1,79
,,,,,,,,,,,,,,,,,,,,,,,,,,,,,,,,,,,c,2.068999767,C,FALSE,,,,,,,123,cavall,Catalan,Sounds/cat_cavall.mp3,2020-06-08_15h16.03.905,TranslationElicitation_spa,3.2.4,Win32,60,5ede198e9586fe02aecca093,,1,0,80,18,1,79
,,,,,,,,,,,,,,,,,,,,,,,,,,,,,,,,,,,a,2.199999809,CA,FALSE,,,,,,,123,cavall,Catalan,Sounds/cat_cavall.mp3,2020-06-08_15h16.03.905,TranslationElicitation_spa,3.2.4,Win32,60,5ede198e9586fe02aecca093,,1,0,80,18,1,79
,,,,,,,,,,,,,,,,,,,,,,,,,,,,,,,,,,,b,2.973999977,CAB,FALSE,,,,,,,123,cavall,Catalan,Sounds/cat_cavall.mp3,2020-06-08_15h16.03.905,TranslationElicitation_spa,3.2.4,Win32,60,5ede198e9586fe02aecca093,,1,0,80,18,1,79
,,,,,,,,,,,,,,,,,,,,,,,,,,,,,,,,,,,a,3.126999855,CABA,FALSE,,,,,,,123,cavall,Catalan,Sounds/cat_cavall.mp3,2020-06-08_15h16.03.905,TranslationElicitation_spa,3.2.4,Win32,60,5ede198e9586fe02aecca093,,1,0,80,18,1,79
,,,,,,,,,,,,,,,,,,,,,,,,,,,,,,,,,,,l,3.873999834,CABAL,FALSE,,,,,,,123,cavall,Catalan,Sounds/cat_cavall.mp3,2020-06-08_15h16.03.905,TranslationElicitation_spa,3.2.4,Win32,60,5ede198e9586fe02aecca093,,1,0,80,18,1,79
,,,,,,,,,,,,,,,,,,,,,,,,,,,,,,,,,,,l,4.087999821,CABALL,FALSE,,,,,,,123,cavall,Catalan,Sounds/cat_cavall.mp3,2020-06-08_15h16.03.905,TranslationElicitation_spa,3.2.4,Win32,60,5ede198e9586fe02aecca093,,1,0,80,18,1,79
,,,,,,,,,,,,,,,,,,,,,,,,,,,,,,,,,,,o,4.353999853,CABALLO,FALSE,,,,,,,123,cavall,Catalan,Sounds/cat_cavall.mp3,2020-06-08_15h16.03.905,TranslationElicitation_spa,3.2.4,Win32,60,5ede198e9586fe02aecca093,,1,0,80,18,1,79
,,,,,,,,,,,,,,,,,,,,,,,,,,,,,,,,,,,return,5.804999828,,FALSE,,,,,,,123,cavall,Catalan,Sounds/cat_cavall.mp3,2020-06-08_15h16.03.905,TranslationElicitation_spa,3.2.4,Win32,60,5ede198e9586fe02aecca093,5.804999828,1,0,80,18,1,79
,,,,,,,,,,,,,,,,,,,,,,,,,,,,,,,,,,,,,,,,,,,,,123,cavall,Catalan,Sounds/cat_cavall.mp3,2020-06-08_15h16.03.905,TranslationElicitation_spa,3.2.4,Win32,60,5ede198e9586fe02aecca093,,1,0,80,18,1,79
,,,,,,,,,,,,,,,,,,,,,,,,,,,,,,,,,,,l,22.24699998,L,FALSE,,,,,,,171,pollastre,Catalan,Sounds/cat_pollastre.mp3,2020-06-08_15h16.03.905,TranslationElicitation_spa,3.2.4,Win32,60,5ede198e9586fe02aecca093,,1,0,80,63,1,79
,,,,,,,,,,,,,,,,,,,,,,,,,,,,,,,,,,,a,22.41199994,LA,FALSE,,,,,,,171,pollastre,Catalan,Sounds/cat_pollastre.mp3,2020-06-08_15h16.03.905,TranslationElicitation_spa,3.2.4,Win32,60,5ede198e9586fe02aecca093,,1,0,80,63,1,79
,,,,,,,,,,,,,,,,,,,,,,,,,,,,,,,,,,,s,22.48000002,LAS,FALSE,,,,,,,171,pollastre,Catalan,Sounds/cat_pollastre.mp3,2020-06-08_15h16.03.905,TranslationElicitation_spa,3.2.4,Win32,60,5ede198e9586fe02aecca093,,1,0,80,63,1,79
,,,,,,,,,,,,,,,,,,,,,,,,,,,,,,,,,,,t,22.86299992,LAST,FALSE,,,,,,,171,pollastre,Catalan,Sounds/cat_pollastre.mp3,2020-06-08_15h16.03.905,TranslationElicitation_spa,3.2.4,Win32,60,5ede198e9586fe02aecca093,,1,0,80,63,1,79
,,,,,,,,,,,,,,,,,,,,,,,,,,,,,,,,,,,r,23.08099985,LASTR,FALSE,,,,,,,171,pollastre,Catalan,Sounds/cat_pollastre.mp3,2020-06-08_15h16.03.905,TranslationElicitation_spa,3.2.4,Win32,60,5ede198e9586fe02aecca093,,1,0,80,63,1,79
,,,,,,,,,,,,,,,,,,,,,,,,,,,,,,,,,,,a,23.66499996,LASTRA,FALSE,,,,,,,171,pollastre,Catalan,Sounds/cat_pollastre.mp3,2020-06-08_15h16.03.905,TranslationElicitation_spa,3.2.4,Win32,60,5ede198e9586fe02aecca093,,1,0,80,63,1,79
,,,,,,,,,,,,,,,,,,,,,,,,,,,,,,,,,,,return,23.81399989,,FALSE,,,,,,,171,pollastre,Catalan,Sounds/cat_pollastre.mp3,2020-06-08_15h16.03.905,TranslationElicitation_spa,3.2.4,Win32,60,5ede198e9586fe02aecca093,23.81399989,1,0,80,63,1,79
,,,,,,,,,,,,,,,,,,,,,,,,,,,,,,,,,,,,,,,,,,,,,171,pollastre,Catalan,Sounds/cat_pollastre.mp3,2020-06-08_15h16.03.905,TranslationElicitation_spa,3.2.4,Win32,60,5ede198e9586fe02aecca093,,1,0,80,63,1,79
,,,,,,,,,,,,,,,,,,,,,,,,,,,,,,,,,,,a,3.005000114,A,FALSE,,,,,,,107,amanida,Catalan,Sounds/cat_amanida.mp3,2020-06-08_15h16.03.905,TranslationElicitation_spa,3.2.4,Win32,60,5ede198e9586fe02aecca093,,1,0,80,3,1,79
,,,,,,,,,,,,,,,,,,,,,,,,,,,,,,,,,,,m,3.154000044,AM,FALSE,,,,,,,107,amanida,Catalan,Sounds/cat_amanida.mp3,2020-06-08_15h16.03.905,TranslationElicitation_spa,3.2.4,Win32,60,5ede198e9586fe02aecca093,,1,0,80,3,1,79
,,,,,,,,,,,,,,,,,,,,,,,,,,,,,,,,,,,a,3.238000154,AMA,FALSE,,,,,,,107,amanida,Catalan,Sounds/cat_amanida.mp3,2020-06-08_15h16.03.905,TranslationElicitation_spa,3.2.4,Win32,60,5ede198e9586fe02aecca093,,1,0,80,3,1,79
,,,,,,,,,,,,,,,,,,,,,,,,,,,,,,,,,,,n,18.72300005,AMAN,FALSE,,,,,,,107,amanida,Catalan,Sounds/cat_amanida.mp3,2020-06-08_15h16.03.905,TranslationElicitation_spa,3.2.4,Win32,60,5ede198e9586fe02aecca093,,1,0,80,3,1,79
,,,,,,,,,,,,,,,,,,,,,,,,,,,,,,,,,,,e,18.74000001,AMANE,FALSE,,,,,,,107,amanida,Catalan,Sounds/cat_amanida.mp3,2020-06-08_15h16.03.905,TranslationElicitation_spa,3.2.4,Win32,60,5ede198e9586fe02aecca093,,1,0,80,3,1,79
,,,,,,,,,,,,,,,,,,,,,,,,,,,,,,,,,,,c,19.06900001,AMANEC,FALSE,,,,,,,107,amanida,Catalan,Sounds/cat_amanida.mp3,2020-06-08_15h16.03.905,TranslationElicitation_spa,3.2.4,Win32,60,5ede198e9586fe02aecca093,,1,0,80,3,1,79
,,,,,,,,,,,,,,,,,,,,,,,,,,,,,,,,,,,e,19.22099996,AMANECE,FALSE,,,,,,,107,amanida,Catalan,Sounds/cat_amanida.mp3,2020-06-08_15h16.03.905,TranslationElicitation_spa,3.2.4,Win32,60,5ede198e9586fe02aecca093,,1,0,80,3,1,79
,,,,,,,,,,,,,,,,,,,,,,,,,,,,,,,,,,,return,20.73800015,,FALSE,,,,,,,107,amanida,Catalan,Sounds/cat_amanida.mp3,2020-06-08_15h16.03.905,TranslationElicitation_spa,3.2.4,Win32,60,5ede198e9586fe02aecca093,20.73800015,1,0,80,3,1,79
,,,,,,,,,,,,,,,,,,,,,,,,,,,,,,,,,,,,,,,,,,,,,107,amanida,Catalan,Sounds/cat_amanida.mp3,2020-06-08_15h16.03.905,TranslationElicitation_spa,3.2.4,Win32,60,5ede198e9586fe02aecca093,,1,0,80,3,1,79
,,,,,,,,,,,,,,,,,,,,,,,,,,,,,,,,,,,a,1.322999954,A,FALSE,,,,,,,120,cama,Catalan,Sounds/cat_cama.mp3,2020-06-08_15h16.03.905,TranslationElicitation_spa,3.2.4,Win32,60,5ede198e9586fe02aecca093,,1,0,80,15,1,79
,,,,,,,,,,,,,,,,,,,,,,,,,,,,,,,,,,,backspace,1.973999977,,TRUE,,,,,,,120,cama,Catalan,Sounds/cat_cama.mp3,2020-06-08_15h16.03.905,TranslationElicitation_spa,3.2.4,Win32,60,5ede198e9586fe02aecca093,,1,0,80,15,1,79
,,,,,,,,,,,,,,,,,,,,,,,,,,,,,,,,,,,c,2.136999846,C,TRUE,,,,,,,120,cama,Catalan,Sounds/cat_cama.mp3,2020-06-08_15h16.03.905,TranslationElicitation_spa,3.2.4,Win32,60,5ede198e9586fe02aecca093,,1,0,80,15,1,79
