consentKey.keys,consentKey.rt,languageL1Key.keys,languageL1Key.rt,languageL2,languageL2OralKey.keys,languageL2OralKey.rt,languageL2WrittenKey.keys,languageL2WrittenKey.rt,languageL3OralKey.keys,languageL3OralKey.rt,languageL3WrittenKey.keys,languageL3WrittenKey.rt,languageCatalanOralKey.keys,languageCatalanOralKey.rt,languageCatalanWrittenKey.keys,languageCatalanWrittenKey.rt,languageCatalanTimeKey.keys,languageCatalanTimeKey.rt,age,demoSexKey.keys,demoSexKey.rt,demoEducationKey.keys,demoEducationKey.rt,city,demoVisionKey.keys,demoVisionKey.rt,demoLanguageKey.keys,demoLanguageKey.rt,setupLocationKey.keys,setupLocationKey.rt,setupNoiseKey.keys,setupNoiseKey.rt,instructionsKeys.keys,instructionsKeys.rt,keyPressed,keyPressTime,inputText,error,trials_practice.thisRepN,trials_practice.thisTrialN,trials_practice.thisN,trials_practice.thisIndex,trials_practice.ran,trials_practice.order,trial_id,word,test_language,soundfile,date,expName,psychopyVersion,OS,frameRate,participant,trialOffset,trials.thisRepN,trials.thisTrialN,trials.thisN,trials.thisIndex,trials.ran,trials.order
space,3.282999992,e,6.443000078,ITALIANO,3,7.970999956,3,6.933999777,3,12.24700022,3,3.315999985,1,5.343999863,1,4.31099987,1,5.470999956,20,m,1.653000116,4,4.210000038,MURCIA,s,3.866999865,n,3.061000109,1,2.720999956,1,5.796999931,space,12.25699997,space,7.523999929, ,FALSE,1,0,5,4,1,4,179,tigre,Catalan,Sounds/cat_tigre.mp3,2020-06-08_15h01.17.047,TranslationElicitation_spa,3.2.4,Win32,60,5ede1560a80d4f02f3e6e997,,,,,,,
,,,,,,,,,,,,,,,,,,,,,,,,,,,,,,,,,,,t,8.572999954, T,FALSE,1,0,5,4,1,4,179,tigre,Catalan,Sounds/cat_tigre.mp3,2020-06-08_15h01.17.047,TranslationElicitation_spa,3.2.4,Win32,60,5ede1560a80d4f02f3e6e997,,,,,,,
,,,,,,,,,,,,,,,,,,,,,,,,,,,,,,,,,,,i,10.12400007, TI,FALSE,1,0,5,4,1,4,179,tigre,Catalan,Sounds/cat_tigre.mp3,2020-06-08_15h01.17.047,TranslationElicitation_spa,3.2.4,Win32,60,5ede1560a80d4f02f3e6e997,,,,,,,
,,,,,,,,,,,,,,,,,,,,,,,,,,,,,,,,,,,return,12.33899999,,FALSE,1,0,5,4,1,4,179,tigre,Catalan,Sounds/cat_tigre.mp3,2020-06-08_15h01.17.047,TranslationElicitation_spa,3.2.4,Win32,60,5ede1560a80d4f02f3e6e997,12.33899999,,,,,,
,,,,,,,,,,,,,,,,,,,,,,,,,,,,,,,,,,,,,,,1,0,5,4,1,4,179,tigre,Catalan,Sounds/cat_tigre.mp3,2020-06-08_15h01.17.047,TranslationElicitation_spa,3.2.4,Win32,60,5ede1560a80d4f02f3e6e997,,,,,,,
,,,,,,,,,,,,,,,,,,,,,,,,,,,,,,,,,,,u,1.960999966,U,FALSE,1,0,5,2,1,4,159,onada,Catalan,Sounds/cat_onada.mp3,2020-06-08_15h01.17.047,TranslationElicitation_spa,3.2.4,Win32,60,5ede1560a80d4f02f3e6e997,,,,,,,
,,,,,,,,,,,,,,,,,,,,,,,,,,,,,,,,,,,n,2.144000053,UN,FALSE,1,0,5,2,1,4,159,onada,Catalan,Sounds/cat_onada.mp3,2020-06-08_15h01.17.047,TranslationElicitation_spa,3.2.4,Win32,60,5ede1560a80d4f02f3e6e997,,,,,,,
,,,,,,,,,,,,,,,,,,,,,,,,,,,,,,,,,,,space,2.860999823,UN ,FALSE,1,0,5,2,1,4,159,onada,Catalan,Sounds/cat_onada.mp3,2020-06-08_15h01.17.047,TranslationElicitation_spa,3.2.4,Win32,60,5ede1560a80d4f02f3e6e997,,,,,,,
,,,,,,,,,,,,,,,,,,,,,,,,,,,,,,,,,,,h,3.326999903,UN H,FALSE,1,0,5,2,1,4,159,onada,Catalan,Sounds/cat_onada.mp3,2020-06-08_15h01.17.047,TranslationElicitation_spa,3.2.4,Win32,60,5ede1560a80d4f02f3e6e997,,,,,,,
,,,,,,,,,,,,,,,,,,,,,,,,,,,,,,,,,,,a,3.460999966,UN HA,FALSE,1,0,5,2,1,4,159,onada,Catalan,Sounds/cat_onada.mp3,2020-06-08_15h01.17.047,TranslationElicitation_spa,3.2.4,Win32,60,5ede1560a80d4f02f3e6e997,,,,,,,
,,,,,,,,,,,,,,,,,,,,,,,,,,,,,,,,,,,d,3.694000006,UN HAD,FALSE,1,0,5,2,1,4,159,onada,Catalan,Sounds/cat_onada.mp3,2020-06-08_15h01.17.047,TranslationElicitation_spa,3.2.4,Win32,60,5ede1560a80d4f02f3e6e997,,,,,,,
,,,,,,,,,,,,,,,,,,,,,,,,,,,,,,,,,,,a,3.927000046,UN HADA,FALSE,1,0,5,2,1,4,159,onada,Catalan,Sounds/cat_onada.mp3,2020-06-08_15h01.17.047,TranslationElicitation_spa,3.2.4,Win32,60,5ede1560a80d4f02f3e6e997,,,,,,,
,,,,,,,,,,,,,,,,,,,,,,,,,,,,,,,,,,,return,5.243999958,,FALSE,1,0,5,2,1,4,159,onada,Catalan,Sounds/cat_onada.mp3,2020-06-08_15h01.17.047,TranslationElicitation_spa,3.2.4,Win32,60,5ede1560a80d4f02f3e6e997,5.243999958,,,,,,
,,,,,,,,,,,,,,,,,,,,,,,,,,,,,,,,,,,,,,,1,0,5,2,1,4,159,onada,Catalan,Sounds/cat_onada.mp3,2020-06-08_15h01.17.047,TranslationElicitation_spa,3.2.4,Win32,60,5ede1560a80d4f02f3e6e997,,,,,,,
,,,,,,,,,,,,,,,,,,,,,,,,,,,,,,,,,,,c,1.578000069,C,FALSE,1,0,5,1,1,4,147,jaqueta,Catalan,Sounds/cat_jaqueta.mp3,2020-06-08_15h01.17.047,TranslationElicitation_spa,3.2.4,Win32,60,5ede1560a80d4f02f3e6e997,,,,,,,
,,,,,,,,,,,,,,,,,,,,,,,,,,,,,,,,,,,h,1.727999926,CH,FALSE,1,0,5,1,1,4,147,jaqueta,Catalan,Sounds/cat_jaqueta.mp3,2020-06-08_15h01.17.047,TranslationElicitation_spa,3.2.4,Win32,60,5ede1560a80d4f02f3e6e997,,,,,,,
,,,,,,,,,,,,,,,,,,,,,,,,,,,,,,,,,,,a,1.828000069,CHA,FALSE,1,0,5,1,1,4,147,jaqueta,Catalan,Sounds/cat_jaqueta.mp3,2020-06-08_15h01.17.047,TranslationElicitation_spa,3.2.4,Win32,60,5ede1560a80d4f02f3e6e997,,,,,,,
,,,,,,,,,,,,,,,,,,,,,,,,,,,,,,,,,,,q,2.078000069,CHAQ,FALSE,1,0,5,1,1,4,147,jaqueta,Catalan,Sounds/cat_jaqueta.mp3,2020-06-08_15h01.17.047,TranslationElicitation_spa,3.2.4,Win32,60,5ede1560a80d4f02f3e6e997,,,,,,,
,,,,,,,,,,,,,,,,,,,,,,,,,,,,,,,,,,,u,2.278000116,CHAQU,FALSE,1,0,5,1,1,4,147,jaqueta,Catalan,Sounds/cat_jaqueta.mp3,2020-06-08_15h01.17.047,TranslationElicitation_spa,3.2.4,Win32,60,5ede1560a80d4f02f3e6e997,,,,,,,
,,,,,,,,,,,,,,,,,,,,,,,,,,,,,,,,,,,e,2.512000084,CHAQUE,FALSE,1,0,5,1,1,4,147,jaqueta,Catalan,Sounds/cat_jaqueta.mp3,2020-06-08_15h01.17.047,TranslationElicitation_spa,3.2.4,Win32,60,5ede1560a80d4f02f3e6e997,,,,,,,
,,,,,,,,,,,,,,,,,,,,,,,,,,,,,,,,,,,t,2.745000124,CHAQUET,FALSE,1,0,5,1,1,4,147,jaqueta,Catalan,Sounds/cat_jaqueta.mp3,2020-06-08_15h01.17.047,TranslationElicitation_spa,3.2.4,Win32,60,5ede1560a80d4f02f3e6e997,,,,,,,
,,,,,,,,,,,,,,,,,,,,,,,,,,,,,,,,,,,a,3.062000036,CHAQUETA,FALSE,1,0,5,1,1,4,147,jaqueta,Catalan,Sounds/cat_jaqueta.mp3,2020-06-08_15h01.17.047,TranslationElicitation_spa,3.2.4,Win32,60,5ede1560a80d4f02f3e6e997,,,,,,,
,,,,,,,,,,,,,,,,,,,,,,,,,,,,,,,,,,,return,3.778000116,,FALSE,1,0,5,1,1,4,147,jaqueta,Catalan,Sounds/cat_jaqueta.mp3,2020-06-08_15h01.17.047,TranslationElicitation_spa,3.2.4,Win32,60,5ede1560a80d4f02f3e6e997,3.778000116,,,,,,
,,,,,,,,,,,,,,,,,,,,,,,,,,,,,,,,,,,,,,,1,0,5,1,1,4,147,jaqueta,Catalan,Sounds/cat_jaqueta.mp3,2020-06-08_15h01.17.047,TranslationElicitation_spa,3.2.4,Win32,60,5ede1560a80d4f02f3e6e997,,,,,,,
,,,,,,,,,,,,,,,,,,,,,,,,,,,,,,,,,,,r,1.878999949,R,FALSE,1,0,5,0,1,4,109,arbre,Catalan,Sounds/cat_arbre.mp3,2020-06-08_15h01.17.047,TranslationElicitation_spa,3.2.4,Win32,60,5ede1560a80d4f02f3e6e997,,,,,,,
,,,,,,,,,,,,,,,,,,,,,,,,,,,,,,,,,,,b,2.111999989,RB,FALSE,1,0,5,0,1,4,109,arbre,Catalan,Sounds/cat_arbre.mp3,2020-06-08_15h01.17.047,TranslationElicitation_spa,3.2.4,Win32,60,5ede1560a80d4f02f3e6e997,,,,,,,
,,,,,,,,,,,,,,,,,,,,,,,,,,,,,,,,,,,backspace,2.661999941,,TRUE,1,0,5,0,1,4,109,arbre,Catalan,Sounds/cat_arbre.mp3,2020-06-08_15h01.17.047,TranslationElicitation_spa,3.2.4,Win32,60,5ede1560a80d4f02f3e6e997,,,,,,,
,,,,,,,,,,,,,,,,,,,,,,,,,,,,,,,,,,,backspace,2.845000029,,TRUE,1,0,5,0,1,4,109,arbre,Catalan,Sounds/cat_arbre.mp3,2020-06-08_15h01.17.047,TranslationElicitation_spa,3.2.4,Win32,60,5ede1560a80d4f02f3e6e997,,,,,,,
,,,,,,,,,,,,,,,,,,,,,,,,,,,,,,,,,,,backspace,2.977999926,,TRUE,1,0,5,0,1,4,109,arbre,Catalan,Sounds/cat_arbre.mp3,2020-06-08_15h01.17.047,TranslationElicitation_spa,3.2.4,Win32,60,5ede1560a80d4f02f3e6e997,,,,,,,
,,,,,,,,,,,,,,,,,,,,,,,,,,,,,,,,,,,a,3.128000021,A,TRUE,1,0,5,0,1,4,109,arbre,Catalan,Sounds/cat_arbre.mp3,2020-06-08_15h01.17.047,TranslationElicitation_spa,3.2.4,Win32,60,5ede1560a80d4f02f3e6e997,,,,,,,
,,,,,,,,,,,,,,,,,,,,,,,,,,,,,,,,,,,r,3.427999973,AR,TRUE,1,0,5,0,1,4,109,arbre,Catalan,Sounds/cat_arbre.mp3,2020-06-08_15h01.17.047,TranslationElicitation_spa,3.2.4,Win32,60,5ede1560a80d4f02f3e6e997,,,,,,,
,,,,,,,,,,,,,,,,,,,,,,,,,,,,,,,,,,,b,3.595000029,ARB,TRUE,1,0,5,0,1,4,109,arbre,Catalan,Sounds/cat_arbre.mp3,2020-06-08_15h01.17.047,TranslationElicitation_spa,3.2.4,Win32,60,5ede1560a80d4f02f3e6e997,,,,,,,
,,,,,,,,,,,,,,,,,,,,,,,,,,,,,,,,,,,o,3.944999933,ARBO,TRUE,1,0,5,0,1,4,109,arbre,Catalan,Sounds/cat_arbre.mp3,2020-06-08_15h01.17.047,TranslationElicitation_spa,3.2.4,Win32,60,5ede1560a80d4f02f3e6e997,,,,,,,
,,,,,,,,,,,,,,,,,,,,,,,,,,,,,,,,,,,l,4.095000029,ARBOL,TRUE,1,0,5,0,1,4,109,arbre,Catalan,Sounds/cat_arbre.mp3,2020-06-08_15h01.17.047,TranslationElicitation_spa,3.2.4,Win32,60,5ede1560a80d4f02f3e6e997,,,,,,,
,,,,,,,,,,,,,,,,,,,,,,,,,,,,,,,,,,,return,5.477999926,,TRUE,1,0,5,0,1,4,109,arbre,Catalan,Sounds/cat_arbre.mp3,2020-06-08_15h01.17.047,TranslationElicitation_spa,3.2.4,Win32,60,5ede1560a80d4f02f3e6e997,5.477999926,,,,,,
,,,,,,,,,,,,,,,,,,,,,,,,,,,,,,,,,,,,,,,1,0,5,0,1,4,109,arbre,Catalan,Sounds/cat_arbre.mp3,2020-06-08_15h01.17.047,TranslationElicitation_spa,3.2.4,Win32,60,5ede1560a80d4f02f3e6e997,,,,,,,
,,,,,,,,,,,,,,,,,,,,,,,,,,,,,,,,,,,n,1.477999926,N,FALSE,1,0,5,3,1,4,167,pingui,Catalan,Sounds/cat_pingui.mp3,2020-06-08_15h01.17.047,TranslationElicitation_spa,3.2.4,Win32,60,5ede1560a80d4f02f3e6e997,,,,,,,
,,,,,,,,,,,,,,,,,,,,,,,,,,,,,,,,,,,backspace,1.976000071,,TRUE,1,0,5,3,1,4,167,pingui,Catalan,Sounds/cat_pingui.mp3,2020-06-08_15h01.17.047,TranslationElicitation_spa,3.2.4,Win32,60,5ede1560a80d4f02f3e6e997,,,,,,,
,,,,,,,,,,,,,,,,,,,,,,,,,,,,,,,,,,,p,2.210000038,P,TRUE,1,0,5,3,1,4,167,pingui,Catalan,Sounds/cat_pingui.mp3,2020-06-08_15h01.17.047,TranslationElicitation_spa,3.2.4,Win32,60,5ede1560a80d4f02f3e6e997,,,,,,,
,,,,,,,,,,,,,,,,,,,,,,,,,,,,,,,,,,,i,2.375999928,PI,TRUE,1,0,5,3,1,4,167,pingui,Catalan,Sounds/cat_pingui.mp3,2020-06-08_15h01.17.047,TranslationElicitation_spa,3.2.4,Win32,60,5ede1560a80d4f02f3e6e997,,,,,,,
,,,,,,,,,,,,,,,,,,,,,,,,,,,,,,,,,,,n,2.642999887,PIN,TRUE,1,0,5,3,1,4,167,pingui,Catalan,Sounds/cat_pingui.mp3,2020-06-08_15h01.17.047,TranslationElicitation_spa,3.2.4,Win32,60,5ede1560a80d4f02f3e6e997,,,,,,,
,,,,,,,,,,,,,,,,,,,,,,,,,,,,,,,,,,,g,2.792000055,PING,TRUE,1,0,5,3,1,4,167,pingui,Catalan,Sounds/cat_pingui.mp3,2020-06-08_15h01.17.047,TranslationElicitation_spa,3.2.4,Win32,60,5ede1560a80d4f02f3e6e997,,,,,,,
,,,,,,,,,,,,,,,,,,,,,,,,,,,,,,,,,,,u,3.092000008,PINGU,TRUE,1,0,5,3,1,4,167,pingui,Catalan,Sounds/cat_pingui.mp3,2020-06-08_15h01.17.047,TranslationElicitation_spa,3.2.4,Win32,60,5ede1560a80d4f02f3e6e997,,,,,,,
,,,,,,,,,,,,,,,,,,,,,,,,,,,,,,,,,,,i,3.292000055,PINGUI,TRUE,1,0,5,3,1,4,167,pingui,Catalan,Sounds/cat_pingui.mp3,2020-06-08_15h01.17.047,TranslationElicitation_spa,3.2.4,Win32,60,5ede1560a80d4f02f3e6e997,,,,,,,
,,,,,,,,,,,,,,,,,,,,,,,,,,,,,,,,,,,n,3.426000118,PINGUIN,TRUE,1,0,5,3,1,4,167,pingui,Catalan,Sounds/cat_pingui.mp3,2020-06-08_15h01.17.047,TranslationElicitation_spa,3.2.4,Win32,60,5ede1560a80d4f02f3e6e997,,,,,,,
,,,,,,,,,,,,,,,,,,,,,,,,,,,,,,,,,,,o,3.542999983,PINGUINO,TRUE,1,0,5,3,1,4,167,pingui,Catalan,Sounds/cat_pingui.mp3,2020-06-08_15h01.17.047,TranslationElicitation_spa,3.2.4,Win32,60,5ede1560a80d4f02f3e6e997,,,,,,,
,,,,,,,,,,,,,,,,,,,,,,,,,,,,,,,,,,,return,4.525000095,,TRUE,1,0,5,3,1,4,167,pingui,Catalan,Sounds/cat_pingui.mp3,2020-06-08_15h01.17.047,TranslationElicitation_spa,3.2.4,Win32,60,5ede1560a80d4f02f3e6e997,4.525000095,,,,,,
,,,,,,,,,,,,,,,,,,,,,,,,,,,,,,,,,,,,,,,1,0,5,3,1,4,167,pingui,Catalan,Sounds/cat_pingui.mp3,2020-06-08_15h01.17.047,TranslationElicitation_spa,3.2.4,Win32,60,5ede1560a80d4f02f3e6e997,,,,,,,
,,,,,,,,,,,,,,,,,,,,,,,,,,,,,,,,,,,j,1.263000011,J,FALSE,,,,,,,142,girafa,Catalan,Sounds/cat_girafa.mp3,2020-06-08_15h01.17.047,TranslationElicitation_spa,3.2.4,Win32,60,5ede1560a80d4f02f3e6e997,,1,0,80,37,1,79
,,,,,,,,,,,,,,,,,,,,,,,,,,,,,,,,,,,i,1.345999956,JI,FALSE,,,,,,,142,girafa,Catalan,Sounds/cat_girafa.mp3,2020-06-08_15h01.17.047,TranslationElicitation_spa,3.2.4,Win32,60,5ede1560a80d4f02f3e6e997,,1,0,80,37,1,79
,,,,,,,,,,,,,,,,,,,,,,,,,,,,,,,,,,,r,1.479000092,JIR,FALSE,,,,,,,142,girafa,Catalan,Sounds/cat_girafa.mp3,2020-06-08_15h01.17.047,TranslationElicitation_spa,3.2.4,Win32,60,5ede1560a80d4f02f3e6e997,,1,0,80,37,1,79
,,,,,,,,,,,,,,,,,,,,,,,,,,,,,,,,,,,a,1.729000092,JIRA,FALSE,,,,,,,142,girafa,Catalan,Sounds/cat_girafa.mp3,2020-06-08_15h01.17.047,TranslationElicitation_spa,3.2.4,Win32,60,5ede1560a80d4f02f3e6e997,,1,0,80,37,1,79
,,,,,,,,,,,,,,,,,,,,,,,,,,,,,,,,,,,f,2.496000051,JIRAF,FALSE,,,,,,,142,girafa,Catalan,Sounds/cat_girafa.mp3,2020-06-08_15h01.17.047,TranslationElicitation_spa,3.2.4,Win32,60,5ede1560a80d4f02f3e6e997,,1,0,80,37,1,79
,,,,,,,,,,,,,,,,,,,,,,,,,,,,,,,,,,,a,2.762000084,JIRAFA,FALSE,,,,,,,142,girafa,Catalan,Sounds/cat_girafa.mp3,2020-06-08_15h01.17.047,TranslationElicitation_spa,3.2.4,Win32,60,5ede1560a80d4f02f3e6e997,,1,0,80,37,1,79
,,,,,,,,,,,,,,,,,,,,,,,,,,,,,,,,,,,return,3.111999989,,FALSE,,,,,,,142,girafa,Catalan,Sounds/cat_girafa.mp3,2020-06-08_15h01.17.047,TranslationElicitation_spa,3.2.4,Win32,60,5ede1560a80d4f02f3e6e997,3.111999989,1,0,80,37,1,79
,,,,,,,,,,,,,,,,,,,,,,,,,,,,,,,,,,,,,,,,,,,,,142,girafa,Catalan,Sounds/cat_girafa.mp3,2020-06-08_15h01.17.047,TranslationElicitation_spa,3.2.4,Win32,60,5ede1560a80d4f02f3e6e997,,1,0,80,37,1,79
,,,,,,,,,,,,,,,,,,,,,,,,,,,,,,,,,,,a,1.516000032,A,FALSE,,,,,,,104,abella,Catalan,Sounds/cat_abella.mp3,2020-06-08_15h01.17.047,TranslationElicitation_spa,3.2.4,Win32,60,5ede1560a80d4f02f3e6e997,,1,0,80,0,1,79
,,,,,,,,,,,,,,,,,,,,,,,,,,,,,,,,,,,b,1.666000128,AB,FALSE,,,,,,,104,abella,Catalan,Sounds/cat_abella.mp3,2020-06-08_15h01.17.047,TranslationElicitation_spa,3.2.4,Win32,60,5ede1560a80d4f02f3e6e997,,1,0,80,0,1,79
,,,,,,,,,,,,,,,,,,,,,,,,,,,,,,,,,,,e,1.832999945,ABE,FALSE,,,,,,,104,abella,Catalan,Sounds/cat_abella.mp3,2020-06-08_15h01.17.047,TranslationElicitation_spa,3.2.4,Win32,60,5ede1560a80d4f02f3e6e997,,1,0,80,0,1,79
,,,,,,,,,,,,,,,,,,,,,,,,,,,,,,,,,,,j,1.933000088,ABEJ,FALSE,,,,,,,104,abella,Catalan,Sounds/cat_abella.mp3,2020-06-08_15h01.17.047,TranslationElicitation_spa,3.2.4,Win32,60,5ede1560a80d4f02f3e6e997,,1,0,80,0,1,79
,,,,,,,,,,,,,,,,,,,,,,,,,,,,,,,,,,,a,2.082999945,ABEJA,FALSE,,,,,,,104,abella,Catalan,Sounds/cat_abella.mp3,2020-06-08_15h01.17.047,TranslationElicitation_spa,3.2.4,Win32,60,5ede1560a80d4f02f3e6e997,,1,0,80,0,1,79
,,,,,,,,,,,,,,,,,,,,,,,,,,,,,,,,,,,return,2.266000032,,FALSE,,,,,,,104,abella,Catalan,Sounds/cat_abella.mp3,2020-06-08_15h01.17.047,TranslationElicitation_spa,3.2.4,Win32,60,5ede1560a80d4f02f3e6e997,2.266000032,1,0,80,0,1,79
,,,,,,,,,,,,,,,,,,,,,,,,,,,,,,,,,,,,,,,,,,,,,104,abella,Catalan,Sounds/cat_abella.mp3,2020-06-08_15h01.17.047,TranslationElicitation_spa,3.2.4,Win32,60,5ede1560a80d4f02f3e6e997,,1,0,80,0,1,79
,,,,,,,,,,,,,,,,,,,,,,,,,,,,,,,,,,,backspace,1.36500001,,TRUE,,,,,,,168,planta,Catalan,Sounds/cat_planta.mp3,2020-06-08_15h01.17.047,TranslationElicitation_spa,3.2.4,Win32,60,5ede1560a80d4f02f3e6e997,,1,0,80,60,1,79
,,,,,,,,,,,,,,,,,,,,,,,,,,,,,,,,,,,p,1.732000113,P,TRUE,,,,,,,168,planta,Catalan,Sounds/cat_planta.mp3,2020-06-08_15h01.17.047,TranslationElicitation_spa,3.2.4,Win32,60,5ede1560a80d4f02f3e6e997,,1,0,80,60,1,79
,,,,,,,,,,,,,,,,,,,,,,,,,,,,,,,,,,,l,1.765000105,PL,TRUE,,,,,,,168,planta,Catalan,Sounds/cat_planta.mp3,2020-06-08_15h01.17.047,TranslationElicitation_spa,3.2.4,Win32,60,5ede1560a80d4f02f3e6e997,,1,0,80,60,1,79
,,,,,,,,,,,,,,,,,,,,,,,,,,,,,,,,,,,a,1.930999994,PLA,TRUE,,,,,,,168,planta,Catalan,Sounds/cat_planta.mp3,2020-06-08_15h01.17.047,TranslationElicitation_spa,3.2.4,Win32,60,5ede1560a80d4f02f3e6e997,,1,0,80,60,1,79
,,,,,,,,,,,,,,,,,,,,,,,,,,,,,,,,,,,n,2.11500001,PLAN,TRUE,,,,,,,168,planta,Catalan,Sounds/cat_planta.mp3,2020-06-08_15h01.17.047,TranslationElicitation_spa,3.2.4,Win32,60,5ede1560a80d4f02f3e6e997,,1,0,80,60,1,79
,,,,,,,,,,,,,,,,,,,,,,,,,,,,,,,,,,,t,2.265000105,PLANT,TRUE,,,,,,,168,planta,Catalan,Sounds/cat_planta.mp3,2020-06-08_15h01.17.047,TranslationElicitation_spa,3.2.4,Win32,60,5ede1560a80d4f02f3e6e997,,1,0,80,60,1,79
,,,,,,,,,,,,,,,,,,,,,,,,,,,,,,,,,,,a,2.58100009,PLANTA,TRUE,,,,,,,168,planta,Catalan,Sounds/cat_planta.mp3,2020-06-08_15h01.17.047,TranslationElicitation_spa,3.2.4,Win32,60,5ede1560a80d4f02f3e6e997,,1,0,80,60,1,79
,,,,,,,,,,,,,,,,,,,,,,,,,,,,,,,,,,,return,2.81400013,,TRUE,,,,,,,168,planta,Catalan,Sounds/cat_planta.mp3,2020-06-08_15h01.17.047,TranslationElicitation_spa,3.2.4,Win32,60,5ede1560a80d4f02f3e6e997,2.81400013,1,0,80,60,1,79
,,,,,,,,,,,,,,,,,,,,,,,,,,,,,,,,,,,,,,,,,,,,,168,planta,Catalan,Sounds/cat_planta.mp3,2020-06-08_15h01.17.047,TranslationElicitation_spa,3.2.4,Win32,60,5ede1560a80d4f02f3e6e997,,1,0,80,60,1,79
,,,,,,,,,,,,,,,,,,,,,,,,,,,,,,,,,,,z,1.748000145,Z,FALSE,,,,,,,176,samarreta,Catalan,Sounds/cat_samarreta.mp3,2020-06-08_15h01.17.047,TranslationElicitation_spa,3.2.4,Win32,60,5ede1560a80d4f02f3e6e997,,1,0,80,68,1,79
,,,,,,,,,,,,,,,,,,,,,,,,,,,,,,,,,,,a,1.965000153,ZA,FALSE,,,,,,,176,samarreta,Catalan,Sounds/cat_samarreta.mp3,2020-06-08_15h01.17.047,TranslationElicitation_spa,3.2.4,Win32,60,5ede1560a80d4f02f3e6e997,,1,0,80,68,1,79
,,,,,,,,,,,,,,,,,,,,,,,,,,,,,,,,,,,m,2.11500001,ZAM,FALSE,,,,,,,176,samarreta,Catalan,Sounds/cat_samarreta.mp3,2020-06-08_15h01.17.047,TranslationElicitation_spa,3.2.4,Win32,60,5ede1560a80d4f02f3e6e997,,1,0,80,68,1,79
,,,,,,,,,,,,,,,,,,,,,,,,,,,,,,,,,,,a,2.180999994,ZAMA,FALSE,,,,,,,176,samarreta,Catalan,Sounds/cat_samarreta.mp3,2020-06-08_15h01.17.047,TranslationElicitation_spa,3.2.4,Win32,60,5ede1560a80d4f02f3e6e997,,1,0,80,68,1,79
,,,,,,,,,,,,,,,,,,,,,,,,,,,,,,,,,,,r,2.448000193,ZAMAR,FALSE,,,,,,,176,samarreta,Catalan,Sounds/cat_samarreta.mp3,2020-06-08_15h01.17.047,TranslationElicitation_spa,3.2.4,Win32,60,5ede1560a80d4f02f3e6e997,,1,0,80,68,1,79
,,,,,,,,,,,,,,,,,,,,,,,,,,,,,,,,,,,r,2.631000042,ZAMARR,FALSE,,,,,,,176,samarreta,Catalan,Sounds/cat_samarreta.mp3,2020-06-08_15h01.17.047,TranslationElicitation_spa,3.2.4,Win32,60,5ede1560a80d4f02f3e6e997,,1,0,80,68,1,79
,,,,,,,,,,,,,,,,,,,,,,,,,,,,,,,,,,,e,2.798000097,ZAMARRE,FALSE,,,,,,,176,samarreta,Catalan,Sounds/cat_samarreta.mp3,2020-06-08_15h01.17.047,TranslationElicitation_spa,3.2.4,Win32,60,5ede1560a80d4f02f3e6e997,,1,0,80,68,1,79
,,,,,,,,,,,,,,,,,,,,,,,,,,,,,,,,,,,t,2.996999979,ZAMARRET,FALSE,,,,,,,176,samarreta,Catalan,Sounds/cat_samarreta.mp3,2020-06-08_15h01.17.047,TranslationElicitation_spa,3.2.4,Win32,60,5ede1560a80d4f02f3e6e997,,1,0,80,68,1,79
,,,,,,,,,,,,,,,,,,,,,,,,,,,,,,,,,,,a,3.231000185,ZAMARRETA,FALSE,,,,,,,176,samarreta,Catalan,Sounds/cat_samarreta.mp3,2020-06-08_15h01.17.047,TranslationElicitation_spa,3.2.4,Win32,60,5ede1560a80d4f02f3e6e997,,1,0,80,68,1,79
,,,,,,,,,,,,,,,,,,,,,,,,,,,,,,,,,,,return,3.84800005,,FALSE,,,,,,,176,samarreta,Catalan,Sounds/cat_samarreta.mp3,2020-06-08_15h01.17.047,TranslationElicitation_spa,3.2.4,Win32,60,5ede1560a80d4f02f3e6e997,3.84800005,1,0,80,68,1,79
,,,,,,,,,,,,,,,,,,,,,,,,,,,,,,,,,,,,,,,,,,,,,176,samarreta,Catalan,Sounds/cat_samarreta.mp3,2020-06-08_15h01.17.047,TranslationElicitation_spa,3.2.4,Win32,60,5ede1560a80d4f02f3e6e997,,1,0,80,68,1,79
,,,,,,,,,,,,,,,,,,,,,,,,,,,,,,,,,,,l,3.592999935,L,FALSE,,,,,,,148,lleo,Catalan,Sounds/cat_lleo.mp3,2020-06-08_15h01.17.047,TranslationElicitation_spa,3.2.4,Win32,60,5ede1560a80d4f02f3e6e997,,1,0,80,42,1,79
,,,,,,,,,,,,,,,,,,,,,,,,,,,,,,,,,,,a,3.694000006,LA,FALSE,,,,,,,148,lleo,Catalan,Sounds/cat_lleo.mp3,2020-06-08_15h01.17.047,TranslationElicitation_spa,3.2.4,Win32,60,5ede1560a80d4f02f3e6e997,,1,0,80,42,1,79
,,,,,,,,,,,,,,,,,,,,,,,,,,,,,,,,,,,u,3.843999863,LAU,FALSE,,,,,,,148,lleo,Catalan,Sounds/cat_lleo.mp3,2020-06-08_15h01.17.047,TranslationElicitation_spa,3.2.4,Win32,60,5ede1560a80d4f02f3e6e997,,1,0,80,42,1,79
,,,,,,,,,,,,,,,,,,,,,,,,,,,,,,,,,,,d,3.94299984,LAUD,FALSE,,,,,,,148,lleo,Catalan,Sounds/cat_lleo.mp3,2020-06-08_15h01.17.047,TranslationElicitation_spa,3.2.4,Win32,60,5ede1560a80d4f02f3e6e997,,1,0,80,42,1,79
,,,,,,,,,,,,,,,,,,,,,,,,,,,,,,,,,,,return,4.128000021,,FALSE,,,,,,,148,lleo,Catalan,Sounds/cat_lleo.mp3,2020-06-08_15h01.17.047,TranslationElicitation_spa,3.2.4,Win32,60,5ede1560a80d4f02f3e6e997,4.126999855,1,0,80,42,1,79
,,,,,,,,,,,,,,,,,,,,,,,,,,,,,,,,,,,,,,,,,,,,,148,lleo,Catalan,Sounds/cat_lleo.mp3,2020-06-08_15h01.17.047,TranslationElicitation_spa,3.2.4,Win32,60,5ede1560a80d4f02f3e6e997,,1,0,80,42,1,79
,,,,,,,,,,,,,,,,,,,,,,,,,,,,,,,,,,,a,4.496999979,A,FALSE,,,,,,,130,entrepa,Catalan,Sounds/cat_entrepa.mp3,2020-06-08_15h01.17.047,TranslationElicitation_spa,3.2.4,Win32,60,5ede1560a80d4f02f3e6e997,,1,0,80,25,1,79
,,,,,,,,,,,,,,,,,,,,,,,,,,,,,,,,,,,t,4.813999891,AT,FALSE,,,,,,,130,entrepa,Catalan,Sounds/cat_entrepa.mp3,2020-06-08_15h01.17.047,TranslationElicitation_spa,3.2.4,Win32,60,5ede1560a80d4f02f3e6e997,,1,0,80,25,1,79
,,,,,,,,,,,,,,,,,,,,,,,,,,,,,,,,,,,r,4.963999987,ATR,FALSE,,,,,,,130,entrepa,Catalan,Sounds/cat_entrepa.mp3,2020-06-08_15h01.17.047,TranslationElicitation_spa,3.2.4,Win32,60,5ede1560a80d4f02f3e6e997,,1,0,80,25,1,79
,,,,,,,,,,,,,,,,,,,,,,,,,,,,,,,,,,,a,5.197999954,ATRA,FALSE,,,,,,,130,entrepa,Catalan,Sounds/cat_entrepa.mp3,2020-06-08_15h01.17.047,TranslationElicitation_spa,3.2.4,Win32,60,5ede1560a80d4f02f3e6e997,,1,0,80,25,1,79
,,,,,,,,,,,,,,,,,,,,,,,,,,,,,,,,,,,p,5.347999811,ATRAP,FALSE,,,,,,,130,entrepa,Catalan,Sounds/cat_entrepa.mp3,2020-06-08_15h01.17.047,TranslationElicitation_spa,3.2.4,Win32,60,5ede1560a80d4f02f3e6e997,,1,0,80,25,1,79
,,,,,,,,,,,,,,,,,,,,,,,,,,,,,,,,,,,a,5.447999954,ATRAPA,FALSE,,,,,,,130,entrepa,Catalan,Sounds/cat_entrepa.mp3,2020-06-08_15h01.17.047,TranslationElicitation_spa,3.2.4,Win32,60,5ede1560a80d4f02f3e6e997,,1,0,80,25,1,79
,,,,,,,,,,,,,,,,,,,,,,,,,,,,,,,,,,,r,5.697999954,ATRAPAR,FALSE,,,,,,,130,entrepa,Catalan,Sounds/cat_entrepa.mp3,2020-06-08_15h01.17.047,TranslationElicitation_spa,3.2.4,Win32,60,5ede1560a80d4f02f3e6e997,,1,0,80,25,1,79
,,,,,,,,,,,,,,,,,,,,,,,,,,,,,,,,,,,return,5.896999836,,FALSE,,,,,,,130,entrepa,Catalan,Sounds/cat_entrepa.mp3,2020-06-08_15h01.17.047,TranslationElicitation_spa,3.2.4,Win32,60,5ede1560a80d4f02f3e6e997,5.896999836,1,0,80,25,1,79
,,,,,,,,,,,,,,,,,,,,,,,,,,,,,,,,,,,,,,,,,,,,,130,entrepa,Catalan,Sounds/cat_entrepa.mp3,2020-06-08_15h01.17.047,TranslationElicitation_spa,3.2.4,Win32,60,5ede1560a80d4f02f3e6e997,,1,0,80,25,1,79
,,,,,,,,,,,,,,,,,,,,,,,,,,,,,,,,,,,u,1.746000051,U,FALSE,,,,,,,160,orella,Catalan,Sounds/cat_orella.mp3,2020-06-08_15h01.17.047,TranslationElicitation_spa,3.2.4,Win32,60,5ede1560a80d4f02f3e6e997,,1,0,80,53,1,79
,,,,,,,,,,,,,,,,,,,,,,,,,,,,,,,,,,,r,1.878000021,UR,FALSE,,,,,,,160,orella,Catalan,Sounds/cat_orella.mp3,2020-06-08_15h01.17.047,TranslationElicitation_spa,3.2.4,Win32,60,5ede1560a80d4f02f3e6e997,,1,0,80,53,1,79
,,,,,,,,,,,,,,,,,,,,,,,,,,,,,,,,,,,e,2.06099987,URE,FALSE,,,,,,,160,orella,Catalan,Sounds/cat_orella.mp3,2020-06-08_15h01.17.047,TranslationElicitation_spa,3.2.4,Win32,60,5ede1560a80d4f02f3e6e997,,1,0,80,53,1,79
,,,,,,,,,,,,,,,,,,,,,,,,,,,,,,,,,,,l,2.144999981,UREL,FALSE,,,,,,,160,orella,Catalan,Sounds/cat_orella.mp3,2020-06-08_15h01.17.047,TranslationElicitation_spa,3.2.4,Win32,60,5ede1560a80d4f02f3e6e997,,1,0,80,53,1,79
,,,,,,,,,,,,,,,,,,,,,,,,,,,,,,,,,,,l,2.296000004,URELL,FALSE,,,,,,,160,orella,Catalan,Sounds/cat_orella.mp3,2020-06-08_15h01.17.047,TranslationElicitation_spa,3.2.4,Win32,60,5ede1560a80d4f02f3e6e997,,1,0,80,53,1,79
,,,,,,,,,,,,,,,,,,,,,,,,,,,,,,,,,,,a,2.394999981,URELLA,FALSE,,,,,,,160,orella,Catalan,Sounds/cat_orella.mp3,2020-06-08_15h01.17.047,TranslationElicitation_spa,3.2.4,Win32,60,5ede1560a80d4f02f3e6e997,,1,0,80,53,1,79
,,,,,,,,,,,,,,,,,,,,,,,,,,,,,,,,,,,return,3.07799983,,FALSE,,,,,,,160,orella,Catalan,Sounds/cat_orella.mp3,2020-06-08_15h01.17.047,TranslationElicitation_spa,3.2.4,Win32,60,5ede1560a80d4f02f3e6e997,3.07799983,1,0,80,53,1,79
,,,,,,,,,,,,,,,,,,,,,,,,,,,,,,,,,,,,,,,,,,,,,160,orella,Catalan,Sounds/cat_orella.mp3,2020-06-08_15h01.17.047,TranslationElicitation_spa,3.2.4,Win32,60,5ede1560a80d4f02f3e6e997,,1,0,80,53,1,79
,,,,,,,,,,,,,,,,,,,,,,,,,,,,,,,,,,,g,1.09800005,G,FALSE,,,,,,,146,guitarra,Catalan,Sounds/cat_guitarra.mp3,2020-06-08_15h01.17.047,TranslationElicitation_spa,3.2.4,Win32,60,5ede1560a80d4f02f3e6e997,,1,0,80,41,1,79
,,,,,,,,,,,,,,,,,,,,,,,,,,,,,,,,,,,u,1.246999979,GU,FALSE,,,,,,,146,guitarra,Catalan,Sounds/cat_guitarra.mp3,2020-06-08_15h01.17.047,TranslationElicitation_spa,3.2.4,Win32,60,5ede1560a80d4f02f3e6e997,,1,0,80,41,1,79
,,,,,,,,,,,,,,,,,,,,,,,,,,,,,,,,,,,i,1.414000034,GUI,FALSE,,,,,,,146,guitarra,Catalan,Sounds/cat_guitarra.mp3,2020-06-08_15h01.17.047,TranslationElicitation_spa,3.2.4,Win32,60,5ede1560a80d4f02f3e6e997,,1,0,80,41,1,79
,,,,,,,,,,,,,,,,,,,,,,,,,,,,,,,,,,,t,1.482000113,GUIT,FALSE,,,,,,,146,guitarra,Catalan,Sounds/cat_guitarra.mp3,2020-06-08_15h01.17.047,TranslationElicitation_spa,3.2.4,Win32,60,5ede1560a80d4f02f3e6e997,,1,0,80,41,1,79
,,,,,,,,,,,,,,,,,,,,,,,,,,,,,,,,,,,a,1.829999924,GUITA,FALSE,,,,,,,146,guitarra,Catalan,Sounds/cat_guitarra.mp3,2020-06-08_15h01.17.047,TranslationElicitation_spa,3.2.4,Win32,60,5ede1560a80d4f02f3e6e997,,1,0,80,41,1,79
,,,,,,,,,,,,,,,,,,,,,,,,,,,,,,,,,,,r,2.079999924,GUITAR,FALSE,,,,,,,146,guitarra,Catalan,Sounds/cat_guitarra.mp3,2020-06-08_15h01.17.047,TranslationElicitation_spa,3.2.4,Win32,60,5ede1560a80d4f02f3e6e997,,1,0,80,41,1,79
,,,,,,,,,,,,,,,,,,,,,,,,,,,,,,,,,,,r,2.246999979,GUITARR,FALSE,,,,,,,146,guitarra,Catalan,Sounds/cat_guitarra.mp3,2020-06-08_15h01.17.047,TranslationElicitation_spa,3.2.4,Win32,60,5ede1560a80d4f02f3e6e997,,1,0,80,41,1,79
,,,,,,,,,,,,,,,,,,,,,,,,,,,,,,,,,,,a,2.463000059,GUITARRA,FALSE,,,,,,,146,guitarra,Catalan,Sounds/cat_guitarra.mp3,2020-06-08_15h01.17.047,TranslationElicitation_spa,3.2.4,Win32,60,5ede1560a80d4f02f3e6e997,,1,0,80,41,1,79
,,,,,,,,,,,,,,,,,,,,,,,,,,,,,,,,,,,return,2.86500001,,FALSE,,,,,,,146,guitarra,Catalan,Sounds/cat_guitarra.mp3,2020-06-08_15h01.17.047,TranslationElicitation_spa,3.2.4,Win32,60,5ede1560a80d4f02f3e6e997,2.86500001,1,0,80,41,1,79
,,,,,,,,,,,,,,,,,,,,,,,,,,,,,,,,,,,,,,,,,,,,,146,guitarra,Catalan,Sounds/cat_guitarra.mp3,2020-06-08_15h01.17.047,TranslationElicitation_spa,3.2.4,Win32,60,5ede1560a80d4f02f3e6e997,,1,0,80,41,1,79
,,,,,,,,,,,,,,,,,,,,,,,,,,,,,,,,,,,s,2.127000093,S,FALSE,,,,,,,141,gerd,Catalan,Sounds/cat_gerd.mp3,2020-06-08_15h01.17.047,TranslationElicitation_spa,3.2.4,Win32,60,5ede1560a80d4f02f3e6e997,,1,0,80,36,1,79
,,,,,,,,,,,,,,,,,,,,,,,,,,,,,,,,,,,e,2.292999983,SE,FALSE,,,,,,,141,gerd,Catalan,Sounds/cat_gerd.mp3,2020-06-08_15h01.17.047,TranslationElicitation_spa,3.2.4,Win32,60,5ede1560a80d4f02f3e6e997,,1,0,80,36,1,79
,,,,,,,,,,,,,,,,,,,,,,,,,,,,,,,,,,,r,2.460000038,SER,FALSE,,,,,,,141,gerd,Catalan,Sounds/cat_gerd.mp3,2020-06-08_15h01.17.047,TranslationElicitation_spa,3.2.4,Win32,60,5ede1560a80d4f02f3e6e997,,1,0,80,36,1,79
,,,,,,,,,,,,,,,,,,,,,,,,,,,,,,,,,,,return,2.827000141,,FALSE,,,,,,,141,gerd,Catalan,Sounds/cat_gerd.mp3,2020-06-08_15h01.17.047,TranslationElicitation_spa,3.2.4,Win32,60,5ede1560a80d4f02f3e6e997,2.827000141,1,0,80,36,1,79
,,,,,,,,,,,,,,,,,,,,,,,,,,,,,,,,,,,,,,,,,,,,,141,gerd,Catalan,Sounds/cat_gerd.mp3,2020-06-08_15h01.17.047,TranslationElicitation_spa,3.2.4,Win32,60,5ede1560a80d4f02f3e6e997,,1,0,80,36,1,79
,,,,,,,,,,,,,,,,,,,,,,,,,,,,,,,,,,,p,1.467000008,P,FALSE,,,,,,,172,poma,Catalan,Sounds/cat_poma.mp3,2020-06-08_15h01.17.047,TranslationElicitation_spa,3.2.4,Win32,60,5ede1560a80d4f02f3e6e997,,1,0,80,64,1,79
,,,,,,,,,,,,,,,,,,,,,,,,,,,,,,,,,,,o,1.548000097,PO,FALSE,,,,,,,172,poma,Catalan,Sounds/cat_poma.mp3,2020-06-08_15h01.17.047,TranslationElicitation_spa,3.2.4,Win32,60,5ede1560a80d4f02f3e6e997,,1,0,80,64,1,79
,,,,,,,,,,,,,,,,,,,,,,,,,,,,,,,,,,,a,1.914999962,POA,FALSE,,,,,,,172,poma,Catalan,Sounds/cat_poma.mp3,2020-06-08_15h01.17.047,TranslationElicitation_spa,3.2.4,Win32,60,5ede1560a80d4f02f3e6e997,,1,0,80,64,1,79
,,,,,,,,,,,,,,,,,,,,,,,,,,,,,,,,,,,backspace,2.280999899,P,TRUE,,,,,,,172,poma,Catalan,Sounds/cat_poma.mp3,2020-06-08_15h01.17.047,TranslationElicitation_spa,3.2.4,Win32,60,5ede1560a80d4f02f3e6e997,,1,0,80,64,1,79
,,,,,,,,,,,,,,,,,,,,,,,,,,,,,,,,,,,m,2.548000097,PM,TRUE,,,,,,,172,poma,Catalan,Sounds/cat_poma.mp3,2020-06-08_15h01.17.047,TranslationElicitation_spa,3.2.4,Win32,60,5ede1560a80d4f02f3e6e997,,1,0,80,64,1,79
,,,,,,,,,,,,,,,,,,,,,,,,,,,,,,,,,,,a,2.697999954,PMA,TRUE,,,,,,,172,poma,Catalan,Sounds/cat_poma.mp3,2020-06-08_15h01.17.047,TranslationElicitation_spa,3.2.4,Win32,60,5ede1560a80d4f02f3e6e997,,1,0,80,64,1,79
,,,,,,,,,,,,,,,,,,,,,,,,,,,,,,,,,,,backspace,3.11500001,P,TRUE,,,,,,,172,poma,Catalan,Sounds/cat_poma.mp3,2020-06-08_15h01.17.047,TranslationElicitation_spa,3.2.4,Win32,60,5ede1560a80d4f02f3e6e997,,1,0,80,64,1,79
,,,,,,,,,,,,,,,,,,,,,,,,,,,,,,,,,,,backspace,3.263999939,,TRUE,,,,,,,172,poma,Catalan,Sounds/cat_poma.mp3,2020-06-08_15h01.17.047,TranslationElicitation_spa,3.2.4,Win32,60,5ede1560a80d4f02f3e6e997,,1,0,80,64,1,79
,,,,,,,,,,,,,,,,,,,,,,,,,,,,,,,,,,,p,3.898000002,P,TRUE,,,,,,,172,poma,Catalan,Sounds/cat_poma.mp3,2020-06-08_15h01.17.047,TranslationElicitation_spa,3.2.4,Win32,60,5ede1560a80d4f02f3e6e997,,1,0,80,64,1,79
,,,,,,,,,,,,,,,,,,,,,,,,,,,,,,,,,,,o,3.997999907,PO,TRUE,,,,,,,172,poma,Catalan,Sounds/cat_poma.mp3,2020-06-08_15h01.17.047,TranslationElicitation_spa,3.2.4,Win32,60,5ede1560a80d4f02f3e6e997,,1,0,80,64,1,79
,,,,,,,,,,,,,,,,,,,,,,,,,,,,,,,,,,,m,4.463999987,POM,TRUE,,,,,,,172,poma,Catalan,Sounds/cat_poma.mp3,2020-06-08_15h01.17.047,TranslationElicitation_spa,3.2.4,Win32,60,5ede1560a80d4f02f3e6e997,,1,0,80,64,1,79
,,,,,,,,,,,,,,,,,,,,,,,,,,,,,,,,,,,a,4.596999884,POMA,TRUE,,,,,,,172,poma,Catalan,Sounds/cat_poma.mp3,2020-06-08_15h01.17.047,TranslationElicitation_spa,3.2.4,Win32,60,5ede1560a80d4f02f3e6e997,,1,0,80,64,1,79
,,,,,,,,,,,,,,,,,,,,,,,,,,,,,,,,,,,return,4.846999884,,TRUE,,,,,,,172,poma,Catalan,Sounds/cat_poma.mp3,2020-06-08_15h01.17.047,TranslationElicitation_spa,3.2.4,Win32,60,5ede1560a80d4f02f3e6e997,4.846999884,1,0,80,64,1,79
,,,,,,,,,,,,,,,,,,,,,,,,,,,,,,,,,,,,,,,,,,,,,172,poma,Catalan,Sounds/cat_poma.mp3,2020-06-08_15h01.17.047,TranslationElicitation_spa,3.2.4,Win32,60,5ede1560a80d4f02f3e6e997,,1,0,80,64,1,79
,,,,,,,,,,,,,,,,,,,,,,,,,,,,,,,,,,,u,1.980000019,U,FALSE,,,,,,,157,mussol,Catalan,Sounds/cat_mussol.mp3,2020-06-08_15h01.17.047,TranslationElicitation_spa,3.2.4,Win32,60,5ede1560a80d4f02f3e6e997,,1,0,80,51,1,79
,,,,,,,,,,,,,,,,,,,,,,,,,,,,,,,,,,,n,2.130000114,UN,FALSE,,,,,,,157,mussol,Catalan,Sounds/cat_mussol.mp3,2020-06-08_15h01.17.047,TranslationElicitation_spa,3.2.4,Win32,60,5ede1560a80d4f02f3e6e997,,1,0,80,51,1,79
,,,,,,,,,,,,,,,,,,,,,,,,,,,,,,,,,,,space,2.330000162,UN ,FALSE,,,,,,,157,mussol,Catalan,Sounds/cat_mussol.mp3,2020-06-08_15h01.17.047,TranslationElicitation_spa,3.2.4,Win32,60,5ede1560a80d4f02f3e6e997,,1,0,80,51,1,79
,,,,,,,,,,,,,,,,,,,,,,,,,,,,,,,,,,,s,2.463000059,UN S,FALSE,,,,,,,157,mussol,Catalan,Sounds/cat_mussol.mp3,2020-06-08_15h01.17.047,TranslationElicitation_spa,3.2.4,Win32,60,5ede1560a80d4f02f3e6e997,,1,0,80,51,1,79
,,,,,,,,,,,,,,,,,,,,,,,,,,,,,,,,,,,o,2.529999971,UN SO,FALSE,,,,,,,157,mussol,Catalan,Sounds/cat_mussol.mp3,2020-06-08_15h01.17.047,TranslationElicitation_spa,3.2.4,Win32,60,5ede1560a80d4f02f3e6e997,,1,0,80,51,1,79
,,,,,,,,,,,,,,,,,,,,,,,,,,,,,,,,,,,l,2.796000004,UN SOL,FALSE,,,,,,,157,mussol,Catalan,Sounds/cat_mussol.mp3,2020-06-08_15h01.17.047,TranslationElicitation_spa,3.2.4,Win32,60,5ede1560a80d4f02f3e6e997,,1,0,80,51,1,79
,,,,,,,,,,,,,,,,,,,,,,,,,,,,,,,,,,,return,3.113000154,,FALSE,,,,,,,157,mussol,Catalan,Sounds/cat_mussol.mp3,2020-06-08_15h01.17.047,TranslationElicitation_spa,3.2.4,Win32,60,5ede1560a80d4f02f3e6e997,3.113000154,1,0,80,51,1,79
,,,,,,,,,,,,,,,,,,,,,,,,,,,,,,,,,,,,,,,,,,,,,157,mussol,Catalan,Sounds/cat_mussol.mp3,2020-06-08_15h01.17.047,TranslationElicitation_spa,3.2.4,Win32,60,5ede1560a80d4f02f3e6e997,,1,0,80,51,1,79
,,,,,,,,,,,,,,,,,,,,,,,,,,,,,,,,,,,g,2.214999914,G,FALSE,,,,,,,144,gorra,Catalan,Sounds/cat_gorra.mp3,2020-06-08_15h01.17.047,TranslationElicitation_spa,3.2.4,Win32,60,5ede1560a80d4f02f3e6e997,,1,0,80,39,1,79
,,,,,,,,,,,,,,,,,,,,,,,,,,,,,,,,,,,o,2.299000025,GO,FALSE,,,,,,,144,gorra,Catalan,Sounds/cat_gorra.mp3,2020-06-08_15h01.17.047,TranslationElicitation_spa,3.2.4,Win32,60,5ede1560a80d4f02f3e6e997,,1,0,80,39,1,79
,,,,,,,,,,,,,,,,,,,,,,,,,,,,,,,,,,,r,2.482000113,GOR,FALSE,,,,,,,144,gorra,Catalan,Sounds/cat_gorra.mp3,2020-06-08_15h01.17.047,TranslationElicitation_spa,3.2.4,Win32,60,5ede1560a80d4f02f3e6e997,,1,0,80,39,1,79
,,,,,,,,,,,,,,,,,,,,,,,,,,,,,,,,,,,r,2.632999897,GORR,FALSE,,,,,,,144,gorra,Catalan,Sounds/cat_gorra.mp3,2020-06-08_15h01.17.047,TranslationElicitation_spa,3.2.4,Win32,60,5ede1560a80d4f02f3e6e997,,1,0,80,39,1,79
,,,,,,,,,,,,,,,,,,,,,,,,,,,,,,,,,,,a,2.898999929,GORRA,FALSE,,,,,,,144,gorra,Catalan,Sounds/cat_gorra.mp3,2020-06-08_15h01.17.047,TranslationElicitation_spa,3.2.4,Win32,60,5ede1560a80d4f02f3e6e997,,1,0,80,39,1,79
,,,,,,,,,,,,,,,,,,,,,,,,,,,,,,,,,,,return,3.08100009,,FALSE,,,,,,,144,gorra,Catalan,Sounds/cat_gorra.mp3,2020-06-08_15h01.17.047,TranslationElicitation_spa,3.2.4,Win32,60,5ede1560a80d4f02f3e6e997,3.08100009,1,0,80,39,1,79
,,,,,,,,,,,,,,,,,,,,,,,,,,,,,,,,,,,,,,,,,,,,,144,gorra,Catalan,Sounds/cat_gorra.mp3,2020-06-08_15h01.17.047,TranslationElicitation_spa,3.2.4,Win32,60,5ede1560a80d4f02f3e6e997,,1,0,80,39,1,79
,,,,,,,,,,,,,,,,,,,,,,,,,,,,,,,,,,,p,1.59800005,P,FALSE,,,,,,,170,ploma,Catalan,Sounds/cat_ploma.mp3,2020-06-08_15h01.17.047,TranslationElicitation_spa,3.2.4,Win32,60,5ede1560a80d4f02f3e6e997,,1,0,80,62,1,79
,,,,,,,,,,,,,,,,,,,,,,,,,,,,,,,,,,,l,1.781000137,PL,FALSE,,,,,,,170,ploma,Catalan,Sounds/cat_ploma.mp3,2020-06-08_15h01.17.047,TranslationElicitation_spa,3.2.4,Win32,60,5ede1560a80d4f02f3e6e997,,1,0,80,62,1,79
,,,,,,,,,,,,,,,,,,,,,,,,,,,,,,,,,,,o,2.31400013,PLO,FALSE,,,,,,,170,ploma,Catalan,Sounds/cat_ploma.mp3,2020-06-08_15h01.17.047,TranslationElicitation_spa,3.2.4,Win32,60,5ede1560a80d4f02f3e6e997,,1,0,80,62,1,79
,,,,,,,,,,,,,,,,,,,,,,,,,,,,,,,,,,,m,2.463999987,PLOM,FALSE,,,,,,,170,ploma,Catalan,Sounds/cat_ploma.mp3,2020-06-08_15h01.17.047,TranslationElicitation_spa,3.2.4,Win32,60,5ede1560a80d4f02f3e6e997,,1,0,80,62,1,79
,,,,,,,,,,,,,,,,,,,,,,,,,,,,,,,,,,,a,2.647000074,PLOMA,FALSE,,,,,,,170,ploma,Catalan,Sounds/cat_ploma.mp3,2020-06-08_15h01.17.047,TranslationElicitation_spa,3.2.4,Win32,60,5ede1560a80d4f02f3e6e997,,1,0,80,62,1,79
,,,,,,,,,,,,,,,,,,,,,,,,,,,,,,,,,,,return,2.898000002,,FALSE,,,,,,,170,ploma,Catalan,Sounds/cat_ploma.mp3,2020-06-08_15h01.17.047,TranslationElicitation_spa,3.2.4,Win32,60,5ede1560a80d4f02f3e6e997,2.898000002,1,0,80,62,1,79
,,,,,,,,,,,,,,,,,,,,,,,,,,,,,,,,,,,,,,,,,,,,,170,ploma,Catalan,Sounds/cat_ploma.mp3,2020-06-08_15h01.17.047,TranslationElicitation_spa,3.2.4,Win32,60,5ede1560a80d4f02f3e6e997,,1,0,80,62,1,79
,,,,,,,,,,,,,,,,,,,,,,,,,,,,,,,,,,,c,1.280999899,C,FALSE,,,,,,,121,camisa,Catalan,Sounds/cat_camisa.mp3,2020-06-08_15h01.17.047,TranslationElicitation_spa,3.2.4,Win32,60,5ede1560a80d4f02f3e6e997,,1,0,80,16,1,79
,,,,,,,,,,,,,,,,,,,,,,,,,,,,,,,,,,,a,1.513999939,CA,FALSE,,,,,,,121,camisa,Catalan,Sounds/cat_camisa.mp3,2020-06-08_15h01.17.047,TranslationElicitation_spa,3.2.4,Win32,60,5ede1560a80d4f02f3e6e997,,1,0,80,16,1,79
,,,,,,,,,,,,,,,,,,,,,,,,,,,,,,,,,,,m,1.648000002,CAM,FALSE,,,,,,,121,camisa,Catalan,Sounds/cat_camisa.mp3,2020-06-08_15h01.17.047,TranslationElicitation_spa,3.2.4,Win32,60,5ede1560a80d4f02f3e6e997,,1,0,80,16,1,79
,,,,,,,,,,,,,,,,,,,,,,,,,,,,,,,,,,,i,1.730999947,CAMI,FALSE,,,,,,,121,camisa,Catalan,Sounds/cat_camisa.mp3,2020-06-08_15h01.17.047,TranslationElicitation_spa,3.2.4,Win32,60,5ede1560a80d4f02f3e6e997,,1,0,80,16,1,79
,,,,,,,,,,,,,,,,,,,,,,,,,,,,,,,,,,,s,1.797999859,CAMIS,FALSE,,,,,,,121,camisa,Catalan,Sounds/cat_camisa.mp3,2020-06-08_15h01.17.047,TranslationElicitation_spa,3.2.4,Win32,60,5ede1560a80d4f02f3e6e997,,1,0,80,16,1,79
,,,,,,,,,,,,,,,,,,,,,,,,,,,,,,,,,,,a,2.097999811,CAMISA,FALSE,,,,,,,121,camisa,Catalan,Sounds/cat_camisa.mp3,2020-06-08_15h01.17.047,TranslationElicitation_spa,3.2.4,Win32,60,5ede1560a80d4f02f3e6e997,,1,0,80,16,1,79
,,,,,,,,,,,,,,,,,,,,,,,,,,,,,,,,,,,return,2.330999851,,FALSE,,,,,,,121,camisa,Catalan,Sounds/cat_camisa.mp3,2020-06-08_15h01.17.047,TranslationElicitation_spa,3.2.4,Win32,60,5ede1560a80d4f02f3e6e997,2.330999851,1,0,80,16,1,79
,,,,,,,,,,,,,,,,,,,,,,,,,,,,,,,,,,,,,,,,,,,,,121,camisa,Catalan,Sounds/cat_camisa.mp3,2020-06-08_15h01.17.047,TranslationElicitation_spa,3.2.4,Win32,60,5ede1560a80d4f02f3e6e997,,1,0,80,16,1,79
,,,,,,,,,,,,,,,,,,,,,,,,,,,,,,,,,,,m,2.398000002,M,FALSE,,,,,,,158,nas,Catalan,Sounds/cat_nas.mp3,2020-06-08_15h01.17.047,TranslationElicitation_spa,3.2.4,Win32,60,5ede1560a80d4f02f3e6e997,,1,0,80,52,1,79
,,,,,,,,,,,,,,,,,,,,,,,,,,,,,,,,,,,a,2.498000145,MA,FALSE,,,,,,,158,nas,Catalan,Sounds/cat_nas.mp3,2020-06-08_15h01.17.047,TranslationElicitation_spa,3.2.4,Win32,60,5ede1560a80d4f02f3e6e997,,1,0,80,52,1,79
,,,,,,,,,,,,,,,,,,,,,,,,,,,,,,,,,,,s,2.6650002,MAS,FALSE,,,,,,,158,nas,Catalan,Sounds/cat_nas.mp3,2020-06-08_15h01.17.047,TranslationElicitation_spa,3.2.4,Win32,60,5ede1560a80d4f02f3e6e997,,1,0,80,52,1,79
,,,,,,,,,,,,,,,,,,,,,,,,,,,,,,,,,,,return,2.899000168,,FALSE,,,,,,,158,nas,Catalan,Sounds/cat_nas.mp3,2020-06-08_15h01.17.047,TranslationElicitation_spa,3.2.4,Win32,60,5ede1560a80d4f02f3e6e997,2.899000168,1,0,80,52,1,79
,,,,,,,,,,,,,,,,,,,,,,,,,,,,,,,,,,,,,,,,,,,,,158,nas,Catalan,Sounds/cat_nas.mp3,2020-06-08_15h01.17.047,TranslationElicitation_spa,3.2.4,Win32,60,5ede1560a80d4f02f3e6e997,,1,0,80,52,1,79
,,,,,,,,,,,,,,,,,,,,,,,,,,,,,,,,,,,b,1.315000057,B,FALSE,,,,,,,123,cavall,Catalan,Sounds/cat_cavall.mp3,2020-06-08_15h01.17.047,TranslationElicitation_spa,3.2.4,Win32,60,5ede1560a80d4f02f3e6e997,,1,0,80,18,1,79
,,,,,,,,,,,,,,,,,,,,,,,,,,,,,,,,,,,backspace,1.815000057,,TRUE,,,,,,,123,cavall,Catalan,Sounds/cat_cavall.mp3,2020-06-08_15h01.17.047,TranslationElicitation_spa,3.2.4,Win32,60,5ede1560a80d4f02f3e6e997,,1,0,80,18,1,79
,,,,,,,,,,,,,,,,,,,,,,,,,,,,,,,,,,,c,1.914999962,C,TRUE,,,,,,,123,cavall,Catalan,Sounds/cat_cavall.mp3,2020-06-08_15h01.17.047,TranslationElicitation_spa,3.2.4,Win32,60,5ede1560a80d4f02f3e6e997,,1,0,80,18,1,79
,,,,,,,,,,,,,,,,,,,,,,,,,,,,,,,,,,,a,2.11500001,CA,TRUE,,,,,,,123,cavall,Catalan,Sounds/cat_cavall.mp3,2020-06-08_15h01.17.047,TranslationElicitation_spa,3.2.4,Win32,60,5ede1560a80d4f02f3e6e997,,1,0,80,18,1,79
,,,,,,,,,,,,,,,,,,,,,,,,,,,,,,,,,,,b,2.197999954,CAB,TRUE,,,,,,,123,cavall,Catalan,Sounds/cat_cavall.mp3,2020-06-08_15h01.17.047,TranslationElicitation_spa,3.2.4,Win32,60,5ede1560a80d4f02f3e6e997,,1,0,80,18,1,79
,,,,,,,,,,,,,,,,,,,,,,,,,,,,,,,,,,,a,2.414999962,CABA,TRUE,,,,,,,123,cavall,Catalan,Sounds/cat_cavall.mp3,2020-06-08_15h01.17.047,TranslationElicitation_spa,3.2.4,Win32,60,5ede1560a80d4f02f3e6e997,,1,0,80,18,1,79
,,,,,,,,,,,,,,,,,,,,,,,,,,,,,,,,,,,l,2.582000017,CABAL,TRUE,,,,,,,123,cavall,Catalan,Sounds/cat_cavall.mp3,2020-06-08_15h01.17.047,TranslationElicitation_spa,3.2.4,Win32,60,5ede1560a80d4f02f3e6e997,,1,0,80,18,1,79
,,,,,,,,,,,,,,,,,,,,,,,,,,,,,,,,,,,l,2.730999947,CABALL,TRUE,,,,,,,123,cavall,Catalan,Sounds/cat_cavall.mp3,2020-06-08_15h01.17.047,TranslationElicitation_spa,3.2.4,Win32,60,5ede1560a80d4f02f3e6e997,,1,0,80,18,1,79
,,,,,,,,,,,,,,,,,,,,,,,,,,,,,,,,,,,o,2.869999886,CABALLO,TRUE,,,,,,,123,cavall,Catalan,Sounds/cat_cavall.mp3,2020-06-08_15h01.17.047,TranslationElicitation_spa,3.2.4,Win32,60,5ede1560a80d4f02f3e6e997,,1,0,80,18,1,79
,,,,,,,,,,,,,,,,,,,,,,,,,,,,,,,,,,,return,3.115999937,,TRUE,,,,,,,123,cavall,Catalan,Sounds/cat_cavall.mp3,2020-06-08_15h01.17.047,TranslationElicitation_spa,3.2.4,Win32,60,5ede1560a80d4f02f3e6e997,3.115999937,1,0,80,18,1,79
,,,,,,,,,,,,,,,,,,,,,,,,,,,,,,,,,,,,,,,,,,,,,123,cavall,Catalan,Sounds/cat_cavall.mp3,2020-06-08_15h01.17.047,TranslationElicitation_spa,3.2.4,Win32,60,5ede1560a80d4f02f3e6e997,,1,0,80,18,1,79
,,,,,,,,,,,,,,,,,,,,,,,,,,,,,,,,,,,c,1.36500001,C,FALSE,,,,,,,138,galeta,Catalan,Sounds/cat_galeta.mp3,2020-06-08_15h01.17.047,TranslationElicitation_spa,3.2.4,Win32,60,5ede1560a80d4f02f3e6e997,,1,0,80,33,1,79
,,,,,,,,,,,,,,,,,,,,,,,,,,,,,,,,,,,a,1.59800005,CA,FALSE,,,,,,,138,galeta,Catalan,Sounds/cat_galeta.mp3,2020-06-08_15h01.17.047,TranslationElicitation_spa,3.2.4,Win32,60,5ede1560a80d4f02f3e6e997,,1,0,80,33,1,79
,,,,,,,,,,,,,,,,,,,,,,,,,,,,,,,,,,,l,1.730999947,CAL,FALSE,,,,,,,138,galeta,Catalan,Sounds/cat_galeta.mp3,2020-06-08_15h01.17.047,TranslationElicitation_spa,3.2.4,Win32,60,5ede1560a80d4f02f3e6e997,,1,0,80,33,1,79
,,,,,,,,,,,,,,,,,,,,,,,,,,,,,,,,,,,e,1.799000025,CALE,FALSE,,,,,,,138,galeta,Catalan,Sounds/cat_galeta.mp3,2020-06-08_15h01.17.047,TranslationElicitation_spa,3.2.4,Win32,60,5ede1560a80d4f02f3e6e997,,1,0,80,33,1,79
,,,,,,,,,,,,,,,,,,,,,,,,,,,,,,,,,,,t,1.964999914,CALET,FALSE,,,,,,,138,galeta,Catalan,Sounds/cat_galeta.mp3,2020-06-08_15h01.17.047,TranslationElicitation_spa,3.2.4,Win32,60,5ede1560a80d4f02f3e6e997,,1,0,80,33,1,79
,,,,,,,,,,,,,,,,,,,,,,,,,,,,,,,,,,,a,2.213999987,CALETA,FALSE,,,,,,,138,galeta,Catalan,Sounds/cat_galeta.mp3,2020-06-08_15h01.17.047,TranslationElicitation_spa,3.2.4,Win32,60,5ede1560a80d4f02f3e6e997,,1,0,80,33,1,79
,,,,,,,,,,,,,,,,,,,,,,,,,,,,,,,,,,,return,2.33100009,,FALSE,,,,,,,138,galeta,Catalan,Sounds/cat_galeta.mp3,2020-06-08_15h01.17.047,TranslationElicitation_spa,3.2.4,Win32,60,5ede1560a80d4f02f3e6e997,2.33100009,1,0,80,33,1,79
,,,,,,,,,,,,,,,,,,,,,,,,,,,,,,,,,,,,,,,,,,,,,138,galeta,Catalan,Sounds/cat_galeta.mp3,2020-06-08_15h01.17.047,TranslationElicitation_spa,3.2.4,Win32,60,5ede1560a80d4f02f3e6e997,,1,0,80,33,1,79
,,,,,,,,,,,,,,,,,,,,,,,,,,,,,,,,,,,r,1.996999979,R,FALSE,,,,,,,175,raspall,Catalan,Sounds/cat_raspall.mp3,2020-06-08_15h01.17.047,TranslationElicitation_spa,3.2.4,Win32,60,5ede1560a80d4f02f3e6e997,,1,0,80,67,1,79
,,,,,,,,,,,,,,,,,,,,,,,,,,,,,,,,,,,e,2.197000027,RE,FALSE,,,,,,,175,raspall,Catalan,Sounds/cat_raspall.mp3,2020-06-08_15h01.17.047,TranslationElicitation_spa,3.2.4,Win32,60,5ede1560a80d4f02f3e6e997,,1,0,80,67,1,79
,,,,,,,,,,,,,,,,,,,,,,,,,,,,,,,,,,,s,2.364000082,RES,FALSE,,,,,,,175,raspall,Catalan,Sounds/cat_raspall.mp3,2020-06-08_15h01.17.047,TranslationElicitation_spa,3.2.4,Win32,60,5ede1560a80d4f02f3e6e997,,1,0,80,67,1,79
,,,,,,,,,,,,,,,,,,,,,,,,,,,,,,,,,,,p,2.529999971,RESP,FALSE,,,,,,,175,raspall,Catalan,Sounds/cat_raspall.mp3,2020-06-08_15h01.17.047,TranslationElicitation_spa,3.2.4,Win32,60,5ede1560a80d4f02f3e6e997,,1,0,80,67,1,79
,,,,,,,,,,,,,,,,,,,,,,,,,,,,,,,,,,,a,2.664000034,RESPA,FALSE,,,,,,,175,raspall,Catalan,Sounds/cat_raspall.mp3,2020-06-08_15h01.17.047,TranslationElicitation_spa,3.2.4,Win32,60,5ede1560a80d4f02f3e6e997,,1,0,80,67,1,79
,,,,,,,,,,,,,,,,,,,,,,,,,,,,,,,,,,,l,2.748000145,RESPAL,FALSE,,,,,,,175,raspall,Catalan,Sounds/cat_raspall.mp3,2020-06-08_15h01.17.047,TranslationElicitation_spa,3.2.4,Win32,60,5ede1560a80d4f02f3e6e997,,1,0,80,67,1,79
,,,,,,,,,,,,,,,,,,,,,,,,,,,,,,,,,,,d,2.897000074,RESPALD,FALSE,,,,,,,175,raspall,Catalan,Sounds/cat_raspall.mp3,2020-06-08_15h01.17.047,TranslationElicitation_spa,3.2.4,Win32,60,5ede1560a80d4f02f3e6e997,,1,0,80,67,1,79
,,,,,,,,,,,,,,,,,,,,,,,,,,,,,,,,,,,o,2.980000019,RESPALDO,FALSE,,,,,,,175,raspall,Catalan,Sounds/cat_raspall.mp3,2020-06-08_15h01.17.047,TranslationElicitation_spa,3.2.4,Win32,60,5ede1560a80d4f02f3e6e997,,1,0,80,67,1,79
,,,,,,,,,,,,,,,,,,,,,,,,,,,,,,,,,,,return,3.213999987,,FALSE,,,,,,,175,raspall,Catalan,Sounds/cat_raspall.mp3,2020-06-08_15h01.17.047,TranslationElicitation_spa,3.2.4,Win32,60,5ede1560a80d4f02f3e6e997,3.213999987,1,0,80,67,1,79
,,,,,,,,,,,,,,,,,,,,,,,,,,,,,,,,,,,,,,,,,,,,,175,raspall,Catalan,Sounds/cat_raspall.mp3,2020-06-08_15h01.17.047,TranslationElicitation_spa,3.2.4,Win32,60,5ede1560a80d4f02f3e6e997,,1,0,80,67,1,79
,,,,,,,,,,,,,,,,,,,,,,,,,,,,,,,,,,,g,2.064999819,G,FALSE,,,,,,,145,got,Catalan,Sounds/cat_got.mp3,2020-06-08_15h01.17.047,TranslationElicitation_spa,3.2.4,Win32,60,5ede1560a80d4f02f3e6e997,,1,0,80,40,1,79
,,,,,,,,,,,,,,,,,,,,,,,,,,,,,,,,,,,o,2.898000002,GO,FALSE,,,,,,,145,got,Catalan,Sounds/cat_got.mp3,2020-06-08_15h01.17.047,TranslationElicitation_spa,3.2.4,Win32,60,5ede1560a80d4f02f3e6e997,,1,0,80,40,1,79
,,,,,,,,,,,,,,,,,,,,,,,,,,,,,,,,,,,l,3.047999859,GOL,FALSE,,,,,,,145,got,Catalan,Sounds/cat_got.mp3,2020-06-08_15h01.17.047,TranslationElicitation_spa,3.2.4,Win32,60,5ede1560a80d4f02f3e6e997,,1,0,80,40,1,79
,,,,,,,,,,,,,,,,,,,,,,,,,,,,,,,,,,,return,3.297999859,,FALSE,,,,,,,145,got,Catalan,Sounds/cat_got.mp3,2020-06-08_15h01.17.047,TranslationElicitation_spa,3.2.4,Win32,60,5ede1560a80d4f02f3e6e997,3.296999931,1,0,80,40,1,79
,,,,,,,,,,,,,,,,,,,,,,,,,,,,,,,,,,,,,,,,,,,,,145,got,Catalan,Sounds/cat_got.mp3,2020-06-08_15h01.17.047,TranslationElicitation_spa,3.2.4,Win32,60,5ede1560a80d4f02f3e6e997,,1,0,80,40,1,79
,,,,,,,,,,,,,,,,,,,,,,,,,,,,,,,,,,,u,1.766000032,U,FALSE,,,,,,,185,ulleres,Catalan,Sounds/cat_ulleres.mp3,2020-06-08_15h01.17.047,TranslationElicitation_spa,3.2.4,Win32,60,5ede1560a80d4f02f3e6e997,,1,0,80,76,1,79
,,,,,,,,,,,,,,,,,,,,,,,,,,,,,,,,,,,l,2.049000025,UL,FALSE,,,,,,,185,ulleres,Catalan,Sounds/cat_ulleres.mp3,2020-06-08_15h01.17.047,TranslationElicitation_spa,3.2.4,Win32,60,5ede1560a80d4f02f3e6e997,,1,0,80,76,1,79
,,,,,,,,,,,,,,,,,,,,,,,,,,,,,,,,,,,e,2.149000168,ULE,FALSE,,,,,,,185,ulleres,Catalan,Sounds/cat_ulleres.mp3,2020-06-08_15h01.17.047,TranslationElicitation_spa,3.2.4,Win32,60,5ede1560a80d4f02f3e6e997,,1,0,80,76,1,79
,,,,,,,,,,,,,,,,,,,,,,,,,,,,,,,,,,,r,2.282000065,ULER,FALSE,,,,,,,185,ulleres,Catalan,Sounds/cat_ulleres.mp3,2020-06-08_15h01.17.047,TranslationElicitation_spa,3.2.4,Win32,60,5ede1560a80d4f02f3e6e997,,1,0,80,76,1,79
,,,,,,,,,,,,,,,,,,,,,,,,,,,,,,,,,,,a,2.499000072,ULERA,FALSE,,,,,,,185,ulleres,Catalan,Sounds/cat_ulleres.mp3,2020-06-08_15h01.17.047,TranslationElicitation_spa,3.2.4,Win32,60,5ede1560a80d4f02f3e6e997,,1,0,80,76,1,79
,,,,,,,,,,,,,,,,,,,,,,,,,,,,,,,,,,,s,2.666000128,ULERAS,FALSE,,,,,,,185,ulleres,Catalan,Sounds/cat_ulleres.mp3,2020-06-08_15h01.17.047,TranslationElicitation_spa,3.2.4,Win32,60,5ede1560a80d4f02f3e6e997,,1,0,80,76,1,79
,,,,,,,,,,,,,,,,,,,,,,,,,,,,,,,,,,,return,2.815000057,,FALSE,,,,,,,185,ulleres,Catalan,Sounds/cat_ulleres.mp3,2020-06-08_15h01.17.047,TranslationElicitation_spa,3.2.4,Win32,60,5ede1560a80d4f02f3e6e997,2.815000057,1,0,80,76,1,79
,,,,,,,,,,,,,,,,,,,,,,,,,,,,,,,,,,,,,,,,,,,,,185,ulleres,Catalan,Sounds/cat_ulleres.mp3,2020-06-08_15h01.17.047,TranslationElicitation_spa,3.2.4,Win32,60,5ede1560a80d4f02f3e6e997,,1,0,80,76,1,79
,,,,,,,,,,,,,,,,,,,,,,,,,,,,,,,,,,,e,1.598999977,E,FALSE,,,,,,,131,esponja,Catalan,Sounds/cat_esponja.mp3,2020-06-08_15h01.17.047,TranslationElicitation_spa,3.2.4,Win32,60,5ede1560a80d4f02f3e6e997,,1,0,80,26,1,79
,,,,,,,,,,,,,,,,,,,,,,,,,,,,,,,,,,,s,1.799000025,ES,FALSE,,,,,,,131,esponja,Catalan,Sounds/cat_esponja.mp3,2020-06-08_15h01.17.047,TranslationElicitation_spa,3.2.4,Win32,60,5ede1560a80d4f02f3e6e997,,1,0,80,26,1,79
,,,,,,,,,,,,,,,,,,,,,,,,,,,,,,,,,,,p,1.914999962,ESP,FALSE,,,,,,,131,esponja,Catalan,Sounds/cat_esponja.mp3,2020-06-08_15h01.17.047,TranslationElicitation_spa,3.2.4,Win32,60,5ede1560a80d4f02f3e6e997,,1,0,80,26,1,79
,,,,,,,,,,,,,,,,,,,,,,,,,,,,,,,,,,,a,2.032000065,ESPA,FALSE,,,,,,,131,esponja,Catalan,Sounds/cat_esponja.mp3,2020-06-08_15h01.17.047,TranslationElicitation_spa,3.2.4,Win32,60,5ede1560a80d4f02f3e6e997,,1,0,80,26,1,79
,,,,,,,,,,,,,,,,,,,,,,,,,,,,,,,,,,,semicolon,2.11500001,ESPAÑ,FALSE,,,,,,,131,esponja,Catalan,Sounds/cat_esponja.mp3,2020-06-08_15h01.17.047,TranslationElicitation_spa,3.2.4,Win32,60,5ede1560a80d4f02f3e6e997,,1,0,80,26,1,79
,,,,,,,,,,,,,,,,,,,,,,,,,,,,,,,,,,,a,2.266000032,ESPAÑA,FALSE,,,,,,,131,esponja,Catalan,Sounds/cat_esponja.mp3,2020-06-08_15h01.17.047,TranslationElicitation_spa,3.2.4,Win32,60,5ede1560a80d4f02f3e6e997,,1,0,80,26,1,79
,,,,,,,,,,,,,,,,,,,,,,,,,,,,,,,,,,,return,2.664999962,,FALSE,,,,,,,131,esponja,Catalan,Sounds/cat_esponja.mp3,2020-06-08_15h01.17.047,TranslationElicitation_spa,3.2.4,Win32,60,5ede1560a80d4f02f3e6e997,2.664999962,1,0,80,26,1,79
,,,,,,,,,,,,,,,,,,,,,,,,,,,,,,,,,,,,,,,,,,,,,131,esponja,Catalan,Sounds/cat_esponja.mp3,2020-06-08_15h01.17.047,TranslationElicitation_spa,3.2.4,Win32,60,5ede1560a80d4f02f3e6e997,,1,0,80,26,1,79
,,,,,,,,,,,,,,,,,,,,,,,,,,,,,,,,,,,c,1.61500001,C,FALSE,,,,,,,128,cuc,Catalan,Sounds/cat_cuc.mp3,2020-06-08_15h01.17.047,TranslationElicitation_spa,3.2.4,Win32,60,5ede1560a80d4f02f3e6e997,,1,0,80,23,1,79
,,,,,,,,,,,,,,,,,,,,,,,,,,,,,,,,,,,u,1.764999866,CU,FALSE,,,,,,,128,cuc,Catalan,Sounds/cat_cuc.mp3,2020-06-08_15h01.17.047,TranslationElicitation_spa,3.2.4,Win32,60,5ede1560a80d4f02f3e6e997,,1,0,80,23,1,79
,,,,,,,,,,,,,,,,,,,,,,,,,,,,,,,,,,,backspace,2.797999859,,TRUE,,,,,,,128,cuc,Catalan,Sounds/cat_cuc.mp3,2020-06-08_15h01.17.047,TranslationElicitation_spa,3.2.4,Win32,60,5ede1560a80d4f02f3e6e997,,1,0,80,23,1,79
,,,,,,,,,,,,,,,,,,,,,,,,,,,,,,,,,,,c,3.747999907,C,TRUE,,,,,,,128,cuc,Catalan,Sounds/cat_cuc.mp3,2020-06-08_15h01.17.047,TranslationElicitation_spa,3.2.4,Win32,60,5ede1560a80d4f02f3e6e997,,1,0,80,23,1,79
,,,,,,,,,,,,,,,,,,,,,,,,,,,,,,,,,,,u,4.930999994,CU,TRUE,,,,,,,128,cuc,Catalan,Sounds/cat_cuc.mp3,2020-06-08_15h01.17.047,TranslationElicitation_spa,3.2.4,Win32,60,5ede1560a80d4f02f3e6e997,,1,0,80,23,1,79
,,,,,,,,,,,,,,,,,,,,,,,,,,,,,,,,,,,c,5.063999891,CUC,TRUE,,,,,,,128,cuc,Catalan,Sounds/cat_cuc.mp3,2020-06-08_15h01.17.047,TranslationElicitation_spa,3.2.4,Win32,60,5ede1560a80d4f02f3e6e997,,1,0,80,23,1,79
,,,,,,,,,,,,,,,,,,,,,,,,,,,,,,,,,,,return,6.046999931,,TRUE,,,,,,,128,cuc,Catalan,Sounds/cat_cuc.mp3,2020-06-08_15h01.17.047,TranslationElicitation_spa,3.2.4,Win32,60,5ede1560a80d4f02f3e6e997,6.046999931,1,0,80,23,1,79
,,,,,,,,,,,,,,,,,,,,,,,,,,,,,,,,,,,,,,,,,,,,,128,cuc,Catalan,Sounds/cat_cuc.mp3,2020-06-08_15h01.17.047,TranslationElicitation_spa,3.2.4,Win32,60,5ede1560a80d4f02f3e6e997,,1,0,80,23,1,79
,,,,,,,,,,,,,,,,,,,,,,,,,,,,,,,,,,,c,1.57799983,C,FALSE,,,,,,,127,cotxe,Catalan,Sounds/cat_cotxe.mp3,2020-06-08_15h01.17.047,TranslationElicitation_spa,3.2.4,Win32,60,5ede1560a80d4f02f3e6e997,,1,0,80,22,1,79
,,,,,,,,,,,,,,,,,,,,,,,,,,,,,,,,,,,o,1.661000013,CO,FALSE,,,,,,,127,cotxe,Catalan,Sounds/cat_cotxe.mp3,2020-06-08_15h01.17.047,TranslationElicitation_spa,3.2.4,Win32,60,5ede1560a80d4f02f3e6e997,,1,0,80,22,1,79
,,,,,,,,,,,,,,,,,,,,,,,,,,,,,,,,,,,c,1.863999844,COC,FALSE,,,,,,,127,cotxe,Catalan,Sounds/cat_cotxe.mp3,2020-06-08_15h01.17.047,TranslationElicitation_spa,3.2.4,Win32,60,5ede1560a80d4f02f3e6e997,,1,0,80,22,1,79
,,,,,,,,,,,,,,,,,,,,,,,,,,,,,,,,,,,h,2.494999886,COCH,FALSE,,,,,,,127,cotxe,Catalan,Sounds/cat_cotxe.mp3,2020-06-08_15h01.17.047,TranslationElicitation_spa,3.2.4,Win32,60,5ede1560a80d4f02f3e6e997,,1,0,80,22,1,79
,,,,,,,,,,,,,,,,,,,,,,,,,,,,,,,,,,,e,2.59499979,COCHE,FALSE,,,,,,,127,cotxe,Catalan,Sounds/cat_cotxe.mp3,2020-06-08_15h01.17.047,TranslationElicitation_spa,3.2.4,Win32,60,5ede1560a80d4f02f3e6e997,,1,0,80,22,1,79
,,,,,,,,,,,,,,,,,,,,,,,,,,,,,,,,,,,return,2.760999918,,FALSE,,,,,,,127,cotxe,Catalan,Sounds/cat_cotxe.mp3,2020-06-08_15h01.17.047,TranslationElicitation_spa,3.2.4,Win32,60,5ede1560a80d4f02f3e6e997,2.760999918,1,0,80,22,1,79
,,,,,,,,,,,,,,,,,,,,,,,,,,,,,,,,,,,,,,,,,,,,,127,cotxe,Catalan,Sounds/cat_cotxe.mp3,2020-06-08_15h01.17.047,TranslationElicitation_spa,3.2.4,Win32,60,5ede1560a80d4f02f3e6e997,,1,0,80,22,1,79
,,,,,,,,,,,,,,,,,,,,,,,,,,,,,,,,,,,e,1.082000017,E,FALSE,,,,,,,132,estrella,Catalan,Sounds/cat_estrella.mp3,2020-06-08_15h01.17.047,TranslationElicitation_spa,3.2.4,Win32,60,5ede1560a80d4f02f3e6e997,,1,0,80,27,1,79
,,,,,,,,,,,,,,,,,,,,,,,,,,,,,,,,,,,s,1.299000025,ES,FALSE,,,,,,,132,estrella,Catalan,Sounds/cat_estrella.mp3,2020-06-08_15h01.17.047,TranslationElicitation_spa,3.2.4,Win32,60,5ede1560a80d4f02f3e6e997,,1,0,80,27,1,79
,,,,,,,,,,,,,,,,,,,,,,,,,,,,,,,,,,,t,1.498000145,EST,FALSE,,,,,,,132,estrella,Catalan,Sounds/cat_estrella.mp3,2020-06-08_15h01.17.047,TranslationElicitation_spa,3.2.4,Win32,60,5ede1560a80d4f02f3e6e997,,1,0,80,27,1,79
,,,,,,,,,,,,,,,,,,,,,,,,,,,,,,,,,,,r,1.664999962,ESTR,FALSE,,,,,,,132,estrella,Catalan,Sounds/cat_estrella.mp3,2020-06-08_15h01.17.047,TranslationElicitation_spa,3.2.4,Win32,60,5ede1560a80d4f02f3e6e997,,1,0,80,27,1,79
,,,,,,,,,,,,,,,,,,,,,,,,,,,,,,,,,,,e,1.832000017,ESTRE,FALSE,,,,,,,132,estrella,Catalan,Sounds/cat_estrella.mp3,2020-06-08_15h01.17.047,TranslationElicitation_spa,3.2.4,Win32,60,5ede1560a80d4f02f3e6e997,,1,0,80,27,1,79
,,,,,,,,,,,,,,,,,,,,,,,,,,,,,,,,,,,l,1.947999954,ESTREL,FALSE,,,,,,,132,estrella,Catalan,Sounds/cat_estrella.mp3,2020-06-08_15h01.17.047,TranslationElicitation_spa,3.2.4,Win32,60,5ede1560a80d4f02f3e6e997,,1,0,80,27,1,79
,,,,,,,,,,,,,,,,,,,,,,,,,,,,,,,,,,,l,2.11500001,ESTRELL,FALSE,,,,,,,132,estrella,Catalan,Sounds/cat_estrella.mp3,2020-06-08_15h01.17.047,TranslationElicitation_spa,3.2.4,Win32,60,5ede1560a80d4f02f3e6e997,,1,0,80,27,1,79
,,,,,,,,,,,,,,,,,,,,,,,,,,,,,,,,,,,a,2.18200016,ESTRELLA,FALSE,,,,,,,132,estrella,Catalan,Sounds/cat_estrella.mp3,2020-06-08_15h01.17.047,TranslationElicitation_spa,3.2.4,Win32,60,5ede1560a80d4f02f3e6e997,,1,0,80,27,1,79
,,,,,,,,,,,,,,,,,,,,,,,,,,,,,,,,,,,return,2.34800005,,FALSE,,,,,,,132,estrella,Catalan,Sounds/cat_estrella.mp3,2020-06-08_15h01.17.047,TranslationElicitation_spa,3.2.4,Win32,60,5ede1560a80d4f02f3e6e997,2.34800005,1,0,80,27,1,79
,,,,,,,,,,,,,,,,,,,,,,,,,,,,,,,,,,,,,,,,,,,,,132,estrella,Catalan,Sounds/cat_estrella.mp3,2020-06-08_15h01.17.047,TranslationElicitation_spa,3.2.4,Win32,60,5ede1560a80d4f02f3e6e997,,1,0,80,27,1,79
,,,,,,,,,,,,,,,,,,,,,,,,,,,,,,,,,,,backspace,1.749000072,,TRUE,,,,,,,183,tren,Catalan,Sounds/cat_tren.mp3,2020-06-08_15h01.17.047,TranslationElicitation_spa,3.2.4,Win32,60,5ede1560a80d4f02f3e6e997,,1,0,80,74,1,79
,,,,,,,,,,,,,,,,,,,,,,,,,,,,,,,,,,,t,1.799000025,T,TRUE,,,,,,,183,tren,Catalan,Sounds/cat_tren.mp3,2020-06-08_15h01.17.047,TranslationElicitation_spa,3.2.4,Win32,60,5ede1560a80d4f02f3e6e997,,1,0,80,74,1,79
,,,,,,,,,,,,,,,,,,,,,,,,,,,,,,,,,,,r,1.982000113,TR,TRUE,,,,,,,183,tren,Catalan,Sounds/cat_tren.mp3,2020-06-08_15h01.17.047,TranslationElicitation_spa,3.2.4,Win32,60,5ede1560a80d4f02f3e6e997,,1,0,80,74,1,79
,,,,,,,,,,,,,,,,,,,,,,,,,,,,,,,,,,,e,2.164999962,TRE,TRUE,,,,,,,183,tren,Catalan,Sounds/cat_tren.mp3,2020-06-08_15h01.17.047,TranslationElicitation_spa,3.2.4,Win32,60,5ede1560a80d4f02f3e6e997,,1,0,80,74,1,79
,,,,,,,,,,,,,,,,,,,,,,,,,,,,,,,,,,,n,2.249000072,TREN,TRUE,,,,,,,183,tren,Catalan,Sounds/cat_tren.mp3,2020-06-08_15h01.17.047,TranslationElicitation_spa,3.2.4,Win32,60,5ede1560a80d4f02f3e6e997,,1,0,80,74,1,79
,,,,,,,,,,,,,,,,,,,,,,,,,,,,,,,,,,,return,2.565000057,,TRUE,,,,,,,183,tren,Catalan,Sounds/cat_tren.mp3,2020-06-08_15h01.17.047,TranslationElicitation_spa,3.2.4,Win32,60,5ede1560a80d4f02f3e6e997,2.565000057,1,0,80,74,1,79
,,,,,,,,,,,,,,,,,,,,,,,,,,,,,,,,,,,,,,,,,,,,,183,tren,Catalan,Sounds/cat_tren.mp3,2020-06-08_15h01.17.047,TranslationElicitation_spa,3.2.4,Win32,60,5ede1560a80d4f02f3e6e997,,1,0,80,74,1,79
,,,,,,,,,,,,,,,,,,,,,,,,,,,,,,,,,,,a,1.4150002,A,FALSE,,,,,,,105,aigua,Catalan,Sounds/cat_aigua.mp3,2020-06-08_15h01.17.047,TranslationElicitation_spa,3.2.4,Win32,60,5ede1560a80d4f02f3e6e997,,1,0,80,1,1,79
,,,,,,,,,,,,,,,,,,,,,,,,,,,,,,,,,,,g,1.549000025,AG,FALSE,,,,,,,105,aigua,Catalan,Sounds/cat_aigua.mp3,2020-06-08_15h01.17.047,TranslationElicitation_spa,3.2.4,Win32,60,5ede1560a80d4f02f3e6e997,,1,0,80,1,1,79
,,,,,,,,,,,,,,,,,,,,,,,,,,,,,,,,,,,u,1.68200016,AGU,FALSE,,,,,,,105,aigua,Catalan,Sounds/cat_aigua.mp3,2020-06-08_15h01.17.047,TranslationElicitation_spa,3.2.4,Win32,60,5ede1560a80d4f02f3e6e997,,1,0,80,1,1,79
,,,,,,,,,,,,,,,,,,,,,,,,,,,,,,,,,,,a,1.882000208,AGUA,FALSE,,,,,,,105,aigua,Catalan,Sounds/cat_aigua.mp3,2020-06-08_15h01.17.047,TranslationElicitation_spa,3.2.4,Win32,60,5ede1560a80d4f02f3e6e997,,1,0,80,1,1,79
,,,,,,,,,,,,,,,,,,,,,,,,,,,,,,,,,,,return,2.065000057,,FALSE,,,,,,,105,aigua,Catalan,Sounds/cat_aigua.mp3,2020-06-08_15h01.17.047,TranslationElicitation_spa,3.2.4,Win32,60,5ede1560a80d4f02f3e6e997,2.065000057,1,0,80,1,1,79
,,,,,,,,,,,,,,,,,,,,,,,,,,,,,,,,,,,,,,,,,,,,,105,aigua,Catalan,Sounds/cat_aigua.mp3,2020-06-08_15h01.17.047,TranslationElicitation_spa,3.2.4,Win32,60,5ede1560a80d4f02f3e6e997,,1,0,80,1,1,79
,,,,,,,,,,,,,,,,,,,,,,,,,,,,,,,,,,,s,3.4150002,S,FALSE,,,,,,,124,cirera,Catalan,Sounds/cat_cirera.mp3,2020-06-08_15h01.17.047,TranslationElicitation_spa,3.2.4,Win32,60,5ede1560a80d4f02f3e6e997,,1,0,80,19,1,79
,,,,,,,,,,,,,,,,,,,,,,,,,,,,,,,,,,,i,3.565000057,SI,FALSE,,,,,,,124,cirera,Catalan,Sounds/cat_cirera.mp3,2020-06-08_15h01.17.047,TranslationElicitation_spa,3.2.4,Win32,60,5ede1560a80d4f02f3e6e997,,1,0,80,19,1,79
,,,,,,,,,,,,,,,,,,,,,,,,,,,,,,,,,,,r,3.698000193,SIR,FALSE,,,,,,,124,cirera,Catalan,Sounds/cat_cirera.mp3,2020-06-08_15h01.17.047,TranslationElicitation_spa,3.2.4,Win32,60,5ede1560a80d4f02f3e6e997,,1,0,80,19,1,79
,,,,,,,,,,,,,,,,,,,,,,,,,,,,,,,,,,,e,3.86500001,SIRE,FALSE,,,,,,,124,cirera,Catalan,Sounds/cat_cirera.mp3,2020-06-08_15h01.17.047,TranslationElicitation_spa,3.2.4,Win32,60,5ede1560a80d4f02f3e6e997,,1,0,80,19,1,79
,,,,,,,,,,,,,,,,,,,,,,,,,,,,,,,,,,,n,3.9150002,SIREN,FALSE,,,,,,,124,cirera,Catalan,Sounds/cat_cirera.mp3,2020-06-08_15h01.17.047,TranslationElicitation_spa,3.2.4,Win32,60,5ede1560a80d4f02f3e6e997,,1,0,80,19,1,79
,,,,,,,,,,,,,,,,,,,,,,,,,,,,,,,,,,,a,4.08100009,SIRENA,FALSE,,,,,,,124,cirera,Catalan,Sounds/cat_cirera.mp3,2020-06-08_15h01.17.047,TranslationElicitation_spa,3.2.4,Win32,60,5ede1560a80d4f02f3e6e997,,1,0,80,19,1,79
,,,,,,,,,,,,,,,,,,,,,,,,,,,,,,,,,,,return,4.248000145,,FALSE,,,,,,,124,cirera,Catalan,Sounds/cat_cirera.mp3,2020-06-08_15h01.17.047,TranslationElicitation_spa,3.2.4,Win32,60,5ede1560a80d4f02f3e6e997,4.248000145,1,0,80,19,1,79
,,,,,,,,,,,,,,,,,,,,,,,,,,,,,,,,,,,,,,,,,,,,,124,cirera,Catalan,Sounds/cat_cirera.mp3,2020-06-08_15h01.17.047,TranslationElicitation_spa,3.2.4,Win32,60,5ede1560a80d4f02f3e6e997,,1,0,80,19,1,79
,,,,,,,,,,,,,,,,,,,,,,,,,,,,,,,,,,,v,2.965999842,V,FALSE,,,,,,,187,vaixell,Catalan,Sounds/cat_vaixell.mp3,2020-06-08_15h01.17.047,TranslationElicitation_spa,3.2.4,Win32,60,5ede1560a80d4f02f3e6e997,,1,0,80,77,1,79
,,,,,,,,,,,,,,,,,,,,,,,,,,,,,,,,,,,a,3.198999882,VA,FALSE,,,,,,,187,vaixell,Catalan,Sounds/cat_vaixell.mp3,2020-06-08_15h01.17.047,TranslationElicitation_spa,3.2.4,Win32,60,5ede1560a80d4f02f3e6e997,,1,0,80,77,1,79
,,,,,,,,,,,,,,,,,,,,,,,,,,,,,,,,,,,s,3.36500001,VAS,FALSE,,,,,,,187,vaixell,Catalan,Sounds/cat_vaixell.mp3,2020-06-08_15h01.17.047,TranslationElicitation_spa,3.2.4,Win32,60,5ede1560a80d4f02f3e6e997,,1,0,80,77,1,79
,,,,,,,,,,,,,,,,,,,,,,,,,,,,,,,,,,,e,3.516000032,VASE,FALSE,,,,,,,187,vaixell,Catalan,Sounds/cat_vaixell.mp3,2020-06-08_15h01.17.047,TranslationElicitation_spa,3.2.4,Win32,60,5ede1560a80d4f02f3e6e997,,1,0,80,77,1,79
,,,,,,,,,,,,,,,,,,,,,,,,,,,,,,,,,,,l,3.598999977,VASEL,FALSE,,,,,,,187,vaixell,Catalan,Sounds/cat_vaixell.mp3,2020-06-08_15h01.17.047,TranslationElicitation_spa,3.2.4,Win32,60,5ede1560a80d4f02f3e6e997,,1,0,80,77,1,79
,,,,,,,,,,,,,,,,,,,,,,,,,,,,,,,,,,,return,3.86500001,,FALSE,,,,,,,187,vaixell,Catalan,Sounds/cat_vaixell.mp3,2020-06-08_15h01.17.047,TranslationElicitation_spa,3.2.4,Win32,60,5ede1560a80d4f02f3e6e997,3.86500001,1,0,80,77,1,79
,,,,,,,,,,,,,,,,,,,,,,,,,,,,,,,,,,,,,,,,,,,,,187,vaixell,Catalan,Sounds/cat_vaixell.mp3,2020-06-08_15h01.17.047,TranslationElicitation_spa,3.2.4,Win32,60,5ede1560a80d4f02f3e6e997,,1,0,80,77,1,79
,,,,,,,,,,,,,,,,,,,,,,,,,,,,,,,,,,,b,2.631999969,B,FALSE,,,,,,,117,boto,Catalan,Sounds/cat_boto.mp3,2020-06-08_15h01.17.047,TranslationElicitation_spa,3.2.4,Win32,60,5ede1560a80d4f02f3e6e997,,1,0,80,12,1,79
,,,,,,,,,,,,,,,,,,,,,,,,,,,,,,,,,,,u,2.697999954,BU,FALSE,,,,,,,117,boto,Catalan,Sounds/cat_boto.mp3,2020-06-08_15h01.17.047,TranslationElicitation_spa,3.2.4,Win32,60,5ede1560a80d4f02f3e6e997,,1,0,80,12,1,79
,,,,,,,,,,,,,,,,,,,,,,,,,,,,,,,,,,,t,2.94900012,BUT,FALSE,,,,,,,117,boto,Catalan,Sounds/cat_boto.mp3,2020-06-08_15h01.17.047,TranslationElicitation_spa,3.2.4,Win32,60,5ede1560a80d4f02f3e6e997,,1,0,80,12,1,79
,,,,,,,,,,,,,,,,,,,,,,,,,,,,,,,,,,,o,3.08100009,BUTO,FALSE,,,,,,,117,boto,Catalan,Sounds/cat_boto.mp3,2020-06-08_15h01.17.047,TranslationElicitation_spa,3.2.4,Win32,60,5ede1560a80d4f02f3e6e997,,1,0,80,12,1,79
,,,,,,,,,,,,,,,,,,,,,,,,,,,,,,,,,,,n,3.181999922,BUTON,FALSE,,,,,,,117,boto,Catalan,Sounds/cat_boto.mp3,2020-06-08_15h01.17.047,TranslationElicitation_spa,3.2.4,Win32,60,5ede1560a80d4f02f3e6e997,,1,0,80,12,1,79
,,,,,,,,,,,,,,,,,,,,,,,,,,,,,,,,,,,backspace,3.582000017,BUT,TRUE,,,,,,,117,boto,Catalan,Sounds/cat_boto.mp3,2020-06-08_15h01.17.047,TranslationElicitation_spa,3.2.4,Win32,60,5ede1560a80d4f02f3e6e997,,1,0,80,12,1,79
,,,,,,,,,,,,,,,,,,,,,,,,,,,,,,,,,,,backspace,3.730999947,B,TRUE,,,,,,,117,boto,Catalan,Sounds/cat_boto.mp3,2020-06-08_15h01.17.047,TranslationElicitation_spa,3.2.4,Win32,60,5ede1560a80d4f02f3e6e997,,1,0,80,12,1,79
,,,,,,,,,,,,,,,,,,,,,,,,,,,,,,,,,,,backspace,3.881000042,,TRUE,,,,,,,117,boto,Catalan,Sounds/cat_boto.mp3,2020-06-08_15h01.17.047,TranslationElicitation_spa,3.2.4,Win32,60,5ede1560a80d4f02f3e6e997,,1,0,80,12,1,79
,,,,,,,,,,,,,,,,,,,,,,,,,,,,,,,,,,,b,4.480999947,B,TRUE,,,,,,,117,boto,Catalan,Sounds/cat_boto.mp3,2020-06-08_15h01.17.047,TranslationElicitation_spa,3.2.4,Win32,60,5ede1560a80d4f02f3e6e997,,1,0,80,12,1,79
,,,,,,,,,,,,,,,,,,,,,,,,,,,,,,,,,,,o,4.648000002,BO,TRUE,,,,,,,117,boto,Catalan,Sounds/cat_boto.mp3,2020-06-08_15h01.17.047,TranslationElicitation_spa,3.2.4,Win32,60,5ede1560a80d4f02f3e6e997,,1,0,80,12,1,79
,,,,,,,,,,,,,,,,,,,,,,,,,,,,,,,,,,,t,4.730999947,BOT,TRUE,,,,,,,117,boto,Catalan,Sounds/cat_boto.mp3,2020-06-08_15h01.17.047,TranslationElicitation_spa,3.2.4,Win32,60,5ede1560a80d4f02f3e6e997,,1,0,80,12,1,79
,,,,,,,,,,,,,,,,,,,,,,,,,,,,,,,,,,,o,4.83100009,BOTO,TRUE,,,,,,,117,boto,Catalan,Sounds/cat_boto.mp3,2020-06-08_15h01.17.047,TranslationElicitation_spa,3.2.4,Win32,60,5ede1560a80d4f02f3e6e997,,1,0,80,12,1,79
,,,,,,,,,,,,,,,,,,,,,,,,,,,,,,,,,,,n,4.930999994,BOTON,TRUE,,,,,,,117,boto,Catalan,Sounds/cat_boto.mp3,2020-06-08_15h01.17.047,TranslationElicitation_spa,3.2.4,Win32,60,5ede1560a80d4f02f3e6e997,,1,0,80,12,1,79
,,,,,,,,,,,,,,,,,,,,,,,,,,,,,,,,,,,return,5.664000034,,TRUE,,,,,,,117,boto,Catalan,Sounds/cat_boto.mp3,2020-06-08_15h01.17.047,TranslationElicitation_spa,3.2.4,Win32,60,5ede1560a80d4f02f3e6e997,5.664000034,1,0,80,12,1,79
,,,,,,,,,,,,,,,,,,,,,,,,,,,,,,,,,,,,,,,,,,,,,117,boto,Catalan,Sounds/cat_boto.mp3,2020-06-08_15h01.17.047,TranslationElicitation_spa,3.2.4,Win32,60,5ede1560a80d4f02f3e6e997,,1,0,80,12,1,79
,,,,,,,,,,,,,,,,,,,,,,,,,,,,,,,,,,,h,1.979000092,H,FALSE,,,,,,,135,formiga,Catalan,Sounds/cat_formiga.mp3,2020-06-08_15h01.17.047,TranslationElicitation_spa,3.2.4,Win32,60,5ede1560a80d4f02f3e6e997,,1,0,80,30,1,79
,,,,,,,,,,,,,,,,,,,,,,,,,,,,,,,,,,,o,2.128999949,HO,FALSE,,,,,,,135,formiga,Catalan,Sounds/cat_formiga.mp3,2020-06-08_15h01.17.047,TranslationElicitation_spa,3.2.4,Win32,60,5ede1560a80d4f02f3e6e997,,1,0,80,30,1,79
,,,,,,,,,,,,,,,,,,,,,,,,,,,,,,,,,,,r,2.212000132,HOR,FALSE,,,,,,,135,formiga,Catalan,Sounds/cat_formiga.mp3,2020-06-08_15h01.17.047,TranslationElicitation_spa,3.2.4,Win32,60,5ede1560a80d4f02f3e6e997,,1,0,80,30,1,79
,,,,,,,,,,,,,,,,,,,,,,,,,,,,,,,,,,,m,2.279000044,HORM,FALSE,,,,,,,135,formiga,Catalan,Sounds/cat_formiga.mp3,2020-06-08_15h01.17.047,TranslationElicitation_spa,3.2.4,Win32,60,5ede1560a80d4f02f3e6e997,,1,0,80,30,1,79
,,,,,,,,,,,,,,,,,,,,,,,,,,,,,,,,,,,i,2.378999949,HORMI,FALSE,,,,,,,135,formiga,Catalan,Sounds/cat_formiga.mp3,2020-06-08_15h01.17.047,TranslationElicitation_spa,3.2.4,Win32,60,5ede1560a80d4f02f3e6e997,,1,0,80,30,1,79
,,,,,,,,,,,,,,,,,,,,,,,,,,,,,,,,,,,g,2.479000092,HORMIG,FALSE,,,,,,,135,formiga,Catalan,Sounds/cat_formiga.mp3,2020-06-08_15h01.17.047,TranslationElicitation_spa,3.2.4,Win32,60,5ede1560a80d4f02f3e6e997,,1,0,80,30,1,79
,,,,,,,,,,,,,,,,,,,,,,,,,,,,,,,,,,,a,2.729000092,HORMIGA,FALSE,,,,,,,135,formiga,Catalan,Sounds/cat_formiga.mp3,2020-06-08_15h01.17.047,TranslationElicitation_spa,3.2.4,Win32,60,5ede1560a80d4f02f3e6e997,,1,0,80,30,1,79
,,,,,,,,,,,,,,,,,,,,,,,,,,,,,,,,,,,return,2.878999949,,FALSE,,,,,,,135,formiga,Catalan,Sounds/cat_formiga.mp3,2020-06-08_15h01.17.047,TranslationElicitation_spa,3.2.4,Win32,60,5ede1560a80d4f02f3e6e997,2.878999949,1,0,80,30,1,79
,,,,,,,,,,,,,,,,,,,,,,,,,,,,,,,,,,,,,,,,,,,,,135,formiga,Catalan,Sounds/cat_formiga.mp3,2020-06-08_15h01.17.047,TranslationElicitation_spa,3.2.4,Win32,60,5ede1560a80d4f02f3e6e997,,1,0,80,30,1,79
,,,,,,,,,,,,,,,,,,,,,,,,,,,,,,,,,,,m,1.86500001,M,FALSE,,,,,,,152,ma,Catalan,Sounds/cat_ma.mp3,2020-06-08_15h01.17.047,TranslationElicitation_spa,3.2.4,Win32,60,5ede1560a80d4f02f3e6e997,,1,0,80,46,1,79
,,,,,,,,,,,,,,,,,,,,,,,,,,,,,,,,,,,a,1.980999947,MA,FALSE,,,,,,,152,ma,Catalan,Sounds/cat_ma.mp3,2020-06-08_15h01.17.047,TranslationElicitation_spa,3.2.4,Win32,60,5ede1560a80d4f02f3e6e997,,1,0,80,46,1,79
,,,,,,,,,,,,,,,,,,,,,,,,,,,,,,,,,,,r,2.198999882,MAR,FALSE,,,,,,,152,ma,Catalan,Sounds/cat_ma.mp3,2020-06-08_15h01.17.047,TranslationElicitation_spa,3.2.4,Win32,60,5ede1560a80d4f02f3e6e997,,1,0,80,46,1,79
,,,,,,,,,,,,,,,,,,,,,,,,,,,,,,,,,,,return,2.497999907,,FALSE,,,,,,,152,ma,Catalan,Sounds/cat_ma.mp3,2020-06-08_15h01.17.047,TranslationElicitation_spa,3.2.4,Win32,60,5ede1560a80d4f02f3e6e997,2.497999907,1,0,80,46,1,79
,,,,,,,,,,,,,,,,,,,,,,,,,,,,,,,,,,,,,,,,,,,,,152,ma,Catalan,Sounds/cat_ma.mp3,2020-06-08_15h01.17.047,TranslationElicitation_spa,3.2.4,Win32,60,5ede1560a80d4f02f3e6e997,,1,0,80,46,1,79
,,,,,,,,,,,,,,,,,,,,,,,,,,,,,,,,,,,l,1.68200016,L,FALSE,,,,,,,149,llibre,Catalan,Sounds/cat_llibre.mp3,2020-06-08_15h01.17.047,TranslationElicitation_spa,3.2.4,Win32,60,5ede1560a80d4f02f3e6e997,,1,0,80,43,1,79
,,,,,,,,,,,,,,,,,,,,,,,,,,,,,,,,,,,i,1.898000002,LI,FALSE,,,,,,,149,llibre,Catalan,Sounds/cat_llibre.mp3,2020-06-08_15h01.17.047,TranslationElicitation_spa,3.2.4,Win32,60,5ede1560a80d4f02f3e6e997,,1,0,80,43,1,79
,,,,,,,,,,,,,,,,,,,,,,,,,,,,,,,,,,,b,2.032000065,LIB,FALSE,,,,,,,149,llibre,Catalan,Sounds/cat_llibre.mp3,2020-06-08_15h01.17.047,TranslationElicitation_spa,3.2.4,Win32,60,5ede1560a80d4f02f3e6e997,,1,0,80,43,1,79
,,,,,,,,,,,,,,,,,,,,,,,,,,,,,,,,,,,r,2.09800005,LIBR,FALSE,,,,,,,149,llibre,Catalan,Sounds/cat_llibre.mp3,2020-06-08_15h01.17.047,TranslationElicitation_spa,3.2.4,Win32,60,5ede1560a80d4f02f3e6e997,,1,0,80,43,1,79
,,,,,,,,,,,,,,,,,,,,,,,,,,,,,,,,,,,a,2.332000017,LIBRA,FALSE,,,,,,,149,llibre,Catalan,Sounds/cat_llibre.mp3,2020-06-08_15h01.17.047,TranslationElicitation_spa,3.2.4,Win32,60,5ede1560a80d4f02f3e6e997,,1,0,80,43,1,79
,,,,,,,,,,,,,,,,,,,,,,,,,,,,,,,,,,,return,2.498000145,,FALSE,,,,,,,149,llibre,Catalan,Sounds/cat_llibre.mp3,2020-06-08_15h01.17.047,TranslationElicitation_spa,3.2.4,Win32,60,5ede1560a80d4f02f3e6e997,2.498000145,1,0,80,43,1,79
,,,,,,,,,,,,,,,,,,,,,,,,,,,,,,,,,,,,,,,,,,,,,149,llibre,Catalan,Sounds/cat_llibre.mp3,2020-06-08_15h01.17.047,TranslationElicitation_spa,3.2.4,Win32,60,5ede1560a80d4f02f3e6e997,,1,0,80,43,1,79
,,,,,,,,,,,,,,,,,,,,,,,,,,,,,,,,,,,c,1.832000017,C,FALSE,,,,,,,125,colom,Catalan,Sounds/cat_colom.mp3,2020-06-08_15h01.17.047,TranslationElicitation_spa,3.2.4,Win32,60,5ede1560a80d4f02f3e6e997,,1,0,80,20,1,79
,,,,,,,,,,,,,,,,,,,,,,,,,,,,,,,,,,,u,3.114000082,CU,FALSE,,,,,,,125,colom,Catalan,Sounds/cat_colom.mp3,2020-06-08_15h01.17.047,TranslationElicitation_spa,3.2.4,Win32,60,5ede1560a80d4f02f3e6e997,,1,0,80,20,1,79
,,,,,,,,,,,,,,,,,,,,,,,,,,,,,,,,,,,l,3.450000048,CUL,FALSE,,,,,,,125,colom,Catalan,Sounds/cat_colom.mp3,2020-06-08_15h01.17.047,TranslationElicitation_spa,3.2.4,Win32,60,5ede1560a80d4f02f3e6e997,,1,0,80,20,1,79
,,,,,,,,,,,,,,,,,,,,,,,,,,,,,,,,,,,o,3.59800005,CULO,FALSE,,,,,,,125,colom,Catalan,Sounds/cat_colom.mp3,2020-06-08_15h01.17.047,TranslationElicitation_spa,3.2.4,Win32,60,5ede1560a80d4f02f3e6e997,,1,0,80,20,1,79
,,,,,,,,,,,,,,,,,,,,,,,,,,,,,,,,,,,n,3.763999939,CULON,FALSE,,,,,,,125,colom,Catalan,Sounds/cat_colom.mp3,2020-06-08_15h01.17.047,TranslationElicitation_spa,3.2.4,Win32,60,5ede1560a80d4f02f3e6e997,,1,0,80,20,1,79
,,,,,,,,,,,,,,,,,,,,,,,,,,,,,,,,,,,return,4.09800005,,FALSE,,,,,,,125,colom,Catalan,Sounds/cat_colom.mp3,2020-06-08_15h01.17.047,TranslationElicitation_spa,3.2.4,Win32,60,5ede1560a80d4f02f3e6e997,4.09800005,1,0,80,20,1,79
,,,,,,,,,,,,,,,,,,,,,,,,,,,,,,,,,,,,,,,,,,,,,125,colom,Catalan,Sounds/cat_colom.mp3,2020-06-08_15h01.17.047,TranslationElicitation_spa,3.2.4,Win32,60,5ede1560a80d4f02f3e6e997,,1,0,80,20,1,79
,,,,,,,,,,,,,,,,,,,,,,,,,,,,,,,,,,,f,1.832999945,F,FALSE,,,,,,,136,forquilla,Catalan,Sounds/cat_forquilla.mp3,2020-06-08_15h01.17.047,TranslationElicitation_spa,3.2.4,Win32,60,5ede1560a80d4f02f3e6e997,,1,0,80,31,1,79
,,,,,,,,,,,,,,,,,,,,,,,,,,,,,,,,,,,backspace,2.131999969,,TRUE,,,,,,,136,forquilla,Catalan,Sounds/cat_forquilla.mp3,2020-06-08_15h01.17.047,TranslationElicitation_spa,3.2.4,Win32,60,5ede1560a80d4f02f3e6e997,,1,0,80,31,1,79
,,,,,,,,,,,,,,,,,,,,,,,,,,,,,,,,,,,h,2.448999882,H,TRUE,,,,,,,136,forquilla,Catalan,Sounds/cat_forquilla.mp3,2020-06-08_15h01.17.047,TranslationElicitation_spa,3.2.4,Win32,60,5ede1560a80d4f02f3e6e997,,1,0,80,31,1,79
,,,,,,,,,,,,,,,,,,,,,,,,,,,,,,,,,,,o,2.782000065,HO,TRUE,,,,,,,136,forquilla,Catalan,Sounds/cat_forquilla.mp3,2020-06-08_15h01.17.047,TranslationElicitation_spa,3.2.4,Win32,60,5ede1560a80d4f02f3e6e997,,1,0,80,31,1,79
,,,,,,,,,,,,,,,,,,,,,,,,,,,,,,,,,,,r,2.934999943,HOR,TRUE,,,,,,,136,forquilla,Catalan,Sounds/cat_forquilla.mp3,2020-06-08_15h01.17.047,TranslationElicitation_spa,3.2.4,Win32,60,5ede1560a80d4f02f3e6e997,,1,0,80,31,1,79
,,,,,,,,,,,,,,,,,,,,,,,,,,,,,,,,,,,q,3.299000025,HORQ,TRUE,,,,,,,136,forquilla,Catalan,Sounds/cat_forquilla.mp3,2020-06-08_15h01.17.047,TranslationElicitation_spa,3.2.4,Win32,60,5ede1560a80d4f02f3e6e997,,1,0,80,31,1,79
,,,,,,,,,,,,,,,,,,,,,,,,,,,,,,,,,,,u,3.481999874,HORQU,TRUE,,,,,,,136,forquilla,Catalan,Sounds/cat_forquilla.mp3,2020-06-08_15h01.17.047,TranslationElicitation_spa,3.2.4,Win32,60,5ede1560a80d4f02f3e6e997,,1,0,80,31,1,79
,,,,,,,,,,,,,,,,,,,,,,,,,,,,,,,,,,,i,3.631999969,HORQUI,TRUE,,,,,,,136,forquilla,Catalan,Sounds/cat_forquilla.mp3,2020-06-08_15h01.17.047,TranslationElicitation_spa,3.2.4,Win32,60,5ede1560a80d4f02f3e6e997,,1,0,80,31,1,79
,,,,,,,,,,,,,,,,,,,,,,,,,,,,,,,,,,,l,3.84800005,HORQUIL,TRUE,,,,,,,136,forquilla,Catalan,Sounds/cat_forquilla.mp3,2020-06-08_15h01.17.047,TranslationElicitation_spa,3.2.4,Win32,60,5ede1560a80d4f02f3e6e997,,1,0,80,31,1,79
,,,,,,,,,,,,,,,,,,,,,,,,,,,,,,,,,,,l,4.131000042,HORQUILL,TRUE,,,,,,,136,forquilla,Catalan,Sounds/cat_forquilla.mp3,2020-06-08_15h01.17.047,TranslationElicitation_spa,3.2.4,Win32,60,5ede1560a80d4f02f3e6e997,,1,0,80,31,1,79
,,,,,,,,,,,,,,,,,,,,,,,,,,,,,,,,,,,a,4.464999914,HORQUILLA,TRUE,,,,,,,136,forquilla,Catalan,Sounds/cat_forquilla.mp3,2020-06-08_15h01.17.047,TranslationElicitation_spa,3.2.4,Win32,60,5ede1560a80d4f02f3e6e997,,1,0,80,31,1,79
,,,,,,,,,,,,,,,,,,,,,,,,,,,,,,,,,,,return,4.797999859,,TRUE,,,,,,,136,forquilla,Catalan,Sounds/cat_forquilla.mp3,2020-06-08_15h01.17.047,TranslationElicitation_spa,3.2.4,Win32,60,5ede1560a80d4f02f3e6e997,4.797999859,1,0,80,31,1,79
,,,,,,,,,,,,,,,,,,,,,,,,,,,,,,,,,,,,,,,,,,,,,136,forquilla,Catalan,Sounds/cat_forquilla.mp3,2020-06-08_15h01.17.047,TranslationElicitation_spa,3.2.4,Win32,60,5ede1560a80d4f02f3e6e997,,1,0,80,31,1,79
,,,,,,,,,,,,,,,,,,,,,,,,,,,,,,,,,,,b,1.896000147,B,FALSE,,,,,,,118,bou,Catalan,Sounds/cat_bou.mp3,2020-06-08_15h01.17.047,TranslationElicitation_spa,3.2.4,Win32,60,5ede1560a80d4f02f3e6e997,,1,0,80,13,1,79
,,,,,,,,,,,,,,,,,,,,,,,,,,,,,,,,,,,a,2.063000202,BA,FALSE,,,,,,,118,bou,Catalan,Sounds/cat_bou.mp3,2020-06-08_15h01.17.047,TranslationElicitation_spa,3.2.4,Win32,60,5ede1560a80d4f02f3e6e997,,1,0,80,13,1,79
,,,,,,,,,,,,,,,,,,,,,,,,,,,,,,,,,,,u,2.129000187,BAU,FALSE,,,,,,,118,bou,Catalan,Sounds/cat_bou.mp3,2020-06-08_15h01.17.047,TranslationElicitation_spa,3.2.4,Win32,60,5ede1560a80d4f02f3e6e997,,1,0,80,13,1,79
,,,,,,,,,,,,,,,,,,,,,,,,,,,,,,,,,,,l,2.379000187,BAUL,FALSE,,,,,,,118,bou,Catalan,Sounds/cat_bou.mp3,2020-06-08_15h01.17.047,TranslationElicitation_spa,3.2.4,Win32,60,5ede1560a80d4f02f3e6e997,,1,0,80,13,1,79
,,,,,,,,,,,,,,,,,,,,,,,,,,,,,,,,,,,return,2.663000107,,FALSE,,,,,,,118,bou,Catalan,Sounds/cat_bou.mp3,2020-06-08_15h01.17.047,TranslationElicitation_spa,3.2.4,Win32,60,5ede1560a80d4f02f3e6e997,2.663000107,1,0,80,13,1,79
,,,,,,,,,,,,,,,,,,,,,,,,,,,,,,,,,,,,,,,,,,,,,118,bou,Catalan,Sounds/cat_bou.mp3,2020-06-08_15h01.17.047,TranslationElicitation_spa,3.2.4,Win32,60,5ede1560a80d4f02f3e6e997,,1,0,80,13,1,79
,,,,,,,,,,,,,,,,,,,,,,,,,,,,,,,,,,,t,1.548000097,T,FALSE,,,,,,,180,tisores,Catalan,Sounds/cat_tisores.mp3,2020-06-08_15h01.17.047,TranslationElicitation_spa,3.2.4,Win32,60,5ede1560a80d4f02f3e6e997,,1,0,80,71,1,79
,,,,,,,,,,,,,,,,,,,,,,,,,,,,,,,,,,,e,1.798000097,TE,FALSE,,,,,,,180,tisores,Catalan,Sounds/cat_tisores.mp3,2020-06-08_15h01.17.047,TranslationElicitation_spa,3.2.4,Win32,60,5ede1560a80d4f02f3e6e997,,1,0,80,71,1,79
,,,,,,,,,,,,,,,,,,,,,,,,,,,,,,,,,,,backspace,2.463999987,,TRUE,,,,,,,180,tisores,Catalan,Sounds/cat_tisores.mp3,2020-06-08_15h01.17.047,TranslationElicitation_spa,3.2.4,Win32,60,5ede1560a80d4f02f3e6e997,,1,0,80,71,1,79
,,,,,,,,,,,,,,,,,,,,,,,,,,,,,,,,,,,i,2.697999954,I,TRUE,,,,,,,180,tisores,Catalan,Sounds/cat_tisores.mp3,2020-06-08_15h01.17.047,TranslationElicitation_spa,3.2.4,Win32,60,5ede1560a80d4f02f3e6e997,,1,0,80,71,1,79
,,,,,,,,,,,,,,,,,,,,,,,,,,,,,,,,,,,j,2.773000002,IJ,TRUE,,,,,,,180,tisores,Catalan,Sounds/cat_tisores.mp3,2020-06-08_15h01.17.047,TranslationElicitation_spa,3.2.4,Win32,60,5ede1560a80d4f02f3e6e997,,1,0,80,71,1,79
,,,,,,,,,,,,,,,,,,,,,,,,,,,,,,,,,,,e,2.84800005,IJE,TRUE,,,,,,,180,tisores,Catalan,Sounds/cat_tisores.mp3,2020-06-08_15h01.17.047,TranslationElicitation_spa,3.2.4,Win32,60,5ede1560a80d4f02f3e6e997,,1,0,80,71,1,79
,,,,,,,,,,,,,,,,,,,,,,,,,,,,,,,,,,,r,2.980999947,IJER,TRUE,,,,,,,180,tisores,Catalan,Sounds/cat_tisores.mp3,2020-06-08_15h01.17.047,TranslationElicitation_spa,3.2.4,Win32,60,5ede1560a80d4f02f3e6e997,,1,0,80,71,1,79
,,,,,,,,,,,,,,,,,,,,,,,,,,,,,,,,,,,a,3.215000153,IJERA,TRUE,,,,,,,180,tisores,Catalan,Sounds/cat_tisores.mp3,2020-06-08_15h01.17.047,TranslationElicitation_spa,3.2.4,Win32,60,5ede1560a80d4f02f3e6e997,,1,0,80,71,1,79
,,,,,,,,,,,,,,,,,,,,,,,,,,,,,,,,,,,s,3.381000042,IJERAS,TRUE,,,,,,,180,tisores,Catalan,Sounds/cat_tisores.mp3,2020-06-08_15h01.17.047,TranslationElicitation_spa,3.2.4,Win32,60,5ede1560a80d4f02f3e6e997,,1,0,80,71,1,79
,,,,,,,,,,,,,,,,,,,,,,,,,,,,,,,,,,,backspace,4.414000034,IJER,TRUE,,,,,,,180,tisores,Catalan,Sounds/cat_tisores.mp3,2020-06-08_15h01.17.047,TranslationElicitation_spa,3.2.4,Win32,60,5ede1560a80d4f02f3e6e997,,1,0,80,71,1,79
,,,,,,,,,,,,,,,,,,,,,,,,,,,,,,,,,,,backspace,5.04700017,IJ,TRUE,,,,,,,180,tisores,Catalan,Sounds/cat_tisores.mp3,2020-06-08_15h01.17.047,TranslationElicitation_spa,3.2.4,Win32,60,5ede1560a80d4f02f3e6e997,,1,0,80,71,1,79
,,,,,,,,,,,,,,,,,,,,,,,,,,,,,,,,,,,backspace,5.33100009,,TRUE,,,,,,,180,tisores,Catalan,Sounds/cat_tisores.mp3,2020-06-08_15h01.17.047,TranslationElicitation_spa,3.2.4,Win32,60,5ede1560a80d4f02f3e6e997,,1,0,80,71,1,79
,,,,,,,,,,,,,,,,,,,,,,,,,,,,,,,,,,,backspace,5.34800005,,TRUE,,,,,,,180,tisores,Catalan,Sounds/cat_tisores.mp3,2020-06-08_15h01.17.047,TranslationElicitation_spa,3.2.4,Win32,60,5ede1560a80d4f02f3e6e997,,1,0,80,71,1,79
,,,,,,,,,,,,,,,,,,,,,,,,,,,,,,,,,,,t,5.914000034,T,TRUE,,,,,,,180,tisores,Catalan,Sounds/cat_tisores.mp3,2020-06-08_15h01.17.047,TranslationElicitation_spa,3.2.4,Win32,60,5ede1560a80d4f02f3e6e997,,1,0,80,71,1,79
,,,,,,,,,,,,,,,,,,,,,,,,,,,,,,,,,,,i,6.097000122,TI,TRUE,,,,,,,180,tisores,Catalan,Sounds/cat_tisores.mp3,2020-06-08_15h01.17.047,TranslationElicitation_spa,3.2.4,Win32,60,5ede1560a80d4f02f3e6e997,,1,0,80,71,1,79
,,,,,,,,,,,,,,,,,,,,,,,,,,,,,,,,,,,j,6.163000107,TIJ,TRUE,,,,,,,180,tisores,Catalan,Sounds/cat_tisores.mp3,2020-06-08_15h01.17.047,TranslationElicitation_spa,3.2.4,Win32,60,5ede1560a80d4f02f3e6e997,,1,0,80,71,1,79
,,,,,,,,,,,,,,,,,,,,,,,,,,,,,,,,,,,e,6.213999987,TIJE,TRUE,,,,,,,180,tisores,Catalan,Sounds/cat_tisores.mp3,2020-06-08_15h01.17.047,TranslationElicitation_spa,3.2.4,Win32,60,5ede1560a80d4f02f3e6e997,,1,0,80,71,1,79
,,,,,,,,,,,,,,,,,,,,,,,,,,,,,,,,,,,r,6.364000082,TIJER,TRUE,,,,,,,180,tisores,Catalan,Sounds/cat_tisores.mp3,2020-06-08_15h01.17.047,TranslationElicitation_spa,3.2.4,Win32,60,5ede1560a80d4f02f3e6e997,,1,0,80,71,1,79
,,,,,,,,,,,,,,,,,,,,,,,,,,,,,,,,,,,a,6.585999966,TIJERA,TRUE,,,,,,,180,tisores,Catalan,Sounds/cat_tisores.mp3,2020-06-08_15h01.17.047,TranslationElicitation_spa,3.2.4,Win32,60,5ede1560a80d4f02f3e6e997,,1,0,80,71,1,79
,,,,,,,,,,,,,,,,,,,,,,,,,,,,,,,,,,,s,6.713000059,TIJERAS,TRUE,,,,,,,180,tisores,Catalan,Sounds/cat_tisores.mp3,2020-06-08_15h01.17.047,TranslationElicitation_spa,3.2.4,Win32,60,5ede1560a80d4f02f3e6e997,,1,0,80,71,1,79
,,,,,,,,,,,,,,,,,,,,,,,,,,,,,,,,,,,return,6.897000074,,TRUE,,,,,,,180,tisores,Catalan,Sounds/cat_tisores.mp3,2020-06-08_15h01.17.047,TranslationElicitation_spa,3.2.4,Win32,60,5ede1560a80d4f02f3e6e997,6.897000074,1,0,80,71,1,79
,,,,,,,,,,,,,,,,,,,,,,,,,,,,,,,,,,,,,,,,,,,,,180,tisores,Catalan,Sounds/cat_tisores.mp3,2020-06-08_15h01.17.047,TranslationElicitation_spa,3.2.4,Win32,60,5ede1560a80d4f02f3e6e997,,1,0,80,71,1,79
,,,,,,,,,,,,,,,,,,,,,,,,,,,,,,,,,,,u,1.529999971,U,FALSE,,,,,,,115,bolet,Catalan,Sounds/cat_bolet.mp3,2020-06-08_15h01.17.047,TranslationElicitation_spa,3.2.4,Win32,60,5ede1560a80d4f02f3e6e997,,1,0,80,10,1,79
,,,,,,,,,,,,,,,,,,,,,,,,,,,,,,,,,,,backspace,1.996000051,,TRUE,,,,,,,115,bolet,Catalan,Sounds/cat_bolet.mp3,2020-06-08_15h01.17.047,TranslationElicitation_spa,3.2.4,Win32,60,5ede1560a80d4f02f3e6e997,,1,0,80,10,1,79
,,,,,,,,,,,,,,,,,,,,,,,,,,,,,,,,,,,b,2.128999949,B,TRUE,,,,,,,115,bolet,Catalan,Sounds/cat_bolet.mp3,2020-06-08_15h01.17.047,TranslationElicitation_spa,3.2.4,Win32,60,5ede1560a80d4f02f3e6e997,,1,0,80,10,1,79
,,,,,,,,,,,,,,,,,,,,,,,,,,,,,,,,,,,u,2.263000011,BU,TRUE,,,,,,,115,bolet,Catalan,Sounds/cat_bolet.mp3,2020-06-08_15h01.17.047,TranslationElicitation_spa,3.2.4,Win32,60,5ede1560a80d4f02f3e6e997,,1,0,80,10,1,79
,,,,,,,,,,,,,,,,,,,,,,,,,,,,,,,,,,,l,2.478999853,BUL,TRUE,,,,,,,115,bolet,Catalan,Sounds/cat_bolet.mp3,2020-06-08_15h01.17.047,TranslationElicitation_spa,3.2.4,Win32,60,5ede1560a80d4f02f3e6e997,,1,0,80,10,1,79
,,,,,,,,,,,,,,,,,,,,,,,,,,,,,,,,,,,e,2.530999899,BULE,TRUE,,,,,,,115,bolet,Catalan,Sounds/cat_bolet.mp3,2020-06-08_15h01.17.047,TranslationElicitation_spa,3.2.4,Win32,60,5ede1560a80d4f02f3e6e997,,1,0,80,10,1,79
,,,,,,,,,,,,,,,,,,,,,,,,,,,,,,,,,,,t,2.746000051,BULET,TRUE,,,,,,,115,bolet,Catalan,Sounds/cat_bolet.mp3,2020-06-08_15h01.17.047,TranslationElicitation_spa,3.2.4,Win32,60,5ede1560a80d4f02f3e6e997,,1,0,80,10,1,79
,,,,,,,,,,,,,,,,,,,,,,,,,,,,,,,,,,,return,2.895999908,,TRUE,,,,,,,115,bolet,Catalan,Sounds/cat_bolet.mp3,2020-06-08_15h01.17.047,TranslationElicitation_spa,3.2.4,Win32,60,5ede1560a80d4f02f3e6e997,2.895999908,1,0,80,10,1,79
,,,,,,,,,,,,,,,,,,,,,,,,,,,,,,,,,,,,,,,,,,,,,115,bolet,Catalan,Sounds/cat_bolet.mp3,2020-06-08_15h01.17.047,TranslationElicitation_spa,3.2.4,Win32,60,5ede1560a80d4f02f3e6e997,,1,0,80,10,1,79
,,,,,,,,,,,,,,,,,,,,,,,,,,,,,,,,,,,b,1.481999874,B,FALSE,,,,,,,111,bibero,Catalan,Sounds/cat_bibero.mp3,2020-06-08_15h01.17.047,TranslationElicitation_spa,3.2.4,Win32,60,5ede1560a80d4f02f3e6e997,,1,0,80,6,1,79
,,,,,,,,,,,,,,,,,,,,,,,,,,,,,,,,,,,e,1.747999907,BE,FALSE,,,,,,,111,bibero,Catalan,Sounds/cat_bibero.mp3,2020-06-08_15h01.17.047,TranslationElicitation_spa,3.2.4,Win32,60,5ede1560a80d4f02f3e6e997,,1,0,80,6,1,79
,,,,,,,,,,,,,,,,,,,,,,,,,,,,,,,,,,,backspace,2.014999866,,TRUE,,,,,,,111,bibero,Catalan,Sounds/cat_bibero.mp3,2020-06-08_15h01.17.047,TranslationElicitation_spa,3.2.4,Win32,60,5ede1560a80d4f02f3e6e997,,1,0,80,6,1,79
,,,,,,,,,,,,,,,,,,,,,,,,,,,,,,,,,,,i,2.180999994,I,TRUE,,,,,,,111,bibero,Catalan,Sounds/cat_bibero.mp3,2020-06-08_15h01.17.047,TranslationElicitation_spa,3.2.4,Win32,60,5ede1560a80d4f02f3e6e997,,1,0,80,6,1,79
,,,,,,,,,,,,,,,,,,,,,,,,,,,,,,,,,,,b,2.347999811,IB,TRUE,,,,,,,111,bibero,Catalan,Sounds/cat_bibero.mp3,2020-06-08_15h01.17.047,TranslationElicitation_spa,3.2.4,Win32,60,5ede1560a80d4f02f3e6e997,,1,0,80,6,1,79
,,,,,,,,,,,,,,,,,,,,,,,,,,,,,,,,,,,e,2.464999914,IBE,TRUE,,,,,,,111,bibero,Catalan,Sounds/cat_bibero.mp3,2020-06-08_15h01.17.047,TranslationElicitation_spa,3.2.4,Win32,60,5ede1560a80d4f02f3e6e997,,1,0,80,6,1,79
,,,,,,,,,,,,,,,,,,,,,,,,,,,,,,,,,,,r,2.613999844,IBER,TRUE,,,,,,,111,bibero,Catalan,Sounds/cat_bibero.mp3,2020-06-08_15h01.17.047,TranslationElicitation_spa,3.2.4,Win32,60,5ede1560a80d4f02f3e6e997,,1,0,80,6,1,79
,,,,,,,,,,,,,,,,,,,,,,,,,,,,,,,,,,,backspace,2.947999954,IB,TRUE,,,,,,,111,bibero,Catalan,Sounds/cat_bibero.mp3,2020-06-08_15h01.17.047,TranslationElicitation_spa,3.2.4,Win32,60,5ede1560a80d4f02f3e6e997,,1,0,80,6,1,79
,,,,,,,,,,,,,,,,,,,,,,,,,,,,,,,,,,,backspace,3.097999811,,TRUE,,,,,,,111,bibero,Catalan,Sounds/cat_bibero.mp3,2020-06-08_15h01.17.047,TranslationElicitation_spa,3.2.4,Win32,60,5ede1560a80d4f02f3e6e997,,1,0,80,6,1,79
,,,,,,,,,,,,,,,,,,,,,,,,,,,,,,,,,,,backspace,3.247999907,,TRUE,,,,,,,111,bibero,Catalan,Sounds/cat_bibero.mp3,2020-06-08_15h01.17.047,TranslationElicitation_spa,3.2.4,Win32,60,5ede1560a80d4f02f3e6e997,,1,0,80,6,1,79
,,,,,,,,,,,,,,,,,,,,,,,,,,,,,,,,,,,b,3.830999851,B,TRUE,,,,,,,111,bibero,Catalan,Sounds/cat_bibero.mp3,2020-06-08_15h01.17.047,TranslationElicitation_spa,3.2.4,Win32,60,5ede1560a80d4f02f3e6e997,,1,0,80,6,1,79
,,,,,,,,,,,,,,,,,,,,,,,,,,,,,,,,,,,i,3.963999987,BI,TRUE,,,,,,,111,bibero,Catalan,Sounds/cat_bibero.mp3,2020-06-08_15h01.17.047,TranslationElicitation_spa,3.2.4,Win32,60,5ede1560a80d4f02f3e6e997,,1,0,80,6,1,79
,,,,,,,,,,,,,,,,,,,,,,,,,,,,,,,,,,,b,4.113999844,BIB,TRUE,,,,,,,111,bibero,Catalan,Sounds/cat_bibero.mp3,2020-06-08_15h01.17.047,TranslationElicitation_spa,3.2.4,Win32,60,5ede1560a80d4f02f3e6e997,,1,0,80,6,1,79
,,,,,,,,,,,,,,,,,,,,,,,,,,,,,,,,,,,e,4.230999947,BIBE,TRUE,,,,,,,111,bibero,Catalan,Sounds/cat_bibero.mp3,2020-06-08_15h01.17.047,TranslationElicitation_spa,3.2.4,Win32,60,5ede1560a80d4f02f3e6e997,,1,0,80,6,1,79
,,,,,,,,,,,,,,,,,,,,,,,,,,,,,,,,,,,r,4.41899991,BIBER,TRUE,,,,,,,111,bibero,Catalan,Sounds/cat_bibero.mp3,2020-06-08_15h01.17.047,TranslationElicitation_spa,3.2.4,Win32,60,5ede1560a80d4f02f3e6e997,,1,0,80,6,1,79
,,,,,,,,,,,,,,,,,,,,,,,,,,,,,,,,,,,o,4.463999987,BIBERO,TRUE,,,,,,,111,bibero,Catalan,Sounds/cat_bibero.mp3,2020-06-08_15h01.17.047,TranslationElicitation_spa,3.2.4,Win32,60,5ede1560a80d4f02f3e6e997,,1,0,80,6,1,79
,,,,,,,,,,,,,,,,,,,,,,,,,,,,,,,,,,,n,4.546999931,BIBERON,TRUE,,,,,,,111,bibero,Catalan,Sounds/cat_bibero.mp3,2020-06-08_15h01.17.047,TranslationElicitation_spa,3.2.4,Win32,60,5ede1560a80d4f02f3e6e997,,1,0,80,6,1,79
,,,,,,,,,,,,,,,,,,,,,,,,,,,,,,,,,,,return,4.813999891,,TRUE,,,,,,,111,bibero,Catalan,Sounds/cat_bibero.mp3,2020-06-08_15h01.17.047,TranslationElicitation_spa,3.2.4,Win32,60,5ede1560a80d4f02f3e6e997,4.813999891,1,0,80,6,1,79
,,,,,,,,,,,,,,,,,,,,,,,,,,,,,,,,,,,,,,,,,,,,,111,bibero,Catalan,Sounds/cat_bibero.mp3,2020-06-08_15h01.17.047,TranslationElicitation_spa,3.2.4,Win32,60,5ede1560a80d4f02f3e6e997,,1,0,80,6,1,79
,,,,,,,,,,,,,,,,,,,,,,,,,,,,,,,,,,,p,1.394000053,P,FALSE,,,,,,,169,plat,Catalan,Sounds/cat_plat.mp3,2020-06-08_15h01.17.047,TranslationElicitation_spa,3.2.4,Win32,60,5ede1560a80d4f02f3e6e997,,1,0,80,61,1,79
,,,,,,,,,,,,,,,,,,,,,,,,,,,,,,,,,,,l,1.495000124,PL,FALSE,,,,,,,169,plat,Catalan,Sounds/cat_plat.mp3,2020-06-08_15h01.17.047,TranslationElicitation_spa,3.2.4,Win32,60,5ede1560a80d4f02f3e6e997,,1,0,80,61,1,79
,,,,,,,,,,,,,,,,,,,,,,,,,,,,,,,,,,,a,1.745000124,PLA,FALSE,,,,,,,169,plat,Catalan,Sounds/cat_plat.mp3,2020-06-08_15h01.17.047,TranslationElicitation_spa,3.2.4,Win32,60,5ede1560a80d4f02f3e6e997,,1,0,80,61,1,79
,,,,,,,,,,,,,,,,,,,,,,,,,,,,,,,,,,,n,1.828000069,PLAN,FALSE,,,,,,,169,plat,Catalan,Sounds/cat_plat.mp3,2020-06-08_15h01.17.047,TranslationElicitation_spa,3.2.4,Win32,60,5ede1560a80d4f02f3e6e997,,1,0,80,61,1,79
,,,,,,,,,,,,,,,,,,,,,,,,,,,,,,,,,,,return,3.527000189,,FALSE,,,,,,,169,plat,Catalan,Sounds/cat_plat.mp3,2020-06-08_15h01.17.047,TranslationElicitation_spa,3.2.4,Win32,60,5ede1560a80d4f02f3e6e997,3.527000189,1,0,80,61,1,79
,,,,,,,,,,,,,,,,,,,,,,,,,,,,,,,,,,,,,,,,,,,,,169,plat,Catalan,Sounds/cat_plat.mp3,2020-06-08_15h01.17.047,TranslationElicitation_spa,3.2.4,Win32,60,5ede1560a80d4f02f3e6e997,,1,0,80,61,1,79
,,,,,,,,,,,,,,,,,,,,,,,,,,,,,,,,,,,t,1.348999977,T,FALSE,,,,,,,182,tomaquet,Catalan,Sounds/cat_tomaquet.mp3,2020-06-08_15h01.17.047,TranslationElicitation_spa,3.2.4,Win32,60,5ede1560a80d4f02f3e6e997,,1,0,80,73,1,79
,,,,,,,,,,,,,,,,,,,,,,,,,,,,,,,,,,,o,1.499000072,TO,FALSE,,,,,,,182,tomaquet,Catalan,Sounds/cat_tomaquet.mp3,2020-06-08_15h01.17.047,TranslationElicitation_spa,3.2.4,Win32,60,5ede1560a80d4f02f3e6e997,,1,0,80,73,1,79
,,,,,,,,,,,,,,,,,,,,,,,,,,,,,,,,,,,m,1.714999914,TOM,FALSE,,,,,,,182,tomaquet,Catalan,Sounds/cat_tomaquet.mp3,2020-06-08_15h01.17.047,TranslationElicitation_spa,3.2.4,Win32,60,5ede1560a80d4f02f3e6e997,,1,0,80,73,1,79
,,,,,,,,,,,,,,,,,,,,,,,,,,,,,,,,,,,a,1.815000057,TOMA,FALSE,,,,,,,182,tomaquet,Catalan,Sounds/cat_tomaquet.mp3,2020-06-08_15h01.17.047,TranslationElicitation_spa,3.2.4,Win32,60,5ede1560a80d4f02f3e6e997,,1,0,80,73,1,79
,,,,,,,,,,,,,,,,,,,,,,,,,,,,,,,,,,,t,2.11500001,TOMAT,FALSE,,,,,,,182,tomaquet,Catalan,Sounds/cat_tomaquet.mp3,2020-06-08_15h01.17.047,TranslationElicitation_spa,3.2.4,Win32,60,5ede1560a80d4f02f3e6e997,,1,0,80,73,1,79
,,,,,,,,,,,,,,,,,,,,,,,,,,,,,,,,,,,e,2.315000057,TOMATE,FALSE,,,,,,,182,tomaquet,Catalan,Sounds/cat_tomaquet.mp3,2020-06-08_15h01.17.047,TranslationElicitation_spa,3.2.4,Win32,60,5ede1560a80d4f02f3e6e997,,1,0,80,73,1,79
,,,,,,,,,,,,,,,,,,,,,,,,,,,,,,,,,,,return,2.44900012,,FALSE,,,,,,,182,tomaquet,Catalan,Sounds/cat_tomaquet.mp3,2020-06-08_15h01.17.047,TranslationElicitation_spa,3.2.4,Win32,60,5ede1560a80d4f02f3e6e997,2.44900012,1,0,80,73,1,79
,,,,,,,,,,,,,,,,,,,,,,,,,,,,,,,,,,,,,,,,,,,,,182,tomaquet,Catalan,Sounds/cat_tomaquet.mp3,2020-06-08_15h01.17.047,TranslationElicitation_spa,3.2.4,Win32,60,5ede1560a80d4f02f3e6e997,,1,0,80,73,1,79
,,,,,,,,,,,,,,,,,,,,,,,,,,,,,,,,,,,g,1.948999882,G,FALSE,,,,,,,143,globus,Catalan,Sounds/cat_globus.mp3,2020-06-08_15h01.17.047,TranslationElicitation_spa,3.2.4,Win32,60,5ede1560a80d4f02f3e6e997,,1,0,80,38,1,79
,,,,,,,,,,,,,,,,,,,,,,,,,,,,,,,,,,,l,2.097999811,GL,FALSE,,,,,,,143,globus,Catalan,Sounds/cat_globus.mp3,2020-06-08_15h01.17.047,TranslationElicitation_spa,3.2.4,Win32,60,5ede1560a80d4f02f3e6e997,,1,0,80,38,1,79
,,,,,,,,,,,,,,,,,,,,,,,,,,,,,,,,,,,o,2.281999826,GLO,FALSE,,,,,,,143,globus,Catalan,Sounds/cat_globus.mp3,2020-06-08_15h01.17.047,TranslationElicitation_spa,3.2.4,Win32,60,5ede1560a80d4f02f3e6e997,,1,0,80,38,1,79
,,,,,,,,,,,,,,,,,,,,,,,,,,,,,,,,,,,b,2.581999779,GLOB,FALSE,,,,,,,143,globus,Catalan,Sounds/cat_globus.mp3,2020-06-08_15h01.17.047,TranslationElicitation_spa,3.2.4,Win32,60,5ede1560a80d4f02f3e6e997,,1,0,80,38,1,79
,,,,,,,,,,,,,,,,,,,,,,,,,,,,,,,,,,,o,2.649999857,GLOBO,FALSE,,,,,,,143,globus,Catalan,Sounds/cat_globus.mp3,2020-06-08_15h01.17.047,TranslationElicitation_spa,3.2.4,Win32,60,5ede1560a80d4f02f3e6e997,,1,0,80,38,1,79
,,,,,,,,,,,,,,,,,,,,,,,,,,,,,,,,,,,s,2.764999866,GLOBOS,FALSE,,,,,,,143,globus,Catalan,Sounds/cat_globus.mp3,2020-06-08_15h01.17.047,TranslationElicitation_spa,3.2.4,Win32,60,5ede1560a80d4f02f3e6e997,,1,0,80,38,1,79
,,,,,,,,,,,,,,,,,,,,,,,,,,,,,,,,,,,return,2.964999914,,FALSE,,,,,,,143,globus,Catalan,Sounds/cat_globus.mp3,2020-06-08_15h01.17.047,TranslationElicitation_spa,3.2.4,Win32,60,5ede1560a80d4f02f3e6e997,2.964999914,1,0,80,38,1,79
,,,,,,,,,,,,,,,,,,,,,,,,,,,,,,,,,,,,,,,,,,,,,143,globus,Catalan,Sounds/cat_globus.mp3,2020-06-08_15h01.17.047,TranslationElicitation_spa,3.2.4,Win32,60,5ede1560a80d4f02f3e6e997,,1,0,80,38,1,79
,,,,,,,,,,,,,,,,,,,,,,,,,,,,,,,,,,,m,1.59800005,M,FALSE,,,,,,,154,mirall,Catalan,Sounds/cat_mirall.mp3,2020-06-08_15h01.17.047,TranslationElicitation_spa,3.2.4,Win32,60,5ede1560a80d4f02f3e6e997,,1,0,80,48,1,79
,,,,,,,,,,,,,,,,,,,,,,,,,,,,,,,,,,,u,1.84800005,MU,FALSE,,,,,,,154,mirall,Catalan,Sounds/cat_mirall.mp3,2020-06-08_15h01.17.047,TranslationElicitation_spa,3.2.4,Win32,60,5ede1560a80d4f02f3e6e997,,1,0,80,48,1,79
,,,,,,,,,,,,,,,,,,,,,,,,,,,,,,,,,,,r,2.232000113,MUR,FALSE,,,,,,,154,mirall,Catalan,Sounds/cat_mirall.mp3,2020-06-08_15h01.17.047,TranslationElicitation_spa,3.2.4,Win32,60,5ede1560a80d4f02f3e6e997,,1,0,80,48,1,79
,,,,,,,,,,,,,,,,,,,,,,,,,,,,,,,,,,,a,2.515000105,MURA,FALSE,,,,,,,154,mirall,Catalan,Sounds/cat_mirall.mp3,2020-06-08_15h01.17.047,TranslationElicitation_spa,3.2.4,Win32,60,5ede1560a80d4f02f3e6e997,,1,0,80,48,1,79
,,,,,,,,,,,,,,,,,,,,,,,,,,,,,,,,,,,l,2.598999977,MURAL,FALSE,,,,,,,154,mirall,Catalan,Sounds/cat_mirall.mp3,2020-06-08_15h01.17.047,TranslationElicitation_spa,3.2.4,Win32,60,5ede1560a80d4f02f3e6e997,,1,0,80,48,1,79
,,,,,,,,,,,,,,,,,,,,,,,,,,,,,,,,,,,return,2.83100009,,FALSE,,,,,,,154,mirall,Catalan,Sounds/cat_mirall.mp3,2020-06-08_15h01.17.047,TranslationElicitation_spa,3.2.4,Win32,60,5ede1560a80d4f02f3e6e997,2.83100009,1,0,80,48,1,79
,,,,,,,,,,,,,,,,,,,,,,,,,,,,,,,,,,,,,,,,,,,,,154,mirall,Catalan,Sounds/cat_mirall.mp3,2020-06-08_15h01.17.047,TranslationElicitation_spa,3.2.4,Win32,60,5ede1560a80d4f02f3e6e997,,1,0,80,48,1,79
,,,,,,,,,,,,,,,,,,,,,,,,,,,,,,,,,,,p,1.166000128,P,FALSE,,,,,,,163,papallona,Catalan,Sounds/cat_papallona.mp3,2020-06-08_15h01.17.047,TranslationElicitation_spa,3.2.4,Win32,60,5ede1560a80d4f02f3e6e997,,1,0,80,56,1,79
,,,,,,,,,,,,,,,,,,,,,,,,,,,,,,,,,,,a,1.631999969,PA,FALSE,,,,,,,163,papallona,Catalan,Sounds/cat_papallona.mp3,2020-06-08_15h01.17.047,TranslationElicitation_spa,3.2.4,Win32,60,5ede1560a80d4f02f3e6e997,,1,0,80,56,1,79
,,,,,,,,,,,,,,,,,,,,,,,,,,,,,,,,,,,p,1.782000065,PAP,FALSE,,,,,,,163,papallona,Catalan,Sounds/cat_papallona.mp3,2020-06-08_15h01.17.047,TranslationElicitation_spa,3.2.4,Win32,60,5ede1560a80d4f02f3e6e997,,1,0,80,56,1,79
,,,,,,,,,,,,,,,,,,,,,,,,,,,,,,,,,,,a,1.898999929,PAPA,FALSE,,,,,,,163,papallona,Catalan,Sounds/cat_papallona.mp3,2020-06-08_15h01.17.047,TranslationElicitation_spa,3.2.4,Win32,60,5ede1560a80d4f02f3e6e997,,1,0,80,56,1,79
,,,,,,,,,,,,,,,,,,,,,,,,,,,,,,,,,,,y,2.315000057,PAPAY,FALSE,,,,,,,163,papallona,Catalan,Sounds/cat_papallona.mp3,2020-06-08_15h01.17.047,TranslationElicitation_spa,3.2.4,Win32,60,5ede1560a80d4f02f3e6e997,,1,0,80,56,1,79
,,,,,,,,,,,,,,,,,,,,,,,,,,,,,,,,,,,o,2.548000097,PAPAYO,FALSE,,,,,,,163,papallona,Catalan,Sounds/cat_papallona.mp3,2020-06-08_15h01.17.047,TranslationElicitation_spa,3.2.4,Win32,60,5ede1560a80d4f02f3e6e997,,1,0,80,56,1,79
,,,,,,,,,,,,,,,,,,,,,,,,,,,,,,,,,,,n,2.66899991,PAPAYON,FALSE,,,,,,,163,papallona,Catalan,Sounds/cat_papallona.mp3,2020-06-08_15h01.17.047,TranslationElicitation_spa,3.2.4,Win32,60,5ede1560a80d4f02f3e6e997,,1,0,80,56,1,79
,,,,,,,,,,,,,,,,,,,,,,,,,,,,,,,,,,,a,2.782000065,PAPAYONA,FALSE,,,,,,,163,papallona,Catalan,Sounds/cat_papallona.mp3,2020-06-08_15h01.17.047,TranslationElicitation_spa,3.2.4,Win32,60,5ede1560a80d4f02f3e6e997,,1,0,80,56,1,79
,,,,,,,,,,,,,,,,,,,,,,,,,,,,,,,,,,,return,2.931999922,,FALSE,,,,,,,163,papallona,Catalan,Sounds/cat_papallona.mp3,2020-06-08_15h01.17.047,TranslationElicitation_spa,3.2.4,Win32,60,5ede1560a80d4f02f3e6e997,2.931999922,1,0,80,56,1,79
,,,,,,,,,,,,,,,,,,,,,,,,,,,,,,,,,,,,,,,,,,,,,163,papallona,Catalan,Sounds/cat_papallona.mp3,2020-06-08_15h01.17.047,TranslationElicitation_spa,3.2.4,Win32,60,5ede1560a80d4f02f3e6e997,,1,0,80,56,1,79
,,,,,,,,,,,,,,,,,,,,,,,,,,,,,,,,,,,f,1.730999947,F,FALSE,,,,,,,137,fulla,Catalan,Sounds/cat_fulla.mp3,2020-06-08_15h01.17.047,TranslationElicitation_spa,3.2.4,Win32,60,5ede1560a80d4f02f3e6e997,,1,0,80,32,1,79
,,,,,,,,,,,,,,,,,,,,,,,,,,,,,,,,,,,backspace,2.131999969,,TRUE,,,,,,,137,fulla,Catalan,Sounds/cat_fulla.mp3,2020-06-08_15h01.17.047,TranslationElicitation_spa,3.2.4,Win32,60,5ede1560a80d4f02f3e6e997,,1,0,80,32,1,79
,,,,,,,,,,,,,,,,,,,,,,,,,,,,,,,,,,,b,2.398999929,B,TRUE,,,,,,,137,fulla,Catalan,Sounds/cat_fulla.mp3,2020-06-08_15h01.17.047,TranslationElicitation_spa,3.2.4,Win32,60,5ede1560a80d4f02f3e6e997,,1,0,80,32,1,79
,,,,,,,,,,,,,,,,,,,,,,,,,,,,,,,,,,,u,2.514999866,BU,TRUE,,,,,,,137,fulla,Catalan,Sounds/cat_fulla.mp3,2020-06-08_15h01.17.047,TranslationElicitation_spa,3.2.4,Win32,60,5ede1560a80d4f02f3e6e997,,1,0,80,32,1,79
,,,,,,,,,,,,,,,,,,,,,,,,,,,,,,,,,,,l,2.750999928,BUL,TRUE,,,,,,,137,fulla,Catalan,Sounds/cat_fulla.mp3,2020-06-08_15h01.17.047,TranslationElicitation_spa,3.2.4,Win32,60,5ede1560a80d4f02f3e6e997,,1,0,80,32,1,79
,,,,,,,,,,,,,,,,,,,,,,,,,,,,,,,,,,,l,2.898000002,BULL,TRUE,,,,,,,137,fulla,Catalan,Sounds/cat_fulla.mp3,2020-06-08_15h01.17.047,TranslationElicitation_spa,3.2.4,Win32,60,5ede1560a80d4f02f3e6e997,,1,0,80,32,1,79
,,,,,,,,,,,,,,,,,,,,,,,,,,,,,,,,,,,a,2.963999987,BULLA,TRUE,,,,,,,137,fulla,Catalan,Sounds/cat_fulla.mp3,2020-06-08_15h01.17.047,TranslationElicitation_spa,3.2.4,Win32,60,5ede1560a80d4f02f3e6e997,,1,0,80,32,1,79
,,,,,,,,,,,,,,,,,,,,,,,,,,,,,,,,,,,return,3.131000042,,TRUE,,,,,,,137,fulla,Catalan,Sounds/cat_fulla.mp3,2020-06-08_15h01.17.047,TranslationElicitation_spa,3.2.4,Win32,60,5ede1560a80d4f02f3e6e997,3.131000042,1,0,80,32,1,79
,,,,,,,,,,,,,,,,,,,,,,,,,,,,,,,,,,,,,,,,,,,,,137,fulla,Catalan,Sounds/cat_fulla.mp3,2020-06-08_15h01.17.047,TranslationElicitation_spa,3.2.4,Win32,60,5ede1560a80d4f02f3e6e997,,1,0,80,32,1,79
,,,,,,,,,,,,,,,,,,,,,,,,,,,,,,,,,,,a,1.049000025,A,FALSE,,,,,,,108,ampolla,Catalan,Sounds/cat_ampolla.mp3,2020-06-08_15h01.17.047,TranslationElicitation_spa,3.2.4,Win32,60,5ede1560a80d4f02f3e6e997,,1,0,80,4,1,79
,,,,,,,,,,,,,,,,,,,,,,,,,,,,,,,,,,,m,1.214999914,AM,FALSE,,,,,,,108,ampolla,Catalan,Sounds/cat_ampolla.mp3,2020-06-08_15h01.17.047,TranslationElicitation_spa,3.2.4,Win32,60,5ede1560a80d4f02f3e6e997,,1,0,80,4,1,79
,,,,,,,,,,,,,,,,,,,,,,,,,,,,,,,,,,,p,1.36500001,AMP,FALSE,,,,,,,108,ampolla,Catalan,Sounds/cat_ampolla.mp3,2020-06-08_15h01.17.047,TranslationElicitation_spa,3.2.4,Win32,60,5ede1560a80d4f02f3e6e997,,1,0,80,4,1,79
,,,,,,,,,,,,,,,,,,,,,,,,,,,,,,,,,,,o,1.414999962,AMPO,FALSE,,,,,,,108,ampolla,Catalan,Sounds/cat_ampolla.mp3,2020-06-08_15h01.17.047,TranslationElicitation_spa,3.2.4,Win32,60,5ede1560a80d4f02f3e6e997,,1,0,80,4,1,79
,,,,,,,,,,,,,,,,,,,,,,,,,,,,,,,,,,,y,1.931999922,AMPOY,FALSE,,,,,,,108,ampolla,Catalan,Sounds/cat_ampolla.mp3,2020-06-08_15h01.17.047,TranslationElicitation_spa,3.2.4,Win32,60,5ede1560a80d4f02f3e6e997,,1,0,80,4,1,79
,,,,,,,,,,,,,,,,,,,,,,,,,,,,,,,,,,,a,2.264999866,AMPOYA,FALSE,,,,,,,108,ampolla,Catalan,Sounds/cat_ampolla.mp3,2020-06-08_15h01.17.047,TranslationElicitation_spa,3.2.4,Win32,60,5ede1560a80d4f02f3e6e997,,1,0,80,4,1,79
,,,,,,,,,,,,,,,,,,,,,,,,,,,,,,,,,,,backspace,2.797999859,AMPO,TRUE,,,,,,,108,ampolla,Catalan,Sounds/cat_ampolla.mp3,2020-06-08_15h01.17.047,TranslationElicitation_spa,3.2.4,Win32,60,5ede1560a80d4f02f3e6e997,,1,0,80,4,1,79
,,,,,,,,,,,,,,,,,,,,,,,,,,,,,,,,,,,backspace,2.947999954,AM,TRUE,,,,,,,108,ampolla,Catalan,Sounds/cat_ampolla.mp3,2020-06-08_15h01.17.047,TranslationElicitation_spa,3.2.4,Win32,60,5ede1560a80d4f02f3e6e997,,1,0,80,4,1,79
,,,,,,,,,,,,,,,,,,,,,,,,,,,,,,,,,,,p,4.398000002,AMP,TRUE,,,,,,,108,ampolla,Catalan,Sounds/cat_ampolla.mp3,2020-06-08_15h01.17.047,TranslationElicitation_spa,3.2.4,Win32,60,5ede1560a80d4f02f3e6e997,,1,0,80,4,1,79
,,,,,,,,,,,,,,,,,,,,,,,,,,,,,,,,,,,o,4.448999882,AMPO,TRUE,,,,,,,108,ampolla,Catalan,Sounds/cat_ampolla.mp3,2020-06-08_15h01.17.047,TranslationElicitation_spa,3.2.4,Win32,60,5ede1560a80d4f02f3e6e997,,1,0,80,4,1,79
,,,,,,,,,,,,,,,,,,,,,,,,,,,,,,,,,,,y,4.631000042,AMPOY,TRUE,,,,,,,108,ampolla,Catalan,Sounds/cat_ampolla.mp3,2020-06-08_15h01.17.047,TranslationElicitation_spa,3.2.4,Win32,60,5ede1560a80d4f02f3e6e997,,1,0,80,4,1,79
,,,,,,,,,,,,,,,,,,,,,,,,,,,,,,,,,,,a,4.914999962,AMPOYA,TRUE,,,,,,,108,ampolla,Catalan,Sounds/cat_ampolla.mp3,2020-06-08_15h01.17.047,TranslationElicitation_spa,3.2.4,Win32,60,5ede1560a80d4f02f3e6e997,,1,0,80,4,1,79
,,,,,,,,,,,,,,,,,,,,,,,,,,,,,,,,,,,return,5.131000042,,TRUE,,,,,,,108,ampolla,Catalan,Sounds/cat_ampolla.mp3,2020-06-08_15h01.17.047,TranslationElicitation_spa,3.2.4,Win32,60,5ede1560a80d4f02f3e6e997,5.131000042,1,0,80,4,1,79
,,,,,,,,,,,,,,,,,,,,,,,,,,,,,,,,,,,,,,,,,,,,,108,ampolla,Catalan,Sounds/cat_ampolla.mp3,2020-06-08_15h01.17.047,TranslationElicitation_spa,3.2.4,Win32,60,5ede1560a80d4f02f3e6e997,,1,0,80,4,1,79
,,,,,,,,,,,,,,,,,,,,,,,,,,,,,,,,,,,l,1.861999989,L,FALSE,,,,,,,150,lloro,Catalan,Sounds/cat_lloro.mp3,2020-06-08_15h01.17.047,TranslationElicitation_spa,3.2.4,Win32,60,5ede1560a80d4f02f3e6e997,,1,0,80,44,1,79
,,,,,,,,,,,,,,,,,,,,,,,,,,,,,,,,,,,o,2.012000084,LO,FALSE,,,,,,,150,lloro,Catalan,Sounds/cat_lloro.mp3,2020-06-08_15h01.17.047,TranslationElicitation_spa,3.2.4,Win32,60,5ede1560a80d4f02f3e6e997,,1,0,80,44,1,79
,,,,,,,,,,,,,,,,,,,,,,,,,,,,,,,,,,,r,2.095000029,LOR,FALSE,,,,,,,150,lloro,Catalan,Sounds/cat_lloro.mp3,2020-06-08_15h01.17.047,TranslationElicitation_spa,3.2.4,Win32,60,5ede1560a80d4f02f3e6e997,,1,0,80,44,1,79
,,,,,,,,,,,,,,,,,,,,,,,,,,,,,,,,,,,o,2.178999901,LORO,FALSE,,,,,,,150,lloro,Catalan,Sounds/cat_lloro.mp3,2020-06-08_15h01.17.047,TranslationElicitation_spa,3.2.4,Win32,60,5ede1560a80d4f02f3e6e997,,1,0,80,44,1,79
,,,,,,,,,,,,,,,,,,,,,,,,,,,,,,,,,,,return,2.394999981,,FALSE,,,,,,,150,lloro,Catalan,Sounds/cat_lloro.mp3,2020-06-08_15h01.17.047,TranslationElicitation_spa,3.2.4,Win32,60,5ede1560a80d4f02f3e6e997,2.394999981,1,0,80,44,1,79
,,,,,,,,,,,,,,,,,,,,,,,,,,,,,,,,,,,,,,,,,,,,,150,lloro,Catalan,Sounds/cat_lloro.mp3,2020-06-08_15h01.17.047,TranslationElicitation_spa,3.2.4,Win32,60,5ede1560a80d4f02f3e6e997,,1,0,80,44,1,79
,,,,,,,,,,,,,,,,,,,,,,,,,,,,,,,,,,,m,1.130999804,M,FALSE,,,,,,,155,moneda,Catalan,Sounds/cat_moneda.mp3,2020-06-08_15h01.17.047,TranslationElicitation_spa,3.2.4,Win32,60,5ede1560a80d4f02f3e6e997,,1,0,80,49,1,79
,,,,,,,,,,,,,,,,,,,,,,,,,,,,,,,,,,,o,1.230999947,MO,FALSE,,,,,,,155,moneda,Catalan,Sounds/cat_moneda.mp3,2020-06-08_15h01.17.047,TranslationElicitation_spa,3.2.4,Win32,60,5ede1560a80d4f02f3e6e997,,1,0,80,49,1,79
,,,,,,,,,,,,,,,,,,,,,,,,,,,,,,,,,,,n,1.363999844,MON,FALSE,,,,,,,155,moneda,Catalan,Sounds/cat_moneda.mp3,2020-06-08_15h01.17.047,TranslationElicitation_spa,3.2.4,Win32,60,5ede1560a80d4f02f3e6e997,,1,0,80,49,1,79
,,,,,,,,,,,,,,,,,,,,,,,,,,,,,,,,,,,e,1.430999994,MONE,FALSE,,,,,,,155,moneda,Catalan,Sounds/cat_moneda.mp3,2020-06-08_15h01.17.047,TranslationElicitation_spa,3.2.4,Win32,60,5ede1560a80d4f02f3e6e997,,1,0,80,49,1,79
,,,,,,,,,,,,,,,,,,,,,,,,,,,,,,,,,,,d,1.563999891,MONED,FALSE,,,,,,,155,moneda,Catalan,Sounds/cat_moneda.mp3,2020-06-08_15h01.17.047,TranslationElicitation_spa,3.2.4,Win32,60,5ede1560a80d4f02f3e6e997,,1,0,80,49,1,79
,,,,,,,,,,,,,,,,,,,,,,,,,,,,,,,,,,,a,1.746999979,MONEDA,FALSE,,,,,,,155,moneda,Catalan,Sounds/cat_moneda.mp3,2020-06-08_15h01.17.047,TranslationElicitation_spa,3.2.4,Win32,60,5ede1560a80d4f02f3e6e997,,1,0,80,49,1,79
,,,,,,,,,,,,,,,,,,,,,,,,,,,,,,,,,,,return,1.863999844,,FALSE,,,,,,,155,moneda,Catalan,Sounds/cat_moneda.mp3,2020-06-08_15h01.17.047,TranslationElicitation_spa,3.2.4,Win32,60,5ede1560a80d4f02f3e6e997,1.863999844,1,0,80,49,1,79
,,,,,,,,,,,,,,,,,,,,,,,,,,,,,,,,,,,,,,,,,,,,,155,moneda,Catalan,Sounds/cat_moneda.mp3,2020-06-08_15h01.17.047,TranslationElicitation_spa,3.2.4,Win32,60,5ede1560a80d4f02f3e6e997,,1,0,80,49,1,79
,,,,,,,,,,,,,,,,,,,,,,,,,,,,,,,,,,,p,1.548999786,P,FALSE,,,,,,,166,peu,Catalan,Sounds/cat_peu.mp3,2020-06-08_15h01.17.047,TranslationElicitation_spa,3.2.4,Win32,60,5ede1560a80d4f02f3e6e997,,1,0,80,59,1,79
,,,,,,,,,,,,,,,,,,,,,,,,,,,,,,,,,,,e,1.648999929,PE,FALSE,,,,,,,166,peu,Catalan,Sounds/cat_peu.mp3,2020-06-08_15h01.17.047,TranslationElicitation_spa,3.2.4,Win32,60,5ede1560a80d4f02f3e6e997,,1,0,80,59,1,79
,,,,,,,,,,,,,,,,,,,,,,,,,,,,,,,,,,,d,1.815999985,PED,FALSE,,,,,,,166,peu,Catalan,Sounds/cat_peu.mp3,2020-06-08_15h01.17.047,TranslationElicitation_spa,3.2.4,Win32,60,5ede1560a80d4f02f3e6e997,,1,0,80,59,1,79
,,,,,,,,,,,,,,,,,,,,,,,,,,,,,,,,,,,o,1.898999929,PEDO,FALSE,,,,,,,166,peu,Catalan,Sounds/cat_peu.mp3,2020-06-08_15h01.17.047,TranslationElicitation_spa,3.2.4,Win32,60,5ede1560a80d4f02f3e6e997,,1,0,80,59,1,79
