consentKey.keys,consentKey.rt,languageL1Key.keys,languageL1Key.rt,languageL2,languageL2OralKey.keys,languageL2OralKey.rt,languageL2WrittenKey.keys,languageL2WrittenKey.rt,languageL3OralKey.keys,languageL3OralKey.rt,languageL3WrittenKey.keys,languageL3WrittenKey.rt,languageCatalanOralKey.keys,languageCatalanOralKey.rt,languageCatalanWrittenKey.keys,languageCatalanWrittenKey.rt,languageCatalanTimeKey.keys,languageCatalanTimeKey.rt,languageSpanishOralKey.keys,languageSpanishOralKey.rt,languageSpanishWrittenKey.keys,languageSpanishWrittenKey.rt,languageSpanishTimeKey.keys,languageSpanishTimeKey.rt,age,demoSexKey.keys,demoSexKey.rt,demoEducationKey.keys,demoEducationKey.rt,city,demoVisionKey.keys,demoVisionKey.rt,demoLanguageKey.keys,demoLanguageKey.rt,setupLocationKey.keys,setupLocationKey.rt,setupNoiseKey.keys,setupNoiseKey.rt,instructionsKeys.keys,instructionsKeys.rt,keyPressed,keyPressTime,inputText,error,trialsPracticeSpanish.thisRepN,trialsPracticeSpanish.thisTrialN,trialsPracticeSpanish.thisN,trialsPracticeSpanish.thisIndex,trialsPracticeSpanish.ran,trialsPracticeSpanish.order,trial_id,word,test_language,soundfile,date,expName,psychopyVersion,OS,frameRate,participant,trialOffset,trialsSpanish.thisRepN,trialsSpanish.thisTrialN,trialsSpanish.thisN,trialsSpanish.thisIndex,trialsSpanish.ran,trialsSpanish.order
space,7.431999922,e,5.539000034,,,,,,,,,,1,6.274999857,1,5.601000071,1,8.578000069,2,8.109999895,1,2.286999941,1,1.853999853,20,f,1.638999939,3,5.222999811,OXFORD,y,2.764999866,n,2.717000008,1,2.99000001,1,5.43599987,space,22.42199993,j,2.598999977,J,FALSE,1,0,5,2,1,4,26,chaqueta,Spanish,Sounds/spa_chaqueta.mp3,2020-06-25_09h14.41.368,TranslationElicitation_eng-prolific-spa,3.2.4,Win32,60,5ee0c7ff8480ea0636fe856e,,,,,,,
,,,,,,,,,,,,,,,,,,,,,,,,,,,,,,,,,,,,,,,,,a,2.999000072,JA,FALSE,1,0,5,2,1,4,26,chaqueta,Spanish,Sounds/spa_chaqueta.mp3,2020-06-25_09h14.41.368,TranslationElicitation_eng-prolific-spa,3.2.4,Win32,60,5ee0c7ff8480ea0636fe856e,,,,,,,
,,,,,,,,,,,,,,,,,,,,,,,,,,,,,,,,,,,,,,,,,c,3.332000017,JAC,FALSE,1,0,5,2,1,4,26,chaqueta,Spanish,Sounds/spa_chaqueta.mp3,2020-06-25_09h14.41.368,TranslationElicitation_eng-prolific-spa,3.2.4,Win32,60,5ee0c7ff8480ea0636fe856e,,,,,,,
,,,,,,,,,,,,,,,,,,,,,,,,,,,,,,,,,,,,,,,,,k,3.549000025,JACK,FALSE,1,0,5,2,1,4,26,chaqueta,Spanish,Sounds/spa_chaqueta.mp3,2020-06-25_09h14.41.368,TranslationElicitation_eng-prolific-spa,3.2.4,Win32,60,5ee0c7ff8480ea0636fe856e,,,,,,,
,,,,,,,,,,,,,,,,,,,,,,,,,,,,,,,,,,,,,,,,,e,3.681999922,JACKE,FALSE,1,0,5,2,1,4,26,chaqueta,Spanish,Sounds/spa_chaqueta.mp3,2020-06-25_09h14.41.368,TranslationElicitation_eng-prolific-spa,3.2.4,Win32,60,5ee0c7ff8480ea0636fe856e,,,,,,,
,,,,,,,,,,,,,,,,,,,,,,,,,,,,,,,,,,,,,,,,,t,4.065999985,JACKET,FALSE,1,0,5,2,1,4,26,chaqueta,Spanish,Sounds/spa_chaqueta.mp3,2020-06-25_09h14.41.368,TranslationElicitation_eng-prolific-spa,3.2.4,Win32,60,5ee0c7ff8480ea0636fe856e,,,,,,,
,,,,,,,,,,,,,,,,,,,,,,,,,,,,,,,,,,,,,,,,,return,6.36500001,JACKET,FALSE,1,0,5,2,1,4,26,chaqueta,Spanish,Sounds/spa_chaqueta.mp3,2020-06-25_09h14.41.368,TranslationElicitation_eng-prolific-spa,3.2.4,Win32,60,5ee0c7ff8480ea0636fe856e,6.36500001,,,,,,
,,,,,,,,,,,,,,,,,,,,,,,,,,,,,,,,,,,,,,,,,,,,,1,0,5,2,1,4,26,chaqueta,Spanish,Sounds/spa_chaqueta.mp3,2020-06-25_09h14.41.368,TranslationElicitation_eng-prolific-spa,3.2.4,Win32,60,5ee0c7ff8480ea0636fe856e,,,,,,,
,,,,,,,,,,,,,,,,,,,,,,,,,,,,,,,,,,,,,,,,,h,5.730999947,H,FALSE,1,0,5,0,1,4,1,arbol,Spanish,Sounds/spa_arbol.mp3,2020-06-25_09h14.41.368,TranslationElicitation_eng-prolific-spa,3.2.4,Win32,60,5ee0c7ff8480ea0636fe856e,,,,,,,
,,,,,,,,,,,,,,,,,,,,,,,,,,,,,,,,,,,,,,,,,a,5.881000042,HA,FALSE,1,0,5,0,1,4,1,arbol,Spanish,Sounds/spa_arbol.mp3,2020-06-25_09h14.41.368,TranslationElicitation_eng-prolific-spa,3.2.4,Win32,60,5ee0c7ff8480ea0636fe856e,,,,,,,
,,,,,,,,,,,,,,,,,,,,,,,,,,,,,,,,,,,,,,,,,i,6.08100009,HAI,FALSE,1,0,5,0,1,4,1,arbol,Spanish,Sounds/spa_arbol.mp3,2020-06-25_09h14.41.368,TranslationElicitation_eng-prolific-spa,3.2.4,Win32,60,5ee0c7ff8480ea0636fe856e,,,,,,,
,,,,,,,,,,,,,,,,,,,,,,,,,,,,,,,,,,,,,,,,,r,6.498000145,HAIR,FALSE,1,0,5,0,1,4,1,arbol,Spanish,Sounds/spa_arbol.mp3,2020-06-25_09h14.41.368,TranslationElicitation_eng-prolific-spa,3.2.4,Win32,60,5ee0c7ff8480ea0636fe856e,,,,,,,
,,,,,,,,,,,,,,,,,,,,,,,,,,,,,,,,,,,,,,,,,backspace,7.414000034,HAI,TRUE,1,0,5,0,1,4,1,arbol,Spanish,Sounds/spa_arbol.mp3,2020-06-25_09h14.41.368,TranslationElicitation_eng-prolific-spa,3.2.4,Win32,60,5ee0c7ff8480ea0636fe856e,,,,,,,
,,,,,,,,,,,,,,,,,,,,,,,,,,,,,,,,,,,,,,,,,backspace,7.897000074,HA,TRUE,1,0,5,0,1,4,1,arbol,Spanish,Sounds/spa_arbol.mp3,2020-06-25_09h14.41.368,TranslationElicitation_eng-prolific-spa,3.2.4,Win32,60,5ee0c7ff8480ea0636fe856e,,,,,,,
,,,,,,,,,,,,,,,,,,,,,,,,,,,,,,,,,,,,,,,,,backspace,8.213999987,H,TRUE,1,0,5,0,1,4,1,arbol,Spanish,Sounds/spa_arbol.mp3,2020-06-25_09h14.41.368,TranslationElicitation_eng-prolific-spa,3.2.4,Win32,60,5ee0c7ff8480ea0636fe856e,,,,,,,
,,,,,,,,,,,,,,,,,,,,,,,,,,,,,,,,,,,,,,,,,backspace,8.496999979,,TRUE,1,0,5,0,1,4,1,arbol,Spanish,Sounds/spa_arbol.mp3,2020-06-25_09h14.41.368,TranslationElicitation_eng-prolific-spa,3.2.4,Win32,60,5ee0c7ff8480ea0636fe856e,,,,,,,
,,,,,,,,,,,,,,,,,,,,,,,,,,,,,,,,,,,,,,,,,f,9.397000074,F,TRUE,1,0,5,0,1,4,1,arbol,Spanish,Sounds/spa_arbol.mp3,2020-06-25_09h14.41.368,TranslationElicitation_eng-prolific-spa,3.2.4,Win32,60,5ee0c7ff8480ea0636fe856e,,,,,,,
,,,,,,,,,,,,,,,,,,,,,,,,,,,,,,,,,,,,,,,,,o,9.56400013,FO,TRUE,1,0,5,0,1,4,1,arbol,Spanish,Sounds/spa_arbol.mp3,2020-06-25_09h14.41.368,TranslationElicitation_eng-prolific-spa,3.2.4,Win32,60,5ee0c7ff8480ea0636fe856e,,,,,,,
,,,,,,,,,,,,,,,,,,,,,,,,,,,,,,,,,,,,,,,,,o,9.746999979,FOO,TRUE,1,0,5,0,1,4,1,arbol,Spanish,Sounds/spa_arbol.mp3,2020-06-25_09h14.41.368,TranslationElicitation_eng-prolific-spa,3.2.4,Win32,60,5ee0c7ff8480ea0636fe856e,,,,,,,
,,,,,,,,,,,,,,,,,,,,,,,,,,,,,,,,,,,,,,,,,t,9.847000122,FOOT,TRUE,1,0,5,0,1,4,1,arbol,Spanish,Sounds/spa_arbol.mp3,2020-06-25_09h14.41.368,TranslationElicitation_eng-prolific-spa,3.2.4,Win32,60,5ee0c7ff8480ea0636fe856e,,,,,,,
,,,,,,,,,,,,,,,,,,,,,,,,,,,,,,,,,,,,,,,,,b,10.06400013,FOOTB,TRUE,1,0,5,0,1,4,1,arbol,Spanish,Sounds/spa_arbol.mp3,2020-06-25_09h14.41.368,TranslationElicitation_eng-prolific-spa,3.2.4,Win32,60,5ee0c7ff8480ea0636fe856e,,,,,,,
,,,,,,,,,,,,,,,,,,,,,,,,,,,,,,,,,,,,,,,,,a,10.24699998,FOOTBA,TRUE,1,0,5,0,1,4,1,arbol,Spanish,Sounds/spa_arbol.mp3,2020-06-25_09h14.41.368,TranslationElicitation_eng-prolific-spa,3.2.4,Win32,60,5ee0c7ff8480ea0636fe856e,,,,,,,
,,,,,,,,,,,,,,,,,,,,,,,,,,,,,,,,,,,,,,,,,l,10.38000011,FOOTBAL,TRUE,1,0,5,0,1,4,1,arbol,Spanish,Sounds/spa_arbol.mp3,2020-06-25_09h14.41.368,TranslationElicitation_eng-prolific-spa,3.2.4,Win32,60,5ee0c7ff8480ea0636fe856e,,,,,,,
,,,,,,,,,,,,,,,,,,,,,,,,,,,,,,,,,,,,,,,,,l,10.54699993,FOOTBALL,TRUE,1,0,5,0,1,4,1,arbol,Spanish,Sounds/spa_arbol.mp3,2020-06-25_09h14.41.368,TranslationElicitation_eng-prolific-spa,3.2.4,Win32,60,5ee0c7ff8480ea0636fe856e,,,,,,,
,,,,,,,,,,,,,,,,,,,,,,,,,,,,,,,,,,,,,,,,,return,11.29699993,FOOTBALL,TRUE,1,0,5,0,1,4,1,arbol,Spanish,Sounds/spa_arbol.mp3,2020-06-25_09h14.41.368,TranslationElicitation_eng-prolific-spa,3.2.4,Win32,60,5ee0c7ff8480ea0636fe856e,11.29699993,,,,,,
,,,,,,,,,,,,,,,,,,,,,,,,,,,,,,,,,,,,,,,,,,,,,1,0,5,0,1,4,1,arbol,Spanish,Sounds/spa_arbol.mp3,2020-06-25_09h14.41.368,TranslationElicitation_eng-prolific-spa,3.2.4,Win32,60,5ee0c7ff8480ea0636fe856e,,,,,,,
,,,,,,,,,,,,,,,,,,,,,,,,,,,,,,,,,,,,,,,,,h,1.633000135,H,FALSE,1,0,5,3,1,4,70,ola,Spanish,Sounds/spa_ola.mp3,2020-06-25_09h14.41.368,TranslationElicitation_eng-prolific-spa,3.2.4,Win32,60,5ee0c7ff8480ea0636fe856e,,,,,,,
,,,,,,,,,,,,,,,,,,,,,,,,,,,,,,,,,,,,,,,,,e,1.883000135,HE,FALSE,1,0,5,3,1,4,70,ola,Spanish,Sounds/spa_ola.mp3,2020-06-25_09h14.41.368,TranslationElicitation_eng-prolific-spa,3.2.4,Win32,60,5ee0c7ff8480ea0636fe856e,,,,,,,
,,,,,,,,,,,,,,,,,,,,,,,,,,,,,,,,,,,,,,,,,l,2.049000025,HEL,FALSE,1,0,5,3,1,4,70,ola,Spanish,Sounds/spa_ola.mp3,2020-06-25_09h14.41.368,TranslationElicitation_eng-prolific-spa,3.2.4,Win32,60,5ee0c7ff8480ea0636fe856e,,,,,,,
,,,,,,,,,,,,,,,,,,,,,,,,,,,,,,,,,,,,,,,,,l,2.21600008,HELL,FALSE,1,0,5,3,1,4,70,ola,Spanish,Sounds/spa_ola.mp3,2020-06-25_09h14.41.368,TranslationElicitation_eng-prolific-spa,3.2.4,Win32,60,5ee0c7ff8480ea0636fe856e,,,,,,,
,,,,,,,,,,,,,,,,,,,,,,,,,,,,,,,,,,,,,,,,,o,2.416000128,HELLO,FALSE,1,0,5,3,1,4,70,ola,Spanish,Sounds/spa_ola.mp3,2020-06-25_09h14.41.368,TranslationElicitation_eng-prolific-spa,3.2.4,Win32,60,5ee0c7ff8480ea0636fe856e,,,,,,,
,,,,,,,,,,,,,,,,,,,,,,,,,,,,,,,,,,,,,,,,,return,3.015000105,HELLO,FALSE,1,0,5,3,1,4,70,ola,Spanish,Sounds/spa_ola.mp3,2020-06-25_09h14.41.368,TranslationElicitation_eng-prolific-spa,3.2.4,Win32,60,5ee0c7ff8480ea0636fe856e,3.015000105,,,,,,
,,,,,,,,,,,,,,,,,,,,,,,,,,,,,,,,,,,,,,,,,,,,,1,0,5,3,1,4,70,ola,Spanish,Sounds/spa_ola.mp3,2020-06-25_09h14.41.368,TranslationElicitation_eng-prolific-spa,3.2.4,Win32,60,5ee0c7ff8480ea0636fe856e,,,,,,,
,,,,,,,,,,,,,,,,,,,,,,,,,,,,,,,,,,,,,,,,,c,3.482000113,C,FALSE,1,0,5,1,1,4,30,corona,Spanish,Sounds/spa_corona.mp3,2020-06-25_09h14.41.368,TranslationElicitation_eng-prolific-spa,3.2.4,Win32,60,5ee0c7ff8480ea0636fe856e,,,,,,,
,,,,,,,,,,,,,,,,,,,,,,,,,,,,,,,,,,,,,,,,,o,4.164999962,CO,FALSE,1,0,5,1,1,4,30,corona,Spanish,Sounds/spa_corona.mp3,2020-06-25_09h14.41.368,TranslationElicitation_eng-prolific-spa,3.2.4,Win32,60,5ee0c7ff8480ea0636fe856e,,,,,,,
,,,,,,,,,,,,,,,,,,,,,,,,,,,,,,,,,,,,,,,,,r,4.448000193,COR,FALSE,1,0,5,1,1,4,30,corona,Spanish,Sounds/spa_corona.mp3,2020-06-25_09h14.41.368,TranslationElicitation_eng-prolific-spa,3.2.4,Win32,60,5ee0c7ff8480ea0636fe856e,,,,,,,
,,,,,,,,,,,,,,,,,,,,,,,,,,,,,,,,,,,,,,,,,o,4.749000072,CORO,FALSE,1,0,5,1,1,4,30,corona,Spanish,Sounds/spa_corona.mp3,2020-06-25_09h14.41.368,TranslationElicitation_eng-prolific-spa,3.2.4,Win32,60,5ee0c7ff8480ea0636fe856e,,,,,,,
,,,,,,,,,,,,,,,,,,,,,,,,,,,,,,,,,,,,,,,,,n,5.565000057,CORON,FALSE,1,0,5,1,1,4,30,corona,Spanish,Sounds/spa_corona.mp3,2020-06-25_09h14.41.368,TranslationElicitation_eng-prolific-spa,3.2.4,Win32,60,5ee0c7ff8480ea0636fe856e,,,,,,,
,,,,,,,,,,,,,,,,,,,,,,,,,,,,,,,,,,,,,,,,,a,5.782000065,CORONA,FALSE,1,0,5,1,1,4,30,corona,Spanish,Sounds/spa_corona.mp3,2020-06-25_09h14.41.368,TranslationElicitation_eng-prolific-spa,3.2.4,Win32,60,5ee0c7ff8480ea0636fe856e,,,,,,,
,,,,,,,,,,,,,,,,,,,,,,,,,,,,,,,,,,,,,,,,,return,6.465000153,CORONA,FALSE,1,0,5,1,1,4,30,corona,Spanish,Sounds/spa_corona.mp3,2020-06-25_09h14.41.368,TranslationElicitation_eng-prolific-spa,3.2.4,Win32,60,5ee0c7ff8480ea0636fe856e,6.465000153,,,,,,
,,,,,,,,,,,,,,,,,,,,,,,,,,,,,,,,,,,,,,,,,,,,,1,0,5,1,1,4,30,corona,Spanish,Sounds/spa_corona.mp3,2020-06-25_09h14.41.368,TranslationElicitation_eng-prolific-spa,3.2.4,Win32,60,5ee0c7ff8480ea0636fe856e,,,,,,,
,,,,,,,,,,,,,,,,,,,,,,,,,,,,,,,,,,,,,,,,,t,3.781999826,T,FALSE,1,0,5,4,1,4,96,tigre,Spanish,Sounds/spa_tigre.mp3,2020-06-25_09h14.41.368,TranslationElicitation_eng-prolific-spa,3.2.4,Win32,60,5ee0c7ff8480ea0636fe856e,,,,,,,
,,,,,,,,,,,,,,,,,,,,,,,,,,,,,,,,,,,,,,,,,i,3.981999874,TI,FALSE,1,0,5,4,1,4,96,tigre,Spanish,Sounds/spa_tigre.mp3,2020-06-25_09h14.41.368,TranslationElicitation_eng-prolific-spa,3.2.4,Win32,60,5ee0c7ff8480ea0636fe856e,,,,,,,
,,,,,,,,,,,,,,,,,,,,,,,,,,,,,,,,,,,,,,,,,g,4.281999826,TIG,FALSE,1,0,5,4,1,4,96,tigre,Spanish,Sounds/spa_tigre.mp3,2020-06-25_09h14.41.368,TranslationElicitation_eng-prolific-spa,3.2.4,Win32,60,5ee0c7ff8480ea0636fe856e,,,,,,,
,,,,,,,,,,,,,,,,,,,,,,,,,,,,,,,,,,,,,,,,,e,4.464999914,TIGE,FALSE,1,0,5,4,1,4,96,tigre,Spanish,Sounds/spa_tigre.mp3,2020-06-25_09h14.41.368,TranslationElicitation_eng-prolific-spa,3.2.4,Win32,60,5ee0c7ff8480ea0636fe856e,,,,,,,
,,,,,,,,,,,,,,,,,,,,,,,,,,,,,,,,,,,,,,,,,r,4.698999882,TIGER,FALSE,1,0,5,4,1,4,96,tigre,Spanish,Sounds/spa_tigre.mp3,2020-06-25_09h14.41.368,TranslationElicitation_eng-prolific-spa,3.2.4,Win32,60,5ee0c7ff8480ea0636fe856e,,,,,,,
,,,,,,,,,,,,,,,,,,,,,,,,,,,,,,,,,,,,,,,,,return,5.332000017,TIGER,FALSE,1,0,5,4,1,4,96,tigre,Spanish,Sounds/spa_tigre.mp3,2020-06-25_09h14.41.368,TranslationElicitation_eng-prolific-spa,3.2.4,Win32,60,5ee0c7ff8480ea0636fe856e,5.332000017,,,,,,
,,,,,,,,,,,,,,,,,,,,,,,,,,,,,,,,,,,,,,,,,,,,,1,0,5,4,1,4,96,tigre,Spanish,Sounds/spa_tigre.mp3,2020-06-25_09h14.41.368,TranslationElicitation_eng-prolific-spa,3.2.4,Win32,60,5ee0c7ff8480ea0636fe856e,,,,,,,
,,,,,,,,,,,,,,,,,,,,,,,,,,,,,,,,,,,,,,,,,t,1.46600008,T,FALSE,,,,,,,99,tomate,Spanish,Sounds/spa_tomate.mp3,2020-06-25_09h14.41.368,TranslationElicitation_eng-prolific-spa,3.2.4,Win32,60,5ee0c7ff8480ea0636fe856e,,1,0,98,93,1,97
,,,,,,,,,,,,,,,,,,,,,,,,,,,,,,,,,,,,,,,,,o,1.615999937,TO,FALSE,,,,,,,99,tomate,Spanish,Sounds/spa_tomate.mp3,2020-06-25_09h14.41.368,TranslationElicitation_eng-prolific-spa,3.2.4,Win32,60,5ee0c7ff8480ea0636fe856e,,1,0,98,93,1,97
,,,,,,,,,,,,,,,,,,,,,,,,,,,,,,,,,,,,,,,,,m,1.766000032,TOM,FALSE,,,,,,,99,tomate,Spanish,Sounds/spa_tomate.mp3,2020-06-25_09h14.41.368,TranslationElicitation_eng-prolific-spa,3.2.4,Win32,60,5ee0c7ff8480ea0636fe856e,,1,0,98,93,1,97
,,,,,,,,,,,,,,,,,,,,,,,,,,,,,,,,,,,,,,,,,a,1.916000128,TOMA,FALSE,,,,,,,99,tomate,Spanish,Sounds/spa_tomate.mp3,2020-06-25_09h14.41.368,TranslationElicitation_eng-prolific-spa,3.2.4,Win32,60,5ee0c7ff8480ea0636fe856e,,1,0,98,93,1,97
,,,,,,,,,,,,,,,,,,,,,,,,,,,,,,,,,,,,,,,,,t,2.431999922,TOMAT,FALSE,,,,,,,99,tomate,Spanish,Sounds/spa_tomate.mp3,2020-06-25_09h14.41.368,TranslationElicitation_eng-prolific-spa,3.2.4,Win32,60,5ee0c7ff8480ea0636fe856e,,1,0,98,93,1,97
,,,,,,,,,,,,,,,,,,,,,,,,,,,,,,,,,,,,,,,,,o,2.598999977,TOMATO,FALSE,,,,,,,99,tomate,Spanish,Sounds/spa_tomate.mp3,2020-06-25_09h14.41.368,TranslationElicitation_eng-prolific-spa,3.2.4,Win32,60,5ee0c7ff8480ea0636fe856e,,1,0,98,93,1,97
,,,,,,,,,,,,,,,,,,,,,,,,,,,,,,,,,,,,,,,,,return,3.46600008,TOMATO,FALSE,,,,,,,99,tomate,Spanish,Sounds/spa_tomate.mp3,2020-06-25_09h14.41.368,TranslationElicitation_eng-prolific-spa,3.2.4,Win32,60,5ee0c7ff8480ea0636fe856e,3.46600008,1,0,98,93,1,97
,,,,,,,,,,,,,,,,,,,,,,,,,,,,,,,,,,,,,,,,,,,,,,,,,,,99,tomate,Spanish,Sounds/spa_tomate.mp3,2020-06-25_09h14.41.368,TranslationElicitation_eng-prolific-spa,3.2.4,Win32,60,5ee0c7ff8480ea0636fe856e,,1,0,98,93,1,97
,,,,,,,,,,,,,,,,,,,,,,,,,,,,,,,,,,,,,,,,,q,12.62999988,Q,FALSE,,,,,,,91,puerta,Spanish,Sounds/spa_puerta.mp3,2020-06-25_09h14.41.368,TranslationElicitation_eng-prolific-spa,3.2.4,Win32,60,5ee0c7ff8480ea0636fe856e,,1,0,98,86,1,97
,,,,,,,,,,,,,,,,,,,,,,,,,,,,,,,,,,,,,,,,,u,13.49699998,QU,FALSE,,,,,,,91,puerta,Spanish,Sounds/spa_puerta.mp3,2020-06-25_09h14.41.368,TranslationElicitation_eng-prolific-spa,3.2.4,Win32,60,5ee0c7ff8480ea0636fe856e,,1,0,98,86,1,97
,,,,,,,,,,,,,,,,,,,,,,,,,,,,,,,,,,,,,,,,,i,13.94799995,QUI,FALSE,,,,,,,91,puerta,Spanish,Sounds/spa_puerta.mp3,2020-06-25_09h14.41.368,TranslationElicitation_eng-prolific-spa,3.2.4,Win32,60,5ee0c7ff8480ea0636fe856e,,1,0,98,86,1,97
,,,,,,,,,,,,,,,,,,,,,,,,,,,,,,,,,,,,,,,,,e,14.09699988,QUIE,FALSE,,,,,,,91,puerta,Spanish,Sounds/spa_puerta.mp3,2020-06-25_09h14.41.368,TranslationElicitation_eng-prolific-spa,3.2.4,Win32,60,5ee0c7ff8480ea0636fe856e,,1,0,98,86,1,97
,,,,,,,,,,,,,,,,,,,,,,,,,,,,,,,,,,,,,,,,,t,14.43000007,QUIET,FALSE,,,,,,,91,puerta,Spanish,Sounds/spa_puerta.mp3,2020-06-25_09h14.41.368,TranslationElicitation_eng-prolific-spa,3.2.4,Win32,60,5ee0c7ff8480ea0636fe856e,,1,0,98,86,1,97
,,,,,,,,,,,,,,,,,,,,,,,,,,,,,,,,,,,,,,,,,return,15.34599996,QUIET,FALSE,,,,,,,91,puerta,Spanish,Sounds/spa_puerta.mp3,2020-06-25_09h14.41.368,TranslationElicitation_eng-prolific-spa,3.2.4,Win32,60,5ee0c7ff8480ea0636fe856e,15.34599996,1,0,98,86,1,97
,,,,,,,,,,,,,,,,,,,,,,,,,,,,,,,,,,,,,,,,,,,,,,,,,,,91,puerta,Spanish,Sounds/spa_puerta.mp3,2020-06-25_09h14.41.368,TranslationElicitation_eng-prolific-spa,3.2.4,Win32,60,5ee0c7ff8480ea0636fe856e,,1,0,98,86,1,97
,,,,,,,,,,,,,,,,,,,,,,,,,,,,,,,,,,,,,,,,,c,1.766000032,C,FALSE,,,,,,,42,gato,Spanish,Sounds/spa_gato.mp3,2020-06-25_09h14.41.368,TranslationElicitation_eng-prolific-spa,3.2.4,Win32,60,5ee0c7ff8480ea0636fe856e,,1,0,98,38,1,97
,,,,,,,,,,,,,,,,,,,,,,,,,,,,,,,,,,,,,,,,,a,2.082000017,CA,FALSE,,,,,,,42,gato,Spanish,Sounds/spa_gato.mp3,2020-06-25_09h14.41.368,TranslationElicitation_eng-prolific-spa,3.2.4,Win32,60,5ee0c7ff8480ea0636fe856e,,1,0,98,38,1,97
,,,,,,,,,,,,,,,,,,,,,,,,,,,,,,,,,,,,,,,,,t,2.582000017,CAT,FALSE,,,,,,,42,gato,Spanish,Sounds/spa_gato.mp3,2020-06-25_09h14.41.368,TranslationElicitation_eng-prolific-spa,3.2.4,Win32,60,5ee0c7ff8480ea0636fe856e,,1,0,98,38,1,97
,,,,,,,,,,,,,,,,,,,,,,,,,,,,,,,,,,,,,,,,,return,2.965000153,CAT,FALSE,,,,,,,42,gato,Spanish,Sounds/spa_gato.mp3,2020-06-25_09h14.41.368,TranslationElicitation_eng-prolific-spa,3.2.4,Win32,60,5ee0c7ff8480ea0636fe856e,2.965000153,1,0,98,38,1,97
,,,,,,,,,,,,,,,,,,,,,,,,,,,,,,,,,,,,,,,,,,,,,,,,,,,42,gato,Spanish,Sounds/spa_gato.mp3,2020-06-25_09h14.41.368,TranslationElicitation_eng-prolific-spa,3.2.4,Win32,60,5ee0c7ff8480ea0636fe856e,,1,0,98,38,1,97
,,,,,,,,,,,,,,,,,,,,,,,,,,,,,,,,,,,,,,,,,g,2.164999962,G,FALSE,,,,,,,39,gafas,Spanish,Sounds/spa_gafas.mp3,2020-06-25_09h14.41.368,TranslationElicitation_eng-prolific-spa,3.2.4,Win32,60,5ee0c7ff8480ea0636fe856e,,1,0,98,35,1,97
,,,,,,,,,,,,,,,,,,,,,,,,,,,,,,,,,,,,,,,,,l,2.61500001,GL,FALSE,,,,,,,39,gafas,Spanish,Sounds/spa_gafas.mp3,2020-06-25_09h14.41.368,TranslationElicitation_eng-prolific-spa,3.2.4,Win32,60,5ee0c7ff8480ea0636fe856e,,1,0,98,35,1,97
,,,,,,,,,,,,,,,,,,,,,,,,,,,,,,,,,,,,,,,,,a,2.848999977,GLA,FALSE,,,,,,,39,gafas,Spanish,Sounds/spa_gafas.mp3,2020-06-25_09h14.41.368,TranslationElicitation_eng-prolific-spa,3.2.4,Win32,60,5ee0c7ff8480ea0636fe856e,,1,0,98,35,1,97
,,,,,,,,,,,,,,,,,,,,,,,,,,,,,,,,,,,,,,,,,s,3.082000017,GLAS,FALSE,,,,,,,39,gafas,Spanish,Sounds/spa_gafas.mp3,2020-06-25_09h14.41.368,TranslationElicitation_eng-prolific-spa,3.2.4,Win32,60,5ee0c7ff8480ea0636fe856e,,1,0,98,35,1,97
,,,,,,,,,,,,,,,,,,,,,,,,,,,,,,,,,,,,,,,,,s,3.247999907,GLASS,FALSE,,,,,,,39,gafas,Spanish,Sounds/spa_gafas.mp3,2020-06-25_09h14.41.368,TranslationElicitation_eng-prolific-spa,3.2.4,Win32,60,5ee0c7ff8480ea0636fe856e,,1,0,98,35,1,97
,,,,,,,,,,,,,,,,,,,,,,,,,,,,,,,,,,,,,,,,,e,3.582000017,GLASSE,FALSE,,,,,,,39,gafas,Spanish,Sounds/spa_gafas.mp3,2020-06-25_09h14.41.368,TranslationElicitation_eng-prolific-spa,3.2.4,Win32,60,5ee0c7ff8480ea0636fe856e,,1,0,98,35,1,97
,,,,,,,,,,,,,,,,,,,,,,,,,,,,,,,,,,,,,,,,,s,3.815000057,GLASSES,FALSE,,,,,,,39,gafas,Spanish,Sounds/spa_gafas.mp3,2020-06-25_09h14.41.368,TranslationElicitation_eng-prolific-spa,3.2.4,Win32,60,5ee0c7ff8480ea0636fe856e,,1,0,98,35,1,97
,,,,,,,,,,,,,,,,,,,,,,,,,,,,,,,,,,,,,,,,,return,4.015000105,GLASSES,FALSE,,,,,,,39,gafas,Spanish,Sounds/spa_gafas.mp3,2020-06-25_09h14.41.368,TranslationElicitation_eng-prolific-spa,3.2.4,Win32,60,5ee0c7ff8480ea0636fe856e,4.015000105,1,0,98,35,1,97
,,,,,,,,,,,,,,,,,,,,,,,,,,,,,,,,,,,,,,,,,,,,,,,,,,,39,gafas,Spanish,Sounds/spa_gafas.mp3,2020-06-25_09h14.41.368,TranslationElicitation_eng-prolific-spa,3.2.4,Win32,60,5ee0c7ff8480ea0636fe856e,,1,0,98,35,1,97
,,,,,,,,,,,,,,,,,,,,,,,,,,,,,,,,,,,,,,,,,b,1.849999905,B,FALSE,,,,,,,8,bol,Spanish,Sounds/spa_bol.mp3,2020-06-25_09h14.41.368,TranslationElicitation_eng-prolific-spa,3.2.4,Win32,60,5ee0c7ff8480ea0636fe856e,,1,0,98,6,1,97
,,,,,,,,,,,,,,,,,,,,,,,,,,,,,,,,,,,,,,,,,a,1.998999834,BA,FALSE,,,,,,,8,bol,Spanish,Sounds/spa_bol.mp3,2020-06-25_09h14.41.368,TranslationElicitation_eng-prolific-spa,3.2.4,Win32,60,5ee0c7ff8480ea0636fe856e,,1,0,98,6,1,97
,,,,,,,,,,,,,,,,,,,,,,,,,,,,,,,,,,,,,,,,,l,2.148999929,BAL,FALSE,,,,,,,8,bol,Spanish,Sounds/spa_bol.mp3,2020-06-25_09h14.41.368,TranslationElicitation_eng-prolific-spa,3.2.4,Win32,60,5ee0c7ff8480ea0636fe856e,,1,0,98,6,1,97
,,,,,,,,,,,,,,,,,,,,,,,,,,,,,,,,,,,,,,,,,l,2.382999897,BALL,FALSE,,,,,,,8,bol,Spanish,Sounds/spa_bol.mp3,2020-06-25_09h14.41.368,TranslationElicitation_eng-prolific-spa,3.2.4,Win32,60,5ee0c7ff8480ea0636fe856e,,1,0,98,6,1,97
,,,,,,,,,,,,,,,,,,,,,,,,,,,,,,,,,,,,,,,,,return,2.915999889,BALL,FALSE,,,,,,,8,bol,Spanish,Sounds/spa_bol.mp3,2020-06-25_09h14.41.368,TranslationElicitation_eng-prolific-spa,3.2.4,Win32,60,5ee0c7ff8480ea0636fe856e,2.915999889,1,0,98,6,1,97
,,,,,,,,,,,,,,,,,,,,,,,,,,,,,,,,,,,,,,,,,,,,,,,,,,,8,bol,Spanish,Sounds/spa_bol.mp3,2020-06-25_09h14.41.368,TranslationElicitation_eng-prolific-spa,3.2.4,Win32,60,5ee0c7ff8480ea0636fe856e,,1,0,98,6,1,97
,,,,,,,,,,,,,,,,,,,,,,,,,,,,,,,,,,,,,,,,,s,1.71600008,S,FALSE,,,,,,,93,sol,Spanish,Sounds/spa_sol.mp3,2020-06-25_09h14.41.368,TranslationElicitation_eng-prolific-spa,3.2.4,Win32,60,5ee0c7ff8480ea0636fe856e,,1,0,98,88,1,97
,,,,,,,,,,,,,,,,,,,,,,,,,,,,,,,,,,,,,,,,,u,2.19900012,SU,FALSE,,,,,,,93,sol,Spanish,Sounds/spa_sol.mp3,2020-06-25_09h14.41.368,TranslationElicitation_eng-prolific-spa,3.2.4,Win32,60,5ee0c7ff8480ea0636fe856e,,1,0,98,88,1,97
,,,,,,,,,,,,,,,,,,,,,,,,,,,,,,,,,,,,,,,,,n,2.365999937,SUN,FALSE,,,,,,,93,sol,Spanish,Sounds/spa_sol.mp3,2020-06-25_09h14.41.368,TranslationElicitation_eng-prolific-spa,3.2.4,Win32,60,5ee0c7ff8480ea0636fe856e,,1,0,98,88,1,97
,,,,,,,,,,,,,,,,,,,,,,,,,,,,,,,,,,,,,,,,,return,2.799000025,SUN,FALSE,,,,,,,93,sol,Spanish,Sounds/spa_sol.mp3,2020-06-25_09h14.41.368,TranslationElicitation_eng-prolific-spa,3.2.4,Win32,60,5ee0c7ff8480ea0636fe856e,2.799000025,1,0,98,88,1,97
,,,,,,,,,,,,,,,,,,,,,,,,,,,,,,,,,,,,,,,,,,,,,,,,,,,93,sol,Spanish,Sounds/spa_sol.mp3,2020-06-25_09h14.41.368,TranslationElicitation_eng-prolific-spa,3.2.4,Win32,60,5ee0c7ff8480ea0636fe856e,,1,0,98,88,1,97
,,,,,,,,,,,,,,,,,,,,,,,,,,,,,,,,,,,,,,,,,s,4.865999937,S,FALSE,,,,,,,22,cepillo,Spanish,Sounds/spa_cepillo.mp3,2020-06-25_09h14.41.368,TranslationElicitation_eng-prolific-spa,3.2.4,Win32,60,5ee0c7ff8480ea0636fe856e,,1,0,98,20,1,97
,,,,,,,,,,,,,,,,,,,,,,,,,,,,,,,,,,,,,,,,,h,4.999000072,SH,FALSE,,,,,,,22,cepillo,Spanish,Sounds/spa_cepillo.mp3,2020-06-25_09h14.41.368,TranslationElicitation_eng-prolific-spa,3.2.4,Win32,60,5ee0c7ff8480ea0636fe856e,,1,0,98,20,1,97
,,,,,,,,,,,,,,,,,,,,,,,,,,,,,,,,,,,,,,,,,o,5.299000025,SHO,FALSE,,,,,,,22,cepillo,Spanish,Sounds/spa_cepillo.mp3,2020-06-25_09h14.41.368,TranslationElicitation_eng-prolific-spa,3.2.4,Win32,60,5ee0c7ff8480ea0636fe856e,,1,0,98,20,1,97
,,,,,,,,,,,,,,,,,,,,,,,,,,,,,,,,,,,,,,,,,e,5.516000032,SHOE,FALSE,,,,,,,22,cepillo,Spanish,Sounds/spa_cepillo.mp3,2020-06-25_09h14.41.368,TranslationElicitation_eng-prolific-spa,3.2.4,Win32,60,5ee0c7ff8480ea0636fe856e,,1,0,98,20,1,97
,,,,,,,,,,,,,,,,,,,,,,,,,,,,,,,,,,,,,,,,,s,5.731999874,SHOES,FALSE,,,,,,,22,cepillo,Spanish,Sounds/spa_cepillo.mp3,2020-06-25_09h14.41.368,TranslationElicitation_eng-prolific-spa,3.2.4,Win32,60,5ee0c7ff8480ea0636fe856e,,1,0,98,20,1,97
,,,,,,,,,,,,,,,,,,,,,,,,,,,,,,,,,,,,,,,,,return,6.198999882,SHOES,FALSE,,,,,,,22,cepillo,Spanish,Sounds/spa_cepillo.mp3,2020-06-25_09h14.41.368,TranslationElicitation_eng-prolific-spa,3.2.4,Win32,60,5ee0c7ff8480ea0636fe856e,6.198999882,1,0,98,20,1,97
,,,,,,,,,,,,,,,,,,,,,,,,,,,,,,,,,,,,,,,,,,,,,,,,,,,22,cepillo,Spanish,Sounds/spa_cepillo.mp3,2020-06-25_09h14.41.368,TranslationElicitation_eng-prolific-spa,3.2.4,Win32,60,5ee0c7ff8480ea0636fe856e,,1,0,98,20,1,97
,,,,,,,,,,,,,,,,,,,,,,,,,,,,,,,,,,,,,,,,,b,2.93200016,B,FALSE,,,,,,,75,pan,Spanish,Sounds/spa_pan.mp3,2020-06-25_09h14.41.368,TranslationElicitation_eng-prolific-spa,3.2.4,Win32,60,5ee0c7ff8480ea0636fe856e,,1,0,98,70,1,97
,,,,,,,,,,,,,,,,,,,,,,,,,,,,,,,,,,,,,,,,,r,3.232000113,BR,FALSE,,,,,,,75,pan,Spanish,Sounds/spa_pan.mp3,2020-06-25_09h14.41.368,TranslationElicitation_eng-prolific-spa,3.2.4,Win32,60,5ee0c7ff8480ea0636fe856e,,1,0,98,70,1,97
,,,,,,,,,,,,,,,,,,,,,,,,,,,,,,,,,,,,,,,,,e,3.43200016,BRE,FALSE,,,,,,,75,pan,Spanish,Sounds/spa_pan.mp3,2020-06-25_09h14.41.368,TranslationElicitation_eng-prolific-spa,3.2.4,Win32,60,5ee0c7ff8480ea0636fe856e,,1,0,98,70,1,97
,,,,,,,,,,,,,,,,,,,,,,,,,,,,,,,,,,,,,,,,,a,3.6650002,BREA,FALSE,,,,,,,75,pan,Spanish,Sounds/spa_pan.mp3,2020-06-25_09h14.41.368,TranslationElicitation_eng-prolific-spa,3.2.4,Win32,60,5ee0c7ff8480ea0636fe856e,,1,0,98,70,1,97
,,,,,,,,,,,,,,,,,,,,,,,,,,,,,,,,,,,,,,,,,d,4.082000017,BREAD,FALSE,,,,,,,75,pan,Spanish,Sounds/spa_pan.mp3,2020-06-25_09h14.41.368,TranslationElicitation_eng-prolific-spa,3.2.4,Win32,60,5ee0c7ff8480ea0636fe856e,,1,0,98,70,1,97
,,,,,,,,,,,,,,,,,,,,,,,,,,,,,,,,,,,,,,,,,return,4.348999977,BREAD,FALSE,,,,,,,75,pan,Spanish,Sounds/spa_pan.mp3,2020-06-25_09h14.41.368,TranslationElicitation_eng-prolific-spa,3.2.4,Win32,60,5ee0c7ff8480ea0636fe856e,4.348999977,1,0,98,70,1,97
,,,,,,,,,,,,,,,,,,,,,,,,,,,,,,,,,,,,,,,,,,,,,,,,,,,75,pan,Spanish,Sounds/spa_pan.mp3,2020-06-25_09h14.41.368,TranslationElicitation_eng-prolific-spa,3.2.4,Win32,60,5ee0c7ff8480ea0636fe856e,,1,0,98,70,1,97
,,,,,,,,,,,,,,,,,,,,,,,,,,,,,,,,,,,,,,,,,c,3.499000072,C,FALSE,,,,,,,32,cuchara,Spanish,Sounds/spa_cuchara.mp3,2020-06-25_09h14.41.368,TranslationElicitation_eng-prolific-spa,3.2.4,Win32,60,5ee0c7ff8480ea0636fe856e,,1,0,98,28,1,97
,,,,,,,,,,,,,,,,,,,,,,,,,,,,,,,,,,,,,,,,,h,4.19900012,CH,FALSE,,,,,,,32,cuchara,Spanish,Sounds/spa_cuchara.mp3,2020-06-25_09h14.41.368,TranslationElicitation_eng-prolific-spa,3.2.4,Win32,60,5ee0c7ff8480ea0636fe856e,,1,0,98,28,1,97
,,,,,,,,,,,,,,,,,,,,,,,,,,,,,,,,,,,,,,,,,i,4.43200016,CHI,FALSE,,,,,,,32,cuchara,Spanish,Sounds/spa_cuchara.mp3,2020-06-25_09h14.41.368,TranslationElicitation_eng-prolific-spa,3.2.4,Win32,60,5ee0c7ff8480ea0636fe856e,,1,0,98,28,1,97
,,,,,,,,,,,,,,,,,,,,,,,,,,,,,,,,,,,,,,,,,n,5.066000223,CHIN,FALSE,,,,,,,32,cuchara,Spanish,Sounds/spa_cuchara.mp3,2020-06-25_09h14.41.368,TranslationElicitation_eng-prolific-spa,3.2.4,Win32,60,5ee0c7ff8480ea0636fe856e,,1,0,98,28,1,97
,,,,,,,,,,,,,,,,,,,,,,,,,,,,,,,,,,,,,,,,,c,5.399000168,CHINC,FALSE,,,,,,,32,cuchara,Spanish,Sounds/spa_cuchara.mp3,2020-06-25_09h14.41.368,TranslationElicitation_eng-prolific-spa,3.2.4,Win32,60,5ee0c7ff8480ea0636fe856e,,1,0,98,28,1,97
,,,,,,,,,,,,,,,,,,,,,,,,,,,,,,,,,,,,,,,,,i,5.582000017,CHINCI,FALSE,,,,,,,32,cuchara,Spanish,Sounds/spa_cuchara.mp3,2020-06-25_09h14.41.368,TranslationElicitation_eng-prolific-spa,3.2.4,Win32,60,5ee0c7ff8480ea0636fe856e,,1,0,98,28,1,97
,,,,,,,,,,,,,,,,,,,,,,,,,,,,,,,,,,,,,,,,,l,5.832000017,CHINCIL,FALSE,,,,,,,32,cuchara,Spanish,Sounds/spa_cuchara.mp3,2020-06-25_09h14.41.368,TranslationElicitation_eng-prolific-spa,3.2.4,Win32,60,5ee0c7ff8480ea0636fe856e,,1,0,98,28,1,97
,,,,,,,,,,,,,,,,,,,,,,,,,,,,,,,,,,,,,,,,,l,5.965000153,CHINCILL,FALSE,,,,,,,32,cuchara,Spanish,Sounds/spa_cuchara.mp3,2020-06-25_09h14.41.368,TranslationElicitation_eng-prolific-spa,3.2.4,Win32,60,5ee0c7ff8480ea0636fe856e,,1,0,98,28,1,97
,,,,,,,,,,,,,,,,,,,,,,,,,,,,,,,,,,,,,,,,,a,6.215000153,CHINCILLA,FALSE,,,,,,,32,cuchara,Spanish,Sounds/spa_cuchara.mp3,2020-06-25_09h14.41.368,TranslationElicitation_eng-prolific-spa,3.2.4,Win32,60,5ee0c7ff8480ea0636fe856e,,1,0,98,28,1,97
,,,,,,,,,,,,,,,,,,,,,,,,,,,,,,,,,,,,,,,,,return,7.714000225,CHINCILLA,FALSE,,,,,,,32,cuchara,Spanish,Sounds/spa_cuchara.mp3,2020-06-25_09h14.41.368,TranslationElicitation_eng-prolific-spa,3.2.4,Win32,60,5ee0c7ff8480ea0636fe856e,7.714000225,1,0,98,28,1,97
,,,,,,,,,,,,,,,,,,,,,,,,,,,,,,,,,,,,,,,,,,,,,,,,,,,32,cuchara,Spanish,Sounds/spa_cuchara.mp3,2020-06-25_09h14.41.368,TranslationElicitation_eng-prolific-spa,3.2.4,Win32,60,5ee0c7ff8480ea0636fe856e,,1,0,98,28,1,97
,,,,,,,,,,,,,,,,,,,,,,,,,,,,,,,,,,,,,,,,,t,3.34800005,T,FALSE,,,,,,,17,calcetin,Spanish,Sounds/spa_calcetin.mp3,2020-06-25_09h14.41.368,TranslationElicitation_eng-prolific-spa,3.2.4,Win32,60,5ee0c7ff8480ea0636fe856e,,1,0,98,15,1,97
,,,,,,,,,,,,,,,,,,,,,,,,,,,,,,,,,,,,,,,,,e,3.731999874,TE,FALSE,,,,,,,17,calcetin,Spanish,Sounds/spa_calcetin.mp3,2020-06-25_09h14.41.368,TranslationElicitation_eng-prolific-spa,3.2.4,Win32,60,5ee0c7ff8480ea0636fe856e,,1,0,98,15,1,97
,,,,,,,,,,,,,,,,,,,,,,,,,,,,,,,,,,,,,,,,,a,3.981999874,TEA,FALSE,,,,,,,17,calcetin,Spanish,Sounds/spa_calcetin.mp3,2020-06-25_09h14.41.368,TranslationElicitation_eng-prolific-spa,3.2.4,Win32,60,5ee0c7ff8480ea0636fe856e,,1,0,98,15,1,97
,,,,,,,,,,,,,,,,,,,,,,,,,,,,,,,,,,,,,,,,,return,4.547999859,TEA,FALSE,,,,,,,17,calcetin,Spanish,Sounds/spa_calcetin.mp3,2020-06-25_09h14.41.368,TranslationElicitation_eng-prolific-spa,3.2.4,Win32,60,5ee0c7ff8480ea0636fe856e,4.547999859,1,0,98,15,1,97
,,,,,,,,,,,,,,,,,,,,,,,,,,,,,,,,,,,,,,,,,,,,,,,,,,,17,calcetin,Spanish,Sounds/spa_calcetin.mp3,2020-06-25_09h14.41.368,TranslationElicitation_eng-prolific-spa,3.2.4,Win32,60,5ee0c7ff8480ea0636fe856e,,1,0,98,15,1,97
,,,,,,,,,,,,,,,,,,,,,,,,,,,,,,,,,,,,,,,,,g,4.730999947,G,FALSE,,,,,,,45,gorro,Spanish,Sounds/spa_gorro.mp3,2020-06-25_09h14.41.368,TranslationElicitation_eng-prolific-spa,3.2.4,Win32,60,5ee0c7ff8480ea0636fe856e,,1,0,98,41,1,97
,,,,,,,,,,,,,,,,,,,,,,,,,,,,,,,,,,,,,,,,,o,4.997999907,GO,FALSE,,,,,,,45,gorro,Spanish,Sounds/spa_gorro.mp3,2020-06-25_09h14.41.368,TranslationElicitation_eng-prolific-spa,3.2.4,Win32,60,5ee0c7ff8480ea0636fe856e,,1,0,98,41,1,97
,,,,,,,,,,,,,,,,,,,,,,,,,,,,,,,,,,,,,,,,,d,5.214999914,GOD,FALSE,,,,,,,45,gorro,Spanish,Sounds/spa_gorro.mp3,2020-06-25_09h14.41.368,TranslationElicitation_eng-prolific-spa,3.2.4,Win32,60,5ee0c7ff8480ea0636fe856e,,1,0,98,41,1,97
,,,,,,,,,,,,,,,,,,,,,,,,,,,,,,,,,,,,,,,,,return,5.997999907,GOD,FALSE,,,,,,,45,gorro,Spanish,Sounds/spa_gorro.mp3,2020-06-25_09h14.41.368,TranslationElicitation_eng-prolific-spa,3.2.4,Win32,60,5ee0c7ff8480ea0636fe856e,5.997999907,1,0,98,41,1,97
,,,,,,,,,,,,,,,,,,,,,,,,,,,,,,,,,,,,,,,,,,,,,,,,,,,45,gorro,Spanish,Sounds/spa_gorro.mp3,2020-06-25_09h14.41.368,TranslationElicitation_eng-prolific-spa,3.2.4,Win32,60,5ee0c7ff8480ea0636fe856e,,1,0,98,41,1,97
,,,,,,,,,,,,,,,,,,,,,,,,,,,,,,,,,,,,,,,,,b,1.832999945,B,FALSE,,,,,,,10,botella,Spanish,Sounds/spa_botella.mp3,2020-06-25_09h14.41.368,TranslationElicitation_eng-prolific-spa,3.2.4,Win32,60,5ee0c7ff8480ea0636fe856e,,1,0,98,8,1,97
,,,,,,,,,,,,,,,,,,,,,,,,,,,,,,,,,,,,,,,,,o,2.21600008,BO,FALSE,,,,,,,10,botella,Spanish,Sounds/spa_botella.mp3,2020-06-25_09h14.41.368,TranslationElicitation_eng-prolific-spa,3.2.4,Win32,60,5ee0c7ff8480ea0636fe856e,,1,0,98,8,1,97
,,,,,,,,,,,,,,,,,,,,,,,,,,,,,,,,,,,,,,,,,t,2.549000025,BOT,FALSE,,,,,,,10,botella,Spanish,Sounds/spa_botella.mp3,2020-06-25_09h14.41.368,TranslationElicitation_eng-prolific-spa,3.2.4,Win32,60,5ee0c7ff8480ea0636fe856e,,1,0,98,8,1,97
,,,,,,,,,,,,,,,,,,,,,,,,,,,,,,,,,,,,,,,,,e,2.848999977,BOTE,FALSE,,,,,,,10,botella,Spanish,Sounds/spa_botella.mp3,2020-06-25_09h14.41.368,TranslationElicitation_eng-prolific-spa,3.2.4,Win32,60,5ee0c7ff8480ea0636fe856e,,1,0,98,8,1,97
,,,,,,,,,,,,,,,,,,,,,,,,,,,,,,,,,,,,,,,,,g,3.049000025,BOTEG,FALSE,,,,,,,10,botella,Spanish,Sounds/spa_botella.mp3,2020-06-25_09h14.41.368,TranslationElicitation_eng-prolific-spa,3.2.4,Win32,60,5ee0c7ff8480ea0636fe856e,,1,0,98,8,1,97
,,,,,,,,,,,,,,,,,,,,,,,,,,,,,,,,,,,,,,,,,a,3.249000072,BOTEGA,FALSE,,,,,,,10,botella,Spanish,Sounds/spa_botella.mp3,2020-06-25_09h14.41.368,TranslationElicitation_eng-prolific-spa,3.2.4,Win32,60,5ee0c7ff8480ea0636fe856e,,1,0,98,8,1,97
,,,,,,,,,,,,,,,,,,,,,,,,,,,,,,,,,,,,,,,,,backspace,6.131999969,BOTEG,TRUE,,,,,,,10,botella,Spanish,Sounds/spa_botella.mp3,2020-06-25_09h14.41.368,TranslationElicitation_eng-prolific-spa,3.2.4,Win32,60,5ee0c7ff8480ea0636fe856e,,1,0,98,8,1,97
,,,,,,,,,,,,,,,,,,,,,,,,,,,,,,,,,,,,,,,,,backspace,6.697999954,BOTE,TRUE,,,,,,,10,botella,Spanish,Sounds/spa_botella.mp3,2020-06-25_09h14.41.368,TranslationElicitation_eng-prolific-spa,3.2.4,Win32,60,5ee0c7ff8480ea0636fe856e,,1,0,98,8,1,97
,,,,,,,,,,,,,,,,,,,,,,,,,,,,,,,,,,,,,,,,,backspace,6.998000145,BOT,TRUE,,,,,,,10,botella,Spanish,Sounds/spa_botella.mp3,2020-06-25_09h14.41.368,TranslationElicitation_eng-prolific-spa,3.2.4,Win32,60,5ee0c7ff8480ea0636fe856e,,1,0,98,8,1,97
,,,,,,,,,,,,,,,,,,,,,,,,,,,,,,,,,,,,,,,,,backspace,7.298000097,BO,TRUE,,,,,,,10,botella,Spanish,Sounds/spa_botella.mp3,2020-06-25_09h14.41.368,TranslationElicitation_eng-prolific-spa,3.2.4,Win32,60,5ee0c7ff8480ea0636fe856e,,1,0,98,8,1,97
,,,,,,,,,,,,,,,,,,,,,,,,,,,,,,,,,,,,,,,,,backspace,20.125,B,TRUE,,,,,,,10,botella,Spanish,Sounds/spa_botella.mp3,2020-06-25_09h14.41.368,TranslationElicitation_eng-prolific-spa,3.2.4,Win32,60,5ee0c7ff8480ea0636fe856e,,1,0,98,8,1,97
,,,,,,,,,,,,,,,,,,,,,,,,,,,,,,,,,,,,,,,,,return,20.95799994,B,TRUE,,,,,,,10,botella,Spanish,Sounds/spa_botella.mp3,2020-06-25_09h14.41.368,TranslationElicitation_eng-prolific-spa,3.2.4,Win32,60,5ee0c7ff8480ea0636fe856e,20.95799994,1,0,98,8,1,97
,,,,,,,,,,,,,,,,,,,,,,,,,,,,,,,,,,,,,,,,,,,,,,,,,,,10,botella,Spanish,Sounds/spa_botella.mp3,2020-06-25_09h14.41.368,TranslationElicitation_eng-prolific-spa,3.2.4,Win32,60,5ee0c7ff8480ea0636fe856e,,1,0,98,8,1,97
,,,,,,,,,,,,,,,,,,,,,,,,,,,,,,,,,,,,,,,,,r,2.447999954,R,FALSE,,,,,,,102,ventana,Spanish,Sounds/spa_ventana.mp3,2020-06-25_09h14.41.368,TranslationElicitation_eng-prolific-spa,3.2.4,Win32,60,5ee0c7ff8480ea0636fe856e,,1,0,98,96,1,97
,,,,,,,,,,,,,,,,,,,,,,,,,,,,,,,,,,,,,,,,,u,2.58100009,RU,FALSE,,,,,,,102,ventana,Spanish,Sounds/spa_ventana.mp3,2020-06-25_09h14.41.368,TranslationElicitation_eng-prolific-spa,3.2.4,Win32,60,5ee0c7ff8480ea0636fe856e,,1,0,98,96,1,97
,,,,,,,,,,,,,,,,,,,,,,,,,,,,,,,,,,,,,,,,,n,2.713999987,RUN,FALSE,,,,,,,102,ventana,Spanish,Sounds/spa_ventana.mp3,2020-06-25_09h14.41.368,TranslationElicitation_eng-prolific-spa,3.2.4,Win32,60,5ee0c7ff8480ea0636fe856e,,1,0,98,96,1,97
,,,,,,,,,,,,,,,,,,,,,,,,,,,,,,,,,,,,,,,,,return,3.33100009,RUN,FALSE,,,,,,,102,ventana,Spanish,Sounds/spa_ventana.mp3,2020-06-25_09h14.41.368,TranslationElicitation_eng-prolific-spa,3.2.4,Win32,60,5ee0c7ff8480ea0636fe856e,3.33100009,1,0,98,96,1,97
,,,,,,,,,,,,,,,,,,,,,,,,,,,,,,,,,,,,,,,,,,,,,,,,,,,102,ventana,Spanish,Sounds/spa_ventana.mp3,2020-06-25_09h14.41.368,TranslationElicitation_eng-prolific-spa,3.2.4,Win32,60,5ee0c7ff8480ea0636fe856e,,1,0,98,96,1,97
,,,,,,,,,,,,,,,,,,,,,,,,,,,,,,,,,,,,,,,,,p,3.931999922,P,FALSE,,,,,,,63,mesa,Spanish,Sounds/spa_mesa.mp3,2020-06-25_09h14.41.368,TranslationElicitation_eng-prolific-spa,3.2.4,Win32,60,5ee0c7ff8480ea0636fe856e,,1,0,98,59,1,97
,,,,,,,,,,,,,,,,,,,,,,,,,,,,,,,,,,,,,,,,,a,4.131999969,PA,FALSE,,,,,,,63,mesa,Spanish,Sounds/spa_mesa.mp3,2020-06-25_09h14.41.368,TranslationElicitation_eng-prolific-spa,3.2.4,Win32,60,5ee0c7ff8480ea0636fe856e,,1,0,98,59,1,97
,,,,,,,,,,,,,,,,,,,,,,,,,,,,,,,,,,,,,,,,,r,4.648999929,PAR,FALSE,,,,,,,63,mesa,Spanish,Sounds/spa_mesa.mp3,2020-06-25_09h14.41.368,TranslationElicitation_eng-prolific-spa,3.2.4,Win32,60,5ee0c7ff8480ea0636fe856e,,1,0,98,59,1,97
,,,,,,,,,,,,,,,,,,,,,,,,,,,,,,,,,,,,,,,,,k,4.881999969,PARK,FALSE,,,,,,,63,mesa,Spanish,Sounds/spa_mesa.mp3,2020-06-25_09h14.41.368,TranslationElicitation_eng-prolific-spa,3.2.4,Win32,60,5ee0c7ff8480ea0636fe856e,,1,0,98,59,1,97
,,,,,,,,,,,,,,,,,,,,,,,,,,,,,,,,,,,,,,,,,return,5.431999922,PARK,FALSE,,,,,,,63,mesa,Spanish,Sounds/spa_mesa.mp3,2020-06-25_09h14.41.368,TranslationElicitation_eng-prolific-spa,3.2.4,Win32,60,5ee0c7ff8480ea0636fe856e,5.431999922,1,0,98,59,1,97
,,,,,,,,,,,,,,,,,,,,,,,,,,,,,,,,,,,,,,,,,,,,,,,,,,,63,mesa,Spanish,Sounds/spa_mesa.mp3,2020-06-25_09h14.41.368,TranslationElicitation_eng-prolific-spa,3.2.4,Win32,60,5ee0c7ff8480ea0636fe856e,,1,0,98,59,1,97
,,,,,,,,,,,,,,,,,,,,,,,,,,,,,,,,,,,,,,,,,t,2.348999977,T,FALSE,,,,,,,101,tren,Spanish,Sounds/spa_tren.mp3,2020-06-25_09h14.41.368,TranslationElicitation_eng-prolific-spa,3.2.4,Win32,60,5ee0c7ff8480ea0636fe856e,,1,0,98,95,1,97
,,,,,,,,,,,,,,,,,,,,,,,,,,,,,,,,,,,,,,,,,r,2.615999937,TR,FALSE,,,,,,,101,tren,Spanish,Sounds/spa_tren.mp3,2020-06-25_09h14.41.368,TranslationElicitation_eng-prolific-spa,3.2.4,Win32,60,5ee0c7ff8480ea0636fe856e,,1,0,98,95,1,97
,,,,,,,,,,,,,,,,,,,,,,,,,,,,,,,,,,,,,,,,,a,2.832000017,TRA,FALSE,,,,,,,101,tren,Spanish,Sounds/spa_tren.mp3,2020-06-25_09h14.41.368,TranslationElicitation_eng-prolific-spa,3.2.4,Win32,60,5ee0c7ff8480ea0636fe856e,,1,0,98,95,1,97
,,,,,,,,,,,,,,,,,,,,,,,,,,,,,,,,,,,,,,,,,i,2.933000088,TRAI,FALSE,,,,,,,101,tren,Spanish,Sounds/spa_tren.mp3,2020-06-25_09h14.41.368,TranslationElicitation_eng-prolific-spa,3.2.4,Win32,60,5ee0c7ff8480ea0636fe856e,,1,0,98,95,1,97
,,,,,,,,,,,,,,,,,,,,,,,,,,,,,,,,,,,,,,,,,n,3.082000017,TRAIN,FALSE,,,,,,,101,tren,Spanish,Sounds/spa_tren.mp3,2020-06-25_09h14.41.368,TranslationElicitation_eng-prolific-spa,3.2.4,Win32,60,5ee0c7ff8480ea0636fe856e,,1,0,98,95,1,97
,,,,,,,,,,,,,,,,,,,,,,,,,,,,,,,,,,,,,,,,,return,3.666000128,TRAIN,FALSE,,,,,,,101,tren,Spanish,Sounds/spa_tren.mp3,2020-06-25_09h14.41.368,TranslationElicitation_eng-prolific-spa,3.2.4,Win32,60,5ee0c7ff8480ea0636fe856e,3.666000128,1,0,98,95,1,97
,,,,,,,,,,,,,,,,,,,,,,,,,,,,,,,,,,,,,,,,,,,,,,,,,,,101,tren,Spanish,Sounds/spa_tren.mp3,2020-06-25_09h14.41.368,TranslationElicitation_eng-prolific-spa,3.2.4,Win32,60,5ee0c7ff8480ea0636fe856e,,1,0,98,95,1,97
,,,,,,,,,,,,,,,,,,,,,,,,,,,,,,,,,,,,,,,,,g,2.598999977,G,FALSE,,,,,,,46,grifo,Spanish,Sounds/spa_grifo.mp3,2020-06-25_09h14.41.368,TranslationElicitation_eng-prolific-spa,3.2.4,Win32,60,5ee0c7ff8480ea0636fe856e,,1,0,98,42,1,97
,,,,,,,,,,,,,,,,,,,,,,,,,,,,,,,,,,,,,,,,,i,2.748999834,GI,FALSE,,,,,,,46,grifo,Spanish,Sounds/spa_grifo.mp3,2020-06-25_09h14.41.368,TranslationElicitation_eng-prolific-spa,3.2.4,Win32,60,5ee0c7ff8480ea0636fe856e,,1,0,98,42,1,97
,,,,,,,,,,,,,,,,,,,,,,,,,,,,,,,,,,,,,,,,,r,2.965999842,GIR,FALSE,,,,,,,46,grifo,Spanish,Sounds/spa_grifo.mp3,2020-06-25_09h14.41.368,TranslationElicitation_eng-prolific-spa,3.2.4,Win32,60,5ee0c7ff8480ea0636fe856e,,1,0,98,42,1,97
,,,,,,,,,,,,,,,,,,,,,,,,,,,,,,,,,,,,,,,,,a,3.215999842,GIRA,FALSE,,,,,,,46,grifo,Spanish,Sounds/spa_grifo.mp3,2020-06-25_09h14.41.368,TranslationElicitation_eng-prolific-spa,3.2.4,Win32,60,5ee0c7ff8480ea0636fe856e,,1,0,98,42,1,97
,,,,,,,,,,,,,,,,,,,,,,,,,,,,,,,,,,,,,,,,,f,3.515999794,GIRAF,FALSE,,,,,,,46,grifo,Spanish,Sounds/spa_grifo.mp3,2020-06-25_09h14.41.368,TranslationElicitation_eng-prolific-spa,3.2.4,Win32,60,5ee0c7ff8480ea0636fe856e,,1,0,98,42,1,97
,,,,,,,,,,,,,,,,,,,,,,,,,,,,,,,,,,,,,,,,,f,3.681999922,GIRAFF,FALSE,,,,,,,46,grifo,Spanish,Sounds/spa_grifo.mp3,2020-06-25_09h14.41.368,TranslationElicitation_eng-prolific-spa,3.2.4,Win32,60,5ee0c7ff8480ea0636fe856e,,1,0,98,42,1,97
,,,,,,,,,,,,,,,,,,,,,,,,,,,,,,,,,,,,,,,,,e,4.064999819,GIRAFFE,FALSE,,,,,,,46,grifo,Spanish,Sounds/spa_grifo.mp3,2020-06-25_09h14.41.368,TranslationElicitation_eng-prolific-spa,3.2.4,Win32,60,5ee0c7ff8480ea0636fe856e,,1,0,98,42,1,97
,,,,,,,,,,,,,,,,,,,,,,,,,,,,,,,,,,,,,,,,,return,4.448999882,GIRAFFE,FALSE,,,,,,,46,grifo,Spanish,Sounds/spa_grifo.mp3,2020-06-25_09h14.41.368,TranslationElicitation_eng-prolific-spa,3.2.4,Win32,60,5ee0c7ff8480ea0636fe856e,4.448999882,1,0,98,42,1,97
,,,,,,,,,,,,,,,,,,,,,,,,,,,,,,,,,,,,,,,,,,,,,,,,,,,46,grifo,Spanish,Sounds/spa_grifo.mp3,2020-06-25_09h14.41.368,TranslationElicitation_eng-prolific-spa,3.2.4,Win32,60,5ee0c7ff8480ea0636fe856e,,1,0,98,42,1,97
,,,,,,,,,,,,,,,,,,,,,,,,,,,,,,,,,,,,,,,,,b,3.164999962,B,FALSE,,,,,,,12,brazo,Spanish,Sounds/spa_brazo.mp3,2020-06-25_09h14.41.368,TranslationElicitation_eng-prolific-spa,3.2.4,Win32,60,5ee0c7ff8480ea0636fe856e,,1,0,98,10,1,97
,,,,,,,,,,,,,,,,,,,,,,,,,,,,,,,,,,,,,,,,,r,3.315000057,BR,FALSE,,,,,,,12,brazo,Spanish,Sounds/spa_brazo.mp3,2020-06-25_09h14.41.368,TranslationElicitation_eng-prolific-spa,3.2.4,Win32,60,5ee0c7ff8480ea0636fe856e,,1,0,98,10,1,97
,,,,,,,,,,,,,,,,,,,,,,,,,,,,,,,,,,,,,,,,,a,3.914999962,BRA,FALSE,,,,,,,12,brazo,Spanish,Sounds/spa_brazo.mp3,2020-06-25_09h14.41.368,TranslationElicitation_eng-prolific-spa,3.2.4,Win32,60,5ee0c7ff8480ea0636fe856e,,1,0,98,10,1,97
,,,,,,,,,,,,,,,,,,,,,,,,,,,,,,,,,,,,,,,,,s,4.214999914,BRAS,FALSE,,,,,,,12,brazo,Spanish,Sounds/spa_brazo.mp3,2020-06-25_09h14.41.368,TranslationElicitation_eng-prolific-spa,3.2.4,Win32,60,5ee0c7ff8480ea0636fe856e,,1,0,98,10,1,97
,,,,,,,,,,,,,,,,,,,,,,,,,,,,,,,,,,,,,,,,,s,4.414999962,BRASS,FALSE,,,,,,,12,brazo,Spanish,Sounds/spa_brazo.mp3,2020-06-25_09h14.41.368,TranslationElicitation_eng-prolific-spa,3.2.4,Win32,60,5ee0c7ff8480ea0636fe856e,,1,0,98,10,1,97
,,,,,,,,,,,,,,,,,,,,,,,,,,,,,,,,,,,,,,,,,return,4.782000065,BRASS,FALSE,,,,,,,12,brazo,Spanish,Sounds/spa_brazo.mp3,2020-06-25_09h14.41.368,TranslationElicitation_eng-prolific-spa,3.2.4,Win32,60,5ee0c7ff8480ea0636fe856e,4.782000065,1,0,98,10,1,97
,,,,,,,,,,,,,,,,,,,,,,,,,,,,,,,,,,,,,,,,,,,,,,,,,,,12,brazo,Spanish,Sounds/spa_brazo.mp3,2020-06-25_09h14.41.368,TranslationElicitation_eng-prolific-spa,3.2.4,Win32,60,5ee0c7ff8480ea0636fe856e,,1,0,98,10,1,97
,,,,,,,,,,,,,,,,,,,,,,,,,,,,,,,,,,,,,,,,,k,4.398999929,K,FALSE,,,,,,,41,gallina,Spanish,Sounds/spa_gallina.mp3,2020-06-25_09h14.41.368,TranslationElicitation_eng-prolific-spa,3.2.4,Win32,60,5ee0c7ff8480ea0636fe856e,,1,0,98,37,1,97
,,,,,,,,,,,,,,,,,,,,,,,,,,,,,,,,,,,,,,,,,i,4.582000017,KI,FALSE,,,,,,,41,gallina,Spanish,Sounds/spa_gallina.mp3,2020-06-25_09h14.41.368,TranslationElicitation_eng-prolific-spa,3.2.4,Win32,60,5ee0c7ff8480ea0636fe856e,,1,0,98,37,1,97
,,,,,,,,,,,,,,,,,,,,,,,,,,,,,,,,,,,,,,,,,t,4.815000057,KIT,FALSE,,,,,,,41,gallina,Spanish,Sounds/spa_gallina.mp3,2020-06-25_09h14.41.368,TranslationElicitation_eng-prolific-spa,3.2.4,Win32,60,5ee0c7ff8480ea0636fe856e,,1,0,98,37,1,97
,,,,,,,,,,,,,,,,,,,,,,,,,,,,,,,,,,,,,,,,,e,5.098999977,KITE,FALSE,,,,,,,41,gallina,Spanish,Sounds/spa_gallina.mp3,2020-06-25_09h14.41.368,TranslationElicitation_eng-prolific-spa,3.2.4,Win32,60,5ee0c7ff8480ea0636fe856e,,1,0,98,37,1,97
,,,,,,,,,,,,,,,,,,,,,,,,,,,,,,,,,,,,,,,,,return,5.815000057,KITE,FALSE,,,,,,,41,gallina,Spanish,Sounds/spa_gallina.mp3,2020-06-25_09h14.41.368,TranslationElicitation_eng-prolific-spa,3.2.4,Win32,60,5ee0c7ff8480ea0636fe856e,5.815000057,1,0,98,37,1,97
,,,,,,,,,,,,,,,,,,,,,,,,,,,,,,,,,,,,,,,,,,,,,,,,,,,41,gallina,Spanish,Sounds/spa_gallina.mp3,2020-06-25_09h14.41.368,TranslationElicitation_eng-prolific-spa,3.2.4,Win32,60,5ee0c7ff8480ea0636fe856e,,1,0,98,37,1,97
,,,,,,,,,,,,,,,,,,,,,,,,,,,,,,,,,,,,,,,,,p,6.832000017,P,FALSE,,,,,,,81,pelota,Spanish,Sounds/spa_pelota.mp3,2020-06-25_09h14.41.368,TranslationElicitation_eng-prolific-spa,3.2.4,Win32,60,5ee0c7ff8480ea0636fe856e,,1,0,98,76,1,97
,,,,,,,,,,,,,,,,,,,,,,,,,,,,,,,,,,,,,,,,,a,8.281999826,PA,FALSE,,,,,,,81,pelota,Spanish,Sounds/spa_pelota.mp3,2020-06-25_09h14.41.368,TranslationElicitation_eng-prolific-spa,3.2.4,Win32,60,5ee0c7ff8480ea0636fe856e,,1,0,98,76,1,97
,,,,,,,,,,,,,,,,,,,,,,,,,,,,,,,,,,,,,,,,,i,8.481999874,PAI,FALSE,,,,,,,81,pelota,Spanish,Sounds/spa_pelota.mp3,2020-06-25_09h14.41.368,TranslationElicitation_eng-prolific-spa,3.2.4,Win32,60,5ee0c7ff8480ea0636fe856e,,1,0,98,76,1,97
,,,,,,,,,,,,,,,,,,,,,,,,,,,,,,,,,,,,,,,,,r,8.714999914,PAIR,FALSE,,,,,,,81,pelota,Spanish,Sounds/spa_pelota.mp3,2020-06-25_09h14.41.368,TranslationElicitation_eng-prolific-spa,3.2.4,Win32,60,5ee0c7ff8480ea0636fe856e,,1,0,98,76,1,97
,,,,,,,,,,,,,,,,,,,,,,,,,,,,,,,,,,,,,,,,,return,9.214999914,PAIR,FALSE,,,,,,,81,pelota,Spanish,Sounds/spa_pelota.mp3,2020-06-25_09h14.41.368,TranslationElicitation_eng-prolific-spa,3.2.4,Win32,60,5ee0c7ff8480ea0636fe856e,9.214999914,1,0,98,76,1,97
,,,,,,,,,,,,,,,,,,,,,,,,,,,,,,,,,,,,,,,,,,,,,,,,,,,81,pelota,Spanish,Sounds/spa_pelota.mp3,2020-06-25_09h14.41.368,TranslationElicitation_eng-prolific-spa,3.2.4,Win32,60,5ee0c7ff8480ea0636fe856e,,1,0,98,76,1,97
,,,,,,,,,,,,,,,,,,,,,,,,,,,,,,,,,,,,,,,,,p,1.999000072,P,FALSE,,,,,,,88,plato,Spanish,Sounds/spa_plato.mp3,2020-06-25_09h14.41.368,TranslationElicitation_eng-prolific-spa,3.2.4,Win32,60,5ee0c7ff8480ea0636fe856e,,1,0,98,83,1,97
,,,,,,,,,,,,,,,,,,,,,,,,,,,,,,,,,,,,,,,,,l,2.165999889,PL,FALSE,,,,,,,88,plato,Spanish,Sounds/spa_plato.mp3,2020-06-25_09h14.41.368,TranslationElicitation_eng-prolific-spa,3.2.4,Win32,60,5ee0c7ff8480ea0636fe856e,,1,0,98,83,1,97
,,,,,,,,,,,,,,,,,,,,,,,,,,,,,,,,,,,,,,,,,a,2.315999985,PLA,FALSE,,,,,,,88,plato,Spanish,Sounds/spa_plato.mp3,2020-06-25_09h14.41.368,TranslationElicitation_eng-prolific-spa,3.2.4,Win32,60,5ee0c7ff8480ea0636fe856e,,1,0,98,83,1,97
,,,,,,,,,,,,,,,,,,,,,,,,,,,,,,,,,,,,,,,,,i,2.683000088,PLAI,FALSE,,,,,,,88,plato,Spanish,Sounds/spa_plato.mp3,2020-06-25_09h14.41.368,TranslationElicitation_eng-prolific-spa,3.2.4,Win32,60,5ee0c7ff8480ea0636fe856e,,1,0,98,83,1,97
,,,,,,,,,,,,,,,,,,,,,,,,,,,,,,,,,,,,,,,,,t,3.072999954,PLAIT,FALSE,,,,,,,88,plato,Spanish,Sounds/spa_plato.mp3,2020-06-25_09h14.41.368,TranslationElicitation_eng-prolific-spa,3.2.4,Win32,60,5ee0c7ff8480ea0636fe856e,,1,0,98,83,1,97
,,,,,,,,,,,,,,,,,,,,,,,,,,,,,,,,,,,,,,,,,return,3.851999998,PLAIT,FALSE,,,,,,,88,plato,Spanish,Sounds/spa_plato.mp3,2020-06-25_09h14.41.368,TranslationElicitation_eng-prolific-spa,3.2.4,Win32,60,5ee0c7ff8480ea0636fe856e,3.851999998,1,0,98,83,1,97
,,,,,,,,,,,,,,,,,,,,,,,,,,,,,,,,,,,,,,,,,,,,,,,,,,,88,plato,Spanish,Sounds/spa_plato.mp3,2020-06-25_09h14.41.368,TranslationElicitation_eng-prolific-spa,3.2.4,Win32,60,5ee0c7ff8480ea0636fe856e,,1,0,98,83,1,97
,,,,,,,,,,,,,,,,,,,,,,,,,,,,,,,,,,,,,,,,,h,4.582000017,H,FALSE,,,,,,,66,moto,Spanish,Sounds/spa_moto.mp3,2020-06-25_09h14.41.368,TranslationElicitation_eng-prolific-spa,3.2.4,Win32,60,5ee0c7ff8480ea0636fe856e,,1,0,98,62,1,97
,,,,,,,,,,,,,,,,,,,,,,,,,,,,,,,,,,,,,,,,,i,4.930999994,HI,FALSE,,,,,,,66,moto,Spanish,Sounds/spa_moto.mp3,2020-06-25_09h14.41.368,TranslationElicitation_eng-prolific-spa,3.2.4,Win32,60,5ee0c7ff8480ea0636fe856e,,1,0,98,62,1,97
,,,,,,,,,,,,,,,,,,,,,,,,,,,,,,,,,,,,,,,,,p,5.180999994,HIP,FALSE,,,,,,,66,moto,Spanish,Sounds/spa_moto.mp3,2020-06-25_09h14.41.368,TranslationElicitation_eng-prolific-spa,3.2.4,Win32,60,5ee0c7ff8480ea0636fe856e,,1,0,98,62,1,97
,,,,,,,,,,,,,,,,,,,,,,,,,,,,,,,,,,,,,,,,,p,5.33100009,HIPP,FALSE,,,,,,,66,moto,Spanish,Sounds/spa_moto.mp3,2020-06-25_09h14.41.368,TranslationElicitation_eng-prolific-spa,3.2.4,Win32,60,5ee0c7ff8480ea0636fe856e,,1,0,98,62,1,97
,,,,,,,,,,,,,,,,,,,,,,,,,,,,,,,,,,,,,,,,,o,5.498000145,HIPPO,FALSE,,,,,,,66,moto,Spanish,Sounds/spa_moto.mp3,2020-06-25_09h14.41.368,TranslationElicitation_eng-prolific-spa,3.2.4,Win32,60,5ee0c7ff8480ea0636fe856e,,1,0,98,62,1,97
,,,,,,,,,,,,,,,,,,,,,,,,,,,,,,,,,,,,,,,,,return,5.981000185,HIPPO,FALSE,,,,,,,66,moto,Spanish,Sounds/spa_moto.mp3,2020-06-25_09h14.41.368,TranslationElicitation_eng-prolific-spa,3.2.4,Win32,60,5ee0c7ff8480ea0636fe856e,5.981000185,1,0,98,62,1,97
,,,,,,,,,,,,,,,,,,,,,,,,,,,,,,,,,,,,,,,,,,,,,,,,,,,66,moto,Spanish,Sounds/spa_moto.mp3,2020-06-25_09h14.41.368,TranslationElicitation_eng-prolific-spa,3.2.4,Win32,60,5ee0c7ff8480ea0636fe856e,,1,0,98,62,1,97
,,,,,,,,,,,,,,,,,,,,,,,,,,,,,,,,,,,,,,,,,m,1.63499999,M,FALSE,,,,,,,59,mano,Spanish,Sounds/spa_mano.mp3,2020-06-25_09h14.41.368,TranslationElicitation_eng-prolific-spa,3.2.4,Win32,60,5ee0c7ff8480ea0636fe856e,,1,0,98,55,1,97
,,,,,,,,,,,,,,,,,,,,,,,,,,,,,,,,,,,,,,,,,a,1.832999945,MA,FALSE,,,,,,,59,mano,Spanish,Sounds/spa_mano.mp3,2020-06-25_09h14.41.368,TranslationElicitation_eng-prolific-spa,3.2.4,Win32,60,5ee0c7ff8480ea0636fe856e,,1,0,98,55,1,97
,,,,,,,,,,,,,,,,,,,,,,,,,,,,,,,,,,,,,,,,,n,2.032999992,MAN,FALSE,,,,,,,59,mano,Spanish,Sounds/spa_mano.mp3,2020-06-25_09h14.41.368,TranslationElicitation_eng-prolific-spa,3.2.4,Win32,60,5ee0c7ff8480ea0636fe856e,,1,0,98,55,1,97
,,,,,,,,,,,,,,,,,,,,,,,,,,,,,,,,,,,,,,,,,return,2.615999937,MAN,FALSE,,,,,,,59,mano,Spanish,Sounds/spa_mano.mp3,2020-06-25_09h14.41.368,TranslationElicitation_eng-prolific-spa,3.2.4,Win32,60,5ee0c7ff8480ea0636fe856e,2.615999937,1,0,98,55,1,97
,,,,,,,,,,,,,,,,,,,,,,,,,,,,,,,,,,,,,,,,,,,,,,,,,,,59,mano,Spanish,Sounds/spa_mano.mp3,2020-06-25_09h14.41.368,TranslationElicitation_eng-prolific-spa,3.2.4,Win32,60,5ee0c7ff8480ea0636fe856e,,1,0,98,55,1,97
,,,,,,,,,,,,,,,,,,,,,,,,,,,,,,,,,,,,,,,,,m,7.098999977,M,FALSE,,,,,,,64,moneda,Spanish,Sounds/spa_moneda.mp3,2020-06-25_09h14.41.368,TranslationElicitation_eng-prolific-spa,3.2.4,Win32,60,5ee0c7ff8480ea0636fe856e,,1,0,98,60,1,97
,,,,,,,,,,,,,,,,,,,,,,,,,,,,,,,,,,,,,,,,,o,7.664999962,MO,FALSE,,,,,,,64,moneda,Spanish,Sounds/spa_moneda.mp3,2020-06-25_09h14.41.368,TranslationElicitation_eng-prolific-spa,3.2.4,Win32,60,5ee0c7ff8480ea0636fe856e,,1,0,98,60,1,97
,,,,,,,,,,,,,,,,,,,,,,,,,,,,,,,,,,,,,,,,,d,7.86500001,MOD,FALSE,,,,,,,64,moneda,Spanish,Sounds/spa_moneda.mp3,2020-06-25_09h14.41.368,TranslationElicitation_eng-prolific-spa,3.2.4,Win32,60,5ee0c7ff8480ea0636fe856e,,1,0,98,60,1,97
,,,,,,,,,,,,,,,,,,,,,,,,,,,,,,,,,,,,,,,,,e,8.082000017,MODE,FALSE,,,,,,,64,moneda,Spanish,Sounds/spa_moneda.mp3,2020-06-25_09h14.41.368,TranslationElicitation_eng-prolific-spa,3.2.4,Win32,60,5ee0c7ff8480ea0636fe856e,,1,0,98,60,1,97
,,,,,,,,,,,,,,,,,,,,,,,,,,,,,,,,,,,,,,,,,r,8.282000065,MODER,FALSE,,,,,,,64,moneda,Spanish,Sounds/spa_moneda.mp3,2020-06-25_09h14.41.368,TranslationElicitation_eng-prolific-spa,3.2.4,Win32,60,5ee0c7ff8480ea0636fe856e,,1,0,98,60,1,97
,,,,,,,,,,,,,,,,,,,,,,,,,,,,,,,,,,,,,,,,,n,8.431999922,MODERN,FALSE,,,,,,,64,moneda,Spanish,Sounds/spa_moneda.mp3,2020-06-25_09h14.41.368,TranslationElicitation_eng-prolific-spa,3.2.4,Win32,60,5ee0c7ff8480ea0636fe856e,,1,0,98,60,1,97
,,,,,,,,,,,,,,,,,,,,,,,,,,,,,,,,,,,,,,,,,return,9.014999866,MODERN,FALSE,,,,,,,64,moneda,Spanish,Sounds/spa_moneda.mp3,2020-06-25_09h14.41.368,TranslationElicitation_eng-prolific-spa,3.2.4,Win32,60,5ee0c7ff8480ea0636fe856e,9.014999866,1,0,98,60,1,97
,,,,,,,,,,,,,,,,,,,,,,,,,,,,,,,,,,,,,,,,,,,,,,,,,,,64,moneda,Spanish,Sounds/spa_moneda.mp3,2020-06-25_09h14.41.368,TranslationElicitation_eng-prolific-spa,3.2.4,Win32,60,5ee0c7ff8480ea0636fe856e,,1,0,98,60,1,97
,,,,,,,,,,,,,,,,,,,,,,,,,,,,,,,,,,,,,,,,,h,1.21600008,H,FALSE,,,,,,,27,chocolate,Spanish,Sounds/spa_chocolate.mp3,2020-06-25_09h14.41.368,TranslationElicitation_eng-prolific-spa,3.2.4,Win32,60,5ee0c7ff8480ea0636fe856e,,1,0,98,24,1,97
,,,,,,,,,,,,,,,,,,,,,,,,,,,,,,,,,,,,,,,,,o,1.450000048,HO,FALSE,,,,,,,27,chocolate,Spanish,Sounds/spa_chocolate.mp3,2020-06-25_09h14.41.368,TranslationElicitation_eng-prolific-spa,3.2.4,Win32,60,5ee0c7ff8480ea0636fe856e,,1,0,98,24,1,97
,,,,,,,,,,,,,,,,,,,,,,,,,,,,,,,,,,,,,,,,,c,1.550000191,HOC,FALSE,,,,,,,27,chocolate,Spanish,Sounds/spa_chocolate.mp3,2020-06-25_09h14.41.368,TranslationElicitation_eng-prolific-spa,3.2.4,Win32,60,5ee0c7ff8480ea0636fe856e,,1,0,98,24,1,97
,,,,,,,,,,,,,,,,,,,,,,,,,,,,,,,,,,,,,,,,,backspace,2.016000032,HO,TRUE,,,,,,,27,chocolate,Spanish,Sounds/spa_chocolate.mp3,2020-06-25_09h14.41.368,TranslationElicitation_eng-prolific-spa,3.2.4,Win32,60,5ee0c7ff8480ea0636fe856e,,1,0,98,24,1,97
,,,,,,,,,,,,,,,,,,,,,,,,,,,,,,,,,,,,,,,,,backspace,2.416000128,H,TRUE,,,,,,,27,chocolate,Spanish,Sounds/spa_chocolate.mp3,2020-06-25_09h14.41.368,TranslationElicitation_eng-prolific-spa,3.2.4,Win32,60,5ee0c7ff8480ea0636fe856e,,1,0,98,24,1,97
,,,,,,,,,,,,,,,,,,,,,,,,,,,,,,,,,,,,,,,,,backspace,2.616000175,,TRUE,,,,,,,27,chocolate,Spanish,Sounds/spa_chocolate.mp3,2020-06-25_09h14.41.368,TranslationElicitation_eng-prolific-spa,3.2.4,Win32,60,5ee0c7ff8480ea0636fe856e,,1,0,98,24,1,97
,,,,,,,,,,,,,,,,,,,,,,,,,,,,,,,,,,,,,,,,,c,3.183000088,C,TRUE,,,,,,,27,chocolate,Spanish,Sounds/spa_chocolate.mp3,2020-06-25_09h14.41.368,TranslationElicitation_eng-prolific-spa,3.2.4,Win32,60,5ee0c7ff8480ea0636fe856e,,1,0,98,24,1,97
,,,,,,,,,,,,,,,,,,,,,,,,,,,,,,,,,,,,,,,,,h,3.366000175,CH,TRUE,,,,,,,27,chocolate,Spanish,Sounds/spa_chocolate.mp3,2020-06-25_09h14.41.368,TranslationElicitation_eng-prolific-spa,3.2.4,Win32,60,5ee0c7ff8480ea0636fe856e,,1,0,98,24,1,97
,,,,,,,,,,,,,,,,,,,,,,,,,,,,,,,,,,,,,,,,,o,3.649000168,CHO,TRUE,,,,,,,27,chocolate,Spanish,Sounds/spa_chocolate.mp3,2020-06-25_09h14.41.368,TranslationElicitation_eng-prolific-spa,3.2.4,Win32,60,5ee0c7ff8480ea0636fe856e,,1,0,98,24,1,97
,,,,,,,,,,,,,,,,,,,,,,,,,,,,,,,,,,,,,,,,,c,4.332000017,CHOC,TRUE,,,,,,,27,chocolate,Spanish,Sounds/spa_chocolate.mp3,2020-06-25_09h14.41.368,TranslationElicitation_eng-prolific-spa,3.2.4,Win32,60,5ee0c7ff8480ea0636fe856e,,1,0,98,24,1,97
,,,,,,,,,,,,,,,,,,,,,,,,,,,,,,,,,,,,,,,,,o,4.499000072,CHOCO,TRUE,,,,,,,27,chocolate,Spanish,Sounds/spa_chocolate.mp3,2020-06-25_09h14.41.368,TranslationElicitation_eng-prolific-spa,3.2.4,Win32,60,5ee0c7ff8480ea0636fe856e,,1,0,98,24,1,97
,,,,,,,,,,,,,,,,,,,,,,,,,,,,,,,,,,,,,,,,,l,4.71600008,CHOCOL,TRUE,,,,,,,27,chocolate,Spanish,Sounds/spa_chocolate.mp3,2020-06-25_09h14.41.368,TranslationElicitation_eng-prolific-spa,3.2.4,Win32,60,5ee0c7ff8480ea0636fe856e,,1,0,98,24,1,97
,,,,,,,,,,,,,,,,,,,,,,,,,,,,,,,,,,,,,,,,,a,4.899000168,CHOCOLA,TRUE,,,,,,,27,chocolate,Spanish,Sounds/spa_chocolate.mp3,2020-06-25_09h14.41.368,TranslationElicitation_eng-prolific-spa,3.2.4,Win32,60,5ee0c7ff8480ea0636fe856e,,1,0,98,24,1,97
,,,,,,,,,,,,,,,,,,,,,,,,,,,,,,,,,,,,,,,,,t,5.465000153,CHOCOLAT,TRUE,,,,,,,27,chocolate,Spanish,Sounds/spa_chocolate.mp3,2020-06-25_09h14.41.368,TranslationElicitation_eng-prolific-spa,3.2.4,Win32,60,5ee0c7ff8480ea0636fe856e,,1,0,98,24,1,97
,,,,,,,,,,,,,,,,,,,,,,,,,,,,,,,,,,,,,,,,,e,5.732000113,CHOCOLATE,TRUE,,,,,,,27,chocolate,Spanish,Sounds/spa_chocolate.mp3,2020-06-25_09h14.41.368,TranslationElicitation_eng-prolific-spa,3.2.4,Win32,60,5ee0c7ff8480ea0636fe856e,,1,0,98,24,1,97
,,,,,,,,,,,,,,,,,,,,,,,,,,,,,,,,,,,,,,,,,return,6.015000105,CHOCOLATE,TRUE,,,,,,,27,chocolate,Spanish,Sounds/spa_chocolate.mp3,2020-06-25_09h14.41.368,TranslationElicitation_eng-prolific-spa,3.2.4,Win32,60,5ee0c7ff8480ea0636fe856e,6.015000105,1,0,98,24,1,97
,,,,,,,,,,,,,,,,,,,,,,,,,,,,,,,,,,,,,,,,,,,,,,,,,,,27,chocolate,Spanish,Sounds/spa_chocolate.mp3,2020-06-25_09h14.41.368,TranslationElicitation_eng-prolific-spa,3.2.4,Win32,60,5ee0c7ff8480ea0636fe856e,,1,0,98,24,1,97
,,,,,,,,,,,,,,,,,,,,,,,,,,,,,,,,,,,,,,,,,b,1.666000128,B,FALSE,,,,,,,6,boca,Spanish,Sounds/spa_boca.mp3,2020-06-25_09h14.41.368,TranslationElicitation_eng-prolific-spa,3.2.4,Win32,60,5ee0c7ff8480ea0636fe856e,,1,0,98,4,1,97
,,,,,,,,,,,,,,,,,,,,,,,,,,,,,,,,,,,,,,,,,o,1.982000113,BO,FALSE,,,,,,,6,boca,Spanish,Sounds/spa_boca.mp3,2020-06-25_09h14.41.368,TranslationElicitation_eng-prolific-spa,3.2.4,Win32,60,5ee0c7ff8480ea0636fe856e,,1,0,98,4,1,97
,,,,,,,,,,,,,,,,,,,,,,,,,,,,,,,,,,,,,,,,,o,2.149000168,BOO,FALSE,,,,,,,6,boca,Spanish,Sounds/spa_boca.mp3,2020-06-25_09h14.41.368,TranslationElicitation_eng-prolific-spa,3.2.4,Win32,60,5ee0c7ff8480ea0636fe856e,,1,0,98,4,1,97
,,,,,,,,,,,,,,,,,,,,,,,,,,,,,,,,,,,,,,,,,k,2.299000025,BOOK,FALSE,,,,,,,6,boca,Spanish,Sounds/spa_boca.mp3,2020-06-25_09h14.41.368,TranslationElicitation_eng-prolific-spa,3.2.4,Win32,60,5ee0c7ff8480ea0636fe856e,,1,0,98,4,1,97
,,,,,,,,,,,,,,,,,,,,,,,,,,,,,,,,,,,,,,,,,return,2.631999969,BOOK,FALSE,,,,,,,6,boca,Spanish,Sounds/spa_boca.mp3,2020-06-25_09h14.41.368,TranslationElicitation_eng-prolific-spa,3.2.4,Win32,60,5ee0c7ff8480ea0636fe856e,2.631999969,1,0,98,4,1,97
,,,,,,,,,,,,,,,,,,,,,,,,,,,,,,,,,,,,,,,,,,,,,,,,,,,6,boca,Spanish,Sounds/spa_boca.mp3,2020-06-25_09h14.41.368,TranslationElicitation_eng-prolific-spa,3.2.4,Win32,60,5ee0c7ff8480ea0636fe856e,,1,0,98,4,1,97
,,,,,,,,,,,,,,,,,,,,,,,,,,,,,,,,,,,,,,,,,p,2.065999985,P,FALSE,,,,,,,80,pato,Spanish,Sounds/spa_pato.mp3,2020-06-25_09h14.41.368,TranslationElicitation_eng-prolific-spa,3.2.4,Win32,60,5ee0c7ff8480ea0636fe856e,,1,0,98,75,1,97
,,,,,,,,,,,,,,,,,,,,,,,,,,,,,,,,,,,,,,,,,a,2.282999992,PA,FALSE,,,,,,,80,pato,Spanish,Sounds/spa_pato.mp3,2020-06-25_09h14.41.368,TranslationElicitation_eng-prolific-spa,3.2.4,Win32,60,5ee0c7ff8480ea0636fe856e,,1,0,98,75,1,97
,,,,,,,,,,,,,,,,,,,,,,,,,,,,,,,,,,,,,,,,,t,2.69900012,PAT,FALSE,,,,,,,80,pato,Spanish,Sounds/spa_pato.mp3,2020-06-25_09h14.41.368,TranslationElicitation_eng-prolific-spa,3.2.4,Win32,60,5ee0c7ff8480ea0636fe856e,,1,0,98,75,1,97
,,,,,,,,,,,,,,,,,,,,,,,,,,,,,,,,,,,,,,,,,e,2.94900012,PATE,FALSE,,,,,,,80,pato,Spanish,Sounds/spa_pato.mp3,2020-06-25_09h14.41.368,TranslationElicitation_eng-prolific-spa,3.2.4,Win32,60,5ee0c7ff8480ea0636fe856e,,1,0,98,75,1,97
,,,,,,,,,,,,,,,,,,,,,,,,,,,,,,,,,,,,,,,,,return,3.318000078,PATE,FALSE,,,,,,,80,pato,Spanish,Sounds/spa_pato.mp3,2020-06-25_09h14.41.368,TranslationElicitation_eng-prolific-spa,3.2.4,Win32,60,5ee0c7ff8480ea0636fe856e,3.318000078,1,0,98,75,1,97
,,,,,,,,,,,,,,,,,,,,,,,,,,,,,,,,,,,,,,,,,,,,,,,,,,,80,pato,Spanish,Sounds/spa_pato.mp3,2020-06-25_09h14.41.368,TranslationElicitation_eng-prolific-spa,3.2.4,Win32,60,5ee0c7ff8480ea0636fe856e,,1,0,98,75,1,97
,,,,,,,,,,,,,,,,,,,,,,,,,,,,,,,,,,,,,,,,,c,3.049000025,C,FALSE,,,,,,,31,cubo,Spanish,Sounds/spa_cubo.mp3,2020-06-25_09h14.41.368,TranslationElicitation_eng-prolific-spa,3.2.4,Win32,60,5ee0c7ff8480ea0636fe856e,,1,0,98,27,1,97
,,,,,,,,,,,,,,,,,,,,,,,,,,,,,,,,,,,,,,,,,u,3.19900012,CU,FALSE,,,,,,,31,cubo,Spanish,Sounds/spa_cubo.mp3,2020-06-25_09h14.41.368,TranslationElicitation_eng-prolific-spa,3.2.4,Win32,60,5ee0c7ff8480ea0636fe856e,,1,0,98,27,1,97
,,,,,,,,,,,,,,,,,,,,,,,,,,,,,,,,,,,,,,,,,t,3.43200016,CUT,FALSE,,,,,,,31,cubo,Spanish,Sounds/spa_cubo.mp3,2020-06-25_09h14.41.368,TranslationElicitation_eng-prolific-spa,3.2.4,Win32,60,5ee0c7ff8480ea0636fe856e,,1,0,98,27,1,97
,,,,,,,,,,,,,,,,,,,,,,,,,,,,,,,,,,,,,,,,,e,3.69900012,CUTE,FALSE,,,,,,,31,cubo,Spanish,Sounds/spa_cubo.mp3,2020-06-25_09h14.41.368,TranslationElicitation_eng-prolific-spa,3.2.4,Win32,60,5ee0c7ff8480ea0636fe856e,,1,0,98,27,1,97
,,,,,,,,,,,,,,,,,,,,,,,,,,,,,,,,,,,,,,,,,return,3.9150002,CUTE,FALSE,,,,,,,31,cubo,Spanish,Sounds/spa_cubo.mp3,2020-06-25_09h14.41.368,TranslationElicitation_eng-prolific-spa,3.2.4,Win32,60,5ee0c7ff8480ea0636fe856e,3.9150002,1,0,98,27,1,97
,,,,,,,,,,,,,,,,,,,,,,,,,,,,,,,,,,,,,,,,,,,,,,,,,,,31,cubo,Spanish,Sounds/spa_cubo.mp3,2020-06-25_09h14.41.368,TranslationElicitation_eng-prolific-spa,3.2.4,Win32,60,5ee0c7ff8480ea0636fe856e,,1,0,98,27,1,97
,,,,,,,,,,,,,,,,,,,,,,,,,,,,,,,,,,,,,,,,,c,5.33100009,C,FALSE,,,,,,,90,pollo,Spanish,Sounds/spa_pollo.mp3,2020-06-25_09h14.41.368,TranslationElicitation_eng-prolific-spa,3.2.4,Win32,60,5ee0c7ff8480ea0636fe856e,,1,0,98,85,1,97
,,,,,,,,,,,,,,,,,,,,,,,,,,,,,,,,,,,,,,,,,h,5.447999954,CH,FALSE,,,,,,,90,pollo,Spanish,Sounds/spa_pollo.mp3,2020-06-25_09h14.41.368,TranslationElicitation_eng-prolific-spa,3.2.4,Win32,60,5ee0c7ff8480ea0636fe856e,,1,0,98,85,1,97
,,,,,,,,,,,,,,,,,,,,,,,,,,,,,,,,,,,,,,,,,i,5.648000002,CHI,FALSE,,,,,,,90,pollo,Spanish,Sounds/spa_pollo.mp3,2020-06-25_09h14.41.368,TranslationElicitation_eng-prolific-spa,3.2.4,Win32,60,5ee0c7ff8480ea0636fe856e,,1,0,98,85,1,97
,,,,,,,,,,,,,,,,,,,,,,,,,,,,,,,,,,,,,,,,,c,5.730999947,CHIC,FALSE,,,,,,,90,pollo,Spanish,Sounds/spa_pollo.mp3,2020-06-25_09h14.41.368,TranslationElicitation_eng-prolific-spa,3.2.4,Win32,60,5ee0c7ff8480ea0636fe856e,,1,0,98,85,1,97
,,,,,,,,,,,,,,,,,,,,,,,,,,,,,,,,,,,,,,,,,k,6.58100009,CHICK,FALSE,,,,,,,90,pollo,Spanish,Sounds/spa_pollo.mp3,2020-06-25_09h14.41.368,TranslationElicitation_eng-prolific-spa,3.2.4,Win32,60,5ee0c7ff8480ea0636fe856e,,1,0,98,85,1,97
,,,,,,,,,,,,,,,,,,,,,,,,,,,,,,,,,,,,,,,,,e,6.697999954,CHICKE,FALSE,,,,,,,90,pollo,Spanish,Sounds/spa_pollo.mp3,2020-06-25_09h14.41.368,TranslationElicitation_eng-prolific-spa,3.2.4,Win32,60,5ee0c7ff8480ea0636fe856e,,1,0,98,85,1,97
,,,,,,,,,,,,,,,,,,,,,,,,,,,,,,,,,,,,,,,,,n,6.815000057,CHICKEN,FALSE,,,,,,,90,pollo,Spanish,Sounds/spa_pollo.mp3,2020-06-25_09h14.41.368,TranslationElicitation_eng-prolific-spa,3.2.4,Win32,60,5ee0c7ff8480ea0636fe856e,,1,0,98,85,1,97
,,,,,,,,,,,,,,,,,,,,,,,,,,,,,,,,,,,,,,,,,return,7.180999994,CHICKEN,FALSE,,,,,,,90,pollo,Spanish,Sounds/spa_pollo.mp3,2020-06-25_09h14.41.368,TranslationElicitation_eng-prolific-spa,3.2.4,Win32,60,5ee0c7ff8480ea0636fe856e,7.180999994,1,0,98,85,1,97
,,,,,,,,,,,,,,,,,,,,,,,,,,,,,,,,,,,,,,,,,,,,,,,,,,,90,pollo,Spanish,Sounds/spa_pollo.mp3,2020-06-25_09h14.41.368,TranslationElicitation_eng-prolific-spa,3.2.4,Win32,60,5ee0c7ff8480ea0636fe856e,,1,0,98,85,1,97
,,,,,,,,,,,,,,,,,,,,,,,,,,,,,,,,,,,,,,,,,g,3.082999945,G,FALSE,,,,,,,44,gorrion,Spanish,Sounds/spa_gorrion.mp3,2020-06-25_09h14.41.368,TranslationElicitation_eng-prolific-spa,3.2.4,Win32,60,5ee0c7ff8480ea0636fe856e,,1,0,98,40,1,97
,,,,,,,,,,,,,,,,,,,,,,,,,,,,,,,,,,,,,,,,,r,3.632999897,GR,FALSE,,,,,,,44,gorrion,Spanish,Sounds/spa_gorrion.mp3,2020-06-25_09h14.41.368,TranslationElicitation_eng-prolific-spa,3.2.4,Win32,60,5ee0c7ff8480ea0636fe856e,,1,0,98,40,1,97
,,,,,,,,,,,,,,,,,,,,,,,,,,,,,,,,,,,,,,,,,e,3.948999882,GRE,FALSE,,,,,,,44,gorrion,Spanish,Sounds/spa_gorrion.mp3,2020-06-25_09h14.41.368,TranslationElicitation_eng-prolific-spa,3.2.4,Win32,60,5ee0c7ff8480ea0636fe856e,,1,0,98,40,1,97
,,,,,,,,,,,,,,,,,,,,,,,,,,,,,,,,,,,,,,,,,e,4.148999929,GREE,FALSE,,,,,,,44,gorrion,Spanish,Sounds/spa_gorrion.mp3,2020-06-25_09h14.41.368,TranslationElicitation_eng-prolific-spa,3.2.4,Win32,60,5ee0c7ff8480ea0636fe856e,,1,0,98,40,1,97
,,,,,,,,,,,,,,,,,,,,,,,,,,,,,,,,,,,,,,,,,n,4.598999977,GREEN,FALSE,,,,,,,44,gorrion,Spanish,Sounds/spa_gorrion.mp3,2020-06-25_09h14.41.368,TranslationElicitation_eng-prolific-spa,3.2.4,Win32,60,5ee0c7ff8480ea0636fe856e,,1,0,98,40,1,97
,,,,,,,,,,,,,,,,,,,,,,,,,,,,,,,,,,,,,,,,,return,5.265000105,GREEN,FALSE,,,,,,,44,gorrion,Spanish,Sounds/spa_gorrion.mp3,2020-06-25_09h14.41.368,TranslationElicitation_eng-prolific-spa,3.2.4,Win32,60,5ee0c7ff8480ea0636fe856e,5.265000105,1,0,98,40,1,97
,,,,,,,,,,,,,,,,,,,,,,,,,,,,,,,,,,,,,,,,,,,,,,,,,,,44,gorrion,Spanish,Sounds/spa_gorrion.mp3,2020-06-25_09h14.41.368,TranslationElicitation_eng-prolific-spa,3.2.4,Win32,60,5ee0c7ff8480ea0636fe856e,,1,0,98,40,1,97
,,,,,,,,,,,,,,,,,,,,,,,,,,,,,,,,,,,,,,,,,b,1.882999897,B,FALSE,,,,,,,11,boton,Spanish,Sounds/spa_boton.mp3,2020-06-25_09h14.41.368,TranslationElicitation_eng-prolific-spa,3.2.4,Win32,60,5ee0c7ff8480ea0636fe856e,,1,0,98,9,1,97
,,,,,,,,,,,,,,,,,,,,,,,,,,,,,,,,,,,,,,,,,u,2.098999977,BU,FALSE,,,,,,,11,boton,Spanish,Sounds/spa_boton.mp3,2020-06-25_09h14.41.368,TranslationElicitation_eng-prolific-spa,3.2.4,Win32,60,5ee0c7ff8480ea0636fe856e,,1,0,98,9,1,97
,,,,,,,,,,,,,,,,,,,,,,,,,,,,,,,,,,,,,,,,,t,2.249000072,BUT,FALSE,,,,,,,11,boton,Spanish,Sounds/spa_boton.mp3,2020-06-25_09h14.41.368,TranslationElicitation_eng-prolific-spa,3.2.4,Win32,60,5ee0c7ff8480ea0636fe856e,,1,0,98,9,1,97
,,,,,,,,,,,,,,,,,,,,,,,,,,,,,,,,,,,,,,,,,t,2.448999882,BUTT,FALSE,,,,,,,11,boton,Spanish,Sounds/spa_boton.mp3,2020-06-25_09h14.41.368,TranslationElicitation_eng-prolific-spa,3.2.4,Win32,60,5ee0c7ff8480ea0636fe856e,,1,0,98,9,1,97
,,,,,,,,,,,,,,,,,,,,,,,,,,,,,,,,,,,,,,,,,o,2.931999922,BUTTO,FALSE,,,,,,,11,boton,Spanish,Sounds/spa_boton.mp3,2020-06-25_09h14.41.368,TranslationElicitation_eng-prolific-spa,3.2.4,Win32,60,5ee0c7ff8480ea0636fe856e,,1,0,98,9,1,97
,,,,,,,,,,,,,,,,,,,,,,,,,,,,,,,,,,,,,,,,,n,3.082000017,BUTTON,FALSE,,,,,,,11,boton,Spanish,Sounds/spa_boton.mp3,2020-06-25_09h14.41.368,TranslationElicitation_eng-prolific-spa,3.2.4,Win32,60,5ee0c7ff8480ea0636fe856e,,1,0,98,9,1,97
,,,,,,,,,,,,,,,,,,,,,,,,,,,,,,,,,,,,,,,,,return,3.598999977,BUTTON,FALSE,,,,,,,11,boton,Spanish,Sounds/spa_boton.mp3,2020-06-25_09h14.41.368,TranslationElicitation_eng-prolific-spa,3.2.4,Win32,60,5ee0c7ff8480ea0636fe856e,3.598999977,1,0,98,9,1,97
,,,,,,,,,,,,,,,,,,,,,,,,,,,,,,,,,,,,,,,,,,,,,,,,,,,11,boton,Spanish,Sounds/spa_boton.mp3,2020-06-25_09h14.41.368,TranslationElicitation_eng-prolific-spa,3.2.4,Win32,60,5ee0c7ff8480ea0636fe856e,,1,0,98,9,1,97
,,,,,,,,,,,,,,,,,,,,,,,,,,,,,,,,,,,,,,,,,m,2.499000072,M,FALSE,,,,,,,65,mono,Spanish,Sounds/spa_mono.mp3,2020-06-25_09h14.41.368,TranslationElicitation_eng-prolific-spa,3.2.4,Win32,60,5ee0c7ff8480ea0636fe856e,,1,0,98,61,1,97
,,,,,,,,,,,,,,,,,,,,,,,,,,,,,,,,,,,,,,,,,o,2.731999874,MO,FALSE,,,,,,,65,mono,Spanish,Sounds/spa_mono.mp3,2020-06-25_09h14.41.368,TranslationElicitation_eng-prolific-spa,3.2.4,Win32,60,5ee0c7ff8480ea0636fe856e,,1,0,98,61,1,97
,,,,,,,,,,,,,,,,,,,,,,,,,,,,,,,,,,,,,,,,,n,2.981999874,MON,FALSE,,,,,,,65,mono,Spanish,Sounds/spa_mono.mp3,2020-06-25_09h14.41.368,TranslationElicitation_eng-prolific-spa,3.2.4,Win32,60,5ee0c7ff8480ea0636fe856e,,1,0,98,61,1,97
,,,,,,,,,,,,,,,,,,,,,,,,,,,,,,,,,,,,,,,,,o,3.181999922,MONO,FALSE,,,,,,,65,mono,Spanish,Sounds/spa_mono.mp3,2020-06-25_09h14.41.368,TranslationElicitation_eng-prolific-spa,3.2.4,Win32,60,5ee0c7ff8480ea0636fe856e,,1,0,98,61,1,97
,,,,,,,,,,,,,,,,,,,,,,,,,,,,,,,,,,,,,,,,,b,3.731999874,MONOB,FALSE,,,,,,,65,mono,Spanish,Sounds/spa_mono.mp3,2020-06-25_09h14.41.368,TranslationElicitation_eng-prolific-spa,3.2.4,Win32,60,5ee0c7ff8480ea0636fe856e,,1,0,98,61,1,97
,,,,,,,,,,,,,,,,,,,,,,,,,,,,,,,,,,,,,,,,,r,3.931999922,MONOBR,FALSE,,,,,,,65,mono,Spanish,Sounds/spa_mono.mp3,2020-06-25_09h14.41.368,TranslationElicitation_eng-prolific-spa,3.2.4,Win32,60,5ee0c7ff8480ea0636fe856e,,1,0,98,61,1,97
,,,,,,,,,,,,,,,,,,,,,,,,,,,,,,,,,,,,,,,,,o,4.11500001,MONOBRO,FALSE,,,,,,,65,mono,Spanish,Sounds/spa_mono.mp3,2020-06-25_09h14.41.368,TranslationElicitation_eng-prolific-spa,3.2.4,Win32,60,5ee0c7ff8480ea0636fe856e,,1,0,98,61,1,97
,,,,,,,,,,,,,,,,,,,,,,,,,,,,,,,,,,,,,,,,,w,4.299000025,MONOBROW,FALSE,,,,,,,65,mono,Spanish,Sounds/spa_mono.mp3,2020-06-25_09h14.41.368,TranslationElicitation_eng-prolific-spa,3.2.4,Win32,60,5ee0c7ff8480ea0636fe856e,,1,0,98,61,1,97
,,,,,,,,,,,,,,,,,,,,,,,,,,,,,,,,,,,,,,,,,return,4.701999903,MONOBROW,FALSE,,,,,,,65,mono,Spanish,Sounds/spa_mono.mp3,2020-06-25_09h14.41.368,TranslationElicitation_eng-prolific-spa,3.2.4,Win32,60,5ee0c7ff8480ea0636fe856e,4.701999903,1,0,98,61,1,97
,,,,,,,,,,,,,,,,,,,,,,,,,,,,,,,,,,,,,,,,,,,,,,,,,,,65,mono,Spanish,Sounds/spa_mono.mp3,2020-06-25_09h14.41.368,TranslationElicitation_eng-prolific-spa,3.2.4,Win32,60,5ee0c7ff8480ea0636fe856e,,1,0,98,61,1,97
,,,,,,,,,,,,,,,,,,,,,,,,,,,,,,,,,,,,,,,,,c,1.565999985,C,FALSE,,,,,,,18,camisa,Spanish,Sounds/spa_camisa.mp3,2020-06-25_09h14.41.368,TranslationElicitation_eng-prolific-spa,3.2.4,Win32,60,5ee0c7ff8480ea0636fe856e,,1,0,98,16,1,97
,,,,,,,,,,,,,,,,,,,,,,,,,,,,,,,,,,,,,,,,,a,2.549000025,CA,FALSE,,,,,,,18,camisa,Spanish,Sounds/spa_camisa.mp3,2020-06-25_09h14.41.368,TranslationElicitation_eng-prolific-spa,3.2.4,Win32,60,5ee0c7ff8480ea0636fe856e,,1,0,98,16,1,97
,,,,,,,,,,,,,,,,,,,,,,,,,,,,,,,,,,,,,,,,,m,2.815999985,CAM,FALSE,,,,,,,18,camisa,Spanish,Sounds/spa_camisa.mp3,2020-06-25_09h14.41.368,TranslationElicitation_eng-prolific-spa,3.2.4,Win32,60,5ee0c7ff8480ea0636fe856e,,1,0,98,16,1,97
,,,,,,,,,,,,,,,,,,,,,,,,,,,,,,,,,,,,,,,,,i,3.016000032,CAMI,FALSE,,,,,,,18,camisa,Spanish,Sounds/spa_camisa.mp3,2020-06-25_09h14.41.368,TranslationElicitation_eng-prolific-spa,3.2.4,Win32,60,5ee0c7ff8480ea0636fe856e,,1,0,98,16,1,97
,,,,,,,,,,,,,,,,,,,,,,,,,,,,,,,,,,,,,,,,,return,3.44900012,CAMI,FALSE,,,,,,,18,camisa,Spanish,Sounds/spa_camisa.mp3,2020-06-25_09h14.41.368,TranslationElicitation_eng-prolific-spa,3.2.4,Win32,60,5ee0c7ff8480ea0636fe856e,3.44900012,1,0,98,16,1,97
,,,,,,,,,,,,,,,,,,,,,,,,,,,,,,,,,,,,,,,,,,,,,,,,,,,18,camisa,Spanish,Sounds/spa_camisa.mp3,2020-06-25_09h14.41.368,TranslationElicitation_eng-prolific-spa,3.2.4,Win32,60,5ee0c7ff8480ea0636fe856e,,1,0,98,16,1,97
,,,,,,,,,,,,,,,,,,,,,,,,,,,,,,,,,,,,,,,,,b,5.065000057,B,FALSE,,,,,,,50,jirafa,Spanish,Sounds/spa_jirafa.mp3,2020-06-25_09h14.41.368,TranslationElicitation_eng-prolific-spa,3.2.4,Win32,60,5ee0c7ff8480ea0636fe856e,,1,0,98,46,1,97
,,,,,,,,,,,,,,,,,,,,,,,,,,,,,,,,,,,,,,,,,o,5.348999977,BO,FALSE,,,,,,,50,jirafa,Spanish,Sounds/spa_jirafa.mp3,2020-06-25_09h14.41.368,TranslationElicitation_eng-prolific-spa,3.2.4,Win32,60,5ee0c7ff8480ea0636fe856e,,1,0,98,46,1,97
,,,,,,,,,,,,,,,,,,,,,,,,,,,,,,,,,,,,,,,,,s,5.549000025,BOS,FALSE,,,,,,,50,jirafa,Spanish,Sounds/spa_jirafa.mp3,2020-06-25_09h14.41.368,TranslationElicitation_eng-prolific-spa,3.2.4,Win32,60,5ee0c7ff8480ea0636fe856e,,1,0,98,46,1,97
,,,,,,,,,,,,,,,,,,,,,,,,,,,,,,,,,,,,,,,,,s,5.764999866,BOSS,FALSE,,,,,,,50,jirafa,Spanish,Sounds/spa_jirafa.mp3,2020-06-25_09h14.41.368,TranslationElicitation_eng-prolific-spa,3.2.4,Win32,60,5ee0c7ff8480ea0636fe856e,,1,0,98,46,1,97
,,,,,,,,,,,,,,,,,,,,,,,,,,,,,,,,,,,,,,,,,return,6.047999859,BOSS,FALSE,,,,,,,50,jirafa,Spanish,Sounds/spa_jirafa.mp3,2020-06-25_09h14.41.368,TranslationElicitation_eng-prolific-spa,3.2.4,Win32,60,5ee0c7ff8480ea0636fe856e,6.047999859,1,0,98,46,1,97
,,,,,,,,,,,,,,,,,,,,,,,,,,,,,,,,,,,,,,,,,,,,,,,,,,,50,jirafa,Spanish,Sounds/spa_jirafa.mp3,2020-06-25_09h14.41.368,TranslationElicitation_eng-prolific-spa,3.2.4,Win32,60,5ee0c7ff8480ea0636fe856e,,1,0,98,46,1,97
,,,,,,,,,,,,,,,,,,,,,,,,,,,,,,,,,,,,,,,,,m,1.931999922,M,FALSE,,,,,,,69,nariz,Spanish,Sounds/spa_nariz.mp3,2020-06-25_09h14.41.368,TranslationElicitation_eng-prolific-spa,3.2.4,Win32,60,5ee0c7ff8480ea0636fe856e,,1,0,98,65,1,97
,,,,,,,,,,,,,,,,,,,,,,,,,,,,,,,,,,,,,,,,,a,1.998999834,MA,FALSE,,,,,,,69,nariz,Spanish,Sounds/spa_nariz.mp3,2020-06-25_09h14.41.368,TranslationElicitation_eng-prolific-spa,3.2.4,Win32,60,5ee0c7ff8480ea0636fe856e,,1,0,98,65,1,97
,,,,,,,,,,,,,,,,,,,,,,,,,,,,,,,,,,,,,,,,,r,2.948999882,MAR,FALSE,,,,,,,69,nariz,Spanish,Sounds/spa_nariz.mp3,2020-06-25_09h14.41.368,TranslationElicitation_eng-prolific-spa,3.2.4,Win32,60,5ee0c7ff8480ea0636fe856e,,1,0,98,65,1,97
,,,,,,,,,,,,,,,,,,,,,,,,,,,,,,,,,,,,,,,,,i,3.11500001,MARI,FALSE,,,,,,,69,nariz,Spanish,Sounds/spa_nariz.mp3,2020-06-25_09h14.41.368,TranslationElicitation_eng-prolific-spa,3.2.4,Win32,60,5ee0c7ff8480ea0636fe856e,,1,0,98,65,1,97
,,,,,,,,,,,,,,,,,,,,,,,,,,,,,,,,,,,,,,,,,e,3.315000057,MARIE,FALSE,,,,,,,69,nariz,Spanish,Sounds/spa_nariz.mp3,2020-06-25_09h14.41.368,TranslationElicitation_eng-prolific-spa,3.2.4,Win32,60,5ee0c7ff8480ea0636fe856e,,1,0,98,65,1,97
,,,,,,,,,,,,,,,,,,,,,,,,,,,,,,,,,,,,,,,,,return,3.914999962,MARIE,FALSE,,,,,,,69,nariz,Spanish,Sounds/spa_nariz.mp3,2020-06-25_09h14.41.368,TranslationElicitation_eng-prolific-spa,3.2.4,Win32,60,5ee0c7ff8480ea0636fe856e,3.914999962,1,0,98,65,1,97
,,,,,,,,,,,,,,,,,,,,,,,,,,,,,,,,,,,,,,,,,,,,,,,,,,,69,nariz,Spanish,Sounds/spa_nariz.mp3,2020-06-25_09h14.41.368,TranslationElicitation_eng-prolific-spa,3.2.4,Win32,60,5ee0c7ff8480ea0636fe856e,,1,0,98,65,1,97
,,,,,,,,,,,,,,,,,,,,,,,,,,,,,,,,,,,,,,,,,a,2.732000113,A,FALSE,,,,,,,36,estrella,Spanish,Sounds/spa_estrella.mp3,2020-06-25_09h14.41.368,TranslationElicitation_eng-prolific-spa,3.2.4,Win32,60,5ee0c7ff8480ea0636fe856e,,1,0,98,32,1,97
,,,,,,,,,,,,,,,,,,,,,,,,,,,,,,,,,,,,,,,,,u,2.93200016,AU,FALSE,,,,,,,36,estrella,Spanish,Sounds/spa_estrella.mp3,2020-06-25_09h14.41.368,TranslationElicitation_eng-prolific-spa,3.2.4,Win32,60,5ee0c7ff8480ea0636fe856e,,1,0,98,32,1,97
,,,,,,,,,,,,,,,,,,,,,,,,,,,,,,,,,,,,,,,,,s,3.082000017,AUS,FALSE,,,,,,,36,estrella,Spanish,Sounds/spa_estrella.mp3,2020-06-25_09h14.41.368,TranslationElicitation_eng-prolific-spa,3.2.4,Win32,60,5ee0c7ff8480ea0636fe856e,,1,0,98,32,1,97
,,,,,,,,,,,,,,,,,,,,,,,,,,,,,,,,,,,,,,,,,t,3.482000113,AUST,FALSE,,,,,,,36,estrella,Spanish,Sounds/spa_estrella.mp3,2020-06-25_09h14.41.368,TranslationElicitation_eng-prolific-spa,3.2.4,Win32,60,5ee0c7ff8480ea0636fe856e,,1,0,98,32,1,97
,,,,,,,,,,,,,,,,,,,,,,,,,,,,,,,,,,,,,,,,,r,3.61500001,AUSTR,FALSE,,,,,,,36,estrella,Spanish,Sounds/spa_estrella.mp3,2020-06-25_09h14.41.368,TranslationElicitation_eng-prolific-spa,3.2.4,Win32,60,5ee0c7ff8480ea0636fe856e,,1,0,98,32,1,97
,,,,,,,,,,,,,,,,,,,,,,,,,,,,,,,,,,,,,,,,,a,3.86500001,AUSTRA,FALSE,,,,,,,36,estrella,Spanish,Sounds/spa_estrella.mp3,2020-06-25_09h14.41.368,TranslationElicitation_eng-prolific-spa,3.2.4,Win32,60,5ee0c7ff8480ea0636fe856e,,1,0,98,32,1,97
,,,,,,,,,,,,,,,,,,,,,,,,,,,,,,,,,,,,,,,,,l,3.998000145,AUSTRAL,FALSE,,,,,,,36,estrella,Spanish,Sounds/spa_estrella.mp3,2020-06-25_09h14.41.368,TranslationElicitation_eng-prolific-spa,3.2.4,Win32,60,5ee0c7ff8480ea0636fe856e,,1,0,98,32,1,97
,,,,,,,,,,,,,,,,,,,,,,,,,,,,,,,,,,,,,,,,,l,4.148000002,AUSTRALL,FALSE,,,,,,,36,estrella,Spanish,Sounds/spa_estrella.mp3,2020-06-25_09h14.41.368,TranslationElicitation_eng-prolific-spa,3.2.4,Win32,60,5ee0c7ff8480ea0636fe856e,,1,0,98,32,1,97
,,,,,,,,,,,,,,,,,,,,,,,,,,,,,,,,,,,,,,,,,i,4.34800005,AUSTRALLI,FALSE,,,,,,,36,estrella,Spanish,Sounds/spa_estrella.mp3,2020-06-25_09h14.41.368,TranslationElicitation_eng-prolific-spa,3.2.4,Win32,60,5ee0c7ff8480ea0636fe856e,,1,0,98,32,1,97
,,,,,,,,,,,,,,,,,,,,,,,,,,,,,,,,,,,,,,,,,a,4.531000137,AUSTRALLIA,FALSE,,,,,,,36,estrella,Spanish,Sounds/spa_estrella.mp3,2020-06-25_09h14.41.368,TranslationElicitation_eng-prolific-spa,3.2.4,Win32,60,5ee0c7ff8480ea0636fe856e,,1,0,98,32,1,97
,,,,,,,,,,,,,,,,,,,,,,,,,,,,,,,,,,,,,,,,,backspace,5.015000105,AUSTRALLI,TRUE,,,,,,,36,estrella,Spanish,Sounds/spa_estrella.mp3,2020-06-25_09h14.41.368,TranslationElicitation_eng-prolific-spa,3.2.4,Win32,60,5ee0c7ff8480ea0636fe856e,,1,0,98,32,1,97
,,,,,,,,,,,,,,,,,,,,,,,,,,,,,,,,,,,,,,,,,backspace,5.197999954,AUSTRALL,TRUE,,,,,,,36,estrella,Spanish,Sounds/spa_estrella.mp3,2020-06-25_09h14.41.368,TranslationElicitation_eng-prolific-spa,3.2.4,Win32,60,5ee0c7ff8480ea0636fe856e,,1,0,98,32,1,97
,,,,,,,,,,,,,,,,,,,,,,,,,,,,,,,,,,,,,,,,,backspace,5.631999969,AUSTRAL,TRUE,,,,,,,36,estrella,Spanish,Sounds/spa_estrella.mp3,2020-06-25_09h14.41.368,TranslationElicitation_eng-prolific-spa,3.2.4,Win32,60,5ee0c7ff8480ea0636fe856e,,1,0,98,32,1,97
,,,,,,,,,,,,,,,,,,,,,,,,,,,,,,,,,,,,,,,,,i,5.963999987,AUSTRALI,TRUE,,,,,,,36,estrella,Spanish,Sounds/spa_estrella.mp3,2020-06-25_09h14.41.368,TranslationElicitation_eng-prolific-spa,3.2.4,Win32,60,5ee0c7ff8480ea0636fe856e,,1,0,98,32,1,97
,,,,,,,,,,,,,,,,,,,,,,,,,,,,,,,,,,,,,,,,,a,6.114000082,AUSTRALIA,TRUE,,,,,,,36,estrella,Spanish,Sounds/spa_estrella.mp3,2020-06-25_09h14.41.368,TranslationElicitation_eng-prolific-spa,3.2.4,Win32,60,5ee0c7ff8480ea0636fe856e,,1,0,98,32,1,97
,,,,,,,,,,,,,,,,,,,,,,,,,,,,,,,,,,,,,,,,,return,6.531000137,AUSTRALIA,TRUE,,,,,,,36,estrella,Spanish,Sounds/spa_estrella.mp3,2020-06-25_09h14.41.368,TranslationElicitation_eng-prolific-spa,3.2.4,Win32,60,5ee0c7ff8480ea0636fe856e,6.531000137,1,0,98,32,1,97
,,,,,,,,,,,,,,,,,,,,,,,,,,,,,,,,,,,,,,,,,,,,,,,,,,,36,estrella,Spanish,Sounds/spa_estrella.mp3,2020-06-25_09h14.41.368,TranslationElicitation_eng-prolific-spa,3.2.4,Win32,60,5ee0c7ff8480ea0636fe856e,,1,0,98,32,1,97
,,,,,,,,,,,,,,,,,,,,,,,,,,,,,,,,,,,,,,,,,t,2.232000113,T,FALSE,,,,,,,94,tambor,Spanish,Sounds/spa_tambor.mp3,2020-06-25_09h14.41.368,TranslationElicitation_eng-prolific-spa,3.2.4,Win32,60,5ee0c7ff8480ea0636fe856e,,1,0,98,89,1,97
,,,,,,,,,,,,,,,,,,,,,,,,,,,,,,,,,,,,,,,,,a,3.065000057,TA,FALSE,,,,,,,94,tambor,Spanish,Sounds/spa_tambor.mp3,2020-06-25_09h14.41.368,TranslationElicitation_eng-prolific-spa,3.2.4,Win32,60,5ee0c7ff8480ea0636fe856e,,1,0,98,89,1,97
,,,,,,,,,,,,,,,,,,,,,,,,,,,,,,,,,,,,,,,,,m,3.282000065,TAM,FALSE,,,,,,,94,tambor,Spanish,Sounds/spa_tambor.mp3,2020-06-25_09h14.41.368,TranslationElicitation_eng-prolific-spa,3.2.4,Win32,60,5ee0c7ff8480ea0636fe856e,,1,0,98,89,1,97
,,,,,,,,,,,,,,,,,,,,,,,,,,,,,,,,,,,,,,,,,p,3.997999907,TAMP,FALSE,,,,,,,94,tambor,Spanish,Sounds/spa_tambor.mp3,2020-06-25_09h14.41.368,TranslationElicitation_eng-prolific-spa,3.2.4,Win32,60,5ee0c7ff8480ea0636fe856e,,1,0,98,89,1,97
,,,,,,,,,,,,,,,,,,,,,,,,,,,,,,,,,,,,,,,,,o,4.315000057,TAMPO,FALSE,,,,,,,94,tambor,Spanish,Sounds/spa_tambor.mp3,2020-06-25_09h14.41.368,TranslationElicitation_eng-prolific-spa,3.2.4,Win32,60,5ee0c7ff8480ea0636fe856e,,1,0,98,89,1,97
,,,,,,,,,,,,,,,,,,,,,,,,,,,,,,,,,,,,,,,,,c,5.180999994,TAMPOC,FALSE,,,,,,,94,tambor,Spanish,Sounds/spa_tambor.mp3,2020-06-25_09h14.41.368,TranslationElicitation_eng-prolific-spa,3.2.4,Win32,60,5ee0c7ff8480ea0636fe856e,,1,0,98,89,1,97
,,,,,,,,,,,,,,,,,,,,,,,,,,,,,,,,,,,,,,,,,o,5.548000097,TAMPOCO,FALSE,,,,,,,94,tambor,Spanish,Sounds/spa_tambor.mp3,2020-06-25_09h14.41.368,TranslationElicitation_eng-prolific-spa,3.2.4,Win32,60,5ee0c7ff8480ea0636fe856e,,1,0,98,89,1,97
,,,,,,,,,,,,,,,,,,,,,,,,,,,,,,,,,,,,,,,,,return,6.280999899,TAMPOCO,FALSE,,,,,,,94,tambor,Spanish,Sounds/spa_tambor.mp3,2020-06-25_09h14.41.368,TranslationElicitation_eng-prolific-spa,3.2.4,Win32,60,5ee0c7ff8480ea0636fe856e,6.280999899,1,0,98,89,1,97
,,,,,,,,,,,,,,,,,,,,,,,,,,,,,,,,,,,,,,,,,,,,,,,,,,,94,tambor,Spanish,Sounds/spa_tambor.mp3,2020-06-25_09h14.41.368,TranslationElicitation_eng-prolific-spa,3.2.4,Win32,60,5ee0c7ff8480ea0636fe856e,,1,0,98,89,1,97
,,,,,,,,,,,,,,,,,,,,,,,,,,,,,,,,,,,,,,,,,c,1.481999874,C,FALSE,,,,,,,16,caja,Spanish,Sounds/spa_caja.mp3,2020-06-25_09h14.41.368,TranslationElicitation_eng-prolific-spa,3.2.4,Win32,60,5ee0c7ff8480ea0636fe856e,,1,0,98,14,1,97
,,,,,,,,,,,,,,,,,,,,,,,,,,,,,,,,,,,,,,,,,a,1.731999874,CA,FALSE,,,,,,,16,caja,Spanish,Sounds/spa_caja.mp3,2020-06-25_09h14.41.368,TranslationElicitation_eng-prolific-spa,3.2.4,Win32,60,5ee0c7ff8480ea0636fe856e,,1,0,98,14,1,97
,,,,,,,,,,,,,,,,,,,,,,,,,,,,,,,,,,,,,,,,,r,2.065999985,CAR,FALSE,,,,,,,16,caja,Spanish,Sounds/spa_caja.mp3,2020-06-25_09h14.41.368,TranslationElicitation_eng-prolific-spa,3.2.4,Win32,60,5ee0c7ff8480ea0636fe856e,,1,0,98,14,1,97
,,,,,,,,,,,,,,,,,,,,,,,,,,,,,,,,,,,,,,,,,return,2.414999962,CAR,FALSE,,,,,,,16,caja,Spanish,Sounds/spa_caja.mp3,2020-06-25_09h14.41.368,TranslationElicitation_eng-prolific-spa,3.2.4,Win32,60,5ee0c7ff8480ea0636fe856e,2.414999962,1,0,98,14,1,97
,,,,,,,,,,,,,,,,,,,,,,,,,,,,,,,,,,,,,,,,,,,,,,,,,,,16,caja,Spanish,Sounds/spa_caja.mp3,2020-06-25_09h14.41.368,TranslationElicitation_eng-prolific-spa,3.2.4,Win32,60,5ee0c7ff8480ea0636fe856e,,1,0,98,14,1,97
,,,,,,,,,,,,,,,,,,,,,,,,,,,,,,,,,,,,,,,,,t,2.332999945,T,FALSE,,,,,,,19,camiseta,Spanish,Sounds/spa_camiseta.mp3,2020-06-25_09h14.41.368,TranslationElicitation_eng-prolific-spa,3.2.4,Win32,60,5ee0c7ff8480ea0636fe856e,,1,0,98,17,1,97
,,,,,,,,,,,,,,,,,,,,,,,,,,,,,,,,,,,,,,,,,s,3.082999945,TS,FALSE,,,,,,,19,camiseta,Spanish,Sounds/spa_camiseta.mp3,2020-06-25_09h14.41.368,TranslationElicitation_eng-prolific-spa,3.2.4,Win32,60,5ee0c7ff8480ea0636fe856e,,1,0,98,17,1,97
,,,,,,,,,,,,,,,,,,,,,,,,,,,,,,,,,,,,,,,,,h,3.23300004,TSH,FALSE,,,,,,,19,camiseta,Spanish,Sounds/spa_camiseta.mp3,2020-06-25_09h14.41.368,TranslationElicitation_eng-prolific-spa,3.2.4,Win32,60,5ee0c7ff8480ea0636fe856e,,1,0,98,17,1,97
,,,,,,,,,,,,,,,,,,,,,,,,,,,,,,,,,,,,,,,,,i,3.467000008,TSHI,FALSE,,,,,,,19,camiseta,Spanish,Sounds/spa_camiseta.mp3,2020-06-25_09h14.41.368,TranslationElicitation_eng-prolific-spa,3.2.4,Win32,60,5ee0c7ff8480ea0636fe856e,,1,0,98,17,1,97
,,,,,,,,,,,,,,,,,,,,,,,,,,,,,,,,,,,,,,,,,r,3.753000021,TSHIR,FALSE,,,,,,,19,camiseta,Spanish,Sounds/spa_camiseta.mp3,2020-06-25_09h14.41.368,TranslationElicitation_eng-prolific-spa,3.2.4,Win32,60,5ee0c7ff8480ea0636fe856e,,1,0,98,17,1,97
,,,,,,,,,,,,,,,,,,,,,,,,,,,,,,,,,,,,,,,,,backspace,4.433000088,TSHI,TRUE,,,,,,,19,camiseta,Spanish,Sounds/spa_camiseta.mp3,2020-06-25_09h14.41.368,TranslationElicitation_eng-prolific-spa,3.2.4,Win32,60,5ee0c7ff8480ea0636fe856e,,1,0,98,17,1,97
,,,,,,,,,,,,,,,,,,,,,,,,,,,,,,,,,,,,,,,,,backspace,4.631999969,TSH,TRUE,,,,,,,19,camiseta,Spanish,Sounds/spa_camiseta.mp3,2020-06-25_09h14.41.368,TranslationElicitation_eng-prolific-spa,3.2.4,Win32,60,5ee0c7ff8480ea0636fe856e,,1,0,98,17,1,97
,,,,,,,,,,,,,,,,,,,,,,,,,,,,,,,,,,,,,,,,,backspace,4.848999977,TS,TRUE,,,,,,,19,camiseta,Spanish,Sounds/spa_camiseta.mp3,2020-06-25_09h14.41.368,TranslationElicitation_eng-prolific-spa,3.2.4,Win32,60,5ee0c7ff8480ea0636fe856e,,1,0,98,17,1,97
,,,,,,,,,,,,,,,,,,,,,,,,,,,,,,,,,,,,,,,,,backspace,5.099999905,T,TRUE,,,,,,,19,camiseta,Spanish,Sounds/spa_camiseta.mp3,2020-06-25_09h14.41.368,TranslationElicitation_eng-prolific-spa,3.2.4,Win32,60,5ee0c7ff8480ea0636fe856e,,1,0,98,17,1,97
,,,,,,,,,,,,,,,,,,,,,,,,,,,,,,,,,,,,,,,,,space,5.615999937,T ,TRUE,,,,,,,19,camiseta,Spanish,Sounds/spa_camiseta.mp3,2020-06-25_09h14.41.368,TranslationElicitation_eng-prolific-spa,3.2.4,Win32,60,5ee0c7ff8480ea0636fe856e,,1,0,98,17,1,97
,,,,,,,,,,,,,,,,,,,,,,,,,,,,,,,,,,,,,,,,,s,6.065999985,T S,TRUE,,,,,,,19,camiseta,Spanish,Sounds/spa_camiseta.mp3,2020-06-25_09h14.41.368,TranslationElicitation_eng-prolific-spa,3.2.4,Win32,60,5ee0c7ff8480ea0636fe856e,,1,0,98,17,1,97
,,,,,,,,,,,,,,,,,,,,,,,,,,,,,,,,,,,,,,,,,h,6.299000025,T SH,TRUE,,,,,,,19,camiseta,Spanish,Sounds/spa_camiseta.mp3,2020-06-25_09h14.41.368,TranslationElicitation_eng-prolific-spa,3.2.4,Win32,60,5ee0c7ff8480ea0636fe856e,,1,0,98,17,1,97
,,,,,,,,,,,,,,,,,,,,,,,,,,,,,,,,,,,,,,,,,i,6.582000017,T SHI,TRUE,,,,,,,19,camiseta,Spanish,Sounds/spa_camiseta.mp3,2020-06-25_09h14.41.368,TranslationElicitation_eng-prolific-spa,3.2.4,Win32,60,5ee0c7ff8480ea0636fe856e,,1,0,98,17,1,97
,,,,,,,,,,,,,,,,,,,,,,,,,,,,,,,,,,,,,,,,,r,6.815999985,T SHIR,TRUE,,,,,,,19,camiseta,Spanish,Sounds/spa_camiseta.mp3,2020-06-25_09h14.41.368,TranslationElicitation_eng-prolific-spa,3.2.4,Win32,60,5ee0c7ff8480ea0636fe856e,,1,0,98,17,1,97
,,,,,,,,,,,,,,,,,,,,,,,,,,,,,,,,,,,,,,,,,t,6.999000072,T SHIRT,TRUE,,,,,,,19,camiseta,Spanish,Sounds/spa_camiseta.mp3,2020-06-25_09h14.41.368,TranslationElicitation_eng-prolific-spa,3.2.4,Win32,60,5ee0c7ff8480ea0636fe856e,,1,0,98,17,1,97
,,,,,,,,,,,,,,,,,,,,,,,,,,,,,,,,,,,,,,,,,return,7.951999903,T SHIRT,TRUE,,,,,,,19,camiseta,Spanish,Sounds/spa_camiseta.mp3,2020-06-25_09h14.41.368,TranslationElicitation_eng-prolific-spa,3.2.4,Win32,60,5ee0c7ff8480ea0636fe856e,7.951999903,1,0,98,17,1,97
,,,,,,,,,,,,,,,,,,,,,,,,,,,,,,,,,,,,,,,,,,,,,,,,,,,19,camiseta,Spanish,Sounds/spa_camiseta.mp3,2020-06-25_09h14.41.368,TranslationElicitation_eng-prolific-spa,3.2.4,Win32,60,5ee0c7ff8480ea0636fe856e,,1,0,98,17,1,97
,,,,,,,,,,,,,,,,,,,,,,,,,,,,,,,,,,,,,,,,,n,1.847999811,N,FALSE,,,,,,,72,osito,Spanish,Sounds/spa_osito.mp3,2020-06-25_09h14.41.368,TranslationElicitation_eng-prolific-spa,3.2.4,Win32,60,5ee0c7ff8480ea0636fe856e,,1,0,98,67,1,97
,,,,,,,,,,,,,,,,,,,,,,,,,,,,,,,,,,,,,,,,,p,2.11500001,NP,FALSE,,,,,,,72,osito,Spanish,Sounds/spa_osito.mp3,2020-06-25_09h14.41.368,TranslationElicitation_eng-prolific-spa,3.2.4,Win32,60,5ee0c7ff8480ea0636fe856e,,1,0,98,67,1,97
,,,,,,,,,,,,,,,,,,,,,,,,,,,,,,,,,,,,,,,,,backspace,2.901000023,N,TRUE,,,,,,,72,osito,Spanish,Sounds/spa_osito.mp3,2020-06-25_09h14.41.368,TranslationElicitation_eng-prolific-spa,3.2.4,Win32,60,5ee0c7ff8480ea0636fe856e,,1,0,98,67,1,97
,,,,,,,,,,,,,,,,,,,,,,,,,,,,,,,,,,,,,,,,,o,3.197999954,NO,TRUE,,,,,,,72,osito,Spanish,Sounds/spa_osito.mp3,2020-06-25_09h14.41.368,TranslationElicitation_eng-prolific-spa,3.2.4,Win32,60,5ee0c7ff8480ea0636fe856e,,1,0,98,67,1,97
,,,,,,,,,,,,,,,,,,,,,,,,,,,,,,,,,,,,,,,,,i,3.430999994,NOI,TRUE,,,,,,,72,osito,Spanish,Sounds/spa_osito.mp3,2020-06-25_09h14.41.368,TranslationElicitation_eng-prolific-spa,3.2.4,Win32,60,5ee0c7ff8480ea0636fe856e,,1,0,98,67,1,97
,,,,,,,,,,,,,,,,,,,,,,,,,,,,,,,,,,,,,,,,,s,3.530999899,NOIS,TRUE,,,,,,,72,osito,Spanish,Sounds/spa_osito.mp3,2020-06-25_09h14.41.368,TranslationElicitation_eng-prolific-spa,3.2.4,Win32,60,5ee0c7ff8480ea0636fe856e,,1,0,98,67,1,97
,,,,,,,,,,,,,,,,,,,,,,,,,,,,,,,,,,,,,,,,,y,3.697999954,NOISY,TRUE,,,,,,,72,osito,Spanish,Sounds/spa_osito.mp3,2020-06-25_09h14.41.368,TranslationElicitation_eng-prolific-spa,3.2.4,Win32,60,5ee0c7ff8480ea0636fe856e,,1,0,98,67,1,97
,,,,,,,,,,,,,,,,,,,,,,,,,,,,,,,,,,,,,,,,,return,4.080999851,NOISY,TRUE,,,,,,,72,osito,Spanish,Sounds/spa_osito.mp3,2020-06-25_09h14.41.368,TranslationElicitation_eng-prolific-spa,3.2.4,Win32,60,5ee0c7ff8480ea0636fe856e,4.080999851,1,0,98,67,1,97
,,,,,,,,,,,,,,,,,,,,,,,,,,,,,,,,,,,,,,,,,,,,,,,,,,,72,osito,Spanish,Sounds/spa_osito.mp3,2020-06-25_09h14.41.368,TranslationElicitation_eng-prolific-spa,3.2.4,Win32,60,5ee0c7ff8480ea0636fe856e,,1,0,98,67,1,97
,,,,,,,,,,,,,,,,,,,,,,,,,,,,,,,,,,,,,,,,,l,2.19900012,L,FALSE,,,,,,,87,platano,Spanish,Sounds/spa_platano.mp3,2020-06-25_09h14.41.368,TranslationElicitation_eng-prolific-spa,3.2.4,Win32,60,5ee0c7ff8480ea0636fe856e,,1,0,98,82,1,97
,,,,,,,,,,,,,,,,,,,,,,,,,,,,,,,,,,,,,,,,,a,2.416000128,LA,FALSE,,,,,,,87,platano,Spanish,Sounds/spa_platano.mp3,2020-06-25_09h14.41.368,TranslationElicitation_eng-prolific-spa,3.2.4,Win32,60,5ee0c7ff8480ea0636fe856e,,1,0,98,82,1,97
,,,,,,,,,,,,,,,,,,,,,,,,,,,,,,,,,,,,,,,,,t,2.633000135,LAT,FALSE,,,,,,,87,platano,Spanish,Sounds/spa_platano.mp3,2020-06-25_09h14.41.368,TranslationElicitation_eng-prolific-spa,3.2.4,Win32,60,5ee0c7ff8480ea0636fe856e,,1,0,98,82,1,97
,,,,,,,,,,,,,,,,,,,,,,,,,,,,,,,,,,,,,,,,,e,2.833000183,LATE,FALSE,,,,,,,87,platano,Spanish,Sounds/spa_platano.mp3,2020-06-25_09h14.41.368,TranslationElicitation_eng-prolific-spa,3.2.4,Win32,60,5ee0c7ff8480ea0636fe856e,,1,0,98,82,1,97
,,,,,,,,,,,,,,,,,,,,,,,,,,,,,,,,,,,,,,,,,r,2.999000072,LATER,FALSE,,,,,,,87,platano,Spanish,Sounds/spa_platano.mp3,2020-06-25_09h14.41.368,TranslationElicitation_eng-prolific-spa,3.2.4,Win32,60,5ee0c7ff8480ea0636fe856e,,1,0,98,82,1,97
,,,,,,,,,,,,,,,,,,,,,,,,,,,,,,,,,,,,,,,,,return,3.18200016,LATER,FALSE,,,,,,,87,platano,Spanish,Sounds/spa_platano.mp3,2020-06-25_09h14.41.368,TranslationElicitation_eng-prolific-spa,3.2.4,Win32,60,5ee0c7ff8480ea0636fe856e,3.18200016,1,0,98,82,1,97
,,,,,,,,,,,,,,,,,,,,,,,,,,,,,,,,,,,,,,,,,,,,,,,,,,,87,platano,Spanish,Sounds/spa_platano.mp3,2020-06-25_09h14.41.368,TranslationElicitation_eng-prolific-spa,3.2.4,Win32,60,5ee0c7ff8480ea0636fe856e,,1,0,98,82,1,97
,,,,,,,,,,,,,,,,,,,,,,,,,,,,,,,,,,,,,,,,,t,7.515999794,T,FALSE,,,,,,,97,tijeras,Spanish,Sounds/spa_tijeras.mp3,2020-06-25_09h14.41.368,TranslationElicitation_eng-prolific-spa,3.2.4,Win32,60,5ee0c7ff8480ea0636fe856e,,1,0,98,91,1,97
,,,,,,,,,,,,,,,,,,,,,,,,,,,,,,,,,,,,,,,,,a,8.698999882,TA,FALSE,,,,,,,97,tijeras,Spanish,Sounds/spa_tijeras.mp3,2020-06-25_09h14.41.368,TranslationElicitation_eng-prolific-spa,3.2.4,Win32,60,5ee0c7ff8480ea0636fe856e,,1,0,98,91,1,97
,,,,,,,,,,,,,,,,,,,,,,,,,,,,,,,,,,,,,,,,,r,9.014999866,TAR,FALSE,,,,,,,97,tijeras,Spanish,Sounds/spa_tijeras.mp3,2020-06-25_09h14.41.368,TranslationElicitation_eng-prolific-spa,3.2.4,Win32,60,5ee0c7ff8480ea0636fe856e,,1,0,98,91,1,97
,,,,,,,,,,,,,,,,,,,,,,,,,,,,,,,,,,,,,,,,,g,9.448999882,TARG,FALSE,,,,,,,97,tijeras,Spanish,Sounds/spa_tijeras.mp3,2020-06-25_09h14.41.368,TranslationElicitation_eng-prolific-spa,3.2.4,Win32,60,5ee0c7ff8480ea0636fe856e,,1,0,98,91,1,97
,,,,,,,,,,,,,,,,,,,,,,,,,,,,,,,,,,,,,,,,,e,9.582000017,TARGE,FALSE,,,,,,,97,tijeras,Spanish,Sounds/spa_tijeras.mp3,2020-06-25_09h14.41.368,TranslationElicitation_eng-prolific-spa,3.2.4,Win32,60,5ee0c7ff8480ea0636fe856e,,1,0,98,91,1,97
,,,,,,,,,,,,,,,,,,,,,,,,,,,,,,,,,,,,,,,,,t,9.797999859,TARGET,FALSE,,,,,,,97,tijeras,Spanish,Sounds/spa_tijeras.mp3,2020-06-25_09h14.41.368,TranslationElicitation_eng-prolific-spa,3.2.4,Win32,60,5ee0c7ff8480ea0636fe856e,,1,0,98,91,1,97
,,,,,,,,,,,,,,,,,,,,,,,,,,,,,,,,,,,,,,,,,return,10.31699991,TARGET,FALSE,,,,,,,97,tijeras,Spanish,Sounds/spa_tijeras.mp3,2020-06-25_09h14.41.368,TranslationElicitation_eng-prolific-spa,3.2.4,Win32,60,5ee0c7ff8480ea0636fe856e,10.31699991,1,0,98,91,1,97
,,,,,,,,,,,,,,,,,,,,,,,,,,,,,,,,,,,,,,,,,,,,,,,,,,,97,tijeras,Spanish,Sounds/spa_tijeras.mp3,2020-06-25_09h14.41.368,TranslationElicitation_eng-prolific-spa,3.2.4,Win32,60,5ee0c7ff8480ea0636fe856e,,1,0,98,91,1,97
,,,,,,,,,,,,,,,,,,,,,,,,,,,,,,,,,,,,,,,,,b,1.881999969,B,FALSE,,,,,,,5,bici,Spanish,Sounds/spa_bici.mp3,2020-06-25_09h14.41.368,TranslationElicitation_eng-prolific-spa,3.2.4,Win32,60,5ee0c7ff8480ea0636fe856e,,1,0,98,3,1,97
,,,,,,,,,,,,,,,,,,,,,,,,,,,,,,,,,,,,,,,,,i,2.131999969,BI,FALSE,,,,,,,5,bici,Spanish,Sounds/spa_bici.mp3,2020-06-25_09h14.41.368,TranslationElicitation_eng-prolific-spa,3.2.4,Win32,60,5ee0c7ff8480ea0636fe856e,,1,0,98,3,1,97
,,,,,,,,,,,,,,,,,,,,,,,,,,,,,,,,,,,,,,,,,c,2.332000017,BIC,FALSE,,,,,,,5,bici,Spanish,Sounds/spa_bici.mp3,2020-06-25_09h14.41.368,TranslationElicitation_eng-prolific-spa,3.2.4,Win32,60,5ee0c7ff8480ea0636fe856e,,1,0,98,3,1,97
,,,,,,,,,,,,,,,,,,,,,,,,,,,,,,,,,,,,,,,,,y,2.582000017,BICY,FALSE,,,,,,,5,bici,Spanish,Sounds/spa_bici.mp3,2020-06-25_09h14.41.368,TranslationElicitation_eng-prolific-spa,3.2.4,Win32,60,5ee0c7ff8480ea0636fe856e,,1,0,98,3,1,97
,,,,,,,,,,,,,,,,,,,,,,,,,,,,,,,,,,,,,,,,,e,2.832000017,BICYE,FALSE,,,,,,,5,bici,Spanish,Sounds/spa_bici.mp3,2020-06-25_09h14.41.368,TranslationElicitation_eng-prolific-spa,3.2.4,Win32,60,5ee0c7ff8480ea0636fe856e,,1,0,98,3,1,97
,,,,,,,,,,,,,,,,,,,,,,,,,,,,,,,,,,,,,,,,,l,3.014999866,BICYEL,FALSE,,,,,,,5,bici,Spanish,Sounds/spa_bici.mp3,2020-06-25_09h14.41.368,TranslationElicitation_eng-prolific-spa,3.2.4,Win32,60,5ee0c7ff8480ea0636fe856e,,1,0,98,3,1,97
,,,,,,,,,,,,,,,,,,,,,,,,,,,,,,,,,,,,,,,,,backspace,3.964999914,BICYE,TRUE,,,,,,,5,bici,Spanish,Sounds/spa_bici.mp3,2020-06-25_09h14.41.368,TranslationElicitation_eng-prolific-spa,3.2.4,Win32,60,5ee0c7ff8480ea0636fe856e,,1,0,98,3,1,97
,,,,,,,,,,,,,,,,,,,,,,,,,,,,,,,,,,,,,,,,,backspace,4.164999962,BICY,TRUE,,,,,,,5,bici,Spanish,Sounds/spa_bici.mp3,2020-06-25_09h14.41.368,TranslationElicitation_eng-prolific-spa,3.2.4,Win32,60,5ee0c7ff8480ea0636fe856e,,1,0,98,3,1,97
,,,,,,,,,,,,,,,,,,,,,,,,,,,,,,,,,,,,,,,,,c,4.714999914,BICYC,TRUE,,,,,,,5,bici,Spanish,Sounds/spa_bici.mp3,2020-06-25_09h14.41.368,TranslationElicitation_eng-prolific-spa,3.2.4,Win32,60,5ee0c7ff8480ea0636fe856e,,1,0,98,3,1,97
,,,,,,,,,,,,,,,,,,,,,,,,,,,,,,,,,,,,,,,,,l,4.914999962,BICYCL,TRUE,,,,,,,5,bici,Spanish,Sounds/spa_bici.mp3,2020-06-25_09h14.41.368,TranslationElicitation_eng-prolific-spa,3.2.4,Win32,60,5ee0c7ff8480ea0636fe856e,,1,0,98,3,1,97
,,,,,,,,,,,,,,,,,,,,,,,,,,,,,,,,,,,,,,,,,e,5.064999819,BICYCLE,TRUE,,,,,,,5,bici,Spanish,Sounds/spa_bici.mp3,2020-06-25_09h14.41.368,TranslationElicitation_eng-prolific-spa,3.2.4,Win32,60,5ee0c7ff8480ea0636fe856e,,1,0,98,3,1,97
,,,,,,,,,,,,,,,,,,,,,,,,,,,,,,,,,,,,,,,,,return,5.430999994,BICYCLE,TRUE,,,,,,,5,bici,Spanish,Sounds/spa_bici.mp3,2020-06-25_09h14.41.368,TranslationElicitation_eng-prolific-spa,3.2.4,Win32,60,5ee0c7ff8480ea0636fe856e,5.430999994,1,0,98,3,1,97
,,,,,,,,,,,,,,,,,,,,,,,,,,,,,,,,,,,,,,,,,,,,,,,,,,,5,bici,Spanish,Sounds/spa_bici.mp3,2020-06-25_09h14.41.368,TranslationElicitation_eng-prolific-spa,3.2.4,Win32,60,5ee0c7ff8480ea0636fe856e,,1,0,98,3,1,97
,,,,,,,,,,,,,,,,,,,,,,,,,,,,,,,,,,,,,,,,,b,6.664999962,B,FALSE,,,,,,,89,pluma,Spanish,Sounds/spa_pluma.mp3,2020-06-25_09h14.41.368,TranslationElicitation_eng-prolific-spa,3.2.4,Win32,60,5ee0c7ff8480ea0636fe856e,,1,0,98,84,1,97
,,,,,,,,,,,,,,,,,,,,,,,,,,,,,,,,,,,,,,,,,backspace,8.031999826,,TRUE,,,,,,,89,pluma,Spanish,Sounds/spa_pluma.mp3,2020-06-25_09h14.41.368,TranslationElicitation_eng-prolific-spa,3.2.4,Win32,60,5ee0c7ff8480ea0636fe856e,,1,0,98,84,1,97
,,,,,,,,,,,,,,,,,,,,,,,,,,,,,,,,,,,,,,,,,p,9.197999954,P,TRUE,,,,,,,89,pluma,Spanish,Sounds/spa_pluma.mp3,2020-06-25_09h14.41.368,TranslationElicitation_eng-prolific-spa,3.2.4,Win32,60,5ee0c7ff8480ea0636fe856e,,1,0,98,84,1,97
,,,,,,,,,,,,,,,,,,,,,,,,,,,,,,,,,,,,,,,,,u,10.7809999,PU,TRUE,,,,,,,89,pluma,Spanish,Sounds/spa_pluma.mp3,2020-06-25_09h14.41.368,TranslationElicitation_eng-prolific-spa,3.2.4,Win32,60,5ee0c7ff8480ea0636fe856e,,1,0,98,84,1,97
,,,,,,,,,,,,,,,,,,,,,,,,,,,,,,,,,,,,,,,,,r,11.46499991,PUR,TRUE,,,,,,,89,pluma,Spanish,Sounds/spa_pluma.mp3,2020-06-25_09h14.41.368,TranslationElicitation_eng-prolific-spa,3.2.4,Win32,60,5ee0c7ff8480ea0636fe856e,,1,0,98,84,1,97
,,,,,,,,,,,,,,,,,,,,,,,,,,,,,,,,,,,,,,,,,p,12.06499982,PURP,TRUE,,,,,,,89,pluma,Spanish,Sounds/spa_pluma.mp3,2020-06-25_09h14.41.368,TranslationElicitation_eng-prolific-spa,3.2.4,Win32,60,5ee0c7ff8480ea0636fe856e,,1,0,98,84,1,97
,,,,,,,,,,,,,,,,,,,,,,,,,,,,,,,,,,,,,,,,,l,12.31399989,PURPL,TRUE,,,,,,,89,pluma,Spanish,Sounds/spa_pluma.mp3,2020-06-25_09h14.41.368,TranslationElicitation_eng-prolific-spa,3.2.4,Win32,60,5ee0c7ff8480ea0636fe856e,,1,0,98,84,1,97
,,,,,,,,,,,,,,,,,,,,,,,,,,,,,,,,,,,,,,,,,e,13.0309999,PURPLE,TRUE,,,,,,,89,pluma,Spanish,Sounds/spa_pluma.mp3,2020-06-25_09h14.41.368,TranslationElicitation_eng-prolific-spa,3.2.4,Win32,60,5ee0c7ff8480ea0636fe856e,,1,0,98,84,1,97
,,,,,,,,,,,,,,,,,,,,,,,,,,,,,,,,,,,,,,,,,return,13.74699998,PURPLE,TRUE,,,,,,,89,pluma,Spanish,Sounds/spa_pluma.mp3,2020-06-25_09h14.41.368,TranslationElicitation_eng-prolific-spa,3.2.4,Win32,60,5ee0c7ff8480ea0636fe856e,13.74699998,1,0,98,84,1,97
,,,,,,,,,,,,,,,,,,,,,,,,,,,,,,,,,,,,,,,,,,,,,,,,,,,89,pluma,Spanish,Sounds/spa_pluma.mp3,2020-06-25_09h14.41.368,TranslationElicitation_eng-prolific-spa,3.2.4,Win32,60,5ee0c7ff8480ea0636fe856e,,1,0,98,84,1,97
,,,,,,,,,,,,,,,,,,,,,,,,,,,,,,,,,,,,,,,,,r,7.197999954,R,FALSE,,,,,,,98,tobogan,Spanish,Sounds/spa_tobogan.mp3,2020-06-25_09h14.41.368,TranslationElicitation_eng-prolific-spa,3.2.4,Win32,60,5ee0c7ff8480ea0636fe856e,,1,0,98,92,1,97
,,,,,,,,,,,,,,,,,,,,,,,,,,,,,,,,,,,,,,,,,a,7.664999962,RA,FALSE,,,,,,,98,tobogan,Spanish,Sounds/spa_tobogan.mp3,2020-06-25_09h14.41.368,TranslationElicitation_eng-prolific-spa,3.2.4,Win32,60,5ee0c7ff8480ea0636fe856e,,1,0,98,92,1,97
,,,,,,,,,,,,,,,,,,,,,,,,,,,,,,,,,,,,,,,,,n,8.197999954,RAN,FALSE,,,,,,,98,tobogan,Spanish,Sounds/spa_tobogan.mp3,2020-06-25_09h14.41.368,TranslationElicitation_eng-prolific-spa,3.2.4,Win32,60,5ee0c7ff8480ea0636fe856e,,1,0,98,92,1,97
,,,,,,,,,,,,,,,,,,,,,,,,,,,,,,,,,,,,,,,,,return,8.947999954,RAN,FALSE,,,,,,,98,tobogan,Spanish,Sounds/spa_tobogan.mp3,2020-06-25_09h14.41.368,TranslationElicitation_eng-prolific-spa,3.2.4,Win32,60,5ee0c7ff8480ea0636fe856e,8.947999954,1,0,98,92,1,97
,,,,,,,,,,,,,,,,,,,,,,,,,,,,,,,,,,,,,,,,,,,,,,,,,,,98,tobogan,Spanish,Sounds/spa_tobogan.mp3,2020-06-25_09h14.41.368,TranslationElicitation_eng-prolific-spa,3.2.4,Win32,60,5ee0c7ff8480ea0636fe856e,,1,0,98,92,1,97
,,,,,,,,,,,,,,,,,,,,,,,,,,,,,,,,,,,,,,,,,g,3.414999962,G,FALSE,,,,,,,40,galleta,Spanish,Sounds/spa_galleta.mp3,2020-06-25_09h14.41.368,TranslationElicitation_eng-prolific-spa,3.2.4,Win32,60,5ee0c7ff8480ea0636fe856e,,1,0,98,36,1,97
,,,,,,,,,,,,,,,,,,,,,,,,,,,,,,,,,,,,,,,,,a,3.965000153,GA,FALSE,,,,,,,40,galleta,Spanish,Sounds/spa_galleta.mp3,2020-06-25_09h14.41.368,TranslationElicitation_eng-prolific-spa,3.2.4,Win32,60,5ee0c7ff8480ea0636fe856e,,1,0,98,36,1,97
,,,,,,,,,,,,,,,,,,,,,,,,,,,,,,,,,,,,,,,,,t,4.36500001,GAT,FALSE,,,,,,,40,galleta,Spanish,Sounds/spa_galleta.mp3,2020-06-25_09h14.41.368,TranslationElicitation_eng-prolific-spa,3.2.4,Win32,60,5ee0c7ff8480ea0636fe856e,,1,0,98,36,1,97
,,,,,,,,,,,,,,,,,,,,,,,,,,,,,,,,,,,,,,,,,e,4.644000053,GATE,FALSE,,,,,,,40,galleta,Spanish,Sounds/spa_galleta.mp3,2020-06-25_09h14.41.368,TranslationElicitation_eng-prolific-spa,3.2.4,Win32,60,5ee0c7ff8480ea0636fe856e,,1,0,98,36,1,97
,,,,,,,,,,,,,,,,,,,,,,,,,,,,,,,,,,,,,,,,,backspace,5.914999962,GAT,TRUE,,,,,,,40,galleta,Spanish,Sounds/spa_galleta.mp3,2020-06-25_09h14.41.368,TranslationElicitation_eng-prolific-spa,3.2.4,Win32,60,5ee0c7ff8480ea0636fe856e,,1,0,98,36,1,97
,,,,,,,,,,,,,,,,,,,,,,,,,,,,,,,,,,,,,,,,,backspace,6.148000002,GA,TRUE,,,,,,,40,galleta,Spanish,Sounds/spa_galleta.mp3,2020-06-25_09h14.41.368,TranslationElicitation_eng-prolific-spa,3.2.4,Win32,60,5ee0c7ff8480ea0636fe856e,,1,0,98,36,1,97
,,,,,,,,,,,,,,,,,,,,,,,,,,,,,,,,,,,,,,,,,r,6.914999962,GAR,TRUE,,,,,,,40,galleta,Spanish,Sounds/spa_galleta.mp3,2020-06-25_09h14.41.368,TranslationElicitation_eng-prolific-spa,3.2.4,Win32,60,5ee0c7ff8480ea0636fe856e,,1,0,98,36,1,97
,,,,,,,,,,,,,,,,,,,,,,,,,,,,,,,,,,,,,,,,,a,8.498000145,GARA,TRUE,,,,,,,40,galleta,Spanish,Sounds/spa_galleta.mp3,2020-06-25_09h14.41.368,TranslationElicitation_eng-prolific-spa,3.2.4,Win32,60,5ee0c7ff8480ea0636fe856e,,1,0,98,36,1,97
,,,,,,,,,,,,,,,,,,,,,,,,,,,,,,,,,,,,,,,,,g,8.930999994,GARAG,TRUE,,,,,,,40,galleta,Spanish,Sounds/spa_galleta.mp3,2020-06-25_09h14.41.368,TranslationElicitation_eng-prolific-spa,3.2.4,Win32,60,5ee0c7ff8480ea0636fe856e,,1,0,98,36,1,97
,,,,,,,,,,,,,,,,,,,,,,,,,,,,,,,,,,,,,,,,,e,9.248000145,GARAGE,TRUE,,,,,,,40,galleta,Spanish,Sounds/spa_galleta.mp3,2020-06-25_09h14.41.368,TranslationElicitation_eng-prolific-spa,3.2.4,Win32,60,5ee0c7ff8480ea0636fe856e,,1,0,98,36,1,97
,,,,,,,,,,,,,,,,,,,,,,,,,,,,,,,,,,,,,,,,,return,9.864000082,GARAGE,TRUE,,,,,,,40,galleta,Spanish,Sounds/spa_galleta.mp3,2020-06-25_09h14.41.368,TranslationElicitation_eng-prolific-spa,3.2.4,Win32,60,5ee0c7ff8480ea0636fe856e,9.864000082,1,0,98,36,1,97
,,,,,,,,,,,,,,,,,,,,,,,,,,,,,,,,,,,,,,,,,,,,,,,,,,,40,galleta,Spanish,Sounds/spa_galleta.mp3,2020-06-25_09h14.41.368,TranslationElicitation_eng-prolific-spa,3.2.4,Win32,60,5ee0c7ff8480ea0636fe856e,,1,0,98,36,1,97
,,,,,,,,,,,,,,,,,,,,,,,,,,,,,,,,,,,,,,,,,m,2.649000168,M,FALSE,,,,,,,61,mariposa,Spanish,Sounds/spa_mariposa.mp3,2020-06-25_09h14.41.368,TranslationElicitation_eng-prolific-spa,3.2.4,Win32,60,5ee0c7ff8480ea0636fe856e,,1,0,98,57,1,97
,,,,,,,,,,,,,,,,,,,,,,,,,,,,,,,,,,,,,,,,,a,3.21600008,MA,FALSE,,,,,,,61,mariposa,Spanish,Sounds/spa_mariposa.mp3,2020-06-25_09h14.41.368,TranslationElicitation_eng-prolific-spa,3.2.4,Win32,60,5ee0c7ff8480ea0636fe856e,,1,0,98,57,1,97
,,,,,,,,,,,,,,,,,,,,,,,,,,,,,,,,,,,,,,,,,r,3.532000065,MAR,FALSE,,,,,,,61,mariposa,Spanish,Sounds/spa_mariposa.mp3,2020-06-25_09h14.41.368,TranslationElicitation_eng-prolific-spa,3.2.4,Win32,60,5ee0c7ff8480ea0636fe856e,,1,0,98,57,1,97
,,,,,,,,,,,,,,,,,,,,,,,,,,,,,,,,,,,,,,,,,r,3.715000153,MARR,FALSE,,,,,,,61,mariposa,Spanish,Sounds/spa_mariposa.mp3,2020-06-25_09h14.41.368,TranslationElicitation_eng-prolific-spa,3.2.4,Win32,60,5ee0c7ff8480ea0636fe856e,,1,0,98,57,1,97
,,,,,,,,,,,,,,,,,,,,,,,,,,,,,,,,,,,,,,,,,i,4.25,MARRI,FALSE,,,,,,,61,mariposa,Spanish,Sounds/spa_mariposa.mp3,2020-06-25_09h14.41.368,TranslationElicitation_eng-prolific-spa,3.2.4,Win32,60,5ee0c7ff8480ea0636fe856e,,1,0,98,57,1,97
,,,,,,,,,,,,,,,,,,,,,,,,,,,,,,,,,,,,,,,,,a,4.84800005,MARRIA,FALSE,,,,,,,61,mariposa,Spanish,Sounds/spa_mariposa.mp3,2020-06-25_09h14.41.368,TranslationElicitation_eng-prolific-spa,3.2.4,Win32,60,5ee0c7ff8480ea0636fe856e,,1,0,98,57,1,97
,,,,,,,,,,,,,,,,,,,,,,,,,,,,,,,,,,,,,,,,,g,5.282000065,MARRIAG,FALSE,,,,,,,61,mariposa,Spanish,Sounds/spa_mariposa.mp3,2020-06-25_09h14.41.368,TranslationElicitation_eng-prolific-spa,3.2.4,Win32,60,5ee0c7ff8480ea0636fe856e,,1,0,98,57,1,97
,,,,,,,,,,,,,,,,,,,,,,,,,,,,,,,,,,,,,,,,,e,5.59800005,MARRIAGE,FALSE,,,,,,,61,mariposa,Spanish,Sounds/spa_mariposa.mp3,2020-06-25_09h14.41.368,TranslationElicitation_eng-prolific-spa,3.2.4,Win32,60,5ee0c7ff8480ea0636fe856e,,1,0,98,57,1,97
,,,,,,,,,,,,,,,,,,,,,,,,,,,,,,,,,,,,,,,,,return,6.914000034,MARRIAGE,FALSE,,,,,,,61,mariposa,Spanish,Sounds/spa_mariposa.mp3,2020-06-25_09h14.41.368,TranslationElicitation_eng-prolific-spa,3.2.4,Win32,60,5ee0c7ff8480ea0636fe856e,6.914000034,1,0,98,57,1,97
,,,,,,,,,,,,,,,,,,,,,,,,,,,,,,,,,,,,,,,,,,,,,,,,,,,61,mariposa,Spanish,Sounds/spa_mariposa.mp3,2020-06-25_09h14.41.368,TranslationElicitation_eng-prolific-spa,3.2.4,Win32,60,5ee0c7ff8480ea0636fe856e,,1,0,98,57,1,97
,,,,,,,,,,,,,,,,,,,,,,,,,,,,,,,,,,,,,,,,,b,2.1650002,B,FALSE,,,,,,,4,biberon,Spanish,Sounds/spa_biberon.mp3,2020-06-25_09h14.41.368,TranslationElicitation_eng-prolific-spa,3.2.4,Win32,60,5ee0c7ff8480ea0636fe856e,,1,0,98,2,1,97
,,,,,,,,,,,,,,,,,,,,,,,,,,,,,,,,,,,,,,,,,r,2.43200016,BR,FALSE,,,,,,,4,biberon,Spanish,Sounds/spa_biberon.mp3,2020-06-25_09h14.41.368,TranslationElicitation_eng-prolific-spa,3.2.4,Win32,60,5ee0c7ff8480ea0636fe856e,,1,0,98,2,1,97
,,,,,,,,,,,,,,,,,,,,,,,,,,,,,,,,,,,,,,,,,o,2.565999985,BRO,FALSE,,,,,,,4,biberon,Spanish,Sounds/spa_biberon.mp3,2020-06-25_09h14.41.368,TranslationElicitation_eng-prolific-spa,3.2.4,Win32,60,5ee0c7ff8480ea0636fe856e,,1,0,98,2,1,97
,,,,,,,,,,,,,,,,,,,,,,,,,,,,,,,,,,,,,,,,,w,2.69900012,BROW,FALSE,,,,,,,4,biberon,Spanish,Sounds/spa_biberon.mp3,2020-06-25_09h14.41.368,TranslationElicitation_eng-prolific-spa,3.2.4,Win32,60,5ee0c7ff8480ea0636fe856e,,1,0,98,2,1,97
,,,,,,,,,,,,,,,,,,,,,,,,,,,,,,,,,,,,,,,,,n,2.800000191,BROWN,FALSE,,,,,,,4,biberon,Spanish,Sounds/spa_biberon.mp3,2020-06-25_09h14.41.368,TranslationElicitation_eng-prolific-spa,3.2.4,Win32,60,5ee0c7ff8480ea0636fe856e,,1,0,98,2,1,97
,,,,,,,,,,,,,,,,,,,,,,,,,,,,,,,,,,,,,,,,,return,3.149000168,BROWN,FALSE,,,,,,,4,biberon,Spanish,Sounds/spa_biberon.mp3,2020-06-25_09h14.41.368,TranslationElicitation_eng-prolific-spa,3.2.4,Win32,60,5ee0c7ff8480ea0636fe856e,3.149000168,1,0,98,2,1,97
