consentKey.keys,consentKey.rt,languageL1Key.keys,languageL1Key.rt,languageL2,languageL2OralKey.keys,languageL2OralKey.rt,languageL2WrittenKey.keys,languageL2WrittenKey.rt,languageL3OralKey.keys,languageL3OralKey.rt,languageL3WrittenKey.keys,languageL3WrittenKey.rt,languageCatalanOralKey.keys,languageCatalanOralKey.rt,languageCatalanWrittenKey.keys,languageCatalanWrittenKey.rt,languageCatalanTimeKey.keys,languageCatalanTimeKey.rt,age,demoSexKey.keys,demoSexKey.rt,demoEducationKey.keys,demoEducationKey.rt,city,demoVisionKey.keys,demoVisionKey.rt,demoLanguageKey.keys,demoLanguageKey.rt,setupLocationKey.keys,setupLocationKey.rt,setupNoiseKey.keys,setupNoiseKey.rt,instructionsKeys.keys,instructionsKeys.rt,keyPressed,keyPressTime,inputText,error,trials_practice.thisRepN,trials_practice.thisTrialN,trials_practice.thisN,trials_practice.thisIndex,trials_practice.ran,trials_practice.order,trial_id,word,test_language,soundfile,date,expName,psychopyVersion,OS,frameRate,participant,trialOffset,trials.thisRepN,trials.thisTrialN,trials.thisN,trials.thisIndex,trials.ran,trials.order
space,2.785000086,e,6.917999983,,,,,,,,,,2,9.698000193,1,4.13100028,1,7.713999987,22,m,1.519000053,3,5.431000233,MURCIA,n,5.296000004,n,3.925000191,1,3.387000084,2,15.8360002,space,15.977,u,4.480000019,U,FALSE,1,0,5,2,1,4,159,onada,Catalan,Sounds/cat_onada.mp3,2020-06-13_12h25.09.538,TranslationElicitation_spa,3.2.4,Win32,60,5ee3dd701da2350bd1e67f35,,,,,,,
,,,,,,,,,,,,,,,,,,,,,,,,,,,,,,,,,,,n,5.11500001,UN,FALSE,1,0,5,2,1,4,159,onada,Catalan,Sounds/cat_onada.mp3,2020-06-13_12h25.09.538,TranslationElicitation_spa,3.2.4,Win32,60,5ee3dd701da2350bd1e67f35,,,,,,,
,,,,,,,,,,,,,,,,,,,,,,,,,,,,,,,,,,,space,5.266000032,UN ,FALSE,1,0,5,2,1,4,159,onada,Catalan,Sounds/cat_onada.mp3,2020-06-13_12h25.09.538,TranslationElicitation_spa,3.2.4,Win32,60,5ee3dd701da2350bd1e67f35,,,,,,,
,,,,,,,,,,,,,,,,,,,,,,,,,,,,,,,,,,,h,5.451000214,UN H,FALSE,1,0,5,2,1,4,159,onada,Catalan,Sounds/cat_onada.mp3,2020-06-13_12h25.09.538,TranslationElicitation_spa,3.2.4,Win32,60,5ee3dd701da2350bd1e67f35,,,,,,,
,,,,,,,,,,,,,,,,,,,,,,,,,,,,,,,,,,,a,5.585000038,UN HA,FALSE,1,0,5,2,1,4,159,onada,Catalan,Sounds/cat_onada.mp3,2020-06-13_12h25.09.538,TranslationElicitation_spa,3.2.4,Win32,60,5ee3dd701da2350bd1e67f35,,,,,,,
,,,,,,,,,,,,,,,,,,,,,,,,,,,,,,,,,,,d,5.755000114,UN HAD,FALSE,1,0,5,2,1,4,159,onada,Catalan,Sounds/cat_onada.mp3,2020-06-13_12h25.09.538,TranslationElicitation_spa,3.2.4,Win32,60,5ee3dd701da2350bd1e67f35,,,,,,,
,,,,,,,,,,,,,,,,,,,,,,,,,,,,,,,,,,,a,5.869000196,UN HADA,FALSE,1,0,5,2,1,4,159,onada,Catalan,Sounds/cat_onada.mp3,2020-06-13_12h25.09.538,TranslationElicitation_spa,3.2.4,Win32,60,5ee3dd701da2350bd1e67f35,,,,,,,
,,,,,,,,,,,,,,,,,,,,,,,,,,,,,,,,,,,return,6.639000177,,FALSE,1,0,5,2,1,4,159,onada,Catalan,Sounds/cat_onada.mp3,2020-06-13_12h25.09.538,TranslationElicitation_spa,3.2.4,Win32,60,5ee3dd701da2350bd1e67f35,6.639000177,,,,,,
,,,,,,,,,,,,,,,,,,,,,,,,,,,,,,,,,,,,,,,1,0,5,2,1,4,159,onada,Catalan,Sounds/cat_onada.mp3,2020-06-13_12h25.09.538,TranslationElicitation_spa,3.2.4,Win32,60,5ee3dd701da2350bd1e67f35,,,,,,,
,,,,,,,,,,,,,,,,,,,,,,,,,,,,,,,,,,,c,1.481999874,C,FALSE,1,0,5,1,1,4,147,jaqueta,Catalan,Sounds/cat_jaqueta.mp3,2020-06-13_12h25.09.538,TranslationElicitation_spa,3.2.4,Win32,60,5ee3dd701da2350bd1e67f35,,,,,,,
,,,,,,,,,,,,,,,,,,,,,,,,,,,,,,,,,,,h,1.598999977,CH,FALSE,1,0,5,1,1,4,147,jaqueta,Catalan,Sounds/cat_jaqueta.mp3,2020-06-13_12h25.09.538,TranslationElicitation_spa,3.2.4,Win32,60,5ee3dd701da2350bd1e67f35,,,,,,,
,,,,,,,,,,,,,,,,,,,,,,,,,,,,,,,,,,,a,1.717000008,CHA,FALSE,1,0,5,1,1,4,147,jaqueta,Catalan,Sounds/cat_jaqueta.mp3,2020-06-13_12h25.09.538,TranslationElicitation_spa,3.2.4,Win32,60,5ee3dd701da2350bd1e67f35,,,,,,,
,,,,,,,,,,,,,,,,,,,,,,,,,,,,,,,,,,,q,1.900000095,CHAQ,FALSE,1,0,5,1,1,4,147,jaqueta,Catalan,Sounds/cat_jaqueta.mp3,2020-06-13_12h25.09.538,TranslationElicitation_spa,3.2.4,Win32,60,5ee3dd701da2350bd1e67f35,,,,,,,
,,,,,,,,,,,,,,,,,,,,,,,,,,,,,,,,,,,u,1.96600008,CHAQU,FALSE,1,0,5,1,1,4,147,jaqueta,Catalan,Sounds/cat_jaqueta.mp3,2020-06-13_12h25.09.538,TranslationElicitation_spa,3.2.4,Win32,60,5ee3dd701da2350bd1e67f35,,,,,,,
,,,,,,,,,,,,,,,,,,,,,,,,,,,,,,,,,,,e,2.086999893,CHAQUE,FALSE,1,0,5,1,1,4,147,jaqueta,Catalan,Sounds/cat_jaqueta.mp3,2020-06-13_12h25.09.538,TranslationElicitation_spa,3.2.4,Win32,60,5ee3dd701da2350bd1e67f35,,,,,,,
,,,,,,,,,,,,,,,,,,,,,,,,,,,,,,,,,,,t,2.217000008,CHAQUET,FALSE,1,0,5,1,1,4,147,jaqueta,Catalan,Sounds/cat_jaqueta.mp3,2020-06-13_12h25.09.538,TranslationElicitation_spa,3.2.4,Win32,60,5ee3dd701da2350bd1e67f35,,,,,,,
,,,,,,,,,,,,,,,,,,,,,,,,,,,,,,,,,,,a,2.368000031,CHAQUETA,FALSE,1,0,5,1,1,4,147,jaqueta,Catalan,Sounds/cat_jaqueta.mp3,2020-06-13_12h25.09.538,TranslationElicitation_spa,3.2.4,Win32,60,5ee3dd701da2350bd1e67f35,,,,,,,
,,,,,,,,,,,,,,,,,,,,,,,,,,,,,,,,,,,return,2.970999956,,FALSE,1,0,5,1,1,4,147,jaqueta,Catalan,Sounds/cat_jaqueta.mp3,2020-06-13_12h25.09.538,TranslationElicitation_spa,3.2.4,Win32,60,5ee3dd701da2350bd1e67f35,2.970999956,,,,,,
,,,,,,,,,,,,,,,,,,,,,,,,,,,,,,,,,,,,,,,1,0,5,1,1,4,147,jaqueta,Catalan,Sounds/cat_jaqueta.mp3,2020-06-13_12h25.09.538,TranslationElicitation_spa,3.2.4,Win32,60,5ee3dd701da2350bd1e67f35,,,,,,,
,,,,,,,,,,,,,,,,,,,,,,,,,,,,,,,,,,,t,1.521999836,T,FALSE,1,0,5,4,1,4,179,tigre,Catalan,Sounds/cat_tigre.mp3,2020-06-13_12h25.09.538,TranslationElicitation_spa,3.2.4,Win32,60,5ee3dd701da2350bd1e67f35,,,,,,,
,,,,,,,,,,,,,,,,,,,,,,,,,,,,,,,,,,,i,1.705999851,TI,FALSE,1,0,5,4,1,4,179,tigre,Catalan,Sounds/cat_tigre.mp3,2020-06-13_12h25.09.538,TranslationElicitation_spa,3.2.4,Win32,60,5ee3dd701da2350bd1e67f35,,,,,,,
,,,,,,,,,,,,,,,,,,,,,,,,,,,,,,,,,,,g,1.855999947,TIG,FALSE,1,0,5,4,1,4,179,tigre,Catalan,Sounds/cat_tigre.mp3,2020-06-13_12h25.09.538,TranslationElicitation_spa,3.2.4,Win32,60,5ee3dd701da2350bd1e67f35,,,,,,,
,,,,,,,,,,,,,,,,,,,,,,,,,,,,,,,,,,,r,2.072999954,TIGR,FALSE,1,0,5,4,1,4,179,tigre,Catalan,Sounds/cat_tigre.mp3,2020-06-13_12h25.09.538,TranslationElicitation_spa,3.2.4,Win32,60,5ee3dd701da2350bd1e67f35,,,,,,,
,,,,,,,,,,,,,,,,,,,,,,,,,,,,,,,,,,,e,2.157000065,TIGRE,FALSE,1,0,5,4,1,4,179,tigre,Catalan,Sounds/cat_tigre.mp3,2020-06-13_12h25.09.538,TranslationElicitation_spa,3.2.4,Win32,60,5ee3dd701da2350bd1e67f35,,,,,,,
,,,,,,,,,,,,,,,,,,,,,,,,,,,,,,,,,,,return,2.362999916,,FALSE,1,0,5,4,1,4,179,tigre,Catalan,Sounds/cat_tigre.mp3,2020-06-13_12h25.09.538,TranslationElicitation_spa,3.2.4,Win32,60,5ee3dd701da2350bd1e67f35,2.362999916,,,,,,
,,,,,,,,,,,,,,,,,,,,,,,,,,,,,,,,,,,,,,,1,0,5,4,1,4,179,tigre,Catalan,Sounds/cat_tigre.mp3,2020-06-13_12h25.09.538,TranslationElicitation_spa,3.2.4,Win32,60,5ee3dd701da2350bd1e67f35,,,,,,,
,,,,,,,,,,,,,,,,,,,,,,,,,,,,,,,,,,,p,2.049000025,P,FALSE,1,0,5,3,1,4,167,pingui,Catalan,Sounds/cat_pingui.mp3,2020-06-13_12h25.09.538,TranslationElicitation_spa,3.2.4,Win32,60,5ee3dd701da2350bd1e67f35,,,,,,,
,,,,,,,,,,,,,,,,,,,,,,,,,,,,,,,,,,,i,2.217000008,PI,FALSE,1,0,5,3,1,4,167,pingui,Catalan,Sounds/cat_pingui.mp3,2020-06-13_12h25.09.538,TranslationElicitation_spa,3.2.4,Win32,60,5ee3dd701da2350bd1e67f35,,,,,,,
,,,,,,,,,,,,,,,,,,,,,,,,,,,,,,,,,,,n,2.434000015,PIN,FALSE,1,0,5,3,1,4,167,pingui,Catalan,Sounds/cat_pingui.mp3,2020-06-13_12h25.09.538,TranslationElicitation_spa,3.2.4,Win32,60,5ee3dd701da2350bd1e67f35,,,,,,,
,,,,,,,,,,,,,,,,,,,,,,,,,,,,,,,,,,,g,2.534000158,PING,FALSE,1,0,5,3,1,4,167,pingui,Catalan,Sounds/cat_pingui.mp3,2020-06-13_12h25.09.538,TranslationElicitation_spa,3.2.4,Win32,60,5ee3dd701da2350bd1e67f35,,,,,,,
,,,,,,,,,,,,,,,,,,,,,,,,,,,,,,,,,,,apostrophe,3.521000147,PING,FALSE,1,0,5,3,1,4,167,pingui,Catalan,Sounds/cat_pingui.mp3,2020-06-13_12h25.09.538,TranslationElicitation_spa,3.2.4,Win32,60,5ee3dd701da2350bd1e67f35,,,,,,,
,,,,,,,,,,,,,,,,,,,,,,,,,,,,,,,,,,,apostrophe,3.604000092,PING,FALSE,1,0,5,3,1,4,167,pingui,Catalan,Sounds/cat_pingui.mp3,2020-06-13_12h25.09.538,TranslationElicitation_spa,3.2.4,Win32,60,5ee3dd701da2350bd1e67f35,,,,,,,
,,,,,,,,,,,,,,,,,,,,,,,,,,,,,,,,,,,u,3.803000212,PINGÚ,FALSE,1,0,5,3,1,4,167,pingui,Catalan,Sounds/cat_pingui.mp3,2020-06-13_12h25.09.538,TranslationElicitation_spa,3.2.4,Win32,60,5ee3dd701da2350bd1e67f35,,,,,,,
,,,,,,,,,,,,,,,,,,,,,,,,,,,,,,,,,,,i,3.971000195,PINGÚI,FALSE,1,0,5,3,1,4,167,pingui,Catalan,Sounds/cat_pingui.mp3,2020-06-13_12h25.09.538,TranslationElicitation_spa,3.2.4,Win32,60,5ee3dd701da2350bd1e67f35,,,,,,,
,,,,,,,,,,,,,,,,,,,,,,,,,,,,,,,,,,,n,4.17200017,PINGÚIN,FALSE,1,0,5,3,1,4,167,pingui,Catalan,Sounds/cat_pingui.mp3,2020-06-13_12h25.09.538,TranslationElicitation_spa,3.2.4,Win32,60,5ee3dd701da2350bd1e67f35,,,,,,,
,,,,,,,,,,,,,,,,,,,,,,,,,,,,,,,,,,,o,4.355000019,PINGÚINO,FALSE,1,0,5,3,1,4,167,pingui,Catalan,Sounds/cat_pingui.mp3,2020-06-13_12h25.09.538,TranslationElicitation_spa,3.2.4,Win32,60,5ee3dd701da2350bd1e67f35,,,,,,,
,,,,,,,,,,,,,,,,,,,,,,,,,,,,,,,,,,,backspace,4.756000042,PINGÚI,TRUE,1,0,5,3,1,4,167,pingui,Catalan,Sounds/cat_pingui.mp3,2020-06-13_12h25.09.538,TranslationElicitation_spa,3.2.4,Win32,60,5ee3dd701da2350bd1e67f35,,,,,,,
,,,,,,,,,,,,,,,,,,,,,,,,,,,,,,,,,,,backspace,4.926000118,PING,TRUE,1,0,5,3,1,4,167,pingui,Catalan,Sounds/cat_pingui.mp3,2020-06-13_12h25.09.538,TranslationElicitation_spa,3.2.4,Win32,60,5ee3dd701da2350bd1e67f35,,,,,,,
,,,,,,,,,,,,,,,,,,,,,,,,,,,,,,,,,,,backspace,5.09100008,PI,TRUE,1,0,5,3,1,4,167,pingui,Catalan,Sounds/cat_pingui.mp3,2020-06-13_12h25.09.538,TranslationElicitation_spa,3.2.4,Win32,60,5ee3dd701da2350bd1e67f35,,,,,,,
,,,,,,,,,,,,,,,,,,,,,,,,,,,,,,,,,,,n,5.84800005,PIN,TRUE,1,0,5,3,1,4,167,pingui,Catalan,Sounds/cat_pingui.mp3,2020-06-13_12h25.09.538,TranslationElicitation_spa,3.2.4,Win32,60,5ee3dd701da2350bd1e67f35,,,,,,,
,,,,,,,,,,,,,,,,,,,,,,,,,,,,,,,,,,,g,6.11500001,PING,TRUE,1,0,5,3,1,4,167,pingui,Catalan,Sounds/cat_pingui.mp3,2020-06-13_12h25.09.538,TranslationElicitation_spa,3.2.4,Win32,60,5ee3dd701da2350bd1e67f35,,,,,,,
,,,,,,,,,,,,,,,,,,,,,,,,,,,,,,,,,,,apostrophe,6.731000185,PING,TRUE,1,0,5,3,1,4,167,pingui,Catalan,Sounds/cat_pingui.mp3,2020-06-13_12h25.09.538,TranslationElicitation_spa,3.2.4,Win32,60,5ee3dd701da2350bd1e67f35,,,,,,,
,,,,,,,,,,,,,,,,,,,,,,,,,,,,,,,,,,,u,6.998000145,PINGÚ,TRUE,1,0,5,3,1,4,167,pingui,Catalan,Sounds/cat_pingui.mp3,2020-06-13_12h25.09.538,TranslationElicitation_spa,3.2.4,Win32,60,5ee3dd701da2350bd1e67f35,,,,,,,
,,,,,,,,,,,,,,,,,,,,,,,,,,,,,,,,,,,i,7.180999994,PINGÚI,TRUE,1,0,5,3,1,4,167,pingui,Catalan,Sounds/cat_pingui.mp3,2020-06-13_12h25.09.538,TranslationElicitation_spa,3.2.4,Win32,60,5ee3dd701da2350bd1e67f35,,,,,,,
,,,,,,,,,,,,,,,,,,,,,,,,,,,,,,,,,,,backspace,7.731000185,PING,TRUE,1,0,5,3,1,4,167,pingui,Catalan,Sounds/cat_pingui.mp3,2020-06-13_12h25.09.538,TranslationElicitation_spa,3.2.4,Win32,60,5ee3dd701da2350bd1e67f35,,,,,,,
,,,,,,,,,,,,,,,,,,,,,,,,,,,,,,,,,,,backspace,7.881000042,PI,TRUE,1,0,5,3,1,4,167,pingui,Catalan,Sounds/cat_pingui.mp3,2020-06-13_12h25.09.538,TranslationElicitation_spa,3.2.4,Win32,60,5ee3dd701da2350bd1e67f35,,,,,,,
,,,,,,,,,,,,,,,,,,,,,,,,,,,,,,,,,,,u,8.584000111,PIU,TRUE,1,0,5,3,1,4,167,pingui,Catalan,Sounds/cat_pingui.mp3,2020-06-13_12h25.09.538,TranslationElicitation_spa,3.2.4,Win32,60,5ee3dd701da2350bd1e67f35,,,,,,,
,,,,,,,,,,,,,,,,,,,,,,,,,,,,,,,,,,,backspace,8.967000008,P,TRUE,1,0,5,3,1,4,167,pingui,Catalan,Sounds/cat_pingui.mp3,2020-06-13_12h25.09.538,TranslationElicitation_spa,3.2.4,Win32,60,5ee3dd701da2350bd1e67f35,,,,,,,
,,,,,,,,,,,,,,,,,,,,,,,,,,,,,,,,,,,n,9.201000214,PN,TRUE,1,0,5,3,1,4,167,pingui,Catalan,Sounds/cat_pingui.mp3,2020-06-13_12h25.09.538,TranslationElicitation_spa,3.2.4,Win32,60,5ee3dd701da2350bd1e67f35,,,,,,,
,,,,,,,,,,,,,,,,,,,,,,,,,,,,,,,,,,,g,9.284000158,PNG,TRUE,1,0,5,3,1,4,167,pingui,Catalan,Sounds/cat_pingui.mp3,2020-06-13_12h25.09.538,TranslationElicitation_spa,3.2.4,Win32,60,5ee3dd701da2350bd1e67f35,,,,,,,
,,,,,,,,,,,,,,,,,,,,,,,,,,,,,,,,,,,u,9.435000181,PNGU,TRUE,1,0,5,3,1,4,167,pingui,Catalan,Sounds/cat_pingui.mp3,2020-06-13_12h25.09.538,TranslationElicitation_spa,3.2.4,Win32,60,5ee3dd701da2350bd1e67f35,,,,,,,
,,,,,,,,,,,,,,,,,,,,,,,,,,,,,,,,,,,i,9.604000092,PNGUI,TRUE,1,0,5,3,1,4,167,pingui,Catalan,Sounds/cat_pingui.mp3,2020-06-13_12h25.09.538,TranslationElicitation_spa,3.2.4,Win32,60,5ee3dd701da2350bd1e67f35,,,,,,,
,,,,,,,,,,,,,,,,,,,,,,,,,,,,,,,,,,,n,9.770000219,PNGUIN,TRUE,1,0,5,3,1,4,167,pingui,Catalan,Sounds/cat_pingui.mp3,2020-06-13_12h25.09.538,TranslationElicitation_spa,3.2.4,Win32,60,5ee3dd701da2350bd1e67f35,,,,,,,
,,,,,,,,,,,,,,,,,,,,,,,,,,,,,,,,,,,o,9.936000109,PNGUINO,TRUE,1,0,5,3,1,4,167,pingui,Catalan,Sounds/cat_pingui.mp3,2020-06-13_12h25.09.538,TranslationElicitation_spa,3.2.4,Win32,60,5ee3dd701da2350bd1e67f35,,,,,,,
,,,,,,,,,,,,,,,,,,,,,,,,,,,,,,,,,,,backspace,10.73700023,PNGUI,TRUE,1,0,5,3,1,4,167,pingui,Catalan,Sounds/cat_pingui.mp3,2020-06-13_12h25.09.538,TranslationElicitation_spa,3.2.4,Win32,60,5ee3dd701da2350bd1e67f35,,,,,,,
,,,,,,,,,,,,,,,,,,,,,,,,,,,,,,,,,,,backspace,10.93900013,PNG,TRUE,1,0,5,3,1,4,167,pingui,Catalan,Sounds/cat_pingui.mp3,2020-06-13_12h25.09.538,TranslationElicitation_spa,3.2.4,Win32,60,5ee3dd701da2350bd1e67f35,,,,,,,
,,,,,,,,,,,,,,,,,,,,,,,,,,,,,,,,,,,backspace,11.10400009,P,TRUE,1,0,5,3,1,4,167,pingui,Catalan,Sounds/cat_pingui.mp3,2020-06-13_12h25.09.538,TranslationElicitation_spa,3.2.4,Win32,60,5ee3dd701da2350bd1e67f35,,,,,,,
,,,,,,,,,,,,,,,,,,,,,,,,,,,,,,,,,,,backspace,11.3210001,,TRUE,1,0,5,3,1,4,167,pingui,Catalan,Sounds/cat_pingui.mp3,2020-06-13_12h25.09.538,TranslationElicitation_spa,3.2.4,Win32,60,5ee3dd701da2350bd1e67f35,,,,,,,
,,,,,,,,,,,,,,,,,,,,,,,,,,,,,,,,,,,p,11.8900001,P,TRUE,1,0,5,3,1,4,167,pingui,Catalan,Sounds/cat_pingui.mp3,2020-06-13_12h25.09.538,TranslationElicitation_spa,3.2.4,Win32,60,5ee3dd701da2350bd1e67f35,,,,,,,
,,,,,,,,,,,,,,,,,,,,,,,,,,,,,,,,,,,i,12.09000015,PI,TRUE,1,0,5,3,1,4,167,pingui,Catalan,Sounds/cat_pingui.mp3,2020-06-13_12h25.09.538,TranslationElicitation_spa,3.2.4,Win32,60,5ee3dd701da2350bd1e67f35,,,,,,,
,,,,,,,,,,,,,,,,,,,,,,,,,,,,,,,,,,,n,12.27400017,PIN,TRUE,1,0,5,3,1,4,167,pingui,Catalan,Sounds/cat_pingui.mp3,2020-06-13_12h25.09.538,TranslationElicitation_spa,3.2.4,Win32,60,5ee3dd701da2350bd1e67f35,,,,,,,
,,,,,,,,,,,,,,,,,,,,,,,,,,,,,,,,,,,g,12.37400007,PING,TRUE,1,0,5,3,1,4,167,pingui,Catalan,Sounds/cat_pingui.mp3,2020-06-13_12h25.09.538,TranslationElicitation_spa,3.2.4,Win32,60,5ee3dd701da2350bd1e67f35,,,,,,,
,,,,,,,,,,,,,,,,,,,,,,,,,,,,,,,,,,,u,12.50800014,PINGU,TRUE,1,0,5,3,1,4,167,pingui,Catalan,Sounds/cat_pingui.mp3,2020-06-13_12h25.09.538,TranslationElicitation_spa,3.2.4,Win32,60,5ee3dd701da2350bd1e67f35,,,,,,,
,,,,,,,,,,,,,,,,,,,,,,,,,,,,,,,,,,,apostrophe,13.42700005,PINGU,TRUE,1,0,5,3,1,4,167,pingui,Catalan,Sounds/cat_pingui.mp3,2020-06-13_12h25.09.538,TranslationElicitation_spa,3.2.4,Win32,60,5ee3dd701da2350bd1e67f35,,,,,,,
,,,,,,,,,,,,,,,,,,,,,,,,,,,,,,,,,,,u,13.99500012,PINGUÚ,TRUE,1,0,5,3,1,4,167,pingui,Catalan,Sounds/cat_pingui.mp3,2020-06-13_12h25.09.538,TranslationElicitation_spa,3.2.4,Win32,60,5ee3dd701da2350bd1e67f35,,,,,,,
,,,,,,,,,,,,,,,,,,,,,,,,,,,,,,,,,,,backspace,14.44800019,PING,TRUE,1,0,5,3,1,4,167,pingui,Catalan,Sounds/cat_pingui.mp3,2020-06-13_12h25.09.538,TranslationElicitation_spa,3.2.4,Win32,60,5ee3dd701da2350bd1e67f35,,,,,,,
,,,,,,,,,,,,,,,,,,,,,,,,,,,,,,,,,,,u,15.48200011,PINGU,TRUE,1,0,5,3,1,4,167,pingui,Catalan,Sounds/cat_pingui.mp3,2020-06-13_12h25.09.538,TranslationElicitation_spa,3.2.4,Win32,60,5ee3dd701da2350bd1e67f35,,,,,,,
,,,,,,,,,,,,,,,,,,,,,,,,,,,,,,,,,,,i,15.69900012,PINGUI,TRUE,1,0,5,3,1,4,167,pingui,Catalan,Sounds/cat_pingui.mp3,2020-06-13_12h25.09.538,TranslationElicitation_spa,3.2.4,Win32,60,5ee3dd701da2350bd1e67f35,,,,,,,
,,,,,,,,,,,,,,,,,,,,,,,,,,,,,,,,,,,n,16.30000019,PINGUIN,TRUE,1,0,5,3,1,4,167,pingui,Catalan,Sounds/cat_pingui.mp3,2020-06-13_12h25.09.538,TranslationElicitation_spa,3.2.4,Win32,60,5ee3dd701da2350bd1e67f35,,,,,,,
,,,,,,,,,,,,,,,,,,,,,,,,,,,,,,,,,,,o,16.48400021,PINGUINO,TRUE,1,0,5,3,1,4,167,pingui,Catalan,Sounds/cat_pingui.mp3,2020-06-13_12h25.09.538,TranslationElicitation_spa,3.2.4,Win32,60,5ee3dd701da2350bd1e67f35,,,,,,,
,,,,,,,,,,,,,,,,,,,,,,,,,,,,,,,,,,,return,16.85100007,,TRUE,1,0,5,3,1,4,167,pingui,Catalan,Sounds/cat_pingui.mp3,2020-06-13_12h25.09.538,TranslationElicitation_spa,3.2.4,Win32,60,5ee3dd701da2350bd1e67f35,16.85100007,,,,,,
,,,,,,,,,,,,,,,,,,,,,,,,,,,,,,,,,,,,,,,1,0,5,3,1,4,167,pingui,Catalan,Sounds/cat_pingui.mp3,2020-06-13_12h25.09.538,TranslationElicitation_spa,3.2.4,Win32,60,5ee3dd701da2350bd1e67f35,,,,,,,
,,,,,,,,,,,,,,,,,,,,,,,,,,,,,,,,,,,a,2.302000046,A,FALSE,1,0,5,0,1,4,109,arbre,Catalan,Sounds/cat_arbre.mp3,2020-06-13_12h25.09.538,TranslationElicitation_spa,3.2.4,Win32,60,5ee3dd701da2350bd1e67f35,,,,,,,
,,,,,,,,,,,,,,,,,,,,,,,,,,,,,,,,,,,r,2.403000116,AR,FALSE,1,0,5,0,1,4,109,arbre,Catalan,Sounds/cat_arbre.mp3,2020-06-13_12h25.09.538,TranslationElicitation_spa,3.2.4,Win32,60,5ee3dd701da2350bd1e67f35,,,,,,,
,,,,,,,,,,,,,,,,,,,,,,,,,,,,,,,,,,,b,2.607000113,ARB,FALSE,1,0,5,0,1,4,109,arbre,Catalan,Sounds/cat_arbre.mp3,2020-06-13_12h25.09.538,TranslationElicitation_spa,3.2.4,Win32,60,5ee3dd701da2350bd1e67f35,,,,,,,
,,,,,,,,,,,,,,,,,,,,,,,,,,,,,,,,,,,o,2.74000001,ARBO,FALSE,1,0,5,0,1,4,109,arbre,Catalan,Sounds/cat_arbre.mp3,2020-06-13_12h25.09.538,TranslationElicitation_spa,3.2.4,Win32,60,5ee3dd701da2350bd1e67f35,,,,,,,
,,,,,,,,,,,,,,,,,,,,,,,,,,,,,,,,,,,l,2.97300005,ARBOL,FALSE,1,0,5,0,1,4,109,arbre,Catalan,Sounds/cat_arbre.mp3,2020-06-13_12h25.09.538,TranslationElicitation_spa,3.2.4,Win32,60,5ee3dd701da2350bd1e67f35,,,,,,,
,,,,,,,,,,,,,,,,,,,,,,,,,,,,,,,,,,,return,3.339999914,,FALSE,1,0,5,0,1,4,109,arbre,Catalan,Sounds/cat_arbre.mp3,2020-06-13_12h25.09.538,TranslationElicitation_spa,3.2.4,Win32,60,5ee3dd701da2350bd1e67f35,3.339999914,,,,,,
,,,,,,,,,,,,,,,,,,,,,,,,,,,,,,,,,,,,,,,1,0,5,0,1,4,109,arbre,Catalan,Sounds/cat_arbre.mp3,2020-06-13_12h25.09.538,TranslationElicitation_spa,3.2.4,Win32,60,5ee3dd701da2350bd1e67f35,,,,,,,
,,,,,,,,,,,,,,,,,,,,,,,,,,,,,,,,,,,t,1.953999996,T,FALSE,,,,,,,178,taronja,Catalan,Sounds/cat_taronja.mp3,2020-06-13_12h25.09.538,TranslationElicitation_spa,3.2.4,Win32,60,5ee3dd701da2350bd1e67f35,,1,0,80,70,1,79
,,,,,,,,,,,,,,,,,,,,,,,,,,,,,,,,,,,r,2.154000044,TR,FALSE,,,,,,,178,taronja,Catalan,Sounds/cat_taronja.mp3,2020-06-13_12h25.09.538,TranslationElicitation_spa,3.2.4,Win32,60,5ee3dd701da2350bd1e67f35,,1,0,80,70,1,79
,,,,,,,,,,,,,,,,,,,,,,,,,,,,,,,,,,,o,2.254000187,TRO,FALSE,,,,,,,178,taronja,Catalan,Sounds/cat_taronja.mp3,2020-06-13_12h25.09.538,TranslationElicitation_spa,3.2.4,Win32,60,5ee3dd701da2350bd1e67f35,,1,0,80,70,1,79
,,,,,,,,,,,,,,,,,,,,,,,,,,,,,,,,,,,n,2.421000004,TRON,FALSE,,,,,,,178,taronja,Catalan,Sounds/cat_taronja.mp3,2020-06-13_12h25.09.538,TranslationElicitation_spa,3.2.4,Win32,60,5ee3dd701da2350bd1e67f35,,1,0,80,70,1,79
,,,,,,,,,,,,,,,,,,,,,,,,,,,,,,,,,,,c,2.521000147,TRONC,FALSE,,,,,,,178,taronja,Catalan,Sounds/cat_taronja.mp3,2020-06-13_12h25.09.538,TranslationElicitation_spa,3.2.4,Win32,60,5ee3dd701da2350bd1e67f35,,1,0,80,70,1,79
,,,,,,,,,,,,,,,,,,,,,,,,,,,,,,,,,,,o,2.604000092,TRONCO,FALSE,,,,,,,178,taronja,Catalan,Sounds/cat_taronja.mp3,2020-06-13_12h25.09.538,TranslationElicitation_spa,3.2.4,Win32,60,5ee3dd701da2350bd1e67f35,,1,0,80,70,1,79
,,,,,,,,,,,,,,,,,,,,,,,,,,,,,,,,,,,return,3.022000074,,FALSE,,,,,,,178,taronja,Catalan,Sounds/cat_taronja.mp3,2020-06-13_12h25.09.538,TranslationElicitation_spa,3.2.4,Win32,60,5ee3dd701da2350bd1e67f35,3.022000074,1,0,80,70,1,79
,,,,,,,,,,,,,,,,,,,,,,,,,,,,,,,,,,,,,,,,,,,,,178,taronja,Catalan,Sounds/cat_taronja.mp3,2020-06-13_12h25.09.538,TranslationElicitation_spa,3.2.4,Win32,60,5ee3dd701da2350bd1e67f35,,1,0,80,70,1,79
,,,,,,,,,,,,,,,,,,,,,,,,,,,,,,,,,,,a,1.490999937,A,FALSE,,,,,,,104,abella,Catalan,Sounds/cat_abella.mp3,2020-06-13_12h25.09.538,TranslationElicitation_spa,3.2.4,Win32,60,5ee3dd701da2350bd1e67f35,,1,0,80,0,1,79
,,,,,,,,,,,,,,,,,,,,,,,,,,,,,,,,,,,b,1.575999975,AB,FALSE,,,,,,,104,abella,Catalan,Sounds/cat_abella.mp3,2020-06-13_12h25.09.538,TranslationElicitation_spa,3.2.4,Win32,60,5ee3dd701da2350bd1e67f35,,1,0,80,0,1,79
,,,,,,,,,,,,,,,,,,,,,,,,,,,,,,,,,,,e,1.696000099,ABE,FALSE,,,,,,,104,abella,Catalan,Sounds/cat_abella.mp3,2020-06-13_12h25.09.538,TranslationElicitation_spa,3.2.4,Win32,60,5ee3dd701da2350bd1e67f35,,1,0,80,0,1,79
,,,,,,,,,,,,,,,,,,,,,,,,,,,,,,,,,,,j,1.792999983,ABEJ,FALSE,,,,,,,104,abella,Catalan,Sounds/cat_abella.mp3,2020-06-13_12h25.09.538,TranslationElicitation_spa,3.2.4,Win32,60,5ee3dd701da2350bd1e67f35,,1,0,80,0,1,79
,,,,,,,,,,,,,,,,,,,,,,,,,,,,,,,,,,,a,1.907999992,ABEJA,FALSE,,,,,,,104,abella,Catalan,Sounds/cat_abella.mp3,2020-06-13_12h25.09.538,TranslationElicitation_spa,3.2.4,Win32,60,5ee3dd701da2350bd1e67f35,,1,0,80,0,1,79
,,,,,,,,,,,,,,,,,,,,,,,,,,,,,,,,,,,return,2.225000143,,FALSE,,,,,,,104,abella,Catalan,Sounds/cat_abella.mp3,2020-06-13_12h25.09.538,TranslationElicitation_spa,3.2.4,Win32,60,5ee3dd701da2350bd1e67f35,2.225000143,1,0,80,0,1,79
,,,,,,,,,,,,,,,,,,,,,,,,,,,,,,,,,,,,,,,,,,,,,104,abella,Catalan,Sounds/cat_abella.mp3,2020-06-13_12h25.09.538,TranslationElicitation_spa,3.2.4,Win32,60,5ee3dd701da2350bd1e67f35,,1,0,80,0,1,79
,,,,,,,,,,,,,,,,,,,,,,,,,,,,,,,,,,,a,1.440000057,A,FALSE,,,,,,,168,planta,Catalan,Sounds/cat_planta.mp3,2020-06-13_12h25.09.538,TranslationElicitation_spa,3.2.4,Win32,60,5ee3dd701da2350bd1e67f35,,1,0,80,60,1,79
,,,,,,,,,,,,,,,,,,,,,,,,,,,,,,,,,,,n,1.605999947,AN,FALSE,,,,,,,168,planta,Catalan,Sounds/cat_planta.mp3,2020-06-13_12h25.09.538,TranslationElicitation_spa,3.2.4,Win32,60,5ee3dd701da2350bd1e67f35,,1,0,80,60,1,79
,,,,,,,,,,,,,,,,,,,,,,,,,,,,,,,,,,,backspace,1.907000065,,TRUE,,,,,,,168,planta,Catalan,Sounds/cat_planta.mp3,2020-06-13_12h25.09.538,TranslationElicitation_spa,3.2.4,Win32,60,5ee3dd701da2350bd1e67f35,,1,0,80,60,1,79
,,,,,,,,,,,,,,,,,,,,,,,,,,,,,,,,,,,backspace,2.073999882,,TRUE,,,,,,,168,planta,Catalan,Sounds/cat_planta.mp3,2020-06-13_12h25.09.538,TranslationElicitation_spa,3.2.4,Win32,60,5ee3dd701da2350bd1e67f35,,1,0,80,60,1,79
,,,,,,,,,,,,,,,,,,,,,,,,,,,,,,,,,,,p,2.34100008,P,TRUE,,,,,,,168,planta,Catalan,Sounds/cat_planta.mp3,2020-06-13_12h25.09.538,TranslationElicitation_spa,3.2.4,Win32,60,5ee3dd701da2350bd1e67f35,,1,0,80,60,1,79
,,,,,,,,,,,,,,,,,,,,,,,,,,,,,,,,,,,l,2.457000017,PL,TRUE,,,,,,,168,planta,Catalan,Sounds/cat_planta.mp3,2020-06-13_12h25.09.538,TranslationElicitation_spa,3.2.4,Win32,60,5ee3dd701da2350bd1e67f35,,1,0,80,60,1,79
,,,,,,,,,,,,,,,,,,,,,,,,,,,,,,,,,,,a,2.690999985,PLA,TRUE,,,,,,,168,planta,Catalan,Sounds/cat_planta.mp3,2020-06-13_12h25.09.538,TranslationElicitation_spa,3.2.4,Win32,60,5ee3dd701da2350bd1e67f35,,1,0,80,60,1,79
,,,,,,,,,,,,,,,,,,,,,,,,,,,,,,,,,,,n,2.790999889,PLAN,TRUE,,,,,,,168,planta,Catalan,Sounds/cat_planta.mp3,2020-06-13_12h25.09.538,TranslationElicitation_spa,3.2.4,Win32,60,5ee3dd701da2350bd1e67f35,,1,0,80,60,1,79
,,,,,,,,,,,,,,,,,,,,,,,,,,,,,,,,,,,t,2.89199996,PLANT,TRUE,,,,,,,168,planta,Catalan,Sounds/cat_planta.mp3,2020-06-13_12h25.09.538,TranslationElicitation_spa,3.2.4,Win32,60,5ee3dd701da2350bd1e67f35,,1,0,80,60,1,79
,,,,,,,,,,,,,,,,,,,,,,,,,,,,,,,,,,,a,3.040999889,PLANTA,TRUE,,,,,,,168,planta,Catalan,Sounds/cat_planta.mp3,2020-06-13_12h25.09.538,TranslationElicitation_spa,3.2.4,Win32,60,5ee3dd701da2350bd1e67f35,,1,0,80,60,1,79
,,,,,,,,,,,,,,,,,,,,,,,,,,,,,,,,,,,return,3.226000071,,TRUE,,,,,,,168,planta,Catalan,Sounds/cat_planta.mp3,2020-06-13_12h25.09.538,TranslationElicitation_spa,3.2.4,Win32,60,5ee3dd701da2350bd1e67f35,3.224999905,1,0,80,60,1,79
,,,,,,,,,,,,,,,,,,,,,,,,,,,,,,,,,,,,,,,,,,,,,168,planta,Catalan,Sounds/cat_planta.mp3,2020-06-13_12h25.09.538,TranslationElicitation_spa,3.2.4,Win32,60,5ee3dd701da2350bd1e67f35,,1,0,80,60,1,79
,,,,,,,,,,,,,,,,,,,,,,,,,,,,,,,,,,,p,1.752000093,P,FALSE,,,,,,,166,peu,Catalan,Sounds/cat_peu.mp3,2020-06-13_12h25.09.538,TranslationElicitation_spa,3.2.4,Win32,60,5ee3dd701da2350bd1e67f35,,1,0,80,59,1,79
,,,,,,,,,,,,,,,,,,,,,,,,,,,,,,,,,,,e,1.819000006,PE,FALSE,,,,,,,166,peu,Catalan,Sounds/cat_peu.mp3,2020-06-13_12h25.09.538,TranslationElicitation_spa,3.2.4,Win32,60,5ee3dd701da2350bd1e67f35,,1,0,80,59,1,79
,,,,,,,,,,,,,,,,,,,,,,,,,,,,,,,,,,,r,1.972000122,PER,FALSE,,,,,,,166,peu,Catalan,Sounds/cat_peu.mp3,2020-06-13_12h25.09.538,TranslationElicitation_spa,3.2.4,Win32,60,5ee3dd701da2350bd1e67f35,,1,0,80,59,1,79
,,,,,,,,,,,,,,,,,,,,,,,,,,,,,,,,,,,r,2.102999926,PERR,FALSE,,,,,,,166,peu,Catalan,Sounds/cat_peu.mp3,2020-06-13_12h25.09.538,TranslationElicitation_spa,3.2.4,Win32,60,5ee3dd701da2350bd1e67f35,,1,0,80,59,1,79
,,,,,,,,,,,,,,,,,,,,,,,,,,,,,,,,,,,o,2.220000029,PERRO,FALSE,,,,,,,166,peu,Catalan,Sounds/cat_peu.mp3,2020-06-13_12h25.09.538,TranslationElicitation_spa,3.2.4,Win32,60,5ee3dd701da2350bd1e67f35,,1,0,80,59,1,79
,,,,,,,,,,,,,,,,,,,,,,,,,,,,,,,,,,,return,2.729000092,,FALSE,,,,,,,166,peu,Catalan,Sounds/cat_peu.mp3,2020-06-13_12h25.09.538,TranslationElicitation_spa,3.2.4,Win32,60,5ee3dd701da2350bd1e67f35,2.729000092,1,0,80,59,1,79
,,,,,,,,,,,,,,,,,,,,,,,,,,,,,,,,,,,,,,,,,,,,,166,peu,Catalan,Sounds/cat_peu.mp3,2020-06-13_12h25.09.538,TranslationElicitation_spa,3.2.4,Win32,60,5ee3dd701da2350bd1e67f35,,1,0,80,59,1,79
,,,,,,,,,,,,,,,,,,,,,,,,,,,,,,,,,,,t,1.215999842,T,FALSE,,,,,,,180,tisores,Catalan,Sounds/cat_tisores.mp3,2020-06-13_12h25.09.538,TranslationElicitation_spa,3.2.4,Win32,60,5ee3dd701da2350bd1e67f35,,1,0,80,71,1,79
,,,,,,,,,,,,,,,,,,,,,,,,,,,,,,,,,,,i,1.333999872,TI,FALSE,,,,,,,180,tisores,Catalan,Sounds/cat_tisores.mp3,2020-06-13_12h25.09.538,TranslationElicitation_spa,3.2.4,Win32,60,5ee3dd701da2350bd1e67f35,,1,0,80,71,1,79
,,,,,,,,,,,,,,,,,,,,,,,,,,,,,,,,,,,j,1.53399992,TIJ,FALSE,,,,,,,180,tisores,Catalan,Sounds/cat_tisores.mp3,2020-06-13_12h25.09.538,TranslationElicitation_spa,3.2.4,Win32,60,5ee3dd701da2350bd1e67f35,,1,0,80,71,1,79
,,,,,,,,,,,,,,,,,,,,,,,,,,,,,,,,,,,e,1.618000031,TIJE,FALSE,,,,,,,180,tisores,Catalan,Sounds/cat_tisores.mp3,2020-06-13_12h25.09.538,TranslationElicitation_spa,3.2.4,Win32,60,5ee3dd701da2350bd1e67f35,,1,0,80,71,1,79
,,,,,,,,,,,,,,,,,,,,,,,,,,,,,,,,,,,r,1.667999983,TIJER,FALSE,,,,,,,180,tisores,Catalan,Sounds/cat_tisores.mp3,2020-06-13_12h25.09.538,TranslationElicitation_spa,3.2.4,Win32,60,5ee3dd701da2350bd1e67f35,,1,0,80,71,1,79
,,,,,,,,,,,,,,,,,,,,,,,,,,,,,,,,,,,a,1.835000038,TIJERA,FALSE,,,,,,,180,tisores,Catalan,Sounds/cat_tisores.mp3,2020-06-13_12h25.09.538,TranslationElicitation_spa,3.2.4,Win32,60,5ee3dd701da2350bd1e67f35,,1,0,80,71,1,79
,,,,,,,,,,,,,,,,,,,,,,,,,,,,,,,,,,,s,1.987999916,TIJERAS,FALSE,,,,,,,180,tisores,Catalan,Sounds/cat_tisores.mp3,2020-06-13_12h25.09.538,TranslationElicitation_spa,3.2.4,Win32,60,5ee3dd701da2350bd1e67f35,,1,0,80,71,1,79
,,,,,,,,,,,,,,,,,,,,,,,,,,,,,,,,,,,return,2.319000006,,FALSE,,,,,,,180,tisores,Catalan,Sounds/cat_tisores.mp3,2020-06-13_12h25.09.538,TranslationElicitation_spa,3.2.4,Win32,60,5ee3dd701da2350bd1e67f35,2.319000006,1,0,80,71,1,79
,,,,,,,,,,,,,,,,,,,,,,,,,,,,,,,,,,,,,,,,,,,,,180,tisores,Catalan,Sounds/cat_tisores.mp3,2020-06-13_12h25.09.538,TranslationElicitation_spa,3.2.4,Win32,60,5ee3dd701da2350bd1e67f35,,1,0,80,71,1,79
,,,,,,,,,,,,,,,,,,,,,,,,,,,,,,,,,,,m,1.088000059,M,FALSE,,,,,,,155,moneda,Catalan,Sounds/cat_moneda.mp3,2020-06-13_12h25.09.538,TranslationElicitation_spa,3.2.4,Win32,60,5ee3dd701da2350bd1e67f35,,1,0,80,49,1,79
,,,,,,,,,,,,,,,,,,,,,,,,,,,,,,,,,,,o,1.270999908,MO,FALSE,,,,,,,155,moneda,Catalan,Sounds/cat_moneda.mp3,2020-06-13_12h25.09.538,TranslationElicitation_spa,3.2.4,Win32,60,5ee3dd701da2350bd1e67f35,,1,0,80,49,1,79
,,,,,,,,,,,,,,,,,,,,,,,,,,,,,,,,,,,n,1.437999964,MON,FALSE,,,,,,,155,moneda,Catalan,Sounds/cat_moneda.mp3,2020-06-13_12h25.09.538,TranslationElicitation_spa,3.2.4,Win32,60,5ee3dd701da2350bd1e67f35,,1,0,80,49,1,79
,,,,,,,,,,,,,,,,,,,,,,,,,,,,,,,,,,,e,1.504999876,MONE,FALSE,,,,,,,155,moneda,Catalan,Sounds/cat_moneda.mp3,2020-06-13_12h25.09.538,TranslationElicitation_spa,3.2.4,Win32,60,5ee3dd701da2350bd1e67f35,,1,0,80,49,1,79
,,,,,,,,,,,,,,,,,,,,,,,,,,,,,,,,,,,d,1.622999907,MONED,FALSE,,,,,,,155,moneda,Catalan,Sounds/cat_moneda.mp3,2020-06-13_12h25.09.538,TranslationElicitation_spa,3.2.4,Win32,60,5ee3dd701da2350bd1e67f35,,1,0,80,49,1,79
,,,,,,,,,,,,,,,,,,,,,,,,,,,,,,,,,,,a,1.756000042,MONEDA,FALSE,,,,,,,155,moneda,Catalan,Sounds/cat_moneda.mp3,2020-06-13_12h25.09.538,TranslationElicitation_spa,3.2.4,Win32,60,5ee3dd701da2350bd1e67f35,,1,0,80,49,1,79
,,,,,,,,,,,,,,,,,,,,,,,,,,,,,,,,,,,return,2.023000002,,FALSE,,,,,,,155,moneda,Catalan,Sounds/cat_moneda.mp3,2020-06-13_12h25.09.538,TranslationElicitation_spa,3.2.4,Win32,60,5ee3dd701da2350bd1e67f35,2.023000002,1,0,80,49,1,79
,,,,,,,,,,,,,,,,,,,,,,,,,,,,,,,,,,,,,,,,,,,,,155,moneda,Catalan,Sounds/cat_moneda.mp3,2020-06-13_12h25.09.538,TranslationElicitation_spa,3.2.4,Win32,60,5ee3dd701da2350bd1e67f35,,1,0,80,49,1,79
,,,,,,,,,,,,,,,,,,,,,,,,,,,,,,,,,,,e,1.398999929,E,FALSE,,,,,,,132,estrella,Catalan,Sounds/cat_estrella.mp3,2020-06-13_12h25.09.538,TranslationElicitation_spa,3.2.4,Win32,60,5ee3dd701da2350bd1e67f35,,1,0,80,27,1,79
,,,,,,,,,,,,,,,,,,,,,,,,,,,,,,,,,,,s,1.565999985,ES,FALSE,,,,,,,132,estrella,Catalan,Sounds/cat_estrella.mp3,2020-06-13_12h25.09.538,TranslationElicitation_spa,3.2.4,Win32,60,5ee3dd701da2350bd1e67f35,,1,0,80,27,1,79
,,,,,,,,,,,,,,,,,,,,,,,,,,,,,,,,,,,t,1.71600008,EST,FALSE,,,,,,,132,estrella,Catalan,Sounds/cat_estrella.mp3,2020-06-13_12h25.09.538,TranslationElicitation_spa,3.2.4,Win32,60,5ee3dd701da2350bd1e67f35,,1,0,80,27,1,79
,,,,,,,,,,,,,,,,,,,,,,,,,,,,,,,,,,,r,1.883000135,ESTR,FALSE,,,,,,,132,estrella,Catalan,Sounds/cat_estrella.mp3,2020-06-13_12h25.09.538,TranslationElicitation_spa,3.2.4,Win32,60,5ee3dd701da2350bd1e67f35,,1,0,80,27,1,79
,,,,,,,,,,,,,,,,,,,,,,,,,,,,,,,,,,,e,1.933000088,ESTRE,FALSE,,,,,,,132,estrella,Catalan,Sounds/cat_estrella.mp3,2020-06-13_12h25.09.538,TranslationElicitation_spa,3.2.4,Win32,60,5ee3dd701da2350bd1e67f35,,1,0,80,27,1,79
,,,,,,,,,,,,,,,,,,,,,,,,,,,,,,,,,,,l,2.032999992,ESTREL,FALSE,,,,,,,132,estrella,Catalan,Sounds/cat_estrella.mp3,2020-06-13_12h25.09.538,TranslationElicitation_spa,3.2.4,Win32,60,5ee3dd701da2350bd1e67f35,,1,0,80,27,1,79
,,,,,,,,,,,,,,,,,,,,,,,,,,,,,,,,,,,l,2.183000088,ESTRELL,FALSE,,,,,,,132,estrella,Catalan,Sounds/cat_estrella.mp3,2020-06-13_12h25.09.538,TranslationElicitation_spa,3.2.4,Win32,60,5ee3dd701da2350bd1e67f35,,1,0,80,27,1,79
,,,,,,,,,,,,,,,,,,,,,,,,,,,,,,,,,,,a,2.299999952,ESTRELLA,FALSE,,,,,,,132,estrella,Catalan,Sounds/cat_estrella.mp3,2020-06-13_12h25.09.538,TranslationElicitation_spa,3.2.4,Win32,60,5ee3dd701da2350bd1e67f35,,1,0,80,27,1,79
,,,,,,,,,,,,,,,,,,,,,,,,,,,,,,,,,,,return,2.518000126,,FALSE,,,,,,,132,estrella,Catalan,Sounds/cat_estrella.mp3,2020-06-13_12h25.09.538,TranslationElicitation_spa,3.2.4,Win32,60,5ee3dd701da2350bd1e67f35,2.518000126,1,0,80,27,1,79
,,,,,,,,,,,,,,,,,,,,,,,,,,,,,,,,,,,,,,,,,,,,,132,estrella,Catalan,Sounds/cat_estrella.mp3,2020-06-13_12h25.09.538,TranslationElicitation_spa,3.2.4,Win32,60,5ee3dd701da2350bd1e67f35,,1,0,80,27,1,79
,,,,,,,,,,,,,,,,,,,,,,,,,,,,,,,,,,,g,1.937999964,G,FALSE,,,,,,,140,gat,Catalan,Sounds/cat_gat.mp3,2020-06-13_12h25.09.538,TranslationElicitation_spa,3.2.4,Win32,60,5ee3dd701da2350bd1e67f35,,1,0,80,35,1,79
,,,,,,,,,,,,,,,,,,,,,,,,,,,,,,,,,,,a,2.121999979,GA,FALSE,,,,,,,140,gat,Catalan,Sounds/cat_gat.mp3,2020-06-13_12h25.09.538,TranslationElicitation_spa,3.2.4,Win32,60,5ee3dd701da2350bd1e67f35,,1,0,80,35,1,79
,,,,,,,,,,,,,,,,,,,,,,,,,,,,,,,,,,,t,2.256000042,GAT,FALSE,,,,,,,140,gat,Catalan,Sounds/cat_gat.mp3,2020-06-13_12h25.09.538,TranslationElicitation_spa,3.2.4,Win32,60,5ee3dd701da2350bd1e67f35,,1,0,80,35,1,79
,,,,,,,,,,,,,,,,,,,,,,,,,,,,,,,,,,,o,2.355999947,GATO,FALSE,,,,,,,140,gat,Catalan,Sounds/cat_gat.mp3,2020-06-13_12h25.09.538,TranslationElicitation_spa,3.2.4,Win32,60,5ee3dd701da2350bd1e67f35,,1,0,80,35,1,79
,,,,,,,,,,,,,,,,,,,,,,,,,,,,,,,,,,,return,2.575999975,,FALSE,,,,,,,140,gat,Catalan,Sounds/cat_gat.mp3,2020-06-13_12h25.09.538,TranslationElicitation_spa,3.2.4,Win32,60,5ee3dd701da2350bd1e67f35,2.575999975,1,0,80,35,1,79
,,,,,,,,,,,,,,,,,,,,,,,,,,,,,,,,,,,,,,,,,,,,,140,gat,Catalan,Sounds/cat_gat.mp3,2020-06-13_12h25.09.538,TranslationElicitation_spa,3.2.4,Win32,60,5ee3dd701da2350bd1e67f35,,1,0,80,35,1,79
,,,,,,,,,,,,,,,,,,,,,,,,,,,,,,,,,,,c,1.291000128,C,FALSE,,,,,,,127,cotxe,Catalan,Sounds/cat_cotxe.mp3,2020-06-13_12h25.09.538,TranslationElicitation_spa,3.2.4,Win32,60,5ee3dd701da2350bd1e67f35,,1,0,80,22,1,79
,,,,,,,,,,,,,,,,,,,,,,,,,,,,,,,,,,,o,1.407999992,CO,FALSE,,,,,,,127,cotxe,Catalan,Sounds/cat_cotxe.mp3,2020-06-13_12h25.09.538,TranslationElicitation_spa,3.2.4,Win32,60,5ee3dd701da2350bd1e67f35,,1,0,80,22,1,79
,,,,,,,,,,,,,,,,,,,,,,,,,,,,,,,,,,,c,1.556999922,COC,FALSE,,,,,,,127,cotxe,Catalan,Sounds/cat_cotxe.mp3,2020-06-13_12h25.09.538,TranslationElicitation_spa,3.2.4,Win32,60,5ee3dd701da2350bd1e67f35,,1,0,80,22,1,79
,,,,,,,,,,,,,,,,,,,,,,,,,,,,,,,,,,,h,1.643000126,COCH,FALSE,,,,,,,127,cotxe,Catalan,Sounds/cat_cotxe.mp3,2020-06-13_12h25.09.538,TranslationElicitation_spa,3.2.4,Win32,60,5ee3dd701da2350bd1e67f35,,1,0,80,22,1,79
,,,,,,,,,,,,,,,,,,,,,,,,,,,,,,,,,,,e,1.776000023,COCHE,FALSE,,,,,,,127,cotxe,Catalan,Sounds/cat_cotxe.mp3,2020-06-13_12h25.09.538,TranslationElicitation_spa,3.2.4,Win32,60,5ee3dd701da2350bd1e67f35,,1,0,80,22,1,79
,,,,,,,,,,,,,,,,,,,,,,,,,,,,,,,,,,,return,1.990999937,,FALSE,,,,,,,127,cotxe,Catalan,Sounds/cat_cotxe.mp3,2020-06-13_12h25.09.538,TranslationElicitation_spa,3.2.4,Win32,60,5ee3dd701da2350bd1e67f35,1.990999937,1,0,80,22,1,79
,,,,,,,,,,,,,,,,,,,,,,,,,,,,,,,,,,,,,,,,,,,,,127,cotxe,Catalan,Sounds/cat_cotxe.mp3,2020-06-13_12h25.09.538,TranslationElicitation_spa,3.2.4,Win32,60,5ee3dd701da2350bd1e67f35,,1,0,80,22,1,79
,,,,,,,,,,,,,,,,,,,,,,,,,,,,,,,,,,,a,4.508000135,A,FALSE,,,,,,,130,entrepa,Catalan,Sounds/cat_entrepa.mp3,2020-06-13_12h25.09.538,TranslationElicitation_spa,3.2.4,Win32,60,5ee3dd701da2350bd1e67f35,,1,0,80,25,1,79
,,,,,,,,,,,,,,,,,,,,,,,,,,,,,,,,,,,t,4.659000158,AT,FALSE,,,,,,,130,entrepa,Catalan,Sounds/cat_entrepa.mp3,2020-06-13_12h25.09.538,TranslationElicitation_spa,3.2.4,Win32,60,5ee3dd701da2350bd1e67f35,,1,0,80,25,1,79
,,,,,,,,,,,,,,,,,,,,,,,,,,,,,,,,,,,r,4.809000015,ATR,FALSE,,,,,,,130,entrepa,Catalan,Sounds/cat_entrepa.mp3,2020-06-13_12h25.09.538,TranslationElicitation_spa,3.2.4,Win32,60,5ee3dd701da2350bd1e67f35,,1,0,80,25,1,79
,,,,,,,,,,,,,,,,,,,,,,,,,,,,,,,,,,,a,4.894000053,ATRA,FALSE,,,,,,,130,entrepa,Catalan,Sounds/cat_entrepa.mp3,2020-06-13_12h25.09.538,TranslationElicitation_spa,3.2.4,Win32,60,5ee3dd701da2350bd1e67f35,,1,0,80,25,1,79
,,,,,,,,,,,,,,,,,,,,,,,,,,,,,,,,,,,p,5.009000063,ATRAP,FALSE,,,,,,,130,entrepa,Catalan,Sounds/cat_entrepa.mp3,2020-06-13_12h25.09.538,TranslationElicitation_spa,3.2.4,Win32,60,5ee3dd701da2350bd1e67f35,,1,0,80,25,1,79
,,,,,,,,,,,,,,,,,,,,,,,,,,,,,,,,,,,a,5.143000126,ATRAPA,FALSE,,,,,,,130,entrepa,Catalan,Sounds/cat_entrepa.mp3,2020-06-13_12h25.09.538,TranslationElicitation_spa,3.2.4,Win32,60,5ee3dd701da2350bd1e67f35,,1,0,80,25,1,79
,,,,,,,,,,,,,,,,,,,,,,,,,,,,,,,,,,,r,5.226000071,ATRAPAR,FALSE,,,,,,,130,entrepa,Catalan,Sounds/cat_entrepa.mp3,2020-06-13_12h25.09.538,TranslationElicitation_spa,3.2.4,Win32,60,5ee3dd701da2350bd1e67f35,,1,0,80,25,1,79
,,,,,,,,,,,,,,,,,,,,,,,,,,,,,,,,,,,return,5.443000078,,FALSE,,,,,,,130,entrepa,Catalan,Sounds/cat_entrepa.mp3,2020-06-13_12h25.09.538,TranslationElicitation_spa,3.2.4,Win32,60,5ee3dd701da2350bd1e67f35,5.443000078,1,0,80,25,1,79
,,,,,,,,,,,,,,,,,,,,,,,,,,,,,,,,,,,,,,,,,,,,,130,entrepa,Catalan,Sounds/cat_entrepa.mp3,2020-06-13_12h25.09.538,TranslationElicitation_spa,3.2.4,Win32,60,5ee3dd701da2350bd1e67f35,,1,0,80,25,1,79
,,,,,,,,,,,,,,,,,,,,,,,,,,,,,,,,,,,b,3.222999811,B,FALSE,,,,,,,116,bolquer,Catalan,Sounds/cat_bolquer.mp3,2020-06-13_12h25.09.538,TranslationElicitation_spa,3.2.4,Win32,60,5ee3dd701da2350bd1e67f35,,1,0,80,11,1,79
,,,,,,,,,,,,,,,,,,,,,,,,,,,,,,,,,,,o,3.406999826,BO,FALSE,,,,,,,116,bolquer,Catalan,Sounds/cat_bolquer.mp3,2020-06-13_12h25.09.538,TranslationElicitation_spa,3.2.4,Win32,60,5ee3dd701da2350bd1e67f35,,1,0,80,11,1,79
,,,,,,,,,,,,,,,,,,,,,,,,,,,,,,,,,,,s,3.607999802,BOS,FALSE,,,,,,,116,bolquer,Catalan,Sounds/cat_bolquer.mp3,2020-06-13_12h25.09.538,TranslationElicitation_spa,3.2.4,Win32,60,5ee3dd701da2350bd1e67f35,,1,0,80,11,1,79
,,,,,,,,,,,,,,,,,,,,,,,,,,,,,,,,,,,q,3.808999777,BOSQ,FALSE,,,,,,,116,bolquer,Catalan,Sounds/cat_bolquer.mp3,2020-06-13_12h25.09.538,TranslationElicitation_spa,3.2.4,Win32,60,5ee3dd701da2350bd1e67f35,,1,0,80,11,1,79
,,,,,,,,,,,,,,,,,,,,,,,,,,,,,,,,,,,u,3.924999952,BOSQU,FALSE,,,,,,,116,bolquer,Catalan,Sounds/cat_bolquer.mp3,2020-06-13_12h25.09.538,TranslationElicitation_spa,3.2.4,Win32,60,5ee3dd701da2350bd1e67f35,,1,0,80,11,1,79
,,,,,,,,,,,,,,,,,,,,,,,,,,,,,,,,,,,e,4.041999817,BOSQUE,FALSE,,,,,,,116,bolquer,Catalan,Sounds/cat_bolquer.mp3,2020-06-13_12h25.09.538,TranslationElicitation_spa,3.2.4,Win32,60,5ee3dd701da2350bd1e67f35,,1,0,80,11,1,79
,,,,,,,,,,,,,,,,,,,,,,,,,,,,,,,,,,,return,4.225999832,,FALSE,,,,,,,116,bolquer,Catalan,Sounds/cat_bolquer.mp3,2020-06-13_12h25.09.538,TranslationElicitation_spa,3.2.4,Win32,60,5ee3dd701da2350bd1e67f35,4.225999832,1,0,80,11,1,79
,,,,,,,,,,,,,,,,,,,,,,,,,,,,,,,,,,,,,,,,,,,,,116,bolquer,Catalan,Sounds/cat_bolquer.mp3,2020-06-13_12h25.09.538,TranslationElicitation_spa,3.2.4,Win32,60,5ee3dd701da2350bd1e67f35,,1,0,80,11,1,79
,,,,,,,,,,,,,,,,,,,,,,,,,,,,,,,,,,,c,1.457999945,C,FALSE,,,,,,,126,corona,Catalan,Sounds/cat_corona.mp3,2020-06-13_12h25.09.538,TranslationElicitation_spa,3.2.4,Win32,60,5ee3dd701da2350bd1e67f35,,1,0,80,21,1,79
,,,,,,,,,,,,,,,,,,,,,,,,,,,,,,,,,,,o,1.555000067,CO,FALSE,,,,,,,126,corona,Catalan,Sounds/cat_corona.mp3,2020-06-13_12h25.09.538,TranslationElicitation_spa,3.2.4,Win32,60,5ee3dd701da2350bd1e67f35,,1,0,80,21,1,79
,,,,,,,,,,,,,,,,,,,,,,,,,,,,,,,,,,,r,1.721999884,COR,FALSE,,,,,,,126,corona,Catalan,Sounds/cat_corona.mp3,2020-06-13_12h25.09.538,TranslationElicitation_spa,3.2.4,Win32,60,5ee3dd701da2350bd1e67f35,,1,0,80,21,1,79
,,,,,,,,,,,,,,,,,,,,,,,,,,,,,,,,,,,o,1.792000055,CORO,FALSE,,,,,,,126,corona,Catalan,Sounds/cat_corona.mp3,2020-06-13_12h25.09.538,TranslationElicitation_spa,3.2.4,Win32,60,5ee3dd701da2350bd1e67f35,,1,0,80,21,1,79
,,,,,,,,,,,,,,,,,,,,,,,,,,,,,,,,,,,n,1.954999924,CORON,FALSE,,,,,,,126,corona,Catalan,Sounds/cat_corona.mp3,2020-06-13_12h25.09.538,TranslationElicitation_spa,3.2.4,Win32,60,5ee3dd701da2350bd1e67f35,,1,0,80,21,1,79
,,,,,,,,,,,,,,,,,,,,,,,,,,,,,,,,,,,a,2.105000019,CORONA,FALSE,,,,,,,126,corona,Catalan,Sounds/cat_corona.mp3,2020-06-13_12h25.09.538,TranslationElicitation_spa,3.2.4,Win32,60,5ee3dd701da2350bd1e67f35,,1,0,80,21,1,79
,,,,,,,,,,,,,,,,,,,,,,,,,,,,,,,,,,,return,2.422999859,,FALSE,,,,,,,126,corona,Catalan,Sounds/cat_corona.mp3,2020-06-13_12h25.09.538,TranslationElicitation_spa,3.2.4,Win32,60,5ee3dd701da2350bd1e67f35,2.422999859,1,0,80,21,1,79
,,,,,,,,,,,,,,,,,,,,,,,,,,,,,,,,,,,,,,,,,,,,,126,corona,Catalan,Sounds/cat_corona.mp3,2020-06-13_12h25.09.538,TranslationElicitation_spa,3.2.4,Win32,60,5ee3dd701da2350bd1e67f35,,1,0,80,21,1,79
,,,,,,,,,,,,,,,,,,,,,,,,,,,,,,,,,,,m,1.346999884,M,FALSE,,,,,,,152,ma,Catalan,Sounds/cat_ma.mp3,2020-06-13_12h25.09.538,TranslationElicitation_spa,3.2.4,Win32,60,5ee3dd701da2350bd1e67f35,,1,0,80,46,1,79
,,,,,,,,,,,,,,,,,,,,,,,,,,,,,,,,,,,a,1.596999884,MA,FALSE,,,,,,,152,ma,Catalan,Sounds/cat_ma.mp3,2020-06-13_12h25.09.538,TranslationElicitation_spa,3.2.4,Win32,60,5ee3dd701da2350bd1e67f35,,1,0,80,46,1,79
,,,,,,,,,,,,,,,,,,,,,,,,,,,,,,,,,,,r,1.765000105,MAR,FALSE,,,,,,,152,ma,Catalan,Sounds/cat_ma.mp3,2020-06-13_12h25.09.538,TranslationElicitation_spa,3.2.4,Win32,60,5ee3dd701da2350bd1e67f35,,1,0,80,46,1,79
,,,,,,,,,,,,,,,,,,,,,,,,,,,,,,,,,,,backspace,2.772000074,M,TRUE,,,,,,,152,ma,Catalan,Sounds/cat_ma.mp3,2020-06-13_12h25.09.538,TranslationElicitation_spa,3.2.4,Win32,60,5ee3dd701da2350bd1e67f35,,1,0,80,46,1,79
,,,,,,,,,,,,,,,,,,,,,,,,,,,,,,,,,,,d,2.904999971,MD,TRUE,,,,,,,152,ma,Catalan,Sounds/cat_ma.mp3,2020-06-13_12h25.09.538,TranslationElicitation_spa,3.2.4,Win32,60,5ee3dd701da2350bd1e67f35,,1,0,80,46,1,79
,,,,,,,,,,,,,,,,,,,,,,,,,,,,,,,,,,,r,3.138000011,MDR,TRUE,,,,,,,152,ma,Catalan,Sounds/cat_ma.mp3,2020-06-13_12h25.09.538,TranslationElicitation_spa,3.2.4,Win32,60,5ee3dd701da2350bd1e67f35,,1,0,80,46,1,79
,,,,,,,,,,,,,,,,,,,,,,,,,,,,,,,,,,,e,3.221999884,MDRE,TRUE,,,,,,,152,ma,Catalan,Sounds/cat_ma.mp3,2020-06-13_12h25.09.538,TranslationElicitation_spa,3.2.4,Win32,60,5ee3dd701da2350bd1e67f35,,1,0,80,46,1,79
,,,,,,,,,,,,,,,,,,,,,,,,,,,,,,,,,,,backspace,3.552000046,MD,TRUE,,,,,,,152,ma,Catalan,Sounds/cat_ma.mp3,2020-06-13_12h25.09.538,TranslationElicitation_spa,3.2.4,Win32,60,5ee3dd701da2350bd1e67f35,,1,0,80,46,1,79
,,,,,,,,,,,,,,,,,,,,,,,,,,,,,,,,,,,backspace,3.737999916,,TRUE,,,,,,,152,ma,Catalan,Sounds/cat_ma.mp3,2020-06-13_12h25.09.538,TranslationElicitation_spa,3.2.4,Win32,60,5ee3dd701da2350bd1e67f35,,1,0,80,46,1,79
,,,,,,,,,,,,,,,,,,,,,,,,,,,,,,,,,,,a,3.936000109,A,TRUE,,,,,,,152,ma,Catalan,Sounds/cat_ma.mp3,2020-06-13_12h25.09.538,TranslationElicitation_spa,3.2.4,Win32,60,5ee3dd701da2350bd1e67f35,,1,0,80,46,1,79
,,,,,,,,,,,,,,,,,,,,,,,,,,,,,,,,,,,d,4.052999973,AD,TRUE,,,,,,,152,ma,Catalan,Sounds/cat_ma.mp3,2020-06-13_12h25.09.538,TranslationElicitation_spa,3.2.4,Win32,60,5ee3dd701da2350bd1e67f35,,1,0,80,46,1,79
,,,,,,,,,,,,,,,,,,,,,,,,,,,,,,,,,,,backspace,4.454999924,,TRUE,,,,,,,152,ma,Catalan,Sounds/cat_ma.mp3,2020-06-13_12h25.09.538,TranslationElicitation_spa,3.2.4,Win32,60,5ee3dd701da2350bd1e67f35,,1,0,80,46,1,79
,,,,,,,,,,,,,,,,,,,,,,,,,,,,,,,,,,,backspace,4.654999971,,TRUE,,,,,,,152,ma,Catalan,Sounds/cat_ma.mp3,2020-06-13_12h25.09.538,TranslationElicitation_spa,3.2.4,Win32,60,5ee3dd701da2350bd1e67f35,,1,0,80,46,1,79
,,,,,,,,,,,,,,,,,,,,,,,,,,,,,,,,,,,m,5.20600009,M,TRUE,,,,,,,152,ma,Catalan,Sounds/cat_ma.mp3,2020-06-13_12h25.09.538,TranslationElicitation_spa,3.2.4,Win32,60,5ee3dd701da2350bd1e67f35,,1,0,80,46,1,79
,,,,,,,,,,,,,,,,,,,,,,,,,,,,,,,,,,,a,5.322999954,MA,TRUE,,,,,,,152,ma,Catalan,Sounds/cat_ma.mp3,2020-06-13_12h25.09.538,TranslationElicitation_spa,3.2.4,Win32,60,5ee3dd701da2350bd1e67f35,,1,0,80,46,1,79
,,,,,,,,,,,,,,,,,,,,,,,,,,,,,,,,,,,d,5.423000097,MAD,TRUE,,,,,,,152,ma,Catalan,Sounds/cat_ma.mp3,2020-06-13_12h25.09.538,TranslationElicitation_spa,3.2.4,Win32,60,5ee3dd701da2350bd1e67f35,,1,0,80,46,1,79
,,,,,,,,,,,,,,,,,,,,,,,,,,,,,,,,,,,r,5.655999899,MADR,TRUE,,,,,,,152,ma,Catalan,Sounds/cat_ma.mp3,2020-06-13_12h25.09.538,TranslationElicitation_spa,3.2.4,Win32,60,5ee3dd701da2350bd1e67f35,,1,0,80,46,1,79
,,,,,,,,,,,,,,,,,,,,,,,,,,,,,,,,,,,e,5.74000001,MADRE,TRUE,,,,,,,152,ma,Catalan,Sounds/cat_ma.mp3,2020-06-13_12h25.09.538,TranslationElicitation_spa,3.2.4,Win32,60,5ee3dd701da2350bd1e67f35,,1,0,80,46,1,79
,,,,,,,,,,,,,,,,,,,,,,,,,,,,,,,,,,,return,5.974999905,,TRUE,,,,,,,152,ma,Catalan,Sounds/cat_ma.mp3,2020-06-13_12h25.09.538,TranslationElicitation_spa,3.2.4,Win32,60,5ee3dd701da2350bd1e67f35,5.974999905,1,0,80,46,1,79
,,,,,,,,,,,,,,,,,,,,,,,,,,,,,,,,,,,,,,,,,,,,,152,ma,Catalan,Sounds/cat_ma.mp3,2020-06-13_12h25.09.538,TranslationElicitation_spa,3.2.4,Win32,60,5ee3dd701da2350bd1e67f35,,1,0,80,46,1,79
,,,,,,,,,,,,,,,,,,,,,,,,,,,,,,,,,,,r,1.408000231,R,FALSE,,,,,,,183,tren,Catalan,Sounds/cat_tren.mp3,2020-06-13_12h25.09.538,TranslationElicitation_spa,3.2.4,Win32,60,5ee3dd701da2350bd1e67f35,,1,0,80,74,1,79
,,,,,,,,,,,,,,,,,,,,,,,,,,,,,,,,,,,backspace,1.943000078,,TRUE,,,,,,,183,tren,Catalan,Sounds/cat_tren.mp3,2020-06-13_12h25.09.538,TranslationElicitation_spa,3.2.4,Win32,60,5ee3dd701da2350bd1e67f35,,1,0,80,74,1,79
,,,,,,,,,,,,,,,,,,,,,,,,,,,,,,,,,,,t,2.093000174,T,TRUE,,,,,,,183,tren,Catalan,Sounds/cat_tren.mp3,2020-06-13_12h25.09.538,TranslationElicitation_spa,3.2.4,Win32,60,5ee3dd701da2350bd1e67f35,,1,0,80,74,1,79
,,,,,,,,,,,,,,,,,,,,,,,,,,,,,,,,,,,r,2.294000149,TR,TRUE,,,,,,,183,tren,Catalan,Sounds/cat_tren.mp3,2020-06-13_12h25.09.538,TranslationElicitation_spa,3.2.4,Win32,60,5ee3dd701da2350bd1e67f35,,1,0,80,74,1,79
,,,,,,,,,,,,,,,,,,,,,,,,,,,,,,,,,,,e,2.411000013,TRE,TRUE,,,,,,,183,tren,Catalan,Sounds/cat_tren.mp3,2020-06-13_12h25.09.538,TranslationElicitation_spa,3.2.4,Win32,60,5ee3dd701da2350bd1e67f35,,1,0,80,74,1,79
,,,,,,,,,,,,,,,,,,,,,,,,,,,,,,,,,,,n,2.561000109,TREN,TRUE,,,,,,,183,tren,Catalan,Sounds/cat_tren.mp3,2020-06-13_12h25.09.538,TranslationElicitation_spa,3.2.4,Win32,60,5ee3dd701da2350bd1e67f35,,1,0,80,74,1,79
,,,,,,,,,,,,,,,,,,,,,,,,,,,,,,,,,,,return,2.895000219,,TRUE,,,,,,,183,tren,Catalan,Sounds/cat_tren.mp3,2020-06-13_12h25.09.538,TranslationElicitation_spa,3.2.4,Win32,60,5ee3dd701da2350bd1e67f35,2.895000219,1,0,80,74,1,79
,,,,,,,,,,,,,,,,,,,,,,,,,,,,,,,,,,,,,,,,,,,,,183,tren,Catalan,Sounds/cat_tren.mp3,2020-06-13_12h25.09.538,TranslationElicitation_spa,3.2.4,Win32,60,5ee3dd701da2350bd1e67f35,,1,0,80,74,1,79
,,,,,,,,,,,,,,,,,,,,,,,,,,,,,,,,,,,c,1.269000053,C,FALSE,,,,,,,122,casa,Catalan,Sounds/cat_casa.mp3,2020-06-13_12h25.09.538,TranslationElicitation_spa,3.2.4,Win32,60,5ee3dd701da2350bd1e67f35,,1,0,80,17,1,79
,,,,,,,,,,,,,,,,,,,,,,,,,,,,,,,,,,,a,1.703000069,CA,FALSE,,,,,,,122,casa,Catalan,Sounds/cat_casa.mp3,2020-06-13_12h25.09.538,TranslationElicitation_spa,3.2.4,Win32,60,5ee3dd701da2350bd1e67f35,,1,0,80,17,1,79
,,,,,,,,,,,,,,,,,,,,,,,,,,,,,,,,,,,s,1.870000124,CAS,FALSE,,,,,,,122,casa,Catalan,Sounds/cat_casa.mp3,2020-06-13_12h25.09.538,TranslationElicitation_spa,3.2.4,Win32,60,5ee3dd701da2350bd1e67f35,,1,0,80,17,1,79
,,,,,,,,,,,,,,,,,,,,,,,,,,,,,,,,,,,a,1.936000109,CASA,FALSE,,,,,,,122,casa,Catalan,Sounds/cat_casa.mp3,2020-06-13_12h25.09.538,TranslationElicitation_spa,3.2.4,Win32,60,5ee3dd701da2350bd1e67f35,,1,0,80,17,1,79
,,,,,,,,,,,,,,,,,,,,,,,,,,,,,,,,,,,return,2.704999924,,FALSE,,,,,,,122,casa,Catalan,Sounds/cat_casa.mp3,2020-06-13_12h25.09.538,TranslationElicitation_spa,3.2.4,Win32,60,5ee3dd701da2350bd1e67f35,2.704999924,1,0,80,17,1,79
,,,,,,,,,,,,,,,,,,,,,,,,,,,,,,,,,,,,,,,,,,,,,122,casa,Catalan,Sounds/cat_casa.mp3,2020-06-13_12h25.09.538,TranslationElicitation_spa,3.2.4,Win32,60,5ee3dd701da2350bd1e67f35,,1,0,80,17,1,79
,,,,,,,,,,,,,,,,,,,,,,,,,,,,,,,,,,,c,1.319999933,C,FALSE,,,,,,,138,galeta,Catalan,Sounds/cat_galeta.mp3,2020-06-13_12h25.09.538,TranslationElicitation_spa,3.2.4,Win32,60,5ee3dd701da2350bd1e67f35,,1,0,80,33,1,79
,,,,,,,,,,,,,,,,,,,,,,,,,,,,,,,,,,,o,1.487999916,CO,FALSE,,,,,,,138,galeta,Catalan,Sounds/cat_galeta.mp3,2020-06-13_12h25.09.538,TranslationElicitation_spa,3.2.4,Win32,60,5ee3dd701da2350bd1e67f35,,1,0,80,33,1,79
,,,,,,,,,,,,,,,,,,,,,,,,,,,,,,,,,,,l,1.70299983,COL,FALSE,,,,,,,138,galeta,Catalan,Sounds/cat_galeta.mp3,2020-06-13_12h25.09.538,TranslationElicitation_spa,3.2.4,Win32,60,5ee3dd701da2350bd1e67f35,,1,0,80,33,1,79
,,,,,,,,,,,,,,,,,,,,,,,,,,,,,,,,,,,e,1.786999941,COLE,FALSE,,,,,,,138,galeta,Catalan,Sounds/cat_galeta.mp3,2020-06-13_12h25.09.538,TranslationElicitation_spa,3.2.4,Win32,60,5ee3dd701da2350bd1e67f35,,1,0,80,33,1,79
,,,,,,,,,,,,,,,,,,,,,,,,,,,,,,,,,,,t,1.919999838,COLET,FALSE,,,,,,,138,galeta,Catalan,Sounds/cat_galeta.mp3,2020-06-13_12h25.09.538,TranslationElicitation_spa,3.2.4,Win32,60,5ee3dd701da2350bd1e67f35,,1,0,80,33,1,79
,,,,,,,,,,,,,,,,,,,,,,,,,,,,,,,,,,,a,2.086999893,COLETA,FALSE,,,,,,,138,galeta,Catalan,Sounds/cat_galeta.mp3,2020-06-13_12h25.09.538,TranslationElicitation_spa,3.2.4,Win32,60,5ee3dd701da2350bd1e67f35,,1,0,80,33,1,79
,,,,,,,,,,,,,,,,,,,,,,,,,,,,,,,,,,,return,2.319999933,,FALSE,,,,,,,138,galeta,Catalan,Sounds/cat_galeta.mp3,2020-06-13_12h25.09.538,TranslationElicitation_spa,3.2.4,Win32,60,5ee3dd701da2350bd1e67f35,2.319999933,1,0,80,33,1,79
,,,,,,,,,,,,,,,,,,,,,,,,,,,,,,,,,,,,,,,,,,,,,138,galeta,Catalan,Sounds/cat_galeta.mp3,2020-06-13_12h25.09.538,TranslationElicitation_spa,3.2.4,Win32,60,5ee3dd701da2350bd1e67f35,,1,0,80,33,1,79
,,,,,,,,,,,,,,,,,,,,,,,,,,,,,,,,,,,o,1.367000103,O,FALSE,,,,,,,156,moto,Catalan,Sounds/cat_moto.mp3,2020-06-13_12h25.09.538,TranslationElicitation_spa,3.2.4,Win32,60,5ee3dd701da2350bd1e67f35,,1,0,80,50,1,79
,,,,,,,,,,,,,,,,,,,,,,,,,,,,,,,,,,,backspace,1.868000031,,TRUE,,,,,,,156,moto,Catalan,Sounds/cat_moto.mp3,2020-06-13_12h25.09.538,TranslationElicitation_spa,3.2.4,Win32,60,5ee3dd701da2350bd1e67f35,,1,0,80,50,1,79
,,,,,,,,,,,,,,,,,,,,,,,,,,,,,,,,,,,m,2.135999918,M,TRUE,,,,,,,156,moto,Catalan,Sounds/cat_moto.mp3,2020-06-13_12h25.09.538,TranslationElicitation_spa,3.2.4,Win32,60,5ee3dd701da2350bd1e67f35,,1,0,80,50,1,79
,,,,,,,,,,,,,,,,,,,,,,,,,,,,,,,,,,,o,2.319999933,MO,TRUE,,,,,,,156,moto,Catalan,Sounds/cat_moto.mp3,2020-06-13_12h25.09.538,TranslationElicitation_spa,3.2.4,Win32,60,5ee3dd701da2350bd1e67f35,,1,0,80,50,1,79
,,,,,,,,,,,,,,,,,,,,,,,,,,,,,,,,,,,t,2.423000097,MOT,TRUE,,,,,,,156,moto,Catalan,Sounds/cat_moto.mp3,2020-06-13_12h25.09.538,TranslationElicitation_spa,3.2.4,Win32,60,5ee3dd701da2350bd1e67f35,,1,0,80,50,1,79
,,,,,,,,,,,,,,,,,,,,,,,,,,,,,,,,,,,o,2.486999989,MOTO,TRUE,,,,,,,156,moto,Catalan,Sounds/cat_moto.mp3,2020-06-13_12h25.09.538,TranslationElicitation_spa,3.2.4,Win32,60,5ee3dd701da2350bd1e67f35,,1,0,80,50,1,79
,,,,,,,,,,,,,,,,,,,,,,,,,,,,,,,,,,,return,2.687000036,,TRUE,,,,,,,156,moto,Catalan,Sounds/cat_moto.mp3,2020-06-13_12h25.09.538,TranslationElicitation_spa,3.2.4,Win32,60,5ee3dd701da2350bd1e67f35,2.687000036,1,0,80,50,1,79
,,,,,,,,,,,,,,,,,,,,,,,,,,,,,,,,,,,,,,,,,,,,,156,moto,Catalan,Sounds/cat_moto.mp3,2020-06-13_12h25.09.538,TranslationElicitation_spa,3.2.4,Win32,60,5ee3dd701da2350bd1e67f35,,1,0,80,50,1,79
,,,,,,,,,,,,,,,,,,,,,,,,,,,,,,,,,,,l,2.888999939,L,FALSE,,,,,,,148,lleo,Catalan,Sounds/cat_lleo.mp3,2020-06-13_12h25.09.538,TranslationElicitation_spa,3.2.4,Win32,60,5ee3dd701da2350bd1e67f35,,1,0,80,42,1,79
,,,,,,,,,,,,,,,,,,,,,,,,,,,,,,,,,,,l,3.023000002,LL,FALSE,,,,,,,148,lleo,Catalan,Sounds/cat_lleo.mp3,2020-06-13_12h25.09.538,TranslationElicitation_spa,3.2.4,Win32,60,5ee3dd701da2350bd1e67f35,,1,0,80,42,1,79
,,,,,,,,,,,,,,,,,,,,,,,,,,,,,,,,,,,a,3.157000065,LLA,FALSE,,,,,,,148,lleo,Catalan,Sounds/cat_lleo.mp3,2020-06-13_12h25.09.538,TranslationElicitation_spa,3.2.4,Win32,60,5ee3dd701da2350bd1e67f35,,1,0,80,42,1,79
,,,,,,,,,,,,,,,,,,,,,,,,,,,,,,,,,,,v,3.373999834,LLAV,FALSE,,,,,,,148,lleo,Catalan,Sounds/cat_lleo.mp3,2020-06-13_12h25.09.538,TranslationElicitation_spa,3.2.4,Win32,60,5ee3dd701da2350bd1e67f35,,1,0,80,42,1,79
,,,,,,,,,,,,,,,,,,,,,,,,,,,,,,,,,,,e,3.540999889,LLAVE,FALSE,,,,,,,148,lleo,Catalan,Sounds/cat_lleo.mp3,2020-06-13_12h25.09.538,TranslationElicitation_spa,3.2.4,Win32,60,5ee3dd701da2350bd1e67f35,,1,0,80,42,1,79
,,,,,,,,,,,,,,,,,,,,,,,,,,,,,,,,,,,return,3.912999868,,FALSE,,,,,,,148,lleo,Catalan,Sounds/cat_lleo.mp3,2020-06-13_12h25.09.538,TranslationElicitation_spa,3.2.4,Win32,60,5ee3dd701da2350bd1e67f35,3.912999868,1,0,80,42,1,79
,,,,,,,,,,,,,,,,,,,,,,,,,,,,,,,,,,,,,,,,,,,,,148,lleo,Catalan,Sounds/cat_lleo.mp3,2020-06-13_12h25.09.538,TranslationElicitation_spa,3.2.4,Win32,60,5ee3dd701da2350bd1e67f35,,1,0,80,42,1,79
,,,,,,,,,,,,,,,,,,,,,,,,,,,,,,,,,,,e,2.039999962,E,FALSE,,,,,,,175,raspall,Catalan,Sounds/cat_raspall.mp3,2020-06-13_12h25.09.538,TranslationElicitation_spa,3.2.4,Win32,60,5ee3dd701da2350bd1e67f35,,1,0,80,67,1,79
,,,,,,,,,,,,,,,,,,,,,,,,,,,,,,,,,,,s,2.256999969,ES,FALSE,,,,,,,175,raspall,Catalan,Sounds/cat_raspall.mp3,2020-06-13_12h25.09.538,TranslationElicitation_spa,3.2.4,Win32,60,5ee3dd701da2350bd1e67f35,,1,0,80,67,1,79
,,,,,,,,,,,,,,,,,,,,,,,,,,,,,,,,,,,p,2.374000072,ESP,FALSE,,,,,,,175,raspall,Catalan,Sounds/cat_raspall.mp3,2020-06-13_12h25.09.538,TranslationElicitation_spa,3.2.4,Win32,60,5ee3dd701da2350bd1e67f35,,1,0,80,67,1,79
,,,,,,,,,,,,,,,,,,,,,,,,,,,,,,,,,,,a,2.475000143,ESPA,FALSE,,,,,,,175,raspall,Catalan,Sounds/cat_raspall.mp3,2020-06-13_12h25.09.538,TranslationElicitation_spa,3.2.4,Win32,60,5ee3dd701da2350bd1e67f35,,1,0,80,67,1,79
,,,,,,,,,,,,,,,,,,,,,,,,,,,,,,,,,,,l,2.625,ESPAL,FALSE,,,,,,,175,raspall,Catalan,Sounds/cat_raspall.mp3,2020-06-13_12h25.09.538,TranslationElicitation_spa,3.2.4,Win32,60,5ee3dd701da2350bd1e67f35,,1,0,80,67,1,79
,,,,,,,,,,,,,,,,,,,,,,,,,,,,,,,,,,,d,2.759000063,ESPALD,FALSE,,,,,,,175,raspall,Catalan,Sounds/cat_raspall.mp3,2020-06-13_12h25.09.538,TranslationElicitation_spa,3.2.4,Win32,60,5ee3dd701da2350bd1e67f35,,1,0,80,67,1,79
,,,,,,,,,,,,,,,,,,,,,,,,,,,,,,,,,,,a,2.842999935,ESPALDA,FALSE,,,,,,,175,raspall,Catalan,Sounds/cat_raspall.mp3,2020-06-13_12h25.09.538,TranslationElicitation_spa,3.2.4,Win32,60,5ee3dd701da2350bd1e67f35,,1,0,80,67,1,79
,,,,,,,,,,,,,,,,,,,,,,,,,,,,,,,,,,,return,3.643000126,,FALSE,,,,,,,175,raspall,Catalan,Sounds/cat_raspall.mp3,2020-06-13_12h25.09.538,TranslationElicitation_spa,3.2.4,Win32,60,5ee3dd701da2350bd1e67f35,3.643000126,1,0,80,67,1,79
,,,,,,,,,,,,,,,,,,,,,,,,,,,,,,,,,,,,,,,,,,,,,175,raspall,Catalan,Sounds/cat_raspall.mp3,2020-06-13_12h25.09.538,TranslationElicitation_spa,3.2.4,Win32,60,5ee3dd701da2350bd1e67f35,,1,0,80,67,1,79
,,,,,,,,,,,,,,,,,,,,,,,,,,,,,,,,,,,l,1.86500001,L,FALSE,,,,,,,151,lluna,Catalan,Sounds/cat_lluna.mp3,2020-06-13_12h25.09.538,TranslationElicitation_spa,3.2.4,Win32,60,5ee3dd701da2350bd1e67f35,,1,0,80,45,1,79
,,,,,,,,,,,,,,,,,,,,,,,,,,,,,,,,,,,u,2.132000208,LU,FALSE,,,,,,,151,lluna,Catalan,Sounds/cat_lluna.mp3,2020-06-13_12h25.09.538,TranslationElicitation_spa,3.2.4,Win32,60,5ee3dd701da2350bd1e67f35,,1,0,80,45,1,79
,,,,,,,,,,,,,,,,,,,,,,,,,,,,,,,,,,,n,2.366000175,LUN,FALSE,,,,,,,151,lluna,Catalan,Sounds/cat_lluna.mp3,2020-06-13_12h25.09.538,TranslationElicitation_spa,3.2.4,Win32,60,5ee3dd701da2350bd1e67f35,,1,0,80,45,1,79
,,,,,,,,,,,,,,,,,,,,,,,,,,,,,,,,,,,a,2.499000072,LUNA,FALSE,,,,,,,151,lluna,Catalan,Sounds/cat_lluna.mp3,2020-06-13_12h25.09.538,TranslationElicitation_spa,3.2.4,Win32,60,5ee3dd701da2350bd1e67f35,,1,0,80,45,1,79
,,,,,,,,,,,,,,,,,,,,,,,,,,,,,,,,,,,return,2.6650002,,FALSE,,,,,,,151,lluna,Catalan,Sounds/cat_lluna.mp3,2020-06-13_12h25.09.538,TranslationElicitation_spa,3.2.4,Win32,60,5ee3dd701da2350bd1e67f35,2.6650002,1,0,80,45,1,79
,,,,,,,,,,,,,,,,,,,,,,,,,,,,,,,,,,,,,,,,,,,,,151,lluna,Catalan,Sounds/cat_lluna.mp3,2020-06-13_12h25.09.538,TranslationElicitation_spa,3.2.4,Win32,60,5ee3dd701da2350bd1e67f35,,1,0,80,45,1,79
,,,,,,,,,,,,,,,,,,,,,,,,,,,,,,,,,,,t,1.333999872,T,FALSE,,,,,,,182,tomaquet,Catalan,Sounds/cat_tomaquet.mp3,2020-06-13_12h25.09.538,TranslationElicitation_spa,3.2.4,Win32,60,5ee3dd701da2350bd1e67f35,,1,0,80,73,1,79
,,,,,,,,,,,,,,,,,,,,,,,,,,,,,,,,,,,o,1.434000015,TO,FALSE,,,,,,,182,tomaquet,Catalan,Sounds/cat_tomaquet.mp3,2020-06-13_12h25.09.538,TranslationElicitation_spa,3.2.4,Win32,60,5ee3dd701da2350bd1e67f35,,1,0,80,73,1,79
,,,,,,,,,,,,,,,,,,,,,,,,,,,,,,,,,,,m,1.632999897,TOM,FALSE,,,,,,,182,tomaquet,Catalan,Sounds/cat_tomaquet.mp3,2020-06-13_12h25.09.538,TranslationElicitation_spa,3.2.4,Win32,60,5ee3dd701da2350bd1e67f35,,1,0,80,73,1,79
,,,,,,,,,,,,,,,,,,,,,,,,,,,,,,,,,,,a,1.766000032,TOMA,FALSE,,,,,,,182,tomaquet,Catalan,Sounds/cat_tomaquet.mp3,2020-06-13_12h25.09.538,TranslationElicitation_spa,3.2.4,Win32,60,5ee3dd701da2350bd1e67f35,,1,0,80,73,1,79
,,,,,,,,,,,,,,,,,,,,,,,,,,,,,,,,,,,t,1.915999889,TOMAT,FALSE,,,,,,,182,tomaquet,Catalan,Sounds/cat_tomaquet.mp3,2020-06-13_12h25.09.538,TranslationElicitation_spa,3.2.4,Win32,60,5ee3dd701da2350bd1e67f35,,1,0,80,73,1,79
,,,,,,,,,,,,,,,,,,,,,,,,,,,,,,,,,,,e,1.96600008,TOMATE,FALSE,,,,,,,182,tomaquet,Catalan,Sounds/cat_tomaquet.mp3,2020-06-13_12h25.09.538,TranslationElicitation_spa,3.2.4,Win32,60,5ee3dd701da2350bd1e67f35,,1,0,80,73,1,79
,,,,,,,,,,,,,,,,,,,,,,,,,,,,,,,,,,,return,2.200999975,,FALSE,,,,,,,182,tomaquet,Catalan,Sounds/cat_tomaquet.mp3,2020-06-13_12h25.09.538,TranslationElicitation_spa,3.2.4,Win32,60,5ee3dd701da2350bd1e67f35,2.200999975,1,0,80,73,1,79
,,,,,,,,,,,,,,,,,,,,,,,,,,,,,,,,,,,,,,,,,,,,,182,tomaquet,Catalan,Sounds/cat_tomaquet.mp3,2020-06-13_12h25.09.538,TranslationElicitation_spa,3.2.4,Win32,60,5ee3dd701da2350bd1e67f35,,1,0,80,73,1,79
,,,,,,,,,,,,,,,,,,,,,,,,,,,,,,,,,,,s,1.566999912,S,FALSE,,,,,,,177,sol,Catalan,Sounds/cat_sol.mp3,2020-06-13_12h25.09.538,TranslationElicitation_spa,3.2.4,Win32,60,5ee3dd701da2350bd1e67f35,,1,0,80,69,1,79
,,,,,,,,,,,,,,,,,,,,,,,,,,,,,,,,,,,o,1.73300004,SO,FALSE,,,,,,,177,sol,Catalan,Sounds/cat_sol.mp3,2020-06-13_12h25.09.538,TranslationElicitation_spa,3.2.4,Win32,60,5ee3dd701da2350bd1e67f35,,1,0,80,69,1,79
,,,,,,,,,,,,,,,,,,,,,,,,,,,,,,,,,,,l,1.981999874,SOL,FALSE,,,,,,,177,sol,Catalan,Sounds/cat_sol.mp3,2020-06-13_12h25.09.538,TranslationElicitation_spa,3.2.4,Win32,60,5ee3dd701da2350bd1e67f35,,1,0,80,69,1,79
,,,,,,,,,,,,,,,,,,,,,,,,,,,,,,,,,,,return,2.366999865,,FALSE,,,,,,,177,sol,Catalan,Sounds/cat_sol.mp3,2020-06-13_12h25.09.538,TranslationElicitation_spa,3.2.4,Win32,60,5ee3dd701da2350bd1e67f35,2.366999865,1,0,80,69,1,79
,,,,,,,,,,,,,,,,,,,,,,,,,,,,,,,,,,,,,,,,,,,,,177,sol,Catalan,Sounds/cat_sol.mp3,2020-06-13_12h25.09.538,TranslationElicitation_spa,3.2.4,Win32,60,5ee3dd701da2350bd1e67f35,,1,0,80,69,1,79
,,,,,,,,,,,,,,,,,,,,,,,,,,,,,,,,,,,g,1.316999912,G,FALSE,,,,,,,110,berenar,Catalan,Sounds/cat_berenar.mp3,2020-06-13_12h25.09.538,TranslationElicitation_spa,3.2.4,Win32,60,5ee3dd701da2350bd1e67f35,,1,0,80,5,1,79
,,,,,,,,,,,,,,,,,,,,,,,,,,,,,,,,,,,r,1.583999872,GR,FALSE,,,,,,,110,berenar,Catalan,Sounds/cat_berenar.mp3,2020-06-13_12h25.09.538,TranslationElicitation_spa,3.2.4,Win32,60,5ee3dd701da2350bd1e67f35,,1,0,80,5,1,79
,,,,,,,,,,,,,,,,,,,,,,,,,,,,,,,,,,,a,1.799999952,GRA,FALSE,,,,,,,110,berenar,Catalan,Sounds/cat_berenar.mp3,2020-06-13_12h25.09.538,TranslationElicitation_spa,3.2.4,Win32,60,5ee3dd701da2350bd1e67f35,,1,0,80,5,1,79
,,,,,,,,,,,,,,,,,,,,,,,,,,,,,,,,,,,n,1.900000095,GRAN,FALSE,,,,,,,110,berenar,Catalan,Sounds/cat_berenar.mp3,2020-06-13_12h25.09.538,TranslationElicitation_spa,3.2.4,Win32,60,5ee3dd701da2350bd1e67f35,,1,0,80,5,1,79
,,,,,,,,,,,,,,,,,,,,,,,,,,,,,,,,,,,a,2,GRANA,FALSE,,,,,,,110,berenar,Catalan,Sounds/cat_berenar.mp3,2020-06-13_12h25.09.538,TranslationElicitation_spa,3.2.4,Win32,60,5ee3dd701da2350bd1e67f35,,1,0,80,5,1,79
,,,,,,,,,,,,,,,,,,,,,,,,,,,,,,,,,,,d,2.134000063,GRANAD,FALSE,,,,,,,110,berenar,Catalan,Sounds/cat_berenar.mp3,2020-06-13_12h25.09.538,TranslationElicitation_spa,3.2.4,Win32,60,5ee3dd701da2350bd1e67f35,,1,0,80,5,1,79
,,,,,,,,,,,,,,,,,,,,,,,,,,,,,,,,,,,a,2.200000048,GRANADA,FALSE,,,,,,,110,berenar,Catalan,Sounds/cat_berenar.mp3,2020-06-13_12h25.09.538,TranslationElicitation_spa,3.2.4,Win32,60,5ee3dd701da2350bd1e67f35,,1,0,80,5,1,79
,,,,,,,,,,,,,,,,,,,,,,,,,,,,,,,,,,,return,2.434000015,,FALSE,,,,,,,110,berenar,Catalan,Sounds/cat_berenar.mp3,2020-06-13_12h25.09.538,TranslationElicitation_spa,3.2.4,Win32,60,5ee3dd701da2350bd1e67f35,2.434000015,1,0,80,5,1,79
,,,,,,,,,,,,,,,,,,,,,,,,,,,,,,,,,,,,,,,,,,,,,110,berenar,Catalan,Sounds/cat_berenar.mp3,2020-06-13_12h25.09.538,TranslationElicitation_spa,3.2.4,Win32,60,5ee3dd701da2350bd1e67f35,,1,0,80,5,1,79
,,,,,,,,,,,,,,,,,,,,,,,,,,,,,,,,,,,m,1.700000048,M,FALSE,,,,,,,154,mirall,Catalan,Sounds/cat_mirall.mp3,2020-06-13_12h25.09.538,TranslationElicitation_spa,3.2.4,Win32,60,5ee3dd701da2350bd1e67f35,,1,0,80,48,1,79
,,,,,,,,,,,,,,,,,,,,,,,,,,,,,,,,,,,i,1.933000088,MI,FALSE,,,,,,,154,mirall,Catalan,Sounds/cat_mirall.mp3,2020-06-13_12h25.09.538,TranslationElicitation_spa,3.2.4,Win32,60,5ee3dd701da2350bd1e67f35,,1,0,80,48,1,79
,,,,,,,,,,,,,,,,,,,,,,,,,,,,,,,,,,,r,2.065999985,MIR,FALSE,,,,,,,154,mirall,Catalan,Sounds/cat_mirall.mp3,2020-06-13_12h25.09.538,TranslationElicitation_spa,3.2.4,Win32,60,5ee3dd701da2350bd1e67f35,,1,0,80,48,1,79
,,,,,,,,,,,,,,,,,,,,,,,,,,,,,,,,,,,a,2.21600008,MIRA,FALSE,,,,,,,154,mirall,Catalan,Sounds/cat_mirall.mp3,2020-06-13_12h25.09.538,TranslationElicitation_spa,3.2.4,Win32,60,5ee3dd701da2350bd1e67f35,,1,0,80,48,1,79
,,,,,,,,,,,,,,,,,,,,,,,,,,,,,,,,,,,d,2.348999977,MIRAD,FALSE,,,,,,,154,mirall,Catalan,Sounds/cat_mirall.mp3,2020-06-13_12h25.09.538,TranslationElicitation_spa,3.2.4,Win32,60,5ee3dd701da2350bd1e67f35,,1,0,80,48,1,79
,,,,,,,,,,,,,,,,,,,,,,,,,,,,,,,,,,,a,2.448999882,MIRADA,FALSE,,,,,,,154,mirall,Catalan,Sounds/cat_mirall.mp3,2020-06-13_12h25.09.538,TranslationElicitation_spa,3.2.4,Win32,60,5ee3dd701da2350bd1e67f35,,1,0,80,48,1,79
,,,,,,,,,,,,,,,,,,,,,,,,,,,,,,,,,,,return,2.615999937,,FALSE,,,,,,,154,mirall,Catalan,Sounds/cat_mirall.mp3,2020-06-13_12h25.09.538,TranslationElicitation_spa,3.2.4,Win32,60,5ee3dd701da2350bd1e67f35,2.615999937,1,0,80,48,1,79
,,,,,,,,,,,,,,,,,,,,,,,,,,,,,,,,,,,,,,,,,,,,,154,mirall,Catalan,Sounds/cat_mirall.mp3,2020-06-13_12h25.09.538,TranslationElicitation_spa,3.2.4,Win32,60,5ee3dd701da2350bd1e67f35,,1,0,80,48,1,79
,,,,,,,,,,,,,,,,,,,,,,,,,,,,,,,,,,,b,3.056999922,B,FALSE,,,,,,,187,vaixell,Catalan,Sounds/cat_vaixell.mp3,2020-06-13_12h25.09.538,TranslationElicitation_spa,3.2.4,Win32,60,5ee3dd701da2350bd1e67f35,,1,0,80,77,1,79
,,,,,,,,,,,,,,,,,,,,,,,,,,,,,,,,,,,a,3.157000065,BA,FALSE,,,,,,,187,vaixell,Catalan,Sounds/cat_vaixell.mp3,2020-06-13_12h25.09.538,TranslationElicitation_spa,3.2.4,Win32,60,5ee3dd701da2350bd1e67f35,,1,0,80,77,1,79
,,,,,,,,,,,,,,,,,,,,,,,,,,,,,,,,,,,l,3.357000113,BAL,FALSE,,,,,,,187,vaixell,Catalan,Sounds/cat_vaixell.mp3,2020-06-13_12h25.09.538,TranslationElicitation_spa,3.2.4,Win32,60,5ee3dd701da2350bd1e67f35,,1,0,80,77,1,79
,,,,,,,,,,,,,,,,,,,,,,,,,,,,,,,,,,,l,3.506999969,BALL,FALSE,,,,,,,187,vaixell,Catalan,Sounds/cat_vaixell.mp3,2020-06-13_12h25.09.538,TranslationElicitation_spa,3.2.4,Win32,60,5ee3dd701da2350bd1e67f35,,1,0,80,77,1,79
,,,,,,,,,,,,,,,,,,,,,,,,,,,,,,,,,,,e,3.572999954,BALLE,FALSE,,,,,,,187,vaixell,Catalan,Sounds/cat_vaixell.mp3,2020-06-13_12h25.09.538,TranslationElicitation_spa,3.2.4,Win32,60,5ee3dd701da2350bd1e67f35,,1,0,80,77,1,79
,,,,,,,,,,,,,,,,,,,,,,,,,,,,,,,,,,,t,3.707000017,BALLET,FALSE,,,,,,,187,vaixell,Catalan,Sounds/cat_vaixell.mp3,2020-06-13_12h25.09.538,TranslationElicitation_spa,3.2.4,Win32,60,5ee3dd701da2350bd1e67f35,,1,0,80,77,1,79
,,,,,,,,,,,,,,,,,,,,,,,,,,,,,,,,,,,a,3.857000113,BALLETA,FALSE,,,,,,,187,vaixell,Catalan,Sounds/cat_vaixell.mp3,2020-06-13_12h25.09.538,TranslationElicitation_spa,3.2.4,Win32,60,5ee3dd701da2350bd1e67f35,,1,0,80,77,1,79
,,,,,,,,,,,,,,,,,,,,,,,,,,,,,,,,,,,return,4.60800004,,FALSE,,,,,,,187,vaixell,Catalan,Sounds/cat_vaixell.mp3,2020-06-13_12h25.09.538,TranslationElicitation_spa,3.2.4,Win32,60,5ee3dd701da2350bd1e67f35,4.60800004,1,0,80,77,1,79
,,,,,,,,,,,,,,,,,,,,,,,,,,,,,,,,,,,,,,,,,,,,,187,vaixell,Catalan,Sounds/cat_vaixell.mp3,2020-06-13_12h25.09.538,TranslationElicitation_spa,3.2.4,Win32,60,5ee3dd701da2350bd1e67f35,,1,0,80,77,1,79
,,,,,,,,,,,,,,,,,,,,,,,,,,,,,,,,,,,c,1.572999954,C,FALSE,,,,,,,189,zebra,Catalan,Sounds/cat_zebra.mp3,2020-06-13_12h25.09.538,TranslationElicitation_spa,3.2.4,Win32,60,5ee3dd701da2350bd1e67f35,,1,0,80,79,1,79
,,,,,,,,,,,,,,,,,,,,,,,,,,,,,,,,,,,e,1.773000002,CE,FALSE,,,,,,,189,zebra,Catalan,Sounds/cat_zebra.mp3,2020-06-13_12h25.09.538,TranslationElicitation_spa,3.2.4,Win32,60,5ee3dd701da2350bd1e67f35,,1,0,80,79,1,79
,,,,,,,,,,,,,,,,,,,,,,,,,,,,,,,,,,,b,1.923999786,CEB,FALSE,,,,,,,189,zebra,Catalan,Sounds/cat_zebra.mp3,2020-06-13_12h25.09.538,TranslationElicitation_spa,3.2.4,Win32,60,5ee3dd701da2350bd1e67f35,,1,0,80,79,1,79
,,,,,,,,,,,,,,,,,,,,,,,,,,,,,,,,,,,r,2.006999969,CEBR,FALSE,,,,,,,189,zebra,Catalan,Sounds/cat_zebra.mp3,2020-06-13_12h25.09.538,TranslationElicitation_spa,3.2.4,Win32,60,5ee3dd701da2350bd1e67f35,,1,0,80,79,1,79
,,,,,,,,,,,,,,,,,,,,,,,,,,,,,,,,,,,a,2.14199996,CEBRA,FALSE,,,,,,,189,zebra,Catalan,Sounds/cat_zebra.mp3,2020-06-13_12h25.09.538,TranslationElicitation_spa,3.2.4,Win32,60,5ee3dd701da2350bd1e67f35,,1,0,80,79,1,79
,,,,,,,,,,,,,,,,,,,,,,,,,,,,,,,,,,,return,2.357999802,,FALSE,,,,,,,189,zebra,Catalan,Sounds/cat_zebra.mp3,2020-06-13_12h25.09.538,TranslationElicitation_spa,3.2.4,Win32,60,5ee3dd701da2350bd1e67f35,2.357999802,1,0,80,79,1,79
,,,,,,,,,,,,,,,,,,,,,,,,,,,,,,,,,,,,,,,,,,,,,189,zebra,Catalan,Sounds/cat_zebra.mp3,2020-06-13_12h25.09.538,TranslationElicitation_spa,3.2.4,Win32,60,5ee3dd701da2350bd1e67f35,,1,0,80,79,1,79
,,,,,,,,,,,,,,,,,,,,,,,,,,,,,,,,,,,p,1.270999908,P,FALSE,,,,,,,162,pa,Catalan,Sounds/cat_pa.mp3,2020-06-13_12h25.09.538,TranslationElicitation_spa,3.2.4,Win32,60,5ee3dd701da2350bd1e67f35,,1,0,80,55,1,79
,,,,,,,,,,,,,,,,,,,,,,,,,,,,,,,,,,,a,1.510999918,PA,FALSE,,,,,,,162,pa,Catalan,Sounds/cat_pa.mp3,2020-06-13_12h25.09.538,TranslationElicitation_spa,3.2.4,Win32,60,5ee3dd701da2350bd1e67f35,,1,0,80,55,1,79
,,,,,,,,,,,,,,,,,,,,,,,,,,,,,,,,,,,n,1.674000025,PAN,FALSE,,,,,,,162,pa,Catalan,Sounds/cat_pa.mp3,2020-06-13_12h25.09.538,TranslationElicitation_spa,3.2.4,Win32,60,5ee3dd701da2350bd1e67f35,,1,0,80,55,1,79
,,,,,,,,,,,,,,,,,,,,,,,,,,,,,,,,,,,return,2.189999819,,FALSE,,,,,,,162,pa,Catalan,Sounds/cat_pa.mp3,2020-06-13_12h25.09.538,TranslationElicitation_spa,3.2.4,Win32,60,5ee3dd701da2350bd1e67f35,2.189999819,1,0,80,55,1,79
,,,,,,,,,,,,,,,,,,,,,,,,,,,,,,,,,,,,,,,,,,,,,162,pa,Catalan,Sounds/cat_pa.mp3,2020-06-13_12h25.09.538,TranslationElicitation_spa,3.2.4,Win32,60,5ee3dd701da2350bd1e67f35,,1,0,80,55,1,79
,,,,,,,,,,,,,,,,,,,,,,,,,,,,,,,,,,,l,1.603999853,L,FALSE,,,,,,,143,globus,Catalan,Sounds/cat_globus.mp3,2020-06-13_12h25.09.538,TranslationElicitation_spa,3.2.4,Win32,60,5ee3dd701da2350bd1e67f35,,1,0,80,38,1,79
,,,,,,,,,,,,,,,,,,,,,,,,,,,,,,,,,,,backspace,2.157999992,,TRUE,,,,,,,143,globus,Catalan,Sounds/cat_globus.mp3,2020-06-13_12h25.09.538,TranslationElicitation_spa,3.2.4,Win32,60,5ee3dd701da2350bd1e67f35,,1,0,80,38,1,79
,,,,,,,,,,,,,,,,,,,,,,,,,,,,,,,,,,,g,2.323999882,G,TRUE,,,,,,,143,globus,Catalan,Sounds/cat_globus.mp3,2020-06-13_12h25.09.538,TranslationElicitation_spa,3.2.4,Win32,60,5ee3dd701da2350bd1e67f35,,1,0,80,38,1,79
,,,,,,,,,,,,,,,,,,,,,,,,,,,,,,,,,,,l,2.405999899,GL,TRUE,,,,,,,143,globus,Catalan,Sounds/cat_globus.mp3,2020-06-13_12h25.09.538,TranslationElicitation_spa,3.2.4,Win32,60,5ee3dd701da2350bd1e67f35,,1,0,80,38,1,79
,,,,,,,,,,,,,,,,,,,,,,,,,,,,,,,,,,,o,2.823999882,GLO,TRUE,,,,,,,143,globus,Catalan,Sounds/cat_globus.mp3,2020-06-13_12h25.09.538,TranslationElicitation_spa,3.2.4,Win32,60,5ee3dd701da2350bd1e67f35,,1,0,80,38,1,79
,,,,,,,,,,,,,,,,,,,,,,,,,,,,,,,,,,,b,2.974999905,GLOB,TRUE,,,,,,,143,globus,Catalan,Sounds/cat_globus.mp3,2020-06-13_12h25.09.538,TranslationElicitation_spa,3.2.4,Win32,60,5ee3dd701da2350bd1e67f35,,1,0,80,38,1,79
,,,,,,,,,,,,,,,,,,,,,,,,,,,,,,,,,,,o,3.090999842,GLOBO,TRUE,,,,,,,143,globus,Catalan,Sounds/cat_globus.mp3,2020-06-13_12h25.09.538,TranslationElicitation_spa,3.2.4,Win32,60,5ee3dd701da2350bd1e67f35,,1,0,80,38,1,79
,,,,,,,,,,,,,,,,,,,,,,,,,,,,,,,,,,,s,3.292000055,GLOBOS,TRUE,,,,,,,143,globus,Catalan,Sounds/cat_globus.mp3,2020-06-13_12h25.09.538,TranslationElicitation_spa,3.2.4,Win32,60,5ee3dd701da2350bd1e67f35,,1,0,80,38,1,79
,,,,,,,,,,,,,,,,,,,,,,,,,,,,,,,,,,,return,3.776000023,,TRUE,,,,,,,143,globus,Catalan,Sounds/cat_globus.mp3,2020-06-13_12h25.09.538,TranslationElicitation_spa,3.2.4,Win32,60,5ee3dd701da2350bd1e67f35,3.776000023,1,0,80,38,1,79
,,,,,,,,,,,,,,,,,,,,,,,,,,,,,,,,,,,,,,,,,,,,,143,globus,Catalan,Sounds/cat_globus.mp3,2020-06-13_12h25.09.538,TranslationElicitation_spa,3.2.4,Win32,60,5ee3dd701da2350bd1e67f35,,1,0,80,38,1,79
,,,,,,,,,,,,,,,,,,,,,,,,,,,,,,,,,,,c,8.598999977,C,FALSE,,,,,,,106,aixeta,Catalan,Sounds/cat_aixeta.mp3,2020-06-13_12h25.09.538,TranslationElicitation_spa,3.2.4,Win32,60,5ee3dd701da2350bd1e67f35,,1,0,80,2,1,79
,,,,,,,,,,,,,,,,,,,,,,,,,,,,,,,,,,,h,8.931999922,CH,FALSE,,,,,,,106,aixeta,Catalan,Sounds/cat_aixeta.mp3,2020-06-13_12h25.09.538,TranslationElicitation_spa,3.2.4,Win32,60,5ee3dd701da2350bd1e67f35,,1,0,80,2,1,79
,,,,,,,,,,,,,,,,,,,,,,,,,,,,,,,,,,,backspace,9.536999941,,TRUE,,,,,,,106,aixeta,Catalan,Sounds/cat_aixeta.mp3,2020-06-13_12h25.09.538,TranslationElicitation_spa,3.2.4,Win32,60,5ee3dd701da2350bd1e67f35,,1,0,80,2,1,79
,,,,,,,,,,,,,,,,,,,,,,,,,,,,,,,,,,,backspace,9.76699996,,TRUE,,,,,,,106,aixeta,Catalan,Sounds/cat_aixeta.mp3,2020-06-13_12h25.09.538,TranslationElicitation_spa,3.2.4,Win32,60,5ee3dd701da2350bd1e67f35,,1,0,80,2,1,79
,,,,,,,,,,,,,,,,,,,,,,,,,,,,,,,,,,,c,19.27399993,C,TRUE,,,,,,,106,aixeta,Catalan,Sounds/cat_aixeta.mp3,2020-06-13_12h25.09.538,TranslationElicitation_spa,3.2.4,Win32,60,5ee3dd701da2350bd1e67f35,,1,0,80,2,1,79
,,,,,,,,,,,,,,,,,,,,,,,,,,,,,,,,,,,a,19.39100003,CA,TRUE,,,,,,,106,aixeta,Catalan,Sounds/cat_aixeta.mp3,2020-06-13_12h25.09.538,TranslationElicitation_spa,3.2.4,Win32,60,5ee3dd701da2350bd1e67f35,,1,0,80,2,1,79
,,,,,,,,,,,,,,,,,,,,,,,,,,,,,,,,,,,m,19.54200006,CAM,TRUE,,,,,,,106,aixeta,Catalan,Sounds/cat_aixeta.mp3,2020-06-13_12h25.09.538,TranslationElicitation_spa,3.2.4,Win32,60,5ee3dd701da2350bd1e67f35,,1,0,80,2,1,79
,,,,,,,,,,,,,,,,,,,,,,,,,,,,,,,,,,,i,19.67599988,CAMI,TRUE,,,,,,,106,aixeta,Catalan,Sounds/cat_aixeta.mp3,2020-06-13_12h25.09.538,TranslationElicitation_spa,3.2.4,Win32,60,5ee3dd701da2350bd1e67f35,,1,0,80,2,1,79
,,,,,,,,,,,,,,,,,,,,,,,,,,,,,,,,,,,s,19.75900006,CAMIS,TRUE,,,,,,,106,aixeta,Catalan,Sounds/cat_aixeta.mp3,2020-06-13_12h25.09.538,TranslationElicitation_spa,3.2.4,Win32,60,5ee3dd701da2350bd1e67f35,,1,0,80,2,1,79
,,,,,,,,,,,,,,,,,,,,,,,,,,,,,,,,,,,e,19.92599988,CAMISE,TRUE,,,,,,,106,aixeta,Catalan,Sounds/cat_aixeta.mp3,2020-06-13_12h25.09.538,TranslationElicitation_spa,3.2.4,Win32,60,5ee3dd701da2350bd1e67f35,,1,0,80,2,1,79
,,,,,,,,,,,,,,,,,,,,,,,,,,,,,,,,,,,t,20.06299996,CAMISET,TRUE,,,,,,,106,aixeta,Catalan,Sounds/cat_aixeta.mp3,2020-06-13_12h25.09.538,TranslationElicitation_spa,3.2.4,Win32,60,5ee3dd701da2350bd1e67f35,,1,0,80,2,1,79
,,,,,,,,,,,,,,,,,,,,,,,,,,,,,,,,,,,a,20.19300008,CAMISETA,TRUE,,,,,,,106,aixeta,Catalan,Sounds/cat_aixeta.mp3,2020-06-13_12h25.09.538,TranslationElicitation_spa,3.2.4,Win32,60,5ee3dd701da2350bd1e67f35,,1,0,80,2,1,79
,,,,,,,,,,,,,,,,,,,,,,,,,,,,,,,,,,,return,20.77900004,,TRUE,,,,,,,106,aixeta,Catalan,Sounds/cat_aixeta.mp3,2020-06-13_12h25.09.538,TranslationElicitation_spa,3.2.4,Win32,60,5ee3dd701da2350bd1e67f35,20.77900004,1,0,80,2,1,79
,,,,,,,,,,,,,,,,,,,,,,,,,,,,,,,,,,,,,,,,,,,,,106,aixeta,Catalan,Sounds/cat_aixeta.mp3,2020-06-13_12h25.09.538,TranslationElicitation_spa,3.2.4,Win32,60,5ee3dd701da2350bd1e67f35,,1,0,80,2,1,79
,,,,,,,,,,,,,,,,,,,,,,,,,,,,,,,,,,,c,1.644000053,C,FALSE,,,,,,,119,caixa,Catalan,Sounds/cat_caixa.mp3,2020-06-13_12h25.09.538,TranslationElicitation_spa,3.2.4,Win32,60,5ee3dd701da2350bd1e67f35,,1,0,80,14,1,79
,,,,,,,,,,,,,,,,,,,,,,,,,,,,,,,,,,,a,1.995000124,CA,FALSE,,,,,,,119,caixa,Catalan,Sounds/cat_caixa.mp3,2020-06-13_12h25.09.538,TranslationElicitation_spa,3.2.4,Win32,60,5ee3dd701da2350bd1e67f35,,1,0,80,14,1,79
,,,,,,,,,,,,,,,,,,,,,,,,,,,,,,,,,,,s,2.194000006,CAS,FALSE,,,,,,,119,caixa,Catalan,Sounds/cat_caixa.mp3,2020-06-13_12h25.09.538,TranslationElicitation_spa,3.2.4,Win32,60,5ee3dd701da2350bd1e67f35,,1,0,80,14,1,79
,,,,,,,,,,,,,,,,,,,,,,,,,,,,,,,,,,,a,2.261000156,CASA,FALSE,,,,,,,119,caixa,Catalan,Sounds/cat_caixa.mp3,2020-06-13_12h25.09.538,TranslationElicitation_spa,3.2.4,Win32,60,5ee3dd701da2350bd1e67f35,,1,0,80,14,1,79
,,,,,,,,,,,,,,,,,,,,,,,,,,,,,,,,,,,return,2.628000021,,FALSE,,,,,,,119,caixa,Catalan,Sounds/cat_caixa.mp3,2020-06-13_12h25.09.538,TranslationElicitation_spa,3.2.4,Win32,60,5ee3dd701da2350bd1e67f35,2.628000021,1,0,80,14,1,79
,,,,,,,,,,,,,,,,,,,,,,,,,,,,,,,,,,,,,,,,,,,,,119,caixa,Catalan,Sounds/cat_caixa.mp3,2020-06-13_12h25.09.538,TranslationElicitation_spa,3.2.4,Win32,60,5ee3dd701da2350bd1e67f35,,1,0,80,14,1,79
,,,,,,,,,,,,,,,,,,,,,,,,,,,,,,,,,,,v,3.230999947,V,FALSE,,,,,,,111,bibero,Catalan,Sounds/cat_bibero.mp3,2020-06-13_12h25.09.538,TranslationElicitation_spa,3.2.4,Win32,60,5ee3dd701da2350bd1e67f35,,1,0,80,6,1,79
,,,,,,,,,,,,,,,,,,,,,,,,,,,,,,,,,,,i,3.332000017,VI,FALSE,,,,,,,111,bibero,Catalan,Sounds/cat_bibero.mp3,2020-06-13_12h25.09.538,TranslationElicitation_spa,3.2.4,Win32,60,5ee3dd701da2350bd1e67f35,,1,0,80,6,1,79
,,,,,,,,,,,,,,,,,,,,,,,,,,,,,,,,,,,v,3.499000072,VIV,FALSE,,,,,,,111,bibero,Catalan,Sounds/cat_bibero.mp3,2020-06-13_12h25.09.538,TranslationElicitation_spa,3.2.4,Win32,60,5ee3dd701da2350bd1e67f35,,1,0,80,6,1,79
,,,,,,,,,,,,,,,,,,,,,,,,,,,,,,,,,,,e,4.098999977,VIVE,FALSE,,,,,,,111,bibero,Catalan,Sounds/cat_bibero.mp3,2020-06-13_12h25.09.538,TranslationElicitation_spa,3.2.4,Win32,60,5ee3dd701da2350bd1e67f35,,1,0,80,6,1,79
,,,,,,,,,,,,,,,,,,,,,,,,,,,,,,,,,,,r,4.282000065,VIVER,FALSE,,,,,,,111,bibero,Catalan,Sounds/cat_bibero.mp3,2020-06-13_12h25.09.538,TranslationElicitation_spa,3.2.4,Win32,60,5ee3dd701da2350bd1e67f35,,1,0,80,6,1,79
,,,,,,,,,,,,,,,,,,,,,,,,,,,,,,,,,,,o,4.398999929,VIVERO,FALSE,,,,,,,111,bibero,Catalan,Sounds/cat_bibero.mp3,2020-06-13_12h25.09.538,TranslationElicitation_spa,3.2.4,Win32,60,5ee3dd701da2350bd1e67f35,,1,0,80,6,1,79
,,,,,,,,,,,,,,,,,,,,,,,,,,,,,,,,,,,return,4.909999847,,FALSE,,,,,,,111,bibero,Catalan,Sounds/cat_bibero.mp3,2020-06-13_12h25.09.538,TranslationElicitation_spa,3.2.4,Win32,60,5ee3dd701da2350bd1e67f35,4.909999847,1,0,80,6,1,79
,,,,,,,,,,,,,,,,,,,,,,,,,,,,,,,,,,,,,,,,,,,,,111,bibero,Catalan,Sounds/cat_bibero.mp3,2020-06-13_12h25.09.538,TranslationElicitation_spa,3.2.4,Win32,60,5ee3dd701da2350bd1e67f35,,1,0,80,6,1,79
,,,,,,,,,,,,,,,,,,,,,,,,,,,,,,,,,,,l,4.945000172,L,FALSE,,,,,,,150,lloro,Catalan,Sounds/cat_lloro.mp3,2020-06-13_12h25.09.538,TranslationElicitation_spa,3.2.4,Win32,60,5ee3dd701da2350bd1e67f35,,1,0,80,44,1,79
,,,,,,,,,,,,,,,,,,,,,,,,,,,,,,,,,,,o,5.129000187,LO,FALSE,,,,,,,150,lloro,Catalan,Sounds/cat_lloro.mp3,2020-06-13_12h25.09.538,TranslationElicitation_spa,3.2.4,Win32,60,5ee3dd701da2350bd1e67f35,,1,0,80,44,1,79
,,,,,,,,,,,,,,,,,,,,,,,,,,,,,,,,,,,r,5.262000084,LOR,FALSE,,,,,,,150,lloro,Catalan,Sounds/cat_lloro.mp3,2020-06-13_12h25.09.538,TranslationElicitation_spa,3.2.4,Win32,60,5ee3dd701da2350bd1e67f35,,1,0,80,44,1,79
,,,,,,,,,,,,,,,,,,,,,,,,,,,,,,,,,,,o,5.33100009,LORO,FALSE,,,,,,,150,lloro,Catalan,Sounds/cat_lloro.mp3,2020-06-13_12h25.09.538,TranslationElicitation_spa,3.2.4,Win32,60,5ee3dd701da2350bd1e67f35,,1,0,80,44,1,79
,,,,,,,,,,,,,,,,,,,,,,,,,,,,,,,,,,,return,5.597000122,,FALSE,,,,,,,150,lloro,Catalan,Sounds/cat_lloro.mp3,2020-06-13_12h25.09.538,TranslationElicitation_spa,3.2.4,Win32,60,5ee3dd701da2350bd1e67f35,5.596000195,1,0,80,44,1,79
,,,,,,,,,,,,,,,,,,,,,,,,,,,,,,,,,,,,,,,,,,,,,150,lloro,Catalan,Sounds/cat_lloro.mp3,2020-06-13_12h25.09.538,TranslationElicitation_spa,3.2.4,Win32,60,5ee3dd701da2350bd1e67f35,,1,0,80,44,1,79
,,,,,,,,,,,,,,,,,,,,,,,,,,,,,,,,,,,c,1.538000107,C,FALSE,,,,,,,188,xocolata,Catalan,Sounds/cat_xocolata.mp3,2020-06-13_12h25.09.538,TranslationElicitation_spa,3.2.4,Win32,60,5ee3dd701da2350bd1e67f35,,1,0,80,78,1,79
,,,,,,,,,,,,,,,,,,,,,,,,,,,,,,,,,,,h,1.638000011,CH,FALSE,,,,,,,188,xocolata,Catalan,Sounds/cat_xocolata.mp3,2020-06-13_12h25.09.538,TranslationElicitation_spa,3.2.4,Win32,60,5ee3dd701da2350bd1e67f35,,1,0,80,78,1,79
,,,,,,,,,,,,,,,,,,,,,,,,,,,,,,,,,,,o,1.837000132,CHO,FALSE,,,,,,,188,xocolata,Catalan,Sounds/cat_xocolata.mp3,2020-06-13_12h25.09.538,TranslationElicitation_spa,3.2.4,Win32,60,5ee3dd701da2350bd1e67f35,,1,0,80,78,1,79
,,,,,,,,,,,,,,,,,,,,,,,,,,,,,,,,,,,c,1.970999956,CHOC,FALSE,,,,,,,188,xocolata,Catalan,Sounds/cat_xocolata.mp3,2020-06-13_12h25.09.538,TranslationElicitation_spa,3.2.4,Win32,60,5ee3dd701da2350bd1e67f35,,1,0,80,78,1,79
,,,,,,,,,,,,,,,,,,,,,,,,,,,,,,,,,,,o,2.055000067,CHOCO,FALSE,,,,,,,188,xocolata,Catalan,Sounds/cat_xocolata.mp3,2020-06-13_12h25.09.538,TranslationElicitation_spa,3.2.4,Win32,60,5ee3dd701da2350bd1e67f35,,1,0,80,78,1,79
,,,,,,,,,,,,,,,,,,,,,,,,,,,,,,,,,,,l,2.222000122,CHOCOL,FALSE,,,,,,,188,xocolata,Catalan,Sounds/cat_xocolata.mp3,2020-06-13_12h25.09.538,TranslationElicitation_spa,3.2.4,Win32,60,5ee3dd701da2350bd1e67f35,,1,0,80,78,1,79
,,,,,,,,,,,,,,,,,,,,,,,,,,,,,,,,,,,a,2.36500001,CHOCOLA,FALSE,,,,,,,188,xocolata,Catalan,Sounds/cat_xocolata.mp3,2020-06-13_12h25.09.538,TranslationElicitation_spa,3.2.4,Win32,60,5ee3dd701da2350bd1e67f35,,1,0,80,78,1,79
,,,,,,,,,,,,,,,,,,,,,,,,,,,,,,,,,,,t,2.47300005,CHOCOLAT,FALSE,,,,,,,188,xocolata,Catalan,Sounds/cat_xocolata.mp3,2020-06-13_12h25.09.538,TranslationElicitation_spa,3.2.4,Win32,60,5ee3dd701da2350bd1e67f35,,1,0,80,78,1,79
,,,,,,,,,,,,,,,,,,,,,,,,,,,,,,,,,,,e,2.556999922,CHOCOLATE,FALSE,,,,,,,188,xocolata,Catalan,Sounds/cat_xocolata.mp3,2020-06-13_12h25.09.538,TranslationElicitation_spa,3.2.4,Win32,60,5ee3dd701da2350bd1e67f35,,1,0,80,78,1,79
,,,,,,,,,,,,,,,,,,,,,,,,,,,,,,,,,,,return,2.707999945,,FALSE,,,,,,,188,xocolata,Catalan,Sounds/cat_xocolata.mp3,2020-06-13_12h25.09.538,TranslationElicitation_spa,3.2.4,Win32,60,5ee3dd701da2350bd1e67f35,2.707999945,1,0,80,78,1,79
,,,,,,,,,,,,,,,,,,,,,,,,,,,,,,,,,,,,,,,,,,,,,188,xocolata,Catalan,Sounds/cat_xocolata.mp3,2020-06-13_12h25.09.538,TranslationElicitation_spa,3.2.4,Win32,60,5ee3dd701da2350bd1e67f35,,1,0,80,78,1,79
,,,,,,,,,,,,,,,,,,,,,,,,,,,,,,,,,,,c,9.34800005,C,FALSE,,,,,,,125,colom,Catalan,Sounds/cat_colom.mp3,2020-06-13_12h25.09.538,TranslationElicitation_spa,3.2.4,Win32,60,5ee3dd701da2350bd1e67f35,,1,0,80,20,1,79
,,,,,,,,,,,,,,,,,,,,,,,,,,,,,,,,,,,o,9.481000185,CO,FALSE,,,,,,,125,colom,Catalan,Sounds/cat_colom.mp3,2020-06-13_12h25.09.538,TranslationElicitation_spa,3.2.4,Win32,60,5ee3dd701da2350bd1e67f35,,1,0,80,20,1,79
,,,,,,,,,,,,,,,,,,,,,,,,,,,,,,,,,,,l,9.715000153,COL,FALSE,,,,,,,125,colom,Catalan,Sounds/cat_colom.mp3,2020-06-13_12h25.09.538,TranslationElicitation_spa,3.2.4,Win32,60,5ee3dd701da2350bd1e67f35,,1,0,80,20,1,79
,,,,,,,,,,,,,,,,,,,,,,,,,,,,,,,,,,,o,9.881999969,COLO,FALSE,,,,,,,125,colom,Catalan,Sounds/cat_colom.mp3,2020-06-13_12h25.09.538,TranslationElicitation_spa,3.2.4,Win32,60,5ee3dd701da2350bd1e67f35,,1,0,80,20,1,79
,,,,,,,,,,,,,,,,,,,,,,,,,,,,,,,,,,,r,11.5150001,COLOR,FALSE,,,,,,,125,colom,Catalan,Sounds/cat_colom.mp3,2020-06-13_12h25.09.538,TranslationElicitation_spa,3.2.4,Win32,60,5ee3dd701da2350bd1e67f35,,1,0,80,20,1,79
,,,,,,,,,,,,,,,,,,,,,,,,,,,,,,,,,,,e,11.68200016,COLORE,FALSE,,,,,,,125,colom,Catalan,Sounds/cat_colom.mp3,2020-06-13_12h25.09.538,TranslationElicitation_spa,3.2.4,Win32,60,5ee3dd701da2350bd1e67f35,,1,0,80,20,1,79
,,,,,,,,,,,,,,,,,,,,,,,,,,,,,,,,,,,s,11.898,COLORES,FALSE,,,,,,,125,colom,Catalan,Sounds/cat_colom.mp3,2020-06-13_12h25.09.538,TranslationElicitation_spa,3.2.4,Win32,60,5ee3dd701da2350bd1e67f35,,1,0,80,20,1,79
,,,,,,,,,,,,,,,,,,,,,,,,,,,,,,,,,,,return,12.22100019,,FALSE,,,,,,,125,colom,Catalan,Sounds/cat_colom.mp3,2020-06-13_12h25.09.538,TranslationElicitation_spa,3.2.4,Win32,60,5ee3dd701da2350bd1e67f35,12.22100019,1,0,80,20,1,79
,,,,,,,,,,,,,,,,,,,,,,,,,,,,,,,,,,,,,,,,,,,,,125,colom,Catalan,Sounds/cat_colom.mp3,2020-06-13_12h25.09.538,TranslationElicitation_spa,3.2.4,Win32,60,5ee3dd701da2350bd1e67f35,,1,0,80,20,1,79
,,,,,,,,,,,,,,,,,,,,,,,,,,,,,,,,,,,n,10.15999985,N,FALSE,,,,,,,158,nas,Catalan,Sounds/cat_nas.mp3,2020-06-13_12h25.09.538,TranslationElicitation_spa,3.2.4,Win32,60,5ee3dd701da2350bd1e67f35,,1,0,80,52,1,79
,,,,,,,,,,,,,,,,,,,,,,,,,,,,,,,,,,,a,10.35899997,NA,FALSE,,,,,,,158,nas,Catalan,Sounds/cat_nas.mp3,2020-06-13_12h25.09.538,TranslationElicitation_spa,3.2.4,Win32,60,5ee3dd701da2350bd1e67f35,,1,0,80,52,1,79
,,,,,,,,,,,,,,,,,,,,,,,,,,,,,,,,,,,c,11.34299994,NAC,FALSE,,,,,,,158,nas,Catalan,Sounds/cat_nas.mp3,2020-06-13_12h25.09.538,TranslationElicitation_spa,3.2.4,Win32,60,5ee3dd701da2350bd1e67f35,,1,0,80,52,1,79
,,,,,,,,,,,,,,,,,,,,,,,,,,,,,,,,,,,e,11.59299994,NACE,FALSE,,,,,,,158,nas,Catalan,Sounds/cat_nas.mp3,2020-06-13_12h25.09.538,TranslationElicitation_spa,3.2.4,Win32,60,5ee3dd701da2350bd1e67f35,,1,0,80,52,1,79
,,,,,,,,,,,,,,,,,,,,,,,,,,,,,,,,,,,r,11.74300003,NACER,FALSE,,,,,,,158,nas,Catalan,Sounds/cat_nas.mp3,2020-06-13_12h25.09.538,TranslationElicitation_spa,3.2.4,Win32,60,5ee3dd701da2350bd1e67f35,,1,0,80,52,1,79
,,,,,,,,,,,,,,,,,,,,,,,,,,,,,,,,,,,return,11.90999985,,FALSE,,,,,,,158,nas,Catalan,Sounds/cat_nas.mp3,2020-06-13_12h25.09.538,TranslationElicitation_spa,3.2.4,Win32,60,5ee3dd701da2350bd1e67f35,11.90999985,1,0,80,52,1,79
,,,,,,,,,,,,,,,,,,,,,,,,,,,,,,,,,,,,,,,,,,,,,158,nas,Catalan,Sounds/cat_nas.mp3,2020-06-13_12h25.09.538,TranslationElicitation_spa,3.2.4,Win32,60,5ee3dd701da2350bd1e67f35,,1,0,80,52,1,79
,,,,,,,,,,,,,,,,,,,,,,,,,,,,,,,,,,,g,1.463999987,G,FALSE,,,,,,,139,galleda,Catalan,Sounds/cat_galleda.mp3,2020-06-13_12h25.09.538,TranslationElicitation_spa,3.2.4,Win32,60,5ee3dd701da2350bd1e67f35,,1,0,80,34,1,79
,,,,,,,,,,,,,,,,,,,,,,,,,,,,,,,,,,,a,1.713999987,GA,FALSE,,,,,,,139,galleda,Catalan,Sounds/cat_galleda.mp3,2020-06-13_12h25.09.538,TranslationElicitation_spa,3.2.4,Win32,60,5ee3dd701da2350bd1e67f35,,1,0,80,34,1,79
,,,,,,,,,,,,,,,,,,,,,,,,,,,,,,,,,,,l,1.881000042,GAL,FALSE,,,,,,,139,galleda,Catalan,Sounds/cat_galleda.mp3,2020-06-13_12h25.09.538,TranslationElicitation_spa,3.2.4,Win32,60,5ee3dd701da2350bd1e67f35,,1,0,80,34,1,79
,,,,,,,,,,,,,,,,,,,,,,,,,,,,,,,,,,,l,2.032999992,GALL,FALSE,,,,,,,139,galleda,Catalan,Sounds/cat_galleda.mp3,2020-06-13_12h25.09.538,TranslationElicitation_spa,3.2.4,Win32,60,5ee3dd701da2350bd1e67f35,,1,0,80,34,1,79
,,,,,,,,,,,,,,,,,,,,,,,,,,,,,,,,,,,e,2.114000082,GALLE,FALSE,,,,,,,139,galleda,Catalan,Sounds/cat_galleda.mp3,2020-06-13_12h25.09.538,TranslationElicitation_spa,3.2.4,Win32,60,5ee3dd701da2350bd1e67f35,,1,0,80,34,1,79
,,,,,,,,,,,,,,,,,,,,,,,,,,,,,,,,,,,t,2.230999947,GALLET,FALSE,,,,,,,139,galleda,Catalan,Sounds/cat_galleda.mp3,2020-06-13_12h25.09.538,TranslationElicitation_spa,3.2.4,Win32,60,5ee3dd701da2350bd1e67f35,,1,0,80,34,1,79
,,,,,,,,,,,,,,,,,,,,,,,,,,,,,,,,,,,a,2.364000082,GALLETA,FALSE,,,,,,,139,galleda,Catalan,Sounds/cat_galleda.mp3,2020-06-13_12h25.09.538,TranslationElicitation_spa,3.2.4,Win32,60,5ee3dd701da2350bd1e67f35,,1,0,80,34,1,79
,,,,,,,,,,,,,,,,,,,,,,,,,,,,,,,,,,,return,2.532000065,,FALSE,,,,,,,139,galleda,Catalan,Sounds/cat_galleda.mp3,2020-06-13_12h25.09.538,TranslationElicitation_spa,3.2.4,Win32,60,5ee3dd701da2350bd1e67f35,2.532000065,1,0,80,34,1,79
,,,,,,,,,,,,,,,,,,,,,,,,,,,,,,,,,,,,,,,,,,,,,139,galleda,Catalan,Sounds/cat_galleda.mp3,2020-06-13_12h25.09.538,TranslationElicitation_spa,3.2.4,Win32,60,5ee3dd701da2350bd1e67f35,,1,0,80,34,1,79
,,,,,,,,,,,,,,,,,,,,,,,,,,,,,,,,,,,p,1.802999973,P,FALSE,,,,,,,169,plat,Catalan,Sounds/cat_plat.mp3,2020-06-13_12h25.09.538,TranslationElicitation_spa,3.2.4,Win32,60,5ee3dd701da2350bd1e67f35,,1,0,80,61,1,79
,,,,,,,,,,,,,,,,,,,,,,,,,,,,,,,,,,,l,1.904000044,PL,FALSE,,,,,,,169,plat,Catalan,Sounds/cat_plat.mp3,2020-06-13_12h25.09.538,TranslationElicitation_spa,3.2.4,Win32,60,5ee3dd701da2350bd1e67f35,,1,0,80,61,1,79
,,,,,,,,,,,,,,,,,,,,,,,,,,,,,,,,,,,a,2.220999956,PLA,FALSE,,,,,,,169,plat,Catalan,Sounds/cat_plat.mp3,2020-06-13_12h25.09.538,TranslationElicitation_spa,3.2.4,Win32,60,5ee3dd701da2350bd1e67f35,,1,0,80,61,1,79
,,,,,,,,,,,,,,,,,,,,,,,,,,,,,,,,,,,t,2.388999939,PLAT,FALSE,,,,,,,169,plat,Catalan,Sounds/cat_plat.mp3,2020-06-13_12h25.09.538,TranslationElicitation_spa,3.2.4,Win32,60,5ee3dd701da2350bd1e67f35,,1,0,80,61,1,79
,,,,,,,,,,,,,,,,,,,,,,,,,,,,,,,,,,,o,2.522000074,PLATO,FALSE,,,,,,,169,plat,Catalan,Sounds/cat_plat.mp3,2020-06-13_12h25.09.538,TranslationElicitation_spa,3.2.4,Win32,60,5ee3dd701da2350bd1e67f35,,1,0,80,61,1,79
,,,,,,,,,,,,,,,,,,,,,,,,,,,,,,,,,,,return,2.822999954,,FALSE,,,,,,,169,plat,Catalan,Sounds/cat_plat.mp3,2020-06-13_12h25.09.538,TranslationElicitation_spa,3.2.4,Win32,60,5ee3dd701da2350bd1e67f35,2.822999954,1,0,80,61,1,79
,,,,,,,,,,,,,,,,,,,,,,,,,,,,,,,,,,,,,,,,,,,,,169,plat,Catalan,Sounds/cat_plat.mp3,2020-06-13_12h25.09.538,TranslationElicitation_spa,3.2.4,Win32,60,5ee3dd701da2350bd1e67f35,,1,0,80,61,1,79
,,,,,,,,,,,,,,,,,,,,,,,,,,,,,,,,,,,p,8.61500001,P,FALSE,,,,,,,163,papallona,Catalan,Sounds/cat_papallona.mp3,2020-06-13_12h25.09.538,TranslationElicitation_spa,3.2.4,Win32,60,5ee3dd701da2350bd1e67f35,,1,0,80,56,1,79
,,,,,,,,,,,,,,,,,,,,,,,,,,,,,,,,,,,a,8.832000017,PA,FALSE,,,,,,,163,papallona,Catalan,Sounds/cat_papallona.mp3,2020-06-13_12h25.09.538,TranslationElicitation_spa,3.2.4,Win32,60,5ee3dd701da2350bd1e67f35,,1,0,80,56,1,79
,,,,,,,,,,,,,,,,,,,,,,,,,,,,,,,,,,,p,8.982000113,PAP,FALSE,,,,,,,163,papallona,Catalan,Sounds/cat_papallona.mp3,2020-06-13_12h25.09.538,TranslationElicitation_spa,3.2.4,Win32,60,5ee3dd701da2350bd1e67f35,,1,0,80,56,1,79
,,,,,,,,,,,,,,,,,,,,,,,,,,,,,,,,,,,a,9.082000017,PAPA,FALSE,,,,,,,163,papallona,Catalan,Sounds/cat_papallona.mp3,2020-06-13_12h25.09.538,TranslationElicitation_spa,3.2.4,Win32,60,5ee3dd701da2350bd1e67f35,,1,0,80,56,1,79
,,,,,,,,,,,,,,,,,,,,,,,,,,,,,,,,,,,backspace,9.666000128,PA,TRUE,,,,,,,163,papallona,Catalan,Sounds/cat_papallona.mp3,2020-06-13_12h25.09.538,TranslationElicitation_spa,3.2.4,Win32,60,5ee3dd701da2350bd1e67f35,,1,0,80,56,1,79
,,,,,,,,,,,,,,,,,,,,,,,,,,,,,,,,,,,e,9.815000057,PAE,TRUE,,,,,,,163,papallona,Catalan,Sounds/cat_papallona.mp3,2020-06-13_12h25.09.538,TranslationElicitation_spa,3.2.4,Win32,60,5ee3dd701da2350bd1e67f35,,1,0,80,56,1,79
,,,,,,,,,,,,,,,,,,,,,,,,,,,,,,,,,,,l,9.9150002,PAEL,TRUE,,,,,,,163,papallona,Catalan,Sounds/cat_papallona.mp3,2020-06-13_12h25.09.538,TranslationElicitation_spa,3.2.4,Win32,60,5ee3dd701da2350bd1e67f35,,1,0,80,56,1,79
,,,,,,,,,,,,,,,,,,,,,,,,,,,,,,,,,,,e,10.05000019,PAELE,TRUE,,,,,,,163,papallona,Catalan,Sounds/cat_papallona.mp3,2020-06-13_12h25.09.538,TranslationElicitation_spa,3.2.4,Win32,60,5ee3dd701da2350bd1e67f35,,1,0,80,56,1,79
,,,,,,,,,,,,,,,,,,,,,,,,,,,,,,,,,,,t,10.18200016,PAELET,TRUE,,,,,,,163,papallona,Catalan,Sounds/cat_papallona.mp3,2020-06-13_12h25.09.538,TranslationElicitation_spa,3.2.4,Win32,60,5ee3dd701da2350bd1e67f35,,1,0,80,56,1,79
,,,,,,,,,,,,,,,,,,,,,,,,,,,,,,,,,,,backspace,10.45000005,PAEL,TRUE,,,,,,,163,papallona,Catalan,Sounds/cat_papallona.mp3,2020-06-13_12h25.09.538,TranslationElicitation_spa,3.2.4,Win32,60,5ee3dd701da2350bd1e67f35,,1,0,80,56,1,79
,,,,,,,,,,,,,,,,,,,,,,,,,,,,,,,,,,,backspace,10.70000005,PA,TRUE,,,,,,,163,papallona,Catalan,Sounds/cat_papallona.mp3,2020-06-13_12h25.09.538,TranslationElicitation_spa,3.2.4,Win32,60,5ee3dd701da2350bd1e67f35,,1,0,80,56,1,79
,,,,,,,,,,,,,,,,,,,,,,,,,,,,,,,,,,,p,11.28500009,PAP,TRUE,,,,,,,163,papallona,Catalan,Sounds/cat_papallona.mp3,2020-06-13_12h25.09.538,TranslationElicitation_spa,3.2.4,Win32,60,5ee3dd701da2350bd1e67f35,,1,0,80,56,1,79
,,,,,,,,,,,,,,,,,,,,,,,,,,,,,,,,,,,e,11.41900015,PAPE,TRUE,,,,,,,163,papallona,Catalan,Sounds/cat_papallona.mp3,2020-06-13_12h25.09.538,TranslationElicitation_spa,3.2.4,Win32,60,5ee3dd701da2350bd1e67f35,,1,0,80,56,1,79
,,,,,,,,,,,,,,,,,,,,,,,,,,,,,,,,,,,l,11.56500006,PAPEL,TRUE,,,,,,,163,papallona,Catalan,Sounds/cat_papallona.mp3,2020-06-13_12h25.09.538,TranslationElicitation_spa,3.2.4,Win32,60,5ee3dd701da2350bd1e67f35,,1,0,80,56,1,79
,,,,,,,,,,,,,,,,,,,,,,,,,,,,,,,,,,,e,11.67000008,PAPELE,TRUE,,,,,,,163,papallona,Catalan,Sounds/cat_papallona.mp3,2020-06-13_12h25.09.538,TranslationElicitation_spa,3.2.4,Win32,60,5ee3dd701da2350bd1e67f35,,1,0,80,56,1,79
,,,,,,,,,,,,,,,,,,,,,,,,,,,,,,,,,,,t,11.80300021,PAPELET,TRUE,,,,,,,163,papallona,Catalan,Sounds/cat_papallona.mp3,2020-06-13_12h25.09.538,TranslationElicitation_spa,3.2.4,Win32,60,5ee3dd701da2350bd1e67f35,,1,0,80,56,1,79
,,,,,,,,,,,,,,,,,,,,,,,,,,,,,,,,,,,a,11.95300007,PAPELETA,TRUE,,,,,,,163,papallona,Catalan,Sounds/cat_papallona.mp3,2020-06-13_12h25.09.538,TranslationElicitation_spa,3.2.4,Win32,60,5ee3dd701da2350bd1e67f35,,1,0,80,56,1,79
,,,,,,,,,,,,,,,,,,,,,,,,,,,,,,,,,,,return,12.10900021,,TRUE,,,,,,,163,papallona,Catalan,Sounds/cat_papallona.mp3,2020-06-13_12h25.09.538,TranslationElicitation_spa,3.2.4,Win32,60,5ee3dd701da2350bd1e67f35,12.10900021,1,0,80,56,1,79
,,,,,,,,,,,,,,,,,,,,,,,,,,,,,,,,,,,,,,,,,,,,,163,papallona,Catalan,Sounds/cat_papallona.mp3,2020-06-13_12h25.09.538,TranslationElicitation_spa,3.2.4,Win32,60,5ee3dd701da2350bd1e67f35,,1,0,80,56,1,79
,,,,,,,,,,,,,,,,,,,,,,,,,,,,,,,,,,,v,6.126999855,V,FALSE,,,,,,,115,bolet,Catalan,Sounds/cat_bolet.mp3,2020-06-13_12h25.09.538,TranslationElicitation_spa,3.2.4,Win32,60,5ee3dd701da2350bd1e67f35,,1,0,80,10,1,79
,,,,,,,,,,,,,,,,,,,,,,,,,,,,,,,,,,,i,6.260999918,VI,FALSE,,,,,,,115,bolet,Catalan,Sounds/cat_bolet.mp3,2020-06-13_12h25.09.538,TranslationElicitation_spa,3.2.4,Win32,60,5ee3dd701da2350bd1e67f35,,1,0,80,10,1,79
,,,,,,,,,,,,,,,,,,,,,,,,,,,,,,,,,,,a,6.362999916,VIA,FALSE,,,,,,,115,bolet,Catalan,Sounds/cat_bolet.mp3,2020-06-13_12h25.09.538,TranslationElicitation_spa,3.2.4,Win32,60,5ee3dd701da2350bd1e67f35,,1,0,80,10,1,79
,,,,,,,,,,,,,,,,,,,,,,,,,,,,,,,,,,,j,6.510999918,VIAJ,FALSE,,,,,,,115,bolet,Catalan,Sounds/cat_bolet.mp3,2020-06-13_12h25.09.538,TranslationElicitation_spa,3.2.4,Win32,60,5ee3dd701da2350bd1e67f35,,1,0,80,10,1,79
,,,,,,,,,,,,,,,,,,,,,,,,,,,,,,,,,,,e,6.595000029,VIAJE,FALSE,,,,,,,115,bolet,Catalan,Sounds/cat_bolet.mp3,2020-06-13_12h25.09.538,TranslationElicitation_spa,3.2.4,Win32,60,5ee3dd701da2350bd1e67f35,,1,0,80,10,1,79
,,,,,,,,,,,,,,,,,,,,,,,,,,,,,,,,,,,return,7.044999838,,FALSE,,,,,,,115,bolet,Catalan,Sounds/cat_bolet.mp3,2020-06-13_12h25.09.538,TranslationElicitation_spa,3.2.4,Win32,60,5ee3dd701da2350bd1e67f35,7.044999838,1,0,80,10,1,79
,,,,,,,,,,,,,,,,,,,,,,,,,,,,,,,,,,,,,,,,,,,,,115,bolet,Catalan,Sounds/cat_bolet.mp3,2020-06-13_12h25.09.538,TranslationElicitation_spa,3.2.4,Win32,60,5ee3dd701da2350bd1e67f35,,1,0,80,10,1,79
,,,,,,,,,,,,,,,,,,,,,,,,,,,,,,,,,,,m,9.023000002,M,FALSE,,,,,,,157,mussol,Catalan,Sounds/cat_mussol.mp3,2020-06-13_12h25.09.538,TranslationElicitation_spa,3.2.4,Win32,60,5ee3dd701da2350bd1e67f35,,1,0,80,51,1,79
,,,,,,,,,,,,,,,,,,,,,,,,,,,,,,,,,,,u,10.20899987,MU,FALSE,,,,,,,157,mussol,Catalan,Sounds/cat_mussol.mp3,2020-06-13_12h25.09.538,TranslationElicitation_spa,3.2.4,Win32,60,5ee3dd701da2350bd1e67f35,,1,0,80,51,1,79
,,,,,,,,,,,,,,,,,,,,,,,,,,,,,,,,,,,c,10.39199996,MUC,FALSE,,,,,,,157,mussol,Catalan,Sounds/cat_mussol.mp3,2020-06-13_12h25.09.538,TranslationElicitation_spa,3.2.4,Win32,60,5ee3dd701da2350bd1e67f35,,1,0,80,51,1,79
,,,,,,,,,,,,,,,,,,,,,,,,,,,,,,,,,,,h,10.50900006,MUCH,FALSE,,,,,,,157,mussol,Catalan,Sounds/cat_mussol.mp3,2020-06-13_12h25.09.538,TranslationElicitation_spa,3.2.4,Win32,60,5ee3dd701da2350bd1e67f35,,1,0,80,51,1,79
,,,,,,,,,,,,,,,,,,,,,,,,,,,,,,,,,,,apostrophe,11.01200008,MUCH,FALSE,,,,,,,157,mussol,Catalan,Sounds/cat_mussol.mp3,2020-06-13_12h25.09.538,TranslationElicitation_spa,3.2.4,Win32,60,5ee3dd701da2350bd1e67f35,,1,0,80,51,1,79
,,,,,,,,,,,,,,,,,,,,,,,,,,,,,,,,,,,i,11.2809999,MUCHÍ,FALSE,,,,,,,157,mussol,Catalan,Sounds/cat_mussol.mp3,2020-06-13_12h25.09.538,TranslationElicitation_spa,3.2.4,Win32,60,5ee3dd701da2350bd1e67f35,,1,0,80,51,1,79
,,,,,,,,,,,,,,,,,,,,,,,,,,,,,,,,,,,s,11.42499995,MUCHÍS,FALSE,,,,,,,157,mussol,Catalan,Sounds/cat_mussol.mp3,2020-06-13_12h25.09.538,TranslationElicitation_spa,3.2.4,Win32,60,5ee3dd701da2350bd1e67f35,,1,0,80,51,1,79
,,,,,,,,,,,,,,,,,,,,,,,,,,,,,,,,,,,i,11.47799993,MUCHÍSI,FALSE,,,,,,,157,mussol,Catalan,Sounds/cat_mussol.mp3,2020-06-13_12h25.09.538,TranslationElicitation_spa,3.2.4,Win32,60,5ee3dd701da2350bd1e67f35,,1,0,80,51,1,79
,,,,,,,,,,,,,,,,,,,,,,,,,,,,,,,,,,,m,11.66299987,MUCHÍSIM,FALSE,,,,,,,157,mussol,Catalan,Sounds/cat_mussol.mp3,2020-06-13_12h25.09.538,TranslationElicitation_spa,3.2.4,Win32,60,5ee3dd701da2350bd1e67f35,,1,0,80,51,1,79
,,,,,,,,,,,,,,,,,,,,,,,,,,,,,,,,,,,o,11.81299996,MUCHÍSIMO,FALSE,,,,,,,157,mussol,Catalan,Sounds/cat_mussol.mp3,2020-06-13_12h25.09.538,TranslationElicitation_spa,3.2.4,Win32,60,5ee3dd701da2350bd1e67f35,,1,0,80,51,1,79
,,,,,,,,,,,,,,,,,,,,,,,,,,,,,,,,,,,return,12.09699988,,FALSE,,,,,,,157,mussol,Catalan,Sounds/cat_mussol.mp3,2020-06-13_12h25.09.538,TranslationElicitation_spa,3.2.4,Win32,60,5ee3dd701da2350bd1e67f35,12.09699988,1,0,80,51,1,79
,,,,,,,,,,,,,,,,,,,,,,,,,,,,,,,,,,,,,,,,,,,,,157,mussol,Catalan,Sounds/cat_mussol.mp3,2020-06-13_12h25.09.538,TranslationElicitation_spa,3.2.4,Win32,60,5ee3dd701da2350bd1e67f35,,1,0,80,51,1,79
,,,,,,,,,,,,,,,,,,,,,,,,,,,,,,,,,,,p,1.638999939,P,FALSE,,,,,,,171,pollastre,Catalan,Sounds/cat_pollastre.mp3,2020-06-13_12h25.09.538,TranslationElicitation_spa,3.2.4,Win32,60,5ee3dd701da2350bd1e67f35,,1,0,80,63,1,79
,,,,,,,,,,,,,,,,,,,,,,,,,,,,,,,,,,,o,1.822000027,PO,FALSE,,,,,,,171,pollastre,Catalan,Sounds/cat_pollastre.mp3,2020-06-13_12h25.09.538,TranslationElicitation_spa,3.2.4,Win32,60,5ee3dd701da2350bd1e67f35,,1,0,80,63,1,79
,,,,,,,,,,,,,,,,,,,,,,,,,,,,,,,,,,,l,2.02699995,POL,FALSE,,,,,,,171,pollastre,Catalan,Sounds/cat_pollastre.mp3,2020-06-13_12h25.09.538,TranslationElicitation_spa,3.2.4,Win32,60,5ee3dd701da2350bd1e67f35,,1,0,80,63,1,79
,,,,,,,,,,,,,,,,,,,,,,,,,,,,,,,,,,,l,2.159999847,POLL,FALSE,,,,,,,171,pollastre,Catalan,Sounds/cat_pollastre.mp3,2020-06-13_12h25.09.538,TranslationElicitation_spa,3.2.4,Win32,60,5ee3dd701da2350bd1e67f35,,1,0,80,63,1,79
,,,,,,,,,,,,,,,,,,,,,,,,,,,,,,,,,,,o,2.326999903,POLLO,FALSE,,,,,,,171,pollastre,Catalan,Sounds/cat_pollastre.mp3,2020-06-13_12h25.09.538,TranslationElicitation_spa,3.2.4,Win32,60,5ee3dd701da2350bd1e67f35,,1,0,80,63,1,79
,,,,,,,,,,,,,,,,,,,,,,,,,,,,,,,,,,,return,2.648000002,,FALSE,,,,,,,171,pollastre,Catalan,Sounds/cat_pollastre.mp3,2020-06-13_12h25.09.538,TranslationElicitation_spa,3.2.4,Win32,60,5ee3dd701da2350bd1e67f35,2.648000002,1,0,80,63,1,79
,,,,,,,,,,,,,,,,,,,,,,,,,,,,,,,,,,,,,,,,,,,,,171,pollastre,Catalan,Sounds/cat_pollastre.mp3,2020-06-13_12h25.09.538,TranslationElicitation_spa,3.2.4,Win32,60,5ee3dd701da2350bd1e67f35,,1,0,80,63,1,79
,,,,,,,,,,,,,,,,,,,,,,,,,,,,,,,,,,,b,2.036000013,B,FALSE,,,,,,,114,bol,Catalan,Sounds/cat_bol.mp3,2020-06-13_12h25.09.538,TranslationElicitation_spa,3.2.4,Win32,60,5ee3dd701da2350bd1e67f35,,1,0,80,9,1,79
,,,,,,,,,,,,,,,,,,,,,,,,,,,,,,,,,,,o,2.137000084,BO,FALSE,,,,,,,114,bol,Catalan,Sounds/cat_bol.mp3,2020-06-13_12h25.09.538,TranslationElicitation_spa,3.2.4,Win32,60,5ee3dd701da2350bd1e67f35,,1,0,80,9,1,79
,,,,,,,,,,,,,,,,,,,,,,,,,,,,,,,,,,,l,2.320000172,BOL,FALSE,,,,,,,114,bol,Catalan,Sounds/cat_bol.mp3,2020-06-13_12h25.09.538,TranslationElicitation_spa,3.2.4,Win32,60,5ee3dd701da2350bd1e67f35,,1,0,80,9,1,79
,,,,,,,,,,,,,,,,,,,,,,,,,,,,,,,,,,,return,2.95600009,,FALSE,,,,,,,114,bol,Catalan,Sounds/cat_bol.mp3,2020-06-13_12h25.09.538,TranslationElicitation_spa,3.2.4,Win32,60,5ee3dd701da2350bd1e67f35,2.95600009,1,0,80,9,1,79
,,,,,,,,,,,,,,,,,,,,,,,,,,,,,,,,,,,,,,,,,,,,,114,bol,Catalan,Sounds/cat_bol.mp3,2020-06-13_12h25.09.538,TranslationElicitation_spa,3.2.4,Win32,60,5ee3dd701da2350bd1e67f35,,1,0,80,9,1,79
,,,,,,,,,,,,,,,,,,,,,,,,,,,,,,,,,,,e,1.829999924,E,FALSE,,,,,,,131,esponja,Catalan,Sounds/cat_esponja.mp3,2020-06-13_12h25.09.538,TranslationElicitation_spa,3.2.4,Win32,60,5ee3dd701da2350bd1e67f35,,1,0,80,26,1,79
,,,,,,,,,,,,,,,,,,,,,,,,,,,,,,,,,,,s,2.063999891,ES,FALSE,,,,,,,131,esponja,Catalan,Sounds/cat_esponja.mp3,2020-06-13_12h25.09.538,TranslationElicitation_spa,3.2.4,Win32,60,5ee3dd701da2350bd1e67f35,,1,0,80,26,1,79
,,,,,,,,,,,,,,,,,,,,,,,,,,,,,,,,,,,p,2.197000027,ESP,FALSE,,,,,,,131,esponja,Catalan,Sounds/cat_esponja.mp3,2020-06-13_12h25.09.538,TranslationElicitation_spa,3.2.4,Win32,60,5ee3dd701da2350bd1e67f35,,1,0,80,26,1,79
,,,,,,,,,,,,,,,,,,,,,,,,,,,,,,,,,,,a,2.279999971,ESPA,FALSE,,,,,,,131,esponja,Catalan,Sounds/cat_esponja.mp3,2020-06-13_12h25.09.538,TranslationElicitation_spa,3.2.4,Win32,60,5ee3dd701da2350bd1e67f35,,1,0,80,26,1,79
,,,,,,,,,,,,,,,,,,,,,,,,,,,,,,,,,,,semicolon,2.414000034,ESPAÑ,FALSE,,,,,,,131,esponja,Catalan,Sounds/cat_esponja.mp3,2020-06-13_12h25.09.538,TranslationElicitation_spa,3.2.4,Win32,60,5ee3dd701da2350bd1e67f35,,1,0,80,26,1,79
,,,,,,,,,,,,,,,,,,,,,,,,,,,,,,,,,,,a,2.579999924,ESPAÑA,FALSE,,,,,,,131,esponja,Catalan,Sounds/cat_esponja.mp3,2020-06-13_12h25.09.538,TranslationElicitation_spa,3.2.4,Win32,60,5ee3dd701da2350bd1e67f35,,1,0,80,26,1,79
,,,,,,,,,,,,,,,,,,,,,,,,,,,,,,,,,,,return,2.897000074,,FALSE,,,,,,,131,esponja,Catalan,Sounds/cat_esponja.mp3,2020-06-13_12h25.09.538,TranslationElicitation_spa,3.2.4,Win32,60,5ee3dd701da2350bd1e67f35,2.897000074,1,0,80,26,1,79
,,,,,,,,,,,,,,,,,,,,,,,,,,,,,,,,,,,,,,,,,,,,,131,esponja,Catalan,Sounds/cat_esponja.mp3,2020-06-13_12h25.09.538,TranslationElicitation_spa,3.2.4,Win32,60,5ee3dd701da2350bd1e67f35,,1,0,80,26,1,79
,,,,,,,,,,,,,,,,,,,,,,,,,,,,,,,,,,,j,1.235000134,J,FALSE,,,,,,,142,girafa,Catalan,Sounds/cat_girafa.mp3,2020-06-13_12h25.09.538,TranslationElicitation_spa,3.2.4,Win32,60,5ee3dd701da2350bd1e67f35,,1,0,80,37,1,79
,,,,,,,,,,,,,,,,,,,,,,,,,,,,,,,,,,,i,1.386000156,JI,FALSE,,,,,,,142,girafa,Catalan,Sounds/cat_girafa.mp3,2020-06-13_12h25.09.538,TranslationElicitation_spa,3.2.4,Win32,60,5ee3dd701da2350bd1e67f35,,1,0,80,37,1,79
,,,,,,,,,,,,,,,,,,,,,,,,,,,,,,,,,,,r,1.486000061,JIR,FALSE,,,,,,,142,girafa,Catalan,Sounds/cat_girafa.mp3,2020-06-13_12h25.09.538,TranslationElicitation_spa,3.2.4,Win32,60,5ee3dd701da2350bd1e67f35,,1,0,80,37,1,79
,,,,,,,,,,,,,,,,,,,,,,,,,,,,,,,,,,,a,1.636000156,JIRA,FALSE,,,,,,,142,girafa,Catalan,Sounds/cat_girafa.mp3,2020-06-13_12h25.09.538,TranslationElicitation_spa,3.2.4,Win32,60,5ee3dd701da2350bd1e67f35,,1,0,80,37,1,79
,,,,,,,,,,,,,,,,,,,,,,,,,,,,,,,,,,,f,1.738000154,JIRAF,FALSE,,,,,,,142,girafa,Catalan,Sounds/cat_girafa.mp3,2020-06-13_12h25.09.538,TranslationElicitation_spa,3.2.4,Win32,60,5ee3dd701da2350bd1e67f35,,1,0,80,37,1,79
,,,,,,,,,,,,,,,,,,,,,,,,,,,,,,,,,,,a,1.837000132,JIRAFA,FALSE,,,,,,,142,girafa,Catalan,Sounds/cat_girafa.mp3,2020-06-13_12h25.09.538,TranslationElicitation_spa,3.2.4,Win32,60,5ee3dd701da2350bd1e67f35,,1,0,80,37,1,79
,,,,,,,,,,,,,,,,,,,,,,,,,,,,,,,,,,,return,2.036999941,,FALSE,,,,,,,142,girafa,Catalan,Sounds/cat_girafa.mp3,2020-06-13_12h25.09.538,TranslationElicitation_spa,3.2.4,Win32,60,5ee3dd701da2350bd1e67f35,2.036999941,1,0,80,37,1,79
,,,,,,,,,,,,,,,,,,,,,,,,,,,,,,,,,,,,,,,,,,,,,142,girafa,Catalan,Sounds/cat_girafa.mp3,2020-06-13_12h25.09.538,TranslationElicitation_spa,3.2.4,Win32,60,5ee3dd701da2350bd1e67f35,,1,0,80,37,1,79
,,,,,,,,,,,,,,,,,,,,,,,,,,,,,,,,,,,p,2.555999994,P,FALSE,,,,,,,184,ull,Catalan,Sounds/cat_ull.mp3,2020-06-13_12h25.09.538,TranslationElicitation_spa,3.2.4,Win32,60,5ee3dd701da2350bd1e67f35,,1,0,80,75,1,79
,,,,,,,,,,,,,,,,,,,,,,,,,,,,,,,,,,,l,2.74000001,PL,FALSE,,,,,,,184,ull,Catalan,Sounds/cat_ull.mp3,2020-06-13_12h25.09.538,TranslationElicitation_spa,3.2.4,Win32,60,5ee3dd701da2350bd1e67f35,,1,0,80,75,1,79
,,,,,,,,,,,,,,,,,,,,,,,,,,,,,,,,,,,a,3.006999969,PLA,FALSE,,,,,,,184,ull,Catalan,Sounds/cat_ull.mp3,2020-06-13_12h25.09.538,TranslationElicitation_spa,3.2.4,Win32,60,5ee3dd701da2350bd1e67f35,,1,0,80,75,1,79
,,,,,,,,,,,,,,,,,,,,,,,,,,,,,,,,,,,t,3.156999826,PLAT,FALSE,,,,,,,184,ull,Catalan,Sounds/cat_ull.mp3,2020-06-13_12h25.09.538,TranslationElicitation_spa,3.2.4,Win32,60,5ee3dd701da2350bd1e67f35,,1,0,80,75,1,79
,,,,,,,,,,,,,,,,,,,,,,,,,,,,,,,,,,,o,3.24000001,PLATO,FALSE,,,,,,,184,ull,Catalan,Sounds/cat_ull.mp3,2020-06-13_12h25.09.538,TranslationElicitation_spa,3.2.4,Win32,60,5ee3dd701da2350bd1e67f35,,1,0,80,75,1,79
,,,,,,,,,,,,,,,,,,,,,,,,,,,,,,,,,,,return,3.42599988,,FALSE,,,,,,,184,ull,Catalan,Sounds/cat_ull.mp3,2020-06-13_12h25.09.538,TranslationElicitation_spa,3.2.4,Win32,60,5ee3dd701da2350bd1e67f35,3.424999952,1,0,80,75,1,79
,,,,,,,,,,,,,,,,,,,,,,,,,,,,,,,,,,,,,,,,,,,,,184,ull,Catalan,Sounds/cat_ull.mp3,2020-06-13_12h25.09.538,TranslationElicitation_spa,3.2.4,Win32,60,5ee3dd701da2350bd1e67f35,,1,0,80,75,1,79
,,,,,,,,,,,,,,,,,,,,,,,,,,,,,,,,,,,i,1.457000017,I,FALSE,,,,,,,149,llibre,Catalan,Sounds/cat_llibre.mp3,2020-06-13_12h25.09.538,TranslationElicitation_spa,3.2.4,Win32,60,5ee3dd701da2350bd1e67f35,,1,0,80,43,1,79
,,,,,,,,,,,,,,,,,,,,,,,,,,,,,,,,,,,b,1.704999924,IB,FALSE,,,,,,,149,llibre,Catalan,Sounds/cat_llibre.mp3,2020-06-13_12h25.09.538,TranslationElicitation_spa,3.2.4,Win32,60,5ee3dd701da2350bd1e67f35,,1,0,80,43,1,79
,,,,,,,,,,,,,,,,,,,,,,,,,,,,,,,,,,,backspace,1.954999924,,TRUE,,,,,,,149,llibre,Catalan,Sounds/cat_llibre.mp3,2020-06-13_12h25.09.538,TranslationElicitation_spa,3.2.4,Win32,60,5ee3dd701da2350bd1e67f35,,1,0,80,43,1,79
,,,,,,,,,,,,,,,,,,,,,,,,,,,,,,,,,,,backspace,2.239000082,,TRUE,,,,,,,149,llibre,Catalan,Sounds/cat_llibre.mp3,2020-06-13_12h25.09.538,TranslationElicitation_spa,3.2.4,Win32,60,5ee3dd701da2350bd1e67f35,,1,0,80,43,1,79
,,,,,,,,,,,,,,,,,,,,,,,,,,,,,,,,,,,l,2.539999962,L,TRUE,,,,,,,149,llibre,Catalan,Sounds/cat_llibre.mp3,2020-06-13_12h25.09.538,TranslationElicitation_spa,3.2.4,Win32,60,5ee3dd701da2350bd1e67f35,,1,0,80,43,1,79
