consentKey.keys,consentKey.rt,languageL1Key.keys,languageL1Key.rt,languageL2,languageL2OralKey.keys,languageL2OralKey.rt,languageL2WrittenKey.keys,languageL2WrittenKey.rt,languageL3OralKey.keys,languageL3OralKey.rt,languageL3WrittenKey.keys,languageL3WrittenKey.rt,languageCatalanOralKey.keys,languageCatalanOralKey.rt,languageCatalanWrittenKey.keys,languageCatalanWrittenKey.rt,languageCatalanTimeKey.keys,languageCatalanTimeKey.rt,age,demoSexKey.keys,demoSexKey.rt,demoEducationKey.keys,demoEducationKey.rt,city,demoVisionKey.keys,demoVisionKey.rt,demoLanguageKey.keys,demoLanguageKey.rt,setupLocationKey.keys,setupLocationKey.rt,setupNoiseKey.keys,setupNoiseKey.rt,instructionsKeys.keys,instructionsKeys.rt,keyPressed,keyPressTime,inputText,error,trials_practice.thisRepN,trials_practice.thisTrialN,trials_practice.thisN,trials_practice.thisIndex,trials_practice.ran,trials_practice.order,trial_id,word,test_language,soundfile,date,expName,psychopyVersion,OS,frameRate,participant,trialOffset,trials.thisRepN,trials.thisTrialN,trials.thisN,trials.thisIndex,trials.ran,trials.order
space,10.14399981,e,6.559000015,ALEMÁN,4,9.34100008,4,8.51699996,2,6.463999748,2,2.08100009,3,15.17599988,1,5.631000042,1,7.545000076,22,m,1.671999931,3,8.592999935,MURCIA,n,3.038000107,n,2.100999832,1,2.707999945,2,6.679999828,space,17.83799982,u,2.894000053,U,FALSE,1,0,5,2,1,4,159,onada,Catalan,Sounds/cat_onada.mp3,2020-06-14_18h11.09.523,TranslationElicitation_spa,3.2.4,Win32,60,5ee3dc4bdfe64a0b4411b8f4,,,,,,,
,,,,,,,,,,,,,,,,,,,,,,,,,,,,,,,,,,,n,3.210000038,UN,FALSE,1,0,5,2,1,4,159,onada,Catalan,Sounds/cat_onada.mp3,2020-06-14_18h11.09.523,TranslationElicitation_spa,3.2.4,Win32,60,5ee3dc4bdfe64a0b4411b8f4,,,,,,,
,,,,,,,,,,,,,,,,,,,,,,,,,,,,,,,,,,,space,6.210999966,UN ,FALSE,1,0,5,2,1,4,159,onada,Catalan,Sounds/cat_onada.mp3,2020-06-14_18h11.09.523,TranslationElicitation_spa,3.2.4,Win32,60,5ee3dc4bdfe64a0b4411b8f4,,,,,,,
,,,,,,,,,,,,,,,,,,,,,,,,,,,,,,,,,,,h,6.409000158,UN H,FALSE,1,0,5,2,1,4,159,onada,Catalan,Sounds/cat_onada.mp3,2020-06-14_18h11.09.523,TranslationElicitation_spa,3.2.4,Win32,60,5ee3dc4bdfe64a0b4411b8f4,,,,,,,
,,,,,,,,,,,,,,,,,,,,,,,,,,,,,,,,,,,a,6.50999999,UN HA,FALSE,1,0,5,2,1,4,159,onada,Catalan,Sounds/cat_onada.mp3,2020-06-14_18h11.09.523,TranslationElicitation_spa,3.2.4,Win32,60,5ee3dc4bdfe64a0b4411b8f4,,,,,,,
,,,,,,,,,,,,,,,,,,,,,,,,,,,,,,,,,,,d,7.193000078,UN HAD,FALSE,1,0,5,2,1,4,159,onada,Catalan,Sounds/cat_onada.mp3,2020-06-14_18h11.09.523,TranslationElicitation_spa,3.2.4,Win32,60,5ee3dc4bdfe64a0b4411b8f4,,,,,,,
,,,,,,,,,,,,,,,,,,,,,,,,,,,,,,,,,,,a,7.243999958,UN HADA,FALSE,1,0,5,2,1,4,159,onada,Catalan,Sounds/cat_onada.mp3,2020-06-14_18h11.09.523,TranslationElicitation_spa,3.2.4,Win32,60,5ee3dc4bdfe64a0b4411b8f4,,,,,,,
,,,,,,,,,,,,,,,,,,,,,,,,,,,,,,,,,,,return,8.409000158,,FALSE,1,0,5,2,1,4,159,onada,Catalan,Sounds/cat_onada.mp3,2020-06-14_18h11.09.523,TranslationElicitation_spa,3.2.4,Win32,60,5ee3dc4bdfe64a0b4411b8f4,8.409000158,,,,,,
,,,,,,,,,,,,,,,,,,,,,,,,,,,,,,,,,,,,,,,1,0,5,2,1,4,159,onada,Catalan,Sounds/cat_onada.mp3,2020-06-14_18h11.09.523,TranslationElicitation_spa,3.2.4,Win32,60,5ee3dc4bdfe64a0b4411b8f4,,,,,,,
,,,,,,,,,,,,,,,,,,,,,,,,,,,,,,,,,,,t,2.095999956,T,FALSE,1,0,5,4,1,4,179,tigre,Catalan,Sounds/cat_tigre.mp3,2020-06-14_18h11.09.523,TranslationElicitation_spa,3.2.4,Win32,60,5ee3dc4bdfe64a0b4411b8f4,,,,,,,
,,,,,,,,,,,,,,,,,,,,,,,,,,,,,,,,,,,i,2.743999958,TI,FALSE,1,0,5,4,1,4,179,tigre,Catalan,Sounds/cat_tigre.mp3,2020-06-14_18h11.09.523,TranslationElicitation_spa,3.2.4,Win32,60,5ee3dc4bdfe64a0b4411b8f4,,,,,,,
,,,,,,,,,,,,,,,,,,,,,,,,,,,,,,,,,,,g,3.011000156,TIG,FALSE,1,0,5,4,1,4,179,tigre,Catalan,Sounds/cat_tigre.mp3,2020-06-14_18h11.09.523,TranslationElicitation_spa,3.2.4,Win32,60,5ee3dc4bdfe64a0b4411b8f4,,,,,,,
,,,,,,,,,,,,,,,,,,,,,,,,,,,,,,,,,,,r,3.111000061,TIGR,FALSE,1,0,5,4,1,4,179,tigre,Catalan,Sounds/cat_tigre.mp3,2020-06-14_18h11.09.523,TranslationElicitation_spa,3.2.4,Win32,60,5ee3dc4bdfe64a0b4411b8f4,,,,,,,
,,,,,,,,,,,,,,,,,,,,,,,,,,,,,,,,,,,e,3.261000156,TIGRE,FALSE,1,0,5,4,1,4,179,tigre,Catalan,Sounds/cat_tigre.mp3,2020-06-14_18h11.09.523,TranslationElicitation_spa,3.2.4,Win32,60,5ee3dc4bdfe64a0b4411b8f4,,,,,,,
,,,,,,,,,,,,,,,,,,,,,,,,,,,,,,,,,,,return,4.194000006,,FALSE,1,0,5,4,1,4,179,tigre,Catalan,Sounds/cat_tigre.mp3,2020-06-14_18h11.09.523,TranslationElicitation_spa,3.2.4,Win32,60,5ee3dc4bdfe64a0b4411b8f4,4.194000006,,,,,,
,,,,,,,,,,,,,,,,,,,,,,,,,,,,,,,,,,,,,,,1,0,5,4,1,4,179,tigre,Catalan,Sounds/cat_tigre.mp3,2020-06-14_18h11.09.523,TranslationElicitation_spa,3.2.4,Win32,60,5ee3dc4bdfe64a0b4411b8f4,,,,,,,
,,,,,,,,,,,,,,,,,,,,,,,,,,,,,,,,,,,c,2.265000105,C,FALSE,1,0,5,1,1,4,147,jaqueta,Catalan,Sounds/cat_jaqueta.mp3,2020-06-14_18h11.09.523,TranslationElicitation_spa,3.2.4,Win32,60,5ee3dc4bdfe64a0b4411b8f4,,,,,,,
,,,,,,,,,,,,,,,,,,,,,,,,,,,,,,,,,,,h,2.4150002,CH,FALSE,1,0,5,1,1,4,147,jaqueta,Catalan,Sounds/cat_jaqueta.mp3,2020-06-14_18h11.09.523,TranslationElicitation_spa,3.2.4,Win32,60,5ee3dc4bdfe64a0b4411b8f4,,,,,,,
,,,,,,,,,,,,,,,,,,,,,,,,,,,,,,,,,,,a,2.531000137,CHA,FALSE,1,0,5,1,1,4,147,jaqueta,Catalan,Sounds/cat_jaqueta.mp3,2020-06-14_18h11.09.523,TranslationElicitation_spa,3.2.4,Win32,60,5ee3dc4bdfe64a0b4411b8f4,,,,,,,
,,,,,,,,,,,,,,,,,,,,,,,,,,,,,,,,,,,q,2.731000185,CHAQ,FALSE,1,0,5,1,1,4,147,jaqueta,Catalan,Sounds/cat_jaqueta.mp3,2020-06-14_18h11.09.523,TranslationElicitation_spa,3.2.4,Win32,60,5ee3dc4bdfe64a0b4411b8f4,,,,,,,
,,,,,,,,,,,,,,,,,,,,,,,,,,,,,,,,,,,u,2.798000097,CHAQU,FALSE,1,0,5,1,1,4,147,jaqueta,Catalan,Sounds/cat_jaqueta.mp3,2020-06-14_18h11.09.523,TranslationElicitation_spa,3.2.4,Win32,60,5ee3dc4bdfe64a0b4411b8f4,,,,,,,
,,,,,,,,,,,,,,,,,,,,,,,,,,,,,,,,,,,e,2.9150002,CHAQUE,FALSE,1,0,5,1,1,4,147,jaqueta,Catalan,Sounds/cat_jaqueta.mp3,2020-06-14_18h11.09.523,TranslationElicitation_spa,3.2.4,Win32,60,5ee3dc4bdfe64a0b4411b8f4,,,,,,,
,,,,,,,,,,,,,,,,,,,,,,,,,,,,,,,,,,,t,3.281000137,CHAQUET,FALSE,1,0,5,1,1,4,147,jaqueta,Catalan,Sounds/cat_jaqueta.mp3,2020-06-14_18h11.09.523,TranslationElicitation_spa,3.2.4,Win32,60,5ee3dc4bdfe64a0b4411b8f4,,,,,,,
,,,,,,,,,,,,,,,,,,,,,,,,,,,,,,,,,,,a,3.34800005,CHAQUETA,FALSE,1,0,5,1,1,4,147,jaqueta,Catalan,Sounds/cat_jaqueta.mp3,2020-06-14_18h11.09.523,TranslationElicitation_spa,3.2.4,Win32,60,5ee3dc4bdfe64a0b4411b8f4,,,,,,,
,,,,,,,,,,,,,,,,,,,,,,,,,,,,,,,,,,,return,4.398000002,,FALSE,1,0,5,1,1,4,147,jaqueta,Catalan,Sounds/cat_jaqueta.mp3,2020-06-14_18h11.09.523,TranslationElicitation_spa,3.2.4,Win32,60,5ee3dc4bdfe64a0b4411b8f4,4.397000074,,,,,,
,,,,,,,,,,,,,,,,,,,,,,,,,,,,,,,,,,,,,,,1,0,5,1,1,4,147,jaqueta,Catalan,Sounds/cat_jaqueta.mp3,2020-06-14_18h11.09.523,TranslationElicitation_spa,3.2.4,Win32,60,5ee3dc4bdfe64a0b4411b8f4,,,,,,,
,,,,,,,,,,,,,,,,,,,,,,,,,,,,,,,,,,,a,1.680999994,A,FALSE,1,0,5,0,1,4,109,arbre,Catalan,Sounds/cat_arbre.mp3,2020-06-14_18h11.09.523,TranslationElicitation_spa,3.2.4,Win32,60,5ee3dc4bdfe64a0b4411b8f4,,,,,,,
,,,,,,,,,,,,,,,,,,,,,,,,,,,,,,,,,,,r,3.113999844,AR,FALSE,1,0,5,0,1,4,109,arbre,Catalan,Sounds/cat_arbre.mp3,2020-06-14_18h11.09.523,TranslationElicitation_spa,3.2.4,Win32,60,5ee3dc4bdfe64a0b4411b8f4,,,,,,,
,,,,,,,,,,,,,,,,,,,,,,,,,,,,,,,,,,,b,4.363999844,ARB,FALSE,1,0,5,0,1,4,109,arbre,Catalan,Sounds/cat_arbre.mp3,2020-06-14_18h11.09.523,TranslationElicitation_spa,3.2.4,Win32,60,5ee3dc4bdfe64a0b4411b8f4,,,,,,,
,,,,,,,,,,,,,,,,,,,,,,,,,,,,,,,,,,,o,4.447000027,ARBO,FALSE,1,0,5,0,1,4,109,arbre,Catalan,Sounds/cat_arbre.mp3,2020-06-14_18h11.09.523,TranslationElicitation_spa,3.2.4,Win32,60,5ee3dc4bdfe64a0b4411b8f4,,,,,,,
,,,,,,,,,,,,,,,,,,,,,,,,,,,,,,,,,,,l,4.613999844,ARBOL,FALSE,1,0,5,0,1,4,109,arbre,Catalan,Sounds/cat_arbre.mp3,2020-06-14_18h11.09.523,TranslationElicitation_spa,3.2.4,Win32,60,5ee3dc4bdfe64a0b4411b8f4,,,,,,,
,,,,,,,,,,,,,,,,,,,,,,,,,,,,,,,,,,,return,5.263999939,,FALSE,1,0,5,0,1,4,109,arbre,Catalan,Sounds/cat_arbre.mp3,2020-06-14_18h11.09.523,TranslationElicitation_spa,3.2.4,Win32,60,5ee3dc4bdfe64a0b4411b8f4,5.263999939,,,,,,
,,,,,,,,,,,,,,,,,,,,,,,,,,,,,,,,,,,,,,,1,0,5,0,1,4,109,arbre,Catalan,Sounds/cat_arbre.mp3,2020-06-14_18h11.09.523,TranslationElicitation_spa,3.2.4,Win32,60,5ee3dc4bdfe64a0b4411b8f4,,,,,,,
,,,,,,,,,,,,,,,,,,,,,,,,,,,,,,,,,,,p,2.031000137,P,FALSE,1,0,5,3,1,4,167,pingui,Catalan,Sounds/cat_pingui.mp3,2020-06-14_18h11.09.523,TranslationElicitation_spa,3.2.4,Win32,60,5ee3dc4bdfe64a0b4411b8f4,,,,,,,
,,,,,,,,,,,,,,,,,,,,,,,,,,,,,,,,,,,i,2.265000105,PI,FALSE,1,0,5,3,1,4,167,pingui,Catalan,Sounds/cat_pingui.mp3,2020-06-14_18h11.09.523,TranslationElicitation_spa,3.2.4,Win32,60,5ee3dc4bdfe64a0b4411b8f4,,,,,,,
,,,,,,,,,,,,,,,,,,,,,,,,,,,,,,,,,,,n,2.447999954,PIN,FALSE,1,0,5,3,1,4,167,pingui,Catalan,Sounds/cat_pingui.mp3,2020-06-14_18h11.09.523,TranslationElicitation_spa,3.2.4,Win32,60,5ee3dc4bdfe64a0b4411b8f4,,,,,,,
,,,,,,,,,,,,,,,,,,,,,,,,,,,,,,,,,,,g,2.664999962,PING,FALSE,1,0,5,3,1,4,167,pingui,Catalan,Sounds/cat_pingui.mp3,2020-06-14_18h11.09.523,TranslationElicitation_spa,3.2.4,Win32,60,5ee3dc4bdfe64a0b4411b8f4,,,,,,,
,,,,,,,,,,,,,,,,,,,,,,,,,,,,,,,,,,,apostrophe,3.481000185,PING,FALSE,1,0,5,3,1,4,167,pingui,Catalan,Sounds/cat_pingui.mp3,2020-06-14_18h11.09.523,TranslationElicitation_spa,3.2.4,Win32,60,5ee3dc4bdfe64a0b4411b8f4,,,,,,,
,,,,,,,,,,,,,,,,,,,,,,,,,,,,,,,,,,,u,4.180999994,PINGÚ,FALSE,1,0,5,3,1,4,167,pingui,Catalan,Sounds/cat_pingui.mp3,2020-06-14_18h11.09.523,TranslationElicitation_spa,3.2.4,Win32,60,5ee3dc4bdfe64a0b4411b8f4,,,,,,,
,,,,,,,,,,,,,,,,,,,,,,,,,,,,,,,,,,,i,4.447999954,PINGÚI,FALSE,1,0,5,3,1,4,167,pingui,Catalan,Sounds/cat_pingui.mp3,2020-06-14_18h11.09.523,TranslationElicitation_spa,3.2.4,Win32,60,5ee3dc4bdfe64a0b4411b8f4,,,,,,,
,,,,,,,,,,,,,,,,,,,,,,,,,,,,,,,,,,,backspace,4.864000082,PING,TRUE,1,0,5,3,1,4,167,pingui,Catalan,Sounds/cat_pingui.mp3,2020-06-14_18h11.09.523,TranslationElicitation_spa,3.2.4,Win32,60,5ee3dc4bdfe64a0b4411b8f4,,,,,,,
,,,,,,,,,,,,,,,,,,,,,,,,,,,,,,,,,,,backspace,5.014000177,PI,TRUE,1,0,5,3,1,4,167,pingui,Catalan,Sounds/cat_pingui.mp3,2020-06-14_18h11.09.523,TranslationElicitation_spa,3.2.4,Win32,60,5ee3dc4bdfe64a0b4411b8f4,,,,,,,
,,,,,,,,,,,,,,,,,,,,,,,,,,,,,,,,,,,n,5.864000082,PIN,TRUE,1,0,5,3,1,4,167,pingui,Catalan,Sounds/cat_pingui.mp3,2020-06-14_18h11.09.523,TranslationElicitation_spa,3.2.4,Win32,60,5ee3dc4bdfe64a0b4411b8f4,,,,,,,
,,,,,,,,,,,,,,,,,,,,,,,,,,,,,,,,,,,g,6.197000027,PING,TRUE,1,0,5,3,1,4,167,pingui,Catalan,Sounds/cat_pingui.mp3,2020-06-14_18h11.09.523,TranslationElicitation_spa,3.2.4,Win32,60,5ee3dc4bdfe64a0b4411b8f4,,,,,,,
,,,,,,,,,,,,,,,,,,,,,,,,,,,,,,,,,,,u,6.246999979,PINGU,TRUE,1,0,5,3,1,4,167,pingui,Catalan,Sounds/cat_pingui.mp3,2020-06-14_18h11.09.523,TranslationElicitation_spa,3.2.4,Win32,60,5ee3dc4bdfe64a0b4411b8f4,,,,,,,
,,,,,,,,,,,,,,,,,,,,,,,,,,,,,,,,,,,i,6.414000034,PINGUI,TRUE,1,0,5,3,1,4,167,pingui,Catalan,Sounds/cat_pingui.mp3,2020-06-14_18h11.09.523,TranslationElicitation_spa,3.2.4,Win32,60,5ee3dc4bdfe64a0b4411b8f4,,,,,,,
,,,,,,,,,,,,,,,,,,,,,,,,,,,,,,,,,,,n,6.580000162,PINGUIN,TRUE,1,0,5,3,1,4,167,pingui,Catalan,Sounds/cat_pingui.mp3,2020-06-14_18h11.09.523,TranslationElicitation_spa,3.2.4,Win32,60,5ee3dc4bdfe64a0b4411b8f4,,,,,,,
,,,,,,,,,,,,,,,,,,,,,,,,,,,,,,,,,,,o,6.73300004,PINGUINO,TRUE,1,0,5,3,1,4,167,pingui,Catalan,Sounds/cat_pingui.mp3,2020-06-14_18h11.09.523,TranslationElicitation_spa,3.2.4,Win32,60,5ee3dc4bdfe64a0b4411b8f4,,,,,,,
,,,,,,,,,,,,,,,,,,,,,,,,,,,,,,,,,,,return,7.863000154,,TRUE,1,0,5,3,1,4,167,pingui,Catalan,Sounds/cat_pingui.mp3,2020-06-14_18h11.09.523,TranslationElicitation_spa,3.2.4,Win32,60,5ee3dc4bdfe64a0b4411b8f4,7.863000154,,,,,,
,,,,,,,,,,,,,,,,,,,,,,,,,,,,,,,,,,,,,,,1,0,5,3,1,4,167,pingui,Catalan,Sounds/cat_pingui.mp3,2020-06-14_18h11.09.523,TranslationElicitation_spa,3.2.4,Win32,60,5ee3dc4bdfe64a0b4411b8f4,,,,,,,
,,,,,,,,,,,,,,,,,,,,,,,,,,,,,,,,,,,c,1.545000076,C,FALSE,,,,,,,122,casa,Catalan,Sounds/cat_casa.mp3,2020-06-14_18h11.09.523,TranslationElicitation_spa,3.2.4,Win32,60,5ee3dc4bdfe64a0b4411b8f4,,1,0,80,17,1,79
,,,,,,,,,,,,,,,,,,,,,,,,,,,,,,,,,,,a,1.628000021,CA,FALSE,,,,,,,122,casa,Catalan,Sounds/cat_casa.mp3,2020-06-14_18h11.09.523,TranslationElicitation_spa,3.2.4,Win32,60,5ee3dc4bdfe64a0b4411b8f4,,1,0,80,17,1,79
,,,,,,,,,,,,,,,,,,,,,,,,,,,,,,,,,,,s,1.812000036,CAS,FALSE,,,,,,,122,casa,Catalan,Sounds/cat_casa.mp3,2020-06-14_18h11.09.523,TranslationElicitation_spa,3.2.4,Win32,60,5ee3dc4bdfe64a0b4411b8f4,,1,0,80,17,1,79
,,,,,,,,,,,,,,,,,,,,,,,,,,,,,,,,,,,a,1.961000204,CASA,FALSE,,,,,,,122,casa,Catalan,Sounds/cat_casa.mp3,2020-06-14_18h11.09.523,TranslationElicitation_spa,3.2.4,Win32,60,5ee3dc4bdfe64a0b4411b8f4,,1,0,80,17,1,79
,,,,,,,,,,,,,,,,,,,,,,,,,,,,,,,,,,,return,2.561000109,,FALSE,,,,,,,122,casa,Catalan,Sounds/cat_casa.mp3,2020-06-14_18h11.09.523,TranslationElicitation_spa,3.2.4,Win32,60,5ee3dc4bdfe64a0b4411b8f4,2.561000109,1,0,80,17,1,79
,,,,,,,,,,,,,,,,,,,,,,,,,,,,,,,,,,,,,,,,,,,,,122,casa,Catalan,Sounds/cat_casa.mp3,2020-06-14_18h11.09.523,TranslationElicitation_spa,3.2.4,Win32,60,5ee3dc4bdfe64a0b4411b8f4,,1,0,80,17,1,79
,,,,,,,,,,,,,,,,,,,,,,,,,,,,,,,,,,,i,1.580999851,I,FALSE,,,,,,,112,bici,Catalan,Sounds/cat_bici.mp3,2020-06-14_18h11.09.523,TranslationElicitation_spa,3.2.4,Win32,60,5ee3dc4bdfe64a0b4411b8f4,,1,0,80,7,1,79
,,,,,,,,,,,,,,,,,,,,,,,,,,,,,,,,,,,c,1.697999954,IC,FALSE,,,,,,,112,bici,Catalan,Sounds/cat_bici.mp3,2020-06-14_18h11.09.523,TranslationElicitation_spa,3.2.4,Win32,60,5ee3dc4bdfe64a0b4411b8f4,,1,0,80,7,1,79
,,,,,,,,,,,,,,,,,,,,,,,,,,,,,,,,,,,i,1.763999939,ICI,FALSE,,,,,,,112,bici,Catalan,Sounds/cat_bici.mp3,2020-06-14_18h11.09.523,TranslationElicitation_spa,3.2.4,Win32,60,5ee3dc4bdfe64a0b4411b8f4,,1,0,80,7,1,79
,,,,,,,,,,,,,,,,,,,,,,,,,,,,,,,,,,,backspace,2.148000002,I,TRUE,,,,,,,112,bici,Catalan,Sounds/cat_bici.mp3,2020-06-14_18h11.09.523,TranslationElicitation_spa,3.2.4,Win32,60,5ee3dc4bdfe64a0b4411b8f4,,1,0,80,7,1,79
,,,,,,,,,,,,,,,,,,,,,,,,,,,,,,,,,,,backspace,2.280999899,,TRUE,,,,,,,112,bici,Catalan,Sounds/cat_bici.mp3,2020-06-14_18h11.09.523,TranslationElicitation_spa,3.2.4,Win32,60,5ee3dc4bdfe64a0b4411b8f4,,1,0,80,7,1,79
,,,,,,,,,,,,,,,,,,,,,,,,,,,,,,,,,,,b,2.963999987,B,TRUE,,,,,,,112,bici,Catalan,Sounds/cat_bici.mp3,2020-06-14_18h11.09.523,TranslationElicitation_spa,3.2.4,Win32,60,5ee3dc4bdfe64a0b4411b8f4,,1,0,80,7,1,79
,,,,,,,,,,,,,,,,,,,,,,,,,,,,,,,,,,,i,3.130999804,BI,TRUE,,,,,,,112,bici,Catalan,Sounds/cat_bici.mp3,2020-06-14_18h11.09.523,TranslationElicitation_spa,3.2.4,Win32,60,5ee3dc4bdfe64a0b4411b8f4,,1,0,80,7,1,79
,,,,,,,,,,,,,,,,,,,,,,,,,,,,,,,,,,,c,3.780999899,BIC,TRUE,,,,,,,112,bici,Catalan,Sounds/cat_bici.mp3,2020-06-14_18h11.09.523,TranslationElicitation_spa,3.2.4,Win32,60,5ee3dc4bdfe64a0b4411b8f4,,1,0,80,7,1,79
,,,,,,,,,,,,,,,,,,,,,,,,,,,,,,,,,,,i,3.830999851,BICI,TRUE,,,,,,,112,bici,Catalan,Sounds/cat_bici.mp3,2020-06-14_18h11.09.523,TranslationElicitation_spa,3.2.4,Win32,60,5ee3dc4bdfe64a0b4411b8f4,,1,0,80,7,1,79
,,,,,,,,,,,,,,,,,,,,,,,,,,,,,,,,,,,return,4.363999844,,TRUE,,,,,,,112,bici,Catalan,Sounds/cat_bici.mp3,2020-06-14_18h11.09.523,TranslationElicitation_spa,3.2.4,Win32,60,5ee3dc4bdfe64a0b4411b8f4,4.363999844,1,0,80,7,1,79
,,,,,,,,,,,,,,,,,,,,,,,,,,,,,,,,,,,,,,,,,,,,,112,bici,Catalan,Sounds/cat_bici.mp3,2020-06-14_18h11.09.523,TranslationElicitation_spa,3.2.4,Win32,60,5ee3dc4bdfe64a0b4411b8f4,,1,0,80,7,1,79
,,,,,,,,,,,,,,,,,,,,,,,,,,,,,,,,,,,d,4.463999987,D,FALSE,,,,,,,129,dit,Catalan,Sounds/cat_dit.mp3,2020-06-14_18h11.09.523,TranslationElicitation_spa,3.2.4,Win32,60,5ee3dc4bdfe64a0b4411b8f4,,1,0,80,24,1,79
,,,,,,,,,,,,,,,,,,,,,,,,,,,,,,,,,,,e,4.680999994,DE,FALSE,,,,,,,129,dit,Catalan,Sounds/cat_dit.mp3,2020-06-14_18h11.09.523,TranslationElicitation_spa,3.2.4,Win32,60,5ee3dc4bdfe64a0b4411b8f4,,1,0,80,24,1,79
,,,,,,,,,,,,,,,,,,,,,,,,,,,,,,,,,,,d,4.863999844,DED,FALSE,,,,,,,129,dit,Catalan,Sounds/cat_dit.mp3,2020-06-14_18h11.09.523,TranslationElicitation_spa,3.2.4,Win32,60,5ee3dc4bdfe64a0b4411b8f4,,1,0,80,24,1,79
,,,,,,,,,,,,,,,,,,,,,,,,,,,,,,,,,,,o,4.913999796,DEDO,FALSE,,,,,,,129,dit,Catalan,Sounds/cat_dit.mp3,2020-06-14_18h11.09.523,TranslationElicitation_spa,3.2.4,Win32,60,5ee3dc4bdfe64a0b4411b8f4,,1,0,80,24,1,79
,,,,,,,,,,,,,,,,,,,,,,,,,,,,,,,,,,,return,5.496999979,,FALSE,,,,,,,129,dit,Catalan,Sounds/cat_dit.mp3,2020-06-14_18h11.09.523,TranslationElicitation_spa,3.2.4,Win32,60,5ee3dc4bdfe64a0b4411b8f4,5.496999979,1,0,80,24,1,79
,,,,,,,,,,,,,,,,,,,,,,,,,,,,,,,,,,,,,,,,,,,,,129,dit,Catalan,Sounds/cat_dit.mp3,2020-06-14_18h11.09.523,TranslationElicitation_spa,3.2.4,Win32,60,5ee3dc4bdfe64a0b4411b8f4,,1,0,80,24,1,79
,,,,,,,,,,,,,,,,,,,,,,,,,,,,,,,,,,,a,2.417000055,A,FALSE,,,,,,,104,abella,Catalan,Sounds/cat_abella.mp3,2020-06-14_18h11.09.523,TranslationElicitation_spa,3.2.4,Win32,60,5ee3dc4bdfe64a0b4411b8f4,,1,0,80,0,1,79
,,,,,,,,,,,,,,,,,,,,,,,,,,,,,,,,,,,b,2.76699996,AB,FALSE,,,,,,,104,abella,Catalan,Sounds/cat_abella.mp3,2020-06-14_18h11.09.523,TranslationElicitation_spa,3.2.4,Win32,60,5ee3dc4bdfe64a0b4411b8f4,,1,0,80,0,1,79
,,,,,,,,,,,,,,,,,,,,,,,,,,,,,,,,,,,e,2.833999872,ABE,FALSE,,,,,,,104,abella,Catalan,Sounds/cat_abella.mp3,2020-06-14_18h11.09.523,TranslationElicitation_spa,3.2.4,Win32,60,5ee3dc4bdfe64a0b4411b8f4,,1,0,80,0,1,79
,,,,,,,,,,,,,,,,,,,,,,,,,,,,,,,,,,,l,3.117000103,ABEL,FALSE,,,,,,,104,abella,Catalan,Sounds/cat_abella.mp3,2020-06-14_18h11.09.523,TranslationElicitation_spa,3.2.4,Win32,60,5ee3dc4bdfe64a0b4411b8f4,,1,0,80,0,1,79
,,,,,,,,,,,,,,,,,,,,,,,,,,,,,,,,,,,l,3.26699996,ABELL,FALSE,,,,,,,104,abella,Catalan,Sounds/cat_abella.mp3,2020-06-14_18h11.09.523,TranslationElicitation_spa,3.2.4,Win32,60,5ee3dc4bdfe64a0b4411b8f4,,1,0,80,0,1,79
,,,,,,,,,,,,,,,,,,,,,,,,,,,,,,,,,,,a,3.282999992,ABELLA,FALSE,,,,,,,104,abella,Catalan,Sounds/cat_abella.mp3,2020-06-14_18h11.09.523,TranslationElicitation_spa,3.2.4,Win32,60,5ee3dc4bdfe64a0b4411b8f4,,1,0,80,0,1,79
,,,,,,,,,,,,,,,,,,,,,,,,,,,,,,,,,,,a,3.5,ABELLAA,FALSE,,,,,,,104,abella,Catalan,Sounds/cat_abella.mp3,2020-06-14_18h11.09.523,TranslationElicitation_spa,3.2.4,Win32,60,5ee3dc4bdfe64a0b4411b8f4,,1,0,80,0,1,79
,,,,,,,,,,,,,,,,,,,,,,,,,,,,,,,,,,,backspace,3.984999895,ABELL,TRUE,,,,,,,104,abella,Catalan,Sounds/cat_abella.mp3,2020-06-14_18h11.09.523,TranslationElicitation_spa,3.2.4,Win32,60,5ee3dc4bdfe64a0b4411b8f4,,1,0,80,0,1,79
,,,,,,,,,,,,,,,,,,,,,,,,,,,,,,,,,,,n,4.566999912,ABELLN,TRUE,,,,,,,104,abella,Catalan,Sounds/cat_abella.mp3,2020-06-14_18h11.09.523,TranslationElicitation_spa,3.2.4,Win32,60,5ee3dc4bdfe64a0b4411b8f4,,1,0,80,0,1,79
,,,,,,,,,,,,,,,,,,,,,,,,,,,,,,,,,,,a,4.615999937,ABELLNA,TRUE,,,,,,,104,abella,Catalan,Sounds/cat_abella.mp3,2020-06-14_18h11.09.523,TranslationElicitation_spa,3.2.4,Win32,60,5ee3dc4bdfe64a0b4411b8f4,,1,0,80,0,1,79
,,,,,,,,,,,,,,,,,,,,,,,,,,,,,,,,,,,backspace,5.48300004,ABELL,TRUE,,,,,,,104,abella,Catalan,Sounds/cat_abella.mp3,2020-06-14_18h11.09.523,TranslationElicitation_spa,3.2.4,Win32,60,5ee3dc4bdfe64a0b4411b8f4,,1,0,80,0,1,79
,,,,,,,,,,,,,,,,,,,,,,,,,,,,,,,,,,,backspace,5.632999897,ABE,TRUE,,,,,,,104,abella,Catalan,Sounds/cat_abella.mp3,2020-06-14_18h11.09.523,TranslationElicitation_spa,3.2.4,Win32,60,5ee3dc4bdfe64a0b4411b8f4,,1,0,80,0,1,79
,,,,,,,,,,,,,,,,,,,,,,,,,,,,,,,,,,,backspace,5.75,A,TRUE,,,,,,,104,abella,Catalan,Sounds/cat_abella.mp3,2020-06-14_18h11.09.523,TranslationElicitation_spa,3.2.4,Win32,60,5ee3dc4bdfe64a0b4411b8f4,,1,0,80,0,1,79
,,,,,,,,,,,,,,,,,,,,,,,,,,,,,,,,,,,b,6.516000032,AB,TRUE,,,,,,,104,abella,Catalan,Sounds/cat_abella.mp3,2020-06-14_18h11.09.523,TranslationElicitation_spa,3.2.4,Win32,60,5ee3dc4bdfe64a0b4411b8f4,,1,0,80,0,1,79
,,,,,,,,,,,,,,,,,,,,,,,,,,,,,,,,,,,e,6.565999985,ABE,TRUE,,,,,,,104,abella,Catalan,Sounds/cat_abella.mp3,2020-06-14_18h11.09.523,TranslationElicitation_spa,3.2.4,Win32,60,5ee3dc4bdfe64a0b4411b8f4,,1,0,80,0,1,79
,,,,,,,,,,,,,,,,,,,,,,,,,,,,,,,,,,,j,6.683000088,ABEJ,TRUE,,,,,,,104,abella,Catalan,Sounds/cat_abella.mp3,2020-06-14_18h11.09.523,TranslationElicitation_spa,3.2.4,Win32,60,5ee3dc4bdfe64a0b4411b8f4,,1,0,80,0,1,79
,,,,,,,,,,,,,,,,,,,,,,,,,,,,,,,,,,,a,6.948999882,ABEJA,TRUE,,,,,,,104,abella,Catalan,Sounds/cat_abella.mp3,2020-06-14_18h11.09.523,TranslationElicitation_spa,3.2.4,Win32,60,5ee3dc4bdfe64a0b4411b8f4,,1,0,80,0,1,79
,,,,,,,,,,,,,,,,,,,,,,,,,,,,,,,,,,,return,7.41899991,,TRUE,,,,,,,104,abella,Catalan,Sounds/cat_abella.mp3,2020-06-14_18h11.09.523,TranslationElicitation_spa,3.2.4,Win32,60,5ee3dc4bdfe64a0b4411b8f4,7.41899991,1,0,80,0,1,79
,,,,,,,,,,,,,,,,,,,,,,,,,,,,,,,,,,,,,,,,,,,,,104,abella,Catalan,Sounds/cat_abella.mp3,2020-06-14_18h11.09.523,TranslationElicitation_spa,3.2.4,Win32,60,5ee3dc4bdfe64a0b4411b8f4,,1,0,80,0,1,79
,,,,,,,,,,,,,,,,,,,,,,,,,,,,,,,,,,,b,1.561999798,B,FALSE,,,,,,,111,bibero,Catalan,Sounds/cat_bibero.mp3,2020-06-14_18h11.09.523,TranslationElicitation_spa,3.2.4,Win32,60,5ee3dc4bdfe64a0b4411b8f4,,1,0,80,6,1,79
,,,,,,,,,,,,,,,,,,,,,,,,,,,,,,,,,,,i,1.728999853,BI,FALSE,,,,,,,111,bibero,Catalan,Sounds/cat_bibero.mp3,2020-06-14_18h11.09.523,TranslationElicitation_spa,3.2.4,Win32,60,5ee3dc4bdfe64a0b4411b8f4,,1,0,80,6,1,79
,,,,,,,,,,,,,,,,,,,,,,,,,,,,,,,,,,,b,1.911999941,BIB,FALSE,,,,,,,111,bibero,Catalan,Sounds/cat_bibero.mp3,2020-06-14_18h11.09.523,TranslationElicitation_spa,3.2.4,Win32,60,5ee3dc4bdfe64a0b4411b8f4,,1,0,80,6,1,79
,,,,,,,,,,,,,,,,,,,,,,,,,,,,,,,,,,,e,2.061999798,BIBE,FALSE,,,,,,,111,bibero,Catalan,Sounds/cat_bibero.mp3,2020-06-14_18h11.09.523,TranslationElicitation_spa,3.2.4,Win32,60,5ee3dc4bdfe64a0b4411b8f4,,1,0,80,6,1,79
,,,,,,,,,,,,,,,,,,,,,,,,,,,,,,,,,,,r,2.277999878,BIBER,FALSE,,,,,,,111,bibero,Catalan,Sounds/cat_bibero.mp3,2020-06-14_18h11.09.523,TranslationElicitation_spa,3.2.4,Win32,60,5ee3dc4bdfe64a0b4411b8f4,,1,0,80,6,1,79
,,,,,,,,,,,,,,,,,,,,,,,,,,,,,,,,,,,apostrophe,2.649999857,BIBER,FALSE,,,,,,,111,bibero,Catalan,Sounds/cat_bibero.mp3,2020-06-14_18h11.09.523,TranslationElicitation_spa,3.2.4,Win32,60,5ee3dc4bdfe64a0b4411b8f4,,1,0,80,6,1,79
,,,,,,,,,,,,,,,,,,,,,,,,,,,,,,,,,,,o,2.861999989,BIBERÓ,FALSE,,,,,,,111,bibero,Catalan,Sounds/cat_bibero.mp3,2020-06-14_18h11.09.523,TranslationElicitation_spa,3.2.4,Win32,60,5ee3dc4bdfe64a0b4411b8f4,,1,0,80,6,1,79
,,,,,,,,,,,,,,,,,,,,,,,,,,,,,,,,,,,n,3.027999878,BIBERÓN,FALSE,,,,,,,111,bibero,Catalan,Sounds/cat_bibero.mp3,2020-06-14_18h11.09.523,TranslationElicitation_spa,3.2.4,Win32,60,5ee3dc4bdfe64a0b4411b8f4,,1,0,80,6,1,79
,,,,,,,,,,,,,,,,,,,,,,,,,,,,,,,,,,,return,3.994999886,,FALSE,,,,,,,111,bibero,Catalan,Sounds/cat_bibero.mp3,2020-06-14_18h11.09.523,TranslationElicitation_spa,3.2.4,Win32,60,5ee3dc4bdfe64a0b4411b8f4,3.994999886,1,0,80,6,1,79
,,,,,,,,,,,,,,,,,,,,,,,,,,,,,,,,,,,,,,,,,,,,,111,bibero,Catalan,Sounds/cat_bibero.mp3,2020-06-14_18h11.09.523,TranslationElicitation_spa,3.2.4,Win32,60,5ee3dc4bdfe64a0b4411b8f4,,1,0,80,6,1,79
,,,,,,,,,,,,,,,,,,,,,,,,,,,,,,,,,,,a,3.764000177,A,FALSE,,,,,,,133,estruc,Catalan,Sounds/cat_estruc.mp3,2020-06-14_18h11.09.523,TranslationElicitation_spa,3.2.4,Win32,60,5ee3dc4bdfe64a0b4411b8f4,,1,0,80,28,1,79
,,,,,,,,,,,,,,,,,,,,,,,,,,,,,,,,,,,s,4.031000137,AS,FALSE,,,,,,,133,estruc,Catalan,Sounds/cat_estruc.mp3,2020-06-14_18h11.09.523,TranslationElicitation_spa,3.2.4,Win32,60,5ee3dc4bdfe64a0b4411b8f4,,1,0,80,28,1,79
,,,,,,,,,,,,,,,,,,,,,,,,,,,,,,,,,,,t,6.248000145,AST,FALSE,,,,,,,133,estruc,Catalan,Sounds/cat_estruc.mp3,2020-06-14_18h11.09.523,TranslationElicitation_spa,3.2.4,Win32,60,5ee3dc4bdfe64a0b4411b8f4,,1,0,80,28,1,79
,,,,,,,,,,,,,,,,,,,,,,,,,,,,,,,,,,,r,6.430000067,ASTR,FALSE,,,,,,,133,estruc,Catalan,Sounds/cat_estruc.mp3,2020-06-14_18h11.09.523,TranslationElicitation_spa,3.2.4,Win32,60,5ee3dc4bdfe64a0b4411b8f4,,1,0,80,28,1,79
,,,,,,,,,,,,,,,,,,,,,,,,,,,,,,,,,,,o,6.496999979,ASTRO,FALSE,,,,,,,133,estruc,Catalan,Sounds/cat_estruc.mp3,2020-06-14_18h11.09.523,TranslationElicitation_spa,3.2.4,Win32,60,5ee3dc4bdfe64a0b4411b8f4,,1,0,80,28,1,79
,,,,,,,,,,,,,,,,,,,,,,,,,,,,,,,,,,,s,6.730000019,ASTROS,FALSE,,,,,,,133,estruc,Catalan,Sounds/cat_estruc.mp3,2020-06-14_18h11.09.523,TranslationElicitation_spa,3.2.4,Win32,60,5ee3dc4bdfe64a0b4411b8f4,,1,0,80,28,1,79
,,,,,,,,,,,,,,,,,,,,,,,,,,,,,,,,,,,return,7.59800005,,FALSE,,,,,,,133,estruc,Catalan,Sounds/cat_estruc.mp3,2020-06-14_18h11.09.523,TranslationElicitation_spa,3.2.4,Win32,60,5ee3dc4bdfe64a0b4411b8f4,7.597000122,1,0,80,28,1,79
,,,,,,,,,,,,,,,,,,,,,,,,,,,,,,,,,,,,,,,,,,,,,133,estruc,Catalan,Sounds/cat_estruc.mp3,2020-06-14_18h11.09.523,TranslationElicitation_spa,3.2.4,Win32,60,5ee3dc4bdfe64a0b4411b8f4,,1,0,80,28,1,79
,,,,,,,,,,,,,,,,,,,,,,,,,,,,,,,,,,,b,4.444000006,B,FALSE,,,,,,,116,bolquer,Catalan,Sounds/cat_bolquer.mp3,2020-06-14_18h11.09.523,TranslationElicitation_spa,3.2.4,Win32,60,5ee3dc4bdfe64a0b4411b8f4,,1,0,80,11,1,79
,,,,,,,,,,,,,,,,,,,,,,,,,,,,,,,,,,,o,4.677999973,BO,FALSE,,,,,,,116,bolquer,Catalan,Sounds/cat_bolquer.mp3,2020-06-14_18h11.09.523,TranslationElicitation_spa,3.2.4,Win32,60,5ee3dc4bdfe64a0b4411b8f4,,1,0,80,11,1,79
,,,,,,,,,,,,,,,,,,,,,,,,,,,,,,,,,,,l,4.82799983,BOL,FALSE,,,,,,,116,bolquer,Catalan,Sounds/cat_bolquer.mp3,2020-06-14_18h11.09.523,TranslationElicitation_spa,3.2.4,Win32,60,5ee3dc4bdfe64a0b4411b8f4,,1,0,80,11,1,79
,,,,,,,,,,,,,,,,,,,,,,,,,,,,,,,,,,,q,4.94299984,BOLQ,FALSE,,,,,,,116,bolquer,Catalan,Sounds/cat_bolquer.mp3,2020-06-14_18h11.09.523,TranslationElicitation_spa,3.2.4,Win32,60,5ee3dc4bdfe64a0b4411b8f4,,1,0,80,11,1,79
,,,,,,,,,,,,,,,,,,,,,,,,,,,,,,,,,,,u,5.042999983,BOLQU,FALSE,,,,,,,116,bolquer,Catalan,Sounds/cat_bolquer.mp3,2020-06-14_18h11.09.523,TranslationElicitation_spa,3.2.4,Win32,60,5ee3dc4bdfe64a0b4411b8f4,,1,0,80,11,1,79
,,,,,,,,,,,,,,,,,,,,,,,,,,,,,,,,,,,apostrophe,5.642999887,BOLQU,FALSE,,,,,,,116,bolquer,Catalan,Sounds/cat_bolquer.mp3,2020-06-14_18h11.09.523,TranslationElicitation_spa,3.2.4,Win32,60,5ee3dc4bdfe64a0b4411b8f4,,1,0,80,11,1,79
,,,,,,,,,,,,,,,,,,,,,,,,,,,,,,,,,,,e,5.69299984,BOLQUÉ,FALSE,,,,,,,116,bolquer,Catalan,Sounds/cat_bolquer.mp3,2020-06-14_18h11.09.523,TranslationElicitation_spa,3.2.4,Win32,60,5ee3dc4bdfe64a0b4411b8f4,,1,0,80,11,1,79
,,,,,,,,,,,,,,,,,,,,,,,,,,,,,,,,,,,backspace,8.64199996,BOLQ,TRUE,,,,,,,116,bolquer,Catalan,Sounds/cat_bolquer.mp3,2020-06-14_18h11.09.523,TranslationElicitation_spa,3.2.4,Win32,60,5ee3dc4bdfe64a0b4411b8f4,,1,0,80,11,1,79
,,,,,,,,,,,,,,,,,,,,,,,,,,,,,,,,,,,backspace,8.791999817,BO,TRUE,,,,,,,116,bolquer,Catalan,Sounds/cat_bolquer.mp3,2020-06-14_18h11.09.523,TranslationElicitation_spa,3.2.4,Win32,60,5ee3dc4bdfe64a0b4411b8f4,,1,0,80,11,1,79
,,,,,,,,,,,,,,,,,,,,,,,,,,,,,,,,,,,backspace,8.914999962,,TRUE,,,,,,,116,bolquer,Catalan,Sounds/cat_bolquer.mp3,2020-06-14_18h11.09.523,TranslationElicitation_spa,3.2.4,Win32,60,5ee3dc4bdfe64a0b4411b8f4,,1,0,80,11,1,79
,,,,,,,,,,,,,,,,,,,,,,,,,,,,,,,,,,,backspace,9.15899992,,TRUE,,,,,,,116,bolquer,Catalan,Sounds/cat_bolquer.mp3,2020-06-14_18h11.09.523,TranslationElicitation_spa,3.2.4,Win32,60,5ee3dc4bdfe64a0b4411b8f4,,1,0,80,11,1,79
,,,,,,,,,,,,,,,,,,,,,,,,,,,,,,,,,,,v,9.909999847,V,TRUE,,,,,,,116,bolquer,Catalan,Sounds/cat_bolquer.mp3,2020-06-14_18h11.09.523,TranslationElicitation_spa,3.2.4,Win32,60,5ee3dc4bdfe64a0b4411b8f4,,1,0,80,11,1,79
,,,,,,,,,,,,,,,,,,,,,,,,,,,,,,,,,,,o,10.0079999,VO,TRUE,,,,,,,116,bolquer,Catalan,Sounds/cat_bolquer.mp3,2020-06-14_18h11.09.523,TranslationElicitation_spa,3.2.4,Win32,60,5ee3dc4bdfe64a0b4411b8f4,,1,0,80,11,1,79
,,,,,,,,,,,,,,,,,,,,,,,,,,,,,,,,,,,l,10.42700005,VOL,TRUE,,,,,,,116,bolquer,Catalan,Sounds/cat_bolquer.mp3,2020-06-14_18h11.09.523,TranslationElicitation_spa,3.2.4,Win32,60,5ee3dc4bdfe64a0b4411b8f4,,1,0,80,11,1,79
,,,,,,,,,,,,,,,,,,,,,,,,,,,,,,,,,,,q,10.7249999,VOLQ,TRUE,,,,,,,116,bolquer,Catalan,Sounds/cat_bolquer.mp3,2020-06-14_18h11.09.523,TranslationElicitation_spa,3.2.4,Win32,60,5ee3dc4bdfe64a0b4411b8f4,,1,0,80,11,1,79
,,,,,,,,,,,,,,,,,,,,,,,,,,,,,,,,,,,u,10.82500005,VOLQU,TRUE,,,,,,,116,bolquer,Catalan,Sounds/cat_bolquer.mp3,2020-06-14_18h11.09.523,TranslationElicitation_spa,3.2.4,Win32,60,5ee3dc4bdfe64a0b4411b8f4,,1,0,80,11,1,79
,,,,,,,,,,,,,,,,,,,,,,,,,,,,,,,,,,,apostrophe,11.44099998,VOLQU,TRUE,,,,,,,116,bolquer,Catalan,Sounds/cat_bolquer.mp3,2020-06-14_18h11.09.523,TranslationElicitation_spa,3.2.4,Win32,60,5ee3dc4bdfe64a0b4411b8f4,,1,0,80,11,1,79
,,,,,,,,,,,,,,,,,,,,,,,,,,,,,,,,,,,e,11.47399998,VOLQUÉ,TRUE,,,,,,,116,bolquer,Catalan,Sounds/cat_bolquer.mp3,2020-06-14_18h11.09.523,TranslationElicitation_spa,3.2.4,Win32,60,5ee3dc4bdfe64a0b4411b8f4,,1,0,80,11,1,79
,,,,,,,,,,,,,,,,,,,,,,,,,,,,,,,,,,,return,11.90899992,,TRUE,,,,,,,116,bolquer,Catalan,Sounds/cat_bolquer.mp3,2020-06-14_18h11.09.523,TranslationElicitation_spa,3.2.4,Win32,60,5ee3dc4bdfe64a0b4411b8f4,11.90799999,1,0,80,11,1,79
,,,,,,,,,,,,,,,,,,,,,,,,,,,,,,,,,,,,,,,,,,,,,116,bolquer,Catalan,Sounds/cat_bolquer.mp3,2020-06-14_18h11.09.523,TranslationElicitation_spa,3.2.4,Win32,60,5ee3dc4bdfe64a0b4411b8f4,,1,0,80,11,1,79
,,,,,,,,,,,,,,,,,,,,,,,,,,,,,,,,,,,l,2.147000074,L,FALSE,,,,,,,151,lluna,Catalan,Sounds/cat_lluna.mp3,2020-06-14_18h11.09.523,TranslationElicitation_spa,3.2.4,Win32,60,5ee3dc4bdfe64a0b4411b8f4,,1,0,80,45,1,79
,,,,,,,,,,,,,,,,,,,,,,,,,,,,,,,,,,,u,2.345999956,LU,FALSE,,,,,,,151,lluna,Catalan,Sounds/cat_lluna.mp3,2020-06-14_18h11.09.523,TranslationElicitation_spa,3.2.4,Win32,60,5ee3dc4bdfe64a0b4411b8f4,,1,0,80,45,1,79
,,,,,,,,,,,,,,,,,,,,,,,,,,,,,,,,,,,n,2.529000044,LUN,FALSE,,,,,,,151,lluna,Catalan,Sounds/cat_lluna.mp3,2020-06-14_18h11.09.523,TranslationElicitation_spa,3.2.4,Win32,60,5ee3dc4bdfe64a0b4411b8f4,,1,0,80,45,1,79
,,,,,,,,,,,,,,,,,,,,,,,,,,,,,,,,,,,a,2.595000029,LUNA,FALSE,,,,,,,151,lluna,Catalan,Sounds/cat_lluna.mp3,2020-06-14_18h11.09.523,TranslationElicitation_spa,3.2.4,Win32,60,5ee3dc4bdfe64a0b4411b8f4,,1,0,80,45,1,79
,,,,,,,,,,,,,,,,,,,,,,,,,,,,,,,,,,,return,3.144999981,,FALSE,,,,,,,151,lluna,Catalan,Sounds/cat_lluna.mp3,2020-06-14_18h11.09.523,TranslationElicitation_spa,3.2.4,Win32,60,5ee3dc4bdfe64a0b4411b8f4,3.144999981,1,0,80,45,1,79
,,,,,,,,,,,,,,,,,,,,,,,,,,,,,,,,,,,,,,,,,,,,,151,lluna,Catalan,Sounds/cat_lluna.mp3,2020-06-14_18h11.09.523,TranslationElicitation_spa,3.2.4,Win32,60,5ee3dc4bdfe64a0b4411b8f4,,1,0,80,45,1,79
,,,,,,,,,,,,,,,,,,,,,,,,,,,,,,,,,,,s,1.912999868,S,FALSE,,,,,,,177,sol,Catalan,Sounds/cat_sol.mp3,2020-06-14_18h11.09.523,TranslationElicitation_spa,3.2.4,Win32,60,5ee3dc4bdfe64a0b4411b8f4,,1,0,80,69,1,79
,,,,,,,,,,,,,,,,,,,,,,,,,,,,,,,,,,,o,2.046999931,SO,FALSE,,,,,,,177,sol,Catalan,Sounds/cat_sol.mp3,2020-06-14_18h11.09.523,TranslationElicitation_spa,3.2.4,Win32,60,5ee3dc4bdfe64a0b4411b8f4,,1,0,80,69,1,79
,,,,,,,,,,,,,,,,,,,,,,,,,,,,,,,,,,,l,2.197000027,SOL,FALSE,,,,,,,177,sol,Catalan,Sounds/cat_sol.mp3,2020-06-14_18h11.09.523,TranslationElicitation_spa,3.2.4,Win32,60,5ee3dc4bdfe64a0b4411b8f4,,1,0,80,69,1,79
,,,,,,,,,,,,,,,,,,,,,,,,,,,,,,,,,,,return,2.698999882,,FALSE,,,,,,,177,sol,Catalan,Sounds/cat_sol.mp3,2020-06-14_18h11.09.523,TranslationElicitation_spa,3.2.4,Win32,60,5ee3dc4bdfe64a0b4411b8f4,2.698999882,1,0,80,69,1,79
,,,,,,,,,,,,,,,,,,,,,,,,,,,,,,,,,,,,,,,,,,,,,177,sol,Catalan,Sounds/cat_sol.mp3,2020-06-14_18h11.09.523,TranslationElicitation_spa,3.2.4,Win32,60,5ee3dc4bdfe64a0b4411b8f4,,1,0,80,69,1,79
,,,,,,,,,,,,,,,,,,,,,,,,,,,,,,,,,,,a,5.879999876,A,FALSE,,,,,,,187,vaixell,Catalan,Sounds/cat_vaixell.mp3,2020-06-14_18h11.09.523,TranslationElicitation_spa,3.2.4,Win32,60,5ee3dc4bdfe64a0b4411b8f4,,1,0,80,77,1,79
,,,,,,,,,,,,,,,,,,,,,,,,,,,,,,,,,,,backspace,6.463000059,,TRUE,,,,,,,187,vaixell,Catalan,Sounds/cat_vaixell.mp3,2020-06-14_18h11.09.523,TranslationElicitation_spa,3.2.4,Win32,60,5ee3dc4bdfe64a0b4411b8f4,,1,0,80,77,1,79
,,,,,,,,,,,,,,,,,,,,,,,,,,,,,,,,,,,b,6.829999924,B,TRUE,,,,,,,187,vaixell,Catalan,Sounds/cat_vaixell.mp3,2020-06-14_18h11.09.523,TranslationElicitation_spa,3.2.4,Win32,60,5ee3dc4bdfe64a0b4411b8f4,,1,0,80,77,1,79
,,,,,,,,,,,,,,,,,,,,,,,,,,,,,,,,,,,a,7.079999924,BA,TRUE,,,,,,,187,vaixell,Catalan,Sounds/cat_vaixell.mp3,2020-06-14_18h11.09.523,TranslationElicitation_spa,3.2.4,Win32,60,5ee3dc4bdfe64a0b4411b8f4,,1,0,80,77,1,79
,,,,,,,,,,,,,,,,,,,,,,,,,,,,,,,,,,,s,8.628999949,BAS,TRUE,,,,,,,187,vaixell,Catalan,Sounds/cat_vaixell.mp3,2020-06-14_18h11.09.523,TranslationElicitation_spa,3.2.4,Win32,60,5ee3dc4bdfe64a0b4411b8f4,,1,0,80,77,1,79
,,,,,,,,,,,,,,,,,,,,,,,,,,,,,,,,,,,e,9.496000051,BASE,TRUE,,,,,,,187,vaixell,Catalan,Sounds/cat_vaixell.mp3,2020-06-14_18h11.09.523,TranslationElicitation_spa,3.2.4,Win32,60,5ee3dc4bdfe64a0b4411b8f4,,1,0,80,77,1,79
,,,,,,,,,,,,,,,,,,,,,,,,,,,,,,,,,,,l,11.14599991,BASEL,TRUE,,,,,,,187,vaixell,Catalan,Sounds/cat_vaixell.mp3,2020-06-14_18h11.09.523,TranslationElicitation_spa,3.2.4,Win32,60,5ee3dc4bdfe64a0b4411b8f4,,1,0,80,77,1,79
,,,,,,,,,,,,,,,,,,,,,,,,,,,,,,,,,,,l,11.31200004,BASELL,TRUE,,,,,,,187,vaixell,Catalan,Sounds/cat_vaixell.mp3,2020-06-14_18h11.09.523,TranslationElicitation_spa,3.2.4,Win32,60,5ee3dc4bdfe64a0b4411b8f4,,1,0,80,77,1,79
,,,,,,,,,,,,,,,,,,,,,,,,,,,,,,,,,,,backspace,12.02900004,BASE,TRUE,,,,,,,187,vaixell,Catalan,Sounds/cat_vaixell.mp3,2020-06-14_18h11.09.523,TranslationElicitation_spa,3.2.4,Win32,60,5ee3dc4bdfe64a0b4411b8f4,,1,0,80,77,1,79
,,,,,,,,,,,,,,,,,,,,,,,,,,,,,,,,,,,backspace,12.27900004,BA,TRUE,,,,,,,187,vaixell,Catalan,Sounds/cat_vaixell.mp3,2020-06-14_18h11.09.523,TranslationElicitation_spa,3.2.4,Win32,60,5ee3dc4bdfe64a0b4411b8f4,,1,0,80,77,1,79
,,,,,,,,,,,,,,,,,,,,,,,,,,,,,,,,,,,l,15.44400001,BAL,TRUE,,,,,,,187,vaixell,Catalan,Sounds/cat_vaixell.mp3,2020-06-14_18h11.09.523,TranslationElicitation_spa,3.2.4,Win32,60,5ee3dc4bdfe64a0b4411b8f4,,1,0,80,77,1,79
,,,,,,,,,,,,,,,,,,,,,,,,,,,,,,,,,,,l,15.56099987,BALL,TRUE,,,,,,,187,vaixell,Catalan,Sounds/cat_vaixell.mp3,2020-06-14_18h11.09.523,TranslationElicitation_spa,3.2.4,Win32,60,5ee3dc4bdfe64a0b4411b8f4,,1,0,80,77,1,79
,,,,,,,,,,,,,,,,,,,,,,,,,,,,,,,,,,,e,15.62800002,BALLE,TRUE,,,,,,,187,vaixell,Catalan,Sounds/cat_vaixell.mp3,2020-06-14_18h11.09.523,TranslationElicitation_spa,3.2.4,Win32,60,5ee3dc4bdfe64a0b4411b8f4,,1,0,80,77,1,79
,,,,,,,,,,,,,,,,,,,,,,,,,,,,,,,,,,,a,15.91100001,BALLEA,TRUE,,,,,,,187,vaixell,Catalan,Sounds/cat_vaixell.mp3,2020-06-14_18h11.09.523,TranslationElicitation_spa,3.2.4,Win32,60,5ee3dc4bdfe64a0b4411b8f4,,1,0,80,77,1,79
,,,,,,,,,,,,,,,,,,,,,,,,,,,,,,,,,,,backspace,16.46099997,BALL,TRUE,,,,,,,187,vaixell,Catalan,Sounds/cat_vaixell.mp3,2020-06-14_18h11.09.523,TranslationElicitation_spa,3.2.4,Win32,60,5ee3dc4bdfe64a0b4411b8f4,,1,0,80,77,1,79
,,,,,,,,,,,,,,,,,,,,,,,,,,,,,,,,,,,n,16.77799988,BALLN,TRUE,,,,,,,187,vaixell,Catalan,Sounds/cat_vaixell.mp3,2020-06-14_18h11.09.523,TranslationElicitation_spa,3.2.4,Win32,60,5ee3dc4bdfe64a0b4411b8f4,,1,0,80,77,1,79
,,,,,,,,,,,,,,,,,,,,,,,,,,,,,,,,,,,a,16.86100006,BALLNA,TRUE,,,,,,,187,vaixell,Catalan,Sounds/cat_vaixell.mp3,2020-06-14_18h11.09.523,TranslationElicitation_spa,3.2.4,Win32,60,5ee3dc4bdfe64a0b4411b8f4,,1,0,80,77,1,79
,,,,,,,,,,,,,,,,,,,,,,,,,,,,,,,,,,,backspace,17.52799988,BALL,TRUE,,,,,,,187,vaixell,Catalan,Sounds/cat_vaixell.mp3,2020-06-14_18h11.09.523,TranslationElicitation_spa,3.2.4,Win32,60,5ee3dc4bdfe64a0b4411b8f4,,1,0,80,77,1,79
,,,,,,,,,,,,,,,,,,,,,,,,,,,,,,,,,,,backspace,17.65899992,BA,TRUE,,,,,,,187,vaixell,Catalan,Sounds/cat_vaixell.mp3,2020-06-14_18h11.09.523,TranslationElicitation_spa,3.2.4,Win32,60,5ee3dc4bdfe64a0b4411b8f4,,1,0,80,77,1,79
,,,,,,,,,,,,,,,,,,,,,,,,,,,,,,,,,,,e,17.875,BAE,TRUE,,,,,,,187,vaixell,Catalan,Sounds/cat_vaixell.mp3,2020-06-14_18h11.09.523,TranslationElicitation_spa,3.2.4,Win32,60,5ee3dc4bdfe64a0b4411b8f4,,1,0,80,77,1,79
,,,,,,,,,,,,,,,,,,,,,,,,,,,,,,,,,,,backspace,18.30999994,B,TRUE,,,,,,,187,vaixell,Catalan,Sounds/cat_vaixell.mp3,2020-06-14_18h11.09.523,TranslationElicitation_spa,3.2.4,Win32,60,5ee3dc4bdfe64a0b4411b8f4,,1,0,80,77,1,79
,,,,,,,,,,,,,,,,,,,,,,,,,,,,,,,,,,,l,18.55799985,BL,TRUE,,,,,,,187,vaixell,Catalan,Sounds/cat_vaixell.mp3,2020-06-14_18h11.09.523,TranslationElicitation_spa,3.2.4,Win32,60,5ee3dc4bdfe64a0b4411b8f4,,1,0,80,77,1,79
,,,,,,,,,,,,,,,,,,,,,,,,,,,,,,,,,,,l,18.69199991,BLL,TRUE,,,,,,,187,vaixell,Catalan,Sounds/cat_vaixell.mp3,2020-06-14_18h11.09.523,TranslationElicitation_spa,3.2.4,Win32,60,5ee3dc4bdfe64a0b4411b8f4,,1,0,80,77,1,79
,,,,,,,,,,,,,,,,,,,,,,,,,,,,,,,,,,,e,18.7249999,BLLE,TRUE,,,,,,,187,vaixell,Catalan,Sounds/cat_vaixell.mp3,2020-06-14_18h11.09.523,TranslationElicitation_spa,3.2.4,Win32,60,5ee3dc4bdfe64a0b4411b8f4,,1,0,80,77,1,79
,,,,,,,,,,,,,,,,,,,,,,,,,,,,,,,,,,,backspace,19.17499995,BL,TRUE,,,,,,,187,vaixell,Catalan,Sounds/cat_vaixell.mp3,2020-06-14_18h11.09.523,TranslationElicitation_spa,3.2.4,Win32,60,5ee3dc4bdfe64a0b4411b8f4,,1,0,80,77,1,79
,,,,,,,,,,,,,,,,,,,,,,,,,,,,,,,,,,,backspace,19.29099989,,TRUE,,,,,,,187,vaixell,Catalan,Sounds/cat_vaixell.mp3,2020-06-14_18h11.09.523,TranslationElicitation_spa,3.2.4,Win32,60,5ee3dc4bdfe64a0b4411b8f4,,1,0,80,77,1,79
,,,,,,,,,,,,,,,,,,,,,,,,,,,,,,,,,,,b,20.17499995,B,TRUE,,,,,,,187,vaixell,Catalan,Sounds/cat_vaixell.mp3,2020-06-14_18h11.09.523,TranslationElicitation_spa,3.2.4,Win32,60,5ee3dc4bdfe64a0b4411b8f4,,1,0,80,77,1,79
,,,,,,,,,,,,,,,,,,,,,,,,,,,,,,,,,,,a,20.2579999,BA,TRUE,,,,,,,187,vaixell,Catalan,Sounds/cat_vaixell.mp3,2020-06-14_18h11.09.523,TranslationElicitation_spa,3.2.4,Win32,60,5ee3dc4bdfe64a0b4411b8f4,,1,0,80,77,1,79
,,,,,,,,,,,,,,,,,,,,,,,,,,,,,,,,,,,l,20.4749999,BAL,TRUE,,,,,,,187,vaixell,Catalan,Sounds/cat_vaixell.mp3,2020-06-14_18h11.09.523,TranslationElicitation_spa,3.2.4,Win32,60,5ee3dc4bdfe64a0b4411b8f4,,1,0,80,77,1,79
,,,,,,,,,,,,,,,,,,,,,,,,,,,,,,,,,,,l,20.60800004,BALL,TRUE,,,,,,,187,vaixell,Catalan,Sounds/cat_vaixell.mp3,2020-06-14_18h11.09.523,TranslationElicitation_spa,3.2.4,Win32,60,5ee3dc4bdfe64a0b4411b8f4,,1,0,80,77,1,79
,,,,,,,,,,,,,,,,,,,,,,,,,,,,,,,,,,,e,20.65799999,BALLE,TRUE,,,,,,,187,vaixell,Catalan,Sounds/cat_vaixell.mp3,2020-06-14_18h11.09.523,TranslationElicitation_spa,3.2.4,Win32,60,5ee3dc4bdfe64a0b4411b8f4,,1,0,80,77,1,79
,,,,,,,,,,,,,,,,,,,,,,,,,,,,,,,,,,,n,20.84100008,BALLEN,TRUE,,,,,,,187,vaixell,Catalan,Sounds/cat_vaixell.mp3,2020-06-14_18h11.09.523,TranslationElicitation_spa,3.2.4,Win32,60,5ee3dc4bdfe64a0b4411b8f4,,1,0,80,77,1,79
,,,,,,,,,,,,,,,,,,,,,,,,,,,,,,,,,,,a,20.9749999,BALLENA,TRUE,,,,,,,187,vaixell,Catalan,Sounds/cat_vaixell.mp3,2020-06-14_18h11.09.523,TranslationElicitation_spa,3.2.4,Win32,60,5ee3dc4bdfe64a0b4411b8f4,,1,0,80,77,1,79
,,,,,,,,,,,,,,,,,,,,,,,,,,,,,,,,,,,return,21.89100003,,TRUE,,,,,,,187,vaixell,Catalan,Sounds/cat_vaixell.mp3,2020-06-14_18h11.09.523,TranslationElicitation_spa,3.2.4,Win32,60,5ee3dc4bdfe64a0b4411b8f4,21.89100003,1,0,80,77,1,79
,,,,,,,,,,,,,,,,,,,,,,,,,,,,,,,,,,,,,,,,,,,,,187,vaixell,Catalan,Sounds/cat_vaixell.mp3,2020-06-14_18h11.09.523,TranslationElicitation_spa,3.2.4,Win32,60,5ee3dc4bdfe64a0b4411b8f4,,1,0,80,77,1,79
,,,,,,,,,,,,,,,,,,,,,,,,,,,,,,,,,,,l,1.944000006,L,FALSE,,,,,,,149,llibre,Catalan,Sounds/cat_llibre.mp3,2020-06-14_18h11.09.523,TranslationElicitation_spa,3.2.4,Win32,60,5ee3dc4bdfe64a0b4411b8f4,,1,0,80,43,1,79
,,,,,,,,,,,,,,,,,,,,,,,,,,,,,,,,,,,i,2.427000046,LI,FALSE,,,,,,,149,llibre,Catalan,Sounds/cat_llibre.mp3,2020-06-14_18h11.09.523,TranslationElicitation_spa,3.2.4,Win32,60,5ee3dc4bdfe64a0b4411b8f4,,1,0,80,43,1,79
,,,,,,,,,,,,,,,,,,,,,,,,,,,,,,,,,,,b,3.261000156,LIB,FALSE,,,,,,,149,llibre,Catalan,Sounds/cat_llibre.mp3,2020-06-14_18h11.09.523,TranslationElicitation_spa,3.2.4,Win32,60,5ee3dc4bdfe64a0b4411b8f4,,1,0,80,43,1,79
,,,,,,,,,,,,,,,,,,,,,,,,,,,,,,,,,,,r,3.377000093,LIBR,FALSE,,,,,,,149,llibre,Catalan,Sounds/cat_llibre.mp3,2020-06-14_18h11.09.523,TranslationElicitation_spa,3.2.4,Win32,60,5ee3dc4bdfe64a0b4411b8f4,,1,0,80,43,1,79
,,,,,,,,,,,,,,,,,,,,,,,,,,,,,,,,,,,e,3.559999943,LIBRE,FALSE,,,,,,,149,llibre,Catalan,Sounds/cat_llibre.mp3,2020-06-14_18h11.09.523,TranslationElicitation_spa,3.2.4,Win32,60,5ee3dc4bdfe64a0b4411b8f4,,1,0,80,43,1,79
,,,,,,,,,,,,,,,,,,,,,,,,,,,,,,,,,,,return,4.478000164,,FALSE,,,,,,,149,llibre,Catalan,Sounds/cat_llibre.mp3,2020-06-14_18h11.09.523,TranslationElicitation_spa,3.2.4,Win32,60,5ee3dc4bdfe64a0b4411b8f4,4.478000164,1,0,80,43,1,79
,,,,,,,,,,,,,,,,,,,,,,,,,,,,,,,,,,,,,,,,,,,,,149,llibre,Catalan,Sounds/cat_llibre.mp3,2020-06-14_18h11.09.523,TranslationElicitation_spa,3.2.4,Win32,60,5ee3dc4bdfe64a0b4411b8f4,,1,0,80,43,1,79
,,,,,,,,,,,,,,,,,,,,,,,,,,,,,,,,,,,p,3.31400013,P,FALSE,,,,,,,166,peu,Catalan,Sounds/cat_peu.mp3,2020-06-14_18h11.09.523,TranslationElicitation_spa,3.2.4,Win32,60,5ee3dc4bdfe64a0b4411b8f4,,1,0,80,59,1,79
,,,,,,,,,,,,,,,,,,,,,,,,,,,,,,,,,,,e,3.397000074,PE,FALSE,,,,,,,166,peu,Catalan,Sounds/cat_peu.mp3,2020-06-14_18h11.09.523,TranslationElicitation_spa,3.2.4,Win32,60,5ee3dc4bdfe64a0b4411b8f4,,1,0,80,59,1,79
,,,,,,,,,,,,,,,,,,,,,,,,,,,,,,,,,,,o,3.463999987,PEO,FALSE,,,,,,,166,peu,Catalan,Sounds/cat_peu.mp3,2020-06-14_18h11.09.523,TranslationElicitation_spa,3.2.4,Win32,60,5ee3dc4bdfe64a0b4411b8f4,,1,0,80,59,1,79
,,,,,,,,,,,,,,,,,,,,,,,,,,,,,,,,,,,return,4.196000099,,FALSE,,,,,,,166,peu,Catalan,Sounds/cat_peu.mp3,2020-06-14_18h11.09.523,TranslationElicitation_spa,3.2.4,Win32,60,5ee3dc4bdfe64a0b4411b8f4,4.196000099,1,0,80,59,1,79
,,,,,,,,,,,,,,,,,,,,,,,,,,,,,,,,,,,,,,,,,,,,,166,peu,Catalan,Sounds/cat_peu.mp3,2020-06-14_18h11.09.523,TranslationElicitation_spa,3.2.4,Win32,60,5ee3dc4bdfe64a0b4411b8f4,,1,0,80,59,1,79
,,,,,,,,,,,,,,,,,,,,,,,,,,,,,,,,,,,t,1.648999929,T,FALSE,,,,,,,180,tisores,Catalan,Sounds/cat_tisores.mp3,2020-06-14_18h11.09.523,TranslationElicitation_spa,3.2.4,Win32,60,5ee3dc4bdfe64a0b4411b8f4,,1,0,80,71,1,79
,,,,,,,,,,,,,,,,,,,,,,,,,,,,,,,,,,,i,1.747999907,TI,FALSE,,,,,,,180,tisores,Catalan,Sounds/cat_tisores.mp3,2020-06-14_18h11.09.523,TranslationElicitation_spa,3.2.4,Win32,60,5ee3dc4bdfe64a0b4411b8f4,,1,0,80,71,1,79
,,,,,,,,,,,,,,,,,,,,,,,,,,,,,,,,,,,j,2.480999947,TIJ,FALSE,,,,,,,180,tisores,Catalan,Sounds/cat_tisores.mp3,2020-06-14_18h11.09.523,TranslationElicitation_spa,3.2.4,Win32,60,5ee3dc4bdfe64a0b4411b8f4,,1,0,80,71,1,79
,,,,,,,,,,,,,,,,,,,,,,,,,,,,,,,,,,,e,2.548000097,TIJE,FALSE,,,,,,,180,tisores,Catalan,Sounds/cat_tisores.mp3,2020-06-14_18h11.09.523,TranslationElicitation_spa,3.2.4,Win32,60,5ee3dc4bdfe64a0b4411b8f4,,1,0,80,71,1,79
,,,,,,,,,,,,,,,,,,,,,,,,,,,,,,,,,,,r,2.73300004,TIJER,FALSE,,,,,,,180,tisores,Catalan,Sounds/cat_tisores.mp3,2020-06-14_18h11.09.523,TranslationElicitation_spa,3.2.4,Win32,60,5ee3dc4bdfe64a0b4411b8f4,,1,0,80,71,1,79
,,,,,,,,,,,,,,,,,,,,,,,,,,,,,,,,,,,a,3.030999899,TIJERA,FALSE,,,,,,,180,tisores,Catalan,Sounds/cat_tisores.mp3,2020-06-14_18h11.09.523,TranslationElicitation_spa,3.2.4,Win32,60,5ee3dc4bdfe64a0b4411b8f4,,1,0,80,71,1,79
,,,,,,,,,,,,,,,,,,,,,,,,,,,,,,,,,,,s,3.230999947,TIJERAS,FALSE,,,,,,,180,tisores,Catalan,Sounds/cat_tisores.mp3,2020-06-14_18h11.09.523,TranslationElicitation_spa,3.2.4,Win32,60,5ee3dc4bdfe64a0b4411b8f4,,1,0,80,71,1,79
,,,,,,,,,,,,,,,,,,,,,,,,,,,,,,,,,,,return,4.048000097,,FALSE,,,,,,,180,tisores,Catalan,Sounds/cat_tisores.mp3,2020-06-14_18h11.09.523,TranslationElicitation_spa,3.2.4,Win32,60,5ee3dc4bdfe64a0b4411b8f4,4.048000097,1,0,80,71,1,79
,,,,,,,,,,,,,,,,,,,,,,,,,,,,,,,,,,,,,,,,,,,,,180,tisores,Catalan,Sounds/cat_tisores.mp3,2020-06-14_18h11.09.523,TranslationElicitation_spa,3.2.4,Win32,60,5ee3dc4bdfe64a0b4411b8f4,,1,0,80,71,1,79
,,,,,,,,,,,,,,,,,,,,,,,,,,,,,,,,,,,h,1.980999947,H,FALSE,,,,,,,161,ovella,Catalan,Sounds/cat_ovella.mp3,2020-06-14_18h11.09.523,TranslationElicitation_spa,3.2.4,Win32,60,5ee3dc4bdfe64a0b4411b8f4,,1,0,80,54,1,79
,,,,,,,,,,,,,,,,,,,,,,,,,,,,,,,,,,,u,2.148000002,HU,FALSE,,,,,,,161,ovella,Catalan,Sounds/cat_ovella.mp3,2020-06-14_18h11.09.523,TranslationElicitation_spa,3.2.4,Win32,60,5ee3dc4bdfe64a0b4411b8f4,,1,0,80,54,1,79
,,,,,,,,,,,,,,,,,,,,,,,,,,,,,,,,,,,e,2.247999907,HUE,FALSE,,,,,,,161,ovella,Catalan,Sounds/cat_ovella.mp3,2020-06-14_18h11.09.523,TranslationElicitation_spa,3.2.4,Win32,60,5ee3dc4bdfe64a0b4411b8f4,,1,0,80,54,1,79
,,,,,,,,,,,,,,,,,,,,,,,,,,,,,,,,,,,l,2.713999987,HUEL,FALSE,,,,,,,161,ovella,Catalan,Sounds/cat_ovella.mp3,2020-06-14_18h11.09.523,TranslationElicitation_spa,3.2.4,Win32,60,5ee3dc4bdfe64a0b4411b8f4,,1,0,80,54,1,79
,,,,,,,,,,,,,,,,,,,,,,,,,,,,,,,,,,,l,2.813999891,HUELL,FALSE,,,,,,,161,ovella,Catalan,Sounds/cat_ovella.mp3,2020-06-14_18h11.09.523,TranslationElicitation_spa,3.2.4,Win32,60,5ee3dc4bdfe64a0b4411b8f4,,1,0,80,54,1,79
,,,,,,,,,,,,,,,,,,,,,,,,,,,,,,,,,,,a,2.881000042,HUELLA,FALSE,,,,,,,161,ovella,Catalan,Sounds/cat_ovella.mp3,2020-06-14_18h11.09.523,TranslationElicitation_spa,3.2.4,Win32,60,5ee3dc4bdfe64a0b4411b8f4,,1,0,80,54,1,79
,,,,,,,,,,,,,,,,,,,,,,,,,,,,,,,,,,,return,3.530999899,,FALSE,,,,,,,161,ovella,Catalan,Sounds/cat_ovella.mp3,2020-06-14_18h11.09.523,TranslationElicitation_spa,3.2.4,Win32,60,5ee3dc4bdfe64a0b4411b8f4,3.530999899,1,0,80,54,1,79
,,,,,,,,,,,,,,,,,,,,,,,,,,,,,,,,,,,,,,,,,,,,,161,ovella,Catalan,Sounds/cat_ovella.mp3,2020-06-14_18h11.09.523,TranslationElicitation_spa,3.2.4,Win32,60,5ee3dc4bdfe64a0b4411b8f4,,1,0,80,54,1,79
,,,,,,,,,,,,,,,,,,,,,,,,,,,,,,,,,,,c,2.280999899,C,FALSE,,,,,,,125,colom,Catalan,Sounds/cat_colom.mp3,2020-06-14_18h11.09.523,TranslationElicitation_spa,3.2.4,Win32,60,5ee3dc4bdfe64a0b4411b8f4,,1,0,80,20,1,79
,,,,,,,,,,,,,,,,,,,,,,,,,,,,,,,,,,,o,2.832000017,CO,FALSE,,,,,,,125,colom,Catalan,Sounds/cat_colom.mp3,2020-06-14_18h11.09.523,TranslationElicitation_spa,3.2.4,Win32,60,5ee3dc4bdfe64a0b4411b8f4,,1,0,80,20,1,79
,,,,,,,,,,,,,,,,,,,,,,,,,,,,,,,,,,,l,3.030999899,COL,FALSE,,,,,,,125,colom,Catalan,Sounds/cat_colom.mp3,2020-06-14_18h11.09.523,TranslationElicitation_spa,3.2.4,Win32,60,5ee3dc4bdfe64a0b4411b8f4,,1,0,80,20,1,79
,,,,,,,,,,,,,,,,,,,,,,,,,,,,,,,,,,,apostrophe,3.263999939,COL,FALSE,,,,,,,125,colom,Catalan,Sounds/cat_colom.mp3,2020-06-14_18h11.09.523,TranslationElicitation_spa,3.2.4,Win32,60,5ee3dc4bdfe64a0b4411b8f4,,1,0,80,20,1,79
,,,,,,,,,,,,,,,,,,,,,,,,,,,,,,,,,,,o,3.530999899,COLÓ,FALSE,,,,,,,125,colom,Catalan,Sounds/cat_colom.mp3,2020-06-14_18h11.09.523,TranslationElicitation_spa,3.2.4,Win32,60,5ee3dc4bdfe64a0b4411b8f4,,1,0,80,20,1,79
,,,,,,,,,,,,,,,,,,,,,,,,,,,,,,,,,,,n,3.713999987,COLÓN,FALSE,,,,,,,125,colom,Catalan,Sounds/cat_colom.mp3,2020-06-14_18h11.09.523,TranslationElicitation_spa,3.2.4,Win32,60,5ee3dc4bdfe64a0b4411b8f4,,1,0,80,20,1,79
,,,,,,,,,,,,,,,,,,,,,,,,,,,,,,,,,,,return,4.482999802,,FALSE,,,,,,,125,colom,Catalan,Sounds/cat_colom.mp3,2020-06-14_18h11.09.523,TranslationElicitation_spa,3.2.4,Win32,60,5ee3dc4bdfe64a0b4411b8f4,4.482999802,1,0,80,20,1,79
,,,,,,,,,,,,,,,,,,,,,,,,,,,,,,,,,,,,,,,,,,,,,125,colom,Catalan,Sounds/cat_colom.mp3,2020-06-14_18h11.09.523,TranslationElicitation_spa,3.2.4,Win32,60,5ee3dc4bdfe64a0b4411b8f4,,1,0,80,20,1,79
,,,,,,,,,,,,,,,,,,,,,,,,,,,,,,,,,,,t,2.032000065,T,FALSE,,,,,,,182,tomaquet,Catalan,Sounds/cat_tomaquet.mp3,2020-06-14_18h11.09.523,TranslationElicitation_spa,3.2.4,Win32,60,5ee3dc4bdfe64a0b4411b8f4,,1,0,80,73,1,79
,,,,,,,,,,,,,,,,,,,,,,,,,,,,,,,,,,,o,2.11500001,TO,FALSE,,,,,,,182,tomaquet,Catalan,Sounds/cat_tomaquet.mp3,2020-06-14_18h11.09.523,TranslationElicitation_spa,3.2.4,Win32,60,5ee3dc4bdfe64a0b4411b8f4,,1,0,80,73,1,79
,,,,,,,,,,,,,,,,,,,,,,,,,,,,,,,,,,,m,2.265000105,TOM,FALSE,,,,,,,182,tomaquet,Catalan,Sounds/cat_tomaquet.mp3,2020-06-14_18h11.09.523,TranslationElicitation_spa,3.2.4,Win32,60,5ee3dc4bdfe64a0b4411b8f4,,1,0,80,73,1,79
,,,,,,,,,,,,,,,,,,,,,,,,,,,,,,,,,,,a,2.36500001,TOMA,FALSE,,,,,,,182,tomaquet,Catalan,Sounds/cat_tomaquet.mp3,2020-06-14_18h11.09.523,TranslationElicitation_spa,3.2.4,Win32,60,5ee3dc4bdfe64a0b4411b8f4,,1,0,80,73,1,79
,,,,,,,,,,,,,,,,,,,,,,,,,,,,,,,,,,,t,2.765000105,TOMAT,FALSE,,,,,,,182,tomaquet,Catalan,Sounds/cat_tomaquet.mp3,2020-06-14_18h11.09.523,TranslationElicitation_spa,3.2.4,Win32,60,5ee3dc4bdfe64a0b4411b8f4,,1,0,80,73,1,79
,,,,,,,,,,,,,,,,,,,,,,,,,,,,,,,,,,,e,2.964000225,TOMATE,FALSE,,,,,,,182,tomaquet,Catalan,Sounds/cat_tomaquet.mp3,2020-06-14_18h11.09.523,TranslationElicitation_spa,3.2.4,Win32,60,5ee3dc4bdfe64a0b4411b8f4,,1,0,80,73,1,79
,,,,,,,,,,,,,,,,,,,,,,,,,,,,,,,,,,,return,5.514000177,,FALSE,,,,,,,182,tomaquet,Catalan,Sounds/cat_tomaquet.mp3,2020-06-14_18h11.09.523,TranslationElicitation_spa,3.2.4,Win32,60,5ee3dc4bdfe64a0b4411b8f4,5.514000177,1,0,80,73,1,79
,,,,,,,,,,,,,,,,,,,,,,,,,,,,,,,,,,,,,,,,,,,,,182,tomaquet,Catalan,Sounds/cat_tomaquet.mp3,2020-06-14_18h11.09.523,TranslationElicitation_spa,3.2.4,Win32,60,5ee3dc4bdfe64a0b4411b8f4,,1,0,80,73,1,79
,,,,,,,,,,,,,,,,,,,,,,,,,,,,,,,,,,,g,1.595000029,G,FALSE,,,,,,,138,galeta,Catalan,Sounds/cat_galeta.mp3,2020-06-14_18h11.09.523,TranslationElicitation_spa,3.2.4,Win32,60,5ee3dc4bdfe64a0b4411b8f4,,1,0,80,33,1,79
,,,,,,,,,,,,,,,,,,,,,,,,,,,,,,,,,,,a,1.661999941,GA,FALSE,,,,,,,138,galeta,Catalan,Sounds/cat_galeta.mp3,2020-06-14_18h11.09.523,TranslationElicitation_spa,3.2.4,Win32,60,5ee3dc4bdfe64a0b4411b8f4,,1,0,80,33,1,79
,,,,,,,,,,,,,,,,,,,,,,,,,,,,,,,,,,,l,2.295000076,GAL,FALSE,,,,,,,138,galeta,Catalan,Sounds/cat_galeta.mp3,2020-06-14_18h11.09.523,TranslationElicitation_spa,3.2.4,Win32,60,5ee3dc4bdfe64a0b4411b8f4,,1,0,80,33,1,79
,,,,,,,,,,,,,,,,,,,,,,,,,,,,,,,,,,,e,2.477999926,GALE,FALSE,,,,,,,138,galeta,Catalan,Sounds/cat_galeta.mp3,2020-06-14_18h11.09.523,TranslationElicitation_spa,3.2.4,Win32,60,5ee3dc4bdfe64a0b4411b8f4,,1,0,80,33,1,79
,,,,,,,,,,,,,,,,,,,,,,,,,,,,,,,,,,,t,2.677999973,GALET,FALSE,,,,,,,138,galeta,Catalan,Sounds/cat_galeta.mp3,2020-06-14_18h11.09.523,TranslationElicitation_spa,3.2.4,Win32,60,5ee3dc4bdfe64a0b4411b8f4,,1,0,80,33,1,79
,,,,,,,,,,,,,,,,,,,,,,,,,,,,,,,,,,,a,2.744999886,GALETA,FALSE,,,,,,,138,galeta,Catalan,Sounds/cat_galeta.mp3,2020-06-14_18h11.09.523,TranslationElicitation_spa,3.2.4,Win32,60,5ee3dc4bdfe64a0b4411b8f4,,1,0,80,33,1,79
,,,,,,,,,,,,,,,,,,,,,,,,,,,,,,,,,,,backspace,3.095999956,GALE,TRUE,,,,,,,138,galeta,Catalan,Sounds/cat_galeta.mp3,2020-06-14_18h11.09.523,TranslationElicitation_spa,3.2.4,Win32,60,5ee3dc4bdfe64a0b4411b8f4,,1,0,80,33,1,79
,,,,,,,,,,,,,,,,,,,,,,,,,,,,,,,,,,,backspace,3.25,GA,TRUE,,,,,,,138,galeta,Catalan,Sounds/cat_galeta.mp3,2020-06-14_18h11.09.523,TranslationElicitation_spa,3.2.4,Win32,60,5ee3dc4bdfe64a0b4411b8f4,,1,0,80,33,1,79
,,,,,,,,,,,,,,,,,,,,,,,,,,,,,,,,,,,l,4.127000093,GAL,TRUE,,,,,,,138,galeta,Catalan,Sounds/cat_galeta.mp3,2020-06-14_18h11.09.523,TranslationElicitation_spa,3.2.4,Win32,60,5ee3dc4bdfe64a0b4411b8f4,,1,0,80,33,1,79
,,,,,,,,,,,,,,,,,,,,,,,,,,,,,,,,,,,l,4.243999958,GALL,TRUE,,,,,,,138,galeta,Catalan,Sounds/cat_galeta.mp3,2020-06-14_18h11.09.523,TranslationElicitation_spa,3.2.4,Win32,60,5ee3dc4bdfe64a0b4411b8f4,,1,0,80,33,1,79
,,,,,,,,,,,,,,,,,,,,,,,,,,,,,,,,,,,e,4.309999943,GALLE,TRUE,,,,,,,138,galeta,Catalan,Sounds/cat_galeta.mp3,2020-06-14_18h11.09.523,TranslationElicitation_spa,3.2.4,Win32,60,5ee3dc4bdfe64a0b4411b8f4,,1,0,80,33,1,79
,,,,,,,,,,,,,,,,,,,,,,,,,,,,,,,,,,,t,4.826999903,GALLET,TRUE,,,,,,,138,galeta,Catalan,Sounds/cat_galeta.mp3,2020-06-14_18h11.09.523,TranslationElicitation_spa,3.2.4,Win32,60,5ee3dc4bdfe64a0b4411b8f4,,1,0,80,33,1,79
,,,,,,,,,,,,,,,,,,,,,,,,,,,,,,,,,,,a,4.894000053,GALLETA,TRUE,,,,,,,138,galeta,Catalan,Sounds/cat_galeta.mp3,2020-06-14_18h11.09.523,TranslationElicitation_spa,3.2.4,Win32,60,5ee3dc4bdfe64a0b4411b8f4,,1,0,80,33,1,79
,,,,,,,,,,,,,,,,,,,,,,,,,,,,,,,,,,,return,5.77699995,,TRUE,,,,,,,138,galeta,Catalan,Sounds/cat_galeta.mp3,2020-06-14_18h11.09.523,TranslationElicitation_spa,3.2.4,Win32,60,5ee3dc4bdfe64a0b4411b8f4,5.77699995,1,0,80,33,1,79
,,,,,,,,,,,,,,,,,,,,,,,,,,,,,,,,,,,,,,,,,,,,,138,galeta,Catalan,Sounds/cat_galeta.mp3,2020-06-14_18h11.09.523,TranslationElicitation_spa,3.2.4,Win32,60,5ee3dc4bdfe64a0b4411b8f4,,1,0,80,33,1,79
,,,,,,,,,,,,,,,,,,,,,,,,,,,,,,,,,,,b,2.110999823,B,FALSE,,,,,,,117,boto,Catalan,Sounds/cat_boto.mp3,2020-06-14_18h11.09.523,TranslationElicitation_spa,3.2.4,Win32,60,5ee3dc4bdfe64a0b4411b8f4,,1,0,80,12,1,79
,,,,,,,,,,,,,,,,,,,,,,,,,,,,,,,,,,,o,2.52699995,BO,FALSE,,,,,,,117,boto,Catalan,Sounds/cat_boto.mp3,2020-06-14_18h11.09.523,TranslationElicitation_spa,3.2.4,Win32,60,5ee3dc4bdfe64a0b4411b8f4,,1,0,80,12,1,79
,,,,,,,,,,,,,,,,,,,,,,,,,,,,,,,,,,,t,2.643999815,BOT,FALSE,,,,,,,117,boto,Catalan,Sounds/cat_boto.mp3,2020-06-14_18h11.09.523,TranslationElicitation_spa,3.2.4,Win32,60,5ee3dc4bdfe64a0b4411b8f4,,1,0,80,12,1,79
,,,,,,,,,,,,,,,,,,,,,,,,,,,,,,,,,,,apostrophe,3.04399991,BOT,FALSE,,,,,,,117,boto,Catalan,Sounds/cat_boto.mp3,2020-06-14_18h11.09.523,TranslationElicitation_spa,3.2.4,Win32,60,5ee3dc4bdfe64a0b4411b8f4,,1,0,80,12,1,79
,,,,,,,,,,,,,,,,,,,,,,,,,,,,,,,,,,,o,3.493999958,BOTÓ,FALSE,,,,,,,117,boto,Catalan,Sounds/cat_boto.mp3,2020-06-14_18h11.09.523,TranslationElicitation_spa,3.2.4,Win32,60,5ee3dc4bdfe64a0b4411b8f4,,1,0,80,12,1,79
,,,,,,,,,,,,,,,,,,,,,,,,,,,,,,,,,,,n,3.643999815,BOTÓN,FALSE,,,,,,,117,boto,Catalan,Sounds/cat_boto.mp3,2020-06-14_18h11.09.523,TranslationElicitation_spa,3.2.4,Win32,60,5ee3dc4bdfe64a0b4411b8f4,,1,0,80,12,1,79
,,,,,,,,,,,,,,,,,,,,,,,,,,,,,,,,,,,return,4.194000006,,FALSE,,,,,,,117,boto,Catalan,Sounds/cat_boto.mp3,2020-06-14_18h11.09.523,TranslationElicitation_spa,3.2.4,Win32,60,5ee3dc4bdfe64a0b4411b8f4,4.194000006,1,0,80,12,1,79
,,,,,,,,,,,,,,,,,,,,,,,,,,,,,,,,,,,,,,,,,,,,,117,boto,Catalan,Sounds/cat_boto.mp3,2020-06-14_18h11.09.523,TranslationElicitation_spa,3.2.4,Win32,60,5ee3dc4bdfe64a0b4411b8f4,,1,0,80,12,1,79
,,,,,,,,,,,,,,,,,,,,,,,,,,,,,,,,,,,t,1.61500001,T,FALSE,,,,,,,181,tobogan,Catalan,Sounds/cat_tobogan.mp3,2020-06-14_18h11.09.523,TranslationElicitation_spa,3.2.4,Win32,60,5ee3dc4bdfe64a0b4411b8f4,,1,0,80,72,1,79
,,,,,,,,,,,,,,,,,,,,,,,,,,,,,,,,,,,o,1.681999922,TO,FALSE,,,,,,,181,tobogan,Catalan,Sounds/cat_tobogan.mp3,2020-06-14_18h11.09.523,TranslationElicitation_spa,3.2.4,Win32,60,5ee3dc4bdfe64a0b4411b8f4,,1,0,80,72,1,79
,,,,,,,,,,,,,,,,,,,,,,,,,,,,,,,,,,,b,1.834000111,TOB,FALSE,,,,,,,181,tobogan,Catalan,Sounds/cat_tobogan.mp3,2020-06-14_18h11.09.523,TranslationElicitation_spa,3.2.4,Win32,60,5ee3dc4bdfe64a0b4411b8f4,,1,0,80,72,1,79
,,,,,,,,,,,,,,,,,,,,,,,,,,,,,,,,,,,o,1.917000055,TOBO,FALSE,,,,,,,181,tobogan,Catalan,Sounds/cat_tobogan.mp3,2020-06-14_18h11.09.523,TranslationElicitation_spa,3.2.4,Win32,60,5ee3dc4bdfe64a0b4411b8f4,,1,0,80,72,1,79
,,,,,,,,,,,,,,,,,,,,,,,,,,,,,,,,,,,g,2.414999962,TOBOG,FALSE,,,,,,,181,tobogan,Catalan,Sounds/cat_tobogan.mp3,2020-06-14_18h11.09.523,TranslationElicitation_spa,3.2.4,Win32,60,5ee3dc4bdfe64a0b4411b8f4,,1,0,80,72,1,79
,,,,,,,,,,,,,,,,,,,,,,,,,,,,,,,,,,,apostrophe,2.749000072,TOBOG,FALSE,,,,,,,181,tobogan,Catalan,Sounds/cat_tobogan.mp3,2020-06-14_18h11.09.523,TranslationElicitation_spa,3.2.4,Win32,60,5ee3dc4bdfe64a0b4411b8f4,,1,0,80,72,1,79
,,,,,,,,,,,,,,,,,,,,,,,,,,,,,,,,,,,a,2.898000002,TOBOGÁ,FALSE,,,,,,,181,tobogan,Catalan,Sounds/cat_tobogan.mp3,2020-06-14_18h11.09.523,TranslationElicitation_spa,3.2.4,Win32,60,5ee3dc4bdfe64a0b4411b8f4,,1,0,80,72,1,79
,,,,,,,,,,,,,,,,,,,,,,,,,,,,,,,,,,,n,3.015000105,TOBOGÁN,FALSE,,,,,,,181,tobogan,Catalan,Sounds/cat_tobogan.mp3,2020-06-14_18h11.09.523,TranslationElicitation_spa,3.2.4,Win32,60,5ee3dc4bdfe64a0b4411b8f4,,1,0,80,72,1,79
,,,,,,,,,,,,,,,,,,,,,,,,,,,,,,,,,,,return,3.513999939,,FALSE,,,,,,,181,tobogan,Catalan,Sounds/cat_tobogan.mp3,2020-06-14_18h11.09.523,TranslationElicitation_spa,3.2.4,Win32,60,5ee3dc4bdfe64a0b4411b8f4,3.513999939,1,0,80,72,1,79
,,,,,,,,,,,,,,,,,,,,,,,,,,,,,,,,,,,,,,,,,,,,,181,tobogan,Catalan,Sounds/cat_tobogan.mp3,2020-06-14_18h11.09.523,TranslationElicitation_spa,3.2.4,Win32,60,5ee3dc4bdfe64a0b4411b8f4,,1,0,80,72,1,79
,,,,,,,,,,,,,,,,,,,,,,,,,,,,,,,,,,,p,5.713999987,P,FALSE,,,,,,,171,pollastre,Catalan,Sounds/cat_pollastre.mp3,2020-06-14_18h11.09.523,TranslationElicitation_spa,3.2.4,Win32,60,5ee3dc4bdfe64a0b4411b8f4,,1,0,80,63,1,79
,,,,,,,,,,,,,,,,,,,,,,,,,,,,,,,,,,,o,6.0849998,PO,FALSE,,,,,,,171,pollastre,Catalan,Sounds/cat_pollastre.mp3,2020-06-14_18h11.09.523,TranslationElicitation_spa,3.2.4,Win32,60,5ee3dc4bdfe64a0b4411b8f4,,1,0,80,63,1,79
,,,,,,,,,,,,,,,,,,,,,,,,,,,,,,,,,,,y,6.5,POY,FALSE,,,,,,,171,pollastre,Catalan,Sounds/cat_pollastre.mp3,2020-06-14_18h11.09.523,TranslationElicitation_spa,3.2.4,Win32,60,5ee3dc4bdfe64a0b4411b8f4,,1,0,80,63,1,79
,,,,,,,,,,,,,,,,,,,,,,,,,,,,,,,,,,,e,6.717000008,POYE,FALSE,,,,,,,171,pollastre,Catalan,Sounds/cat_pollastre.mp3,2020-06-14_18h11.09.523,TranslationElicitation_spa,3.2.4,Win32,60,5ee3dc4bdfe64a0b4411b8f4,,1,0,80,63,1,79
,,,,,,,,,,,,,,,,,,,,,,,,,,,,,,,,,,,t,6.78399992,POYET,FALSE,,,,,,,171,pollastre,Catalan,Sounds/cat_pollastre.mp3,2020-06-14_18h11.09.523,TranslationElicitation_spa,3.2.4,Win32,60,5ee3dc4bdfe64a0b4411b8f4,,1,0,80,63,1,79
,,,,,,,,,,,,,,,,,,,,,,,,,,,,,,,,,,,e,7.199999809,POYETE,FALSE,,,,,,,171,pollastre,Catalan,Sounds/cat_pollastre.mp3,2020-06-14_18h11.09.523,TranslationElicitation_spa,3.2.4,Win32,60,5ee3dc4bdfe64a0b4411b8f4,,1,0,80,63,1,79
,,,,,,,,,,,,,,,,,,,,,,,,,,,,,,,,,,,return,9.782999992,,FALSE,,,,,,,171,pollastre,Catalan,Sounds/cat_pollastre.mp3,2020-06-14_18h11.09.523,TranslationElicitation_spa,3.2.4,Win32,60,5ee3dc4bdfe64a0b4411b8f4,9.782999992,1,0,80,63,1,79
,,,,,,,,,,,,,,,,,,,,,,,,,,,,,,,,,,,,,,,,,,,,,171,pollastre,Catalan,Sounds/cat_pollastre.mp3,2020-06-14_18h11.09.523,TranslationElicitation_spa,3.2.4,Win32,60,5ee3dc4bdfe64a0b4411b8f4,,1,0,80,63,1,79
,,,,,,,,,,,,,,,,,,,,,,,,,,,,,,,,,,,g,1.811000109,G,FALSE,,,,,,,144,gorra,Catalan,Sounds/cat_gorra.mp3,2020-06-14_18h11.09.523,TranslationElicitation_spa,3.2.4,Win32,60,5ee3dc4bdfe64a0b4411b8f4,,1,0,80,39,1,79
,,,,,,,,,,,,,,,,,,,,,,,,,,,,,,,,,,,o,1.911000013,GO,FALSE,,,,,,,144,gorra,Catalan,Sounds/cat_gorra.mp3,2020-06-14_18h11.09.523,TranslationElicitation_spa,3.2.4,Win32,60,5ee3dc4bdfe64a0b4411b8f4,,1,0,80,39,1,79
,,,,,,,,,,,,,,,,,,,,,,,,,,,,,,,,,,,r,2.361000061,GOR,FALSE,,,,,,,144,gorra,Catalan,Sounds/cat_gorra.mp3,2020-06-14_18h11.09.523,TranslationElicitation_spa,3.2.4,Win32,60,5ee3dc4bdfe64a0b4411b8f4,,1,0,80,39,1,79
,,,,,,,,,,,,,,,,,,,,,,,,,,,,,,,,,,,r,2.476999998,GORR,FALSE,,,,,,,144,gorra,Catalan,Sounds/cat_gorra.mp3,2020-06-14_18h11.09.523,TranslationElicitation_spa,3.2.4,Win32,60,5ee3dc4bdfe64a0b4411b8f4,,1,0,80,39,1,79
,,,,,,,,,,,,,,,,,,,,,,,,,,,,,,,,,,,a,2.54399991,GORRA,FALSE,,,,,,,144,gorra,Catalan,Sounds/cat_gorra.mp3,2020-06-14_18h11.09.523,TranslationElicitation_spa,3.2.4,Win32,60,5ee3dc4bdfe64a0b4411b8f4,,1,0,80,39,1,79
,,,,,,,,,,,,,,,,,,,,,,,,,,,,,,,,,,,return,3.02699995,,FALSE,,,,,,,144,gorra,Catalan,Sounds/cat_gorra.mp3,2020-06-14_18h11.09.523,TranslationElicitation_spa,3.2.4,Win32,60,5ee3dc4bdfe64a0b4411b8f4,3.02699995,1,0,80,39,1,79
,,,,,,,,,,,,,,,,,,,,,,,,,,,,,,,,,,,,,,,,,,,,,144,gorra,Catalan,Sounds/cat_gorra.mp3,2020-06-14_18h11.09.523,TranslationElicitation_spa,3.2.4,Win32,60,5ee3dc4bdfe64a0b4411b8f4,,1,0,80,39,1,79
,,,,,,,,,,,,,,,,,,,,,,,,,,,,,,,,,,,m,1.279999971,M,FALSE,,,,,,,155,moneda,Catalan,Sounds/cat_moneda.mp3,2020-06-14_18h11.09.523,TranslationElicitation_spa,3.2.4,Win32,60,5ee3dc4bdfe64a0b4411b8f4,,1,0,80,49,1,79
,,,,,,,,,,,,,,,,,,,,,,,,,,,,,,,,,,,o,1.397000074,MO,FALSE,,,,,,,155,moneda,Catalan,Sounds/cat_moneda.mp3,2020-06-14_18h11.09.523,TranslationElicitation_spa,3.2.4,Win32,60,5ee3dc4bdfe64a0b4411b8f4,,1,0,80,49,1,79
,,,,,,,,,,,,,,,,,,,,,,,,,,,,,,,,,,,n,1.830000162,MON,FALSE,,,,,,,155,moneda,Catalan,Sounds/cat_moneda.mp3,2020-06-14_18h11.09.523,TranslationElicitation_spa,3.2.4,Win32,60,5ee3dc4bdfe64a0b4411b8f4,,1,0,80,49,1,79
,,,,,,,,,,,,,,,,,,,,,,,,,,,,,,,,,,,e,1.913000107,MONE,FALSE,,,,,,,155,moneda,Catalan,Sounds/cat_moneda.mp3,2020-06-14_18h11.09.523,TranslationElicitation_spa,3.2.4,Win32,60,5ee3dc4bdfe64a0b4411b8f4,,1,0,80,49,1,79
,,,,,,,,,,,,,,,,,,,,,,,,,,,,,,,,,,,d,2.097000122,MONED,FALSE,,,,,,,155,moneda,Catalan,Sounds/cat_moneda.mp3,2020-06-14_18h11.09.523,TranslationElicitation_spa,3.2.4,Win32,60,5ee3dc4bdfe64a0b4411b8f4,,1,0,80,49,1,79
,,,,,,,,,,,,,,,,,,,,,,,,,,,,,,,,,,,a,2.279999971,MONEDA,FALSE,,,,,,,155,moneda,Catalan,Sounds/cat_moneda.mp3,2020-06-14_18h11.09.523,TranslationElicitation_spa,3.2.4,Win32,60,5ee3dc4bdfe64a0b4411b8f4,,1,0,80,49,1,79
,,,,,,,,,,,,,,,,,,,,,,,,,,,,,,,,,,,return,3.013000011,,FALSE,,,,,,,155,moneda,Catalan,Sounds/cat_moneda.mp3,2020-06-14_18h11.09.523,TranslationElicitation_spa,3.2.4,Win32,60,5ee3dc4bdfe64a0b4411b8f4,3.013000011,1,0,80,49,1,79
,,,,,,,,,,,,,,,,,,,,,,,,,,,,,,,,,,,,,,,,,,,,,155,moneda,Catalan,Sounds/cat_moneda.mp3,2020-06-14_18h11.09.523,TranslationElicitation_spa,3.2.4,Win32,60,5ee3dc4bdfe64a0b4411b8f4,,1,0,80,49,1,79
,,,,,,,,,,,,,,,,,,,,,,,,,,,,,,,,,,,m,1.632000208,M,FALSE,,,,,,,156,moto,Catalan,Sounds/cat_moto.mp3,2020-06-14_18h11.09.523,TranslationElicitation_spa,3.2.4,Win32,60,5ee3dc4bdfe64a0b4411b8f4,,1,0,80,50,1,79
,,,,,,,,,,,,,,,,,,,,,,,,,,,,,,,,,,,o,1.765000105,MO,FALSE,,,,,,,156,moto,Catalan,Sounds/cat_moto.mp3,2020-06-14_18h11.09.523,TranslationElicitation_spa,3.2.4,Win32,60,5ee3dc4bdfe64a0b4411b8f4,,1,0,80,50,1,79
,,,,,,,,,,,,,,,,,,,,,,,,,,,,,,,,,,,t,1.882000208,MOT,FALSE,,,,,,,156,moto,Catalan,Sounds/cat_moto.mp3,2020-06-14_18h11.09.523,TranslationElicitation_spa,3.2.4,Win32,60,5ee3dc4bdfe64a0b4411b8f4,,1,0,80,50,1,79
,,,,,,,,,,,,,,,,,,,,,,,,,,,,,,,,,,,o,1.965000153,MOTO,FALSE,,,,,,,156,moto,Catalan,Sounds/cat_moto.mp3,2020-06-14_18h11.09.523,TranslationElicitation_spa,3.2.4,Win32,60,5ee3dc4bdfe64a0b4411b8f4,,1,0,80,50,1,79
,,,,,,,,,,,,,,,,,,,,,,,,,,,,,,,,,,,return,2.543000221,,FALSE,,,,,,,156,moto,Catalan,Sounds/cat_moto.mp3,2020-06-14_18h11.09.523,TranslationElicitation_spa,3.2.4,Win32,60,5ee3dc4bdfe64a0b4411b8f4,2.543000221,1,0,80,50,1,79
,,,,,,,,,,,,,,,,,,,,,,,,,,,,,,,,,,,,,,,,,,,,,156,moto,Catalan,Sounds/cat_moto.mp3,2020-06-14_18h11.09.523,TranslationElicitation_spa,3.2.4,Win32,60,5ee3dc4bdfe64a0b4411b8f4,,1,0,80,50,1,79
,,,,,,,,,,,,,,,,,,,,,,,,,,,,,,,,,,,r,2.18200016,R,FALSE,,,,,,,175,raspall,Catalan,Sounds/cat_raspall.mp3,2020-06-14_18h11.09.523,TranslationElicitation_spa,3.2.4,Win32,60,5ee3dc4bdfe64a0b4411b8f4,,1,0,80,67,1,79
,,,,,,,,,,,,,,,,,,,,,,,,,,,,,,,,,,,e,2.332000017,RE,FALSE,,,,,,,175,raspall,Catalan,Sounds/cat_raspall.mp3,2020-06-14_18h11.09.523,TranslationElicitation_spa,3.2.4,Win32,60,5ee3dc4bdfe64a0b4411b8f4,,1,0,80,67,1,79
,,,,,,,,,,,,,,,,,,,,,,,,,,,,,,,,,,,s,2.515000105,RES,FALSE,,,,,,,175,raspall,Catalan,Sounds/cat_raspall.mp3,2020-06-14_18h11.09.523,TranslationElicitation_spa,3.2.4,Win32,60,5ee3dc4bdfe64a0b4411b8f4,,1,0,80,67,1,79
,,,,,,,,,,,,,,,,,,,,,,,,,,,,,,,,,,,p,2.898000002,RESP,FALSE,,,,,,,175,raspall,Catalan,Sounds/cat_raspall.mp3,2020-06-14_18h11.09.523,TranslationElicitation_spa,3.2.4,Win32,60,5ee3dc4bdfe64a0b4411b8f4,,1,0,80,67,1,79
,,,,,,,,,,,,,,,,,,,,,,,,,,,,,,,,,,,a,2.965000153,RESPA,FALSE,,,,,,,175,raspall,Catalan,Sounds/cat_raspall.mp3,2020-06-14_18h11.09.523,TranslationElicitation_spa,3.2.4,Win32,60,5ee3dc4bdfe64a0b4411b8f4,,1,0,80,67,1,79
,,,,,,,,,,,,,,,,,,,,,,,,,,,,,,,,,,,l,3.098999977,RESPAL,FALSE,,,,,,,175,raspall,Catalan,Sounds/cat_raspall.mp3,2020-06-14_18h11.09.523,TranslationElicitation_spa,3.2.4,Win32,60,5ee3dc4bdfe64a0b4411b8f4,,1,0,80,67,1,79
,,,,,,,,,,,,,,,,,,,,,,,,,,,,,,,,,,,f,3.332000017,RESPALF,FALSE,,,,,,,175,raspall,Catalan,Sounds/cat_raspall.mp3,2020-06-14_18h11.09.523,TranslationElicitation_spa,3.2.4,Win32,60,5ee3dc4bdfe64a0b4411b8f4,,1,0,80,67,1,79
,,,,,,,,,,,,,,,,,,,,,,,,,,,,,,,,,,,o,3.399000168,RESPALFO,FALSE,,,,,,,175,raspall,Catalan,Sounds/cat_raspall.mp3,2020-06-14_18h11.09.523,TranslationElicitation_spa,3.2.4,Win32,60,5ee3dc4bdfe64a0b4411b8f4,,1,0,80,67,1,79
,,,,,,,,,,,,,,,,,,,,,,,,,,,,,,,,,,,backspace,3.765000105,RESPAL,TRUE,,,,,,,175,raspall,Catalan,Sounds/cat_raspall.mp3,2020-06-14_18h11.09.523,TranslationElicitation_spa,3.2.4,Win32,60,5ee3dc4bdfe64a0b4411b8f4,,1,0,80,67,1,79
,,,,,,,,,,,,,,,,,,,,,,,,,,,,,,,,,,,backspace,3.899000168,RESP,TRUE,,,,,,,175,raspall,Catalan,Sounds/cat_raspall.mp3,2020-06-14_18h11.09.523,TranslationElicitation_spa,3.2.4,Win32,60,5ee3dc4bdfe64a0b4411b8f4,,1,0,80,67,1,79
,,,,,,,,,,,,,,,,,,,,,,,,,,,,,,,,,,,d,4.113000154,RESPD,TRUE,,,,,,,175,raspall,Catalan,Sounds/cat_raspall.mp3,2020-06-14_18h11.09.523,TranslationElicitation_spa,3.2.4,Win32,60,5ee3dc4bdfe64a0b4411b8f4,,1,0,80,67,1,79
,,,,,,,,,,,,,,,,,,,,,,,,,,,,,,,,,,,backspace,4.567000151,RES,TRUE,,,,,,,175,raspall,Catalan,Sounds/cat_raspall.mp3,2020-06-14_18h11.09.523,TranslationElicitation_spa,3.2.4,Win32,60,5ee3dc4bdfe64a0b4411b8f4,,1,0,80,67,1,79
,,,,,,,,,,,,,,,,,,,,,,,,,,,,,,,,,,,a,4.68200016,RESA,TRUE,,,,,,,175,raspall,Catalan,Sounds/cat_raspall.mp3,2020-06-14_18h11.09.523,TranslationElicitation_spa,3.2.4,Win32,60,5ee3dc4bdfe64a0b4411b8f4,,1,0,80,67,1,79
,,,,,,,,,,,,,,,,,,,,,,,,,,,,,,,,,,,backspace,5.298000097,RE,TRUE,,,,,,,175,raspall,Catalan,Sounds/cat_raspall.mp3,2020-06-14_18h11.09.523,TranslationElicitation_spa,3.2.4,Win32,60,5ee3dc4bdfe64a0b4411b8f4,,1,0,80,67,1,79
,,,,,,,,,,,,,,,,,,,,,,,,,,,,,,,,,,,backspace,6.232000113,,TRUE,,,,,,,175,raspall,Catalan,Sounds/cat_raspall.mp3,2020-06-14_18h11.09.523,TranslationElicitation_spa,3.2.4,Win32,60,5ee3dc4bdfe64a0b4411b8f4,,1,0,80,67,1,79
,,,,,,,,,,,,,,,,,,,,,,,,,,,,,,,,,,,r,6.996999979,R,TRUE,,,,,,,175,raspall,Catalan,Sounds/cat_raspall.mp3,2020-06-14_18h11.09.523,TranslationElicitation_spa,3.2.4,Win32,60,5ee3dc4bdfe64a0b4411b8f4,,1,0,80,67,1,79
,,,,,,,,,,,,,,,,,,,,,,,,,,,,,,,,,,,e,7.131999969,RE,TRUE,,,,,,,175,raspall,Catalan,Sounds/cat_raspall.mp3,2020-06-14_18h11.09.523,TranslationElicitation_spa,3.2.4,Win32,60,5ee3dc4bdfe64a0b4411b8f4,,1,0,80,67,1,79
,,,,,,,,,,,,,,,,,,,,,,,,,,,,,,,,,,,s,7.29700017,RES,TRUE,,,,,,,175,raspall,Catalan,Sounds/cat_raspall.mp3,2020-06-14_18h11.09.523,TranslationElicitation_spa,3.2.4,Win32,60,5ee3dc4bdfe64a0b4411b8f4,,1,0,80,67,1,79
,,,,,,,,,,,,,,,,,,,,,,,,,,,,,,,,,,,p,7.847000122,RESP,TRUE,,,,,,,175,raspall,Catalan,Sounds/cat_raspall.mp3,2020-06-14_18h11.09.523,TranslationElicitation_spa,3.2.4,Win32,60,5ee3dc4bdfe64a0b4411b8f4,,1,0,80,67,1,79
,,,,,,,,,,,,,,,,,,,,,,,,,,,,,,,,,,,a,7.917999983,RESPA,TRUE,,,,,,,175,raspall,Catalan,Sounds/cat_raspall.mp3,2020-06-14_18h11.09.523,TranslationElicitation_spa,3.2.4,Win32,60,5ee3dc4bdfe64a0b4411b8f4,,1,0,80,67,1,79
,,,,,,,,,,,,,,,,,,,,,,,,,,,,,,,,,,,l,8.04700017,RESPAL,TRUE,,,,,,,175,raspall,Catalan,Sounds/cat_raspall.mp3,2020-06-14_18h11.09.523,TranslationElicitation_spa,3.2.4,Win32,60,5ee3dc4bdfe64a0b4411b8f4,,1,0,80,67,1,79
,,,,,,,,,,,,,,,,,,,,,,,,,,,,,,,,,,,d,8.180000067,RESPALD,TRUE,,,,,,,175,raspall,Catalan,Sounds/cat_raspall.mp3,2020-06-14_18h11.09.523,TranslationElicitation_spa,3.2.4,Win32,60,5ee3dc4bdfe64a0b4411b8f4,,1,0,80,67,1,79
,,,,,,,,,,,,,,,,,,,,,,,,,,,,,,,,,,,o,8.264000177,RESPALDO,TRUE,,,,,,,175,raspall,Catalan,Sounds/cat_raspall.mp3,2020-06-14_18h11.09.523,TranslationElicitation_spa,3.2.4,Win32,60,5ee3dc4bdfe64a0b4411b8f4,,1,0,80,67,1,79
,,,,,,,,,,,,,,,,,,,,,,,,,,,,,,,,,,,return,8.815000057,,TRUE,,,,,,,175,raspall,Catalan,Sounds/cat_raspall.mp3,2020-06-14_18h11.09.523,TranslationElicitation_spa,3.2.4,Win32,60,5ee3dc4bdfe64a0b4411b8f4,8.815000057,1,0,80,67,1,79
,,,,,,,,,,,,,,,,,,,,,,,,,,,,,,,,,,,,,,,,,,,,,175,raspall,Catalan,Sounds/cat_raspall.mp3,2020-06-14_18h11.09.523,TranslationElicitation_spa,3.2.4,Win32,60,5ee3dc4bdfe64a0b4411b8f4,,1,0,80,67,1,79
,,,,,,,,,,,,,,,,,,,,,,,,,,,,,,,,,,,p,1.644000053,P,FALSE,,,,,,,168,planta,Catalan,Sounds/cat_planta.mp3,2020-06-14_18h11.09.523,TranslationElicitation_spa,3.2.4,Win32,60,5ee3dc4bdfe64a0b4411b8f4,,1,0,80,60,1,79
,,,,,,,,,,,,,,,,,,,,,,,,,,,,,,,,,,,l,1.726999998,PL,FALSE,,,,,,,168,planta,Catalan,Sounds/cat_planta.mp3,2020-06-14_18h11.09.523,TranslationElicitation_spa,3.2.4,Win32,60,5ee3dc4bdfe64a0b4411b8f4,,1,0,80,60,1,79
,,,,,,,,,,,,,,,,,,,,,,,,,,,,,,,,,,,a,1.911000013,PLA,FALSE,,,,,,,168,planta,Catalan,Sounds/cat_planta.mp3,2020-06-14_18h11.09.523,TranslationElicitation_spa,3.2.4,Win32,60,5ee3dc4bdfe64a0b4411b8f4,,1,0,80,60,1,79
,,,,,,,,,,,,,,,,,,,,,,,,,,,,,,,,,,,n,2.310000181,PLAN,FALSE,,,,,,,168,planta,Catalan,Sounds/cat_planta.mp3,2020-06-14_18h11.09.523,TranslationElicitation_spa,3.2.4,Win32,60,5ee3dc4bdfe64a0b4411b8f4,,1,0,80,60,1,79
,,,,,,,,,,,,,,,,,,,,,,,,,,,,,,,,,,,t,2.544000149,PLANT,FALSE,,,,,,,168,planta,Catalan,Sounds/cat_planta.mp3,2020-06-14_18h11.09.523,TranslationElicitation_spa,3.2.4,Win32,60,5ee3dc4bdfe64a0b4411b8f4,,1,0,80,60,1,79
,,,,,,,,,,,,,,,,,,,,,,,,,,,,,,,,,,,a,2.644000053,PLANTA,FALSE,,,,,,,168,planta,Catalan,Sounds/cat_planta.mp3,2020-06-14_18h11.09.523,TranslationElicitation_spa,3.2.4,Win32,60,5ee3dc4bdfe64a0b4411b8f4,,1,0,80,60,1,79
,,,,,,,,,,,,,,,,,,,,,,,,,,,,,,,,,,,return,3.343000174,,FALSE,,,,,,,168,planta,Catalan,Sounds/cat_planta.mp3,2020-06-14_18h11.09.523,TranslationElicitation_spa,3.2.4,Win32,60,5ee3dc4bdfe64a0b4411b8f4,3.343000174,1,0,80,60,1,79
,,,,,,,,,,,,,,,,,,,,,,,,,,,,,,,,,,,,,,,,,,,,,168,planta,Catalan,Sounds/cat_planta.mp3,2020-06-14_18h11.09.523,TranslationElicitation_spa,3.2.4,Win32,60,5ee3dc4bdfe64a0b4411b8f4,,1,0,80,60,1,79
,,,,,,,,,,,,,,,,,,,,,,,,,,,,,,,,,,,n,2.611999989,N,FALSE,,,,,,,158,nas,Catalan,Sounds/cat_nas.mp3,2020-06-14_18h11.09.523,TranslationElicitation_spa,3.2.4,Win32,60,5ee3dc4bdfe64a0b4411b8f4,,1,0,80,52,1,79
,,,,,,,,,,,,,,,,,,,,,,,,,,,,,,,,,,,a,2.746000051,NA,FALSE,,,,,,,158,nas,Catalan,Sounds/cat_nas.mp3,2020-06-14_18h11.09.523,TranslationElicitation_spa,3.2.4,Win32,60,5ee3dc4bdfe64a0b4411b8f4,,1,0,80,52,1,79
,,,,,,,,,,,,,,,,,,,,,,,,,,,,,,,,,,,d,2.961999893,NAD,FALSE,,,,,,,158,nas,Catalan,Sounds/cat_nas.mp3,2020-06-14_18h11.09.523,TranslationElicitation_spa,3.2.4,Win32,60,5ee3dc4bdfe64a0b4411b8f4,,1,0,80,52,1,79
,,,,,,,,,,,,,,,,,,,,,,,,,,,,,,,,,,,a,3.145999908,NADA,FALSE,,,,,,,158,nas,Catalan,Sounds/cat_nas.mp3,2020-06-14_18h11.09.523,TranslationElicitation_spa,3.2.4,Win32,60,5ee3dc4bdfe64a0b4411b8f4,,1,0,80,52,1,79
,,,,,,,,,,,,,,,,,,,,,,,,,,,,,,,,,,,return,4.815999985,,FALSE,,,,,,,158,nas,Catalan,Sounds/cat_nas.mp3,2020-06-14_18h11.09.523,TranslationElicitation_spa,3.2.4,Win32,60,5ee3dc4bdfe64a0b4411b8f4,4.815999985,1,0,80,52,1,79
,,,,,,,,,,,,,,,,,,,,,,,,,,,,,,,,,,,,,,,,,,,,,158,nas,Catalan,Sounds/cat_nas.mp3,2020-06-14_18h11.09.523,TranslationElicitation_spa,3.2.4,Win32,60,5ee3dc4bdfe64a0b4411b8f4,,1,0,80,52,1,79
,,,,,,,,,,,,,,,,,,,,,,,,,,,,,,,,,,,v,1.664999962,V,FALSE,,,,,,,118,bou,Catalan,Sounds/cat_bou.mp3,2020-06-14_18h11.09.523,TranslationElicitation_spa,3.2.4,Win32,60,5ee3dc4bdfe64a0b4411b8f4,,1,0,80,13,1,79
,,,,,,,,,,,,,,,,,,,,,,,,,,,,,,,,,,,o,1.815000057,VO,FALSE,,,,,,,118,bou,Catalan,Sounds/cat_bou.mp3,2020-06-14_18h11.09.523,TranslationElicitation_spa,3.2.4,Win32,60,5ee3dc4bdfe64a0b4411b8f4,,1,0,80,13,1,79
,,,,,,,,,,,,,,,,,,,,,,,,,,,,,,,,,,,y,2.015000105,VOY,FALSE,,,,,,,118,bou,Catalan,Sounds/cat_bou.mp3,2020-06-14_18h11.09.523,TranslationElicitation_spa,3.2.4,Win32,60,5ee3dc4bdfe64a0b4411b8f4,,1,0,80,13,1,79
,,,,,,,,,,,,,,,,,,,,,,,,,,,,,,,,,,,return,3.048000097,,FALSE,,,,,,,118,bou,Catalan,Sounds/cat_bou.mp3,2020-06-14_18h11.09.523,TranslationElicitation_spa,3.2.4,Win32,60,5ee3dc4bdfe64a0b4411b8f4,3.048000097,1,0,80,13,1,79
,,,,,,,,,,,,,,,,,,,,,,,,,,,,,,,,,,,,,,,,,,,,,118,bou,Catalan,Sounds/cat_bou.mp3,2020-06-14_18h11.09.523,TranslationElicitation_spa,3.2.4,Win32,60,5ee3dc4bdfe64a0b4411b8f4,,1,0,80,13,1,79
,,,,,,,,,,,,,,,,,,,,,,,,,,,,,,,,,,,s,1.515000105,S,FALSE,,,,,,,124,cirera,Catalan,Sounds/cat_cirera.mp3,2020-06-14_18h11.09.523,TranslationElicitation_spa,3.2.4,Win32,60,5ee3dc4bdfe64a0b4411b8f4,,1,0,80,19,1,79
,,,,,,,,,,,,,,,,,,,,,,,,,,,,,,,,,,,i,1.680999994,SI,FALSE,,,,,,,124,cirera,Catalan,Sounds/cat_cirera.mp3,2020-06-14_18h11.09.523,TranslationElicitation_spa,3.2.4,Win32,60,5ee3dc4bdfe64a0b4411b8f4,,1,0,80,19,1,79
,,,,,,,,,,,,,,,,,,,,,,,,,,,,,,,,,,,r,2.180999994,SIR,FALSE,,,,,,,124,cirera,Catalan,Sounds/cat_cirera.mp3,2020-06-14_18h11.09.523,TranslationElicitation_spa,3.2.4,Win32,60,5ee3dc4bdfe64a0b4411b8f4,,1,0,80,19,1,79
,,,,,,,,,,,,,,,,,,,,,,,,,,,,,,,,,,,e,2.34800005,SIRE,FALSE,,,,,,,124,cirera,Catalan,Sounds/cat_cirera.mp3,2020-06-14_18h11.09.523,TranslationElicitation_spa,3.2.4,Win32,60,5ee3dc4bdfe64a0b4411b8f4,,1,0,80,19,1,79
,,,,,,,,,,,,,,,,,,,,,,,,,,,,,,,,,,,n,2.430999994,SIREN,FALSE,,,,,,,124,cirera,Catalan,Sounds/cat_cirera.mp3,2020-06-14_18h11.09.523,TranslationElicitation_spa,3.2.4,Win32,60,5ee3dc4bdfe64a0b4411b8f4,,1,0,80,19,1,79
,,,,,,,,,,,,,,,,,,,,,,,,,,,,,,,,,,,a,2.58100009,SIRENA,FALSE,,,,,,,124,cirera,Catalan,Sounds/cat_cirera.mp3,2020-06-14_18h11.09.523,TranslationElicitation_spa,3.2.4,Win32,60,5ee3dc4bdfe64a0b4411b8f4,,1,0,80,19,1,79
,,,,,,,,,,,,,,,,,,,,,,,,,,,,,,,,,,,return,3.364000082,,FALSE,,,,,,,124,cirera,Catalan,Sounds/cat_cirera.mp3,2020-06-14_18h11.09.523,TranslationElicitation_spa,3.2.4,Win32,60,5ee3dc4bdfe64a0b4411b8f4,3.363000154,1,0,80,19,1,79
,,,,,,,,,,,,,,,,,,,,,,,,,,,,,,,,,,,,,,,,,,,,,124,cirera,Catalan,Sounds/cat_cirera.mp3,2020-06-14_18h11.09.523,TranslationElicitation_spa,3.2.4,Win32,60,5ee3dc4bdfe64a0b4411b8f4,,1,0,80,19,1,79
,,,,,,,,,,,,,,,,,,,,,,,,,,,,,,,,,,,c,2.148000002,C,FALSE,,,,,,,119,caixa,Catalan,Sounds/cat_caixa.mp3,2020-06-14_18h11.09.523,TranslationElicitation_spa,3.2.4,Win32,60,5ee3dc4bdfe64a0b4411b8f4,,1,0,80,14,1,79
,,,,,,,,,,,,,,,,,,,,,,,,,,,,,,,,,,,a,2.230999947,CA,FALSE,,,,,,,119,caixa,Catalan,Sounds/cat_caixa.mp3,2020-06-14_18h11.09.523,TranslationElicitation_spa,3.2.4,Win32,60,5ee3dc4bdfe64a0b4411b8f4,,1,0,80,14,1,79
,,,,,,,,,,,,,,,,,,,,,,,,,,,,,,,,,,,s,2.364000082,CAS,FALSE,,,,,,,119,caixa,Catalan,Sounds/cat_caixa.mp3,2020-06-14_18h11.09.523,TranslationElicitation_spa,3.2.4,Win32,60,5ee3dc4bdfe64a0b4411b8f4,,1,0,80,14,1,79
,,,,,,,,,,,,,,,,,,,,,,,,,,,,,,,,,,,a,2.430999994,CASA,FALSE,,,,,,,119,caixa,Catalan,Sounds/cat_caixa.mp3,2020-06-14_18h11.09.523,TranslationElicitation_spa,3.2.4,Win32,60,5ee3dc4bdfe64a0b4411b8f4,,1,0,80,14,1,79
,,,,,,,,,,,,,,,,,,,,,,,,,,,,,,,,,,,return,3.098999977,,FALSE,,,,,,,119,caixa,Catalan,Sounds/cat_caixa.mp3,2020-06-14_18h11.09.523,TranslationElicitation_spa,3.2.4,Win32,60,5ee3dc4bdfe64a0b4411b8f4,3.098999977,1,0,80,14,1,79
,,,,,,,,,,,,,,,,,,,,,,,,,,,,,,,,,,,,,,,,,,,,,119,caixa,Catalan,Sounds/cat_caixa.mp3,2020-06-14_18h11.09.523,TranslationElicitation_spa,3.2.4,Win32,60,5ee3dc4bdfe64a0b4411b8f4,,1,0,80,14,1,79
,,,,,,,,,,,,,,,,,,,,,,,,,,,,,,,,,,,t,1.81400013,T,FALSE,,,,,,,178,taronja,Catalan,Sounds/cat_taronja.mp3,2020-06-14_18h11.09.523,TranslationElicitation_spa,3.2.4,Win32,60,5ee3dc4bdfe64a0b4411b8f4,,1,0,80,70,1,79
,,,,,,,,,,,,,,,,,,,,,,,,,,,,,,,,,,,r,1.963999987,TR,FALSE,,,,,,,178,taronja,Catalan,Sounds/cat_taronja.mp3,2020-06-14_18h11.09.523,TranslationElicitation_spa,3.2.4,Win32,60,5ee3dc4bdfe64a0b4411b8f4,,1,0,80,70,1,79
,,,,,,,,,,,,,,,,,,,,,,,,,,,,,,,,,,,a,2.031000137,TRA,FALSE,,,,,,,178,taronja,Catalan,Sounds/cat_taronja.mp3,2020-06-14_18h11.09.523,TranslationElicitation_spa,3.2.4,Win32,60,5ee3dc4bdfe64a0b4411b8f4,,1,0,80,70,1,79
,,,,,,,,,,,,,,,,,,,,,,,,,,,,,,,,,,,g,2.148000002,TRAG,FALSE,,,,,,,178,taronja,Catalan,Sounds/cat_taronja.mp3,2020-06-14_18h11.09.523,TranslationElicitation_spa,3.2.4,Win32,60,5ee3dc4bdfe64a0b4411b8f4,,1,0,80,70,1,79
,,,,,,,,,,,,,,,,,,,,,,,,,,,,,,,,,,,a,2.213999987,TRAGA,FALSE,,,,,,,178,taronja,Catalan,Sounds/cat_taronja.mp3,2020-06-14_18h11.09.523,TranslationElicitation_spa,3.2.4,Win32,60,5ee3dc4bdfe64a0b4411b8f4,,1,0,80,70,1,79
,,,,,,,,,,,,,,,,,,,,,,,,,,,,,,,,,,,return,2.847000122,,FALSE,,,,,,,178,taronja,Catalan,Sounds/cat_taronja.mp3,2020-06-14_18h11.09.523,TranslationElicitation_spa,3.2.4,Win32,60,5ee3dc4bdfe64a0b4411b8f4,2.847000122,1,0,80,70,1,79
,,,,,,,,,,,,,,,,,,,,,,,,,,,,,,,,,,,,,,,,,,,,,178,taronja,Catalan,Sounds/cat_taronja.mp3,2020-06-14_18h11.09.523,TranslationElicitation_spa,3.2.4,Win32,60,5ee3dc4bdfe64a0b4411b8f4,,1,0,80,70,1,79
,,,,,,,,,,,,,,,,,,,,,,,,,,,,,,,,,,,p,1.731000185,P,FALSE,,,,,,,170,ploma,Catalan,Sounds/cat_ploma.mp3,2020-06-14_18h11.09.523,TranslationElicitation_spa,3.2.4,Win32,60,5ee3dc4bdfe64a0b4411b8f4,,1,0,80,62,1,79
,,,,,,,,,,,,,,,,,,,,,,,,,,,,,,,,,,,l,1.84800005,PL,FALSE,,,,,,,170,ploma,Catalan,Sounds/cat_ploma.mp3,2020-06-14_18h11.09.523,TranslationElicitation_spa,3.2.4,Win32,60,5ee3dc4bdfe64a0b4411b8f4,,1,0,80,62,1,79
,,,,,,,,,,,,,,,,,,,,,,,,,,,,,,,,,,,o,2.048000097,PLO,FALSE,,,,,,,170,ploma,Catalan,Sounds/cat_ploma.mp3,2020-06-14_18h11.09.523,TranslationElicitation_spa,3.2.4,Win32,60,5ee3dc4bdfe64a0b4411b8f4,,1,0,80,62,1,79
,,,,,,,,,,,,,,,,,,,,,,,,,,,,,,,,,,,m,2.315000057,PLOM,FALSE,,,,,,,170,ploma,Catalan,Sounds/cat_ploma.mp3,2020-06-14_18h11.09.523,TranslationElicitation_spa,3.2.4,Win32,60,5ee3dc4bdfe64a0b4411b8f4,,1,0,80,62,1,79
,,,,,,,,,,,,,,,,,,,,,,,,,,,,,,,,,,,o,2.531000137,PLOMO,FALSE,,,,,,,170,ploma,Catalan,Sounds/cat_ploma.mp3,2020-06-14_18h11.09.523,TranslationElicitation_spa,3.2.4,Win32,60,5ee3dc4bdfe64a0b4411b8f4,,1,0,80,62,1,79
,,,,,,,,,,,,,,,,,,,,,,,,,,,,,,,,,,,return,4.031000137,,FALSE,,,,,,,170,ploma,Catalan,Sounds/cat_ploma.mp3,2020-06-14_18h11.09.523,TranslationElicitation_spa,3.2.4,Win32,60,5ee3dc4bdfe64a0b4411b8f4,4.031000137,1,0,80,62,1,79
,,,,,,,,,,,,,,,,,,,,,,,,,,,,,,,,,,,,,,,,,,,,,170,ploma,Catalan,Sounds/cat_ploma.mp3,2020-06-14_18h11.09.523,TranslationElicitation_spa,3.2.4,Win32,60,5ee3dc4bdfe64a0b4411b8f4,,1,0,80,62,1,79
,,,,,,,,,,,,,,,,,,,,,,,,,,,,,,,,,,,t,11.07800007,T,FALSE,,,,,,,145,got,Catalan,Sounds/cat_got.mp3,2020-06-14_18h11.09.523,TranslationElicitation_spa,3.2.4,Win32,60,5ee3dc4bdfe64a0b4411b8f4,,1,0,80,40,1,79
,,,,,,,,,,,,,,,,,,,,,,,,,,,,,,,,,,,e,11.27800012,TE,FALSE,,,,,,,145,got,Catalan,Sounds/cat_got.mp3,2020-06-14_18h11.09.523,TranslationElicitation_spa,3.2.4,Win32,60,5ee3dc4bdfe64a0b4411b8f4,,1,0,80,40,1,79
,,,,,,,,,,,,,,,,,,,,,,,,,,,,,,,,,,,n,11.54399991,TEN,FALSE,,,,,,,145,got,Catalan,Sounds/cat_got.mp3,2020-06-14_18h11.09.523,TranslationElicitation_spa,3.2.4,Win32,60,5ee3dc4bdfe64a0b4411b8f4,,1,0,80,40,1,79
,,,,,,,,,,,,,,,,,,,,,,,,,,,,,,,,,,,g,11.64400005,TENG,FALSE,,,,,,,145,got,Catalan,Sounds/cat_got.mp3,2020-06-14_18h11.09.523,TranslationElicitation_spa,3.2.4,Win32,60,5ee3dc4bdfe64a0b4411b8f4,,1,0,80,40,1,79
,,,,,,,,,,,,,,,,,,,,,,,,,,,,,,,,,,,o,11.74500012,TENGO,FALSE,,,,,,,145,got,Catalan,Sounds/cat_got.mp3,2020-06-14_18h11.09.523,TranslationElicitation_spa,3.2.4,Win32,60,5ee3dc4bdfe64a0b4411b8f4,,1,0,80,40,1,79
,,,,,,,,,,,,,,,,,,,,,,,,,,,,,,,,,,,return,17.12700009,,FALSE,,,,,,,145,got,Catalan,Sounds/cat_got.mp3,2020-06-14_18h11.09.523,TranslationElicitation_spa,3.2.4,Win32,60,5ee3dc4bdfe64a0b4411b8f4,17.12599993,1,0,80,40,1,79
,,,,,,,,,,,,,,,,,,,,,,,,,,,,,,,,,,,,,,,,,,,,,145,got,Catalan,Sounds/cat_got.mp3,2020-06-14_18h11.09.523,TranslationElicitation_spa,3.2.4,Win32,60,5ee3dc4bdfe64a0b4411b8f4,,1,0,80,40,1,79
,,,,,,,,,,,,,,,,,,,,,,,,,,,,,,,,,,,p,1.457999945,P,FALSE,,,,,,,163,papallona,Catalan,Sounds/cat_papallona.mp3,2020-06-14_18h11.09.523,TranslationElicitation_spa,3.2.4,Win32,60,5ee3dc4bdfe64a0b4411b8f4,,1,0,80,56,1,79
,,,,,,,,,,,,,,,,,,,,,,,,,,,,,,,,,,,a,1.559999943,PA,FALSE,,,,,,,163,papallona,Catalan,Sounds/cat_papallona.mp3,2020-06-14_18h11.09.523,TranslationElicitation_spa,3.2.4,Win32,60,5ee3dc4bdfe64a0b4411b8f4,,1,0,80,56,1,79
,,,,,,,,,,,,,,,,,,,,,,,,,,,,,,,,,,,p,1.64199996,PAP,FALSE,,,,,,,163,papallona,Catalan,Sounds/cat_papallona.mp3,2020-06-14_18h11.09.523,TranslationElicitation_spa,3.2.4,Win32,60,5ee3dc4bdfe64a0b4411b8f4,,1,0,80,56,1,79
,,,,,,,,,,,,,,,,,,,,,,,,,,,,,,,,,,,a,1.760999918,PAPA,FALSE,,,,,,,163,papallona,Catalan,Sounds/cat_papallona.mp3,2020-06-14_18h11.09.523,TranslationElicitation_spa,3.2.4,Win32,60,5ee3dc4bdfe64a0b4411b8f4,,1,0,80,56,1,79
,,,,,,,,,,,,,,,,,,,,,,,,,,,,,,,,,,,d,6.24000001,PAPAD,FALSE,,,,,,,163,papallona,Catalan,Sounds/cat_papallona.mp3,2020-06-14_18h11.09.523,TranslationElicitation_spa,3.2.4,Win32,60,5ee3dc4bdfe64a0b4411b8f4,,1,0,80,56,1,79
,,,,,,,,,,,,,,,,,,,,,,,,,,,,,,,,,,,a,6.40899992,PAPADA,FALSE,,,,,,,163,papallona,Catalan,Sounds/cat_papallona.mp3,2020-06-14_18h11.09.523,TranslationElicitation_spa,3.2.4,Win32,60,5ee3dc4bdfe64a0b4411b8f4,,1,0,80,56,1,79
,,,,,,,,,,,,,,,,,,,,,,,,,,,,,,,,,,,return,7.473999977,,FALSE,,,,,,,163,papallona,Catalan,Sounds/cat_papallona.mp3,2020-06-14_18h11.09.523,TranslationElicitation_spa,3.2.4,Win32,60,5ee3dc4bdfe64a0b4411b8f4,7.473999977,1,0,80,56,1,79
,,,,,,,,,,,,,,,,,,,,,,,,,,,,,,,,,,,,,,,,,,,,,163,papallona,Catalan,Sounds/cat_papallona.mp3,2020-06-14_18h11.09.523,TranslationElicitation_spa,3.2.4,Win32,60,5ee3dc4bdfe64a0b4411b8f4,,1,0,80,56,1,79
,,,,,,,,,,,,,,,,,,,,,,,,,,,,,,,,,,,g,1.428999901,G,FALSE,,,,,,,146,guitarra,Catalan,Sounds/cat_guitarra.mp3,2020-06-14_18h11.09.523,TranslationElicitation_spa,3.2.4,Win32,60,5ee3dc4bdfe64a0b4411b8f4,,1,0,80,41,1,79
,,,,,,,,,,,,,,,,,,,,,,,,,,,,,,,,,,,u,1.529000044,GU,FALSE,,,,,,,146,guitarra,Catalan,Sounds/cat_guitarra.mp3,2020-06-14_18h11.09.523,TranslationElicitation_spa,3.2.4,Win32,60,5ee3dc4bdfe64a0b4411b8f4,,1,0,80,41,1,79
,,,,,,,,,,,,,,,,,,,,,,,,,,,,,,,,,,,i,1.862999916,GUI,FALSE,,,,,,,146,guitarra,Catalan,Sounds/cat_guitarra.mp3,2020-06-14_18h11.09.523,TranslationElicitation_spa,3.2.4,Win32,60,5ee3dc4bdfe64a0b4411b8f4,,1,0,80,41,1,79
,,,,,,,,,,,,,,,,,,,,,,,,,,,,,,,,,,,t,2.378999949,GUIT,FALSE,,,,,,,146,guitarra,Catalan,Sounds/cat_guitarra.mp3,2020-06-14_18h11.09.523,TranslationElicitation_spa,3.2.4,Win32,60,5ee3dc4bdfe64a0b4411b8f4,,1,0,80,41,1,79
,,,,,,,,,,,,,,,,,,,,,,,,,,,,,,,,,,,a,2.463999987,GUITA,FALSE,,,,,,,146,guitarra,Catalan,Sounds/cat_guitarra.mp3,2020-06-14_18h11.09.523,TranslationElicitation_spa,3.2.4,Win32,60,5ee3dc4bdfe64a0b4411b8f4,,1,0,80,41,1,79
,,,,,,,,,,,,,,,,,,,,,,,,,,,,,,,,,,,r,2.579999924,GUITAR,FALSE,,,,,,,146,guitarra,Catalan,Sounds/cat_guitarra.mp3,2020-06-14_18h11.09.523,TranslationElicitation_spa,3.2.4,Win32,60,5ee3dc4bdfe64a0b4411b8f4,,1,0,80,41,1,79
,,,,,,,,,,,,,,,,,,,,,,,,,,,,,,,,,,,r,2.728999853,GUITARR,FALSE,,,,,,,146,guitarra,Catalan,Sounds/cat_guitarra.mp3,2020-06-14_18h11.09.523,TranslationElicitation_spa,3.2.4,Win32,60,5ee3dc4bdfe64a0b4411b8f4,,1,0,80,41,1,79
,,,,,,,,,,,,,,,,,,,,,,,,,,,,,,,,,,,a,2.813999891,GUITARRA,FALSE,,,,,,,146,guitarra,Catalan,Sounds/cat_guitarra.mp3,2020-06-14_18h11.09.523,TranslationElicitation_spa,3.2.4,Win32,60,5ee3dc4bdfe64a0b4411b8f4,,1,0,80,41,1,79
,,,,,,,,,,,,,,,,,,,,,,,,,,,,,,,,,,,return,3.414000034,,FALSE,,,,,,,146,guitarra,Catalan,Sounds/cat_guitarra.mp3,2020-06-14_18h11.09.523,TranslationElicitation_spa,3.2.4,Win32,60,5ee3dc4bdfe64a0b4411b8f4,3.414000034,1,0,80,41,1,79
,,,,,,,,,,,,,,,,,,,,,,,,,,,,,,,,,,,,,,,,,,,,,146,guitarra,Catalan,Sounds/cat_guitarra.mp3,2020-06-14_18h11.09.523,TranslationElicitation_spa,3.2.4,Win32,60,5ee3dc4bdfe64a0b4411b8f4,,1,0,80,41,1,79
,,,,,,,,,,,,,,,,,,,,,,,,,,,,,,,,,,,e,1.394999981,E,FALSE,,,,,,,132,estrella,Catalan,Sounds/cat_estrella.mp3,2020-06-14_18h11.09.523,TranslationElicitation_spa,3.2.4,Win32,60,5ee3dc4bdfe64a0b4411b8f4,,1,0,80,27,1,79
,,,,,,,,,,,,,,,,,,,,,,,,,,,,,,,,,,,s,1.562000036,ES,FALSE,,,,,,,132,estrella,Catalan,Sounds/cat_estrella.mp3,2020-06-14_18h11.09.523,TranslationElicitation_spa,3.2.4,Win32,60,5ee3dc4bdfe64a0b4411b8f4,,1,0,80,27,1,79
,,,,,,,,,,,,,,,,,,,,,,,,,,,,,,,,,,,t,1.677999973,EST,FALSE,,,,,,,132,estrella,Catalan,Sounds/cat_estrella.mp3,2020-06-14_18h11.09.523,TranslationElicitation_spa,3.2.4,Win32,60,5ee3dc4bdfe64a0b4411b8f4,,1,0,80,27,1,79
,,,,,,,,,,,,,,,,,,,,,,,,,,,,,,,,,,,r,1.710999966,ESTR,FALSE,,,,,,,132,estrella,Catalan,Sounds/cat_estrella.mp3,2020-06-14_18h11.09.523,TranslationElicitation_spa,3.2.4,Win32,60,5ee3dc4bdfe64a0b4411b8f4,,1,0,80,27,1,79
,,,,,,,,,,,,,,,,,,,,,,,,,,,,,,,,,,,e,1.861000061,ESTRE,FALSE,,,,,,,132,estrella,Catalan,Sounds/cat_estrella.mp3,2020-06-14_18h11.09.523,TranslationElicitation_spa,3.2.4,Win32,60,5ee3dc4bdfe64a0b4411b8f4,,1,0,80,27,1,79
,,,,,,,,,,,,,,,,,,,,,,,,,,,,,,,,,,,l,2.361999989,ESTREL,FALSE,,,,,,,132,estrella,Catalan,Sounds/cat_estrella.mp3,2020-06-14_18h11.09.523,TranslationElicitation_spa,3.2.4,Win32,60,5ee3dc4bdfe64a0b4411b8f4,,1,0,80,27,1,79
,,,,,,,,,,,,,,,,,,,,,,,,,,,,,,,,,,,l,2.460000038,ESTRELL,FALSE,,,,,,,132,estrella,Catalan,Sounds/cat_estrella.mp3,2020-06-14_18h11.09.523,TranslationElicitation_spa,3.2.4,Win32,60,5ee3dc4bdfe64a0b4411b8f4,,1,0,80,27,1,79
,,,,,,,,,,,,,,,,,,,,,,,,,,,,,,,,,,,a,2.542999983,ESTRELLA,FALSE,,,,,,,132,estrella,Catalan,Sounds/cat_estrella.mp3,2020-06-14_18h11.09.523,TranslationElicitation_spa,3.2.4,Win32,60,5ee3dc4bdfe64a0b4411b8f4,,1,0,80,27,1,79
,,,,,,,,,,,,,,,,,,,,,,,,,,,,,,,,,,,return,3.02699995,,FALSE,,,,,,,132,estrella,Catalan,Sounds/cat_estrella.mp3,2020-06-14_18h11.09.523,TranslationElicitation_spa,3.2.4,Win32,60,5ee3dc4bdfe64a0b4411b8f4,3.02699995,1,0,80,27,1,79
,,,,,,,,,,,,,,,,,,,,,,,,,,,,,,,,,,,,,,,,,,,,,132,estrella,Catalan,Sounds/cat_estrella.mp3,2020-06-14_18h11.09.523,TranslationElicitation_spa,3.2.4,Win32,60,5ee3dc4bdfe64a0b4411b8f4,,1,0,80,27,1,79
,,,,,,,,,,,,,,,,,,,,,,,,,,,,,,,,,,,c,1.448000193,C,FALSE,,,,,,,127,cotxe,Catalan,Sounds/cat_cotxe.mp3,2020-06-14_18h11.09.523,TranslationElicitation_spa,3.2.4,Win32,60,5ee3dc4bdfe64a0b4411b8f4,,1,0,80,22,1,79
,,,,,,,,,,,,,,,,,,,,,,,,,,,,,,,,,,,o,1.531000137,CO,FALSE,,,,,,,127,cotxe,Catalan,Sounds/cat_cotxe.mp3,2020-06-14_18h11.09.523,TranslationElicitation_spa,3.2.4,Win32,60,5ee3dc4bdfe64a0b4411b8f4,,1,0,80,22,1,79
,,,,,,,,,,,,,,,,,,,,,,,,,,,,,,,,,,,c,1.648000002,COC,FALSE,,,,,,,127,cotxe,Catalan,Sounds/cat_cotxe.mp3,2020-06-14_18h11.09.523,TranslationElicitation_spa,3.2.4,Win32,60,5ee3dc4bdfe64a0b4411b8f4,,1,0,80,22,1,79
,,,,,,,,,,,,,,,,,,,,,,,,,,,,,,,,,,,h,1.981000185,COCH,FALSE,,,,,,,127,cotxe,Catalan,Sounds/cat_cotxe.mp3,2020-06-14_18h11.09.523,TranslationElicitation_spa,3.2.4,Win32,60,5ee3dc4bdfe64a0b4411b8f4,,1,0,80,22,1,79
,,,,,,,,,,,,,,,,,,,,,,,,,,,,,,,,,,,e,2.048000097,COCHE,FALSE,,,,,,,127,cotxe,Catalan,Sounds/cat_cotxe.mp3,2020-06-14_18h11.09.523,TranslationElicitation_spa,3.2.4,Win32,60,5ee3dc4bdfe64a0b4411b8f4,,1,0,80,22,1,79
,,,,,,,,,,,,,,,,,,,,,,,,,,,,,,,,,,,return,2.588999987,,FALSE,,,,,,,127,cotxe,Catalan,Sounds/cat_cotxe.mp3,2020-06-14_18h11.09.523,TranslationElicitation_spa,3.2.4,Win32,60,5ee3dc4bdfe64a0b4411b8f4,2.588000059,1,0,80,22,1,79
,,,,,,,,,,,,,,,,,,,,,,,,,,,,,,,,,,,,,,,,,,,,,127,cotxe,Catalan,Sounds/cat_cotxe.mp3,2020-06-14_18h11.09.523,TranslationElicitation_spa,3.2.4,Win32,60,5ee3dc4bdfe64a0b4411b8f4,,1,0,80,22,1,79
,,,,,,,,,,,,,,,,,,,,,,,,,,,,,,,,,,,g,1.580999851,G,FALSE,,,,,,,106,aixeta,Catalan,Sounds/cat_aixeta.mp3,2020-06-14_18h11.09.523,TranslationElicitation_spa,3.2.4,Win32,60,5ee3dc4bdfe64a0b4411b8f4,,1,0,80,2,1,79
,,,,,,,,,,,,,,,,,,,,,,,,,,,,,,,,,,,a,1.663999796,GA,FALSE,,,,,,,106,aixeta,Catalan,Sounds/cat_aixeta.mp3,2020-06-14_18h11.09.523,TranslationElicitation_spa,3.2.4,Win32,60,5ee3dc4bdfe64a0b4411b8f4,,1,0,80,2,1,79
,,,,,,,,,,,,,,,,,,,,,,,,,,,,,,,,,,,l,2.330999851,GAL,FALSE,,,,,,,106,aixeta,Catalan,Sounds/cat_aixeta.mp3,2020-06-14_18h11.09.523,TranslationElicitation_spa,3.2.4,Win32,60,5ee3dc4bdfe64a0b4411b8f4,,1,0,80,2,1,79
,,,,,,,,,,,,,,,,,,,,,,,,,,,,,,,,,,,l,2.413999796,GALL,FALSE,,,,,,,106,aixeta,Catalan,Sounds/cat_aixeta.mp3,2020-06-14_18h11.09.523,TranslationElicitation_spa,3.2.4,Win32,60,5ee3dc4bdfe64a0b4411b8f4,,1,0,80,2,1,79
,,,,,,,,,,,,,,,,,,,,,,,,,,,,,,,,,,,e,2.496999979,GALLE,FALSE,,,,,,,106,aixeta,Catalan,Sounds/cat_aixeta.mp3,2020-06-14_18h11.09.523,TranslationElicitation_spa,3.2.4,Win32,60,5ee3dc4bdfe64a0b4411b8f4,,1,0,80,2,1,79
,,,,,,,,,,,,,,,,,,,,,,,,,,,,,,,,,,,t,2.697000027,GALLET,FALSE,,,,,,,106,aixeta,Catalan,Sounds/cat_aixeta.mp3,2020-06-14_18h11.09.523,TranslationElicitation_spa,3.2.4,Win32,60,5ee3dc4bdfe64a0b4411b8f4,,1,0,80,2,1,79
,,,,,,,,,,,,,,,,,,,,,,,,,,,,,,,,,,,a,2.764999866,GALLETA,FALSE,,,,,,,106,aixeta,Catalan,Sounds/cat_aixeta.mp3,2020-06-14_18h11.09.523,TranslationElicitation_spa,3.2.4,Win32,60,5ee3dc4bdfe64a0b4411b8f4,,1,0,80,2,1,79
,,,,,,,,,,,,,,,,,,,,,,,,,,,,,,,,,,,return,3.279999971,,FALSE,,,,,,,106,aixeta,Catalan,Sounds/cat_aixeta.mp3,2020-06-14_18h11.09.523,TranslationElicitation_spa,3.2.4,Win32,60,5ee3dc4bdfe64a0b4411b8f4,3.279999971,1,0,80,2,1,79
,,,,,,,,,,,,,,,,,,,,,,,,,,,,,,,,,,,,,,,,,,,,,106,aixeta,Catalan,Sounds/cat_aixeta.mp3,2020-06-14_18h11.09.523,TranslationElicitation_spa,3.2.4,Win32,60,5ee3dc4bdfe64a0b4411b8f4,,1,0,80,2,1,79
,,,,,,,,,,,,,,,,,,,,,,,,,,,,,,,,,,,g,12.59500003,G,FALSE,,,,,,,153,mico,Catalan,Sounds/cat_mico.mp3,2020-06-14_18h11.09.523,TranslationElicitation_spa,3.2.4,Win32,60,5ee3dc4bdfe64a0b4411b8f4,,1,0,80,47,1,79
,,,,,,,,,,,,,,,,,,,,,,,,,,,,,,,,,,,a,12.67900014,GA,FALSE,,,,,,,153,mico,Catalan,Sounds/cat_mico.mp3,2020-06-14_18h11.09.523,TranslationElicitation_spa,3.2.4,Win32,60,5ee3dc4bdfe64a0b4411b8f4,,1,0,80,47,1,79
,,,,,,,,,,,,,,,,,,,,,,,,,,,,,,,,,,,t,12.72800016,GAT,FALSE,,,,,,,153,mico,Catalan,Sounds/cat_mico.mp3,2020-06-14_18h11.09.523,TranslationElicitation_spa,3.2.4,Win32,60,5ee3dc4bdfe64a0b4411b8f4,,1,0,80,47,1,79
,,,,,,,,,,,,,,,,,,,,,,,,,,,,,,,,,,,o,13.32800007,GATO,FALSE,,,,,,,153,mico,Catalan,Sounds/cat_mico.mp3,2020-06-14_18h11.09.523,TranslationElicitation_spa,3.2.4,Win32,60,5ee3dc4bdfe64a0b4411b8f4,,1,0,80,47,1,79
,,,,,,,,,,,,,,,,,,,,,,,,,,,,,,,,,,,return,13.89499998,,FALSE,,,,,,,153,mico,Catalan,Sounds/cat_mico.mp3,2020-06-14_18h11.09.523,TranslationElicitation_spa,3.2.4,Win32,60,5ee3dc4bdfe64a0b4411b8f4,13.89499998,1,0,80,47,1,79
,,,,,,,,,,,,,,,,,,,,,,,,,,,,,,,,,,,,,,,,,,,,,153,mico,Catalan,Sounds/cat_mico.mp3,2020-06-14_18h11.09.523,TranslationElicitation_spa,3.2.4,Win32,60,5ee3dc4bdfe64a0b4411b8f4,,1,0,80,47,1,79
,,,,,,,,,,,,,,,,,,,,,,,,,,,,,,,,,,,e,1.595000029,E,FALSE,,,,,,,131,esponja,Catalan,Sounds/cat_esponja.mp3,2020-06-14_18h11.09.523,TranslationElicitation_spa,3.2.4,Win32,60,5ee3dc4bdfe64a0b4411b8f4,,1,0,80,26,1,79
,,,,,,,,,,,,,,,,,,,,,,,,,,,,,,,,,,,s,1.761999846,ES,FALSE,,,,,,,131,esponja,Catalan,Sounds/cat_esponja.mp3,2020-06-14_18h11.09.523,TranslationElicitation_spa,3.2.4,Win32,60,5ee3dc4bdfe64a0b4411b8f4,,1,0,80,26,1,79
,,,,,,,,,,,,,,,,,,,,,,,,,,,,,,,,,,,p,2.228999853,ESP,FALSE,,,,,,,131,esponja,Catalan,Sounds/cat_esponja.mp3,2020-06-14_18h11.09.523,TranslationElicitation_spa,3.2.4,Win32,60,5ee3dc4bdfe64a0b4411b8f4,,1,0,80,26,1,79
,,,,,,,,,,,,,,,,,,,,,,,,,,,,,,,,,,,o,2.311999798,ESPO,FALSE,,,,,,,131,esponja,Catalan,Sounds/cat_esponja.mp3,2020-06-14_18h11.09.523,TranslationElicitation_spa,3.2.4,Win32,60,5ee3dc4bdfe64a0b4411b8f4,,1,0,80,26,1,79
,,,,,,,,,,,,,,,,,,,,,,,,,,,,,,,,,,,n,2.846999884,ESPON,FALSE,,,,,,,131,esponja,Catalan,Sounds/cat_esponja.mp3,2020-06-14_18h11.09.523,TranslationElicitation_spa,3.2.4,Win32,60,5ee3dc4bdfe64a0b4411b8f4,,1,0,80,26,1,79
,,,,,,,,,,,,,,,,,,,,,,,,,,,,,,,,,,,j,2.994999886,ESPONJ,FALSE,,,,,,,131,esponja,Catalan,Sounds/cat_esponja.mp3,2020-06-14_18h11.09.523,TranslationElicitation_spa,3.2.4,Win32,60,5ee3dc4bdfe64a0b4411b8f4,,1,0,80,26,1,79
,,,,,,,,,,,,,,,,,,,,,,,,,,,,,,,,,,,a,3.061999798,ESPONJA,FALSE,,,,,,,131,esponja,Catalan,Sounds/cat_esponja.mp3,2020-06-14_18h11.09.523,TranslationElicitation_spa,3.2.4,Win32,60,5ee3dc4bdfe64a0b4411b8f4,,1,0,80,26,1,79
,,,,,,,,,,,,,,,,,,,,,,,,,,,,,,,,,,,return,3.61500001,,FALSE,,,,,,,131,esponja,Catalan,Sounds/cat_esponja.mp3,2020-06-14_18h11.09.523,TranslationElicitation_spa,3.2.4,Win32,60,5ee3dc4bdfe64a0b4411b8f4,3.61500001,1,0,80,26,1,79
,,,,,,,,,,,,,,,,,,,,,,,,,,,,,,,,,,,,,,,,,,,,,131,esponja,Catalan,Sounds/cat_esponja.mp3,2020-06-14_18h11.09.523,TranslationElicitation_spa,3.2.4,Win32,60,5ee3dc4bdfe64a0b4411b8f4,,1,0,80,26,1,79
,,,,,,,,,,,,,,,,,,,,,,,,,,,,,,,,,,,c,1.614000082,C,FALSE,,,,,,,188,xocolata,Catalan,Sounds/cat_xocolata.mp3,2020-06-14_18h11.09.523,TranslationElicitation_spa,3.2.4,Win32,60,5ee3dc4bdfe64a0b4411b8f4,,1,0,80,78,1,79
,,,,,,,,,,,,,,,,,,,,,,,,,,,,,,,,,,,h,1.697000027,CH,FALSE,,,,,,,188,xocolata,Catalan,Sounds/cat_xocolata.mp3,2020-06-14_18h11.09.523,TranslationElicitation_spa,3.2.4,Win32,60,5ee3dc4bdfe64a0b4411b8f4,,1,0,80,78,1,79
,,,,,,,,,,,,,,,,,,,,,,,,,,,,,,,,,,,o,1.947000027,CHO,FALSE,,,,,,,188,xocolata,Catalan,Sounds/cat_xocolata.mp3,2020-06-14_18h11.09.523,TranslationElicitation_spa,3.2.4,Win32,60,5ee3dc4bdfe64a0b4411b8f4,,1,0,80,78,1,79
,,,,,,,,,,,,,,,,,,,,,,,,,,,,,,,,,,,c,2.330000162,CHOC,FALSE,,,,,,,188,xocolata,Catalan,Sounds/cat_xocolata.mp3,2020-06-14_18h11.09.523,TranslationElicitation_spa,3.2.4,Win32,60,5ee3dc4bdfe64a0b4411b8f4,,1,0,80,78,1,79
,,,,,,,,,,,,,,,,,,,,,,,,,,,,,,,,,,,o,2.414999962,CHOCO,FALSE,,,,,,,188,xocolata,Catalan,Sounds/cat_xocolata.mp3,2020-06-14_18h11.09.523,TranslationElicitation_spa,3.2.4,Win32,60,5ee3dc4bdfe64a0b4411b8f4,,1,0,80,78,1,79
,,,,,,,,,,,,,,,,,,,,,,,,,,,,,,,,,,,l,2.620000124,CHOCOL,FALSE,,,,,,,188,xocolata,Catalan,Sounds/cat_xocolata.mp3,2020-06-14_18h11.09.523,TranslationElicitation_spa,3.2.4,Win32,60,5ee3dc4bdfe64a0b4411b8f4,,1,0,80,78,1,79
,,,,,,,,,,,,,,,,,,,,,,,,,,,,,,,,,,,a,2.700999975,CHOCOLA,FALSE,,,,,,,188,xocolata,Catalan,Sounds/cat_xocolata.mp3,2020-06-14_18h11.09.523,TranslationElicitation_spa,3.2.4,Win32,60,5ee3dc4bdfe64a0b4411b8f4,,1,0,80,78,1,79
,,,,,,,,,,,,,,,,,,,,,,,,,,,,,,,,,,,t,3.130000114,CHOCOLAT,FALSE,,,,,,,188,xocolata,Catalan,Sounds/cat_xocolata.mp3,2020-06-14_18h11.09.523,TranslationElicitation_spa,3.2.4,Win32,60,5ee3dc4bdfe64a0b4411b8f4,,1,0,80,78,1,79
,,,,,,,,,,,,,,,,,,,,,,,,,,,,,,,,,,,e,3.180000067,CHOCOLATE,FALSE,,,,,,,188,xocolata,Catalan,Sounds/cat_xocolata.mp3,2020-06-14_18h11.09.523,TranslationElicitation_spa,3.2.4,Win32,60,5ee3dc4bdfe64a0b4411b8f4,,1,0,80,78,1,79
,,,,,,,,,,,,,,,,,,,,,,,,,,,,,,,,,,,return,4.430000067,,FALSE,,,,,,,188,xocolata,Catalan,Sounds/cat_xocolata.mp3,2020-06-14_18h11.09.523,TranslationElicitation_spa,3.2.4,Win32,60,5ee3dc4bdfe64a0b4411b8f4,4.430000067,1,0,80,78,1,79
,,,,,,,,,,,,,,,,,,,,,,,,,,,,,,,,,,,,,,,,,,,,,188,xocolata,Catalan,Sounds/cat_xocolata.mp3,2020-06-14_18h11.09.523,TranslationElicitation_spa,3.2.4,Win32,60,5ee3dc4bdfe64a0b4411b8f4,,1,0,80,78,1,79
,,,,,,,,,,,,,,,,,,,,,,,,,,,,,,,,,,,a,1.515000105,A,FALSE,,,,,,,108,ampolla,Catalan,Sounds/cat_ampolla.mp3,2020-06-14_18h11.09.523,TranslationElicitation_spa,3.2.4,Win32,60,5ee3dc4bdfe64a0b4411b8f4,,1,0,80,4,1,79
,,,,,,,,,,,,,,,,,,,,,,,,,,,,,,,,,,,m,1.631999969,AM,FALSE,,,,,,,108,ampolla,Catalan,Sounds/cat_ampolla.mp3,2020-06-14_18h11.09.523,TranslationElicitation_spa,3.2.4,Win32,60,5ee3dc4bdfe64a0b4411b8f4,,1,0,80,4,1,79
,,,,,,,,,,,,,,,,,,,,,,,,,,,,,,,,,,,p,2.430999994,AMP,FALSE,,,,,,,108,ampolla,Catalan,Sounds/cat_ampolla.mp3,2020-06-14_18h11.09.523,TranslationElicitation_spa,3.2.4,Win32,60,5ee3dc4bdfe64a0b4411b8f4,,1,0,80,4,1,79
,,,,,,,,,,,,,,,,,,,,,,,,,,,,,,,,,,,o,2.567000151,AMPO,FALSE,,,,,,,108,ampolla,Catalan,Sounds/cat_ampolla.mp3,2020-06-14_18h11.09.523,TranslationElicitation_spa,3.2.4,Win32,60,5ee3dc4bdfe64a0b4411b8f4,,1,0,80,4,1,79
,,,,,,,,,,,,,,,,,,,,,,,,,,,,,,,,,,,l,2.765000105,AMPOL,FALSE,,,,,,,108,ampolla,Catalan,Sounds/cat_ampolla.mp3,2020-06-14_18h11.09.523,TranslationElicitation_spa,3.2.4,Win32,60,5ee3dc4bdfe64a0b4411b8f4,,1,0,80,4,1,79
,,,,,,,,,,,,,,,,,,,,,,,,,,,,,,,,,,,l,2.881000042,AMPOLL,FALSE,,,,,,,108,ampolla,Catalan,Sounds/cat_ampolla.mp3,2020-06-14_18h11.09.523,TranslationElicitation_spa,3.2.4,Win32,60,5ee3dc4bdfe64a0b4411b8f4,,1,0,80,4,1,79
,,,,,,,,,,,,,,,,,,,,,,,,,,,,,,,,,,,a,2.930999994,AMPOLLA,FALSE,,,,,,,108,ampolla,Catalan,Sounds/cat_ampolla.mp3,2020-06-14_18h11.09.523,TranslationElicitation_spa,3.2.4,Win32,60,5ee3dc4bdfe64a0b4411b8f4,,1,0,80,4,1,79
,,,,,,,,,,,,,,,,,,,,,,,,,,,,,,,,,,,return,3.248000145,,FALSE,,,,,,,108,ampolla,Catalan,Sounds/cat_ampolla.mp3,2020-06-14_18h11.09.523,TranslationElicitation_spa,3.2.4,Win32,60,5ee3dc4bdfe64a0b4411b8f4,3.248000145,1,0,80,4,1,79
,,,,,,,,,,,,,,,,,,,,,,,,,,,,,,,,,,,,,,,,,,,,,108,ampolla,Catalan,Sounds/cat_ampolla.mp3,2020-06-14_18h11.09.523,TranslationElicitation_spa,3.2.4,Win32,60,5ee3dc4bdfe64a0b4411b8f4,,1,0,80,4,1,79
,,,,,,,,,,,,,,,,,,,,,,,,,,,,,,,,,,,g,2.914999962,G,FALSE,,,,,,,140,gat,Catalan,Sounds/cat_gat.mp3,2020-06-14_18h11.09.523,TranslationElicitation_spa,3.2.4,Win32,60,5ee3dc4bdfe64a0b4411b8f4,,1,0,80,35,1,79
,,,,,,,,,,,,,,,,,,,,,,,,,,,,,,,,,,,a,3.029999971,GA,FALSE,,,,,,,140,gat,Catalan,Sounds/cat_gat.mp3,2020-06-14_18h11.09.523,TranslationElicitation_spa,3.2.4,Win32,60,5ee3dc4bdfe64a0b4411b8f4,,1,0,80,35,1,79
,,,,,,,,,,,,,,,,,,,,,,,,,,,,,,,,,,,t,3.097000122,GAT,FALSE,,,,,,,140,gat,Catalan,Sounds/cat_gat.mp3,2020-06-14_18h11.09.523,TranslationElicitation_spa,3.2.4,Win32,60,5ee3dc4bdfe64a0b4411b8f4,,1,0,80,35,1,79
,,,,,,,,,,,,,,,,,,,,,,,,,,,,,,,,,,,o,3.580000162,GATO,FALSE,,,,,,,140,gat,Catalan,Sounds/cat_gat.mp3,2020-06-14_18h11.09.523,TranslationElicitation_spa,3.2.4,Win32,60,5ee3dc4bdfe64a0b4411b8f4,,1,0,80,35,1,79
,,,,,,,,,,,,,,,,,,,,,,,,,,,,,,,,,,,return,3.830000162,,FALSE,,,,,,,140,gat,Catalan,Sounds/cat_gat.mp3,2020-06-14_18h11.09.523,TranslationElicitation_spa,3.2.4,Win32,60,5ee3dc4bdfe64a0b4411b8f4,3.830000162,1,0,80,35,1,79
,,,,,,,,,,,,,,,,,,,,,,,,,,,,,,,,,,,,,,,,,,,,,140,gat,Catalan,Sounds/cat_gat.mp3,2020-06-14_18h11.09.523,TranslationElicitation_spa,3.2.4,Win32,60,5ee3dc4bdfe64a0b4411b8f4,,1,0,80,35,1,79
,,,,,,,,,,,,,,,,,,,,,,,,,,,,,,,,,,,o,1.398999929,O,FALSE,,,,,,,160,orella,Catalan,Sounds/cat_orella.mp3,2020-06-14_18h11.09.523,TranslationElicitation_spa,3.2.4,Win32,60,5ee3dc4bdfe64a0b4411b8f4,,1,0,80,53,1,79
,,,,,,,,,,,,,,,,,,,,,,,,,,,,,,,,,,,r,1.515000105,OR,FALSE,,,,,,,160,orella,Catalan,Sounds/cat_orella.mp3,2020-06-14_18h11.09.523,TranslationElicitation_spa,3.2.4,Win32,60,5ee3dc4bdfe64a0b4411b8f4,,1,0,80,53,1,79
,,,,,,,,,,,,,,,,,,,,,,,,,,,,,,,,,,,e,1.697999954,ORE,FALSE,,,,,,,160,orella,Catalan,Sounds/cat_orella.mp3,2020-06-14_18h11.09.523,TranslationElicitation_spa,3.2.4,Win32,60,5ee3dc4bdfe64a0b4411b8f4,,1,0,80,53,1,79
,,,,,,,,,,,,,,,,,,,,,,,,,,,,,,,,,,,j,2.265000105,OREJ,FALSE,,,,,,,160,orella,Catalan,Sounds/cat_orella.mp3,2020-06-14_18h11.09.523,TranslationElicitation_spa,3.2.4,Win32,60,5ee3dc4bdfe64a0b4411b8f4,,1,0,80,53,1,79
,,,,,,,,,,,,,,,,,,,,,,,,,,,,,,,,,,,a,2.318000078,OREJA,FALSE,,,,,,,160,orella,Catalan,Sounds/cat_orella.mp3,2020-06-14_18h11.09.523,TranslationElicitation_spa,3.2.4,Win32,60,5ee3dc4bdfe64a0b4411b8f4,,1,0,80,53,1,79
,,,,,,,,,,,,,,,,,,,,,,,,,,,,,,,,,,,return,3.980999947,,FALSE,,,,,,,160,orella,Catalan,Sounds/cat_orella.mp3,2020-06-14_18h11.09.523,TranslationElicitation_spa,3.2.4,Win32,60,5ee3dc4bdfe64a0b4411b8f4,3.980999947,1,0,80,53,1,79
,,,,,,,,,,,,,,,,,,,,,,,,,,,,,,,,,,,,,,,,,,,,,160,orella,Catalan,Sounds/cat_orella.mp3,2020-06-14_18h11.09.523,TranslationElicitation_spa,3.2.4,Win32,60,5ee3dc4bdfe64a0b4411b8f4,,1,0,80,53,1,79
,,,,,,,,,,,,,,,,,,,,,,,,,,,,,,,,,,,c,1.715000153,C,FALSE,,,,,,,189,zebra,Catalan,Sounds/cat_zebra.mp3,2020-06-14_18h11.09.523,TranslationElicitation_spa,3.2.4,Win32,60,5ee3dc4bdfe64a0b4411b8f4,,1,0,80,79,1,79
,,,,,,,,,,,,,,,,,,,,,,,,,,,,,,,,,,,e,1.899000168,CE,FALSE,,,,,,,189,zebra,Catalan,Sounds/cat_zebra.mp3,2020-06-14_18h11.09.523,TranslationElicitation_spa,3.2.4,Win32,60,5ee3dc4bdfe64a0b4411b8f4,,1,0,80,79,1,79
,,,,,,,,,,,,,,,,,,,,,,,,,,,,,,,,,,,b,2.44900012,CEB,FALSE,,,,,,,189,zebra,Catalan,Sounds/cat_zebra.mp3,2020-06-14_18h11.09.523,TranslationElicitation_spa,3.2.4,Win32,60,5ee3dc4bdfe64a0b4411b8f4,,1,0,80,79,1,79
,,,,,,,,,,,,,,,,,,,,,,,,,,,,,,,,,,,r,2.649000168,CEBR,FALSE,,,,,,,189,zebra,Catalan,Sounds/cat_zebra.mp3,2020-06-14_18h11.09.523,TranslationElicitation_spa,3.2.4,Win32,60,5ee3dc4bdfe64a0b4411b8f4,,1,0,80,79,1,79
,,,,,,,,,,,,,,,,,,,,,,,,,,,,,,,,,,,a,2.715000153,CEBRA,FALSE,,,,,,,189,zebra,Catalan,Sounds/cat_zebra.mp3,2020-06-14_18h11.09.523,TranslationElicitation_spa,3.2.4,Win32,60,5ee3dc4bdfe64a0b4411b8f4,,1,0,80,79,1,79
,,,,,,,,,,,,,,,,,,,,,,,,,,,,,,,,,,,return,3.215000153,,FALSE,,,,,,,189,zebra,Catalan,Sounds/cat_zebra.mp3,2020-06-14_18h11.09.523,TranslationElicitation_spa,3.2.4,Win32,60,5ee3dc4bdfe64a0b4411b8f4,3.215000153,1,0,80,79,1,79
,,,,,,,,,,,,,,,,,,,,,,,,,,,,,,,,,,,,,,,,,,,,,189,zebra,Catalan,Sounds/cat_zebra.mp3,2020-06-14_18h11.09.523,TranslationElicitation_spa,3.2.4,Win32,60,5ee3dc4bdfe64a0b4411b8f4,,1,0,80,79,1,79
,,,,,,,,,,,,,,,,,,,,,,,,,,,,,,,,,,,l,2.180000067,L,FALSE,,,,,,,150,lloro,Catalan,Sounds/cat_lloro.mp3,2020-06-14_18h11.09.523,TranslationElicitation_spa,3.2.4,Win32,60,5ee3dc4bdfe64a0b4411b8f4,,1,0,80,44,1,79
,,,,,,,,,,,,,,,,,,,,,,,,,,,,,,,,,,,o,2.33100009,LO,FALSE,,,,,,,150,lloro,Catalan,Sounds/cat_lloro.mp3,2020-06-14_18h11.09.523,TranslationElicitation_spa,3.2.4,Win32,60,5ee3dc4bdfe64a0b4411b8f4,,1,0,80,44,1,79
,,,,,,,,,,,,,,,,,,,,,,,,,,,,,,,,,,,r,2.447000027,LOR,FALSE,,,,,,,150,lloro,Catalan,Sounds/cat_lloro.mp3,2020-06-14_18h11.09.523,TranslationElicitation_spa,3.2.4,Win32,60,5ee3dc4bdfe64a0b4411b8f4,,1,0,80,44,1,79
