consentKey.keys,consentKey.rt,languageL1Key.keys,languageL1Key.rt,languageL2,languageL2OralKey.keys,languageL2OralKey.rt,languageL2WrittenKey.keys,languageL2WrittenKey.rt,languageL3OralKey.keys,languageL3OralKey.rt,languageL3WrittenKey.keys,languageL3WrittenKey.rt,languageCatalanOralKey.keys,languageCatalanOralKey.rt,languageCatalanWrittenKey.keys,languageCatalanWrittenKey.rt,languageCatalanTimeKey.keys,languageCatalanTimeKey.rt,age,demoSexKey.keys,demoSexKey.rt,demoEducationKey.keys,demoEducationKey.rt,city,demoVisionKey.keys,demoVisionKey.rt,demoLanguageKey.keys,demoLanguageKey.rt,setupLocationKey.keys,setupLocationKey.rt,setupNoiseKey.keys,setupNoiseKey.rt,instructionsKeys.keys,instructionsKeys.rt,keyPressed,keyPressTime,inputText,error,trials_practice.thisRepN,trials_practice.thisTrialN,trials_practice.thisN,trials_practice.thisIndex,trials_practice.ran,trials_practice.order,trial_id,word,test_language,soundfile,date,expName,psychopyVersion,OS,frameRate,participant,trialOffset,trials.thisRepN,trials.thisTrialN,trials.thisN,trials.thisIndex,trials.ran,trials.order
space,0.248999834,e,4.135999918,,,,,,,,,,2,11.13199997,1,8.430999756,1,7.833999872,19,m,2.179999828,3,9.600999832,ALBACETE,s,6.357999802,n,3.190000057,1,3.11500001,2,6.267999887,space,71.78499985,space,30.6730001, ,FALSE,1,0,5,3,1,4,167,pingui,Catalan,Sounds/cat_pingui.mp3,2020-06-15_17h55.19.900,TranslationElicitation_spa,3.2.4,Win32,60,5ee3e04903b8560b39e58d9e,,,,,,,
,,,,,,,,,,,,,,,,,,,,,,,,,,,,,,,,,,,return,35.5940001,,FALSE,1,0,5,3,1,4,167,pingui,Catalan,Sounds/cat_pingui.mp3,2020-06-15_17h55.19.900,TranslationElicitation_spa,3.2.4,Win32,60,5ee3e04903b8560b39e58d9e,35.5940001,,,,,,
,,,,,,,,,,,,,,,,,,,,,,,,,,,,,,,,,,,,,,,1,0,5,3,1,4,167,pingui,Catalan,Sounds/cat_pingui.mp3,2020-06-15_17h55.19.900,TranslationElicitation_spa,3.2.4,Win32,60,5ee3e04903b8560b39e58d9e,,,,,,,
,,,,,,,,,,,,,,,,,,,,,,,,,,,,,,,,,,,return,6.378999949,,FALSE,1,0,5,4,1,4,179,tigre,Catalan,Sounds/cat_tigre.mp3,2020-06-15_17h55.19.900,TranslationElicitation_spa,3.2.4,Win32,60,5ee3e04903b8560b39e58d9e,6.378999949,,,,,,
,,,,,,,,,,,,,,,,,,,,,,,,,,,,,,,,,,,,,,,1,0,5,4,1,4,179,tigre,Catalan,Sounds/cat_tigre.mp3,2020-06-15_17h55.19.900,TranslationElicitation_spa,3.2.4,Win32,60,5ee3e04903b8560b39e58d9e,,,,,,,
,,,,,,,,,,,,,,,,,,,,,,,,,,,,,,,,,,,return,4.417999983,,FALSE,1,0,5,0,1,4,109,arbre,Catalan,Sounds/cat_arbre.mp3,2020-06-15_17h55.19.900,TranslationElicitation_spa,3.2.4,Win32,60,5ee3e04903b8560b39e58d9e,4.417999983,,,,,,
,,,,,,,,,,,,,,,,,,,,,,,,,,,,,,,,,,,,,,,1,0,5,0,1,4,109,arbre,Catalan,Sounds/cat_arbre.mp3,2020-06-15_17h55.19.900,TranslationElicitation_spa,3.2.4,Win32,60,5ee3e04903b8560b39e58d9e,,,,,,,
,,,,,,,,,,,,,,,,,,,,,,,,,,,,,,,,,,,return,8.838999987,,FALSE,1,0,5,2,1,4,159,onada,Catalan,Sounds/cat_onada.mp3,2020-06-15_17h55.19.900,TranslationElicitation_spa,3.2.4,Win32,60,5ee3e04903b8560b39e58d9e,8.838999987,,,,,,
,,,,,,,,,,,,,,,,,,,,,,,,,,,,,,,,,,,,,,,1,0,5,2,1,4,159,onada,Catalan,Sounds/cat_onada.mp3,2020-06-15_17h55.19.900,TranslationElicitation_spa,3.2.4,Win32,60,5ee3e04903b8560b39e58d9e,,,,,,,
,,,,,,,,,,,,,,,,,,,,,,,,,,,,,,,,,,,return,4.378999949,,FALSE,1,0,5,1,1,4,147,jaqueta,Catalan,Sounds/cat_jaqueta.mp3,2020-06-15_17h55.19.900,TranslationElicitation_spa,3.2.4,Win32,60,5ee3e04903b8560b39e58d9e,4.378999949,,,,,,
,,,,,,,,,,,,,,,,,,,,,,,,,,,,,,,,,,,,,,,1,0,5,1,1,4,147,jaqueta,Catalan,Sounds/cat_jaqueta.mp3,2020-06-15_17h55.19.900,TranslationElicitation_spa,3.2.4,Win32,60,5ee3e04903b8560b39e58d9e,,,,,,,
,,,,,,,,,,,,,,,,,,,,,,,,,,,,,,,,,,,m,4.039999962,M,FALSE,,,,,,,155,moneda,Catalan,Sounds/cat_moneda.mp3,2020-06-15_17h55.19.900,TranslationElicitation_spa,3.2.4,Win32,60,5ee3e04903b8560b39e58d9e,,1,0,80,49,1,79
,,,,,,,,,,,,,,,,,,,,,,,,,,,,,,,,,,,o,4.256999969,MO,FALSE,,,,,,,155,moneda,Catalan,Sounds/cat_moneda.mp3,2020-06-15_17h55.19.900,TranslationElicitation_spa,3.2.4,Win32,60,5ee3e04903b8560b39e58d9e,,1,0,80,49,1,79
,,,,,,,,,,,,,,,,,,,,,,,,,,,,,,,,,,,n,4.555000067,MON,FALSE,,,,,,,155,moneda,Catalan,Sounds/cat_moneda.mp3,2020-06-15_17h55.19.900,TranslationElicitation_spa,3.2.4,Win32,60,5ee3e04903b8560b39e58d9e,,1,0,80,49,1,79
,,,,,,,,,,,,,,,,,,,,,,,,,,,,,,,,,,,e,5.286000013,MONE,FALSE,,,,,,,155,moneda,Catalan,Sounds/cat_moneda.mp3,2020-06-15_17h55.19.900,TranslationElicitation_spa,3.2.4,Win32,60,5ee3e04903b8560b39e58d9e,,1,0,80,49,1,79
,,,,,,,,,,,,,,,,,,,,,,,,,,,,,,,,,,,d,5.413000107,MONED,FALSE,,,,,,,155,moneda,Catalan,Sounds/cat_moneda.mp3,2020-06-15_17h55.19.900,TranslationElicitation_spa,3.2.4,Win32,60,5ee3e04903b8560b39e58d9e,,1,0,80,49,1,79
,,,,,,,,,,,,,,,,,,,,,,,,,,,,,,,,,,,a,5.555000067,MONEDA,FALSE,,,,,,,155,moneda,Catalan,Sounds/cat_moneda.mp3,2020-06-15_17h55.19.900,TranslationElicitation_spa,3.2.4,Win32,60,5ee3e04903b8560b39e58d9e,,1,0,80,49,1,79
,,,,,,,,,,,,,,,,,,,,,,,,,,,,,,,,,,,return,6.40199995,,FALSE,,,,,,,155,moneda,Catalan,Sounds/cat_moneda.mp3,2020-06-15_17h55.19.900,TranslationElicitation_spa,3.2.4,Win32,60,5ee3e04903b8560b39e58d9e,6.401000023,1,0,80,49,1,79
,,,,,,,,,,,,,,,,,,,,,,,,,,,,,,,,,,,,,,,,,,,,,155,moneda,Catalan,Sounds/cat_moneda.mp3,2020-06-15_17h55.19.900,TranslationElicitation_spa,3.2.4,Win32,60,5ee3e04903b8560b39e58d9e,,1,0,80,49,1,79
,,,,,,,,,,,,,,,,,,,,,,,,,,,,,,,,,,,e,8.849999905,E,FALSE,,,,,,,175,raspall,Catalan,Sounds/cat_raspall.mp3,2020-06-15_17h55.19.900,TranslationElicitation_spa,3.2.4,Win32,60,5ee3e04903b8560b39e58d9e,,1,0,80,67,1,79
,,,,,,,,,,,,,,,,,,,,,,,,,,,,,,,,,,,s,9.04399991,ES,FALSE,,,,,,,175,raspall,Catalan,Sounds/cat_raspall.mp3,2020-06-15_17h55.19.900,TranslationElicitation_spa,3.2.4,Win32,60,5ee3e04903b8560b39e58d9e,,1,0,80,67,1,79
,,,,,,,,,,,,,,,,,,,,,,,,,,,,,,,,,,,p,9.207999945,ESP,FALSE,,,,,,,175,raspall,Catalan,Sounds/cat_raspall.mp3,2020-06-15_17h55.19.900,TranslationElicitation_spa,3.2.4,Win32,60,5ee3e04903b8560b39e58d9e,,1,0,80,67,1,79
,,,,,,,,,,,,,,,,,,,,,,,,,,,,,,,,,,,a,9.628000021,ESPA,FALSE,,,,,,,175,raspall,Catalan,Sounds/cat_raspall.mp3,2020-06-15_17h55.19.900,TranslationElicitation_spa,3.2.4,Win32,60,5ee3e04903b8560b39e58d9e,,1,0,80,67,1,79
,,,,,,,,,,,,,,,,,,,,,,,,,,,,,,,,,,,d,10.92799997,ESPAD,FALSE,,,,,,,175,raspall,Catalan,Sounds/cat_raspall.mp3,2020-06-15_17h55.19.900,TranslationElicitation_spa,3.2.4,Win32,60,5ee3e04903b8560b39e58d9e,,1,0,80,67,1,79
,,,,,,,,,,,,,,,,,,,,,,,,,,,,,,,,,,,backspace,11.81599998,ESP,TRUE,,,,,,,175,raspall,Catalan,Sounds/cat_raspall.mp3,2020-06-15_17h55.19.900,TranslationElicitation_spa,3.2.4,Win32,60,5ee3e04903b8560b39e58d9e,,1,0,80,67,1,79
,,,,,,,,,,,,,,,,,,,,,,,,,,,,,,,,,,,backspace,12.24199986,E,TRUE,,,,,,,175,raspall,Catalan,Sounds/cat_raspall.mp3,2020-06-15_17h55.19.900,TranslationElicitation_spa,3.2.4,Win32,60,5ee3e04903b8560b39e58d9e,,1,0,80,67,1,79
,,,,,,,,,,,,,,,,,,,,,,,,,,,,,,,,,,,backspace,12.2809999,,TRUE,,,,,,,175,raspall,Catalan,Sounds/cat_raspall.mp3,2020-06-15_17h55.19.900,TranslationElicitation_spa,3.2.4,Win32,60,5ee3e04903b8560b39e58d9e,,1,0,80,67,1,79
,,,,,,,,,,,,,,,,,,,,,,,,,,,,,,,,,,,backspace,12.29299998,,TRUE,,,,,,,175,raspall,Catalan,Sounds/cat_raspall.mp3,2020-06-15_17h55.19.900,TranslationElicitation_spa,3.2.4,Win32,60,5ee3e04903b8560b39e58d9e,,1,0,80,67,1,79
,,,,,,,,,,,,,,,,,,,,,,,,,,,,,,,,,,,backspace,12.31699991,,TRUE,,,,,,,175,raspall,Catalan,Sounds/cat_raspall.mp3,2020-06-15_17h55.19.900,TranslationElicitation_spa,3.2.4,Win32,60,5ee3e04903b8560b39e58d9e,,1,0,80,67,1,79
,,,,,,,,,,,,,,,,,,,,,,,,,,,,,,,,,,,backspace,12.33500004,,TRUE,,,,,,,175,raspall,Catalan,Sounds/cat_raspall.mp3,2020-06-15_17h55.19.900,TranslationElicitation_spa,3.2.4,Win32,60,5ee3e04903b8560b39e58d9e,,1,0,80,67,1,79
,,,,,,,,,,,,,,,,,,,,,,,,,,,,,,,,,,,backspace,12.37400007,,TRUE,,,,,,,175,raspall,Catalan,Sounds/cat_raspall.mp3,2020-06-15_17h55.19.900,TranslationElicitation_spa,3.2.4,Win32,60,5ee3e04903b8560b39e58d9e,,1,0,80,67,1,79
,,,,,,,,,,,,,,,,,,,,,,,,,,,,,,,,,,,backspace,12.39199996,,TRUE,,,,,,,175,raspall,Catalan,Sounds/cat_raspall.mp3,2020-06-15_17h55.19.900,TranslationElicitation_spa,3.2.4,Win32,60,5ee3e04903b8560b39e58d9e,,1,0,80,67,1,79
,,,,,,,,,,,,,,,,,,,,,,,,,,,,,,,,,,,backspace,12.41499996,,TRUE,,,,,,,175,raspall,Catalan,Sounds/cat_raspall.mp3,2020-06-15_17h55.19.900,TranslationElicitation_spa,3.2.4,Win32,60,5ee3e04903b8560b39e58d9e,,1,0,80,67,1,79
,,,,,,,,,,,,,,,,,,,,,,,,,,,,,,,,,,,backspace,12.43499994,,TRUE,,,,,,,175,raspall,Catalan,Sounds/cat_raspall.mp3,2020-06-15_17h55.19.900,TranslationElicitation_spa,3.2.4,Win32,60,5ee3e04903b8560b39e58d9e,,1,0,80,67,1,79
,,,,,,,,,,,,,,,,,,,,,,,,,,,,,,,,,,,backspace,12.45599985,,TRUE,,,,,,,175,raspall,Catalan,Sounds/cat_raspall.mp3,2020-06-15_17h55.19.900,TranslationElicitation_spa,3.2.4,Win32,60,5ee3e04903b8560b39e58d9e,,1,0,80,67,1,79
,,,,,,,,,,,,,,,,,,,,,,,,,,,,,,,,,,,backspace,12.49300003,,TRUE,,,,,,,175,raspall,Catalan,Sounds/cat_raspall.mp3,2020-06-15_17h55.19.900,TranslationElicitation_spa,3.2.4,Win32,60,5ee3e04903b8560b39e58d9e,,1,0,80,67,1,79
,,,,,,,,,,,,,,,,,,,,,,,,,,,,,,,,,,,backspace,12.51499987,,TRUE,,,,,,,175,raspall,Catalan,Sounds/cat_raspall.mp3,2020-06-15_17h55.19.900,TranslationElicitation_spa,3.2.4,Win32,60,5ee3e04903b8560b39e58d9e,,1,0,80,67,1,79
,,,,,,,,,,,,,,,,,,,,,,,,,,,,,,,,,,,backspace,12.53500009,,TRUE,,,,,,,175,raspall,Catalan,Sounds/cat_raspall.mp3,2020-06-15_17h55.19.900,TranslationElicitation_spa,3.2.4,Win32,60,5ee3e04903b8560b39e58d9e,,1,0,80,67,1,79
,,,,,,,,,,,,,,,,,,,,,,,,,,,,,,,,,,,backspace,12.55200005,,TRUE,,,,,,,175,raspall,Catalan,Sounds/cat_raspall.mp3,2020-06-15_17h55.19.900,TranslationElicitation_spa,3.2.4,Win32,60,5ee3e04903b8560b39e58d9e,,1,0,80,67,1,79
,,,,,,,,,,,,,,,,,,,,,,,,,,,,,,,,,,,backspace,12.58500004,,TRUE,,,,,,,175,raspall,Catalan,Sounds/cat_raspall.mp3,2020-06-15_17h55.19.900,TranslationElicitation_spa,3.2.4,Win32,60,5ee3e04903b8560b39e58d9e,,1,0,80,67,1,79
,,,,,,,,,,,,,,,,,,,,,,,,,,,,,,,,,,,backspace,12.60699987,,TRUE,,,,,,,175,raspall,Catalan,Sounds/cat_raspall.mp3,2020-06-15_17h55.19.900,TranslationElicitation_spa,3.2.4,Win32,60,5ee3e04903b8560b39e58d9e,,1,0,80,67,1,79
,,,,,,,,,,,,,,,,,,,,,,,,,,,,,,,,,,,r,12.64499998,R,TRUE,,,,,,,175,raspall,Catalan,Sounds/cat_raspall.mp3,2020-06-15_17h55.19.900,TranslationElicitation_spa,3.2.4,Win32,60,5ee3e04903b8560b39e58d9e,,1,0,80,67,1,79
,,,,,,,,,,,,,,,,,,,,,,,,,,,,,,,,,,,a,12.81099987,RA,TRUE,,,,,,,175,raspall,Catalan,Sounds/cat_raspall.mp3,2020-06-15_17h55.19.900,TranslationElicitation_spa,3.2.4,Win32,60,5ee3e04903b8560b39e58d9e,,1,0,80,67,1,79
,,,,,,,,,,,,,,,,,,,,,,,,,,,,,,,,,,,s,13.03600001,RAS,TRUE,,,,,,,175,raspall,Catalan,Sounds/cat_raspall.mp3,2020-06-15_17h55.19.900,TranslationElicitation_spa,3.2.4,Win32,60,5ee3e04903b8560b39e58d9e,,1,0,80,67,1,79
,,,,,,,,,,,,,,,,,,,,,,,,,,,,,,,,,,,p,13.32099986,RASP,TRUE,,,,,,,175,raspall,Catalan,Sounds/cat_raspall.mp3,2020-06-15_17h55.19.900,TranslationElicitation_spa,3.2.4,Win32,60,5ee3e04903b8560b39e58d9e,,1,0,80,67,1,79
,,,,,,,,,,,,,,,,,,,,,,,,,,,,,,,,,,,a,13.39199996,RASPA,TRUE,,,,,,,175,raspall,Catalan,Sounds/cat_raspall.mp3,2020-06-15_17h55.19.900,TranslationElicitation_spa,3.2.4,Win32,60,5ee3e04903b8560b39e58d9e,,1,0,80,67,1,79
,,,,,,,,,,,,,,,,,,,,,,,,,,,,,,,,,,,r,13.98699999,RASPAR,TRUE,,,,,,,175,raspall,Catalan,Sounds/cat_raspall.mp3,2020-06-15_17h55.19.900,TranslationElicitation_spa,3.2.4,Win32,60,5ee3e04903b8560b39e58d9e,,1,0,80,67,1,79
,,,,,,,,,,,,,,,,,,,,,,,,,,,,,,,,,,,return,14.32099986,,TRUE,,,,,,,175,raspall,Catalan,Sounds/cat_raspall.mp3,2020-06-15_17h55.19.900,TranslationElicitation_spa,3.2.4,Win32,60,5ee3e04903b8560b39e58d9e,14.32099986,1,0,80,67,1,79
,,,,,,,,,,,,,,,,,,,,,,,,,,,,,,,,,,,,,,,,,,,,,175,raspall,Catalan,Sounds/cat_raspall.mp3,2020-06-15_17h55.19.900,TranslationElicitation_spa,3.2.4,Win32,60,5ee3e04903b8560b39e58d9e,,1,0,80,67,1,79
,,,,,,,,,,,,,,,,,,,,,,,,,,,,,,,,,,,a,5.006999969,A,FALSE,,,,,,,111,bibero,Catalan,Sounds/cat_bibero.mp3,2020-06-15_17h55.19.900,TranslationElicitation_spa,3.2.4,Win32,60,5ee3e04903b8560b39e58d9e,,1,0,80,6,1,79
,,,,,,,,,,,,,,,,,,,,,,,,,,,,,,,,,,,n,5.138000011,AN,FALSE,,,,,,,111,bibero,Catalan,Sounds/cat_bibero.mp3,2020-06-15_17h55.19.900,TranslationElicitation_spa,3.2.4,Win32,60,5ee3e04903b8560b39e58d9e,,1,0,80,6,1,79
,,,,,,,,,,,,,,,,,,,,,,,,,,,,,,,,,,,i,5.272000074,ANI,FALSE,,,,,,,111,bibero,Catalan,Sounds/cat_bibero.mp3,2020-06-15_17h55.19.900,TranslationElicitation_spa,3.2.4,Win32,60,5ee3e04903b8560b39e58d9e,,1,0,80,6,1,79
,,,,,,,,,,,,,,,,,,,,,,,,,,,,,,,,,,,m,5.687999964,ANIM,FALSE,,,,,,,111,bibero,Catalan,Sounds/cat_bibero.mp3,2020-06-15_17h55.19.900,TranslationElicitation_spa,3.2.4,Win32,60,5ee3e04903b8560b39e58d9e,,1,0,80,6,1,79
,,,,,,,,,,,,,,,,,,,,,,,,,,,,,,,,,,,a,5.869999886,ANIMA,FALSE,,,,,,,111,bibero,Catalan,Sounds/cat_bibero.mp3,2020-06-15_17h55.19.900,TranslationElicitation_spa,3.2.4,Win32,60,5ee3e04903b8560b39e58d9e,,1,0,80,6,1,79
,,,,,,,,,,,,,,,,,,,,,,,,,,,,,,,,,,,d,6.162999868,ANIMAD,FALSE,,,,,,,111,bibero,Catalan,Sounds/cat_bibero.mp3,2020-06-15_17h55.19.900,TranslationElicitation_spa,3.2.4,Win32,60,5ee3e04903b8560b39e58d9e,,1,0,80,6,1,79
,,,,,,,,,,,,,,,,,,,,,,,,,,,,,,,,,,,o,6.342000008,ANIMADO,FALSE,,,,,,,111,bibero,Catalan,Sounds/cat_bibero.mp3,2020-06-15_17h55.19.900,TranslationElicitation_spa,3.2.4,Win32,60,5ee3e04903b8560b39e58d9e,,1,0,80,6,1,79
,,,,,,,,,,,,,,,,,,,,,,,,,,,,,,,,,,,return,6.898000002,,FALSE,,,,,,,111,bibero,Catalan,Sounds/cat_bibero.mp3,2020-06-15_17h55.19.900,TranslationElicitation_spa,3.2.4,Win32,60,5ee3e04903b8560b39e58d9e,6.898000002,1,0,80,6,1,79
,,,,,,,,,,,,,,,,,,,,,,,,,,,,,,,,,,,,,,,,,,,,,111,bibero,Catalan,Sounds/cat_bibero.mp3,2020-06-15_17h55.19.900,TranslationElicitation_spa,3.2.4,Win32,60,5ee3e04903b8560b39e58d9e,,1,0,80,6,1,79
,,,,,,,,,,,,,,,,,,,,,,,,,,,,,,,,,,,p,2.782999992,P,FALSE,,,,,,,164,patata,Catalan,Sounds/cat_patata.mp3,2020-06-15_17h55.19.900,TranslationElicitation_spa,3.2.4,Win32,60,5ee3e04903b8560b39e58d9e,,1,0,80,57,1,79
,,,,,,,,,,,,,,,,,,,,,,,,,,,,,,,,,,,a,2.933000088,PA,FALSE,,,,,,,164,patata,Catalan,Sounds/cat_patata.mp3,2020-06-15_17h55.19.900,TranslationElicitation_spa,3.2.4,Win32,60,5ee3e04903b8560b39e58d9e,,1,0,80,57,1,79
,,,,,,,,,,,,,,,,,,,,,,,,,,,,,,,,,,,t,3.23300004,PAT,FALSE,,,,,,,164,patata,Catalan,Sounds/cat_patata.mp3,2020-06-15_17h55.19.900,TranslationElicitation_spa,3.2.4,Win32,60,5ee3e04903b8560b39e58d9e,,1,0,80,57,1,79
,,,,,,,,,,,,,,,,,,,,,,,,,,,,,,,,,,,a,3.316999912,PATA,FALSE,,,,,,,164,patata,Catalan,Sounds/cat_patata.mp3,2020-06-15_17h55.19.900,TranslationElicitation_spa,3.2.4,Win32,60,5ee3e04903b8560b39e58d9e,,1,0,80,57,1,79
,,,,,,,,,,,,,,,,,,,,,,,,,,,,,,,,,,,t,3.400000095,PATAT,FALSE,,,,,,,164,patata,Catalan,Sounds/cat_patata.mp3,2020-06-15_17h55.19.900,TranslationElicitation_spa,3.2.4,Win32,60,5ee3e04903b8560b39e58d9e,,1,0,80,57,1,79
,,,,,,,,,,,,,,,,,,,,,,,,,,,,,,,,,,,a,3.467000008,PATATA,FALSE,,,,,,,164,patata,Catalan,Sounds/cat_patata.mp3,2020-06-15_17h55.19.900,TranslationElicitation_spa,3.2.4,Win32,60,5ee3e04903b8560b39e58d9e,,1,0,80,57,1,79
,,,,,,,,,,,,,,,,,,,,,,,,,,,,,,,,,,,return,4.082999945,,FALSE,,,,,,,164,patata,Catalan,Sounds/cat_patata.mp3,2020-06-15_17h55.19.900,TranslationElicitation_spa,3.2.4,Win32,60,5ee3e04903b8560b39e58d9e,4.082999945,1,0,80,57,1,79
,,,,,,,,,,,,,,,,,,,,,,,,,,,,,,,,,,,,,,,,,,,,,164,patata,Catalan,Sounds/cat_patata.mp3,2020-06-15_17h55.19.900,TranslationElicitation_spa,3.2.4,Win32,60,5ee3e04903b8560b39e58d9e,,1,0,80,57,1,79
,,,,,,,,,,,,,,,,,,,,,,,,,,,,,,,,,,,p,3.167000055,P,FALSE,,,,,,,168,planta,Catalan,Sounds/cat_planta.mp3,2020-06-15_17h55.19.900,TranslationElicitation_spa,3.2.4,Win32,60,5ee3e04903b8560b39e58d9e,,1,0,80,60,1,79
,,,,,,,,,,,,,,,,,,,,,,,,,,,,,,,,,,,l,3.338000059,PL,FALSE,,,,,,,168,planta,Catalan,Sounds/cat_planta.mp3,2020-06-15_17h55.19.900,TranslationElicitation_spa,3.2.4,Win32,60,5ee3e04903b8560b39e58d9e,,1,0,80,60,1,79
,,,,,,,,,,,,,,,,,,,,,,,,,,,,,,,,,,,a,3.467000008,PLA,FALSE,,,,,,,168,planta,Catalan,Sounds/cat_planta.mp3,2020-06-15_17h55.19.900,TranslationElicitation_spa,3.2.4,Win32,60,5ee3e04903b8560b39e58d9e,,1,0,80,60,1,79
,,,,,,,,,,,,,,,,,,,,,,,,,,,,,,,,,,,n,3.871999979,PLAN,FALSE,,,,,,,168,planta,Catalan,Sounds/cat_planta.mp3,2020-06-15_17h55.19.900,TranslationElicitation_spa,3.2.4,Win32,60,5ee3e04903b8560b39e58d9e,,1,0,80,60,1,79
,,,,,,,,,,,,,,,,,,,,,,,,,,,,,,,,,,,t,4.154999971,PLANT,FALSE,,,,,,,168,planta,Catalan,Sounds/cat_planta.mp3,2020-06-15_17h55.19.900,TranslationElicitation_spa,3.2.4,Win32,60,5ee3e04903b8560b39e58d9e,,1,0,80,60,1,79
,,,,,,,,,,,,,,,,,,,,,,,,,,,,,,,,,,,a,4.232000113,PLANTA,FALSE,,,,,,,168,planta,Catalan,Sounds/cat_planta.mp3,2020-06-15_17h55.19.900,TranslationElicitation_spa,3.2.4,Win32,60,5ee3e04903b8560b39e58d9e,,1,0,80,60,1,79
,,,,,,,,,,,,,,,,,,,,,,,,,,,,,,,,,,,return,4.897000074,,FALSE,,,,,,,168,planta,Catalan,Sounds/cat_planta.mp3,2020-06-15_17h55.19.900,TranslationElicitation_spa,3.2.4,Win32,60,5ee3e04903b8560b39e58d9e,4.896000147,1,0,80,60,1,79
,,,,,,,,,,,,,,,,,,,,,,,,,,,,,,,,,,,,,,,,,,,,,168,planta,Catalan,Sounds/cat_planta.mp3,2020-06-15_17h55.19.900,TranslationElicitation_spa,3.2.4,Win32,60,5ee3e04903b8560b39e58d9e,,1,0,80,60,1,79
,,,,,,,,,,,,,,,,,,,,,,,,,,,,,,,,,,,m,2.038999796,M,FALSE,,,,,,,152,ma,Catalan,Sounds/cat_ma.mp3,2020-06-15_17h55.19.900,TranslationElicitation_spa,3.2.4,Win32,60,5ee3e04903b8560b39e58d9e,,1,0,80,46,1,79
,,,,,,,,,,,,,,,,,,,,,,,,,,,,,,,,,,,a,2.097999811,MA,FALSE,,,,,,,152,ma,Catalan,Sounds/cat_ma.mp3,2020-06-15_17h55.19.900,TranslationElicitation_spa,3.2.4,Win32,60,5ee3e04903b8560b39e58d9e,,1,0,80,46,1,79
,,,,,,,,,,,,,,,,,,,,,,,,,,,,,,,,,,,m,2.18599987,MAM,FALSE,,,,,,,152,ma,Catalan,Sounds/cat_ma.mp3,2020-06-15_17h55.19.900,TranslationElicitation_spa,3.2.4,Win32,60,5ee3e04903b8560b39e58d9e,,1,0,80,46,1,79
,,,,,,,,,,,,,,,,,,,,,,,,,,,,,,,,,,,a,2.229999781,MAMA,FALSE,,,,,,,152,ma,Catalan,Sounds/cat_ma.mp3,2020-06-15_17h55.19.900,TranslationElicitation_spa,3.2.4,Win32,60,5ee3e04903b8560b39e58d9e,,1,0,80,46,1,79
,,,,,,,,,,,,,,,,,,,,,,,,,,,,,,,,,,,return,3.921000004,,FALSE,,,,,,,152,ma,Catalan,Sounds/cat_ma.mp3,2020-06-15_17h55.19.900,TranslationElicitation_spa,3.2.4,Win32,60,5ee3e04903b8560b39e58d9e,3.921000004,1,0,80,46,1,79
,,,,,,,,,,,,,,,,,,,,,,,,,,,,,,,,,,,,,,,,,,,,,152,ma,Catalan,Sounds/cat_ma.mp3,2020-06-15_17h55.19.900,TranslationElicitation_spa,3.2.4,Win32,60,5ee3e04903b8560b39e58d9e,,1,0,80,46,1,79
,,,,,,,,,,,,,,,,,,,,,,,,,,,,,,,,,,,r,4.252000093,R,FALSE,,,,,,,125,colom,Catalan,Sounds/cat_colom.mp3,2020-06-15_17h55.19.900,TranslationElicitation_spa,3.2.4,Win32,60,5ee3e04903b8560b39e58d9e,,1,0,80,20,1,79
,,,,,,,,,,,,,,,,,,,,,,,,,,,,,,,,,,,e,4.394000053,RE,FALSE,,,,,,,125,colom,Catalan,Sounds/cat_colom.mp3,2020-06-15_17h55.19.900,TranslationElicitation_spa,3.2.4,Win32,60,5ee3e04903b8560b39e58d9e,,1,0,80,20,1,79
,,,,,,,,,,,,,,,,,,,,,,,,,,,,,,,,,,,d,4.548000097,RED,FALSE,,,,,,,125,colom,Catalan,Sounds/cat_colom.mp3,2020-06-15_17h55.19.900,TranslationElicitation_spa,3.2.4,Win32,60,5ee3e04903b8560b39e58d9e,,1,0,80,20,1,79
,,,,,,,,,,,,,,,,,,,,,,,,,,,,,,,,,,,o,4.667999983,REDO,FALSE,,,,,,,125,colom,Catalan,Sounds/cat_colom.mp3,2020-06-15_17h55.19.900,TranslationElicitation_spa,3.2.4,Win32,60,5ee3e04903b8560b39e58d9e,,1,0,80,20,1,79
,,,,,,,,,,,,,,,,,,,,,,,,,,,,,,,,,,,n,4.917999983,REDON,FALSE,,,,,,,125,colom,Catalan,Sounds/cat_colom.mp3,2020-06-15_17h55.19.900,TranslationElicitation_spa,3.2.4,Win32,60,5ee3e04903b8560b39e58d9e,,1,0,80,20,1,79
,,,,,,,,,,,,,,,,,,,,,,,,,,,,,,,,,,,d,5.712000132,REDOND,FALSE,,,,,,,125,colom,Catalan,Sounds/cat_colom.mp3,2020-06-15_17h55.19.900,TranslationElicitation_spa,3.2.4,Win32,60,5ee3e04903b8560b39e58d9e,,1,0,80,20,1,79
,,,,,,,,,,,,,,,,,,,,,,,,,,,,,,,,,,,o,5.80700016,REDONDO,FALSE,,,,,,,125,colom,Catalan,Sounds/cat_colom.mp3,2020-06-15_17h55.19.900,TranslationElicitation_spa,3.2.4,Win32,60,5ee3e04903b8560b39e58d9e,,1,0,80,20,1,79
,,,,,,,,,,,,,,,,,,,,,,,,,,,,,,,,,,,return,6.226999998,,FALSE,,,,,,,125,colom,Catalan,Sounds/cat_colom.mp3,2020-06-15_17h55.19.900,TranslationElicitation_spa,3.2.4,Win32,60,5ee3e04903b8560b39e58d9e,6.226999998,1,0,80,20,1,79
,,,,,,,,,,,,,,,,,,,,,,,,,,,,,,,,,,,,,,,,,,,,,125,colom,Catalan,Sounds/cat_colom.mp3,2020-06-15_17h55.19.900,TranslationElicitation_spa,3.2.4,Win32,60,5ee3e04903b8560b39e58d9e,,1,0,80,20,1,79
,,,,,,,,,,,,,,,,,,,,,,,,,,,,,,,,,,,h,6.269000053,H,FALSE,,,,,,,148,lleo,Catalan,Sounds/cat_lleo.mp3,2020-06-15_17h55.19.900,TranslationElicitation_spa,3.2.4,Win32,60,5ee3e04903b8560b39e58d9e,,1,0,80,42,1,79
,,,,,,,,,,,,,,,,,,,,,,,,,,,,,,,,,,,e,6.355000019,HE,FALSE,,,,,,,148,lleo,Catalan,Sounds/cat_lleo.mp3,2020-06-15_17h55.19.900,TranslationElicitation_spa,3.2.4,Win32,60,5ee3e04903b8560b39e58d9e,,1,0,80,42,1,79
,,,,,,,,,,,,,,,,,,,,,,,,,,,,,,,,,,,l,6.626000166,HEL,FALSE,,,,,,,148,lleo,Catalan,Sounds/cat_lleo.mp3,2020-06-15_17h55.19.900,TranslationElicitation_spa,3.2.4,Win32,60,5ee3e04903b8560b39e58d9e,,1,0,80,42,1,79
,,,,,,,,,,,,,,,,,,,,,,,,,,,,,,,,,,,a,6.751000166,HELA,FALSE,,,,,,,148,lleo,Catalan,Sounds/cat_lleo.mp3,2020-06-15_17h55.19.900,TranslationElicitation_spa,3.2.4,Win32,60,5ee3e04903b8560b39e58d9e,,1,0,80,42,1,79
,,,,,,,,,,,,,,,,,,,,,,,,,,,,,,,,,,,d,7.47300005,HELAD,FALSE,,,,,,,148,lleo,Catalan,Sounds/cat_lleo.mp3,2020-06-15_17h55.19.900,TranslationElicitation_spa,3.2.4,Win32,60,5ee3e04903b8560b39e58d9e,,1,0,80,42,1,79
,,,,,,,,,,,,,,,,,,,,,,,,,,,,,,,,,,,o,7.855000019,HELADO,FALSE,,,,,,,148,lleo,Catalan,Sounds/cat_lleo.mp3,2020-06-15_17h55.19.900,TranslationElicitation_spa,3.2.4,Win32,60,5ee3e04903b8560b39e58d9e,,1,0,80,42,1,79
,,,,,,,,,,,,,,,,,,,,,,,,,,,,,,,,,,,return,8.409000158,,FALSE,,,,,,,148,lleo,Catalan,Sounds/cat_lleo.mp3,2020-06-15_17h55.19.900,TranslationElicitation_spa,3.2.4,Win32,60,5ee3e04903b8560b39e58d9e,8.409000158,1,0,80,42,1,79
,,,,,,,,,,,,,,,,,,,,,,,,,,,,,,,,,,,,,,,,,,,,,148,lleo,Catalan,Sounds/cat_lleo.mp3,2020-06-15_17h55.19.900,TranslationElicitation_spa,3.2.4,Win32,60,5ee3e04903b8560b39e58d9e,,1,0,80,42,1,79
,,,,,,,,,,,,,,,,,,,,,,,,,,,,,,,,,,,l,6.232999802,L,FALSE,,,,,,,151,lluna,Catalan,Sounds/cat_lluna.mp3,2020-06-15_17h55.19.900,TranslationElicitation_spa,3.2.4,Win32,60,5ee3e04903b8560b39e58d9e,,1,0,80,45,1,79
,,,,,,,,,,,,,,,,,,,,,,,,,,,,,,,,,,,u,6.528999805,LU,FALSE,,,,,,,151,lluna,Catalan,Sounds/cat_lluna.mp3,2020-06-15_17h55.19.900,TranslationElicitation_spa,3.2.4,Win32,60,5ee3e04903b8560b39e58d9e,,1,0,80,45,1,79
,,,,,,,,,,,,,,,,,,,,,,,,,,,,,,,,,,,n,6.682999849,LUN,FALSE,,,,,,,151,lluna,Catalan,Sounds/cat_lluna.mp3,2020-06-15_17h55.19.900,TranslationElicitation_spa,3.2.4,Win32,60,5ee3e04903b8560b39e58d9e,,1,0,80,45,1,79
,,,,,,,,,,,,,,,,,,,,,,,,,,,,,,,,,,,a,6.824999809,LUNA,FALSE,,,,,,,151,lluna,Catalan,Sounds/cat_lluna.mp3,2020-06-15_17h55.19.900,TranslationElicitation_spa,3.2.4,Win32,60,5ee3e04903b8560b39e58d9e,,1,0,80,45,1,79
,,,,,,,,,,,,,,,,,,,,,,,,,,,,,,,,,,,return,7.291999817,,FALSE,,,,,,,151,lluna,Catalan,Sounds/cat_lluna.mp3,2020-06-15_17h55.19.900,TranslationElicitation_spa,3.2.4,Win32,60,5ee3e04903b8560b39e58d9e,7.291999817,1,0,80,45,1,79
,,,,,,,,,,,,,,,,,,,,,,,,,,,,,,,,,,,,,,,,,,,,,151,lluna,Catalan,Sounds/cat_lluna.mp3,2020-06-15_17h55.19.900,TranslationElicitation_spa,3.2.4,Win32,60,5ee3e04903b8560b39e58d9e,,1,0,80,45,1,79
,,,,,,,,,,,,,,,,,,,,,,,,,,,,,,,,,,,g,1.929000139,G,FALSE,,,,,,,142,girafa,Catalan,Sounds/cat_girafa.mp3,2020-06-15_17h55.19.900,TranslationElicitation_spa,3.2.4,Win32,60,5ee3e04903b8560b39e58d9e,,1,0,80,37,1,79
,,,,,,,,,,,,,,,,,,,,,,,,,,,,,,,,,,,i,2.516000032,GI,FALSE,,,,,,,142,girafa,Catalan,Sounds/cat_girafa.mp3,2020-06-15_17h55.19.900,TranslationElicitation_spa,3.2.4,Win32,60,5ee3e04903b8560b39e58d9e,,1,0,80,37,1,79
,,,,,,,,,,,,,,,,,,,,,,,,,,,,,,,,,,,r,3.195000172,GIR,FALSE,,,,,,,142,girafa,Catalan,Sounds/cat_girafa.mp3,2020-06-15_17h55.19.900,TranslationElicitation_spa,3.2.4,Win32,60,5ee3e04903b8560b39e58d9e,,1,0,80,37,1,79
,,,,,,,,,,,,,,,,,,,,,,,,,,,,,,,,,,,a,3.467000008,GIRA,FALSE,,,,,,,142,girafa,Catalan,Sounds/cat_girafa.mp3,2020-06-15_17h55.19.900,TranslationElicitation_spa,3.2.4,Win32,60,5ee3e04903b8560b39e58d9e,,1,0,80,37,1,79
,,,,,,,,,,,,,,,,,,,,,,,,,,,,,,,,,,,f,3.976999998,GIRAF,FALSE,,,,,,,142,girafa,Catalan,Sounds/cat_girafa.mp3,2020-06-15_17h55.19.900,TranslationElicitation_spa,3.2.4,Win32,60,5ee3e04903b8560b39e58d9e,,1,0,80,37,1,79
,,,,,,,,,,,,,,,,,,,,,,,,,,,,,,,,,,,a,4.096000195,GIRAFA,FALSE,,,,,,,142,girafa,Catalan,Sounds/cat_girafa.mp3,2020-06-15_17h55.19.900,TranslationElicitation_spa,3.2.4,Win32,60,5ee3e04903b8560b39e58d9e,,1,0,80,37,1,79
,,,,,,,,,,,,,,,,,,,,,,,,,,,,,,,,,,,return,4.460000038,,FALSE,,,,,,,142,girafa,Catalan,Sounds/cat_girafa.mp3,2020-06-15_17h55.19.900,TranslationElicitation_spa,3.2.4,Win32,60,5ee3e04903b8560b39e58d9e,4.460000038,1,0,80,37,1,79
,,,,,,,,,,,,,,,,,,,,,,,,,,,,,,,,,,,,,,,,,,,,,142,girafa,Catalan,Sounds/cat_girafa.mp3,2020-06-15_17h55.19.900,TranslationElicitation_spa,3.2.4,Win32,60,5ee3e04903b8560b39e58d9e,,1,0,80,37,1,79
,,,,,,,,,,,,,,,,,,,,,,,,,,,,,,,,,,,p,5.381999969,P,FALSE,,,,,,,170,ploma,Catalan,Sounds/cat_ploma.mp3,2020-06-15_17h55.19.900,TranslationElicitation_spa,3.2.4,Win32,60,5ee3e04903b8560b39e58d9e,,1,0,80,62,1,79
,,,,,,,,,,,,,,,,,,,,,,,,,,,,,,,,,,,i,6.201999903,PI,FALSE,,,,,,,170,ploma,Catalan,Sounds/cat_ploma.mp3,2020-06-15_17h55.19.900,TranslationElicitation_spa,3.2.4,Win32,60,5ee3e04903b8560b39e58d9e,,1,0,80,62,1,79
,,,,,,,,,,,,,,,,,,,,,,,,,,,,,,,,,,,c,6.424000025,PIC,FALSE,,,,,,,170,ploma,Catalan,Sounds/cat_ploma.mp3,2020-06-15_17h55.19.900,TranslationElicitation_spa,3.2.4,Win32,60,5ee3e04903b8560b39e58d9e,,1,0,80,62,1,79
,,,,,,,,,,,,,,,,,,,,,,,,,,,,,,,,,,,a,6.53399992,PICA,FALSE,,,,,,,170,ploma,Catalan,Sounds/cat_ploma.mp3,2020-06-15_17h55.19.900,TranslationElicitation_spa,3.2.4,Win32,60,5ee3e04903b8560b39e58d9e,,1,0,80,62,1,79
,,,,,,,,,,,,,,,,,,,,,,,,,,,,,,,,,,,p,8.5,PICAP,FALSE,,,,,,,170,ploma,Catalan,Sounds/cat_ploma.mp3,2020-06-15_17h55.19.900,TranslationElicitation_spa,3.2.4,Win32,60,5ee3e04903b8560b39e58d9e,,1,0,80,62,1,79
,,,,,,,,,,,,,,,,,,,,,,,,,,,,,,,,,,,o,8.678999901,PICAPO,FALSE,,,,,,,170,ploma,Catalan,Sounds/cat_ploma.mp3,2020-06-15_17h55.19.900,TranslationElicitation_spa,3.2.4,Win32,60,5ee3e04903b8560b39e58d9e,,1,0,80,62,1,79
,,,,,,,,,,,,,,,,,,,,,,,,,,,,,,,,,,,t,8.987999916,PICAPOT,FALSE,,,,,,,170,ploma,Catalan,Sounds/cat_ploma.mp3,2020-06-15_17h55.19.900,TranslationElicitation_spa,3.2.4,Win32,60,5ee3e04903b8560b39e58d9e,,1,0,80,62,1,79
,,,,,,,,,,,,,,,,,,,,,,,,,,,,,,,,,,,backspace,9.457999945,PICAP,TRUE,,,,,,,170,ploma,Catalan,Sounds/cat_ploma.mp3,2020-06-15_17h55.19.900,TranslationElicitation_spa,3.2.4,Win32,60,5ee3e04903b8560b39e58d9e,,1,0,80,62,1,79
,,,,,,,,,,,,,,,,,,,,,,,,,,,,,,,,,,,r,9.586999893,PICAPR,TRUE,,,,,,,170,ploma,Catalan,Sounds/cat_ploma.mp3,2020-06-15_17h55.19.900,TranslationElicitation_spa,3.2.4,Win32,60,5ee3e04903b8560b39e58d9e,,1,0,80,62,1,79
,,,,,,,,,,,,,,,,,,,,,,,,,,,,,,,,,,,t,9.786000013,PICAPRT,TRUE,,,,,,,170,ploma,Catalan,Sounds/cat_ploma.mp3,2020-06-15_17h55.19.900,TranslationElicitation_spa,3.2.4,Win32,60,5ee3e04903b8560b39e58d9e,,1,0,80,62,1,79
,,,,,,,,,,,,,,,,,,,,,,,,,,,,,,,,,,,e,9.97300005,PICAPRTE,TRUE,,,,,,,170,ploma,Catalan,Sounds/cat_ploma.mp3,2020-06-15_17h55.19.900,TranslationElicitation_spa,3.2.4,Win32,60,5ee3e04903b8560b39e58d9e,,1,0,80,62,1,79
,,,,,,,,,,,,,,,,,,,,,,,,,,,,,,,,,,,backspace,10.5079999,PICAPR,TRUE,,,,,,,170,ploma,Catalan,Sounds/cat_ploma.mp3,2020-06-15_17h55.19.900,TranslationElicitation_spa,3.2.4,Win32,60,5ee3e04903b8560b39e58d9e,,1,0,80,62,1,79
,,,,,,,,,,,,,,,,,,,,,,,,,,,,,,,,,,,backspace,10.69300008,PICA,TRUE,,,,,,,170,ploma,Catalan,Sounds/cat_ploma.mp3,2020-06-15_17h55.19.900,TranslationElicitation_spa,3.2.4,Win32,60,5ee3e04903b8560b39e58d9e,,1,0,80,62,1,79
,,,,,,,,,,,,,,,,,,,,,,,,,,,,,,,,,,,backspace,10.90199995,PI,TRUE,,,,,,,170,ploma,Catalan,Sounds/cat_ploma.mp3,2020-06-15_17h55.19.900,TranslationElicitation_spa,3.2.4,Win32,60,5ee3e04903b8560b39e58d9e,,1,0,80,62,1,79
,,,,,,,,,,,,,,,,,,,,,,,,,,,,,,,,,,,c,11.92499995,PIC,TRUE,,,,,,,170,ploma,Catalan,Sounds/cat_ploma.mp3,2020-06-15_17h55.19.900,TranslationElicitation_spa,3.2.4,Win32,60,5ee3e04903b8560b39e58d9e,,1,0,80,62,1,79
,,,,,,,,,,,,,,,,,,,,,,,,,,,,,,,,,,,a,12.14899993,PICA,TRUE,,,,,,,170,ploma,Catalan,Sounds/cat_ploma.mp3,2020-06-15_17h55.19.900,TranslationElicitation_spa,3.2.4,Win32,60,5ee3e04903b8560b39e58d9e,,1,0,80,62,1,79
,,,,,,,,,,,,,,,,,,,,,,,,,,,,,,,,,,,p,12.40100002,PICAP,TRUE,,,,,,,170,ploma,Catalan,Sounds/cat_ploma.mp3,2020-06-15_17h55.19.900,TranslationElicitation_spa,3.2.4,Win32,60,5ee3e04903b8560b39e58d9e,,1,0,80,62,1,79
,,,,,,,,,,,,,,,,,,,,,,,,,,,,,,,,,,,o,12.62700009,PICAPO,TRUE,,,,,,,170,ploma,Catalan,Sounds/cat_ploma.mp3,2020-06-15_17h55.19.900,TranslationElicitation_spa,3.2.4,Win32,60,5ee3e04903b8560b39e58d9e,,1,0,80,62,1,79
,,,,,,,,,,,,,,,,,,,,,,,,,,,,,,,,,,,r,13.19300008,PICAPOR,TRUE,,,,,,,170,ploma,Catalan,Sounds/cat_ploma.mp3,2020-06-15_17h55.19.900,TranslationElicitation_spa,3.2.4,Win32,60,5ee3e04903b8560b39e58d9e,,1,0,80,62,1,79
,,,,,,,,,,,,,,,,,,,,,,,,,,,,,,,,,,,t,13.35899997,PICAPORT,TRUE,,,,,,,170,ploma,Catalan,Sounds/cat_ploma.mp3,2020-06-15_17h55.19.900,TranslationElicitation_spa,3.2.4,Win32,60,5ee3e04903b8560b39e58d9e,,1,0,80,62,1,79
,,,,,,,,,,,,,,,,,,,,,,,,,,,,,,,,,,,e,13.45600009,PICAPORTE,TRUE,,,,,,,170,ploma,Catalan,Sounds/cat_ploma.mp3,2020-06-15_17h55.19.900,TranslationElicitation_spa,3.2.4,Win32,60,5ee3e04903b8560b39e58d9e,,1,0,80,62,1,79
,,,,,,,,,,,,,,,,,,,,,,,,,,,,,,,,,,,return,14.04900002,,TRUE,,,,,,,170,ploma,Catalan,Sounds/cat_ploma.mp3,2020-06-15_17h55.19.900,TranslationElicitation_spa,3.2.4,Win32,60,5ee3e04903b8560b39e58d9e,14.04900002,1,0,80,62,1,79
,,,,,,,,,,,,,,,,,,,,,,,,,,,,,,,,,,,,,,,,,,,,,170,ploma,Catalan,Sounds/cat_ploma.mp3,2020-06-15_17h55.19.900,TranslationElicitation_spa,3.2.4,Win32,60,5ee3e04903b8560b39e58d9e,,1,0,80,62,1,79
,,,,,,,,,,,,,,,,,,,,,,,,,,,,,,,,,,,v,4.743000031,V,FALSE,,,,,,,116,bolquer,Catalan,Sounds/cat_bolquer.mp3,2020-06-15_17h55.19.900,TranslationElicitation_spa,3.2.4,Win32,60,5ee3e04903b8560b39e58d9e,,1,0,80,11,1,79
,,,,,,,,,,,,,,,,,,,,,,,,,,,,,,,,,,,o,4.902000189,VO,FALSE,,,,,,,116,bolquer,Catalan,Sounds/cat_bolquer.mp3,2020-06-15_17h55.19.900,TranslationElicitation_spa,3.2.4,Win32,60,5ee3e04903b8560b39e58d9e,,1,0,80,11,1,79
,,,,,,,,,,,,,,,,,,,,,,,,,,,,,,,,,,,l,5.143000126,VOL,FALSE,,,,,,,116,bolquer,Catalan,Sounds/cat_bolquer.mp3,2020-06-15_17h55.19.900,TranslationElicitation_spa,3.2.4,Win32,60,5ee3e04903b8560b39e58d9e,,1,0,80,11,1,79
,,,,,,,,,,,,,,,,,,,,,,,,,,,,,,,,,,,c,5.741000175,VOLC,FALSE,,,,,,,116,bolquer,Catalan,Sounds/cat_bolquer.mp3,2020-06-15_17h55.19.900,TranslationElicitation_spa,3.2.4,Win32,60,5ee3e04903b8560b39e58d9e,,1,0,80,11,1,79
,,,,,,,,,,,,,,,,,,,,,,,,,,,,,,,,,,,a,5.850000143,VOLCA,FALSE,,,,,,,116,bolquer,Catalan,Sounds/cat_bolquer.mp3,2020-06-15_17h55.19.900,TranslationElicitation_spa,3.2.4,Win32,60,5ee3e04903b8560b39e58d9e,,1,0,80,11,1,79
,,,,,,,,,,,,,,,,,,,,,,,,,,,,,,,,,,,d,6.050000191,VOLCAD,FALSE,,,,,,,116,bolquer,Catalan,Sounds/cat_bolquer.mp3,2020-06-15_17h55.19.900,TranslationElicitation_spa,3.2.4,Win32,60,5ee3e04903b8560b39e58d9e,,1,0,80,11,1,79
,,,,,,,,,,,,,,,,,,,,,,,,,,,,,,,,,,,o,6.818000078,VOLCADO,FALSE,,,,,,,116,bolquer,Catalan,Sounds/cat_bolquer.mp3,2020-06-15_17h55.19.900,TranslationElicitation_spa,3.2.4,Win32,60,5ee3e04903b8560b39e58d9e,,1,0,80,11,1,79
,,,,,,,,,,,,,,,,,,,,,,,,,,,,,,,,,,,return,7.232000113,,FALSE,,,,,,,116,bolquer,Catalan,Sounds/cat_bolquer.mp3,2020-06-15_17h55.19.900,TranslationElicitation_spa,3.2.4,Win32,60,5ee3e04903b8560b39e58d9e,7.232000113,1,0,80,11,1,79
,,,,,,,,,,,,,,,,,,,,,,,,,,,,,,,,,,,,,,,,,,,,,116,bolquer,Catalan,Sounds/cat_bolquer.mp3,2020-06-15_17h55.19.900,TranslationElicitation_spa,3.2.4,Win32,60,5ee3e04903b8560b39e58d9e,,1,0,80,11,1,79
,,,,,,,,,,,,,,,,,,,,,,,,,,,,,,,,,,,g,9.447999954,G,FALSE,,,,,,,118,bou,Catalan,Sounds/cat_bou.mp3,2020-06-15_17h55.19.900,TranslationElicitation_spa,3.2.4,Win32,60,5ee3e04903b8560b39e58d9e,,1,0,80,13,1,79
,,,,,,,,,,,,,,,,,,,,,,,,,,,,,,,,,,,r,9.570999861,GR,FALSE,,,,,,,118,bou,Catalan,Sounds/cat_bou.mp3,2020-06-15_17h55.19.900,TranslationElicitation_spa,3.2.4,Win32,60,5ee3e04903b8560b39e58d9e,,1,0,80,13,1,79
,,,,,,,,,,,,,,,,,,,,,,,,,,,,,,,,,,,a,10.06699991,GRA,FALSE,,,,,,,118,bou,Catalan,Sounds/cat_bou.mp3,2020-06-15_17h55.19.900,TranslationElicitation_spa,3.2.4,Win32,60,5ee3e04903b8560b39e58d9e,,1,0,80,13,1,79
,,,,,,,,,,,,,,,,,,,,,,,,,,,,,,,,,,,n,10.3579998,GRAN,FALSE,,,,,,,118,bou,Catalan,Sounds/cat_bou.mp3,2020-06-15_17h55.19.900,TranslationElicitation_spa,3.2.4,Win32,60,5ee3e04903b8560b39e58d9e,,1,0,80,13,1,79
,,,,,,,,,,,,,,,,,,,,,,,,,,,,,,,,,,,d,10.51999998,GRAND,FALSE,,,,,,,118,bou,Catalan,Sounds/cat_bou.mp3,2020-06-15_17h55.19.900,TranslationElicitation_spa,3.2.4,Win32,60,5ee3e04903b8560b39e58d9e,,1,0,80,13,1,79
,,,,,,,,,,,,,,,,,,,,,,,,,,,,,,,,,,,e,10.55899978,GRANDE,FALSE,,,,,,,118,bou,Catalan,Sounds/cat_bou.mp3,2020-06-15_17h55.19.900,TranslationElicitation_spa,3.2.4,Win32,60,5ee3e04903b8560b39e58d9e,,1,0,80,13,1,79
,,,,,,,,,,,,,,,,,,,,,,,,,,,,,,,,,,,return,11.11999989,,FALSE,,,,,,,118,bou,Catalan,Sounds/cat_bou.mp3,2020-06-15_17h55.19.900,TranslationElicitation_spa,3.2.4,Win32,60,5ee3e04903b8560b39e58d9e,11.11999989,1,0,80,13,1,79
,,,,,,,,,,,,,,,,,,,,,,,,,,,,,,,,,,,,,,,,,,,,,118,bou,Catalan,Sounds/cat_bou.mp3,2020-06-15_17h55.19.900,TranslationElicitation_spa,3.2.4,Win32,60,5ee3e04903b8560b39e58d9e,,1,0,80,13,1,79
,,,,,,,,,,,,,,,,,,,,,,,,,,,,,,,,,,,b,2.582000017,B,FALSE,,,,,,,114,bol,Catalan,Sounds/cat_bol.mp3,2020-06-15_17h55.19.900,TranslationElicitation_spa,3.2.4,Win32,60,5ee3e04903b8560b39e58d9e,,1,0,80,9,1,79
,,,,,,,,,,,,,,,,,,,,,,,,,,,,,,,,,,,o,2.702000141,BO,FALSE,,,,,,,114,bol,Catalan,Sounds/cat_bol.mp3,2020-06-15_17h55.19.900,TranslationElicitation_spa,3.2.4,Win32,60,5ee3e04903b8560b39e58d9e,,1,0,80,9,1,79
,,,,,,,,,,,,,,,,,,,,,,,,,,,,,,,,,,,l,2.88499999,BOL,FALSE,,,,,,,114,bol,Catalan,Sounds/cat_bol.mp3,2020-06-15_17h55.19.900,TranslationElicitation_spa,3.2.4,Win32,60,5ee3e04903b8560b39e58d9e,,1,0,80,9,1,79
,,,,,,,,,,,,,,,,,,,,,,,,,,,,,,,,,,,a,2.999000072,BOLA,FALSE,,,,,,,114,bol,Catalan,Sounds/cat_bol.mp3,2020-06-15_17h55.19.900,TranslationElicitation_spa,3.2.4,Win32,60,5ee3e04903b8560b39e58d9e,,1,0,80,9,1,79
,,,,,,,,,,,,,,,,,,,,,,,,,,,,,,,,,,,return,3.585000038,,FALSE,,,,,,,114,bol,Catalan,Sounds/cat_bol.mp3,2020-06-15_17h55.19.900,TranslationElicitation_spa,3.2.4,Win32,60,5ee3e04903b8560b39e58d9e,3.585000038,1,0,80,9,1,79
,,,,,,,,,,,,,,,,,,,,,,,,,,,,,,,,,,,,,,,,,,,,,114,bol,Catalan,Sounds/cat_bol.mp3,2020-06-15_17h55.19.900,TranslationElicitation_spa,3.2.4,Win32,60,5ee3e04903b8560b39e58d9e,,1,0,80,9,1,79
,,,,,,,,,,,,,,,,,,,,,,,,,,,,,,,,,,,a,4.963999987,A,FALSE,,,,,,,133,estruc,Catalan,Sounds/cat_estruc.mp3,2020-06-15_17h55.19.900,TranslationElicitation_spa,3.2.4,Win32,60,5ee3e04903b8560b39e58d9e,,1,0,80,28,1,79
,,,,,,,,,,,,,,,,,,,,,,,,,,,,,,,,,,,v,5.256999969,AV,FALSE,,,,,,,133,estruc,Catalan,Sounds/cat_estruc.mp3,2020-06-15_17h55.19.900,TranslationElicitation_spa,3.2.4,Win32,60,5ee3e04903b8560b39e58d9e,,1,0,80,28,1,79
,,,,,,,,,,,,,,,,,,,,,,,,,,,,,,,,,,,e,5.440000057,AVE,FALSE,,,,,,,133,estruc,Catalan,Sounds/cat_estruc.mp3,2020-06-15_17h55.19.900,TranslationElicitation_spa,3.2.4,Win32,60,5ee3e04903b8560b39e58d9e,,1,0,80,28,1,79
,,,,,,,,,,,,,,,,,,,,,,,,,,,,,,,,,,,s,5.674999952,AVES,FALSE,,,,,,,133,estruc,Catalan,Sounds/cat_estruc.mp3,2020-06-15_17h55.19.900,TranslationElicitation_spa,3.2.4,Win32,60,5ee3e04903b8560b39e58d9e,,1,0,80,28,1,79
,,,,,,,,,,,,,,,,,,,,,,,,,,,,,,,,,,,t,6.046999931,AVEST,FALSE,,,,,,,133,estruc,Catalan,Sounds/cat_estruc.mp3,2020-06-15_17h55.19.900,TranslationElicitation_spa,3.2.4,Win32,60,5ee3e04903b8560b39e58d9e,,1,0,80,28,1,79
,,,,,,,,,,,,,,,,,,,,,,,,,,,,,,,,,,,r,6.184000015,AVESTR,FALSE,,,,,,,133,estruc,Catalan,Sounds/cat_estruc.mp3,2020-06-15_17h55.19.900,TranslationElicitation_spa,3.2.4,Win32,60,5ee3e04903b8560b39e58d9e,,1,0,80,28,1,79
,,,,,,,,,,,,,,,,,,,,,,,,,,,,,,,,,,,u,6.995000124,AVESTRU,FALSE,,,,,,,133,estruc,Catalan,Sounds/cat_estruc.mp3,2020-06-15_17h55.19.900,TranslationElicitation_spa,3.2.4,Win32,60,5ee3e04903b8560b39e58d9e,,1,0,80,28,1,79
,,,,,,,,,,,,,,,,,,,,,,,,,,,,,,,,,,,z,7.405999899,AVESTRUZ,FALSE,,,,,,,133,estruc,Catalan,Sounds/cat_estruc.mp3,2020-06-15_17h55.19.900,TranslationElicitation_spa,3.2.4,Win32,60,5ee3e04903b8560b39e58d9e,,1,0,80,28,1,79
,,,,,,,,,,,,,,,,,,,,,,,,,,,,,,,,,,,return,7.753000021,,FALSE,,,,,,,133,estruc,Catalan,Sounds/cat_estruc.mp3,2020-06-15_17h55.19.900,TranslationElicitation_spa,3.2.4,Win32,60,5ee3e04903b8560b39e58d9e,7.753000021,1,0,80,28,1,79
,,,,,,,,,,,,,,,,,,,,,,,,,,,,,,,,,,,,,,,,,,,,,133,estruc,Catalan,Sounds/cat_estruc.mp3,2020-06-15_17h55.19.900,TranslationElicitation_spa,3.2.4,Win32,60,5ee3e04903b8560b39e58d9e,,1,0,80,28,1,79
,,,,,,,,,,,,,,,,,,,,,,,,,,,,,,,,,,,p,17.40199995,P,FALSE,,,,,,,165,pernil,Catalan,Sounds/cat_pernil.mp3,2020-06-15_17h55.19.900,TranslationElicitation_spa,3.2.4,Win32,60,5ee3e04903b8560b39e58d9e,,1,0,80,58,1,79
,,,,,,,,,,,,,,,,,,,,,,,,,,,,,,,,,,,a,17.57800007,PA,FALSE,,,,,,,165,pernil,Catalan,Sounds/cat_pernil.mp3,2020-06-15_17h55.19.900,TranslationElicitation_spa,3.2.4,Win32,60,5ee3e04903b8560b39e58d9e,,1,0,80,58,1,79
,,,,,,,,,,,,,,,,,,,,,,,,,,,,,,,,,,,n,19.75699997,PAN,FALSE,,,,,,,165,pernil,Catalan,Sounds/cat_pernil.mp3,2020-06-15_17h55.19.900,TranslationElicitation_spa,3.2.4,Win32,60,5ee3e04903b8560b39e58d9e,,1,0,80,58,1,79
,,,,,,,,,,,,,,,,,,,,,,,,,,,,,,,,,,,a,20.38599992,PANA,FALSE,,,,,,,165,pernil,Catalan,Sounds/cat_pernil.mp3,2020-06-15_17h55.19.900,TranslationElicitation_spa,3.2.4,Win32,60,5ee3e04903b8560b39e58d9e,,1,0,80,58,1,79
,,,,,,,,,,,,,,,,,,,,,,,,,,,,,,,,,,,d,20.71000004,PANAD,FALSE,,,,,,,165,pernil,Catalan,Sounds/cat_pernil.mp3,2020-06-15_17h55.19.900,TranslationElicitation_spa,3.2.4,Win32,60,5ee3e04903b8560b39e58d9e,,1,0,80,58,1,79
,,,,,,,,,,,,,,,,,,,,,,,,,,,,,,,,,,,e,20.84500003,PANADE,FALSE,,,,,,,165,pernil,Catalan,Sounds/cat_pernil.mp3,2020-06-15_17h55.19.900,TranslationElicitation_spa,3.2.4,Win32,60,5ee3e04903b8560b39e58d9e,,1,0,80,58,1,79
,,,,,,,,,,,,,,,,,,,,,,,,,,,,,,,,,,,r,21.04299998,PANADER,FALSE,,,,,,,165,pernil,Catalan,Sounds/cat_pernil.mp3,2020-06-15_17h55.19.900,TranslationElicitation_spa,3.2.4,Win32,60,5ee3e04903b8560b39e58d9e,,1,0,80,58,1,79
,,,,,,,,,,,,,,,,,,,,,,,,,,,,,,,,,,,i,22.03999996,PANADERI,FALSE,,,,,,,165,pernil,Catalan,Sounds/cat_pernil.mp3,2020-06-15_17h55.19.900,TranslationElicitation_spa,3.2.4,Win32,60,5ee3e04903b8560b39e58d9e,,1,0,80,58,1,79
,,,,,,,,,,,,,,,,,,,,,,,,,,,,,,,,,,,a,22.15400004,PANADERIA,FALSE,,,,,,,165,pernil,Catalan,Sounds/cat_pernil.mp3,2020-06-15_17h55.19.900,TranslationElicitation_spa,3.2.4,Win32,60,5ee3e04903b8560b39e58d9e,,1,0,80,58,1,79
,,,,,,,,,,,,,,,,,,,,,,,,,,,,,,,,,,,return,22.65700006,,FALSE,,,,,,,165,pernil,Catalan,Sounds/cat_pernil.mp3,2020-06-15_17h55.19.900,TranslationElicitation_spa,3.2.4,Win32,60,5ee3e04903b8560b39e58d9e,22.65700006,1,0,80,58,1,79
,,,,,,,,,,,,,,,,,,,,,,,,,,,,,,,,,,,,,,,,,,,,,165,pernil,Catalan,Sounds/cat_pernil.mp3,2020-06-15_17h55.19.900,TranslationElicitation_spa,3.2.4,Win32,60,5ee3e04903b8560b39e58d9e,,1,0,80,58,1,79
,,,,,,,,,,,,,,,,,,,,,,,,,,,,,,,,,,,c,2.844000101,C,FALSE,,,,,,,173,porc,Catalan,Sounds/cat_porc.mp3,2020-06-15_17h55.19.900,TranslationElicitation_spa,3.2.4,Win32,60,5ee3e04903b8560b39e58d9e,,1,0,80,65,1,79
,,,,,,,,,,,,,,,,,,,,,,,,,,,,,,,,,,,e,2.97300005,CE,FALSE,,,,,,,173,porc,Catalan,Sounds/cat_porc.mp3,2020-06-15_17h55.19.900,TranslationElicitation_spa,3.2.4,Win32,60,5ee3e04903b8560b39e58d9e,,1,0,80,65,1,79
,,,,,,,,,,,,,,,,,,,,,,,,,,,,,,,,,,,r,3.118999958,CER,FALSE,,,,,,,173,porc,Catalan,Sounds/cat_porc.mp3,2020-06-15_17h55.19.900,TranslationElicitation_spa,3.2.4,Win32,60,5ee3e04903b8560b39e58d9e,,1,0,80,65,1,79
,,,,,,,,,,,,,,,,,,,,,,,,,,,,,,,,,,,d,3.342999935,CERD,FALSE,,,,,,,173,porc,Catalan,Sounds/cat_porc.mp3,2020-06-15_17h55.19.900,TranslationElicitation_spa,3.2.4,Win32,60,5ee3e04903b8560b39e58d9e,,1,0,80,65,1,79
,,,,,,,,,,,,,,,,,,,,,,,,,,,,,,,,,,,o,4.032999992,CERDO,FALSE,,,,,,,173,porc,Catalan,Sounds/cat_porc.mp3,2020-06-15_17h55.19.900,TranslationElicitation_spa,3.2.4,Win32,60,5ee3e04903b8560b39e58d9e,,1,0,80,65,1,79
,,,,,,,,,,,,,,,,,,,,,,,,,,,,,,,,,,,return,4.421000004,,FALSE,,,,,,,173,porc,Catalan,Sounds/cat_porc.mp3,2020-06-15_17h55.19.900,TranslationElicitation_spa,3.2.4,Win32,60,5ee3e04903b8560b39e58d9e,4.421000004,1,0,80,65,1,79
,,,,,,,,,,,,,,,,,,,,,,,,,,,,,,,,,,,,,,,,,,,,,173,porc,Catalan,Sounds/cat_porc.mp3,2020-06-15_17h55.19.900,TranslationElicitation_spa,3.2.4,Win32,60,5ee3e04903b8560b39e58d9e,,1,0,80,65,1,79
,,,,,,,,,,,,,,,,,,,,,,,,,,,,,,,,,,,b,2.486000061,B,FALSE,,,,,,,113,boca,Catalan,Sounds/cat_boca.mp3,2020-06-15_17h55.19.900,TranslationElicitation_spa,3.2.4,Win32,60,5ee3e04903b8560b39e58d9e,,1,0,80,8,1,79
,,,,,,,,,,,,,,,,,,,,,,,,,,,,,,,,,,,o,2.602999926,BO,FALSE,,,,,,,113,boca,Catalan,Sounds/cat_boca.mp3,2020-06-15_17h55.19.900,TranslationElicitation_spa,3.2.4,Win32,60,5ee3e04903b8560b39e58d9e,,1,0,80,8,1,79
,,,,,,,,,,,,,,,,,,,,,,,,,,,,,,,,,,,c,3.045000076,BOC,FALSE,,,,,,,113,boca,Catalan,Sounds/cat_boca.mp3,2020-06-15_17h55.19.900,TranslationElicitation_spa,3.2.4,Win32,60,5ee3e04903b8560b39e58d9e,,1,0,80,8,1,79
,,,,,,,,,,,,,,,,,,,,,,,,,,,,,,,,,,,a,3.186000109,BOCA,FALSE,,,,,,,113,boca,Catalan,Sounds/cat_boca.mp3,2020-06-15_17h55.19.900,TranslationElicitation_spa,3.2.4,Win32,60,5ee3e04903b8560b39e58d9e,,1,0,80,8,1,79
,,,,,,,,,,,,,,,,,,,,,,,,,,,,,,,,,,,return,4.25,,FALSE,,,,,,,113,boca,Catalan,Sounds/cat_boca.mp3,2020-06-15_17h55.19.900,TranslationElicitation_spa,3.2.4,Win32,60,5ee3e04903b8560b39e58d9e,4.25,1,0,80,8,1,79
,,,,,,,,,,,,,,,,,,,,,,,,,,,,,,,,,,,,,,,,,,,,,113,boca,Catalan,Sounds/cat_boca.mp3,2020-06-15_17h55.19.900,TranslationElicitation_spa,3.2.4,Win32,60,5ee3e04903b8560b39e58d9e,,1,0,80,8,1,79
,,,,,,,,,,,,,,,,,,,,,,,,,,,,,,,,,,,g,5.593000174,G,FALSE,,,,,,,187,vaixell,Catalan,Sounds/cat_vaixell.mp3,2020-06-15_17h55.19.900,TranslationElicitation_spa,3.2.4,Win32,60,5ee3e04903b8560b39e58d9e,,1,0,80,77,1,79
,,,,,,,,,,,,,,,,,,,,,,,,,,,,,,,,,,,r,5.772000074,GR,FALSE,,,,,,,187,vaixell,Catalan,Sounds/cat_vaixell.mp3,2020-06-15_17h55.19.900,TranslationElicitation_spa,3.2.4,Win32,60,5ee3e04903b8560b39e58d9e,,1,0,80,77,1,79
,,,,,,,,,,,,,,,,,,,,,,,,,,,,,,,,,,,backspace,7.348999977,,TRUE,,,,,,,187,vaixell,Catalan,Sounds/cat_vaixell.mp3,2020-06-15_17h55.19.900,TranslationElicitation_spa,3.2.4,Win32,60,5ee3e04903b8560b39e58d9e,,1,0,80,77,1,79
,,,,,,,,,,,,,,,,,,,,,,,,,,,,,,,,,,,backspace,7.565000057,,TRUE,,,,,,,187,vaixell,Catalan,Sounds/cat_vaixell.mp3,2020-06-15_17h55.19.900,TranslationElicitation_spa,3.2.4,Win32,60,5ee3e04903b8560b39e58d9e,,1,0,80,77,1,79
,,,,,,,,,,,,,,,,,,,,,,,,,,,,,,,,,,,l,8.09800005,L,TRUE,,,,,,,187,vaixell,Catalan,Sounds/cat_vaixell.mp3,2020-06-15_17h55.19.900,TranslationElicitation_spa,3.2.4,Win32,60,5ee3e04903b8560b39e58d9e,,1,0,80,77,1,79
,,,,,,,,,,,,,,,,,,,,,,,,,,,,,,,,,,,e,8.265000105,LE,TRUE,,,,,,,187,vaixell,Catalan,Sounds/cat_vaixell.mp3,2020-06-15_17h55.19.900,TranslationElicitation_spa,3.2.4,Win32,60,5ee3e04903b8560b39e58d9e,,1,0,80,77,1,79
,,,,,,,,,,,,,,,,,,,,,,,,,,,,,,,,,,,c,8.698000193,LEC,TRUE,,,,,,,187,vaixell,Catalan,Sounds/cat_vaixell.mp3,2020-06-15_17h55.19.900,TranslationElicitation_spa,3.2.4,Win32,60,5ee3e04903b8560b39e58d9e,,1,0,80,77,1,79
,,,,,,,,,,,,,,,,,,,,,,,,,,,,,,,,,,,h,8.866000175,LECH,TRUE,,,,,,,187,vaixell,Catalan,Sounds/cat_vaixell.mp3,2020-06-15_17h55.19.900,TranslationElicitation_spa,3.2.4,Win32,60,5ee3e04903b8560b39e58d9e,,1,0,80,77,1,79
,,,,,,,,,,,,,,,,,,,,,,,,,,,,,,,,,,,e,8.930999994,LECHE,TRUE,,,,,,,187,vaixell,Catalan,Sounds/cat_vaixell.mp3,2020-06-15_17h55.19.900,TranslationElicitation_spa,3.2.4,Win32,60,5ee3e04903b8560b39e58d9e,,1,0,80,77,1,79
,,,,,,,,,,,,,,,,,,,,,,,,,,,,,,,,,,,return,9.180000067,,TRUE,,,,,,,187,vaixell,Catalan,Sounds/cat_vaixell.mp3,2020-06-15_17h55.19.900,TranslationElicitation_spa,3.2.4,Win32,60,5ee3e04903b8560b39e58d9e,9.180000067,1,0,80,77,1,79
,,,,,,,,,,,,,,,,,,,,,,,,,,,,,,,,,,,,,,,,,,,,,187,vaixell,Catalan,Sounds/cat_vaixell.mp3,2020-06-15_17h55.19.900,TranslationElicitation_spa,3.2.4,Win32,60,5ee3e04903b8560b39e58d9e,,1,0,80,77,1,79
,,,,,,,,,,,,,,,,,,,,,,,,,,,,,,,,,,,m,11.0250001,M,FALSE,,,,,,,157,mussol,Catalan,Sounds/cat_mussol.mp3,2020-06-15_17h55.19.900,TranslationElicitation_spa,3.2.4,Win32,60,5ee3e04903b8560b39e58d9e,,1,0,80,51,1,79
,,,,,,,,,,,,,,,,,,,,,,,,,,,,,,,,,,,u,11.28600001,MU,FALSE,,,,,,,157,mussol,Catalan,Sounds/cat_mussol.mp3,2020-06-15_17h55.19.900,TranslationElicitation_spa,3.2.4,Win32,60,5ee3e04903b8560b39e58d9e,,1,0,80,51,1,79
,,,,,,,,,,,,,,,,,,,,,,,,,,,,,,,,,,,s,11.43400002,MUS,FALSE,,,,,,,157,mussol,Catalan,Sounds/cat_mussol.mp3,2020-06-15_17h55.19.900,TranslationElicitation_spa,3.2.4,Win32,60,5ee3e04903b8560b39e58d9e,,1,0,80,51,1,79
,,,,,,,,,,,,,,,,,,,,,,,,,,,,,,,,,,,e,11.63400006,MUSE,FALSE,,,,,,,157,mussol,Catalan,Sounds/cat_mussol.mp3,2020-06-15_17h55.19.900,TranslationElicitation_spa,3.2.4,Win32,60,5ee3e04903b8560b39e58d9e,,1,0,80,51,1,79
,,,,,,,,,,,,,,,,,,,,,,,,,,,,,,,,,,,o,11.78800011,MUSEO,FALSE,,,,,,,157,mussol,Catalan,Sounds/cat_mussol.mp3,2020-06-15_17h55.19.900,TranslationElicitation_spa,3.2.4,Win32,60,5ee3e04903b8560b39e58d9e,,1,0,80,51,1,79
,,,,,,,,,,,,,,,,,,,,,,,,,,,,,,,,,,,return,12.38800001,,FALSE,,,,,,,157,mussol,Catalan,Sounds/cat_mussol.mp3,2020-06-15_17h55.19.900,TranslationElicitation_spa,3.2.4,Win32,60,5ee3e04903b8560b39e58d9e,12.38800001,1,0,80,51,1,79
,,,,,,,,,,,,,,,,,,,,,,,,,,,,,,,,,,,,,,,,,,,,,157,mussol,Catalan,Sounds/cat_mussol.mp3,2020-06-15_17h55.19.900,TranslationElicitation_spa,3.2.4,Win32,60,5ee3e04903b8560b39e58d9e,,1,0,80,51,1,79
,,,,,,,,,,,,,,,,,,,,,,,,,,,,,,,,,,,a,9.858999968,A,FALSE,,,,,,,115,bolet,Catalan,Sounds/cat_bolet.mp3,2020-06-15_17h55.19.900,TranslationElicitation_spa,3.2.4,Win32,60,5ee3e04903b8560b39e58d9e,,1,0,80,10,1,79
,,,,,,,,,,,,,,,,,,,,,,,,,,,,,,,,,,,g,10.19500017,AG,FALSE,,,,,,,115,bolet,Catalan,Sounds/cat_bolet.mp3,2020-06-15_17h55.19.900,TranslationElicitation_spa,3.2.4,Win32,60,5ee3e04903b8560b39e58d9e,,1,0,80,10,1,79
,,,,,,,,,,,,,,,,,,,,,,,,,,,,,,,,,,,e,10.39400005,AGE,FALSE,,,,,,,115,bolet,Catalan,Sounds/cat_bolet.mp3,2020-06-15_17h55.19.900,TranslationElicitation_spa,3.2.4,Win32,60,5ee3e04903b8560b39e58d9e,,1,0,80,10,1,79
,,,,,,,,,,,,,,,,,,,,,,,,,,,,,,,,,,,n,10.73300004,AGEN,FALSE,,,,,,,115,bolet,Catalan,Sounds/cat_bolet.mp3,2020-06-15_17h55.19.900,TranslationElicitation_spa,3.2.4,Win32,60,5ee3e04903b8560b39e58d9e,,1,0,80,10,1,79
,,,,,,,,,,,,,,,,,,,,,,,,,,,,,,,,,,,d,11.61899996,AGEND,FALSE,,,,,,,115,bolet,Catalan,Sounds/cat_bolet.mp3,2020-06-15_17h55.19.900,TranslationElicitation_spa,3.2.4,Win32,60,5ee3e04903b8560b39e58d9e,,1,0,80,10,1,79
,,,,,,,,,,,,,,,,,,,,,,,,,,,,,,,,,,,a,11.72099996,AGENDA,FALSE,,,,,,,115,bolet,Catalan,Sounds/cat_bolet.mp3,2020-06-15_17h55.19.900,TranslationElicitation_spa,3.2.4,Win32,60,5ee3e04903b8560b39e58d9e,,1,0,80,10,1,79
,,,,,,,,,,,,,,,,,,,,,,,,,,,,,,,,,,,return,12.46200013,,FALSE,,,,,,,115,bolet,Catalan,Sounds/cat_bolet.mp3,2020-06-15_17h55.19.900,TranslationElicitation_spa,3.2.4,Win32,60,5ee3e04903b8560b39e58d9e,12.46200013,1,0,80,10,1,79
,,,,,,,,,,,,,,,,,,,,,,,,,,,,,,,,,,,,,,,,,,,,,115,bolet,Catalan,Sounds/cat_bolet.mp3,2020-06-15_17h55.19.900,TranslationElicitation_spa,3.2.4,Win32,60,5ee3e04903b8560b39e58d9e,,1,0,80,10,1,79
,,,,,,,,,,,,,,,,,,,,,,,,,,,,,,,,,,,c,2.357000113,C,FALSE,,,,,,,143,globus,Catalan,Sounds/cat_globus.mp3,2020-06-15_17h55.19.900,TranslationElicitation_spa,3.2.4,Win32,60,5ee3e04903b8560b39e58d9e,,1,0,80,38,1,79
,,,,,,,,,,,,,,,,,,,,,,,,,,,,,,,,,,,l,2.489000082,CL,FALSE,,,,,,,143,globus,Catalan,Sounds/cat_globus.mp3,2020-06-15_17h55.19.900,TranslationElicitation_spa,3.2.4,Win32,60,5ee3e04903b8560b39e58d9e,,1,0,80,38,1,79
,,,,,,,,,,,,,,,,,,,,,,,,,,,,,,,,,,,o,2.717000008,CLO,FALSE,,,,,,,143,globus,Catalan,Sounds/cat_globus.mp3,2020-06-15_17h55.19.900,TranslationElicitation_spa,3.2.4,Win32,60,5ee3e04903b8560b39e58d9e,,1,0,80,38,1,79
,,,,,,,,,,,,,,,,,,,,,,,,,,,,,,,,,,,backspace,3.705000162,C,TRUE,,,,,,,143,globus,Catalan,Sounds/cat_globus.mp3,2020-06-15_17h55.19.900,TranslationElicitation_spa,3.2.4,Win32,60,5ee3e04903b8560b39e58d9e,,1,0,80,38,1,79
,,,,,,,,,,,,,,,,,,,,,,,,,,,,,,,,,,,backspace,4.131000042,,TRUE,,,,,,,143,globus,Catalan,Sounds/cat_globus.mp3,2020-06-15_17h55.19.900,TranslationElicitation_spa,3.2.4,Win32,60,5ee3e04903b8560b39e58d9e,,1,0,80,38,1,79
,,,,,,,,,,,,,,,,,,,,,,,,,,,,,,,,,,,backspace,4.164999962,,TRUE,,,,,,,143,globus,Catalan,Sounds/cat_globus.mp3,2020-06-15_17h55.19.900,TranslationElicitation_spa,3.2.4,Win32,60,5ee3e04903b8560b39e58d9e,,1,0,80,38,1,79
,,,,,,,,,,,,,,,,,,,,,,,,,,,,,,,,,,,backspace,4.192000151,,TRUE,,,,,,,143,globus,Catalan,Sounds/cat_globus.mp3,2020-06-15_17h55.19.900,TranslationElicitation_spa,3.2.4,Win32,60,5ee3e04903b8560b39e58d9e,,1,0,80,38,1,79
,,,,,,,,,,,,,,,,,,,,,,,,,,,,,,,,,,,backspace,4.212000132,,TRUE,,,,,,,143,globus,Catalan,Sounds/cat_globus.mp3,2020-06-15_17h55.19.900,TranslationElicitation_spa,3.2.4,Win32,60,5ee3e04903b8560b39e58d9e,,1,0,80,38,1,79
,,,,,,,,,,,,,,,,,,,,,,,,,,,,,,,,,,,backspace,4.236999989,,TRUE,,,,,,,143,globus,Catalan,Sounds/cat_globus.mp3,2020-06-15_17h55.19.900,TranslationElicitation_spa,3.2.4,Win32,60,5ee3e04903b8560b39e58d9e,,1,0,80,38,1,79
,,,,,,,,,,,,,,,,,,,,,,,,,,,,,,,,,,,backspace,4.259000063,,TRUE,,,,,,,143,globus,Catalan,Sounds/cat_globus.mp3,2020-06-15_17h55.19.900,TranslationElicitation_spa,3.2.4,Win32,60,5ee3e04903b8560b39e58d9e,,1,0,80,38,1,79
,,,,,,,,,,,,,,,,,,,,,,,,,,,,,,,,,,,backspace,4.27699995,,TRUE,,,,,,,143,globus,Catalan,Sounds/cat_globus.mp3,2020-06-15_17h55.19.900,TranslationElicitation_spa,3.2.4,Win32,60,5ee3e04903b8560b39e58d9e,,1,0,80,38,1,79
,,,,,,,,,,,,,,,,,,,,,,,,,,,,,,,,,,,backspace,4.296000004,,TRUE,,,,,,,143,globus,Catalan,Sounds/cat_globus.mp3,2020-06-15_17h55.19.900,TranslationElicitation_spa,3.2.4,Win32,60,5ee3e04903b8560b39e58d9e,,1,0,80,38,1,79
,,,,,,,,,,,,,,,,,,,,,,,,,,,,,,,,,,,backspace,4.322999954,,TRUE,,,,,,,143,globus,Catalan,Sounds/cat_globus.mp3,2020-06-15_17h55.19.900,TranslationElicitation_spa,3.2.4,Win32,60,5ee3e04903b8560b39e58d9e,,1,0,80,38,1,79
,,,,,,,,,,,,,,,,,,,,,,,,,,,,,,,,,,,backspace,4.345000029,,TRUE,,,,,,,143,globus,Catalan,Sounds/cat_globus.mp3,2020-06-15_17h55.19.900,TranslationElicitation_spa,3.2.4,Win32,60,5ee3e04903b8560b39e58d9e,,1,0,80,38,1,79
,,,,,,,,,,,,,,,,,,,,,,,,,,,,,,,,,,,backspace,4.394000053,,TRUE,,,,,,,143,globus,Catalan,Sounds/cat_globus.mp3,2020-06-15_17h55.19.900,TranslationElicitation_spa,3.2.4,Win32,60,5ee3e04903b8560b39e58d9e,,1,0,80,38,1,79
,,,,,,,,,,,,,,,,,,,,,,,,,,,,,,,,,,,g,5.322000027,G,TRUE,,,,,,,143,globus,Catalan,Sounds/cat_globus.mp3,2020-06-15_17h55.19.900,TranslationElicitation_spa,3.2.4,Win32,60,5ee3e04903b8560b39e58d9e,,1,0,80,38,1,79
,,,,,,,,,,,,,,,,,,,,,,,,,,,,,,,,,,,l,5.442000151,GL,TRUE,,,,,,,143,globus,Catalan,Sounds/cat_globus.mp3,2020-06-15_17h55.19.900,TranslationElicitation_spa,3.2.4,Win32,60,5ee3e04903b8560b39e58d9e,,1,0,80,38,1,79
,,,,,,,,,,,,,,,,,,,,,,,,,,,,,,,,,,,o,5.627000093,GLO,TRUE,,,,,,,143,globus,Catalan,Sounds/cat_globus.mp3,2020-06-15_17h55.19.900,TranslationElicitation_spa,3.2.4,Win32,60,5ee3e04903b8560b39e58d9e,,1,0,80,38,1,79
,,,,,,,,,,,,,,,,,,,,,,,,,,,,,,,,,,,b,5.825000048,GLOB,TRUE,,,,,,,143,globus,Catalan,Sounds/cat_globus.mp3,2020-06-15_17h55.19.900,TranslationElicitation_spa,3.2.4,Win32,60,5ee3e04903b8560b39e58d9e,,1,0,80,38,1,79
,,,,,,,,,,,,,,,,,,,,,,,,,,,,,,,,,,,o,5.874000072,GLOBO,TRUE,,,,,,,143,globus,Catalan,Sounds/cat_globus.mp3,2020-06-15_17h55.19.900,TranslationElicitation_spa,3.2.4,Win32,60,5ee3e04903b8560b39e58d9e,,1,0,80,38,1,79
,,,,,,,,,,,,,,,,,,,,,,,,,,,,,,,,,,,return,6.720000029,,TRUE,,,,,,,143,globus,Catalan,Sounds/cat_globus.mp3,2020-06-15_17h55.19.900,TranslationElicitation_spa,3.2.4,Win32,60,5ee3e04903b8560b39e58d9e,6.720000029,1,0,80,38,1,79
,,,,,,,,,,,,,,,,,,,,,,,,,,,,,,,,,,,,,,,,,,,,,143,globus,Catalan,Sounds/cat_globus.mp3,2020-06-15_17h55.19.900,TranslationElicitation_spa,3.2.4,Win32,60,5ee3e04903b8560b39e58d9e,,1,0,80,38,1,79
,,,,,,,,,,,,,,,,,,,,,,,,,,,,,,,,,,,f,1.525000095,F,FALSE,,,,,,,134,flor,Catalan,Sounds/cat_flor.mp3,2020-06-15_17h55.19.900,TranslationElicitation_spa,3.2.4,Win32,60,5ee3e04903b8560b39e58d9e,,1,0,80,29,1,79
,,,,,,,,,,,,,,,,,,,,,,,,,,,,,,,,,,,l,1.633000135,FL,FALSE,,,,,,,134,flor,Catalan,Sounds/cat_flor.mp3,2020-06-15_17h55.19.900,TranslationElicitation_spa,3.2.4,Win32,60,5ee3e04903b8560b39e58d9e,,1,0,80,29,1,79
,,,,,,,,,,,,,,,,,,,,,,,,,,,,,,,,,,,o,1.828000069,FLO,FALSE,,,,,,,134,flor,Catalan,Sounds/cat_flor.mp3,2020-06-15_17h55.19.900,TranslationElicitation_spa,3.2.4,Win32,60,5ee3e04903b8560b39e58d9e,,1,0,80,29,1,79
,,,,,,,,,,,,,,,,,,,,,,,,,,,,,,,,,,,r,1.911000013,FLOR,FALSE,,,,,,,134,flor,Catalan,Sounds/cat_flor.mp3,2020-06-15_17h55.19.900,TranslationElicitation_spa,3.2.4,Win32,60,5ee3e04903b8560b39e58d9e,,1,0,80,29,1,79
,,,,,,,,,,,,,,,,,,,,,,,,,,,,,,,,,,,return,5.509000063,,FALSE,,,,,,,134,flor,Catalan,Sounds/cat_flor.mp3,2020-06-15_17h55.19.900,TranslationElicitation_spa,3.2.4,Win32,60,5ee3e04903b8560b39e58d9e,5.509000063,1,0,80,29,1,79
,,,,,,,,,,,,,,,,,,,,,,,,,,,,,,,,,,,,,,,,,,,,,134,flor,Catalan,Sounds/cat_flor.mp3,2020-06-15_17h55.19.900,TranslationElicitation_spa,3.2.4,Win32,60,5ee3e04903b8560b39e58d9e,,1,0,80,29,1,79
,,,,,,,,,,,,,,,,,,,,,,,,,,,,,,,,,,,p,3.566000223,P,FALSE,,,,,,,178,taronja,Catalan,Sounds/cat_taronja.mp3,2020-06-15_17h55.19.900,TranslationElicitation_spa,3.2.4,Win32,60,5ee3e04903b8560b39e58d9e,,1,0,80,70,1,79
,,,,,,,,,,,,,,,,,,,,,,,,,,,,,,,,,,,backspace,4.584000111,,TRUE,,,,,,,178,taronja,Catalan,Sounds/cat_taronja.mp3,2020-06-15_17h55.19.900,TranslationElicitation_spa,3.2.4,Win32,60,5ee3e04903b8560b39e58d9e,,1,0,80,70,1,79
,,,,,,,,,,,,,,,,,,,,,,,,,,,,,,,,,,,t,5.963000059,T,TRUE,,,,,,,178,taronja,Catalan,Sounds/cat_taronja.mp3,2020-06-15_17h55.19.900,TranslationElicitation_spa,3.2.4,Win32,60,5ee3e04903b8560b39e58d9e,,1,0,80,70,1,79
,,,,,,,,,,,,,,,,,,,,,,,,,,,,,,,,,,,r,6.113000154,TR,TRUE,,,,,,,178,taronja,Catalan,Sounds/cat_taronja.mp3,2020-06-15_17h55.19.900,TranslationElicitation_spa,3.2.4,Win32,60,5ee3e04903b8560b39e58d9e,,1,0,80,70,1,79
,,,,,,,,,,,,,,,,,,,,,,,,,,,,,,,,,,,a,8.739000082,TRA,TRUE,,,,,,,178,taronja,Catalan,Sounds/cat_taronja.mp3,2020-06-15_17h55.19.900,TranslationElicitation_spa,3.2.4,Win32,60,5ee3e04903b8560b39e58d9e,,1,0,80,70,1,79
,,,,,,,,,,,,,,,,,,,,,,,,,,,,,,,,,,,n,8.993000031,TRAN,TRUE,,,,,,,178,taronja,Catalan,Sounds/cat_taronja.mp3,2020-06-15_17h55.19.900,TranslationElicitation_spa,3.2.4,Win32,60,5ee3e04903b8560b39e58d9e,,1,0,80,70,1,79
,,,,,,,,,,,,,,,,,,,,,,,,,,,,,,,,,,,v,9.57400012,TRANV,TRUE,,,,,,,178,taronja,Catalan,Sounds/cat_taronja.mp3,2020-06-15_17h55.19.900,TranslationElicitation_spa,3.2.4,Win32,60,5ee3e04903b8560b39e58d9e,,1,0,80,70,1,79
,,,,,,,,,,,,,,,,,,,,,,,,,,,,,,,,,,,i,10.05200005,TRANVI,TRUE,,,,,,,178,taronja,Catalan,Sounds/cat_taronja.mp3,2020-06-15_17h55.19.900,TranslationElicitation_spa,3.2.4,Win32,60,5ee3e04903b8560b39e58d9e,,1,0,80,70,1,79
,,,,,,,,,,,,,,,,,,,,,,,,,,,,,,,,,,,a,10.25800014,TRANVIA,TRUE,,,,,,,178,taronja,Catalan,Sounds/cat_taronja.mp3,2020-06-15_17h55.19.900,TranslationElicitation_spa,3.2.4,Win32,60,5ee3e04903b8560b39e58d9e,,1,0,80,70,1,79
,,,,,,,,,,,,,,,,,,,,,,,,,,,,,,,,,,,return,10.68100023,,TRUE,,,,,,,178,taronja,Catalan,Sounds/cat_taronja.mp3,2020-06-15_17h55.19.900,TranslationElicitation_spa,3.2.4,Win32,60,5ee3e04903b8560b39e58d9e,10.68100023,1,0,80,70,1,79
,,,,,,,,,,,,,,,,,,,,,,,,,,,,,,,,,,,,,,,,,,,,,178,taronja,Catalan,Sounds/cat_taronja.mp3,2020-06-15_17h55.19.900,TranslationElicitation_spa,3.2.4,Win32,60,5ee3e04903b8560b39e58d9e,,1,0,80,70,1,79
,,,,,,,,,,,,,,,,,,,,,,,,,,,,,,,,,,,s,4.878999949,S,FALSE,,,,,,,160,orella,Catalan,Sounds/cat_orella.mp3,2020-06-15_17h55.19.900,TranslationElicitation_spa,3.2.4,Win32,60,5ee3e04903b8560b39e58d9e,,1,0,80,53,1,79
,,,,,,,,,,,,,,,,,,,,,,,,,,,,,,,,,,,o,6.131999969,SO,FALSE,,,,,,,160,orella,Catalan,Sounds/cat_orella.mp3,2020-06-15_17h55.19.900,TranslationElicitation_spa,3.2.4,Win32,60,5ee3e04903b8560b39e58d9e,,1,0,80,53,1,79
,,,,,,,,,,,,,,,,,,,,,,,,,,,,,,,,,,,r,6.307999849,SOR,FALSE,,,,,,,160,orella,Catalan,Sounds/cat_orella.mp3,2020-06-15_17h55.19.900,TranslationElicitation_spa,3.2.4,Win32,60,5ee3e04903b8560b39e58d9e,,1,0,80,53,1,79
,,,,,,,,,,,,,,,,,,,,,,,,,,,,,,,,,,,p,6.487999916,SORP,FALSE,,,,,,,160,orella,Catalan,Sounds/cat_orella.mp3,2020-06-15_17h55.19.900,TranslationElicitation_spa,3.2.4,Win32,60,5ee3e04903b8560b39e58d9e,,1,0,80,53,1,79
,,,,,,,,,,,,,,,,,,,,,,,,,,,,,,,,,,,r,7.26699996,SORPR,FALSE,,,,,,,160,orella,Catalan,Sounds/cat_orella.mp3,2020-06-15_17h55.19.900,TranslationElicitation_spa,3.2.4,Win32,60,5ee3e04903b8560b39e58d9e,,1,0,80,53,1,79
,,,,,,,,,,,,,,,,,,,,,,,,,,,,,,,,,,,e,7.38499999,SORPRE,FALSE,,,,,,,160,orella,Catalan,Sounds/cat_orella.mp3,2020-06-15_17h55.19.900,TranslationElicitation_spa,3.2.4,Win32,60,5ee3e04903b8560b39e58d9e,,1,0,80,53,1,79
,,,,,,,,,,,,,,,,,,,,,,,,,,,,,,,,,,,n,7.573999882,SORPREN,FALSE,,,,,,,160,orella,Catalan,Sounds/cat_orella.mp3,2020-06-15_17h55.19.900,TranslationElicitation_spa,3.2.4,Win32,60,5ee3e04903b8560b39e58d9e,,1,0,80,53,1,79
,,,,,,,,,,,,,,,,,,,,,,,,,,,,,,,,,,,d,8.312999964,SORPREND,FALSE,,,,,,,160,orella,Catalan,Sounds/cat_orella.mp3,2020-06-15_17h55.19.900,TranslationElicitation_spa,3.2.4,Win32,60,5ee3e04903b8560b39e58d9e,,1,0,80,53,1,79
,,,,,,,,,,,,,,,,,,,,,,,,,,,,,,,,,,,e,8.428999901,SORPRENDE,FALSE,,,,,,,160,orella,Catalan,Sounds/cat_orella.mp3,2020-06-15_17h55.19.900,TranslationElicitation_spa,3.2.4,Win32,60,5ee3e04903b8560b39e58d9e,,1,0,80,53,1,79
,,,,,,,,,,,,,,,,,,,,,,,,,,,,,,,,,,,n,8.561999798,SORPRENDEN,FALSE,,,,,,,160,orella,Catalan,Sounds/cat_orella.mp3,2020-06-15_17h55.19.900,TranslationElicitation_spa,3.2.4,Win32,60,5ee3e04903b8560b39e58d9e,,1,0,80,53,1,79
,,,,,,,,,,,,,,,,,,,,,,,,,,,,,,,,,,,t,8.644999981,SORPRENDENT,FALSE,,,,,,,160,orella,Catalan,Sounds/cat_orella.mp3,2020-06-15_17h55.19.900,TranslationElicitation_spa,3.2.4,Win32,60,5ee3e04903b8560b39e58d9e,,1,0,80,53,1,79
,,,,,,,,,,,,,,,,,,,,,,,,,,,,,,,,,,,e,8.828999996,SORPRENDENTE,FALSE,,,,,,,160,orella,Catalan,Sounds/cat_orella.mp3,2020-06-15_17h55.19.900,TranslationElicitation_spa,3.2.4,Win32,60,5ee3e04903b8560b39e58d9e,,1,0,80,53,1,79
,,,,,,,,,,,,,,,,,,,,,,,,,,,,,,,,,,,return,8.926999807,,FALSE,,,,,,,160,orella,Catalan,Sounds/cat_orella.mp3,2020-06-15_17h55.19.900,TranslationElicitation_spa,3.2.4,Win32,60,5ee3e04903b8560b39e58d9e,8.926999807,1,0,80,53,1,79
,,,,,,,,,,,,,,,,,,,,,,,,,,,,,,,,,,,,,,,,,,,,,160,orella,Catalan,Sounds/cat_orella.mp3,2020-06-15_17h55.19.900,TranslationElicitation_spa,3.2.4,Win32,60,5ee3e04903b8560b39e58d9e,,1,0,80,53,1,79
,,,,,,,,,,,,,,,,,,,,,,,,,,,,,,,,,,,a,3.032000065,A,FALSE,,,,,,,154,mirall,Catalan,Sounds/cat_mirall.mp3,2020-06-15_17h55.19.900,TranslationElicitation_spa,3.2.4,Win32,60,5ee3e04903b8560b39e58d9e,,1,0,80,48,1,79
,,,,,,,,,,,,,,,,,,,,,,,,,,,,,,,,,,,l,3.230000019,AL,FALSE,,,,,,,154,mirall,Catalan,Sounds/cat_mirall.mp3,2020-06-15_17h55.19.900,TranslationElicitation_spa,3.2.4,Win32,60,5ee3e04903b8560b39e58d9e,,1,0,80,48,1,79
,,,,,,,,,,,,,,,,,,,,,,,,,,,,,,,,,,,t,3.413000107,ALT,FALSE,,,,,,,154,mirall,Catalan,Sounds/cat_mirall.mp3,2020-06-15_17h55.19.900,TranslationElicitation_spa,3.2.4,Win32,60,5ee3e04903b8560b39e58d9e,,1,0,80,48,1,79
,,,,,,,,,,,,,,,,,,,,,,,,,,,,,,,,,,,o,3.86500001,ALTO,FALSE,,,,,,,154,mirall,Catalan,Sounds/cat_mirall.mp3,2020-06-15_17h55.19.900,TranslationElicitation_spa,3.2.4,Win32,60,5ee3e04903b8560b39e58d9e,,1,0,80,48,1,79
,,,,,,,,,,,,,,,,,,,,,,,,,,,,,,,,,,,return,4.403000116,,FALSE,,,,,,,154,mirall,Catalan,Sounds/cat_mirall.mp3,2020-06-15_17h55.19.900,TranslationElicitation_spa,3.2.4,Win32,60,5ee3e04903b8560b39e58d9e,4.403000116,1,0,80,48,1,79
,,,,,,,,,,,,,,,,,,,,,,,,,,,,,,,,,,,,,,,,,,,,,154,mirall,Catalan,Sounds/cat_mirall.mp3,2020-06-15_17h55.19.900,TranslationElicitation_spa,3.2.4,Win32,60,5ee3e04903b8560b39e58d9e,,1,0,80,48,1,79
,,,,,,,,,,,,,,,,,,,,,,,,,,,,,,,,,,,c,1.641000032,C,FALSE,,,,,,,127,cotxe,Catalan,Sounds/cat_cotxe.mp3,2020-06-15_17h55.19.900,TranslationElicitation_spa,3.2.4,Win32,60,5ee3e04903b8560b39e58d9e,,1,0,80,22,1,79
,,,,,,,,,,,,,,,,,,,,,,,,,,,,,,,,,,,o,1.696000099,CO,FALSE,,,,,,,127,cotxe,Catalan,Sounds/cat_cotxe.mp3,2020-06-15_17h55.19.900,TranslationElicitation_spa,3.2.4,Win32,60,5ee3e04903b8560b39e58d9e,,1,0,80,22,1,79
,,,,,,,,,,,,,,,,,,,,,,,,,,,,,,,,,,,c,1.847000122,COC,FALSE,,,,,,,127,cotxe,Catalan,Sounds/cat_cotxe.mp3,2020-06-15_17h55.19.900,TranslationElicitation_spa,3.2.4,Win32,60,5ee3e04903b8560b39e58d9e,,1,0,80,22,1,79
,,,,,,,,,,,,,,,,,,,,,,,,,,,,,,,,,,,h,1.934000015,COCH,FALSE,,,,,,,127,cotxe,Catalan,Sounds/cat_cotxe.mp3,2020-06-15_17h55.19.900,TranslationElicitation_spa,3.2.4,Win32,60,5ee3e04903b8560b39e58d9e,,1,0,80,22,1,79
,,,,,,,,,,,,,,,,,,,,,,,,,,,,,,,,,,,e,2.015000105,COCHE,FALSE,,,,,,,127,cotxe,Catalan,Sounds/cat_cotxe.mp3,2020-06-15_17h55.19.900,TranslationElicitation_spa,3.2.4,Win32,60,5ee3e04903b8560b39e58d9e,,1,0,80,22,1,79
,,,,,,,,,,,,,,,,,,,,,,,,,,,,,,,,,,,return,3.676000118,,FALSE,,,,,,,127,cotxe,Catalan,Sounds/cat_cotxe.mp3,2020-06-15_17h55.19.900,TranslationElicitation_spa,3.2.4,Win32,60,5ee3e04903b8560b39e58d9e,3.676000118,1,0,80,22,1,79
,,,,,,,,,,,,,,,,,,,,,,,,,,,,,,,,,,,,,,,,,,,,,127,cotxe,Catalan,Sounds/cat_cotxe.mp3,2020-06-15_17h55.19.900,TranslationElicitation_spa,3.2.4,Win32,60,5ee3e04903b8560b39e58d9e,,1,0,80,22,1,79
,,,,,,,,,,,,,,,,,,,,,,,,,,,,,,,,,,,o,12.63800001,O,FALSE,,,,,,,161,ovella,Catalan,Sounds/cat_ovella.mp3,2020-06-15_17h55.19.900,TranslationElicitation_spa,3.2.4,Win32,60,5ee3e04903b8560b39e58d9e,,1,0,80,54,1,79
,,,,,,,,,,,,,,,,,,,,,,,,,,,,,,,,,,,v,13.70099998,OV,FALSE,,,,,,,161,ovella,Catalan,Sounds/cat_ovella.mp3,2020-06-15_17h55.19.900,TranslationElicitation_spa,3.2.4,Win32,60,5ee3e04903b8560b39e58d9e,,1,0,80,54,1,79
,,,,,,,,,,,,,,,,,,,,,,,,,,,,,,,,,,,u,13.91100001,OVU,FALSE,,,,,,,161,ovella,Catalan,Sounds/cat_ovella.mp3,2020-06-15_17h55.19.900,TranslationElicitation_spa,3.2.4,Win32,60,5ee3e04903b8560b39e58d9e,,1,0,80,54,1,79
,,,,,,,,,,,,,,,,,,,,,,,,,,,,,,,,,,,l,16.97399998,OVUL,FALSE,,,,,,,161,ovella,Catalan,Sounds/cat_ovella.mp3,2020-06-15_17h55.19.900,TranslationElicitation_spa,3.2.4,Win32,60,5ee3e04903b8560b39e58d9e,,1,0,80,54,1,79
,,,,,,,,,,,,,,,,,,,,,,,,,,,,,,,,,,,o,17.11400008,OVULO,FALSE,,,,,,,161,ovella,Catalan,Sounds/cat_ovella.mp3,2020-06-15_17h55.19.900,TranslationElicitation_spa,3.2.4,Win32,60,5ee3e04903b8560b39e58d9e,,1,0,80,54,1,79
,,,,,,,,,,,,,,,,,,,,,,,,,,,,,,,,,,,return,17.34500003,,FALSE,,,,,,,161,ovella,Catalan,Sounds/cat_ovella.mp3,2020-06-15_17h55.19.900,TranslationElicitation_spa,3.2.4,Win32,60,5ee3e04903b8560b39e58d9e,17.34500003,1,0,80,54,1,79
,,,,,,,,,,,,,,,,,,,,,,,,,,,,,,,,,,,,,,,,,,,,,161,ovella,Catalan,Sounds/cat_ovella.mp3,2020-06-15_17h55.19.900,TranslationElicitation_spa,3.2.4,Win32,60,5ee3e04903b8560b39e58d9e,,1,0,80,54,1,79
,,,,,,,,,,,,,,,,,,,,,,,,,,,,,,,,,,,g,3.128999949,G,FALSE,,,,,,,150,lloro,Catalan,Sounds/cat_lloro.mp3,2020-06-15_17h55.19.900,TranslationElicitation_spa,3.2.4,Win32,60,5ee3e04903b8560b39e58d9e,,1,0,80,44,1,79
,,,,,,,,,,,,,,,,,,,,,,,,,,,,,,,,,,,l,3.255000114,GL,FALSE,,,,,,,150,lloro,Catalan,Sounds/cat_lloro.mp3,2020-06-15_17h55.19.900,TranslationElicitation_spa,3.2.4,Win32,60,5ee3e04903b8560b39e58d9e,,1,0,80,44,1,79
,,,,,,,,,,,,,,,,,,,,,,,,,,,,,,,,,,,o,3.430999994,GLO,FALSE,,,,,,,150,lloro,Catalan,Sounds/cat_lloro.mp3,2020-06-15_17h55.19.900,TranslationElicitation_spa,3.2.4,Win32,60,5ee3e04903b8560b39e58d9e,,1,0,80,44,1,79
,,,,,,,,,,,,,,,,,,,,,,,,,,,,,,,,,,,r,4.317000151,GLOR,FALSE,,,,,,,150,lloro,Catalan,Sounds/cat_lloro.mp3,2020-06-15_17h55.19.900,TranslationElicitation_spa,3.2.4,Win32,60,5ee3e04903b8560b39e58d9e,,1,0,80,44,1,79
,,,,,,,,,,,,,,,,,,,,,,,,,,,,,,,,,,,i,4.49000001,GLORI,FALSE,,,,,,,150,lloro,Catalan,Sounds/cat_lloro.mp3,2020-06-15_17h55.19.900,TranslationElicitation_spa,3.2.4,Win32,60,5ee3e04903b8560b39e58d9e,,1,0,80,44,1,79
,,,,,,,,,,,,,,,,,,,,,,,,,,,,,,,,,,,o,5.055999994,GLORIO,FALSE,,,,,,,150,lloro,Catalan,Sounds/cat_lloro.mp3,2020-06-15_17h55.19.900,TranslationElicitation_spa,3.2.4,Win32,60,5ee3e04903b8560b39e58d9e,,1,0,80,44,1,79
,,,,,,,,,,,,,,,,,,,,,,,,,,,,,,,,,,,backspace,5.703999996,GLOR,TRUE,,,,,,,150,lloro,Catalan,Sounds/cat_lloro.mp3,2020-06-15_17h55.19.900,TranslationElicitation_spa,3.2.4,Win32,60,5ee3e04903b8560b39e58d9e,,1,0,80,44,1,79
,,,,,,,,,,,,,,,,,,,,,,,,,,,,,,,,,,,s,5.801000118,GLORS,TRUE,,,,,,,150,lloro,Catalan,Sounds/cat_lloro.mp3,2020-06-15_17h55.19.900,TranslationElicitation_spa,3.2.4,Win32,60,5ee3e04903b8560b39e58d9e,,1,0,80,44,1,79
,,,,,,,,,,,,,,,,,,,,,,,,,,,,,,,,,,,backspace,6.59100008,GLO,TRUE,,,,,,,150,lloro,Catalan,Sounds/cat_lloro.mp3,2020-06-15_17h55.19.900,TranslationElicitation_spa,3.2.4,Win32,60,5ee3e04903b8560b39e58d9e,,1,0,80,44,1,79
,,,,,,,,,,,,,,,,,,,,,,,,,,,,,,,,,,,i,7.233999968,GLOI,TRUE,,,,,,,150,lloro,Catalan,Sounds/cat_lloro.mp3,2020-06-15_17h55.19.900,TranslationElicitation_spa,3.2.4,Win32,60,5ee3e04903b8560b39e58d9e,,1,0,80,44,1,79
,,,,,,,,,,,,,,,,,,,,,,,,,,,,,,,,,,,a,7.365999937,GLOIA,TRUE,,,,,,,150,lloro,Catalan,Sounds/cat_lloro.mp3,2020-06-15_17h55.19.900,TranslationElicitation_spa,3.2.4,Win32,60,5ee3e04903b8560b39e58d9e,,1,0,80,44,1,79
,,,,,,,,,,,,,,,,,,,,,,,,,,,,,,,,,,,backspace,8.312000036,GLO,TRUE,,,,,,,150,lloro,Catalan,Sounds/cat_lloro.mp3,2020-06-15_17h55.19.900,TranslationElicitation_spa,3.2.4,Win32,60,5ee3e04903b8560b39e58d9e,,1,0,80,44,1,79
,,,,,,,,,,,,,,,,,,,,,,,,,,,,,,,,,,,r,9.49000001,GLOR,TRUE,,,,,,,150,lloro,Catalan,Sounds/cat_lloro.mp3,2020-06-15_17h55.19.900,TranslationElicitation_spa,3.2.4,Win32,60,5ee3e04903b8560b39e58d9e,,1,0,80,44,1,79
,,,,,,,,,,,,,,,,,,,,,,,,,,,,,,,,,,,i,9.679000139,GLORI,TRUE,,,,,,,150,lloro,Catalan,Sounds/cat_lloro.mp3,2020-06-15_17h55.19.900,TranslationElicitation_spa,3.2.4,Win32,60,5ee3e04903b8560b39e58d9e,,1,0,80,44,1,79
,,,,,,,,,,,,,,,,,,,,,,,,,,,,,,,,,,,a,9.871999979,GLORIA,TRUE,,,,,,,150,lloro,Catalan,Sounds/cat_lloro.mp3,2020-06-15_17h55.19.900,TranslationElicitation_spa,3.2.4,Win32,60,5ee3e04903b8560b39e58d9e,,1,0,80,44,1,79
,,,,,,,,,,,,,,,,,,,,,,,,,,,,,,,,,,,return,10.05200005,,TRUE,,,,,,,150,lloro,Catalan,Sounds/cat_lloro.mp3,2020-06-15_17h55.19.900,TranslationElicitation_spa,3.2.4,Win32,60,5ee3e04903b8560b39e58d9e,10.05200005,1,0,80,44,1,79
,,,,,,,,,,,,,,,,,,,,,,,,,,,,,,,,,,,,,,,,,,,,,150,lloro,Catalan,Sounds/cat_lloro.mp3,2020-06-15_17h55.19.900,TranslationElicitation_spa,3.2.4,Win32,60,5ee3e04903b8560b39e58d9e,,1,0,80,44,1,79
,,,,,,,,,,,,,,,,,,,,,,,,,,,,,,,,,,,h,9.041999817,H,FALSE,,,,,,,129,dit,Catalan,Sounds/cat_dit.mp3,2020-06-15_17h55.19.900,TranslationElicitation_spa,3.2.4,Win32,60,5ee3e04903b8560b39e58d9e,,1,0,80,24,1,79
,,,,,,,,,,,,,,,,,,,,,,,,,,,,,,,,,,,e,9.268999815,HE,FALSE,,,,,,,129,dit,Catalan,Sounds/cat_dit.mp3,2020-06-15_17h55.19.900,TranslationElicitation_spa,3.2.4,Win32,60,5ee3e04903b8560b39e58d9e,,1,0,80,24,1,79
,,,,,,,,,,,,,,,,,,,,,,,,,,,,,,,,,,,backspace,11.82099986,,TRUE,,,,,,,129,dit,Catalan,Sounds/cat_dit.mp3,2020-06-15_17h55.19.900,TranslationElicitation_spa,3.2.4,Win32,60,5ee3e04903b8560b39e58d9e,,1,0,80,24,1,79
,,,,,,,,,,,,,,,,,,,,,,,,,,,,,,,,,,,backspace,12.24799991,,TRUE,,,,,,,129,dit,Catalan,Sounds/cat_dit.mp3,2020-06-15_17h55.19.900,TranslationElicitation_spa,3.2.4,Win32,60,5ee3e04903b8560b39e58d9e,,1,0,80,24,1,79
,,,,,,,,,,,,,,,,,,,,,,,,,,,,,,,,,,,backspace,12.28699994,,TRUE,,,,,,,129,dit,Catalan,Sounds/cat_dit.mp3,2020-06-15_17h55.19.900,TranslationElicitation_spa,3.2.4,Win32,60,5ee3e04903b8560b39e58d9e,,1,0,80,24,1,79
,,,,,,,,,,,,,,,,,,,,,,,,,,,,,,,,,,,backspace,12.30599999,,TRUE,,,,,,,129,dit,Catalan,Sounds/cat_dit.mp3,2020-06-15_17h55.19.900,TranslationElicitation_spa,3.2.4,Win32,60,5ee3e04903b8560b39e58d9e,,1,0,80,24,1,79
,,,,,,,,,,,,,,,,,,,,,,,,,,,,,,,,,,,backspace,12.33099985,,TRUE,,,,,,,129,dit,Catalan,Sounds/cat_dit.mp3,2020-06-15_17h55.19.900,TranslationElicitation_spa,3.2.4,Win32,60,5ee3e04903b8560b39e58d9e,,1,0,80,24,1,79
,,,,,,,,,,,,,,,,,,,,,,,,,,,,,,,,,,,backspace,12.352,,TRUE,,,,,,,129,dit,Catalan,Sounds/cat_dit.mp3,2020-06-15_17h55.19.900,TranslationElicitation_spa,3.2.4,Win32,60,5ee3e04903b8560b39e58d9e,,1,0,80,24,1,79
,,,,,,,,,,,,,,,,,,,,,,,,,,,,,,,,,,,backspace,12.375,,TRUE,,,,,,,129,dit,Catalan,Sounds/cat_dit.mp3,2020-06-15_17h55.19.900,TranslationElicitation_spa,3.2.4,Win32,60,5ee3e04903b8560b39e58d9e,,1,0,80,24,1,79
,,,,,,,,,,,,,,,,,,,,,,,,,,,,,,,,,,,backspace,12.38800001,,TRUE,,,,,,,129,dit,Catalan,Sounds/cat_dit.mp3,2020-06-15_17h55.19.900,TranslationElicitation_spa,3.2.4,Win32,60,5ee3e04903b8560b39e58d9e,,1,0,80,24,1,79
,,,,,,,,,,,,,,,,,,,,,,,,,,,,,,,,,,,backspace,12.40999985,,TRUE,,,,,,,129,dit,Catalan,Sounds/cat_dit.mp3,2020-06-15_17h55.19.900,TranslationElicitation_spa,3.2.4,Win32,60,5ee3e04903b8560b39e58d9e,,1,0,80,24,1,79
,,,,,,,,,,,,,,,,,,,,,,,,,,,,,,,,,,,backspace,12.44199991,,TRUE,,,,,,,129,dit,Catalan,Sounds/cat_dit.mp3,2020-06-15_17h55.19.900,TranslationElicitation_spa,3.2.4,Win32,60,5ee3e04903b8560b39e58d9e,,1,0,80,24,1,79
,,,,,,,,,,,,,,,,,,,,,,,,,,,,,,,,,,,backspace,12.45799994,,TRUE,,,,,,,129,dit,Catalan,Sounds/cat_dit.mp3,2020-06-15_17h55.19.900,TranslationElicitation_spa,3.2.4,Win32,60,5ee3e04903b8560b39e58d9e,,1,0,80,24,1,79
,,,,,,,,,,,,,,,,,,,,,,,,,,,,,,,,,,,backspace,12.5,,TRUE,,,,,,,129,dit,Catalan,Sounds/cat_dit.mp3,2020-06-15_17h55.19.900,TranslationElicitation_spa,3.2.4,Win32,60,5ee3e04903b8560b39e58d9e,,1,0,80,24,1,79
,,,,,,,,,,,,,,,,,,,,,,,,,,,,,,,,,,,backspace,12.51999998,,TRUE,,,,,,,129,dit,Catalan,Sounds/cat_dit.mp3,2020-06-15_17h55.19.900,TranslationElicitation_spa,3.2.4,Win32,60,5ee3e04903b8560b39e58d9e,,1,0,80,24,1,79
,,,,,,,,,,,,,,,,,,,,,,,,,,,,,,,,,,,backspace,12.54399991,,TRUE,,,,,,,129,dit,Catalan,Sounds/cat_dit.mp3,2020-06-15_17h55.19.900,TranslationElicitation_spa,3.2.4,Win32,60,5ee3e04903b8560b39e58d9e,,1,0,80,24,1,79
,,,,,,,,,,,,,,,,,,,,,,,,,,,,,,,,,,,c,13.35500002,C,TRUE,,,,,,,129,dit,Catalan,Sounds/cat_dit.mp3,2020-06-15_17h55.19.900,TranslationElicitation_spa,3.2.4,Win32,60,5ee3e04903b8560b39e58d9e,,1,0,80,24,1,79
,,,,,,,,,,,,,,,,,,,,,,,,,,,,,,,,,,,l,13.56299996,CL,TRUE,,,,,,,129,dit,Catalan,Sounds/cat_dit.mp3,2020-06-15_17h55.19.900,TranslationElicitation_spa,3.2.4,Win32,60,5ee3e04903b8560b39e58d9e,,1,0,80,24,1,79
,,,,,,,,,,,,,,,,,,,,,,,,,,,,,,,,,,,a,13.62099981,CLA,TRUE,,,,,,,129,dit,Catalan,Sounds/cat_dit.mp3,2020-06-15_17h55.19.900,TranslationElicitation_spa,3.2.4,Win32,60,5ee3e04903b8560b39e58d9e,,1,0,80,24,1,79
,,,,,,,,,,,,,,,,,,,,,,,,,,,,,,,,,,,r,13.88699985,CLAR,TRUE,,,,,,,129,dit,Catalan,Sounds/cat_dit.mp3,2020-06-15_17h55.19.900,TranslationElicitation_spa,3.2.4,Win32,60,5ee3e04903b8560b39e58d9e,,1,0,80,24,1,79
,,,,,,,,,,,,,,,,,,,,,,,,,,,,,,,,,,,o,14.0309999,CLARO,TRUE,,,,,,,129,dit,Catalan,Sounds/cat_dit.mp3,2020-06-15_17h55.19.900,TranslationElicitation_spa,3.2.4,Win32,60,5ee3e04903b8560b39e58d9e,,1,0,80,24,1,79
,,,,,,,,,,,,,,,,,,,,,,,,,,,,,,,,,,,return,14.56299996,,TRUE,,,,,,,129,dit,Catalan,Sounds/cat_dit.mp3,2020-06-15_17h55.19.900,TranslationElicitation_spa,3.2.4,Win32,60,5ee3e04903b8560b39e58d9e,14.56299996,1,0,80,24,1,79
,,,,,,,,,,,,,,,,,,,,,,,,,,,,,,,,,,,,,,,,,,,,,129,dit,Catalan,Sounds/cat_dit.mp3,2020-06-15_17h55.19.900,TranslationElicitation_spa,3.2.4,Win32,60,5ee3e04903b8560b39e58d9e,,1,0,80,24,1,79
,,,,,,,,,,,,,,,,,,,,,,,,,,,,,,,,,,,n,6.890000105,N,FALSE,,,,,,,140,gat,Catalan,Sounds/cat_gat.mp3,2020-06-15_17h55.19.900,TranslationElicitation_spa,3.2.4,Win32,60,5ee3e04903b8560b39e58d9e,,1,0,80,35,1,79
,,,,,,,,,,,,,,,,,,,,,,,,,,,,,,,,,,,o,7.007999897,NO,FALSE,,,,,,,140,gat,Catalan,Sounds/cat_gat.mp3,2020-06-15_17h55.19.900,TranslationElicitation_spa,3.2.4,Win32,60,5ee3e04903b8560b39e58d9e,,1,0,80,35,1,79
,,,,,,,,,,,,,,,,,,,,,,,,,,,,,,,,,,,backspace,8.95600009,,TRUE,,,,,,,140,gat,Catalan,Sounds/cat_gat.mp3,2020-06-15_17h55.19.900,TranslationElicitation_spa,3.2.4,Win32,60,5ee3e04903b8560b39e58d9e,,1,0,80,35,1,79
,,,,,,,,,,,,,,,,,,,,,,,,,,,,,,,,,,,backspace,9.394999981,,TRUE,,,,,,,140,gat,Catalan,Sounds/cat_gat.mp3,2020-06-15_17h55.19.900,TranslationElicitation_spa,3.2.4,Win32,60,5ee3e04903b8560b39e58d9e,,1,0,80,35,1,79
,,,,,,,,,,,,,,,,,,,,,,,,,,,,,,,,,,,backspace,9.430999994,,TRUE,,,,,,,140,gat,Catalan,Sounds/cat_gat.mp3,2020-06-15_17h55.19.900,TranslationElicitation_spa,3.2.4,Win32,60,5ee3e04903b8560b39e58d9e,,1,0,80,35,1,79
,,,,,,,,,,,,,,,,,,,,,,,,,,,,,,,,,,,backspace,9.453999996,,TRUE,,,,,,,140,gat,Catalan,Sounds/cat_gat.mp3,2020-06-15_17h55.19.900,TranslationElicitation_spa,3.2.4,Win32,60,5ee3e04903b8560b39e58d9e,,1,0,80,35,1,79
,,,,,,,,,,,,,,,,,,,,,,,,,,,,,,,,,,,backspace,9.47300005,,TRUE,,,,,,,140,gat,Catalan,Sounds/cat_gat.mp3,2020-06-15_17h55.19.900,TranslationElicitation_spa,3.2.4,Win32,60,5ee3e04903b8560b39e58d9e,,1,0,80,35,1,79
,,,,,,,,,,,,,,,,,,,,,,,,,,,,,,,,,,,backspace,9.494999886,,TRUE,,,,,,,140,gat,Catalan,Sounds/cat_gat.mp3,2020-06-15_17h55.19.900,TranslationElicitation_spa,3.2.4,Win32,60,5ee3e04903b8560b39e58d9e,,1,0,80,35,1,79
,,,,,,,,,,,,,,,,,,,,,,,,,,,,,,,,,,,backspace,9.517999887,,TRUE,,,,,,,140,gat,Catalan,Sounds/cat_gat.mp3,2020-06-15_17h55.19.900,TranslationElicitation_spa,3.2.4,Win32,60,5ee3e04903b8560b39e58d9e,,1,0,80,35,1,79
,,,,,,,,,,,,,,,,,,,,,,,,,,,,,,,,,,,backspace,9.539000034,,TRUE,,,,,,,140,gat,Catalan,Sounds/cat_gat.mp3,2020-06-15_17h55.19.900,TranslationElicitation_spa,3.2.4,Win32,60,5ee3e04903b8560b39e58d9e,,1,0,80,35,1,79
,,,,,,,,,,,,,,,,,,,,,,,,,,,,,,,,,,,a,12.42799997,A,TRUE,,,,,,,140,gat,Catalan,Sounds/cat_gat.mp3,2020-06-15_17h55.19.900,TranslationElicitation_spa,3.2.4,Win32,60,5ee3e04903b8560b39e58d9e,,1,0,80,35,1,79
,,,,,,,,,,,,,,,,,,,,,,,,,,,,,,,,,,,space,12.58100009,A ,TRUE,,,,,,,140,gat,Catalan,Sounds/cat_gat.mp3,2020-06-15_17h55.19.900,TranslationElicitation_spa,3.2.4,Win32,60,5ee3e04903b8560b39e58d9e,,1,0,80,35,1,79
,,,,,,,,,,,,,,,,,,,,,,,,,,,,,,,,,,,v,12.89499998,A V,TRUE,,,,,,,140,gat,Catalan,Sounds/cat_gat.mp3,2020-06-15_17h55.19.900,TranslationElicitation_spa,3.2.4,Win32,60,5ee3e04903b8560b39e58d9e,,1,0,80,35,1,79
,,,,,,,,,,,,,,,,,,,,,,,,,,,,,,,,,,,e,13.72799993,A VE,TRUE,,,,,,,140,gat,Catalan,Sounds/cat_gat.mp3,2020-06-15_17h55.19.900,TranslationElicitation_spa,3.2.4,Win32,60,5ee3e04903b8560b39e58d9e,,1,0,80,35,1,79
,,,,,,,,,,,,,,,,,,,,,,,,,,,,,,,,,,,c,13.87800002,A VEC,TRUE,,,,,,,140,gat,Catalan,Sounds/cat_gat.mp3,2020-06-15_17h55.19.900,TranslationElicitation_spa,3.2.4,Win32,60,5ee3e04903b8560b39e58d9e,,1,0,80,35,1,79
,,,,,,,,,,,,,,,,,,,,,,,,,,,,,,,,,,,e,13.95799994,A VECE,TRUE,,,,,,,140,gat,Catalan,Sounds/cat_gat.mp3,2020-06-15_17h55.19.900,TranslationElicitation_spa,3.2.4,Win32,60,5ee3e04903b8560b39e58d9e,,1,0,80,35,1,79
,,,,,,,,,,,,,,,,,,,,,,,,,,,,,,,,,,,s,14.30299997,A VECES,TRUE,,,,,,,140,gat,Catalan,Sounds/cat_gat.mp3,2020-06-15_17h55.19.900,TranslationElicitation_spa,3.2.4,Win32,60,5ee3e04903b8560b39e58d9e,,1,0,80,35,1,79
,,,,,,,,,,,,,,,,,,,,,,,,,,,,,,,,,,,return,17.51200008,,TRUE,,,,,,,140,gat,Catalan,Sounds/cat_gat.mp3,2020-06-15_17h55.19.900,TranslationElicitation_spa,3.2.4,Win32,60,5ee3e04903b8560b39e58d9e,17.51200008,1,0,80,35,1,79
,,,,,,,,,,,,,,,,,,,,,,,,,,,,,,,,,,,,,,,,,,,,,140,gat,Catalan,Sounds/cat_gat.mp3,2020-06-15_17h55.19.900,TranslationElicitation_spa,3.2.4,Win32,60,5ee3e04903b8560b39e58d9e,,1,0,80,35,1,79
,,,,,,,,,,,,,,,,,,,,,,,,,,,,,,,,,,,n,9.33100009,N,FALSE,,,,,,,184,ull,Catalan,Sounds/cat_ull.mp3,2020-06-15_17h55.19.900,TranslationElicitation_spa,3.2.4,Win32,60,5ee3e04903b8560b39e58d9e,,1,0,80,75,1,79
,,,,,,,,,,,,,,,,,,,,,,,,,,,,,,,,,,,u,9.460999966,NU,FALSE,,,,,,,184,ull,Catalan,Sounds/cat_ull.mp3,2020-06-15_17h55.19.900,TranslationElicitation_spa,3.2.4,Win32,60,5ee3e04903b8560b39e58d9e,,1,0,80,75,1,79
,,,,,,,,,,,,,,,,,,,,,,,,,,,,,,,,,,,n,9.603000164,NUN,FALSE,,,,,,,184,ull,Catalan,Sounds/cat_ull.mp3,2020-06-15_17h55.19.900,TranslationElicitation_spa,3.2.4,Win32,60,5ee3e04903b8560b39e58d9e,,1,0,80,75,1,79
,,,,,,,,,,,,,,,,,,,,,,,,,,,,,,,,,,,c,11.46800017,NUNC,FALSE,,,,,,,184,ull,Catalan,Sounds/cat_ull.mp3,2020-06-15_17h55.19.900,TranslationElicitation_spa,3.2.4,Win32,60,5ee3e04903b8560b39e58d9e,,1,0,80,75,1,79
,,,,,,,,,,,,,,,,,,,,,,,,,,,,,,,,,,,a,11.58700013,NUNCA,FALSE,,,,,,,184,ull,Catalan,Sounds/cat_ull.mp3,2020-06-15_17h55.19.900,TranslationElicitation_spa,3.2.4,Win32,60,5ee3e04903b8560b39e58d9e,,1,0,80,75,1,79
,,,,,,,,,,,,,,,,,,,,,,,,,,,,,,,,,,,return,11.81200004,,FALSE,,,,,,,184,ull,Catalan,Sounds/cat_ull.mp3,2020-06-15_17h55.19.900,TranslationElicitation_spa,3.2.4,Win32,60,5ee3e04903b8560b39e58d9e,11.81200004,1,0,80,75,1,79
,,,,,,,,,,,,,,,,,,,,,,,,,,,,,,,,,,,,,,,,,,,,,184,ull,Catalan,Sounds/cat_ull.mp3,2020-06-15_17h55.19.900,TranslationElicitation_spa,3.2.4,Win32,60,5ee3e04903b8560b39e58d9e,,1,0,80,75,1,79
,,,,,,,,,,,,,,,,,,,,,,,,,,,,,,,,,,,h,2.611000061,H,FALSE,,,,,,,136,forquilla,Catalan,Sounds/cat_forquilla.mp3,2020-06-15_17h55.19.900,TranslationElicitation_spa,3.2.4,Win32,60,5ee3e04903b8560b39e58d9e,,1,0,80,31,1,79
,,,,,,,,,,,,,,,,,,,,,,,,,,,,,,,,,,,o,2.804000139,HO,FALSE,,,,,,,136,forquilla,Catalan,Sounds/cat_forquilla.mp3,2020-06-15_17h55.19.900,TranslationElicitation_spa,3.2.4,Win32,60,5ee3e04903b8560b39e58d9e,,1,0,80,31,1,79
,,,,,,,,,,,,,,,,,,,,,,,,,,,,,,,,,,,r,2.955000162,HOR,FALSE,,,,,,,136,forquilla,Catalan,Sounds/cat_forquilla.mp3,2020-06-15_17h55.19.900,TranslationElicitation_spa,3.2.4,Win32,60,5ee3e04903b8560b39e58d9e,,1,0,80,31,1,79
,,,,,,,,,,,,,,,,,,,,,,,,,,,,,,,,,,,q,3.638000011,HORQ,FALSE,,,,,,,136,forquilla,Catalan,Sounds/cat_forquilla.mp3,2020-06-15_17h55.19.900,TranslationElicitation_spa,3.2.4,Win32,60,5ee3e04903b8560b39e58d9e,,1,0,80,31,1,79
,,,,,,,,,,,,,,,,,,,,,,,,,,,,,,,,,,,u,3.817000151,HORQU,FALSE,,,,,,,136,forquilla,Catalan,Sounds/cat_forquilla.mp3,2020-06-15_17h55.19.900,TranslationElicitation_spa,3.2.4,Win32,60,5ee3e04903b8560b39e58d9e,,1,0,80,31,1,79
,,,,,,,,,,,,,,,,,,,,,,,,,,,,,,,,,,,i,3.989000082,HORQUI,FALSE,,,,,,,136,forquilla,Catalan,Sounds/cat_forquilla.mp3,2020-06-15_17h55.19.900,TranslationElicitation_spa,3.2.4,Win32,60,5ee3e04903b8560b39e58d9e,,1,0,80,31,1,79
,,,,,,,,,,,,,,,,,,,,,,,,,,,,,,,,,,,l,4.218000174,HORQUIL,FALSE,,,,,,,136,forquilla,Catalan,Sounds/cat_forquilla.mp3,2020-06-15_17h55.19.900,TranslationElicitation_spa,3.2.4,Win32,60,5ee3e04903b8560b39e58d9e,,1,0,80,31,1,79
,,,,,,,,,,,,,,,,,,,,,,,,,,,,,,,,,,,l,4.386000156,HORQUILL,FALSE,,,,,,,136,forquilla,Catalan,Sounds/cat_forquilla.mp3,2020-06-15_17h55.19.900,TranslationElicitation_spa,3.2.4,Win32,60,5ee3e04903b8560b39e58d9e,,1,0,80,31,1,79
,,,,,,,,,,,,,,,,,,,,,,,,,,,,,,,,,,,a,4.445000172,HORQUILLA,FALSE,,,,,,,136,forquilla,Catalan,Sounds/cat_forquilla.mp3,2020-06-15_17h55.19.900,TranslationElicitation_spa,3.2.4,Win32,60,5ee3e04903b8560b39e58d9e,,1,0,80,31,1,79
,,,,,,,,,,,,,,,,,,,,,,,,,,,,,,,,,,,return,5.447000027,,FALSE,,,,,,,136,forquilla,Catalan,Sounds/cat_forquilla.mp3,2020-06-15_17h55.19.900,TranslationElicitation_spa,3.2.4,Win32,60,5ee3e04903b8560b39e58d9e,5.447000027,1,0,80,31,1,79
,,,,,,,,,,,,,,,,,,,,,,,,,,,,,,,,,,,,,,,,,,,,,136,forquilla,Catalan,Sounds/cat_forquilla.mp3,2020-06-15_17h55.19.900,TranslationElicitation_spa,3.2.4,Win32,60,5ee3e04903b8560b39e58d9e,,1,0,80,31,1,79
,,,,,,,,,,,,,,,,,,,,,,,,,,,,,,,,,,,g,1.630000114,G,FALSE,,,,,,,146,guitarra,Catalan,Sounds/cat_guitarra.mp3,2020-06-15_17h55.19.900,TranslationElicitation_spa,3.2.4,Win32,60,5ee3e04903b8560b39e58d9e,,1,0,80,41,1,79
,,,,,,,,,,,,,,,,,,,,,,,,,,,,,,,,,,,u,1.848999977,GU,FALSE,,,,,,,146,guitarra,Catalan,Sounds/cat_guitarra.mp3,2020-06-15_17h55.19.900,TranslationElicitation_spa,3.2.4,Win32,60,5ee3e04903b8560b39e58d9e,,1,0,80,41,1,79
,,,,,,,,,,,,,,,,,,,,,,,,,,,,,,,,,,,i,2.005000114,GUI,FALSE,,,,,,,146,guitarra,Catalan,Sounds/cat_guitarra.mp3,2020-06-15_17h55.19.900,TranslationElicitation_spa,3.2.4,Win32,60,5ee3e04903b8560b39e58d9e,,1,0,80,41,1,79
,,,,,,,,,,,,,,,,,,,,,,,,,,,,,,,,,,,t,2.25,GUIT,FALSE,,,,,,,146,guitarra,Catalan,Sounds/cat_guitarra.mp3,2020-06-15_17h55.19.900,TranslationElicitation_spa,3.2.4,Win32,60,5ee3e04903b8560b39e58d9e,,1,0,80,41,1,79
,,,,,,,,,,,,,,,,,,,,,,,,,,,,,,,,,,,a,2.400000095,GUITA,FALSE,,,,,,,146,guitarra,Catalan,Sounds/cat_guitarra.mp3,2020-06-15_17h55.19.900,TranslationElicitation_spa,3.2.4,Win32,60,5ee3e04903b8560b39e58d9e,,1,0,80,41,1,79
,,,,,,,,,,,,,,,,,,,,,,,,,,,,,,,,,,,r,2.493000031,GUITAR,FALSE,,,,,,,146,guitarra,Catalan,Sounds/cat_guitarra.mp3,2020-06-15_17h55.19.900,TranslationElicitation_spa,3.2.4,Win32,60,5ee3e04903b8560b39e58d9e,,1,0,80,41,1,79
,,,,,,,,,,,,,,,,,,,,,,,,,,,,,,,,,,,r,2.628999949,GUITARR,FALSE,,,,,,,146,guitarra,Catalan,Sounds/cat_guitarra.mp3,2020-06-15_17h55.19.900,TranslationElicitation_spa,3.2.4,Win32,60,5ee3e04903b8560b39e58d9e,,1,0,80,41,1,79
,,,,,,,,,,,,,,,,,,,,,,,,,,,,,,,,,,,a,2.763999939,GUITARRA,FALSE,,,,,,,146,guitarra,Catalan,Sounds/cat_guitarra.mp3,2020-06-15_17h55.19.900,TranslationElicitation_spa,3.2.4,Win32,60,5ee3e04903b8560b39e58d9e,,1,0,80,41,1,79
,,,,,,,,,,,,,,,,,,,,,,,,,,,,,,,,,,,return,3.249000072,,FALSE,,,,,,,146,guitarra,Catalan,Sounds/cat_guitarra.mp3,2020-06-15_17h55.19.900,TranslationElicitation_spa,3.2.4,Win32,60,5ee3e04903b8560b39e58d9e,3.249000072,1,0,80,41,1,79
,,,,,,,,,,,,,,,,,,,,,,,,,,,,,,,,,,,,,,,,,,,,,146,guitarra,Catalan,Sounds/cat_guitarra.mp3,2020-06-15_17h55.19.900,TranslationElicitation_spa,3.2.4,Win32,60,5ee3e04903b8560b39e58d9e,,1,0,80,41,1,79
,,,,,,,,,,,,,,,,,,,,,,,,,,,,,,,,,,,c,1.424000025,C,FALSE,,,,,,,120,cama,Catalan,Sounds/cat_cama.mp3,2020-06-15_17h55.19.900,TranslationElicitation_spa,3.2.4,Win32,60,5ee3e04903b8560b39e58d9e,,1,0,80,15,1,79
,,,,,,,,,,,,,,,,,,,,,,,,,,,,,,,,,,,a,1.523999929,CA,FALSE,,,,,,,120,cama,Catalan,Sounds/cat_cama.mp3,2020-06-15_17h55.19.900,TranslationElicitation_spa,3.2.4,Win32,60,5ee3e04903b8560b39e58d9e,,1,0,80,15,1,79
,,,,,,,,,,,,,,,,,,,,,,,,,,,,,,,,,,,m,1.607999802,CAM,FALSE,,,,,,,120,cama,Catalan,Sounds/cat_cama.mp3,2020-06-15_17h55.19.900,TranslationElicitation_spa,3.2.4,Win32,60,5ee3e04903b8560b39e58d9e,,1,0,80,15,1,79
,,,,,,,,,,,,,,,,,,,,,,,,,,,,,,,,,,,a,1.755999804,CAMA,FALSE,,,,,,,120,cama,Catalan,Sounds/cat_cama.mp3,2020-06-15_17h55.19.900,TranslationElicitation_spa,3.2.4,Win32,60,5ee3e04903b8560b39e58d9e,,1,0,80,15,1,79
,,,,,,,,,,,,,,,,,,,,,,,,,,,,,,,,,,,return,2.241999865,,FALSE,,,,,,,120,cama,Catalan,Sounds/cat_cama.mp3,2020-06-15_17h55.19.900,TranslationElicitation_spa,3.2.4,Win32,60,5ee3e04903b8560b39e58d9e,2.238999844,1,0,80,15,1,79
,,,,,,,,,,,,,,,,,,,,,,,,,,,,,,,,,,,,,,,,,,,,,120,cama,Catalan,Sounds/cat_cama.mp3,2020-06-15_17h55.19.900,TranslationElicitation_spa,3.2.4,Win32,60,5ee3e04903b8560b39e58d9e,,1,0,80,15,1,79
,,,,,,,,,,,,,,,,,,,,,,,,,,,,,,,,,,,c,1.845000029,C,FALSE,,,,,,,189,zebra,Catalan,Sounds/cat_zebra.mp3,2020-06-15_17h55.19.900,TranslationElicitation_spa,3.2.4,Win32,60,5ee3e04903b8560b39e58d9e,,1,0,80,79,1,79
,,,,,,,,,,,,,,,,,,,,,,,,,,,,,,,,,,,e,1.945999861,CE,FALSE,,,,,,,189,zebra,Catalan,Sounds/cat_zebra.mp3,2020-06-15_17h55.19.900,TranslationElicitation_spa,3.2.4,Win32,60,5ee3e04903b8560b39e58d9e,,1,0,80,79,1,79
,,,,,,,,,,,,,,,,,,,,,,,,,,,,,,,,,,,b,2.180000067,CEB,FALSE,,,,,,,189,zebra,Catalan,Sounds/cat_zebra.mp3,2020-06-15_17h55.19.900,TranslationElicitation_spa,3.2.4,Win32,60,5ee3e04903b8560b39e58d9e,,1,0,80,79,1,79
,,,,,,,,,,,,,,,,,,,,,,,,,,,,,,,,,,,r,2.411999941,CEBR,FALSE,,,,,,,189,zebra,Catalan,Sounds/cat_zebra.mp3,2020-06-15_17h55.19.900,TranslationElicitation_spa,3.2.4,Win32,60,5ee3e04903b8560b39e58d9e,,1,0,80,79,1,79
,,,,,,,,,,,,,,,,,,,,,,,,,,,,,,,,,,,a,2.595000029,CEBRA,FALSE,,,,,,,189,zebra,Catalan,Sounds/cat_zebra.mp3,2020-06-15_17h55.19.900,TranslationElicitation_spa,3.2.4,Win32,60,5ee3e04903b8560b39e58d9e,,1,0,80,79,1,79
,,,,,,,,,,,,,,,,,,,,,,,,,,,,,,,,,,,return,3.194000006,,FALSE,,,,,,,189,zebra,Catalan,Sounds/cat_zebra.mp3,2020-06-15_17h55.19.900,TranslationElicitation_spa,3.2.4,Win32,60,5ee3e04903b8560b39e58d9e,3.194000006,1,0,80,79,1,79
,,,,,,,,,,,,,,,,,,,,,,,,,,,,,,,,,,,,,,,,,,,,,189,zebra,Catalan,Sounds/cat_zebra.mp3,2020-06-15_17h55.19.900,TranslationElicitation_spa,3.2.4,Win32,60,5ee3e04903b8560b39e58d9e,,1,0,80,79,1,79
,,,,,,,,,,,,,,,,,,,,,,,,,,,,,,,,,,,m,1.592000008,M,FALSE,,,,,,,156,moto,Catalan,Sounds/cat_moto.mp3,2020-06-15_17h55.19.900,TranslationElicitation_spa,3.2.4,Win32,60,5ee3e04903b8560b39e58d9e,,1,0,80,50,1,79
,,,,,,,,,,,,,,,,,,,,,,,,,,,,,,,,,,,o,1.717999935,MO,FALSE,,,,,,,156,moto,Catalan,Sounds/cat_moto.mp3,2020-06-15_17h55.19.900,TranslationElicitation_spa,3.2.4,Win32,60,5ee3e04903b8560b39e58d9e,,1,0,80,50,1,79
,,,,,,,,,,,,,,,,,,,,,,,,,,,,,,,,,,,t,1.934999943,MOT,FALSE,,,,,,,156,moto,Catalan,Sounds/cat_moto.mp3,2020-06-15_17h55.19.900,TranslationElicitation_spa,3.2.4,Win32,60,5ee3e04903b8560b39e58d9e,,1,0,80,50,1,79
,,,,,,,,,,,,,,,,,,,,,,,,,,,,,,,,,,,o,1.977999926,MOTO,FALSE,,,,,,,156,moto,Catalan,Sounds/cat_moto.mp3,2020-06-15_17h55.19.900,TranslationElicitation_spa,3.2.4,Win32,60,5ee3e04903b8560b39e58d9e,,1,0,80,50,1,79
,,,,,,,,,,,,,,,,,,,,,,,,,,,,,,,,,,,return,2.542999983,,FALSE,,,,,,,156,moto,Catalan,Sounds/cat_moto.mp3,2020-06-15_17h55.19.900,TranslationElicitation_spa,3.2.4,Win32,60,5ee3e04903b8560b39e58d9e,2.542999983,1,0,80,50,1,79
,,,,,,,,,,,,,,,,,,,,,,,,,,,,,,,,,,,,,,,,,,,,,156,moto,Catalan,Sounds/cat_moto.mp3,2020-06-15_17h55.19.900,TranslationElicitation_spa,3.2.4,Win32,60,5ee3e04903b8560b39e58d9e,,1,0,80,50,1,79
,,,,,,,,,,,,,,,,,,,,,,,,,,,,,,,,,,,e,1.924999952,E,FALSE,,,,,,,132,estrella,Catalan,Sounds/cat_estrella.mp3,2020-06-15_17h55.19.900,TranslationElicitation_spa,3.2.4,Win32,60,5ee3e04903b8560b39e58d9e,,1,0,80,27,1,79
,,,,,,,,,,,,,,,,,,,,,,,,,,,,,,,,,,,s,2.111000061,ES,FALSE,,,,,,,132,estrella,Catalan,Sounds/cat_estrella.mp3,2020-06-15_17h55.19.900,TranslationElicitation_spa,3.2.4,Win32,60,5ee3e04903b8560b39e58d9e,,1,0,80,27,1,79
,,,,,,,,,,,,,,,,,,,,,,,,,,,,,,,,,,,t,2.260999918,EST,FALSE,,,,,,,132,estrella,Catalan,Sounds/cat_estrella.mp3,2020-06-15_17h55.19.900,TranslationElicitation_spa,3.2.4,Win32,60,5ee3e04903b8560b39e58d9e,,1,0,80,27,1,79
,,,,,,,,,,,,,,,,,,,,,,,,,,,,,,,,,,,r,2.444000006,ESTR,FALSE,,,,,,,132,estrella,Catalan,Sounds/cat_estrella.mp3,2020-06-15_17h55.19.900,TranslationElicitation_spa,3.2.4,Win32,60,5ee3e04903b8560b39e58d9e,,1,0,80,27,1,79
,,,,,,,,,,,,,,,,,,,,,,,,,,,,,,,,,,,e,2.502000093,ESTRE,FALSE,,,,,,,132,estrella,Catalan,Sounds/cat_estrella.mp3,2020-06-15_17h55.19.900,TranslationElicitation_spa,3.2.4,Win32,60,5ee3e04903b8560b39e58d9e,,1,0,80,27,1,79
,,,,,,,,,,,,,,,,,,,,,,,,,,,,,,,,,,,l,3.018000126,ESTREL,FALSE,,,,,,,132,estrella,Catalan,Sounds/cat_estrella.mp3,2020-06-15_17h55.19.900,TranslationElicitation_spa,3.2.4,Win32,60,5ee3e04903b8560b39e58d9e,,1,0,80,27,1,79
,,,,,,,,,,,,,,,,,,,,,,,,,,,,,,,,,,,l,3.150000095,ESTRELL,FALSE,,,,,,,132,estrella,Catalan,Sounds/cat_estrella.mp3,2020-06-15_17h55.19.900,TranslationElicitation_spa,3.2.4,Win32,60,5ee3e04903b8560b39e58d9e,,1,0,80,27,1,79
,,,,,,,,,,,,,,,,,,,,,,,,,,,,,,,,,,,a,3.186000109,ESTRELLA,FALSE,,,,,,,132,estrella,Catalan,Sounds/cat_estrella.mp3,2020-06-15_17h55.19.900,TranslationElicitation_spa,3.2.4,Win32,60,5ee3e04903b8560b39e58d9e,,1,0,80,27,1,79
,,,,,,,,,,,,,,,,,,,,,,,,,,,,,,,,,,,return,3.566999912,,FALSE,,,,,,,132,estrella,Catalan,Sounds/cat_estrella.mp3,2020-06-15_17h55.19.900,TranslationElicitation_spa,3.2.4,Win32,60,5ee3e04903b8560b39e58d9e,3.566999912,1,0,80,27,1,79
,,,,,,,,,,,,,,,,,,,,,,,,,,,,,,,,,,,,,,,,,,,,,132,estrella,Catalan,Sounds/cat_estrella.mp3,2020-06-15_17h55.19.900,TranslationElicitation_spa,3.2.4,Win32,60,5ee3e04903b8560b39e58d9e,,1,0,80,27,1,79
,,,,,,,,,,,,,,,,,,,,,,,,,,,,,,,,,,,g,2.391000032,G,FALSE,,,,,,,110,berenar,Catalan,Sounds/cat_berenar.mp3,2020-06-15_17h55.19.900,TranslationElicitation_spa,3.2.4,Win32,60,5ee3e04903b8560b39e58d9e,,1,0,80,5,1,79
,,,,,,,,,,,,,,,,,,,,,,,,,,,,,,,,,,,r,6.226999998,GR,FALSE,,,,,,,110,berenar,Catalan,Sounds/cat_berenar.mp3,2020-06-15_17h55.19.900,TranslationElicitation_spa,3.2.4,Win32,60,5ee3e04903b8560b39e58d9e,,1,0,80,5,1,79
,,,,,,,,,,,,,,,,,,,,,,,,,,,,,,,,,,,a,7.302999973,GRA,FALSE,,,,,,,110,berenar,Catalan,Sounds/cat_berenar.mp3,2020-06-15_17h55.19.900,TranslationElicitation_spa,3.2.4,Win32,60,5ee3e04903b8560b39e58d9e,,1,0,80,5,1,79
,,,,,,,,,,,,,,,,,,,,,,,,,,,,,,,,,,,n,7.506999969,GRAN,FALSE,,,,,,,110,berenar,Catalan,Sounds/cat_berenar.mp3,2020-06-15_17h55.19.900,TranslationElicitation_spa,3.2.4,Win32,60,5ee3e04903b8560b39e58d9e,,1,0,80,5,1,79
,,,,,,,,,,,,,,,,,,,,,,,,,,,,,,,,,,,a,7.569999933,GRANA,FALSE,,,,,,,110,berenar,Catalan,Sounds/cat_berenar.mp3,2020-06-15_17h55.19.900,TranslationElicitation_spa,3.2.4,Win32,60,5ee3e04903b8560b39e58d9e,,1,0,80,5,1,79
,,,,,,,,,,,,,,,,,,,,,,,,,,,,,,,,,,,f,7.794000149,GRANAF,FALSE,,,,,,,110,berenar,Catalan,Sounds/cat_berenar.mp3,2020-06-15_17h55.19.900,TranslationElicitation_spa,3.2.4,Win32,60,5ee3e04903b8560b39e58d9e,,1,0,80,5,1,79
,,,,,,,,,,,,,,,,,,,,,,,,,,,,,,,,,,,a,7.970999956,GRANAFA,FALSE,,,,,,,110,berenar,Catalan,Sounds/cat_berenar.mp3,2020-06-15_17h55.19.900,TranslationElicitation_spa,3.2.4,Win32,60,5ee3e04903b8560b39e58d9e,,1,0,80,5,1,79
,,,,,,,,,,,,,,,,,,,,,,,,,,,,,,,,,,,backspace,8.641000032,GRANA,TRUE,,,,,,,110,berenar,Catalan,Sounds/cat_berenar.mp3,2020-06-15_17h55.19.900,TranslationElicitation_spa,3.2.4,Win32,60,5ee3e04903b8560b39e58d9e,,1,0,80,5,1,79
,,,,,,,,,,,,,,,,,,,,,,,,,,,,,,,,,,,backspace,8.851999998,GRA,TRUE,,,,,,,110,berenar,Catalan,Sounds/cat_berenar.mp3,2020-06-15_17h55.19.900,TranslationElicitation_spa,3.2.4,Win32,60,5ee3e04903b8560b39e58d9e,,1,0,80,5,1,79
,,,,,,,,,,,,,,,,,,,,,,,,,,,,,,,,,,,d,8.917999983,GRAD,TRUE,,,,,,,110,berenar,Catalan,Sounds/cat_berenar.mp3,2020-06-15_17h55.19.900,TranslationElicitation_spa,3.2.4,Win32,60,5ee3e04903b8560b39e58d9e,,1,0,80,5,1,79
,,,,,,,,,,,,,,,,,,,,,,,,,,,,,,,,,,,a,9.018000126,GRADA,TRUE,,,,,,,110,berenar,Catalan,Sounds/cat_berenar.mp3,2020-06-15_17h55.19.900,TranslationElicitation_spa,3.2.4,Win32,60,5ee3e04903b8560b39e58d9e,,1,0,80,5,1,79
,,,,,,,,,,,,,,,,,,,,,,,,,,,,,,,,,,,backspace,10.66900015,GRA,TRUE,,,,,,,110,berenar,Catalan,Sounds/cat_berenar.mp3,2020-06-15_17h55.19.900,TranslationElicitation_spa,3.2.4,Win32,60,5ee3e04903b8560b39e58d9e,,1,0,80,5,1,79
,,,,,,,,,,,,,,,,,,,,,,,,,,,,,,,,,,,n,11.875,GRAN,TRUE,,,,,,,110,berenar,Catalan,Sounds/cat_berenar.mp3,2020-06-15_17h55.19.900,TranslationElicitation_spa,3.2.4,Win32,60,5ee3e04903b8560b39e58d9e,,1,0,80,5,1,79
,,,,,,,,,,,,,,,,,,,,,,,,,,,,,,,,,,,a,12.00800014,GRANA,TRUE,,,,,,,110,berenar,Catalan,Sounds/cat_berenar.mp3,2020-06-15_17h55.19.900,TranslationElicitation_spa,3.2.4,Win32,60,5ee3e04903b8560b39e58d9e,,1,0,80,5,1,79
,,,,,,,,,,,,,,,,,,,,,,,,,,,,,,,,,,,d,12.13199997,GRANAD,TRUE,,,,,,,110,berenar,Catalan,Sounds/cat_berenar.mp3,2020-06-15_17h55.19.900,TranslationElicitation_spa,3.2.4,Win32,60,5ee3e04903b8560b39e58d9e,,1,0,80,5,1,79
,,,,,,,,,,,,,,,,,,,,,,,,,,,,,,,,,,,a,12.28999996,GRANADA,TRUE,,,,,,,110,berenar,Catalan,Sounds/cat_berenar.mp3,2020-06-15_17h55.19.900,TranslationElicitation_spa,3.2.4,Win32,60,5ee3e04903b8560b39e58d9e,,1,0,80,5,1,79
,,,,,,,,,,,,,,,,,,,,,,,,,,,,,,,,,,,return,12.55800009,,TRUE,,,,,,,110,berenar,Catalan,Sounds/cat_berenar.mp3,2020-06-15_17h55.19.900,TranslationElicitation_spa,3.2.4,Win32,60,5ee3e04903b8560b39e58d9e,12.55800009,1,0,80,5,1,79
,,,,,,,,,,,,,,,,,,,,,,,,,,,,,,,,,,,,,,,,,,,,,110,berenar,Catalan,Sounds/cat_berenar.mp3,2020-06-15_17h55.19.900,TranslationElicitation_spa,3.2.4,Win32,60,5ee3e04903b8560b39e58d9e,,1,0,80,5,1,79
,,,,,,,,,,,,,,,,,,,,,,,,,,,,,,,,,,,f,4.24000001,F,FALSE,,,,,,,137,fulla,Catalan,Sounds/cat_fulla.mp3,2020-06-15_17h55.19.900,TranslationElicitation_spa,3.2.4,Win32,60,5ee3e04903b8560b39e58d9e,,1,0,80,32,1,79
,,,,,,,,,,,,,,,,,,,,,,,,,,,,,,,,,,,r,4.367000103,FR,FALSE,,,,,,,137,fulla,Catalan,Sounds/cat_fulla.mp3,2020-06-15_17h55.19.900,TranslationElicitation_spa,3.2.4,Win32,60,5ee3e04903b8560b39e58d9e,,1,0,80,32,1,79
,,,,,,,,,,,,,,,,,,,,,,,,,,,,,,,,,,,u,5.285000086,FRU,FALSE,,,,,,,137,fulla,Catalan,Sounds/cat_fulla.mp3,2020-06-15_17h55.19.900,TranslationElicitation_spa,3.2.4,Win32,60,5ee3e04903b8560b39e58d9e,,1,0,80,32,1,79
,,,,,,,,,,,,,,,,,,,,,,,,,,,,,,,,,,,t,5.531000137,FRUT,FALSE,,,,,,,137,fulla,Catalan,Sounds/cat_fulla.mp3,2020-06-15_17h55.19.900,TranslationElicitation_spa,3.2.4,Win32,60,5ee3e04903b8560b39e58d9e,,1,0,80,32,1,79
,,,,,,,,,,,,,,,,,,,,,,,,,,,,,,,,,,,a,5.614000082,FRUTA,FALSE,,,,,,,137,fulla,Catalan,Sounds/cat_fulla.mp3,2020-06-15_17h55.19.900,TranslationElicitation_spa,3.2.4,Win32,60,5ee3e04903b8560b39e58d9e,,1,0,80,32,1,79
,,,,,,,,,,,,,,,,,,,,,,,,,,,,,,,,,,,return,6.292000055,,FALSE,,,,,,,137,fulla,Catalan,Sounds/cat_fulla.mp3,2020-06-15_17h55.19.900,TranslationElicitation_spa,3.2.4,Win32,60,5ee3e04903b8560b39e58d9e,6.292000055,1,0,80,32,1,79
,,,,,,,,,,,,,,,,,,,,,,,,,,,,,,,,,,,,,,,,,,,,,137,fulla,Catalan,Sounds/cat_fulla.mp3,2020-06-15_17h55.19.900,TranslationElicitation_spa,3.2.4,Win32,60,5ee3e04903b8560b39e58d9e,,1,0,80,32,1,79
,,,,,,,,,,,,,,,,,,,,,,,,,,,,,,,,,,,v,3.73300004,V,FALSE,,,,,,,145,got,Catalan,Sounds/cat_got.mp3,2020-06-15_17h55.19.900,TranslationElicitation_spa,3.2.4,Win32,60,5ee3e04903b8560b39e58d9e,,1,0,80,40,1,79
,,,,,,,,,,,,,,,,,,,,,,,,,,,,,,,,,,,a,3.921999931,VA,FALSE,,,,,,,145,got,Catalan,Sounds/cat_got.mp3,2020-06-15_17h55.19.900,TranslationElicitation_spa,3.2.4,Win32,60,5ee3e04903b8560b39e58d9e,,1,0,80,40,1,79
,,,,,,,,,,,,,,,,,,,,,,,,,,,,,,,,,,,l,4.110000134,VAL,FALSE,,,,,,,145,got,Catalan,Sounds/cat_got.mp3,2020-06-15_17h55.19.900,TranslationElicitation_spa,3.2.4,Win32,60,5ee3e04903b8560b39e58d9e,,1,0,80,40,1,79
,,,,,,,,,,,,,,,,,,,,,,,,,,,,,,,,,,,backspace,4.522000074,V,TRUE,,,,,,,145,got,Catalan,Sounds/cat_got.mp3,2020-06-15_17h55.19.900,TranslationElicitation_spa,3.2.4,Win32,60,5ee3e04903b8560b39e58d9e,,1,0,80,40,1,79
,,,,,,,,,,,,,,,,,,,,,,,,,,,,,,,,,,,backspace,4.720000029,,TRUE,,,,,,,145,got,Catalan,Sounds/cat_got.mp3,2020-06-15_17h55.19.900,TranslationElicitation_spa,3.2.4,Win32,60,5ee3e04903b8560b39e58d9e,,1,0,80,40,1,79
,,,,,,,,,,,,,,,,,,,,,,,,,,,,,,,,,,,backspace,4.881999969,,TRUE,,,,,,,145,got,Catalan,Sounds/cat_got.mp3,2020-06-15_17h55.19.900,TranslationElicitation_spa,3.2.4,Win32,60,5ee3e04903b8560b39e58d9e,,1,0,80,40,1,79
,,,,,,,,,,,,,,,,,,,,,,,,,,,,,,,,,,,c,5.248000145,C,TRUE,,,,,,,145,got,Catalan,Sounds/cat_got.mp3,2020-06-15_17h55.19.900,TranslationElicitation_spa,3.2.4,Win32,60,5ee3e04903b8560b39e58d9e,,1,0,80,40,1,79
,,,,,,,,,,,,,,,,,,,,,,,,,,,,,,,,,,,a,5.332000017,CA,TRUE,,,,,,,145,got,Catalan,Sounds/cat_got.mp3,2020-06-15_17h55.19.900,TranslationElicitation_spa,3.2.4,Win32,60,5ee3e04903b8560b39e58d9e,,1,0,80,40,1,79
,,,,,,,,,,,,,,,,,,,,,,,,,,,,,,,,,,,l,5.482000113,CAL,TRUE,,,,,,,145,got,Catalan,Sounds/cat_got.mp3,2020-06-15_17h55.19.900,TranslationElicitation_spa,3.2.4,Win32,60,5ee3e04903b8560b39e58d9e,,1,0,80,40,1,79
,,,,,,,,,,,,,,,,,,,,,,,,,,,,,,,,,,,o,5.702000141,CALO,TRUE,,,,,,,145,got,Catalan,Sounds/cat_got.mp3,2020-06-15_17h55.19.900,TranslationElicitation_spa,3.2.4,Win32,60,5ee3e04903b8560b39e58d9e,,1,0,80,40,1,79
,,,,,,,,,,,,,,,,,,,,,,,,,,,,,,,,,,,r,6.150000095,CALOR,TRUE,,,,,,,145,got,Catalan,Sounds/cat_got.mp3,2020-06-15_17h55.19.900,TranslationElicitation_spa,3.2.4,Win32,60,5ee3e04903b8560b39e58d9e,,1,0,80,40,1,79
,,,,,,,,,,,,,,,,,,,,,,,,,,,,,,,,,,,return,6.664000034,,TRUE,,,,,,,145,got,Catalan,Sounds/cat_got.mp3,2020-06-15_17h55.19.900,TranslationElicitation_spa,3.2.4,Win32,60,5ee3e04903b8560b39e58d9e,6.664000034,1,0,80,40,1,79
,,,,,,,,,,,,,,,,,,,,,,,,,,,,,,,,,,,,,,,,,,,,,145,got,Catalan,Sounds/cat_got.mp3,2020-06-15_17h55.19.900,TranslationElicitation_spa,3.2.4,Win32,60,5ee3e04903b8560b39e58d9e,,1,0,80,40,1,79
,,,,,,,,,,,,,,,,,,,,,,,,,,,,,,,,,,,c,1.61500001,C,FALSE,,,,,,,126,corona,Catalan,Sounds/cat_corona.mp3,2020-06-15_17h55.19.900,TranslationElicitation_spa,3.2.4,Win32,60,5ee3e04903b8560b39e58d9e,,1,0,80,21,1,79
,,,,,,,,,,,,,,,,,,,,,,,,,,,,,,,,,,,o,1.747999907,CO,FALSE,,,,,,,126,corona,Catalan,Sounds/cat_corona.mp3,2020-06-15_17h55.19.900,TranslationElicitation_spa,3.2.4,Win32,60,5ee3e04903b8560b39e58d9e,,1,0,80,21,1,79
,,,,,,,,,,,,,,,,,,,,,,,,,,,,,,,,,,,r,1.93599987,COR,FALSE,,,,,,,126,corona,Catalan,Sounds/cat_corona.mp3,2020-06-15_17h55.19.900,TranslationElicitation_spa,3.2.4,Win32,60,5ee3e04903b8560b39e58d9e,,1,0,80,21,1,79
,,,,,,,,,,,,,,,,,,,,,,,,,,,,,,,,,,,o,2.046000004,CORO,FALSE,,,,,,,126,corona,Catalan,Sounds/cat_corona.mp3,2020-06-15_17h55.19.900,TranslationElicitation_spa,3.2.4,Win32,60,5ee3e04903b8560b39e58d9e,,1,0,80,21,1,79
,,,,,,,,,,,,,,,,,,,,,,,,,,,,,,,,,,,n,2.20299983,CORON,FALSE,,,,,,,126,corona,Catalan,Sounds/cat_corona.mp3,2020-06-15_17h55.19.900,TranslationElicitation_spa,3.2.4,Win32,60,5ee3e04903b8560b39e58d9e,,1,0,80,21,1,79
,,,,,,,,,,,,,,,,,,,,,,,,,,,,,,,,,,,a,2.264999866,CORONA,FALSE,,,,,,,126,corona,Catalan,Sounds/cat_corona.mp3,2020-06-15_17h55.19.900,TranslationElicitation_spa,3.2.4,Win32,60,5ee3e04903b8560b39e58d9e,,1,0,80,21,1,79
,,,,,,,,,,,,,,,,,,,,,,,,,,,,,,,,,,,return,2.445999861,,FALSE,,,,,,,126,corona,Catalan,Sounds/cat_corona.mp3,2020-06-15_17h55.19.900,TranslationElicitation_spa,3.2.4,Win32,60,5ee3e04903b8560b39e58d9e,2.445999861,1,0,80,21,1,79
,,,,,,,,,,,,,,,,,,,,,,,,,,,,,,,,,,,,,,,,,,,,,126,corona,Catalan,Sounds/cat_corona.mp3,2020-06-15_17h55.19.900,TranslationElicitation_spa,3.2.4,Win32,60,5ee3e04903b8560b39e58d9e,,1,0,80,21,1,79
,,,,,,,,,,,,,,,,,,,,,,,,,,,,,,,,,,,l,3.592000008,L,FALSE,,,,,,,149,llibre,Catalan,Sounds/cat_llibre.mp3,2020-06-15_17h55.19.900,TranslationElicitation_spa,3.2.4,Win32,60,5ee3e04903b8560b39e58d9e,,1,0,80,43,1,79
,,,,,,,,,,,,,,,,,,,,,,,,,,,,,,,,,,,i,3.963999987,LI,FALSE,,,,,,,149,llibre,Catalan,Sounds/cat_llibre.mp3,2020-06-15_17h55.19.900,TranslationElicitation_spa,3.2.4,Win32,60,5ee3e04903b8560b39e58d9e,,1,0,80,43,1,79
,,,,,,,,,,,,,,,,,,,,,,,,,,,,,,,,,,,b,5.796999931,LIB,FALSE,,,,,,,149,llibre,Catalan,Sounds/cat_llibre.mp3,2020-06-15_17h55.19.900,TranslationElicitation_spa,3.2.4,Win32,60,5ee3e04903b8560b39e58d9e,,1,0,80,43,1,79
,,,,,,,,,,,,,,,,,,,,,,,,,,,,,,,,,,,r,6.004999876,LIBR,FALSE,,,,,,,149,llibre,Catalan,Sounds/cat_llibre.mp3,2020-06-15_17h55.19.900,TranslationElicitation_spa,3.2.4,Win32,60,5ee3e04903b8560b39e58d9e,,1,0,80,43,1,79
,,,,,,,,,,,,,,,,,,,,,,,,,,,,,,,,,,,a,9.457000017,LIBRA,FALSE,,,,,,,149,llibre,Catalan,Sounds/cat_llibre.mp3,2020-06-15_17h55.19.900,TranslationElicitation_spa,3.2.4,Win32,60,5ee3e04903b8560b39e58d9e,,1,0,80,43,1,79
,,,,,,,,,,,,,,,,,,,,,,,,,,,,,,,,,,,return,9.734999895,,FALSE,,,,,,,149,llibre,Catalan,Sounds/cat_llibre.mp3,2020-06-15_17h55.19.900,TranslationElicitation_spa,3.2.4,Win32,60,5ee3e04903b8560b39e58d9e,9.733999968,1,0,80,43,1,79
,,,,,,,,,,,,,,,,,,,,,,,,,,,,,,,,,,,,,,,,,,,,,149,llibre,Catalan,Sounds/cat_llibre.mp3,2020-06-15_17h55.19.900,TranslationElicitation_spa,3.2.4,Win32,60,5ee3e04903b8560b39e58d9e,,1,0,80,43,1,79
,,,,,,,,,,,,,,,,,,,,,,,,,,,,,,,,,,,p,2.321000099,P,FALSE,,,,,,,162,pa,Catalan,Sounds/cat_pa.mp3,2020-06-15_17h55.19.900,TranslationElicitation_spa,3.2.4,Win32,60,5ee3e04903b8560b39e58d9e,,1,0,80,55,1,79
,,,,,,,,,,,,,,,,,,,,,,,,,,,,,,,,,,,a,2.704000235,PA,FALSE,,,,,,,162,pa,Catalan,Sounds/cat_pa.mp3,2020-06-15_17h55.19.900,TranslationElicitation_spa,3.2.4,Win32,60,5ee3e04903b8560b39e58d9e,,1,0,80,55,1,79
,,,,,,,,,,,,,,,,,,,,,,,,,,,,,,,,,,,n,4.513000011,PAN,FALSE,,,,,,,162,pa,Catalan,Sounds/cat_pa.mp3,2020-06-15_17h55.19.900,TranslationElicitation_spa,3.2.4,Win32,60,5ee3e04903b8560b39e58d9e,,1,0,80,55,1,79
,,,,,,,,,,,,,,,,,,,,,,,,,,,,,,,,,,,return,4.728000164,,FALSE,,,,,,,162,pa,Catalan,Sounds/cat_pa.mp3,2020-06-15_17h55.19.900,TranslationElicitation_spa,3.2.4,Win32,60,5ee3e04903b8560b39e58d9e,4.728000164,1,0,80,55,1,79
,,,,,,,,,,,,,,,,,,,,,,,,,,,,,,,,,,,,,,,,,,,,,162,pa,Catalan,Sounds/cat_pa.mp3,2020-06-15_17h55.19.900,TranslationElicitation_spa,3.2.4,Win32,60,5ee3e04903b8560b39e58d9e,,1,0,80,55,1,79
