consentKey.keys,consentKey.rt,languageL1Key.keys,languageL1Key.rt,languageL2,languageL2OralKey.keys,languageL2OralKey.rt,languageL2WrittenKey.keys,languageL2WrittenKey.rt,languageL3OralKey.keys,languageL3OralKey.rt,languageL3WrittenKey.keys,languageL3WrittenKey.rt,languageCatalanOralKey.keys,languageCatalanOralKey.rt,languageCatalanWrittenKey.keys,languageCatalanWrittenKey.rt,languageCatalanTimeKey.keys,languageCatalanTimeKey.rt,age,demoSexKey.keys,demoSexKey.rt,demoEducationKey.keys,demoEducationKey.rt,city,demoVisionKey.keys,demoVisionKey.rt,demoLanguageKey.keys,demoLanguageKey.rt,setupLocationKey.keys,setupLocationKey.rt,setupNoiseKey.keys,setupNoiseKey.rt,instructionsKeys.keys,instructionsKeys.rt,keyPressed,keyPressTime,inputText,error,trials_practice.thisRepN,trials_practice.thisTrialN,trials_practice.thisN,trials_practice.thisIndex,trials_practice.ran,trials_practice.order,trial_id,word,test_language,soundfile,date,expName,psychopyVersion,OS,frameRate,participant,trialOffset,trials.thisRepN,trials.thisTrialN,trials.thisN,trials.thisIndex,trials.ran,trials.order
space,11.58699989,e,5.71600008,,3,17.0849998,3,4.569999933,,,,,1,6.572999954,1,2.164000034,1,17.94499993,22,h,4.347999811,3,11.23900008,MURCIA,n,3.848999739,n,2.951999903,1,5.332000017,1,11.69599986,space,33.69399977,t,1.880000114,T,FALSE,1,0,5,4,1,4,179,tigre,Catalan,Sounds/cat_tigre.mp3,2020-06-17_10h52.06.664,TranslationElicitation_spa,3.2.4,Win32,60,5ee3dfc37e2f6d0b805831bc,,,,,,,
,,,,,,,,,,,,,,,,,,,,,,,,,,,,,,,,,,,i,2.481000185,TI,FALSE,1,0,5,4,1,4,179,tigre,Catalan,Sounds/cat_tigre.mp3,2020-06-17_10h52.06.664,TranslationElicitation_spa,3.2.4,Win32,60,5ee3dfc37e2f6d0b805831bc,,,,,,,
,,,,,,,,,,,,,,,,,,,,,,,,,,,,,,,,,,,g,2.630000114,TIG,FALSE,1,0,5,4,1,4,179,tigre,Catalan,Sounds/cat_tigre.mp3,2020-06-17_10h52.06.664,TranslationElicitation_spa,3.2.4,Win32,60,5ee3dfc37e2f6d0b805831bc,,,,,,,
,,,,,,,,,,,,,,,,,,,,,,,,,,,,,,,,,,,r,2.813000202,TIGR,FALSE,1,0,5,4,1,4,179,tigre,Catalan,Sounds/cat_tigre.mp3,2020-06-17_10h52.06.664,TranslationElicitation_spa,3.2.4,Win32,60,5ee3dfc37e2f6d0b805831bc,,,,,,,
,,,,,,,,,,,,,,,,,,,,,,,,,,,,,,,,,,,e,3.014000177,TIGRE,FALSE,1,0,5,4,1,4,179,tigre,Catalan,Sounds/cat_tigre.mp3,2020-06-17_10h52.06.664,TranslationElicitation_spa,3.2.4,Win32,60,5ee3dfc37e2f6d0b805831bc,,,,,,,
,,,,,,,,,,,,,,,,,,,,,,,,,,,,,,,,,,,return,3.29700017,,FALSE,1,0,5,4,1,4,179,tigre,Catalan,Sounds/cat_tigre.mp3,2020-06-17_10h52.06.664,TranslationElicitation_spa,3.2.4,Win32,60,5ee3dfc37e2f6d0b805831bc,3.29700017,,,,,,
,,,,,,,,,,,,,,,,,,,,,,,,,,,,,,,,,,,,,,,1,0,5,4,1,4,179,tigre,Catalan,Sounds/cat_tigre.mp3,2020-06-17_10h52.06.664,TranslationElicitation_spa,3.2.4,Win32,60,5ee3dfc37e2f6d0b805831bc,,,,,,,
,,,,,,,,,,,,,,,,,,,,,,,,,,,,,,,,,,,i,1.498999834,I,FALSE,1,0,5,3,1,4,167,pingui,Catalan,Sounds/cat_pingui.mp3,2020-06-17_10h52.06.664,TranslationElicitation_spa,3.2.4,Win32,60,5ee3dfc37e2f6d0b805831bc,,,,,,,
,,,,,,,,,,,,,,,,,,,,,,,,,,,,,,,,,,,n,1.665999889,IN,FALSE,1,0,5,3,1,4,167,pingui,Catalan,Sounds/cat_pingui.mp3,2020-06-17_10h52.06.664,TranslationElicitation_spa,3.2.4,Win32,60,5ee3dfc37e2f6d0b805831bc,,,,,,,
,,,,,,,,,,,,,,,,,,,,,,,,,,,,,,,,,,,g,2.016000032,ING,FALSE,1,0,5,3,1,4,167,pingui,Catalan,Sounds/cat_pingui.mp3,2020-06-17_10h52.06.664,TranslationElicitation_spa,3.2.4,Win32,60,5ee3dfc37e2f6d0b805831bc,,,,,,,
,,,,,,,,,,,,,,,,,,,,,,,,,,,,,,,,,,,apostrophe,2.448999882,ING,FALSE,1,0,5,3,1,4,167,pingui,Catalan,Sounds/cat_pingui.mp3,2020-06-17_10h52.06.664,TranslationElicitation_spa,3.2.4,Win32,60,5ee3dfc37e2f6d0b805831bc,,,,,,,
,,,,,,,,,,,,,,,,,,,,,,,,,,,,,,,,,,,u,2.931999922,INGÚ,FALSE,1,0,5,3,1,4,167,pingui,Catalan,Sounds/cat_pingui.mp3,2020-06-17_10h52.06.664,TranslationElicitation_spa,3.2.4,Win32,60,5ee3dfc37e2f6d0b805831bc,,,,,,,
,,,,,,,,,,,,,,,,,,,,,,,,,,,,,,,,,,,i,3.148999929,INGÚI,FALSE,1,0,5,3,1,4,167,pingui,Catalan,Sounds/cat_pingui.mp3,2020-06-17_10h52.06.664,TranslationElicitation_spa,3.2.4,Win32,60,5ee3dfc37e2f6d0b805831bc,,,,,,,
,,,,,,,,,,,,,,,,,,,,,,,,,,,,,,,,,,,n,3.299000025,INGÚIN,FALSE,1,0,5,3,1,4,167,pingui,Catalan,Sounds/cat_pingui.mp3,2020-06-17_10h52.06.664,TranslationElicitation_spa,3.2.4,Win32,60,5ee3dfc37e2f6d0b805831bc,,,,,,,
,,,,,,,,,,,,,,,,,,,,,,,,,,,,,,,,,,,o,3.481999874,INGÚINO,FALSE,1,0,5,3,1,4,167,pingui,Catalan,Sounds/cat_pingui.mp3,2020-06-17_10h52.06.664,TranslationElicitation_spa,3.2.4,Win32,60,5ee3dfc37e2f6d0b805831bc,,,,,,,
,,,,,,,,,,,,,,,,,,,,,,,,,,,,,,,,,,,backspace,3.86500001,INGÚI,TRUE,1,0,5,3,1,4,167,pingui,Catalan,Sounds/cat_pingui.mp3,2020-06-17_10h52.06.664,TranslationElicitation_spa,3.2.4,Win32,60,5ee3dfc37e2f6d0b805831bc,,,,,,,
,,,,,,,,,,,,,,,,,,,,,,,,,,,,,,,,,,,backspace,4.031999826,ING,TRUE,1,0,5,3,1,4,167,pingui,Catalan,Sounds/cat_pingui.mp3,2020-06-17_10h52.06.664,TranslationElicitation_spa,3.2.4,Win32,60,5ee3dfc37e2f6d0b805831bc,,,,,,,
,,,,,,,,,,,,,,,,,,,,,,,,,,,,,,,,,,,backspace,4.181999922,I,TRUE,1,0,5,3,1,4,167,pingui,Catalan,Sounds/cat_pingui.mp3,2020-06-17_10h52.06.664,TranslationElicitation_spa,3.2.4,Win32,60,5ee3dfc37e2f6d0b805831bc,,,,,,,
,,,,,,,,,,,,,,,,,,,,,,,,,,,,,,,,,,,backspace,4.281999826,,TRUE,1,0,5,3,1,4,167,pingui,Catalan,Sounds/cat_pingui.mp3,2020-06-17_10h52.06.664,TranslationElicitation_spa,3.2.4,Win32,60,5ee3dfc37e2f6d0b805831bc,,,,,,,
,,,,,,,,,,,,,,,,,,,,,,,,,,,,,,,,,,,backspace,4.431999922,,TRUE,1,0,5,3,1,4,167,pingui,Catalan,Sounds/cat_pingui.mp3,2020-06-17_10h52.06.664,TranslationElicitation_spa,3.2.4,Win32,60,5ee3dfc37e2f6d0b805831bc,,,,,,,
,,,,,,,,,,,,,,,,,,,,,,,,,,,,,,,,,,,p,5.131999969,P,TRUE,1,0,5,3,1,4,167,pingui,Catalan,Sounds/cat_pingui.mp3,2020-06-17_10h52.06.664,TranslationElicitation_spa,3.2.4,Win32,60,5ee3dfc37e2f6d0b805831bc,,,,,,,
,,,,,,,,,,,,,,,,,,,,,,,,,,,,,,,,,,,i,5.398000002,PI,TRUE,1,0,5,3,1,4,167,pingui,Catalan,Sounds/cat_pingui.mp3,2020-06-17_10h52.06.664,TranslationElicitation_spa,3.2.4,Win32,60,5ee3dfc37e2f6d0b805831bc,,,,,,,
,,,,,,,,,,,,,,,,,,,,,,,,,,,,,,,,,,,n,5.580999851,PIN,TRUE,1,0,5,3,1,4,167,pingui,Catalan,Sounds/cat_pingui.mp3,2020-06-17_10h52.06.664,TranslationElicitation_spa,3.2.4,Win32,60,5ee3dfc37e2f6d0b805831bc,,,,,,,
,,,,,,,,,,,,,,,,,,,,,,,,,,,,,,,,,,,g,6.180999994,PING,TRUE,1,0,5,3,1,4,167,pingui,Catalan,Sounds/cat_pingui.mp3,2020-06-17_10h52.06.664,TranslationElicitation_spa,3.2.4,Win32,60,5ee3dfc37e2f6d0b805831bc,,,,,,,
,,,,,,,,,,,,,,,,,,,,,,,,,,,,,,,,,,,apostrophe,6.61500001,PING,TRUE,1,0,5,3,1,4,167,pingui,Catalan,Sounds/cat_pingui.mp3,2020-06-17_10h52.06.664,TranslationElicitation_spa,3.2.4,Win32,60,5ee3dfc37e2f6d0b805831bc,,,,,,,
,,,,,,,,,,,,,,,,,,,,,,,,,,,,,,,,,,,u,7.164000034,PINGÚ,TRUE,1,0,5,3,1,4,167,pingui,Catalan,Sounds/cat_pingui.mp3,2020-06-17_10h52.06.664,TranslationElicitation_spa,3.2.4,Win32,60,5ee3dfc37e2f6d0b805831bc,,,,,,,
,,,,,,,,,,,,,,,,,,,,,,,,,,,,,,,,,,,backspace,7.914000034,PIN,TRUE,1,0,5,3,1,4,167,pingui,Catalan,Sounds/cat_pingui.mp3,2020-06-17_10h52.06.664,TranslationElicitation_spa,3.2.4,Win32,60,5ee3dfc37e2f6d0b805831bc,,,,,,,
,,,,,,,,,,,,,,,,,,,,,,,,,,,,,,,,,,,apostrophe,8.363999844,PIN,TRUE,1,0,5,3,1,4,167,pingui,Catalan,Sounds/cat_pingui.mp3,2020-06-17_10h52.06.664,TranslationElicitation_spa,3.2.4,Win32,60,5ee3dfc37e2f6d0b805831bc,,,,,,,
,,,,,,,,,,,,,,,,,,,,,,,,,,,,,,,,,,,u,8.84800005,PINÚ,TRUE,1,0,5,3,1,4,167,pingui,Catalan,Sounds/cat_pingui.mp3,2020-06-17_10h52.06.664,TranslationElicitation_spa,3.2.4,Win32,60,5ee3dfc37e2f6d0b805831bc,,,,,,,
,,,,,,,,,,,,,,,,,,,,,,,,,,,,,,,,,,,backspace,9.563999891,PI,TRUE,1,0,5,3,1,4,167,pingui,Catalan,Sounds/cat_pingui.mp3,2020-06-17_10h52.06.664,TranslationElicitation_spa,3.2.4,Win32,60,5ee3dfc37e2f6d0b805831bc,,,,,,,
,,,,,,,,,,,,,,,,,,,,,,,,,,,,,,,,,,,apostrophe,11.81499982,PI,TRUE,1,0,5,3,1,4,167,pingui,Catalan,Sounds/cat_pingui.mp3,2020-06-17_10h52.06.664,TranslationElicitation_spa,3.2.4,Win32,60,5ee3dfc37e2f6d0b805831bc,,,,,,,
,,,,,,,,,,,,,,,,,,,,,,,,,,,,,,,,,,,u,12.46399999,PIÚ,TRUE,1,0,5,3,1,4,167,pingui,Catalan,Sounds/cat_pingui.mp3,2020-06-17_10h52.06.664,TranslationElicitation_spa,3.2.4,Win32,60,5ee3dfc37e2f6d0b805831bc,,,,,,,
,,,,,,,,,,,,,,,,,,,,,,,,,,,,,,,,,,,backspace,13.42999983,P,TRUE,1,0,5,3,1,4,167,pingui,Catalan,Sounds/cat_pingui.mp3,2020-06-17_10h52.06.664,TranslationElicitation_spa,3.2.4,Win32,60,5ee3dfc37e2f6d0b805831bc,,,,,,,
,,,,,,,,,,,,,,,,,,,,,,,,,,,,,,,,,,,n,13.84699988,PN,TRUE,1,0,5,3,1,4,167,pingui,Catalan,Sounds/cat_pingui.mp3,2020-06-17_10h52.06.664,TranslationElicitation_spa,3.2.4,Win32,60,5ee3dfc37e2f6d0b805831bc,,,,,,,
,,,,,,,,,,,,,,,,,,,,,,,,,,,,,,,,,,,g,14.07999992,PNG,TRUE,1,0,5,3,1,4,167,pingui,Catalan,Sounds/cat_pingui.mp3,2020-06-17_10h52.06.664,TranslationElicitation_spa,3.2.4,Win32,60,5ee3dfc37e2f6d0b805831bc,,,,,,,
,,,,,,,,,,,,,,,,,,,,,,,,,,,,,,,,,,,apostrophe,17.06200004,PNG,TRUE,1,0,5,3,1,4,167,pingui,Catalan,Sounds/cat_pingui.mp3,2020-06-17_10h52.06.664,TranslationElicitation_spa,3.2.4,Win32,60,5ee3dfc37e2f6d0b805831bc,,,,,,,
,,,,,,,,,,,,,,,,,,,,,,,,,,,,,,,,,,,u,17.87899995,PNGÚ,TRUE,1,0,5,3,1,4,167,pingui,Catalan,Sounds/cat_pingui.mp3,2020-06-17_10h52.06.664,TranslationElicitation_spa,3.2.4,Win32,60,5ee3dfc37e2f6d0b805831bc,,,,,,,
,,,,,,,,,,,,,,,,,,,,,,,,,,,,,,,,,,,i,18.24799991,PNGÚI,TRUE,1,0,5,3,1,4,167,pingui,Catalan,Sounds/cat_pingui.mp3,2020-06-17_10h52.06.664,TranslationElicitation_spa,3.2.4,Win32,60,5ee3dfc37e2f6d0b805831bc,,,,,,,
,,,,,,,,,,,,,,,,,,,,,,,,,,,,,,,,,,,n,18.86199999,PNGÚIN,TRUE,1,0,5,3,1,4,167,pingui,Catalan,Sounds/cat_pingui.mp3,2020-06-17_10h52.06.664,TranslationElicitation_spa,3.2.4,Win32,60,5ee3dfc37e2f6d0b805831bc,,,,,,,
,,,,,,,,,,,,,,,,,,,,,,,,,,,,,,,,,,,o,19.01199985,PNGÚINO,TRUE,1,0,5,3,1,4,167,pingui,Catalan,Sounds/cat_pingui.mp3,2020-06-17_10h52.06.664,TranslationElicitation_spa,3.2.4,Win32,60,5ee3dfc37e2f6d0b805831bc,,,,,,,
,,,,,,,,,,,,,,,,,,,,,,,,,,,,,,,,,,,backspace,21.39499998,PNGÚI,TRUE,1,0,5,3,1,4,167,pingui,Catalan,Sounds/cat_pingui.mp3,2020-06-17_10h52.06.664,TranslationElicitation_spa,3.2.4,Win32,60,5ee3dfc37e2f6d0b805831bc,,,,,,,
,,,,,,,,,,,,,,,,,,,,,,,,,,,,,,,,,,,backspace,21.59500003,PNG,TRUE,1,0,5,3,1,4,167,pingui,Catalan,Sounds/cat_pingui.mp3,2020-06-17_10h52.06.664,TranslationElicitation_spa,3.2.4,Win32,60,5ee3dfc37e2f6d0b805831bc,,,,,,,
,,,,,,,,,,,,,,,,,,,,,,,,,,,,,,,,,,,backspace,21.96099997,P,TRUE,1,0,5,3,1,4,167,pingui,Catalan,Sounds/cat_pingui.mp3,2020-06-17_10h52.06.664,TranslationElicitation_spa,3.2.4,Win32,60,5ee3dfc37e2f6d0b805831bc,,,,,,,
,,,,,,,,,,,,,,,,,,,,,,,,,,,,,,,,,,,i,23.16100001,PI,TRUE,1,0,5,3,1,4,167,pingui,Catalan,Sounds/cat_pingui.mp3,2020-06-17_10h52.06.664,TranslationElicitation_spa,3.2.4,Win32,60,5ee3dfc37e2f6d0b805831bc,,,,,,,
,,,,,,,,,,,,,,,,,,,,,,,,,,,,,,,,,,,n,23.31099987,PIN,TRUE,1,0,5,3,1,4,167,pingui,Catalan,Sounds/cat_pingui.mp3,2020-06-17_10h52.06.664,TranslationElicitation_spa,3.2.4,Win32,60,5ee3dfc37e2f6d0b805831bc,,,,,,,
,,,,,,,,,,,,,,,,,,,,,,,,,,,,,,,,,,,g,23.52699995,PING,TRUE,1,0,5,3,1,4,167,pingui,Catalan,Sounds/cat_pingui.mp3,2020-06-17_10h52.06.664,TranslationElicitation_spa,3.2.4,Win32,60,5ee3dfc37e2f6d0b805831bc,,,,,,,
,,,,,,,,,,,,,,,,,,,,,,,,,,,,,,,,,,,semicolon,24.29399991,PINGÑ,TRUE,1,0,5,3,1,4,167,pingui,Catalan,Sounds/cat_pingui.mp3,2020-06-17_10h52.06.664,TranslationElicitation_spa,3.2.4,Win32,60,5ee3dfc37e2f6d0b805831bc,,,,,,,
,,,,,,,,,,,,,,,,,,,,,,,,,,,,,,,,,,,backspace,25.12699986,PIN,TRUE,1,0,5,3,1,4,167,pingui,Catalan,Sounds/cat_pingui.mp3,2020-06-17_10h52.06.664,TranslationElicitation_spa,3.2.4,Win32,60,5ee3dfc37e2f6d0b805831bc,,,,,,,
,,,,,,,,,,,,,,,,,,,,,,,,,,,,,,,,,,,u,27.50999999,PINU,TRUE,1,0,5,3,1,4,167,pingui,Catalan,Sounds/cat_pingui.mp3,2020-06-17_10h52.06.664,TranslationElicitation_spa,3.2.4,Win32,60,5ee3dfc37e2f6d0b805831bc,,,,,,,
,,,,,,,,,,,,,,,,,,,,,,,,,,,,,,,,,,,backspace,27.91100001,PI,TRUE,1,0,5,3,1,4,167,pingui,Catalan,Sounds/cat_pingui.mp3,2020-06-17_10h52.06.664,TranslationElicitation_spa,3.2.4,Win32,60,5ee3dfc37e2f6d0b805831bc,,,,,,,
,,,,,,,,,,,,,,,,,,,,,,,,,,,,,,,,,,,g,28.46000004,PIG,TRUE,1,0,5,3,1,4,167,pingui,Catalan,Sounds/cat_pingui.mp3,2020-06-17_10h52.06.664,TranslationElicitation_spa,3.2.4,Win32,60,5ee3dfc37e2f6d0b805831bc,,,,,,,
,,,,,,,,,,,,,,,,,,,,,,,,,,,,,,,,,,,u,29.14199996,PIGU,TRUE,1,0,5,3,1,4,167,pingui,Catalan,Sounds/cat_pingui.mp3,2020-06-17_10h52.06.664,TranslationElicitation_spa,3.2.4,Win32,60,5ee3dfc37e2f6d0b805831bc,,,,,,,
,,,,,,,,,,,,,,,,,,,,,,,,,,,,,,,,,,,backspace,29.75899982,PI,TRUE,1,0,5,3,1,4,167,pingui,Catalan,Sounds/cat_pingui.mp3,2020-06-17_10h52.06.664,TranslationElicitation_spa,3.2.4,Win32,60,5ee3dfc37e2f6d0b805831bc,,,,,,,
,,,,,,,,,,,,,,,,,,,,,,,,,,,,,,,,,,,n,30.36099982,PIN,TRUE,1,0,5,3,1,4,167,pingui,Catalan,Sounds/cat_pingui.mp3,2020-06-17_10h52.06.664,TranslationElicitation_spa,3.2.4,Win32,60,5ee3dfc37e2f6d0b805831bc,,,,,,,
,,,,,,,,,,,,,,,,,,,,,,,,,,,,,,,,,,,g,31.12599993,PING,TRUE,1,0,5,3,1,4,167,pingui,Catalan,Sounds/cat_pingui.mp3,2020-06-17_10h52.06.664,TranslationElicitation_spa,3.2.4,Win32,60,5ee3dfc37e2f6d0b805831bc,,,,,,,
,,,,,,,,,,,,,,,,,,,,,,,,,,,,,,,,,,,backspace,32.54200006,PI,TRUE,1,0,5,3,1,4,167,pingui,Catalan,Sounds/cat_pingui.mp3,2020-06-17_10h52.06.664,TranslationElicitation_spa,3.2.4,Win32,60,5ee3dfc37e2f6d0b805831bc,,,,,,,
,,,,,,,,,,,,,,,,,,,,,,,,,,,,,,,,,,,n,33.57500005,PIN,TRUE,1,0,5,3,1,4,167,pingui,Catalan,Sounds/cat_pingui.mp3,2020-06-17_10h52.06.664,TranslationElicitation_spa,3.2.4,Win32,60,5ee3dfc37e2f6d0b805831bc,,,,,,,
,,,,,,,,,,,,,,,,,,,,,,,,,,,,,,,,,,,g,33.94199991,PING,TRUE,1,0,5,3,1,4,167,pingui,Catalan,Sounds/cat_pingui.mp3,2020-06-17_10h52.06.664,TranslationElicitation_spa,3.2.4,Win32,60,5ee3dfc37e2f6d0b805831bc,,,,,,,
,,,,,,,,,,,,,,,,,,,,,,,,,,,,,,,,,,,u,34.17499995,PINGU,TRUE,1,0,5,3,1,4,167,pingui,Catalan,Sounds/cat_pingui.mp3,2020-06-17_10h52.06.664,TranslationElicitation_spa,3.2.4,Win32,60,5ee3dfc37e2f6d0b805831bc,,,,,,,
,,,,,,,,,,,,,,,,,,,,,,,,,,,,,,,,,,,i,34.57500005,PINGUI,TRUE,1,0,5,3,1,4,167,pingui,Catalan,Sounds/cat_pingui.mp3,2020-06-17_10h52.06.664,TranslationElicitation_spa,3.2.4,Win32,60,5ee3dfc37e2f6d0b805831bc,,,,,,,
,,,,,,,,,,,,,,,,,,,,,,,,,,,,,,,,,,,backspace,35.09099984,PING,TRUE,1,0,5,3,1,4,167,pingui,Catalan,Sounds/cat_pingui.mp3,2020-06-17_10h52.06.664,TranslationElicitation_spa,3.2.4,Win32,60,5ee3dfc37e2f6d0b805831bc,,,,,,,
,,,,,,,,,,,,,,,,,,,,,,,,,,,,,,,,,,,backspace,35.32500005,PI,TRUE,1,0,5,3,1,4,167,pingui,Catalan,Sounds/cat_pingui.mp3,2020-06-17_10h52.06.664,TranslationElicitation_spa,3.2.4,Win32,60,5ee3dfc37e2f6d0b805831bc,,,,,,,
,,,,,,,,,,,,,,,,,,,,,,,,,,,,,,,,,,,n,36.09099984,PIN,TRUE,1,0,5,3,1,4,167,pingui,Catalan,Sounds/cat_pingui.mp3,2020-06-17_10h52.06.664,TranslationElicitation_spa,3.2.4,Win32,60,5ee3dfc37e2f6d0b805831bc,,,,,,,
,,,,,,,,,,,,,,,,,,,,,,,,,,,,,,,,,,,g,36.42400002,PING,TRUE,1,0,5,3,1,4,167,pingui,Catalan,Sounds/cat_pingui.mp3,2020-06-17_10h52.06.664,TranslationElicitation_spa,3.2.4,Win32,60,5ee3dfc37e2f6d0b805831bc,,,,,,,
,,,,,,,,,,,,,,,,,,,,,,,,,,,,,,,,,,,u,38.52399993,PINGU,TRUE,1,0,5,3,1,4,167,pingui,Catalan,Sounds/cat_pingui.mp3,2020-06-17_10h52.06.664,TranslationElicitation_spa,3.2.4,Win32,60,5ee3dfc37e2f6d0b805831bc,,,,,,,
,,,,,,,,,,,,,,,,,,,,,,,,,,,,,,,,,,,backspace,39.05699992,PIN,TRUE,1,0,5,3,1,4,167,pingui,Catalan,Sounds/cat_pingui.mp3,2020-06-17_10h52.06.664,TranslationElicitation_spa,3.2.4,Win32,60,5ee3dfc37e2f6d0b805831bc,,,,,,,
,,,,,,,,,,,,,,,,,,,,,,,,,,,,,,,,,,,g,40.52399993,PING,TRUE,1,0,5,3,1,4,167,pingui,Catalan,Sounds/cat_pingui.mp3,2020-06-17_10h52.06.664,TranslationElicitation_spa,3.2.4,Win32,60,5ee3dfc37e2f6d0b805831bc,,,,,,,
,,,,,,,,,,,,,,,,,,,,,,,,,,,,,,,,,,,apostrophe,41.18999982,PING,TRUE,1,0,5,3,1,4,167,pingui,Catalan,Sounds/cat_pingui.mp3,2020-06-17_10h52.06.664,TranslationElicitation_spa,3.2.4,Win32,60,5ee3dfc37e2f6d0b805831bc,,,,,,,
,,,,,,,,,,,,,,,,,,,,,,,,,,,,,,,,,,,u,41.49000001,PINGÚ,TRUE,1,0,5,3,1,4,167,pingui,Catalan,Sounds/cat_pingui.mp3,2020-06-17_10h52.06.664,TranslationElicitation_spa,3.2.4,Win32,60,5ee3dfc37e2f6d0b805831bc,,,,,,,
,,,,,,,,,,,,,,,,,,,,,,,,,,,,,,,,,,,i,41.92700005,PINGÚI,TRUE,1,0,5,3,1,4,167,pingui,Catalan,Sounds/cat_pingui.mp3,2020-06-17_10h52.06.664,TranslationElicitation_spa,3.2.4,Win32,60,5ee3dfc37e2f6d0b805831bc,,,,,,,
,,,,,,,,,,,,,,,,,,,,,,,,,,,,,,,,,,,n,42.30599999,PINGÚIN,TRUE,1,0,5,3,1,4,167,pingui,Catalan,Sounds/cat_pingui.mp3,2020-06-17_10h52.06.664,TranslationElicitation_spa,3.2.4,Win32,60,5ee3dfc37e2f6d0b805831bc,,,,,,,
,,,,,,,,,,,,,,,,,,,,,,,,,,,,,,,,,,,o,42.43899989,PINGÚINO,TRUE,1,0,5,3,1,4,167,pingui,Catalan,Sounds/cat_pingui.mp3,2020-06-17_10h52.06.664,TranslationElicitation_spa,3.2.4,Win32,60,5ee3dfc37e2f6d0b805831bc,,,,,,,
,,,,,,,,,,,,,,,,,,,,,,,,,,,,,,,,,,,return,44.72199988,,TRUE,1,0,5,3,1,4,167,pingui,Catalan,Sounds/cat_pingui.mp3,2020-06-17_10h52.06.664,TranslationElicitation_spa,3.2.4,Win32,60,5ee3dfc37e2f6d0b805831bc,44.72199988,,,,,,
,,,,,,,,,,,,,,,,,,,,,,,,,,,,,,,,,,,,,,,1,0,5,3,1,4,167,pingui,Catalan,Sounds/cat_pingui.mp3,2020-06-17_10h52.06.664,TranslationElicitation_spa,3.2.4,Win32,60,5ee3dfc37e2f6d0b805831bc,,,,,,,
,,,,,,,,,,,,,,,,,,,,,,,,,,,,,,,,,,,a,1.346000195,A,FALSE,1,0,5,0,1,4,109,arbre,Catalan,Sounds/cat_arbre.mp3,2020-06-17_10h52.06.664,TranslationElicitation_spa,3.2.4,Win32,60,5ee3dfc37e2f6d0b805831bc,,,,,,,
,,,,,,,,,,,,,,,,,,,,,,,,,,,,,,,,,,,r,1.562000036,AR,FALSE,1,0,5,0,1,4,109,arbre,Catalan,Sounds/cat_arbre.mp3,2020-06-17_10h52.06.664,TranslationElicitation_spa,3.2.4,Win32,60,5ee3dfc37e2f6d0b805831bc,,,,,,,
,,,,,,,,,,,,,,,,,,,,,,,,,,,,,,,,,,,b,1.779000044,ARB,FALSE,1,0,5,0,1,4,109,arbre,Catalan,Sounds/cat_arbre.mp3,2020-06-17_10h52.06.664,TranslationElicitation_spa,3.2.4,Win32,60,5ee3dfc37e2f6d0b805831bc,,,,,,,
,,,,,,,,,,,,,,,,,,,,,,,,,,,,,,,,,,,o,2.452000141,ARBO,FALSE,1,0,5,0,1,4,109,arbre,Catalan,Sounds/cat_arbre.mp3,2020-06-17_10h52.06.664,TranslationElicitation_spa,3.2.4,Win32,60,5ee3dfc37e2f6d0b805831bc,,,,,,,
,,,,,,,,,,,,,,,,,,,,,,,,,,,,,,,,,,,l,2.879000187,ARBOL,FALSE,1,0,5,0,1,4,109,arbre,Catalan,Sounds/cat_arbre.mp3,2020-06-17_10h52.06.664,TranslationElicitation_spa,3.2.4,Win32,60,5ee3dfc37e2f6d0b805831bc,,,,,,,
,,,,,,,,,,,,,,,,,,,,,,,,,,,,,,,,,,,return,3.495000124,,FALSE,1,0,5,0,1,4,109,arbre,Catalan,Sounds/cat_arbre.mp3,2020-06-17_10h52.06.664,TranslationElicitation_spa,3.2.4,Win32,60,5ee3dfc37e2f6d0b805831bc,3.495000124,,,,,,
,,,,,,,,,,,,,,,,,,,,,,,,,,,,,,,,,,,,,,,1,0,5,0,1,4,109,arbre,Catalan,Sounds/cat_arbre.mp3,2020-06-17_10h52.06.664,TranslationElicitation_spa,3.2.4,Win32,60,5ee3dfc37e2f6d0b805831bc,,,,,,,
,,,,,,,,,,,,,,,,,,,,,,,,,,,,,,,,,,,u,2.562999964,U,FALSE,1,0,5,2,1,4,159,onada,Catalan,Sounds/cat_onada.mp3,2020-06-17_10h52.06.664,TranslationElicitation_spa,3.2.4,Win32,60,5ee3dfc37e2f6d0b805831bc,,,,,,,
,,,,,,,,,,,,,,,,,,,,,,,,,,,,,,,,,,,n,2.645999908,UN,FALSE,1,0,5,2,1,4,159,onada,Catalan,Sounds/cat_onada.mp3,2020-06-17_10h52.06.664,TranslationElicitation_spa,3.2.4,Win32,60,5ee3dfc37e2f6d0b805831bc,,,,,,,
,,,,,,,,,,,,,,,,,,,,,,,,,,,,,,,,,,,a,3.428999901,UNA,FALSE,1,0,5,2,1,4,159,onada,Catalan,Sounds/cat_onada.mp3,2020-06-17_10h52.06.664,TranslationElicitation_spa,3.2.4,Win32,60,5ee3dfc37e2f6d0b805831bc,,,,,,,
,,,,,,,,,,,,,,,,,,,,,,,,,,,,,,,,,,,return,3.779000044,,FALSE,1,0,5,2,1,4,159,onada,Catalan,Sounds/cat_onada.mp3,2020-06-17_10h52.06.664,TranslationElicitation_spa,3.2.4,Win32,60,5ee3dfc37e2f6d0b805831bc,3.779000044,,,,,,
,,,,,,,,,,,,,,,,,,,,,,,,,,,,,,,,,,,,,,,1,0,5,2,1,4,159,onada,Catalan,Sounds/cat_onada.mp3,2020-06-17_10h52.06.664,TranslationElicitation_spa,3.2.4,Win32,60,5ee3dfc37e2f6d0b805831bc,,,,,,,
,,,,,,,,,,,,,,,,,,,,,,,,,,,,,,,,,,,c,1.713999987,C,FALSE,1,0,5,1,1,4,147,jaqueta,Catalan,Sounds/cat_jaqueta.mp3,2020-06-17_10h52.06.664,TranslationElicitation_spa,3.2.4,Win32,60,5ee3dfc37e2f6d0b805831bc,,,,,,,
,,,,,,,,,,,,,,,,,,,,,,,,,,,,,,,,,,,h,1.881000042,CH,FALSE,1,0,5,1,1,4,147,jaqueta,Catalan,Sounds/cat_jaqueta.mp3,2020-06-17_10h52.06.664,TranslationElicitation_spa,3.2.4,Win32,60,5ee3dfc37e2f6d0b805831bc,,,,,,,
,,,,,,,,,,,,,,,,,,,,,,,,,,,,,,,,,,,a,2.014000177,CHA,FALSE,1,0,5,1,1,4,147,jaqueta,Catalan,Sounds/cat_jaqueta.mp3,2020-06-17_10h52.06.664,TranslationElicitation_spa,3.2.4,Win32,60,5ee3dfc37e2f6d0b805831bc,,,,,,,
,,,,,,,,,,,,,,,,,,,,,,,,,,,,,,,,,,,q,2.197999954,CHAQ,FALSE,1,0,5,1,1,4,147,jaqueta,Catalan,Sounds/cat_jaqueta.mp3,2020-06-17_10h52.06.664,TranslationElicitation_spa,3.2.4,Win32,60,5ee3dfc37e2f6d0b805831bc,,,,,,,
,,,,,,,,,,,,,,,,,,,,,,,,,,,,,,,,,,,u,2.381000042,CHAQU,FALSE,1,0,5,1,1,4,147,jaqueta,Catalan,Sounds/cat_jaqueta.mp3,2020-06-17_10h52.06.664,TranslationElicitation_spa,3.2.4,Win32,60,5ee3dfc37e2f6d0b805831bc,,,,,,,
,,,,,,,,,,,,,,,,,,,,,,,,,,,,,,,,,,,e,2.54700017,CHAQUE,FALSE,1,0,5,1,1,4,147,jaqueta,Catalan,Sounds/cat_jaqueta.mp3,2020-06-17_10h52.06.664,TranslationElicitation_spa,3.2.4,Win32,60,5ee3dfc37e2f6d0b805831bc,,,,,,,
,,,,,,,,,,,,,,,,,,,,,,,,,,,,,,,,,,,t,2.881000042,CHAQUET,FALSE,1,0,5,1,1,4,147,jaqueta,Catalan,Sounds/cat_jaqueta.mp3,2020-06-17_10h52.06.664,TranslationElicitation_spa,3.2.4,Win32,60,5ee3dfc37e2f6d0b805831bc,,,,,,,
,,,,,,,,,,,,,,,,,,,,,,,,,,,,,,,,,,,a,3.031000137,CHAQUETA,FALSE,1,0,5,1,1,4,147,jaqueta,Catalan,Sounds/cat_jaqueta.mp3,2020-06-17_10h52.06.664,TranslationElicitation_spa,3.2.4,Win32,60,5ee3dfc37e2f6d0b805831bc,,,,,,,
,,,,,,,,,,,,,,,,,,,,,,,,,,,,,,,,,,,return,3.397000074,,FALSE,1,0,5,1,1,4,147,jaqueta,Catalan,Sounds/cat_jaqueta.mp3,2020-06-17_10h52.06.664,TranslationElicitation_spa,3.2.4,Win32,60,5ee3dfc37e2f6d0b805831bc,3.397000074,,,,,,
,,,,,,,,,,,,,,,,,,,,,,,,,,,,,,,,,,,,,,,1,0,5,1,1,4,147,jaqueta,Catalan,Sounds/cat_jaqueta.mp3,2020-06-17_10h52.06.664,TranslationElicitation_spa,3.2.4,Win32,60,5ee3dfc37e2f6d0b805831bc,,,,,,,
,,,,,,,,,,,,,,,,,,,,,,,,,,,,,,,,,,,n,2.229000092,N,FALSE,,,,,,,158,nas,Catalan,Sounds/cat_nas.mp3,2020-06-17_10h52.06.664,TranslationElicitation_spa,3.2.4,Win32,60,5ee3dfc37e2f6d0b805831bc,,1,0,80,52,1,79
,,,,,,,,,,,,,,,,,,,,,,,,,,,,,,,,,,,a,2.878999949,NA,FALSE,,,,,,,158,nas,Catalan,Sounds/cat_nas.mp3,2020-06-17_10h52.06.664,TranslationElicitation_spa,3.2.4,Win32,60,5ee3dfc37e2f6d0b805831bc,,1,0,80,52,1,79
,,,,,,,,,,,,,,,,,,,,,,,,,,,,,,,,,,,r,3.095999956,NAR,FALSE,,,,,,,158,nas,Catalan,Sounds/cat_nas.mp3,2020-06-17_10h52.06.664,TranslationElicitation_spa,3.2.4,Win32,60,5ee3dfc37e2f6d0b805831bc,,1,0,80,52,1,79
,,,,,,,,,,,,,,,,,,,,,,,,,,,,,,,,,,,i,3.229000092,NARI,FALSE,,,,,,,158,nas,Catalan,Sounds/cat_nas.mp3,2020-06-17_10h52.06.664,TranslationElicitation_spa,3.2.4,Win32,60,5ee3dfc37e2f6d0b805831bc,,1,0,80,52,1,79
,,,,,,,,,,,,,,,,,,,,,,,,,,,,,,,,,,,x,3.479000092,NARIX,FALSE,,,,,,,158,nas,Catalan,Sounds/cat_nas.mp3,2020-06-17_10h52.06.664,TranslationElicitation_spa,3.2.4,Win32,60,5ee3dfc37e2f6d0b805831bc,,1,0,80,52,1,79
,,,,,,,,,,,,,,,,,,,,,,,,,,,,,,,,,,,backspace,3.779000044,NAR,TRUE,,,,,,,158,nas,Catalan,Sounds/cat_nas.mp3,2020-06-17_10h52.06.664,TranslationElicitation_spa,3.2.4,Win32,60,5ee3dfc37e2f6d0b805831bc,,1,0,80,52,1,79
,,,,,,,,,,,,,,,,,,,,,,,,,,,,,,,,,,,z,3.878999949,NARZ,TRUE,,,,,,,158,nas,Catalan,Sounds/cat_nas.mp3,2020-06-17_10h52.06.664,TranslationElicitation_spa,3.2.4,Win32,60,5ee3dfc37e2f6d0b805831bc,,1,0,80,52,1,79
,,,,,,,,,,,,,,,,,,,,,,,,,,,,,,,,,,,return,4.212000132,,TRUE,,,,,,,158,nas,Catalan,Sounds/cat_nas.mp3,2020-06-17_10h52.06.664,TranslationElicitation_spa,3.2.4,Win32,60,5ee3dfc37e2f6d0b805831bc,4.212000132,1,0,80,52,1,79
,,,,,,,,,,,,,,,,,,,,,,,,,,,,,,,,,,,,,,,,,,,,,158,nas,Catalan,Sounds/cat_nas.mp3,2020-06-17_10h52.06.664,TranslationElicitation_spa,3.2.4,Win32,60,5ee3dfc37e2f6d0b805831bc,,1,0,80,52,1,79
,,,,,,,,,,,,,,,,,,,,,,,,,,,,,,,,,,,a,2.34800005,A,FALSE,,,,,,,104,abella,Catalan,Sounds/cat_abella.mp3,2020-06-17_10h52.06.664,TranslationElicitation_spa,3.2.4,Win32,60,5ee3dfc37e2f6d0b805831bc,,1,0,80,0,1,79
,,,,,,,,,,,,,,,,,,,,,,,,,,,,,,,,,,,q,2.530999899,AQ,FALSE,,,,,,,104,abella,Catalan,Sounds/cat_abella.mp3,2020-06-17_10h52.06.664,TranslationElicitation_spa,3.2.4,Win32,60,5ee3dfc37e2f6d0b805831bc,,1,0,80,0,1,79
,,,,,,,,,,,,,,,,,,,,,,,,,,,,,,,,,,,u,2.714999914,AQU,FALSE,,,,,,,104,abella,Catalan,Sounds/cat_abella.mp3,2020-06-17_10h52.06.664,TranslationElicitation_spa,3.2.4,Win32,60,5ee3dfc37e2f6d0b805831bc,,1,0,80,0,1,79
,,,,,,,,,,,,,,,,,,,,,,,,,,,,,,,,,,,e,2.797999859,AQUE,FALSE,,,,,,,104,abella,Catalan,Sounds/cat_abella.mp3,2020-06-17_10h52.06.664,TranslationElicitation_spa,3.2.4,Win32,60,5ee3dfc37e2f6d0b805831bc,,1,0,80,0,1,79
,,,,,,,,,,,,,,,,,,,,,,,,,,,,,,,,,,,l,3.047999859,AQUEL,FALSE,,,,,,,104,abella,Catalan,Sounds/cat_abella.mp3,2020-06-17_10h52.06.664,TranslationElicitation_spa,3.2.4,Win32,60,5ee3dfc37e2f6d0b805831bc,,1,0,80,0,1,79
,,,,,,,,,,,,,,,,,,,,,,,,,,,,,,,,,,,l,3.213999987,AQUELL,FALSE,,,,,,,104,abella,Catalan,Sounds/cat_abella.mp3,2020-06-17_10h52.06.664,TranslationElicitation_spa,3.2.4,Win32,60,5ee3dfc37e2f6d0b805831bc,,1,0,80,0,1,79
,,,,,,,,,,,,,,,,,,,,,,,,,,,,,,,,,,,a,3.363999844,AQUELLA,FALSE,,,,,,,104,abella,Catalan,Sounds/cat_abella.mp3,2020-06-17_10h52.06.664,TranslationElicitation_spa,3.2.4,Win32,60,5ee3dfc37e2f6d0b805831bc,,1,0,80,0,1,79
,,,,,,,,,,,,,,,,,,,,,,,,,,,,,,,,,,,return,3.813999891,,FALSE,,,,,,,104,abella,Catalan,Sounds/cat_abella.mp3,2020-06-17_10h52.06.664,TranslationElicitation_spa,3.2.4,Win32,60,5ee3dfc37e2f6d0b805831bc,3.813999891,1,0,80,0,1,79
,,,,,,,,,,,,,,,,,,,,,,,,,,,,,,,,,,,,,,,,,,,,,104,abella,Catalan,Sounds/cat_abella.mp3,2020-06-17_10h52.06.664,TranslationElicitation_spa,3.2.4,Win32,60,5ee3dfc37e2f6d0b805831bc,,1,0,80,0,1,79
,,,,,,,,,,,,,,,,,,,,,,,,,,,,,,,,,,,e,1.614000082,E,FALSE,,,,,,,189,zebra,Catalan,Sounds/cat_zebra.mp3,2020-06-17_10h52.06.664,TranslationElicitation_spa,3.2.4,Win32,60,5ee3dfc37e2f6d0b805831bc,,1,0,80,79,1,79
,,,,,,,,,,,,,,,,,,,,,,,,,,,,,,,,,,,backspace,2.096000195,,TRUE,,,,,,,189,zebra,Catalan,Sounds/cat_zebra.mp3,2020-06-17_10h52.06.664,TranslationElicitation_spa,3.2.4,Win32,60,5ee3dfc37e2f6d0b805831bc,,1,0,80,79,1,79
,,,,,,,,,,,,,,,,,,,,,,,,,,,,,,,,,,,c,2.613000154,C,TRUE,,,,,,,189,zebra,Catalan,Sounds/cat_zebra.mp3,2020-06-17_10h52.06.664,TranslationElicitation_spa,3.2.4,Win32,60,5ee3dfc37e2f6d0b805831bc,,1,0,80,79,1,79
,,,,,,,,,,,,,,,,,,,,,,,,,,,,,,,,,,,e,2.746000051,CE,TRUE,,,,,,,189,zebra,Catalan,Sounds/cat_zebra.mp3,2020-06-17_10h52.06.664,TranslationElicitation_spa,3.2.4,Win32,60,5ee3dfc37e2f6d0b805831bc,,1,0,80,79,1,79
,,,,,,,,,,,,,,,,,,,,,,,,,,,,,,,,,,,b,3.03000021,CEB,TRUE,,,,,,,189,zebra,Catalan,Sounds/cat_zebra.mp3,2020-06-17_10h52.06.664,TranslationElicitation_spa,3.2.4,Win32,60,5ee3dfc37e2f6d0b805831bc,,1,0,80,79,1,79
,,,,,,,,,,,,,,,,,,,,,,,,,,,,,,,,,,,r,3.131000042,CEBR,TRUE,,,,,,,189,zebra,Catalan,Sounds/cat_zebra.mp3,2020-06-17_10h52.06.664,TranslationElicitation_spa,3.2.4,Win32,60,5ee3dfc37e2f6d0b805831bc,,1,0,80,79,1,79
,,,,,,,,,,,,,,,,,,,,,,,,,,,,,,,,,,,a,3.662000179,CEBRA,TRUE,,,,,,,189,zebra,Catalan,Sounds/cat_zebra.mp3,2020-06-17_10h52.06.664,TranslationElicitation_spa,3.2.4,Win32,60,5ee3dfc37e2f6d0b805831bc,,1,0,80,79,1,79
,,,,,,,,,,,,,,,,,,,,,,,,,,,,,,,,,,,return,3.979000092,,TRUE,,,,,,,189,zebra,Catalan,Sounds/cat_zebra.mp3,2020-06-17_10h52.06.664,TranslationElicitation_spa,3.2.4,Win32,60,5ee3dfc37e2f6d0b805831bc,3.979000092,1,0,80,79,1,79
,,,,,,,,,,,,,,,,,,,,,,,,,,,,,,,,,,,,,,,,,,,,,189,zebra,Catalan,Sounds/cat_zebra.mp3,2020-06-17_10h52.06.664,TranslationElicitation_spa,3.2.4,Win32,60,5ee3dfc37e2f6d0b805831bc,,1,0,80,79,1,79
,,,,,,,,,,,,,,,,,,,,,,,,,,,,,,,,,,,o,2.07799983,O,FALSE,,,,,,,136,forquilla,Catalan,Sounds/cat_forquilla.mp3,2020-06-17_10h52.06.664,TranslationElicitation_spa,3.2.4,Win32,60,5ee3dfc37e2f6d0b805831bc,,1,0,80,31,1,79
,,,,,,,,,,,,,,,,,,,,,,,,,,,,,,,,,,,r,2.427999973,OR,FALSE,,,,,,,136,forquilla,Catalan,Sounds/cat_forquilla.mp3,2020-06-17_10h52.06.664,TranslationElicitation_spa,3.2.4,Win32,60,5ee3dfc37e2f6d0b805831bc,,1,0,80,31,1,79
,,,,,,,,,,,,,,,,,,,,,,,,,,,,,,,,,,,q,2.677999973,ORQ,FALSE,,,,,,,136,forquilla,Catalan,Sounds/cat_forquilla.mp3,2020-06-17_10h52.06.664,TranslationElicitation_spa,3.2.4,Win32,60,5ee3dfc37e2f6d0b805831bc,,1,0,80,31,1,79
,,,,,,,,,,,,,,,,,,,,,,,,,,,,,,,,,,,u,2.809999943,ORQU,FALSE,,,,,,,136,forquilla,Catalan,Sounds/cat_forquilla.mp3,2020-06-17_10h52.06.664,TranslationElicitation_spa,3.2.4,Win32,60,5ee3dfc37e2f6d0b805831bc,,1,0,80,31,1,79
,,,,,,,,,,,,,,,,,,,,,,,,,,,,,,,,,,,i,2.976999998,ORQUI,FALSE,,,,,,,136,forquilla,Catalan,Sounds/cat_forquilla.mp3,2020-06-17_10h52.06.664,TranslationElicitation_spa,3.2.4,Win32,60,5ee3dfc37e2f6d0b805831bc,,1,0,80,31,1,79
,,,,,,,,,,,,,,,,,,,,,,,,,,,,,,,,,,,l,3.226999998,ORQUIL,FALSE,,,,,,,136,forquilla,Catalan,Sounds/cat_forquilla.mp3,2020-06-17_10h52.06.664,TranslationElicitation_spa,3.2.4,Win32,60,5ee3dfc37e2f6d0b805831bc,,1,0,80,31,1,79
,,,,,,,,,,,,,,,,,,,,,,,,,,,,,,,,,,,l,3.360999823,ORQUILL,FALSE,,,,,,,136,forquilla,Catalan,Sounds/cat_forquilla.mp3,2020-06-17_10h52.06.664,TranslationElicitation_spa,3.2.4,Win32,60,5ee3dfc37e2f6d0b805831bc,,1,0,80,31,1,79
,,,,,,,,,,,,,,,,,,,,,,,,,,,,,,,,,,,a,3.493999958,ORQUILLA,FALSE,,,,,,,136,forquilla,Catalan,Sounds/cat_forquilla.mp3,2020-06-17_10h52.06.664,TranslationElicitation_spa,3.2.4,Win32,60,5ee3dfc37e2f6d0b805831bc,,1,0,80,31,1,79
,,,,,,,,,,,,,,,,,,,,,,,,,,,,,,,,,,,return,4.176999807,,FALSE,,,,,,,136,forquilla,Catalan,Sounds/cat_forquilla.mp3,2020-06-17_10h52.06.664,TranslationElicitation_spa,3.2.4,Win32,60,5ee3dfc37e2f6d0b805831bc,4.176999807,1,0,80,31,1,79
,,,,,,,,,,,,,,,,,,,,,,,,,,,,,,,,,,,,,,,,,,,,,136,forquilla,Catalan,Sounds/cat_forquilla.mp3,2020-06-17_10h52.06.664,TranslationElicitation_spa,3.2.4,Win32,60,5ee3dfc37e2f6d0b805831bc,,1,0,80,31,1,79
,,,,,,,,,,,,,,,,,,,,,,,,,,,,,,,,,,,b,2.611000061,B,FALSE,,,,,,,115,bolet,Catalan,Sounds/cat_bolet.mp3,2020-06-17_10h52.06.664,TranslationElicitation_spa,3.2.4,Win32,60,5ee3dfc37e2f6d0b805831bc,,1,0,80,10,1,79
,,,,,,,,,,,,,,,,,,,,,,,,,,,,,,,,,,,o,3.444000006,BO,FALSE,,,,,,,115,bolet,Catalan,Sounds/cat_bolet.mp3,2020-06-17_10h52.06.664,TranslationElicitation_spa,3.2.4,Win32,60,5ee3dfc37e2f6d0b805831bc,,1,0,80,10,1,79
,,,,,,,,,,,,,,,,,,,,,,,,,,,,,,,,,,,l,3.627000093,BOL,FALSE,,,,,,,115,bolet,Catalan,Sounds/cat_bolet.mp3,2020-06-17_10h52.06.664,TranslationElicitation_spa,3.2.4,Win32,60,5ee3dfc37e2f6d0b805831bc,,1,0,80,10,1,79
,,,,,,,,,,,,,,,,,,,,,,,,,,,,,,,,,,,e,3.760999918,BOLE,FALSE,,,,,,,115,bolet,Catalan,Sounds/cat_bolet.mp3,2020-06-17_10h52.06.664,TranslationElicitation_spa,3.2.4,Win32,60,5ee3dfc37e2f6d0b805831bc,,1,0,80,10,1,79
,,,,,,,,,,,,,,,,,,,,,,,,,,,,,,,,,,,t,3.960999966,BOLET,FALSE,,,,,,,115,bolet,Catalan,Sounds/cat_bolet.mp3,2020-06-17_10h52.06.664,TranslationElicitation_spa,3.2.4,Win32,60,5ee3dfc37e2f6d0b805831bc,,1,0,80,10,1,79
,,,,,,,,,,,,,,,,,,,,,,,,,,,,,,,,,,,o,4.094000101,BOLETO,FALSE,,,,,,,115,bolet,Catalan,Sounds/cat_bolet.mp3,2020-06-17_10h52.06.664,TranslationElicitation_spa,3.2.4,Win32,60,5ee3dfc37e2f6d0b805831bc,,1,0,80,10,1,79
,,,,,,,,,,,,,,,,,,,,,,,,,,,,,,,,,,,return,4.410000086,,FALSE,,,,,,,115,bolet,Catalan,Sounds/cat_bolet.mp3,2020-06-17_10h52.06.664,TranslationElicitation_spa,3.2.4,Win32,60,5ee3dfc37e2f6d0b805831bc,4.410000086,1,0,80,10,1,79
,,,,,,,,,,,,,,,,,,,,,,,,,,,,,,,,,,,,,,,,,,,,,115,bolet,Catalan,Sounds/cat_bolet.mp3,2020-06-17_10h52.06.664,TranslationElicitation_spa,3.2.4,Win32,60,5ee3dfc37e2f6d0b805831bc,,1,0,80,10,1,79
,,,,,,,,,,,,,,,,,,,,,,,,,,,,,,,,,,,a,2.164000034,A,FALSE,,,,,,,141,gerd,Catalan,Sounds/cat_gerd.mp3,2020-06-17_10h52.06.664,TranslationElicitation_spa,3.2.4,Win32,60,5ee3dfc37e2f6d0b805831bc,,1,0,80,36,1,79
,,,,,,,,,,,,,,,,,,,,,,,,,,,,,,,,,,,y,2.430999994,AY,FALSE,,,,,,,141,gerd,Catalan,Sounds/cat_gerd.mp3,2020-06-17_10h52.06.664,TranslationElicitation_spa,3.2.4,Win32,60,5ee3dfc37e2f6d0b805831bc,,1,0,80,36,1,79
,,,,,,,,,,,,,,,,,,,,,,,,,,,,,,,,,,,e,2.59800005,AYE,FALSE,,,,,,,141,gerd,Catalan,Sounds/cat_gerd.mp3,2020-06-17_10h52.06.664,TranslationElicitation_spa,3.2.4,Win32,60,5ee3dfc37e2f6d0b805831bc,,1,0,80,36,1,79
,,,,,,,,,,,,,,,,,,,,,,,,,,,,,,,,,,,r,2.781000137,AYER,FALSE,,,,,,,141,gerd,Catalan,Sounds/cat_gerd.mp3,2020-06-17_10h52.06.664,TranslationElicitation_spa,3.2.4,Win32,60,5ee3dfc37e2f6d0b805831bc,,1,0,80,36,1,79
,,,,,,,,,,,,,,,,,,,,,,,,,,,,,,,,,,,return,3.097000122,,FALSE,,,,,,,141,gerd,Catalan,Sounds/cat_gerd.mp3,2020-06-17_10h52.06.664,TranslationElicitation_spa,3.2.4,Win32,60,5ee3dfc37e2f6d0b805831bc,3.097000122,1,0,80,36,1,79
,,,,,,,,,,,,,,,,,,,,,,,,,,,,,,,,,,,,,,,,,,,,,141,gerd,Catalan,Sounds/cat_gerd.mp3,2020-06-17_10h52.06.664,TranslationElicitation_spa,3.2.4,Win32,60,5ee3dfc37e2f6d0b805831bc,,1,0,80,36,1,79
,,,,,,,,,,,,,,,,,,,,,,,,,,,,,,,,,,,p,1.481000185,P,FALSE,,,,,,,172,poma,Catalan,Sounds/cat_poma.mp3,2020-06-17_10h52.06.664,TranslationElicitation_spa,3.2.4,Win32,60,5ee3dfc37e2f6d0b805831bc,,1,0,80,64,1,79
,,,,,,,,,,,,,,,,,,,,,,,,,,,,,,,,,,,o,1.697000027,PO,FALSE,,,,,,,172,poma,Catalan,Sounds/cat_poma.mp3,2020-06-17_10h52.06.664,TranslationElicitation_spa,3.2.4,Win32,60,5ee3dfc37e2f6d0b805831bc,,1,0,80,64,1,79
,,,,,,,,,,,,,,,,,,,,,,,,,,,,,,,,,,,m,1.881000042,POM,FALSE,,,,,,,172,poma,Catalan,Sounds/cat_poma.mp3,2020-06-17_10h52.06.664,TranslationElicitation_spa,3.2.4,Win32,60,5ee3dfc37e2f6d0b805831bc,,1,0,80,64,1,79
,,,,,,,,,,,,,,,,,,,,,,,,,,,,,,,,,,,o,2.08100009,POMO,FALSE,,,,,,,172,poma,Catalan,Sounds/cat_poma.mp3,2020-06-17_10h52.06.664,TranslationElicitation_spa,3.2.4,Win32,60,5ee3dfc37e2f6d0b805831bc,,1,0,80,64,1,79
,,,,,,,,,,,,,,,,,,,,,,,,,,,,,,,,,,,return,2.514000177,,FALSE,,,,,,,172,poma,Catalan,Sounds/cat_poma.mp3,2020-06-17_10h52.06.664,TranslationElicitation_spa,3.2.4,Win32,60,5ee3dfc37e2f6d0b805831bc,2.514000177,1,0,80,64,1,79
,,,,,,,,,,,,,,,,,,,,,,,,,,,,,,,,,,,,,,,,,,,,,172,poma,Catalan,Sounds/cat_poma.mp3,2020-06-17_10h52.06.664,TranslationElicitation_spa,3.2.4,Win32,60,5ee3dfc37e2f6d0b805831bc,,1,0,80,64,1,79
,,,,,,,,,,,,,,,,,,,,,,,,,,,,,,,,,,,t,1.698999882,T,FALSE,,,,,,,178,taronja,Catalan,Sounds/cat_taronja.mp3,2020-06-17_10h52.06.664,TranslationElicitation_spa,3.2.4,Win32,60,5ee3dfc37e2f6d0b805831bc,,1,0,80,70,1,79
,,,,,,,,,,,,,,,,,,,,,,,,,,,,,,,,,,,r,1.947999954,TR,FALSE,,,,,,,178,taronja,Catalan,Sounds/cat_taronja.mp3,2020-06-17_10h52.06.664,TranslationElicitation_spa,3.2.4,Win32,60,5ee3dfc37e2f6d0b805831bc,,1,0,80,70,1,79
,,,,,,,,,,,,,,,,,,,,,,,,,,,,,,,,,,,a,2.131000042,TRA,FALSE,,,,,,,178,taronja,Catalan,Sounds/cat_taronja.mp3,2020-06-17_10h52.06.664,TranslationElicitation_spa,3.2.4,Win32,60,5ee3dfc37e2f6d0b805831bc,,1,0,80,70,1,79
,,,,,,,,,,,,,,,,,,,,,,,,,,,,,,,,,,,n,2.280999899,TRAN,FALSE,,,,,,,178,taronja,Catalan,Sounds/cat_taronja.mp3,2020-06-17_10h52.06.664,TranslationElicitation_spa,3.2.4,Win32,60,5ee3dfc37e2f6d0b805831bc,,1,0,80,70,1,79
,,,,,,,,,,,,,,,,,,,,,,,,,,,,,,,,,,,backspace,2.898000002,TR,TRUE,,,,,,,178,taronja,Catalan,Sounds/cat_taronja.mp3,2020-06-17_10h52.06.664,TranslationElicitation_spa,3.2.4,Win32,60,5ee3dfc37e2f6d0b805831bc,,1,0,80,70,1,79
,,,,,,,,,,,,,,,,,,,,,,,,,,,,,,,,,,,backspace,3.047999859,,TRUE,,,,,,,178,taronja,Catalan,Sounds/cat_taronja.mp3,2020-06-17_10h52.06.664,TranslationElicitation_spa,3.2.4,Win32,60,5ee3dfc37e2f6d0b805831bc,,1,0,80,70,1,79
,,,,,,,,,,,,,,,,,,,,,,,,,,,,,,,,,,,t,3.832000017,T,TRUE,,,,,,,178,taronja,Catalan,Sounds/cat_taronja.mp3,2020-06-17_10h52.06.664,TranslationElicitation_spa,3.2.4,Win32,60,5ee3dfc37e2f6d0b805831bc,,1,0,80,70,1,79
,,,,,,,,,,,,,,,,,,,,,,,,,,,,,,,,,,,r,4.080999851,TR,TRUE,,,,,,,178,taronja,Catalan,Sounds/cat_taronja.mp3,2020-06-17_10h52.06.664,TranslationElicitation_spa,3.2.4,Win32,60,5ee3dfc37e2f6d0b805831bc,,1,0,80,70,1,79
,,,,,,,,,,,,,,,,,,,,,,,,,,,,,,,,,,,o,4.381000042,TRO,TRUE,,,,,,,178,taronja,Catalan,Sounds/cat_taronja.mp3,2020-06-17_10h52.06.664,TranslationElicitation_spa,3.2.4,Win32,60,5ee3dfc37e2f6d0b805831bc,,1,0,80,70,1,79
,,,,,,,,,,,,,,,,,,,,,,,,,,,,,,,,,,,n,4.513999939,TRON,TRUE,,,,,,,178,taronja,Catalan,Sounds/cat_taronja.mp3,2020-06-17_10h52.06.664,TranslationElicitation_spa,3.2.4,Win32,60,5ee3dfc37e2f6d0b805831bc,,1,0,80,70,1,79
,,,,,,,,,,,,,,,,,,,,,,,,,,,,,,,,,,,c,4.780999899,TRONC,TRUE,,,,,,,178,taronja,Catalan,Sounds/cat_taronja.mp3,2020-06-17_10h52.06.664,TranslationElicitation_spa,3.2.4,Win32,60,5ee3dfc37e2f6d0b805831bc,,1,0,80,70,1,79
,,,,,,,,,,,,,,,,,,,,,,,,,,,,,,,,,,,o,4.914999962,TRONCO,TRUE,,,,,,,178,taronja,Catalan,Sounds/cat_taronja.mp3,2020-06-17_10h52.06.664,TranslationElicitation_spa,3.2.4,Win32,60,5ee3dfc37e2f6d0b805831bc,,1,0,80,70,1,79
,,,,,,,,,,,,,,,,,,,,,,,,,,,,,,,,,,,return,5.247999907,,TRUE,,,,,,,178,taronja,Catalan,Sounds/cat_taronja.mp3,2020-06-17_10h52.06.664,TranslationElicitation_spa,3.2.4,Win32,60,5ee3dfc37e2f6d0b805831bc,5.246999979,1,0,80,70,1,79
,,,,,,,,,,,,,,,,,,,,,,,,,,,,,,,,,,,,,,,,,,,,,178,taronja,Catalan,Sounds/cat_taronja.mp3,2020-06-17_10h52.06.664,TranslationElicitation_spa,3.2.4,Win32,60,5ee3dfc37e2f6d0b805831bc,,1,0,80,70,1,79
,,,,,,,,,,,,,,,,,,,,,,,,,,,,,,,,,,,t,3.396000147,T,FALSE,,,,,,,182,tomaquet,Catalan,Sounds/cat_tomaquet.mp3,2020-06-17_10h52.06.664,TranslationElicitation_spa,3.2.4,Win32,60,5ee3dfc37e2f6d0b805831bc,,1,0,80,73,1,79
,,,,,,,,,,,,,,,,,,,,,,,,,,,,,,,,,,,o,3.512000084,TO,FALSE,,,,,,,182,tomaquet,Catalan,Sounds/cat_tomaquet.mp3,2020-06-17_10h52.06.664,TranslationElicitation_spa,3.2.4,Win32,60,5ee3dfc37e2f6d0b805831bc,,1,0,80,73,1,79
,,,,,,,,,,,,,,,,,,,,,,,,,,,,,,,,,,,m,3.595000029,TOM,FALSE,,,,,,,182,tomaquet,Catalan,Sounds/cat_tomaquet.mp3,2020-06-17_10h52.06.664,TranslationElicitation_spa,3.2.4,Win32,60,5ee3dfc37e2f6d0b805831bc,,1,0,80,73,1,79
,,,,,,,,,,,,,,,,,,,,,,,,,,,,,,,,,,,a,3.727999926,TOMA,FALSE,,,,,,,182,tomaquet,Catalan,Sounds/cat_tomaquet.mp3,2020-06-17_10h52.06.664,TranslationElicitation_spa,3.2.4,Win32,60,5ee3dfc37e2f6d0b805831bc,,1,0,80,73,1,79
,,,,,,,,,,,,,,,,,,,,,,,,,,,,,,,,,,,t,3.911999941,TOMAT,FALSE,,,,,,,182,tomaquet,Catalan,Sounds/cat_tomaquet.mp3,2020-06-17_10h52.06.664,TranslationElicitation_spa,3.2.4,Win32,60,5ee3dfc37e2f6d0b805831bc,,1,0,80,73,1,79
,,,,,,,,,,,,,,,,,,,,,,,,,,,,,,,,,,,e,4.245000124,TOMATE,FALSE,,,,,,,182,tomaquet,Catalan,Sounds/cat_tomaquet.mp3,2020-06-17_10h52.06.664,TranslationElicitation_spa,3.2.4,Win32,60,5ee3dfc37e2f6d0b805831bc,,1,0,80,73,1,79
,,,,,,,,,,,,,,,,,,,,,,,,,,,,,,,,,,,return,4.679000139,,FALSE,,,,,,,182,tomaquet,Catalan,Sounds/cat_tomaquet.mp3,2020-06-17_10h52.06.664,TranslationElicitation_spa,3.2.4,Win32,60,5ee3dfc37e2f6d0b805831bc,4.677999973,1,0,80,73,1,79
,,,,,,,,,,,,,,,,,,,,,,,,,,,,,,,,,,,,,,,,,,,,,182,tomaquet,Catalan,Sounds/cat_tomaquet.mp3,2020-06-17_10h52.06.664,TranslationElicitation_spa,3.2.4,Win32,60,5ee3dfc37e2f6d0b805831bc,,1,0,80,73,1,79
,,,,,,,,,,,,,,,,,,,,,,,,,,,,,,,,,,,a,1.677999973,A,FALSE,,,,,,,107,amanida,Catalan,Sounds/cat_amanida.mp3,2020-06-17_10h52.06.664,TranslationElicitation_spa,3.2.4,Win32,60,5ee3dfc37e2f6d0b805831bc,,1,0,80,3,1,79
,,,,,,,,,,,,,,,,,,,,,,,,,,,,,,,,,,,v,1.828999996,AV,FALSE,,,,,,,107,amanida,Catalan,Sounds/cat_amanida.mp3,2020-06-17_10h52.06.664,TranslationElicitation_spa,3.2.4,Win32,60,5ee3dfc37e2f6d0b805831bc,,1,0,80,3,1,79
,,,,,,,,,,,,,,,,,,,,,,,,,,,,,,,,,,,e,1.977999926,AVE,FALSE,,,,,,,107,amanida,Catalan,Sounds/cat_amanida.mp3,2020-06-17_10h52.06.664,TranslationElicitation_spa,3.2.4,Win32,60,5ee3dfc37e2f6d0b805831bc,,1,0,80,3,1,79
,,,,,,,,,,,,,,,,,,,,,,,,,,,,,,,,,,,n,2.128000021,AVEN,FALSE,,,,,,,107,amanida,Catalan,Sounds/cat_amanida.mp3,2020-06-17_10h52.06.664,TranslationElicitation_spa,3.2.4,Win32,60,5ee3dfc37e2f6d0b805831bc,,1,0,80,3,1,79
,,,,,,,,,,,,,,,,,,,,,,,,,,,,,,,,,,,i,2.243999958,AVENI,FALSE,,,,,,,107,amanida,Catalan,Sounds/cat_amanida.mp3,2020-06-17_10h52.06.664,TranslationElicitation_spa,3.2.4,Win32,60,5ee3dfc37e2f6d0b805831bc,,1,0,80,3,1,79
,,,,,,,,,,,,,,,,,,,,,,,,,,,,,,,,,,,d,2.427999973,AVENID,FALSE,,,,,,,107,amanida,Catalan,Sounds/cat_amanida.mp3,2020-06-17_10h52.06.664,TranslationElicitation_spa,3.2.4,Win32,60,5ee3dfc37e2f6d0b805831bc,,1,0,80,3,1,79
,,,,,,,,,,,,,,,,,,,,,,,,,,,,,,,,,,,a,2.527999878,AVENIDA,FALSE,,,,,,,107,amanida,Catalan,Sounds/cat_amanida.mp3,2020-06-17_10h52.06.664,TranslationElicitation_spa,3.2.4,Win32,60,5ee3dfc37e2f6d0b805831bc,,1,0,80,3,1,79
,,,,,,,,,,,,,,,,,,,,,,,,,,,,,,,,,,,return,2.861000061,,FALSE,,,,,,,107,amanida,Catalan,Sounds/cat_amanida.mp3,2020-06-17_10h52.06.664,TranslationElicitation_spa,3.2.4,Win32,60,5ee3dfc37e2f6d0b805831bc,2.861000061,1,0,80,3,1,79
,,,,,,,,,,,,,,,,,,,,,,,,,,,,,,,,,,,,,,,,,,,,,107,amanida,Catalan,Sounds/cat_amanida.mp3,2020-06-17_10h52.06.664,TranslationElicitation_spa,3.2.4,Win32,60,5ee3dfc37e2f6d0b805831bc,,1,0,80,3,1,79
,,,,,,,,,,,,,,,,,,,,,,,,,,,,,,,,,,,b,6.361999989,B,FALSE,,,,,,,184,ull,Catalan,Sounds/cat_ull.mp3,2020-06-17_10h52.06.664,TranslationElicitation_spa,3.2.4,Win32,60,5ee3dfc37e2f6d0b805831bc,,1,0,80,75,1,79
,,,,,,,,,,,,,,,,,,,,,,,,,,,,,,,,,,,apostrophe,7.379000187,B,FALSE,,,,,,,184,ull,Catalan,Sounds/cat_ull.mp3,2020-06-17_10h52.06.664,TranslationElicitation_spa,3.2.4,Win32,60,5ee3dfc37e2f6d0b805831bc,,1,0,80,75,1,79
,,,,,,,,,,,,,,,,,,,,,,,,,,,,,,,,,,,u,7.695000172,BÚ,FALSE,,,,,,,184,ull,Catalan,Sounds/cat_ull.mp3,2020-06-17_10h52.06.664,TranslationElicitation_spa,3.2.4,Win32,60,5ee3dfc37e2f6d0b805831bc,,1,0,80,75,1,79
,,,,,,,,,,,,,,,,,,,,,,,,,,,,,,,,,,,h,7.845000029,BÚH,FALSE,,,,,,,184,ull,Catalan,Sounds/cat_ull.mp3,2020-06-17_10h52.06.664,TranslationElicitation_spa,3.2.4,Win32,60,5ee3dfc37e2f6d0b805831bc,,1,0,80,75,1,79
,,,,,,,,,,,,,,,,,,,,,,,,,,,,,,,,,,,o,8.08100009,BÚHO,FALSE,,,,,,,184,ull,Catalan,Sounds/cat_ull.mp3,2020-06-17_10h52.06.664,TranslationElicitation_spa,3.2.4,Win32,60,5ee3dfc37e2f6d0b805831bc,,1,0,80,75,1,79
,,,,,,,,,,,,,,,,,,,,,,,,,,,,,,,,,,,return,8.411000013,,FALSE,,,,,,,184,ull,Catalan,Sounds/cat_ull.mp3,2020-06-17_10h52.06.664,TranslationElicitation_spa,3.2.4,Win32,60,5ee3dfc37e2f6d0b805831bc,8.411000013,1,0,80,75,1,79
,,,,,,,,,,,,,,,,,,,,,,,,,,,,,,,,,,,,,,,,,,,,,184,ull,Catalan,Sounds/cat_ull.mp3,2020-06-17_10h52.06.664,TranslationElicitation_spa,3.2.4,Win32,60,5ee3dfc37e2f6d0b805831bc,,1,0,80,75,1,79
,,,,,,,,,,,,,,,,,,,,,,,,,,,,,,,,,,,g,1.078000069,G,FALSE,,,,,,,146,guitarra,Catalan,Sounds/cat_guitarra.mp3,2020-06-17_10h52.06.664,TranslationElicitation_spa,3.2.4,Win32,60,5ee3dfc37e2f6d0b805831bc,,1,0,80,41,1,79
,,,,,,,,,,,,,,,,,,,,,,,,,,,,,,,,,,,u,1.194999933,GU,FALSE,,,,,,,146,guitarra,Catalan,Sounds/cat_guitarra.mp3,2020-06-17_10h52.06.664,TranslationElicitation_spa,3.2.4,Win32,60,5ee3dfc37e2f6d0b805831bc,,1,0,80,41,1,79
,,,,,,,,,,,,,,,,,,,,,,,,,,,,,,,,,,,i,1.345000029,GUI,FALSE,,,,,,,146,guitarra,Catalan,Sounds/cat_guitarra.mp3,2020-06-17_10h52.06.664,TranslationElicitation_spa,3.2.4,Win32,60,5ee3dfc37e2f6d0b805831bc,,1,0,80,41,1,79
,,,,,,,,,,,,,,,,,,,,,,,,,,,,,,,,,,,t,1.494999886,GUIT,FALSE,,,,,,,146,guitarra,Catalan,Sounds/cat_guitarra.mp3,2020-06-17_10h52.06.664,TranslationElicitation_spa,3.2.4,Win32,60,5ee3dfc37e2f6d0b805831bc,,1,0,80,41,1,79
,,,,,,,,,,,,,,,,,,,,,,,,,,,,,,,,,,,a,1.694999933,GUITA,FALSE,,,,,,,146,guitarra,Catalan,Sounds/cat_guitarra.mp3,2020-06-17_10h52.06.664,TranslationElicitation_spa,3.2.4,Win32,60,5ee3dfc37e2f6d0b805831bc,,1,0,80,41,1,79
,,,,,,,,,,,,,,,,,,,,,,,,,,,,,,,,,,,r,1.843999863,GUITAR,FALSE,,,,,,,146,guitarra,Catalan,Sounds/cat_guitarra.mp3,2020-06-17_10h52.06.664,TranslationElicitation_spa,3.2.4,Win32,60,5ee3dfc37e2f6d0b805831bc,,1,0,80,41,1,79
,,,,,,,,,,,,,,,,,,,,,,,,,,,,,,,,,,,r,2.027999878,GUITARR,FALSE,,,,,,,146,guitarra,Catalan,Sounds/cat_guitarra.mp3,2020-06-17_10h52.06.664,TranslationElicitation_spa,3.2.4,Win32,60,5ee3dfc37e2f6d0b805831bc,,1,0,80,41,1,79
,,,,,,,,,,,,,,,,,,,,,,,,,,,,,,,,,,,a,2.210999966,GUITARRA,FALSE,,,,,,,146,guitarra,Catalan,Sounds/cat_guitarra.mp3,2020-06-17_10h52.06.664,TranslationElicitation_spa,3.2.4,Win32,60,5ee3dfc37e2f6d0b805831bc,,1,0,80,41,1,79
,,,,,,,,,,,,,,,,,,,,,,,,,,,,,,,,,,,return,2.361999989,,FALSE,,,,,,,146,guitarra,Catalan,Sounds/cat_guitarra.mp3,2020-06-17_10h52.06.664,TranslationElicitation_spa,3.2.4,Win32,60,5ee3dfc37e2f6d0b805831bc,2.361000061,1,0,80,41,1,79
,,,,,,,,,,,,,,,,,,,,,,,,,,,,,,,,,,,,,,,,,,,,,146,guitarra,Catalan,Sounds/cat_guitarra.mp3,2020-06-17_10h52.06.664,TranslationElicitation_spa,3.2.4,Win32,60,5ee3dfc37e2f6d0b805831bc,,1,0,80,41,1,79
,,,,,,,,,,,,,,,,,,,,,,,,,,,,,,,,,,,e,1.063999891,E,FALSE,,,,,,,132,estrella,Catalan,Sounds/cat_estrella.mp3,2020-06-17_10h52.06.664,TranslationElicitation_spa,3.2.4,Win32,60,5ee3dfc37e2f6d0b805831bc,,1,0,80,27,1,79
,,,,,,,,,,,,,,,,,,,,,,,,,,,,,,,,,,,s,1.246999979,ES,FALSE,,,,,,,132,estrella,Catalan,Sounds/cat_estrella.mp3,2020-06-17_10h52.06.664,TranslationElicitation_spa,3.2.4,Win32,60,5ee3dfc37e2f6d0b805831bc,,1,0,80,27,1,79
,,,,,,,,,,,,,,,,,,,,,,,,,,,,,,,,,,,t,1.462999821,EST,FALSE,,,,,,,132,estrella,Catalan,Sounds/cat_estrella.mp3,2020-06-17_10h52.06.664,TranslationElicitation_spa,3.2.4,Win32,60,5ee3dfc37e2f6d0b805831bc,,1,0,80,27,1,79
,,,,,,,,,,,,,,,,,,,,,,,,,,,,,,,,,,,r,1.645999908,ESTR,FALSE,,,,,,,132,estrella,Catalan,Sounds/cat_estrella.mp3,2020-06-17_10h52.06.664,TranslationElicitation_spa,3.2.4,Win32,60,5ee3dfc37e2f6d0b805831bc,,1,0,80,27,1,79
,,,,,,,,,,,,,,,,,,,,,,,,,,,,,,,,,,,e,1.812999964,ESTRE,FALSE,,,,,,,132,estrella,Catalan,Sounds/cat_estrella.mp3,2020-06-17_10h52.06.664,TranslationElicitation_spa,3.2.4,Win32,60,5ee3dfc37e2f6d0b805831bc,,1,0,80,27,1,79
,,,,,,,,,,,,,,,,,,,,,,,,,,,,,,,,,,,l,1.979999781,ESTREL,FALSE,,,,,,,132,estrella,Catalan,Sounds/cat_estrella.mp3,2020-06-17_10h52.06.664,TranslationElicitation_spa,3.2.4,Win32,60,5ee3dfc37e2f6d0b805831bc,,1,0,80,27,1,79
,,,,,,,,,,,,,,,,,,,,,,,,,,,,,,,,,,,l,2.112999916,ESTRELL,FALSE,,,,,,,132,estrella,Catalan,Sounds/cat_estrella.mp3,2020-06-17_10h52.06.664,TranslationElicitation_spa,3.2.4,Win32,60,5ee3dfc37e2f6d0b805831bc,,1,0,80,27,1,79
,,,,,,,,,,,,,,,,,,,,,,,,,,,,,,,,,,,a,2.196999788,ESTRELLA,FALSE,,,,,,,132,estrella,Catalan,Sounds/cat_estrella.mp3,2020-06-17_10h52.06.664,TranslationElicitation_spa,3.2.4,Win32,60,5ee3dfc37e2f6d0b805831bc,,1,0,80,27,1,79
,,,,,,,,,,,,,,,,,,,,,,,,,,,,,,,,,,,return,2.395999908,,FALSE,,,,,,,132,estrella,Catalan,Sounds/cat_estrella.mp3,2020-06-17_10h52.06.664,TranslationElicitation_spa,3.2.4,Win32,60,5ee3dfc37e2f6d0b805831bc,2.395999908,1,0,80,27,1,79
,,,,,,,,,,,,,,,,,,,,,,,,,,,,,,,,,,,,,,,,,,,,,132,estrella,Catalan,Sounds/cat_estrella.mp3,2020-06-17_10h52.06.664,TranslationElicitation_spa,3.2.4,Win32,60,5ee3dfc37e2f6d0b805831bc,,1,0,80,27,1,79
,,,,,,,,,,,,,,,,,,,,,,,,,,,,,,,,,,,o,1.047999859,O,FALSE,,,,,,,160,orella,Catalan,Sounds/cat_orella.mp3,2020-06-17_10h52.06.664,TranslationElicitation_spa,3.2.4,Win32,60,5ee3dfc37e2f6d0b805831bc,,1,0,80,53,1,79
,,,,,,,,,,,,,,,,,,,,,,,,,,,,,,,,,,,r,1.347999811,OR,FALSE,,,,,,,160,orella,Catalan,Sounds/cat_orella.mp3,2020-06-17_10h52.06.664,TranslationElicitation_spa,3.2.4,Win32,60,5ee3dfc37e2f6d0b805831bc,,1,0,80,53,1,79
,,,,,,,,,,,,,,,,,,,,,,,,,,,,,,,,,,,e,1.531999826,ORE,FALSE,,,,,,,160,orella,Catalan,Sounds/cat_orella.mp3,2020-06-17_10h52.06.664,TranslationElicitation_spa,3.2.4,Win32,60,5ee3dfc37e2f6d0b805831bc,,1,0,80,53,1,79
,,,,,,,,,,,,,,,,,,,,,,,,,,,,,,,,,,,j,1.648000002,OREJ,FALSE,,,,,,,160,orella,Catalan,Sounds/cat_orella.mp3,2020-06-17_10h52.06.664,TranslationElicitation_spa,3.2.4,Win32,60,5ee3dfc37e2f6d0b805831bc,,1,0,80,53,1,79
,,,,,,,,,,,,,,,,,,,,,,,,,,,,,,,,,,,a,1.747999907,OREJA,FALSE,,,,,,,160,orella,Catalan,Sounds/cat_orella.mp3,2020-06-17_10h52.06.664,TranslationElicitation_spa,3.2.4,Win32,60,5ee3dfc37e2f6d0b805831bc,,1,0,80,53,1,79
,,,,,,,,,,,,,,,,,,,,,,,,,,,,,,,,,,,return,1.881999969,,FALSE,,,,,,,160,orella,Catalan,Sounds/cat_orella.mp3,2020-06-17_10h52.06.664,TranslationElicitation_spa,3.2.4,Win32,60,5ee3dfc37e2f6d0b805831bc,1.880999804,1,0,80,53,1,79
,,,,,,,,,,,,,,,,,,,,,,,,,,,,,,,,,,,,,,,,,,,,,160,orella,Catalan,Sounds/cat_orella.mp3,2020-06-17_10h52.06.664,TranslationElicitation_spa,3.2.4,Win32,60,5ee3dfc37e2f6d0b805831bc,,1,0,80,53,1,79
,,,,,,,,,,,,,,,,,,,,,,,,,,,,,,,,,,,v,1.514999866,V,FALSE,,,,,,,111,bibero,Catalan,Sounds/cat_bibero.mp3,2020-06-17_10h52.06.664,TranslationElicitation_spa,3.2.4,Win32,60,5ee3dfc37e2f6d0b805831bc,,1,0,80,6,1,79
,,,,,,,,,,,,,,,,,,,,,,,,,,,,,,,,,,,i,1.648000002,VI,FALSE,,,,,,,111,bibero,Catalan,Sounds/cat_bibero.mp3,2020-06-17_10h52.06.664,TranslationElicitation_spa,3.2.4,Win32,60,5ee3dfc37e2f6d0b805831bc,,1,0,80,6,1,79
,,,,,,,,,,,,,,,,,,,,,,,,,,,,,,,,,,,backspace,2.330999851,,TRUE,,,,,,,111,bibero,Catalan,Sounds/cat_bibero.mp3,2020-06-17_10h52.06.664,TranslationElicitation_spa,3.2.4,Win32,60,5ee3dfc37e2f6d0b805831bc,,1,0,80,6,1,79
,,,,,,,,,,,,,,,,,,,,,,,,,,,,,,,,,,,apostrophe,2.582000017,,TRUE,,,,,,,111,bibero,Catalan,Sounds/cat_bibero.mp3,2020-06-17_10h52.06.664,TranslationElicitation_spa,3.2.4,Win32,60,5ee3dfc37e2f6d0b805831bc,,1,0,80,6,1,79
,,,,,,,,,,,,,,,,,,,,,,,,,,,,,,,,,,,i,2.847999811,Í,TRUE,,,,,,,111,bibero,Catalan,Sounds/cat_bibero.mp3,2020-06-17_10h52.06.664,TranslationElicitation_spa,3.2.4,Win32,60,5ee3dfc37e2f6d0b805831bc,,1,0,80,6,1,79
,,,,,,,,,,,,,,,,,,,,,,,,,,,,,,,,,,,v,3.047999859,ÍV,TRUE,,,,,,,111,bibero,Catalan,Sounds/cat_bibero.mp3,2020-06-17_10h52.06.664,TranslationElicitation_spa,3.2.4,Win32,60,5ee3dfc37e2f6d0b805831bc,,1,0,80,6,1,79
,,,,,,,,,,,,,,,,,,,,,,,,,,,,,,,,,,,backspace,3.398000002,,TRUE,,,,,,,111,bibero,Catalan,Sounds/cat_bibero.mp3,2020-06-17_10h52.06.664,TranslationElicitation_spa,3.2.4,Win32,60,5ee3dfc37e2f6d0b805831bc,,1,0,80,6,1,79
,,,,,,,,,,,,,,,,,,,,,,,,,,,,,,,,,,,backspace,3.597999811,,TRUE,,,,,,,111,bibero,Catalan,Sounds/cat_bibero.mp3,2020-06-17_10h52.06.664,TranslationElicitation_spa,3.2.4,Win32,60,5ee3dfc37e2f6d0b805831bc,,1,0,80,6,1,79
,,,,,,,,,,,,,,,,,,,,,,,,,,,,,,,,,,,v,3.965999842,V,TRUE,,,,,,,111,bibero,Catalan,Sounds/cat_bibero.mp3,2020-06-17_10h52.06.664,TranslationElicitation_spa,3.2.4,Win32,60,5ee3dfc37e2f6d0b805831bc,,1,0,80,6,1,79
,,,,,,,,,,,,,,,,,,,,,,,,,,,,,,,,,,,apostrophe,4.547999859,V,TRUE,,,,,,,111,bibero,Catalan,Sounds/cat_bibero.mp3,2020-06-17_10h52.06.664,TranslationElicitation_spa,3.2.4,Win32,60,5ee3dfc37e2f6d0b805831bc,,1,0,80,6,1,79
,,,,,,,,,,,,,,,,,,,,,,,,,,,,,,,,,,,i,4.881999969,VÍ,TRUE,,,,,,,111,bibero,Catalan,Sounds/cat_bibero.mp3,2020-06-17_10h52.06.664,TranslationElicitation_spa,3.2.4,Win32,60,5ee3dfc37e2f6d0b805831bc,,1,0,80,6,1,79
,,,,,,,,,,,,,,,,,,,,,,,,,,,,,,,,,,,v,5.080999851,VÍV,TRUE,,,,,,,111,bibero,Catalan,Sounds/cat_bibero.mp3,2020-06-17_10h52.06.664,TranslationElicitation_spa,3.2.4,Win32,60,5ee3dfc37e2f6d0b805831bc,,1,0,80,6,1,79
,,,,,,,,,,,,,,,,,,,,,,,,,,,,,,,,,,,e,5.263999939,VÍVE,TRUE,,,,,,,111,bibero,Catalan,Sounds/cat_bibero.mp3,2020-06-17_10h52.06.664,TranslationElicitation_spa,3.2.4,Win32,60,5ee3dfc37e2f6d0b805831bc,,1,0,80,6,1,79
,,,,,,,,,,,,,,,,,,,,,,,,,,,,,,,,,,,r,5.496999979,VÍVER,TRUE,,,,,,,111,bibero,Catalan,Sounds/cat_bibero.mp3,2020-06-17_10h52.06.664,TranslationElicitation_spa,3.2.4,Win32,60,5ee3dfc37e2f6d0b805831bc,,1,0,80,6,1,79
,,,,,,,,,,,,,,,,,,,,,,,,,,,,,,,,,,,o,6.180999994,VÍVERO,TRUE,,,,,,,111,bibero,Catalan,Sounds/cat_bibero.mp3,2020-06-17_10h52.06.664,TranslationElicitation_spa,3.2.4,Win32,60,5ee3dfc37e2f6d0b805831bc,,1,0,80,6,1,79
,,,,,,,,,,,,,,,,,,,,,,,,,,,,,,,,,,,return,6.447000027,,TRUE,,,,,,,111,bibero,Catalan,Sounds/cat_bibero.mp3,2020-06-17_10h52.06.664,TranslationElicitation_spa,3.2.4,Win32,60,5ee3dfc37e2f6d0b805831bc,6.447000027,1,0,80,6,1,79
,,,,,,,,,,,,,,,,,,,,,,,,,,,,,,,,,,,,,,,,,,,,,111,bibero,Catalan,Sounds/cat_bibero.mp3,2020-06-17_10h52.06.664,TranslationElicitation_spa,3.2.4,Win32,60,5ee3dfc37e2f6d0b805831bc,,1,0,80,6,1,79
,,,,,,,,,,,,,,,,,,,,,,,,,,,,,,,,,,,c,3.794999838,C,FALSE,,,,,,,128,cuc,Catalan,Sounds/cat_cuc.mp3,2020-06-17_10h52.06.664,TranslationElicitation_spa,3.2.4,Win32,60,5ee3dfc37e2f6d0b805831bc,,1,0,80,23,1,79
,,,,,,,,,,,,,,,,,,,,,,,,,,,,,,,,,,,o,3.911999941,CO,FALSE,,,,,,,128,cuc,Catalan,Sounds/cat_cuc.mp3,2020-06-17_10h52.06.664,TranslationElicitation_spa,3.2.4,Win32,60,5ee3dfc37e2f6d0b805831bc,,1,0,80,23,1,79
,,,,,,,,,,,,,,,,,,,,,,,,,,,,,,,,,,,c,4.027999878,COC,FALSE,,,,,,,128,cuc,Catalan,Sounds/cat_cuc.mp3,2020-06-17_10h52.06.664,TranslationElicitation_spa,3.2.4,Win32,60,5ee3dfc37e2f6d0b805831bc,,1,0,80,23,1,79
,,,,,,,,,,,,,,,,,,,,,,,,,,,,,,,,,,,o,4.144999981,COCO,FALSE,,,,,,,128,cuc,Catalan,Sounds/cat_cuc.mp3,2020-06-17_10h52.06.664,TranslationElicitation_spa,3.2.4,Win32,60,5ee3dfc37e2f6d0b805831bc,,1,0,80,23,1,79
,,,,,,,,,,,,,,,,,,,,,,,,,,,,,,,,,,,return,4.480000019,,FALSE,,,,,,,128,cuc,Catalan,Sounds/cat_cuc.mp3,2020-06-17_10h52.06.664,TranslationElicitation_spa,3.2.4,Win32,60,5ee3dfc37e2f6d0b805831bc,4.480000019,1,0,80,23,1,79
,,,,,,,,,,,,,,,,,,,,,,,,,,,,,,,,,,,,,,,,,,,,,128,cuc,Catalan,Sounds/cat_cuc.mp3,2020-06-17_10h52.06.664,TranslationElicitation_spa,3.2.4,Win32,60,5ee3dfc37e2f6d0b805831bc,,1,0,80,23,1,79
,,,,,,,,,,,,,,,,,,,,,,,,,,,,,,,,,,,backspace,1.880000114,,TRUE,,,,,,,144,gorra,Catalan,Sounds/cat_gorra.mp3,2020-06-17_10h52.06.664,TranslationElicitation_spa,3.2.4,Win32,60,5ee3dfc37e2f6d0b805831bc,,1,0,80,39,1,79
,,,,,,,,,,,,,,,,,,,,,,,,,,,,,,,,,,,g,2.196000099,G,TRUE,,,,,,,144,gorra,Catalan,Sounds/cat_gorra.mp3,2020-06-17_10h52.06.664,TranslationElicitation_spa,3.2.4,Win32,60,5ee3dfc37e2f6d0b805831bc,,1,0,80,39,1,79
,,,,,,,,,,,,,,,,,,,,,,,,,,,,,,,,,,,o,2.364000082,GO,TRUE,,,,,,,144,gorra,Catalan,Sounds/cat_gorra.mp3,2020-06-17_10h52.06.664,TranslationElicitation_spa,3.2.4,Win32,60,5ee3dfc37e2f6d0b805831bc,,1,0,80,39,1,79
,,,,,,,,,,,,,,,,,,,,,,,,,,,,,,,,,,,r,2.512000084,GOR,TRUE,,,,,,,144,gorra,Catalan,Sounds/cat_gorra.mp3,2020-06-17_10h52.06.664,TranslationElicitation_spa,3.2.4,Win32,60,5ee3dfc37e2f6d0b805831bc,,1,0,80,39,1,79
,,,,,,,,,,,,,,,,,,,,,,,,,,,,,,,,,,,r,2.663000107,GORR,TRUE,,,,,,,144,gorra,Catalan,Sounds/cat_gorra.mp3,2020-06-17_10h52.06.664,TranslationElicitation_spa,3.2.4,Win32,60,5ee3dfc37e2f6d0b805831bc,,1,0,80,39,1,79
,,,,,,,,,,,,,,,,,,,,,,,,,,,,,,,,,,,a,2.812999964,GORRA,TRUE,,,,,,,144,gorra,Catalan,Sounds/cat_gorra.mp3,2020-06-17_10h52.06.664,TranslationElicitation_spa,3.2.4,Win32,60,5ee3dfc37e2f6d0b805831bc,,1,0,80,39,1,79
,,,,,,,,,,,,,,,,,,,,,,,,,,,,,,,,,,,return,2.996000051,,TRUE,,,,,,,144,gorra,Catalan,Sounds/cat_gorra.mp3,2020-06-17_10h52.06.664,TranslationElicitation_spa,3.2.4,Win32,60,5ee3dfc37e2f6d0b805831bc,2.996000051,1,0,80,39,1,79
,,,,,,,,,,,,,,,,,,,,,,,,,,,,,,,,,,,,,,,,,,,,,144,gorra,Catalan,Sounds/cat_gorra.mp3,2020-06-17_10h52.06.664,TranslationElicitation_spa,3.2.4,Win32,60,5ee3dfc37e2f6d0b805831bc,,1,0,80,39,1,79
,,,,,,,,,,,,,,,,,,,,,,,,,,,,,,,,,,,o,1.29700017,O,FALSE,,,,,,,161,ovella,Catalan,Sounds/cat_ovella.mp3,2020-06-17_10h52.06.664,TranslationElicitation_spa,3.2.4,Win32,60,5ee3dfc37e2f6d0b805831bc,,1,0,80,54,1,79
,,,,,,,,,,,,,,,,,,,,,,,,,,,,,,,,,,,b,1.54700017,OB,FALSE,,,,,,,161,ovella,Catalan,Sounds/cat_ovella.mp3,2020-06-17_10h52.06.664,TranslationElicitation_spa,3.2.4,Win32,60,5ee3dfc37e2f6d0b805831bc,,1,0,80,54,1,79
,,,,,,,,,,,,,,,,,,,,,,,,,,,,,,,,,,,backspace,1.800000191,,TRUE,,,,,,,161,ovella,Catalan,Sounds/cat_ovella.mp3,2020-06-17_10h52.06.664,TranslationElicitation_spa,3.2.4,Win32,60,5ee3dfc37e2f6d0b805831bc,,1,0,80,54,1,79
,,,,,,,,,,,,,,,,,,,,,,,,,,,,,,,,,,,v,1.898000002,V,TRUE,,,,,,,161,ovella,Catalan,Sounds/cat_ovella.mp3,2020-06-17_10h52.06.664,TranslationElicitation_spa,3.2.4,Win32,60,5ee3dfc37e2f6d0b805831bc,,1,0,80,54,1,79
,,,,,,,,,,,,,,,,,,,,,,,,,,,,,,,,,,,j,2.097000122,VJ,TRUE,,,,,,,161,ovella,Catalan,Sounds/cat_ovella.mp3,2020-06-17_10h52.06.664,TranslationElicitation_spa,3.2.4,Win32,60,5ee3dfc37e2f6d0b805831bc,,1,0,80,54,1,79
,,,,,,,,,,,,,,,,,,,,,,,,,,,,,,,,,,,e,2.197000027,VJE,TRUE,,,,,,,161,ovella,Catalan,Sounds/cat_ovella.mp3,2020-06-17_10h52.06.664,TranslationElicitation_spa,3.2.4,Win32,60,5ee3dfc37e2f6d0b805831bc,,1,0,80,54,1,79
,,,,,,,,,,,,,,,,,,,,,,,,,,,,,,,,,,,backspace,2.430999994,V,TRUE,,,,,,,161,ovella,Catalan,Sounds/cat_ovella.mp3,2020-06-17_10h52.06.664,TranslationElicitation_spa,3.2.4,Win32,60,5ee3dfc37e2f6d0b805831bc,,1,0,80,54,1,79
,,,,,,,,,,,,,,,,,,,,,,,,,,,,,,,,,,,backspace,2.56400013,,TRUE,,,,,,,161,ovella,Catalan,Sounds/cat_ovella.mp3,2020-06-17_10h52.06.664,TranslationElicitation_spa,3.2.4,Win32,60,5ee3dfc37e2f6d0b805831bc,,1,0,80,54,1,79
,,,,,,,,,,,,,,,,,,,,,,,,,,,,,,,,,,,o,3.080000162,O,TRUE,,,,,,,161,ovella,Catalan,Sounds/cat_ovella.mp3,2020-06-17_10h52.06.664,TranslationElicitation_spa,3.2.4,Win32,60,5ee3dfc37e2f6d0b805831bc,,1,0,80,54,1,79
,,,,,,,,,,,,,,,,,,,,,,,,,,,,,,,,,,,v,3.29700017,OV,TRUE,,,,,,,161,ovella,Catalan,Sounds/cat_ovella.mp3,2020-06-17_10h52.06.664,TranslationElicitation_spa,3.2.4,Win32,60,5ee3dfc37e2f6d0b805831bc,,1,0,80,54,1,79
,,,,,,,,,,,,,,,,,,,,,,,,,,,,,,,,,,,e,3.496999979,OVE,TRUE,,,,,,,161,ovella,Catalan,Sounds/cat_ovella.mp3,2020-06-17_10h52.06.664,TranslationElicitation_spa,3.2.4,Win32,60,5ee3dfc37e2f6d0b805831bc,,1,0,80,54,1,79
,,,,,,,,,,,,,,,,,,,,,,,,,,,,,,,,,,,j,3.580000162,OVEJ,TRUE,,,,,,,161,ovella,Catalan,Sounds/cat_ovella.mp3,2020-06-17_10h52.06.664,TranslationElicitation_spa,3.2.4,Win32,60,5ee3dfc37e2f6d0b805831bc,,1,0,80,54,1,79
,,,,,,,,,,,,,,,,,,,,,,,,,,,,,,,,,,,a,3.730000019,OVEJA,TRUE,,,,,,,161,ovella,Catalan,Sounds/cat_ovella.mp3,2020-06-17_10h52.06.664,TranslationElicitation_spa,3.2.4,Win32,60,5ee3dfc37e2f6d0b805831bc,,1,0,80,54,1,79
,,,,,,,,,,,,,,,,,,,,,,,,,,,,,,,,,,,return,4.114000082,,TRUE,,,,,,,161,ovella,Catalan,Sounds/cat_ovella.mp3,2020-06-17_10h52.06.664,TranslationElicitation_spa,3.2.4,Win32,60,5ee3dfc37e2f6d0b805831bc,4.114000082,1,0,80,54,1,79
,,,,,,,,,,,,,,,,,,,,,,,,,,,,,,,,,,,,,,,,,,,,,161,ovella,Catalan,Sounds/cat_ovella.mp3,2020-06-17_10h52.06.664,TranslationElicitation_spa,3.2.4,Win32,60,5ee3dfc37e2f6d0b805831bc,,1,0,80,54,1,79
,,,,,,,,,,,,,,,,,,,,,,,,,,,,,,,,,,,s,1.545000076,S,FALSE,,,,,,,177,sol,Catalan,Sounds/cat_sol.mp3,2020-06-17_10h52.06.664,TranslationElicitation_spa,3.2.4,Win32,60,5ee3dfc37e2f6d0b805831bc,,1,0,80,69,1,79
,,,,,,,,,,,,,,,,,,,,,,,,,,,,,,,,,,,o,1.644999981,SO,FALSE,,,,,,,177,sol,Catalan,Sounds/cat_sol.mp3,2020-06-17_10h52.06.664,TranslationElicitation_spa,3.2.4,Win32,60,5ee3dfc37e2f6d0b805831bc,,1,0,80,69,1,79
,,,,,,,,,,,,,,,,,,,,,,,,,,,,,,,,,,,l,1.828999996,SOL,FALSE,,,,,,,177,sol,Catalan,Sounds/cat_sol.mp3,2020-06-17_10h52.06.664,TranslationElicitation_spa,3.2.4,Win32,60,5ee3dfc37e2f6d0b805831bc,,1,0,80,69,1,79
,,,,,,,,,,,,,,,,,,,,,,,,,,,,,,,,,,,return,2.111999989,,FALSE,,,,,,,177,sol,Catalan,Sounds/cat_sol.mp3,2020-06-17_10h52.06.664,TranslationElicitation_spa,3.2.4,Win32,60,5ee3dfc37e2f6d0b805831bc,2.111999989,1,0,80,69,1,79
,,,,,,,,,,,,,,,,,,,,,,,,,,,,,,,,,,,,,,,,,,,,,177,sol,Catalan,Sounds/cat_sol.mp3,2020-06-17_10h52.06.664,TranslationElicitation_spa,3.2.4,Win32,60,5ee3dfc37e2f6d0b805831bc,,1,0,80,69,1,79
,,,,,,,,,,,,,,,,,,,,,,,,,,,,,,,,,,,p,1.730000019,P,FALSE,,,,,,,170,ploma,Catalan,Sounds/cat_ploma.mp3,2020-06-17_10h52.06.664,TranslationElicitation_spa,3.2.4,Win32,60,5ee3dfc37e2f6d0b805831bc,,1,0,80,62,1,79
,,,,,,,,,,,,,,,,,,,,,,,,,,,,,,,,,,,l,1.947999954,PL,FALSE,,,,,,,170,ploma,Catalan,Sounds/cat_ploma.mp3,2020-06-17_10h52.06.664,TranslationElicitation_spa,3.2.4,Win32,60,5ee3dfc37e2f6d0b805831bc,,1,0,80,62,1,79
,,,,,,,,,,,,,,,,,,,,,,,,,,,,,,,,,,,u,2.213000059,PLU,FALSE,,,,,,,170,ploma,Catalan,Sounds/cat_ploma.mp3,2020-06-17_10h52.06.664,TranslationElicitation_spa,3.2.4,Win32,60,5ee3dfc37e2f6d0b805831bc,,1,0,80,62,1,79
,,,,,,,,,,,,,,,,,,,,,,,,,,,,,,,,,,,m,2.362999916,PLUM,FALSE,,,,,,,170,ploma,Catalan,Sounds/cat_ploma.mp3,2020-06-17_10h52.06.664,TranslationElicitation_spa,3.2.4,Win32,60,5ee3dfc37e2f6d0b805831bc,,1,0,80,62,1,79
,,,,,,,,,,,,,,,,,,,,,,,,,,,,,,,,,,,a,2.480000019,PLUMA,FALSE,,,,,,,170,ploma,Catalan,Sounds/cat_ploma.mp3,2020-06-17_10h52.06.664,TranslationElicitation_spa,3.2.4,Win32,60,5ee3dfc37e2f6d0b805831bc,,1,0,80,62,1,79
,,,,,,,,,,,,,,,,,,,,,,,,,,,,,,,,,,,return,2.662999868,,FALSE,,,,,,,170,ploma,Catalan,Sounds/cat_ploma.mp3,2020-06-17_10h52.06.664,TranslationElicitation_spa,3.2.4,Win32,60,5ee3dfc37e2f6d0b805831bc,2.662999868,1,0,80,62,1,79
,,,,,,,,,,,,,,,,,,,,,,,,,,,,,,,,,,,,,,,,,,,,,170,ploma,Catalan,Sounds/cat_ploma.mp3,2020-06-17_10h52.06.664,TranslationElicitation_spa,3.2.4,Win32,60,5ee3dfc37e2f6d0b805831bc,,1,0,80,62,1,79
,,,,,,,,,,,,,,,,,,,,,,,,,,,,,,,,,,,b,2.631000042,B,FALSE,,,,,,,137,fulla,Catalan,Sounds/cat_fulla.mp3,2020-06-17_10h52.06.664,TranslationElicitation_spa,3.2.4,Win32,60,5ee3dfc37e2f6d0b805831bc,,1,0,80,32,1,79
,,,,,,,,,,,,,,,,,,,,,,,,,,,,,,,,,,,o,2.764999866,BO,FALSE,,,,,,,137,fulla,Catalan,Sounds/cat_fulla.mp3,2020-06-17_10h52.06.664,TranslationElicitation_spa,3.2.4,Win32,60,5ee3dfc37e2f6d0b805831bc,,1,0,80,32,1,79
,,,,,,,,,,,,,,,,,,,,,,,,,,,,,,,,,,,l,2.940000057,BOL,FALSE,,,,,,,137,fulla,Catalan,Sounds/cat_fulla.mp3,2020-06-17_10h52.06.664,TranslationElicitation_spa,3.2.4,Win32,60,5ee3dfc37e2f6d0b805831bc,,1,0,80,32,1,79
,,,,,,,,,,,,,,,,,,,,,,,,,,,,,,,,,,,s,3.11500001,BOLS,FALSE,,,,,,,137,fulla,Catalan,Sounds/cat_fulla.mp3,2020-06-17_10h52.06.664,TranslationElicitation_spa,3.2.4,Win32,60,5ee3dfc37e2f6d0b805831bc,,1,0,80,32,1,79
,,,,,,,,,,,,,,,,,,,,,,,,,,,,,,,,,,,a,3.231999874,BOLSA,FALSE,,,,,,,137,fulla,Catalan,Sounds/cat_fulla.mp3,2020-06-17_10h52.06.664,TranslationElicitation_spa,3.2.4,Win32,60,5ee3dfc37e2f6d0b805831bc,,1,0,80,32,1,79
,,,,,,,,,,,,,,,,,,,,,,,,,,,,,,,,,,,return,3.582000017,,FALSE,,,,,,,137,fulla,Catalan,Sounds/cat_fulla.mp3,2020-06-17_10h52.06.664,TranslationElicitation_spa,3.2.4,Win32,60,5ee3dfc37e2f6d0b805831bc,3.582000017,1,0,80,32,1,79
,,,,,,,,,,,,,,,,,,,,,,,,,,,,,,,,,,,,,,,,,,,,,137,fulla,Catalan,Sounds/cat_fulla.mp3,2020-06-17_10h52.06.664,TranslationElicitation_spa,3.2.4,Win32,60,5ee3dfc37e2f6d0b805831bc,,1,0,80,32,1,79
,,,,,,,,,,,,,,,,,,,,,,,,,,,,,,,,,,,p,0.84800005,P,FALSE,,,,,,,164,patata,Catalan,Sounds/cat_patata.mp3,2020-06-17_10h52.06.664,TranslationElicitation_spa,3.2.4,Win32,60,5ee3dfc37e2f6d0b805831bc,,1,0,80,57,1,79
,,,,,,,,,,,,,,,,,,,,,,,,,,,,,,,,,,,a,1.230999947,PA,FALSE,,,,,,,164,patata,Catalan,Sounds/cat_patata.mp3,2020-06-17_10h52.06.664,TranslationElicitation_spa,3.2.4,Win32,60,5ee3dfc37e2f6d0b805831bc,,1,0,80,57,1,79
,,,,,,,,,,,,,,,,,,,,,,,,,,,,,,,,,,,r,1.430999994,PAR,FALSE,,,,,,,164,patata,Catalan,Sounds/cat_patata.mp3,2020-06-17_10h52.06.664,TranslationElicitation_spa,3.2.4,Win32,60,5ee3dfc37e2f6d0b805831bc,,1,0,80,57,1,79
,,,,,,,,,,,,,,,,,,,,,,,,,,,,,,,,,,,backspace,1.881000042,P,TRUE,,,,,,,164,patata,Catalan,Sounds/cat_patata.mp3,2020-06-17_10h52.06.664,TranslationElicitation_spa,3.2.4,Win32,60,5ee3dfc37e2f6d0b805831bc,,1,0,80,57,1,79
,,,,,,,,,,,,,,,,,,,,,,,,,,,,,,,,,,,t,1.963999987,PT,TRUE,,,,,,,164,patata,Catalan,Sounds/cat_patata.mp3,2020-06-17_10h52.06.664,TranslationElicitation_spa,3.2.4,Win32,60,5ee3dfc37e2f6d0b805831bc,,1,0,80,57,1,79
,,,,,,,,,,,,,,,,,,,,,,,,,,,,,,,,,,,a,2.180999994,PTA,TRUE,,,,,,,164,patata,Catalan,Sounds/cat_patata.mp3,2020-06-17_10h52.06.664,TranslationElicitation_spa,3.2.4,Win32,60,5ee3dfc37e2f6d0b805831bc,,1,0,80,57,1,79
,,,,,,,,,,,,,,,,,,,,,,,,,,,,,,,,,,,t,2.397000074,PTAT,TRUE,,,,,,,164,patata,Catalan,Sounds/cat_patata.mp3,2020-06-17_10h52.06.664,TranslationElicitation_spa,3.2.4,Win32,60,5ee3dfc37e2f6d0b805831bc,,1,0,80,57,1,79
,,,,,,,,,,,,,,,,,,,,,,,,,,,,,,,,,,,backspace,2.612999916,PT,TRUE,,,,,,,164,patata,Catalan,Sounds/cat_patata.mp3,2020-06-17_10h52.06.664,TranslationElicitation_spa,3.2.4,Win32,60,5ee3dfc37e2f6d0b805831bc,,1,0,80,57,1,79
,,,,,,,,,,,,,,,,,,,,,,,,,,,,,,,,,,,backspace,2.765000105,,TRUE,,,,,,,164,patata,Catalan,Sounds/cat_patata.mp3,2020-06-17_10h52.06.664,TranslationElicitation_spa,3.2.4,Win32,60,5ee3dfc37e2f6d0b805831bc,,1,0,80,57,1,79
,,,,,,,,,,,,,,,,,,,,,,,,,,,,,,,,,,,p,3.563999891,P,TRUE,,,,,,,164,patata,Catalan,Sounds/cat_patata.mp3,2020-06-17_10h52.06.664,TranslationElicitation_spa,3.2.4,Win32,60,5ee3dfc37e2f6d0b805831bc,,1,0,80,57,1,79
,,,,,,,,,,,,,,,,,,,,,,,,,,,,,,,,,,,a,3.664000034,PA,TRUE,,,,,,,164,patata,Catalan,Sounds/cat_patata.mp3,2020-06-17_10h52.06.664,TranslationElicitation_spa,3.2.4,Win32,60,5ee3dfc37e2f6d0b805831bc,,1,0,80,57,1,79
,,,,,,,,,,,,,,,,,,,,,,,,,,,,,,,,,,,t,3.880000114,PAT,TRUE,,,,,,,164,patata,Catalan,Sounds/cat_patata.mp3,2020-06-17_10h52.06.664,TranslationElicitation_spa,3.2.4,Win32,60,5ee3dfc37e2f6d0b805831bc,,1,0,80,57,1,79
,,,,,,,,,,,,,,,,,,,,,,,,,,,,,,,,,,,a,4.097000122,PATA,TRUE,,,,,,,164,patata,Catalan,Sounds/cat_patata.mp3,2020-06-17_10h52.06.664,TranslationElicitation_spa,3.2.4,Win32,60,5ee3dfc37e2f6d0b805831bc,,1,0,80,57,1,79
,,,,,,,,,,,,,,,,,,,,,,,,,,,,,,,,,,,t,4.556999922,PATAT,TRUE,,,,,,,164,patata,Catalan,Sounds/cat_patata.mp3,2020-06-17_10h52.06.664,TranslationElicitation_spa,3.2.4,Win32,60,5ee3dfc37e2f6d0b805831bc,,1,0,80,57,1,79
,,,,,,,,,,,,,,,,,,,,,,,,,,,,,,,,,,,a,4.779999971,PATATA,TRUE,,,,,,,164,patata,Catalan,Sounds/cat_patata.mp3,2020-06-17_10h52.06.664,TranslationElicitation_spa,3.2.4,Win32,60,5ee3dfc37e2f6d0b805831bc,,1,0,80,57,1,79
,,,,,,,,,,,,,,,,,,,,,,,,,,,,,,,,,,,return,4.980000019,,TRUE,,,,,,,164,patata,Catalan,Sounds/cat_patata.mp3,2020-06-17_10h52.06.664,TranslationElicitation_spa,3.2.4,Win32,60,5ee3dfc37e2f6d0b805831bc,4.980000019,1,0,80,57,1,79
,,,,,,,,,,,,,,,,,,,,,,,,,,,,,,,,,,,,,,,,,,,,,164,patata,Catalan,Sounds/cat_patata.mp3,2020-06-17_10h52.06.664,TranslationElicitation_spa,3.2.4,Win32,60,5ee3dfc37e2f6d0b805831bc,,1,0,80,57,1,79
,,,,,,,,,,,,,,,,,,,,,,,,,,,,,,,,,,,m,1.429000139,M,FALSE,,,,,,,152,ma,Catalan,Sounds/cat_ma.mp3,2020-06-17_10h52.06.664,TranslationElicitation_spa,3.2.4,Win32,60,5ee3dfc37e2f6d0b805831bc,,1,0,80,46,1,79
,,,,,,,,,,,,,,,,,,,,,,,,,,,,,,,,,,,a,1.529000044,MA,FALSE,,,,,,,152,ma,Catalan,Sounds/cat_ma.mp3,2020-06-17_10h52.06.664,TranslationElicitation_spa,3.2.4,Win32,60,5ee3dfc37e2f6d0b805831bc,,1,0,80,46,1,79
,,,,,,,,,,,,,,,,,,,,,,,,,,,,,,,,,,,r,1.713999987,MAR,FALSE,,,,,,,152,ma,Catalan,Sounds/cat_ma.mp3,2020-06-17_10h52.06.664,TranslationElicitation_spa,3.2.4,Win32,60,5ee3dfc37e2f6d0b805831bc,,1,0,80,46,1,79
,,,,,,,,,,,,,,,,,,,,,,,,,,,,,,,,,,,return,2.012000084,,FALSE,,,,,,,152,ma,Catalan,Sounds/cat_ma.mp3,2020-06-17_10h52.06.664,TranslationElicitation_spa,3.2.4,Win32,60,5ee3dfc37e2f6d0b805831bc,2.012000084,1,0,80,46,1,79
,,,,,,,,,,,,,,,,,,,,,,,,,,,,,,,,,,,,,,,,,,,,,152,ma,Catalan,Sounds/cat_ma.mp3,2020-06-17_10h52.06.664,TranslationElicitation_spa,3.2.4,Win32,60,5ee3dfc37e2f6d0b805831bc,,1,0,80,46,1,79
,,,,,,,,,,,,,,,,,,,,,,,,,,,,,,,,,,,t,4.362999916,T,FALSE,,,,,,,180,tisores,Catalan,Sounds/cat_tisores.mp3,2020-06-17_10h52.06.664,TranslationElicitation_spa,3.2.4,Win32,60,5ee3dfc37e2f6d0b805831bc,,1,0,80,71,1,79
,,,,,,,,,,,,,,,,,,,,,,,,,,,,,,,,,,,o,4.495999813,TO,FALSE,,,,,,,180,tisores,Catalan,Sounds/cat_tisores.mp3,2020-06-17_10h52.06.664,TranslationElicitation_spa,3.2.4,Win32,60,5ee3dfc37e2f6d0b805831bc,,1,0,80,71,1,79
,,,,,,,,,,,,,,,,,,,,,,,,,,,,,,,,,,,a,4.628999949,TOA,FALSE,,,,,,,180,tisores,Catalan,Sounds/cat_tisores.mp3,2020-06-17_10h52.06.664,TranslationElicitation_spa,3.2.4,Win32,60,5ee3dfc37e2f6d0b805831bc,,1,0,80,71,1,79
,,,,,,,,,,,,,,,,,,,,,,,,,,,,,,,,,,,t,4.828999996,TOAT,FALSE,,,,,,,180,tisores,Catalan,Sounds/cat_tisores.mp3,2020-06-17_10h52.06.664,TranslationElicitation_spa,3.2.4,Win32,60,5ee3dfc37e2f6d0b805831bc,,1,0,80,71,1,79
,,,,,,,,,,,,,,,,,,,,,,,,,,,,,,,,,,,backspace,5.128999949,TO,TRUE,,,,,,,180,tisores,Catalan,Sounds/cat_tisores.mp3,2020-06-17_10h52.06.664,TranslationElicitation_spa,3.2.4,Win32,60,5ee3dfc37e2f6d0b805831bc,,1,0,80,71,1,79
,,,,,,,,,,,,,,,,,,,,,,,,,,,,,,,,,,,l,5.494999886,TOL,TRUE,,,,,,,180,tisores,Catalan,Sounds/cat_tisores.mp3,2020-06-17_10h52.06.664,TranslationElicitation_spa,3.2.4,Win32,60,5ee3dfc37e2f6d0b805831bc,,1,0,80,71,1,79
,,,,,,,,,,,,,,,,,,,,,,,,,,,,,,,,,,,backspace,6.062000036,T,TRUE,,,,,,,180,tisores,Catalan,Sounds/cat_tisores.mp3,2020-06-17_10h52.06.664,TranslationElicitation_spa,3.2.4,Win32,60,5ee3dfc37e2f6d0b805831bc,,1,0,80,71,1,79
,,,,,,,,,,,,,,,,,,,,,,,,,,,,,,,,,,,a,6.261999846,TA,TRUE,,,,,,,180,tisores,Catalan,Sounds/cat_tisores.mp3,2020-06-17_10h52.06.664,TranslationElicitation_spa,3.2.4,Win32,60,5ee3dfc37e2f6d0b805831bc,,1,0,80,71,1,79
,,,,,,,,,,,,,,,,,,,,,,,,,,,,,,,,,,,backspace,6.894999981,,TRUE,,,,,,,180,tisores,Catalan,Sounds/cat_tisores.mp3,2020-06-17_10h52.06.664,TranslationElicitation_spa,3.2.4,Win32,60,5ee3dfc37e2f6d0b805831bc,,1,0,80,71,1,79
,,,,,,,,,,,,,,,,,,,,,,,,,,,,,,,,,,,t,7.578999996,T,TRUE,,,,,,,180,tisores,Catalan,Sounds/cat_tisores.mp3,2020-06-17_10h52.06.664,TranslationElicitation_spa,3.2.4,Win32,60,5ee3dfc37e2f6d0b805831bc,,1,0,80,71,1,79
,,,,,,,,,,,,,,,,,,,,,,,,,,,,,,,,,,,o,7.761999846,TO,TRUE,,,,,,,180,tisores,Catalan,Sounds/cat_tisores.mp3,2020-06-17_10h52.06.664,TranslationElicitation_spa,3.2.4,Win32,60,5ee3dfc37e2f6d0b805831bc,,1,0,80,71,1,79
,,,,,,,,,,,,,,,,,,,,,,,,,,,,,,,,,,,a,7.911999941,TOA,TRUE,,,,,,,180,tisores,Catalan,Sounds/cat_tisores.mp3,2020-06-17_10h52.06.664,TranslationElicitation_spa,3.2.4,Win32,60,5ee3dfc37e2f6d0b805831bc,,1,0,80,71,1,79
,,,,,,,,,,,,,,,,,,,,,,,,,,,,,,,,,,,l,8.044999838,TOAL,TRUE,,,,,,,180,tisores,Catalan,Sounds/cat_tisores.mp3,2020-06-17_10h52.06.664,TranslationElicitation_spa,3.2.4,Win32,60,5ee3dfc37e2f6d0b805831bc,,1,0,80,71,1,79
,,,,,,,,,,,,,,,,,,,,,,,,,,,,,,,,,,,l,8.177999973,TOALL,TRUE,,,,,,,180,tisores,Catalan,Sounds/cat_tisores.mp3,2020-06-17_10h52.06.664,TranslationElicitation_spa,3.2.4,Win32,60,5ee3dfc37e2f6d0b805831bc,,1,0,80,71,1,79
,,,,,,,,,,,,,,,,,,,,,,,,,,,,,,,,,,,i,8.378000021,TOALLI,TRUE,,,,,,,180,tisores,Catalan,Sounds/cat_tisores.mp3,2020-06-17_10h52.06.664,TranslationElicitation_spa,3.2.4,Win32,60,5ee3dfc37e2f6d0b805831bc,,1,0,80,71,1,79
,,,,,,,,,,,,,,,,,,,,,,,,,,,,,,,,,,,t,8.494999886,TOALLIT,TRUE,,,,,,,180,tisores,Catalan,Sounds/cat_tisores.mp3,2020-06-17_10h52.06.664,TranslationElicitation_spa,3.2.4,Win32,60,5ee3dfc37e2f6d0b805831bc,,1,0,80,71,1,79
,,,,,,,,,,,,,,,,,,,,,,,,,,,,,,,,,,,a,8.727999926,TOALLITA,TRUE,,,,,,,180,tisores,Catalan,Sounds/cat_tisores.mp3,2020-06-17_10h52.06.664,TranslationElicitation_spa,3.2.4,Win32,60,5ee3dfc37e2f6d0b805831bc,,1,0,80,71,1,79
,,,,,,,,,,,,,,,,,,,,,,,,,,,,,,,,,,,return,9.161999941,,TRUE,,,,,,,180,tisores,Catalan,Sounds/cat_tisores.mp3,2020-06-17_10h52.06.664,TranslationElicitation_spa,3.2.4,Win32,60,5ee3dfc37e2f6d0b805831bc,9.161999941,1,0,80,71,1,79
,,,,,,,,,,,,,,,,,,,,,,,,,,,,,,,,,,,,,,,,,,,,,180,tisores,Catalan,Sounds/cat_tisores.mp3,2020-06-17_10h52.06.664,TranslationElicitation_spa,3.2.4,Win32,60,5ee3dfc37e2f6d0b805831bc,,1,0,80,71,1,79
,,,,,,,,,,,,,,,,,,,,,,,,,,,,,,,,,,,a,1.378000021,A,FALSE,,,,,,,105,aigua,Catalan,Sounds/cat_aigua.mp3,2020-06-17_10h52.06.664,TranslationElicitation_spa,3.2.4,Win32,60,5ee3dfc37e2f6d0b805831bc,,1,0,80,1,1,79
,,,,,,,,,,,,,,,,,,,,,,,,,,,,,,,,,,,g,1.562000036,AG,FALSE,,,,,,,105,aigua,Catalan,Sounds/cat_aigua.mp3,2020-06-17_10h52.06.664,TranslationElicitation_spa,3.2.4,Win32,60,5ee3dfc37e2f6d0b805831bc,,1,0,80,1,1,79
,,,,,,,,,,,,,,,,,,,,,,,,,,,,,,,,,,,u,1.678999901,AGU,FALSE,,,,,,,105,aigua,Catalan,Sounds/cat_aigua.mp3,2020-06-17_10h52.06.664,TranslationElicitation_spa,3.2.4,Win32,60,5ee3dfc37e2f6d0b805831bc,,1,0,80,1,1,79
,,,,,,,,,,,,,,,,,,,,,,,,,,,,,,,,,,,a,1.795000076,AGUA,FALSE,,,,,,,105,aigua,Catalan,Sounds/cat_aigua.mp3,2020-06-17_10h52.06.664,TranslationElicitation_spa,3.2.4,Win32,60,5ee3dfc37e2f6d0b805831bc,,1,0,80,1,1,79
,,,,,,,,,,,,,,,,,,,,,,,,,,,,,,,,,,,return,2.029000044,,FALSE,,,,,,,105,aigua,Catalan,Sounds/cat_aigua.mp3,2020-06-17_10h52.06.664,TranslationElicitation_spa,3.2.4,Win32,60,5ee3dfc37e2f6d0b805831bc,2.029000044,1,0,80,1,1,79
,,,,,,,,,,,,,,,,,,,,,,,,,,,,,,,,,,,,,,,,,,,,,105,aigua,Catalan,Sounds/cat_aigua.mp3,2020-06-17_10h52.06.664,TranslationElicitation_spa,3.2.4,Win32,60,5ee3dfc37e2f6d0b805831bc,,1,0,80,1,1,79
,,,,,,,,,,,,,,,,,,,,,,,,,,,,,,,,,,,l,2.298000097,L,FALSE,,,,,,,148,lleo,Catalan,Sounds/cat_lleo.mp3,2020-06-17_10h52.06.664,TranslationElicitation_spa,3.2.4,Win32,60,5ee3dfc37e2f6d0b805831bc,,1,0,80,42,1,79
,,,,,,,,,,,,,,,,,,,,,,,,,,,,,,,,,,,l,2.430999994,LL,FALSE,,,,,,,148,lleo,Catalan,Sounds/cat_lleo.mp3,2020-06-17_10h52.06.664,TranslationElicitation_spa,3.2.4,Win32,60,5ee3dfc37e2f6d0b805831bc,,1,0,80,42,1,79
,,,,,,,,,,,,,,,,,,,,,,,,,,,,,,,,,,,a,2.497999907,LLA,FALSE,,,,,,,148,lleo,Catalan,Sounds/cat_lleo.mp3,2020-06-17_10h52.06.664,TranslationElicitation_spa,3.2.4,Win32,60,5ee3dfc37e2f6d0b805831bc,,1,0,80,42,1,79
,,,,,,,,,,,,,,,,,,,,,,,,,,,,,,,,,,,v,2.681999922,LLAV,FALSE,,,,,,,148,lleo,Catalan,Sounds/cat_lleo.mp3,2020-06-17_10h52.06.664,TranslationElicitation_spa,3.2.4,Win32,60,5ee3dfc37e2f6d0b805831bc,,1,0,80,42,1,79
,,,,,,,,,,,,,,,,,,,,,,,,,,,,,,,,,,,e,2.815000057,LLAVE,FALSE,,,,,,,148,lleo,Catalan,Sounds/cat_lleo.mp3,2020-06-17_10h52.06.664,TranslationElicitation_spa,3.2.4,Win32,60,5ee3dfc37e2f6d0b805831bc,,1,0,80,42,1,79
,,,,,,,,,,,,,,,,,,,,,,,,,,,,,,,,,,,return,3.032000065,,FALSE,,,,,,,148,lleo,Catalan,Sounds/cat_lleo.mp3,2020-06-17_10h52.06.664,TranslationElicitation_spa,3.2.4,Win32,60,5ee3dfc37e2f6d0b805831bc,3.030999899,1,0,80,42,1,79
,,,,,,,,,,,,,,,,,,,,,,,,,,,,,,,,,,,,,,,,,,,,,148,lleo,Catalan,Sounds/cat_lleo.mp3,2020-06-17_10h52.06.664,TranslationElicitation_spa,3.2.4,Win32,60,5ee3dfc37e2f6d0b805831bc,,1,0,80,42,1,79
,,,,,,,,,,,,,,,,,,,,,,,,,,,,,,,,,,,e,1.247999907,E,FALSE,,,,,,,131,esponja,Catalan,Sounds/cat_esponja.mp3,2020-06-17_10h52.06.664,TranslationElicitation_spa,3.2.4,Win32,60,5ee3dfc37e2f6d0b805831bc,,1,0,80,26,1,79
,,,,,,,,,,,,,,,,,,,,,,,,,,,,,,,,,,,s,1.680000067,ES,FALSE,,,,,,,131,esponja,Catalan,Sounds/cat_esponja.mp3,2020-06-17_10h52.06.664,TranslationElicitation_spa,3.2.4,Win32,60,5ee3dfc37e2f6d0b805831bc,,1,0,80,26,1,79
,,,,,,,,,,,,,,,,,,,,,,,,,,,,,,,,,,,p,1.84800005,ESP,FALSE,,,,,,,131,esponja,Catalan,Sounds/cat_esponja.mp3,2020-06-17_10h52.06.664,TranslationElicitation_spa,3.2.4,Win32,60,5ee3dfc37e2f6d0b805831bc,,1,0,80,26,1,79
,,,,,,,,,,,,,,,,,,,,,,,,,,,,,,,,,,,o,2.08100009,ESPO,FALSE,,,,,,,131,esponja,Catalan,Sounds/cat_esponja.mp3,2020-06-17_10h52.06.664,TranslationElicitation_spa,3.2.4,Win32,60,5ee3dfc37e2f6d0b805831bc,,1,0,80,26,1,79
,,,,,,,,,,,,,,,,,,,,,,,,,,,,,,,,,,,n,2.280999899,ESPON,FALSE,,,,,,,131,esponja,Catalan,Sounds/cat_esponja.mp3,2020-06-17_10h52.06.664,TranslationElicitation_spa,3.2.4,Win32,60,5ee3dfc37e2f6d0b805831bc,,1,0,80,26,1,79
,,,,,,,,,,,,,,,,,,,,,,,,,,,,,,,,,,,j,2.614000082,ESPONJ,FALSE,,,,,,,131,esponja,Catalan,Sounds/cat_esponja.mp3,2020-06-17_10h52.06.664,TranslationElicitation_spa,3.2.4,Win32,60,5ee3dfc37e2f6d0b805831bc,,1,0,80,26,1,79
,,,,,,,,,,,,,,,,,,,,,,,,,,,,,,,,,,,a,2.813999891,ESPONJA,FALSE,,,,,,,131,esponja,Catalan,Sounds/cat_esponja.mp3,2020-06-17_10h52.06.664,TranslationElicitation_spa,3.2.4,Win32,60,5ee3dfc37e2f6d0b805831bc,,1,0,80,26,1,79
,,,,,,,,,,,,,,,,,,,,,,,,,,,,,,,,,,,return,3.063999891,,FALSE,,,,,,,131,esponja,Catalan,Sounds/cat_esponja.mp3,2020-06-17_10h52.06.664,TranslationElicitation_spa,3.2.4,Win32,60,5ee3dfc37e2f6d0b805831bc,3.063999891,1,0,80,26,1,79
,,,,,,,,,,,,,,,,,,,,,,,,,,,,,,,,,,,,,,,,,,,,,131,esponja,Catalan,Sounds/cat_esponja.mp3,2020-06-17_10h52.06.664,TranslationElicitation_spa,3.2.4,Win32,60,5ee3dfc37e2f6d0b805831bc,,1,0,80,26,1,79
,,,,,,,,,,,,,,,,,,,,,,,,,,,,,,,,,,,m,1.378999949,M,FALSE,,,,,,,156,moto,Catalan,Sounds/cat_moto.mp3,2020-06-17_10h52.06.664,TranslationElicitation_spa,3.2.4,Win32,60,5ee3dfc37e2f6d0b805831bc,,1,0,80,50,1,79
,,,,,,,,,,,,,,,,,,,,,,,,,,,,,,,,,,,o,1.529000044,MO,FALSE,,,,,,,156,moto,Catalan,Sounds/cat_moto.mp3,2020-06-17_10h52.06.664,TranslationElicitation_spa,3.2.4,Win32,60,5ee3dfc37e2f6d0b805831bc,,1,0,80,50,1,79
,,,,,,,,,,,,,,,,,,,,,,,,,,,,,,,,,,,t,1.927999973,MOT,FALSE,,,,,,,156,moto,Catalan,Sounds/cat_moto.mp3,2020-06-17_10h52.06.664,TranslationElicitation_spa,3.2.4,Win32,60,5ee3dfc37e2f6d0b805831bc,,1,0,80,50,1,79
,,,,,,,,,,,,,,,,,,,,,,,,,,,,,,,,,,,o,2.046000004,MOTO,FALSE,,,,,,,156,moto,Catalan,Sounds/cat_moto.mp3,2020-06-17_10h52.06.664,TranslationElicitation_spa,3.2.4,Win32,60,5ee3dfc37e2f6d0b805831bc,,1,0,80,50,1,79
,,,,,,,,,,,,,,,,,,,,,,,,,,,,,,,,,,,return,2.261999846,,FALSE,,,,,,,156,moto,Catalan,Sounds/cat_moto.mp3,2020-06-17_10h52.06.664,TranslationElicitation_spa,3.2.4,Win32,60,5ee3dfc37e2f6d0b805831bc,2.261999846,1,0,80,50,1,79
,,,,,,,,,,,,,,,,,,,,,,,,,,,,,,,,,,,,,,,,,,,,,156,moto,Catalan,Sounds/cat_moto.mp3,2020-06-17_10h52.06.664,TranslationElicitation_spa,3.2.4,Win32,60,5ee3dfc37e2f6d0b805831bc,,1,0,80,50,1,79
,,,,,,,,,,,,,,,,,,,,,,,,,,,,,,,,,,,p,1.631999969,P,FALSE,,,,,,,171,pollastre,Catalan,Sounds/cat_pollastre.mp3,2020-06-17_10h52.06.664,TranslationElicitation_spa,3.2.4,Win32,60,5ee3dfc37e2f6d0b805831bc,,1,0,80,63,1,79
,,,,,,,,,,,,,,,,,,,,,,,,,,,,,,,,,,,a,1.730999947,PA,FALSE,,,,,,,171,pollastre,Catalan,Sounds/cat_pollastre.mp3,2020-06-17_10h52.06.664,TranslationElicitation_spa,3.2.4,Win32,60,5ee3dfc37e2f6d0b805831bc,,1,0,80,63,1,79
,,,,,,,,,,,,,,,,,,,,,,,,,,,,,,,,,,,l,1.86500001,PAL,FALSE,,,,,,,171,pollastre,Catalan,Sounds/cat_pollastre.mp3,2020-06-17_10h52.06.664,TranslationElicitation_spa,3.2.4,Win32,60,5ee3dfc37e2f6d0b805831bc,,1,0,80,63,1,79
,,,,,,,,,,,,,,,,,,,,,,,,,,,,,,,,,,,e,1.981999874,PALE,FALSE,,,,,,,171,pollastre,Catalan,Sounds/cat_pollastre.mp3,2020-06-17_10h52.06.664,TranslationElicitation_spa,3.2.4,Win32,60,5ee3dfc37e2f6d0b805831bc,,1,0,80,63,1,79
,,,,,,,,,,,,,,,,,,,,,,,,,,,,,,,,,,,s,2.164999962,PALES,FALSE,,,,,,,171,pollastre,Catalan,Sounds/cat_pollastre.mp3,2020-06-17_10h52.06.664,TranslationElicitation_spa,3.2.4,Win32,60,5ee3dfc37e2f6d0b805831bc,,1,0,80,63,1,79
,,,,,,,,,,,,,,,,,,,,,,,,,,,,,,,,,,,t,2.36500001,PALEST,FALSE,,,,,,,171,pollastre,Catalan,Sounds/cat_pollastre.mp3,2020-06-17_10h52.06.664,TranslationElicitation_spa,3.2.4,Win32,60,5ee3dfc37e2f6d0b805831bc,,1,0,80,63,1,79
,,,,,,,,,,,,,,,,,,,,,,,,,,,,,,,,,,,r,2.531999826,PALESTR,FALSE,,,,,,,171,pollastre,Catalan,Sounds/cat_pollastre.mp3,2020-06-17_10h52.06.664,TranslationElicitation_spa,3.2.4,Win32,60,5ee3dfc37e2f6d0b805831bc,,1,0,80,63,1,79
,,,,,,,,,,,,,,,,,,,,,,,,,,,,,,,,,,,a,2.680999994,PALESTRA,FALSE,,,,,,,171,pollastre,Catalan,Sounds/cat_pollastre.mp3,2020-06-17_10h52.06.664,TranslationElicitation_spa,3.2.4,Win32,60,5ee3dfc37e2f6d0b805831bc,,1,0,80,63,1,79
,,,,,,,,,,,,,,,,,,,,,,,,,,,,,,,,,,,return,2.86500001,,FALSE,,,,,,,171,pollastre,Catalan,Sounds/cat_pollastre.mp3,2020-06-17_10h52.06.664,TranslationElicitation_spa,3.2.4,Win32,60,5ee3dfc37e2f6d0b805831bc,2.86500001,1,0,80,63,1,79
,,,,,,,,,,,,,,,,,,,,,,,,,,,,,,,,,,,,,,,,,,,,,171,pollastre,Catalan,Sounds/cat_pollastre.mp3,2020-06-17_10h52.06.664,TranslationElicitation_spa,3.2.4,Win32,60,5ee3dfc37e2f6d0b805831bc,,1,0,80,63,1,79
,,,,,,,,,,,,,,,,,,,,,,,,,,,,,,,,,,,r,1.660000086,R,FALSE,,,,,,,175,raspall,Catalan,Sounds/cat_raspall.mp3,2020-06-17_10h52.06.664,TranslationElicitation_spa,3.2.4,Win32,60,5ee3dfc37e2f6d0b805831bc,,1,0,80,67,1,79
,,,,,,,,,,,,,,,,,,,,,,,,,,,,,,,,,,,a,1.910000086,RA,FALSE,,,,,,,175,raspall,Catalan,Sounds/cat_raspall.mp3,2020-06-17_10h52.06.664,TranslationElicitation_spa,3.2.4,Win32,60,5ee3dfc37e2f6d0b805831bc,,1,0,80,67,1,79
,,,,,,,,,,,,,,,,,,,,,,,,,,,,,,,,,,,s,2.061000109,RAS,FALSE,,,,,,,175,raspall,Catalan,Sounds/cat_raspall.mp3,2020-06-17_10h52.06.664,TranslationElicitation_spa,3.2.4,Win32,60,5ee3dfc37e2f6d0b805831bc,,1,0,80,67,1,79
,,,,,,,,,,,,,,,,,,,,,,,,,,,,,,,,,,,p,2.294000149,RASP,FALSE,,,,,,,175,raspall,Catalan,Sounds/cat_raspall.mp3,2020-06-17_10h52.06.664,TranslationElicitation_spa,3.2.4,Win32,60,5ee3dfc37e2f6d0b805831bc,,1,0,80,67,1,79
,,,,,,,,,,,,,,,,,,,,,,,,,,,,,,,,,,,a,2.476999998,RASPA,FALSE,,,,,,,175,raspall,Catalan,Sounds/cat_raspall.mp3,2020-06-17_10h52.06.664,TranslationElicitation_spa,3.2.4,Win32,60,5ee3dfc37e2f6d0b805831bc,,1,0,80,67,1,79
,,,,,,,,,,,,,,,,,,,,,,,,,,,,,,,,,,,r,3.112999916,RASPAR,FALSE,,,,,,,175,raspall,Catalan,Sounds/cat_raspall.mp3,2020-06-17_10h52.06.664,TranslationElicitation_spa,3.2.4,Win32,60,5ee3dfc37e2f6d0b805831bc,,1,0,80,67,1,79
,,,,,,,,,,,,,,,,,,,,,,,,,,,,,,,,,,,return,3.27699995,,FALSE,,,,,,,175,raspall,Catalan,Sounds/cat_raspall.mp3,2020-06-17_10h52.06.664,TranslationElicitation_spa,3.2.4,Win32,60,5ee3dfc37e2f6d0b805831bc,3.27699995,1,0,80,67,1,79
,,,,,,,,,,,,,,,,,,,,,,,,,,,,,,,,,,,,,,,,,,,,,175,raspall,Catalan,Sounds/cat_raspall.mp3,2020-06-17_10h52.06.664,TranslationElicitation_spa,3.2.4,Win32,60,5ee3dfc37e2f6d0b805831bc,,1,0,80,67,1,79
,,,,,,,,,,,,,,,,,,,,,,,,,,,,,,,,,,,g,1.530999899,G,FALSE,,,,,,,140,gat,Catalan,Sounds/cat_gat.mp3,2020-06-17_10h52.06.664,TranslationElicitation_spa,3.2.4,Win32,60,5ee3dfc37e2f6d0b805831bc,,1,0,80,35,1,79
,,,,,,,,,,,,,,,,,,,,,,,,,,,,,,,,,,,a,1.697999954,GA,FALSE,,,,,,,140,gat,Catalan,Sounds/cat_gat.mp3,2020-06-17_10h52.06.664,TranslationElicitation_spa,3.2.4,Win32,60,5ee3dfc37e2f6d0b805831bc,,1,0,80,35,1,79
,,,,,,,,,,,,,,,,,,,,,,,,,,,,,,,,,,,t,1.914000034,GAT,FALSE,,,,,,,140,gat,Catalan,Sounds/cat_gat.mp3,2020-06-17_10h52.06.664,TranslationElicitation_spa,3.2.4,Win32,60,5ee3dfc37e2f6d0b805831bc,,1,0,80,35,1,79
,,,,,,,,,,,,,,,,,,,,,,,,,,,,,,,,,,,o,2.030999899,GATO,FALSE,,,,,,,140,gat,Catalan,Sounds/cat_gat.mp3,2020-06-17_10h52.06.664,TranslationElicitation_spa,3.2.4,Win32,60,5ee3dfc37e2f6d0b805831bc,,1,0,80,35,1,79
,,,,,,,,,,,,,,,,,,,,,,,,,,,,,,,,,,,return,2.263999939,,FALSE,,,,,,,140,gat,Catalan,Sounds/cat_gat.mp3,2020-06-17_10h52.06.664,TranslationElicitation_spa,3.2.4,Win32,60,5ee3dfc37e2f6d0b805831bc,2.263999939,1,0,80,35,1,79
,,,,,,,,,,,,,,,,,,,,,,,,,,,,,,,,,,,,,,,,,,,,,140,gat,Catalan,Sounds/cat_gat.mp3,2020-06-17_10h52.06.664,TranslationElicitation_spa,3.2.4,Win32,60,5ee3dfc37e2f6d0b805831bc,,1,0,80,35,1,79
,,,,,,,,,,,,,,,,,,,,,,,,,,,,,,,,,,,h,2.280999899,H,FALSE,,,,,,,185,ulleres,Catalan,Sounds/cat_ulleres.mp3,2020-06-17_10h52.06.664,TranslationElicitation_spa,3.2.4,Win32,60,5ee3dfc37e2f6d0b805831bc,,1,0,80,76,1,79
,,,,,,,,,,,,,,,,,,,,,,,,,,,,,,,,,,,o,2.414999962,HO,FALSE,,,,,,,185,ulleres,Catalan,Sounds/cat_ulleres.mp3,2020-06-17_10h52.06.664,TranslationElicitation_spa,3.2.4,Win32,60,5ee3dfc37e2f6d0b805831bc,,1,0,80,76,1,79
,,,,,,,,,,,,,,,,,,,,,,,,,,,,,,,,,,,m,2.580999851,HOM,FALSE,,,,,,,185,ulleres,Catalan,Sounds/cat_ulleres.mp3,2020-06-17_10h52.06.664,TranslationElicitation_spa,3.2.4,Win32,60,5ee3dfc37e2f6d0b805831bc,,1,0,80,76,1,79
,,,,,,,,,,,,,,,,,,,,,,,,,,,,,,,,,,,b,2.697999954,HOMB,FALSE,,,,,,,185,ulleres,Catalan,Sounds/cat_ulleres.mp3,2020-06-17_10h52.06.664,TranslationElicitation_spa,3.2.4,Win32,60,5ee3dfc37e2f6d0b805831bc,,1,0,80,76,1,79
,,,,,,,,,,,,,,,,,,,,,,,,,,,,,,,,,,,r,2.897999763,HOMBR,FALSE,,,,,,,185,ulleres,Catalan,Sounds/cat_ulleres.mp3,2020-06-17_10h52.06.664,TranslationElicitation_spa,3.2.4,Win32,60,5ee3dfc37e2f6d0b805831bc,,1,0,80,76,1,79
,,,,,,,,,,,,,,,,,,,,,,,,,,,,,,,,,,,r,2.997999907,HOMBRR,FALSE,,,,,,,185,ulleres,Catalan,Sounds/cat_ulleres.mp3,2020-06-17_10h52.06.664,TranslationElicitation_spa,3.2.4,Win32,60,5ee3dfc37e2f6d0b805831bc,,1,0,80,76,1,79
,,,,,,,,,,,,,,,,,,,,,,,,,,,,,,,,,,,backspace,3.346999884,HOMB,TRUE,,,,,,,185,ulleres,Catalan,Sounds/cat_ulleres.mp3,2020-06-17_10h52.06.664,TranslationElicitation_spa,3.2.4,Win32,60,5ee3dfc37e2f6d0b805831bc,,1,0,80,76,1,79
,,,,,,,,,,,,,,,,,,,,,,,,,,,,,,,,,,,e,3.480999947,HOMBE,TRUE,,,,,,,185,ulleres,Catalan,Sounds/cat_ulleres.mp3,2020-06-17_10h52.06.664,TranslationElicitation_spa,3.2.4,Win32,60,5ee3dfc37e2f6d0b805831bc,,1,0,80,76,1,79
,,,,,,,,,,,,,,,,,,,,,,,,,,,,,,,,,,,j,3.713999987,HOMBEJ,TRUE,,,,,,,185,ulleres,Catalan,Sounds/cat_ulleres.mp3,2020-06-17_10h52.06.664,TranslationElicitation_spa,3.2.4,Win32,60,5ee3dfc37e2f6d0b805831bc,,1,0,80,76,1,79
,,,,,,,,,,,,,,,,,,,,,,,,,,,,,,,,,,,a,3.863999844,HOMBEJA,TRUE,,,,,,,185,ulleres,Catalan,Sounds/cat_ulleres.mp3,2020-06-17_10h52.06.664,TranslationElicitation_spa,3.2.4,Win32,60,5ee3dfc37e2f6d0b805831bc,,1,0,80,76,1,79
,,,,,,,,,,,,,,,,,,,,,,,,,,,,,,,,,,,backspace,4.113999844,HOMBE,TRUE,,,,,,,185,ulleres,Catalan,Sounds/cat_ulleres.mp3,2020-06-17_10h52.06.664,TranslationElicitation_spa,3.2.4,Win32,60,5ee3dfc37e2f6d0b805831bc,,1,0,80,76,1,79
,,,,,,,,,,,,,,,,,,,,,,,,,,,,,,,,,,,backspace,5.096999884,HOM,TRUE,,,,,,,185,ulleres,Catalan,Sounds/cat_ulleres.mp3,2020-06-17_10h52.06.664,TranslationElicitation_spa,3.2.4,Win32,60,5ee3dfc37e2f6d0b805831bc,,1,0,80,76,1,79
,,,,,,,,,,,,,,,,,,,,,,,,,,,,,,,,,,,b,6.163999796,HOMB,TRUE,,,,,,,185,ulleres,Catalan,Sounds/cat_ulleres.mp3,2020-06-17_10h52.06.664,TranslationElicitation_spa,3.2.4,Win32,60,5ee3dfc37e2f6d0b805831bc,,1,0,80,76,1,79
,,,,,,,,,,,,,,,,,,,,,,,,,,,,,,,,,,,r,6.279999971,HOMBR,TRUE,,,,,,,185,ulleres,Catalan,Sounds/cat_ulleres.mp3,2020-06-17_10h52.06.664,TranslationElicitation_spa,3.2.4,Win32,60,5ee3dfc37e2f6d0b805831bc,,1,0,80,76,1,79
,,,,,,,,,,,,,,,,,,,,,,,,,,,,,,,,,,,e,6.446999788,HOMBRE,TRUE,,,,,,,185,ulleres,Catalan,Sounds/cat_ulleres.mp3,2020-06-17_10h52.06.664,TranslationElicitation_spa,3.2.4,Win32,60,5ee3dfc37e2f6d0b805831bc,,1,0,80,76,1,79
,,,,,,,,,,,,,,,,,,,,,,,,,,,,,,,,,,,r,6.763999939,HOMBRER,TRUE,,,,,,,185,ulleres,Catalan,Sounds/cat_ulleres.mp3,2020-06-17_10h52.06.664,TranslationElicitation_spa,3.2.4,Win32,60,5ee3dfc37e2f6d0b805831bc,,1,0,80,76,1,79
,,,,,,,,,,,,,,,,,,,,,,,,,,,,,,,,,,,a,6.962999821,HOMBRERA,TRUE,,,,,,,185,ulleres,Catalan,Sounds/cat_ulleres.mp3,2020-06-17_10h52.06.664,TranslationElicitation_spa,3.2.4,Win32,60,5ee3dfc37e2f6d0b805831bc,,1,0,80,76,1,79
,,,,,,,,,,,,,,,,,,,,,,,,,,,,,,,,,,,s,7.112999916,HOMBRERAS,TRUE,,,,,,,185,ulleres,Catalan,Sounds/cat_ulleres.mp3,2020-06-17_10h52.06.664,TranslationElicitation_spa,3.2.4,Win32,60,5ee3dfc37e2f6d0b805831bc,,1,0,80,76,1,79
,,,,,,,,,,,,,,,,,,,,,,,,,,,,,,,,,,,return,7.496999979,,TRUE,,,,,,,185,ulleres,Catalan,Sounds/cat_ulleres.mp3,2020-06-17_10h52.06.664,TranslationElicitation_spa,3.2.4,Win32,60,5ee3dfc37e2f6d0b805831bc,7.495999813,1,0,80,76,1,79
,,,,,,,,,,,,,,,,,,,,,,,,,,,,,,,,,,,,,,,,,,,,,185,ulleres,Catalan,Sounds/cat_ulleres.mp3,2020-06-17_10h52.06.664,TranslationElicitation_spa,3.2.4,Win32,60,5ee3dfc37e2f6d0b805831bc,,1,0,80,76,1,79
,,,,,,,,,,,,,,,,,,,,,,,,,,,,,,,,,,,t,1.261999846,T,FALSE,,,,,,,181,tobogan,Catalan,Sounds/cat_tobogan.mp3,2020-06-17_10h52.06.664,TranslationElicitation_spa,3.2.4,Win32,60,5ee3dfc37e2f6d0b805831bc,,1,0,80,72,1,79
,,,,,,,,,,,,,,,,,,,,,,,,,,,,,,,,,,,o,1.394999981,TO,FALSE,,,,,,,181,tobogan,Catalan,Sounds/cat_tobogan.mp3,2020-06-17_10h52.06.664,TranslationElicitation_spa,3.2.4,Win32,60,5ee3dfc37e2f6d0b805831bc,,1,0,80,72,1,79
,,,,,,,,,,,,,,,,,,,,,,,,,,,,,,,,,,,b,1.513999939,TOB,FALSE,,,,,,,181,tobogan,Catalan,Sounds/cat_tobogan.mp3,2020-06-17_10h52.06.664,TranslationElicitation_spa,3.2.4,Win32,60,5ee3dfc37e2f6d0b805831bc,,1,0,80,72,1,79
,,,,,,,,,,,,,,,,,,,,,,,,,,,,,,,,,,,o,1.694999933,TOBO,FALSE,,,,,,,181,tobogan,Catalan,Sounds/cat_tobogan.mp3,2020-06-17_10h52.06.664,TranslationElicitation_spa,3.2.4,Win32,60,5ee3dfc37e2f6d0b805831bc,,1,0,80,72,1,79
,,,,,,,,,,,,,,,,,,,,,,,,,,,,,,,,,,,g,2.210999966,TOBOG,FALSE,,,,,,,181,tobogan,Catalan,Sounds/cat_tobogan.mp3,2020-06-17_10h52.06.664,TranslationElicitation_spa,3.2.4,Win32,60,5ee3dfc37e2f6d0b805831bc,,1,0,80,72,1,79
,,,,,,,,,,,,,,,,,,,,,,,,,,,,,,,,,,,a,2.361000061,TOBOGA,FALSE,,,,,,,181,tobogan,Catalan,Sounds/cat_tobogan.mp3,2020-06-17_10h52.06.664,TranslationElicitation_spa,3.2.4,Win32,60,5ee3dfc37e2f6d0b805831bc,,1,0,80,72,1,79
,,,,,,,,,,,,,,,,,,,,,,,,,,,,,,,,,,,n,2.444000006,TOBOGAN,FALSE,,,,,,,181,tobogan,Catalan,Sounds/cat_tobogan.mp3,2020-06-17_10h52.06.664,TranslationElicitation_spa,3.2.4,Win32,60,5ee3dfc37e2f6d0b805831bc,,1,0,80,72,1,79
,,,,,,,,,,,,,,,,,,,,,,,,,,,,,,,,,,,return,2.694999933,,FALSE,,,,,,,181,tobogan,Catalan,Sounds/cat_tobogan.mp3,2020-06-17_10h52.06.664,TranslationElicitation_spa,3.2.4,Win32,60,5ee3dfc37e2f6d0b805831bc,2.694999933,1,0,80,72,1,79
,,,,,,,,,,,,,,,,,,,,,,,,,,,,,,,,,,,,,,,,,,,,,181,tobogan,Catalan,Sounds/cat_tobogan.mp3,2020-06-17_10h52.06.664,TranslationElicitation_spa,3.2.4,Win32,60,5ee3dfc37e2f6d0b805831bc,,1,0,80,72,1,79
,,,,,,,,,,,,,,,,,,,,,,,,,,,,,,,,,,,p,1.296999931,P,FALSE,,,,,,,174,porta,Catalan,Sounds/cat_porta.mp3,2020-06-17_10h52.06.664,TranslationElicitation_spa,3.2.4,Win32,60,5ee3dfc37e2f6d0b805831bc,,1,0,80,66,1,79
,,,,,,,,,,,,,,,,,,,,,,,,,,,,,,,,,,,u,1.829999924,PU,FALSE,,,,,,,174,porta,Catalan,Sounds/cat_porta.mp3,2020-06-17_10h52.06.664,TranslationElicitation_spa,3.2.4,Win32,60,5ee3dfc37e2f6d0b805831bc,,1,0,80,66,1,79
,,,,,,,,,,,,,,,,,,,,,,,,,,,,,,,,,,,e,1.980000019,PUE,FALSE,,,,,,,174,porta,Catalan,Sounds/cat_porta.mp3,2020-06-17_10h52.06.664,TranslationElicitation_spa,3.2.4,Win32,60,5ee3dfc37e2f6d0b805831bc,,1,0,80,66,1,79
,,,,,,,,,,,,,,,,,,,,,,,,,,,,,,,,,,,r,2.146999836,PUER,FALSE,,,,,,,174,porta,Catalan,Sounds/cat_porta.mp3,2020-06-17_10h52.06.664,TranslationElicitation_spa,3.2.4,Win32,60,5ee3dfc37e2f6d0b805831bc,,1,0,80,66,1,79
,,,,,,,,,,,,,,,,,,,,,,,,,,,,,,,,,,,t,2.414000034,PUERT,FALSE,,,,,,,174,porta,Catalan,Sounds/cat_porta.mp3,2020-06-17_10h52.06.664,TranslationElicitation_spa,3.2.4,Win32,60,5ee3dfc37e2f6d0b805831bc,,1,0,80,66,1,79
,,,,,,,,,,,,,,,,,,,,,,,,,,,,,,,,,,,a,2.631000042,PUERTA,FALSE,,,,,,,174,porta,Catalan,Sounds/cat_porta.mp3,2020-06-17_10h52.06.664,TranslationElicitation_spa,3.2.4,Win32,60,5ee3dfc37e2f6d0b805831bc,,1,0,80,66,1,79
,,,,,,,,,,,,,,,,,,,,,,,,,,,,,,,,,,,return,2.746999979,,FALSE,,,,,,,174,porta,Catalan,Sounds/cat_porta.mp3,2020-06-17_10h52.06.664,TranslationElicitation_spa,3.2.4,Win32,60,5ee3dfc37e2f6d0b805831bc,2.746999979,1,0,80,66,1,79
,,,,,,,,,,,,,,,,,,,,,,,,,,,,,,,,,,,,,,,,,,,,,174,porta,Catalan,Sounds/cat_porta.mp3,2020-06-17_10h52.06.664,TranslationElicitation_spa,3.2.4,Win32,60,5ee3dfc37e2f6d0b805831bc,,1,0,80,66,1,79
,,,,,,,,,,,,,,,,,,,,,,,,,,,,,,,,,,,l,1.463999987,L,FALSE,,,,,,,149,llibre,Catalan,Sounds/cat_llibre.mp3,2020-06-17_10h52.06.664,TranslationElicitation_spa,3.2.4,Win32,60,5ee3dfc37e2f6d0b805831bc,,1,0,80,43,1,79
,,,,,,,,,,,,,,,,,,,,,,,,,,,,,,,,,,,i,1.746999979,LI,FALSE,,,,,,,149,llibre,Catalan,Sounds/cat_llibre.mp3,2020-06-17_10h52.06.664,TranslationElicitation_spa,3.2.4,Win32,60,5ee3dfc37e2f6d0b805831bc,,1,0,80,43,1,79
,,,,,,,,,,,,,,,,,,,,,,,,,,,,,,,,,,,b,1.897000074,LIB,FALSE,,,,,,,149,llibre,Catalan,Sounds/cat_llibre.mp3,2020-06-17_10h52.06.664,TranslationElicitation_spa,3.2.4,Win32,60,5ee3dfc37e2f6d0b805831bc,,1,0,80,43,1,79
,,,,,,,,,,,,,,,,,,,,,,,,,,,,,,,,,,,r,2.063000202,LIBR,FALSE,,,,,,,149,llibre,Catalan,Sounds/cat_llibre.mp3,2020-06-17_10h52.06.664,TranslationElicitation_spa,3.2.4,Win32,60,5ee3dfc37e2f6d0b805831bc,,1,0,80,43,1,79
,,,,,,,,,,,,,,,,,,,,,,,,,,,,,,,,,,,o,2.397000074,LIBRO,FALSE,,,,,,,149,llibre,Catalan,Sounds/cat_llibre.mp3,2020-06-17_10h52.06.664,TranslationElicitation_spa,3.2.4,Win32,60,5ee3dfc37e2f6d0b805831bc,,1,0,80,43,1,79
,,,,,,,,,,,,,,,,,,,,,,,,,,,,,,,,,,,return,2.713000059,,FALSE,,,,,,,149,llibre,Catalan,Sounds/cat_llibre.mp3,2020-06-17_10h52.06.664,TranslationElicitation_spa,3.2.4,Win32,60,5ee3dfc37e2f6d0b805831bc,2.713000059,1,0,80,43,1,79
,,,,,,,,,,,,,,,,,,,,,,,,,,,,,,,,,,,,,,,,,,,,,149,llibre,Catalan,Sounds/cat_llibre.mp3,2020-06-17_10h52.06.664,TranslationElicitation_spa,3.2.4,Win32,60,5ee3dfc37e2f6d0b805831bc,,1,0,80,43,1,79
,,,,,,,,,,,,,,,,,,,,,,,,,,,,,,,,,,,b,3.447999954,B,FALSE,,,,,,,117,boto,Catalan,Sounds/cat_boto.mp3,2020-06-17_10h52.06.664,TranslationElicitation_spa,3.2.4,Win32,60,5ee3dfc37e2f6d0b805831bc,,1,0,80,12,1,79
,,,,,,,,,,,,,,,,,,,,,,,,,,,,,,,,,,,u,3.613999844,BU,FALSE,,,,,,,117,boto,Catalan,Sounds/cat_boto.mp3,2020-06-17_10h52.06.664,TranslationElicitation_spa,3.2.4,Win32,60,5ee3dfc37e2f6d0b805831bc,,1,0,80,12,1,79
,,,,,,,,,,,,,,,,,,,,,,,,,,,,,,,,,,,t,3.713999987,BUT,FALSE,,,,,,,117,boto,Catalan,Sounds/cat_boto.mp3,2020-06-17_10h52.06.664,TranslationElicitation_spa,3.2.4,Win32,60,5ee3dfc37e2f6d0b805831bc,,1,0,80,12,1,79
,,,,,,,,,,,,,,,,,,,,,,,,,,,,,,,,,,,a,3.863999844,BUTA,FALSE,,,,,,,117,boto,Catalan,Sounds/cat_boto.mp3,2020-06-17_10h52.06.664,TranslationElicitation_spa,3.2.4,Win32,60,5ee3dfc37e2f6d0b805831bc,,1,0,80,12,1,79
,,,,,,,,,,,,,,,,,,,,,,,,,,,,,,,,,,,n,3.914000034,BUTAN,FALSE,,,,,,,117,boto,Catalan,Sounds/cat_boto.mp3,2020-06-17_10h52.06.664,TranslationElicitation_spa,3.2.4,Win32,60,5ee3dfc37e2f6d0b805831bc,,1,0,80,12,1,79
,,,,,,,,,,,,,,,,,,,,,,,,,,,,,,,,,,,o,4.063999891,BUTANO,FALSE,,,,,,,117,boto,Catalan,Sounds/cat_boto.mp3,2020-06-17_10h52.06.664,TranslationElicitation_spa,3.2.4,Win32,60,5ee3dfc37e2f6d0b805831bc,,1,0,80,12,1,79
,,,,,,,,,,,,,,,,,,,,,,,,,,,,,,,,,,,return,4.296999931,,FALSE,,,,,,,117,boto,Catalan,Sounds/cat_boto.mp3,2020-06-17_10h52.06.664,TranslationElicitation_spa,3.2.4,Win32,60,5ee3dfc37e2f6d0b805831bc,4.296999931,1,0,80,12,1,79
,,,,,,,,,,,,,,,,,,,,,,,,,,,,,,,,,,,,,,,,,,,,,117,boto,Catalan,Sounds/cat_boto.mp3,2020-06-17_10h52.06.664,TranslationElicitation_spa,3.2.4,Win32,60,5ee3dfc37e2f6d0b805831bc,,1,0,80,12,1,79
,,,,,,,,,,,,,,,,,,,,,,,,,,,,,,,,,,,t,1.430000067,T,FALSE,,,,,,,183,tren,Catalan,Sounds/cat_tren.mp3,2020-06-17_10h52.06.664,TranslationElicitation_spa,3.2.4,Win32,60,5ee3dfc37e2f6d0b805831bc,,1,0,80,74,1,79
,,,,,,,,,,,,,,,,,,,,,,,,,,,,,,,,,,,r,1.645999908,TR,FALSE,,,,,,,183,tren,Catalan,Sounds/cat_tren.mp3,2020-06-17_10h52.06.664,TranslationElicitation_spa,3.2.4,Win32,60,5ee3dfc37e2f6d0b805831bc,,1,0,80,74,1,79
,,,,,,,,,,,,,,,,,,,,,,,,,,,,,,,,,,,e,1.829999924,TRE,FALSE,,,,,,,183,tren,Catalan,Sounds/cat_tren.mp3,2020-06-17_10h52.06.664,TranslationElicitation_spa,3.2.4,Win32,60,5ee3dfc37e2f6d0b805831bc,,1,0,80,74,1,79
,,,,,,,,,,,,,,,,,,,,,,,,,,,,,,,,,,,n,1.947000027,TREN,FALSE,,,,,,,183,tren,Catalan,Sounds/cat_tren.mp3,2020-06-17_10h52.06.664,TranslationElicitation_spa,3.2.4,Win32,60,5ee3dfc37e2f6d0b805831bc,,1,0,80,74,1,79
,,,,,,,,,,,,,,,,,,,,,,,,,,,,,,,,,,,return,2.279999971,,FALSE,,,,,,,183,tren,Catalan,Sounds/cat_tren.mp3,2020-06-17_10h52.06.664,TranslationElicitation_spa,3.2.4,Win32,60,5ee3dfc37e2f6d0b805831bc,2.279999971,1,0,80,74,1,79
,,,,,,,,,,,,,,,,,,,,,,,,,,,,,,,,,,,,,,,,,,,,,183,tren,Catalan,Sounds/cat_tren.mp3,2020-06-17_10h52.06.664,TranslationElicitation_spa,3.2.4,Win32,60,5ee3dfc37e2f6d0b805831bc,,1,0,80,74,1,79
,,,,,,,,,,,,,,,,,,,,,,,,,,,,,,,,,,,m,0.980999947,M,FALSE,,,,,,,155,moneda,Catalan,Sounds/cat_moneda.mp3,2020-06-17_10h52.06.664,TranslationElicitation_spa,3.2.4,Win32,60,5ee3dfc37e2f6d0b805831bc,,1,0,80,49,1,79
,,,,,,,,,,,,,,,,,,,,,,,,,,,,,,,,,,,o,1.363999844,MO,FALSE,,,,,,,155,moneda,Catalan,Sounds/cat_moneda.mp3,2020-06-17_10h52.06.664,TranslationElicitation_spa,3.2.4,Win32,60,5ee3dfc37e2f6d0b805831bc,,1,0,80,49,1,79
,,,,,,,,,,,,,,,,,,,,,,,,,,,,,,,,,,,n,1.579999924,MON,FALSE,,,,,,,155,moneda,Catalan,Sounds/cat_moneda.mp3,2020-06-17_10h52.06.664,TranslationElicitation_spa,3.2.4,Win32,60,5ee3dfc37e2f6d0b805831bc,,1,0,80,49,1,79
,,,,,,,,,,,,,,,,,,,,,,,,,,,,,,,,,,,e,1.712999821,MONE,FALSE,,,,,,,155,moneda,Catalan,Sounds/cat_moneda.mp3,2020-06-17_10h52.06.664,TranslationElicitation_spa,3.2.4,Win32,60,5ee3dfc37e2f6d0b805831bc,,1,0,80,49,1,79
,,,,,,,,,,,,,,,,,,,,,,,,,,,,,,,,,,,d,1.896999836,MONED,FALSE,,,,,,,155,moneda,Catalan,Sounds/cat_moneda.mp3,2020-06-17_10h52.06.664,TranslationElicitation_spa,3.2.4,Win32,60,5ee3dfc37e2f6d0b805831bc,,1,0,80,49,1,79
,,,,,,,,,,,,,,,,,,,,,,,,,,,,,,,,,,,a,2.013999939,MONEDA,FALSE,,,,,,,155,moneda,Catalan,Sounds/cat_moneda.mp3,2020-06-17_10h52.06.664,TranslationElicitation_spa,3.2.4,Win32,60,5ee3dfc37e2f6d0b805831bc,,1,0,80,49,1,79
,,,,,,,,,,,,,,,,,,,,,,,,,,,,,,,,,,,return,2.330999851,,FALSE,,,,,,,155,moneda,Catalan,Sounds/cat_moneda.mp3,2020-06-17_10h52.06.664,TranslationElicitation_spa,3.2.4,Win32,60,5ee3dfc37e2f6d0b805831bc,2.329999924,1,0,80,49,1,79
,,,,,,,,,,,,,,,,,,,,,,,,,,,,,,,,,,,,,,,,,,,,,155,moneda,Catalan,Sounds/cat_moneda.mp3,2020-06-17_10h52.06.664,TranslationElicitation_spa,3.2.4,Win32,60,5ee3dfc37e2f6d0b805831bc,,1,0,80,49,1,79
,,,,,,,,,,,,,,,,,,,,,,,,,,,,,,,,,,,v,1.513999939,V,FALSE,,,,,,,116,bolquer,Catalan,Sounds/cat_bolquer.mp3,2020-06-17_10h52.06.664,TranslationElicitation_spa,3.2.4,Win32,60,5ee3dfc37e2f6d0b805831bc,,1,0,80,11,1,79
,,,,,,,,,,,,,,,,,,,,,,,,,,,,,,,,,,,o,1.648000002,VO,FALSE,,,,,,,116,bolquer,Catalan,Sounds/cat_bolquer.mp3,2020-06-17_10h52.06.664,TranslationElicitation_spa,3.2.4,Win32,60,5ee3dfc37e2f6d0b805831bc,,1,0,80,11,1,79
,,,,,,,,,,,,,,,,,,,,,,,,,,,,,,,,,,,l,1.830999851,VOL,FALSE,,,,,,,116,bolquer,Catalan,Sounds/cat_bolquer.mp3,2020-06-17_10h52.06.664,TranslationElicitation_spa,3.2.4,Win32,60,5ee3dfc37e2f6d0b805831bc,,1,0,80,11,1,79
,,,,,,,,,,,,,,,,,,,,,,,,,,,,,,,,,,,c,1.963999987,VOLC,FALSE,,,,,,,116,bolquer,Catalan,Sounds/cat_bolquer.mp3,2020-06-17_10h52.06.664,TranslationElicitation_spa,3.2.4,Win32,60,5ee3dfc37e2f6d0b805831bc,,1,0,80,11,1,79
,,,,,,,,,,,,,,,,,,,,,,,,,,,,,,,,,,,a,2.130999804,VOLCA,FALSE,,,,,,,116,bolquer,Catalan,Sounds/cat_bolquer.mp3,2020-06-17_10h52.06.664,TranslationElicitation_spa,3.2.4,Win32,60,5ee3dfc37e2f6d0b805831bc,,1,0,80,11,1,79
,,,,,,,,,,,,,,,,,,,,,,,,,,,,,,,,,,,n,2.36500001,VOLCAN,FALSE,,,,,,,116,bolquer,Catalan,Sounds/cat_bolquer.mp3,2020-06-17_10h52.06.664,TranslationElicitation_spa,3.2.4,Win32,60,5ee3dfc37e2f6d0b805831bc,,1,0,80,11,1,79
,,,,,,,,,,,,,,,,,,,,,,,,,,,,,,,,,,,backspace,2.746999979,VOLC,TRUE,,,,,,,116,bolquer,Catalan,Sounds/cat_bolquer.mp3,2020-06-17_10h52.06.664,TranslationElicitation_spa,3.2.4,Win32,60,5ee3dfc37e2f6d0b805831bc,,1,0,80,11,1,79
,,,,,,,,,,,,,,,,,,,,,,,,,,,,,,,,,,,backspace,2.880999804,VO,TRUE,,,,,,,116,bolquer,Catalan,Sounds/cat_bolquer.mp3,2020-06-17_10h52.06.664,TranslationElicitation_spa,3.2.4,Win32,60,5ee3dfc37e2f6d0b805831bc,,1,0,80,11,1,79
,,,,,,,,,,,,,,,,,,,,,,,,,,,,,,,,,,,apostrophe,3.129999876,VO,TRUE,,,,,,,116,bolquer,Catalan,Sounds/cat_bolquer.mp3,2020-06-17_10h52.06.664,TranslationElicitation_spa,3.2.4,Win32,60,5ee3dfc37e2f6d0b805831bc,,1,0,80,11,1,79
,,,,,,,,,,,,,,,,,,,,,,,,,,,,,,,,,,,l,4.163999796,VO,TRUE,,,,,,,116,bolquer,Catalan,Sounds/cat_bolquer.mp3,2020-06-17_10h52.06.664,TranslationElicitation_spa,3.2.4,Win32,60,5ee3dfc37e2f6d0b805831bc,,1,0,80,11,1,79
,,,,,,,,,,,,,,,,,,,,,,,,,,,,,,,,,,,space,5.029999971,VO ,TRUE,,,,,,,116,bolquer,Catalan,Sounds/cat_bolquer.mp3,2020-06-17_10h52.06.664,TranslationElicitation_spa,3.2.4,Win32,60,5ee3dfc37e2f6d0b805831bc,,1,0,80,11,1,79
,,,,,,,,,,,,,,,,,,,,,,,,,,,,,,,,,,,backspace,5.629999876,V,TRUE,,,,,,,116,bolquer,Catalan,Sounds/cat_bolquer.mp3,2020-06-17_10h52.06.664,TranslationElicitation_spa,3.2.4,Win32,60,5ee3dfc37e2f6d0b805831bc,,1,0,80,11,1,79
,,,,,,,,,,,,,,,,,,,,,,,,,,,,,,,,,,,o,6.428999901,VÓ,TRUE,,,,,,,116,bolquer,Catalan,Sounds/cat_bolquer.mp3,2020-06-17_10h52.06.664,TranslationElicitation_spa,3.2.4,Win32,60,5ee3dfc37e2f6d0b805831bc,,1,0,80,11,1,79
,,,,,,,,,,,,,,,,,,,,,,,,,,,,,,,,,,,l,6.629999876,VÓL,TRUE,,,,,,,116,bolquer,Catalan,Sounds/cat_bolquer.mp3,2020-06-17_10h52.06.664,TranslationElicitation_spa,3.2.4,Win32,60,5ee3dfc37e2f6d0b805831bc,,1,0,80,11,1,79
,,,,,,,,,,,,,,,,,,,,,,,,,,,,,,,,,,,backspace,7.112999916,V,TRUE,,,,,,,116,bolquer,Catalan,Sounds/cat_bolquer.mp3,2020-06-17_10h52.06.664,TranslationElicitation_spa,3.2.4,Win32,60,5ee3dfc37e2f6d0b805831bc,,1,0,80,11,1,79
,,,,,,,,,,,,,,,,,,,,,,,,,,,,,,,,,,,backspace,7.362999916,,TRUE,,,,,,,116,bolquer,Catalan,Sounds/cat_bolquer.mp3,2020-06-17_10h52.06.664,TranslationElicitation_spa,3.2.4,Win32,60,5ee3dfc37e2f6d0b805831bc,,1,0,80,11,1,79
,,,,,,,,,,,,,,,,,,,,,,,,,,,,,,,,,,,v,8.145999908,V,TRUE,,,,,,,116,bolquer,Catalan,Sounds/cat_bolquer.mp3,2020-06-17_10h52.06.664,TranslationElicitation_spa,3.2.4,Win32,60,5ee3dfc37e2f6d0b805831bc,,1,0,80,11,1,79
,,,,,,,,,,,,,,,,,,,,,,,,,,,,,,,,,,,o,8.296999931,VO,TRUE,,,,,,,116,bolquer,Catalan,Sounds/cat_bolquer.mp3,2020-06-17_10h52.06.664,TranslationElicitation_spa,3.2.4,Win32,60,5ee3dfc37e2f6d0b805831bc,,1,0,80,11,1,79
,,,,,,,,,,,,,,,,,,,,,,,,,,,,,,,,,,,l,8.446999788,VOL,TRUE,,,,,,,116,bolquer,Catalan,Sounds/cat_bolquer.mp3,2020-06-17_10h52.06.664,TranslationElicitation_spa,3.2.4,Win32,60,5ee3dfc37e2f6d0b805831bc,,1,0,80,11,1,79
,,,,,,,,,,,,,,,,,,,,,,,,,,,,,,,,,,,c,8.546999931,VOLC,TRUE,,,,,,,116,bolquer,Catalan,Sounds/cat_bolquer.mp3,2020-06-17_10h52.06.664,TranslationElicitation_spa,3.2.4,Win32,60,5ee3dfc37e2f6d0b805831bc,,1,0,80,11,1,79
,,,,,,,,,,,,,,,,,,,,,,,,,,,,,,,,,,,a,8.728999853,VOLCA,TRUE,,,,,,,116,bolquer,Catalan,Sounds/cat_bolquer.mp3,2020-06-17_10h52.06.664,TranslationElicitation_spa,3.2.4,Win32,60,5ee3dfc37e2f6d0b805831bc,,1,0,80,11,1,79
,,,,,,,,,,,,,,,,,,,,,,,,,,,,,,,,,,,apostrophe,9.112999916,VOLCA,TRUE,,,,,,,116,bolquer,Catalan,Sounds/cat_bolquer.mp3,2020-06-17_10h52.06.664,TranslationElicitation_spa,3.2.4,Win32,60,5ee3dfc37e2f6d0b805831bc,,1,0,80,11,1,79
,,,,,,,,,,,,,,,,,,,,,,,,,,,,,,,,,,,backspace,9.628999949,VOL,TRUE,,,,,,,116,bolquer,Catalan,Sounds/cat_bolquer.mp3,2020-06-17_10h52.06.664,TranslationElicitation_spa,3.2.4,Win32,60,5ee3dfc37e2f6d0b805831bc,,1,0,80,11,1,79
